observation,sender,sender_type,sender_id,response,response_action,ended_on,duration,time_run,time_render,time_show,time_end,time_commit,timestamp,time_switch,distractors,german,swahili,enc,distractor1,distractor2,distractor3,response_2,x,correct,x_2,url_vp,url_sess,meta_labjs_version,meta_location,meta_user_agent,meta_platform,meta_language,meta_locale,meta_time_zone,meta_timezone_offset,meta_screen_width,meta_screen_height,meta_scroll_width,meta_scroll_height,meta_window_inner_width,meta_window_inner_height,meta_device_pixel_ratio,meta_labjs_build_flavor,meta_labjs_build_commit
ca79d,Introduction general,canvas.Screen,0,weiter,keypress(q),response,1855113.102,487.70000004768,3350.296,3383.498,1858496.6,1858505.9000001,2023-03-25T15:45:38Z,1858511.138,NULL,NA,NA,NA,NA,NA,NA,NA,NA,NA,NA,120,1,20.2.4,https://neurocog.fernuni.ch/studies/vweber/encoding_immediate/index.html?vp=120&sess=1,"Mozilla/5.0 (Windows NT 10.0; Win64; x64) AppleWebKit/537.36 (KHTML, like Gecko) Chrome/111.0.0.0 Safari/537.36",Win32,de-DE,de,America/New_York,240,1366,768,1366,609,1366,657,1,production,f5b4a49f956347addd546a832a3327688c2c0fef
ca79d,Introduction practice,canvas.Screen,1_0,NA,keypress(Space),response,4452.1620000715,1858506.3000001,1858492.851,1858511.138,1862963.3000001,1862964.9000001,2023-03-25T15:45:42Z,1862994.107,NULL,NA,NA,NA,NA,NA,NA,NA,NA,NA,NA,NA,NA,NA,NA,NA,NA,NA,NA,NA,NA,NA,NA,NA,NA,NA,NA,NA,NA,NA
ca79d,Deep Question,html.Page,1_1_0_0_0,NA,NA,form submission,10727.593000048,1862965.6,1862960.792,1862994.107,1873721.7,1873722,2023-03-25T15:45:53Z,1873726.635,"c(""distractor1"", ""distractor2"", ""distractor3"")",Qualität,mtindo,d,NA,NA,NA,fla,NA,NA,NA,NA,NA,NA,NA,NA,NA,NA,NA,NA,NA,NA,NA,NA,NA,NA,NA,NA,NA,NA
ca79d,"""Richtig""-Screen",canvas.Screen,1_1_0_0_1,NA,NA,skipped,NA,1873723.8000001,NA,NA,1873721.7,1873724,2023-03-25T15:45:53Z,1873726.635,"c(""distractor1"", ""distractor2"", ""distractor3"")",Qualität,mtindo,d,NA,NA,NA,NA,NA,NA,NA,NA,NA,NA,NA,NA,NA,NA,NA,NA,NA,NA,NA,NA,NA,NA,NA,NA,NA,NA
ca79d,"""Falsch""-Screen",canvas.Screen,1_1_0_0_2,NA,NA,timeout,4999.6939999999,1873725.3000001,1873710.227,1873726.635,1878710.186,1878715.9000001,2023-03-25T15:45:58Z,1878726.329,"c(""distractor1"", ""distractor2"", ""distractor3"")",Qualität,mtindo,d,NA,NA,NA,NA,NA,0,NA,NA,NA,NA,NA,NA,NA,NA,NA,NA,NA,NA,NA,NA,NA,NA,NA,NA,NA,NA
ca79d,deep,flow.Sequence,1_1_0_0,NA,NA,completion,15716.079,1862965.4000001,1862960.792,1862994.107,1878710.186,1878716.6,2023-03-25T15:45:58Z,1878726.329,"c(""distractor1"", ""distractor2"", ""distractor3"")",Qualität,mtindo,d,NA,NA,NA,NA,NA,NA,NA,NA,NA,NA,NA,NA,NA,NA,NA,NA,NA,NA,NA,NA,NA,NA,NA,NA,NA,NA
ca79d,shallow,flow.Sequence,1_1_0_1,NA,NA,skipped,NA,1878716.8000001,NA,NA,1878710.186,1878717,2023-03-25T15:45:58Z,1878726.329,"c(""distractor1"", ""distractor2"", ""distractor3"")",Qualität,mtindo,d,NA,NA,NA,NA,NA,NA,NA,NA,NA,NA,NA,NA,NA,NA,NA,NA,NA,NA,NA,NA,NA,NA,NA,NA,NA,NA
ca79d,task,flow.Sequence,1_1_0,NA,NA,completion,15716.079,1862965.4000001,1862960.792,1862994.107,1878710.186,1878717.4000001,2023-03-25T15:45:58Z,1878726.329,"c(""distractor1"", ""distractor2"", ""distractor3"")",Qualität,mtindo,d,NA,NA,NA,NA,NA,NA,NA,NA,NA,NA,NA,NA,NA,NA,NA,NA,NA,NA,NA,NA,NA,NA,NA,NA,NA,NA
ca79d,Deep Question,html.Page,1_1_1_0_0,NA,NA,form submission,7547.1710000001,1878717.9000001,1878710.186,1878726.329,1886273.5,1886273.8000001,2023-03-25T15:46:05Z,1886275.724,"c(""distractor1"", ""distractor2"", ""distractor3"")",Schatten,kivuli,d,NA,NA,NA,l,NA,NA,NA,NA,NA,NA,NA,NA,NA,NA,NA,NA,NA,NA,NA,NA,NA,NA,NA,NA,NA,NA
ca79d,"""Richtig""-Screen",canvas.Screen,1_1_1_0_1,NA,NA,skipped,NA,1886276.7,NA,NA,1886273.5,1886276.9000001,2023-03-25T15:46:05Z,1886275.724,"c(""distractor1"", ""distractor2"", ""distractor3"")",Schatten,kivuli,d,NA,NA,NA,NA,NA,NA,NA,NA,NA,NA,NA,NA,NA,NA,NA,NA,NA,NA,NA,NA,NA,NA,NA,NA,NA,NA
ca79d,"""Falsch""-Screen",canvas.Screen,1_1_1_0_2,NA,NA,timeout,4999.5820000002,1886278,1886259.282,1886275.724,1891259.065,1891269.2,2023-03-25T15:46:10Z,1891275.306,"c(""distractor1"", ""distractor2"", ""distractor3"")",Schatten,kivuli,d,NA,NA,NA,NA,NA,0,NA,NA,NA,NA,NA,NA,NA,NA,NA,NA,NA,NA,NA,NA,NA,NA,NA,NA,NA,NA
ca79d,deep,flow.Sequence,1_1_1_0,NA,NA,completion,12532.736,1878717.7,1878710.186,1878726.329,1891259.065,1891269.7,2023-03-25T15:46:10Z,1891275.306,"c(""distractor1"", ""distractor2"", ""distractor3"")",Schatten,kivuli,d,NA,NA,NA,NA,NA,NA,NA,NA,NA,NA,NA,NA,NA,NA,NA,NA,NA,NA,NA,NA,NA,NA,NA,NA,NA,NA
ca79d,shallow,flow.Sequence,1_1_1_1,NA,NA,skipped,NA,1891269.9000001,NA,NA,1891259.065,1891269.9000001,2023-03-25T15:46:10Z,1891275.306,"c(""distractor1"", ""distractor2"", ""distractor3"")",Schatten,kivuli,d,NA,NA,NA,NA,NA,NA,NA,NA,NA,NA,NA,NA,NA,NA,NA,NA,NA,NA,NA,NA,NA,NA,NA,NA,NA,NA
ca79d,task,flow.Sequence,1_1_1,NA,NA,completion,12532.736,1878717.6,1878710.186,1878726.329,1891259.065,1891270,2023-03-25T15:46:10Z,1891275.306,"c(""distractor1"", ""distractor2"", ""distractor3"")",Schatten,kivuli,d,NA,NA,NA,NA,NA,NA,NA,NA,NA,NA,NA,NA,NA,NA,NA,NA,NA,NA,NA,NA,NA,NA,NA,NA,NA,NA
ca79d,deep,flow.Sequence,1_1_2_0,NA,NA,skipped,NA,1891270.2,NA,NA,1891259.065,1891270.3000001,2023-03-25T15:46:10Z,1891275.306,"c(""distractor1"", ""distractor2"", ""distractor3"")",Rückhalt,msaada,s,muhula,auwali,kiwimbe,NA,NA,NA,NA,NA,NA,NA,NA,NA,NA,NA,NA,NA,NA,NA,NA,NA,NA,NA,NA,NA,NA,NA
ca79d,Shallow Question,html.Page,1_1_2_1_0,NA,NA,form submission,10716.294000024,1891270.3000001,1891259.065,1891275.306,1901991.6,1901991.9000001,2023-03-25T15:46:21Z,1902021.241,"c(""distractor1"", ""distractor2"", ""distractor3"")",Rückhalt,msaada,s,muhula,auwali,kiwimbe,msaada,NA,NA,NA,NA,NA,NA,NA,NA,NA,NA,NA,NA,NA,NA,NA,NA,NA,NA,NA,NA,NA,NA
ca79d,"""Richtig""-Screen",canvas.Screen,1_1_2_1_1,NA,NA,timeout,5002.9670000002,1901994.5,1901974.648,1902021.241,1907008.05,1907009.4000001,2023-03-25T15:46:26Z,1907024.208,"c(""distractor1"", ""distractor2"", ""distractor3"")",Rückhalt,msaada,s,muhula,auwali,kiwimbe,NA,NA,1,NA,NA,NA,NA,NA,NA,NA,NA,NA,NA,NA,NA,NA,NA,NA,NA,NA,NA,NA,NA
ca79d,"""Falsch""-Screen",canvas.Screen,1_1_2_1_2,NA,NA,skipped,NA,1907012.8000001,NA,NA,1907008.05,1907012.9000001,2023-03-25T15:46:26Z,1907024.208,"c(""distractor1"", ""distractor2"", ""distractor3"")",Rückhalt,msaada,s,muhula,auwali,kiwimbe,NA,NA,NA,NA,NA,NA,NA,NA,NA,NA,NA,NA,NA,NA,NA,NA,NA,NA,NA,NA,NA,NA,NA
ca79d,shallow,flow.Sequence,1_1_2_1,NA,NA,completion,15732.744,1891270.3000001,1891259.065,1891275.306,1907008.05,1907013.1,2023-03-25T15:46:26Z,1907024.208,"c(""distractor1"", ""distractor2"", ""distractor3"")",Rückhalt,msaada,s,muhula,auwali,kiwimbe,NA,NA,NA,NA,NA,NA,NA,NA,NA,NA,NA,NA,NA,NA,NA,NA,NA,NA,NA,NA,NA,NA,NA
ca79d,task,flow.Sequence,1_1_2,NA,NA,completion,15732.744,1891270.2,1891259.065,1891275.306,1907008.05,1907013.3000001,2023-03-25T15:46:26Z,1907024.208,"c(""distractor1"", ""distractor2"", ""distractor3"")",Rückhalt,msaada,s,muhula,auwali,kiwimbe,NA,NA,NA,NA,NA,NA,NA,NA,NA,NA,NA,NA,NA,NA,NA,NA,NA,NA,NA,NA,NA,NA,NA
ca79d,deep,flow.Sequence,1_1_3_0,NA,NA,skipped,NA,1907013.3000001,NA,NA,1907008.05,1907013.4000001,2023-03-25T15:46:26Z,1907024.208,"c(""distractor1"", ""distractor2"", ""distractor3"")",Kritik,lawama,s,dereva,nafasi,mawazo,NA,NA,NA,NA,NA,NA,NA,NA,NA,NA,NA,NA,NA,NA,NA,NA,NA,NA,NA,NA,NA,NA,NA
ca79d,Shallow Question,html.Page,1_1_3_1_0,NA,NA,form submission,11169.692000095,1907013.4000001,1907008.05,1907024.208,1918193.9000001,1918194,2023-03-25T15:46:37Z,1918206.658,"c(""distractor1"", ""distractor2"", ""distractor3"")",Kritik,lawama,s,dereva,nafasi,mawazo,dereva,NA,NA,NA,NA,NA,NA,NA,NA,NA,NA,NA,NA,NA,NA,NA,NA,NA,NA,NA,NA,NA,NA
ca79d,"""Richtig""-Screen",canvas.Screen,1_1_3_1_1,NA,NA,skipped,NA,1918196.4000001,NA,NA,1918193.9000001,1918196.7,2023-03-25T15:46:37Z,1918206.658,"c(""distractor1"", ""distractor2"", ""distractor3"")",Kritik,lawama,s,dereva,nafasi,mawazo,NA,NA,NA,NA,NA,NA,NA,NA,NA,NA,NA,NA,NA,NA,NA,NA,NA,NA,NA,NA,NA,NA,NA
ca79d,"""Falsch""-Screen",canvas.Screen,1_1_3_1_2,NA,NA,timeout,4999.98,1918197.5,1918190.05,1918206.658,1923190.122,1923191.2,2023-03-25T15:46:42Z,1923206.638,"c(""distractor1"", ""distractor2"", ""distractor3"")",Kritik,lawama,s,dereva,nafasi,mawazo,NA,NA,0,NA,NA,NA,NA,NA,NA,NA,NA,NA,NA,NA,NA,NA,NA,NA,NA,NA,NA,NA,NA
ca79d,shallow,flow.Sequence,1_1_3_1,NA,NA,completion,16165.914,1907013.4000001,1907008.05,1907024.208,1923190.122,1923191.6,2023-03-25T15:46:42Z,1923206.638,"c(""distractor1"", ""distractor2"", ""distractor3"")",Kritik,lawama,s,dereva,nafasi,mawazo,NA,NA,NA,NA,NA,NA,NA,NA,NA,NA,NA,NA,NA,NA,NA,NA,NA,NA,NA,NA,NA,NA,NA
ca79d,task,flow.Sequence,1_1_3,NA,NA,completion,16165.914,1907013.3000001,1907008.05,1907024.208,1923190.122,1923191.9000001,2023-03-25T15:46:42Z,1923206.638,"c(""distractor1"", ""distractor2"", ""distractor3"")",Kritik,lawama,s,dereva,nafasi,mawazo,NA,NA,NA,NA,NA,NA,NA,NA,NA,NA,NA,NA,NA,NA,NA,NA,NA,NA,NA,NA,NA,NA,NA
ca79d,Deep Question,html.Page,1_1_4_0_0,NA,NA,form submission,6253.5620000476,1923192.3000001,1923190.122,1923206.638,1929460.2,1929460.4000001,2023-03-25T15:46:49Z,1929473.067,"c(""distractor1"", ""distractor2"", ""distractor3"")",Gesundheit,salama,d,NA,NA,NA,hatschi,NA,NA,NA,NA,NA,NA,NA,NA,NA,NA,NA,NA,NA,NA,NA,NA,NA,NA,NA,NA,NA,NA
ca79d,"""Richtig""-Screen",canvas.Screen,1_1_4_0_1,NA,NA,skipped,NA,1929462.9000001,NA,NA,1929460.2,1929463.1,2023-03-25T15:46:49Z,1929473.067,"c(""distractor1"", ""distractor2"", ""distractor3"")",Gesundheit,salama,d,NA,NA,NA,NA,NA,NA,NA,NA,NA,NA,NA,NA,NA,NA,NA,NA,NA,NA,NA,NA,NA,NA,NA,NA,NA,NA
ca79d,"""Falsch""-Screen",canvas.Screen,1_1_4_0_2,NA,NA,timeout,4999.0970000001,1929463.7,1929456.191,1929473.067,1934455.535,1934458.2,2023-03-25T15:46:54Z,1934472.164,"c(""distractor1"", ""distractor2"", ""distractor3"")",Gesundheit,salama,d,NA,NA,NA,NA,NA,0,NA,NA,NA,NA,NA,NA,NA,NA,NA,NA,NA,NA,NA,NA,NA,NA,NA,NA,NA,NA
ca79d,deep,flow.Sequence,1_1_4_0,NA,NA,completion,11248.897,1923192.1,1923190.122,1923206.638,1934455.535,1934458.7,2023-03-25T15:46:54Z,1934472.164,"c(""distractor1"", ""distractor2"", ""distractor3"")",Gesundheit,salama,d,NA,NA,NA,NA,NA,NA,NA,NA,NA,NA,NA,NA,NA,NA,NA,NA,NA,NA,NA,NA,NA,NA,NA,NA,NA,NA
ca79d,shallow,flow.Sequence,1_1_4_1,NA,NA,skipped,NA,1934458.9000001,NA,NA,1934455.535,1934459.1,2023-03-25T15:46:54Z,1934472.164,"c(""distractor1"", ""distractor2"", ""distractor3"")",Gesundheit,salama,d,NA,NA,NA,NA,NA,NA,NA,NA,NA,NA,NA,NA,NA,NA,NA,NA,NA,NA,NA,NA,NA,NA,NA,NA,NA,NA
ca79d,task,flow.Sequence,1_1_4,NA,NA,completion,11248.897,1923192.1,1923190.122,1923206.638,1934455.535,1934459.4000001,2023-03-25T15:46:54Z,1934472.164,"c(""distractor1"", ""distractor2"", ""distractor3"")",Gesundheit,salama,d,NA,NA,NA,NA,NA,NA,NA,NA,NA,NA,NA,NA,NA,NA,NA,NA,NA,NA,NA,NA,NA,NA,NA,NA,NA,NA
ca79d,deep,flow.Sequence,1_1_5_0,NA,NA,skipped,NA,1934459.6,NA,NA,1934455.535,1934459.8000001,2023-03-25T15:46:54Z,1934472.164,"c(""distractor1"", ""distractor2"", ""distractor3"")",Gegenwart,hadhara,s,katiba,jokofu,mikopo,NA,NA,NA,NA,NA,NA,NA,NA,NA,NA,NA,NA,NA,NA,NA,NA,NA,NA,NA,NA,NA,NA,NA
ca79d,Shallow Question,html.Page,1_1_5_1_0,NA,NA,form submission,5701.8359999999,1934460,1934455.535,1934472.164,1940174,1940174.2,2023-03-25T15:46:59Z,1940188.383,"c(""distractor1"", ""distractor2"", ""distractor3"")",Gegenwart,hadhara,s,katiba,jokofu,mikopo,jokofu,NA,NA,NA,NA,NA,NA,NA,NA,NA,NA,NA,NA,NA,NA,NA,NA,NA,NA,NA,NA,NA,NA
ca79d,"""Richtig""-Screen",canvas.Screen,1_1_5_1_1,NA,NA,skipped,NA,1940176.8000001,NA,NA,1940174,1940176.8000001,2023-03-25T15:46:59Z,1940188.383,"c(""distractor1"", ""distractor2"", ""distractor3"")",Gegenwart,hadhara,s,katiba,jokofu,mikopo,NA,NA,NA,NA,NA,NA,NA,NA,NA,NA,NA,NA,NA,NA,NA,NA,NA,NA,NA,NA,NA,NA,NA
ca79d,"""Falsch""-Screen",canvas.Screen,1_1_5_1_2,NA,NA,timeout,5000.2250000001,1940177.6,1940172.077,1940188.383,1945171.866,1945172.9000001,2023-03-25T15:47:04Z,1945188.608,"c(""distractor1"", ""distractor2"", ""distractor3"")",Gegenwart,hadhara,s,katiba,jokofu,mikopo,NA,NA,0,NA,NA,NA,NA,NA,NA,NA,NA,NA,NA,NA,NA,NA,NA,NA,NA,NA,NA,NA,NA
ca79d,shallow,flow.Sequence,1_1_5_1,NA,NA,completion,10699.702,1934460,1934455.535,1934472.164,1945171.866,1945173.3000001,2023-03-25T15:47:04Z,1945188.608,"c(""distractor1"", ""distractor2"", ""distractor3"")",Gegenwart,hadhara,s,katiba,jokofu,mikopo,NA,NA,NA,NA,NA,NA,NA,NA,NA,NA,NA,NA,NA,NA,NA,NA,NA,NA,NA,NA,NA,NA,NA
ca79d,task,flow.Sequence,1_1_5,NA,NA,completion,10699.702,1934459.6,1934455.535,1934472.164,1945171.866,1945174,2023-03-25T15:47:04Z,1945188.608,"c(""distractor1"", ""distractor2"", ""distractor3"")",Gegenwart,hadhara,s,katiba,jokofu,mikopo,NA,NA,NA,NA,NA,NA,NA,NA,NA,NA,NA,NA,NA,NA,NA,NA,NA,NA,NA,NA,NA,NA,NA
ca79d,block,flow.Loop,1_1,NA,NA,completion,82177.759,1862965.4000001,1862960.792,1862994.107,1945171.866,1945174.3000001,2023-03-25T15:47:04Z,1945188.608,"c(""distractor1"", ""distractor2"", ""distractor3"")",NA,NA,NA,NA,NA,NA,NA,NA,NA,NA,NA,NA,NA,NA,NA,NA,NA,NA,NA,NA,NA,NA,NA,NA,NA,NA,NA,NA,NA
ca79d,Practice,flow.Sequence,1,NA,NA,completion,86660.728,1858506.3000001,1858492.851,1858511.138,1945171.866,1945174.6,2023-03-25T15:47:04Z,1945188.608,NULL,NA,NA,NA,NA,NA,NA,NA,NA,NA,NA,NA,NA,NA,NA,NA,NA,NA,NA,NA,NA,NA,NA,NA,NA,NA,NA,NA,NA,NA
ca79d,Experiment start,canvas.Screen,2,weiter,keypress(q),response,11254.592000048,1945174.8000001,1945171.866,1945188.608,1956443.2,1956444.5,2023-03-25T15:47:16Z,1956554.207,NULL,NA,NA,NA,NA,NA,NA,NA,NA,NA,NA,NA,NA,NA,NA,NA,NA,NA,NA,NA,NA,NA,NA,NA,NA,NA,NA,NA,NA,NA
ca79d,Deep Question,html.Page,3_0_0_0_0_0_0,NA,NA,form submission,8497.6930000954,1956543.1,1956537.49,1956554.207,1965051.9000001,1965052.1,2023-03-25T15:47:24Z,1965053.155,NULL,Hoffnung,matarajio,d,NA,NA,NA,hope,NA,NA,0,NA,NA,NA,NA,NA,NA,NA,NA,NA,NA,NA,NA,NA,NA,NA,NA,NA,NA,NA
ca79d,"""Richtig""-Screen",canvas.Screen,3_0_0_0_0_0_1,NA,NA,skipped,NA,1965055,NA,NA,1965051.9000001,1965055.2,2023-03-25T15:47:24Z,1965053.155,NULL,Hoffnung,matarajio,d,NA,NA,NA,NA,sdf,NA,0,NA,NA,NA,NA,NA,NA,NA,NA,NA,NA,NA,NA,NA,NA,NA,NA,NA,NA,NA
ca79d,"""Falsch""-Screen",canvas.Screen,3_0_0_0_0_0_2,NA,NA,timeout,4999.598,1965056.1,1965036.749,1965053.155,1970036.077,1970036.6,2023-03-25T15:47:29Z,1970052.753,NULL,Hoffnung,matarajio,d,NA,NA,NA,NA,sdf,0,0,NA,NA,NA,NA,NA,NA,NA,NA,NA,NA,NA,NA,NA,NA,NA,NA,NA,NA,NA
ca79d,deep,flow.Sequence,3_0_0_0_0_0,NA,NA,completion,13481.87,1956543.1,1956537.49,1956554.207,1970036.077,1970036.8000001,2023-03-25T15:47:29Z,1970052.753,NULL,Hoffnung,matarajio,d,NA,NA,NA,NA,sdf,NA,0,NA,NA,NA,NA,NA,NA,NA,NA,NA,NA,NA,NA,NA,NA,NA,NA,NA,NA,NA
ca79d,shallow,flow.Sequence,3_0_0_0_0_1,NA,NA,skipped,NA,1970036.9000001,NA,NA,1970036.077,1970037,2023-03-25T15:47:29Z,1970052.753,NULL,Hoffnung,matarajio,d,NA,NA,NA,NA,sdf,NA,0,NA,NA,NA,NA,NA,NA,NA,NA,NA,NA,NA,NA,NA,NA,NA,NA,NA,NA,NA
ca79d,task,flow.Sequence,3_0_0_0_0,NA,NA,completion,13481.87,1956543.1,1956537.49,1956554.207,1970036.077,1970037.1,2023-03-25T15:47:29Z,1970052.753,NULL,Hoffnung,matarajio,d,NA,NA,NA,NA,sdf,NA,0,NA,NA,NA,NA,NA,NA,NA,NA,NA,NA,NA,NA,NA,NA,NA,NA,NA,NA,NA
ca79d,deep,flow.Sequence,3_0_0_0_1_0,NA,NA,skipped,NA,1970037.2,NA,NA,1970036.077,1970037.3000001,2023-03-25T15:47:29Z,1970052.753,NULL,Theorie,nadharia,s,ushungi,mkutano,uwakilishi,NA,sdf,NA,0,NA,NA,NA,NA,NA,NA,NA,NA,NA,NA,NA,NA,NA,NA,NA,NA,NA,NA,NA
ca79d,Shallow Question,html.Page,3_0_0_0_1_1_0,NA,NA,form submission,5017.4470000477,1970037.6,1970036.077,1970052.753,1975070.2,1975070.4000001,2023-03-25T15:47:34Z,1975085.788,NULL,Theorie,nadharia,s,ushungi,mkutano,uwakilishi,ushungi,NA,NA,0,NA,NA,NA,NA,NA,NA,NA,NA,NA,NA,NA,NA,NA,NA,NA,NA,NA,NA,NA
ca79d,"""Richtig""-Screen",canvas.Screen,3_0_0_0_1_1_1,NA,NA,skipped,NA,1975072.5,NA,NA,1975070.2,1975072.6,2023-03-25T15:47:34Z,1975085.788,NULL,Theorie,nadharia,s,ushungi,mkutano,uwakilishi,NA,sdf,NA,0,NA,NA,NA,NA,NA,NA,NA,NA,NA,NA,NA,NA,NA,NA,NA,NA,NA,NA,NA
ca79d,"""Falsch""-Screen",canvas.Screen,3_0_0_0_1_1_2,NA,NA,timeout,4999.9680000001,1975073.2,1975069.067,1975085.788,1980069.26,1980070.2,2023-03-25T15:47:39Z,1980085.756,NULL,Theorie,nadharia,s,ushungi,mkutano,uwakilishi,NA,sdf,0,0,NA,NA,NA,NA,NA,NA,NA,NA,NA,NA,NA,NA,NA,NA,NA,NA,NA,NA,NA
ca79d,shallow,flow.Sequence,3_0_0_0_1_1,NA,NA,completion,10016.507,1970037.5,1970036.077,1970052.753,1980069.26,1980070.6,2023-03-25T15:47:39Z,1980085.756,NULL,Theorie,nadharia,s,ushungi,mkutano,uwakilishi,NA,sdf,NA,0,NA,NA,NA,NA,NA,NA,NA,NA,NA,NA,NA,NA,NA,NA,NA,NA,NA,NA,NA
ca79d,task,flow.Sequence,3_0_0_0_1,NA,NA,completion,10016.507,1970037.2,1970036.077,1970052.753,1980069.26,1980071,2023-03-25T15:47:39Z,1980085.756,NULL,Theorie,nadharia,s,ushungi,mkutano,uwakilishi,NA,sdf,NA,0,NA,NA,NA,NA,NA,NA,NA,NA,NA,NA,NA,NA,NA,NA,NA,NA,NA,NA,NA
ca79d,Deep Question,html.Page,3_0_0_0_2_0_0,NA,NA,form submission,7471.2439999999,1980071.2,1980069.26,1980085.756,1987557,1987557.4000001,2023-03-25T15:47:47Z,1987568.235,NULL,Erneuerung,ukarabati,d,NA,NA,NA,gla,NA,NA,0,NA,NA,NA,NA,NA,NA,NA,NA,NA,NA,NA,NA,NA,NA,NA,NA,NA,NA,NA
ca79d,"""Richtig""-Screen",canvas.Screen,3_0_0_0_2_0_1,NA,NA,skipped,NA,1987559.5,NA,NA,1987557,1987559.7,2023-03-25T15:47:47Z,1987568.235,NULL,Erneuerung,ukarabati,d,NA,NA,NA,NA,sdf,NA,0,NA,NA,NA,NA,NA,NA,NA,NA,NA,NA,NA,NA,NA,NA,NA,NA,NA,NA,NA
ca79d,"""Falsch""-Screen",canvas.Screen,3_0_0_0_2_0_2,NA,NA,timeout,5000.1649999998,1987560.3000001,1987551.73,1987568.235,1992551.641,1992552.6,2023-03-25T15:47:52Z,1992568.4,NULL,Erneuerung,ukarabati,d,NA,NA,NA,NA,sdf,0,0,NA,NA,NA,NA,NA,NA,NA,NA,NA,NA,NA,NA,NA,NA,NA,NA,NA,NA,NA
ca79d,deep,flow.Sequence,3_0_0_0_2_0,NA,NA,completion,12465.885,1980071.2,1980069.26,1980085.756,1992551.641,1992553,2023-03-25T15:47:52Z,1992568.4,NULL,Erneuerung,ukarabati,d,NA,NA,NA,NA,sdf,NA,0,NA,NA,NA,NA,NA,NA,NA,NA,NA,NA,NA,NA,NA,NA,NA,NA,NA,NA,NA
ca79d,shallow,flow.Sequence,3_0_0_0_2_1,NA,NA,skipped,NA,1992553.2,NA,NA,1992551.641,1992553.5,2023-03-25T15:47:52Z,1992568.4,NULL,Erneuerung,ukarabati,d,NA,NA,NA,NA,sdf,NA,0,NA,NA,NA,NA,NA,NA,NA,NA,NA,NA,NA,NA,NA,NA,NA,NA,NA,NA,NA
ca79d,task,flow.Sequence,3_0_0_0_2,NA,NA,completion,12465.885,1980071.1,1980069.26,1980085.756,1992551.641,1992553.7,2023-03-25T15:47:52Z,1992568.4,NULL,Erneuerung,ukarabati,d,NA,NA,NA,NA,sdf,NA,0,NA,NA,NA,NA,NA,NA,NA,NA,NA,NA,NA,NA,NA,NA,NA,NA,NA,NA,NA
ca79d,deep,flow.Sequence,3_0_0_0_3_0,NA,NA,skipped,NA,1992553.9000001,NA,NA,1992551.641,1992554.1,2023-03-25T15:47:52Z,1992568.4,NULL,Atmosphäre,angahewa,s,kuteseka,usahihi,kutoamini,NA,sdf,NA,0,NA,NA,NA,NA,NA,NA,NA,NA,NA,NA,NA,NA,NA,NA,NA,NA,NA,NA,NA
ca79d,Shallow Question,html.Page,3_0_0_0_3_1_0,NA,NA,form submission,7535.3000000478,1992554.3000001,1992551.641,1992568.4,2000103.7,2000103.9000001,2023-03-25T15:47:59Z,2000117.815,NULL,Atmosphäre,angahewa,s,kuteseka,usahihi,kutoamini,angahewa,NA,NA,0,NA,NA,NA,NA,NA,NA,NA,NA,NA,NA,NA,NA,NA,NA,NA,NA,NA,NA,NA
ca79d,"""Richtig""-Screen",canvas.Screen,3_0_0_0_3_1_1,NA,NA,timeout,4999.571,2000106.2,2000100.601,2000117.815,2005100.55,2005101.5,2023-03-25T15:48:04Z,2005117.386,NULL,Atmosphäre,angahewa,s,kuteseka,usahihi,kutoamini,NA,sdf,1,0,NA,NA,NA,NA,NA,NA,NA,NA,NA,NA,NA,NA,NA,NA,NA,NA,NA,NA,NA
ca79d,"""Falsch""-Screen",canvas.Screen,3_0_0_0_3_1_2,NA,NA,skipped,NA,2005106.2,NA,NA,2005100.55,2005106.4000001,2023-03-25T15:48:04Z,2005117.386,NULL,Atmosphäre,angahewa,s,kuteseka,usahihi,kutoamini,NA,sdf,NA,0,NA,NA,NA,NA,NA,NA,NA,NA,NA,NA,NA,NA,NA,NA,NA,NA,NA,NA,NA
ca79d,shallow,flow.Sequence,3_0_0_0_3_1,NA,NA,completion,12532.15,1992554.2,1992551.641,1992568.4,2005100.55,2005106.6,2023-03-25T15:48:04Z,2005117.386,NULL,Atmosphäre,angahewa,s,kuteseka,usahihi,kutoamini,NA,sdf,NA,0,NA,NA,NA,NA,NA,NA,NA,NA,NA,NA,NA,NA,NA,NA,NA,NA,NA,NA,NA
ca79d,task,flow.Sequence,3_0_0_0_3,NA,NA,completion,12532.15,1992553.8000001,1992551.641,1992568.4,2005100.55,2005106.7,2023-03-25T15:48:04Z,2005117.386,NULL,Atmosphäre,angahewa,s,kuteseka,usahihi,kutoamini,NA,sdf,NA,0,NA,NA,NA,NA,NA,NA,NA,NA,NA,NA,NA,NA,NA,NA,NA,NA,NA,NA,NA
ca79d,deep,flow.Sequence,3_0_0_0_4_0,NA,NA,skipped,NA,2005106.8000001,NA,NA,2005100.55,2005106.8000001,2023-03-25T15:48:04Z,2005117.386,NULL,Flexibilität,kubadilika,s,enjini,usikilivu,hesabu,NA,sdf,NA,0,NA,NA,NA,NA,NA,NA,NA,NA,NA,NA,NA,NA,NA,NA,NA,NA,NA,NA,NA
ca79d,Shallow Question,html.Page,3_0_0_0_4_1_0,NA,NA,form submission,7875.8140000477,2005106.9000001,2005100.55,2005117.386,2012993.2,2012993.3000001,2023-03-25T15:48:12Z,2012999.509,NULL,Flexibilität,kubadilika,s,enjini,usikilivu,hesabu,enjini,NA,NA,0,NA,NA,NA,NA,NA,NA,NA,NA,NA,NA,NA,NA,NA,NA,NA,NA,NA,NA,NA
ca79d,"""Richtig""-Screen",canvas.Screen,3_0_0_0_4_1_1,NA,NA,skipped,NA,2012995.6,NA,NA,2012993.2,2012995.7,2023-03-25T15:48:12Z,2012999.509,NULL,Flexibilität,kubadilika,s,enjini,usikilivu,hesabu,NA,sdf,NA,0,NA,NA,NA,NA,NA,NA,NA,NA,NA,NA,NA,NA,NA,NA,NA,NA,NA,NA,NA
ca79d,"""Falsch""-Screen",canvas.Screen,3_0_0_0_4_1_2,NA,NA,timeout,5000.341,2012996.3000001,2012983.335,2012999.509,2017983.049,2017984,2023-03-25T15:48:17Z,2017999.85,NULL,Flexibilität,kubadilika,s,enjini,usikilivu,hesabu,NA,sdf,0,0,NA,NA,NA,NA,NA,NA,NA,NA,NA,NA,NA,NA,NA,NA,NA,NA,NA,NA,NA
ca79d,shallow,flow.Sequence,3_0_0_0_4_1,NA,NA,completion,12865.663,2005106.8000001,2005100.55,2005117.386,2017983.049,2017984.6,2023-03-25T15:48:17Z,2017999.85,NULL,Flexibilität,kubadilika,s,enjini,usikilivu,hesabu,NA,sdf,NA,0,NA,NA,NA,NA,NA,NA,NA,NA,NA,NA,NA,NA,NA,NA,NA,NA,NA,NA,NA
ca79d,task,flow.Sequence,3_0_0_0_4,NA,NA,completion,12865.663,2005106.8000001,2005100.55,2005117.386,2017983.049,2017984.9000001,2023-03-25T15:48:17Z,2017999.85,NULL,Flexibilität,kubadilika,s,enjini,usikilivu,hesabu,NA,sdf,NA,0,NA,NA,NA,NA,NA,NA,NA,NA,NA,NA,NA,NA,NA,NA,NA,NA,NA,NA,NA
ca79d,Deep Question,html.Page,3_0_0_0_5_0_0,NA,NA,form submission,8874.1499999999,2017985.2,2017983.049,2017999.85,2026874,2026874.3000001,2023-03-25T15:48:26Z,2026899.109,NULL,Verpackung,ufungaji,d,NA,NA,NA,hadharadi,NA,NA,0,NA,NA,NA,NA,NA,NA,NA,NA,NA,NA,NA,NA,NA,NA,NA,NA,NA,NA,NA
ca79d,"""Richtig""-Screen",canvas.Screen,3_0_0_0_5_0_1,NA,NA,skipped,NA,2026876.8000001,NA,NA,2026874,2026877,2023-03-25T15:48:26Z,2026899.109,NULL,Verpackung,ufungaji,d,NA,NA,NA,NA,sdf,NA,0,NA,NA,NA,NA,NA,NA,NA,NA,NA,NA,NA,NA,NA,NA,NA,NA,NA,NA,NA
ca79d,"""Falsch""-Screen",canvas.Screen,3_0_0_0_5_0_2,NA,NA,timeout,4999.567,2026877.8000001,2026882.425,2026899.109,2031882.03,2031883,2023-03-25T15:48:31Z,2031898.676,NULL,Verpackung,ufungaji,d,NA,NA,NA,NA,sdf,0,0,NA,NA,NA,NA,NA,NA,NA,NA,NA,NA,NA,NA,NA,NA,NA,NA,NA,NA,NA
ca79d,deep,flow.Sequence,3_0_0_0_5_0,NA,NA,completion,13882.18,2017985.2,2017983.049,2017999.85,2031882.03,2031883.4000001,2023-03-25T15:48:31Z,2031898.676,NULL,Verpackung,ufungaji,d,NA,NA,NA,NA,sdf,NA,0,NA,NA,NA,NA,NA,NA,NA,NA,NA,NA,NA,NA,NA,NA,NA,NA,NA,NA,NA
ca79d,shallow,flow.Sequence,3_0_0_0_5_1,NA,NA,skipped,NA,2031883.6,NA,NA,2031882.03,2031883.8000001,2023-03-25T15:48:31Z,2031898.676,NULL,Verpackung,ufungaji,d,NA,NA,NA,NA,sdf,NA,0,NA,NA,NA,NA,NA,NA,NA,NA,NA,NA,NA,NA,NA,NA,NA,NA,NA,NA,NA
ca79d,task,flow.Sequence,3_0_0_0_5,NA,NA,completion,13882.18,2017985,2017983.049,2017999.85,2031882.03,2031884.1,2023-03-25T15:48:31Z,2031898.676,NULL,Verpackung,ufungaji,d,NA,NA,NA,NA,sdf,NA,0,NA,NA,NA,NA,NA,NA,NA,NA,NA,NA,NA,NA,NA,NA,NA,NA,NA,NA,NA
ca79d,deep,flow.Sequence,3_0_0_0_6_0,NA,NA,skipped,NA,2031884.3000001,NA,NA,2031882.03,2031884.4000001,2023-03-25T15:48:31Z,2031898.676,NULL,Schock,mshtuko,s,biashara,kukataza,vichekesho,NA,sdf,NA,0,NA,NA,NA,NA,NA,NA,NA,NA,NA,NA,NA,NA,NA,NA,NA,NA,NA,NA,NA
ca79d,Shallow Question,html.Page,3_0_0_0_6_1_0,NA,NA,form submission,15644.724000095,2031884.7,2031882.03,2031898.676,2047543.4000001,2047543.7,2023-03-25T15:48:47Z,2047546.972,NULL,Schock,mshtuko,s,biashara,kukataza,vichekesho,vichekesho,NA,NA,0,NA,NA,NA,NA,NA,NA,NA,NA,NA,NA,NA,NA,NA,NA,NA,NA,NA,NA,NA
ca79d,"""Richtig""-Screen",canvas.Screen,3_0_0_0_6_1_1,NA,NA,skipped,NA,2047546.1,NA,NA,2047543.4000001,2047546.3000001,2023-03-25T15:48:47Z,2047546.972,NULL,Schock,mshtuko,s,biashara,kukataza,vichekesho,NA,sdf,NA,0,NA,NA,NA,NA,NA,NA,NA,NA,NA,NA,NA,NA,NA,NA,NA,NA,NA,NA,NA
ca79d,"""Falsch""-Screen",canvas.Screen,3_0_0_0_6_1_2,NA,NA,timeout,5000.135,2047547.2,2047530.287,2047546.972,2052530.454,2052531.5,2023-03-25T15:48:52Z,2052547.107,NULL,Schock,mshtuko,s,biashara,kukataza,vichekesho,NA,sdf,0,0,NA,NA,NA,NA,NA,NA,NA,NA,NA,NA,NA,NA,NA,NA,NA,NA,NA,NA,NA
ca79d,shallow,flow.Sequence,3_0_0_0_6_1,NA,NA,completion,20631.778,2031884.6,2031882.03,2031898.676,2052530.454,2052531.9000001,2023-03-25T15:48:52Z,2052547.107,NULL,Schock,mshtuko,s,biashara,kukataza,vichekesho,NA,sdf,NA,0,NA,NA,NA,NA,NA,NA,NA,NA,NA,NA,NA,NA,NA,NA,NA,NA,NA,NA,NA
ca79d,task,flow.Sequence,3_0_0_0_6,NA,NA,completion,20631.778,2031884.2,2031882.03,2031898.676,2052530.454,2052532.2,2023-03-25T15:48:52Z,2052547.107,NULL,Schock,mshtuko,s,biashara,kukataza,vichekesho,NA,sdf,NA,0,NA,NA,NA,NA,NA,NA,NA,NA,NA,NA,NA,NA,NA,NA,NA,NA,NA,NA,NA
ca79d,Deep Question,html.Page,3_0_0_0_7_0_0,NA,NA,form submission,9019.8929999999,2052532.5,2052530.454,2052547.107,2061567,2061567.3000001,2023-03-25T15:49:01Z,2061579.671,NULL,Wechsel,ugeuzaji,d,NA,NA,NA,mschtuko,NA,NA,0,NA,NA,NA,NA,NA,NA,NA,NA,NA,NA,NA,NA,NA,NA,NA,NA,NA,NA,NA
ca79d,"""Richtig""-Screen",canvas.Screen,3_0_0_0_7_0_1,NA,NA,skipped,NA,2061569.6,NA,NA,2061567,2061569.8000001,2023-03-25T15:49:01Z,2061579.671,NULL,Wechsel,ugeuzaji,d,NA,NA,NA,NA,sdf,NA,0,NA,NA,NA,NA,NA,NA,NA,NA,NA,NA,NA,NA,NA,NA,NA,NA,NA,NA,NA
ca79d,"""Falsch""-Screen",canvas.Screen,3_0_0_0_7_0_2,NA,NA,timeout,4999.8399999999,2061570.5,2061562.875,2061579.671,2066562.747,2066563.7,2023-03-25T15:49:06Z,2066579.511,NULL,Wechsel,ugeuzaji,d,NA,NA,NA,NA,sdf,0,0,NA,NA,NA,NA,NA,NA,NA,NA,NA,NA,NA,NA,NA,NA,NA,NA,NA,NA,NA
ca79d,deep,flow.Sequence,3_0_0_0_7_0,NA,NA,completion,14015.64,2052532.4000001,2052530.454,2052547.107,2066562.747,2066564.1,2023-03-25T15:49:06Z,2066579.511,NULL,Wechsel,ugeuzaji,d,NA,NA,NA,NA,sdf,NA,0,NA,NA,NA,NA,NA,NA,NA,NA,NA,NA,NA,NA,NA,NA,NA,NA,NA,NA,NA
ca79d,shallow,flow.Sequence,3_0_0_0_7_1,NA,NA,skipped,NA,2066564.3000001,NA,NA,2066562.747,2066564.5,2023-03-25T15:49:06Z,2066579.511,NULL,Wechsel,ugeuzaji,d,NA,NA,NA,NA,sdf,NA,0,NA,NA,NA,NA,NA,NA,NA,NA,NA,NA,NA,NA,NA,NA,NA,NA,NA,NA,NA
ca79d,task,flow.Sequence,3_0_0_0_7,NA,NA,completion,14015.64,2052532.4000001,2052530.454,2052547.107,2066562.747,2066564.8000001,2023-03-25T15:49:06Z,2066579.511,NULL,Wechsel,ugeuzaji,d,NA,NA,NA,NA,sdf,NA,0,NA,NA,NA,NA,NA,NA,NA,NA,NA,NA,NA,NA,NA,NA,NA,NA,NA,NA,NA
ca79d,block,flow.Loop,3_0_0_0,NA,NA,completion,110008.54,1956543.1,1956537.49,1956554.207,2066562.747,2066565.1,2023-03-25T15:49:06Z,2066579.511,NULL,NA,NA,NA,NA,NA,NA,NA,sdf,NA,0,NA,NA,NA,NA,NA,NA,NA,NA,NA,NA,NA,NA,NA,NA,NA,NA,NA,NA,NA
ca79d,weiter,canvas.Screen,3_0_0_1,sdf,keypress(Space),response,2154.3890000954,2066565.4000001,2066562.747,2066579.511,2068733.9000001,2068735.1,2023-03-25T15:49:08Z,2068779.095,NULL,NA,NA,NA,NA,NA,NA,NA,sdf,NA,0,NA,NA,NA,NA,NA,NA,NA,NA,NA,NA,NA,NA,NA,NA,NA,NA,NA,NA,NA
ca79d,check continue,flow.Sequence,3_0_0,NA,NA,completion,112179.6930001,1956543,1956537.49,1956554.207,2068733.9000001,2068735.3000001,2023-03-25T15:49:08Z,2068779.095,NULL,NA,NA,NA,NA,NA,NA,NA,sdf,NA,0,NA,NA,NA,NA,NA,NA,NA,NA,NA,NA,NA,NA,NA,NA,NA,NA,NA,NA,NA
ca79d,Deep Question,html.Page,3_0_1_0_0_0_0,NA,NA,form submission,12156.905,2068770.3000001,2068762.62,2068779.095,2080936,2080936.2,2023-03-25T15:49:20Z,2080944.487,NULL,Verpackung,ufungaji,d,NA,NA,NA,tschungagi,NA,NA,1,NA,NA,NA,NA,NA,NA,NA,NA,NA,NA,NA,NA,NA,NA,NA,NA,NA,NA,NA
ca79d,"""Richtig""-Screen",canvas.Screen,3_0_1_0_0_0_1,NA,NA,skipped,NA,2080938.6,NA,NA,2080936,2080938.8000001,2023-03-25T15:49:20Z,2080944.487,NULL,Verpackung,ufungaji,d,NA,NA,NA,NA,sdfdsf,NA,1,NA,NA,NA,NA,NA,NA,NA,NA,NA,NA,NA,NA,NA,NA,NA,NA,NA,NA,NA
ca79d,"""Falsch""-Screen",canvas.Screen,3_0_1_0_0_0_2,NA,NA,timeout,5000.024,2080939.5,2080928.201,2080944.487,2085927.78,2085929.4000001,2023-03-25T15:49:25Z,2085944.511,NULL,Verpackung,ufungaji,d,NA,NA,NA,NA,sdfdsf,0,1,NA,NA,NA,NA,NA,NA,NA,NA,NA,NA,NA,NA,NA,NA,NA,NA,NA,NA,NA
ca79d,deep,flow.Sequence,3_0_1_0_0_0,NA,NA,completion,17148.685,2068770.3000001,2068762.62,2068779.095,2085927.78,2085929.7,2023-03-25T15:49:25Z,2085944.511,NULL,Verpackung,ufungaji,d,NA,NA,NA,NA,sdfdsf,NA,1,NA,NA,NA,NA,NA,NA,NA,NA,NA,NA,NA,NA,NA,NA,NA,NA,NA,NA,NA
ca79d,shallow,flow.Sequence,3_0_1_0_0_1,NA,NA,skipped,NA,2085929.7,NA,NA,2085927.78,2085929.9000001,2023-03-25T15:49:25Z,2085944.511,NULL,Verpackung,ufungaji,d,NA,NA,NA,NA,sdfdsf,NA,1,NA,NA,NA,NA,NA,NA,NA,NA,NA,NA,NA,NA,NA,NA,NA,NA,NA,NA,NA
ca79d,task,flow.Sequence,3_0_1_0_0,NA,NA,completion,17148.685,2068770.3000001,2068762.62,2068779.095,2085927.78,2085929.9000001,2023-03-25T15:49:25Z,2085944.511,NULL,Verpackung,ufungaji,d,NA,NA,NA,NA,sdfdsf,NA,1,NA,NA,NA,NA,NA,NA,NA,NA,NA,NA,NA,NA,NA,NA,NA,NA,NA,NA,NA
ca79d,Deep Question,html.Page,3_0_1_0_1_0_0,NA,NA,form submission,8787.9890000001,2085930.1,2085927.78,2085944.511,2094732.5,2094732.8000001,2023-03-25T15:49:34Z,2094743.507,NULL,Erneuerung,ukarabati,d,NA,NA,NA,ufungaji,NA,NA,1,NA,NA,NA,NA,NA,NA,NA,NA,NA,NA,NA,NA,NA,NA,NA,NA,NA,NA,NA
ca79d,"""Richtig""-Screen",canvas.Screen,3_0_1_0_1_0_1,NA,NA,skipped,NA,2094735.3000001,NA,NA,2094732.5,2094735.5,2023-03-25T15:49:34Z,2094743.507,NULL,Erneuerung,ukarabati,d,NA,NA,NA,NA,sdfdsf,NA,1,NA,NA,NA,NA,NA,NA,NA,NA,NA,NA,NA,NA,NA,NA,NA,NA,NA,NA,NA
ca79d,"""Falsch""-Screen",canvas.Screen,3_0_1_0_1_0_2,NA,NA,timeout,4999.564,2094736.3000001,2094726.788,2094743.507,2099726.769,2099727.8000001,2023-03-25T15:49:39Z,2099743.071,NULL,Erneuerung,ukarabati,d,NA,NA,NA,NA,sdfdsf,0,1,NA,NA,NA,NA,NA,NA,NA,NA,NA,NA,NA,NA,NA,NA,NA,NA,NA,NA,NA
ca79d,deep,flow.Sequence,3_0_1_0_1_0,NA,NA,completion,13782.258,2085930.1,2085927.78,2085944.511,2099726.769,2099728.3000001,2023-03-25T15:49:39Z,2099743.071,NULL,Erneuerung,ukarabati,d,NA,NA,NA,NA,sdfdsf,NA,1,NA,NA,NA,NA,NA,NA,NA,NA,NA,NA,NA,NA,NA,NA,NA,NA,NA,NA,NA
ca79d,shallow,flow.Sequence,3_0_1_0_1_1,NA,NA,skipped,NA,2099728.5,NA,NA,2099726.769,2099728.7,2023-03-25T15:49:39Z,2099743.071,NULL,Erneuerung,ukarabati,d,NA,NA,NA,NA,sdfdsf,NA,1,NA,NA,NA,NA,NA,NA,NA,NA,NA,NA,NA,NA,NA,NA,NA,NA,NA,NA,NA
ca79d,task,flow.Sequence,3_0_1_0_1,NA,NA,completion,13782.258,2085930.1,2085927.78,2085944.511,2099726.769,2099729,2023-03-25T15:49:39Z,2099743.071,NULL,Erneuerung,ukarabati,d,NA,NA,NA,NA,sdfdsf,NA,1,NA,NA,NA,NA,NA,NA,NA,NA,NA,NA,NA,NA,NA,NA,NA,NA,NA,NA,NA
ca79d,deep,flow.Sequence,3_0_1_0_2_0,NA,NA,skipped,NA,2099729.3000001,NA,NA,2099726.769,2099729.4000001,2023-03-25T15:49:39Z,2099743.071,NULL,Schock,mshtuko,s,biashara,kukataza,vichekesho,NA,sdfdsf,NA,1,NA,NA,NA,NA,NA,NA,NA,NA,NA,NA,NA,NA,NA,NA,NA,NA,NA,NA,NA
ca79d,Shallow Question,html.Page,3_0_1_0_2_1_0,NA,NA,form submission,6472.5290000238,2099729.8000001,2099726.769,2099743.071,2106215.6,2106215.8000001,2023-03-25T15:49:45Z,2106226.171,NULL,Schock,mshtuko,s,biashara,kukataza,vichekesho,mshtuko,NA,NA,1,NA,NA,NA,NA,NA,NA,NA,NA,NA,NA,NA,NA,NA,NA,NA,NA,NA,NA,NA
ca79d,"""Richtig""-Screen",canvas.Screen,3_0_1_0_2_1_1,NA,NA,timeout,4999.8759999997,2106218.2,2106209.674,2106226.171,2111209.437,2111210.4000001,2023-03-25T15:49:50Z,2111226.047,NULL,Schock,mshtuko,s,biashara,kukataza,vichekesho,NA,sdfdsf,1,1,NA,NA,NA,NA,NA,NA,NA,NA,NA,NA,NA,NA,NA,NA,NA,NA,NA,NA,NA
ca79d,"""Falsch""-Screen",canvas.Screen,3_0_1_0_2_1_2,NA,NA,skipped,NA,2111213.9000001,NA,NA,2111209.437,2111214,2023-03-25T15:49:50Z,2111226.047,NULL,Schock,mshtuko,s,biashara,kukataza,vichekesho,NA,sdfdsf,NA,1,NA,NA,NA,NA,NA,NA,NA,NA,NA,NA,NA,NA,NA,NA,NA,NA,NA,NA,NA
ca79d,shallow,flow.Sequence,3_0_1_0_2_1,NA,NA,completion,11466.366,2099729.8000001,2099726.769,2099743.071,2111209.437,2111214.2,2023-03-25T15:49:50Z,2111226.047,NULL,Schock,mshtuko,s,biashara,kukataza,vichekesho,NA,sdfdsf,NA,1,NA,NA,NA,NA,NA,NA,NA,NA,NA,NA,NA,NA,NA,NA,NA,NA,NA,NA,NA
ca79d,task,flow.Sequence,3_0_1_0_2,NA,NA,completion,11466.366,2099729.2,2099726.769,2099743.071,2111209.437,2111214.3000001,2023-03-25T15:49:50Z,2111226.047,NULL,Schock,mshtuko,s,biashara,kukataza,vichekesho,NA,sdfdsf,NA,1,NA,NA,NA,NA,NA,NA,NA,NA,NA,NA,NA,NA,NA,NA,NA,NA,NA,NA,NA
ca79d,deep,flow.Sequence,3_0_1_0_3_0,NA,NA,skipped,NA,2111214.4000001,NA,NA,2111209.437,2111214.4000001,2023-03-25T15:49:50Z,2111226.047,NULL,Theorie,nadharia,s,ushungi,mkutano,uwakilishi,NA,sdfdsf,NA,1,NA,NA,NA,NA,NA,NA,NA,NA,NA,NA,NA,NA,NA,NA,NA,NA,NA,NA,NA
ca79d,Shallow Question,html.Page,3_0_1_0_3_1_0,NA,NA,form submission,9864.7530000717,2111214.4000001,2111209.437,2111226.047,2121090.8000001,2121091,2023-03-25T15:50:00Z,2121091.461,NULL,Theorie,nadharia,s,ushungi,mkutano,uwakilishi,nadharia,NA,NA,1,NA,NA,NA,NA,NA,NA,NA,NA,NA,NA,NA,NA,NA,NA,NA,NA,NA,NA,NA
ca79d,"""Richtig""-Screen",canvas.Screen,3_0_1_0_3_1_1,NA,NA,timeout,5000.2549999999,2121093.6,2121075.395,2121091.461,2126074.954,2126075.9000001,2023-03-25T15:50:05Z,2126091.716,NULL,Theorie,nadharia,s,ushungi,mkutano,uwakilishi,NA,sdfdsf,1,1,NA,NA,NA,NA,NA,NA,NA,NA,NA,NA,NA,NA,NA,NA,NA,NA,NA,NA,NA
ca79d,"""Falsch""-Screen",canvas.Screen,3_0_1_0_3_1_2,NA,NA,skipped,NA,2126080.8000001,NA,NA,2126074.954,2126080.9000001,2023-03-25T15:50:05Z,2126091.716,NULL,Theorie,nadharia,s,ushungi,mkutano,uwakilishi,NA,sdfdsf,NA,1,NA,NA,NA,NA,NA,NA,NA,NA,NA,NA,NA,NA,NA,NA,NA,NA,NA,NA,NA
ca79d,shallow,flow.Sequence,3_0_1_0_3_1,NA,NA,completion,14848.907,2111214.4000001,2111209.437,2111226.047,2126074.954,2126081,2023-03-25T15:50:05Z,2126091.716,NULL,Theorie,nadharia,s,ushungi,mkutano,uwakilishi,NA,sdfdsf,NA,1,NA,NA,NA,NA,NA,NA,NA,NA,NA,NA,NA,NA,NA,NA,NA,NA,NA,NA,NA
ca79d,task,flow.Sequence,3_0_1_0_3,NA,NA,completion,14848.907,2111214.4000001,2111209.437,2111226.047,2126074.954,2126081.2,2023-03-25T15:50:05Z,2126091.716,NULL,Theorie,nadharia,s,ushungi,mkutano,uwakilishi,NA,sdfdsf,NA,1,NA,NA,NA,NA,NA,NA,NA,NA,NA,NA,NA,NA,NA,NA,NA,NA,NA,NA,NA
ca79d,Deep Question,html.Page,3_0_1_0_4_0_0,NA,NA,form submission,12082.184000095,2126081.3000001,2126074.954,2126091.716,2138173.9000001,2138174.1,2023-03-25T15:50:17Z,2138190.748,NULL,Hoffnung,matarajio,d,NA,NA,NA,usharari,NA,NA,1,NA,NA,NA,NA,NA,NA,NA,NA,NA,NA,NA,NA,NA,NA,NA,NA,NA,NA,NA
ca79d,"""Richtig""-Screen",canvas.Screen,3_0_1_0_4_0_1,NA,NA,skipped,NA,2138177,NA,NA,2138173.9000001,2138177.1,2023-03-25T15:50:17Z,2138190.748,NULL,Hoffnung,matarajio,d,NA,NA,NA,NA,sdfdsf,NA,1,NA,NA,NA,NA,NA,NA,NA,NA,NA,NA,NA,NA,NA,NA,NA,NA,NA,NA,NA
ca79d,"""Falsch""-Screen",canvas.Screen,3_0_1_0_4_0_2,NA,NA,timeout,4999.699,2138177.8000001,2138157.333,2138190.748,2143173.678,2143174.6,2023-03-25T15:50:22Z,2143190.447,NULL,Hoffnung,matarajio,d,NA,NA,NA,NA,sdfdsf,0,1,NA,NA,NA,NA,NA,NA,NA,NA,NA,NA,NA,NA,NA,NA,NA,NA,NA,NA,NA
ca79d,deep,flow.Sequence,3_0_1_0_4_0,NA,NA,completion,17081.962,2126081.3000001,2126074.954,2126091.716,2143173.678,2143175.1,2023-03-25T15:50:22Z,2143190.447,NULL,Hoffnung,matarajio,d,NA,NA,NA,NA,sdfdsf,NA,1,NA,NA,NA,NA,NA,NA,NA,NA,NA,NA,NA,NA,NA,NA,NA,NA,NA,NA,NA
ca79d,shallow,flow.Sequence,3_0_1_0_4_1,NA,NA,skipped,NA,2143175.2,NA,NA,2143173.678,2143175.4000001,2023-03-25T15:50:22Z,2143190.447,NULL,Hoffnung,matarajio,d,NA,NA,NA,NA,sdfdsf,NA,1,NA,NA,NA,NA,NA,NA,NA,NA,NA,NA,NA,NA,NA,NA,NA,NA,NA,NA,NA
ca79d,task,flow.Sequence,3_0_1_0_4,NA,NA,completion,17081.962,2126081.2,2126074.954,2126091.716,2143173.678,2143175.8000001,2023-03-25T15:50:22Z,2143190.447,NULL,Hoffnung,matarajio,d,NA,NA,NA,NA,sdfdsf,NA,1,NA,NA,NA,NA,NA,NA,NA,NA,NA,NA,NA,NA,NA,NA,NA,NA,NA,NA,NA
ca79d,deep,flow.Sequence,3_0_1_0_5_0,NA,NA,skipped,NA,2143175.9000001,NA,NA,2143173.678,2143176.1,2023-03-25T15:50:22Z,2143190.447,NULL,Atmosphäre,angahewa,s,kuteseka,usahihi,kutoamini,NA,sdfdsf,NA,1,NA,NA,NA,NA,NA,NA,NA,NA,NA,NA,NA,NA,NA,NA,NA,NA,NA,NA,NA
ca79d,Shallow Question,html.Page,3_0_1_0_5_1_0,NA,NA,form submission,10509.453000095,2143176.3000001,2143173.678,2143190.447,2153699.9000001,2153700,2023-03-25T15:50:33Z,2153705.674,NULL,Atmosphäre,angahewa,s,kuteseka,usahihi,kutoamini,usahihi,NA,NA,1,NA,NA,NA,NA,NA,NA,NA,NA,NA,NA,NA,NA,NA,NA,NA,NA,NA,NA,NA
ca79d,"""Richtig""-Screen",canvas.Screen,3_0_1_0_5_1_1,NA,NA,skipped,NA,2153702.4000001,NA,NA,2153699.9000001,2153702.5,2023-03-25T15:50:33Z,2153705.674,NULL,Atmosphäre,angahewa,s,kuteseka,usahihi,kutoamini,NA,sdfdsf,NA,1,NA,NA,NA,NA,NA,NA,NA,NA,NA,NA,NA,NA,NA,NA,NA,NA,NA,NA,NA
ca79d,"""Falsch""-Screen",canvas.Screen,3_0_1_0_5_1_2,NA,NA,timeout,5000.1379999998,2153703.2,2153689.507,2153705.674,2158689.148,2158690.3000001,2023-03-25T15:50:38Z,2158705.812,NULL,Atmosphäre,angahewa,s,kuteseka,usahihi,kutoamini,NA,sdfdsf,0,1,NA,NA,NA,NA,NA,NA,NA,NA,NA,NA,NA,NA,NA,NA,NA,NA,NA,NA,NA
ca79d,shallow,flow.Sequence,3_0_1_0_5_1,NA,NA,completion,15498.701,2143176.2,2143173.678,2143190.447,2158689.148,2158690.8000001,2023-03-25T15:50:38Z,2158705.812,NULL,Atmosphäre,angahewa,s,kuteseka,usahihi,kutoamini,NA,sdfdsf,NA,1,NA,NA,NA,NA,NA,NA,NA,NA,NA,NA,NA,NA,NA,NA,NA,NA,NA,NA,NA
ca79d,task,flow.Sequence,3_0_1_0_5,NA,NA,completion,15498.701,2143175.9000001,2143173.678,2143190.447,2158689.148,2158691.1,2023-03-25T15:50:38Z,2158705.812,NULL,Atmosphäre,angahewa,s,kuteseka,usahihi,kutoamini,NA,sdfdsf,NA,1,NA,NA,NA,NA,NA,NA,NA,NA,NA,NA,NA,NA,NA,NA,NA,NA,NA,NA,NA
ca79d,Deep Question,html.Page,3_0_1_0_6_0_0,NA,NA,form submission,11552.488000072,2158691.4000001,2158689.148,2158705.812,2170258.3000001,2170258.5,2023-03-25T15:50:49Z,2170271.649,NULL,Wechsel,ugeuzaji,d,NA,NA,NA,angahewa,NA,NA,1,NA,NA,NA,NA,NA,NA,NA,NA,NA,NA,NA,NA,NA,NA,NA,NA,NA,NA,NA
ca79d,"""Richtig""-Screen",canvas.Screen,3_0_1_0_6_0_1,NA,NA,skipped,NA,2170261.1,NA,NA,2170258.3000001,2170261.2,2023-03-25T15:50:49Z,2170271.649,NULL,Wechsel,ugeuzaji,d,NA,NA,NA,NA,sdfdsf,NA,1,NA,NA,NA,NA,NA,NA,NA,NA,NA,NA,NA,NA,NA,NA,NA,NA,NA,NA,NA
ca79d,"""Falsch""-Screen",canvas.Screen,3_0_1_0_6_0_2,NA,NA,timeout,4999.7119999998,2170262,2170255.019,2170271.649,2175254.633,2175255.6,2023-03-25T15:50:54Z,2175271.361,NULL,Wechsel,ugeuzaji,d,NA,NA,NA,NA,sdfdsf,0,1,NA,NA,NA,NA,NA,NA,NA,NA,NA,NA,NA,NA,NA,NA,NA,NA,NA,NA,NA
ca79d,deep,flow.Sequence,3_0_1_0_6_0,NA,NA,completion,16548.821,2158691.3000001,2158689.148,2158705.812,2175254.633,2175256.1,2023-03-25T15:50:54Z,2175271.361,NULL,Wechsel,ugeuzaji,d,NA,NA,NA,NA,sdfdsf,NA,1,NA,NA,NA,NA,NA,NA,NA,NA,NA,NA,NA,NA,NA,NA,NA,NA,NA,NA,NA
ca79d,shallow,flow.Sequence,3_0_1_0_6_1,NA,NA,skipped,NA,2175256.2,NA,NA,2175254.633,2175256.4000001,2023-03-25T15:50:54Z,2175271.361,NULL,Wechsel,ugeuzaji,d,NA,NA,NA,NA,sdfdsf,NA,1,NA,NA,NA,NA,NA,NA,NA,NA,NA,NA,NA,NA,NA,NA,NA,NA,NA,NA,NA
ca79d,task,flow.Sequence,3_0_1_0_6,NA,NA,completion,16548.821,2158691.2,2158689.148,2158705.812,2175254.633,2175256.9000001,2023-03-25T15:50:54Z,2175271.361,NULL,Wechsel,ugeuzaji,d,NA,NA,NA,NA,sdfdsf,NA,1,NA,NA,NA,NA,NA,NA,NA,NA,NA,NA,NA,NA,NA,NA,NA,NA,NA,NA,NA
ca79d,deep,flow.Sequence,3_0_1_0_7_0,NA,NA,skipped,NA,2175257.3000001,NA,NA,2175254.633,2175257.6,2023-03-25T15:50:54Z,2175271.361,NULL,Flexibilität,kubadilika,s,enjini,usikilivu,hesabu,NA,sdfdsf,NA,1,NA,NA,NA,NA,NA,NA,NA,NA,NA,NA,NA,NA,NA,NA,NA,NA,NA,NA,NA
ca79d,Shallow Question,html.Page,3_0_1_0_7_1_0,NA,NA,form submission,8344.3390000477,2175257.8000001,2175254.633,2175271.361,2183615.7,2183615.9000001,2023-03-25T15:51:03Z,2183620.065,NULL,Flexibilität,kubadilika,s,enjini,usikilivu,hesabu,enjini,NA,NA,1,NA,NA,NA,NA,NA,NA,NA,NA,NA,NA,NA,NA,NA,NA,NA,NA,NA,NA,NA
ca79d,"""Richtig""-Screen",canvas.Screen,3_0_1_0_7_1_1,NA,NA,skipped,NA,2183618.1,NA,NA,2183615.7,2183618.2,2023-03-25T15:51:03Z,2183620.065,NULL,Flexibilität,kubadilika,s,enjini,usikilivu,hesabu,NA,sdfdsf,NA,1,NA,NA,NA,NA,NA,NA,NA,NA,NA,NA,NA,NA,NA,NA,NA,NA,NA,NA,NA
ca79d,"""Falsch""-Screen",canvas.Screen,3_0_1_0_7_1_2,NA,NA,timeout,5000.23,2183619,2183603.785,2183620.065,2188603.654,2188604.2,2023-03-25T15:51:08Z,2188620.295,NULL,Flexibilität,kubadilika,s,enjini,usikilivu,hesabu,NA,sdfdsf,0,1,NA,NA,NA,NA,NA,NA,NA,NA,NA,NA,NA,NA,NA,NA,NA,NA,NA,NA,NA
ca79d,shallow,flow.Sequence,3_0_1_0_7_1,NA,NA,completion,13332.293,2175257.7,2175254.633,2175271.361,2188603.654,2188604.4000001,2023-03-25T15:51:08Z,2188620.295,NULL,Flexibilität,kubadilika,s,enjini,usikilivu,hesabu,NA,sdfdsf,NA,1,NA,NA,NA,NA,NA,NA,NA,NA,NA,NA,NA,NA,NA,NA,NA,NA,NA,NA,NA
ca79d,task,flow.Sequence,3_0_1_0_7,NA,NA,completion,13332.293,2175257.2,2175254.633,2175271.361,2188603.654,2188604.6,2023-03-25T15:51:08Z,2188620.295,NULL,Flexibilität,kubadilika,s,enjini,usikilivu,hesabu,NA,sdfdsf,NA,1,NA,NA,NA,NA,NA,NA,NA,NA,NA,NA,NA,NA,NA,NA,NA,NA,NA,NA,NA
ca79d,block,flow.Loop,3_0_1_0,NA,NA,completion,119824.559,2068770.2,2068762.62,2068779.095,2188603.654,2188604.8000001,2023-03-25T15:51:08Z,2188620.295,NULL,NA,NA,NA,NA,NA,NA,NA,sdfdsf,NA,1,NA,NA,NA,NA,NA,NA,NA,NA,NA,NA,NA,NA,NA,NA,NA,NA,NA,NA,NA
ca79d,weiter,canvas.Screen,3_0_1_1,sdf,keypress(Space),response,1873.8050000239,2188604.8000001,2188603.654,2188620.295,2190494.1,2190495.4000001,2023-03-25T15:51:10Z,2190536.223,NULL,NA,NA,NA,NA,NA,NA,NA,sdfdsf,NA,1,NA,NA,NA,NA,NA,NA,NA,NA,NA,NA,NA,NA,NA,NA,NA,NA,NA,NA,NA
ca79d,check continue,flow.Sequence,3_0_1,NA,NA,completion,121715.00500002,2068770.1,2068762.62,2068779.095,2190494.1,2190495.8000001,2023-03-25T15:51:10Z,2190536.223,NULL,NA,NA,NA,NA,NA,NA,NA,sdfdsf,NA,1,NA,NA,NA,NA,NA,NA,NA,NA,NA,NA,NA,NA,NA,NA,NA,NA,NA,NA,NA
ca79d,deep,flow.Sequence,3_0_2_0_0_0,NA,NA,skipped,NA,2190534.4000001,NA,NA,2190494.1,2190534.4000001,2023-03-25T15:51:10Z,2190536.223,NULL,Schock,mshtuko,s,biashara,kukataza,vichekesho,NA,sdf,NA,2,NA,NA,NA,NA,NA,NA,NA,NA,NA,NA,NA,NA,NA,NA,NA,NA,NA,NA,NA
ca79d,Shallow Question,html.Page,3_0_2_0_0_1_0,NA,NA,form submission,9417.5770000713,2190534.5,2190520.104,2190536.223,2199953.8000001,2199953.9000001,2023-03-25T15:51:19Z,2199969.087,NULL,Schock,mshtuko,s,biashara,kukataza,vichekesho,mshtuko,NA,NA,2,NA,NA,NA,NA,NA,NA,NA,NA,NA,NA,NA,NA,NA,NA,NA,NA,NA,NA,NA
ca79d,"""Richtig""-Screen",canvas.Screen,3_0_2_0_0_1_1,NA,NA,timeout,4999.3880000003,2199956.2,2199952.828,2199969.087,2204951.882,2204952.7,2023-03-25T15:51:24Z,2204968.475,NULL,Schock,mshtuko,s,biashara,kukataza,vichekesho,NA,sdf,1,2,NA,NA,NA,NA,NA,NA,NA,NA,NA,NA,NA,NA,NA,NA,NA,NA,NA,NA,NA
ca79d,"""Falsch""-Screen",canvas.Screen,3_0_2_0_0_1_2,NA,NA,skipped,NA,2204958.2,NA,NA,2204951.882,2204958.6,2023-03-25T15:51:24Z,2204968.475,NULL,Schock,mshtuko,s,biashara,kukataza,vichekesho,NA,sdf,NA,2,NA,NA,NA,NA,NA,NA,NA,NA,NA,NA,NA,NA,NA,NA,NA,NA,NA,NA,NA
ca79d,shallow,flow.Sequence,3_0_2_0_0_1,NA,NA,completion,14415.659,2190534.5,2190520.104,2190536.223,2204951.882,2204959.1,2023-03-25T15:51:24Z,2204968.475,NULL,Schock,mshtuko,s,biashara,kukataza,vichekesho,NA,sdf,NA,2,NA,NA,NA,NA,NA,NA,NA,NA,NA,NA,NA,NA,NA,NA,NA,NA,NA,NA,NA
ca79d,task,flow.Sequence,3_0_2_0_0,NA,NA,completion,14415.659,2190534.3000001,2190520.104,2190536.223,2204951.882,2204959.4000001,2023-03-25T15:51:24Z,2204968.475,NULL,Schock,mshtuko,s,biashara,kukataza,vichekesho,NA,sdf,NA,2,NA,NA,NA,NA,NA,NA,NA,NA,NA,NA,NA,NA,NA,NA,NA,NA,NA,NA,NA
ca79d,Deep Question,html.Page,3_0_2_0_1_0_0,NA,NA,form submission,10669.625000024,2204959.7,2204951.882,2204968.475,2215638.1,2215638.3000001,2023-03-25T15:51:35Z,2215651.63,NULL,Wechsel,ugeuzaji,d,NA,NA,NA,ugushahi,NA,NA,2,NA,NA,NA,NA,NA,NA,NA,NA,NA,NA,NA,NA,NA,NA,NA,NA,NA,NA,NA
ca79d,"""Richtig""-Screen",canvas.Screen,3_0_2_0_1_0_1,NA,NA,skipped,NA,2215640.6,NA,NA,2215638.1,2215640.9000001,2023-03-25T15:51:35Z,2215651.63,NULL,Wechsel,ugeuzaji,d,NA,NA,NA,NA,sdf,NA,2,NA,NA,NA,NA,NA,NA,NA,NA,NA,NA,NA,NA,NA,NA,NA,NA,NA,NA,NA
ca79d,"""Falsch""-Screen",canvas.Screen,3_0_2_0_1_0_2,NA,NA,timeout,4999.6880000001,2215641.6,2215634.911,2215651.63,2220634.513,2220635.4000001,2023-03-25T15:51:40Z,2220651.318,NULL,Wechsel,ugeuzaji,d,NA,NA,NA,NA,sdf,0,2,NA,NA,NA,NA,NA,NA,NA,NA,NA,NA,NA,NA,NA,NA,NA,NA,NA,NA,NA
ca79d,deep,flow.Sequence,3_0_2_0_1_0,NA,NA,completion,15666.038,2204959.6,2204951.882,2204968.475,2220634.513,2220635.8000001,2023-03-25T15:51:40Z,2220651.318,NULL,Wechsel,ugeuzaji,d,NA,NA,NA,NA,sdf,NA,2,NA,NA,NA,NA,NA,NA,NA,NA,NA,NA,NA,NA,NA,NA,NA,NA,NA,NA,NA
ca79d,shallow,flow.Sequence,3_0_2_0_1_1,NA,NA,skipped,NA,2220636.1,NA,NA,2220634.513,2220636.2,2023-03-25T15:51:40Z,2220651.318,NULL,Wechsel,ugeuzaji,d,NA,NA,NA,NA,sdf,NA,2,NA,NA,NA,NA,NA,NA,NA,NA,NA,NA,NA,NA,NA,NA,NA,NA,NA,NA,NA
ca79d,task,flow.Sequence,3_0_2_0_1,NA,NA,completion,15666.038,2204959.6,2204951.882,2204968.475,2220634.513,2220636.4000001,2023-03-25T15:51:40Z,2220651.318,NULL,Wechsel,ugeuzaji,d,NA,NA,NA,NA,sdf,NA,2,NA,NA,NA,NA,NA,NA,NA,NA,NA,NA,NA,NA,NA,NA,NA,NA,NA,NA,NA
ca79d,deep,flow.Sequence,3_0_2_0_2_0,NA,NA,skipped,NA,2220636.6,NA,NA,2220634.513,2220636.7,2023-03-25T15:51:40Z,2220651.318,NULL,Theorie,nadharia,s,ushungi,mkutano,uwakilishi,NA,sdf,NA,2,NA,NA,NA,NA,NA,NA,NA,NA,NA,NA,NA,NA,NA,NA,NA,NA,NA,NA,NA
ca79d,Shallow Question,html.Page,3_0_2_0_2_1_0,NA,NA,form submission,8417.3820000477,2220636.9000001,2220634.513,2220651.318,2229068.7,2229069.1,2023-03-25T15:51:48Z,2229083.976,NULL,Theorie,nadharia,s,ushungi,mkutano,uwakilishi,nadharia,NA,NA,2,NA,NA,NA,NA,NA,NA,NA,NA,NA,NA,NA,NA,NA,NA,NA,NA,NA,NA,NA
ca79d,"""Richtig""-Screen",canvas.Screen,3_0_2_0_2_1_1,NA,NA,timeout,4999.659,2229071.5,2229066.795,2229083.976,2234066.769,2234067.2,2023-03-25T15:51:53Z,2234083.635,NULL,Theorie,nadharia,s,ushungi,mkutano,uwakilishi,NA,sdf,1,2,NA,NA,NA,NA,NA,NA,NA,NA,NA,NA,NA,NA,NA,NA,NA,NA,NA,NA,NA
ca79d,"""Falsch""-Screen",canvas.Screen,3_0_2_0_2_1_2,NA,NA,skipped,NA,2234069.3000001,NA,NA,2234066.769,2234069.5,2023-03-25T15:51:53Z,2234083.635,NULL,Theorie,nadharia,s,ushungi,mkutano,uwakilishi,NA,sdf,NA,2,NA,NA,NA,NA,NA,NA,NA,NA,NA,NA,NA,NA,NA,NA,NA,NA,NA,NA,NA
ca79d,shallow,flow.Sequence,3_0_2_0_2_1,NA,NA,completion,13415.451,2220636.8000001,2220634.513,2220651.318,2234066.769,2234069.7,2023-03-25T15:51:53Z,2234083.635,NULL,Theorie,nadharia,s,ushungi,mkutano,uwakilishi,NA,sdf,NA,2,NA,NA,NA,NA,NA,NA,NA,NA,NA,NA,NA,NA,NA,NA,NA,NA,NA,NA,NA
ca79d,task,flow.Sequence,3_0_2_0_2,NA,NA,completion,13415.451,2220636.5,2220634.513,2220651.318,2234066.769,2234069.8000001,2023-03-25T15:51:53Z,2234083.635,NULL,Theorie,nadharia,s,ushungi,mkutano,uwakilishi,NA,sdf,NA,2,NA,NA,NA,NA,NA,NA,NA,NA,NA,NA,NA,NA,NA,NA,NA,NA,NA,NA,NA
ca79d,deep,flow.Sequence,3_0_2_0_3_0,NA,NA,skipped,NA,2234069.8000001,NA,NA,2234066.769,2234069.8000001,2023-03-25T15:51:53Z,2234083.635,NULL,Flexibilität,kubadilika,s,enjini,usikilivu,hesabu,NA,sdf,NA,2,NA,NA,NA,NA,NA,NA,NA,NA,NA,NA,NA,NA,NA,NA,NA,NA,NA,NA,NA
ca79d,Shallow Question,html.Page,3_0_2_0_3_1_0,NA,NA,form submission,9459.9650000241,2234069.9000001,2234066.769,2234083.635,2243543.6,2243543.8000001,2023-03-25T15:52:03Z,2243548.959,NULL,Flexibilität,kubadilika,s,enjini,usikilivu,hesabu,kubadilika,NA,NA,2,NA,NA,NA,NA,NA,NA,NA,NA,NA,NA,NA,NA,NA,NA,NA,NA,NA,NA,NA
ca79d,"""Richtig""-Screen",canvas.Screen,3_0_2_0_3_1_1,NA,NA,timeout,5000.2210000004,2243546.1,2243532.599,2243548.959,2248532.33,2248533.4000001,2023-03-25T15:52:08Z,2248549.18,NULL,Flexibilität,kubadilika,s,enjini,usikilivu,hesabu,NA,sdf,1,2,NA,NA,NA,NA,NA,NA,NA,NA,NA,NA,NA,NA,NA,NA,NA,NA,NA,NA,NA
ca79d,"""Falsch""-Screen",canvas.Screen,3_0_2_0_3_1_2,NA,NA,skipped,NA,2248538.1,NA,NA,2248532.33,2248538.4000001,2023-03-25T15:52:08Z,2248549.18,NULL,Flexibilität,kubadilika,s,enjini,usikilivu,hesabu,NA,sdf,NA,2,NA,NA,NA,NA,NA,NA,NA,NA,NA,NA,NA,NA,NA,NA,NA,NA,NA,NA,NA
ca79d,shallow,flow.Sequence,3_0_2_0_3_1,NA,NA,completion,14448.695,2234069.9000001,2234066.769,2234083.635,2248532.33,2248538.6,2023-03-25T15:52:08Z,2248549.18,NULL,Flexibilität,kubadilika,s,enjini,usikilivu,hesabu,NA,sdf,NA,2,NA,NA,NA,NA,NA,NA,NA,NA,NA,NA,NA,NA,NA,NA,NA,NA,NA,NA,NA
ca79d,task,flow.Sequence,3_0_2_0_3,NA,NA,completion,14448.695,2234069.8000001,2234066.769,2234083.635,2248532.33,2248538.6,2023-03-25T15:52:08Z,2248549.18,NULL,Flexibilität,kubadilika,s,enjini,usikilivu,hesabu,NA,sdf,NA,2,NA,NA,NA,NA,NA,NA,NA,NA,NA,NA,NA,NA,NA,NA,NA,NA,NA,NA,NA
ca79d,Deep Question,html.Page,3_0_2_0_4_0_0,NA,NA,form submission,11067.620000071,2248538.7,2248532.33,2248549.18,2259616.8000001,2259617,2023-03-25T15:52:19Z,2259631.706,NULL,Erneuerung,ukarabati,d,NA,NA,NA,kubadilika,NA,NA,2,NA,NA,NA,NA,NA,NA,NA,NA,NA,NA,NA,NA,NA,NA,NA,NA,NA,NA,NA
ca79d,"""Richtig""-Screen",canvas.Screen,3_0_2_0_4_0_1,NA,NA,skipped,NA,2259619.3000001,NA,NA,2259616.8000001,2259619.5,2023-03-25T15:52:19Z,2259631.706,NULL,Erneuerung,ukarabati,d,NA,NA,NA,NA,sdf,NA,2,NA,NA,NA,NA,NA,NA,NA,NA,NA,NA,NA,NA,NA,NA,NA,NA,NA,NA,NA
ca79d,"""Falsch""-Screen",canvas.Screen,3_0_2_0_4_0_2,NA,NA,timeout,4999.4570000004,2259620.2,2259614.937,2259631.706,2264614.28,2264615.3000001,2023-03-25T15:52:24Z,2264631.163,NULL,Erneuerung,ukarabati,d,NA,NA,NA,NA,sdf,0,2,NA,NA,NA,NA,NA,NA,NA,NA,NA,NA,NA,NA,NA,NA,NA,NA,NA,NA,NA
ca79d,deep,flow.Sequence,3_0_2_0_4_0,NA,NA,completion,16065.1,2248538.6,2248532.33,2248549.18,2264614.28,2264615.7,2023-03-25T15:52:24Z,2264631.163,NULL,Erneuerung,ukarabati,d,NA,NA,NA,NA,sdf,NA,2,NA,NA,NA,NA,NA,NA,NA,NA,NA,NA,NA,NA,NA,NA,NA,NA,NA,NA,NA
ca79d,shallow,flow.Sequence,3_0_2_0_4_1,NA,NA,skipped,NA,2264615.9000001,NA,NA,2264614.28,2264616.1,2023-03-25T15:52:24Z,2264631.163,NULL,Erneuerung,ukarabati,d,NA,NA,NA,NA,sdf,NA,2,NA,NA,NA,NA,NA,NA,NA,NA,NA,NA,NA,NA,NA,NA,NA,NA,NA,NA,NA
ca79d,task,flow.Sequence,3_0_2_0_4,NA,NA,completion,16065.1,2248538.6,2248532.33,2248549.18,2264614.28,2264616.4000001,2023-03-25T15:52:24Z,2264631.163,NULL,Erneuerung,ukarabati,d,NA,NA,NA,NA,sdf,NA,2,NA,NA,NA,NA,NA,NA,NA,NA,NA,NA,NA,NA,NA,NA,NA,NA,NA,NA,NA
ca79d,Deep Question,html.Page,3_0_2_0_5_0_0,NA,NA,form submission,9803.1370000714,2264616.7,2264614.28,2264631.163,2274434.3000001,2274434.5,2023-03-25T15:52:34Z,2274446.688,NULL,Hoffnung,matarajio,d,NA,NA,NA,ukarabati,NA,NA,2,NA,NA,NA,NA,NA,NA,NA,NA,NA,NA,NA,NA,NA,NA,NA,NA,NA,NA,NA
ca79d,"""Richtig""-Screen",canvas.Screen,3_0_2_0_5_0_1,NA,NA,skipped,NA,2274436.9000001,NA,NA,2274434.3000001,2274437,2023-03-25T15:52:34Z,2274446.688,NULL,Hoffnung,matarajio,d,NA,NA,NA,NA,sdf,NA,2,NA,NA,NA,NA,NA,NA,NA,NA,NA,NA,NA,NA,NA,NA,NA,NA,NA,NA,NA
ca79d,"""Falsch""-Screen",canvas.Screen,3_0_2_0_5_0_2,NA,NA,timeout,4999.963,2274437.7,2274429.943,2274446.688,2279429.664,2279430.6,2023-03-25T15:52:39Z,2279446.651,NULL,Hoffnung,matarajio,d,NA,NA,NA,NA,sdf,0,2,NA,NA,NA,NA,NA,NA,NA,NA,NA,NA,NA,NA,NA,NA,NA,NA,NA,NA,NA
ca79d,deep,flow.Sequence,3_0_2_0_5_0,NA,NA,completion,14798.501,2264616.6,2264614.28,2264631.163,2279429.664,2279431,2023-03-25T15:52:39Z,2279446.651,NULL,Hoffnung,matarajio,d,NA,NA,NA,NA,sdf,NA,2,NA,NA,NA,NA,NA,NA,NA,NA,NA,NA,NA,NA,NA,NA,NA,NA,NA,NA,NA
ca79d,shallow,flow.Sequence,3_0_2_0_5_1,NA,NA,skipped,NA,2279431.1,NA,NA,2279429.664,2279431.3000001,2023-03-25T15:52:39Z,2279446.651,NULL,Hoffnung,matarajio,d,NA,NA,NA,NA,sdf,NA,2,NA,NA,NA,NA,NA,NA,NA,NA,NA,NA,NA,NA,NA,NA,NA,NA,NA,NA,NA
ca79d,task,flow.Sequence,3_0_2_0_5,NA,NA,completion,14798.501,2264616.5,2264614.28,2264631.163,2279429.664,2279431.5,2023-03-25T15:52:39Z,2279446.651,NULL,Hoffnung,matarajio,d,NA,NA,NA,NA,sdf,NA,2,NA,NA,NA,NA,NA,NA,NA,NA,NA,NA,NA,NA,NA,NA,NA,NA,NA,NA,NA
ca79d,Deep Question,html.Page,3_0_2_0_6_0_0,NA,NA,form submission,7694.0490000476,2279431.8000001,2279429.664,2279446.651,2287140.7,2287140.9000001,2023-03-25T15:52:46Z,2287145.699,NULL,Verpackung,ufungaji,d,NA,NA,NA,usharai,NA,NA,2,NA,NA,NA,NA,NA,NA,NA,NA,NA,NA,NA,NA,NA,NA,NA,NA,NA,NA,NA
ca79d,"""Richtig""-Screen",canvas.Screen,3_0_2_0_6_0_1,NA,NA,skipped,NA,2287143.3000001,NA,NA,2287140.7,2287143.4000001,2023-03-25T15:52:46Z,2287145.699,NULL,Verpackung,ufungaji,d,NA,NA,NA,NA,sdf,NA,2,NA,NA,NA,NA,NA,NA,NA,NA,NA,NA,NA,NA,NA,NA,NA,NA,NA,NA,NA
ca79d,"""Falsch""-Screen",canvas.Screen,3_0_2_0_6_0_2,NA,NA,timeout,4999.696,2287144.1,2287129.47,2287145.699,2292128.738,2292129.6,2023-03-25T15:52:51Z,2292145.395,NULL,Verpackung,ufungaji,d,NA,NA,NA,NA,sdf,0,2,NA,NA,NA,NA,NA,NA,NA,NA,NA,NA,NA,NA,NA,NA,NA,NA,NA,NA,NA
ca79d,deep,flow.Sequence,3_0_2_0_6_0,NA,NA,completion,12682.087,2279431.8000001,2279429.664,2279446.651,2292128.738,2292130,2023-03-25T15:52:51Z,2292145.395,NULL,Verpackung,ufungaji,d,NA,NA,NA,NA,sdf,NA,2,NA,NA,NA,NA,NA,NA,NA,NA,NA,NA,NA,NA,NA,NA,NA,NA,NA,NA,NA
ca79d,shallow,flow.Sequence,3_0_2_0_6_1,NA,NA,skipped,NA,2292130.3000001,NA,NA,2292128.738,2292130.4000001,2023-03-25T15:52:51Z,2292145.395,NULL,Verpackung,ufungaji,d,NA,NA,NA,NA,sdf,NA,2,NA,NA,NA,NA,NA,NA,NA,NA,NA,NA,NA,NA,NA,NA,NA,NA,NA,NA,NA
ca79d,task,flow.Sequence,3_0_2_0_6,NA,NA,completion,12682.087,2279431.6,2279429.664,2279446.651,2292128.738,2292130.7,2023-03-25T15:52:51Z,2292145.395,NULL,Verpackung,ufungaji,d,NA,NA,NA,NA,sdf,NA,2,NA,NA,NA,NA,NA,NA,NA,NA,NA,NA,NA,NA,NA,NA,NA,NA,NA,NA,NA
ca79d,deep,flow.Sequence,3_0_2_0_7_0,NA,NA,skipped,NA,2292130.9000001,NA,NA,2292128.738,2292131,2023-03-25T15:52:51Z,2292145.395,NULL,Atmosphäre,angahewa,s,kuteseka,usahihi,kutoamini,NA,sdf,NA,2,NA,NA,NA,NA,NA,NA,NA,NA,NA,NA,NA,NA,NA,NA,NA,NA,NA,NA,NA
ca79d,Shallow Question,html.Page,3_0_2_0_7_1_0,NA,NA,form submission,7046.3050000477,2292131.2,2292128.738,2292145.395,2299191.7,2299191.9000001,2023-03-25T15:52:58Z,2299194.741,NULL,Atmosphäre,angahewa,s,kuteseka,usahihi,kutoamini,angahewa,NA,NA,2,NA,NA,NA,NA,NA,NA,NA,NA,NA,NA,NA,NA,NA,NA,NA,NA,NA,NA,NA
ca79d,"""Richtig""-Screen",canvas.Screen,3_0_2_0_7_1_1,NA,NA,timeout,4999.7540000002,2299194.4000001,2299178.649,2299194.741,2304177.821,2304178.8000001,2023-03-25T15:53:03Z,2304194.495,NULL,Atmosphäre,angahewa,s,kuteseka,usahihi,kutoamini,NA,sdf,1,2,NA,NA,NA,NA,NA,NA,NA,NA,NA,NA,NA,NA,NA,NA,NA,NA,NA,NA,NA
ca79d,"""Falsch""-Screen",canvas.Screen,3_0_2_0_7_1_2,NA,NA,skipped,NA,2304185,NA,NA,2304177.821,2304185.4000001,2023-03-25T15:53:03Z,2304194.495,NULL,Atmosphäre,angahewa,s,kuteseka,usahihi,kutoamini,NA,sdf,NA,2,NA,NA,NA,NA,NA,NA,NA,NA,NA,NA,NA,NA,NA,NA,NA,NA,NA,NA,NA
ca79d,shallow,flow.Sequence,3_0_2_0_7_1,NA,NA,completion,12032.426,2292131.2,2292128.738,2292145.395,2304177.821,2304185.8000001,2023-03-25T15:53:03Z,2304194.495,NULL,Atmosphäre,angahewa,s,kuteseka,usahihi,kutoamini,NA,sdf,NA,2,NA,NA,NA,NA,NA,NA,NA,NA,NA,NA,NA,NA,NA,NA,NA,NA,NA,NA,NA
ca79d,task,flow.Sequence,3_0_2_0_7,NA,NA,completion,12032.426,2292130.8000001,2292128.738,2292145.395,2304177.821,2304186.1,2023-03-25T15:53:03Z,2304194.495,NULL,Atmosphäre,angahewa,s,kuteseka,usahihi,kutoamini,NA,sdf,NA,2,NA,NA,NA,NA,NA,NA,NA,NA,NA,NA,NA,NA,NA,NA,NA,NA,NA,NA,NA
ca79d,block,flow.Loop,3_0_2_0,NA,NA,completion,113641.598,2190534.3000001,2190520.104,2190536.223,2304177.821,2304186.3000001,2023-03-25T15:53:03Z,2304194.495,NULL,NA,NA,NA,NA,NA,NA,NA,sdf,NA,2,NA,NA,NA,NA,NA,NA,NA,NA,NA,NA,NA,NA,NA,NA,NA,NA,NA,NA,NA
ca79d,weiter,canvas.Screen,3_0_2_1,sdf,keypress(Space),response,1359.1050000237,2304186.5,2304177.821,2304194.495,2305553.6,2305554.8000001,2023-03-25T15:53:05Z,2305594.294,NULL,NA,NA,NA,NA,NA,NA,NA,sdf,NA,2,NA,NA,NA,NA,NA,NA,NA,NA,NA,NA,NA,NA,NA,NA,NA,NA,NA,NA,NA
ca79d,check continue,flow.Sequence,3_0_2,NA,NA,completion,115017.37700002,2190534.2,2190520.104,2190536.223,2305553.6,2305555.1,2023-03-25T15:53:05Z,2305594.294,NULL,NA,NA,NA,NA,NA,NA,NA,sdf,NA,2,NA,NA,NA,NA,NA,NA,NA,NA,NA,NA,NA,NA,NA,NA,NA,NA,NA,NA,NA
ca79d,Deep Question,html.Page,3_0_3_0_0_0_0,NA,NA,form submission,11287.306000024,2305592.2,2305578.137,2305594.294,2316881.6,2316881.8000001,2023-03-25T15:53:16Z,2316893.44,NULL,Wechsel,ugeuzaji,d,NA,NA,NA,ushararji,NA,NA,3,NA,NA,NA,NA,NA,NA,NA,NA,NA,NA,NA,NA,NA,NA,NA,NA,NA,NA,NA
ca79d,"""Richtig""-Screen",canvas.Screen,3_0_3_0_0_0_1,NA,NA,skipped,NA,2316884.6,NA,NA,2316881.6,2316884.9000001,2023-03-25T15:53:16Z,2316893.44,NULL,Wechsel,ugeuzaji,d,NA,NA,NA,NA,qt,NA,3,NA,NA,NA,NA,NA,NA,NA,NA,NA,NA,NA,NA,NA,NA,NA,NA,NA,NA,NA
ca79d,"""Falsch""-Screen",canvas.Screen,3_0_3_0_0_0_2,NA,NA,timeout,5000.2710000002,2316885.6,2316877.297,2316893.44,2321876.679,2321877.8000001,2023-03-25T15:53:21Z,2321893.711,NULL,Wechsel,ugeuzaji,d,NA,NA,NA,NA,qt,0,3,NA,NA,NA,NA,NA,NA,NA,NA,NA,NA,NA,NA,NA,NA,NA,NA,NA,NA,NA
ca79d,deep,flow.Sequence,3_0_3_0_0_0,NA,NA,completion,16282.385,2305592.2,2305578.137,2305594.294,2321876.679,2321878.4000001,2023-03-25T15:53:21Z,2321893.711,NULL,Wechsel,ugeuzaji,d,NA,NA,NA,NA,qt,NA,3,NA,NA,NA,NA,NA,NA,NA,NA,NA,NA,NA,NA,NA,NA,NA,NA,NA,NA,NA
ca79d,shallow,flow.Sequence,3_0_3_0_0_1,NA,NA,skipped,NA,2321878.6,NA,NA,2321876.679,2321878.8000001,2023-03-25T15:53:21Z,2321893.711,NULL,Wechsel,ugeuzaji,d,NA,NA,NA,NA,qt,NA,3,NA,NA,NA,NA,NA,NA,NA,NA,NA,NA,NA,NA,NA,NA,NA,NA,NA,NA,NA
ca79d,task,flow.Sequence,3_0_3_0_0,NA,NA,completion,16282.385,2305592.2,2305578.137,2305594.294,2321876.679,2321879,2023-03-25T15:53:21Z,2321893.711,NULL,Wechsel,ugeuzaji,d,NA,NA,NA,NA,qt,NA,3,NA,NA,NA,NA,NA,NA,NA,NA,NA,NA,NA,NA,NA,NA,NA,NA,NA,NA,NA
ca79d,deep,flow.Sequence,3_0_3_0_1_0,NA,NA,skipped,NA,2321879.2,NA,NA,2321876.679,2321879.4000001,2023-03-25T15:53:21Z,2321893.711,NULL,Atmosphäre,angahewa,s,kuteseka,usahihi,kutoamini,NA,qt,NA,3,NA,NA,NA,NA,NA,NA,NA,NA,NA,NA,NA,NA,NA,NA,NA,NA,NA,NA,NA
ca79d,Shallow Question,html.Page,3_0_3_0_1_1_0,NA,NA,form submission,13119.389000024,2321879.6,2321876.679,2321893.711,2335013.1,2335013.4000001,2023-03-25T15:53:34Z,2335025.477,NULL,Atmosphäre,angahewa,s,kuteseka,usahihi,kutoamini,kutoamini,NA,NA,3,NA,NA,NA,NA,NA,NA,NA,NA,NA,NA,NA,NA,NA,NA,NA,NA,NA,NA,NA
ca79d,"""Richtig""-Screen",canvas.Screen,3_0_3_0_1_1_1,NA,NA,skipped,NA,2335015.9000001,NA,NA,2335013.1,2335015.9000001,2023-03-25T15:53:34Z,2335025.477,NULL,Atmosphäre,angahewa,s,kuteseka,usahihi,kutoamini,NA,qt,NA,3,NA,NA,NA,NA,NA,NA,NA,NA,NA,NA,NA,NA,NA,NA,NA,NA,NA,NA,NA
ca79d,"""Falsch""-Screen",canvas.Screen,3_0_3_0_1_1_2,NA,NA,timeout,5000.2260000003,2335016.7,2335008.793,2335025.477,2340008.95,2340009.4000001,2023-03-25T15:53:39Z,2340025.703,NULL,Atmosphäre,angahewa,s,kuteseka,usahihi,kutoamini,NA,qt,0,3,NA,NA,NA,NA,NA,NA,NA,NA,NA,NA,NA,NA,NA,NA,NA,NA,NA,NA,NA
ca79d,shallow,flow.Sequence,3_0_3_0_1_1,NA,NA,completion,18115.239,2321879.5,2321876.679,2321893.711,2340008.95,2340009.7,2023-03-25T15:53:39Z,2340025.703,NULL,Atmosphäre,angahewa,s,kuteseka,usahihi,kutoamini,NA,qt,NA,3,NA,NA,NA,NA,NA,NA,NA,NA,NA,NA,NA,NA,NA,NA,NA,NA,NA,NA,NA
ca79d,task,flow.Sequence,3_0_3_0_1,NA,NA,completion,18115.239,2321879.1,2321876.679,2321893.711,2340008.95,2340009.8000001,2023-03-25T15:53:39Z,2340025.703,NULL,Atmosphäre,angahewa,s,kuteseka,usahihi,kutoamini,NA,qt,NA,3,NA,NA,NA,NA,NA,NA,NA,NA,NA,NA,NA,NA,NA,NA,NA,NA,NA,NA,NA
ca79d,deep,flow.Sequence,3_0_3_0_2_0,NA,NA,skipped,NA,2340009.9000001,NA,NA,2340008.95,2340010,2023-03-25T15:53:39Z,2340025.703,NULL,Schock,mshtuko,s,biashara,kukataza,vichekesho,NA,qt,NA,3,NA,NA,NA,NA,NA,NA,NA,NA,NA,NA,NA,NA,NA,NA,NA,NA,NA,NA,NA
ca79d,Shallow Question,html.Page,3_0_3_0_2_1_0,NA,NA,form submission,4443.6970000952,2340010.1,2340008.95,2340025.703,2344469.4000001,2344469.5,2023-03-25T15:53:44Z,2344474.729,NULL,Schock,mshtuko,s,biashara,kukataza,vichekesho,mshtuko,NA,NA,3,NA,NA,NA,NA,NA,NA,NA,NA,NA,NA,NA,NA,NA,NA,NA,NA,NA,NA,NA
ca79d,"""Richtig""-Screen",canvas.Screen,3_0_3_0_2_1_1,NA,NA,timeout,4999.6490000002,2344471.7,2344458.264,2344474.729,2349457.893,2349458.6,2023-03-25T15:53:49Z,2349474.378,NULL,Schock,mshtuko,s,biashara,kukataza,vichekesho,NA,qt,1,3,NA,NA,NA,NA,NA,NA,NA,NA,NA,NA,NA,NA,NA,NA,NA,NA,NA,NA,NA
ca79d,"""Falsch""-Screen",canvas.Screen,3_0_3_0_2_1_2,NA,NA,skipped,NA,2349462.8000001,NA,NA,2349457.893,2349463,2023-03-25T15:53:49Z,2349474.378,NULL,Schock,mshtuko,s,biashara,kukataza,vichekesho,NA,qt,NA,3,NA,NA,NA,NA,NA,NA,NA,NA,NA,NA,NA,NA,NA,NA,NA,NA,NA,NA,NA
ca79d,shallow,flow.Sequence,3_0_3_0_2_1,NA,NA,completion,9432.1899999999,2340010,2340008.95,2340025.703,2349457.893,2349463.2,2023-03-25T15:53:49Z,2349474.378,NULL,Schock,mshtuko,s,biashara,kukataza,vichekesho,NA,qt,NA,3,NA,NA,NA,NA,NA,NA,NA,NA,NA,NA,NA,NA,NA,NA,NA,NA,NA,NA,NA
ca79d,task,flow.Sequence,3_0_3_0_2,NA,NA,completion,9432.1899999999,2340009.9000001,2340008.95,2340025.703,2349457.893,2349463.4000001,2023-03-25T15:53:49Z,2349474.378,NULL,Schock,mshtuko,s,biashara,kukataza,vichekesho,NA,qt,NA,3,NA,NA,NA,NA,NA,NA,NA,NA,NA,NA,NA,NA,NA,NA,NA,NA,NA,NA,NA
ca79d,Deep Question,html.Page,3_0_3_0_3_0_0,NA,NA,form submission,13877.522000095,2349463.6,2349457.893,2349474.378,2363351.9000001,2363352.1,2023-03-25T15:54:02Z,2363356.641,NULL,Hoffnung,matarajio,d,NA,NA,NA,ugahaji,NA,NA,3,NA,NA,NA,NA,NA,NA,NA,NA,NA,NA,NA,NA,NA,NA,NA,NA,NA,NA,NA
ca79d,"""Richtig""-Screen",canvas.Screen,3_0_3_0_3_0_1,NA,NA,skipped,NA,2363354.3000001,NA,NA,2363351.9000001,2363354.8000001,2023-03-25T15:54:02Z,2363356.641,NULL,Hoffnung,matarajio,d,NA,NA,NA,NA,qt,NA,3,NA,NA,NA,NA,NA,NA,NA,NA,NA,NA,NA,NA,NA,NA,NA,NA,NA,NA,NA
ca79d,"""Falsch""-Screen",canvas.Screen,3_0_3_0_3_0_2,NA,NA,timeout,4999.6870000004,2363355.6,2363340.388,2363356.641,2368340.147,2368341.1,2023-03-25T15:54:07Z,2368356.328,NULL,Hoffnung,matarajio,d,NA,NA,NA,NA,qt,0,3,NA,NA,NA,NA,NA,NA,NA,NA,NA,NA,NA,NA,NA,NA,NA,NA,NA,NA,NA
ca79d,deep,flow.Sequence,3_0_3_0_3_0,NA,NA,completion,18865.769,2349463.6,2349457.893,2349474.378,2368340.147,2368341.5,2023-03-25T15:54:07Z,2368356.328,NULL,Hoffnung,matarajio,d,NA,NA,NA,NA,qt,NA,3,NA,NA,NA,NA,NA,NA,NA,NA,NA,NA,NA,NA,NA,NA,NA,NA,NA,NA,NA
ca79d,shallow,flow.Sequence,3_0_3_0_3_1,NA,NA,skipped,NA,2368341.7,NA,NA,2368340.147,2368342,2023-03-25T15:54:07Z,2368356.328,NULL,Hoffnung,matarajio,d,NA,NA,NA,NA,qt,NA,3,NA,NA,NA,NA,NA,NA,NA,NA,NA,NA,NA,NA,NA,NA,NA,NA,NA,NA,NA
ca79d,task,flow.Sequence,3_0_3_0_3,NA,NA,completion,18865.769,2349463.6,2349457.893,2349474.378,2368340.147,2368342.2,2023-03-25T15:54:07Z,2368356.328,NULL,Hoffnung,matarajio,d,NA,NA,NA,NA,qt,NA,3,NA,NA,NA,NA,NA,NA,NA,NA,NA,NA,NA,NA,NA,NA,NA,NA,NA,NA,NA
ca79d,Deep Question,html.Page,3_0_3_0_4_0_0,NA,NA,form submission,12200.672,2368342.4000001,2368340.147,2368356.328,2380557,2380557.2,2023-03-25T15:54:20Z,2380572.606,NULL,Erneuerung,ukarabati,d,NA,NA,NA,mstahji,NA,NA,3,NA,NA,NA,NA,NA,NA,NA,NA,NA,NA,NA,NA,NA,NA,NA,NA,NA,NA,NA
ca79d,"""Richtig""-Screen",canvas.Screen,3_0_3_0_4_0_1,NA,NA,skipped,NA,2380559.6,NA,NA,2380557,2380559.7,2023-03-25T15:54:20Z,2380572.606,NULL,Erneuerung,ukarabati,d,NA,NA,NA,NA,qt,NA,3,NA,NA,NA,NA,NA,NA,NA,NA,NA,NA,NA,NA,NA,NA,NA,NA,NA,NA,NA
ca79d,"""Falsch""-Screen",canvas.Screen,3_0_3_0_4_0_2,NA,NA,timeout,4999.6599999997,2380560.3000001,2380555.925,2380572.606,2385555.197,2385556.1,2023-03-25T15:54:25Z,2385572.266,NULL,Erneuerung,ukarabati,d,NA,NA,NA,NA,qt,0,3,NA,NA,NA,NA,NA,NA,NA,NA,NA,NA,NA,NA,NA,NA,NA,NA,NA,NA,NA
ca79d,deep,flow.Sequence,3_0_3_0_4_0,NA,NA,completion,17198.869,2368342.4000001,2368340.147,2368356.328,2385555.197,2385556.6,2023-03-25T15:54:25Z,2385572.266,NULL,Erneuerung,ukarabati,d,NA,NA,NA,NA,qt,NA,3,NA,NA,NA,NA,NA,NA,NA,NA,NA,NA,NA,NA,NA,NA,NA,NA,NA,NA,NA
ca79d,shallow,flow.Sequence,3_0_3_0_4_1,NA,NA,skipped,NA,2385556.7,NA,NA,2385555.197,2385556.9000001,2023-03-25T15:54:25Z,2385572.266,NULL,Erneuerung,ukarabati,d,NA,NA,NA,NA,qt,NA,3,NA,NA,NA,NA,NA,NA,NA,NA,NA,NA,NA,NA,NA,NA,NA,NA,NA,NA,NA
ca79d,task,flow.Sequence,3_0_3_0_4,NA,NA,completion,17198.869,2368342.3000001,2368340.147,2368356.328,2385555.197,2385557.2,2023-03-25T15:54:25Z,2385572.266,NULL,Erneuerung,ukarabati,d,NA,NA,NA,NA,qt,NA,3,NA,NA,NA,NA,NA,NA,NA,NA,NA,NA,NA,NA,NA,NA,NA,NA,NA,NA,NA
ca79d,deep,flow.Sequence,3_0_3_0_5_0,NA,NA,skipped,NA,2385557.3000001,NA,NA,2385555.197,2385557.5,2023-03-25T15:54:25Z,2385572.266,NULL,Flexibilität,kubadilika,s,enjini,usikilivu,hesabu,NA,qt,NA,3,NA,NA,NA,NA,NA,NA,NA,NA,NA,NA,NA,NA,NA,NA,NA,NA,NA,NA,NA
ca79d,Shallow Question,html.Page,3_0_3_0_5_1_0,NA,NA,form submission,9567.6340000955,2385557.7,2385555.197,2385572.266,2395139.9000001,2395140.1,2023-03-25T15:54:34Z,2395154.825,NULL,Flexibilität,kubadilika,s,enjini,usikilivu,hesabu,enjini,NA,NA,3,NA,NA,NA,NA,NA,NA,NA,NA,NA,NA,NA,NA,NA,NA,NA,NA,NA,NA,NA
ca79d,"""Richtig""-Screen",canvas.Screen,3_0_3_0_5_1_1,NA,NA,skipped,NA,2395142.4000001,NA,NA,2395139.9000001,2395142.5,2023-03-25T15:54:34Z,2395154.825,NULL,Flexibilität,kubadilika,s,enjini,usikilivu,hesabu,NA,qt,NA,3,NA,NA,NA,NA,NA,NA,NA,NA,NA,NA,NA,NA,NA,NA,NA,NA,NA,NA,NA
ca79d,"""Falsch""-Screen",canvas.Screen,3_0_3_0_5_1_2,NA,NA,timeout,4999.7439999999,2395143.3000001,2395137.948,2395154.825,2400137.458,2400138.5,2023-03-25T15:54:39Z,2400154.569,NULL,Flexibilität,kubadilika,s,enjini,usikilivu,hesabu,NA,qt,0,3,NA,NA,NA,NA,NA,NA,NA,NA,NA,NA,NA,NA,NA,NA,NA,NA,NA,NA,NA
ca79d,shallow,flow.Sequence,3_0_3_0_5_1,NA,NA,completion,14565.192,2385557.7,2385555.197,2385572.266,2400137.458,2400139,2023-03-25T15:54:39Z,2400154.569,NULL,Flexibilität,kubadilika,s,enjini,usikilivu,hesabu,NA,qt,NA,3,NA,NA,NA,NA,NA,NA,NA,NA,NA,NA,NA,NA,NA,NA,NA,NA,NA,NA,NA
ca79d,task,flow.Sequence,3_0_3_0_5,NA,NA,completion,14565.192,2385557.3000001,2385555.197,2385572.266,2400137.458,2400139.2,2023-03-25T15:54:39Z,2400154.569,NULL,Flexibilität,kubadilika,s,enjini,usikilivu,hesabu,NA,qt,NA,3,NA,NA,NA,NA,NA,NA,NA,NA,NA,NA,NA,NA,NA,NA,NA,NA,NA,NA,NA
ca79d,Deep Question,html.Page,3_0_3_0_6_0_0,NA,NA,form submission,13692.731000071,2400139.5,2400137.458,2400154.569,2413847.3000001,2413847.5,2023-03-25T15:54:53Z,2413852.852,NULL,Verpackung,ufungaji,d,NA,NA,NA,uzeugji,NA,NA,3,NA,NA,NA,NA,NA,NA,NA,NA,NA,NA,NA,NA,NA,NA,NA,NA,NA,NA,NA
ca79d,"""Richtig""-Screen",canvas.Screen,3_0_3_0_6_0_1,NA,NA,skipped,NA,2413850,NA,NA,2413847.3000001,2413850.1,2023-03-25T15:54:53Z,2413852.852,NULL,Verpackung,ufungaji,d,NA,NA,NA,NA,qt,NA,3,NA,NA,NA,NA,NA,NA,NA,NA,NA,NA,NA,NA,NA,NA,NA,NA,NA,NA,NA
ca79d,"""Falsch""-Screen",canvas.Screen,3_0_3_0_6_0_2,NA,NA,timeout,5000.1150000002,2413850.8000001,2413836.335,2413852.852,2418835.954,2418838.1,2023-03-25T15:54:58Z,2418852.967,NULL,Verpackung,ufungaji,d,NA,NA,NA,NA,qt,0,3,NA,NA,NA,NA,NA,NA,NA,NA,NA,NA,NA,NA,NA,NA,NA,NA,NA,NA,NA
ca79d,deep,flow.Sequence,3_0_3_0_6_0,NA,NA,completion,18681.385,2400139.5,2400137.458,2400154.569,2418835.954,2418838.7,2023-03-25T15:54:58Z,2418852.967,NULL,Verpackung,ufungaji,d,NA,NA,NA,NA,qt,NA,3,NA,NA,NA,NA,NA,NA,NA,NA,NA,NA,NA,NA,NA,NA,NA,NA,NA,NA,NA
ca79d,shallow,flow.Sequence,3_0_3_0_6_1,NA,NA,skipped,NA,2418838.9000001,NA,NA,2418835.954,2418839.1,2023-03-25T15:54:58Z,2418852.967,NULL,Verpackung,ufungaji,d,NA,NA,NA,NA,qt,NA,3,NA,NA,NA,NA,NA,NA,NA,NA,NA,NA,NA,NA,NA,NA,NA,NA,NA,NA,NA
ca79d,task,flow.Sequence,3_0_3_0_6,NA,NA,completion,18681.385,2400139.4000001,2400137.458,2400154.569,2418835.954,2418839.4000001,2023-03-25T15:54:58Z,2418852.967,NULL,Verpackung,ufungaji,d,NA,NA,NA,NA,qt,NA,3,NA,NA,NA,NA,NA,NA,NA,NA,NA,NA,NA,NA,NA,NA,NA,NA,NA,NA,NA
ca79d,deep,flow.Sequence,3_0_3_0_7_0,NA,NA,skipped,NA,2418839.6,NA,NA,2418835.954,2418839.7,2023-03-25T15:54:58Z,2418852.967,NULL,Theorie,nadharia,s,ushungi,mkutano,uwakilishi,NA,qt,NA,3,NA,NA,NA,NA,NA,NA,NA,NA,NA,NA,NA,NA,NA,NA,NA,NA,NA,NA,NA
ca79d,Shallow Question,html.Page,3_0_3_0_7_1_0,NA,NA,form submission,7266.2330000475,2418839.9000001,2418835.954,2418852.967,2426119.2,2426119.6,2023-03-25T15:55:05Z,2426135.281,NULL,Theorie,nadharia,s,ushungi,mkutano,uwakilishi,nadharia,NA,NA,3,NA,NA,NA,NA,NA,NA,NA,NA,NA,NA,NA,NA,NA,NA,NA,NA,NA,NA,NA
ca79d,"""Richtig""-Screen",canvas.Screen,3_0_3_0_7_1_1,NA,NA,timeout,5000.0780000002,2426122,2426102.23,2426135.281,2431118.789,2431119.7,2023-03-25T15:55:10Z,2431135.359,NULL,Theorie,nadharia,s,ushungi,mkutano,uwakilishi,NA,qt,1,3,NA,NA,NA,NA,NA,NA,NA,NA,NA,NA,NA,NA,NA,NA,NA,NA,NA,NA,NA
ca79d,"""Falsch""-Screen",canvas.Screen,3_0_3_0_7_1_2,NA,NA,skipped,NA,2431123.2,NA,NA,2431118.789,2431123.4000001,2023-03-25T15:55:10Z,2431135.359,NULL,Theorie,nadharia,s,ushungi,mkutano,uwakilishi,NA,qt,NA,3,NA,NA,NA,NA,NA,NA,NA,NA,NA,NA,NA,NA,NA,NA,NA,NA,NA,NA,NA
ca79d,shallow,flow.Sequence,3_0_3_0_7_1,NA,NA,completion,12265.822,2418839.9000001,2418835.954,2418852.967,2431118.789,2431123.5,2023-03-25T15:55:10Z,2431135.359,NULL,Theorie,nadharia,s,ushungi,mkutano,uwakilishi,NA,qt,NA,3,NA,NA,NA,NA,NA,NA,NA,NA,NA,NA,NA,NA,NA,NA,NA,NA,NA,NA,NA
ca79d,task,flow.Sequence,3_0_3_0_7,NA,NA,completion,12265.822,2418839.6,2418835.954,2418852.967,2431118.789,2431123.6,2023-03-25T15:55:10Z,2431135.359,NULL,Theorie,nadharia,s,ushungi,mkutano,uwakilishi,NA,qt,NA,3,NA,NA,NA,NA,NA,NA,NA,NA,NA,NA,NA,NA,NA,NA,NA,NA,NA,NA,NA
ca79d,block,flow.Loop,3_0_3_0,NA,NA,completion,125524.495,2305592.2,2305578.137,2305594.294,2431118.789,2431123.8000001,2023-03-25T15:55:10Z,2431135.359,NULL,NA,NA,NA,NA,NA,NA,NA,qt,NA,3,NA,NA,NA,NA,NA,NA,NA,NA,NA,NA,NA,NA,NA,NA,NA,NA,NA,NA,NA
ca79d,weiter,canvas.Screen,3_0_3_1,sdf,keypress(Space),response,4218.7410000237,2431123.9000001,2431118.789,2431135.359,2435354.1,2435355.5,2023-03-25T15:55:14Z,2435401.179,NULL,NA,NA,NA,NA,NA,NA,NA,qt,NA,3,NA,NA,NA,NA,NA,NA,NA,NA,NA,NA,NA,NA,NA,NA,NA,NA,NA,NA,NA
ca79d,check continue,flow.Sequence,3_0_3,NA,NA,completion,129759.80600002,2305592.1,2305578.137,2305594.294,2435354.1,2435355.8000001,2023-03-25T15:55:14Z,2435401.179,NULL,NA,NA,NA,NA,NA,NA,NA,qt,NA,3,NA,NA,NA,NA,NA,NA,NA,NA,NA,NA,NA,NA,NA,NA,NA,NA,NA,NA,NA
ca79d,Deep Question,html.Page,3_0_4_0_0_0_0,NA,NA,form submission,8698.1210000715,2435395.5,2435384.983,2435401.179,2444099.3000001,2444099.4000001,2023-03-25T15:55:23Z,2444100.547,NULL,Wechsel,ugeuzaji,d,NA,NA,NA,kuharji,NA,NA,4,NA,NA,NA,NA,NA,NA,NA,NA,NA,NA,NA,NA,NA,NA,NA,NA,NA,NA,NA
ca79d,"""Richtig""-Screen",canvas.Screen,3_0_4_0_0_0_1,NA,NA,skipped,NA,2444101.9000001,NA,NA,2444099.3000001,2444102.1,2023-03-25T15:55:23Z,2444100.547,NULL,Wechsel,ugeuzaji,d,NA,NA,NA,NA,sd,NA,4,NA,NA,NA,NA,NA,NA,NA,NA,NA,NA,NA,NA,NA,NA,NA,NA,NA,NA,NA
ca79d,"""Falsch""-Screen",canvas.Screen,3_0_4_0_0_0_2,NA,NA,timeout,5000.1720000003,2444102.8000001,2444084.582,2444100.547,2449084.095,2449085,2023-03-25T15:55:28Z,2449100.719,NULL,Wechsel,ugeuzaji,d,NA,NA,NA,NA,sd,0,4,NA,NA,NA,NA,NA,NA,NA,NA,NA,NA,NA,NA,NA,NA,NA,NA,NA,NA,NA
ca79d,deep,flow.Sequence,3_0_4_0_0_0,NA,NA,completion,13682.916,2435395.5,2435384.983,2435401.179,2449084.095,2449085.4000001,2023-03-25T15:55:28Z,2449100.719,NULL,Wechsel,ugeuzaji,d,NA,NA,NA,NA,sd,NA,4,NA,NA,NA,NA,NA,NA,NA,NA,NA,NA,NA,NA,NA,NA,NA,NA,NA,NA,NA
ca79d,shallow,flow.Sequence,3_0_4_0_0_1,NA,NA,skipped,NA,2449085.6,NA,NA,2449084.095,2449085.8000001,2023-03-25T15:55:28Z,2449100.719,NULL,Wechsel,ugeuzaji,d,NA,NA,NA,NA,sd,NA,4,NA,NA,NA,NA,NA,NA,NA,NA,NA,NA,NA,NA,NA,NA,NA,NA,NA,NA,NA
ca79d,task,flow.Sequence,3_0_4_0_0,NA,NA,completion,13682.916,2435395.5,2435384.983,2435401.179,2449084.095,2449086,2023-03-25T15:55:28Z,2449100.719,NULL,Wechsel,ugeuzaji,d,NA,NA,NA,NA,sd,NA,4,NA,NA,NA,NA,NA,NA,NA,NA,NA,NA,NA,NA,NA,NA,NA,NA,NA,NA,NA
ca79d,deep,flow.Sequence,3_0_4_0_1_0,NA,NA,skipped,NA,2449086.3000001,NA,NA,2449084.095,2449086.5,2023-03-25T15:55:28Z,2449100.719,NULL,Atmosphäre,angahewa,s,kuteseka,usahihi,kutoamini,NA,sd,NA,4,NA,NA,NA,NA,NA,NA,NA,NA,NA,NA,NA,NA,NA,NA,NA,NA,NA,NA,NA
ca79d,Shallow Question,html.Page,3_0_4_0_1_1_0,NA,NA,form submission,5583.5810000715,2449086.8000001,2449084.095,2449100.719,2454684.3000001,2454684.5,2023-03-25T15:55:34Z,2454716.942,NULL,Atmosphäre,angahewa,s,kuteseka,usahihi,kutoamini,angahewa,NA,NA,4,NA,NA,NA,NA,NA,NA,NA,NA,NA,NA,NA,NA,NA,NA,NA,NA,NA,NA,NA
ca79d,"""Richtig""-Screen",canvas.Screen,3_0_4_0_1_1_1,NA,NA,timeout,4999.094,2454686.7,2454700.385,2454716.942,2459699.909,2459700.9000001,2023-03-25T15:55:39Z,2459716.036,NULL,Atmosphäre,angahewa,s,kuteseka,usahihi,kutoamini,NA,sd,1,4,NA,NA,NA,NA,NA,NA,NA,NA,NA,NA,NA,NA,NA,NA,NA,NA,NA,NA,NA
ca79d,"""Falsch""-Screen",canvas.Screen,3_0_4_0_1_1_2,NA,NA,skipped,NA,2459707.2,NA,NA,2459699.909,2459707.5,2023-03-25T15:55:39Z,2459716.036,NULL,Atmosphäre,angahewa,s,kuteseka,usahihi,kutoamini,NA,sd,NA,4,NA,NA,NA,NA,NA,NA,NA,NA,NA,NA,NA,NA,NA,NA,NA,NA,NA,NA,NA
ca79d,shallow,flow.Sequence,3_0_4_0_1_1,NA,NA,completion,10599.19,2449086.7,2449084.095,2449100.719,2459699.909,2459708.1,2023-03-25T15:55:39Z,2459716.036,NULL,Atmosphäre,angahewa,s,kuteseka,usahihi,kutoamini,NA,sd,NA,4,NA,NA,NA,NA,NA,NA,NA,NA,NA,NA,NA,NA,NA,NA,NA,NA,NA,NA,NA
ca79d,task,flow.Sequence,3_0_4_0_1,NA,NA,completion,10599.19,2449086.2,2449084.095,2449100.719,2459699.909,2459708.3000001,2023-03-25T15:55:39Z,2459716.036,NULL,Atmosphäre,angahewa,s,kuteseka,usahihi,kutoamini,NA,sd,NA,4,NA,NA,NA,NA,NA,NA,NA,NA,NA,NA,NA,NA,NA,NA,NA,NA,NA,NA,NA
ca79d,Deep Question,html.Page,3_0_4_0_2_0_0,NA,NA,form submission,9592.1640000478,2459708.7,2459699.909,2459716.036,2469308.2,2469308.4000001,2023-03-25T15:55:48Z,2469315.311,NULL,Erneuerung,ukarabati,d,NA,NA,NA,ugeuji,NA,NA,4,NA,NA,NA,NA,NA,NA,NA,NA,NA,NA,NA,NA,NA,NA,NA,NA,NA,NA,NA
ca79d,"""Richtig""-Screen",canvas.Screen,3_0_4_0_2_0_1,NA,NA,skipped,NA,2469310.8000001,NA,NA,2469308.2,2469310.9000001,2023-03-25T15:55:48Z,2469315.311,NULL,Erneuerung,ukarabati,d,NA,NA,NA,NA,sd,NA,4,NA,NA,NA,NA,NA,NA,NA,NA,NA,NA,NA,NA,NA,NA,NA,NA,NA,NA,NA
ca79d,"""Falsch""-Screen",canvas.Screen,3_0_4_0_2_0_2,NA,NA,timeout,4999.6399999997,2469311.7,2469299.28,2469315.311,2474298.544,2474299.5,2023-03-25T15:55:53Z,2474314.951,NULL,Erneuerung,ukarabati,d,NA,NA,NA,NA,sd,0,4,NA,NA,NA,NA,NA,NA,NA,NA,NA,NA,NA,NA,NA,NA,NA,NA,NA,NA,NA
ca79d,deep,flow.Sequence,3_0_4_0_2_0,NA,NA,completion,14582.508,2459708.5,2459699.909,2459716.036,2474298.544,2474300,2023-03-25T15:55:53Z,2474314.951,NULL,Erneuerung,ukarabati,d,NA,NA,NA,NA,sd,NA,4,NA,NA,NA,NA,NA,NA,NA,NA,NA,NA,NA,NA,NA,NA,NA,NA,NA,NA,NA
ca79d,shallow,flow.Sequence,3_0_4_0_2_1,NA,NA,skipped,NA,2474300.2,NA,NA,2474298.544,2474300.4000001,2023-03-25T15:55:53Z,2474314.951,NULL,Erneuerung,ukarabati,d,NA,NA,NA,NA,sd,NA,4,NA,NA,NA,NA,NA,NA,NA,NA,NA,NA,NA,NA,NA,NA,NA,NA,NA,NA,NA
ca79d,task,flow.Sequence,3_0_4_0_2,NA,NA,completion,14582.508,2459708.5,2459699.909,2459716.036,2474298.544,2474300.7,2023-03-25T15:55:53Z,2474314.951,NULL,Erneuerung,ukarabati,d,NA,NA,NA,NA,sd,NA,4,NA,NA,NA,NA,NA,NA,NA,NA,NA,NA,NA,NA,NA,NA,NA,NA,NA,NA,NA
ca79d,deep,flow.Sequence,3_0_4_0_3_0,NA,NA,skipped,NA,2474300.8000001,NA,NA,2474298.544,2474301,2023-03-25T15:55:53Z,2474314.951,NULL,Schock,mshtuko,s,biashara,kukataza,vichekesho,NA,sd,NA,4,NA,NA,NA,NA,NA,NA,NA,NA,NA,NA,NA,NA,NA,NA,NA,NA,NA,NA,NA
ca79d,Shallow Question,html.Page,3_0_4_0_3_1_0,NA,NA,form submission,4544.149000024,2474301.2,2474298.544,2474314.951,2478859.1,2478859.2,2023-03-25T15:55:58Z,2478864.604,NULL,Schock,mshtuko,s,biashara,kukataza,vichekesho,mshtuko,NA,NA,4,NA,NA,NA,NA,NA,NA,NA,NA,NA,NA,NA,NA,NA,NA,NA,NA,NA,NA,NA
ca79d,"""Richtig""-Screen",canvas.Screen,3_0_4_0_3_1_1,NA,NA,timeout,4999.8630000004,2478861.5,2478848.305,2478864.604,2483848.047,2483849,2023-03-25T15:56:03Z,2483864.467,NULL,Schock,mshtuko,s,biashara,kukataza,vichekesho,NA,sd,1,4,NA,NA,NA,NA,NA,NA,NA,NA,NA,NA,NA,NA,NA,NA,NA,NA,NA,NA,NA
ca79d,"""Falsch""-Screen",canvas.Screen,3_0_4_0_3_1_2,NA,NA,skipped,NA,2483855.8000001,NA,NA,2483848.047,2483856.2,2023-03-25T15:56:03Z,2483864.467,NULL,Schock,mshtuko,s,biashara,kukataza,vichekesho,NA,sd,NA,4,NA,NA,NA,NA,NA,NA,NA,NA,NA,NA,NA,NA,NA,NA,NA,NA,NA,NA,NA
ca79d,shallow,flow.Sequence,3_0_4_0_3_1,NA,NA,completion,9533.0959999999,2474301.1,2474298.544,2474314.951,2483848.047,2483856.5,2023-03-25T15:56:03Z,2483864.467,NULL,Schock,mshtuko,s,biashara,kukataza,vichekesho,NA,sd,NA,4,NA,NA,NA,NA,NA,NA,NA,NA,NA,NA,NA,NA,NA,NA,NA,NA,NA,NA,NA
ca79d,task,flow.Sequence,3_0_4_0_3,NA,NA,completion,9533.0959999999,2474300.8000001,2474298.544,2474314.951,2483848.047,2483856.7,2023-03-25T15:56:03Z,2483864.467,NULL,Schock,mshtuko,s,biashara,kukataza,vichekesho,NA,sd,NA,4,NA,NA,NA,NA,NA,NA,NA,NA,NA,NA,NA,NA,NA,NA,NA,NA,NA,NA,NA
ca79d,deep,flow.Sequence,3_0_4_0_4_0,NA,NA,skipped,NA,2483856.8000001,NA,NA,2483848.047,2483856.9000001,2023-03-25T15:56:03Z,2483864.467,NULL,Flexibilität,kubadilika,s,enjini,usikilivu,hesabu,NA,sd,NA,4,NA,NA,NA,NA,NA,NA,NA,NA,NA,NA,NA,NA,NA,NA,NA,NA,NA,NA,NA
ca79d,Shallow Question,html.Page,3_0_4_0_4_1_0,NA,NA,form submission,8703.5329999998,2483857.1,2483848.047,2483864.467,2492568,2492568.2,2023-03-25T15:56:12Z,2492580.866,NULL,Flexibilität,kubadilika,s,enjini,usikilivu,hesabu,kubadilika,NA,NA,4,NA,NA,NA,NA,NA,NA,NA,NA,NA,NA,NA,NA,NA,NA,NA,NA,NA,NA,NA
ca79d,"""Richtig""-Screen",canvas.Screen,3_0_4_0_4_1_1,NA,NA,timeout,4999.682,2492570.5,2492563.507,2492580.866,2497563.422,2497564.3000001,2023-03-25T15:56:17Z,2497580.548,NULL,Flexibilität,kubadilika,s,enjini,usikilivu,hesabu,NA,sd,1,4,NA,NA,NA,NA,NA,NA,NA,NA,NA,NA,NA,NA,NA,NA,NA,NA,NA,NA,NA
ca79d,"""Falsch""-Screen",canvas.Screen,3_0_4_0_4_1_2,NA,NA,skipped,NA,2497569.1,NA,NA,2497563.422,2497569.2,2023-03-25T15:56:17Z,2497580.548,NULL,Flexibilität,kubadilika,s,enjini,usikilivu,hesabu,NA,sd,NA,4,NA,NA,NA,NA,NA,NA,NA,NA,NA,NA,NA,NA,NA,NA,NA,NA,NA,NA,NA
ca79d,shallow,flow.Sequence,3_0_4_0_4_1,NA,NA,completion,13698.955,2483857,2483848.047,2483864.467,2497563.422,2497569.3000001,2023-03-25T15:56:17Z,2497580.548,NULL,Flexibilität,kubadilika,s,enjini,usikilivu,hesabu,NA,sd,NA,4,NA,NA,NA,NA,NA,NA,NA,NA,NA,NA,NA,NA,NA,NA,NA,NA,NA,NA,NA
ca79d,task,flow.Sequence,3_0_4_0_4,NA,NA,completion,13698.955,2483856.8000001,2483848.047,2483864.467,2497563.422,2497569.4000001,2023-03-25T15:56:17Z,2497580.548,NULL,Flexibilität,kubadilika,s,enjini,usikilivu,hesabu,NA,sd,NA,4,NA,NA,NA,NA,NA,NA,NA,NA,NA,NA,NA,NA,NA,NA,NA,NA,NA,NA,NA
ca79d,deep,flow.Sequence,3_0_4_0_5_0,NA,NA,skipped,NA,2497569.5,NA,NA,2497563.422,2497569.6,2023-03-25T15:56:17Z,2497580.548,NULL,Theorie,nadharia,s,ushungi,mkutano,uwakilishi,NA,sd,NA,4,NA,NA,NA,NA,NA,NA,NA,NA,NA,NA,NA,NA,NA,NA,NA,NA,NA,NA,NA
ca79d,Shallow Question,html.Page,3_0_4_0_5_1_0,NA,NA,form submission,6687.0520000239,2497569.6,2497563.422,2497580.548,2504267.6,2504267.8000001,2023-03-25T15:56:23Z,2504279.947,NULL,Theorie,nadharia,s,ushungi,mkutano,uwakilishi,nadharia,NA,NA,4,NA,NA,NA,NA,NA,NA,NA,NA,NA,NA,NA,NA,NA,NA,NA,NA,NA,NA,NA
ca79d,"""Richtig""-Screen",canvas.Screen,3_0_4_0_5_1_1,NA,NA,timeout,4999.1149999998,2504270.5,2504262.982,2504279.947,2509262.927,2509263.8000001,2023-03-25T15:56:28Z,2509279.062,NULL,Theorie,nadharia,s,ushungi,mkutano,uwakilishi,NA,sd,1,4,NA,NA,NA,NA,NA,NA,NA,NA,NA,NA,NA,NA,NA,NA,NA,NA,NA,NA,NA
ca79d,"""Falsch""-Screen",canvas.Screen,3_0_4_0_5_1_2,NA,NA,skipped,NA,2509270,NA,NA,2509262.927,2509270.3000001,2023-03-25T15:56:28Z,2509279.062,NULL,Theorie,nadharia,s,ushungi,mkutano,uwakilishi,NA,sd,NA,4,NA,NA,NA,NA,NA,NA,NA,NA,NA,NA,NA,NA,NA,NA,NA,NA,NA,NA,NA
ca79d,shallow,flow.Sequence,3_0_4_0_5_1,NA,NA,completion,11682.379,2497569.6,2497563.422,2497580.548,2509262.927,2509270.7,2023-03-25T15:56:28Z,2509279.062,NULL,Theorie,nadharia,s,ushungi,mkutano,uwakilishi,NA,sd,NA,4,NA,NA,NA,NA,NA,NA,NA,NA,NA,NA,NA,NA,NA,NA,NA,NA,NA,NA,NA
ca79d,task,flow.Sequence,3_0_4_0_5,NA,NA,completion,11682.379,2497569.5,2497563.422,2497580.548,2509262.927,2509270.9000001,2023-03-25T15:56:28Z,2509279.062,NULL,Theorie,nadharia,s,ushungi,mkutano,uwakilishi,NA,sd,NA,4,NA,NA,NA,NA,NA,NA,NA,NA,NA,NA,NA,NA,NA,NA,NA,NA,NA,NA,NA
ca79d,Deep Question,html.Page,3_0_4_0_6_0_0,NA,NA,form submission,15946.638000048,2509271.2,2509262.927,2509279.062,2525225.7,2525225.8000001,2023-03-25T15:56:44Z,2525227.835,NULL,Verpackung,ufungaji,d,NA,NA,NA,masharji,NA,NA,4,NA,NA,NA,NA,NA,NA,NA,NA,NA,NA,NA,NA,NA,NA,NA,NA,NA,NA,NA
ca79d,"""Richtig""-Screen",canvas.Screen,3_0_4_0_6_0_1,NA,NA,skipped,NA,2525229,NA,NA,2525225.7,2525229.2,2023-03-25T15:56:44Z,2525227.835,NULL,Verpackung,ufungaji,d,NA,NA,NA,NA,sd,NA,4,NA,NA,NA,NA,NA,NA,NA,NA,NA,NA,NA,NA,NA,NA,NA,NA,NA,NA,NA
ca79d,"""Falsch""-Screen",canvas.Screen,3_0_4_0_6_0_2,NA,NA,timeout,5000.2140000002,2525229.9000001,2525211.842,2525227.835,2530211.371,2530212,2023-03-25T15:56:49Z,2530228.049,NULL,Verpackung,ufungaji,d,NA,NA,NA,NA,sd,0,4,NA,NA,NA,NA,NA,NA,NA,NA,NA,NA,NA,NA,NA,NA,NA,NA,NA,NA,NA
ca79d,deep,flow.Sequence,3_0_4_0_6_0,NA,NA,completion,20932.309,2509271.2,2509262.927,2509279.062,2530211.371,2530212.2,2023-03-25T15:56:49Z,2530228.049,NULL,Verpackung,ufungaji,d,NA,NA,NA,NA,sd,NA,4,NA,NA,NA,NA,NA,NA,NA,NA,NA,NA,NA,NA,NA,NA,NA,NA,NA,NA,NA
ca79d,shallow,flow.Sequence,3_0_4_0_6_1,NA,NA,skipped,NA,2530212.3000001,NA,NA,2530211.371,2530212.5,2023-03-25T15:56:49Z,2530228.049,NULL,Verpackung,ufungaji,d,NA,NA,NA,NA,sd,NA,4,NA,NA,NA,NA,NA,NA,NA,NA,NA,NA,NA,NA,NA,NA,NA,NA,NA,NA,NA
ca79d,task,flow.Sequence,3_0_4_0_6,NA,NA,completion,20932.309,2509271.2,2509262.927,2509279.062,2530211.371,2530212.5,2023-03-25T15:56:49Z,2530228.049,NULL,Verpackung,ufungaji,d,NA,NA,NA,NA,sd,NA,4,NA,NA,NA,NA,NA,NA,NA,NA,NA,NA,NA,NA,NA,NA,NA,NA,NA,NA,NA
ca79d,Deep Question,html.Page,3_0_4_0_7_0_0,NA,NA,form submission,7825.6510000476,2530212.8000001,2530211.371,2530228.049,2538053.7,2538053.9000001,2023-03-25T15:56:57Z,2538060.156,NULL,Hoffnung,matarajio,d,NA,NA,NA,mataraji,NA,NA,4,NA,NA,NA,NA,NA,NA,NA,NA,NA,NA,NA,NA,NA,NA,NA,NA,NA,NA,NA
ca79d,"""Richtig""-Screen",canvas.Screen,3_0_4_0_7_0_1,NA,NA,skipped,NA,2538056.3000001,NA,NA,2538053.7,2538056.6,2023-03-25T15:56:57Z,2538060.156,NULL,Hoffnung,matarajio,d,NA,NA,NA,NA,sd,NA,4,NA,NA,NA,NA,NA,NA,NA,NA,NA,NA,NA,NA,NA,NA,NA,NA,NA,NA,NA
ca79d,"""Falsch""-Screen",canvas.Screen,3_0_4_0_7_0_2,NA,NA,timeout,4999.952,2538057.2,2538043.68,2538060.156,2543043.305,2543044.3000001,2023-03-25T15:57:02Z,2543060.108,NULL,Hoffnung,matarajio,d,NA,NA,NA,NA,sd,0,4,NA,NA,NA,NA,NA,NA,NA,NA,NA,NA,NA,NA,NA,NA,NA,NA,NA,NA,NA
ca79d,deep,flow.Sequence,3_0_4_0_7_0,NA,NA,completion,12815.256,2530212.7,2530211.371,2530228.049,2543043.305,2543044.8000001,2023-03-25T15:57:02Z,2543060.108,NULL,Hoffnung,matarajio,d,NA,NA,NA,NA,sd,NA,4,NA,NA,NA,NA,NA,NA,NA,NA,NA,NA,NA,NA,NA,NA,NA,NA,NA,NA,NA
ca79d,shallow,flow.Sequence,3_0_4_0_7_1,NA,NA,skipped,NA,2543045,NA,NA,2543043.305,2543045.1,2023-03-25T15:57:02Z,2543060.108,NULL,Hoffnung,matarajio,d,NA,NA,NA,NA,sd,NA,4,NA,NA,NA,NA,NA,NA,NA,NA,NA,NA,NA,NA,NA,NA,NA,NA,NA,NA,NA
ca79d,task,flow.Sequence,3_0_4_0_7,NA,NA,completion,12815.256,2530212.7,2530211.371,2530228.049,2543043.305,2543045.4000001,2023-03-25T15:57:02Z,2543060.108,NULL,Hoffnung,matarajio,d,NA,NA,NA,NA,sd,NA,4,NA,NA,NA,NA,NA,NA,NA,NA,NA,NA,NA,NA,NA,NA,NA,NA,NA,NA,NA
ca79d,block,flow.Loop,3_0_4_0,NA,NA,completion,107642.126,2435395.5,2435384.983,2435401.179,2543043.305,2543045.7,2023-03-25T15:57:02Z,2543060.108,NULL,NA,NA,NA,NA,NA,NA,NA,sd,NA,4,NA,NA,NA,NA,NA,NA,NA,NA,NA,NA,NA,NA,NA,NA,NA,NA,NA,NA,NA
ca79d,weiter,canvas.Screen,3_0_4_1,sdf,keypress(Space),response,1496.7920000954,2543045.9000001,2543043.305,2543060.108,2544556.9000001,2544558.1,2023-03-25T15:57:04Z,2544593.031,NULL,NA,NA,NA,NA,NA,NA,NA,sd,NA,4,NA,NA,NA,NA,NA,NA,NA,NA,NA,NA,NA,NA,NA,NA,NA,NA,NA,NA,NA
ca79d,check continue,flow.Sequence,3_0_4,NA,NA,completion,109155.7210001,2435395.4000001,2435384.983,2435401.179,2544556.9000001,2544558.4000001,2023-03-25T15:57:04Z,2544593.031,NULL,NA,NA,NA,NA,NA,NA,NA,sd,NA,4,NA,NA,NA,NA,NA,NA,NA,NA,NA,NA,NA,NA,NA,NA,NA,NA,NA,NA,NA
ca79d,Deep Question,html.Page,3_0_5_0_0_0_0,NA,NA,form submission,16338.769000072,2544591.2,2544576.904,2544593.031,2560931.8000001,2560932.1,2023-03-25T15:57:20Z,2560941.876,NULL,Verpackung,ufungaji,d,NA,NA,NA,ufungaji,NA,NA,5,NA,NA,NA,NA,NA,NA,NA,NA,NA,NA,NA,NA,NA,NA,NA,NA,NA,NA,NA
ca79d,"""Richtig""-Screen",canvas.Screen,3_0_5_0_0_0_1,NA,NA,timeout,5000.1869999999,2560934.4000001,2560925.195,2560941.876,2565925.057,2565926.2,2023-03-25T15:57:25Z,2565942.063,NULL,Verpackung,ufungaji,d,NA,NA,NA,NA,sdf,1,5,NA,NA,NA,NA,NA,NA,NA,NA,NA,NA,NA,NA,NA,NA,NA,NA,NA,NA,NA
ca79d,"""Falsch""-Screen",canvas.Screen,3_0_5_0_0_0_2,NA,NA,skipped,NA,2565930.9000001,NA,NA,2565925.057,2565931.1,2023-03-25T15:57:25Z,2565942.063,NULL,Verpackung,ufungaji,d,NA,NA,NA,NA,sdf,NA,5,NA,NA,NA,NA,NA,NA,NA,NA,NA,NA,NA,NA,NA,NA,NA,NA,NA,NA,NA
ca79d,deep,flow.Sequence,3_0_5_0_0_0,NA,NA,completion,21332.026,2544591.2,2544576.904,2544593.031,2565925.057,2565931.3000001,2023-03-25T15:57:25Z,2565942.063,NULL,Verpackung,ufungaji,d,NA,NA,NA,NA,sdf,NA,5,NA,NA,NA,NA,NA,NA,NA,NA,NA,NA,NA,NA,NA,NA,NA,NA,NA,NA,NA
ca79d,shallow,flow.Sequence,3_0_5_0_0_1,NA,NA,skipped,NA,2565931.3000001,NA,NA,2565925.057,2565931.4000001,2023-03-25T15:57:25Z,2565942.063,NULL,Verpackung,ufungaji,d,NA,NA,NA,NA,sdf,NA,5,NA,NA,NA,NA,NA,NA,NA,NA,NA,NA,NA,NA,NA,NA,NA,NA,NA,NA,NA
ca79d,task,flow.Sequence,3_0_5_0_0,NA,NA,completion,21332.026,2544591.2,2544576.904,2544593.031,2565925.057,2565931.4000001,2023-03-25T15:57:25Z,2565942.063,NULL,Verpackung,ufungaji,d,NA,NA,NA,NA,sdf,NA,5,NA,NA,NA,NA,NA,NA,NA,NA,NA,NA,NA,NA,NA,NA,NA,NA,NA,NA,NA
ca79d,Deep Question,html.Page,3_0_5_0_1_0_0,NA,NA,form submission,19138.337000095,2565931.5,2565925.057,2565942.063,2585080.4000001,2585080.7,2023-03-25T15:57:44Z,2585090.054,NULL,Erneuerung,ukarabati,d,NA,NA,NA,ugazaji,NA,NA,5,NA,NA,NA,NA,NA,NA,NA,NA,NA,NA,NA,NA,NA,NA,NA,NA,NA,NA,NA
ca79d,"""Richtig""-Screen",canvas.Screen,3_0_5_0_1_0_1,NA,NA,skipped,NA,2585083,NA,NA,2585080.4000001,2585083,2023-03-25T15:57:44Z,2585090.054,NULL,Erneuerung,ukarabati,d,NA,NA,NA,NA,sdf,NA,5,NA,NA,NA,NA,NA,NA,NA,NA,NA,NA,NA,NA,NA,NA,NA,NA,NA,NA,NA
ca79d,"""Falsch""-Screen",canvas.Screen,3_0_5_0_1_0_2,NA,NA,timeout,5000.0260000001,2585083.8000001,2585073.736,2585090.054,2590073.558,2590074.5,2023-03-25T15:57:49Z,2590090.08,NULL,Erneuerung,ukarabati,d,NA,NA,NA,NA,sdf,0,5,NA,NA,NA,NA,NA,NA,NA,NA,NA,NA,NA,NA,NA,NA,NA,NA,NA,NA,NA
ca79d,deep,flow.Sequence,3_0_5_0_1_0,NA,NA,completion,24131.495,2565931.5,2565925.057,2565942.063,2590073.558,2590074.9000001,2023-03-25T15:57:49Z,2590090.08,NULL,Erneuerung,ukarabati,d,NA,NA,NA,NA,sdf,NA,5,NA,NA,NA,NA,NA,NA,NA,NA,NA,NA,NA,NA,NA,NA,NA,NA,NA,NA,NA
ca79d,shallow,flow.Sequence,3_0_5_0_1_1,NA,NA,skipped,NA,2590075,NA,NA,2590073.558,2590075.3000001,2023-03-25T15:57:49Z,2590090.08,NULL,Erneuerung,ukarabati,d,NA,NA,NA,NA,sdf,NA,5,NA,NA,NA,NA,NA,NA,NA,NA,NA,NA,NA,NA,NA,NA,NA,NA,NA,NA,NA
ca79d,task,flow.Sequence,3_0_5_0_1,NA,NA,completion,24131.495,2565931.5,2565925.057,2565942.063,2590073.558,2590075.7,2023-03-25T15:57:49Z,2590090.08,NULL,Erneuerung,ukarabati,d,NA,NA,NA,NA,sdf,NA,5,NA,NA,NA,NA,NA,NA,NA,NA,NA,NA,NA,NA,NA,NA,NA,NA,NA,NA,NA
ca79d,deep,flow.Sequence,3_0_5_0_2_0,NA,NA,skipped,NA,2590075.8000001,NA,NA,2590073.558,2590076,2023-03-25T15:57:49Z,2590090.08,NULL,Flexibilität,kubadilika,s,enjini,usikilivu,hesabu,NA,sdf,NA,5,NA,NA,NA,NA,NA,NA,NA,NA,NA,NA,NA,NA,NA,NA,NA,NA,NA,NA,NA
ca79d,Shallow Question,html.Page,3_0_5_0_2_1_0,NA,NA,form submission,9288.7200000715,2590076.2,2590073.558,2590090.08,2599378.8000001,2599379.1,2023-03-25T15:57:58Z,2599389.271,NULL,Flexibilität,kubadilika,s,enjini,usikilivu,hesabu,kubadilika,NA,NA,5,NA,NA,NA,NA,NA,NA,NA,NA,NA,NA,NA,NA,NA,NA,NA,NA,NA,NA,NA
ca79d,"""Richtig""-Screen",canvas.Screen,3_0_5_0_2_1_1,NA,NA,timeout,4999.361,2599381.3000001,2599372.334,2599389.271,2604372.072,2604373.2,2023-03-25T15:58:03Z,2604388.632,NULL,Flexibilität,kubadilika,s,enjini,usikilivu,hesabu,NA,sdf,1,5,NA,NA,NA,NA,NA,NA,NA,NA,NA,NA,NA,NA,NA,NA,NA,NA,NA,NA,NA
ca79d,"""Falsch""-Screen",canvas.Screen,3_0_5_0_2_1_2,NA,NA,skipped,NA,2604380.2,NA,NA,2604372.072,2604380.6,2023-03-25T15:58:03Z,2604388.632,NULL,Flexibilität,kubadilika,s,enjini,usikilivu,hesabu,NA,sdf,NA,5,NA,NA,NA,NA,NA,NA,NA,NA,NA,NA,NA,NA,NA,NA,NA,NA,NA,NA,NA
ca79d,shallow,flow.Sequence,3_0_5_0_2_1,NA,NA,completion,14281.992,2590076.1,2590073.558,2590090.08,2604372.072,2604380.9000001,2023-03-25T15:58:03Z,2604388.632,NULL,Flexibilität,kubadilika,s,enjini,usikilivu,hesabu,NA,sdf,NA,5,NA,NA,NA,NA,NA,NA,NA,NA,NA,NA,NA,NA,NA,NA,NA,NA,NA,NA,NA
ca79d,task,flow.Sequence,3_0_5_0_2,NA,NA,completion,14281.992,2590075.8000001,2590073.558,2590090.08,2604372.072,2604381.3000001,2023-03-25T15:58:03Z,2604388.632,NULL,Flexibilität,kubadilika,s,enjini,usikilivu,hesabu,NA,sdf,NA,5,NA,NA,NA,NA,NA,NA,NA,NA,NA,NA,NA,NA,NA,NA,NA,NA,NA,NA,NA
ca79d,deep,flow.Sequence,3_0_5_0_3_0,NA,NA,skipped,NA,2604381.5,NA,NA,2604372.072,2604381.7,2023-03-25T15:58:03Z,2604388.632,NULL,Theorie,nadharia,s,ushungi,mkutano,uwakilishi,NA,sdf,NA,5,NA,NA,NA,NA,NA,NA,NA,NA,NA,NA,NA,NA,NA,NA,NA,NA,NA,NA,NA
ca79d,Shallow Question,html.Page,3_0_5_0_3_1_0,NA,NA,form submission,8395.6680000713,2604381.9000001,2604372.072,2604388.632,2612784.3000001,2612784.5,2023-03-25T15:58:12Z,2612787.905,NULL,Theorie,nadharia,s,ushungi,mkutano,uwakilishi,nadharia,NA,NA,5,NA,NA,NA,NA,NA,NA,NA,NA,NA,NA,NA,NA,NA,NA,NA,NA,NA,NA,NA
ca79d,"""Richtig""-Screen",canvas.Screen,3_0_5_0_3_1_1,NA,NA,timeout,4999.6860000002,2612786.8000001,2612771.68,2612787.905,2617770.909,2617771.5,2023-03-25T15:58:17Z,2617787.591,NULL,Theorie,nadharia,s,ushungi,mkutano,uwakilishi,NA,sdf,1,5,NA,NA,NA,NA,NA,NA,NA,NA,NA,NA,NA,NA,NA,NA,NA,NA,NA,NA,NA
ca79d,"""Falsch""-Screen",canvas.Screen,3_0_5_0_3_1_2,NA,NA,skipped,NA,2617774.9000001,NA,NA,2617770.909,2617775.1,2023-03-25T15:58:17Z,2617787.591,NULL,Theorie,nadharia,s,ushungi,mkutano,uwakilishi,NA,sdf,NA,5,NA,NA,NA,NA,NA,NA,NA,NA,NA,NA,NA,NA,NA,NA,NA,NA,NA,NA,NA
ca79d,shallow,flow.Sequence,3_0_5_0_3_1,NA,NA,completion,13382.277,2604381.9000001,2604372.072,2604388.632,2617770.909,2617775.2,2023-03-25T15:58:17Z,2617787.591,NULL,Theorie,nadharia,s,ushungi,mkutano,uwakilishi,NA,sdf,NA,5,NA,NA,NA,NA,NA,NA,NA,NA,NA,NA,NA,NA,NA,NA,NA,NA,NA,NA,NA
ca79d,task,flow.Sequence,3_0_5_0_3,NA,NA,completion,13382.277,2604381.4000001,2604372.072,2604388.632,2617770.909,2617775.4000001,2023-03-25T15:58:17Z,2617787.591,NULL,Theorie,nadharia,s,ushungi,mkutano,uwakilishi,NA,sdf,NA,5,NA,NA,NA,NA,NA,NA,NA,NA,NA,NA,NA,NA,NA,NA,NA,NA,NA,NA,NA
ca79d,Deep Question,html.Page,3_0_5_0_4_0_0,NA,NA,form submission,10772.909,2617775.5,2617770.909,2617787.591,2628560.5,2628560.7,2023-03-25T15:58:28Z,2628570.258,NULL,Wechsel,ugeuzaji,d,NA,NA,NA,ufangaji,NA,NA,5,NA,NA,NA,NA,NA,NA,NA,NA,NA,NA,NA,NA,NA,NA,NA,NA,NA,NA,NA
ca79d,"""Richtig""-Screen",canvas.Screen,3_0_5_0_4_0_1,NA,NA,skipped,NA,2628563,NA,NA,2628560.5,2628563.2,2023-03-25T15:58:28Z,2628570.258,NULL,Wechsel,ugeuzaji,d,NA,NA,NA,NA,sdf,NA,5,NA,NA,NA,NA,NA,NA,NA,NA,NA,NA,NA,NA,NA,NA,NA,NA,NA,NA,NA
ca79d,"""Falsch""-Screen",canvas.Screen,3_0_5_0_4_0_2,NA,NA,timeout,4999.9100000001,2628563.8000001,2628554.127,2628570.258,2633553.603,2633554.5,2023-03-25T15:58:33Z,2633570.168,NULL,Wechsel,ugeuzaji,d,NA,NA,NA,NA,sdf,0,5,NA,NA,NA,NA,NA,NA,NA,NA,NA,NA,NA,NA,NA,NA,NA,NA,NA,NA,NA
ca79d,deep,flow.Sequence,3_0_5_0_4_0,NA,NA,completion,15766.012,2617775.4000001,2617770.909,2617787.591,2633553.603,2633555,2023-03-25T15:58:33Z,2633570.168,NULL,Wechsel,ugeuzaji,d,NA,NA,NA,NA,sdf,NA,5,NA,NA,NA,NA,NA,NA,NA,NA,NA,NA,NA,NA,NA,NA,NA,NA,NA,NA,NA
ca79d,shallow,flow.Sequence,3_0_5_0_4_1,NA,NA,skipped,NA,2633555.1,NA,NA,2633553.603,2633555.3000001,2023-03-25T15:58:33Z,2633570.168,NULL,Wechsel,ugeuzaji,d,NA,NA,NA,NA,sdf,NA,5,NA,NA,NA,NA,NA,NA,NA,NA,NA,NA,NA,NA,NA,NA,NA,NA,NA,NA,NA
ca79d,task,flow.Sequence,3_0_5_0_4,NA,NA,completion,15766.012,2617775.4000001,2617770.909,2617787.591,2633553.603,2633555.6,2023-03-25T15:58:33Z,2633570.168,NULL,Wechsel,ugeuzaji,d,NA,NA,NA,NA,sdf,NA,5,NA,NA,NA,NA,NA,NA,NA,NA,NA,NA,NA,NA,NA,NA,NA,NA,NA,NA,NA
ca79d,deep,flow.Sequence,3_0_5_0_5_0,NA,NA,skipped,NA,2633555.8000001,NA,NA,2633553.603,2633555.9000001,2023-03-25T15:58:33Z,2633570.168,NULL,Schock,mshtuko,s,biashara,kukataza,vichekesho,NA,sdf,NA,5,NA,NA,NA,NA,NA,NA,NA,NA,NA,NA,NA,NA,NA,NA,NA,NA,NA,NA,NA
ca79d,Shallow Question,html.Page,3_0_5_0_5_1_0,NA,NA,form submission,5476.6320000715,2633556.2,2633553.603,2633570.168,2639046.8000001,2639047,2023-03-25T15:58:38Z,2639052.645,NULL,Schock,mshtuko,s,biashara,kukataza,vichekesho,mshtuko,NA,NA,5,NA,NA,NA,NA,NA,NA,NA,NA,NA,NA,NA,NA,NA,NA,NA,NA,NA,NA,NA
ca79d,"""Richtig""-Screen",canvas.Screen,3_0_5_0_5_1_1,NA,NA,timeout,5000.0249999999,2639049.3000001,2639036.025,2639052.645,2644035.666,2644037.6,2023-03-25T15:58:43Z,2644052.67,NULL,Schock,mshtuko,s,biashara,kukataza,vichekesho,NA,sdf,1,5,NA,NA,NA,NA,NA,NA,NA,NA,NA,NA,NA,NA,NA,NA,NA,NA,NA,NA,NA
ca79d,"""Falsch""-Screen",canvas.Screen,3_0_5_0_5_1_2,NA,NA,skipped,NA,2644042.6,NA,NA,2644035.666,2644042.7,2023-03-25T15:58:43Z,2644052.67,NULL,Schock,mshtuko,s,biashara,kukataza,vichekesho,NA,sdf,NA,5,NA,NA,NA,NA,NA,NA,NA,NA,NA,NA,NA,NA,NA,NA,NA,NA,NA,NA,NA
ca79d,shallow,flow.Sequence,3_0_5_0_5_1,NA,NA,completion,10465.498,2633556.1,2633553.603,2633570.168,2644035.666,2644042.9000001,2023-03-25T15:58:43Z,2644052.67,NULL,Schock,mshtuko,s,biashara,kukataza,vichekesho,NA,sdf,NA,5,NA,NA,NA,NA,NA,NA,NA,NA,NA,NA,NA,NA,NA,NA,NA,NA,NA,NA,NA
ca79d,task,flow.Sequence,3_0_5_0_5,NA,NA,completion,10465.498,2633555.8000001,2633553.603,2633570.168,2644035.666,2644042.9000001,2023-03-25T15:58:43Z,2644052.67,NULL,Schock,mshtuko,s,biashara,kukataza,vichekesho,NA,sdf,NA,5,NA,NA,NA,NA,NA,NA,NA,NA,NA,NA,NA,NA,NA,NA,NA,NA,NA,NA,NA
ca79d,deep,flow.Sequence,3_0_5_0_6_0,NA,NA,skipped,NA,2644043,NA,NA,2644035.666,2644043,2023-03-25T15:58:43Z,2644052.67,NULL,Atmosphäre,angahewa,s,kuteseka,usahihi,kutoamini,NA,sdf,NA,5,NA,NA,NA,NA,NA,NA,NA,NA,NA,NA,NA,NA,NA,NA,NA,NA,NA,NA,NA
ca79d,Shallow Question,html.Page,3_0_5_0_6_1_0,NA,NA,form submission,3771.7300000954,2644043.1,2644035.666,2644052.67,2647824.4000001,2647824.6,2023-03-25T15:58:47Z,2647835.456,NULL,Atmosphäre,angahewa,s,kuteseka,usahihi,kutoamini,angahewa,NA,NA,5,NA,NA,NA,NA,NA,NA,NA,NA,NA,NA,NA,NA,NA,NA,NA,NA,NA,NA,NA
ca79d,"""Richtig""-Screen",canvas.Screen,3_0_5_0_6_1_1,NA,NA,timeout,4999.4700000002,2647826.8000001,2647818.995,2647835.456,2652818.456,2652819.4000001,2023-03-25T15:58:52Z,2652834.926,NULL,Atmosphäre,angahewa,s,kuteseka,usahihi,kutoamini,NA,sdf,1,5,NA,NA,NA,NA,NA,NA,NA,NA,NA,NA,NA,NA,NA,NA,NA,NA,NA,NA,NA
ca79d,"""Falsch""-Screen",canvas.Screen,3_0_5_0_6_1_2,NA,NA,skipped,NA,2652825.8000001,NA,NA,2652818.456,2652826.2,2023-03-25T15:58:52Z,2652834.926,NULL,Atmosphäre,angahewa,s,kuteseka,usahihi,kutoamini,NA,sdf,NA,5,NA,NA,NA,NA,NA,NA,NA,NA,NA,NA,NA,NA,NA,NA,NA,NA,NA,NA,NA
ca79d,shallow,flow.Sequence,3_0_5_0_6_1,NA,NA,completion,8765.7859999998,2644043,2644035.666,2644052.67,2652818.456,2652826.7,2023-03-25T15:58:52Z,2652834.926,NULL,Atmosphäre,angahewa,s,kuteseka,usahihi,kutoamini,NA,sdf,NA,5,NA,NA,NA,NA,NA,NA,NA,NA,NA,NA,NA,NA,NA,NA,NA,NA,NA,NA,NA
ca79d,task,flow.Sequence,3_0_5_0_6,NA,NA,completion,8765.7859999998,2644042.9000001,2644035.666,2644052.67,2652818.456,2652827,2023-03-25T15:58:52Z,2652834.926,NULL,Atmosphäre,angahewa,s,kuteseka,usahihi,kutoamini,NA,sdf,NA,5,NA,NA,NA,NA,NA,NA,NA,NA,NA,NA,NA,NA,NA,NA,NA,NA,NA,NA,NA
ca79d,Deep Question,html.Page,3_0_5_0_7_0_0,NA,NA,form submission,9750.1740000239,2652827.3000001,2652818.456,2652834.926,2662585.1,2662585.2,2023-03-25T15:59:02Z,2662601.504,NULL,Hoffnung,matarajio,d,NA,NA,NA,matarajio,NA,NA,5,NA,NA,NA,NA,NA,NA,NA,NA,NA,NA,NA,NA,NA,NA,NA,NA,NA,NA,NA
ca79d,"""Richtig""-Screen",canvas.Screen,3_0_5_0_7_0_1,NA,NA,timeout,4999.625,2662587.7,2662584.781,2662601.504,2667584.126,2667585.2,2023-03-25T15:59:07Z,2667601.129,NULL,Hoffnung,matarajio,d,NA,NA,NA,NA,sdf,1,5,NA,NA,NA,NA,NA,NA,NA,NA,NA,NA,NA,NA,NA,NA,NA,NA,NA,NA,NA
ca79d,"""Falsch""-Screen",canvas.Screen,3_0_5_0_7_0_2,NA,NA,skipped,NA,2667590.6,NA,NA,2667584.126,2667590.8000001,2023-03-25T15:59:07Z,2667601.129,NULL,Hoffnung,matarajio,d,NA,NA,NA,NA,sdf,NA,5,NA,NA,NA,NA,NA,NA,NA,NA,NA,NA,NA,NA,NA,NA,NA,NA,NA,NA,NA
ca79d,deep,flow.Sequence,3_0_5_0_7_0,NA,NA,completion,14749.2,2652827.2,2652818.456,2652834.926,2667584.126,2667590.9000001,2023-03-25T15:59:07Z,2667601.129,NULL,Hoffnung,matarajio,d,NA,NA,NA,NA,sdf,NA,5,NA,NA,NA,NA,NA,NA,NA,NA,NA,NA,NA,NA,NA,NA,NA,NA,NA,NA,NA
ca79d,shallow,flow.Sequence,3_0_5_0_7_1,NA,NA,skipped,NA,2667591,NA,NA,2667584.126,2667591.1,2023-03-25T15:59:07Z,2667601.129,NULL,Hoffnung,matarajio,d,NA,NA,NA,NA,sdf,NA,5,NA,NA,NA,NA,NA,NA,NA,NA,NA,NA,NA,NA,NA,NA,NA,NA,NA,NA,NA
ca79d,task,flow.Sequence,3_0_5_0_7,NA,NA,completion,14749.2,2652827.1,2652818.456,2652834.926,2667584.126,2667591.1,2023-03-25T15:59:07Z,2667601.129,NULL,Hoffnung,matarajio,d,NA,NA,NA,NA,sdf,NA,5,NA,NA,NA,NA,NA,NA,NA,NA,NA,NA,NA,NA,NA,NA,NA,NA,NA,NA,NA
ca79d,block,flow.Loop,3_0_5_0,NA,NA,completion,122991.095,2544591.1,2544576.904,2544593.031,2667584.126,2667591.3000001,2023-03-25T15:59:07Z,2667601.129,NULL,NA,NA,NA,NA,NA,NA,NA,sdf,NA,5,NA,NA,NA,NA,NA,NA,NA,NA,NA,NA,NA,NA,NA,NA,NA,NA,NA,NA,NA
ca79d,weiter,canvas.Screen,3_0_5_1,sdf,keypress(Space),response,1369.8709999998,2667591.3000001,2667584.126,2667601.129,2668971,2668972.3000001,2023-03-25T15:59:08Z,2669017.692,NULL,NA,NA,NA,NA,NA,NA,NA,sdf,NA,5,NA,NA,NA,NA,NA,NA,NA,NA,NA,NA,NA,NA,NA,NA,NA,NA,NA,NA,NA
ca79d,check continue,flow.Sequence,3_0_5,NA,NA,completion,124377.969,2544591.1,2544576.904,2544593.031,2668971,2668972.9000001,2023-03-25T15:59:08Z,2669017.692,NULL,NA,NA,NA,NA,NA,NA,NA,sdf,NA,5,NA,NA,NA,NA,NA,NA,NA,NA,NA,NA,NA,NA,NA,NA,NA,NA,NA,NA,NA
ca79d,Deep Question,html.Page,3_0_6_0_0_0_0,NA,NA,form submission,4076.2080000956,2669003,2669000.995,2669017.692,2673093.9000001,2673094.2,2023-03-25T15:59:12Z,2673100.047,NULL,Hoffnung,matarajio,d,NA,NA,NA,matarajio,NA,NA,6,NA,NA,NA,NA,NA,NA,NA,NA,NA,NA,NA,NA,NA,NA,NA,NA,NA,NA,NA
ca79d,"""Richtig""-Screen",canvas.Screen,3_0_6_0_0_0_1,NA,NA,timeout,4999.8760000002,2673096.3000001,2673084.078,2673100.047,2678083.335,2678083.8000001,2023-03-25T15:59:17Z,2678099.923,NULL,Hoffnung,matarajio,d,NA,NA,NA,NA,dfs,1,6,NA,NA,NA,NA,NA,NA,NA,NA,NA,NA,NA,NA,NA,NA,NA,NA,NA,NA,NA
ca79d,"""Falsch""-Screen",canvas.Screen,3_0_6_0_0_0_2,NA,NA,skipped,NA,2678085.9000001,NA,NA,2678083.335,2678085.9000001,2023-03-25T15:59:17Z,2678099.923,NULL,Hoffnung,matarajio,d,NA,NA,NA,NA,dfs,NA,6,NA,NA,NA,NA,NA,NA,NA,NA,NA,NA,NA,NA,NA,NA,NA,NA,NA,NA,NA
ca79d,deep,flow.Sequence,3_0_6_0_0_0,NA,NA,completion,9065.6430000002,2669003,2669000.995,2669017.692,2678083.335,2678086,2023-03-25T15:59:17Z,2678099.923,NULL,Hoffnung,matarajio,d,NA,NA,NA,NA,dfs,NA,6,NA,NA,NA,NA,NA,NA,NA,NA,NA,NA,NA,NA,NA,NA,NA,NA,NA,NA,NA
ca79d,shallow,flow.Sequence,3_0_6_0_0_1,NA,NA,skipped,NA,2678086.1,NA,NA,2678083.335,2678086.2,2023-03-25T15:59:17Z,2678099.923,NULL,Hoffnung,matarajio,d,NA,NA,NA,NA,dfs,NA,6,NA,NA,NA,NA,NA,NA,NA,NA,NA,NA,NA,NA,NA,NA,NA,NA,NA,NA,NA
ca79d,task,flow.Sequence,3_0_6_0_0,NA,NA,completion,9065.6430000002,2669003,2669000.995,2669017.692,2678083.335,2678086.3000001,2023-03-25T15:59:17Z,2678099.923,NULL,Hoffnung,matarajio,d,NA,NA,NA,NA,dfs,NA,6,NA,NA,NA,NA,NA,NA,NA,NA,NA,NA,NA,NA,NA,NA,NA,NA,NA,NA,NA
ca79d,Deep Question,html.Page,3_0_6_0_1_0_0,NA,NA,form submission,14116.977000095,2678086.4000001,2678083.335,2678099.923,2692216.9000001,2692217.2,2023-03-25T15:59:31Z,2692232.619,NULL,Erneuerung,ukarabati,d,NA,NA,NA,ufakajio,NA,NA,6,NA,NA,NA,NA,NA,NA,NA,NA,NA,NA,NA,NA,NA,NA,NA,NA,NA,NA,NA
ca79d,"""Richtig""-Screen",canvas.Screen,3_0_6_0_1_0_1,NA,NA,skipped,NA,2692219.5,NA,NA,2692216.9000001,2692219.7,2023-03-25T15:59:31Z,2692232.619,NULL,Erneuerung,ukarabati,d,NA,NA,NA,NA,dfs,NA,6,NA,NA,NA,NA,NA,NA,NA,NA,NA,NA,NA,NA,NA,NA,NA,NA,NA,NA,NA
ca79d,"""Falsch""-Screen",canvas.Screen,3_0_6_0_1_0_2,NA,NA,timeout,4999.6090000002,2692220.5,2692215.598,2692232.619,2697215.139,2697216.2,2023-03-25T15:59:36Z,2697232.228,NULL,Erneuerung,ukarabati,d,NA,NA,NA,NA,dfs,0,6,NA,NA,NA,NA,NA,NA,NA,NA,NA,NA,NA,NA,NA,NA,NA,NA,NA,NA,NA
ca79d,deep,flow.Sequence,3_0_6_0_1_0,NA,NA,completion,19115.216,2678086.4000001,2678083.335,2678099.923,2697215.139,2697216.6,2023-03-25T15:59:36Z,2697232.228,NULL,Erneuerung,ukarabati,d,NA,NA,NA,NA,dfs,NA,6,NA,NA,NA,NA,NA,NA,NA,NA,NA,NA,NA,NA,NA,NA,NA,NA,NA,NA,NA
ca79d,shallow,flow.Sequence,3_0_6_0_1_1,NA,NA,skipped,NA,2697216.7,NA,NA,2697215.139,2697216.9000001,2023-03-25T15:59:36Z,2697232.228,NULL,Erneuerung,ukarabati,d,NA,NA,NA,NA,dfs,NA,6,NA,NA,NA,NA,NA,NA,NA,NA,NA,NA,NA,NA,NA,NA,NA,NA,NA,NA,NA
ca79d,task,flow.Sequence,3_0_6_0_1,NA,NA,completion,19115.216,2678086.3000001,2678083.335,2678099.923,2697215.139,2697217.2,2023-03-25T15:59:36Z,2697232.228,NULL,Erneuerung,ukarabati,d,NA,NA,NA,NA,dfs,NA,6,NA,NA,NA,NA,NA,NA,NA,NA,NA,NA,NA,NA,NA,NA,NA,NA,NA,NA,NA
ca79d,Deep Question,html.Page,3_0_6_0_2_0_0,NA,NA,form submission,7204.6720000952,2697217.4000001,2697215.139,2697232.228,2704436.9000001,2704437.1,2023-03-25T15:59:44Z,2704447.866,NULL,Wechsel,ugeuzaji,d,NA,NA,NA,ufagaji,NA,NA,6,NA,NA,NA,NA,NA,NA,NA,NA,NA,NA,NA,NA,NA,NA,NA,NA,NA,NA,NA
ca79d,"""Richtig""-Screen",canvas.Screen,3_0_6_0_2_0_1,NA,NA,skipped,NA,2704439.8000001,NA,NA,2704436.9000001,2704439.9000001,2023-03-25T15:59:44Z,2704447.866,NULL,Wechsel,ugeuzaji,d,NA,NA,NA,NA,dfs,NA,6,NA,NA,NA,NA,NA,NA,NA,NA,NA,NA,NA,NA,NA,NA,NA,NA,NA,NA,NA
