observation,sender,sender_type,sender_id,response,response_action,ended_on,duration,time_run,time_render,time_show,time_end,time_commit,timestamp,time_switch,german,swahili,enc,distractor1,distractor2,distractor3,response_2,x,correct,distractors,url_vp,url_sess,meta_labjs_version,meta_location,meta_user_agent,meta_platform,meta_language,meta_locale,meta_time_zone,meta_timezone_offset,meta_screen_width,meta_screen_height,meta_scroll_width,meta_scroll_height,meta_window_inner_width,meta_window_inner_height,meta_device_pixel_ratio,meta_labjs_build_flavor,meta_labjs_build_commit
e040e,Introduction delayed retrieval,canvas.Screen,0,weiter,keypress(Space),response,4560.2219998093,4228.8999998569,155650.992,155684.478,160244.69999981,160251.39999986,2023-06-07T04:21:39Z,160250.687,NA,NA,NA,NA,NA,NA,NA,NA,NA,NULL,120,4,20.2.4,https://neurocog.fernuni.ch/studies/vweber/delayed/index.html?vp=120&sess=4,"Mozilla/5.0 (Windows NT 10.0; Win64; x64) AppleWebKit/537.36 (KHTML, like Gecko) Chrome/113.0.0.0 Safari/537.36",Win32,de-DE,de,America/New_York,240,1366,768,1366,609,1366,657,1,production,f5b4a49f956347addd546a832a3327688c2c0fef
e040e,Deep Question,html.Page,1_0_0_0,NA,NA,form submission,31391.712999857,160251.79999995,160234.391,160250.687,191642.39999986,191642.79999995,2023-06-07T04:22:10Z,191648.378,Körper,kiwiliwili,s,mapambano,mpatanishi,kiolezo,mshawabji,NA,NA,NULL,NA,NA,NA,NA,NA,NA,NA,NA,NA,NA,NA,NA,NA,NA,NA,NA,NA,NA,NA
e040e,Save data screen,canvas.Screen,1_0_0_1,NA,NA,timeout,499.973,191644.0999999,191631.728,191648.378,192131.679,192133.19999981,2023-06-07T04:22:10Z,192148.351,Körper,kiwiliwili,s,mapambano,mpatanishi,kiolezo,NA,NA,0,NULL,NA,NA,NA,NA,NA,NA,NA,NA,NA,NA,NA,NA,NA,NA,NA,NA,NA,NA,NA
e040e,deep,flow.Sequence,1_0_0,NA,NA,completion,31880.992,160251.79999995,160234.391,160250.687,192131.679,192133.5,2023-06-07T04:22:10Z,192148.351,Körper,kiwiliwili,s,mapambano,mpatanishi,kiolezo,NA,NA,NA,NULL,NA,NA,NA,NA,NA,NA,NA,NA,NA,NA,NA,NA,NA,NA,NA,NA,NA,NA,NA
e040e,task,flow.Sequence,1_0,NA,NA,completion,31880.992,160251.79999995,160234.391,160250.687,192131.679,192133.79999995,2023-06-07T04:22:10Z,192148.351,Körper,kiwiliwili,s,mapambano,mpatanishi,kiolezo,NA,NA,NA,NULL,NA,NA,NA,NA,NA,NA,NA,NA,NA,NA,NA,NA,NA,NA,NA,NA,NA,NA,NA
e040e,Deep Question,html.Page,1_1_0_0,NA,NA,form submission,50955.848999809,192134,192131.679,192148.351,243104.19999981,243104.5,2023-06-07T04:23:01Z,243111.347,System,maongozi,d,chokochoko,nuksani,mitaani,tahadhari,NA,NA,NULL,NA,NA,NA,NA,NA,NA,NA,NA,NA,NA,NA,NA,NA,NA,NA,NA,NA,NA,NA
e040e,Save data screen,canvas.Screen,1_1_0_1,NA,NA,timeout,500.38499999998,243106.89999986,243095.151,243111.347,243594.793,243595.79999995,2023-06-07T04:23:02Z,243611.732,System,maongozi,d,chokochoko,nuksani,mitaani,NA,NA,0,NULL,NA,NA,NA,NA,NA,NA,NA,NA,NA,NA,NA,NA,NA,NA,NA,NA,NA,NA,NA
e040e,deep,flow.Sequence,1_1_0,NA,NA,completion,51446.442,192134,192131.679,192148.351,243594.793,243596.19999981,2023-06-07T04:23:02Z,243611.732,System,maongozi,d,chokochoko,nuksani,mitaani,NA,NA,NA,NULL,NA,NA,NA,NA,NA,NA,NA,NA,NA,NA,NA,NA,NA,NA,NA,NA,NA,NA,NA
e040e,task,flow.Sequence,1_1,NA,NA,completion,51446.442,192133.89999986,192131.679,192148.351,243594.793,243596.79999995,2023-06-07T04:23:02Z,243611.732,System,maongozi,d,chokochoko,nuksani,mitaani,NA,NA,NA,NULL,NA,NA,NA,NA,NA,NA,NA,NA,NA,NA,NA,NA,NA,NA,NA,NA,NA,NA,NA
e040e,Deep Question,html.Page,1_2_0_0,NA,NA,form submission,63722.268,243597.19999981,243594.793,243611.732,307334,307334.29999995,2023-06-07T04:24:06Z,307340.249,Prüfung,mtihani,d,mkulima,mtizamo,ufumbuzi,dajaha,NA,NA,NULL,NA,NA,NA,NA,NA,NA,NA,NA,NA,NA,NA,NA,NA,NA,NA,NA,NA,NA,NA
e040e,Save data screen,canvas.Screen,1_2_0_1,NA,NA,timeout,500.31,307336.89999986,307323.537,307340.249,307823.716,307824.89999986,2023-06-07T04:24:06Z,307840.559,Prüfung,mtihani,d,mkulima,mtizamo,ufumbuzi,NA,NA,0,NULL,NA,NA,NA,NA,NA,NA,NA,NA,NA,NA,NA,NA,NA,NA,NA,NA,NA,NA,NA
e040e,deep,flow.Sequence,1_2_0,NA,NA,completion,64211.984,243597.0999999,243594.793,243611.732,307823.716,307825.39999986,2023-06-07T04:24:06Z,307840.559,Prüfung,mtihani,d,mkulima,mtizamo,ufumbuzi,NA,NA,NA,NULL,NA,NA,NA,NA,NA,NA,NA,NA,NA,NA,NA,NA,NA,NA,NA,NA,NA,NA,NA
e040e,task,flow.Sequence,1_2,NA,NA,completion,64211.984,243597,243594.793,243611.732,307823.716,307825.89999986,2023-06-07T04:24:06Z,307840.559,Prüfung,mtihani,d,mkulima,mtizamo,ufumbuzi,NA,NA,NA,NULL,NA,NA,NA,NA,NA,NA,NA,NA,NA,NA,NA,NA,NA,NA,NA,NA,NA,NA,NA
e040e,Deep Question,html.Page,1_3_0_0,NA,NA,form submission,29303.040999905,307826.39999986,307823.716,307840.559,337143.5999999,337143.79999995,2023-06-07T04:24:35Z,337155.009,Lawine,banguko,d,maambukizi,usuluhishi,chekechea,banguha,NA,NA,NULL,NA,NA,NA,NA,NA,NA,NA,NA,NA,NA,NA,NA,NA,NA,NA,NA,NA,NA,NA
e040e,Save data screen,canvas.Screen,1_3_0_1,NA,NA,timeout,499.80299999996,337146,337138.446,337155.009,337638.302,337639.39999986,2023-06-07T04:24:36Z,337654.812,Lawine,banguko,d,maambukizi,usuluhishi,chekechea,NA,NA,0,NULL,NA,NA,NA,NA,NA,NA,NA,NA,NA,NA,NA,NA,NA,NA,NA,NA,NA,NA,NA
e040e,deep,flow.Sequence,1_3_0,NA,NA,completion,29797.743,307826.29999995,307823.716,307840.559,337638.302,337639.89999986,2023-06-07T04:24:36Z,337654.812,Lawine,banguko,d,maambukizi,usuluhishi,chekechea,NA,NA,NA,NULL,NA,NA,NA,NA,NA,NA,NA,NA,NA,NA,NA,NA,NA,NA,NA,NA,NA,NA,NA
e040e,task,flow.Sequence,1_3,NA,NA,completion,29797.743,307826.0999999,307823.716,307840.559,337638.302,337640.19999981,2023-06-07T04:24:36Z,337654.812,Lawine,banguko,d,maambukizi,usuluhishi,chekechea,NA,NA,NA,NULL,NA,NA,NA,NA,NA,NA,NA,NA,NA,NA,NA,NA,NA,NA,NA,NA,NA,NA,NA
e040e,Deep Question,html.Page,1_4_0_0,NA,NA,form submission,7951.7879999047,337640.5999999,337638.302,337654.812,345606.5999999,345606.79999995,2023-06-07T04:24:44Z,345621.186,Kanzler,diwani,s,rasilmali,mahitaji,maabudu,dajaru,NA,NA,NULL,NA,NA,NA,NA,NA,NA,NA,NA,NA,NA,NA,NA,NA,NA,NA,NA,NA,NA,NA
e040e,Save data screen,canvas.Screen,1_4_0_1,NA,NA,timeout,499.951,345609,345604.192,345621.186,346103.995,346105.29999995,2023-06-07T04:24:44Z,346121.137,Kanzler,diwani,s,rasilmali,mahitaji,maabudu,NA,NA,0,NULL,NA,NA,NA,NA,NA,NA,NA,NA,NA,NA,NA,NA,NA,NA,NA,NA,NA,NA,NA
e040e,deep,flow.Sequence,1_4_0,NA,NA,completion,8449.183,337640.5,337638.302,337654.812,346103.995,346105.69999981,2023-06-07T04:24:44Z,346121.137,Kanzler,diwani,s,rasilmali,mahitaji,maabudu,NA,NA,NA,NULL,NA,NA,NA,NA,NA,NA,NA,NA,NA,NA,NA,NA,NA,NA,NA,NA,NA,NA,NA
e040e,task,flow.Sequence,1_4,NA,NA,completion,8449.183,337640.39999986,337638.302,337654.812,346103.995,346106,2023-06-07T04:24:44Z,346121.137,Kanzler,diwani,s,rasilmali,mahitaji,maabudu,NA,NA,NA,NULL,NA,NA,NA,NA,NA,NA,NA,NA,NA,NA,NA,NA,NA,NA,NA,NA,NA,NA,NA
e040e,Deep Question,html.Page,1_5_0_0,NA,NA,form submission,39915.762999857,346106.29999995,346103.995,346121.137,386036.89999986,386037.0999999,2023-06-07T04:25:24Z,386051.598,Angreifer,mshambulizi,d,kitengo,tasinia,usafirishaji,mshahari,NA,NA,NULL,NA,NA,NA,NA,NA,NA,NA,NA,NA,NA,NA,NA,NA,NA,NA,NA,NA,NA,NA
e040e,Save data screen,canvas.Screen,1_5_0_1,NA,NA,timeout,499.41600000003,386040,386034.945,386051.598,386534.688,386535.69999981,2023-06-07T04:25:25Z,386551.014,Angreifer,mshambulizi,d,kitengo,tasinia,usafirishaji,NA,NA,0,NULL,NA,NA,NA,NA,NA,NA,NA,NA,NA,NA,NA,NA,NA,NA,NA,NA,NA,NA,NA
e040e,deep,flow.Sequence,1_5_0,NA,NA,completion,40413.551,346106.19999981,346103.995,346121.137,386534.688,386536.19999981,2023-06-07T04:25:25Z,386551.014,Angreifer,mshambulizi,d,kitengo,tasinia,usafirishaji,NA,NA,NA,NULL,NA,NA,NA,NA,NA,NA,NA,NA,NA,NA,NA,NA,NA,NA,NA,NA,NA,NA,NA
e040e,task,flow.Sequence,1_5,NA,NA,completion,40413.551,346106.0999999,346103.995,346121.137,386534.688,386536.5999999,2023-06-07T04:25:25Z,386551.014,Angreifer,mshambulizi,d,kitengo,tasinia,usafirishaji,NA,NA,NA,NULL,NA,NA,NA,NA,NA,NA,NA,NA,NA,NA,NA,NA,NA,NA,NA,NA,NA,NA,NA
e040e,Deep Question,html.Page,1_6_0_0,NA,NA,form submission,2671.1859998092,386536.89999986,386534.688,386551.014,389222.19999981,389222.39999986,2023-06-07T04:25:28Z,389234.454,Kultur,utamaduni,s,shetani,gerezani,mazingira,x,NA,NA,NULL,NA,NA,NA,NA,NA,NA,NA,NA,NA,NA,NA,NA,NA,NA,NA,NA,NA,NA,NA
e040e,Save data screen,canvas.Screen,1_6_0_1,NA,NA,timeout,499.68899999995,389223.0999999,389217.637,389234.454,389717.712,389720.29999995,2023-06-07T04:25:28Z,389734.143,Kultur,utamaduni,s,shetani,gerezani,mazingira,NA,NA,0,NULL,NA,NA,NA,NA,NA,NA,NA,NA,NA,NA,NA,NA,NA,NA,NA,NA,NA,NA,NA
e040e,deep,flow.Sequence,1_6_0,NA,NA,completion,3166.698,386536.79999995,386534.688,386551.014,389717.712,389720.69999981,2023-06-07T04:25:28Z,389734.143,Kultur,utamaduni,s,shetani,gerezani,mazingira,NA,NA,NA,NULL,NA,NA,NA,NA,NA,NA,NA,NA,NA,NA,NA,NA,NA,NA,NA,NA,NA,NA,NA
e040e,task,flow.Sequence,1_6,NA,NA,completion,3166.698,386536.69999981,386534.688,386551.014,389717.712,389721,2023-06-07T04:25:28Z,389734.143,Kultur,utamaduni,s,shetani,gerezani,mazingira,NA,NA,NA,NULL,NA,NA,NA,NA,NA,NA,NA,NA,NA,NA,NA,NA,NA,NA,NA,NA,NA,NA,NA
e040e,Deep Question,html.Page,1_7_0_0,NA,NA,form submission,2695.0569998093,389721.39999986,389717.712,389734.143,392429.19999981,392429.5,2023-06-07T04:25:31Z,392433.864,Übersicht,kilindo,s,mgusano,chipukizi,kulinganisha,x,NA,NA,NULL,NA,NA,NA,NA,NA,NA,NA,NA,NA,NA,NA,NA,NA,NA,NA,NA,NA,NA,NA
e040e,Save data screen,canvas.Screen,1_7_0_1,NA,NA,timeout,500.28200000001,392431.39999986,392417.509,392433.864,392917.591,392918.79999995,2023-06-07T04:25:31Z,392934.146,Übersicht,kilindo,s,mgusano,chipukizi,kulinganisha,NA,NA,0,NULL,NA,NA,NA,NA,NA,NA,NA,NA,NA,NA,NA,NA,NA,NA,NA,NA,NA,NA,NA
e040e,deep,flow.Sequence,1_7_0,NA,NA,completion,3183.448,389721.39999986,389717.712,389734.143,392917.591,392919.0999999,2023-06-07T04:25:31Z,392934.146,Übersicht,kilindo,s,mgusano,chipukizi,kulinganisha,NA,NA,NA,NULL,NA,NA,NA,NA,NA,NA,NA,NA,NA,NA,NA,NA,NA,NA,NA,NA,NA,NA,NA
e040e,task,flow.Sequence,1_7,NA,NA,completion,3183.448,389721.19999981,389717.712,389734.143,392917.591,392919.39999986,2023-06-07T04:25:31Z,392934.146,Übersicht,kilindo,s,mgusano,chipukizi,kulinganisha,NA,NA,NA,NULL,NA,NA,NA,NA,NA,NA,NA,NA,NA,NA,NA,NA,NA,NA,NA,NA,NA,NA,NA
e040e,Deep Question,html.Page,1_8_0_0,NA,NA,form submission,4680.5539998093,392919.69999981,392917.591,392934.146,397614.69999981,397615,2023-06-07T04:25:36Z,397616.856,Abrechnung,uhasibu,s,kusahihisha,mpambano,mashambulizi,x,NA,NA,NULL,NA,NA,NA,NA,NA,NA,NA,NA,NA,NA,NA,NA,NA,NA,NA,NA,NA,NA,NA
e040e,Save data screen,canvas.Screen,1_8_0_1,NA,NA,timeout,500.35499999998,397617.5999999,397600.485,397616.856,398100.716,398101.69999981,2023-06-07T04:25:36Z,398117.211,Abrechnung,uhasibu,s,kusahihisha,mpambano,mashambulizi,NA,NA,0,NULL,NA,NA,NA,NA,NA,NA,NA,NA,NA,NA,NA,NA,NA,NA,NA,NA,NA,NA,NA
e040e,deep,flow.Sequence,1_8_0,NA,NA,completion,5166.57,392919.69999981,392917.591,392934.146,398100.716,398102.0999999,2023-06-07T04:25:36Z,398117.211,Abrechnung,uhasibu,s,kusahihisha,mpambano,mashambulizi,NA,NA,NA,NULL,NA,NA,NA,NA,NA,NA,NA,NA,NA,NA,NA,NA,NA,NA,NA,NA,NA,NA,NA
e040e,task,flow.Sequence,1_8,NA,NA,completion,5166.57,392919.5999999,392917.591,392934.146,398100.716,398102.39999986,2023-06-07T04:25:36Z,398117.211,Abrechnung,uhasibu,s,kusahihisha,mpambano,mashambulizi,NA,NA,NA,NULL,NA,NA,NA,NA,NA,NA,NA,NA,NA,NA,NA,NA,NA,NA,NA,NA,NA,NA,NA
e040e,Deep Question,html.Page,1_9_0_0,NA,NA,form submission,55703.789,398102.69999981,398100.716,398117.211,453821,453821.19999981,2023-06-07T04:26:32Z,453829.848,Sänger,mwimbaji,d,msichana,shughuli,mshirika,x,NA,NA,NULL,NA,NA,NA,NA,NA,NA,NA,NA,NA,NA,NA,NA,NA,NA,NA,NA,NA,NA,NA
e040e,Save data screen,canvas.Screen,1_9_0_1,NA,NA,timeout,499.598,453823.29999995,453813.39,453829.848,454313.308,454314.29999995,2023-06-07T04:26:33Z,454329.446,Sänger,mwimbaji,d,msichana,shughuli,mshirika,NA,NA,0,NULL,NA,NA,NA,NA,NA,NA,NA,NA,NA,NA,NA,NA,NA,NA,NA,NA,NA,NA,NA
e040e,deep,flow.Sequence,1_9_0,NA,NA,completion,56196.097,398102.69999981,398100.716,398117.211,454313.308,454315,2023-06-07T04:26:33Z,454329.446,Sänger,mwimbaji,d,msichana,shughuli,mshirika,NA,NA,NA,NULL,NA,NA,NA,NA,NA,NA,NA,NA,NA,NA,NA,NA,NA,NA,NA,NA,NA,NA,NA
e040e,task,flow.Sequence,1_9,NA,NA,completion,56196.097,398102.69999981,398100.716,398117.211,454313.308,454315.29999995,2023-06-07T04:26:33Z,454329.446,Sänger,mwimbaji,d,msichana,shughuli,mshirika,NA,NA,NA,NULL,NA,NA,NA,NA,NA,NA,NA,NA,NA,NA,NA,NA,NA,NA,NA,NA,NA,NA,NA
e040e,Deep Question,html.Page,1_10_0_0,NA,NA,form submission,5277.953999857,454315.5999999,454313.308,454329.446,459607.39999986,459607.5999999,2023-06-07T04:26:38Z,459612.341,Gefährdung,kuhatarisha,s,uchokozi,udhaifu,makorowezo,x,NA,NA,NULL,NA,NA,NA,NA,NA,NA,NA,NA,NA,NA,NA,NA,NA,NA,NA,NA,NA,NA,NA
e040e,Save data screen,canvas.Screen,1_10_0_1,NA,NA,timeout,500.52399999998,459609.5999999,459596.378,459612.341,460096.276,460097.19999981,2023-06-07T04:26:38Z,460112.865,Gefährdung,kuhatarisha,s,uchokozi,udhaifu,makorowezo,NA,NA,0,NULL,NA,NA,NA,NA,NA,NA,NA,NA,NA,NA,NA,NA,NA,NA,NA,NA,NA,NA,NA
e040e,deep,flow.Sequence,1_10_0,NA,NA,completion,5766.83,454315.5,454313.308,454329.446,460096.276,460097.5999999,2023-06-07T04:26:38Z,460112.865,Gefährdung,kuhatarisha,s,uchokozi,udhaifu,makorowezo,NA,NA,NA,NULL,NA,NA,NA,NA,NA,NA,NA,NA,NA,NA,NA,NA,NA,NA,NA,NA,NA,NA,NA
e040e,task,flow.Sequence,1_10,NA,NA,completion,5766.83,454315.5,454313.308,454329.446,460096.276,460097.89999986,2023-06-07T04:26:38Z,460112.865,Gefährdung,kuhatarisha,s,uchokozi,udhaifu,makorowezo,NA,NA,NA,NULL,NA,NA,NA,NA,NA,NA,NA,NA,NA,NA,NA,NA,NA,NA,NA,NA,NA,NA,NA
e040e,Deep Question,html.Page,1_11_0_0,NA,NA,form submission,42470.534999857,460098.0999999,460096.276,460112.865,502583.39999986,502583.69999981,2023-06-07T04:27:21Z,502592.604,Kreativität,ubunifu,d,mratibu,mwendelezo,makubaliano,msh,NA,NA,NULL,NA,NA,NA,NA,NA,NA,NA,NA,NA,NA,NA,NA,NA,NA,NA,NA,NA,NA,NA
e040e,Save data screen,canvas.Screen,1_11_0_1,NA,NA,timeout,500.50400000002,502586.0999999,502576.491,502592.604,503076.463,503077.5999999,2023-06-07T04:27:21Z,503093.108,Kreativität,ubunifu,d,mratibu,mwendelezo,makubaliano,NA,NA,0,NULL,NA,NA,NA,NA,NA,NA,NA,NA,NA,NA,NA,NA,NA,NA,NA,NA,NA,NA,NA
e040e,deep,flow.Sequence,1_11_0,NA,NA,completion,42963.598,460098.0999999,460096.276,460112.865,503076.463,503077.89999986,2023-06-07T04:27:21Z,503093.108,Kreativität,ubunifu,d,mratibu,mwendelezo,makubaliano,NA,NA,NA,NULL,NA,NA,NA,NA,NA,NA,NA,NA,NA,NA,NA,NA,NA,NA,NA,NA,NA,NA,NA
e040e,task,flow.Sequence,1_11,NA,NA,completion,42963.598,460098,460096.276,460112.865,503076.463,503078.29999995,2023-06-07T04:27:21Z,503093.108,Kreativität,ubunifu,d,mratibu,mwendelezo,makubaliano,NA,NA,NA,NULL,NA,NA,NA,NA,NA,NA,NA,NA,NA,NA,NA,NA,NA,NA,NA,NA,NA,NA,NA
e040e,Deep Question,html.Page,1_12_0_0,NA,NA,form submission,2720.0919998093,503078.5999999,503076.463,503093.108,505813.19999981,505813.69999981,2023-06-07T04:27:24Z,505826.088,Kontrolle,kudhibiti,s,mbinguni,kufunga,utegemezi,x,NA,NA,NULL,NA,NA,NA,NA,NA,NA,NA,NA,NA,NA,NA,NA,NA,NA,NA,NA,NA,NA,NA
e040e,Save data screen,canvas.Screen,1_12_0_1,NA,NA,timeout,500.13900000002,505814.39999986,505809.317,505826.088,506309.584,506310.5999999,2023-06-07T04:27:25Z,506326.227,Kontrolle,kudhibiti,s,mbinguni,kufunga,utegemezi,NA,NA,0,NULL,NA,NA,NA,NA,NA,NA,NA,NA,NA,NA,NA,NA,NA,NA,NA,NA,NA,NA,NA
e040e,deep,flow.Sequence,1_12_0,NA,NA,completion,3216.476,503078.5,503076.463,503093.108,506309.584,506311,2023-06-07T04:27:25Z,506326.227,Kontrolle,kudhibiti,s,mbinguni,kufunga,utegemezi,NA,NA,NA,NULL,NA,NA,NA,NA,NA,NA,NA,NA,NA,NA,NA,NA,NA,NA,NA,NA,NA,NA,NA
e040e,task,flow.Sequence,1_12,NA,NA,completion,3216.476,503078.39999986,503076.463,503093.108,506309.584,506311.29999995,2023-06-07T04:27:25Z,506326.227,Kontrolle,kudhibiti,s,mbinguni,kufunga,utegemezi,NA,NA,NA,NULL,NA,NA,NA,NA,NA,NA,NA,NA,NA,NA,NA,NA,NA,NA,NA,NA,NA,NA,NA
e040e,Deep Question,html.Page,1_13_0_0,NA,NA,form submission,1481.4729998093,506311.5,506309.584,506326.227,507807.69999981,507807.89999986,2023-06-07T04:27:26Z,507808.859,Verzögerung,kuchelewa,s,mwakilishi,mwanauchumi,jaribio,x,NA,NA,NULL,NA,NA,NA,NA,NA,NA,NA,NA,NA,NA,NA,NA,NA,NA,NA,NA,NA,NA,NA
e040e,Save data screen,canvas.Screen,1_13_0_1,NA,NA,timeout,500.38199999998,507808.5,507792.347,507808.859,508292.782,508293.69999981,2023-06-07T04:27:27Z,508309.241,Verzögerung,kuchelewa,s,mwakilishi,mwanauchumi,jaribio,NA,NA,0,NULL,NA,NA,NA,NA,NA,NA,NA,NA,NA,NA,NA,NA,NA,NA,NA,NA,NA,NA,NA
e040e,deep,flow.Sequence,1_13_0,NA,NA,completion,1966.555,506311.5,506309.584,506326.227,508292.782,508294.0999999,2023-06-07T04:27:27Z,508309.241,Verzögerung,kuchelewa,s,mwakilishi,mwanauchumi,jaribio,NA,NA,NA,NULL,NA,NA,NA,NA,NA,NA,NA,NA,NA,NA,NA,NA,NA,NA,NA,NA,NA,NA,NA
e040e,task,flow.Sequence,1_13,NA,NA,completion,1966.555,506311.5,506309.584,506326.227,508292.782,508294.39999986,2023-06-07T04:27:27Z,508309.241,Verzögerung,kuchelewa,s,mwakilishi,mwanauchumi,jaribio,NA,NA,NA,NULL,NA,NA,NA,NA,NA,NA,NA,NA,NA,NA,NA,NA,NA,NA,NA,NA,NA,NA,NA
e040e,Deep Question,html.Page,1_14_0_0,NA,NA,form submission,1307.259,508294.69999981,508292.782,508309.241,509616.5,509616.69999981,2023-06-07T04:27:28Z,509625.945,Können,unaweza,d,kiongozi,bustani,mienendo,x,NA,NA,NULL,NA,NA,NA,NA,NA,NA,NA,NA,NA,NA,NA,NA,NA,NA,NA,NA,NA,NA,NA
e040e,Save data screen,canvas.Screen,1_14_0_1,NA,NA,timeout,499.73300000001,509617.19999981,509609.026,509625.945,510109.002,510110.0999999,2023-06-07T04:27:28Z,510125.678,Können,unaweza,d,kiongozi,bustani,mienendo,NA,NA,0,NULL,NA,NA,NA,NA,NA,NA,NA,NA,NA,NA,NA,NA,NA,NA,NA,NA,NA,NA,NA
e040e,deep,flow.Sequence,1_14_0,NA,NA,completion,1799.761,508294.5999999,508292.782,508309.241,510109.002,510110.69999981,2023-06-07T04:27:28Z,510125.678,Können,unaweza,d,kiongozi,bustani,mienendo,NA,NA,NA,NULL,NA,NA,NA,NA,NA,NA,NA,NA,NA,NA,NA,NA,NA,NA,NA,NA,NA,NA,NA
e040e,task,flow.Sequence,1_14,NA,NA,completion,1799.761,508294.5,508292.782,508309.241,510109.002,510111,2023-06-07T04:27:28Z,510125.678,Können,unaweza,d,kiongozi,bustani,mienendo,NA,NA,NA,NULL,NA,NA,NA,NA,NA,NA,NA,NA,NA,NA,NA,NA,NA,NA,NA,NA,NA,NA,NA
e040e,Deep Question,html.Page,1_15_0_0,NA,NA,form submission,1443.4219999046,510111.5,510109.002,510125.678,511569.0999999,511569.39999986,2023-06-07T04:27:30Z,511575.806,Aufstand,ugomaji,d,mazidio,msingi,kujieleza,x,NA,NA,NULL,NA,NA,NA,NA,NA,NA,NA,NA,NA,NA,NA,NA,NA,NA,NA,NA,NA,NA,NA
e040e,Save data screen,canvas.Screen,1_15_0_1,NA,NA,timeout,499.701,511569.89999986,511558.784,511575.806,512059.179,512060.0999999,2023-06-07T04:27:30Z,512075.507,Aufstand,ugomaji,d,mazidio,msingi,kujieleza,NA,NA,0,NULL,NA,NA,NA,NA,NA,NA,NA,NA,NA,NA,NA,NA,NA,NA,NA,NA,NA,NA,NA
e040e,deep,flow.Sequence,1_15_0,NA,NA,completion,1933.501,510111.5,510109.002,510125.678,512059.179,512060.5,2023-06-07T04:27:30Z,512075.507,Aufstand,ugomaji,d,mazidio,msingi,kujieleza,NA,NA,NA,NULL,NA,NA,NA,NA,NA,NA,NA,NA,NA,NA,NA,NA,NA,NA,NA,NA,NA,NA,NA
e040e,task,flow.Sequence,1_15,NA,NA,completion,1933.501,510111.29999995,510109.002,510125.678,512059.179,512060.79999995,2023-06-07T04:27:30Z,512075.507,Aufstand,ugomaji,d,mazidio,msingi,kujieleza,NA,NA,NA,NULL,NA,NA,NA,NA,NA,NA,NA,NA,NA,NA,NA,NA,NA,NA,NA,NA,NA,NA,NA
e040e,retrieval block 1 (cued recall),flow.Loop,1,NA,NA,completion,351808.492,160251.69999981,160234.391,160250.687,512059.179,512061.0999999,2023-06-07T04:27:30Z,512075.507,NA,NA,NA,NA,NA,NA,NA,NA,NA,NULL,NA,NA,NA,NA,NA,NA,NA,NA,NA,NA,NA,NA,NA,NA,NA,NA,NA,NA,NA
e040e,Shallow Question,html.Page,2_0_0_0,NA,NA,form submission,7266.2929999523,512061.5,512059.179,512075.507,519341.79999995,519342,2023-06-07T04:27:38Z,519358.693,Körper,kiwiliwili,s,mapambano,mpatanishi,kiolezo,kiolezo,NA,NA,"c(""distractor1"", ""distractor2"", ""distractor3"")",NA,NA,NA,NA,NA,NA,NA,NA,NA,NA,NA,NA,NA,NA,NA,NA,NA,NA,NA
e040e,Save data screen,canvas.Screen,2_0_0_1,NA,NA,timeout,499.86899999995,519344.19999981,519324.652,519358.693,519841.615,519842.5999999,2023-06-07T04:27:38Z,519858.562,Körper,kiwiliwili,s,mapambano,mpatanishi,kiolezo,NA,NA,0,"c(""distractor1"", ""distractor2"", ""distractor3"")",NA,NA,NA,NA,NA,NA,NA,NA,NA,NA,NA,NA,NA,NA,NA,NA,NA,NA,NA
e040e,shallow,flow.Sequence,2_0_0,NA,NA,completion,7766.108,512061.39999986,512059.179,512075.507,519841.615,519843.0999999,2023-06-07T04:27:38Z,519858.562,Körper,kiwiliwili,s,mapambano,mpatanishi,kiolezo,NA,NA,NA,"c(""distractor1"", ""distractor2"", ""distractor3"")",NA,NA,NA,NA,NA,NA,NA,NA,NA,NA,NA,NA,NA,NA,NA,NA,NA,NA,NA
e040e,task,flow.Sequence,2_0,NA,NA,completion,7766.108,512061.39999986,512059.179,512075.507,519841.615,519843.39999986,2023-06-07T04:27:38Z,519858.562,Körper,kiwiliwili,s,mapambano,mpatanishi,kiolezo,NA,NA,NA,"c(""distractor1"", ""distractor2"", ""distractor3"")",NA,NA,NA,NA,NA,NA,NA,NA,NA,NA,NA,NA,NA,NA,NA,NA,NA,NA,NA
e040e,Shallow Question,html.Page,2_1_0_0,NA,NA,form submission,6209.938,519843.5999999,519841.615,519858.562,526068.5,526068.69999981,2023-06-07T04:27:44Z,526074.23,Gefährdung,kuhatarisha,s,uchokozi,udhaifu,makorowezo,udhaifu,NA,NA,"c(""distractor1"", ""distractor2"", ""distractor3"")",NA,NA,NA,NA,NA,NA,NA,NA,NA,NA,NA,NA,NA,NA,NA,NA,NA,NA,NA
e040e,Save data screen,canvas.Screen,2_1_0_1,NA,NA,timeout,500.06599999999,526070.69999981,526057.845,526074.23,526558.121,526559.0999999,2023-06-07T04:27:45Z,526574.296,Gefährdung,kuhatarisha,s,uchokozi,udhaifu,makorowezo,NA,NA,0,"c(""distractor1"", ""distractor2"", ""distractor3"")",NA,NA,NA,NA,NA,NA,NA,NA,NA,NA,NA,NA,NA,NA,NA,NA,NA,NA,NA
e040e,shallow,flow.Sequence,2_1_0,NA,NA,completion,6699.5590000001,519843.5999999,519841.615,519858.562,526558.121,526559.79999995,2023-06-07T04:27:45Z,526574.296,Gefährdung,kuhatarisha,s,uchokozi,udhaifu,makorowezo,NA,NA,NA,"c(""distractor1"", ""distractor2"", ""distractor3"")",NA,NA,NA,NA,NA,NA,NA,NA,NA,NA,NA,NA,NA,NA,NA,NA,NA,NA,NA
e040e,task,flow.Sequence,2_1,NA,NA,completion,6699.5590000001,519843.5,519841.615,519858.562,526558.121,526560.19999981,2023-06-07T04:27:45Z,526574.296,Gefährdung,kuhatarisha,s,uchokozi,udhaifu,makorowezo,NA,NA,NA,"c(""distractor1"", ""distractor2"", ""distractor3"")",NA,NA,NA,NA,NA,NA,NA,NA,NA,NA,NA,NA,NA,NA,NA,NA,NA,NA,NA
e040e,Shallow Question,html.Page,2_2_0_0,NA,NA,form submission,11410.303999905,526560.39999986,526558.121,526574.296,537984.5999999,537984.69999981,2023-06-07T04:27:56Z,537990.015,Kontrolle,kudhibiti,s,mbinguni,kufunga,utegemezi,kudhibiti,NA,NA,"c(""distractor1"", ""distractor2"", ""distractor3"")",NA,NA,NA,NA,NA,NA,NA,NA,NA,NA,NA,NA,NA,NA,NA,NA,NA,NA,NA
e040e,Save data screen,canvas.Screen,2_2_0_1,NA,NA,timeout,500.50099999993,537986.79999995,537973.714,537990.015,538473.637,538474.5999999,2023-06-07T04:27:57Z,538490.516,Kontrolle,kudhibiti,s,mbinguni,kufunga,utegemezi,NA,NA,1,"c(""distractor1"", ""distractor2"", ""distractor3"")",NA,NA,NA,NA,NA,NA,NA,NA,NA,NA,NA,NA,NA,NA,NA,NA,NA,NA,NA
e040e,shallow,flow.Sequence,2_2_0,NA,NA,completion,11899.341,526560.29999995,526558.121,526574.296,538473.637,538475,2023-06-07T04:27:57Z,538490.516,Kontrolle,kudhibiti,s,mbinguni,kufunga,utegemezi,NA,NA,NA,"c(""distractor1"", ""distractor2"", ""distractor3"")",NA,NA,NA,NA,NA,NA,NA,NA,NA,NA,NA,NA,NA,NA,NA,NA,NA,NA,NA
e040e,task,flow.Sequence,2_2,NA,NA,completion,11899.341,526560.29999995,526558.121,526574.296,538473.637,538475.19999981,2023-06-07T04:27:57Z,538490.516,Kontrolle,kudhibiti,s,mbinguni,kufunga,utegemezi,NA,NA,NA,"c(""distractor1"", ""distractor2"", ""distractor3"")",NA,NA,NA,NA,NA,NA,NA,NA,NA,NA,NA,NA,NA,NA,NA,NA,NA,NA,NA
e040e,Shallow Question,html.Page,2_3_0_0,NA,NA,form submission,8688.6839998093,538475.5999999,538473.637,538490.516,547179.19999981,547179.39999986,2023-06-07T04:28:06Z,547189.854,Können,unaweza,d,kiongozi,bustani,mienendo,unaweza,NA,NA,"c(""distractor1"", ""distractor2"", ""distractor3"")",NA,NA,NA,NA,NA,NA,NA,NA,NA,NA,NA,NA,NA,NA,NA,NA,NA,NA,NA
e040e,Save data screen,canvas.Screen,2_3_0_1,NA,NA,timeout,500.03699999989,547181.39999986,547173.356,547189.854,547673.219,547674.0999999,2023-06-07T04:28:06Z,547689.891,Können,unaweza,d,kiongozi,bustani,mienendo,NA,NA,1,"c(""distractor1"", ""distractor2"", ""distractor3"")",NA,NA,NA,NA,NA,NA,NA,NA,NA,NA,NA,NA,NA,NA,NA,NA,NA,NA,NA
e040e,shallow,flow.Sequence,2_3_0,NA,NA,completion,9182.7030000001,538475.5,538473.637,538490.516,547673.219,547674.5,2023-06-07T04:28:06Z,547689.891,Können,unaweza,d,kiongozi,bustani,mienendo,NA,NA,NA,"c(""distractor1"", ""distractor2"", ""distractor3"")",NA,NA,NA,NA,NA,NA,NA,NA,NA,NA,NA,NA,NA,NA,NA,NA,NA,NA,NA
e040e,task,flow.Sequence,2_3,NA,NA,completion,9182.7030000001,538475.39999986,538473.637,538490.516,547673.219,547674.79999995,2023-06-07T04:28:06Z,547689.891,Können,unaweza,d,kiongozi,bustani,mienendo,NA,NA,NA,"c(""distractor1"", ""distractor2"", ""distractor3"")",NA,NA,NA,NA,NA,NA,NA,NA,NA,NA,NA,NA,NA,NA,NA,NA,NA,NA,NA
e040e,Shallow Question,html.Page,2_4_0_0,NA,NA,form submission,7464.9089999524,547675.0999999,547673.219,547689.891,555154.79999995,555155,2023-06-07T04:28:13Z,555155.474,Kultur,utamaduni,s,shetani,gerezani,mazingira,utamaduni,NA,NA,"c(""distractor1"", ""distractor2"", ""distractor3"")",NA,NA,NA,NA,NA,NA,NA,NA,NA,NA,NA,NA,NA,NA,NA,NA,NA,NA,NA
e040e,Save data screen,canvas.Screen,2_4_0_1,NA,NA,timeout,499.98699999996,555157.19999981,555139.105,555155.474,555639.332,555640.29999995,2023-06-07T04:28:14Z,555655.461,Kultur,utamaduni,s,shetani,gerezani,mazingira,NA,NA,1,"c(""distractor1"", ""distractor2"", ""distractor3"")",NA,NA,NA,NA,NA,NA,NA,NA,NA,NA,NA,NA,NA,NA,NA,NA,NA,NA,NA
e040e,shallow,flow.Sequence,2_4_0,NA,NA,completion,7949.4410000001,547675.0999999,547673.219,547689.891,555639.332,555641,2023-06-07T04:28:14Z,555655.461,Kultur,utamaduni,s,shetani,gerezani,mazingira,NA,NA,NA,"c(""distractor1"", ""distractor2"", ""distractor3"")",NA,NA,NA,NA,NA,NA,NA,NA,NA,NA,NA,NA,NA,NA,NA,NA,NA,NA,NA
e040e,task,flow.Sequence,2_4,NA,NA,completion,7949.4410000001,547675,547673.219,547689.891,555639.332,555641.29999995,2023-06-07T04:28:14Z,555655.461,Kultur,utamaduni,s,shetani,gerezani,mazingira,NA,NA,NA,"c(""distractor1"", ""distractor2"", ""distractor3"")",NA,NA,NA,NA,NA,NA,NA,NA,NA,NA,NA,NA,NA,NA,NA,NA,NA,NA,NA
e040e,Shallow Question,html.Page,2_5_0_0,NA,NA,form submission,8640.539,555641.5999999,555639.332,555655.461,564296,564296.19999981,2023-06-07T04:28:23Z,564305.092,Abrechnung,uhasibu,s,kusahihisha,mpambano,mashambulizi,mashambulizi,NA,NA,"c(""distractor1"", ""distractor2"", ""distractor3"")",NA,NA,NA,NA,NA,NA,NA,NA,NA,NA,NA,NA,NA,NA,NA,NA,NA,NA,NA
e040e,Save data screen,canvas.Screen,2_5_0_1,NA,NA,timeout,500.23100000003,564298.19999981,564288.148,564305.092,564788.694,564789.5999999,2023-06-07T04:28:23Z,564805.323,Abrechnung,uhasibu,s,kusahihisha,mpambano,mashambulizi,NA,NA,0,"c(""distractor1"", ""distractor2"", ""distractor3"")",NA,NA,NA,NA,NA,NA,NA,NA,NA,NA,NA,NA,NA,NA,NA,NA,NA,NA,NA
e040e,shallow,flow.Sequence,2_5_0,NA,NA,completion,9133.233,555641.5999999,555639.332,555655.461,564788.694,564790.19999981,2023-06-07T04:28:23Z,564805.323,Abrechnung,uhasibu,s,kusahihisha,mpambano,mashambulizi,NA,NA,NA,"c(""distractor1"", ""distractor2"", ""distractor3"")",NA,NA,NA,NA,NA,NA,NA,NA,NA,NA,NA,NA,NA,NA,NA,NA,NA,NA,NA
e040e,task,flow.Sequence,2_5,NA,NA,completion,9133.233,555641.39999986,555639.332,555655.461,564788.694,564790.39999986,2023-06-07T04:28:23Z,564805.323,Abrechnung,uhasibu,s,kusahihisha,mpambano,mashambulizi,NA,NA,NA,"c(""distractor1"", ""distractor2"", ""distractor3"")",NA,NA,NA,NA,NA,NA,NA,NA,NA,NA,NA,NA,NA,NA,NA,NA,NA,NA,NA
e040e,Shallow Question,html.Page,2_6_0_0,NA,NA,form submission,7593.4769999523,564790.69999981,564788.694,564805.323,572398.79999995,572399,2023-06-07T04:28:31Z,572404.185,Prüfung,mtihani,d,mkulima,mtizamo,ufumbuzi,ufumbuzi,NA,NA,"c(""distractor1"", ""distractor2"", ""distractor3"")",NA,NA,NA,NA,NA,NA,NA,NA,NA,NA,NA,NA,NA,NA,NA,NA,NA,NA,NA
e040e,Save data screen,canvas.Screen,2_6_0_1,NA,NA,timeout,500.06299999997,572401,572387.818,572404.185,572887.915,572888.89999986,2023-06-07T04:28:31Z,572904.248,Prüfung,mtihani,d,mkulima,mtizamo,ufumbuzi,NA,NA,0,"c(""distractor1"", ""distractor2"", ""distractor3"")",NA,NA,NA,NA,NA,NA,NA,NA,NA,NA,NA,NA,NA,NA,NA,NA,NA,NA,NA
e040e,shallow,flow.Sequence,2_6_0,NA,NA,completion,8082.5920000001,564790.69999981,564788.694,564805.323,572887.915,572889.29999995,2023-06-07T04:28:31Z,572904.248,Prüfung,mtihani,d,mkulima,mtizamo,ufumbuzi,NA,NA,NA,"c(""distractor1"", ""distractor2"", ""distractor3"")",NA,NA,NA,NA,NA,NA,NA,NA,NA,NA,NA,NA,NA,NA,NA,NA,NA,NA,NA
e040e,task,flow.Sequence,2_6,NA,NA,completion,8082.5920000001,564790.5999999,564788.694,564805.323,572887.915,572889.5999999,2023-06-07T04:28:31Z,572904.248,Prüfung,mtihani,d,mkulima,mtizamo,ufumbuzi,NA,NA,NA,"c(""distractor1"", ""distractor2"", ""distractor3"")",NA,NA,NA,NA,NA,NA,NA,NA,NA,NA,NA,NA,NA,NA,NA,NA,NA,NA,NA
e040e,Shallow Question,html.Page,2_7_0_0,NA,NA,form submission,4755.4519998092,572889.89999986,572887.915,572904.248,577659.69999981,577659.89999986,2023-06-07T04:28:36Z,577671.034,System,maongozi,d,chokochoko,nuksani,mitaani,maongozi,NA,NA,"c(""distractor1"", ""distractor2"", ""distractor3"")",NA,NA,NA,NA,NA,NA,NA,NA,NA,NA,NA,NA,NA,NA,NA,NA,NA,NA,NA
e040e,Save data screen,canvas.Screen,2_7_0_1,NA,NA,timeout,499.49100000004,577661.89999986,577653.855,577671.034,578154.079,578156,2023-06-07T04:28:36Z,578170.525,System,maongozi,d,chokochoko,nuksani,mitaani,NA,NA,1,"c(""distractor1"", ""distractor2"", ""distractor3"")",NA,NA,NA,NA,NA,NA,NA,NA,NA,NA,NA,NA,NA,NA,NA,NA,NA,NA,NA
e040e,shallow,flow.Sequence,2_7_0,NA,NA,completion,5249.831,572889.89999986,572887.915,572904.248,578154.079,578156.5,2023-06-07T04:28:36Z,578170.525,System,maongozi,d,chokochoko,nuksani,mitaani,NA,NA,NA,"c(""distractor1"", ""distractor2"", ""distractor3"")",NA,NA,NA,NA,NA,NA,NA,NA,NA,NA,NA,NA,NA,NA,NA,NA,NA,NA,NA
e040e,task,flow.Sequence,2_7,NA,NA,completion,5249.831,572889.79999995,572887.915,572904.248,578154.079,578156.89999986,2023-06-07T04:28:36Z,578170.525,System,maongozi,d,chokochoko,nuksani,mitaani,NA,NA,NA,"c(""distractor1"", ""distractor2"", ""distractor3"")",NA,NA,NA,NA,NA,NA,NA,NA,NA,NA,NA,NA,NA,NA,NA,NA,NA,NA,NA
e040e,Shallow Question,html.Page,2_8_0_0,NA,NA,form submission,4274.2749999523,578157.0999999,578154.079,578170.525,582444.79999995,582444.89999986,2023-06-07T04:28:41Z,582453.501,Kanzler,diwani,s,rasilmali,mahitaji,maabudu,diwani,NA,NA,"c(""distractor1"", ""distractor2"", ""distractor3"")",NA,NA,NA,NA,NA,NA,NA,NA,NA,NA,NA,NA,NA,NA,NA,NA,NA,NA,NA
e040e,Save data screen,canvas.Screen,2_8_0_1,NA,NA,timeout,500.02099999995,582447.0999999,582437.244,582453.501,582937.369,582938.29999995,2023-06-07T04:28:41Z,582953.522,Kanzler,diwani,s,rasilmali,mahitaji,maabudu,NA,NA,1,"c(""distractor1"", ""distractor2"", ""distractor3"")",NA,NA,NA,NA,NA,NA,NA,NA,NA,NA,NA,NA,NA,NA,NA,NA,NA,NA,NA
e040e,shallow,flow.Sequence,2_8_0,NA,NA,completion,4766.8439999999,578157,578154.079,578170.525,582937.369,582938.79999995,2023-06-07T04:28:41Z,582953.522,Kanzler,diwani,s,rasilmali,mahitaji,maabudu,NA,NA,NA,"c(""distractor1"", ""distractor2"", ""distractor3"")",NA,NA,NA,NA,NA,NA,NA,NA,NA,NA,NA,NA,NA,NA,NA,NA,NA,NA,NA
e040e,task,flow.Sequence,2_8,NA,NA,completion,4766.8439999999,578157,578154.079,578170.525,582937.369,582939.19999981,2023-06-07T04:28:41Z,582953.522,Kanzler,diwani,s,rasilmali,mahitaji,maabudu,NA,NA,NA,"c(""distractor1"", ""distractor2"", ""distractor3"")",NA,NA,NA,NA,NA,NA,NA,NA,NA,NA,NA,NA,NA,NA,NA,NA,NA,NA,NA
e040e,Shallow Question,html.Page,2_9_0_0,NA,NA,form submission,16999.478,582939.5999999,582937.369,582953.522,599953,599953.19999981,2023-06-07T04:28:58Z,599969.535,Angreifer,mshambulizi,d,kitengo,tasinia,usafirishaji,mshambulizi,NA,NA,"c(""distractor1"", ""distractor2"", ""distractor3"")",NA,NA,NA,NA,NA,NA,NA,NA,NA,NA,NA,NA,NA,NA,NA,NA,NA,NA,NA
e040e,Save data screen,canvas.Screen,2_9_0_1,NA,NA,timeout,499.87199999997,599955.29999995,599935.868,599969.535,600452.788,600453.69999981,2023-06-07T04:28:59Z,600469.407,Angreifer,mshambulizi,d,kitengo,tasinia,usafirishaji,NA,NA,1,"c(""distractor1"", ""distractor2"", ""distractor3"")",NA,NA,NA,NA,NA,NA,NA,NA,NA,NA,NA,NA,NA,NA,NA,NA,NA,NA,NA
e040e,shallow,flow.Sequence,2_9_0,NA,NA,completion,17499.266,582939.5,582937.369,582953.522,600452.788,600454.0999999,2023-06-07T04:28:59Z,600469.407,Angreifer,mshambulizi,d,kitengo,tasinia,usafirishaji,NA,NA,NA,"c(""distractor1"", ""distractor2"", ""distractor3"")",NA,NA,NA,NA,NA,NA,NA,NA,NA,NA,NA,NA,NA,NA,NA,NA,NA,NA,NA
e040e,task,flow.Sequence,2_9,NA,NA,completion,17499.266,582939.39999986,582937.369,582953.522,600452.788,600454.39999986,2023-06-07T04:28:59Z,600469.407,Angreifer,mshambulizi,d,kitengo,tasinia,usafirishaji,NA,NA,NA,"c(""distractor1"", ""distractor2"", ""distractor3"")",NA,NA,NA,NA,NA,NA,NA,NA,NA,NA,NA,NA,NA,NA,NA,NA,NA,NA,NA
e040e,Shallow Question,html.Page,2_10_0_0,NA,NA,form submission,12588.392999952,600454.5999999,600452.788,600469.407,613057.79999995,613058,2023-06-07T04:29:11Z,613068.145,Verzögerung,kuchelewa,s,mwakilishi,mwanauchumi,jaribio,kuchelewa,NA,NA,"c(""distractor1"", ""distractor2"", ""distractor3"")",NA,NA,NA,NA,NA,NA,NA,NA,NA,NA,NA,NA,NA,NA,NA,NA,NA,NA,NA
e040e,Save data screen,canvas.Screen,2_10_0_1,NA,NA,timeout,500.30999999994,613060.19999981,613051.435,613068.145,613551.814,613552.69999981,2023-06-07T04:29:12Z,613568.455,Verzögerung,kuchelewa,s,mwakilishi,mwanauchumi,jaribio,NA,NA,1,"c(""distractor1"", ""distractor2"", ""distractor3"")",NA,NA,NA,NA,NA,NA,NA,NA,NA,NA,NA,NA,NA,NA,NA,NA,NA,NA,NA
e040e,shallow,flow.Sequence,2_10_0,NA,NA,completion,13082.407,600454.5,600452.788,600469.407,613551.814,613553.0999999,2023-06-07T04:29:12Z,613568.455,Verzögerung,kuchelewa,s,mwakilishi,mwanauchumi,jaribio,NA,NA,NA,"c(""distractor1"", ""distractor2"", ""distractor3"")",NA,NA,NA,NA,NA,NA,NA,NA,NA,NA,NA,NA,NA,NA,NA,NA,NA,NA,NA
e040e,task,flow.Sequence,2_10,NA,NA,completion,13082.407,600454.5,600452.788,600469.407,613551.814,613553.39999986,2023-06-07T04:29:12Z,613568.455,Verzögerung,kuchelewa,s,mwakilishi,mwanauchumi,jaribio,NA,NA,NA,"c(""distractor1"", ""distractor2"", ""distractor3"")",NA,NA,NA,NA,NA,NA,NA,NA,NA,NA,NA,NA,NA,NA,NA,NA,NA,NA,NA
e040e,Shallow Question,html.Page,2_11_0_0,NA,NA,form submission,3859.3449999524,613553.69999981,613551.814,613568.455,617427.79999995,617428,2023-06-07T04:29:16Z,617434.526,Übersicht,kilindo,s,mgusano,chipukizi,kulinganisha,kilindo,NA,NA,"c(""distractor1"", ""distractor2"", ""distractor3"")",NA,NA,NA,NA,NA,NA,NA,NA,NA,NA,NA,NA,NA,NA,NA,NA,NA,NA,NA
e040e,Save data screen,canvas.Screen,2_11_0_1,NA,NA,timeout,500.04000000004,617429.89999986,617417.916,617434.526,617917.965,617919,2023-06-07T04:29:16Z,617934.566,Übersicht,kilindo,s,mgusano,chipukizi,kulinganisha,NA,NA,1,"c(""distractor1"", ""distractor2"", ""distractor3"")",NA,NA,NA,NA,NA,NA,NA,NA,NA,NA,NA,NA,NA,NA,NA,NA,NA,NA,NA
e040e,shallow,flow.Sequence,2_11_0,NA,NA,completion,4349.51,613553.5999999,613551.814,613568.455,617917.965,617919.39999986,2023-06-07T04:29:16Z,617934.566,Übersicht,kilindo,s,mgusano,chipukizi,kulinganisha,NA,NA,NA,"c(""distractor1"", ""distractor2"", ""distractor3"")",NA,NA,NA,NA,NA,NA,NA,NA,NA,NA,NA,NA,NA,NA,NA,NA,NA,NA,NA
e040e,task,flow.Sequence,2_11,NA,NA,completion,4349.51,613553.5,613551.814,613568.455,617917.965,617919.5999999,2023-06-07T04:29:16Z,617934.566,Übersicht,kilindo,s,mgusano,chipukizi,kulinganisha,NA,NA,NA,"c(""distractor1"", ""distractor2"", ""distractor3"")",NA,NA,NA,NA,NA,NA,NA,NA,NA,NA,NA,NA,NA,NA,NA,NA,NA,NA,NA
e040e,Shallow Question,html.Page,2_12_0_0,NA,NA,form submission,13371.833999857,617919.89999986,617917.965,617934.566,631306.39999986,631306.5999999,2023-06-07T04:29:30Z,631316.828,Aufstand,ugomaji,d,mazidio,msingi,kujieleza,ugomaji,NA,NA,"c(""distractor1"", ""distractor2"", ""distractor3"")",NA,NA,NA,NA,NA,NA,NA,NA,NA,NA,NA,NA,NA,NA,NA,NA,NA,NA,NA
e040e,Save data screen,canvas.Screen,2_12_0_1,NA,NA,timeout,500.30599999998,631308.5999999,631300.492,631316.828,631800.475,631801.29999995,2023-06-07T04:29:30Z,631817.134,Aufstand,ugomaji,d,mazidio,msingi,kujieleza,NA,NA,1,"c(""distractor1"", ""distractor2"", ""distractor3"")",NA,NA,NA,NA,NA,NA,NA,NA,NA,NA,NA,NA,NA,NA,NA,NA,NA,NA,NA
e040e,shallow,flow.Sequence,2_12_0,NA,NA,completion,13865.909,617919.89999986,617917.965,617934.566,631800.475,631801.69999981,2023-06-07T04:29:30Z,631817.134,Aufstand,ugomaji,d,mazidio,msingi,kujieleza,NA,NA,NA,"c(""distractor1"", ""distractor2"", ""distractor3"")",NA,NA,NA,NA,NA,NA,NA,NA,NA,NA,NA,NA,NA,NA,NA,NA,NA,NA,NA
e040e,task,flow.Sequence,2_12,NA,NA,completion,13865.909,617919.89999986,617917.965,617934.566,631800.475,631802,2023-06-07T04:29:30Z,631817.134,Aufstand,ugomaji,d,mazidio,msingi,kujieleza,NA,NA,NA,"c(""distractor1"", ""distractor2"", ""distractor3"")",NA,NA,NA,NA,NA,NA,NA,NA,NA,NA,NA,NA,NA,NA,NA,NA,NA,NA,NA
e040e,Shallow Question,html.Page,2_13_0_0,NA,NA,form submission,6858.6659999524,631802.29999995,631800.475,631817.134,638675.79999995,638676,2023-06-07T04:29:37Z,638682.719,Kreativität,ubunifu,d,mratibu,mwendelezo,makubaliano,ubunifu,NA,NA,"c(""distractor1"", ""distractor2"", ""distractor3"")",NA,NA,NA,NA,NA,NA,NA,NA,NA,NA,NA,NA,NA,NA,NA,NA,NA,NA,NA
e040e,Save data screen,canvas.Screen,2_13_0_1,NA,NA,timeout,499.97699999996,638677.89999986,638666.075,638682.719,639166.668,639167.19999981,2023-06-07T04:29:38Z,639182.696,Kreativität,ubunifu,d,mratibu,mwendelezo,makubaliano,NA,NA,1,"c(""distractor1"", ""distractor2"", ""distractor3"")",NA,NA,NA,NA,NA,NA,NA,NA,NA,NA,NA,NA,NA,NA,NA,NA,NA,NA,NA
e040e,shallow,flow.Sequence,2_13_0,NA,NA,completion,7349.534,631802.29999995,631800.475,631817.134,639166.668,639167.39999986,2023-06-07T04:29:38Z,639182.696,Kreativität,ubunifu,d,mratibu,mwendelezo,makubaliano,NA,NA,NA,"c(""distractor1"", ""distractor2"", ""distractor3"")",NA,NA,NA,NA,NA,NA,NA,NA,NA,NA,NA,NA,NA,NA,NA,NA,NA,NA,NA
e040e,task,flow.Sequence,2_13,NA,NA,completion,7349.534,631802.0999999,631800.475,631817.134,639166.668,639167.39999986,2023-06-07T04:29:38Z,639182.696,Kreativität,ubunifu,d,mratibu,mwendelezo,makubaliano,NA,NA,NA,"c(""distractor1"", ""distractor2"", ""distractor3"")",NA,NA,NA,NA,NA,NA,NA,NA,NA,NA,NA,NA,NA,NA,NA,NA,NA,NA,NA
e040e,Shallow Question,html.Page,2_14_0_0,NA,NA,form submission,7889.5039998093,639167.5999999,639166.668,639182.696,647072.19999981,647072.39999986,2023-06-07T04:29:45Z,647082.164,Lawine,banguko,d,maambukizi,usuluhishi,chekechea,banguko,NA,NA,"c(""distractor1"", ""distractor2"", ""distractor3"")",NA,NA,NA,NA,NA,NA,NA,NA,NA,NA,NA,NA,NA,NA,NA,NA,NA,NA,NA
e040e,Save data screen,canvas.Screen,2_14_0_1,NA,NA,timeout,499.978,647074.39999986,647065.406,647082.164,647565.768,647566.79999995,2023-06-07T04:29:46Z,647582.142,Lawine,banguko,d,maambukizi,usuluhishi,chekechea,NA,NA,1,"c(""distractor1"", ""distractor2"", ""distractor3"")",NA,NA,NA,NA,NA,NA,NA,NA,NA,NA,NA,NA,NA,NA,NA,NA,NA,NA,NA
e040e,shallow,flow.Sequence,2_14_0,NA,NA,completion,8383.072,639167.5999999,639166.668,639182.696,647565.768,647567.0999999,2023-06-07T04:29:46Z,647582.142,Lawine,banguko,d,maambukizi,usuluhishi,chekechea,NA,NA,NA,"c(""distractor1"", ""distractor2"", ""distractor3"")",NA,NA,NA,NA,NA,NA,NA,NA,NA,NA,NA,NA,NA,NA,NA,NA,NA,NA,NA
e040e,task,flow.Sequence,2_14,NA,NA,completion,8383.072,639167.5999999,639166.668,639182.696,647565.768,647567.39999986,2023-06-07T04:29:46Z,647582.142,Lawine,banguko,d,maambukizi,usuluhishi,chekechea,NA,NA,NA,"c(""distractor1"", ""distractor2"", ""distractor3"")",NA,NA,NA,NA,NA,NA,NA,NA,NA,NA,NA,NA,NA,NA,NA,NA,NA,NA,NA
e040e,Shallow Question,html.Page,2_15_0_0,NA,NA,form submission,6763.9579999046,647567.79999995,647565.768,647582.142,654346.0999999,654346.19999981,2023-06-07T04:29:53Z,654348.307,Sänger,mwimbaji,d,msichana,shughuli,mshirika,mshirika,NA,NA,"c(""distractor1"", ""distractor2"", ""distractor3"")",NA,NA,NA,NA,NA,NA,NA,NA,NA,NA,NA,NA,NA,NA,NA,NA,NA,NA,NA
e040e,Save data screen,canvas.Screen,2_15_0_1,NA,NA,timeout,499.95899999992,654348.39999986,654331.621,654348.307,654832.244,654833.0999999,2023-06-07T04:29:53Z,654848.266,Sänger,mwimbaji,d,msichana,shughuli,mshirika,NA,NA,0,"c(""distractor1"", ""distractor2"", ""distractor3"")",NA,NA,NA,NA,NA,NA,NA,NA,NA,NA,NA,NA,NA,NA,NA,NA,NA,NA,NA
e040e,shallow,flow.Sequence,2_15_0,NA,NA,completion,7250.102,647567.69999981,647565.768,647582.142,654832.244,654833.69999981,2023-06-07T04:29:53Z,654848.266,Sänger,mwimbaji,d,msichana,shughuli,mshirika,NA,NA,NA,"c(""distractor1"", ""distractor2"", ""distractor3"")",NA,NA,NA,NA,NA,NA,NA,NA,NA,NA,NA,NA,NA,NA,NA,NA,NA,NA,NA
e040e,task,flow.Sequence,2_15,NA,NA,completion,7250.102,647567.5999999,647565.768,647582.142,654832.244,654834.29999995,2023-06-07T04:29:53Z,654848.266,Sänger,mwimbaji,d,msichana,shughuli,mshirika,NA,NA,NA,"c(""distractor1"", ""distractor2"", ""distractor3"")",NA,NA,NA,NA,NA,NA,NA,NA,NA,NA,NA,NA,NA,NA,NA,NA,NA,NA,NA
e040e,retrieval block 2 (multiple choice),flow.Loop,2,NA,NA,completion,142756.737,512061.29999995,512059.179,512075.507,654832.244,654834.79999995,2023-06-07T04:29:53Z,654848.266,NA,NA,NA,NA,NA,NA,NA,NA,NA,"c(""distractor1"", ""distractor2"", ""distractor3"")",NA,NA,NA,NA,NA,NA,NA,NA,NA,NA,NA,NA,NA,NA,NA,NA,NA,NA,NA
e040e,End,canvas.Screen,3,NA,keypress(Space),response,1448.633999857,654835,654832.244,654848.266,656296.89999986,656298.39999986,2023-06-07T04:29:55Z,656314.945,NA,NA,NA,NA,NA,NA,NA,NA,NA,NULL,NA,NA,NA,NA,NA,NA,NA,NA,NA,NA,NA,NA,NA,NA,NA,NA,NA,NA,NA
e040e,root,flow.Sequence,NA,NA,NA,completion,500612.42199986,4228.5,155650.992,155684.478,656296.89999986,656299.19999981,2023-06-07T04:29:55Z,656314.945,NA,NA,NA,NA,NA,NA,NA,NA,NA,NULL,NA,NA,NA,NA,NA,NA,NA,NA,NA,NA,NA,NA,NA,NA,NA,NA,NA,NA,NA
