observation,sender,sender_type,sender_id,response,response_action,ended_on,duration,time_run,time_render,time_show,time_end,time_commit,timestamp,time_switch,german,swahili,enc,distractor1,distractor2,distractor3,response_2,x,correct,distractors,url_vp,url_sess,meta_labjs_version,meta_location,meta_user_agent,meta_platform,meta_language,meta_locale,meta_time_zone,meta_timezone_offset,meta_screen_width,meta_screen_height,meta_scroll_width,meta_scroll_height,meta_window_inner_width,meta_window_inner_height,meta_device_pixel_ratio,meta_labjs_build_flavor,meta_labjs_build_commit
c0371,Introduction delayed retrieval,canvas.Screen,0,weiter,keypress(Space),response,1169.58,1014,1009.74,1026.42,2196,2243,2024-06-24T23:21:23Z,2243.8,NA,NA,NA,NA,NA,NA,NA,NA,NA,NULL,159,4,20.2.4,https://neurocog.fernuni.ch/studies/vweber/jbaenninger/delayed%202/index.html?vp=160&sess=4,Mozilla/5.0 (Windows NT 10.0; Win64; x64; rv:127.0) Gecko/20100101 Firefox/127.0,Win32,de,de-CH,Europe/Zurich,-120,1280,800,1280,591,1280,639,1.5,production,f5b4a49f956347addd546a832a3327688c2c0fef
c0371,Deep Question,html.Page,1_0_0_0,NA,NA,form submission,3922.2,2244,2239.56,2243.8,6166,6166,2024-06-24T23:21:27Z,6164.34,Verpackung,ufungaji,s,uhusiano,upimaji,uchunguzi,NA,NA,NA,NULL,NA,NA,NA,NA,NA,NA,NA,NA,NA,NA,NA,NA,NA,NA,NA,NA,NA,NA,NA
c0371,Save data screen,canvas.Screen,1_0_0_1,NA,NA,timeout,500.3,6167,6161.1,6164.34,6647.96,6649,2024-06-24T23:21:27Z,6664.64,Verpackung,ufungaji,s,uhusiano,upimaji,uchunguzi,NA,NA,0,NULL,NA,NA,NA,NA,NA,NA,NA,NA,NA,NA,NA,NA,NA,NA,NA,NA,NA,NA,NA
c0371,deep,flow.Sequence,1_0_0,NA,NA,completion,4404.16,2244,2239.56,2243.8,6647.96,6650,2024-06-24T23:21:27Z,6664.64,Verpackung,ufungaji,s,uhusiano,upimaji,uchunguzi,NA,NA,NA,NULL,NA,NA,NA,NA,NA,NA,NA,NA,NA,NA,NA,NA,NA,NA,NA,NA,NA,NA,NA
c0371,task,flow.Sequence,1_0,NA,NA,completion,4404.16,2244,2239.56,2243.8,6647.96,6651,2024-06-24T23:21:27Z,6664.64,Verpackung,ufungaji,s,uhusiano,upimaji,uchunguzi,NA,NA,NA,NULL,NA,NA,NA,NA,NA,NA,NA,NA,NA,NA,NA,NA,NA,NA,NA,NA,NA,NA,NA
c0371,Deep Question,html.Page,1_1_0_0,NA,NA,form submission,5472.36,6651,6647.96,6664.64,12137,12138,2024-06-24T23:21:33Z,12136.02,Schlange,foleni,d,uvumilivu,uteuzi,muuzaji,foleni,NA,NA,NULL,NA,NA,NA,NA,NA,NA,NA,NA,NA,NA,NA,NA,NA,NA,NA,NA,NA,NA,NA
c0371,Save data screen,canvas.Screen,1_1_0_1,NA,NA,timeout,500.3,12143,12132.36,12136.02,12619.64,12622,2024-06-24T23:21:33Z,12636.32,Schlange,foleni,d,uvumilivu,uteuzi,muuzaji,NA,NA,1,NULL,NA,NA,NA,NA,NA,NA,NA,NA,NA,NA,NA,NA,NA,NA,NA,NA,NA,NA,NA
c0371,deep,flow.Sequence,1_1_0,NA,NA,completion,5955,6651,6647.96,6664.64,12619.64,12625,2024-06-24T23:21:33Z,12636.32,Schlange,foleni,d,uvumilivu,uteuzi,muuzaji,NA,NA,NA,NULL,NA,NA,NA,NA,NA,NA,NA,NA,NA,NA,NA,NA,NA,NA,NA,NA,NA,NA,NA
c0371,task,flow.Sequence,1_1,NA,NA,completion,5955,6651,6647.96,6664.64,12619.64,12625,2024-06-24T23:21:33Z,12636.32,Schlange,foleni,d,uvumilivu,uteuzi,muuzaji,NA,NA,NA,NULL,NA,NA,NA,NA,NA,NA,NA,NA,NA,NA,NA,NA,NA,NA,NA,NA,NA,NA,NA
c0371,Deep Question,html.Page,1_2_0_0,NA,NA,form submission,4293.68,12626,12619.64,12636.32,16930,16930,2024-06-24T23:21:38Z,16939.62,Wohlstand,mafanikio,d,chimbuko,kumbuko,mapwaji,NA,NA,NA,NULL,NA,NA,NA,NA,NA,NA,NA,NA,NA,NA,NA,NA,NA,NA,NA,NA,NA,NA,NA
c0371,Save data screen,canvas.Screen,1_2_0_1,NA,NA,timeout,500.3,16932,16925.66,16939.62,17423.24,17426,2024-06-24T23:21:38Z,17439.92,Wohlstand,mafanikio,d,chimbuko,kumbuko,mapwaji,NA,NA,0,NULL,NA,NA,NA,NA,NA,NA,NA,NA,NA,NA,NA,NA,NA,NA,NA,NA,NA,NA,NA
c0371,deep,flow.Sequence,1_2_0,NA,NA,completion,4786.92,12626,12619.64,12636.32,17423.24,17426,2024-06-24T23:21:38Z,17439.92,Wohlstand,mafanikio,d,chimbuko,kumbuko,mapwaji,NA,NA,NA,NULL,NA,NA,NA,NA,NA,NA,NA,NA,NA,NA,NA,NA,NA,NA,NA,NA,NA,NA,NA
c0371,task,flow.Sequence,1_2,NA,NA,completion,4786.92,12626,12619.64,12636.32,17423.24,17427,2024-06-24T23:21:38Z,17439.92,Wohlstand,mafanikio,d,chimbuko,kumbuko,mapwaji,NA,NA,NA,NULL,NA,NA,NA,NA,NA,NA,NA,NA,NA,NA,NA,NA,NA,NA,NA,NA,NA,NA,NA
c0371,Deep Question,html.Page,1_3_0_0,NA,NA,form submission,11744.08,17427,17423.24,17439.92,29184,29184,2024-06-24T23:21:50Z,29183.16,Schüler,mwanafunzi,s,mwekezaji,matumizi,uaminifu,mwanfunzi,NA,NA,NULL,NA,NA,NA,NA,NA,NA,NA,NA,NA,NA,NA,NA,NA,NA,NA,NA,NA,NA,NA
c0371,Save data screen,canvas.Screen,1_3_0_1,NA,NA,timeout,500.3,29186,29179.98,29183.16,29666.78,29668,2024-06-24T23:21:50Z,29683.46,Schüler,mwanafunzi,s,mwekezaji,matumizi,uaminifu,NA,NA,0,NULL,NA,NA,NA,NA,NA,NA,NA,NA,NA,NA,NA,NA,NA,NA,NA,NA,NA,NA,NA
c0371,deep,flow.Sequence,1_3_0,NA,NA,completion,12226.86,17427,17423.24,17439.92,29666.78,29669,2024-06-24T23:21:50Z,29683.46,Schüler,mwanafunzi,s,mwekezaji,matumizi,uaminifu,NA,NA,NA,NULL,NA,NA,NA,NA,NA,NA,NA,NA,NA,NA,NA,NA,NA,NA,NA,NA,NA,NA,NA
c0371,task,flow.Sequence,1_3,NA,NA,completion,12226.86,17427,17423.24,17439.92,29666.78,29669,2024-06-24T23:21:50Z,29683.46,Schüler,mwanafunzi,s,mwekezaji,matumizi,uaminifu,NA,NA,NA,NULL,NA,NA,NA,NA,NA,NA,NA,NA,NA,NA,NA,NA,NA,NA,NA,NA,NA,NA,NA
c0371,Deep Question,html.Page,1_4_0_0,NA,NA,form submission,5641.54,29669,29666.78,29683.46,35325,35326,2024-06-24T23:21:56Z,35338.46,Tester,wanaojaribu,s,sherti,sihiri,mlipuko,sherti,NA,NA,NULL,NA,NA,NA,NA,NA,NA,NA,NA,NA,NA,NA,NA,NA,NA,NA,NA,NA,NA,NA
c0371,Save data screen,canvas.Screen,1_4_0_1,NA,NA,timeout,500.3,35327,35322.02,35338.46,35822.08,35823,2024-06-24T23:21:57Z,35838.76,Tester,wanaojaribu,s,sherti,sihiri,mlipuko,NA,NA,0,NULL,NA,NA,NA,NA,NA,NA,NA,NA,NA,NA,NA,NA,NA,NA,NA,NA,NA,NA,NA
c0371,deep,flow.Sequence,1_4_0,NA,NA,completion,6138.62,29669,29666.78,29683.46,35822.08,35824,2024-06-24T23:21:57Z,35838.76,Tester,wanaojaribu,s,sherti,sihiri,mlipuko,NA,NA,NA,NULL,NA,NA,NA,NA,NA,NA,NA,NA,NA,NA,NA,NA,NA,NA,NA,NA,NA,NA,NA
c0371,task,flow.Sequence,1_4,NA,NA,completion,6138.62,29669,29666.78,29683.46,35822.08,35824,2024-06-24T23:21:57Z,35838.76,Tester,wanaojaribu,s,sherti,sihiri,mlipuko,NA,NA,NA,NULL,NA,NA,NA,NA,NA,NA,NA,NA,NA,NA,NA,NA,NA,NA,NA,NA,NA,NA,NA
c0371,Deep Question,html.Page,1_5_0_0,NA,NA,form submission,3852.24,35824,35822.08,35838.76,39691,39691,2024-06-24T23:22:00Z,39691.96,Vermutung,udhanifu,s,haramia,tikisho,itifaki,NA,NA,NA,NULL,NA,NA,NA,NA,NA,NA,NA,NA,NA,NA,NA,NA,NA,NA,NA,NA,NA,NA,NA
c0371,Save data screen,canvas.Screen,1_5_0_1,NA,NA,timeout,500.5,39693,39687.48,39691.96,40175.78,40178,2024-06-24T23:22:01Z,40192.46,Vermutung,udhanifu,s,haramia,tikisho,itifaki,NA,NA,0,NULL,NA,NA,NA,NA,NA,NA,NA,NA,NA,NA,NA,NA,NA,NA,NA,NA,NA,NA,NA
c0371,deep,flow.Sequence,1_5_0,NA,NA,completion,4337.02,35824,35822.08,35838.76,40175.78,40178,2024-06-24T23:22:01Z,40192.46,Vermutung,udhanifu,s,haramia,tikisho,itifaki,NA,NA,NA,NULL,NA,NA,NA,NA,NA,NA,NA,NA,NA,NA,NA,NA,NA,NA,NA,NA,NA,NA,NA
c0371,task,flow.Sequence,1_5,NA,NA,completion,4337.02,35824,35822.08,35838.76,40175.78,40178,2024-06-24T23:22:01Z,40192.46,Vermutung,udhanifu,s,haramia,tikisho,itifaki,NA,NA,NA,NULL,NA,NA,NA,NA,NA,NA,NA,NA,NA,NA,NA,NA,NA,NA,NA,NA,NA,NA,NA
c0371,Deep Question,html.Page,1_6_0_0,NA,NA,form submission,15609.54,40178,40175.78,40192.46,55802,55803,2024-06-24T23:22:17Z,55805.5,Ergänzung,kijalizo,d,ulaghai,mustarehe,matangazo,NA,NA,NA,NULL,NA,NA,NA,NA,NA,NA,NA,NA,NA,NA,NA,NA,NA,NA,NA,NA,NA,NA,NA
c0371,Save data screen,canvas.Screen,1_6_0_1,NA,NA,timeout,500.34,55804,55798.16,55805.5,56289.16,56291,2024-06-24T23:22:17Z,56305.84,Ergänzung,kijalizo,d,ulaghai,mustarehe,matangazo,NA,NA,0,NULL,NA,NA,NA,NA,NA,NA,NA,NA,NA,NA,NA,NA,NA,NA,NA,NA,NA,NA,NA
c0371,deep,flow.Sequence,1_6_0,NA,NA,completion,16096.7,40178,40175.78,40192.46,56289.16,56291,2024-06-24T23:22:17Z,56305.84,Ergänzung,kijalizo,d,ulaghai,mustarehe,matangazo,NA,NA,NA,NULL,NA,NA,NA,NA,NA,NA,NA,NA,NA,NA,NA,NA,NA,NA,NA,NA,NA,NA,NA
c0371,task,flow.Sequence,1_6,NA,NA,completion,16096.7,40178,40175.78,40192.46,56289.16,56292,2024-06-24T23:22:17Z,56305.84,Ergänzung,kijalizo,d,ulaghai,mustarehe,matangazo,NA,NA,NA,NULL,NA,NA,NA,NA,NA,NA,NA,NA,NA,NA,NA,NA,NA,NA,NA,NA,NA,NA,NA
c0371,Deep Question,html.Page,1_7_0_0,NA,NA,form submission,9678.16,56292,56289.16,56305.84,65984,65984,2024-06-24T23:22:27Z,65997.1,Fenster,dirisha,d,walakini,tasawari,maarifa,diwana,NA,NA,NULL,NA,NA,NA,NA,NA,NA,NA,NA,NA,NA,NA,NA,NA,NA,NA,NA,NA,NA,NA
c0371,Save data screen,canvas.Screen,1_7_0_1,NA,NA,timeout,500.29999999999,65985,65981.22,65997.1,66480.72,66483,2024-06-24T23:22:27Z,66497.4,Fenster,dirisha,d,walakini,tasawari,maarifa,NA,NA,0,NULL,NA,NA,NA,NA,NA,NA,NA,NA,NA,NA,NA,NA,NA,NA,NA,NA,NA,NA,NA
c0371,deep,flow.Sequence,1_7_0,NA,NA,completion,10174.88,56292,56289.16,56305.84,66480.72,66483,2024-06-24T23:22:27Z,66497.4,Fenster,dirisha,d,walakini,tasawari,maarifa,NA,NA,NA,NULL,NA,NA,NA,NA,NA,NA,NA,NA,NA,NA,NA,NA,NA,NA,NA,NA,NA,NA,NA
c0371,task,flow.Sequence,1_7,NA,NA,completion,10174.88,56292,56289.16,56305.84,66480.72,66483,2024-06-24T23:22:27Z,66497.4,Fenster,dirisha,d,walakini,tasawari,maarifa,NA,NA,NA,NULL,NA,NA,NA,NA,NA,NA,NA,NA,NA,NA,NA,NA,NA,NA,NA,NA,NA,NA,NA
c0371,Deep Question,html.Page,1_8_0_0,NA,NA,form submission,5977.6,66483,66480.72,66497.4,72475,72477,2024-06-24T23:22:33Z,72485.78,Vergnügen,kichekesho,s,dubwana,mpanuko,mtesaji,NA,NA,NA,NULL,NA,NA,NA,NA,NA,NA,NA,NA,NA,NA,NA,NA,NA,NA,NA,NA,NA,NA,NA
c0371,Save data screen,canvas.Screen,1_8_0_1,NA,NA,timeout,500.56,72483,72470.32,72485.78,72969.66,72971,2024-06-24T23:22:34Z,72986.34,Vergnügen,kichekesho,s,dubwana,mpanuko,mtesaji,NA,NA,0,NULL,NA,NA,NA,NA,NA,NA,NA,NA,NA,NA,NA,NA,NA,NA,NA,NA,NA,NA,NA
c0371,deep,flow.Sequence,1_8_0,NA,NA,completion,6472.26,66483,66480.72,66497.4,72969.66,72972,2024-06-24T23:22:34Z,72986.34,Vergnügen,kichekesho,s,dubwana,mpanuko,mtesaji,NA,NA,NA,NULL,NA,NA,NA,NA,NA,NA,NA,NA,NA,NA,NA,NA,NA,NA,NA,NA,NA,NA,NA
c0371,task,flow.Sequence,1_8,NA,NA,completion,6472.26,66483,66480.72,66497.4,72969.66,72972,2024-06-24T23:22:34Z,72986.34,Vergnügen,kichekesho,s,dubwana,mpanuko,mtesaji,NA,NA,NA,NULL,NA,NA,NA,NA,NA,NA,NA,NA,NA,NA,NA,NA,NA,NA,NA,NA,NA,NA,NA
c0371,Deep Question,html.Page,1_9_0_0,NA,NA,form submission,2005.66,72972,72969.66,72986.34,74992,74992,2024-06-24T23:22:36Z,75004.56,Notfall,dharura,s,rairai,malalamiko,ahueni,NA,NA,NA,NULL,NA,NA,NA,NA,NA,NA,NA,NA,NA,NA,NA,NA,NA,NA,NA,NA,NA,NA,NA
c0371,Save data screen,canvas.Screen,1_9_0_1,NA,NA,timeout,500.3,74993,74988.48,75004.56,75488.18,75490,2024-06-24T23:22:36Z,75504.86,Notfall,dharura,s,rairai,malalamiko,ahueni,NA,NA,0,NULL,NA,NA,NA,NA,NA,NA,NA,NA,NA,NA,NA,NA,NA,NA,NA,NA,NA,NA,NA
c0371,deep,flow.Sequence,1_9_0,NA,NA,completion,2501.84,72972,72969.66,72986.34,75488.18,75491,2024-06-24T23:22:36Z,75504.86,Notfall,dharura,s,rairai,malalamiko,ahueni,NA,NA,NA,NULL,NA,NA,NA,NA,NA,NA,NA,NA,NA,NA,NA,NA,NA,NA,NA,NA,NA,NA,NA
c0371,task,flow.Sequence,1_9,NA,NA,completion,2501.84,72972,72969.66,72986.34,75488.18,75492,2024-06-24T23:22:36Z,75504.86,Notfall,dharura,s,rairai,malalamiko,ahueni,NA,NA,NA,NULL,NA,NA,NA,NA,NA,NA,NA,NA,NA,NA,NA,NA,NA,NA,NA,NA,NA,NA,NA
c0371,Deep Question,html.Page,1_10_0_0,NA,NA,form submission,8984.14,75492,75488.18,75504.86,84489,84490,2024-06-24T23:22:45Z,84495.8,Spionage,upelelezi,d,maslahi,utokazo,magangao,umpelezi,NA,NA,NULL,NA,NA,NA,NA,NA,NA,NA,NA,NA,NA,NA,NA,NA,NA,NA,NA,NA,NA,NA
c0371,Save data screen,canvas.Screen,1_10_0_1,NA,NA,timeout,500.3,84491,84485.16,84495.8,84979.42,84981,2024-06-24T23:22:46Z,84996.1,Spionage,upelelezi,d,maslahi,utokazo,magangao,NA,NA,0,NULL,NA,NA,NA,NA,NA,NA,NA,NA,NA,NA,NA,NA,NA,NA,NA,NA,NA,NA,NA
c0371,deep,flow.Sequence,1_10_0,NA,NA,completion,9474.56,75492,75488.18,75504.86,84979.42,84982,2024-06-24T23:22:46Z,84996.1,Spionage,upelelezi,d,maslahi,utokazo,magangao,NA,NA,NA,NULL,NA,NA,NA,NA,NA,NA,NA,NA,NA,NA,NA,NA,NA,NA,NA,NA,NA,NA,NA
c0371,task,flow.Sequence,1_10,NA,NA,completion,9474.56,75492,75488.18,75504.86,84979.42,84982,2024-06-24T23:22:46Z,84996.1,Spionage,upelelezi,d,maslahi,utokazo,magangao,NA,NA,NA,NULL,NA,NA,NA,NA,NA,NA,NA,NA,NA,NA,NA,NA,NA,NA,NA,NA,NA,NA,NA
c0371,Deep Question,html.Page,1_11_0_0,NA,NA,form submission,1894.9,84983,84979.42,84996.1,86891,86891,2024-06-24T23:22:48Z,86897.78,Inhalt,yaliyomo,s,kishawishi,hifadhi,kutembea,NA,NA,NA,NULL,NA,NA,NA,NA,NA,NA,NA,NA,NA,NA,NA,NA,NA,NA,NA,NA,NA,NA,NA
c0371,Save data screen,canvas.Screen,1_11_0_1,NA,NA,timeout,500.3,86892,86887.48,86897.78,87381.4,87383,2024-06-24T23:22:48Z,87398.08,Inhalt,yaliyomo,s,kishawishi,hifadhi,kutembea,NA,NA,0,NULL,NA,NA,NA,NA,NA,NA,NA,NA,NA,NA,NA,NA,NA,NA,NA,NA,NA,NA,NA
c0371,deep,flow.Sequence,1_11_0,NA,NA,completion,2385.3,84983,84979.42,84996.1,87381.4,87383,2024-06-24T23:22:48Z,87398.08,Inhalt,yaliyomo,s,kishawishi,hifadhi,kutembea,NA,NA,NA,NULL,NA,NA,NA,NA,NA,NA,NA,NA,NA,NA,NA,NA,NA,NA,NA,NA,NA,NA,NA
c0371,task,flow.Sequence,1_11,NA,NA,completion,2385.3,84983,84979.42,84996.1,87381.4,87383,2024-06-24T23:22:48Z,87398.08,Inhalt,yaliyomo,s,kishawishi,hifadhi,kutembea,NA,NA,NA,NULL,NA,NA,NA,NA,NA,NA,NA,NA,NA,NA,NA,NA,NA,NA,NA,NA,NA,NA,NA
c0371,Deep Question,html.Page,1_12_0_0,NA,NA,form submission,6353.92,87383,87381.4,87398.08,93752,93752,2024-06-24T23:22:55Z,93753.32,Schock,mshtuko,d,biashara,kukataza,vichekesho,mshoka,NA,NA,NULL,NA,NA,NA,NA,NA,NA,NA,NA,NA,NA,NA,NA,NA,NA,NA,NA,NA,NA,NA
c0371,Save data screen,canvas.Screen,1_12_0_1,NA,NA,timeout,500.48,93753,93748.14,93753.32,94237.12,94238,2024-06-24T23:22:55Z,94253.8,Schock,mshtuko,d,biashara,kukataza,vichekesho,NA,NA,0,NULL,NA,NA,NA,NA,NA,NA,NA,NA,NA,NA,NA,NA,NA,NA,NA,NA,NA,NA,NA
c0371,deep,flow.Sequence,1_12_0,NA,NA,completion,6839.04,87383,87381.4,87398.08,94237.12,94239,2024-06-24T23:22:55Z,94253.8,Schock,mshtuko,d,biashara,kukataza,vichekesho,NA,NA,NA,NULL,NA,NA,NA,NA,NA,NA,NA,NA,NA,NA,NA,NA,NA,NA,NA,NA,NA,NA,NA
c0371,task,flow.Sequence,1_12,NA,NA,completion,6839.04,87383,87381.4,87398.08,94237.12,94239,2024-06-24T23:22:55Z,94253.8,Schock,mshtuko,d,biashara,kukataza,vichekesho,NA,NA,NA,NULL,NA,NA,NA,NA,NA,NA,NA,NA,NA,NA,NA,NA,NA,NA,NA,NA,NA,NA,NA
c0371,Deep Question,html.Page,1_13_0_0,NA,NA,form submission,3046.2,94240,94237.12,94253.8,97300,97300,2024-06-24T23:22:58Z,97306.56,Hoffnung,matarajio,s,kutaalamika,uratibu,mvumbuzi,NA,NA,NA,NULL,NA,NA,NA,NA,NA,NA,NA,NA,NA,NA,NA,NA,NA,NA,NA,NA,NA,NA,NA
c0371,Save data screen,canvas.Screen,1_13_0_1,NA,NA,timeout,500.3,97302,97296.24,97306.56,97790.18,97792,2024-06-24T23:22:59Z,97806.86,Hoffnung,matarajio,s,kutaalamika,uratibu,mvumbuzi,NA,NA,0,NULL,NA,NA,NA,NA,NA,NA,NA,NA,NA,NA,NA,NA,NA,NA,NA,NA,NA,NA,NA
c0371,deep,flow.Sequence,1_13_0,NA,NA,completion,3536.38,94239,94237.12,94253.8,97790.18,97793,2024-06-24T23:22:59Z,97806.86,Hoffnung,matarajio,s,kutaalamika,uratibu,mvumbuzi,NA,NA,NA,NULL,NA,NA,NA,NA,NA,NA,NA,NA,NA,NA,NA,NA,NA,NA,NA,NA,NA,NA,NA
c0371,task,flow.Sequence,1_13,NA,NA,completion,3536.38,94239,94237.12,94253.8,97790.18,97793,2024-06-24T23:22:59Z,97806.86,Hoffnung,matarajio,s,kutaalamika,uratibu,mvumbuzi,NA,NA,NA,NULL,NA,NA,NA,NA,NA,NA,NA,NA,NA,NA,NA,NA,NA,NA,NA,NA,NA,NA,NA
c0371,Deep Question,html.Page,1_14_0_0,NA,NA,form submission,8741.14,97793,97790.18,97806.86,106548,106548,2024-06-24T23:23:07Z,106547.36,Theorie,nadharia,d,ushungi,mkutano,uwakilishi,nadharia,NA,NA,NULL,NA,NA,NA,NA,NA,NA,NA,NA,NA,NA,NA,NA,NA,NA,NA,NA,NA,NA,NA
c0371,Save data screen,canvas.Screen,1_14_0_1,NA,NA,timeout,500.39999999999,106549,106544.02,106547.36,107031.08,107032,2024-06-24T23:23:08Z,107047.76,Theorie,nadharia,d,ushungi,mkutano,uwakilishi,NA,NA,1,NULL,NA,NA,NA,NA,NA,NA,NA,NA,NA,NA,NA,NA,NA,NA,NA,NA,NA,NA,NA
c0371,deep,flow.Sequence,1_14_0,NA,NA,completion,9224.22,97793,97790.18,97806.86,107031.08,107033,2024-06-24T23:23:08Z,107047.76,Theorie,nadharia,d,ushungi,mkutano,uwakilishi,NA,NA,NA,NULL,NA,NA,NA,NA,NA,NA,NA,NA,NA,NA,NA,NA,NA,NA,NA,NA,NA,NA,NA
c0371,task,flow.Sequence,1_14,NA,NA,completion,9224.22,97793,97790.18,97806.86,107031.08,107033,2024-06-24T23:23:08Z,107047.76,Theorie,nadharia,d,ushungi,mkutano,uwakilishi,NA,NA,NA,NULL,NA,NA,NA,NA,NA,NA,NA,NA,NA,NA,NA,NA,NA,NA,NA,NA,NA,NA,NA
c0371,Deep Question,html.Page,1_15_0_0,NA,NA,form submission,2964.24,107033,107031.08,107047.76,110012,110013,2024-06-24T23:23:11Z,110016.76,Toleranz,kuvumiliana,d,maombolezo,ujasusi,mchekeshaji,NA,NA,NA,NULL,NA,NA,NA,NA,NA,NA,NA,NA,NA,NA,NA,NA,NA,NA,NA,NA,NA,NA,NA
c0371,Save data screen,canvas.Screen,1_15_0_1,NA,NA,timeout,500.62000000001,110013,110008.56,110016.76,110500.7,110502,2024-06-24T23:23:11Z,110517.38,Toleranz,kuvumiliana,d,maombolezo,ujasusi,mchekeshaji,NA,NA,0,NULL,NA,NA,NA,NA,NA,NA,NA,NA,NA,NA,NA,NA,NA,NA,NA,NA,NA,NA,NA
c0371,deep,flow.Sequence,1_15_0,NA,NA,completion,3452.94,107033,107031.08,107047.76,110500.7,110502,2024-06-24T23:23:11Z,110517.38,Toleranz,kuvumiliana,d,maombolezo,ujasusi,mchekeshaji,NA,NA,NA,NULL,NA,NA,NA,NA,NA,NA,NA,NA,NA,NA,NA,NA,NA,NA,NA,NA,NA,NA,NA
c0371,task,flow.Sequence,1_15,NA,NA,completion,3452.94,107033,107031.08,107047.76,110500.7,110503,2024-06-24T23:23:11Z,110517.38,Toleranz,kuvumiliana,d,maombolezo,ujasusi,mchekeshaji,NA,NA,NA,NULL,NA,NA,NA,NA,NA,NA,NA,NA,NA,NA,NA,NA,NA,NA,NA,NA,NA,NA,NA
c0371,retrieval block 1 (cued recall),flow.Loop,1,NA,NA,completion,108256.9,2244,2239.56,2243.8,110500.7,110503,2024-06-24T23:23:11Z,110517.38,NA,NA,NA,NA,NA,NA,NA,NA,NA,NULL,NA,NA,NA,NA,NA,NA,NA,NA,NA,NA,NA,NA,NA,NA,NA,NA,NA,NA,NA
c0371,Shallow Question,html.Page,2_0_0_0,NA,NA,form submission,2380.62,110503,110500.7,110517.38,112898,112899,2024-06-24T23:23:14Z,112902.58,Schlange,foleni,d,uvumilivu,uteuzi,muuzaji,foleni,NA,NA,"c(""distractor1"", ""distractor2"", ""distractor3"")",NA,NA,NA,NA,NA,NA,NA,NA,NA,NA,NA,NA,NA,NA,NA,NA,NA,NA,NA
c0371,Save data screen,canvas.Screen,2_0_0_1,NA,NA,timeout,500.3,112899,112895.18,112902.58,113386.2,113390,2024-06-24T23:23:14Z,113402.88,Schlange,foleni,d,uvumilivu,uteuzi,muuzaji,NA,NA,1,"c(""distractor1"", ""distractor2"", ""distractor3"")",NA,NA,NA,NA,NA,NA,NA,NA,NA,NA,NA,NA,NA,NA,NA,NA,NA,NA,NA
c0371,shallow,flow.Sequence,2_0_0,NA,NA,completion,2868.82,110503,110500.7,110517.38,113386.2,113391,2024-06-24T23:23:14Z,113402.88,Schlange,foleni,d,uvumilivu,uteuzi,muuzaji,NA,NA,NA,"c(""distractor1"", ""distractor2"", ""distractor3"")",NA,NA,NA,NA,NA,NA,NA,NA,NA,NA,NA,NA,NA,NA,NA,NA,NA,NA,NA
c0371,task,flow.Sequence,2_0,NA,NA,completion,2868.82,110503,110500.7,110517.38,113386.2,113392,2024-06-24T23:23:14Z,113402.88,Schlange,foleni,d,uvumilivu,uteuzi,muuzaji,NA,NA,NA,"c(""distractor1"", ""distractor2"", ""distractor3"")",NA,NA,NA,NA,NA,NA,NA,NA,NA,NA,NA,NA,NA,NA,NA,NA,NA,NA,NA
c0371,Shallow Question,html.Page,2_1_0_0,NA,NA,form submission,2663.12,113392,113386.2,113402.88,116066,116067,2024-06-24T23:23:17Z,116072.06,Spionage,upelelezi,d,maslahi,utokazo,magangao,upelelezi,NA,NA,"c(""distractor1"", ""distractor2"", ""distractor3"")",NA,NA,NA,NA,NA,NA,NA,NA,NA,NA,NA,NA,NA,NA,NA,NA,NA,NA,NA
c0371,Save data screen,canvas.Screen,2_1_0_1,NA,NA,timeout,500.38,116071,116061.84,116072.06,116555.76,116557,2024-06-24T23:23:17Z,116572.44,Spionage,upelelezi,d,maslahi,utokazo,magangao,NA,NA,1,"c(""distractor1"", ""distractor2"", ""distractor3"")",NA,NA,NA,NA,NA,NA,NA,NA,NA,NA,NA,NA,NA,NA,NA,NA,NA,NA,NA
c0371,shallow,flow.Sequence,2_1_0,NA,NA,completion,3152.88,113392,113386.2,113402.88,116555.76,116558,2024-06-24T23:23:17Z,116572.44,Spionage,upelelezi,d,maslahi,utokazo,magangao,NA,NA,NA,"c(""distractor1"", ""distractor2"", ""distractor3"")",NA,NA,NA,NA,NA,NA,NA,NA,NA,NA,NA,NA,NA,NA,NA,NA,NA,NA,NA
c0371,task,flow.Sequence,2_1,NA,NA,completion,3152.88,113392,113386.2,113402.88,116555.76,116558,2024-06-24T23:23:17Z,116572.44,Spionage,upelelezi,d,maslahi,utokazo,magangao,NA,NA,NA,"c(""distractor1"", ""distractor2"", ""distractor3"")",NA,NA,NA,NA,NA,NA,NA,NA,NA,NA,NA,NA,NA,NA,NA,NA,NA,NA,NA
c0371,Shallow Question,html.Page,2_2_0_0,NA,NA,form submission,6024.56,116558,116555.76,116572.44,122597,122597,2024-06-24T23:23:23Z,122594.1,Inhalt,yaliyomo,s,kishawishi,hifadhi,kutembea,kutembea,NA,NA,"c(""distractor1"", ""distractor2"", ""distractor3"")",NA,NA,NA,NA,NA,NA,NA,NA,NA,NA,NA,NA,NA,NA,NA,NA,NA,NA,NA
c0371,Save data screen,canvas.Screen,2_2_0_1,NA,NA,timeout,500.29999999999,122599,122593.5,122594.1,123077.72,123079,2024-06-24T23:23:24Z,123094.4,Inhalt,yaliyomo,s,kishawishi,hifadhi,kutembea,NA,NA,0,"c(""distractor1"", ""distractor2"", ""distractor3"")",NA,NA,NA,NA,NA,NA,NA,NA,NA,NA,NA,NA,NA,NA,NA,NA,NA,NA,NA
c0371,shallow,flow.Sequence,2_2_0,NA,NA,completion,6505.28,116558,116555.76,116572.44,123077.72,123079,2024-06-24T23:23:24Z,123094.4,Inhalt,yaliyomo,s,kishawishi,hifadhi,kutembea,NA,NA,NA,"c(""distractor1"", ""distractor2"", ""distractor3"")",NA,NA,NA,NA,NA,NA,NA,NA,NA,NA,NA,NA,NA,NA,NA,NA,NA,NA,NA
c0371,task,flow.Sequence,2_2,NA,NA,completion,6505.28,116558,116555.76,116572.44,123077.72,123080,2024-06-24T23:23:24Z,123094.4,Inhalt,yaliyomo,s,kishawishi,hifadhi,kutembea,NA,NA,NA,"c(""distractor1"", ""distractor2"", ""distractor3"")",NA,NA,NA,NA,NA,NA,NA,NA,NA,NA,NA,NA,NA,NA,NA,NA,NA,NA,NA
c0371,Shallow Question,html.Page,2_3_0_0,NA,NA,form submission,5262.6,123080,123077.72,123094.4,128357,128357,2024-06-24T23:23:29Z,128365.6,Verpackung,ufungaji,s,uhusiano,upimaji,uchunguzi,upimaji,NA,NA,"c(""distractor1"", ""distractor2"", ""distractor3"")",NA,NA,NA,NA,NA,NA,NA,NA,NA,NA,NA,NA,NA,NA,NA,NA,NA,NA,NA
c0371,Save data screen,canvas.Screen,2_3_0_1,NA,NA,timeout,500.28,128358,128353.5,128365.6,128849.2,128851,2024-06-24T23:23:30Z,128865.88,Verpackung,ufungaji,s,uhusiano,upimaji,uchunguzi,NA,NA,0,"c(""distractor1"", ""distractor2"", ""distractor3"")",NA,NA,NA,NA,NA,NA,NA,NA,NA,NA,NA,NA,NA,NA,NA,NA,NA,NA,NA
c0371,shallow,flow.Sequence,2_3_0,NA,NA,completion,5754.8,123080,123077.72,123094.4,128849.2,128851,2024-06-24T23:23:30Z,128865.88,Verpackung,ufungaji,s,uhusiano,upimaji,uchunguzi,NA,NA,NA,"c(""distractor1"", ""distractor2"", ""distractor3"")",NA,NA,NA,NA,NA,NA,NA,NA,NA,NA,NA,NA,NA,NA,NA,NA,NA,NA,NA
c0371,task,flow.Sequence,2_3,NA,NA,completion,5754.8,123080,123077.72,123094.4,128849.2,128852,2024-06-24T23:23:30Z,128865.88,Verpackung,ufungaji,s,uhusiano,upimaji,uchunguzi,NA,NA,NA,"c(""distractor1"", ""distractor2"", ""distractor3"")",NA,NA,NA,NA,NA,NA,NA,NA,NA,NA,NA,NA,NA,NA,NA,NA,NA,NA,NA
c0371,Shallow Question,html.Page,2_4_0_0,NA,NA,form submission,2978.12,128852,128849.2,128865.88,131844,131844,2024-06-24T23:23:33Z,131851.52,Vergnügen,kichekesho,s,dubwana,mpanuko,mtesaji,kichekesho,NA,NA,"c(""distractor1"", ""distractor2"", ""distractor3"")",NA,NA,NA,NA,NA,NA,NA,NA,NA,NA,NA,NA,NA,NA,NA,NA,NA,NA,NA
c0371,Save data screen,canvas.Screen,2_4_0_1,NA,NA,timeout,500.30000000002,131846,131841.22,131851.52,132335.14,132338,2024-06-24T23:23:33Z,132351.82,Vergnügen,kichekesho,s,dubwana,mpanuko,mtesaji,NA,NA,1,"c(""distractor1"", ""distractor2"", ""distractor3"")",NA,NA,NA,NA,NA,NA,NA,NA,NA,NA,NA,NA,NA,NA,NA,NA,NA,NA,NA
c0371,shallow,flow.Sequence,2_4_0,NA,NA,completion,3469.26,128852,128849.2,128865.88,132335.14,132338,2024-06-24T23:23:33Z,132351.82,Vergnügen,kichekesho,s,dubwana,mpanuko,mtesaji,NA,NA,NA,"c(""distractor1"", ""distractor2"", ""distractor3"")",NA,NA,NA,NA,NA,NA,NA,NA,NA,NA,NA,NA,NA,NA,NA,NA,NA,NA,NA
c0371,task,flow.Sequence,2_4,NA,NA,completion,3469.26,128852,128849.2,128865.88,132335.14,132338,2024-06-24T23:23:33Z,132351.82,Vergnügen,kichekesho,s,dubwana,mpanuko,mtesaji,NA,NA,NA,"c(""distractor1"", ""distractor2"", ""distractor3"")",NA,NA,NA,NA,NA,NA,NA,NA,NA,NA,NA,NA,NA,NA,NA,NA,NA,NA,NA
c0371,Shallow Question,html.Page,2_5_0_0,NA,NA,form submission,4167.18,132338,132335.14,132351.82,136519,136519,2024-06-24T23:23:37Z,136522.18,Fenster,dirisha,d,walakini,tasawari,maarifa,dirisha,NA,NA,"c(""distractor1"", ""distractor2"", ""distractor3"")",NA,NA,NA,NA,NA,NA,NA,NA,NA,NA,NA,NA,NA,NA,NA,NA,NA,NA,NA
c0371,Save data screen,canvas.Screen,2_5_0_1,NA,NA,timeout,500.30000000002,136520,136514.58,136522.18,137005.8,137007,2024-06-24T23:23:38Z,137022.48,Fenster,dirisha,d,walakini,tasawari,maarifa,NA,NA,1,"c(""distractor1"", ""distractor2"", ""distractor3"")",NA,NA,NA,NA,NA,NA,NA,NA,NA,NA,NA,NA,NA,NA,NA,NA,NA,NA,NA
c0371,shallow,flow.Sequence,2_5_0,NA,NA,completion,4653.98,132338,132335.14,132351.82,137005.8,137007,2024-06-24T23:23:38Z,137022.48,Fenster,dirisha,d,walakini,tasawari,maarifa,NA,NA,NA,"c(""distractor1"", ""distractor2"", ""distractor3"")",NA,NA,NA,NA,NA,NA,NA,NA,NA,NA,NA,NA,NA,NA,NA,NA,NA,NA,NA
c0371,task,flow.Sequence,2_5,NA,NA,completion,4653.98,132338,132335.14,132351.82,137005.8,137007,2024-06-24T23:23:38Z,137022.48,Fenster,dirisha,d,walakini,tasawari,maarifa,NA,NA,NA,"c(""distractor1"", ""distractor2"", ""distractor3"")",NA,NA,NA,NA,NA,NA,NA,NA,NA,NA,NA,NA,NA,NA,NA,NA,NA,NA,NA
c0371,Shallow Question,html.Page,2_6_0_0,NA,NA,form submission,4259.52,137008,137005.8,137022.48,141282,141282,2024-06-24T23:23:42Z,141292.8,Schock,mshtuko,d,biashara,kukataza,vichekesho,mshtuko,NA,NA,"c(""distractor1"", ""distractor2"", ""distractor3"")",NA,NA,NA,NA,NA,NA,NA,NA,NA,NA,NA,NA,NA,NA,NA,NA,NA,NA,NA
c0371,Save data screen,canvas.Screen,2_6_0_1,NA,NA,timeout,500.30000000002,141283,141277.26,141292.8,141776.42,141778,2024-06-24T23:23:43Z,141793.1,Schock,mshtuko,d,biashara,kukataza,vichekesho,NA,NA,1,"c(""distractor1"", ""distractor2"", ""distractor3"")",NA,NA,NA,NA,NA,NA,NA,NA,NA,NA,NA,NA,NA,NA,NA,NA,NA,NA,NA
c0371,shallow,flow.Sequence,2_6_0,NA,NA,completion,4753.94,137008,137005.8,137022.48,141776.42,141778,2024-06-24T23:23:43Z,141793.1,Schock,mshtuko,d,biashara,kukataza,vichekesho,NA,NA,NA,"c(""distractor1"", ""distractor2"", ""distractor3"")",NA,NA,NA,NA,NA,NA,NA,NA,NA,NA,NA,NA,NA,NA,NA,NA,NA,NA,NA
c0371,task,flow.Sequence,2_6,NA,NA,completion,4753.94,137007,137005.8,137022.48,141776.42,141778,2024-06-24T23:23:43Z,141793.1,Schock,mshtuko,d,biashara,kukataza,vichekesho,NA,NA,NA,"c(""distractor1"", ""distractor2"", ""distractor3"")",NA,NA,NA,NA,NA,NA,NA,NA,NA,NA,NA,NA,NA,NA,NA,NA,NA,NA,NA
c0371,Shallow Question,html.Page,2_7_0_0,NA,NA,form submission,5888.9,141779,141776.42,141793.1,147682,147682,2024-06-24T23:23:48Z,147681.12,Toleranz,kuvumiliana,d,maombolezo,ujasusi,mchekeshaji,ujasusi,NA,NA,"c(""distractor1"", ""distractor2"", ""distractor3"")",NA,NA,NA,NA,NA,NA,NA,NA,NA,NA,NA,NA,NA,NA,NA,NA,NA,NA,NA
c0371,Save data screen,canvas.Screen,2_7_0_1,NA,NA,timeout,500.28,147683,147679.5,147681.12,148164.74,148167,2024-06-24T23:23:49Z,148181.4,Toleranz,kuvumiliana,d,maombolezo,ujasusi,mchekeshaji,NA,NA,0,"c(""distractor1"", ""distractor2"", ""distractor3"")",NA,NA,NA,NA,NA,NA,NA,NA,NA,NA,NA,NA,NA,NA,NA,NA,NA,NA,NA
c0371,shallow,flow.Sequence,2_7_0,NA,NA,completion,6371.64,141779,141776.42,141793.1,148164.74,148167,2024-06-24T23:23:49Z,148181.4,Toleranz,kuvumiliana,d,maombolezo,ujasusi,mchekeshaji,NA,NA,NA,"c(""distractor1"", ""distractor2"", ""distractor3"")",NA,NA,NA,NA,NA,NA,NA,NA,NA,NA,NA,NA,NA,NA,NA,NA,NA,NA,NA
c0371,task,flow.Sequence,2_7,NA,NA,completion,6371.64,141778,141776.42,141793.1,148164.74,148168,2024-06-24T23:23:49Z,148181.4,Toleranz,kuvumiliana,d,maombolezo,ujasusi,mchekeshaji,NA,NA,NA,"c(""distractor1"", ""distractor2"", ""distractor3"")",NA,NA,NA,NA,NA,NA,NA,NA,NA,NA,NA,NA,NA,NA,NA,NA,NA,NA,NA
c0371,Shallow Question,html.Page,2_8_0_0,NA,NA,form submission,3325.6,148168,148164.74,148181.4,151507,151507,2024-06-24T23:23:52Z,151517.76,Hoffnung,matarajio,s,kutaalamika,uratibu,mvumbuzi,uratibu,NA,NA,"c(""distractor1"", ""distractor2"", ""distractor3"")",NA,NA,NA,NA,NA,NA,NA,NA,NA,NA,NA,NA,NA,NA,NA,NA,NA,NA,NA
c0371,Save data screen,canvas.Screen,2_8_0_1,NA,NA,timeout,500.29999999999,151508,151504.66,151517.76,152001.38,152003,2024-06-24T23:23:53Z,152018.06,Hoffnung,matarajio,s,kutaalamika,uratibu,mvumbuzi,NA,NA,0,"c(""distractor1"", ""distractor2"", ""distractor3"")",NA,NA,NA,NA,NA,NA,NA,NA,NA,NA,NA,NA,NA,NA,NA,NA,NA,NA,NA
c0371,shallow,flow.Sequence,2_8_0,NA,NA,completion,3819.98,148168,148164.74,148181.4,152001.38,152003,2024-06-24T23:23:53Z,152018.06,Hoffnung,matarajio,s,kutaalamika,uratibu,mvumbuzi,NA,NA,NA,"c(""distractor1"", ""distractor2"", ""distractor3"")",NA,NA,NA,NA,NA,NA,NA,NA,NA,NA,NA,NA,NA,NA,NA,NA,NA,NA,NA
c0371,task,flow.Sequence,2_8,NA,NA,completion,3819.98,148168,148164.74,148181.4,152001.38,152004,2024-06-24T23:23:53Z,152018.06,Hoffnung,matarajio,s,kutaalamika,uratibu,mvumbuzi,NA,NA,NA,"c(""distractor1"", ""distractor2"", ""distractor3"")",NA,NA,NA,NA,NA,NA,NA,NA,NA,NA,NA,NA,NA,NA,NA,NA,NA,NA,NA
c0371,Shallow Question,html.Page,2_9_0_0,NA,NA,form submission,3509.94,152004,152001.38,152018.06,155528,155529,2024-06-24T23:23:56Z,155538.04,Tester,wanaojaribu,s,sherti,sihiri,mlipuko,sherti,NA,NA,"c(""distractor1"", ""distractor2"", ""distractor3"")",NA,NA,NA,NA,NA,NA,NA,NA,NA,NA,NA,NA,NA,NA,NA,NA,NA,NA,NA
c0371,Save data screen,canvas.Screen,2_9_0_1,NA,NA,timeout,500.39999999999,155530,155525.78,155538.04,156021.76,156023,2024-06-24T23:23:57Z,156038.44,Tester,wanaojaribu,s,sherti,sihiri,mlipuko,NA,NA,0,"c(""distractor1"", ""distractor2"", ""distractor3"")",NA,NA,NA,NA,NA,NA,NA,NA,NA,NA,NA,NA,NA,NA,NA,NA,NA,NA,NA
c0371,shallow,flow.Sequence,2_9_0,NA,NA,completion,4003.7,152004,152001.38,152018.06,156021.76,156023,2024-06-24T23:23:57Z,156038.44,Tester,wanaojaribu,s,sherti,sihiri,mlipuko,NA,NA,NA,"c(""distractor1"", ""distractor2"", ""distractor3"")",NA,NA,NA,NA,NA,NA,NA,NA,NA,NA,NA,NA,NA,NA,NA,NA,NA,NA,NA
c0371,task,flow.Sequence,2_9,NA,NA,completion,4003.7,152004,152001.38,152018.06,156021.76,156023,2024-06-24T23:23:57Z,156038.44,Tester,wanaojaribu,s,sherti,sihiri,mlipuko,NA,NA,NA,"c(""distractor1"", ""distractor2"", ""distractor3"")",NA,NA,NA,NA,NA,NA,NA,NA,NA,NA,NA,NA,NA,NA,NA,NA,NA,NA,NA
c0371,Shallow Question,html.Page,2_10_0_0,NA,NA,form submission,2969.56,156023,156021.76,156038.44,159008,159008,2024-06-24T23:24:00Z,159007.58,Theorie,nadharia,d,ushungi,mkutano,uwakilishi,nadharia,NA,NA,"c(""distractor1"", ""distractor2"", ""distractor3"")",NA,NA,NA,NA,NA,NA,NA,NA,NA,NA,NA,NA,NA,NA,NA,NA,NA,NA,NA
c0371,Save data screen,canvas.Screen,2_10_0_1,NA,NA,timeout,500.26000000001,159009,159005.32,159007.58,159491.16,159492,2024-06-24T23:24:00Z,159507.84,Theorie,nadharia,d,ushungi,mkutano,uwakilishi,NA,NA,1,"c(""distractor1"", ""distractor2"", ""distractor3"")",NA,NA,NA,NA,NA,NA,NA,NA,NA,NA,NA,NA,NA,NA,NA,NA,NA,NA,NA
c0371,shallow,flow.Sequence,2_10_0,NA,NA,completion,3452.72,156023,156021.76,156038.44,159491.16,159493,2024-06-24T23:24:00Z,159507.84,Theorie,nadharia,d,ushungi,mkutano,uwakilishi,NA,NA,NA,"c(""distractor1"", ""distractor2"", ""distractor3"")",NA,NA,NA,NA,NA,NA,NA,NA,NA,NA,NA,NA,NA,NA,NA,NA,NA,NA,NA
c0371,task,flow.Sequence,2_10,NA,NA,completion,3452.72,156023,156021.76,156038.44,159491.16,159493,2024-06-24T23:24:00Z,159507.84,Theorie,nadharia,d,ushungi,mkutano,uwakilishi,NA,NA,NA,"c(""distractor1"", ""distractor2"", ""distractor3"")",NA,NA,NA,NA,NA,NA,NA,NA,NA,NA,NA,NA,NA,NA,NA,NA,NA,NA,NA
c0371,Shallow Question,html.Page,2_11_0_0,NA,NA,form submission,6662.16,159493,159491.16,159507.84,166170,166170,2024-06-24T23:24:07Z,166180.04,Notfall,dharura,s,rairai,malalamiko,ahueni,dharura,NA,NA,"c(""distractor1"", ""distractor2"", ""distractor3"")",NA,NA,NA,NA,NA,NA,NA,NA,NA,NA,NA,NA,NA,NA,NA,NA,NA,NA,NA
c0371,Save data screen,canvas.Screen,2_11_0_1,NA,NA,timeout,500.44,166171,166167.58,166180.04,166663.82,166665,2024-06-24T23:24:07Z,166680.48,Notfall,dharura,s,rairai,malalamiko,ahueni,NA,NA,1,"c(""distractor1"", ""distractor2"", ""distractor3"")",NA,NA,NA,NA,NA,NA,NA,NA,NA,NA,NA,NA,NA,NA,NA,NA,NA,NA,NA
c0371,shallow,flow.Sequence,2_11_0,NA,NA,completion,7155.98,159493,159491.16,159507.84,166663.82,166665,2024-06-24T23:24:07Z,166680.48,Notfall,dharura,s,rairai,malalamiko,ahueni,NA,NA,NA,"c(""distractor1"", ""distractor2"", ""distractor3"")",NA,NA,NA,NA,NA,NA,NA,NA,NA,NA,NA,NA,NA,NA,NA,NA,NA,NA,NA
c0371,task,flow.Sequence,2_11,NA,NA,completion,7155.98,159493,159491.16,159507.84,166663.82,166665,2024-06-24T23:24:07Z,166680.48,Notfall,dharura,s,rairai,malalamiko,ahueni,NA,NA,NA,"c(""distractor1"", ""distractor2"", ""distractor3"")",NA,NA,NA,NA,NA,NA,NA,NA,NA,NA,NA,NA,NA,NA,NA,NA,NA,NA,NA
c0371,Shallow Question,html.Page,2_12_0_0,NA,NA,form submission,7964.52,166665,166663.82,166680.48,174645,174647,2024-06-24T23:24:15Z,174653.7,Vermutung,udhanifu,s,haramia,tikisho,itifaki,haramia,NA,NA,"c(""distractor1"", ""distractor2"", ""distractor3"")",NA,NA,NA,NA,NA,NA,NA,NA,NA,NA,NA,NA,NA,NA,NA,NA,NA,NA,NA
c0371,Save data screen,canvas.Screen,2_12_0_1,NA,NA,timeout,500.45999999999,174652,174641.78,174653.7,175137.48,175139,2024-06-24T23:24:16Z,175154.16,Vermutung,udhanifu,s,haramia,tikisho,itifaki,NA,NA,0,"c(""distractor1"", ""distractor2"", ""distractor3"")",NA,NA,NA,NA,NA,NA,NA,NA,NA,NA,NA,NA,NA,NA,NA,NA,NA,NA,NA
c0371,shallow,flow.Sequence,2_12_0,NA,NA,completion,8457,166665,166663.82,166680.48,175137.48,175140,2024-06-24T23:24:16Z,175154.16,Vermutung,udhanifu,s,haramia,tikisho,itifaki,NA,NA,NA,"c(""distractor1"", ""distractor2"", ""distractor3"")",NA,NA,NA,NA,NA,NA,NA,NA,NA,NA,NA,NA,NA,NA,NA,NA,NA,NA,NA
c0371,task,flow.Sequence,2_12,NA,NA,completion,8457,166665,166663.82,166680.48,175137.48,175140,2024-06-24T23:24:16Z,175154.16,Vermutung,udhanifu,s,haramia,tikisho,itifaki,NA,NA,NA,"c(""distractor1"", ""distractor2"", ""distractor3"")",NA,NA,NA,NA,NA,NA,NA,NA,NA,NA,NA,NA,NA,NA,NA,NA,NA,NA,NA
c0371,Shallow Question,html.Page,2_13_0_0,NA,NA,form submission,2778.84,175141,175137.48,175154.16,177933,177933,2024-06-24T23:24:19Z,177939.84,Ergänzung,kijalizo,d,ulaghai,mustarehe,matangazo,kijalizo,NA,NA,"c(""distractor1"", ""distractor2"", ""distractor3"")",NA,NA,NA,NA,NA,NA,NA,NA,NA,NA,NA,NA,NA,NA,NA,NA,NA,NA,NA
c0371,Save data screen,canvas.Screen,2_13_0_1,NA,NA,timeout,500.36000000002,177938,177928.36,177939.84,178423.52,178425,2024-06-24T23:24:19Z,178440.2,Ergänzung,kijalizo,d,ulaghai,mustarehe,matangazo,NA,NA,1,"c(""distractor1"", ""distractor2"", ""distractor3"")",NA,NA,NA,NA,NA,NA,NA,NA,NA,NA,NA,NA,NA,NA,NA,NA,NA,NA,NA
c0371,shallow,flow.Sequence,2_13_0,NA,NA,completion,3269.36,175141,175137.48,175154.16,178423.52,178426,2024-06-24T23:24:19Z,178440.2,Ergänzung,kijalizo,d,ulaghai,mustarehe,matangazo,NA,NA,NA,"c(""distractor1"", ""distractor2"", ""distractor3"")",NA,NA,NA,NA,NA,NA,NA,NA,NA,NA,NA,NA,NA,NA,NA,NA,NA,NA,NA
c0371,task,flow.Sequence,2_13,NA,NA,completion,3269.36,175141,175137.48,175154.16,178423.52,178426,2024-06-24T23:24:19Z,178440.2,Ergänzung,kijalizo,d,ulaghai,mustarehe,matangazo,NA,NA,NA,"c(""distractor1"", ""distractor2"", ""distractor3"")",NA,NA,NA,NA,NA,NA,NA,NA,NA,NA,NA,NA,NA,NA,NA,NA,NA,NA,NA
c0371,Shallow Question,html.Page,2_14_0_0,NA,NA,form submission,4904.8,178426,178423.52,178440.2,183345,183346,2024-06-24T23:24:24Z,183344.38,Wohlstand,mafanikio,d,chimbuko,kumbuko,mapwaji,mafanikio,NA,NA,"c(""distractor1"", ""distractor2"", ""distractor3"")",NA,NA,NA,NA,NA,NA,NA,NA,NA,NA,NA,NA,NA,NA,NA,NA,NA,NA,NA
c0371,Save data screen,canvas.Screen,2_14_0_1,NA,NA,timeout,500.28,183347,183342.52,183344.38,183827.98,183829,2024-06-24T23:24:25Z,183844.66,Wohlstand,mafanikio,d,chimbuko,kumbuko,mapwaji,NA,NA,1,"c(""distractor1"", ""distractor2"", ""distractor3"")",NA,NA,NA,NA,NA,NA,NA,NA,NA,NA,NA,NA,NA,NA,NA,NA,NA,NA,NA
c0371,shallow,flow.Sequence,2_14_0,NA,NA,completion,5387.78,178426,178423.52,178440.2,183827.98,183830,2024-06-24T23:24:25Z,183844.66,Wohlstand,mafanikio,d,chimbuko,kumbuko,mapwaji,NA,NA,NA,"c(""distractor1"", ""distractor2"", ""distractor3"")",NA,NA,NA,NA,NA,NA,NA,NA,NA,NA,NA,NA,NA,NA,NA,NA,NA,NA,NA
c0371,task,flow.Sequence,2_14,NA,NA,completion,5387.78,178426,178423.52,178440.2,183827.98,183830,2024-06-24T23:24:25Z,183844.66,Wohlstand,mafanikio,d,chimbuko,kumbuko,mapwaji,NA,NA,NA,"c(""distractor1"", ""distractor2"", ""distractor3"")",NA,NA,NA,NA,NA,NA,NA,NA,NA,NA,NA,NA,NA,NA,NA,NA,NA,NA,NA
c0371,Shallow Question,html.Page,2_15_0_0,NA,NA,form submission,2861.34,183831,183827.98,183844.66,186706,186706,2024-06-24T23:24:27Z,186713.88,Schüler,mwanafunzi,s,mwekezaji,matumizi,uaminifu,mwanafunzi,NA,NA,"c(""distractor1"", ""distractor2"", ""distractor3"")",NA,NA,NA,NA,NA,NA,NA,NA,NA,NA,NA,NA,NA,NA,NA,NA,NA,NA,NA
c0371,Save data screen,canvas.Screen,2_15_0_1,NA,NA,timeout,500.17999999999,186707,186702.74,186713.88,187197.38,187199,2024-06-24T23:24:28Z,187214.06,Schüler,mwanafunzi,s,mwekezaji,matumizi,uaminifu,NA,NA,1,"c(""distractor1"", ""distractor2"", ""distractor3"")",NA,NA,NA,NA,NA,NA,NA,NA,NA,NA,NA,NA,NA,NA,NA,NA,NA,NA,NA
c0371,shallow,flow.Sequence,2_15_0,NA,NA,completion,3352.72,183831,183827.98,183844.66,187197.38,187199,2024-06-24T23:24:28Z,187214.06,Schüler,mwanafunzi,s,mwekezaji,matumizi,uaminifu,NA,NA,NA,"c(""distractor1"", ""distractor2"", ""distractor3"")",NA,NA,NA,NA,NA,NA,NA,NA,NA,NA,NA,NA,NA,NA,NA,NA,NA,NA,NA
c0371,task,flow.Sequence,2_15,NA,NA,completion,3352.72,183831,183827.98,183844.66,187197.38,187199,2024-06-24T23:24:28Z,187214.06,Schüler,mwanafunzi,s,mwekezaji,matumizi,uaminifu,NA,NA,NA,"c(""distractor1"", ""distractor2"", ""distractor3"")",NA,NA,NA,NA,NA,NA,NA,NA,NA,NA,NA,NA,NA,NA,NA,NA,NA,NA,NA
c0371,retrieval block 2 (multiple choice),flow.Loop,2,NA,NA,completion,76680,110503,110500.7,110517.38,187197.38,187200,2024-06-24T23:24:28Z,187214.06,NA,NA,NA,NA,NA,NA,NA,NA,NA,"c(""distractor1"", ""distractor2"", ""distractor3"")",NA,NA,NA,NA,NA,NA,NA,NA,NA,NA,NA,NA,NA,NA,NA,NA,NA,NA,NA
c0371,End,canvas.Screen,3,NA,keypress(Space),response,1323.94,187200,187197.38,187214.06,188538,188552,2024-06-24T23:24:29Z,188553.5,NA,NA,NA,NA,NA,NA,NA,NA,NA,NULL,NA,NA,NA,NA,NA,NA,NA,NA,NA,NA,NA,NA,NA,NA,NA,NA,NA,NA,NA
c0371,root,flow.Sequence,NA,NA,NA,completion,187511.58,1014,1009.74,1026.42,188538,188553,2024-06-24T23:24:29Z,188553.5,NA,NA,NA,NA,NA,NA,NA,NA,NA,NULL,NA,NA,NA,NA,NA,NA,NA,NA,NA,NA,NA,NA,NA,NA,NA,NA,NA,NA,NA
