observation,sender,sender_type,sender_id,response,response_action,ended_on,duration,time_run,time_render,time_show,time_end,time_commit,timestamp,time_switch,german,swahili,enc,distractor1,distractor2,distractor3,response_2,x,correct,distractors,url_vp,url_sess,meta_labjs_version,meta_location,meta_user_agent,meta_platform,meta_language,meta_locale,meta_time_zone,meta_timezone_offset,meta_screen_width,meta_screen_height,meta_scroll_width,meta_scroll_height,meta_window_inner_width,meta_window_inner_height,meta_device_pixel_ratio,meta_labjs_build_flavor,meta_labjs_build_commit
2d27f,Introduction delayed retrieval,canvas.Screen,0,weiter,keypress(Space),response,12765.57,929.5,687.983,971.23,13736.8,13740,2023-07-13T05:18:23Z,13755.434,NA,NA,NA,NA,NA,NA,NA,NA,NA,NULL,221,2,20.2.4,https://neurocog.fernuni.ch/studies/vweber/sfink/delayed/index.html?vp=221&sess=2,"Mozilla/5.0 (Windows NT 10.0; Win64; x64) AppleWebKit/537.36 (KHTML, like Gecko) Chrome/114.0.0.0 Safari/537.36 Edg/114.0.1823.67",Win32,en-GB,en-CH,Europe/Zurich,-120,1536,864,923,682,923,730,1.25,production,f5b4a49f956347addd546a832a3327688c2c0fef
2d27f,Deep Question,html.Page,1_0_0_0,NA,NA,form submission,20920.866,13740.3,13735.912,13755.434,34676.3,34676.7,2023-07-13T05:18:44Z,34685.082,Gefährdung,kuhatarisha,d,uchokozi,udhaifu,makorowezo,maegono,NA,NA,NULL,NA,NA,NA,NA,NA,NA,NA,NA,NA,NA,NA,NA,NA,NA,NA,NA,NA,NA,NA
2d27f,Save data screen,canvas.Screen,1_0_0_1,NA,NA,timeout,498.418,34678.3,34666.939,34685.082,35166.844,35168.1,2023-07-13T05:18:45Z,35183.5,Gefährdung,kuhatarisha,d,uchokozi,udhaifu,makorowezo,NA,NA,0,NULL,NA,NA,NA,NA,NA,NA,NA,NA,NA,NA,NA,NA,NA,NA,NA,NA,NA,NA,NA
2d27f,deep,flow.Sequence,1_0_0,NA,NA,completion,21411.41,13740.3,13735.912,13755.434,35166.844,35168.4,2023-07-13T05:18:45Z,35183.5,Gefährdung,kuhatarisha,d,uchokozi,udhaifu,makorowezo,NA,NA,NA,NULL,NA,NA,NA,NA,NA,NA,NA,NA,NA,NA,NA,NA,NA,NA,NA,NA,NA,NA,NA
2d27f,task,flow.Sequence,1_0,NA,NA,completion,21411.41,13740.3,13735.912,13755.434,35166.844,35168.5,2023-07-13T05:18:45Z,35183.5,Gefährdung,kuhatarisha,d,uchokozi,udhaifu,makorowezo,NA,NA,NA,NULL,NA,NA,NA,NA,NA,NA,NA,NA,NA,NA,NA,NA,NA,NA,NA,NA,NA,NA,NA
2d27f,Deep Question,html.Page,1_1_0_0,NA,NA,form submission,23785.1,35168.7,35166.844,35183.5,58968.6,58978.4,2023-07-13T05:19:08Z,58980.612,Lawine,banguko,s,maambukizi,usuluhishi,chekechea,shawale,NA,NA,NULL,NA,NA,NA,NA,NA,NA,NA,NA,NA,NA,NA,NA,NA,NA,NA,NA,NA,NA,NA
2d27f,Save data screen,canvas.Screen,1_1_0_1,NA,NA,timeout,499.825,58980.2,58963.831,58980.612,59463.751,59464.5,2023-07-13T05:19:09Z,59480.437,Lawine,banguko,s,maambukizi,usuluhishi,chekechea,NA,NA,0,NULL,NA,NA,NA,NA,NA,NA,NA,NA,NA,NA,NA,NA,NA,NA,NA,NA,NA,NA,NA
2d27f,deep,flow.Sequence,1_1_0,NA,NA,completion,24280.251,35168.6,35166.844,35183.5,59463.751,59464.7,2023-07-13T05:19:09Z,59480.437,Lawine,banguko,s,maambukizi,usuluhishi,chekechea,NA,NA,NA,NULL,NA,NA,NA,NA,NA,NA,NA,NA,NA,NA,NA,NA,NA,NA,NA,NA,NA,NA,NA
2d27f,task,flow.Sequence,1_1,NA,NA,completion,24280.251,35168.6,35166.844,35183.5,59463.751,59465,2023-07-13T05:19:09Z,59480.437,Lawine,banguko,s,maambukizi,usuluhishi,chekechea,NA,NA,NA,NULL,NA,NA,NA,NA,NA,NA,NA,NA,NA,NA,NA,NA,NA,NA,NA,NA,NA,NA,NA
2d27f,Deep Question,html.Page,1_2_0_0,NA,NA,form submission,14083.363,59465.2,59463.751,59480.437,73563.8,73564.3,2023-07-13T05:19:23Z,73578.882,Können,unaweza,s,kiongozi,bustani,mienendo,kimbawo,NA,NA,NULL,NA,NA,NA,NA,NA,NA,NA,NA,NA,NA,NA,NA,NA,NA,NA,NA,NA,NA,NA
2d27f,Save data screen,canvas.Screen,1_2_0_1,NA,NA,timeout,499.693,73567.6,73561.938,73578.882,74061.896,74062.8,2023-07-13T05:19:24Z,74078.575,Können,unaweza,s,kiongozi,bustani,mienendo,NA,NA,0,NULL,NA,NA,NA,NA,NA,NA,NA,NA,NA,NA,NA,NA,NA,NA,NA,NA,NA,NA,NA
2d27f,deep,flow.Sequence,1_2_0,NA,NA,completion,14581.459,59465.2,59463.751,59480.437,74061.896,74063.1,2023-07-13T05:19:24Z,74078.575,Können,unaweza,s,kiongozi,bustani,mienendo,NA,NA,NA,NULL,NA,NA,NA,NA,NA,NA,NA,NA,NA,NA,NA,NA,NA,NA,NA,NA,NA,NA,NA
2d27f,task,flow.Sequence,1_2,NA,NA,completion,14581.459,59465.1,59463.751,59480.437,74061.896,74063.4,2023-07-13T05:19:24Z,74078.575,Können,unaweza,s,kiongozi,bustani,mienendo,NA,NA,NA,NULL,NA,NA,NA,NA,NA,NA,NA,NA,NA,NA,NA,NA,NA,NA,NA,NA,NA,NA,NA
2d27f,Deep Question,html.Page,1_3_0_0,NA,NA,form submission,6114.125,74063.5,74061.896,74078.575,80192.7,80193.1,2023-07-13T05:19:30Z,80195.179,Körper,kiwiliwili,d,mapambano,mpatanishi,kiolezo,kiwiliwili,NA,NA,NULL,NA,NA,NA,NA,NA,NA,NA,NA,NA,NA,NA,NA,NA,NA,NA,NA,NA,NA,NA
2d27f,Save data screen,canvas.Screen,1_3_0_1,NA,NA,timeout,499.21799999999,80196.1,80177.87,80195.179,80677.731,80678.4,2023-07-13T05:19:30Z,80694.397,Körper,kiwiliwili,d,mapambano,mpatanishi,kiolezo,NA,NA,1,NULL,NA,NA,NA,NA,NA,NA,NA,NA,NA,NA,NA,NA,NA,NA,NA,NA,NA,NA,NA
2d27f,deep,flow.Sequence,1_3_0,NA,NA,completion,6599.156,74063.5,74061.896,74078.575,80677.731,80678.6,2023-07-13T05:19:30Z,80694.397,Körper,kiwiliwili,d,mapambano,mpatanishi,kiolezo,NA,NA,NA,NULL,NA,NA,NA,NA,NA,NA,NA,NA,NA,NA,NA,NA,NA,NA,NA,NA,NA,NA,NA
2d27f,task,flow.Sequence,1_3,NA,NA,completion,6599.156,74063.5,74061.896,74078.575,80677.731,80678.8,2023-07-13T05:19:30Z,80694.397,Körper,kiwiliwili,d,mapambano,mpatanishi,kiolezo,NA,NA,NA,NULL,NA,NA,NA,NA,NA,NA,NA,NA,NA,NA,NA,NA,NA,NA,NA,NA,NA,NA,NA
2d27f,Deep Question,html.Page,1_4_0_0,NA,NA,form submission,29098.803,80679.1,80677.731,80694.397,109793.2,109793.5,2023-07-13T05:19:59Z,109807.39,Verzögerung,kuchelewa,d,mwakilishi,mwanauchumi,jaribio,mahashita,NA,NA,NULL,NA,NA,NA,NA,NA,NA,NA,NA,NA,NA,NA,NA,NA,NA,NA,NA,NA,NA,NA
2d27f,Save data screen,canvas.Screen,1_4_0_1,NA,NA,timeout,500.014,109796.6,109790.966,109807.39,110290.856,110292.5,2023-07-13T05:20:00Z,110307.404,Verzögerung,kuchelewa,d,mwakilishi,mwanauchumi,jaribio,NA,NA,0,NULL,NA,NA,NA,NA,NA,NA,NA,NA,NA,NA,NA,NA,NA,NA,NA,NA,NA,NA,NA
2d27f,deep,flow.Sequence,1_4_0,NA,NA,completion,29596.459,80679,80677.731,80694.397,110290.856,110293.1,2023-07-13T05:20:00Z,110307.404,Verzögerung,kuchelewa,d,mwakilishi,mwanauchumi,jaribio,NA,NA,NA,NULL,NA,NA,NA,NA,NA,NA,NA,NA,NA,NA,NA,NA,NA,NA,NA,NA,NA,NA,NA
2d27f,task,flow.Sequence,1_4,NA,NA,completion,29596.459,80678.9,80677.731,80694.397,110290.856,110293.6,2023-07-13T05:20:00Z,110307.404,Verzögerung,kuchelewa,d,mwakilishi,mwanauchumi,jaribio,NA,NA,NA,NULL,NA,NA,NA,NA,NA,NA,NA,NA,NA,NA,NA,NA,NA,NA,NA,NA,NA,NA,NA
2d27f,Deep Question,html.Page,1_5_0_0,NA,NA,form submission,10583.696,110294.1,110290.856,110307.404,120891.1,120891.4,2023-07-13T05:20:10Z,120905.976,Aufstand,ugomaji,s,mazidio,msingi,kujieleza,ugojizu,NA,NA,NULL,NA,NA,NA,NA,NA,NA,NA,NA,NA,NA,NA,NA,NA,NA,NA,NA,NA,NA,NA
2d27f,Save data screen,canvas.Screen,1_5_0_1,NA,NA,timeout,500.152,120894.3,120889.528,120905.976,121389.264,121389.8,2023-07-13T05:20:11Z,121406.128,Aufstand,ugomaji,s,mazidio,msingi,kujieleza,NA,NA,0,NULL,NA,NA,NA,NA,NA,NA,NA,NA,NA,NA,NA,NA,NA,NA,NA,NA,NA,NA,NA
2d27f,deep,flow.Sequence,1_5_0,NA,NA,completion,11081.86,110294,110290.856,110307.404,121389.264,121390.1,2023-07-13T05:20:11Z,121406.128,Aufstand,ugomaji,s,mazidio,msingi,kujieleza,NA,NA,NA,NULL,NA,NA,NA,NA,NA,NA,NA,NA,NA,NA,NA,NA,NA,NA,NA,NA,NA,NA,NA
2d27f,task,flow.Sequence,1_5,NA,NA,completion,11081.86,110293.9,110290.856,110307.404,121389.264,121390.2,2023-07-13T05:20:11Z,121406.128,Aufstand,ugomaji,s,mazidio,msingi,kujieleza,NA,NA,NA,NULL,NA,NA,NA,NA,NA,NA,NA,NA,NA,NA,NA,NA,NA,NA,NA,NA,NA,NA,NA
2d27f,Deep Question,html.Page,1_6_0_0,NA,NA,form submission,36980.872,121390.4,121389.264,121406.128,158387,158387.3,2023-07-13T05:20:48Z,158401.568,Übersicht,kilindo,d,mgusano,chipukizi,kulinganisha,muwalusha,NA,NA,NULL,NA,NA,NA,NA,NA,NA,NA,NA,NA,NA,NA,NA,NA,NA,NA,NA,NA,NA,NA
2d27f,Save data screen,canvas.Screen,1_6_0_1,NA,NA,timeout,499.535,158390,158384.48,158401.568,158884.459,158885.2,2023-07-13T05:20:48Z,158901.103,Übersicht,kilindo,d,mgusano,chipukizi,kulinganisha,NA,NA,0,NULL,NA,NA,NA,NA,NA,NA,NA,NA,NA,NA,NA,NA,NA,NA,NA,NA,NA,NA,NA
2d27f,deep,flow.Sequence,1_6_0,NA,NA,completion,37478.331,121390.4,121389.264,121406.128,158884.459,158885.5,2023-07-13T05:20:48Z,158901.103,Übersicht,kilindo,d,mgusano,chipukizi,kulinganisha,NA,NA,NA,NULL,NA,NA,NA,NA,NA,NA,NA,NA,NA,NA,NA,NA,NA,NA,NA,NA,NA,NA,NA
2d27f,task,flow.Sequence,1_6,NA,NA,completion,37478.331,121390.3,121389.264,121406.128,158884.459,158885.7,2023-07-13T05:20:48Z,158901.103,Übersicht,kilindo,d,mgusano,chipukizi,kulinganisha,NA,NA,NA,NULL,NA,NA,NA,NA,NA,NA,NA,NA,NA,NA,NA,NA,NA,NA,NA,NA,NA,NA,NA
2d27f,Deep Question,html.Page,1_7_0_0,NA,NA,form submission,11716.197,158885.9,158884.459,158901.103,170617.3,170617.7,2023-07-13T05:21:00Z,170633.023,Sänger,mwimbaji,s,msichana,shughuli,mshirika,kirizi,NA,NA,NULL,NA,NA,NA,NA,NA,NA,NA,NA,NA,NA,NA,NA,NA,NA,NA,NA,NA,NA,NA
2d27f,Save data screen,canvas.Screen,1_7_0_1,NA,NA,timeout,799.78000000003,170620.3,170616.296,170633.023,171444.2,171444.5,2023-07-13T05:21:01Z,171432.803,Sänger,mwimbaji,s,msichana,shughuli,mshirika,NA,NA,0,NULL,NA,NA,NA,NA,NA,NA,NA,NA,NA,NA,NA,NA,NA,NA,NA,NA,NA,NA,NA
2d27f,deep,flow.Sequence,1_7_0,NA,NA,completion,12543.097,158885.8,158884.459,158901.103,171444.2,171444.8,2023-07-13T05:21:01Z,171432.803,Sänger,mwimbaji,s,msichana,shughuli,mshirika,NA,NA,NA,NULL,NA,NA,NA,NA,NA,NA,NA,NA,NA,NA,NA,NA,NA,NA,NA,NA,NA,NA,NA
2d27f,task,flow.Sequence,1_7,NA,NA,completion,12543.097,158885.8,158884.459,158901.103,171444.2,171444.9,2023-07-13T05:21:01Z,171432.803,Sänger,mwimbaji,s,msichana,shughuli,mshirika,NA,NA,NA,NULL,NA,NA,NA,NA,NA,NA,NA,NA,NA,NA,NA,NA,NA,NA,NA,NA,NA,NA,NA
2d27f,Deep Question,html.Page,1_8_0_0,NA,NA,form submission,37941.397,171445,171444.2,171432.803,209374.2,209374.5,2023-07-13T05:21:39Z,209379.527,Kultur,utamaduni,d,shetani,gerezani,mazingira,kudihibat,NA,NA,NULL,NA,NA,NA,NA,NA,NA,NA,NA,NA,NA,NA,NA,NA,NA,NA,NA,NA,NA,NA
2d27f,Save data screen,canvas.Screen,1_8_0_1,NA,NA,timeout,498.44200000001,209377.1,209361.378,209379.527,209861.278,209862,2023-07-13T05:21:39Z,209877.969,Kultur,utamaduni,d,shetani,gerezani,mazingira,NA,NA,0,NULL,NA,NA,NA,NA,NA,NA,NA,NA,NA,NA,NA,NA,NA,NA,NA,NA,NA,NA,NA
2d27f,deep,flow.Sequence,1_8_0,NA,NA,completion,38428.475,171445,171444.2,171432.803,209861.278,209862.2,2023-07-13T05:21:39Z,209877.969,Kultur,utamaduni,d,shetani,gerezani,mazingira,NA,NA,NA,NULL,NA,NA,NA,NA,NA,NA,NA,NA,NA,NA,NA,NA,NA,NA,NA,NA,NA,NA,NA
2d27f,task,flow.Sequence,1_8,NA,NA,completion,38428.475,171445,171444.2,171432.803,209861.278,209862.4,2023-07-13T05:21:39Z,209877.969,Kultur,utamaduni,d,shetani,gerezani,mazingira,NA,NA,NA,NULL,NA,NA,NA,NA,NA,NA,NA,NA,NA,NA,NA,NA,NA,NA,NA,NA,NA,NA,NA
2d27f,Deep Question,html.Page,1_9_0_0,NA,NA,form submission,12763.731,209862.6,209861.278,209877.969,222641.7,222642,2023-07-13T05:21:52Z,222644.189,Prüfung,mtihani,s,mkulima,mtizamo,ufumbuzi,uzamash,NA,NA,NULL,NA,NA,NA,NA,NA,NA,NA,NA,NA,NA,NA,NA,NA,NA,NA,NA,NA,NA,NA
2d27f,Save data screen,canvas.Screen,1_9_0_1,NA,NA,timeout,498.75699999998,222645.2,222626.506,222644.189,223126.259,223127,2023-07-13T05:21:53Z,223142.946,Prüfung,mtihani,s,mkulima,mtizamo,ufumbuzi,NA,NA,0,NULL,NA,NA,NA,NA,NA,NA,NA,NA,NA,NA,NA,NA,NA,NA,NA,NA,NA,NA,NA
2d27f,deep,flow.Sequence,1_9_0,NA,NA,completion,13248.29,209862.6,209861.278,209877.969,223126.259,223127.2,2023-07-13T05:21:53Z,223142.946,Prüfung,mtihani,s,mkulima,mtizamo,ufumbuzi,NA,NA,NA,NULL,NA,NA,NA,NA,NA,NA,NA,NA,NA,NA,NA,NA,NA,NA,NA,NA,NA,NA,NA
2d27f,task,flow.Sequence,1_9,NA,NA,completion,13248.29,209862.5,209861.278,209877.969,223126.259,223127.3,2023-07-13T05:21:53Z,223142.946,Prüfung,mtihani,s,mkulima,mtizamo,ufumbuzi,NA,NA,NA,NULL,NA,NA,NA,NA,NA,NA,NA,NA,NA,NA,NA,NA,NA,NA,NA,NA,NA,NA,NA
2d27f,Deep Question,html.Page,1_10_0_0,NA,NA,form submission,16428.254,223127.6,223126.259,223142.946,239571.2,239571.5,2023-07-13T05:22:09Z,239574.241,Kreativität,ubunifu,s,mratibu,mwendelezo,makubaliano,uwano,NA,NA,NULL,NA,NA,NA,NA,NA,NA,NA,NA,NA,NA,NA,NA,NA,NA,NA,NA,NA,NA,NA
2d27f,Save data screen,canvas.Screen,1_10_0_1,NA,NA,timeout,500.13499999998,239574.6,239558.503,239574.241,240057.448,240058.1,2023-07-13T05:22:09Z,240074.376,Kreativität,ubunifu,s,mratibu,mwendelezo,makubaliano,NA,NA,0,NULL,NA,NA,NA,NA,NA,NA,NA,NA,NA,NA,NA,NA,NA,NA,NA,NA,NA,NA,NA
2d27f,deep,flow.Sequence,1_10_0,NA,NA,completion,16914.502,223127.5,223126.259,223142.946,240057.448,240058.4,2023-07-13T05:22:09Z,240074.376,Kreativität,ubunifu,s,mratibu,mwendelezo,makubaliano,NA,NA,NA,NULL,NA,NA,NA,NA,NA,NA,NA,NA,NA,NA,NA,NA,NA,NA,NA,NA,NA,NA,NA
2d27f,task,flow.Sequence,1_10,NA,NA,completion,16914.502,223127.4,223126.259,223142.946,240057.448,240058.5,2023-07-13T05:22:09Z,240074.376,Kreativität,ubunifu,s,mratibu,mwendelezo,makubaliano,NA,NA,NA,NULL,NA,NA,NA,NA,NA,NA,NA,NA,NA,NA,NA,NA,NA,NA,NA,NA,NA,NA,NA
2d27f,Deep Question,html.Page,1_11_0_0,NA,NA,form submission,60229.224,240058.7,240057.448,240074.376,300303.6,300304,2023-07-13T05:23:10Z,300318.873,Abrechnung,uhasibu,d,kusahihisha,mpambano,mashambulizi,mshepela,NA,NA,NULL,NA,NA,NA,NA,NA,NA,NA,NA,NA,NA,NA,NA,NA,NA,NA,NA,NA,NA,NA
2d27f,Save data screen,canvas.Screen,1_11_0_1,NA,NA,timeout,497.51999999996,300306.5,300300.083,300318.873,300799.726,300800.5,2023-07-13T05:23:10Z,300816.393,Abrechnung,uhasibu,d,kusahihisha,mpambano,mashambulizi,NA,NA,0,NULL,NA,NA,NA,NA,NA,NA,NA,NA,NA,NA,NA,NA,NA,NA,NA,NA,NA,NA,NA
2d27f,deep,flow.Sequence,1_11_0,NA,NA,completion,60725.35,240058.6,240057.448,240074.376,300799.726,300800.7,2023-07-13T05:23:10Z,300816.393,Abrechnung,uhasibu,d,kusahihisha,mpambano,mashambulizi,NA,NA,NA,NULL,NA,NA,NA,NA,NA,NA,NA,NA,NA,NA,NA,NA,NA,NA,NA,NA,NA,NA,NA
2d27f,task,flow.Sequence,1_11,NA,NA,completion,60725.35,240058.6,240057.448,240074.376,300799.726,300800.9,2023-07-13T05:23:10Z,300816.393,Abrechnung,uhasibu,d,kusahihisha,mpambano,mashambulizi,NA,NA,NA,NULL,NA,NA,NA,NA,NA,NA,NA,NA,NA,NA,NA,NA,NA,NA,NA,NA,NA,NA,NA
2d27f,Deep Question,html.Page,1_12_0_0,NA,NA,form submission,10763.707,300801.1,300799.726,300816.393,311580.1,311580.6,2023-07-13T05:23:21Z,311592.939,Angreifer,mshambulizi,s,kitengo,tasinia,usafirishaji,ugozaji,NA,NA,NULL,NA,NA,NA,NA,NA,NA,NA,NA,NA,NA,NA,NA,NA,NA,NA,NA,NA,NA,NA
2d27f,Save data screen,canvas.Screen,1_12_0_1,NA,NA,timeout,838.94299999997,311586.6,311565.069,311592.939,312444.5,312445.2,2023-07-13T05:23:22Z,312431.882,Angreifer,mshambulizi,s,kitengo,tasinia,usafirishaji,NA,NA,0,NULL,NA,NA,NA,NA,NA,NA,NA,NA,NA,NA,NA,NA,NA,NA,NA,NA,NA,NA,NA
2d27f,deep,flow.Sequence,1_12_0,NA,NA,completion,11628.107,300801,300799.726,300816.393,312444.5,312445.7,2023-07-13T05:23:22Z,312431.882,Angreifer,mshambulizi,s,kitengo,tasinia,usafirishaji,NA,NA,NA,NULL,NA,NA,NA,NA,NA,NA,NA,NA,NA,NA,NA,NA,NA,NA,NA,NA,NA,NA,NA
2d27f,task,flow.Sequence,1_12,NA,NA,completion,11628.107,300800.9,300799.726,300816.393,312444.5,312446.2,2023-07-13T05:23:22Z,312431.882,Angreifer,mshambulizi,s,kitengo,tasinia,usafirishaji,NA,NA,NA,NULL,NA,NA,NA,NA,NA,NA,NA,NA,NA,NA,NA,NA,NA,NA,NA,NA,NA,NA,NA
2d27f,Deep Question,html.Page,1_13_0_0,NA,NA,form submission,7318.718,312446.7,312444.5,312431.882,319750.6,319751,2023-07-13T05:23:29Z,319766.242,Kanzler,diwani,d,rasilmali,mahitaji,maabudu,diwani,NA,NA,NULL,NA,NA,NA,NA,NA,NA,NA,NA,NA,NA,NA,NA,NA,NA,NA,NA,NA,NA,NA
2d27f,Save data screen,canvas.Screen,1_13_0_1,NA,NA,timeout,497.70899999997,319757,319747.321,319766.242,320247.47,320248.4,2023-07-13T05:23:30Z,320263.951,Kanzler,diwani,d,rasilmali,mahitaji,maabudu,NA,NA,1,NULL,NA,NA,NA,NA,NA,NA,NA,NA,NA,NA,NA,NA,NA,NA,NA,NA,NA,NA,NA
2d27f,deep,flow.Sequence,1_13_0,NA,NA,completion,7815.588,312446.6,312444.5,312431.882,320247.47,320248.6,2023-07-13T05:23:30Z,320263.951,Kanzler,diwani,d,rasilmali,mahitaji,maabudu,NA,NA,NA,NULL,NA,NA,NA,NA,NA,NA,NA,NA,NA,NA,NA,NA,NA,NA,NA,NA,NA,NA,NA
2d27f,task,flow.Sequence,1_13,NA,NA,completion,7815.588,312446.5,312444.5,312431.882,320247.47,320248.7,2023-07-13T05:23:30Z,320263.951,Kanzler,diwani,d,rasilmali,mahitaji,maabudu,NA,NA,NA,NULL,NA,NA,NA,NA,NA,NA,NA,NA,NA,NA,NA,NA,NA,NA,NA,NA,NA,NA,NA
2d27f,Deep Question,html.Page,1_14_0_0,NA,NA,form submission,10031.849,320248.9,320247.47,320263.951,330295.8,330296.2,2023-07-13T05:23:40Z,330320.12,Kontrolle,kudhibiti,d,mbinguni,kufunga,utegemezi,aindani,NA,NA,NULL,NA,NA,NA,NA,NA,NA,NA,NA,NA,NA,NA,NA,NA,NA,NA,NA,NA,NA,NA
2d27f,Save data screen,canvas.Screen,1_14_0_1,NA,NA,timeout,492.48200000002,330298.7,330279.356,330320.12,330796.099,330797,2023-07-13T05:23:40Z,330812.602,Kontrolle,kudhibiti,d,mbinguni,kufunga,utegemezi,NA,NA,0,NULL,NA,NA,NA,NA,NA,NA,NA,NA,NA,NA,NA,NA,NA,NA,NA,NA,NA,NA,NA
2d27f,deep,flow.Sequence,1_14_0,NA,NA,completion,10532.148,320248.9,320247.47,320263.951,330796.099,330797.3,2023-07-13T05:23:40Z,330812.602,Kontrolle,kudhibiti,d,mbinguni,kufunga,utegemezi,NA,NA,NA,NULL,NA,NA,NA,NA,NA,NA,NA,NA,NA,NA,NA,NA,NA,NA,NA,NA,NA,NA,NA
2d27f,task,flow.Sequence,1_14,NA,NA,completion,10532.148,320248.8,320247.47,320263.951,330796.099,330797.4,2023-07-13T05:23:40Z,330812.602,Kontrolle,kudhibiti,d,mbinguni,kufunga,utegemezi,NA,NA,NA,NULL,NA,NA,NA,NA,NA,NA,NA,NA,NA,NA,NA,NA,NA,NA,NA,NA,NA,NA,NA
2d27f,Deep Question,html.Page,1_15_0_0,NA,NA,form submission,28618.398,330797.6,330796.099,330812.602,359431,359431.7,2023-07-13T05:24:09Z,359442.337,System,maongozi,s,chokochoko,nuksani,mitaani,fuinmuvi,NA,NA,NULL,NA,NA,NA,NA,NA,NA,NA,NA,NA,NA,NA,NA,NA,NA,NA,NA,NA,NA,NA
2d27f,Save data screen,canvas.Screen,1_15_0_1,NA,NA,timeout,499.94,359437.6,359426.042,359442.337,359925.695,359927.1,2023-07-13T05:24:09Z,359942.277,System,maongozi,s,chokochoko,nuksani,mitaani,NA,NA,0,NULL,NA,NA,NA,NA,NA,NA,NA,NA,NA,NA,NA,NA,NA,NA,NA,NA,NA,NA,NA
2d27f,deep,flow.Sequence,1_15_0,NA,NA,completion,29113.093,330797.5,330796.099,330812.602,359925.695,359927.7,2023-07-13T05:24:09Z,359942.277,System,maongozi,s,chokochoko,nuksani,mitaani,NA,NA,NA,NULL,NA,NA,NA,NA,NA,NA,NA,NA,NA,NA,NA,NA,NA,NA,NA,NA,NA,NA,NA
2d27f,task,flow.Sequence,1_15,NA,NA,completion,29113.093,330797.5,330796.099,330812.602,359925.695,359928.2,2023-07-13T05:24:09Z,359942.277,System,maongozi,s,chokochoko,nuksani,mitaani,NA,NA,NA,NULL,NA,NA,NA,NA,NA,NA,NA,NA,NA,NA,NA,NA,NA,NA,NA,NA,NA,NA,NA
2d27f,retrieval block 1 (cued recall),flow.Loop,1,NA,NA,completion,346170.261,13740.2,13735.912,13755.434,359925.695,359928.8,2023-07-13T05:24:09Z,359942.277,NA,NA,NA,NA,NA,NA,NA,NA,NA,NULL,NA,NA,NA,NA,NA,NA,NA,NA,NA,NA,NA,NA,NA,NA,NA,NA,NA,NA,NA
2d27f,Shallow Question,html.Page,2_0_0_0,NA,NA,form submission,13693.323,359929.5,359925.695,359942.277,373635.6,373636.4,2023-07-13T05:24:23Z,373640.536,Angreifer,mshambulizi,s,kitengo,tasinia,usafirishaji,mshambulizi,NA,NA,"c(""distractor1"", ""distractor2"", ""distractor3"")",NA,NA,NA,NA,NA,NA,NA,NA,NA,NA,NA,NA,NA,NA,NA,NA,NA,NA,NA
2d27f,Save data screen,canvas.Screen,2_0_0_1,NA,NA,timeout,499.90099999995,373643.8,373623.955,373640.536,374123.951,374125.5,2023-07-13T05:24:24Z,374140.437,Angreifer,mshambulizi,s,kitengo,tasinia,usafirishaji,NA,NA,1,"c(""distractor1"", ""distractor2"", ""distractor3"")",NA,NA,NA,NA,NA,NA,NA,NA,NA,NA,NA,NA,NA,NA,NA,NA,NA,NA,NA
2d27f,shallow,flow.Sequence,2_0_0,NA,NA,completion,14181.674,359929.4,359925.695,359942.277,374123.951,374126.1,2023-07-13T05:24:24Z,374140.437,Angreifer,mshambulizi,s,kitengo,tasinia,usafirishaji,NA,NA,NA,"c(""distractor1"", ""distractor2"", ""distractor3"")",NA,NA,NA,NA,NA,NA,NA,NA,NA,NA,NA,NA,NA,NA,NA,NA,NA,NA,NA
2d27f,task,flow.Sequence,2_0,NA,NA,completion,14181.674,359929.3,359925.695,359942.277,374123.951,374126.6,2023-07-13T05:24:24Z,374140.437,Angreifer,mshambulizi,s,kitengo,tasinia,usafirishaji,NA,NA,NA,"c(""distractor1"", ""distractor2"", ""distractor3"")",NA,NA,NA,NA,NA,NA,NA,NA,NA,NA,NA,NA,NA,NA,NA,NA,NA,NA,NA
2d27f,Shallow Question,html.Page,2_1_0_0,NA,NA,form submission,8033.663,374127.1,374123.951,374140.437,382174.1,382174.7,2023-07-13T05:24:32Z,382192.175,Sänger,mwimbaji,s,msichana,shughuli,mshirika,mwimbaji,NA,NA,"c(""distractor1"", ""distractor2"", ""distractor3"")",NA,NA,NA,NA,NA,NA,NA,NA,NA,NA,NA,NA,NA,NA,NA,NA,NA,NA,NA
2d27f,Save data screen,canvas.Screen,2_1_0_1,NA,NA,timeout,497.18800000002,382181.5,382156.28,382192.175,382672.874,382674.5,2023-07-13T05:24:32Z,382689.363,Sänger,mwimbaji,s,msichana,shughuli,mshirika,NA,NA,1,"c(""distractor1"", ""distractor2"", ""distractor3"")",NA,NA,NA,NA,NA,NA,NA,NA,NA,NA,NA,NA,NA,NA,NA,NA,NA,NA,NA
2d27f,shallow,flow.Sequence,2_1_0,NA,NA,completion,8532.437,374127,374123.951,374140.437,382672.874,382675.1,2023-07-13T05:24:32Z,382689.363,Sänger,mwimbaji,s,msichana,shughuli,mshirika,NA,NA,NA,"c(""distractor1"", ""distractor2"", ""distractor3"")",NA,NA,NA,NA,NA,NA,NA,NA,NA,NA,NA,NA,NA,NA,NA,NA,NA,NA,NA
2d27f,task,flow.Sequence,2_1,NA,NA,completion,8532.437,374126.9,374123.951,374140.437,382672.874,382675.7,2023-07-13T05:24:32Z,382689.363,Sänger,mwimbaji,s,msichana,shughuli,mshirika,NA,NA,NA,"c(""distractor1"", ""distractor2"", ""distractor3"")",NA,NA,NA,NA,NA,NA,NA,NA,NA,NA,NA,NA,NA,NA,NA,NA,NA,NA,NA
2d27f,Shallow Question,html.Page,2_2_0_0,NA,NA,form submission,8178.4369999999,382676.2,382672.874,382689.363,390867.8,390868.3,2023-07-13T05:24:40Z,390871.673,Kultur,utamaduni,d,shetani,gerezani,mazingira,utamaduni,NA,NA,"c(""distractor1"", ""distractor2"", ""distractor3"")",NA,NA,NA,NA,NA,NA,NA,NA,NA,NA,NA,NA,NA,NA,NA,NA,NA,NA,NA
2d27f,Save data screen,canvas.Screen,2_2_0_1,NA,NA,timeout,500.13799999998,390875.7,390855.292,390871.673,391355.101,391356.5,2023-07-13T05:24:41Z,391371.811,Kultur,utamaduni,d,shetani,gerezani,mazingira,NA,NA,1,"c(""distractor1"", ""distractor2"", ""distractor3"")",NA,NA,NA,NA,NA,NA,NA,NA,NA,NA,NA,NA,NA,NA,NA,NA,NA,NA,NA
2d27f,shallow,flow.Sequence,2_2_0,NA,NA,completion,8665.738,382676.1,382672.874,382689.363,391355.101,391357.1,2023-07-13T05:24:41Z,391371.811,Kultur,utamaduni,d,shetani,gerezani,mazingira,NA,NA,NA,"c(""distractor1"", ""distractor2"", ""distractor3"")",NA,NA,NA,NA,NA,NA,NA,NA,NA,NA,NA,NA,NA,NA,NA,NA,NA,NA,NA
2d27f,task,flow.Sequence,2_2,NA,NA,completion,8665.738,382675.9,382672.874,382689.363,391355.101,391357.7,2023-07-13T05:24:41Z,391371.811,Kultur,utamaduni,d,shetani,gerezani,mazingira,NA,NA,NA,"c(""distractor1"", ""distractor2"", ""distractor3"")",NA,NA,NA,NA,NA,NA,NA,NA,NA,NA,NA,NA,NA,NA,NA,NA,NA,NA,NA
2d27f,Shallow Question,html.Page,2_3_0_0,NA,NA,form submission,4356.089,391358.2,391355.101,391371.811,395727.9,395728.7,2023-07-13T05:24:45Z,395737.724,Prüfung,mtihani,s,mkulima,mtizamo,ufumbuzi,mtihani,NA,NA,"c(""distractor1"", ""distractor2"", ""distractor3"")",NA,NA,NA,NA,NA,NA,NA,NA,NA,NA,NA,NA,NA,NA,NA,NA,NA,NA,NA
2d27f,Save data screen,canvas.Screen,2_3_0_1,NA,NA,timeout,499.91500000004,395735.4,395721.192,395737.724,396221.149,396222.8,2023-07-13T05:24:46Z,396237.639,Prüfung,mtihani,s,mkulima,mtizamo,ufumbuzi,NA,NA,1,"c(""distractor1"", ""distractor2"", ""distractor3"")",NA,NA,NA,NA,NA,NA,NA,NA,NA,NA,NA,NA,NA,NA,NA,NA,NA,NA,NA
2d27f,shallow,flow.Sequence,2_3_0,NA,NA,completion,4849.338,391358.1,391355.101,391371.811,396221.149,396223.6,2023-07-13T05:24:46Z,396237.639,Prüfung,mtihani,s,mkulima,mtizamo,ufumbuzi,NA,NA,NA,"c(""distractor1"", ""distractor2"", ""distractor3"")",NA,NA,NA,NA,NA,NA,NA,NA,NA,NA,NA,NA,NA,NA,NA,NA,NA,NA,NA
2d27f,task,flow.Sequence,2_3,NA,NA,completion,4849.338,391358,391355.101,391371.811,396221.149,396224,2023-07-13T05:24:46Z,396237.639,Prüfung,mtihani,s,mkulima,mtizamo,ufumbuzi,NA,NA,NA,"c(""distractor1"", ""distractor2"", ""distractor3"")",NA,NA,NA,NA,NA,NA,NA,NA,NA,NA,NA,NA,NA,NA,NA,NA,NA,NA,NA
2d27f,Shallow Question,html.Page,2_4_0_0,NA,NA,form submission,5705.0609999999,396224.5,396221.149,396237.639,401942.7,401943.3,2023-07-13T05:24:51Z,401953.595,Kanzler,diwani,d,rasilmali,mahitaji,maabudu,diwani,NA,NA,"c(""distractor1"", ""distractor2"", ""distractor3"")",NA,NA,NA,NA,NA,NA,NA,NA,NA,NA,NA,NA,NA,NA,NA,NA,NA,NA,NA
2d27f,Save data screen,canvas.Screen,2_4_0_1,NA,NA,timeout,499.924,401950.2,401937.167,401953.595,402436.906,402438.7,2023-07-13T05:24:52Z,402453.519,Kanzler,diwani,d,rasilmali,mahitaji,maabudu,NA,NA,1,"c(""distractor1"", ""distractor2"", ""distractor3"")",NA,NA,NA,NA,NA,NA,NA,NA,NA,NA,NA,NA,NA,NA,NA,NA,NA,NA,NA
2d27f,shallow,flow.Sequence,2_4_0,NA,NA,completion,6199.267,396224.5,396221.149,396237.639,402436.906,402439.7,2023-07-13T05:24:52Z,402453.519,Kanzler,diwani,d,rasilmali,mahitaji,maabudu,NA,NA,NA,"c(""distractor1"", ""distractor2"", ""distractor3"")",NA,NA,NA,NA,NA,NA,NA,NA,NA,NA,NA,NA,NA,NA,NA,NA,NA,NA,NA
2d27f,task,flow.Sequence,2_4,NA,NA,completion,6199.267,396224.3,396221.149,396237.639,402436.906,402440.3,2023-07-13T05:24:52Z,402453.519,Kanzler,diwani,d,rasilmali,mahitaji,maabudu,NA,NA,NA,"c(""distractor1"", ""distractor2"", ""distractor3"")",NA,NA,NA,NA,NA,NA,NA,NA,NA,NA,NA,NA,NA,NA,NA,NA,NA,NA,NA
2d27f,Shallow Question,html.Page,2_5_0_0,NA,NA,form submission,4509.081,402440.8,402436.906,402453.519,406962.6,406963.3,2023-07-13T05:24:56Z,406969.633,Körper,kiwiliwili,d,mapambano,mpatanishi,kiolezo,kiwiliwili,NA,NA,"c(""distractor1"", ""distractor2"", ""distractor3"")",NA,NA,NA,NA,NA,NA,NA,NA,NA,NA,NA,NA,NA,NA,NA,NA,NA,NA,NA
2d27f,Save data screen,canvas.Screen,2_5_0_1,NA,NA,timeout,499.92700000003,406970.7,406953.094,406969.633,407453.052,407454.7,2023-07-13T05:24:57Z,407469.56,Körper,kiwiliwili,d,mapambano,mpatanishi,kiolezo,NA,NA,1,"c(""distractor1"", ""distractor2"", ""distractor3"")",NA,NA,NA,NA,NA,NA,NA,NA,NA,NA,NA,NA,NA,NA,NA,NA,NA,NA,NA
2d27f,shallow,flow.Sequence,2_5_0,NA,NA,completion,4999.5330000001,402440.7,402436.906,402453.519,407453.052,407455.2,2023-07-13T05:24:57Z,407469.56,Körper,kiwiliwili,d,mapambano,mpatanishi,kiolezo,NA,NA,NA,"c(""distractor1"", ""distractor2"", ""distractor3"")",NA,NA,NA,NA,NA,NA,NA,NA,NA,NA,NA,NA,NA,NA,NA,NA,NA,NA,NA
2d27f,task,flow.Sequence,2_5,NA,NA,completion,4999.5330000001,402440.6,402436.906,402453.519,407453.052,407455.7,2023-07-13T05:24:57Z,407469.56,Körper,kiwiliwili,d,mapambano,mpatanishi,kiolezo,NA,NA,NA,"c(""distractor1"", ""distractor2"", ""distractor3"")",NA,NA,NA,NA,NA,NA,NA,NA,NA,NA,NA,NA,NA,NA,NA,NA,NA,NA,NA
2d27f,Shallow Question,html.Page,2_6_0_0,NA,NA,form submission,23790.14,407456.3,407453.052,407469.56,431259.7,431260.4,2023-07-13T05:25:21Z,431283.177,Können,unaweza,s,kiongozi,bustani,mienendo,unaweza,NA,NA,"c(""distractor1"", ""distractor2"", ""distractor3"")",NA,NA,NA,NA,NA,NA,NA,NA,NA,NA,NA,NA,NA,NA,NA,NA,NA,NA,NA
2d27f,Save data screen,canvas.Screen,2_6_0_1,NA,NA,timeout,499.946,431268.1,431249.876,431283.177,431766.625,431768.4,2023-07-13T05:25:21Z,431783.123,Können,unaweza,s,kiongozi,bustani,mienendo,NA,NA,1,"c(""distractor1"", ""distractor2"", ""distractor3"")",NA,NA,NA,NA,NA,NA,NA,NA,NA,NA,NA,NA,NA,NA,NA,NA,NA,NA,NA
2d27f,shallow,flow.Sequence,2_6_0,NA,NA,completion,24297.065,407456.2,407453.052,407469.56,431766.625,431769.1,2023-07-13T05:25:21Z,431783.123,Können,unaweza,s,kiongozi,bustani,mienendo,NA,NA,NA,"c(""distractor1"", ""distractor2"", ""distractor3"")",NA,NA,NA,NA,NA,NA,NA,NA,NA,NA,NA,NA,NA,NA,NA,NA,NA,NA,NA
2d27f,task,flow.Sequence,2_6,NA,NA,completion,24297.065,407456.1,407453.052,407469.56,431766.625,431769.7,2023-07-13T05:25:21Z,431783.123,Können,unaweza,s,kiongozi,bustani,mienendo,NA,NA,NA,"c(""distractor1"", ""distractor2"", ""distractor3"")",NA,NA,NA,NA,NA,NA,NA,NA,NA,NA,NA,NA,NA,NA,NA,NA,NA,NA,NA
2d27f,Shallow Question,html.Page,2_7_0_0,NA,NA,form submission,9263.1769999999,431770.2,431766.625,431783.123,441046.3,441047,2023-07-13T05:25:30Z,441048.614,Übersicht,kilindo,d,mgusano,chipukizi,kulinganisha,kilindo,NA,NA,"c(""distractor1"", ""distractor2"", ""distractor3"")",NA,NA,NA,NA,NA,NA,NA,NA,NA,NA,NA,NA,NA,NA,NA,NA,NA,NA,NA
2d27f,Save data screen,canvas.Screen,2_7_0_1,NA,NA,timeout,499.978,441054.8,441032.1,441048.614,441532.049,441533.9,2023-07-13T05:25:31Z,441548.592,Übersicht,kilindo,d,mgusano,chipukizi,kulinganisha,NA,NA,1,"c(""distractor1"", ""distractor2"", ""distractor3"")",NA,NA,NA,NA,NA,NA,NA,NA,NA,NA,NA,NA,NA,NA,NA,NA,NA,NA,NA
2d27f,shallow,flow.Sequence,2_7_0,NA,NA,completion,9748.926,431770.1,431766.625,431783.123,441532.049,441534.4,2023-07-13T05:25:31Z,441548.592,Übersicht,kilindo,d,mgusano,chipukizi,kulinganisha,NA,NA,NA,"c(""distractor1"", ""distractor2"", ""distractor3"")",NA,NA,NA,NA,NA,NA,NA,NA,NA,NA,NA,NA,NA,NA,NA,NA,NA,NA,NA
2d27f,task,flow.Sequence,2_7,NA,NA,completion,9748.926,431770,431766.625,431783.123,441532.049,441535,2023-07-13T05:25:31Z,441548.592,Übersicht,kilindo,d,mgusano,chipukizi,kulinganisha,NA,NA,NA,"c(""distractor1"", ""distractor2"", ""distractor3"")",NA,NA,NA,NA,NA,NA,NA,NA,NA,NA,NA,NA,NA,NA,NA,NA,NA,NA,NA
2d27f,Shallow Question,html.Page,2_8_0_0,NA,NA,form submission,7291.308,441535.5,441532.049,441548.592,448839.9,448840.6,2023-07-13T05:25:38Z,448847.648,Kreativität,ubunifu,s,mratibu,mwendelezo,makubaliano,ubunifu,NA,NA,"c(""distractor1"", ""distractor2"", ""distractor3"")",NA,NA,NA,NA,NA,NA,NA,NA,NA,NA,NA,NA,NA,NA,NA,NA,NA,NA,NA
2d27f,Save data screen,canvas.Screen,2_8_0_1,NA,NA,timeout,500.08199999999,448847.3,448830.976,448847.648,449331.048,449332.5,2023-07-13T05:25:39Z,449347.73,Kreativität,ubunifu,s,mratibu,mwendelezo,makubaliano,NA,NA,1,"c(""distractor1"", ""distractor2"", ""distractor3"")",NA,NA,NA,NA,NA,NA,NA,NA,NA,NA,NA,NA,NA,NA,NA,NA,NA,NA,NA
2d27f,shallow,flow.Sequence,2_8_0,NA,NA,completion,7782.456,441535.3,441532.049,441548.592,449331.048,449333.1,2023-07-13T05:25:39Z,449347.73,Kreativität,ubunifu,s,mratibu,mwendelezo,makubaliano,NA,NA,NA,"c(""distractor1"", ""distractor2"", ""distractor3"")",NA,NA,NA,NA,NA,NA,NA,NA,NA,NA,NA,NA,NA,NA,NA,NA,NA,NA,NA
2d27f,task,flow.Sequence,2_8,NA,NA,completion,7782.456,441535.3,441532.049,441548.592,449331.048,449333.7,2023-07-13T05:25:39Z,449347.73,Kreativität,ubunifu,s,mratibu,mwendelezo,makubaliano,NA,NA,NA,"c(""distractor1"", ""distractor2"", ""distractor3"")",NA,NA,NA,NA,NA,NA,NA,NA,NA,NA,NA,NA,NA,NA,NA,NA,NA,NA,NA
2d27f,Shallow Question,html.Page,2_9_0_0,NA,NA,form submission,9042.87,449334.2,449331.048,449347.73,458390.6,458391.2,2023-07-13T05:25:48Z,458396.427,Kontrolle,kudhibiti,d,mbinguni,kufunga,utegemezi,kudhibiti,NA,NA,"c(""distractor1"", ""distractor2"", ""distractor3"")",NA,NA,NA,NA,NA,NA,NA,NA,NA,NA,NA,NA,NA,NA,NA,NA,NA,NA,NA
2d27f,Save data screen,canvas.Screen,2_9_0_1,NA,NA,timeout,500.02099999995,458398.7,458379.863,458396.427,458879.836,458881.3,2023-07-13T05:25:48Z,458896.448,Kontrolle,kudhibiti,d,mbinguni,kufunga,utegemezi,NA,NA,1,"c(""distractor1"", ""distractor2"", ""distractor3"")",NA,NA,NA,NA,NA,NA,NA,NA,NA,NA,NA,NA,NA,NA,NA,NA,NA,NA,NA
2d27f,shallow,flow.Sequence,2_9_0,NA,NA,completion,9532.106,449334,449331.048,449347.73,458879.836,458881.9,2023-07-13T05:25:48Z,458896.448,Kontrolle,kudhibiti,d,mbinguni,kufunga,utegemezi,NA,NA,NA,"c(""distractor1"", ""distractor2"", ""distractor3"")",NA,NA,NA,NA,NA,NA,NA,NA,NA,NA,NA,NA,NA,NA,NA,NA,NA,NA,NA
2d27f,task,flow.Sequence,2_9,NA,NA,completion,9532.106,449333.9,449331.048,449347.73,458879.836,458882.4,2023-07-13T05:25:48Z,458896.448,Kontrolle,kudhibiti,d,mbinguni,kufunga,utegemezi,NA,NA,NA,"c(""distractor1"", ""distractor2"", ""distractor3"")",NA,NA,NA,NA,NA,NA,NA,NA,NA,NA,NA,NA,NA,NA,NA,NA,NA,NA,NA
2d27f,Shallow Question,html.Page,2_10_0_0,NA,NA,form submission,12606.352,458882.9,458879.836,458896.448,471502.8,471503.4,2023-07-13T05:26:01Z,471511.422,Abrechnung,uhasibu,d,kusahihisha,mpambano,mashambulizi,mashambulizi,NA,NA,"c(""distractor1"", ""distractor2"", ""distractor3"")",NA,NA,NA,NA,NA,NA,NA,NA,NA,NA,NA,NA,NA,NA,NA,NA,NA,NA,NA
2d27f,Save data screen,canvas.Screen,2_10_0_1,NA,NA,timeout,502.48799999995,471510.2,471494.787,471511.422,471994.835,471996.4,2023-07-13T05:26:01Z,472013.91,Abrechnung,uhasibu,d,kusahihisha,mpambano,mashambulizi,NA,NA,0,"c(""distractor1"", ""distractor2"", ""distractor3"")",NA,NA,NA,NA,NA,NA,NA,NA,NA,NA,NA,NA,NA,NA,NA,NA,NA,NA,NA
2d27f,shallow,flow.Sequence,2_10_0,NA,NA,completion,13098.387,458882.8,458879.836,458896.448,471994.835,471997,2023-07-13T05:26:01Z,472013.91,Abrechnung,uhasibu,d,kusahihisha,mpambano,mashambulizi,NA,NA,NA,"c(""distractor1"", ""distractor2"", ""distractor3"")",NA,NA,NA,NA,NA,NA,NA,NA,NA,NA,NA,NA,NA,NA,NA,NA,NA,NA,NA
2d27f,task,flow.Sequence,2_10,NA,NA,completion,13098.387,458882.8,458879.836,458896.448,471994.835,471997.9,2023-07-13T05:26:01Z,472013.91,Abrechnung,uhasibu,d,kusahihisha,mpambano,mashambulizi,NA,NA,NA,"c(""distractor1"", ""distractor2"", ""distractor3"")",NA,NA,NA,NA,NA,NA,NA,NA,NA,NA,NA,NA,NA,NA,NA,NA,NA,NA,NA
2d27f,Shallow Question,html.Page,2_11_0_0,NA,NA,form submission,7959.59,471998.4,471994.835,472013.91,479973.5,479974.2,2023-07-13T05:26:09Z,479977,System,maongozi,s,chokochoko,nuksani,mitaani,maongozi,NA,NA,"c(""distractor1"", ""distractor2"", ""distractor3"")",NA,NA,NA,NA,NA,NA,NA,NA,NA,NA,NA,NA,NA,NA,NA,NA,NA,NA,NA
2d27f,Save data screen,canvas.Screen,2_11_0_1,NA,NA,timeout,499.97399999999,479981.8,479960.516,479977,480460.422,480462.1,2023-07-13T05:26:10Z,480476.974,System,maongozi,s,chokochoko,nuksani,mitaani,NA,NA,1,"c(""distractor1"", ""distractor2"", ""distractor3"")",NA,NA,NA,NA,NA,NA,NA,NA,NA,NA,NA,NA,NA,NA,NA,NA,NA,NA,NA
2d27f,shallow,flow.Sequence,2_11_0,NA,NA,completion,8446.512,471998.2,471994.835,472013.91,480460.422,480462.6,2023-07-13T05:26:10Z,480476.974,System,maongozi,s,chokochoko,nuksani,mitaani,NA,NA,NA,"c(""distractor1"", ""distractor2"", ""distractor3"")",NA,NA,NA,NA,NA,NA,NA,NA,NA,NA,NA,NA,NA,NA,NA,NA,NA,NA,NA
2d27f,task,flow.Sequence,2_11,NA,NA,completion,8446.512,471998.2,471994.835,472013.91,480460.422,480463.2,2023-07-13T05:26:10Z,480476.974,System,maongozi,s,chokochoko,nuksani,mitaani,NA,NA,NA,"c(""distractor1"", ""distractor2"", ""distractor3"")",NA,NA,NA,NA,NA,NA,NA,NA,NA,NA,NA,NA,NA,NA,NA,NA,NA,NA,NA
2d27f,Shallow Question,html.Page,2_12_0_0,NA,NA,form submission,11943.726,480463.7,480460.422,480476.974,492420.7,492421.3,2023-07-13T05:26:22Z,492425.419,Verzögerung,kuchelewa,d,mwakilishi,mwanauchumi,jaribio,kuchelewa,NA,NA,"c(""distractor1"", ""distractor2"", ""distractor3"")",NA,NA,NA,NA,NA,NA,NA,NA,NA,NA,NA,NA,NA,NA,NA,NA,NA,NA,NA
2d27f,Save data screen,canvas.Screen,2_12_0_1,NA,NA,timeout,499.91200000001,492428.7,492408.974,492425.419,492908.836,492910.3,2023-07-13T05:26:22Z,492925.331,Verzögerung,kuchelewa,d,mwakilishi,mwanauchumi,jaribio,NA,NA,1,"c(""distractor1"", ""distractor2"", ""distractor3"")",NA,NA,NA,NA,NA,NA,NA,NA,NA,NA,NA,NA,NA,NA,NA,NA,NA,NA,NA
2d27f,shallow,flow.Sequence,2_12_0,NA,NA,completion,12431.862,480463.6,480460.422,480476.974,492908.836,492911,2023-07-13T05:26:22Z,492925.331,Verzögerung,kuchelewa,d,mwakilishi,mwanauchumi,jaribio,NA,NA,NA,"c(""distractor1"", ""distractor2"", ""distractor3"")",NA,NA,NA,NA,NA,NA,NA,NA,NA,NA,NA,NA,NA,NA,NA,NA,NA,NA,NA
2d27f,task,flow.Sequence,2_12,NA,NA,completion,12431.862,480463.5,480460.422,480476.974,492908.836,492911.5,2023-07-13T05:26:22Z,492925.331,Verzögerung,kuchelewa,d,mwakilishi,mwanauchumi,jaribio,NA,NA,NA,"c(""distractor1"", ""distractor2"", ""distractor3"")",NA,NA,NA,NA,NA,NA,NA,NA,NA,NA,NA,NA,NA,NA,NA,NA,NA,NA,NA
2d27f,Shallow Question,html.Page,2_13_0_0,NA,NA,form submission,15979.169,492911.9,492908.836,492925.331,508904.5,508905.2,2023-07-13T05:26:38Z,508906.634,Aufstand,ugomaji,s,mazidio,msingi,kujieleza,ugomaji,NA,NA,"c(""distractor1"", ""distractor2"", ""distractor3"")",NA,NA,NA,NA,NA,NA,NA,NA,NA,NA,NA,NA,NA,NA,NA,NA,NA,NA,NA
2d27f,Save data screen,canvas.Screen,2_13_0_1,NA,NA,timeout,499.90499999997,508913,508892.987,508906.634,509390.074,509391.5,2023-07-13T05:26:39Z,509406.539,Aufstand,ugomaji,s,mazidio,msingi,kujieleza,NA,NA,1,"c(""distractor1"", ""distractor2"", ""distractor3"")",NA,NA,NA,NA,NA,NA,NA,NA,NA,NA,NA,NA,NA,NA,NA,NA,NA,NA,NA
2d27f,shallow,flow.Sequence,2_13_0,NA,NA,completion,16464.743,492911.9,492908.836,492925.331,509390.074,509392.1,2023-07-13T05:26:39Z,509406.539,Aufstand,ugomaji,s,mazidio,msingi,kujieleza,NA,NA,NA,"c(""distractor1"", ""distractor2"", ""distractor3"")",NA,NA,NA,NA,NA,NA,NA,NA,NA,NA,NA,NA,NA,NA,NA,NA,NA,NA,NA
2d27f,task,flow.Sequence,2_13,NA,NA,completion,16464.743,492911.7,492908.836,492925.331,509390.074,509392.7,2023-07-13T05:26:39Z,509406.539,Aufstand,ugomaji,s,mazidio,msingi,kujieleza,NA,NA,NA,"c(""distractor1"", ""distractor2"", ""distractor3"")",NA,NA,NA,NA,NA,NA,NA,NA,NA,NA,NA,NA,NA,NA,NA,NA,NA,NA,NA
2d27f,Shallow Question,html.Page,2_14_0_0,NA,NA,form submission,7307.861,509393.1,509390.074,509406.539,516714.4,516715.1,2023-07-13T05:26:46Z,516758.732,Gefährdung,kuhatarisha,d,uchokozi,udhaifu,makorowezo,kuhatarisha,NA,NA,"c(""distractor1"", ""distractor2"", ""distractor3"")",NA,NA,NA,NA,NA,NA,NA,NA,NA,NA,NA,NA,NA,NA,NA,NA,NA,NA,NA
2d27f,Save data screen,canvas.Screen,2_14_0_1,NA,NA,timeout,496.88199999998,516721.7,516705.843,516758.732,517239.081,517240.7,2023-07-13T05:26:47Z,517255.614,Gefährdung,kuhatarisha,d,uchokozi,udhaifu,makorowezo,NA,NA,1,"c(""distractor1"", ""distractor2"", ""distractor3"")",NA,NA,NA,NA,NA,NA,NA,NA,NA,NA,NA,NA,NA,NA,NA,NA,NA,NA,NA
2d27f,shallow,flow.Sequence,2_14_0,NA,NA,completion,7832.542,509393,509390.074,509406.539,517239.081,517241.4,2023-07-13T05:26:47Z,517255.614,Gefährdung,kuhatarisha,d,uchokozi,udhaifu,makorowezo,NA,NA,NA,"c(""distractor1"", ""distractor2"", ""distractor3"")",NA,NA,NA,NA,NA,NA,NA,NA,NA,NA,NA,NA,NA,NA,NA,NA,NA,NA,NA
2d27f,task,flow.Sequence,2_14,NA,NA,completion,7832.542,509393,509390.074,509406.539,517239.081,517242,2023-07-13T05:26:47Z,517255.614,Gefährdung,kuhatarisha,d,uchokozi,udhaifu,makorowezo,NA,NA,NA,"c(""distractor1"", ""distractor2"", ""distractor3"")",NA,NA,NA,NA,NA,NA,NA,NA,NA,NA,NA,NA,NA,NA,NA,NA,NA,NA,NA
2d27f,Shallow Question,html.Page,2_15_0_0,NA,NA,form submission,25453.986,517242.8,517239.081,517255.614,542709.6,542710.2,2023-07-13T05:27:12Z,542718.973,Lawine,banguko,s,maambukizi,usuluhishi,chekechea,banguko,NA,NA,"c(""distractor1"", ""distractor2"", ""distractor3"")",NA,NA,NA,NA,NA,NA,NA,NA,NA,NA,NA,NA,NA,NA,NA,NA,NA,NA,NA
2d27f,Save data screen,canvas.Screen,2_15_0_1,NA,NA,timeout,499.95799999998,542717.3,542702.559,542718.973,543202.437,543204,2023-07-13T05:27:13Z,543218.931,Lawine,banguko,s,maambukizi,usuluhishi,chekechea,NA,NA,1,"c(""distractor1"", ""distractor2"", ""distractor3"")",NA,NA,NA,NA,NA,NA,NA,NA,NA,NA,NA,NA,NA,NA,NA,NA,NA,NA,NA
2d27f,shallow,flow.Sequence,2_15_0,NA,NA,completion,25946.823,517242.4,517239.081,517255.614,543202.437,543204.9,2023-07-13T05:27:13Z,543218.931,Lawine,banguko,s,maambukizi,usuluhishi,chekechea,NA,NA,NA,"c(""distractor1"", ""distractor2"", ""distractor3"")",NA,NA,NA,NA,NA,NA,NA,NA,NA,NA,NA,NA,NA,NA,NA,NA,NA,NA,NA
2d27f,task,flow.Sequence,2_15,NA,NA,completion,25946.823,517242.2,517239.081,517255.614,543202.437,543205.6,2023-07-13T05:27:13Z,543218.931,Lawine,banguko,s,maambukizi,usuluhishi,chekechea,NA,NA,NA,"c(""distractor1"", ""distractor2"", ""distractor3"")",NA,NA,NA,NA,NA,NA,NA,NA,NA,NA,NA,NA,NA,NA,NA,NA,NA,NA,NA
2d27f,retrieval block 2 (multiple choice),flow.Loop,2,NA,NA,completion,183260.16,359929.2,359925.695,359942.277,543202.437,543206.2,2023-07-13T05:27:13Z,543218.931,NA,NA,NA,NA,NA,NA,NA,NA,NA,"c(""distractor1"", ""distractor2"", ""distractor3"")",NA,NA,NA,NA,NA,NA,NA,NA,NA,NA,NA,NA,NA,NA,NA,NA,NA,NA,NA
2d27f,End,canvas.Screen,3,NA,keypress(Space),response,2271.569,543206.6,543202.437,543218.931,545490.5,545493.8,2023-07-13T05:27:15Z,545502.153,NA,NA,NA,NA,NA,NA,NA,NA,NA,NULL,NA,NA,NA,NA,NA,NA,NA,NA,NA,NA,NA,NA,NA,NA,NA,NA,NA,NA,NA
2d27f,root,flow.Sequence,NA,NA,NA,completion,544519.27,929.29999999999,687.983,971.23,545490.5,545494.9,2023-07-13T05:27:15Z,545502.153,NA,NA,NA,NA,NA,NA,NA,NA,NA,NULL,NA,NA,NA,NA,NA,NA,NA,NA,NA,NA,NA,NA,NA,NA,NA,NA,NA,NA,NA
