observation,sender,sender_type,sender_id,response,response_action,ended_on,duration,time_run,time_render,time_show,time_end,time_commit,timestamp,time_switch,german,swahili,enc,distractor1,distractor2,distractor3,response_2,x,correct,distractors,url_vp,url_sess,meta_labjs_version,meta_location,meta_user_agent,meta_platform,meta_language,meta_locale,meta_time_zone,meta_timezone_offset,meta_screen_width,meta_screen_height,meta_scroll_width,meta_scroll_height,meta_window_inner_width,meta_window_inner_height,meta_device_pixel_ratio,meta_labjs_build_flavor,meta_labjs_build_commit
9088f,Introduction delayed retrieval,canvas.Screen,0,weiter,keypress(Space),response,1844,207,208,235,2052,2063,2023-05-12T16:43:07Z,2121,NA,NA,NA,NA,NA,NA,NA,NA,NA,NULL,122,4,20.02.04,https://neurocog.fernuni.ch/studies/vweber/delayed/index.html?vp=122&sess=4,"Mozilla/5.0 (Macintosh; Intel Mac OS X 10_15_7) AppleWebKit/605.1.15 (KHTML, like Gecko) Version/18.1 Safari/605.1.15",MacIntel,de-DE,de-DE,Europe/Zurich,-60,1440,900,1440,627,1440,675,2,production,f5b4a49f956347addd546a832a3327688c2c0fef
9088f,Deep Question,html.Page,1_0_0_0,NA,NA,form submission,2643,2064,2104,2121,4764,4764,2023-05-12T16:43:07Z,4778,System,maongozi,d,chokochoko,nuksani,mitaani,sdf,NA,NA,NULL,NA,NA,NA,NA,NA,NA,NA,NA,NA,NA,NA,NA,NA,NA,NA,NA,NA,NA,NA
9088f,Save data screen,canvas.Screen,1_0_0_1,NA,NA,timeout,494,4765,4765,4778,5255,5256,2023-05-12T16:43:07Z,5272,System,maongozi,d,chokochoko,nuksani,mitaani,NA,NA,0,NULL,NA,NA,NA,NA,NA,NA,NA,NA,NA,NA,NA,NA,NA,NA,NA,NA,NA,NA,NA
9088f,deep,flow.Sequence,1_0_0,NA,NA,completion,3134,2064,2104,2121,5255,5257,2023-05-12T16:43:07Z,5272,System,maongozi,d,chokochoko,nuksani,mitaani,NA,NA,NA,NULL,NA,NA,NA,NA,NA,NA,NA,NA,NA,NA,NA,NA,NA,NA,NA,NA,NA,NA,NA
9088f,task,flow.Sequence,1_0,NA,NA,completion,3134,2064,2104,2121,5255,5257,2023-05-12T16:43:07Z,5272,System,maongozi,d,chokochoko,nuksani,mitaani,NA,NA,NA,NULL,NA,NA,NA,NA,NA,NA,NA,NA,NA,NA,NA,NA,NA,NA,NA,NA,NA,NA,NA
9088f,Deep Question,html.Page,1_1_0_0,NA,NA,form submission,1649,5258,5255,5272,6921,6922,2023-05-12T16:43:08Z,6945,Lawine,banguko,d,maambukizi,usuluhishi,chekechea,dsf,NA,NA,NULL,NA,NA,NA,NA,NA,NA,NA,NA,NA,NA,NA,NA,NA,NA,NA,NA,NA,NA,NA
9088f,Save data screen,canvas.Screen,1_1_0_1,NA,NA,timeout,493,6922,6924,6945,7422,7423,2023-05-12T16:43:08Z,7438,Lawine,banguko,d,maambukizi,usuluhishi,chekechea,NA,NA,0,NULL,NA,NA,NA,NA,NA,NA,NA,NA,NA,NA,NA,NA,NA,NA,NA,NA,NA,NA,NA
9088f,deep,flow.Sequence,1_1_0,NA,NA,completion,2150,5258,5255,5272,7422,7423,2023-05-12T16:43:13Z,7438,Lawine,banguko,d,maambukizi,usuluhishi,chekechea,NA,NA,NA,NULL,NA,NA,NA,NA,NA,NA,NA,NA,NA,NA,NA,NA,NA,NA,NA,NA,NA,NA,NA
9088f,task,flow.Sequence,1_1,NA,NA,completion,2150,5258,5255,5272,7422,7423,2023-05-12T16:43:13Z,7438,Lawine,banguko,d,maambukizi,usuluhishi,chekechea,NA,NA,NA,NULL,NA,NA,NA,NA,NA,NA,NA,NA,NA,NA,NA,NA,NA,NA,NA,NA,NA,NA,NA
9088f,Deep Question,html.Page,1_2_0_0,NA,NA,form submission,687,7424,7422,7438,8125,8126,2023-05-12T16:43:16Z,8146,Übersicht,kilindo,s,mgusano,chipukizi,kulinganisha,sdf,NA,NA,NULL,NA,NA,NA,NA,NA,NA,NA,NA,NA,NA,NA,NA,NA,NA,NA,NA,NA,NA,NA
9088f,Save data screen,canvas.Screen,1_2_0_1,NA,NA,timeout,492,8126,8127,8146,8622,8622,2023-05-12T16:43:16Z,8638,Übersicht,kilindo,s,mgusano,chipukizi,kulinganisha,NA,NA,0,NULL,NA,NA,NA,NA,NA,NA,NA,NA,NA,NA,NA,NA,NA,NA,NA,NA,NA,NA,NA
9088f,deep,flow.Sequence,1_2_0,NA,NA,completion,1184,7424,7422,7438,8622,8623,2023-05-12T16:43:16Z,8638,Übersicht,kilindo,s,mgusano,chipukizi,kulinganisha,NA,NA,NA,NULL,NA,NA,NA,NA,NA,NA,NA,NA,NA,NA,NA,NA,NA,NA,NA,NA,NA,NA,NA
9088f,task,flow.Sequence,1_2,NA,NA,completion,1184,7424,7422,7438,8622,8623,2023-05-12T16:43:16Z,8638,Übersicht,kilindo,s,mgusano,chipukizi,kulinganisha,NA,NA,NA,NULL,NA,NA,NA,NA,NA,NA,NA,NA,NA,NA,NA,NA,NA,NA,NA,NA,NA,NA,NA
9088f,Deep Question,html.Page,1_3_0_0,NA,NA,form submission,679,8623,8622,8638,9317,9317,2023-05-12T16:43:33Z,9347,Sänger,mwimbaji,d,msichana,shughuli,mshirika,sdf,NA,NA,NULL,NA,NA,NA,NA,NA,NA,NA,NA,NA,NA,NA,NA,NA,NA,NA,NA,NA,NA,NA
9088f,Save data screen,canvas.Screen,1_3_0_1,NA,NA,timeout,491,9317,9319,9347,9822,9823,2023-05-12T16:43:33Z,9838,Sänger,mwimbaji,d,msichana,shughuli,mshirika,NA,NA,0,NULL,NA,NA,NA,NA,NA,NA,NA,NA,NA,NA,NA,NA,NA,NA,NA,NA,NA,NA,NA
9088f,deep,flow.Sequence,1_3_0,NA,NA,completion,1184,8623,8622,8638,9822,9823,2023-05-12T16:43:33Z,9838,Sänger,mwimbaji,d,msichana,shughuli,mshirika,NA,NA,NA,NULL,NA,NA,NA,NA,NA,NA,NA,NA,NA,NA,NA,NA,NA,NA,NA,NA,NA,NA,NA
9088f,task,flow.Sequence,1_3,NA,NA,completion,1184,8623,8622,8638,9822,9824,2023-05-12T16:43:33Z,9838,Sänger,mwimbaji,d,msichana,shughuli,mshirika,NA,NA,NA,NULL,NA,NA,NA,NA,NA,NA,NA,NA,NA,NA,NA,NA,NA,NA,NA,NA,NA,NA,NA
9088f,Deep Question,html.Page,1_4_0_0,NA,NA,form submission,540,9824,9822,9838,10378,10379,2023-05-12T16:44:01Z,10395,Körper,kiwiliwili,s,mapambano,mpatanishi,kiolezo,sdf,NA,NA,NULL,NA,NA,NA,NA,NA,NA,NA,NA,NA,NA,NA,NA,NA,NA,NA,NA,NA,NA,NA
9088f,Save data screen,canvas.Screen,1_4_0_1,NA,NA,timeout,493,10379,10380,10395,10871,10872,2023-05-12T16:44:01Z,10888,Körper,kiwiliwili,s,mapambano,mpatanishi,kiolezo,NA,NA,0,NULL,NA,NA,NA,NA,NA,NA,NA,NA,NA,NA,NA,NA,NA,NA,NA,NA,NA,NA,NA
9088f,deep,flow.Sequence,1_4_0,NA,NA,completion,1033,9824,9822,9838,10871,10873,2023-05-12T16:44:01Z,10888,Körper,kiwiliwili,s,mapambano,mpatanishi,kiolezo,NA,NA,NA,NULL,NA,NA,NA,NA,NA,NA,NA,NA,NA,NA,NA,NA,NA,NA,NA,NA,NA,NA,NA
9088f,task,flow.Sequence,1_4,NA,NA,completion,1033,9824,9822,9838,10871,10873,2023-05-12T16:44:01Z,10888,Körper,kiwiliwili,s,mapambano,mpatanishi,kiolezo,NA,NA,NA,NULL,NA,NA,NA,NA,NA,NA,NA,NA,NA,NA,NA,NA,NA,NA,NA,NA,NA,NA,NA
9088f,Deep Question,html.Page,1_5_0_0,NA,NA,form submission,674,10873,10871,10888,11562,11562,2023-05-12T16:44:09Z,11579,Kanzler,diwani,s,rasilmali,mahitaji,maabudu,sdf,NA,NA,NULL,NA,NA,NA,NA,NA,NA,NA,NA,NA,NA,NA,NA,NA,NA,NA,NA,NA,NA,NA
9088f,Save data screen,canvas.Screen,1_5_0_1,NA,NA,timeout,493,11563,11564,11579,12055,12056,2023-05-12T16:44:09Z,12072,Kanzler,diwani,s,rasilmali,mahitaji,maabudu,NA,NA,0,NULL,NA,NA,NA,NA,NA,NA,NA,NA,NA,NA,NA,NA,NA,NA,NA,NA,NA,NA,NA
9088f,deep,flow.Sequence,1_5_0,NA,NA,completion,1167,10873,10871,10888,12055,12056,2023-05-12T16:44:09Z,12072,Kanzler,diwani,s,rasilmali,mahitaji,maabudu,NA,NA,NA,NULL,NA,NA,NA,NA,NA,NA,NA,NA,NA,NA,NA,NA,NA,NA,NA,NA,NA,NA,NA
9088f,task,flow.Sequence,1_5,NA,NA,completion,1167,10873,10871,10888,12055,12057,2023-05-12T16:44:09Z,12072,Kanzler,diwani,s,rasilmali,mahitaji,maabudu,NA,NA,NA,NULL,NA,NA,NA,NA,NA,NA,NA,NA,NA,NA,NA,NA,NA,NA,NA,NA,NA,NA,NA
9088f,Deep Question,html.Page,1_6_0_0,NA,NA,form submission,676,12057,12055,12072,12748,12748,2023-05-12T16:44:14Z,12779,Angreifer,mshambulizi,d,kitengo,tasinia,usafirishaji,sdf,NA,NA,NULL,NA,NA,NA,NA,NA,NA,NA,NA,NA,NA,NA,NA,NA,NA,NA,NA,NA,NA,NA
9088f,Save data screen,canvas.Screen,1_6_0_1,NA,NA,timeout,493,12749,12752,12779,13255,13256,2023-05-12T16:44:14Z,13272,Angreifer,mshambulizi,d,kitengo,tasinia,usafirishaji,NA,NA,0,NULL,NA,NA,NA,NA,NA,NA,NA,NA,NA,NA,NA,NA,NA,NA,NA,NA,NA,NA,NA
9088f,deep,flow.Sequence,1_6_0,NA,NA,completion,1183,12057,12055,12072,13255,13256,2023-05-12T16:44:14Z,13272,Angreifer,mshambulizi,d,kitengo,tasinia,usafirishaji,NA,NA,NA,NULL,NA,NA,NA,NA,NA,NA,NA,NA,NA,NA,NA,NA,NA,NA,NA,NA,NA,NA,NA
9088f,task,flow.Sequence,1_6,NA,NA,completion,1183,12057,12055,12072,13255,13257,2023-05-12T16:44:18Z,13272,Angreifer,mshambulizi,d,kitengo,tasinia,usafirishaji,NA,NA,NA,NULL,NA,NA,NA,NA,NA,NA,NA,NA,NA,NA,NA,NA,NA,NA,NA,NA,NA,NA,NA
9088f,Deep Question,html.Page,1_7_0_0,NA,NA,form submission,714,13257,13255,13272,13986,13987,2023-05-12T16:44:18Z,14013,Abrechnung,uhasibu,s,kusahihisha,mpambano,mashambulizi,sdf,NA,NA,NULL,NA,NA,NA,NA,NA,NA,NA,NA,NA,NA,NA,NA,NA,NA,NA,NA,NA,NA,NA
9088f,Save data screen,canvas.Screen,1_7_0_1,NA,NA,timeout,492,13987,13988,14013,14488,14489,2023-05-12T16:44:18Z,14505,Abrechnung,uhasibu,s,kusahihisha,mpambano,mashambulizi,NA,NA,0,NULL,NA,NA,NA,NA,NA,NA,NA,NA,NA,NA,NA,NA,NA,NA,NA,NA,NA,NA,NA
9088f,deep,flow.Sequence,1_7_0,NA,NA,completion,1216,13257,13255,13272,14488,14489,2023-05-12T16:44:19Z,14505,Abrechnung,uhasibu,s,kusahihisha,mpambano,mashambulizi,NA,NA,NA,NULL,NA,NA,NA,NA,NA,NA,NA,NA,NA,NA,NA,NA,NA,NA,NA,NA,NA,NA,NA
9088f,task,flow.Sequence,1_7,NA,NA,completion,1216,13257,13255,13272,14488,14489,2023-05-12T16:44:20Z,14505,Abrechnung,uhasibu,s,kusahihisha,mpambano,mashambulizi,NA,NA,NA,NULL,NA,NA,NA,NA,NA,NA,NA,NA,NA,NA,NA,NA,NA,NA,NA,NA,NA,NA,NA
9088f,Deep Question,html.Page,1_8_0_0,NA,NA,form submission,637,14490,14488,14505,15142,15142,2023-05-12T16:44:31Z,15162,Kontrolle,kudhibiti,s,mbinguni,kufunga,utegemezi,sdf,NA,NA,NULL,NA,NA,NA,NA,NA,NA,NA,NA,NA,NA,NA,NA,NA,NA,NA,NA,NA,NA,NA
9088f,Save data screen,canvas.Screen,1_8_0_1,NA,NA,timeout,493,15142,15144,15162,15638,15639,2023-05-12T16:44:31Z,15655,Kontrolle,kudhibiti,s,mbinguni,kufunga,utegemezi,NA,NA,0,NULL,NA,NA,NA,NA,NA,NA,NA,NA,NA,NA,NA,NA,NA,NA,NA,NA,NA,NA,NA
9088f,deep,flow.Sequence,1_8_0,NA,NA,completion,1133,14490,14488,14505,15638,15639,2023-05-12T16:44:31Z,15655,Kontrolle,kudhibiti,s,mbinguni,kufunga,utegemezi,NA,NA,NA,NULL,NA,NA,NA,NA,NA,NA,NA,NA,NA,NA,NA,NA,NA,NA,NA,NA,NA,NA,NA
9088f,task,flow.Sequence,1_8,NA,NA,completion,1133,14490,14488,14505,15638,15640,2023-05-12T16:44:31Z,15655,Kontrolle,kudhibiti,s,mbinguni,kufunga,utegemezi,NA,NA,NA,NULL,NA,NA,NA,NA,NA,NA,NA,NA,NA,NA,NA,NA,NA,NA,NA,NA,NA,NA,NA
9088f,Deep Question,html.Page,1_9_0_0,NA,NA,form submission,763,15640,15638,15655,16418,16418,2023-05-12T16:44:31Z,16447,Kreativität,ubunifu,d,mratibu,mwendelezo,makubaliano,wer,NA,NA,NULL,NA,NA,NA,NA,NA,NA,NA,NA,NA,NA,NA,NA,NA,NA,NA,NA,NA,NA,NA
9088f,Save data screen,canvas.Screen,1_9_0_1,NA,NA,timeout,491,16418,16419,16447,16922,16922,2023-05-12T16:44:31Z,16938,Kreativität,ubunifu,d,mratibu,mwendelezo,makubaliano,NA,NA,0,NULL,NA,NA,NA,NA,NA,NA,NA,NA,NA,NA,NA,NA,NA,NA,NA,NA,NA,NA,NA
9088f,deep,flow.Sequence,1_9_0,NA,NA,completion,1267,15640,15638,15655,16922,16923,2023-05-12T16:44:31Z,16938,Kreativität,ubunifu,d,mratibu,mwendelezo,makubaliano,NA,NA,NA,NULL,NA,NA,NA,NA,NA,NA,NA,NA,NA,NA,NA,NA,NA,NA,NA,NA,NA,NA,NA
9088f,task,flow.Sequence,1_9,NA,NA,completion,1267,15640,15638,15655,16922,16923,2023-05-12T16:44:31Z,16938,Kreativität,ubunifu,d,mratibu,mwendelezo,makubaliano,NA,NA,NA,NULL,NA,NA,NA,NA,NA,NA,NA,NA,NA,NA,NA,NA,NA,NA,NA,NA,NA,NA,NA
9088f,Deep Question,html.Page,1_10_0_0,NA,NA,form submission,877,16923,16922,16938,17815,17815,2023-05-12T16:45:07Z,17846,Können,unaweza,d,kiongozi,bustani,mienendo,sdf,NA,NA,NULL,NA,NA,NA,NA,NA,NA,NA,NA,NA,NA,NA,NA,NA,NA,NA,NA,NA,NA,NA
9088f,Save data screen,canvas.Screen,1_10_0_1,NA,NA,timeout,492,17815,17818,17846,18322,18322,2023-05-12T16:45:07Z,18338,Können,unaweza,d,kiongozi,bustani,mienendo,NA,NA,0,NULL,NA,NA,NA,NA,NA,NA,NA,NA,NA,NA,NA,NA,NA,NA,NA,NA,NA,NA,NA
9088f,deep,flow.Sequence,1_10_0,NA,NA,completion,1384,16923,16922,16938,18322,18323,2023-05-12T16:45:07Z,18338,Können,unaweza,d,kiongozi,bustani,mienendo,NA,NA,NA,NULL,NA,NA,NA,NA,NA,NA,NA,NA,NA,NA,NA,NA,NA,NA,NA,NA,NA,NA,NA
9088f,task,flow.Sequence,1_10,NA,NA,completion,1384,16923,16922,16938,18322,18323,2023-05-12T16:45:07Z,18338,Können,unaweza,d,kiongozi,bustani,mienendo,NA,NA,NA,NULL,NA,NA,NA,NA,NA,NA,NA,NA,NA,NA,NA,NA,NA,NA,NA,NA,NA,NA,NA
9088f,Deep Question,html.Page,1_11_0_0,NA,NA,form submission,2547,18323,18322,18338,20885,20886,2023-05-12T16:45:08Z,20913,Verzögerung,kuchelewa,s,mwakilishi,mwanauchumi,jaribio,sdff,NA,NA,NULL,NA,NA,NA,NA,NA,NA,NA,NA,NA,NA,NA,NA,NA,NA,NA,NA,NA,NA,NA
9088f,Save data screen,canvas.Screen,1_11_0_1,NA,NA,timeout,509,20886,20887,20913,21405,21406,2023-05-12T16:45:08Z,21422,Verzögerung,kuchelewa,s,mwakilishi,mwanauchumi,jaribio,NA,NA,0,NULL,NA,NA,NA,NA,NA,NA,NA,NA,NA,NA,NA,NA,NA,NA,NA,NA,NA,NA,NA
9088f,deep,flow.Sequence,1_11_0,NA,NA,completion,3067,18323,18322,18338,21405,21406,2023-05-12T16:45:13Z,21422,Verzögerung,kuchelewa,s,mwakilishi,mwanauchumi,jaribio,NA,NA,NA,NULL,NA,NA,NA,NA,NA,NA,NA,NA,NA,NA,NA,NA,NA,NA,NA,NA,NA,NA,NA
9088f,task,flow.Sequence,1_11,NA,NA,completion,3067,18323,18322,18338,21405,21406,2023-05-12T16:45:13Z,21422,Verzögerung,kuchelewa,s,mwakilishi,mwanauchumi,jaribio,NA,NA,NA,NULL,NA,NA,NA,NA,NA,NA,NA,NA,NA,NA,NA,NA,NA,NA,NA,NA,NA,NA,NA
9088f,Deep Question,html.Page,1_12_0_0,NA,NA,form submission,626,21407,21405,21422,22048,22049,2023-05-12T16:45:16Z,22055,Kultur,utamaduni,s,shetani,gerezani,mazingira,sdf,NA,NA,NULL,NA,NA,NA,NA,NA,NA,NA,NA,NA,NA,NA,NA,NA,NA,NA,NA,NA,NA,NA
9088f,Save data screen,canvas.Screen,1_12_0_1,NA,NA,timeout,500,22050,22052,22055,22539,22539,2023-05-12T16:45:16Z,22555,Kultur,utamaduni,s,shetani,gerezani,mazingira,NA,NA,0,NULL,NA,NA,NA,NA,NA,NA,NA,NA,NA,NA,NA,NA,NA,NA,NA,NA,NA,NA,NA
9088f,deep,flow.Sequence,1_12_0,NA,NA,completion,1117,21407,21405,21422,22539,22540,2023-05-12T16:45:16Z,22555,Kultur,utamaduni,s,shetani,gerezani,mazingira,NA,NA,NA,NULL,NA,NA,NA,NA,NA,NA,NA,NA,NA,NA,NA,NA,NA,NA,NA,NA,NA,NA,NA
9088f,task,flow.Sequence,1_12,NA,NA,completion,1117,21407,21405,21422,22539,22540,2023-05-12T16:45:16Z,22555,Kultur,utamaduni,s,shetani,gerezani,mazingira,NA,NA,NA,NULL,NA,NA,NA,NA,NA,NA,NA,NA,NA,NA,NA,NA,NA,NA,NA,NA,NA,NA,NA
9088f,Deep Question,html.Page,1_13_0_0,NA,NA,form submission,543,22541,22539,22555,23098,23098,2023-05-12T16:45:33Z,23112,Aufstand,ugomaji,d,mazidio,msingi,kujieleza,sdf,NA,NA,NULL,NA,NA,NA,NA,NA,NA,NA,NA,NA,NA,NA,NA,NA,NA,NA,NA,NA,NA,NA
9088f,Save data screen,canvas.Screen,1_13_0_1,NA,NA,timeout,493,23098,23099,23112,23589,23589,2023-05-12T16:45:33Z,23605,Aufstand,ugomaji,d,mazidio,msingi,kujieleza,NA,NA,0,NULL,NA,NA,NA,NA,NA,NA,NA,NA,NA,NA,NA,NA,NA,NA,NA,NA,NA,NA,NA
9088f,deep,flow.Sequence,1_13_0,NA,NA,completion,1034,22541,22539,22555,23589,23590,2023-05-12T16:45:33Z,23605,Aufstand,ugomaji,d,mazidio,msingi,kujieleza,NA,NA,NA,NULL,NA,NA,NA,NA,NA,NA,NA,NA,NA,NA,NA,NA,NA,NA,NA,NA,NA,NA,NA
9088f,task,flow.Sequence,1_13,NA,NA,completion,1034,22540,22539,22555,23589,23590,2023-05-12T16:45:33Z,23605,Aufstand,ugomaji,d,mazidio,msingi,kujieleza,NA,NA,NA,NULL,NA,NA,NA,NA,NA,NA,NA,NA,NA,NA,NA,NA,NA,NA,NA,NA,NA,NA,NA
9088f,Deep Question,html.Page,1_14_0_0,NA,NA,form submission,1042,23590,23589,23605,24647,24648,2023-05-12T16:45:38Z,24655,Prüfung,mtihani,d,mkulima,mtizamo,ufumbuzi,sdff,NA,NA,NULL,NA,NA,NA,NA,NA,NA,NA,NA,NA,NA,NA,NA,NA,NA,NA,NA,NA,NA,NA
9088f,Save data screen,canvas.Screen,1_14_0_1,NA,NA,timeout,500,24648,24650,24655,25139,25139,2023-05-12T16:45:38Z,25155,Prüfung,mtihani,d,mkulima,mtizamo,ufumbuzi,NA,NA,0,NULL,NA,NA,NA,NA,NA,NA,NA,NA,NA,NA,NA,NA,NA,NA,NA,NA,NA,NA,NA
9088f,deep,flow.Sequence,1_14_0,NA,NA,completion,1534,23590,23589,23605,25139,25140,2023-05-12T16:45:38Z,25155,Prüfung,mtihani,d,mkulima,mtizamo,ufumbuzi,NA,NA,NA,NULL,NA,NA,NA,NA,NA,NA,NA,NA,NA,NA,NA,NA,NA,NA,NA,NA,NA,NA,NA
9088f,task,flow.Sequence,1_14,NA,NA,completion,1534,23590,23589,23605,25139,25140,2023-05-12T16:45:38Z,25155,Prüfung,mtihani,d,mkulima,mtizamo,ufumbuzi,NA,NA,NA,NULL,NA,NA,NA,NA,NA,NA,NA,NA,NA,NA,NA,NA,NA,NA,NA,NA,NA,NA,NA
9088f,Deep Question,html.Page,1_15_0_0,NA,NA,form submission,732,25140,25139,25155,25887,25887,2023-05-12T16:45:53Z,25913,Gefährdung,kuhatarisha,s,uchokozi,udhaifu,makorowezo,fs,NA,NA,NULL,NA,NA,NA,NA,NA,NA,NA,NA,NA,NA,NA,NA,NA,NA,NA,NA,NA,NA,NA
9088f,Save data screen,canvas.Screen,1_15_0_1,NA,NA,timeout,492,25888,25890,25913,26388,26389,2023-05-12T16:45:53Z,26405,Gefährdung,kuhatarisha,s,uchokozi,udhaifu,makorowezo,NA,NA,0,NULL,NA,NA,NA,NA,NA,NA,NA,NA,NA,NA,NA,NA,NA,NA,NA,NA,NA,NA,NA
9088f,deep,flow.Sequence,1_15_0,NA,NA,completion,1233,25140,25139,25155,26388,26389,2023-05-12T16:45:53Z,26405,Gefährdung,kuhatarisha,s,uchokozi,udhaifu,makorowezo,NA,NA,NA,NULL,NA,NA,NA,NA,NA,NA,NA,NA,NA,NA,NA,NA,NA,NA,NA,NA,NA,NA,NA
9088f,task,flow.Sequence,1_15,NA,NA,completion,1233,25140,25139,25155,26388,26390,2023-05-12T16:45:53Z,26405,Gefährdung,kuhatarisha,s,uchokozi,udhaifu,makorowezo,NA,NA,NA,NULL,NA,NA,NA,NA,NA,NA,NA,NA,NA,NA,NA,NA,NA,NA,NA,NA,NA,NA,NA
9088f,retrieval block 1 (cued recall),flow.Loop,1,NA,NA,completion,24267,2064,2104,2121,26388,26390,2023-05-12T16:45:53Z,26405,NA,NA,NA,NA,NA,NA,NA,NA,NA,NULL,NA,NA,NA,NA,NA,NA,NA,NA,NA,NA,NA,NA,NA,NA,NA,NA,NA,NA,NA
9088f,Shallow Question,html.Page,2_0_0_0,NA,NA,form submission,8506,26391,26388,26405,34911,34912,2023-05-12T16:45:57Z,34922,Sänger,mwimbaji,d,msichana,shughuli,mshirika,mshirika,NA,NA,"c(""distractor1"", ""distractor2"", ""distractor3"")",NA,NA,NA,NA,NA,NA,NA,NA,NA,NA,NA,NA,NA,NA,NA,NA,NA,NA,NA
9088f,Save data screen,canvas.Screen,2_0_0_1,NA,NA,timeout,500,34912,34914,34922,35405,35406,2023-05-12T16:45:57Z,35422,Sänger,mwimbaji,d,msichana,shughuli,mshirika,NA,NA,0,"c(""distractor1"", ""distractor2"", ""distractor3"")",NA,NA,NA,NA,NA,NA,NA,NA,NA,NA,NA,NA,NA,NA,NA,NA,NA,NA,NA
9088f,shallow,flow.Sequence,2_0_0,NA,NA,completion,9000,26391,26388,26405,35405,35407,2023-05-12T16:45:57Z,35422,Sänger,mwimbaji,d,msichana,shughuli,mshirika,NA,NA,NA,"c(""distractor1"", ""distractor2"", ""distractor3"")",NA,NA,NA,NA,NA,NA,NA,NA,NA,NA,NA,NA,NA,NA,NA,NA,NA,NA,NA
9088f,task,flow.Sequence,2_0,NA,NA,completion,9000,26390,26388,26405,35405,35407,2023-05-12T16:45:57Z,35422,Sänger,mwimbaji,d,msichana,shughuli,mshirika,NA,NA,NA,"c(""distractor1"", ""distractor2"", ""distractor3"")",NA,NA,NA,NA,NA,NA,NA,NA,NA,NA,NA,NA,NA,NA,NA,NA,NA,NA,NA
9088f,Shallow Question,html.Page,2_1_0_0,NA,NA,form submission,2371,35408,35405,35422,37793,37794,2023-05-12T16:46:13Z,37805,Lawine,banguko,d,maambukizi,usuluhishi,chekechea,banguko,NA,NA,"c(""distractor1"", ""distractor2"", ""distractor3"")",NA,NA,NA,NA,NA,NA,NA,NA,NA,NA,NA,NA,NA,NA,NA,NA,NA,NA,NA
9088f,Save data screen,canvas.Screen,2_1_0_1,NA,NA,timeout,500,37795,37796,37805,38289,38290,2023-05-12T16:46:13Z,38305,Lawine,banguko,d,maambukizi,usuluhishi,chekechea,NA,NA,1,"c(""distractor1"", ""distractor2"", ""distractor3"")",NA,NA,NA,NA,NA,NA,NA,NA,NA,NA,NA,NA,NA,NA,NA,NA,NA,NA,NA
9088f,shallow,flow.Sequence,2_1_0,NA,NA,completion,2867,35407,35405,35422,38289,38290,2023-05-12T16:46:13Z,38305,Lawine,banguko,d,maambukizi,usuluhishi,chekechea,NA,NA,NA,"c(""distractor1"", ""distractor2"", ""distractor3"")",NA,NA,NA,NA,NA,NA,NA,NA,NA,NA,NA,NA,NA,NA,NA,NA,NA,NA,NA
9088f,task,flow.Sequence,2_1,NA,NA,completion,2867,35407,35405,35422,38289,38291,2023-05-12T16:46:13Z,38305,Lawine,banguko,d,maambukizi,usuluhishi,chekechea,NA,NA,NA,"c(""distractor1"", ""distractor2"", ""distractor3"")",NA,NA,NA,NA,NA,NA,NA,NA,NA,NA,NA,NA,NA,NA,NA,NA,NA,NA,NA
9088f,Shallow Question,html.Page,2_2_0_0,NA,NA,form submission,9390,38291,38289,38305,47695,47695,2023-05-12T16:46:17Z,47705,Kontrolle,kudhibiti,s,mbinguni,kufunga,utegemezi,mbinguni,NA,NA,"c(""distractor1"", ""distractor2"", ""distractor3"")",NA,NA,NA,NA,NA,NA,NA,NA,NA,NA,NA,NA,NA,NA,NA,NA,NA,NA,NA
9088f,Save data screen,canvas.Screen,2_2_0_1,NA,NA,timeout,500,47697,47698,47705,48189,48190,2023-05-12T16:46:17Z,48205,Kontrolle,kudhibiti,s,mbinguni,kufunga,utegemezi,NA,NA,0,"c(""distractor1"", ""distractor2"", ""distractor3"")",NA,NA,NA,NA,NA,NA,NA,NA,NA,NA,NA,NA,NA,NA,NA,NA,NA,NA,NA
9088f,shallow,flow.Sequence,2_2_0,NA,NA,completion,9884,38291,38289,38305,48189,48190,2023-05-12T16:46:17Z,48205,Kontrolle,kudhibiti,s,mbinguni,kufunga,utegemezi,NA,NA,NA,"c(""distractor1"", ""distractor2"", ""distractor3"")",NA,NA,NA,NA,NA,NA,NA,NA,NA,NA,NA,NA,NA,NA,NA,NA,NA,NA,NA
9088f,task,flow.Sequence,2_2,NA,NA,completion,9884,38291,38289,38305,48189,48190,2023-05-12T16:46:17Z,48205,Kontrolle,kudhibiti,s,mbinguni,kufunga,utegemezi,NA,NA,NA,"c(""distractor1"", ""distractor2"", ""distractor3"")",NA,NA,NA,NA,NA,NA,NA,NA,NA,NA,NA,NA,NA,NA,NA,NA,NA,NA,NA
9088f,Shallow Question,html.Page,2_3_0_0,NA,NA,form submission,3672,48190,48189,48205,51877,51878,2023-05-12T16:46:23Z,51889,Kreativität,ubunifu,d,mratibu,mwendelezo,makubaliano,ubunifu,NA,NA,"c(""distractor1"", ""distractor2"", ""distractor3"")",NA,NA,NA,NA,NA,NA,NA,NA,NA,NA,NA,NA,NA,NA,NA,NA,NA,NA,NA
9088f,Save data screen,canvas.Screen,2_3_0_1,NA,NA,timeout,500,51879,51881,51889,52372,52373,2023-05-12T16:46:23Z,52389,Kreativität,ubunifu,d,mratibu,mwendelezo,makubaliano,NA,NA,1,"c(""distractor1"", ""distractor2"", ""distractor3"")",NA,NA,NA,NA,NA,NA,NA,NA,NA,NA,NA,NA,NA,NA,NA,NA,NA,NA,NA
9088f,shallow,flow.Sequence,2_3_0,NA,NA,completion,4167,48190,48189,48205,52372,52373,2023-05-12T16:46:23Z,52389,Kreativität,ubunifu,d,mratibu,mwendelezo,makubaliano,NA,NA,NA,"c(""distractor1"", ""distractor2"", ""distractor3"")",NA,NA,NA,NA,NA,NA,NA,NA,NA,NA,NA,NA,NA,NA,NA,NA,NA,NA,NA
9088f,task,flow.Sequence,2_3,NA,NA,completion,4167,48190,48189,48205,52372,52373,2023-05-12T16:46:23Z,52389,Kreativität,ubunifu,d,mratibu,mwendelezo,makubaliano,NA,NA,NA,"c(""distractor1"", ""distractor2"", ""distractor3"")",NA,NA,NA,NA,NA,NA,NA,NA,NA,NA,NA,NA,NA,NA,NA,NA,NA,NA,NA
9088f,Shallow Question,html.Page,2_4_0_0,NA,NA,form submission,3939,52374,52372,52389,56328,56328,2023-05-12T16:46:33Z,56338,Können,unaweza,d,kiongozi,bustani,mienendo,unaweza,NA,NA,"c(""distractor1"", ""distractor2"", ""distractor3"")",NA,NA,NA,NA,NA,NA,NA,NA,NA,NA,NA,NA,NA,NA,NA,NA,NA,NA,NA
9088f,Save data screen,canvas.Screen,2_4_0_1,NA,NA,timeout,500,56329,56330,56338,56822,56823,2023-05-12T16:46:33Z,56838,Können,unaweza,d,kiongozi,bustani,mienendo,NA,NA,1,"c(""distractor1"", ""distractor2"", ""distractor3"")",NA,NA,NA,NA,NA,NA,NA,NA,NA,NA,NA,NA,NA,NA,NA,NA,NA,NA,NA
9088f,shallow,flow.Sequence,2_4_0,NA,NA,completion,4433,52374,52372,52389,56822,56824,2023-05-12T16:46:33Z,56838,Können,unaweza,d,kiongozi,bustani,mienendo,NA,NA,NA,"c(""distractor1"", ""distractor2"", ""distractor3"")",NA,NA,NA,NA,NA,NA,NA,NA,NA,NA,NA,NA,NA,NA,NA,NA,NA,NA,NA
9088f,task,flow.Sequence,2_4,NA,NA,completion,4433,52374,52372,52389,56822,56824,2023-05-12T16:46:33Z,56838,Können,unaweza,d,kiongozi,bustani,mienendo,NA,NA,NA,"c(""distractor1"", ""distractor2"", ""distractor3"")",NA,NA,NA,NA,NA,NA,NA,NA,NA,NA,NA,NA,NA,NA,NA,NA,NA,NA,NA
9088f,Shallow Question,html.Page,2_5_0_0,NA,NA,form submission,2973,56825,56822,56838,59811,59811,2023-05-12T16:46:40Z,59822,Prüfung,mtihani,d,mkulima,mtizamo,ufumbuzi,mtihani,NA,NA,"c(""distractor1"", ""distractor2"", ""distractor3"")",NA,NA,NA,NA,NA,NA,NA,NA,NA,NA,NA,NA,NA,NA,NA,NA,NA,NA,NA
9088f,Save data screen,canvas.Screen,2_5_0_1,NA,NA,timeout,500,59812,59814,59822,60306,60306,2023-05-12T16:46:40Z,60322,Prüfung,mtihani,d,mkulima,mtizamo,ufumbuzi,NA,NA,1,"c(""distractor1"", ""distractor2"", ""distractor3"")",NA,NA,NA,NA,NA,NA,NA,NA,NA,NA,NA,NA,NA,NA,NA,NA,NA,NA,NA
9088f,shallow,flow.Sequence,2_5_0,NA,NA,completion,3468,56825,56822,56838,60306,60307,2023-05-12T16:46:40Z,60322,Prüfung,mtihani,d,mkulima,mtizamo,ufumbuzi,NA,NA,NA,"c(""distractor1"", ""distractor2"", ""distractor3"")",NA,NA,NA,NA,NA,NA,NA,NA,NA,NA,NA,NA,NA,NA,NA,NA,NA,NA,NA
9088f,task,flow.Sequence,2_5,NA,NA,completion,3468,56824,56822,56838,60306,60307,2023-05-12T16:46:40Z,60322,Prüfung,mtihani,d,mkulima,mtizamo,ufumbuzi,NA,NA,NA,"c(""distractor1"", ""distractor2"", ""distractor3"")",NA,NA,NA,NA,NA,NA,NA,NA,NA,NA,NA,NA,NA,NA,NA,NA,NA,NA,NA
9088f,Shallow Question,html.Page,2_6_0_0,NA,NA,form submission,4540,60308,60306,60322,64862,64863,2023-05-12T16:46:50Z,64872,System,maongozi,d,chokochoko,nuksani,mitaani,maongozi,NA,NA,"c(""distractor1"", ""distractor2"", ""distractor3"")",NA,NA,NA,NA,NA,NA,NA,NA,NA,NA,NA,NA,NA,NA,NA,NA,NA,NA,NA
9088f,Save data screen,canvas.Screen,2_6_0_1,NA,NA,timeout,500,64864,64865,64872,65356,65357,2023-05-12T16:46:50Z,65372,System,maongozi,d,chokochoko,nuksani,mitaani,NA,NA,1,"c(""distractor1"", ""distractor2"", ""distractor3"")",NA,NA,NA,NA,NA,NA,NA,NA,NA,NA,NA,NA,NA,NA,NA,NA,NA,NA,NA
9088f,shallow,flow.Sequence,2_6_0,NA,NA,completion,5034,60307,60306,60322,65356,65357,2023-05-12T16:46:50Z,65372,System,maongozi,d,chokochoko,nuksani,mitaani,NA,NA,NA,"c(""distractor1"", ""distractor2"", ""distractor3"")",NA,NA,NA,NA,NA,NA,NA,NA,NA,NA,NA,NA,NA,NA,NA,NA,NA,NA,NA
9088f,task,flow.Sequence,2_6,NA,NA,completion,5034,60307,60306,60322,65356,65357,2023-05-12T16:46:50Z,65372,System,maongozi,d,chokochoko,nuksani,mitaani,NA,NA,NA,"c(""distractor1"", ""distractor2"", ""distractor3"")",NA,NA,NA,NA,NA,NA,NA,NA,NA,NA,NA,NA,NA,NA,NA,NA,NA,NA,NA
9088f,Shallow Question,html.Page,2_7_0_0,NA,NA,form submission,3940,65358,65356,65372,69312,69312,2023-05-12T16:47:01Z,69322,Übersicht,kilindo,s,mgusano,chipukizi,kulinganisha,kilindo,NA,NA,"c(""distractor1"", ""distractor2"", ""distractor3"")",NA,NA,NA,NA,NA,NA,NA,NA,NA,NA,NA,NA,NA,NA,NA,NA,NA,NA,NA
9088f,Save data screen,canvas.Screen,2_7_0_1,NA,NA,timeout,500,69313,69314,69322,69806,69806,2023-05-12T16:47:01Z,69822,Übersicht,kilindo,s,mgusano,chipukizi,kulinganisha,NA,NA,1,"c(""distractor1"", ""distractor2"", ""distractor3"")",NA,NA,NA,NA,NA,NA,NA,NA,NA,NA,NA,NA,NA,NA,NA,NA,NA,NA,NA
9088f,shallow,flow.Sequence,2_7_0,NA,NA,completion,4434,65358,65356,65372,69806,69807,2023-05-12T16:47:01Z,69822,Übersicht,kilindo,s,mgusano,chipukizi,kulinganisha,NA,NA,NA,"c(""distractor1"", ""distractor2"", ""distractor3"")",NA,NA,NA,NA,NA,NA,NA,NA,NA,NA,NA,NA,NA,NA,NA,NA,NA,NA,NA
9088f,task,flow.Sequence,2_7,NA,NA,completion,4434,65358,65356,65372,69806,69807,2023-05-12T16:47:02Z,69822,Übersicht,kilindo,s,mgusano,chipukizi,kulinganisha,NA,NA,NA,"c(""distractor1"", ""distractor2"", ""distractor3"")",NA,NA,NA,NA,NA,NA,NA,NA,NA,NA,NA,NA,NA,NA,NA,NA,NA,NA,NA
9088f,Shallow Question,html.Page,2_8_0_0,NA,NA,form submission,4257,69807,69806,69822,74079,74079,2023-05-12T16:47:07Z,74089,Kanzler,diwani,s,rasilmali,mahitaji,maabudu,diwani,NA,NA,"c(""distractor1"", ""distractor2"", ""distractor3"")",NA,NA,NA,NA,NA,NA,NA,NA,NA,NA,NA,NA,NA,NA,NA,NA,NA,NA,NA
9088f,Save data screen,canvas.Screen,2_8_0_1,NA,NA,timeout,500,74080,74084,74089,74572,74573,2023-05-12T16:47:07Z,74589,Kanzler,diwani,s,rasilmali,mahitaji,maabudu,NA,NA,1,"c(""distractor1"", ""distractor2"", ""distractor3"")",NA,NA,NA,NA,NA,NA,NA,NA,NA,NA,NA,NA,NA,NA,NA,NA,NA,NA,NA
9088f,shallow,flow.Sequence,2_8_0,NA,NA,completion,4750,69807,69806,69822,74572,74574,2023-05-12T16:47:08Z,74589,Kanzler,diwani,s,rasilmali,mahitaji,maabudu,NA,NA,NA,"c(""distractor1"", ""distractor2"", ""distractor3"")",NA,NA,NA,NA,NA,NA,NA,NA,NA,NA,NA,NA,NA,NA,NA,NA,NA,NA,NA
9088f,task,flow.Sequence,2_8,NA,NA,completion,4750,69807,69806,69822,74572,74574,2023-05-12T16:47:08Z,74589,Kanzler,diwani,s,rasilmali,mahitaji,maabudu,NA,NA,NA,"c(""distractor1"", ""distractor2"", ""distractor3"")",NA,NA,NA,NA,NA,NA,NA,NA,NA,NA,NA,NA,NA,NA,NA,NA,NA,NA,NA
9088f,Shallow Question,html.Page,2_9_0_0,NA,NA,form submission,3488,74574,74572,74589,78077,78078,2023-05-12T16:47:17Z,78089,Kultur,utamaduni,s,shetani,gerezani,mazingira,utamaduni,NA,NA,"c(""distractor1"", ""distractor2"", ""distractor3"")",NA,NA,NA,NA,NA,NA,NA,NA,NA,NA,NA,NA,NA,NA,NA,NA,NA,NA,NA
9088f,Save data screen,canvas.Screen,2_9_0_1,NA,NA,timeout,500,78079,78080,78089,78573,78573,2023-05-12T16:47:17Z,78589,Kultur,utamaduni,s,shetani,gerezani,mazingira,NA,NA,1,"c(""distractor1"", ""distractor2"", ""distractor3"")",NA,NA,NA,NA,NA,NA,NA,NA,NA,NA,NA,NA,NA,NA,NA,NA,NA,NA,NA
9088f,shallow,flow.Sequence,2_9_0,NA,NA,completion,3984,74574,74572,74589,78573,78574,2023-05-12T16:47:17Z,78589,Kultur,utamaduni,s,shetani,gerezani,mazingira,NA,NA,NA,"c(""distractor1"", ""distractor2"", ""distractor3"")",NA,NA,NA,NA,NA,NA,NA,NA,NA,NA,NA,NA,NA,NA,NA,NA,NA,NA,NA
9088f,task,flow.Sequence,2_9,NA,NA,completion,3984,74574,74572,74589,78573,78574,2023-05-12T16:47:17Z,78589,Kultur,utamaduni,s,shetani,gerezani,mazingira,NA,NA,NA,"c(""distractor1"", ""distractor2"", ""distractor3"")",NA,NA,NA,NA,NA,NA,NA,NA,NA,NA,NA,NA,NA,NA,NA,NA,NA,NA,NA
9088f,Shallow Question,html.Page,2_10_0_0,NA,NA,form submission,3589,78574,78573,78589,82178,82179,2023-05-12T16:47:23Z,82189,Verzögerung,kuchelewa,s,mwakilishi,mwanauchumi,jaribio,kuchelewa,NA,NA,"c(""distractor1"", ""distractor2"", ""distractor3"")",NA,NA,NA,NA,NA,NA,NA,NA,NA,NA,NA,NA,NA,NA,NA,NA,NA,NA,NA
9088f,Save data screen,canvas.Screen,2_10_0_1,NA,NA,timeout,500,82180,82182,82189,82673,82674,2023-05-12T16:47:23Z,82689,Verzögerung,kuchelewa,s,mwakilishi,mwanauchumi,jaribio,NA,NA,1,"c(""distractor1"", ""distractor2"", ""distractor3"")",NA,NA,NA,NA,NA,NA,NA,NA,NA,NA,NA,NA,NA,NA,NA,NA,NA,NA,NA
9088f,shallow,flow.Sequence,2_10_0,NA,NA,completion,4084,78574,78573,78589,82673,82675,2023-05-12T16:47:23Z,82689,Verzögerung,kuchelewa,s,mwakilishi,mwanauchumi,jaribio,NA,NA,NA,"c(""distractor1"", ""distractor2"", ""distractor3"")",NA,NA,NA,NA,NA,NA,NA,NA,NA,NA,NA,NA,NA,NA,NA,NA,NA,NA,NA
9088f,task,flow.Sequence,2_10,NA,NA,completion,4084,78574,78573,78589,82673,82675,2023-05-12T16:47:23Z,82689,Verzögerung,kuchelewa,s,mwakilishi,mwanauchumi,jaribio,NA,NA,NA,"c(""distractor1"", ""distractor2"", ""distractor3"")",NA,NA,NA,NA,NA,NA,NA,NA,NA,NA,NA,NA,NA,NA,NA,NA,NA,NA,NA
9088f,Shallow Question,html.Page,2_11_0_0,NA,NA,form submission,3140,82676,82673,82689,85829,85830,2023-05-12T16:47:33Z,85839,Aufstand,ugomaji,d,mazidio,msingi,kujieleza,msingi,NA,NA,"c(""distractor1"", ""distractor2"", ""distractor3"")",NA,NA,NA,NA,NA,NA,NA,NA,NA,NA,NA,NA,NA,NA,NA,NA,NA,NA,NA
9088f,Save data screen,canvas.Screen,2_11_0_1,NA,NA,timeout,500,85831,85832,85839,86323,86324,2023-05-12T16:47:33Z,86339,Aufstand,ugomaji,d,mazidio,msingi,kujieleza,NA,NA,0,"c(""distractor1"", ""distractor2"", ""distractor3"")",NA,NA,NA,NA,NA,NA,NA,NA,NA,NA,NA,NA,NA,NA,NA,NA,NA,NA,NA
9088f,shallow,flow.Sequence,2_11_0,NA,NA,completion,3634,82675,82673,82689,86323,86324,2023-05-12T16:47:33Z,86339,Aufstand,ugomaji,d,mazidio,msingi,kujieleza,NA,NA,NA,"c(""distractor1"", ""distractor2"", ""distractor3"")",NA,NA,NA,NA,NA,NA,NA,NA,NA,NA,NA,NA,NA,NA,NA,NA,NA,NA,NA
9088f,task,flow.Sequence,2_11,NA,NA,completion,3634,82675,82673,82689,86323,86324,2023-05-12T16:47:33Z,86339,Aufstand,ugomaji,d,mazidio,msingi,kujieleza,NA,NA,NA,"c(""distractor1"", ""distractor2"", ""distractor3"")",NA,NA,NA,NA,NA,NA,NA,NA,NA,NA,NA,NA,NA,NA,NA,NA,NA,NA,NA
9088f,Shallow Question,html.Page,2_12_0_0,NA,NA,form submission,6791,86324,86323,86339,93130,93130,2023-05-12T16:47:40Z,93139,Abrechnung,uhasibu,s,kusahihisha,mpambano,mashambulizi,uhasibu,NA,NA,"c(""distractor1"", ""distractor2"", ""distractor3"")",NA,NA,NA,NA,NA,NA,NA,NA,NA,NA,NA,NA,NA,NA,NA,NA,NA,NA,NA
9088f,Save data screen,canvas.Screen,2_12_0_1,NA,NA,timeout,500,93132,93133,93139,93623,93623,2023-05-12T16:47:40Z,93639,Abrechnung,uhasibu,s,kusahihisha,mpambano,mashambulizi,NA,NA,1,"c(""distractor1"", ""distractor2"", ""distractor3"")",NA,NA,NA,NA,NA,NA,NA,NA,NA,NA,NA,NA,NA,NA,NA,NA,NA,NA,NA
9088f,shallow,flow.Sequence,2_12_0,NA,NA,completion,7284,86324,86323,86339,93623,93624,2023-05-12T16:47:40Z,93639,Abrechnung,uhasibu,s,kusahihisha,mpambano,mashambulizi,NA,NA,NA,"c(""distractor1"", ""distractor2"", ""distractor3"")",NA,NA,NA,NA,NA,NA,NA,NA,NA,NA,NA,NA,NA,NA,NA,NA,NA,NA,NA
9088f,task,flow.Sequence,2_12,NA,NA,completion,7284,86324,86323,86339,93623,93624,2023-05-12T16:47:40Z,93639,Abrechnung,uhasibu,s,kusahihisha,mpambano,mashambulizi,NA,NA,NA,"c(""distractor1"", ""distractor2"", ""distractor3"")",NA,NA,NA,NA,NA,NA,NA,NA,NA,NA,NA,NA,NA,NA,NA,NA,NA,NA,NA
9088f,Shallow Question,html.Page,2_13_0_0,NA,NA,form submission,6724,93624,93623,93639,100363,100363,2023-05-12T16:48:02Z,100373,Angreifer,mshambulizi,d,kitengo,tasinia,usafirishaji,tasinia,NA,NA,"c(""distractor1"", ""distractor2"", ""distractor3"")",NA,NA,NA,NA,NA,NA,NA,NA,NA,NA,NA,NA,NA,NA,NA,NA,NA,NA,NA
9088f,Save data screen,canvas.Screen,2_13_0_1,NA,NA,timeout,500,100364,100365,100373,100856,100857,2023-05-12T16:48:02Z,100873,Angreifer,mshambulizi,d,kitengo,tasinia,usafirishaji,NA,NA,0,"c(""distractor1"", ""distractor2"", ""distractor3"")",NA,NA,NA,NA,NA,NA,NA,NA,NA,NA,NA,NA,NA,NA,NA,NA,NA,NA,NA
9088f,shallow,flow.Sequence,2_13_0,NA,NA,completion,7217,93624,93623,93639,100856,100858,2023-05-12T16:48:03Z,100873,Angreifer,mshambulizi,d,kitengo,tasinia,usafirishaji,NA,NA,NA,"c(""distractor1"", ""distractor2"", ""distractor3"")",NA,NA,NA,NA,NA,NA,NA,NA,NA,NA,NA,NA,NA,NA,NA,NA,NA,NA,NA
9088f,task,flow.Sequence,2_13,NA,NA,completion,7217,93624,93623,93639,100856,100858,2023-05-12T16:48:03Z,100873,Angreifer,mshambulizi,d,kitengo,tasinia,usafirishaji,NA,NA,NA,"c(""distractor1"", ""distractor2"", ""distractor3"")",NA,NA,NA,NA,NA,NA,NA,NA,NA,NA,NA,NA,NA,NA,NA,NA,NA,NA,NA
9088f,Shallow Question,html.Page,2_14_0_0,NA,NA,form submission,4856,100859,100856,100873,105729,105729,2023-05-12T16:48:07Z,105739,Körper,kiwiliwili,s,mapambano,mpatanishi,kiolezo,kiwiliwili,NA,NA,"c(""distractor1"", ""distractor2"", ""distractor3"")",NA,NA,NA,NA,NA,NA,NA,NA,NA,NA,NA,NA,NA,NA,NA,NA,NA,NA,NA
9088f,Save data screen,canvas.Screen,2_14_0_1,NA,NA,timeout,500,105730,105735,105739,106222,106223,2023-05-12T16:48:07Z,106239,Körper,kiwiliwili,s,mapambano,mpatanishi,kiolezo,NA,NA,1,"c(""distractor1"", ""distractor2"", ""distractor3"")",NA,NA,NA,NA,NA,NA,NA,NA,NA,NA,NA,NA,NA,NA,NA,NA,NA,NA,NA
9088f,shallow,flow.Sequence,2_14_0,NA,NA,completion,5349,100859,100856,100873,106222,106223,2023-05-12T16:48:07Z,106239,Körper,kiwiliwili,s,mapambano,mpatanishi,kiolezo,NA,NA,NA,"c(""distractor1"", ""distractor2"", ""distractor3"")",NA,NA,NA,NA,NA,NA,NA,NA,NA,NA,NA,NA,NA,NA,NA,NA,NA,NA,NA
9088f,task,flow.Sequence,2_14,NA,NA,completion,5349,100858,100856,100873,106222,106224,2023-05-12T16:48:07Z,106239,Körper,kiwiliwili,s,mapambano,mpatanishi,kiolezo,NA,NA,NA,"c(""distractor1"", ""distractor2"", ""distractor3"")",NA,NA,NA,NA,NA,NA,NA,NA,NA,NA,NA,NA,NA,NA,NA,NA,NA,NA,NA
9088f,Shallow Question,html.Page,2_15_0_0,NA,NA,form submission,6057,106224,106222,106239,112296,112297,2023-05-12T16:48:12Z,112306,Gefährdung,kuhatarisha,s,uchokozi,udhaifu,makorowezo,kuhatarisha,NA,NA,"c(""distractor1"", ""distractor2"", ""distractor3"")",NA,NA,NA,NA,NA,NA,NA,NA,NA,NA,NA,NA,NA,NA,NA,NA,NA,NA,NA
9088f,Save data screen,canvas.Screen,2_15_0_1,NA,NA,timeout,500,112298,112299,112306,112790,112790,2023-05-12T16:48:12Z,112806,Gefährdung,kuhatarisha,s,uchokozi,udhaifu,makorowezo,NA,NA,1,"c(""distractor1"", ""distractor2"", ""distractor3"")",NA,NA,NA,NA,NA,NA,NA,NA,NA,NA,NA,NA,NA,NA,NA,NA,NA,NA,NA
9088f,shallow,flow.Sequence,2_15_0,NA,NA,completion,6551,106224,106222,106239,112790,112791,2023-05-12T16:48:13Z,112806,Gefährdung,kuhatarisha,s,uchokozi,udhaifu,makorowezo,NA,NA,NA,"c(""distractor1"", ""distractor2"", ""distractor3"")",NA,NA,NA,NA,NA,NA,NA,NA,NA,NA,NA,NA,NA,NA,NA,NA,NA,NA,NA
9088f,task,flow.Sequence,2_15,NA,NA,completion,6551,106224,106222,106239,112790,112791,2023-05-12T16:48:22Z,112806,Gefährdung,kuhatarisha,s,uchokozi,udhaifu,makorowezo,NA,NA,NA,"c(""distractor1"", ""distractor2"", ""distractor3"")",NA,NA,NA,NA,NA,NA,NA,NA,NA,NA,NA,NA,NA,NA,NA,NA,NA,NA,NA
9088f,retrieval block 2 (multiple choice),flow.Loop,2,NA,NA,completion,86385,26390,26388,26405,112790,112792,2023-05-12T16:48:22Z,112806,NA,NA,NA,NA,NA,NA,NA,NA,NA,"c(""distractor1"", ""distractor2"", ""distractor3"")",NA,NA,NA,NA,NA,NA,NA,NA,NA,NA,NA,NA,NA,NA,NA,NA,NA,NA,NA
9088f,End,canvas.Screen,3,NA,keypress(Space),response,1442,112792,112790,112806,114232,114237,2023-05-12T16:48:23Z,114256,NA,NA,NA,NA,NA,NA,NA,NA,NA,NULL,NA,NA,NA,NA,NA,NA,NA,NA,NA,NA,NA,NA,NA,NA,NA,NA,NA,NA,NA
9088f,root,flow.Sequence,NA,NA,NA,completion,113997,207,208,235,114232,114238,2023-05-12T16:48:23Z,114256,NA,NA,NA,NA,NA,NA,NA,NA,NA,NULL,NA,NA,NA,NA,NA,NA,NA,NA,NA,NA,NA,NA,NA,NA,NA,NA,NA,NA,NA