observation,sender,sender_type,sender_id,response,response_action,ended_on,duration,time_run,time_render,time_show,time_end,time_commit,timestamp,time_switch,german,swahili,enc,distractor1,distractor2,distractor3,response_2,x,correct,distractors,url_vp,url_sess,meta_labjs_version,meta_location,meta_user_agent,meta_platform,meta_language,meta_locale,meta_time_zone,meta_timezone_offset,meta_screen_width,meta_screen_height,meta_scroll_width,meta_scroll_height,meta_window_inner_width,meta_window_inner_height,meta_device_pixel_ratio,meta_labjs_build_flavor,meta_labjs_build_commit
94e37,Introduction delayed retrieval,canvas.Screen,0,weiter,keypress(Space),response,13682.6,1917.8,1961.898,2296.4,15979,15986.7,2024-03-12T21:25:00Z,16001.9,NA,NA,NA,NA,NA,NA,NA,NA,NA,NULL,140,4,20.2.4,https://neurocog.fernuni.ch/studies/vweber/aberisha/delayed/index.html?vp=140&sess=4,"Mozilla/5.0 (Windows NT 10.0; Win64; x64) AppleWebKit/537.36 (KHTML, like Gecko) Chrome/121.0.0.0 Safari/537.36",Win32,de-DE,de,Europe/Budapest,-60,1366,768,1347,586,1347,634,1,production,f5b4a49f956347addd546a832a3327688c2c0fef
94e37,Deep Question,html.Page,1_0_0_0,NA,NA,form submission,9261.8000000002,15987.9,15967.5,16001.9,25263.7,25265,2024-03-12T21:25:09Z,25274.06,Integrität,uadilifu,d,muungano,mtiririko,upunguaji,kkj,NA,NA,NULL,NA,NA,NA,NA,NA,NA,NA,NA,NA,NA,NA,NA,NA,NA,NA,NA,NA,NA,NA
94e37,Save data screen,canvas.Screen,1_0_0_1,NA,NA,timeout,499.04,25268.9,25274.06,25274.06,25756.3,25758,2024-03-12T21:25:10Z,25773.1,Integrität,uadilifu,d,muungano,mtiririko,upunguaji,NA,NA,0,NULL,NA,NA,NA,NA,NA,NA,NA,NA,NA,NA,NA,NA,NA,NA,NA,NA,NA,NA,NA
94e37,deep,flow.Sequence,1_0_0,NA,NA,completion,9754.4,15987.8,15967.5,16001.9,25756.3,25758.8,2024-03-12T21:25:10Z,25773.1,Integrität,uadilifu,d,muungano,mtiririko,upunguaji,NA,NA,NA,NULL,NA,NA,NA,NA,NA,NA,NA,NA,NA,NA,NA,NA,NA,NA,NA,NA,NA,NA,NA
94e37,task,flow.Sequence,1_0,NA,NA,completion,9754.4,15987.7,15967.5,16001.9,25756.3,25759.4,2024-03-12T21:25:10Z,25773.1,Integrität,uadilifu,d,muungano,mtiririko,upunguaji,NA,NA,NA,NULL,NA,NA,NA,NA,NA,NA,NA,NA,NA,NA,NA,NA,NA,NA,NA,NA,NA,NA,NA
94e37,Deep Question,html.Page,1_1_0_0,NA,NA,form submission,7497.1000000002005,25759.9,25756.3,25773.1,33270.2,33271.1,2024-03-12T21:25:17Z,33276.3,Respekt,heshima,d,changamnao,upinzani,ufanisi,hnh,NA,NA,NULL,NA,NA,NA,NA,NA,NA,NA,NA,NA,NA,NA,NA,NA,NA,NA,NA,NA,NA,NA
94e37,Save data screen,canvas.Screen,1_1_0_1,NA,NA,timeout,501.1,33275.5,33276.156,33276.3,33759.8,33761.3,2024-03-12T21:25:18Z,33777.4,Respekt,heshima,d,changamnao,upinzani,ufanisi,NA,NA,0,NULL,NA,NA,NA,NA,NA,NA,NA,NA,NA,NA,NA,NA,NA,NA,NA,NA,NA,NA,NA
94e37,deep,flow.Sequence,1_1_0,NA,NA,completion,7986.7,25759.8,25756.3,25773.1,33759.8,33762.2,2024-03-12T21:25:18Z,33777.4,Respekt,heshima,d,changamnao,upinzani,ufanisi,NA,NA,NA,NULL,NA,NA,NA,NA,NA,NA,NA,NA,NA,NA,NA,NA,NA,NA,NA,NA,NA,NA,NA
94e37,task,flow.Sequence,1_1,NA,NA,completion,7986.7,25759.6,25756.3,25773.1,33759.8,33762.9,2024-03-12T21:25:18Z,33777.4,Respekt,heshima,d,changamnao,upinzani,ufanisi,NA,NA,NA,NULL,NA,NA,NA,NA,NA,NA,NA,NA,NA,NA,NA,NA,NA,NA,NA,NA,NA,NA,NA
94e37,Deep Question,html.Page,1_2_0_0,NA,NA,form submission,5688.3000000002,33763.7,33759.8,33777.4,39465.7,39466.4,2024-03-12T21:25:23Z,39479.6,Papier,karatasi,d,uchambuzi,usalama,kukataliwa,rr,NA,NA,NULL,NA,NA,NA,NA,NA,NA,NA,NA,NA,NA,NA,NA,NA,NA,NA,NA,NA,NA,NA
94e37,Save data screen,canvas.Screen,1_2_0_1,NA,NA,timeout,501.7,39469.7,39462.25,39479.6,39962.6,39963.8,2024-03-12T21:25:24Z,39981.3,Papier,karatasi,d,uchambuzi,usalama,kukataliwa,NA,NA,0,NULL,NA,NA,NA,NA,NA,NA,NA,NA,NA,NA,NA,NA,NA,NA,NA,NA,NA,NA,NA
94e37,deep,flow.Sequence,1_2_0,NA,NA,completion,6185.2,33763.5,33759.8,33777.4,39962.6,39964.7,2024-03-12T21:25:24Z,39981.3,Papier,karatasi,d,uchambuzi,usalama,kukataliwa,NA,NA,NA,NULL,NA,NA,NA,NA,NA,NA,NA,NA,NA,NA,NA,NA,NA,NA,NA,NA,NA,NA,NA
94e37,task,flow.Sequence,1_2,NA,NA,completion,6185.2,33763.3,33759.8,33777.4,39962.6,39965.6,2024-03-12T21:25:24Z,39981.3,Papier,karatasi,d,uchambuzi,usalama,kukataliwa,NA,NA,NA,NULL,NA,NA,NA,NA,NA,NA,NA,NA,NA,NA,NA,NA,NA,NA,NA,NA,NA,NA,NA
94e37,Deep Question,html.Page,1_3_0_0,NA,NA,form submission,4687.8000000001,39966.1,39962.6,39981.3,44669.1,44670.1,2024-03-12T21:25:28Z,44681.4,Begegnung,kukutana,s,mmasihiya,mpiganaji,husiano,rlrl,NA,NA,NULL,NA,NA,NA,NA,NA,NA,NA,NA,NA,NA,NA,NA,NA,NA,NA,NA,NA,NA,NA
94e37,Save data screen,canvas.Screen,1_3_0_1,NA,NA,timeout,500.1,44673.5,44664.6,44681.4,45164.9,45166,2024-03-12T21:25:29Z,45181.5,Begegnung,kukutana,s,mmasihiya,mpiganaji,husiano,NA,NA,0,NULL,NA,NA,NA,NA,NA,NA,NA,NA,NA,NA,NA,NA,NA,NA,NA,NA,NA,NA,NA
94e37,deep,flow.Sequence,1_3_0,NA,NA,completion,5183.6,39966,39962.6,39981.3,45164.9,45166.8,2024-03-12T21:25:29Z,45181.5,Begegnung,kukutana,s,mmasihiya,mpiganaji,husiano,NA,NA,NA,NULL,NA,NA,NA,NA,NA,NA,NA,NA,NA,NA,NA,NA,NA,NA,NA,NA,NA,NA,NA
94e37,task,flow.Sequence,1_3,NA,NA,completion,5183.6,39966,39962.6,39981.3,45164.9,45167.3,2024-03-12T21:25:29Z,45181.5,Begegnung,kukutana,s,mmasihiya,mpiganaji,husiano,NA,NA,NA,NULL,NA,NA,NA,NA,NA,NA,NA,NA,NA,NA,NA,NA,NA,NA,NA,NA,NA,NA,NA
94e37,Deep Question,html.Page,1_4_0_0,NA,NA,form submission,6180.1000000001,45167.7,45164.9,45181.5,51361.6,51362.3,2024-03-12T21:25:35Z,51367.6,Vorwurf,mashtaka,s,msukumo,mtangulizi,uenyekiti,rr,NA,NA,NULL,NA,NA,NA,NA,NA,NA,NA,NA,NA,NA,NA,NA,NA,NA,NA,NA,NA,NA,NA
94e37,Save data screen,canvas.Screen,1_4_0_1,NA,NA,timeout,500.2,51365.5,51367.392,51367.6,51851.2,51852.6,2024-03-12T21:25:36Z,51867.8,Vorwurf,mashtaka,s,msukumo,mtangulizi,uenyekiti,NA,NA,0,NULL,NA,NA,NA,NA,NA,NA,NA,NA,NA,NA,NA,NA,NA,NA,NA,NA,NA,NA,NA
94e37,deep,flow.Sequence,1_4_0,NA,NA,completion,6669.7,45167.7,45164.9,45181.5,51851.2,51853.2,2024-03-12T21:25:36Z,51867.8,Vorwurf,mashtaka,s,msukumo,mtangulizi,uenyekiti,NA,NA,NA,NULL,NA,NA,NA,NA,NA,NA,NA,NA,NA,NA,NA,NA,NA,NA,NA,NA,NA,NA,NA
94e37,task,flow.Sequence,1_4,NA,NA,completion,6669.7,45167.6,45164.9,45181.5,51851.2,51853.9,2024-03-12T21:25:36Z,51867.8,Vorwurf,mashtaka,s,msukumo,mtangulizi,uenyekiti,NA,NA,NA,NULL,NA,NA,NA,NA,NA,NA,NA,NA,NA,NA,NA,NA,NA,NA,NA,NA,NA,NA,NA
94e37,Deep Question,html.Page,1_5_0_0,NA,NA,form submission,12861,51854.4,51851.2,51867.8,64728.8,64729.4,2024-03-12T21:25:49Z,64740.2,Niveau,kiwango,d,usimamizi,mwamali,mshairi,",,",NA,NA,NULL,NA,NA,NA,NA,NA,NA,NA,NA,NA,NA,NA,NA,NA,NA,NA,NA,NA,NA,NA
94e37,Save data screen,canvas.Screen,1_5_0_1,NA,NA,timeout,500.3,64734.9,64723.6,64740.2,65223.8,65225,2024-03-12T21:25:49Z,65240.5,Niveau,kiwango,d,usimamizi,mwamali,mshairi,NA,NA,0,NULL,NA,NA,NA,NA,NA,NA,NA,NA,NA,NA,NA,NA,NA,NA,NA,NA,NA,NA,NA
94e37,deep,flow.Sequence,1_5_0,NA,NA,completion,13356,51854.2,51851.2,51867.8,65223.8,65225.6,2024-03-12T21:25:49Z,65240.5,Niveau,kiwango,d,usimamizi,mwamali,mshairi,NA,NA,NA,NULL,NA,NA,NA,NA,NA,NA,NA,NA,NA,NA,NA,NA,NA,NA,NA,NA,NA,NA,NA
94e37,task,flow.Sequence,1_5,NA,NA,completion,13356,51854.2,51851.2,51867.8,65223.8,65226,2024-03-12T21:25:49Z,65240.5,Niveau,kiwango,d,usimamizi,mwamali,mshairi,NA,NA,NA,NULL,NA,NA,NA,NA,NA,NA,NA,NA,NA,NA,NA,NA,NA,NA,NA,NA,NA,NA,NA
94e37,Deep Question,html.Page,1_6_0_0,NA,NA,form submission,17569,65226.5,65223.8,65240.5,82809.5,82810.2,2024-03-12T21:26:07Z,82814.9,Atmosphäre,angahewa,s,kuteseka,usahihi,kutoamini,zz,NA,NA,NULL,NA,NA,NA,NA,NA,NA,NA,NA,NA,NA,NA,NA,NA,NA,NA,NA,NA,NA,NA
94e37,Save data screen,canvas.Screen,1_6_0_1,NA,NA,timeout,500.3,82816.8,82814.66,82814.9,83298.4,83299.6,2024-03-12T21:26:07Z,83315.2,Atmosphäre,angahewa,s,kuteseka,usahihi,kutoamini,NA,NA,0,NULL,NA,NA,NA,NA,NA,NA,NA,NA,NA,NA,NA,NA,NA,NA,NA,NA,NA,NA,NA
94e37,deep,flow.Sequence,1_6_0,NA,NA,completion,18057.9,65226.4,65223.8,65240.5,83298.4,83300.2,2024-03-12T21:26:07Z,83315.2,Atmosphäre,angahewa,s,kuteseka,usahihi,kutoamini,NA,NA,NA,NULL,NA,NA,NA,NA,NA,NA,NA,NA,NA,NA,NA,NA,NA,NA,NA,NA,NA,NA,NA
94e37,task,flow.Sequence,1_6,NA,NA,completion,18057.9,65226.3,65223.8,65240.5,83298.4,83300.6,2024-03-12T21:26:07Z,83315.2,Atmosphäre,angahewa,s,kuteseka,usahihi,kutoamini,NA,NA,NA,NULL,NA,NA,NA,NA,NA,NA,NA,NA,NA,NA,NA,NA,NA,NA,NA,NA,NA,NA,NA
94e37,Deep Question,html.Page,1_7_0_0,NA,NA,form submission,4264.1,83301,83298.4,83315.2,87579.3,87580,2024-03-12T21:26:11Z,87583.7,Entwicklung,maendeleo,s,uangavu,mshindwa,badiliko,pp,NA,NA,NULL,NA,NA,NA,NA,NA,NA,NA,NA,NA,NA,NA,NA,NA,NA,NA,NA,NA,NA,NA
94e37,Save data screen,canvas.Screen,1_7_0_1,NA,NA,timeout,500.3,87586,87583.622,87583.7,88067.3,88078.6,2024-03-12T21:26:12Z,88084,Entwicklung,maendeleo,s,uangavu,mshindwa,badiliko,NA,NA,0,NULL,NA,NA,NA,NA,NA,NA,NA,NA,NA,NA,NA,NA,NA,NA,NA,NA,NA,NA,NA
94e37,deep,flow.Sequence,1_7_0,NA,NA,completion,4752.1,83300.9,83298.4,83315.2,88067.3,88079.2,2024-03-12T21:26:12Z,88084,Entwicklung,maendeleo,s,uangavu,mshindwa,badiliko,NA,NA,NA,NULL,NA,NA,NA,NA,NA,NA,NA,NA,NA,NA,NA,NA,NA,NA,NA,NA,NA,NA,NA
94e37,task,flow.Sequence,1_7,NA,NA,completion,4752.1,83300.8,83298.4,83315.2,88067.3,88079.8,2024-03-12T21:26:12Z,88084,Entwicklung,maendeleo,s,uangavu,mshindwa,badiliko,NA,NA,NA,NULL,NA,NA,NA,NA,NA,NA,NA,NA,NA,NA,NA,NA,NA,NA,NA,NA,NA,NA,NA
94e37,Deep Question,html.Page,1_8_0_0,NA,NA,form submission,6216.9000000001,88080.2,88067.3,88084,94300.9,94301.6,2024-03-12T21:26:18Z,94336.8,Genehmigung,idhini,s,mwanamke,itikadi,fedheha,hh,NA,NA,NULL,NA,NA,NA,NA,NA,NA,NA,NA,NA,NA,NA,NA,NA,NA,NA,NA,NA,NA,NA
94e37,Save data screen,canvas.Screen,1_8_0_1,NA,NA,timeout,500.2,94308,94320.064,94336.8,94820.3,94821.5,2024-03-12T21:26:19Z,94837,Genehmigung,idhini,s,mwanamke,itikadi,fedheha,NA,NA,0,NULL,NA,NA,NA,NA,NA,NA,NA,NA,NA,NA,NA,NA,NA,NA,NA,NA,NA,NA,NA
94e37,deep,flow.Sequence,1_8_0,NA,NA,completion,6736.3,88080.1,88067.3,88084,94820.3,94822.3,2024-03-12T21:26:19Z,94837,Genehmigung,idhini,s,mwanamke,itikadi,fedheha,NA,NA,NA,NULL,NA,NA,NA,NA,NA,NA,NA,NA,NA,NA,NA,NA,NA,NA,NA,NA,NA,NA,NA
94e37,task,flow.Sequence,1_8,NA,NA,completion,6736.3,88079.9,88067.3,88084,94820.3,94822.7,2024-03-12T21:26:19Z,94837,Genehmigung,idhini,s,mwanamke,itikadi,fedheha,NA,NA,NA,NULL,NA,NA,NA,NA,NA,NA,NA,NA,NA,NA,NA,NA,NA,NA,NA,NA,NA,NA,NA
94e37,Deep Question,html.Page,1_9_0_0,NA,NA,form submission,5580.7000000002,94823.1,94820.3,94837,100417.7,100418.3,2024-03-12T21:26:24Z,100423,Erneuerung,ukarabati,d,ushawishi,ukalifu,unyonyaji,hh,NA,NA,NULL,NA,NA,NA,NA,NA,NA,NA,NA,NA,NA,NA,NA,NA,NA,NA,NA,NA,NA,NA
94e37,Save data screen,canvas.Screen,1_9_0_1,NA,NA,timeout,500.10000000001,100425,100422.388,100423,100906.4,100907.4,2024-03-12T21:26:25Z,100923.1,Erneuerung,ukarabati,d,ushawishi,ukalifu,unyonyaji,NA,NA,0,NULL,NA,NA,NA,NA,NA,NA,NA,NA,NA,NA,NA,NA,NA,NA,NA,NA,NA,NA,NA
94e37,deep,flow.Sequence,1_9_0,NA,NA,completion,6069.4,94823,94820.3,94837,100906.4,100908,2024-03-12T21:26:25Z,100923.1,Erneuerung,ukarabati,d,ushawishi,ukalifu,unyonyaji,NA,NA,NA,NULL,NA,NA,NA,NA,NA,NA,NA,NA,NA,NA,NA,NA,NA,NA,NA,NA,NA,NA,NA
94e37,task,flow.Sequence,1_9,NA,NA,completion,6069.4,94823,94820.3,94837,100906.4,100908.3,2024-03-12T21:26:25Z,100923.1,Erneuerung,ukarabati,d,ushawishi,ukalifu,unyonyaji,NA,NA,NA,NULL,NA,NA,NA,NA,NA,NA,NA,NA,NA,NA,NA,NA,NA,NA,NA,NA,NA,NA,NA
94e37,Deep Question,html.Page,1_10_0_0,NA,NA,form submission,6390.8000000001,100909,100906.4,100923.1,107313.9,107314.5,2024-03-12T21:26:31Z,107325.8,Wechsel,ugeuzaji,d,utambulisho,kujenga,wasiwasi,hh,NA,NA,NULL,NA,NA,NA,NA,NA,NA,NA,NA,NA,NA,NA,NA,NA,NA,NA,NA,NA,NA,NA
94e37,Save data screen,canvas.Screen,1_10_0_1,NA,NA,timeout,500.3,107319.5,107309,107325.8,107809.4,107810.6,2024-03-12T21:26:32Z,107826.1,Wechsel,ugeuzaji,d,utambulisho,kujenga,wasiwasi,NA,NA,0,NULL,NA,NA,NA,NA,NA,NA,NA,NA,NA,NA,NA,NA,NA,NA,NA,NA,NA,NA,NA
94e37,deep,flow.Sequence,1_10_0,NA,NA,completion,6886.3,100908.8,100906.4,100923.1,107809.4,107811,2024-03-12T21:26:32Z,107826.1,Wechsel,ugeuzaji,d,utambulisho,kujenga,wasiwasi,NA,NA,NA,NULL,NA,NA,NA,NA,NA,NA,NA,NA,NA,NA,NA,NA,NA,NA,NA,NA,NA,NA,NA
94e37,task,flow.Sequence,1_10,NA,NA,completion,6886.3,100908.6,100906.4,100923.1,107809.4,107811.3,2024-03-12T21:26:32Z,107826.1,Wechsel,ugeuzaji,d,utambulisho,kujenga,wasiwasi,NA,NA,NA,NULL,NA,NA,NA,NA,NA,NA,NA,NA,NA,NA,NA,NA,NA,NA,NA,NA,NA,NA,NA
94e37,Deep Question,html.Page,1_11_0_0,NA,NA,form submission,58925.1,107811.7,107809.4,107826.1,166751.2,166751.8,2024-03-12T21:27:31Z,166768.9,Fleisch,mshakiki,d,kizunguzungu,mshikamano,angusho,hh,NA,NA,NULL,NA,NA,NA,NA,NA,NA,NA,NA,NA,NA,NA,NA,NA,NA,NA,NA,NA,NA,NA
94e37,Save data screen,canvas.Screen,1_11_0_1,NA,NA,timeout,500.20000000001,166757.6,166751.986,166768.9,167252.5,167253.6,2024-03-12T21:27:31Z,167269.1,Fleisch,mshakiki,d,kizunguzungu,mshikamano,angusho,NA,NA,0,NULL,NA,NA,NA,NA,NA,NA,NA,NA,NA,NA,NA,NA,NA,NA,NA,NA,NA,NA,NA
94e37,deep,flow.Sequence,1_11_0,NA,NA,completion,59426.4,107811.6,107809.4,107826.1,167252.5,167254.1,2024-03-12T21:27:31Z,167269.1,Fleisch,mshakiki,d,kizunguzungu,mshikamano,angusho,NA,NA,NA,NULL,NA,NA,NA,NA,NA,NA,NA,NA,NA,NA,NA,NA,NA,NA,NA,NA,NA,NA,NA
94e37,task,flow.Sequence,1_11,NA,NA,completion,59426.4,107811.5,107809.4,107826.1,167252.5,167254.4,2024-03-12T21:27:31Z,167269.1,Fleisch,mshakiki,d,kizunguzungu,mshikamano,angusho,NA,NA,NA,NULL,NA,NA,NA,NA,NA,NA,NA,NA,NA,NA,NA,NA,NA,NA,NA,NA,NA,NA,NA
94e37,Deep Question,html.Page,1_12_0_0,NA,NA,form submission,4874.9,167254.8,167252.5,167269.1,172144,172144.6,2024-03-12T21:27:36Z,172154.7,Stimmung,kinyongo,s,kilekile,kisambo,madhehebu,h,NA,NA,NULL,NA,NA,NA,NA,NA,NA,NA,NA,NA,NA,NA,NA,NA,NA,NA,NA,NA,NA,NA
94e37,Save data screen,canvas.Screen,1_12_0_1,NA,NA,timeout,500.19999999998,172149.8,172137.8,172154.7,172638.3,172639.4,2024-03-12T21:27:36Z,172654.9,Stimmung,kinyongo,s,kilekile,kisambo,madhehebu,NA,NA,0,NULL,NA,NA,NA,NA,NA,NA,NA,NA,NA,NA,NA,NA,NA,NA,NA,NA,NA,NA,NA
94e37,deep,flow.Sequence,1_12_0,NA,NA,completion,5369.2,167254.8,167252.5,167269.1,172638.3,172639.9,2024-03-12T21:27:36Z,172654.9,Stimmung,kinyongo,s,kilekile,kisambo,madhehebu,NA,NA,NA,NULL,NA,NA,NA,NA,NA,NA,NA,NA,NA,NA,NA,NA,NA,NA,NA,NA,NA,NA,NA
94e37,task,flow.Sequence,1_12,NA,NA,completion,5369.2,167254.7,167252.5,167269.1,172638.3,172640.3,2024-03-12T21:27:36Z,172654.9,Stimmung,kinyongo,s,kilekile,kisambo,madhehebu,NA,NA,NA,NULL,NA,NA,NA,NA,NA,NA,NA,NA,NA,NA,NA,NA,NA,NA,NA,NA,NA,NA,NA
94e37,Deep Question,html.Page,1_13_0_0,NA,NA,form submission,38897.4,172640.9,172638.3,172654.9,211552.3,211553,2024-03-12T21:28:15Z,211555.6,Orientierung,urekebisho,d,uelekeo,marekebisho,utunzaji,mwiba,NA,NA,NULL,NA,NA,NA,NA,NA,NA,NA,NA,NA,NA,NA,NA,NA,NA,NA,NA,NA,NA,NA
94e37,Save data screen,canvas.Screen,1_13_0_1,NA,NA,timeout,500.19999999998,211558.7,211555.22,211555.6,212039.3,212040.5,2024-03-12T21:28:16Z,212055.8,Orientierung,urekebisho,d,uelekeo,marekebisho,utunzaji,NA,NA,0,NULL,NA,NA,NA,NA,NA,NA,NA,NA,NA,NA,NA,NA,NA,NA,NA,NA,NA,NA,NA
94e37,deep,flow.Sequence,1_13_0,NA,NA,completion,39384.4,172640.8,172638.3,172654.9,212039.3,212041,2024-03-12T21:28:16Z,212055.8,Orientierung,urekebisho,d,uelekeo,marekebisho,utunzaji,NA,NA,NA,NULL,NA,NA,NA,NA,NA,NA,NA,NA,NA,NA,NA,NA,NA,NA,NA,NA,NA,NA,NA
94e37,task,flow.Sequence,1_13,NA,NA,completion,39384.4,172640.5,172638.3,172654.9,212039.3,212041.5,2024-03-12T21:28:16Z,212055.8,Orientierung,urekebisho,d,uelekeo,marekebisho,utunzaji,NA,NA,NA,NULL,NA,NA,NA,NA,NA,NA,NA,NA,NA,NA,NA,NA,NA,NA,NA,NA,NA,NA,NA
94e37,Deep Question,html.Page,1_14_0_0,NA,NA,form submission,53970.8,212041.9,212039.3,212055.8,266026.6,266027.3,2024-03-12T21:29:10Z,266046.5,Betrüger,mdanganyifu,s,mwanamuziki,wastani,mahakama,zz,NA,NA,NULL,NA,NA,NA,NA,NA,NA,NA,NA,NA,NA,NA,NA,NA,NA,NA,NA,NA,NA,NA
94e37,Save data screen,canvas.Screen,1_14_0_1,NA,NA,timeout,500.09999999998,266033.4,266029.8,266046.5,266530,266531.1,2024-03-12T21:29:10Z,266546.6,Betrüger,mdanganyifu,s,mwanamuziki,wastani,mahakama,NA,NA,0,NULL,NA,NA,NA,NA,NA,NA,NA,NA,NA,NA,NA,NA,NA,NA,NA,NA,NA,NA,NA
94e37,deep,flow.Sequence,1_14_0,NA,NA,completion,54474.2,212041.8,212039.3,212055.8,266530,266531.7,2024-03-12T21:29:10Z,266546.6,Betrüger,mdanganyifu,s,mwanamuziki,wastani,mahakama,NA,NA,NA,NULL,NA,NA,NA,NA,NA,NA,NA,NA,NA,NA,NA,NA,NA,NA,NA,NA,NA,NA,NA
94e37,task,flow.Sequence,1_14,NA,NA,completion,54474.2,212041.7,212039.3,212055.8,266530,266532.1,2024-03-12T21:29:10Z,266546.6,Betrüger,mdanganyifu,s,mwanamuziki,wastani,mahakama,NA,NA,NA,NULL,NA,NA,NA,NA,NA,NA,NA,NA,NA,NA,NA,NA,NA,NA,NA,NA,NA,NA,NA
94e37,Deep Question,html.Page,1_15_0_0,NA,NA,form submission,6510.6000000002005,266532.6,266530,266546.6,273057.2,273057.8,2024-03-12T21:29:17Z,273066.3,Flexibilität,kubadilika,s,enjini,usikilivu,hesabu,fg,NA,NA,NULL,NA,NA,NA,NA,NA,NA,NA,NA,NA,NA,NA,NA,NA,NA,NA,NA,NA,NA,NA
94e37,Save data screen,canvas.Screen,1_15_0_1,NA,NA,timeout,500.29999999999,273064.1,273065.886,273066.3,273549.8,273550.9,2024-03-12T21:29:17Z,273566.6,Flexibilität,kubadilika,s,enjini,usikilivu,hesabu,NA,NA,0,NULL,NA,NA,NA,NA,NA,NA,NA,NA,NA,NA,NA,NA,NA,NA,NA,NA,NA,NA,NA
94e37,deep,flow.Sequence,1_15_0,NA,NA,completion,7003.2,266532.5,266530,266546.6,273549.8,273551.5,2024-03-12T21:29:17Z,273566.6,Flexibilität,kubadilika,s,enjini,usikilivu,hesabu,NA,NA,NA,NULL,NA,NA,NA,NA,NA,NA,NA,NA,NA,NA,NA,NA,NA,NA,NA,NA,NA,NA,NA
94e37,task,flow.Sequence,1_15,NA,NA,completion,7003.2,266532.4,266530,266546.6,273549.8,273552,2024-03-12T21:29:17Z,273566.6,Flexibilität,kubadilika,s,enjini,usikilivu,hesabu,NA,NA,NA,NULL,NA,NA,NA,NA,NA,NA,NA,NA,NA,NA,NA,NA,NA,NA,NA,NA,NA,NA,NA
94e37,retrieval block 1 (cued recall),flow.Loop,1,NA,NA,completion,257547.9,15987.6,15967.5,16001.9,273549.8,273552.5,2024-03-12T21:29:17Z,273566.6,NA,NA,NA,NA,NA,NA,NA,NA,NA,NULL,NA,NA,NA,NA,NA,NA,NA,NA,NA,NA,NA,NA,NA,NA,NA,NA,NA,NA,NA
94e37,Shallow Question,html.Page,2_0_0_0,NA,NA,form submission,57267.3,273553.1,273549.8,273566.6,330833.9,330834.7,2024-03-12T21:30:15Z,330875.4,Atmosphäre,angahewa,s,kuteseka,usahihi,kutoamini,kuteseka,NA,NA,"c(""distractor1"", ""distractor2"", ""distractor3"")",NA,NA,NA,NA,NA,NA,NA,NA,NA,NA,NA,NA,NA,NA,NA,NA,NA,NA,NA
94e37,Save data screen,canvas.Screen,2_0_0_1,NA,NA,timeout,500.09999999998,330840.2,330858.592,330875.4,331358.8,331360,2024-03-12T21:30:15Z,331375.5,Atmosphäre,angahewa,s,kuteseka,usahihi,kutoamini,NA,NA,0,"c(""distractor1"", ""distractor2"", ""distractor3"")",NA,NA,NA,NA,NA,NA,NA,NA,NA,NA,NA,NA,NA,NA,NA,NA,NA,NA,NA
94e37,shallow,flow.Sequence,2_0_0,NA,NA,completion,57792.2,273553,273549.8,273566.6,331358.8,331360.9,2024-03-12T21:30:15Z,331375.5,Atmosphäre,angahewa,s,kuteseka,usahihi,kutoamini,NA,NA,NA,"c(""distractor1"", ""distractor2"", ""distractor3"")",NA,NA,NA,NA,NA,NA,NA,NA,NA,NA,NA,NA,NA,NA,NA,NA,NA,NA,NA
94e37,task,flow.Sequence,2_0,NA,NA,completion,57792.2,273552.9,273549.8,273566.6,331358.8,331361.4,2024-03-12T21:30:15Z,331375.5,Atmosphäre,angahewa,s,kuteseka,usahihi,kutoamini,NA,NA,NA,"c(""distractor1"", ""distractor2"", ""distractor3"")",NA,NA,NA,NA,NA,NA,NA,NA,NA,NA,NA,NA,NA,NA,NA,NA,NA,NA,NA
94e37,Shallow Question,html.Page,2_1_0_0,NA,NA,form submission,56826.6,331361.8,331358.8,331375.5,388202.1,388203,2024-03-12T21:31:12Z,388217.5,Respekt,heshima,d,changamnao,upinzani,ufanisi,upinzani,NA,NA,"c(""distractor1"", ""distractor2"", ""distractor3"")",NA,NA,NA,NA,NA,NA,NA,NA,NA,NA,NA,NA,NA,NA,NA,NA,NA,NA,NA
94e37,Save data screen,canvas.Screen,2_1_0_1,NA,NA,timeout,500.29999999999,388209.4,388200.93,388217.5,388701,388702.1,2024-03-12T21:31:13Z,388717.8,Respekt,heshima,d,changamnao,upinzani,ufanisi,NA,NA,0,"c(""distractor1"", ""distractor2"", ""distractor3"")",NA,NA,NA,NA,NA,NA,NA,NA,NA,NA,NA,NA,NA,NA,NA,NA,NA,NA,NA
94e37,shallow,flow.Sequence,2_1_0,NA,NA,completion,57325.5,331361.7,331358.8,331375.5,388701,388702.7,2024-03-12T21:31:13Z,388717.8,Respekt,heshima,d,changamnao,upinzani,ufanisi,NA,NA,NA,"c(""distractor1"", ""distractor2"", ""distractor3"")",NA,NA,NA,NA,NA,NA,NA,NA,NA,NA,NA,NA,NA,NA,NA,NA,NA,NA,NA
94e37,task,flow.Sequence,2_1,NA,NA,completion,57325.5,331361.7,331358.8,331375.5,388701,388703.1,2024-03-12T21:31:13Z,388717.8,Respekt,heshima,d,changamnao,upinzani,ufanisi,NA,NA,NA,"c(""distractor1"", ""distractor2"", ""distractor3"")",NA,NA,NA,NA,NA,NA,NA,NA,NA,NA,NA,NA,NA,NA,NA,NA,NA,NA,NA
94e37,Shallow Question,html.Page,2_2_0_0,NA,NA,form submission,90228.9,388703.4,388701,388717.8,478946.7,478947.3,2024-03-12T21:32:43Z,478958.1,Integrität,uadilifu,d,muungano,mtiririko,upunguaji,uadilifu,NA,NA,"c(""distractor1"", ""distractor2"", ""distractor3"")",NA,NA,NA,NA,NA,NA,NA,NA,NA,NA,NA,NA,NA,NA,NA,NA,NA,NA,NA
94e37,Save data screen,canvas.Screen,2_2_0_1,NA,NA,timeout,500,478953.4,478941.2,478958.1,479441.4,479442.6,2024-03-12T21:32:43Z,479458.1,Integrität,uadilifu,d,muungano,mtiririko,upunguaji,NA,NA,1,"c(""distractor1"", ""distractor2"", ""distractor3"")",NA,NA,NA,NA,NA,NA,NA,NA,NA,NA,NA,NA,NA,NA,NA,NA,NA,NA,NA
94e37,shallow,flow.Sequence,2_2_0,NA,NA,completion,90723.6,388703.4,388701,388717.8,479441.4,479443.2,2024-03-12T21:32:43Z,479458.1,Integrität,uadilifu,d,muungano,mtiririko,upunguaji,NA,NA,NA,"c(""distractor1"", ""distractor2"", ""distractor3"")",NA,NA,NA,NA,NA,NA,NA,NA,NA,NA,NA,NA,NA,NA,NA,NA,NA,NA,NA
94e37,task,flow.Sequence,2_2,NA,NA,completion,90723.6,388703.3,388701,388717.8,479441.4,479443.7,2024-03-12T21:32:43Z,479458.1,Integrität,uadilifu,d,muungano,mtiririko,upunguaji,NA,NA,NA,"c(""distractor1"", ""distractor2"", ""distractor3"")",NA,NA,NA,NA,NA,NA,NA,NA,NA,NA,NA,NA,NA,NA,NA,NA,NA,NA,NA
94e37,Shallow Question,html.Page,2_3_0_0,NA,NA,form submission,62072.8,479444,479441.4,479458.1,541530.9,541531.5,2024-03-12T21:33:45Z,541535.7,Niveau,kiwango,d,usimamizi,mwamali,mshairi,kiwango,NA,NA,"c(""distractor1"", ""distractor2"", ""distractor3"")",NA,NA,NA,NA,NA,NA,NA,NA,NA,NA,NA,NA,NA,NA,NA,NA,NA,NA,NA
94e37,Save data screen,canvas.Screen,2_3_0_1,NA,NA,timeout,500.30000000005,541537.7,541535.524,541535.7,542019.3,542020.4,2024-03-12T21:33:46Z,542036,Niveau,kiwango,d,usimamizi,mwamali,mshairi,NA,NA,1,"c(""distractor1"", ""distractor2"", ""distractor3"")",NA,NA,NA,NA,NA,NA,NA,NA,NA,NA,NA,NA,NA,NA,NA,NA,NA,NA,NA
94e37,shallow,flow.Sequence,2_3_0,NA,NA,completion,62561.2,479444,479441.4,479458.1,542019.3,542021,2024-03-12T21:33:46Z,542036,Niveau,kiwango,d,usimamizi,mwamali,mshairi,NA,NA,NA,"c(""distractor1"", ""distractor2"", ""distractor3"")",NA,NA,NA,NA,NA,NA,NA,NA,NA,NA,NA,NA,NA,NA,NA,NA,NA,NA,NA
94e37,task,flow.Sequence,2_3,NA,NA,completion,62561.2,479443.8,479441.4,479458.1,542019.3,542021.6,2024-03-12T21:33:46Z,542036,Niveau,kiwango,d,usimamizi,mwamali,mshairi,NA,NA,NA,"c(""distractor1"", ""distractor2"", ""distractor3"")",NA,NA,NA,NA,NA,NA,NA,NA,NA,NA,NA,NA,NA,NA,NA,NA,NA,NA,NA
94e37,Shallow Question,html.Page,2_4_0_0,NA,NA,form submission,94441,542022,542019.3,542036,636477,636477.6,2024-03-12T21:35:20Z,636478,Flexibilität,kubadilika,s,enjini,usikilivu,hesabu,hesabu,NA,NA,"c(""distractor1"", ""distractor2"", ""distractor3"")",NA,NA,NA,NA,NA,NA,NA,NA,NA,NA,NA,NA,NA,NA,NA,NA,NA,NA,NA
94e37,Save data screen,canvas.Screen,2_4_0_1,NA,NA,timeout,500.19999999995,636484.1,636477.708,636478,636961.5,636962.5,2024-03-12T21:35:21Z,636978.2,Flexibilität,kubadilika,s,enjini,usikilivu,hesabu,NA,NA,0,"c(""distractor1"", ""distractor2"", ""distractor3"")",NA,NA,NA,NA,NA,NA,NA,NA,NA,NA,NA,NA,NA,NA,NA,NA,NA,NA,NA
94e37,shallow,flow.Sequence,2_4_0,NA,NA,completion,94925.5,542021.9,542019.3,542036,636961.5,636963.1,2024-03-12T21:35:21Z,636978.2,Flexibilität,kubadilika,s,enjini,usikilivu,hesabu,NA,NA,NA,"c(""distractor1"", ""distractor2"", ""distractor3"")",NA,NA,NA,NA,NA,NA,NA,NA,NA,NA,NA,NA,NA,NA,NA,NA,NA,NA,NA
94e37,task,flow.Sequence,2_4,NA,NA,completion,94925.5,542021.8,542019.3,542036,636961.5,636963.6,2024-03-12T21:35:21Z,636978.2,Flexibilität,kubadilika,s,enjini,usikilivu,hesabu,NA,NA,NA,"c(""distractor1"", ""distractor2"", ""distractor3"")",NA,NA,NA,NA,NA,NA,NA,NA,NA,NA,NA,NA,NA,NA,NA,NA,NA,NA,NA
94e37,Shallow Question,html.Page,2_5_0_0,NA,NA,form submission,28090.6,636963.9,636961.5,636978.2,665068.8,665069.5,2024-03-12T21:35:49Z,665074,Betrüger,mdanganyifu,s,mwanamuziki,wastani,mahakama,mdanganyifu,NA,NA,"c(""distractor1"", ""distractor2"", ""distractor3"")",NA,NA,NA,NA,NA,NA,NA,NA,NA,NA,NA,NA,NA,NA,NA,NA,NA,NA,NA
94e37,Save data screen,canvas.Screen,2_5_0_1,NA,NA,timeout,500.19999999995,665075.6,665073.744,665074,665557.6,665559,2024-03-12T21:35:49Z,665574.2,Betrüger,mdanganyifu,s,mwanamuziki,wastani,mahakama,NA,NA,1,"c(""distractor1"", ""distractor2"", ""distractor3"")",NA,NA,NA,NA,NA,NA,NA,NA,NA,NA,NA,NA,NA,NA,NA,NA,NA,NA,NA
94e37,shallow,flow.Sequence,2_5_0,NA,NA,completion,28579.4,636963.9,636961.5,636978.2,665557.6,665559.4,2024-03-12T21:35:49Z,665574.2,Betrüger,mdanganyifu,s,mwanamuziki,wastani,mahakama,NA,NA,NA,"c(""distractor1"", ""distractor2"", ""distractor3"")",NA,NA,NA,NA,NA,NA,NA,NA,NA,NA,NA,NA,NA,NA,NA,NA,NA,NA,NA
94e37,task,flow.Sequence,2_5,NA,NA,completion,28579.4,636963.7,636961.5,636978.2,665557.6,665559.8,2024-03-12T21:35:49Z,665574.2,Betrüger,mdanganyifu,s,mwanamuziki,wastani,mahakama,NA,NA,NA,"c(""distractor1"", ""distractor2"", ""distractor3"")",NA,NA,NA,NA,NA,NA,NA,NA,NA,NA,NA,NA,NA,NA,NA,NA,NA,NA,NA
94e37,Shallow Question,html.Page,2_6_0_0,NA,NA,form submission,12215.7,665560.2,665557.6,665574.2,677789.9,677790.7,2024-03-12T21:36:02Z,677796.5,Erneuerung,ukarabati,d,ushawishi,ukalifu,unyonyaji,ukarabati,NA,NA,"c(""distractor1"", ""distractor2"", ""distractor3"")",NA,NA,NA,NA,NA,NA,NA,NA,NA,NA,NA,NA,NA,NA,NA,NA,NA,NA,NA
94e37,Save data screen,canvas.Screen,2_6_0_1,NA,NA,timeout,500,677797.3,677796.17,677796.5,678279.9,678281.1,2024-03-12T21:36:02Z,678296.5,Erneuerung,ukarabati,d,ushawishi,ukalifu,unyonyaji,NA,NA,1,"c(""distractor1"", ""distractor2"", ""distractor3"")",NA,NA,NA,NA,NA,NA,NA,NA,NA,NA,NA,NA,NA,NA,NA,NA,NA,NA,NA
94e37,shallow,flow.Sequence,2_6_0,NA,NA,completion,12705.7,665560.1,665557.6,665574.2,678279.9,678281.8,2024-03-12T21:36:02Z,678296.5,Erneuerung,ukarabati,d,ushawishi,ukalifu,unyonyaji,NA,NA,NA,"c(""distractor1"", ""distractor2"", ""distractor3"")",NA,NA,NA,NA,NA,NA,NA,NA,NA,NA,NA,NA,NA,NA,NA,NA,NA,NA,NA
94e37,task,flow.Sequence,2_6,NA,NA,completion,12705.7,665560.1,665557.6,665574.2,678279.9,678282.4,2024-03-12T21:36:02Z,678296.5,Erneuerung,ukarabati,d,ushawishi,ukalifu,unyonyaji,NA,NA,NA,"c(""distractor1"", ""distractor2"", ""distractor3"")",NA,NA,NA,NA,NA,NA,NA,NA,NA,NA,NA,NA,NA,NA,NA,NA,NA,NA,NA
94e37,Shallow Question,html.Page,2_7_0_0,NA,NA,form submission,56827.9,678282.8,678279.9,678296.5,735124.4,735125,2024-03-12T21:36:59Z,735139.3,Genehmigung,idhini,s,mwanamke,itikadi,fedheha,idhini,NA,NA,"c(""distractor1"", ""distractor2"", ""distractor3"")",NA,NA,NA,NA,NA,NA,NA,NA,NA,NA,NA,NA,NA,NA,NA,NA,NA,NA,NA
94e37,Save data screen,canvas.Screen,2_7_0_1,NA,NA,timeout,499.5,735131.2,735121.826,735139.3,735622.2,735623.4,2024-03-12T21:36:59Z,735638.8,Genehmigung,idhini,s,mwanamke,itikadi,fedheha,NA,NA,1,"c(""distractor1"", ""distractor2"", ""distractor3"")",NA,NA,NA,NA,NA,NA,NA,NA,NA,NA,NA,NA,NA,NA,NA,NA,NA,NA,NA
94e37,shallow,flow.Sequence,2_7_0,NA,NA,completion,57325.7,678282.7,678279.9,678296.5,735622.2,735623.8,2024-03-12T21:36:59Z,735638.8,Genehmigung,idhini,s,mwanamke,itikadi,fedheha,NA,NA,NA,"c(""distractor1"", ""distractor2"", ""distractor3"")",NA,NA,NA,NA,NA,NA,NA,NA,NA,NA,NA,NA,NA,NA,NA,NA,NA,NA,NA
94e37,task,flow.Sequence,2_7,NA,NA,completion,57325.7,678282.6,678279.9,678296.5,735622.2,735624.3,2024-03-12T21:36:59Z,735638.8,Genehmigung,idhini,s,mwanamke,itikadi,fedheha,NA,NA,NA,"c(""distractor1"", ""distractor2"", ""distractor3"")",NA,NA,NA,NA,NA,NA,NA,NA,NA,NA,NA,NA,NA,NA,NA,NA,NA,NA,NA
94e37,Shallow Question,html.Page,2_8_0_0,NA,NA,form submission,17338.2,735624.6,735622.2,735638.8,752977,752977.6,2024-03-12T21:37:17Z,752979.8,Begegnung,kukutana,s,mmasihiya,mpiganaji,husiano,kukutana,NA,NA,"c(""distractor1"", ""distractor2"", ""distractor3"")",NA,NA,NA,NA,NA,NA,NA,NA,NA,NA,NA,NA,NA,NA,NA,NA,NA,NA,NA
94e37,Save data screen,canvas.Screen,2_8_0_1,NA,NA,timeout,500.19999999995,752983.8,752979.638,752979.8,753463.4,753464.4,2024-03-12T21:37:17Z,753480,Begegnung,kukutana,s,mmasihiya,mpiganaji,husiano,NA,NA,1,"c(""distractor1"", ""distractor2"", ""distractor3"")",NA,NA,NA,NA,NA,NA,NA,NA,NA,NA,NA,NA,NA,NA,NA,NA,NA,NA,NA
94e37,shallow,flow.Sequence,2_8_0,NA,NA,completion,17824.6,735624.5,735622.2,735638.8,753463.4,753464.9,2024-03-12T21:37:17Z,753480,Begegnung,kukutana,s,mmasihiya,mpiganaji,husiano,NA,NA,NA,"c(""distractor1"", ""distractor2"", ""distractor3"")",NA,NA,NA,NA,NA,NA,NA,NA,NA,NA,NA,NA,NA,NA,NA,NA,NA,NA,NA
94e37,task,flow.Sequence,2_8,NA,NA,completion,17824.6,735624.5,735622.2,735638.8,753463.4,753465.3,2024-03-12T21:37:17Z,753480,Begegnung,kukutana,s,mmasihiya,mpiganaji,husiano,NA,NA,NA,"c(""distractor1"", ""distractor2"", ""distractor3"")",NA,NA,NA,NA,NA,NA,NA,NA,NA,NA,NA,NA,NA,NA,NA,NA,NA,NA,NA
94e37,Shallow Question,html.Page,2_9_0_0,NA,NA,form submission,43114.8,753465.6,753463.4,753480,796594.8,796595.3,2024-03-12T21:38:00Z,796599.242,Wechsel,ugeuzaji,d,utambulisho,kujenga,wasiwasi,utambulisho,NA,NA,"c(""distractor1"", ""distractor2"", ""distractor3"")",NA,NA,NA,NA,NA,NA,NA,NA,NA,NA,NA,NA,NA,NA,NA,NA,NA,NA,NA
94e37,Save data screen,canvas.Screen,2_9_0_1,NA,NA,timeout,500.15800000005,796601.8,796599.242,796599.242,797082.8,797083.8,2024-03-12T21:38:01Z,797099.4,Wechsel,ugeuzaji,d,utambulisho,kujenga,wasiwasi,NA,NA,0,"c(""distractor1"", ""distractor2"", ""distractor3"")",NA,NA,NA,NA,NA,NA,NA,NA,NA,NA,NA,NA,NA,NA,NA,NA,NA,NA,NA
94e37,shallow,flow.Sequence,2_9_0,NA,NA,completion,43602.8,753465.6,753463.4,753480,797082.8,797084.4,2024-03-12T21:38:01Z,797099.4,Wechsel,ugeuzaji,d,utambulisho,kujenga,wasiwasi,NA,NA,NA,"c(""distractor1"", ""distractor2"", ""distractor3"")",NA,NA,NA,NA,NA,NA,NA,NA,NA,NA,NA,NA,NA,NA,NA,NA,NA,NA,NA
94e37,task,flow.Sequence,2_9,NA,NA,completion,43602.8,753465.5,753463.4,753480,797082.8,797085,2024-03-12T21:38:01Z,797099.4,Wechsel,ugeuzaji,d,utambulisho,kujenga,wasiwasi,NA,NA,NA,"c(""distractor1"", ""distractor2"", ""distractor3"")",NA,NA,NA,NA,NA,NA,NA,NA,NA,NA,NA,NA,NA,NA,NA,NA,NA,NA,NA
94e37,Shallow Question,html.Page,2_10_0_0,NA,NA,form submission,14859.8,797085.5,797082.8,797099.4,811959.2,811959.8,2024-03-12T21:38:16Z,811974.1,Stimmung,kinyongo,s,kilekile,kisambo,madhehebu,kisambo,NA,NA,"c(""distractor1"", ""distractor2"", ""distractor3"")",NA,NA,NA,NA,NA,NA,NA,NA,NA,NA,NA,NA,NA,NA,NA,NA,NA,NA,NA
94e37,Save data screen,canvas.Screen,2_10_0_1,NA,NA,timeout,498.80000000005,811965.1,811956,811974.1,812456.2,812457.4,2024-03-12T21:38:16Z,812472.9,Stimmung,kinyongo,s,kilekile,kisambo,madhehebu,NA,NA,0,"c(""distractor1"", ""distractor2"", ""distractor3"")",NA,NA,NA,NA,NA,NA,NA,NA,NA,NA,NA,NA,NA,NA,NA,NA,NA,NA,NA
94e37,shallow,flow.Sequence,2_10_0,NA,NA,completion,15356.8,797085.4,797082.8,797099.4,812456.2,812457.9,2024-03-12T21:38:16Z,812472.9,Stimmung,kinyongo,s,kilekile,kisambo,madhehebu,NA,NA,NA,"c(""distractor1"", ""distractor2"", ""distractor3"")",NA,NA,NA,NA,NA,NA,NA,NA,NA,NA,NA,NA,NA,NA,NA,NA,NA,NA,NA
94e37,task,flow.Sequence,2_10,NA,NA,completion,15356.8,797085.3,797082.8,797099.4,812456.2,812458.2,2024-03-12T21:38:16Z,812472.9,Stimmung,kinyongo,s,kilekile,kisambo,madhehebu,NA,NA,NA,"c(""distractor1"", ""distractor2"", ""distractor3"")",NA,NA,NA,NA,NA,NA,NA,NA,NA,NA,NA,NA,NA,NA,NA,NA,NA,NA,NA
94e37,Shallow Question,html.Page,2_11_0_0,NA,NA,form submission,24399.1,812458.7,812456.2,812472.9,836872,836872.5,2024-03-12T21:38:41Z,836883.8,Papier,karatasi,d,uchambuzi,usalama,kukataliwa,karatasi,NA,NA,"c(""distractor1"", ""distractor2"", ""distractor3"")",NA,NA,NA,NA,NA,NA,NA,NA,NA,NA,NA,NA,NA,NA,NA,NA,NA,NA,NA
94e37,Save data screen,canvas.Screen,2_11_0_1,NA,NA,timeout,500.29999999993,836877.5,836867.256,836883.8,837367.6,837368.9,2024-03-12T21:38:41Z,837384.1,Papier,karatasi,d,uchambuzi,usalama,kukataliwa,NA,NA,1,"c(""distractor1"", ""distractor2"", ""distractor3"")",NA,NA,NA,NA,NA,NA,NA,NA,NA,NA,NA,NA,NA,NA,NA,NA,NA,NA,NA
94e37,shallow,flow.Sequence,2_11_0,NA,NA,completion,24894.7,812458.5,812456.2,812472.9,837367.6,837369.6,2024-03-12T21:38:41Z,837384.1,Papier,karatasi,d,uchambuzi,usalama,kukataliwa,NA,NA,NA,"c(""distractor1"", ""distractor2"", ""distractor3"")",NA,NA,NA,NA,NA,NA,NA,NA,NA,NA,NA,NA,NA,NA,NA,NA,NA,NA,NA
94e37,task,flow.Sequence,2_11,NA,NA,completion,24894.7,812458.4,812456.2,812472.9,837367.6,837370.1,2024-03-12T21:38:41Z,837384.1,Papier,karatasi,d,uchambuzi,usalama,kukataliwa,NA,NA,NA,"c(""distractor1"", ""distractor2"", ""distractor3"")",NA,NA,NA,NA,NA,NA,NA,NA,NA,NA,NA,NA,NA,NA,NA,NA,NA,NA,NA
94e37,Shallow Question,html.Page,2_12_0_0,NA,NA,form submission,44384.1,837370.6,837367.6,837384.1,881768.2,881769,2024-03-12T21:39:26Z,881770.96,Entwicklung,maendeleo,s,uangavu,mshindwa,badiliko,mshindwa,NA,NA,"c(""distractor1"", ""distractor2"", ""distractor3"")",NA,NA,NA,NA,NA,NA,NA,NA,NA,NA,NA,NA,NA,NA,NA,NA,NA,NA,NA
94e37,Save data screen,canvas.Screen,2_12_0_1,NA,NA,timeout,499.73999999999,881776,881770.96,881770.96,882254,882255.1,2024-03-12T21:39:26Z,882270.7,Entwicklung,maendeleo,s,uangavu,mshindwa,badiliko,NA,NA,0,"c(""distractor1"", ""distractor2"", ""distractor3"")",NA,NA,NA,NA,NA,NA,NA,NA,NA,NA,NA,NA,NA,NA,NA,NA,NA,NA,NA
94e37,shallow,flow.Sequence,2_12_0,NA,NA,completion,44869.9,837370.4,837367.6,837384.1,882254,882255.8,2024-03-12T21:39:26Z,882270.7,Entwicklung,maendeleo,s,uangavu,mshindwa,badiliko,NA,NA,NA,"c(""distractor1"", ""distractor2"", ""distractor3"")",NA,NA,NA,NA,NA,NA,NA,NA,NA,NA,NA,NA,NA,NA,NA,NA,NA,NA,NA
94e37,task,flow.Sequence,2_12,NA,NA,completion,44869.9,837370.3,837367.6,837384.1,882254,882256.3,2024-03-12T21:39:26Z,882270.7,Entwicklung,maendeleo,s,uangavu,mshindwa,badiliko,NA,NA,NA,"c(""distractor1"", ""distractor2"", ""distractor3"")",NA,NA,NA,NA,NA,NA,NA,NA,NA,NA,NA,NA,NA,NA,NA,NA,NA,NA,NA
94e37,Shallow Question,html.Page,2_13_0_0,NA,NA,form submission,11551.1,882256.8,882254,882270.7,893821.8,893822.3,2024-03-12T21:39:38Z,893827.062,Vorwurf,mashtaka,s,msukumo,mtangulizi,uenyekiti,mashtaka,NA,NA,"c(""distractor1"", ""distractor2"", ""distractor3"")",NA,NA,NA,NA,NA,NA,NA,NA,NA,NA,NA,NA,NA,NA,NA,NA,NA,NA,NA
94e37,Save data screen,canvas.Screen,2_13_0_1,NA,NA,timeout,498.93799999997,893828.4,893827.062,893827.062,894309.3,894310.3,2024-03-12T21:39:38Z,894326,Vorwurf,mashtaka,s,msukumo,mtangulizi,uenyekiti,NA,NA,1,"c(""distractor1"", ""distractor2"", ""distractor3"")",NA,NA,NA,NA,NA,NA,NA,NA,NA,NA,NA,NA,NA,NA,NA,NA,NA,NA,NA
94e37,shallow,flow.Sequence,2_13_0,NA,NA,completion,12038.6,882256.7,882254,882270.7,894309.3,894310.8,2024-03-12T21:39:38Z,894326,Vorwurf,mashtaka,s,msukumo,mtangulizi,uenyekiti,NA,NA,NA,"c(""distractor1"", ""distractor2"", ""distractor3"")",NA,NA,NA,NA,NA,NA,NA,NA,NA,NA,NA,NA,NA,NA,NA,NA,NA,NA,NA
94e37,task,flow.Sequence,2_13,NA,NA,completion,12038.6,882256.5,882254,882270.7,894309.3,894311.1,2024-03-12T21:39:38Z,894326,Vorwurf,mashtaka,s,msukumo,mtangulizi,uenyekiti,NA,NA,NA,"c(""distractor1"", ""distractor2"", ""distractor3"")",NA,NA,NA,NA,NA,NA,NA,NA,NA,NA,NA,NA,NA,NA,NA,NA,NA,NA,NA
94e37,Shallow Question,html.Page,2_14_0_0,NA,NA,form submission,8067,894311.5,894309.3,894326,902393,902393.6,2024-03-12T21:39:46Z,902396.3,Fleisch,mshakiki,d,kizunguzungu,mshikamano,angusho,mshakiki,NA,NA,"c(""distractor1"", ""distractor2"", ""distractor3"")",NA,NA,NA,NA,NA,NA,NA,NA,NA,NA,NA,NA,NA,NA,NA,NA,NA,NA,NA
94e37,Save data screen,canvas.Screen,2_14_0_1,NA,NA,timeout,500.09999999998,902399.6,902395.948,902396.3,902880,902881,2024-03-12T21:39:47Z,902896.4,Fleisch,mshakiki,d,kizunguzungu,mshikamano,angusho,NA,NA,1,"c(""distractor1"", ""distractor2"", ""distractor3"")",NA,NA,NA,NA,NA,NA,NA,NA,NA,NA,NA,NA,NA,NA,NA,NA,NA,NA,NA
94e37,shallow,flow.Sequence,2_14_0,NA,NA,completion,8554,894311.5,894309.3,894326,902880,902881.4,2024-03-12T21:39:47Z,902896.4,Fleisch,mshakiki,d,kizunguzungu,mshikamano,angusho,NA,NA,NA,"c(""distractor1"", ""distractor2"", ""distractor3"")",NA,NA,NA,NA,NA,NA,NA,NA,NA,NA,NA,NA,NA,NA,NA,NA,NA,NA,NA
94e37,task,flow.Sequence,2_14,NA,NA,completion,8554,894311.4,894309.3,894326,902880,902881.8,2024-03-12T21:39:47Z,902896.4,Fleisch,mshakiki,d,kizunguzungu,mshikamano,angusho,NA,NA,NA,"c(""distractor1"", ""distractor2"", ""distractor3"")",NA,NA,NA,NA,NA,NA,NA,NA,NA,NA,NA,NA,NA,NA,NA,NA,NA,NA,NA
94e37,Shallow Question,html.Page,2_15_0_0,NA,NA,form submission,22762.3,902882.1,902880,902896.4,925658.7,925659.4,2024-03-12T21:40:10Z,925656.626,Orientierung,urekebisho,d,uelekeo,marekebisho,utunzaji,urekebisho,NA,NA,"c(""distractor1"", ""distractor2"", ""distractor3"")",NA,NA,NA,NA,NA,NA,NA,NA,NA,NA,NA,NA,NA,NA,NA,NA,NA,NA,NA
94e37,Save data screen,canvas.Screen,2_15_0_1,NA,NA,timeout,500.27399999998,925664.9,925656.626,925656.626,926140.1,926141.3,2024-03-12T21:40:10Z,926156.9,Orientierung,urekebisho,d,uelekeo,marekebisho,utunzaji,NA,NA,1,"c(""distractor1"", ""distractor2"", ""distractor3"")",NA,NA,NA,NA,NA,NA,NA,NA,NA,NA,NA,NA,NA,NA,NA,NA,NA,NA,NA
94e37,shallow,flow.Sequence,2_15_0,NA,NA,completion,23243.7,902882.1,902880,902896.4,926140.1,926141.9,2024-03-12T21:40:10Z,926156.9,Orientierung,urekebisho,d,uelekeo,marekebisho,utunzaji,NA,NA,NA,"c(""distractor1"", ""distractor2"", ""distractor3"")",NA,NA,NA,NA,NA,NA,NA,NA,NA,NA,NA,NA,NA,NA,NA,NA,NA,NA,NA
94e37,task,flow.Sequence,2_15,NA,NA,completion,23243.7,902882,902880,902896.4,926140.1,926142.5,2024-03-12T21:40:10Z,926156.9,Orientierung,urekebisho,d,uelekeo,marekebisho,utunzaji,NA,NA,NA,"c(""distractor1"", ""distractor2"", ""distractor3"")",NA,NA,NA,NA,NA,NA,NA,NA,NA,NA,NA,NA,NA,NA,NA,NA,NA,NA,NA
94e37,retrieval block 2 (multiple choice),flow.Loop,2,NA,NA,completion,652573.5,273552.8,273549.8,273566.6,926140.1,926143.1,2024-03-12T21:40:10Z,926156.9,NA,NA,NA,NA,NA,NA,NA,NA,NA,"c(""distractor1"", ""distractor2"", ""distractor3"")",NA,NA,NA,NA,NA,NA,NA,NA,NA,NA,NA,NA,NA,NA,NA,NA,NA,NA,NA
94e37,End,canvas.Screen,3,NA,keypress(Space),response,3140.9000000003,926143.4,926140.1,926156.9,929297.8,929300.9,2024-03-12T21:40:13Z,929308.3,NA,NA,NA,NA,NA,NA,NA,NA,NA,NULL,NA,NA,NA,NA,NA,NA,NA,NA,NA,NA,NA,NA,NA,NA,NA,NA,NA,NA,NA
94e37,root,flow.Sequence,NA,NA,NA,completion,927001.4,1916.9000000001,1961.898,2296.4,929297.8,929302.5,2024-03-12T21:40:13Z,929308.3,NA,NA,NA,NA,NA,NA,NA,NA,NA,NULL,NA,NA,NA,NA,NA,NA,NA,NA,NA,NA,NA,NA,NA,NA,NA,NA,NA,NA,NA
