observation,sender,sender_type,sender_id,response,response_action,ended_on,duration,time_run,time_render,time_show,time_end,time_commit,timestamp,time_switch,distractors,german,swahili,enc,distractor1,distractor2,distractor3,response_2,x,correct,x_2,url_vp,url_sess,meta_labjs_version,meta_location,meta_user_agent,meta_platform,meta_language,meta_locale,meta_time_zone,meta_timezone_offset,meta_screen_width,meta_screen_height,meta_scroll_width,meta_scroll_height,meta_window_inner_width,meta_window_inner_height,meta_device_pixel_ratio,meta_labjs_build_flavor,meta_labjs_build_commit
7901b,Introduction general,canvas.Screen,0,weiter,keypress(q),response,113853.357,885.5,891.861,908.143,114761.5,114767.2,2023-05-12T16:00:40Z,114764.363,NULL,NA,NA,NA,NA,NA,NA,NA,NA,NA,NA,211,3,20.2.4,https://neurocog.fernuni.ch/studies/vweber/sfink/encoding_immediate/index.html?vp=211&sess=3,"Mozilla/5.0 (Windows NT 10.0; Win64; x64) AppleWebKit/537.36 (KHTML, like Gecko) Chrome/113.0.0.0 Safari/537.36",Win32,de-CH,de,Europe/Zurich,-120,1536,864,1536,706,1536,754,1.25,production,f5b4a49f956347addd546a832a3327688c2c0fef
7901b,Introduction practice,canvas.Screen,1_0,NA,keypress(Space),response,6846.436999997,114767.5,114758.463,114764.363,121610.8,121612,2023-05-12T16:00:47Z,121625.996,NULL,NA,NA,NA,NA,NA,NA,NA,NA,NA,NA,NA,NA,NA,NA,NA,NA,NA,NA,NA,NA,NA,NA,NA,NA,NA,NA,NA,NA,NA
7901b,Deep Question,html.Page,1_1_0_0_0,NA,NA,form submission,6062.204000003,121612.5,121608.344,121625.996,127688.2,127688.40000001,2023-05-12T16:00:53Z,127703.712,"c(""distractor1"", ""distractor2"", ""distractor3"")",Schatten,kivuli,d,NA,NA,NA,pole,NA,NA,NA,NA,NA,NA,NA,NA,NA,NA,NA,NA,NA,NA,NA,NA,NA,NA,NA,NA,NA,NA
7901b,"""Richtig""-Screen",canvas.Screen,1_1_0_0_1,NA,NA,skipped,NA,127691.5,NA,NA,127688.2,127691.8,2023-05-12T16:00:53Z,127703.712,"c(""distractor1"", ""distractor2"", ""distractor3"")",Schatten,kivuli,d,NA,NA,NA,NA,NA,NA,NA,NA,NA,NA,NA,NA,NA,NA,NA,NA,NA,NA,NA,NA,NA,NA,NA,NA,NA,NA
7901b,"""Falsch""-Screen",canvas.Screen,1_1_0_0_2,NA,NA,timeout,4996.181,127693.2,127687.2,127703.712,132683.458,132684.40000001,2023-05-12T16:00:58Z,132699.893,"c(""distractor1"", ""distractor2"", ""distractor3"")",Schatten,kivuli,d,NA,NA,NA,NA,NA,0,NA,NA,NA,NA,NA,NA,NA,NA,NA,NA,NA,NA,NA,NA,NA,NA,NA,NA,NA,NA
7901b,deep,flow.Sequence,1_1_0_0,NA,NA,completion,11057.462,121612.5,121608.344,121625.996,132683.458,132684.90000001,2023-05-12T16:00:58Z,132699.893,"c(""distractor1"", ""distractor2"", ""distractor3"")",Schatten,kivuli,d,NA,NA,NA,NA,NA,NA,NA,NA,NA,NA,NA,NA,NA,NA,NA,NA,NA,NA,NA,NA,NA,NA,NA,NA,NA,NA
7901b,shallow,flow.Sequence,1_1_0_1,NA,NA,skipped,NA,132685,NA,NA,132683.458,132685.3,2023-05-12T16:00:58Z,132699.893,"c(""distractor1"", ""distractor2"", ""distractor3"")",Schatten,kivuli,d,NA,NA,NA,NA,NA,NA,NA,NA,NA,NA,NA,NA,NA,NA,NA,NA,NA,NA,NA,NA,NA,NA,NA,NA,NA,NA
7901b,task,flow.Sequence,1_1_0,NA,NA,completion,11057.462,121612.40000001,121608.344,121625.996,132683.458,132685.5,2023-05-12T16:00:58Z,132699.893,"c(""distractor1"", ""distractor2"", ""distractor3"")",Schatten,kivuli,d,NA,NA,NA,NA,NA,NA,NA,NA,NA,NA,NA,NA,NA,NA,NA,NA,NA,NA,NA,NA,NA,NA,NA,NA,NA,NA
7901b,deep,flow.Sequence,1_1_1_0,NA,NA,skipped,NA,132685.8,NA,NA,132683.458,132685.90000001,2023-05-12T16:00:58Z,132699.893,"c(""distractor1"", ""distractor2"", ""distractor3"")",Rückhalt,msaada,s,muhula,auwali,kiwimbe,NA,NA,NA,NA,NA,NA,NA,NA,NA,NA,NA,NA,NA,NA,NA,NA,NA,NA,NA,NA,NA,NA,NA
7901b,Shallow Question,html.Page,1_1_1_1_0,NA,NA,form submission,5485.0070000059,132686.09999999,132683.458,132699.893,138184.90000001,138185.3,2023-05-12T16:01:04Z,138195.126,"c(""distractor1"", ""distractor2"", ""distractor3"")",Rückhalt,msaada,s,muhula,auwali,kiwimbe,muhula,NA,NA,NA,NA,NA,NA,NA,NA,NA,NA,NA,NA,NA,NA,NA,NA,NA,NA,NA,NA,NA,NA
7901b,"""Richtig""-Screen",canvas.Screen,1_1_1_1_1,NA,NA,skipped,NA,138191.2,NA,NA,138184.90000001,138191.5,2023-05-12T16:01:04Z,138195.126,"c(""distractor1"", ""distractor2"", ""distractor3"")",Rückhalt,msaada,s,muhula,auwali,kiwimbe,NA,NA,NA,NA,NA,NA,NA,NA,NA,NA,NA,NA,NA,NA,NA,NA,NA,NA,NA,NA,NA,NA,NA
7901b,"""Falsch""-Screen",canvas.Screen,1_1_1_1_2,NA,NA,timeout,4995.827,138193.8,138179.018,138195.126,143174.874,143175.90000001,2023-05-12T16:01:09Z,143190.953,"c(""distractor1"", ""distractor2"", ""distractor3"")",Rückhalt,msaada,s,muhula,auwali,kiwimbe,NA,NA,0,NA,NA,NA,NA,NA,NA,NA,NA,NA,NA,NA,NA,NA,NA,NA,NA,NA,NA,NA,NA
7901b,shallow,flow.Sequence,1_1_1_1,NA,NA,completion,10474.981,132686,132683.458,132699.893,143174.874,143176.40000001,2023-05-12T16:01:09Z,143190.953,"c(""distractor1"", ""distractor2"", ""distractor3"")",Rückhalt,msaada,s,muhula,auwali,kiwimbe,NA,NA,NA,NA,NA,NA,NA,NA,NA,NA,NA,NA,NA,NA,NA,NA,NA,NA,NA,NA,NA,NA,NA
7901b,task,flow.Sequence,1_1_1,NA,NA,completion,10474.981,132685.7,132683.458,132699.893,143174.874,143176.59999999,2023-05-12T16:01:09Z,143190.953,"c(""distractor1"", ""distractor2"", ""distractor3"")",Rückhalt,msaada,s,muhula,auwali,kiwimbe,NA,NA,NA,NA,NA,NA,NA,NA,NA,NA,NA,NA,NA,NA,NA,NA,NA,NA,NA,NA,NA,NA,NA
7901b,Deep Question,html.Page,1_1_2_0_0,NA,NA,form submission,3366.846999997,143176.90000001,143174.874,143190.953,146557.8,146558.3,2023-05-12T16:01:12Z,146571.538,"c(""distractor1"", ""distractor2"", ""distractor3"")",Gesundheit,salama,d,NA,NA,NA,lo,NA,NA,NA,NA,NA,NA,NA,NA,NA,NA,NA,NA,NA,NA,NA,NA,NA,NA,NA,NA,NA,NA
7901b,"""Richtig""-Screen",canvas.Screen,1_1_2_0_1,NA,NA,skipped,NA,146563.8,NA,NA,146557.8,146564.2,2023-05-12T16:01:12Z,146571.538,"c(""distractor1"", ""distractor2"", ""distractor3"")",Gesundheit,salama,d,NA,NA,NA,NA,NA,NA,NA,NA,NA,NA,NA,NA,NA,NA,NA,NA,NA,NA,NA,NA,NA,NA,NA,NA,NA,NA
7901b,"""Falsch""-Screen",canvas.Screen,1_1_2_0_2,NA,NA,timeout,4996.137,146566.2,146554.955,146571.538,151550.808,151552.59999999,2023-05-12T16:01:17Z,151567.675,"c(""distractor1"", ""distractor2"", ""distractor3"")",Gesundheit,salama,d,NA,NA,NA,NA,NA,0,NA,NA,NA,NA,NA,NA,NA,NA,NA,NA,NA,NA,NA,NA,NA,NA,NA,NA,NA,NA
7901b,deep,flow.Sequence,1_1_2_0,NA,NA,completion,8359.855,143176.90000001,143174.874,143190.953,151550.808,151553.40000001,2023-05-12T16:01:17Z,151567.675,"c(""distractor1"", ""distractor2"", ""distractor3"")",Gesundheit,salama,d,NA,NA,NA,NA,NA,NA,NA,NA,NA,NA,NA,NA,NA,NA,NA,NA,NA,NA,NA,NA,NA,NA,NA,NA,NA,NA
7901b,shallow,flow.Sequence,1_1_2_1,NA,NA,skipped,NA,151553.8,NA,NA,151550.808,151554,2023-05-12T16:01:17Z,151567.675,"c(""distractor1"", ""distractor2"", ""distractor3"")",Gesundheit,salama,d,NA,NA,NA,NA,NA,NA,NA,NA,NA,NA,NA,NA,NA,NA,NA,NA,NA,NA,NA,NA,NA,NA,NA,NA,NA,NA
7901b,task,flow.Sequence,1_1_2,NA,NA,completion,8359.855,143176.8,143174.874,143190.953,151550.808,151554.40000001,2023-05-12T16:01:17Z,151567.675,"c(""distractor1"", ""distractor2"", ""distractor3"")",Gesundheit,salama,d,NA,NA,NA,NA,NA,NA,NA,NA,NA,NA,NA,NA,NA,NA,NA,NA,NA,NA,NA,NA,NA,NA,NA,NA,NA,NA
7901b,deep,flow.Sequence,1_1_3_0,NA,NA,skipped,NA,151554.90000001,NA,NA,151550.808,151555.09999999,2023-05-12T16:01:17Z,151567.675,"c(""distractor1"", ""distractor2"", ""distractor3"")",Kritik,lawama,s,dereva,nafasi,mawazo,NA,NA,NA,NA,NA,NA,NA,NA,NA,NA,NA,NA,NA,NA,NA,NA,NA,NA,NA,NA,NA,NA,NA
7901b,Shallow Question,html.Page,1_1_3_1_0,NA,NA,form submission,3818.624999997,151555.5,151550.808,151567.675,155386.3,155386.7,2023-05-12T16:01:21Z,155397.648,"c(""distractor1"", ""distractor2"", ""distractor3"")",Kritik,lawama,s,dereva,nafasi,mawazo,nafasi,NA,NA,NA,NA,NA,NA,NA,NA,NA,NA,NA,NA,NA,NA,NA,NA,NA,NA,NA,NA,NA,NA
7901b,"""Richtig""-Screen",canvas.Screen,1_1_3_1_1,NA,NA,skipped,NA,155391.90000001,NA,NA,155386.3,155392.2,2023-05-12T16:01:21Z,155397.648,"c(""distractor1"", ""distractor2"", ""distractor3"")",Kritik,lawama,s,dereva,nafasi,mawazo,NA,NA,NA,NA,NA,NA,NA,NA,NA,NA,NA,NA,NA,NA,NA,NA,NA,NA,NA,NA,NA,NA,NA
7901b,"""Falsch""-Screen",canvas.Screen,1_1_3_1_2,NA,NA,timeout,4996.367,155394.09999999,155381.468,155397.648,160377.374,160378.3,2023-05-12T16:01:26Z,160394.015,"c(""distractor1"", ""distractor2"", ""distractor3"")",Kritik,lawama,s,dereva,nafasi,mawazo,NA,NA,0,NA,NA,NA,NA,NA,NA,NA,NA,NA,NA,NA,NA,NA,NA,NA,NA,NA,NA,NA,NA
7901b,shallow,flow.Sequence,1_1_3_1,NA,NA,completion,8809.699,151555.40000001,151550.808,151567.675,160377.374,160378.8,2023-05-12T16:01:26Z,160394.015,"c(""distractor1"", ""distractor2"", ""distractor3"")",Kritik,lawama,s,dereva,nafasi,mawazo,NA,NA,NA,NA,NA,NA,NA,NA,NA,NA,NA,NA,NA,NA,NA,NA,NA,NA,NA,NA,NA,NA,NA
7901b,task,flow.Sequence,1_1_3,NA,NA,completion,8809.699,151554.7,151550.808,151567.675,160377.374,160379,2023-05-12T16:01:26Z,160394.015,"c(""distractor1"", ""distractor2"", ""distractor3"")",Kritik,lawama,s,dereva,nafasi,mawazo,NA,NA,NA,NA,NA,NA,NA,NA,NA,NA,NA,NA,NA,NA,NA,NA,NA,NA,NA,NA,NA,NA,NA
7901b,Deep Question,html.Page,1_1_4_0_0,NA,NA,form submission,2808.3850000059,160379.3,160377.374,160394.015,163202.40000001,163202.59999999,2023-05-12T16:01:29Z,163207.791,"c(""distractor1"", ""distractor2"", ""distractor3"")",Qualität,mtindo,d,NA,NA,NA,po,NA,NA,NA,NA,NA,NA,NA,NA,NA,NA,NA,NA,NA,NA,NA,NA,NA,NA,NA,NA,NA,NA
7901b,"""Richtig""-Screen",canvas.Screen,1_1_4_0_1,NA,NA,skipped,NA,163205,NA,NA,163202.40000001,163205.09999999,2023-05-12T16:01:29Z,163207.791,"c(""distractor1"", ""distractor2"", ""distractor3"")",Qualität,mtindo,d,NA,NA,NA,NA,NA,NA,NA,NA,NA,NA,NA,NA,NA,NA,NA,NA,NA,NA,NA,NA,NA,NA,NA,NA,NA,NA
7901b,"""Falsch""-Screen",canvas.Screen,1_1_4_0_2,NA,NA,timeout,4996.367,163206,163191.397,163207.791,168187.187,168189.09999999,2023-05-12T16:01:34Z,168204.158,"c(""distractor1"", ""distractor2"", ""distractor3"")",Qualität,mtindo,d,NA,NA,NA,NA,NA,0,NA,NA,NA,NA,NA,NA,NA,NA,NA,NA,NA,NA,NA,NA,NA,NA,NA,NA,NA,NA
7901b,deep,flow.Sequence,1_1_4_0,NA,NA,completion,7793.172,160379.2,160377.374,160394.015,168187.187,168189.59999999,2023-05-12T16:01:34Z,168204.158,"c(""distractor1"", ""distractor2"", ""distractor3"")",Qualität,mtindo,d,NA,NA,NA,NA,NA,NA,NA,NA,NA,NA,NA,NA,NA,NA,NA,NA,NA,NA,NA,NA,NA,NA,NA,NA,NA,NA
7901b,shallow,flow.Sequence,1_1_4_1,NA,NA,skipped,NA,168189.90000001,NA,NA,168187.187,168190.09999999,2023-05-12T16:01:34Z,168204.158,"c(""distractor1"", ""distractor2"", ""distractor3"")",Qualität,mtindo,d,NA,NA,NA,NA,NA,NA,NA,NA,NA,NA,NA,NA,NA,NA,NA,NA,NA,NA,NA,NA,NA,NA,NA,NA,NA,NA
7901b,task,flow.Sequence,1_1_4,NA,NA,completion,7793.172,160379.09999999,160377.374,160394.015,168187.187,168190.5,2023-05-12T16:01:34Z,168204.158,"c(""distractor1"", ""distractor2"", ""distractor3"")",Qualität,mtindo,d,NA,NA,NA,NA,NA,NA,NA,NA,NA,NA,NA,NA,NA,NA,NA,NA,NA,NA,NA,NA,NA,NA,NA,NA,NA,NA
7901b,deep,flow.Sequence,1_1_5_0,NA,NA,skipped,NA,168190.7,NA,NA,168187.187,168190.8,2023-05-12T16:01:34Z,168204.158,"c(""distractor1"", ""distractor2"", ""distractor3"")",Gegenwart,hadhara,s,katiba,jokofu,mikopo,NA,NA,NA,NA,NA,NA,NA,NA,NA,NA,NA,NA,NA,NA,NA,NA,NA,NA,NA,NA,NA,NA,NA
7901b,Shallow Question,html.Page,1_1_5_1_0,NA,NA,form submission,3718.941999994,168191,168187.187,168204.158,171923.09999999,171923.3,2023-05-12T16:01:38Z,171934.302,"c(""distractor1"", ""distractor2"", ""distractor3"")",Gegenwart,hadhara,s,katiba,jokofu,mikopo,jokofu,NA,NA,NA,NA,NA,NA,NA,NA,NA,NA,NA,NA,NA,NA,NA,NA,NA,NA,NA,NA,NA,NA
7901b,"""Richtig""-Screen",canvas.Screen,1_1_5_1_1,NA,NA,skipped,NA,171925.2,NA,NA,171923.09999999,171925.3,2023-05-12T16:01:38Z,171934.302,"c(""distractor1"", ""distractor2"", ""distractor3"")",Gegenwart,hadhara,s,katiba,jokofu,mikopo,NA,NA,NA,NA,NA,NA,NA,NA,NA,NA,NA,NA,NA,NA,NA,NA,NA,NA,NA,NA,NA,NA,NA
7901b,"""Falsch""-Screen",canvas.Screen,1_1_5_1_2,NA,NA,timeout,4996.132,171925.8,171917.842,171934.302,176913.657,176914.3,2023-05-12T16:01:43Z,176930.434,"c(""distractor1"", ""distractor2"", ""distractor3"")",Gegenwart,hadhara,s,katiba,jokofu,mikopo,NA,NA,0,NA,NA,NA,NA,NA,NA,NA,NA,NA,NA,NA,NA,NA,NA,NA,NA,NA,NA,NA,NA
7901b,shallow,flow.Sequence,1_1_5_1,NA,NA,completion,8709.499,168191,168187.187,168204.158,176913.657,176914.59999999,2023-05-12T16:01:43Z,176930.434,"c(""distractor1"", ""distractor2"", ""distractor3"")",Gegenwart,hadhara,s,katiba,jokofu,mikopo,NA,NA,NA,NA,NA,NA,NA,NA,NA,NA,NA,NA,NA,NA,NA,NA,NA,NA,NA,NA,NA,NA,NA
7901b,task,flow.Sequence,1_1_5,NA,NA,completion,8709.499,168190.7,168187.187,168204.158,176913.657,176914.7,2023-05-12T16:01:43Z,176930.434,"c(""distractor1"", ""distractor2"", ""distractor3"")",Gegenwart,hadhara,s,katiba,jokofu,mikopo,NA,NA,NA,NA,NA,NA,NA,NA,NA,NA,NA,NA,NA,NA,NA,NA,NA,NA,NA,NA,NA,NA,NA
7901b,block,flow.Loop,1_1,NA,NA,completion,55287.661,121612.3,121608.344,121625.996,176913.657,176914.90000001,2023-05-12T16:01:43Z,176930.434,"c(""distractor1"", ""distractor2"", ""distractor3"")",NA,NA,NA,NA,NA,NA,NA,NA,NA,NA,NA,NA,NA,NA,NA,NA,NA,NA,NA,NA,NA,NA,NA,NA,NA,NA,NA,NA,NA
7901b,Practice,flow.Sequence,1,NA,NA,completion,62149.294,114767.40000001,114758.463,114764.363,176913.657,176915.09999999,2023-05-12T16:01:43Z,176930.434,NULL,NA,NA,NA,NA,NA,NA,NA,NA,NA,NA,NA,NA,NA,NA,NA,NA,NA,NA,NA,NA,NA,NA,NA,NA,NA,NA,NA,NA,NA
7901b,Experiment start,canvas.Screen,2,weiter,keypress(q),response,7823.865999997,176915.2,176913.657,176930.434,184754.3,184755.40000001,2023-05-12T16:01:50Z,184840.174,NULL,NA,NA,NA,NA,NA,NA,NA,NA,NA,NA,NA,NA,NA,NA,NA,NA,NA,NA,NA,NA,NA,NA,NA,NA,NA,NA,NA,NA,NA
7901b,deep,flow.Sequence,3_0_0_0_0_0,NA,NA,skipped,NA,184828.7,NA,NA,184754.3,184828.8,2023-05-12T16:01:50Z,184840.174,NULL,Lawine,banguko,s,maambukizi,usuluhishi,chekechea,NA,sdf,NA,0,NA,NA,NA,NA,NA,NA,NA,NA,NA,NA,NA,NA,NA,NA,NA,NA,NA,NA,NA
7901b,Shallow Question,html.Page,3_0_0_0_0_1_0,NA,NA,form submission,5939.226000006,184828.90000001,184823.338,184840.174,190779.40000001,190779.59999999,2023-05-12T16:01:56Z,190785.095,NULL,Lawine,banguko,s,maambukizi,usuluhishi,chekechea,chekechea,NA,NA,0,NA,NA,NA,NA,NA,NA,NA,NA,NA,NA,NA,NA,NA,NA,NA,NA,NA,NA,NA
7901b,"""Richtig""-Screen",canvas.Screen,3_0_0_0_0_1_1,NA,NA,skipped,NA,190781.40000001,NA,NA,190779.40000001,190781.5,2023-05-12T16:01:56Z,190785.095,NULL,Lawine,banguko,s,maambukizi,usuluhishi,chekechea,NA,sdf,NA,0,NA,NA,NA,NA,NA,NA,NA,NA,NA,NA,NA,NA,NA,NA,NA,NA,NA,NA,NA
7901b,"""Falsch""-Screen",canvas.Screen,3_0_0_0_0_1_2,NA,NA,timeout,4996.072,190782,190768.925,190785.095,195764.934,195765.7,2023-05-12T16:02:01Z,195781.167,NULL,Lawine,banguko,s,maambukizi,usuluhishi,chekechea,NA,sdf,0,0,NA,NA,NA,NA,NA,NA,NA,NA,NA,NA,NA,NA,NA,NA,NA,NA,NA,NA,NA
7901b,shallow,flow.Sequence,3_0_0_0_0_1,NA,NA,completion,10924.76,184828.90000001,184823.338,184840.174,195764.934,195766.2,2023-05-12T16:02:01Z,195781.167,NULL,Lawine,banguko,s,maambukizi,usuluhishi,chekechea,NA,sdf,NA,0,NA,NA,NA,NA,NA,NA,NA,NA,NA,NA,NA,NA,NA,NA,NA,NA,NA,NA,NA
7901b,task,flow.Sequence,3_0_0_0_0,NA,NA,completion,10924.76,184828.7,184823.338,184840.174,195764.934,195766.5,2023-05-12T16:02:01Z,195781.167,NULL,Lawine,banguko,s,maambukizi,usuluhishi,chekechea,NA,sdf,NA,0,NA,NA,NA,NA,NA,NA,NA,NA,NA,NA,NA,NA,NA,NA,NA,NA,NA,NA,NA
7901b,deep,flow.Sequence,3_0_0_0_1_0,NA,NA,skipped,NA,195766.59999999,NA,NA,195764.934,195766.90000001,2023-05-12T16:02:01Z,195781.167,NULL,Niveau,kiwango,s,usimamizi,mwamali,mshairi,NA,sdf,NA,0,NA,NA,NA,NA,NA,NA,NA,NA,NA,NA,NA,NA,NA,NA,NA,NA,NA,NA,NA
7901b,Shallow Question,html.Page,3_0_0_0_1_1_0,NA,NA,form submission,3372.132999997,195767,195764.934,195781.167,199153.3,199153.40000001,2023-05-12T16:02:05Z,199161.717,NULL,Niveau,kiwango,s,usimamizi,mwamali,mshairi,kiwango,NA,NA,0,NA,NA,NA,NA,NA,NA,NA,NA,NA,NA,NA,NA,NA,NA,NA,NA,NA,NA,NA
7901b,"""Richtig""-Screen",canvas.Screen,3_0_0_0_1_1_1,NA,NA,timeout,4996.353,199155.40000001,199145.114,199161.717,204141.379,204142.40000001,2023-05-12T16:02:10Z,204158.07,NULL,Niveau,kiwango,s,usimamizi,mwamali,mshairi,NA,sdf,1,0,NA,NA,NA,NA,NA,NA,NA,NA,NA,NA,NA,NA,NA,NA,NA,NA,NA,NA,NA
7901b,"""Falsch""-Screen",canvas.Screen,3_0_0_0_1_1_2,NA,NA,skipped,NA,204145.5,NA,NA,204141.379,204145.59999999,2023-05-12T16:02:10Z,204158.07,NULL,Niveau,kiwango,s,usimamizi,mwamali,mshairi,NA,sdf,NA,0,NA,NA,NA,NA,NA,NA,NA,NA,NA,NA,NA,NA,NA,NA,NA,NA,NA,NA,NA
7901b,shallow,flow.Sequence,3_0_0_0_1_1,NA,NA,completion,8360.212,195767,195764.934,195781.167,204141.379,204145.7,2023-05-12T16:02:10Z,204158.07,NULL,Niveau,kiwango,s,usimamizi,mwamali,mshairi,NA,sdf,NA,0,NA,NA,NA,NA,NA,NA,NA,NA,NA,NA,NA,NA,NA,NA,NA,NA,NA,NA,NA
7901b,task,flow.Sequence,3_0_0_0_1,NA,NA,completion,8360.212,195766.59999999,195764.934,195781.167,204141.379,204145.8,2023-05-12T16:02:10Z,204158.07,NULL,Niveau,kiwango,s,usimamizi,mwamali,mshairi,NA,sdf,NA,0,NA,NA,NA,NA,NA,NA,NA,NA,NA,NA,NA,NA,NA,NA,NA,NA,NA,NA,NA
7901b,deep,flow.Sequence,3_0_0_0_2_0,NA,NA,skipped,NA,204145.8,NA,NA,204141.379,204145.8,2023-05-12T16:02:10Z,204158.07,NULL,Papier,karatasi,s,uchambuzi,usalama,kukataliwa,NA,sdf,NA,0,NA,NA,NA,NA,NA,NA,NA,NA,NA,NA,NA,NA,NA,NA,NA,NA,NA,NA,NA
7901b,Shallow Question,html.Page,3_0_0_0_2_1_0,NA,NA,form submission,2435.43,204145.8,204141.379,204158.07,206593.5,206593.59999999,2023-05-12T16:02:12Z,206606.04,NULL,Papier,karatasi,s,uchambuzi,usalama,kukataliwa,karatasi,NA,NA,0,NA,NA,NA,NA,NA,NA,NA,NA,NA,NA,NA,NA,NA,NA,NA,NA,NA,NA,NA
7901b,"""Richtig""-Screen",canvas.Screen,3_0_0_0_2_1_1,NA,NA,timeout,4995.669,206594.2,206588.975,206606.04,211585.072,211585.90000001,2023-05-12T16:02:17Z,211601.709,NULL,Papier,karatasi,s,uchambuzi,usalama,kukataliwa,NA,sdf,1,0,NA,NA,NA,NA,NA,NA,NA,NA,NA,NA,NA,NA,NA,NA,NA,NA,NA,NA,NA
7901b,"""Falsch""-Screen",canvas.Screen,3_0_0_0_2_1_2,NA,NA,skipped,NA,211589.7,NA,NA,211585.072,211589.8,2023-05-12T16:02:17Z,211601.709,NULL,Papier,karatasi,s,uchambuzi,usalama,kukataliwa,NA,sdf,NA,0,NA,NA,NA,NA,NA,NA,NA,NA,NA,NA,NA,NA,NA,NA,NA,NA,NA,NA,NA
7901b,shallow,flow.Sequence,3_0_0_0_2_1,NA,NA,completion,7427.002,204145.8,204141.379,204158.07,211585.072,211589.90000001,2023-05-12T16:02:17Z,211601.709,NULL,Papier,karatasi,s,uchambuzi,usalama,kukataliwa,NA,sdf,NA,0,NA,NA,NA,NA,NA,NA,NA,NA,NA,NA,NA,NA,NA,NA,NA,NA,NA,NA,NA
7901b,task,flow.Sequence,3_0_0_0_2,NA,NA,completion,7427.002,204145.8,204141.379,204158.07,211585.072,211589.90000001,2023-05-12T16:02:17Z,211601.709,NULL,Papier,karatasi,s,uchambuzi,usalama,kukataliwa,NA,sdf,NA,0,NA,NA,NA,NA,NA,NA,NA,NA,NA,NA,NA,NA,NA,NA,NA,NA,NA,NA,NA
7901b,Deep Question,html.Page,3_0_0_0_3_0_0,NA,NA,form submission,2986.291,211590,211585.072,211601.709,214588,214588.2,2023-05-12T16:02:20Z,214599.321,NULL,Körper,kiwiliwili,d,NA,NA,NA,co,NA,NA,0,NA,NA,NA,NA,NA,NA,NA,NA,NA,NA,NA,NA,NA,NA,NA,NA,NA,NA,NA
7901b,"""Richtig""-Screen",canvas.Screen,3_0_0_0_3_0_1,NA,NA,skipped,NA,214588.90000001,NA,NA,214588,214589.09999999,2023-05-12T16:02:20Z,214599.321,NULL,Körper,kiwiliwili,d,NA,NA,NA,NA,sdf,NA,0,NA,NA,NA,NA,NA,NA,NA,NA,NA,NA,NA,NA,NA,NA,NA,NA,NA,NA,NA
7901b,"""Falsch""-Screen",canvas.Screen,3_0_0_0_3_0_2,NA,NA,timeout,4996.01,214589.5,214582.542,214599.321,219578.924,219579.40000001,2023-05-12T16:02:25Z,219595.331,NULL,Körper,kiwiliwili,d,NA,NA,NA,NA,sdf,0,0,NA,NA,NA,NA,NA,NA,NA,NA,NA,NA,NA,NA,NA,NA,NA,NA,NA,NA,NA
7901b,deep,flow.Sequence,3_0_0_0_3_0,NA,NA,completion,7977.215,211590,211585.072,211601.709,219578.924,219579.5,2023-05-12T16:02:25Z,219595.331,NULL,Körper,kiwiliwili,d,NA,NA,NA,NA,sdf,NA,0,NA,NA,NA,NA,NA,NA,NA,NA,NA,NA,NA,NA,NA,NA,NA,NA,NA,NA,NA
7901b,shallow,flow.Sequence,3_0_0_0_3_1,NA,NA,skipped,NA,219579.5,NA,NA,219578.924,219579.59999999,2023-05-12T16:02:25Z,219595.331,NULL,Körper,kiwiliwili,d,NA,NA,NA,NA,sdf,NA,0,NA,NA,NA,NA,NA,NA,NA,NA,NA,NA,NA,NA,NA,NA,NA,NA,NA,NA,NA
7901b,task,flow.Sequence,3_0_0_0_3,NA,NA,completion,7977.215,211590,211585.072,211601.709,219578.924,219579.7,2023-05-12T16:02:25Z,219595.331,NULL,Körper,kiwiliwili,d,NA,NA,NA,NA,sdf,NA,0,NA,NA,NA,NA,NA,NA,NA,NA,NA,NA,NA,NA,NA,NA,NA,NA,NA,NA,NA
7901b,Deep Question,html.Page,3_0_0_0_4_0_0,NA,NA,form submission,2845.768999994,219579.8,219578.924,219595.331,222441.09999999,222441.2,2023-05-12T16:02:28Z,222442.351,NULL,Entwicklung,maendeleo,d,NA,NA,NA,l,NA,NA,0,NA,NA,NA,NA,NA,NA,NA,NA,NA,NA,NA,NA,NA,NA,NA,NA,NA,NA,NA
7901b,"""Richtig""-Screen",canvas.Screen,3_0_0_0_4_0_1,NA,NA,skipped,NA,222443.8,NA,NA,222441.09999999,222443.90000001,2023-05-12T16:02:28Z,222442.351,NULL,Entwicklung,maendeleo,d,NA,NA,NA,NA,sdf,NA,0,NA,NA,NA,NA,NA,NA,NA,NA,NA,NA,NA,NA,NA,NA,NA,NA,NA,NA,NA
7901b,"""Falsch""-Screen",canvas.Screen,3_0_0_0_4_0_2,NA,NA,timeout,4996.391,222444.5,222425.77,222442.351,227421.885,227422.90000001,2023-05-12T16:02:33Z,227438.742,NULL,Entwicklung,maendeleo,d,NA,NA,NA,NA,sdf,0,0,NA,NA,NA,NA,NA,NA,NA,NA,NA,NA,NA,NA,NA,NA,NA,NA,NA,NA,NA
7901b,deep,flow.Sequence,3_0_0_0_4_0,NA,NA,completion,7826.554,219579.8,219578.924,219595.331,227421.885,227423.3,2023-05-12T16:02:33Z,227438.742,NULL,Entwicklung,maendeleo,d,NA,NA,NA,NA,sdf,NA,0,NA,NA,NA,NA,NA,NA,NA,NA,NA,NA,NA,NA,NA,NA,NA,NA,NA,NA,NA
7901b,shallow,flow.Sequence,3_0_0_0_4_1,NA,NA,skipped,NA,227423.40000001,NA,NA,227421.885,227423.59999999,2023-05-12T16:02:33Z,227438.742,NULL,Entwicklung,maendeleo,d,NA,NA,NA,NA,sdf,NA,0,NA,NA,NA,NA,NA,NA,NA,NA,NA,NA,NA,NA,NA,NA,NA,NA,NA,NA,NA
7901b,task,flow.Sequence,3_0_0_0_4,NA,NA,completion,7826.554,219579.8,219578.924,219595.331,227421.885,227423.8,2023-05-12T16:02:33Z,227438.742,NULL,Entwicklung,maendeleo,d,NA,NA,NA,NA,sdf,NA,0,NA,NA,NA,NA,NA,NA,NA,NA,NA,NA,NA,NA,NA,NA,NA,NA,NA,NA,NA
7901b,Deep Question,html.Page,3_0_0_0_5_0_0,NA,NA,form submission,2424.857999994,227424,227421.885,227438.742,229863.59999999,229863.7,2023-05-12T16:02:35Z,229886.894,NULL,Übersicht,kilindo,d,NA,NA,NA,lo,NA,NA,0,NA,NA,NA,NA,NA,NA,NA,NA,NA,NA,NA,NA,NA,NA,NA,NA,NA,NA,NA
7901b,"""Richtig""-Screen",canvas.Screen,3_0_0_0_5_0_1,NA,NA,skipped,NA,229865.5,NA,NA,229863.59999999,229865.7,2023-05-12T16:02:35Z,229886.894,NULL,Übersicht,kilindo,d,NA,NA,NA,NA,sdf,NA,0,NA,NA,NA,NA,NA,NA,NA,NA,NA,NA,NA,NA,NA,NA,NA,NA,NA,NA,NA
7901b,"""Falsch""-Screen",canvas.Screen,3_0_0_0_5_0_2,NA,NA,timeout,4995.249,229866.09999999,229870.031,229886.894,234866.189,234866.8,2023-05-12T16:02:40Z,234882.143,NULL,Übersicht,kilindo,d,NA,NA,NA,NA,sdf,0,0,NA,NA,NA,NA,NA,NA,NA,NA,NA,NA,NA,NA,NA,NA,NA,NA,NA,NA,NA
7901b,deep,flow.Sequence,3_0_0_0_5_0,NA,NA,completion,7427.447,227424,227421.885,227438.742,234866.189,234866.8,2023-05-12T16:02:40Z,234882.143,NULL,Übersicht,kilindo,d,NA,NA,NA,NA,sdf,NA,0,NA,NA,NA,NA,NA,NA,NA,NA,NA,NA,NA,NA,NA,NA,NA,NA,NA,NA,NA
7901b,shallow,flow.Sequence,3_0_0_0_5_1,NA,NA,skipped,NA,234867,NA,NA,234866.189,234867,2023-05-12T16:02:40Z,234882.143,NULL,Übersicht,kilindo,d,NA,NA,NA,NA,sdf,NA,0,NA,NA,NA,NA,NA,NA,NA,NA,NA,NA,NA,NA,NA,NA,NA,NA,NA,NA,NA
7901b,task,flow.Sequence,3_0_0_0_5,NA,NA,completion,7427.447,227423.90000001,227421.885,227438.742,234866.189,234867.09999999,2023-05-12T16:02:40Z,234882.143,NULL,Übersicht,kilindo,d,NA,NA,NA,NA,sdf,NA,0,NA,NA,NA,NA,NA,NA,NA,NA,NA,NA,NA,NA,NA,NA,NA,NA,NA,NA,NA
7901b,Deep Question,html.Page,3_0_0_0_6_0_0,NA,NA,form submission,2097.557000003,234867.2,234866.189,234882.143,236979.7,236979.8,2023-05-12T16:02:43Z,236997.303,NULL,Vorwurf,mashtaka,d,NA,NA,NA,h,NA,NA,0,NA,NA,NA,NA,NA,NA,NA,NA,NA,NA,NA,NA,NA,NA,NA,NA,NA,NA,NA
7901b,"""Richtig""-Screen",canvas.Screen,3_0_0_0_6_0_1,NA,NA,skipped,NA,236982.40000001,NA,NA,236979.7,236982.5,2023-05-12T16:02:43Z,236997.303,NULL,Vorwurf,mashtaka,d,NA,NA,NA,NA,sdf,NA,0,NA,NA,NA,NA,NA,NA,NA,NA,NA,NA,NA,NA,NA,NA,NA,NA,NA,NA,NA
7901b,"""Falsch""-Screen",canvas.Screen,3_0_0_0_6_0_2,NA,NA,timeout,4995.976,236983.40000001,236980.353,236997.303,241976.714,241977.7,2023-05-12T16:02:48Z,241993.279,NULL,Vorwurf,mashtaka,d,NA,NA,NA,NA,sdf,0,0,NA,NA,NA,NA,NA,NA,NA,NA,NA,NA,NA,NA,NA,NA,NA,NA,NA,NA,NA
7901b,deep,flow.Sequence,3_0_0_0_6_0,NA,NA,completion,7094.571,234867.09999999,234866.189,234882.143,241976.714,241978.2,2023-05-12T16:02:48Z,241993.279,NULL,Vorwurf,mashtaka,d,NA,NA,NA,NA,sdf,NA,0,NA,NA,NA,NA,NA,NA,NA,NA,NA,NA,NA,NA,NA,NA,NA,NA,NA,NA,NA
7901b,shallow,flow.Sequence,3_0_0_0_6_1,NA,NA,skipped,NA,241978.40000001,NA,NA,241976.714,241978.59999999,2023-05-12T16:02:48Z,241993.279,NULL,Vorwurf,mashtaka,d,NA,NA,NA,NA,sdf,NA,0,NA,NA,NA,NA,NA,NA,NA,NA,NA,NA,NA,NA,NA,NA,NA,NA,NA,NA,NA
7901b,task,flow.Sequence,3_0_0_0_6,NA,NA,completion,7094.571,234867.09999999,234866.189,234882.143,241976.714,241978.90000001,2023-05-12T16:02:48Z,241993.279,NULL,Vorwurf,mashtaka,d,NA,NA,NA,NA,sdf,NA,0,NA,NA,NA,NA,NA,NA,NA,NA,NA,NA,NA,NA,NA,NA,NA,NA,NA,NA,NA
7901b,deep,flow.Sequence,3_0_0_0_7_0,NA,NA,skipped,NA,241979,NA,NA,241976.714,241979.2,2023-05-12T16:02:48Z,241993.279,NULL,System,maongozi,s,chokochoko,nuksani,mitaani,NA,sdf,NA,0,NA,NA,NA,NA,NA,NA,NA,NA,NA,NA,NA,NA,NA,NA,NA,NA,NA,NA,NA
7901b,Shallow Question,html.Page,3_0_0_0_7_1_0,NA,NA,form submission,2764.221,241979.3,241976.714,241993.279,244757.5,244757.8,2023-05-12T16:02:50Z,244774.649,NULL,System,maongozi,s,chokochoko,nuksani,mitaani,maongozi,NA,NA,0,NA,NA,NA,NA,NA,NA,NA,NA,NA,NA,NA,NA,NA,NA,NA,NA,NA,NA,NA
7901b,"""Richtig""-Screen",canvas.Screen,3_0_0_0_7_1_1,NA,NA,timeout,4995.298,244759.7,244741.286,244774.649,249753.27,249754.7,2023-05-12T16:02:55Z,249769.947,NULL,System,maongozi,s,chokochoko,nuksani,mitaani,NA,sdf,1,0,NA,NA,NA,NA,NA,NA,NA,NA,NA,NA,NA,NA,NA,NA,NA,NA,NA,NA,NA
7901b,"""Falsch""-Screen",canvas.Screen,3_0_0_0_7_1_2,NA,NA,skipped,NA,249760.5,NA,NA,249753.27,249760.8,2023-05-12T16:02:55Z,249769.947,NULL,System,maongozi,s,chokochoko,nuksani,mitaani,NA,sdf,NA,0,NA,NA,NA,NA,NA,NA,NA,NA,NA,NA,NA,NA,NA,NA,NA,NA,NA,NA,NA
7901b,shallow,flow.Sequence,3_0_0_0_7_1,NA,NA,completion,7759.991,241979.2,241976.714,241993.279,249753.27,249761.09999999,2023-05-12T16:02:55Z,249769.947,NULL,System,maongozi,s,chokochoko,nuksani,mitaani,NA,sdf,NA,0,NA,NA,NA,NA,NA,NA,NA,NA,NA,NA,NA,NA,NA,NA,NA,NA,NA,NA,NA
7901b,task,flow.Sequence,3_0_0_0_7,NA,NA,completion,7759.991,241979,241976.714,241993.279,249753.27,249761.40000001,2023-05-12T16:02:55Z,249769.947,NULL,System,maongozi,s,chokochoko,nuksani,mitaani,NA,sdf,NA,0,NA,NA,NA,NA,NA,NA,NA,NA,NA,NA,NA,NA,NA,NA,NA,NA,NA,NA,NA
7901b,block,flow.Loop,3_0_0_0,NA,NA,completion,64913.096,184828.7,184823.338,184840.174,249753.27,249761.59999999,2023-05-12T16:02:55Z,249769.947,NULL,NA,NA,NA,NA,NA,NA,NA,sdf,NA,0,NA,NA,NA,NA,NA,NA,NA,NA,NA,NA,NA,NA,NA,NA,NA,NA,NA,NA,NA
7901b,weiter,canvas.Screen,3_0_0_1,sdf,keypress(Space),response,1051.352999997,249761.8,249753.27,249769.947,250821.3,250822.40000001,2023-05-12T16:02:56Z,250869.747,NULL,NA,NA,NA,NA,NA,NA,NA,sdf,NA,0,NA,NA,NA,NA,NA,NA,NA,NA,NA,NA,NA,NA,NA,NA,NA,NA,NA,NA,NA
7901b,check continue,flow.Sequence,3_0_0,NA,NA,completion,65981.125999997,184828.59999999,184823.338,184840.174,250821.3,250822.7,2023-05-12T16:02:56Z,250869.747,NULL,NA,NA,NA,NA,NA,NA,NA,sdf,NA,0,NA,NA,NA,NA,NA,NA,NA,NA,NA,NA,NA,NA,NA,NA,NA,NA,NA,NA,NA
7901b,Deep Question,html.Page,3_0_1_0_0_0_0,NA,NA,form submission,5208.453000003,250854.8,250852.857,250869.747,256078.2,256078.40000001,2023-05-12T16:03:02Z,256081.31,NULL,Übersicht,kilindo,d,NA,NA,NA,kiviliwili,NA,NA,1,NA,NA,NA,NA,NA,NA,NA,NA,NA,NA,NA,NA,NA,NA,NA,NA,NA,NA,NA
7901b,"""Richtig""-Screen",canvas.Screen,3_0_1_0_0_0_1,NA,NA,skipped,NA,256080.3,NA,NA,256078.2,256080.40000001,2023-05-12T16:03:02Z,256081.31,NULL,Übersicht,kilindo,d,NA,NA,NA,NA,sdfdsf,NA,1,NA,NA,NA,NA,NA,NA,NA,NA,NA,NA,NA,NA,NA,NA,NA,NA,NA,NA,NA
7901b,"""Falsch""-Screen",canvas.Screen,3_0_1_0_0_0_2,NA,NA,timeout,4996.534,256081,256064.746,256081.31,261060.647,261062.3,2023-05-12T16:03:07Z,261077.844,NULL,Übersicht,kilindo,d,NA,NA,NA,NA,sdfdsf,0,1,NA,NA,NA,NA,NA,NA,NA,NA,NA,NA,NA,NA,NA,NA,NA,NA,NA,NA,NA
7901b,deep,flow.Sequence,3_0_1_0_0_0,NA,NA,completion,10190.9,250854.8,250852.857,250869.747,261060.647,261062.90000001,2023-05-12T16:03:07Z,261077.844,NULL,Übersicht,kilindo,d,NA,NA,NA,NA,sdfdsf,NA,1,NA,NA,NA,NA,NA,NA,NA,NA,NA,NA,NA,NA,NA,NA,NA,NA,NA,NA,NA
7901b,shallow,flow.Sequence,3_0_1_0_0_1,NA,NA,skipped,NA,261063,NA,NA,261060.647,261063.3,2023-05-12T16:03:07Z,261077.844,NULL,Übersicht,kilindo,d,NA,NA,NA,NA,sdfdsf,NA,1,NA,NA,NA,NA,NA,NA,NA,NA,NA,NA,NA,NA,NA,NA,NA,NA,NA,NA,NA
7901b,task,flow.Sequence,3_0_1_0_0,NA,NA,completion,10190.9,250854.7,250852.857,250869.747,261060.647,261063.5,2023-05-12T16:03:07Z,261077.844,NULL,Übersicht,kilindo,d,NA,NA,NA,NA,sdfdsf,NA,1,NA,NA,NA,NA,NA,NA,NA,NA,NA,NA,NA,NA,NA,NA,NA,NA,NA,NA,NA
7901b,deep,flow.Sequence,3_0_1_0_1_0,NA,NA,skipped,NA,261063.8,NA,NA,261060.647,261064,2023-05-12T16:03:07Z,261077.844,NULL,System,maongozi,s,chokochoko,nuksani,mitaani,NA,sdfdsf,NA,1,NA,NA,NA,NA,NA,NA,NA,NA,NA,NA,NA,NA,NA,NA,NA,NA,NA,NA,NA
7901b,Shallow Question,html.Page,3_0_1_0_1_1_0,NA,NA,form submission,3005.656,261064.09999999,261060.647,261077.844,264083.5,264083.59999999,2023-05-12T16:03:10Z,264091.65,NULL,System,maongozi,s,chokochoko,nuksani,mitaani,maongozi,NA,NA,1,NA,NA,NA,NA,NA,NA,NA,NA,NA,NA,NA,NA,NA,NA,NA,NA,NA,NA,NA
7901b,"""Richtig""-Screen",canvas.Screen,3_0_1_0_1_1_1,NA,NA,timeout,4995.949,264085.5,264074.913,264091.65,269071.238,269072.09999999,2023-05-12T16:03:15Z,269087.599,NULL,System,maongozi,s,chokochoko,nuksani,mitaani,NA,sdfdsf,1,1,NA,NA,NA,NA,NA,NA,NA,NA,NA,NA,NA,NA,NA,NA,NA,NA,NA,NA,NA
7901b,"""Falsch""-Screen",canvas.Screen,3_0_1_0_1_1_2,NA,NA,skipped,NA,269076.2,NA,NA,269071.238,269076.40000001,2023-05-12T16:03:15Z,269087.599,NULL,System,maongozi,s,chokochoko,nuksani,mitaani,NA,sdfdsf,NA,1,NA,NA,NA,NA,NA,NA,NA,NA,NA,NA,NA,NA,NA,NA,NA,NA,NA,NA,NA
7901b,shallow,flow.Sequence,3_0_1_0_1_1,NA,NA,completion,7993.394,261064,261060.647,261077.844,269071.238,269076.40000001,2023-05-12T16:03:15Z,269087.599,NULL,System,maongozi,s,chokochoko,nuksani,mitaani,NA,sdfdsf,NA,1,NA,NA,NA,NA,NA,NA,NA,NA,NA,NA,NA,NA,NA,NA,NA,NA,NA,NA,NA
7901b,task,flow.Sequence,3_0_1_0_1,NA,NA,completion,7993.394,261063.7,261060.647,261077.844,269071.238,269076.59999999,2023-05-12T16:03:15Z,269087.599,NULL,System,maongozi,s,chokochoko,nuksani,mitaani,NA,sdfdsf,NA,1,NA,NA,NA,NA,NA,NA,NA,NA,NA,NA,NA,NA,NA,NA,NA,NA,NA,NA,NA
7901b,deep,flow.Sequence,3_0_1_0_2_0,NA,NA,skipped,NA,269076.7,NA,NA,269071.238,269076.7,2023-05-12T16:03:15Z,269087.599,NULL,Niveau,kiwango,s,usimamizi,mwamali,mshairi,NA,sdfdsf,NA,1,NA,NA,NA,NA,NA,NA,NA,NA,NA,NA,NA,NA,NA,NA,NA,NA,NA,NA,NA
7901b,Shallow Question,html.Page,3_0_1_0_2_1_0,NA,NA,form submission,2525.801000006,269076.7,269071.238,269087.599,271613.40000001,271613.59999999,2023-05-12T16:03:17Z,271618.846,NULL,Niveau,kiwango,s,usimamizi,mwamali,mshairi,kiwango,NA,NA,1,NA,NA,NA,NA,NA,NA,NA,NA,NA,NA,NA,NA,NA,NA,NA,NA,NA,NA,NA
7901b,"""Richtig""-Screen",canvas.Screen,3_0_1_0_2_1_1,NA,NA,timeout,4995.653,271614.2,271602.53,271618.846,276597.903,276598.90000001,2023-05-12T16:03:22Z,276614.499,NULL,Niveau,kiwango,s,usimamizi,mwamali,mshairi,NA,sdfdsf,1,1,NA,NA,NA,NA,NA,NA,NA,NA,NA,NA,NA,NA,NA,NA,NA,NA,NA,NA,NA
7901b,"""Falsch""-Screen",canvas.Screen,3_0_1_0_2_1_2,NA,NA,skipped,NA,276604.09999999,NA,NA,276597.903,276604.40000001,2023-05-12T16:03:22Z,276614.499,NULL,Niveau,kiwango,s,usimamizi,mwamali,mshairi,NA,sdfdsf,NA,1,NA,NA,NA,NA,NA,NA,NA,NA,NA,NA,NA,NA,NA,NA,NA,NA,NA,NA,NA
7901b,shallow,flow.Sequence,3_0_1_0_2_1,NA,NA,completion,7510.304,269076.7,269071.238,269087.599,276597.903,276604.59999999,2023-05-12T16:03:22Z,276614.499,NULL,Niveau,kiwango,s,usimamizi,mwamali,mshairi,NA,sdfdsf,NA,1,NA,NA,NA,NA,NA,NA,NA,NA,NA,NA,NA,NA,NA,NA,NA,NA,NA,NA,NA
7901b,task,flow.Sequence,3_0_1_0_2,NA,NA,completion,7510.304,269076.7,269071.238,269087.599,276597.903,276604.90000001,2023-05-12T16:03:22Z,276614.499,NULL,Niveau,kiwango,s,usimamizi,mwamali,mshairi,NA,sdfdsf,NA,1,NA,NA,NA,NA,NA,NA,NA,NA,NA,NA,NA,NA,NA,NA,NA,NA,NA,NA,NA
7901b,Deep Question,html.Page,3_0_1_0_3_0_0,NA,NA,form submission,6679.300999997,276605.09999999,276597.903,276614.499,283293.8,283294,2023-05-12T16:03:29Z,283309.678,NULL,Vorwurf,mashtaka,d,NA,NA,NA,k,NA,NA,1,NA,NA,NA,NA,NA,NA,NA,NA,NA,NA,NA,NA,NA,NA,NA,NA,NA,NA,NA
7901b,"""Richtig""-Screen",canvas.Screen,3_0_1_0_3_0_1,NA,NA,skipped,NA,283296.3,NA,NA,283293.8,283296.5,2023-05-12T16:03:29Z,283309.678,NULL,Vorwurf,mashtaka,d,NA,NA,NA,NA,sdfdsf,NA,1,NA,NA,NA,NA,NA,NA,NA,NA,NA,NA,NA,NA,NA,NA,NA,NA,NA,NA,NA
7901b,"""Falsch""-Screen",canvas.Screen,3_0_1_0_3_0_2,NA,NA,timeout,4995.212,283297.3,283292.307,283309.678,288288.382,288289.40000001,2023-05-12T16:03:34Z,288304.89,NULL,Vorwurf,mashtaka,d,NA,NA,NA,NA,sdfdsf,0,1,NA,NA,NA,NA,NA,NA,NA,NA,NA,NA,NA,NA,NA,NA,NA,NA,NA,NA,NA
7901b,deep,flow.Sequence,3_0_1_0_3_0,NA,NA,completion,11673.883,276605.09999999,276597.903,276614.499,288288.382,288289.7,2023-05-12T16:03:34Z,288304.89,NULL,Vorwurf,mashtaka,d,NA,NA,NA,NA,sdfdsf,NA,1,NA,NA,NA,NA,NA,NA,NA,NA,NA,NA,NA,NA,NA,NA,NA,NA,NA,NA,NA
7901b,shallow,flow.Sequence,3_0_1_0_3_1,NA,NA,skipped,NA,288289.90000001,NA,NA,288288.382,288290.09999999,2023-05-12T16:03:34Z,288304.89,NULL,Vorwurf,mashtaka,d,NA,NA,NA,NA,sdfdsf,NA,1,NA,NA,NA,NA,NA,NA,NA,NA,NA,NA,NA,NA,NA,NA,NA,NA,NA,NA,NA
7901b,task,flow.Sequence,3_0_1_0_3,NA,NA,completion,11673.883,276605,276597.903,276614.499,288288.382,288290.3,2023-05-12T16:03:34Z,288304.89,NULL,Vorwurf,mashtaka,d,NA,NA,NA,NA,sdfdsf,NA,1,NA,NA,NA,NA,NA,NA,NA,NA,NA,NA,NA,NA,NA,NA,NA,NA,NA,NA,NA
7901b,Deep Question,html.Page,3_0_1_0_4_0_0,NA,NA,form submission,7677.709999994,288290.59999999,288288.382,288304.89,295982.59999999,295982.8,2023-05-12T16:03:42Z,295999.223,NULL,Körper,kiwiliwili,d,NA,NA,NA,kivilivili,NA,NA,1,NA,NA,NA,NA,NA,NA,NA,NA,NA,NA,NA,NA,NA,NA,NA,NA,NA,NA,NA
7901b,"""Richtig""-Screen",canvas.Screen,3_0_1_0_4_0_1,NA,NA,skipped,NA,295985,NA,NA,295982.59999999,295985.2,2023-05-12T16:03:42Z,295999.223,NULL,Körper,kiwiliwili,d,NA,NA,NA,NA,sdfdsf,NA,1,NA,NA,NA,NA,NA,NA,NA,NA,NA,NA,NA,NA,NA,NA,NA,NA,NA,NA,NA
7901b,"""Falsch""-Screen",canvas.Screen,3_0_1_0_4_0_2,NA,NA,timeout,4995.736,295985.7,295965.742,295999.223,300978.294,300979.3,2023-05-12T16:03:47Z,300994.959,NULL,Körper,kiwiliwili,d,NA,NA,NA,NA,sdfdsf,0,1,NA,NA,NA,NA,NA,NA,NA,NA,NA,NA,NA,NA,NA,NA,NA,NA,NA,NA,NA
7901b,deep,flow.Sequence,3_0_1_0_4_0,NA,NA,completion,12673.404,288290.5,288288.382,288304.89,300978.294,300979.59999999,2023-05-12T16:03:47Z,300994.959,NULL,Körper,kiwiliwili,d,NA,NA,NA,NA,sdfdsf,NA,1,NA,NA,NA,NA,NA,NA,NA,NA,NA,NA,NA,NA,NA,NA,NA,NA,NA,NA,NA
7901b,shallow,flow.Sequence,3_0_1_0_4_1,NA,NA,skipped,NA,300979.8,NA,NA,300978.294,300980,2023-05-12T16:03:47Z,300994.959,NULL,Körper,kiwiliwili,d,NA,NA,NA,NA,sdfdsf,NA,1,NA,NA,NA,NA,NA,NA,NA,NA,NA,NA,NA,NA,NA,NA,NA,NA,NA,NA,NA
7901b,task,flow.Sequence,3_0_1_0_4,NA,NA,completion,12673.404,288290.40000001,288288.382,288304.89,300978.294,300980.2,2023-05-12T16:03:47Z,300994.959,NULL,Körper,kiwiliwili,d,NA,NA,NA,NA,sdfdsf,NA,1,NA,NA,NA,NA,NA,NA,NA,NA,NA,NA,NA,NA,NA,NA,NA,NA,NA,NA,NA
7901b,Deep Question,html.Page,3_0_1_0_5_0_0,NA,NA,form submission,4471.741000003,300980.40000001,300978.294,300994.959,305466.7,305466.90000001,2023-05-12T16:03:51Z,305473.99,NULL,Entwicklung,maendeleo,d,NA,NA,NA,ma,NA,NA,1,NA,NA,NA,NA,NA,NA,NA,NA,NA,NA,NA,NA,NA,NA,NA,NA,NA,NA,NA
7901b,"""Richtig""-Screen",canvas.Screen,3_0_1_0_5_0_1,NA,NA,skipped,NA,305469.40000001,NA,NA,305466.7,305469.5,2023-05-12T16:03:51Z,305473.99,NULL,Entwicklung,maendeleo,d,NA,NA,NA,NA,sdfdsf,NA,1,NA,NA,NA,NA,NA,NA,NA,NA,NA,NA,NA,NA,NA,NA,NA,NA,NA,NA,NA
7901b,"""Falsch""-Screen",canvas.Screen,3_0_1_0_5_0_2,NA,NA,timeout,4996.486,305470.40000001,305457.399,305473.99,310453.347,310454.3,2023-05-12T16:03:56Z,310470.476,NULL,Entwicklung,maendeleo,d,NA,NA,NA,NA,sdfdsf,0,1,NA,NA,NA,NA,NA,NA,NA,NA,NA,NA,NA,NA,NA,NA,NA,NA,NA,NA,NA
7901b,deep,flow.Sequence,3_0_1_0_5_0,NA,NA,completion,9458.388,300980.40000001,300978.294,300994.959,310453.347,310454.59999999,2023-05-12T16:03:56Z,310470.476,NULL,Entwicklung,maendeleo,d,NA,NA,NA,NA,sdfdsf,NA,1,NA,NA,NA,NA,NA,NA,NA,NA,NA,NA,NA,NA,NA,NA,NA,NA,NA,NA,NA
7901b,shallow,flow.Sequence,3_0_1_0_5_1,NA,NA,skipped,NA,310454.7,NA,NA,310453.347,310454.90000001,2023-05-12T16:03:56Z,310470.476,NULL,Entwicklung,maendeleo,d,NA,NA,NA,NA,sdfdsf,NA,1,NA,NA,NA,NA,NA,NA,NA,NA,NA,NA,NA,NA,NA,NA,NA,NA,NA,NA,NA
7901b,task,flow.Sequence,3_0_1_0_5,NA,NA,completion,9458.388,300980.3,300978.294,300994.959,310453.347,310455.09999999,2023-05-12T16:03:56Z,310470.476,NULL,Entwicklung,maendeleo,d,NA,NA,NA,NA,sdfdsf,NA,1,NA,NA,NA,NA,NA,NA,NA,NA,NA,NA,NA,NA,NA,NA,NA,NA,NA,NA,NA
7901b,deep,flow.Sequence,3_0_1_0_6_0,NA,NA,skipped,NA,310455.3,NA,NA,310453.347,310455.3,2023-05-12T16:03:56Z,310470.476,NULL,Papier,karatasi,s,uchambuzi,usalama,kukataliwa,NA,sdfdsf,NA,1,NA,NA,NA,NA,NA,NA,NA,NA,NA,NA,NA,NA,NA,NA,NA,NA,NA,NA,NA
7901b,Shallow Question,html.Page,3_0_1_0_6_1_0,NA,NA,form submission,3312.524,310455.5,310453.347,310470.476,313783,313783.09999999,2023-05-12T16:03:59Z,313783.832,NULL,Papier,karatasi,s,uchambuzi,usalama,kukataliwa,karatasi,NA,NA,1,NA,NA,NA,NA,NA,NA,NA,NA,NA,NA,NA,NA,NA,NA,NA,NA,NA,NA,NA
7901b,"""Richtig""-Screen",canvas.Screen,3_0_1_0_6_1_1,NA,NA,timeout,4995.898,313785,313767.574,313783.832,318763.452,318764.40000001,2023-05-12T16:04:04Z,318779.73,NULL,Papier,karatasi,s,uchambuzi,usalama,kukataliwa,NA,sdfdsf,1,1,NA,NA,NA,NA,NA,NA,NA,NA,NA,NA,NA,NA,NA,NA,NA,NA,NA,NA,NA
7901b,"""Falsch""-Screen",canvas.Screen,3_0_1_0_6_1_2,NA,NA,skipped,NA,318768.59999999,NA,NA,318763.452,318768.7,2023-05-12T16:04:04Z,318779.73,NULL,Papier,karatasi,s,uchambuzi,usalama,kukataliwa,NA,sdfdsf,NA,1,NA,NA,NA,NA,NA,NA,NA,NA,NA,NA,NA,NA,NA,NA,NA,NA,NA,NA,NA
7901b,shallow,flow.Sequence,3_0_1_0_6_1,NA,NA,completion,8292.976,310455.5,310453.347,310470.476,318763.452,318768.7,2023-05-12T16:04:04Z,318779.73,NULL,Papier,karatasi,s,uchambuzi,usalama,kukataliwa,NA,sdfdsf,NA,1,NA,NA,NA,NA,NA,NA,NA,NA,NA,NA,NA,NA,NA,NA,NA,NA,NA,NA,NA
7901b,task,flow.Sequence,3_0_1_0_6,NA,NA,completion,8292.976,310455.3,310453.347,310470.476,318763.452,318768.90000001,2023-05-12T16:04:04Z,318779.73,NULL,Papier,karatasi,s,uchambuzi,usalama,kukataliwa,NA,sdfdsf,NA,1,NA,NA,NA,NA,NA,NA,NA,NA,NA,NA,NA,NA,NA,NA,NA,NA,NA,NA,NA
7901b,deep,flow.Sequence,3_0_1_0_7_0,NA,NA,skipped,NA,318768.90000001,NA,NA,318763.452,318768.90000001,2023-05-12T16:04:04Z,318779.73,NULL,Lawine,banguko,s,maambukizi,usuluhishi,chekechea,NA,sdfdsf,NA,1,NA,NA,NA,NA,NA,NA,NA,NA,NA,NA,NA,NA,NA,NA,NA,NA,NA,NA,NA
7901b,Shallow Question,html.Page,3_0_1_0_7_1_0,NA,NA,form submission,2827.569999997,318768.90000001,318763.452,318779.73,321607.3,321607.5,2023-05-12T16:04:07Z,321610.691,NULL,Lawine,banguko,s,maambukizi,usuluhishi,chekechea,banguko,NA,NA,1,NA,NA,NA,NA,NA,NA,NA,NA,NA,NA,NA,NA,NA,NA,NA,NA,NA,NA,NA
7901b,"""Richtig""-Screen",canvas.Screen,3_0_1_0_7_1_1,NA,NA,timeout,4996.037,321608.3,321594.584,321610.691,326590.388,326591.40000001,2023-05-12T16:04:12Z,326606.728,NULL,Lawine,banguko,s,maambukizi,usuluhishi,chekechea,NA,sdfdsf,1,1,NA,NA,NA,NA,NA,NA,NA,NA,NA,NA,NA,NA,NA,NA,NA,NA,NA,NA,NA
7901b,"""Falsch""-Screen",canvas.Screen,3_0_1_0_7_1_2,NA,NA,skipped,NA,326596.59999999,NA,NA,326590.388,326597,2023-05-12T16:04:12Z,326606.728,NULL,Lawine,banguko,s,maambukizi,usuluhishi,chekechea,NA,sdfdsf,NA,1,NA,NA,NA,NA,NA,NA,NA,NA,NA,NA,NA,NA,NA,NA,NA,NA,NA,NA,NA
7901b,shallow,flow.Sequence,3_0_1_0_7_1,NA,NA,completion,7810.658,318768.90000001,318763.452,318779.73,326590.388,326597.3,2023-05-12T16:04:12Z,326606.728,NULL,Lawine,banguko,s,maambukizi,usuluhishi,chekechea,NA,sdfdsf,NA,1,NA,NA,NA,NA,NA,NA,NA,NA,NA,NA,NA,NA,NA,NA,NA,NA,NA,NA,NA
7901b,task,flow.Sequence,3_0_1_0_7,NA,NA,completion,7810.658,318768.90000001,318763.452,318779.73,326590.388,326597.5,2023-05-12T16:04:12Z,326606.728,NULL,Lawine,banguko,s,maambukizi,usuluhishi,chekechea,NA,sdfdsf,NA,1,NA,NA,NA,NA,NA,NA,NA,NA,NA,NA,NA,NA,NA,NA,NA,NA,NA,NA,NA
7901b,block,flow.Loop,3_0_1_0,NA,NA,completion,75720.641,250854.7,250852.857,250869.747,326590.388,326597.7,2023-05-12T16:04:12Z,326606.728,NULL,NA,NA,NA,NA,NA,NA,NA,sdfdsf,NA,1,NA,NA,NA,NA,NA,NA,NA,NA,NA,NA,NA,NA,NA,NA,NA,NA,NA,NA,NA
7901b,weiter,canvas.Screen,3_0_1_1,sdf,keypress(Space),response,704.47200000298,326597.90000001,326590.388,326606.728,327311.2,327312.40000001,2023-05-12T16:04:13Z,327355.957,NULL,NA,NA,NA,NA,NA,NA,NA,sdfdsf,NA,1,NA,NA,NA,NA,NA,NA,NA,NA,NA,NA,NA,NA,NA,NA,NA,NA,NA,NA,NA
7901b,check continue,flow.Sequence,3_0_1,NA,NA,completion,76441.453000003,250854.7,250852.857,250869.747,327311.2,327312.7,2023-05-12T16:04:13Z,327355.957,NULL,NA,NA,NA,NA,NA,NA,NA,sdfdsf,NA,1,NA,NA,NA,NA,NA,NA,NA,NA,NA,NA,NA,NA,NA,NA,NA,NA,NA,NA,NA
7901b,deep,flow.Sequence,3_0_2_0_0_0,NA,NA,skipped,NA,327351.7,NA,NA,327311.2,327351.8,2023-05-12T16:04:13Z,327355.957,NULL,Niveau,kiwango,s,usimamizi,mwamali,mshairi,NA,sdf,NA,2,NA,NA,NA,NA,NA,NA,NA,NA,NA,NA,NA,NA,NA,NA,NA,NA,NA,NA,NA
7901b,Shallow Question,html.Page,3_0_2_0_0_1_0,NA,NA,form submission,2386.342999997,327351.90000001,327339.607,327355.957,329742.3,329742.5,2023-05-12T16:04:15Z,329754.66,NULL,Niveau,kiwango,s,usimamizi,mwamali,mshairi,kiwango,NA,NA,2,NA,NA,NA,NA,NA,NA,NA,NA,NA,NA,NA,NA,NA,NA,NA,NA,NA,NA,NA
7901b,"""Richtig""-Screen",canvas.Screen,3_0_2_0_0_1_1,NA,NA,timeout,4995.903,329743.09999999,329737.951,329754.66,334733.683,334736,2023-05-12T16:04:20Z,334750.563,NULL,Niveau,kiwango,s,usimamizi,mwamali,mshairi,NA,sdf,1,2,NA,NA,NA,NA,NA,NA,NA,NA,NA,NA,NA,NA,NA,NA,NA,NA,NA,NA,NA
7901b,"""Falsch""-Screen",canvas.Screen,3_0_2_0_0_1_2,NA,NA,skipped,NA,334739.59999999,NA,NA,334733.683,334739.8,2023-05-12T16:04:20Z,334750.563,NULL,Niveau,kiwango,s,usimamizi,mwamali,mshairi,NA,sdf,NA,2,NA,NA,NA,NA,NA,NA,NA,NA,NA,NA,NA,NA,NA,NA,NA,NA,NA,NA,NA
7901b,shallow,flow.Sequence,3_0_2_0_0_1,NA,NA,completion,7377.726,327351.8,327339.607,327355.957,334733.683,334740.09999999,2023-05-12T16:04:20Z,334750.563,NULL,Niveau,kiwango,s,usimamizi,mwamali,mshairi,NA,sdf,NA,2,NA,NA,NA,NA,NA,NA,NA,NA,NA,NA,NA,NA,NA,NA,NA,NA,NA,NA,NA
7901b,task,flow.Sequence,3_0_2_0_0,NA,NA,completion,7377.726,327351.59999999,327339.607,327355.957,334733.683,334740.3,2023-05-12T16:04:20Z,334750.563,NULL,Niveau,kiwango,s,usimamizi,mwamali,mshairi,NA,sdf,NA,2,NA,NA,NA,NA,NA,NA,NA,NA,NA,NA,NA,NA,NA,NA,NA,NA,NA,NA,NA
7901b,Deep Question,html.Page,3_0_2_0_1_0_0,NA,NA,form submission,5597.137000003,334740.5,334733.683,334750.563,340347.7,340347.90000001,2023-05-12T16:04:26Z,340362.155,NULL,Körper,kiwiliwili,d,NA,NA,NA,kiwiliwili,NA,NA,2,NA,NA,NA,NA,NA,NA,NA,NA,NA,NA,NA,NA,NA,NA,NA,NA,NA,NA,NA
7901b,"""Richtig""-Screen",canvas.Screen,3_0_2_0_1_0_1,NA,NA,timeout,4995.784,340349.59999999,340346.043,340362.155,345341.766,345342.7,2023-05-12T16:04:31Z,345357.939,NULL,Körper,kiwiliwili,d,NA,NA,NA,NA,sdf,1,2,NA,NA,NA,NA,NA,NA,NA,NA,NA,NA,NA,NA,NA,NA,NA,NA,NA,NA,NA
7901b,"""Falsch""-Screen",canvas.Screen,3_0_2_0_1_0_2,NA,NA,skipped,NA,345347.3,NA,NA,345341.766,345347.3,2023-05-12T16:04:31Z,345357.939,NULL,Körper,kiwiliwili,d,NA,NA,NA,NA,sdf,NA,2,NA,NA,NA,NA,NA,NA,NA,NA,NA,NA,NA,NA,NA,NA,NA,NA,NA,NA,NA
7901b,deep,flow.Sequence,3_0_2_0_1_0,NA,NA,completion,10591.203,334740.40000001,334733.683,334750.563,345341.766,345347.5,2023-05-12T16:04:31Z,345357.939,NULL,Körper,kiwiliwili,d,NA,NA,NA,NA,sdf,NA,2,NA,NA,NA,NA,NA,NA,NA,NA,NA,NA,NA,NA,NA,NA,NA,NA,NA,NA,NA
7901b,shallow,flow.Sequence,3_0_2_0_1_1,NA,NA,skipped,NA,345347.5,NA,NA,345341.766,345347.59999999,2023-05-12T16:04:31Z,345357.939,NULL,Körper,kiwiliwili,d,NA,NA,NA,NA,sdf,NA,2,NA,NA,NA,NA,NA,NA,NA,NA,NA,NA,NA,NA,NA,NA,NA,NA,NA,NA,NA
7901b,task,flow.Sequence,3_0_2_0_1,NA,NA,completion,10591.203,334740.40000001,334733.683,334750.563,345341.766,345347.59999999,2023-05-12T16:04:31Z,345357.939,NULL,Körper,kiwiliwili,d,NA,NA,NA,NA,sdf,NA,2,NA,NA,NA,NA,NA,NA,NA,NA,NA,NA,NA,NA,NA,NA,NA,NA,NA,NA,NA
7901b,Deep Question,html.Page,3_0_2_0_2_0_0,NA,NA,form submission,7289.160999994,345347.7,345341.766,345357.939,352647.09999999,352647.3,2023-05-12T16:04:38Z,352651.839,NULL,Übersicht,kilindo,d,NA,NA,NA,maendeleo,NA,NA,2,NA,NA,NA,NA,NA,NA,NA,NA,NA,NA,NA,NA,NA,NA,NA,NA,NA,NA,NA
7901b,"""Richtig""-Screen",canvas.Screen,3_0_2_0_2_0_1,NA,NA,skipped,NA,352649.90000001,NA,NA,352647.09999999,352650.2,2023-05-12T16:04:38Z,352651.839,NULL,Übersicht,kilindo,d,NA,NA,NA,NA,sdf,NA,2,NA,NA,NA,NA,NA,NA,NA,NA,NA,NA,NA,NA,NA,NA,NA,NA,NA,NA,NA
7901b,"""Falsch""-Screen",canvas.Screen,3_0_2_0_2_0_2,NA,NA,timeout,4995.975,352651.09999999,352635.332,352651.839,357631.659,357632.7,2023-05-12T16:04:43Z,357647.814,NULL,Übersicht,kilindo,d,NA,NA,NA,NA,sdf,0,2,NA,NA,NA,NA,NA,NA,NA,NA,NA,NA,NA,NA,NA,NA,NA,NA,NA,NA,NA
7901b,deep,flow.Sequence,3_0_2_0_2_0,NA,NA,completion,12273.72,345347.7,345341.766,345357.939,357631.659,357633,2023-05-12T16:04:43Z,357647.814,NULL,Übersicht,kilindo,d,NA,NA,NA,NA,sdf,NA,2,NA,NA,NA,NA,NA,NA,NA,NA,NA,NA,NA,NA,NA,NA,NA,NA,NA,NA,NA
7901b,shallow,flow.Sequence,3_0_2_0_2_1,NA,NA,skipped,NA,357633.2,NA,NA,357631.659,357633.3,2023-05-12T16:04:43Z,357647.814,NULL,Übersicht,kilindo,d,NA,NA,NA,NA,sdf,NA,2,NA,NA,NA,NA,NA,NA,NA,NA,NA,NA,NA,NA,NA,NA,NA,NA,NA,NA,NA
7901b,task,flow.Sequence,3_0_2_0_2,NA,NA,completion,12273.72,345347.7,345341.766,345357.939,357631.659,357633.5,2023-05-12T16:04:43Z,357647.814,NULL,Übersicht,kilindo,d,NA,NA,NA,NA,sdf,NA,2,NA,NA,NA,NA,NA,NA,NA,NA,NA,NA,NA,NA,NA,NA,NA,NA,NA,NA,NA
7901b,Deep Question,html.Page,3_0_2_0_3_0_0,NA,NA,form submission,8781.785999994,357633.8,357631.659,357647.814,366429.59999999,366429.8,2023-05-12T16:04:52Z,366440.787,NULL,Entwicklung,maendeleo,d,NA,NA,NA,mashtaka,NA,NA,2,NA,NA,NA,NA,NA,NA,NA,NA,NA,NA,NA,NA,NA,NA,NA,NA,NA,NA,NA
7901b,"""Richtig""-Screen",canvas.Screen,3_0_2_0_3_0_1,NA,NA,skipped,NA,366431.7,NA,NA,366429.59999999,366431.8,2023-05-12T16:04:52Z,366440.787,NULL,Entwicklung,maendeleo,d,NA,NA,NA,NA,sdf,NA,2,NA,NA,NA,NA,NA,NA,NA,NA,NA,NA,NA,NA,NA,NA,NA,NA,NA,NA,NA
7901b,"""Falsch""-Screen",canvas.Screen,3_0_2_0_3_0_2,NA,NA,timeout,4995.901,366432.7,366424.233,366440.787,371420.237,371421.09999999,2023-05-12T16:04:57Z,371436.688,NULL,Entwicklung,maendeleo,d,NA,NA,NA,NA,sdf,0,2,NA,NA,NA,NA,NA,NA,NA,NA,NA,NA,NA,NA,NA,NA,NA,NA,NA,NA,NA
7901b,deep,flow.Sequence,3_0_2_0_3_0,NA,NA,completion,13772.423,357633.8,357631.659,357647.814,371420.237,371421.59999999,2023-05-12T16:04:57Z,371436.688,NULL,Entwicklung,maendeleo,d,NA,NA,NA,NA,sdf,NA,2,NA,NA,NA,NA,NA,NA,NA,NA,NA,NA,NA,NA,NA,NA,NA,NA,NA,NA,NA
7901b,shallow,flow.Sequence,3_0_2_0_3_1,NA,NA,skipped,NA,371421.7,NA,NA,371420.237,371421.90000001,2023-05-12T16:04:57Z,371436.688,NULL,Entwicklung,maendeleo,d,NA,NA,NA,NA,sdf,NA,2,NA,NA,NA,NA,NA,NA,NA,NA,NA,NA,NA,NA,NA,NA,NA,NA,NA,NA,NA
7901b,task,flow.Sequence,3_0_2_0_3,NA,NA,completion,13772.423,357633.7,357631.659,357647.814,371420.237,371422.09999999,2023-05-12T16:04:57Z,371436.688,NULL,Entwicklung,maendeleo,d,NA,NA,NA,NA,sdf,NA,2,NA,NA,NA,NA,NA,NA,NA,NA,NA,NA,NA,NA,NA,NA,NA,NA,NA,NA,NA
7901b,deep,flow.Sequence,3_0_2_0_4_0,NA,NA,skipped,NA,371422.2,NA,NA,371420.237,371422.3,2023-05-12T16:04:57Z,371436.688,NULL,System,maongozi,s,chokochoko,nuksani,mitaani,NA,sdf,NA,2,NA,NA,NA,NA,NA,NA,NA,NA,NA,NA,NA,NA,NA,NA,NA,NA,NA,NA,NA
7901b,Shallow Question,html.Page,3_0_2_0_4_1_0,NA,NA,form submission,4145.7120000059,371422.5,371420.237,371436.688,375582.40000001,375582.59999999,2023-05-12T16:05:01Z,375582.96,NULL,System,maongozi,s,chokochoko,nuksani,mitaani,maongozi,NA,NA,2,NA,NA,NA,NA,NA,NA,NA,NA,NA,NA,NA,NA,NA,NA,NA,NA,NA,NA,NA
7901b,"""Richtig""-Screen",canvas.Screen,3_0_2_0_4_1_1,NA,NA,timeout,4995.938,375584.40000001,375566.661,375582.96,380562.363,380564.2,2023-05-12T16:05:06Z,380578.898,NULL,System,maongozi,s,chokochoko,nuksani,mitaani,NA,sdf,1,2,NA,NA,NA,NA,NA,NA,NA,NA,NA,NA,NA,NA,NA,NA,NA,NA,NA,NA,NA
7901b,"""Falsch""-Screen",canvas.Screen,3_0_2_0_4_1_2,NA,NA,skipped,NA,380569.3,NA,NA,380562.363,380569.8,2023-05-12T16:05:06Z,380578.898,NULL,System,maongozi,s,chokochoko,nuksani,mitaani,NA,sdf,NA,2,NA,NA,NA,NA,NA,NA,NA,NA,NA,NA,NA,NA,NA,NA,NA,NA,NA,NA,NA
7901b,shallow,flow.Sequence,3_0_2_0_4_1,NA,NA,completion,9125.675,371422.40000001,371420.237,371436.688,380562.363,380570,2023-05-12T16:05:06Z,380578.898,NULL,System,maongozi,s,chokochoko,nuksani,mitaani,NA,sdf,NA,2,NA,NA,NA,NA,NA,NA,NA,NA,NA,NA,NA,NA,NA,NA,NA,NA,NA,NA,NA
7901b,task,flow.Sequence,3_0_2_0_4,NA,NA,completion,9125.675,371422.2,371420.237,371436.688,380562.363,380571.2,2023-05-12T16:05:06Z,380578.898,NULL,System,maongozi,s,chokochoko,nuksani,mitaani,NA,sdf,NA,2,NA,NA,NA,NA,NA,NA,NA,NA,NA,NA,NA,NA,NA,NA,NA,NA,NA,NA,NA
7901b,deep,flow.Sequence,3_0_2_0_5_0,NA,NA,skipped,NA,380571.5,NA,NA,380562.363,380571.59999999,2023-05-12T16:05:06Z,380578.898,NULL,Lawine,banguko,s,maambukizi,usuluhishi,chekechea,NA,sdf,NA,2,NA,NA,NA,NA,NA,NA,NA,NA,NA,NA,NA,NA,NA,NA,NA,NA,NA,NA,NA
7901b,Shallow Question,html.Page,3_0_2_0_5_1_0,NA,NA,form submission,2465.302000003,380571.90000001,380562.363,380578.898,383044.2,383044.40000001,2023-05-12T16:05:09Z,383060.778,NULL,Lawine,banguko,s,maambukizi,usuluhishi,chekechea,banguko,NA,NA,2,NA,NA,NA,NA,NA,NA,NA,NA,NA,NA,NA,NA,NA,NA,NA,NA,NA,NA,NA
7901b,"""Richtig""-Screen",canvas.Screen,3_0_2_0_5_1_1,NA,NA,timeout,4995.269,383044.90000001,383027.337,383060.778,388039.8,388040.7,2023-05-12T16:05:14Z,388056.047,NULL,Lawine,banguko,s,maambukizi,usuluhishi,chekechea,NA,sdf,1,2,NA,NA,NA,NA,NA,NA,NA,NA,NA,NA,NA,NA,NA,NA,NA,NA,NA,NA,NA
7901b,"""Falsch""-Screen",canvas.Screen,3_0_2_0_5_1_2,NA,NA,skipped,NA,388045.7,NA,NA,388039.8,388046,2023-05-12T16:05:14Z,388056.047,NULL,Lawine,banguko,s,maambukizi,usuluhishi,chekechea,NA,sdf,NA,2,NA,NA,NA,NA,NA,NA,NA,NA,NA,NA,NA,NA,NA,NA,NA,NA,NA,NA,NA
7901b,shallow,flow.Sequence,3_0_2_0_5_1,NA,NA,completion,7460.902,380571.8,380562.363,380578.898,388039.8,388046.40000001,2023-05-12T16:05:14Z,388056.047,NULL,Lawine,banguko,s,maambukizi,usuluhishi,chekechea,NA,sdf,NA,2,NA,NA,NA,NA,NA,NA,NA,NA,NA,NA,NA,NA,NA,NA,NA,NA,NA,NA,NA
7901b,task,flow.Sequence,3_0_2_0_5,NA,NA,completion,7460.902,380571.5,380562.363,380578.898,388039.8,388046.59999999,2023-05-12T16:05:14Z,388056.047,NULL,Lawine,banguko,s,maambukizi,usuluhishi,chekechea,NA,sdf,NA,2,NA,NA,NA,NA,NA,NA,NA,NA,NA,NA,NA,NA,NA,NA,NA,NA,NA,NA,NA
7901b,Deep Question,html.Page,3_0_2_0_6_0_0,NA,NA,form submission,7645.252999997,388046.90000001,388039.8,388056.047,395701.3,395701.40000001,2023-05-12T16:05:21Z,395717.032,NULL,Vorwurf,mashtaka,d,NA,NA,NA,k,NA,NA,2,NA,NA,NA,NA,NA,NA,NA,NA,NA,NA,NA,NA,NA,NA,NA,NA,NA,NA,NA
7901b,"""Richtig""-Screen",canvas.Screen,3_0_2_0_6_0_1,NA,NA,skipped,NA,395703.2,NA,NA,395701.3,395703.3,2023-05-12T16:05:21Z,395717.032,NULL,Vorwurf,mashtaka,d,NA,NA,NA,NA,sdf,NA,2,NA,NA,NA,NA,NA,NA,NA,NA,NA,NA,NA,NA,NA,NA,NA,NA,NA,NA,NA
7901b,"""Falsch""-Screen",canvas.Screen,3_0_2_0_6_0_2,NA,NA,timeout,4995.69,395703.8,395700.298,395717.032,400695.67,400697,2023-05-12T16:05:26Z,400712.722,NULL,Vorwurf,mashtaka,d,NA,NA,NA,NA,sdf,0,2,NA,NA,NA,NA,NA,NA,NA,NA,NA,NA,NA,NA,NA,NA,NA,NA,NA,NA,NA
7901b,deep,flow.Sequence,3_0_2_0_6_0,NA,NA,completion,12639.623,388046.8,388039.8,388056.047,400695.67,400697.3,2023-05-12T16:05:26Z,400712.722,NULL,Vorwurf,mashtaka,d,NA,NA,NA,NA,sdf,NA,2,NA,NA,NA,NA,NA,NA,NA,NA,NA,NA,NA,NA,NA,NA,NA,NA,NA,NA,NA
7901b,shallow,flow.Sequence,3_0_2_0_6_1,NA,NA,skipped,NA,400697.5,NA,NA,400695.67,400697.5,2023-05-12T16:05:26Z,400712.722,NULL,Vorwurf,mashtaka,d,NA,NA,NA,NA,sdf,NA,2,NA,NA,NA,NA,NA,NA,NA,NA,NA,NA,NA,NA,NA,NA,NA,NA,NA,NA,NA
7901b,task,flow.Sequence,3_0_2_0_6,NA,NA,completion,12639.623,388046.7,388039.8,388056.047,400695.67,400697.8,2023-05-12T16:05:26Z,400712.722,NULL,Vorwurf,mashtaka,d,NA,NA,NA,NA,sdf,NA,2,NA,NA,NA,NA,NA,NA,NA,NA,NA,NA,NA,NA,NA,NA,NA,NA,NA,NA,NA
7901b,deep,flow.Sequence,3_0_2_0_7_0,NA,NA,skipped,NA,400697.90000001,NA,NA,400695.67,400698,2023-05-12T16:05:26Z,400712.722,NULL,Papier,karatasi,s,uchambuzi,usalama,kukataliwa,NA,sdf,NA,2,NA,NA,NA,NA,NA,NA,NA,NA,NA,NA,NA,NA,NA,NA,NA,NA,NA,NA,NA
7901b,Shallow Question,html.Page,3_0_2_0_7_1_0,NA,NA,form submission,6284.678000006,400698.09999999,400695.67,400712.722,406997.40000001,406997.7,2023-05-12T16:05:33Z,407007.115,NULL,Papier,karatasi,s,uchambuzi,usalama,kukataliwa,karatasi,NA,NA,2,NA,NA,NA,NA,NA,NA,NA,NA,NA,NA,NA,NA,NA,NA,NA,NA,NA,NA,NA
7901b,"""Richtig""-Screen",canvas.Screen,3_0_2_0_7_1_1,NA,NA,timeout,4996.26,406999.5,406990.997,407007.115,411986.358,411987.90000001,2023-05-12T16:05:38Z,412003.375,NULL,Papier,karatasi,s,uchambuzi,usalama,kukataliwa,NA,sdf,1,2,NA,NA,NA,NA,NA,NA,NA,NA,NA,NA,NA,NA,NA,NA,NA,NA,NA,NA,NA
7901b,"""Falsch""-Screen",canvas.Screen,3_0_2_0_7_1_2,NA,NA,skipped,NA,411990.09999999,NA,NA,411986.358,411990.2,2023-05-12T16:05:38Z,412003.375,NULL,Papier,karatasi,s,uchambuzi,usalama,kukataliwa,NA,sdf,NA,2,NA,NA,NA,NA,NA,NA,NA,NA,NA,NA,NA,NA,NA,NA,NA,NA,NA,NA,NA
7901b,shallow,flow.Sequence,3_0_2_0_7_1,NA,NA,completion,11273.636,400698.09999999,400695.67,400712.722,411986.358,411990.3,2023-05-12T16:05:38Z,412003.375,NULL,Papier,karatasi,s,uchambuzi,usalama,kukataliwa,NA,sdf,NA,2,NA,NA,NA,NA,NA,NA,NA,NA,NA,NA,NA,NA,NA,NA,NA,NA,NA,NA,NA
7901b,task,flow.Sequence,3_0_2_0_7,NA,NA,completion,11273.636,400697.8,400695.67,400712.722,411986.358,411990.40000001,2023-05-12T16:05:38Z,412003.375,NULL,Papier,karatasi,s,uchambuzi,usalama,kukataliwa,NA,sdf,NA,2,NA,NA,NA,NA,NA,NA,NA,NA,NA,NA,NA,NA,NA,NA,NA,NA,NA,NA,NA
7901b,block,flow.Loop,3_0_2_0,NA,NA,completion,84630.401,327351.59999999,327339.607,327355.957,411986.358,411990.5,2023-05-12T16:05:38Z,412003.375,NULL,NA,NA,NA,NA,NA,NA,NA,sdf,NA,2,NA,NA,NA,NA,NA,NA,NA,NA,NA,NA,NA,NA,NA,NA,NA,NA,NA,NA,NA
7901b,weiter,canvas.Screen,3_0_2_1,sdf,keypress(Space),response,687.42499999702,411990.59999999,411986.358,412003.375,412690.8,412692,2023-05-12T16:05:38Z,412735.686,NULL,NA,NA,NA,NA,NA,NA,NA,sdf,NA,2,NA,NA,NA,NA,NA,NA,NA,NA,NA,NA,NA,NA,NA,NA,NA,NA,NA,NA,NA
7901b,check continue,flow.Sequence,3_0_2,NA,NA,completion,85334.842999997,327351.5,327339.607,327355.957,412690.8,412692.3,2023-05-12T16:05:38Z,412735.686,NULL,NA,NA,NA,NA,NA,NA,NA,sdf,NA,2,NA,NA,NA,NA,NA,NA,NA,NA,NA,NA,NA,NA,NA,NA,NA,NA,NA,NA,NA
7901b,deep,flow.Sequence,3_0_3_0_0_0,NA,NA,skipped,NA,412728.3,NA,NA,412690.8,412728.40000001,2023-05-12T16:05:38Z,412735.686,NULL,Niveau,kiwango,s,usimamizi,mwamali,mshairi,NA,qt,NA,3,NA,NA,NA,NA,NA,NA,NA,NA,NA,NA,NA,NA,NA,NA,NA,NA,NA,NA,NA
7901b,Shallow Question,html.Page,3_0_3_0_0_1_0,NA,NA,form submission,2287.9139999941,412728.5,412719.098,412735.686,415023.59999999,415023.8,2023-05-12T16:05:41Z,415033.779,NULL,Niveau,kiwango,s,usimamizi,mwamali,mshairi,kiwango,NA,NA,3,NA,NA,NA,NA,NA,NA,NA,NA,NA,NA,NA,NA,NA,NA,NA,NA,NA,NA,NA
7901b,"""Richtig""-Screen",canvas.Screen,3_0_3_0_0_1_1,NA,NA,timeout,4996.048,415025.5,415017.265,415033.779,420013.462,420014.59999999,2023-05-12T16:05:46Z,420029.827,NULL,Niveau,kiwango,s,usimamizi,mwamali,mshairi,NA,qt,1,3,NA,NA,NA,NA,NA,NA,NA,NA,NA,NA,NA,NA,NA,NA,NA,NA,NA,NA,NA
7901b,"""Falsch""-Screen",canvas.Screen,3_0_3_0_0_1_2,NA,NA,skipped,NA,420020.2,NA,NA,420013.462,420020.59999999,2023-05-12T16:05:46Z,420029.827,NULL,Niveau,kiwango,s,usimamizi,mwamali,mshairi,NA,qt,NA,3,NA,NA,NA,NA,NA,NA,NA,NA,NA,NA,NA,NA,NA,NA,NA,NA,NA,NA,NA
7901b,shallow,flow.Sequence,3_0_3_0_0_1,NA,NA,completion,7277.776,412728.5,412719.098,412735.686,420013.462,420020.90000001,2023-05-12T16:05:46Z,420029.827,NULL,Niveau,kiwango,s,usimamizi,mwamali,mshairi,NA,qt,NA,3,NA,NA,NA,NA,NA,NA,NA,NA,NA,NA,NA,NA,NA,NA,NA,NA,NA,NA,NA
7901b,task,flow.Sequence,3_0_3_0_0,NA,NA,completion,7277.776,412728.2,412719.098,412735.686,420013.462,420021.2,2023-05-12T16:05:46Z,420029.827,NULL,Niveau,kiwango,s,usimamizi,mwamali,mshairi,NA,qt,NA,3,NA,NA,NA,NA,NA,NA,NA,NA,NA,NA,NA,NA,NA,NA,NA,NA,NA,NA,NA
7901b,Deep Question,html.Page,3_0_3_0_1_0_0,NA,NA,form submission,7338.772999994,420021.40000001,420013.462,420029.827,427368.59999999,427368.8,2023-05-12T16:05:53Z,427373.621,NULL,Entwicklung,maendeleo,d,NA,NA,NA,mashtaka,NA,NA,3,NA,NA,NA,NA,NA,NA,NA,NA,NA,NA,NA,NA,NA,NA,NA,NA,NA,NA,NA
7901b,"""Richtig""-Screen",canvas.Screen,3_0_3_0_1_0_1,NA,NA,skipped,NA,427371.2,NA,NA,427368.59999999,427371.40000001,2023-05-12T16:05:53Z,427373.621,NULL,Entwicklung,maendeleo,d,NA,NA,NA,NA,qt,NA,3,NA,NA,NA,NA,NA,NA,NA,NA,NA,NA,NA,NA,NA,NA,NA,NA,NA,NA,NA
7901b,"""Falsch""-Screen",canvas.Screen,3_0_3_0_1_0_2,NA,NA,timeout,4996.512,427372.2,427357.009,427373.621,432353.222,432355.8,2023-05-12T16:05:58Z,432370.133,NULL,Entwicklung,maendeleo,d,NA,NA,NA,NA,qt,0,3,NA,NA,NA,NA,NA,NA,NA,NA,NA,NA,NA,NA,NA,NA,NA,NA,NA,NA,NA
7901b,deep,flow.Sequence,3_0_3_0_1_0,NA,NA,completion,12323.395,420021.40000001,420013.462,420029.827,432353.222,432356.2,2023-05-12T16:05:58Z,432370.133,NULL,Entwicklung,maendeleo,d,NA,NA,NA,NA,qt,NA,3,NA,NA,NA,NA,NA,NA,NA,NA,NA,NA,NA,NA,NA,NA,NA,NA,NA,NA,NA
7901b,shallow,flow.Sequence,3_0_3_0_1_1,NA,NA,skipped,NA,432356.3,NA,NA,432353.222,432356.59999999,2023-05-12T16:05:58Z,432370.133,NULL,Entwicklung,maendeleo,d,NA,NA,NA,NA,qt,NA,3,NA,NA,NA,NA,NA,NA,NA,NA,NA,NA,NA,NA,NA,NA,NA,NA,NA,NA,NA
7901b,task,flow.Sequence,3_0_3_0_1,NA,NA,completion,12323.395,420021.3,420013.462,420029.827,432353.222,432356.8,2023-05-12T16:05:58Z,432370.133,NULL,Entwicklung,maendeleo,d,NA,NA,NA,NA,qt,NA,3,NA,NA,NA,NA,NA,NA,NA,NA,NA,NA,NA,NA,NA,NA,NA,NA,NA,NA,NA
7901b,Deep Question,html.Page,3_0_3_0_2_0_0,NA,NA,form submission,6915.367,432357,432353.222,432370.133,439285.5,439285.8,2023-05-12T16:06:05Z,439297.142,NULL,Vorwurf,mashtaka,d,NA,NA,NA,k,NA,NA,3,NA,NA,NA,NA,NA,NA,NA,NA,NA,NA,NA,NA,NA,NA,NA,NA,NA,NA,NA
7901b,"""Richtig""-Screen",canvas.Screen,3_0_3_0_2_0_1,NA,NA,skipped,NA,439288.90000001,NA,NA,439285.5,439289.2,2023-05-12T16:06:05Z,439297.142,NULL,Vorwurf,mashtaka,d,NA,NA,NA,NA,qt,NA,3,NA,NA,NA,NA,NA,NA,NA,NA,NA,NA,NA,NA,NA,NA,NA,NA,NA,NA,NA
7901b,"""Falsch""-Screen",canvas.Screen,3_0_3_0_2_0_2,NA,NA,timeout,4995.985,439289.90000001,439280.756,439297.142,444276.529,444278.40000001,2023-05-12T16:06:10Z,444293.127,NULL,Vorwurf,mashtaka,d,NA,NA,NA,NA,qt,0,3,NA,NA,NA,NA,NA,NA,NA,NA,NA,NA,NA,NA,NA,NA,NA,NA,NA,NA,NA
7901b,deep,flow.Sequence,3_0_3_0_2_0,NA,NA,completion,11906.396,432356.90000001,432353.222,432370.133,444276.529,444278.90000001,2023-05-12T16:06:10Z,444293.127,NULL,Vorwurf,mashtaka,d,NA,NA,NA,NA,qt,NA,3,NA,NA,NA,NA,NA,NA,NA,NA,NA,NA,NA,NA,NA,NA,NA,NA,NA,NA,NA
7901b,shallow,flow.Sequence,3_0_3_0_2_1,NA,NA,skipped,NA,444279,NA,NA,444276.529,444279.2,2023-05-12T16:06:10Z,444293.127,NULL,Vorwurf,mashtaka,d,NA,NA,NA,NA,qt,NA,3,NA,NA,NA,NA,NA,NA,NA,NA,NA,NA,NA,NA,NA,NA,NA,NA,NA,NA,NA
7901b,task,flow.Sequence,3_0_3_0_2,NA,NA,completion,11906.396,432356.90000001,432353.222,432370.133,444276.529,444279.5,2023-05-12T16:06:10Z,444293.127,NULL,Vorwurf,mashtaka,d,NA,NA,NA,NA,qt,NA,3,NA,NA,NA,NA,NA,NA,NA,NA,NA,NA,NA,NA,NA,NA,NA,NA,NA,NA,NA
7901b,Deep Question,html.Page,3_0_3_0_3_0_0,NA,NA,form submission,28514.172999997,444279.59999999,444276.529,444293.127,472807.3,472807.5,2023-05-12T16:06:38Z,472836.863,NULL,Körper,kiwiliwili,d,NA,NA,NA,kiwiliwili,NA,NA,3,NA,NA,NA,NA,NA,NA,NA,NA,NA,NA,NA,NA,NA,NA,NA,NA,NA,NA,NA
7901b,"""Richtig""-Screen",canvas.Screen,3_0_3_0_3_0_1,NA,NA,timeout,4995.231,472809.5,472820.196,472836.863,477815.846,477817.3,2023-05-12T16:06:43Z,477832.094,NULL,Körper,kiwiliwili,d,NA,NA,NA,NA,qt,1,3,NA,NA,NA,NA,NA,NA,NA,NA,NA,NA,NA,NA,NA,NA,NA,NA,NA,NA,NA
7901b,"""Falsch""-Screen",canvas.Screen,3_0_3_0_3_0_2,NA,NA,skipped,NA,477821.90000001,NA,NA,477815.846,477822.09999999,2023-05-12T16:06:43Z,477832.094,NULL,Körper,kiwiliwili,d,NA,NA,NA,NA,qt,NA,3,NA,NA,NA,NA,NA,NA,NA,NA,NA,NA,NA,NA,NA,NA,NA,NA,NA,NA,NA
7901b,deep,flow.Sequence,3_0_3_0_3_0,NA,NA,completion,33522.719,444279.59999999,444276.529,444293.127,477815.846,477822.40000001,2023-05-12T16:06:43Z,477832.094,NULL,Körper,kiwiliwili,d,NA,NA,NA,NA,qt,NA,3,NA,NA,NA,NA,NA,NA,NA,NA,NA,NA,NA,NA,NA,NA,NA,NA,NA,NA,NA
7901b,shallow,flow.Sequence,3_0_3_0_3_1,NA,NA,skipped,NA,477822.59999999,NA,NA,477815.846,477822.7,2023-05-12T16:06:43Z,477832.094,NULL,Körper,kiwiliwili,d,NA,NA,NA,NA,qt,NA,3,NA,NA,NA,NA,NA,NA,NA,NA,NA,NA,NA,NA,NA,NA,NA,NA,NA,NA,NA
7901b,task,flow.Sequence,3_0_3_0_3,NA,NA,completion,33522.719,444279.59999999,444276.529,444293.127,477815.846,477823.40000001,2023-05-12T16:06:43Z,477832.094,NULL,Körper,kiwiliwili,d,NA,NA,NA,NA,qt,NA,3,NA,NA,NA,NA,NA,NA,NA,NA,NA,NA,NA,NA,NA,NA,NA,NA,NA,NA,NA
7901b,deep,flow.Sequence,3_0_3_0_4_0,NA,NA,skipped,NA,477823.7,NA,NA,477815.846,477823.7,2023-05-12T16:06:43Z,477832.094,NULL,Lawine,banguko,s,maambukizi,usuluhishi,chekechea,NA,qt,NA,3,NA,NA,NA,NA,NA,NA,NA,NA,NA,NA,NA,NA,NA,NA,NA,NA,NA,NA,NA
7901b,Shallow Question,html.Page,3_0_3_0_4_1_0,NA,NA,form submission,1960.0059999941,477823.90000001,477815.846,477832.094,479792.09999999,479792.3,2023-05-12T16:06:45Z,479797.175,NULL,Lawine,banguko,s,maambukizi,usuluhishi,chekechea,banguko,NA,NA,3,NA,NA,NA,NA,NA,NA,NA,NA,NA,NA,NA,NA,NA,NA,NA,NA,NA,NA,NA
7901b,"""Richtig""-Screen",canvas.Screen,3_0_3_0_4_1_1,NA,NA,timeout,4996.339,479792.90000001,479781.078,479797.175,484776.642,484777.09999999,2023-05-12T16:06:50Z,484793.514,NULL,Lawine,banguko,s,maambukizi,usuluhishi,chekechea,NA,qt,1,3,NA,NA,NA,NA,NA,NA,NA,NA,NA,NA,NA,NA,NA,NA,NA,NA,NA,NA,NA
7901b,"""Falsch""-Screen",canvas.Screen,3_0_3_0_4_1_2,NA,NA,skipped,NA,484778.7,NA,NA,484776.642,484778.8,2023-05-12T16:06:50Z,484793.514,NULL,Lawine,banguko,s,maambukizi,usuluhishi,chekechea,NA,qt,NA,3,NA,NA,NA,NA,NA,NA,NA,NA,NA,NA,NA,NA,NA,NA,NA,NA,NA,NA,NA
7901b,shallow,flow.Sequence,3_0_3_0_4_1,NA,NA,completion,6944.548,477823.90000001,477815.846,477832.094,484776.642,484778.90000001,2023-05-12T16:06:50Z,484793.514,NULL,Lawine,banguko,s,maambukizi,usuluhishi,chekechea,NA,qt,NA,3,NA,NA,NA,NA,NA,NA,NA,NA,NA,NA,NA,NA,NA,NA,NA,NA,NA,NA,NA
7901b,task,flow.Sequence,3_0_3_0_4,NA,NA,completion,6944.548,477823.59999999,477815.846,477832.094,484776.642,484779,2023-05-12T16:06:50Z,484793.514,NULL,Lawine,banguko,s,maambukizi,usuluhishi,chekechea,NA,qt,NA,3,NA,NA,NA,NA,NA,NA,NA,NA,NA,NA,NA,NA,NA,NA,NA,NA,NA,NA,NA
7901b,Deep Question,html.Page,3_0_3_0_5_0_0,NA,NA,form submission,7466.486,484779.09999999,484776.642,484793.514,492260,492260.09999999,2023-05-12T16:06:58Z,492270.524,NULL,Übersicht,kilindo,d,NA,NA,NA,maen,NA,NA,3,NA,NA,NA,NA,NA,NA,NA,NA,NA,NA,NA,NA,NA,NA,NA,NA,NA,NA,NA
7901b,"""Richtig""-Screen",canvas.Screen,3_0_3_0_5_0_1,NA,NA,skipped,NA,492262.09999999,NA,NA,492260,492262.3,2023-05-12T16:06:58Z,492270.524,NULL,Übersicht,kilindo,d,NA,NA,NA,NA,qt,NA,3,NA,NA,NA,NA,NA,NA,NA,NA,NA,NA,NA,NA,NA,NA,NA,NA,NA,NA,NA
7901b,"""Falsch""-Screen",canvas.Screen,3_0_3_0_5_0_2,NA,NA,timeout,4996.129,492262.8,492254.03,492270.524,497250.224,497250.7,2023-05-12T16:07:03Z,497266.653,NULL,Übersicht,kilindo,d,NA,NA,NA,NA,qt,0,3,NA,NA,NA,NA,NA,NA,NA,NA,NA,NA,NA,NA,NA,NA,NA,NA,NA,NA,NA
7901b,deep,flow.Sequence,3_0_3_0_5_0,NA,NA,completion,12456.71,484779.09999999,484776.642,484793.514,497250.224,497251,2023-05-12T16:07:03Z,497266.653,NULL,Übersicht,kilindo,d,NA,NA,NA,NA,qt,NA,3,NA,NA,NA,NA,NA,NA,NA,NA,NA,NA,NA,NA,NA,NA,NA,NA,NA,NA,NA
7901b,shallow,flow.Sequence,3_0_3_0_5_1,NA,NA,skipped,NA,497251,NA,NA,497250.224,497251.09999999,2023-05-12T16:07:03Z,497266.653,NULL,Übersicht,kilindo,d,NA,NA,NA,NA,qt,NA,3,NA,NA,NA,NA,NA,NA,NA,NA,NA,NA,NA,NA,NA,NA,NA,NA,NA,NA,NA
7901b,task,flow.Sequence,3_0_3_0_5,NA,NA,completion,12456.71,484779,484776.642,484793.514,497250.224,497251.2,2023-05-12T16:07:03Z,497266.653,NULL,Übersicht,kilindo,d,NA,NA,NA,NA,qt,NA,3,NA,NA,NA,NA,NA,NA,NA,NA,NA,NA,NA,NA,NA,NA,NA,NA,NA,NA,NA
7901b,deep,flow.Sequence,3_0_3_0_6_0,NA,NA,skipped,NA,497251.2,NA,NA,497250.224,497251.3,2023-05-12T16:07:03Z,497266.653,NULL,Papier,karatasi,s,uchambuzi,usalama,kukataliwa,NA,qt,NA,3,NA,NA,NA,NA,NA,NA,NA,NA,NA,NA,NA,NA,NA,NA,NA,NA,NA,NA,NA
7901b,Shallow Question,html.Page,3_0_3_0_6_1_0,NA,NA,form submission,2217.646999997,497251.40000001,497250.224,497266.653,499484.3,499484.40000001,2023-05-12T16:07:05Z,499498.349,NULL,Papier,karatasi,s,uchambuzi,usalama,kukataliwa,karatasi,NA,NA,3,NA,NA,NA,NA,NA,NA,NA,NA,NA,NA,NA,NA,NA,NA,NA,NA,NA,NA,NA
7901b,"""Richtig""-Screen",canvas.Screen,3_0_3_0_6_1_1,NA,NA,timeout,4995.189,499486.09999999,499481.552,499498.349,504477.417,504478.40000001,2023-05-12T16:07:10Z,504493.538,NULL,Papier,karatasi,s,uchambuzi,usalama,kukataliwa,NA,qt,1,3,NA,NA,NA,NA,NA,NA,NA,NA,NA,NA,NA,NA,NA,NA,NA,NA,NA,NA,NA
7901b,"""Falsch""-Screen",canvas.Screen,3_0_3_0_6_1_2,NA,NA,skipped,NA,504484.3,NA,NA,504477.417,504484.7,2023-05-12T16:07:10Z,504493.538,NULL,Papier,karatasi,s,uchambuzi,usalama,kukataliwa,NA,qt,NA,3,NA,NA,NA,NA,NA,NA,NA,NA,NA,NA,NA,NA,NA,NA,NA,NA,NA,NA,NA
7901b,shallow,flow.Sequence,3_0_3_0_6_1,NA,NA,completion,7210.764,497251.3,497250.224,497266.653,504477.417,504485,2023-05-12T16:07:10Z,504493.538,NULL,Papier,karatasi,s,uchambuzi,usalama,kukataliwa,NA,qt,NA,3,NA,NA,NA,NA,NA,NA,NA,NA,NA,NA,NA,NA,NA,NA,NA,NA,NA,NA,NA
7901b,task,flow.Sequence,3_0_3_0_6,NA,NA,completion,7210.764,497251.2,497250.224,497266.653,504477.417,504485.3,2023-05-12T16:07:10Z,504493.538,NULL,Papier,karatasi,s,uchambuzi,usalama,kukataliwa,NA,qt,NA,3,NA,NA,NA,NA,NA,NA,NA,NA,NA,NA,NA,NA,NA,NA,NA,NA,NA,NA,NA
7901b,deep,flow.Sequence,3_0_3_0_7_0,NA,NA,skipped,NA,504485.5,NA,NA,504477.417,504485.59999999,2023-05-12T16:07:10Z,504493.538,NULL,System,maongozi,s,chokochoko,nuksani,mitaani,NA,qt,NA,3,NA,NA,NA,NA,NA,NA,NA,NA,NA,NA,NA,NA,NA,NA,NA,NA,NA,NA,NA
7901b,Shallow Question,html.Page,3_0_3_0_7_1_0,NA,NA,form submission,2180.761999997,504485.8,504477.417,504493.538,506674.3,506674.5,2023-05-12T16:07:12Z,506675.043,NULL,System,maongozi,s,chokochoko,nuksani,mitaani,maongozi,NA,NA,3,NA,NA,NA,NA,NA,NA,NA,NA,NA,NA,NA,NA,NA,NA,NA,NA,NA,NA,NA
7901b,"""Richtig""-Screen",canvas.Screen,3_0_3_0_7_1_1,NA,NA,timeout,4996.103,506675.2,506658.746,506675.043,511654.868,511655.8,2023-05-12T16:07:17Z,511671.146,NULL,System,maongozi,s,chokochoko,nuksani,mitaani,NA,qt,1,3,NA,NA,NA,NA,NA,NA,NA,NA,NA,NA,NA,NA,NA,NA,NA,NA,NA,NA,NA
7901b,"""Falsch""-Screen",canvas.Screen,3_0_3_0_7_1_2,NA,NA,skipped,NA,511660.90000001,NA,NA,511654.868,511661.2,2023-05-12T16:07:17Z,511671.146,NULL,System,maongozi,s,chokochoko,nuksani,mitaani,NA,qt,NA,3,NA,NA,NA,NA,NA,NA,NA,NA,NA,NA,NA,NA,NA,NA,NA,NA,NA,NA,NA
7901b,shallow,flow.Sequence,3_0_3_0_7_1,NA,NA,completion,7161.33,504485.7,504477.417,504493.538,511654.868,511661.5,2023-05-12T16:07:17Z,511671.146,NULL,System,maongozi,s,chokochoko,nuksani,mitaani,NA,qt,NA,3,NA,NA,NA,NA,NA,NA,NA,NA,NA,NA,NA,NA,NA,NA,NA,NA,NA,NA,NA
7901b,task,flow.Sequence,3_0_3_0_7,NA,NA,completion,7161.33,504485.40000001,504477.417,504493.538,511654.868,511661.8,2023-05-12T16:07:17Z,511671.146,NULL,System,maongozi,s,chokochoko,nuksani,mitaani,NA,qt,NA,3,NA,NA,NA,NA,NA,NA,NA,NA,NA,NA,NA,NA,NA,NA,NA,NA,NA,NA,NA
7901b,block,flow.Loop,3_0_3_0,NA,NA,completion,98919.182,412728.2,412719.098,412735.686,511654.868,511662,2023-05-12T16:07:17Z,511671.146,NULL,NA,NA,NA,NA,NA,NA,NA,qt,NA,3,NA,NA,NA,NA,NA,NA,NA,NA,NA,NA,NA,NA,NA,NA,NA,NA,NA,NA,NA
7901b,weiter,canvas.Screen,3_0_3_1,sdf,keypress(Space),response,727.75400000595,511662.2,511654.868,511671.146,512398.90000001,512400.40000001,2023-05-12T16:07:18Z,512437.694,NULL,NA,NA,NA,NA,NA,NA,NA,qt,NA,3,NA,NA,NA,NA,NA,NA,NA,NA,NA,NA,NA,NA,NA,NA,NA,NA,NA,NA,NA
7901b,check continue,flow.Sequence,3_0_3,NA,NA,completion,99663.214000006,412728.2,412719.098,412735.686,512398.90000001,512400.7,2023-05-12T16:07:18Z,512437.694,NULL,NA,NA,NA,NA,NA,NA,NA,qt,NA,3,NA,NA,NA,NA,NA,NA,NA,NA,NA,NA,NA,NA,NA,NA,NA,NA,NA,NA,NA
7901b,deep,flow.Sequence,3_0_4_0_0_0,NA,NA,skipped,NA,512427,NA,NA,512398.90000001,512427.2,2023-05-12T16:07:18Z,512437.694,NULL,Niveau,kiwango,s,usimamizi,mwamali,mshairi,NA,sd,NA,4,NA,NA,NA,NA,NA,NA,NA,NA,NA,NA,NA,NA,NA,NA,NA,NA,NA,NA,NA
7901b,Shallow Question,html.Page,3_0_4_0_0_1_0,NA,NA,form submission,2608.105999997,512427.3,512420.862,512437.694,515045.8,515046,2023-05-12T16:07:21Z,515051.492,NULL,Niveau,kiwango,s,usimamizi,mwamali,mshairi,kiwango,NA,NA,4,NA,NA,NA,NA,NA,NA,NA,NA,NA,NA,NA,NA,NA,NA,NA,NA,NA,NA,NA
7901b,"""Richtig""-Screen",canvas.Screen,3_0_4_0_0_1_1,NA,NA,timeout,4996.604,515047,515035.027,515051.492,520031.279,520032.40000001,2023-05-12T16:07:26Z,520048.096,NULL,Niveau,kiwango,s,usimamizi,mwamali,mshairi,NA,sd,1,4,NA,NA,NA,NA,NA,NA,NA,NA,NA,NA,NA,NA,NA,NA,NA,NA,NA,NA,NA
7901b,"""Falsch""-Screen",canvas.Screen,3_0_4_0_0_1_2,NA,NA,skipped,NA,520036.8,NA,NA,520031.279,520037,2023-05-12T16:07:26Z,520048.096,NULL,Niveau,kiwango,s,usimamizi,mwamali,mshairi,NA,sd,NA,4,NA,NA,NA,NA,NA,NA,NA,NA,NA,NA,NA,NA,NA,NA,NA,NA,NA,NA,NA
7901b,shallow,flow.Sequence,3_0_4_0_0_1,NA,NA,completion,7593.585,512427.2,512420.862,512437.694,520031.279,520037,2023-05-12T16:07:26Z,520048.096,NULL,Niveau,kiwango,s,usimamizi,mwamali,mshairi,NA,sd,NA,4,NA,NA,NA,NA,NA,NA,NA,NA,NA,NA,NA,NA,NA,NA,NA,NA,NA,NA,NA
7901b,task,flow.Sequence,3_0_4_0_0,NA,NA,completion,7593.585,512427,512420.862,512437.694,520031.279,520037.09999999,2023-05-12T16:07:26Z,520048.096,NULL,Niveau,kiwango,s,usimamizi,mwamali,mshairi,NA,sd,NA,4,NA,NA,NA,NA,NA,NA,NA,NA,NA,NA,NA,NA,NA,NA,NA,NA,NA,NA,NA
7901b,Deep Question,html.Page,3_0_4_0_1_0_0,NA,NA,form submission,6647.104000003,520037.2,520031.279,520048.096,526695.2,526695.40000001,2023-05-12T16:07:32Z,526709.096,NULL,Körper,kiwiliwili,d,NA,NA,NA,kiwiliwili,NA,NA,4,NA,NA,NA,NA,NA,NA,NA,NA,NA,NA,NA,NA,NA,NA,NA,NA,NA,NA,NA
7901b,"""Richtig""-Screen",canvas.Screen,3_0_4_0_1_0_1,NA,NA,timeout,4996.01,526698.09999999,526692.343,526709.096,531688.47,531688.8,2023-05-12T16:07:37Z,531705.106,NULL,Körper,kiwiliwili,d,NA,NA,NA,NA,sd,1,4,NA,NA,NA,NA,NA,NA,NA,NA,NA,NA,NA,NA,NA,NA,NA,NA,NA,NA,NA
7901b,"""Falsch""-Screen",canvas.Screen,3_0_4_0_1_0_2,NA,NA,skipped,NA,531690.5,NA,NA,531688.47,531690.59999999,2023-05-12T16:07:37Z,531705.106,NULL,Körper,kiwiliwili,d,NA,NA,NA,NA,sd,NA,4,NA,NA,NA,NA,NA,NA,NA,NA,NA,NA,NA,NA,NA,NA,NA,NA,NA,NA,NA
7901b,deep,flow.Sequence,3_0_4_0_1_0,NA,NA,completion,11640.374,520037.2,520031.279,520048.096,531688.47,531690.7,2023-05-12T16:07:37Z,531705.106,NULL,Körper,kiwiliwili,d,NA,NA,NA,NA,sd,NA,4,NA,NA,NA,NA,NA,NA,NA,NA,NA,NA,NA,NA,NA,NA,NA,NA,NA,NA,NA
7901b,shallow,flow.Sequence,3_0_4_0_1_1,NA,NA,skipped,NA,531690.8,NA,NA,531688.47,531690.8,2023-05-12T16:07:37Z,531705.106,NULL,Körper,kiwiliwili,d,NA,NA,NA,NA,sd,NA,4,NA,NA,NA,NA,NA,NA,NA,NA,NA,NA,NA,NA,NA,NA,NA,NA,NA,NA,NA
7901b,task,flow.Sequence,3_0_4_0_1,NA,NA,completion,11640.374,520037.2,520031.279,520048.096,531688.47,531690.8,2023-05-12T16:07:37Z,531705.106,NULL,Körper,kiwiliwili,d,NA,NA,NA,NA,sd,NA,4,NA,NA,NA,NA,NA,NA,NA,NA,NA,NA,NA,NA,NA,NA,NA,NA,NA,NA,NA
7901b,deep,flow.Sequence,3_0_4_0_2_0,NA,NA,skipped,NA,531690.90000001,NA,NA,531688.47,531691,2023-05-12T16:07:37Z,531705.106,NULL,Papier,karatasi,s,uchambuzi,usalama,kukataliwa,NA,sd,NA,4,NA,NA,NA,NA,NA,NA,NA,NA,NA,NA,NA,NA,NA,NA,NA,NA,NA,NA,NA
7901b,Shallow Question,html.Page,3_0_4_0_2_1_0,NA,NA,form submission,2532.594000003,531691,531688.47,531705.106,534237.7,534237.90000001,2023-05-12T16:07:40Z,534252.334,NULL,Papier,karatasi,s,uchambuzi,usalama,kukataliwa,karatasi,NA,NA,4,NA,NA,NA,NA,NA,NA,NA,NA,NA,NA,NA,NA,NA,NA,NA,NA,NA,NA,NA
7901b,"""Richtig""-Screen",canvas.Screen,3_0_4_0_2_1_1,NA,NA,timeout,4996.637,534238.7,534236.222,534252.334,539231.651,539233.40000001,2023-05-12T16:07:45Z,539248.971,NULL,Papier,karatasi,s,uchambuzi,usalama,kukataliwa,NA,sd,1,4,NA,NA,NA,NA,NA,NA,NA,NA,NA,NA,NA,NA,NA,NA,NA,NA,NA,NA,NA
7901b,"""Falsch""-Screen",canvas.Screen,3_0_4_0_2_1_2,NA,NA,skipped,NA,539238.40000001,NA,NA,539231.651,539238.40000001,2023-05-12T16:07:45Z,539248.971,NULL,Papier,karatasi,s,uchambuzi,usalama,kukataliwa,NA,sd,NA,4,NA,NA,NA,NA,NA,NA,NA,NA,NA,NA,NA,NA,NA,NA,NA,NA,NA,NA,NA
7901b,shallow,flow.Sequence,3_0_4_0_2_1,NA,NA,completion,7526.5449999999,531691,531688.47,531705.106,539231.651,539238.5,2023-05-12T16:07:45Z,539248.971,NULL,Papier,karatasi,s,uchambuzi,usalama,kukataliwa,NA,sd,NA,4,NA,NA,NA,NA,NA,NA,NA,NA,NA,NA,NA,NA,NA,NA,NA,NA,NA,NA,NA
7901b,task,flow.Sequence,3_0_4_0_2,NA,NA,completion,7526.5449999999,531690.90000001,531688.47,531705.106,539231.651,539238.59999999,2023-05-12T16:07:45Z,539248.971,NULL,Papier,karatasi,s,uchambuzi,usalama,kukataliwa,NA,sd,NA,4,NA,NA,NA,NA,NA,NA,NA,NA,NA,NA,NA,NA,NA,NA,NA,NA,NA,NA,NA
7901b,Deep Question,html.Page,3_0_4_0_3_0_0,NA,NA,form submission,6555.828999997,539238.59999999,539231.651,539248.971,545804.8,545805,2023-05-12T16:07:51Z,545809.459,NULL,Übersicht,kilindo,d,NA,NA,NA,mashtaka,NA,NA,4,NA,NA,NA,NA,NA,NA,NA,NA,NA,NA,NA,NA,NA,NA,NA,NA,NA,NA,NA
7901b,"""Richtig""-Screen",canvas.Screen,3_0_4_0_3_0_1,NA,NA,skipped,NA,545807.40000001,NA,NA,545804.8,545807.59999999,2023-05-12T16:07:51Z,545809.459,NULL,Übersicht,kilindo,d,NA,NA,NA,NA,sd,NA,4,NA,NA,NA,NA,NA,NA,NA,NA,NA,NA,NA,NA,NA,NA,NA,NA,NA,NA,NA
7901b,"""Falsch""-Screen",canvas.Screen,3_0_4_0_3_0_2,NA,NA,timeout,4995.988,545808.59999999,545793.087,545809.459,550788.943,550790,2023-05-12T16:07:56Z,550805.447,NULL,Übersicht,kilindo,d,NA,NA,NA,NA,sd,0,4,NA,NA,NA,NA,NA,NA,NA,NA,NA,NA,NA,NA,NA,NA,NA,NA,NA,NA,NA
7901b,deep,flow.Sequence,3_0_4_0_3_0,NA,NA,completion,11539.972,539238.59999999,539231.651,539248.971,550788.943,550790.5,2023-05-12T16:07:56Z,550805.447,NULL,Übersicht,kilindo,d,NA,NA,NA,NA,sd,NA,4,NA,NA,NA,NA,NA,NA,NA,NA,NA,NA,NA,NA,NA,NA,NA,NA,NA,NA,NA
7901b,shallow,flow.Sequence,3_0_4_0_3_1,NA,NA,skipped,NA,550790.59999999,NA,NA,550788.943,550790.8,2023-05-12T16:07:56Z,550805.447,NULL,Übersicht,kilindo,d,NA,NA,NA,NA,sd,NA,4,NA,NA,NA,NA,NA,NA,NA,NA,NA,NA,NA,NA,NA,NA,NA,NA,NA,NA,NA
7901b,task,flow.Sequence,3_0_4_0_3,NA,NA,completion,11539.972,539238.59999999,539231.651,539248.971,550788.943,550791,2023-05-12T16:07:56Z,550805.447,NULL,Übersicht,kilindo,d,NA,NA,NA,NA,sd,NA,4,NA,NA,NA,NA,NA,NA,NA,NA,NA,NA,NA,NA,NA,NA,NA,NA,NA,NA,NA
7901b,Deep Question,html.Page,3_0_4_0_4_0_0,NA,NA,form submission,4853.652999994,550791.2,550788.943,550805.447,555659.09999999,555659.2,2023-05-12T16:08:01Z,555668.212,NULL,Entwicklung,maendeleo,d,NA,NA,NA,maendeleo,NA,NA,4,NA,NA,NA,NA,NA,NA,NA,NA,NA,NA,NA,NA,NA,NA,NA,NA,NA,NA,NA
7901b,"""Richtig""-Screen",canvas.Screen,3_0_4_0_4_0_1,NA,NA,timeout,4995.821,555661.2,555651.374,555668.212,560647.346,560648.5,2023-05-12T16:08:06Z,560664.033,NULL,Entwicklung,maendeleo,d,NA,NA,NA,NA,sd,1,4,NA,NA,NA,NA,NA,NA,NA,NA,NA,NA,NA,NA,NA,NA,NA,NA,NA,NA,NA
7901b,"""Falsch""-Screen",canvas.Screen,3_0_4_0_4_0_2,NA,NA,skipped,NA,560653.90000001,NA,NA,560647.346,560654.3,2023-05-12T16:08:06Z,560664.033,NULL,Entwicklung,maendeleo,d,NA,NA,NA,NA,sd,NA,4,NA,NA,NA,NA,NA,NA,NA,NA,NA,NA,NA,NA,NA,NA,NA,NA,NA,NA,NA
7901b,deep,flow.Sequence,3_0_4_0_4_0,NA,NA,completion,9841.899,550791.2,550788.943,550805.447,560647.346,560654.59999999,2023-05-12T16:08:06Z,560664.033,NULL,Entwicklung,maendeleo,d,NA,NA,NA,NA,sd,NA,4,NA,NA,NA,NA,NA,NA,NA,NA,NA,NA,NA,NA,NA,NA,NA,NA,NA,NA,NA
7901b,shallow,flow.Sequence,3_0_4_0_4_1,NA,NA,skipped,NA,560654.7,NA,NA,560647.346,560654.90000001,2023-05-12T16:08:06Z,560664.033,NULL,Entwicklung,maendeleo,d,NA,NA,NA,NA,sd,NA,4,NA,NA,NA,NA,NA,NA,NA,NA,NA,NA,NA,NA,NA,NA,NA,NA,NA,NA,NA
7901b,task,flow.Sequence,3_0_4_0_4,NA,NA,completion,9841.899,550791.09999999,550788.943,550805.447,560647.346,560655.09999999,2023-05-12T16:08:06Z,560664.033,NULL,Entwicklung,maendeleo,d,NA,NA,NA,NA,sd,NA,4,NA,NA,NA,NA,NA,NA,NA,NA,NA,NA,NA,NA,NA,NA,NA,NA,NA,NA,NA
7901b,Deep Question,html.Page,3_0_4_0_5_0_0,NA,NA,form submission,5559.566999994,560655.40000001,560647.346,560664.033,566223.59999999,566223.8,2023-05-12T16:08:12Z,566225.983,NULL,Vorwurf,mashtaka,d,NA,NA,NA,mashtaka,NA,NA,4,NA,NA,NA,NA,NA,NA,NA,NA,NA,NA,NA,NA,NA,NA,NA,NA,NA,NA,NA
7901b,"""Richtig""-Screen",canvas.Screen,3_0_4_0_5_0_1,NA,NA,timeout,4995.982,566225.59999999,566209.591,566225.983,571206.098,571206.7,2023-05-12T16:08:17Z,571221.965,NULL,Vorwurf,mashtaka,d,NA,NA,NA,NA,sd,1,4,NA,NA,NA,NA,NA,NA,NA,NA,NA,NA,NA,NA,NA,NA,NA,NA,NA,NA,NA
7901b,"""Falsch""-Screen",canvas.Screen,3_0_4_0_5_0_2,NA,NA,skipped,NA,571208.40000001,NA,NA,571206.098,571208.5,2023-05-12T16:08:17Z,571221.965,NULL,Vorwurf,mashtaka,d,NA,NA,NA,NA,sd,NA,4,NA,NA,NA,NA,NA,NA,NA,NA,NA,NA,NA,NA,NA,NA,NA,NA,NA,NA,NA
7901b,deep,flow.Sequence,3_0_4_0_5_0,NA,NA,completion,10542.065,560655.3,560647.346,560664.033,571206.098,571208.59999999,2023-05-12T16:08:17Z,571221.965,NULL,Vorwurf,mashtaka,d,NA,NA,NA,NA,sd,NA,4,NA,NA,NA,NA,NA,NA,NA,NA,NA,NA,NA,NA,NA,NA,NA,NA,NA,NA,NA
7901b,shallow,flow.Sequence,3_0_4_0_5_1,NA,NA,skipped,NA,571208.59999999,NA,NA,571206.098,571208.7,2023-05-12T16:08:17Z,571221.965,NULL,Vorwurf,mashtaka,d,NA,NA,NA,NA,sd,NA,4,NA,NA,NA,NA,NA,NA,NA,NA,NA,NA,NA,NA,NA,NA,NA,NA,NA,NA,NA
7901b,task,flow.Sequence,3_0_4_0_5,NA,NA,completion,10542.065,560655.3,560647.346,560664.033,571206.098,571208.8,2023-05-12T16:08:17Z,571221.965,NULL,Vorwurf,mashtaka,d,NA,NA,NA,NA,sd,NA,4,NA,NA,NA,NA,NA,NA,NA,NA,NA,NA,NA,NA,NA,NA,NA,NA,NA,NA,NA
7901b,deep,flow.Sequence,3_0_4_0_6_0,NA,NA,skipped,NA,571208.90000001,NA,NA,571206.098,571208.90000001,2023-05-12T16:08:17Z,571221.965,NULL,System,maongozi,s,chokochoko,nuksani,mitaani,NA,sd,NA,4,NA,NA,NA,NA,NA,NA,NA,NA,NA,NA,NA,NA,NA,NA,NA,NA,NA,NA,NA
7901b,Shallow Question,html.Page,3_0_4_0_6_1_0,NA,NA,form submission,2047.735000003,571208.90000001,571206.098,571221.965,573269.7,573269.8,2023-05-12T16:08:19Z,573270.212,NULL,System,maongozi,s,chokochoko,nuksani,mitaani,maongozi,NA,NA,4,NA,NA,NA,NA,NA,NA,NA,NA,NA,NA,NA,NA,NA,NA,NA,NA,NA,NA,NA
7901b,"""Richtig""-Screen",canvas.Screen,3_0_4_0_6_1_1,NA,NA,timeout,4996.558,573270.7,573253.654,573270.212,578250.069,578250.5,2023-05-12T16:08:24Z,578266.77,NULL,System,maongozi,s,chokochoko,nuksani,mitaani,NA,sd,1,4,NA,NA,NA,NA,NA,NA,NA,NA,NA,NA,NA,NA,NA,NA,NA,NA,NA,NA,NA
7901b,"""Falsch""-Screen",canvas.Screen,3_0_4_0_6_1_2,NA,NA,skipped,NA,578252.5,NA,NA,578250.069,578252.7,2023-05-12T16:08:24Z,578266.77,NULL,System,maongozi,s,chokochoko,nuksani,mitaani,NA,sd,NA,4,NA,NA,NA,NA,NA,NA,NA,NA,NA,NA,NA,NA,NA,NA,NA,NA,NA,NA,NA
7901b,shallow,flow.Sequence,3_0_4_0_6_1,NA,NA,completion,7028.1040000001,571208.90000001,571206.098,571221.965,578250.069,578252.8,2023-05-12T16:08:24Z,578266.77,NULL,System,maongozi,s,chokochoko,nuksani,mitaani,NA,sd,NA,4,NA,NA,NA,NA,NA,NA,NA,NA,NA,NA,NA,NA,NA,NA,NA,NA,NA,NA,NA
7901b,task,flow.Sequence,3_0_4_0_6,NA,NA,completion,7028.1040000001,571208.8,571206.098,571221.965,578250.069,578252.90000001,2023-05-12T16:08:24Z,578266.77,NULL,System,maongozi,s,chokochoko,nuksani,mitaani,NA,sd,NA,4,NA,NA,NA,NA,NA,NA,NA,NA,NA,NA,NA,NA,NA,NA,NA,NA,NA,NA,NA
7901b,deep,flow.Sequence,3_0_4_0_7_0,NA,NA,skipped,NA,578253,NA,NA,578250.069,578253,2023-05-12T16:08:24Z,578266.77,NULL,Lawine,banguko,s,maambukizi,usuluhishi,chekechea,NA,sd,NA,4,NA,NA,NA,NA,NA,NA,NA,NA,NA,NA,NA,NA,NA,NA,NA,NA,NA,NA,NA
7901b,Shallow Question,html.Page,3_0_4_0_7_1_0,NA,NA,form submission,2252.829999994,578253,578250.069,578266.77,580519.59999999,580519.8,2023-05-12T16:08:26Z,580531.269,NULL,Lawine,banguko,s,maambukizi,usuluhishi,chekechea,banguko,NA,NA,4,NA,NA,NA,NA,NA,NA,NA,NA,NA,NA,NA,NA,NA,NA,NA,NA,NA,NA,NA
7901b,"""Richtig""-Screen",canvas.Screen,3_0_4_0_7_1_1,NA,NA,timeout,4995.6310000001,580520.5,580514.696,580531.269,585510.467,585511.8,2023-05-12T16:08:31Z,585526.9,NULL,Lawine,banguko,s,maambukizi,usuluhishi,chekechea,NA,sd,1,4,NA,NA,NA,NA,NA,NA,NA,NA,NA,NA,NA,NA,NA,NA,NA,NA,NA,NA,NA
7901b,"""Falsch""-Screen",canvas.Screen,3_0_4_0_7_1_2,NA,NA,skipped,NA,585518,NA,NA,585510.467,585518.3,2023-05-12T16:08:31Z,585526.9,NULL,Lawine,banguko,s,maambukizi,usuluhishi,chekechea,NA,sd,NA,4,NA,NA,NA,NA,NA,NA,NA,NA,NA,NA,NA,NA,NA,NA,NA,NA,NA,NA,NA
7901b,shallow,flow.Sequence,3_0_4_0_7_1,NA,NA,completion,7243.6969999999,578253,578250.069,578266.77,585510.467,585518.7,2023-05-12T16:08:31Z,585526.9,NULL,Lawine,banguko,s,maambukizi,usuluhishi,chekechea,NA,sd,NA,4,NA,NA,NA,NA,NA,NA,NA,NA,NA,NA,NA,NA,NA,NA,NA,NA,NA,NA,NA
7901b,task,flow.Sequence,3_0_4_0_7,NA,NA,completion,7243.6969999999,578252.90000001,578250.069,578266.77,585510.467,585518.90000001,2023-05-12T16:08:31Z,585526.9,NULL,Lawine,banguko,s,maambukizi,usuluhishi,chekechea,NA,sd,NA,4,NA,NA,NA,NA,NA,NA,NA,NA,NA,NA,NA,NA,NA,NA,NA,NA,NA,NA,NA
7901b,block,flow.Loop,3_0_4_0,NA,NA,completion,73072.773,512427,512420.862,512437.694,585510.467,585519.09999999,2023-05-12T16:08:31Z,585526.9,NULL,NA,NA,NA,NA,NA,NA,NA,sd,NA,4,NA,NA,NA,NA,NA,NA,NA,NA,NA,NA,NA,NA,NA,NA,NA,NA,NA,NA,NA
7901b,weiter,canvas.Screen,3_0_4_1,sdf,keypress(Space),response,708.899999997,585519.3,585510.467,585526.9,586235.8,586237.2,2023-05-12T16:08:32Z,586709.13,NULL,NA,NA,NA,NA,NA,NA,NA,sd,NA,4,NA,NA,NA,NA,NA,NA,NA,NA,NA,NA,NA,NA,NA,NA,NA,NA,NA,NA,NA
7901b,check continue,flow.Sequence,3_0_4,NA,NA,completion,73798.105999997,512427,512420.862,512437.694,586235.8,586237.5,2023-05-12T16:08:32Z,586709.13,NULL,NA,NA,NA,NA,NA,NA,NA,sd,NA,4,NA,NA,NA,NA,NA,NA,NA,NA,NA,NA,NA,NA,NA,NA,NA,NA,NA,NA,NA
7901b,check continue,flow.Sequence,3_0_5,NA,NA,skipped,NA,586262.59999999,NA,NA,586235.8,586262.59999999,2023-05-12T16:08:32Z,586709.13,NULL,NA,NA,NA,NA,NA,NA,NA,sdf,NA,5,NA,NA,NA,NA,NA,NA,NA,NA,NA,NA,NA,NA,NA,NA,NA,NA,NA,NA,NA
7901b,check continue,flow.Sequence,3_0_6,NA,NA,skipped,NA,586281.5,NA,NA,586235.8,586281.5,2023-05-12T16:08:32Z,586709.13,NULL,NA,NA,NA,NA,NA,NA,NA,dfs,NA,6,NA,NA,NA,NA,NA,NA,NA,NA,NA,NA,NA,NA,NA,NA,NA,NA,NA,NA,NA
7901b,check continue,flow.Sequence,3_0_7,NA,NA,skipped,NA,586299.8,NA,NA,586235.8,586299.90000001,2023-05-12T16:08:32Z,586709.13,NULL,NA,NA,NA,NA,NA,NA,NA,df,NA,7,NA,NA,NA,NA,NA,NA,NA,NA,NA,NA,NA,NA,NA,NA,NA,NA,NA,NA,NA
7901b,check continue,flow.Sequence,3_0_8,NA,NA,skipped,NA,586318.5,NA,NA,586235.8,586318.7,2023-05-12T16:08:32Z,586709.13,NULL,NA,NA,NA,NA,NA,NA,NA,dfs,NA,8,NA,NA,NA,NA,NA,NA,NA,NA,NA,NA,NA,NA,NA,NA,NA,NA,NA,NA,NA
7901b,check continue,flow.Sequence,3_0_9,NA,NA,skipped,NA,586334.59999999,NA,NA,586235.8,586334.7,2023-05-12T16:08:32Z,586709.13,NULL,NA,NA,NA,NA,NA,NA,NA,dsf,NA,9,NA,NA,NA,NA,NA,NA,NA,NA,NA,NA,NA,NA,NA,NA,NA,NA,NA,NA,NA
7901b,check continue,flow.Sequence,3_0_10,NA,NA,skipped,NA,586350.8,NA,NA,586235.8,586350.90000001,2023-05-12T16:08:32Z,586709.13,NULL,NA,NA,NA,NA,NA,NA,NA,df,NA,10,NA,NA,NA,NA,NA,NA,NA,NA,NA,NA,NA,NA,NA,NA,NA,NA,NA,NA,NA
7901b,check continue,flow.Sequence,3_0_11,NA,NA,skipped,NA,586367.7,NA,NA,586235.8,586367.90000001,2023-05-12T16:08:32Z,586709.13,NULL,NA,NA,NA,NA,NA,NA,NA,dfs,NA,11,NA,NA,NA,NA,NA,NA,NA,NA,NA,NA,NA,NA,NA,NA,NA,NA,NA,NA,NA
7901b,check continue,flow.Sequence,3_0_12,NA,NA,skipped,NA,586387,NA,NA,586235.8,586387.2,2023-05-12T16:08:32Z,586709.13,NULL,NA,NA,NA,NA,NA,NA,NA,dsf,NA,12,NA,NA,NA,NA,NA,NA,NA,NA,NA,NA,NA,NA,NA,NA,NA,NA,NA,NA,NA
7901b,check continue,flow.Sequence,3_0_13,NA,NA,skipped,NA,586404.40000001,NA,NA,586235.8,586404.5,2023-05-12T16:08:32Z,586709.13,NULL,NA,NA,NA,NA,NA,NA,NA,dsf,NA,13,NA,NA,NA,NA,NA,NA,NA,NA,NA,NA,NA,NA,NA,NA,NA,NA,NA,NA,NA
7901b,check continue,flow.Sequence,3_0_14,NA,NA,skipped,NA,586422,NA,NA,586235.8,586422.2,2023-05-12T16:08:32Z,586709.13,NULL,NA,NA,NA,NA,NA,NA,NA,NA,NA,14,NA,NA,NA,NA,NA,NA,NA,NA,NA,NA,NA,NA,NA,NA,NA,NA,NA,NA,NA
7901b,check continue,flow.Sequence,3_0_15,NA,NA,skipped,NA,586439.7,NA,NA,586235.8,586439.7,2023-05-12T16:08:32Z,586709.13,NULL,NA,NA,NA,NA,NA,NA,NA,NA,NA,15,NA,NA,NA,NA,NA,NA,NA,NA,NA,NA,NA,NA,NA,NA,NA,NA,NA,NA,NA
7901b,check continue,flow.Sequence,3_0_16,NA,NA,skipped,NA,586456.5,NA,NA,586235.8,586456.59999999,2023-05-12T16:08:32Z,586709.13,NULL,NA,NA,NA,NA,NA,NA,NA,NA,NA,16,NA,NA,NA,NA,NA,NA,NA,NA,NA,NA,NA,NA,NA,NA,NA,NA,NA,NA,NA
7901b,check continue,flow.Sequence,3_0_17,NA,NA,skipped,NA,586471.3,NA,NA,586235.8,586471.40000001,2023-05-12T16:08:32Z,586709.13,NULL,NA,NA,NA,NA,NA,NA,NA,NA,NA,17,NA,NA,NA,NA,NA,NA,NA,NA,NA,NA,NA,NA,NA,NA,NA,NA,NA,NA,NA
7901b,check continue,flow.Sequence,3_0_18,NA,NA,skipped,NA,586485.59999999,NA,NA,586235.8,586485.8,2023-05-12T16:08:32Z,586709.13,NULL,NA,NA,NA,NA,NA,NA,NA,NA,NA,18,NA,NA,NA,NA,NA,NA,NA,NA,NA,NA,NA,NA,NA,NA,NA,NA,NA,NA,NA
7901b,check continue,flow.Sequence,3_0_19,NA,NA,skipped,NA,586508.90000001,NA,NA,586235.8,586509,2023-05-12T16:08:32Z,586709.13,NULL,NA,NA,NA,NA,NA,NA,NA,NA,NA,19,NA,NA,NA,NA,NA,NA,NA,NA,NA,NA,NA,NA,NA,NA,NA,NA,NA,NA,NA
7901b,check continue,flow.Sequence,3_0_20,NA,NA,skipped,NA,586523,NA,NA,586235.8,586523.09999999,2023-05-12T16:08:32Z,586709.13,NULL,NA,NA,NA,NA,NA,NA,NA,NA,NA,20,NA,NA,NA,NA,NA,NA,NA,NA,NA,NA,NA,NA,NA,NA,NA,NA,NA,NA,NA
7901b,check continue,flow.Sequence,3_0_21,NA,NA,skipped,NA,586540.59999999,NA,NA,586235.8,586540.7,2023-05-12T16:08:32Z,586709.13,NULL,NA,NA,NA,NA,NA,NA,NA,NA,NA,21,NA,NA,NA,NA,NA,NA,NA,NA,NA,NA,NA,NA,NA,NA,NA,NA,NA,NA,NA
7901b,check continue,flow.Sequence,3_0_22,NA,NA,skipped,NA,586555.5,NA,NA,586235.8,586555.59999999,2023-05-12T16:08:32Z,586709.13,NULL,NA,NA,NA,NA,NA,NA,NA,NA,NA,22,NA,NA,NA,NA,NA,NA,NA,NA,NA,NA,NA,NA,NA,NA,NA,NA,NA,NA,NA
7901b,check continue,flow.Sequence,3_0_23,NA,NA,skipped,NA,586570.40000001,NA,NA,586235.8,586570.59999999,2023-05-12T16:08:32Z,586709.13,NULL,NA,NA,NA,NA,NA,NA,NA,NA,NA,23,NA,NA,NA,NA,NA,NA,NA,NA,NA,NA,NA,NA,NA,NA,NA,NA,NA,NA,NA
7901b,check continue,flow.Sequence,3_0_24,NA,NA,skipped,NA,586586,NA,NA,586235.8,586586.09999999,2023-05-12T16:08:32Z,586709.13,NULL,NA,NA,NA,NA,NA,NA,NA,NA,NA,24,NA,NA,NA,NA,NA,NA,NA,NA,NA,NA,NA,NA,NA,NA,NA,NA,NA,NA,NA
7901b,check continue,flow.Sequence,3_0_25,NA,NA,skipped,NA,586602.5,NA,NA,586235.8,586602.7,2023-05-12T16:08:32Z,586709.13,NULL,NA,NA,NA,NA,NA,NA,NA,NA,NA,25,NA,NA,NA,NA,NA,NA,NA,NA,NA,NA,NA,NA,NA,NA,NA,NA,NA,NA,NA
7901b,check continue,flow.Sequence,3_0_26,NA,NA,skipped,NA,586631.8,NA,NA,586235.8,586631.90000001,2023-05-12T16:08:32Z,586709.13,NULL,NA,NA,NA,NA,NA,NA,NA,NA,NA,26,NA,NA,NA,NA,NA,NA,NA,NA,NA,NA,NA,NA,NA,NA,NA,NA,NA,NA,NA
7901b,check continue,flow.Sequence,3_0_27,NA,NA,skipped,NA,586650.8,NA,NA,586235.8,586650.90000001,2023-05-12T16:08:32Z,586709.13,NULL,NA,NA,NA,NA,NA,NA,NA,NA,NA,27,NA,NA,NA,NA,NA,NA,NA,NA,NA,NA,NA,NA,NA,NA,NA,NA,NA,NA,NA
7901b,check continue,flow.Sequence,3_0_28,NA,NA,skipped,NA,586685.59999999,NA,NA,586235.8,586685.7,2023-05-12T16:08:32Z,586709.13,NULL,NA,NA,NA,NA,NA,NA,NA,NA,NA,28,NA,NA,NA,NA,NA,NA,NA,NA,NA,NA,NA,NA,NA,NA,NA,NA,NA,NA,NA
7901b,check continue,flow.Sequence,3_0_29,NA,NA,skipped,NA,586703.40000001,NA,NA,586235.8,586703.5,2023-05-12T16:08:32Z,586709.13,NULL,NA,NA,NA,NA,NA,NA,NA,NA,NA,29,NA,NA,NA,NA,NA,NA,NA,NA,NA,NA,NA,NA,NA,NA,NA,NA,NA,NA,NA
7901b,until continue,flow.Loop,3_0,NA,NA,completion,401395.626,184808.09999999,184823.338,184840.174,586235.8,586703.7,2023-05-12T16:08:32Z,586709.13,NULL,NA,NA,NA,NA,NA,NA,NA,NA,NA,NA,NA,NA,NA,NA,NA,NA,NA,NA,NA,NA,NA,NA,NA,NA,NA,NA,NA,NA,NA
7901b,block 1,flow.Sequence,3,NA,NA,completion,401395.626,184808,184823.338,184840.174,586235.8,586703.7,2023-05-12T16:08:32Z,586709.13,NULL,NA,NA,NA,NA,NA,NA,NA,NA,NA,NA,NA,NA,NA,NA,NA,NA,NA,NA,NA,NA,NA,NA,NA,NA,NA,NA,NA,NA,NA
7901b,1.Part Over,canvas.Screen,4,NA,keypress(Space),response,3231.570000003,586703.8,586692.967,586709.13,589940.7,589941.90000001,2023-05-12T16:08:36Z,590006.468,NULL,NA,NA,NA,NA,NA,NA,NA,NA,NA,NA,NA,NA,NA,NA,NA,NA,NA,NA,NA,NA,NA,NA,NA,NA,NA,NA,NA,NA,NA
7901b,Deep Question,html.Page,5_0_0_0_0_0_0,NA,NA,form submission,2053.631999994,590001.5,589989.645,590006.468,592060.09999999,592060.3,2023-05-12T16:08:38Z,592071.373,NULL,Verzögerung,kuchelewa,d,NA,NA,NA,l,NA,NA,0,NA,NA,NA,NA,NA,NA,NA,NA,NA,NA,NA,NA,NA,NA,NA,NA,NA,NA,NA
7901b,"""Richtig""-Screen",canvas.Screen,5_0_0_0_0_0_1,NA,NA,skipped,NA,592061.3,NA,NA,592060.09999999,592061.5,2023-05-12T16:08:38Z,592071.373,NULL,Verzögerung,kuchelewa,d,NA,NA,NA,NA,sdf,NA,0,NA,NA,NA,NA,NA,NA,NA,NA,NA,NA,NA,NA,NA,NA,NA,NA,NA,NA,NA
7901b,"""Falsch""-Screen",canvas.Screen,5_0_0_0_0_0_2,NA,NA,timeout,4996.673,592062.09999999,592055.392,592071.373,597051.254,597051.8,2023-05-12T16:08:43Z,597068.046,NULL,Verzögerung,kuchelewa,d,NA,NA,NA,NA,sdf,0,0,NA,NA,NA,NA,NA,NA,NA,NA,NA,NA,NA,NA,NA,NA,NA,NA,NA,NA,NA
7901b,deep,flow.Sequence,5_0_0_0_0_0,NA,NA,completion,7044.786,590001.5,589989.645,590006.468,597051.254,597052,2023-05-12T16:08:43Z,597068.046,NULL,Verzögerung,kuchelewa,d,NA,NA,NA,NA,sdf,NA,0,NA,NA,NA,NA,NA,NA,NA,NA,NA,NA,NA,NA,NA,NA,NA,NA,NA,NA,NA
7901b,shallow,flow.Sequence,5_0_0_0_0_1,NA,NA,skipped,NA,597052.09999999,NA,NA,597051.254,597052.09999999,2023-05-12T16:08:43Z,597068.046,NULL,Verzögerung,kuchelewa,d,NA,NA,NA,NA,sdf,NA,0,NA,NA,NA,NA,NA,NA,NA,NA,NA,NA,NA,NA,NA,NA,NA,NA,NA,NA,NA
7901b,task,flow.Sequence,5_0_0_0_0,NA,NA,completion,7044.786,590001.5,589989.645,590006.468,597051.254,597052.3,2023-05-12T16:08:43Z,597068.046,NULL,Verzögerung,kuchelewa,d,NA,NA,NA,NA,sdf,NA,0,NA,NA,NA,NA,NA,NA,NA,NA,NA,NA,NA,NA,NA,NA,NA,NA,NA,NA,NA
7901b,deep,flow.Sequence,5_0_0_0_1_0,NA,NA,skipped,NA,597052.40000001,NA,NA,597051.254,597052.40000001,2023-05-12T16:08:43Z,597068.046,NULL,Integrität,uadilifu,s,muungano,mtiririko,upunguaji,NA,sdf,NA,0,NA,NA,NA,NA,NA,NA,NA,NA,NA,NA,NA,NA,NA,NA,NA,NA,NA,NA,NA
7901b,Shallow Question,html.Page,5_0_0_0_1_1_0,NA,NA,form submission,2495.954,597052.5,597051.254,597068.046,599564,599564.09999999,2023-05-12T16:08:45Z,599565.196,NULL,Integrität,uadilifu,s,muungano,mtiririko,upunguaji,upunguaji,NA,NA,0,NA,NA,NA,NA,NA,NA,NA,NA,NA,NA,NA,NA,NA,NA,NA,NA,NA,NA,NA
7901b,"""Richtig""-Screen",canvas.Screen,5_0_0_0_1_1_1,NA,NA,skipped,NA,599566.3,NA,NA,599564,599566.40000001,2023-05-12T16:08:45Z,599565.196,NULL,Integrität,uadilifu,s,muungano,mtiririko,upunguaji,NA,sdf,NA,0,NA,NA,NA,NA,NA,NA,NA,NA,NA,NA,NA,NA,NA,NA,NA,NA,NA,NA,NA
7901b,"""Falsch""-Screen",canvas.Screen,5_0_0_0_1_1_2,NA,NA,timeout,4996.5650000001,599567.3,599549.276,599565.196,604545.072,604546.09999999,2023-05-12T16:08:50Z,604561.761,NULL,Integrität,uadilifu,s,muungano,mtiririko,upunguaji,NA,sdf,0,0,NA,NA,NA,NA,NA,NA,NA,NA,NA,NA,NA,NA,NA,NA,NA,NA,NA,NA,NA
7901b,shallow,flow.Sequence,5_0_0_0_1_1,NA,NA,completion,7477.0260000001,597052.40000001,597051.254,597068.046,604545.072,604546.7,2023-05-12T16:08:50Z,604561.761,NULL,Integrität,uadilifu,s,muungano,mtiririko,upunguaji,NA,sdf,NA,0,NA,NA,NA,NA,NA,NA,NA,NA,NA,NA,NA,NA,NA,NA,NA,NA,NA,NA,NA
7901b,task,flow.Sequence,5_0_0_0_1,NA,NA,completion,7477.0260000001,597052.40000001,597051.254,597068.046,604545.072,604547,2023-05-12T16:08:50Z,604561.761,NULL,Integrität,uadilifu,s,muungano,mtiririko,upunguaji,NA,sdf,NA,0,NA,NA,NA,NA,NA,NA,NA,NA,NA,NA,NA,NA,NA,NA,NA,NA,NA,NA,NA
7901b,Deep Question,html.Page,5_0_0_0_2_0_0,NA,NA,form submission,1791.338999994,604547.3,604545.072,604561.761,606353.09999999,606353.40000001,2023-05-12T16:08:52Z,606359.596,NULL,Genehmigung,idhini,d,NA,NA,NA,k,NA,NA,0,NA,NA,NA,NA,NA,NA,NA,NA,NA,NA,NA,NA,NA,NA,NA,NA,NA,NA,NA
7901b,"""Richtig""-Screen",canvas.Screen,5_0_0_0_2_0_1,NA,NA,skipped,NA,606355.40000001,NA,NA,606353.09999999,606355.5,2023-05-12T16:08:52Z,606359.596,NULL,Genehmigung,idhini,d,NA,NA,NA,NA,sdf,NA,0,NA,NA,NA,NA,NA,NA,NA,NA,NA,NA,NA,NA,NA,NA,NA,NA,NA,NA,NA
7901b,"""Falsch""-Screen",canvas.Screen,5_0_0_0_2_0_2,NA,NA,timeout,4995.8929999999,606356.3,606342.986,606359.596,611339.451,611340.40000001,2023-05-12T16:08:57Z,611355.489,NULL,Genehmigung,idhini,d,NA,NA,NA,NA,sdf,0,0,NA,NA,NA,NA,NA,NA,NA,NA,NA,NA,NA,NA,NA,NA,NA,NA,NA,NA,NA
7901b,deep,flow.Sequence,5_0_0_0_2_0,NA,NA,completion,6777.6899999999,604547.3,604545.072,604561.761,611339.451,611340.7,2023-05-12T16:08:57Z,611355.489,NULL,Genehmigung,idhini,d,NA,NA,NA,NA,sdf,NA,0,NA,NA,NA,NA,NA,NA,NA,NA,NA,NA,NA,NA,NA,NA,NA,NA,NA,NA,NA
7901b,shallow,flow.Sequence,5_0_0_0_2_1,NA,NA,skipped,NA,611340.90000001,NA,NA,611339.451,611341,2023-05-12T16:08:57Z,611355.489,NULL,Genehmigung,idhini,d,NA,NA,NA,NA,sdf,NA,0,NA,NA,NA,NA,NA,NA,NA,NA,NA,NA,NA,NA,NA,NA,NA,NA,NA,NA,NA
7901b,task,flow.Sequence,5_0_0_0_2,NA,NA,completion,6777.6899999999,604547.09999999,604545.072,604561.761,611339.451,611342.2,2023-05-12T16:08:57Z,611355.489,NULL,Genehmigung,idhini,d,NA,NA,NA,NA,sdf,NA,0,NA,NA,NA,NA,NA,NA,NA,NA,NA,NA,NA,NA,NA,NA,NA,NA,NA,NA,NA
7901b,deep,flow.Sequence,5_0_0_0_3_0,NA,NA,skipped,NA,611342.59999999,NA,NA,611339.451,611342.8,2023-05-12T16:08:57Z,611355.489,NULL,Prüfung,mtihani,s,mkulima,mtizamo,ufumbuzi,NA,sdf,NA,0,NA,NA,NA,NA,NA,NA,NA,NA,NA,NA,NA,NA,NA,NA,NA,NA,NA,NA,NA
7901b,Shallow Question,html.Page,5_0_0_0_3_1_0,NA,NA,form submission,2512.8109999971,611343.09999999,611339.451,611355.489,613868.3,613868.5,2023-05-12T16:08:59Z,613870.121,NULL,Prüfung,mtihani,s,mkulima,mtizamo,ufumbuzi,mkulima,NA,NA,0,NA,NA,NA,NA,NA,NA,NA,NA,NA,NA,NA,NA,NA,NA,NA,NA,NA,NA,NA
7901b,"""Richtig""-Screen",canvas.Screen,5_0_0_0_3_1_1,NA,NA,skipped,NA,613870.7,NA,NA,613868.3,613870.90000001,2023-05-12T16:09:00Z,613870.121,NULL,Prüfung,mtihani,s,mkulima,mtizamo,ufumbuzi,NA,sdf,NA,0,NA,NA,NA,NA,NA,NA,NA,NA,NA,NA,NA,NA,NA,NA,NA,NA,NA,NA,NA
7901b,"""Falsch""-Screen",canvas.Screen,5_0_0_0_3_1_2,NA,NA,timeout,4995.8609999999,613871.59999999,613854.019,613870.121,618849.924,618850.90000001,2023-05-12T16:09:04Z,618865.982,NULL,Prüfung,mtihani,s,mkulima,mtizamo,ufumbuzi,NA,sdf,0,0,NA,NA,NA,NA,NA,NA,NA,NA,NA,NA,NA,NA,NA,NA,NA,NA,NA,NA,NA
7901b,shallow,flow.Sequence,5_0_0_0_3_1,NA,NA,completion,7494.4350000001,611343.09999999,611339.451,611355.489,618849.924,618851.3,2023-05-12T16:09:04Z,618865.982,NULL,Prüfung,mtihani,s,mkulima,mtizamo,ufumbuzi,NA,sdf,NA,0,NA,NA,NA,NA,NA,NA,NA,NA,NA,NA,NA,NA,NA,NA,NA,NA,NA,NA,NA
7901b,task,flow.Sequence,5_0_0_0_3,NA,NA,completion,7494.4350000001,611342.5,611339.451,611355.489,618849.924,618851.59999999,2023-05-12T16:09:04Z,618865.982,NULL,Prüfung,mtihani,s,mkulima,mtizamo,ufumbuzi,NA,sdf,NA,0,NA,NA,NA,NA,NA,NA,NA,NA,NA,NA,NA,NA,NA,NA,NA,NA,NA,NA,NA
7901b,Deep Question,html.Page,5_0_0_0_4_0_0,NA,NA,form submission,2817.018,618851.7,618849.924,618865.982,621683,621683.2,2023-05-12T16:09:07Z,621697.465,NULL,Kultur,utamaduni,d,NA,NA,NA,l,NA,NA,0,NA,NA,NA,NA,NA,NA,NA,NA,NA,NA,NA,NA,NA,NA,NA,NA,NA,NA,NA
7901b,"""Richtig""-Screen",canvas.Screen,5_0_0_0_4_0_1,NA,NA,skipped,NA,621685.09999999,NA,NA,621683,621685.2,2023-05-12T16:09:07Z,621697.465,NULL,Kultur,utamaduni,d,NA,NA,NA,NA,sdf,NA,0,NA,NA,NA,NA,NA,NA,NA,NA,NA,NA,NA,NA,NA,NA,NA,NA,NA,NA,NA
7901b,"""Falsch""-Screen",canvas.Screen,5_0_0_0_4_0_2,NA,NA,timeout,4995.983,621685.90000001,621680.887,621697.465,626676.319,626677.59999999,2023-05-12T16:09:12Z,626693.448,NULL,Kultur,utamaduni,d,NA,NA,NA,NA,sdf,0,0,NA,NA,NA,NA,NA,NA,NA,NA,NA,NA,NA,NA,NA,NA,NA,NA,NA,NA,NA
7901b,deep,flow.Sequence,5_0_0_0_4_0,NA,NA,completion,7810.3370000001,618851.7,618849.924,618865.982,626676.319,626678.09999999,2023-05-12T16:09:12Z,626693.448,NULL,Kultur,utamaduni,d,NA,NA,NA,NA,sdf,NA,0,NA,NA,NA,NA,NA,NA,NA,NA,NA,NA,NA,NA,NA,NA,NA,NA,NA,NA,NA
7901b,shallow,flow.Sequence,5_0_0_0_4_1,NA,NA,skipped,NA,626678.3,NA,NA,626676.319,626678.40000001,2023-05-12T16:09:12Z,626693.448,NULL,Kultur,utamaduni,d,NA,NA,NA,NA,sdf,NA,0,NA,NA,NA,NA,NA,NA,NA,NA,NA,NA,NA,NA,NA,NA,NA,NA,NA,NA,NA
7901b,task,flow.Sequence,5_0_0_0_4,NA,NA,completion,7810.3370000001,618851.7,618849.924,618865.982,626676.319,626678.7,2023-05-12T16:09:12Z,626693.448,NULL,Kultur,utamaduni,d,NA,NA,NA,NA,sdf,NA,0,NA,NA,NA,NA,NA,NA,NA,NA,NA,NA,NA,NA,NA,NA,NA,NA,NA,NA,NA
7901b,deep,flow.Sequence,5_0_0_0_5_0,NA,NA,skipped,NA,626678.90000001,NA,NA,626676.319,626679,2023-05-12T16:09:12Z,626693.448,NULL,Aufstand,ugomaji,s,mazidio,msingi,kujieleza,NA,sdf,NA,0,NA,NA,NA,NA,NA,NA,NA,NA,NA,NA,NA,NA,NA,NA,NA,NA,NA,NA,NA
7901b,Shallow Question,html.Page,5_0_0_0_5_1_0,NA,NA,form submission,1802.1519999941,626679.2,626676.319,626693.448,628495.59999999,628495.7,2023-05-12T16:09:14Z,628508.699,NULL,Aufstand,ugomaji,s,mazidio,msingi,kujieleza,kujieleza,NA,NA,0,NA,NA,NA,NA,NA,NA,NA,NA,NA,NA,NA,NA,NA,NA,NA,NA,NA,NA,NA
7901b,"""Richtig""-Screen",canvas.Screen,5_0_0_0_5_1_1,NA,NA,skipped,NA,628497.7,NA,NA,628495.59999999,628497.8,2023-05-12T16:09:14Z,628508.699,NULL,Aufstand,ugomaji,s,mazidio,msingi,kujieleza,NA,sdf,NA,0,NA,NA,NA,NA,NA,NA,NA,NA,NA,NA,NA,NA,NA,NA,NA,NA,NA,NA,NA
7901b,"""Falsch""-Screen",canvas.Screen,5_0_0_0_5_1_2,NA,NA,timeout,4995.6459999999,628498.2,628491.558,628508.699,633488.246,633488.59999999,2023-05-12T16:09:19Z,633504.345,NULL,Aufstand,ugomaji,s,mazidio,msingi,kujieleza,NA,sdf,0,0,NA,NA,NA,NA,NA,NA,NA,NA,NA,NA,NA,NA,NA,NA,NA,NA,NA,NA,NA
7901b,shallow,flow.Sequence,5_0_0_0_5_1,NA,NA,completion,6794.7980000001,626679.09999999,626676.319,626693.448,633488.246,633488.8,2023-05-12T16:09:19Z,633504.345,NULL,Aufstand,ugomaji,s,mazidio,msingi,kujieleza,NA,sdf,NA,0,NA,NA,NA,NA,NA,NA,NA,NA,NA,NA,NA,NA,NA,NA,NA,NA,NA,NA,NA
7901b,task,flow.Sequence,5_0_0_0_5,NA,NA,completion,6794.7980000001,626678.8,626676.319,626693.448,633488.246,633489,2023-05-12T16:09:19Z,633504.345,NULL,Aufstand,ugomaji,s,mazidio,msingi,kujieleza,NA,sdf,NA,0,NA,NA,NA,NA,NA,NA,NA,NA,NA,NA,NA,NA,NA,NA,NA,NA,NA,NA,NA
7901b,deep,flow.Sequence,5_0_0_0_6_0,NA,NA,skipped,NA,633489.09999999,NA,NA,633488.246,633489.09999999,2023-05-12T16:09:19Z,633504.345,NULL,Fleisch,mshakiki,s,kizunguzungu,mshikamano,angusho,NA,sdf,NA,0,NA,NA,NA,NA,NA,NA,NA,NA,NA,NA,NA,NA,NA,NA,NA,NA,NA,NA,NA
7901b,Shallow Question,html.Page,5_0_0_0_6_1_0,NA,NA,form submission,1200.855000003,633489.09999999,633488.246,633504.345,634705.2,634705.40000001,2023-05-12T16:09:20Z,634720.243,NULL,Fleisch,mshakiki,s,kizunguzungu,mshikamano,angusho,mshikamano,NA,NA,0,NA,NA,NA,NA,NA,NA,NA,NA,NA,NA,NA,NA,NA,NA,NA,NA,NA,NA,NA
7901b,"""Richtig""-Screen",canvas.Screen,5_0_0_0_6_1_1,NA,NA,skipped,NA,634707.3,NA,NA,634705.2,634707.40000001,2023-05-12T16:09:20Z,634720.243,NULL,Fleisch,mshakiki,s,kizunguzungu,mshikamano,angusho,NA,sdf,NA,0,NA,NA,NA,NA,NA,NA,NA,NA,NA,NA,NA,NA,NA,NA,NA,NA,NA,NA,NA
7901b,"""Falsch""-Screen",canvas.Screen,5_0_0_0_6_1_2,NA,NA,timeout,4995.5379999999,634708,634703.491,634720.243,639699.438,639700.3,2023-05-12T16:09:25Z,639715.781,NULL,Fleisch,mshakiki,s,kizunguzungu,mshikamano,angusho,NA,sdf,0,0,NA,NA,NA,NA,NA,NA,NA,NA,NA,NA,NA,NA,NA,NA,NA,NA,NA,NA,NA
7901b,shallow,flow.Sequence,5_0_0_0_6_1,NA,NA,completion,6195.093,633489.09999999,633488.246,633504.345,639699.438,639700.7,2023-05-12T16:09:25Z,639715.781,NULL,Fleisch,mshakiki,s,kizunguzungu,mshikamano,angusho,NA,sdf,NA,0,NA,NA,NA,NA,NA,NA,NA,NA,NA,NA,NA,NA,NA,NA,NA,NA,NA,NA,NA
7901b,task,flow.Sequence,5_0_0_0_6,NA,NA,completion,6195.093,633489,633488.246,633504.345,639699.438,639700.90000001,2023-05-12T16:09:25Z,639715.781,NULL,Fleisch,mshakiki,s,kizunguzungu,mshikamano,angusho,NA,sdf,NA,0,NA,NA,NA,NA,NA,NA,NA,NA,NA,NA,NA,NA,NA,NA,NA,NA,NA,NA,NA
7901b,Deep Question,html.Page,5_0_0_0_7_0_0,NA,NA,form submission,2156.219,639701.2,639699.438,639715.781,641872,641872.2,2023-05-12T16:09:28Z,641880.374,NULL,Begegnung,kukutana,d,NA,NA,NA,l,NA,NA,0,NA,NA,NA,NA,NA,NA,NA,NA,NA,NA,NA,NA,NA,NA,NA,NA,NA,NA,NA
7901b,"""Richtig""-Screen",canvas.Screen,5_0_0_0_7_0_1,NA,NA,skipped,NA,641874.09999999,NA,NA,641872,641874.2,2023-05-12T16:09:28Z,641880.374,NULL,Begegnung,kukutana,d,NA,NA,NA,NA,sdf,NA,0,NA,NA,NA,NA,NA,NA,NA,NA,NA,NA,NA,NA,NA,NA,NA,NA,NA,NA,NA
7901b,"""Falsch""-Screen",canvas.Screen,5_0_0_0_7_0_2,NA,NA,timeout,4995.897,641874.8,641864.084,641880.374,646860.177,646861.09999999,2023-05-12T16:09:32Z,646876.271,NULL,Begegnung,kukutana,d,NA,NA,NA,NA,sdf,0,0,NA,NA,NA,NA,NA,NA,NA,NA,NA,NA,NA,NA,NA,NA,NA,NA,NA,NA,NA
7901b,deep,flow.Sequence,5_0_0_0_7_0,NA,NA,completion,7144.3960000001,639701.2,639699.438,639715.781,646860.177,646861.8,2023-05-12T16:09:32Z,646876.271,NULL,Begegnung,kukutana,d,NA,NA,NA,NA,sdf,NA,0,NA,NA,NA,NA,NA,NA,NA,NA,NA,NA,NA,NA,NA,NA,NA,NA,NA,NA,NA
7901b,shallow,flow.Sequence,5_0_0_0_7_1,NA,NA,skipped,NA,646862,NA,NA,646860.177,646862.3,2023-05-12T16:09:32Z,646876.271,NULL,Begegnung,kukutana,d,NA,NA,NA,NA,sdf,NA,0,NA,NA,NA,NA,NA,NA,NA,NA,NA,NA,NA,NA,NA,NA,NA,NA,NA,NA,NA
7901b,task,flow.Sequence,5_0_0_0_7,NA,NA,completion,7144.3960000001,639701.09999999,639699.438,639715.781,646860.177,646862.7,2023-05-12T16:09:32Z,646876.271,NULL,Begegnung,kukutana,d,NA,NA,NA,NA,sdf,NA,0,NA,NA,NA,NA,NA,NA,NA,NA,NA,NA,NA,NA,NA,NA,NA,NA,NA,NA,NA
7901b,block,flow.Loop,5_0_0_0,NA,NA,completion,56853.709,590001.5,589989.645,590006.468,646860.177,646863.09999999,2023-05-12T16:09:32Z,646876.271,NULL,NA,NA,NA,NA,NA,NA,NA,sdf,NA,0,NA,NA,NA,NA,NA,NA,NA,NA,NA,NA,NA,NA,NA,NA,NA,NA,NA,NA,NA
7901b,weiter,canvas.Screen,5_0_0_1,sdf,keypress(Space),response,753.42900000303,646863.3,646860.177,646876.271,647629.7,647634.59999999,2023-05-12T16:09:33Z,647676.305,NULL,NA,NA,NA,NA,NA,NA,NA,sdf,NA,0,NA,NA,NA,NA,NA,NA,NA,NA,NA,NA,NA,NA,NA,NA,NA,NA,NA,NA,NA
7901b,check continue,flow.Sequence,5_0_0,NA,NA,completion,57623.232000003,590001.5,589989.645,590006.468,647629.7,647634.8,2023-05-12T16:09:33Z,647676.305,NULL,NA,NA,NA,NA,NA,NA,NA,sdf,NA,0,NA,NA,NA,NA,NA,NA,NA,NA,NA,NA,NA,NA,NA,NA,NA,NA,NA,NA,NA
