observation,sender,sender_type,sender_id,response,response_action,ended_on,duration,time_run,time_render,time_show,time_end,time_commit,timestamp,time_switch,distractors,german,swahili,enc,distractor1,distractor2,distractor3,response_2,x,correct,x_2,url_vp,url_sess,meta_labjs_version,meta_location,meta_user_agent,meta_platform,meta_language,meta_locale,meta_time_zone,meta_timezone_offset,meta_screen_width,meta_screen_height,meta_scroll_width,meta_scroll_height,meta_window_inner_width,meta_window_inner_height,meta_device_pixel_ratio,meta_labjs_build_flavor,meta_labjs_build_commit
c370e,Introduction general,canvas.Screen,0,weiter,keypress(q),response,443928.55100001,1919.6000000238,1172.723,1938.749,445867.30000001,445871.60000002,2023-04-21T16:05:27Z,445873.883,NULL,NA,NA,NA,NA,NA,NA,NA,NA,NA,NA,211,1,20.2.4,https://neurocog.fernuni.ch/studies/vweber/sfink/encoding_immediate/index.html?vp=211&sess=1,"Mozilla/5.0 (Windows NT 10.0; Win64; x64) AppleWebKit/537.36 (KHTML, like Gecko) Chrome/111.0.0.0 Safari/537.36",Win32,de-CH,de,Europe/Zurich,-120,1536,864,1536,706,1536,754,1.25,production,f5b4a49f956347addd546a832a3327688c2c0fef
c370e,Introduction practice,canvas.Screen,1_0,NA,keypress(Space),response,12814.917000012,445872.10000002,445864.983,445873.883,458688.80000001,458689.40000001,2023-04-21T16:05:39Z,458696.693,NULL,NA,NA,NA,NA,NA,NA,NA,NA,NA,NA,NA,NA,NA,NA,NA,NA,NA,NA,NA,NA,NA,NA,NA,NA,NA,NA,NA,NA,NA
c370e,deep,flow.Sequence,1_1_0_0,NA,NA,skipped,NA,458689.5,NA,NA,458688.80000001,458690.80000001,2023-04-21T16:05:39Z,458696.693,"c(""distractor1"", ""distractor2"", ""distractor3"")",Gegenwart,hadhara,s,katiba,jokofu,mikopo,NA,NA,NA,NA,NA,NA,NA,NA,NA,NA,NA,NA,NA,NA,NA,NA,NA,NA,NA,NA,NA,NA,NA
c370e,Shallow Question,html.Page,1_1_0_1_0,NA,NA,form submission,17565.107000012,458690.90000001,458679.367,458696.693,476261.80000001,476262.40000001,2023-04-21T16:05:57Z,476282.291,"c(""distractor1"", ""distractor2"", ""distractor3"")",Gegenwart,hadhara,s,katiba,jokofu,mikopo,hadhara,NA,NA,NA,NA,NA,NA,NA,NA,NA,NA,NA,NA,NA,NA,NA,NA,NA,NA,NA,NA,NA,NA
c370e,"""Richtig""-Screen",canvas.Screen,1_1_0_1_1,NA,NA,timeout,4995.898,476266.40000001,476249.149,476282.291,481261.848,481266.70000002,2023-04-21T16:06:02Z,481278.189,"c(""distractor1"", ""distractor2"", ""distractor3"")",Gegenwart,hadhara,s,katiba,jokofu,mikopo,NA,NA,1,NA,NA,NA,NA,NA,NA,NA,NA,NA,NA,NA,NA,NA,NA,NA,NA,NA,NA,NA,NA
c370e,"""Falsch""-Screen",canvas.Screen,1_1_0_1_2,NA,NA,skipped,NA,481269.80000001,NA,NA,481261.848,481270.20000002,2023-04-21T16:06:02Z,481278.189,"c(""distractor1"", ""distractor2"", ""distractor3"")",Gegenwart,hadhara,s,katiba,jokofu,mikopo,NA,NA,NA,NA,NA,NA,NA,NA,NA,NA,NA,NA,NA,NA,NA,NA,NA,NA,NA,NA,NA,NA,NA
c370e,shallow,flow.Sequence,1_1_0_1,NA,NA,completion,22565.155,458690.90000001,458679.367,458696.693,481261.848,481270.60000002,2023-04-21T16:06:02Z,481278.189,"c(""distractor1"", ""distractor2"", ""distractor3"")",Gegenwart,hadhara,s,katiba,jokofu,mikopo,NA,NA,NA,NA,NA,NA,NA,NA,NA,NA,NA,NA,NA,NA,NA,NA,NA,NA,NA,NA,NA,NA,NA
c370e,task,flow.Sequence,1_1_0,NA,NA,completion,22565.155,458689.5,458679.367,458696.693,481261.848,481271,2023-04-21T16:06:02Z,481278.189,"c(""distractor1"", ""distractor2"", ""distractor3"")",Gegenwart,hadhara,s,katiba,jokofu,mikopo,NA,NA,NA,NA,NA,NA,NA,NA,NA,NA,NA,NA,NA,NA,NA,NA,NA,NA,NA,NA,NA,NA,NA
c370e,Deep Question,html.Page,1_1_1_0_0,NA,NA,form submission,10557.711000006,481271.30000001,481261.848,481278.189,491835.90000001,491836.20000002,2023-04-21T16:06:13Z,491862.929,"c(""distractor1"", ""distractor2"", ""distractor3"")",Schatten,kivuli,d,NA,NA,NA,jaka,NA,NA,NA,NA,NA,NA,NA,NA,NA,NA,NA,NA,NA,NA,NA,NA,NA,NA,NA,NA,NA,NA
c370e,"""Richtig""-Screen",canvas.Screen,1_1_1_0_1,NA,NA,skipped,NA,491838.5,NA,NA,491835.90000001,491838.70000002,2023-04-21T16:06:13Z,491862.929,"c(""distractor1"", ""distractor2"", ""distractor3"")",Schatten,kivuli,d,NA,NA,NA,NA,NA,NA,NA,NA,NA,NA,NA,NA,NA,NA,NA,NA,NA,NA,NA,NA,NA,NA,NA,NA,NA,NA
c370e,"""Falsch""-Screen",canvas.Screen,1_1_1_0_2,NA,NA,timeout,5002.828,491839.60000002,491820.027,491862.929,496848.697,496850.70000002,2023-04-21T16:06:18Z,496865.757,"c(""distractor1"", ""distractor2"", ""distractor3"")",Schatten,kivuli,d,NA,NA,NA,NA,NA,0,NA,NA,NA,NA,NA,NA,NA,NA,NA,NA,NA,NA,NA,NA,NA,NA,NA,NA,NA,NA
c370e,deep,flow.Sequence,1_1_1_0,NA,NA,completion,15570.508,481271.20000002,481261.848,481278.189,496848.697,496850.90000001,2023-04-21T16:06:18Z,496865.757,"c(""distractor1"", ""distractor2"", ""distractor3"")",Schatten,kivuli,d,NA,NA,NA,NA,NA,NA,NA,NA,NA,NA,NA,NA,NA,NA,NA,NA,NA,NA,NA,NA,NA,NA,NA,NA,NA,NA
c370e,shallow,flow.Sequence,1_1_1_1,NA,NA,skipped,NA,496851,NA,NA,496848.697,496851.10000002,2023-04-21T16:06:18Z,496865.757,"c(""distractor1"", ""distractor2"", ""distractor3"")",Schatten,kivuli,d,NA,NA,NA,NA,NA,NA,NA,NA,NA,NA,NA,NA,NA,NA,NA,NA,NA,NA,NA,NA,NA,NA,NA,NA,NA,NA
c370e,task,flow.Sequence,1_1_1,NA,NA,completion,15570.508,481271.10000002,481261.848,481278.189,496848.697,496851.20000002,2023-04-21T16:06:18Z,496865.757,"c(""distractor1"", ""distractor2"", ""distractor3"")",Schatten,kivuli,d,NA,NA,NA,NA,NA,NA,NA,NA,NA,NA,NA,NA,NA,NA,NA,NA,NA,NA,NA,NA,NA,NA,NA,NA,NA,NA
c370e,Deep Question,html.Page,1_1_2_0_0,NA,NA,form submission,5931.743,496851.40000001,496848.697,496865.757,502797.5,502797.80000001,2023-04-21T16:06:24Z,502827.739,"c(""distractor1"", ""distractor2"", ""distractor3"")",Gesundheit,salama,d,NA,NA,NA,sante,NA,NA,NA,NA,NA,NA,NA,NA,NA,NA,NA,NA,NA,NA,NA,NA,NA,NA,NA,NA,NA,NA
c370e,"""Richtig""-Screen",canvas.Screen,1_1_2_0_1,NA,NA,skipped,NA,502799.60000002,NA,NA,502797.5,502799.80000001,2023-04-21T16:06:24Z,502827.739,"c(""distractor1"", ""distractor2"", ""distractor3"")",Gesundheit,salama,d,NA,NA,NA,NA,NA,NA,NA,NA,NA,NA,NA,NA,NA,NA,NA,NA,NA,NA,NA,NA,NA,NA,NA,NA,NA,NA
c370e,"""Falsch""-Screen",canvas.Screen,1_1_2_0_2,NA,NA,timeout,4995.903,502800.40000001,502811.121,502827.739,507806.863,507809.60000002,2023-04-21T16:06:29Z,507823.642,"c(""distractor1"", ""distractor2"", ""distractor3"")",Gesundheit,salama,d,NA,NA,NA,NA,NA,0,NA,NA,NA,NA,NA,NA,NA,NA,NA,NA,NA,NA,NA,NA,NA,NA,NA,NA,NA,NA
c370e,deep,flow.Sequence,1_1_2_0,NA,NA,completion,10941.106,496851.30000001,496848.697,496865.757,507806.863,507809.80000001,2023-04-21T16:06:29Z,507823.642,"c(""distractor1"", ""distractor2"", ""distractor3"")",Gesundheit,salama,d,NA,NA,NA,NA,NA,NA,NA,NA,NA,NA,NA,NA,NA,NA,NA,NA,NA,NA,NA,NA,NA,NA,NA,NA,NA,NA
c370e,shallow,flow.Sequence,1_1_2_1,NA,NA,skipped,NA,507809.80000001,NA,NA,507806.863,507809.90000001,2023-04-21T16:06:29Z,507823.642,"c(""distractor1"", ""distractor2"", ""distractor3"")",Gesundheit,salama,d,NA,NA,NA,NA,NA,NA,NA,NA,NA,NA,NA,NA,NA,NA,NA,NA,NA,NA,NA,NA,NA,NA,NA,NA,NA,NA
c370e,task,flow.Sequence,1_1_2,NA,NA,completion,10941.106,496851.20000002,496848.697,496865.757,507806.863,507810,2023-04-21T16:06:29Z,507823.642,"c(""distractor1"", ""distractor2"", ""distractor3"")",Gesundheit,salama,d,NA,NA,NA,NA,NA,NA,NA,NA,NA,NA,NA,NA,NA,NA,NA,NA,NA,NA,NA,NA,NA,NA,NA,NA,NA,NA
c370e,deep,flow.Sequence,1_1_3_0,NA,NA,skipped,NA,507810,NA,NA,507806.863,507810.10000002,2023-04-21T16:06:29Z,507823.642,"c(""distractor1"", ""distractor2"", ""distractor3"")",Rückhalt,msaada,s,muhula,auwali,kiwimbe,NA,NA,NA,NA,NA,NA,NA,NA,NA,NA,NA,NA,NA,NA,NA,NA,NA,NA,NA,NA,NA,NA,NA
c370e,Shallow Question,html.Page,1_1_3_1_0,NA,NA,form submission,4699.0580000179,507810.20000002,507806.863,507823.642,512522.70000002,512523.20000002,2023-04-21T16:06:33Z,512535.844,"c(""distractor1"", ""distractor2"", ""distractor3"")",Rückhalt,msaada,s,muhula,auwali,kiwimbe,muhula,NA,NA,NA,NA,NA,NA,NA,NA,NA,NA,NA,NA,NA,NA,NA,NA,NA,NA,NA,NA,NA,NA
c370e,"""Richtig""-Screen",canvas.Screen,1_1_3_1_1,NA,NA,skipped,NA,512528.90000001,NA,NA,512522.70000002,512529.30000001,2023-04-21T16:06:33Z,512535.844,"c(""distractor1"", ""distractor2"", ""distractor3"")",Rückhalt,msaada,s,muhula,auwali,kiwimbe,NA,NA,NA,NA,NA,NA,NA,NA,NA,NA,NA,NA,NA,NA,NA,NA,NA,NA,NA,NA,NA,NA,NA
c370e,"""Falsch""-Screen",canvas.Screen,1_1_3_1_2,NA,NA,timeout,4996.404,512531.30000001,512519.794,512535.844,517515.31,517516.30000001,2023-04-21T16:06:38Z,517532.248,"c(""distractor1"", ""distractor2"", ""distractor3"")",Rückhalt,msaada,s,muhula,auwali,kiwimbe,NA,NA,0,NA,NA,NA,NA,NA,NA,NA,NA,NA,NA,NA,NA,NA,NA,NA,NA,NA,NA,NA,NA
c370e,shallow,flow.Sequence,1_1_3_1,NA,NA,completion,9691.668,507810.20000002,507806.863,507823.642,517515.31,517516.70000002,2023-04-21T16:06:38Z,517532.248,"c(""distractor1"", ""distractor2"", ""distractor3"")",Rückhalt,msaada,s,muhula,auwali,kiwimbe,NA,NA,NA,NA,NA,NA,NA,NA,NA,NA,NA,NA,NA,NA,NA,NA,NA,NA,NA,NA,NA,NA,NA
c370e,task,flow.Sequence,1_1_3,NA,NA,completion,9691.668,507810,507806.863,507823.642,517515.31,517517,2023-04-21T16:06:38Z,517532.248,"c(""distractor1"", ""distractor2"", ""distractor3"")",Rückhalt,msaada,s,muhula,auwali,kiwimbe,NA,NA,NA,NA,NA,NA,NA,NA,NA,NA,NA,NA,NA,NA,NA,NA,NA,NA,NA,NA,NA,NA,NA
c370e,Deep Question,html.Page,1_1_4_0_0,NA,NA,form submission,8284.252,517517.30000001,517515.31,517532.248,525816.5,525816.70000002,2023-04-21T16:06:47Z,525824.824,"c(""distractor1"", ""distractor2"", ""distractor3"")",Qualität,mtindo,d,NA,NA,NA,kaloka,NA,NA,NA,NA,NA,NA,NA,NA,NA,NA,NA,NA,NA,NA,NA,NA,NA,NA,NA,NA,NA,NA
c370e,"""Richtig""-Screen",canvas.Screen,1_1_4_0_1,NA,NA,skipped,NA,525819.40000001,NA,NA,525816.5,525819.5,2023-04-21T16:06:47Z,525824.824,"c(""distractor1"", ""distractor2"", ""distractor3"")",Qualität,mtindo,d,NA,NA,NA,NA,NA,NA,NA,NA,NA,NA,NA,NA,NA,NA,NA,NA,NA,NA,NA,NA,NA,NA,NA,NA,NA,NA
c370e,"""Falsch""-Screen",canvas.Screen,1_1_4_0_2,NA,NA,timeout,4996.502,525820.5,525808.784,525824.824,530804.35,530805.40000001,2023-04-21T16:06:52Z,530821.326,"c(""distractor1"", ""distractor2"", ""distractor3"")",Qualität,mtindo,d,NA,NA,NA,NA,NA,0,NA,NA,NA,NA,NA,NA,NA,NA,NA,NA,NA,NA,NA,NA,NA,NA,NA,NA,NA,NA
c370e,deep,flow.Sequence,1_1_4_0,NA,NA,completion,13272.102,517517.30000001,517515.31,517532.248,530804.35,530805.90000001,2023-04-21T16:06:52Z,530821.326,"c(""distractor1"", ""distractor2"", ""distractor3"")",Qualität,mtindo,d,NA,NA,NA,NA,NA,NA,NA,NA,NA,NA,NA,NA,NA,NA,NA,NA,NA,NA,NA,NA,NA,NA,NA,NA,NA,NA
c370e,shallow,flow.Sequence,1_1_4_1,NA,NA,skipped,NA,530806.20000002,NA,NA,530804.35,530806.30000000994,2023-04-21T16:06:52Z,530821.326,"c(""distractor1"", ""distractor2"", ""distractor3"")",Qualität,mtindo,d,NA,NA,NA,NA,NA,NA,NA,NA,NA,NA,NA,NA,NA,NA,NA,NA,NA,NA,NA,NA,NA,NA,NA,NA,NA,NA
c370e,task,flow.Sequence,1_1_4,NA,NA,completion,13272.102,517517.20000002,517515.31,517532.248,530804.35,530806.60000002,2023-04-21T16:06:52Z,530821.326,"c(""distractor1"", ""distractor2"", ""distractor3"")",Qualität,mtindo,d,NA,NA,NA,NA,NA,NA,NA,NA,NA,NA,NA,NA,NA,NA,NA,NA,NA,NA,NA,NA,NA,NA,NA,NA,NA,NA
c370e,deep,flow.Sequence,1_1_5_0,NA,NA,skipped,NA,530806.90000001,NA,NA,530804.35,530807.10000002,2023-04-21T16:06:52Z,530821.326,"c(""distractor1"", ""distractor2"", ""distractor3"")",Kritik,lawama,s,dereva,nafasi,mawazo,NA,NA,NA,NA,NA,NA,NA,NA,NA,NA,NA,NA,NA,NA,NA,NA,NA,NA,NA,NA,NA,NA,NA
c370e,Shallow Question,html.Page,1_1_5_1_0,NA,NA,form submission,4077.7740000238,530807.30000001,530804.35,530821.326,534899.10000002,534899.5,2023-04-21T16:06:56Z,534900.819,"c(""distractor1"", ""distractor2"", ""distractor3"")",Kritik,lawama,s,dereva,nafasi,mawazo,dereva,NA,NA,NA,NA,NA,NA,NA,NA,NA,NA,NA,NA,NA,NA,NA,NA,NA,NA,NA,NA,NA,NA
c370e,"""Richtig""-Screen",canvas.Screen,1_1_5_1_1,NA,NA,skipped,NA,534903.30000001,NA,NA,534899.10000002,534903.40000001,2023-04-21T16:06:56Z,534900.819,"c(""distractor1"", ""distractor2"", ""distractor3"")",Kritik,lawama,s,dereva,nafasi,mawazo,NA,NA,NA,NA,NA,NA,NA,NA,NA,NA,NA,NA,NA,NA,NA,NA,NA,NA,NA,NA,NA,NA,NA
c370e,"""Falsch""-Screen",canvas.Screen,1_1_5_1_2,NA,NA,timeout,4996.272,534904,534884.663,534900.819,539880.093,539881.10000002,2023-04-21T16:07:01Z,539897.091,"c(""distractor1"", ""distractor2"", ""distractor3"")",Kritik,lawama,s,dereva,nafasi,mawazo,NA,NA,0,NA,NA,NA,NA,NA,NA,NA,NA,NA,NA,NA,NA,NA,NA,NA,NA,NA,NA,NA,NA
c370e,shallow,flow.Sequence,1_1_5_1,NA,NA,completion,9058.767,530807.20000002,530804.35,530821.326,539880.093,539881.60000002,2023-04-21T16:07:01Z,539897.091,"c(""distractor1"", ""distractor2"", ""distractor3"")",Kritik,lawama,s,dereva,nafasi,mawazo,NA,NA,NA,NA,NA,NA,NA,NA,NA,NA,NA,NA,NA,NA,NA,NA,NA,NA,NA,NA,NA,NA,NA
c370e,task,flow.Sequence,1_1_5,NA,NA,completion,9058.767,530806.80000001,530804.35,530821.326,539880.093,539881.90000001,2023-04-21T16:07:01Z,539897.091,"c(""distractor1"", ""distractor2"", ""distractor3"")",Kritik,lawama,s,dereva,nafasi,mawazo,NA,NA,NA,NA,NA,NA,NA,NA,NA,NA,NA,NA,NA,NA,NA,NA,NA,NA,NA,NA,NA,NA,NA
c370e,block,flow.Loop,1_1,NA,NA,completion,81183.4,458689.5,458679.367,458696.693,539880.093,539882.20000002,2023-04-21T16:07:01Z,539897.091,"c(""distractor1"", ""distractor2"", ""distractor3"")",NA,NA,NA,NA,NA,NA,NA,NA,NA,NA,NA,NA,NA,NA,NA,NA,NA,NA,NA,NA,NA,NA,NA,NA,NA,NA,NA,NA,NA
c370e,Practice,flow.Sequence,1,NA,NA,completion,94006.21,445872,445864.983,445873.883,539880.093,539882.60000002,2023-04-21T16:07:01Z,539897.091,NULL,NA,NA,NA,NA,NA,NA,NA,NA,NA,NA,NA,NA,NA,NA,NA,NA,NA,NA,NA,NA,NA,NA,NA,NA,NA,NA,NA,NA,NA
c370e,Experiment start,canvas.Screen,2,weiter,keypress(q),response,18000.309000006,539882.80000001,539880.093,539897.091,557897.40000001,557898.10000002,2023-04-21T16:07:19Z,557982.085,NULL,NA,NA,NA,NA,NA,NA,NA,NA,NA,NA,NA,NA,NA,NA,NA,NA,NA,NA,NA,NA,NA,NA,NA,NA,NA,NA,NA,NA,NA
c370e,deep,flow.Sequence,3_0_0_0_0_0,NA,NA,skipped,NA,557972.30000000994,NA,NA,557897.40000001,557972.5,2023-04-21T16:07:19Z,557982.085,NULL,Schüler,mwanafunzi,s,mwekezaji,matumizi,uaminifu,NA,sdf,NA,0,NA,NA,NA,NA,NA,NA,NA,NA,NA,NA,NA,NA,NA,NA,NA,NA,NA,NA,NA
c370e,Shallow Question,html.Page,3_0_0_0_0_1_0,NA,NA,form submission,7186.315000006,557972.60000002,557964.693,557982.085,565168.40000001,565168.60000002,2023-04-21T16:07:26Z,565175.805,NULL,Schüler,mwanafunzi,s,mwekezaji,matumizi,uaminifu,mwekezaji,NA,NA,0,NA,NA,NA,NA,NA,NA,NA,NA,NA,NA,NA,NA,NA,NA,NA,NA,NA,NA,NA
c370e,"""Richtig""-Screen",canvas.Screen,3_0_0_0_0_1_1,NA,NA,skipped,NA,565170.5,NA,NA,565168.40000001,565170.70000002,2023-04-21T16:07:26Z,565175.805,NULL,Schüler,mwanafunzi,s,mwekezaji,matumizi,uaminifu,NA,sdf,NA,0,NA,NA,NA,NA,NA,NA,NA,NA,NA,NA,NA,NA,NA,NA,NA,NA,NA,NA,NA
c370e,"""Falsch""-Screen",canvas.Screen,3_0_0_0_0_1_2,NA,NA,timeout,4996.387,565171.20000002,565159.794,565175.805,570155.162,570156.60000002,2023-04-21T16:07:31Z,570172.192,NULL,Schüler,mwanafunzi,s,mwekezaji,matumizi,uaminifu,NA,sdf,0,0,NA,NA,NA,NA,NA,NA,NA,NA,NA,NA,NA,NA,NA,NA,NA,NA,NA,NA,NA
c370e,shallow,flow.Sequence,3_0_0_0_0_1,NA,NA,completion,12173.077,557972.60000002,557964.693,557982.085,570155.162,570156.80000000994,2023-04-21T16:07:31Z,570172.192,NULL,Schüler,mwanafunzi,s,mwekezaji,matumizi,uaminifu,NA,sdf,NA,0,NA,NA,NA,NA,NA,NA,NA,NA,NA,NA,NA,NA,NA,NA,NA,NA,NA,NA,NA
c370e,task,flow.Sequence,3_0_0_0_0,NA,NA,completion,12173.077,557972.30000000994,557964.693,557982.085,570155.162,570157,2023-04-21T16:07:31Z,570172.192,NULL,Schüler,mwanafunzi,s,mwekezaji,matumizi,uaminifu,NA,sdf,NA,0,NA,NA,NA,NA,NA,NA,NA,NA,NA,NA,NA,NA,NA,NA,NA,NA,NA,NA,NA
c370e,Deep Question,html.Page,3_0_0_0_1_0_0,NA,NA,form submission,6202.7080000059,570157.10000002,570155.162,570172.192,576374.90000001,576375.20000002,2023-04-21T16:07:37Z,576383.289,NULL,Symbol,kielezo,d,NA,NA,NA,halo,NA,NA,0,NA,NA,NA,NA,NA,NA,NA,NA,NA,NA,NA,NA,NA,NA,NA,NA,NA,NA,NA
c370e,"""Richtig""-Screen",canvas.Screen,3_0_0_0_1_0_1,NA,NA,skipped,NA,576377.20000002,NA,NA,576374.90000001,576377.40000001,2023-04-21T16:07:37Z,576383.289,NULL,Symbol,kielezo,d,NA,NA,NA,NA,sdf,NA,0,NA,NA,NA,NA,NA,NA,NA,NA,NA,NA,NA,NA,NA,NA,NA,NA,NA,NA,NA
c370e,"""Falsch""-Screen",canvas.Screen,3_0_0_0_1_0_2,NA,NA,timeout,4996.66,576377.90000001,576366.707,576383.289,581363.016,581363.90000001,2023-04-21T16:07:42Z,581379.949,NULL,Symbol,kielezo,d,NA,NA,NA,NA,sdf,0,0,NA,NA,NA,NA,NA,NA,NA,NA,NA,NA,NA,NA,NA,NA,NA,NA,NA,NA,NA
c370e,deep,flow.Sequence,3_0_0_0_1_0,NA,NA,completion,11190.824,570157.10000002,570155.162,570172.192,581363.016,581364.30000001,2023-04-21T16:07:42Z,581379.949,NULL,Symbol,kielezo,d,NA,NA,NA,NA,sdf,NA,0,NA,NA,NA,NA,NA,NA,NA,NA,NA,NA,NA,NA,NA,NA,NA,NA,NA,NA,NA
c370e,shallow,flow.Sequence,3_0_0_0_1_1,NA,NA,skipped,NA,581364.5,NA,NA,581363.016,581364.70000002,2023-04-21T16:07:42Z,581379.949,NULL,Symbol,kielezo,d,NA,NA,NA,NA,sdf,NA,0,NA,NA,NA,NA,NA,NA,NA,NA,NA,NA,NA,NA,NA,NA,NA,NA,NA,NA,NA
c370e,task,flow.Sequence,3_0_0_0_1,NA,NA,completion,11190.824,570157.10000002,570155.162,570172.192,581363.016,581364.90000001,2023-04-21T16:07:42Z,581379.949,NULL,Symbol,kielezo,d,NA,NA,NA,NA,sdf,NA,0,NA,NA,NA,NA,NA,NA,NA,NA,NA,NA,NA,NA,NA,NA,NA,NA,NA,NA,NA
c370e,Deep Question,html.Page,3_0_0_0_2_0_0,NA,NA,form submission,5556.8510000119,581365.20000002,581363.016,581379.949,586936.80000001,586937,2023-04-21T16:07:48Z,586941.262,NULL,Spionage,upelelezi,d,NA,NA,NA,poka,NA,NA,0,NA,NA,NA,NA,NA,NA,NA,NA,NA,NA,NA,NA,NA,NA,NA,NA,NA,NA,NA
c370e,"""Richtig""-Screen",canvas.Screen,3_0_0_0_2_0_1,NA,NA,skipped,NA,586939,NA,NA,586936.80000001,586939.20000002,2023-04-21T16:07:48Z,586941.262,NULL,Spionage,upelelezi,d,NA,NA,NA,NA,sdf,NA,0,NA,NA,NA,NA,NA,NA,NA,NA,NA,NA,NA,NA,NA,NA,NA,NA,NA,NA,NA
c370e,"""Falsch""-Screen",canvas.Screen,3_0_0_0_2_0_2,NA,NA,timeout,4996.459,586939.80000000994,586925.221,586941.262,591921.119,591922.10000002,2023-04-21T16:07:53Z,591937.721,NULL,Spionage,upelelezi,d,NA,NA,NA,NA,sdf,0,0,NA,NA,NA,NA,NA,NA,NA,NA,NA,NA,NA,NA,NA,NA,NA,NA,NA,NA,NA
c370e,deep,flow.Sequence,3_0_0_0_2_0,NA,NA,completion,10541.17,581365.10000002,581363.016,581379.949,591921.119,591922.5,2023-04-21T16:07:53Z,591937.721,NULL,Spionage,upelelezi,d,NA,NA,NA,NA,sdf,NA,0,NA,NA,NA,NA,NA,NA,NA,NA,NA,NA,NA,NA,NA,NA,NA,NA,NA,NA,NA
c370e,shallow,flow.Sequence,3_0_0_0_2_1,NA,NA,skipped,NA,591922.70000002,NA,NA,591921.119,591922.80000000994,2023-04-21T16:07:53Z,591937.721,NULL,Spionage,upelelezi,d,NA,NA,NA,NA,sdf,NA,0,NA,NA,NA,NA,NA,NA,NA,NA,NA,NA,NA,NA,NA,NA,NA,NA,NA,NA,NA
c370e,task,flow.Sequence,3_0_0_0_2,NA,NA,completion,10541.17,581365,581363.016,581379.949,591921.119,591923.10000002,2023-04-21T16:07:53Z,591937.721,NULL,Spionage,upelelezi,d,NA,NA,NA,NA,sdf,NA,0,NA,NA,NA,NA,NA,NA,NA,NA,NA,NA,NA,NA,NA,NA,NA,NA,NA,NA,NA
c370e,deep,flow.Sequence,3_0_0_0_3_0,NA,NA,skipped,NA,591923.20000002,NA,NA,591921.119,591923.40000001,2023-04-21T16:07:53Z,591937.721,NULL,Konkurrent,mshindani,s,msemaji,mvutaji,kipukusa,NA,sdf,NA,0,NA,NA,NA,NA,NA,NA,NA,NA,NA,NA,NA,NA,NA,NA,NA,NA,NA,NA,NA
c370e,Shallow Question,html.Page,3_0_0_0_3_1_0,NA,NA,form submission,4163.3790000238,591923.5,591921.119,591937.721,596101.10000002,596101.20000002,2023-04-21T16:07:57Z,596129.769,NULL,Konkurrent,mshindani,s,msemaji,mvutaji,kipukusa,mvutaji,NA,NA,0,NA,NA,NA,NA,NA,NA,NA,NA,NA,NA,NA,NA,NA,NA,NA,NA,NA,NA,NA
c370e,"""Richtig""-Screen",canvas.Screen,3_0_0_0_3_1_1,NA,NA,skipped,NA,596103.20000002,NA,NA,596101.10000002,596103.30000001,2023-04-21T16:07:57Z,596129.769,NULL,Konkurrent,mshindani,s,msemaji,mvutaji,kipukusa,NA,sdf,NA,0,NA,NA,NA,NA,NA,NA,NA,NA,NA,NA,NA,NA,NA,NA,NA,NA,NA,NA,NA
c370e,"""Falsch""-Screen",canvas.Screen,3_0_0_0_3_1_2,NA,NA,timeout,5000.3050000001,596103.90000001,596084.312,596129.769,601113.554,601114.5,2023-04-21T16:08:02Z,601130.074,NULL,Konkurrent,mshindani,s,msemaji,mvutaji,kipukusa,NA,sdf,0,0,NA,NA,NA,NA,NA,NA,NA,NA,NA,NA,NA,NA,NA,NA,NA,NA,NA,NA,NA
c370e,shallow,flow.Sequence,3_0_0_0_3_1,NA,NA,completion,9175.833,591923.40000001,591921.119,591937.721,601113.554,601114.90000001,2023-04-21T16:08:02Z,601130.074,NULL,Konkurrent,mshindani,s,msemaji,mvutaji,kipukusa,NA,sdf,NA,0,NA,NA,NA,NA,NA,NA,NA,NA,NA,NA,NA,NA,NA,NA,NA,NA,NA,NA,NA
c370e,task,flow.Sequence,3_0_0_0_3,NA,NA,completion,9175.833,591923.20000002,591921.119,591937.721,601113.554,601115.30000001,2023-04-21T16:08:02Z,601130.074,NULL,Konkurrent,mshindani,s,msemaji,mvutaji,kipukusa,NA,sdf,NA,0,NA,NA,NA,NA,NA,NA,NA,NA,NA,NA,NA,NA,NA,NA,NA,NA,NA,NA,NA
c370e,Deep Question,html.Page,3_0_0_0_4_0_0,NA,NA,form submission,4982.8260000059,601115.40000001,601113.554,601130.074,606112.90000001,606113.10000002,2023-04-21T16:08:07Z,606125.633,NULL,Zuwachs,nyongeza,d,NA,NA,NA,maka,NA,NA,0,NA,NA,NA,NA,NA,NA,NA,NA,NA,NA,NA,NA,NA,NA,NA,NA,NA,NA,NA
c370e,"""Richtig""-Screen",canvas.Screen,3_0_0_0_4_0_1,NA,NA,skipped,NA,606115.80000001,NA,NA,606112.90000001,606116,2023-04-21T16:08:07Z,606125.633,NULL,Zuwachs,nyongeza,d,NA,NA,NA,NA,sdf,NA,0,NA,NA,NA,NA,NA,NA,NA,NA,NA,NA,NA,NA,NA,NA,NA,NA,NA,NA,NA
c370e,"""Falsch""-Screen",canvas.Screen,3_0_0_0_4_0_2,NA,NA,timeout,4995.792,606116.90000001,606109.159,606125.633,611105.153,611106,2023-04-21T16:08:12Z,611121.425,NULL,Zuwachs,nyongeza,d,NA,NA,NA,NA,sdf,0,0,NA,NA,NA,NA,NA,NA,NA,NA,NA,NA,NA,NA,NA,NA,NA,NA,NA,NA,NA
c370e,deep,flow.Sequence,3_0_0_0_4_0,NA,NA,completion,9975.079,601115.40000001,601113.554,601130.074,611105.153,611106.40000001,2023-04-21T16:08:12Z,611121.425,NULL,Zuwachs,nyongeza,d,NA,NA,NA,NA,sdf,NA,0,NA,NA,NA,NA,NA,NA,NA,NA,NA,NA,NA,NA,NA,NA,NA,NA,NA,NA,NA
c370e,shallow,flow.Sequence,3_0_0_0_4_1,NA,NA,skipped,NA,611106.60000002,NA,NA,611105.153,611106.80000000994,2023-04-21T16:08:12Z,611121.425,NULL,Zuwachs,nyongeza,d,NA,NA,NA,NA,sdf,NA,0,NA,NA,NA,NA,NA,NA,NA,NA,NA,NA,NA,NA,NA,NA,NA,NA,NA,NA,NA
c370e,task,flow.Sequence,3_0_0_0_4,NA,NA,completion,9975.079,601115.30000001,601113.554,601130.074,611105.153,611107,2023-04-21T16:08:12Z,611121.425,NULL,Zuwachs,nyongeza,d,NA,NA,NA,NA,sdf,NA,0,NA,NA,NA,NA,NA,NA,NA,NA,NA,NA,NA,NA,NA,NA,NA,NA,NA,NA,NA
c370e,Deep Question,html.Page,3_0_0_0_5_0_0,NA,NA,form submission,4265.6750000238,611107.30000001,611105.153,611121.425,615387.10000002,615387.30000000994,2023-04-21T16:08:16Z,615401.871,NULL,Fenster,dirisha,d,NA,NA,NA,po,NA,NA,0,NA,NA,NA,NA,NA,NA,NA,NA,NA,NA,NA,NA,NA,NA,NA,NA,NA,NA,NA
c370e,"""Richtig""-Screen",canvas.Screen,3_0_0_0_5_0_1,NA,NA,skipped,NA,615389.90000001,NA,NA,615387.10000002,615390.10000002,2023-04-21T16:08:16Z,615401.871,NULL,Fenster,dirisha,d,NA,NA,NA,NA,sdf,NA,0,NA,NA,NA,NA,NA,NA,NA,NA,NA,NA,NA,NA,NA,NA,NA,NA,NA,NA,NA
c370e,"""Falsch""-Screen",canvas.Screen,3_0_0_0_5_0_2,NA,NA,timeout,4995.9049999999,615391,615385.165,615401.871,620380.822,620381.90000001,2023-04-21T16:08:21Z,620397.776,NULL,Fenster,dirisha,d,NA,NA,NA,NA,sdf,0,0,NA,NA,NA,NA,NA,NA,NA,NA,NA,NA,NA,NA,NA,NA,NA,NA,NA,NA,NA
c370e,deep,flow.Sequence,3_0_0_0_5_0,NA,NA,completion,9259.397,611107.30000001,611105.153,611121.425,620380.822,620382.30000000994,2023-04-21T16:08:21Z,620397.776,NULL,Fenster,dirisha,d,NA,NA,NA,NA,sdf,NA,0,NA,NA,NA,NA,NA,NA,NA,NA,NA,NA,NA,NA,NA,NA,NA,NA,NA,NA,NA
c370e,shallow,flow.Sequence,3_0_0_0_5_1,NA,NA,skipped,NA,620382.40000001,NA,NA,620380.822,620382.60000002,2023-04-21T16:08:21Z,620397.776,NULL,Fenster,dirisha,d,NA,NA,NA,NA,sdf,NA,0,NA,NA,NA,NA,NA,NA,NA,NA,NA,NA,NA,NA,NA,NA,NA,NA,NA,NA,NA
c370e,task,flow.Sequence,3_0_0_0_5,NA,NA,completion,9259.397,611107.20000002,611105.153,611121.425,620380.822,620382.90000001,2023-04-21T16:08:21Z,620397.776,NULL,Fenster,dirisha,d,NA,NA,NA,NA,sdf,NA,0,NA,NA,NA,NA,NA,NA,NA,NA,NA,NA,NA,NA,NA,NA,NA,NA,NA,NA,NA
c370e,deep,flow.Sequence,3_0_0_0_6_0,NA,NA,skipped,NA,620383,NA,NA,620380.822,620383.30000001,2023-04-21T16:08:21Z,620397.776,NULL,Vorsorge,tahadhari,s,ufafanuzi,makini,mashambani,NA,sdf,NA,0,NA,NA,NA,NA,NA,NA,NA,NA,NA,NA,NA,NA,NA,NA,NA,NA,NA,NA,NA
c370e,Shallow Question,html.Page,3_0_0_0_6_1_0,NA,NA,form submission,4625.9240000179,620383.40000001,620380.822,620397.776,625023.70000002,625024.10000002,2023-04-21T16:08:26Z,625026.724,NULL,Vorsorge,tahadhari,s,ufafanuzi,makini,mashambani,ufafanuzi,NA,NA,0,NA,NA,NA,NA,NA,NA,NA,NA,NA,NA,NA,NA,NA,NA,NA,NA,NA,NA,NA
c370e,"""Richtig""-Screen",canvas.Screen,3_0_0_0_6_1_1,NA,NA,skipped,NA,625030,NA,NA,625023.70000002,625030.5,2023-04-21T16:08:26Z,625026.724,NULL,Vorsorge,tahadhari,s,ufafanuzi,makini,mashambani,NA,sdf,NA,0,NA,NA,NA,NA,NA,NA,NA,NA,NA,NA,NA,NA,NA,NA,NA,NA,NA,NA,NA
c370e,"""Falsch""-Screen",canvas.Screen,3_0_0_0_6_1_2,NA,NA,timeout,4996.336,625032.20000002,625010.335,625026.724,630006.01,630007.30000001,2023-04-21T16:08:31Z,630023.06,NULL,Vorsorge,tahadhari,s,ufafanuzi,makini,mashambani,NA,sdf,0,0,NA,NA,NA,NA,NA,NA,NA,NA,NA,NA,NA,NA,NA,NA,NA,NA,NA,NA,NA
c370e,shallow,flow.Sequence,3_0_0_0_6_1,NA,NA,completion,9608.2340000001,620383.40000001,620380.822,620397.776,630006.01,630007.70000002,2023-04-21T16:08:31Z,630023.06,NULL,Vorsorge,tahadhari,s,ufafanuzi,makini,mashambani,NA,sdf,NA,0,NA,NA,NA,NA,NA,NA,NA,NA,NA,NA,NA,NA,NA,NA,NA,NA,NA,NA,NA
c370e,task,flow.Sequence,3_0_0_0_6,NA,NA,completion,9608.2340000001,620383,620380.822,620397.776,630006.01,630008.10000002,2023-04-21T16:08:31Z,630023.06,NULL,Vorsorge,tahadhari,s,ufafanuzi,makini,mashambani,NA,sdf,NA,0,NA,NA,NA,NA,NA,NA,NA,NA,NA,NA,NA,NA,NA,NA,NA,NA,NA,NA,NA
c370e,deep,flow.Sequence,3_0_0_0_7_0,NA,NA,skipped,NA,630008.30000001,NA,NA,630006.01,630008.40000001,2023-04-21T16:08:31Z,630023.06,NULL,Tester,wanaojaribu,s,sherti,sihiri,mlipuko,NA,sdf,NA,0,NA,NA,NA,NA,NA,NA,NA,NA,NA,NA,NA,NA,NA,NA,NA,NA,NA,NA,NA
c370e,Shallow Question,html.Page,3_0_0_0_7_1_0,NA,NA,form submission,6259.3400000059,630008.70000002,630006.01,630023.06,636282.40000001,636282.60000002,2023-04-21T16:08:37Z,636284.067,NULL,Tester,wanaojaribu,s,sherti,sihiri,mlipuko,sherti,NA,NA,0,NA,NA,NA,NA,NA,NA,NA,NA,NA,NA,NA,NA,NA,NA,NA,NA,NA,NA,NA
c370e,"""Richtig""-Screen",canvas.Screen,3_0_0_0_7_1_1,NA,NA,skipped,NA,636284.70000002,NA,NA,636282.40000001,636284.80000001,2023-04-21T16:08:37Z,636284.067,NULL,Tester,wanaojaribu,s,sherti,sihiri,mlipuko,NA,sdf,NA,0,NA,NA,NA,NA,NA,NA,NA,NA,NA,NA,NA,NA,NA,NA,NA,NA,NA,NA,NA
c370e,"""Falsch""-Screen",canvas.Screen,3_0_0_0_7_1_2,NA,NA,timeout,4996.5549999999,636285.30000001,636267.508,636284.067,641264.057,641264.60000002,2023-04-21T16:08:42Z,641280.622,NULL,Tester,wanaojaribu,s,sherti,sihiri,mlipuko,NA,sdf,0,0,NA,NA,NA,NA,NA,NA,NA,NA,NA,NA,NA,NA,NA,NA,NA,NA,NA,NA,NA
c370e,shallow,flow.Sequence,3_0_0_0_7_1,NA,NA,completion,11240.997,630008.60000002,630006.01,630023.06,641264.057,641264.80000001,2023-04-21T16:08:42Z,641280.622,NULL,Tester,wanaojaribu,s,sherti,sihiri,mlipuko,NA,sdf,NA,0,NA,NA,NA,NA,NA,NA,NA,NA,NA,NA,NA,NA,NA,NA,NA,NA,NA,NA,NA
c370e,task,flow.Sequence,3_0_0_0_7,NA,NA,completion,11240.997,630008.20000002,630006.01,630023.06,641264.057,641265,2023-04-21T16:08:42Z,641280.622,NULL,Tester,wanaojaribu,s,sherti,sihiri,mlipuko,NA,sdf,NA,0,NA,NA,NA,NA,NA,NA,NA,NA,NA,NA,NA,NA,NA,NA,NA,NA,NA,NA,NA
c370e,block,flow.Loop,3_0_0_0,NA,NA,completion,83281.972,557972.30000000994,557964.693,557982.085,641264.057,641265,2023-04-21T16:08:42Z,641280.622,NULL,NA,NA,NA,NA,NA,NA,NA,sdf,NA,0,NA,NA,NA,NA,NA,NA,NA,NA,NA,NA,NA,NA,NA,NA,NA,NA,NA,NA,NA
c370e,weiter,canvas.Screen,3_0_0_1,sdf,keypress(Space),response,1985.5780000179,641265,641264.057,641280.622,643266.20000002,643267.40000001,2023-04-21T16:08:44Z,643294.938,NULL,NA,NA,NA,NA,NA,NA,NA,sdf,NA,0,NA,NA,NA,NA,NA,NA,NA,NA,NA,NA,NA,NA,NA,NA,NA,NA,NA,NA,NA
c370e,check continue,flow.Sequence,3_0_0,NA,NA,completion,85284.115000018,557972.30000000994,557964.693,557982.085,643266.20000002,643267.80000000994,2023-04-21T16:08:44Z,643294.938,NULL,NA,NA,NA,NA,NA,NA,NA,sdf,NA,0,NA,NA,NA,NA,NA,NA,NA,NA,NA,NA,NA,NA,NA,NA,NA,NA,NA,NA,NA
c370e,deep,flow.Sequence,3_0_1_0_0_0,NA,NA,skipped,NA,643293.20000002,NA,NA,643266.20000002,643293.20000002,2023-04-21T16:08:44Z,643294.938,NULL,Vorsorge,tahadhari,s,ufafanuzi,makini,mashambani,NA,sdfdsf,NA,1,NA,NA,NA,NA,NA,NA,NA,NA,NA,NA,NA,NA,NA,NA,NA,NA,NA,NA,NA
c370e,Shallow Question,html.Page,3_0_1_0_0_1_0,NA,NA,form submission,6862.462000006,643293.40000001,643278.765,643294.938,650157.40000001,650157.60000002,2023-04-21T16:08:51Z,650173.287,NULL,Vorsorge,tahadhari,s,ufafanuzi,makini,mashambani,mashambani,NA,NA,1,NA,NA,NA,NA,NA,NA,NA,NA,NA,NA,NA,NA,NA,NA,NA,NA,NA,NA,NA
c370e,"""Richtig""-Screen",canvas.Screen,3_0_1_0_0_1_1,NA,NA,skipped,NA,650159.40000001,NA,NA,650157.40000001,650159.40000001,2023-04-21T16:08:51Z,650173.287,NULL,Vorsorge,tahadhari,s,ufafanuzi,makini,mashambani,NA,sdfdsf,NA,1,NA,NA,NA,NA,NA,NA,NA,NA,NA,NA,NA,NA,NA,NA,NA,NA,NA,NA,NA
c370e,"""Falsch""-Screen",canvas.Screen,3_0_1_0_0_1_2,NA,NA,timeout,4995.274,650159.90000001,650156.468,650173.287,655152.101,655153,2023-04-21T16:08:56Z,655168.561,NULL,Vorsorge,tahadhari,s,ufafanuzi,makini,mashambani,NA,sdfdsf,0,1,NA,NA,NA,NA,NA,NA,NA,NA,NA,NA,NA,NA,NA,NA,NA,NA,NA,NA,NA
c370e,shallow,flow.Sequence,3_0_1_0_0_1,NA,NA,completion,11857.163,643293.40000001,643278.765,643294.938,655152.101,655153.40000001,2023-04-21T16:08:56Z,655168.561,NULL,Vorsorge,tahadhari,s,ufafanuzi,makini,mashambani,NA,sdfdsf,NA,1,NA,NA,NA,NA,NA,NA,NA,NA,NA,NA,NA,NA,NA,NA,NA,NA,NA,NA,NA
c370e,task,flow.Sequence,3_0_1_0_0,NA,NA,completion,11857.163,643293.20000002,643278.765,643294.938,655152.101,655153.70000002,2023-04-21T16:08:56Z,655168.561,NULL,Vorsorge,tahadhari,s,ufafanuzi,makini,mashambani,NA,sdfdsf,NA,1,NA,NA,NA,NA,NA,NA,NA,NA,NA,NA,NA,NA,NA,NA,NA,NA,NA,NA,NA
c370e,Deep Question,html.Page,3_0_1_0_1_0_0,NA,NA,form submission,7266.0390000239,655153.90000001,655152.101,655168.561,662434.60000002,662434.80000001,2023-04-21T16:09:03Z,662445.867,NULL,Zuwachs,nyongeza,d,NA,NA,NA,mwajinba,NA,NA,1,NA,NA,NA,NA,NA,NA,NA,NA,NA,NA,NA,NA,NA,NA,NA,NA,NA,NA,NA
c370e,"""Richtig""-Screen",canvas.Screen,3_0_1_0_1_0_1,NA,NA,skipped,NA,662437.5,NA,NA,662434.60000002,662437.70000002,2023-04-21T16:09:03Z,662445.867,NULL,Zuwachs,nyongeza,d,NA,NA,NA,NA,sdfdsf,NA,1,NA,NA,NA,NA,NA,NA,NA,NA,NA,NA,NA,NA,NA,NA,NA,NA,NA,NA,NA
c370e,"""Falsch""-Screen",canvas.Screen,3_0_1_0_1_0_2,NA,NA,timeout,4996.5600000001,662438.60000002,662429.8,662445.867,667425.331,667427.20000002,2023-04-21T16:09:08Z,667442.427,NULL,Zuwachs,nyongeza,d,NA,NA,NA,NA,sdfdsf,0,1,NA,NA,NA,NA,NA,NA,NA,NA,NA,NA,NA,NA,NA,NA,NA,NA,NA,NA,NA
c370e,deep,flow.Sequence,3_0_1_0_1_0,NA,NA,completion,12256.77,655153.90000001,655152.101,655168.561,667425.331,667427.70000002,2023-04-21T16:09:08Z,667442.427,NULL,Zuwachs,nyongeza,d,NA,NA,NA,NA,sdfdsf,NA,1,NA,NA,NA,NA,NA,NA,NA,NA,NA,NA,NA,NA,NA,NA,NA,NA,NA,NA,NA
c370e,shallow,flow.Sequence,3_0_1_0_1_1,NA,NA,skipped,NA,667427.90000001,NA,NA,667425.331,667428,2023-04-21T16:09:08Z,667442.427,NULL,Zuwachs,nyongeza,d,NA,NA,NA,NA,sdfdsf,NA,1,NA,NA,NA,NA,NA,NA,NA,NA,NA,NA,NA,NA,NA,NA,NA,NA,NA,NA,NA
c370e,task,flow.Sequence,3_0_1_0_1,NA,NA,completion,12256.77,655153.90000001,655152.101,655168.561,667425.331,667428.40000001,2023-04-21T16:09:08Z,667442.427,NULL,Zuwachs,nyongeza,d,NA,NA,NA,NA,sdfdsf,NA,1,NA,NA,NA,NA,NA,NA,NA,NA,NA,NA,NA,NA,NA,NA,NA,NA,NA,NA,NA
c370e,deep,flow.Sequence,3_0_1_0_2_0,NA,NA,skipped,NA,667428.5,NA,NA,667425.331,667428.70000002,2023-04-21T16:09:08Z,667442.427,NULL,Schüler,mwanafunzi,s,mwekezaji,matumizi,uaminifu,NA,sdfdsf,NA,1,NA,NA,NA,NA,NA,NA,NA,NA,NA,NA,NA,NA,NA,NA,NA,NA,NA,NA,NA
c370e,Shallow Question,html.Page,3_0_1_0_2_1_0,NA,NA,form submission,5259.8730000119,667429.10000002,667425.331,667442.427,672702.30000001,672702.60000002,2023-04-21T16:09:13Z,672704.138,NULL,Schüler,mwanafunzi,s,mwekezaji,matumizi,uaminifu,mwanafunzi,NA,NA,1,NA,NA,NA,NA,NA,NA,NA,NA,NA,NA,NA,NA,NA,NA,NA,NA,NA,NA,NA
c370e,"""Richtig""-Screen",canvas.Screen,3_0_1_0_2_1_1,NA,NA,timeout,4995.917,672704.5,672688.033,672704.138,677683.924,677684.80000001,2023-04-21T16:09:18Z,677700.055,NULL,Schüler,mwanafunzi,s,mwekezaji,matumizi,uaminifu,NA,sdfdsf,1,1,NA,NA,NA,NA,NA,NA,NA,NA,NA,NA,NA,NA,NA,NA,NA,NA,NA,NA,NA
c370e,"""Falsch""-Screen",canvas.Screen,3_0_1_0_2_1_2,NA,NA,skipped,NA,677690.30000001,NA,NA,677683.924,677690.60000002,2023-04-21T16:09:18Z,677700.055,NULL,Schüler,mwanafunzi,s,mwekezaji,matumizi,uaminifu,NA,sdfdsf,NA,1,NA,NA,NA,NA,NA,NA,NA,NA,NA,NA,NA,NA,NA,NA,NA,NA,NA,NA,NA
c370e,shallow,flow.Sequence,3_0_1_0_2_1,NA,NA,completion,10241.497,667429,667425.331,667442.427,677683.924,677690.90000001,2023-04-21T16:09:18Z,677700.055,NULL,Schüler,mwanafunzi,s,mwekezaji,matumizi,uaminifu,NA,sdfdsf,NA,1,NA,NA,NA,NA,NA,NA,NA,NA,NA,NA,NA,NA,NA,NA,NA,NA,NA,NA,NA
c370e,task,flow.Sequence,3_0_1_0_2,NA,NA,completion,10241.497,667428.5,667425.331,667442.427,677683.924,677691.20000002,2023-04-21T16:09:18Z,677700.055,NULL,Schüler,mwanafunzi,s,mwekezaji,matumizi,uaminifu,NA,sdfdsf,NA,1,NA,NA,NA,NA,NA,NA,NA,NA,NA,NA,NA,NA,NA,NA,NA,NA,NA,NA,NA
c370e,deep,flow.Sequence,3_0_1_0_3_0,NA,NA,skipped,NA,677691.40000001,NA,NA,677683.924,677691.60000002,2023-04-21T16:09:18Z,677700.055,NULL,Tester,wanaojaribu,s,sherti,sihiri,mlipuko,NA,sdfdsf,NA,1,NA,NA,NA,NA,NA,NA,NA,NA,NA,NA,NA,NA,NA,NA,NA,NA,NA,NA,NA
c370e,Shallow Question,html.Page,3_0_1_0_3_1_0,NA,NA,form submission,6077.1450000178,677691.80000001,677683.924,677700.055,683777.20000002,683777.5,2023-04-21T16:09:25Z,683778.368,NULL,Tester,wanaojaribu,s,sherti,sihiri,mlipuko,sherti,NA,NA,1,NA,NA,NA,NA,NA,NA,NA,NA,NA,NA,NA,NA,NA,NA,NA,NA,NA,NA,NA
c370e,"""Richtig""-Screen",canvas.Screen,3_0_1_0_3_1_1,NA,NA,skipped,NA,683779.20000002,NA,NA,683777.20000002,683779.40000001,2023-04-21T16:09:25Z,683778.368,NULL,Tester,wanaojaribu,s,sherti,sihiri,mlipuko,NA,sdfdsf,NA,1,NA,NA,NA,NA,NA,NA,NA,NA,NA,NA,NA,NA,NA,NA,NA,NA,NA,NA,NA
c370e,"""Falsch""-Screen",canvas.Screen,3_0_1_0_3_1_2,NA,NA,timeout,4995.902,683780,683761.931,683778.368,688758.025,688759,2023-04-21T16:09:30Z,688774.27,NULL,Tester,wanaojaribu,s,sherti,sihiri,mlipuko,NA,sdfdsf,0,1,NA,NA,NA,NA,NA,NA,NA,NA,NA,NA,NA,NA,NA,NA,NA,NA,NA,NA,NA
c370e,shallow,flow.Sequence,3_0_1_0_3_1,NA,NA,completion,11057.97,677691.70000002,677683.924,677700.055,688758.025,688759.40000001,2023-04-21T16:09:30Z,688774.27,NULL,Tester,wanaojaribu,s,sherti,sihiri,mlipuko,NA,sdfdsf,NA,1,NA,NA,NA,NA,NA,NA,NA,NA,NA,NA,NA,NA,NA,NA,NA,NA,NA,NA,NA
c370e,task,flow.Sequence,3_0_1_0_3,NA,NA,completion,11057.97,677691.40000001,677683.924,677700.055,688758.025,688759.70000002,2023-04-21T16:09:30Z,688774.27,NULL,Tester,wanaojaribu,s,sherti,sihiri,mlipuko,NA,sdfdsf,NA,1,NA,NA,NA,NA,NA,NA,NA,NA,NA,NA,NA,NA,NA,NA,NA,NA,NA,NA,NA
c370e,Deep Question,html.Page,3_0_1_0_4_0_0,NA,NA,form submission,5366.3300000238,688760,688758.025,688774.27,694140.60000002,694140.80000001,2023-04-21T16:09:35Z,694153.8,NULL,Symbol,kielezo,d,NA,NA,NA,n,NA,NA,1,NA,NA,NA,NA,NA,NA,NA,NA,NA,NA,NA,NA,NA,NA,NA,NA,NA,NA,NA
c370e,"""Richtig""-Screen",canvas.Screen,3_0_1_0_4_0_1,NA,NA,skipped,NA,694142.90000001,NA,NA,694140.60000002,694143.10000002,2023-04-21T16:09:35Z,694153.8,NULL,Symbol,kielezo,d,NA,NA,NA,NA,sdfdsf,NA,1,NA,NA,NA,NA,NA,NA,NA,NA,NA,NA,NA,NA,NA,NA,NA,NA,NA,NA,NA
c370e,"""Falsch""-Screen",canvas.Screen,3_0_1_0_4_0_2,NA,NA,timeout,4995.375,694143.60000002,694137.137,694153.8,699132.373,699132.80000001,2023-04-21T16:09:40Z,699149.175,NULL,Symbol,kielezo,d,NA,NA,NA,NA,sdfdsf,0,1,NA,NA,NA,NA,NA,NA,NA,NA,NA,NA,NA,NA,NA,NA,NA,NA,NA,NA,NA
c370e,deep,flow.Sequence,3_0_1_0_4_0,NA,NA,completion,10358.103,688759.90000001,688758.025,688774.27,699132.373,699133,2023-04-21T16:09:40Z,699149.175,NULL,Symbol,kielezo,d,NA,NA,NA,NA,sdfdsf,NA,1,NA,NA,NA,NA,NA,NA,NA,NA,NA,NA,NA,NA,NA,NA,NA,NA,NA,NA,NA
c370e,shallow,flow.Sequence,3_0_1_0_4_1,NA,NA,skipped,NA,699133,NA,NA,699132.373,699133.20000002,2023-04-21T16:09:40Z,699149.175,NULL,Symbol,kielezo,d,NA,NA,NA,NA,sdfdsf,NA,1,NA,NA,NA,NA,NA,NA,NA,NA,NA,NA,NA,NA,NA,NA,NA,NA,NA,NA,NA
c370e,task,flow.Sequence,3_0_1_0_4,NA,NA,completion,10358.103,688759.80000001,688758.025,688774.27,699132.373,699133.30000001,2023-04-21T16:09:40Z,699149.175,NULL,Symbol,kielezo,d,NA,NA,NA,NA,sdfdsf,NA,1,NA,NA,NA,NA,NA,NA,NA,NA,NA,NA,NA,NA,NA,NA,NA,NA,NA,NA,NA
c370e,Deep Question,html.Page,3_0_1_0_5_0_0,NA,NA,form submission,2043.0250000178,699133.40000001,699132.373,699149.175,701192.20000002,701192.40000001,2023-04-21T16:09:42Z,701197.36,NULL,Spionage,upelelezi,d,NA,NA,NA,g,NA,NA,1,NA,NA,NA,NA,NA,NA,NA,NA,NA,NA,NA,NA,NA,NA,NA,NA,NA,NA,NA
c370e,"""Richtig""-Screen",canvas.Screen,3_0_1_0_5_0_1,NA,NA,skipped,NA,701195.10000002,NA,NA,701192.20000002,701195.30000001,2023-04-21T16:09:42Z,701197.36,NULL,Spionage,upelelezi,d,NA,NA,NA,NA,sdfdsf,NA,1,NA,NA,NA,NA,NA,NA,NA,NA,NA,NA,NA,NA,NA,NA,NA,NA,NA,NA,NA
c370e,"""Falsch""-Screen",canvas.Screen,3_0_1_0_5_0_2,NA,NA,timeout,4996.459,701196.20000002,701181.318,701197.36,706177.025,706178,2023-04-21T16:09:47Z,706193.819,NULL,Spionage,upelelezi,d,NA,NA,NA,NA,sdfdsf,0,1,NA,NA,NA,NA,NA,NA,NA,NA,NA,NA,NA,NA,NA,NA,NA,NA,NA,NA,NA
c370e,deep,flow.Sequence,3_0_1_0_5_0,NA,NA,completion,7027.85,699133.40000001,699132.373,699149.175,706177.025,706178.40000001,2023-04-21T16:09:47Z,706193.819,NULL,Spionage,upelelezi,d,NA,NA,NA,NA,sdfdsf,NA,1,NA,NA,NA,NA,NA,NA,NA,NA,NA,NA,NA,NA,NA,NA,NA,NA,NA,NA,NA
c370e,shallow,flow.Sequence,3_0_1_0_5_1,NA,NA,skipped,NA,706178.60000002,NA,NA,706177.025,706178.80000001,2023-04-21T16:09:47Z,706193.819,NULL,Spionage,upelelezi,d,NA,NA,NA,NA,sdfdsf,NA,1,NA,NA,NA,NA,NA,NA,NA,NA,NA,NA,NA,NA,NA,NA,NA,NA,NA,NA,NA
c370e,task,flow.Sequence,3_0_1_0_5,NA,NA,completion,7027.85,699133.40000001,699132.373,699149.175,706177.025,706179.10000002,2023-04-21T16:09:47Z,706193.819,NULL,Spionage,upelelezi,d,NA,NA,NA,NA,sdfdsf,NA,1,NA,NA,NA,NA,NA,NA,NA,NA,NA,NA,NA,NA,NA,NA,NA,NA,NA,NA,NA
c370e,deep,flow.Sequence,3_0_1_0_6_0,NA,NA,skipped,NA,706179.30000000994,NA,NA,706177.025,706179.30000000994,2023-04-21T16:09:47Z,706193.819,NULL,Konkurrent,mshindani,s,msemaji,mvutaji,kipukusa,NA,sdfdsf,NA,1,NA,NA,NA,NA,NA,NA,NA,NA,NA,NA,NA,NA,NA,NA,NA,NA,NA,NA,NA
c370e,Shallow Question,html.Page,3_0_1_0_6_1_0,NA,NA,form submission,6485.5810000059,706179.60000002,706177.025,706193.819,712679.40000001,712679.60000002,2023-04-21T16:09:53Z,712688.228,NULL,Konkurrent,mshindani,s,msemaji,mvutaji,kipukusa,mshindani,NA,NA,1,NA,NA,NA,NA,NA,NA,NA,NA,NA,NA,NA,NA,NA,NA,NA,NA,NA,NA,NA
c370e,"""Richtig""-Screen",canvas.Screen,3_0_1_0_6_1_1,NA,NA,timeout,4995.61,712681.40000001,712671.39,712688.228,717667.25,717668.20000002,2023-04-21T16:09:58Z,717683.838,NULL,Konkurrent,mshindani,s,msemaji,mvutaji,kipukusa,NA,sdfdsf,1,1,NA,NA,NA,NA,NA,NA,NA,NA,NA,NA,NA,NA,NA,NA,NA,NA,NA,NA,NA
c370e,"""Falsch""-Screen",canvas.Screen,3_0_1_0_6_1_2,NA,NA,skipped,NA,717672.90000001,NA,NA,717667.25,717673,2023-04-21T16:09:58Z,717683.838,NULL,Konkurrent,mshindani,s,msemaji,mvutaji,kipukusa,NA,sdfdsf,NA,1,NA,NA,NA,NA,NA,NA,NA,NA,NA,NA,NA,NA,NA,NA,NA,NA,NA,NA,NA
c370e,shallow,flow.Sequence,3_0_1_0_6_1,NA,NA,completion,11473.431,706179.5,706177.025,706193.819,717667.25,717673.20000002,2023-04-21T16:09:58Z,717683.838,NULL,Konkurrent,mshindani,s,msemaji,mvutaji,kipukusa,NA,sdfdsf,NA,1,NA,NA,NA,NA,NA,NA,NA,NA,NA,NA,NA,NA,NA,NA,NA,NA,NA,NA,NA
c370e,task,flow.Sequence,3_0_1_0_6,NA,NA,completion,11473.431,706179.20000002,706177.025,706193.819,717667.25,717673.30000001,2023-04-21T16:09:58Z,717683.838,NULL,Konkurrent,mshindani,s,msemaji,mvutaji,kipukusa,NA,sdfdsf,NA,1,NA,NA,NA,NA,NA,NA,NA,NA,NA,NA,NA,NA,NA,NA,NA,NA,NA,NA,NA
c370e,Deep Question,html.Page,3_0_1_0_7_0_0,NA,NA,form submission,3728.3620000179,717673.40000001,717667.25,717683.838,721412.20000002,721412.40000001,2023-04-21T16:10:02Z,721414.099,NULL,Fenster,dirisha,d,NA,NA,NA,a,NA,NA,1,NA,NA,NA,NA,NA,NA,NA,NA,NA,NA,NA,NA,NA,NA,NA,NA,NA,NA,NA
c370e,"""Richtig""-Screen",canvas.Screen,3_0_1_0_7_0_1,NA,NA,skipped,NA,721415.10000002,NA,NA,721412.20000002,721415.30000001,2023-04-21T16:10:02Z,721414.099,NULL,Fenster,dirisha,d,NA,NA,NA,NA,sdfdsf,NA,1,NA,NA,NA,NA,NA,NA,NA,NA,NA,NA,NA,NA,NA,NA,NA,NA,NA,NA,NA
c370e,"""Falsch""-Screen",canvas.Screen,3_0_1_0_7_0_2,NA,NA,timeout,4996.634,721416.10000002,721397.998,721414.099,726393.89,726394.80000000994,2023-04-21T16:10:07Z,726410.733,NULL,Fenster,dirisha,d,NA,NA,NA,NA,sdfdsf,0,1,NA,NA,NA,NA,NA,NA,NA,NA,NA,NA,NA,NA,NA,NA,NA,NA,NA,NA,NA
c370e,deep,flow.Sequence,3_0_1_0_7_0,NA,NA,completion,8710.052,717673.30000001,717667.25,717683.838,726393.89,726395.40000001,2023-04-21T16:10:07Z,726410.733,NULL,Fenster,dirisha,d,NA,NA,NA,NA,sdfdsf,NA,1,NA,NA,NA,NA,NA,NA,NA,NA,NA,NA,NA,NA,NA,NA,NA,NA,NA,NA,NA
c370e,shallow,flow.Sequence,3_0_1_0_7_1,NA,NA,skipped,NA,726395.60000002,NA,NA,726393.89,726395.70000002,2023-04-21T16:10:07Z,726410.733,NULL,Fenster,dirisha,d,NA,NA,NA,NA,sdfdsf,NA,1,NA,NA,NA,NA,NA,NA,NA,NA,NA,NA,NA,NA,NA,NA,NA,NA,NA,NA,NA
c370e,task,flow.Sequence,3_0_1_0_7,NA,NA,completion,8710.052,717673.30000001,717667.25,717683.838,726393.89,726396,2023-04-21T16:10:07Z,726410.733,NULL,Fenster,dirisha,d,NA,NA,NA,NA,sdfdsf,NA,1,NA,NA,NA,NA,NA,NA,NA,NA,NA,NA,NA,NA,NA,NA,NA,NA,NA,NA,NA
c370e,block,flow.Loop,3_0_1_0,NA,NA,completion,83098.952,643293.20000002,643278.765,643294.938,726393.89,726396.30000001,2023-04-21T16:10:07Z,726410.733,NULL,NA,NA,NA,NA,NA,NA,NA,sdfdsf,NA,1,NA,NA,NA,NA,NA,NA,NA,NA,NA,NA,NA,NA,NA,NA,NA,NA,NA,NA,NA
c370e,weiter,canvas.Screen,3_0_1_1,sdf,keypress(Space),response,1215.267,726396.40000001,726393.89,726410.733,727626,727627,2023-04-21T16:10:08Z,727658.995,NULL,NA,NA,NA,NA,NA,NA,NA,sdfdsf,NA,1,NA,NA,NA,NA,NA,NA,NA,NA,NA,NA,NA,NA,NA,NA,NA,NA,NA,NA,NA
c370e,check continue,flow.Sequence,3_0_1,NA,NA,completion,84331.062,643293.20000002,643278.765,643294.938,727626,727627.40000001,2023-04-21T16:10:08Z,727658.995,NULL,NA,NA,NA,NA,NA,NA,NA,sdfdsf,NA,1,NA,NA,NA,NA,NA,NA,NA,NA,NA,NA,NA,NA,NA,NA,NA,NA,NA,NA,NA
c370e,deep,flow.Sequence,3_0_2_0_0_0,NA,NA,skipped,NA,727656.70000002,NA,NA,727626,727656.90000001,2023-04-21T16:10:08Z,727658.995,NULL,Schüler,mwanafunzi,s,mwekezaji,matumizi,uaminifu,NA,sdf,NA,2,NA,NA,NA,NA,NA,NA,NA,NA,NA,NA,NA,NA,NA,NA,NA,NA,NA,NA,NA
c370e,Shallow Question,html.Page,3_0_2_0_0_1_0,NA,NA,form submission,5313.405000006,727657,727642.948,727658.995,732972.40000001,732972.5,2023-04-21T16:10:14Z,732988.534,NULL,Schüler,mwanafunzi,s,mwekezaji,matumizi,uaminifu,mwanafunzi,NA,NA,2,NA,NA,NA,NA,NA,NA,NA,NA,NA,NA,NA,NA,NA,NA,NA,NA,NA,NA,NA
c370e,"""Richtig""-Screen",canvas.Screen,3_0_2_0_0_1_1,NA,NA,timeout,4995.558,732974.5,732955.171,732988.534,737967.675,737968.60000002,2023-04-21T16:10:19Z,737984.092,NULL,Schüler,mwanafunzi,s,mwekezaji,matumizi,uaminifu,NA,sdf,1,2,NA,NA,NA,NA,NA,NA,NA,NA,NA,NA,NA,NA,NA,NA,NA,NA,NA,NA,NA
c370e,"""Falsch""-Screen",canvas.Screen,3_0_2_0_0_1_2,NA,NA,skipped,NA,737973,NA,NA,737967.675,737973.10000002,2023-04-21T16:10:19Z,737984.092,NULL,Schüler,mwanafunzi,s,mwekezaji,matumizi,uaminifu,NA,sdf,NA,2,NA,NA,NA,NA,NA,NA,NA,NA,NA,NA,NA,NA,NA,NA,NA,NA,NA,NA,NA
c370e,shallow,flow.Sequence,3_0_2_0_0_1,NA,NA,completion,10308.68,727656.90000001,727642.948,727658.995,737967.675,737973.20000002,2023-04-21T16:10:19Z,737984.092,NULL,Schüler,mwanafunzi,s,mwekezaji,matumizi,uaminifu,NA,sdf,NA,2,NA,NA,NA,NA,NA,NA,NA,NA,NA,NA,NA,NA,NA,NA,NA,NA,NA,NA,NA
c370e,task,flow.Sequence,3_0_2_0_0,NA,NA,completion,10308.68,727656.70000002,727642.948,727658.995,737967.675,737973.30000001,2023-04-21T16:10:19Z,737984.092,NULL,Schüler,mwanafunzi,s,mwekezaji,matumizi,uaminifu,NA,sdf,NA,2,NA,NA,NA,NA,NA,NA,NA,NA,NA,NA,NA,NA,NA,NA,NA,NA,NA,NA,NA
c370e,deep,flow.Sequence,3_0_2_0_1_0,NA,NA,skipped,NA,737973.30000001,NA,NA,737967.675,737973.40000001,2023-04-21T16:10:19Z,737984.092,NULL,Konkurrent,mshindani,s,msemaji,mvutaji,kipukusa,NA,sdf,NA,2,NA,NA,NA,NA,NA,NA,NA,NA,NA,NA,NA,NA,NA,NA,NA,NA,NA,NA,NA
c370e,Shallow Question,html.Page,3_0_2_0_1_1_0,NA,NA,form submission,27905.008000024,737973.40000001,737967.675,737984.092,765889.10000002,765889.30000001,2023-04-21T16:10:47Z,765894.198,NULL,Konkurrent,mshindani,s,msemaji,mvutaji,kipukusa,mshindani,NA,NA,2,NA,NA,NA,NA,NA,NA,NA,NA,NA,NA,NA,NA,NA,NA,NA,NA,NA,NA,NA
c370e,"""Richtig""-Screen",canvas.Screen,3_0_2_0_1_1_1,NA,NA,timeout,4996.638,765891.20000002,765878.157,765894.198,770873.981,770875,2023-04-21T16:10:52Z,770890.836,NULL,Konkurrent,mshindani,s,msemaji,mvutaji,kipukusa,NA,sdf,1,2,NA,NA,NA,NA,NA,NA,NA,NA,NA,NA,NA,NA,NA,NA,NA,NA,NA,NA,NA
c370e,"""Falsch""-Screen",canvas.Screen,3_0_2_0_1_1_2,NA,NA,skipped,NA,770879.5,NA,NA,770873.981,770879.70000002,2023-04-21T16:10:52Z,770890.836,NULL,Konkurrent,mshindani,s,msemaji,mvutaji,kipukusa,NA,sdf,NA,2,NA,NA,NA,NA,NA,NA,NA,NA,NA,NA,NA,NA,NA,NA,NA,NA,NA,NA,NA
c370e,shallow,flow.Sequence,3_0_2_0_1_1,NA,NA,completion,32889.889,737973.40000001,737967.675,737984.092,770873.981,770879.80000001,2023-04-21T16:10:52Z,770890.836,NULL,Konkurrent,mshindani,s,msemaji,mvutaji,kipukusa,NA,sdf,NA,2,NA,NA,NA,NA,NA,NA,NA,NA,NA,NA,NA,NA,NA,NA,NA,NA,NA,NA,NA
c370e,task,flow.Sequence,3_0_2_0_1,NA,NA,completion,32889.889,737973.30000001,737967.675,737984.092,770873.981,770879.90000001,2023-04-21T16:10:52Z,770890.836,NULL,Konkurrent,mshindani,s,msemaji,mvutaji,kipukusa,NA,sdf,NA,2,NA,NA,NA,NA,NA,NA,NA,NA,NA,NA,NA,NA,NA,NA,NA,NA,NA,NA,NA
c370e,Deep Question,html.Page,3_0_2_0_2_0_0,NA,NA,form submission,7153.9640000119,770879.90000001,770873.981,770890.836,778044.80000000994,778045,2023-04-21T16:10:59Z,778068.118,NULL,Symbol,kielezo,d,NA,NA,NA,nyogenza,NA,NA,2,NA,NA,NA,NA,NA,NA,NA,NA,NA,NA,NA,NA,NA,NA,NA,NA,NA,NA,NA
c370e,"""Richtig""-Screen",canvas.Screen,3_0_2_0_2_0_1,NA,NA,skipped,NA,778046.90000001,NA,NA,778044.80000000994,778047.10000002,2023-04-21T16:10:59Z,778068.118,NULL,Symbol,kielezo,d,NA,NA,NA,NA,sdf,NA,2,NA,NA,NA,NA,NA,NA,NA,NA,NA,NA,NA,NA,NA,NA,NA,NA,NA,NA,NA
c370e,"""Falsch""-Screen",canvas.Screen,3_0_2_0_2_0_2,NA,NA,timeout,4995.983,778047.70000002,778050.902,778068.118,783046.882,783047.90000001,2023-04-21T16:11:04Z,783064.101,NULL,Symbol,kielezo,d,NA,NA,NA,NA,sdf,0,2,NA,NA,NA,NA,NA,NA,NA,NA,NA,NA,NA,NA,NA,NA,NA,NA,NA,NA,NA
c370e,deep,flow.Sequence,3_0_2_0_2_0,NA,NA,completion,12156.046,770879.90000001,770873.981,770890.836,783046.882,783048.30000001,2023-04-21T16:11:04Z,783064.101,NULL,Symbol,kielezo,d,NA,NA,NA,NA,sdf,NA,2,NA,NA,NA,NA,NA,NA,NA,NA,NA,NA,NA,NA,NA,NA,NA,NA,NA,NA,NA
c370e,shallow,flow.Sequence,3_0_2_0_2_1,NA,NA,skipped,NA,783048.40000001,NA,NA,783046.882,783048.60000002,2023-04-21T16:11:04Z,783064.101,NULL,Symbol,kielezo,d,NA,NA,NA,NA,sdf,NA,2,NA,NA,NA,NA,NA,NA,NA,NA,NA,NA,NA,NA,NA,NA,NA,NA,NA,NA,NA
c370e,task,flow.Sequence,3_0_2_0_2,NA,NA,completion,12156.046,770879.90000001,770873.981,770890.836,783046.882,783048.80000001,2023-04-21T16:11:04Z,783064.101,NULL,Symbol,kielezo,d,NA,NA,NA,NA,sdf,NA,2,NA,NA,NA,NA,NA,NA,NA,NA,NA,NA,NA,NA,NA,NA,NA,NA,NA,NA,NA
c370e,Deep Question,html.Page,3_0_2_0_3_0_0,NA,NA,form submission,6470.7990000059,783049.10000002,783046.882,783064.101,789534.90000001,789535.10000002,2023-04-21T16:11:10Z,789541.474,NULL,Zuwachs,nyongeza,d,NA,NA,NA,nyongenza,NA,NA,2,NA,NA,NA,NA,NA,NA,NA,NA,NA,NA,NA,NA,NA,NA,NA,NA,NA,NA,NA
c370e,"""Richtig""-Screen",canvas.Screen,3_0_2_0_3_0_1,NA,NA,skipped,NA,789537.60000002,NA,NA,789534.90000001,789537.90000001,2023-04-21T16:11:10Z,789541.474,NULL,Zuwachs,nyongeza,d,NA,NA,NA,NA,sdf,NA,2,NA,NA,NA,NA,NA,NA,NA,NA,NA,NA,NA,NA,NA,NA,NA,NA,NA,NA,NA
c370e,"""Falsch""-Screen",canvas.Screen,3_0_2_0_3_0_2,NA,NA,timeout,4996.431,789538.70000002,789524.934,789541.474,794521.255,794522.20000002,2023-04-21T16:11:15Z,794537.905,NULL,Zuwachs,nyongeza,d,NA,NA,NA,NA,sdf,0,2,NA,NA,NA,NA,NA,NA,NA,NA,NA,NA,NA,NA,NA,NA,NA,NA,NA,NA,NA
c370e,deep,flow.Sequence,3_0_2_0_3_0,NA,NA,completion,11457.154,783049,783046.882,783064.101,794521.255,794522.80000001,2023-04-21T16:11:15Z,794537.905,NULL,Zuwachs,nyongeza,d,NA,NA,NA,NA,sdf,NA,2,NA,NA,NA,NA,NA,NA,NA,NA,NA,NA,NA,NA,NA,NA,NA,NA,NA,NA,NA
c370e,shallow,flow.Sequence,3_0_2_0_3_1,NA,NA,skipped,NA,794523,NA,NA,794521.255,794523.10000002,2023-04-21T16:11:15Z,794537.905,NULL,Zuwachs,nyongeza,d,NA,NA,NA,NA,sdf,NA,2,NA,NA,NA,NA,NA,NA,NA,NA,NA,NA,NA,NA,NA,NA,NA,NA,NA,NA,NA
c370e,task,flow.Sequence,3_0_2_0_3,NA,NA,completion,11457.154,783049,783046.882,783064.101,794521.255,794523.40000001,2023-04-21T16:11:15Z,794537.905,NULL,Zuwachs,nyongeza,d,NA,NA,NA,NA,sdf,NA,2,NA,NA,NA,NA,NA,NA,NA,NA,NA,NA,NA,NA,NA,NA,NA,NA,NA,NA,NA
c370e,Deep Question,html.Page,3_0_2_0_4_0_0,NA,NA,form submission,3970.1950000238,794523.70000002,794521.255,794537.905,798508.10000002,798508.30000001,2023-04-21T16:11:19Z,798517.414,NULL,Spionage,upelelezi,d,NA,NA,NA,a,NA,NA,2,NA,NA,NA,NA,NA,NA,NA,NA,NA,NA,NA,NA,NA,NA,NA,NA,NA,NA,NA
c370e,"""Richtig""-Screen",canvas.Screen,3_0_2_0_4_0_1,NA,NA,skipped,NA,798510.20000002,NA,NA,798508.10000002,798510.40000001,2023-04-21T16:11:19Z,798517.414,NULL,Spionage,upelelezi,d,NA,NA,NA,NA,sdf,NA,2,NA,NA,NA,NA,NA,NA,NA,NA,NA,NA,NA,NA,NA,NA,NA,NA,NA,NA,NA
c370e,"""Falsch""-Screen",canvas.Screen,3_0_2_0_4_0_2,NA,NA,timeout,4996.341,798511,798501.291,798517.414,803496.777,803498.70000002,2023-04-21T16:11:24Z,803513.755,NULL,Spionage,upelelezi,d,NA,NA,NA,NA,sdf,0,2,NA,NA,NA,NA,NA,NA,NA,NA,NA,NA,NA,NA,NA,NA,NA,NA,NA,NA,NA
c370e,deep,flow.Sequence,3_0_2_0_4_0,NA,NA,completion,8958.872,794523.60000002,794521.255,794537.905,803496.777,803499.10000002,2023-04-21T16:11:24Z,803513.755,NULL,Spionage,upelelezi,d,NA,NA,NA,NA,sdf,NA,2,NA,NA,NA,NA,NA,NA,NA,NA,NA,NA,NA,NA,NA,NA,NA,NA,NA,NA,NA
c370e,shallow,flow.Sequence,3_0_2_0_4_1,NA,NA,skipped,NA,803499.40000001,NA,NA,803496.777,803499.60000002,2023-04-21T16:11:24Z,803513.755,NULL,Spionage,upelelezi,d,NA,NA,NA,NA,sdf,NA,2,NA,NA,NA,NA,NA,NA,NA,NA,NA,NA,NA,NA,NA,NA,NA,NA,NA,NA,NA
c370e,task,flow.Sequence,3_0_2_0_4,NA,NA,completion,8958.872,794523.60000002,794521.255,794537.905,803496.777,803499.80000001,2023-04-21T16:11:24Z,803513.755,NULL,Spionage,upelelezi,d,NA,NA,NA,NA,sdf,NA,2,NA,NA,NA,NA,NA,NA,NA,NA,NA,NA,NA,NA,NA,NA,NA,NA,NA,NA,NA
c370e,deep,flow.Sequence,3_0_2_0_5_0,NA,NA,skipped,NA,803499.90000001,NA,NA,803496.777,803500.10000002,2023-04-21T16:11:24Z,803513.755,NULL,Vorsorge,tahadhari,s,ufafanuzi,makini,mashambani,NA,sdf,NA,2,NA,NA,NA,NA,NA,NA,NA,NA,NA,NA,NA,NA,NA,NA,NA,NA,NA,NA,NA
c370e,Shallow Question,html.Page,3_0_2_0_5_1_0,NA,NA,form submission,3754.3450000238,803500.30000000994,803496.777,803513.755,807268.10000002,807268.30000001,2023-04-21T16:11:28Z,807277.054,NULL,Vorsorge,tahadhari,s,ufafanuzi,makini,mashambani,tahadhari,NA,NA,2,NA,NA,NA,NA,NA,NA,NA,NA,NA,NA,NA,NA,NA,NA,NA,NA,NA,NA,NA
c370e,"""Richtig""-Screen",canvas.Screen,3_0_2_0_5_1_1,NA,NA,timeout,4996.068,807270.10000002,807260.716,807277.054,812256.347,812258.20000002,2023-04-21T16:11:33Z,812273.122,NULL,Vorsorge,tahadhari,s,ufafanuzi,makini,mashambani,NA,sdf,1,2,NA,NA,NA,NA,NA,NA,NA,NA,NA,NA,NA,NA,NA,NA,NA,NA,NA,NA,NA
c370e,"""Falsch""-Screen",canvas.Screen,3_0_2_0_5_1_2,NA,NA,skipped,NA,812263,NA,NA,812256.347,812263.10000002,2023-04-21T16:11:33Z,812273.122,NULL,Vorsorge,tahadhari,s,ufafanuzi,makini,mashambani,NA,sdf,NA,2,NA,NA,NA,NA,NA,NA,NA,NA,NA,NA,NA,NA,NA,NA,NA,NA,NA,NA,NA
c370e,shallow,flow.Sequence,3_0_2_0_5_1,NA,NA,completion,8742.5919999999,803500.30000000994,803496.777,803513.755,812256.347,812263.20000002,2023-04-21T16:11:33Z,812273.122,NULL,Vorsorge,tahadhari,s,ufafanuzi,makini,mashambani,NA,sdf,NA,2,NA,NA,NA,NA,NA,NA,NA,NA,NA,NA,NA,NA,NA,NA,NA,NA,NA,NA,NA
c370e,task,flow.Sequence,3_0_2_0_5,NA,NA,completion,8742.5919999999,803499.90000001,803496.777,803513.755,812256.347,812263.30000001,2023-04-21T16:11:33Z,812273.122,NULL,Vorsorge,tahadhari,s,ufafanuzi,makini,mashambani,NA,sdf,NA,2,NA,NA,NA,NA,NA,NA,NA,NA,NA,NA,NA,NA,NA,NA,NA,NA,NA,NA,NA
c370e,Deep Question,html.Page,3_0_2_0_6_0_0,NA,NA,form submission,5755.378,812263.40000001,812256.347,812273.122,818028.5,818028.70000002,2023-04-21T16:11:39Z,818034.653,NULL,Fenster,dirisha,d,NA,NA,NA,d,NA,NA,2,NA,NA,NA,NA,NA,NA,NA,NA,NA,NA,NA,NA,NA,NA,NA,NA,NA,NA,NA
c370e,"""Richtig""-Screen",canvas.Screen,3_0_2_0_6_0_1,NA,NA,skipped,NA,818030.70000002,NA,NA,818028.5,818030.90000001,2023-04-21T16:11:39Z,818034.653,NULL,Fenster,dirisha,d,NA,NA,NA,NA,sdf,NA,2,NA,NA,NA,NA,NA,NA,NA,NA,NA,NA,NA,NA,NA,NA,NA,NA,NA,NA,NA
c370e,"""Falsch""-Screen",canvas.Screen,3_0_2_0_6_0_2,NA,NA,timeout,4995.933,818031.5,818018.176,818034.653,823014.37,823015.20000002,2023-04-21T16:11:44Z,823030.586,NULL,Fenster,dirisha,d,NA,NA,NA,NA,sdf,0,2,NA,NA,NA,NA,NA,NA,NA,NA,NA,NA,NA,NA,NA,NA,NA,NA,NA,NA,NA
c370e,deep,flow.Sequence,3_0_2_0_6_0,NA,NA,completion,10741.248,812263.40000001,812256.347,812273.122,823014.37,823015.80000000994,2023-04-21T16:11:44Z,823030.586,NULL,Fenster,dirisha,d,NA,NA,NA,NA,sdf,NA,2,NA,NA,NA,NA,NA,NA,NA,NA,NA,NA,NA,NA,NA,NA,NA,NA,NA,NA,NA
c370e,shallow,flow.Sequence,3_0_2_0_6_1,NA,NA,skipped,NA,823016,NA,NA,823014.37,823016.10000002,2023-04-21T16:11:44Z,823030.586,NULL,Fenster,dirisha,d,NA,NA,NA,NA,sdf,NA,2,NA,NA,NA,NA,NA,NA,NA,NA,NA,NA,NA,NA,NA,NA,NA,NA,NA,NA,NA
c370e,task,flow.Sequence,3_0_2_0_6,NA,NA,completion,10741.248,812263.30000001,812256.347,812273.122,823014.37,823016.40000001,2023-04-21T16:11:44Z,823030.586,NULL,Fenster,dirisha,d,NA,NA,NA,NA,sdf,NA,2,NA,NA,NA,NA,NA,NA,NA,NA,NA,NA,NA,NA,NA,NA,NA,NA,NA,NA,NA
c370e,deep,flow.Sequence,3_0_2_0_7_0,NA,NA,skipped,NA,823016.60000002,NA,NA,823014.37,823016.70000002,2023-04-21T16:11:44Z,823030.586,NULL,Tester,wanaojaribu,s,sherti,sihiri,mlipuko,NA,sdf,NA,2,NA,NA,NA,NA,NA,NA,NA,NA,NA,NA,NA,NA,NA,NA,NA,NA,NA,NA,NA
c370e,Shallow Question,html.Page,3_0_2_0_7_1_0,NA,NA,form submission,4226.6140000179,823017,823014.37,823030.586,827257.20000002,827257.30000000994,2023-04-21T16:11:48Z,827260.433,NULL,Tester,wanaojaribu,s,sherti,sihiri,mlipuko,wanaojaribu,NA,NA,2,NA,NA,NA,NA,NA,NA,NA,NA,NA,NA,NA,NA,NA,NA,NA,NA,NA,NA,NA
c370e,"""Richtig""-Screen",canvas.Screen,3_0_2_0_7_1_1,NA,NA,timeout,4996.1630000001,827259.10000002,827244.302,827260.433,832240.256,832241.20000002,2023-04-21T16:11:53Z,832256.596,NULL,Tester,wanaojaribu,s,sherti,sihiri,mlipuko,NA,sdf,1,2,NA,NA,NA,NA,NA,NA,NA,NA,NA,NA,NA,NA,NA,NA,NA,NA,NA,NA,NA
c370e,"""Falsch""-Screen",canvas.Screen,3_0_2_0_7_1_2,NA,NA,skipped,NA,832246.60000002,NA,NA,832240.256,832247,2023-04-21T16:11:53Z,832256.596,NULL,Tester,wanaojaribu,s,sherti,sihiri,mlipuko,NA,sdf,NA,2,NA,NA,NA,NA,NA,NA,NA,NA,NA,NA,NA,NA,NA,NA,NA,NA,NA,NA,NA
c370e,shallow,flow.Sequence,3_0_2_0_7_1,NA,NA,completion,9209.67,823016.90000001,823014.37,823030.586,832240.256,832247.5,2023-04-21T16:11:53Z,832256.596,NULL,Tester,wanaojaribu,s,sherti,sihiri,mlipuko,NA,sdf,NA,2,NA,NA,NA,NA,NA,NA,NA,NA,NA,NA,NA,NA,NA,NA,NA,NA,NA,NA,NA
c370e,task,flow.Sequence,3_0_2_0_7,NA,NA,completion,9209.67,823016.5,823014.37,823030.586,832240.256,832247.70000002,2023-04-21T16:11:53Z,832256.596,NULL,Tester,wanaojaribu,s,sherti,sihiri,mlipuko,NA,sdf,NA,2,NA,NA,NA,NA,NA,NA,NA,NA,NA,NA,NA,NA,NA,NA,NA,NA,NA,NA,NA
c370e,block,flow.Loop,3_0_2_0,NA,NA,completion,104581.261,727656.60000002,727642.948,727658.995,832240.256,832248,2023-04-21T16:11:53Z,832256.596,NULL,NA,NA,NA,NA,NA,NA,NA,sdf,NA,2,NA,NA,NA,NA,NA,NA,NA,NA,NA,NA,NA,NA,NA,NA,NA,NA,NA,NA,NA
c370e,weiter,canvas.Screen,3_0_2_1,sdf,keypress(Space),response,987.90399999998,832248.10000002,832240.256,832256.596,833244.5,833245.70000002,2023-04-21T16:11:54Z,833289.549,NULL,NA,NA,NA,NA,NA,NA,NA,sdf,NA,2,NA,NA,NA,NA,NA,NA,NA,NA,NA,NA,NA,NA,NA,NA,NA,NA,NA,NA,NA
c370e,check continue,flow.Sequence,3_0_2,NA,NA,completion,105585.505,727656.60000002,727642.948,727658.995,833244.5,833246,2023-04-21T16:11:54Z,833289.549,NULL,NA,NA,NA,NA,NA,NA,NA,sdf,NA,2,NA,NA,NA,NA,NA,NA,NA,NA,NA,NA,NA,NA,NA,NA,NA,NA,NA,NA,NA
c370e,Deep Question,html.Page,3_0_3_0_0_0_0,NA,NA,form submission,8197.451,833274.40000001,833272.824,833289.549,841487,841487.10000002,2023-04-21T16:12:02Z,841498.703,NULL,Spionage,upelelezi,d,NA,NA,NA,upelelezi,NA,NA,3,NA,NA,NA,NA,NA,NA,NA,NA,NA,NA,NA,NA,NA,NA,NA,NA,NA,NA,NA
c370e,"""Richtig""-Screen",canvas.Screen,3_0_3_0_0_0_1,NA,NA,timeout,4996.6090000001,841489.80000001,841482.21,841498.703,846477.931,846478.90000001,2023-04-21T16:12:07Z,846495.312,NULL,Spionage,upelelezi,d,NA,NA,NA,NA,qt,1,3,NA,NA,NA,NA,NA,NA,NA,NA,NA,NA,NA,NA,NA,NA,NA,NA,NA,NA,NA
c370e,"""Falsch""-Screen",canvas.Screen,3_0_3_0_0_0_2,NA,NA,skipped,NA,846480.5,NA,NA,846477.931,846480.60000002,2023-04-21T16:12:07Z,846495.312,NULL,Spionage,upelelezi,d,NA,NA,NA,NA,qt,NA,3,NA,NA,NA,NA,NA,NA,NA,NA,NA,NA,NA,NA,NA,NA,NA,NA,NA,NA,NA
c370e,deep,flow.Sequence,3_0_3_0_0_0,NA,NA,completion,13188.382,833274.40000001,833272.824,833289.549,846477.931,846480.70000002,2023-04-21T16:12:07Z,846495.312,NULL,Spionage,upelelezi,d,NA,NA,NA,NA,qt,NA,3,NA,NA,NA,NA,NA,NA,NA,NA,NA,NA,NA,NA,NA,NA,NA,NA,NA,NA,NA
c370e,shallow,flow.Sequence,3_0_3_0_0_1,NA,NA,skipped,NA,846480.70000002,NA,NA,846477.931,846480.80000001,2023-04-21T16:12:07Z,846495.312,NULL,Spionage,upelelezi,d,NA,NA,NA,NA,qt,NA,3,NA,NA,NA,NA,NA,NA,NA,NA,NA,NA,NA,NA,NA,NA,NA,NA,NA,NA,NA
c370e,task,flow.Sequence,3_0_3_0_0,NA,NA,completion,13188.382,833274.30000001,833272.824,833289.549,846477.931,846480.80000001,2023-04-21T16:12:07Z,846495.312,NULL,Spionage,upelelezi,d,NA,NA,NA,NA,qt,NA,3,NA,NA,NA,NA,NA,NA,NA,NA,NA,NA,NA,NA,NA,NA,NA,NA,NA,NA,NA
c370e,Deep Question,html.Page,3_0_3_0_1_0_0,NA,NA,form submission,19503.288000024,846480.90000001,846477.931,846495.312,865998.60000002,865998.60000002,2023-04-21T16:12:27Z,866012.262,NULL,Symbol,kielezo,d,NA,NA,NA,nyongeza,NA,NA,3,NA,NA,NA,NA,NA,NA,NA,NA,NA,NA,NA,NA,NA,NA,NA,NA,NA,NA,NA
c370e,"""Richtig""-Screen",canvas.Screen,3_0_3_0_1_0_1,NA,NA,skipped,NA,866000.40000001,NA,NA,865998.60000002,866000.60000002,2023-04-21T16:12:27Z,866012.262,NULL,Symbol,kielezo,d,NA,NA,NA,NA,qt,NA,3,NA,NA,NA,NA,NA,NA,NA,NA,NA,NA,NA,NA,NA,NA,NA,NA,NA,NA,NA
c370e,"""Falsch""-Screen",canvas.Screen,3_0_3_0_1_0_2,NA,NA,timeout,4996.286,866001.10000002,865995.916,866012.262,870991.464,870992.40000001,2023-04-21T16:12:32Z,871008.548,NULL,Symbol,kielezo,d,NA,NA,NA,NA,qt,0,3,NA,NA,NA,NA,NA,NA,NA,NA,NA,NA,NA,NA,NA,NA,NA,NA,NA,NA,NA
c370e,deep,flow.Sequence,3_0_3_0_1_0,NA,NA,completion,24496.152,846480.90000001,846477.931,846495.312,870991.464,870992.90000001,2023-04-21T16:12:32Z,871008.548,NULL,Symbol,kielezo,d,NA,NA,NA,NA,qt,NA,3,NA,NA,NA,NA,NA,NA,NA,NA,NA,NA,NA,NA,NA,NA,NA,NA,NA,NA,NA
c370e,shallow,flow.Sequence,3_0_3_0_1_1,NA,NA,skipped,NA,870993.10000002,NA,NA,870991.464,870993.20000002,2023-04-21T16:12:32Z,871008.548,NULL,Symbol,kielezo,d,NA,NA,NA,NA,qt,NA,3,NA,NA,NA,NA,NA,NA,NA,NA,NA,NA,NA,NA,NA,NA,NA,NA,NA,NA,NA
c370e,task,flow.Sequence,3_0_3_0_1,NA,NA,completion,24496.152,846480.80000001,846477.931,846495.312,870991.464,870993.40000001,2023-04-21T16:12:32Z,871008.548,NULL,Symbol,kielezo,d,NA,NA,NA,NA,qt,NA,3,NA,NA,NA,NA,NA,NA,NA,NA,NA,NA,NA,NA,NA,NA,NA,NA,NA,NA,NA
c370e,deep,flow.Sequence,3_0_3_0_2_0,NA,NA,skipped,NA,870993.60000002,NA,NA,870991.464,870993.80000001,2023-04-21T16:12:32Z,871008.548,NULL,Schüler,mwanafunzi,s,mwekezaji,matumizi,uaminifu,NA,qt,NA,3,NA,NA,NA,NA,NA,NA,NA,NA,NA,NA,NA,NA,NA,NA,NA,NA,NA,NA,NA
c370e,Shallow Question,html.Page,3_0_3_0_2_1_0,NA,NA,form submission,5634.0520000239,870993.90000001,870991.464,871008.548,876642.60000002,876642.90000001,2023-04-21T16:12:37Z,876653.672,NULL,Schüler,mwanafunzi,s,mwekezaji,matumizi,uaminifu,mwanafunzi,NA,NA,3,NA,NA,NA,NA,NA,NA,NA,NA,NA,NA,NA,NA,NA,NA,NA,NA,NA,NA,NA
c370e,"""Richtig""-Screen",canvas.Screen,3_0_3_0_2_1_1,NA,NA,timeout,4995.91,876644.70000002,876636.87,876653.672,881632.958,881633.80000001,2023-04-21T16:12:42Z,881649.582,NULL,Schüler,mwanafunzi,s,mwekezaji,matumizi,uaminifu,NA,qt,1,3,NA,NA,NA,NA,NA,NA,NA,NA,NA,NA,NA,NA,NA,NA,NA,NA,NA,NA,NA
c370e,"""Falsch""-Screen",canvas.Screen,3_0_3_0_2_1_2,NA,NA,skipped,NA,881638.5,NA,NA,881632.958,881638.60000002,2023-04-21T16:12:42Z,881649.582,NULL,Schüler,mwanafunzi,s,mwekezaji,matumizi,uaminifu,NA,qt,NA,3,NA,NA,NA,NA,NA,NA,NA,NA,NA,NA,NA,NA,NA,NA,NA,NA,NA,NA,NA
c370e,shallow,flow.Sequence,3_0_3_0_2_1,NA,NA,completion,10624.41,870993.80000001,870991.464,871008.548,881632.958,881638.70000002,2023-04-21T16:12:42Z,881649.582,NULL,Schüler,mwanafunzi,s,mwekezaji,matumizi,uaminifu,NA,qt,NA,3,NA,NA,NA,NA,NA,NA,NA,NA,NA,NA,NA,NA,NA,NA,NA,NA,NA,NA,NA
c370e,task,flow.Sequence,3_0_3_0_2,NA,NA,completion,10624.41,870993.5,870991.464,871008.548,881632.958,881638.70000002,2023-04-21T16:12:42Z,881649.582,NULL,Schüler,mwanafunzi,s,mwekezaji,matumizi,uaminifu,NA,qt,NA,3,NA,NA,NA,NA,NA,NA,NA,NA,NA,NA,NA,NA,NA,NA,NA,NA,NA,NA,NA
c370e,deep,flow.Sequence,3_0_3_0_3_0,NA,NA,skipped,NA,881638.90000001,NA,NA,881632.958,881638.90000001,2023-04-21T16:12:42Z,881649.582,NULL,Tester,wanaojaribu,s,sherti,sihiri,mlipuko,NA,qt,NA,3,NA,NA,NA,NA,NA,NA,NA,NA,NA,NA,NA,NA,NA,NA,NA,NA,NA,NA,NA
c370e,Shallow Question,html.Page,3_0_3_0_3_1_0,NA,NA,form submission,3542.6180000178,881639,881632.958,881649.582,885192.20000002,885192.30000001,2023-04-21T16:12:46Z,885196.156,NULL,Tester,wanaojaribu,s,sherti,sihiri,mlipuko,wanaojaribu,NA,NA,3,NA,NA,NA,NA,NA,NA,NA,NA,NA,NA,NA,NA,NA,NA,NA,NA,NA,NA,NA
c370e,"""Richtig""-Screen",canvas.Screen,3_0_3_0_3_1_1,NA,NA,timeout,4996.5380000001,885194.10000002,885180.035,885196.156,890175.461,890177.40000001,2023-04-21T16:12:51Z,890192.694,NULL,Tester,wanaojaribu,s,sherti,sihiri,mlipuko,NA,qt,1,3,NA,NA,NA,NA,NA,NA,NA,NA,NA,NA,NA,NA,NA,NA,NA,NA,NA,NA,NA
c370e,"""Falsch""-Screen",canvas.Screen,3_0_3_0_3_1_2,NA,NA,skipped,NA,890182.5,NA,NA,890175.461,890182.60000002,2023-04-21T16:12:51Z,890192.694,NULL,Tester,wanaojaribu,s,sherti,sihiri,mlipuko,NA,qt,NA,3,NA,NA,NA,NA,NA,NA,NA,NA,NA,NA,NA,NA,NA,NA,NA,NA,NA,NA,NA
c370e,shallow,flow.Sequence,3_0_3_0_3_1,NA,NA,completion,8525.879,881639,881632.958,881649.582,890175.461,890182.70000002,2023-04-21T16:12:51Z,890192.694,NULL,Tester,wanaojaribu,s,sherti,sihiri,mlipuko,NA,qt,NA,3,NA,NA,NA,NA,NA,NA,NA,NA,NA,NA,NA,NA,NA,NA,NA,NA,NA,NA,NA
c370e,task,flow.Sequence,3_0_3_0_3,NA,NA,completion,8525.879,881638.90000001,881632.958,881649.582,890175.461,890182.80000001,2023-04-21T16:12:51Z,890192.694,NULL,Tester,wanaojaribu,s,sherti,sihiri,mlipuko,NA,qt,NA,3,NA,NA,NA,NA,NA,NA,NA,NA,NA,NA,NA,NA,NA,NA,NA,NA,NA,NA,NA
c370e,deep,flow.Sequence,3_0_3_0_4_0,NA,NA,skipped,NA,890182.80000001,NA,NA,890175.461,890182.80000001,2023-04-21T16:12:51Z,890192.694,NULL,Konkurrent,mshindani,s,msemaji,mvutaji,kipukusa,NA,qt,NA,3,NA,NA,NA,NA,NA,NA,NA,NA,NA,NA,NA,NA,NA,NA,NA,NA,NA,NA,NA
c370e,Shallow Question,html.Page,3_0_3_0_4_1_0,NA,NA,form submission,5404.6060000119,890182.90000001,890175.461,890192.694,895597.30000001,895597.5,2023-04-21T16:12:56Z,895604.493,NULL,Konkurrent,mshindani,s,msemaji,mvutaji,kipukusa,mshindani,NA,NA,3,NA,NA,NA,NA,NA,NA,NA,NA,NA,NA,NA,NA,NA,NA,NA,NA,NA,NA,NA
c370e,"""Richtig""-Screen",canvas.Screen,3_0_3_0_4_1_1,NA,NA,timeout,4995.8199999999,895599.10000002,895587.724,895604.493,900584.083,900585,2023-04-21T16:13:01Z,900600.313,NULL,Konkurrent,mshindani,s,msemaji,mvutaji,kipukusa,NA,qt,1,3,NA,NA,NA,NA,NA,NA,NA,NA,NA,NA,NA,NA,NA,NA,NA,NA,NA,NA,NA
c370e,"""Falsch""-Screen",canvas.Screen,3_0_3_0_4_1_2,NA,NA,skipped,NA,900590.40000001,NA,NA,900584.083,900590.80000000994,2023-04-21T16:13:01Z,900600.313,NULL,Konkurrent,mshindani,s,msemaji,mvutaji,kipukusa,NA,qt,NA,3,NA,NA,NA,NA,NA,NA,NA,NA,NA,NA,NA,NA,NA,NA,NA,NA,NA,NA,NA
c370e,shallow,flow.Sequence,3_0_3_0_4_1,NA,NA,completion,10391.389,890182.90000001,890175.461,890192.694,900584.083,900591.10000002,2023-04-21T16:13:01Z,900600.313,NULL,Konkurrent,mshindani,s,msemaji,mvutaji,kipukusa,NA,qt,NA,3,NA,NA,NA,NA,NA,NA,NA,NA,NA,NA,NA,NA,NA,NA,NA,NA,NA,NA,NA
c370e,task,flow.Sequence,3_0_3_0_4,NA,NA,completion,10391.389,890182.80000001,890175.461,890192.694,900584.083,900591.40000001,2023-04-21T16:13:01Z,900600.313,NULL,Konkurrent,mshindani,s,msemaji,mvutaji,kipukusa,NA,qt,NA,3,NA,NA,NA,NA,NA,NA,NA,NA,NA,NA,NA,NA,NA,NA,NA,NA,NA,NA,NA
c370e,Deep Question,html.Page,3_0_3_0_5_0_0,NA,NA,form submission,6731.087000006,900591.70000002,900584.083,900600.313,907331.40000001,907331.60000002,2023-04-21T16:13:08Z,907345.298,NULL,Fenster,dirisha,d,NA,NA,NA,nyongeza,NA,NA,3,NA,NA,NA,NA,NA,NA,NA,NA,NA,NA,NA,NA,NA,NA,NA,NA,NA,NA,NA
c370e,"""Richtig""-Screen",canvas.Screen,3_0_3_0_5_0_1,NA,NA,skipped,NA,907333.5,NA,NA,907331.40000001,907333.60000002,2023-04-21T16:13:08Z,907345.298,NULL,Fenster,dirisha,d,NA,NA,NA,NA,qt,NA,3,NA,NA,NA,NA,NA,NA,NA,NA,NA,NA,NA,NA,NA,NA,NA,NA,NA,NA,NA
c370e,"""Falsch""-Screen",canvas.Screen,3_0_3_0_5_0_2,NA,NA,timeout,4995.924,907334.40000001,907328.544,907345.298,912324.715,912325.30000000994,2023-04-21T16:13:13Z,912341.222,NULL,Fenster,dirisha,d,NA,NA,NA,NA,qt,0,3,NA,NA,NA,NA,NA,NA,NA,NA,NA,NA,NA,NA,NA,NA,NA,NA,NA,NA,NA
c370e,deep,flow.Sequence,3_0_3_0_5_0,NA,NA,completion,11724.402,900591.70000002,900584.083,900600.313,912324.715,912325.5,2023-04-21T16:13:13Z,912341.222,NULL,Fenster,dirisha,d,NA,NA,NA,NA,qt,NA,3,NA,NA,NA,NA,NA,NA,NA,NA,NA,NA,NA,NA,NA,NA,NA,NA,NA,NA,NA
c370e,shallow,flow.Sequence,3_0_3_0_5_1,NA,NA,skipped,NA,912325.60000002,NA,NA,912324.715,912325.60000002,2023-04-21T16:13:13Z,912341.222,NULL,Fenster,dirisha,d,NA,NA,NA,NA,qt,NA,3,NA,NA,NA,NA,NA,NA,NA,NA,NA,NA,NA,NA,NA,NA,NA,NA,NA,NA,NA
c370e,task,flow.Sequence,3_0_3_0_5,NA,NA,completion,11724.402,900591.5,900584.083,900600.313,912324.715,912325.70000002,2023-04-21T16:13:13Z,912341.222,NULL,Fenster,dirisha,d,NA,NA,NA,NA,qt,NA,3,NA,NA,NA,NA,NA,NA,NA,NA,NA,NA,NA,NA,NA,NA,NA,NA,NA,NA,NA
c370e,deep,flow.Sequence,3_0_3_0_6_0,NA,NA,skipped,NA,912325.80000001,NA,NA,912324.715,912325.90000001,2023-04-21T16:13:13Z,912341.222,NULL,Vorsorge,tahadhari,s,ufafanuzi,makini,mashambani,NA,qt,NA,3,NA,NA,NA,NA,NA,NA,NA,NA,NA,NA,NA,NA,NA,NA,NA,NA,NA,NA,NA
c370e,Shallow Question,html.Page,3_0_3_0_6_1_0,NA,NA,form submission,4022.078000012,912326,912324.715,912341.222,916363.30000000994,916363.5,2023-04-21T16:13:17Z,916370.514,NULL,Vorsorge,tahadhari,s,ufafanuzi,makini,mashambani,tahadhari,NA,NA,3,NA,NA,NA,NA,NA,NA,NA,NA,NA,NA,NA,NA,NA,NA,NA,NA,NA,NA,NA
c370e,"""Richtig""-Screen",canvas.Screen,3_0_3_0_6_1_1,NA,NA,timeout,4996.0920000001,916365.30000001,916353.922,916370.514,921350.338,921351.70000002,2023-04-21T16:13:22Z,921366.606,NULL,Vorsorge,tahadhari,s,ufafanuzi,makini,mashambani,NA,qt,1,3,NA,NA,NA,NA,NA,NA,NA,NA,NA,NA,NA,NA,NA,NA,NA,NA,NA,NA,NA
c370e,"""Falsch""-Screen",canvas.Screen,3_0_3_0_6_1_2,NA,NA,skipped,NA,921358,NA,NA,921350.338,921358.40000001,2023-04-21T16:13:22Z,921366.606,NULL,Vorsorge,tahadhari,s,ufafanuzi,makini,mashambani,NA,qt,NA,3,NA,NA,NA,NA,NA,NA,NA,NA,NA,NA,NA,NA,NA,NA,NA,NA,NA,NA,NA
c370e,shallow,flow.Sequence,3_0_3_0_6_1,NA,NA,completion,9009.116,912326,912324.715,912341.222,921350.338,921358.70000002,2023-04-21T16:13:22Z,921366.606,NULL,Vorsorge,tahadhari,s,ufafanuzi,makini,mashambani,NA,qt,NA,3,NA,NA,NA,NA,NA,NA,NA,NA,NA,NA,NA,NA,NA,NA,NA,NA,NA,NA,NA
c370e,task,flow.Sequence,3_0_3_0_6,NA,NA,completion,9009.116,912325.80000001,912324.715,912341.222,921350.338,921359,2023-04-21T16:13:22Z,921366.606,NULL,Vorsorge,tahadhari,s,ufafanuzi,makini,mashambani,NA,qt,NA,3,NA,NA,NA,NA,NA,NA,NA,NA,NA,NA,NA,NA,NA,NA,NA,NA,NA,NA,NA
c370e,Deep Question,html.Page,3_0_3_0_7_0_0,NA,NA,form submission,5241.2940000059,921359.20000002,921350.338,921366.606,926607.90000001,926608.10000002,2023-04-21T16:13:27Z,926612.075,NULL,Zuwachs,nyongeza,d,NA,NA,NA,nyongeza,NA,NA,3,NA,NA,NA,NA,NA,NA,NA,NA,NA,NA,NA,NA,NA,NA,NA,NA,NA,NA,NA
c370e,"""Richtig""-Screen",canvas.Screen,3_0_3_0_7_0_1,NA,NA,timeout,4996.03,926610.70000002,926596.009,926612.075,931591.909,931592.80000001,2023-04-21T16:13:32Z,931608.105,NULL,Zuwachs,nyongeza,d,NA,NA,NA,NA,qt,1,3,NA,NA,NA,NA,NA,NA,NA,NA,NA,NA,NA,NA,NA,NA,NA,NA,NA,NA,NA
c370e,"""Falsch""-Screen",canvas.Screen,3_0_3_0_7_0_2,NA,NA,skipped,NA,931598.30000000994,NA,NA,931591.909,931598.60000002,2023-04-21T16:13:32Z,931608.105,NULL,Zuwachs,nyongeza,d,NA,NA,NA,NA,qt,NA,3,NA,NA,NA,NA,NA,NA,NA,NA,NA,NA,NA,NA,NA,NA,NA,NA,NA,NA,NA
c370e,deep,flow.Sequence,3_0_3_0_7_0,NA,NA,completion,10225.303,921359.20000002,921350.338,921366.606,931591.909,931599,2023-04-21T16:13:32Z,931608.105,NULL,Zuwachs,nyongeza,d,NA,NA,NA,NA,qt,NA,3,NA,NA,NA,NA,NA,NA,NA,NA,NA,NA,NA,NA,NA,NA,NA,NA,NA,NA,NA
c370e,shallow,flow.Sequence,3_0_3_0_7_1,NA,NA,skipped,NA,931599.10000002,NA,NA,931591.909,931599.30000001,2023-04-21T16:13:32Z,931608.105,NULL,Zuwachs,nyongeza,d,NA,NA,NA,NA,qt,NA,3,NA,NA,NA,NA,NA,NA,NA,NA,NA,NA,NA,NA,NA,NA,NA,NA,NA,NA,NA
c370e,task,flow.Sequence,3_0_3_0_7,NA,NA,completion,10225.303,921359.20000002,921350.338,921366.606,931591.909,931599.5,2023-04-21T16:13:32Z,931608.105,NULL,Zuwachs,nyongeza,d,NA,NA,NA,NA,qt,NA,3,NA,NA,NA,NA,NA,NA,NA,NA,NA,NA,NA,NA,NA,NA,NA,NA,NA,NA,NA
c370e,block,flow.Loop,3_0_3_0,NA,NA,completion,98302.36,833274.30000001,833272.824,833289.549,931591.909,931599.80000001,2023-04-21T16:13:32Z,931608.105,NULL,NA,NA,NA,NA,NA,NA,NA,qt,NA,3,NA,NA,NA,NA,NA,NA,NA,NA,NA,NA,NA,NA,NA,NA,NA,NA,NA,NA,NA
c370e,weiter,canvas.Screen,3_0_3_1,sdf,keypress(Space),response,877.69500001194,931600,931591.909,931608.105,932485.80000001,932486.30000001,2023-04-21T16:13:33Z,932523.918,NULL,NA,NA,NA,NA,NA,NA,NA,qt,NA,3,NA,NA,NA,NA,NA,NA,NA,NA,NA,NA,NA,NA,NA,NA,NA,NA,NA,NA,NA
c370e,check continue,flow.Sequence,3_0_3,NA,NA,completion,99196.251000012,833274.20000002,833272.824,833289.549,932485.80000001,932486.5,2023-04-21T16:13:33Z,932523.918,NULL,NA,NA,NA,NA,NA,NA,NA,qt,NA,3,NA,NA,NA,NA,NA,NA,NA,NA,NA,NA,NA,NA,NA,NA,NA,NA,NA,NA,NA
c370e,deep,flow.Sequence,3_0_4_0_0_0,NA,NA,skipped,NA,932517.20000002,NA,NA,932485.80000001,932517.40000001,2023-04-21T16:13:33Z,932523.918,NULL,Konkurrent,mshindani,s,msemaji,mvutaji,kipukusa,NA,sd,NA,4,NA,NA,NA,NA,NA,NA,NA,NA,NA,NA,NA,NA,NA,NA,NA,NA,NA,NA,NA
c370e,Shallow Question,html.Page,3_0_4_0_0_1_0,NA,NA,form submission,3970.7820000179,932517.40000001,932507.803,932523.918,936494.70000002,936494.90000001,2023-04-21T16:13:37Z,936504.09,NULL,Konkurrent,mshindani,s,msemaji,mvutaji,kipukusa,mshindani,NA,NA,4,NA,NA,NA,NA,NA,NA,NA,NA,NA,NA,NA,NA,NA,NA,NA,NA,NA,NA,NA
c370e,"""Richtig""-Screen",canvas.Screen,3_0_4_0_0_1_1,NA,NA,timeout,4996.329,936496.70000002,936487.851,936504.09,941483.219,941485.10000002,2023-04-21T16:13:42Z,941500.419,NULL,Konkurrent,mshindani,s,msemaji,mvutaji,kipukusa,NA,sd,1,4,NA,NA,NA,NA,NA,NA,NA,NA,NA,NA,NA,NA,NA,NA,NA,NA,NA,NA,NA
c370e,"""Falsch""-Screen",canvas.Screen,3_0_4_0_0_1_2,NA,NA,skipped,NA,941487.70000002,NA,NA,941483.219,941487.90000001,2023-04-21T16:13:42Z,941500.419,NULL,Konkurrent,mshindani,s,msemaji,mvutaji,kipukusa,NA,sd,NA,4,NA,NA,NA,NA,NA,NA,NA,NA,NA,NA,NA,NA,NA,NA,NA,NA,NA,NA,NA
c370e,shallow,flow.Sequence,3_0_4_0_0_1,NA,NA,completion,8959.3010000001,932517.40000001,932507.803,932523.918,941483.219,941488,2023-04-21T16:13:42Z,941500.419,NULL,Konkurrent,mshindani,s,msemaji,mvutaji,kipukusa,NA,sd,NA,4,NA,NA,NA,NA,NA,NA,NA,NA,NA,NA,NA,NA,NA,NA,NA,NA,NA,NA,NA
c370e,task,flow.Sequence,3_0_4_0_0,NA,NA,completion,8959.3010000001,932517.10000002,932507.803,932523.918,941483.219,941488.10000002,2023-04-21T16:13:42Z,941500.419,NULL,Konkurrent,mshindani,s,msemaji,mvutaji,kipukusa,NA,sd,NA,4,NA,NA,NA,NA,NA,NA,NA,NA,NA,NA,NA,NA,NA,NA,NA,NA,NA,NA,NA
c370e,Deep Question,html.Page,3_0_4_0_1_0_0,NA,NA,form submission,7193.6810000238,941488.30000001,941483.219,941500.419,948694.10000002,948694.30000001,2023-04-21T16:13:49Z,948724.058,NULL,Symbol,kielezo,d,NA,NA,NA,tielezi,NA,NA,4,NA,NA,NA,NA,NA,NA,NA,NA,NA,NA,NA,NA,NA,NA,NA,NA,NA,NA,NA
c370e,"""Richtig""-Screen",canvas.Screen,3_0_4_0_1_0_1,NA,NA,skipped,NA,948696.20000002,NA,NA,948694.10000002,948696.40000001,2023-04-21T16:13:49Z,948724.058,NULL,Symbol,kielezo,d,NA,NA,NA,NA,sd,NA,4,NA,NA,NA,NA,NA,NA,NA,NA,NA,NA,NA,NA,NA,NA,NA,NA,NA,NA,NA
c370e,"""Falsch""-Screen",canvas.Screen,3_0_4_0_1_0_2,NA,NA,timeout,4999.084,948697.10000002,948677.516,948724.058,953706.796,953707.90000001,2023-04-21T16:13:54Z,953723.142,NULL,Symbol,kielezo,d,NA,NA,NA,NA,sd,0,4,NA,NA,NA,NA,NA,NA,NA,NA,NA,NA,NA,NA,NA,NA,NA,NA,NA,NA,NA
c370e,deep,flow.Sequence,3_0_4_0_1_0,NA,NA,completion,12206.377,941488.30000001,941483.219,941500.419,953706.796,953708.20000002,2023-04-21T16:13:54Z,953723.142,NULL,Symbol,kielezo,d,NA,NA,NA,NA,sd,NA,4,NA,NA,NA,NA,NA,NA,NA,NA,NA,NA,NA,NA,NA,NA,NA,NA,NA,NA,NA
c370e,shallow,flow.Sequence,3_0_4_0_1_1,NA,NA,skipped,NA,953708.40000001,NA,NA,953706.796,953708.60000002,2023-04-21T16:13:54Z,953723.142,NULL,Symbol,kielezo,d,NA,NA,NA,NA,sd,NA,4,NA,NA,NA,NA,NA,NA,NA,NA,NA,NA,NA,NA,NA,NA,NA,NA,NA,NA,NA
c370e,task,flow.Sequence,3_0_4_0_1,NA,NA,completion,12206.377,941488.20000002,941483.219,941500.419,953706.796,953708.80000001,2023-04-21T16:13:54Z,953723.142,NULL,Symbol,kielezo,d,NA,NA,NA,NA,sd,NA,4,NA,NA,NA,NA,NA,NA,NA,NA,NA,NA,NA,NA,NA,NA,NA,NA,NA,NA,NA
c370e,deep,flow.Sequence,3_0_4_0_2_0,NA,NA,skipped,NA,953709,NA,NA,953706.796,953709.10000002,2023-04-21T16:13:54Z,953723.142,NULL,Schüler,mwanafunzi,s,mwekezaji,matumizi,uaminifu,NA,sd,NA,4,NA,NA,NA,NA,NA,NA,NA,NA,NA,NA,NA,NA,NA,NA,NA,NA,NA,NA,NA
c370e,Shallow Question,html.Page,3_0_4_0_2_1_0,NA,NA,form submission,3356.258000006,953709.30000001,953706.796,953723.142,957079.40000001,957079.60000002,2023-04-21T16:13:58Z,957087.327,NULL,Schüler,mwanafunzi,s,mwekezaji,matumizi,uaminifu,mwanafunzi,NA,NA,4,NA,NA,NA,NA,NA,NA,NA,NA,NA,NA,NA,NA,NA,NA,NA,NA,NA,NA,NA
c370e,"""Richtig""-Screen",canvas.Screen,3_0_4_0_2_1_1,NA,NA,timeout,4995.6229999999,957081.40000001,957070.702,957087.327,962066.598,962067.70000002,2023-04-21T16:14:03Z,962082.95,NULL,Schüler,mwanafunzi,s,mwekezaji,matumizi,uaminifu,NA,sd,1,4,NA,NA,NA,NA,NA,NA,NA,NA,NA,NA,NA,NA,NA,NA,NA,NA,NA,NA,NA
c370e,"""Falsch""-Screen",canvas.Screen,3_0_4_0_2_1_2,NA,NA,skipped,NA,962073.10000002,NA,NA,962066.598,962073.5,2023-04-21T16:14:03Z,962082.95,NULL,Schüler,mwanafunzi,s,mwekezaji,matumizi,uaminifu,NA,sd,NA,4,NA,NA,NA,NA,NA,NA,NA,NA,NA,NA,NA,NA,NA,NA,NA,NA,NA,NA,NA
c370e,shallow,flow.Sequence,3_0_4_0_2_1,NA,NA,completion,8343.456,953709.30000001,953706.796,953723.142,962066.598,962073.90000001,2023-04-21T16:14:03Z,962082.95,NULL,Schüler,mwanafunzi,s,mwekezaji,matumizi,uaminifu,NA,sd,NA,4,NA,NA,NA,NA,NA,NA,NA,NA,NA,NA,NA,NA,NA,NA,NA,NA,NA,NA,NA
c370e,task,flow.Sequence,3_0_4_0_2,NA,NA,completion,8343.456,953709,953706.796,953723.142,962066.598,962074.10000002,2023-04-21T16:14:03Z,962082.95,NULL,Schüler,mwanafunzi,s,mwekezaji,matumizi,uaminifu,NA,sd,NA,4,NA,NA,NA,NA,NA,NA,NA,NA,NA,NA,NA,NA,NA,NA,NA,NA,NA,NA,NA
c370e,deep,flow.Sequence,3_0_4_0_3_0,NA,NA,skipped,NA,962074.20000002,NA,NA,962066.598,962074.40000001,2023-04-21T16:14:03Z,962082.95,NULL,Vorsorge,tahadhari,s,ufafanuzi,makini,mashambani,NA,sd,NA,4,NA,NA,NA,NA,NA,NA,NA,NA,NA,NA,NA,NA,NA,NA,NA,NA,NA,NA,NA
c370e,Shallow Question,html.Page,3_0_4_0_3_1_0,NA,NA,form submission,2142.6500000239,962074.60000002,962066.598,962082.95,964225.60000002,964225.80000001,2023-04-21T16:14:05Z,964231.373,NULL,Vorsorge,tahadhari,s,ufafanuzi,makini,mashambani,tahadhari,NA,NA,4,NA,NA,NA,NA,NA,NA,NA,NA,NA,NA,NA,NA,NA,NA,NA,NA,NA,NA,NA
c370e,"""Richtig""-Screen",canvas.Screen,3_0_4_0_3_1_1,NA,NA,timeout,4995.811,964226.40000001,964214.677,964231.373,969210.995,969212,2023-04-21T16:14:10Z,969227.184,NULL,Vorsorge,tahadhari,s,ufafanuzi,makini,mashambani,NA,sd,1,4,NA,NA,NA,NA,NA,NA,NA,NA,NA,NA,NA,NA,NA,NA,NA,NA,NA,NA,NA
c370e,"""Falsch""-Screen",canvas.Screen,3_0_4_0_3_1_2,NA,NA,skipped,NA,969217.20000002,NA,NA,969210.995,969217.60000002,2023-04-21T16:14:10Z,969227.184,NULL,Vorsorge,tahadhari,s,ufafanuzi,makini,mashambani,NA,sd,NA,4,NA,NA,NA,NA,NA,NA,NA,NA,NA,NA,NA,NA,NA,NA,NA,NA,NA,NA,NA
c370e,shallow,flow.Sequence,3_0_4_0_3_1,NA,NA,completion,7128.045,962074.5,962066.598,962082.95,969210.995,969217.90000001,2023-04-21T16:14:10Z,969227.184,NULL,Vorsorge,tahadhari,s,ufafanuzi,makini,mashambani,NA,sd,NA,4,NA,NA,NA,NA,NA,NA,NA,NA,NA,NA,NA,NA,NA,NA,NA,NA,NA,NA,NA
c370e,task,flow.Sequence,3_0_4_0_3,NA,NA,completion,7128.045,962074.20000002,962066.598,962082.95,969210.995,969218.20000002,2023-04-21T16:14:10Z,969227.184,NULL,Vorsorge,tahadhari,s,ufafanuzi,makini,mashambani,NA,sd,NA,4,NA,NA,NA,NA,NA,NA,NA,NA,NA,NA,NA,NA,NA,NA,NA,NA,NA,NA,NA
c370e,Deep Question,html.Page,3_0_4_0_4_0_0,NA,NA,form submission,5343.216000006,969218.40000001,969210.995,969227.184,974570.40000001,974570.70000002,2023-04-21T16:14:15Z,974572.661,NULL,Spionage,upelelezi,d,NA,NA,NA,upelelezi,NA,NA,4,NA,NA,NA,NA,NA,NA,NA,NA,NA,NA,NA,NA,NA,NA,NA,NA,NA,NA,NA
c370e,"""Richtig""-Screen",canvas.Screen,3_0_4_0_4_0_1,NA,NA,timeout,4996.5970000001,974573.60000002,974556.436,974572.661,979552.365,979553.20000002,2023-04-21T16:14:20Z,979569.258,NULL,Spionage,upelelezi,d,NA,NA,NA,NA,sd,1,4,NA,NA,NA,NA,NA,NA,NA,NA,NA,NA,NA,NA,NA,NA,NA,NA,NA,NA,NA
c370e,"""Falsch""-Screen",canvas.Screen,3_0_4_0_4_0_2,NA,NA,skipped,NA,979557.5,NA,NA,979552.365,979557.60000002,2023-04-21T16:14:20Z,979569.258,NULL,Spionage,upelelezi,d,NA,NA,NA,NA,sd,NA,4,NA,NA,NA,NA,NA,NA,NA,NA,NA,NA,NA,NA,NA,NA,NA,NA,NA,NA,NA
c370e,deep,flow.Sequence,3_0_4_0_4_0,NA,NA,completion,10325.181,969218.30000001,969210.995,969227.184,979552.365,979557.70000002,2023-04-21T16:14:20Z,979569.258,NULL,Spionage,upelelezi,d,NA,NA,NA,NA,sd,NA,4,NA,NA,NA,NA,NA,NA,NA,NA,NA,NA,NA,NA,NA,NA,NA,NA,NA,NA,NA
c370e,shallow,flow.Sequence,3_0_4_0_4_1,NA,NA,skipped,NA,979557.80000001,NA,NA,979552.365,979557.80000001,2023-04-21T16:14:20Z,979569.258,NULL,Spionage,upelelezi,d,NA,NA,NA,NA,sd,NA,4,NA,NA,NA,NA,NA,NA,NA,NA,NA,NA,NA,NA,NA,NA,NA,NA,NA,NA,NA
c370e,task,flow.Sequence,3_0_4_0_4,NA,NA,completion,10325.181,969218.30000001,969210.995,969227.184,979552.365,979557.90000001,2023-04-21T16:14:20Z,979569.258,NULL,Spionage,upelelezi,d,NA,NA,NA,NA,sd,NA,4,NA,NA,NA,NA,NA,NA,NA,NA,NA,NA,NA,NA,NA,NA,NA,NA,NA,NA,NA
c370e,Deep Question,html.Page,3_0_4_0_5_0_0,NA,NA,form submission,10223.242,979557.90000001,979552.365,979569.258,989792.5,989792.60000002,2023-04-21T16:14:31Z,989793.478,NULL,Zuwachs,nyongeza,d,NA,NA,NA,nyongeza,NA,NA,4,NA,NA,NA,NA,NA,NA,NA,NA,NA,NA,NA,NA,NA,NA,NA,NA,NA,NA,NA
c370e,"""Richtig""-Screen",canvas.Screen,3_0_4_0_5_0_1,NA,NA,timeout,4995.9349999999,989795,989777.375,989793.478,994773.334,994774.20000002,2023-04-21T16:14:36Z,994789.413,NULL,Zuwachs,nyongeza,d,NA,NA,NA,NA,sd,1,4,NA,NA,NA,NA,NA,NA,NA,NA,NA,NA,NA,NA,NA,NA,NA,NA,NA,NA,NA
c370e,"""Falsch""-Screen",canvas.Screen,3_0_4_0_5_0_2,NA,NA,skipped,NA,994780,NA,NA,994773.334,994780.40000001,2023-04-21T16:14:36Z,994789.413,NULL,Zuwachs,nyongeza,d,NA,NA,NA,NA,sd,NA,4,NA,NA,NA,NA,NA,NA,NA,NA,NA,NA,NA,NA,NA,NA,NA,NA,NA,NA,NA
c370e,deep,flow.Sequence,3_0_4_0_5_0,NA,NA,completion,15204.076,979557.90000001,979552.365,979569.258,994773.334,994780.70000002,2023-04-21T16:14:36Z,994789.413,NULL,Zuwachs,nyongeza,d,NA,NA,NA,NA,sd,NA,4,NA,NA,NA,NA,NA,NA,NA,NA,NA,NA,NA,NA,NA,NA,NA,NA,NA,NA,NA
c370e,shallow,flow.Sequence,3_0_4_0_5_1,NA,NA,skipped,NA,994780.90000001,NA,NA,994773.334,994781,2023-04-21T16:14:36Z,994789.413,NULL,Zuwachs,nyongeza,d,NA,NA,NA,NA,sd,NA,4,NA,NA,NA,NA,NA,NA,NA,NA,NA,NA,NA,NA,NA,NA,NA,NA,NA,NA,NA
c370e,task,flow.Sequence,3_0_4_0_5,NA,NA,completion,15204.076,979557.90000001,979552.365,979569.258,994773.334,994781.30000001,2023-04-21T16:14:36Z,994789.413,NULL,Zuwachs,nyongeza,d,NA,NA,NA,NA,sd,NA,4,NA,NA,NA,NA,NA,NA,NA,NA,NA,NA,NA,NA,NA,NA,NA,NA,NA,NA,NA
c370e,deep,flow.Sequence,3_0_4_0_6_0,NA,NA,skipped,NA,994781.5,NA,NA,994773.334,994781.70000002,2023-04-21T16:14:36Z,994789.413,NULL,Tester,wanaojaribu,s,sherti,sihiri,mlipuko,NA,sd,NA,4,NA,NA,NA,NA,NA,NA,NA,NA,NA,NA,NA,NA,NA,NA,NA,NA,NA,NA,NA
c370e,Shallow Question,html.Page,3_0_4_0_6_1_0,NA,NA,form submission,3153.1870000239,994781.80000000994,994773.334,994789.413,997942.60000002,997942.80000000994,2023-04-21T16:14:39Z,997954.099,NULL,Tester,wanaojaribu,s,sherti,sihiri,mlipuko,wanaojaribu,NA,NA,4,NA,NA,NA,NA,NA,NA,NA,NA,NA,NA,NA,NA,NA,NA,NA,NA,NA,NA,NA
c370e,"""Richtig""-Screen",canvas.Screen,3_0_4_0_6_1_1,NA,NA,timeout,4996.0149999999,997944.30000001,997936.889,997954.099,1002933.277,1002934.2,2023-04-21T16:14:44Z,1002950.114,NULL,Tester,wanaojaribu,s,sherti,sihiri,mlipuko,NA,sd,1,4,NA,NA,NA,NA,NA,NA,NA,NA,NA,NA,NA,NA,NA,NA,NA,NA,NA,NA,NA
c370e,"""Falsch""-Screen",canvas.Screen,3_0_4_0_6_1_2,NA,NA,skipped,NA,1002937.2,NA,NA,1002933.277,1002937.3,2023-04-21T16:14:44Z,1002950.114,NULL,Tester,wanaojaribu,s,sherti,sihiri,mlipuko,NA,sd,NA,4,NA,NA,NA,NA,NA,NA,NA,NA,NA,NA,NA,NA,NA,NA,NA,NA,NA,NA,NA
c370e,shallow,flow.Sequence,3_0_4_0_6_1,NA,NA,completion,8143.8640000001,994781.80000000994,994773.334,994789.413,1002933.277,1002937.4,2023-04-21T16:14:44Z,1002950.114,NULL,Tester,wanaojaribu,s,sherti,sihiri,mlipuko,NA,sd,NA,4,NA,NA,NA,NA,NA,NA,NA,NA,NA,NA,NA,NA,NA,NA,NA,NA,NA,NA,NA
c370e,task,flow.Sequence,3_0_4_0_6,NA,NA,completion,8143.8640000001,994781.40000001,994773.334,994789.413,1002933.277,1002937.4,2023-04-21T16:14:44Z,1002950.114,NULL,Tester,wanaojaribu,s,sherti,sihiri,mlipuko,NA,sd,NA,4,NA,NA,NA,NA,NA,NA,NA,NA,NA,NA,NA,NA,NA,NA,NA,NA,NA,NA,NA
c370e,Deep Question,html.Page,3_0_4_0_7_0_0,NA,NA,form submission,3836.786000006,1002937.5,1002933.277,1002950.114,1006786.9,1006787,2023-04-21T16:14:48Z,1006796.253,NULL,Fenster,dirisha,d,NA,NA,NA,dirisha,NA,NA,4,NA,NA,NA,NA,NA,NA,NA,NA,NA,NA,NA,NA,NA,NA,NA,NA,NA,NA,NA
c370e,"""Richtig""-Screen",canvas.Screen,3_0_4_0_7_0_1,NA,NA,timeout,4996.553,1006789.5,1006780.134,1006796.253,1011775.532,1011777.2,2023-04-21T16:14:53Z,1011792.806,NULL,Fenster,dirisha,d,NA,NA,NA,NA,sd,1,4,NA,NA,NA,NA,NA,NA,NA,NA,NA,NA,NA,NA,NA,NA,NA,NA,NA,NA,NA
c370e,"""Falsch""-Screen",canvas.Screen,3_0_4_0_7_0_2,NA,NA,skipped,NA,1011781.6,NA,NA,1011775.532,1011781.8,2023-04-21T16:14:53Z,1011792.806,NULL,Fenster,dirisha,d,NA,NA,NA,NA,sd,NA,4,NA,NA,NA,NA,NA,NA,NA,NA,NA,NA,NA,NA,NA,NA,NA,NA,NA,NA,NA
c370e,deep,flow.Sequence,3_0_4_0_7_0,NA,NA,completion,8825.4180000001,1002937.5,1002933.277,1002950.114,1011775.532,1011781.9,2023-04-21T16:14:53Z,1011792.806,NULL,Fenster,dirisha,d,NA,NA,NA,NA,sd,NA,4,NA,NA,NA,NA,NA,NA,NA,NA,NA,NA,NA,NA,NA,NA,NA,NA,NA,NA,NA
c370e,shallow,flow.Sequence,3_0_4_0_7_1,NA,NA,skipped,NA,1011782,NA,NA,1011775.532,1011782.1,2023-04-21T16:14:53Z,1011792.806,NULL,Fenster,dirisha,d,NA,NA,NA,NA,sd,NA,4,NA,NA,NA,NA,NA,NA,NA,NA,NA,NA,NA,NA,NA,NA,NA,NA,NA,NA,NA
c370e,task,flow.Sequence,3_0_4_0_7,NA,NA,completion,8825.4180000001,1002937.5,1002933.277,1002950.114,1011775.532,1011782.1,2023-04-21T16:14:53Z,1011792.806,NULL,Fenster,dirisha,d,NA,NA,NA,NA,sd,NA,4,NA,NA,NA,NA,NA,NA,NA,NA,NA,NA,NA,NA,NA,NA,NA,NA,NA,NA,NA
c370e,block,flow.Loop,3_0_4_0,NA,NA,completion,79251.614,932517.10000002,932507.803,932523.918,1011775.532,1011782.3,2023-04-21T16:14:53Z,1011792.806,NULL,NA,NA,NA,NA,NA,NA,NA,sd,NA,4,NA,NA,NA,NA,NA,NA,NA,NA,NA,NA,NA,NA,NA,NA,NA,NA,NA,NA,NA
c370e,weiter,canvas.Screen,3_0_4_1,sdf,keypress(Space),response,1178.3940000179,1011782.3,1011775.532,1011792.806,1012971.2,1012971.6,2023-04-21T16:14:54Z,1013457.372,NULL,NA,NA,NA,NA,NA,NA,NA,sd,NA,4,NA,NA,NA,NA,NA,NA,NA,NA,NA,NA,NA,NA,NA,NA,NA,NA,NA,NA,NA
c370e,check continue,flow.Sequence,3_0_4,NA,NA,completion,80447.282000018,932517.10000002,932507.803,932523.918,1012971.2,1012971.7,2023-04-21T16:14:54Z,1013457.372,NULL,NA,NA,NA,NA,NA,NA,NA,sd,NA,4,NA,NA,NA,NA,NA,NA,NA,NA,NA,NA,NA,NA,NA,NA,NA,NA,NA,NA,NA
c370e,check continue,flow.Sequence,3_0_5,NA,NA,skipped,NA,1012996.7,NA,NA,1012971.2,1012996.8,2023-04-21T16:14:54Z,1013457.372,NULL,NA,NA,NA,NA,NA,NA,NA,sdf,NA,5,NA,NA,NA,NA,NA,NA,NA,NA,NA,NA,NA,NA,NA,NA,NA,NA,NA,NA,NA
c370e,check continue,flow.Sequence,3_0_6,NA,NA,skipped,NA,1013015.6,NA,NA,1012971.2,1013015.7,2023-04-21T16:14:54Z,1013457.372,NULL,NA,NA,NA,NA,NA,NA,NA,dfs,NA,6,NA,NA,NA,NA,NA,NA,NA,NA,NA,NA,NA,NA,NA,NA,NA,NA,NA,NA,NA
c370e,check continue,flow.Sequence,3_0_7,NA,NA,skipped,NA,1013036.3,NA,NA,1012971.2,1013036.5,2023-04-21T16:14:54Z,1013457.372,NULL,NA,NA,NA,NA,NA,NA,NA,df,NA,7,NA,NA,NA,NA,NA,NA,NA,NA,NA,NA,NA,NA,NA,NA,NA,NA,NA,NA,NA
c370e,check continue,flow.Sequence,3_0_8,NA,NA,skipped,NA,1013061.1,NA,NA,1012971.2,1013061.2,2023-04-21T16:14:54Z,1013457.372,NULL,NA,NA,NA,NA,NA,NA,NA,dfs,NA,8,NA,NA,NA,NA,NA,NA,NA,NA,NA,NA,NA,NA,NA,NA,NA,NA,NA,NA,NA
c370e,check continue,flow.Sequence,3_0_9,NA,NA,skipped,NA,1013089.7,NA,NA,1012971.2,1013089.9,2023-04-21T16:14:54Z,1013457.372,NULL,NA,NA,NA,NA,NA,NA,NA,dsf,NA,9,NA,NA,NA,NA,NA,NA,NA,NA,NA,NA,NA,NA,NA,NA,NA,NA,NA,NA,NA
c370e,check continue,flow.Sequence,3_0_10,NA,NA,skipped,NA,1013114.4,NA,NA,1012971.2,1013114.5,2023-04-21T16:14:54Z,1013457.372,NULL,NA,NA,NA,NA,NA,NA,NA,df,NA,10,NA,NA,NA,NA,NA,NA,NA,NA,NA,NA,NA,NA,NA,NA,NA,NA,NA,NA,NA
c370e,check continue,flow.Sequence,3_0_11,NA,NA,skipped,NA,1013130.7,NA,NA,1012971.2,1013130.8,2023-04-21T16:14:54Z,1013457.372,NULL,NA,NA,NA,NA,NA,NA,NA,dfs,NA,11,NA,NA,NA,NA,NA,NA,NA,NA,NA,NA,NA,NA,NA,NA,NA,NA,NA,NA,NA
c370e,check continue,flow.Sequence,3_0_12,NA,NA,skipped,NA,1013151.2,NA,NA,1012971.2,1013151.4,2023-04-21T16:14:54Z,1013457.372,NULL,NA,NA,NA,NA,NA,NA,NA,dsf,NA,12,NA,NA,NA,NA,NA,NA,NA,NA,NA,NA,NA,NA,NA,NA,NA,NA,NA,NA,NA
c370e,check continue,flow.Sequence,3_0_13,NA,NA,skipped,NA,1013170,NA,NA,1012971.2,1013170,2023-04-21T16:14:54Z,1013457.372,NULL,NA,NA,NA,NA,NA,NA,NA,dsf,NA,13,NA,NA,NA,NA,NA,NA,NA,NA,NA,NA,NA,NA,NA,NA,NA,NA,NA,NA,NA
c370e,check continue,flow.Sequence,3_0_14,NA,NA,skipped,NA,1013190.1,NA,NA,1012971.2,1013190.3,2023-04-21T16:14:54Z,1013457.372,NULL,NA,NA,NA,NA,NA,NA,NA,NA,NA,14,NA,NA,NA,NA,NA,NA,NA,NA,NA,NA,NA,NA,NA,NA,NA,NA,NA,NA,NA
c370e,check continue,flow.Sequence,3_0_15,NA,NA,skipped,NA,1013209.2,NA,NA,1012971.2,1013209.3,2023-04-21T16:14:54Z,1013457.372,NULL,NA,NA,NA,NA,NA,NA,NA,NA,NA,15,NA,NA,NA,NA,NA,NA,NA,NA,NA,NA,NA,NA,NA,NA,NA,NA,NA,NA,NA
c370e,check continue,flow.Sequence,3_0_16,NA,NA,skipped,NA,1013224.7,NA,NA,1012971.2,1013224.9,2023-04-21T16:14:54Z,1013457.372,NULL,NA,NA,NA,NA,NA,NA,NA,NA,NA,16,NA,NA,NA,NA,NA,NA,NA,NA,NA,NA,NA,NA,NA,NA,NA,NA,NA,NA,NA
c370e,check continue,flow.Sequence,3_0_17,NA,NA,skipped,NA,1013239.3,NA,NA,1012971.2,1013239.4,2023-04-21T16:14:54Z,1013457.372,NULL,NA,NA,NA,NA,NA,NA,NA,NA,NA,17,NA,NA,NA,NA,NA,NA,NA,NA,NA,NA,NA,NA,NA,NA,NA,NA,NA,NA,NA
c370e,check continue,flow.Sequence,3_0_18,NA,NA,skipped,NA,1013254.2,NA,NA,1012971.2,1013254.3,2023-04-21T16:14:54Z,1013457.372,NULL,NA,NA,NA,NA,NA,NA,NA,NA,NA,18,NA,NA,NA,NA,NA,NA,NA,NA,NA,NA,NA,NA,NA,NA,NA,NA,NA,NA,NA
c370e,check continue,flow.Sequence,3_0_19,NA,NA,skipped,NA,1013272.2,NA,NA,1012971.2,1013272.4,2023-04-21T16:14:54Z,1013457.372,NULL,NA,NA,NA,NA,NA,NA,NA,NA,NA,19,NA,NA,NA,NA,NA,NA,NA,NA,NA,NA,NA,NA,NA,NA,NA,NA,NA,NA,NA
c370e,check continue,flow.Sequence,3_0_20,NA,NA,skipped,NA,1013288,NA,NA,1012971.2,1013288.2,2023-04-21T16:14:54Z,1013457.372,NULL,NA,NA,NA,NA,NA,NA,NA,NA,NA,20,NA,NA,NA,NA,NA,NA,NA,NA,NA,NA,NA,NA,NA,NA,NA,NA,NA,NA,NA
c370e,check continue,flow.Sequence,3_0_21,NA,NA,skipped,NA,1013308,NA,NA,1012971.2,1013308.2,2023-04-21T16:14:54Z,1013457.372,NULL,NA,NA,NA,NA,NA,NA,NA,NA,NA,21,NA,NA,NA,NA,NA,NA,NA,NA,NA,NA,NA,NA,NA,NA,NA,NA,NA,NA,NA
c370e,check continue,flow.Sequence,3_0_22,NA,NA,skipped,NA,1013322.4,NA,NA,1012971.2,1013322.6,2023-04-21T16:14:54Z,1013457.372,NULL,NA,NA,NA,NA,NA,NA,NA,NA,NA,22,NA,NA,NA,NA,NA,NA,NA,NA,NA,NA,NA,NA,NA,NA,NA,NA,NA,NA,NA
c370e,check continue,flow.Sequence,3_0_23,NA,NA,skipped,NA,1013339.9,NA,NA,1012971.2,1013340.1,2023-04-21T16:14:54Z,1013457.372,NULL,NA,NA,NA,NA,NA,NA,NA,NA,NA,23,NA,NA,NA,NA,NA,NA,NA,NA,NA,NA,NA,NA,NA,NA,NA,NA,NA,NA,NA
c370e,check continue,flow.Sequence,3_0_24,NA,NA,skipped,NA,1013354.1,NA,NA,1012971.2,1013354.2,2023-04-21T16:14:54Z,1013457.372,NULL,NA,NA,NA,NA,NA,NA,NA,NA,NA,24,NA,NA,NA,NA,NA,NA,NA,NA,NA,NA,NA,NA,NA,NA,NA,NA,NA,NA,NA
c370e,check continue,flow.Sequence,3_0_25,NA,NA,skipped,NA,1013369.9,NA,NA,1012971.2,1013369.9,2023-04-21T16:14:54Z,1013457.372,NULL,NA,NA,NA,NA,NA,NA,NA,NA,NA,25,NA,NA,NA,NA,NA,NA,NA,NA,NA,NA,NA,NA,NA,NA,NA,NA,NA,NA,NA
c370e,check continue,flow.Sequence,3_0_26,NA,NA,skipped,NA,1013388.4,NA,NA,1012971.2,1013388.5,2023-04-21T16:14:54Z,1013457.372,NULL,NA,NA,NA,NA,NA,NA,NA,NA,NA,26,NA,NA,NA,NA,NA,NA,NA,NA,NA,NA,NA,NA,NA,NA,NA,NA,NA,NA,NA
c370e,check continue,flow.Sequence,3_0_27,NA,NA,skipped,NA,1013409.3,NA,NA,1012971.2,1013409.5,2023-04-21T16:14:54Z,1013457.372,NULL,NA,NA,NA,NA,NA,NA,NA,NA,NA,27,NA,NA,NA,NA,NA,NA,NA,NA,NA,NA,NA,NA,NA,NA,NA,NA,NA,NA,NA
c370e,check continue,flow.Sequence,3_0_28,NA,NA,skipped,NA,1013424.9,NA,NA,1012971.2,1013425.1,2023-04-21T16:14:54Z,1013457.372,NULL,NA,NA,NA,NA,NA,NA,NA,NA,NA,28,NA,NA,NA,NA,NA,NA,NA,NA,NA,NA,NA,NA,NA,NA,NA,NA,NA,NA,NA
c370e,check continue,flow.Sequence,3_0_29,NA,NA,skipped,NA,1013440.5,NA,NA,1012971.2,1013440.6,2023-04-21T16:14:54Z,1013457.372,NULL,NA,NA,NA,NA,NA,NA,NA,NA,NA,29,NA,NA,NA,NA,NA,NA,NA,NA,NA,NA,NA,NA,NA,NA,NA,NA,NA,NA,NA
c370e,until continue,flow.Loop,3_0,NA,NA,completion,454989.11500002,557949.90000001,557964.693,557982.085,1012971.2,1013440.8,2023-04-21T16:14:54Z,1013457.372,NULL,NA,NA,NA,NA,NA,NA,NA,NA,NA,NA,NA,NA,NA,NA,NA,NA,NA,NA,NA,NA,NA,NA,NA,NA,NA,NA,NA,NA,NA
c370e,block 1,flow.Sequence,3,NA,NA,completion,454989.11500002,557949.90000001,557964.693,557982.085,1012971.2,1013440.9,2023-04-21T16:14:54Z,1013457.372,NULL,NA,NA,NA,NA,NA,NA,NA,NA,NA,NA,NA,NA,NA,NA,NA,NA,NA,NA,NA,NA,NA,NA,NA,NA,NA,NA,NA,NA,NA
c370e,1.Part Over,canvas.Screen,4,NA,keypress(Space),response,3606.2280000239,1013440.9,1013440.851,1013457.372,1017063.6,1017064.1,2023-04-21T16:14:58Z,1017138.013,NULL,NA,NA,NA,NA,NA,NA,NA,NA,NA,NA,NA,NA,NA,NA,NA,NA,NA,NA,NA,NA,NA,NA,NA,NA,NA,NA,NA,NA,NA
c370e,deep,flow.Sequence,5_0_0_0_0_0,NA,NA,skipped,NA,1017125,NA,NA,1017063.6,1017125.1,2023-04-21T16:14:58Z,1017138.013,NULL,Inhalt,yaliyomo,s,kishawishi,hifadhi,kutembea,NA,sdf,NA,0,NA,NA,NA,NA,NA,NA,NA,NA,NA,NA,NA,NA,NA,NA,NA,NA,NA,NA,NA
c370e,Shallow Question,html.Page,5_0_0_0_0_1_0,NA,NA,form submission,3713.8870000059,1017125.2,1017121.32,1017138.013,1020851.9,1020852.1,2023-04-21T16:15:02Z,1020881.694,NULL,Inhalt,yaliyomo,s,kishawishi,hifadhi,kutembea,yaliyomo,NA,NA,0,NA,NA,NA,NA,NA,NA,NA,NA,NA,NA,NA,NA,NA,NA,NA,NA,NA,NA,NA
c370e,"""Richtig""-Screen",canvas.Screen,5_0_0_0_0_1_1,NA,NA,timeout,4998.836,1020854,1020835.04,1020881.694,1025864.409,1025865.4,2023-04-21T16:15:07Z,1025880.53,NULL,Inhalt,yaliyomo,s,kishawishi,hifadhi,kutembea,NA,sdf,1,0,NA,NA,NA,NA,NA,NA,NA,NA,NA,NA,NA,NA,NA,NA,NA,NA,NA,NA,NA
c370e,"""Falsch""-Screen",canvas.Screen,5_0_0_0_0_1_2,NA,NA,skipped,NA,1025870.7,NA,NA,1025864.409,1025871.1,2023-04-21T16:15:07Z,1025880.53,NULL,Inhalt,yaliyomo,s,kishawishi,hifadhi,kutembea,NA,sdf,NA,0,NA,NA,NA,NA,NA,NA,NA,NA,NA,NA,NA,NA,NA,NA,NA,NA,NA,NA,NA
c370e,shallow,flow.Sequence,5_0_0_0_0_1,NA,NA,completion,8726.3959999999,1017125.2,1017121.32,1017138.013,1025864.409,1025871.5,2023-04-21T16:15:07Z,1025880.53,NULL,Inhalt,yaliyomo,s,kishawishi,hifadhi,kutembea,NA,sdf,NA,0,NA,NA,NA,NA,NA,NA,NA,NA,NA,NA,NA,NA,NA,NA,NA,NA,NA,NA,NA
c370e,task,flow.Sequence,5_0_0_0_0,NA,NA,completion,8726.3959999999,1017125,1017121.32,1017138.013,1025864.409,1025871.8,2023-04-21T16:15:07Z,1025880.53,NULL,Inhalt,yaliyomo,s,kishawishi,hifadhi,kutembea,NA,sdf,NA,0,NA,NA,NA,NA,NA,NA,NA,NA,NA,NA,NA,NA,NA,NA,NA,NA,NA,NA,NA
c370e,Deep Question,html.Page,5_0_0_0_1_0_0,NA,NA,form submission,1919.97,1025872,1025864.409,1025880.53,1027800.5,1027800.7,2023-04-21T16:15:09Z,1027812.858,NULL,Schlange,foleni,d,NA,NA,NA,l,NA,NA,0,NA,NA,NA,NA,NA,NA,NA,NA,NA,NA,NA,NA,NA,NA,NA,NA,NA,NA,NA
c370e,"""Richtig""-Screen",canvas.Screen,5_0_0_0_1_0_1,NA,NA,skipped,NA,1027801.6,NA,NA,1027800.5,1027801.8,2023-04-21T16:15:09Z,1027812.858,NULL,Schlange,foleni,d,NA,NA,NA,NA,sdf,NA,0,NA,NA,NA,NA,NA,NA,NA,NA,NA,NA,NA,NA,NA,NA,NA,NA,NA,NA,NA
c370e,"""Falsch""-Screen",canvas.Screen,5_0_0_0_1_0_2,NA,NA,timeout,4995.997,1027802.5,1027796.263,1027812.858,1032791.675,1032792.6,2023-04-21T16:15:14Z,1032808.855,NULL,Schlange,foleni,d,NA,NA,NA,NA,sdf,0,0,NA,NA,NA,NA,NA,NA,NA,NA,NA,NA,NA,NA,NA,NA,NA,NA,NA,NA,NA
c370e,deep,flow.Sequence,5_0_0_0_1_0,NA,NA,completion,6911.145,1025872,1025864.409,1025880.53,1032791.675,1032793.2,2023-04-21T16:15:14Z,1032808.855,NULL,Schlange,foleni,d,NA,NA,NA,NA,sdf,NA,0,NA,NA,NA,NA,NA,NA,NA,NA,NA,NA,NA,NA,NA,NA,NA,NA,NA,NA,NA
c370e,shallow,flow.Sequence,5_0_0_0_1_1,NA,NA,skipped,NA,1032793.3,NA,NA,1032791.675,1032793.5,2023-04-21T16:15:14Z,1032808.855,NULL,Schlange,foleni,d,NA,NA,NA,NA,sdf,NA,0,NA,NA,NA,NA,NA,NA,NA,NA,NA,NA,NA,NA,NA,NA,NA,NA,NA,NA,NA
c370e,task,flow.Sequence,5_0_0_0_1,NA,NA,completion,6911.145,1025871.9,1025864.409,1025880.53,1032791.675,1032793.7,2023-04-21T16:15:14Z,1032808.855,NULL,Schlange,foleni,d,NA,NA,NA,NA,sdf,NA,0,NA,NA,NA,NA,NA,NA,NA,NA,NA,NA,NA,NA,NA,NA,NA,NA,NA,NA,NA
c370e,deep,flow.Sequence,5_0_0_0_2_0,NA,NA,skipped,NA,1032793.8,NA,NA,1032791.675,1032794,2023-04-21T16:15:14Z,1032808.855,NULL,Vermutung,udhanifu,s,haramia,tikisho,itifaki,NA,sdf,NA,0,NA,NA,NA,NA,NA,NA,NA,NA,NA,NA,NA,NA,NA,NA,NA,NA,NA,NA,NA
c370e,Shallow Question,html.Page,5_0_0_0_2_1_0,NA,NA,form submission,2316.4450000119,1032794.1,1032791.675,1032808.855,1035125.3,1035125.5,2023-04-21T16:15:16Z,1035140.216,NULL,Vermutung,udhanifu,s,haramia,tikisho,itifaki,tikisho,NA,NA,0,NA,NA,NA,NA,NA,NA,NA,NA,NA,NA,NA,NA,NA,NA,NA,NA,NA,NA,NA
c370e,"""Richtig""-Screen",canvas.Screen,5_0_0_0_2_1_1,NA,NA,skipped,NA,1035127.5,NA,NA,1035125.3,1035127.6,2023-04-21T16:15:16Z,1035140.216,NULL,Vermutung,udhanifu,s,haramia,tikisho,itifaki,NA,sdf,NA,0,NA,NA,NA,NA,NA,NA,NA,NA,NA,NA,NA,NA,NA,NA,NA,NA,NA,NA,NA
c370e,"""Falsch""-Screen",canvas.Screen,5_0_0_0_2_1_2,NA,NA,timeout,4995.237,1035128.3,1035123.469,1035140.216,1040119.572,1040120.1,2023-04-21T16:15:21Z,1040135.453,NULL,Vermutung,udhanifu,s,haramia,tikisho,itifaki,NA,sdf,0,0,NA,NA,NA,NA,NA,NA,NA,NA,NA,NA,NA,NA,NA,NA,NA,NA,NA,NA,NA
c370e,shallow,flow.Sequence,5_0_0_0_2_1,NA,NA,completion,7310.7170000001,1032794,1032791.675,1032808.855,1040119.572,1040120.1,2023-04-21T16:15:21Z,1040135.453,NULL,Vermutung,udhanifu,s,haramia,tikisho,itifaki,NA,sdf,NA,0,NA,NA,NA,NA,NA,NA,NA,NA,NA,NA,NA,NA,NA,NA,NA,NA,NA,NA,NA
c370e,task,flow.Sequence,5_0_0_0_2,NA,NA,completion,7310.7170000001,1032793.8,1032791.675,1032808.855,1040119.572,1040120.2,2023-04-21T16:15:21Z,1040135.453,NULL,Vermutung,udhanifu,s,haramia,tikisho,itifaki,NA,sdf,NA,0,NA,NA,NA,NA,NA,NA,NA,NA,NA,NA,NA,NA,NA,NA,NA,NA,NA,NA,NA
c370e,deep,flow.Sequence,5_0_0_0_3_0,NA,NA,skipped,NA,1040120.4,NA,NA,1040119.572,1040120.4,2023-04-21T16:15:21Z,1040135.453,NULL,Beweis,ushahidi,s,marudio,kizuizi,mtendaji,NA,sdf,NA,0,NA,NA,NA,NA,NA,NA,NA,NA,NA,NA,NA,NA,NA,NA,NA,NA,NA,NA,NA
c370e,Shallow Question,html.Page,5_0_0_0_3_1_0,NA,NA,form submission,1929.447000006,1040120.5,1040119.572,1040135.453,1042064.9,1042065.1,2023-04-21T16:15:23Z,1042067.19,NULL,Beweis,ushahidi,s,marudio,kizuizi,mtendaji,ushahidi,NA,NA,0,NA,NA,NA,NA,NA,NA,NA,NA,NA,NA,NA,NA,NA,NA,NA,NA,NA,NA,NA
c370e,"""Richtig""-Screen",canvas.Screen,5_0_0_0_3_1_1,NA,NA,timeout,4995.947,1042067,1042050.955,1042067.19,1047046.859,1047047.9,2023-04-21T16:15:28Z,1047063.137,NULL,Beweis,ushahidi,s,marudio,kizuizi,mtendaji,NA,sdf,1,0,NA,NA,NA,NA,NA,NA,NA,NA,NA,NA,NA,NA,NA,NA,NA,NA,NA,NA,NA
c370e,"""Falsch""-Screen",canvas.Screen,5_0_0_0_3_1_2,NA,NA,skipped,NA,1047053.7,NA,NA,1047046.859,1047054.1,2023-04-21T16:15:28Z,1047063.137,NULL,Beweis,ushahidi,s,marudio,kizuizi,mtendaji,NA,sdf,NA,0,NA,NA,NA,NA,NA,NA,NA,NA,NA,NA,NA,NA,NA,NA,NA,NA,NA,NA,NA
c370e,shallow,flow.Sequence,5_0_0_0_3_1,NA,NA,completion,6911.4060000001,1040120.4,1040119.572,1040135.453,1047046.859,1047054.4,2023-04-21T16:15:28Z,1047063.137,NULL,Beweis,ushahidi,s,marudio,kizuizi,mtendaji,NA,sdf,NA,0,NA,NA,NA,NA,NA,NA,NA,NA,NA,NA,NA,NA,NA,NA,NA,NA,NA,NA,NA
c370e,task,flow.Sequence,5_0_0_0_3,NA,NA,completion,6911.4060000001,1040120.3,1040119.572,1040135.453,1047046.859,1047054.7,2023-04-21T16:15:28Z,1047063.137,NULL,Beweis,ushahidi,s,marudio,kizuizi,mtendaji,NA,sdf,NA,0,NA,NA,NA,NA,NA,NA,NA,NA,NA,NA,NA,NA,NA,NA,NA,NA,NA,NA,NA
c370e,deep,flow.Sequence,5_0_0_0_4_0,NA,NA,skipped,NA,1047054.8,NA,NA,1047046.859,1047055.1,2023-04-21T16:15:28Z,1047063.137,NULL,Polizist,msongora,s,simanzi,mandhari,nidhamu,NA,sdf,NA,0,NA,NA,NA,NA,NA,NA,NA,NA,NA,NA,NA,NA,NA,NA,NA,NA,NA,NA,NA
c370e,Shallow Question,html.Page,5_0_0_0_4_1_0,NA,NA,form submission,2308.263000006,1047055.2,1047046.859,1047063.137,1049371.4,1049371.6,2023-04-21T16:15:30Z,1049378.03,NULL,Polizist,msongora,s,simanzi,mandhari,nidhamu,mandhari,NA,NA,0,NA,NA,NA,NA,NA,NA,NA,NA,NA,NA,NA,NA,NA,NA,NA,NA,NA,NA,NA
c370e,"""Richtig""-Screen",canvas.Screen,5_0_0_0_4_1_1,NA,NA,skipped,NA,1049373.3,NA,NA,1049371.4,1049373.5,2023-04-21T16:15:30Z,1049378.03,NULL,Polizist,msongora,s,simanzi,mandhari,nidhamu,NA,sdf,NA,0,NA,NA,NA,NA,NA,NA,NA,NA,NA,NA,NA,NA,NA,NA,NA,NA,NA,NA,NA
c370e,"""Falsch""-Screen",canvas.Screen,5_0_0_0_4_1_2,NA,NA,timeout,4996.4139999999,1049374,1049361.881,1049378.03,1054357.162,1054358.8,2023-04-21T16:15:35Z,1054374.444,NULL,Polizist,msongora,s,simanzi,mandhari,nidhamu,NA,sdf,0,0,NA,NA,NA,NA,NA,NA,NA,NA,NA,NA,NA,NA,NA,NA,NA,NA,NA,NA,NA
c370e,shallow,flow.Sequence,5_0_0_0_4_1,NA,NA,completion,7294.025,1047055.1,1047046.859,1047063.137,1054357.162,1054358.9,2023-04-21T16:15:35Z,1054374.444,NULL,Polizist,msongora,s,simanzi,mandhari,nidhamu,NA,sdf,NA,0,NA,NA,NA,NA,NA,NA,NA,NA,NA,NA,NA,NA,NA,NA,NA,NA,NA,NA,NA
c370e,task,flow.Sequence,5_0_0_0_4,NA,NA,completion,7294.025,1047054.8,1047046.859,1047063.137,1054357.162,1054359,2023-04-21T16:15:35Z,1054374.444,NULL,Polizist,msongora,s,simanzi,mandhari,nidhamu,NA,sdf,NA,0,NA,NA,NA,NA,NA,NA,NA,NA,NA,NA,NA,NA,NA,NA,NA,NA,NA,NA,NA
c370e,Deep Question,html.Page,5_0_0_0_5_0_0,NA,NA,form submission,2748.9560000061,1054359.1,1054357.162,1054374.444,1057123.4,1057123.6,2023-04-21T16:15:38Z,1057138.44,NULL,Toleranz,kuvumiliana,d,NA,NA,NA,l,NA,NA,0,NA,NA,NA,NA,NA,NA,NA,NA,NA,NA,NA,NA,NA,NA,NA,NA,NA,NA,NA
c370e,"""Richtig""-Screen",canvas.Screen,5_0_0_0_5_0_1,NA,NA,skipped,NA,1057125.7,NA,NA,1057123.4,1057125.8,2023-04-21T16:15:38Z,1057138.44,NULL,Toleranz,kuvumiliana,d,NA,NA,NA,NA,sdf,NA,0,NA,NA,NA,NA,NA,NA,NA,NA,NA,NA,NA,NA,NA,NA,NA,NA,NA,NA,NA
c370e,"""Falsch""-Screen",canvas.Screen,5_0_0_0_5_0_2,NA,NA,timeout,4996.189,1057126.5,1057121.867,1057138.44,1062117.471,1062118.5,2023-04-21T16:15:43Z,1062134.629,NULL,Toleranz,kuvumiliana,d,NA,NA,NA,NA,sdf,0,0,NA,NA,NA,NA,NA,NA,NA,NA,NA,NA,NA,NA,NA,NA,NA,NA,NA,NA,NA
c370e,deep,flow.Sequence,5_0_0_0_5_0,NA,NA,completion,7743.027,1054359.1,1054357.162,1054374.444,1062117.471,1062118.9,2023-04-21T16:15:43Z,1062134.629,NULL,Toleranz,kuvumiliana,d,NA,NA,NA,NA,sdf,NA,0,NA,NA,NA,NA,NA,NA,NA,NA,NA,NA,NA,NA,NA,NA,NA,NA,NA,NA,NA
c370e,shallow,flow.Sequence,5_0_0_0_5_1,NA,NA,skipped,NA,1062119,NA,NA,1062117.471,1062119.2,2023-04-21T16:15:43Z,1062134.629,NULL,Toleranz,kuvumiliana,d,NA,NA,NA,NA,sdf,NA,0,NA,NA,NA,NA,NA,NA,NA,NA,NA,NA,NA,NA,NA,NA,NA,NA,NA,NA,NA
c370e,task,flow.Sequence,5_0_0_0_5,NA,NA,completion,7743.027,1054359.1,1054357.162,1054374.444,1062117.471,1062119.5,2023-04-21T16:15:43Z,1062134.629,NULL,Toleranz,kuvumiliana,d,NA,NA,NA,NA,sdf,NA,0,NA,NA,NA,NA,NA,NA,NA,NA,NA,NA,NA,NA,NA,NA,NA,NA,NA,NA,NA
c370e,Deep Question,html.Page,5_0_0_0_6_0_0,NA,NA,form submission,1662.271000006,1062119.7,1062117.471,1062134.629,1063796.9,1063797,2023-04-21T16:15:45Z,1063799.316,NULL,Sympathie,mapendano,d,NA,NA,NA,f,NA,NA,0,NA,NA,NA,NA,NA,NA,NA,NA,NA,NA,NA,NA,NA,NA,NA,NA,NA,NA,NA
c370e,"""Richtig""-Screen",canvas.Screen,5_0_0_0_6_0_1,NA,NA,skipped,NA,1063798.9,NA,NA,1063796.9,1063799,2023-04-21T16:15:45Z,1063799.316,NULL,Sympathie,mapendano,d,NA,NA,NA,NA,sdf,NA,0,NA,NA,NA,NA,NA,NA,NA,NA,NA,NA,NA,NA,NA,NA,NA,NA,NA,NA,NA
c370e,"""Falsch""-Screen",canvas.Screen,5_0_0_0_6_0_2,NA,NA,timeout,4995.9669999999,1063800,1063782.773,1063799.316,1068778.671,1068779.7,2023-04-21T16:15:50Z,1068795.283,NULL,Sympathie,mapendano,d,NA,NA,NA,NA,sdf,0,0,NA,NA,NA,NA,NA,NA,NA,NA,NA,NA,NA,NA,NA,NA,NA,NA,NA,NA,NA
c370e,deep,flow.Sequence,5_0_0_0_6_0,NA,NA,completion,6644.0420000001,1062119.7,1062117.471,1062134.629,1068778.671,1068780.1,2023-04-21T16:15:50Z,1068795.283,NULL,Sympathie,mapendano,d,NA,NA,NA,NA,sdf,NA,0,NA,NA,NA,NA,NA,NA,NA,NA,NA,NA,NA,NA,NA,NA,NA,NA,NA,NA,NA
c370e,shallow,flow.Sequence,5_0_0_0_6_1,NA,NA,skipped,NA,1068780.2,NA,NA,1068778.671,1068780.4,2023-04-21T16:15:50Z,1068795.283,NULL,Sympathie,mapendano,d,NA,NA,NA,NA,sdf,NA,0,NA,NA,NA,NA,NA,NA,NA,NA,NA,NA,NA,NA,NA,NA,NA,NA,NA,NA,NA
c370e,task,flow.Sequence,5_0_0_0_6,NA,NA,completion,6644.0420000001,1062119.7,1062117.471,1062134.629,1068778.671,1068780.7,2023-04-21T16:15:50Z,1068795.283,NULL,Sympathie,mapendano,d,NA,NA,NA,NA,sdf,NA,0,NA,NA,NA,NA,NA,NA,NA,NA,NA,NA,NA,NA,NA,NA,NA,NA,NA,NA,NA
