observation,sender,sender_type,sender_id,response,response_action,ended_on,duration,time_run,time_render,time_show,time_end,time_commit,timestamp,time_switch,german,swahili,enc,distractor1,distractor2,distractor3,response_2,x,correct,distractors,url_vp,url_sess,meta_labjs_version,meta_location,meta_user_agent,meta_platform,meta_language,meta_locale,meta_time_zone,meta_timezone_offset,meta_screen_width,meta_screen_height,meta_scroll_width,meta_scroll_height,meta_window_inner_width,meta_window_inner_height,meta_device_pixel_ratio,meta_labjs_build_flavor,meta_labjs_build_commit
5d4f2,Introduction delayed retrieval,canvas.Screen,0,weiter,keypress(Space),response,3831.011,823.80000019073,393.555,859.989,4691,4693,2023-11-22T12:19:56Z,4725.05,NA,NA,NA,NA,NA,NA,NA,NA,NA,NULL,135,4,20.2.4,https://neurocog.fernuni.ch/studies/vweber/aberisha/delayed/index.html?vp=135&sess=4,"Mozilla/5.0 (Windows NT 10.0; Win64; x64) AppleWebKit/537.36 (KHTML, like Gecko) Chrome/118.0.0.0 Safari/537.36 Edg/118.0.2088.76",Win32,de,de-CH,Europe/Zurich,-60,1536,864,1528,660,1528,708,1.25,production,f5b4a49f956347addd546a832a3327688c2c0fef
5d4f2,Deep Question,html.Page,1_0_0_0,NA,NA,form submission,14783.149999809,4693.4000000954,4691.411,4725.05,19508.199999809,19508.599999905,2023-11-22T12:20:11Z,19534.1,Erneuerung,ukarabati,d,ushawishi,ukalifu,unyonyaji,uadiliji,NA,NA,NULL,NA,NA,NA,NA,NA,NA,NA,NA,NA,NA,NA,NA,NA,NA,NA,NA,NA,NA,NA
5d4f2,Save data screen,canvas.Screen,1_0_0_1,NA,NA,timeout,516.43,19510.099999905,19500.791,19534.1,20017.196,20018.300000191,2023-11-22T12:20:12Z,20050.53,Erneuerung,ukarabati,d,ushawishi,ukalifu,unyonyaji,NA,NA,0,NULL,NA,NA,NA,NA,NA,NA,NA,NA,NA,NA,NA,NA,NA,NA,NA,NA,NA,NA,NA
5d4f2,deep,flow.Sequence,1_0_0,NA,NA,completion,15292.146,4693.3000001907,4691.411,4725.05,20017.196,20018.699999809,2023-11-22T12:20:12Z,20050.53,Erneuerung,ukarabati,d,ushawishi,ukalifu,unyonyaji,NA,NA,NA,NULL,NA,NA,NA,NA,NA,NA,NA,NA,NA,NA,NA,NA,NA,NA,NA,NA,NA,NA,NA
5d4f2,task,flow.Sequence,1_0,NA,NA,completion,15292.146,4693.3000001907,4691.411,4725.05,20017.196,20018.900000095,2023-11-22T12:20:12Z,20050.53,Erneuerung,ukarabati,d,ushawishi,ukalifu,unyonyaji,NA,NA,NA,NULL,NA,NA,NA,NA,NA,NA,NA,NA,NA,NA,NA,NA,NA,NA,NA,NA,NA,NA,NA
5d4f2,Deep Question,html.Page,1_1_0_0,NA,NA,form submission,3693.0699999046,20019.199999809,20017.196,20050.53,23743.599999905,23744,2023-11-22T12:20:15Z,23765.358,Begegnung,kukutana,s,mmasihiya,mpiganaji,husiano,ugomaji,NA,NA,NULL,NA,NA,NA,NA,NA,NA,NA,NA,NA,NA,NA,NA,NA,NA,NA,NA,NA,NA,NA
5d4f2,Save data screen,canvas.Screen,1_1_0_1,NA,NA,timeout,516.419,23745.300000191,23732.026,23765.358,24248.456,24249.400000095,2023-11-22T12:20:16Z,24281.777,Begegnung,kukutana,s,mmasihiya,mpiganaji,husiano,NA,NA,0,NULL,NA,NA,NA,NA,NA,NA,NA,NA,NA,NA,NA,NA,NA,NA,NA,NA,NA,NA,NA
5d4f2,deep,flow.Sequence,1_1_0,NA,NA,completion,4197.926,20019.099999905,20017.196,20050.53,24248.456,24249.699999809,2023-11-22T12:20:16Z,24281.777,Begegnung,kukutana,s,mmasihiya,mpiganaji,husiano,NA,NA,NA,NULL,NA,NA,NA,NA,NA,NA,NA,NA,NA,NA,NA,NA,NA,NA,NA,NA,NA,NA,NA
5d4f2,task,flow.Sequence,1_1,NA,NA,completion,4197.926,20019.099999905,20017.196,20050.53,24248.456,24250,2023-11-22T12:20:16Z,24281.777,Begegnung,kukutana,s,mmasihiya,mpiganaji,husiano,NA,NA,NA,NULL,NA,NA,NA,NA,NA,NA,NA,NA,NA,NA,NA,NA,NA,NA,NA,NA,NA,NA,NA
5d4f2,Deep Question,html.Page,1_2_0_0,NA,NA,form submission,19554.623000095,24250.199999809,24248.456,24281.777,43836.400000095004,43836.800000191,2023-11-22T12:20:35Z,43855.427,Genehmigung,idhini,s,mwanamke,itikadi,fedheha,ugomaji,NA,NA,NULL,NA,NA,NA,NA,NA,NA,NA,NA,NA,NA,NA,NA,NA,NA,NA,NA,NA,NA,NA
5d4f2,Save data screen,canvas.Screen,1_2_0_1,NA,NA,timeout,583.047,43838.199999809,43822.067,43855.427,44442,44442.300000191,2023-11-22T12:20:36Z,44438.474,Genehmigung,idhini,s,mwanamke,itikadi,fedheha,NA,NA,0,NULL,NA,NA,NA,NA,NA,NA,NA,NA,NA,NA,NA,NA,NA,NA,NA,NA,NA,NA,NA
5d4f2,deep,flow.Sequence,1_2_0,NA,NA,completion,20160.223,24250.199999809,24248.456,24281.777,44442,44442.699999809,2023-11-22T12:20:36Z,44438.474,Genehmigung,idhini,s,mwanamke,itikadi,fedheha,NA,NA,NA,NULL,NA,NA,NA,NA,NA,NA,NA,NA,NA,NA,NA,NA,NA,NA,NA,NA,NA,NA,NA
5d4f2,task,flow.Sequence,1_2,NA,NA,completion,20160.223,24250.099999905,24248.456,24281.777,44442,44443,2023-11-22T12:20:36Z,44438.474,Genehmigung,idhini,s,mwanamke,itikadi,fedheha,NA,NA,NA,NULL,NA,NA,NA,NA,NA,NA,NA,NA,NA,NA,NA,NA,NA,NA,NA,NA,NA,NA,NA
5d4f2,Deep Question,html.Page,1_3_0_0,NA,NA,form submission,4244.7259998093,44443.300000191,44442,44438.474,48683.199999809,48683.599999904996,2023-11-22T12:20:40Z,48719.695,Vorwurf,mashtaka,s,msukumo,mtangulizi,uenyekiti,ugomaji,NA,NA,NULL,NA,NA,NA,NA,NA,NA,NA,NA,NA,NA,NA,NA,NA,NA,NA,NA,NA,NA,NA
5d4f2,Save data screen,canvas.Screen,1_3_0_1,NA,NA,timeout,499.78,48684.800000191,48686.372,48719.695,49186.124,49186.900000095004,2023-11-22T12:20:41Z,49219.475,Vorwurf,mashtaka,s,msukumo,mtangulizi,uenyekiti,NA,NA,0,NULL,NA,NA,NA,NA,NA,NA,NA,NA,NA,NA,NA,NA,NA,NA,NA,NA,NA,NA,NA
5d4f2,deep,flow.Sequence,1_3_0,NA,NA,completion,4747.65,44443.199999809,44442,44438.474,49186.124,49187.199999809,2023-11-22T12:20:41Z,49219.475,Vorwurf,mashtaka,s,msukumo,mtangulizi,uenyekiti,NA,NA,NA,NULL,NA,NA,NA,NA,NA,NA,NA,NA,NA,NA,NA,NA,NA,NA,NA,NA,NA,NA,NA
5d4f2,task,flow.Sequence,1_3,NA,NA,completion,4747.65,44443.199999809,44442,44438.474,49186.124,49187.400000095004,2023-11-22T12:20:41Z,49219.475,Vorwurf,mashtaka,s,msukumo,mtangulizi,uenyekiti,NA,NA,NA,NULL,NA,NA,NA,NA,NA,NA,NA,NA,NA,NA,NA,NA,NA,NA,NA,NA,NA,NA,NA
5d4f2,Deep Question,html.Page,1_4_0_0,NA,NA,form submission,10671.724999809,49187.599999904996,49186.124,49219.475,59891.199999809,59891.400000095004,2023-11-22T12:20:52Z,59914.205,Fleisch,mshakiki,d,kizunguzungu,mshikamano,angusho,mwanmaji,NA,NA,NULL,NA,NA,NA,NA,NA,NA,NA,NA,NA,NA,NA,NA,NA,NA,NA,NA,NA,NA,NA
5d4f2,Save data screen,canvas.Screen,1_4_0_1,NA,NA,timeout,499.749,59892.5,59880.842,59914.205,60380.591,60381.5,2023-11-22T12:20:52Z,60413.954,Fleisch,mshakiki,d,kizunguzungu,mshikamano,angusho,NA,NA,0,NULL,NA,NA,NA,NA,NA,NA,NA,NA,NA,NA,NA,NA,NA,NA,NA,NA,NA,NA,NA
5d4f2,deep,flow.Sequence,1_4_0,NA,NA,completion,11161.116,49187.599999904996,49186.124,49219.475,60380.591,60381.800000191,2023-11-22T12:20:52Z,60413.954,Fleisch,mshakiki,d,kizunguzungu,mshikamano,angusho,NA,NA,NA,NULL,NA,NA,NA,NA,NA,NA,NA,NA,NA,NA,NA,NA,NA,NA,NA,NA,NA,NA,NA
5d4f2,task,flow.Sequence,1_4,NA,NA,completion,11161.116,49187.5,49186.124,49219.475,60380.591,60382,2023-11-22T12:20:52Z,60413.954,Fleisch,mshakiki,d,kizunguzungu,mshikamano,angusho,NA,NA,NA,NULL,NA,NA,NA,NA,NA,NA,NA,NA,NA,NA,NA,NA,NA,NA,NA,NA,NA,NA,NA
5d4f2,Deep Question,html.Page,1_5_0_0,NA,NA,form submission,11057.946000095,60382.300000191,60380.591,60413.954,71471.900000095,71472.300000191,2023-11-22T12:21:03Z,71491.809,Papier,karatasi,d,uchambuzi,usalama,kukataliwa,kuvilu,NA,NA,NULL,NA,NA,NA,NA,NA,NA,NA,NA,NA,NA,NA,NA,NA,NA,NA,NA,NA,NA,NA
5d4f2,Save data screen,canvas.Screen,1_5_0_1,NA,NA,timeout,499.739,71476.199999809,71458.396,71491.809,71958.214,71958.900000095,2023-11-22T12:21:04Z,71991.548,Papier,karatasi,d,uchambuzi,usalama,kukataliwa,NA,NA,0,NULL,NA,NA,NA,NA,NA,NA,NA,NA,NA,NA,NA,NA,NA,NA,NA,NA,NA,NA,NA
5d4f2,deep,flow.Sequence,1_5_0,NA,NA,completion,11544.26,60382.300000191,60380.591,60413.954,71958.214,71959.199999809,2023-11-22T12:21:04Z,71991.548,Papier,karatasi,d,uchambuzi,usalama,kukataliwa,NA,NA,NA,NULL,NA,NA,NA,NA,NA,NA,NA,NA,NA,NA,NA,NA,NA,NA,NA,NA,NA,NA,NA
5d4f2,task,flow.Sequence,1_5,NA,NA,completion,11544.26,60382.199999809,60380.591,60413.954,71958.214,71959.400000095,2023-11-22T12:21:04Z,71991.548,Papier,karatasi,d,uchambuzi,usalama,kukataliwa,NA,NA,NA,NULL,NA,NA,NA,NA,NA,NA,NA,NA,NA,NA,NA,NA,NA,NA,NA,NA,NA,NA,NA
5d4f2,Deep Question,html.Page,1_6_0_0,NA,NA,form submission,3137.8520000954,71959.599999905,71958.214,71991.548,75129.400000095,75129.699999809,2023-11-22T12:21:07Z,75156.664,Orientierung,urekebisho,d,uelekeo,marekebisho,utunzaji,ugomaji,NA,NA,NULL,NA,NA,NA,NA,NA,NA,NA,NA,NA,NA,NA,NA,NA,NA,NA,NA,NA,NA,NA
5d4f2,Save data screen,canvas.Screen,1_6_0_1,NA,NA,timeout,499.71699999999,75130.599999905,75123.257,75156.664,75623.07,75623.699999809,2023-11-22T12:21:07Z,75656.381,Orientierung,urekebisho,d,uelekeo,marekebisho,utunzaji,NA,NA,0,NULL,NA,NA,NA,NA,NA,NA,NA,NA,NA,NA,NA,NA,NA,NA,NA,NA,NA,NA,NA
5d4f2,deep,flow.Sequence,1_6_0,NA,NA,completion,3631.522,71959.599999905,71958.214,71991.548,75623.07,75623.900000095,2023-11-22T12:21:07Z,75656.381,Orientierung,urekebisho,d,uelekeo,marekebisho,utunzaji,NA,NA,NA,NULL,NA,NA,NA,NA,NA,NA,NA,NA,NA,NA,NA,NA,NA,NA,NA,NA,NA,NA,NA
5d4f2,task,flow.Sequence,1_6,NA,NA,completion,3631.522,71959.5,71958.214,71991.548,75623.07,75624.199999809,2023-11-22T12:21:07Z,75656.381,Orientierung,urekebisho,d,uelekeo,marekebisho,utunzaji,NA,NA,NA,NULL,NA,NA,NA,NA,NA,NA,NA,NA,NA,NA,NA,NA,NA,NA,NA,NA,NA,NA,NA
5d4f2,Deep Question,html.Page,1_7_0_0,NA,NA,form submission,2398.619,75624.300000191,75623.07,75656.381,78055,78055.199999809,2023-11-22T12:21:10Z,78076.085,Wechsel,ugeuzaji,d,utambulisho,kujenga,wasiwasi,ugomaji,NA,NA,NULL,NA,NA,NA,NA,NA,NA,NA,NA,NA,NA,NA,NA,NA,NA,NA,NA,NA,NA,NA
5d4f2,Save data screen,canvas.Screen,1_7_0_1,NA,NA,timeout,1344.913,78058.699999809,78038.536,78076.085,79431.099999905,79431.5,2023-11-22T12:21:11Z,79420.998,Wechsel,ugeuzaji,d,utambulisho,kujenga,wasiwasi,NA,NA,0,NULL,NA,NA,NA,NA,NA,NA,NA,NA,NA,NA,NA,NA,NA,NA,NA,NA,NA,NA,NA
5d4f2,deep,flow.Sequence,1_7_0,NA,NA,completion,3774.7189999046,75624.300000191,75623.07,75656.381,79431.099999905,79431.699999809,2023-11-22T12:21:11Z,79420.998,Wechsel,ugeuzaji,d,utambulisho,kujenga,wasiwasi,NA,NA,NA,NULL,NA,NA,NA,NA,NA,NA,NA,NA,NA,NA,NA,NA,NA,NA,NA,NA,NA,NA,NA
5d4f2,task,flow.Sequence,1_7,NA,NA,completion,3774.7189999046,75624.199999809,75623.07,75656.381,79431.099999905,79432,2023-11-22T12:21:11Z,79420.998,Wechsel,ugeuzaji,d,utambulisho,kujenga,wasiwasi,NA,NA,NA,NULL,NA,NA,NA,NA,NA,NA,NA,NA,NA,NA,NA,NA,NA,NA,NA,NA,NA,NA,NA
5d4f2,Deep Question,html.Page,1_8_0_0,NA,NA,form submission,41449.402000095,79432.199999809,79431.099999905,79420.998,120870.4000001,120870.80000019001,2023-11-22T12:21:53Z,120917.399,Flexibilität,kubadilika,s,enjini,usikilivu,hesabu,ugomaji,NA,NA,NULL,NA,NA,NA,NA,NA,NA,NA,NA,NA,NA,NA,NA,NA,NA,NA,NA,NA,NA,NA
5d4f2,Save data screen,canvas.Screen,1_8_0_1,NA,NA,timeout,499.77899999999,120875.0999999,120884.062,120917.399,121383.817,121384.5999999,2023-11-22T12:21:53Z,121417.178,Flexibilität,kubadilika,s,enjini,usikilivu,hesabu,NA,NA,0,NULL,NA,NA,NA,NA,NA,NA,NA,NA,NA,NA,NA,NA,NA,NA,NA,NA,NA,NA,NA
5d4f2,deep,flow.Sequence,1_8_0,NA,NA,completion,41962.819,79432.199999809,79431.099999905,79420.998,121383.817,121384.9000001,2023-11-22T12:21:53Z,121417.178,Flexibilität,kubadilika,s,enjini,usikilivu,hesabu,NA,NA,NA,NULL,NA,NA,NA,NA,NA,NA,NA,NA,NA,NA,NA,NA,NA,NA,NA,NA,NA,NA,NA
5d4f2,task,flow.Sequence,1_8,NA,NA,completion,41962.819,79432.099999905,79431.099999905,79420.998,121383.817,121385.19999981,2023-11-22T12:21:53Z,121417.178,Flexibilität,kubadilika,s,enjini,usikilivu,hesabu,NA,NA,NA,NULL,NA,NA,NA,NA,NA,NA,NA,NA,NA,NA,NA,NA,NA,NA,NA,NA,NA,NA,NA
5d4f2,Deep Question,html.Page,1_9_0_0,NA,NA,form submission,15304.021999809,121385.5999999,121383.817,121417.178,136721.19999981,136721.5,2023-11-22T12:22:08Z,136742.889,Respekt,heshima,d,changamnao,upinzani,ufanisi,kuivililil,NA,NA,NULL,NA,NA,NA,NA,NA,NA,NA,NA,NA,NA,NA,NA,NA,NA,NA,NA,NA,NA,NA
5d4f2,Save data screen,canvas.Screen,1_9_0_1,NA,NA,timeout,499.78700000001,136725.30000019,136709.612,136742.889,137209.36,137210,2023-11-22T12:22:09Z,137242.676,Respekt,heshima,d,changamnao,upinzani,ufanisi,NA,NA,0,NULL,NA,NA,NA,NA,NA,NA,NA,NA,NA,NA,NA,NA,NA,NA,NA,NA,NA,NA,NA
5d4f2,deep,flow.Sequence,1_9_0,NA,NA,completion,15792.182,121385.5,121383.817,121417.178,137209.36,137210.19999981,2023-11-22T12:22:09Z,137242.676,Respekt,heshima,d,changamnao,upinzani,ufanisi,NA,NA,NA,NULL,NA,NA,NA,NA,NA,NA,NA,NA,NA,NA,NA,NA,NA,NA,NA,NA,NA,NA,NA
5d4f2,task,flow.Sequence,1_9,NA,NA,completion,15792.182,121385.4000001,121383.817,121417.178,137209.36,137210.4000001,2023-11-22T12:22:09Z,137242.676,Respekt,heshima,d,changamnao,upinzani,ufanisi,NA,NA,NA,NULL,NA,NA,NA,NA,NA,NA,NA,NA,NA,NA,NA,NA,NA,NA,NA,NA,NA,NA,NA
5d4f2,Deep Question,html.Page,1_10_0_0,NA,NA,form submission,23887.523999809,137210.5999999,137209.36,137242.676,161130.19999981,161130.5,2023-11-22T12:22:33Z,161147.515,Atmosphäre,angahewa,s,kuteseka,usahihi,kutoamini,ugomaji,NA,NA,NULL,NA,NA,NA,NA,NA,NA,NA,NA,NA,NA,NA,NA,NA,NA,NA,NA,NA,NA,NA
5d4f2,Save data screen,canvas.Screen,1_10_0_1,NA,NA,timeout,499.78699999998,161134.0999999,161114.242,161147.515,161613.95,161614.69999981,2023-11-22T12:22:33Z,161647.302,Atmosphäre,angahewa,s,kuteseka,usahihi,kutoamini,NA,NA,0,NULL,NA,NA,NA,NA,NA,NA,NA,NA,NA,NA,NA,NA,NA,NA,NA,NA,NA,NA,NA
5d4f2,deep,flow.Sequence,1_10_0,NA,NA,completion,24371.274,137210.5,137209.36,137242.676,161613.95,161614.9000001,2023-11-22T12:22:33Z,161647.302,Atmosphäre,angahewa,s,kuteseka,usahihi,kutoamini,NA,NA,NA,NULL,NA,NA,NA,NA,NA,NA,NA,NA,NA,NA,NA,NA,NA,NA,NA,NA,NA,NA,NA
5d4f2,task,flow.Sequence,1_10,NA,NA,completion,24371.274,137210.4000001,137209.36,137242.676,161613.95,161615.0999999,2023-11-22T12:22:33Z,161647.302,Atmosphäre,angahewa,s,kuteseka,usahihi,kutoamini,NA,NA,NA,NULL,NA,NA,NA,NA,NA,NA,NA,NA,NA,NA,NA,NA,NA,NA,NA,NA,NA,NA,NA
5d4f2,Deep Question,html.Page,1_11_0_0,NA,NA,form submission,4681.2979999046,161615.19999981,161613.95,161647.302,166328.5999999,166328.9000001,2023-11-22T12:22:38Z,166345.842,Niveau,kiwango,d,usimamizi,mwamali,mshairi,ugomaji,NA,NA,NULL,NA,NA,NA,NA,NA,NA,NA,NA,NA,NA,NA,NA,NA,NA,NA,NA,NA,NA,NA
5d4f2,Save data screen,canvas.Screen,1_11_0_1,NA,NA,timeout,498.87700000001,166332.4000001,166311.648,166345.842,166811.385,166812.0999999,2023-11-22T12:22:38Z,166844.719,Niveau,kiwango,d,usimamizi,mwamali,mshairi,NA,NA,0,NULL,NA,NA,NA,NA,NA,NA,NA,NA,NA,NA,NA,NA,NA,NA,NA,NA,NA,NA,NA
5d4f2,deep,flow.Sequence,1_11_0,NA,NA,completion,5164.083,161615.19999981,161613.95,161647.302,166811.385,166812.30000019,2023-11-22T12:22:38Z,166844.719,Niveau,kiwango,d,usimamizi,mwamali,mshairi,NA,NA,NA,NULL,NA,NA,NA,NA,NA,NA,NA,NA,NA,NA,NA,NA,NA,NA,NA,NA,NA,NA,NA
5d4f2,task,flow.Sequence,1_11,NA,NA,completion,5164.083,161615.19999981,161613.95,161647.302,166811.385,166812.5999999,2023-11-22T12:22:38Z,166844.719,Niveau,kiwango,d,usimamizi,mwamali,mshairi,NA,NA,NA,NULL,NA,NA,NA,NA,NA,NA,NA,NA,NA,NA,NA,NA,NA,NA,NA,NA,NA,NA,NA
5d4f2,Deep Question,html.Page,1_12_0_0,NA,NA,form submission,3115.8809999046,166812.69999981,166811.385,166844.719,169960.5999999,169960.9000001,2023-11-22T12:22:42Z,169993.148,Integrität,uadilifu,d,muungano,mtiririko,upunguaji,ugomaji,NA,NA,NULL,NA,NA,NA,NA,NA,NA,NA,NA,NA,NA,NA,NA,NA,NA,NA,NA,NA,NA,NA
5d4f2,Save data screen,canvas.Screen,1_12_0_1,NA,NA,timeout,499.78100000002,169964.19999981,169959.851,169993.148,170459.624,170460.30000019,2023-11-22T12:22:42Z,170492.929,Integrität,uadilifu,d,muungano,mtiririko,upunguaji,NA,NA,0,NULL,NA,NA,NA,NA,NA,NA,NA,NA,NA,NA,NA,NA,NA,NA,NA,NA,NA,NA,NA
5d4f2,deep,flow.Sequence,1_12_0,NA,NA,completion,3614.905,166812.69999981,166811.385,166844.719,170459.624,170460.4000001,2023-11-22T12:22:42Z,170492.929,Integrität,uadilifu,d,muungano,mtiririko,upunguaji,NA,NA,NA,NULL,NA,NA,NA,NA,NA,NA,NA,NA,NA,NA,NA,NA,NA,NA,NA,NA,NA,NA,NA
5d4f2,task,flow.Sequence,1_12,NA,NA,completion,3614.905,166812.69999981,166811.385,166844.719,170459.624,170460.5999999,2023-11-22T12:22:42Z,170492.929,Integrität,uadilifu,d,muungano,mtiririko,upunguaji,NA,NA,NA,NULL,NA,NA,NA,NA,NA,NA,NA,NA,NA,NA,NA,NA,NA,NA,NA,NA,NA,NA,NA
5d4f2,Deep Question,html.Page,1_13_0_0,NA,NA,form submission,7337.3710001907,170460.69999981,170459.624,170492.929,177830.30000019,177830.5,2023-11-22T12:22:49Z,177855.946,Stimmung,kinyongo,s,kilekile,kisambo,madhehebu,ugomaji,NA,NA,NULL,NA,NA,NA,NA,NA,NA,NA,NA,NA,NA,NA,NA,NA,NA,NA,NA,NA,NA,NA
5d4f2,Save data screen,canvas.Screen,1_13_0_1,NA,NA,timeout,499.78700000001,177834.5999999,177822.598,177855.946,178322.364,178323,2023-11-22T12:22:50Z,178355.733,Stimmung,kinyongo,s,kilekile,kisambo,madhehebu,NA,NA,0,NULL,NA,NA,NA,NA,NA,NA,NA,NA,NA,NA,NA,NA,NA,NA,NA,NA,NA,NA,NA
5d4f2,deep,flow.Sequence,1_13_0,NA,NA,completion,7829.435,170460.69999981,170459.624,170492.929,178322.364,178323.4000001,2023-11-22T12:22:50Z,178355.733,Stimmung,kinyongo,s,kilekile,kisambo,madhehebu,NA,NA,NA,NULL,NA,NA,NA,NA,NA,NA,NA,NA,NA,NA,NA,NA,NA,NA,NA,NA,NA,NA,NA
5d4f2,task,flow.Sequence,1_13,NA,NA,completion,7829.435,170460.69999981,170459.624,170492.929,178322.364,178323.5999999,2023-11-22T12:22:50Z,178355.733,Stimmung,kinyongo,s,kilekile,kisambo,madhehebu,NA,NA,NA,NULL,NA,NA,NA,NA,NA,NA,NA,NA,NA,NA,NA,NA,NA,NA,NA,NA,NA,NA,NA
5d4f2,Deep Question,html.Page,1_14_0_0,NA,NA,form submission,20920.067000191,178323.80000019,178322.364,178355.733,199275.80000019,199276.0999999,2023-11-22T12:23:11Z,199295.368,Betrüger,mdanganyifu,s,mwanamuziki,wastani,mahakama,mwankaki,NA,NA,NULL,NA,NA,NA,NA,NA,NA,NA,NA,NA,NA,NA,NA,NA,NA,NA,NA,NA,NA,NA
5d4f2,Save data screen,canvas.Screen,1_14_0_1,NA,NA,timeout,499.76000000001,199280.4000001,199262.08,199295.368,199761.775,199762.5,2023-11-22T12:23:11Z,199795.128,Betrüger,mdanganyifu,s,mwanamuziki,wastani,mahakama,NA,NA,0,NULL,NA,NA,NA,NA,NA,NA,NA,NA,NA,NA,NA,NA,NA,NA,NA,NA,NA,NA,NA
5d4f2,deep,flow.Sequence,1_14_0,NA,NA,completion,21406.042,178323.69999981,178322.364,178355.733,199761.775,199762.5999999,2023-11-22T12:23:11Z,199795.128,Betrüger,mdanganyifu,s,mwanamuziki,wastani,mahakama,NA,NA,NA,NULL,NA,NA,NA,NA,NA,NA,NA,NA,NA,NA,NA,NA,NA,NA,NA,NA,NA,NA,NA
5d4f2,task,flow.Sequence,1_14,NA,NA,completion,21406.042,178323.5999999,178322.364,178355.733,199761.775,199762.80000019,2023-11-22T12:23:11Z,199795.128,Betrüger,mdanganyifu,s,mwanamuziki,wastani,mahakama,NA,NA,NA,NULL,NA,NA,NA,NA,NA,NA,NA,NA,NA,NA,NA,NA,NA,NA,NA,NA,NA,NA,NA
5d4f2,Deep Question,html.Page,1_15_0_0,NA,NA,form submission,2172.872,199763.0999999,199761.775,199795.128,201968,201968.19999981,2023-11-22T12:23:14Z,201994.037,Entwicklung,maendeleo,s,uangavu,mshindwa,badiliko,ugomaji,NA,NA,NULL,NA,NA,NA,NA,NA,NA,NA,NA,NA,NA,NA,NA,NA,NA,NA,NA,NA,NA,NA
5d4f2,Save data screen,canvas.Screen,1_15_0_1,NA,NA,timeout,499.81099999999,201969.0999999,201960.713,201994.037,202460.48,202461.0999999,2023-11-22T12:23:14Z,202493.848,Entwicklung,maendeleo,s,uangavu,mshindwa,badiliko,NA,NA,0,NULL,NA,NA,NA,NA,NA,NA,NA,NA,NA,NA,NA,NA,NA,NA,NA,NA,NA,NA,NA
5d4f2,deep,flow.Sequence,1_15_0,NA,NA,completion,2665.352,199763,199761.775,199795.128,202460.48,202461.4000001,2023-11-22T12:23:14Z,202493.848,Entwicklung,maendeleo,s,uangavu,mshindwa,badiliko,NA,NA,NA,NULL,NA,NA,NA,NA,NA,NA,NA,NA,NA,NA,NA,NA,NA,NA,NA,NA,NA,NA,NA
5d4f2,task,flow.Sequence,1_15,NA,NA,completion,2665.352,199763,199761.775,199795.128,202460.48,202461.5,2023-11-22T12:23:14Z,202493.848,Entwicklung,maendeleo,s,uangavu,mshindwa,badiliko,NA,NA,NA,NULL,NA,NA,NA,NA,NA,NA,NA,NA,NA,NA,NA,NA,NA,NA,NA,NA,NA,NA,NA
5d4f2,retrieval block 1 (cued recall),flow.Loop,1,NA,NA,completion,197735.43,4693.3000001907,4691.411,4725.05,202460.48,202461.69999981,2023-11-22T12:23:14Z,202493.848,NA,NA,NA,NA,NA,NA,NA,NA,NA,NULL,NA,NA,NA,NA,NA,NA,NA,NA,NA,NA,NA,NA,NA,NA,NA,NA,NA,NA,NA
5d4f2,Shallow Question,html.Page,2_0_0_0,NA,NA,form submission,10418.952000191,202461.9000001,202460.48,202493.848,212912.80000019,212913.19999981,2023-11-22T12:23:25Z,212955.283,Fleisch,mshakiki,d,kizunguzungu,mshikamano,angusho,mshakiki,NA,NA,"c(""distractor1"", ""distractor2"", ""distractor3"")",NA,NA,NA,NA,NA,NA,NA,NA,NA,NA,NA,NA,NA,NA,NA,NA,NA,NA,NA
5d4f2,Save data screen,canvas.Screen,2_0_0_1,NA,NA,timeout,499.78400000001,212915.9000001,212921.962,212955.283,213421.701,213422.69999981,2023-11-22T12:23:25Z,213455.067,Fleisch,mshakiki,d,kizunguzungu,mshikamano,angusho,NA,NA,1,"c(""distractor1"", ""distractor2"", ""distractor3"")",NA,NA,NA,NA,NA,NA,NA,NA,NA,NA,NA,NA,NA,NA,NA,NA,NA,NA,NA
5d4f2,shallow,flow.Sequence,2_0_0,NA,NA,completion,10927.853,202461.9000001,202460.48,202493.848,213421.701,213422.9000001,2023-11-22T12:23:25Z,213455.067,Fleisch,mshakiki,d,kizunguzungu,mshikamano,angusho,NA,NA,NA,"c(""distractor1"", ""distractor2"", ""distractor3"")",NA,NA,NA,NA,NA,NA,NA,NA,NA,NA,NA,NA,NA,NA,NA,NA,NA,NA,NA
5d4f2,task,flow.Sequence,2_0,NA,NA,completion,10927.853,202461.9000001,202460.48,202493.848,213421.701,213423.30000019,2023-11-22T12:23:25Z,213455.067,Fleisch,mshakiki,d,kizunguzungu,mshikamano,angusho,NA,NA,NA,"c(""distractor1"", ""distractor2"", ""distractor3"")",NA,NA,NA,NA,NA,NA,NA,NA,NA,NA,NA,NA,NA,NA,NA,NA,NA,NA,NA
5d4f2,Shallow Question,html.Page,2_1_0_0,NA,NA,form submission,4578.0329999046,213423.5,213421.701,213455.067,218033.0999999,218033.5,2023-11-22T12:23:30Z,218052.769,Flexibilität,kubadilika,s,enjini,usikilivu,hesabu,hesabu,NA,NA,"c(""distractor1"", ""distractor2"", ""distractor3"")",NA,NA,NA,NA,NA,NA,NA,NA,NA,NA,NA,NA,NA,NA,NA,NA,NA,NA,NA
5d4f2,Save data screen,canvas.Screen,2_1_0_1,NA,NA,timeout,499.731,218037.5,218019.47,218052.769,218519.173,218520,2023-11-22T12:23:30Z,218552.5,Flexibilität,kubadilika,s,enjini,usikilivu,hesabu,NA,NA,0,"c(""distractor1"", ""distractor2"", ""distractor3"")",NA,NA,NA,NA,NA,NA,NA,NA,NA,NA,NA,NA,NA,NA,NA,NA,NA,NA,NA
5d4f2,shallow,flow.Sequence,2_1_0,NA,NA,completion,5064.106,213423.5,213421.701,213455.067,218519.173,218520.4000001,2023-11-22T12:23:30Z,218552.5,Flexibilität,kubadilika,s,enjini,usikilivu,hesabu,NA,NA,NA,"c(""distractor1"", ""distractor2"", ""distractor3"")",NA,NA,NA,NA,NA,NA,NA,NA,NA,NA,NA,NA,NA,NA,NA,NA,NA,NA,NA
5d4f2,task,flow.Sequence,2_1,NA,NA,completion,5064.106,213423.4000001,213421.701,213455.067,218519.173,218520.5999999,2023-11-22T12:23:30Z,218552.5,Flexibilität,kubadilika,s,enjini,usikilivu,hesabu,NA,NA,NA,"c(""distractor1"", ""distractor2"", ""distractor3"")",NA,NA,NA,NA,NA,NA,NA,NA,NA,NA,NA,NA,NA,NA,NA,NA,NA,NA,NA
5d4f2,Shallow Question,html.Page,2_2_0_0,NA,NA,form submission,9204.1999998093,218520.9000001,218519.173,218552.5,227756.69999981,227756.9000001,2023-11-22T12:23:39Z,227781.281,Orientierung,urekebisho,d,uelekeo,marekebisho,utunzaji,urekebisho,NA,NA,"c(""distractor1"", ""distractor2"", ""distractor3"")",NA,NA,NA,NA,NA,NA,NA,NA,NA,NA,NA,NA,NA,NA,NA,NA,NA,NA,NA
5d4f2,Save data screen,canvas.Screen,2_2_0_1,NA,NA,timeout,499.76400000002,227760.5,227747.961,227781.281,228247.731,228248.69999981,2023-11-22T12:23:40Z,228281.045,Orientierung,urekebisho,d,uelekeo,marekebisho,utunzaji,NA,NA,1,"c(""distractor1"", ""distractor2"", ""distractor3"")",NA,NA,NA,NA,NA,NA,NA,NA,NA,NA,NA,NA,NA,NA,NA,NA,NA,NA,NA
5d4f2,shallow,flow.Sequence,2_2_0,NA,NA,completion,9695.231,218520.80000019,218519.173,218552.5,228247.731,228249,2023-11-22T12:23:40Z,228281.045,Orientierung,urekebisho,d,uelekeo,marekebisho,utunzaji,NA,NA,NA,"c(""distractor1"", ""distractor2"", ""distractor3"")",NA,NA,NA,NA,NA,NA,NA,NA,NA,NA,NA,NA,NA,NA,NA,NA,NA,NA,NA
5d4f2,task,flow.Sequence,2_2,NA,NA,completion,9695.231,218520.69999981,218519.173,218552.5,228247.731,228249.19999981,2023-11-22T12:23:40Z,228281.045,Orientierung,urekebisho,d,uelekeo,marekebisho,utunzaji,NA,NA,NA,"c(""distractor1"", ""distractor2"", ""distractor3"")",NA,NA,NA,NA,NA,NA,NA,NA,NA,NA,NA,NA,NA,NA,NA,NA,NA,NA,NA
5d4f2,Shallow Question,html.Page,2_3_0_0,NA,NA,form submission,5546.8550000954,228249.30000019,228247.731,228281.045,233827.9000001,233828.19999981,2023-11-22T12:23:45Z,233844.966,Respekt,heshima,d,changamnao,upinzani,ufanisi,heshima,NA,NA,"c(""distractor1"", ""distractor2"", ""distractor3"")",NA,NA,NA,NA,NA,NA,NA,NA,NA,NA,NA,NA,NA,NA,NA,NA,NA,NA,NA
5d4f2,Save data screen,canvas.Screen,2_3_0_1,NA,NA,timeout,499.77200000003,233832,233811.657,233844.966,234311.402,234312.30000019,2023-11-22T12:23:46Z,234344.738,Respekt,heshima,d,changamnao,upinzani,ufanisi,NA,NA,1,"c(""distractor1"", ""distractor2"", ""distractor3"")",NA,NA,NA,NA,NA,NA,NA,NA,NA,NA,NA,NA,NA,NA,NA,NA,NA,NA,NA
5d4f2,shallow,flow.Sequence,2_3_0,NA,NA,completion,6030.357,228249.30000019,228247.731,228281.045,234311.402,234312.5999999,2023-11-22T12:23:46Z,234344.738,Respekt,heshima,d,changamnao,upinzani,ufanisi,NA,NA,NA,"c(""distractor1"", ""distractor2"", ""distractor3"")",NA,NA,NA,NA,NA,NA,NA,NA,NA,NA,NA,NA,NA,NA,NA,NA,NA,NA,NA
5d4f2,task,flow.Sequence,2_3,NA,NA,completion,6030.357,228249.30000019,228247.731,228281.045,234311.402,234312.80000019,2023-11-22T12:23:46Z,234344.738,Respekt,heshima,d,changamnao,upinzani,ufanisi,NA,NA,NA,"c(""distractor1"", ""distractor2"", ""distractor3"")",NA,NA,NA,NA,NA,NA,NA,NA,NA,NA,NA,NA,NA,NA,NA,NA,NA,NA,NA
5d4f2,Shallow Question,html.Page,2_4_0_0,NA,NA,form submission,6141.9619998093,234313,234311.402,234344.738,240486.69999981,240487.0999999,2023-11-22T12:23:52Z,240508.329,Betrüger,mdanganyifu,s,mwanamuziki,wastani,mahakama,mdanganyifu,NA,NA,"c(""distractor1"", ""distractor2"", ""distractor3"")",NA,NA,NA,NA,NA,NA,NA,NA,NA,NA,NA,NA,NA,NA,NA,NA,NA,NA,NA
5d4f2,Save data screen,canvas.Screen,2_4_0_1,NA,NA,timeout,516.42999999999,240489.69999981,240475.019,240508.329,240991.428,240992.4000001,2023-11-22T12:23:53Z,241024.759,Betrüger,mdanganyifu,s,mwanamuziki,wastani,mahakama,NA,NA,1,"c(""distractor1"", ""distractor2"", ""distractor3"")",NA,NA,NA,NA,NA,NA,NA,NA,NA,NA,NA,NA,NA,NA,NA,NA,NA,NA,NA
5d4f2,shallow,flow.Sequence,2_4_0,NA,NA,completion,6646.69,234313,234311.402,234344.738,240991.428,240992.5999999,2023-11-22T12:23:53Z,241024.759,Betrüger,mdanganyifu,s,mwanamuziki,wastani,mahakama,NA,NA,NA,"c(""distractor1"", ""distractor2"", ""distractor3"")",NA,NA,NA,NA,NA,NA,NA,NA,NA,NA,NA,NA,NA,NA,NA,NA,NA,NA,NA
5d4f2,task,flow.Sequence,2_4,NA,NA,completion,6646.69,234313,234311.402,234344.738,240991.428,240992.80000019,2023-11-22T12:23:53Z,241024.759,Betrüger,mdanganyifu,s,mwanamuziki,wastani,mahakama,NA,NA,NA,"c(""distractor1"", ""distractor2"", ""distractor3"")",NA,NA,NA,NA,NA,NA,NA,NA,NA,NA,NA,NA,NA,NA,NA,NA,NA,NA,NA
5d4f2,Shallow Question,html.Page,2_5_0_0,NA,NA,form submission,6210.1410000954,240993,240991.428,241024.759,247234.9000001,247235.19999981,2023-11-22T12:23:59Z,247255.031,Vorwurf,mashtaka,s,msukumo,mtangulizi,uenyekiti,mashtaka,NA,NA,"c(""distractor1"", ""distractor2"", ""distractor3"")",NA,NA,NA,NA,NA,NA,NA,NA,NA,NA,NA,NA,NA,NA,NA,NA,NA,NA,NA
5d4f2,Save data screen,canvas.Screen,2_5_0_1,NA,NA,timeout,499.72200000001,247238.5999999,247221.688,247255.031,247721.783,247722.69999981,2023-11-22T12:23:59Z,247754.753,Vorwurf,mashtaka,s,msukumo,mtangulizi,uenyekiti,NA,NA,1,"c(""distractor1"", ""distractor2"", ""distractor3"")",NA,NA,NA,NA,NA,NA,NA,NA,NA,NA,NA,NA,NA,NA,NA,NA,NA,NA,NA
5d4f2,shallow,flow.Sequence,2_5_0,NA,NA,completion,6697.024,240993,240991.428,241024.759,247721.783,247723,2023-11-22T12:23:59Z,247754.753,Vorwurf,mashtaka,s,msukumo,mtangulizi,uenyekiti,NA,NA,NA,"c(""distractor1"", ""distractor2"", ""distractor3"")",NA,NA,NA,NA,NA,NA,NA,NA,NA,NA,NA,NA,NA,NA,NA,NA,NA,NA,NA
5d4f2,task,flow.Sequence,2_5,NA,NA,completion,6697.024,240992.9000001,240991.428,241024.759,247721.783,247723.19999981,2023-11-22T12:23:59Z,247754.753,Vorwurf,mashtaka,s,msukumo,mtangulizi,uenyekiti,NA,NA,NA,"c(""distractor1"", ""distractor2"", ""distractor3"")",NA,NA,NA,NA,NA,NA,NA,NA,NA,NA,NA,NA,NA,NA,NA,NA,NA,NA,NA
5d4f2,Shallow Question,html.Page,2_6_0_0,NA,NA,form submission,4921.0470001907,247723.4000001,247721.783,247754.753,252675.80000019,252676.0999999,2023-11-22T12:24:04Z,252702.362,Stimmung,kinyongo,s,kilekile,kisambo,madhehebu,kinyongo,NA,NA,"c(""distractor1"", ""distractor2"", ""distractor3"")",NA,NA,NA,NA,NA,NA,NA,NA,NA,NA,NA,NA,NA,NA,NA,NA,NA,NA,NA
5d4f2,Save data screen,canvas.Screen,2_6_0_1,NA,NA,timeout,499.70300000001,252679.69999981,252669.026,252702.362,253168.749,253169.5999999,2023-11-22T12:24:05Z,253202.065,Stimmung,kinyongo,s,kilekile,kisambo,madhehebu,NA,NA,1,"c(""distractor1"", ""distractor2"", ""distractor3"")",NA,NA,NA,NA,NA,NA,NA,NA,NA,NA,NA,NA,NA,NA,NA,NA,NA,NA,NA
5d4f2,shallow,flow.Sequence,2_6_0,NA,NA,completion,5413.996,247723.4000001,247721.783,247754.753,253168.749,253170,2023-11-22T12:24:05Z,253202.065,Stimmung,kinyongo,s,kilekile,kisambo,madhehebu,NA,NA,NA,"c(""distractor1"", ""distractor2"", ""distractor3"")",NA,NA,NA,NA,NA,NA,NA,NA,NA,NA,NA,NA,NA,NA,NA,NA,NA,NA,NA
5d4f2,task,flow.Sequence,2_6,NA,NA,completion,5413.996,247723.30000019,247721.783,247754.753,253168.749,253170.19999981,2023-11-22T12:24:05Z,253202.065,Stimmung,kinyongo,s,kilekile,kisambo,madhehebu,NA,NA,NA,"c(""distractor1"", ""distractor2"", ""distractor3"")",NA,NA,NA,NA,NA,NA,NA,NA,NA,NA,NA,NA,NA,NA,NA,NA,NA,NA,NA
5d4f2,Shallow Question,html.Page,2_7_0_0,NA,NA,form submission,4999.2350001907,253170.4000001,253168.749,253202.065,258201.30000019,258201.69999981,2023-11-22T12:24:10Z,258233.003,Genehmigung,idhini,s,mwanamke,itikadi,fedheha,idhini,NA,NA,"c(""distractor1"", ""distractor2"", ""distractor3"")",NA,NA,NA,NA,NA,NA,NA,NA,NA,NA,NA,NA,NA,NA,NA,NA,NA,NA,NA
5d4f2,Save data screen,canvas.Screen,2_7_0_1,NA,NA,timeout,499.67600000001,258205.5999999,258199.589,258233.003,258699.407,258700.5,2023-11-22T12:24:10Z,258732.679,Genehmigung,idhini,s,mwanamke,itikadi,fedheha,NA,NA,1,"c(""distractor1"", ""distractor2"", ""distractor3"")",NA,NA,NA,NA,NA,NA,NA,NA,NA,NA,NA,NA,NA,NA,NA,NA,NA,NA,NA
5d4f2,shallow,flow.Sequence,2_7_0,NA,NA,completion,5497.342,253170.30000019,253168.749,253202.065,258699.407,258700.69999981,2023-11-22T12:24:10Z,258732.679,Genehmigung,idhini,s,mwanamke,itikadi,fedheha,NA,NA,NA,"c(""distractor1"", ""distractor2"", ""distractor3"")",NA,NA,NA,NA,NA,NA,NA,NA,NA,NA,NA,NA,NA,NA,NA,NA,NA,NA,NA
5d4f2,task,flow.Sequence,2_7,NA,NA,completion,5497.342,253170.30000019,253168.749,253202.065,258699.407,258700.9000001,2023-11-22T12:24:10Z,258732.679,Genehmigung,idhini,s,mwanamke,itikadi,fedheha,NA,NA,NA,"c(""distractor1"", ""distractor2"", ""distractor3"")",NA,NA,NA,NA,NA,NA,NA,NA,NA,NA,NA,NA,NA,NA,NA,NA,NA,NA,NA
5d4f2,Shallow Question,html.Page,2_8_0_0,NA,NA,form submission,7334.821,258701.0999999,258699.407,258732.679,266067.5,266067.80000019,2023-11-22T12:24:18Z,266095.708,Integrität,uadilifu,d,muungano,mtiririko,upunguaji,uadilifu,NA,NA,"c(""distractor1"", ""distractor2"", ""distractor3"")",NA,NA,NA,NA,NA,NA,NA,NA,NA,NA,NA,NA,NA,NA,NA,NA,NA,NA,NA
5d4f2,Save data screen,canvas.Screen,2_8_0_1,NA,NA,timeout,499.74600000004,266071.5,266062.378,266095.708,266562.159,266563.19999981,2023-11-22T12:24:18Z,266595.454,Integrität,uadilifu,d,muungano,mtiririko,upunguaji,NA,NA,1,"c(""distractor1"", ""distractor2"", ""distractor3"")",NA,NA,NA,NA,NA,NA,NA,NA,NA,NA,NA,NA,NA,NA,NA,NA,NA,NA,NA
5d4f2,shallow,flow.Sequence,2_8_0,NA,NA,completion,7829.48,258701.0999999,258699.407,258732.679,266562.159,266563.5999999,2023-11-22T12:24:18Z,266595.454,Integrität,uadilifu,d,muungano,mtiririko,upunguaji,NA,NA,NA,"c(""distractor1"", ""distractor2"", ""distractor3"")",NA,NA,NA,NA,NA,NA,NA,NA,NA,NA,NA,NA,NA,NA,NA,NA,NA,NA,NA
5d4f2,task,flow.Sequence,2_8,NA,NA,completion,7829.48,258701,258699.407,258732.679,266562.159,266563.9000001,2023-11-22T12:24:18Z,266595.454,Integrität,uadilifu,d,muungano,mtiririko,upunguaji,NA,NA,NA,"c(""distractor1"", ""distractor2"", ""distractor3"")",NA,NA,NA,NA,NA,NA,NA,NA,NA,NA,NA,NA,NA,NA,NA,NA,NA,NA,NA
5d4f2,Shallow Question,html.Page,2_9_0_0,NA,NA,form submission,7910.4460000953,266564,266562.159,266595.454,274505.9000001,274506.30000019,2023-11-22T12:24:26Z,274524.861,Erneuerung,ukarabati,d,ushawishi,ukalifu,unyonyaji,ukarabati,NA,NA,"c(""distractor1"", ""distractor2"", ""distractor3"")",NA,NA,NA,NA,NA,NA,NA,NA,NA,NA,NA,NA,NA,NA,NA,NA,NA,NA,NA
5d4f2,Save data screen,canvas.Screen,2_9_0_1,NA,NA,timeout,499.85600000003,274509.80000019,274491.557,274524.861,274991.3,274992.80000019,2023-11-22T12:24:27Z,275024.717,Erneuerung,ukarabati,d,ushawishi,ukalifu,unyonyaji,NA,NA,1,"c(""distractor1"", ""distractor2"", ""distractor3"")",NA,NA,NA,NA,NA,NA,NA,NA,NA,NA,NA,NA,NA,NA,NA,NA,NA,NA,NA
5d4f2,shallow,flow.Sequence,2_9_0,NA,NA,completion,8395.846,266564,266562.159,266595.454,274991.3,274993.0999999,2023-11-22T12:24:27Z,275024.717,Erneuerung,ukarabati,d,ushawishi,ukalifu,unyonyaji,NA,NA,NA,"c(""distractor1"", ""distractor2"", ""distractor3"")",NA,NA,NA,NA,NA,NA,NA,NA,NA,NA,NA,NA,NA,NA,NA,NA,NA,NA,NA
5d4f2,task,flow.Sequence,2_9,NA,NA,completion,8395.846,266563.9000001,266562.159,266595.454,274991.3,274993.30000019,2023-11-22T12:24:27Z,275024.717,Erneuerung,ukarabati,d,ushawishi,ukalifu,unyonyaji,NA,NA,NA,"c(""distractor1"", ""distractor2"", ""distractor3"")",NA,NA,NA,NA,NA,NA,NA,NA,NA,NA,NA,NA,NA,NA,NA,NA,NA,NA,NA
5d4f2,Shallow Question,html.Page,2_10_0_0,NA,NA,form submission,4858.1830000954,274993.5,274991.3,275024.717,279882.9000001,279883.19999981,2023-11-22T12:24:32Z,279905.552,Entwicklung,maendeleo,s,uangavu,mshindwa,badiliko,maendeleo,NA,NA,"c(""distractor1"", ""distractor2"", ""distractor3"")",NA,NA,NA,NA,NA,NA,NA,NA,NA,NA,NA,NA,NA,NA,NA,NA,NA,NA,NA
5d4f2,Save data screen,canvas.Screen,2_10_0_1,NA,NA,timeout,499.74199999997,279886.5,279872.228,279905.552,280371.978,280373,2023-11-22T12:24:32Z,280405.294,Entwicklung,maendeleo,s,uangavu,mshindwa,badiliko,NA,NA,1,"c(""distractor1"", ""distractor2"", ""distractor3"")",NA,NA,NA,NA,NA,NA,NA,NA,NA,NA,NA,NA,NA,NA,NA,NA,NA,NA,NA
5d4f2,shallow,flow.Sequence,2_10_0,NA,NA,completion,5347.261,274993.5,274991.3,275024.717,280371.978,280373.30000019,2023-11-22T12:24:32Z,280405.294,Entwicklung,maendeleo,s,uangavu,mshindwa,badiliko,NA,NA,NA,"c(""distractor1"", ""distractor2"", ""distractor3"")",NA,NA,NA,NA,NA,NA,NA,NA,NA,NA,NA,NA,NA,NA,NA,NA,NA,NA,NA
5d4f2,task,flow.Sequence,2_10,NA,NA,completion,5347.261,274993.5,274991.3,275024.717,280371.978,280373.5999999,2023-11-22T12:24:32Z,280405.294,Entwicklung,maendeleo,s,uangavu,mshindwa,badiliko,NA,NA,NA,"c(""distractor1"", ""distractor2"", ""distractor3"")",NA,NA,NA,NA,NA,NA,NA,NA,NA,NA,NA,NA,NA,NA,NA,NA,NA,NA,NA
5d4f2,Shallow Question,html.Page,2_11_0_0,NA,NA,form submission,7256.5060001907,280373.69999981,280371.978,280405.294,287661.80000019,287662.19999981,2023-11-22T12:24:39Z,287685.108,Atmosphäre,angahewa,s,kuteseka,usahihi,kutoamini,angahewa,NA,NA,"c(""distractor1"", ""distractor2"", ""distractor3"")",NA,NA,NA,NA,NA,NA,NA,NA,NA,NA,NA,NA,NA,NA,NA,NA,NA,NA,NA
5d4f2,Save data screen,canvas.Screen,2_11_0_1,NA,NA,timeout,499.70899999997,287665.69999981,287651.713,287685.108,288151.475,288152.30000019,2023-11-22T12:24:40Z,288184.817,Atmosphäre,angahewa,s,kuteseka,usahihi,kutoamini,NA,NA,1,"c(""distractor1"", ""distractor2"", ""distractor3"")",NA,NA,NA,NA,NA,NA,NA,NA,NA,NA,NA,NA,NA,NA,NA,NA,NA,NA,NA
5d4f2,shallow,flow.Sequence,2_11_0,NA,NA,completion,7746.181,280373.69999981,280371.978,280405.294,288151.475,288152.5999999,2023-11-22T12:24:40Z,288184.817,Atmosphäre,angahewa,s,kuteseka,usahihi,kutoamini,NA,NA,NA,"c(""distractor1"", ""distractor2"", ""distractor3"")",NA,NA,NA,NA,NA,NA,NA,NA,NA,NA,NA,NA,NA,NA,NA,NA,NA,NA,NA
5d4f2,task,flow.Sequence,2_11,NA,NA,completion,7746.181,280373.69999981,280371.978,280405.294,288151.475,288152.80000019,2023-11-22T12:24:40Z,288184.817,Atmosphäre,angahewa,s,kuteseka,usahihi,kutoamini,NA,NA,NA,"c(""distractor1"", ""distractor2"", ""distractor3"")",NA,NA,NA,NA,NA,NA,NA,NA,NA,NA,NA,NA,NA,NA,NA,NA,NA,NA,NA
5d4f2,Shallow Question,html.Page,2_12_0_0,NA,NA,form submission,5292.2829999047,288152.9000001,288151.475,288184.817,293477.0999999,293477.4000001,2023-11-22T12:24:45Z,293498.836,Wechsel,ugeuzaji,d,utambulisho,kujenga,wasiwasi,ugeuzaji,NA,NA,"c(""distractor1"", ""distractor2"", ""distractor3"")",NA,NA,NA,NA,NA,NA,NA,NA,NA,NA,NA,NA,NA,NA,NA,NA,NA,NA,NA
5d4f2,Save data screen,canvas.Screen,2_12_0_1,NA,NA,timeout,499.755,293480.5999999,293465.552,293498.836,293965.257,293966,2023-11-22T12:24:46Z,293998.591,Wechsel,ugeuzaji,d,utambulisho,kujenga,wasiwasi,NA,NA,1,"c(""distractor1"", ""distractor2"", ""distractor3"")",NA,NA,NA,NA,NA,NA,NA,NA,NA,NA,NA,NA,NA,NA,NA,NA,NA,NA,NA
5d4f2,shallow,flow.Sequence,2_12_0,NA,NA,completion,5780.44,288152.9000001,288151.475,288184.817,293965.257,293966.19999981,2023-11-22T12:24:46Z,293998.591,Wechsel,ugeuzaji,d,utambulisho,kujenga,wasiwasi,NA,NA,NA,"c(""distractor1"", ""distractor2"", ""distractor3"")",NA,NA,NA,NA,NA,NA,NA,NA,NA,NA,NA,NA,NA,NA,NA,NA,NA,NA,NA
5d4f2,task,flow.Sequence,2_12,NA,NA,completion,5780.44,288152.9000001,288151.475,288184.817,293965.257,293966.4000001,2023-11-22T12:24:46Z,293998.591,Wechsel,ugeuzaji,d,utambulisho,kujenga,wasiwasi,NA,NA,NA,"c(""distractor1"", ""distractor2"", ""distractor3"")",NA,NA,NA,NA,NA,NA,NA,NA,NA,NA,NA,NA,NA,NA,NA,NA,NA,NA,NA
5d4f2,Shallow Question,html.Page,2_13_0_0,NA,NA,form submission,5201.6089998093,293966.5999999,293965.257,293998.591,299200.19999981,299200.5999999,2023-11-22T12:24:51Z,299229.365,Niveau,kiwango,d,usimamizi,mwamali,mshairi,kiwango,NA,NA,"c(""distractor1"", ""distractor2"", ""distractor3"")",NA,NA,NA,NA,NA,NA,NA,NA,NA,NA,NA,NA,NA,NA,NA,NA,NA,NA,NA
5d4f2,Save data screen,canvas.Screen,2_13_0_1,NA,NA,timeout,499.83600000001,299204.19999981,299196.035,299229.365,299695.809,299697.4000001,2023-11-22T12:24:51Z,299729.201,Niveau,kiwango,d,usimamizi,mwamali,mshairi,NA,NA,1,"c(""distractor1"", ""distractor2"", ""distractor3"")",NA,NA,NA,NA,NA,NA,NA,NA,NA,NA,NA,NA,NA,NA,NA,NA,NA,NA,NA
5d4f2,shallow,flow.Sequence,2_13_0,NA,NA,completion,5697.218,293966.5,293965.257,293998.591,299695.809,299697.69999981,2023-11-22T12:24:51Z,299729.201,Niveau,kiwango,d,usimamizi,mwamali,mshairi,NA,NA,NA,"c(""distractor1"", ""distractor2"", ""distractor3"")",NA,NA,NA,NA,NA,NA,NA,NA,NA,NA,NA,NA,NA,NA,NA,NA,NA,NA,NA
5d4f2,task,flow.Sequence,2_13,NA,NA,completion,5697.218,293966.5,293965.257,293998.591,299695.809,299698,2023-11-22T12:24:51Z,299729.201,Niveau,kiwango,d,usimamizi,mwamali,mshairi,NA,NA,NA,"c(""distractor1"", ""distractor2"", ""distractor3"")",NA,NA,NA,NA,NA,NA,NA,NA,NA,NA,NA,NA,NA,NA,NA,NA,NA,NA,NA
5d4f2,Shallow Question,html.Page,2_14_0_0,NA,NA,form submission,5136.0990001907,299698.30000019,299695.809,299729.201,304865.30000019,304865.5999999,2023-11-22T12:24:57Z,304893.253,Papier,karatasi,d,uchambuzi,usalama,kukataliwa,karatasi,NA,NA,"c(""distractor1"", ""distractor2"", ""distractor3"")",NA,NA,NA,NA,NA,NA,NA,NA,NA,NA,NA,NA,NA,NA,NA,NA,NA,NA,NA
5d4f2,Save data screen,canvas.Screen,2_14_0_1,NA,NA,timeout,499.73699999996,304868.9000001,304859.888,304893.253,305359.65,305360.5999999,2023-11-22T12:24:57Z,305392.99,Papier,karatasi,d,uchambuzi,usalama,kukataliwa,NA,NA,1,"c(""distractor1"", ""distractor2"", ""distractor3"")",NA,NA,NA,NA,NA,NA,NA,NA,NA,NA,NA,NA,NA,NA,NA,NA,NA,NA,NA
5d4f2,shallow,flow.Sequence,2_14_0,NA,NA,completion,5630.449,299698.30000019,299695.809,299729.201,305359.65,305360.9000001,2023-11-22T12:24:57Z,305392.99,Papier,karatasi,d,uchambuzi,usalama,kukataliwa,NA,NA,NA,"c(""distractor1"", ""distractor2"", ""distractor3"")",NA,NA,NA,NA,NA,NA,NA,NA,NA,NA,NA,NA,NA,NA,NA,NA,NA,NA,NA
5d4f2,task,flow.Sequence,2_14,NA,NA,completion,5630.449,299698.19999981,299695.809,299729.201,305359.65,305361.0999999,2023-11-22T12:24:57Z,305392.99,Papier,karatasi,d,uchambuzi,usalama,kukataliwa,NA,NA,NA,"c(""distractor1"", ""distractor2"", ""distractor3"")",NA,NA,NA,NA,NA,NA,NA,NA,NA,NA,NA,NA,NA,NA,NA,NA,NA,NA,NA
5d4f2,Shallow Question,html.Page,2_15_0_0,NA,NA,form submission,6235.01,305361.30000019,305359.65,305392.99,311628,311628.30000019,2023-11-22T12:25:03Z,311656.561,Begegnung,kukutana,s,mmasihiya,mpiganaji,husiano,kukutana,NA,NA,"c(""distractor1"", ""distractor2"", ""distractor3"")",NA,NA,NA,NA,NA,NA,NA,NA,NA,NA,NA,NA,NA,NA,NA,NA,NA,NA,NA
5d4f2,Save data screen,canvas.Screen,2_15_0_1,NA,NA,timeout,499.76900000003,311631.5999999,311623.254,311656.561,312122.968,312123.69999981,2023-11-22T12:25:04Z,312156.33,Begegnung,kukutana,s,mmasihiya,mpiganaji,husiano,NA,NA,1,"c(""distractor1"", ""distractor2"", ""distractor3"")",NA,NA,NA,NA,NA,NA,NA,NA,NA,NA,NA,NA,NA,NA,NA,NA,NA,NA,NA
5d4f2,shallow,flow.Sequence,2_15_0,NA,NA,completion,6729.978,305361.19999981,305359.65,305392.99,312122.968,312124.0999999,2023-11-22T12:25:04Z,312156.33,Begegnung,kukutana,s,mmasihiya,mpiganaji,husiano,NA,NA,NA,"c(""distractor1"", ""distractor2"", ""distractor3"")",NA,NA,NA,NA,NA,NA,NA,NA,NA,NA,NA,NA,NA,NA,NA,NA,NA,NA,NA
5d4f2,task,flow.Sequence,2_15,NA,NA,completion,6729.978,305361.19999981,305359.65,305392.99,312122.968,312124.4000001,2023-11-22T12:25:04Z,312156.33,Begegnung,kukutana,s,mmasihiya,mpiganaji,husiano,NA,NA,NA,"c(""distractor1"", ""distractor2"", ""distractor3"")",NA,NA,NA,NA,NA,NA,NA,NA,NA,NA,NA,NA,NA,NA,NA,NA,NA,NA,NA
5d4f2,retrieval block 2 (multiple choice),flow.Loop,2,NA,NA,completion,109629.12,202461.80000019,202460.48,202493.848,312122.968,312124.69999981,2023-11-22T12:25:04Z,312156.33,NA,NA,NA,NA,NA,NA,NA,NA,NA,"c(""distractor1"", ""distractor2"", ""distractor3"")",NA,NA,NA,NA,NA,NA,NA,NA,NA,NA,NA,NA,NA,NA,NA,NA,NA,NA,NA
5d4f2,End,canvas.Screen,3,NA,keypress(Space),response,1655.2699999046,312124.80000019,312122.968,312156.33,313811.5999999,313814.5,2023-11-22T12:25:05Z,313838.831,NA,NA,NA,NA,NA,NA,NA,NA,NA,NULL,NA,NA,NA,NA,NA,NA,NA,NA,NA,NA,NA,NA,NA,NA,NA,NA,NA,NA,NA
5d4f2,root,flow.Sequence,NA,NA,NA,completion,312951.6109999,823.69999980927,393.555,859.989,313811.5999999,313814.9000001,2023-11-22T12:25:05Z,313838.831,NA,NA,NA,NA,NA,NA,NA,NA,NA,NULL,NA,NA,NA,NA,NA,NA,NA,NA,NA,NA,NA,NA,NA,NA,NA,NA,NA,NA,NA
