observation,sender,sender_type,sender_id,response,response_action,ended_on,duration,time_run,time_render,time_show,time_end,time_commit,timestamp,time_switch,distractors,german,swahili,enc,distractor1,distractor2,distractor3,response_2,x,correct,x_2,url_vp,url_sess,meta_labjs_version,meta_location,meta_user_agent,meta_platform,meta_language,meta_locale,meta_time_zone,meta_timezone_offset,meta_screen_width,meta_screen_height,meta_scroll_width,meta_scroll_height,meta_window_inner_width,meta_window_inner_height,meta_device_pixel_ratio,meta_labjs_build_flavor,meta_labjs_build_commit
e3172,Introduction general,canvas.Screen,0,weiter,keypress(q),response,28957.728000048,895.70000004768,1556.408,1572.972,30530.700000048,30531.700000048,2023-10-17T08:34:40Z,30538.599,NULL,NA,NA,NA,NA,NA,NA,NA,NA,NA,NA,135,1,20.2.4,https://neurocog.fernuni.ch/studies/vweber/aberisha/encoding_immediate/index.html?vp=135&sess=1,"Mozilla/5.0 (Windows NT 10.0; Win64; x64) AppleWebKit/537.36 (KHTML, like Gecko) Chrome/118.0.0.0 Safari/537.36",Win32,de-DE,de,Europe/Zurich,-120,1739,979,1740,774,1740,822,1.1041666269302,production,f5b4a49f956347addd546a832a3327688c2c0fef
e3172,Introduction practice,canvas.Screen,1_0,NA,keypress(Space),response,1907.1010000477,30532,30520.937,30538.599,32445.700000048,32446.799999952,2023-10-17T08:34:42Z,32454.094,NULL,NA,NA,NA,NA,NA,NA,NA,NA,NA,NA,NA,NA,NA,NA,NA,NA,NA,NA,NA,NA,NA,NA,NA,NA,NA,NA,NA,NA,NA
e3172,Deep Question,html.Page,1_1_0_0_0,NA,NA,form submission,6376.0060001431,32447.400000095,32436.029,32454.094,38830.100000143,38830.299999952,2023-10-17T08:34:48Z,38833.496,"c(""distractor1"", ""distractor2"", ""distractor3"")",Schatten,kivuli,d,NA,NA,NA,lhama$,NA,NA,NA,NA,NA,NA,NA,NA,NA,NA,NA,NA,NA,NA,NA,NA,NA,NA,NA,NA,NA,NA
e3172,"""Richtig""-Screen",canvas.Screen,1_1_0_0_1,NA,NA,skipped,NA,38831.200000048,NA,NA,38830.100000143,38831.299999952,2023-10-17T08:34:48Z,38833.496,"c(""distractor1"", ""distractor2"", ""distractor3"")",Schatten,kivuli,d,NA,NA,NA,NA,NA,NA,NA,NA,NA,NA,NA,NA,NA,NA,NA,NA,NA,NA,NA,NA,NA,NA,NA,NA,NA,NA
e3172,"""Falsch""-Screen",canvas.Screen,1_1_0_0_2,NA,NA,timeout,4996.967,38831.799999952,38820.585,38833.496,43813.848,43815.600000143,2023-10-17T08:34:53Z,43830.463,"c(""distractor1"", ""distractor2"", ""distractor3"")",Schatten,kivuli,d,NA,NA,NA,NA,NA,0,NA,NA,NA,NA,NA,NA,NA,NA,NA,NA,NA,NA,NA,NA,NA,NA,NA,NA,NA,NA
e3172,deep,flow.Sequence,1_1_0_0,NA,NA,completion,11359.754,32447.299999952,32436.029,32454.094,43813.848,43816.200000048,2023-10-17T08:34:53Z,43830.463,"c(""distractor1"", ""distractor2"", ""distractor3"")",Schatten,kivuli,d,NA,NA,NA,NA,NA,NA,NA,NA,NA,NA,NA,NA,NA,NA,NA,NA,NA,NA,NA,NA,NA,NA,NA,NA,NA,NA
e3172,shallow,flow.Sequence,1_1_0_1,NA,NA,skipped,NA,43816.5,NA,NA,43813.848,43816.700000048,2023-10-17T08:34:53Z,43830.463,"c(""distractor1"", ""distractor2"", ""distractor3"")",Schatten,kivuli,d,NA,NA,NA,NA,NA,NA,NA,NA,NA,NA,NA,NA,NA,NA,NA,NA,NA,NA,NA,NA,NA,NA,NA,NA,NA,NA
e3172,task,flow.Sequence,1_1_0,NA,NA,completion,11359.754,32447.200000048,32436.029,32454.094,43813.848,43817.100000143,2023-10-17T08:34:53Z,43830.463,"c(""distractor1"", ""distractor2"", ""distractor3"")",Schatten,kivuli,d,NA,NA,NA,NA,NA,NA,NA,NA,NA,NA,NA,NA,NA,NA,NA,NA,NA,NA,NA,NA,NA,NA,NA,NA,NA,NA
e3172,deep,flow.Sequence,1_1_1_0,NA,NA,skipped,NA,43817.299999952,NA,NA,43813.848,43817.5,2023-10-17T08:34:53Z,43830.463,"c(""distractor1"", ""distractor2"", ""distractor3"")",Gegenwart,hadhara,s,katiba,jokofu,mikopo,NA,NA,NA,NA,NA,NA,NA,NA,NA,NA,NA,NA,NA,NA,NA,NA,NA,NA,NA,NA,NA,NA,NA
e3172,Shallow Question,html.Page,1_1_1_1_0,NA,NA,form submission,6097.2370000477,43817.799999952,43813.848,43830.463,49927.700000048,49928.100000143,2023-10-17T08:34:59Z,49960.624,"c(""distractor1"", ""distractor2"", ""distractor3"")",Gegenwart,hadhara,s,katiba,jokofu,mikopo,katiba,NA,NA,NA,NA,NA,NA,NA,NA,NA,NA,NA,NA,NA,NA,NA,NA,NA,NA,NA,NA,NA,NA
e3172,"""Richtig""-Screen",canvas.Screen,1_1_1_1_1,NA,NA,skipped,NA,49929.299999952,NA,NA,49927.700000048,49929.5,2023-10-17T08:34:59Z,49960.624,"c(""distractor1"", ""distractor2"", ""distractor3"")",Gegenwart,hadhara,s,katiba,jokofu,mikopo,NA,NA,NA,NA,NA,NA,NA,NA,NA,NA,NA,NA,NA,NA,NA,NA,NA,NA,NA,NA,NA,NA,NA
e3172,"""Falsch""-Screen",canvas.Screen,1_1_1_1_2,NA,NA,timeout,4996.85,49930.700000048,49943.485,49960.624,54940.707,54941.600000143,2023-10-17T08:35:04Z,54957.474,"c(""distractor1"", ""distractor2"", ""distractor3"")",Gegenwart,hadhara,s,katiba,jokofu,mikopo,NA,NA,0,NA,NA,NA,NA,NA,NA,NA,NA,NA,NA,NA,NA,NA,NA,NA,NA,NA,NA,NA,NA
e3172,shallow,flow.Sequence,1_1_1_1,NA,NA,completion,11110.244,43817.700000048,43813.848,43830.463,54940.707,54942.100000143,2023-10-17T08:35:04Z,54957.474,"c(""distractor1"", ""distractor2"", ""distractor3"")",Gegenwart,hadhara,s,katiba,jokofu,mikopo,NA,NA,NA,NA,NA,NA,NA,NA,NA,NA,NA,NA,NA,NA,NA,NA,NA,NA,NA,NA,NA,NA,NA
e3172,task,flow.Sequence,1_1_1,NA,NA,completion,11110.244,43817.200000048,43813.848,43830.463,54940.707,54942.400000095000,2023-10-17T08:35:04Z,54957.474,"c(""distractor1"", ""distractor2"", ""distractor3"")",Gegenwart,hadhara,s,katiba,jokofu,mikopo,NA,NA,NA,NA,NA,NA,NA,NA,NA,NA,NA,NA,NA,NA,NA,NA,NA,NA,NA,NA,NA,NA,NA
e3172,Deep Question,html.Page,1_1_2_0_0,NA,NA,form submission,5494.2260000477,54942.600000143,54940.707,54957.474,60451.700000048,60453,2023-10-17T08:35:10Z,60470.595,"c(""distractor1"", ""distractor2"", ""distractor3"")",Qualität,mtindo,d,NA,NA,NA,mtimbo,NA,NA,NA,NA,NA,NA,NA,NA,NA,NA,NA,NA,NA,NA,NA,NA,NA,NA,NA,NA,NA,NA
e3172,"""Richtig""-Screen",canvas.Screen,1_1_2_0_1,NA,NA,skipped,NA,60454.100000143,NA,NA,60451.700000048,60454.299999952,2023-10-17T08:35:10Z,60470.595,"c(""distractor1"", ""distractor2"", ""distractor3"")",Qualität,mtindo,d,NA,NA,NA,NA,NA,NA,NA,NA,NA,NA,NA,NA,NA,NA,NA,NA,NA,NA,NA,NA,NA,NA,NA,NA,NA,NA
e3172,"""Falsch""-Screen",canvas.Screen,1_1_2_0_2,NA,NA,timeout,4996.937,60455.400000095000,60453.588,60470.595,65451.049,65451.600000143,2023-10-17T08:35:15Z,65467.532,"c(""distractor1"", ""distractor2"", ""distractor3"")",Qualität,mtindo,d,NA,NA,NA,NA,NA,0,NA,NA,NA,NA,NA,NA,NA,NA,NA,NA,NA,NA,NA,NA,NA,NA,NA,NA,NA,NA
e3172,deep,flow.Sequence,1_1_2_0,NA,NA,completion,10493.575,54942.600000143,54940.707,54957.474,65451.049,65451.700000048,2023-10-17T08:35:15Z,65467.532,"c(""distractor1"", ""distractor2"", ""distractor3"")",Qualität,mtindo,d,NA,NA,NA,NA,NA,NA,NA,NA,NA,NA,NA,NA,NA,NA,NA,NA,NA,NA,NA,NA,NA,NA,NA,NA,NA,NA
e3172,shallow,flow.Sequence,1_1_2_1,NA,NA,skipped,NA,65451.700000048,NA,NA,65451.049,65451.900000095000,2023-10-17T08:35:15Z,65467.532,"c(""distractor1"", ""distractor2"", ""distractor3"")",Qualität,mtindo,d,NA,NA,NA,NA,NA,NA,NA,NA,NA,NA,NA,NA,NA,NA,NA,NA,NA,NA,NA,NA,NA,NA,NA,NA,NA,NA
e3172,task,flow.Sequence,1_1_2,NA,NA,completion,10493.575,54942.5,54940.707,54957.474,65451.049,65452,2023-10-17T08:35:15Z,65467.532,"c(""distractor1"", ""distractor2"", ""distractor3"")",Qualität,mtindo,d,NA,NA,NA,NA,NA,NA,NA,NA,NA,NA,NA,NA,NA,NA,NA,NA,NA,NA,NA,NA,NA,NA,NA,NA,NA,NA
e3172,Deep Question,html.Page,1_1_3_0_0,NA,NA,form submission,5360.3680000954,65452,65451.049,65467.532,70827.900000095,70828.100000143,2023-10-17T08:35:20Z,70830.587,"c(""distractor1"", ""distractor2"", ""distractor3"")",Gesundheit,salama,d,NA,NA,NA,kavual,NA,NA,NA,NA,NA,NA,NA,NA,NA,NA,NA,NA,NA,NA,NA,NA,NA,NA,NA,NA,NA,NA
e3172,"""Richtig""-Screen",canvas.Screen,1_1_3_0_1,NA,NA,skipped,NA,70831.400000095,NA,NA,70827.900000095,70831.600000143,2023-10-17T08:35:20Z,70830.587,"c(""distractor1"", ""distractor2"", ""distractor3"")",Gesundheit,salama,d,NA,NA,NA,NA,NA,NA,NA,NA,NA,NA,NA,NA,NA,NA,NA,NA,NA,NA,NA,NA,NA,NA,NA,NA,NA,NA
e3172,"""Falsch""-Screen",canvas.Screen,1_1_3_0_2,NA,NA,timeout,4997.408,70832.299999952,70814.232,70830.587,75811.359,75812.299999952,2023-10-17T08:35:25Z,75827.995,"c(""distractor1"", ""distractor2"", ""distractor3"")",Gesundheit,salama,d,NA,NA,NA,NA,NA,0,NA,NA,NA,NA,NA,NA,NA,NA,NA,NA,NA,NA,NA,NA,NA,NA,NA,NA,NA,NA
e3172,deep,flow.Sequence,1_1_3_0,NA,NA,completion,10343.827,65452,65451.049,65467.532,75811.359,75812.700000048,2023-10-17T08:35:25Z,75827.995,"c(""distractor1"", ""distractor2"", ""distractor3"")",Gesundheit,salama,d,NA,NA,NA,NA,NA,NA,NA,NA,NA,NA,NA,NA,NA,NA,NA,NA,NA,NA,NA,NA,NA,NA,NA,NA,NA,NA
e3172,shallow,flow.Sequence,1_1_3_1,NA,NA,skipped,NA,75812.799999952,NA,NA,75811.359,75813,2023-10-17T08:35:25Z,75827.995,"c(""distractor1"", ""distractor2"", ""distractor3"")",Gesundheit,salama,d,NA,NA,NA,NA,NA,NA,NA,NA,NA,NA,NA,NA,NA,NA,NA,NA,NA,NA,NA,NA,NA,NA,NA,NA,NA,NA
e3172,task,flow.Sequence,1_1_3,NA,NA,completion,10343.827,65452,65451.049,65467.532,75811.359,75813.200000048,2023-10-17T08:35:25Z,75827.995,"c(""distractor1"", ""distractor2"", ""distractor3"")",Gesundheit,salama,d,NA,NA,NA,NA,NA,NA,NA,NA,NA,NA,NA,NA,NA,NA,NA,NA,NA,NA,NA,NA,NA,NA,NA,NA,NA,NA
e3172,deep,flow.Sequence,1_1_4_0,NA,NA,skipped,NA,75813.299999952,NA,NA,75811.359,75813.400000095,2023-10-17T08:35:25Z,75827.995,"c(""distractor1"", ""distractor2"", ""distractor3"")",Kritik,lawama,s,dereva,nafasi,mawazo,NA,NA,NA,NA,NA,NA,NA,NA,NA,NA,NA,NA,NA,NA,NA,NA,NA,NA,NA,NA,NA,NA,NA
e3172,Shallow Question,html.Page,1_1_4_1_0,NA,NA,form submission,5277.9050000954,75813.600000143,75811.359,75827.995,81105.900000095,81106.200000048,2023-10-17T08:35:30Z,81107.628,"c(""distractor1"", ""distractor2"", ""distractor3"")",Kritik,lawama,s,dereva,nafasi,mawazo,nafasi,NA,NA,NA,NA,NA,NA,NA,NA,NA,NA,NA,NA,NA,NA,NA,NA,NA,NA,NA,NA,NA,NA
e3172,"""Richtig""-Screen",canvas.Screen,1_1_4_1_1,NA,NA,skipped,NA,81109.299999952,NA,NA,81105.900000095,81112.900000095,2023-10-17T08:35:30Z,81107.628,"c(""distractor1"", ""distractor2"", ""distractor3"")",Kritik,lawama,s,dereva,nafasi,mawazo,NA,NA,NA,NA,NA,NA,NA,NA,NA,NA,NA,NA,NA,NA,NA,NA,NA,NA,NA,NA,NA,NA,NA
e3172,"""Falsch""-Screen",canvas.Screen,1_1_4_1_2,NA,NA,timeout,4997.483,81113.700000048,81091.573,81107.628,86088.224,86089.200000048,2023-10-17T08:35:35Z,86105.111,"c(""distractor1"", ""distractor2"", ""distractor3"")",Kritik,lawama,s,dereva,nafasi,mawazo,NA,NA,0,NA,NA,NA,NA,NA,NA,NA,NA,NA,NA,NA,NA,NA,NA,NA,NA,NA,NA,NA,NA
e3172,shallow,flow.Sequence,1_1_4_1,NA,NA,completion,10260.229,75813.600000143,75811.359,75827.995,86088.224,86089.600000143,2023-10-17T08:35:35Z,86105.111,"c(""distractor1"", ""distractor2"", ""distractor3"")",Kritik,lawama,s,dereva,nafasi,mawazo,NA,NA,NA,NA,NA,NA,NA,NA,NA,NA,NA,NA,NA,NA,NA,NA,NA,NA,NA,NA,NA,NA,NA
e3172,task,flow.Sequence,1_1_4,NA,NA,completion,10260.229,75813.299999952,75811.359,75827.995,86088.224,86089.900000095,2023-10-17T08:35:35Z,86105.111,"c(""distractor1"", ""distractor2"", ""distractor3"")",Kritik,lawama,s,dereva,nafasi,mawazo,NA,NA,NA,NA,NA,NA,NA,NA,NA,NA,NA,NA,NA,NA,NA,NA,NA,NA,NA,NA,NA,NA,NA
e3172,deep,flow.Sequence,1_1_5_0,NA,NA,skipped,NA,86090.100000143,NA,NA,86088.224,86090.200000048,2023-10-17T08:35:35Z,86105.111,"c(""distractor1"", ""distractor2"", ""distractor3"")",Rückhalt,msaada,s,muhula,auwali,kiwimbe,NA,NA,NA,NA,NA,NA,NA,NA,NA,NA,NA,NA,NA,NA,NA,NA,NA,NA,NA,NA,NA,NA,NA
e3172,Shallow Question,html.Page,1_1_5_1_0,NA,NA,form submission,4742.389,86090.400000095,86088.224,86105.111,90847.5,90847.799999952,2023-10-17T08:35:40Z,90851.652,"c(""distractor1"", ""distractor2"", ""distractor3"")",Rückhalt,msaada,s,muhula,auwali,kiwimbe,msaada,NA,NA,NA,NA,NA,NA,NA,NA,NA,NA,NA,NA,NA,NA,NA,NA,NA,NA,NA,NA,NA,NA
e3172,"""Richtig""-Screen",canvas.Screen,1_1_5_1_1,NA,NA,timeout,4997.31,90850.900000095,90835.479,90851.652,95832.241,95833.200000048,2023-10-17T08:35:45Z,95848.962,"c(""distractor1"", ""distractor2"", ""distractor3"")",Rückhalt,msaada,s,muhula,auwali,kiwimbe,NA,NA,1,NA,NA,NA,NA,NA,NA,NA,NA,NA,NA,NA,NA,NA,NA,NA,NA,NA,NA,NA,NA
e3172,"""Falsch""-Screen",canvas.Screen,1_1_5_1_2,NA,NA,skipped,NA,95838.400000095,NA,NA,95832.241,95838.400000095,2023-10-17T08:35:45Z,95848.962,"c(""distractor1"", ""distractor2"", ""distractor3"")",Rückhalt,msaada,s,muhula,auwali,kiwimbe,NA,NA,NA,NA,NA,NA,NA,NA,NA,NA,NA,NA,NA,NA,NA,NA,NA,NA,NA,NA,NA,NA,NA
e3172,shallow,flow.Sequence,1_1_5_1,NA,NA,completion,9727.13,86090.299999952,86088.224,86105.111,95832.241,95838.5,2023-10-17T08:35:45Z,95848.962,"c(""distractor1"", ""distractor2"", ""distractor3"")",Rückhalt,msaada,s,muhula,auwali,kiwimbe,NA,NA,NA,NA,NA,NA,NA,NA,NA,NA,NA,NA,NA,NA,NA,NA,NA,NA,NA,NA,NA,NA,NA
e3172,task,flow.Sequence,1_1_5,NA,NA,completion,9727.13,86090,86088.224,86105.111,95832.241,95838.5,2023-10-17T08:35:45Z,95848.962,"c(""distractor1"", ""distractor2"", ""distractor3"")",Rückhalt,msaada,s,muhula,auwali,kiwimbe,NA,NA,NA,NA,NA,NA,NA,NA,NA,NA,NA,NA,NA,NA,NA,NA,NA,NA,NA,NA,NA,NA,NA
e3172,block,flow.Loop,1_1,NA,NA,completion,63378.147,32447.200000048,32436.029,32454.094,95832.241,95838.700000048,2023-10-17T08:35:45Z,95848.962,"c(""distractor1"", ""distractor2"", ""distractor3"")",NA,NA,NA,NA,NA,NA,NA,NA,NA,NA,NA,NA,NA,NA,NA,NA,NA,NA,NA,NA,NA,NA,NA,NA,NA,NA,NA,NA,NA
e3172,Practice,flow.Sequence,1,NA,NA,completion,65293.642,30532,30520.937,30538.599,95832.241,95838.700000048,2023-10-17T08:35:45Z,95848.962,NULL,NA,NA,NA,NA,NA,NA,NA,NA,NA,NA,NA,NA,NA,NA,NA,NA,NA,NA,NA,NA,NA,NA,NA,NA,NA,NA,NA,NA,NA
e3172,Experiment start,canvas.Screen,2,weiter,keypress(q),response,10437.138000143,95838.700000048,95832.241,95848.962,106286.10000014,106287.20000005,2023-10-17T08:35:55Z,106342.138,NULL,NA,NA,NA,NA,NA,NA,NA,NA,NA,NA,NA,NA,NA,NA,NA,NA,NA,NA,NA,NA,NA,NA,NA,NA,NA,NA,NA,NA,NA
e3172,deep,flow.Sequence,3_0_0_0_0_0,NA,NA,skipped,NA,106350.5,NA,NA,106286.10000014,106350.60000014,2023-10-17T08:35:55Z,106342.138,NULL,Zufall,kikuti,s,kukosekana,uchoraji,leseni,NA,sdf,NA,0,NA,NA,NA,NA,NA,NA,NA,NA,NA,NA,NA,NA,NA,NA,NA,NA,NA,NA,NA
e3172,Shallow Question,html.Page,3_0_0_0_0_1_0,NA,NA,form submission,7079.7620000954,106350.60000014,106281.382,106342.138,113421.9000001,113422.10000014,2023-10-17T08:36:03Z,113438.257,NULL,Zufall,kikuti,s,kukosekana,uchoraji,leseni,leseni,NA,NA,0,NA,NA,NA,NA,NA,NA,NA,NA,NA,NA,NA,NA,NA,NA,NA,NA,NA,NA,NA
e3172,"""Richtig""-Screen",canvas.Screen,3_0_0_0_0_1_1,NA,NA,skipped,NA,113425.10000014,NA,NA,113421.9000001,113425.20000005,2023-10-17T08:36:03Z,113438.257,NULL,Zufall,kikuti,s,kukosekana,uchoraji,leseni,NA,sdf,NA,0,NA,NA,NA,NA,NA,NA,NA,NA,NA,NA,NA,NA,NA,NA,NA,NA,NA,NA,NA
e3172,"""Falsch""-Screen",canvas.Screen,3_0_0_0_0_1_2,NA,NA,timeout,4997.098,113425.9000001,113405.066,113438.257,118418.482,118419.4000001,2023-10-17T08:36:08Z,118435.355,NULL,Zufall,kikuti,s,kukosekana,uchoraji,leseni,NA,sdf,0,0,NA,NA,NA,NA,NA,NA,NA,NA,NA,NA,NA,NA,NA,NA,NA,NA,NA,NA,NA
e3172,shallow,flow.Sequence,3_0_0_0_0_1,NA,NA,completion,12076.344,106350.60000014,106281.382,106342.138,118418.482,118419.79999995,2023-10-17T08:36:08Z,118435.355,NULL,Zufall,kikuti,s,kukosekana,uchoraji,leseni,NA,sdf,NA,0,NA,NA,NA,NA,NA,NA,NA,NA,NA,NA,NA,NA,NA,NA,NA,NA,NA,NA,NA
e3172,task,flow.Sequence,3_0_0_0_0,NA,NA,completion,12076.344,106350.5,106281.382,106342.138,118418.482,118420.10000014,2023-10-17T08:36:08Z,118435.355,NULL,Zufall,kikuti,s,kukosekana,uchoraji,leseni,NA,sdf,NA,0,NA,NA,NA,NA,NA,NA,NA,NA,NA,NA,NA,NA,NA,NA,NA,NA,NA,NA,NA
e3172,Deep Question,html.Page,3_0_0_0_1_0_0,NA,NA,form submission,3291.5450000954,118420.20000005,118418.482,118435.355,121726.9000001,121727.10000014,2023-10-17T08:36:11Z,121732.692,NULL,Hoffnung,matarajio,d,NA,NA,NA,l,NA,NA,0,NA,NA,NA,NA,NA,NA,NA,NA,NA,NA,NA,NA,NA,NA,NA,NA,NA,NA,NA
e3172,"""Richtig""-Screen",canvas.Screen,3_0_0_0_1_0_1,NA,NA,skipped,NA,121731.20000005,NA,NA,121726.9000001,121731.29999995,2023-10-17T08:36:11Z,121732.692,NULL,Hoffnung,matarajio,d,NA,NA,NA,NA,sdf,NA,0,NA,NA,NA,NA,NA,NA,NA,NA,NA,NA,NA,NA,NA,NA,NA,NA,NA,NA,NA
e3172,"""Falsch""-Screen",canvas.Screen,3_0_0_0_1_0_2,NA,NA,timeout,4997.464,121732.10000014,121716.394,121732.692,126713.395,126714.20000005,2023-10-17T08:36:16Z,126730.156,NULL,Hoffnung,matarajio,d,NA,NA,NA,NA,sdf,0,0,NA,NA,NA,NA,NA,NA,NA,NA,NA,NA,NA,NA,NA,NA,NA,NA,NA,NA,NA
e3172,deep,flow.Sequence,3_0_0_0_1_0,NA,NA,completion,8278.04,118420.20000005,118418.482,118435.355,126713.395,126714.5,2023-10-17T08:36:16Z,126730.156,NULL,Hoffnung,matarajio,d,NA,NA,NA,NA,sdf,NA,0,NA,NA,NA,NA,NA,NA,NA,NA,NA,NA,NA,NA,NA,NA,NA,NA,NA,NA,NA
e3172,shallow,flow.Sequence,3_0_0_0_1_1,NA,NA,skipped,NA,126714.60000014,NA,NA,126713.395,126714.79999995,2023-10-17T08:36:16Z,126730.156,NULL,Hoffnung,matarajio,d,NA,NA,NA,NA,sdf,NA,0,NA,NA,NA,NA,NA,NA,NA,NA,NA,NA,NA,NA,NA,NA,NA,NA,NA,NA,NA
e3172,task,flow.Sequence,3_0_0_0_1,NA,NA,completion,8278.04,118420.10000014,118418.482,118435.355,126713.395,126714.9000001,2023-10-17T08:36:16Z,126730.156,NULL,Hoffnung,matarajio,d,NA,NA,NA,NA,sdf,NA,0,NA,NA,NA,NA,NA,NA,NA,NA,NA,NA,NA,NA,NA,NA,NA,NA,NA,NA,NA
e3172,deep,flow.Sequence,3_0_0_0_2_0,NA,NA,skipped,NA,126715,NA,NA,126713.395,126715.20000005,2023-10-17T08:36:16Z,126730.156,NULL,Schock,mshtuko,s,biashara,kukataza,vichekesho,NA,sdf,NA,0,NA,NA,NA,NA,NA,NA,NA,NA,NA,NA,NA,NA,NA,NA,NA,NA,NA,NA,NA
e3172,Shallow Question,html.Page,3_0_0_0_2_1_0,NA,NA,form submission,6169.5440000477,126715.20000005,126713.395,126730.156,132899.70000005,132900,2023-10-17T08:36:22Z,132909.381,NULL,Schock,mshtuko,s,biashara,kukataza,vichekesho,mshtuko,NA,NA,0,NA,NA,NA,NA,NA,NA,NA,NA,NA,NA,NA,NA,NA,NA,NA,NA,NA,NA,NA
e3172,"""Richtig""-Screen",canvas.Screen,3_0_0_0_2_1_1,NA,NA,timeout,4997.092,132903,132892.638,132909.381,137889.726,137890.79999995,2023-10-17T08:36:27Z,137906.473,NULL,Schock,mshtuko,s,biashara,kukataza,vichekesho,NA,sdf,1,0,NA,NA,NA,NA,NA,NA,NA,NA,NA,NA,NA,NA,NA,NA,NA,NA,NA,NA,NA
e3172,"""Falsch""-Screen",canvas.Screen,3_0_0_0_2_1_2,NA,NA,skipped,NA,137896.10000014,NA,NA,137889.726,137896.20000005,2023-10-17T08:36:27Z,137906.473,NULL,Schock,mshtuko,s,biashara,kukataza,vichekesho,NA,sdf,NA,0,NA,NA,NA,NA,NA,NA,NA,NA,NA,NA,NA,NA,NA,NA,NA,NA,NA,NA,NA
e3172,shallow,flow.Sequence,3_0_0_0_2_1,NA,NA,completion,11159.57,126715.20000005,126713.395,126730.156,137889.726,137896.20000005,2023-10-17T08:36:27Z,137906.473,NULL,Schock,mshtuko,s,biashara,kukataza,vichekesho,NA,sdf,NA,0,NA,NA,NA,NA,NA,NA,NA,NA,NA,NA,NA,NA,NA,NA,NA,NA,NA,NA,NA
e3172,task,flow.Sequence,3_0_0_0_2,NA,NA,completion,11159.57,126715,126713.395,126730.156,137889.726,137896.29999995,2023-10-17T08:36:27Z,137906.473,NULL,Schock,mshtuko,s,biashara,kukataza,vichekesho,NA,sdf,NA,0,NA,NA,NA,NA,NA,NA,NA,NA,NA,NA,NA,NA,NA,NA,NA,NA,NA,NA,NA
e3172,deep,flow.Sequence,3_0_0_0_3_0,NA,NA,skipped,NA,137896.4000001,NA,NA,137889.726,137896.4000001,2023-10-17T08:36:27Z,137906.473,NULL,Schönheit,kirembo,s,mahojiano,msisimko,jitihadi,NA,sdf,NA,0,NA,NA,NA,NA,NA,NA,NA,NA,NA,NA,NA,NA,NA,NA,NA,NA,NA,NA,NA
e3172,Shallow Question,html.Page,3_0_0_0_3_1_0,NA,NA,form submission,6732.8269999523,137896.4000001,137889.726,137906.473,144639.29999995,144639.60000014,2023-10-17T08:36:34Z,144652.197,NULL,Schönheit,kirembo,s,mahojiano,msisimko,jitihadi,jitihadi,NA,NA,0,NA,NA,NA,NA,NA,NA,NA,NA,NA,NA,NA,NA,NA,NA,NA,NA,NA,NA,NA
e3172,"""Richtig""-Screen",canvas.Screen,3_0_0_0_3_1_1,NA,NA,skipped,NA,144642.79999995,NA,NA,144639.29999995,144642.9000001,2023-10-17T08:36:34Z,144652.197,NULL,Schönheit,kirembo,s,mahojiano,msisimko,jitihadi,NA,sdf,NA,0,NA,NA,NA,NA,NA,NA,NA,NA,NA,NA,NA,NA,NA,NA,NA,NA,NA,NA,NA
e3172,"""Falsch""-Screen",canvas.Screen,3_0_0_0_3_1_2,NA,NA,timeout,4997.158,144643.70000005,144635.601,144652.197,149632.297,149633.20000005,2023-10-17T08:36:39Z,149649.355,NULL,Schönheit,kirembo,s,mahojiano,msisimko,jitihadi,NA,sdf,0,0,NA,NA,NA,NA,NA,NA,NA,NA,NA,NA,NA,NA,NA,NA,NA,NA,NA,NA,NA
e3172,shallow,flow.Sequence,3_0_0_0_3_1,NA,NA,completion,11725.824,137896.4000001,137889.726,137906.473,149632.297,149633.60000014,2023-10-17T08:36:39Z,149649.355,NULL,Schönheit,kirembo,s,mahojiano,msisimko,jitihadi,NA,sdf,NA,0,NA,NA,NA,NA,NA,NA,NA,NA,NA,NA,NA,NA,NA,NA,NA,NA,NA,NA,NA
e3172,task,flow.Sequence,3_0_0_0_3,NA,NA,completion,11725.824,137896.29999995,137889.726,137906.473,149632.297,149633.79999995,2023-10-17T08:36:39Z,149649.355,NULL,Schönheit,kirembo,s,mahojiano,msisimko,jitihadi,NA,sdf,NA,0,NA,NA,NA,NA,NA,NA,NA,NA,NA,NA,NA,NA,NA,NA,NA,NA,NA,NA,NA
e3172,deep,flow.Sequence,3_0_0_0_4_0,NA,NA,skipped,NA,149634.10000014,NA,NA,149632.297,149634.20000005,2023-10-17T08:36:39Z,149649.355,NULL,Theorie,nadharia,s,ushungi,mkutano,uwakilishi,NA,sdf,NA,0,NA,NA,NA,NA,NA,NA,NA,NA,NA,NA,NA,NA,NA,NA,NA,NA,NA,NA,NA
e3172,Shallow Question,html.Page,3_0_0_0_4_1_0,NA,NA,form submission,23136.145,149634.29999995,149632.297,149649.355,172785.5,172785.79999995,2023-10-17T08:37:02Z,172801.376,NULL,Theorie,nadharia,s,ushungi,mkutano,uwakilishi,nadharia,NA,NA,0,NA,NA,NA,NA,NA,NA,NA,NA,NA,NA,NA,NA,NA,NA,NA,NA,NA,NA,NA
e3172,"""Richtig""-Screen",canvas.Screen,3_0_0_0_4_1_1,NA,NA,timeout,4997.377,172789.10000014,172784.837,172801.376,177782.23,177782.60000014,2023-10-17T08:37:07Z,177798.753,NULL,Theorie,nadharia,s,ushungi,mkutano,uwakilishi,NA,sdf,1,0,NA,NA,NA,NA,NA,NA,NA,NA,NA,NA,NA,NA,NA,NA,NA,NA,NA,NA,NA
e3172,"""Falsch""-Screen",canvas.Screen,3_0_0_0_4_1_2,NA,NA,skipped,NA,177784.70000005,NA,NA,177782.23,177784.79999995,2023-10-17T08:37:07Z,177798.753,NULL,Theorie,nadharia,s,ushungi,mkutano,uwakilishi,NA,sdf,NA,0,NA,NA,NA,NA,NA,NA,NA,NA,NA,NA,NA,NA,NA,NA,NA,NA,NA,NA,NA
e3172,shallow,flow.Sequence,3_0_0_0_4_1,NA,NA,completion,28132.875,149634.29999995,149632.297,149649.355,177782.23,177784.9000001,2023-10-17T08:37:07Z,177798.753,NULL,Theorie,nadharia,s,ushungi,mkutano,uwakilishi,NA,sdf,NA,0,NA,NA,NA,NA,NA,NA,NA,NA,NA,NA,NA,NA,NA,NA,NA,NA,NA,NA,NA
e3172,task,flow.Sequence,3_0_0_0_4,NA,NA,completion,28132.875,149634,149632.297,149649.355,177782.23,177785.5,2023-10-17T08:37:07Z,177798.753,NULL,Theorie,nadharia,s,ushungi,mkutano,uwakilishi,NA,sdf,NA,0,NA,NA,NA,NA,NA,NA,NA,NA,NA,NA,NA,NA,NA,NA,NA,NA,NA,NA,NA
e3172,Deep Question,html.Page,3_0_0_0_5_0_0,NA,NA,form submission,6960.247,177785.70000005,177782.23,177798.753,184759,184759.10000014,2023-10-17T08:37:14Z,184760.749,NULL,Verpackung,ufungaji,d,NA,NA,NA,kuq,NA,NA,0,NA,NA,NA,NA,NA,NA,NA,NA,NA,NA,NA,NA,NA,NA,NA,NA,NA,NA,NA
e3172,"""Richtig""-Screen",canvas.Screen,3_0_0_0_5_0_1,NA,NA,skipped,NA,184762.20000005,NA,NA,184759,184762.4000001,2023-10-17T08:37:14Z,184760.749,NULL,Verpackung,ufungaji,d,NA,NA,NA,NA,sdf,NA,0,NA,NA,NA,NA,NA,NA,NA,NA,NA,NA,NA,NA,NA,NA,NA,NA,NA,NA,NA
e3172,"""Falsch""-Screen",canvas.Screen,3_0_0_0_5_0_2,NA,NA,timeout,4997.391,184763.20000005,184744.409,184760.749,189741.097,189742.10000014,2023-10-17T08:37:19Z,189758.14,NULL,Verpackung,ufungaji,d,NA,NA,NA,NA,sdf,0,0,NA,NA,NA,NA,NA,NA,NA,NA,NA,NA,NA,NA,NA,NA,NA,NA,NA,NA,NA
e3172,deep,flow.Sequence,3_0_0_0_5_0,NA,NA,completion,11942.344,177785.70000005,177782.23,177798.753,189741.097,189742.5,2023-10-17T08:37:19Z,189758.14,NULL,Verpackung,ufungaji,d,NA,NA,NA,NA,sdf,NA,0,NA,NA,NA,NA,NA,NA,NA,NA,NA,NA,NA,NA,NA,NA,NA,NA,NA,NA,NA
e3172,shallow,flow.Sequence,3_0_0_0_5_1,NA,NA,skipped,NA,189742.70000005,NA,NA,189741.097,189742.79999995,2023-10-17T08:37:19Z,189758.14,NULL,Verpackung,ufungaji,d,NA,NA,NA,NA,sdf,NA,0,NA,NA,NA,NA,NA,NA,NA,NA,NA,NA,NA,NA,NA,NA,NA,NA,NA,NA,NA
e3172,task,flow.Sequence,3_0_0_0_5,NA,NA,completion,11942.344,177785.60000014,177782.23,177798.753,189741.097,189743,2023-10-17T08:37:19Z,189758.14,NULL,Verpackung,ufungaji,d,NA,NA,NA,NA,sdf,NA,0,NA,NA,NA,NA,NA,NA,NA,NA,NA,NA,NA,NA,NA,NA,NA,NA,NA,NA,NA
e3172,Deep Question,html.Page,3_0_0_0_6_0_0,NA,NA,form submission,3755.5600000477,189743.20000005,189741.097,189758.14,193513.70000005,193513.9000001,2023-10-17T08:37:23Z,193522.011,NULL,Auftrag,uagizaji,d,NA,NA,NA,l,NA,NA,0,NA,NA,NA,NA,NA,NA,NA,NA,NA,NA,NA,NA,NA,NA,NA,NA,NA,NA,NA
e3172,"""Richtig""-Screen",canvas.Screen,3_0_0_0_6_0_1,NA,NA,skipped,NA,193516.5,NA,NA,193513.70000005,193516.70000005,2023-10-17T08:37:23Z,193522.011,NULL,Auftrag,uagizaji,d,NA,NA,NA,NA,sdf,NA,0,NA,NA,NA,NA,NA,NA,NA,NA,NA,NA,NA,NA,NA,NA,NA,NA,NA,NA,NA
e3172,"""Falsch""-Screen",canvas.Screen,3_0_0_0_6_0_2,NA,NA,timeout,4997.363,193517.5,193505.727,193522.011,198502.518,198503.4000001,2023-10-17T08:37:28Z,198519.374,NULL,Auftrag,uagizaji,d,NA,NA,NA,NA,sdf,0,0,NA,NA,NA,NA,NA,NA,NA,NA,NA,NA,NA,NA,NA,NA,NA,NA,NA,NA,NA
e3172,deep,flow.Sequence,3_0_0_0_6_0,NA,NA,completion,8744.378,189743.20000005,189741.097,189758.14,198502.518,198503.79999995,2023-10-17T08:37:28Z,198519.374,NULL,Auftrag,uagizaji,d,NA,NA,NA,NA,sdf,NA,0,NA,NA,NA,NA,NA,NA,NA,NA,NA,NA,NA,NA,NA,NA,NA,NA,NA,NA,NA
e3172,shallow,flow.Sequence,3_0_0_0_6_1,NA,NA,skipped,NA,198504,NA,NA,198502.518,198504.20000005,2023-10-17T08:37:28Z,198519.374,NULL,Auftrag,uagizaji,d,NA,NA,NA,NA,sdf,NA,0,NA,NA,NA,NA,NA,NA,NA,NA,NA,NA,NA,NA,NA,NA,NA,NA,NA,NA,NA
e3172,task,flow.Sequence,3_0_0_0_6,NA,NA,completion,8744.378,189743.10000014,189741.097,189758.14,198502.518,198504.4000001,2023-10-17T08:37:28Z,198519.374,NULL,Auftrag,uagizaji,d,NA,NA,NA,NA,sdf,NA,0,NA,NA,NA,NA,NA,NA,NA,NA,NA,NA,NA,NA,NA,NA,NA,NA,NA,NA,NA
e3172,Deep Question,html.Page,3_0_0_0_7_0_0,NA,NA,form submission,4102.726000143,198504.60000014,198502.518,198519.374,202622.10000014,202622.29999995,2023-10-17T08:37:32Z,202633.24,NULL,Wettbewerb,ushindani,d,NA,NA,NA,l,NA,NA,0,NA,NA,NA,NA,NA,NA,NA,NA,NA,NA,NA,NA,NA,NA,NA,NA,NA,NA,NA
e3172,"""Richtig""-Screen",canvas.Screen,3_0_0_0_7_0_1,NA,NA,skipped,NA,202625.70000005,NA,NA,202622.10000014,202625.9000001,2023-10-17T08:37:32Z,202633.24,NULL,Wettbewerb,ushindani,d,NA,NA,NA,NA,sdf,NA,0,NA,NA,NA,NA,NA,NA,NA,NA,NA,NA,NA,NA,NA,NA,NA,NA,NA,NA,NA
e3172,"""Falsch""-Screen",canvas.Screen,3_0_0_0_7_0_2,NA,NA,timeout,4997.049,202627,202616.998,202633.24,207613.751,207614.70000005,2023-10-17T08:37:37Z,207630.289,NULL,Wettbewerb,ushindani,d,NA,NA,NA,NA,sdf,0,0,NA,NA,NA,NA,NA,NA,NA,NA,NA,NA,NA,NA,NA,NA,NA,NA,NA,NA,NA
e3172,deep,flow.Sequence,3_0_0_0_7_0,NA,NA,completion,9094.377,198504.5,198502.518,198519.374,207613.751,207615,2023-10-17T08:37:37Z,207630.289,NULL,Wettbewerb,ushindani,d,NA,NA,NA,NA,sdf,NA,0,NA,NA,NA,NA,NA,NA,NA,NA,NA,NA,NA,NA,NA,NA,NA,NA,NA,NA,NA
e3172,shallow,flow.Sequence,3_0_0_0_7_1,NA,NA,skipped,NA,207615.20000005,NA,NA,207613.751,207615.29999995,2023-10-17T08:37:37Z,207630.289,NULL,Wettbewerb,ushindani,d,NA,NA,NA,NA,sdf,NA,0,NA,NA,NA,NA,NA,NA,NA,NA,NA,NA,NA,NA,NA,NA,NA,NA,NA,NA,NA
e3172,task,flow.Sequence,3_0_0_0_7,NA,NA,completion,9094.377,198504.5,198502.518,198519.374,207613.751,207615.60000014,2023-10-17T08:37:37Z,207630.289,NULL,Wettbewerb,ushindani,d,NA,NA,NA,NA,sdf,NA,0,NA,NA,NA,NA,NA,NA,NA,NA,NA,NA,NA,NA,NA,NA,NA,NA,NA,NA,NA
e3172,block,flow.Loop,3_0_0_0,NA,NA,completion,101271.613,106350.4000001,106281.382,106342.138,207613.751,207615.9000001,2023-10-17T08:37:37Z,207630.289,NULL,NA,NA,NA,NA,NA,NA,NA,sdf,NA,0,NA,NA,NA,NA,NA,NA,NA,NA,NA,NA,NA,NA,NA,NA,NA,NA,NA,NA,NA
e3172,weiter,canvas.Screen,3_0_0_1,sdf,keypress(Space),response,2719.211,207616,207613.751,207630.289,210349.5,210350.5,2023-10-17T08:37:39Z,210378.352,NULL,NA,NA,NA,NA,NA,NA,NA,sdf,NA,0,NA,NA,NA,NA,NA,NA,NA,NA,NA,NA,NA,NA,NA,NA,NA,NA,NA,NA,NA
e3172,check continue,flow.Sequence,3_0_0,NA,NA,completion,104007.362,106350.4000001,106281.382,106342.138,210349.5,210350.70000005,2023-10-17T08:37:39Z,210378.352,NULL,NA,NA,NA,NA,NA,NA,NA,sdf,NA,0,NA,NA,NA,NA,NA,NA,NA,NA,NA,NA,NA,NA,NA,NA,NA,NA,NA,NA,NA
e3172,Deep Question,html.Page,3_0_1_0_0_0_0,NA,NA,form submission,5149.648,210375.79999995,210364.118,210378.352,215528,215528.29999995,2023-10-17T08:37:45Z,215541.853,NULL,Verpackung,ufungaji,d,NA,NA,NA,k,NA,NA,1,NA,NA,NA,NA,NA,NA,NA,NA,NA,NA,NA,NA,NA,NA,NA,NA,NA,NA,NA
e3172,"""Richtig""-Screen",canvas.Screen,3_0_1_0_0_0_1,NA,NA,skipped,NA,215531.29999995,NA,NA,215528,215531.60000014,2023-10-17T08:37:45Z,215541.853,NULL,Verpackung,ufungaji,d,NA,NA,NA,NA,sdfdsf,NA,1,NA,NA,NA,NA,NA,NA,NA,NA,NA,NA,NA,NA,NA,NA,NA,NA,NA,NA,NA
e3172,"""Falsch""-Screen",canvas.Screen,3_0_1_0_0_0_2,NA,NA,timeout,4997.083,215532.5,215525.388,215541.853,220522.414,220523.10000014,2023-10-17T08:37:50Z,220538.936,NULL,Verpackung,ufungaji,d,NA,NA,NA,NA,sdfdsf,0,1,NA,NA,NA,NA,NA,NA,NA,NA,NA,NA,NA,NA,NA,NA,NA,NA,NA,NA,NA
e3172,deep,flow.Sequence,3_0_1_0_0_0,NA,NA,completion,10144.062,210375.70000005,210364.118,210378.352,220522.414,220523.60000014,2023-10-17T08:37:50Z,220538.936,NULL,Verpackung,ufungaji,d,NA,NA,NA,NA,sdfdsf,NA,1,NA,NA,NA,NA,NA,NA,NA,NA,NA,NA,NA,NA,NA,NA,NA,NA,NA,NA,NA
e3172,shallow,flow.Sequence,3_0_1_0_0_1,NA,NA,skipped,NA,220523.70000005,NA,NA,220522.414,220523.79999995,2023-10-17T08:37:50Z,220538.936,NULL,Verpackung,ufungaji,d,NA,NA,NA,NA,sdfdsf,NA,1,NA,NA,NA,NA,NA,NA,NA,NA,NA,NA,NA,NA,NA,NA,NA,NA,NA,NA,NA
e3172,task,flow.Sequence,3_0_1_0_0,NA,NA,completion,10144.062,210375.70000005,210364.118,210378.352,220522.414,220524,2023-10-17T08:37:50Z,220538.936,NULL,Verpackung,ufungaji,d,NA,NA,NA,NA,sdfdsf,NA,1,NA,NA,NA,NA,NA,NA,NA,NA,NA,NA,NA,NA,NA,NA,NA,NA,NA,NA,NA
e3172,deep,flow.Sequence,3_0_1_0_1_0,NA,NA,skipped,NA,220524.20000005,NA,NA,220522.414,220524.29999995,2023-10-17T08:37:50Z,220538.936,NULL,Schock,mshtuko,s,biashara,kukataza,vichekesho,NA,sdfdsf,NA,1,NA,NA,NA,NA,NA,NA,NA,NA,NA,NA,NA,NA,NA,NA,NA,NA,NA,NA,NA
e3172,Shallow Question,html.Page,3_0_1_0_1_1_0,NA,NA,form submission,7312.2640000477,220524.4000001,220522.414,220538.936,227851.20000005,227851.4000001,2023-10-17T08:37:57Z,227868.09,NULL,Schock,mshtuko,s,biashara,kukataza,vichekesho,mshtuko,NA,NA,1,NA,NA,NA,NA,NA,NA,NA,NA,NA,NA,NA,NA,NA,NA,NA,NA,NA,NA,NA
e3172,"""Richtig""-Screen",canvas.Screen,3_0_1_0_1_1_1,NA,NA,timeout,4996.815,227854.5,227834.694,227868.09,232848.304,232849.60000014,2023-10-17T08:38:02Z,232864.905,NULL,Schock,mshtuko,s,biashara,kukataza,vichekesho,NA,sdfdsf,1,1,NA,NA,NA,NA,NA,NA,NA,NA,NA,NA,NA,NA,NA,NA,NA,NA,NA,NA,NA
e3172,"""Falsch""-Screen",canvas.Screen,3_0_1_0_1_1_2,NA,NA,skipped,NA,232853.9000001,NA,NA,232848.304,232854,2023-10-17T08:38:02Z,232864.905,NULL,Schock,mshtuko,s,biashara,kukataza,vichekesho,NA,sdfdsf,NA,1,NA,NA,NA,NA,NA,NA,NA,NA,NA,NA,NA,NA,NA,NA,NA,NA,NA,NA,NA
e3172,shallow,flow.Sequence,3_0_1_0_1_1,NA,NA,completion,12309.368,220524.4000001,220522.414,220538.936,232848.304,232854.20000005,2023-10-17T08:38:02Z,232864.905,NULL,Schock,mshtuko,s,biashara,kukataza,vichekesho,NA,sdfdsf,NA,1,NA,NA,NA,NA,NA,NA,NA,NA,NA,NA,NA,NA,NA,NA,NA,NA,NA,NA,NA
e3172,task,flow.Sequence,3_0_1_0_1,NA,NA,completion,12309.368,220524.10000014,220522.414,220538.936,232848.304,232854.20000005,2023-10-17T08:38:02Z,232864.905,NULL,Schock,mshtuko,s,biashara,kukataza,vichekesho,NA,sdfdsf,NA,1,NA,NA,NA,NA,NA,NA,NA,NA,NA,NA,NA,NA,NA,NA,NA,NA,NA,NA,NA
e3172,Deep Question,html.Page,3_0_1_0_2_0_0,NA,NA,form submission,3708.3949999523,232854.20000005,232848.304,232864.905,236573.29999995,236573.5,2023-10-17T08:38:06Z,236578.955,NULL,Hoffnung,matarajio,d,NA,NA,NA,l,NA,NA,1,NA,NA,NA,NA,NA,NA,NA,NA,NA,NA,NA,NA,NA,NA,NA,NA,NA,NA,NA
e3172,"""Richtig""-Screen",canvas.Screen,3_0_1_0_2_0_1,NA,NA,skipped,NA,236576.5,NA,NA,236573.29999995,236576.60000014,2023-10-17T08:38:06Z,236578.955,NULL,Hoffnung,matarajio,d,NA,NA,NA,NA,sdfdsf,NA,1,NA,NA,NA,NA,NA,NA,NA,NA,NA,NA,NA,NA,NA,NA,NA,NA,NA,NA,NA
e3172,"""Falsch""-Screen",canvas.Screen,3_0_1_0_2_0_2,NA,NA,timeout,4996.935,236577.5,236562.999,236578.955,241559.67,241560.60000014,2023-10-17T08:38:11Z,241575.89,NULL,Hoffnung,matarajio,d,NA,NA,NA,NA,sdfdsf,0,1,NA,NA,NA,NA,NA,NA,NA,NA,NA,NA,NA,NA,NA,NA,NA,NA,NA,NA,NA
e3172,deep,flow.Sequence,3_0_1_0_2_0,NA,NA,completion,8694.765,232854.20000005,232848.304,232864.905,241559.67,241560.9000001,2023-10-17T08:38:11Z,241575.89,NULL,Hoffnung,matarajio,d,NA,NA,NA,NA,sdfdsf,NA,1,NA,NA,NA,NA,NA,NA,NA,NA,NA,NA,NA,NA,NA,NA,NA,NA,NA,NA,NA
e3172,shallow,flow.Sequence,3_0_1_0_2_1,NA,NA,skipped,NA,241561.10000014,NA,NA,241559.67,241561.29999995,2023-10-17T08:38:11Z,241575.89,NULL,Hoffnung,matarajio,d,NA,NA,NA,NA,sdfdsf,NA,1,NA,NA,NA,NA,NA,NA,NA,NA,NA,NA,NA,NA,NA,NA,NA,NA,NA,NA,NA
e3172,task,flow.Sequence,3_0_1_0_2,NA,NA,completion,8694.765,232854.20000005,232848.304,232864.905,241559.67,241561.5,2023-10-17T08:38:11Z,241575.89,NULL,Hoffnung,matarajio,d,NA,NA,NA,NA,sdfdsf,NA,1,NA,NA,NA,NA,NA,NA,NA,NA,NA,NA,NA,NA,NA,NA,NA,NA,NA,NA,NA
e3172,deep,flow.Sequence,3_0_1_0_3_0,NA,NA,skipped,NA,241561.70000005,NA,NA,241559.67,241561.79999995,2023-10-17T08:38:11Z,241575.89,NULL,Schönheit,kirembo,s,mahojiano,msisimko,jitihadi,NA,sdfdsf,NA,1,NA,NA,NA,NA,NA,NA,NA,NA,NA,NA,NA,NA,NA,NA,NA,NA,NA,NA,NA
e3172,Shallow Question,html.Page,3_0_1_0_3_1_0,NA,NA,form submission,14193.409999952,241562,241559.67,241575.89,255769.29999995,255769.60000014,2023-10-17T08:38:25Z,255784.192,NULL,Schönheit,kirembo,s,mahojiano,msisimko,jitihadi,kirembo,NA,NA,1,NA,NA,NA,NA,NA,NA,NA,NA,NA,NA,NA,NA,NA,NA,NA,NA,NA,NA,NA
e3172,"""Richtig""-Screen",canvas.Screen,3_0_1_0_3_1_1,NA,NA,timeout,4996.997,255773,255767.816,255784.192,260764.336,260765.29999995,2023-10-17T08:38:30Z,260781.189,NULL,Schönheit,kirembo,s,mahojiano,msisimko,jitihadi,NA,sdfdsf,1,1,NA,NA,NA,NA,NA,NA,NA,NA,NA,NA,NA,NA,NA,NA,NA,NA,NA,NA,NA
e3172,"""Falsch""-Screen",canvas.Screen,3_0_1_0_3_1_2,NA,NA,skipped,NA,260770.4000001,NA,NA,260764.336,260770.5,2023-10-17T08:38:30Z,260781.189,NULL,Schönheit,kirembo,s,mahojiano,msisimko,jitihadi,NA,sdfdsf,NA,1,NA,NA,NA,NA,NA,NA,NA,NA,NA,NA,NA,NA,NA,NA,NA,NA,NA,NA,NA
e3172,shallow,flow.Sequence,3_0_1_0_3_1,NA,NA,completion,19188.446,241561.9000001,241559.67,241575.89,260764.336,260770.60000014,2023-10-17T08:38:30Z,260781.189,NULL,Schönheit,kirembo,s,mahojiano,msisimko,jitihadi,NA,sdfdsf,NA,1,NA,NA,NA,NA,NA,NA,NA,NA,NA,NA,NA,NA,NA,NA,NA,NA,NA,NA,NA
e3172,task,flow.Sequence,3_0_1_0_3,NA,NA,completion,19188.446,241561.70000005,241559.67,241575.89,260764.336,260770.70000005,2023-10-17T08:38:30Z,260781.189,NULL,Schönheit,kirembo,s,mahojiano,msisimko,jitihadi,NA,sdfdsf,NA,1,NA,NA,NA,NA,NA,NA,NA,NA,NA,NA,NA,NA,NA,NA,NA,NA,NA,NA,NA
e3172,Deep Question,html.Page,3_0_1_0_4_0_0,NA,NA,form submission,7065.811,260770.79999995,260764.336,260781.189,267847,267847.29999995,2023-10-17T08:38:37Z,267876.566,NULL,Wettbewerb,ushindani,d,NA,NA,NA,utungaji,NA,NA,1,NA,NA,NA,NA,NA,NA,NA,NA,NA,NA,NA,NA,NA,NA,NA,NA,NA,NA,NA
e3172,"""Richtig""-Screen",canvas.Screen,3_0_1_0_4_0_1,NA,NA,skipped,NA,267850.60000014,NA,NA,267847,267850.79999995,2023-10-17T08:38:37Z,267876.566,NULL,Wettbewerb,ushindani,d,NA,NA,NA,NA,sdfdsf,NA,1,NA,NA,NA,NA,NA,NA,NA,NA,NA,NA,NA,NA,NA,NA,NA,NA,NA,NA,NA
e3172,"""Falsch""-Screen",canvas.Screen,3_0_1_0_4_0_2,NA,NA,timeout,4997.428,267851.4000001,267861.011,267876.566,272857.001,272857.9000001,2023-10-17T08:38:42Z,272873.994,NULL,Wettbewerb,ushindani,d,NA,NA,NA,NA,sdfdsf,0,1,NA,NA,NA,NA,NA,NA,NA,NA,NA,NA,NA,NA,NA,NA,NA,NA,NA,NA,NA
e3172,deep,flow.Sequence,3_0_1_0_4_0,NA,NA,completion,12075.812,260770.79999995,260764.336,260781.189,272857.001,272858.4000001,2023-10-17T08:38:42Z,272873.994,NULL,Wettbewerb,ushindani,d,NA,NA,NA,NA,sdfdsf,NA,1,NA,NA,NA,NA,NA,NA,NA,NA,NA,NA,NA,NA,NA,NA,NA,NA,NA,NA,NA
e3172,shallow,flow.Sequence,3_0_1_0_4_1,NA,NA,skipped,NA,272858.60000014,NA,NA,272857.001,272858.79999995,2023-10-17T08:38:42Z,272873.994,NULL,Wettbewerb,ushindani,d,NA,NA,NA,NA,sdfdsf,NA,1,NA,NA,NA,NA,NA,NA,NA,NA,NA,NA,NA,NA,NA,NA,NA,NA,NA,NA,NA
e3172,task,flow.Sequence,3_0_1_0_4,NA,NA,completion,12075.812,260770.79999995,260764.336,260781.189,272857.001,272859,2023-10-17T08:38:42Z,272873.994,NULL,Wettbewerb,ushindani,d,NA,NA,NA,NA,sdfdsf,NA,1,NA,NA,NA,NA,NA,NA,NA,NA,NA,NA,NA,NA,NA,NA,NA,NA,NA,NA,NA
e3172,deep,flow.Sequence,3_0_1_0_5_0,NA,NA,skipped,NA,272859.20000005,NA,NA,272857.001,272859.4000001,2023-10-17T08:38:42Z,272873.994,NULL,Zufall,kikuti,s,kukosekana,uchoraji,leseni,NA,sdfdsf,NA,1,NA,NA,NA,NA,NA,NA,NA,NA,NA,NA,NA,NA,NA,NA,NA,NA,NA,NA,NA
e3172,Shallow Question,html.Page,3_0_1_0_5_1_0,NA,NA,form submission,7243.4060000954,272859.5,272857.001,272873.994,280117.4000001,280117.60000014,2023-10-17T08:38:49Z,280118.953,NULL,Zufall,kikuti,s,kukosekana,uchoraji,leseni,uchoraji,NA,NA,1,NA,NA,NA,NA,NA,NA,NA,NA,NA,NA,NA,NA,NA,NA,NA,NA,NA,NA,NA
e3172,"""Richtig""-Screen",canvas.Screen,3_0_1_0_5_1_1,NA,NA,skipped,NA,280121,NA,NA,280117.4000001,280121.10000014,2023-10-17T08:38:49Z,280118.953,NULL,Zufall,kikuti,s,kukosekana,uchoraji,leseni,NA,sdfdsf,NA,1,NA,NA,NA,NA,NA,NA,NA,NA,NA,NA,NA,NA,NA,NA,NA,NA,NA,NA,NA
e3172,"""Falsch""-Screen",canvas.Screen,3_0_1_0_5_1_2,NA,NA,timeout,4997.24,280122.4000001,280102.492,280118.953,285099.257,285100.29999995,2023-10-17T08:38:54Z,285116.193,NULL,Zufall,kikuti,s,kukosekana,uchoraji,leseni,NA,sdfdsf,0,1,NA,NA,NA,NA,NA,NA,NA,NA,NA,NA,NA,NA,NA,NA,NA,NA,NA,NA,NA
e3172,shallow,flow.Sequence,3_0_1_0_5_1,NA,NA,completion,12225.263,272859.4000001,272857.001,272873.994,285099.257,285100.79999995,2023-10-17T08:38:54Z,285116.193,NULL,Zufall,kikuti,s,kukosekana,uchoraji,leseni,NA,sdfdsf,NA,1,NA,NA,NA,NA,NA,NA,NA,NA,NA,NA,NA,NA,NA,NA,NA,NA,NA,NA,NA
e3172,task,flow.Sequence,3_0_1_0_5,NA,NA,completion,12225.263,272859.10000014,272857.001,272873.994,285099.257,285101.10000014,2023-10-17T08:38:54Z,285116.193,NULL,Zufall,kikuti,s,kukosekana,uchoraji,leseni,NA,sdfdsf,NA,1,NA,NA,NA,NA,NA,NA,NA,NA,NA,NA,NA,NA,NA,NA,NA,NA,NA,NA,NA
e3172,deep,flow.Sequence,3_0_1_0_6_0,NA,NA,skipped,NA,285101.20000005,NA,NA,285099.257,285101.5,2023-10-17T08:38:54Z,285116.193,NULL,Theorie,nadharia,s,ushungi,mkutano,uwakilishi,NA,sdfdsf,NA,1,NA,NA,NA,NA,NA,NA,NA,NA,NA,NA,NA,NA,NA,NA,NA,NA,NA,NA,NA
e3172,Shallow Question,html.Page,3_0_1_0_6_1_0,NA,NA,form submission,7859.0070000477,285101.70000005,285099.257,285116.193,292975.20000005,292975.5,2023-10-17T08:39:02Z,292977.74,NULL,Theorie,nadharia,s,ushungi,mkutano,uwakilishi,ushungi,NA,NA,1,NA,NA,NA,NA,NA,NA,NA,NA,NA,NA,NA,NA,NA,NA,NA,NA,NA,NA,NA
e3172,"""Richtig""-Screen",canvas.Screen,3_0_1_0_6_1_1,NA,NA,skipped,NA,292978.9000001,NA,NA,292975.20000005,292979.10000014,2023-10-17T08:39:02Z,292977.74,NULL,Theorie,nadharia,s,ushungi,mkutano,uwakilishi,NA,sdfdsf,NA,1,NA,NA,NA,NA,NA,NA,NA,NA,NA,NA,NA,NA,NA,NA,NA,NA,NA,NA,NA
e3172,"""Falsch""-Screen",canvas.Screen,3_0_1_0_6_1_2,NA,NA,timeout,4996.978,292979.70000005,292961.65,292977.74,297958.339,297959.10000014,2023-10-17T08:39:07Z,297974.718,NULL,Theorie,nadharia,s,ushungi,mkutano,uwakilishi,NA,sdfdsf,0,1,NA,NA,NA,NA,NA,NA,NA,NA,NA,NA,NA,NA,NA,NA,NA,NA,NA,NA,NA
e3172,shallow,flow.Sequence,3_0_1_0_6_1,NA,NA,completion,12842.146,285101.60000014,285099.257,285116.193,297958.339,297959.60000014,2023-10-17T08:39:07Z,297974.718,NULL,Theorie,nadharia,s,ushungi,mkutano,uwakilishi,NA,sdfdsf,NA,1,NA,NA,NA,NA,NA,NA,NA,NA,NA,NA,NA,NA,NA,NA,NA,NA,NA,NA,NA
e3172,task,flow.Sequence,3_0_1_0_6,NA,NA,completion,12842.146,285101.20000005,285099.257,285116.193,297958.339,297959.9000001,2023-10-17T08:39:07Z,297974.718,NULL,Theorie,nadharia,s,ushungi,mkutano,uwakilishi,NA,sdfdsf,NA,1,NA,NA,NA,NA,NA,NA,NA,NA,NA,NA,NA,NA,NA,NA,NA,NA,NA,NA,NA
e3172,Deep Question,html.Page,3_0_1_0_7_0_0,NA,NA,form submission,9641.6820000954,297960.10000014,297958.339,297974.718,307616.4000001,307616.70000005,2023-10-17T08:39:17Z,307618.771,NULL,Auftrag,uagizaji,d,NA,NA,NA,ushungaji,NA,NA,1,NA,NA,NA,NA,NA,NA,NA,NA,NA,NA,NA,NA,NA,NA,NA,NA,NA,NA,NA
e3172,"""Richtig""-Screen",canvas.Screen,3_0_1_0_7_0_1,NA,NA,skipped,NA,307619.9000001,NA,NA,307616.4000001,307620,2023-10-17T08:39:17Z,307618.771,NULL,Auftrag,uagizaji,d,NA,NA,NA,NA,sdfdsf,NA,1,NA,NA,NA,NA,NA,NA,NA,NA,NA,NA,NA,NA,NA,NA,NA,NA,NA,NA,NA
e3172,"""Falsch""-Screen",canvas.Screen,3_0_1_0_7_0_2,NA,NA,timeout,4996.948,307620.4000001,307602.321,307618.771,312599.129,312599.9000001,2023-10-17T08:39:22Z,312615.719,NULL,Auftrag,uagizaji,d,NA,NA,NA,NA,sdfdsf,0,1,NA,NA,NA,NA,NA,NA,NA,NA,NA,NA,NA,NA,NA,NA,NA,NA,NA,NA,NA
e3172,deep,flow.Sequence,3_0_1_0_7_0,NA,NA,completion,14624.411,297960.10000014,297958.339,297974.718,312599.129,312600.29999995,2023-10-17T08:39:22Z,312615.719,NULL,Auftrag,uagizaji,d,NA,NA,NA,NA,sdfdsf,NA,1,NA,NA,NA,NA,NA,NA,NA,NA,NA,NA,NA,NA,NA,NA,NA,NA,NA,NA,NA
e3172,shallow,flow.Sequence,3_0_1_0_7_1,NA,NA,skipped,NA,312600.4000001,NA,NA,312599.129,312600.60000014,2023-10-17T08:39:22Z,312615.719,NULL,Auftrag,uagizaji,d,NA,NA,NA,NA,sdfdsf,NA,1,NA,NA,NA,NA,NA,NA,NA,NA,NA,NA,NA,NA,NA,NA,NA,NA,NA,NA,NA
e3172,task,flow.Sequence,3_0_1_0_7,NA,NA,completion,14624.411,297960.10000014,297958.339,297974.718,312599.129,312600.79999995,2023-10-17T08:39:22Z,312615.719,NULL,Auftrag,uagizaji,d,NA,NA,NA,NA,sdfdsf,NA,1,NA,NA,NA,NA,NA,NA,NA,NA,NA,NA,NA,NA,NA,NA,NA,NA,NA,NA,NA
e3172,block,flow.Loop,3_0_1_0,NA,NA,completion,102220.777,210375.70000005,210364.118,210378.352,312599.129,312601,2023-10-17T08:39:22Z,312615.719,NULL,NA,NA,NA,NA,NA,NA,NA,sdfdsf,NA,1,NA,NA,NA,NA,NA,NA,NA,NA,NA,NA,NA,NA,NA,NA,NA,NA,NA,NA,NA
e3172,weiter,canvas.Screen,3_0_1_1,sdf,keypress(Space),response,1195.3810001431,312601.20000005,312599.129,312615.719,313811.10000014,313812,2023-10-17T08:39:23Z,313848.245,NULL,NA,NA,NA,NA,NA,NA,NA,sdfdsf,NA,1,NA,NA,NA,NA,NA,NA,NA,NA,NA,NA,NA,NA,NA,NA,NA,NA,NA,NA,NA
e3172,check continue,flow.Sequence,3_0_1,NA,NA,completion,103432.74800014,210375.70000005,210364.118,210378.352,313811.10000014,313812.4000001,2023-10-17T08:39:23Z,313848.245,NULL,NA,NA,NA,NA,NA,NA,NA,sdfdsf,NA,1,NA,NA,NA,NA,NA,NA,NA,NA,NA,NA,NA,NA,NA,NA,NA,NA,NA,NA,NA
e3172,Deep Question,html.Page,3_0_2_0_0_0_0,NA,NA,form submission,13131.855000143,313845,313830.594,313848.245,326980.10000014,326980.4000001,2023-10-17T08:39:36Z,326990.135,NULL,Hoffnung,matarajio,d,NA,NA,NA,ushungiaji,NA,NA,2,NA,NA,NA,NA,NA,NA,NA,NA,NA,NA,NA,NA,NA,NA,NA,NA,NA,NA,NA
e3172,"""Richtig""-Screen",canvas.Screen,3_0_2_0_0_0_1,NA,NA,skipped,NA,326983.70000005,NA,NA,326980.10000014,326984,2023-10-17T08:39:36Z,326990.135,NULL,Hoffnung,matarajio,d,NA,NA,NA,NA,sdf,NA,2,NA,NA,NA,NA,NA,NA,NA,NA,NA,NA,NA,NA,NA,NA,NA,NA,NA,NA,NA
e3172,"""Falsch""-Screen",canvas.Screen,3_0_2_0_0_0_2,NA,NA,timeout,4997.438,326984.79999995,326973.981,326990.135,331970.798,331971.70000005,2023-10-17T08:39:41Z,331987.573,NULL,Hoffnung,matarajio,d,NA,NA,NA,NA,sdf,0,2,NA,NA,NA,NA,NA,NA,NA,NA,NA,NA,NA,NA,NA,NA,NA,NA,NA,NA,NA
e3172,deep,flow.Sequence,3_0_2_0_0_0,NA,NA,completion,18122.553,313845,313830.594,313848.245,331970.798,331972.10000014,2023-10-17T08:39:41Z,331987.573,NULL,Hoffnung,matarajio,d,NA,NA,NA,NA,sdf,NA,2,NA,NA,NA,NA,NA,NA,NA,NA,NA,NA,NA,NA,NA,NA,NA,NA,NA,NA,NA
e3172,shallow,flow.Sequence,3_0_2_0_0_1,NA,NA,skipped,NA,331972.29999995,NA,NA,331970.798,331972.4000001,2023-10-17T08:39:41Z,331987.573,NULL,Hoffnung,matarajio,d,NA,NA,NA,NA,sdf,NA,2,NA,NA,NA,NA,NA,NA,NA,NA,NA,NA,NA,NA,NA,NA,NA,NA,NA,NA,NA
e3172,task,flow.Sequence,3_0_2_0_0,NA,NA,completion,18122.553,313845,313830.594,313848.245,331970.798,331972.60000014,2023-10-17T08:39:41Z,331987.573,NULL,Hoffnung,matarajio,d,NA,NA,NA,NA,sdf,NA,2,NA,NA,NA,NA,NA,NA,NA,NA,NA,NA,NA,NA,NA,NA,NA,NA,NA,NA,NA
e3172,Deep Question,html.Page,3_0_2_0_1_0_0,NA,NA,form submission,5669.1270000477,331972.79999995,331970.798,331987.573,337656.70000005,337656.9000001,2023-10-17T08:39:47Z,337667.144,NULL,Verpackung,ufungaji,d,NA,NA,NA,ushungiaji,NA,NA,2,NA,NA,NA,NA,NA,NA,NA,NA,NA,NA,NA,NA,NA,NA,NA,NA,NA,NA,NA
e3172,"""Richtig""-Screen",canvas.Screen,3_0_2_0_1_0_1,NA,NA,skipped,NA,337660.10000014,NA,NA,337656.70000005,337660.20000005,2023-10-17T08:39:47Z,337667.144,NULL,Verpackung,ufungaji,d,NA,NA,NA,NA,sdf,NA,2,NA,NA,NA,NA,NA,NA,NA,NA,NA,NA,NA,NA,NA,NA,NA,NA,NA,NA,NA
e3172,"""Falsch""-Screen",canvas.Screen,3_0_2_0_1_0_2,NA,NA,timeout,4996.997,337661.10000014,337650.614,337667.144,342647.575,342648.5,2023-10-17T08:39:52Z,342664.141,NULL,Verpackung,ufungaji,d,NA,NA,NA,NA,sdf,0,2,NA,NA,NA,NA,NA,NA,NA,NA,NA,NA,NA,NA,NA,NA,NA,NA,NA,NA,NA
e3172,deep,flow.Sequence,3_0_2_0_1_0,NA,NA,completion,10660.002,331972.79999995,331970.798,331987.573,342647.575,342648.79999995,2023-10-17T08:39:52Z,342664.141,NULL,Verpackung,ufungaji,d,NA,NA,NA,NA,sdf,NA,2,NA,NA,NA,NA,NA,NA,NA,NA,NA,NA,NA,NA,NA,NA,NA,NA,NA,NA,NA
e3172,shallow,flow.Sequence,3_0_2_0_1_1,NA,NA,skipped,NA,342649,NA,NA,342647.575,342649.20000005,2023-10-17T08:39:52Z,342664.141,NULL,Verpackung,ufungaji,d,NA,NA,NA,NA,sdf,NA,2,NA,NA,NA,NA,NA,NA,NA,NA,NA,NA,NA,NA,NA,NA,NA,NA,NA,NA,NA
e3172,task,flow.Sequence,3_0_2_0_1,NA,NA,completion,10660.002,331972.70000005,331970.798,331987.573,342647.575,342649.4000001,2023-10-17T08:39:52Z,342664.141,NULL,Verpackung,ufungaji,d,NA,NA,NA,NA,sdf,NA,2,NA,NA,NA,NA,NA,NA,NA,NA,NA,NA,NA,NA,NA,NA,NA,NA,NA,NA,NA
e3172,deep,flow.Sequence,3_0_2_0_2_0,NA,NA,skipped,NA,342649.5,NA,NA,342647.575,342649.70000005,2023-10-17T08:39:52Z,342664.141,NULL,Schock,mshtuko,s,biashara,kukataza,vichekesho,NA,sdf,NA,2,NA,NA,NA,NA,NA,NA,NA,NA,NA,NA,NA,NA,NA,NA,NA,NA,NA,NA,NA
e3172,Shallow Question,html.Page,3_0_2_0_2_1_0,NA,NA,form submission,4264.6589999523,342649.79999995,342647.575,342664.141,346928.79999995,346929,2023-10-17T08:39:56Z,346961.858,NULL,Schock,mshtuko,s,biashara,kukataza,vichekesho,mshtuko,NA,NA,2,NA,NA,NA,NA,NA,NA,NA,NA,NA,NA,NA,NA,NA,NA,NA,NA,NA,NA,NA
e3172,"""Richtig""-Screen",canvas.Screen,3_0_2_0_2_1_1,NA,NA,timeout,4996.805,346932.10000014,346945.254,346961.858,351941.64,351942.70000005,2023-10-17T08:40:01Z,351958.663,NULL,Schock,mshtuko,s,biashara,kukataza,vichekesho,NA,sdf,1,2,NA,NA,NA,NA,NA,NA,NA,NA,NA,NA,NA,NA,NA,NA,NA,NA,NA,NA,NA
e3172,"""Falsch""-Screen",canvas.Screen,3_0_2_0_2_1_2,NA,NA,skipped,NA,351947.9000001,NA,NA,351941.64,351948,2023-10-17T08:40:01Z,351958.663,NULL,Schock,mshtuko,s,biashara,kukataza,vichekesho,NA,sdf,NA,2,NA,NA,NA,NA,NA,NA,NA,NA,NA,NA,NA,NA,NA,NA,NA,NA,NA,NA,NA
e3172,shallow,flow.Sequence,3_0_2_0_2_1,NA,NA,completion,9277.499,342649.79999995,342647.575,342664.141,351941.64,351948.10000014,2023-10-17T08:40:01Z,351958.663,NULL,Schock,mshtuko,s,biashara,kukataza,vichekesho,NA,sdf,NA,2,NA,NA,NA,NA,NA,NA,NA,NA,NA,NA,NA,NA,NA,NA,NA,NA,NA,NA,NA
e3172,task,flow.Sequence,3_0_2_0_2,NA,NA,completion,9277.499,342649.5,342647.575,342664.141,351941.64,351948.20000005,2023-10-17T08:40:01Z,351958.663,NULL,Schock,mshtuko,s,biashara,kukataza,vichekesho,NA,sdf,NA,2,NA,NA,NA,NA,NA,NA,NA,NA,NA,NA,NA,NA,NA,NA,NA,NA,NA,NA,NA
e3172,deep,flow.Sequence,3_0_2_0_3_0,NA,NA,skipped,NA,351948.20000005,NA,NA,351941.64,351948.20000005,2023-10-17T08:40:01Z,351958.663,NULL,Theorie,nadharia,s,ushungi,mkutano,uwakilishi,NA,sdf,NA,2,NA,NA,NA,NA,NA,NA,NA,NA,NA,NA,NA,NA,NA,NA,NA,NA,NA,NA,NA
e3172,Shallow Question,html.Page,3_0_2_0_3_1_0,NA,NA,form submission,3450.1369999523,351948.29999995,351941.64,351958.663,355408.79999995,355409.10000014,2023-10-17T08:40:05Z,355423.251,NULL,Theorie,nadharia,s,ushungi,mkutano,uwakilishi,nadharia,NA,NA,2,NA,NA,NA,NA,NA,NA,NA,NA,NA,NA,NA,NA,NA,NA,NA,NA,NA,NA,NA
e3172,"""Richtig""-Screen",canvas.Screen,3_0_2_0_3_1_1,NA,NA,timeout,4997,355412.10000014,355406.536,355423.251,360403.6,360404.5,2023-10-17T08:40:10Z,360420.251,NULL,Theorie,nadharia,s,ushungi,mkutano,uwakilishi,NA,sdf,1,2,NA,NA,NA,NA,NA,NA,NA,NA,NA,NA,NA,NA,NA,NA,NA,NA,NA,NA,NA
e3172,"""Falsch""-Screen",canvas.Screen,3_0_2_0_3_1_2,NA,NA,skipped,NA,360409.79999995,NA,NA,360403.6,360409.9000001,2023-10-17T08:40:10Z,360420.251,NULL,Theorie,nadharia,s,ushungi,mkutano,uwakilishi,NA,sdf,NA,2,NA,NA,NA,NA,NA,NA,NA,NA,NA,NA,NA,NA,NA,NA,NA,NA,NA,NA,NA
e3172,shallow,flow.Sequence,3_0_2_0_3_1,NA,NA,completion,8444.937,351948.29999995,351941.64,351958.663,360403.6,360410,2023-10-17T08:40:10Z,360420.251,NULL,Theorie,nadharia,s,ushungi,mkutano,uwakilishi,NA,sdf,NA,2,NA,NA,NA,NA,NA,NA,NA,NA,NA,NA,NA,NA,NA,NA,NA,NA,NA,NA,NA
e3172,task,flow.Sequence,3_0_2_0_3,NA,NA,completion,8444.937,351948.20000005,351941.64,351958.663,360403.6,360410.10000014,2023-10-17T08:40:10Z,360420.251,NULL,Theorie,nadharia,s,ushungi,mkutano,uwakilishi,NA,sdf,NA,2,NA,NA,NA,NA,NA,NA,NA,NA,NA,NA,NA,NA,NA,NA,NA,NA,NA,NA,NA
e3172,Deep Question,html.Page,3_0_2_0_4_0_0,NA,NA,form submission,9478.5489999523,360410.10000014,360403.6,360420.251,369898.79999995,369899.10000014,2023-10-17T08:40:19Z,369914.222,NULL,Auftrag,uagizaji,d,NA,NA,NA,l,NA,NA,2,NA,NA,NA,NA,NA,NA,NA,NA,NA,NA,NA,NA,NA,NA,NA,NA,NA,NA,NA
e3172,"""Richtig""-Screen",canvas.Screen,3_0_2_0_4_0_1,NA,NA,skipped,NA,369902.29999995,NA,NA,369898.79999995,369902.4000001,2023-10-17T08:40:19Z,369914.222,NULL,Auftrag,uagizaji,d,NA,NA,NA,NA,sdf,NA,2,NA,NA,NA,NA,NA,NA,NA,NA,NA,NA,NA,NA,NA,NA,NA,NA,NA,NA,NA
e3172,"""Falsch""-Screen",canvas.Screen,3_0_2_0_4_0_2,NA,NA,timeout,4997.048,369903.29999995,369897.239,369914.222,374894.412,374895.4000001,2023-10-17T08:40:24Z,374911.27,NULL,Auftrag,uagizaji,d,NA,NA,NA,NA,sdf,0,2,NA,NA,NA,NA,NA,NA,NA,NA,NA,NA,NA,NA,NA,NA,NA,NA,NA,NA,NA
e3172,deep,flow.Sequence,3_0_2_0_4_0,NA,NA,completion,14474.161,360410.10000014,360403.6,360420.251,374894.412,374895.79999995,2023-10-17T08:40:24Z,374911.27,NULL,Auftrag,uagizaji,d,NA,NA,NA,NA,sdf,NA,2,NA,NA,NA,NA,NA,NA,NA,NA,NA,NA,NA,NA,NA,NA,NA,NA,NA,NA,NA
e3172,shallow,flow.Sequence,3_0_2_0_4_1,NA,NA,skipped,NA,374895.9000001,NA,NA,374894.412,374896,2023-10-17T08:40:24Z,374911.27,NULL,Auftrag,uagizaji,d,NA,NA,NA,NA,sdf,NA,2,NA,NA,NA,NA,NA,NA,NA,NA,NA,NA,NA,NA,NA,NA,NA,NA,NA,NA,NA
e3172,task,flow.Sequence,3_0_2_0_4,NA,NA,completion,14474.161,360410.10000014,360403.6,360420.251,374894.412,374896.29999995,2023-10-17T08:40:24Z,374911.27,NULL,Auftrag,uagizaji,d,NA,NA,NA,NA,sdf,NA,2,NA,NA,NA,NA,NA,NA,NA,NA,NA,NA,NA,NA,NA,NA,NA,NA,NA,NA,NA
e3172,deep,flow.Sequence,3_0_2_0_5_0,NA,NA,skipped,NA,374896.5,NA,NA,374894.412,374896.60000014,2023-10-17T08:40:24Z,374911.27,NULL,Zufall,kikuti,s,kukosekana,uchoraji,leseni,NA,sdf,NA,2,NA,NA,NA,NA,NA,NA,NA,NA,NA,NA,NA,NA,NA,NA,NA,NA,NA,NA,NA
e3172,Shallow Question,html.Page,3_0_2_0_5_1_0,NA,NA,form submission,4623.830000143,374896.79999995,374894.412,374911.27,379535.10000014,379535.4000001,2023-10-17T08:40:29Z,379541.28,NULL,Zufall,kikuti,s,kukosekana,uchoraji,leseni,kikuti,NA,NA,2,NA,NA,NA,NA,NA,NA,NA,NA,NA,NA,NA,NA,NA,NA,NA,NA,NA,NA,NA
e3172,"""Richtig""-Screen",canvas.Screen,3_0_2_0_5_1_1,NA,NA,timeout,4997.46,379538.5,379524.945,379541.28,384522.118,384523.10000014,2023-10-17T08:40:34Z,384538.74,NULL,Zufall,kikuti,s,kukosekana,uchoraji,leseni,NA,sdf,1,2,NA,NA,NA,NA,NA,NA,NA,NA,NA,NA,NA,NA,NA,NA,NA,NA,NA,NA,NA
e3172,"""Falsch""-Screen",canvas.Screen,3_0_2_0_5_1_2,NA,NA,skipped,NA,384528.4000001,NA,NA,384522.118,384528.60000014,2023-10-17T08:40:34Z,384538.74,NULL,Zufall,kikuti,s,kukosekana,uchoraji,leseni,NA,sdf,NA,2,NA,NA,NA,NA,NA,NA,NA,NA,NA,NA,NA,NA,NA,NA,NA,NA,NA,NA,NA
e3172,shallow,flow.Sequence,3_0_2_0_5_1,NA,NA,completion,9610.848,374896.70000005,374894.412,374911.27,384522.118,384528.70000005,2023-10-17T08:40:34Z,384538.74,NULL,Zufall,kikuti,s,kukosekana,uchoraji,leseni,NA,sdf,NA,2,NA,NA,NA,NA,NA,NA,NA,NA,NA,NA,NA,NA,NA,NA,NA,NA,NA,NA,NA
e3172,task,flow.Sequence,3_0_2_0_5,NA,NA,completion,9610.848,374896.4000001,374894.412,374911.27,384522.118,384528.79999995,2023-10-17T08:40:34Z,384538.74,NULL,Zufall,kikuti,s,kukosekana,uchoraji,leseni,NA,sdf,NA,2,NA,NA,NA,NA,NA,NA,NA,NA,NA,NA,NA,NA,NA,NA,NA,NA,NA,NA,NA
e3172,deep,flow.Sequence,3_0_2_0_6_0,NA,NA,skipped,NA,384528.79999995,NA,NA,384522.118,384528.79999995,2023-10-17T08:40:34Z,384538.74,NULL,Schönheit,kirembo,s,mahojiano,msisimko,jitihadi,NA,sdf,NA,2,NA,NA,NA,NA,NA,NA,NA,NA,NA,NA,NA,NA,NA,NA,NA,NA,NA,NA,NA
e3172,Shallow Question,html.Page,3_0_2_0_6_1_0,NA,NA,form submission,6342.1600000954,384528.79999995,384522.118,384538.74,390880.9000001,390881.20000005,2023-10-17T08:40:40Z,390884.385,NULL,Schönheit,kirembo,s,mahojiano,msisimko,jitihadi,kirembo,NA,NA,2,NA,NA,NA,NA,NA,NA,NA,NA,NA,NA,NA,NA,NA,NA,NA,NA,NA,NA,NA
e3172,"""Richtig""-Screen",canvas.Screen,3_0_2_0_6_1_1,NA,NA,timeout,4997.313,390884.10000014,390867.875,390884.385,395864.918,395865.20000005,2023-10-17T08:40:45Z,395881.698,NULL,Schönheit,kirembo,s,mahojiano,msisimko,jitihadi,NA,sdf,1,2,NA,NA,NA,NA,NA,NA,NA,NA,NA,NA,NA,NA,NA,NA,NA,NA,NA,NA,NA
e3172,"""Falsch""-Screen",canvas.Screen,3_0_2_0_6_1_2,NA,NA,skipped,NA,395867.10000014,NA,NA,395864.918,395867.20000005,2023-10-17T08:40:45Z,395881.698,NULL,Schönheit,kirembo,s,mahojiano,msisimko,jitihadi,NA,sdf,NA,2,NA,NA,NA,NA,NA,NA,NA,NA,NA,NA,NA,NA,NA,NA,NA,NA,NA,NA,NA
e3172,shallow,flow.Sequence,3_0_2_0_6_1,NA,NA,completion,11326.178,384528.79999995,384522.118,384538.74,395864.918,395867.29999995,2023-10-17T08:40:45Z,395881.698,NULL,Schönheit,kirembo,s,mahojiano,msisimko,jitihadi,NA,sdf,NA,2,NA,NA,NA,NA,NA,NA,NA,NA,NA,NA,NA,NA,NA,NA,NA,NA,NA,NA,NA
e3172,task,flow.Sequence,3_0_2_0_6,NA,NA,completion,11326.178,384528.79999995,384522.118,384538.74,395864.918,395867.4000001,2023-10-17T08:40:45Z,395881.698,NULL,Schönheit,kirembo,s,mahojiano,msisimko,jitihadi,NA,sdf,NA,2,NA,NA,NA,NA,NA,NA,NA,NA,NA,NA,NA,NA,NA,NA,NA,NA,NA,NA,NA
e3172,Deep Question,html.Page,3_0_2_0_7_0_0,NA,NA,form submission,10406.902000143,395867.5,395864.918,395881.698,406288.60000014,406288.79999995,2023-10-17T08:40:55Z,406291.617,NULL,Wettbewerb,ushindani,d,NA,NA,NA,ufungaji,NA,NA,2,NA,NA,NA,NA,NA,NA,NA,NA,NA,NA,NA,NA,NA,NA,NA,NA,NA,NA,NA
e3172,"""Richtig""-Screen",canvas.Screen,3_0_2_0_7_0_1,NA,NA,skipped,NA,406292.10000014,NA,NA,406288.60000014,406292.20000005,2023-10-17T08:40:55Z,406291.617,NULL,Wettbewerb,ushindani,d,NA,NA,NA,NA,sdf,NA,2,NA,NA,NA,NA,NA,NA,NA,NA,NA,NA,NA,NA,NA,NA,NA,NA,NA,NA,NA
e3172,"""Falsch""-Screen",canvas.Screen,3_0_2_0_7_0_2,NA,NA,timeout,4996.908,406293,406275.33,406291.617,411271.942,411272.79999995,2023-10-17T08:41:00Z,411288.525,NULL,Wettbewerb,ushindani,d,NA,NA,NA,NA,sdf,0,2,NA,NA,NA,NA,NA,NA,NA,NA,NA,NA,NA,NA,NA,NA,NA,NA,NA,NA,NA
e3172,deep,flow.Sequence,3_0_2_0_7_0,NA,NA,completion,15390.244,395867.5,395864.918,395881.698,411271.942,411273.10000014,2023-10-17T08:41:00Z,411288.525,NULL,Wettbewerb,ushindani,d,NA,NA,NA,NA,sdf,NA,2,NA,NA,NA,NA,NA,NA,NA,NA,NA,NA,NA,NA,NA,NA,NA,NA,NA,NA,NA
e3172,shallow,flow.Sequence,3_0_2_0_7_1,NA,NA,skipped,NA,411273.29999995,NA,NA,411271.942,411273.4000001,2023-10-17T08:41:00Z,411288.525,NULL,Wettbewerb,ushindani,d,NA,NA,NA,NA,sdf,NA,2,NA,NA,NA,NA,NA,NA,NA,NA,NA,NA,NA,NA,NA,NA,NA,NA,NA,NA,NA
e3172,task,flow.Sequence,3_0_2_0_7,NA,NA,completion,15390.244,395867.5,395864.918,395881.698,411271.942,411273.60000014,2023-10-17T08:41:00Z,411288.525,NULL,Wettbewerb,ushindani,d,NA,NA,NA,NA,sdf,NA,2,NA,NA,NA,NA,NA,NA,NA,NA,NA,NA,NA,NA,NA,NA,NA,NA,NA,NA,NA
e3172,block,flow.Loop,3_0_2_0,NA,NA,completion,97423.697,313845,313830.594,313848.245,411271.942,411273.79999995,2023-10-17T08:41:00Z,411288.525,NULL,NA,NA,NA,NA,NA,NA,NA,sdf,NA,2,NA,NA,NA,NA,NA,NA,NA,NA,NA,NA,NA,NA,NA,NA,NA,NA,NA,NA,NA
e3172,weiter,canvas.Screen,3_0_2_1,sdf,keypress(Space),response,2633.8750000953,411273.9000001,411271.942,411288.525,413922.4000001,413923.4000001,2023-10-17T08:41:03Z,413953.895,NULL,NA,NA,NA,NA,NA,NA,NA,sdf,NA,2,NA,NA,NA,NA,NA,NA,NA,NA,NA,NA,NA,NA,NA,NA,NA,NA,NA,NA,NA
e3172,check continue,flow.Sequence,3_0_2,NA,NA,completion,100074.1550001,313844.9000001,313830.594,313848.245,413922.4000001,413923.70000005,2023-10-17T08:41:03Z,413953.895,NULL,NA,NA,NA,NA,NA,NA,NA,sdf,NA,2,NA,NA,NA,NA,NA,NA,NA,NA,NA,NA,NA,NA,NA,NA,NA,NA,NA,NA,NA
e3172,Deep Question,html.Page,3_0_3_0_0_0_0,NA,NA,form submission,5933.3050000477,413944.29999995,413936.03,413953.895,419887.20000005,419887.5,2023-10-17T08:41:09Z,419900.033,NULL,Auftrag,uagizaji,d,NA,NA,NA,ufungaji,NA,NA,3,NA,NA,NA,NA,NA,NA,NA,NA,NA,NA,NA,NA,NA,NA,NA,NA,NA,NA,NA
e3172,"""Richtig""-Screen",canvas.Screen,3_0_3_0_0_0_1,NA,NA,skipped,NA,419890.60000014,NA,NA,419887.20000005,419890.79999995,2023-10-17T08:41:09Z,419900.033,NULL,Auftrag,uagizaji,d,NA,NA,NA,NA,qt,NA,3,NA,NA,NA,NA,NA,NA,NA,NA,NA,NA,NA,NA,NA,NA,NA,NA,NA,NA,NA
e3172,"""Falsch""-Screen",canvas.Screen,3_0_3_0_0_0_2,NA,NA,timeout,4997.244,419891.5,419883.44,419900.033,424880.562,424881.4000001,2023-10-17T08:41:14Z,424897.277,NULL,Auftrag,uagizaji,d,NA,NA,NA,NA,qt,0,3,NA,NA,NA,NA,NA,NA,NA,NA,NA,NA,NA,NA,NA,NA,NA,NA,NA,NA,NA
e3172,deep,flow.Sequence,3_0_3_0_0_0,NA,NA,completion,10926.667,413944.29999995,413936.03,413953.895,424880.562,424881.9000001,2023-10-17T08:41:14Z,424897.277,NULL,Auftrag,uagizaji,d,NA,NA,NA,NA,qt,NA,3,NA,NA,NA,NA,NA,NA,NA,NA,NA,NA,NA,NA,NA,NA,NA,NA,NA,NA,NA
e3172,shallow,flow.Sequence,3_0_3_0_0_1,NA,NA,skipped,NA,424882,NA,NA,424880.562,424882.20000005,2023-10-17T08:41:14Z,424897.277,NULL,Auftrag,uagizaji,d,NA,NA,NA,NA,qt,NA,3,NA,NA,NA,NA,NA,NA,NA,NA,NA,NA,NA,NA,NA,NA,NA,NA,NA,NA,NA
e3172,task,flow.Sequence,3_0_3_0_0,NA,NA,completion,10926.667,413944.29999995,413936.03,413953.895,424880.562,424882.5,2023-10-17T08:41:14Z,424897.277,NULL,Auftrag,uagizaji,d,NA,NA,NA,NA,qt,NA,3,NA,NA,NA,NA,NA,NA,NA,NA,NA,NA,NA,NA,NA,NA,NA,NA,NA,NA,NA
e3172,deep,flow.Sequence,3_0_3_0_1_0,NA,NA,skipped,NA,424882.70000005,NA,NA,424880.562,424882.70000005,2023-10-17T08:41:14Z,424897.277,NULL,Schock,mshtuko,s,biashara,kukataza,vichekesho,NA,qt,NA,3,NA,NA,NA,NA,NA,NA,NA,NA,NA,NA,NA,NA,NA,NA,NA,NA,NA,NA,NA
e3172,Shallow Question,html.Page,3_0_3_0_1_1_0,NA,NA,form submission,9331.4230000477,424882.9000001,424880.562,424897.277,434228.70000005,434228.9000001,2023-10-17T08:41:23Z,434241.52,NULL,Schock,mshtuko,s,biashara,kukataza,vichekesho,mshtuko,NA,NA,3,NA,NA,NA,NA,NA,NA,NA,NA,NA,NA,NA,NA,NA,NA,NA,NA,NA,NA,NA
e3172,"""Richtig""-Screen",canvas.Screen,3_0_3_0_1_1_1,NA,NA,timeout,4997.016,434232,434224.814,434241.52,439221.898,439222.9000001,2023-10-17T08:41:28Z,439238.536,NULL,Schock,mshtuko,s,biashara,kukataza,vichekesho,NA,qt,1,3,NA,NA,NA,NA,NA,NA,NA,NA,NA,NA,NA,NA,NA,NA,NA,NA,NA,NA,NA
e3172,"""Falsch""-Screen",canvas.Screen,3_0_3_0_1_1_2,NA,NA,skipped,NA,439228,NA,NA,439221.898,439228.10000014,2023-10-17T08:41:28Z,439238.536,NULL,Schock,mshtuko,s,biashara,kukataza,vichekesho,NA,qt,NA,3,NA,NA,NA,NA,NA,NA,NA,NA,NA,NA,NA,NA,NA,NA,NA,NA,NA,NA,NA
e3172,shallow,flow.Sequence,3_0_3_0_1_1,NA,NA,completion,14324.621,424882.9000001,424880.562,424897.277,439221.898,439228.20000005,2023-10-17T08:41:28Z,439238.536,NULL,Schock,mshtuko,s,biashara,kukataza,vichekesho,NA,qt,NA,3,NA,NA,NA,NA,NA,NA,NA,NA,NA,NA,NA,NA,NA,NA,NA,NA,NA,NA,NA
e3172,task,flow.Sequence,3_0_3_0_1,NA,NA,completion,14324.621,424882.60000014,424880.562,424897.277,439221.898,439228.29999995,2023-10-17T08:41:28Z,439238.536,NULL,Schock,mshtuko,s,biashara,kukataza,vichekesho,NA,qt,NA,3,NA,NA,NA,NA,NA,NA,NA,NA,NA,NA,NA,NA,NA,NA,NA,NA,NA,NA,NA
e3172,Deep Question,html.Page,3_0_3_0_2_0_0,NA,NA,form submission,8393.064000143,439228.4000001,439221.898,439238.536,447631.60000014,447631.79999995,2023-10-17T08:41:37Z,447632.891,NULL,Wettbewerb,ushindani,d,NA,NA,NA,ushundani,NA,NA,3,NA,NA,NA,NA,NA,NA,NA,NA,NA,NA,NA,NA,NA,NA,NA,NA,NA,NA,NA
e3172,"""Richtig""-Screen",canvas.Screen,3_0_3_0_2_0_1,NA,NA,skipped,NA,447634.20000005,NA,NA,447631.60000014,447634.4000001,2023-10-17T08:41:37Z,447632.891,NULL,Wettbewerb,ushindani,d,NA,NA,NA,NA,qt,NA,3,NA,NA,NA,NA,NA,NA,NA,NA,NA,NA,NA,NA,NA,NA,NA,NA,NA,NA,NA
e3172,"""Falsch""-Screen",canvas.Screen,3_0_3_0_2_0_2,NA,NA,timeout,4997.425,447635.10000014,447616.777,447632.891,452613.757,452614.20000005,2023-10-17T08:41:42Z,452630.316,NULL,Wettbewerb,ushindani,d,NA,NA,NA,NA,qt,0,3,NA,NA,NA,NA,NA,NA,NA,NA,NA,NA,NA,NA,NA,NA,NA,NA,NA,NA,NA
e3172,deep,flow.Sequence,3_0_3_0_2_0,NA,NA,completion,13375.221,439228.4000001,439221.898,439238.536,452613.757,452614.29999995,2023-10-17T08:41:42Z,452630.316,NULL,Wettbewerb,ushindani,d,NA,NA,NA,NA,qt,NA,3,NA,NA,NA,NA,NA,NA,NA,NA,NA,NA,NA,NA,NA,NA,NA,NA,NA,NA,NA
e3172,shallow,flow.Sequence,3_0_3_0_2_1,NA,NA,skipped,NA,452614.4000001,NA,NA,452613.757,452614.4000001,2023-10-17T08:41:42Z,452630.316,NULL,Wettbewerb,ushindani,d,NA,NA,NA,NA,qt,NA,3,NA,NA,NA,NA,NA,NA,NA,NA,NA,NA,NA,NA,NA,NA,NA,NA,NA,NA,NA
e3172,task,flow.Sequence,3_0_3_0_2,NA,NA,completion,13375.221,439228.4000001,439221.898,439238.536,452613.757,452614.60000014,2023-10-17T08:41:42Z,452630.316,NULL,Wettbewerb,ushindani,d,NA,NA,NA,NA,qt,NA,3,NA,NA,NA,NA,NA,NA,NA,NA,NA,NA,NA,NA,NA,NA,NA,NA,NA,NA,NA
e3172,Deep Question,html.Page,3_0_3_0_3_0_0,NA,NA,form submission,6397.0840000954,452614.60000014,452613.757,452630.316,459027.4000001,459027.60000014,2023-10-17T08:41:48Z,459042.59,NULL,Verpackung,ufungaji,d,NA,NA,NA,uagizaji,NA,NA,3,NA,NA,NA,NA,NA,NA,NA,NA,NA,NA,NA,NA,NA,NA,NA,NA,NA,NA,NA
e3172,"""Richtig""-Screen",canvas.Screen,3_0_3_0_3_0_1,NA,NA,skipped,NA,459029.60000014,NA,NA,459027.4000001,459029.70000005,2023-10-17T08:41:48Z,459042.59,NULL,Verpackung,ufungaji,d,NA,NA,NA,NA,qt,NA,3,NA,NA,NA,NA,NA,NA,NA,NA,NA,NA,NA,NA,NA,NA,NA,NA,NA,NA,NA
e3172,"""Falsch""-Screen",canvas.Screen,3_0_3_0_3_0_2,NA,NA,timeout,4996.974,459030.20000005,459025.913,459042.59,464022.926,464023.79999995,2023-10-17T08:41:53Z,464039.564,NULL,Verpackung,ufungaji,d,NA,NA,NA,NA,qt,0,3,NA,NA,NA,NA,NA,NA,NA,NA,NA,NA,NA,NA,NA,NA,NA,NA,NA,NA,NA
e3172,deep,flow.Sequence,3_0_3_0_3_0,NA,NA,completion,11392.61,452614.60000014,452613.757,452630.316,464022.926,464024.29999995,2023-10-17T08:41:53Z,464039.564,NULL,Verpackung,ufungaji,d,NA,NA,NA,NA,qt,NA,3,NA,NA,NA,NA,NA,NA,NA,NA,NA,NA,NA,NA,NA,NA,NA,NA,NA,NA,NA
e3172,shallow,flow.Sequence,3_0_3_0_3_1,NA,NA,skipped,NA,464024.4000001,NA,NA,464022.926,464024.60000014,2023-10-17T08:41:53Z,464039.564,NULL,Verpackung,ufungaji,d,NA,NA,NA,NA,qt,NA,3,NA,NA,NA,NA,NA,NA,NA,NA,NA,NA,NA,NA,NA,NA,NA,NA,NA,NA,NA
e3172,task,flow.Sequence,3_0_3_0_3,NA,NA,completion,11392.61,452614.60000014,452613.757,452630.316,464022.926,464024.79999995,2023-10-17T08:41:53Z,464039.564,NULL,Verpackung,ufungaji,d,NA,NA,NA,NA,qt,NA,3,NA,NA,NA,NA,NA,NA,NA,NA,NA,NA,NA,NA,NA,NA,NA,NA,NA,NA,NA
e3172,Deep Question,html.Page,3_0_3_0_4_0_0,NA,NA,form submission,18891.336000095,464025,464022.926,464039.564,482930.9000001,482931.10000014,2023-10-17T08:42:12Z,482944.858,NULL,Hoffnung,matarajio,d,NA,NA,NA,ufuangaji,NA,NA,3,NA,NA,NA,NA,NA,NA,NA,NA,NA,NA,NA,NA,NA,NA,NA,NA,NA,NA,NA
e3172,"""Richtig""-Screen",canvas.Screen,3_0_3_0_4_0_1,NA,NA,skipped,NA,482934.20000005,NA,NA,482930.9000001,482934.5,2023-10-17T08:42:12Z,482944.858,NULL,Hoffnung,matarajio,d,NA,NA,NA,NA,qt,NA,3,NA,NA,NA,NA,NA,NA,NA,NA,NA,NA,NA,NA,NA,NA,NA,NA,NA,NA,NA
e3172,"""Falsch""-Screen",canvas.Screen,3_0_3_0_4_0_2,NA,NA,timeout,4997.109,482935.20000005,482928.244,482944.858,487925.254,487925.9000001,2023-10-17T08:42:17Z,487941.967,NULL,Hoffnung,matarajio,d,NA,NA,NA,NA,qt,0,3,NA,NA,NA,NA,NA,NA,NA,NA,NA,NA,NA,NA,NA,NA,NA,NA,NA,NA,NA
e3172,deep,flow.Sequence,3_0_3_0_4_0,NA,NA,completion,23885.69,464025,464022.926,464039.564,487925.254,487926.10000014,2023-10-17T08:42:17Z,487941.967,NULL,Hoffnung,matarajio,d,NA,NA,NA,NA,qt,NA,3,NA,NA,NA,NA,NA,NA,NA,NA,NA,NA,NA,NA,NA,NA,NA,NA,NA,NA,NA
e3172,shallow,flow.Sequence,3_0_3_0_4_1,NA,NA,skipped,NA,487926.20000005,NA,NA,487925.254,487926.29999995,2023-10-17T08:42:17Z,487941.967,NULL,Hoffnung,matarajio,d,NA,NA,NA,NA,qt,NA,3,NA,NA,NA,NA,NA,NA,NA,NA,NA,NA,NA,NA,NA,NA,NA,NA,NA,NA,NA
e3172,task,flow.Sequence,3_0_3_0_4,NA,NA,completion,23885.69,464024.9000001,464022.926,464039.564,487925.254,487926.4000001,2023-10-17T08:42:17Z,487941.967,NULL,Hoffnung,matarajio,d,NA,NA,NA,NA,qt,NA,3,NA,NA,NA,NA,NA,NA,NA,NA,NA,NA,NA,NA,NA,NA,NA,NA,NA,NA,NA
e3172,deep,flow.Sequence,3_0_3_0_5_0,NA,NA,skipped,NA,487926.5,NA,NA,487925.254,487926.60000014,2023-10-17T08:42:17Z,487941.967,NULL,Zufall,kikuti,s,kukosekana,uchoraji,leseni,NA,qt,NA,3,NA,NA,NA,NA,NA,NA,NA,NA,NA,NA,NA,NA,NA,NA,NA,NA,NA,NA,NA
e3172,Shallow Question,html.Page,3_0_3_0_5_1_0,NA,NA,form submission,7835.9330000954,487926.70000005,487925.254,487941.967,495777.9000001,495778.10000014,2023-10-17T08:42:25Z,495786.85,NULL,Zufall,kikuti,s,kukosekana,uchoraji,leseni,kikuti,NA,NA,3,NA,NA,NA,NA,NA,NA,NA,NA,NA,NA,NA,NA,NA,NA,NA,NA,NA,NA,NA
e3172,"""Richtig""-Screen",canvas.Screen,3_0_3_0_5_1_1,NA,NA,timeout,4997.22,495779.9000001,495770.576,495786.85,500767.084,500768.10000014,2023-10-17T08:42:30Z,500784.07,NULL,Zufall,kikuti,s,kukosekana,uchoraji,leseni,NA,qt,1,3,NA,NA,NA,NA,NA,NA,NA,NA,NA,NA,NA,NA,NA,NA,NA,NA,NA,NA,NA
e3172,"""Falsch""-Screen",canvas.Screen,3_0_3_0_5_1_2,NA,NA,skipped,NA,500773,NA,NA,500767.084,500773.10000014,2023-10-17T08:42:30Z,500784.07,NULL,Zufall,kikuti,s,kukosekana,uchoraji,leseni,NA,qt,NA,3,NA,NA,NA,NA,NA,NA,NA,NA,NA,NA,NA,NA,NA,NA,NA,NA,NA,NA,NA
e3172,shallow,flow.Sequence,3_0_3_0_5_1,NA,NA,completion,12825.117,487926.60000014,487925.254,487941.967,500767.084,500773.29999995,2023-10-17T08:42:30Z,500784.07,NULL,Zufall,kikuti,s,kukosekana,uchoraji,leseni,NA,qt,NA,3,NA,NA,NA,NA,NA,NA,NA,NA,NA,NA,NA,NA,NA,NA,NA,NA,NA,NA,NA
e3172,task,flow.Sequence,3_0_3_0_5,NA,NA,completion,12825.117,487926.5,487925.254,487941.967,500767.084,500773.29999995,2023-10-17T08:42:30Z,500784.07,NULL,Zufall,kikuti,s,kukosekana,uchoraji,leseni,NA,qt,NA,3,NA,NA,NA,NA,NA,NA,NA,NA,NA,NA,NA,NA,NA,NA,NA,NA,NA,NA,NA
e3172,deep,flow.Sequence,3_0_3_0_6_0,NA,NA,skipped,NA,500773.29999995,NA,NA,500767.084,500773.29999995,2023-10-17T08:42:30Z,500784.07,NULL,Schönheit,kirembo,s,mahojiano,msisimko,jitihadi,NA,qt,NA,3,NA,NA,NA,NA,NA,NA,NA,NA,NA,NA,NA,NA,NA,NA,NA,NA,NA,NA,NA
e3172,Shallow Question,html.Page,3_0_3_0_6_1_0,NA,NA,form submission,4118.43,500773.4000001,500767.084,500784.07,504902.5,504902.79999995,2023-10-17T08:42:34Z,504914.486,NULL,Schönheit,kirembo,s,mahojiano,msisimko,jitihadi,kirembo,NA,NA,3,NA,NA,NA,NA,NA,NA,NA,NA,NA,NA,NA,NA,NA,NA,NA,NA,NA,NA,NA
e3172,"""Richtig""-Screen",canvas.Screen,3_0_3_0_6_1_1,NA,NA,timeout,4997.411,504905.79999995,504898.011,504914.486,509894.977,509895.9000001,2023-10-17T08:42:39Z,509911.897,NULL,Schönheit,kirembo,s,mahojiano,msisimko,jitihadi,NA,qt,1,3,NA,NA,NA,NA,NA,NA,NA,NA,NA,NA,NA,NA,NA,NA,NA,NA,NA,NA,NA
e3172,"""Falsch""-Screen",canvas.Screen,3_0_3_0_6_1_2,NA,NA,skipped,NA,509901.20000005,NA,NA,509894.977,509901.29999995,2023-10-17T08:42:39Z,509911.897,NULL,Schönheit,kirembo,s,mahojiano,msisimko,jitihadi,NA,qt,NA,3,NA,NA,NA,NA,NA,NA,NA,NA,NA,NA,NA,NA,NA,NA,NA,NA,NA,NA,NA
e3172,shallow,flow.Sequence,3_0_3_0_6_1,NA,NA,completion,9110.907,500773.4000001,500767.084,500784.07,509894.977,509901.5,2023-10-17T08:42:39Z,509911.897,NULL,Schönheit,kirembo,s,mahojiano,msisimko,jitihadi,NA,qt,NA,3,NA,NA,NA,NA,NA,NA,NA,NA,NA,NA,NA,NA,NA,NA,NA,NA,NA,NA,NA
e3172,task,flow.Sequence,3_0_3_0_6,NA,NA,completion,9110.907,500773.29999995,500767.084,500784.07,509894.977,509901.5,2023-10-17T08:42:39Z,509911.897,NULL,Schönheit,kirembo,s,mahojiano,msisimko,jitihadi,NA,qt,NA,3,NA,NA,NA,NA,NA,NA,NA,NA,NA,NA,NA,NA,NA,NA,NA,NA,NA,NA,NA
e3172,deep,flow.Sequence,3_0_3_0_7_0,NA,NA,skipped,NA,509901.5,NA,NA,509894.977,509901.5,2023-10-17T08:42:39Z,509911.897,NULL,Theorie,nadharia,s,ushungi,mkutano,uwakilishi,NA,qt,NA,3,NA,NA,NA,NA,NA,NA,NA,NA,NA,NA,NA,NA,NA,NA,NA,NA,NA,NA,NA
e3172,Shallow Question,html.Page,3_0_3_0_7_1_0,NA,NA,form submission,4259.2030001431,509901.60000014,509894.977,509911.897,514171.10000014,514171.29999995,2023-10-17T08:42:43Z,514175.434,NULL,Theorie,nadharia,s,ushungi,mkutano,uwakilishi,nadharia,NA,NA,3,NA,NA,NA,NA,NA,NA,NA,NA,NA,NA,NA,NA,NA,NA,NA,NA,NA,NA,NA
e3172,"""Richtig""-Screen",canvas.Screen,3_0_3_0_7_1_1,NA,NA,timeout,4997.459,514172.70000005,514158.999,514175.434,519155.95,519157,2023-10-17T08:42:48Z,519172.893,NULL,Theorie,nadharia,s,ushungi,mkutano,uwakilishi,NA,qt,1,3,NA,NA,NA,NA,NA,NA,NA,NA,NA,NA,NA,NA,NA,NA,NA,NA,NA,NA,NA
e3172,"""Falsch""-Screen",canvas.Screen,3_0_3_0_7_1_2,NA,NA,skipped,NA,519161.60000014,NA,NA,519155.95,519161.70000005,2023-10-17T08:42:48Z,519172.893,NULL,Theorie,nadharia,s,ushungi,mkutano,uwakilishi,NA,qt,NA,3,NA,NA,NA,NA,NA,NA,NA,NA,NA,NA,NA,NA,NA,NA,NA,NA,NA,NA,NA
e3172,shallow,flow.Sequence,3_0_3_0_7_1,NA,NA,completion,9244.053,509901.5,509894.977,509911.897,519155.95,519161.79999995,2023-10-17T08:42:48Z,519172.893,NULL,Theorie,nadharia,s,ushungi,mkutano,uwakilishi,NA,qt,NA,3,NA,NA,NA,NA,NA,NA,NA,NA,NA,NA,NA,NA,NA,NA,NA,NA,NA,NA,NA
e3172,task,flow.Sequence,3_0_3_0_7,NA,NA,completion,9244.053,509901.5,509894.977,509911.897,519155.95,519161.79999995,2023-10-17T08:42:48Z,519172.893,NULL,Theorie,nadharia,s,ushungi,mkutano,uwakilishi,NA,qt,NA,3,NA,NA,NA,NA,NA,NA,NA,NA,NA,NA,NA,NA,NA,NA,NA,NA,NA,NA,NA
e3172,block,flow.Loop,3_0_3_0,NA,NA,completion,105202.055,413944.29999995,413936.03,413953.895,519155.95,519162,2023-10-17T08:42:48Z,519172.893,NULL,NA,NA,NA,NA,NA,NA,NA,qt,NA,3,NA,NA,NA,NA,NA,NA,NA,NA,NA,NA,NA,NA,NA,NA,NA,NA,NA,NA,NA
e3172,weiter,canvas.Screen,3_0_3_1,sdf,keypress(Space),response,1270.107,519162,519155.95,519172.893,520443,520444.20000005,2023-10-17T08:42:50Z,520471.608,NULL,NA,NA,NA,NA,NA,NA,NA,qt,NA,3,NA,NA,NA,NA,NA,NA,NA,NA,NA,NA,NA,NA,NA,NA,NA,NA,NA,NA,NA
e3172,check continue,flow.Sequence,3_0_3,NA,NA,completion,106489.105,413944.29999995,413936.03,413953.895,520443,520444.70000005,2023-10-17T08:42:50Z,520471.608,NULL,NA,NA,NA,NA,NA,NA,NA,qt,NA,3,NA,NA,NA,NA,NA,NA,NA,NA,NA,NA,NA,NA,NA,NA,NA,NA,NA,NA,NA
e3172,deep,flow.Sequence,3_0_4_0_0_0,NA,NA,skipped,NA,520481.60000014,NA,NA,520443,520481.70000005,2023-10-17T08:42:50Z,520471.608,NULL,Schönheit,kirembo,s,mahojiano,msisimko,jitihadi,NA,sd,NA,4,NA,NA,NA,NA,NA,NA,NA,NA,NA,NA,NA,NA,NA,NA,NA,NA,NA,NA,NA
e3172,Shallow Question,html.Page,3_0_4_0_0_1_0,NA,NA,form submission,3994.5920000477,520481.79999995,520438.985,520471.608,524466.20000005,524466.29999995,2023-10-17T08:42:54Z,524469.154,NULL,Schönheit,kirembo,s,mahojiano,msisimko,jitihadi,kirembo,NA,NA,4,NA,NA,NA,NA,NA,NA,NA,NA,NA,NA,NA,NA,NA,NA,NA,NA,NA,NA,NA
e3172,"""Richtig""-Screen",canvas.Screen,3_0_4_0_0_1_1,NA,NA,timeout,4997.292,524468.4000001,524452.761,524469.154,529449.448,529450.4000001,2023-10-17T08:42:59Z,529466.446,NULL,Schönheit,kirembo,s,mahojiano,msisimko,jitihadi,NA,sd,1,4,NA,NA,NA,NA,NA,NA,NA,NA,NA,NA,NA,NA,NA,NA,NA,NA,NA,NA,NA
e3172,"""Falsch""-Screen",canvas.Screen,3_0_4_0_0_1_2,NA,NA,skipped,NA,529455.20000005,NA,NA,529449.448,529455.29999995,2023-10-17T08:42:59Z,529466.446,NULL,Schönheit,kirembo,s,mahojiano,msisimko,jitihadi,NA,sd,NA,4,NA,NA,NA,NA,NA,NA,NA,NA,NA,NA,NA,NA,NA,NA,NA,NA,NA,NA,NA
e3172,shallow,flow.Sequence,3_0_4_0_0_1,NA,NA,completion,8977.84,520481.79999995,520438.985,520471.608,529449.448,529455.5,2023-10-17T08:42:59Z,529466.446,NULL,Schönheit,kirembo,s,mahojiano,msisimko,jitihadi,NA,sd,NA,4,NA,NA,NA,NA,NA,NA,NA,NA,NA,NA,NA,NA,NA,NA,NA,NA,NA,NA,NA
e3172,task,flow.Sequence,3_0_4_0_0,NA,NA,completion,8977.84,520481.60000014,520438.985,520471.608,529449.448,529455.5,2023-10-17T08:42:59Z,529466.446,NULL,Schönheit,kirembo,s,mahojiano,msisimko,jitihadi,NA,sd,NA,4,NA,NA,NA,NA,NA,NA,NA,NA,NA,NA,NA,NA,NA,NA,NA,NA,NA,NA,NA
e3172,Deep Question,html.Page,3_0_4_0_1_0_0,NA,NA,form submission,8391.554,529455.5,529449.448,529466.446,537858,537858.29999995,2023-10-17T08:43:07Z,537860.96,NULL,Hoffnung,matarajio,d,NA,NA,NA,matarajio,NA,NA,4,NA,NA,NA,NA,NA,NA,NA,NA,NA,NA,NA,NA,NA,NA,NA,NA,NA,NA,NA
e3172,"""Richtig""-Screen",canvas.Screen,3_0_4_0_1_0_1,NA,NA,timeout,4997.41,537861.4000001,537844.521,537860.96,542841.709,542842.5,2023-10-17T08:43:12Z,542858.37,NULL,Hoffnung,matarajio,d,NA,NA,NA,NA,sd,1,4,NA,NA,NA,NA,NA,NA,NA,NA,NA,NA,NA,NA,NA,NA,NA,NA,NA,NA,NA
e3172,"""Falsch""-Screen",canvas.Screen,3_0_4_0_1_0_2,NA,NA,skipped,NA,542847.9000001,NA,NA,542841.709,542847.9000001,2023-10-17T08:43:12Z,542858.37,NULL,Hoffnung,matarajio,d,NA,NA,NA,NA,sd,NA,4,NA,NA,NA,NA,NA,NA,NA,NA,NA,NA,NA,NA,NA,NA,NA,NA,NA,NA,NA
e3172,deep,flow.Sequence,3_0_4_0_1_0,NA,NA,completion,13375.263,529455.5,529449.448,529466.446,542841.709,542848.10000014,2023-10-17T08:43:12Z,542858.37,NULL,Hoffnung,matarajio,d,NA,NA,NA,NA,sd,NA,4,NA,NA,NA,NA,NA,NA,NA,NA,NA,NA,NA,NA,NA,NA,NA,NA,NA,NA,NA
e3172,shallow,flow.Sequence,3_0_4_0_1_1,NA,NA,skipped,NA,542848.10000014,NA,NA,542841.709,542848.20000005,2023-10-17T08:43:12Z,542858.37,NULL,Hoffnung,matarajio,d,NA,NA,NA,NA,sd,NA,4,NA,NA,NA,NA,NA,NA,NA,NA,NA,NA,NA,NA,NA,NA,NA,NA,NA,NA,NA
e3172,task,flow.Sequence,3_0_4_0_1,NA,NA,completion,13375.263,529455.5,529449.448,529466.446,542841.709,542848.20000005,2023-10-17T08:43:12Z,542858.37,NULL,Hoffnung,matarajio,d,NA,NA,NA,NA,sd,NA,4,NA,NA,NA,NA,NA,NA,NA,NA,NA,NA,NA,NA,NA,NA,NA,NA,NA,NA,NA
e3172,Deep Question,html.Page,3_0_4_0_2_0_0,NA,NA,form submission,19227.730000143,542848.20000005,542841.709,542858.37,562086.10000014,562086.29999995,2023-10-17T08:43:31Z,562096.01,NULL,Auftrag,uagizaji,d,NA,NA,NA,uagenzaji,NA,NA,4,NA,NA,NA,NA,NA,NA,NA,NA,NA,NA,NA,NA,NA,NA,NA,NA,NA,NA,NA
e3172,"""Richtig""-Screen",canvas.Screen,3_0_4_0_2_0_1,NA,NA,skipped,NA,562089.5,NA,NA,562086.10000014,562089.70000005,2023-10-17T08:43:31Z,562096.01,NULL,Auftrag,uagizaji,d,NA,NA,NA,NA,sd,NA,4,NA,NA,NA,NA,NA,NA,NA,NA,NA,NA,NA,NA,NA,NA,NA,NA,NA,NA,NA
e3172,"""Falsch""-Screen",canvas.Screen,3_0_4_0_2_0_2,NA,NA,timeout,4997.579,562090.4000001,562079.805,562096.01,567076.415,567078.5,2023-10-17T08:43:36Z,567093.589,NULL,Auftrag,uagizaji,d,NA,NA,NA,NA,sd,0,4,NA,NA,NA,NA,NA,NA,NA,NA,NA,NA,NA,NA,NA,NA,NA,NA,NA,NA,NA
e3172,deep,flow.Sequence,3_0_4_0_2_0,NA,NA,completion,24218.045,542848.20000005,542841.709,542858.37,567076.415,567078.79999995,2023-10-17T08:43:36Z,567093.589,NULL,Auftrag,uagizaji,d,NA,NA,NA,NA,sd,NA,4,NA,NA,NA,NA,NA,NA,NA,NA,NA,NA,NA,NA,NA,NA,NA,NA,NA,NA,NA
e3172,shallow,flow.Sequence,3_0_4_0_2_1,NA,NA,skipped,NA,567079,NA,NA,567076.415,567079.20000005,2023-10-17T08:43:36Z,567093.589,NULL,Auftrag,uagizaji,d,NA,NA,NA,NA,sd,NA,4,NA,NA,NA,NA,NA,NA,NA,NA,NA,NA,NA,NA,NA,NA,NA,NA,NA,NA,NA
e3172,task,flow.Sequence,3_0_4_0_2,NA,NA,completion,24218.045,542848.20000005,542841.709,542858.37,567076.415,567079.4000001,2023-10-17T08:43:36Z,567093.589,NULL,Auftrag,uagizaji,d,NA,NA,NA,NA,sd,NA,4,NA,NA,NA,NA,NA,NA,NA,NA,NA,NA,NA,NA,NA,NA,NA,NA,NA,NA,NA
e3172,deep,flow.Sequence,3_0_4_0_3_0,NA,NA,skipped,NA,567079.60000014,NA,NA,567076.415,567079.70000005,2023-10-17T08:43:36Z,567093.589,NULL,Theorie,nadharia,s,ushungi,mkutano,uwakilishi,NA,sd,NA,4,NA,NA,NA,NA,NA,NA,NA,NA,NA,NA,NA,NA,NA,NA,NA,NA,NA,NA,NA
e3172,Shallow Question,html.Page,3_0_4_0_3_1_0,NA,NA,form submission,4526.8110000953,567080,567076.415,567093.589,571620.4000001,571620.70000005,2023-10-17T08:43:41Z,571623.554,NULL,Theorie,nadharia,s,ushungi,mkutano,uwakilishi,nadharia,NA,NA,4,NA,NA,NA,NA,NA,NA,NA,NA,NA,NA,NA,NA,NA,NA,NA,NA,NA,NA,NA
e3172,"""Richtig""-Screen",canvas.Screen,3_0_4_0_3_1_1,NA,NA,timeout,4997.4939999999,571623.79999995,571607.232,571623.554,576604.398,576605.29999995,2023-10-17T08:43:46Z,576621.048,NULL,Theorie,nadharia,s,ushungi,mkutano,uwakilishi,NA,sd,1,4,NA,NA,NA,NA,NA,NA,NA,NA,NA,NA,NA,NA,NA,NA,NA,NA,NA,NA,NA
e3172,"""Falsch""-Screen",canvas.Screen,3_0_4_0_3_1_2,NA,NA,skipped,NA,576610.60000014,NA,NA,576604.398,576610.70000005,2023-10-17T08:43:46Z,576621.048,NULL,Theorie,nadharia,s,ushungi,mkutano,uwakilishi,NA,sd,NA,4,NA,NA,NA,NA,NA,NA,NA,NA,NA,NA,NA,NA,NA,NA,NA,NA,NA,NA,NA
e3172,shallow,flow.Sequence,3_0_4_0_3_1,NA,NA,completion,9510.809,567079.79999995,567076.415,567093.589,576604.398,576610.79999995,2023-10-17T08:43:46Z,576621.048,NULL,Theorie,nadharia,s,ushungi,mkutano,uwakilishi,NA,sd,NA,4,NA,NA,NA,NA,NA,NA,NA,NA,NA,NA,NA,NA,NA,NA,NA,NA,NA,NA,NA
e3172,task,flow.Sequence,3_0_4_0_3,NA,NA,completion,9510.809,567079.60000014,567076.415,567093.589,576604.398,576610.9000001,2023-10-17T08:43:46Z,576621.048,NULL,Theorie,nadharia,s,ushungi,mkutano,uwakilishi,NA,sd,NA,4,NA,NA,NA,NA,NA,NA,NA,NA,NA,NA,NA,NA,NA,NA,NA,NA,NA,NA,NA
e3172,Deep Question,html.Page,3_0_4_0_4_0_0,NA,NA,form submission,12797.852000095,576610.9000001,576604.398,576621.048,589418.9000001,589419.20000005,2023-10-17T08:43:59Z,589429.473,NULL,Verpackung,ufungaji,d,NA,NA,NA,ufungaji,NA,NA,4,NA,NA,NA,NA,NA,NA,NA,NA,NA,NA,NA,NA,NA,NA,NA,NA,NA,NA,NA
e3172,"""Richtig""-Screen",canvas.Screen,3_0_4_0_4_0_1,NA,NA,timeout,4997.147,589422.4000001,589412.725,589429.473,594410.039,594410.9000001,2023-10-17T08:44:04Z,594426.62,NULL,Verpackung,ufungaji,d,NA,NA,NA,NA,sd,1,4,NA,NA,NA,NA,NA,NA,NA,NA,NA,NA,NA,NA,NA,NA,NA,NA,NA,NA,NA
e3172,"""Falsch""-Screen",canvas.Screen,3_0_4_0_4_0_2,NA,NA,skipped,NA,594416.29999995,NA,NA,594410.039,594416.4000001,2023-10-17T08:44:04Z,594426.62,NULL,Verpackung,ufungaji,d,NA,NA,NA,NA,sd,NA,4,NA,NA,NA,NA,NA,NA,NA,NA,NA,NA,NA,NA,NA,NA,NA,NA,NA,NA,NA
e3172,deep,flow.Sequence,3_0_4_0_4_0,NA,NA,completion,17788.991,576610.9000001,576604.398,576621.048,594410.039,594416.60000014,2023-10-17T08:44:04Z,594426.62,NULL,Verpackung,ufungaji,d,NA,NA,NA,NA,sd,NA,4,NA,NA,NA,NA,NA,NA,NA,NA,NA,NA,NA,NA,NA,NA,NA,NA,NA,NA,NA
e3172,shallow,flow.Sequence,3_0_4_0_4_1,NA,NA,skipped,NA,594416.60000014,NA,NA,594410.039,594416.60000014,2023-10-17T08:44:04Z,594426.62,NULL,Verpackung,ufungaji,d,NA,NA,NA,NA,sd,NA,4,NA,NA,NA,NA,NA,NA,NA,NA,NA,NA,NA,NA,NA,NA,NA,NA,NA,NA,NA
e3172,task,flow.Sequence,3_0_4_0_4,NA,NA,completion,17788.991,576610.9000001,576604.398,576621.048,594410.039,594416.79999995,2023-10-17T08:44:04Z,594426.62,NULL,Verpackung,ufungaji,d,NA,NA,NA,NA,sd,NA,4,NA,NA,NA,NA,NA,NA,NA,NA,NA,NA,NA,NA,NA,NA,NA,NA,NA,NA,NA
e3172,deep,flow.Sequence,3_0_4_0_5_0,NA,NA,skipped,NA,594416.79999995,NA,NA,594410.039,594416.79999995,2023-10-17T08:44:04Z,594426.62,NULL,Schock,mshtuko,s,biashara,kukataza,vichekesho,NA,sd,NA,4,NA,NA,NA,NA,NA,NA,NA,NA,NA,NA,NA,NA,NA,NA,NA,NA,NA,NA,NA
e3172,Shallow Question,html.Page,3_0_4_0_5_1_0,NA,NA,form submission,3918.88,594416.9000001,594410.039,594426.62,598345.5,598345.79999995,2023-10-17T08:44:07Z,598357.508,NULL,Schock,mshtuko,s,biashara,kukataza,vichekesho,mshtuko,NA,NA,4,NA,NA,NA,NA,NA,NA,NA,NA,NA,NA,NA,NA,NA,NA,NA,NA,NA,NA,NA
e3172,"""Richtig""-Screen",canvas.Screen,3_0_4_0_5_1_1,NA,NA,timeout,4997.088,598348.79999995,598340.793,598357.508,603337.519,603338.4000001,2023-10-17T08:44:12Z,603354.596,NULL,Schock,mshtuko,s,biashara,kukataza,vichekesho,NA,sd,1,4,NA,NA,NA,NA,NA,NA,NA,NA,NA,NA,NA,NA,NA,NA,NA,NA,NA,NA,NA
e3172,"""Falsch""-Screen",canvas.Screen,3_0_4_0_5_1_2,NA,NA,skipped,NA,603343.79999995,NA,NA,603337.519,603344,2023-10-17T08:44:12Z,603354.596,NULL,Schock,mshtuko,s,biashara,kukataza,vichekesho,NA,sd,NA,4,NA,NA,NA,NA,NA,NA,NA,NA,NA,NA,NA,NA,NA,NA,NA,NA,NA,NA,NA
e3172,shallow,flow.Sequence,3_0_4_0_5_1,NA,NA,completion,8910.899,594416.9000001,594410.039,594426.62,603337.519,603344,2023-10-17T08:44:12Z,603354.596,NULL,Schock,mshtuko,s,biashara,kukataza,vichekesho,NA,sd,NA,4,NA,NA,NA,NA,NA,NA,NA,NA,NA,NA,NA,NA,NA,NA,NA,NA,NA,NA,NA
e3172,task,flow.Sequence,3_0_4_0_5,NA,NA,completion,8910.899,594416.79999995,594410.039,594426.62,603337.519,603344.10000014,2023-10-17T08:44:12Z,603354.596,NULL,Schock,mshtuko,s,biashara,kukataza,vichekesho,NA,sd,NA,4,NA,NA,NA,NA,NA,NA,NA,NA,NA,NA,NA,NA,NA,NA,NA,NA,NA,NA,NA
e3172,Deep Question,html.Page,3_0_4_0_6_0_0,NA,NA,form submission,8350.504000143,603344.20000005,603337.519,603354.596,611705.10000014,611705.29999995,2023-10-17T08:44:21Z,611715.635,NULL,Wettbewerb,ushindani,d,NA,NA,NA,ushindani,NA,NA,4,NA,NA,NA,NA,NA,NA,NA,NA,NA,NA,NA,NA,NA,NA,NA,NA,NA,NA,NA
e3172,"""Richtig""-Screen",canvas.Screen,3_0_4_0_6_0_1,NA,NA,timeout,4997.38,611708.60000014,611699.131,611715.635,616696.037,616696.9000001,2023-10-17T08:44:26Z,616713.015,NULL,Wettbewerb,ushindani,d,NA,NA,NA,NA,sd,1,4,NA,NA,NA,NA,NA,NA,NA,NA,NA,NA,NA,NA,NA,NA,NA,NA,NA,NA,NA
e3172,"""Falsch""-Screen",canvas.Screen,3_0_4_0_6_0_2,NA,NA,skipped,NA,616702.10000014,NA,NA,616696.037,616702.20000005,2023-10-17T08:44:26Z,616713.015,NULL,Wettbewerb,ushindani,d,NA,NA,NA,NA,sd,NA,4,NA,NA,NA,NA,NA,NA,NA,NA,NA,NA,NA,NA,NA,NA,NA,NA,NA,NA,NA
e3172,deep,flow.Sequence,3_0_4_0_6_0,NA,NA,completion,13341.441,603344.20000005,603337.519,603354.596,616696.037,616702.29999995,2023-10-17T08:44:26Z,616713.015,NULL,Wettbewerb,ushindani,d,NA,NA,NA,NA,sd,NA,4,NA,NA,NA,NA,NA,NA,NA,NA,NA,NA,NA,NA,NA,NA,NA,NA,NA,NA,NA
e3172,shallow,flow.Sequence,3_0_4_0_6_1,NA,NA,skipped,NA,616702.29999995,NA,NA,616696.037,616702.29999995,2023-10-17T08:44:26Z,616713.015,NULL,Wettbewerb,ushindani,d,NA,NA,NA,NA,sd,NA,4,NA,NA,NA,NA,NA,NA,NA,NA,NA,NA,NA,NA,NA,NA,NA,NA,NA,NA,NA
e3172,task,flow.Sequence,3_0_4_0_6,NA,NA,completion,13341.441,603344.10000014,603337.519,603354.596,616696.037,616702.4000001,2023-10-17T08:44:26Z,616713.015,NULL,Wettbewerb,ushindani,d,NA,NA,NA,NA,sd,NA,4,NA,NA,NA,NA,NA,NA,NA,NA,NA,NA,NA,NA,NA,NA,NA,NA,NA,NA,NA
e3172,deep,flow.Sequence,3_0_4_0_7_0,NA,NA,skipped,NA,616702.4000001,NA,NA,616696.037,616702.4000001,2023-10-17T08:44:26Z,616713.015,NULL,Zufall,kikuti,s,kukosekana,uchoraji,leseni,NA,sd,NA,4,NA,NA,NA,NA,NA,NA,NA,NA,NA,NA,NA,NA,NA,NA,NA,NA,NA,NA,NA
e3172,Shallow Question,html.Page,3_0_4_0_7_1_0,NA,NA,form submission,5873.2849999523,616702.5,616696.037,616713.015,622586.29999995,622586.60000014,2023-10-17T08:44:32Z,622592.302,NULL,Zufall,kikuti,s,kukosekana,uchoraji,leseni,kikuti,NA,NA,4,NA,NA,NA,NA,NA,NA,NA,NA,NA,NA,NA,NA,NA,NA,NA,NA,NA,NA,NA
e3172,"""Richtig""-Screen",canvas.Screen,3_0_4_0_7_1_1,NA,NA,timeout,4997.417,622589.5,622576.113,622592.302,627572.838,627573.70000005,2023-10-17T08:44:37Z,627589.719,NULL,Zufall,kikuti,s,kukosekana,uchoraji,leseni,NA,sd,1,4,NA,NA,NA,NA,NA,NA,NA,NA,NA,NA,NA,NA,NA,NA,NA,NA,NA,NA,NA
e3172,"""Falsch""-Screen",canvas.Screen,3_0_4_0_7_1_2,NA,NA,skipped,NA,627579.10000014,NA,NA,627572.838,627579.10000014,2023-10-17T08:44:37Z,627589.719,NULL,Zufall,kikuti,s,kukosekana,uchoraji,leseni,NA,sd,NA,4,NA,NA,NA,NA,NA,NA,NA,NA,NA,NA,NA,NA,NA,NA,NA,NA,NA,NA,NA
e3172,shallow,flow.Sequence,3_0_4_0_7_1,NA,NA,completion,10859.823,616702.5,616696.037,616713.015,627572.838,627579.20000005,2023-10-17T08:44:37Z,627589.719,NULL,Zufall,kikuti,s,kukosekana,uchoraji,leseni,NA,sd,NA,4,NA,NA,NA,NA,NA,NA,NA,NA,NA,NA,NA,NA,NA,NA,NA,NA,NA,NA,NA
e3172,task,flow.Sequence,3_0_4_0_7,NA,NA,completion,10859.823,616702.4000001,616696.037,616713.015,627572.838,627579.4000001,2023-10-17T08:44:37Z,627589.719,NULL,Zufall,kikuti,s,kukosekana,uchoraji,leseni,NA,sd,NA,4,NA,NA,NA,NA,NA,NA,NA,NA,NA,NA,NA,NA,NA,NA,NA,NA,NA,NA,NA
e3172,block,flow.Loop,3_0_4_0,NA,NA,completion,107101.23,520481.60000014,520438.985,520471.608,627572.838,627579.4000001,2023-10-17T08:44:37Z,627589.719,NULL,NA,NA,NA,NA,NA,NA,NA,sd,NA,4,NA,NA,NA,NA,NA,NA,NA,NA,NA,NA,NA,NA,NA,NA,NA,NA,NA,NA,NA
e3172,weiter,canvas.Screen,3_0_4_1,sdf,keypress(Space),response,1339.881000143,627579.4000001,627572.838,627589.719,628929.60000014,628930.60000014,2023-10-17T08:44:38Z,629238.249,NULL,NA,NA,NA,NA,NA,NA,NA,sd,NA,4,NA,NA,NA,NA,NA,NA,NA,NA,NA,NA,NA,NA,NA,NA,NA,NA,NA,NA,NA
e3172,check continue,flow.Sequence,3_0_4,NA,NA,completion,108457.99200014,520481.5,520438.985,520471.608,628929.60000014,628930.9000001,2023-10-17T08:44:38Z,629238.249,NULL,NA,NA,NA,NA,NA,NA,NA,sd,NA,4,NA,NA,NA,NA,NA,NA,NA,NA,NA,NA,NA,NA,NA,NA,NA,NA,NA,NA,NA
e3172,check continue,flow.Sequence,3_0_5,NA,NA,skipped,NA,628950.70000005,NA,NA,628929.60000014,628950.70000005,2023-10-17T08:44:38Z,629238.249,NULL,NA,NA,NA,NA,NA,NA,NA,sdf,NA,5,NA,NA,NA,NA,NA,NA,NA,NA,NA,NA,NA,NA,NA,NA,NA,NA,NA,NA,NA
e3172,check continue,flow.Sequence,3_0_6,NA,NA,skipped,NA,628965.5,NA,NA,628929.60000014,628965.60000014,2023-10-17T08:44:38Z,629238.249,NULL,NA,NA,NA,NA,NA,NA,NA,dfs,NA,6,NA,NA,NA,NA,NA,NA,NA,NA,NA,NA,NA,NA,NA,NA,NA,NA,NA,NA,NA
e3172,check continue,flow.Sequence,3_0_7,NA,NA,skipped,NA,628985.5,NA,NA,628929.60000014,628985.60000014,2023-10-17T08:44:38Z,629238.249,NULL,NA,NA,NA,NA,NA,NA,NA,df,NA,7,NA,NA,NA,NA,NA,NA,NA,NA,NA,NA,NA,NA,NA,NA,NA,NA,NA,NA,NA
e3172,check continue,flow.Sequence,3_0_8,NA,NA,skipped,NA,629000.70000005,NA,NA,628929.60000014,629000.79999995,2023-10-17T08:44:38Z,629238.249,NULL,NA,NA,NA,NA,NA,NA,NA,dfs,NA,8,NA,NA,NA,NA,NA,NA,NA,NA,NA,NA,NA,NA,NA,NA,NA,NA,NA,NA,NA
e3172,check continue,flow.Sequence,3_0_9,NA,NA,skipped,NA,629013.10000014,NA,NA,628929.60000014,629013.20000005,2023-10-17T08:44:38Z,629238.249,NULL,NA,NA,NA,NA,NA,NA,NA,dsf,NA,9,NA,NA,NA,NA,NA,NA,NA,NA,NA,NA,NA,NA,NA,NA,NA,NA,NA,NA,NA
e3172,check continue,flow.Sequence,3_0_10,NA,NA,skipped,NA,629025.29999995,NA,NA,628929.60000014,629025.29999995,2023-10-17T08:44:38Z,629238.249,NULL,NA,NA,NA,NA,NA,NA,NA,df,NA,10,NA,NA,NA,NA,NA,NA,NA,NA,NA,NA,NA,NA,NA,NA,NA,NA,NA,NA,NA
e3172,check continue,flow.Sequence,3_0_11,NA,NA,skipped,NA,629037.60000014,NA,NA,628929.60000014,629037.60000014,2023-10-17T08:44:38Z,629238.249,NULL,NA,NA,NA,NA,NA,NA,NA,dfs,NA,11,NA,NA,NA,NA,NA,NA,NA,NA,NA,NA,NA,NA,NA,NA,NA,NA,NA,NA,NA
e3172,check continue,flow.Sequence,3_0_12,NA,NA,skipped,NA,629050.60000014,NA,NA,628929.60000014,629050.70000005,2023-10-17T08:44:38Z,629238.249,NULL,NA,NA,NA,NA,NA,NA,NA,dsf,NA,12,NA,NA,NA,NA,NA,NA,NA,NA,NA,NA,NA,NA,NA,NA,NA,NA,NA,NA,NA
e3172,check continue,flow.Sequence,3_0_13,NA,NA,skipped,NA,629062.9000001,NA,NA,628929.60000014,629063,2023-10-17T08:44:38Z,629238.249,NULL,NA,NA,NA,NA,NA,NA,NA,dsf,NA,13,NA,NA,NA,NA,NA,NA,NA,NA,NA,NA,NA,NA,NA,NA,NA,NA,NA,NA,NA
e3172,check continue,flow.Sequence,3_0_14,NA,NA,skipped,NA,629075.20000005,NA,NA,628929.60000014,629075.29999995,2023-10-17T08:44:38Z,629238.249,NULL,NA,NA,NA,NA,NA,NA,NA,NA,NA,14,NA,NA,NA,NA,NA,NA,NA,NA,NA,NA,NA,NA,NA,NA,NA,NA,NA,NA,NA
e3172,check continue,flow.Sequence,3_0_15,NA,NA,skipped,NA,629086.9000001,NA,NA,628929.60000014,629086.9000001,2023-10-17T08:44:38Z,629238.249,NULL,NA,NA,NA,NA,NA,NA,NA,NA,NA,15,NA,NA,NA,NA,NA,NA,NA,NA,NA,NA,NA,NA,NA,NA,NA,NA,NA,NA,NA
e3172,check continue,flow.Sequence,3_0_16,NA,NA,skipped,NA,629098.4000001,NA,NA,628929.60000014,629098.5,2023-10-17T08:44:38Z,629238.249,NULL,NA,NA,NA,NA,NA,NA,NA,NA,NA,16,NA,NA,NA,NA,NA,NA,NA,NA,NA,NA,NA,NA,NA,NA,NA,NA,NA,NA,NA
e3172,check continue,flow.Sequence,3_0_17,NA,NA,skipped,NA,629110.29999995,NA,NA,628929.60000014,629110.4000001,2023-10-17T08:44:38Z,629238.249,NULL,NA,NA,NA,NA,NA,NA,NA,NA,NA,17,NA,NA,NA,NA,NA,NA,NA,NA,NA,NA,NA,NA,NA,NA,NA,NA,NA,NA,NA
e3172,check continue,flow.Sequence,3_0_18,NA,NA,skipped,NA,629121.29999995,NA,NA,628929.60000014,629121.4000001,2023-10-17T08:44:38Z,629238.249,NULL,NA,NA,NA,NA,NA,NA,NA,NA,NA,18,NA,NA,NA,NA,NA,NA,NA,NA,NA,NA,NA,NA,NA,NA,NA,NA,NA,NA,NA
e3172,check continue,flow.Sequence,3_0_19,NA,NA,skipped,NA,629132.79999995,NA,NA,628929.60000014,629132.9000001,2023-10-17T08:44:38Z,629238.249,NULL,NA,NA,NA,NA,NA,NA,NA,NA,NA,19,NA,NA,NA,NA,NA,NA,NA,NA,NA,NA,NA,NA,NA,NA,NA,NA,NA,NA,NA
e3172,check continue,flow.Sequence,3_0_20,NA,NA,skipped,NA,629143.79999995,NA,NA,628929.60000014,629143.79999995,2023-10-17T08:44:38Z,629238.249,NULL,NA,NA,NA,NA,NA,NA,NA,NA,NA,20,NA,NA,NA,NA,NA,NA,NA,NA,NA,NA,NA,NA,NA,NA,NA,NA,NA,NA,NA
e3172,check continue,flow.Sequence,3_0_21,NA,NA,skipped,NA,629156.70000005,NA,NA,628929.60000014,629156.79999995,2023-10-17T08:44:38Z,629238.249,NULL,NA,NA,NA,NA,NA,NA,NA,NA,NA,21,NA,NA,NA,NA,NA,NA,NA,NA,NA,NA,NA,NA,NA,NA,NA,NA,NA,NA,NA
e3172,check continue,flow.Sequence,3_0_22,NA,NA,skipped,NA,629167.5,NA,NA,628929.60000014,629167.5,2023-10-17T08:44:38Z,629238.249,NULL,NA,NA,NA,NA,NA,NA,NA,NA,NA,22,NA,NA,NA,NA,NA,NA,NA,NA,NA,NA,NA,NA,NA,NA,NA,NA,NA,NA,NA
e3172,check continue,flow.Sequence,3_0_23,NA,NA,skipped,NA,629180.29999995,NA,NA,628929.60000014,629180.4000001,2023-10-17T08:44:38Z,629238.249,NULL,NA,NA,NA,NA,NA,NA,NA,NA,NA,23,NA,NA,NA,NA,NA,NA,NA,NA,NA,NA,NA,NA,NA,NA,NA,NA,NA,NA,NA
e3172,check continue,flow.Sequence,3_0_24,NA,NA,skipped,NA,629191.10000014,NA,NA,628929.60000014,629191.20000005,2023-10-17T08:44:38Z,629238.249,NULL,NA,NA,NA,NA,NA,NA,NA,NA,NA,24,NA,NA,NA,NA,NA,NA,NA,NA,NA,NA,NA,NA,NA,NA,NA,NA,NA,NA,NA
e3172,check continue,flow.Sequence,3_0_25,NA,NA,skipped,NA,629201.70000005,NA,NA,628929.60000014,629201.79999995,2023-10-17T08:44:38Z,629238.249,NULL,NA,NA,NA,NA,NA,NA,NA,NA,NA,25,NA,NA,NA,NA,NA,NA,NA,NA,NA,NA,NA,NA,NA,NA,NA,NA,NA,NA,NA
e3172,check continue,flow.Sequence,3_0_26,NA,NA,skipped,NA,629213.4000001,NA,NA,628929.60000014,629213.4000001,2023-10-17T08:44:38Z,629238.249,NULL,NA,NA,NA,NA,NA,NA,NA,NA,NA,26,NA,NA,NA,NA,NA,NA,NA,NA,NA,NA,NA,NA,NA,NA,NA,NA,NA,NA,NA
e3172,check continue,flow.Sequence,3_0_27,NA,NA,skipped,NA,629223.9000001,NA,NA,628929.60000014,629223.9000001,2023-10-17T08:44:38Z,629238.249,NULL,NA,NA,NA,NA,NA,NA,NA,NA,NA,27,NA,NA,NA,NA,NA,NA,NA,NA,NA,NA,NA,NA,NA,NA,NA,NA,NA,NA,NA
e3172,check continue,flow.Sequence,3_0_28,NA,NA,skipped,NA,629235.4000001,NA,NA,628929.60000014,629235.60000014,2023-10-17T08:44:38Z,629238.249,NULL,NA,NA,NA,NA,NA,NA,NA,NA,NA,28,NA,NA,NA,NA,NA,NA,NA,NA,NA,NA,NA,NA,NA,NA,NA,NA,NA,NA,NA
e3172,check continue,flow.Sequence,3_0_29,NA,NA,skipped,NA,629246.29999995,NA,NA,628929.60000014,629246.4000001,2023-10-17T08:44:38Z,629238.249,NULL,NA,NA,NA,NA,NA,NA,NA,NA,NA,29,NA,NA,NA,NA,NA,NA,NA,NA,NA,NA,NA,NA,NA,NA,NA,NA,NA,NA,NA
e3172,until continue,flow.Loop,3_0,NA,NA,completion,522587.46200014,106334.10000014,106281.382,106342.138,628929.60000014,629246.5,2023-10-17T08:44:38Z,629238.249,NULL,NA,NA,NA,NA,NA,NA,NA,NA,NA,NA,NA,NA,NA,NA,NA,NA,NA,NA,NA,NA,NA,NA,NA,NA,NA,NA,NA,NA,NA
e3172,block 1,flow.Sequence,3,NA,NA,completion,522587.46200014,106334,106281.382,106342.138,628929.60000014,629246.60000014,2023-10-17T08:44:38Z,629238.249,NULL,NA,NA,NA,NA,NA,NA,NA,NA,NA,NA,NA,NA,NA,NA,NA,NA,NA,NA,NA,NA,NA,NA,NA,NA,NA,NA,NA,NA,NA
e3172,1.Part Over,canvas.Screen,4,NA,keypress(Space),response,4554.5509999524,629246.60000014,628921.422,629238.249,633792.79999995,633793.29999995,2023-10-17T08:44:43Z,633852.116,NULL,NA,NA,NA,NA,NA,NA,NA,NA,NA,NA,NA,NA,NA,NA,NA,NA,NA,NA,NA,NA,NA,NA,NA,NA,NA,NA,NA,NA,NA
e3172,Deep Question,html.Page,5_0_0_0_0_0_0,NA,NA,form submission,3359.984000143,633837.29999995,633833.145,633852.116,637212.10000014,637212.4000001,2023-10-17T08:44:46Z,637216.672,NULL,Gelegenheit,wakati,d,NA,NA,NA,l,NA,NA,0,NA,NA,NA,NA,NA,NA,NA,NA,NA,NA,NA,NA,NA,NA,NA,NA,NA,NA,NA
e3172,"""Richtig""-Screen",canvas.Screen,5_0_0_0_0_0_1,NA,NA,skipped,NA,637213.20000005,NA,NA,637212.10000014,637213.29999995,2023-10-17T08:44:46Z,637216.672,NULL,Gelegenheit,wakati,d,NA,NA,NA,NA,sdf,NA,0,NA,NA,NA,NA,NA,NA,NA,NA,NA,NA,NA,NA,NA,NA,NA,NA,NA,NA,NA
e3172,"""Falsch""-Screen",canvas.Screen,5_0_0_0_0_0_2,NA,NA,timeout,4997.58,637214.10000014,637200.435,637216.672,642197.053,642198,2023-10-17T08:44:51Z,642214.252,NULL,Gelegenheit,wakati,d,NA,NA,NA,NA,sdf,0,0,NA,NA,NA,NA,NA,NA,NA,NA,NA,NA,NA,NA,NA,NA,NA,NA,NA,NA,NA
e3172,deep,flow.Sequence,5_0_0_0_0_0,NA,NA,completion,8344.9369999999,633837.20000005,633833.145,633852.116,642197.053,642198.5,2023-10-17T08:44:51Z,642214.252,NULL,Gelegenheit,wakati,d,NA,NA,NA,NA,sdf,NA,0,NA,NA,NA,NA,NA,NA,NA,NA,NA,NA,NA,NA,NA,NA,NA,NA,NA,NA,NA
e3172,shallow,flow.Sequence,5_0_0_0_0_1,NA,NA,skipped,NA,642198.70000005,NA,NA,642197.053,642198.79999995,2023-10-17T08:44:51Z,642214.252,NULL,Gelegenheit,wakati,d,NA,NA,NA,NA,sdf,NA,0,NA,NA,NA,NA,NA,NA,NA,NA,NA,NA,NA,NA,NA,NA,NA,NA,NA,NA,NA
e3172,task,flow.Sequence,5_0_0_0_0,NA,NA,completion,8344.9369999999,633837.20000005,633833.145,633852.116,642197.053,642199,2023-10-17T08:44:51Z,642214.252,NULL,Gelegenheit,wakati,d,NA,NA,NA,NA,sdf,NA,0,NA,NA,NA,NA,NA,NA,NA,NA,NA,NA,NA,NA,NA,NA,NA,NA,NA,NA,NA
e3172,deep,flow.Sequence,5_0_0_0_1_0,NA,NA,skipped,NA,642199.20000005,NA,NA,642197.053,642199.4000001,2023-10-17T08:44:51Z,642214.252,NULL,Wohlstand,mafanikio,s,chimbuko,kumbuko,mapwaji,NA,sdf,NA,0,NA,NA,NA,NA,NA,NA,NA,NA,NA,NA,NA,NA,NA,NA,NA,NA,NA,NA,NA
e3172,Shallow Question,html.Page,5_0_0_0_1_1_0,NA,NA,form submission,20333.848000143,642199.5,642197.053,642214.252,662548.10000014,662548.29999995,2023-10-17T08:45:12Z,662551.189,NULL,Wohlstand,mafanikio,s,chimbuko,kumbuko,mapwaji,mafanikio,NA,NA,0,NA,NA,NA,NA,NA,NA,NA,NA,NA,NA,NA,NA,NA,NA,NA,NA,NA,NA,NA
e3172,"""Richtig""-Screen",canvas.Screen,5_0_0_0_1_1_1,NA,NA,timeout,4997.411,662551.70000005,662535.1,662551.189,667531.846,667532.79999995,2023-10-17T08:45:17Z,667548.6,NULL,Wohlstand,mafanikio,s,chimbuko,kumbuko,mapwaji,NA,sdf,1,0,NA,NA,NA,NA,NA,NA,NA,NA,NA,NA,NA,NA,NA,NA,NA,NA,NA,NA,NA
e3172,"""Falsch""-Screen",canvas.Screen,5_0_0_0_1_1_2,NA,NA,skipped,NA,667538.10000014,NA,NA,667531.846,667538.20000005,2023-10-17T08:45:17Z,667548.6,NULL,Wohlstand,mafanikio,s,chimbuko,kumbuko,mapwaji,NA,sdf,NA,0,NA,NA,NA,NA,NA,NA,NA,NA,NA,NA,NA,NA,NA,NA,NA,NA,NA,NA,NA
e3172,shallow,flow.Sequence,5_0_0_0_1_1,NA,NA,completion,25317.594,642199.5,642197.053,642214.252,667531.846,667538.4000001,2023-10-17T08:45:17Z,667548.6,NULL,Wohlstand,mafanikio,s,chimbuko,kumbuko,mapwaji,NA,sdf,NA,0,NA,NA,NA,NA,NA,NA,NA,NA,NA,NA,NA,NA,NA,NA,NA,NA,NA,NA,NA
e3172,task,flow.Sequence,5_0_0_0_1,NA,NA,completion,25317.594,642199.10000014,642197.053,642214.252,667531.846,667538.4000001,2023-10-17T08:45:17Z,667548.6,NULL,Wohlstand,mafanikio,s,chimbuko,kumbuko,mapwaji,NA,sdf,NA,0,NA,NA,NA,NA,NA,NA,NA,NA,NA,NA,NA,NA,NA,NA,NA,NA,NA,NA,NA
e3172,deep,flow.Sequence,5_0_0_0_2_0,NA,NA,skipped,NA,667538.4000001,NA,NA,667531.846,667538.4000001,2023-10-17T08:45:17Z,667548.6,NULL,Ergänzung,kijalizo,s,ulaghai,mustarehe,matangazo,NA,sdf,NA,0,NA,NA,NA,NA,NA,NA,NA,NA,NA,NA,NA,NA,NA,NA,NA,NA,NA,NA,NA
e3172,Shallow Question,html.Page,5_0_0_0_2_1_0,NA,NA,form submission,11521.500000143,667538.4000001,667531.846,667548.6,679070.10000014,679070.29999995,2023-10-17T08:45:28Z,679074.326,NULL,Ergänzung,kijalizo,s,ulaghai,mustarehe,matangazo,kijalizo,NA,NA,0,NA,NA,NA,NA,NA,NA,NA,NA,NA,NA,NA,NA,NA,NA,NA,NA,NA,NA,NA
e3172,"""Richtig""-Screen",canvas.Screen,5_0_0_0_2_1_1,NA,NA,timeout,4997.4840000001,679073.4000001,679057.762,679074.326,684055.036,684056.10000014,2023-10-17T08:45:33Z,684071.81,NULL,Ergänzung,kijalizo,s,ulaghai,mustarehe,matangazo,NA,sdf,1,0,NA,NA,NA,NA,NA,NA,NA,NA,NA,NA,NA,NA,NA,NA,NA,NA,NA,NA,NA
e3172,"""Falsch""-Screen",canvas.Screen,5_0_0_0_2_1_2,NA,NA,skipped,NA,684061.10000014,NA,NA,684055.036,684061.20000005,2023-10-17T08:45:33Z,684071.81,NULL,Ergänzung,kijalizo,s,ulaghai,mustarehe,matangazo,NA,sdf,NA,0,NA,NA,NA,NA,NA,NA,NA,NA,NA,NA,NA,NA,NA,NA,NA,NA,NA,NA,NA
e3172,shallow,flow.Sequence,5_0_0_0_2_1,NA,NA,completion,16506.436,667538.4000001,667531.846,667548.6,684055.036,684061.20000005,2023-10-17T08:45:33Z,684071.81,NULL,Ergänzung,kijalizo,s,ulaghai,mustarehe,matangazo,NA,sdf,NA,0,NA,NA,NA,NA,NA,NA,NA,NA,NA,NA,NA,NA,NA,NA,NA,NA,NA,NA,NA
e3172,task,flow.Sequence,5_0_0_0_2,NA,NA,completion,16506.436,667538.4000001,667531.846,667548.6,684055.036,684061.29999995,2023-10-17T08:45:33Z,684071.81,NULL,Ergänzung,kijalizo,s,ulaghai,mustarehe,matangazo,NA,sdf,NA,0,NA,NA,NA,NA,NA,NA,NA,NA,NA,NA,NA,NA,NA,NA,NA,NA,NA,NA,NA
e3172,Deep Question,html.Page,5_0_0_0_3_0_0,NA,NA,form submission,3579.1899999999,684061.29999995,684055.036,684071.81,687651,687651.29999995,2023-10-17T08:45:37Z,687652.423,NULL,Notfall,dharura,d,NA,NA,NA,l,NA,NA,0,NA,NA,NA,NA,NA,NA,NA,NA,NA,NA,NA,NA,NA,NA,NA,NA,NA,NA,NA
e3172,"""Richtig""-Screen",canvas.Screen,5_0_0_0_3_0_1,NA,NA,skipped,NA,687654.29999995,NA,NA,687651,687654.5,2023-10-17T08:45:37Z,687652.423,NULL,Notfall,dharura,d,NA,NA,NA,NA,sdf,NA,0,NA,NA,NA,NA,NA,NA,NA,NA,NA,NA,NA,NA,NA,NA,NA,NA,NA,NA,NA
e3172,"""Falsch""-Screen",canvas.Screen,5_0_0_0_3_0_2,NA,NA,timeout,4997.3940000001,687655.4000001,687636.127,687652.423,692632.905,692633.79999995,2023-10-17T08:45:42Z,692649.817,NULL,Notfall,dharura,d,NA,NA,NA,NA,sdf,0,0,NA,NA,NA,NA,NA,NA,NA,NA,NA,NA,NA,NA,NA,NA,NA,NA,NA,NA,NA
e3172,deep,flow.Sequence,5_0_0_0_3_0,NA,NA,completion,8561.095,684061.29999995,684055.036,684071.81,692632.905,692634.20000005,2023-10-17T08:45:42Z,692649.817,NULL,Notfall,dharura,d,NA,NA,NA,NA,sdf,NA,0,NA,NA,NA,NA,NA,NA,NA,NA,NA,NA,NA,NA,NA,NA,NA,NA,NA,NA,NA
e3172,shallow,flow.Sequence,5_0_0_0_3_1,NA,NA,skipped,NA,692634.4000001,NA,NA,692632.905,692634.60000014,2023-10-17T08:45:42Z,692649.817,NULL,Notfall,dharura,d,NA,NA,NA,NA,sdf,NA,0,NA,NA,NA,NA,NA,NA,NA,NA,NA,NA,NA,NA,NA,NA,NA,NA,NA,NA,NA
e3172,task,flow.Sequence,5_0_0_0_3,NA,NA,completion,8561.095,684061.29999995,684055.036,684071.81,692632.905,692634.79999995,2023-10-17T08:45:42Z,692649.817,NULL,Notfall,dharura,d,NA,NA,NA,NA,sdf,NA,0,NA,NA,NA,NA,NA,NA,NA,NA,NA,NA,NA,NA,NA,NA,NA,NA,NA,NA,NA
e3172,Deep Question,html.Page,5_0_0_0_4_0_0,NA,NA,form submission,11050.683,692634.9000001,692632.905,692649.817,703700.5,703700.79999995,2023-10-17T08:45:53Z,703709.231,NULL,Ausschluss,kutengwa,d,NA,NA,NA,l,NA,NA,0,NA,NA,NA,NA,NA,NA,NA,NA,NA,NA,NA,NA,NA,NA,NA,NA,NA,NA,NA
e3172,"""Richtig""-Screen",canvas.Screen,5_0_0_0_4_0_1,NA,NA,skipped,NA,703704.10000014,NA,NA,703700.5,703704.20000005,2023-10-17T08:45:53Z,703709.231,NULL,Ausschluss,kutengwa,d,NA,NA,NA,NA,sdf,NA,0,NA,NA,NA,NA,NA,NA,NA,NA,NA,NA,NA,NA,NA,NA,NA,NA,NA,NA,NA
e3172,"""Falsch""-Screen",canvas.Screen,5_0_0_0_4_0_2,NA,NA,timeout,4997.358,703705.10000014,703693.146,703709.231,708689.588,708690.5,2023-10-17T08:45:58Z,708706.589,NULL,Ausschluss,kutengwa,d,NA,NA,NA,NA,sdf,0,0,NA,NA,NA,NA,NA,NA,NA,NA,NA,NA,NA,NA,NA,NA,NA,NA,NA,NA,NA
e3172,deep,flow.Sequence,5_0_0_0_4_0,NA,NA,completion,16039.771,692634.9000001,692632.905,692649.817,708689.588,708690.9000001,2023-10-17T08:45:58Z,708706.589,NULL,Ausschluss,kutengwa,d,NA,NA,NA,NA,sdf,NA,0,NA,NA,NA,NA,NA,NA,NA,NA,NA,NA,NA,NA,NA,NA,NA,NA,NA,NA,NA
e3172,shallow,flow.Sequence,5_0_0_0_4_1,NA,NA,skipped,NA,708691.10000014,NA,NA,708689.588,708691.29999995,2023-10-17T08:45:58Z,708706.589,NULL,Ausschluss,kutengwa,d,NA,NA,NA,NA,sdf,NA,0,NA,NA,NA,NA,NA,NA,NA,NA,NA,NA,NA,NA,NA,NA,NA,NA,NA,NA,NA
e3172,task,flow.Sequence,5_0_0_0_4,NA,NA,completion,16039.771,692634.9000001,692632.905,692649.817,708689.588,708691.60000014,2023-10-17T08:45:58Z,708706.589,NULL,Ausschluss,kutengwa,d,NA,NA,NA,NA,sdf,NA,0,NA,NA,NA,NA,NA,NA,NA,NA,NA,NA,NA,NA,NA,NA,NA,NA,NA,NA,NA
e3172,deep,flow.Sequence,5_0_0_0_5_0,NA,NA,skipped,NA,708691.79999995,NA,NA,708689.588,708691.9000001,2023-10-17T08:45:58Z,708706.589,NULL,Verstand,ufahamivu,s,shakawa,hadhari,mhandisi,NA,sdf,NA,0,NA,NA,NA,NA,NA,NA,NA,NA,NA,NA,NA,NA,NA,NA,NA,NA,NA,NA,NA
e3172,Shallow Question,html.Page,5_0_0_0_5_1_0,NA,NA,form submission,15633.911,708692.10000014,708689.588,708706.589,724340.5,724340.70000005,2023-10-17T08:46:13Z,724346.572,NULL,Verstand,ufahamivu,s,shakawa,hadhari,mhandisi,hadhari,NA,NA,0,NA,NA,NA,NA,NA,NA,NA,NA,NA,NA,NA,NA,NA,NA,NA,NA,NA,NA,NA
e3172,"""Richtig""-Screen",canvas.Screen,5_0_0_0_5_1_1,NA,NA,skipped,NA,724344.10000014,NA,NA,724340.5,724344.20000005,2023-10-17T08:46:13Z,724346.572,NULL,Verstand,ufahamivu,s,shakawa,hadhari,mhandisi,NA,sdf,NA,0,NA,NA,NA,NA,NA,NA,NA,NA,NA,NA,NA,NA,NA,NA,NA,NA,NA,NA,NA
e3172,"""Falsch""-Screen",canvas.Screen,5_0_0_0_5_1_2,NA,NA,timeout,4997.544,724344.79999995,724327.746,724346.572,729327.205,729328.10000014,2023-10-17T08:46:18Z,729344.116,NULL,Verstand,ufahamivu,s,shakawa,hadhari,mhandisi,NA,sdf,0,0,NA,NA,NA,NA,NA,NA,NA,NA,NA,NA,NA,NA,NA,NA,NA,NA,NA,NA,NA
e3172,shallow,flow.Sequence,5_0_0_0_5_1,NA,NA,completion,20620.616,708692.10000014,708689.588,708706.589,729327.205,729328.5,2023-10-17T08:46:18Z,729344.116,NULL,Verstand,ufahamivu,s,shakawa,hadhari,mhandisi,NA,sdf,NA,0,NA,NA,NA,NA,NA,NA,NA,NA,NA,NA,NA,NA,NA,NA,NA,NA,NA,NA,NA
e3172,task,flow.Sequence,5_0_0_0_5,NA,NA,completion,20620.616,708691.70000005,708689.588,708706.589,729327.205,729328.70000005,2023-10-17T08:46:18Z,729344.116,NULL,Verstand,ufahamivu,s,shakawa,hadhari,mhandisi,NA,sdf,NA,0,NA,NA,NA,NA,NA,NA,NA,NA,NA,NA,NA,NA,NA,NA,NA,NA,NA,NA,NA
e3172,Deep Question,html.Page,5_0_0_0_6_0_0,NA,NA,form submission,12515.683999952,729328.9000001,729327.205,729344.116,741859.79999995,741860,2023-10-17T08:46:31Z,741869.195,NULL,Vergnügen,kichekesho,d,NA,NA,NA,l,NA,NA,0,NA,NA,NA,NA,NA,NA,NA,NA,NA,NA,NA,NA,NA,NA,NA,NA,NA,NA,NA
e3172,"""Richtig""-Screen",canvas.Screen,5_0_0_0_6_0_1,NA,NA,skipped,NA,741863.5,NA,NA,741859.79999995,741863.70000005,2023-10-17T08:46:31Z,741869.195,NULL,Vergnügen,kichekesho,d,NA,NA,NA,NA,sdf,NA,0,NA,NA,NA,NA,NA,NA,NA,NA,NA,NA,NA,NA,NA,NA,NA,NA,NA,NA,NA
e3172,"""Falsch""-Screen",canvas.Screen,5_0_0_0_6_0_2,NA,NA,timeout,4996.9280000001,741864.4000001,741853.097,741869.195,746849.91,746852,2023-10-17T08:46:36Z,746866.123,NULL,Vergnügen,kichekesho,d,NA,NA,NA,NA,sdf,0,0,NA,NA,NA,NA,NA,NA,NA,NA,NA,NA,NA,NA,NA,NA,NA,NA,NA,NA,NA
e3172,deep,flow.Sequence,5_0_0_0_6_0,NA,NA,completion,17505.794,729328.9000001,729327.205,729344.116,746849.91,746852.5,2023-10-17T08:46:36Z,746866.123,NULL,Vergnügen,kichekesho,d,NA,NA,NA,NA,sdf,NA,0,NA,NA,NA,NA,NA,NA,NA,NA,NA,NA,NA,NA,NA,NA,NA,NA,NA,NA,NA
