observation,sender,sender_type,sender_id,response,response_action,ended_on,duration,time_run,time_render,time_show,time_end,time_commit,timestamp,time_switch,distractors,german,swahili,enc,distractor1,distractor2,distractor3,response_2,x,correct,x_2,url_vp,url_sess,meta_labjs_version,meta_location,meta_user_agent,meta_platform,meta_language,meta_locale,meta_time_zone,meta_timezone_offset,meta_screen_width,meta_screen_height,meta_scroll_width,meta_scroll_height,meta_window_inner_width,meta_window_inner_height,meta_device_pixel_ratio,meta_labjs_build_flavor,meta_labjs_build_commit
a3428,Introduction general,canvas.Screen,0,weiter,keypress(q),response,347142.25699962,1559.5,604.39,1659672.643,2006814.8999996,2006817.5999999,2023-06-19T13:57:30Z,2006820.166,NULL,NA,NA,NA,NA,NA,NA,NA,NA,NA,NA,218,3,20.2.4,https://neurocog.fernuni.ch/studies/vweber/sfink/encoding_immediate/index.html?vp=218&sess=3,"Mozilla/5.0 (Windows NT 10.0; Win64; x64) AppleWebKit/537.36 (KHTML, like Gecko) Chrome/114.0.0.0 Safari/537.36",Win32,de-CH,de,Europe/Zurich,-120,1536,864,1536,706,1536,754,1.25,production,f5b4a49f956347addd546a832a3327688c2c0fef
a3428,Introduction practice,canvas.Screen,1_0,NA,keypress(Space),response,5805.834,2006817.8999996,2006801.661,2006820.166,2012626,2012626.5999999,2023-06-19T13:57:36Z,2012632.046,NULL,NA,NA,NA,NA,NA,NA,NA,NA,NA,NA,NA,NA,NA,NA,NA,NA,NA,NA,NA,NA,NA,NA,NA,NA,NA,NA,NA,NA,NA
a3428,Deep Question,html.Page,1_1_0_0_0,NA,NA,form submission,5847.9539999999,2012626.8999996,2012615.209,2012632.046,2018480,2018480.2999997,2023-06-19T13:57:42Z,2018493.899,"c(""distractor1"", ""distractor2"", ""distractor3"")",Qualität,mtindo,d,NA,NA,NA,g,NA,NA,NA,NA,NA,NA,NA,NA,NA,NA,NA,NA,NA,NA,NA,NA,NA,NA,NA,NA,NA,NA
a3428,"""Richtig""-Screen",canvas.Screen,1_1_0_0_1,NA,NA,skipped,NA,2018481.6999998,NA,NA,2018480,2018481.8999996,2023-06-19T13:57:42Z,2018493.899,"c(""distractor1"", ""distractor2"", ""distractor3"")",Qualität,mtindo,d,NA,NA,NA,NA,NA,NA,NA,NA,NA,NA,NA,NA,NA,NA,NA,NA,NA,NA,NA,NA,NA,NA,NA,NA,NA,NA
a3428,"""Falsch""-Screen",canvas.Screen,1_1_0_0_2,NA,NA,timeout,4995.858,2018483.1999998,2018477.226,2018493.899,2023473.168,2023475.1999998,2023-06-19T13:57:47Z,2023489.757,"c(""distractor1"", ""distractor2"", ""distractor3"")",Qualität,mtindo,d,NA,NA,NA,NA,NA,0,NA,NA,NA,NA,NA,NA,NA,NA,NA,NA,NA,NA,NA,NA,NA,NA,NA,NA,NA,NA
a3428,deep,flow.Sequence,1_1_0_0,NA,NA,completion,10841.122,2012626.8999996,2012615.209,2012632.046,2023473.168,2023475.5,2023-06-19T13:57:47Z,2023489.757,"c(""distractor1"", ""distractor2"", ""distractor3"")",Qualität,mtindo,d,NA,NA,NA,NA,NA,NA,NA,NA,NA,NA,NA,NA,NA,NA,NA,NA,NA,NA,NA,NA,NA,NA,NA,NA,NA,NA
a3428,shallow,flow.Sequence,1_1_0_1,NA,NA,skipped,NA,2023475.5999999,NA,NA,2023473.168,2023475.7999997,2023-06-19T13:57:47Z,2023489.757,"c(""distractor1"", ""distractor2"", ""distractor3"")",Qualität,mtindo,d,NA,NA,NA,NA,NA,NA,NA,NA,NA,NA,NA,NA,NA,NA,NA,NA,NA,NA,NA,NA,NA,NA,NA,NA,NA,NA
a3428,task,flow.Sequence,1_1_0,NA,NA,completion,10841.122,2012626.7999997,2012615.209,2012632.046,2023473.168,2023475.8999996,2023-06-19T13:57:47Z,2023489.757,"c(""distractor1"", ""distractor2"", ""distractor3"")",Qualität,mtindo,d,NA,NA,NA,NA,NA,NA,NA,NA,NA,NA,NA,NA,NA,NA,NA,NA,NA,NA,NA,NA,NA,NA,NA,NA,NA,NA
a3428,Deep Question,html.Page,1_1_1_0_0,NA,NA,form submission,3398.8429999046,2023476.1999998,2023473.168,2023489.757,2026888.5999999,2026888.8999996,2023-06-19T13:57:50Z,2026920.294,"c(""distractor1"", ""distractor2"", ""distractor3"")",Schatten,kivuli,d,NA,NA,NA,tguh,NA,NA,NA,NA,NA,NA,NA,NA,NA,NA,NA,NA,NA,NA,NA,NA,NA,NA,NA,NA,NA,NA
a3428,"""Richtig""-Screen",canvas.Screen,1_1_1_0_1,NA,NA,skipped,NA,2026891.5,NA,NA,2026888.5999999,2026891.7999997,2023-06-19T13:57:50Z,2026920.294,"c(""distractor1"", ""distractor2"", ""distractor3"")",Schatten,kivuli,d,NA,NA,NA,NA,NA,NA,NA,NA,NA,NA,NA,NA,NA,NA,NA,NA,NA,NA,NA,NA,NA,NA,NA,NA,NA,NA
a3428,"""Falsch""-Screen",canvas.Screen,1_1_1_0_2,NA,NA,timeout,4995.892,2026893,2026903.624,2026920.294,2031899.562,2031900,2023-06-19T13:57:55Z,2031916.186,"c(""distractor1"", ""distractor2"", ""distractor3"")",Schatten,kivuli,d,NA,NA,NA,NA,NA,0,NA,NA,NA,NA,NA,NA,NA,NA,NA,NA,NA,NA,NA,NA,NA,NA,NA,NA,NA,NA
a3428,deep,flow.Sequence,1_1_1_0,NA,NA,completion,8409.8049999999,2023476.0999999,2023473.168,2023489.757,2031899.562,2031900.2999997,2023-06-19T13:57:55Z,2031916.186,"c(""distractor1"", ""distractor2"", ""distractor3"")",Schatten,kivuli,d,NA,NA,NA,NA,NA,NA,NA,NA,NA,NA,NA,NA,NA,NA,NA,NA,NA,NA,NA,NA,NA,NA,NA,NA,NA,NA
a3428,shallow,flow.Sequence,1_1_1_1,NA,NA,skipped,NA,2031900.3999996,NA,NA,2031899.562,2031900.5999999,2023-06-19T13:57:55Z,2031916.186,"c(""distractor1"", ""distractor2"", ""distractor3"")",Schatten,kivuli,d,NA,NA,NA,NA,NA,NA,NA,NA,NA,NA,NA,NA,NA,NA,NA,NA,NA,NA,NA,NA,NA,NA,NA,NA,NA,NA
a3428,task,flow.Sequence,1_1_1,NA,NA,completion,8409.8049999999,2023476,2023473.168,2023489.757,2031899.562,2031900.6999998,2023-06-19T13:57:55Z,2031916.186,"c(""distractor1"", ""distractor2"", ""distractor3"")",Schatten,kivuli,d,NA,NA,NA,NA,NA,NA,NA,NA,NA,NA,NA,NA,NA,NA,NA,NA,NA,NA,NA,NA,NA,NA,NA,NA,NA,NA
a3428,deep,flow.Sequence,1_1_2_0,NA,NA,skipped,NA,2031900.7999997,NA,NA,2031899.562,2031901,2023-06-19T13:57:55Z,2031916.186,"c(""distractor1"", ""distractor2"", ""distractor3"")",Gegenwart,hadhara,s,katiba,jokofu,mikopo,NA,NA,NA,NA,NA,NA,NA,NA,NA,NA,NA,NA,NA,NA,NA,NA,NA,NA,NA,NA,NA,NA,NA
a3428,Shallow Question,html.Page,1_1_2_1_0,NA,NA,form submission,3766.5139998093,2031901.0999999,2031899.562,2031916.186,2035682.6999998,2035682.8999996,2023-06-19T13:57:59Z,2035696.45,"c(""distractor1"", ""distractor2"", ""distractor3"")",Gegenwart,hadhara,s,katiba,jokofu,mikopo,hadhara,NA,NA,NA,NA,NA,NA,NA,NA,NA,NA,NA,NA,NA,NA,NA,NA,NA,NA,NA,NA,NA,NA
a3428,"""Richtig""-Screen",canvas.Screen,1_1_2_1_1,NA,NA,timeout,4995.889,2035685.0999999,2035679.712,2035696.45,2040675.664,2040676.0999999,2023-06-19T13:58:04Z,2040692.339,"c(""distractor1"", ""distractor2"", ""distractor3"")",Gegenwart,hadhara,s,katiba,jokofu,mikopo,NA,NA,1,NA,NA,NA,NA,NA,NA,NA,NA,NA,NA,NA,NA,NA,NA,NA,NA,NA,NA,NA,NA
a3428,"""Falsch""-Screen",canvas.Screen,1_1_2_1_2,NA,NA,skipped,NA,2040678.5999999,NA,NA,2040675.664,2040678.7999997,2023-06-19T13:58:04Z,2040692.339,"c(""distractor1"", ""distractor2"", ""distractor3"")",Gegenwart,hadhara,s,katiba,jokofu,mikopo,NA,NA,NA,NA,NA,NA,NA,NA,NA,NA,NA,NA,NA,NA,NA,NA,NA,NA,NA,NA,NA,NA,NA
a3428,shallow,flow.Sequence,1_1_2_1,NA,NA,completion,8759.4780000001,2031901,2031899.562,2031916.186,2040675.664,2040679,2023-06-19T13:58:04Z,2040692.339,"c(""distractor1"", ""distractor2"", ""distractor3"")",Gegenwart,hadhara,s,katiba,jokofu,mikopo,NA,NA,NA,NA,NA,NA,NA,NA,NA,NA,NA,NA,NA,NA,NA,NA,NA,NA,NA,NA,NA,NA,NA
a3428,task,flow.Sequence,1_1_2,NA,NA,completion,8759.4780000001,2031900.7999997,2031899.562,2031916.186,2040675.664,2040679.0999999,2023-06-19T13:58:04Z,2040692.339,"c(""distractor1"", ""distractor2"", ""distractor3"")",Gegenwart,hadhara,s,katiba,jokofu,mikopo,NA,NA,NA,NA,NA,NA,NA,NA,NA,NA,NA,NA,NA,NA,NA,NA,NA,NA,NA,NA,NA,NA,NA
a3428,Deep Question,html.Page,1_1_3_0_0,NA,NA,form submission,2839.3609998093,2040679.2999997,2040675.664,2040692.339,2043531.6999998,2043531.7999997,2023-06-19T13:58:07Z,2043540.011,"c(""distractor1"", ""distractor2"", ""distractor3"")",Gesundheit,salama,d,NA,NA,NA,rggt,NA,NA,NA,NA,NA,NA,NA,NA,NA,NA,NA,NA,NA,NA,NA,NA,NA,NA,NA,NA,NA,NA
a3428,"""Richtig""-Screen",canvas.Screen,1_1_3_0_1,NA,NA,skipped,NA,2043532.5999999,NA,NA,2043531.6999998,2043532.7999997,2023-06-19T13:58:07Z,2043540.011,"c(""distractor1"", ""distractor2"", ""distractor3"")",Gesundheit,salama,d,NA,NA,NA,NA,NA,NA,NA,NA,NA,NA,NA,NA,NA,NA,NA,NA,NA,NA,NA,NA,NA,NA,NA,NA,NA,NA
a3428,"""Falsch""-Screen",canvas.Screen,1_1_3_0_2,NA,NA,timeout,4995.8570000001,2043533.6999998,2043523.372,2043540.011,2048519.214,2048519.5999999,2023-06-19T13:58:12Z,2048535.868,"c(""distractor1"", ""distractor2"", ""distractor3"")",Gesundheit,salama,d,NA,NA,NA,NA,NA,0,NA,NA,NA,NA,NA,NA,NA,NA,NA,NA,NA,NA,NA,NA,NA,NA,NA,NA,NA,NA
a3428,deep,flow.Sequence,1_1_3_0,NA,NA,completion,7826.875,2040679.1999998,2040675.664,2040692.339,2048519.214,2048519.7999997,2023-06-19T13:58:12Z,2048535.868,"c(""distractor1"", ""distractor2"", ""distractor3"")",Gesundheit,salama,d,NA,NA,NA,NA,NA,NA,NA,NA,NA,NA,NA,NA,NA,NA,NA,NA,NA,NA,NA,NA,NA,NA,NA,NA,NA,NA
a3428,shallow,flow.Sequence,1_1_3_1,NA,NA,skipped,NA,2048519.8999996,NA,NA,2048519.214,2048519.8999996,2023-06-19T13:58:12Z,2048535.868,"c(""distractor1"", ""distractor2"", ""distractor3"")",Gesundheit,salama,d,NA,NA,NA,NA,NA,NA,NA,NA,NA,NA,NA,NA,NA,NA,NA,NA,NA,NA,NA,NA,NA,NA,NA,NA,NA,NA
a3428,task,flow.Sequence,1_1_3,NA,NA,completion,7826.875,2040679.0999999,2040675.664,2040692.339,2048519.214,2048520.0999999,2023-06-19T13:58:12Z,2048535.868,"c(""distractor1"", ""distractor2"", ""distractor3"")",Gesundheit,salama,d,NA,NA,NA,NA,NA,NA,NA,NA,NA,NA,NA,NA,NA,NA,NA,NA,NA,NA,NA,NA,NA,NA,NA,NA,NA,NA
a3428,deep,flow.Sequence,1_1_4_0,NA,NA,skipped,NA,2048520.2999997,NA,NA,2048519.214,2048520.2999997,2023-06-19T13:58:12Z,2048535.868,"c(""distractor1"", ""distractor2"", ""distractor3"")",Rückhalt,msaada,s,muhula,auwali,kiwimbe,NA,NA,NA,NA,NA,NA,NA,NA,NA,NA,NA,NA,NA,NA,NA,NA,NA,NA,NA,NA,NA,NA,NA
a3428,Shallow Question,html.Page,1_1_4_1_0,NA,NA,form submission,2582.5319996185,2048520.3999996,2048519.214,2048535.868,2051118.3999996,2051118.5999999,2023-06-19T13:58:15Z,2051133.743,"c(""distractor1"", ""distractor2"", ""distractor3"")",Rückhalt,msaada,s,muhula,auwali,kiwimbe,msaada,NA,NA,NA,NA,NA,NA,NA,NA,NA,NA,NA,NA,NA,NA,NA,NA,NA,NA,NA,NA,NA,NA
a3428,"""Richtig""-Screen",canvas.Screen,1_1_4_1_1,NA,NA,timeout,4995.8859999999,2051120.2999997,2051117.004,2051133.743,2056112.967,2056113.3999996,2023-06-19T13:58:20Z,2056129.629,"c(""distractor1"", ""distractor2"", ""distractor3"")",Rückhalt,msaada,s,muhula,auwali,kiwimbe,NA,NA,1,NA,NA,NA,NA,NA,NA,NA,NA,NA,NA,NA,NA,NA,NA,NA,NA,NA,NA,NA,NA
a3428,"""Falsch""-Screen",canvas.Screen,1_1_4_1_2,NA,NA,skipped,NA,2056115.2999997,NA,NA,2056112.967,2056115.3999996,2023-06-19T13:58:20Z,2056129.629,"c(""distractor1"", ""distractor2"", ""distractor3"")",Rückhalt,msaada,s,muhula,auwali,kiwimbe,NA,NA,NA,NA,NA,NA,NA,NA,NA,NA,NA,NA,NA,NA,NA,NA,NA,NA,NA,NA,NA,NA,NA
a3428,shallow,flow.Sequence,1_1_4_1,NA,NA,completion,7577.0989999999,2048520.2999997,2048519.214,2048535.868,2056112.967,2056115.5999999,2023-06-19T13:58:20Z,2056129.629,"c(""distractor1"", ""distractor2"", ""distractor3"")",Rückhalt,msaada,s,muhula,auwali,kiwimbe,NA,NA,NA,NA,NA,NA,NA,NA,NA,NA,NA,NA,NA,NA,NA,NA,NA,NA,NA,NA,NA,NA,NA
a3428,task,flow.Sequence,1_1_4,NA,NA,completion,7577.0989999999,2048520.1999998,2048519.214,2048535.868,2056112.967,2056115.6999998,2023-06-19T13:58:20Z,2056129.629,"c(""distractor1"", ""distractor2"", ""distractor3"")",Rückhalt,msaada,s,muhula,auwali,kiwimbe,NA,NA,NA,NA,NA,NA,NA,NA,NA,NA,NA,NA,NA,NA,NA,NA,NA,NA,NA,NA,NA,NA,NA
a3428,deep,flow.Sequence,1_1_5_0,NA,NA,skipped,NA,2056115.6999998,NA,NA,2056112.967,2056115.7999997,2023-06-19T13:58:20Z,2056129.629,"c(""distractor1"", ""distractor2"", ""distractor3"")",Kritik,lawama,s,dereva,nafasi,mawazo,NA,NA,NA,NA,NA,NA,NA,NA,NA,NA,NA,NA,NA,NA,NA,NA,NA,NA,NA,NA,NA,NA,NA
a3428,Shallow Question,html.Page,1_1_5_1_0,NA,NA,form submission,1623.1709997139,2056115.8999996,2056112.967,2056129.629,2057752.7999997,2057753,2023-06-19T13:58:21Z,2057761.675,"c(""distractor1"", ""distractor2"", ""distractor3"")",Kritik,lawama,s,dereva,nafasi,mawazo,mawazo,NA,NA,NA,NA,NA,NA,NA,NA,NA,NA,NA,NA,NA,NA,NA,NA,NA,NA,NA,NA,NA,NA
a3428,"""Richtig""-Screen",canvas.Screen,1_1_5_1_1,NA,NA,skipped,NA,2057753.6999998,NA,NA,2057752.7999997,2057753.7999997,2023-06-19T13:58:21Z,2057761.675,"c(""distractor1"", ""distractor2"", ""distractor3"")",Kritik,lawama,s,dereva,nafasi,mawazo,NA,NA,NA,NA,NA,NA,NA,NA,NA,NA,NA,NA,NA,NA,NA,NA,NA,NA,NA,NA,NA,NA,NA
a3428,"""Falsch""-Screen",canvas.Screen,1_1_5_1_2,NA,NA,timeout,4995.8149999999,2057754.6999998,2057744.92,2057761.675,2062740.799,2062741.1999998,2023-06-19T13:58:26Z,2062757.49,"c(""distractor1"", ""distractor2"", ""distractor3"")",Kritik,lawama,s,dereva,nafasi,mawazo,NA,NA,0,NA,NA,NA,NA,NA,NA,NA,NA,NA,NA,NA,NA,NA,NA,NA,NA,NA,NA,NA,NA
a3428,shallow,flow.Sequence,1_1_5_1,NA,NA,completion,6611.1700000002,2056115.7999997,2056112.967,2056129.629,2062740.799,2062741.3999996,2023-06-19T13:58:26Z,2062757.49,"c(""distractor1"", ""distractor2"", ""distractor3"")",Kritik,lawama,s,dereva,nafasi,mawazo,NA,NA,NA,NA,NA,NA,NA,NA,NA,NA,NA,NA,NA,NA,NA,NA,NA,NA,NA,NA,NA,NA,NA
a3428,task,flow.Sequence,1_1_5,NA,NA,completion,6611.1700000002,2056115.6999998,2056112.967,2056129.629,2062740.799,2062741.5,2023-06-19T13:58:26Z,2062757.49,"c(""distractor1"", ""distractor2"", ""distractor3"")",Kritik,lawama,s,dereva,nafasi,mawazo,NA,NA,NA,NA,NA,NA,NA,NA,NA,NA,NA,NA,NA,NA,NA,NA,NA,NA,NA,NA,NA,NA,NA
a3428,block,flow.Loop,1_1,NA,NA,completion,50108.753,2012626.6999998,2012615.209,2012632.046,2062740.799,2062741.5,2023-06-19T13:58:26Z,2062757.49,"c(""distractor1"", ""distractor2"", ""distractor3"")",NA,NA,NA,NA,NA,NA,NA,NA,NA,NA,NA,NA,NA,NA,NA,NA,NA,NA,NA,NA,NA,NA,NA,NA,NA,NA,NA,NA,NA
a3428,Practice,flow.Sequence,1,NA,NA,completion,55920.633,2006817.8999996,2006801.661,2006820.166,2062740.799,2062741.6999998,2023-06-19T13:58:26Z,2062757.49,NULL,NA,NA,NA,NA,NA,NA,NA,NA,NA,NA,NA,NA,NA,NA,NA,NA,NA,NA,NA,NA,NA,NA,NA,NA,NA,NA,NA,NA,NA
a3428,Experiment start,canvas.Screen,2,weiter,keypress(q),response,5430.3099997139,2062741.6999998,2062740.799,2062757.49,2068187.7999997,2068188.2999997,2023-06-19T13:58:32Z,2068286.216,NULL,NA,NA,NA,NA,NA,NA,NA,NA,NA,NA,NA,NA,NA,NA,NA,NA,NA,NA,NA,NA,NA,NA,NA,NA,NA,NA,NA,NA,NA
a3428,deep,flow.Sequence,3_0_0_0_0_0,NA,NA,skipped,NA,2068278.7999997,NA,NA,2068187.7999997,2068278.8999996,2023-06-19T13:58:32Z,2068286.216,NULL,Wohlstand,mafanikio,s,chimbuko,kumbuko,mapwaji,NA,sdf,NA,0,NA,NA,NA,NA,NA,NA,NA,NA,NA,NA,NA,NA,NA,NA,NA,NA,NA,NA,NA
a3428,Shallow Question,html.Page,3_0_0_0_0_1_0,NA,NA,form submission,3930.284,2068279,2068269.3,2068286.216,2072216.5,2072216.6999998,2023-06-19T13:58:36Z,2072234.111,NULL,Wohlstand,mafanikio,s,chimbuko,kumbuko,mapwaji,kumbuko,NA,NA,0,NA,NA,NA,NA,NA,NA,NA,NA,NA,NA,NA,NA,NA,NA,NA,NA,NA,NA,NA
a3428,"""Richtig""-Screen",canvas.Screen,3_0_0_0_0_1_1,NA,NA,skipped,NA,2072219.1999998,NA,NA,2072216.5,2072219.3999996,2023-06-19T13:58:36Z,2072234.111,NULL,Wohlstand,mafanikio,s,chimbuko,kumbuko,mapwaji,NA,sdf,NA,0,NA,NA,NA,NA,NA,NA,NA,NA,NA,NA,NA,NA,NA,NA,NA,NA,NA,NA,NA
a3428,"""Falsch""-Screen",canvas.Screen,3_0_0_0_0_1_2,NA,NA,timeout,4994.8030000001,2072220.1999998,2072199.742,2072234.111,2077212.263,2077212.6999998,2023-06-19T13:58:41Z,2077228.914,NULL,Wohlstand,mafanikio,s,chimbuko,kumbuko,mapwaji,NA,sdf,0,0,NA,NA,NA,NA,NA,NA,NA,NA,NA,NA,NA,NA,NA,NA,NA,NA,NA,NA,NA
a3428,shallow,flow.Sequence,3_0_0_0_0_1,NA,NA,completion,8926.047,2068278.8999996,2068269.3,2068286.216,2077212.263,2077213,2023-06-19T13:58:41Z,2077228.914,NULL,Wohlstand,mafanikio,s,chimbuko,kumbuko,mapwaji,NA,sdf,NA,0,NA,NA,NA,NA,NA,NA,NA,NA,NA,NA,NA,NA,NA,NA,NA,NA,NA,NA,NA
a3428,task,flow.Sequence,3_0_0_0_0,NA,NA,completion,8926.047,2068278.7999997,2068269.3,2068286.216,2077212.263,2077213.0999999,2023-06-19T13:58:41Z,2077228.914,NULL,Wohlstand,mafanikio,s,chimbuko,kumbuko,mapwaji,NA,sdf,NA,0,NA,NA,NA,NA,NA,NA,NA,NA,NA,NA,NA,NA,NA,NA,NA,NA,NA,NA,NA
a3428,deep,flow.Sequence,3_0_0_0_1_0,NA,NA,skipped,NA,2077213.1999998,NA,NA,2077212.263,2077213.2999997,2023-06-19T13:58:41Z,2077228.914,NULL,Betrüger,mdanganyifu,s,mwanamuziki,wastani,mahakama,NA,sdf,NA,0,NA,NA,NA,NA,NA,NA,NA,NA,NA,NA,NA,NA,NA,NA,NA,NA,NA,NA,NA
a3428,Shallow Question,html.Page,3_0_0_0_1_1_0,NA,NA,form submission,5211.7859998092,2077213.2999997,2077212.263,2077228.914,2082440.6999998,2082441,2023-06-19T13:58:46Z,2082441.243,NULL,Betrüger,mdanganyifu,s,mwanamuziki,wastani,mahakama,mwanamuziki,NA,NA,0,NA,NA,NA,NA,NA,NA,NA,NA,NA,NA,NA,NA,NA,NA,NA,NA,NA,NA,NA
a3428,"""Richtig""-Screen",canvas.Screen,3_0_0_0_1_1_1,NA,NA,skipped,NA,2082444.5999999,NA,NA,2082440.6999998,2082444.6999998,2023-06-19T13:58:46Z,2082441.243,NULL,Betrüger,mdanganyifu,s,mwanamuziki,wastani,mahakama,NA,sdf,NA,0,NA,NA,NA,NA,NA,NA,NA,NA,NA,NA,NA,NA,NA,NA,NA,NA,NA,NA,NA
a3428,"""Falsch""-Screen",canvas.Screen,3_0_0_0_1_1_2,NA,NA,timeout,4995.9450000001,2082445.3999996,2082424.635,2082441.243,2087420.541,2087421.0999999,2023-06-19T13:58:51Z,2087437.188,NULL,Betrüger,mdanganyifu,s,mwanamuziki,wastani,mahakama,NA,sdf,0,0,NA,NA,NA,NA,NA,NA,NA,NA,NA,NA,NA,NA,NA,NA,NA,NA,NA,NA,NA
a3428,shallow,flow.Sequence,3_0_0_0_1_1,NA,NA,completion,10191.627,2077213.2999997,2077212.263,2077228.914,2087420.541,2087421.0999999,2023-06-19T13:58:51Z,2087437.188,NULL,Betrüger,mdanganyifu,s,mwanamuziki,wastani,mahakama,NA,sdf,NA,0,NA,NA,NA,NA,NA,NA,NA,NA,NA,NA,NA,NA,NA,NA,NA,NA,NA,NA,NA
a3428,task,flow.Sequence,3_0_0_0_1,NA,NA,completion,10191.627,2077213.1999998,2077212.263,2077228.914,2087420.541,2087421.2999997,2023-06-19T13:58:51Z,2087437.188,NULL,Betrüger,mdanganyifu,s,mwanamuziki,wastani,mahakama,NA,sdf,NA,0,NA,NA,NA,NA,NA,NA,NA,NA,NA,NA,NA,NA,NA,NA,NA,NA,NA,NA,NA
a3428,Deep Question,html.Page,3_0_0_0_2_0_0,NA,NA,form submission,3047.4119999046,2087421.2999997,2087420.541,2087437.188,2090484.5999999,2090484.7999997,2023-06-19T13:58:54Z,2090502.027,NULL,Vergnügen,kichekesho,d,NA,NA,NA,zhiju,NA,NA,0,NA,NA,NA,NA,NA,NA,NA,NA,NA,NA,NA,NA,NA,NA,NA,NA,NA,NA,NA
a3428,"""Richtig""-Screen",canvas.Screen,3_0_0_0_2_0_1,NA,NA,skipped,NA,2090487.1999998,NA,NA,2090484.5999999,2090487.2999997,2023-06-19T13:58:54Z,2090502.027,NULL,Vergnügen,kichekesho,d,NA,NA,NA,NA,sdf,NA,0,NA,NA,NA,NA,NA,NA,NA,NA,NA,NA,NA,NA,NA,NA,NA,NA,NA,NA,NA
a3428,"""Falsch""-Screen",canvas.Screen,3_0_0_0_2_0_2,NA,NA,timeout,4995.173,2090488.3999996,2090467.977,2090502.027,2095480.555,2095481,2023-06-19T13:58:59Z,2095497.2,NULL,Vergnügen,kichekesho,d,NA,NA,NA,NA,sdf,0,0,NA,NA,NA,NA,NA,NA,NA,NA,NA,NA,NA,NA,NA,NA,NA,NA,NA,NA,NA
a3428,deep,flow.Sequence,3_0_0_0_2_0,NA,NA,completion,8043.3669999999,2087421.2999997,2087420.541,2087437.188,2095480.555,2095481.0999999,2023-06-19T13:58:59Z,2095497.2,NULL,Vergnügen,kichekesho,d,NA,NA,NA,NA,sdf,NA,0,NA,NA,NA,NA,NA,NA,NA,NA,NA,NA,NA,NA,NA,NA,NA,NA,NA,NA,NA
a3428,shallow,flow.Sequence,3_0_0_0_2_1,NA,NA,skipped,NA,2095481.2999997,NA,NA,2095480.555,2095481.2999997,2023-06-19T13:58:59Z,2095497.2,NULL,Vergnügen,kichekesho,d,NA,NA,NA,NA,sdf,NA,0,NA,NA,NA,NA,NA,NA,NA,NA,NA,NA,NA,NA,NA,NA,NA,NA,NA,NA,NA
a3428,task,flow.Sequence,3_0_0_0_2,NA,NA,completion,8043.3669999999,2087421.2999997,2087420.541,2087437.188,2095480.555,2095481.3999996,2023-06-19T13:58:59Z,2095497.2,NULL,Vergnügen,kichekesho,d,NA,NA,NA,NA,sdf,NA,0,NA,NA,NA,NA,NA,NA,NA,NA,NA,NA,NA,NA,NA,NA,NA,NA,NA,NA,NA
a3428,deep,flow.Sequence,3_0_0_0_3_0,NA,NA,skipped,NA,2095481.5,NA,NA,2095480.555,2095481.5999999,2023-06-19T13:58:59Z,2095497.2,NULL,Stimmung,kinyongo,s,kilekile,kisambo,madhehebu,NA,sdf,NA,0,NA,NA,NA,NA,NA,NA,NA,NA,NA,NA,NA,NA,NA,NA,NA,NA,NA,NA,NA
a3428,Shallow Question,html.Page,3_0_0_0_3_1_0,NA,NA,form submission,7067.3,2095481.6999998,2095480.555,2095497.2,2102564.5,2102564.7999997,2023-06-19T13:59:06Z,2102574.726,NULL,Stimmung,kinyongo,s,kilekile,kisambo,madhehebu,kinyongo,NA,NA,0,NA,NA,NA,NA,NA,NA,NA,NA,NA,NA,NA,NA,NA,NA,NA,NA,NA,NA,NA
a3428,"""Richtig""-Screen",canvas.Screen,3_0_0_0_3_1_1,NA,NA,timeout,4995.8280000002,2102567.1999998,2102558.033,2102574.726,2107553.957,2107554.3999996,2023-06-19T13:59:11Z,2107570.554,NULL,Stimmung,kinyongo,s,kilekile,kisambo,madhehebu,NA,sdf,1,0,NA,NA,NA,NA,NA,NA,NA,NA,NA,NA,NA,NA,NA,NA,NA,NA,NA,NA,NA
a3428,"""Falsch""-Screen",canvas.Screen,3_0_0_0_3_1_2,NA,NA,skipped,NA,2107556.2999997,NA,NA,2107553.957,2107556.5,2023-06-19T13:59:11Z,2107570.554,NULL,Stimmung,kinyongo,s,kilekile,kisambo,madhehebu,NA,sdf,NA,0,NA,NA,NA,NA,NA,NA,NA,NA,NA,NA,NA,NA,NA,NA,NA,NA,NA,NA,NA
a3428,shallow,flow.Sequence,3_0_0_0_3_1,NA,NA,completion,12056.757,2095481.5999999,2095480.555,2095497.2,2107553.957,2107556.5999999,2023-06-19T13:59:11Z,2107570.554,NULL,Stimmung,kinyongo,s,kilekile,kisambo,madhehebu,NA,sdf,NA,0,NA,NA,NA,NA,NA,NA,NA,NA,NA,NA,NA,NA,NA,NA,NA,NA,NA,NA,NA
a3428,task,flow.Sequence,3_0_0_0_3,NA,NA,completion,12056.757,2095481.5,2095480.555,2095497.2,2107553.957,2107556.6999998,2023-06-19T13:59:11Z,2107570.554,NULL,Stimmung,kinyongo,s,kilekile,kisambo,madhehebu,NA,sdf,NA,0,NA,NA,NA,NA,NA,NA,NA,NA,NA,NA,NA,NA,NA,NA,NA,NA,NA,NA,NA
a3428,deep,flow.Sequence,3_0_0_0_4_0,NA,NA,skipped,NA,2107556.7999997,NA,NA,2107553.957,2107556.7999997,2023-06-19T13:59:11Z,2107570.554,NULL,Ergänzung,kijalizo,s,ulaghai,mustarehe,matangazo,NA,sdf,NA,0,NA,NA,NA,NA,NA,NA,NA,NA,NA,NA,NA,NA,NA,NA,NA,NA,NA,NA,NA
a3428,Shallow Question,html.Page,3_0_0_0_4_1_0,NA,NA,form submission,3938.6459998093,2107556.8999996,2107553.957,2107570.554,2111509.1999998,2111509.3999996,2023-06-19T13:59:15Z,2111517.332,NULL,Ergänzung,kijalizo,s,ulaghai,mustarehe,matangazo,matangazo,NA,NA,0,NA,NA,NA,NA,NA,NA,NA,NA,NA,NA,NA,NA,NA,NA,NA,NA,NA,NA,NA
a3428,"""Richtig""-Screen",canvas.Screen,3_0_0_0_4_1_1,NA,NA,skipped,NA,2111511.2999997,NA,NA,2111509.1999998,2111511.3999996,2023-06-19T13:59:15Z,2111517.332,NULL,Ergänzung,kijalizo,s,ulaghai,mustarehe,matangazo,NA,sdf,NA,0,NA,NA,NA,NA,NA,NA,NA,NA,NA,NA,NA,NA,NA,NA,NA,NA,NA,NA,NA
a3428,"""Falsch""-Screen",canvas.Screen,3_0_0_0_4_1_2,NA,NA,timeout,4995.9080000003,2111512,2111500.684,2111517.332,2116496.598,2116497.0999999,2023-06-19T13:59:20Z,2116513.24,NULL,Ergänzung,kijalizo,s,ulaghai,mustarehe,matangazo,NA,sdf,0,0,NA,NA,NA,NA,NA,NA,NA,NA,NA,NA,NA,NA,NA,NA,NA,NA,NA,NA,NA
a3428,shallow,flow.Sequence,3_0_0_0_4_1,NA,NA,completion,8926.0440000002,2107556.7999997,2107553.957,2107570.554,2116496.598,2116497.2999997,2023-06-19T13:59:20Z,2116513.24,NULL,Ergänzung,kijalizo,s,ulaghai,mustarehe,matangazo,NA,sdf,NA,0,NA,NA,NA,NA,NA,NA,NA,NA,NA,NA,NA,NA,NA,NA,NA,NA,NA,NA,NA
a3428,task,flow.Sequence,3_0_0_0_4,NA,NA,completion,8926.0440000002,2107556.7999997,2107553.957,2107570.554,2116496.598,2116497.2999997,2023-06-19T13:59:20Z,2116513.24,NULL,Ergänzung,kijalizo,s,ulaghai,mustarehe,matangazo,NA,sdf,NA,0,NA,NA,NA,NA,NA,NA,NA,NA,NA,NA,NA,NA,NA,NA,NA,NA,NA,NA,NA
a3428,Deep Question,html.Page,3_0_0_0_5_0_0,NA,NA,form submission,3024.459999809,2116497.3999996,2116496.598,2116513.24,2119537.6999998,2119537.7999997,2023-06-19T13:59:23Z,2119544.032,NULL,Notfall,dharura,d,NA,NA,NA,nk,NA,NA,0,NA,NA,NA,NA,NA,NA,NA,NA,NA,NA,NA,NA,NA,NA,NA,NA,NA,NA,NA
a3428,"""Richtig""-Screen",canvas.Screen,3_0_0_0_5_0_1,NA,NA,skipped,NA,2119540.1999998,NA,NA,2119537.6999998,2119540.2999997,2023-06-19T13:59:23Z,2119544.032,NULL,Notfall,dharura,d,NA,NA,NA,NA,sdf,NA,0,NA,NA,NA,NA,NA,NA,NA,NA,NA,NA,NA,NA,NA,NA,NA,NA,NA,NA,NA
a3428,"""Falsch""-Screen",canvas.Screen,3_0_0_0_5_0_2,NA,NA,timeout,4995.9210000001,2119541.2999997,2119527.397,2119544.032,2124523.311,2124523.7999997,2023-06-19T13:59:28Z,2124539.953,NULL,Notfall,dharura,d,NA,NA,NA,NA,sdf,0,0,NA,NA,NA,NA,NA,NA,NA,NA,NA,NA,NA,NA,NA,NA,NA,NA,NA,NA,NA
a3428,deep,flow.Sequence,3_0_0_0_5_0,NA,NA,completion,8010.071,2116497.3999996,2116496.598,2116513.24,2124523.311,2124524,2023-06-19T13:59:28Z,2124539.953,NULL,Notfall,dharura,d,NA,NA,NA,NA,sdf,NA,0,NA,NA,NA,NA,NA,NA,NA,NA,NA,NA,NA,NA,NA,NA,NA,NA,NA,NA,NA
a3428,shallow,flow.Sequence,3_0_0_0_5_1,NA,NA,skipped,NA,2124524,NA,NA,2124523.311,2124524.0999999,2023-06-19T13:59:28Z,2124539.953,NULL,Notfall,dharura,d,NA,NA,NA,NA,sdf,NA,0,NA,NA,NA,NA,NA,NA,NA,NA,NA,NA,NA,NA,NA,NA,NA,NA,NA,NA,NA
a3428,task,flow.Sequence,3_0_0_0_5,NA,NA,completion,8010.071,2116497.2999997,2116496.598,2116513.24,2124523.311,2124524.2999997,2023-06-19T13:59:28Z,2124539.953,NULL,Notfall,dharura,d,NA,NA,NA,NA,sdf,NA,0,NA,NA,NA,NA,NA,NA,NA,NA,NA,NA,NA,NA,NA,NA,NA,NA,NA,NA,NA
a3428,Deep Question,html.Page,3_0_0_0_6_0_0,NA,NA,form submission,2660.4469996183,2124524.3999996,2124523.311,2124539.953,2127200.3999996,2127200.5,2023-06-19T13:59:31Z,2127204.4,NULL,Orientierung,urekebisho,d,NA,NA,NA,oko,NA,NA,0,NA,NA,NA,NA,NA,NA,NA,NA,NA,NA,NA,NA,NA,NA,NA,NA,NA,NA,NA
a3428,"""Richtig""-Screen",canvas.Screen,3_0_0_0_6_0_1,NA,NA,skipped,NA,2127203,NA,NA,2127200.3999996,2127203.0999999,2023-06-19T13:59:31Z,2127204.4,NULL,Orientierung,urekebisho,d,NA,NA,NA,NA,sdf,NA,0,NA,NA,NA,NA,NA,NA,NA,NA,NA,NA,NA,NA,NA,NA,NA,NA,NA,NA,NA
a3428,"""Falsch""-Screen",canvas.Screen,3_0_0_0_6_0_2,NA,NA,timeout,4995.9100000001,2127204.0999999,2127187.812,2127204.4,2132183.688,2132184.1999998,2023-06-19T13:59:36Z,2132200.31,NULL,Orientierung,urekebisho,d,NA,NA,NA,NA,sdf,0,0,NA,NA,NA,NA,NA,NA,NA,NA,NA,NA,NA,NA,NA,NA,NA,NA,NA,NA,NA
a3428,deep,flow.Sequence,3_0_0_0_6_0,NA,NA,completion,7643.7349999999,2124524.3999996,2124523.311,2124539.953,2132183.688,2132184.3999996,2023-06-19T13:59:36Z,2132200.31,NULL,Orientierung,urekebisho,d,NA,NA,NA,NA,sdf,NA,0,NA,NA,NA,NA,NA,NA,NA,NA,NA,NA,NA,NA,NA,NA,NA,NA,NA,NA,NA
a3428,shallow,flow.Sequence,3_0_0_0_6_1,NA,NA,skipped,NA,2132184.3999996,NA,NA,2132183.688,2132184.5,2023-06-19T13:59:36Z,2132200.31,NULL,Orientierung,urekebisho,d,NA,NA,NA,NA,sdf,NA,0,NA,NA,NA,NA,NA,NA,NA,NA,NA,NA,NA,NA,NA,NA,NA,NA,NA,NA,NA
a3428,task,flow.Sequence,3_0_0_0_6,NA,NA,completion,7643.7349999999,2124524.3999996,2124523.311,2124539.953,2132183.688,2132184.5999999,2023-06-19T13:59:36Z,2132200.31,NULL,Orientierung,urekebisho,d,NA,NA,NA,NA,sdf,NA,0,NA,NA,NA,NA,NA,NA,NA,NA,NA,NA,NA,NA,NA,NA,NA,NA,NA,NA,NA
a3428,Deep Question,html.Page,3_0_0_0_7_0_0,NA,NA,form submission,4989.1899999999,2132184.5999999,2132183.688,2132200.31,2137189.5,2137189.6999998,2023-06-19T13:59:41Z,2137196.166,NULL,Respekt,heshima,d,NA,NA,NA,okij,NA,NA,0,NA,NA,NA,NA,NA,NA,NA,NA,NA,NA,NA,NA,NA,NA,NA,NA,NA,NA,NA
a3428,"""Richtig""-Screen",canvas.Screen,3_0_0_0_7_0_1,NA,NA,skipped,NA,2137191.6999998,NA,NA,2137189.5,2137191.7999997,2023-06-19T13:59:41Z,2137196.166,NULL,Respekt,heshima,d,NA,NA,NA,NA,sdf,NA,0,NA,NA,NA,NA,NA,NA,NA,NA,NA,NA,NA,NA,NA,NA,NA,NA,NA,NA,NA
a3428,"""Falsch""-Screen",canvas.Screen,3_0_0_0_7_0_2,NA,NA,timeout,4995.875,2137192.2999997,2137179.581,2137196.166,2142175.409,2142175.8999996,2023-06-19T13:59:46Z,2142192.041,NULL,Respekt,heshima,d,NA,NA,NA,NA,sdf,0,0,NA,NA,NA,NA,NA,NA,NA,NA,NA,NA,NA,NA,NA,NA,NA,NA,NA,NA,NA
a3428,deep,flow.Sequence,3_0_0_0_7_0,NA,NA,completion,9975.0989999999,2132184.5999999,2132183.688,2132200.31,2142175.409,2142176,2023-06-19T13:59:46Z,2142192.041,NULL,Respekt,heshima,d,NA,NA,NA,NA,sdf,NA,0,NA,NA,NA,NA,NA,NA,NA,NA,NA,NA,NA,NA,NA,NA,NA,NA,NA,NA,NA
a3428,shallow,flow.Sequence,3_0_0_0_7_1,NA,NA,skipped,NA,2142176.0999999,NA,NA,2142175.409,2142176.1999998,2023-06-19T13:59:46Z,2142192.041,NULL,Respekt,heshima,d,NA,NA,NA,NA,sdf,NA,0,NA,NA,NA,NA,NA,NA,NA,NA,NA,NA,NA,NA,NA,NA,NA,NA,NA,NA,NA
a3428,task,flow.Sequence,3_0_0_0_7,NA,NA,completion,9975.0989999999,2132184.5999999,2132183.688,2132200.31,2142175.409,2142176.3999996,2023-06-19T13:59:46Z,2142192.041,NULL,Respekt,heshima,d,NA,NA,NA,NA,sdf,NA,0,NA,NA,NA,NA,NA,NA,NA,NA,NA,NA,NA,NA,NA,NA,NA,NA,NA,NA,NA
a3428,block,flow.Loop,3_0_0_0,NA,NA,completion,73889.193,2068278.5999999,2068269.3,2068286.216,2142175.409,2142176.5,2023-06-19T13:59:46Z,2142192.041,NULL,NA,NA,NA,NA,NA,NA,NA,sdf,NA,0,NA,NA,NA,NA,NA,NA,NA,NA,NA,NA,NA,NA,NA,NA,NA,NA,NA,NA,NA
a3428,weiter,canvas.Screen,3_0_0_1,sdf,keypress(Space),response,1045.0589999044,2142176.5,2142175.409,2142192.041,2143237.0999999,2143237.5999999,2023-06-19T13:59:47Z,2143291.187,NULL,NA,NA,NA,NA,NA,NA,NA,sdf,NA,0,NA,NA,NA,NA,NA,NA,NA,NA,NA,NA,NA,NA,NA,NA,NA,NA,NA,NA,NA
a3428,check continue,flow.Sequence,3_0_0,NA,NA,completion,74950.883999905,2068278.5999999,2068269.3,2068286.216,2143237.0999999,2143237.7999997,2023-06-19T13:59:47Z,2143291.187,NULL,NA,NA,NA,NA,NA,NA,NA,sdf,NA,0,NA,NA,NA,NA,NA,NA,NA,NA,NA,NA,NA,NA,NA,NA,NA,NA,NA,NA,NA
a3428,Deep Question,html.Page,3_0_1_0_0_0_0,NA,NA,form submission,5146.612999714,2143275.5999999,2143274.479,2143291.187,2148437.7999997,2148438,2023-06-19T13:59:52Z,2148453.594,NULL,Vergnügen,kichekesho,d,NA,NA,NA,kichekesho,NA,NA,1,NA,NA,NA,NA,NA,NA,NA,NA,NA,NA,NA,NA,NA,NA,NA,NA,NA,NA,NA
a3428,"""Richtig""-Screen",canvas.Screen,3_0_1_0_0_0_1,NA,NA,timeout,4995.8640000001,2148439.8999996,2148436.985,2148453.594,2153432.842,2153433.1999998,2023-06-19T13:59:57Z,2153449.458,NULL,Vergnügen,kichekesho,d,NA,NA,NA,NA,sdfdsf,1,1,NA,NA,NA,NA,NA,NA,NA,NA,NA,NA,NA,NA,NA,NA,NA,NA,NA,NA,NA
a3428,"""Falsch""-Screen",canvas.Screen,3_0_1_0_0_0_2,NA,NA,skipped,NA,2153435.5999999,NA,NA,2153432.842,2153435.7999997,2023-06-19T13:59:57Z,2153449.458,NULL,Vergnügen,kichekesho,d,NA,NA,NA,NA,sdfdsf,NA,1,NA,NA,NA,NA,NA,NA,NA,NA,NA,NA,NA,NA,NA,NA,NA,NA,NA,NA,NA
a3428,deep,flow.Sequence,3_0_1_0_0_0,NA,NA,completion,10141.655,2143275.5999999,2143274.479,2143291.187,2153432.842,2153436,2023-06-19T13:59:57Z,2153449.458,NULL,Vergnügen,kichekesho,d,NA,NA,NA,NA,sdfdsf,NA,1,NA,NA,NA,NA,NA,NA,NA,NA,NA,NA,NA,NA,NA,NA,NA,NA,NA,NA,NA
a3428,shallow,flow.Sequence,3_0_1_0_0_1,NA,NA,skipped,NA,2153436.0999999,NA,NA,2153432.842,2153436.1999998,2023-06-19T13:59:57Z,2153449.458,NULL,Vergnügen,kichekesho,d,NA,NA,NA,NA,sdfdsf,NA,1,NA,NA,NA,NA,NA,NA,NA,NA,NA,NA,NA,NA,NA,NA,NA,NA,NA,NA,NA
a3428,task,flow.Sequence,3_0_1_0_0,NA,NA,completion,10141.655,2143275.5999999,2143274.479,2143291.187,2153432.842,2153436.2999997,2023-06-19T13:59:57Z,2153449.458,NULL,Vergnügen,kichekesho,d,NA,NA,NA,NA,sdfdsf,NA,1,NA,NA,NA,NA,NA,NA,NA,NA,NA,NA,NA,NA,NA,NA,NA,NA,NA,NA,NA
a3428,deep,flow.Sequence,3_0_1_0_1_0,NA,NA,skipped,NA,2153436.3999996,NA,NA,2153432.842,2153436.5,2023-06-19T13:59:57Z,2153449.458,NULL,Wohlstand,mafanikio,s,chimbuko,kumbuko,mapwaji,NA,sdfdsf,NA,1,NA,NA,NA,NA,NA,NA,NA,NA,NA,NA,NA,NA,NA,NA,NA,NA,NA,NA,NA
a3428,Shallow Question,html.Page,3_0_1_0_1_1_0,NA,NA,form submission,20149.141999905,2153436.5999999,2153432.842,2153449.458,2173598.5999999,2173598.6999998,2023-06-19T14:00:17Z,2173599.57,NULL,Wohlstand,mafanikio,s,chimbuko,kumbuko,mapwaji,mafanikio,NA,NA,1,NA,NA,NA,NA,NA,NA,NA,NA,NA,NA,NA,NA,NA,NA,NA,NA,NA,NA,NA
a3428,"""Richtig""-Screen",canvas.Screen,3_0_1_0_1_1_1,NA,NA,timeout,4995.9010000001,2173600.5,2173582.235,2173599.57,2178578.807,2178579.2999997,2023-06-19T14:00:22Z,2178595.471,NULL,Wohlstand,mafanikio,s,chimbuko,kumbuko,mapwaji,NA,sdfdsf,1,1,NA,NA,NA,NA,NA,NA,NA,NA,NA,NA,NA,NA,NA,NA,NA,NA,NA,NA,NA
a3428,"""Falsch""-Screen",canvas.Screen,3_0_1_0_1_1_2,NA,NA,skipped,NA,2178580.8999996,NA,NA,2178578.807,2178581,2023-06-19T14:00:22Z,2178595.471,NULL,Wohlstand,mafanikio,s,chimbuko,kumbuko,mapwaji,NA,sdfdsf,NA,1,NA,NA,NA,NA,NA,NA,NA,NA,NA,NA,NA,NA,NA,NA,NA,NA,NA,NA,NA
a3428,shallow,flow.Sequence,3_0_1_0_1_1,NA,NA,completion,25129.349,2153436.5999999,2153432.842,2153449.458,2178578.807,2178581.0999999,2023-06-19T14:00:22Z,2178595.471,NULL,Wohlstand,mafanikio,s,chimbuko,kumbuko,mapwaji,NA,sdfdsf,NA,1,NA,NA,NA,NA,NA,NA,NA,NA,NA,NA,NA,NA,NA,NA,NA,NA,NA,NA,NA
a3428,task,flow.Sequence,3_0_1_0_1,NA,NA,completion,25129.349,2153436.2999997,2153432.842,2153449.458,2178578.807,2178581.1999998,2023-06-19T14:00:22Z,2178595.471,NULL,Wohlstand,mafanikio,s,chimbuko,kumbuko,mapwaji,NA,sdfdsf,NA,1,NA,NA,NA,NA,NA,NA,NA,NA,NA,NA,NA,NA,NA,NA,NA,NA,NA,NA,NA
a3428,Deep Question,html.Page,3_0_1_0_2_0_0,NA,NA,form submission,6824.5290000001,2178581.3999996,2178578.807,2178595.471,2185420,2185420.1999998,2023-06-19T14:00:29Z,2185423.137,NULL,Notfall,dharura,d,NA,NA,NA,dharua,NA,NA,1,NA,NA,NA,NA,NA,NA,NA,NA,NA,NA,NA,NA,NA,NA,NA,NA,NA,NA,NA
a3428,"""Richtig""-Screen",canvas.Screen,3_0_1_0_2_0_1,NA,NA,skipped,NA,2185422.2999997,NA,NA,2185420,2185422.5,2023-06-19T14:00:29Z,2185423.137,NULL,Notfall,dharura,d,NA,NA,NA,NA,sdfdsf,NA,1,NA,NA,NA,NA,NA,NA,NA,NA,NA,NA,NA,NA,NA,NA,NA,NA,NA,NA,NA
a3428,"""Falsch""-Screen",canvas.Screen,3_0_1_0_2_0_2,NA,NA,timeout,4995.8879999998,2185423.5,2185406.531,2185423.137,2190402.416,2190402.8999996,2023-06-19T14:00:34Z,2190419.025,NULL,Notfall,dharura,d,NA,NA,NA,NA,sdfdsf,0,1,NA,NA,NA,NA,NA,NA,NA,NA,NA,NA,NA,NA,NA,NA,NA,NA,NA,NA,NA
a3428,deep,flow.Sequence,3_0_1_0_2_0,NA,NA,completion,11806.945,2178581.2999997,2178578.807,2178595.471,2190402.416,2190403,2023-06-19T14:00:34Z,2190419.025,NULL,Notfall,dharura,d,NA,NA,NA,NA,sdfdsf,NA,1,NA,NA,NA,NA,NA,NA,NA,NA,NA,NA,NA,NA,NA,NA,NA,NA,NA,NA,NA
a3428,shallow,flow.Sequence,3_0_1_0_2_1,NA,NA,skipped,NA,2190403,NA,NA,2190402.416,2190403.1999998,2023-06-19T14:00:34Z,2190419.025,NULL,Notfall,dharura,d,NA,NA,NA,NA,sdfdsf,NA,1,NA,NA,NA,NA,NA,NA,NA,NA,NA,NA,NA,NA,NA,NA,NA,NA,NA,NA,NA
a3428,task,flow.Sequence,3_0_1_0_2,NA,NA,completion,11806.945,2178581.2999997,2178578.807,2178595.471,2190402.416,2190403.1999998,2023-06-19T14:00:34Z,2190419.025,NULL,Notfall,dharura,d,NA,NA,NA,NA,sdfdsf,NA,1,NA,NA,NA,NA,NA,NA,NA,NA,NA,NA,NA,NA,NA,NA,NA,NA,NA,NA,NA
a3428,Deep Question,html.Page,3_0_1_0_3_0_0,NA,NA,form submission,2943.8749996186,2190403.2999997,2190402.416,2190419.025,2193362.8999996,2193363.0999999,2023-06-19T14:00:37Z,2193366.601,NULL,Respekt,heshima,d,NA,NA,NA,okjui,NA,NA,1,NA,NA,NA,NA,NA,NA,NA,NA,NA,NA,NA,NA,NA,NA,NA,NA,NA,NA,NA
a3428,"""Richtig""-Screen",canvas.Screen,3_0_1_0_3_0_1,NA,NA,skipped,NA,2193365.0999999,NA,NA,2193362.8999996,2193365.1999998,2023-06-19T14:00:37Z,2193366.601,NULL,Respekt,heshima,d,NA,NA,NA,NA,sdfdsf,NA,1,NA,NA,NA,NA,NA,NA,NA,NA,NA,NA,NA,NA,NA,NA,NA,NA,NA,NA,NA
a3428,"""Falsch""-Screen",canvas.Screen,3_0_1_0_3_0_2,NA,NA,timeout,4995.8880000003,2193365.7999997,2193349.994,2193366.601,2198345.876,2198346.2999997,2023-06-19T14:00:42Z,2198362.489,NULL,Respekt,heshima,d,NA,NA,NA,NA,sdfdsf,0,1,NA,NA,NA,NA,NA,NA,NA,NA,NA,NA,NA,NA,NA,NA,NA,NA,NA,NA,NA
a3428,deep,flow.Sequence,3_0_1_0_3_0,NA,NA,completion,7926.8510000003,2190403.2999997,2190402.416,2190419.025,2198345.876,2198346.5999999,2023-06-19T14:00:42Z,2198362.489,NULL,Respekt,heshima,d,NA,NA,NA,NA,sdfdsf,NA,1,NA,NA,NA,NA,NA,NA,NA,NA,NA,NA,NA,NA,NA,NA,NA,NA,NA,NA,NA
a3428,shallow,flow.Sequence,3_0_1_0_3_1,NA,NA,skipped,NA,2198346.6999998,NA,NA,2198345.876,2198346.6999998,2023-06-19T14:00:42Z,2198362.489,NULL,Respekt,heshima,d,NA,NA,NA,NA,sdfdsf,NA,1,NA,NA,NA,NA,NA,NA,NA,NA,NA,NA,NA,NA,NA,NA,NA,NA,NA,NA,NA
a3428,task,flow.Sequence,3_0_1_0_3,NA,NA,completion,7926.8510000003,2190403.2999997,2190402.416,2190419.025,2198345.876,2198346.8999996,2023-06-19T14:00:42Z,2198362.489,NULL,Respekt,heshima,d,NA,NA,NA,NA,sdfdsf,NA,1,NA,NA,NA,NA,NA,NA,NA,NA,NA,NA,NA,NA,NA,NA,NA,NA,NA,NA,NA
a3428,deep,flow.Sequence,3_0_1_0_4_0,NA,NA,skipped,NA,2198347,NA,NA,2198345.876,2198347.0999999,2023-06-19T14:00:42Z,2198362.489,NULL,Stimmung,kinyongo,s,kilekile,kisambo,madhehebu,NA,sdfdsf,NA,1,NA,NA,NA,NA,NA,NA,NA,NA,NA,NA,NA,NA,NA,NA,NA,NA,NA,NA,NA
a3428,Shallow Question,html.Page,3_0_1_0_4_1_0,NA,NA,form submission,19241.310999714,2198347.1999998,2198345.876,2198362.489,2217603.7999997,2217604,2023-06-19T14:01:01Z,2217613.356,NULL,Stimmung,kinyongo,s,kilekile,kisambo,madhehebu,kinyongo,NA,NA,1,NA,NA,NA,NA,NA,NA,NA,NA,NA,NA,NA,NA,NA,NA,NA,NA,NA,NA,NA
a3428,"""Richtig""-Screen",canvas.Screen,3_0_1_0_4_1_1,NA,NA,timeout,4995.8709999998,2217605.7999997,2217596.217,2217613.356,2222592.557,2222593.0999999,2023-06-19T14:01:06Z,2222609.227,NULL,Stimmung,kinyongo,s,kilekile,kisambo,madhehebu,NA,sdfdsf,1,1,NA,NA,NA,NA,NA,NA,NA,NA,NA,NA,NA,NA,NA,NA,NA,NA,NA,NA,NA
a3428,"""Falsch""-Screen",canvas.Screen,3_0_1_0_4_1_2,NA,NA,skipped,NA,2222595.2999997,NA,NA,2222592.557,2222595.3999996,2023-06-19T14:01:06Z,2222609.227,NULL,Stimmung,kinyongo,s,kilekile,kisambo,madhehebu,NA,sdfdsf,NA,1,NA,NA,NA,NA,NA,NA,NA,NA,NA,NA,NA,NA,NA,NA,NA,NA,NA,NA,NA
a3428,shallow,flow.Sequence,3_0_1_0_4_1,NA,NA,completion,24230.068,2198347.1999998,2198345.876,2198362.489,2222592.557,2222595.5,2023-06-19T14:01:06Z,2222609.227,NULL,Stimmung,kinyongo,s,kilekile,kisambo,madhehebu,NA,sdfdsf,NA,1,NA,NA,NA,NA,NA,NA,NA,NA,NA,NA,NA,NA,NA,NA,NA,NA,NA,NA,NA
a3428,task,flow.Sequence,3_0_1_0_4,NA,NA,completion,24230.068,2198346.8999996,2198345.876,2198362.489,2222592.557,2222595.5999999,2023-06-19T14:01:06Z,2222609.227,NULL,Stimmung,kinyongo,s,kilekile,kisambo,madhehebu,NA,sdfdsf,NA,1,NA,NA,NA,NA,NA,NA,NA,NA,NA,NA,NA,NA,NA,NA,NA,NA,NA,NA,NA
a3428,deep,flow.Sequence,3_0_1_0_5_0,NA,NA,skipped,NA,2222595.6999998,NA,NA,2222592.557,2222595.6999998,2023-06-19T14:01:06Z,2222609.227,NULL,Ergänzung,kijalizo,s,ulaghai,mustarehe,matangazo,NA,sdfdsf,NA,1,NA,NA,NA,NA,NA,NA,NA,NA,NA,NA,NA,NA,NA,NA,NA,NA,NA,NA,NA
a3428,Shallow Question,html.Page,3_0_1_0_5_1_0,NA,NA,form submission,15812.872999905,2222595.8999996,2222592.557,2222609.227,2238422.0999999,2238422.3999996,2023-06-19T14:01:22Z,2238429.541,NULL,Ergänzung,kijalizo,s,ulaghai,mustarehe,matangazo,kijalizo,NA,NA,1,NA,NA,NA,NA,NA,NA,NA,NA,NA,NA,NA,NA,NA,NA,NA,NA,NA,NA,NA
a3428,"""Richtig""-Screen",canvas.Screen,3_0_1_0_5_1_1,NA,NA,timeout,4995.9069999997,2238424,2238412.277,2238429.541,2243408.767,2243409.1999998,2023-06-19T14:01:27Z,2243425.448,NULL,Ergänzung,kijalizo,s,ulaghai,mustarehe,matangazo,NA,sdfdsf,1,1,NA,NA,NA,NA,NA,NA,NA,NA,NA,NA,NA,NA,NA,NA,NA,NA,NA,NA,NA
a3428,"""Falsch""-Screen",canvas.Screen,3_0_1_0_5_1_2,NA,NA,skipped,NA,2243411.5,NA,NA,2243408.767,2243411.6999998,2023-06-19T14:01:27Z,2243425.448,NULL,Ergänzung,kijalizo,s,ulaghai,mustarehe,matangazo,NA,sdfdsf,NA,1,NA,NA,NA,NA,NA,NA,NA,NA,NA,NA,NA,NA,NA,NA,NA,NA,NA,NA,NA
a3428,shallow,flow.Sequence,3_0_1_0_5_1,NA,NA,completion,20799.54,2222595.7999997,2222592.557,2222609.227,2243408.767,2243411.8999996,2023-06-19T14:01:27Z,2243425.448,NULL,Ergänzung,kijalizo,s,ulaghai,mustarehe,matangazo,NA,sdfdsf,NA,1,NA,NA,NA,NA,NA,NA,NA,NA,NA,NA,NA,NA,NA,NA,NA,NA,NA,NA,NA
a3428,task,flow.Sequence,3_0_1_0_5,NA,NA,completion,20799.54,2222595.6999998,2222592.557,2222609.227,2243408.767,2243412,2023-06-19T14:01:27Z,2243425.448,NULL,Ergänzung,kijalizo,s,ulaghai,mustarehe,matangazo,NA,sdfdsf,NA,1,NA,NA,NA,NA,NA,NA,NA,NA,NA,NA,NA,NA,NA,NA,NA,NA,NA,NA,NA
a3428,deep,flow.Sequence,3_0_1_0_6_0,NA,NA,skipped,NA,2243412.0999999,NA,NA,2243408.767,2243412.0999999,2023-06-19T14:01:27Z,2243425.448,NULL,Betrüger,mdanganyifu,s,mwanamuziki,wastani,mahakama,NA,sdfdsf,NA,1,NA,NA,NA,NA,NA,NA,NA,NA,NA,NA,NA,NA,NA,NA,NA,NA,NA,NA,NA
a3428,Shallow Question,html.Page,3_0_1_0_6_1_0,NA,NA,form submission,11547.751999809,2243412.0999999,2243408.767,2243425.448,2254973.1999998,2254973.3999996,2023-06-19T14:01:39Z,2254982.617,NULL,Betrüger,mdanganyifu,s,mwanamuziki,wastani,mahakama,mdanganyifu,NA,NA,1,NA,NA,NA,NA,NA,NA,NA,NA,NA,NA,NA,NA,NA,NA,NA,NA,NA,NA,NA
a3428,"""Richtig""-Screen",canvas.Screen,3_0_1_0_6_1_1,NA,NA,timeout,4995.858,2254975.0999999,2254965.744,2254982.617,2259961.817,2259962.2999997,2023-06-19T14:01:44Z,2259978.475,NULL,Betrüger,mdanganyifu,s,mwanamuziki,wastani,mahakama,NA,sdfdsf,1,1,NA,NA,NA,NA,NA,NA,NA,NA,NA,NA,NA,NA,NA,NA,NA,NA,NA,NA,NA
a3428,"""Falsch""-Screen",canvas.Screen,3_0_1_0_6_1_2,NA,NA,skipped,NA,2259964,NA,NA,2259961.817,2259964.1999998,2023-06-19T14:01:44Z,2259978.475,NULL,Betrüger,mdanganyifu,s,mwanamuziki,wastani,mahakama,NA,sdfdsf,NA,1,NA,NA,NA,NA,NA,NA,NA,NA,NA,NA,NA,NA,NA,NA,NA,NA,NA,NA,NA
a3428,shallow,flow.Sequence,3_0_1_0_6_1,NA,NA,completion,16536.369,2243412.0999999,2243408.767,2243425.448,2259961.817,2259964.3999996,2023-06-19T14:01:44Z,2259978.475,NULL,Betrüger,mdanganyifu,s,mwanamuziki,wastani,mahakama,NA,sdfdsf,NA,1,NA,NA,NA,NA,NA,NA,NA,NA,NA,NA,NA,NA,NA,NA,NA,NA,NA,NA,NA
a3428,task,flow.Sequence,3_0_1_0_6,NA,NA,completion,16536.369,2243412,2243408.767,2243425.448,2259961.817,2259964.3999996,2023-06-19T14:01:44Z,2259978.475,NULL,Betrüger,mdanganyifu,s,mwanamuziki,wastani,mahakama,NA,sdfdsf,NA,1,NA,NA,NA,NA,NA,NA,NA,NA,NA,NA,NA,NA,NA,NA,NA,NA,NA,NA,NA
a3428,Deep Question,html.Page,3_0_1_0_7_0_0,NA,NA,form submission,3484.5249999999,2259964.5,2259961.817,2259978.475,2263463,2263463.0999999,2023-06-19T14:01:47Z,2263475.582,NULL,Orientierung,urekebisho,d,NA,NA,NA,tgzh,NA,NA,1,NA,NA,NA,NA,NA,NA,NA,NA,NA,NA,NA,NA,NA,NA,NA,NA,NA,NA,NA
a3428,"""Richtig""-Screen",canvas.Screen,3_0_1_0_7_0_1,NA,NA,skipped,NA,2263465.5999999,NA,NA,2263463,2263465.6999998,2023-06-19T14:01:47Z,2263475.582,NULL,Orientierung,urekebisho,d,NA,NA,NA,NA,sdfdsf,NA,1,NA,NA,NA,NA,NA,NA,NA,NA,NA,NA,NA,NA,NA,NA,NA,NA,NA,NA,NA
a3428,"""Falsch""-Screen",canvas.Screen,3_0_1_0_7_0_2,NA,NA,timeout,4995.8810000001,2263466.6999998,2263458.973,2263475.582,2268454.831,2268455.2999997,2023-06-19T14:01:52Z,2268471.463,NULL,Orientierung,urekebisho,d,NA,NA,NA,NA,sdfdsf,0,1,NA,NA,NA,NA,NA,NA,NA,NA,NA,NA,NA,NA,NA,NA,NA,NA,NA,NA,NA
a3428,deep,flow.Sequence,3_0_1_0_7_0,NA,NA,completion,8476.3559999997,2259964.5,2259961.817,2259978.475,2268454.831,2268455.3999996,2023-06-19T14:01:52Z,2268471.463,NULL,Orientierung,urekebisho,d,NA,NA,NA,NA,sdfdsf,NA,1,NA,NA,NA,NA,NA,NA,NA,NA,NA,NA,NA,NA,NA,NA,NA,NA,NA,NA,NA
a3428,shallow,flow.Sequence,3_0_1_0_7_1,NA,NA,skipped,NA,2268455.5,NA,NA,2268454.831,2268455.5999999,2023-06-19T14:01:52Z,2268471.463,NULL,Orientierung,urekebisho,d,NA,NA,NA,NA,sdfdsf,NA,1,NA,NA,NA,NA,NA,NA,NA,NA,NA,NA,NA,NA,NA,NA,NA,NA,NA,NA,NA
a3428,task,flow.Sequence,3_0_1_0_7,NA,NA,completion,8476.3559999997,2259964.5,2259961.817,2259978.475,2268454.831,2268455.6999998,2023-06-19T14:01:52Z,2268471.463,NULL,Orientierung,urekebisho,d,NA,NA,NA,NA,sdfdsf,NA,1,NA,NA,NA,NA,NA,NA,NA,NA,NA,NA,NA,NA,NA,NA,NA,NA,NA,NA,NA
a3428,block,flow.Loop,3_0_1_0,NA,NA,completion,125163.644,2143275.5999999,2143274.479,2143291.187,2268454.831,2268455.7999997,2023-06-19T14:01:52Z,2268471.463,NULL,NA,NA,NA,NA,NA,NA,NA,sdfdsf,NA,1,NA,NA,NA,NA,NA,NA,NA,NA,NA,NA,NA,NA,NA,NA,NA,NA,NA,NA,NA
a3428,weiter,canvas.Screen,3_0_1_1,sdf,keypress(Space),response,1638.037,2268455.8999996,2268454.831,2268471.463,2270109.5,2270110,2023-06-19T14:01:54Z,2270153.387,NULL,NA,NA,NA,NA,NA,NA,NA,sdfdsf,NA,1,NA,NA,NA,NA,NA,NA,NA,NA,NA,NA,NA,NA,NA,NA,NA,NA,NA,NA,NA
a3428,check continue,flow.Sequence,3_0_1,NA,NA,completion,126818.313,2143275.5999999,2143274.479,2143291.187,2270109.5,2270110.0999999,2023-06-19T14:01:54Z,2270153.387,NULL,NA,NA,NA,NA,NA,NA,NA,sdfdsf,NA,1,NA,NA,NA,NA,NA,NA,NA,NA,NA,NA,NA,NA,NA,NA,NA,NA,NA,NA,NA
a3428,Deep Question,html.Page,3_0_2_0_0_0_0,NA,NA,form submission,8175.1129999999,2270149.1999998,2270136.683,2270153.387,2278328.5,2278328.7999997,2023-06-19T14:02:02Z,2278329.989,NULL,Vergnügen,kichekesho,d,NA,NA,NA,kichekesho,NA,NA,2,NA,NA,NA,NA,NA,NA,NA,NA,NA,NA,NA,NA,NA,NA,NA,NA,NA,NA,NA
a3428,"""Richtig""-Screen",canvas.Screen,3_0_2_0_0_0_1,NA,NA,timeout,4995.8819999998,2278330.7999997,2278313.384,2278329.989,2283309.261,2283309.6999998,2023-06-19T14:02:07Z,2283325.871,NULL,Vergnügen,kichekesho,d,NA,NA,NA,NA,sdf,1,2,NA,NA,NA,NA,NA,NA,NA,NA,NA,NA,NA,NA,NA,NA,NA,NA,NA,NA,NA
a3428,"""Falsch""-Screen",canvas.Screen,3_0_2_0_0_0_2,NA,NA,skipped,NA,2283311.8999996,NA,NA,2283309.261,2283312.1999998,2023-06-19T14:02:07Z,2283325.871,NULL,Vergnügen,kichekesho,d,NA,NA,NA,NA,sdf,NA,2,NA,NA,NA,NA,NA,NA,NA,NA,NA,NA,NA,NA,NA,NA,NA,NA,NA,NA,NA
a3428,deep,flow.Sequence,3_0_2_0_0_0,NA,NA,completion,13155.874,2270149.1999998,2270136.683,2270153.387,2283309.261,2283312.2999997,2023-06-19T14:02:07Z,2283325.871,NULL,Vergnügen,kichekesho,d,NA,NA,NA,NA,sdf,NA,2,NA,NA,NA,NA,NA,NA,NA,NA,NA,NA,NA,NA,NA,NA,NA,NA,NA,NA,NA
a3428,shallow,flow.Sequence,3_0_2_0_0_1,NA,NA,skipped,NA,2283312.3999996,NA,NA,2283309.261,2283312.5,2023-06-19T14:02:07Z,2283325.871,NULL,Vergnügen,kichekesho,d,NA,NA,NA,NA,sdf,NA,2,NA,NA,NA,NA,NA,NA,NA,NA,NA,NA,NA,NA,NA,NA,NA,NA,NA,NA,NA
a3428,task,flow.Sequence,3_0_2_0_0,NA,NA,completion,13155.874,2270149.1999998,2270136.683,2270153.387,2283309.261,2283312.5,2023-06-19T14:02:07Z,2283325.871,NULL,Vergnügen,kichekesho,d,NA,NA,NA,NA,sdf,NA,2,NA,NA,NA,NA,NA,NA,NA,NA,NA,NA,NA,NA,NA,NA,NA,NA,NA,NA,NA
a3428,deep,flow.Sequence,3_0_2_0_1_0,NA,NA,skipped,NA,2283312.5999999,NA,NA,2283309.261,2283312.6999998,2023-06-19T14:02:07Z,2283325.871,NULL,Stimmung,kinyongo,s,kilekile,kisambo,madhehebu,NA,sdf,NA,2,NA,NA,NA,NA,NA,NA,NA,NA,NA,NA,NA,NA,NA,NA,NA,NA,NA,NA,NA
a3428,Shallow Question,html.Page,3_0_2_0_1_1_0,NA,NA,form submission,10008.228999905,2283312.7999997,2283309.261,2283325.871,2293334.0999999,2293334.5,2023-06-19T14:02:17Z,2293352.165,NULL,Stimmung,kinyongo,s,kilekile,kisambo,madhehebu,kinyongo,NA,NA,2,NA,NA,NA,NA,NA,NA,NA,NA,NA,NA,NA,NA,NA,NA,NA,NA,NA,NA,NA
a3428,"""Richtig""-Screen",canvas.Screen,3_0_2_0_1_1_1,NA,NA,timeout,4994.7349999999,2293336.5999999,2293317.535,2293352.165,2298330.237,2298330.6999998,2023-06-19T14:02:22Z,2298346.9,NULL,Stimmung,kinyongo,s,kilekile,kisambo,madhehebu,NA,sdf,1,2,NA,NA,NA,NA,NA,NA,NA,NA,NA,NA,NA,NA,NA,NA,NA,NA,NA,NA,NA
a3428,"""Falsch""-Screen",canvas.Screen,3_0_2_0_1_1_2,NA,NA,skipped,NA,2298332.8999996,NA,NA,2298330.237,2298333,2023-06-19T14:02:22Z,2298346.9,NULL,Stimmung,kinyongo,s,kilekile,kisambo,madhehebu,NA,sdf,NA,2,NA,NA,NA,NA,NA,NA,NA,NA,NA,NA,NA,NA,NA,NA,NA,NA,NA,NA,NA
a3428,shallow,flow.Sequence,3_0_2_0_1_1,NA,NA,completion,15004.366,2283312.7999997,2283309.261,2283325.871,2298330.237,2298333.1999998,2023-06-19T14:02:22Z,2298346.9,NULL,Stimmung,kinyongo,s,kilekile,kisambo,madhehebu,NA,sdf,NA,2,NA,NA,NA,NA,NA,NA,NA,NA,NA,NA,NA,NA,NA,NA,NA,NA,NA,NA,NA
a3428,task,flow.Sequence,3_0_2_0_1,NA,NA,completion,15004.366,2283312.5999999,2283309.261,2283325.871,2298330.237,2298333.3999996,2023-06-19T14:02:22Z,2298346.9,NULL,Stimmung,kinyongo,s,kilekile,kisambo,madhehebu,NA,sdf,NA,2,NA,NA,NA,NA,NA,NA,NA,NA,NA,NA,NA,NA,NA,NA,NA,NA,NA,NA,NA
a3428,Deep Question,html.Page,3_0_2_0_2_0_0,NA,NA,form submission,13780.1,2298333.3999996,2298330.237,2298346.9,2312127,2312127.2999997,2023-06-19T14:02:36Z,2312135.493,NULL,Orientierung,urekebisho,d,NA,NA,NA,bi,NA,NA,2,NA,NA,NA,NA,NA,NA,NA,NA,NA,NA,NA,NA,NA,NA,NA,NA,NA,NA,NA
a3428,"""Richtig""-Screen",canvas.Screen,3_0_2_0_2_0_1,NA,NA,skipped,NA,2312129.6999998,NA,NA,2312127,2312129.7999997,2023-06-19T14:02:36Z,2312135.493,NULL,Orientierung,urekebisho,d,NA,NA,NA,NA,sdf,NA,2,NA,NA,NA,NA,NA,NA,NA,NA,NA,NA,NA,NA,NA,NA,NA,NA,NA,NA,NA
a3428,"""Falsch""-Screen",canvas.Screen,3_0_2_0_2_0_2,NA,NA,timeout,4995.9270000001,2312130.6999998,2312118.88,2312135.493,2317114.781,2317115.1999998,2023-06-19T14:02:41Z,2317131.42,NULL,Orientierung,urekebisho,d,NA,NA,NA,NA,sdf,0,2,NA,NA,NA,NA,NA,NA,NA,NA,NA,NA,NA,NA,NA,NA,NA,NA,NA,NA,NA
a3428,deep,flow.Sequence,3_0_2_0_2_0,NA,NA,completion,18767.881,2298333.3999996,2298330.237,2298346.9,2317114.781,2317115.2999997,2023-06-19T14:02:41Z,2317131.42,NULL,Orientierung,urekebisho,d,NA,NA,NA,NA,sdf,NA,2,NA,NA,NA,NA,NA,NA,NA,NA,NA,NA,NA,NA,NA,NA,NA,NA,NA,NA,NA
a3428,shallow,flow.Sequence,3_0_2_0_2_1,NA,NA,skipped,NA,2317115.3999996,NA,NA,2317114.781,2317115.5,2023-06-19T14:02:41Z,2317131.42,NULL,Orientierung,urekebisho,d,NA,NA,NA,NA,sdf,NA,2,NA,NA,NA,NA,NA,NA,NA,NA,NA,NA,NA,NA,NA,NA,NA,NA,NA,NA,NA
a3428,task,flow.Sequence,3_0_2_0_2,NA,NA,completion,18767.881,2298333.3999996,2298330.237,2298346.9,2317114.781,2317116.0999999,2023-06-19T14:02:41Z,2317131.42,NULL,Orientierung,urekebisho,d,NA,NA,NA,NA,sdf,NA,2,NA,NA,NA,NA,NA,NA,NA,NA,NA,NA,NA,NA,NA,NA,NA,NA,NA,NA,NA
a3428,Deep Question,html.Page,3_0_2_0_3_0_0,NA,NA,form submission,9948.879999714,2317116.0999999,2317114.781,2317131.42,2327080.2999997,2327080.5,2023-06-19T14:02:51Z,2327089.881,NULL,Notfall,dharura,d,NA,NA,NA,dharura,NA,NA,2,NA,NA,NA,NA,NA,NA,NA,NA,NA,NA,NA,NA,NA,NA,NA,NA,NA,NA,NA
a3428,"""Richtig""-Screen",canvas.Screen,3_0_2_0_3_0_1,NA,NA,timeout,4995.895,2327083,2327073.278,2327089.881,2332069.133,2332069.5999999,2023-06-19T14:02:56Z,2332085.776,NULL,Notfall,dharura,d,NA,NA,NA,NA,sdf,1,2,NA,NA,NA,NA,NA,NA,NA,NA,NA,NA,NA,NA,NA,NA,NA,NA,NA,NA,NA
a3428,"""Falsch""-Screen",canvas.Screen,3_0_2_0_3_0_2,NA,NA,skipped,NA,2332071.8999996,NA,NA,2332069.133,2332072.0999999,2023-06-19T14:02:56Z,2332085.776,NULL,Notfall,dharura,d,NA,NA,NA,NA,sdf,NA,2,NA,NA,NA,NA,NA,NA,NA,NA,NA,NA,NA,NA,NA,NA,NA,NA,NA,NA,NA
a3428,deep,flow.Sequence,3_0_2_0_3_0,NA,NA,completion,14937.713,2317116.0999999,2317114.781,2317131.42,2332069.133,2332072.2999997,2023-06-19T14:02:56Z,2332085.776,NULL,Notfall,dharura,d,NA,NA,NA,NA,sdf,NA,2,NA,NA,NA,NA,NA,NA,NA,NA,NA,NA,NA,NA,NA,NA,NA,NA,NA,NA,NA
a3428,shallow,flow.Sequence,3_0_2_0_3_1,NA,NA,skipped,NA,2332072.3999996,NA,NA,2332069.133,2332072.5,2023-06-19T14:02:56Z,2332085.776,NULL,Notfall,dharura,d,NA,NA,NA,NA,sdf,NA,2,NA,NA,NA,NA,NA,NA,NA,NA,NA,NA,NA,NA,NA,NA,NA,NA,NA,NA,NA
a3428,task,flow.Sequence,3_0_2_0_3,NA,NA,completion,14937.713,2317116.0999999,2317114.781,2317131.42,2332069.133,2332072.5999999,2023-06-19T14:02:56Z,2332085.776,NULL,Notfall,dharura,d,NA,NA,NA,NA,sdf,NA,2,NA,NA,NA,NA,NA,NA,NA,NA,NA,NA,NA,NA,NA,NA,NA,NA,NA,NA,NA
a3428,deep,flow.Sequence,3_0_2_0_4_0,NA,NA,skipped,NA,2332072.6999998,NA,NA,2332069.133,2332072.7999997,2023-06-19T14:02:56Z,2332085.776,NULL,Betrüger,mdanganyifu,s,mwanamuziki,wastani,mahakama,NA,sdf,NA,2,NA,NA,NA,NA,NA,NA,NA,NA,NA,NA,NA,NA,NA,NA,NA,NA,NA,NA,NA
a3428,Shallow Question,html.Page,3_0_2_0_4_1_0,NA,NA,form submission,8944.8239999046,2332072.8999996,2332069.133,2332085.776,2341030.5999999,2341030.7999997,2023-06-19T14:03:05Z,2341045.071,NULL,Betrüger,mdanganyifu,s,mwanamuziki,wastani,mahakama,mdanganyifu,NA,NA,2,NA,NA,NA,NA,NA,NA,NA,NA,NA,NA,NA,NA,NA,NA,NA,NA,NA,NA,NA
a3428,"""Richtig""-Screen",canvas.Screen,3_0_2_0_4_1_1,NA,NA,timeout,4995.8859999999,2341032.5,2341028.372,2341045.071,2346024.312,2346024.7999997,2023-06-19T14:03:10Z,2346040.957,NULL,Betrüger,mdanganyifu,s,mwanamuziki,wastani,mahakama,NA,sdf,1,2,NA,NA,NA,NA,NA,NA,NA,NA,NA,NA,NA,NA,NA,NA,NA,NA,NA,NA,NA
a3428,"""Falsch""-Screen",canvas.Screen,3_0_2_0_4_1_2,NA,NA,skipped,NA,2346026.8999996,NA,NA,2346024.312,2346027,2023-06-19T14:03:10Z,2346040.957,NULL,Betrüger,mdanganyifu,s,mwanamuziki,wastani,mahakama,NA,sdf,NA,2,NA,NA,NA,NA,NA,NA,NA,NA,NA,NA,NA,NA,NA,NA,NA,NA,NA,NA,NA
a3428,shallow,flow.Sequence,3_0_2_0_4_1,NA,NA,completion,13938.536,2332072.7999997,2332069.133,2332085.776,2346024.312,2346027.0999999,2023-06-19T14:03:10Z,2346040.957,NULL,Betrüger,mdanganyifu,s,mwanamuziki,wastani,mahakama,NA,sdf,NA,2,NA,NA,NA,NA,NA,NA,NA,NA,NA,NA,NA,NA,NA,NA,NA,NA,NA,NA,NA
a3428,task,flow.Sequence,3_0_2_0_4,NA,NA,completion,13938.536,2332072.6999998,2332069.133,2332085.776,2346024.312,2346027.1999998,2023-06-19T14:03:10Z,2346040.957,NULL,Betrüger,mdanganyifu,s,mwanamuziki,wastani,mahakama,NA,sdf,NA,2,NA,NA,NA,NA,NA,NA,NA,NA,NA,NA,NA,NA,NA,NA,NA,NA,NA,NA,NA
a3428,deep,flow.Sequence,3_0_2_0_5_0,NA,NA,skipped,NA,2346027.2999997,NA,NA,2346024.312,2346027.2999997,2023-06-19T14:03:10Z,2346040.957,NULL,Wohlstand,mafanikio,s,chimbuko,kumbuko,mapwaji,NA,sdf,NA,2,NA,NA,NA,NA,NA,NA,NA,NA,NA,NA,NA,NA,NA,NA,NA,NA,NA,NA,NA
a3428,Shallow Question,html.Page,3_0_2_0_5_1_0,NA,NA,form submission,17203.942999619,2346027.5,2346024.312,2346040.957,2363244.8999996,2363245.0999999,2023-06-19T14:03:27Z,2363260.128,NULL,Wohlstand,mafanikio,s,chimbuko,kumbuko,mapwaji,mafanikio,NA,NA,2,NA,NA,NA,NA,NA,NA,NA,NA,NA,NA,NA,NA,NA,NA,NA,NA,NA,NA,NA
a3428,"""Richtig""-Screen",canvas.Screen,3_0_2_0_5_1_1,NA,NA,timeout,4995.8939999999,2363247.5,2363243.251,2363260.128,2368239.34,2368239.7999997,2023-06-19T14:03:32Z,2368256.022,NULL,Wohlstand,mafanikio,s,chimbuko,kumbuko,mapwaji,NA,sdf,1,2,NA,NA,NA,NA,NA,NA,NA,NA,NA,NA,NA,NA,NA,NA,NA,NA,NA,NA,NA
a3428,"""Falsch""-Screen",canvas.Screen,3_0_2_0_5_1_2,NA,NA,skipped,NA,2368242,NA,NA,2368239.34,2368242.1999998,2023-06-19T14:03:32Z,2368256.022,NULL,Wohlstand,mafanikio,s,chimbuko,kumbuko,mapwaji,NA,sdf,NA,2,NA,NA,NA,NA,NA,NA,NA,NA,NA,NA,NA,NA,NA,NA,NA,NA,NA,NA,NA
a3428,shallow,flow.Sequence,3_0_2_0_5_1,NA,NA,completion,22198.383,2346027.3999996,2346024.312,2346040.957,2368239.34,2368242.3999996,2023-06-19T14:03:32Z,2368256.022,NULL,Wohlstand,mafanikio,s,chimbuko,kumbuko,mapwaji,NA,sdf,NA,2,NA,NA,NA,NA,NA,NA,NA,NA,NA,NA,NA,NA,NA,NA,NA,NA,NA,NA,NA
a3428,task,flow.Sequence,3_0_2_0_5,NA,NA,completion,22198.383,2346027.2999997,2346024.312,2346040.957,2368239.34,2368242.5,2023-06-19T14:03:32Z,2368256.022,NULL,Wohlstand,mafanikio,s,chimbuko,kumbuko,mapwaji,NA,sdf,NA,2,NA,NA,NA,NA,NA,NA,NA,NA,NA,NA,NA,NA,NA,NA,NA,NA,NA,NA,NA
a3428,Deep Question,html.Page,3_0_2_0_6_0_0,NA,NA,form submission,6062.9780000001,2368242.5999999,2368239.34,2368256.022,2374319,2374319.3999996,2023-06-19T14:03:38Z,2374334.276,NULL,Respekt,heshima,d,NA,NA,NA,gb,NA,NA,2,NA,NA,NA,NA,NA,NA,NA,NA,NA,NA,NA,NA,NA,NA,NA,NA,NA,NA,NA
a3428,"""Richtig""-Screen",canvas.Screen,3_0_2_0_6_0_1,NA,NA,skipped,NA,2374322,NA,NA,2374319,2374322.1999998,2023-06-19T14:03:38Z,2374334.276,NULL,Respekt,heshima,d,NA,NA,NA,NA,sdf,NA,2,NA,NA,NA,NA,NA,NA,NA,NA,NA,NA,NA,NA,NA,NA,NA,NA,NA,NA,NA
a3428,"""Falsch""-Screen",canvas.Screen,3_0_2_0_6_0_2,NA,NA,timeout,4995.9410000001,2374323.0999999,2374317.666,2374334.276,2379313.576,2379314.0999999,2023-06-19T14:03:43Z,2379330.217,NULL,Respekt,heshima,d,NA,NA,NA,NA,sdf,0,2,NA,NA,NA,NA,NA,NA,NA,NA,NA,NA,NA,NA,NA,NA,NA,NA,NA,NA,NA
a3428,deep,flow.Sequence,3_0_2_0_6_0,NA,NA,completion,11057.554,2368242.5999999,2368239.34,2368256.022,2379313.576,2379314.2999997,2023-06-19T14:03:43Z,2379330.217,NULL,Respekt,heshima,d,NA,NA,NA,NA,sdf,NA,2,NA,NA,NA,NA,NA,NA,NA,NA,NA,NA,NA,NA,NA,NA,NA,NA,NA,NA,NA
a3428,shallow,flow.Sequence,3_0_2_0_6_1,NA,NA,skipped,NA,2379314.2999997,NA,NA,2379313.576,2379314.3999996,2023-06-19T14:03:43Z,2379330.217,NULL,Respekt,heshima,d,NA,NA,NA,NA,sdf,NA,2,NA,NA,NA,NA,NA,NA,NA,NA,NA,NA,NA,NA,NA,NA,NA,NA,NA,NA,NA
a3428,task,flow.Sequence,3_0_2_0_6,NA,NA,completion,11057.554,2368242.5999999,2368239.34,2368256.022,2379313.576,2379314.5,2023-06-19T14:03:43Z,2379330.217,NULL,Respekt,heshima,d,NA,NA,NA,NA,sdf,NA,2,NA,NA,NA,NA,NA,NA,NA,NA,NA,NA,NA,NA,NA,NA,NA,NA,NA,NA,NA
a3428,deep,flow.Sequence,3_0_2_0_7_0,NA,NA,skipped,NA,2379314.5999999,NA,NA,2379313.576,2379314.6999998,2023-06-19T14:03:43Z,2379330.217,NULL,Ergänzung,kijalizo,s,ulaghai,mustarehe,matangazo,NA,sdf,NA,2,NA,NA,NA,NA,NA,NA,NA,NA,NA,NA,NA,NA,NA,NA,NA,NA,NA,NA,NA
a3428,Shallow Question,html.Page,3_0_2_0_7_1_0,NA,NA,form submission,13328.982999809,2379314.7999997,2379313.576,2379330.217,2392659.1999998,2392659.3999996,2023-06-19T14:03:56Z,2392669.238,NULL,Ergänzung,kijalizo,s,ulaghai,mustarehe,matangazo,kijalizo,NA,NA,2,NA,NA,NA,NA,NA,NA,NA,NA,NA,NA,NA,NA,NA,NA,NA,NA,NA,NA,NA
a3428,"""Richtig""-Screen",canvas.Screen,3_0_2_0_7_1_1,NA,NA,timeout,4995.9020000002,2392661.0999999,2392652.548,2392669.238,2397648.47,2397649,2023-06-19T14:04:01Z,2397665.14,NULL,Ergänzung,kijalizo,s,ulaghai,mustarehe,matangazo,NA,sdf,1,2,NA,NA,NA,NA,NA,NA,NA,NA,NA,NA,NA,NA,NA,NA,NA,NA,NA,NA,NA
a3428,"""Falsch""-Screen",canvas.Screen,3_0_2_0_7_1_2,NA,NA,skipped,NA,2397651.1999998,NA,NA,2397648.47,2397651.2999997,2023-06-19T14:04:01Z,2397665.14,NULL,Ergänzung,kijalizo,s,ulaghai,mustarehe,matangazo,NA,sdf,NA,2,NA,NA,NA,NA,NA,NA,NA,NA,NA,NA,NA,NA,NA,NA,NA,NA,NA,NA,NA
a3428,shallow,flow.Sequence,3_0_2_0_7_1,NA,NA,completion,18318.253,2379314.6999998,2379313.576,2379330.217,2397648.47,2397651.5,2023-06-19T14:04:01Z,2397665.14,NULL,Ergänzung,kijalizo,s,ulaghai,mustarehe,matangazo,NA,sdf,NA,2,NA,NA,NA,NA,NA,NA,NA,NA,NA,NA,NA,NA,NA,NA,NA,NA,NA,NA,NA
a3428,task,flow.Sequence,3_0_2_0_7,NA,NA,completion,18318.253,2379314.5999999,2379313.576,2379330.217,2397648.47,2397651.5999999,2023-06-19T14:04:01Z,2397665.14,NULL,Ergänzung,kijalizo,s,ulaghai,mustarehe,matangazo,NA,sdf,NA,2,NA,NA,NA,NA,NA,NA,NA,NA,NA,NA,NA,NA,NA,NA,NA,NA,NA,NA,NA
a3428,block,flow.Loop,3_0_2_0,NA,NA,completion,127495.083,2270149.0999999,2270136.683,2270153.387,2397648.47,2397651.7999997,2023-06-19T14:04:01Z,2397665.14,NULL,NA,NA,NA,NA,NA,NA,NA,sdf,NA,2,NA,NA,NA,NA,NA,NA,NA,NA,NA,NA,NA,NA,NA,NA,NA,NA,NA,NA,NA
a3428,weiter,canvas.Screen,3_0_2_1,sdf,keypress(Space),response,1073.4599999045,2397651.7999997,2397648.47,2397665.14,2398738.5999999,2398739.0999999,2023-06-19T14:04:02Z,2399513.579,NULL,NA,NA,NA,NA,NA,NA,NA,sdf,NA,2,NA,NA,NA,NA,NA,NA,NA,NA,NA,NA,NA,NA,NA,NA,NA,NA,NA,NA,NA
a3428,check continue,flow.Sequence,3_0_2,NA,NA,completion,128585.2129999,2270149.0999999,2270136.683,2270153.387,2398738.5999999,2398739.1999998,2023-06-19T14:04:02Z,2399513.579,NULL,NA,NA,NA,NA,NA,NA,NA,sdf,NA,2,NA,NA,NA,NA,NA,NA,NA,NA,NA,NA,NA,NA,NA,NA,NA,NA,NA,NA,NA
a3428,check continue,flow.Sequence,3_0_3,NA,NA,skipped,NA,2398775.8999996,NA,NA,2398738.5999999,2398776,2023-06-19T14:04:02Z,2399513.579,NULL,NA,NA,NA,NA,NA,NA,NA,qt,NA,3,NA,NA,NA,NA,NA,NA,NA,NA,NA,NA,NA,NA,NA,NA,NA,NA,NA,NA,NA
a3428,check continue,flow.Sequence,3_0_4,NA,NA,skipped,NA,2398817.8999996,NA,NA,2398738.5999999,2398818.0999999,2023-06-19T14:04:02Z,2399513.579,NULL,NA,NA,NA,NA,NA,NA,NA,sd,NA,4,NA,NA,NA,NA,NA,NA,NA,NA,NA,NA,NA,NA,NA,NA,NA,NA,NA,NA,NA
a3428,check continue,flow.Sequence,3_0_5,NA,NA,skipped,NA,2398850.6999998,NA,NA,2398738.5999999,2398850.7999997,2023-06-19T14:04:02Z,2399513.579,NULL,NA,NA,NA,NA,NA,NA,NA,sdf,NA,5,NA,NA,NA,NA,NA,NA,NA,NA,NA,NA,NA,NA,NA,NA,NA,NA,NA,NA,NA
a3428,check continue,flow.Sequence,3_0_6,NA,NA,skipped,NA,2398874.7999997,NA,NA,2398738.5999999,2398875,2023-06-19T14:04:02Z,2399513.579,NULL,NA,NA,NA,NA,NA,NA,NA,dfs,NA,6,NA,NA,NA,NA,NA,NA,NA,NA,NA,NA,NA,NA,NA,NA,NA,NA,NA,NA,NA
a3428,check continue,flow.Sequence,3_0_7,NA,NA,skipped,NA,2398900,NA,NA,2398738.5999999,2398900.1999998,2023-06-19T14:04:02Z,2399513.579,NULL,NA,NA,NA,NA,NA,NA,NA,df,NA,7,NA,NA,NA,NA,NA,NA,NA,NA,NA,NA,NA,NA,NA,NA,NA,NA,NA,NA,NA
a3428,check continue,flow.Sequence,3_0_8,NA,NA,skipped,NA,2398924.7999997,NA,NA,2398738.5999999,2398925,2023-06-19T14:04:02Z,2399513.579,NULL,NA,NA,NA,NA,NA,NA,NA,dfs,NA,8,NA,NA,NA,NA,NA,NA,NA,NA,NA,NA,NA,NA,NA,NA,NA,NA,NA,NA,NA
a3428,check continue,flow.Sequence,3_0_9,NA,NA,skipped,NA,2398947.5,NA,NA,2398738.5999999,2398947.5999999,2023-06-19T14:04:03Z,2399513.579,NULL,NA,NA,NA,NA,NA,NA,NA,dsf,NA,9,NA,NA,NA,NA,NA,NA,NA,NA,NA,NA,NA,NA,NA,NA,NA,NA,NA,NA,NA
a3428,check continue,flow.Sequence,3_0_10,NA,NA,skipped,NA,2398969,NA,NA,2398738.5999999,2398969.0999999,2023-06-19T14:04:03Z,2399513.579,NULL,NA,NA,NA,NA,NA,NA,NA,df,NA,10,NA,NA,NA,NA,NA,NA,NA,NA,NA,NA,NA,NA,NA,NA,NA,NA,NA,NA,NA
a3428,check continue,flow.Sequence,3_0_11,NA,NA,skipped,NA,2398993.7999997,NA,NA,2398738.5999999,2398994,2023-06-19T14:04:03Z,2399513.579,NULL,NA,NA,NA,NA,NA,NA,NA,dfs,NA,11,NA,NA,NA,NA,NA,NA,NA,NA,NA,NA,NA,NA,NA,NA,NA,NA,NA,NA,NA
a3428,check continue,flow.Sequence,3_0_12,NA,NA,skipped,NA,2399027.2999997,NA,NA,2398738.5999999,2399027.3999996,2023-06-19T14:04:03Z,2399513.579,NULL,NA,NA,NA,NA,NA,NA,NA,dsf,NA,12,NA,NA,NA,NA,NA,NA,NA,NA,NA,NA,NA,NA,NA,NA,NA,NA,NA,NA,NA
a3428,check continue,flow.Sequence,3_0_13,NA,NA,skipped,NA,2399057.2999997,NA,NA,2398738.5999999,2399057.5,2023-06-19T14:04:03Z,2399513.579,NULL,NA,NA,NA,NA,NA,NA,NA,dsf,NA,13,NA,NA,NA,NA,NA,NA,NA,NA,NA,NA,NA,NA,NA,NA,NA,NA,NA,NA,NA
a3428,check continue,flow.Sequence,3_0_14,NA,NA,skipped,NA,2399080,NA,NA,2398738.5999999,2399080,2023-06-19T14:04:03Z,2399513.579,NULL,NA,NA,NA,NA,NA,NA,NA,NA,NA,14,NA,NA,NA,NA,NA,NA,NA,NA,NA,NA,NA,NA,NA,NA,NA,NA,NA,NA,NA
a3428,check continue,flow.Sequence,3_0_15,NA,NA,skipped,NA,2399102.3999996,NA,NA,2398738.5999999,2399102.5,2023-06-19T14:04:03Z,2399513.579,NULL,NA,NA,NA,NA,NA,NA,NA,NA,NA,15,NA,NA,NA,NA,NA,NA,NA,NA,NA,NA,NA,NA,NA,NA,NA,NA,NA,NA,NA
a3428,check continue,flow.Sequence,3_0_16,NA,NA,skipped,NA,2399134.1999998,NA,NA,2398738.5999999,2399134.2999997,2023-06-19T14:04:03Z,2399513.579,NULL,NA,NA,NA,NA,NA,NA,NA,NA,NA,16,NA,NA,NA,NA,NA,NA,NA,NA,NA,NA,NA,NA,NA,NA,NA,NA,NA,NA,NA
a3428,check continue,flow.Sequence,3_0_17,NA,NA,skipped,NA,2399155.7999997,NA,NA,2398738.5999999,2399155.8999996,2023-06-19T14:04:03Z,2399513.579,NULL,NA,NA,NA,NA,NA,NA,NA,NA,NA,17,NA,NA,NA,NA,NA,NA,NA,NA,NA,NA,NA,NA,NA,NA,NA,NA,NA,NA,NA
a3428,check continue,flow.Sequence,3_0_18,NA,NA,skipped,NA,2399178.0999999,NA,NA,2398738.5999999,2399178.3999996,2023-06-19T14:04:03Z,2399513.579,NULL,NA,NA,NA,NA,NA,NA,NA,NA,NA,18,NA,NA,NA,NA,NA,NA,NA,NA,NA,NA,NA,NA,NA,NA,NA,NA,NA,NA,NA
a3428,check continue,flow.Sequence,3_0_19,NA,NA,skipped,NA,2399200.3999996,NA,NA,2398738.5999999,2399200.5,2023-06-19T14:04:03Z,2399513.579,NULL,NA,NA,NA,NA,NA,NA,NA,NA,NA,19,NA,NA,NA,NA,NA,NA,NA,NA,NA,NA,NA,NA,NA,NA,NA,NA,NA,NA,NA
a3428,check continue,flow.Sequence,3_0_20,NA,NA,skipped,NA,2399234.1999998,NA,NA,2398738.5999999,2399234.5,2023-06-19T14:04:03Z,2399513.579,NULL,NA,NA,NA,NA,NA,NA,NA,NA,NA,20,NA,NA,NA,NA,NA,NA,NA,NA,NA,NA,NA,NA,NA,NA,NA,NA,NA,NA,NA
a3428,check continue,flow.Sequence,3_0_21,NA,NA,skipped,NA,2399258,NA,NA,2398738.5999999,2399258.0999999,2023-06-19T14:04:03Z,2399513.579,NULL,NA,NA,NA,NA,NA,NA,NA,NA,NA,21,NA,NA,NA,NA,NA,NA,NA,NA,NA,NA,NA,NA,NA,NA,NA,NA,NA,NA,NA
a3428,check continue,flow.Sequence,3_0_22,NA,NA,skipped,NA,2399281.1999998,NA,NA,2398738.5999999,2399281.2999997,2023-06-19T14:04:03Z,2399513.579,NULL,NA,NA,NA,NA,NA,NA,NA,NA,NA,22,NA,NA,NA,NA,NA,NA,NA,NA,NA,NA,NA,NA,NA,NA,NA,NA,NA,NA,NA
a3428,check continue,flow.Sequence,3_0_23,NA,NA,skipped,NA,2399308.6999998,NA,NA,2398738.5999999,2399308.7999997,2023-06-19T14:04:03Z,2399513.579,NULL,NA,NA,NA,NA,NA,NA,NA,NA,NA,23,NA,NA,NA,NA,NA,NA,NA,NA,NA,NA,NA,NA,NA,NA,NA,NA,NA,NA,NA
a3428,check continue,flow.Sequence,3_0_24,NA,NA,skipped,NA,2399337.3999996,NA,NA,2398738.5999999,2399337.5999999,2023-06-19T14:04:03Z,2399513.579,NULL,NA,NA,NA,NA,NA,NA,NA,NA,NA,24,NA,NA,NA,NA,NA,NA,NA,NA,NA,NA,NA,NA,NA,NA,NA,NA,NA,NA,NA
a3428,check continue,flow.Sequence,3_0_25,NA,NA,skipped,NA,2399371.6999998,NA,NA,2398738.5999999,2399371.8999996,2023-06-19T14:04:03Z,2399513.579,NULL,NA,NA,NA,NA,NA,NA,NA,NA,NA,25,NA,NA,NA,NA,NA,NA,NA,NA,NA,NA,NA,NA,NA,NA,NA,NA,NA,NA,NA
a3428,check continue,flow.Sequence,3_0_26,NA,NA,skipped,NA,2399396.5,NA,NA,2398738.5999999,2399396.6999998,2023-06-19T14:04:03Z,2399513.579,NULL,NA,NA,NA,NA,NA,NA,NA,NA,NA,26,NA,NA,NA,NA,NA,NA,NA,NA,NA,NA,NA,NA,NA,NA,NA,NA,NA,NA,NA
a3428,check continue,flow.Sequence,3_0_27,NA,NA,skipped,NA,2399426.2999997,NA,NA,2398738.5999999,2399426.5,2023-06-19T14:04:03Z,2399513.579,NULL,NA,NA,NA,NA,NA,NA,NA,NA,NA,27,NA,NA,NA,NA,NA,NA,NA,NA,NA,NA,NA,NA,NA,NA,NA,NA,NA,NA,NA
a3428,check continue,flow.Sequence,3_0_28,NA,NA,skipped,NA,2399463.2999997,NA,NA,2398738.5999999,2399463.5,2023-06-19T14:04:03Z,2399513.579,NULL,NA,NA,NA,NA,NA,NA,NA,NA,NA,28,NA,NA,NA,NA,NA,NA,NA,NA,NA,NA,NA,NA,NA,NA,NA,NA,NA,NA,NA
a3428,check continue,flow.Sequence,3_0_29,NA,NA,skipped,NA,2399496.5999999,NA,NA,2398738.5999999,2399496.7999997,2023-06-19T14:04:03Z,2399513.579,NULL,NA,NA,NA,NA,NA,NA,NA,NA,NA,29,NA,NA,NA,NA,NA,NA,NA,NA,NA,NA,NA,NA,NA,NA,NA,NA,NA,NA,NA
a3428,until continue,flow.Loop,3_0,NA,NA,completion,330452.3839999,2068248.0999999,2068269.3,2068286.216,2398738.5999999,2399497.0999999,2023-06-19T14:04:03Z,2399513.579,NULL,NA,NA,NA,NA,NA,NA,NA,NA,NA,NA,NA,NA,NA,NA,NA,NA,NA,NA,NA,NA,NA,NA,NA,NA,NA,NA,NA,NA,NA
a3428,block 1,flow.Sequence,3,NA,NA,completion,330452.3839999,2068248,2068269.3,2068286.216,2398738.5999999,2399497.0999999,2023-06-19T14:04:03Z,2399513.579,NULL,NA,NA,NA,NA,NA,NA,NA,NA,NA,NA,NA,NA,NA,NA,NA,NA,NA,NA,NA,NA,NA,NA,NA,NA,NA,NA,NA,NA,NA
a3428,1.Part Over,canvas.Screen,4,NA,keypress(Space),response,2196.720999714,2399497.1999998,2399496.832,2399513.579,2401710.2999997,2401710.7999997,2023-06-19T14:04:05Z,2401795.275,NULL,NA,NA,NA,NA,NA,NA,NA,NA,NA,NA,NA,NA,NA,NA,NA,NA,NA,NA,NA,NA,NA,NA,NA,NA,NA,NA,NA,NA,NA
a3428,Deep Question,html.Page,5_0_0_0_0_0_0,NA,NA,form submission,4711.9249998094,2401786.8999996,2401778.236,2401795.275,2406507.1999998,2406507.3999996,2023-06-19T14:04:10Z,2406524.975,NULL,Schüler,mwanafunzi,d,NA,NA,NA,uojki,NA,NA,0,NA,NA,NA,NA,NA,NA,NA,NA,NA,NA,NA,NA,NA,NA,NA,NA,NA,NA,NA
a3428,"""Richtig""-Screen",canvas.Screen,5_0_0_0_0_0_1,NA,NA,skipped,NA,2406510.2999997,NA,NA,2406507.1999998,2406510.3999996,2023-06-19T14:04:10Z,2406524.975,NULL,Schüler,mwanafunzi,d,NA,NA,NA,NA,sdf,NA,0,NA,NA,NA,NA,NA,NA,NA,NA,NA,NA,NA,NA,NA,NA,NA,NA,NA,NA,NA
a3428,"""Falsch""-Screen",canvas.Screen,5_0_0_0_0_0_2,NA,NA,timeout,4995.4199999999,2406511.2999997,2406491.249,2406524.975,2411503.736,2411504.1999998,2023-06-19T14:04:15Z,2411520.395,NULL,Schüler,mwanafunzi,d,NA,NA,NA,NA,sdf,0,0,NA,NA,NA,NA,NA,NA,NA,NA,NA,NA,NA,NA,NA,NA,NA,NA,NA,NA,NA
a3428,deep,flow.Sequence,5_0_0_0_0_0,NA,NA,completion,9708.4610000001,2401786.8999996,2401778.236,2401795.275,2411503.736,2411504.3999996,2023-06-19T14:04:15Z,2411520.395,NULL,Schüler,mwanafunzi,d,NA,NA,NA,NA,sdf,NA,0,NA,NA,NA,NA,NA,NA,NA,NA,NA,NA,NA,NA,NA,NA,NA,NA,NA,NA,NA
a3428,shallow,flow.Sequence,5_0_0_0_0_1,NA,NA,skipped,NA,2411504.5,NA,NA,2411503.736,2411504.5,2023-06-19T14:04:15Z,2411520.395,NULL,Schüler,mwanafunzi,d,NA,NA,NA,NA,sdf,NA,0,NA,NA,NA,NA,NA,NA,NA,NA,NA,NA,NA,NA,NA,NA,NA,NA,NA,NA,NA
a3428,task,flow.Sequence,5_0_0_0_0,NA,NA,completion,9708.4610000001,2401786.8999996,2401778.236,2401795.275,2411503.736,2411504.5999999,2023-06-19T14:04:15Z,2411520.395,NULL,Schüler,mwanafunzi,d,NA,NA,NA,NA,sdf,NA,0,NA,NA,NA,NA,NA,NA,NA,NA,NA,NA,NA,NA,NA,NA,NA,NA,NA,NA,NA
a3428,Deep Question,html.Page,5_0_0_0_1_0_0,NA,NA,form submission,8937.2049999046,2411504.6999998,2411503.736,2411520.395,2420457.5999999,2420457.8999996,2023-06-19T14:04:24Z,2420462.98,NULL,Papier,karatasi,d,NA,NA,NA,zijhu,NA,NA,0,NA,NA,NA,NA,NA,NA,NA,NA,NA,NA,NA,NA,NA,NA,NA,NA,NA,NA,NA
a3428,"""Richtig""-Screen",canvas.Screen,5_0_0_0_1_0_1,NA,NA,skipped,NA,2420460.3999996,NA,NA,2420457.5999999,2420460.5,2023-06-19T14:04:24Z,2420462.98,NULL,Papier,karatasi,d,NA,NA,NA,NA,sdf,NA,0,NA,NA,NA,NA,NA,NA,NA,NA,NA,NA,NA,NA,NA,NA,NA,NA,NA,NA,NA
a3428,"""Falsch""-Screen",canvas.Screen,5_0_0_0_1_0_2,NA,NA,timeout,4995.9180000001,2420461.5,2420446.371,2420462.98,2425442.262,2425444.2999997,2023-06-19T14:04:29Z,2425458.898,NULL,Papier,karatasi,d,NA,NA,NA,NA,sdf,0,0,NA,NA,NA,NA,NA,NA,NA,NA,NA,NA,NA,NA,NA,NA,NA,NA,NA,NA,NA
a3428,deep,flow.Sequence,5_0_0_0_1_0,NA,NA,completion,13921.867,2411504.6999998,2411503.736,2411520.395,2425442.262,2425444.5,2023-06-19T14:04:29Z,2425458.898,NULL,Papier,karatasi,d,NA,NA,NA,NA,sdf,NA,0,NA,NA,NA,NA,NA,NA,NA,NA,NA,NA,NA,NA,NA,NA,NA,NA,NA,NA,NA
a3428,shallow,flow.Sequence,5_0_0_0_1_1,NA,NA,skipped,NA,2425444.5999999,NA,NA,2425442.262,2425444.5999999,2023-06-19T14:04:29Z,2425458.898,NULL,Papier,karatasi,d,NA,NA,NA,NA,sdf,NA,0,NA,NA,NA,NA,NA,NA,NA,NA,NA,NA,NA,NA,NA,NA,NA,NA,NA,NA,NA
a3428,task,flow.Sequence,5_0_0_0_1,NA,NA,completion,13921.867,2411504.6999998,2411503.736,2411520.395,2425442.262,2425444.7999997,2023-06-19T14:04:29Z,2425458.898,NULL,Papier,karatasi,d,NA,NA,NA,NA,sdf,NA,0,NA,NA,NA,NA,NA,NA,NA,NA,NA,NA,NA,NA,NA,NA,NA,NA,NA,NA,NA
a3428,Deep Question,html.Page,5_0_0_0_2_0_0,NA,NA,form submission,3735.9019997139,2425444.8999996,2425442.262,2425458.898,2429194.7999997,2429195,2023-06-19T14:04:33Z,2429222.433,NULL,Tester,wanaojaribu,d,NA,NA,NA,ohkuji,NA,NA,0,NA,NA,NA,NA,NA,NA,NA,NA,NA,NA,NA,NA,NA,NA,NA,NA,NA,NA,NA
a3428,"""Richtig""-Screen",canvas.Screen,5_0_0_0_2_0_1,NA,NA,skipped,NA,2429197.5,NA,NA,2429194.7999997,2429197.6999998,2023-06-19T14:04:33Z,2429222.433,NULL,Tester,wanaojaribu,d,NA,NA,NA,NA,sdf,NA,0,NA,NA,NA,NA,NA,NA,NA,NA,NA,NA,NA,NA,NA,NA,NA,NA,NA,NA,NA
a3428,"""Falsch""-Screen",canvas.Screen,5_0_0_0_2_0_2,NA,NA,timeout,4995.9439999997,2429199,2429205.816,2429222.433,2434201.72,2434202.1999998,2023-06-19T14:04:38Z,2434218.377,NULL,Tester,wanaojaribu,d,NA,NA,NA,NA,sdf,0,0,NA,NA,NA,NA,NA,NA,NA,NA,NA,NA,NA,NA,NA,NA,NA,NA,NA,NA,NA
a3428,deep,flow.Sequence,5_0_0_0_2_0,NA,NA,completion,8742.8220000002,2425444.7999997,2425442.262,2425458.898,2434201.72,2434202.3999996,2023-06-19T14:04:38Z,2434218.377,NULL,Tester,wanaojaribu,d,NA,NA,NA,NA,sdf,NA,0,NA,NA,NA,NA,NA,NA,NA,NA,NA,NA,NA,NA,NA,NA,NA,NA,NA,NA,NA
a3428,shallow,flow.Sequence,5_0_0_0_2_1,NA,NA,skipped,NA,2434202.5,NA,NA,2434201.72,2434202.5999999,2023-06-19T14:04:38Z,2434218.377,NULL,Tester,wanaojaribu,d,NA,NA,NA,NA,sdf,NA,0,NA,NA,NA,NA,NA,NA,NA,NA,NA,NA,NA,NA,NA,NA,NA,NA,NA,NA,NA
a3428,task,flow.Sequence,5_0_0_0_2,NA,NA,completion,8742.8220000002,2425444.7999997,2425442.262,2425458.898,2434201.72,2434202.6999998,2023-06-19T14:04:38Z,2434218.377,NULL,Tester,wanaojaribu,d,NA,NA,NA,NA,sdf,NA,0,NA,NA,NA,NA,NA,NA,NA,NA,NA,NA,NA,NA,NA,NA,NA,NA,NA,NA,NA
a3428,deep,flow.Sequence,5_0_0_0_3_0,NA,NA,skipped,NA,2434202.7999997,NA,NA,2434201.72,2434202.7999997,2023-06-19T14:04:38Z,2434218.377,NULL,Fenster,dirisha,s,walakini,tasawari,maarifa,NA,sdf,NA,0,NA,NA,NA,NA,NA,NA,NA,NA,NA,NA,NA,NA,NA,NA,NA,NA,NA,NA,NA
a3428,Shallow Question,html.Page,5_0_0_0_3_1_0,NA,NA,form submission,3051.1230000001,2434202.8999996,2434201.72,2434218.377,2437269.5,2437269.5999999,2023-06-19T14:04:41Z,2437282.524,NULL,Fenster,dirisha,s,walakini,tasawari,maarifa,dirisha,NA,NA,0,NA,NA,NA,NA,NA,NA,NA,NA,NA,NA,NA,NA,NA,NA,NA,NA,NA,NA,NA
a3428,"""Richtig""-Screen",canvas.Screen,5_0_0_0_3_1_1,NA,NA,timeout,4995.8529999997,2437271.7999997,2437265.888,2437282.524,2442261.733,2442262.1999998,2023-06-19T14:04:46Z,2442278.377,NULL,Fenster,dirisha,s,walakini,tasawari,maarifa,NA,sdf,1,0,NA,NA,NA,NA,NA,NA,NA,NA,NA,NA,NA,NA,NA,NA,NA,NA,NA,NA,NA
a3428,"""Falsch""-Screen",canvas.Screen,5_0_0_0_3_1_2,NA,NA,skipped,NA,2442264,NA,NA,2442261.733,2442264.0999999,2023-06-19T14:04:46Z,2442278.377,NULL,Fenster,dirisha,s,walakini,tasawari,maarifa,NA,sdf,NA,0,NA,NA,NA,NA,NA,NA,NA,NA,NA,NA,NA,NA,NA,NA,NA,NA,NA,NA,NA
a3428,shallow,flow.Sequence,5_0_0_0_3_1,NA,NA,completion,8043.3560000001,2434202.8999996,2434201.72,2434218.377,2442261.733,2442264.1999998,2023-06-19T14:04:46Z,2442278.377,NULL,Fenster,dirisha,s,walakini,tasawari,maarifa,NA,sdf,NA,0,NA,NA,NA,NA,NA,NA,NA,NA,NA,NA,NA,NA,NA,NA,NA,NA,NA,NA,NA
a3428,task,flow.Sequence,5_0_0_0_3,NA,NA,completion,8043.3560000001,2434202.7999997,2434201.72,2434218.377,2442261.733,2442264.2999997,2023-06-19T14:04:46Z,2442278.377,NULL,Fenster,dirisha,s,walakini,tasawari,maarifa,NA,sdf,NA,0,NA,NA,NA,NA,NA,NA,NA,NA,NA,NA,NA,NA,NA,NA,NA,NA,NA,NA,NA
a3428,deep,flow.Sequence,5_0_0_0_4_0,NA,NA,skipped,NA,2442264.3999996,NA,NA,2442261.733,2442264.5,2023-06-19T14:04:46Z,2442278.377,NULL,Vorwurf,mashtaka,s,msukumo,mtangulizi,uenyekiti,NA,sdf,NA,0,NA,NA,NA,NA,NA,NA,NA,NA,NA,NA,NA,NA,NA,NA,NA,NA,NA,NA,NA
a3428,Shallow Question,html.Page,5_0_0_0_4_1_0,NA,NA,form submission,6902.6230000001,2442264.5,2442261.733,2442278.377,2449181,2449181.2999997,2023-06-19T14:04:53Z,2449189.333,NULL,Vorwurf,mashtaka,s,msukumo,mtangulizi,uenyekiti,msukumo,NA,NA,0,NA,NA,NA,NA,NA,NA,NA,NA,NA,NA,NA,NA,NA,NA,NA,NA,NA,NA,NA
a3428,"""Richtig""-Screen",canvas.Screen,5_0_0_0_4_1_1,NA,NA,skipped,NA,2449183.0999999,NA,NA,2449181,2449183.2999997,2023-06-19T14:04:53Z,2449189.333,NULL,Vorwurf,mashtaka,s,msukumo,mtangulizi,uenyekiti,NA,sdf,NA,0,NA,NA,NA,NA,NA,NA,NA,NA,NA,NA,NA,NA,NA,NA,NA,NA,NA,NA,NA
a3428,"""Falsch""-Screen",canvas.Screen,5_0_0_0_4_1_2,NA,NA,timeout,4995.9129999997,2449184,2449172.72,2449189.333,2454168.61,2454169.0999999,2023-06-19T14:04:58Z,2454185.246,NULL,Vorwurf,mashtaka,s,msukumo,mtangulizi,uenyekiti,NA,sdf,0,0,NA,NA,NA,NA,NA,NA,NA,NA,NA,NA,NA,NA,NA,NA,NA,NA,NA,NA,NA
a3428,shallow,flow.Sequence,5_0_0_0_4_1,NA,NA,completion,11890.233,2442264.5,2442261.733,2442278.377,2454168.61,2454169.1999998,2023-06-19T14:04:58Z,2454185.246,NULL,Vorwurf,mashtaka,s,msukumo,mtangulizi,uenyekiti,NA,sdf,NA,0,NA,NA,NA,NA,NA,NA,NA,NA,NA,NA,NA,NA,NA,NA,NA,NA,NA,NA,NA
a3428,task,flow.Sequence,5_0_0_0_4,NA,NA,completion,11890.233,2442264.3999996,2442261.733,2442278.377,2454168.61,2454169.3999996,2023-06-19T14:04:58Z,2454185.246,NULL,Vorwurf,mashtaka,s,msukumo,mtangulizi,uenyekiti,NA,sdf,NA,0,NA,NA,NA,NA,NA,NA,NA,NA,NA,NA,NA,NA,NA,NA,NA,NA,NA,NA,NA
a3428,deep,flow.Sequence,5_0_0_0_5_0,NA,NA,skipped,NA,2454169.5,NA,NA,2454168.61,2454169.5999999,2023-06-19T14:04:58Z,2454185.246,NULL,Entwicklung,maendeleo,s,uangavu,mshindwa,badiliko,NA,sdf,NA,0,NA,NA,NA,NA,NA,NA,NA,NA,NA,NA,NA,NA,NA,NA,NA,NA,NA,NA,NA
a3428,Shallow Question,html.Page,5_0_0_0_5_1_0,NA,NA,form submission,4648.0539997141,2454169.5999999,2454168.61,2454185.246,2458833.2999997,2458833.5999999,2023-06-19T14:05:02Z,2458848.1,NULL,Entwicklung,maendeleo,s,uangavu,mshindwa,badiliko,badiliko,NA,NA,0,NA,NA,NA,NA,NA,NA,NA,NA,NA,NA,NA,NA,NA,NA,NA,NA,NA,NA,NA
a3428,"""Richtig""-Screen",canvas.Screen,5_0_0_0_5_1_1,NA,NA,skipped,NA,2458836.2999997,NA,NA,2458833.2999997,2458836.5,2023-06-19T14:05:02Z,2458848.1,NULL,Entwicklung,maendeleo,s,uangavu,mshindwa,badiliko,NA,sdf,NA,0,NA,NA,NA,NA,NA,NA,NA,NA,NA,NA,NA,NA,NA,NA,NA,NA,NA,NA,NA
a3428,"""Falsch""-Screen",canvas.Screen,5_0_0_0_5_1_2,NA,NA,timeout,4995.875,2458837.2999997,2458831.446,2458848.1,2463827.338,2463827.6999998,2023-06-19T14:05:07Z,2463843.975,NULL,Entwicklung,maendeleo,s,uangavu,mshindwa,badiliko,NA,sdf,0,0,NA,NA,NA,NA,NA,NA,NA,NA,NA,NA,NA,NA,NA,NA,NA,NA,NA,NA,NA
a3428,shallow,flow.Sequence,5_0_0_0_5_1,NA,NA,completion,9642.0920000002,2454169.5999999,2454168.61,2454185.246,2463827.338,2463827.8999996,2023-06-19T14:05:07Z,2463843.975,NULL,Entwicklung,maendeleo,s,uangavu,mshindwa,badiliko,NA,sdf,NA,0,NA,NA,NA,NA,NA,NA,NA,NA,NA,NA,NA,NA,NA,NA,NA,NA,NA,NA,NA
a3428,task,flow.Sequence,5_0_0_0_5,NA,NA,completion,9642.0920000002,2454169.5,2454168.61,2454185.246,2463827.338,2463828,2023-06-19T14:05:07Z,2463843.975,NULL,Entwicklung,maendeleo,s,uangavu,mshindwa,badiliko,NA,sdf,NA,0,NA,NA,NA,NA,NA,NA,NA,NA,NA,NA,NA,NA,NA,NA,NA,NA,NA,NA,NA
a3428,deep,flow.Sequence,5_0_0_0_6_0,NA,NA,skipped,NA,2463828.0999999,NA,NA,2463827.338,2463828.1999998,2023-06-19T14:05:07Z,2463843.975,NULL,Spionage,upelelezi,s,maslahi,utokazo,magangao,NA,sdf,NA,0,NA,NA,NA,NA,NA,NA,NA,NA,NA,NA,NA,NA,NA,NA,NA,NA,NA,NA,NA
a3428,Shallow Question,html.Page,5_0_0_0_6_1_0,NA,NA,form submission,6503.2249998092,2463828.2999997,2463827.338,2463843.975,2470347.1999998,2470347.5,2023-06-19T14:05:14Z,2470355.242,NULL,Spionage,upelelezi,s,maslahi,utokazo,magangao,utokazo,NA,NA,0,NA,NA,NA,NA,NA,NA,NA,NA,NA,NA,NA,NA,NA,NA,NA,NA,NA,NA,NA
a3428,"""Richtig""-Screen",canvas.Screen,5_0_0_0_6_1_1,NA,NA,skipped,NA,2470350.2999997,NA,NA,2470347.1999998,2470350.5,2023-06-19T14:05:14Z,2470355.242,NULL,Spionage,upelelezi,s,maslahi,utokazo,magangao,NA,sdf,NA,0,NA,NA,NA,NA,NA,NA,NA,NA,NA,NA,NA,NA,NA,NA,NA,NA,NA,NA,NA
a3428,"""Falsch""-Screen",canvas.Screen,5_0_0_0_6_1_2,NA,NA,timeout,4995.9049999998,2470351.6999998,2470338.645,2470355.242,2475334.508,2475334.8999996,2023-06-19T14:05:19Z,2475351.147,NULL,Spionage,upelelezi,s,maslahi,utokazo,magangao,NA,sdf,0,0,NA,NA,NA,NA,NA,NA,NA,NA,NA,NA,NA,NA,NA,NA,NA,NA,NA,NA,NA
a3428,shallow,flow.Sequence,5_0_0_0_6_1,NA,NA,completion,11490.533,2463828.2999997,2463827.338,2463843.975,2475334.508,2475335.0999999,2023-06-19T14:05:19Z,2475351.147,NULL,Spionage,upelelezi,s,maslahi,utokazo,magangao,NA,sdf,NA,0,NA,NA,NA,NA,NA,NA,NA,NA,NA,NA,NA,NA,NA,NA,NA,NA,NA,NA,NA
a3428,task,flow.Sequence,5_0_0_0_6,NA,NA,completion,11490.533,2463828.0999999,2463827.338,2463843.975,2475334.508,2475335.2999997,2023-06-19T14:05:19Z,2475351.147,NULL,Spionage,upelelezi,s,maslahi,utokazo,magangao,NA,sdf,NA,0,NA,NA,NA,NA,NA,NA,NA,NA,NA,NA,NA,NA,NA,NA,NA,NA,NA,NA,NA
a3428,Deep Question,html.Page,5_0_0_0_7_0_0,NA,NA,form submission,5397.2529996186,2475335.2999997,2475334.508,2475351.147,2480748.3999996,2480748.5999999,2023-06-19T14:05:24Z,2480763.399,NULL,Niveau,kiwango,d,NA,NA,NA,okij,NA,NA,0,NA,NA,NA,NA,NA,NA,NA,NA,NA,NA,NA,NA,NA,NA,NA,NA,NA,NA,NA
a3428,"""Richtig""-Screen",canvas.Screen,5_0_0_0_7_0_1,NA,NA,skipped,NA,2480750.8999996,NA,NA,2480748.3999996,2480751,2023-06-19T14:05:24Z,2480763.399,NULL,Niveau,kiwango,d,NA,NA,NA,NA,sdf,NA,0,NA,NA,NA,NA,NA,NA,NA,NA,NA,NA,NA,NA,NA,NA,NA,NA,NA,NA,NA
a3428,"""Falsch""-Screen",canvas.Screen,5_0_0_0_7_0_2,NA,NA,timeout,4995.8279999997,2480752,2480746.725,2480763.399,2485742.647,2485743.0999999,2023-06-19T14:05:29Z,2485759.227,NULL,Niveau,kiwango,d,NA,NA,NA,NA,sdf,0,0,NA,NA,NA,NA,NA,NA,NA,NA,NA,NA,NA,NA,NA,NA,NA,NA,NA,NA,NA
a3428,deep,flow.Sequence,5_0_0_0_7_0,NA,NA,completion,10391.5,2475335.2999997,2475334.508,2475351.147,2485742.647,2485743.2999997,2023-06-19T14:05:29Z,2485759.227,NULL,Niveau,kiwango,d,NA,NA,NA,NA,sdf,NA,0,NA,NA,NA,NA,NA,NA,NA,NA,NA,NA,NA,NA,NA,NA,NA,NA,NA,NA,NA
a3428,shallow,flow.Sequence,5_0_0_0_7_1,NA,NA,skipped,NA,2485743.2999997,NA,NA,2485742.647,2485743.2999997,2023-06-19T14:05:29Z,2485759.227,NULL,Niveau,kiwango,d,NA,NA,NA,NA,sdf,NA,0,NA,NA,NA,NA,NA,NA,NA,NA,NA,NA,NA,NA,NA,NA,NA,NA,NA,NA,NA
a3428,task,flow.Sequence,5_0_0_0_7,NA,NA,completion,10391.5,2475335.2999997,2475334.508,2475351.147,2485742.647,2485743.5,2023-06-19T14:05:29Z,2485759.227,NULL,Niveau,kiwango,d,NA,NA,NA,NA,sdf,NA,0,NA,NA,NA,NA,NA,NA,NA,NA,NA,NA,NA,NA,NA,NA,NA,NA,NA,NA,NA
a3428,block,flow.Loop,5_0_0_0,NA,NA,completion,83947.372,2401786.8999996,2401778.236,2401795.275,2485742.647,2485743.5,2023-06-19T14:05:29Z,2485759.227,NULL,NA,NA,NA,NA,NA,NA,NA,sdf,NA,0,NA,NA,NA,NA,NA,NA,NA,NA,NA,NA,NA,NA,NA,NA,NA,NA,NA,NA,NA
a3428,weiter,canvas.Screen,5_0_0_1,sdf,keypress(Space),response,1024.1729996186,2485743.5,2485742.647,2485759.227,2486783.3999996,2486785.1999998,2023-06-19T14:05:30Z,2486841.68,NULL,NA,NA,NA,NA,NA,NA,NA,sdf,NA,0,NA,NA,NA,NA,NA,NA,NA,NA,NA,NA,NA,NA,NA,NA,NA,NA,NA,NA,NA
a3428,check continue,flow.Sequence,5_0_0,NA,NA,completion,84988.124999619,2401786.7999997,2401778.236,2401795.275,2486783.3999996,2486785.1999998,2023-06-19T14:05:30Z,2486841.68,NULL,NA,NA,NA,NA,NA,NA,NA,sdf,NA,0,NA,NA,NA,NA,NA,NA,NA,NA,NA,NA,NA,NA,NA,NA,NA,NA,NA,NA,NA
a3428,Deep Question,html.Page,5_0_1_0_0_0_0,NA,NA,form submission,4862.6199997137,2486840.1999998,2486825.011,2486841.68,2491704.2999997,2491704.5,2023-06-19T14:05:35Z,2491721.851,NULL,Papier,karatasi,d,NA,NA,NA,gtgh$,NA,NA,1,NA,NA,NA,NA,NA,NA,NA,NA,NA,NA,NA,NA,NA,NA,NA,NA,NA,NA,NA
a3428,"""Richtig""-Screen",canvas.Screen,5_0_1_0_0_0_1,NA,NA,skipped,NA,2491707.0999999,NA,NA,2491704.2999997,2491707.1999998,2023-06-19T14:05:35Z,2491721.851,NULL,Papier,karatasi,d,NA,NA,NA,NA,sdfdsf,NA,1,NA,NA,NA,NA,NA,NA,NA,NA,NA,NA,NA,NA,NA,NA,NA,NA,NA,NA,NA
a3428,"""Falsch""-Screen",canvas.Screen,5_0_1_0_0_0_2,NA,NA,timeout,4995.0350000001,2491708.0999999,2491687.776,2491721.851,2496700.267,2496700.7999997,2023-06-19T14:05:40Z,2496716.886,NULL,Papier,karatasi,d,NA,NA,NA,NA,sdfdsf,0,1,NA,NA,NA,NA,NA,NA,NA,NA,NA,NA,NA,NA,NA,NA,NA,NA,NA,NA,NA
a3428,deep,flow.Sequence,5_0_1_0_0_0,NA,NA,completion,9858.5869999998,2486840.1999998,2486825.011,2486841.68,2496700.267,2496701,2023-06-19T14:05:40Z,2496716.886,NULL,Papier,karatasi,d,NA,NA,NA,NA,sdfdsf,NA,1,NA,NA,NA,NA,NA,NA,NA,NA,NA,NA,NA,NA,NA,NA,NA,NA,NA,NA,NA
a3428,shallow,flow.Sequence,5_0_1_0_0_1,NA,NA,skipped,NA,2496701,NA,NA,2496700.267,2496701.0999999,2023-06-19T14:05:40Z,2496716.886,NULL,Papier,karatasi,d,NA,NA,NA,NA,sdfdsf,NA,1,NA,NA,NA,NA,NA,NA,NA,NA,NA,NA,NA,NA,NA,NA,NA,NA,NA,NA,NA
a3428,task,flow.Sequence,5_0_1_0_0,NA,NA,completion,9858.5869999998,2486840.0999999,2486825.011,2486841.68,2496700.267,2496701.1999998,2023-06-19T14:05:40Z,2496716.886,NULL,Papier,karatasi,d,NA,NA,NA,NA,sdfdsf,NA,1,NA,NA,NA,NA,NA,NA,NA,NA,NA,NA,NA,NA,NA,NA,NA,NA,NA,NA,NA
a3428,Deep Question,html.Page,5_0_1_0_1_0_0,NA,NA,form submission,18166.614,2496701.3999996,2496700.267,2496716.886,2514883.5,2514883.6999998,2023-06-19T14:05:58Z,2514885.257,NULL,Schüler,mwanafunzi,d,NA,NA,NA,ggth,NA,NA,1,NA,NA,NA,NA,NA,NA,NA,NA,NA,NA,NA,NA,NA,NA,NA,NA,NA,NA,NA
a3428,"""Richtig""-Screen",canvas.Screen,5_0_1_0_1_0_1,NA,NA,skipped,NA,2514885.7999997,NA,NA,2514883.5,2514885.8999996,2023-06-19T14:05:58Z,2514885.257,NULL,Schüler,mwanafunzi,d,NA,NA,NA,NA,sdfdsf,NA,1,NA,NA,NA,NA,NA,NA,NA,NA,NA,NA,NA,NA,NA,NA,NA,NA,NA,NA,NA
a3428,"""Falsch""-Screen",canvas.Screen,5_0_1_0_1_0_2,NA,NA,timeout,4995.9499999997,2514886.5,2514868.67,2514885.257,2519864.531,2519864.8999996,2023-06-19T14:06:03Z,2519881.207,NULL,Schüler,mwanafunzi,d,NA,NA,NA,NA,sdfdsf,0,1,NA,NA,NA,NA,NA,NA,NA,NA,NA,NA,NA,NA,NA,NA,NA,NA,NA,NA,NA
a3428,deep,flow.Sequence,5_0_1_0_1_0,NA,NA,completion,23147.645,2496701.2999997,2496700.267,2496716.886,2519864.531,2519865.0999999,2023-06-19T14:06:03Z,2519881.207,NULL,Schüler,mwanafunzi,d,NA,NA,NA,NA,sdfdsf,NA,1,NA,NA,NA,NA,NA,NA,NA,NA,NA,NA,NA,NA,NA,NA,NA,NA,NA,NA,NA
a3428,shallow,flow.Sequence,5_0_1_0_1_1,NA,NA,skipped,NA,2519865.1999998,NA,NA,2519864.531,2519865.2999997,2023-06-19T14:06:03Z,2519881.207,NULL,Schüler,mwanafunzi,d,NA,NA,NA,NA,sdfdsf,NA,1,NA,NA,NA,NA,NA,NA,NA,NA,NA,NA,NA,NA,NA,NA,NA,NA,NA,NA,NA
a3428,task,flow.Sequence,5_0_1_0_1,NA,NA,completion,23147.645,2496701.2999997,2496700.267,2496716.886,2519864.531,2519865.3999996,2023-06-19T14:06:03Z,2519881.207,NULL,Schüler,mwanafunzi,d,NA,NA,NA,NA,sdfdsf,NA,1,NA,NA,NA,NA,NA,NA,NA,NA,NA,NA,NA,NA,NA,NA,NA,NA,NA,NA,NA
a3428,Deep Question,html.Page,5_0_1_0_2_0_0,NA,NA,form submission,9270.8929999047,2519865.5999999,2519864.531,2519881.207,2529152.0999999,2529152.2999997,2023-06-19T14:06:13Z,2529156.843,NULL,Niveau,kiwango,d,NA,NA,NA,zijhu,NA,NA,1,NA,NA,NA,NA,NA,NA,NA,NA,NA,NA,NA,NA,NA,NA,NA,NA,NA,NA,NA
a3428,"""Richtig""-Screen",canvas.Screen,5_0_1_0_2_0_1,NA,NA,skipped,NA,2529154.5999999,NA,NA,2529152.0999999,2529154.8999996,2023-06-19T14:06:13Z,2529156.843,NULL,Niveau,kiwango,d,NA,NA,NA,NA,sdfdsf,NA,1,NA,NA,NA,NA,NA,NA,NA,NA,NA,NA,NA,NA,NA,NA,NA,NA,NA,NA,NA
a3428,"""Falsch""-Screen",canvas.Screen,5_0_1_0_2_0_2,NA,NA,timeout,4995.8770000003,2529155.5999999,2529140.458,2529156.843,2534136.129,2534136.5999999,2023-06-19T14:06:18Z,2534152.72,NULL,Niveau,kiwango,d,NA,NA,NA,NA,sdfdsf,0,1,NA,NA,NA,NA,NA,NA,NA,NA,NA,NA,NA,NA,NA,NA,NA,NA,NA,NA,NA
a3428,deep,flow.Sequence,5_0_1_0_2_0,NA,NA,completion,14254.922,2519865.5,2519864.531,2519881.207,2534136.129,2534136.8999996,2023-06-19T14:06:18Z,2534152.72,NULL,Niveau,kiwango,d,NA,NA,NA,NA,sdfdsf,NA,1,NA,NA,NA,NA,NA,NA,NA,NA,NA,NA,NA,NA,NA,NA,NA,NA,NA,NA,NA
a3428,shallow,flow.Sequence,5_0_1_0_2_1,NA,NA,skipped,NA,2534136.8999996,NA,NA,2534136.129,2534137,2023-06-19T14:06:18Z,2534152.72,NULL,Niveau,kiwango,d,NA,NA,NA,NA,sdfdsf,NA,1,NA,NA,NA,NA,NA,NA,NA,NA,NA,NA,NA,NA,NA,NA,NA,NA,NA,NA,NA
a3428,task,flow.Sequence,5_0_1_0_2,NA,NA,completion,14254.922,2519865.5,2519864.531,2519881.207,2534136.129,2534137.0999999,2023-06-19T14:06:18Z,2534152.72,NULL,Niveau,kiwango,d,NA,NA,NA,NA,sdfdsf,NA,1,NA,NA,NA,NA,NA,NA,NA,NA,NA,NA,NA,NA,NA,NA,NA,NA,NA,NA,NA
a3428,deep,flow.Sequence,5_0_1_0_3_0,NA,NA,skipped,NA,2534137.1999998,NA,NA,2534136.129,2534137.2999997,2023-06-19T14:06:18Z,2534152.72,NULL,Vorwurf,mashtaka,s,msukumo,mtangulizi,uenyekiti,NA,sdfdsf,NA,1,NA,NA,NA,NA,NA,NA,NA,NA,NA,NA,NA,NA,NA,NA,NA,NA,NA,NA,NA
a3428,Shallow Question,html.Page,5_0_1_0_3_1_0,NA,NA,form submission,10712.179999618,2534137.3999996,2534136.129,2534152.72,2544864.8999996,2544865.0999999,2023-06-19T14:06:28Z,2544877.243,NULL,Vorwurf,mashtaka,s,msukumo,mtangulizi,uenyekiti,mashtaka,NA,NA,1,NA,NA,NA,NA,NA,NA,NA,NA,NA,NA,NA,NA,NA,NA,NA,NA,NA,NA,NA
a3428,"""Richtig""-Screen",canvas.Screen,5_0_1_0_3_1_1,NA,NA,timeout,4995.929,2544866.8999996,2544860.2,2544877.243,2549856.514,2549857,2023-06-19T14:06:33Z,2549873.172,NULL,Vorwurf,mashtaka,s,msukumo,mtangulizi,uenyekiti,NA,sdfdsf,1,1,NA,NA,NA,NA,NA,NA,NA,NA,NA,NA,NA,NA,NA,NA,NA,NA,NA,NA,NA
a3428,"""Falsch""-Screen",canvas.Screen,5_0_1_0_3_1_2,NA,NA,skipped,NA,2549859.7999997,NA,NA,2549856.514,2549860,2023-06-19T14:06:33Z,2549873.172,NULL,Vorwurf,mashtaka,s,msukumo,mtangulizi,uenyekiti,NA,sdfdsf,NA,1,NA,NA,NA,NA,NA,NA,NA,NA,NA,NA,NA,NA,NA,NA,NA,NA,NA,NA,NA
a3428,shallow,flow.Sequence,5_0_1_0_3_1,NA,NA,completion,15703.794,2534137.2999997,2534136.129,2534152.72,2549856.514,2549860.1999998,2023-06-19T14:06:33Z,2549873.172,NULL,Vorwurf,mashtaka,s,msukumo,mtangulizi,uenyekiti,NA,sdfdsf,NA,1,NA,NA,NA,NA,NA,NA,NA,NA,NA,NA,NA,NA,NA,NA,NA,NA,NA,NA,NA
a3428,task,flow.Sequence,5_0_1_0_3,NA,NA,completion,15703.794,2534137.1999998,2534136.129,2534152.72,2549856.514,2549860.2999997,2023-06-19T14:06:33Z,2549873.172,NULL,Vorwurf,mashtaka,s,msukumo,mtangulizi,uenyekiti,NA,sdfdsf,NA,1,NA,NA,NA,NA,NA,NA,NA,NA,NA,NA,NA,NA,NA,NA,NA,NA,NA,NA,NA
a3428,deep,flow.Sequence,5_0_1_0_4_0,NA,NA,skipped,NA,2549860.2999997,NA,NA,2549856.514,2549860.3999996,2023-06-19T14:06:33Z,2549873.172,NULL,Spionage,upelelezi,s,maslahi,utokazo,magangao,NA,sdfdsf,NA,1,NA,NA,NA,NA,NA,NA,NA,NA,NA,NA,NA,NA,NA,NA,NA,NA,NA,NA,NA
a3428,Shallow Question,html.Page,5_0_1_0_4_1_0,NA,NA,form submission,11065.627999714001,2549860.5,2549856.514,2549873.172,2560938.7999997,2560938.8999996,2023-06-19T14:06:44Z,2560947.366,NULL,Spionage,upelelezi,s,maslahi,utokazo,magangao,upelelezi,NA,NA,1,NA,NA,NA,NA,NA,NA,NA,NA,NA,NA,NA,NA,NA,NA,NA,NA,NA,NA,NA
a3428,"""Richtig""-Screen",canvas.Screen,5_0_1_0_4_1_1,NA,NA,timeout,4995.8629999999,2560940.7999997,2560930.418,2560947.366,2565926.573,2565927,2023-06-19T14:06:49Z,2565943.229,NULL,Spionage,upelelezi,s,maslahi,utokazo,magangao,NA,sdfdsf,1,1,NA,NA,NA,NA,NA,NA,NA,NA,NA,NA,NA,NA,NA,NA,NA,NA,NA,NA,NA
a3428,"""Falsch""-Screen",canvas.Screen,5_0_1_0_4_1_2,NA,NA,skipped,NA,2565930.2999997,NA,NA,2565926.573,2565930.5,2023-06-19T14:06:49Z,2565943.229,NULL,Spionage,upelelezi,s,maslahi,utokazo,magangao,NA,sdfdsf,NA,1,NA,NA,NA,NA,NA,NA,NA,NA,NA,NA,NA,NA,NA,NA,NA,NA,NA,NA,NA
a3428,shallow,flow.Sequence,5_0_1_0_4_1,NA,NA,completion,16053.401,2549860.5,2549856.514,2549873.172,2565926.573,2565930.5999999,2023-06-19T14:06:49Z,2565943.229,NULL,Spionage,upelelezi,s,maslahi,utokazo,magangao,NA,sdfdsf,NA,1,NA,NA,NA,NA,NA,NA,NA,NA,NA,NA,NA,NA,NA,NA,NA,NA,NA,NA,NA
a3428,task,flow.Sequence,5_0_1_0_4,NA,NA,completion,16053.401,2549860.2999997,2549856.514,2549873.172,2565926.573,2565930.6999998,2023-06-19T14:06:49Z,2565943.229,NULL,Spionage,upelelezi,s,maslahi,utokazo,magangao,NA,sdfdsf,NA,1,NA,NA,NA,NA,NA,NA,NA,NA,NA,NA,NA,NA,NA,NA,NA,NA,NA,NA,NA
a3428,deep,flow.Sequence,5_0_1_0_5_0,NA,NA,skipped,NA,2565930.7999997,NA,NA,2565926.573,2565930.8999996,2023-06-19T14:06:49Z,2565943.229,NULL,Entwicklung,maendeleo,s,uangavu,mshindwa,badiliko,NA,sdfdsf,NA,1,NA,NA,NA,NA,NA,NA,NA,NA,NA,NA,NA,NA,NA,NA,NA,NA,NA,NA,NA
a3428,Shallow Question,html.Page,5_0_1_0_5_1_0,NA,NA,form submission,16448.070999714,2565931.2999997,2565926.573,2565943.229,2582391.2999997,2582391.5,2023-06-19T14:07:06Z,2582396.377,NULL,Entwicklung,maendeleo,s,uangavu,mshindwa,badiliko,maendeleo,NA,NA,1,NA,NA,NA,NA,NA,NA,NA,NA,NA,NA,NA,NA,NA,NA,NA,NA,NA,NA,NA
a3428,"""Richtig""-Screen",canvas.Screen,5_0_1_0_5_1_1,NA,NA,timeout,4995.9020000002,2582393.8999996,2582379.123,2582396.377,2587375.628,2587376.0999999,2023-06-19T14:07:11Z,2587392.279,NULL,Entwicklung,maendeleo,s,uangavu,mshindwa,badiliko,NA,sdfdsf,1,1,NA,NA,NA,NA,NA,NA,NA,NA,NA,NA,NA,NA,NA,NA,NA,NA,NA,NA,NA
a3428,"""Falsch""-Screen",canvas.Screen,5_0_1_0_5_1_2,NA,NA,skipped,NA,2587378.5,NA,NA,2587375.628,2587378.6999998,2023-06-19T14:07:11Z,2587392.279,NULL,Entwicklung,maendeleo,s,uangavu,mshindwa,badiliko,NA,sdfdsf,NA,1,NA,NA,NA,NA,NA,NA,NA,NA,NA,NA,NA,NA,NA,NA,NA,NA,NA,NA,NA
a3428,shallow,flow.Sequence,5_0_1_0_5_1,NA,NA,completion,21432.399,2565931,2565926.573,2565943.229,2587375.628,2587378.7999997,2023-06-19T14:07:11Z,2587392.279,NULL,Entwicklung,maendeleo,s,uangavu,mshindwa,badiliko,NA,sdfdsf,NA,1,NA,NA,NA,NA,NA,NA,NA,NA,NA,NA,NA,NA,NA,NA,NA,NA,NA,NA,NA
a3428,task,flow.Sequence,5_0_1_0_5,NA,NA,completion,21432.399,2565930.7999997,2565926.573,2565943.229,2587375.628,2587378.8999996,2023-06-19T14:07:11Z,2587392.279,NULL,Entwicklung,maendeleo,s,uangavu,mshindwa,badiliko,NA,sdfdsf,NA,1,NA,NA,NA,NA,NA,NA,NA,NA,NA,NA,NA,NA,NA,NA,NA,NA,NA,NA,NA
a3428,Deep Question,html.Page,5_0_1_0_6_0_0,NA,NA,form submission,3816.9209998092,2587379,2587375.628,2587392.279,2591209.1999998,2591209.3999996,2023-06-19T14:07:15Z,2591222.455,NULL,Tester,wanaojaribu,d,NA,NA,NA,okji,NA,NA,1,NA,NA,NA,NA,NA,NA,NA,NA,NA,NA,NA,NA,NA,NA,NA,NA,NA,NA,NA
a3428,"""Richtig""-Screen",canvas.Screen,5_0_1_0_6_0_1,NA,NA,skipped,NA,2591211.5999999,NA,NA,2591209.1999998,2591211.6999998,2023-06-19T14:07:15Z,2591222.455,NULL,Tester,wanaojaribu,d,NA,NA,NA,NA,sdfdsf,NA,1,NA,NA,NA,NA,NA,NA,NA,NA,NA,NA,NA,NA,NA,NA,NA,NA,NA,NA,NA
a3428,"""Falsch""-Screen",canvas.Screen,5_0_1_0_6_0_2,NA,NA,timeout,4995.855,2591212.5999999,2591205.833,2591222.455,2596201.699,2596202.0999999,2023-06-19T14:07:20Z,2596218.31,NULL,Tester,wanaojaribu,d,NA,NA,NA,NA,sdfdsf,0,1,NA,NA,NA,NA,NA,NA,NA,NA,NA,NA,NA,NA,NA,NA,NA,NA,NA,NA,NA
a3428,deep,flow.Sequence,5_0_1_0_6_0,NA,NA,completion,8809.4199999999,2587379,2587375.628,2587392.279,2596201.699,2596202.2999997,2023-06-19T14:07:20Z,2596218.31,NULL,Tester,wanaojaribu,d,NA,NA,NA,NA,sdfdsf,NA,1,NA,NA,NA,NA,NA,NA,NA,NA,NA,NA,NA,NA,NA,NA,NA,NA,NA,NA,NA
a3428,shallow,flow.Sequence,5_0_1_0_6_1,NA,NA,skipped,NA,2596202.2999997,NA,NA,2596201.699,2596202.3999996,2023-06-19T14:07:20Z,2596218.31,NULL,Tester,wanaojaribu,d,NA,NA,NA,NA,sdfdsf,NA,1,NA,NA,NA,NA,NA,NA,NA,NA,NA,NA,NA,NA,NA,NA,NA,NA,NA,NA,NA
a3428,task,flow.Sequence,5_0_1_0_6,NA,NA,completion,8809.4199999999,2587379,2587375.628,2587392.279,2596201.699,2596202.5,2023-06-19T14:07:20Z,2596218.31,NULL,Tester,wanaojaribu,d,NA,NA,NA,NA,sdfdsf,NA,1,NA,NA,NA,NA,NA,NA,NA,NA,NA,NA,NA,NA,NA,NA,NA,NA,NA,NA,NA
a3428,deep,flow.Sequence,5_0_1_0_7_0,NA,NA,skipped,NA,2596202.5,NA,NA,2596201.699,2596202.5,2023-06-19T14:07:20Z,2596218.31,NULL,Fenster,dirisha,s,walakini,tasawari,maarifa,NA,sdfdsf,NA,1,NA,NA,NA,NA,NA,NA,NA,NA,NA,NA,NA,NA,NA,NA,NA,NA,NA,NA,NA
a3428,Shallow Question,html.Page,5_0_1_0_7_1_0,NA,NA,form submission,13424.389999809,2596202.5999999,2596201.699,2596218.31,2609642.6999998,2609643,2023-06-19T14:07:33Z,2609657.233,NULL,Fenster,dirisha,s,walakini,tasawari,maarifa,dirisha,NA,NA,1,NA,NA,NA,NA,NA,NA,NA,NA,NA,NA,NA,NA,NA,NA,NA,NA,NA,NA,NA
a3428,"""Richtig""-Screen",canvas.Screen,5_0_1_0_7_1_1,NA,NA,timeout,4995.9300000002,2609644.7999997,2609640.28,2609657.233,2614636.512,2614637,2023-06-19T14:07:38Z,2614653.163,NULL,Fenster,dirisha,s,walakini,tasawari,maarifa,NA,sdfdsf,1,1,NA,NA,NA,NA,NA,NA,NA,NA,NA,NA,NA,NA,NA,NA,NA,NA,NA,NA,NA
a3428,"""Falsch""-Screen",canvas.Screen,5_0_1_0_7_1_2,NA,NA,skipped,NA,2614638.8999996,NA,NA,2614636.512,2614639.0999999,2023-06-19T14:07:38Z,2614653.163,NULL,Fenster,dirisha,s,walakini,tasawari,maarifa,NA,sdfdsf,NA,1,NA,NA,NA,NA,NA,NA,NA,NA,NA,NA,NA,NA,NA,NA,NA,NA,NA,NA,NA
a3428,shallow,flow.Sequence,5_0_1_0_7_1,NA,NA,completion,18418.202,2596202.5999999,2596201.699,2596218.31,2614636.512,2614639.2999997,2023-06-19T14:07:38Z,2614653.163,NULL,Fenster,dirisha,s,walakini,tasawari,maarifa,NA,sdfdsf,NA,1,NA,NA,NA,NA,NA,NA,NA,NA,NA,NA,NA,NA,NA,NA,NA,NA,NA,NA,NA
a3428,task,flow.Sequence,5_0_1_0_7,NA,NA,completion,18418.202,2596202.5,2596201.699,2596218.31,2614636.512,2614639.2999997,2023-06-19T14:07:38Z,2614653.163,NULL,Fenster,dirisha,s,walakini,tasawari,maarifa,NA,sdfdsf,NA,1,NA,NA,NA,NA,NA,NA,NA,NA,NA,NA,NA,NA,NA,NA,NA,NA,NA,NA,NA
a3428,block,flow.Loop,5_0_1_0,NA,NA,completion,127794.832,2486840.0999999,2486825.011,2486841.68,2614636.512,2614639.5,2023-06-19T14:07:38Z,2614653.163,NULL,NA,NA,NA,NA,NA,NA,NA,sdfdsf,NA,1,NA,NA,NA,NA,NA,NA,NA,NA,NA,NA,NA,NA,NA,NA,NA,NA,NA,NA,NA
a3428,weiter,canvas.Screen,5_0_1_1,sdf,keypress(Space),response,864.93699990446,2614639.5,2614636.512,2614653.163,2615518.0999999,2615518.8999996,2023-06-19T14:07:39Z,2615569.045,NULL,NA,NA,NA,NA,NA,NA,NA,sdfdsf,NA,1,NA,NA,NA,NA,NA,NA,NA,NA,NA,NA,NA,NA,NA,NA,NA,NA,NA,NA,NA
a3428,check continue,flow.Sequence,5_0_1,NA,NA,completion,128676.4199999,2486840.0999999,2486825.011,2486841.68,2615518.0999999,2615519.0999999,2023-06-19T14:07:39Z,2615569.045,NULL,NA,NA,NA,NA,NA,NA,NA,sdfdsf,NA,1,NA,NA,NA,NA,NA,NA,NA,NA,NA,NA,NA,NA,NA,NA,NA,NA,NA,NA,NA
a3428,Deep Question,html.Page,5_0_2_0_0_0_0,NA,NA,form submission,8460.254999714,2615566.5999999,2615552.363,2615569.045,2624029.2999997,2624029.5,2023-06-19T14:07:48Z,2624045.56,NULL,Tester,wanaojaribu,d,NA,NA,NA,wanaojaribu,NA,NA,2,NA,NA,NA,NA,NA,NA,NA,NA,NA,NA,NA,NA,NA,NA,NA,NA,NA,NA,NA
a3428,"""Richtig""-Screen",canvas.Screen,5_0_2_0_0_0_1,NA,NA,timeout,4995.7859999998,2624031.5,2624028.77,2624045.56,2629024.693,2629025.1999998,2023-06-19T14:07:53Z,2629041.346,NULL,Tester,wanaojaribu,d,NA,NA,NA,NA,sdf,1,2,NA,NA,NA,NA,NA,NA,NA,NA,NA,NA,NA,NA,NA,NA,NA,NA,NA,NA,NA
a3428,"""Falsch""-Screen",canvas.Screen,5_0_2_0_0_0_2,NA,NA,skipped,NA,2629026.8999996,NA,NA,2629024.693,2629027.0999999,2023-06-19T14:07:53Z,2629041.346,NULL,Tester,wanaojaribu,d,NA,NA,NA,NA,sdf,NA,2,NA,NA,NA,NA,NA,NA,NA,NA,NA,NA,NA,NA,NA,NA,NA,NA,NA,NA,NA
a3428,deep,flow.Sequence,5_0_2_0_0_0,NA,NA,completion,13455.648,2615566.5999999,2615552.363,2615569.045,2629024.693,2629027.1999998,2023-06-19T14:07:53Z,2629041.346,NULL,Tester,wanaojaribu,d,NA,NA,NA,NA,sdf,NA,2,NA,NA,NA,NA,NA,NA,NA,NA,NA,NA,NA,NA,NA,NA,NA,NA,NA,NA,NA
a3428,shallow,flow.Sequence,5_0_2_0_0_1,NA,NA,skipped,NA,2629027.1999998,NA,NA,2629024.693,2629027.1999998,2023-06-19T14:07:53Z,2629041.346,NULL,Tester,wanaojaribu,d,NA,NA,NA,NA,sdf,NA,2,NA,NA,NA,NA,NA,NA,NA,NA,NA,NA,NA,NA,NA,NA,NA,NA,NA,NA,NA
a3428,task,flow.Sequence,5_0_2_0_0,NA,NA,completion,13455.648,2615566.5999999,2615552.363,2615569.045,2629024.693,2629027.2999997,2023-06-19T14:07:53Z,2629041.346,NULL,Tester,wanaojaribu,d,NA,NA,NA,NA,sdf,NA,2,NA,NA,NA,NA,NA,NA,NA,NA,NA,NA,NA,NA,NA,NA,NA,NA,NA,NA,NA
a3428,Deep Question,html.Page,5_0_2_0_1_0_0,NA,NA,form submission,16572.753999905,2629027.3999996,2629024.693,2629041.346,2645614.0999999,2645614.3999996,2023-06-19T14:08:09Z,2645627.622,NULL,Schüler,mwanafunzi,d,NA,NA,NA,wana,NA,NA,2,NA,NA,NA,NA,NA,NA,NA,NA,NA,NA,NA,NA,NA,NA,NA,NA,NA,NA,NA
a3428,"""Richtig""-Screen",canvas.Screen,5_0_2_0_1_0_1,NA,NA,skipped,NA,2645616.2999997,NA,NA,2645614.0999999,2645616.3999996,2023-06-19T14:08:09Z,2645627.622,NULL,Schüler,mwanafunzi,d,NA,NA,NA,NA,sdf,NA,2,NA,NA,NA,NA,NA,NA,NA,NA,NA,NA,NA,NA,NA,NA,NA,NA,NA,NA,NA
a3428,"""Falsch""-Screen",canvas.Screen,5_0_2_0_1_0_2,NA,NA,timeout,4995.9390000002,2645617,2645611.037,2645627.622,2650606.872,2650607.2999997,2023-06-19T14:08:14Z,2650623.561,NULL,Schüler,mwanafunzi,d,NA,NA,NA,NA,sdf,0,2,NA,NA,NA,NA,NA,NA,NA,NA,NA,NA,NA,NA,NA,NA,NA,NA,NA,NA,NA
a3428,deep,flow.Sequence,5_0_2_0_1_0,NA,NA,completion,21565.526,2629027.3999996,2629024.693,2629041.346,2650606.872,2650607.5,2023-06-19T14:08:14Z,2650623.561,NULL,Schüler,mwanafunzi,d,NA,NA,NA,NA,sdf,NA,2,NA,NA,NA,NA,NA,NA,NA,NA,NA,NA,NA,NA,NA,NA,NA,NA,NA,NA,NA
a3428,shallow,flow.Sequence,5_0_2_0_1_1,NA,NA,skipped,NA,2650607.5,NA,NA,2650606.872,2650607.5999999,2023-06-19T14:08:14Z,2650623.561,NULL,Schüler,mwanafunzi,d,NA,NA,NA,NA,sdf,NA,2,NA,NA,NA,NA,NA,NA,NA,NA,NA,NA,NA,NA,NA,NA,NA,NA,NA,NA,NA
a3428,task,flow.Sequence,5_0_2_0_1,NA,NA,completion,21565.526,2629027.2999997,2629024.693,2629041.346,2650606.872,2650607.5999999,2023-06-19T14:08:14Z,2650623.561,NULL,Schüler,mwanafunzi,d,NA,NA,NA,NA,sdf,NA,2,NA,NA,NA,NA,NA,NA,NA,NA,NA,NA,NA,NA,NA,NA,NA,NA,NA,NA,NA
a3428,deep,flow.Sequence,5_0_2_0_2_0,NA,NA,skipped,NA,2650607.6999998,NA,NA,2650606.872,2650607.6999998,2023-06-19T14:08:14Z,2650623.561,NULL,Fenster,dirisha,s,walakini,tasawari,maarifa,NA,sdf,NA,2,NA,NA,NA,NA,NA,NA,NA,NA,NA,NA,NA,NA,NA,NA,NA,NA,NA,NA,NA
a3428,Shallow Question,html.Page,5_0_2_0_2_1_0,NA,NA,form submission,7408.3389996183,2650607.7999997,2650606.872,2650623.561,2658031.8999996,2658032.0999999,2023-06-19T14:08:22Z,2658034.089,NULL,Fenster,dirisha,s,walakini,tasawari,maarifa,dirisha,NA,NA,2,NA,NA,NA,NA,NA,NA,NA,NA,NA,NA,NA,NA,NA,NA,NA,NA,NA,NA,NA
a3428,"""Richtig""-Screen",canvas.Screen,5_0_2_0_2_1_1,NA,NA,timeout,4995.9189999998,2658034,2658017.459,2658034.089,2663013.357,2663014.5999999,2023-06-19T14:08:27Z,2663030.008,NULL,Fenster,dirisha,s,walakini,tasawari,maarifa,NA,sdf,1,2,NA,NA,NA,NA,NA,NA,NA,NA,NA,NA,NA,NA,NA,NA,NA,NA,NA,NA,NA
a3428,"""Falsch""-Screen",canvas.Screen,5_0_2_0_2_1_2,NA,NA,skipped,NA,2663016.5999999,NA,NA,2663013.357,2663016.6999998,2023-06-19T14:08:27Z,2663030.008,NULL,Fenster,dirisha,s,walakini,tasawari,maarifa,NA,sdf,NA,2,NA,NA,NA,NA,NA,NA,NA,NA,NA,NA,NA,NA,NA,NA,NA,NA,NA,NA,NA
a3428,shallow,flow.Sequence,5_0_2_0_2_1,NA,NA,completion,12389.796,2650607.7999997,2650606.872,2650623.561,2663013.357,2663016.8999996,2023-06-19T14:08:27Z,2663030.008,NULL,Fenster,dirisha,s,walakini,tasawari,maarifa,NA,sdf,NA,2,NA,NA,NA,NA,NA,NA,NA,NA,NA,NA,NA,NA,NA,NA,NA,NA,NA,NA,NA
a3428,task,flow.Sequence,5_0_2_0_2,NA,NA,completion,12389.796,2650607.6999998,2650606.872,2650623.561,2663013.357,2663017,2023-06-19T14:08:27Z,2663030.008,NULL,Fenster,dirisha,s,walakini,tasawari,maarifa,NA,sdf,NA,2,NA,NA,NA,NA,NA,NA,NA,NA,NA,NA,NA,NA,NA,NA,NA,NA,NA,NA,NA
a3428,deep,flow.Sequence,5_0_2_0_3_0,NA,NA,skipped,NA,2663017.0999999,NA,NA,2663013.357,2663017.1999998,2023-06-19T14:08:27Z,2663030.008,NULL,Entwicklung,maendeleo,s,uangavu,mshindwa,badiliko,NA,sdf,NA,2,NA,NA,NA,NA,NA,NA,NA,NA,NA,NA,NA,NA,NA,NA,NA,NA,NA,NA,NA
a3428,Shallow Question,html.Page,5_0_2_0_3_1_0,NA,NA,form submission,7836.6919998094,2663017.2999997,2663013.357,2663030.008,2670866.6999998,2670866.8999996,2023-06-19T14:08:34Z,2670873.509,NULL,Entwicklung,maendeleo,s,uangavu,mshindwa,badiliko,maendeleo,NA,NA,2,NA,NA,NA,NA,NA,NA,NA,NA,NA,NA,NA,NA,NA,NA,NA,NA,NA,NA,NA
a3428,"""Richtig""-Screen",canvas.Screen,5_0_2_0_3_1_1,NA,NA,timeout,4995.929,2670869,2670856.845,2670873.509,2675852.781,2675853.1999998,2023-06-19T14:08:39Z,2675869.438,NULL,Entwicklung,maendeleo,s,uangavu,mshindwa,badiliko,NA,sdf,1,2,NA,NA,NA,NA,NA,NA,NA,NA,NA,NA,NA,NA,NA,NA,NA,NA,NA,NA,NA
a3428,"""Falsch""-Screen",canvas.Screen,5_0_2_0_3_1_2,NA,NA,skipped,NA,2675854.8999996,NA,NA,2675852.781,2675854.8999996,2023-06-19T14:08:39Z,2675869.438,NULL,Entwicklung,maendeleo,s,uangavu,mshindwa,badiliko,NA,sdf,NA,2,NA,NA,NA,NA,NA,NA,NA,NA,NA,NA,NA,NA,NA,NA,NA,NA,NA,NA,NA
a3428,shallow,flow.Sequence,5_0_2_0_3_1,NA,NA,completion,12822.773,2663017.1999998,2663013.357,2663030.008,2675852.781,2675855.0999999,2023-06-19T14:08:39Z,2675869.438,NULL,Entwicklung,maendeleo,s,uangavu,mshindwa,badiliko,NA,sdf,NA,2,NA,NA,NA,NA,NA,NA,NA,NA,NA,NA,NA,NA,NA,NA,NA,NA,NA,NA,NA
a3428,task,flow.Sequence,5_0_2_0_3,NA,NA,completion,12822.773,2663017.0999999,2663013.357,2663030.008,2675852.781,2675855.1999998,2023-06-19T14:08:39Z,2675869.438,NULL,Entwicklung,maendeleo,s,uangavu,mshindwa,badiliko,NA,sdf,NA,2,NA,NA,NA,NA,NA,NA,NA,NA,NA,NA,NA,NA,NA,NA,NA,NA,NA,NA,NA
a3428,deep,flow.Sequence,5_0_2_0_4_0,NA,NA,skipped,NA,2675855.2999997,NA,NA,2675852.781,2675855.2999997,2023-06-19T14:08:39Z,2675869.438,NULL,Vorwurf,mashtaka,s,msukumo,mtangulizi,uenyekiti,NA,sdf,NA,2,NA,NA,NA,NA,NA,NA,NA,NA,NA,NA,NA,NA,NA,NA,NA,NA,NA,NA,NA
a3428,Shallow Question,html.Page,5_0_2_0_4_1_0,NA,NA,form submission,3375.0619999999,2675855.3999996,2675852.781,2675869.438,2679244.5,2679244.6999998,2023-06-19T14:08:43Z,2679249.948,NULL,Vorwurf,mashtaka,s,msukumo,mtangulizi,uenyekiti,mashtaka,NA,NA,2,NA,NA,NA,NA,NA,NA,NA,NA,NA,NA,NA,NA,NA,NA,NA,NA,NA,NA,NA
a3428,"""Richtig""-Screen",canvas.Screen,5_0_2_0_4_1_1,NA,NA,timeout,4995.8930000002,2679246.5,2679233.267,2679249.948,2684229.228,2684229.5999999,2023-06-19T14:08:48Z,2684245.841,NULL,Vorwurf,mashtaka,s,msukumo,mtangulizi,uenyekiti,NA,sdf,1,2,NA,NA,NA,NA,NA,NA,NA,NA,NA,NA,NA,NA,NA,NA,NA,NA,NA,NA,NA
a3428,"""Falsch""-Screen",canvas.Screen,5_0_2_0_4_1_2,NA,NA,skipped,NA,2684231.5,NA,NA,2684229.228,2684231.6999998,2023-06-19T14:08:48Z,2684245.841,NULL,Vorwurf,mashtaka,s,msukumo,mtangulizi,uenyekiti,NA,sdf,NA,2,NA,NA,NA,NA,NA,NA,NA,NA,NA,NA,NA,NA,NA,NA,NA,NA,NA,NA,NA
a3428,shallow,flow.Sequence,5_0_2_0_4_1,NA,NA,completion,8359.79,2675855.3999996,2675852.781,2675869.438,2684229.228,2684231.7999997,2023-06-19T14:08:48Z,2684245.841,NULL,Vorwurf,mashtaka,s,msukumo,mtangulizi,uenyekiti,NA,sdf,NA,2,NA,NA,NA,NA,NA,NA,NA,NA,NA,NA,NA,NA,NA,NA,NA,NA,NA,NA,NA
a3428,task,flow.Sequence,5_0_2_0_4,NA,NA,completion,8359.79,2675855.2999997,2675852.781,2675869.438,2684229.228,2684231.7999997,2023-06-19T14:08:48Z,2684245.841,NULL,Vorwurf,mashtaka,s,msukumo,mtangulizi,uenyekiti,NA,sdf,NA,2,NA,NA,NA,NA,NA,NA,NA,NA,NA,NA,NA,NA,NA,NA,NA,NA,NA,NA,NA
a3428,Deep Question,html.Page,5_0_2_0_5_0_0,NA,NA,form submission,7450.7589999046,2684232,2684229.228,2684245.841,2691696.5999999,2691696.7999997,2023-06-19T14:08:55Z,2691706.424,NULL,Niveau,kiwango,d,NA,NA,NA,kiwango,NA,NA,2,NA,NA,NA,NA,NA,NA,NA,NA,NA,NA,NA,NA,NA,NA,NA,NA,NA,NA,NA
