observation,sender,sender_type,sender_id,response,response_action,ended_on,duration,time_run,time_render,time_show,time_end,time_commit,timestamp,time_switch,distractors,german,swahili,enc,distractor1,distractor2,distractor3,response_2,x,correct,x_2,url_vp,url_sess,meta_labjs_version,meta_location,meta_user_agent,meta_platform,meta_language,meta_locale,meta_time_zone,meta_timezone_offset,meta_screen_width,meta_screen_height,meta_scroll_width,meta_scroll_height,meta_window_inner_width,meta_window_inner_height,meta_device_pixel_ratio,meta_labjs_build_flavor,meta_labjs_build_commit
b015b,Introduction general,canvas.Screen,0,weiter,keypress(q),response,3022250.691,1439.4000000954,712.576,1445.309,3023696,3023700.2,2023-05-31T16:08:57Z,3023703.712,NULL,NA,NA,NA,NA,NA,NA,NA,NA,NA,NA,218,1,20.2.4,https://neurocog.fernuni.ch/studies/vweber/sfink/encoding_immediate/index.html?vp=218&sess=1,"Mozilla/5.0 (Windows NT 10.0; Win64; x64) AppleWebKit/537.36 (KHTML, like Gecko) Chrome/113.0.0.0 Safari/537.36",Win32,de-CH,de,Europe/Zurich,-120,1536,864,1536,706,1536,754,1.25,production,f5b4a49f956347addd546a832a3327688c2c0fef
b015b,Introduction practice,canvas.Screen,1_0,NA,keypress(Space),response,5934.9880000479,3023700.8000002,3023684.658,3023703.712,3029638.7,3029639.9000001,2023-05-31T16:09:03Z,3029648.801,NULL,NA,NA,NA,NA,NA,NA,NA,NA,NA,NA,NA,NA,NA,NA,NA,NA,NA,NA,NA,NA,NA,NA,NA,NA,NA,NA,NA,NA,NA
b015b,Deep Question,html.Page,1_1_0_0_0,NA,NA,form submission,15471.799000143,3029640.4000001,3029631.853,3029648.801,3045120.6000001,3045120.8000002,2023-05-31T16:09:19Z,3045136.106,"c(""distractor1"", ""distractor2"", ""distractor3"")",Schatten,kivuli,d,NA,NA,NA,fgr,NA,NA,NA,NA,NA,NA,NA,NA,NA,NA,NA,NA,NA,NA,NA,NA,NA,NA,NA,NA,NA,NA
b015b,"""Richtig""-Screen",canvas.Screen,1_1_0_0_1,NA,NA,skipped,NA,3045122.5,NA,NA,3045120.6000001,3045122.6000001,2023-05-31T16:09:19Z,3045136.106,"c(""distractor1"", ""distractor2"", ""distractor3"")",Schatten,kivuli,d,NA,NA,NA,NA,NA,NA,NA,NA,NA,NA,NA,NA,NA,NA,NA,NA,NA,NA,NA,NA,NA,NA,NA,NA,NA,NA
b015b,"""Falsch""-Screen",canvas.Screen,1_1_0_0_2,NA,NA,timeout,4995.923,3045123.5,3045119.454,3045136.106,3050115.599,3050120.3000002,2023-05-31T16:09:24Z,3050132.029,"c(""distractor1"", ""distractor2"", ""distractor3"")",Schatten,kivuli,d,NA,NA,NA,NA,NA,0,NA,NA,NA,NA,NA,NA,NA,NA,NA,NA,NA,NA,NA,NA,NA,NA,NA,NA,NA,NA
b015b,deep,flow.Sequence,1_1_0_0,NA,NA,completion,20466.798,3029640.4000001,3029631.853,3029648.801,3050115.599,3050120.9000001,2023-05-31T16:09:24Z,3050132.029,"c(""distractor1"", ""distractor2"", ""distractor3"")",Schatten,kivuli,d,NA,NA,NA,NA,NA,NA,NA,NA,NA,NA,NA,NA,NA,NA,NA,NA,NA,NA,NA,NA,NA,NA,NA,NA,NA,NA
b015b,shallow,flow.Sequence,1_1_0_1,NA,NA,skipped,NA,3050121.1000001,NA,NA,3050115.599,3050121.3000002,2023-05-31T16:09:24Z,3050132.029,"c(""distractor1"", ""distractor2"", ""distractor3"")",Schatten,kivuli,d,NA,NA,NA,NA,NA,NA,NA,NA,NA,NA,NA,NA,NA,NA,NA,NA,NA,NA,NA,NA,NA,NA,NA,NA,NA,NA
b015b,task,flow.Sequence,1_1_0,NA,NA,completion,20466.798,3029640.3000002,3029631.853,3029648.801,3050115.599,3050121.6000001,2023-05-31T16:09:24Z,3050132.029,"c(""distractor1"", ""distractor2"", ""distractor3"")",Schatten,kivuli,d,NA,NA,NA,NA,NA,NA,NA,NA,NA,NA,NA,NA,NA,NA,NA,NA,NA,NA,NA,NA,NA,NA,NA,NA,NA,NA
b015b,deep,flow.Sequence,1_1_1_0,NA,NA,skipped,NA,3050121.9000001,NA,NA,3050115.599,3050122.1000001,2023-05-31T16:09:24Z,3050132.029,"c(""distractor1"", ""distractor2"", ""distractor3"")",Gegenwart,hadhara,s,katiba,jokofu,mikopo,NA,NA,NA,NA,NA,NA,NA,NA,NA,NA,NA,NA,NA,NA,NA,NA,NA,NA,NA,NA,NA,NA,NA
b015b,Shallow Question,html.Page,1_1_1_1_0,NA,NA,form submission,9233.2710001906,3050122.5,3050115.599,3050132.029,3059365.3000002,3059365.5,2023-05-31T16:09:33Z,3059374.349,"c(""distractor1"", ""distractor2"", ""distractor3"")",Gegenwart,hadhara,s,katiba,jokofu,mikopo,jokofu,NA,NA,NA,NA,NA,NA,NA,NA,NA,NA,NA,NA,NA,NA,NA,NA,NA,NA,NA,NA,NA,NA
b015b,"""Richtig""-Screen",canvas.Screen,1_1_1_1_1,NA,NA,skipped,NA,3059367.5,NA,NA,3059365.3000002,3059367.6000001,2023-05-31T16:09:33Z,3059374.349,"c(""distractor1"", ""distractor2"", ""distractor3"")",Gegenwart,hadhara,s,katiba,jokofu,mikopo,NA,NA,NA,NA,NA,NA,NA,NA,NA,NA,NA,NA,NA,NA,NA,NA,NA,NA,NA,NA,NA,NA,NA
b015b,"""Falsch""-Screen",canvas.Screen,1_1_1_1_2,NA,NA,timeout,4995.9530000002,3059368.5,3059358.374,3059374.349,3064354.129,3064355,2023-05-31T16:09:38Z,3064370.302,"c(""distractor1"", ""distractor2"", ""distractor3"")",Gegenwart,hadhara,s,katiba,jokofu,mikopo,NA,NA,0,NA,NA,NA,NA,NA,NA,NA,NA,NA,NA,NA,NA,NA,NA,NA,NA,NA,NA,NA,NA
b015b,shallow,flow.Sequence,1_1_1_1,NA,NA,completion,14222.1,3050122.4000001,3050115.599,3050132.029,3064354.129,3064355.5,2023-05-31T16:09:38Z,3064370.302,"c(""distractor1"", ""distractor2"", ""distractor3"")",Gegenwart,hadhara,s,katiba,jokofu,mikopo,NA,NA,NA,NA,NA,NA,NA,NA,NA,NA,NA,NA,NA,NA,NA,NA,NA,NA,NA,NA,NA,NA,NA
b015b,task,flow.Sequence,1_1_1,NA,NA,completion,14222.1,3050121.8000002,3050115.599,3050132.029,3064354.129,3064355.8000002,2023-05-31T16:09:38Z,3064370.302,"c(""distractor1"", ""distractor2"", ""distractor3"")",Gegenwart,hadhara,s,katiba,jokofu,mikopo,NA,NA,NA,NA,NA,NA,NA,NA,NA,NA,NA,NA,NA,NA,NA,NA,NA,NA,NA,NA,NA,NA,NA
b015b,Deep Question,html.Page,1_1_2_0_0,NA,NA,form submission,15541.598000095,3064356.1000001,3064354.129,3064370.302,3079911.9000001,3079912.1000001,2023-05-31T16:09:54Z,3079924.087,"c(""distractor1"", ""distractor2"", ""distractor3"")",Gesundheit,salama,d,NA,NA,NA,fgr,NA,NA,NA,NA,NA,NA,NA,NA,NA,NA,NA,NA,NA,NA,NA,NA,NA,NA,NA,NA,NA,NA
b015b,"""Richtig""-Screen",canvas.Screen,1_1_2_0_1,NA,NA,skipped,NA,3079914.8000002,NA,NA,3079911.9000001,3079915,2023-05-31T16:09:54Z,3079924.087,"c(""distractor1"", ""distractor2"", ""distractor3"")",Gesundheit,salama,d,NA,NA,NA,NA,NA,NA,NA,NA,NA,NA,NA,NA,NA,NA,NA,NA,NA,NA,NA,NA,NA,NA,NA,NA,NA,NA
b015b,"""Falsch""-Screen",canvas.Screen,1_1_2_0_2,NA,NA,timeout,4996.2820000001,3079916.1000001,3079907.725,3079924.087,3084903.899,3084904.8000002,2023-05-31T16:09:59Z,3084920.369,"c(""distractor1"", ""distractor2"", ""distractor3"")",Gesundheit,salama,d,NA,NA,NA,NA,NA,0,NA,NA,NA,NA,NA,NA,NA,NA,NA,NA,NA,NA,NA,NA,NA,NA,NA,NA,NA,NA
b015b,deep,flow.Sequence,1_1_2_0,NA,NA,completion,20533.597,3064356.1000001,3064354.129,3064370.302,3084903.899,3084905.2,2023-05-31T16:09:59Z,3084920.369,"c(""distractor1"", ""distractor2"", ""distractor3"")",Gesundheit,salama,d,NA,NA,NA,NA,NA,NA,NA,NA,NA,NA,NA,NA,NA,NA,NA,NA,NA,NA,NA,NA,NA,NA,NA,NA,NA,NA
b015b,shallow,flow.Sequence,1_1_2_1,NA,NA,skipped,NA,3084905.4000001,NA,NA,3084903.899,3084905.7,2023-05-31T16:09:59Z,3084920.369,"c(""distractor1"", ""distractor2"", ""distractor3"")",Gesundheit,salama,d,NA,NA,NA,NA,NA,NA,NA,NA,NA,NA,NA,NA,NA,NA,NA,NA,NA,NA,NA,NA,NA,NA,NA,NA,NA,NA
b015b,task,flow.Sequence,1_1_2,NA,NA,completion,20533.597,3064356,3064354.129,3064370.302,3084903.899,3084905.9000001,2023-05-31T16:09:59Z,3084920.369,"c(""distractor1"", ""distractor2"", ""distractor3"")",Gesundheit,salama,d,NA,NA,NA,NA,NA,NA,NA,NA,NA,NA,NA,NA,NA,NA,NA,NA,NA,NA,NA,NA,NA,NA,NA,NA,NA,NA
b015b,deep,flow.Sequence,1_1_3_0,NA,NA,skipped,NA,3084906.2,NA,NA,3084903.899,3084906.4000001,2023-05-31T16:09:59Z,3084920.369,"c(""distractor1"", ""distractor2"", ""distractor3"")",Rückhalt,msaada,s,muhula,auwali,kiwimbe,NA,NA,NA,NA,NA,NA,NA,NA,NA,NA,NA,NA,NA,NA,NA,NA,NA,NA,NA,NA,NA,NA,NA
b015b,Shallow Question,html.Page,1_1_3_1_0,NA,NA,form submission,14372.431000191,3084906.6000001,3084903.899,3084920.369,3099292.8000002,3099293,2023-05-31T16:10:13Z,3099308.675,"c(""distractor1"", ""distractor2"", ""distractor3"")",Rückhalt,msaada,s,muhula,auwali,kiwimbe,auwali,NA,NA,NA,NA,NA,NA,NA,NA,NA,NA,NA,NA,NA,NA,NA,NA,NA,NA,NA,NA,NA,NA
b015b,"""Richtig""-Screen",canvas.Screen,1_1_3_1_1,NA,NA,skipped,NA,3099294.8000002,NA,NA,3099292.8000002,3099294.9000001,2023-05-31T16:10:13Z,3099308.675,"c(""distractor1"", ""distractor2"", ""distractor3"")",Rückhalt,msaada,s,muhula,auwali,kiwimbe,NA,NA,NA,NA,NA,NA,NA,NA,NA,NA,NA,NA,NA,NA,NA,NA,NA,NA,NA,NA,NA,NA,NA
b015b,"""Falsch""-Screen",canvas.Screen,1_1_3_1_2,NA,NA,timeout,4995.932,3099295.6000001,3099291.679,3099308.675,3104287.89,3104288.8000002,2023-05-31T16:10:18Z,3104304.607,"c(""distractor1"", ""distractor2"", ""distractor3"")",Rückhalt,msaada,s,muhula,auwali,kiwimbe,NA,NA,0,NA,NA,NA,NA,NA,NA,NA,NA,NA,NA,NA,NA,NA,NA,NA,NA,NA,NA,NA,NA
b015b,shallow,flow.Sequence,1_1_3_1,NA,NA,completion,19367.521,3084906.5,3084903.899,3084920.369,3104287.89,3104289.3000002,2023-05-31T16:10:18Z,3104304.607,"c(""distractor1"", ""distractor2"", ""distractor3"")",Rückhalt,msaada,s,muhula,auwali,kiwimbe,NA,NA,NA,NA,NA,NA,NA,NA,NA,NA,NA,NA,NA,NA,NA,NA,NA,NA,NA,NA,NA,NA,NA
b015b,task,flow.Sequence,1_1_3,NA,NA,completion,19367.521,3084906.1000001,3084903.899,3084920.369,3104287.89,3104289.5,2023-05-31T16:10:18Z,3104304.607,"c(""distractor1"", ""distractor2"", ""distractor3"")",Rückhalt,msaada,s,muhula,auwali,kiwimbe,NA,NA,NA,NA,NA,NA,NA,NA,NA,NA,NA,NA,NA,NA,NA,NA,NA,NA,NA,NA,NA,NA,NA
b015b,Deep Question,html.Page,1_1_4_0_0,NA,NA,form submission,7178.3930000002,3104289.8000002,3104287.89,3104304.607,3111483,3111483.7,2023-05-31T16:10:25Z,3111500.032,"c(""distractor1"", ""distractor2"", ""distractor3"")",Qualität,mtindo,d,NA,NA,NA,rgh,NA,NA,NA,NA,NA,NA,NA,NA,NA,NA,NA,NA,NA,NA,NA,NA,NA,NA,NA,NA,NA,NA
b015b,"""Richtig""-Screen",canvas.Screen,1_1_4_0_1,NA,NA,skipped,NA,3111486,NA,NA,3111483,3111486.2,2023-05-31T16:10:25Z,3111500.032,"c(""distractor1"", ""distractor2"", ""distractor3"")",Qualität,mtindo,d,NA,NA,NA,NA,NA,NA,NA,NA,NA,NA,NA,NA,NA,NA,NA,NA,NA,NA,NA,NA,NA,NA,NA,NA,NA,NA
b015b,"""Falsch""-Screen",canvas.Screen,1_1_4_0_2,NA,NA,timeout,4994.0749999997,3111486.7,3111465.549,3111500.032,3116477.805,3116478.8000002,2023-05-31T16:10:30Z,3116494.107,"c(""distractor1"", ""distractor2"", ""distractor3"")",Qualität,mtindo,d,NA,NA,NA,NA,NA,0,NA,NA,NA,NA,NA,NA,NA,NA,NA,NA,NA,NA,NA,NA,NA,NA,NA,NA,NA,NA
b015b,deep,flow.Sequence,1_1_4_0,NA,NA,completion,12173.198,3104289.7,3104287.89,3104304.607,3116477.805,3116479.2,2023-05-31T16:10:30Z,3116494.107,"c(""distractor1"", ""distractor2"", ""distractor3"")",Qualität,mtindo,d,NA,NA,NA,NA,NA,NA,NA,NA,NA,NA,NA,NA,NA,NA,NA,NA,NA,NA,NA,NA,NA,NA,NA,NA,NA,NA
b015b,shallow,flow.Sequence,1_1_4_1,NA,NA,skipped,NA,3116479.4000001,NA,NA,3116477.805,3116479.6000001,2023-05-31T16:10:30Z,3116494.107,"c(""distractor1"", ""distractor2"", ""distractor3"")",Qualität,mtindo,d,NA,NA,NA,NA,NA,NA,NA,NA,NA,NA,NA,NA,NA,NA,NA,NA,NA,NA,NA,NA,NA,NA,NA,NA,NA,NA
b015b,task,flow.Sequence,1_1_4,NA,NA,completion,12173.198,3104289.7,3104287.89,3104304.607,3116477.805,3116480,2023-05-31T16:10:30Z,3116494.107,"c(""distractor1"", ""distractor2"", ""distractor3"")",Qualität,mtindo,d,NA,NA,NA,NA,NA,NA,NA,NA,NA,NA,NA,NA,NA,NA,NA,NA,NA,NA,NA,NA,NA,NA,NA,NA,NA,NA
b015b,deep,flow.Sequence,1_1_5_0,NA,NA,skipped,NA,3116480.2,NA,NA,3116477.805,3116480.3000002,2023-05-31T16:10:30Z,3116494.107,"c(""distractor1"", ""distractor2"", ""distractor3"")",Kritik,lawama,s,dereva,nafasi,mawazo,NA,NA,NA,NA,NA,NA,NA,NA,NA,NA,NA,NA,NA,NA,NA,NA,NA,NA,NA,NA,NA,NA,NA
b015b,Shallow Question,html.Page,1_1_5_1_0,NA,NA,form submission,4398.9930001432,3116480.6000001,3116477.805,3116494.107,3120893.1000001,3120893.2,2023-05-31T16:10:35Z,3120907.692,"c(""distractor1"", ""distractor2"", ""distractor3"")",Kritik,lawama,s,dereva,nafasi,mawazo,mawazo,NA,NA,NA,NA,NA,NA,NA,NA,NA,NA,NA,NA,NA,NA,NA,NA,NA,NA,NA,NA,NA,NA
b015b,"""Richtig""-Screen",canvas.Screen,1_1_5_1_1,NA,NA,skipped,NA,3120895.1000001,NA,NA,3120893.1000001,3120895.2,2023-05-31T16:10:35Z,3120907.692,"c(""distractor1"", ""distractor2"", ""distractor3"")",Kritik,lawama,s,dereva,nafasi,mawazo,NA,NA,NA,NA,NA,NA,NA,NA,NA,NA,NA,NA,NA,NA,NA,NA,NA,NA,NA,NA,NA,NA,NA
b015b,"""Falsch""-Screen",canvas.Screen,1_1_5_1_2,NA,NA,timeout,4995.9130000002,3120895.9000001,3120890.395,3120907.692,3125886.531,3125887.5,2023-05-31T16:10:40Z,3125903.605,"c(""distractor1"", ""distractor2"", ""distractor3"")",Kritik,lawama,s,dereva,nafasi,mawazo,NA,NA,0,NA,NA,NA,NA,NA,NA,NA,NA,NA,NA,NA,NA,NA,NA,NA,NA,NA,NA,NA,NA
b015b,shallow,flow.Sequence,1_1_5_1,NA,NA,completion,9392.4240000001,3116480.4000001,3116477.805,3116494.107,3125886.531,3125887.8000002,2023-05-31T16:10:40Z,3125903.605,"c(""distractor1"", ""distractor2"", ""distractor3"")",Kritik,lawama,s,dereva,nafasi,mawazo,NA,NA,NA,NA,NA,NA,NA,NA,NA,NA,NA,NA,NA,NA,NA,NA,NA,NA,NA,NA,NA,NA,NA
b015b,task,flow.Sequence,1_1_5,NA,NA,completion,9392.4240000001,3116480.1000001,3116477.805,3116494.107,3125886.531,3125888.4000001,2023-05-31T16:10:40Z,3125903.605,"c(""distractor1"", ""distractor2"", ""distractor3"")",Kritik,lawama,s,dereva,nafasi,mawazo,NA,NA,NA,NA,NA,NA,NA,NA,NA,NA,NA,NA,NA,NA,NA,NA,NA,NA,NA,NA,NA,NA,NA
b015b,block,flow.Loop,1_1,NA,NA,completion,96237.73,3029640.3000002,3029631.853,3029648.801,3125886.531,3125888.8000002,2023-05-31T16:10:40Z,3125903.605,"c(""distractor1"", ""distractor2"", ""distractor3"")",NA,NA,NA,NA,NA,NA,NA,NA,NA,NA,NA,NA,NA,NA,NA,NA,NA,NA,NA,NA,NA,NA,NA,NA,NA,NA,NA,NA,NA
b015b,Practice,flow.Sequence,1,NA,NA,completion,102182.819,3023700.7,3023684.658,3023703.712,3125886.531,3125889.2,2023-05-31T16:10:40Z,3125903.605,NULL,NA,NA,NA,NA,NA,NA,NA,NA,NA,NA,NA,NA,NA,NA,NA,NA,NA,NA,NA,NA,NA,NA,NA,NA,NA,NA,NA,NA,NA
b015b,Experiment start,canvas.Screen,2,weiter,keypress(q),response,16267.495000143,3125889.5,3125886.531,3125903.605,3142171.1000001,3142172.2,2023-05-31T16:10:56Z,3142256.522,NULL,NA,NA,NA,NA,NA,NA,NA,NA,NA,NA,NA,NA,NA,NA,NA,NA,NA,NA,NA,NA,NA,NA,NA,NA,NA,NA,NA,NA,NA
b015b,deep,flow.Sequence,3_0_0_0_0_0,NA,NA,skipped,NA,3142247.5,NA,NA,3142171.1000001,3142247.5,2023-05-31T16:10:56Z,3142256.522,NULL,Verstand,ufahamivu,s,shakawa,hadhari,mhandisi,NA,sdf,NA,0,NA,NA,NA,NA,NA,NA,NA,NA,NA,NA,NA,NA,NA,NA,NA,NA,NA,NA,NA
b015b,Shallow Question,html.Page,3_0_0_0_0_1_0,NA,NA,form submission,8461.9780000001,3142247.6000001,3142238.75,3142256.522,3150718.5,3150718.7,2023-05-31T16:11:04Z,3150732.996,NULL,Verstand,ufahamivu,s,shakawa,hadhari,mhandisi,ufahamivu,NA,NA,0,NA,NA,NA,NA,NA,NA,NA,NA,NA,NA,NA,NA,NA,NA,NA,NA,NA,NA,NA
b015b,"""Richtig""-Screen",canvas.Screen,3_0_0_0_0_1_1,NA,NA,timeout,4995.429,3150720.5,3150715.898,3150732.996,3155711.893,3155712.7,2023-05-31T16:11:09Z,3155728.425,NULL,Verstand,ufahamivu,s,shakawa,hadhari,mhandisi,NA,sdf,1,0,NA,NA,NA,NA,NA,NA,NA,NA,NA,NA,NA,NA,NA,NA,NA,NA,NA,NA,NA
b015b,"""Falsch""-Screen",canvas.Screen,3_0_0_0_0_1_2,NA,NA,skipped,NA,3155716.7,NA,NA,3155711.893,3155716.7,2023-05-31T16:11:09Z,3155728.425,NULL,Verstand,ufahamivu,s,shakawa,hadhari,mhandisi,NA,sdf,NA,0,NA,NA,NA,NA,NA,NA,NA,NA,NA,NA,NA,NA,NA,NA,NA,NA,NA,NA,NA
b015b,shallow,flow.Sequence,3_0_0_0_0_1,NA,NA,completion,13455.371,3142247.6000001,3142238.75,3142256.522,3155711.893,3155716.8000002,2023-05-31T16:11:09Z,3155728.425,NULL,Verstand,ufahamivu,s,shakawa,hadhari,mhandisi,NA,sdf,NA,0,NA,NA,NA,NA,NA,NA,NA,NA,NA,NA,NA,NA,NA,NA,NA,NA,NA,NA,NA
b015b,task,flow.Sequence,3_0_0_0_0,NA,NA,completion,13455.371,3142247.5,3142238.75,3142256.522,3155711.893,3155716.9000001,2023-05-31T16:11:09Z,3155728.425,NULL,Verstand,ufahamivu,s,shakawa,hadhari,mhandisi,NA,sdf,NA,0,NA,NA,NA,NA,NA,NA,NA,NA,NA,NA,NA,NA,NA,NA,NA,NA,NA,NA,NA
b015b,deep,flow.Sequence,3_0_0_0_1_0,NA,NA,skipped,NA,3155716.9000001,NA,NA,3155711.893,3155716.9000001,2023-05-31T16:11:09Z,3155728.425,NULL,Widerstand,usulubu,s,kusababisha,mwalimu,mwenendo,NA,sdf,NA,0,NA,NA,NA,NA,NA,NA,NA,NA,NA,NA,NA,NA,NA,NA,NA,NA,NA,NA,NA
b015b,Shallow Question,html.Page,3_0_0_0_1_1_0,NA,NA,form submission,4181.9750000956,3155717,3155711.893,3155728.425,3159910.4000001,3159910.6000001,2023-05-31T16:11:14Z,3159925.671,NULL,Widerstand,usulubu,s,kusababisha,mwalimu,mwenendo,usulubu,NA,NA,0,NA,NA,NA,NA,NA,NA,NA,NA,NA,NA,NA,NA,NA,NA,NA,NA,NA,NA,NA
b015b,"""Richtig""-Screen",canvas.Screen,3_0_0_0_1_1_1,NA,NA,timeout,4995.2339999997,3159913,3159908.822,3159925.671,3164904.582,3164905.5,2023-05-31T16:11:19Z,3164920.905,NULL,Widerstand,usulubu,s,kusababisha,mwalimu,mwenendo,NA,sdf,1,0,NA,NA,NA,NA,NA,NA,NA,NA,NA,NA,NA,NA,NA,NA,NA,NA,NA,NA,NA
b015b,"""Falsch""-Screen",canvas.Screen,3_0_0_0_1_1_2,NA,NA,skipped,NA,3164910.8000002,NA,NA,3164904.582,3164911.1000001,2023-05-31T16:11:19Z,3164920.905,NULL,Widerstand,usulubu,s,kusababisha,mwalimu,mwenendo,NA,sdf,NA,0,NA,NA,NA,NA,NA,NA,NA,NA,NA,NA,NA,NA,NA,NA,NA,NA,NA,NA,NA
b015b,shallow,flow.Sequence,3_0_0_0_1_1,NA,NA,completion,9176.1570000001,3155717,3155711.893,3155728.425,3164904.582,3164911.5,2023-05-31T16:11:19Z,3164920.905,NULL,Widerstand,usulubu,s,kusababisha,mwalimu,mwenendo,NA,sdf,NA,0,NA,NA,NA,NA,NA,NA,NA,NA,NA,NA,NA,NA,NA,NA,NA,NA,NA,NA,NA
b015b,task,flow.Sequence,3_0_0_0_1,NA,NA,completion,9176.1570000001,3155716.9000001,3155711.893,3155728.425,3164904.582,3164911.8000002,2023-05-31T16:11:19Z,3164920.905,NULL,Widerstand,usulubu,s,kusababisha,mwalimu,mwenendo,NA,sdf,NA,0,NA,NA,NA,NA,NA,NA,NA,NA,NA,NA,NA,NA,NA,NA,NA,NA,NA,NA,NA
b015b,Deep Question,html.Page,3_0_0_0_2_0_0,NA,NA,form submission,4524.1950001433,3164911.9000001,3164904.582,3164920.905,3169445.1000001,3169445.2,2023-05-31T16:11:23Z,3169450.427,NULL,Kreativität,ubunifu,d,NA,NA,NA,fur,NA,NA,0,NA,NA,NA,NA,NA,NA,NA,NA,NA,NA,NA,NA,NA,NA,NA,NA,NA,NA,NA
b015b,"""Richtig""-Screen",canvas.Screen,3_0_0_0_2_0_1,NA,NA,skipped,NA,3169446.9000001,NA,NA,3169445.1000001,3169447.1000001,2023-05-31T16:11:23Z,3169450.427,NULL,Kreativität,ubunifu,d,NA,NA,NA,NA,sdf,NA,0,NA,NA,NA,NA,NA,NA,NA,NA,NA,NA,NA,NA,NA,NA,NA,NA,NA,NA,NA
b015b,"""Falsch""-Screen",canvas.Screen,3_0_0_0_2_0_2,NA,NA,timeout,4996.6009999998,3169447.7,3169434.345,3169450.427,3174429.835,3174431.6000001,2023-05-31T16:11:28Z,3174447.028,NULL,Kreativität,ubunifu,d,NA,NA,NA,NA,sdf,0,0,NA,NA,NA,NA,NA,NA,NA,NA,NA,NA,NA,NA,NA,NA,NA,NA,NA,NA,NA
b015b,deep,flow.Sequence,3_0_0_0_2_0,NA,NA,completion,9508.9300000002,3164911.8000002,3164904.582,3164920.905,3174429.835,3174432.1000001,2023-05-31T16:11:28Z,3174447.028,NULL,Kreativität,ubunifu,d,NA,NA,NA,NA,sdf,NA,0,NA,NA,NA,NA,NA,NA,NA,NA,NA,NA,NA,NA,NA,NA,NA,NA,NA,NA,NA
b015b,shallow,flow.Sequence,3_0_0_0_2_1,NA,NA,skipped,NA,3174432.2,NA,NA,3174429.835,3174432.3000002,2023-05-31T16:11:28Z,3174447.028,NULL,Kreativität,ubunifu,d,NA,NA,NA,NA,sdf,NA,0,NA,NA,NA,NA,NA,NA,NA,NA,NA,NA,NA,NA,NA,NA,NA,NA,NA,NA,NA
b015b,task,flow.Sequence,3_0_0_0_2,NA,NA,completion,9508.9300000002,3164911.8000002,3164904.582,3164920.905,3174429.835,3174432.6000001,2023-05-31T16:11:28Z,3174447.028,NULL,Kreativität,ubunifu,d,NA,NA,NA,NA,sdf,NA,0,NA,NA,NA,NA,NA,NA,NA,NA,NA,NA,NA,NA,NA,NA,NA,NA,NA,NA,NA
b015b,Deep Question,html.Page,3_0_0_0_3_0_0,NA,NA,form submission,5603.8720000954,3174432.7,3174429.835,3174447.028,3180050.9000001,3180051.1000001,2023-05-31T16:11:34Z,3180058.309,NULL,Gelegenheit,wakati,d,NA,NA,NA,huji,NA,NA,0,NA,NA,NA,NA,NA,NA,NA,NA,NA,NA,NA,NA,NA,NA,NA,NA,NA,NA,NA
b015b,"""Richtig""-Screen",canvas.Screen,3_0_0_0_3_0_1,NA,NA,skipped,NA,3180053.6000001,NA,NA,3180050.9000001,3180053.7,2023-05-31T16:11:34Z,3180058.309,NULL,Gelegenheit,wakati,d,NA,NA,NA,NA,sdf,NA,0,NA,NA,NA,NA,NA,NA,NA,NA,NA,NA,NA,NA,NA,NA,NA,NA,NA,NA,NA
b015b,"""Falsch""-Screen",canvas.Screen,3_0_0_0_3_0_2,NA,NA,timeout,4996.4990000003,3180054.5,3180041.785,3180058.309,3185038.126,3185039.1000001,2023-05-31T16:11:39Z,3185054.808,NULL,Gelegenheit,wakati,d,NA,NA,NA,NA,sdf,0,0,NA,NA,NA,NA,NA,NA,NA,NA,NA,NA,NA,NA,NA,NA,NA,NA,NA,NA,NA
b015b,deep,flow.Sequence,3_0_0_0_3_0,NA,NA,completion,10591.098,3174432.7,3174429.835,3174447.028,3185038.126,3185039.7,2023-05-31T16:11:39Z,3185054.808,NULL,Gelegenheit,wakati,d,NA,NA,NA,NA,sdf,NA,0,NA,NA,NA,NA,NA,NA,NA,NA,NA,NA,NA,NA,NA,NA,NA,NA,NA,NA,NA
b015b,shallow,flow.Sequence,3_0_0_0_3_1,NA,NA,skipped,NA,3185039.9000001,NA,NA,3185038.126,3185040,2023-05-31T16:11:39Z,3185054.808,NULL,Gelegenheit,wakati,d,NA,NA,NA,NA,sdf,NA,0,NA,NA,NA,NA,NA,NA,NA,NA,NA,NA,NA,NA,NA,NA,NA,NA,NA,NA,NA
b015b,task,flow.Sequence,3_0_0_0_3,NA,NA,completion,10591.098,3174432.7,3174429.835,3174447.028,3185038.126,3185040.2,2023-05-31T16:11:39Z,3185054.808,NULL,Gelegenheit,wakati,d,NA,NA,NA,NA,sdf,NA,0,NA,NA,NA,NA,NA,NA,NA,NA,NA,NA,NA,NA,NA,NA,NA,NA,NA,NA,NA
b015b,Deep Question,html.Page,3_0_0_0_4_0_0,NA,NA,form submission,2756.8920000475,3185040.7,3185038.126,3185054.808,3187811.7,3187811.9000001,2023-05-31T16:11:42Z,3187818.75,NULL,Ausschluss,kutengwa,d,NA,NA,NA,khiu,NA,NA,0,NA,NA,NA,NA,NA,NA,NA,NA,NA,NA,NA,NA,NA,NA,NA,NA,NA,NA,NA
b015b,"""Richtig""-Screen",canvas.Screen,3_0_0_0_4_0_1,NA,NA,skipped,NA,3187814.4000001,NA,NA,3187811.7,3187814.6000001,2023-05-31T16:11:42Z,3187818.75,NULL,Ausschluss,kutengwa,d,NA,NA,NA,NA,sdf,NA,0,NA,NA,NA,NA,NA,NA,NA,NA,NA,NA,NA,NA,NA,NA,NA,NA,NA,NA,NA
b015b,"""Falsch""-Screen",canvas.Screen,3_0_0_0_4_0_2,NA,NA,timeout,4995.8369999998,3187815.5,3187802.551,3187818.75,3192798.442,3192799.5,2023-05-31T16:11:46Z,3192814.587,NULL,Ausschluss,kutengwa,d,NA,NA,NA,NA,sdf,0,0,NA,NA,NA,NA,NA,NA,NA,NA,NA,NA,NA,NA,NA,NA,NA,NA,NA,NA,NA
b015b,deep,flow.Sequence,3_0_0_0_4_0,NA,NA,completion,7743.6339999996,3185040.6000001,3185038.126,3185054.808,3192798.442,3192799.8000002,2023-05-31T16:11:46Z,3192814.587,NULL,Ausschluss,kutengwa,d,NA,NA,NA,NA,sdf,NA,0,NA,NA,NA,NA,NA,NA,NA,NA,NA,NA,NA,NA,NA,NA,NA,NA,NA,NA,NA
b015b,shallow,flow.Sequence,3_0_0_0_4_1,NA,NA,skipped,NA,3192799.9000001,NA,NA,3192798.442,3192800.1000001,2023-05-31T16:11:46Z,3192814.587,NULL,Ausschluss,kutengwa,d,NA,NA,NA,NA,sdf,NA,0,NA,NA,NA,NA,NA,NA,NA,NA,NA,NA,NA,NA,NA,NA,NA,NA,NA,NA,NA
b015b,task,flow.Sequence,3_0_0_0_4,NA,NA,completion,7743.6339999996,3185040.4000001,3185038.126,3185054.808,3192798.442,3192800.4000001,2023-05-31T16:11:46Z,3192814.587,NULL,Ausschluss,kutengwa,d,NA,NA,NA,NA,sdf,NA,0,NA,NA,NA,NA,NA,NA,NA,NA,NA,NA,NA,NA,NA,NA,NA,NA,NA,NA,NA
b015b,Deep Question,html.Page,3_0_0_0_5_0_0,NA,NA,form submission,3725.0130001432,3192800.7,3192798.442,3192814.587,3196539.6000001,3196539.8000002,2023-05-31T16:11:50Z,3196544.752,NULL,Können,unaweza,d,NA,NA,NA,furh,NA,NA,0,NA,NA,NA,NA,NA,NA,NA,NA,NA,NA,NA,NA,NA,NA,NA,NA,NA,NA,NA
b015b,"""Richtig""-Screen",canvas.Screen,3_0_0_0_5_0_1,NA,NA,skipped,NA,3196542.3000002,NA,NA,3196539.6000001,3196542.4000001,2023-05-31T16:11:50Z,3196544.752,NULL,Können,unaweza,d,NA,NA,NA,NA,sdf,NA,0,NA,NA,NA,NA,NA,NA,NA,NA,NA,NA,NA,NA,NA,NA,NA,NA,NA,NA,NA
b015b,"""Falsch""-Screen",canvas.Screen,3_0_0_0_5_0_2,NA,NA,timeout,4995.8700000001,3196543.4000001,3196528.412,3196544.752,3201524.551,3201525.4000001,2023-05-31T16:11:55Z,3201540.622,NULL,Können,unaweza,d,NA,NA,NA,NA,sdf,0,0,NA,NA,NA,NA,NA,NA,NA,NA,NA,NA,NA,NA,NA,NA,NA,NA,NA,NA,NA
b015b,deep,flow.Sequence,3_0_0_0_5_0,NA,NA,completion,8709.9640000002,3192800.7,3192798.442,3192814.587,3201524.551,3201525.8000002,2023-05-31T16:11:55Z,3201540.622,NULL,Können,unaweza,d,NA,NA,NA,NA,sdf,NA,0,NA,NA,NA,NA,NA,NA,NA,NA,NA,NA,NA,NA,NA,NA,NA,NA,NA,NA,NA
b015b,shallow,flow.Sequence,3_0_0_0_5_1,NA,NA,skipped,NA,3201525.9000001,NA,NA,3201524.551,3201526.1000001,2023-05-31T16:11:55Z,3201540.622,NULL,Können,unaweza,d,NA,NA,NA,NA,sdf,NA,0,NA,NA,NA,NA,NA,NA,NA,NA,NA,NA,NA,NA,NA,NA,NA,NA,NA,NA,NA
b015b,task,flow.Sequence,3_0_0_0_5,NA,NA,completion,8709.9640000002,3192800.5,3192798.442,3192814.587,3201524.551,3201526.4000001,2023-05-31T16:11:55Z,3201540.622,NULL,Können,unaweza,d,NA,NA,NA,NA,sdf,NA,0,NA,NA,NA,NA,NA,NA,NA,NA,NA,NA,NA,NA,NA,NA,NA,NA,NA,NA,NA
b015b,deep,flow.Sequence,3_0_0_0_6_0,NA,NA,skipped,NA,3201526.6000001,NA,NA,3201524.551,3201526.6000001,2023-05-31T16:11:55Z,3201540.622,NULL,Gefährdung,kuhatarisha,s,uchokozi,udhaifu,makorowezo,NA,sdf,NA,0,NA,NA,NA,NA,NA,NA,NA,NA,NA,NA,NA,NA,NA,NA,NA,NA,NA,NA,NA
b015b,Shallow Question,html.Page,3_0_0_0_6_1_0,NA,NA,form submission,4280.0780000477,3201526.8000002,3201524.551,3201540.622,3205820.7,3205821,2023-05-31T16:12:00Z,3205837.775,NULL,Gefährdung,kuhatarisha,s,uchokozi,udhaifu,makorowezo,udhaifu,NA,NA,0,NA,NA,NA,NA,NA,NA,NA,NA,NA,NA,NA,NA,NA,NA,NA,NA,NA,NA,NA
b015b,"""Richtig""-Screen",canvas.Screen,3_0_0_0_6_1_1,NA,NA,skipped,NA,3205822.9000001,NA,NA,3205820.7,3205823,2023-05-31T16:12:00Z,3205837.775,NULL,Gefährdung,kuhatarisha,s,uchokozi,udhaifu,makorowezo,NA,sdf,NA,0,NA,NA,NA,NA,NA,NA,NA,NA,NA,NA,NA,NA,NA,NA,NA,NA,NA,NA,NA
b015b,"""Falsch""-Screen",canvas.Screen,3_0_0_0_6_1_2,NA,NA,timeout,4995.1980000003005,3205824.4000001,3205804.416,3205837.775,3210816.673,3210817.7,2023-05-31T16:12:05Z,3210832.973,NULL,Gefährdung,kuhatarisha,s,uchokozi,udhaifu,makorowezo,NA,sdf,0,0,NA,NA,NA,NA,NA,NA,NA,NA,NA,NA,NA,NA,NA,NA,NA,NA,NA,NA,NA
b015b,shallow,flow.Sequence,3_0_0_0_6_1,NA,NA,completion,9276.051,3201526.8000002,3201524.551,3201540.622,3210816.673,3210818,2023-05-31T16:12:05Z,3210832.973,NULL,Gefährdung,kuhatarisha,s,uchokozi,udhaifu,makorowezo,NA,sdf,NA,0,NA,NA,NA,NA,NA,NA,NA,NA,NA,NA,NA,NA,NA,NA,NA,NA,NA,NA,NA
b015b,task,flow.Sequence,3_0_0_0_6,NA,NA,completion,9276.051,3201526.5,3201524.551,3201540.622,3210816.673,3210818.2,2023-05-31T16:12:05Z,3210832.973,NULL,Gefährdung,kuhatarisha,s,uchokozi,udhaifu,makorowezo,NA,sdf,NA,0,NA,NA,NA,NA,NA,NA,NA,NA,NA,NA,NA,NA,NA,NA,NA,NA,NA,NA,NA
b015b,deep,flow.Sequence,3_0_0_0_7_0,NA,NA,skipped,NA,3210818.4000001,NA,NA,3210816.673,3210818.7,2023-05-31T16:12:05Z,3210832.973,NULL,Kontrolle,kudhibiti,s,mbinguni,kufunga,utegemezi,NA,sdf,NA,0,NA,NA,NA,NA,NA,NA,NA,NA,NA,NA,NA,NA,NA,NA,NA,NA,NA,NA,NA
b015b,Shallow Question,html.Page,3_0_0_0_7_1_0,NA,NA,form submission,5767.1270001428,3210818.8000002,3210816.673,3210832.973,3216600.1000001,3216600.3000002,2023-05-31T16:12:10Z,3216612.032,NULL,Kontrolle,kudhibiti,s,mbinguni,kufunga,utegemezi,utegemezi,NA,NA,0,NA,NA,NA,NA,NA,NA,NA,NA,NA,NA,NA,NA,NA,NA,NA,NA,NA,NA,NA
b015b,"""Richtig""-Screen",canvas.Screen,3_0_0_0_7_1_1,NA,NA,skipped,NA,3216602.2,NA,NA,3216600.1000001,3216602.3000002,2023-05-31T16:12:10Z,3216612.032,NULL,Kontrolle,kudhibiti,s,mbinguni,kufunga,utegemezi,NA,sdf,NA,0,NA,NA,NA,NA,NA,NA,NA,NA,NA,NA,NA,NA,NA,NA,NA,NA,NA,NA,NA
b015b,"""Falsch""-Screen",canvas.Screen,3_0_0_0_7_1_2,NA,NA,timeout,4995.8429999999,3216602.9000001,3216595.151,3216612.032,3221591.249,3221592.1000001,2023-05-31T16:12:15Z,3221607.875,NULL,Kontrolle,kudhibiti,s,mbinguni,kufunga,utegemezi,NA,sdf,0,0,NA,NA,NA,NA,NA,NA,NA,NA,NA,NA,NA,NA,NA,NA,NA,NA,NA,NA,NA
b015b,shallow,flow.Sequence,3_0_0_0_7_1,NA,NA,completion,10758.276,3210818.8000002,3210816.673,3210832.973,3221591.249,3221592.6000001,2023-05-31T16:12:15Z,3221607.875,NULL,Kontrolle,kudhibiti,s,mbinguni,kufunga,utegemezi,NA,sdf,NA,0,NA,NA,NA,NA,NA,NA,NA,NA,NA,NA,NA,NA,NA,NA,NA,NA,NA,NA,NA
b015b,task,flow.Sequence,3_0_0_0_7,NA,NA,completion,10758.276,3210818.4000001,3210816.673,3210832.973,3221591.249,3221592.8000002,2023-05-31T16:12:15Z,3221607.875,NULL,Kontrolle,kudhibiti,s,mbinguni,kufunga,utegemezi,NA,sdf,NA,0,NA,NA,NA,NA,NA,NA,NA,NA,NA,NA,NA,NA,NA,NA,NA,NA,NA,NA,NA
b015b,block,flow.Loop,3_0_0_0,NA,NA,completion,79334.727,3142247.4000001,3142238.75,3142256.522,3221591.249,3221593.1000001,2023-05-31T16:12:15Z,3221607.875,NULL,NA,NA,NA,NA,NA,NA,NA,sdf,NA,0,NA,NA,NA,NA,NA,NA,NA,NA,NA,NA,NA,NA,NA,NA,NA,NA,NA,NA,NA
b015b,weiter,canvas.Screen,3_0_0_1,sdf,keypress(Space),response,1533.4250001907,3221593.3000002,3221591.249,3221607.875,3223141.3000002,3223141.9000001,2023-05-31T16:12:17Z,3223206.911,NULL,NA,NA,NA,NA,NA,NA,NA,sdf,NA,0,NA,NA,NA,NA,NA,NA,NA,NA,NA,NA,NA,NA,NA,NA,NA,NA,NA,NA,NA
b015b,check continue,flow.Sequence,3_0_0,NA,NA,completion,80884.778000191,3142247.4000001,3142238.75,3142256.522,3223141.3000002,3223142.2,2023-05-31T16:12:17Z,3223206.911,NULL,NA,NA,NA,NA,NA,NA,NA,sdf,NA,0,NA,NA,NA,NA,NA,NA,NA,NA,NA,NA,NA,NA,NA,NA,NA,NA,NA,NA,NA
b015b,deep,flow.Sequence,3_0_1_0_0_0,NA,NA,skipped,NA,3223189.5,NA,NA,3223141.3000002,3223189.7,2023-05-31T16:12:17Z,3223206.911,NULL,Gefährdung,kuhatarisha,s,uchokozi,udhaifu,makorowezo,NA,sdfdsf,NA,1,NA,NA,NA,NA,NA,NA,NA,NA,NA,NA,NA,NA,NA,NA,NA,NA,NA,NA,NA
b015b,Shallow Question,html.Page,3_0_1_0_0_1_0,NA,NA,form submission,4264.7890000478,3223189.8000002,3223189.66,3223206.911,3227471.7,3227471.8000002,2023-05-31T16:12:21Z,3227486.71,NULL,Gefährdung,kuhatarisha,s,uchokozi,udhaifu,makorowezo,kuhatarisha,NA,NA,1,NA,NA,NA,NA,NA,NA,NA,NA,NA,NA,NA,NA,NA,NA,NA,NA,NA,NA,NA
b015b,"""Richtig""-Screen",canvas.Screen,3_0_1_0_0_1_1,NA,NA,timeout,4995.1660000002,3227473.7,3227469.853,3227486.71,3232465.617,3232466.7,2023-05-31T16:12:26Z,3232481.876,NULL,Gefährdung,kuhatarisha,s,uchokozi,udhaifu,makorowezo,NA,sdfdsf,1,1,NA,NA,NA,NA,NA,NA,NA,NA,NA,NA,NA,NA,NA,NA,NA,NA,NA,NA,NA
b015b,"""Falsch""-Screen",canvas.Screen,3_0_1_0_0_1_2,NA,NA,skipped,NA,3232472,NA,NA,3232465.617,3232472.3000002,2023-05-31T16:12:26Z,3232481.876,NULL,Gefährdung,kuhatarisha,s,uchokozi,udhaifu,makorowezo,NA,sdfdsf,NA,1,NA,NA,NA,NA,NA,NA,NA,NA,NA,NA,NA,NA,NA,NA,NA,NA,NA,NA,NA
b015b,shallow,flow.Sequence,3_0_1_0_0_1,NA,NA,completion,9258.7060000002,3223189.8000002,3223189.66,3223206.911,3232465.617,3232472.7,2023-05-31T16:12:26Z,3232481.876,NULL,Gefährdung,kuhatarisha,s,uchokozi,udhaifu,makorowezo,NA,sdfdsf,NA,1,NA,NA,NA,NA,NA,NA,NA,NA,NA,NA,NA,NA,NA,NA,NA,NA,NA,NA,NA
b015b,task,flow.Sequence,3_0_1_0_0,NA,NA,completion,9258.7060000002,3223189.5,3223189.66,3223206.911,3232465.617,3232472.9000001,2023-05-31T16:12:26Z,3232481.876,NULL,Gefährdung,kuhatarisha,s,uchokozi,udhaifu,makorowezo,NA,sdfdsf,NA,1,NA,NA,NA,NA,NA,NA,NA,NA,NA,NA,NA,NA,NA,NA,NA,NA,NA,NA,NA
b015b,deep,flow.Sequence,3_0_1_0_1_0,NA,NA,skipped,NA,3232473.1000001,NA,NA,3232465.617,3232473.3000002,2023-05-31T16:12:26Z,3232481.876,NULL,Widerstand,usulubu,s,kusababisha,mwalimu,mwenendo,NA,sdfdsf,NA,1,NA,NA,NA,NA,NA,NA,NA,NA,NA,NA,NA,NA,NA,NA,NA,NA,NA,NA,NA
b015b,Shallow Question,html.Page,3_0_1_0_1_1_0,NA,NA,form submission,7979.3240000475,3232473.4000001,3232465.617,3232481.876,3240461.2,3240461.3000002,2023-05-31T16:12:34Z,3240475.912,NULL,Widerstand,usulubu,s,kusababisha,mwalimu,mwenendo,usulubu,NA,NA,1,NA,NA,NA,NA,NA,NA,NA,NA,NA,NA,NA,NA,NA,NA,NA,NA,NA,NA,NA
b015b,"""Richtig""-Screen",canvas.Screen,3_0_1_0_1_1_1,NA,NA,timeout,4995.8130000001,3240463,3240458.938,3240475.912,3245454.797,3245455.8000002,2023-05-31T16:12:39Z,3245471.725,NULL,Widerstand,usulubu,s,kusababisha,mwalimu,mwenendo,NA,sdfdsf,1,1,NA,NA,NA,NA,NA,NA,NA,NA,NA,NA,NA,NA,NA,NA,NA,NA,NA,NA,NA
b015b,"""Falsch""-Screen",canvas.Screen,3_0_1_0_1_1_2,NA,NA,skipped,NA,3245460.4000001,NA,NA,3245454.797,3245460.4000001,2023-05-31T16:12:39Z,3245471.725,NULL,Widerstand,usulubu,s,kusababisha,mwalimu,mwenendo,NA,sdfdsf,NA,1,NA,NA,NA,NA,NA,NA,NA,NA,NA,NA,NA,NA,NA,NA,NA,NA,NA,NA,NA
b015b,shallow,flow.Sequence,3_0_1_0_1_1,NA,NA,completion,12972.921,3232473.4000001,3232465.617,3232481.876,3245454.797,3245460.6000001,2023-05-31T16:12:39Z,3245471.725,NULL,Widerstand,usulubu,s,kusababisha,mwalimu,mwenendo,NA,sdfdsf,NA,1,NA,NA,NA,NA,NA,NA,NA,NA,NA,NA,NA,NA,NA,NA,NA,NA,NA,NA,NA
b015b,task,flow.Sequence,3_0_1_0_1,NA,NA,completion,12972.921,3232473,3232465.617,3232481.876,3245454.797,3245460.7,2023-05-31T16:12:39Z,3245471.725,NULL,Widerstand,usulubu,s,kusababisha,mwalimu,mwenendo,NA,sdfdsf,NA,1,NA,NA,NA,NA,NA,NA,NA,NA,NA,NA,NA,NA,NA,NA,NA,NA,NA,NA,NA
b015b,Deep Question,html.Page,3_0_1_0_2_0_0,NA,NA,form submission,4443.5750001906,3245460.7,3245454.797,3245471.725,3249915.3000002,3249915.5,2023-05-31T16:12:44Z,3249917.515,NULL,Kreativität,ubunifu,d,NA,NA,NA,gut,NA,NA,1,NA,NA,NA,NA,NA,NA,NA,NA,NA,NA,NA,NA,NA,NA,NA,NA,NA,NA,NA
b015b,"""Richtig""-Screen",canvas.Screen,3_0_1_0_2_0_1,NA,NA,skipped,NA,3249917.8000002,NA,NA,3249915.3000002,3249918.1000001,2023-05-31T16:12:44Z,3249917.515,NULL,Kreativität,ubunifu,d,NA,NA,NA,NA,sdfdsf,NA,1,NA,NA,NA,NA,NA,NA,NA,NA,NA,NA,NA,NA,NA,NA,NA,NA,NA,NA,NA
b015b,"""Falsch""-Screen",canvas.Screen,3_0_1_0_2_0_2,NA,NA,timeout,4996.0469999998,3249918.7,3249901.216,3249917.515,3254897.085,3254898,2023-05-31T16:12:49Z,3254913.562,NULL,Kreativität,ubunifu,d,NA,NA,NA,NA,sdfdsf,0,1,NA,NA,NA,NA,NA,NA,NA,NA,NA,NA,NA,NA,NA,NA,NA,NA,NA,NA,NA
b015b,deep,flow.Sequence,3_0_1_0_2_0,NA,NA,completion,9425.3599999999,3245460.7,3245454.797,3245471.725,3254897.085,3254898.4000001,2023-05-31T16:12:49Z,3254913.562,NULL,Kreativität,ubunifu,d,NA,NA,NA,NA,sdfdsf,NA,1,NA,NA,NA,NA,NA,NA,NA,NA,NA,NA,NA,NA,NA,NA,NA,NA,NA,NA,NA
b015b,shallow,flow.Sequence,3_0_1_0_2_1,NA,NA,skipped,NA,3254898.5,NA,NA,3254897.085,3254898.7,2023-05-31T16:12:49Z,3254913.562,NULL,Kreativität,ubunifu,d,NA,NA,NA,NA,sdfdsf,NA,1,NA,NA,NA,NA,NA,NA,NA,NA,NA,NA,NA,NA,NA,NA,NA,NA,NA,NA,NA
b015b,task,flow.Sequence,3_0_1_0_2,NA,NA,completion,9425.3599999999,3245460.7,3245454.797,3245471.725,3254897.085,3254898.9000001,2023-05-31T16:12:49Z,3254913.562,NULL,Kreativität,ubunifu,d,NA,NA,NA,NA,sdfdsf,NA,1,NA,NA,NA,NA,NA,NA,NA,NA,NA,NA,NA,NA,NA,NA,NA,NA,NA,NA,NA
b015b,Deep Question,html.Page,3_0_1_0_3_0_0,NA,NA,form submission,4333.7380001908,3254899.1000001,3254897.085,3254913.562,3259247.3000002,3259247.6000001,2023-05-31T16:12:53Z,3259260.152,NULL,Gelegenheit,wakati,d,NA,NA,NA,ihju,NA,NA,1,NA,NA,NA,NA,NA,NA,NA,NA,NA,NA,NA,NA,NA,NA,NA,NA,NA,NA,NA
b015b,"""Richtig""-Screen",canvas.Screen,3_0_1_0_3_0_1,NA,NA,skipped,NA,3259249.4000001,NA,NA,3259247.3000002,3259249.6000001,2023-05-31T16:12:53Z,3259260.152,NULL,Gelegenheit,wakati,d,NA,NA,NA,NA,sdfdsf,NA,1,NA,NA,NA,NA,NA,NA,NA,NA,NA,NA,NA,NA,NA,NA,NA,NA,NA,NA,NA
b015b,"""Falsch""-Screen",canvas.Screen,3_0_1_0_3_0_2,NA,NA,timeout,4996.2130000005,3259250.1000001,3259243.486,3259260.152,3264239.152,3264240.1000001,2023-05-31T16:12:58Z,3264256.365,NULL,Gelegenheit,wakati,d,NA,NA,NA,NA,sdfdsf,0,1,NA,NA,NA,NA,NA,NA,NA,NA,NA,NA,NA,NA,NA,NA,NA,NA,NA,NA,NA
b015b,deep,flow.Sequence,3_0_1_0_3_0,NA,NA,completion,9325.5899999999,3254899.1000001,3254897.085,3254913.562,3264239.152,3264240.5,2023-05-31T16:12:58Z,3264256.365,NULL,Gelegenheit,wakati,d,NA,NA,NA,NA,sdfdsf,NA,1,NA,NA,NA,NA,NA,NA,NA,NA,NA,NA,NA,NA,NA,NA,NA,NA,NA,NA,NA
b015b,shallow,flow.Sequence,3_0_1_0_3_1,NA,NA,skipped,NA,3264240.7,NA,NA,3264239.152,3264240.9000001,2023-05-31T16:12:58Z,3264256.365,NULL,Gelegenheit,wakati,d,NA,NA,NA,NA,sdfdsf,NA,1,NA,NA,NA,NA,NA,NA,NA,NA,NA,NA,NA,NA,NA,NA,NA,NA,NA,NA,NA
b015b,task,flow.Sequence,3_0_1_0_3,NA,NA,completion,9325.5899999999,3254899,3254897.085,3254913.562,3264239.152,3264241.1000001,2023-05-31T16:12:58Z,3264256.365,NULL,Gelegenheit,wakati,d,NA,NA,NA,NA,sdfdsf,NA,1,NA,NA,NA,NA,NA,NA,NA,NA,NA,NA,NA,NA,NA,NA,NA,NA,NA,NA,NA
b015b,deep,flow.Sequence,3_0_1_0_4_0,NA,NA,skipped,NA,3264241.3000002,NA,NA,3264239.152,3264241.4000001,2023-05-31T16:12:58Z,3264256.365,NULL,Kontrolle,kudhibiti,s,mbinguni,kufunga,utegemezi,NA,sdfdsf,NA,1,NA,NA,NA,NA,NA,NA,NA,NA,NA,NA,NA,NA,NA,NA,NA,NA,NA,NA,NA
b015b,Shallow Question,html.Page,3_0_1_0_4_1_0,NA,NA,form submission,11097.935000191,3264241.6000001,3264239.152,3264256.365,3275354.3000002,3275354.5,2023-05-31T16:13:09Z,3275363.367,NULL,Kontrolle,kudhibiti,s,mbinguni,kufunga,utegemezi,kudhibiti,NA,NA,1,NA,NA,NA,NA,NA,NA,NA,NA,NA,NA,NA,NA,NA,NA,NA,NA,NA,NA,NA
b015b,"""Richtig""-Screen",canvas.Screen,3_0_1_0_4_1_1,NA,NA,timeout,4996.0439999998,3275356.4000001,3275347.096,3275363.367,3280343.019,3280343.9000001,2023-05-31T16:13:14Z,3280359.411,NULL,Kontrolle,kudhibiti,s,mbinguni,kufunga,utegemezi,NA,sdfdsf,1,1,NA,NA,NA,NA,NA,NA,NA,NA,NA,NA,NA,NA,NA,NA,NA,NA,NA,NA,NA
b015b,"""Falsch""-Screen",canvas.Screen,3_0_1_0_4_1_2,NA,NA,skipped,NA,3280348.7,NA,NA,3280343.019,3280348.8000002,2023-05-31T16:13:14Z,3280359.411,NULL,Kontrolle,kudhibiti,s,mbinguni,kufunga,utegemezi,NA,sdfdsf,NA,1,NA,NA,NA,NA,NA,NA,NA,NA,NA,NA,NA,NA,NA,NA,NA,NA,NA,NA,NA
b015b,shallow,flow.Sequence,3_0_1_0_4_1,NA,NA,completion,16086.654,3264241.6000001,3264239.152,3264256.365,3280343.019,3280348.9000001,2023-05-31T16:13:14Z,3280359.411,NULL,Kontrolle,kudhibiti,s,mbinguni,kufunga,utegemezi,NA,sdfdsf,NA,1,NA,NA,NA,NA,NA,NA,NA,NA,NA,NA,NA,NA,NA,NA,NA,NA,NA,NA,NA
b015b,task,flow.Sequence,3_0_1_0_4,NA,NA,completion,16086.654,3264241.2,3264239.152,3264256.365,3280343.019,3280349,2023-05-31T16:13:14Z,3280359.411,NULL,Kontrolle,kudhibiti,s,mbinguni,kufunga,utegemezi,NA,sdfdsf,NA,1,NA,NA,NA,NA,NA,NA,NA,NA,NA,NA,NA,NA,NA,NA,NA,NA,NA,NA,NA
b015b,Deep Question,html.Page,3_0_1_0_5_0_0,NA,NA,form submission,17527.089,3280349.1000001,3280343.019,3280359.411,3297886.5,3297886.7,2023-05-31T16:13:32Z,3297894.74,NULL,Können,unaweza,d,NA,NA,NA,gb,NA,NA,1,NA,NA,NA,NA,NA,NA,NA,NA,NA,NA,NA,NA,NA,NA,NA,NA,NA,NA,NA
b015b,"""Richtig""-Screen",canvas.Screen,3_0_1_0_5_0_1,NA,NA,skipped,NA,3297888.6000001,NA,NA,3297886.5,3297888.7,2023-05-31T16:13:32Z,3297894.74,NULL,Können,unaweza,d,NA,NA,NA,NA,sdfdsf,NA,1,NA,NA,NA,NA,NA,NA,NA,NA,NA,NA,NA,NA,NA,NA,NA,NA,NA,NA,NA
b015b,"""Falsch""-Screen",canvas.Screen,3_0_1_0_5_0_2,NA,NA,timeout,4996.2109999997,3297889.2,3297878.411,3297894.74,3302874.493,3302875.5,2023-05-31T16:13:37Z,3302890.951,NULL,Können,unaweza,d,NA,NA,NA,NA,sdfdsf,0,1,NA,NA,NA,NA,NA,NA,NA,NA,NA,NA,NA,NA,NA,NA,NA,NA,NA,NA,NA
b015b,deep,flow.Sequence,3_0_1_0_5_0,NA,NA,completion,22515.082,3280349.1000001,3280343.019,3280359.411,3302874.493,3302876,2023-05-31T16:13:37Z,3302890.951,NULL,Können,unaweza,d,NA,NA,NA,NA,sdfdsf,NA,1,NA,NA,NA,NA,NA,NA,NA,NA,NA,NA,NA,NA,NA,NA,NA,NA,NA,NA,NA
b015b,shallow,flow.Sequence,3_0_1_0_5_1,NA,NA,skipped,NA,3302876.2,NA,NA,3302874.493,3302876.5,2023-05-31T16:13:37Z,3302890.951,NULL,Können,unaweza,d,NA,NA,NA,NA,sdfdsf,NA,1,NA,NA,NA,NA,NA,NA,NA,NA,NA,NA,NA,NA,NA,NA,NA,NA,NA,NA,NA
b015b,task,flow.Sequence,3_0_1_0_5,NA,NA,completion,22515.082,3280349.1000001,3280343.019,3280359.411,3302874.493,3302876.7,2023-05-31T16:13:37Z,3302890.951,NULL,Können,unaweza,d,NA,NA,NA,NA,sdfdsf,NA,1,NA,NA,NA,NA,NA,NA,NA,NA,NA,NA,NA,NA,NA,NA,NA,NA,NA,NA,NA
b015b,Deep Question,html.Page,3_0_1_0_6_0_0,NA,NA,form submission,3660.6490001432,3302877,3302874.493,3302890.951,3306551.6000001,3306551.8000002,2023-05-31T16:13:40Z,3306554.181,NULL,Ausschluss,kutengwa,d,NA,NA,NA,tuhgz,NA,NA,1,NA,NA,NA,NA,NA,NA,NA,NA,NA,NA,NA,NA,NA,NA,NA,NA,NA,NA,NA
b015b,"""Richtig""-Screen",canvas.Screen,3_0_1_0_6_0_1,NA,NA,skipped,NA,3306553.8000002,NA,NA,3306551.6000001,3306553.9000001,2023-05-31T16:13:40Z,3306554.181,NULL,Ausschluss,kutengwa,d,NA,NA,NA,NA,sdfdsf,NA,1,NA,NA,NA,NA,NA,NA,NA,NA,NA,NA,NA,NA,NA,NA,NA,NA,NA,NA,NA
b015b,"""Falsch""-Screen",canvas.Screen,3_0_1_0_6_0_2,NA,NA,timeout,4996.202,3306554.9000001,3306537.613,3306554.181,3311533.922,3311534.8000002,2023-05-31T16:13:45Z,3311550.383,NULL,Ausschluss,kutengwa,d,NA,NA,NA,NA,sdfdsf,0,1,NA,NA,NA,NA,NA,NA,NA,NA,NA,NA,NA,NA,NA,NA,NA,NA,NA,NA,NA
b015b,deep,flow.Sequence,3_0_1_0_6_0,NA,NA,completion,8642.9709999999,3302876.9000001,3302874.493,3302890.951,3311533.922,3311535.3000002,2023-05-31T16:13:45Z,3311550.383,NULL,Ausschluss,kutengwa,d,NA,NA,NA,NA,sdfdsf,NA,1,NA,NA,NA,NA,NA,NA,NA,NA,NA,NA,NA,NA,NA,NA,NA,NA,NA,NA,NA
b015b,shallow,flow.Sequence,3_0_1_0_6_1,NA,NA,skipped,NA,3311535.4000001,NA,NA,3311533.922,3311535.6000001,2023-05-31T16:13:45Z,3311550.383,NULL,Ausschluss,kutengwa,d,NA,NA,NA,NA,sdfdsf,NA,1,NA,NA,NA,NA,NA,NA,NA,NA,NA,NA,NA,NA,NA,NA,NA,NA,NA,NA,NA
b015b,task,flow.Sequence,3_0_1_0_6,NA,NA,completion,8642.9709999999,3302876.9000001,3302874.493,3302890.951,3311533.922,3311535.9000001,2023-05-31T16:13:45Z,3311550.383,NULL,Ausschluss,kutengwa,d,NA,NA,NA,NA,sdfdsf,NA,1,NA,NA,NA,NA,NA,NA,NA,NA,NA,NA,NA,NA,NA,NA,NA,NA,NA,NA,NA
b015b,deep,flow.Sequence,3_0_1_0_7_0,NA,NA,skipped,NA,3311536,NA,NA,3311533.922,3311536.1000001,2023-05-31T16:13:45Z,3311550.383,NULL,Verstand,ufahamivu,s,shakawa,hadhari,mhandisi,NA,sdfdsf,NA,1,NA,NA,NA,NA,NA,NA,NA,NA,NA,NA,NA,NA,NA,NA,NA,NA,NA,NA,NA
b015b,Shallow Question,html.Page,3_0_1_0_7_1_0,NA,NA,form submission,6401.7170001431,3311536.3000002,3311533.922,3311550.383,3317952.1000001,3317952.3000002,2023-05-31T16:13:52Z,3317961.693,NULL,Verstand,ufahamivu,s,shakawa,hadhari,mhandisi,hadhari,NA,NA,1,NA,NA,NA,NA,NA,NA,NA,NA,NA,NA,NA,NA,NA,NA,NA,NA,NA,NA,NA
b015b,"""Richtig""-Screen",canvas.Screen,3_0_1_0_7_1_1,NA,NA,skipped,NA,3317954.2,NA,NA,3317952.1000001,3317954.3000002,2023-05-31T16:13:52Z,3317961.693,NULL,Verstand,ufahamivu,s,shakawa,hadhari,mhandisi,NA,sdfdsf,NA,1,NA,NA,NA,NA,NA,NA,NA,NA,NA,NA,NA,NA,NA,NA,NA,NA,NA,NA,NA
b015b,"""Falsch""-Screen",canvas.Screen,3_0_1_0_7_1_2,NA,NA,timeout,4995.6379999998,3317954.8000002,3317945.025,3317961.693,3322940.994,3322942,2023-05-31T16:13:57Z,3322957.331,NULL,Verstand,ufahamivu,s,shakawa,hadhari,mhandisi,NA,sdfdsf,0,1,NA,NA,NA,NA,NA,NA,NA,NA,NA,NA,NA,NA,NA,NA,NA,NA,NA,NA,NA
b015b,shallow,flow.Sequence,3_0_1_0_7_1,NA,NA,completion,11390.611,3311536.3000002,3311533.922,3311550.383,3322940.994,3322942.3000002,2023-05-31T16:13:57Z,3322957.331,NULL,Verstand,ufahamivu,s,shakawa,hadhari,mhandisi,NA,sdfdsf,NA,1,NA,NA,NA,NA,NA,NA,NA,NA,NA,NA,NA,NA,NA,NA,NA,NA,NA,NA,NA
b015b,task,flow.Sequence,3_0_1_0_7,NA,NA,completion,11390.611,3311536,3311533.922,3311550.383,3322940.994,3322942.6000001,2023-05-31T16:13:57Z,3322957.331,NULL,Verstand,ufahamivu,s,shakawa,hadhari,mhandisi,NA,sdfdsf,NA,1,NA,NA,NA,NA,NA,NA,NA,NA,NA,NA,NA,NA,NA,NA,NA,NA,NA,NA,NA
b015b,block,flow.Loop,3_0_1_0,NA,NA,completion,99734.083,3223189.5,3223189.66,3223206.911,3322940.994,3322942.9000001,2023-05-31T16:13:57Z,3322957.331,NULL,NA,NA,NA,NA,NA,NA,NA,sdfdsf,NA,1,NA,NA,NA,NA,NA,NA,NA,NA,NA,NA,NA,NA,NA,NA,NA,NA,NA,NA,NA
b015b,weiter,canvas.Screen,3_0_1_1,sdf,keypress(Space),response,1381.8690000479,3322943,3322940.994,3322957.331,3324339.2,3324340.2,2023-05-31T16:13:58Z,3324390.299,NULL,NA,NA,NA,NA,NA,NA,NA,sdfdsf,NA,1,NA,NA,NA,NA,NA,NA,NA,NA,NA,NA,NA,NA,NA,NA,NA,NA,NA,NA,NA
b015b,check continue,flow.Sequence,3_0_1,NA,NA,completion,101132.28900005,3223189.5,3223189.66,3223206.911,3324339.2,3324340.6000001,2023-05-31T16:13:58Z,3324390.299,NULL,NA,NA,NA,NA,NA,NA,NA,sdfdsf,NA,1,NA,NA,NA,NA,NA,NA,NA,NA,NA,NA,NA,NA,NA,NA,NA,NA,NA,NA,NA
b015b,deep,flow.Sequence,3_0_2_0_0_0,NA,NA,skipped,NA,3324371.1000001,NA,NA,3324339.2,3324371.2,2023-05-31T16:13:58Z,3324390.299,NULL,Verstand,ufahamivu,s,shakawa,hadhari,mhandisi,NA,sdf,NA,2,NA,NA,NA,NA,NA,NA,NA,NA,NA,NA,NA,NA,NA,NA,NA,NA,NA,NA,NA
b015b,Shallow Question,html.Page,3_0_2_0_0_1_0,NA,NA,form submission,4245.2009999999,3324371.7,3324356.487,3324390.299,3328635.5,3328635.7,2023-05-31T16:14:02Z,3328636.038,NULL,Verstand,ufahamivu,s,shakawa,hadhari,mhandisi,ufahamivu,NA,NA,2,NA,NA,NA,NA,NA,NA,NA,NA,NA,NA,NA,NA,NA,NA,NA,NA,NA,NA,NA
b015b,"""Richtig""-Screen",canvas.Screen,3_0_2_0_0_1_1,NA,NA,timeout,4995.9219999998,3328637.7,3328619.958,3328636.038,3333615.721,3333616.6000001,2023-05-31T16:14:07Z,3333631.96,NULL,Verstand,ufahamivu,s,shakawa,hadhari,mhandisi,NA,sdf,1,2,NA,NA,NA,NA,NA,NA,NA,NA,NA,NA,NA,NA,NA,NA,NA,NA,NA,NA,NA
b015b,"""Falsch""-Screen",canvas.Screen,3_0_2_0_0_1_2,NA,NA,skipped,NA,3333622.3000002,NA,NA,3333615.721,3333622.5,2023-05-31T16:14:07Z,3333631.96,NULL,Verstand,ufahamivu,s,shakawa,hadhari,mhandisi,NA,sdf,NA,2,NA,NA,NA,NA,NA,NA,NA,NA,NA,NA,NA,NA,NA,NA,NA,NA,NA,NA,NA
b015b,shallow,flow.Sequence,3_0_2_0_0_1,NA,NA,completion,9225.4219999998,3324371.7,3324356.487,3324390.299,3333615.721,3333622.9000001,2023-05-31T16:14:07Z,3333631.96,NULL,Verstand,ufahamivu,s,shakawa,hadhari,mhandisi,NA,sdf,NA,2,NA,NA,NA,NA,NA,NA,NA,NA,NA,NA,NA,NA,NA,NA,NA,NA,NA,NA,NA
b015b,task,flow.Sequence,3_0_2_0_0,NA,NA,completion,9225.4219999998,3324371.1000001,3324356.487,3324390.299,3333615.721,3333623,2023-05-31T16:14:07Z,3333631.96,NULL,Verstand,ufahamivu,s,shakawa,hadhari,mhandisi,NA,sdf,NA,2,NA,NA,NA,NA,NA,NA,NA,NA,NA,NA,NA,NA,NA,NA,NA,NA,NA,NA,NA
b015b,deep,flow.Sequence,3_0_2_0_1_0,NA,NA,skipped,NA,3333623.2,NA,NA,3333615.721,3333623.4000001,2023-05-31T16:14:07Z,3333631.96,NULL,Gefährdung,kuhatarisha,s,uchokozi,udhaifu,makorowezo,NA,sdf,NA,2,NA,NA,NA,NA,NA,NA,NA,NA,NA,NA,NA,NA,NA,NA,NA,NA,NA,NA,NA
b015b,Shallow Question,html.Page,3_0_2_0_1_1_0,NA,NA,form submission,5574.04,3333623.4000001,3333615.721,3333631.96,3339206,3339206.2,2023-05-31T16:14:13Z,3339210.637,NULL,Gefährdung,kuhatarisha,s,uchokozi,udhaifu,makorowezo,kuhatarisha,NA,NA,2,NA,NA,NA,NA,NA,NA,NA,NA,NA,NA,NA,NA,NA,NA,NA,NA,NA,NA,NA
b015b,"""Richtig""-Screen",canvas.Screen,3_0_2_0_1_1_1,NA,NA,timeout,4995.9329999997,3339207.9000001,3339194.567,3339210.637,3344190.078,3344191.1000001,2023-05-31T16:14:18Z,3344206.57,NULL,Gefährdung,kuhatarisha,s,uchokozi,udhaifu,makorowezo,NA,sdf,1,2,NA,NA,NA,NA,NA,NA,NA,NA,NA,NA,NA,NA,NA,NA,NA,NA,NA,NA,NA
b015b,"""Falsch""-Screen",canvas.Screen,3_0_2_0_1_1_2,NA,NA,skipped,NA,3344196.2,NA,NA,3344190.078,3344196.6000001,2023-05-31T16:14:18Z,3344206.57,NULL,Gefährdung,kuhatarisha,s,uchokozi,udhaifu,makorowezo,NA,sdf,NA,2,NA,NA,NA,NA,NA,NA,NA,NA,NA,NA,NA,NA,NA,NA,NA,NA,NA,NA,NA
b015b,shallow,flow.Sequence,3_0_2_0_1_1,NA,NA,completion,10558.118,3333623.4000001,3333615.721,3333631.96,3344190.078,3344196.8000002,2023-05-31T16:14:18Z,3344206.57,NULL,Gefährdung,kuhatarisha,s,uchokozi,udhaifu,makorowezo,NA,sdf,NA,2,NA,NA,NA,NA,NA,NA,NA,NA,NA,NA,NA,NA,NA,NA,NA,NA,NA,NA,NA
b015b,task,flow.Sequence,3_0_2_0_1,NA,NA,completion,10558.118,3333623.1000001,3333615.721,3333631.96,3344190.078,3344197.1000001,2023-05-31T16:14:18Z,3344206.57,NULL,Gefährdung,kuhatarisha,s,uchokozi,udhaifu,makorowezo,NA,sdf,NA,2,NA,NA,NA,NA,NA,NA,NA,NA,NA,NA,NA,NA,NA,NA,NA,NA,NA,NA,NA
b015b,Deep Question,html.Page,3_0_2_0_2_0_0,NA,NA,form submission,6871.8300000955,3344197.3000002,3344190.078,3344206.57,3351078.4000001,3351078.6000001,2023-05-31T16:14:25Z,3351101.249,NULL,Ausschluss,kutengwa,d,NA,NA,NA,kutengwa,NA,NA,2,NA,NA,NA,NA,NA,NA,NA,NA,NA,NA,NA,NA,NA,NA,NA,NA,NA,NA,NA
b015b,"""Richtig""-Screen",canvas.Screen,3_0_2_0_2_0_1,NA,NA,timeout,4995.5290000001,3351080.6000001,3351084.248,3351101.249,3356080.182,3356081.2,2023-05-31T16:14:30Z,3356096.778,NULL,Ausschluss,kutengwa,d,NA,NA,NA,NA,sdf,1,2,NA,NA,NA,NA,NA,NA,NA,NA,NA,NA,NA,NA,NA,NA,NA,NA,NA,NA,NA
b015b,"""Falsch""-Screen",canvas.Screen,3_0_2_0_2_0_2,NA,NA,skipped,NA,3356086.8000002,NA,NA,3356080.182,3356087.1000001,2023-05-31T16:14:30Z,3356096.778,NULL,Ausschluss,kutengwa,d,NA,NA,NA,NA,sdf,NA,2,NA,NA,NA,NA,NA,NA,NA,NA,NA,NA,NA,NA,NA,NA,NA,NA,NA,NA,NA
b015b,deep,flow.Sequence,3_0_2_0_2_0,NA,NA,completion,11873.612,3344197.3000002,3344190.078,3344206.57,3356080.182,3356087.4000001,2023-05-31T16:14:30Z,3356096.778,NULL,Ausschluss,kutengwa,d,NA,NA,NA,NA,sdf,NA,2,NA,NA,NA,NA,NA,NA,NA,NA,NA,NA,NA,NA,NA,NA,NA,NA,NA,NA,NA
b015b,shallow,flow.Sequence,3_0_2_0_2_1,NA,NA,skipped,NA,3356087.6000001,NA,NA,3356080.182,3356087.8000002,2023-05-31T16:14:30Z,3356096.778,NULL,Ausschluss,kutengwa,d,NA,NA,NA,NA,sdf,NA,2,NA,NA,NA,NA,NA,NA,NA,NA,NA,NA,NA,NA,NA,NA,NA,NA,NA,NA,NA
b015b,task,flow.Sequence,3_0_2_0_2,NA,NA,completion,11873.612,3344197.3000002,3344190.078,3344206.57,3356080.182,3356088,2023-05-31T16:14:30Z,3356096.778,NULL,Ausschluss,kutengwa,d,NA,NA,NA,NA,sdf,NA,2,NA,NA,NA,NA,NA,NA,NA,NA,NA,NA,NA,NA,NA,NA,NA,NA,NA,NA,NA
b015b,Deep Question,html.Page,3_0_2_0_3_0_0,NA,NA,form submission,8406.6220000954,3356088.2,3356080.182,3356096.778,3364503.4000001,3364503.6000001,2023-05-31T16:14:38Z,3364506.503,NULL,Können,unaweza,d,NA,NA,NA,guth,NA,NA,2,NA,NA,NA,NA,NA,NA,NA,NA,NA,NA,NA,NA,NA,NA,NA,NA,NA,NA,NA
b015b,"""Richtig""-Screen",canvas.Screen,3_0_2_0_3_0_1,NA,NA,skipped,NA,3364506.1000001,NA,NA,3364503.4000001,3364506.3000002,2023-05-31T16:14:38Z,3364506.503,NULL,Können,unaweza,d,NA,NA,NA,NA,sdf,NA,2,NA,NA,NA,NA,NA,NA,NA,NA,NA,NA,NA,NA,NA,NA,NA,NA,NA,NA,NA
b015b,"""Falsch""-Screen",canvas.Screen,3_0_2_0_3_0_2,NA,NA,timeout,4996.452,3364507,3364490.477,3364506.503,3369486.345,3369486.9000001,2023-05-31T16:14:43Z,3369502.955,NULL,Können,unaweza,d,NA,NA,NA,NA,sdf,0,2,NA,NA,NA,NA,NA,NA,NA,NA,NA,NA,NA,NA,NA,NA,NA,NA,NA,NA,NA
b015b,deep,flow.Sequence,3_0_2_0_3_0,NA,NA,completion,13389.567,3356088.2,3356080.182,3356096.778,3369486.345,3369487.2,2023-05-31T16:14:43Z,3369502.955,NULL,Können,unaweza,d,NA,NA,NA,NA,sdf,NA,2,NA,NA,NA,NA,NA,NA,NA,NA,NA,NA,NA,NA,NA,NA,NA,NA,NA,NA,NA
b015b,shallow,flow.Sequence,3_0_2_0_3_1,NA,NA,skipped,NA,3369487.3000002,NA,NA,3369486.345,3369487.4000001,2023-05-31T16:14:43Z,3369502.955,NULL,Können,unaweza,d,NA,NA,NA,NA,sdf,NA,2,NA,NA,NA,NA,NA,NA,NA,NA,NA,NA,NA,NA,NA,NA,NA,NA,NA,NA,NA
b015b,task,flow.Sequence,3_0_2_0_3,NA,NA,completion,13389.567,3356088.1000001,3356080.182,3356096.778,3369486.345,3369487.6000001,2023-05-31T16:14:43Z,3369502.955,NULL,Können,unaweza,d,NA,NA,NA,NA,sdf,NA,2,NA,NA,NA,NA,NA,NA,NA,NA,NA,NA,NA,NA,NA,NA,NA,NA,NA,NA,NA
b015b,deep,flow.Sequence,3_0_2_0_4_0,NA,NA,skipped,NA,3369487.6000001,NA,NA,3369486.345,3369487.7,2023-05-31T16:14:43Z,3369502.955,NULL,Widerstand,usulubu,s,kusababisha,mwalimu,mwenendo,NA,sdf,NA,2,NA,NA,NA,NA,NA,NA,NA,NA,NA,NA,NA,NA,NA,NA,NA,NA,NA,NA,NA
b015b,Shallow Question,html.Page,3_0_2_0_4_1_0,NA,NA,form submission,5415.645000143,3369487.7,3369486.345,3369502.955,3374918.6000001,3374918.8000002,2023-05-31T16:14:49Z,3374931.827,NULL,Widerstand,usulubu,s,kusababisha,mwalimu,mwenendo,usulubu,NA,NA,2,NA,NA,NA,NA,NA,NA,NA,NA,NA,NA,NA,NA,NA,NA,NA,NA,NA,NA,NA
b015b,"""Richtig""-Screen",canvas.Screen,3_0_2_0_4_1_1,NA,NA,timeout,4995.4410000001,3374920.5,3374914.998,3374931.827,3379910.853,3379911.8000002,2023-05-31T16:14:54Z,3379927.268,NULL,Widerstand,usulubu,s,kusababisha,mwalimu,mwenendo,NA,sdf,1,2,NA,NA,NA,NA,NA,NA,NA,NA,NA,NA,NA,NA,NA,NA,NA,NA,NA,NA,NA
b015b,"""Falsch""-Screen",canvas.Screen,3_0_2_0_4_1_2,NA,NA,skipped,NA,3379917,NA,NA,3379910.853,3379917.4000001,2023-05-31T16:14:54Z,3379927.268,NULL,Widerstand,usulubu,s,kusababisha,mwalimu,mwenendo,NA,sdf,NA,2,NA,NA,NA,NA,NA,NA,NA,NA,NA,NA,NA,NA,NA,NA,NA,NA,NA,NA,NA
b015b,shallow,flow.Sequence,3_0_2_0_4_1,NA,NA,completion,10407.898,3369487.7,3369486.345,3369502.955,3379910.853,3379917.7,2023-05-31T16:14:54Z,3379927.268,NULL,Widerstand,usulubu,s,kusababisha,mwalimu,mwenendo,NA,sdf,NA,2,NA,NA,NA,NA,NA,NA,NA,NA,NA,NA,NA,NA,NA,NA,NA,NA,NA,NA,NA
b015b,task,flow.Sequence,3_0_2_0_4,NA,NA,completion,10407.898,3369487.6000001,3369486.345,3369502.955,3379910.853,3379917.9000001,2023-05-31T16:14:54Z,3379927.268,NULL,Widerstand,usulubu,s,kusababisha,mwalimu,mwenendo,NA,sdf,NA,2,NA,NA,NA,NA,NA,NA,NA,NA,NA,NA,NA,NA,NA,NA,NA,NA,NA,NA,NA
b015b,Deep Question,html.Page,3_0_2_0_5_0_0,NA,NA,form submission,6830.2319999998,3379918.3000002,3379910.853,3379927.268,3386757.5,3386757.7,2023-05-31T16:15:00Z,3386771.488,NULL,Kreativität,ubunifu,d,NA,NA,NA,hibiti,NA,NA,2,NA,NA,NA,NA,NA,NA,NA,NA,NA,NA,NA,NA,NA,NA,NA,NA,NA,NA,NA
b015b,"""Richtig""-Screen",canvas.Screen,3_0_2_0_5_0_1,NA,NA,skipped,NA,3386759.7,NA,NA,3386757.5,3386759.8000002,2023-05-31T16:15:00Z,3386771.488,NULL,Kreativität,ubunifu,d,NA,NA,NA,NA,sdf,NA,2,NA,NA,NA,NA,NA,NA,NA,NA,NA,NA,NA,NA,NA,NA,NA,NA,NA,NA,NA
b015b,"""Falsch""-Screen",canvas.Screen,3_0_2_0_5_0_2,NA,NA,timeout,4995.889,3386760.6000001,3386755.038,3386771.488,3391751.096,3391751.9000001,2023-05-31T16:15:05Z,3391767.377,NULL,Kreativität,ubunifu,d,NA,NA,NA,NA,sdf,0,2,NA,NA,NA,NA,NA,NA,NA,NA,NA,NA,NA,NA,NA,NA,NA,NA,NA,NA,NA
b015b,deep,flow.Sequence,3_0_2_0_5_0,NA,NA,completion,11823.828,3379918.2,3379910.853,3379927.268,3391751.096,3391752.3000002,2023-05-31T16:15:05Z,3391767.377,NULL,Kreativität,ubunifu,d,NA,NA,NA,NA,sdf,NA,2,NA,NA,NA,NA,NA,NA,NA,NA,NA,NA,NA,NA,NA,NA,NA,NA,NA,NA,NA
b015b,shallow,flow.Sequence,3_0_2_0_5_1,NA,NA,skipped,NA,3391752.6000001,NA,NA,3391751.096,3391752.8000002,2023-05-31T16:15:05Z,3391767.377,NULL,Kreativität,ubunifu,d,NA,NA,NA,NA,sdf,NA,2,NA,NA,NA,NA,NA,NA,NA,NA,NA,NA,NA,NA,NA,NA,NA,NA,NA,NA,NA
b015b,task,flow.Sequence,3_0_2_0_5,NA,NA,completion,11823.828,3379918.1000001,3379910.853,3379927.268,3391751.096,3391753.1000001,2023-05-31T16:15:05Z,3391767.377,NULL,Kreativität,ubunifu,d,NA,NA,NA,NA,sdf,NA,2,NA,NA,NA,NA,NA,NA,NA,NA,NA,NA,NA,NA,NA,NA,NA,NA,NA,NA,NA
b015b,deep,flow.Sequence,3_0_2_0_6_0,NA,NA,skipped,NA,3391753.3000002,NA,NA,3391751.096,3391753.5,2023-05-31T16:15:05Z,3391767.377,NULL,Kontrolle,kudhibiti,s,mbinguni,kufunga,utegemezi,NA,sdf,NA,2,NA,NA,NA,NA,NA,NA,NA,NA,NA,NA,NA,NA,NA,NA,NA,NA,NA,NA,NA
b015b,Shallow Question,html.Page,3_0_2_0_6_1_0,NA,NA,form submission,9420.0230000955,3391753.6000001,3391751.096,3391767.377,3401187.4000001,3401187.6000001,2023-05-31T16:15:15Z,3401192.98,NULL,Kontrolle,kudhibiti,s,mbinguni,kufunga,utegemezi,kudhibiti,NA,NA,2,NA,NA,NA,NA,NA,NA,NA,NA,NA,NA,NA,NA,NA,NA,NA,NA,NA,NA,NA
b015b,"""Richtig""-Screen",canvas.Screen,3_0_2_0_6_1_1,NA,NA,timeout,4995.9819999998,3401189.5,3401176.801,3401192.98,3406172.596,3406173.6000001,2023-05-31T16:15:20Z,3406188.962,NULL,Kontrolle,kudhibiti,s,mbinguni,kufunga,utegemezi,NA,sdf,1,2,NA,NA,NA,NA,NA,NA,NA,NA,NA,NA,NA,NA,NA,NA,NA,NA,NA,NA,NA
b015b,"""Falsch""-Screen",canvas.Screen,3_0_2_0_6_1_2,NA,NA,skipped,NA,3406178.8000002,NA,NA,3406172.596,3406179.1000001,2023-05-31T16:15:20Z,3406188.962,NULL,Kontrolle,kudhibiti,s,mbinguni,kufunga,utegemezi,NA,sdf,NA,2,NA,NA,NA,NA,NA,NA,NA,NA,NA,NA,NA,NA,NA,NA,NA,NA,NA,NA,NA
b015b,shallow,flow.Sequence,3_0_2_0_6_1,NA,NA,completion,14405.219,3391753.6000001,3391751.096,3391767.377,3406172.596,3406179.6000001,2023-05-31T16:15:20Z,3406188.962,NULL,Kontrolle,kudhibiti,s,mbinguni,kufunga,utegemezi,NA,sdf,NA,2,NA,NA,NA,NA,NA,NA,NA,NA,NA,NA,NA,NA,NA,NA,NA,NA,NA,NA,NA
b015b,task,flow.Sequence,3_0_2_0_6,NA,NA,completion,14405.219,3391753.2,3391751.096,3391767.377,3406172.596,3406179.9000001,2023-05-31T16:15:20Z,3406188.962,NULL,Kontrolle,kudhibiti,s,mbinguni,kufunga,utegemezi,NA,sdf,NA,2,NA,NA,NA,NA,NA,NA,NA,NA,NA,NA,NA,NA,NA,NA,NA,NA,NA,NA,NA
b015b,Deep Question,html.Page,3_0_2_0_7_0_0,NA,NA,form submission,5218.9380000955,3406180.1000001,3406172.596,3406188.962,3411407.9000001,3411408.1000001,2023-05-31T16:15:25Z,3411418.227,NULL,Gelegenheit,wakati,d,NA,NA,NA,tigkz,NA,NA,2,NA,NA,NA,NA,NA,NA,NA,NA,NA,NA,NA,NA,NA,NA,NA,NA,NA,NA,NA
b015b,"""Richtig""-Screen",canvas.Screen,3_0_2_0_7_0_1,NA,NA,skipped,NA,3411410.5,NA,NA,3411407.9000001,3411410.7,2023-05-31T16:15:25Z,3411418.227,NULL,Gelegenheit,wakati,d,NA,NA,NA,NA,sdf,NA,2,NA,NA,NA,NA,NA,NA,NA,NA,NA,NA,NA,NA,NA,NA,NA,NA,NA,NA,NA
b015b,"""Falsch""-Screen",canvas.Screen,3_0_2_0_7_0_2,NA,NA,timeout,4996.0970000001,3411411.6000001,3411401.648,3411418.227,3416397.666,3416398.5,2023-05-31T16:15:30Z,3416414.324,NULL,Gelegenheit,wakati,d,NA,NA,NA,NA,sdf,0,2,NA,NA,NA,NA,NA,NA,NA,NA,NA,NA,NA,NA,NA,NA,NA,NA,NA,NA,NA
b015b,deep,flow.Sequence,3_0_2_0_7_0,NA,NA,completion,10208.704,3406180.1000001,3406172.596,3406188.962,3416397.666,3416398.9000001,2023-05-31T16:15:30Z,3416414.324,NULL,Gelegenheit,wakati,d,NA,NA,NA,NA,sdf,NA,2,NA,NA,NA,NA,NA,NA,NA,NA,NA,NA,NA,NA,NA,NA,NA,NA,NA,NA,NA
b015b,shallow,flow.Sequence,3_0_2_0_7_1,NA,NA,skipped,NA,3416399.1000001,NA,NA,3416397.666,3416399.3000002,2023-05-31T16:15:30Z,3416414.324,NULL,Gelegenheit,wakati,d,NA,NA,NA,NA,sdf,NA,2,NA,NA,NA,NA,NA,NA,NA,NA,NA,NA,NA,NA,NA,NA,NA,NA,NA,NA,NA
b015b,task,flow.Sequence,3_0_2_0_7,NA,NA,completion,10208.704,3406180,3406172.596,3406188.962,3416397.666,3416399.5,2023-05-31T16:15:30Z,3416414.324,NULL,Gelegenheit,wakati,d,NA,NA,NA,NA,sdf,NA,2,NA,NA,NA,NA,NA,NA,NA,NA,NA,NA,NA,NA,NA,NA,NA,NA,NA,NA,NA
b015b,block,flow.Loop,3_0_2_0,NA,NA,completion,92007.367,3324371.1000001,3324356.487,3324390.299,3416397.666,3416399.7,2023-05-31T16:15:30Z,3416414.324,NULL,NA,NA,NA,NA,NA,NA,NA,sdf,NA,2,NA,NA,NA,NA,NA,NA,NA,NA,NA,NA,NA,NA,NA,NA,NA,NA,NA,NA,NA
b015b,weiter,canvas.Screen,3_0_2_1,sdf,keypress(Space),response,3643.776000143,3416399.9000001,3416397.666,3416414.324,3420058.1000001,3420059.5,2023-05-31T16:15:34Z,3420094.051,NULL,NA,NA,NA,NA,NA,NA,NA,sdf,NA,2,NA,NA,NA,NA,NA,NA,NA,NA,NA,NA,NA,NA,NA,NA,NA,NA,NA,NA,NA
b015b,check continue,flow.Sequence,3_0_2,NA,NA,completion,95667.801000143,3324371.1000001,3324356.487,3324390.299,3420058.1000001,3420059.8000002,2023-05-31T16:15:34Z,3420094.051,NULL,NA,NA,NA,NA,NA,NA,NA,sdf,NA,2,NA,NA,NA,NA,NA,NA,NA,NA,NA,NA,NA,NA,NA,NA,NA,NA,NA,NA,NA
b015b,deep,flow.Sequence,3_0_3_0_0_0,NA,NA,skipped,NA,3420090.3000002,NA,NA,3420058.1000001,3420090.5,2023-05-31T16:15:34Z,3420094.051,NULL,Widerstand,usulubu,s,kusababisha,mwalimu,mwenendo,NA,qt,NA,3,NA,NA,NA,NA,NA,NA,NA,NA,NA,NA,NA,NA,NA,NA,NA,NA,NA,NA,NA
b015b,Shallow Question,html.Page,3_0_3_0_0_1_0,NA,NA,form submission,3688.0490001431,3420090.6000001,3420077.862,3420094.051,3423782.1000001,3423782.2,2023-05-31T16:15:37Z,3423791.056,NULL,Widerstand,usulubu,s,kusababisha,mwalimu,mwenendo,usulubu,NA,NA,3,NA,NA,NA,NA,NA,NA,NA,NA,NA,NA,NA,NA,NA,NA,NA,NA,NA,NA,NA
b015b,"""Richtig""-Screen",canvas.Screen,3_0_3_0_0_1_1,NA,NA,timeout,4996.4720000001,3423782.9000001,3423774.808,3423791.056,3428770.896,3428771.3000002,2023-05-31T16:15:42Z,3428787.528,NULL,Widerstand,usulubu,s,kusababisha,mwalimu,mwenendo,NA,qt,1,3,NA,NA,NA,NA,NA,NA,NA,NA,NA,NA,NA,NA,NA,NA,NA,NA,NA,NA,NA
b015b,"""Falsch""-Screen",canvas.Screen,3_0_3_0_0_1_2,NA,NA,skipped,NA,3428773.1000001,NA,NA,3428770.896,3428773.1000001,2023-05-31T16:15:42Z,3428787.528,NULL,Widerstand,usulubu,s,kusababisha,mwalimu,mwenendo,NA,qt,NA,3,NA,NA,NA,NA,NA,NA,NA,NA,NA,NA,NA,NA,NA,NA,NA,NA,NA,NA,NA
b015b,shallow,flow.Sequence,3_0_3_0_0_1,NA,NA,completion,8676.8450000002,3420090.6000001,3420077.862,3420094.051,3428770.896,3428773.2,2023-05-31T16:15:42Z,3428787.528,NULL,Widerstand,usulubu,s,kusababisha,mwalimu,mwenendo,NA,qt,NA,3,NA,NA,NA,NA,NA,NA,NA,NA,NA,NA,NA,NA,NA,NA,NA,NA,NA,NA,NA
b015b,task,flow.Sequence,3_0_3_0_0,NA,NA,completion,8676.8450000002,3420090.3000002,3420077.862,3420094.051,3428770.896,3428773.3000002,2023-05-31T16:15:42Z,3428787.528,NULL,Widerstand,usulubu,s,kusababisha,mwalimu,mwenendo,NA,qt,NA,3,NA,NA,NA,NA,NA,NA,NA,NA,NA,NA,NA,NA,NA,NA,NA,NA,NA,NA,NA
b015b,Deep Question,html.Page,3_0_3_0_1_0_0,NA,NA,form submission,21237.472,3428773.3000002,3428770.896,3428787.528,3450025,3450025.2,2023-05-31T16:16:04Z,3450036.412,NULL,Ausschluss,kutengwa,d,NA,NA,NA,tukengwa,NA,NA,3,NA,NA,NA,NA,NA,NA,NA,NA,NA,NA,NA,NA,NA,NA,NA,NA,NA,NA,NA
b015b,"""Richtig""-Screen",canvas.Screen,3_0_3_0_1_0_1,NA,NA,skipped,NA,3450027.7,NA,NA,3450025,3450028,2023-05-31T16:16:04Z,3450036.412,NULL,Ausschluss,kutengwa,d,NA,NA,NA,NA,qt,NA,3,NA,NA,NA,NA,NA,NA,NA,NA,NA,NA,NA,NA,NA,NA,NA,NA,NA,NA,NA
b015b,"""Falsch""-Screen",canvas.Screen,3_0_3_0_1_0_2,NA,NA,timeout,4995.8100000001,3450028.8000002,3450019.577,3450036.412,3455015.884,3455016.9000001,2023-05-31T16:16:09Z,3455032.222,NULL,Ausschluss,kutengwa,d,NA,NA,NA,NA,qt,0,3,NA,NA,NA,NA,NA,NA,NA,NA,NA,NA,NA,NA,NA,NA,NA,NA,NA,NA,NA
b015b,deep,flow.Sequence,3_0_3_0_1_0,NA,NA,completion,26228.356,3428773.3000002,3428770.896,3428787.528,3455015.884,3455017.3000002,2023-05-31T16:16:09Z,3455032.222,NULL,Ausschluss,kutengwa,d,NA,NA,NA,NA,qt,NA,3,NA,NA,NA,NA,NA,NA,NA,NA,NA,NA,NA,NA,NA,NA,NA,NA,NA,NA,NA
b015b,shallow,flow.Sequence,3_0_3_0_1_1,NA,NA,skipped,NA,3455017.4000001,NA,NA,3455015.884,3455017.6000001,2023-05-31T16:16:09Z,3455032.222,NULL,Ausschluss,kutengwa,d,NA,NA,NA,NA,qt,NA,3,NA,NA,NA,NA,NA,NA,NA,NA,NA,NA,NA,NA,NA,NA,NA,NA,NA,NA,NA
b015b,task,flow.Sequence,3_0_3_0_1,NA,NA,completion,26228.356,3428773.3000002,3428770.896,3428787.528,3455015.884,3455017.9000001,2023-05-31T16:16:09Z,3455032.222,NULL,Ausschluss,kutengwa,d,NA,NA,NA,NA,qt,NA,3,NA,NA,NA,NA,NA,NA,NA,NA,NA,NA,NA,NA,NA,NA,NA,NA,NA,NA,NA
b015b,deep,flow.Sequence,3_0_3_0_2_0,NA,NA,skipped,NA,3455018.1000001,NA,NA,3455015.884,3455018.2,2023-05-31T16:16:09Z,3455032.222,NULL,Kontrolle,kudhibiti,s,mbinguni,kufunga,utegemezi,NA,qt,NA,3,NA,NA,NA,NA,NA,NA,NA,NA,NA,NA,NA,NA,NA,NA,NA,NA,NA,NA,NA
b015b,Shallow Question,html.Page,3_0_3_0_2_1_0,NA,NA,form submission,11935.578000191,3455018.3000002,3455015.884,3455032.222,3466967.8000002,3466968,2023-05-31T16:16:21Z,3466972.184,NULL,Kontrolle,kudhibiti,s,mbinguni,kufunga,utegemezi,kudhibiti,NA,NA,3,NA,NA,NA,NA,NA,NA,NA,NA,NA,NA,NA,NA,NA,NA,NA,NA,NA,NA,NA
b015b,"""Richtig""-Screen",canvas.Screen,3_0_3_0_2_1_1,NA,NA,timeout,4995.8640000001,3466969.8000002,3466955.482,3466972.184,3471951.894,3471952.8000002,2023-05-31T16:16:26Z,3471968.048,NULL,Kontrolle,kudhibiti,s,mbinguni,kufunga,utegemezi,NA,qt,1,3,NA,NA,NA,NA,NA,NA,NA,NA,NA,NA,NA,NA,NA,NA,NA,NA,NA,NA,NA
b015b,"""Falsch""-Screen",canvas.Screen,3_0_3_0_2_1_2,NA,NA,skipped,NA,3471957.8000002,NA,NA,3471951.894,3471957.9000001,2023-05-31T16:16:26Z,3471968.048,NULL,Kontrolle,kudhibiti,s,mbinguni,kufunga,utegemezi,NA,qt,NA,3,NA,NA,NA,NA,NA,NA,NA,NA,NA,NA,NA,NA,NA,NA,NA,NA,NA,NA,NA
b015b,shallow,flow.Sequence,3_0_3_0_2_1,NA,NA,completion,16919.672,3455018.2,3455015.884,3455032.222,3471951.894,3471958,2023-05-31T16:16:26Z,3471968.048,NULL,Kontrolle,kudhibiti,s,mbinguni,kufunga,utegemezi,NA,qt,NA,3,NA,NA,NA,NA,NA,NA,NA,NA,NA,NA,NA,NA,NA,NA,NA,NA,NA,NA,NA
b015b,task,flow.Sequence,3_0_3_0_2,NA,NA,completion,16919.672,3455018,3455015.884,3455032.222,3471951.894,3471958,2023-05-31T16:16:26Z,3471968.048,NULL,Kontrolle,kudhibiti,s,mbinguni,kufunga,utegemezi,NA,qt,NA,3,NA,NA,NA,NA,NA,NA,NA,NA,NA,NA,NA,NA,NA,NA,NA,NA,NA,NA,NA
b015b,deep,flow.Sequence,3_0_3_0_3_0,NA,NA,skipped,NA,3471958.1000001,NA,NA,3471951.894,3471958.1000001,2023-05-31T16:16:26Z,3471968.048,NULL,Gefährdung,kuhatarisha,s,uchokozi,udhaifu,makorowezo,NA,qt,NA,3,NA,NA,NA,NA,NA,NA,NA,NA,NA,NA,NA,NA,NA,NA,NA,NA,NA,NA,NA
b015b,Shallow Question,html.Page,3_0_3_0_3_1_0,NA,NA,form submission,5368.2520001908,3471958.2,3471951.894,3471968.048,3477336.3000002,3477336.5,2023-05-31T16:16:31Z,3477347.382,NULL,Gefährdung,kuhatarisha,s,uchokozi,udhaifu,makorowezo,kuhatarisha,NA,NA,3,NA,NA,NA,NA,NA,NA,NA,NA,NA,NA,NA,NA,NA,NA,NA,NA,NA,NA,NA
b015b,"""Richtig""-Screen",canvas.Screen,3_0_3_0_3_1_1,NA,NA,timeout,4995.9349999996,3477338.3000002,3477330.787,3477347.382,3482326.765,3482327.9000001,2023-05-31T16:16:36Z,3482343.317,NULL,Gefährdung,kuhatarisha,s,uchokozi,udhaifu,makorowezo,NA,qt,1,3,NA,NA,NA,NA,NA,NA,NA,NA,NA,NA,NA,NA,NA,NA,NA,NA,NA,NA,NA
b015b,"""Falsch""-Screen",canvas.Screen,3_0_3_0_3_1_2,NA,NA,skipped,NA,3482332.3000002,NA,NA,3482326.765,3482332.3000002,2023-05-31T16:16:36Z,3482343.317,NULL,Gefährdung,kuhatarisha,s,uchokozi,udhaifu,makorowezo,NA,qt,NA,3,NA,NA,NA,NA,NA,NA,NA,NA,NA,NA,NA,NA,NA,NA,NA,NA,NA,NA,NA
b015b,shallow,flow.Sequence,3_0_3_0_3_1,NA,NA,completion,10358.717,3471958.2,3471951.894,3471968.048,3482326.765,3482332.4000001,2023-05-31T16:16:36Z,3482343.317,NULL,Gefährdung,kuhatarisha,s,uchokozi,udhaifu,makorowezo,NA,qt,NA,3,NA,NA,NA,NA,NA,NA,NA,NA,NA,NA,NA,NA,NA,NA,NA,NA,NA,NA,NA
b015b,task,flow.Sequence,3_0_3_0_3,NA,NA,completion,10358.717,3471958.1000001,3471951.894,3471968.048,3482326.765,3482332.5,2023-05-31T16:16:36Z,3482343.317,NULL,Gefährdung,kuhatarisha,s,uchokozi,udhaifu,makorowezo,NA,qt,NA,3,NA,NA,NA,NA,NA,NA,NA,NA,NA,NA,NA,NA,NA,NA,NA,NA,NA,NA,NA
b015b,Deep Question,html.Page,3_0_3_0_4_0_0,NA,NA,form submission,9638.3830000479,3482332.6000001,3482326.765,3482343.317,3491981.7,3491981.8000002,2023-05-31T16:16:46Z,3491984.902,NULL,Gelegenheit,wakati,d,NA,NA,NA,zhu,NA,NA,3,NA,NA,NA,NA,NA,NA,NA,NA,NA,NA,NA,NA,NA,NA,NA,NA,NA,NA,NA
b015b,"""Richtig""-Screen",canvas.Screen,3_0_3_0_4_0_1,NA,NA,skipped,NA,3491984.3000002,NA,NA,3491981.7,3491984.5,2023-05-31T16:16:46Z,3491984.902,NULL,Gelegenheit,wakati,d,NA,NA,NA,NA,qt,NA,3,NA,NA,NA,NA,NA,NA,NA,NA,NA,NA,NA,NA,NA,NA,NA,NA,NA,NA,NA
b015b,"""Falsch""-Screen",canvas.Screen,3_0_3_0_4_0_2,NA,NA,timeout,4996.2840000005,3491985.4000001,3491968.246,3491984.902,3496964.169,3496965,2023-05-31T16:16:51Z,3496981.186,NULL,Gelegenheit,wakati,d,NA,NA,NA,NA,qt,0,3,NA,NA,NA,NA,NA,NA,NA,NA,NA,NA,NA,NA,NA,NA,NA,NA,NA,NA,NA
b015b,deep,flow.Sequence,3_0_3_0_4_0,NA,NA,completion,14620.852,3482332.6000001,3482326.765,3482343.317,3496964.169,3496965.6000001,2023-05-31T16:16:51Z,3496981.186,NULL,Gelegenheit,wakati,d,NA,NA,NA,NA,qt,NA,3,NA,NA,NA,NA,NA,NA,NA,NA,NA,NA,NA,NA,NA,NA,NA,NA,NA,NA,NA
b015b,shallow,flow.Sequence,3_0_3_0_4_1,NA,NA,skipped,NA,3496965.8000002,NA,NA,3496964.169,3496965.9000001,2023-05-31T16:16:51Z,3496981.186,NULL,Gelegenheit,wakati,d,NA,NA,NA,NA,qt,NA,3,NA,NA,NA,NA,NA,NA,NA,NA,NA,NA,NA,NA,NA,NA,NA,NA,NA,NA,NA
b015b,task,flow.Sequence,3_0_3_0_4,NA,NA,completion,14620.852,3482332.6000001,3482326.765,3482343.317,3496964.169,3496966.3000002,2023-05-31T16:16:51Z,3496981.186,NULL,Gelegenheit,wakati,d,NA,NA,NA,NA,qt,NA,3,NA,NA,NA,NA,NA,NA,NA,NA,NA,NA,NA,NA,NA,NA,NA,NA,NA,NA,NA
b015b,Deep Question,html.Page,3_0_3_0_5_0_0,NA,NA,form submission,24515.514000047,3496966.5,3496964.169,3496981.186,3521496.7,3521496.9000001,2023-05-31T16:17:15Z,3521511.049,NULL,Kreativität,ubunifu,d,NA,NA,NA,unifu,NA,NA,3,NA,NA,NA,NA,NA,NA,NA,NA,NA,NA,NA,NA,NA,NA,NA,NA,NA,NA,NA
b015b,"""Richtig""-Screen",canvas.Screen,3_0_3_0_5_0_1,NA,NA,skipped,NA,3521499.5,NA,NA,3521496.7,3521499.6000001,2023-05-31T16:17:15Z,3521511.049,NULL,Kreativität,ubunifu,d,NA,NA,NA,NA,qt,NA,3,NA,NA,NA,NA,NA,NA,NA,NA,NA,NA,NA,NA,NA,NA,NA,NA,NA,NA,NA
b015b,"""Falsch""-Screen",canvas.Screen,3_0_3_0_5_0_2,NA,NA,timeout,4995.5349999997,3521500.4000001,3521494.335,3521511.049,3526490.408,3526491.4000001,2023-05-31T16:17:20Z,3526506.584,NULL,Kreativität,ubunifu,d,NA,NA,NA,NA,qt,0,3,NA,NA,NA,NA,NA,NA,NA,NA,NA,NA,NA,NA,NA,NA,NA,NA,NA,NA,NA
b015b,deep,flow.Sequence,3_0_3_0_5_0,NA,NA,completion,29509.222,3496966.5,3496964.169,3496981.186,3526490.408,3526491.7,2023-05-31T16:17:20Z,3526506.584,NULL,Kreativität,ubunifu,d,NA,NA,NA,NA,qt,NA,3,NA,NA,NA,NA,NA,NA,NA,NA,NA,NA,NA,NA,NA,NA,NA,NA,NA,NA,NA
b015b,shallow,flow.Sequence,3_0_3_0_5_1,NA,NA,skipped,NA,3526491.9000001,NA,NA,3526490.408,3526492.1000001,2023-05-31T16:17:20Z,3526506.584,NULL,Kreativität,ubunifu,d,NA,NA,NA,NA,qt,NA,3,NA,NA,NA,NA,NA,NA,NA,NA,NA,NA,NA,NA,NA,NA,NA,NA,NA,NA,NA
b015b,task,flow.Sequence,3_0_3_0_5,NA,NA,completion,29509.222,3496966.5,3496964.169,3496981.186,3526490.408,3526492.3000002,2023-05-31T16:17:20Z,3526506.584,NULL,Kreativität,ubunifu,d,NA,NA,NA,NA,qt,NA,3,NA,NA,NA,NA,NA,NA,NA,NA,NA,NA,NA,NA,NA,NA,NA,NA,NA,NA,NA
b015b,deep,flow.Sequence,3_0_3_0_6_0,NA,NA,skipped,NA,3526492.5,NA,NA,3526490.408,3526492.6000001,2023-05-31T16:17:20Z,3526506.584,NULL,Verstand,ufahamivu,s,shakawa,hadhari,mhandisi,NA,qt,NA,3,NA,NA,NA,NA,NA,NA,NA,NA,NA,NA,NA,NA,NA,NA,NA,NA,NA,NA,NA
b015b,Shallow Question,html.Page,3_0_3_0_6_1_0,NA,NA,form submission,13583.816000096,3526492.9000001,3526490.408,3526506.584,3540090.4000001,3540090.5,2023-05-31T16:17:34Z,3540095.295,NULL,Verstand,ufahamivu,s,shakawa,hadhari,mhandisi,shakawa,NA,NA,3,NA,NA,NA,NA,NA,NA,NA,NA,NA,NA,NA,NA,NA,NA,NA,NA,NA,NA,NA
b015b,"""Richtig""-Screen",canvas.Screen,3_0_3_0_6_1_1,NA,NA,skipped,NA,3540092.6000001,NA,NA,3540090.4000001,3540092.7,2023-05-31T16:17:34Z,3540095.295,NULL,Verstand,ufahamivu,s,shakawa,hadhari,mhandisi,NA,qt,NA,3,NA,NA,NA,NA,NA,NA,NA,NA,NA,NA,NA,NA,NA,NA,NA,NA,NA,NA,NA
b015b,"""Falsch""-Screen",canvas.Screen,3_0_3_0_6_1_2,NA,NA,timeout,4996.452,3540093.4000001,3540079.19,3540095.295,3545074.764,3545075.9000001,2023-05-31T16:17:39Z,3545091.747,NULL,Verstand,ufahamivu,s,shakawa,hadhari,mhandisi,NA,qt,0,3,NA,NA,NA,NA,NA,NA,NA,NA,NA,NA,NA,NA,NA,NA,NA,NA,NA,NA,NA
b015b,shallow,flow.Sequence,3_0_3_0_6_1,NA,NA,completion,18568.18,3526492.8000002,3526490.408,3526506.584,3545074.764,3545076,2023-05-31T16:17:39Z,3545091.747,NULL,Verstand,ufahamivu,s,shakawa,hadhari,mhandisi,NA,qt,NA,3,NA,NA,NA,NA,NA,NA,NA,NA,NA,NA,NA,NA,NA,NA,NA,NA,NA,NA,NA
b015b,task,flow.Sequence,3_0_3_0_6,NA,NA,completion,18568.18,3526492.5,3526490.408,3526506.584,3545074.764,3545076.2,2023-05-31T16:17:39Z,3545091.747,NULL,Verstand,ufahamivu,s,shakawa,hadhari,mhandisi,NA,qt,NA,3,NA,NA,NA,NA,NA,NA,NA,NA,NA,NA,NA,NA,NA,NA,NA,NA,NA,NA,NA
b015b,Deep Question,html.Page,3_0_3_0_7_0_0,NA,NA,form submission,6226.6530000954,3545076.3000002,3545074.764,3545091.747,3551318.4000001,3551318.5,2023-05-31T16:17:45Z,3551319.388,NULL,Können,unaweza,d,NA,NA,NA,unaweza,NA,NA,3,NA,NA,NA,NA,NA,NA,NA,NA,NA,NA,NA,NA,NA,NA,NA,NA,NA,NA,NA
b015b,"""Richtig""-Screen",canvas.Screen,3_0_3_0_7_0_1,NA,NA,timeout,4996.23,3551320.7,3551303.312,3551319.388,3556299.085,3556299.8000002,2023-05-31T16:17:50Z,3556315.618,NULL,Können,unaweza,d,NA,NA,NA,NA,qt,1,3,NA,NA,NA,NA,NA,NA,NA,NA,NA,NA,NA,NA,NA,NA,NA,NA,NA,NA,NA
b015b,"""Falsch""-Screen",canvas.Screen,3_0_3_0_7_0_2,NA,NA,skipped,NA,3556301.6000001,NA,NA,3556299.085,3556301.8000002,2023-05-31T16:17:50Z,3556315.618,NULL,Können,unaweza,d,NA,NA,NA,NA,qt,NA,3,NA,NA,NA,NA,NA,NA,NA,NA,NA,NA,NA,NA,NA,NA,NA,NA,NA,NA,NA
b015b,deep,flow.Sequence,3_0_3_0_7_0,NA,NA,completion,11207.338,3545076.2,3545074.764,3545091.747,3556299.085,3556301.8000002,2023-05-31T16:17:50Z,3556315.618,NULL,Können,unaweza,d,NA,NA,NA,NA,qt,NA,3,NA,NA,NA,NA,NA,NA,NA,NA,NA,NA,NA,NA,NA,NA,NA,NA,NA,NA,NA
b015b,shallow,flow.Sequence,3_0_3_0_7_1,NA,NA,skipped,NA,3556301.9000001,NA,NA,3556299.085,3556302,2023-05-31T16:17:50Z,3556315.618,NULL,Können,unaweza,d,NA,NA,NA,NA,qt,NA,3,NA,NA,NA,NA,NA,NA,NA,NA,NA,NA,NA,NA,NA,NA,NA,NA,NA,NA,NA
b015b,task,flow.Sequence,3_0_3_0_7,NA,NA,completion,11207.338,3545076.2,3545074.764,3545091.747,3556299.085,3556302,2023-05-31T16:17:50Z,3556315.618,NULL,Können,unaweza,d,NA,NA,NA,NA,qt,NA,3,NA,NA,NA,NA,NA,NA,NA,NA,NA,NA,NA,NA,NA,NA,NA,NA,NA,NA,NA
b015b,block,flow.Loop,3_0_3_0,NA,NA,completion,136205.034,3420090.3000002,3420077.862,3420094.051,3556299.085,3556302.1000001,2023-05-31T16:17:50Z,3556315.618,NULL,NA,NA,NA,NA,NA,NA,NA,qt,NA,3,NA,NA,NA,NA,NA,NA,NA,NA,NA,NA,NA,NA,NA,NA,NA,NA,NA,NA,NA
b015b,weiter,canvas.Screen,3_0_3_1,sdf,keypress(Space),response,1931.5820000479,3556302.1000001,3556299.085,3556315.618,3558247.2,3558247.8000002,2023-05-31T16:17:52Z,3558280.295,NULL,NA,NA,NA,NA,NA,NA,NA,qt,NA,3,NA,NA,NA,NA,NA,NA,NA,NA,NA,NA,NA,NA,NA,NA,NA,NA,NA,NA,NA
b015b,check continue,flow.Sequence,3_0_3,NA,NA,completion,138153.14900005,3420090.2,3420077.862,3420094.051,3558247.2,3558248,2023-05-31T16:17:52Z,3558280.295,NULL,NA,NA,NA,NA,NA,NA,NA,qt,NA,3,NA,NA,NA,NA,NA,NA,NA,NA,NA,NA,NA,NA,NA,NA,NA,NA,NA,NA,NA
b015b,deep,flow.Sequence,3_0_4_0_0_0,NA,NA,skipped,NA,3558276.9000001,NA,NA,3558247.2,3558277.1000001,2023-05-31T16:17:52Z,3558280.295,NULL,Widerstand,usulubu,s,kusababisha,mwalimu,mwenendo,NA,sd,NA,4,NA,NA,NA,NA,NA,NA,NA,NA,NA,NA,NA,NA,NA,NA,NA,NA,NA,NA,NA
b015b,Shallow Question,html.Page,3_0_4_0_0_1_0,NA,NA,form submission,4258.0050001908,3558277.1000001,3558264.155,3558280.295,3562538.3000002,3562538.6000001,2023-05-31T16:17:56Z,3562543.447,NULL,Widerstand,usulubu,s,kusababisha,mwalimu,mwenendo,usulubu,NA,NA,4,NA,NA,NA,NA,NA,NA,NA,NA,NA,NA,NA,NA,NA,NA,NA,NA,NA,NA,NA
b015b,"""Richtig""-Screen",canvas.Screen,3_0_4_0_0_1_1,NA,NA,timeout,4996.5639999998,3562540.3000002,3562527.146,3562543.447,3567523.378,3567523.8000002,2023-05-31T16:18:01Z,3567540.011,NULL,Widerstand,usulubu,s,kusababisha,mwalimu,mwenendo,NA,sd,1,4,NA,NA,NA,NA,NA,NA,NA,NA,NA,NA,NA,NA,NA,NA,NA,NA,NA,NA,NA
b015b,"""Falsch""-Screen",canvas.Screen,3_0_4_0_0_1_2,NA,NA,skipped,NA,3567525.7,NA,NA,3567523.378,3567525.9000001,2023-05-31T16:18:01Z,3567540.011,NULL,Widerstand,usulubu,s,kusababisha,mwalimu,mwenendo,NA,sd,NA,4,NA,NA,NA,NA,NA,NA,NA,NA,NA,NA,NA,NA,NA,NA,NA,NA,NA,NA,NA
b015b,shallow,flow.Sequence,3_0_4_0_0_1,NA,NA,completion,9243.0830000001,3558277.1000001,3558264.155,3558280.295,3567523.378,3567525.9000001,2023-05-31T16:18:01Z,3567540.011,NULL,Widerstand,usulubu,s,kusababisha,mwalimu,mwenendo,NA,sd,NA,4,NA,NA,NA,NA,NA,NA,NA,NA,NA,NA,NA,NA,NA,NA,NA,NA,NA,NA,NA
b015b,task,flow.Sequence,3_0_4_0_0,NA,NA,completion,9243.0830000001,3558276.9000001,3558264.155,3558280.295,3567523.378,3567526,2023-05-31T16:18:01Z,3567540.011,NULL,Widerstand,usulubu,s,kusababisha,mwalimu,mwenendo,NA,sd,NA,4,NA,NA,NA,NA,NA,NA,NA,NA,NA,NA,NA,NA,NA,NA,NA,NA,NA,NA,NA
b015b,Deep Question,html.Page,3_0_4_0_1_0_0,NA,NA,form submission,5831.0890001431,3567526.1000001,3567523.378,3567540.011,3573371.1000001,3573371.3000002,2023-05-31T16:18:07Z,3573385.185,NULL,Ausschluss,kutengwa,d,NA,NA,NA,kutengwa,NA,NA,4,NA,NA,NA,NA,NA,NA,NA,NA,NA,NA,NA,NA,NA,NA,NA,NA,NA,NA,NA
b015b,"""Richtig""-Screen",canvas.Screen,3_0_4_0_1_0_1,NA,NA,timeout,4995.764,3573373.1000001,3573368.488,3573385.185,3578364.234,3578365.2,2023-05-31T16:18:12Z,3578380.949,NULL,Ausschluss,kutengwa,d,NA,NA,NA,NA,sd,1,4,NA,NA,NA,NA,NA,NA,NA,NA,NA,NA,NA,NA,NA,NA,NA,NA,NA,NA,NA
b015b,"""Falsch""-Screen",canvas.Screen,3_0_4_0_1_0_2,NA,NA,skipped,NA,3578370.4000001,NA,NA,3578364.234,3578370.6000001,2023-05-31T16:18:12Z,3578380.949,NULL,Ausschluss,kutengwa,d,NA,NA,NA,NA,sd,NA,4,NA,NA,NA,NA,NA,NA,NA,NA,NA,NA,NA,NA,NA,NA,NA,NA,NA,NA,NA
b015b,deep,flow.Sequence,3_0_4_0_1_0,NA,NA,completion,10824.223,3567526.1000001,3567523.378,3567540.011,3578364.234,3578370.7,2023-05-31T16:18:12Z,3578380.949,NULL,Ausschluss,kutengwa,d,NA,NA,NA,NA,sd,NA,4,NA,NA,NA,NA,NA,NA,NA,NA,NA,NA,NA,NA,NA,NA,NA,NA,NA,NA,NA
b015b,shallow,flow.Sequence,3_0_4_0_1_1,NA,NA,skipped,NA,3578370.8000002,NA,NA,3578364.234,3578370.8000002,2023-05-31T16:18:12Z,3578380.949,NULL,Ausschluss,kutengwa,d,NA,NA,NA,NA,sd,NA,4,NA,NA,NA,NA,NA,NA,NA,NA,NA,NA,NA,NA,NA,NA,NA,NA,NA,NA,NA
b015b,task,flow.Sequence,3_0_4_0_1,NA,NA,completion,10824.223,3567526.1000001,3567523.378,3567540.011,3578364.234,3578370.9000001,2023-05-31T16:18:12Z,3578380.949,NULL,Ausschluss,kutengwa,d,NA,NA,NA,NA,sd,NA,4,NA,NA,NA,NA,NA,NA,NA,NA,NA,NA,NA,NA,NA,NA,NA,NA,NA,NA,NA
b015b,deep,flow.Sequence,3_0_4_0_2_0,NA,NA,skipped,NA,3578370.9000001,NA,NA,3578364.234,3578371,2023-05-31T16:18:12Z,3578380.949,NULL,Kontrolle,kudhibiti,s,mbinguni,kufunga,utegemezi,NA,sd,NA,4,NA,NA,NA,NA,NA,NA,NA,NA,NA,NA,NA,NA,NA,NA,NA,NA,NA,NA,NA
b015b,Shallow Question,html.Page,3_0_4_0_2_1_0,NA,NA,form submission,16327.351000191,3578371,3578364.234,3578380.949,3594708.3000002,3594708.4000001,2023-05-31T16:18:28Z,3594717.313,NULL,Kontrolle,kudhibiti,s,mbinguni,kufunga,utegemezi,kudhibiti,NA,NA,4,NA,NA,NA,NA,NA,NA,NA,NA,NA,NA,NA,NA,NA,NA,NA,NA,NA,NA,NA
b015b,"""Richtig""-Screen",canvas.Screen,3_0_4_0_2_1_1,NA,NA,timeout,4995.727,3594710.2,3594700.134,3594717.313,3599696.804,3599697.8000002,2023-05-31T16:18:33Z,3599713.04,NULL,Kontrolle,kudhibiti,s,mbinguni,kufunga,utegemezi,NA,sd,1,4,NA,NA,NA,NA,NA,NA,NA,NA,NA,NA,NA,NA,NA,NA,NA,NA,NA,NA,NA
b015b,"""Falsch""-Screen",canvas.Screen,3_0_4_0_2_1_2,NA,NA,skipped,NA,3599704.7,NA,NA,3599696.804,3599705.1000001,2023-05-31T16:18:33Z,3599713.04,NULL,Kontrolle,kudhibiti,s,mbinguni,kufunga,utegemezi,NA,sd,NA,4,NA,NA,NA,NA,NA,NA,NA,NA,NA,NA,NA,NA,NA,NA,NA,NA,NA,NA,NA
b015b,shallow,flow.Sequence,3_0_4_0_2_1,NA,NA,completion,21315.855,3578371,3578364.234,3578380.949,3599696.804,3599705.4000001,2023-05-31T16:18:33Z,3599713.04,NULL,Kontrolle,kudhibiti,s,mbinguni,kufunga,utegemezi,NA,sd,NA,4,NA,NA,NA,NA,NA,NA,NA,NA,NA,NA,NA,NA,NA,NA,NA,NA,NA,NA,NA
b015b,task,flow.Sequence,3_0_4_0_2,NA,NA,completion,21315.855,3578370.9000001,3578364.234,3578380.949,3599696.804,3599705.7,2023-05-31T16:18:33Z,3599713.04,NULL,Kontrolle,kudhibiti,s,mbinguni,kufunga,utegemezi,NA,sd,NA,4,NA,NA,NA,NA,NA,NA,NA,NA,NA,NA,NA,NA,NA,NA,NA,NA,NA,NA,NA
b015b,deep,flow.Sequence,3_0_4_0_3_0,NA,NA,skipped,NA,3599705.8000002,NA,NA,3599696.804,3599705.9000001,2023-05-31T16:18:33Z,3599713.04,NULL,Verstand,ufahamivu,s,shakawa,hadhari,mhandisi,NA,sd,NA,4,NA,NA,NA,NA,NA,NA,NA,NA,NA,NA,NA,NA,NA,NA,NA,NA,NA,NA,NA
b015b,Shallow Question,html.Page,3_0_4_0_3_1_0,NA,NA,form submission,20525.46,3599706,3599696.804,3599713.04,3620238.5,3620238.6000001,2023-05-31T16:18:54Z,3620245.959,NULL,Verstand,ufahamivu,s,shakawa,hadhari,mhandisi,ufahamivu,NA,NA,4,NA,NA,NA,NA,NA,NA,NA,NA,NA,NA,NA,NA,NA,NA,NA,NA,NA,NA,NA
b015b,"""Richtig""-Screen",canvas.Screen,3_0_4_0_3_1_1,NA,NA,timeout,4996.503,3620240.4000001,3620228.909,3620245.959,3625225.181,3625226.6000001,2023-05-31T16:18:59Z,3625242.462,NULL,Verstand,ufahamivu,s,shakawa,hadhari,mhandisi,NA,sd,1,4,NA,NA,NA,NA,NA,NA,NA,NA,NA,NA,NA,NA,NA,NA,NA,NA,NA,NA,NA
b015b,"""Falsch""-Screen",canvas.Screen,3_0_4_0_3_1_2,NA,NA,skipped,NA,3625228.2,NA,NA,3625225.181,3625228.3000002,2023-05-31T16:18:59Z,3625242.462,NULL,Verstand,ufahamivu,s,shakawa,hadhari,mhandisi,NA,sd,NA,4,NA,NA,NA,NA,NA,NA,NA,NA,NA,NA,NA,NA,NA,NA,NA,NA,NA,NA,NA
b015b,shallow,flow.Sequence,3_0_4_0_3_1,NA,NA,completion,25512.141,3599706,3599696.804,3599713.04,3625225.181,3625228.4000001,2023-05-31T16:18:59Z,3625242.462,NULL,Verstand,ufahamivu,s,shakawa,hadhari,mhandisi,NA,sd,NA,4,NA,NA,NA,NA,NA,NA,NA,NA,NA,NA,NA,NA,NA,NA,NA,NA,NA,NA,NA
b015b,task,flow.Sequence,3_0_4_0_3,NA,NA,completion,25512.141,3599705.7,3599696.804,3599713.04,3625225.181,3625228.4000001,2023-05-31T16:18:59Z,3625242.462,NULL,Verstand,ufahamivu,s,shakawa,hadhari,mhandisi,NA,sd,NA,4,NA,NA,NA,NA,NA,NA,NA,NA,NA,NA,NA,NA,NA,NA,NA,NA,NA,NA,NA
b015b,Deep Question,html.Page,3_0_4_0_4_0_0,NA,NA,form submission,10713.438000096001,3625228.5,3625225.181,3625242.462,3635955.9000001,3635956.1000001,2023-05-31T16:19:10Z,3635966.583,NULL,Kreativität,ubunifu,d,NA,NA,NA,ubunifu,NA,NA,4,NA,NA,NA,NA,NA,NA,NA,NA,NA,NA,NA,NA,NA,NA,NA,NA,NA,NA,NA
b015b,"""Richtig""-Screen",canvas.Screen,3_0_4_0_4_0_1,NA,NA,timeout,4996.0249999999,3635958.6000001,3635950.308,3635966.583,3640946.171,3640946.7,2023-05-31T16:19:15Z,3640962.608,NULL,Kreativität,ubunifu,d,NA,NA,NA,NA,sd,1,4,NA,NA,NA,NA,NA,NA,NA,NA,NA,NA,NA,NA,NA,NA,NA,NA,NA,NA,NA
b015b,"""Falsch""-Screen",canvas.Screen,3_0_4_0_4_0_2,NA,NA,skipped,NA,3640950.3000002,NA,NA,3640946.171,3640950.6000001,2023-05-31T16:19:15Z,3640962.608,NULL,Kreativität,ubunifu,d,NA,NA,NA,NA,sd,NA,4,NA,NA,NA,NA,NA,NA,NA,NA,NA,NA,NA,NA,NA,NA,NA,NA,NA,NA,NA
b015b,deep,flow.Sequence,3_0_4_0_4_0,NA,NA,completion,15703.709,3625228.5,3625225.181,3625242.462,3640946.171,3640950.9000001,2023-05-31T16:19:15Z,3640962.608,NULL,Kreativität,ubunifu,d,NA,NA,NA,NA,sd,NA,4,NA,NA,NA,NA,NA,NA,NA,NA,NA,NA,NA,NA,NA,NA,NA,NA,NA,NA,NA
b015b,shallow,flow.Sequence,3_0_4_0_4_1,NA,NA,skipped,NA,3640950.9000001,NA,NA,3640946.171,3640951,2023-05-31T16:19:15Z,3640962.608,NULL,Kreativität,ubunifu,d,NA,NA,NA,NA,sd,NA,4,NA,NA,NA,NA,NA,NA,NA,NA,NA,NA,NA,NA,NA,NA,NA,NA,NA,NA,NA
b015b,task,flow.Sequence,3_0_4_0_4,NA,NA,completion,15703.709,3625228.5,3625225.181,3625242.462,3640946.171,3640951.2,2023-05-31T16:19:15Z,3640962.608,NULL,Kreativität,ubunifu,d,NA,NA,NA,NA,sd,NA,4,NA,NA,NA,NA,NA,NA,NA,NA,NA,NA,NA,NA,NA,NA,NA,NA,NA,NA,NA
b015b,Deep Question,html.Page,3_0_4_0_5_0_0,NA,NA,form submission,7733.5920000477,3640951.2,3640946.171,3640962.608,3648696.2,3648696.5,2023-05-31T16:19:22Z,3648705.928,NULL,Können,unaweza,d,NA,NA,NA,wakati,NA,NA,4,NA,NA,NA,NA,NA,NA,NA,NA,NA,NA,NA,NA,NA,NA,NA,NA,NA,NA,NA
b015b,"""Richtig""-Screen",canvas.Screen,3_0_4_0_5_0_1,NA,NA,skipped,NA,3648699,NA,NA,3648696.2,3648699.1000001,2023-05-31T16:19:22Z,3648705.928,NULL,Können,unaweza,d,NA,NA,NA,NA,sd,NA,4,NA,NA,NA,NA,NA,NA,NA,NA,NA,NA,NA,NA,NA,NA,NA,NA,NA,NA,NA
b015b,"""Falsch""-Screen",canvas.Screen,3_0_4_0_5_0_2,NA,NA,timeout,4996.4930000002,3648699.8000002,3648689.883,3648705.928,3653685.085,3653686,2023-05-31T16:19:27Z,3653702.421,NULL,Können,unaweza,d,NA,NA,NA,NA,sd,0,4,NA,NA,NA,NA,NA,NA,NA,NA,NA,NA,NA,NA,NA,NA,NA,NA,NA,NA,NA
b015b,deep,flow.Sequence,3_0_4_0_5_0,NA,NA,completion,12722.477,3640951.2,3640946.171,3640962.608,3653685.085,3653686.2,2023-05-31T16:19:27Z,3653702.421,NULL,Können,unaweza,d,NA,NA,NA,NA,sd,NA,4,NA,NA,NA,NA,NA,NA,NA,NA,NA,NA,NA,NA,NA,NA,NA,NA,NA,NA,NA
b015b,shallow,flow.Sequence,3_0_4_0_5_1,NA,NA,skipped,NA,3653686.3000002,NA,NA,3653685.085,3653686.3000002,2023-05-31T16:19:27Z,3653702.421,NULL,Können,unaweza,d,NA,NA,NA,NA,sd,NA,4,NA,NA,NA,NA,NA,NA,NA,NA,NA,NA,NA,NA,NA,NA,NA,NA,NA,NA,NA
b015b,task,flow.Sequence,3_0_4_0_5,NA,NA,completion,12722.477,3640951.2,3640946.171,3640962.608,3653685.085,3653686.3000002,2023-05-31T16:19:27Z,3653702.421,NULL,Können,unaweza,d,NA,NA,NA,NA,sd,NA,4,NA,NA,NA,NA,NA,NA,NA,NA,NA,NA,NA,NA,NA,NA,NA,NA,NA,NA,NA
b015b,deep,flow.Sequence,3_0_4_0_6_0,NA,NA,skipped,NA,3653686.3000002,NA,NA,3653685.085,3653686.4000001,2023-05-31T16:19:27Z,3653702.421,NULL,Gefährdung,kuhatarisha,s,uchokozi,udhaifu,makorowezo,NA,sd,NA,4,NA,NA,NA,NA,NA,NA,NA,NA,NA,NA,NA,NA,NA,NA,NA,NA,NA,NA,NA
b015b,Shallow Question,html.Page,3_0_4_0_6_1_0,NA,NA,form submission,4840.4790000953,3653686.4000001,3653685.085,3653702.421,3658542.9000001,3658543.1000001,2023-05-31T16:19:32Z,3658547.848,NULL,Gefährdung,kuhatarisha,s,uchokozi,udhaifu,makorowezo,kuhatarisha,NA,NA,4,NA,NA,NA,NA,NA,NA,NA,NA,NA,NA,NA,NA,NA,NA,NA,NA,NA,NA,NA
b015b,"""Richtig""-Screen",canvas.Screen,3_0_4_0_6_1_1,NA,NA,timeout,4996.5649999999,3658545.5,3658531.087,3658547.848,3663527.564,3663528.4000001,2023-05-31T16:19:37Z,3663544.413,NULL,Gefährdung,kuhatarisha,s,uchokozi,udhaifu,makorowezo,NA,sd,1,4,NA,NA,NA,NA,NA,NA,NA,NA,NA,NA,NA,NA,NA,NA,NA,NA,NA,NA,NA
b015b,"""Falsch""-Screen",canvas.Screen,3_0_4_0_6_1_2,NA,NA,skipped,NA,3663533.1000001,NA,NA,3663527.564,3663533.2,2023-05-31T16:19:37Z,3663544.413,NULL,Gefährdung,kuhatarisha,s,uchokozi,udhaifu,makorowezo,NA,sd,NA,4,NA,NA,NA,NA,NA,NA,NA,NA,NA,NA,NA,NA,NA,NA,NA,NA,NA,NA,NA
b015b,shallow,flow.Sequence,3_0_4_0_6_1,NA,NA,completion,9825.1429999997,3653686.4000001,3653685.085,3653702.421,3663527.564,3663533.3000002,2023-05-31T16:19:37Z,3663544.413,NULL,Gefährdung,kuhatarisha,s,uchokozi,udhaifu,makorowezo,NA,sd,NA,4,NA,NA,NA,NA,NA,NA,NA,NA,NA,NA,NA,NA,NA,NA,NA,NA,NA,NA,NA
b015b,task,flow.Sequence,3_0_4_0_6,NA,NA,completion,9825.1429999997,3653686.3000002,3653685.085,3653702.421,3663527.564,3663533.4000001,2023-05-31T16:19:37Z,3663544.413,NULL,Gefährdung,kuhatarisha,s,uchokozi,udhaifu,makorowezo,NA,sd,NA,4,NA,NA,NA,NA,NA,NA,NA,NA,NA,NA,NA,NA,NA,NA,NA,NA,NA,NA,NA
b015b,Deep Question,html.Page,3_0_4_0_7_0_0,NA,NA,form submission,4801.2870000475,3663533.5,3663527.564,3663544.413,3668345.7,3668345.9000001,2023-05-31T16:19:42Z,3668356.818,NULL,Gelegenheit,wakati,d,NA,NA,NA,wakati,NA,NA,4,NA,NA,NA,NA,NA,NA,NA,NA,NA,NA,NA,NA,NA,NA,NA,NA,NA,NA,NA
b015b,"""Richtig""-Screen",canvas.Screen,3_0_4_0_7_0_1,NA,NA,timeout,4995.5529999998,3668347.7,3668339.871,3668356.818,3673336.032,3673337,2023-05-31T16:19:47Z,3673352.371,NULL,Gelegenheit,wakati,d,NA,NA,NA,NA,sd,1,4,NA,NA,NA,NA,NA,NA,NA,NA,NA,NA,NA,NA,NA,NA,NA,NA,NA,NA,NA
b015b,"""Falsch""-Screen",canvas.Screen,3_0_4_0_7_0_2,NA,NA,skipped,NA,3673342.3000002,NA,NA,3673336.032,3673342.7,2023-05-31T16:19:47Z,3673352.371,NULL,Gelegenheit,wakati,d,NA,NA,NA,NA,sd,NA,4,NA,NA,NA,NA,NA,NA,NA,NA,NA,NA,NA,NA,NA,NA,NA,NA,NA,NA,NA
b015b,deep,flow.Sequence,3_0_4_0_7_0,NA,NA,completion,9791.6189999999,3663533.5,3663527.564,3663544.413,3673336.032,3673343,2023-05-31T16:19:47Z,3673352.371,NULL,Gelegenheit,wakati,d,NA,NA,NA,NA,sd,NA,4,NA,NA,NA,NA,NA,NA,NA,NA,NA,NA,NA,NA,NA,NA,NA,NA,NA,NA,NA
b015b,shallow,flow.Sequence,3_0_4_0_7_1,NA,NA,skipped,NA,3673343.1000001,NA,NA,3673336.032,3673343.3000002,2023-05-31T16:19:47Z,3673352.371,NULL,Gelegenheit,wakati,d,NA,NA,NA,NA,sd,NA,4,NA,NA,NA,NA,NA,NA,NA,NA,NA,NA,NA,NA,NA,NA,NA,NA,NA,NA,NA
b015b,task,flow.Sequence,3_0_4_0_7,NA,NA,completion,9791.6189999999,3663533.5,3663527.564,3663544.413,3673336.032,3673343.5,2023-05-31T16:19:47Z,3673352.371,NULL,Gelegenheit,wakati,d,NA,NA,NA,NA,sd,NA,4,NA,NA,NA,NA,NA,NA,NA,NA,NA,NA,NA,NA,NA,NA,NA,NA,NA,NA,NA
b015b,block,flow.Loop,3_0_4_0,NA,NA,completion,115055.737,3558276.9000001,3558264.155,3558280.295,3673336.032,3673343.7,2023-05-31T16:19:47Z,3673352.371,NULL,NA,NA,NA,NA,NA,NA,NA,sd,NA,4,NA,NA,NA,NA,NA,NA,NA,NA,NA,NA,NA,NA,NA,NA,NA,NA,NA,NA,NA
b015b,weiter,canvas.Screen,3_0_4_1,sdf,keypress(Space),response,1042.8290000479,3673344,3673336.032,3673352.371,3674395.2,3674396.2,2023-05-31T16:19:48Z,3674901.554,NULL,NA,NA,NA,NA,NA,NA,NA,sd,NA,4,NA,NA,NA,NA,NA,NA,NA,NA,NA,NA,NA,NA,NA,NA,NA,NA,NA,NA,NA
b015b,check continue,flow.Sequence,3_0_4,NA,NA,completion,116114.90500005,3558276.9000001,3558264.155,3558280.295,3674395.2,3674396.5,2023-05-31T16:19:48Z,3674901.554,NULL,NA,NA,NA,NA,NA,NA,NA,sd,NA,4,NA,NA,NA,NA,NA,NA,NA,NA,NA,NA,NA,NA,NA,NA,NA,NA,NA,NA,NA
b015b,check continue,flow.Sequence,3_0_5,NA,NA,skipped,NA,3674434.5,NA,NA,3674395.2,3674434.6000001,2023-05-31T16:19:48Z,3674901.554,NULL,NA,NA,NA,NA,NA,NA,NA,sdf,NA,5,NA,NA,NA,NA,NA,NA,NA,NA,NA,NA,NA,NA,NA,NA,NA,NA,NA,NA,NA
b015b,check continue,flow.Sequence,3_0_6,NA,NA,skipped,NA,3674453.4000001,NA,NA,3674395.2,3674453.5,2023-05-31T16:19:48Z,3674901.554,NULL,NA,NA,NA,NA,NA,NA,NA,dfs,NA,6,NA,NA,NA,NA,NA,NA,NA,NA,NA,NA,NA,NA,NA,NA,NA,NA,NA,NA,NA
b015b,check continue,flow.Sequence,3_0_7,NA,NA,skipped,NA,3674471.1000001,NA,NA,3674395.2,3674471.2,2023-05-31T16:19:48Z,3674901.554,NULL,NA,NA,NA,NA,NA,NA,NA,df,NA,7,NA,NA,NA,NA,NA,NA,NA,NA,NA,NA,NA,NA,NA,NA,NA,NA,NA,NA,NA
b015b,check continue,flow.Sequence,3_0_8,NA,NA,skipped,NA,3674497.8000002,NA,NA,3674395.2,3674497.9000001,2023-05-31T16:19:48Z,3674901.554,NULL,NA,NA,NA,NA,NA,NA,NA,dfs,NA,8,NA,NA,NA,NA,NA,NA,NA,NA,NA,NA,NA,NA,NA,NA,NA,NA,NA,NA,NA
b015b,check continue,flow.Sequence,3_0_9,NA,NA,skipped,NA,3674522.5,NA,NA,3674395.2,3674522.6000001,2023-05-31T16:19:48Z,3674901.554,NULL,NA,NA,NA,NA,NA,NA,NA,dsf,NA,9,NA,NA,NA,NA,NA,NA,NA,NA,NA,NA,NA,NA,NA,NA,NA,NA,NA,NA,NA
b015b,check continue,flow.Sequence,3_0_10,NA,NA,skipped,NA,3674545.6000001,NA,NA,3674395.2,3674545.7,2023-05-31T16:19:48Z,3674901.554,NULL,NA,NA,NA,NA,NA,NA,NA,df,NA,10,NA,NA,NA,NA,NA,NA,NA,NA,NA,NA,NA,NA,NA,NA,NA,NA,NA,NA,NA
b015b,check continue,flow.Sequence,3_0_11,NA,NA,skipped,NA,3674566,NA,NA,3674395.2,3674566.1000001,2023-05-31T16:19:48Z,3674901.554,NULL,NA,NA,NA,NA,NA,NA,NA,dfs,NA,11,NA,NA,NA,NA,NA,NA,NA,NA,NA,NA,NA,NA,NA,NA,NA,NA,NA,NA,NA
b015b,check continue,flow.Sequence,3_0_12,NA,NA,skipped,NA,3674585.5,NA,NA,3674395.2,3674585.6000001,2023-05-31T16:19:48Z,3674901.554,NULL,NA,NA,NA,NA,NA,NA,NA,dsf,NA,12,NA,NA,NA,NA,NA,NA,NA,NA,NA,NA,NA,NA,NA,NA,NA,NA,NA,NA,NA
b015b,check continue,flow.Sequence,3_0_13,NA,NA,skipped,NA,3674607.3000002,NA,NA,3674395.2,3674607.4000001,2023-05-31T16:19:48Z,3674901.554,NULL,NA,NA,NA,NA,NA,NA,NA,dsf,NA,13,NA,NA,NA,NA,NA,NA,NA,NA,NA,NA,NA,NA,NA,NA,NA,NA,NA,NA,NA
b015b,check continue,flow.Sequence,3_0_14,NA,NA,skipped,NA,3674626.4000001,NA,NA,3674395.2,3674626.5,2023-05-31T16:19:48Z,3674901.554,NULL,NA,NA,NA,NA,NA,NA,NA,NA,NA,14,NA,NA,NA,NA,NA,NA,NA,NA,NA,NA,NA,NA,NA,NA,NA,NA,NA,NA,NA
b015b,check continue,flow.Sequence,3_0_15,NA,NA,skipped,NA,3674645.1000001,NA,NA,3674395.2,3674645.2,2023-05-31T16:19:48Z,3674901.554,NULL,NA,NA,NA,NA,NA,NA,NA,NA,NA,15,NA,NA,NA,NA,NA,NA,NA,NA,NA,NA,NA,NA,NA,NA,NA,NA,NA,NA,NA
b015b,check continue,flow.Sequence,3_0_16,NA,NA,skipped,NA,3674661.5,NA,NA,3674395.2,3674661.7,2023-05-31T16:19:48Z,3674901.554,NULL,NA,NA,NA,NA,NA,NA,NA,NA,NA,16,NA,NA,NA,NA,NA,NA,NA,NA,NA,NA,NA,NA,NA,NA,NA,NA,NA,NA,NA
b015b,check continue,flow.Sequence,3_0_17,NA,NA,skipped,NA,3674677,NA,NA,3674395.2,3674677.1000001,2023-05-31T16:19:48Z,3674901.554,NULL,NA,NA,NA,NA,NA,NA,NA,NA,NA,17,NA,NA,NA,NA,NA,NA,NA,NA,NA,NA,NA,NA,NA,NA,NA,NA,NA,NA,NA
b015b,check continue,flow.Sequence,3_0_18,NA,NA,skipped,NA,3674692.6000001,NA,NA,3674395.2,3674692.7,2023-05-31T16:19:48Z,3674901.554,NULL,NA,NA,NA,NA,NA,NA,NA,NA,NA,18,NA,NA,NA,NA,NA,NA,NA,NA,NA,NA,NA,NA,NA,NA,NA,NA,NA,NA,NA
b015b,check continue,flow.Sequence,3_0_19,NA,NA,skipped,NA,3674711.9000001,NA,NA,3674395.2,3674712,2023-05-31T16:19:48Z,3674901.554,NULL,NA,NA,NA,NA,NA,NA,NA,NA,NA,19,NA,NA,NA,NA,NA,NA,NA,NA,NA,NA,NA,NA,NA,NA,NA,NA,NA,NA,NA
b015b,check continue,flow.Sequence,3_0_20,NA,NA,skipped,NA,3674727.5,NA,NA,3674395.2,3674727.6000001,2023-05-31T16:19:48Z,3674901.554,NULL,NA,NA,NA,NA,NA,NA,NA,NA,NA,20,NA,NA,NA,NA,NA,NA,NA,NA,NA,NA,NA,NA,NA,NA,NA,NA,NA,NA,NA
b015b,check continue,flow.Sequence,3_0_21,NA,NA,skipped,NA,3674742.8000002,NA,NA,3674395.2,3674742.9000001,2023-05-31T16:19:48Z,3674901.554,NULL,NA,NA,NA,NA,NA,NA,NA,NA,NA,21,NA,NA,NA,NA,NA,NA,NA,NA,NA,NA,NA,NA,NA,NA,NA,NA,NA,NA,NA
b015b,check continue,flow.Sequence,3_0_22,NA,NA,skipped,NA,3674758.4000001,NA,NA,3674395.2,3674758.5,2023-05-31T16:19:48Z,3674901.554,NULL,NA,NA,NA,NA,NA,NA,NA,NA,NA,22,NA,NA,NA,NA,NA,NA,NA,NA,NA,NA,NA,NA,NA,NA,NA,NA,NA,NA,NA
b015b,check continue,flow.Sequence,3_0_23,NA,NA,skipped,NA,3674774.4000001,NA,NA,3674395.2,3674774.5,2023-05-31T16:19:48Z,3674901.554,NULL,NA,NA,NA,NA,NA,NA,NA,NA,NA,23,NA,NA,NA,NA,NA,NA,NA,NA,NA,NA,NA,NA,NA,NA,NA,NA,NA,NA,NA
b015b,check continue,flow.Sequence,3_0_24,NA,NA,skipped,NA,3674788.5,NA,NA,3674395.2,3674788.6000001,2023-05-31T16:19:48Z,3674901.554,NULL,NA,NA,NA,NA,NA,NA,NA,NA,NA,24,NA,NA,NA,NA,NA,NA,NA,NA,NA,NA,NA,NA,NA,NA,NA,NA,NA,NA,NA
b015b,check continue,flow.Sequence,3_0_25,NA,NA,skipped,NA,3674805.2,NA,NA,3674395.2,3674805.3000002,2023-05-31T16:19:49Z,3674901.554,NULL,NA,NA,NA,NA,NA,NA,NA,NA,NA,25,NA,NA,NA,NA,NA,NA,NA,NA,NA,NA,NA,NA,NA,NA,NA,NA,NA,NA,NA
b015b,check continue,flow.Sequence,3_0_26,NA,NA,skipped,NA,3674826.6000001,NA,NA,3674395.2,3674826.7,2023-05-31T16:19:49Z,3674901.554,NULL,NA,NA,NA,NA,NA,NA,NA,NA,NA,26,NA,NA,NA,NA,NA,NA,NA,NA,NA,NA,NA,NA,NA,NA,NA,NA,NA,NA,NA
b015b,check continue,flow.Sequence,3_0_27,NA,NA,skipped,NA,3674851.8000002,NA,NA,3674395.2,3674851.9000001,2023-05-31T16:19:49Z,3674901.554,NULL,NA,NA,NA,NA,NA,NA,NA,NA,NA,27,NA,NA,NA,NA,NA,NA,NA,NA,NA,NA,NA,NA,NA,NA,NA,NA,NA,NA,NA
b015b,check continue,flow.Sequence,3_0_28,NA,NA,skipped,NA,3674866.4000001,NA,NA,3674395.2,3674866.5,2023-05-31T16:19:49Z,3674901.554,NULL,NA,NA,NA,NA,NA,NA,NA,NA,NA,28,NA,NA,NA,NA,NA,NA,NA,NA,NA,NA,NA,NA,NA,NA,NA,NA,NA,NA,NA
b015b,check continue,flow.Sequence,3_0_29,NA,NA,skipped,NA,3674883.2,NA,NA,3674395.2,3674883.3000002,2023-05-31T16:19:49Z,3674901.554,NULL,NA,NA,NA,NA,NA,NA,NA,NA,NA,29,NA,NA,NA,NA,NA,NA,NA,NA,NA,NA,NA,NA,NA,NA,NA,NA,NA,NA,NA
b015b,until continue,flow.Loop,3_0,NA,NA,completion,532138.67800005,3142223.4000001,3142238.75,3142256.522,3674395.2,3674883.4000001,2023-05-31T16:19:49Z,3674901.554,NULL,NA,NA,NA,NA,NA,NA,NA,NA,NA,NA,NA,NA,NA,NA,NA,NA,NA,NA,NA,NA,NA,NA,NA,NA,NA,NA,NA,NA,NA
b015b,block 1,flow.Sequence,3,NA,NA,completion,532138.67800005,3142223.4000001,3142238.75,3142256.522,3674395.2,3674883.5,2023-05-31T16:19:49Z,3674901.554,NULL,NA,NA,NA,NA,NA,NA,NA,NA,NA,NA,NA,NA,NA,NA,NA,NA,NA,NA,NA,NA,NA,NA,NA,NA,NA,NA,NA,NA,NA
b015b,1.Part Over,canvas.Screen,4,NA,keypress(Space),response,1819.2460001907,3674883.5,3674868.218,3674901.554,3676720.8000002,3676721.9000001,2023-05-31T16:19:50Z,3676799.738,NULL,NA,NA,NA,NA,NA,NA,NA,NA,NA,NA,NA,NA,NA,NA,NA,NA,NA,NA,NA,NA,NA,NA,NA,NA,NA,NA,NA,NA,NA
b015b,Deep Question,html.Page,5_0_0_0_0_0_0,NA,NA,form submission,2547.7620000001,3676784.5,3676782.747,3676799.738,3679347.5,3679347.8000002,2023-05-31T16:19:53Z,3679363.958,NULL,Konkurrent,mshindani,d,NA,NA,NA,tzhj,NA,NA,0,NA,NA,NA,NA,NA,NA,NA,NA,NA,NA,NA,NA,NA,NA,NA,NA,NA,NA,NA
b015b,"""Richtig""-Screen",canvas.Screen,5_0_0_0_0_0_1,NA,NA,skipped,NA,3679349.8000002,NA,NA,3679347.5,3679350,2023-05-31T16:19:53Z,3679363.958,NULL,Konkurrent,mshindani,d,NA,NA,NA,NA,sdf,NA,0,NA,NA,NA,NA,NA,NA,NA,NA,NA,NA,NA,NA,NA,NA,NA,NA,NA,NA,NA
b015b,"""Falsch""-Screen",canvas.Screen,5_0_0_0_0_0_2,NA,NA,timeout,4996.3900000001,3679350.5,3679330.976,3679363.958,3684343.767,3684344.7,2023-05-31T16:19:58Z,3684360.348,NULL,Konkurrent,mshindani,d,NA,NA,NA,NA,sdf,0,0,NA,NA,NA,NA,NA,NA,NA,NA,NA,NA,NA,NA,NA,NA,NA,NA,NA,NA,NA
b015b,deep,flow.Sequence,5_0_0_0_0_0,NA,NA,completion,7544.0290000001,3676784.5,3676782.747,3676799.738,3684343.767,3684345.1000001,2023-05-31T16:19:58Z,3684360.348,NULL,Konkurrent,mshindani,d,NA,NA,NA,NA,sdf,NA,0,NA,NA,NA,NA,NA,NA,NA,NA,NA,NA,NA,NA,NA,NA,NA,NA,NA,NA,NA
b015b,shallow,flow.Sequence,5_0_0_0_0_1,NA,NA,skipped,NA,3684345.2,NA,NA,3684343.767,3684345.4000001,2023-05-31T16:19:58Z,3684360.348,NULL,Konkurrent,mshindani,d,NA,NA,NA,NA,sdf,NA,0,NA,NA,NA,NA,NA,NA,NA,NA,NA,NA,NA,NA,NA,NA,NA,NA,NA,NA,NA
b015b,task,flow.Sequence,5_0_0_0_0,NA,NA,completion,7544.0290000001,3676784.5,3676782.747,3676799.738,3684343.767,3684345.6000001,2023-05-31T16:19:58Z,3684360.348,NULL,Konkurrent,mshindani,d,NA,NA,NA,NA,sdf,NA,0,NA,NA,NA,NA,NA,NA,NA,NA,NA,NA,NA,NA,NA,NA,NA,NA,NA,NA,NA
b015b,deep,flow.Sequence,5_0_0_0_1_0,NA,NA,skipped,NA,3684345.8000002,NA,NA,3684343.767,3684346,2023-05-31T16:19:58Z,3684360.348,NULL,Körper,kiwiliwili,s,mapambano,mpatanishi,kiolezo,NA,sdf,NA,0,NA,NA,NA,NA,NA,NA,NA,NA,NA,NA,NA,NA,NA,NA,NA,NA,NA,NA,NA
b015b,Shallow Question,html.Page,5_0_0_0_1_1_0,NA,NA,form submission,6531.4520001905,3684346.1000001,3684343.767,3684360.348,3690891.8000002,3690892,2023-05-31T16:20:05Z,3690905.034,NULL,Körper,kiwiliwili,s,mapambano,mpatanishi,kiolezo,kiwiliwili,NA,NA,0,NA,NA,NA,NA,NA,NA,NA,NA,NA,NA,NA,NA,NA,NA,NA,NA,NA,NA,NA
b015b,"""Richtig""-Screen",canvas.Screen,5_0_0_0_1_1_1,NA,NA,timeout,4995.3810000001,3690893.8000002,3690888.267,3690905.034,3695884.024,3695885,2023-05-31T16:20:10Z,3695900.415,NULL,Körper,kiwiliwili,s,mapambano,mpatanishi,kiolezo,NA,sdf,1,0,NA,NA,NA,NA,NA,NA,NA,NA,NA,NA,NA,NA,NA,NA,NA,NA,NA,NA,NA
b015b,"""Falsch""-Screen",canvas.Screen,5_0_0_0_1_1_2,NA,NA,skipped,NA,3695891.2,NA,NA,3695884.024,3695891.5,2023-05-31T16:20:10Z,3695900.415,NULL,Körper,kiwiliwili,s,mapambano,mpatanishi,kiolezo,NA,sdf,NA,0,NA,NA,NA,NA,NA,NA,NA,NA,NA,NA,NA,NA,NA,NA,NA,NA,NA,NA,NA
b015b,shallow,flow.Sequence,5_0_0_0_1_1,NA,NA,completion,11523.676,3684346.1000001,3684343.767,3684360.348,3695884.024,3695891.9000001,2023-05-31T16:20:10Z,3695900.415,NULL,Körper,kiwiliwili,s,mapambano,mpatanishi,kiolezo,NA,sdf,NA,0,NA,NA,NA,NA,NA,NA,NA,NA,NA,NA,NA,NA,NA,NA,NA,NA,NA,NA,NA
b015b,task,flow.Sequence,5_0_0_0_1,NA,NA,completion,11523.676,3684345.7,3684343.767,3684360.348,3695884.024,3695892.1000001,2023-05-31T16:20:10Z,3695900.415,NULL,Körper,kiwiliwili,s,mapambano,mpatanishi,kiolezo,NA,sdf,NA,0,NA,NA,NA,NA,NA,NA,NA,NA,NA,NA,NA,NA,NA,NA,NA,NA,NA,NA,NA
b015b,Deep Question,html.Page,5_0_0_0_2_0_0,NA,NA,form submission,3621.085,3695892.3000002,3695884.024,3695900.415,3699521.5,3699521.8000002,2023-05-31T16:20:13Z,3699530.747,NULL,Vorsorge,tahadhari,d,NA,NA,NA,zij,NA,NA,0,NA,NA,NA,NA,NA,NA,NA,NA,NA,NA,NA,NA,NA,NA,NA,NA,NA,NA,NA
b015b,"""Richtig""-Screen",canvas.Screen,5_0_0_0_2_0_1,NA,NA,skipped,NA,3699523.5,NA,NA,3699521.5,3699523.6000001,2023-05-31T16:20:13Z,3699530.747,NULL,Vorsorge,tahadhari,d,NA,NA,NA,NA,sdf,NA,0,NA,NA,NA,NA,NA,NA,NA,NA,NA,NA,NA,NA,NA,NA,NA,NA,NA,NA,NA
b015b,"""Falsch""-Screen",canvas.Screen,5_0_0_0_2_0_2,NA,NA,timeout,4995.9020000002,3699524.4000001,3699514.183,3699530.747,3704510.173,3704511.1000001,2023-05-31T16:20:18Z,3704526.649,NULL,Vorsorge,tahadhari,d,NA,NA,NA,NA,sdf,0,0,NA,NA,NA,NA,NA,NA,NA,NA,NA,NA,NA,NA,NA,NA,NA,NA,NA,NA,NA
b015b,deep,flow.Sequence,5_0_0_0_2_0,NA,NA,completion,8609.7579999999,3695892.3000002,3695884.024,3695900.415,3704510.173,3704511.6000001,2023-05-31T16:20:18Z,3704526.649,NULL,Vorsorge,tahadhari,d,NA,NA,NA,NA,sdf,NA,0,NA,NA,NA,NA,NA,NA,NA,NA,NA,NA,NA,NA,NA,NA,NA,NA,NA,NA,NA
b015b,shallow,flow.Sequence,5_0_0_0_2_1,NA,NA,skipped,NA,3704511.7,NA,NA,3704510.173,3704511.9000001,2023-05-31T16:20:18Z,3704526.649,NULL,Vorsorge,tahadhari,d,NA,NA,NA,NA,sdf,NA,0,NA,NA,NA,NA,NA,NA,NA,NA,NA,NA,NA,NA,NA,NA,NA,NA,NA,NA,NA
b015b,task,flow.Sequence,5_0_0_0_2,NA,NA,completion,8609.7579999999,3695892.2,3695884.024,3695900.415,3704510.173,3704512.2,2023-05-31T16:20:18Z,3704526.649,NULL,Vorsorge,tahadhari,d,NA,NA,NA,NA,sdf,NA,0,NA,NA,NA,NA,NA,NA,NA,NA,NA,NA,NA,NA,NA,NA,NA,NA,NA,NA,NA
b015b,Deep Question,html.Page,5_0_0_0_3_0_0,NA,NA,form submission,2783.8509999998,3704512.4000001,3704510.173,3704526.649,3707310.5,3707310.6000001,2023-05-31T16:20:21Z,3707324.274,NULL,Lawine,banguko,d,NA,NA,NA,ztz,NA,NA,0,NA,NA,NA,NA,NA,NA,NA,NA,NA,NA,NA,NA,NA,NA,NA,NA,NA,NA,NA
b015b,"""Richtig""-Screen",canvas.Screen,5_0_0_0_3_0_1,NA,NA,skipped,NA,3707312.4000001,NA,NA,3707310.5,3707312.4000001,2023-05-31T16:20:21Z,3707324.274,NULL,Lawine,banguko,d,NA,NA,NA,NA,sdf,NA,0,NA,NA,NA,NA,NA,NA,NA,NA,NA,NA,NA,NA,NA,NA,NA,NA,NA,NA,NA
b015b,"""Falsch""-Screen",canvas.Screen,5_0_0_0_3_0_2,NA,NA,timeout,4995.9339999999,3707312.9000001,3707308.035,3707324.274,3712303.871,3712304.8000002,2023-05-31T16:20:26Z,3712320.208,NULL,Lawine,banguko,d,NA,NA,NA,NA,sdf,0,0,NA,NA,NA,NA,NA,NA,NA,NA,NA,NA,NA,NA,NA,NA,NA,NA,NA,NA,NA
b015b,deep,flow.Sequence,5_0_0_0_3_0,NA,NA,completion,7777.2219999996,3704512.3000002,3704510.173,3704526.649,3712303.871,3712305.3000002,2023-05-31T16:20:26Z,3712320.208,NULL,Lawine,banguko,d,NA,NA,NA,NA,sdf,NA,0,NA,NA,NA,NA,NA,NA,NA,NA,NA,NA,NA,NA,NA,NA,NA,NA,NA,NA,NA
b015b,shallow,flow.Sequence,5_0_0_0_3_1,NA,NA,skipped,NA,3712305.4000001,NA,NA,3712303.871,3712305.6000001,2023-05-31T16:20:26Z,3712320.208,NULL,Lawine,banguko,d,NA,NA,NA,NA,sdf,NA,0,NA,NA,NA,NA,NA,NA,NA,NA,NA,NA,NA,NA,NA,NA,NA,NA,NA,NA,NA
b015b,task,flow.Sequence,5_0_0_0_3,NA,NA,completion,7777.2219999996,3704512.3000002,3704510.173,3704526.649,3712303.871,3712305.9000001,2023-05-31T16:20:26Z,3712320.208,NULL,Lawine,banguko,d,NA,NA,NA,NA,sdf,NA,0,NA,NA,NA,NA,NA,NA,NA,NA,NA,NA,NA,NA,NA,NA,NA,NA,NA,NA,NA
b015b,deep,flow.Sequence,5_0_0_0_4_0,NA,NA,skipped,NA,3712306.1000001,NA,NA,3712303.871,3712306.2,2023-05-31T16:20:26Z,3712320.208,NULL,Zuwachs,nyongeza,s,matilaba,udhibiti,hudhurio,NA,sdf,NA,0,NA,NA,NA,NA,NA,NA,NA,NA,NA,NA,NA,NA,NA,NA,NA,NA,NA,NA,NA
b015b,Shallow Question,html.Page,5_0_0_0_4_1_0,NA,NA,form submission,4891.892000143,3712306.3000002,3712303.871,3712320.208,3717212.1000001,3717212.2,2023-05-31T16:20:31Z,3717216.183,NULL,Zuwachs,nyongeza,s,matilaba,udhibiti,hudhurio,matilaba,NA,NA,0,NA,NA,NA,NA,NA,NA,NA,NA,NA,NA,NA,NA,NA,NA,NA,NA,NA,NA,NA
b015b,"""Richtig""-Screen",canvas.Screen,5_0_0_0_4_1_1,NA,NA,skipped,NA,3717213.9000001,NA,NA,3717212.1000001,3717214,2023-05-31T16:20:31Z,3717216.183,NULL,Zuwachs,nyongeza,s,matilaba,udhibiti,hudhurio,NA,sdf,NA,0,NA,NA,NA,NA,NA,NA,NA,NA,NA,NA,NA,NA,NA,NA,NA,NA,NA,NA,NA
b015b,"""Falsch""-Screen",canvas.Screen,5_0_0_0_4_1_2,NA,NA,timeout,4996.4139999999,3717214.6000001,3717200.025,3717216.183,3722195.692,3722196.7,2023-05-31T16:20:36Z,3722212.597,NULL,Zuwachs,nyongeza,s,matilaba,udhibiti,hudhurio,NA,sdf,0,0,NA,NA,NA,NA,NA,NA,NA,NA,NA,NA,NA,NA,NA,NA,NA,NA,NA,NA,NA
b015b,shallow,flow.Sequence,5_0_0_0_4_1,NA,NA,completion,9875.4839999997,3712306.3000002,3712303.871,3712320.208,3722195.692,3722197,2023-05-31T16:20:36Z,3722212.597,NULL,Zuwachs,nyongeza,s,matilaba,udhibiti,hudhurio,NA,sdf,NA,0,NA,NA,NA,NA,NA,NA,NA,NA,NA,NA,NA,NA,NA,NA,NA,NA,NA,NA,NA
b015b,task,flow.Sequence,5_0_0_0_4,NA,NA,completion,9875.4839999997,3712306,3712303.871,3712320.208,3722195.692,3722197.3000002,2023-05-31T16:20:36Z,3722212.597,NULL,Zuwachs,nyongeza,s,matilaba,udhibiti,hudhurio,NA,sdf,NA,0,NA,NA,NA,NA,NA,NA,NA,NA,NA,NA,NA,NA,NA,NA,NA,NA,NA,NA,NA
b015b,deep,flow.Sequence,5_0_0_0_5_0,NA,NA,skipped,NA,3722197.5,NA,NA,3722195.692,3722197.7,2023-05-31T16:20:36Z,3722212.597,NULL,Übersicht,kilindo,s,mgusano,chipukizi,kulinganisha,NA,sdf,NA,0,NA,NA,NA,NA,NA,NA,NA,NA,NA,NA,NA,NA,NA,NA,NA,NA,NA,NA,NA
b015b,Shallow Question,html.Page,5_0_0_0_5_1_0,NA,NA,form submission,4197.6030000476,3722197.8000002,3722195.692,3722212.597,3726410.2,3726410.4000001,2023-05-31T16:20:40Z,3726425.216,NULL,Übersicht,kilindo,s,mgusano,chipukizi,kulinganisha,chipukizi,NA,NA,0,NA,NA,NA,NA,NA,NA,NA,NA,NA,NA,NA,NA,NA,NA,NA,NA,NA,NA,NA
b015b,"""Richtig""-Screen",canvas.Screen,5_0_0_0_5_1_1,NA,NA,skipped,NA,3726412.3000002,NA,NA,3726410.2,3726412.3000002,2023-05-31T16:20:40Z,3726425.216,NULL,Übersicht,kilindo,s,mgusano,chipukizi,kulinganisha,NA,sdf,NA,0,NA,NA,NA,NA,NA,NA,NA,NA,NA,NA,NA,NA,NA,NA,NA,NA,NA,NA,NA
b015b,"""Falsch""-Screen",canvas.Screen,5_0_0_0_5_1_2,NA,NA,timeout,4996.4539999999,3726413,3726409.147,3726425.216,3731404.679,3731405.7,2023-05-31T16:20:45Z,3731421.67,NULL,Übersicht,kilindo,s,mgusano,chipukizi,kulinganisha,NA,sdf,0,0,NA,NA,NA,NA,NA,NA,NA,NA,NA,NA,NA,NA,NA,NA,NA,NA,NA,NA,NA
b015b,shallow,flow.Sequence,5_0_0_0_5_1,NA,NA,completion,9192.0819999999,3722197.8000002,3722195.692,3722212.597,3731404.679,3731406.1000001,2023-05-31T16:20:45Z,3731421.67,NULL,Übersicht,kilindo,s,mgusano,chipukizi,kulinganisha,NA,sdf,NA,0,NA,NA,NA,NA,NA,NA,NA,NA,NA,NA,NA,NA,NA,NA,NA,NA,NA,NA,NA
b015b,task,flow.Sequence,5_0_0_0_5,NA,NA,completion,9192.0819999999,3722197.5,3722195.692,3722212.597,3731404.679,3731406.4000001,2023-05-31T16:20:45Z,3731421.67,NULL,Übersicht,kilindo,s,mgusano,chipukizi,kulinganisha,NA,sdf,NA,0,NA,NA,NA,NA,NA,NA,NA,NA,NA,NA,NA,NA,NA,NA,NA,NA,NA,NA,NA
