observation,sender,sender_type,sender_id,response,response_action,ended_on,duration,time_run,time_render,time_show,time_end,time_commit,timestamp,time_switch,german,swahili,enc,distractor1,distractor2,distractor3,response_2,x,correct,distractors,url_vp,url_sess,meta_labjs_version,meta_location,meta_user_agent,meta_platform,meta_language,meta_locale,meta_time_zone,meta_timezone_offset,meta_screen_width,meta_screen_height,meta_scroll_width,meta_scroll_height,meta_window_inner_width,meta_window_inner_height,meta_device_pixel_ratio,meta_labjs_build_flavor,meta_labjs_build_commit
a1494,Introduction delayed retrieval,canvas.Screen,0,weiter,keypress(Space),response,20344.949999619,2188.5,974.048,2273.95,22618.899999619,22621.300000191,2023-04-23T13:31:33Z,22621.257,NA,NA,NA,NA,NA,NA,NA,NA,NA,NULL,211,2,20.2.4,https://neurocog.fernuni.ch/studies/vweber/sfink/delayed/index.html?vp=211&sess=2,"Mozilla/5.0 (Windows NT 10.0; Win64; x64) AppleWebKit/537.36 (KHTML, like Gecko) Chrome/112.0.0.0 Safari/537.36",Win32,de-DE,de,Europe/Zurich,-120,1280,720,1280,553,1280,601,1.5,production,f5b4a49f956347addd546a832a3327688c2c0fef
a1494,Deep Question,html.Page,1_0_0_0,NA,NA,form submission,12526.142999619,22621.800000191,22604.83,22621.257,35147.399999619,35147.800000191,2023-04-23T13:31:45Z,35153.172,Sympathie,mapendano,d,dhamiria,fungamano,maazimio,usulubu,NA,NA,NULL,NA,NA,NA,NA,NA,NA,NA,NA,NA,NA,NA,NA,NA,NA,NA,NA,NA,NA,NA
a1494,Save data screen,canvas.Screen,1_0_0_1,NA,NA,timeout,499.719,35149.5,35136.312,35153.172,35637.178,35638.599999428,2023-04-23T13:31:46Z,35652.891,Sympathie,mapendano,d,dhamiria,fungamano,maazimio,NA,NA,0,NULL,NA,NA,NA,NA,NA,NA,NA,NA,NA,NA,NA,NA,NA,NA,NA,NA,NA,NA,NA
a1494,deep,flow.Sequence,1_0_0,NA,NA,completion,13015.921,22621.800000191,22604.83,22621.257,35637.178,35638.899999619,2023-04-23T13:31:46Z,35652.891,Sympathie,mapendano,d,dhamiria,fungamano,maazimio,NA,NA,NA,NULL,NA,NA,NA,NA,NA,NA,NA,NA,NA,NA,NA,NA,NA,NA,NA,NA,NA,NA,NA
a1494,task,flow.Sequence,1_0,NA,NA,completion,13015.921,22621.699999809,22604.83,22621.257,35637.178,35639,2023-04-23T13:31:46Z,35652.891,Sympathie,mapendano,d,dhamiria,fungamano,maazimio,NA,NA,NA,NULL,NA,NA,NA,NA,NA,NA,NA,NA,NA,NA,NA,NA,NA,NA,NA,NA,NA,NA,NA
a1494,Deep Question,html.Page,1_1_0_0,NA,NA,form submission,4753.5089996185,35639.199999809,35637.178,35652.891,40406.399999619,40407.699999809,2023-04-23T13:31:50Z,40469.019,Polizist,msongora,s,simanzi,mandhari,nidhamu,mwanjini,NA,NA,NULL,NA,NA,NA,NA,NA,NA,NA,NA,NA,NA,NA,NA,NA,NA,NA,NA,NA,NA,NA
a1494,Save data screen,canvas.Screen,1_1_0_1,NA,NA,timeout,499.995,40408.899999619,40402.723,40469.019,40952.359,40953.5,2023-04-23T13:31:51Z,40969.014,Polizist,msongora,s,simanzi,mandhari,nidhamu,NA,NA,0,NULL,NA,NA,NA,NA,NA,NA,NA,NA,NA,NA,NA,NA,NA,NA,NA,NA,NA,NA,NA
a1494,deep,flow.Sequence,1_1_0,NA,NA,completion,5299.468,35639.099999428,35637.178,35652.891,40952.359,40954.099999428,2023-04-23T13:31:51Z,40969.014,Polizist,msongora,s,simanzi,mandhari,nidhamu,NA,NA,NA,NULL,NA,NA,NA,NA,NA,NA,NA,NA,NA,NA,NA,NA,NA,NA,NA,NA,NA,NA,NA
a1494,task,flow.Sequence,1_1,NA,NA,completion,5299.468,35639,35637.178,35652.891,40952.359,40954.599999428,2023-04-23T13:31:51Z,40969.014,Polizist,msongora,s,simanzi,mandhari,nidhamu,NA,NA,NA,NULL,NA,NA,NA,NA,NA,NA,NA,NA,NA,NA,NA,NA,NA,NA,NA,NA,NA,NA,NA
a1494,Deep Question,html.Page,1_2_0_0,NA,NA,form submission,10610.685999809,40955,40952.359,40969.014,51579.699999809,51580.099999428,2023-04-23T13:32:02Z,51584.36,Auftrag,uagizaji,s,ghanima,kuzingatia,msukani,mafikinio,NA,NA,NULL,NA,NA,NA,NA,NA,NA,NA,NA,NA,NA,NA,NA,NA,NA,NA,NA,NA,NA,NA
a1494,Save data screen,canvas.Screen,1_2_0_1,NA,NA,timeout,500.388,51581,51567.909,51584.36,52067.513,52074.599999428,2023-04-23T13:32:02Z,52084.748,Auftrag,uagizaji,s,ghanima,kuzingatia,msukani,NA,NA,0,NULL,NA,NA,NA,NA,NA,NA,NA,NA,NA,NA,NA,NA,NA,NA,NA,NA,NA,NA,NA
a1494,deep,flow.Sequence,1_2_0,NA,NA,completion,11098.499,40954.899999619,40952.359,40969.014,52067.513,52075.199999809,2023-04-23T13:32:02Z,52084.748,Auftrag,uagizaji,s,ghanima,kuzingatia,msukani,NA,NA,NA,NULL,NA,NA,NA,NA,NA,NA,NA,NA,NA,NA,NA,NA,NA,NA,NA,NA,NA,NA,NA
a1494,task,flow.Sequence,1_2,NA,NA,completion,11098.499,40954.800000191,40952.359,40969.014,52067.513,52075.5,2023-04-23T13:32:02Z,52084.748,Auftrag,uagizaji,s,ghanima,kuzingatia,msukani,NA,NA,NA,NULL,NA,NA,NA,NA,NA,NA,NA,NA,NA,NA,NA,NA,NA,NA,NA,NA,NA,NA,NA
a1494,Deep Question,html.Page,1_3_0_0,NA,NA,form submission,11232.552000191,52076,52067.513,52084.748,63317.300000191,63317.599999428,2023-04-23T13:32:13Z,63332.879,Beweis,ushahidi,s,marudio,kizuizi,mtendaji,ubajini,NA,NA,NULL,NA,NA,NA,NA,NA,NA,NA,NA,NA,NA,NA,NA,NA,NA,NA,NA,NA,NA,NA
a1494,Save data screen,canvas.Screen,1_3_0_1,NA,NA,timeout,500.019,63321.099999428,63316.29,63332.879,63816.273,63817.5,2023-04-23T13:32:14Z,63832.898,Beweis,ushahidi,s,marudio,kizuizi,mtendaji,NA,NA,0,NULL,NA,NA,NA,NA,NA,NA,NA,NA,NA,NA,NA,NA,NA,NA,NA,NA,NA,NA,NA
a1494,deep,flow.Sequence,1_3_0,NA,NA,completion,11731.525,52075.899999619,52067.513,52084.748,63816.273,63818,2023-04-23T13:32:14Z,63832.898,Beweis,ushahidi,s,marudio,kizuizi,mtendaji,NA,NA,NA,NULL,NA,NA,NA,NA,NA,NA,NA,NA,NA,NA,NA,NA,NA,NA,NA,NA,NA,NA,NA
a1494,task,flow.Sequence,1_3,NA,NA,completion,11731.525,52075.800000191,52067.513,52084.748,63816.273,63818.300000191,2023-04-23T13:32:14Z,63832.898,Beweis,ushahidi,s,marudio,kizuizi,mtendaji,NA,NA,NA,NULL,NA,NA,NA,NA,NA,NA,NA,NA,NA,NA,NA,NA,NA,NA,NA,NA,NA,NA,NA
a1494,Deep Question,html.Page,1_4_0_0,NA,NA,form submission,7108.2019994278,63818.699999809,63816.273,63832.898,70941.099999428,70941.300000191,2023-04-23T13:32:21Z,70948.365,Konkurrent,mshindani,s,msemaji,mvutaji,kipukusa,kielezo,NA,NA,NULL,NA,NA,NA,NA,NA,NA,NA,NA,NA,NA,NA,NA,NA,NA,NA,NA,NA,NA,NA
a1494,Save data screen,canvas.Screen,1_4_0_1,NA,NA,timeout,500.34599999999,70945,70928.769,70948.365,71432.111,71433.899999619,2023-04-23T13:32:22Z,71448.711,Konkurrent,mshindani,s,msemaji,mvutaji,kipukusa,NA,NA,0,NULL,NA,NA,NA,NA,NA,NA,NA,NA,NA,NA,NA,NA,NA,NA,NA,NA,NA,NA,NA
a1494,deep,flow.Sequence,1_4_0,NA,NA,completion,7599.213,63818.599999428,63816.273,63832.898,71432.111,71434.399999619,2023-04-23T13:32:22Z,71448.711,Konkurrent,mshindani,s,msemaji,mvutaji,kipukusa,NA,NA,NA,NULL,NA,NA,NA,NA,NA,NA,NA,NA,NA,NA,NA,NA,NA,NA,NA,NA,NA,NA,NA
a1494,task,flow.Sequence,1_4,NA,NA,completion,7599.213,63818.5,63816.273,63832.898,71432.111,71434.699999809,2023-04-23T13:32:22Z,71448.711,Konkurrent,mshindani,s,msemaji,mvutaji,kipukusa,NA,NA,NA,NULL,NA,NA,NA,NA,NA,NA,NA,NA,NA,NA,NA,NA,NA,NA,NA,NA,NA,NA,NA
a1494,Deep Question,html.Page,1_5_0_0,NA,NA,form submission,7411.8889994278,71435.099999428,71432.111,71448.711,78860.599999428,78861,2023-04-23T13:32:29Z,78864.108,Zufall,kikuti,d,kukosekana,uchoraji,leseni,kijalizo,NA,NA,NULL,NA,NA,NA,NA,NA,NA,NA,NA,NA,NA,NA,NA,NA,NA,NA,NA,NA,NA,NA
a1494,Save data screen,canvas.Screen,1_5_0_1,NA,NA,timeout,500.273,78864.300000191,78847.615,78864.108,79347.738,79349.5,2023-04-23T13:32:29Z,79364.381,Zufall,kikuti,d,kukosekana,uchoraji,leseni,NA,NA,0,NULL,NA,NA,NA,NA,NA,NA,NA,NA,NA,NA,NA,NA,NA,NA,NA,NA,NA,NA,NA
a1494,deep,flow.Sequence,1_5_0,NA,NA,completion,7899.027,71435.099999428,71432.111,71448.711,79347.738,79350,2023-04-23T13:32:29Z,79364.381,Zufall,kikuti,d,kukosekana,uchoraji,leseni,NA,NA,NA,NULL,NA,NA,NA,NA,NA,NA,NA,NA,NA,NA,NA,NA,NA,NA,NA,NA,NA,NA,NA
a1494,task,flow.Sequence,1_5,NA,NA,completion,7899.027,71435,71432.111,71448.711,79347.738,79350.399999619,2023-04-23T13:32:29Z,79364.381,Zufall,kikuti,d,kukosekana,uchoraji,leseni,NA,NA,NA,NULL,NA,NA,NA,NA,NA,NA,NA,NA,NA,NA,NA,NA,NA,NA,NA,NA,NA,NA,NA
a1494,Deep Question,html.Page,1_6_0_0,NA,NA,form submission,40344.718999428,79350.800000191,79347.738,79364.381,119709.09999943,119709.5,2023-04-23T13:33:10Z,119732.21,Zuwachs,nyongeza,d,matilaba,udhibiti,hudhurio,ulambi,NA,NA,NULL,NA,NA,NA,NA,NA,NA,NA,NA,NA,NA,NA,NA,NA,NA,NA,NA,NA,NA,NA
a1494,Save data screen,canvas.Screen,1_6_0_1,NA,NA,timeout,493.31999999999,119713.69999981,119703.881,119732.21,120208.781,120213.5,2023-04-23T13:33:10Z,120225.53,Zuwachs,nyongeza,d,matilaba,udhibiti,hudhurio,NA,NA,0,NULL,NA,NA,NA,NA,NA,NA,NA,NA,NA,NA,NA,NA,NA,NA,NA,NA,NA,NA,NA
a1494,deep,flow.Sequence,1_6_0,NA,NA,completion,40844.4,79350.699999809,79347.738,79364.381,120208.781,120214,2023-04-23T13:33:10Z,120225.53,Zuwachs,nyongeza,d,matilaba,udhibiti,hudhurio,NA,NA,NA,NULL,NA,NA,NA,NA,NA,NA,NA,NA,NA,NA,NA,NA,NA,NA,NA,NA,NA,NA,NA
a1494,task,flow.Sequence,1_6,NA,NA,completion,40844.4,79350.599999428,79347.738,79364.381,120208.781,120214.5,2023-04-23T13:33:10Z,120225.53,Zuwachs,nyongeza,d,matilaba,udhibiti,hudhurio,NA,NA,NA,NULL,NA,NA,NA,NA,NA,NA,NA,NA,NA,NA,NA,NA,NA,NA,NA,NA,NA,NA,NA
a1494,Deep Question,html.Page,1_7_0_0,NA,NA,form submission,4257.0699994278,120214.80000019001,120208.781,120225.53,124482.59999943,124482.80000019001,2023-04-23T13:33:15Z,124491.587,Widerstand,usulubu,d,kusababisha,mwalimu,mwenendo,usulubu,NA,NA,NULL,NA,NA,NA,NA,NA,NA,NA,NA,NA,NA,NA,NA,NA,NA,NA,NA,NA,NA,NA
a1494,Save data screen,canvas.Screen,1_7_0_1,NA,NA,timeout,499.85400000001,124485.89999962,124474.56,124491.587,124975.157,124978.80000019001,2023-04-23T13:33:15Z,124991.441,Widerstand,usulubu,d,kusababisha,mwalimu,mwenendo,NA,NA,1,NULL,NA,NA,NA,NA,NA,NA,NA,NA,NA,NA,NA,NA,NA,NA,NA,NA,NA,NA,NA
a1494,deep,flow.Sequence,1_7_0,NA,NA,completion,4749.627,120214.69999981,120208.781,120225.53,124975.157,124979.09999943,2023-04-23T13:33:15Z,124991.441,Widerstand,usulubu,d,kusababisha,mwalimu,mwenendo,NA,NA,NA,NULL,NA,NA,NA,NA,NA,NA,NA,NA,NA,NA,NA,NA,NA,NA,NA,NA,NA,NA,NA
a1494,task,flow.Sequence,1_7,NA,NA,completion,4749.627,120214.59999943,120208.781,120225.53,124975.157,124979.39999962,2023-04-23T13:33:15Z,124991.441,Widerstand,usulubu,d,kusababisha,mwalimu,mwenendo,NA,NA,NA,NULL,NA,NA,NA,NA,NA,NA,NA,NA,NA,NA,NA,NA,NA,NA,NA,NA,NA,NA,NA
a1494,Deep Question,html.Page,1_8_0_0,NA,NA,form submission,4701.2589998093,124979.80000019001,124975.157,124991.441,129692.69999981,129693,2023-04-23T13:33:20Z,129707.539,Schönheit,kirembo,d,mahojiano,msisimko,jitihadi,kielezo,NA,NA,NULL,NA,NA,NA,NA,NA,NA,NA,NA,NA,NA,NA,NA,NA,NA,NA,NA,NA,NA,NA
a1494,Save data screen,canvas.Screen,1_8_0_1,NA,NA,timeout,499.95999999999,129696.09999943,129676.995,129707.539,130190.85,130191.69999981,2023-04-23T13:33:20Z,130207.499,Schönheit,kirembo,d,mahojiano,msisimko,jitihadi,NA,NA,0,NULL,NA,NA,NA,NA,NA,NA,NA,NA,NA,NA,NA,NA,NA,NA,NA,NA,NA,NA,NA
a1494,deep,flow.Sequence,1_8_0,NA,NA,completion,5199.409,124979.59999943,124975.157,124991.441,130190.85,130192,2023-04-23T13:33:20Z,130207.499,Schönheit,kirembo,d,mahojiano,msisimko,jitihadi,NA,NA,NA,NULL,NA,NA,NA,NA,NA,NA,NA,NA,NA,NA,NA,NA,NA,NA,NA,NA,NA,NA,NA
a1494,task,flow.Sequence,1_8,NA,NA,completion,5199.409,124979.59999943,124975.157,124991.441,130190.85,130192.30000019001,2023-04-23T13:33:20Z,130207.499,Schönheit,kirembo,d,mahojiano,msisimko,jitihadi,NA,NA,NA,NULL,NA,NA,NA,NA,NA,NA,NA,NA,NA,NA,NA,NA,NA,NA,NA,NA,NA,NA,NA
a1494,Deep Question,html.Page,1_9_0_0,NA,NA,form submission,6372.8010001907,130192.39999962,130190.85,130207.499,136580.30000019,136580.59999943,2023-04-23T13:33:27Z,136589.972,Verstand,ufahamivu,d,shakawa,hadhari,mhandisi,darshana,NA,NA,NULL,NA,NA,NA,NA,NA,NA,NA,NA,NA,NA,NA,NA,NA,NA,NA,NA,NA,NA,NA
a1494,Save data screen,canvas.Screen,1_9_0_1,NA,NA,timeout,500.08100000001,136584.09999943,136568.49,136589.972,137073.248,137073.69999981,2023-04-23T13:33:27Z,137090.053,Verstand,ufahamivu,d,shakawa,hadhari,mhandisi,NA,NA,0,NULL,NA,NA,NA,NA,NA,NA,NA,NA,NA,NA,NA,NA,NA,NA,NA,NA,NA,NA,NA
a1494,deep,flow.Sequence,1_9_0,NA,NA,completion,6865.749,130192.39999962,130190.85,130207.499,137073.248,137074,2023-04-23T13:33:27Z,137090.053,Verstand,ufahamivu,d,shakawa,hadhari,mhandisi,NA,NA,NA,NULL,NA,NA,NA,NA,NA,NA,NA,NA,NA,NA,NA,NA,NA,NA,NA,NA,NA,NA,NA
a1494,task,flow.Sequence,1_9,NA,NA,completion,6865.749,130192.39999962,130190.85,130207.499,137073.248,137074,2023-04-23T13:33:27Z,137090.053,Verstand,ufahamivu,d,shakawa,hadhari,mhandisi,NA,NA,NA,NULL,NA,NA,NA,NA,NA,NA,NA,NA,NA,NA,NA,NA,NA,NA,NA,NA,NA,NA,NA
a1494,Deep Question,html.Page,1_10_0_0,NA,NA,form submission,7914.8469996185,137074.19999981,137073.248,137090.053,145004.89999962,145005.19999981,2023-04-23T13:33:35Z,145025.516,Gelegenheit,wakati,s,mchanganyiko,kipaumbele,kushuku,ulambu,NA,NA,NULL,NA,NA,NA,NA,NA,NA,NA,NA,NA,NA,NA,NA,NA,NA,NA,NA,NA,NA,NA
a1494,Save data screen,canvas.Screen,1_10_0_1,NA,NA,timeout,497.04699999999,145008.30000019,144989.211,145025.516,145505.838,145507,2023-04-23T13:33:36Z,145522.563,Gelegenheit,wakati,s,mchanganyiko,kipaumbele,kushuku,NA,NA,0,NULL,NA,NA,NA,NA,NA,NA,NA,NA,NA,NA,NA,NA,NA,NA,NA,NA,NA,NA,NA
a1494,deep,flow.Sequence,1_10_0,NA,NA,completion,8415.785,137074.19999981,137073.248,137090.053,145505.838,145507.39999961999,2023-04-23T13:33:36Z,145522.563,Gelegenheit,wakati,s,mchanganyiko,kipaumbele,kushuku,NA,NA,NA,NULL,NA,NA,NA,NA,NA,NA,NA,NA,NA,NA,NA,NA,NA,NA,NA,NA,NA,NA,NA
a1494,task,flow.Sequence,1_10,NA,NA,completion,8415.785,137074.19999981,137073.248,137090.053,145505.838,145507.80000019,2023-04-23T13:33:36Z,145522.563,Gelegenheit,wakati,s,mchanganyiko,kipaumbele,kushuku,NA,NA,NA,NULL,NA,NA,NA,NA,NA,NA,NA,NA,NA,NA,NA,NA,NA,NA,NA,NA,NA,NA,NA
a1494,Deep Question,html.Page,1_11_0_0,NA,NA,form submission,11927.937,145508.09999943,145505.838,145522.563,157450.5,157450.80000019,2023-04-23T13:33:48Z,157453.927,Vorsorge,tahadhari,s,ufafanuzi,makini,mashambani,wakui,NA,NA,NULL,NA,NA,NA,NA,NA,NA,NA,NA,NA,NA,NA,NA,NA,NA,NA,NA,NA,NA,NA
a1494,Save data screen,canvas.Screen,1_11_0_1,NA,NA,timeout,499.92500000002,157453.59999943,157442.825,157453.927,157937.217,157943.09999943,2023-04-23T13:33:48Z,157953.852,Vorsorge,tahadhari,s,ufafanuzi,makini,mashambani,NA,NA,0,NULL,NA,NA,NA,NA,NA,NA,NA,NA,NA,NA,NA,NA,NA,NA,NA,NA,NA,NA,NA
a1494,deep,flow.Sequence,1_11_0,NA,NA,completion,12414.654,145508,145505.838,145522.563,157937.217,157943.19999981,2023-04-23T13:33:48Z,157953.852,Vorsorge,tahadhari,s,ufafanuzi,makini,mashambani,NA,NA,NA,NULL,NA,NA,NA,NA,NA,NA,NA,NA,NA,NA,NA,NA,NA,NA,NA,NA,NA,NA,NA
a1494,task,flow.Sequence,1_11,NA,NA,completion,12414.654,145508,145505.838,145522.563,157937.217,157943.30000019,2023-04-23T13:33:48Z,157953.852,Vorsorge,tahadhari,s,ufafanuzi,makini,mashambani,NA,NA,NA,NULL,NA,NA,NA,NA,NA,NA,NA,NA,NA,NA,NA,NA,NA,NA,NA,NA,NA,NA,NA
a1494,Deep Question,html.Page,1_12_0_0,NA,NA,form submission,28775.148,157943.5,157937.217,157953.852,186729,186729.30000019,2023-04-23T13:34:17Z,186733.538,Wettbewerb,ushindani,s,mapendezi,kichocheo,ubaguzi,ulelelezie,NA,NA,NULL,NA,NA,NA,NA,NA,NA,NA,NA,NA,NA,NA,NA,NA,NA,NA,NA,NA,NA,NA
a1494,Save data screen,canvas.Screen,1_12_0_1,NA,NA,timeout,499.91800000001,186732.80000019,186717.917,186733.538,187216.854,187217.80000019,2023-04-23T13:34:17Z,187233.456,Wettbewerb,ushindani,s,mapendezi,kichocheo,ubaguzi,NA,NA,0,NULL,NA,NA,NA,NA,NA,NA,NA,NA,NA,NA,NA,NA,NA,NA,NA,NA,NA,NA,NA
a1494,deep,flow.Sequence,1_12_0,NA,NA,completion,29263.002,157943.39999962,157937.217,157953.852,187216.854,187218.30000019,2023-04-23T13:34:17Z,187233.456,Wettbewerb,ushindani,s,mapendezi,kichocheo,ubaguzi,NA,NA,NA,NULL,NA,NA,NA,NA,NA,NA,NA,NA,NA,NA,NA,NA,NA,NA,NA,NA,NA,NA,NA
a1494,task,flow.Sequence,1_12,NA,NA,completion,29263.002,157943.39999962,157937.217,157953.852,187216.854,187218.59999943,2023-04-23T13:34:17Z,187233.456,Wettbewerb,ushindani,s,mapendezi,kichocheo,ubaguzi,NA,NA,NA,NULL,NA,NA,NA,NA,NA,NA,NA,NA,NA,NA,NA,NA,NA,NA,NA,NA,NA,NA,NA
a1494,Deep Question,html.Page,1_13_0_0,NA,NA,form submission,7570.1439994278,187218.89999961999,187216.854,187233.456,194803.59999943,194803.89999962,2023-04-23T13:34:25Z,194815.899,Ausschluss,kutengwa,s,ununuzi,taratibu,madeni,kiriti,NA,NA,NULL,NA,NA,NA,NA,NA,NA,NA,NA,NA,NA,NA,NA,NA,NA,NA,NA,NA,NA,NA
a1494,Save data screen,canvas.Screen,1_13_0_1,NA,NA,timeout,499.84899999999,194807.09999943,194800.988,194815.899,195299.078,195299.59999943,2023-04-23T13:34:25Z,195315.748,Ausschluss,kutengwa,s,ununuzi,taratibu,madeni,NA,NA,0,NULL,NA,NA,NA,NA,NA,NA,NA,NA,NA,NA,NA,NA,NA,NA,NA,NA,NA,NA,NA
a1494,deep,flow.Sequence,1_13_0,NA,NA,completion,8065.622,187218.80000019,187216.854,187233.456,195299.078,195299.80000019,2023-04-23T13:34:25Z,195315.748,Ausschluss,kutengwa,s,ununuzi,taratibu,madeni,NA,NA,NA,NULL,NA,NA,NA,NA,NA,NA,NA,NA,NA,NA,NA,NA,NA,NA,NA,NA,NA,NA,NA
a1494,task,flow.Sequence,1_13,NA,NA,completion,8065.622,187218.80000019,187216.854,187233.456,195299.078,195300.19999981,2023-04-23T13:34:25Z,195315.748,Ausschluss,kutengwa,s,ununuzi,taratibu,madeni,NA,NA,NA,NULL,NA,NA,NA,NA,NA,NA,NA,NA,NA,NA,NA,NA,NA,NA,NA,NA,NA,NA,NA
a1494,Deep Question,html.Page,1_14_0_0,NA,NA,form submission,8025.1519996185,195300.39999962,195299.078,195315.748,203340.89999962,203341.19999981,2023-04-23T13:34:33Z,203348.043,Symbol,kielezo,d,kinyume,nderemo,utayari,kielezo,NA,NA,NULL,NA,NA,NA,NA,NA,NA,NA,NA,NA,NA,NA,NA,NA,NA,NA,NA,NA,NA,NA
a1494,Save data screen,canvas.Screen,1_14_0_1,NA,NA,timeout,500.15700000001,203344.09999943,203331.403,203348.043,203831.728,203832.89999961999,2023-04-23T13:34:34Z,203848.2,Symbol,kielezo,d,kinyume,nderemo,utayari,NA,NA,1,NULL,NA,NA,NA,NA,NA,NA,NA,NA,NA,NA,NA,NA,NA,NA,NA,NA,NA,NA,NA
a1494,deep,flow.Sequence,1_14_0,NA,NA,completion,8515.98,195300.19999981,195299.078,195315.748,203831.728,203833.30000019,2023-04-23T13:34:34Z,203848.2,Symbol,kielezo,d,kinyume,nderemo,utayari,NA,NA,NA,NULL,NA,NA,NA,NA,NA,NA,NA,NA,NA,NA,NA,NA,NA,NA,NA,NA,NA,NA,NA
a1494,task,flow.Sequence,1_14,NA,NA,completion,8515.98,195300.19999981,195299.078,195315.748,203831.728,203833.59999943,2023-04-23T13:34:34Z,203848.2,Symbol,kielezo,d,kinyume,nderemo,utayari,NA,NA,NA,NULL,NA,NA,NA,NA,NA,NA,NA,NA,NA,NA,NA,NA,NA,NA,NA,NA,NA,NA,NA
a1494,Deep Question,html.Page,1_15_0_0,NA,NA,form submission,40283.999999809,203835.19999981,203831.728,203848.2,244132.19999981,244132.39999962,2023-04-23T13:35:14Z,244142.792,Annäherung,maegesho,d,madahili,kujiamini,mapendekezo,ulelezie,NA,NA,NULL,NA,NA,NA,NA,NA,NA,NA,NA,NA,NA,NA,NA,NA,NA,NA,NA,NA,NA,NA
a1494,Save data screen,canvas.Screen,1_15_0_1,NA,NA,timeout,499.92200000002,244134.69999981,244126.25,244142.792,244626.061,244626.5,2023-04-23T13:35:15Z,244642.714,Annäherung,maegesho,d,madahili,kujiamini,mapendekezo,NA,NA,0,NULL,NA,NA,NA,NA,NA,NA,NA,NA,NA,NA,NA,NA,NA,NA,NA,NA,NA,NA,NA
a1494,deep,flow.Sequence,1_15_0,NA,NA,completion,40777.861,203835.09999943,203831.728,203848.2,244626.061,244626.59999943,2023-04-23T13:35:15Z,244642.714,Annäherung,maegesho,d,madahili,kujiamini,mapendekezo,NA,NA,NA,NULL,NA,NA,NA,NA,NA,NA,NA,NA,NA,NA,NA,NA,NA,NA,NA,NA,NA,NA,NA
a1494,task,flow.Sequence,1_15,NA,NA,completion,40777.861,203834.89999962,203831.728,203848.2,244626.061,244626.80000019,2023-04-23T13:35:15Z,244642.714,Annäherung,maegesho,d,madahili,kujiamini,mapendekezo,NA,NA,NA,NULL,NA,NA,NA,NA,NA,NA,NA,NA,NA,NA,NA,NA,NA,NA,NA,NA,NA,NA,NA
a1494,retrieval block 1 (cued recall),flow.Loop,1,NA,NA,completion,222004.804,22621.599999428,22604.83,22621.257,244626.061,244626.80000019,2023-04-23T13:35:15Z,244642.714,NA,NA,NA,NA,NA,NA,NA,NA,NA,NULL,NA,NA,NA,NA,NA,NA,NA,NA,NA,NA,NA,NA,NA,NA,NA,NA,NA,NA,NA
a1494,Shallow Question,html.Page,2_0_0_0,NA,NA,form submission,10526.185999619,244627.09999943,244626.061,244642.714,255168.89999961999,255169.19999981,2023-04-23T13:35:25Z,255174.678,Auftrag,uagizaji,s,ghanima,kuzingatia,msukani,uagizaji,NA,NA,"c(""distractor1"", ""distractor2"", ""distractor3"")",NA,NA,NA,NA,NA,NA,NA,NA,NA,NA,NA,NA,NA,NA,NA,NA,NA,NA,NA
a1494,Save data screen,canvas.Screen,2_0_0_1,NA,NA,timeout,499.924,255171.5,255157.77,255174.678,255658.012,255658.59999943,2023-04-23T13:35:26Z,255674.602,Auftrag,uagizaji,s,ghanima,kuzingatia,msukani,NA,NA,1,"c(""distractor1"", ""distractor2"", ""distractor3"")",NA,NA,NA,NA,NA,NA,NA,NA,NA,NA,NA,NA,NA,NA,NA,NA,NA,NA,NA
a1494,shallow,flow.Sequence,2_0_0,NA,NA,completion,11015.298,244627,244626.061,244642.714,255658.012,255658.80000019,2023-04-23T13:35:26Z,255674.602,Auftrag,uagizaji,s,ghanima,kuzingatia,msukani,NA,NA,NA,"c(""distractor1"", ""distractor2"", ""distractor3"")",NA,NA,NA,NA,NA,NA,NA,NA,NA,NA,NA,NA,NA,NA,NA,NA,NA,NA,NA
a1494,task,flow.Sequence,2_0,NA,NA,completion,11015.298,244626.89999961999,244626.061,244642.714,255658.012,255659,2023-04-23T13:35:26Z,255674.602,Auftrag,uagizaji,s,ghanima,kuzingatia,msukani,NA,NA,NA,"c(""distractor1"", ""distractor2"", ""distractor3"")",NA,NA,NA,NA,NA,NA,NA,NA,NA,NA,NA,NA,NA,NA,NA,NA,NA,NA,NA
a1494,Shallow Question,html.Page,2_1_0_0,NA,NA,form submission,4637.898,255659.19999981,255658.012,255674.602,260312.5,260312.69999981,2023-04-23T13:35:30Z,260324.047,Widerstand,usulubu,d,kusababisha,mwalimu,mwenendo,usulubu,NA,NA,"c(""distractor1"", ""distractor2"", ""distractor3"")",NA,NA,NA,NA,NA,NA,NA,NA,NA,NA,NA,NA,NA,NA,NA,NA,NA,NA,NA
a1494,Save data screen,canvas.Screen,2_1_0_1,NA,NA,timeout,500.09,260314.80000019,260307.716,260324.047,260807.343,260807.89999961999,2023-04-23T13:35:31Z,260824.137,Widerstand,usulubu,d,kusababisha,mwalimu,mwenendo,NA,NA,1,"c(""distractor1"", ""distractor2"", ""distractor3"")",NA,NA,NA,NA,NA,NA,NA,NA,NA,NA,NA,NA,NA,NA,NA,NA,NA,NA,NA
a1494,shallow,flow.Sequence,2_1_0,NA,NA,completion,5132.741,255659.19999981,255658.012,255674.602,260807.343,260808,2023-04-23T13:35:31Z,260824.137,Widerstand,usulubu,d,kusababisha,mwalimu,mwenendo,NA,NA,NA,"c(""distractor1"", ""distractor2"", ""distractor3"")",NA,NA,NA,NA,NA,NA,NA,NA,NA,NA,NA,NA,NA,NA,NA,NA,NA,NA,NA
a1494,task,flow.Sequence,2_1,NA,NA,completion,5132.741,255659.09999943,255658.012,255674.602,260807.343,260808.19999981,2023-04-23T13:35:31Z,260824.137,Widerstand,usulubu,d,kusababisha,mwalimu,mwenendo,NA,NA,NA,"c(""distractor1"", ""distractor2"", ""distractor3"")",NA,NA,NA,NA,NA,NA,NA,NA,NA,NA,NA,NA,NA,NA,NA,NA,NA,NA,NA
a1494,Shallow Question,html.Page,2_2_0_0,NA,NA,form submission,2314.4629994278,260808.30000019,260807.343,260824.137,263138.59999943,263138.80000019,2023-04-23T13:35:33Z,263140.307,Schönheit,kirembo,d,mahojiano,msisimko,jitihadi,kirembo,NA,NA,"c(""distractor1"", ""distractor2"", ""distractor3"")",NA,NA,NA,NA,NA,NA,NA,NA,NA,NA,NA,NA,NA,NA,NA,NA,NA,NA,NA
a1494,Save data screen,canvas.Screen,2_2_0_1,NA,NA,timeout,499.98500000004,263139.30000019,263123.804,263140.307,263623.652,263624.19999981,2023-04-23T13:35:34Z,263640.292,Schönheit,kirembo,d,mahojiano,msisimko,jitihadi,NA,NA,1,"c(""distractor1"", ""distractor2"", ""distractor3"")",NA,NA,NA,NA,NA,NA,NA,NA,NA,NA,NA,NA,NA,NA,NA,NA,NA,NA,NA
a1494,shallow,flow.Sequence,2_2_0,NA,NA,completion,2799.515,260808.30000019,260807.343,260824.137,263623.652,263624.39999962,2023-04-23T13:35:34Z,263640.292,Schönheit,kirembo,d,mahojiano,msisimko,jitihadi,NA,NA,NA,"c(""distractor1"", ""distractor2"", ""distractor3"")",NA,NA,NA,NA,NA,NA,NA,NA,NA,NA,NA,NA,NA,NA,NA,NA,NA,NA,NA
a1494,task,flow.Sequence,2_2,NA,NA,completion,2799.515,260808.30000019,260807.343,260824.137,263623.652,263624.59999943,2023-04-23T13:35:34Z,263640.292,Schönheit,kirembo,d,mahojiano,msisimko,jitihadi,NA,NA,NA,"c(""distractor1"", ""distractor2"", ""distractor3"")",NA,NA,NA,NA,NA,NA,NA,NA,NA,NA,NA,NA,NA,NA,NA,NA,NA,NA,NA
a1494,Shallow Question,html.Page,2_3_0_0,NA,NA,form submission,5145.0080001907,263624.59999943,263623.652,263640.292,268785.30000019,268785.5,2023-04-23T13:35:39Z,268789.598,Polizist,msongora,s,simanzi,mandhari,nidhamu,msongora,NA,NA,"c(""distractor1"", ""distractor2"", ""distractor3"")",NA,NA,NA,NA,NA,NA,NA,NA,NA,NA,NA,NA,NA,NA,NA,NA,NA,NA,NA
a1494,Save data screen,canvas.Screen,2_3_0_1,NA,NA,timeout,499.95799999998,268787.5,268771.668,268789.598,269272.926,269273.5,2023-04-23T13:35:39Z,269289.556,Polizist,msongora,s,simanzi,mandhari,nidhamu,NA,NA,1,"c(""distractor1"", ""distractor2"", ""distractor3"")",NA,NA,NA,NA,NA,NA,NA,NA,NA,NA,NA,NA,NA,NA,NA,NA,NA,NA,NA
a1494,shallow,flow.Sequence,2_3_0,NA,NA,completion,5632.634,263624.59999943,263623.652,263640.292,269272.926,269273.80000019,2023-04-23T13:35:39Z,269289.556,Polizist,msongora,s,simanzi,mandhari,nidhamu,NA,NA,NA,"c(""distractor1"", ""distractor2"", ""distractor3"")",NA,NA,NA,NA,NA,NA,NA,NA,NA,NA,NA,NA,NA,NA,NA,NA,NA,NA,NA
a1494,task,flow.Sequence,2_3,NA,NA,completion,5632.634,263624.59999943,263623.652,263640.292,269272.926,269273.89999962,2023-04-23T13:35:39Z,269289.556,Polizist,msongora,s,simanzi,mandhari,nidhamu,NA,NA,NA,"c(""distractor1"", ""distractor2"", ""distractor3"")",NA,NA,NA,NA,NA,NA,NA,NA,NA,NA,NA,NA,NA,NA,NA,NA,NA,NA,NA
a1494,Shallow Question,html.Page,2_4_0_0,NA,NA,form submission,5240.5439994278,269273.89999962,269272.926,269289.556,274530.09999943,274530.39999962,2023-04-23T13:35:45Z,274538.895,Beweis,ushahidi,s,marudio,kizuizi,mtendaji,ushahidi,NA,NA,"c(""distractor1"", ""distractor2"", ""distractor3"")",NA,NA,NA,NA,NA,NA,NA,NA,NA,NA,NA,NA,NA,NA,NA,NA,NA,NA,NA
a1494,Save data screen,canvas.Screen,2_4_0_1,NA,NA,timeout,499.92699999997,274532.5,274521.971,274538.895,275022.149,275022.5,2023-04-23T13:35:45Z,275038.822,Beweis,ushahidi,s,marudio,kizuizi,mtendaji,NA,NA,1,"c(""distractor1"", ""distractor2"", ""distractor3"")",NA,NA,NA,NA,NA,NA,NA,NA,NA,NA,NA,NA,NA,NA,NA,NA,NA,NA,NA
a1494,shallow,flow.Sequence,2_4_0,NA,NA,completion,5732.593,269273.89999962,269272.926,269289.556,275022.149,275022.80000019,2023-04-23T13:35:45Z,275038.822,Beweis,ushahidi,s,marudio,kizuizi,mtendaji,NA,NA,NA,"c(""distractor1"", ""distractor2"", ""distractor3"")",NA,NA,NA,NA,NA,NA,NA,NA,NA,NA,NA,NA,NA,NA,NA,NA,NA,NA,NA
a1494,task,flow.Sequence,2_4,NA,NA,completion,5732.593,269273.89999962,269272.926,269289.556,275022.149,275022.80000019,2023-04-23T13:35:45Z,275038.822,Beweis,ushahidi,s,marudio,kizuizi,mtendaji,NA,NA,NA,"c(""distractor1"", ""distractor2"", ""distractor3"")",NA,NA,NA,NA,NA,NA,NA,NA,NA,NA,NA,NA,NA,NA,NA,NA,NA,NA,NA
a1494,Shallow Question,html.Page,2_5_0_0,NA,NA,form submission,5369.2779994278,275023,275022.149,275038.822,280408.09999943,280408.30000019,2023-04-23T13:35:50Z,280421.619,Zuwachs,nyongeza,d,matilaba,udhibiti,hudhurio,nyongeza,NA,NA,"c(""distractor1"", ""distractor2"", ""distractor3"")",NA,NA,NA,NA,NA,NA,NA,NA,NA,NA,NA,NA,NA,NA,NA,NA,NA,NA,NA
a1494,Save data screen,canvas.Screen,2_5_0_1,NA,NA,timeout,499.804,280410.39999962,280404.882,280421.619,280904.738,280905.19999981,2023-04-23T13:35:51Z,280921.423,Zuwachs,nyongeza,d,matilaba,udhibiti,hudhurio,NA,NA,1,"c(""distractor1"", ""distractor2"", ""distractor3"")",NA,NA,NA,NA,NA,NA,NA,NA,NA,NA,NA,NA,NA,NA,NA,NA,NA,NA,NA
a1494,shallow,flow.Sequence,2_5_0,NA,NA,completion,5865.916,275023,275022.149,275038.822,280904.738,280905.39999962,2023-04-23T13:35:51Z,280921.423,Zuwachs,nyongeza,d,matilaba,udhibiti,hudhurio,NA,NA,NA,"c(""distractor1"", ""distractor2"", ""distractor3"")",NA,NA,NA,NA,NA,NA,NA,NA,NA,NA,NA,NA,NA,NA,NA,NA,NA,NA,NA
a1494,task,flow.Sequence,2_5,NA,NA,completion,5865.916,275023,275022.149,275038.822,280904.738,280905.5,2023-04-23T13:35:51Z,280921.423,Zuwachs,nyongeza,d,matilaba,udhibiti,hudhurio,NA,NA,NA,"c(""distractor1"", ""distractor2"", ""distractor3"")",NA,NA,NA,NA,NA,NA,NA,NA,NA,NA,NA,NA,NA,NA,NA,NA,NA,NA,NA
a1494,Shallow Question,html.Page,2_6_0_0,NA,NA,form submission,4129.8770001907,280905.5,280904.738,280921.423,285051.30000019,285051.5,2023-04-23T13:35:55Z,285054.156,Ausschluss,kutengwa,s,ununuzi,taratibu,madeni,kutengwa,NA,NA,"c(""distractor1"", ""distractor2"", ""distractor3"")",NA,NA,NA,NA,NA,NA,NA,NA,NA,NA,NA,NA,NA,NA,NA,NA,NA,NA,NA
a1494,Save data screen,canvas.Screen,2_6_0_1,NA,NA,timeout,499.95199999999,285053.59999943,285037.67,285054.156,285537.501,285538.19999981,2023-04-23T13:35:56Z,285554.108,Ausschluss,kutengwa,s,ununuzi,taratibu,madeni,NA,NA,1,"c(""distractor1"", ""distractor2"", ""distractor3"")",NA,NA,NA,NA,NA,NA,NA,NA,NA,NA,NA,NA,NA,NA,NA,NA,NA,NA,NA
a1494,shallow,flow.Sequence,2_6_0,NA,NA,completion,4616.078,280905.5,280904.738,280921.423,285537.501,285538.39999962,2023-04-23T13:35:56Z,285554.108,Ausschluss,kutengwa,s,ununuzi,taratibu,madeni,NA,NA,NA,"c(""distractor1"", ""distractor2"", ""distractor3"")",NA,NA,NA,NA,NA,NA,NA,NA,NA,NA,NA,NA,NA,NA,NA,NA,NA,NA,NA
a1494,task,flow.Sequence,2_6,NA,NA,completion,4616.078,280905.5,280904.738,280921.423,285537.501,285538.59999943,2023-04-23T13:35:56Z,285554.108,Ausschluss,kutengwa,s,ununuzi,taratibu,madeni,NA,NA,NA,"c(""distractor1"", ""distractor2"", ""distractor3"")",NA,NA,NA,NA,NA,NA,NA,NA,NA,NA,NA,NA,NA,NA,NA,NA,NA,NA,NA
a1494,Shallow Question,html.Page,2_7_0_0,NA,NA,form submission,4250.4919994278,285538.69999981,285537.501,285554.108,289804.59999943,289805,2023-04-23T13:36:00Z,289820.208,Zufall,kikuti,d,kukosekana,uchoraji,leseni,kikuti,NA,NA,"c(""distractor1"", ""distractor2"", ""distractor3"")",NA,NA,NA,NA,NA,NA,NA,NA,NA,NA,NA,NA,NA,NA,NA,NA,NA,NA,NA
a1494,Save data screen,canvas.Screen,2_7_0_1,NA,NA,timeout,499.946,289808,289803.856,289820.208,290303.497,290304,2023-04-23T13:36:00Z,290320.154,Zufall,kikuti,d,kukosekana,uchoraji,leseni,NA,NA,1,"c(""distractor1"", ""distractor2"", ""distractor3"")",NA,NA,NA,NA,NA,NA,NA,NA,NA,NA,NA,NA,NA,NA,NA,NA,NA,NA,NA
a1494,shallow,flow.Sequence,2_7_0,NA,NA,completion,4749.389,285538.69999981,285537.501,285554.108,290303.497,290304.30000019,2023-04-23T13:36:00Z,290320.154,Zufall,kikuti,d,kukosekana,uchoraji,leseni,NA,NA,NA,"c(""distractor1"", ""distractor2"", ""distractor3"")",NA,NA,NA,NA,NA,NA,NA,NA,NA,NA,NA,NA,NA,NA,NA,NA,NA,NA,NA
a1494,task,flow.Sequence,2_7,NA,NA,completion,4749.389,285538.59999943,285537.501,285554.108,290303.497,290304.5,2023-04-23T13:36:00Z,290320.154,Zufall,kikuti,d,kukosekana,uchoraji,leseni,NA,NA,NA,"c(""distractor1"", ""distractor2"", ""distractor3"")",NA,NA,NA,NA,NA,NA,NA,NA,NA,NA,NA,NA,NA,NA,NA,NA,NA,NA,NA
a1494,Shallow Question,html.Page,2_8_0_0,NA,NA,form submission,3842.7459996185,290304.69999981,290303.497,290320.154,294162.89999962,294163.30000019,2023-04-23T13:36:04Z,294169.646,Symbol,kielezo,d,kinyume,nderemo,utayari,kielezo,NA,NA,"c(""distractor1"", ""distractor2"", ""distractor3"")",NA,NA,NA,NA,NA,NA,NA,NA,NA,NA,NA,NA,NA,NA,NA,NA,NA,NA,NA
a1494,Save data screen,canvas.Screen,2_8_0_1,NA,NA,timeout,499.97599999997,294166,294153.012,294169.646,294652.936,294653.39999962,2023-04-23T13:36:05Z,294669.622,Symbol,kielezo,d,kinyume,nderemo,utayari,NA,NA,1,"c(""distractor1"", ""distractor2"", ""distractor3"")",NA,NA,NA,NA,NA,NA,NA,NA,NA,NA,NA,NA,NA,NA,NA,NA,NA,NA,NA
a1494,shallow,flow.Sequence,2_8_0,NA,NA,completion,4332.782,290304.69999981,290303.497,290320.154,294652.936,294653.80000019,2023-04-23T13:36:05Z,294669.622,Symbol,kielezo,d,kinyume,nderemo,utayari,NA,NA,NA,"c(""distractor1"", ""distractor2"", ""distractor3"")",NA,NA,NA,NA,NA,NA,NA,NA,NA,NA,NA,NA,NA,NA,NA,NA,NA,NA,NA
a1494,task,flow.Sequence,2_8,NA,NA,completion,4332.782,290304.59999943,290303.497,290320.154,294652.936,294653.89999962,2023-04-23T13:36:05Z,294669.622,Symbol,kielezo,d,kinyume,nderemo,utayari,NA,NA,NA,"c(""distractor1"", ""distractor2"", ""distractor3"")",NA,NA,NA,NA,NA,NA,NA,NA,NA,NA,NA,NA,NA,NA,NA,NA,NA,NA,NA
a1494,Shallow Question,html.Page,2_9_0_0,NA,NA,form submission,5757.378,294654.09999943,294652.936,294669.622,300427,300427.30000019,2023-04-23T13:36:10Z,300435.543,Vorsorge,tahadhari,s,ufafanuzi,makini,mashambani,tahadhari,NA,NA,"c(""distractor1"", ""distractor2"", ""distractor3"")",NA,NA,NA,NA,NA,NA,NA,NA,NA,NA,NA,NA,NA,NA,NA,NA,NA,NA,NA
a1494,Save data screen,canvas.Screen,2_9_0_1,NA,NA,timeout,499.91899999999,300429.30000019,300419.134,300435.543,300918.846,300919.5,2023-04-23T13:36:11Z,300935.462,Vorsorge,tahadhari,s,ufafanuzi,makini,mashambani,NA,NA,1,"c(""distractor1"", ""distractor2"", ""distractor3"")",NA,NA,NA,NA,NA,NA,NA,NA,NA,NA,NA,NA,NA,NA,NA,NA,NA,NA,NA
a1494,shallow,flow.Sequence,2_9_0,NA,NA,completion,6249.224,294654,294652.936,294669.622,300918.846,300919.59999943,2023-04-23T13:36:11Z,300935.462,Vorsorge,tahadhari,s,ufafanuzi,makini,mashambani,NA,NA,NA,"c(""distractor1"", ""distractor2"", ""distractor3"")",NA,NA,NA,NA,NA,NA,NA,NA,NA,NA,NA,NA,NA,NA,NA,NA,NA,NA,NA
a1494,task,flow.Sequence,2_9,NA,NA,completion,6249.224,294654,294652.936,294669.622,300918.846,300919.69999981,2023-04-23T13:36:11Z,300935.462,Vorsorge,tahadhari,s,ufafanuzi,makini,mashambani,NA,NA,NA,"c(""distractor1"", ""distractor2"", ""distractor3"")",NA,NA,NA,NA,NA,NA,NA,NA,NA,NA,NA,NA,NA,NA,NA,NA,NA,NA,NA
a1494,Shallow Question,html.Page,2_10_0_0,NA,NA,form submission,5192.8380001907,300919.80000019,300918.846,300935.462,306128.30000019,306128.5,2023-04-23T13:36:16Z,306134.836,Annäherung,maegesho,d,madahili,kujiamini,mapendekezo,maegesho,NA,NA,"c(""distractor1"", ""distractor2"", ""distractor3"")",NA,NA,NA,NA,NA,NA,NA,NA,NA,NA,NA,NA,NA,NA,NA,NA,NA,NA,NA
a1494,Save data screen,canvas.Screen,2_10_0_1,NA,NA,timeout,499.95299999998,306130.69999981,306118.3,306134.836,306618.146,306618.80000019,2023-04-23T13:36:17Z,306634.789,Annäherung,maegesho,d,madahili,kujiamini,mapendekezo,NA,NA,1,"c(""distractor1"", ""distractor2"", ""distractor3"")",NA,NA,NA,NA,NA,NA,NA,NA,NA,NA,NA,NA,NA,NA,NA,NA,NA,NA,NA
a1494,shallow,flow.Sequence,2_10_0,NA,NA,completion,5682.684,300919.80000019,300918.846,300935.462,306618.146,306619.09999943,2023-04-23T13:36:17Z,306634.789,Annäherung,maegesho,d,madahili,kujiamini,mapendekezo,NA,NA,NA,"c(""distractor1"", ""distractor2"", ""distractor3"")",NA,NA,NA,NA,NA,NA,NA,NA,NA,NA,NA,NA,NA,NA,NA,NA,NA,NA,NA
a1494,task,flow.Sequence,2_10,NA,NA,completion,5682.684,300919.80000019,300918.846,300935.462,306618.146,306619.19999981,2023-04-23T13:36:17Z,306634.789,Annäherung,maegesho,d,madahili,kujiamini,mapendekezo,NA,NA,NA,"c(""distractor1"", ""distractor2"", ""distractor3"")",NA,NA,NA,NA,NA,NA,NA,NA,NA,NA,NA,NA,NA,NA,NA,NA,NA,NA,NA
a1494,Shallow Question,html.Page,2_11_0_0,NA,NA,form submission,4257.5110001907,306619.39999962,306618.146,306634.789,310892.30000019,310892.5,2023-04-23T13:36:21Z,310900.917,Sympathie,mapendano,d,dhamiria,fungamano,maazimio,mapendano,NA,NA,"c(""distractor1"", ""distractor2"", ""distractor3"")",NA,NA,NA,NA,NA,NA,NA,NA,NA,NA,NA,NA,NA,NA,NA,NA,NA,NA,NA
a1494,Save data screen,canvas.Screen,2_11_0_1,NA,NA,timeout,499.91899999999,310895.39999962,310884.176,310900.917,311384.221,311385.09999943,2023-04-23T13:36:21Z,311400.836,Sympathie,mapendano,d,dhamiria,fungamano,maazimio,NA,NA,1,"c(""distractor1"", ""distractor2"", ""distractor3"")",NA,NA,NA,NA,NA,NA,NA,NA,NA,NA,NA,NA,NA,NA,NA,NA,NA,NA,NA
a1494,shallow,flow.Sequence,2_11_0,NA,NA,completion,4749.432,306619.39999962,306618.146,306634.789,311384.221,311385.39999962,2023-04-23T13:36:21Z,311400.836,Sympathie,mapendano,d,dhamiria,fungamano,maazimio,NA,NA,NA,"c(""distractor1"", ""distractor2"", ""distractor3"")",NA,NA,NA,NA,NA,NA,NA,NA,NA,NA,NA,NA,NA,NA,NA,NA,NA,NA,NA
a1494,task,flow.Sequence,2_11,NA,NA,completion,4749.432,306619.30000019,306618.146,306634.789,311384.221,311385.69999981,2023-04-23T13:36:21Z,311400.836,Sympathie,mapendano,d,dhamiria,fungamano,maazimio,NA,NA,NA,"c(""distractor1"", ""distractor2"", ""distractor3"")",NA,NA,NA,NA,NA,NA,NA,NA,NA,NA,NA,NA,NA,NA,NA,NA,NA,NA,NA
a1494,Shallow Question,html.Page,2_12_0_0,NA,NA,form submission,3347.164,311385.89999962,311384.221,311400.836,314748,314748.30000019,2023-04-23T13:36:25Z,314750.36,Gelegenheit,wakati,s,mchanganyiko,kipaumbele,kushuku,wakati,NA,NA,"c(""distractor1"", ""distractor2"", ""distractor3"")",NA,NA,NA,NA,NA,NA,NA,NA,NA,NA,NA,NA,NA,NA,NA,NA,NA,NA,NA
a1494,Save data screen,canvas.Screen,2_12_0_1,NA,NA,timeout,499.91200000001,314751.09999943,314733.689,314750.36,315233.616,315234,2023-04-23T13:36:25Z,315250.272,Gelegenheit,wakati,s,mchanganyiko,kipaumbele,kushuku,NA,NA,1,"c(""distractor1"", ""distractor2"", ""distractor3"")",NA,NA,NA,NA,NA,NA,NA,NA,NA,NA,NA,NA,NA,NA,NA,NA,NA,NA,NA
a1494,shallow,flow.Sequence,2_12_0,NA,NA,completion,3832.78,311385.80000019,311384.221,311400.836,315233.616,315234.19999981,2023-04-23T13:36:25Z,315250.272,Gelegenheit,wakati,s,mchanganyiko,kipaumbele,kushuku,NA,NA,NA,"c(""distractor1"", ""distractor2"", ""distractor3"")",NA,NA,NA,NA,NA,NA,NA,NA,NA,NA,NA,NA,NA,NA,NA,NA,NA,NA,NA
a1494,task,flow.Sequence,2_12,NA,NA,completion,3832.78,311385.80000019,311384.221,311400.836,315233.616,315234.39999962,2023-04-23T13:36:25Z,315250.272,Gelegenheit,wakati,s,mchanganyiko,kipaumbele,kushuku,NA,NA,NA,"c(""distractor1"", ""distractor2"", ""distractor3"")",NA,NA,NA,NA,NA,NA,NA,NA,NA,NA,NA,NA,NA,NA,NA,NA,NA,NA,NA
a1494,Shallow Question,html.Page,2_13_0_0,NA,NA,form submission,5445.3279994278,315234.59999943,315233.616,315250.272,320695.59999943,320695.89999962,2023-04-23T13:36:31Z,320699.606,Verstand,ufahamivu,d,shakawa,hadhari,mhandisi,ufahamivu,NA,NA,"c(""distractor1"", ""distractor2"", ""distractor3"")",NA,NA,NA,NA,NA,NA,NA,NA,NA,NA,NA,NA,NA,NA,NA,NA,NA,NA,NA
a1494,Save data screen,canvas.Screen,2_13_0_1,NA,NA,timeout,499.92999999999,320698.69999981,320682.9,320699.606,321182.881,321183.39999962,2023-04-23T13:36:31Z,321199.536,Verstand,ufahamivu,d,shakawa,hadhari,mhandisi,NA,NA,1,"c(""distractor1"", ""distractor2"", ""distractor3"")",NA,NA,NA,NA,NA,NA,NA,NA,NA,NA,NA,NA,NA,NA,NA,NA,NA,NA,NA
a1494,shallow,flow.Sequence,2_13_0,NA,NA,completion,5932.609,315234.59999943,315233.616,315250.272,321182.881,321183.69999981,2023-04-23T13:36:31Z,321199.536,Verstand,ufahamivu,d,shakawa,hadhari,mhandisi,NA,NA,NA,"c(""distractor1"", ""distractor2"", ""distractor3"")",NA,NA,NA,NA,NA,NA,NA,NA,NA,NA,NA,NA,NA,NA,NA,NA,NA,NA,NA
a1494,task,flow.Sequence,2_13,NA,NA,completion,5932.609,315234.5,315233.616,315250.272,321182.881,321183.89999962,2023-04-23T13:36:31Z,321199.536,Verstand,ufahamivu,d,shakawa,hadhari,mhandisi,NA,NA,NA,"c(""distractor1"", ""distractor2"", ""distractor3"")",NA,NA,NA,NA,NA,NA,NA,NA,NA,NA,NA,NA,NA,NA,NA,NA,NA,NA,NA
a1494,Shallow Question,html.Page,2_14_0_0,NA,NA,form submission,3203.964,321184.09999943,321182.881,321199.536,324403.5,324403.80000019,2023-04-23T13:36:34Z,324415.771,Wettbewerb,ushindani,s,mapendezi,kichocheo,ubaguzi,mapendezi,NA,NA,"c(""distractor1"", ""distractor2"", ""distractor3"")",NA,NA,NA,NA,NA,NA,NA,NA,NA,NA,NA,NA,NA,NA,NA,NA,NA,NA,NA
a1494,Save data screen,canvas.Screen,2_14_0_1,NA,NA,timeout,499.967,324406,324399.289,324415.771,324899.098,324899.59999943,2023-04-23T13:36:35Z,324915.738,Wettbewerb,ushindani,s,mapendezi,kichocheo,ubaguzi,NA,NA,0,"c(""distractor1"", ""distractor2"", ""distractor3"")",NA,NA,NA,NA,NA,NA,NA,NA,NA,NA,NA,NA,NA,NA,NA,NA,NA,NA,NA
a1494,shallow,flow.Sequence,2_14_0,NA,NA,completion,3699.562,321184,321182.881,321199.536,324899.098,324899.69999981,2023-04-23T13:36:35Z,324915.738,Wettbewerb,ushindani,s,mapendezi,kichocheo,ubaguzi,NA,NA,NA,"c(""distractor1"", ""distractor2"", ""distractor3"")",NA,NA,NA,NA,NA,NA,NA,NA,NA,NA,NA,NA,NA,NA,NA,NA,NA,NA,NA
a1494,task,flow.Sequence,2_14,NA,NA,completion,3699.562,321184,321182.881,321199.536,324899.098,324899.80000019,2023-04-23T13:36:35Z,324915.738,Wettbewerb,ushindani,s,mapendezi,kichocheo,ubaguzi,NA,NA,NA,"c(""distractor1"", ""distractor2"", ""distractor3"")",NA,NA,NA,NA,NA,NA,NA,NA,NA,NA,NA,NA,NA,NA,NA,NA,NA,NA,NA
a1494,Shallow Question,html.Page,2_15_0_0,NA,NA,form submission,4757.9619998093,324900,324899.098,324915.738,329673.69999981,329673.80000019,2023-04-23T13:36:40Z,329681.971,Konkurrent,mshindani,s,msemaji,mvutaji,kipukusa,mshindani,NA,NA,"c(""distractor1"", ""distractor2"", ""distractor3"")",NA,NA,NA,NA,NA,NA,NA,NA,NA,NA,NA,NA,NA,NA,NA,NA,NA,NA,NA
a1494,Save data screen,canvas.Screen,2_15_0_1,NA,NA,timeout,499.76000000001,329675.80000019,329665.175,329681.971,330165.078,330165.5,2023-04-23T13:36:40Z,330181.731,Konkurrent,mshindani,s,msemaji,mvutaji,kipukusa,NA,NA,1,"c(""distractor1"", ""distractor2"", ""distractor3"")",NA,NA,NA,NA,NA,NA,NA,NA,NA,NA,NA,NA,NA,NA,NA,NA,NA,NA,NA
a1494,shallow,flow.Sequence,2_15_0,NA,NA,completion,5249.34,324900,324899.098,324915.738,330165.078,330165.80000019,2023-04-23T13:36:40Z,330181.731,Konkurrent,mshindani,s,msemaji,mvutaji,kipukusa,NA,NA,NA,"c(""distractor1"", ""distractor2"", ""distractor3"")",NA,NA,NA,NA,NA,NA,NA,NA,NA,NA,NA,NA,NA,NA,NA,NA,NA,NA,NA
a1494,task,flow.Sequence,2_15,NA,NA,completion,5249.34,324899.89999962,324899.098,324915.738,330165.078,330165.89999962,2023-04-23T13:36:40Z,330181.731,Konkurrent,mshindani,s,msemaji,mvutaji,kipukusa,NA,NA,NA,"c(""distractor1"", ""distractor2"", ""distractor3"")",NA,NA,NA,NA,NA,NA,NA,NA,NA,NA,NA,NA,NA,NA,NA,NA,NA,NA,NA
a1494,retrieval block 2 (multiple choice),flow.Loop,2,NA,NA,completion,85522.364,244626.89999961999,244626.061,244642.714,330165.078,330166,2023-04-23T13:36:40Z,330181.731,NA,NA,NA,NA,NA,NA,NA,NA,NA,"c(""distractor1"", ""distractor2"", ""distractor3"")",NA,NA,NA,NA,NA,NA,NA,NA,NA,NA,NA,NA,NA,NA,NA,NA,NA,NA,NA
a1494,End,canvas.Screen,3,NA,keypress(Space),response,2788.9689998092,330166,330165.078,330181.731,332970.69999981,332971.5,2023-04-23T13:36:43Z,332981.324,NA,NA,NA,NA,NA,NA,NA,NA,NA,NULL,NA,NA,NA,NA,NA,NA,NA,NA,NA,NA,NA,NA,NA,NA,NA,NA,NA,NA,NA
a1494,root,flow.Sequence,NA,NA,NA,completion,330696.74999981,2187.8999996185,974.048,2273.95,332970.69999981,332971.80000019,2023-04-23T13:36:43Z,332981.324,NA,NA,NA,NA,NA,NA,NA,NA,NA,NULL,NA,NA,NA,NA,NA,NA,NA,NA,NA,NA,NA,NA,NA,NA,NA,NA,NA,NA,NA
