observation,sender,sender_type,sender_id,response,response_action,ended_on,duration,time_run,time_render,time_show,time_end,time_commit,timestamp,time_switch,distractors,german,swahili,enc,distractor1,distractor2,distractor3,response_2,x,correct,x_2,url_vp,url_sess,meta_labjs_version,meta_location,meta_user_agent,meta_platform,meta_language,meta_locale,meta_time_zone,meta_timezone_offset,meta_screen_width,meta_screen_height,meta_scroll_width,meta_scroll_height,meta_window_inner_width,meta_window_inner_height,meta_device_pixel_ratio,meta_labjs_build_flavor,meta_labjs_build_commit
a527d,Introduction general,canvas.Screen,0,weiter,keypress(q),response,63136.44,361,371.72,392.56,63529,63554,2023-10-19T09:34:08Z,63559.48,NULL,NA,NA,NA,NA,NA,NA,NA,NA,NA,NA,189,1,20.2.4,https://neurocog.fernuni.ch/studies/vweber/sliechti/encoding_immediate/index.html?vp=189&sess=1,Mozilla/5.0 (Windows NT 10.0; Win64; x64; rv:109.0) Gecko/20100101 Firefox/118.0,Win32,de,de-CH,Europe/Zurich,-120,1280,720,1280,587,1280,587,1.5,production,f5b4a49f956347addd546a832a3327688c2c0fef
a527d,Introduction practice,canvas.Screen,1_0,NA,keypress(Space),response,7579.52,63556,63556.08,63559.48,71139,71150,2023-10-19T09:34:15Z,71163.68,NULL,NA,NA,NA,NA,NA,NA,NA,NA,NA,NA,NA,NA,NA,NA,NA,NA,NA,NA,NA,NA,NA,NA,NA,NA,NA,NA,NA,NA,NA
a527d,Deep Question,html.Page,1_1_0_0_0,NA,NA,form submission,13424.32,71151,71151.1,71163.68,84588,84589,2023-10-19T09:34:29Z,84601.14,"c(""distractor1"", ""distractor2"", ""distractor3"")",Schatten,kivuli,d,NA,NA,NA,L,NA,NA,NA,NA,NA,NA,NA,NA,NA,NA,NA,NA,NA,NA,NA,NA,NA,NA,NA,NA,NA,NA
a527d,"""Richtig""-Screen",canvas.Screen,1_1_0_0_1,NA,NA,skipped,NA,84600,NA,NA,84588,84600,2023-10-19T09:34:29Z,84601.14,"c(""distractor1"", ""distractor2"", ""distractor3"")",Schatten,kivuli,d,NA,NA,NA,NA,NA,NA,NA,NA,NA,NA,NA,NA,NA,NA,NA,NA,NA,NA,NA,NA,NA,NA,NA,NA,NA,NA
a527d,"""Falsch""-Screen",canvas.Screen,1_1_0_0_2,NA,NA,timeout,5000.06,84602,84583.72,84601.14,89580.36,89583,2023-10-19T09:34:34Z,89601.2,"c(""distractor1"", ""distractor2"", ""distractor3"")",Schatten,kivuli,d,NA,NA,NA,NA,NA,0,NA,NA,NA,NA,NA,NA,NA,NA,NA,NA,NA,NA,NA,NA,NA,NA,NA,NA,NA,NA
a527d,deep,flow.Sequence,1_1_0_0,NA,NA,completion,18416.68,71151,71151.1,71163.68,89580.36,89584,2023-10-19T09:34:34Z,89601.2,"c(""distractor1"", ""distractor2"", ""distractor3"")",Schatten,kivuli,d,NA,NA,NA,NA,NA,NA,NA,NA,NA,NA,NA,NA,NA,NA,NA,NA,NA,NA,NA,NA,NA,NA,NA,NA,NA,NA
a527d,shallow,flow.Sequence,1_1_0_1,NA,NA,skipped,NA,89584,NA,NA,89580.36,89585,2023-10-19T09:34:34Z,89601.2,"c(""distractor1"", ""distractor2"", ""distractor3"")",Schatten,kivuli,d,NA,NA,NA,NA,NA,NA,NA,NA,NA,NA,NA,NA,NA,NA,NA,NA,NA,NA,NA,NA,NA,NA,NA,NA,NA,NA
a527d,task,flow.Sequence,1_1_0,NA,NA,completion,18416.68,71151,71151.1,71163.68,89580.36,89585,2023-10-19T09:34:34Z,89601.2,"c(""distractor1"", ""distractor2"", ""distractor3"")",Schatten,kivuli,d,NA,NA,NA,NA,NA,NA,NA,NA,NA,NA,NA,NA,NA,NA,NA,NA,NA,NA,NA,NA,NA,NA,NA,NA,NA,NA
a527d,Deep Question,html.Page,1_1_1_0_0,NA,NA,form submission,5450.8,89586,89580.36,89601.2,95052,95052,2023-10-19T09:34:39Z,95059.46,"c(""distractor1"", ""distractor2"", ""distractor3"")",Qualität,mtindo,d,NA,NA,NA,t,NA,NA,NA,NA,NA,NA,NA,NA,NA,NA,NA,NA,NA,NA,NA,NA,NA,NA,NA,NA,NA,NA
a527d,"""Richtig""-Screen",canvas.Screen,1_1_1_0_1,NA,NA,skipped,NA,95054,NA,NA,95052,95054,2023-10-19T09:34:39Z,95059.46,"c(""distractor1"", ""distractor2"", ""distractor3"")",Qualität,mtindo,d,NA,NA,NA,NA,NA,NA,NA,NA,NA,NA,NA,NA,NA,NA,NA,NA,NA,NA,NA,NA,NA,NA,NA,NA,NA,NA
a527d,"""Falsch""-Screen",canvas.Screen,1_1_1_0_2,NA,NA,timeout,5000.02,95056,95050.74,95059.46,100038.66,100039,2023-10-19T09:34:44Z,100059.48,"c(""distractor1"", ""distractor2"", ""distractor3"")",Qualität,mtindo,d,NA,NA,NA,NA,NA,0,NA,NA,NA,NA,NA,NA,NA,NA,NA,NA,NA,NA,NA,NA,NA,NA,NA,NA,NA,NA
a527d,deep,flow.Sequence,1_1_1_0,NA,NA,completion,10437.46,89586,89580.36,89601.2,100038.66,100040,2023-10-19T09:34:44Z,100059.48,"c(""distractor1"", ""distractor2"", ""distractor3"")",Qualität,mtindo,d,NA,NA,NA,NA,NA,NA,NA,NA,NA,NA,NA,NA,NA,NA,NA,NA,NA,NA,NA,NA,NA,NA,NA,NA,NA,NA
a527d,shallow,flow.Sequence,1_1_1_1,NA,NA,skipped,NA,100040,NA,NA,100038.66,100040,2023-10-19T09:34:44Z,100059.48,"c(""distractor1"", ""distractor2"", ""distractor3"")",Qualität,mtindo,d,NA,NA,NA,NA,NA,NA,NA,NA,NA,NA,NA,NA,NA,NA,NA,NA,NA,NA,NA,NA,NA,NA,NA,NA,NA,NA
a527d,task,flow.Sequence,1_1_1,NA,NA,completion,10437.46,89585,89580.36,89601.2,100038.66,100040,2023-10-19T09:34:44Z,100059.48,"c(""distractor1"", ""distractor2"", ""distractor3"")",Qualität,mtindo,d,NA,NA,NA,NA,NA,NA,NA,NA,NA,NA,NA,NA,NA,NA,NA,NA,NA,NA,NA,NA,NA,NA,NA,NA,NA,NA
a527d,deep,flow.Sequence,1_1_2_0,NA,NA,skipped,NA,100040,NA,NA,100038.66,100040,2023-10-19T09:34:44Z,100059.48,"c(""distractor1"", ""distractor2"", ""distractor3"")",Rückhalt,msaada,s,muhula,auwali,kiwimbe,NA,NA,NA,NA,NA,NA,NA,NA,NA,NA,NA,NA,NA,NA,NA,NA,NA,NA,NA,NA,NA,NA,NA
a527d,Shallow Question,html.Page,1_1_2_1_0,NA,NA,form submission,5316.52,100040,100038.66,100059.48,105376,105376,2023-10-19T09:34:49Z,105392.88,"c(""distractor1"", ""distractor2"", ""distractor3"")",Rückhalt,msaada,s,muhula,auwali,kiwimbe,msaada,NA,NA,NA,NA,NA,NA,NA,NA,NA,NA,NA,NA,NA,NA,NA,NA,NA,NA,NA,NA,NA,NA
a527d,"""Richtig""-Screen",canvas.Screen,1_1_2_1_1,NA,NA,timeout,5000.06,105378,105374.62,105392.88,110372.1,110374,2023-10-19T09:34:54Z,110392.94,"c(""distractor1"", ""distractor2"", ""distractor3"")",Rückhalt,msaada,s,muhula,auwali,kiwimbe,NA,NA,1,NA,NA,NA,NA,NA,NA,NA,NA,NA,NA,NA,NA,NA,NA,NA,NA,NA,NA,NA,NA
a527d,"""Falsch""-Screen",canvas.Screen,1_1_2_1_2,NA,NA,skipped,NA,110381,NA,NA,110372.1,110381,2023-10-19T09:34:54Z,110392.94,"c(""distractor1"", ""distractor2"", ""distractor3"")",Rückhalt,msaada,s,muhula,auwali,kiwimbe,NA,NA,NA,NA,NA,NA,NA,NA,NA,NA,NA,NA,NA,NA,NA,NA,NA,NA,NA,NA,NA,NA,NA
a527d,shallow,flow.Sequence,1_1_2_1,NA,NA,completion,10312.62,100040,100038.66,100059.48,110372.1,110382,2023-10-19T09:34:54Z,110392.94,"c(""distractor1"", ""distractor2"", ""distractor3"")",Rückhalt,msaada,s,muhula,auwali,kiwimbe,NA,NA,NA,NA,NA,NA,NA,NA,NA,NA,NA,NA,NA,NA,NA,NA,NA,NA,NA,NA,NA,NA,NA
a527d,task,flow.Sequence,1_1_2,NA,NA,completion,10312.62,100040,100038.66,100059.48,110372.1,110382,2023-10-19T09:34:54Z,110392.94,"c(""distractor1"", ""distractor2"", ""distractor3"")",Rückhalt,msaada,s,muhula,auwali,kiwimbe,NA,NA,NA,NA,NA,NA,NA,NA,NA,NA,NA,NA,NA,NA,NA,NA,NA,NA,NA,NA,NA,NA,NA
a527d,Deep Question,html.Page,1_1_3_0_0,NA,NA,form submission,4249.06,110383,110372.1,110392.94,114642,114642,2023-10-19T09:34:59Z,114642.88,"c(""distractor1"", ""distractor2"", ""distractor3"")",Gesundheit,salama,d,NA,NA,NA,r,NA,NA,NA,NA,NA,NA,NA,NA,NA,NA,NA,NA,NA,NA,NA,NA,NA,NA,NA,NA,NA,NA
a527d,"""Richtig""-Screen",canvas.Screen,1_1_3_0_1,NA,NA,skipped,NA,114647,NA,NA,114642,114647,2023-10-19T09:34:59Z,114642.88,"c(""distractor1"", ""distractor2"", ""distractor3"")",Gesundheit,salama,d,NA,NA,NA,NA,NA,NA,NA,NA,NA,NA,NA,NA,NA,NA,NA,NA,NA,NA,NA,NA,NA,NA,NA,NA,NA,NA
a527d,"""Falsch""-Screen",canvas.Screen,1_1_3_0_2,NA,NA,timeout,5000,114650,114638.44,114642.88,119622.04,119622,2023-10-19T09:35:04Z,119642.88,"c(""distractor1"", ""distractor2"", ""distractor3"")",Gesundheit,salama,d,NA,NA,NA,NA,NA,0,NA,NA,NA,NA,NA,NA,NA,NA,NA,NA,NA,NA,NA,NA,NA,NA,NA,NA,NA,NA
a527d,deep,flow.Sequence,1_1_3_0,NA,NA,completion,9229.1,110383,110372.1,110392.94,119622.04,119622,2023-10-19T09:35:04Z,119642.88,"c(""distractor1"", ""distractor2"", ""distractor3"")",Gesundheit,salama,d,NA,NA,NA,NA,NA,NA,NA,NA,NA,NA,NA,NA,NA,NA,NA,NA,NA,NA,NA,NA,NA,NA,NA,NA,NA,NA
a527d,shallow,flow.Sequence,1_1_3_1,NA,NA,skipped,NA,119623,NA,NA,119622.04,119623,2023-10-19T09:35:04Z,119642.88,"c(""distractor1"", ""distractor2"", ""distractor3"")",Gesundheit,salama,d,NA,NA,NA,NA,NA,NA,NA,NA,NA,NA,NA,NA,NA,NA,NA,NA,NA,NA,NA,NA,NA,NA,NA,NA,NA,NA
a527d,task,flow.Sequence,1_1_3,NA,NA,completion,9229.1,110383,110372.1,110392.94,119622.04,119623,2023-10-19T09:35:04Z,119642.88,"c(""distractor1"", ""distractor2"", ""distractor3"")",Gesundheit,salama,d,NA,NA,NA,NA,NA,NA,NA,NA,NA,NA,NA,NA,NA,NA,NA,NA,NA,NA,NA,NA,NA,NA,NA,NA,NA,NA
a527d,deep,flow.Sequence,1_1_4_0,NA,NA,skipped,NA,119623,NA,NA,119622.04,119623,2023-10-19T09:35:04Z,119642.88,"c(""distractor1"", ""distractor2"", ""distractor3"")",Kritik,lawama,s,dereva,nafasi,mawazo,NA,NA,NA,NA,NA,NA,NA,NA,NA,NA,NA,NA,NA,NA,NA,NA,NA,NA,NA,NA,NA,NA,NA
a527d,Shallow Question,html.Page,1_1_4_1_0,NA,NA,form submission,4219.12,119623,119622.04,119642.88,123862,123863,2023-10-19T09:35:08Z,123872.06,"c(""distractor1"", ""distractor2"", ""distractor3"")",Kritik,lawama,s,dereva,nafasi,mawazo,mawazo,NA,NA,NA,NA,NA,NA,NA,NA,NA,NA,NA,NA,NA,NA,NA,NA,NA,NA,NA,NA,NA,NA
a527d,"""Richtig""-Screen",canvas.Screen,1_1_4_1_1,NA,NA,skipped,NA,123867,NA,NA,123862,123867,2023-10-19T09:35:08Z,123872.06,"c(""distractor1"", ""distractor2"", ""distractor3"")",Kritik,lawama,s,dereva,nafasi,mawazo,NA,NA,NA,NA,NA,NA,NA,NA,NA,NA,NA,NA,NA,NA,NA,NA,NA,NA,NA,NA,NA,NA,NA
a527d,"""Falsch""-Screen",canvas.Screen,1_1_4_1_2,NA,NA,timeout,5000.04,123872,123857.8,123872.06,128851.28,128853,2023-10-19T09:35:13Z,128872.1,"c(""distractor1"", ""distractor2"", ""distractor3"")",Kritik,lawama,s,dereva,nafasi,mawazo,NA,NA,0,NA,NA,NA,NA,NA,NA,NA,NA,NA,NA,NA,NA,NA,NA,NA,NA,NA,NA,NA,NA
a527d,shallow,flow.Sequence,1_1_4_1,NA,NA,completion,9208.4,119623,119622.04,119642.88,128851.28,128853,2023-10-19T09:35:13Z,128872.1,"c(""distractor1"", ""distractor2"", ""distractor3"")",Kritik,lawama,s,dereva,nafasi,mawazo,NA,NA,NA,NA,NA,NA,NA,NA,NA,NA,NA,NA,NA,NA,NA,NA,NA,NA,NA,NA,NA,NA,NA
a527d,task,flow.Sequence,1_1_4,NA,NA,completion,9208.4,119623,119622.04,119642.88,128851.28,128854,2023-10-19T09:35:13Z,128872.1,"c(""distractor1"", ""distractor2"", ""distractor3"")",Kritik,lawama,s,dereva,nafasi,mawazo,NA,NA,NA,NA,NA,NA,NA,NA,NA,NA,NA,NA,NA,NA,NA,NA,NA,NA,NA,NA,NA,NA,NA
a527d,deep,flow.Sequence,1_1_5_0,NA,NA,skipped,NA,128854,NA,NA,128851.28,128854,2023-10-19T09:35:13Z,128872.1,"c(""distractor1"", ""distractor2"", ""distractor3"")",Gegenwart,hadhara,s,katiba,jokofu,mikopo,NA,NA,NA,NA,NA,NA,NA,NA,NA,NA,NA,NA,NA,NA,NA,NA,NA,NA,NA,NA,NA,NA,NA
a527d,Shallow Question,html.Page,1_1_5_1_0,NA,NA,form submission,3157.9,128854,128851.28,128872.1,132030,132031,2023-10-19T09:35:16Z,132038.76,"c(""distractor1"", ""distractor2"", ""distractor3"")",Gegenwart,hadhara,s,katiba,jokofu,mikopo,hadhara,NA,NA,NA,NA,NA,NA,NA,NA,NA,NA,NA,NA,NA,NA,NA,NA,NA,NA,NA,NA,NA,NA
a527d,"""Richtig""-Screen",canvas.Screen,1_1_5_1_1,NA,NA,timeout,5000.12,132036,132024.2,132038.76,137018.04,137020,2023-10-19T09:35:21Z,137038.88,"c(""distractor1"", ""distractor2"", ""distractor3"")",Gegenwart,hadhara,s,katiba,jokofu,mikopo,NA,NA,1,NA,NA,NA,NA,NA,NA,NA,NA,NA,NA,NA,NA,NA,NA,NA,NA,NA,NA,NA,NA
a527d,"""Falsch""-Screen",canvas.Screen,1_1_5_1_2,NA,NA,skipped,NA,137027,NA,NA,137018.04,137028,2023-10-19T09:35:21Z,137038.88,"c(""distractor1"", ""distractor2"", ""distractor3"")",Gegenwart,hadhara,s,katiba,jokofu,mikopo,NA,NA,NA,NA,NA,NA,NA,NA,NA,NA,NA,NA,NA,NA,NA,NA,NA,NA,NA,NA,NA,NA,NA
a527d,shallow,flow.Sequence,1_1_5_1,NA,NA,completion,8145.94,128854,128851.28,128872.1,137018.04,137028,2023-10-19T09:35:21Z,137038.88,"c(""distractor1"", ""distractor2"", ""distractor3"")",Gegenwart,hadhara,s,katiba,jokofu,mikopo,NA,NA,NA,NA,NA,NA,NA,NA,NA,NA,NA,NA,NA,NA,NA,NA,NA,NA,NA,NA,NA,NA,NA
a527d,task,flow.Sequence,1_1_5,NA,NA,completion,8145.94,128854,128851.28,128872.1,137018.04,137028,2023-10-19T09:35:21Z,137038.88,"c(""distractor1"", ""distractor2"", ""distractor3"")",Gegenwart,hadhara,s,katiba,jokofu,mikopo,NA,NA,NA,NA,NA,NA,NA,NA,NA,NA,NA,NA,NA,NA,NA,NA,NA,NA,NA,NA,NA,NA,NA
a527d,block,flow.Loop,1_1,NA,NA,completion,65854.36,71150,71151.1,71163.68,137018.04,137029,2023-10-19T09:35:21Z,137038.88,"c(""distractor1"", ""distractor2"", ""distractor3"")",NA,NA,NA,NA,NA,NA,NA,NA,NA,NA,NA,NA,NA,NA,NA,NA,NA,NA,NA,NA,NA,NA,NA,NA,NA,NA,NA,NA,NA
a527d,Practice,flow.Sequence,1,NA,NA,completion,73458.56,63556,63556.08,63559.48,137018.04,137029,2023-10-19T09:35:21Z,137038.88,NULL,NA,NA,NA,NA,NA,NA,NA,NA,NA,NA,NA,NA,NA,NA,NA,NA,NA,NA,NA,NA,NA,NA,NA,NA,NA,NA,NA,NA,NA
a527d,Experiment start,canvas.Screen,2,weiter,keypress(q),response,83896.12,137029,137018.04,137038.88,220935,220947,2023-10-19T09:36:45Z,221043.72,NULL,NA,NA,NA,NA,NA,NA,NA,NA,NA,NA,NA,NA,NA,NA,NA,NA,NA,NA,NA,NA,NA,NA,NA,NA,NA,NA,NA,NA,NA
a527d,deep,flow.Sequence,3_0_0_0_0_0,NA,NA,skipped,NA,221043,NA,NA,220935,221043,2023-10-19T09:36:45Z,221043.72,NULL,Fleisch,mshakiki,s,kizunguzungu,mshikamano,angusho,NA,sdf,NA,0,NA,NA,NA,NA,NA,NA,NA,NA,NA,NA,NA,NA,NA,NA,NA,NA,NA,NA,NA
a527d,Shallow Question,html.Page,3_0_0_0_0_1_0,NA,NA,form submission,7059.28,221043,221043.4,221043.72,228103,228103,2023-10-19T09:36:52Z,228121.1,NULL,Fleisch,mshakiki,s,kizunguzungu,mshikamano,angusho,mshikamano,NA,NA,0,NA,NA,NA,NA,NA,NA,NA,NA,NA,NA,NA,NA,NA,NA,NA,NA,NA,NA,NA
a527d,"""Richtig""-Screen",canvas.Screen,3_0_0_0_0_1_1,NA,NA,skipped,NA,228104,NA,NA,228103,228104,2023-10-19T09:36:52Z,228121.1,NULL,Fleisch,mshakiki,s,kizunguzungu,mshikamano,angusho,NA,sdf,NA,0,NA,NA,NA,NA,NA,NA,NA,NA,NA,NA,NA,NA,NA,NA,NA,NA,NA,NA,NA
a527d,"""Falsch""-Screen",canvas.Screen,3_0_0_0_0_1_2,NA,NA,timeout,5001.32,228105,228100.98,228121.1,233101.6,233103,2023-10-19T09:36:57Z,233122.42,NULL,Fleisch,mshakiki,s,kizunguzungu,mshikamano,angusho,NA,sdf,0,0,NA,NA,NA,NA,NA,NA,NA,NA,NA,NA,NA,NA,NA,NA,NA,NA,NA,NA,NA
a527d,shallow,flow.Sequence,3_0_0_0_0_1,NA,NA,completion,12057.88,221043,221043.4,221043.72,233101.6,233104,2023-10-19T09:36:57Z,233122.42,NULL,Fleisch,mshakiki,s,kizunguzungu,mshikamano,angusho,NA,sdf,NA,0,NA,NA,NA,NA,NA,NA,NA,NA,NA,NA,NA,NA,NA,NA,NA,NA,NA,NA,NA
a527d,task,flow.Sequence,3_0_0_0_0,NA,NA,completion,12057.88,221043,221043.4,221043.72,233101.6,233104,2023-10-19T09:36:57Z,233122.42,NULL,Fleisch,mshakiki,s,kizunguzungu,mshikamano,angusho,NA,sdf,NA,0,NA,NA,NA,NA,NA,NA,NA,NA,NA,NA,NA,NA,NA,NA,NA,NA,NA,NA,NA
a527d,Deep Question,html.Page,3_0_0_0_1_0_0,NA,NA,form submission,6178.58,233105,233101.6,233122.42,239301,239301,2023-10-19T09:37:03Z,239309.92,NULL,Toleranz,kuvumiliana,d,NA,NA,NA,T,NA,NA,0,NA,NA,NA,NA,NA,NA,NA,NA,NA,NA,NA,NA,NA,NA,NA,NA,NA,NA,NA
a527d,"""Richtig""-Screen",canvas.Screen,3_0_0_0_1_0_1,NA,NA,skipped,NA,239302,NA,NA,239301,239302,2023-10-19T09:37:03Z,239309.92,NULL,Toleranz,kuvumiliana,d,NA,NA,NA,NA,sdf,NA,0,NA,NA,NA,NA,NA,NA,NA,NA,NA,NA,NA,NA,NA,NA,NA,NA,NA,NA,NA
a527d,"""Falsch""-Screen",canvas.Screen,3_0_0_0_1_0_2,NA,NA,timeout,5000,239303,239299.24,239309.92,244289.18,244295,2023-10-19T09:37:08Z,244309.92,NULL,Toleranz,kuvumiliana,d,NA,NA,NA,NA,sdf,0,0,NA,NA,NA,NA,NA,NA,NA,NA,NA,NA,NA,NA,NA,NA,NA,NA,NA,NA,NA
a527d,deep,flow.Sequence,3_0_0_0_1_0,NA,NA,completion,11166.76,233105,233101.6,233122.42,244289.18,244298,2023-10-19T09:37:08Z,244309.92,NULL,Toleranz,kuvumiliana,d,NA,NA,NA,NA,sdf,NA,0,NA,NA,NA,NA,NA,NA,NA,NA,NA,NA,NA,NA,NA,NA,NA,NA,NA,NA,NA
a527d,shallow,flow.Sequence,3_0_0_0_1_1,NA,NA,skipped,NA,244299,NA,NA,244289.18,244300,2023-10-19T09:37:08Z,244309.92,NULL,Toleranz,kuvumiliana,d,NA,NA,NA,NA,sdf,NA,0,NA,NA,NA,NA,NA,NA,NA,NA,NA,NA,NA,NA,NA,NA,NA,NA,NA,NA,NA
a527d,task,flow.Sequence,3_0_0_0_1,NA,NA,completion,11166.76,233104,233101.6,233122.42,244289.18,244301,2023-10-19T09:37:08Z,244309.92,NULL,Toleranz,kuvumiliana,d,NA,NA,NA,NA,sdf,NA,0,NA,NA,NA,NA,NA,NA,NA,NA,NA,NA,NA,NA,NA,NA,NA,NA,NA,NA,NA
a527d,Deep Question,html.Page,3_0_0_0_2_0_0,NA,NA,form submission,5252.08,244302,244289.18,244309.92,249562,249563,2023-10-19T09:37:14Z,249580.82,NULL,Schlange,foleni,d,NA,NA,NA,s,NA,NA,0,NA,NA,NA,NA,NA,NA,NA,NA,NA,NA,NA,NA,NA,NA,NA,NA,NA,NA,NA
a527d,"""Richtig""-Screen",canvas.Screen,3_0_0_0_2_0_1,NA,NA,skipped,NA,249569,NA,NA,249562,249570,2023-10-19T09:37:14Z,249580.82,NULL,Schlange,foleni,d,NA,NA,NA,NA,sdf,NA,0,NA,NA,NA,NA,NA,NA,NA,NA,NA,NA,NA,NA,NA,NA,NA,NA,NA,NA,NA
a527d,"""Falsch""-Screen",canvas.Screen,3_0_0_0_2_0_2,NA,NA,timeout,5000.02,249572,249559.32,249580.82,254560,254562,2023-10-19T09:37:19Z,254580.84,NULL,Schlange,foleni,d,NA,NA,NA,NA,sdf,0,0,NA,NA,NA,NA,NA,NA,NA,NA,NA,NA,NA,NA,NA,NA,NA,NA,NA,NA,NA
a527d,deep,flow.Sequence,3_0_0_0_2_0,NA,NA,completion,10250.08,244302,244289.18,244309.92,254560,254563,2023-10-19T09:37:19Z,254580.84,NULL,Schlange,foleni,d,NA,NA,NA,NA,sdf,NA,0,NA,NA,NA,NA,NA,NA,NA,NA,NA,NA,NA,NA,NA,NA,NA,NA,NA,NA,NA
a527d,shallow,flow.Sequence,3_0_0_0_2_1,NA,NA,skipped,NA,254563,NA,NA,254560,254564,2023-10-19T09:37:19Z,254580.84,NULL,Schlange,foleni,d,NA,NA,NA,NA,sdf,NA,0,NA,NA,NA,NA,NA,NA,NA,NA,NA,NA,NA,NA,NA,NA,NA,NA,NA,NA,NA
a527d,task,flow.Sequence,3_0_0_0_2,NA,NA,completion,10250.08,244301,244289.18,244309.92,254560,254565,2023-10-19T09:37:19Z,254580.84,NULL,Schlange,foleni,d,NA,NA,NA,NA,sdf,NA,0,NA,NA,NA,NA,NA,NA,NA,NA,NA,NA,NA,NA,NA,NA,NA,NA,NA,NA,NA
a527d,deep,flow.Sequence,3_0_0_0_3_0,NA,NA,skipped,NA,254566,NA,NA,254560,254567,2023-10-19T09:37:19Z,254580.84,NULL,Integrität,uadilifu,s,muungano,mtiririko,upunguaji,NA,sdf,NA,0,NA,NA,NA,NA,NA,NA,NA,NA,NA,NA,NA,NA,NA,NA,NA,NA,NA,NA,NA
a527d,Shallow Question,html.Page,3_0_0_0_3_1_0,NA,NA,form submission,5013.16,254567,254560,254580.84,259594,259595,2023-10-19T09:37:24Z,259601.62,NULL,Integrität,uadilifu,s,muungano,mtiririko,upunguaji,upunguaji,NA,NA,0,NA,NA,NA,NA,NA,NA,NA,NA,NA,NA,NA,NA,NA,NA,NA,NA,NA,NA,NA
a527d,"""Richtig""-Screen",canvas.Screen,3_0_0_0_3_1_1,NA,NA,skipped,NA,259597,NA,NA,259594,259597,2023-10-19T09:37:24Z,259601.62,NULL,Integrität,uadilifu,s,muungano,mtiririko,upunguaji,NA,sdf,NA,0,NA,NA,NA,NA,NA,NA,NA,NA,NA,NA,NA,NA,NA,NA,NA,NA,NA,NA,NA
a527d,"""Falsch""-Screen",canvas.Screen,3_0_0_0_3_1_2,NA,NA,timeout,5000.06,259600,259592.12,259601.62,264580.86,264582,2023-10-19T09:37:29Z,264601.68,NULL,Integrität,uadilifu,s,muungano,mtiririko,upunguaji,NA,sdf,0,0,NA,NA,NA,NA,NA,NA,NA,NA,NA,NA,NA,NA,NA,NA,NA,NA,NA,NA,NA
a527d,shallow,flow.Sequence,3_0_0_0_3_1,NA,NA,completion,10000.02,254567,254560,254580.84,264580.86,264583,2023-10-19T09:37:29Z,264601.68,NULL,Integrität,uadilifu,s,muungano,mtiririko,upunguaji,NA,sdf,NA,0,NA,NA,NA,NA,NA,NA,NA,NA,NA,NA,NA,NA,NA,NA,NA,NA,NA,NA,NA
a527d,task,flow.Sequence,3_0_0_0_3,NA,NA,completion,10000.02,254565,254560,254580.84,264580.86,264584,2023-10-19T09:37:29Z,264601.68,NULL,Integrität,uadilifu,s,muungano,mtiririko,upunguaji,NA,sdf,NA,0,NA,NA,NA,NA,NA,NA,NA,NA,NA,NA,NA,NA,NA,NA,NA,NA,NA,NA,NA
a527d,deep,flow.Sequence,3_0_0_0_4_0,NA,NA,skipped,NA,264584,NA,NA,264580.86,264584,2023-10-19T09:37:29Z,264601.68,NULL,Vermutung,udhanifu,s,haramia,tikisho,itifaki,NA,sdf,NA,0,NA,NA,NA,NA,NA,NA,NA,NA,NA,NA,NA,NA,NA,NA,NA,NA,NA,NA,NA
a527d,Shallow Question,html.Page,3_0_0_0_4_1_0,NA,NA,form submission,6179.32,264585,264580.86,264601.68,270781,270781,2023-10-19T09:37:35Z,270789.1,NULL,Vermutung,udhanifu,s,haramia,tikisho,itifaki,haramia,NA,NA,0,NA,NA,NA,NA,NA,NA,NA,NA,NA,NA,NA,NA,NA,NA,NA,NA,NA,NA,NA
a527d,"""Richtig""-Screen",canvas.Screen,3_0_0_0_4_1_1,NA,NA,skipped,NA,270785,NA,NA,270781,270785,2023-10-19T09:37:35Z,270789.1,NULL,Vermutung,udhanifu,s,haramia,tikisho,itifaki,NA,sdf,NA,0,NA,NA,NA,NA,NA,NA,NA,NA,NA,NA,NA,NA,NA,NA,NA,NA,NA,NA,NA
a527d,"""Falsch""-Screen",canvas.Screen,3_0_0_0_4_1_2,NA,NA,timeout,5000.1,270789,270776.74,270789.1,275768.36,275770,2023-10-19T09:37:40Z,275789.2,NULL,Vermutung,udhanifu,s,haramia,tikisho,itifaki,NA,sdf,0,0,NA,NA,NA,NA,NA,NA,NA,NA,NA,NA,NA,NA,NA,NA,NA,NA,NA,NA,NA
a527d,shallow,flow.Sequence,3_0_0_0_4_1,NA,NA,completion,11166.68,264585,264580.86,264601.68,275768.36,275770,2023-10-19T09:37:40Z,275789.2,NULL,Vermutung,udhanifu,s,haramia,tikisho,itifaki,NA,sdf,NA,0,NA,NA,NA,NA,NA,NA,NA,NA,NA,NA,NA,NA,NA,NA,NA,NA,NA,NA,NA
a527d,task,flow.Sequence,3_0_0_0_4,NA,NA,completion,11166.68,264584,264580.86,264601.68,275768.36,275771,2023-10-19T09:37:40Z,275789.2,NULL,Vermutung,udhanifu,s,haramia,tikisho,itifaki,NA,sdf,NA,0,NA,NA,NA,NA,NA,NA,NA,NA,NA,NA,NA,NA,NA,NA,NA,NA,NA,NA,NA
a527d,deep,flow.Sequence,3_0_0_0_5_0,NA,NA,skipped,NA,275771,NA,NA,275768.36,275771,2023-10-19T09:37:40Z,275789.2,NULL,Inhalt,yaliyomo,s,kishawishi,hifadhi,kutembea,NA,sdf,NA,0,NA,NA,NA,NA,NA,NA,NA,NA,NA,NA,NA,NA,NA,NA,NA,NA,NA,NA,NA
a527d,Shallow Question,html.Page,3_0_0_0_5_1_0,NA,NA,form submission,4689.8,275771,275768.36,275789.2,280479,280479,2023-10-19T09:37:45Z,280476.74,NULL,Inhalt,yaliyomo,s,kishawishi,hifadhi,kutembea,yaliyomo,NA,NA,0,NA,NA,NA,NA,NA,NA,NA,NA,NA,NA,NA,NA,NA,NA,NA,NA,NA,NA,NA
a527d,"""Richtig""-Screen",canvas.Screen,3_0_0_0_5_1_1,NA,NA,timeout,4999.98,280485,280473.98,280476.74,285455.9,285456,2023-10-19T09:37:50Z,285476.72,NULL,Inhalt,yaliyomo,s,kishawishi,hifadhi,kutembea,NA,sdf,1,0,NA,NA,NA,NA,NA,NA,NA,NA,NA,NA,NA,NA,NA,NA,NA,NA,NA,NA,NA
a527d,"""Falsch""-Screen",canvas.Screen,3_0_0_0_5_1_2,NA,NA,skipped,NA,285461,NA,NA,285455.9,285461,2023-10-19T09:37:50Z,285476.72,NULL,Inhalt,yaliyomo,s,kishawishi,hifadhi,kutembea,NA,sdf,NA,0,NA,NA,NA,NA,NA,NA,NA,NA,NA,NA,NA,NA,NA,NA,NA,NA,NA,NA,NA
a527d,shallow,flow.Sequence,3_0_0_0_5_1,NA,NA,completion,9666.7,275771,275768.36,275789.2,285455.9,285461,2023-10-19T09:37:50Z,285476.72,NULL,Inhalt,yaliyomo,s,kishawishi,hifadhi,kutembea,NA,sdf,NA,0,NA,NA,NA,NA,NA,NA,NA,NA,NA,NA,NA,NA,NA,NA,NA,NA,NA,NA,NA
a527d,task,flow.Sequence,3_0_0_0_5,NA,NA,completion,9666.7,275771,275768.36,275789.2,285455.9,285461,2023-10-19T09:37:50Z,285476.72,NULL,Inhalt,yaliyomo,s,kishawishi,hifadhi,kutembea,NA,sdf,NA,0,NA,NA,NA,NA,NA,NA,NA,NA,NA,NA,NA,NA,NA,NA,NA,NA,NA,NA,NA
a527d,Deep Question,html.Page,3_0_0_0_6_0_0,NA,NA,form submission,3444.28,285462,285455.9,285476.72,288921,288921,2023-10-19T09:37:53Z,288935.04,NULL,Genehmigung,idhini,d,NA,NA,NA,k,NA,NA,0,NA,NA,NA,NA,NA,NA,NA,NA,NA,NA,NA,NA,NA,NA,NA,NA,NA,NA,NA
a527d,"""Richtig""-Screen",canvas.Screen,3_0_0_0_6_0_1,NA,NA,skipped,NA,288923,NA,NA,288921,288923,2023-10-19T09:37:53Z,288935.04,NULL,Genehmigung,idhini,d,NA,NA,NA,NA,sdf,NA,0,NA,NA,NA,NA,NA,NA,NA,NA,NA,NA,NA,NA,NA,NA,NA,NA,NA,NA,NA
a527d,"""Falsch""-Screen",canvas.Screen,3_0_0_0_6_0_2,NA,NA,timeout,5000.06,288923,288919.72,288935.04,293914.26,293916,2023-10-19T09:37:58Z,293935.1,NULL,Genehmigung,idhini,d,NA,NA,NA,NA,sdf,0,0,NA,NA,NA,NA,NA,NA,NA,NA,NA,NA,NA,NA,NA,NA,NA,NA,NA,NA,NA
a527d,deep,flow.Sequence,3_0_0_0_6_0,NA,NA,completion,8437.54,285462,285455.9,285476.72,293914.26,293917,2023-10-19T09:37:58Z,293935.1,NULL,Genehmigung,idhini,d,NA,NA,NA,NA,sdf,NA,0,NA,NA,NA,NA,NA,NA,NA,NA,NA,NA,NA,NA,NA,NA,NA,NA,NA,NA,NA
a527d,shallow,flow.Sequence,3_0_0_0_6_1,NA,NA,skipped,NA,293917,NA,NA,293914.26,293918,2023-10-19T09:37:58Z,293935.1,NULL,Genehmigung,idhini,d,NA,NA,NA,NA,sdf,NA,0,NA,NA,NA,NA,NA,NA,NA,NA,NA,NA,NA,NA,NA,NA,NA,NA,NA,NA,NA
a527d,task,flow.Sequence,3_0_0_0_6,NA,NA,completion,8437.54,285462,285455.9,285476.72,293914.26,293918,2023-10-19T09:37:58Z,293935.1,NULL,Genehmigung,idhini,d,NA,NA,NA,NA,sdf,NA,0,NA,NA,NA,NA,NA,NA,NA,NA,NA,NA,NA,NA,NA,NA,NA,NA,NA,NA,NA
a527d,Deep Question,html.Page,3_0_0_0_7_0_0,NA,NA,form submission,3442.9,293918,293914.26,293935.1,297378,297378,2023-10-19T09:38:01Z,297393.28,NULL,Begegnung,kukutana,d,NA,NA,NA,m,NA,NA,0,NA,NA,NA,NA,NA,NA,NA,NA,NA,NA,NA,NA,NA,NA,NA,NA,NA,NA,NA
a527d,"""Richtig""-Screen",canvas.Screen,3_0_0_0_7_0_1,NA,NA,skipped,NA,297380,NA,NA,297378,297380,2023-10-19T09:38:01Z,297393.28,NULL,Begegnung,kukutana,d,NA,NA,NA,NA,sdf,NA,0,NA,NA,NA,NA,NA,NA,NA,NA,NA,NA,NA,NA,NA,NA,NA,NA,NA,NA,NA
a527d,"""Falsch""-Screen",canvas.Screen,3_0_0_0_7_0_2,NA,NA,timeout,5000.16,297381,297375.96,297393.28,302372.6,302376,2023-10-19T09:38:06Z,302393.44,NULL,Begegnung,kukutana,d,NA,NA,NA,NA,sdf,0,0,NA,NA,NA,NA,NA,NA,NA,NA,NA,NA,NA,NA,NA,NA,NA,NA,NA,NA,NA
a527d,deep,flow.Sequence,3_0_0_0_7_0,NA,NA,completion,8437.5,293918,293914.26,293935.1,302372.6,302378,2023-10-19T09:38:06Z,302393.44,NULL,Begegnung,kukutana,d,NA,NA,NA,NA,sdf,NA,0,NA,NA,NA,NA,NA,NA,NA,NA,NA,NA,NA,NA,NA,NA,NA,NA,NA,NA,NA
a527d,shallow,flow.Sequence,3_0_0_0_7_1,NA,NA,skipped,NA,302378,NA,NA,302372.6,302378,2023-10-19T09:38:06Z,302393.44,NULL,Begegnung,kukutana,d,NA,NA,NA,NA,sdf,NA,0,NA,NA,NA,NA,NA,NA,NA,NA,NA,NA,NA,NA,NA,NA,NA,NA,NA,NA,NA
a527d,task,flow.Sequence,3_0_0_0_7,NA,NA,completion,8437.5,293918,293914.26,293935.1,302372.6,302380,2023-10-19T09:38:06Z,302393.44,NULL,Begegnung,kukutana,d,NA,NA,NA,NA,sdf,NA,0,NA,NA,NA,NA,NA,NA,NA,NA,NA,NA,NA,NA,NA,NA,NA,NA,NA,NA,NA
a527d,block,flow.Loop,3_0_0_0,NA,NA,completion,81328.88,221043,221043.4,221043.72,302372.6,302381,2023-10-19T09:38:06Z,302393.44,NULL,NA,NA,NA,NA,NA,NA,NA,sdf,NA,0,NA,NA,NA,NA,NA,NA,NA,NA,NA,NA,NA,NA,NA,NA,NA,NA,NA,NA,NA
a527d,weiter,canvas.Screen,3_0_0_1,sdf,keypress(Space),response,2104.56,302381,302372.6,302393.44,304498,304505,2023-10-19T09:38:09Z,304563.24,NULL,NA,NA,NA,NA,NA,NA,NA,sdf,NA,0,NA,NA,NA,NA,NA,NA,NA,NA,NA,NA,NA,NA,NA,NA,NA,NA,NA,NA,NA
a527d,check continue,flow.Sequence,3_0_0,NA,NA,completion,83454.28,221043,221043.4,221043.72,304498,304506,2023-10-19T09:38:09Z,304563.24,NULL,NA,NA,NA,NA,NA,NA,NA,sdf,NA,0,NA,NA,NA,NA,NA,NA,NA,NA,NA,NA,NA,NA,NA,NA,NA,NA,NA,NA,NA
a527d,deep,flow.Sequence,3_0_1_0_0_0,NA,NA,skipped,NA,304562,NA,NA,304498,304563,2023-10-19T09:38:09Z,304563.24,NULL,Fleisch,mshakiki,s,kizunguzungu,mshikamano,angusho,NA,sdfdsf,NA,1,NA,NA,NA,NA,NA,NA,NA,NA,NA,NA,NA,NA,NA,NA,NA,NA,NA,NA,NA
a527d,Shallow Question,html.Page,3_0_1_0_0_1_0,NA,NA,form submission,8721.76,304563,304562.96,304563.24,313285,313285,2023-10-19T09:38:17Z,313289.22,NULL,Fleisch,mshakiki,s,kizunguzungu,mshikamano,angusho,mshakiki,NA,NA,1,NA,NA,NA,NA,NA,NA,NA,NA,NA,NA,NA,NA,NA,NA,NA,NA,NA,NA,NA
a527d,"""Richtig""-Screen",canvas.Screen,3_0_1_0_0_1_1,NA,NA,timeout,5000.14,313286,313281.88,313289.22,318268.52,318271,2023-10-19T09:38:22Z,318289.36,NULL,Fleisch,mshakiki,s,kizunguzungu,mshikamano,angusho,NA,sdfdsf,1,1,NA,NA,NA,NA,NA,NA,NA,NA,NA,NA,NA,NA,NA,NA,NA,NA,NA,NA,NA
a527d,"""Falsch""-Screen",canvas.Screen,3_0_1_0_0_1_2,NA,NA,skipped,NA,318279,NA,NA,318268.52,318280,2023-10-19T09:38:22Z,318289.36,NULL,Fleisch,mshakiki,s,kizunguzungu,mshikamano,angusho,NA,sdfdsf,NA,1,NA,NA,NA,NA,NA,NA,NA,NA,NA,NA,NA,NA,NA,NA,NA,NA,NA,NA,NA
a527d,shallow,flow.Sequence,3_0_1_0_0_1,NA,NA,completion,13705.28,304563,304562.96,304563.24,318268.52,318280,2023-10-19T09:38:22Z,318289.36,NULL,Fleisch,mshakiki,s,kizunguzungu,mshikamano,angusho,NA,sdfdsf,NA,1,NA,NA,NA,NA,NA,NA,NA,NA,NA,NA,NA,NA,NA,NA,NA,NA,NA,NA,NA
a527d,task,flow.Sequence,3_0_1_0_0,NA,NA,completion,13705.28,304562,304562.96,304563.24,318268.52,318281,2023-10-19T09:38:22Z,318289.36,NULL,Fleisch,mshakiki,s,kizunguzungu,mshikamano,angusho,NA,sdfdsf,NA,1,NA,NA,NA,NA,NA,NA,NA,NA,NA,NA,NA,NA,NA,NA,NA,NA,NA,NA,NA
a527d,Deep Question,html.Page,3_0_1_0_1_0_0,NA,NA,form submission,16466.64,318282,318268.52,318289.36,334756,334757,2023-10-19T09:38:39Z,334768.26,NULL,Begegnung,kukutana,d,NA,NA,NA,s,NA,NA,1,NA,NA,NA,NA,NA,NA,NA,NA,NA,NA,NA,NA,NA,NA,NA,NA,NA,NA,NA
a527d,"""Richtig""-Screen",canvas.Screen,3_0_1_0_1_0_1,NA,NA,skipped,NA,334760,NA,NA,334756,334760,2023-10-19T09:38:39Z,334768.26,NULL,Begegnung,kukutana,d,NA,NA,NA,NA,sdfdsf,NA,1,NA,NA,NA,NA,NA,NA,NA,NA,NA,NA,NA,NA,NA,NA,NA,NA,NA,NA,NA
a527d,"""Falsch""-Screen",canvas.Screen,3_0_1_0_1_0_2,NA,NA,timeout,5000.28,334763,334750.16,334768.26,339747.7,339750,2023-10-19T09:38:44Z,339768.54,NULL,Begegnung,kukutana,d,NA,NA,NA,NA,sdfdsf,0,1,NA,NA,NA,NA,NA,NA,NA,NA,NA,NA,NA,NA,NA,NA,NA,NA,NA,NA,NA
a527d,deep,flow.Sequence,3_0_1_0_1_0,NA,NA,completion,21458.34,318281,318268.52,318289.36,339747.7,339750,2023-10-19T09:38:44Z,339768.54,NULL,Begegnung,kukutana,d,NA,NA,NA,NA,sdfdsf,NA,1,NA,NA,NA,NA,NA,NA,NA,NA,NA,NA,NA,NA,NA,NA,NA,NA,NA,NA,NA
a527d,shallow,flow.Sequence,3_0_1_0_1_1,NA,NA,skipped,NA,339750,NA,NA,339747.7,339750,2023-10-19T09:38:44Z,339768.54,NULL,Begegnung,kukutana,d,NA,NA,NA,NA,sdfdsf,NA,1,NA,NA,NA,NA,NA,NA,NA,NA,NA,NA,NA,NA,NA,NA,NA,NA,NA,NA,NA
a527d,task,flow.Sequence,3_0_1_0_1,NA,NA,completion,21458.34,318281,318268.52,318289.36,339747.7,339750,2023-10-19T09:38:44Z,339768.54,NULL,Begegnung,kukutana,d,NA,NA,NA,NA,sdfdsf,NA,1,NA,NA,NA,NA,NA,NA,NA,NA,NA,NA,NA,NA,NA,NA,NA,NA,NA,NA,NA
a527d,Deep Question,html.Page,3_0_1_0_2_0_0,NA,NA,form submission,3479.46,339751,339747.7,339768.54,343248,343249,2023-10-19T09:38:47Z,343247.68,NULL,Genehmigung,idhini,d,NA,NA,NA,kukutana,NA,NA,1,NA,NA,NA,NA,NA,NA,NA,NA,NA,NA,NA,NA,NA,NA,NA,NA,NA,NA,NA
a527d,"""Richtig""-Screen",canvas.Screen,3_0_1_0_2_0_1,NA,NA,skipped,NA,343251,NA,NA,343248,343251,2023-10-19T09:38:47Z,343247.68,NULL,Genehmigung,idhini,d,NA,NA,NA,NA,sdfdsf,NA,1,NA,NA,NA,NA,NA,NA,NA,NA,NA,NA,NA,NA,NA,NA,NA,NA,NA,NA,NA
a527d,"""Falsch""-Screen",canvas.Screen,3_0_1_0_2_0_2,NA,NA,timeout,5000.06,343253,343247.3,343247.68,348226.92,348228,2023-10-19T09:38:52Z,348247.74,NULL,Genehmigung,idhini,d,NA,NA,NA,NA,sdfdsf,0,1,NA,NA,NA,NA,NA,NA,NA,NA,NA,NA,NA,NA,NA,NA,NA,NA,NA,NA,NA
a527d,deep,flow.Sequence,3_0_1_0_2_0,NA,NA,completion,8458.38,339751,339747.7,339768.54,348226.92,348229,2023-10-19T09:38:52Z,348247.74,NULL,Genehmigung,idhini,d,NA,NA,NA,NA,sdfdsf,NA,1,NA,NA,NA,NA,NA,NA,NA,NA,NA,NA,NA,NA,NA,NA,NA,NA,NA,NA,NA
a527d,shallow,flow.Sequence,3_0_1_0_2_1,NA,NA,skipped,NA,348229,NA,NA,348226.92,348229,2023-10-19T09:38:52Z,348247.74,NULL,Genehmigung,idhini,d,NA,NA,NA,NA,sdfdsf,NA,1,NA,NA,NA,NA,NA,NA,NA,NA,NA,NA,NA,NA,NA,NA,NA,NA,NA,NA,NA
a527d,task,flow.Sequence,3_0_1_0_2,NA,NA,completion,8458.38,339750,339747.7,339768.54,348226.92,348230,2023-10-19T09:38:52Z,348247.74,NULL,Genehmigung,idhini,d,NA,NA,NA,NA,sdfdsf,NA,1,NA,NA,NA,NA,NA,NA,NA,NA,NA,NA,NA,NA,NA,NA,NA,NA,NA,NA,NA
a527d,Deep Question,html.Page,3_0_1_0_3_0_0,NA,NA,form submission,7674.26,348230,348226.92,348247.74,355922,355922,2023-10-19T09:39:00Z,355934.5,NULL,Schlange,foleni,d,NA,NA,NA,m,NA,NA,1,NA,NA,NA,NA,NA,NA,NA,NA,NA,NA,NA,NA,NA,NA,NA,NA,NA,NA,NA
a527d,"""Richtig""-Screen",canvas.Screen,3_0_1_0_3_0_1,NA,NA,skipped,NA,355924,NA,NA,355922,355924,2023-10-19T09:39:00Z,355934.5,NULL,Schlange,foleni,d,NA,NA,NA,NA,sdfdsf,NA,1,NA,NA,NA,NA,NA,NA,NA,NA,NA,NA,NA,NA,NA,NA,NA,NA,NA,NA,NA
a527d,"""Falsch""-Screen",canvas.Screen,3_0_1_0_3_0_2,NA,NA,timeout,5000.7,355925,355919.82,355934.5,360914.44,360916,2023-10-19T09:39:05Z,360935.2,NULL,Schlange,foleni,d,NA,NA,NA,NA,sdfdsf,0,1,NA,NA,NA,NA,NA,NA,NA,NA,NA,NA,NA,NA,NA,NA,NA,NA,NA,NA,NA
a527d,deep,flow.Sequence,3_0_1_0_3_0,NA,NA,completion,12666.7,348230,348226.92,348247.74,360914.44,360916,2023-10-19T09:39:05Z,360935.2,NULL,Schlange,foleni,d,NA,NA,NA,NA,sdfdsf,NA,1,NA,NA,NA,NA,NA,NA,NA,NA,NA,NA,NA,NA,NA,NA,NA,NA,NA,NA,NA
a527d,shallow,flow.Sequence,3_0_1_0_3_1,NA,NA,skipped,NA,360916,NA,NA,360914.44,360917,2023-10-19T09:39:05Z,360935.2,NULL,Schlange,foleni,d,NA,NA,NA,NA,sdfdsf,NA,1,NA,NA,NA,NA,NA,NA,NA,NA,NA,NA,NA,NA,NA,NA,NA,NA,NA,NA,NA
a527d,task,flow.Sequence,3_0_1_0_3,NA,NA,completion,12666.7,348230,348226.92,348247.74,360914.44,360917,2023-10-19T09:39:05Z,360935.2,NULL,Schlange,foleni,d,NA,NA,NA,NA,sdfdsf,NA,1,NA,NA,NA,NA,NA,NA,NA,NA,NA,NA,NA,NA,NA,NA,NA,NA,NA,NA,NA
a527d,deep,flow.Sequence,3_0_1_0_4_0,NA,NA,skipped,NA,360917,NA,NA,360914.44,360917,2023-10-19T09:39:05Z,360935.2,NULL,Inhalt,yaliyomo,s,kishawishi,hifadhi,kutembea,NA,sdfdsf,NA,1,NA,NA,NA,NA,NA,NA,NA,NA,NA,NA,NA,NA,NA,NA,NA,NA,NA,NA,NA
a527d,Shallow Question,html.Page,3_0_1_0_4_1_0,NA,NA,form submission,19685.8,360918,360914.44,360935.2,380621,380622,2023-10-19T09:39:25Z,380622.82,NULL,Inhalt,yaliyomo,s,kishawishi,hifadhi,kutembea,hifadhi,NA,NA,1,NA,NA,NA,NA,NA,NA,NA,NA,NA,NA,NA,NA,NA,NA,NA,NA,NA,NA,NA
a527d,"""Richtig""-Screen",canvas.Screen,3_0_1_0_4_1_1,NA,NA,skipped,NA,380628,NA,NA,380621,380628,2023-10-19T09:39:25Z,380622.82,NULL,Inhalt,yaliyomo,s,kishawishi,hifadhi,kutembea,NA,sdfdsf,NA,1,NA,NA,NA,NA,NA,NA,NA,NA,NA,NA,NA,NA,NA,NA,NA,NA,NA,NA,NA
a527d,"""Falsch""-Screen",canvas.Screen,3_0_1_0_4_1_2,NA,NA,timeout,5000.02,380635,380616.04,380622.82,385602,385603,2023-10-19T09:39:30Z,385622.84,NULL,Inhalt,yaliyomo,s,kishawishi,hifadhi,kutembea,NA,sdfdsf,0,1,NA,NA,NA,NA,NA,NA,NA,NA,NA,NA,NA,NA,NA,NA,NA,NA,NA,NA,NA
a527d,shallow,flow.Sequence,3_0_1_0_4_1,NA,NA,completion,24666.8,360917,360914.44,360935.2,385602,385603,2023-10-19T09:39:30Z,385622.84,NULL,Inhalt,yaliyomo,s,kishawishi,hifadhi,kutembea,NA,sdfdsf,NA,1,NA,NA,NA,NA,NA,NA,NA,NA,NA,NA,NA,NA,NA,NA,NA,NA,NA,NA,NA
a527d,task,flow.Sequence,3_0_1_0_4,NA,NA,completion,24666.8,360917,360914.44,360935.2,385602,385603,2023-10-19T09:39:30Z,385622.84,NULL,Inhalt,yaliyomo,s,kishawishi,hifadhi,kutembea,NA,sdfdsf,NA,1,NA,NA,NA,NA,NA,NA,NA,NA,NA,NA,NA,NA,NA,NA,NA,NA,NA,NA,NA
a527d,Deep Question,html.Page,3_0_1_0_5_0_0,NA,NA,form submission,8321.16,385603,385602,385622.84,393944,393944,2023-10-19T09:39:38Z,393956.18,NULL,Toleranz,kuvumiliana,d,NA,NA,NA,a,NA,NA,1,NA,NA,NA,NA,NA,NA,NA,NA,NA,NA,NA,NA,NA,NA,NA,NA,NA,NA,NA
a527d,"""Richtig""-Screen",canvas.Screen,3_0_1_0_5_0_1,NA,NA,skipped,NA,393948,NA,NA,393944,393949,2023-10-19T09:39:38Z,393956.18,NULL,Toleranz,kuvumiliana,d,NA,NA,NA,NA,sdfdsf,NA,1,NA,NA,NA,NA,NA,NA,NA,NA,NA,NA,NA,NA,NA,NA,NA,NA,NA,NA,NA
a527d,"""Falsch""-Screen",canvas.Screen,3_0_1_0_5_0_2,NA,NA,timeout,5000.02,393952,393937.6,393956.18,398935.36,398937,2023-10-19T09:39:43Z,398956.2,NULL,Toleranz,kuvumiliana,d,NA,NA,NA,NA,sdfdsf,0,1,NA,NA,NA,NA,NA,NA,NA,NA,NA,NA,NA,NA,NA,NA,NA,NA,NA,NA,NA
a527d,deep,flow.Sequence,3_0_1_0_5_0,NA,NA,completion,13312.52,385603,385602,385622.84,398935.36,398938,2023-10-19T09:39:43Z,398956.2,NULL,Toleranz,kuvumiliana,d,NA,NA,NA,NA,sdfdsf,NA,1,NA,NA,NA,NA,NA,NA,NA,NA,NA,NA,NA,NA,NA,NA,NA,NA,NA,NA,NA
a527d,shallow,flow.Sequence,3_0_1_0_5_1,NA,NA,skipped,NA,398938,NA,NA,398935.36,398939,2023-10-19T09:39:43Z,398956.2,NULL,Toleranz,kuvumiliana,d,NA,NA,NA,NA,sdfdsf,NA,1,NA,NA,NA,NA,NA,NA,NA,NA,NA,NA,NA,NA,NA,NA,NA,NA,NA,NA,NA
a527d,task,flow.Sequence,3_0_1_0_5,NA,NA,completion,13312.52,385603,385602,385622.84,398935.36,398939,2023-10-19T09:39:43Z,398956.2,NULL,Toleranz,kuvumiliana,d,NA,NA,NA,NA,sdfdsf,NA,1,NA,NA,NA,NA,NA,NA,NA,NA,NA,NA,NA,NA,NA,NA,NA,NA,NA,NA,NA
a527d,deep,flow.Sequence,3_0_1_0_6_0,NA,NA,skipped,NA,398939,NA,NA,398935.36,398939,2023-10-19T09:39:43Z,398956.2,NULL,Vermutung,udhanifu,s,haramia,tikisho,itifaki,NA,sdfdsf,NA,1,NA,NA,NA,NA,NA,NA,NA,NA,NA,NA,NA,NA,NA,NA,NA,NA,NA,NA,NA
a527d,Shallow Question,html.Page,3_0_1_0_6_1_0,NA,NA,form submission,4750.8,398939,398935.36,398956.2,403707,403708,2023-10-19T09:39:48Z,403706.26,NULL,Vermutung,udhanifu,s,haramia,tikisho,itifaki,itifaki,NA,NA,1,NA,NA,NA,NA,NA,NA,NA,NA,NA,NA,NA,NA,NA,NA,NA,NA,NA,NA,NA
a527d,"""Richtig""-Screen",canvas.Screen,3_0_1_0_6_1_1,NA,NA,skipped,NA,403713,NA,NA,403707,403713,2023-10-19T09:39:48Z,403706.26,NULL,Vermutung,udhanifu,s,haramia,tikisho,itifaki,NA,sdfdsf,NA,1,NA,NA,NA,NA,NA,NA,NA,NA,NA,NA,NA,NA,NA,NA,NA,NA,NA,NA,NA
a527d,"""Falsch""-Screen",canvas.Screen,3_0_1_0_6_1_2,NA,NA,timeout,4999.96,403717,403702.3,403706.26,408685.44,408691,2023-10-19T09:39:53Z,408706.22,NULL,Vermutung,udhanifu,s,haramia,tikisho,itifaki,NA,sdfdsf,0,1,NA,NA,NA,NA,NA,NA,NA,NA,NA,NA,NA,NA,NA,NA,NA,NA,NA,NA,NA
a527d,shallow,flow.Sequence,3_0_1_0_6_1,NA,NA,completion,9729.24,398939,398935.36,398956.2,408685.44,408693,2023-10-19T09:39:53Z,408706.22,NULL,Vermutung,udhanifu,s,haramia,tikisho,itifaki,NA,sdfdsf,NA,1,NA,NA,NA,NA,NA,NA,NA,NA,NA,NA,NA,NA,NA,NA,NA,NA,NA,NA,NA
a527d,task,flow.Sequence,3_0_1_0_6,NA,NA,completion,9729.24,398939,398935.36,398956.2,408685.44,408695,2023-10-19T09:39:53Z,408706.22,NULL,Vermutung,udhanifu,s,haramia,tikisho,itifaki,NA,sdfdsf,NA,1,NA,NA,NA,NA,NA,NA,NA,NA,NA,NA,NA,NA,NA,NA,NA,NA,NA,NA,NA
a527d,deep,flow.Sequence,3_0_1_0_7_0,NA,NA,skipped,NA,408696,NA,NA,408685.44,408696,2023-10-19T09:39:53Z,408706.22,NULL,Integrität,uadilifu,s,muungano,mtiririko,upunguaji,NA,sdfdsf,NA,1,NA,NA,NA,NA,NA,NA,NA,NA,NA,NA,NA,NA,NA,NA,NA,NA,NA,NA,NA
a527d,Shallow Question,html.Page,3_0_1_0_7_1_0,NA,NA,form submission,3177.78,408696,408685.44,408706.22,411884,411885,2023-10-19T09:39:56Z,411892.76,NULL,Integrität,uadilifu,s,muungano,mtiririko,upunguaji,uadilifu,NA,NA,1,NA,NA,NA,NA,NA,NA,NA,NA,NA,NA,NA,NA,NA,NA,NA,NA,NA,NA,NA
a527d,"""Richtig""-Screen",canvas.Screen,3_0_1_0_7_1_1,NA,NA,timeout,5000.88,411888,411882.36,411892.76,416872.94,416874,2023-10-19T09:40:01Z,416893.64,NULL,Integrität,uadilifu,s,muungano,mtiririko,upunguaji,NA,sdfdsf,1,1,NA,NA,NA,NA,NA,NA,NA,NA,NA,NA,NA,NA,NA,NA,NA,NA,NA,NA,NA
a527d,"""Falsch""-Screen",canvas.Screen,3_0_1_0_7_1_2,NA,NA,skipped,NA,416881,NA,NA,416872.94,416881,2023-10-19T09:40:01Z,416893.64,NULL,Integrität,uadilifu,s,muungano,mtiririko,upunguaji,NA,sdfdsf,NA,1,NA,NA,NA,NA,NA,NA,NA,NA,NA,NA,NA,NA,NA,NA,NA,NA,NA,NA,NA
a527d,shallow,flow.Sequence,3_0_1_0_7_1,NA,NA,completion,8166.72,408696,408685.44,408706.22,416872.94,416882,2023-10-19T09:40:01Z,416893.64,NULL,Integrität,uadilifu,s,muungano,mtiririko,upunguaji,NA,sdfdsf,NA,1,NA,NA,NA,NA,NA,NA,NA,NA,NA,NA,NA,NA,NA,NA,NA,NA,NA,NA,NA
a527d,task,flow.Sequence,3_0_1_0_7,NA,NA,completion,8166.72,408695,408685.44,408706.22,416872.94,416882,2023-10-19T09:40:01Z,416893.64,NULL,Integrität,uadilifu,s,muungano,mtiririko,upunguaji,NA,sdfdsf,NA,1,NA,NA,NA,NA,NA,NA,NA,NA,NA,NA,NA,NA,NA,NA,NA,NA,NA,NA,NA
a527d,block,flow.Loop,3_0_1_0,NA,NA,completion,112309.7,304562,304562.96,304563.24,416872.94,416883,2023-10-19T09:40:01Z,416893.64,NULL,NA,NA,NA,NA,NA,NA,NA,sdfdsf,NA,1,NA,NA,NA,NA,NA,NA,NA,NA,NA,NA,NA,NA,NA,NA,NA,NA,NA,NA,NA
a527d,weiter,canvas.Screen,3_0_1_1,sdf,keypress(Space),response,2635.36,416883,416872.94,416893.64,419529,419535,2023-10-19T09:40:04Z,419588.48,NULL,NA,NA,NA,NA,NA,NA,NA,sdfdsf,NA,1,NA,NA,NA,NA,NA,NA,NA,NA,NA,NA,NA,NA,NA,NA,NA,NA,NA,NA,NA
a527d,check continue,flow.Sequence,3_0_1,NA,NA,completion,114965.76,304562,304562.96,304563.24,419529,419536,2023-10-19T09:40:04Z,419588.48,NULL,NA,NA,NA,NA,NA,NA,NA,sdfdsf,NA,1,NA,NA,NA,NA,NA,NA,NA,NA,NA,NA,NA,NA,NA,NA,NA,NA,NA,NA,NA
a527d,Deep Question,html.Page,3_0_2_0_0_0_0,NA,NA,form submission,9001.52,419588,419588.12,419588.48,428590,428591,2023-10-19T09:40:13Z,428590.2,NULL,Toleranz,kuvumiliana,d,NA,NA,NA,miliana,NA,NA,2,NA,NA,NA,NA,NA,NA,NA,NA,NA,NA,NA,NA,NA,NA,NA,NA,NA,NA,NA
a527d,"""Richtig""-Screen",canvas.Screen,3_0_2_0_0_0_1,NA,NA,skipped,NA,428594,NA,NA,428590,428594,2023-10-19T09:40:13Z,428590.2,NULL,Toleranz,kuvumiliana,d,NA,NA,NA,NA,sdf,NA,2,NA,NA,NA,NA,NA,NA,NA,NA,NA,NA,NA,NA,NA,NA,NA,NA,NA,NA,NA
a527d,"""Falsch""-Screen",canvas.Screen,3_0_2_0_0_0_2,NA,NA,timeout,4991.1,428597,428589.84,428590.2,433560.46,433562,2023-10-19T09:40:18Z,433581.3,NULL,Toleranz,kuvumiliana,d,NA,NA,NA,NA,sdf,0,2,NA,NA,NA,NA,NA,NA,NA,NA,NA,NA,NA,NA,NA,NA,NA,NA,NA,NA,NA
a527d,deep,flow.Sequence,3_0_2_0_0_0,NA,NA,completion,13971.98,419588,419588.12,419588.48,433560.46,433562,2023-10-19T09:40:18Z,433581.3,NULL,Toleranz,kuvumiliana,d,NA,NA,NA,NA,sdf,NA,2,NA,NA,NA,NA,NA,NA,NA,NA,NA,NA,NA,NA,NA,NA,NA,NA,NA,NA,NA
a527d,shallow,flow.Sequence,3_0_2_0_0_1,NA,NA,skipped,NA,433563,NA,NA,433560.46,433563,2023-10-19T09:40:18Z,433581.3,NULL,Toleranz,kuvumiliana,d,NA,NA,NA,NA,sdf,NA,2,NA,NA,NA,NA,NA,NA,NA,NA,NA,NA,NA,NA,NA,NA,NA,NA,NA,NA,NA
a527d,task,flow.Sequence,3_0_2_0_0,NA,NA,completion,13971.98,419588,419588.12,419588.48,433560.46,433563,2023-10-19T09:40:18Z,433581.3,NULL,Toleranz,kuvumiliana,d,NA,NA,NA,NA,sdf,NA,2,NA,NA,NA,NA,NA,NA,NA,NA,NA,NA,NA,NA,NA,NA,NA,NA,NA,NA,NA
a527d,Deep Question,html.Page,3_0_2_0_1_0_0,NA,NA,form submission,2309.7,433563,433560.46,433581.3,435891,435891,2023-10-19T09:40:20Z,435893.74,NULL,Schlange,foleni,d,NA,NA,NA,m,NA,NA,2,NA,NA,NA,NA,NA,NA,NA,NA,NA,NA,NA,NA,NA,NA,NA,NA,NA,NA,NA
a527d,"""Richtig""-Screen",canvas.Screen,3_0_2_0_1_0_1,NA,NA,skipped,NA,435893,NA,NA,435891,435894,2023-10-19T09:40:20Z,435893.74,NULL,Schlange,foleni,d,NA,NA,NA,NA,sdf,NA,2,NA,NA,NA,NA,NA,NA,NA,NA,NA,NA,NA,NA,NA,NA,NA,NA,NA,NA,NA
a527d,"""Falsch""-Screen",canvas.Screen,3_0_2_0_1_0_2,NA,NA,timeout,5000.06,435896,435889,435893.74,440872.96,440875,2023-10-19T09:40:25Z,440893.8,NULL,Schlange,foleni,d,NA,NA,NA,NA,sdf,0,2,NA,NA,NA,NA,NA,NA,NA,NA,NA,NA,NA,NA,NA,NA,NA,NA,NA,NA,NA
a527d,deep,flow.Sequence,3_0_2_0_1_0,NA,NA,completion,7291.66,433563,433560.46,433581.3,440872.96,440875,2023-10-19T09:40:25Z,440893.8,NULL,Schlange,foleni,d,NA,NA,NA,NA,sdf,NA,2,NA,NA,NA,NA,NA,NA,NA,NA,NA,NA,NA,NA,NA,NA,NA,NA,NA,NA,NA
a527d,shallow,flow.Sequence,3_0_2_0_1_1,NA,NA,skipped,NA,440875,NA,NA,440872.96,440875,2023-10-19T09:40:25Z,440893.8,NULL,Schlange,foleni,d,NA,NA,NA,NA,sdf,NA,2,NA,NA,NA,NA,NA,NA,NA,NA,NA,NA,NA,NA,NA,NA,NA,NA,NA,NA,NA
a527d,task,flow.Sequence,3_0_2_0_1,NA,NA,completion,7291.66,433563,433560.46,433581.3,440872.96,440876,2023-10-19T09:40:25Z,440893.8,NULL,Schlange,foleni,d,NA,NA,NA,NA,sdf,NA,2,NA,NA,NA,NA,NA,NA,NA,NA,NA,NA,NA,NA,NA,NA,NA,NA,NA,NA,NA
a527d,deep,flow.Sequence,3_0_2_0_2_0,NA,NA,skipped,NA,440876,NA,NA,440872.96,440876,2023-10-19T09:40:25Z,440893.8,NULL,Vermutung,udhanifu,s,haramia,tikisho,itifaki,NA,sdf,NA,2,NA,NA,NA,NA,NA,NA,NA,NA,NA,NA,NA,NA,NA,NA,NA,NA,NA,NA,NA
a527d,Shallow Question,html.Page,3_0_2_0_2_1_0,NA,NA,form submission,10067.2,440877,440872.96,440893.8,450961,450962,2023-10-19T09:40:35Z,450956.36,NULL,Vermutung,udhanifu,s,haramia,tikisho,itifaki,udhanifu,NA,NA,2,NA,NA,NA,NA,NA,NA,NA,NA,NA,NA,NA,NA,NA,NA,NA,NA,NA,NA,NA
a527d,"""Richtig""-Screen",canvas.Screen,3_0_2_0_2_1_1,NA,NA,timeout,5000.02,450967,450955.5,450956.36,455935.56,455937,2023-10-19T09:40:40Z,455956.38,NULL,Vermutung,udhanifu,s,haramia,tikisho,itifaki,NA,sdf,1,2,NA,NA,NA,NA,NA,NA,NA,NA,NA,NA,NA,NA,NA,NA,NA,NA,NA,NA,NA
a527d,"""Falsch""-Screen",canvas.Screen,3_0_2_0_2_1_2,NA,NA,skipped,NA,455942,NA,NA,455935.56,455942,2023-10-19T09:40:40Z,455956.38,NULL,Vermutung,udhanifu,s,haramia,tikisho,itifaki,NA,sdf,NA,2,NA,NA,NA,NA,NA,NA,NA,NA,NA,NA,NA,NA,NA,NA,NA,NA,NA,NA,NA
a527d,shallow,flow.Sequence,3_0_2_0_2_1,NA,NA,completion,15041.76,440877,440872.96,440893.8,455935.56,455942,2023-10-19T09:40:40Z,455956.38,NULL,Vermutung,udhanifu,s,haramia,tikisho,itifaki,NA,sdf,NA,2,NA,NA,NA,NA,NA,NA,NA,NA,NA,NA,NA,NA,NA,NA,NA,NA,NA,NA,NA
a527d,task,flow.Sequence,3_0_2_0_2,NA,NA,completion,15041.76,440876,440872.96,440893.8,455935.56,455942,2023-10-19T09:40:40Z,455956.38,NULL,Vermutung,udhanifu,s,haramia,tikisho,itifaki,NA,sdf,NA,2,NA,NA,NA,NA,NA,NA,NA,NA,NA,NA,NA,NA,NA,NA,NA,NA,NA,NA,NA
a527d,deep,flow.Sequence,3_0_2_0_3_0,NA,NA,skipped,NA,455943,NA,NA,455935.56,455943,2023-10-19T09:40:40Z,455956.38,NULL,Fleisch,mshakiki,s,kizunguzungu,mshikamano,angusho,NA,sdf,NA,2,NA,NA,NA,NA,NA,NA,NA,NA,NA,NA,NA,NA,NA,NA,NA,NA,NA,NA,NA
a527d,Shallow Question,html.Page,3_0_2_0_3_1_0,NA,NA,form submission,5303.62,455943,455935.56,455956.38,461260,461261,2023-10-19T09:40:45Z,461268.86,NULL,Fleisch,mshakiki,s,kizunguzungu,mshikamano,angusho,mshakiki,NA,NA,2,NA,NA,NA,NA,NA,NA,NA,NA,NA,NA,NA,NA,NA,NA,NA,NA,NA,NA,NA
a527d,"""Richtig""-Screen",canvas.Screen,3_0_2_0_3_1_1,NA,NA,timeout,5000.06,461267,461255.42,461268.86,466248.12,466254,2023-10-19T09:40:50Z,466268.92,NULL,Fleisch,mshakiki,s,kizunguzungu,mshikamano,angusho,NA,sdf,1,2,NA,NA,NA,NA,NA,NA,NA,NA,NA,NA,NA,NA,NA,NA,NA,NA,NA,NA,NA
a527d,"""Falsch""-Screen",canvas.Screen,3_0_2_0_3_1_2,NA,NA,skipped,NA,466268,NA,NA,466248.12,466269,2023-10-19T09:40:50Z,466268.92,NULL,Fleisch,mshakiki,s,kizunguzungu,mshikamano,angusho,NA,sdf,NA,2,NA,NA,NA,NA,NA,NA,NA,NA,NA,NA,NA,NA,NA,NA,NA,NA,NA,NA,NA
a527d,shallow,flow.Sequence,3_0_2_0_3_1,NA,NA,completion,10291.74,455943,455935.56,455956.38,466248.12,466269,2023-10-19T09:40:50Z,466268.92,NULL,Fleisch,mshakiki,s,kizunguzungu,mshikamano,angusho,NA,sdf,NA,2,NA,NA,NA,NA,NA,NA,NA,NA,NA,NA,NA,NA,NA,NA,NA,NA,NA,NA,NA
a527d,task,flow.Sequence,3_0_2_0_3,NA,NA,completion,10291.74,455943,455935.56,455956.38,466248.12,466270,2023-10-19T09:40:50Z,466268.92,NULL,Fleisch,mshakiki,s,kizunguzungu,mshikamano,angusho,NA,sdf,NA,2,NA,NA,NA,NA,NA,NA,NA,NA,NA,NA,NA,NA,NA,NA,NA,NA,NA,NA,NA
a527d,Deep Question,html.Page,3_0_2_0_4_0_0,NA,NA,form submission,1929.08,466270,466248.12,466268.92,468198,468198,2023-10-19T09:40:52Z,468206.18,NULL,Begegnung,kukutana,d,NA,NA,NA,m,NA,NA,2,NA,NA,NA,NA,NA,NA,NA,NA,NA,NA,NA,NA,NA,NA,NA,NA,NA,NA,NA
a527d,"""Richtig""-Screen",canvas.Screen,3_0_2_0_4_0_1,NA,NA,skipped,NA,468201,NA,NA,468198,468201,2023-10-19T09:40:52Z,468206.18,NULL,Begegnung,kukutana,d,NA,NA,NA,NA,sdf,NA,2,NA,NA,NA,NA,NA,NA,NA,NA,NA,NA,NA,NA,NA,NA,NA,NA,NA,NA,NA
a527d,"""Falsch""-Screen",canvas.Screen,3_0_2_0_4_0_2,NA,NA,timeout,5000.26,468204,468196.54,468206.18,473185.62,473187,2023-10-19T09:40:57Z,473206.44,NULL,Begegnung,kukutana,d,NA,NA,NA,NA,sdf,0,2,NA,NA,NA,NA,NA,NA,NA,NA,NA,NA,NA,NA,NA,NA,NA,NA,NA,NA,NA
a527d,deep,flow.Sequence,3_0_2_0_4_0,NA,NA,completion,6916.7,466270,466248.12,466268.92,473185.62,473188,2023-10-19T09:40:57Z,473206.44,NULL,Begegnung,kukutana,d,NA,NA,NA,NA,sdf,NA,2,NA,NA,NA,NA,NA,NA,NA,NA,NA,NA,NA,NA,NA,NA,NA,NA,NA,NA,NA
a527d,shallow,flow.Sequence,3_0_2_0_4_1,NA,NA,skipped,NA,473188,NA,NA,473185.62,473188,2023-10-19T09:40:57Z,473206.44,NULL,Begegnung,kukutana,d,NA,NA,NA,NA,sdf,NA,2,NA,NA,NA,NA,NA,NA,NA,NA,NA,NA,NA,NA,NA,NA,NA,NA,NA,NA,NA
a527d,task,flow.Sequence,3_0_2_0_4,NA,NA,completion,6916.7,466270,466248.12,466268.92,473185.62,473189,2023-10-19T09:40:57Z,473206.44,NULL,Begegnung,kukutana,d,NA,NA,NA,NA,sdf,NA,2,NA,NA,NA,NA,NA,NA,NA,NA,NA,NA,NA,NA,NA,NA,NA,NA,NA,NA,NA
a527d,deep,flow.Sequence,3_0_2_0_5_0,NA,NA,skipped,NA,473190,NA,NA,473185.62,473190,2023-10-19T09:40:57Z,473206.44,NULL,Inhalt,yaliyomo,s,kishawishi,hifadhi,kutembea,NA,sdf,NA,2,NA,NA,NA,NA,NA,NA,NA,NA,NA,NA,NA,NA,NA,NA,NA,NA,NA,NA,NA
a527d,Shallow Question,html.Page,3_0_2_0_5_1_0,NA,NA,form submission,4713.56,473190,473185.62,473206.44,477920,477921,2023-10-19T09:41:02Z,477914.74,NULL,Inhalt,yaliyomo,s,kishawishi,hifadhi,kutembea,yaliyomo,NA,NA,2,NA,NA,NA,NA,NA,NA,NA,NA,NA,NA,NA,NA,NA,NA,NA,NA,NA,NA,NA
a527d,"""Richtig""-Screen",canvas.Screen,3_0_2_0_5_1_1,NA,NA,timeout,5000.02,477926,477914.5,477914.74,482893.92,482895,2023-10-19T09:41:07Z,482914.76,NULL,Inhalt,yaliyomo,s,kishawishi,hifadhi,kutembea,NA,sdf,1,2,NA,NA,NA,NA,NA,NA,NA,NA,NA,NA,NA,NA,NA,NA,NA,NA,NA,NA,NA
a527d,"""Falsch""-Screen",canvas.Screen,3_0_2_0_5_1_2,NA,NA,skipped,NA,482902,NA,NA,482893.92,482902,2023-10-19T09:41:07Z,482914.76,NULL,Inhalt,yaliyomo,s,kishawishi,hifadhi,kutembea,NA,sdf,NA,2,NA,NA,NA,NA,NA,NA,NA,NA,NA,NA,NA,NA,NA,NA,NA,NA,NA,NA,NA
a527d,shallow,flow.Sequence,3_0_2_0_5_1,NA,NA,completion,9687.48,473190,473185.62,473206.44,482893.92,482903,2023-10-19T09:41:07Z,482914.76,NULL,Inhalt,yaliyomo,s,kishawishi,hifadhi,kutembea,NA,sdf,NA,2,NA,NA,NA,NA,NA,NA,NA,NA,NA,NA,NA,NA,NA,NA,NA,NA,NA,NA,NA
a527d,task,flow.Sequence,3_0_2_0_5,NA,NA,completion,9687.48,473189,473185.62,473206.44,482893.92,482903,2023-10-19T09:41:07Z,482914.76,NULL,Inhalt,yaliyomo,s,kishawishi,hifadhi,kutembea,NA,sdf,NA,2,NA,NA,NA,NA,NA,NA,NA,NA,NA,NA,NA,NA,NA,NA,NA,NA,NA,NA,NA
a527d,deep,flow.Sequence,3_0_2_0_6_0,NA,NA,skipped,NA,482903,NA,NA,482893.92,482903,2023-10-19T09:41:07Z,482914.76,NULL,Integrität,uadilifu,s,muungano,mtiririko,upunguaji,NA,sdf,NA,2,NA,NA,NA,NA,NA,NA,NA,NA,NA,NA,NA,NA,NA,NA,NA,NA,NA,NA,NA
a527d,Shallow Question,html.Page,3_0_2_0_6_1_0,NA,NA,form submission,5337.24,482904,482893.92,482914.76,488252,488252,2023-10-19T09:41:12Z,488268.94,NULL,Integrität,uadilifu,s,muungano,mtiririko,upunguaji,uadilifu,NA,NA,2,NA,NA,NA,NA,NA,NA,NA,NA,NA,NA,NA,NA,NA,NA,NA,NA,NA,NA,NA
a527d,"""Richtig""-Screen",canvas.Screen,3_0_2_0_6_1_1,NA,NA,timeout,5000.02,488254,488250.18,488268.94,493248.12,493249,2023-10-19T09:41:17Z,493268.96,NULL,Integrität,uadilifu,s,muungano,mtiririko,upunguaji,NA,sdf,1,2,NA,NA,NA,NA,NA,NA,NA,NA,NA,NA,NA,NA,NA,NA,NA,NA,NA,NA,NA
a527d,"""Falsch""-Screen",canvas.Screen,3_0_2_0_6_1_2,NA,NA,skipped,NA,493257,NA,NA,493248.12,493258,2023-10-19T09:41:17Z,493268.96,NULL,Integrität,uadilifu,s,muungano,mtiririko,upunguaji,NA,sdf,NA,2,NA,NA,NA,NA,NA,NA,NA,NA,NA,NA,NA,NA,NA,NA,NA,NA,NA,NA,NA
a527d,shallow,flow.Sequence,3_0_2_0_6_1,NA,NA,completion,10333.36,482903,482893.92,482914.76,493248.12,493258,2023-10-19T09:41:17Z,493268.96,NULL,Integrität,uadilifu,s,muungano,mtiririko,upunguaji,NA,sdf,NA,2,NA,NA,NA,NA,NA,NA,NA,NA,NA,NA,NA,NA,NA,NA,NA,NA,NA,NA,NA
a527d,task,flow.Sequence,3_0_2_0_6,NA,NA,completion,10333.36,482903,482893.92,482914.76,493248.12,493259,2023-10-19T09:41:17Z,493268.96,NULL,Integrität,uadilifu,s,muungano,mtiririko,upunguaji,NA,sdf,NA,2,NA,NA,NA,NA,NA,NA,NA,NA,NA,NA,NA,NA,NA,NA,NA,NA,NA,NA,NA
a527d,Deep Question,html.Page,3_0_2_0_7_0_0,NA,NA,form submission,3305.04,493259,493248.12,493268.96,496574,496574,2023-10-19T09:41:21Z,496581.44,NULL,Genehmigung,idhini,d,NA,NA,NA,s,NA,NA,2,NA,NA,NA,NA,NA,NA,NA,NA,NA,NA,NA,NA,NA,NA,NA,NA,NA,NA,NA
a527d,"""Richtig""-Screen",canvas.Screen,3_0_2_0_7_0_1,NA,NA,skipped,NA,496577,NA,NA,496574,496577,2023-10-19T09:41:21Z,496581.44,NULL,Genehmigung,idhini,d,NA,NA,NA,NA,sdf,NA,2,NA,NA,NA,NA,NA,NA,NA,NA,NA,NA,NA,NA,NA,NA,NA,NA,NA,NA,NA
a527d,"""Falsch""-Screen",canvas.Screen,3_0_2_0_7_0_2,NA,NA,timeout,5000.06,496580,496572.82,496581.44,501560.66,501561,2023-10-19T09:41:26Z,501581.5,NULL,Genehmigung,idhini,d,NA,NA,NA,NA,sdf,0,2,NA,NA,NA,NA,NA,NA,NA,NA,NA,NA,NA,NA,NA,NA,NA,NA,NA,NA,NA
a527d,deep,flow.Sequence,3_0_2_0_7_0,NA,NA,completion,8291.7,493259,493248.12,493268.96,501560.66,501561,2023-10-19T09:41:26Z,501581.5,NULL,Genehmigung,idhini,d,NA,NA,NA,NA,sdf,NA,2,NA,NA,NA,NA,NA,NA,NA,NA,NA,NA,NA,NA,NA,NA,NA,NA,NA,NA,NA
a527d,shallow,flow.Sequence,3_0_2_0_7_1,NA,NA,skipped,NA,501562,NA,NA,501560.66,501562,2023-10-19T09:41:26Z,501581.5,NULL,Genehmigung,idhini,d,NA,NA,NA,NA,sdf,NA,2,NA,NA,NA,NA,NA,NA,NA,NA,NA,NA,NA,NA,NA,NA,NA,NA,NA,NA,NA
a527d,task,flow.Sequence,3_0_2_0_7,NA,NA,completion,8291.7,493259,493248.12,493268.96,501560.66,501562,2023-10-19T09:41:26Z,501581.5,NULL,Genehmigung,idhini,d,NA,NA,NA,NA,sdf,NA,2,NA,NA,NA,NA,NA,NA,NA,NA,NA,NA,NA,NA,NA,NA,NA,NA,NA,NA,NA
a527d,block,flow.Loop,3_0_2_0,NA,NA,completion,81972.18,419588,419588.12,419588.48,501560.66,501563,2023-10-19T09:41:26Z,501581.5,NULL,NA,NA,NA,NA,NA,NA,NA,sdf,NA,2,NA,NA,NA,NA,NA,NA,NA,NA,NA,NA,NA,NA,NA,NA,NA,NA,NA,NA,NA
a527d,weiter,canvas.Screen,3_0_2_1,sdf,keypress(Space),response,1463.5,501563,501560.66,501581.5,503045,503060,2023-10-19T09:41:27Z,503123.12,NULL,NA,NA,NA,NA,NA,NA,NA,sdf,NA,2,NA,NA,NA,NA,NA,NA,NA,NA,NA,NA,NA,NA,NA,NA,NA,NA,NA,NA,NA
a527d,check continue,flow.Sequence,3_0_2,NA,NA,completion,83456.52,419588,419588.12,419588.48,503045,503060,2023-10-19T09:41:27Z,503123.12,NULL,NA,NA,NA,NA,NA,NA,NA,sdf,NA,2,NA,NA,NA,NA,NA,NA,NA,NA,NA,NA,NA,NA,NA,NA,NA,NA,NA,NA,NA
a527d,Deep Question,html.Page,3_0_3_0_0_0_0,NA,NA,form submission,3751.88,503121,503121.58,503123.12,506875,506875,2023-10-19T09:41:31Z,506873.48,NULL,Toleranz,kuvumiliana,d,NA,NA,NA,kuvumiliana,NA,NA,3,NA,NA,NA,NA,NA,NA,NA,NA,NA,NA,NA,NA,NA,NA,NA,NA,NA,NA,NA
a527d,"""Richtig""-Screen",canvas.Screen,3_0_3_0_0_0_1,NA,NA,timeout,4999.7,506877,506873.18,506873.48,511852.34,511854,2023-10-19T09:41:36Z,511873.18,NULL,Toleranz,kuvumiliana,d,NA,NA,NA,NA,qt,1,3,NA,NA,NA,NA,NA,NA,NA,NA,NA,NA,NA,NA,NA,NA,NA,NA,NA,NA,NA
a527d,"""Falsch""-Screen",canvas.Screen,3_0_3_0_0_0_2,NA,NA,skipped,NA,511858,NA,NA,511852.34,511860,2023-10-19T09:41:36Z,511873.18,NULL,Toleranz,kuvumiliana,d,NA,NA,NA,NA,qt,NA,3,NA,NA,NA,NA,NA,NA,NA,NA,NA,NA,NA,NA,NA,NA,NA,NA,NA,NA,NA
a527d,deep,flow.Sequence,3_0_3_0_0_0,NA,NA,completion,8729.22,503121,503121.58,503123.12,511852.34,511860,2023-10-19T09:41:36Z,511873.18,NULL,Toleranz,kuvumiliana,d,NA,NA,NA,NA,qt,NA,3,NA,NA,NA,NA,NA,NA,NA,NA,NA,NA,NA,NA,NA,NA,NA,NA,NA,NA,NA
a527d,shallow,flow.Sequence,3_0_3_0_0_1,NA,NA,skipped,NA,511860,NA,NA,511852.34,511860,2023-10-19T09:41:36Z,511873.18,NULL,Toleranz,kuvumiliana,d,NA,NA,NA,NA,qt,NA,3,NA,NA,NA,NA,NA,NA,NA,NA,NA,NA,NA,NA,NA,NA,NA,NA,NA,NA,NA
a527d,task,flow.Sequence,3_0_3_0_0,NA,NA,completion,8729.22,503121,503121.58,503123.12,511852.34,511860,2023-10-19T09:41:36Z,511873.18,NULL,Toleranz,kuvumiliana,d,NA,NA,NA,NA,qt,NA,3,NA,NA,NA,NA,NA,NA,NA,NA,NA,NA,NA,NA,NA,NA,NA,NA,NA,NA,NA
a527d,deep,flow.Sequence,3_0_3_0_1_0,NA,NA,skipped,NA,511860,NA,NA,511852.34,511860,2023-10-19T09:41:36Z,511873.18,NULL,Inhalt,yaliyomo,s,kishawishi,hifadhi,kutembea,NA,qt,NA,3,NA,NA,NA,NA,NA,NA,NA,NA,NA,NA,NA,NA,NA,NA,NA,NA,NA,NA,NA
a527d,Shallow Question,html.Page,3_0_3_0_1_1_0,NA,NA,form submission,4205.82,511860,511852.34,511873.18,516079,516079,2023-10-19T09:41:40Z,516081.36,NULL,Inhalt,yaliyomo,s,kishawishi,hifadhi,kutembea,yaliyomo,NA,NA,3,NA,NA,NA,NA,NA,NA,NA,NA,NA,NA,NA,NA,NA,NA,NA,NA,NA,NA,NA
a527d,"""Richtig""-Screen",canvas.Screen,3_0_3_0_1_1_1,NA,NA,timeout,5000.12,516081,516074.38,516081.36,521060.68,521062,2023-10-19T09:41:45Z,521081.48,NULL,Inhalt,yaliyomo,s,kishawishi,hifadhi,kutembea,NA,qt,1,3,NA,NA,NA,NA,NA,NA,NA,NA,NA,NA,NA,NA,NA,NA,NA,NA,NA,NA,NA
a527d,"""Falsch""-Screen",canvas.Screen,3_0_3_0_1_1_2,NA,NA,skipped,NA,521067,NA,NA,521060.68,521067,2023-10-19T09:41:45Z,521081.48,NULL,Inhalt,yaliyomo,s,kishawishi,hifadhi,kutembea,NA,qt,NA,3,NA,NA,NA,NA,NA,NA,NA,NA,NA,NA,NA,NA,NA,NA,NA,NA,NA,NA,NA
a527d,shallow,flow.Sequence,3_0_3_0_1_1,NA,NA,completion,9187.5,511860,511852.34,511873.18,521060.68,521068,2023-10-19T09:41:45Z,521081.48,NULL,Inhalt,yaliyomo,s,kishawishi,hifadhi,kutembea,NA,qt,NA,3,NA,NA,NA,NA,NA,NA,NA,NA,NA,NA,NA,NA,NA,NA,NA,NA,NA,NA,NA
a527d,task,flow.Sequence,3_0_3_0_1,NA,NA,completion,9187.5,511860,511852.34,511873.18,521060.68,521068,2023-10-19T09:41:45Z,521081.48,NULL,Inhalt,yaliyomo,s,kishawishi,hifadhi,kutembea,NA,qt,NA,3,NA,NA,NA,NA,NA,NA,NA,NA,NA,NA,NA,NA,NA,NA,NA,NA,NA,NA,NA
a527d,deep,flow.Sequence,3_0_3_0_2_0,NA,NA,skipped,NA,521068,NA,NA,521060.68,521068,2023-10-19T09:41:45Z,521081.48,NULL,Integrität,uadilifu,s,muungano,mtiririko,upunguaji,NA,qt,NA,3,NA,NA,NA,NA,NA,NA,NA,NA,NA,NA,NA,NA,NA,NA,NA,NA,NA,NA,NA
a527d,Shallow Question,html.Page,3_0_3_0_2_1_0,NA,NA,form submission,8606.52,521068,521060.68,521081.48,529688,529689,2023-10-19T09:41:54Z,529685.66,NULL,Integrität,uadilifu,s,muungano,mtiririko,upunguaji,uadilifu,NA,NA,3,NA,NA,NA,NA,NA,NA,NA,NA,NA,NA,NA,NA,NA,NA,NA,NA,NA,NA,NA
a527d,"""Richtig""-Screen",canvas.Screen,3_0_3_0_2_1_1,NA,NA,timeout,5000.1,529693,529681.08,529685.66,534664.92,534666,2023-10-19T09:41:59Z,534685.76,NULL,Integrität,uadilifu,s,muungano,mtiririko,upunguaji,NA,qt,1,3,NA,NA,NA,NA,NA,NA,NA,NA,NA,NA,NA,NA,NA,NA,NA,NA,NA,NA,NA
a527d,"""Falsch""-Screen",canvas.Screen,3_0_3_0_2_1_2,NA,NA,skipped,NA,534675,NA,NA,534664.92,534675,2023-10-19T09:41:59Z,534685.76,NULL,Integrität,uadilifu,s,muungano,mtiririko,upunguaji,NA,qt,NA,3,NA,NA,NA,NA,NA,NA,NA,NA,NA,NA,NA,NA,NA,NA,NA,NA,NA,NA,NA
a527d,shallow,flow.Sequence,3_0_3_0_2_1,NA,NA,completion,13583.44,521068,521060.68,521081.48,534664.92,534675,2023-10-19T09:41:59Z,534685.76,NULL,Integrität,uadilifu,s,muungano,mtiririko,upunguaji,NA,qt,NA,3,NA,NA,NA,NA,NA,NA,NA,NA,NA,NA,NA,NA,NA,NA,NA,NA,NA,NA,NA
a527d,task,flow.Sequence,3_0_3_0_2,NA,NA,completion,13583.44,521068,521060.68,521081.48,534664.92,534676,2023-10-19T09:41:59Z,534685.76,NULL,Integrität,uadilifu,s,muungano,mtiririko,upunguaji,NA,qt,NA,3,NA,NA,NA,NA,NA,NA,NA,NA,NA,NA,NA,NA,NA,NA,NA,NA,NA,NA,NA
a527d,Deep Question,html.Page,3_0_3_0_3_0_0,NA,NA,form submission,6897.24,534676,534664.92,534685.76,541583,541583,2023-10-19T09:42:06Z,541602.4,NULL,Genehmigung,idhini,d,NA,NA,NA,tahini,NA,NA,3,NA,NA,NA,NA,NA,NA,NA,NA,NA,NA,NA,NA,NA,NA,NA,NA,NA,NA,NA
a527d,"""Richtig""-Screen",canvas.Screen,3_0_3_0_3_0_1,NA,NA,skipped,NA,541584,NA,NA,541583,541584,2023-10-19T09:42:06Z,541602.4,NULL,Genehmigung,idhini,d,NA,NA,NA,NA,qt,NA,3,NA,NA,NA,NA,NA,NA,NA,NA,NA,NA,NA,NA,NA,NA,NA,NA,NA,NA,NA
a527d,"""Falsch""-Screen",canvas.Screen,3_0_3_0_3_0_2,NA,NA,timeout,5000.0599999999,541587,541581.8,541602.4,546581.62,546583,2023-10-19T09:42:11Z,546602.46,NULL,Genehmigung,idhini,d,NA,NA,NA,NA,qt,0,3,NA,NA,NA,NA,NA,NA,NA,NA,NA,NA,NA,NA,NA,NA,NA,NA,NA,NA,NA
a527d,deep,flow.Sequence,3_0_3_0_3_0,NA,NA,completion,11895.86,534676,534664.92,534685.76,546581.62,546584,2023-10-19T09:42:11Z,546602.46,NULL,Genehmigung,idhini,d,NA,NA,NA,NA,qt,NA,3,NA,NA,NA,NA,NA,NA,NA,NA,NA,NA,NA,NA,NA,NA,NA,NA,NA,NA,NA
a527d,shallow,flow.Sequence,3_0_3_0_3_1,NA,NA,skipped,NA,546584,NA,NA,546581.62,546585,2023-10-19T09:42:11Z,546602.46,NULL,Genehmigung,idhini,d,NA,NA,NA,NA,qt,NA,3,NA,NA,NA,NA,NA,NA,NA,NA,NA,NA,NA,NA,NA,NA,NA,NA,NA,NA,NA
a527d,task,flow.Sequence,3_0_3_0_3,NA,NA,completion,11895.86,534676,534664.92,534685.76,546581.62,546586,2023-10-19T09:42:11Z,546602.46,NULL,Genehmigung,idhini,d,NA,NA,NA,NA,qt,NA,3,NA,NA,NA,NA,NA,NA,NA,NA,NA,NA,NA,NA,NA,NA,NA,NA,NA,NA,NA
a527d,Deep Question,html.Page,3_0_3_0_4_0_0,NA,NA,form submission,3462.54,546587,546581.62,546602.46,550065,550065,2023-10-19T09:42:14Z,550081.56,NULL,Begegnung,kukutana,d,NA,NA,NA,a,NA,NA,3,NA,NA,NA,NA,NA,NA,NA,NA,NA,NA,NA,NA,NA,NA,NA,NA,NA,NA,NA
a527d,"""Richtig""-Screen",canvas.Screen,3_0_3_0_4_0_1,NA,NA,skipped,NA,550067,NA,NA,550065,550067,2023-10-19T09:42:14Z,550081.56,NULL,Begegnung,kukutana,d,NA,NA,NA,NA,qt,NA,3,NA,NA,NA,NA,NA,NA,NA,NA,NA,NA,NA,NA,NA,NA,NA,NA,NA,NA,NA
a527d,"""Falsch""-Screen",canvas.Screen,3_0_3_0_4_0_2,NA,NA,timeout,5000.08,550070,550063.74,550081.56,555060.8,555063,2023-10-19T09:42:19Z,555081.64,NULL,Begegnung,kukutana,d,NA,NA,NA,NA,qt,0,3,NA,NA,NA,NA,NA,NA,NA,NA,NA,NA,NA,NA,NA,NA,NA,NA,NA,NA,NA
a527d,deep,flow.Sequence,3_0_3_0_4_0,NA,NA,completion,8458.3400000001,546586,546581.62,546602.46,555060.8,555064,2023-10-19T09:42:19Z,555081.64,NULL,Begegnung,kukutana,d,NA,NA,NA,NA,qt,NA,3,NA,NA,NA,NA,NA,NA,NA,NA,NA,NA,NA,NA,NA,NA,NA,NA,NA,NA,NA
a527d,shallow,flow.Sequence,3_0_3_0_4_1,NA,NA,skipped,NA,555064,NA,NA,555060.8,555065,2023-10-19T09:42:19Z,555081.64,NULL,Begegnung,kukutana,d,NA,NA,NA,NA,qt,NA,3,NA,NA,NA,NA,NA,NA,NA,NA,NA,NA,NA,NA,NA,NA,NA,NA,NA,NA,NA
a527d,task,flow.Sequence,3_0_3_0_4,NA,NA,completion,8458.3400000001,546586,546581.62,546602.46,555060.8,555065,2023-10-19T09:42:19Z,555081.64,NULL,Begegnung,kukutana,d,NA,NA,NA,NA,qt,NA,3,NA,NA,NA,NA,NA,NA,NA,NA,NA,NA,NA,NA,NA,NA,NA,NA,NA,NA,NA
a527d,Deep Question,html.Page,3_0_3_0_5_0_0,NA,NA,form submission,3367.36,555066,555060.8,555081.64,558449,558450,2023-10-19T09:42:23Z,558456.6,NULL,Schlange,foleni,d,NA,NA,NA,foleni,NA,NA,3,NA,NA,NA,NA,NA,NA,NA,NA,NA,NA,NA,NA,NA,NA,NA,NA,NA,NA,NA
a527d,"""Richtig""-Screen",canvas.Screen,3_0_3_0_5_0_1,NA,NA,timeout,5000.04,558453,558448,558456.6,563435.84,563437,2023-10-19T09:42:28Z,563456.64,NULL,Schlange,foleni,d,NA,NA,NA,NA,qt,1,3,NA,NA,NA,NA,NA,NA,NA,NA,NA,NA,NA,NA,NA,NA,NA,NA,NA,NA,NA
a527d,"""Falsch""-Screen",canvas.Screen,3_0_3_0_5_0_2,NA,NA,skipped,NA,563443,NA,NA,563435.84,563444,2023-10-19T09:42:28Z,563456.64,NULL,Schlange,foleni,d,NA,NA,NA,NA,qt,NA,3,NA,NA,NA,NA,NA,NA,NA,NA,NA,NA,NA,NA,NA,NA,NA,NA,NA,NA,NA
a527d,deep,flow.Sequence,3_0_3_0_5_0,NA,NA,completion,8354.2,555066,555060.8,555081.64,563435.84,563445,2023-10-19T09:42:28Z,563456.64,NULL,Schlange,foleni,d,NA,NA,NA,NA,qt,NA,3,NA,NA,NA,NA,NA,NA,NA,NA,NA,NA,NA,NA,NA,NA,NA,NA,NA,NA,NA
a527d,shallow,flow.Sequence,3_0_3_0_5_1,NA,NA,skipped,NA,563445,NA,NA,563435.84,563446,2023-10-19T09:42:28Z,563456.64,NULL,Schlange,foleni,d,NA,NA,NA,NA,qt,NA,3,NA,NA,NA,NA,NA,NA,NA,NA,NA,NA,NA,NA,NA,NA,NA,NA,NA,NA,NA
a527d,task,flow.Sequence,3_0_3_0_5,NA,NA,completion,8354.2,555065,555060.8,555081.64,563435.84,563446,2023-10-19T09:42:28Z,563456.64,NULL,Schlange,foleni,d,NA,NA,NA,NA,qt,NA,3,NA,NA,NA,NA,NA,NA,NA,NA,NA,NA,NA,NA,NA,NA,NA,NA,NA,NA,NA
a527d,deep,flow.Sequence,3_0_3_0_6_0,NA,NA,skipped,NA,563446,NA,NA,563435.84,563446,2023-10-19T09:42:28Z,563456.64,NULL,Vermutung,udhanifu,s,haramia,tikisho,itifaki,NA,qt,NA,3,NA,NA,NA,NA,NA,NA,NA,NA,NA,NA,NA,NA,NA,NA,NA,NA,NA,NA,NA
a527d,Shallow Question,html.Page,3_0_3_0_6_1_0,NA,NA,form submission,7649.36,563446,563435.84,563456.64,571106,571107,2023-10-19T09:42:35Z,571102.48,NULL,Vermutung,udhanifu,s,haramia,tikisho,itifaki,udhanifu,NA,NA,3,NA,NA,NA,NA,NA,NA,NA,NA,NA,NA,NA,NA,NA,NA,NA,NA,NA,NA,NA
a527d,"""Richtig""-Screen",canvas.Screen,3_0_3_0_6_1_1,NA,NA,timeout,5000.1,571112,571099.06,571102.48,576081.74,576083,2023-10-19T09:42:40Z,576102.58,NULL,Vermutung,udhanifu,s,haramia,tikisho,itifaki,NA,qt,1,3,NA,NA,NA,NA,NA,NA,NA,NA,NA,NA,NA,NA,NA,NA,NA,NA,NA,NA,NA
a527d,"""Falsch""-Screen",canvas.Screen,3_0_3_0_6_1_2,NA,NA,skipped,NA,576089,NA,NA,576081.74,576090,2023-10-19T09:42:40Z,576102.58,NULL,Vermutung,udhanifu,s,haramia,tikisho,itifaki,NA,qt,NA,3,NA,NA,NA,NA,NA,NA,NA,NA,NA,NA,NA,NA,NA,NA,NA,NA,NA,NA,NA
a527d,shallow,flow.Sequence,3_0_3_0_6_1,NA,NA,completion,12625.1,563446,563435.84,563456.64,576081.74,576090,2023-10-19T09:42:40Z,576102.58,NULL,Vermutung,udhanifu,s,haramia,tikisho,itifaki,NA,qt,NA,3,NA,NA,NA,NA,NA,NA,NA,NA,NA,NA,NA,NA,NA,NA,NA,NA,NA,NA,NA
a527d,task,flow.Sequence,3_0_3_0_6,NA,NA,completion,12625.1,563446,563435.84,563456.64,576081.74,576090,2023-10-19T09:42:40Z,576102.58,NULL,Vermutung,udhanifu,s,haramia,tikisho,itifaki,NA,qt,NA,3,NA,NA,NA,NA,NA,NA,NA,NA,NA,NA,NA,NA,NA,NA,NA,NA,NA,NA,NA
a527d,deep,flow.Sequence,3_0_3_0_7_0,NA,NA,skipped,NA,576091,NA,NA,576081.74,576091,2023-10-19T09:42:40Z,576102.58,NULL,Fleisch,mshakiki,s,kizunguzungu,mshikamano,angusho,NA,qt,NA,3,NA,NA,NA,NA,NA,NA,NA,NA,NA,NA,NA,NA,NA,NA,NA,NA,NA,NA,NA
a527d,Shallow Question,html.Page,3_0_3_0_7_1_0,NA,NA,form submission,4117.42,576091,576081.74,576102.58,580220,580221,2023-10-19T09:42:44Z,580227.38,NULL,Fleisch,mshakiki,s,kizunguzungu,mshikamano,angusho,mshakiki,NA,NA,3,NA,NA,NA,NA,NA,NA,NA,NA,NA,NA,NA,NA,NA,NA,NA,NA,NA,NA,NA
a527d,"""Richtig""-Screen",canvas.Screen,3_0_3_0_7_1_1,NA,NA,timeout,5000.22,580226,580215.8,580227.38,585206.76,585208,2023-10-19T09:42:49Z,585227.6,NULL,Fleisch,mshakiki,s,kizunguzungu,mshikamano,angusho,NA,qt,1,3,NA,NA,NA,NA,NA,NA,NA,NA,NA,NA,NA,NA,NA,NA,NA,NA,NA,NA,NA
a527d,"""Falsch""-Screen",canvas.Screen,3_0_3_0_7_1_2,NA,NA,skipped,NA,585212,NA,NA,585206.76,585212,2023-10-19T09:42:49Z,585227.6,NULL,Fleisch,mshakiki,s,kizunguzungu,mshikamano,angusho,NA,qt,NA,3,NA,NA,NA,NA,NA,NA,NA,NA,NA,NA,NA,NA,NA,NA,NA,NA,NA,NA,NA
a527d,shallow,flow.Sequence,3_0_3_0_7_1,NA,NA,completion,9104.1800000001,576091,576081.74,576102.58,585206.76,585212,2023-10-19T09:42:49Z,585227.6,NULL,Fleisch,mshakiki,s,kizunguzungu,mshikamano,angusho,NA,qt,NA,3,NA,NA,NA,NA,NA,NA,NA,NA,NA,NA,NA,NA,NA,NA,NA,NA,NA,NA,NA
a527d,task,flow.Sequence,3_0_3_0_7,NA,NA,completion,9104.1800000001,576091,576081.74,576102.58,585206.76,585213,2023-10-19T09:42:49Z,585227.6,NULL,Fleisch,mshakiki,s,kizunguzungu,mshikamano,angusho,NA,qt,NA,3,NA,NA,NA,NA,NA,NA,NA,NA,NA,NA,NA,NA,NA,NA,NA,NA,NA,NA,NA
a527d,block,flow.Loop,3_0_3_0,NA,NA,completion,82083.64,503121,503121.58,503123.12,585206.76,585213,2023-10-19T09:42:49Z,585227.6,NULL,NA,NA,NA,NA,NA,NA,NA,qt,NA,3,NA,NA,NA,NA,NA,NA,NA,NA,NA,NA,NA,NA,NA,NA,NA,NA,NA,NA,NA
a527d,weiter,canvas.Screen,3_0_3_1,sdf,keypress(Space),response,473.40000000002,585213,585206.76,585227.6,585701,585706,2023-10-19T09:42:50Z,585770.04,NULL,NA,NA,NA,NA,NA,NA,NA,qt,NA,3,NA,NA,NA,NA,NA,NA,NA,NA,NA,NA,NA,NA,NA,NA,NA,NA,NA,NA,NA
a527d,check continue,flow.Sequence,3_0_3,NA,NA,completion,82577.88,503121,503121.58,503123.12,585701,585707,2023-10-19T09:42:50Z,585770.04,NULL,NA,NA,NA,NA,NA,NA,NA,qt,NA,3,NA,NA,NA,NA,NA,NA,NA,NA,NA,NA,NA,NA,NA,NA,NA,NA,NA,NA,NA
a527d,Deep Question,html.Page,3_0_4_0_0_0_0,NA,NA,form submission,2620.96,585769,585769.74,585770.04,588391,588391,2023-10-19T09:42:53Z,588394.2,NULL,Begegnung,kukutana,d,NA,NA,NA,kukutana,NA,NA,4,NA,NA,NA,NA,NA,NA,NA,NA,NA,NA,NA,NA,NA,NA,NA,NA,NA,NA,NA
a527d,"""Richtig""-Screen",canvas.Screen,3_0_4_0_0_0_1,NA,NA,timeout,5000.0800000001,588393,588389.74,588394.2,593373.46,593377,2023-10-19T09:42:57Z,593394.28,NULL,Begegnung,kukutana,d,NA,NA,NA,NA,sd,1,4,NA,NA,NA,NA,NA,NA,NA,NA,NA,NA,NA,NA,NA,NA,NA,NA,NA,NA,NA
a527d,"""Falsch""-Screen",canvas.Screen,3_0_4_0_0_0_2,NA,NA,skipped,NA,593391,NA,NA,593373.46,593391,2023-10-19T09:42:58Z,593394.28,NULL,Begegnung,kukutana,d,NA,NA,NA,NA,sd,NA,4,NA,NA,NA,NA,NA,NA,NA,NA,NA,NA,NA,NA,NA,NA,NA,NA,NA,NA,NA
a527d,deep,flow.Sequence,3_0_4_0_0_0,NA,NA,completion,7603.4199999999,585769,585769.74,585770.04,593373.46,593392,2023-10-19T09:42:58Z,593394.28,NULL,Begegnung,kukutana,d,NA,NA,NA,NA,sd,NA,4,NA,NA,NA,NA,NA,NA,NA,NA,NA,NA,NA,NA,NA,NA,NA,NA,NA,NA,NA
a527d,shallow,flow.Sequence,3_0_4_0_0_1,NA,NA,skipped,NA,593392,NA,NA,593373.46,593392,2023-10-19T09:42:58Z,593394.28,NULL,Begegnung,kukutana,d,NA,NA,NA,NA,sd,NA,4,NA,NA,NA,NA,NA,NA,NA,NA,NA,NA,NA,NA,NA,NA,NA,NA,NA,NA,NA
a527d,task,flow.Sequence,3_0_4_0_0,NA,NA,completion,7603.4199999999,585769,585769.74,585770.04,593373.46,593393,2023-10-19T09:42:58Z,593394.28,NULL,Begegnung,kukutana,d,NA,NA,NA,NA,sd,NA,4,NA,NA,NA,NA,NA,NA,NA,NA,NA,NA,NA,NA,NA,NA,NA,NA,NA,NA,NA
a527d,Deep Question,html.Page,3_0_4_0_1_0_0,NA,NA,form submission,2278.72,593394,593373.46,593394.28,595673,595673,2023-10-19T09:43:00Z,595685.7,NULL,Genehmigung,idhini,d,NA,NA,NA,idhini,NA,NA,4,NA,NA,NA,NA,NA,NA,NA,NA,NA,NA,NA,NA,NA,NA,NA,NA,NA,NA,NA
a527d,"""Richtig""-Screen",canvas.Screen,3_0_4_0_1_0_1,NA,NA,timeout,5000.2000000001,595677,595671.54,595685.7,600665.06,600667,2023-10-19T09:43:05Z,600685.9,NULL,Genehmigung,idhini,d,NA,NA,NA,NA,sd,1,4,NA,NA,NA,NA,NA,NA,NA,NA,NA,NA,NA,NA,NA,NA,NA,NA,NA,NA,NA
a527d,"""Falsch""-Screen",canvas.Screen,3_0_4_0_1_0_2,NA,NA,skipped,NA,600669,NA,NA,600665.06,600669,2023-10-19T09:43:05Z,600685.9,NULL,Genehmigung,idhini,d,NA,NA,NA,NA,sd,NA,4,NA,NA,NA,NA,NA,NA,NA,NA,NA,NA,NA,NA,NA,NA,NA,NA,NA,NA,NA
a527d,deep,flow.Sequence,3_0_4_0_1_0,NA,NA,completion,7270.78,593394,593373.46,593394.28,600665.06,600670,2023-10-19T09:43:05Z,600685.9,NULL,Genehmigung,idhini,d,NA,NA,NA,NA,sd,NA,4,NA,NA,NA,NA,NA,NA,NA,NA,NA,NA,NA,NA,NA,NA,NA,NA,NA,NA,NA
a527d,shallow,flow.Sequence,3_0_4_0_1_1,NA,NA,skipped,NA,600670,NA,NA,600665.06,600670,2023-10-19T09:43:05Z,600685.9,NULL,Genehmigung,idhini,d,NA,NA,NA,NA,sd,NA,4,NA,NA,NA,NA,NA,NA,NA,NA,NA,NA,NA,NA,NA,NA,NA,NA,NA,NA,NA
a527d,task,flow.Sequence,3_0_4_0_1,NA,NA,completion,7270.78,593394,593373.46,593394.28,600665.06,600671,2023-10-19T09:43:05Z,600685.9,NULL,Genehmigung,idhini,d,NA,NA,NA,NA,sd,NA,4,NA,NA,NA,NA,NA,NA,NA,NA,NA,NA,NA,NA,NA,NA,NA,NA,NA,NA,NA
a527d,deep,flow.Sequence,3_0_4_0_2_0,NA,NA,skipped,NA,600671,NA,NA,600665.06,600672,2023-10-19T09:43:05Z,600685.9,NULL,Inhalt,yaliyomo,s,kishawishi,hifadhi,kutembea,NA,sd,NA,4,NA,NA,NA,NA,NA,NA,NA,NA,NA,NA,NA,NA,NA,NA,NA,NA,NA,NA,NA
a527d,Shallow Question,html.Page,3_0_4_0_2_1_0,NA,NA,form submission,2739.1,600672,600665.06,600685.9,603425,603425,2023-10-19T09:43:08Z,603435.88,NULL,Inhalt,yaliyomo,s,kishawishi,hifadhi,kutembea,yaliyomo,NA,NA,4,NA,NA,NA,NA,NA,NA,NA,NA,NA,NA,NA,NA,NA,NA,NA,NA,NA,NA,NA
a527d,"""Richtig""-Screen",canvas.Screen,3_0_4_0_2_1_1,NA,NA,timeout,5000.04,603428,603422.2,603435.88,608415.08,608417,2023-10-19T09:43:13Z,608435.92,NULL,Inhalt,yaliyomo,s,kishawishi,hifadhi,kutembea,NA,sd,1,4,NA,NA,NA,NA,NA,NA,NA,NA,NA,NA,NA,NA,NA,NA,NA,NA,NA,NA,NA
a527d,"""Falsch""-Screen",canvas.Screen,3_0_4_0_2_1_2,NA,NA,skipped,NA,608426,NA,NA,608415.08,608426,2023-10-19T09:43:13Z,608435.92,NULL,Inhalt,yaliyomo,s,kishawishi,hifadhi,kutembea,NA,sd,NA,4,NA,NA,NA,NA,NA,NA,NA,NA,NA,NA,NA,NA,NA,NA,NA,NA,NA,NA,NA
a527d,shallow,flow.Sequence,3_0_4_0_2_1,NA,NA,completion,7729.1799999999,600672,600665.06,600685.9,608415.08,608427,2023-10-19T09:43:13Z,608435.92,NULL,Inhalt,yaliyomo,s,kishawishi,hifadhi,kutembea,NA,sd,NA,4,NA,NA,NA,NA,NA,NA,NA,NA,NA,NA,NA,NA,NA,NA,NA,NA,NA,NA,NA
a527d,task,flow.Sequence,3_0_4_0_2,NA,NA,completion,7729.1799999999,600671,600665.06,600685.9,608415.08,608427,2023-10-19T09:43:13Z,608435.92,NULL,Inhalt,yaliyomo,s,kishawishi,hifadhi,kutembea,NA,sd,NA,4,NA,NA,NA,NA,NA,NA,NA,NA,NA,NA,NA,NA,NA,NA,NA,NA,NA,NA,NA
a527d,deep,flow.Sequence,3_0_4_0_3_0,NA,NA,skipped,NA,608428,NA,NA,608415.08,608428,2023-10-19T09:43:13Z,608435.92,NULL,Integrität,uadilifu,s,muungano,mtiririko,upunguaji,NA,sd,NA,4,NA,NA,NA,NA,NA,NA,NA,NA,NA,NA,NA,NA,NA,NA,NA,NA,NA,NA,NA
a527d,Shallow Question,html.Page,3_0_4_0_3_1_0,NA,NA,form submission,8517.08,608429,608415.08,608435.92,616953,616953,2023-10-19T09:43:21Z,616956.74,NULL,Integrität,uadilifu,s,muungano,mtiririko,upunguaji,uadilifu,NA,NA,4,NA,NA,NA,NA,NA,NA,NA,NA,NA,NA,NA,NA,NA,NA,NA,NA,NA,NA,NA
a527d,"""Richtig""-Screen",canvas.Screen,3_0_4_0_3_1_1,NA,NA,timeout,5000.12,616956,616951.52,616956.74,621936.02,621938,2023-10-19T09:43:26Z,621956.86,NULL,Integrität,uadilifu,s,muungano,mtiririko,upunguaji,NA,sd,1,4,NA,NA,NA,NA,NA,NA,NA,NA,NA,NA,NA,NA,NA,NA,NA,NA,NA,NA,NA
a527d,"""Falsch""-Screen",canvas.Screen,3_0_4_0_3_1_2,NA,NA,skipped,NA,621944,NA,NA,621936.02,621946,2023-10-19T09:43:26Z,621956.86,NULL,Integrität,uadilifu,s,muungano,mtiririko,upunguaji,NA,sd,NA,4,NA,NA,NA,NA,NA,NA,NA,NA,NA,NA,NA,NA,NA,NA,NA,NA,NA,NA,NA
a527d,shallow,flow.Sequence,3_0_4_0_3_1,NA,NA,completion,13500.1,608428,608415.08,608435.92,621936.02,621946,2023-10-19T09:43:26Z,621956.86,NULL,Integrität,uadilifu,s,muungano,mtiririko,upunguaji,NA,sd,NA,4,NA,NA,NA,NA,NA,NA,NA,NA,NA,NA,NA,NA,NA,NA,NA,NA,NA,NA,NA
a527d,task,flow.Sequence,3_0_4_0_3,NA,NA,completion,13500.1,608428,608415.08,608435.92,621936.02,621946,2023-10-19T09:43:26Z,621956.86,NULL,Integrität,uadilifu,s,muungano,mtiririko,upunguaji,NA,sd,NA,4,NA,NA,NA,NA,NA,NA,NA,NA,NA,NA,NA,NA,NA,NA,NA,NA,NA,NA,NA
a527d,deep,flow.Sequence,3_0_4_0_4_0,NA,NA,skipped,NA,621946,NA,NA,621936.02,621946,2023-10-19T09:43:26Z,621956.86,NULL,Vermutung,udhanifu,s,haramia,tikisho,itifaki,NA,sd,NA,4,NA,NA,NA,NA,NA,NA,NA,NA,NA,NA,NA,NA,NA,NA,NA,NA,NA,NA,NA
a527d,Shallow Question,html.Page,3_0_4_0_4_1_0,NA,NA,form submission,4154.14,621946,621936.02,621956.86,626111,626111,2023-10-19T09:43:30Z,626123.46,NULL,Vermutung,udhanifu,s,haramia,tikisho,itifaki,udhanifu,NA,NA,4,NA,NA,NA,NA,NA,NA,NA,NA,NA,NA,NA,NA,NA,NA,NA,NA,NA,NA,NA
a527d,"""Richtig""-Screen",canvas.Screen,3_0_4_0_4_1_1,NA,NA,timeout,5000.02,626117,626106.48,626123.46,631102.68,631103,2023-10-19T09:43:35Z,631123.48,NULL,Vermutung,udhanifu,s,haramia,tikisho,itifaki,NA,sd,1,4,NA,NA,NA,NA,NA,NA,NA,NA,NA,NA,NA,NA,NA,NA,NA,NA,NA,NA,NA
a527d,"""Falsch""-Screen",canvas.Screen,3_0_4_0_4_1_2,NA,NA,skipped,NA,631110,NA,NA,631102.68,631110,2023-10-19T09:43:35Z,631123.48,NULL,Vermutung,udhanifu,s,haramia,tikisho,itifaki,NA,sd,NA,4,NA,NA,NA,NA,NA,NA,NA,NA,NA,NA,NA,NA,NA,NA,NA,NA,NA,NA,NA
a527d,shallow,flow.Sequence,3_0_4_0_4_1,NA,NA,completion,9145.8200000001,621946,621936.02,621956.86,631102.68,631111,2023-10-19T09:43:35Z,631123.48,NULL,Vermutung,udhanifu,s,haramia,tikisho,itifaki,NA,sd,NA,4,NA,NA,NA,NA,NA,NA,NA,NA,NA,NA,NA,NA,NA,NA,NA,NA,NA,NA,NA
a527d,task,flow.Sequence,3_0_4_0_4,NA,NA,completion,9145.8200000001,621946,621936.02,621956.86,631102.68,631111,2023-10-19T09:43:35Z,631123.48,NULL,Vermutung,udhanifu,s,haramia,tikisho,itifaki,NA,sd,NA,4,NA,NA,NA,NA,NA,NA,NA,NA,NA,NA,NA,NA,NA,NA,NA,NA,NA,NA,NA
a527d,Deep Question,html.Page,3_0_4_0_5_0_0,NA,NA,form submission,11443.52,631112,631102.68,631123.48,642567,642567,2023-10-19T09:43:47Z,642581.82,NULL,Toleranz,kuvumiliana,d,NA,NA,NA,kukumiliana,NA,NA,4,NA,NA,NA,NA,NA,NA,NA,NA,NA,NA,NA,NA,NA,NA,NA,NA,NA,NA,NA
a527d,"""Richtig""-Screen",canvas.Screen,3_0_4_0_5_0_1,NA,NA,skipped,NA,642570,NA,NA,642567,642570,2023-10-19T09:43:47Z,642581.82,NULL,Toleranz,kuvumiliana,d,NA,NA,NA,NA,sd,NA,4,NA,NA,NA,NA,NA,NA,NA,NA,NA,NA,NA,NA,NA,NA,NA,NA,NA,NA,NA
a527d,"""Falsch""-Screen",canvas.Screen,3_0_4_0_5_0_2,NA,NA,timeout,5000.0600000001,642573,642566,642581.82,647561.1,647562,2023-10-19T09:43:52Z,647581.88,NULL,Toleranz,kuvumiliana,d,NA,NA,NA,NA,sd,0,4,NA,NA,NA,NA,NA,NA,NA,NA,NA,NA,NA,NA,NA,NA,NA,NA,NA,NA,NA
a527d,deep,flow.Sequence,3_0_4_0_5_0,NA,NA,completion,16437.62,631112,631102.68,631123.48,647561.1,647563,2023-10-19T09:43:52Z,647581.88,NULL,Toleranz,kuvumiliana,d,NA,NA,NA,NA,sd,NA,4,NA,NA,NA,NA,NA,NA,NA,NA,NA,NA,NA,NA,NA,NA,NA,NA,NA,NA,NA
a527d,shallow,flow.Sequence,3_0_4_0_5_1,NA,NA,skipped,NA,647563,NA,NA,647561.1,647564,2023-10-19T09:43:52Z,647581.88,NULL,Toleranz,kuvumiliana,d,NA,NA,NA,NA,sd,NA,4,NA,NA,NA,NA,NA,NA,NA,NA,NA,NA,NA,NA,NA,NA,NA,NA,NA,NA,NA
a527d,task,flow.Sequence,3_0_4_0_5,NA,NA,completion,16437.62,631112,631102.68,631123.48,647561.1,647564,2023-10-19T09:43:52Z,647581.88,NULL,Toleranz,kuvumiliana,d,NA,NA,NA,NA,sd,NA,4,NA,NA,NA,NA,NA,NA,NA,NA,NA,NA,NA,NA,NA,NA,NA,NA,NA,NA,NA
a527d,deep,flow.Sequence,3_0_4_0_6_0,NA,NA,skipped,NA,647565,NA,NA,647561.1,647565,2023-10-19T09:43:52Z,647581.88,NULL,Fleisch,mshakiki,s,kizunguzungu,mshikamano,angusho,NA,sd,NA,4,NA,NA,NA,NA,NA,NA,NA,NA,NA,NA,NA,NA,NA,NA,NA,NA,NA,NA,NA
a527d,Shallow Question,html.Page,3_0_4_0_6_1_0,NA,NA,form submission,3563.12,647565,647561.1,647581.88,651145,651146,2023-10-19T09:43:55Z,651144.44,NULL,Fleisch,mshakiki,s,kizunguzungu,mshikamano,angusho,mshakiki,NA,NA,4,NA,NA,NA,NA,NA,NA,NA,NA,NA,NA,NA,NA,NA,NA,NA,NA,NA,NA,NA
a527d,"""Richtig""-Screen",canvas.Screen,3_0_4_0_6_1_1,NA,NA,timeout,4999.9800000001,651149,651139.92,651144.44,656123.6,656125,2023-10-19T09:44:00Z,656144.42,NULL,Fleisch,mshakiki,s,kizunguzungu,mshikamano,angusho,NA,sd,1,4,NA,NA,NA,NA,NA,NA,NA,NA,NA,NA,NA,NA,NA,NA,NA,NA,NA,NA,NA
a527d,"""Falsch""-Screen",canvas.Screen,3_0_4_0_6_1_2,NA,NA,skipped,NA,656129,NA,NA,656123.6,656130,2023-10-19T09:44:00Z,656144.42,NULL,Fleisch,mshakiki,s,kizunguzungu,mshikamano,angusho,NA,sd,NA,4,NA,NA,NA,NA,NA,NA,NA,NA,NA,NA,NA,NA,NA,NA,NA,NA,NA,NA,NA
a527d,shallow,flow.Sequence,3_0_4_0_6_1,NA,NA,completion,8541.72,647565,647561.1,647581.88,656123.6,656130,2023-10-19T09:44:00Z,656144.42,NULL,Fleisch,mshakiki,s,kizunguzungu,mshikamano,angusho,NA,sd,NA,4,NA,NA,NA,NA,NA,NA,NA,NA,NA,NA,NA,NA,NA,NA,NA,NA,NA,NA,NA
a527d,task,flow.Sequence,3_0_4_0_6,NA,NA,completion,8541.72,647564,647561.1,647581.88,656123.6,656130,2023-10-19T09:44:00Z,656144.42,NULL,Fleisch,mshakiki,s,kizunguzungu,mshikamano,angusho,NA,sd,NA,4,NA,NA,NA,NA,NA,NA,NA,NA,NA,NA,NA,NA,NA,NA,NA,NA,NA,NA,NA
a527d,Deep Question,html.Page,3_0_4_0_7_0_0,NA,NA,form submission,5186.58,656131,656123.6,656144.42,661331,661331,2023-10-19T09:44:05Z,661331.88,NULL,Schlange,foleni,d,NA,NA,NA,foleni,NA,NA,4,NA,NA,NA,NA,NA,NA,NA,NA,NA,NA,NA,NA,NA,NA,NA,NA,NA,NA,NA
a527d,"""Richtig""-Screen",canvas.Screen,3_0_4_0_7_0_1,NA,NA,timeout,5000.08,661334,661329.16,661331.88,666311.12,666312,2023-10-19T09:44:10Z,666331.96,NULL,Schlange,foleni,d,NA,NA,NA,NA,sd,1,4,NA,NA,NA,NA,NA,NA,NA,NA,NA,NA,NA,NA,NA,NA,NA,NA,NA,NA,NA
a527d,"""Falsch""-Screen",canvas.Screen,3_0_4_0_7_0_2,NA,NA,skipped,NA,666318,NA,NA,666311.12,666318,2023-10-19T09:44:10Z,666331.96,NULL,Schlange,foleni,d,NA,NA,NA,NA,sd,NA,4,NA,NA,NA,NA,NA,NA,NA,NA,NA,NA,NA,NA,NA,NA,NA,NA,NA,NA,NA
a527d,deep,flow.Sequence,3_0_4_0_7_0,NA,NA,completion,10166.7,656130,656123.6,656144.42,666311.12,666319,2023-10-19T09:44:10Z,666331.96,NULL,Schlange,foleni,d,NA,NA,NA,NA,sd,NA,4,NA,NA,NA,NA,NA,NA,NA,NA,NA,NA,NA,NA,NA,NA,NA,NA,NA,NA,NA
a527d,shallow,flow.Sequence,3_0_4_0_7_1,NA,NA,skipped,NA,666319,NA,NA,666311.12,666319,2023-10-19T09:44:10Z,666331.96,NULL,Schlange,foleni,d,NA,NA,NA,NA,sd,NA,4,NA,NA,NA,NA,NA,NA,NA,NA,NA,NA,NA,NA,NA,NA,NA,NA,NA,NA,NA
a527d,task,flow.Sequence,3_0_4_0_7,NA,NA,completion,10166.7,656130,656123.6,656144.42,666311.12,666320,2023-10-19T09:44:10Z,666331.96,NULL,Schlange,foleni,d,NA,NA,NA,NA,sd,NA,4,NA,NA,NA,NA,NA,NA,NA,NA,NA,NA,NA,NA,NA,NA,NA,NA,NA,NA,NA
a527d,block,flow.Loop,3_0_4_0,NA,NA,completion,80541.08,585769,585769.74,585770.04,666311.12,666320,2023-10-19T09:44:10Z,666331.96,NULL,NA,NA,NA,NA,NA,NA,NA,sd,NA,4,NA,NA,NA,NA,NA,NA,NA,NA,NA,NA,NA,NA,NA,NA,NA,NA,NA,NA,NA
a527d,weiter,canvas.Screen,3_0_4_1,sdf,keypress(Space),response,1103.04,666321,666311.12,666331.96,667435,667440,2023-10-19T09:44:12Z,668219.34,NULL,NA,NA,NA,NA,NA,NA,NA,sd,NA,4,NA,NA,NA,NA,NA,NA,NA,NA,NA,NA,NA,NA,NA,NA,NA,NA,NA,NA,NA
a527d,check continue,flow.Sequence,3_0_4,NA,NA,completion,81664.96,585769,585769.74,585770.04,667435,667441,2023-10-19T09:44:12Z,668219.34,NULL,NA,NA,NA,NA,NA,NA,NA,sd,NA,4,NA,NA,NA,NA,NA,NA,NA,NA,NA,NA,NA,NA,NA,NA,NA,NA,NA,NA,NA
a527d,check continue,flow.Sequence,3_0_5,NA,NA,skipped,NA,667493,NA,NA,667435,667493,2023-10-19T09:44:12Z,668219.34,NULL,NA,NA,NA,NA,NA,NA,NA,sdf,NA,5,NA,NA,NA,NA,NA,NA,NA,NA,NA,NA,NA,NA,NA,NA,NA,NA,NA,NA,NA
a527d,check continue,flow.Sequence,3_0_6,NA,NA,skipped,NA,667523,NA,NA,667435,667523,2023-10-19T09:44:12Z,668219.34,NULL,NA,NA,NA,NA,NA,NA,NA,dfs,NA,6,NA,NA,NA,NA,NA,NA,NA,NA,NA,NA,NA,NA,NA,NA,NA,NA,NA,NA,NA
a527d,check continue,flow.Sequence,3_0_7,NA,NA,skipped,NA,667552,NA,NA,667435,667552,2023-10-19T09:44:12Z,668219.34,NULL,NA,NA,NA,NA,NA,NA,NA,df,NA,7,NA,NA,NA,NA,NA,NA,NA,NA,NA,NA,NA,NA,NA,NA,NA,NA,NA,NA,NA
a527d,check continue,flow.Sequence,3_0_8,NA,NA,skipped,NA,667580,NA,NA,667435,667580,2023-10-19T09:44:12Z,668219.34,NULL,NA,NA,NA,NA,NA,NA,NA,dfs,NA,8,NA,NA,NA,NA,NA,NA,NA,NA,NA,NA,NA,NA,NA,NA,NA,NA,NA,NA,NA
a527d,check continue,flow.Sequence,3_0_9,NA,NA,skipped,NA,667609,NA,NA,667435,667609,2023-10-19T09:44:12Z,668219.34,NULL,NA,NA,NA,NA,NA,NA,NA,dsf,NA,9,NA,NA,NA,NA,NA,NA,NA,NA,NA,NA,NA,NA,NA,NA,NA,NA,NA,NA,NA
a527d,check continue,flow.Sequence,3_0_10,NA,NA,skipped,NA,667659,NA,NA,667435,667659,2023-10-19T09:44:12Z,668219.34,NULL,NA,NA,NA,NA,NA,NA,NA,df,NA,10,NA,NA,NA,NA,NA,NA,NA,NA,NA,NA,NA,NA,NA,NA,NA,NA,NA,NA,NA
a527d,check continue,flow.Sequence,3_0_11,NA,NA,skipped,NA,667692,NA,NA,667435,667692,2023-10-19T09:44:12Z,668219.34,NULL,NA,NA,NA,NA,NA,NA,NA,dfs,NA,11,NA,NA,NA,NA,NA,NA,NA,NA,NA,NA,NA,NA,NA,NA,NA,NA,NA,NA,NA
a527d,check continue,flow.Sequence,3_0_12,NA,NA,skipped,NA,667726,NA,NA,667435,667726,2023-10-19T09:44:12Z,668219.34,NULL,NA,NA,NA,NA,NA,NA,NA,dsf,NA,12,NA,NA,NA,NA,NA,NA,NA,NA,NA,NA,NA,NA,NA,NA,NA,NA,NA,NA,NA
a527d,check continue,flow.Sequence,3_0_13,NA,NA,skipped,NA,667761,NA,NA,667435,667761,2023-10-19T09:44:12Z,668219.34,NULL,NA,NA,NA,NA,NA,NA,NA,dsf,NA,13,NA,NA,NA,NA,NA,NA,NA,NA,NA,NA,NA,NA,NA,NA,NA,NA,NA,NA,NA
a527d,check continue,flow.Sequence,3_0_14,NA,NA,skipped,NA,667793,NA,NA,667435,667793,2023-10-19T09:44:12Z,668219.34,NULL,NA,NA,NA,NA,NA,NA,NA,NA,NA,14,NA,NA,NA,NA,NA,NA,NA,NA,NA,NA,NA,NA,NA,NA,NA,NA,NA,NA,NA
a527d,check continue,flow.Sequence,3_0_15,NA,NA,skipped,NA,667822,NA,NA,667435,667822,2023-10-19T09:44:12Z,668219.34,NULL,NA,NA,NA,NA,NA,NA,NA,NA,NA,15,NA,NA,NA,NA,NA,NA,NA,NA,NA,NA,NA,NA,NA,NA,NA,NA,NA,NA,NA
a527d,check continue,flow.Sequence,3_0_16,NA,NA,skipped,NA,667850,NA,NA,667435,667851,2023-10-19T09:44:12Z,668219.34,NULL,NA,NA,NA,NA,NA,NA,NA,NA,NA,16,NA,NA,NA,NA,NA,NA,NA,NA,NA,NA,NA,NA,NA,NA,NA,NA,NA,NA,NA
a527d,check continue,flow.Sequence,3_0_17,NA,NA,skipped,NA,667876,NA,NA,667435,667877,2023-10-19T09:44:12Z,668219.34,NULL,NA,NA,NA,NA,NA,NA,NA,NA,NA,17,NA,NA,NA,NA,NA,NA,NA,NA,NA,NA,NA,NA,NA,NA,NA,NA,NA,NA,NA
a527d,check continue,flow.Sequence,3_0_18,NA,NA,skipped,NA,667902,NA,NA,667435,667902,2023-10-19T09:44:12Z,668219.34,NULL,NA,NA,NA,NA,NA,NA,NA,NA,NA,18,NA,NA,NA,NA,NA,NA,NA,NA,NA,NA,NA,NA,NA,NA,NA,NA,NA,NA,NA
a527d,check continue,flow.Sequence,3_0_19,NA,NA,skipped,NA,667929,NA,NA,667435,667929,2023-10-19T09:44:12Z,668219.34,NULL,NA,NA,NA,NA,NA,NA,NA,NA,NA,19,NA,NA,NA,NA,NA,NA,NA,NA,NA,NA,NA,NA,NA,NA,NA,NA,NA,NA,NA
a527d,check continue,flow.Sequence,3_0_20,NA,NA,skipped,NA,667959,NA,NA,667435,667959,2023-10-19T09:44:12Z,668219.34,NULL,NA,NA,NA,NA,NA,NA,NA,NA,NA,20,NA,NA,NA,NA,NA,NA,NA,NA,NA,NA,NA,NA,NA,NA,NA,NA,NA,NA,NA
a527d,check continue,flow.Sequence,3_0_21,NA,NA,skipped,NA,667998,NA,NA,667435,667999,2023-10-19T09:44:12Z,668219.34,NULL,NA,NA,NA,NA,NA,NA,NA,NA,NA,21,NA,NA,NA,NA,NA,NA,NA,NA,NA,NA,NA,NA,NA,NA,NA,NA,NA,NA,NA
a527d,check continue,flow.Sequence,3_0_22,NA,NA,skipped,NA,668031,NA,NA,667435,668032,2023-10-19T09:44:12Z,668219.34,NULL,NA,NA,NA,NA,NA,NA,NA,NA,NA,22,NA,NA,NA,NA,NA,NA,NA,NA,NA,NA,NA,NA,NA,NA,NA,NA,NA,NA,NA
a527d,check continue,flow.Sequence,3_0_23,NA,NA,skipped,NA,668057,NA,NA,667435,668057,2023-10-19T09:44:12Z,668219.34,NULL,NA,NA,NA,NA,NA,NA,NA,NA,NA,23,NA,NA,NA,NA,NA,NA,NA,NA,NA,NA,NA,NA,NA,NA,NA,NA,NA,NA,NA
a527d,check continue,flow.Sequence,3_0_24,NA,NA,skipped,NA,668090,NA,NA,667435,668090,2023-10-19T09:44:12Z,668219.34,NULL,NA,NA,NA,NA,NA,NA,NA,NA,NA,24,NA,NA,NA,NA,NA,NA,NA,NA,NA,NA,NA,NA,NA,NA,NA,NA,NA,NA,NA
a527d,check continue,flow.Sequence,3_0_25,NA,NA,skipped,NA,668116,NA,NA,667435,668116,2023-10-19T09:44:12Z,668219.34,NULL,NA,NA,NA,NA,NA,NA,NA,NA,NA,25,NA,NA,NA,NA,NA,NA,NA,NA,NA,NA,NA,NA,NA,NA,NA,NA,NA,NA,NA
a527d,check continue,flow.Sequence,3_0_26,NA,NA,skipped,NA,668144,NA,NA,667435,668144,2023-10-19T09:44:12Z,668219.34,NULL,NA,NA,NA,NA,NA,NA,NA,NA,NA,26,NA,NA,NA,NA,NA,NA,NA,NA,NA,NA,NA,NA,NA,NA,NA,NA,NA,NA,NA
a527d,check continue,flow.Sequence,3_0_27,NA,NA,skipped,NA,668172,NA,NA,667435,668172,2023-10-19T09:44:12Z,668219.34,NULL,NA,NA,NA,NA,NA,NA,NA,NA,NA,27,NA,NA,NA,NA,NA,NA,NA,NA,NA,NA,NA,NA,NA,NA,NA,NA,NA,NA,NA
a527d,check continue,flow.Sequence,3_0_28,NA,NA,skipped,NA,668195,NA,NA,667435,668195,2023-10-19T09:44:12Z,668219.34,NULL,NA,NA,NA,NA,NA,NA,NA,NA,NA,28,NA,NA,NA,NA,NA,NA,NA,NA,NA,NA,NA,NA,NA,NA,NA,NA,NA,NA,NA
a527d,check continue,flow.Sequence,3_0_29,NA,NA,skipped,NA,668219,NA,NA,667435,668219,2023-10-19T09:44:12Z,668219.34,NULL,NA,NA,NA,NA,NA,NA,NA,NA,NA,29,NA,NA,NA,NA,NA,NA,NA,NA,NA,NA,NA,NA,NA,NA,NA,NA,NA,NA,NA
a527d,until continue,flow.Loop,3_0,NA,NA,completion,446391.28,221009,221043.4,221043.72,667435,668219,2023-10-19T09:44:12Z,668219.34,NULL,NA,NA,NA,NA,NA,NA,NA,NA,NA,NA,NA,NA,NA,NA,NA,NA,NA,NA,NA,NA,NA,NA,NA,NA,NA,NA,NA,NA,NA
a527d,block 1,flow.Sequence,3,NA,NA,completion,446391.28,221009,221043.4,221043.72,667435,668219,2023-10-19T09:44:12Z,668219.34,NULL,NA,NA,NA,NA,NA,NA,NA,NA,NA,NA,NA,NA,NA,NA,NA,NA,NA,NA,NA,NA,NA,NA,NA,NA,NA,NA,NA,NA,NA
a527d,1.Part Over,canvas.Screen,4,NA,keypress(Space),response,1778.66,668219,668218.94,668219.34,669998,670010,2023-10-19T09:44:14Z,670088.36,NULL,NA,NA,NA,NA,NA,NA,NA,NA,NA,NA,NA,NA,NA,NA,NA,NA,NA,NA,NA,NA,NA,NA,NA,NA,NA,NA,NA,NA,NA
a527d,deep,flow.Sequence,5_0_0_0_0_0,NA,NA,skipped,NA,670088,NA,NA,669998,670088,2023-10-19T09:44:14Z,670088.36,NULL,Wechsel,ugeuzaji,s,utambulisho,kujenga,wasiwasi,NA,sdf,NA,0,NA,NA,NA,NA,NA,NA,NA,NA,NA,NA,NA,NA,NA,NA,NA,NA,NA,NA,NA
a527d,Shallow Question,html.Page,5_0_0_0_0_1_0,NA,NA,form submission,7401.64,670088,670088.06,670088.36,677490,677491,2023-10-19T09:44:22Z,677498.26,NULL,Wechsel,ugeuzaji,s,utambulisho,kujenga,wasiwasi,wasiwasi,NA,NA,0,NA,NA,NA,NA,NA,NA,NA,NA,NA,NA,NA,NA,NA,NA,NA,NA,NA,NA,NA
a527d,"""Richtig""-Screen",canvas.Screen,5_0_0_0_0_1_1,NA,NA,skipped,NA,677496,NA,NA,677490,677496,2023-10-19T09:44:22Z,677498.26,NULL,Wechsel,ugeuzaji,s,utambulisho,kujenga,wasiwasi,NA,sdf,NA,0,NA,NA,NA,NA,NA,NA,NA,NA,NA,NA,NA,NA,NA,NA,NA,NA,NA,NA,NA
a527d,"""Falsch""-Screen",canvas.Screen,5_0_0_0_0_1_2,NA,NA,timeout,5000.34,677499,677483.68,677498.26,682477.82,682480,2023-10-19T09:44:27Z,682498.6,NULL,Wechsel,ugeuzaji,s,utambulisho,kujenga,wasiwasi,NA,sdf,0,0,NA,NA,NA,NA,NA,NA,NA,NA,NA,NA,NA,NA,NA,NA,NA,NA,NA,NA,NA
a527d,shallow,flow.Sequence,5_0_0_0_0_1,NA,NA,completion,12389.46,670088,670088.06,670088.36,682477.82,682481,2023-10-19T09:44:27Z,682498.6,NULL,Wechsel,ugeuzaji,s,utambulisho,kujenga,wasiwasi,NA,sdf,NA,0,NA,NA,NA,NA,NA,NA,NA,NA,NA,NA,NA,NA,NA,NA,NA,NA,NA,NA,NA
a527d,task,flow.Sequence,5_0_0_0_0,NA,NA,completion,12389.46,670088,670088.06,670088.36,682477.82,682481,2023-10-19T09:44:27Z,682498.6,NULL,Wechsel,ugeuzaji,s,utambulisho,kujenga,wasiwasi,NA,sdf,NA,0,NA,NA,NA,NA,NA,NA,NA,NA,NA,NA,NA,NA,NA,NA,NA,NA,NA,NA,NA
a527d,deep,flow.Sequence,5_0_0_0_1_0,NA,NA,skipped,NA,682481,NA,NA,682477.82,682481,2023-10-19T09:44:27Z,682498.6,NULL,Erneuerung,ukarabati,s,ushawishi,ukalifu,unyonyaji,NA,sdf,NA,0,NA,NA,NA,NA,NA,NA,NA,NA,NA,NA,NA,NA,NA,NA,NA,NA,NA,NA,NA
a527d,Shallow Question,html.Page,5_0_0_0_1_1_0,NA,NA,form submission,8867.4,682481,682477.82,682498.6,691366,691367,2023-10-19T09:44:35Z,691373.56,NULL,Erneuerung,ukarabati,s,ushawishi,ukalifu,unyonyaji,ukalifu,NA,NA,0,NA,NA,NA,NA,NA,NA,NA,NA,NA,NA,NA,NA,NA,NA,NA,NA,NA,NA,NA
a527d,"""Richtig""-Screen",canvas.Screen,5_0_0_0_1_1_1,NA,NA,skipped,NA,691371,NA,NA,691366,691371,2023-10-19T09:44:35Z,691373.56,NULL,Erneuerung,ukarabati,s,ushawishi,ukalifu,unyonyaji,NA,sdf,NA,0,NA,NA,NA,NA,NA,NA,NA,NA,NA,NA,NA,NA,NA,NA,NA,NA,NA,NA,NA
a527d,"""Falsch""-Screen",canvas.Screen,5_0_0_0_1_1_2,NA,NA,timeout,5000.08,691375,691361.62,691373.56,696352.92,696354,2023-10-19T09:44:40Z,696373.64,NULL,Erneuerung,ukarabati,s,ushawishi,ukalifu,unyonyaji,NA,sdf,0,0,NA,NA,NA,NA,NA,NA,NA,NA,NA,NA,NA,NA,NA,NA,NA,NA,NA,NA,NA
a527d,shallow,flow.Sequence,5_0_0_0_1_1,NA,NA,completion,13854.32,682481,682477.82,682498.6,696352.92,696355,2023-10-19T09:44:40Z,696373.64,NULL,Erneuerung,ukarabati,s,ushawishi,ukalifu,unyonyaji,NA,sdf,NA,0,NA,NA,NA,NA,NA,NA,NA,NA,NA,NA,NA,NA,NA,NA,NA,NA,NA,NA,NA
a527d,task,flow.Sequence,5_0_0_0_1,NA,NA,completion,13854.32,682481,682477.82,682498.6,696352.92,696356,2023-10-19T09:44:40Z,696373.64,NULL,Erneuerung,ukarabati,s,ushawishi,ukalifu,unyonyaji,NA,sdf,NA,0,NA,NA,NA,NA,NA,NA,NA,NA,NA,NA,NA,NA,NA,NA,NA,NA,NA,NA,NA
a527d,deep,flow.Sequence,5_0_0_0_2_0,NA,NA,skipped,NA,696356,NA,NA,696352.92,696356,2023-10-19T09:44:40Z,696373.64,NULL,Verpackung,ufungaji,s,uhusiano,upimaji,uchunguzi,NA,sdf,NA,0,NA,NA,NA,NA,NA,NA,NA,NA,NA,NA,NA,NA,NA,NA,NA,NA,NA,NA,NA
a527d,Shallow Question,html.Page,5_0_0_0_2_1_0,NA,NA,form submission,9455.36,696357,696352.92,696373.64,705829,705829,2023-10-19T09:44:50Z,705831.98,NULL,Verpackung,ufungaji,s,uhusiano,upimaji,uchunguzi,upimaji,NA,NA,0,NA,NA,NA,NA,NA,NA,NA,NA,NA,NA,NA,NA,NA,NA,NA,NA,NA,NA,NA
a527d,"""Richtig""-Screen",canvas.Screen,5_0_0_0_2_1_1,NA,NA,skipped,NA,705830,NA,NA,705829,705830,2023-10-19T09:44:50Z,705831.98,NULL,Verpackung,ufungaji,s,uhusiano,upimaji,uchunguzi,NA,sdf,NA,0,NA,NA,NA,NA,NA,NA,NA,NA,NA,NA,NA,NA,NA,NA,NA,NA,NA,NA,NA
a527d,"""Falsch""-Screen",canvas.Screen,5_0_0_0_2_1_2,NA,NA,timeout,5000.0800000001,705831,705827.22,705831.98,710811.26,710813,2023-10-19T09:44:55Z,710832.06,NULL,Verpackung,ufungaji,s,uhusiano,upimaji,uchunguzi,NA,sdf,0,0,NA,NA,NA,NA,NA,NA,NA,NA,NA,NA,NA,NA,NA,NA,NA,NA,NA,NA,NA
a527d,shallow,flow.Sequence,5_0_0_0_2_1,NA,NA,completion,14437.62,696356,696352.92,696373.64,710811.26,710813,2023-10-19T09:44:55Z,710832.06,NULL,Verpackung,ufungaji,s,uhusiano,upimaji,uchunguzi,NA,sdf,NA,0,NA,NA,NA,NA,NA,NA,NA,NA,NA,NA,NA,NA,NA,NA,NA,NA,NA,NA,NA
a527d,task,flow.Sequence,5_0_0_0_2,NA,NA,completion,14437.62,696356,696352.92,696373.64,710811.26,710814,2023-10-19T09:44:55Z,710832.06,NULL,Verpackung,ufungaji,s,uhusiano,upimaji,uchunguzi,NA,sdf,NA,0,NA,NA,NA,NA,NA,NA,NA,NA,NA,NA,NA,NA,NA,NA,NA,NA,NA,NA,NA
a527d,Deep Question,html.Page,5_0_0_0_3_0_0,NA,NA,form submission,1731.9399999999,710815,710811.26,710832.06,712564,712564,2023-10-19T09:44:57Z,712582.02,NULL,Atmosphäre,angahewa,d,NA,NA,NA,s,NA,NA,0,NA,NA,NA,NA,NA,NA,NA,NA,NA,NA,NA,NA,NA,NA,NA,NA,NA,NA,NA
a527d,"""Richtig""-Screen",canvas.Screen,5_0_0_0_3_0_1,NA,NA,skipped,NA,712566,NA,NA,712564,712566,2023-10-19T09:44:57Z,712582.02,NULL,Atmosphäre,angahewa,d,NA,NA,NA,NA,sdf,NA,0,NA,NA,NA,NA,NA,NA,NA,NA,NA,NA,NA,NA,NA,NA,NA,NA,NA,NA,NA
a527d,"""Falsch""-Screen",canvas.Screen,5_0_0_0_3_0_2,NA,NA,timeout,5000.04,712567,712562.94,712582.02,717561.24,717562,2023-10-19T09:45:02Z,717582.06,NULL,Atmosphäre,angahewa,d,NA,NA,NA,NA,sdf,0,0,NA,NA,NA,NA,NA,NA,NA,NA,NA,NA,NA,NA,NA,NA,NA,NA,NA,NA,NA
a527d,deep,flow.Sequence,5_0_0_0_3_0,NA,NA,completion,6729.1799999999,710815,710811.26,710832.06,717561.24,717563,2023-10-19T09:45:02Z,717582.06,NULL,Atmosphäre,angahewa,d,NA,NA,NA,NA,sdf,NA,0,NA,NA,NA,NA,NA,NA,NA,NA,NA,NA,NA,NA,NA,NA,NA,NA,NA,NA,NA
a527d,shallow,flow.Sequence,5_0_0_0_3_1,NA,NA,skipped,NA,717563,NA,NA,717561.24,717563,2023-10-19T09:45:02Z,717582.06,NULL,Atmosphäre,angahewa,d,NA,NA,NA,NA,sdf,NA,0,NA,NA,NA,NA,NA,NA,NA,NA,NA,NA,NA,NA,NA,NA,NA,NA,NA,NA,NA
a527d,task,flow.Sequence,5_0_0_0_3,NA,NA,completion,6729.1799999999,710814,710811.26,710832.06,717561.24,717564,2023-10-19T09:45:02Z,717582.06,NULL,Atmosphäre,angahewa,d,NA,NA,NA,NA,sdf,NA,0,NA,NA,NA,NA,NA,NA,NA,NA,NA,NA,NA,NA,NA,NA,NA,NA,NA,NA,NA
a527d,Deep Question,html.Page,5_0_0_0_4_0_0,NA,NA,form submission,4193.9399999999,717564,717561.24,717582.06,721776,721776,2023-10-19T09:45:06Z,721790.38,NULL,Schock,mshtuko,d,NA,NA,NA,sho,NA,NA,0,NA,NA,NA,NA,NA,NA,NA,NA,NA,NA,NA,NA,NA,NA,NA,NA,NA,NA,NA
a527d,"""Richtig""-Screen",canvas.Screen,5_0_0_0_4_0_1,NA,NA,skipped,NA,721778,NA,NA,721776,721779,2023-10-19T09:45:06Z,721790.38,NULL,Schock,mshtuko,d,NA,NA,NA,NA,sdf,NA,0,NA,NA,NA,NA,NA,NA,NA,NA,NA,NA,NA,NA,NA,NA,NA,NA,NA,NA,NA
a527d,"""Falsch""-Screen",canvas.Screen,5_0_0_0_4_0_2,NA,NA,timeout,5000.0599999999,721781,721774.98,721790.38,726769.6,726773,2023-10-19T09:45:11Z,726790.44,NULL,Schock,mshtuko,d,NA,NA,NA,NA,sdf,0,0,NA,NA,NA,NA,NA,NA,NA,NA,NA,NA,NA,NA,NA,NA,NA,NA,NA,NA,NA
a527d,deep,flow.Sequence,5_0_0_0_4_0,NA,NA,completion,9187.5399999999,717564,717561.24,717582.06,726769.6,726774,2023-10-19T09:45:11Z,726790.44,NULL,Schock,mshtuko,d,NA,NA,NA,NA,sdf,NA,0,NA,NA,NA,NA,NA,NA,NA,NA,NA,NA,NA,NA,NA,NA,NA,NA,NA,NA,NA
a527d,shallow,flow.Sequence,5_0_0_0_4_1,NA,NA,skipped,NA,726774,NA,NA,726769.6,726774,2023-10-19T09:45:11Z,726790.44,NULL,Schock,mshtuko,d,NA,NA,NA,NA,sdf,NA,0,NA,NA,NA,NA,NA,NA,NA,NA,NA,NA,NA,NA,NA,NA,NA,NA,NA,NA,NA
a527d,task,flow.Sequence,5_0_0_0_4,NA,NA,completion,9187.5399999999,717564,717561.24,717582.06,726769.6,726774,2023-10-19T09:45:11Z,726790.44,NULL,Schock,mshtuko,d,NA,NA,NA,NA,sdf,NA,0,NA,NA,NA,NA,NA,NA,NA,NA,NA,NA,NA,NA,NA,NA,NA,NA,NA,NA,NA
a527d,deep,flow.Sequence,5_0_0_0_5_0,NA,NA,skipped,NA,726775,NA,NA,726769.6,726775,2023-10-19T09:45:11Z,726790.44,NULL,Hoffnung,matarajio,s,kutaalamika,uratibu,mvumbuzi,NA,sdf,NA,0,NA,NA,NA,NA,NA,NA,NA,NA,NA,NA,NA,NA,NA,NA,NA,NA,NA,NA,NA
a527d,Shallow Question,html.Page,5_0_0_0_5_1_0,NA,NA,form submission,4028.5600000001,726776,726769.6,726790.44,730819,730820,2023-10-19T09:45:15Z,730832.06,NULL,Hoffnung,matarajio,s,kutaalamika,uratibu,mvumbuzi,kutaalamika,NA,NA,0,NA,NA,NA,NA,NA,NA,NA,NA,NA,NA,NA,NA,NA,NA,NA,NA,NA,NA,NA
a527d,"""Richtig""-Screen",canvas.Screen,5_0_0_0_5_1_1,NA,NA,skipped,NA,730826,NA,NA,730819,730826,2023-10-19T09:45:15Z,730832.06,NULL,Hoffnung,matarajio,s,kutaalamika,uratibu,mvumbuzi,NA,sdf,NA,0,NA,NA,NA,NA,NA,NA,NA,NA,NA,NA,NA,NA,NA,NA,NA,NA,NA,NA,NA
a527d,"""Falsch""-Screen",canvas.Screen,5_0_0_0_5_1_2,NA,NA,timeout,5000.1,730829,730813.26,730832.06,735811.32,735813,2023-10-19T09:45:20Z,735832.16,NULL,Hoffnung,matarajio,s,kutaalamika,uratibu,mvumbuzi,NA,sdf,0,0,NA,NA,NA,NA,NA,NA,NA,NA,NA,NA,NA,NA,NA,NA,NA,NA,NA,NA,NA
a527d,shallow,flow.Sequence,5_0_0_0_5_1,NA,NA,completion,9020.88,726775,726769.6,726790.44,735811.32,735814,2023-10-19T09:45:20Z,735832.16,NULL,Hoffnung,matarajio,s,kutaalamika,uratibu,mvumbuzi,NA,sdf,NA,0,NA,NA,NA,NA,NA,NA,NA,NA,NA,NA,NA,NA,NA,NA,NA,NA,NA,NA,NA
a527d,task,flow.Sequence,5_0_0_0_5,NA,NA,completion,9020.88,726774,726769.6,726790.44,735811.32,735814,2023-10-19T09:45:20Z,735832.16,NULL,Hoffnung,matarajio,s,kutaalamika,uratibu,mvumbuzi,NA,sdf,NA,0,NA,NA,NA,NA,NA,NA,NA,NA,NA,NA,NA,NA,NA,NA,NA,NA,NA,NA,NA
a527d,Deep Question,html.Page,5_0_0_0_6_0_0,NA,NA,form submission,1625.84,735815,735811.32,735832.16,737458,737458,2023-10-19T09:45:22Z,737457.32,NULL,Theorie,nadharia,d,NA,NA,NA,m,NA,NA,0,NA,NA,NA,NA,NA,NA,NA,NA,NA,NA,NA,NA,NA,NA,NA,NA,NA,NA,NA
a527d,"""Richtig""-Screen",canvas.Screen,5_0_0_0_6_0_1,NA,NA,skipped,NA,737461,NA,NA,737458,737461,2023-10-19T09:45:22Z,737457.32,NULL,Theorie,nadharia,d,NA,NA,NA,NA,sdf,NA,0,NA,NA,NA,NA,NA,NA,NA,NA,NA,NA,NA,NA,NA,NA,NA,NA,NA,NA,NA
a527d,"""Falsch""-Screen",canvas.Screen,5_0_0_0_6_0_2,NA,NA,timeout,4999.8,737464,737457.1,737457.32,742436.28,742438,2023-10-19T09:45:27Z,742457.12,NULL,Theorie,nadharia,d,NA,NA,NA,NA,sdf,0,0,NA,NA,NA,NA,NA,NA,NA,NA,NA,NA,NA,NA,NA,NA,NA,NA,NA,NA,NA
a527d,deep,flow.Sequence,5_0_0_0_6_0,NA,NA,completion,6604.12,735815,735811.32,735832.16,742436.28,742439,2023-10-19T09:45:27Z,742457.12,NULL,Theorie,nadharia,d,NA,NA,NA,NA,sdf,NA,0,NA,NA,NA,NA,NA,NA,NA,NA,NA,NA,NA,NA,NA,NA,NA,NA,NA,NA,NA
a527d,shallow,flow.Sequence,5_0_0_0_6_1,NA,NA,skipped,NA,742439,NA,NA,742436.28,742439,2023-10-19T09:45:27Z,742457.12,NULL,Theorie,nadharia,d,NA,NA,NA,NA,sdf,NA,0,NA,NA,NA,NA,NA,NA,NA,NA,NA,NA,NA,NA,NA,NA,NA,NA,NA,NA,NA
a527d,task,flow.Sequence,5_0_0_0_6,NA,NA,completion,6604.12,735814,735811.32,735832.16,742436.28,742440,2023-10-19T09:45:27Z,742457.12,NULL,Theorie,nadharia,d,NA,NA,NA,NA,sdf,NA,0,NA,NA,NA,NA,NA,NA,NA,NA,NA,NA,NA,NA,NA,NA,NA,NA,NA,NA,NA
a527d,Deep Question,html.Page,5_0_0_0_7_0_0,NA,NA,form submission,2143.88,742440,742436.28,742457.12,744601,744601,2023-10-19T09:45:29Z,744602.96,NULL,Flexibilität,kubadilika,d,NA,NA,NA,m,NA,NA,0,NA,NA,NA,NA,NA,NA,NA,NA,NA,NA,NA,NA,NA,NA,NA,NA,NA,NA,NA
a527d,"""Richtig""-Screen",canvas.Screen,5_0_0_0_7_0_1,NA,NA,skipped,NA,744603,NA,NA,744601,744603,2023-10-19T09:45:29Z,744602.96,NULL,Flexibilität,kubadilika,d,NA,NA,NA,NA,sdf,NA,0,NA,NA,NA,NA,NA,NA,NA,NA,NA,NA,NA,NA,NA,NA,NA,NA,NA,NA,NA
a527d,"""Falsch""-Screen",canvas.Screen,5_0_0_0_7_0_2,NA,NA,timeout,5000.04,744605,744599.96,744602.96,749582.18,749583,2023-10-19T09:45:34Z,749603,NULL,Flexibilität,kubadilika,d,NA,NA,NA,NA,sdf,0,0,NA,NA,NA,NA,NA,NA,NA,NA,NA,NA,NA,NA,NA,NA,NA,NA,NA,NA,NA
a527d,deep,flow.Sequence,5_0_0_0_7_0,NA,NA,completion,7125.0600000001,742440,742436.28,742457.12,749582.18,749583,2023-10-19T09:45:34Z,749603,NULL,Flexibilität,kubadilika,d,NA,NA,NA,NA,sdf,NA,0,NA,NA,NA,NA,NA,NA,NA,NA,NA,NA,NA,NA,NA,NA,NA,NA,NA,NA,NA
a527d,shallow,flow.Sequence,5_0_0_0_7_1,NA,NA,skipped,NA,749584,NA,NA,749582.18,749584,2023-10-19T09:45:34Z,749603,NULL,Flexibilität,kubadilika,d,NA,NA,NA,NA,sdf,NA,0,NA,NA,NA,NA,NA,NA,NA,NA,NA,NA,NA,NA,NA,NA,NA,NA,NA,NA,NA
a527d,task,flow.Sequence,5_0_0_0_7,NA,NA,completion,7125.0600000001,742440,742436.28,742457.12,749582.18,749584,2023-10-19T09:45:34Z,749603,NULL,Flexibilität,kubadilika,d,NA,NA,NA,NA,sdf,NA,0,NA,NA,NA,NA,NA,NA,NA,NA,NA,NA,NA,NA,NA,NA,NA,NA,NA,NA,NA
a527d,block,flow.Loop,5_0_0_0,NA,NA,completion,79493.82,670088,670088.06,670088.36,749582.18,749585,2023-10-19T09:45:34Z,749603,NULL,NA,NA,NA,NA,NA,NA,NA,sdf,NA,0,NA,NA,NA,NA,NA,NA,NA,NA,NA,NA,NA,NA,NA,NA,NA,NA,NA,NA,NA
a527d,weiter,canvas.Screen,5_0_0_1,sdf,keypress(Space),response,1098,749585,749582.18,749603,750701,750718,2023-10-19T09:45:35Z,750779.88,NULL,NA,NA,NA,NA,NA,NA,NA,sdf,NA,0,NA,NA,NA,NA,NA,NA,NA,NA,NA,NA,NA,NA,NA,NA,NA,NA,NA,NA,NA
a527d,check continue,flow.Sequence,5_0_0,NA,NA,completion,80612.64,670088,670088.06,670088.36,750701,750718,2023-10-19T09:45:35Z,750779.88,NULL,NA,NA,NA,NA,NA,NA,NA,sdf,NA,0,NA,NA,NA,NA,NA,NA,NA,NA,NA,NA,NA,NA,NA,NA,NA,NA,NA,NA,NA
a527d,Deep Question,html.Page,5_0_1_0_0_0_0,NA,NA,form submission,3205.12,750780,750779.66,750779.88,753985,753985,2023-10-19T09:45:38Z,753997.38,NULL,Atmosphäre,angahewa,d,NA,NA,NA,m,NA,NA,1,NA,NA,NA,NA,NA,NA,NA,NA,NA,NA,NA,NA,NA,NA,NA,NA,NA,NA,NA
a527d,"""Richtig""-Screen",canvas.Screen,5_0_1_0_0_0_1,NA,NA,skipped,NA,753987,NA,NA,753985,753987,2023-10-19T09:45:38Z,753997.38,NULL,Atmosphäre,angahewa,d,NA,NA,NA,NA,sdfdsf,NA,1,NA,NA,NA,NA,NA,NA,NA,NA,NA,NA,NA,NA,NA,NA,NA,NA,NA,NA,NA
a527d,"""Falsch""-Screen",canvas.Screen,5_0_1_0_0_0_2,NA,NA,timeout,5001.46,753990,753983.72,753997.38,758978.02,758979,2023-10-19T09:45:43Z,758998.84,NULL,Atmosphäre,angahewa,d,NA,NA,NA,NA,sdfdsf,0,1,NA,NA,NA,NA,NA,NA,NA,NA,NA,NA,NA,NA,NA,NA,NA,NA,NA,NA,NA
a527d,deep,flow.Sequence,5_0_1_0_0_0,NA,NA,completion,8198.14,750780,750779.66,750779.88,758978.02,758979,2023-10-19T09:45:43Z,758998.84,NULL,Atmosphäre,angahewa,d,NA,NA,NA,NA,sdfdsf,NA,1,NA,NA,NA,NA,NA,NA,NA,NA,NA,NA,NA,NA,NA,NA,NA,NA,NA,NA,NA
a527d,shallow,flow.Sequence,5_0_1_0_0_1,NA,NA,skipped,NA,758979,NA,NA,758978.02,758980,2023-10-19T09:45:43Z,758998.84,NULL,Atmosphäre,angahewa,d,NA,NA,NA,NA,sdfdsf,NA,1,NA,NA,NA,NA,NA,NA,NA,NA,NA,NA,NA,NA,NA,NA,NA,NA,NA,NA,NA
a527d,task,flow.Sequence,5_0_1_0_0,NA,NA,completion,8198.14,750780,750779.66,750779.88,758978.02,758980,2023-10-19T09:45:43Z,758998.84,NULL,Atmosphäre,angahewa,d,NA,NA,NA,NA,sdfdsf,NA,1,NA,NA,NA,NA,NA,NA,NA,NA,NA,NA,NA,NA,NA,NA,NA,NA,NA,NA,NA
a527d,deep,flow.Sequence,5_0_1_0_1_0,NA,NA,skipped,NA,758980,NA,NA,758978.02,758980,2023-10-19T09:45:43Z,758998.84,NULL,Erneuerung,ukarabati,s,ushawishi,ukalifu,unyonyaji,NA,sdfdsf,NA,1,NA,NA,NA,NA,NA,NA,NA,NA,NA,NA,NA,NA,NA,NA,NA,NA,NA,NA,NA
a527d,Shallow Question,html.Page,5_0_1_0_1_1_0,NA,NA,form submission,4337.16,758980,758978.02,758998.84,763336,763337,2023-10-19T09:45:47Z,763332.08,NULL,Erneuerung,ukarabati,s,ushawishi,ukalifu,unyonyaji,ukarabati,NA,NA,1,NA,NA,NA,NA,NA,NA,NA,NA,NA,NA,NA,NA,NA,NA,NA,NA,NA,NA,NA
a527d,"""Richtig""-Screen",canvas.Screen,5_0_1_0_1_1_1,NA,NA,timeout,5000.0600000001,763342,763331.44,763332.08,768311.32,768312,2023-10-19T09:45:52Z,768332.14,NULL,Erneuerung,ukarabati,s,ushawishi,ukalifu,unyonyaji,NA,sdfdsf,1,1,NA,NA,NA,NA,NA,NA,NA,NA,NA,NA,NA,NA,NA,NA,NA,NA,NA,NA,NA
a527d,"""Falsch""-Screen",canvas.Screen,5_0_1_0_1_1_2,NA,NA,skipped,NA,768314,NA,NA,768311.32,768314,2023-10-19T09:45:52Z,768332.14,NULL,Erneuerung,ukarabati,s,ushawishi,ukalifu,unyonyaji,NA,sdfdsf,NA,1,NA,NA,NA,NA,NA,NA,NA,NA,NA,NA,NA,NA,NA,NA,NA,NA,NA,NA,NA
a527d,shallow,flow.Sequence,5_0_1_0_1_1,NA,NA,completion,9312.48,758980,758978.02,758998.84,768311.32,768315,2023-10-19T09:45:52Z,768332.14,NULL,Erneuerung,ukarabati,s,ushawishi,ukalifu,unyonyaji,NA,sdfdsf,NA,1,NA,NA,NA,NA,NA,NA,NA,NA,NA,NA,NA,NA,NA,NA,NA,NA,NA,NA,NA
a527d,task,flow.Sequence,5_0_1_0_1,NA,NA,completion,9312.48,758980,758978.02,758998.84,768311.32,768315,2023-10-19T09:45:52Z,768332.14,NULL,Erneuerung,ukarabati,s,ushawishi,ukalifu,unyonyaji,NA,sdfdsf,NA,1,NA,NA,NA,NA,NA,NA,NA,NA,NA,NA,NA,NA,NA,NA,NA,NA,NA,NA,NA
a527d,deep,flow.Sequence,5_0_1_0_2_0,NA,NA,skipped,NA,768315,NA,NA,768311.32,768315,2023-10-19T09:45:52Z,768332.14,NULL,Hoffnung,matarajio,s,kutaalamika,uratibu,mvumbuzi,NA,sdfdsf,NA,1,NA,NA,NA,NA,NA,NA,NA,NA,NA,NA,NA,NA,NA,NA,NA,NA,NA,NA,NA
a527d,Shallow Question,html.Page,5_0_1_0_2_1_0,NA,NA,form submission,5614.86,768315,768311.32,768332.14,773947,773947,2023-10-19T09:45:58Z,773957.22,NULL,Hoffnung,matarajio,s,kutaalamika,uratibu,mvumbuzi,matarajio,NA,NA,1,NA,NA,NA,NA,NA,NA,NA,NA,NA,NA,NA,NA,NA,NA,NA,NA,NA,NA,NA
a527d,"""Richtig""-Screen",canvas.Screen,5_0_1_0_2_1_1,NA,NA,timeout,5000.02,773949,773944.42,773957.22,778936.48,778939,2023-10-19T09:46:03Z,778957.24,NULL,Hoffnung,matarajio,s,kutaalamika,uratibu,mvumbuzi,NA,sdfdsf,1,1,NA,NA,NA,NA,NA,NA,NA,NA,NA,NA,NA,NA,NA,NA,NA,NA,NA,NA,NA
a527d,"""Falsch""-Screen",canvas.Screen,5_0_1_0_2_1_2,NA,NA,skipped,NA,778952,NA,NA,778936.48,778953,2023-10-19T09:46:03Z,778957.24,NULL,Hoffnung,matarajio,s,kutaalamika,uratibu,mvumbuzi,NA,sdfdsf,NA,1,NA,NA,NA,NA,NA,NA,NA,NA,NA,NA,NA,NA,NA,NA,NA,NA,NA,NA,NA
a527d,shallow,flow.Sequence,5_0_1_0_2_1,NA,NA,completion,10604.34,768315,768311.32,768332.14,778936.48,778953,2023-10-19T09:46:03Z,778957.24,NULL,Hoffnung,matarajio,s,kutaalamika,uratibu,mvumbuzi,NA,sdfdsf,NA,1,NA,NA,NA,NA,NA,NA,NA,NA,NA,NA,NA,NA,NA,NA,NA,NA,NA,NA,NA
a527d,task,flow.Sequence,5_0_1_0_2,NA,NA,completion,10604.34,768315,768311.32,768332.14,778936.48,778953,2023-10-19T09:46:03Z,778957.24,NULL,Hoffnung,matarajio,s,kutaalamika,uratibu,mvumbuzi,NA,sdfdsf,NA,1,NA,NA,NA,NA,NA,NA,NA,NA,NA,NA,NA,NA,NA,NA,NA,NA,NA,NA,NA
a527d,deep,flow.Sequence,5_0_1_0_3_0,NA,NA,skipped,NA,778954,NA,NA,778936.48,778954,2023-10-19T09:46:03Z,778957.24,NULL,Wechsel,ugeuzaji,s,utambulisho,kujenga,wasiwasi,NA,sdfdsf,NA,1,NA,NA,NA,NA,NA,NA,NA,NA,NA,NA,NA,NA,NA,NA,NA,NA,NA,NA,NA
a527d,Shallow Question,html.Page,5_0_1_0_3_1_0,NA,NA,form submission,5734.76,778954,778936.48,778957.24,784692,784693,2023-10-19T09:46:09Z,784686.5,NULL,Wechsel,ugeuzaji,s,utambulisho,kujenga,wasiwasi,ugeuzaji,NA,NA,1,NA,NA,NA,NA,NA,NA,NA,NA,NA,NA,NA,NA,NA,NA,NA,NA,NA,NA,NA
a527d,"""Richtig""-Screen",canvas.Screen,5_0_1_0_3_1_1,NA,NA,timeout,4999.96,784699,784681.72,784686.5,789665.64,789667,2023-10-19T09:46:14Z,789686.46,NULL,Wechsel,ugeuzaji,s,utambulisho,kujenga,wasiwasi,NA,sdfdsf,1,1,NA,NA,NA,NA,NA,NA,NA,NA,NA,NA,NA,NA,NA,NA,NA,NA,NA,NA,NA
