observation,sender,sender_type,sender_id,response,response_action,ended_on,duration,time_run,time_render,time_show,time_end,time_commit,timestamp,time_switch,distractors,german,swahili,enc,distractor1,distractor2,distractor3,response_2,x,correct,x_2,url_vp,url_sess,meta_labjs_version,meta_location,meta_user_agent,meta_platform,meta_language,meta_locale,meta_time_zone,meta_timezone_offset,meta_screen_width,meta_screen_height,meta_scroll_width,meta_scroll_height,meta_window_inner_width,meta_window_inner_height,meta_device_pixel_ratio,meta_labjs_build_flavor,meta_labjs_build_commit
b41dd,Introduction general,canvas.Screen,0,weiter,keypress(q),response,50294.1,565.10000000009,331.9,581.7,50875.8,50878.2,2024-04-16T11:49:24Z,50884.3,NULL,NA,NA,NA,NA,NA,NA,NA,NA,NA,NA,144,3,20.2.4,https://neurocog.fernuni.ch/studies/vweber/aberisha/encoding_immediate/index.html?vp=144&sess=3,"Mozilla/5.0 (Windows NT 10.0; Win64; x64) AppleWebKit/537.36 (KHTML, like Gecko) Chrome/123.0.0.0 Safari/537.36",Win32,de-DE,de,Europe/Zurich,-120,1536,864,1536,678,1536,726,1.25,production,f5b4a49f956347addd546a832a3327688c2c0fef
b41dd,Introduction practice,canvas.Screen,1_0,NA,keypress(Space),response,6294.3000000001,50879,50870.212,50884.3,57178.6,57179.5,2024-04-16T11:49:30Z,57197.6,NULL,NA,NA,NA,NA,NA,NA,NA,NA,NA,NA,NA,NA,NA,NA,NA,NA,NA,NA,NA,NA,NA,NA,NA,NA,NA,NA,NA,NA,NA
b41dd,Deep Question,html.Page,1_1_0_0_0,NA,NA,form submission,8642.9,57179.9,57167.382,57197.6,65840.5,65840.8,2024-04-16T11:49:39Z,65841.8,"c(""distractor1"", ""distractor2"", ""distractor3"")",Gesundheit,salama,d,NA,NA,NA,ha,NA,NA,NA,NA,NA,NA,NA,NA,NA,NA,NA,NA,NA,NA,NA,NA,NA,NA,NA,NA,NA,NA
b41dd,"""Richtig""-Screen",canvas.Screen,1_1_0_0_1,NA,NA,skipped,NA,65841.7,NA,NA,65840.5,65841.9,2024-04-16T11:49:39Z,65841.8,"c(""distractor1"", ""distractor2"", ""distractor3"")",Gesundheit,salama,d,NA,NA,NA,NA,NA,NA,NA,NA,NA,NA,NA,NA,NA,NA,NA,NA,NA,NA,NA,NA,NA,NA,NA,NA,NA,NA
b41dd,"""Falsch""-Screen",canvas.Screen,1_1_0_0_2,NA,NA,timeout,4997,65842.7,65828.438,65841.8,70822.4,70827.5,2024-04-16T11:49:44Z,70838.8,"c(""distractor1"", ""distractor2"", ""distractor3"")",Gesundheit,salama,d,NA,NA,NA,NA,NA,0,NA,NA,NA,NA,NA,NA,NA,NA,NA,NA,NA,NA,NA,NA,NA,NA,NA,NA,NA,NA
b41dd,deep,flow.Sequence,1_1_0_0,NA,NA,completion,13624.8,57179.9,57167.382,57197.6,70822.4,70828.1,2024-04-16T11:49:44Z,70838.8,"c(""distractor1"", ""distractor2"", ""distractor3"")",Gesundheit,salama,d,NA,NA,NA,NA,NA,NA,NA,NA,NA,NA,NA,NA,NA,NA,NA,NA,NA,NA,NA,NA,NA,NA,NA,NA,NA,NA
b41dd,shallow,flow.Sequence,1_1_0_1,NA,NA,skipped,NA,70828.3,NA,NA,70822.4,70828.5,2024-04-16T11:49:44Z,70838.8,"c(""distractor1"", ""distractor2"", ""distractor3"")",Gesundheit,salama,d,NA,NA,NA,NA,NA,NA,NA,NA,NA,NA,NA,NA,NA,NA,NA,NA,NA,NA,NA,NA,NA,NA,NA,NA,NA,NA
b41dd,task,flow.Sequence,1_1_0,NA,NA,completion,13624.8,57179.8,57167.382,57197.6,70822.4,70828.5,2024-04-16T11:49:44Z,70838.8,"c(""distractor1"", ""distractor2"", ""distractor3"")",Gesundheit,salama,d,NA,NA,NA,NA,NA,NA,NA,NA,NA,NA,NA,NA,NA,NA,NA,NA,NA,NA,NA,NA,NA,NA,NA,NA,NA,NA
b41dd,Deep Question,html.Page,1_1_1_0_0,NA,NA,form submission,4961.7,70828.6,70822.4,70838.8,75800.5,75800.8,2024-04-16T11:49:49Z,75804.714,"c(""distractor1"", ""distractor2"", ""distractor3"")",Qualität,mtindo,d,NA,NA,NA,hub,NA,NA,NA,NA,NA,NA,NA,NA,NA,NA,NA,NA,NA,NA,NA,NA,NA,NA,NA,NA,NA,NA
b41dd,"""Richtig""-Screen",canvas.Screen,1_1_1_0_1,NA,NA,skipped,NA,75804,NA,NA,75800.5,75804.3,2024-04-16T11:49:49Z,75804.714,"c(""distractor1"", ""distractor2"", ""distractor3"")",Qualität,mtindo,d,NA,NA,NA,NA,NA,NA,NA,NA,NA,NA,NA,NA,NA,NA,NA,NA,NA,NA,NA,NA,NA,NA,NA,NA,NA,NA
b41dd,"""Falsch""-Screen",canvas.Screen,1_1_1_0_2,NA,NA,timeout,4995.186,75804.8,75804.714,75804.714,80782.8,80784.1,2024-04-16T11:49:54Z,80799.9,"c(""distractor1"", ""distractor2"", ""distractor3"")",Qualität,mtindo,d,NA,NA,NA,NA,NA,0,NA,NA,NA,NA,NA,NA,NA,NA,NA,NA,NA,NA,NA,NA,NA,NA,NA,NA,NA,NA
b41dd,deep,flow.Sequence,1_1_1_0,NA,NA,completion,9944,70828.6,70822.4,70838.8,80782.8,80784.7,2024-04-16T11:49:54Z,80799.9,"c(""distractor1"", ""distractor2"", ""distractor3"")",Qualität,mtindo,d,NA,NA,NA,NA,NA,NA,NA,NA,NA,NA,NA,NA,NA,NA,NA,NA,NA,NA,NA,NA,NA,NA,NA,NA,NA,NA
b41dd,shallow,flow.Sequence,1_1_1_1,NA,NA,skipped,NA,80784.8,NA,NA,80782.8,80785.1,2024-04-16T11:49:54Z,80799.9,"c(""distractor1"", ""distractor2"", ""distractor3"")",Qualität,mtindo,d,NA,NA,NA,NA,NA,NA,NA,NA,NA,NA,NA,NA,NA,NA,NA,NA,NA,NA,NA,NA,NA,NA,NA,NA,NA,NA
b41dd,task,flow.Sequence,1_1_1,NA,NA,completion,9944,70828.6,70822.4,70838.8,80782.8,80785.3,2024-04-16T11:49:54Z,80799.9,"c(""distractor1"", ""distractor2"", ""distractor3"")",Qualität,mtindo,d,NA,NA,NA,NA,NA,NA,NA,NA,NA,NA,NA,NA,NA,NA,NA,NA,NA,NA,NA,NA,NA,NA,NA,NA,NA,NA
b41dd,deep,flow.Sequence,1_1_2_0,NA,NA,skipped,NA,80785.5,NA,NA,80782.8,80785.6,2024-04-16T11:49:54Z,80799.9,"c(""distractor1"", ""distractor2"", ""distractor3"")",Gegenwart,hadhara,s,katiba,jokofu,mikopo,NA,NA,NA,NA,NA,NA,NA,NA,NA,NA,NA,NA,NA,NA,NA,NA,NA,NA,NA,NA,NA,NA,NA
b41dd,Shallow Question,html.Page,1_1_2_1_0,NA,NA,form submission,6701.9000000003,80785.8,80782.8,80799.9,87501.8,87502.1,2024-04-16T11:50:01Z,87512,"c(""distractor1"", ""distractor2"", ""distractor3"")",Gegenwart,hadhara,s,katiba,jokofu,mikopo,katiba,NA,NA,NA,NA,NA,NA,NA,NA,NA,NA,NA,NA,NA,NA,NA,NA,NA,NA,NA,NA,NA,NA
b41dd,"""Richtig""-Screen",canvas.Screen,1_1_2_1_1,NA,NA,skipped,NA,87505.6,NA,NA,87501.8,87505.7,2024-04-16T11:50:01Z,87512,"c(""distractor1"", ""distractor2"", ""distractor3"")",Gegenwart,hadhara,s,katiba,jokofu,mikopo,NA,NA,NA,NA,NA,NA,NA,NA,NA,NA,NA,NA,NA,NA,NA,NA,NA,NA,NA,NA,NA,NA,NA
b41dd,"""Falsch""-Screen",canvas.Screen,1_1_2_1_2,NA,NA,timeout,4997.4,87506.5,87496.52,87512,92492.6,92493.1,2024-04-16T11:50:06Z,92509.4,"c(""distractor1"", ""distractor2"", ""distractor3"")",Gegenwart,hadhara,s,katiba,jokofu,mikopo,NA,NA,0,NA,NA,NA,NA,NA,NA,NA,NA,NA,NA,NA,NA,NA,NA,NA,NA,NA,NA,NA,NA
b41dd,shallow,flow.Sequence,1_1_2_1,NA,NA,completion,11692.7,80785.7,80782.8,80799.9,92492.6,92493.4,2024-04-16T11:50:06Z,92509.4,"c(""distractor1"", ""distractor2"", ""distractor3"")",Gegenwart,hadhara,s,katiba,jokofu,mikopo,NA,NA,NA,NA,NA,NA,NA,NA,NA,NA,NA,NA,NA,NA,NA,NA,NA,NA,NA,NA,NA,NA,NA
b41dd,task,flow.Sequence,1_1_2,NA,NA,completion,11692.7,80785.4,80782.8,80799.9,92492.6,92493.5,2024-04-16T11:50:06Z,92509.4,"c(""distractor1"", ""distractor2"", ""distractor3"")",Gegenwart,hadhara,s,katiba,jokofu,mikopo,NA,NA,NA,NA,NA,NA,NA,NA,NA,NA,NA,NA,NA,NA,NA,NA,NA,NA,NA,NA,NA,NA,NA
b41dd,Deep Question,html.Page,1_1_3_0_0,NA,NA,form submission,3530.8000000002,92493.5,92492.6,92509.4,96040.2,96040.4,2024-04-16T11:50:09Z,96041.814,"c(""distractor1"", ""distractor2"", ""distractor3"")",Schatten,kivuli,d,NA,NA,NA,ba,NA,NA,NA,NA,NA,NA,NA,NA,NA,NA,NA,NA,NA,NA,NA,NA,NA,NA,NA,NA,NA,NA
b41dd,"""Richtig""-Screen",canvas.Screen,1_1_3_0_1,NA,NA,skipped,NA,96043.6,NA,NA,96040.2,96043.7,2024-04-16T11:50:09Z,96041.814,"c(""distractor1"", ""distractor2"", ""distractor3"")",Schatten,kivuli,d,NA,NA,NA,NA,NA,NA,NA,NA,NA,NA,NA,NA,NA,NA,NA,NA,NA,NA,NA,NA,NA,NA,NA,NA,NA,NA
b41dd,"""Falsch""-Screen",canvas.Screen,1_1_3_0_2,NA,NA,timeout,4995.786,96044.5,96041.814,96041.814,101020.4,101022.3,2024-04-16T11:50:14Z,101037.6,"c(""distractor1"", ""distractor2"", ""distractor3"")",Schatten,kivuli,d,NA,NA,NA,NA,NA,0,NA,NA,NA,NA,NA,NA,NA,NA,NA,NA,NA,NA,NA,NA,NA,NA,NA,NA,NA,NA
b41dd,deep,flow.Sequence,1_1_3_0,NA,NA,completion,8511,92493.5,92492.6,92509.4,101020.4,101022.7,2024-04-16T11:50:14Z,101037.6,"c(""distractor1"", ""distractor2"", ""distractor3"")",Schatten,kivuli,d,NA,NA,NA,NA,NA,NA,NA,NA,NA,NA,NA,NA,NA,NA,NA,NA,NA,NA,NA,NA,NA,NA,NA,NA,NA,NA
b41dd,shallow,flow.Sequence,1_1_3_1,NA,NA,skipped,NA,101022.8,NA,NA,101020.4,101023,2024-04-16T11:50:14Z,101037.6,"c(""distractor1"", ""distractor2"", ""distractor3"")",Schatten,kivuli,d,NA,NA,NA,NA,NA,NA,NA,NA,NA,NA,NA,NA,NA,NA,NA,NA,NA,NA,NA,NA,NA,NA,NA,NA,NA,NA
b41dd,task,flow.Sequence,1_1_3,NA,NA,completion,8511,92493.5,92492.6,92509.4,101020.4,101023.2,2024-04-16T11:50:14Z,101037.6,"c(""distractor1"", ""distractor2"", ""distractor3"")",Schatten,kivuli,d,NA,NA,NA,NA,NA,NA,NA,NA,NA,NA,NA,NA,NA,NA,NA,NA,NA,NA,NA,NA,NA,NA,NA,NA,NA,NA
b41dd,deep,flow.Sequence,1_1_4_0,NA,NA,skipped,NA,101023.5,NA,NA,101020.4,101023.5,2024-04-16T11:50:14Z,101037.6,"c(""distractor1"", ""distractor2"", ""distractor3"")",Rückhalt,msaada,s,muhula,auwali,kiwimbe,NA,NA,NA,NA,NA,NA,NA,NA,NA,NA,NA,NA,NA,NA,NA,NA,NA,NA,NA,NA,NA,NA,NA
b41dd,Shallow Question,html.Page,1_1_4_1_0,NA,NA,form submission,4164.9,101023.8,101020.4,101037.6,105202.5,105202.7,2024-04-16T11:50:18Z,105218.1,"c(""distractor1"", ""distractor2"", ""distractor3"")",Rückhalt,msaada,s,muhula,auwali,kiwimbe,kiwimbe,NA,NA,NA,NA,NA,NA,NA,NA,NA,NA,NA,NA,NA,NA,NA,NA,NA,NA,NA,NA,NA,NA
b41dd,"""Richtig""-Screen",canvas.Screen,1_1_4_1_1,NA,NA,skipped,NA,105205.8,NA,NA,105202.5,105205.9,2024-04-16T11:50:18Z,105218.1,"c(""distractor1"", ""distractor2"", ""distractor3"")",Rückhalt,msaada,s,muhula,auwali,kiwimbe,NA,NA,NA,NA,NA,NA,NA,NA,NA,NA,NA,NA,NA,NA,NA,NA,NA,NA,NA,NA,NA,NA,NA
b41dd,"""Falsch""-Screen",canvas.Screen,1_1_4_1_2,NA,NA,timeout,4997.2,105206.6,105201.6,105218.1,110198.6,110199.5,2024-04-16T11:50:23Z,110215.3,"c(""distractor1"", ""distractor2"", ""distractor3"")",Rückhalt,msaada,s,muhula,auwali,kiwimbe,NA,NA,0,NA,NA,NA,NA,NA,NA,NA,NA,NA,NA,NA,NA,NA,NA,NA,NA,NA,NA,NA,NA
b41dd,shallow,flow.Sequence,1_1_4_1,NA,NA,completion,9161,101023.7,101020.4,101037.6,110198.6,110199.9,2024-04-16T11:50:23Z,110215.3,"c(""distractor1"", ""distractor2"", ""distractor3"")",Rückhalt,msaada,s,muhula,auwali,kiwimbe,NA,NA,NA,NA,NA,NA,NA,NA,NA,NA,NA,NA,NA,NA,NA,NA,NA,NA,NA,NA,NA,NA,NA
b41dd,task,flow.Sequence,1_1_4,NA,NA,completion,9161,101023.4,101020.4,101037.6,110198.6,110200.1,2024-04-16T11:50:23Z,110215.3,"c(""distractor1"", ""distractor2"", ""distractor3"")",Rückhalt,msaada,s,muhula,auwali,kiwimbe,NA,NA,NA,NA,NA,NA,NA,NA,NA,NA,NA,NA,NA,NA,NA,NA,NA,NA,NA,NA,NA,NA,NA
b41dd,deep,flow.Sequence,1_1_5_0,NA,NA,skipped,NA,110200.3,NA,NA,110198.6,110200.4,2024-04-16T11:50:23Z,110215.3,"c(""distractor1"", ""distractor2"", ""distractor3"")",Kritik,lawama,s,dereva,nafasi,mawazo,NA,NA,NA,NA,NA,NA,NA,NA,NA,NA,NA,NA,NA,NA,NA,NA,NA,NA,NA,NA,NA,NA,NA
b41dd,Shallow Question,html.Page,1_1_5_1_0,NA,NA,form submission,5636.5000000003,110200.6,110198.6,110215.3,115851.8,115852,2024-04-16T11:50:29Z,115861.3,"c(""distractor1"", ""distractor2"", ""distractor3"")",Kritik,lawama,s,dereva,nafasi,mawazo,mawazo,NA,NA,NA,NA,NA,NA,NA,NA,NA,NA,NA,NA,NA,NA,NA,NA,NA,NA,NA,NA,NA,NA
b41dd,"""Richtig""-Screen",canvas.Screen,1_1_5_1_1,NA,NA,skipped,NA,115855.2,NA,NA,115851.8,115855.2,2024-04-16T11:50:29Z,115861.3,"c(""distractor1"", ""distractor2"", ""distractor3"")",Kritik,lawama,s,dereva,nafasi,mawazo,NA,NA,NA,NA,NA,NA,NA,NA,NA,NA,NA,NA,NA,NA,NA,NA,NA,NA,NA,NA,NA,NA,NA
b41dd,"""Falsch""-Screen",canvas.Screen,1_1_5_1_2,NA,NA,timeout,4996.9,115856,115845.746,115861.3,120841.6,120842.7,2024-04-16T11:50:34Z,120858.2,"c(""distractor1"", ""distractor2"", ""distractor3"")",Kritik,lawama,s,dereva,nafasi,mawazo,NA,NA,0,NA,NA,NA,NA,NA,NA,NA,NA,NA,NA,NA,NA,NA,NA,NA,NA,NA,NA,NA,NA
b41dd,shallow,flow.Sequence,1_1_5_1,NA,NA,completion,10626.3,110200.6,110198.6,110215.3,120841.6,120843.1,2024-04-16T11:50:34Z,120858.2,"c(""distractor1"", ""distractor2"", ""distractor3"")",Kritik,lawama,s,dereva,nafasi,mawazo,NA,NA,NA,NA,NA,NA,NA,NA,NA,NA,NA,NA,NA,NA,NA,NA,NA,NA,NA,NA,NA,NA,NA
b41dd,task,flow.Sequence,1_1_5,NA,NA,completion,10626.3,110200.2,110198.6,110215.3,120841.6,120843.4,2024-04-16T11:50:34Z,120858.2,"c(""distractor1"", ""distractor2"", ""distractor3"")",Kritik,lawama,s,dereva,nafasi,mawazo,NA,NA,NA,NA,NA,NA,NA,NA,NA,NA,NA,NA,NA,NA,NA,NA,NA,NA,NA,NA,NA,NA,NA
b41dd,block,flow.Loop,1_1,NA,NA,completion,63644,57179.7,57167.382,57197.6,120841.6,120843.7,2024-04-16T11:50:34Z,120858.2,"c(""distractor1"", ""distractor2"", ""distractor3"")",NA,NA,NA,NA,NA,NA,NA,NA,NA,NA,NA,NA,NA,NA,NA,NA,NA,NA,NA,NA,NA,NA,NA,NA,NA,NA,NA,NA,NA
b41dd,Practice,flow.Sequence,1,NA,NA,completion,69957.3,50878.9,50870.212,50884.3,120841.6,120844,2024-04-16T11:50:34Z,120858.2,NULL,NA,NA,NA,NA,NA,NA,NA,NA,NA,NA,NA,NA,NA,NA,NA,NA,NA,NA,NA,NA,NA,NA,NA,NA,NA,NA,NA,NA,NA
b41dd,Experiment start,canvas.Screen,2,weiter,keypress(q),response,10422.1,120844.2,120841.6,120858.2,131280.3,131280.7,2024-04-16T11:50:45Z,131351.7,NULL,NA,NA,NA,NA,NA,NA,NA,NA,NA,NA,NA,NA,NA,NA,NA,NA,NA,NA,NA,NA,NA,NA,NA,NA,NA,NA,NA,NA,NA
b41dd,Deep Question,html.Page,3_0_0_0_0_0_0,NA,NA,form submission,40718.1,131342.8,131341.362,131351.7,172069.8,172070.1,2024-04-16T11:51:25Z,172076.9,NULL,Abrechnung,uhasibu,d,NA,NA,NA,l,NA,NA,0,NA,NA,NA,NA,NA,NA,NA,NA,NA,NA,NA,NA,NA,NA,NA,NA,NA,NA,NA
b41dd,"""Richtig""-Screen",canvas.Screen,3_0_0_0_0_0_1,NA,NA,skipped,NA,172073.2,NA,NA,172069.8,172073.4,2024-04-16T11:51:25Z,172076.9,NULL,Abrechnung,uhasibu,d,NA,NA,NA,NA,sdf,NA,0,NA,NA,NA,NA,NA,NA,NA,NA,NA,NA,NA,NA,NA,NA,NA,NA,NA,NA,NA
b41dd,"""Falsch""-Screen",canvas.Screen,3_0_0_0_0_0_2,NA,NA,timeout,4997.4,172074.1,172062.45,172076.9,177057.6,177058.5,2024-04-16T11:51:30Z,177074.3,NULL,Abrechnung,uhasibu,d,NA,NA,NA,NA,sdf,0,0,NA,NA,NA,NA,NA,NA,NA,NA,NA,NA,NA,NA,NA,NA,NA,NA,NA,NA,NA
b41dd,deep,flow.Sequence,3_0_0_0_0_0,NA,NA,completion,45705.9,131342.8,131341.362,131351.7,177057.6,177058.9,2024-04-16T11:51:30Z,177074.3,NULL,Abrechnung,uhasibu,d,NA,NA,NA,NA,sdf,NA,0,NA,NA,NA,NA,NA,NA,NA,NA,NA,NA,NA,NA,NA,NA,NA,NA,NA,NA,NA
b41dd,shallow,flow.Sequence,3_0_0_0_0_1,NA,NA,skipped,NA,177058.9,NA,NA,177057.6,177059.1,2024-04-16T11:51:30Z,177074.3,NULL,Abrechnung,uhasibu,d,NA,NA,NA,NA,sdf,NA,0,NA,NA,NA,NA,NA,NA,NA,NA,NA,NA,NA,NA,NA,NA,NA,NA,NA,NA,NA
b41dd,task,flow.Sequence,3_0_0_0_0,NA,NA,completion,45705.9,131342.8,131341.362,131351.7,177057.6,177059.2,2024-04-16T11:51:30Z,177074.3,NULL,Abrechnung,uhasibu,d,NA,NA,NA,NA,sdf,NA,0,NA,NA,NA,NA,NA,NA,NA,NA,NA,NA,NA,NA,NA,NA,NA,NA,NA,NA,NA
b41dd,Deep Question,html.Page,3_0_0_0_1_0_0,NA,NA,form submission,16689.9,177059.4,177057.6,177074.3,193764.2,193764.4,2024-04-16T11:51:47Z,193780.4,NULL,Atmosphäre,angahewa,d,NA,NA,NA,l,NA,NA,0,NA,NA,NA,NA,NA,NA,NA,NA,NA,NA,NA,NA,NA,NA,NA,NA,NA,NA,NA
b41dd,"""Richtig""-Screen",canvas.Screen,3_0_0_0_1_0_1,NA,NA,skipped,NA,193767.3,NA,NA,193764.2,193767.5,2024-04-16T11:51:47Z,193780.4,NULL,Atmosphäre,angahewa,d,NA,NA,NA,NA,sdf,NA,0,NA,NA,NA,NA,NA,NA,NA,NA,NA,NA,NA,NA,NA,NA,NA,NA,NA,NA,NA
b41dd,"""Falsch""-Screen",canvas.Screen,3_0_0_0_1_0_2,NA,NA,timeout,4997.5,193767.9,193764.66,193780.4,198760.8,198761.8,2024-04-16T11:51:52Z,198777.9,NULL,Atmosphäre,angahewa,d,NA,NA,NA,NA,sdf,0,0,NA,NA,NA,NA,NA,NA,NA,NA,NA,NA,NA,NA,NA,NA,NA,NA,NA,NA,NA
b41dd,deep,flow.Sequence,3_0_0_0_1_0,NA,NA,completion,21686.5,177059.4,177057.6,177074.3,198760.8,198762.1,2024-04-16T11:51:52Z,198777.9,NULL,Atmosphäre,angahewa,d,NA,NA,NA,NA,sdf,NA,0,NA,NA,NA,NA,NA,NA,NA,NA,NA,NA,NA,NA,NA,NA,NA,NA,NA,NA,NA
b41dd,shallow,flow.Sequence,3_0_0_0_1_1,NA,NA,skipped,NA,198762.3,NA,NA,198760.8,198762.3,2024-04-16T11:51:52Z,198777.9,NULL,Atmosphäre,angahewa,d,NA,NA,NA,NA,sdf,NA,0,NA,NA,NA,NA,NA,NA,NA,NA,NA,NA,NA,NA,NA,NA,NA,NA,NA,NA,NA
b41dd,task,flow.Sequence,3_0_0_0_1,NA,NA,completion,21686.5,177059.3,177057.6,177074.3,198760.8,198762.6,2024-04-16T11:51:52Z,198777.9,NULL,Atmosphäre,angahewa,d,NA,NA,NA,NA,sdf,NA,0,NA,NA,NA,NA,NA,NA,NA,NA,NA,NA,NA,NA,NA,NA,NA,NA,NA,NA,NA
b41dd,deep,flow.Sequence,3_0_0_0_2_0,NA,NA,skipped,NA,198762.7,NA,NA,198760.8,198762.8,2024-04-16T11:51:52Z,198777.9,NULL,Sänger,mwimbaji,s,msichana,shughuli,mshirika,NA,sdf,NA,0,NA,NA,NA,NA,NA,NA,NA,NA,NA,NA,NA,NA,NA,NA,NA,NA,NA,NA,NA
b41dd,Shallow Question,html.Page,3_0_0_0_2_1_0,NA,NA,form submission,13589.6,198762.9,198760.8,198777.9,212367.5,212367.8,2024-04-16T11:52:06Z,212369.904,NULL,Sänger,mwimbaji,s,msichana,shughuli,mshirika,mshirika,NA,NA,0,NA,NA,NA,NA,NA,NA,NA,NA,NA,NA,NA,NA,NA,NA,NA,NA,NA,NA,NA
b41dd,"""Richtig""-Screen",canvas.Screen,3_0_0_0_2_1_1,NA,NA,skipped,NA,212370.8,NA,NA,212367.5,212371,2024-04-16T11:52:06Z,212369.904,NULL,Sänger,mwimbaji,s,msichana,shughuli,mshirika,NA,sdf,NA,0,NA,NA,NA,NA,NA,NA,NA,NA,NA,NA,NA,NA,NA,NA,NA,NA,NA,NA,NA
b41dd,"""Falsch""-Screen",canvas.Screen,3_0_0_0_2_1_2,NA,NA,timeout,4996.596,212371.9,212369.904,212369.904,217349.7,217350.3,2024-04-16T11:52:11Z,217366.5,NULL,Sänger,mwimbaji,s,msichana,shughuli,mshirika,NA,sdf,0,0,NA,NA,NA,NA,NA,NA,NA,NA,NA,NA,NA,NA,NA,NA,NA,NA,NA,NA,NA
b41dd,shallow,flow.Sequence,3_0_0_0_2_1,NA,NA,completion,18571.8,198762.9,198760.8,198777.9,217349.7,217350.5,2024-04-16T11:52:11Z,217366.5,NULL,Sänger,mwimbaji,s,msichana,shughuli,mshirika,NA,sdf,NA,0,NA,NA,NA,NA,NA,NA,NA,NA,NA,NA,NA,NA,NA,NA,NA,NA,NA,NA,NA
b41dd,task,flow.Sequence,3_0_0_0_2,NA,NA,completion,18571.8,198762.6,198760.8,198777.9,217349.7,217350.6,2024-04-16T11:52:11Z,217366.5,NULL,Sänger,mwimbaji,s,msichana,shughuli,mshirika,NA,sdf,NA,0,NA,NA,NA,NA,NA,NA,NA,NA,NA,NA,NA,NA,NA,NA,NA,NA,NA,NA,NA
b41dd,deep,flow.Sequence,3_0_0_0_3_0,NA,NA,skipped,NA,217350.7,NA,NA,217349.7,217350.8,2024-04-16T11:52:11Z,217366.5,NULL,Erneuerung,ukarabati,s,ushawishi,ukalifu,unyonyaji,NA,sdf,NA,0,NA,NA,NA,NA,NA,NA,NA,NA,NA,NA,NA,NA,NA,NA,NA,NA,NA,NA,NA
b41dd,Shallow Question,html.Page,3_0_0_0_3_1_0,NA,NA,form submission,28254.5,217350.9,217349.7,217366.5,245621,245621.3,2024-04-16T11:52:39Z,245632,NULL,Erneuerung,ukarabati,s,ushawishi,ukalifu,unyonyaji,ushawishi,NA,NA,0,NA,NA,NA,NA,NA,NA,NA,NA,NA,NA,NA,NA,NA,NA,NA,NA,NA,NA,NA
b41dd,"""Richtig""-Screen",canvas.Screen,3_0_0_0_3_1_1,NA,NA,skipped,NA,245624.5,NA,NA,245621,245624.7,2024-04-16T11:52:39Z,245632,NULL,Erneuerung,ukarabati,s,ushawishi,ukalifu,unyonyaji,NA,sdf,NA,0,NA,NA,NA,NA,NA,NA,NA,NA,NA,NA,NA,NA,NA,NA,NA,NA,NA,NA,NA
b41dd,"""Falsch""-Screen",canvas.Screen,3_0_0_0_3_1_2,NA,NA,timeout,4997.4,245625.4,245615.798,245632,250612.5,250613.5,2024-04-16T11:52:44Z,250629.4,NULL,Erneuerung,ukarabati,s,ushawishi,ukalifu,unyonyaji,NA,sdf,0,0,NA,NA,NA,NA,NA,NA,NA,NA,NA,NA,NA,NA,NA,NA,NA,NA,NA,NA,NA
b41dd,shallow,flow.Sequence,3_0_0_0_3_1,NA,NA,completion,33246,217350.9,217349.7,217366.5,250612.5,250613.8,2024-04-16T11:52:44Z,250629.4,NULL,Erneuerung,ukarabati,s,ushawishi,ukalifu,unyonyaji,NA,sdf,NA,0,NA,NA,NA,NA,NA,NA,NA,NA,NA,NA,NA,NA,NA,NA,NA,NA,NA,NA,NA
b41dd,task,flow.Sequence,3_0_0_0_3,NA,NA,completion,33246,217350.7,217349.7,217366.5,250612.5,250614.2,2024-04-16T11:52:44Z,250629.4,NULL,Erneuerung,ukarabati,s,ushawishi,ukalifu,unyonyaji,NA,sdf,NA,0,NA,NA,NA,NA,NA,NA,NA,NA,NA,NA,NA,NA,NA,NA,NA,NA,NA,NA,NA
b41dd,Deep Question,html.Page,3_0_0_0_4_0_0,NA,NA,form submission,8702.0000000004,250614.4,250612.5,250629.4,259331.4,259331.6,2024-04-16T11:52:53Z,259340.2,NULL,Flexibilität,kubadilika,d,NA,NA,NA,l,NA,NA,0,NA,NA,NA,NA,NA,NA,NA,NA,NA,NA,NA,NA,NA,NA,NA,NA,NA,NA,NA
b41dd,"""Richtig""-Screen",canvas.Screen,3_0_0_0_4_0_1,NA,NA,skipped,NA,259334.9,NA,NA,259331.4,259335,2024-04-16T11:52:53Z,259340.2,NULL,Flexibilität,kubadilika,d,NA,NA,NA,NA,sdf,NA,0,NA,NA,NA,NA,NA,NA,NA,NA,NA,NA,NA,NA,NA,NA,NA,NA,NA,NA,NA
b41dd,"""Falsch""-Screen",canvas.Screen,3_0_0_0_4_0_2,NA,NA,timeout,4997.4,259335.9,259325.442,259340.2,264320.6,264321.5,2024-04-16T11:52:58Z,264337.6,NULL,Flexibilität,kubadilika,d,NA,NA,NA,NA,sdf,0,0,NA,NA,NA,NA,NA,NA,NA,NA,NA,NA,NA,NA,NA,NA,NA,NA,NA,NA,NA
b41dd,deep,flow.Sequence,3_0_0_0_4_0,NA,NA,completion,13691.2,250614.3,250612.5,250629.4,264320.6,264321.8,2024-04-16T11:52:58Z,264337.6,NULL,Flexibilität,kubadilika,d,NA,NA,NA,NA,sdf,NA,0,NA,NA,NA,NA,NA,NA,NA,NA,NA,NA,NA,NA,NA,NA,NA,NA,NA,NA,NA
b41dd,shallow,flow.Sequence,3_0_0_0_4_1,NA,NA,skipped,NA,264321.9,NA,NA,264320.6,264322,2024-04-16T11:52:58Z,264337.6,NULL,Flexibilität,kubadilika,d,NA,NA,NA,NA,sdf,NA,0,NA,NA,NA,NA,NA,NA,NA,NA,NA,NA,NA,NA,NA,NA,NA,NA,NA,NA,NA
b41dd,task,flow.Sequence,3_0_0_0_4,NA,NA,completion,13691.2,250614.3,250612.5,250629.4,264320.6,264322.3,2024-04-16T11:52:58Z,264337.6,NULL,Flexibilität,kubadilika,d,NA,NA,NA,NA,sdf,NA,0,NA,NA,NA,NA,NA,NA,NA,NA,NA,NA,NA,NA,NA,NA,NA,NA,NA,NA,NA
b41dd,Deep Question,html.Page,3_0_0_0_5_0_0,NA,NA,form submission,24523.1,264322.4,264320.6,264337.6,288860.7,288860.9,2024-04-16T11:53:22Z,288872.4,NULL,Kanzler,diwani,d,NA,NA,NA,l,NA,NA,0,NA,NA,NA,NA,NA,NA,NA,NA,NA,NA,NA,NA,NA,NA,NA,NA,NA,NA,NA
b41dd,"""Richtig""-Screen",canvas.Screen,3_0_0_0_5_0_1,NA,NA,skipped,NA,288864.1,NA,NA,288860.7,288864.3,2024-04-16T11:53:22Z,288872.4,NULL,Kanzler,diwani,d,NA,NA,NA,NA,sdf,NA,0,NA,NA,NA,NA,NA,NA,NA,NA,NA,NA,NA,NA,NA,NA,NA,NA,NA,NA,NA
b41dd,"""Falsch""-Screen",canvas.Screen,3_0_0_0_5_0_2,NA,NA,timeout,4997.2,288865.3,288857.032,288872.4,293853,293853.9,2024-04-16T11:53:27Z,293869.6,NULL,Kanzler,diwani,d,NA,NA,NA,NA,sdf,0,0,NA,NA,NA,NA,NA,NA,NA,NA,NA,NA,NA,NA,NA,NA,NA,NA,NA,NA,NA
b41dd,deep,flow.Sequence,3_0_0_0_5_0,NA,NA,completion,29515.4,264322.3,264320.6,264337.6,293853,293854.2,2024-04-16T11:53:27Z,293869.6,NULL,Kanzler,diwani,d,NA,NA,NA,NA,sdf,NA,0,NA,NA,NA,NA,NA,NA,NA,NA,NA,NA,NA,NA,NA,NA,NA,NA,NA,NA,NA
b41dd,shallow,flow.Sequence,3_0_0_0_5_1,NA,NA,skipped,NA,293854.4,NA,NA,293853,293854.5,2024-04-16T11:53:27Z,293869.6,NULL,Kanzler,diwani,d,NA,NA,NA,NA,sdf,NA,0,NA,NA,NA,NA,NA,NA,NA,NA,NA,NA,NA,NA,NA,NA,NA,NA,NA,NA,NA
b41dd,task,flow.Sequence,3_0_0_0_5,NA,NA,completion,29515.4,264322.3,264320.6,264337.6,293853,293854.7,2024-04-16T11:53:27Z,293869.6,NULL,Kanzler,diwani,d,NA,NA,NA,NA,sdf,NA,0,NA,NA,NA,NA,NA,NA,NA,NA,NA,NA,NA,NA,NA,NA,NA,NA,NA,NA,NA
b41dd,deep,flow.Sequence,3_0_0_0_6_0,NA,NA,skipped,NA,293854.9,NA,NA,293853,293855,2024-04-16T11:53:27Z,293869.6,NULL,Angreifer,mshambulizi,s,kitengo,tasinia,usafirishaji,NA,sdf,NA,0,NA,NA,NA,NA,NA,NA,NA,NA,NA,NA,NA,NA,NA,NA,NA,NA,NA,NA,NA
b41dd,Shallow Question,html.Page,3_0_0_0_6_1_0,NA,NA,form submission,9119.0000000001,293855.1,293853,293869.6,302988.6,302988.8,2024-04-16T11:53:36Z,302997,NULL,Angreifer,mshambulizi,s,kitengo,tasinia,usafirishaji,tasinia,NA,NA,0,NA,NA,NA,NA,NA,NA,NA,NA,NA,NA,NA,NA,NA,NA,NA,NA,NA,NA,NA
b41dd,"""Richtig""-Screen",canvas.Screen,3_0_0_0_6_1_1,NA,NA,skipped,NA,302991.9,NA,NA,302988.6,302992,2024-04-16T11:53:36Z,302997,NULL,Angreifer,mshambulizi,s,kitengo,tasinia,usafirishaji,NA,sdf,NA,0,NA,NA,NA,NA,NA,NA,NA,NA,NA,NA,NA,NA,NA,NA,NA,NA,NA,NA,NA
b41dd,"""Falsch""-Screen",canvas.Screen,3_0_0_0_6_1_2,NA,NA,timeout,4996.9,302993,302982.7,302997,307977.2,307977.9,2024-04-16T11:53:41Z,307993.9,NULL,Angreifer,mshambulizi,s,kitengo,tasinia,usafirishaji,NA,sdf,0,0,NA,NA,NA,NA,NA,NA,NA,NA,NA,NA,NA,NA,NA,NA,NA,NA,NA,NA,NA
b41dd,shallow,flow.Sequence,3_0_0_0_6_1,NA,NA,completion,14107.6,293855.1,293853,293869.6,307977.2,307978,2024-04-16T11:53:41Z,307993.9,NULL,Angreifer,mshambulizi,s,kitengo,tasinia,usafirishaji,NA,sdf,NA,0,NA,NA,NA,NA,NA,NA,NA,NA,NA,NA,NA,NA,NA,NA,NA,NA,NA,NA,NA
b41dd,task,flow.Sequence,3_0_0_0_6,NA,NA,completion,14107.6,293854.8,293853,293869.6,307977.2,307978.1,2024-04-16T11:53:41Z,307993.9,NULL,Angreifer,mshambulizi,s,kitengo,tasinia,usafirishaji,NA,sdf,NA,0,NA,NA,NA,NA,NA,NA,NA,NA,NA,NA,NA,NA,NA,NA,NA,NA,NA,NA,NA
b41dd,deep,flow.Sequence,3_0_0_0_7_0,NA,NA,skipped,NA,307978.1,NA,NA,307977.2,307978.2,2024-04-16T11:53:41Z,307993.9,NULL,Wechsel,ugeuzaji,s,utambulisho,kujenga,wasiwasi,NA,sdf,NA,0,NA,NA,NA,NA,NA,NA,NA,NA,NA,NA,NA,NA,NA,NA,NA,NA,NA,NA,NA
b41dd,Shallow Question,html.Page,3_0_0_0_7_1_0,NA,NA,form submission,20792,307978.2,307977.2,307993.9,328785.9,328786,2024-04-16T11:54:02Z,328798.1,NULL,Wechsel,ugeuzaji,s,utambulisho,kujenga,wasiwasi,wasiwasi,NA,NA,0,NA,NA,NA,NA,NA,NA,NA,NA,NA,NA,NA,NA,NA,NA,NA,NA,NA,NA,NA
b41dd,"""Richtig""-Screen",canvas.Screen,3_0_0_0_7_1_1,NA,NA,skipped,NA,328789.1,NA,NA,328785.9,328789.2,2024-04-16T11:54:02Z,328798.1,NULL,Wechsel,ugeuzaji,s,utambulisho,kujenga,wasiwasi,NA,sdf,NA,0,NA,NA,NA,NA,NA,NA,NA,NA,NA,NA,NA,NA,NA,NA,NA,NA,NA,NA,NA
b41dd,"""Falsch""-Screen",canvas.Screen,3_0_0_0_7_1_2,NA,NA,timeout,4997.2,328789.9,328782.7,328798.1,333778.6,333779.3,2024-04-16T11:54:07Z,333795.3,NULL,Wechsel,ugeuzaji,s,utambulisho,kujenga,wasiwasi,NA,sdf,0,0,NA,NA,NA,NA,NA,NA,NA,NA,NA,NA,NA,NA,NA,NA,NA,NA,NA,NA,NA
b41dd,shallow,flow.Sequence,3_0_0_0_7_1,NA,NA,completion,25784.7,307978.2,307977.2,307993.9,333778.6,333779.6,2024-04-16T11:54:07Z,333795.3,NULL,Wechsel,ugeuzaji,s,utambulisho,kujenga,wasiwasi,NA,sdf,NA,0,NA,NA,NA,NA,NA,NA,NA,NA,NA,NA,NA,NA,NA,NA,NA,NA,NA,NA,NA
b41dd,task,flow.Sequence,3_0_0_0_7,NA,NA,completion,25784.7,307978.1,307977.2,307993.9,333778.6,333779.8,2024-04-16T11:54:07Z,333795.3,NULL,Wechsel,ugeuzaji,s,utambulisho,kujenga,wasiwasi,NA,sdf,NA,0,NA,NA,NA,NA,NA,NA,NA,NA,NA,NA,NA,NA,NA,NA,NA,NA,NA,NA,NA
b41dd,block,flow.Loop,3_0_0_0,NA,NA,completion,202426.9,131342.8,131341.362,131351.7,333778.6,333779.9,2024-04-16T11:54:07Z,333795.3,NULL,NA,NA,NA,NA,NA,NA,NA,sdf,NA,0,NA,NA,NA,NA,NA,NA,NA,NA,NA,NA,NA,NA,NA,NA,NA,NA,NA,NA,NA
b41dd,weiter,canvas.Screen,3_0_0_1,sdf,keypress(Space),response,1687.9000000002,333780,333778.6,333795.3,335483.2,335484.2,2024-04-16T11:54:09Z,335510.7,NULL,NA,NA,NA,NA,NA,NA,NA,sdf,NA,0,NA,NA,NA,NA,NA,NA,NA,NA,NA,NA,NA,NA,NA,NA,NA,NA,NA,NA,NA
b41dd,check continue,flow.Sequence,3_0_0,NA,NA,completion,204131.5,131342.8,131341.362,131351.7,335483.2,335484.5,2024-04-16T11:54:09Z,335510.7,NULL,NA,NA,NA,NA,NA,NA,NA,sdf,NA,0,NA,NA,NA,NA,NA,NA,NA,NA,NA,NA,NA,NA,NA,NA,NA,NA,NA,NA,NA
b41dd,deep,flow.Sequence,3_0_1_0_0_0,NA,NA,skipped,NA,335503.9,NA,NA,335483.2,335504,2024-04-16T11:54:09Z,335510.7,NULL,Wechsel,ugeuzaji,s,utambulisho,kujenga,wasiwasi,NA,sdfdsf,NA,1,NA,NA,NA,NA,NA,NA,NA,NA,NA,NA,NA,NA,NA,NA,NA,NA,NA,NA,NA
b41dd,Shallow Question,html.Page,3_0_1_0_0_1_0,NA,NA,form submission,10607.8,335504,335495.232,335510.7,346118.5,346118.7,2024-04-16T11:54:19Z,346120.6,NULL,Wechsel,ugeuzaji,s,utambulisho,kujenga,wasiwasi,ugeuzaji,NA,NA,1,NA,NA,NA,NA,NA,NA,NA,NA,NA,NA,NA,NA,NA,NA,NA,NA,NA,NA,NA
b41dd,"""Richtig""-Screen",canvas.Screen,3_0_1_0_0_1_1,NA,NA,timeout,4996.9,346121.8,346107.152,346120.6,351101.1,351102.1,2024-04-16T11:54:24Z,351117.5,NULL,Wechsel,ugeuzaji,s,utambulisho,kujenga,wasiwasi,NA,sdfdsf,1,1,NA,NA,NA,NA,NA,NA,NA,NA,NA,NA,NA,NA,NA,NA,NA,NA,NA,NA,NA
b41dd,"""Falsch""-Screen",canvas.Screen,3_0_1_0_0_1_2,NA,NA,skipped,NA,351106.8,NA,NA,351101.1,351106.9,2024-04-16T11:54:24Z,351117.5,NULL,Wechsel,ugeuzaji,s,utambulisho,kujenga,wasiwasi,NA,sdfdsf,NA,1,NA,NA,NA,NA,NA,NA,NA,NA,NA,NA,NA,NA,NA,NA,NA,NA,NA,NA,NA
b41dd,shallow,flow.Sequence,3_0_1_0_0_1,NA,NA,completion,15590.4,335504,335495.232,335510.7,351101.1,351107,2024-04-16T11:54:24Z,351117.5,NULL,Wechsel,ugeuzaji,s,utambulisho,kujenga,wasiwasi,NA,sdfdsf,NA,1,NA,NA,NA,NA,NA,NA,NA,NA,NA,NA,NA,NA,NA,NA,NA,NA,NA,NA,NA
b41dd,task,flow.Sequence,3_0_1_0_0,NA,NA,completion,15590.4,335503.9,335495.232,335510.7,351101.1,351107.1,2024-04-16T11:54:24Z,351117.5,NULL,Wechsel,ugeuzaji,s,utambulisho,kujenga,wasiwasi,NA,sdfdsf,NA,1,NA,NA,NA,NA,NA,NA,NA,NA,NA,NA,NA,NA,NA,NA,NA,NA,NA,NA,NA
b41dd,Deep Question,html.Page,3_0_1_0_1_0_0,NA,NA,form submission,9930.1000000001,351107.1,351101.1,351117.5,361047.6,361048,2024-04-16T11:54:34Z,361061.7,NULL,Abrechnung,uhasibu,d,NA,NA,NA,uhasibu,NA,NA,1,NA,NA,NA,NA,NA,NA,NA,NA,NA,NA,NA,NA,NA,NA,NA,NA,NA,NA,NA
b41dd,"""Richtig""-Screen",canvas.Screen,3_0_1_0_1_0_1,NA,NA,timeout,4997.3,361050.9,361047.088,361061.7,366042.1,366043,2024-04-16T11:54:39Z,366059,NULL,Abrechnung,uhasibu,d,NA,NA,NA,NA,sdfdsf,1,1,NA,NA,NA,NA,NA,NA,NA,NA,NA,NA,NA,NA,NA,NA,NA,NA,NA,NA,NA
b41dd,"""Falsch""-Screen",canvas.Screen,3_0_1_0_1_0_2,NA,NA,skipped,NA,366047.9,NA,NA,366042.1,366048,2024-04-16T11:54:39Z,366059,NULL,Abrechnung,uhasibu,d,NA,NA,NA,NA,sdfdsf,NA,1,NA,NA,NA,NA,NA,NA,NA,NA,NA,NA,NA,NA,NA,NA,NA,NA,NA,NA,NA
b41dd,deep,flow.Sequence,3_0_1_0_1_0,NA,NA,completion,14924.6,351107.1,351101.1,351117.5,366042.1,366048.1,2024-04-16T11:54:39Z,366059,NULL,Abrechnung,uhasibu,d,NA,NA,NA,NA,sdfdsf,NA,1,NA,NA,NA,NA,NA,NA,NA,NA,NA,NA,NA,NA,NA,NA,NA,NA,NA,NA,NA
b41dd,shallow,flow.Sequence,3_0_1_0_1_1,NA,NA,skipped,NA,366048.1,NA,NA,366042.1,366048.1,2024-04-16T11:54:39Z,366059,NULL,Abrechnung,uhasibu,d,NA,NA,NA,NA,sdfdsf,NA,1,NA,NA,NA,NA,NA,NA,NA,NA,NA,NA,NA,NA,NA,NA,NA,NA,NA,NA,NA
b41dd,task,flow.Sequence,3_0_1_0_1,NA,NA,completion,14924.6,351107.1,351101.1,351117.5,366042.1,366048.2,2024-04-16T11:54:39Z,366059,NULL,Abrechnung,uhasibu,d,NA,NA,NA,NA,sdfdsf,NA,1,NA,NA,NA,NA,NA,NA,NA,NA,NA,NA,NA,NA,NA,NA,NA,NA,NA,NA,NA
b41dd,deep,flow.Sequence,3_0_1_0_2_0,NA,NA,skipped,NA,366048.2,NA,NA,366042.1,366048.2,2024-04-16T11:54:39Z,366059,NULL,Sänger,mwimbaji,s,msichana,shughuli,mshirika,NA,sdfdsf,NA,1,NA,NA,NA,NA,NA,NA,NA,NA,NA,NA,NA,NA,NA,NA,NA,NA,NA,NA,NA
b41dd,Shallow Question,html.Page,3_0_1_0_2_1_0,NA,NA,form submission,7760.6000000001,366048.2,366042.1,366059,373819.6,373819.8,2024-04-16T11:54:47Z,373821.336,NULL,Sänger,mwimbaji,s,msichana,shughuli,mshirika,mwimbaji,NA,NA,1,NA,NA,NA,NA,NA,NA,NA,NA,NA,NA,NA,NA,NA,NA,NA,NA,NA,NA,NA
b41dd,"""Richtig""-Screen",canvas.Screen,3_0_1_0_2_1_1,NA,NA,timeout,4996.364,373822.9,373821.336,373821.336,378800.7,378801.7,2024-04-16T11:54:52Z,378817.7,NULL,Sänger,mwimbaji,s,msichana,shughuli,mshirika,NA,sdfdsf,1,1,NA,NA,NA,NA,NA,NA,NA,NA,NA,NA,NA,NA,NA,NA,NA,NA,NA,NA,NA
b41dd,"""Falsch""-Screen",canvas.Screen,3_0_1_0_2_1_2,NA,NA,skipped,NA,378806.9,NA,NA,378800.7,378807,2024-04-16T11:54:52Z,378817.7,NULL,Sänger,mwimbaji,s,msichana,shughuli,mshirika,NA,sdfdsf,NA,1,NA,NA,NA,NA,NA,NA,NA,NA,NA,NA,NA,NA,NA,NA,NA,NA,NA,NA,NA
b41dd,shallow,flow.Sequence,3_0_1_0_2_1,NA,NA,completion,12741.7,366048.2,366042.1,366059,378800.7,378807.2,2024-04-16T11:54:52Z,378817.7,NULL,Sänger,mwimbaji,s,msichana,shughuli,mshirika,NA,sdfdsf,NA,1,NA,NA,NA,NA,NA,NA,NA,NA,NA,NA,NA,NA,NA,NA,NA,NA,NA,NA,NA
b41dd,task,flow.Sequence,3_0_1_0_2,NA,NA,completion,12741.7,366048.2,366042.1,366059,378800.7,378807.2,2024-04-16T11:54:52Z,378817.7,NULL,Sänger,mwimbaji,s,msichana,shughuli,mshirika,NA,sdfdsf,NA,1,NA,NA,NA,NA,NA,NA,NA,NA,NA,NA,NA,NA,NA,NA,NA,NA,NA,NA,NA
b41dd,Deep Question,html.Page,3_0_1_0_3_0_0,NA,NA,form submission,15920.9,378807.3,378800.7,378817.7,394738.6,394738.7,2024-04-16T11:55:08Z,394740.8,NULL,Flexibilität,kubadilika,d,NA,NA,NA,kubadilika,NA,NA,1,NA,NA,NA,NA,NA,NA,NA,NA,NA,NA,NA,NA,NA,NA,NA,NA,NA,NA,NA
b41dd,"""Richtig""-Screen",canvas.Screen,3_0_1_0_3_0_1,NA,NA,timeout,4997.7,394740.1,394726.532,394740.8,399721.4,399722.3,2024-04-16T11:55:13Z,399738.5,NULL,Flexibilität,kubadilika,d,NA,NA,NA,NA,sdfdsf,1,1,NA,NA,NA,NA,NA,NA,NA,NA,NA,NA,NA,NA,NA,NA,NA,NA,NA,NA,NA
b41dd,"""Falsch""-Screen",canvas.Screen,3_0_1_0_3_0_2,NA,NA,skipped,NA,399727.4,NA,NA,399721.4,399727.5,2024-04-16T11:55:13Z,399738.5,NULL,Flexibilität,kubadilika,d,NA,NA,NA,NA,sdfdsf,NA,1,NA,NA,NA,NA,NA,NA,NA,NA,NA,NA,NA,NA,NA,NA,NA,NA,NA,NA,NA
b41dd,deep,flow.Sequence,3_0_1_0_3_0,NA,NA,completion,20903.7,378807.3,378800.7,378817.7,399721.4,399727.6,2024-04-16T11:55:13Z,399738.5,NULL,Flexibilität,kubadilika,d,NA,NA,NA,NA,sdfdsf,NA,1,NA,NA,NA,NA,NA,NA,NA,NA,NA,NA,NA,NA,NA,NA,NA,NA,NA,NA,NA
b41dd,shallow,flow.Sequence,3_0_1_0_3_1,NA,NA,skipped,NA,399727.6,NA,NA,399721.4,399727.6,2024-04-16T11:55:13Z,399738.5,NULL,Flexibilität,kubadilika,d,NA,NA,NA,NA,sdfdsf,NA,1,NA,NA,NA,NA,NA,NA,NA,NA,NA,NA,NA,NA,NA,NA,NA,NA,NA,NA,NA
b41dd,task,flow.Sequence,3_0_1_0_3,NA,NA,completion,20903.7,378807.3,378800.7,378817.7,399721.4,399727.7,2024-04-16T11:55:13Z,399738.5,NULL,Flexibilität,kubadilika,d,NA,NA,NA,NA,sdfdsf,NA,1,NA,NA,NA,NA,NA,NA,NA,NA,NA,NA,NA,NA,NA,NA,NA,NA,NA,NA,NA
b41dd,Deep Question,html.Page,3_0_1_0_4_0_0,NA,NA,form submission,9577.2000000002,399727.8,399721.4,399738.5,409315.7,409316,2024-04-16T11:55:23Z,409332.3,NULL,Atmosphäre,angahewa,d,NA,NA,NA,aturangi,NA,NA,1,NA,NA,NA,NA,NA,NA,NA,NA,NA,NA,NA,NA,NA,NA,NA,NA,NA,NA,NA
b41dd,"""Richtig""-Screen",canvas.Screen,3_0_1_0_4_0_1,NA,NA,skipped,NA,409319,NA,NA,409315.7,409319.2,2024-04-16T11:55:23Z,409332.3,NULL,Atmosphäre,angahewa,d,NA,NA,NA,NA,sdfdsf,NA,1,NA,NA,NA,NA,NA,NA,NA,NA,NA,NA,NA,NA,NA,NA,NA,NA,NA,NA,NA
b41dd,"""Falsch""-Screen",canvas.Screen,3_0_1_0_4_0_2,NA,NA,timeout,4997,409319.9,409317.434,409332.3,414312.7,414313.5,2024-04-16T11:55:28Z,414329.3,NULL,Atmosphäre,angahewa,d,NA,NA,NA,NA,sdfdsf,0,1,NA,NA,NA,NA,NA,NA,NA,NA,NA,NA,NA,NA,NA,NA,NA,NA,NA,NA,NA
b41dd,deep,flow.Sequence,3_0_1_0_4_0,NA,NA,completion,14574.2,399727.8,399721.4,399738.5,414312.7,414314,2024-04-16T11:55:28Z,414329.3,NULL,Atmosphäre,angahewa,d,NA,NA,NA,NA,sdfdsf,NA,1,NA,NA,NA,NA,NA,NA,NA,NA,NA,NA,NA,NA,NA,NA,NA,NA,NA,NA,NA
b41dd,shallow,flow.Sequence,3_0_1_0_4_1,NA,NA,skipped,NA,414314.1,NA,NA,414312.7,414314.3,2024-04-16T11:55:28Z,414329.3,NULL,Atmosphäre,angahewa,d,NA,NA,NA,NA,sdfdsf,NA,1,NA,NA,NA,NA,NA,NA,NA,NA,NA,NA,NA,NA,NA,NA,NA,NA,NA,NA,NA
b41dd,task,flow.Sequence,3_0_1_0_4,NA,NA,completion,14574.2,399727.7,399721.4,399738.5,414312.7,414314.5,2024-04-16T11:55:28Z,414329.3,NULL,Atmosphäre,angahewa,d,NA,NA,NA,NA,sdfdsf,NA,1,NA,NA,NA,NA,NA,NA,NA,NA,NA,NA,NA,NA,NA,NA,NA,NA,NA,NA,NA
b41dd,Deep Question,html.Page,3_0_1_0_5_0_0,NA,NA,form submission,7198.1000000004,414314.6,414312.7,414329.3,421527.4,421527.6,2024-04-16T11:55:35Z,421541.3,NULL,Kanzler,diwani,d,NA,NA,NA,l,NA,NA,1,NA,NA,NA,NA,NA,NA,NA,NA,NA,NA,NA,NA,NA,NA,NA,NA,NA,NA,NA
b41dd,"""Richtig""-Screen",canvas.Screen,3_0_1_0_5_0_1,NA,NA,skipped,NA,421530.9,NA,NA,421527.4,421531,2024-04-16T11:55:35Z,421541.3,NULL,Kanzler,diwani,d,NA,NA,NA,NA,sdfdsf,NA,1,NA,NA,NA,NA,NA,NA,NA,NA,NA,NA,NA,NA,NA,NA,NA,NA,NA,NA,NA
b41dd,"""Falsch""-Screen",canvas.Screen,3_0_1_0_5_0_2,NA,NA,timeout,4997.4,421531.9,421525.828,421541.3,426521.5,426522.4,2024-04-16T11:55:40Z,426538.7,NULL,Kanzler,diwani,d,NA,NA,NA,NA,sdfdsf,0,1,NA,NA,NA,NA,NA,NA,NA,NA,NA,NA,NA,NA,NA,NA,NA,NA,NA,NA,NA
b41dd,deep,flow.Sequence,3_0_1_0_5_0,NA,NA,completion,12192.2,414314.6,414312.7,414329.3,426521.5,426522.8,2024-04-16T11:55:40Z,426538.7,NULL,Kanzler,diwani,d,NA,NA,NA,NA,sdfdsf,NA,1,NA,NA,NA,NA,NA,NA,NA,NA,NA,NA,NA,NA,NA,NA,NA,NA,NA,NA,NA
b41dd,shallow,flow.Sequence,3_0_1_0_5_1,NA,NA,skipped,NA,426522.8,NA,NA,426521.5,426523,2024-04-16T11:55:40Z,426538.7,NULL,Kanzler,diwani,d,NA,NA,NA,NA,sdfdsf,NA,1,NA,NA,NA,NA,NA,NA,NA,NA,NA,NA,NA,NA,NA,NA,NA,NA,NA,NA,NA
b41dd,task,flow.Sequence,3_0_1_0_5,NA,NA,completion,12192.2,414314.5,414312.7,414329.3,426521.5,426523.2,2024-04-16T11:55:40Z,426538.7,NULL,Kanzler,diwani,d,NA,NA,NA,NA,sdfdsf,NA,1,NA,NA,NA,NA,NA,NA,NA,NA,NA,NA,NA,NA,NA,NA,NA,NA,NA,NA,NA
b41dd,deep,flow.Sequence,3_0_1_0_6_0,NA,NA,skipped,NA,426523.3,NA,NA,426521.5,426523.5,2024-04-16T11:55:40Z,426538.7,NULL,Erneuerung,ukarabati,s,ushawishi,ukalifu,unyonyaji,NA,sdfdsf,NA,1,NA,NA,NA,NA,NA,NA,NA,NA,NA,NA,NA,NA,NA,NA,NA,NA,NA,NA,NA
b41dd,Shallow Question,html.Page,3_0_1_0_6_1_0,NA,NA,form submission,15188.2,426523.6,426521.5,426538.7,441726.9,441727.1,2024-04-16T11:55:55Z,441730.592,NULL,Erneuerung,ukarabati,s,ushawishi,ukalifu,unyonyaji,ukarabati,NA,NA,1,NA,NA,NA,NA,NA,NA,NA,NA,NA,NA,NA,NA,NA,NA,NA,NA,NA,NA,NA
b41dd,"""Richtig""-Screen",canvas.Screen,3_0_1_0_6_1_1,NA,NA,timeout,4995.508,441730.2,441730.592,441730.592,446709.7,446710.7,2024-04-16T11:56:00Z,446726.1,NULL,Erneuerung,ukarabati,s,ushawishi,ukalifu,unyonyaji,NA,sdfdsf,1,1,NA,NA,NA,NA,NA,NA,NA,NA,NA,NA,NA,NA,NA,NA,NA,NA,NA,NA,NA
b41dd,"""Falsch""-Screen",canvas.Screen,3_0_1_0_6_1_2,NA,NA,skipped,NA,446716,NA,NA,446709.7,446716.1,2024-04-16T11:56:00Z,446726.1,NULL,Erneuerung,ukarabati,s,ushawishi,ukalifu,unyonyaji,NA,sdfdsf,NA,1,NA,NA,NA,NA,NA,NA,NA,NA,NA,NA,NA,NA,NA,NA,NA,NA,NA,NA,NA
b41dd,shallow,flow.Sequence,3_0_1_0_6_1,NA,NA,completion,20171,426523.5,426521.5,426538.7,446709.7,446716.1,2024-04-16T11:56:00Z,446726.1,NULL,Erneuerung,ukarabati,s,ushawishi,ukalifu,unyonyaji,NA,sdfdsf,NA,1,NA,NA,NA,NA,NA,NA,NA,NA,NA,NA,NA,NA,NA,NA,NA,NA,NA,NA,NA
b41dd,task,flow.Sequence,3_0_1_0_6,NA,NA,completion,20171,426523.3,426521.5,426538.7,446709.7,446716.2,2024-04-16T11:56:00Z,446726.1,NULL,Erneuerung,ukarabati,s,ushawishi,ukalifu,unyonyaji,NA,sdfdsf,NA,1,NA,NA,NA,NA,NA,NA,NA,NA,NA,NA,NA,NA,NA,NA,NA,NA,NA,NA,NA
b41dd,deep,flow.Sequence,3_0_1_0_7_0,NA,NA,skipped,NA,446716.3,NA,NA,446709.7,446716.3,2024-04-16T11:56:00Z,446726.1,NULL,Angreifer,mshambulizi,s,kitengo,tasinia,usafirishaji,NA,sdfdsf,NA,1,NA,NA,NA,NA,NA,NA,NA,NA,NA,NA,NA,NA,NA,NA,NA,NA,NA,NA,NA
b41dd,Shallow Question,html.Page,3_0_1_0_7_1_0,NA,NA,form submission,9390.5000000001,446716.4,446709.7,446726.1,456116.6,456116.9,2024-04-16T11:56:09Z,456120,NULL,Angreifer,mshambulizi,s,kitengo,tasinia,usafirishaji,mshambulizi,NA,NA,1,NA,NA,NA,NA,NA,NA,NA,NA,NA,NA,NA,NA,NA,NA,NA,NA,NA,NA,NA
b41dd,"""Richtig""-Screen",canvas.Screen,3_0_1_0_7_1_1,NA,NA,timeout,4997.5,456119.9,456104.234,456120,461100.4,461101.5,2024-04-16T11:56:14Z,461117.5,NULL,Angreifer,mshambulizi,s,kitengo,tasinia,usafirishaji,NA,sdfdsf,1,1,NA,NA,NA,NA,NA,NA,NA,NA,NA,NA,NA,NA,NA,NA,NA,NA,NA,NA,NA
b41dd,"""Falsch""-Screen",canvas.Screen,3_0_1_0_7_1_2,NA,NA,skipped,NA,461106.2,NA,NA,461100.4,461106.4,2024-04-16T11:56:14Z,461117.5,NULL,Angreifer,mshambulizi,s,kitengo,tasinia,usafirishaji,NA,sdfdsf,NA,1,NA,NA,NA,NA,NA,NA,NA,NA,NA,NA,NA,NA,NA,NA,NA,NA,NA,NA,NA
b41dd,shallow,flow.Sequence,3_0_1_0_7_1,NA,NA,completion,14374.3,446716.3,446709.7,446726.1,461100.4,461106.5,2024-04-16T11:56:14Z,461117.5,NULL,Angreifer,mshambulizi,s,kitengo,tasinia,usafirishaji,NA,sdfdsf,NA,1,NA,NA,NA,NA,NA,NA,NA,NA,NA,NA,NA,NA,NA,NA,NA,NA,NA,NA,NA
b41dd,task,flow.Sequence,3_0_1_0_7,NA,NA,completion,14374.3,446716.3,446709.7,446726.1,461100.4,461106.6,2024-04-16T11:56:14Z,461117.5,NULL,Angreifer,mshambulizi,s,kitengo,tasinia,usafirishaji,NA,sdfdsf,NA,1,NA,NA,NA,NA,NA,NA,NA,NA,NA,NA,NA,NA,NA,NA,NA,NA,NA,NA,NA
b41dd,block,flow.Loop,3_0_1_0,NA,NA,completion,125589.7,335503.9,335495.232,335510.7,461100.4,461106.6,2024-04-16T11:56:14Z,461117.5,NULL,NA,NA,NA,NA,NA,NA,NA,sdfdsf,NA,1,NA,NA,NA,NA,NA,NA,NA,NA,NA,NA,NA,NA,NA,NA,NA,NA,NA,NA,NA
b41dd,weiter,canvas.Screen,3_0_1_1,sdf,keypress(Space),response,1263.8000000003,461106.6,461100.4,461117.5,462381.3,462382.3,2024-04-16T11:56:16Z,462416.8,NULL,NA,NA,NA,NA,NA,NA,NA,sdfdsf,NA,1,NA,NA,NA,NA,NA,NA,NA,NA,NA,NA,NA,NA,NA,NA,NA,NA,NA,NA,NA
b41dd,check continue,flow.Sequence,3_0_1,NA,NA,completion,126870.6,335503.9,335495.232,335510.7,462381.3,462382.6,2024-04-16T11:56:16Z,462416.8,NULL,NA,NA,NA,NA,NA,NA,NA,sdfdsf,NA,1,NA,NA,NA,NA,NA,NA,NA,NA,NA,NA,NA,NA,NA,NA,NA,NA,NA,NA,NA
b41dd,deep,flow.Sequence,3_0_2_0_0_0,NA,NA,skipped,NA,462400.5,NA,NA,462381.3,462400.7,2024-04-16T11:56:16Z,462416.8,NULL,Erneuerung,ukarabati,s,ushawishi,ukalifu,unyonyaji,NA,sdf,NA,2,NA,NA,NA,NA,NA,NA,NA,NA,NA,NA,NA,NA,NA,NA,NA,NA,NA,NA,NA
b41dd,Shallow Question,html.Page,3_0_2_0_0_1_0,NA,NA,form submission,8860.8000000001,462400.7,462400.782,462416.8,471277.6,471277.8,2024-04-16T11:56:25Z,471294.7,NULL,Erneuerung,ukarabati,s,ushawishi,ukalifu,unyonyaji,ukarabati,NA,NA,2,NA,NA,NA,NA,NA,NA,NA,NA,NA,NA,NA,NA,NA,NA,NA,NA,NA,NA,NA
b41dd,"""Richtig""-Screen",canvas.Screen,3_0_2_0_0_1_1,NA,NA,timeout,4996.8,471281.1,471278.498,471294.7,476274.9,476275.8,2024-04-16T11:56:30Z,476291.5,NULL,Erneuerung,ukarabati,s,ushawishi,ukalifu,unyonyaji,NA,sdf,1,2,NA,NA,NA,NA,NA,NA,NA,NA,NA,NA,NA,NA,NA,NA,NA,NA,NA,NA,NA
b41dd,"""Falsch""-Screen",canvas.Screen,3_0_2_0_0_1_2,NA,NA,skipped,NA,476281,NA,NA,476274.9,476281.2,2024-04-16T11:56:30Z,476291.5,NULL,Erneuerung,ukarabati,s,ushawishi,ukalifu,unyonyaji,NA,sdf,NA,2,NA,NA,NA,NA,NA,NA,NA,NA,NA,NA,NA,NA,NA,NA,NA,NA,NA,NA,NA
b41dd,shallow,flow.Sequence,3_0_2_0_0_1,NA,NA,completion,13858.1,462400.7,462400.782,462416.8,476274.9,476281.2,2024-04-16T11:56:30Z,476291.5,NULL,Erneuerung,ukarabati,s,ushawishi,ukalifu,unyonyaji,NA,sdf,NA,2,NA,NA,NA,NA,NA,NA,NA,NA,NA,NA,NA,NA,NA,NA,NA,NA,NA,NA,NA
b41dd,task,flow.Sequence,3_0_2_0_0,NA,NA,completion,13858.1,462400.5,462400.782,462416.8,476274.9,476281.3,2024-04-16T11:56:30Z,476291.5,NULL,Erneuerung,ukarabati,s,ushawishi,ukalifu,unyonyaji,NA,sdf,NA,2,NA,NA,NA,NA,NA,NA,NA,NA,NA,NA,NA,NA,NA,NA,NA,NA,NA,NA,NA
b41dd,Deep Question,html.Page,3_0_2_0_1_0_0,NA,NA,form submission,5772.9000000004,476281.4,476274.9,476291.5,482064.4,482064.6,2024-04-16T11:56:35Z,482070.8,NULL,Kanzler,diwani,d,NA,NA,NA,diwani,NA,NA,2,NA,NA,NA,NA,NA,NA,NA,NA,NA,NA,NA,NA,NA,NA,NA,NA,NA,NA,NA
b41dd,"""Richtig""-Screen",canvas.Screen,3_0_2_0_1_0_1,NA,NA,timeout,4997.6,482067.6,482056.902,482070.8,487051.3,487052.2,2024-04-16T11:56:40Z,487068.4,NULL,Kanzler,diwani,d,NA,NA,NA,NA,sdf,1,2,NA,NA,NA,NA,NA,NA,NA,NA,NA,NA,NA,NA,NA,NA,NA,NA,NA,NA,NA
b41dd,"""Falsch""-Screen",canvas.Screen,3_0_2_0_1_0_2,NA,NA,skipped,NA,487057.2,NA,NA,487051.3,487057.2,2024-04-16T11:56:40Z,487068.4,NULL,Kanzler,diwani,d,NA,NA,NA,NA,sdf,NA,2,NA,NA,NA,NA,NA,NA,NA,NA,NA,NA,NA,NA,NA,NA,NA,NA,NA,NA,NA
b41dd,deep,flow.Sequence,3_0_2_0_1_0,NA,NA,completion,10759.8,476281.4,476274.9,476291.5,487051.3,487057.3,2024-04-16T11:56:40Z,487068.4,NULL,Kanzler,diwani,d,NA,NA,NA,NA,sdf,NA,2,NA,NA,NA,NA,NA,NA,NA,NA,NA,NA,NA,NA,NA,NA,NA,NA,NA,NA,NA
b41dd,shallow,flow.Sequence,3_0_2_0_1_1,NA,NA,skipped,NA,487057.3,NA,NA,487051.3,487057.4,2024-04-16T11:56:40Z,487068.4,NULL,Kanzler,diwani,d,NA,NA,NA,NA,sdf,NA,2,NA,NA,NA,NA,NA,NA,NA,NA,NA,NA,NA,NA,NA,NA,NA,NA,NA,NA,NA
b41dd,task,flow.Sequence,3_0_2_0_1,NA,NA,completion,10759.8,476281.3,476274.9,476291.5,487051.3,487057.5,2024-04-16T11:56:40Z,487068.4,NULL,Kanzler,diwani,d,NA,NA,NA,NA,sdf,NA,2,NA,NA,NA,NA,NA,NA,NA,NA,NA,NA,NA,NA,NA,NA,NA,NA,NA,NA,NA
b41dd,deep,flow.Sequence,3_0_2_0_2_0,NA,NA,skipped,NA,487057.5,NA,NA,487051.3,487057.5,2024-04-16T11:56:40Z,487068.4,NULL,Angreifer,mshambulizi,s,kitengo,tasinia,usafirishaji,NA,sdf,NA,2,NA,NA,NA,NA,NA,NA,NA,NA,NA,NA,NA,NA,NA,NA,NA,NA,NA,NA,NA
b41dd,Shallow Question,html.Page,3_0_2_0_2_1_0,NA,NA,form submission,4521.7000000001,487057.5,487051.3,487068.4,491590.1,491590.4,2024-04-16T11:56:45Z,491598.7,NULL,Angreifer,mshambulizi,s,kitengo,tasinia,usafirishaji,mshambulizi,NA,NA,2,NA,NA,NA,NA,NA,NA,NA,NA,NA,NA,NA,NA,NA,NA,NA,NA,NA,NA,NA
b41dd,"""Richtig""-Screen",canvas.Screen,3_0_2_0_2_1_1,NA,NA,timeout,4997.2,491593.4,491582.4,491598.7,496579.2,496580,2024-04-16T11:56:50Z,496595.9,NULL,Angreifer,mshambulizi,s,kitengo,tasinia,usafirishaji,NA,sdf,1,2,NA,NA,NA,NA,NA,NA,NA,NA,NA,NA,NA,NA,NA,NA,NA,NA,NA,NA,NA
b41dd,"""Falsch""-Screen",canvas.Screen,3_0_2_0_2_1_2,NA,NA,skipped,NA,496584.7,NA,NA,496579.2,496584.7,2024-04-16T11:56:50Z,496595.9,NULL,Angreifer,mshambulizi,s,kitengo,tasinia,usafirishaji,NA,sdf,NA,2,NA,NA,NA,NA,NA,NA,NA,NA,NA,NA,NA,NA,NA,NA,NA,NA,NA,NA,NA
b41dd,shallow,flow.Sequence,3_0_2_0_2_1,NA,NA,completion,9510.8,487057.5,487051.3,487068.4,496579.2,496584.8,2024-04-16T11:56:50Z,496595.9,NULL,Angreifer,mshambulizi,s,kitengo,tasinia,usafirishaji,NA,sdf,NA,2,NA,NA,NA,NA,NA,NA,NA,NA,NA,NA,NA,NA,NA,NA,NA,NA,NA,NA,NA
b41dd,task,flow.Sequence,3_0_2_0_2,NA,NA,completion,9510.8,487057.5,487051.3,487068.4,496579.2,496584.9,2024-04-16T11:56:50Z,496595.9,NULL,Angreifer,mshambulizi,s,kitengo,tasinia,usafirishaji,NA,sdf,NA,2,NA,NA,NA,NA,NA,NA,NA,NA,NA,NA,NA,NA,NA,NA,NA,NA,NA,NA,NA
b41dd,Deep Question,html.Page,3_0_2_0_3_0_0,NA,NA,form submission,6446.3000000002,496584.9,496579.2,496595.9,503042.2,503042.4,2024-04-16T11:56:56Z,503058.6,NULL,Abrechnung,uhasibu,d,NA,NA,NA,uhasibu,NA,NA,2,NA,NA,NA,NA,NA,NA,NA,NA,NA,NA,NA,NA,NA,NA,NA,NA,NA,NA,NA
b41dd,"""Richtig""-Screen",canvas.Screen,3_0_2_0_3_0_1,NA,NA,timeout,4996.4,503045.4,503042.466,503058.6,508038.4,508039.3,2024-04-16T11:57:01Z,508055,NULL,Abrechnung,uhasibu,d,NA,NA,NA,NA,sdf,1,2,NA,NA,NA,NA,NA,NA,NA,NA,NA,NA,NA,NA,NA,NA,NA,NA,NA,NA,NA
b41dd,"""Falsch""-Screen",canvas.Screen,3_0_2_0_3_0_2,NA,NA,skipped,NA,508043.9,NA,NA,508038.4,508044,2024-04-16T11:57:01Z,508055,NULL,Abrechnung,uhasibu,d,NA,NA,NA,NA,sdf,NA,2,NA,NA,NA,NA,NA,NA,NA,NA,NA,NA,NA,NA,NA,NA,NA,NA,NA,NA,NA
b41dd,deep,flow.Sequence,3_0_2_0_3_0,NA,NA,completion,11442.5,496584.9,496579.2,496595.9,508038.4,508044.1,2024-04-16T11:57:01Z,508055,NULL,Abrechnung,uhasibu,d,NA,NA,NA,NA,sdf,NA,2,NA,NA,NA,NA,NA,NA,NA,NA,NA,NA,NA,NA,NA,NA,NA,NA,NA,NA,NA
b41dd,shallow,flow.Sequence,3_0_2_0_3_1,NA,NA,skipped,NA,508044.1,NA,NA,508038.4,508044.1,2024-04-16T11:57:01Z,508055,NULL,Abrechnung,uhasibu,d,NA,NA,NA,NA,sdf,NA,2,NA,NA,NA,NA,NA,NA,NA,NA,NA,NA,NA,NA,NA,NA,NA,NA,NA,NA,NA
b41dd,task,flow.Sequence,3_0_2_0_3,NA,NA,completion,11442.5,496584.9,496579.2,496595.9,508038.4,508044.2,2024-04-16T11:57:01Z,508055,NULL,Abrechnung,uhasibu,d,NA,NA,NA,NA,sdf,NA,2,NA,NA,NA,NA,NA,NA,NA,NA,NA,NA,NA,NA,NA,NA,NA,NA,NA,NA,NA
b41dd,Deep Question,html.Page,3_0_2_0_4_0_0,NA,NA,form submission,10743.2,508044.3,508038.4,508055,518798.2,518798.5,2024-04-16T11:57:12Z,518816.1,NULL,Atmosphäre,angahewa,d,NA,NA,NA,angehawa,NA,NA,2,NA,NA,NA,NA,NA,NA,NA,NA,NA,NA,NA,NA,NA,NA,NA,NA,NA,NA,NA
b41dd,"""Richtig""-Screen",canvas.Screen,3_0_2_0_4_0_1,NA,NA,skipped,NA,518801.5,NA,NA,518798.2,518801.6,2024-04-16T11:57:12Z,518816.1,NULL,Atmosphäre,angahewa,d,NA,NA,NA,NA,sdf,NA,2,NA,NA,NA,NA,NA,NA,NA,NA,NA,NA,NA,NA,NA,NA,NA,NA,NA,NA,NA
b41dd,"""Falsch""-Screen",canvas.Screen,3_0_2_0_4_0_2,NA,NA,timeout,4996.3,518802.3,518786.768,518816.1,523795.5,523796.3,2024-04-16T11:57:17Z,523812.4,NULL,Atmosphäre,angahewa,d,NA,NA,NA,NA,sdf,0,2,NA,NA,NA,NA,NA,NA,NA,NA,NA,NA,NA,NA,NA,NA,NA,NA,NA,NA,NA
b41dd,deep,flow.Sequence,3_0_2_0_4_0,NA,NA,completion,15740.5,508044.2,508038.4,508055,523795.5,523796.7,2024-04-16T11:57:17Z,523812.4,NULL,Atmosphäre,angahewa,d,NA,NA,NA,NA,sdf,NA,2,NA,NA,NA,NA,NA,NA,NA,NA,NA,NA,NA,NA,NA,NA,NA,NA,NA,NA,NA
b41dd,shallow,flow.Sequence,3_0_2_0_4_1,NA,NA,skipped,NA,523796.8,NA,NA,523795.5,523797,2024-04-16T11:57:17Z,523812.4,NULL,Atmosphäre,angahewa,d,NA,NA,NA,NA,sdf,NA,2,NA,NA,NA,NA,NA,NA,NA,NA,NA,NA,NA,NA,NA,NA,NA,NA,NA,NA,NA
b41dd,task,flow.Sequence,3_0_2_0_4,NA,NA,completion,15740.5,508044.2,508038.4,508055,523795.5,523797.1,2024-04-16T11:57:17Z,523812.4,NULL,Atmosphäre,angahewa,d,NA,NA,NA,NA,sdf,NA,2,NA,NA,NA,NA,NA,NA,NA,NA,NA,NA,NA,NA,NA,NA,NA,NA,NA,NA,NA
b41dd,Deep Question,html.Page,3_0_2_0_5_0_0,NA,NA,form submission,18940.5,523797.2,523795.5,523812.4,542752.9,542753.2,2024-04-16T11:57:36Z,542767.1,NULL,Flexibilität,kubadilika,d,NA,NA,NA,kubadileki,NA,NA,2,NA,NA,NA,NA,NA,NA,NA,NA,NA,NA,NA,NA,NA,NA,NA,NA,NA,NA,NA
b41dd,"""Richtig""-Screen",canvas.Screen,3_0_2_0_5_0_1,NA,NA,skipped,NA,542755.7,NA,NA,542752.9,542755.9,2024-04-16T11:57:36Z,542767.1,NULL,Flexibilität,kubadilika,d,NA,NA,NA,NA,sdf,NA,2,NA,NA,NA,NA,NA,NA,NA,NA,NA,NA,NA,NA,NA,NA,NA,NA,NA,NA,NA
b41dd,"""Falsch""-Screen",canvas.Screen,3_0_2_0_5_0_2,NA,NA,timeout,4997.5,542756.2,542751.934,542767.1,547747.7,547748.8,2024-04-16T11:57:41Z,547764.6,NULL,Flexibilität,kubadilika,d,NA,NA,NA,NA,sdf,0,2,NA,NA,NA,NA,NA,NA,NA,NA,NA,NA,NA,NA,NA,NA,NA,NA,NA,NA,NA
b41dd,deep,flow.Sequence,3_0_2_0_5_0,NA,NA,completion,23935.3,523797.2,523795.5,523812.4,547747.7,547749.2,2024-04-16T11:57:41Z,547764.6,NULL,Flexibilität,kubadilika,d,NA,NA,NA,NA,sdf,NA,2,NA,NA,NA,NA,NA,NA,NA,NA,NA,NA,NA,NA,NA,NA,NA,NA,NA,NA,NA
b41dd,shallow,flow.Sequence,3_0_2_0_5_1,NA,NA,skipped,NA,547749.3,NA,NA,547747.7,547749.4,2024-04-16T11:57:41Z,547764.6,NULL,Flexibilität,kubadilika,d,NA,NA,NA,NA,sdf,NA,2,NA,NA,NA,NA,NA,NA,NA,NA,NA,NA,NA,NA,NA,NA,NA,NA,NA,NA,NA
b41dd,task,flow.Sequence,3_0_2_0_5,NA,NA,completion,23935.3,523797.2,523795.5,523812.4,547747.7,547749.7,2024-04-16T11:57:41Z,547764.6,NULL,Flexibilität,kubadilika,d,NA,NA,NA,NA,sdf,NA,2,NA,NA,NA,NA,NA,NA,NA,NA,NA,NA,NA,NA,NA,NA,NA,NA,NA,NA,NA
b41dd,deep,flow.Sequence,3_0_2_0_6_0,NA,NA,skipped,NA,547749.9,NA,NA,547747.7,547749.9,2024-04-16T11:57:41Z,547764.6,NULL,Sänger,mwimbaji,s,msichana,shughuli,mshirika,NA,sdf,NA,2,NA,NA,NA,NA,NA,NA,NA,NA,NA,NA,NA,NA,NA,NA,NA,NA,NA,NA,NA
b41dd,Shallow Question,html.Page,3_0_2_0_6_1_0,NA,NA,form submission,3375.3000000004,547750.1,547747.7,547764.6,551139.9,551140,2024-04-16T11:57:44Z,551145.4,NULL,Sänger,mwimbaji,s,msichana,shughuli,mshirika,mwimbaji,NA,NA,2,NA,NA,NA,NA,NA,NA,NA,NA,NA,NA,NA,NA,NA,NA,NA,NA,NA,NA,NA
b41dd,"""Richtig""-Screen",canvas.Screen,3_0_2_0_6_1_1,NA,NA,timeout,4997.2999999999,551143.2,551129.4,551145.4,556125.9,556126.9,2024-04-16T11:57:49Z,556142.7,NULL,Sänger,mwimbaji,s,msichana,shughuli,mshirika,NA,sdf,1,2,NA,NA,NA,NA,NA,NA,NA,NA,NA,NA,NA,NA,NA,NA,NA,NA,NA,NA,NA
b41dd,"""Falsch""-Screen",canvas.Screen,3_0_2_0_6_1_2,NA,NA,skipped,NA,556132,NA,NA,556125.9,556132.2,2024-04-16T11:57:49Z,556142.7,NULL,Sänger,mwimbaji,s,msichana,shughuli,mshirika,NA,sdf,NA,2,NA,NA,NA,NA,NA,NA,NA,NA,NA,NA,NA,NA,NA,NA,NA,NA,NA,NA,NA
b41dd,shallow,flow.Sequence,3_0_2_0_6_1,NA,NA,completion,8361.3,547750,547747.7,547764.6,556125.9,556132.3,2024-04-16T11:57:49Z,556142.7,NULL,Sänger,mwimbaji,s,msichana,shughuli,mshirika,NA,sdf,NA,2,NA,NA,NA,NA,NA,NA,NA,NA,NA,NA,NA,NA,NA,NA,NA,NA,NA,NA,NA
b41dd,task,flow.Sequence,3_0_2_0_6,NA,NA,completion,8361.3,547749.8,547747.7,547764.6,556125.9,556132.4,2024-04-16T11:57:49Z,556142.7,NULL,Sänger,mwimbaji,s,msichana,shughuli,mshirika,NA,sdf,NA,2,NA,NA,NA,NA,NA,NA,NA,NA,NA,NA,NA,NA,NA,NA,NA,NA,NA,NA,NA
b41dd,deep,flow.Sequence,3_0_2_0_7_0,NA,NA,skipped,NA,556132.4,NA,NA,556125.9,556132.4,2024-04-16T11:57:49Z,556142.7,NULL,Wechsel,ugeuzaji,s,utambulisho,kujenga,wasiwasi,NA,sdf,NA,2,NA,NA,NA,NA,NA,NA,NA,NA,NA,NA,NA,NA,NA,NA,NA,NA,NA,NA,NA
b41dd,Shallow Question,html.Page,3_0_2_0_7_1_0,NA,NA,form submission,5912.2000000004,556132.5,556125.9,556142.7,562054.9,562055.2,2024-04-16T11:57:55Z,562056.064,NULL,Wechsel,ugeuzaji,s,utambulisho,kujenga,wasiwasi,ugeuzaji,NA,NA,2,NA,NA,NA,NA,NA,NA,NA,NA,NA,NA,NA,NA,NA,NA,NA,NA,NA,NA,NA
b41dd,"""Richtig""-Screen",canvas.Screen,3_0_2_0_7_1_1,NA,NA,timeout,4996.736,562058.1,562056.064,562056.064,567036.2,567037.1,2024-04-16T11:58:00Z,567052.8,NULL,Wechsel,ugeuzaji,s,utambulisho,kujenga,wasiwasi,NA,sdf,1,2,NA,NA,NA,NA,NA,NA,NA,NA,NA,NA,NA,NA,NA,NA,NA,NA,NA,NA,NA
b41dd,"""Falsch""-Screen",canvas.Screen,3_0_2_0_7_1_2,NA,NA,skipped,NA,567042.5,NA,NA,567036.2,567042.6,2024-04-16T11:58:00Z,567052.8,NULL,Wechsel,ugeuzaji,s,utambulisho,kujenga,wasiwasi,NA,sdf,NA,2,NA,NA,NA,NA,NA,NA,NA,NA,NA,NA,NA,NA,NA,NA,NA,NA,NA,NA,NA
b41dd,shallow,flow.Sequence,3_0_2_0_7_1,NA,NA,completion,10893.5,556132.4,556125.9,556142.7,567036.2,567042.7,2024-04-16T11:58:00Z,567052.8,NULL,Wechsel,ugeuzaji,s,utambulisho,kujenga,wasiwasi,NA,sdf,NA,2,NA,NA,NA,NA,NA,NA,NA,NA,NA,NA,NA,NA,NA,NA,NA,NA,NA,NA,NA
b41dd,task,flow.Sequence,3_0_2_0_7,NA,NA,completion,10893.5,556132.4,556125.9,556142.7,567036.2,567042.7,2024-04-16T11:58:00Z,567052.8,NULL,Wechsel,ugeuzaji,s,utambulisho,kujenga,wasiwasi,NA,sdf,NA,2,NA,NA,NA,NA,NA,NA,NA,NA,NA,NA,NA,NA,NA,NA,NA,NA,NA,NA,NA
b41dd,block,flow.Loop,3_0_2_0,NA,NA,completion,104619.4,462400.5,462400.782,462416.8,567036.2,567042.8,2024-04-16T11:58:00Z,567052.8,NULL,NA,NA,NA,NA,NA,NA,NA,sdf,NA,2,NA,NA,NA,NA,NA,NA,NA,NA,NA,NA,NA,NA,NA,NA,NA,NA,NA,NA,NA
b41dd,weiter,canvas.Screen,3_0_2_1,sdf,keypress(Space),response,1116.4000000001,567042.9,567036.2,567052.8,568169.2,568170,2024-04-16T11:58:01Z,568518.3,NULL,NA,NA,NA,NA,NA,NA,NA,sdf,NA,2,NA,NA,NA,NA,NA,NA,NA,NA,NA,NA,NA,NA,NA,NA,NA,NA,NA,NA,NA
b41dd,check continue,flow.Sequence,3_0_2,NA,NA,completion,105752.4,462400.5,462400.782,462416.8,568169.2,568170.3,2024-04-16T11:58:01Z,568518.3,NULL,NA,NA,NA,NA,NA,NA,NA,sdf,NA,2,NA,NA,NA,NA,NA,NA,NA,NA,NA,NA,NA,NA,NA,NA,NA,NA,NA,NA,NA
b41dd,check continue,flow.Sequence,3_0_3,NA,NA,skipped,NA,568192.7,NA,NA,568169.2,568192.8,2024-04-16T11:58:01Z,568518.3,NULL,NA,NA,NA,NA,NA,NA,NA,qt,NA,3,NA,NA,NA,NA,NA,NA,NA,NA,NA,NA,NA,NA,NA,NA,NA,NA,NA,NA,NA
b41dd,check continue,flow.Sequence,3_0_4,NA,NA,skipped,NA,568207.5,NA,NA,568169.2,568207.5,2024-04-16T11:58:01Z,568518.3,NULL,NA,NA,NA,NA,NA,NA,NA,sd,NA,4,NA,NA,NA,NA,NA,NA,NA,NA,NA,NA,NA,NA,NA,NA,NA,NA,NA,NA,NA
b41dd,check continue,flow.Sequence,3_0_5,NA,NA,skipped,NA,568221.5,NA,NA,568169.2,568221.5,2024-04-16T11:58:02Z,568518.3,NULL,NA,NA,NA,NA,NA,NA,NA,sdf,NA,5,NA,NA,NA,NA,NA,NA,NA,NA,NA,NA,NA,NA,NA,NA,NA,NA,NA,NA,NA
b41dd,check continue,flow.Sequence,3_0_6,NA,NA,skipped,NA,568235.2,NA,NA,568169.2,568235.4,2024-04-16T11:58:02Z,568518.3,NULL,NA,NA,NA,NA,NA,NA,NA,dfs,NA,6,NA,NA,NA,NA,NA,NA,NA,NA,NA,NA,NA,NA,NA,NA,NA,NA,NA,NA,NA
b41dd,check continue,flow.Sequence,3_0_7,NA,NA,skipped,NA,568247.7,NA,NA,568169.2,568247.8,2024-04-16T11:58:02Z,568518.3,NULL,NA,NA,NA,NA,NA,NA,NA,df,NA,7,NA,NA,NA,NA,NA,NA,NA,NA,NA,NA,NA,NA,NA,NA,NA,NA,NA,NA,NA
b41dd,check continue,flow.Sequence,3_0_8,NA,NA,skipped,NA,568260.1,NA,NA,568169.2,568260.2,2024-04-16T11:58:02Z,568518.3,NULL,NA,NA,NA,NA,NA,NA,NA,dfs,NA,8,NA,NA,NA,NA,NA,NA,NA,NA,NA,NA,NA,NA,NA,NA,NA,NA,NA,NA,NA
b41dd,check continue,flow.Sequence,3_0_9,NA,NA,skipped,NA,568272.3,NA,NA,568169.2,568272.3,2024-04-16T11:58:02Z,568518.3,NULL,NA,NA,NA,NA,NA,NA,NA,dsf,NA,9,NA,NA,NA,NA,NA,NA,NA,NA,NA,NA,NA,NA,NA,NA,NA,NA,NA,NA,NA
b41dd,check continue,flow.Sequence,3_0_10,NA,NA,skipped,NA,568284.4,NA,NA,568169.2,568284.5,2024-04-16T11:58:02Z,568518.3,NULL,NA,NA,NA,NA,NA,NA,NA,df,NA,10,NA,NA,NA,NA,NA,NA,NA,NA,NA,NA,NA,NA,NA,NA,NA,NA,NA,NA,NA
b41dd,check continue,flow.Sequence,3_0_11,NA,NA,skipped,NA,568296.8,NA,NA,568169.2,568296.9,2024-04-16T11:58:02Z,568518.3,NULL,NA,NA,NA,NA,NA,NA,NA,dfs,NA,11,NA,NA,NA,NA,NA,NA,NA,NA,NA,NA,NA,NA,NA,NA,NA,NA,NA,NA,NA
b41dd,check continue,flow.Sequence,3_0_12,NA,NA,skipped,NA,568309,NA,NA,568169.2,568309,2024-04-16T11:58:02Z,568518.3,NULL,NA,NA,NA,NA,NA,NA,NA,dsf,NA,12,NA,NA,NA,NA,NA,NA,NA,NA,NA,NA,NA,NA,NA,NA,NA,NA,NA,NA,NA
b41dd,check continue,flow.Sequence,3_0_13,NA,NA,skipped,NA,568321.1,NA,NA,568169.2,568321.2,2024-04-16T11:58:02Z,568518.3,NULL,NA,NA,NA,NA,NA,NA,NA,dsf,NA,13,NA,NA,NA,NA,NA,NA,NA,NA,NA,NA,NA,NA,NA,NA,NA,NA,NA,NA,NA
b41dd,check continue,flow.Sequence,3_0_14,NA,NA,skipped,NA,568333.6,NA,NA,568169.2,568333.7,2024-04-16T11:58:02Z,568518.3,NULL,NA,NA,NA,NA,NA,NA,NA,NA,NA,14,NA,NA,NA,NA,NA,NA,NA,NA,NA,NA,NA,NA,NA,NA,NA,NA,NA,NA,NA
b41dd,check continue,flow.Sequence,3_0_15,NA,NA,skipped,NA,568344.8,NA,NA,568169.2,568344.9,2024-04-16T11:58:02Z,568518.3,NULL,NA,NA,NA,NA,NA,NA,NA,NA,NA,15,NA,NA,NA,NA,NA,NA,NA,NA,NA,NA,NA,NA,NA,NA,NA,NA,NA,NA,NA
b41dd,check continue,flow.Sequence,3_0_16,NA,NA,skipped,NA,568356.3,NA,NA,568169.2,568356.4,2024-04-16T11:58:02Z,568518.3,NULL,NA,NA,NA,NA,NA,NA,NA,NA,NA,16,NA,NA,NA,NA,NA,NA,NA,NA,NA,NA,NA,NA,NA,NA,NA,NA,NA,NA,NA
b41dd,check continue,flow.Sequence,3_0_17,NA,NA,skipped,NA,568367.4,NA,NA,568169.2,568367.5,2024-04-16T11:58:02Z,568518.3,NULL,NA,NA,NA,NA,NA,NA,NA,NA,NA,17,NA,NA,NA,NA,NA,NA,NA,NA,NA,NA,NA,NA,NA,NA,NA,NA,NA,NA,NA
b41dd,check continue,flow.Sequence,3_0_18,NA,NA,skipped,NA,568380.3,NA,NA,568169.2,568380.3,2024-04-16T11:58:02Z,568518.3,NULL,NA,NA,NA,NA,NA,NA,NA,NA,NA,18,NA,NA,NA,NA,NA,NA,NA,NA,NA,NA,NA,NA,NA,NA,NA,NA,NA,NA,NA
b41dd,check continue,flow.Sequence,3_0_19,NA,NA,skipped,NA,568391.2,NA,NA,568169.2,568391.2,2024-04-16T11:58:02Z,568518.3,NULL,NA,NA,NA,NA,NA,NA,NA,NA,NA,19,NA,NA,NA,NA,NA,NA,NA,NA,NA,NA,NA,NA,NA,NA,NA,NA,NA,NA,NA
b41dd,check continue,flow.Sequence,3_0_20,NA,NA,skipped,NA,568403,NA,NA,568169.2,568403,2024-04-16T11:58:02Z,568518.3,NULL,NA,NA,NA,NA,NA,NA,NA,NA,NA,20,NA,NA,NA,NA,NA,NA,NA,NA,NA,NA,NA,NA,NA,NA,NA,NA,NA,NA,NA
b41dd,check continue,flow.Sequence,3_0_21,NA,NA,skipped,NA,568414.3,NA,NA,568169.2,568414.4,2024-04-16T11:58:02Z,568518.3,NULL,NA,NA,NA,NA,NA,NA,NA,NA,NA,21,NA,NA,NA,NA,NA,NA,NA,NA,NA,NA,NA,NA,NA,NA,NA,NA,NA,NA,NA
b41dd,check continue,flow.Sequence,3_0_22,NA,NA,skipped,NA,568424.6,NA,NA,568169.2,568424.7,2024-04-16T11:58:02Z,568518.3,NULL,NA,NA,NA,NA,NA,NA,NA,NA,NA,22,NA,NA,NA,NA,NA,NA,NA,NA,NA,NA,NA,NA,NA,NA,NA,NA,NA,NA,NA
b41dd,check continue,flow.Sequence,3_0_23,NA,NA,skipped,NA,568436.7,NA,NA,568169.2,568436.8,2024-04-16T11:58:02Z,568518.3,NULL,NA,NA,NA,NA,NA,NA,NA,NA,NA,23,NA,NA,NA,NA,NA,NA,NA,NA,NA,NA,NA,NA,NA,NA,NA,NA,NA,NA,NA
b41dd,check continue,flow.Sequence,3_0_24,NA,NA,skipped,NA,568447.3,NA,NA,568169.2,568447.3,2024-04-16T11:58:02Z,568518.3,NULL,NA,NA,NA,NA,NA,NA,NA,NA,NA,24,NA,NA,NA,NA,NA,NA,NA,NA,NA,NA,NA,NA,NA,NA,NA,NA,NA,NA,NA
b41dd,check continue,flow.Sequence,3_0_25,NA,NA,skipped,NA,568459.5,NA,NA,568169.2,568459.5,2024-04-16T11:58:02Z,568518.3,NULL,NA,NA,NA,NA,NA,NA,NA,NA,NA,25,NA,NA,NA,NA,NA,NA,NA,NA,NA,NA,NA,NA,NA,NA,NA,NA,NA,NA,NA
b41dd,check continue,flow.Sequence,3_0_26,NA,NA,skipped,NA,568469.9,NA,NA,568169.2,568470,2024-04-16T11:58:02Z,568518.3,NULL,NA,NA,NA,NA,NA,NA,NA,NA,NA,26,NA,NA,NA,NA,NA,NA,NA,NA,NA,NA,NA,NA,NA,NA,NA,NA,NA,NA,NA
b41dd,check continue,flow.Sequence,3_0_27,NA,NA,skipped,NA,568481.3,NA,NA,568169.2,568481.5,2024-04-16T11:58:02Z,568518.3,NULL,NA,NA,NA,NA,NA,NA,NA,NA,NA,27,NA,NA,NA,NA,NA,NA,NA,NA,NA,NA,NA,NA,NA,NA,NA,NA,NA,NA,NA
b41dd,check continue,flow.Sequence,3_0_28,NA,NA,skipped,NA,568491.5,NA,NA,568169.2,568491.6,2024-04-16T11:58:02Z,568518.3,NULL,NA,NA,NA,NA,NA,NA,NA,NA,NA,28,NA,NA,NA,NA,NA,NA,NA,NA,NA,NA,NA,NA,NA,NA,NA,NA,NA,NA,NA
b41dd,check continue,flow.Sequence,3_0_29,NA,NA,skipped,NA,568503.8,NA,NA,568169.2,568503.8,2024-04-16T11:58:02Z,568518.3,NULL,NA,NA,NA,NA,NA,NA,NA,NA,NA,29,NA,NA,NA,NA,NA,NA,NA,NA,NA,NA,NA,NA,NA,NA,NA,NA,NA,NA,NA
b41dd,until continue,flow.Loop,3_0,NA,NA,completion,436817.5,131325.6,131341.362,131351.7,568169.2,568504,2024-04-16T11:58:02Z,568518.3,NULL,NA,NA,NA,NA,NA,NA,NA,NA,NA,NA,NA,NA,NA,NA,NA,NA,NA,NA,NA,NA,NA,NA,NA,NA,NA,NA,NA,NA,NA
b41dd,block 1,flow.Sequence,3,NA,NA,completion,436817.5,131325.6,131341.362,131351.7,568169.2,568504,2024-04-16T11:58:02Z,568518.3,NULL,NA,NA,NA,NA,NA,NA,NA,NA,NA,NA,NA,NA,NA,NA,NA,NA,NA,NA,NA,NA,NA,NA,NA,NA,NA,NA,NA,NA,NA
b41dd,1.Part Over,canvas.Screen,4,NA,keypress(Space),response,2366.3,568504,568503,568518.3,570884.6,570885.6,2024-04-16T11:58:04Z,570933.3,NULL,NA,NA,NA,NA,NA,NA,NA,NA,NA,NA,NA,NA,NA,NA,NA,NA,NA,NA,NA,NA,NA,NA,NA,NA,NA,NA,NA,NA,NA
b41dd,deep,flow.Sequence,5_0_0_0_0_0,NA,NA,skipped,NA,570925.9,NA,NA,570884.6,570926,2024-04-16T11:58:04Z,570933.3,NULL,Kreativität,ubunifu,s,mratibu,mwendelezo,makubaliano,NA,sdf,NA,0,NA,NA,NA,NA,NA,NA,NA,NA,NA,NA,NA,NA,NA,NA,NA,NA,NA,NA,NA
b41dd,Shallow Question,html.Page,5_0_0_0_0_1_0,NA,NA,form submission,44809.5,570926.1,570918.204,570933.3,615742.8,615743.1,2024-04-16T11:58:49Z,615755.9,NULL,Kreativität,ubunifu,s,mratibu,mwendelezo,makubaliano,mratibu,NA,NA,0,NA,NA,NA,NA,NA,NA,NA,NA,NA,NA,NA,NA,NA,NA,NA,NA,NA,NA,NA
b41dd,"""Richtig""-Screen",canvas.Screen,5_0_0_0_0_1_1,NA,NA,skipped,NA,615746.5,NA,NA,615742.8,615746.6,2024-04-16T11:58:49Z,615755.9,NULL,Kreativität,ubunifu,s,mratibu,mwendelezo,makubaliano,NA,sdf,NA,0,NA,NA,NA,NA,NA,NA,NA,NA,NA,NA,NA,NA,NA,NA,NA,NA,NA,NA,NA
b41dd,"""Falsch""-Screen",canvas.Screen,5_0_0_0_0_1_2,NA,NA,timeout,4997.2999999999,615747.3,615740.2,615755.9,620736.5,620737.5,2024-04-16T11:58:54Z,620753.2,NULL,Kreativität,ubunifu,s,mratibu,mwendelezo,makubaliano,NA,sdf,0,0,NA,NA,NA,NA,NA,NA,NA,NA,NA,NA,NA,NA,NA,NA,NA,NA,NA,NA,NA
b41dd,shallow,flow.Sequence,5_0_0_0_0_1,NA,NA,completion,49803.2,570926.1,570918.204,570933.3,620736.5,620737.8,2024-04-16T11:58:54Z,620753.2,NULL,Kreativität,ubunifu,s,mratibu,mwendelezo,makubaliano,NA,sdf,NA,0,NA,NA,NA,NA,NA,NA,NA,NA,NA,NA,NA,NA,NA,NA,NA,NA,NA,NA,NA
b41dd,task,flow.Sequence,5_0_0_0_0,NA,NA,completion,49803.2,570925.9,570918.204,570933.3,620736.5,620738,2024-04-16T11:58:54Z,620753.2,NULL,Kreativität,ubunifu,s,mratibu,mwendelezo,makubaliano,NA,sdf,NA,0,NA,NA,NA,NA,NA,NA,NA,NA,NA,NA,NA,NA,NA,NA,NA,NA,NA,NA,NA
b41dd,Deep Question,html.Page,5_0_0_0_1_0_0,NA,NA,form submission,14415.4,620738.3,620736.5,620753.2,635168.6,635168.9,2024-04-16T11:59:08Z,635177.4,NULL,Betrüger,mdanganyifu,d,NA,NA,NA,l,NA,NA,0,NA,NA,NA,NA,NA,NA,NA,NA,NA,NA,NA,NA,NA,NA,NA,NA,NA,NA,NA
b41dd,"""Richtig""-Screen",canvas.Screen,5_0_0_0_1_0_1,NA,NA,skipped,NA,635172.1,NA,NA,635168.6,635172.2,2024-04-16T11:59:08Z,635177.4,NULL,Betrüger,mdanganyifu,d,NA,NA,NA,NA,sdf,NA,0,NA,NA,NA,NA,NA,NA,NA,NA,NA,NA,NA,NA,NA,NA,NA,NA,NA,NA,NA
b41dd,"""Falsch""-Screen",canvas.Screen,5_0_0_0_1_0_2,NA,NA,timeout,4997.2999999999,635173.2,635161.694,635177.4,640157.9,640158.9,2024-04-16T11:59:13Z,640174.7,NULL,Betrüger,mdanganyifu,d,NA,NA,NA,NA,sdf,0,0,NA,NA,NA,NA,NA,NA,NA,NA,NA,NA,NA,NA,NA,NA,NA,NA,NA,NA,NA
b41dd,deep,flow.Sequence,5_0_0_0_1_0,NA,NA,completion,19404.7,620738.2,620736.5,620753.2,640157.9,640159.3,2024-04-16T11:59:13Z,640174.7,NULL,Betrüger,mdanganyifu,d,NA,NA,NA,NA,sdf,NA,0,NA,NA,NA,NA,NA,NA,NA,NA,NA,NA,NA,NA,NA,NA,NA,NA,NA,NA,NA
b41dd,shallow,flow.Sequence,5_0_0_0_1_1,NA,NA,skipped,NA,640159.4,NA,NA,640157.9,640159.6,2024-04-16T11:59:13Z,640174.7,NULL,Betrüger,mdanganyifu,d,NA,NA,NA,NA,sdf,NA,0,NA,NA,NA,NA,NA,NA,NA,NA,NA,NA,NA,NA,NA,NA,NA,NA,NA,NA,NA
b41dd,task,flow.Sequence,5_0_0_0_1,NA,NA,completion,19404.7,620738.2,620736.5,620753.2,640157.9,640159.8,2024-04-16T11:59:13Z,640174.7,NULL,Betrüger,mdanganyifu,d,NA,NA,NA,NA,sdf,NA,0,NA,NA,NA,NA,NA,NA,NA,NA,NA,NA,NA,NA,NA,NA,NA,NA,NA,NA,NA
b41dd,deep,flow.Sequence,5_0_0_0_2_0,NA,NA,skipped,NA,640159.8,NA,NA,640157.9,640159.9,2024-04-16T11:59:13Z,640174.7,NULL,Respekt,heshima,s,changamnao,upinzani,ufanisi,NA,sdf,NA,0,NA,NA,NA,NA,NA,NA,NA,NA,NA,NA,NA,NA,NA,NA,NA,NA,NA,NA,NA
b41dd,Shallow Question,html.Page,5_0_0_0_2_1_0,NA,NA,form submission,17347.1,640160.1,640157.9,640174.7,657521.8,657522.1,2024-04-16T11:59:31Z,657530.4,NULL,Respekt,heshima,s,changamnao,upinzani,ufanisi,ufanisi,NA,NA,0,NA,NA,NA,NA,NA,NA,NA,NA,NA,NA,NA,NA,NA,NA,NA,NA,NA,NA,NA
b41dd,"""Richtig""-Screen",canvas.Screen,5_0_0_0_2_1_1,NA,NA,skipped,NA,657525.6,NA,NA,657521.8,657525.7,2024-04-16T11:59:31Z,657530.4,NULL,Respekt,heshima,s,changamnao,upinzani,ufanisi,NA,sdf,NA,0,NA,NA,NA,NA,NA,NA,NA,NA,NA,NA,NA,NA,NA,NA,NA,NA,NA,NA,NA
b41dd,"""Falsch""-Screen",canvas.Screen,5_0_0_0_2_1_2,NA,NA,timeout,4997.6,657526.4,657514.824,657530.4,662510.9,662511.9,2024-04-16T11:59:36Z,662528,NULL,Respekt,heshima,s,changamnao,upinzani,ufanisi,NA,sdf,0,0,NA,NA,NA,NA,NA,NA,NA,NA,NA,NA,NA,NA,NA,NA,NA,NA,NA,NA,NA
b41dd,shallow,flow.Sequence,5_0_0_0_2_1,NA,NA,completion,22336.2,640160.1,640157.9,640174.7,662510.9,662512.4,2024-04-16T11:59:36Z,662528,NULL,Respekt,heshima,s,changamnao,upinzani,ufanisi,NA,sdf,NA,0,NA,NA,NA,NA,NA,NA,NA,NA,NA,NA,NA,NA,NA,NA,NA,NA,NA,NA,NA
b41dd,task,flow.Sequence,5_0_0_0_2,NA,NA,completion,22336.2,640159.8,640157.9,640174.7,662510.9,662512.7,2024-04-16T11:59:36Z,662528,NULL,Respekt,heshima,s,changamnao,upinzani,ufanisi,NA,sdf,NA,0,NA,NA,NA,NA,NA,NA,NA,NA,NA,NA,NA,NA,NA,NA,NA,NA,NA,NA,NA
b41dd,deep,flow.Sequence,5_0_0_0_3_0,NA,NA,skipped,NA,662512.9,NA,NA,662510.9,662513.1,2024-04-16T11:59:36Z,662528,NULL,Können,unaweza,s,kiongozi,bustani,mienendo,NA,sdf,NA,0,NA,NA,NA,NA,NA,NA,NA,NA,NA,NA,NA,NA,NA,NA,NA,NA,NA,NA,NA
b41dd,Shallow Question,html.Page,5_0_0_0_3_1_0,NA,NA,form submission,18069.8,662513.3,662510.9,662528,680597.8,680598.1,2024-04-16T11:59:54Z,680600.534,NULL,Können,unaweza,s,kiongozi,bustani,mienendo,bustani,NA,NA,0,NA,NA,NA,NA,NA,NA,NA,NA,NA,NA,NA,NA,NA,NA,NA,NA,NA,NA,NA
b41dd,"""Richtig""-Screen",canvas.Screen,5_0_0_0_3_1_1,NA,NA,skipped,NA,680602,NA,NA,680597.8,680602.2,2024-04-16T11:59:54Z,680600.534,NULL,Können,unaweza,s,kiongozi,bustani,mienendo,NA,sdf,NA,0,NA,NA,NA,NA,NA,NA,NA,NA,NA,NA,NA,NA,NA,NA,NA,NA,NA,NA,NA
b41dd,"""Falsch""-Screen",canvas.Screen,5_0_0_0_3_1_2,NA,NA,timeout,4996.366,680602.8,680600.534,680600.534,685580.2,685580.7,2024-04-16T11:59:59Z,685596.9,NULL,Können,unaweza,s,kiongozi,bustani,mienendo,NA,sdf,0,0,NA,NA,NA,NA,NA,NA,NA,NA,NA,NA,NA,NA,NA,NA,NA,NA,NA,NA,NA
b41dd,shallow,flow.Sequence,5_0_0_0_3_1,NA,NA,completion,23052.2,662513.3,662510.9,662528,685580.2,685580.8,2024-04-16T11:59:59Z,685596.9,NULL,Können,unaweza,s,kiongozi,bustani,mienendo,NA,sdf,NA,0,NA,NA,NA,NA,NA,NA,NA,NA,NA,NA,NA,NA,NA,NA,NA,NA,NA,NA,NA
b41dd,task,flow.Sequence,5_0_0_0_3,NA,NA,completion,23052.2,662512.8,662510.9,662528,685580.2,685581,2024-04-16T11:59:59Z,685596.9,NULL,Können,unaweza,s,kiongozi,bustani,mienendo,NA,sdf,NA,0,NA,NA,NA,NA,NA,NA,NA,NA,NA,NA,NA,NA,NA,NA,NA,NA,NA,NA,NA
b41dd,Deep Question,html.Page,5_0_0_0_4_0_0,NA,NA,form submission,4380.2000000005,685581,685580.2,685596.9,689977.1,689977.3,2024-04-16T12:00:03Z,689994.3,NULL,Stimmung,kinyongo,d,NA,NA,NA,l,NA,NA,0,NA,NA,NA,NA,NA,NA,NA,NA,NA,NA,NA,NA,NA,NA,NA,NA,NA,NA,NA
b41dd,"""Richtig""-Screen",canvas.Screen,5_0_0_0_4_0_1,NA,NA,skipped,NA,689980.5,NA,NA,689977.1,689980.6,2024-04-16T12:00:03Z,689994.3,NULL,Stimmung,kinyongo,d,NA,NA,NA,NA,sdf,NA,0,NA,NA,NA,NA,NA,NA,NA,NA,NA,NA,NA,NA,NA,NA,NA,NA,NA,NA,NA
b41dd,"""Falsch""-Screen",canvas.Screen,5_0_0_0_4_0_2,NA,NA,timeout,4996.6,689981.7,689980.058,689994.3,694974.3,694975.3,2024-04-16T12:00:08Z,694990.9,NULL,Stimmung,kinyongo,d,NA,NA,NA,NA,sdf,0,0,NA,NA,NA,NA,NA,NA,NA,NA,NA,NA,NA,NA,NA,NA,NA,NA,NA,NA,NA
b41dd,deep,flow.Sequence,5_0_0_0_4_0,NA,NA,completion,9377.4,685581,685580.2,685596.9,694974.3,694975.7,2024-04-16T12:00:08Z,694990.9,NULL,Stimmung,kinyongo,d,NA,NA,NA,NA,sdf,NA,0,NA,NA,NA,NA,NA,NA,NA,NA,NA,NA,NA,NA,NA,NA,NA,NA,NA,NA,NA
b41dd,shallow,flow.Sequence,5_0_0_0_4_1,NA,NA,skipped,NA,694975.9,NA,NA,694974.3,694976.2,2024-04-16T12:00:08Z,694990.9,NULL,Stimmung,kinyongo,d,NA,NA,NA,NA,sdf,NA,0,NA,NA,NA,NA,NA,NA,NA,NA,NA,NA,NA,NA,NA,NA,NA,NA,NA,NA,NA
b41dd,task,flow.Sequence,5_0_0_0_4,NA,NA,completion,9377.4,685581,685580.2,685596.9,694974.3,694976.4,2024-04-16T12:00:08Z,694990.9,NULL,Stimmung,kinyongo,d,NA,NA,NA,NA,sdf,NA,0,NA,NA,NA,NA,NA,NA,NA,NA,NA,NA,NA,NA,NA,NA,NA,NA,NA,NA,NA
b41dd,deep,flow.Sequence,5_0_0_0_5_0,NA,NA,skipped,NA,694976.5,NA,NA,694974.3,694976.7,2024-04-16T12:00:08Z,694990.9,NULL,Orientierung,urekebisho,s,uelekeo,marekebisho,utunzaji,NA,sdf,NA,0,NA,NA,NA,NA,NA,NA,NA,NA,NA,NA,NA,NA,NA,NA,NA,NA,NA,NA,NA
b41dd,Shallow Question,html.Page,5_0_0_0_5_1_0,NA,NA,form submission,12281.200000001,694976.8,694974.3,694990.9,707272.1,707272.3,2024-04-16T12:00:21Z,707283.5,NULL,Orientierung,urekebisho,s,uelekeo,marekebisho,utunzaji,uelekeo,NA,NA,0,NA,NA,NA,NA,NA,NA,NA,NA,NA,NA,NA,NA,NA,NA,NA,NA,NA,NA,NA
b41dd,"""Richtig""-Screen",canvas.Screen,5_0_0_0_5_1_1,NA,NA,skipped,NA,707275.4,NA,NA,707272.1,707275.6,2024-04-16T12:00:21Z,707283.5,NULL,Orientierung,urekebisho,s,uelekeo,marekebisho,utunzaji,NA,sdf,NA,0,NA,NA,NA,NA,NA,NA,NA,NA,NA,NA,NA,NA,NA,NA,NA,NA,NA,NA,NA
b41dd,"""Falsch""-Screen",canvas.Screen,5_0_0_0_5_1_2,NA,NA,timeout,4996.8,707276.4,707267.442,707283.5,712264,712265,2024-04-16T12:00:26Z,712280.3,NULL,Orientierung,urekebisho,s,uelekeo,marekebisho,utunzaji,NA,sdf,0,0,NA,NA,NA,NA,NA,NA,NA,NA,NA,NA,NA,NA,NA,NA,NA,NA,NA,NA,NA
b41dd,shallow,flow.Sequence,5_0_0_0_5_1,NA,NA,completion,17273.1,694976.7,694974.3,694990.9,712264,712265.5,2024-04-16T12:00:26Z,712280.3,NULL,Orientierung,urekebisho,s,uelekeo,marekebisho,utunzaji,NA,sdf,NA,0,NA,NA,NA,NA,NA,NA,NA,NA,NA,NA,NA,NA,NA,NA,NA,NA,NA,NA,NA
b41dd,task,flow.Sequence,5_0_0_0_5,NA,NA,completion,17273.1,694976.5,694974.3,694990.9,712264,712265.6,2024-04-16T12:00:26Z,712280.3,NULL,Orientierung,urekebisho,s,uelekeo,marekebisho,utunzaji,NA,sdf,NA,0,NA,NA,NA,NA,NA,NA,NA,NA,NA,NA,NA,NA,NA,NA,NA,NA,NA,NA,NA
b41dd,Deep Question,html.Page,5_0_0_0_6_0_0,NA,NA,form submission,2976.6000000003,712265.9,712264,712280.3,715256.9,715257.2,2024-04-16T12:00:29Z,715261.8,NULL,Kontrolle,kudhibiti,d,NA,NA,NA,k,NA,NA,0,NA,NA,NA,NA,NA,NA,NA,NA,NA,NA,NA,NA,NA,NA,NA,NA,NA,NA,NA
b41dd,"""Richtig""-Screen",canvas.Screen,5_0_0_0_6_0_1,NA,NA,skipped,NA,715260.1,NA,NA,715256.9,715260.3,2024-04-16T12:00:29Z,715261.8,NULL,Kontrolle,kudhibiti,d,NA,NA,NA,NA,sdf,NA,0,NA,NA,NA,NA,NA,NA,NA,NA,NA,NA,NA,NA,NA,NA,NA,NA,NA,NA,NA
b41dd,"""Falsch""-Screen",canvas.Screen,5_0_0_0_6_0_2,NA,NA,timeout,4997.6,715261,715246.914,715261.8,720242.1,720243.1,2024-04-16T12:00:34Z,720259.4,NULL,Kontrolle,kudhibiti,d,NA,NA,NA,NA,sdf,0,0,NA,NA,NA,NA,NA,NA,NA,NA,NA,NA,NA,NA,NA,NA,NA,NA,NA,NA,NA
b41dd,deep,flow.Sequence,5_0_0_0_6_0,NA,NA,completion,7961.7999999999,712265.9,712264,712280.3,720242.1,720243.6,2024-04-16T12:00:34Z,720259.4,NULL,Kontrolle,kudhibiti,d,NA,NA,NA,NA,sdf,NA,0,NA,NA,NA,NA,NA,NA,NA,NA,NA,NA,NA,NA,NA,NA,NA,NA,NA,NA,NA
b41dd,shallow,flow.Sequence,5_0_0_0_6_1,NA,NA,skipped,NA,720243.8,NA,NA,720242.1,720244,2024-04-16T12:00:34Z,720259.4,NULL,Kontrolle,kudhibiti,d,NA,NA,NA,NA,sdf,NA,0,NA,NA,NA,NA,NA,NA,NA,NA,NA,NA,NA,NA,NA,NA,NA,NA,NA,NA,NA
b41dd,task,flow.Sequence,5_0_0_0_6,NA,NA,completion,7961.7999999999,712265.9,712264,712280.3,720242.1,720244.2,2024-04-16T12:00:34Z,720259.4,NULL,Kontrolle,kudhibiti,d,NA,NA,NA,NA,sdf,NA,0,NA,NA,NA,NA,NA,NA,NA,NA,NA,NA,NA,NA,NA,NA,NA,NA,NA,NA,NA
b41dd,Deep Question,html.Page,5_0_0_0_7_0_0,NA,NA,form submission,2836.2000000005,720244.3,720242.1,720259.4,723095.6,723095.9,2024-04-16T12:00:36Z,723107,NULL,Gefährdung,kuhatarisha,d,NA,NA,NA,l,NA,NA,0,NA,NA,NA,NA,NA,NA,NA,NA,NA,NA,NA,NA,NA,NA,NA,NA,NA,NA,NA
b41dd,"""Richtig""-Screen",canvas.Screen,5_0_0_0_7_0_1,NA,NA,skipped,NA,723099,NA,NA,723095.6,723099.1,2024-04-16T12:00:36Z,723107,NULL,Gefährdung,kuhatarisha,d,NA,NA,NA,NA,sdf,NA,0,NA,NA,NA,NA,NA,NA,NA,NA,NA,NA,NA,NA,NA,NA,NA,NA,NA,NA,NA
b41dd,"""Falsch""-Screen",canvas.Screen,5_0_0_0_7_0_2,NA,NA,timeout,4997.4,723099.9,723091.464,723107,728087.5,728087.9,2024-04-16T12:00:41Z,728104.4,NULL,Gefährdung,kuhatarisha,d,NA,NA,NA,NA,sdf,0,0,NA,NA,NA,NA,NA,NA,NA,NA,NA,NA,NA,NA,NA,NA,NA,NA,NA,NA,NA
b41dd,deep,flow.Sequence,5_0_0_0_7_0,NA,NA,completion,7828.1,720244.3,720242.1,720259.4,728087.5,728088.1,2024-04-16T12:00:41Z,728104.4,NULL,Gefährdung,kuhatarisha,d,NA,NA,NA,NA,sdf,NA,0,NA,NA,NA,NA,NA,NA,NA,NA,NA,NA,NA,NA,NA,NA,NA,NA,NA,NA,NA
b41dd,shallow,flow.Sequence,5_0_0_0_7_1,NA,NA,skipped,NA,728088.2,NA,NA,728087.5,728088.2,2024-04-16T12:00:41Z,728104.4,NULL,Gefährdung,kuhatarisha,d,NA,NA,NA,NA,sdf,NA,0,NA,NA,NA,NA,NA,NA,NA,NA,NA,NA,NA,NA,NA,NA,NA,NA,NA,NA,NA
b41dd,task,flow.Sequence,5_0_0_0_7,NA,NA,completion,7828.1,720244.3,720242.1,720259.4,728087.5,728088.3,2024-04-16T12:00:41Z,728104.4,NULL,Gefährdung,kuhatarisha,d,NA,NA,NA,NA,sdf,NA,0,NA,NA,NA,NA,NA,NA,NA,NA,NA,NA,NA,NA,NA,NA,NA,NA,NA,NA,NA
b41dd,block,flow.Loop,5_0_0_0,NA,NA,completion,157154.2,570925.9,570918.204,570933.3,728087.5,728088.4,2024-04-16T12:00:41Z,728104.4,NULL,NA,NA,NA,NA,NA,NA,NA,sdf,NA,0,NA,NA,NA,NA,NA,NA,NA,NA,NA,NA,NA,NA,NA,NA,NA,NA,NA,NA,NA
b41dd,weiter,canvas.Screen,5_0_0_1,sdf,keypress(Space),response,1122.8999999998,728088.4,728087.5,728104.4,729227.3,729232.3,2024-04-16T12:00:43Z,729253.2,NULL,NA,NA,NA,NA,NA,NA,NA,sdf,NA,0,NA,NA,NA,NA,NA,NA,NA,NA,NA,NA,NA,NA,NA,NA,NA,NA,NA,NA,NA
b41dd,check continue,flow.Sequence,5_0_0,NA,NA,completion,158294,570925.9,570918.204,570933.3,729227.3,729232.6,2024-04-16T12:00:43Z,729253.2,NULL,NA,NA,NA,NA,NA,NA,NA,sdf,NA,0,NA,NA,NA,NA,NA,NA,NA,NA,NA,NA,NA,NA,NA,NA,NA,NA,NA,NA,NA
b41dd,deep,flow.Sequence,5_0_1_0_0_0,NA,NA,skipped,NA,729248,NA,NA,729227.3,729248.2,2024-04-16T12:00:43Z,729253.2,NULL,Orientierung,urekebisho,s,uelekeo,marekebisho,utunzaji,NA,sdfdsf,NA,1,NA,NA,NA,NA,NA,NA,NA,NA,NA,NA,NA,NA,NA,NA,NA,NA,NA,NA,NA
b41dd,Shallow Question,html.Page,5_0_1_0_0_1_0,NA,NA,form submission,9628.9000000006,729248.2,729237.938,729253.2,738882.1,738882.3,2024-04-16T12:00:52Z,738897.4,NULL,Orientierung,urekebisho,s,uelekeo,marekebisho,utunzaji,urekebisho,NA,NA,1,NA,NA,NA,NA,NA,NA,NA,NA,NA,NA,NA,NA,NA,NA,NA,NA,NA,NA,NA
b41dd,"""Richtig""-Screen",canvas.Screen,5_0_1_0_0_1_1,NA,NA,timeout,4997.4,738885.4,738881.38,738897.4,743878,743878.9,2024-04-16T12:00:57Z,743894.8,NULL,Orientierung,urekebisho,s,uelekeo,marekebisho,utunzaji,NA,sdfdsf,1,1,NA,NA,NA,NA,NA,NA,NA,NA,NA,NA,NA,NA,NA,NA,NA,NA,NA,NA,NA
b41dd,"""Falsch""-Screen",canvas.Screen,5_0_1_0_0_1_2,NA,NA,skipped,NA,743884.1,NA,NA,743878,743884.3,2024-04-16T12:00:57Z,743894.8,NULL,Orientierung,urekebisho,s,uelekeo,marekebisho,utunzaji,NA,sdfdsf,NA,1,NA,NA,NA,NA,NA,NA,NA,NA,NA,NA,NA,NA,NA,NA,NA,NA,NA,NA,NA
b41dd,shallow,flow.Sequence,5_0_1_0_0_1,NA,NA,completion,14624.8,729248.2,729237.938,729253.2,743878,743884.4,2024-04-16T12:00:57Z,743894.8,NULL,Orientierung,urekebisho,s,uelekeo,marekebisho,utunzaji,NA,sdfdsf,NA,1,NA,NA,NA,NA,NA,NA,NA,NA,NA,NA,NA,NA,NA,NA,NA,NA,NA,NA,NA
b41dd,task,flow.Sequence,5_0_1_0_0,NA,NA,completion,14624.8,729248,729237.938,729253.2,743878,743884.5,2024-04-16T12:00:57Z,743894.8,NULL,Orientierung,urekebisho,s,uelekeo,marekebisho,utunzaji,NA,sdfdsf,NA,1,NA,NA,NA,NA,NA,NA,NA,NA,NA,NA,NA,NA,NA,NA,NA,NA,NA,NA,NA
b41dd,Deep Question,html.Page,5_0_1_0_1_0_0,NA,NA,form submission,6787.1000000003,743884.5,743878,743894.8,750681.9,750682,2024-04-16T12:01:04Z,750690.3,NULL,Gefährdung,kuhatarisha,d,NA,NA,NA,l,NA,NA,1,NA,NA,NA,NA,NA,NA,NA,NA,NA,NA,NA,NA,NA,NA,NA,NA,NA,NA,NA
b41dd,"""Richtig""-Screen",canvas.Screen,5_0_1_0_1_0_1,NA,NA,skipped,NA,750683.4,NA,NA,750681.9,750683.5,2024-04-16T12:01:04Z,750690.3,NULL,Gefährdung,kuhatarisha,d,NA,NA,NA,NA,sdfdsf,NA,1,NA,NA,NA,NA,NA,NA,NA,NA,NA,NA,NA,NA,NA,NA,NA,NA,NA,NA,NA
b41dd,"""Falsch""-Screen",canvas.Screen,5_0_1_0_1_0_2,NA,NA,timeout,4997.1,750683.8,750674.988,750690.3,755670.8,755671.2,2024-04-16T12:01:09Z,755687.4,NULL,Gefährdung,kuhatarisha,d,NA,NA,NA,NA,sdfdsf,0,1,NA,NA,NA,NA,NA,NA,NA,NA,NA,NA,NA,NA,NA,NA,NA,NA,NA,NA,NA
b41dd,deep,flow.Sequence,5_0_1_0_1_0,NA,NA,completion,11776,743884.5,743878,743894.8,755670.8,755671.5,2024-04-16T12:01:09Z,755687.4,NULL,Gefährdung,kuhatarisha,d,NA,NA,NA,NA,sdfdsf,NA,1,NA,NA,NA,NA,NA,NA,NA,NA,NA,NA,NA,NA,NA,NA,NA,NA,NA,NA,NA
b41dd,shallow,flow.Sequence,5_0_1_0_1_1,NA,NA,skipped,NA,755671.5,NA,NA,755670.8,755671.5,2024-04-16T12:01:09Z,755687.4,NULL,Gefährdung,kuhatarisha,d,NA,NA,NA,NA,sdfdsf,NA,1,NA,NA,NA,NA,NA,NA,NA,NA,NA,NA,NA,NA,NA,NA,NA,NA,NA,NA,NA
b41dd,task,flow.Sequence,5_0_1_0_1,NA,NA,completion,11776,743884.5,743878,743894.8,755670.8,755671.7,2024-04-16T12:01:09Z,755687.4,NULL,Gefährdung,kuhatarisha,d,NA,NA,NA,NA,sdfdsf,NA,1,NA,NA,NA,NA,NA,NA,NA,NA,NA,NA,NA,NA,NA,NA,NA,NA,NA,NA,NA
b41dd,deep,flow.Sequence,5_0_1_0_2_0,NA,NA,skipped,NA,755671.7,NA,NA,755670.8,755671.8,2024-04-16T12:01:09Z,755687.4,NULL,Können,unaweza,s,kiongozi,bustani,mienendo,NA,sdfdsf,NA,1,NA,NA,NA,NA,NA,NA,NA,NA,NA,NA,NA,NA,NA,NA,NA,NA,NA,NA,NA
b41dd,Shallow Question,html.Page,5_0_1_0_2_1_0,NA,NA,form submission,8555.1,755671.8,755670.8,755687.4,764242.5,764242.8,2024-04-16T12:01:18Z,764248.5,NULL,Können,unaweza,s,kiongozi,bustani,mienendo,unaweza,NA,NA,1,NA,NA,NA,NA,NA,NA,NA,NA,NA,NA,NA,NA,NA,NA,NA,NA,NA,NA,NA
b41dd,"""Richtig""-Screen",canvas.Screen,5_0_1_0_2_1_1,NA,NA,timeout,4997.5,764245.9,764233.704,764248.5,769229.2,769230.3,2024-04-16T12:01:23Z,769246,NULL,Können,unaweza,s,kiongozi,bustani,mienendo,NA,sdfdsf,1,1,NA,NA,NA,NA,NA,NA,NA,NA,NA,NA,NA,NA,NA,NA,NA,NA,NA,NA,NA
b41dd,"""Falsch""-Screen",canvas.Screen,5_0_1_0_2_1_2,NA,NA,skipped,NA,769235.6,NA,NA,769229.2,769235.7,2024-04-16T12:01:23Z,769246,NULL,Können,unaweza,s,kiongozi,bustani,mienendo,NA,sdfdsf,NA,1,NA,NA,NA,NA,NA,NA,NA,NA,NA,NA,NA,NA,NA,NA,NA,NA,NA,NA,NA
b41dd,shallow,flow.Sequence,5_0_1_0_2_1,NA,NA,completion,13541.8,755671.8,755670.8,755687.4,769229.2,769235.8,2024-04-16T12:01:23Z,769246,NULL,Können,unaweza,s,kiongozi,bustani,mienendo,NA,sdfdsf,NA,1,NA,NA,NA,NA,NA,NA,NA,NA,NA,NA,NA,NA,NA,NA,NA,NA,NA,NA,NA
b41dd,task,flow.Sequence,5_0_1_0_2,NA,NA,completion,13541.8,755671.7,755670.8,755687.4,769229.2,769235.8,2024-04-16T12:01:23Z,769246,NULL,Können,unaweza,s,kiongozi,bustani,mienendo,NA,sdfdsf,NA,1,NA,NA,NA,NA,NA,NA,NA,NA,NA,NA,NA,NA,NA,NA,NA,NA,NA,NA,NA
b41dd,Deep Question,html.Page,5_0_1_0_3_0_0,NA,NA,form submission,10712.600000001,769235.8,769229.2,769246,779958.6,779958.8,2024-04-16T12:01:33Z,779989.4,NULL,Stimmung,kinyongo,d,NA,NA,NA,j,NA,NA,1,NA,NA,NA,NA,NA,NA,NA,NA,NA,NA,NA,NA,NA,NA,NA,NA,NA,NA,NA
b41dd,"""Richtig""-Screen",canvas.Screen,5_0_1_0_3_0_1,NA,NA,skipped,NA,779962,NA,NA,779958.6,779962.1,2024-04-16T12:01:33Z,779989.4,NULL,Stimmung,kinyongo,d,NA,NA,NA,NA,sdfdsf,NA,1,NA,NA,NA,NA,NA,NA,NA,NA,NA,NA,NA,NA,NA,NA,NA,NA,NA,NA,NA
b41dd,"""Falsch""-Screen",canvas.Screen,5_0_1_0_3_0_2,NA,NA,timeout,4997,779962.8,779972.6,779989.4,784969.8,784970.2,2024-04-16T12:01:38Z,784986.4,NULL,Stimmung,kinyongo,d,NA,NA,NA,NA,sdfdsf,0,1,NA,NA,NA,NA,NA,NA,NA,NA,NA,NA,NA,NA,NA,NA,NA,NA,NA,NA,NA
b41dd,deep,flow.Sequence,5_0_1_0_3_0,NA,NA,completion,15723.8,769235.8,769229.2,769246,784969.8,784970.3,2024-04-16T12:01:38Z,784986.4,NULL,Stimmung,kinyongo,d,NA,NA,NA,NA,sdfdsf,NA,1,NA,NA,NA,NA,NA,NA,NA,NA,NA,NA,NA,NA,NA,NA,NA,NA,NA,NA,NA
b41dd,shallow,flow.Sequence,5_0_1_0_3_1,NA,NA,skipped,NA,784970.4,NA,NA,784969.8,784970.4,2024-04-16T12:01:38Z,784986.4,NULL,Stimmung,kinyongo,d,NA,NA,NA,NA,sdfdsf,NA,1,NA,NA,NA,NA,NA,NA,NA,NA,NA,NA,NA,NA,NA,NA,NA,NA,NA,NA,NA
b41dd,task,flow.Sequence,5_0_1_0_3,NA,NA,completion,15723.8,769235.8,769229.2,769246,784969.8,784970.5,2024-04-16T12:01:38Z,784986.4,NULL,Stimmung,kinyongo,d,NA,NA,NA,NA,sdfdsf,NA,1,NA,NA,NA,NA,NA,NA,NA,NA,NA,NA,NA,NA,NA,NA,NA,NA,NA,NA,NA
b41dd,Deep Question,html.Page,5_0_1_0_4_0_0,NA,NA,form submission,8047.3999999998,784970.6,784969.8,784986.4,793033.8,793034.1,2024-04-16T12:01:46Z,793047.6,NULL,Betrüger,mdanganyifu,d,NA,NA,NA,mdanhyuno,NA,NA,1,NA,NA,NA,NA,NA,NA,NA,NA,NA,NA,NA,NA,NA,NA,NA,NA,NA,NA,NA
b41dd,"""Richtig""-Screen",canvas.Screen,5_0_1_0_4_0_1,NA,NA,skipped,NA,793037.3,NA,NA,793033.8,793037.5,2024-04-16T12:01:46Z,793047.6,NULL,Betrüger,mdanganyifu,d,NA,NA,NA,NA,sdfdsf,NA,1,NA,NA,NA,NA,NA,NA,NA,NA,NA,NA,NA,NA,NA,NA,NA,NA,NA,NA,NA
b41dd,"""Falsch""-Screen",canvas.Screen,5_0_1_0_4_0_2,NA,NA,timeout,4997.4,793038.2,793033.294,793047.6,798028.4,798029.5,2024-04-16T12:01:51Z,798045,NULL,Betrüger,mdanganyifu,d,NA,NA,NA,NA,sdfdsf,0,1,NA,NA,NA,NA,NA,NA,NA,NA,NA,NA,NA,NA,NA,NA,NA,NA,NA,NA,NA
b41dd,deep,flow.Sequence,5_0_1_0_4_0,NA,NA,completion,13042,784970.6,784969.8,784986.4,798028.4,798029.9,2024-04-16T12:01:51Z,798045,NULL,Betrüger,mdanganyifu,d,NA,NA,NA,NA,sdfdsf,NA,1,NA,NA,NA,NA,NA,NA,NA,NA,NA,NA,NA,NA,NA,NA,NA,NA,NA,NA,NA
b41dd,shallow,flow.Sequence,5_0_1_0_4_1,NA,NA,skipped,NA,798030,NA,NA,798028.4,798030.1,2024-04-16T12:01:51Z,798045,NULL,Betrüger,mdanganyifu,d,NA,NA,NA,NA,sdfdsf,NA,1,NA,NA,NA,NA,NA,NA,NA,NA,NA,NA,NA,NA,NA,NA,NA,NA,NA,NA,NA
b41dd,task,flow.Sequence,5_0_1_0_4,NA,NA,completion,13042,784970.5,784969.8,784986.4,798028.4,798030.3,2024-04-16T12:01:51Z,798045,NULL,Betrüger,mdanganyifu,d,NA,NA,NA,NA,sdfdsf,NA,1,NA,NA,NA,NA,NA,NA,NA,NA,NA,NA,NA,NA,NA,NA,NA,NA,NA,NA,NA
b41dd,deep,flow.Sequence,5_0_1_0_5_0,NA,NA,skipped,NA,798030.4,NA,NA,798028.4,798030.6,2024-04-16T12:01:51Z,798045,NULL,Kreativität,ubunifu,s,mratibu,mwendelezo,makubaliano,NA,sdfdsf,NA,1,NA,NA,NA,NA,NA,NA,NA,NA,NA,NA,NA,NA,NA,NA,NA,NA,NA,NA,NA
b41dd,Shallow Question,html.Page,5_0_1_0_5_1_0,NA,NA,form submission,8874.7999999998,798030.8,798028.4,798045,806919.8,806920.1,2024-04-16T12:02:00Z,806923.44,NULL,Kreativität,ubunifu,s,mratibu,mwendelezo,makubaliano,ubunifu,NA,NA,1,NA,NA,NA,NA,NA,NA,NA,NA,NA,NA,NA,NA,NA,NA,NA,NA,NA,NA,NA
b41dd,"""Richtig""-Screen",canvas.Screen,5_0_1_0_5_1_1,NA,NA,timeout,4996.5600000001,806923.2,806923.44,806923.44,811903,811903.8,2024-04-16T12:02:05Z,811920,NULL,Kreativität,ubunifu,s,mratibu,mwendelezo,makubaliano,NA,sdfdsf,1,1,NA,NA,NA,NA,NA,NA,NA,NA,NA,NA,NA,NA,NA,NA,NA,NA,NA,NA,NA
b41dd,"""Falsch""-Screen",canvas.Screen,5_0_1_0_5_1_2,NA,NA,skipped,NA,811908.8,NA,NA,811903,811909,2024-04-16T12:02:05Z,811920,NULL,Kreativität,ubunifu,s,mratibu,mwendelezo,makubaliano,NA,sdfdsf,NA,1,NA,NA,NA,NA,NA,NA,NA,NA,NA,NA,NA,NA,NA,NA,NA,NA,NA,NA,NA
b41dd,shallow,flow.Sequence,5_0_1_0_5_1,NA,NA,completion,13858,798030.7,798028.4,798045,811903,811909.1,2024-04-16T12:02:05Z,811920,NULL,Kreativität,ubunifu,s,mratibu,mwendelezo,makubaliano,NA,sdfdsf,NA,1,NA,NA,NA,NA,NA,NA,NA,NA,NA,NA,NA,NA,NA,NA,NA,NA,NA,NA,NA
b41dd,task,flow.Sequence,5_0_1_0_5,NA,NA,completion,13858,798030.4,798028.4,798045,811903,811909.2,2024-04-16T12:02:05Z,811920,NULL,Kreativität,ubunifu,s,mratibu,mwendelezo,makubaliano,NA,sdfdsf,NA,1,NA,NA,NA,NA,NA,NA,NA,NA,NA,NA,NA,NA,NA,NA,NA,NA,NA,NA,NA
b41dd,deep,flow.Sequence,5_0_1_0_6_0,NA,NA,skipped,NA,811909.2,NA,NA,811903,811909.2,2024-04-16T12:02:05Z,811920,NULL,Respekt,heshima,s,changamnao,upinzani,ufanisi,NA,sdfdsf,NA,1,NA,NA,NA,NA,NA,NA,NA,NA,NA,NA,NA,NA,NA,NA,NA,NA,NA,NA,NA
b41dd,Shallow Question,html.Page,5_0_1_0_6_1_0,NA,NA,form submission,14367,811909.3,811903,811920,826287,826287.3,2024-04-16T12:02:20Z,826294,NULL,Respekt,heshima,s,changamnao,upinzani,ufanisi,heshima,NA,NA,1,NA,NA,NA,NA,NA,NA,NA,NA,NA,NA,NA,NA,NA,NA,NA,NA,NA,NA,NA
b41dd,"""Richtig""-Screen",canvas.Screen,5_0_1_0_6_1_1,NA,NA,timeout,4997.3,826290.5,826278.298,826294,831274.5,831275.4,2024-04-16T12:02:25Z,831291.3,NULL,Respekt,heshima,s,changamnao,upinzani,ufanisi,NA,sdfdsf,1,1,NA,NA,NA,NA,NA,NA,NA,NA,NA,NA,NA,NA,NA,NA,NA,NA,NA,NA,NA
b41dd,"""Falsch""-Screen",canvas.Screen,5_0_1_0_6_1_2,NA,NA,skipped,NA,831280.4,NA,NA,831274.5,831280.7,2024-04-16T12:02:25Z,831291.3,NULL,Respekt,heshima,s,changamnao,upinzani,ufanisi,NA,sdfdsf,NA,1,NA,NA,NA,NA,NA,NA,NA,NA,NA,NA,NA,NA,NA,NA,NA,NA,NA,NA,NA
b41dd,shallow,flow.Sequence,5_0_1_0_6_1,NA,NA,completion,19354.5,811909.3,811903,811920,831274.5,831280.8,2024-04-16T12:02:25Z,831291.3,NULL,Respekt,heshima,s,changamnao,upinzani,ufanisi,NA,sdfdsf,NA,1,NA,NA,NA,NA,NA,NA,NA,NA,NA,NA,NA,NA,NA,NA,NA,NA,NA,NA,NA
b41dd,task,flow.Sequence,5_0_1_0_6,NA,NA,completion,19354.5,811909.2,811903,811920,831274.5,831280.8,2024-04-16T12:02:25Z,831291.3,NULL,Respekt,heshima,s,changamnao,upinzani,ufanisi,NA,sdfdsf,NA,1,NA,NA,NA,NA,NA,NA,NA,NA,NA,NA,NA,NA,NA,NA,NA,NA,NA,NA,NA
b41dd,Deep Question,html.Page,5_0_1_0_7_0_0,NA,NA,form submission,4504.8000000005,831280.9,831274.5,831291.3,835796.1,835796.3,2024-04-16T12:02:29Z,835804.8,NULL,Kontrolle,kudhibiti,d,NA,NA,NA,l,NA,NA,1,NA,NA,NA,NA,NA,NA,NA,NA,NA,NA,NA,NA,NA,NA,NA,NA,NA,NA,NA
b41dd,"""Richtig""-Screen",canvas.Screen,5_0_1_0_7_0_1,NA,NA,skipped,NA,835799.8,NA,NA,835796.1,835800,2024-04-16T12:02:29Z,835804.8,NULL,Kontrolle,kudhibiti,d,NA,NA,NA,NA,sdfdsf,NA,1,NA,NA,NA,NA,NA,NA,NA,NA,NA,NA,NA,NA,NA,NA,NA,NA,NA,NA,NA
b41dd,"""Falsch""-Screen",canvas.Screen,5_0_1_0_7_0_2,NA,NA,timeout,4997.3999999999,835800.7,835790.292,835804.8,840785.7,840786.1,2024-04-16T12:02:34Z,840802.2,NULL,Kontrolle,kudhibiti,d,NA,NA,NA,NA,sdfdsf,0,1,NA,NA,NA,NA,NA,NA,NA,NA,NA,NA,NA,NA,NA,NA,NA,NA,NA,NA,NA
b41dd,deep,flow.Sequence,5_0_1_0_7_0,NA,NA,completion,9494.3999999999,831280.9,831274.5,831291.3,840785.7,840786.2,2024-04-16T12:02:34Z,840802.2,NULL,Kontrolle,kudhibiti,d,NA,NA,NA,NA,sdfdsf,NA,1,NA,NA,NA,NA,NA,NA,NA,NA,NA,NA,NA,NA,NA,NA,NA,NA,NA,NA,NA
b41dd,shallow,flow.Sequence,5_0_1_0_7_1,NA,NA,skipped,NA,840786.3,NA,NA,840785.7,840786.4,2024-04-16T12:02:34Z,840802.2,NULL,Kontrolle,kudhibiti,d,NA,NA,NA,NA,sdfdsf,NA,1,NA,NA,NA,NA,NA,NA,NA,NA,NA,NA,NA,NA,NA,NA,NA,NA,NA,NA,NA
b41dd,task,flow.Sequence,5_0_1_0_7,NA,NA,completion,9494.3999999999,831280.9,831274.5,831291.3,840785.7,840786.4,2024-04-16T12:02:34Z,840802.2,NULL,Kontrolle,kudhibiti,d,NA,NA,NA,NA,sdfdsf,NA,1,NA,NA,NA,NA,NA,NA,NA,NA,NA,NA,NA,NA,NA,NA,NA,NA,NA,NA,NA
b41dd,block,flow.Loop,5_0_1_0,NA,NA,completion,111532.5,729248,729237.938,729253.2,840785.7,840786.5,2024-04-16T12:02:34Z,840802.2,NULL,NA,NA,NA,NA,NA,NA,NA,sdfdsf,NA,1,NA,NA,NA,NA,NA,NA,NA,NA,NA,NA,NA,NA,NA,NA,NA,NA,NA,NA,NA
b41dd,weiter,canvas.Screen,5_0_1_1,sdf,keypress(Space),response,1112.8,840786.6,840785.7,840802.2,841915,841919.4,2024-04-16T12:02:35Z,841967.9,NULL,NA,NA,NA,NA,NA,NA,NA,sdfdsf,NA,1,NA,NA,NA,NA,NA,NA,NA,NA,NA,NA,NA,NA,NA,NA,NA,NA,NA,NA,NA
b41dd,check continue,flow.Sequence,5_0_1,NA,NA,completion,112661.8,729248,729237.938,729253.2,841915,841919.7,2024-04-16T12:02:35Z,841967.9,NULL,NA,NA,NA,NA,NA,NA,NA,sdfdsf,NA,1,NA,NA,NA,NA,NA,NA,NA,NA,NA,NA,NA,NA,NA,NA,NA,NA,NA,NA,NA
b41dd,Deep Question,html.Page,5_0_2_0_0_0_0,NA,NA,form submission,5269.6,841953.6,841952.9,841967.9,847237.5,847237.7,2024-04-16T12:02:41Z,847248,NULL,Kontrolle,kudhibiti,d,NA,NA,NA,kudhibiti,NA,NA,2,NA,NA,NA,NA,NA,NA,NA,NA,NA,NA,NA,NA,NA,NA,NA,NA,NA,NA,NA
b41dd,"""Richtig""-Screen",canvas.Screen,5_0_2_0_0_0_1,NA,NA,timeout,4997.1,847240.8,847233.236,847248,852228.5,852229.2,2024-04-16T12:02:46Z,852245.1,NULL,Kontrolle,kudhibiti,d,NA,NA,NA,NA,sdf,1,2,NA,NA,NA,NA,NA,NA,NA,NA,NA,NA,NA,NA,NA,NA,NA,NA,NA,NA,NA
b41dd,"""Falsch""-Screen",canvas.Screen,5_0_2_0_0_0_2,NA,NA,skipped,NA,852232,NA,NA,852228.5,852232.1,2024-04-16T12:02:46Z,852245.1,NULL,Kontrolle,kudhibiti,d,NA,NA,NA,NA,sdf,NA,2,NA,NA,NA,NA,NA,NA,NA,NA,NA,NA,NA,NA,NA,NA,NA,NA,NA,NA,NA
b41dd,deep,flow.Sequence,5_0_2_0_0_0,NA,NA,completion,10260.6,841953.6,841952.9,841967.9,852228.5,852232.2,2024-04-16T12:02:46Z,852245.1,NULL,Kontrolle,kudhibiti,d,NA,NA,NA,NA,sdf,NA,2,NA,NA,NA,NA,NA,NA,NA,NA,NA,NA,NA,NA,NA,NA,NA,NA,NA,NA,NA
b41dd,shallow,flow.Sequence,5_0_2_0_0_1,NA,NA,skipped,NA,852232.2,NA,NA,852228.5,852232.3,2024-04-16T12:02:46Z,852245.1,NULL,Kontrolle,kudhibiti,d,NA,NA,NA,NA,sdf,NA,2,NA,NA,NA,NA,NA,NA,NA,NA,NA,NA,NA,NA,NA,NA,NA,NA,NA,NA,NA
b41dd,task,flow.Sequence,5_0_2_0_0,NA,NA,completion,10260.6,841953.6,841952.9,841967.9,852228.5,852232.4,2024-04-16T12:02:46Z,852245.1,NULL,Kontrolle,kudhibiti,d,NA,NA,NA,NA,sdf,NA,2,NA,NA,NA,NA,NA,NA,NA,NA,NA,NA,NA,NA,NA,NA,NA,NA,NA,NA,NA
b41dd,deep,flow.Sequence,5_0_2_0_1_0,NA,NA,skipped,NA,852232.5,NA,NA,852228.5,852232.5,2024-04-16T12:02:46Z,852245.1,NULL,Orientierung,urekebisho,s,uelekeo,marekebisho,utunzaji,NA,sdf,NA,2,NA,NA,NA,NA,NA,NA,NA,NA,NA,NA,NA,NA,NA,NA,NA,NA,NA,NA,NA
b41dd,Shallow Question,html.Page,5_0_2_0_1_1_0,NA,NA,form submission,6037.6999999998,852232.6,852228.5,852245.1,858282.8,858283.1,2024-04-16T12:02:52Z,858291,NULL,Orientierung,urekebisho,s,uelekeo,marekebisho,utunzaji,marekebisho,NA,NA,2,NA,NA,NA,NA,NA,NA,NA,NA,NA,NA,NA,NA,NA,NA,NA,NA,NA,NA,NA
b41dd,"""Richtig""-Screen",canvas.Screen,5_0_2_0_1_1_1,NA,NA,skipped,NA,858285.9,NA,NA,858282.8,858286.1,2024-04-16T12:02:52Z,858291,NULL,Orientierung,urekebisho,s,uelekeo,marekebisho,utunzaji,NA,sdf,NA,2,NA,NA,NA,NA,NA,NA,NA,NA,NA,NA,NA,NA,NA,NA,NA,NA,NA,NA,NA
b41dd,"""Falsch""-Screen",canvas.Screen,5_0_2_0_1_1_2,NA,NA,timeout,4997.2,858286.9,858275.462,858291,863271.5,863272.5,2024-04-16T12:02:57Z,863288.2,NULL,Orientierung,urekebisho,s,uelekeo,marekebisho,utunzaji,NA,sdf,0,2,NA,NA,NA,NA,NA,NA,NA,NA,NA,NA,NA,NA,NA,NA,NA,NA,NA,NA,NA
b41dd,shallow,flow.Sequence,5_0_2_0_1_1,NA,NA,completion,11026.4,852232.6,852228.5,852245.1,863271.5,863272.9,2024-04-16T12:02:57Z,863288.2,NULL,Orientierung,urekebisho,s,uelekeo,marekebisho,utunzaji,NA,sdf,NA,2,NA,NA,NA,NA,NA,NA,NA,NA,NA,NA,NA,NA,NA,NA,NA,NA,NA,NA,NA
b41dd,task,flow.Sequence,5_0_2_0_1,NA,NA,completion,11026.4,852232.4,852228.5,852245.1,863271.5,863273.1,2024-04-16T12:02:57Z,863288.2,NULL,Orientierung,urekebisho,s,uelekeo,marekebisho,utunzaji,NA,sdf,NA,2,NA,NA,NA,NA,NA,NA,NA,NA,NA,NA,NA,NA,NA,NA,NA,NA,NA,NA,NA
b41dd,Deep Question,html.Page,5_0_2_0_2_0_0,NA,NA,form submission,6917.8,863273.3,863271.5,863288.2,870206,870206.2,2024-04-16T12:03:03Z,870217.2,NULL,Stimmung,kinyongo,d,NA,NA,NA,k,NA,NA,2,NA,NA,NA,NA,NA,NA,NA,NA,NA,NA,NA,NA,NA,NA,NA,NA,NA,NA,NA
b41dd,"""Richtig""-Screen",canvas.Screen,5_0_2_0_2_0_1,NA,NA,skipped,NA,870207.6,NA,NA,870206,870207.7,2024-04-16T12:03:03Z,870217.2,NULL,Stimmung,kinyongo,d,NA,NA,NA,NA,sdf,NA,2,NA,NA,NA,NA,NA,NA,NA,NA,NA,NA,NA,NA,NA,NA,NA,NA,NA,NA,NA
b41dd,"""Falsch""-Screen",canvas.Screen,5_0_2_0_2_0_2,NA,NA,timeout,4997.4,870208,870201.734,870217.2,875197.9,875198.8,2024-04-16T12:03:08Z,875214.6,NULL,Stimmung,kinyongo,d,NA,NA,NA,NA,sdf,0,2,NA,NA,NA,NA,NA,NA,NA,NA,NA,NA,NA,NA,NA,NA,NA,NA,NA,NA,NA
b41dd,deep,flow.Sequence,5_0_2_0_2_0,NA,NA,completion,11909.7,863273.2,863271.5,863288.2,875197.9,875199.2,2024-04-16T12:03:08Z,875214.6,NULL,Stimmung,kinyongo,d,NA,NA,NA,NA,sdf,NA,2,NA,NA,NA,NA,NA,NA,NA,NA,NA,NA,NA,NA,NA,NA,NA,NA,NA,NA,NA
b41dd,shallow,flow.Sequence,5_0_2_0_2_1,NA,NA,skipped,NA,875199.3,NA,NA,875197.9,875199.5,2024-04-16T12:03:08Z,875214.6,NULL,Stimmung,kinyongo,d,NA,NA,NA,NA,sdf,NA,2,NA,NA,NA,NA,NA,NA,NA,NA,NA,NA,NA,NA,NA,NA,NA,NA,NA,NA,NA
b41dd,task,flow.Sequence,5_0_2_0_2,NA,NA,completion,11909.7,863273.1,863271.5,863288.2,875197.9,875199.7,2024-04-16T12:03:08Z,875214.6,NULL,Stimmung,kinyongo,d,NA,NA,NA,NA,sdf,NA,2,NA,NA,NA,NA,NA,NA,NA,NA,NA,NA,NA,NA,NA,NA,NA,NA,NA,NA,NA
b41dd,deep,flow.Sequence,5_0_2_0_3_0,NA,NA,skipped,NA,875199.8,NA,NA,875197.9,875199.9,2024-04-16T12:03:08Z,875214.6,NULL,Kreativität,ubunifu,s,mratibu,mwendelezo,makubaliano,NA,sdf,NA,2,NA,NA,NA,NA,NA,NA,NA,NA,NA,NA,NA,NA,NA,NA,NA,NA,NA,NA,NA
b41dd,Shallow Question,html.Page,5_0_2_0_3_1_0,NA,NA,form submission,6013.3000000004,875200,875197.9,875214.6,881227.9,881228.1,2024-04-16T12:03:15Z,881244.1,NULL,Kreativität,ubunifu,s,mratibu,mwendelezo,makubaliano,ubunifu,NA,NA,2,NA,NA,NA,NA,NA,NA,NA,NA,NA,NA,NA,NA,NA,NA,NA,NA,NA,NA,NA
b41dd,"""Richtig""-Screen",canvas.Screen,5_0_2_0_3_1_1,NA,NA,timeout,4996.8,881231.2,881227.446,881244.1,886224.3,886225.2,2024-04-16T12:03:20Z,886240.9,NULL,Kreativität,ubunifu,s,mratibu,mwendelezo,makubaliano,NA,sdf,1,2,NA,NA,NA,NA,NA,NA,NA,NA,NA,NA,NA,NA,NA,NA,NA,NA,NA,NA,NA
b41dd,"""Falsch""-Screen",canvas.Screen,5_0_2_0_3_1_2,NA,NA,skipped,NA,886229.9,NA,NA,886224.3,886230.1,2024-04-16T12:03:20Z,886240.9,NULL,Kreativität,ubunifu,s,mratibu,mwendelezo,makubaliano,NA,sdf,NA,2,NA,NA,NA,NA,NA,NA,NA,NA,NA,NA,NA,NA,NA,NA,NA,NA,NA,NA,NA
b41dd,shallow,flow.Sequence,5_0_2_0_3_1,NA,NA,completion,11009.7,875200,875197.9,875214.6,886224.3,886230.1,2024-04-16T12:03:20Z,886240.9,NULL,Kreativität,ubunifu,s,mratibu,mwendelezo,makubaliano,NA,sdf,NA,2,NA,NA,NA,NA,NA,NA,NA,NA,NA,NA,NA,NA,NA,NA,NA,NA,NA,NA,NA
b41dd,task,flow.Sequence,5_0_2_0_3,NA,NA,completion,11009.7,875199.7,875197.9,875214.6,886224.3,886230.2,2024-04-16T12:03:20Z,886240.9,NULL,Kreativität,ubunifu,s,mratibu,mwendelezo,makubaliano,NA,sdf,NA,2,NA,NA,NA,NA,NA,NA,NA,NA,NA,NA,NA,NA,NA,NA,NA,NA,NA,NA,NA
b41dd,Deep Question,html.Page,5_0_2_0_4_0_0,NA,NA,form submission,11285.4,886230.2,886224.3,886240.9,897526.3,897526.5,2024-04-16T12:03:31Z,897533.8,NULL,Betrüger,mdanganyifu,d,NA,NA,NA,mdanganufu,NA,NA,2,NA,NA,NA,NA,NA,NA,NA,NA,NA,NA,NA,NA,NA,NA,NA,NA,NA,NA,NA
b41dd,"""Richtig""-Screen",canvas.Screen,5_0_2_0_4_0_1,NA,NA,skipped,NA,897529.5,NA,NA,897526.3,897529.7,2024-04-16T12:03:31Z,897533.8,NULL,Betrüger,mdanganyifu,d,NA,NA,NA,NA,sdf,NA,2,NA,NA,NA,NA,NA,NA,NA,NA,NA,NA,NA,NA,NA,NA,NA,NA,NA,NA,NA
b41dd,"""Falsch""-Screen",canvas.Screen,5_0_2_0_4_0_2,NA,NA,timeout,4997.2999999999,897530.4,897518.128,897533.8,902514.5,902515.4,2024-04-16T12:03:36Z,902531.1,NULL,Betrüger,mdanganyifu,d,NA,NA,NA,NA,sdf,0,2,NA,NA,NA,NA,NA,NA,NA,NA,NA,NA,NA,NA,NA,NA,NA,NA,NA,NA,NA
b41dd,deep,flow.Sequence,5_0_2_0_4_0,NA,NA,completion,16273.6,886230.2,886224.3,886240.9,902514.5,902515.8,2024-04-16T12:03:36Z,902531.1,NULL,Betrüger,mdanganyifu,d,NA,NA,NA,NA,sdf,NA,2,NA,NA,NA,NA,NA,NA,NA,NA,NA,NA,NA,NA,NA,NA,NA,NA,NA,NA,NA
b41dd,shallow,flow.Sequence,5_0_2_0_4_1,NA,NA,skipped,NA,902515.9,NA,NA,902514.5,902516.1,2024-04-16T12:03:36Z,902531.1,NULL,Betrüger,mdanganyifu,d,NA,NA,NA,NA,sdf,NA,2,NA,NA,NA,NA,NA,NA,NA,NA,NA,NA,NA,NA,NA,NA,NA,NA,NA,NA,NA
b41dd,task,flow.Sequence,5_0_2_0_4,NA,NA,completion,16273.6,886230.2,886224.3,886240.9,902514.5,902516.2,2024-04-16T12:03:36Z,902531.1,NULL,Betrüger,mdanganyifu,d,NA,NA,NA,NA,sdf,NA,2,NA,NA,NA,NA,NA,NA,NA,NA,NA,NA,NA,NA,NA,NA,NA,NA,NA,NA,NA
b41dd,deep,flow.Sequence,5_0_2_0_5_0,NA,NA,skipped,NA,902516.3,NA,NA,902514.5,902516.5,2024-04-16T12:03:36Z,902531.1,NULL,Respekt,heshima,s,changamnao,upinzani,ufanisi,NA,sdf,NA,2,NA,NA,NA,NA,NA,NA,NA,NA,NA,NA,NA,NA,NA,NA,NA,NA,NA,NA,NA
b41dd,Shallow Question,html.Page,5_0_2_0_5_1_0,NA,NA,form submission,4910.1999999998,902516.6,902514.5,902531.1,907441.3,907441.6,2024-04-16T12:03:41Z,907445.398,NULL,Respekt,heshima,s,changamnao,upinzani,ufanisi,heshima,NA,NA,2,NA,NA,NA,NA,NA,NA,NA,NA,NA,NA,NA,NA,NA,NA,NA,NA,NA,NA,NA
b41dd,"""Richtig""-Screen",canvas.Screen,5_0_2_0_5_1_1,NA,NA,timeout,4996.3019999999,907445,907445.398,907445.398,912424.7,912425.8,2024-04-16T12:03:46Z,912441.7,NULL,Respekt,heshima,s,changamnao,upinzani,ufanisi,NA,sdf,1,2,NA,NA,NA,NA,NA,NA,NA,NA,NA,NA,NA,NA,NA,NA,NA,NA,NA,NA,NA
b41dd,"""Falsch""-Screen",canvas.Screen,5_0_2_0_5_1_2,NA,NA,skipped,NA,912431,NA,NA,912424.7,912431.2,2024-04-16T12:03:46Z,912441.7,NULL,Respekt,heshima,s,changamnao,upinzani,ufanisi,NA,sdf,NA,2,NA,NA,NA,NA,NA,NA,NA,NA,NA,NA,NA,NA,NA,NA,NA,NA,NA,NA,NA
b41dd,shallow,flow.Sequence,5_0_2_0_5_1,NA,NA,completion,9893.6,902516.6,902514.5,902531.1,912424.7,912431.3,2024-04-16T12:03:46Z,912441.7,NULL,Respekt,heshima,s,changamnao,upinzani,ufanisi,NA,sdf,NA,2,NA,NA,NA,NA,NA,NA,NA,NA,NA,NA,NA,NA,NA,NA,NA,NA,NA,NA,NA
b41dd,task,flow.Sequence,5_0_2_0_5,NA,NA,completion,9893.6,902516.3,902514.5,902531.1,912424.7,912431.3,2024-04-16T12:03:46Z,912441.7,NULL,Respekt,heshima,s,changamnao,upinzani,ufanisi,NA,sdf,NA,2,NA,NA,NA,NA,NA,NA,NA,NA,NA,NA,NA,NA,NA,NA,NA,NA,NA,NA,NA
b41dd,deep,flow.Sequence,5_0_2_0_6_0,NA,NA,skipped,NA,912431.3,NA,NA,912424.7,912431.3,2024-04-16T12:03:46Z,912441.7,NULL,Können,unaweza,s,kiongozi,bustani,mienendo,NA,sdf,NA,2,NA,NA,NA,NA,NA,NA,NA,NA,NA,NA,NA,NA,NA,NA,NA,NA,NA,NA,NA
b41dd,Shallow Question,html.Page,5_0_2_0_6_1_0,NA,NA,form submission,6417.5000000002,912431.4,912424.7,912441.7,918859.2,918859.5,2024-04-16T12:03:52Z,918870.7,NULL,Können,unaweza,s,kiongozi,bustani,mienendo,unaweza,NA,NA,2,NA,NA,NA,NA,NA,NA,NA,NA,NA,NA,NA,NA,NA,NA,NA,NA,NA,NA,NA
b41dd,"""Richtig""-Screen",canvas.Screen,5_0_2_0_6_1_1,NA,NA,timeout,4997.5,918862.4,918854.91,918870.7,923851.3,923852.2,2024-04-16T12:03:57Z,923868.2,NULL,Können,unaweza,s,kiongozi,bustani,mienendo,NA,sdf,1,2,NA,NA,NA,NA,NA,NA,NA,NA,NA,NA,NA,NA,NA,NA,NA,NA,NA,NA,NA
b41dd,"""Falsch""-Screen",canvas.Screen,5_0_2_0_6_1_2,NA,NA,skipped,NA,923857.4,NA,NA,923851.3,923857.5,2024-04-16T12:03:57Z,923868.2,NULL,Können,unaweza,s,kiongozi,bustani,mienendo,NA,sdf,NA,2,NA,NA,NA,NA,NA,NA,NA,NA,NA,NA,NA,NA,NA,NA,NA,NA,NA,NA,NA
b41dd,shallow,flow.Sequence,5_0_2_0_6_1,NA,NA,completion,11409.6,912431.4,912424.7,912441.7,923851.3,923857.5,2024-04-16T12:03:57Z,923868.2,NULL,Können,unaweza,s,kiongozi,bustani,mienendo,NA,sdf,NA,2,NA,NA,NA,NA,NA,NA,NA,NA,NA,NA,NA,NA,NA,NA,NA,NA,NA,NA,NA
b41dd,task,flow.Sequence,5_0_2_0_6,NA,NA,completion,11409.6,912431.3,912424.7,912441.7,923851.3,923857.7,2024-04-16T12:03:57Z,923868.2,NULL,Können,unaweza,s,kiongozi,bustani,mienendo,NA,sdf,NA,2,NA,NA,NA,NA,NA,NA,NA,NA,NA,NA,NA,NA,NA,NA,NA,NA,NA,NA,NA
b41dd,Deep Question,html.Page,5_0_2_0_7_0_0,NA,NA,form submission,5859.8,923857.7,923851.3,923868.2,929728,929728.3,2024-04-16T12:04:03Z,929730.8,NULL,Gefährdung,kuhatarisha,d,NA,NA,NA,kuhtidi,NA,NA,2,NA,NA,NA,NA,NA,NA,NA,NA,NA,NA,NA,NA,NA,NA,NA,NA,NA,NA,NA
b41dd,"""Richtig""-Screen",canvas.Screen,5_0_2_0_7_0_1,NA,NA,skipped,NA,929731.8,NA,NA,929728,929731.8,2024-04-16T12:04:03Z,929730.8,NULL,Gefährdung,kuhatarisha,d,NA,NA,NA,NA,sdf,NA,2,NA,NA,NA,NA,NA,NA,NA,NA,NA,NA,NA,NA,NA,NA,NA,NA,NA,NA,NA
b41dd,"""Falsch""-Screen",canvas.Screen,5_0_2_0_7_0_2,NA,NA,timeout,4997.2999999999,929732.4,929718.086,929730.8,934711.2,934712.3,2024-04-16T12:04:08Z,934728.1,NULL,Gefährdung,kuhatarisha,d,NA,NA,NA,NA,sdf,0,2,NA,NA,NA,NA,NA,NA,NA,NA,NA,NA,NA,NA,NA,NA,NA,NA,NA,NA,NA
b41dd,deep,flow.Sequence,5_0_2_0_7_0,NA,NA,completion,10843,923857.7,923851.3,923868.2,934711.2,934712.6,2024-04-16T12:04:08Z,934728.1,NULL,Gefährdung,kuhatarisha,d,NA,NA,NA,NA,sdf,NA,2,NA,NA,NA,NA,NA,NA,NA,NA,NA,NA,NA,NA,NA,NA,NA,NA,NA,NA,NA
b41dd,shallow,flow.Sequence,5_0_2_0_7_1,NA,NA,skipped,NA,934712.8,NA,NA,934711.2,934712.9,2024-04-16T12:04:08Z,934728.1,NULL,Gefährdung,kuhatarisha,d,NA,NA,NA,NA,sdf,NA,2,NA,NA,NA,NA,NA,NA,NA,NA,NA,NA,NA,NA,NA,NA,NA,NA,NA,NA,NA
b41dd,task,flow.Sequence,5_0_2_0_7,NA,NA,completion,10843,923857.7,923851.3,923868.2,934711.2,934713,2024-04-16T12:04:08Z,934728.1,NULL,Gefährdung,kuhatarisha,d,NA,NA,NA,NA,sdf,NA,2,NA,NA,NA,NA,NA,NA,NA,NA,NA,NA,NA,NA,NA,NA,NA,NA,NA,NA,NA
b41dd,block,flow.Loop,5_0_2_0,NA,NA,completion,92743.3,841953.6,841952.9,841967.9,934711.2,934713.3,2024-04-16T12:04:08Z,934728.1,NULL,NA,NA,NA,NA,NA,NA,NA,sdf,NA,2,NA,NA,NA,NA,NA,NA,NA,NA,NA,NA,NA,NA,NA,NA,NA,NA,NA,NA,NA
b41dd,weiter,canvas.Screen,5_0_2_1,sdf,keypress(Space),response,1219.1000000002,934713.3,934711.2,934728.1,935947.2,935951.8,2024-04-16T12:04:09Z,935977.1,NULL,NA,NA,NA,NA,NA,NA,NA,sdf,NA,2,NA,NA,NA,NA,NA,NA,NA,NA,NA,NA,NA,NA,NA,NA,NA,NA,NA,NA,NA
b41dd,check continue,flow.Sequence,5_0_2,NA,NA,completion,93979.3,841953.5,841952.9,841967.9,935947.2,935952,2024-04-16T12:04:09Z,935977.1,NULL,NA,NA,NA,NA,NA,NA,NA,sdf,NA,2,NA,NA,NA,NA,NA,NA,NA,NA,NA,NA,NA,NA,NA,NA,NA,NA,NA,NA,NA
b41dd,deep,flow.Sequence,5_0_3_0_0_0,NA,NA,skipped,NA,935966.8,NA,NA,935947.2,935966.9,2024-04-16T12:04:09Z,935977.1,NULL,Können,unaweza,s,kiongozi,bustani,mienendo,NA,qt,NA,3,NA,NA,NA,NA,NA,NA,NA,NA,NA,NA,NA,NA,NA,NA,NA,NA,NA,NA,NA
b41dd,Shallow Question,html.Page,5_0_3_0_0_1_0,NA,NA,form submission,7289.1000000002005,935966.9,935961.384,935977.1,943266.2,943266.4,2024-04-16T12:04:17Z,943272.5,NULL,Können,unaweza,s,kiongozi,bustani,mienendo,unaweza,NA,NA,3,NA,NA,NA,NA,NA,NA,NA,NA,NA,NA,NA,NA,NA,NA,NA,NA,NA,NA,NA
b41dd,"""Richtig""-Screen",canvas.Screen,5_0_3_0_0_1_1,NA,NA,timeout,4997.3,943269.4,943256.926,943272.5,948252.8,948253.8,2024-04-16T12:04:22Z,948269.8,NULL,Können,unaweza,s,kiongozi,bustani,mienendo,NA,qt,1,3,NA,NA,NA,NA,NA,NA,NA,NA,NA,NA,NA,NA,NA,NA,NA,NA,NA,NA,NA
b41dd,"""Falsch""-Screen",canvas.Screen,5_0_3_0_0_1_2,NA,NA,skipped,NA,948258.8,NA,NA,948252.8,948258.9,2024-04-16T12:04:22Z,948269.8,NULL,Können,unaweza,s,kiongozi,bustani,mienendo,NA,qt,NA,3,NA,NA,NA,NA,NA,NA,NA,NA,NA,NA,NA,NA,NA,NA,NA,NA,NA,NA,NA
b41dd,shallow,flow.Sequence,5_0_3_0_0_1,NA,NA,completion,12275.7,935966.9,935961.384,935977.1,948252.8,948259.1,2024-04-16T12:04:22Z,948269.8,NULL,Können,unaweza,s,kiongozi,bustani,mienendo,NA,qt,NA,3,NA,NA,NA,NA,NA,NA,NA,NA,NA,NA,NA,NA,NA,NA,NA,NA,NA,NA,NA
b41dd,task,flow.Sequence,5_0_3_0_0,NA,NA,completion,12275.7,935966.8,935961.384,935977.1,948252.8,948259.1,2024-04-16T12:04:22Z,948269.8,NULL,Können,unaweza,s,kiongozi,bustani,mienendo,NA,qt,NA,3,NA,NA,NA,NA,NA,NA,NA,NA,NA,NA,NA,NA,NA,NA,NA,NA,NA,NA,NA
b41dd,Deep Question,html.Page,5_0_3_0_1_0_0,NA,NA,form submission,8670.7,948259.1,948252.8,948269.8,956940.5,956940.7,2024-04-16T12:04:30Z,956947.4,NULL,Betrüger,mdanganyifu,d,NA,NA,NA,mdanganyifu,NA,NA,3,NA,NA,NA,NA,NA,NA,NA,NA,NA,NA,NA,NA,NA,NA,NA,NA,NA,NA,NA
b41dd,"""Richtig""-Screen",canvas.Screen,5_0_3_0_1_0_1,NA,NA,timeout,4997.4,956943.8,956931.95,956947.4,961927.8,961928.7,2024-04-16T12:04:35Z,961944.8,NULL,Betrüger,mdanganyifu,d,NA,NA,NA,NA,qt,1,3,NA,NA,NA,NA,NA,NA,NA,NA,NA,NA,NA,NA,NA,NA,NA,NA,NA,NA,NA
b41dd,"""Falsch""-Screen",canvas.Screen,5_0_3_0_1_0_2,NA,NA,skipped,NA,961933.4,NA,NA,961927.8,961933.6,2024-04-16T12:04:35Z,961944.8,NULL,Betrüger,mdanganyifu,d,NA,NA,NA,NA,qt,NA,3,NA,NA,NA,NA,NA,NA,NA,NA,NA,NA,NA,NA,NA,NA,NA,NA,NA,NA,NA
b41dd,deep,flow.Sequence,5_0_3_0_1_0,NA,NA,completion,13658,948259.1,948252.8,948269.8,961927.8,961933.8,2024-04-16T12:04:35Z,961944.8,NULL,Betrüger,mdanganyifu,d,NA,NA,NA,NA,qt,NA,3,NA,NA,NA,NA,NA,NA,NA,NA,NA,NA,NA,NA,NA,NA,NA,NA,NA,NA,NA
b41dd,shallow,flow.Sequence,5_0_3_0_1_1,NA,NA,skipped,NA,961933.9,NA,NA,961927.8,961934,2024-04-16T12:04:35Z,961944.8,NULL,Betrüger,mdanganyifu,d,NA,NA,NA,NA,qt,NA,3,NA,NA,NA,NA,NA,NA,NA,NA,NA,NA,NA,NA,NA,NA,NA,NA,NA,NA,NA
b41dd,task,flow.Sequence,5_0_3_0_1,NA,NA,completion,13658,948259.1,948252.8,948269.8,961927.8,961934,2024-04-16T12:04:35Z,961944.8,NULL,Betrüger,mdanganyifu,d,NA,NA,NA,NA,qt,NA,3,NA,NA,NA,NA,NA,NA,NA,NA,NA,NA,NA,NA,NA,NA,NA,NA,NA,NA,NA
b41dd,Deep Question,html.Page,5_0_3_0_2_0_0,NA,NA,form submission,8712.3000000005,961934.3,961927.8,961944.8,970657.1,970657.4,2024-04-16T12:04:44Z,970672.6,NULL,Gefährdung,kuhatarisha,d,NA,NA,NA,kuhatareshi,NA,NA,3,NA,NA,NA,NA,NA,NA,NA,NA,NA,NA,NA,NA,NA,NA,NA,NA,NA,NA,NA
b41dd,"""Richtig""-Screen",canvas.Screen,5_0_3_0_2_0_1,NA,NA,skipped,NA,970660.5,NA,NA,970657.1,970660.7,2024-04-16T12:04:44Z,970672.6,NULL,Gefährdung,kuhatarisha,d,NA,NA,NA,NA,qt,NA,3,NA,NA,NA,NA,NA,NA,NA,NA,NA,NA,NA,NA,NA,NA,NA,NA,NA,NA,NA
