observation,sender,sender_type,sender_id,response,response_action,ended_on,duration,time_run,time_render,time_show,time_end,time_commit,timestamp,time_switch,distractors,german,swahili,enc,distractor1,distractor2,distractor3,response_2,x,correct,x_2,url_vp,url_sess,meta_labjs_version,meta_location,meta_user_agent,meta_platform,meta_language,meta_locale,meta_time_zone,meta_timezone_offset,meta_screen_width,meta_screen_height,meta_scroll_width,meta_scroll_height,meta_window_inner_width,meta_window_inner_height,meta_device_pixel_ratio,meta_labjs_build_flavor,meta_labjs_build_commit
ebbe2,Introduction general,canvas.Screen,0,weiter,keypress(q),response,13341.2,580,590.14,606.8,13948,13966,2023-08-06T08:26:40Z,13971.88,NULL,NA,NA,NA,NA,NA,NA,NA,NA,NA,NA,175,3,20.2.4,https://neurocog.fernuni.ch/studies/vweber/sliechti/encoding_immediate/index.html?vp=175&sess=3,Mozilla/5.0 (Windows NT 10.0; Win64; x64; rv:109.0) Gecko/20100101 Firefox/116.0,Win32,de,de-CH,Europe/Zurich,-120,1280,720,1280,587,1280,587,1.5,production,f5b4a49f956347addd546a832a3327688c2c0fef
ebbe2,Introduction practice,canvas.Screen,1_0,NA,keypress(Space),response,6492.12,13968,13968.38,13971.88,20464,20473,2023-08-06T08:26:46Z,20487.72,NULL,NA,NA,NA,NA,NA,NA,NA,NA,NA,NA,NA,NA,NA,NA,NA,NA,NA,NA,NA,NA,NA,NA,NA,NA,NA,NA,NA,NA,NA
ebbe2,Deep Question,html.Page,1_1_0_0_0,NA,NA,form submission,13235.28,20474,20474.22,20487.72,33723,33723,2023-08-06T08:26:59Z,33736.04,"c(""distractor1"", ""distractor2"", ""distractor3"")",Qualität,mtindo,d,NA,NA,NA,haniba,NA,NA,NA,NA,NA,NA,NA,NA,NA,NA,NA,NA,NA,NA,NA,NA,NA,NA,NA,NA,NA,NA
ebbe2,"""Richtig""-Screen",canvas.Screen,1_1_0_0_1,NA,NA,skipped,NA,33731,NA,NA,33723,33732,2023-08-06T08:26:59Z,33736.04,"c(""distractor1"", ""distractor2"", ""distractor3"")",Qualität,mtindo,d,NA,NA,NA,NA,NA,NA,NA,NA,NA,NA,NA,NA,NA,NA,NA,NA,NA,NA,NA,NA,NA,NA,NA,NA,NA,NA
ebbe2,"""Falsch""-Screen",canvas.Screen,1_1_0_0_2,NA,NA,timeout,4999.26,33734,33705.54,33736.04,38718.64,38721,2023-08-06T08:27:04Z,38735.3,"c(""distractor1"", ""distractor2"", ""distractor3"")",Qualität,mtindo,d,NA,NA,NA,NA,NA,0,NA,NA,NA,NA,NA,NA,NA,NA,NA,NA,NA,NA,NA,NA,NA,NA,NA,NA,NA,NA
ebbe2,deep,flow.Sequence,1_1_0_0,NA,NA,completion,18230.92,20474,20474.22,20487.72,38718.64,38721,2023-08-06T08:27:04Z,38735.3,"c(""distractor1"", ""distractor2"", ""distractor3"")",Qualität,mtindo,d,NA,NA,NA,NA,NA,NA,NA,NA,NA,NA,NA,NA,NA,NA,NA,NA,NA,NA,NA,NA,NA,NA,NA,NA,NA,NA
ebbe2,shallow,flow.Sequence,1_1_0_1,NA,NA,skipped,NA,38722,NA,NA,38718.64,38723,2023-08-06T08:27:04Z,38735.3,"c(""distractor1"", ""distractor2"", ""distractor3"")",Qualität,mtindo,d,NA,NA,NA,NA,NA,NA,NA,NA,NA,NA,NA,NA,NA,NA,NA,NA,NA,NA,NA,NA,NA,NA,NA,NA,NA,NA
ebbe2,task,flow.Sequence,1_1_0,NA,NA,completion,18230.92,20474,20474.22,20487.72,38718.64,38723,2023-08-06T08:27:04Z,38735.3,"c(""distractor1"", ""distractor2"", ""distractor3"")",Qualität,mtindo,d,NA,NA,NA,NA,NA,NA,NA,NA,NA,NA,NA,NA,NA,NA,NA,NA,NA,NA,NA,NA,NA,NA,NA,NA,NA,NA
ebbe2,deep,flow.Sequence,1_1_1_0,NA,NA,skipped,NA,38724,NA,NA,38718.64,38725,2023-08-06T08:27:04Z,38735.3,"c(""distractor1"", ""distractor2"", ""distractor3"")",Kritik,lawama,s,dereva,nafasi,mawazo,NA,NA,NA,NA,NA,NA,NA,NA,NA,NA,NA,NA,NA,NA,NA,NA,NA,NA,NA,NA,NA,NA,NA
ebbe2,Shallow Question,html.Page,1_1_1_1_0,NA,NA,form submission,6481.7,38726,38718.64,38735.3,45217,45217,2023-08-06T08:27:11Z,45217.82,"c(""distractor1"", ""distractor2"", ""distractor3"")",Kritik,lawama,s,dereva,nafasi,mawazo,lawama,NA,NA,NA,NA,NA,NA,NA,NA,NA,NA,NA,NA,NA,NA,NA,NA,NA,NA,NA,NA,NA,NA
ebbe2,"""Richtig""-Screen",canvas.Screen,1_1_1_1_1,NA,NA,timeout,4999.3,45220,45215.26,45217.82,50200.46,50202,2023-08-06T08:27:16Z,50217.12,"c(""distractor1"", ""distractor2"", ""distractor3"")",Kritik,lawama,s,dereva,nafasi,mawazo,NA,NA,1,NA,NA,NA,NA,NA,NA,NA,NA,NA,NA,NA,NA,NA,NA,NA,NA,NA,NA,NA,NA
ebbe2,"""Falsch""-Screen",canvas.Screen,1_1_1_1_2,NA,NA,skipped,NA,50207,NA,NA,50200.46,50208,2023-08-06T08:27:16Z,50217.12,"c(""distractor1"", ""distractor2"", ""distractor3"")",Kritik,lawama,s,dereva,nafasi,mawazo,NA,NA,NA,NA,NA,NA,NA,NA,NA,NA,NA,NA,NA,NA,NA,NA,NA,NA,NA,NA,NA,NA,NA
ebbe2,shallow,flow.Sequence,1_1_1_1,NA,NA,completion,11465.16,38725,38718.64,38735.3,50200.46,50208,2023-08-06T08:27:16Z,50217.12,"c(""distractor1"", ""distractor2"", ""distractor3"")",Kritik,lawama,s,dereva,nafasi,mawazo,NA,NA,NA,NA,NA,NA,NA,NA,NA,NA,NA,NA,NA,NA,NA,NA,NA,NA,NA,NA,NA,NA,NA
ebbe2,task,flow.Sequence,1_1_1,NA,NA,completion,11465.16,38724,38718.64,38735.3,50200.46,50208,2023-08-06T08:27:16Z,50217.12,"c(""distractor1"", ""distractor2"", ""distractor3"")",Kritik,lawama,s,dereva,nafasi,mawazo,NA,NA,NA,NA,NA,NA,NA,NA,NA,NA,NA,NA,NA,NA,NA,NA,NA,NA,NA,NA,NA,NA,NA
ebbe2,Deep Question,html.Page,1_1_2_0_0,NA,NA,form submission,9249.88,50209,50200.46,50217.12,59467,59467,2023-08-06T08:27:25Z,59482.62,"c(""distractor1"", ""distractor2"", ""distractor3"")",Schatten,kivuli,d,NA,NA,NA,balido,NA,NA,NA,NA,NA,NA,NA,NA,NA,NA,NA,NA,NA,NA,NA,NA,NA,NA,NA,NA,NA,NA
ebbe2,"""Richtig""-Screen",canvas.Screen,1_1_2_0_1,NA,NA,skipped,NA,59469,NA,NA,59467,59469,2023-08-06T08:27:25Z,59482.62,"c(""distractor1"", ""distractor2"", ""distractor3"")",Schatten,kivuli,d,NA,NA,NA,NA,NA,NA,NA,NA,NA,NA,NA,NA,NA,NA,NA,NA,NA,NA,NA,NA,NA,NA,NA,NA,NA,NA
ebbe2,"""Falsch""-Screen",canvas.Screen,1_1_2_0_2,NA,NA,timeout,4999.48,59472,59465.76,59482.62,64465.44,64467,2023-08-06T08:27:30Z,64482.1,"c(""distractor1"", ""distractor2"", ""distractor3"")",Schatten,kivuli,d,NA,NA,NA,NA,NA,0,NA,NA,NA,NA,NA,NA,NA,NA,NA,NA,NA,NA,NA,NA,NA,NA,NA,NA,NA,NA
ebbe2,deep,flow.Sequence,1_1_2_0,NA,NA,completion,14248.32,50209,50200.46,50217.12,64465.44,64468,2023-08-06T08:27:30Z,64482.1,"c(""distractor1"", ""distractor2"", ""distractor3"")",Schatten,kivuli,d,NA,NA,NA,NA,NA,NA,NA,NA,NA,NA,NA,NA,NA,NA,NA,NA,NA,NA,NA,NA,NA,NA,NA,NA,NA,NA
ebbe2,shallow,flow.Sequence,1_1_2_1,NA,NA,skipped,NA,64469,NA,NA,64465.44,64469,2023-08-06T08:27:30Z,64482.1,"c(""distractor1"", ""distractor2"", ""distractor3"")",Schatten,kivuli,d,NA,NA,NA,NA,NA,NA,NA,NA,NA,NA,NA,NA,NA,NA,NA,NA,NA,NA,NA,NA,NA,NA,NA,NA,NA,NA
ebbe2,task,flow.Sequence,1_1_2,NA,NA,completion,14248.32,50209,50200.46,50217.12,64465.44,64469,2023-08-06T08:27:30Z,64482.1,"c(""distractor1"", ""distractor2"", ""distractor3"")",Schatten,kivuli,d,NA,NA,NA,NA,NA,NA,NA,NA,NA,NA,NA,NA,NA,NA,NA,NA,NA,NA,NA,NA,NA,NA,NA,NA,NA,NA
ebbe2,Deep Question,html.Page,1_1_3_0_0,NA,NA,form submission,6433.9,64470,64465.44,64482.1,70916,70918,2023-08-06T08:27:37Z,70930.1,"c(""distractor1"", ""distractor2"", ""distractor3"")",Gesundheit,salama,d,NA,NA,NA,kiwila,NA,NA,NA,NA,NA,NA,NA,NA,NA,NA,NA,NA,NA,NA,NA,NA,NA,NA,NA,NA,NA,NA
ebbe2,"""Richtig""-Screen",canvas.Screen,1_1_3_0_1,NA,NA,skipped,NA,70925,NA,NA,70916,70925,2023-08-06T08:27:37Z,70930.1,"c(""distractor1"", ""distractor2"", ""distractor3"")",Gesundheit,salama,d,NA,NA,NA,NA,NA,NA,NA,NA,NA,NA,NA,NA,NA,NA,NA,NA,NA,NA,NA,NA,NA,NA,NA,NA,NA,NA
ebbe2,"""Falsch""-Screen",canvas.Screen,1_1_3_0_2,NA,NA,timeout,5000.34,70928,70913.7,70930.1,75913.86,75916,2023-08-06T08:27:42Z,75930.44,"c(""distractor1"", ""distractor2"", ""distractor3"")",Gesundheit,salama,d,NA,NA,NA,NA,NA,0,NA,NA,NA,NA,NA,NA,NA,NA,NA,NA,NA,NA,NA,NA,NA,NA,NA,NA,NA,NA
ebbe2,deep,flow.Sequence,1_1_3_0,NA,NA,completion,11431.76,64470,64465.44,64482.1,75913.86,75916,2023-08-06T08:27:42Z,75930.44,"c(""distractor1"", ""distractor2"", ""distractor3"")",Gesundheit,salama,d,NA,NA,NA,NA,NA,NA,NA,NA,NA,NA,NA,NA,NA,NA,NA,NA,NA,NA,NA,NA,NA,NA,NA,NA,NA,NA
ebbe2,shallow,flow.Sequence,1_1_3_1,NA,NA,skipped,NA,75917,NA,NA,75913.86,75917,2023-08-06T08:27:42Z,75930.44,"c(""distractor1"", ""distractor2"", ""distractor3"")",Gesundheit,salama,d,NA,NA,NA,NA,NA,NA,NA,NA,NA,NA,NA,NA,NA,NA,NA,NA,NA,NA,NA,NA,NA,NA,NA,NA,NA,NA
ebbe2,task,flow.Sequence,1_1_3,NA,NA,completion,11431.76,64470,64465.44,64482.1,75913.86,75919,2023-08-06T08:27:42Z,75930.44,"c(""distractor1"", ""distractor2"", ""distractor3"")",Gesundheit,salama,d,NA,NA,NA,NA,NA,NA,NA,NA,NA,NA,NA,NA,NA,NA,NA,NA,NA,NA,NA,NA,NA,NA,NA,NA,NA,NA
ebbe2,deep,flow.Sequence,1_1_4_0,NA,NA,skipped,NA,75919,NA,NA,75913.86,75919,2023-08-06T08:27:42Z,75930.44,"c(""distractor1"", ""distractor2"", ""distractor3"")",Gegenwart,hadhara,s,katiba,jokofu,mikopo,NA,NA,NA,NA,NA,NA,NA,NA,NA,NA,NA,NA,NA,NA,NA,NA,NA,NA,NA,NA,NA,NA,NA
ebbe2,Shallow Question,html.Page,1_1_4_1_0,NA,NA,form submission,7032.56,75919,75913.86,75930.44,82963,82964,2023-08-06T08:27:49Z,82962.84,"c(""distractor1"", ""distractor2"", ""distractor3"")",Gegenwart,hadhara,s,katiba,jokofu,mikopo,mikopo,NA,NA,NA,NA,NA,NA,NA,NA,NA,NA,NA,NA,NA,NA,NA,NA,NA,NA,NA,NA,NA,NA
ebbe2,"""Richtig""-Screen",canvas.Screen,1_1_4_1_1,NA,NA,skipped,NA,82967,NA,NA,82963,82968,2023-08-06T08:27:49Z,82962.84,"c(""distractor1"", ""distractor2"", ""distractor3"")",Gegenwart,hadhara,s,katiba,jokofu,mikopo,NA,NA,NA,NA,NA,NA,NA,NA,NA,NA,NA,NA,NA,NA,NA,NA,NA,NA,NA,NA,NA,NA,NA
ebbe2,"""Falsch""-Screen",canvas.Screen,1_1_4_1_2,NA,NA,timeout,4999.36,82970,82962.2,82962.84,87945.6,87947,2023-08-06T08:27:54Z,87962.2,"c(""distractor1"", ""distractor2"", ""distractor3"")",Gegenwart,hadhara,s,katiba,jokofu,mikopo,NA,NA,0,NA,NA,NA,NA,NA,NA,NA,NA,NA,NA,NA,NA,NA,NA,NA,NA,NA,NA,NA,NA
ebbe2,shallow,flow.Sequence,1_1_4_1,NA,NA,completion,12015.16,75919,75913.86,75930.44,87945.6,87948,2023-08-06T08:27:54Z,87962.2,"c(""distractor1"", ""distractor2"", ""distractor3"")",Gegenwart,hadhara,s,katiba,jokofu,mikopo,NA,NA,NA,NA,NA,NA,NA,NA,NA,NA,NA,NA,NA,NA,NA,NA,NA,NA,NA,NA,NA,NA,NA
ebbe2,task,flow.Sequence,1_1_4,NA,NA,completion,12015.16,75919,75913.86,75930.44,87945.6,87948,2023-08-06T08:27:54Z,87962.2,"c(""distractor1"", ""distractor2"", ""distractor3"")",Gegenwart,hadhara,s,katiba,jokofu,mikopo,NA,NA,NA,NA,NA,NA,NA,NA,NA,NA,NA,NA,NA,NA,NA,NA,NA,NA,NA,NA,NA,NA,NA
ebbe2,deep,flow.Sequence,1_1_5_0,NA,NA,skipped,NA,87949,NA,NA,87945.6,87949,2023-08-06T08:27:54Z,87962.2,"c(""distractor1"", ""distractor2"", ""distractor3"")",Rückhalt,msaada,s,muhula,auwali,kiwimbe,NA,NA,NA,NA,NA,NA,NA,NA,NA,NA,NA,NA,NA,NA,NA,NA,NA,NA,NA,NA,NA,NA,NA
ebbe2,Shallow Question,html.Page,1_1_5_1_0,NA,NA,form submission,6037.8,87950,87945.6,87962.2,94000,94000,2023-08-06T08:28:00Z,93999.06,"c(""distractor1"", ""distractor2"", ""distractor3"")",Rückhalt,msaada,s,muhula,auwali,kiwimbe,auwali,NA,NA,NA,NA,NA,NA,NA,NA,NA,NA,NA,NA,NA,NA,NA,NA,NA,NA,NA,NA,NA,NA
ebbe2,"""Richtig""-Screen",canvas.Screen,1_1_5_1_1,NA,NA,skipped,NA,94003,NA,NA,94000,94003,2023-08-06T08:28:00Z,93999.06,"c(""distractor1"", ""distractor2"", ""distractor3"")",Rückhalt,msaada,s,muhula,auwali,kiwimbe,NA,NA,NA,NA,NA,NA,NA,NA,NA,NA,NA,NA,NA,NA,NA,NA,NA,NA,NA,NA,NA,NA,NA
ebbe2,"""Falsch""-Screen",canvas.Screen,1_1_5_1_2,NA,NA,timeout,4995.1,94007,93998.8,93999.06,98977.5,98979,2023-08-06T08:28:05Z,98994.16,"c(""distractor1"", ""distractor2"", ""distractor3"")",Rückhalt,msaada,s,muhula,auwali,kiwimbe,NA,NA,0,NA,NA,NA,NA,NA,NA,NA,NA,NA,NA,NA,NA,NA,NA,NA,NA,NA,NA,NA,NA
ebbe2,shallow,flow.Sequence,1_1_5_1,NA,NA,completion,11015.3,87949,87945.6,87962.2,98977.5,98979,2023-08-06T08:28:05Z,98994.16,"c(""distractor1"", ""distractor2"", ""distractor3"")",Rückhalt,msaada,s,muhula,auwali,kiwimbe,NA,NA,NA,NA,NA,NA,NA,NA,NA,NA,NA,NA,NA,NA,NA,NA,NA,NA,NA,NA,NA,NA,NA
ebbe2,task,flow.Sequence,1_1_5,NA,NA,completion,11015.3,87949,87945.6,87962.2,98977.5,98980,2023-08-06T08:28:05Z,98994.16,"c(""distractor1"", ""distractor2"", ""distractor3"")",Rückhalt,msaada,s,muhula,auwali,kiwimbe,NA,NA,NA,NA,NA,NA,NA,NA,NA,NA,NA,NA,NA,NA,NA,NA,NA,NA,NA,NA,NA,NA,NA
ebbe2,block,flow.Loop,1_1,NA,NA,completion,78489.78,20474,20474.22,20487.72,98977.5,98981,2023-08-06T08:28:05Z,98994.16,"c(""distractor1"", ""distractor2"", ""distractor3"")",NA,NA,NA,NA,NA,NA,NA,NA,NA,NA,NA,NA,NA,NA,NA,NA,NA,NA,NA,NA,NA,NA,NA,NA,NA,NA,NA,NA,NA
ebbe2,Practice,flow.Sequence,1,NA,NA,completion,85005.62,13968,13968.38,13971.88,98977.5,98982,2023-08-06T08:28:05Z,98994.16,NULL,NA,NA,NA,NA,NA,NA,NA,NA,NA,NA,NA,NA,NA,NA,NA,NA,NA,NA,NA,NA,NA,NA,NA,NA,NA,NA,NA,NA,NA
ebbe2,Experiment start,canvas.Screen,2,weiter,keypress(q),response,7391.84,98982,98977.5,98994.16,106386,106390,2023-08-06T08:28:12Z,106485.44,NULL,NA,NA,NA,NA,NA,NA,NA,NA,NA,NA,NA,NA,NA,NA,NA,NA,NA,NA,NA,NA,NA,NA,NA,NA,NA,NA,NA,NA,NA
ebbe2,Deep Question,html.Page,3_0_0_0_0_0_0,NA,NA,form submission,11576.56,106485,106485.1,106485.44,118062,118063,2023-08-06T08:28:24Z,118075,NULL,Schönheit,kirembo,d,NA,NA,NA,haliba,NA,NA,0,NA,NA,NA,NA,NA,NA,NA,NA,NA,NA,NA,NA,NA,NA,NA,NA,NA,NA,NA
ebbe2,"""Richtig""-Screen",canvas.Screen,3_0_0_0_0_0_1,NA,NA,skipped,NA,118066,NA,NA,118062,118066,2023-08-06T08:28:24Z,118075,NULL,Schönheit,kirembo,d,NA,NA,NA,NA,sdf,NA,0,NA,NA,NA,NA,NA,NA,NA,NA,NA,NA,NA,NA,NA,NA,NA,NA,NA,NA,NA
ebbe2,"""Falsch""-Screen",canvas.Screen,3_0_0_0_0_0_2,NA,NA,timeout,5002.86,118068,118058.34,118075,123057.72,123060,2023-08-06T08:28:29Z,123077.86,NULL,Schönheit,kirembo,d,NA,NA,NA,NA,sdf,0,0,NA,NA,NA,NA,NA,NA,NA,NA,NA,NA,NA,NA,NA,NA,NA,NA,NA,NA,NA
ebbe2,deep,flow.Sequence,3_0_0_0_0_0,NA,NA,completion,16572.28,106485,106485.1,106485.44,123057.72,123060,2023-08-06T08:28:29Z,123077.86,NULL,Schönheit,kirembo,d,NA,NA,NA,NA,sdf,NA,0,NA,NA,NA,NA,NA,NA,NA,NA,NA,NA,NA,NA,NA,NA,NA,NA,NA,NA,NA
ebbe2,shallow,flow.Sequence,3_0_0_0_0_1,NA,NA,skipped,NA,123061,NA,NA,123057.72,123061,2023-08-06T08:28:29Z,123077.86,NULL,Schönheit,kirembo,d,NA,NA,NA,NA,sdf,NA,0,NA,NA,NA,NA,NA,NA,NA,NA,NA,NA,NA,NA,NA,NA,NA,NA,NA,NA,NA
ebbe2,task,flow.Sequence,3_0_0_0_0,NA,NA,completion,16572.28,106485,106485.1,106485.44,123057.72,123061,2023-08-06T08:28:29Z,123077.86,NULL,Schönheit,kirembo,d,NA,NA,NA,NA,sdf,NA,0,NA,NA,NA,NA,NA,NA,NA,NA,NA,NA,NA,NA,NA,NA,NA,NA,NA,NA,NA
ebbe2,deep,flow.Sequence,3_0_0_0_1_0,NA,NA,skipped,NA,123061,NA,NA,123057.72,123062,2023-08-06T08:28:29Z,123077.86,NULL,Hoffnung,matarajio,s,kutaalamika,uratibu,mvumbuzi,NA,sdf,NA,0,NA,NA,NA,NA,NA,NA,NA,NA,NA,NA,NA,NA,NA,NA,NA,NA,NA,NA,NA
ebbe2,Shallow Question,html.Page,3_0_0_0_1_1_0,NA,NA,form submission,7331.14,123062,123057.72,123077.86,130409,130411,2023-08-06T08:28:36Z,130439.98,NULL,Hoffnung,matarajio,s,kutaalamika,uratibu,mvumbuzi,mvumbuzi,NA,NA,0,NA,NA,NA,NA,NA,NA,NA,NA,NA,NA,NA,NA,NA,NA,NA,NA,NA,NA,NA
ebbe2,"""Richtig""-Screen",canvas.Screen,3_0_0_0_1_1_1,NA,NA,skipped,NA,130419,NA,NA,130409,130419,2023-08-06T08:28:36Z,130439.98,NULL,Hoffnung,matarajio,s,kutaalamika,uratibu,mvumbuzi,NA,sdf,NA,0,NA,NA,NA,NA,NA,NA,NA,NA,NA,NA,NA,NA,NA,NA,NA,NA,NA,NA,NA
ebbe2,"""Falsch""-Screen",canvas.Screen,3_0_0_0_1_1_2,NA,NA,timeout,4999.48,130422,130423.32,130439.98,135422.8,135424,2023-08-06T08:28:41Z,135439.46,NULL,Hoffnung,matarajio,s,kutaalamika,uratibu,mvumbuzi,NA,sdf,0,0,NA,NA,NA,NA,NA,NA,NA,NA,NA,NA,NA,NA,NA,NA,NA,NA,NA,NA,NA
ebbe2,shallow,flow.Sequence,3_0_0_0_1_1,NA,NA,completion,12344.94,123062,123057.72,123077.86,135422.8,135425,2023-08-06T08:28:41Z,135439.46,NULL,Hoffnung,matarajio,s,kutaalamika,uratibu,mvumbuzi,NA,sdf,NA,0,NA,NA,NA,NA,NA,NA,NA,NA,NA,NA,NA,NA,NA,NA,NA,NA,NA,NA,NA
ebbe2,task,flow.Sequence,3_0_0_0_1,NA,NA,completion,12344.94,123061,123057.72,123077.86,135422.8,135426,2023-08-06T08:28:41Z,135439.46,NULL,Hoffnung,matarajio,s,kutaalamika,uratibu,mvumbuzi,NA,sdf,NA,0,NA,NA,NA,NA,NA,NA,NA,NA,NA,NA,NA,NA,NA,NA,NA,NA,NA,NA,NA
ebbe2,deep,flow.Sequence,3_0_0_0_2_0,NA,NA,skipped,NA,135427,NA,NA,135422.8,135427,2023-08-06T08:28:41Z,135439.46,NULL,Auftrag,uagizaji,s,ghanima,kuzingatia,msukani,NA,sdf,NA,0,NA,NA,NA,NA,NA,NA,NA,NA,NA,NA,NA,NA,NA,NA,NA,NA,NA,NA,NA
ebbe2,Shallow Question,html.Page,3_0_0_0_2_1_0,NA,NA,form submission,5123.54,135428,135422.8,135439.46,140563,140564,2023-08-06T08:28:46Z,140562.58,NULL,Auftrag,uagizaji,s,ghanima,kuzingatia,msukani,uagizaji,NA,NA,0,NA,NA,NA,NA,NA,NA,NA,NA,NA,NA,NA,NA,NA,NA,NA,NA,NA,NA,NA
ebbe2,"""Richtig""-Screen",canvas.Screen,3_0_0_0_2_1_1,NA,NA,timeout,4992.2,140567,140562.3,140562.58,145538.12,145539,2023-08-06T08:28:51Z,145554.78,NULL,Auftrag,uagizaji,s,ghanima,kuzingatia,msukani,NA,sdf,1,0,NA,NA,NA,NA,NA,NA,NA,NA,NA,NA,NA,NA,NA,NA,NA,NA,NA,NA,NA
ebbe2,"""Falsch""-Screen",canvas.Screen,3_0_0_0_2_1_2,NA,NA,skipped,NA,145544,NA,NA,145538.12,145545,2023-08-06T08:28:51Z,145554.78,NULL,Auftrag,uagizaji,s,ghanima,kuzingatia,msukani,NA,sdf,NA,0,NA,NA,NA,NA,NA,NA,NA,NA,NA,NA,NA,NA,NA,NA,NA,NA,NA,NA,NA
ebbe2,shallow,flow.Sequence,3_0_0_0_2_1,NA,NA,completion,10098.66,135428,135422.8,135439.46,145538.12,145545,2023-08-06T08:28:51Z,145554.78,NULL,Auftrag,uagizaji,s,ghanima,kuzingatia,msukani,NA,sdf,NA,0,NA,NA,NA,NA,NA,NA,NA,NA,NA,NA,NA,NA,NA,NA,NA,NA,NA,NA,NA
ebbe2,task,flow.Sequence,3_0_0_0_2,NA,NA,completion,10098.66,135427,135422.8,135439.46,145538.12,145546,2023-08-06T08:28:51Z,145554.78,NULL,Auftrag,uagizaji,s,ghanima,kuzingatia,msukani,NA,sdf,NA,0,NA,NA,NA,NA,NA,NA,NA,NA,NA,NA,NA,NA,NA,NA,NA,NA,NA,NA,NA
ebbe2,deep,flow.Sequence,3_0_0_0_3_0,NA,NA,skipped,NA,145546,NA,NA,145538.12,145546,2023-08-06T08:28:51Z,145554.78,NULL,Verpackung,ufungaji,s,uhusiano,upimaji,uchunguzi,NA,sdf,NA,0,NA,NA,NA,NA,NA,NA,NA,NA,NA,NA,NA,NA,NA,NA,NA,NA,NA,NA,NA
ebbe2,Shallow Question,html.Page,3_0_0_0_3_1_0,NA,NA,form submission,7816.22,145547,145538.12,145554.78,153371,153372,2023-08-06T08:28:59Z,153370.36,NULL,Verpackung,ufungaji,s,uhusiano,upimaji,uchunguzi,upimaji,NA,NA,0,NA,NA,NA,NA,NA,NA,NA,NA,NA,NA,NA,NA,NA,NA,NA,NA,NA,NA,NA
ebbe2,"""Richtig""-Screen",canvas.Screen,3_0_0_0_3_1_1,NA,NA,skipped,NA,153374,NA,NA,153371,153374,2023-08-06T08:28:59Z,153370.36,NULL,Verpackung,ufungaji,s,uhusiano,upimaji,uchunguzi,NA,sdf,NA,0,NA,NA,NA,NA,NA,NA,NA,NA,NA,NA,NA,NA,NA,NA,NA,NA,NA,NA,NA
ebbe2,"""Falsch""-Screen",canvas.Screen,3_0_0_0_3_1_2,NA,NA,timeout,4999.36,153377,153369.56,153370.36,158353.1,158354,2023-08-06T08:29:04Z,158369.72,NULL,Verpackung,ufungaji,s,uhusiano,upimaji,uchunguzi,NA,sdf,0,0,NA,NA,NA,NA,NA,NA,NA,NA,NA,NA,NA,NA,NA,NA,NA,NA,NA,NA,NA
ebbe2,shallow,flow.Sequence,3_0_0_0_3_1,NA,NA,completion,12798.32,145547,145538.12,145554.78,158353.1,158355,2023-08-06T08:29:04Z,158369.72,NULL,Verpackung,ufungaji,s,uhusiano,upimaji,uchunguzi,NA,sdf,NA,0,NA,NA,NA,NA,NA,NA,NA,NA,NA,NA,NA,NA,NA,NA,NA,NA,NA,NA,NA
ebbe2,task,flow.Sequence,3_0_0_0_3,NA,NA,completion,12798.32,145546,145538.12,145554.78,158353.1,158355,2023-08-06T08:29:04Z,158369.72,NULL,Verpackung,ufungaji,s,uhusiano,upimaji,uchunguzi,NA,sdf,NA,0,NA,NA,NA,NA,NA,NA,NA,NA,NA,NA,NA,NA,NA,NA,NA,NA,NA,NA,NA
ebbe2,Deep Question,html.Page,3_0_0_0_4_0_0,NA,NA,form submission,7548.28,158355,158353.1,158369.72,165918,165918,2023-08-06T08:29:12Z,165918.7,NULL,Schock,mshtuko,d,NA,NA,NA,ohachi,NA,NA,0,NA,NA,NA,NA,NA,NA,NA,NA,NA,NA,NA,NA,NA,NA,NA,NA,NA,NA,NA
ebbe2,"""Richtig""-Screen",canvas.Screen,3_0_0_0_4_0_1,NA,NA,skipped,NA,165921,NA,NA,165918,165921,2023-08-06T08:29:12Z,165918.7,NULL,Schock,mshtuko,d,NA,NA,NA,NA,sdf,NA,0,NA,NA,NA,NA,NA,NA,NA,NA,NA,NA,NA,NA,NA,NA,NA,NA,NA,NA,NA
ebbe2,"""Falsch""-Screen",canvas.Screen,3_0_0_0_4_0_2,NA,NA,timeout,4999.46,165924,165916.14,165918.7,170901.48,170903,2023-08-06T08:29:17Z,170918.16,NULL,Schock,mshtuko,d,NA,NA,NA,NA,sdf,0,0,NA,NA,NA,NA,NA,NA,NA,NA,NA,NA,NA,NA,NA,NA,NA,NA,NA,NA,NA
ebbe2,deep,flow.Sequence,3_0_0_0_4_0,NA,NA,completion,12531.76,158355,158353.1,158369.72,170901.48,170904,2023-08-06T08:29:17Z,170918.16,NULL,Schock,mshtuko,d,NA,NA,NA,NA,sdf,NA,0,NA,NA,NA,NA,NA,NA,NA,NA,NA,NA,NA,NA,NA,NA,NA,NA,NA,NA,NA
ebbe2,shallow,flow.Sequence,3_0_0_0_4_1,NA,NA,skipped,NA,170904,NA,NA,170901.48,170905,2023-08-06T08:29:17Z,170918.16,NULL,Schock,mshtuko,d,NA,NA,NA,NA,sdf,NA,0,NA,NA,NA,NA,NA,NA,NA,NA,NA,NA,NA,NA,NA,NA,NA,NA,NA,NA,NA
ebbe2,task,flow.Sequence,3_0_0_0_4,NA,NA,completion,12531.76,158355,158353.1,158369.72,170901.48,170905,2023-08-06T08:29:17Z,170918.16,NULL,Schock,mshtuko,d,NA,NA,NA,NA,sdf,NA,0,NA,NA,NA,NA,NA,NA,NA,NA,NA,NA,NA,NA,NA,NA,NA,NA,NA,NA,NA
ebbe2,deep,flow.Sequence,3_0_0_0_5_0,NA,NA,skipped,NA,170906,NA,NA,170901.48,170906,2023-08-06T08:29:17Z,170918.16,NULL,Wettbewerb,ushindani,s,mapendezi,kichocheo,ubaguzi,NA,sdf,NA,0,NA,NA,NA,NA,NA,NA,NA,NA,NA,NA,NA,NA,NA,NA,NA,NA,NA,NA,NA
ebbe2,Shallow Question,html.Page,3_0_0_0_5_1_0,NA,NA,form submission,7357.84,170907,170901.48,170918.16,178276,178277,2023-08-06T08:29:24Z,178275.08,NULL,Wettbewerb,ushindani,s,mapendezi,kichocheo,ubaguzi,ushindani,NA,NA,0,NA,NA,NA,NA,NA,NA,NA,NA,NA,NA,NA,NA,NA,NA,NA,NA,NA,NA,NA
ebbe2,"""Richtig""-Screen",canvas.Screen,3_0_0_0_5_1_1,NA,NA,timeout,5008.1,178278,178274.76,178275.08,183266.52,183269,2023-08-06T08:29:29Z,183283.18,NULL,Wettbewerb,ushindani,s,mapendezi,kichocheo,ubaguzi,NA,sdf,1,0,NA,NA,NA,NA,NA,NA,NA,NA,NA,NA,NA,NA,NA,NA,NA,NA,NA,NA,NA
ebbe2,"""Falsch""-Screen",canvas.Screen,3_0_0_0_5_1_2,NA,NA,skipped,NA,183275,NA,NA,183266.52,183276,2023-08-06T08:29:29Z,183283.18,NULL,Wettbewerb,ushindani,s,mapendezi,kichocheo,ubaguzi,NA,sdf,NA,0,NA,NA,NA,NA,NA,NA,NA,NA,NA,NA,NA,NA,NA,NA,NA,NA,NA,NA,NA
ebbe2,shallow,flow.Sequence,3_0_0_0_5_1,NA,NA,completion,12348.36,170907,170901.48,170918.16,183266.52,183277,2023-08-06T08:29:29Z,183283.18,NULL,Wettbewerb,ushindani,s,mapendezi,kichocheo,ubaguzi,NA,sdf,NA,0,NA,NA,NA,NA,NA,NA,NA,NA,NA,NA,NA,NA,NA,NA,NA,NA,NA,NA,NA
ebbe2,task,flow.Sequence,3_0_0_0_5,NA,NA,completion,12348.36,170906,170901.48,170918.16,183266.52,183277,2023-08-06T08:29:29Z,183283.18,NULL,Wettbewerb,ushindani,s,mapendezi,kichocheo,ubaguzi,NA,sdf,NA,0,NA,NA,NA,NA,NA,NA,NA,NA,NA,NA,NA,NA,NA,NA,NA,NA,NA,NA,NA
ebbe2,Deep Question,html.Page,3_0_0_0_6_0_0,NA,NA,form submission,5850.82,183278,183266.52,183283.18,189134,189134,2023-08-06T08:29:35Z,189149.1,NULL,Theorie,nadharia,d,NA,NA,NA,ushindani,NA,NA,0,NA,NA,NA,NA,NA,NA,NA,NA,NA,NA,NA,NA,NA,NA,NA,NA,NA,NA,NA
ebbe2,"""Richtig""-Screen",canvas.Screen,3_0_0_0_6_0_1,NA,NA,skipped,NA,189136,NA,NA,189134,189136,2023-08-06T08:29:35Z,189149.1,NULL,Theorie,nadharia,d,NA,NA,NA,NA,sdf,NA,0,NA,NA,NA,NA,NA,NA,NA,NA,NA,NA,NA,NA,NA,NA,NA,NA,NA,NA,NA
ebbe2,"""Falsch""-Screen",canvas.Screen,3_0_0_0_6_0_2,NA,NA,timeout,4999.34,189139,189133.18,189149.1,194131.78,194134,2023-08-06T08:29:40Z,194148.44,NULL,Theorie,nadharia,d,NA,NA,NA,NA,sdf,0,0,NA,NA,NA,NA,NA,NA,NA,NA,NA,NA,NA,NA,NA,NA,NA,NA,NA,NA,NA
ebbe2,deep,flow.Sequence,3_0_0_0_6_0,NA,NA,completion,10848.6,183278,183266.52,183283.18,194131.78,194134,2023-08-06T08:29:40Z,194148.44,NULL,Theorie,nadharia,d,NA,NA,NA,NA,sdf,NA,0,NA,NA,NA,NA,NA,NA,NA,NA,NA,NA,NA,NA,NA,NA,NA,NA,NA,NA,NA
ebbe2,shallow,flow.Sequence,3_0_0_0_6_1,NA,NA,skipped,NA,194134,NA,NA,194131.78,194134,2023-08-06T08:29:40Z,194148.44,NULL,Theorie,nadharia,d,NA,NA,NA,NA,sdf,NA,0,NA,NA,NA,NA,NA,NA,NA,NA,NA,NA,NA,NA,NA,NA,NA,NA,NA,NA,NA
ebbe2,task,flow.Sequence,3_0_0_0_6,NA,NA,completion,10848.6,183277,183266.52,183283.18,194131.78,194136,2023-08-06T08:29:40Z,194148.44,NULL,Theorie,nadharia,d,NA,NA,NA,NA,sdf,NA,0,NA,NA,NA,NA,NA,NA,NA,NA,NA,NA,NA,NA,NA,NA,NA,NA,NA,NA,NA
ebbe2,Deep Question,html.Page,3_0_0_0_7_0_0,NA,NA,form submission,5691.56,194136,194131.78,194148.44,199840,199841,2023-08-06T08:29:46Z,199847.64,NULL,Zufall,kikuti,d,NA,NA,NA,nadharia,NA,NA,0,NA,NA,NA,NA,NA,NA,NA,NA,NA,NA,NA,NA,NA,NA,NA,NA,NA,NA,NA
ebbe2,"""Richtig""-Screen",canvas.Screen,3_0_0_0_7_0_1,NA,NA,skipped,NA,199843,NA,NA,199840,199843,2023-08-06T08:29:46Z,199847.64,NULL,Zufall,kikuti,d,NA,NA,NA,NA,sdf,NA,0,NA,NA,NA,NA,NA,NA,NA,NA,NA,NA,NA,NA,NA,NA,NA,NA,NA,NA,NA
ebbe2,"""Falsch""-Screen",canvas.Screen,3_0_0_0_7_0_2,NA,NA,timeout,4999.4,199846,199839.28,199847.64,204830.38,204832,2023-08-06T08:29:51Z,204847.04,NULL,Zufall,kikuti,d,NA,NA,NA,NA,sdf,0,0,NA,NA,NA,NA,NA,NA,NA,NA,NA,NA,NA,NA,NA,NA,NA,NA,NA,NA,NA
ebbe2,deep,flow.Sequence,3_0_0_0_7_0,NA,NA,completion,10681.94,194136,194131.78,194148.44,204830.38,204832,2023-08-06T08:29:51Z,204847.04,NULL,Zufall,kikuti,d,NA,NA,NA,NA,sdf,NA,0,NA,NA,NA,NA,NA,NA,NA,NA,NA,NA,NA,NA,NA,NA,NA,NA,NA,NA,NA
ebbe2,shallow,flow.Sequence,3_0_0_0_7_1,NA,NA,skipped,NA,204833,NA,NA,204830.38,204833,2023-08-06T08:29:51Z,204847.04,NULL,Zufall,kikuti,d,NA,NA,NA,NA,sdf,NA,0,NA,NA,NA,NA,NA,NA,NA,NA,NA,NA,NA,NA,NA,NA,NA,NA,NA,NA,NA
ebbe2,task,flow.Sequence,3_0_0_0_7,NA,NA,completion,10681.94,194136,194131.78,194148.44,204830.38,204833,2023-08-06T08:29:51Z,204847.04,NULL,Zufall,kikuti,d,NA,NA,NA,NA,sdf,NA,0,NA,NA,NA,NA,NA,NA,NA,NA,NA,NA,NA,NA,NA,NA,NA,NA,NA,NA,NA
ebbe2,block,flow.Loop,3_0_0_0,NA,NA,completion,98344.94,106485,106485.1,106485.44,204830.38,204834,2023-08-06T08:29:51Z,204847.04,NULL,NA,NA,NA,NA,NA,NA,NA,sdf,NA,0,NA,NA,NA,NA,NA,NA,NA,NA,NA,NA,NA,NA,NA,NA,NA,NA,NA,NA,NA
ebbe2,weiter,canvas.Screen,3_0_0_1,sdf,keypress(Space),response,4319.96,204834,204830.38,204847.04,209167,209182,2023-08-06T08:29:55Z,209245.9,NULL,NA,NA,NA,NA,NA,NA,NA,sdf,NA,0,NA,NA,NA,NA,NA,NA,NA,NA,NA,NA,NA,NA,NA,NA,NA,NA,NA,NA,NA
ebbe2,check continue,flow.Sequence,3_0_0,NA,NA,completion,102681.56,106485,106485.1,106485.44,209167,209182,2023-08-06T08:29:55Z,209245.9,NULL,NA,NA,NA,NA,NA,NA,NA,sdf,NA,0,NA,NA,NA,NA,NA,NA,NA,NA,NA,NA,NA,NA,NA,NA,NA,NA,NA,NA,NA
ebbe2,Deep Question,html.Page,3_0_1_0_0_0_0,NA,NA,form submission,8748.1,209246,209245.6,209245.9,217994,217994,2023-08-06T08:30:04Z,217995.28,NULL,Schock,mshtuko,d,NA,NA,NA,mshkuri,NA,NA,1,NA,NA,NA,NA,NA,NA,NA,NA,NA,NA,NA,NA,NA,NA,NA,NA,NA,NA,NA
ebbe2,"""Richtig""-Screen",canvas.Screen,3_0_1_0_0_0_1,NA,NA,skipped,NA,217997,NA,NA,217994,217997,2023-08-06T08:30:04Z,217995.28,NULL,Schock,mshtuko,d,NA,NA,NA,NA,sdfdsf,NA,1,NA,NA,NA,NA,NA,NA,NA,NA,NA,NA,NA,NA,NA,NA,NA,NA,NA,NA,NA
ebbe2,"""Falsch""-Screen",canvas.Screen,3_0_1_0_0_0_2,NA,NA,timeout,4999.4,218000,217992.92,217995.28,222978.02,222984,2023-08-06T08:30:09Z,222994.68,NULL,Schock,mshtuko,d,NA,NA,NA,NA,sdfdsf,0,1,NA,NA,NA,NA,NA,NA,NA,NA,NA,NA,NA,NA,NA,NA,NA,NA,NA,NA,NA
ebbe2,deep,flow.Sequence,3_0_1_0_0_0,NA,NA,completion,13732.12,209246,209245.6,209245.9,222978.02,222986,2023-08-06T08:30:09Z,222994.68,NULL,Schock,mshtuko,d,NA,NA,NA,NA,sdfdsf,NA,1,NA,NA,NA,NA,NA,NA,NA,NA,NA,NA,NA,NA,NA,NA,NA,NA,NA,NA,NA
ebbe2,shallow,flow.Sequence,3_0_1_0_0_1,NA,NA,skipped,NA,222989,NA,NA,222978.02,222989,2023-08-06T08:30:09Z,222994.68,NULL,Schock,mshtuko,d,NA,NA,NA,NA,sdfdsf,NA,1,NA,NA,NA,NA,NA,NA,NA,NA,NA,NA,NA,NA,NA,NA,NA,NA,NA,NA,NA
ebbe2,task,flow.Sequence,3_0_1_0_0,NA,NA,completion,13732.12,209246,209245.6,209245.9,222978.02,222990,2023-08-06T08:30:09Z,222994.68,NULL,Schock,mshtuko,d,NA,NA,NA,NA,sdfdsf,NA,1,NA,NA,NA,NA,NA,NA,NA,NA,NA,NA,NA,NA,NA,NA,NA,NA,NA,NA,NA
ebbe2,deep,flow.Sequence,3_0_1_0_1_0,NA,NA,skipped,NA,222990,NA,NA,222978.02,222991,2023-08-06T08:30:09Z,222994.68,NULL,Verpackung,ufungaji,s,uhusiano,upimaji,uchunguzi,NA,sdfdsf,NA,1,NA,NA,NA,NA,NA,NA,NA,NA,NA,NA,NA,NA,NA,NA,NA,NA,NA,NA,NA
ebbe2,Shallow Question,html.Page,3_0_1_0_1_1_0,NA,NA,form submission,4787.32,222991,222978.02,222994.68,227782,227782,2023-08-06T08:30:14Z,227779.92,NULL,Verpackung,ufungaji,s,uhusiano,upimaji,uchunguzi,ufungaji,NA,NA,1,NA,NA,NA,NA,NA,NA,NA,NA,NA,NA,NA,NA,NA,NA,NA,NA,NA,NA,NA
ebbe2,"""Richtig""-Screen",canvas.Screen,3_0_1_0_1_1_1,NA,NA,timeout,4996.74,227788,227779.6,227779.92,232760,232761,2023-08-06T08:30:18Z,232776.66,NULL,Verpackung,ufungaji,s,uhusiano,upimaji,uchunguzi,NA,sdfdsf,1,1,NA,NA,NA,NA,NA,NA,NA,NA,NA,NA,NA,NA,NA,NA,NA,NA,NA,NA,NA
ebbe2,"""Falsch""-Screen",canvas.Screen,3_0_1_0_1_1_2,NA,NA,skipped,NA,232764,NA,NA,232760,232764,2023-08-06T08:30:19Z,232776.66,NULL,Verpackung,ufungaji,s,uhusiano,upimaji,uchunguzi,NA,sdfdsf,NA,1,NA,NA,NA,NA,NA,NA,NA,NA,NA,NA,NA,NA,NA,NA,NA,NA,NA,NA,NA
ebbe2,shallow,flow.Sequence,3_0_1_0_1_1,NA,NA,completion,9765.32,222991,222978.02,222994.68,232760,232764,2023-08-06T08:30:19Z,232776.66,NULL,Verpackung,ufungaji,s,uhusiano,upimaji,uchunguzi,NA,sdfdsf,NA,1,NA,NA,NA,NA,NA,NA,NA,NA,NA,NA,NA,NA,NA,NA,NA,NA,NA,NA,NA
ebbe2,task,flow.Sequence,3_0_1_0_1,NA,NA,completion,9765.32,222990,222978.02,222994.68,232760,232765,2023-08-06T08:30:19Z,232776.66,NULL,Verpackung,ufungaji,s,uhusiano,upimaji,uchunguzi,NA,sdfdsf,NA,1,NA,NA,NA,NA,NA,NA,NA,NA,NA,NA,NA,NA,NA,NA,NA,NA,NA,NA,NA
ebbe2,deep,flow.Sequence,3_0_1_0_2_0,NA,NA,skipped,NA,232765,NA,NA,232760,232765,2023-08-06T08:30:19Z,232776.66,NULL,Hoffnung,matarajio,s,kutaalamika,uratibu,mvumbuzi,NA,sdfdsf,NA,1,NA,NA,NA,NA,NA,NA,NA,NA,NA,NA,NA,NA,NA,NA,NA,NA,NA,NA,NA
ebbe2,Shallow Question,html.Page,3_0_1_0_2_1_0,NA,NA,form submission,10990.34,232766,232760,232776.66,243767,243767,2023-08-06T08:30:30Z,243765.9,NULL,Hoffnung,matarajio,s,kutaalamika,uratibu,mvumbuzi,uratibu,NA,NA,1,NA,NA,NA,NA,NA,NA,NA,NA,NA,NA,NA,NA,NA,NA,NA,NA,NA,NA,NA
ebbe2,"""Richtig""-Screen",canvas.Screen,3_0_1_0_2_1_1,NA,NA,skipped,NA,243770,NA,NA,243767,243770,2023-08-06T08:30:30Z,243765.9,NULL,Hoffnung,matarajio,s,kutaalamika,uratibu,mvumbuzi,NA,sdfdsf,NA,1,NA,NA,NA,NA,NA,NA,NA,NA,NA,NA,NA,NA,NA,NA,NA,NA,NA,NA,NA
ebbe2,"""Falsch""-Screen",canvas.Screen,3_0_1_0_2_1_2,NA,NA,timeout,4992.08,243772,243764.54,243765.9,248741.32,248743,2023-08-06T08:30:34Z,248757.98,NULL,Hoffnung,matarajio,s,kutaalamika,uratibu,mvumbuzi,NA,sdfdsf,0,1,NA,NA,NA,NA,NA,NA,NA,NA,NA,NA,NA,NA,NA,NA,NA,NA,NA,NA,NA
ebbe2,shallow,flow.Sequence,3_0_1_0_2_1,NA,NA,completion,15964.66,232765,232760,232776.66,248741.32,248744,2023-08-06T08:30:34Z,248757.98,NULL,Hoffnung,matarajio,s,kutaalamika,uratibu,mvumbuzi,NA,sdfdsf,NA,1,NA,NA,NA,NA,NA,NA,NA,NA,NA,NA,NA,NA,NA,NA,NA,NA,NA,NA,NA
ebbe2,task,flow.Sequence,3_0_1_0_2,NA,NA,completion,15964.66,232765,232760,232776.66,248741.32,248744,2023-08-06T08:30:34Z,248757.98,NULL,Hoffnung,matarajio,s,kutaalamika,uratibu,mvumbuzi,NA,sdfdsf,NA,1,NA,NA,NA,NA,NA,NA,NA,NA,NA,NA,NA,NA,NA,NA,NA,NA,NA,NA,NA
ebbe2,Deep Question,html.Page,3_0_1_0_3_0_0,NA,NA,form submission,6203.02,248745,248741.32,248757.98,254961,254961,2023-08-06T08:30:41Z,254959.34,NULL,Theorie,nadharia,d,NA,NA,NA,kinado,NA,NA,1,NA,NA,NA,NA,NA,NA,NA,NA,NA,NA,NA,NA,NA,NA,NA,NA,NA,NA,NA
ebbe2,"""Richtig""-Screen",canvas.Screen,3_0_1_0_3_0_1,NA,NA,skipped,NA,254963,NA,NA,254961,254964,2023-08-06T08:30:41Z,254959.34,NULL,Theorie,nadharia,d,NA,NA,NA,NA,sdfdsf,NA,1,NA,NA,NA,NA,NA,NA,NA,NA,NA,NA,NA,NA,NA,NA,NA,NA,NA,NA,NA
ebbe2,"""Falsch""-Screen",canvas.Screen,3_0_1_0_3_0_2,NA,NA,timeout,4997.18,254967,254959.08,254959.34,259939.86,259941,2023-08-06T08:30:46Z,259956.52,NULL,Theorie,nadharia,d,NA,NA,NA,NA,sdfdsf,0,1,NA,NA,NA,NA,NA,NA,NA,NA,NA,NA,NA,NA,NA,NA,NA,NA,NA,NA,NA
ebbe2,deep,flow.Sequence,3_0_1_0_3_0,NA,NA,completion,11181.88,248745,248741.32,248757.98,259939.86,259942,2023-08-06T08:30:46Z,259956.52,NULL,Theorie,nadharia,d,NA,NA,NA,NA,sdfdsf,NA,1,NA,NA,NA,NA,NA,NA,NA,NA,NA,NA,NA,NA,NA,NA,NA,NA,NA,NA,NA
ebbe2,shallow,flow.Sequence,3_0_1_0_3_1,NA,NA,skipped,NA,259942,NA,NA,259939.86,259943,2023-08-06T08:30:46Z,259956.52,NULL,Theorie,nadharia,d,NA,NA,NA,NA,sdfdsf,NA,1,NA,NA,NA,NA,NA,NA,NA,NA,NA,NA,NA,NA,NA,NA,NA,NA,NA,NA,NA
ebbe2,task,flow.Sequence,3_0_1_0_3,NA,NA,completion,11181.88,248745,248741.32,248757.98,259939.86,259943,2023-08-06T08:30:46Z,259956.52,NULL,Theorie,nadharia,d,NA,NA,NA,NA,sdfdsf,NA,1,NA,NA,NA,NA,NA,NA,NA,NA,NA,NA,NA,NA,NA,NA,NA,NA,NA,NA,NA
ebbe2,deep,flow.Sequence,3_0_1_0_4_0,NA,NA,skipped,NA,259943,NA,NA,259939.86,259944,2023-08-06T08:30:46Z,259956.52,NULL,Wettbewerb,ushindani,s,mapendezi,kichocheo,ubaguzi,NA,sdfdsf,NA,1,NA,NA,NA,NA,NA,NA,NA,NA,NA,NA,NA,NA,NA,NA,NA,NA,NA,NA,NA
ebbe2,Shallow Question,html.Page,3_0_1_0_4_1_0,NA,NA,form submission,11263.48,259944,259939.86,259956.52,271220,271220,2023-08-06T08:30:57Z,271221.72,NULL,Wettbewerb,ushindani,s,mapendezi,kichocheo,ubaguzi,ushindani,NA,NA,1,NA,NA,NA,NA,NA,NA,NA,NA,NA,NA,NA,NA,NA,NA,NA,NA,NA,NA,NA
ebbe2,"""Richtig""-Screen",canvas.Screen,3_0_1_0_4_1_1,NA,NA,timeout,4999.38,271223,271218.7,271221.72,276204.44,276206,2023-08-06T08:31:02Z,276221.1,NULL,Wettbewerb,ushindani,s,mapendezi,kichocheo,ubaguzi,NA,sdfdsf,1,1,NA,NA,NA,NA,NA,NA,NA,NA,NA,NA,NA,NA,NA,NA,NA,NA,NA,NA,NA
ebbe2,"""Falsch""-Screen",canvas.Screen,3_0_1_0_4_1_2,NA,NA,skipped,NA,276214,NA,NA,276204.44,276214,2023-08-06T08:31:02Z,276221.1,NULL,Wettbewerb,ushindani,s,mapendezi,kichocheo,ubaguzi,NA,sdfdsf,NA,1,NA,NA,NA,NA,NA,NA,NA,NA,NA,NA,NA,NA,NA,NA,NA,NA,NA,NA,NA
ebbe2,shallow,flow.Sequence,3_0_1_0_4_1,NA,NA,completion,16247.92,259944,259939.86,259956.52,276204.44,276214,2023-08-06T08:31:02Z,276221.1,NULL,Wettbewerb,ushindani,s,mapendezi,kichocheo,ubaguzi,NA,sdfdsf,NA,1,NA,NA,NA,NA,NA,NA,NA,NA,NA,NA,NA,NA,NA,NA,NA,NA,NA,NA,NA
ebbe2,task,flow.Sequence,3_0_1_0_4,NA,NA,completion,16247.92,259943,259939.86,259956.52,276204.44,276215,2023-08-06T08:31:02Z,276221.1,NULL,Wettbewerb,ushindani,s,mapendezi,kichocheo,ubaguzi,NA,sdfdsf,NA,1,NA,NA,NA,NA,NA,NA,NA,NA,NA,NA,NA,NA,NA,NA,NA,NA,NA,NA,NA
ebbe2,deep,flow.Sequence,3_0_1_0_5_0,NA,NA,skipped,NA,276216,NA,NA,276204.44,276216,2023-08-06T08:31:02Z,276221.1,NULL,Auftrag,uagizaji,s,ghanima,kuzingatia,msukani,NA,sdfdsf,NA,1,NA,NA,NA,NA,NA,NA,NA,NA,NA,NA,NA,NA,NA,NA,NA,NA,NA,NA,NA
ebbe2,Shallow Question,html.Page,3_0_1_0_5_1_0,NA,NA,form submission,5030.9,276216,276204.44,276221.1,281252,281253,2023-08-06T08:31:07Z,281253.76,NULL,Auftrag,uagizaji,s,ghanima,kuzingatia,msukani,uagizaji,NA,NA,1,NA,NA,NA,NA,NA,NA,NA,NA,NA,NA,NA,NA,NA,NA,NA,NA,NA,NA,NA
ebbe2,"""Richtig""-Screen",canvas.Screen,3_0_1_0_5_1_1,NA,NA,timeout,4999.36,281260,281249.84,281253.76,286236.46,286239,2023-08-06T08:31:12Z,286253.12,NULL,Auftrag,uagizaji,s,ghanima,kuzingatia,msukani,NA,sdfdsf,1,1,NA,NA,NA,NA,NA,NA,NA,NA,NA,NA,NA,NA,NA,NA,NA,NA,NA,NA,NA
ebbe2,"""Falsch""-Screen",canvas.Screen,3_0_1_0_5_1_2,NA,NA,skipped,NA,286244,NA,NA,286236.46,286245,2023-08-06T08:31:12Z,286253.12,NULL,Auftrag,uagizaji,s,ghanima,kuzingatia,msukani,NA,sdfdsf,NA,1,NA,NA,NA,NA,NA,NA,NA,NA,NA,NA,NA,NA,NA,NA,NA,NA,NA,NA,NA
ebbe2,shallow,flow.Sequence,3_0_1_0_5_1,NA,NA,completion,10015.36,276216,276204.44,276221.1,286236.46,286245,2023-08-06T08:31:12Z,286253.12,NULL,Auftrag,uagizaji,s,ghanima,kuzingatia,msukani,NA,sdfdsf,NA,1,NA,NA,NA,NA,NA,NA,NA,NA,NA,NA,NA,NA,NA,NA,NA,NA,NA,NA,NA
ebbe2,task,flow.Sequence,3_0_1_0_5,NA,NA,completion,10015.36,276215,276204.44,276221.1,286236.46,286247,2023-08-06T08:31:12Z,286253.12,NULL,Auftrag,uagizaji,s,ghanima,kuzingatia,msukani,NA,sdfdsf,NA,1,NA,NA,NA,NA,NA,NA,NA,NA,NA,NA,NA,NA,NA,NA,NA,NA,NA,NA,NA
ebbe2,Deep Question,html.Page,3_0_1_0_6_0_0,NA,NA,form submission,8779.88,286247,286236.46,286253.12,295033,295034,2023-08-06T08:31:21Z,295035.32,NULL,Schönheit,kirembo,d,NA,NA,NA,mshkito,NA,NA,1,NA,NA,NA,NA,NA,NA,NA,NA,NA,NA,NA,NA,NA,NA,NA,NA,NA,NA,NA
ebbe2,"""Richtig""-Screen",canvas.Screen,3_0_1_0_6_0_1,NA,NA,skipped,NA,295037,NA,NA,295033,295038,2023-08-06T08:31:21Z,295035.32,NULL,Schönheit,kirembo,d,NA,NA,NA,NA,sdfdsf,NA,1,NA,NA,NA,NA,NA,NA,NA,NA,NA,NA,NA,NA,NA,NA,NA,NA,NA,NA,NA
ebbe2,"""Falsch""-Screen",canvas.Screen,3_0_1_0_6_0_2,NA,NA,timeout,4999.32,295041,295032.68,295035.32,300017.98,300019,2023-08-06T08:31:26Z,300034.64,NULL,Schönheit,kirembo,d,NA,NA,NA,NA,sdfdsf,0,1,NA,NA,NA,NA,NA,NA,NA,NA,NA,NA,NA,NA,NA,NA,NA,NA,NA,NA,NA
ebbe2,deep,flow.Sequence,3_0_1_0_6_0,NA,NA,completion,13764.86,286247,286236.46,286253.12,300017.98,300020,2023-08-06T08:31:26Z,300034.64,NULL,Schönheit,kirembo,d,NA,NA,NA,NA,sdfdsf,NA,1,NA,NA,NA,NA,NA,NA,NA,NA,NA,NA,NA,NA,NA,NA,NA,NA,NA,NA,NA
ebbe2,shallow,flow.Sequence,3_0_1_0_6_1,NA,NA,skipped,NA,300021,NA,NA,300017.98,300021,2023-08-06T08:31:26Z,300034.64,NULL,Schönheit,kirembo,d,NA,NA,NA,NA,sdfdsf,NA,1,NA,NA,NA,NA,NA,NA,NA,NA,NA,NA,NA,NA,NA,NA,NA,NA,NA,NA,NA
ebbe2,task,flow.Sequence,3_0_1_0_6,NA,NA,completion,13764.86,286247,286236.46,286253.12,300017.98,300023,2023-08-06T08:31:26Z,300034.64,NULL,Schönheit,kirembo,d,NA,NA,NA,NA,sdfdsf,NA,1,NA,NA,NA,NA,NA,NA,NA,NA,NA,NA,NA,NA,NA,NA,NA,NA,NA,NA,NA
ebbe2,Deep Question,html.Page,3_0_1_0_7_0_0,NA,NA,form submission,5958.36,300024,300017.98,300034.64,305993,305994,2023-08-06T08:31:32Z,306000.5,NULL,Zufall,kikuti,d,NA,NA,NA,mshkito,NA,NA,1,NA,NA,NA,NA,NA,NA,NA,NA,NA,NA,NA,NA,NA,NA,NA,NA,NA,NA,NA
ebbe2,"""Richtig""-Screen",canvas.Screen,3_0_1_0_7_0_1,NA,NA,skipped,NA,305997,NA,NA,305993,305997,2023-08-06T08:31:32Z,306000.5,NULL,Zufall,kikuti,d,NA,NA,NA,NA,sdfdsf,NA,1,NA,NA,NA,NA,NA,NA,NA,NA,NA,NA,NA,NA,NA,NA,NA,NA,NA,NA,NA
ebbe2,"""Falsch""-Screen",canvas.Screen,3_0_1_0_7_0_2,NA,NA,timeout,4999.32,306000,305992.46,306000.5,310983.16,310985,2023-08-06T08:31:37Z,310999.82,NULL,Zufall,kikuti,d,NA,NA,NA,NA,sdfdsf,0,1,NA,NA,NA,NA,NA,NA,NA,NA,NA,NA,NA,NA,NA,NA,NA,NA,NA,NA,NA
ebbe2,deep,flow.Sequence,3_0_1_0_7_0,NA,NA,completion,10948.52,300023,300017.98,300034.64,310983.16,310985,2023-08-06T08:31:37Z,310999.82,NULL,Zufall,kikuti,d,NA,NA,NA,NA,sdfdsf,NA,1,NA,NA,NA,NA,NA,NA,NA,NA,NA,NA,NA,NA,NA,NA,NA,NA,NA,NA,NA
ebbe2,shallow,flow.Sequence,3_0_1_0_7_1,NA,NA,skipped,NA,310986,NA,NA,310983.16,310986,2023-08-06T08:31:37Z,310999.82,NULL,Zufall,kikuti,d,NA,NA,NA,NA,sdfdsf,NA,1,NA,NA,NA,NA,NA,NA,NA,NA,NA,NA,NA,NA,NA,NA,NA,NA,NA,NA,NA
ebbe2,task,flow.Sequence,3_0_1_0_7,NA,NA,completion,10948.52,300023,300017.98,300034.64,310983.16,310986,2023-08-06T08:31:37Z,310999.82,NULL,Zufall,kikuti,d,NA,NA,NA,NA,sdfdsf,NA,1,NA,NA,NA,NA,NA,NA,NA,NA,NA,NA,NA,NA,NA,NA,NA,NA,NA,NA,NA
ebbe2,block,flow.Loop,3_0_1_0,NA,NA,completion,101737.26,209246,209245.6,209245.9,310983.16,310987,2023-08-06T08:31:37Z,310999.82,NULL,NA,NA,NA,NA,NA,NA,NA,sdfdsf,NA,1,NA,NA,NA,NA,NA,NA,NA,NA,NA,NA,NA,NA,NA,NA,NA,NA,NA,NA,NA
ebbe2,weiter,canvas.Screen,3_0_1_1,sdf,keypress(Space),response,933.17999999999,310988,310983.16,310999.82,311933,311948,2023-08-06T08:31:38Z,312002.9,NULL,NA,NA,NA,NA,NA,NA,NA,sdfdsf,NA,1,NA,NA,NA,NA,NA,NA,NA,NA,NA,NA,NA,NA,NA,NA,NA,NA,NA,NA,NA
ebbe2,check continue,flow.Sequence,3_0_1,NA,NA,completion,102687.1,209245,209245.6,209245.9,311933,311949,2023-08-06T08:31:38Z,312002.9,NULL,NA,NA,NA,NA,NA,NA,NA,sdfdsf,NA,1,NA,NA,NA,NA,NA,NA,NA,NA,NA,NA,NA,NA,NA,NA,NA,NA,NA,NA,NA
ebbe2,Deep Question,html.Page,3_0_2_0_0_0_0,NA,NA,form submission,14040.1,312003,312002.54,312002.9,326043,326043,2023-08-06T08:31:52Z,326047.86,NULL,Schock,mshtuko,d,NA,NA,NA,kiremba,NA,NA,2,NA,NA,NA,NA,NA,NA,NA,NA,NA,NA,NA,NA,NA,NA,NA,NA,NA,NA,NA
ebbe2,"""Richtig""-Screen",canvas.Screen,3_0_2_0_0_0_1,NA,NA,skipped,NA,326046,NA,NA,326043,326046,2023-08-06T08:31:52Z,326047.86,NULL,Schock,mshtuko,d,NA,NA,NA,NA,sdf,NA,2,NA,NA,NA,NA,NA,NA,NA,NA,NA,NA,NA,NA,NA,NA,NA,NA,NA,NA,NA
ebbe2,"""Falsch""-Screen",canvas.Screen,3_0_2_0_0_0_2,NA,NA,timeout,4999.44,326048,326042.52,326047.86,331030.64,331032,2023-08-06T08:31:57Z,331047.3,NULL,Schock,mshtuko,d,NA,NA,NA,NA,sdf,0,2,NA,NA,NA,NA,NA,NA,NA,NA,NA,NA,NA,NA,NA,NA,NA,NA,NA,NA,NA
ebbe2,deep,flow.Sequence,3_0_2_0_0_0,NA,NA,completion,19027.74,312003,312002.54,312002.9,331030.64,331032,2023-08-06T08:31:57Z,331047.3,NULL,Schock,mshtuko,d,NA,NA,NA,NA,sdf,NA,2,NA,NA,NA,NA,NA,NA,NA,NA,NA,NA,NA,NA,NA,NA,NA,NA,NA,NA,NA
ebbe2,shallow,flow.Sequence,3_0_2_0_0_1,NA,NA,skipped,NA,331033,NA,NA,331030.64,331033,2023-08-06T08:31:57Z,331047.3,NULL,Schock,mshtuko,d,NA,NA,NA,NA,sdf,NA,2,NA,NA,NA,NA,NA,NA,NA,NA,NA,NA,NA,NA,NA,NA,NA,NA,NA,NA,NA
ebbe2,task,flow.Sequence,3_0_2_0_0,NA,NA,completion,19027.74,312003,312002.54,312002.9,331030.64,331034,2023-08-06T08:31:57Z,331047.3,NULL,Schock,mshtuko,d,NA,NA,NA,NA,sdf,NA,2,NA,NA,NA,NA,NA,NA,NA,NA,NA,NA,NA,NA,NA,NA,NA,NA,NA,NA,NA
ebbe2,Deep Question,html.Page,3_0_2_0_1_0_0,NA,NA,form submission,3621.7,331034,331030.64,331047.3,334669,334670,2023-08-06T08:32:00Z,334680.06,NULL,Schönheit,kirembo,d,NA,NA,NA,kiremba,NA,NA,2,NA,NA,NA,NA,NA,NA,NA,NA,NA,NA,NA,NA,NA,NA,NA,NA,NA,NA,NA
ebbe2,"""Richtig""-Screen",canvas.Screen,3_0_2_0_1_0_1,NA,NA,skipped,NA,334672,NA,NA,334669,334672,2023-08-06T08:32:00Z,334680.06,NULL,Schönheit,kirembo,d,NA,NA,NA,NA,sdf,NA,2,NA,NA,NA,NA,NA,NA,NA,NA,NA,NA,NA,NA,NA,NA,NA,NA,NA,NA,NA
ebbe2,"""Falsch""-Screen",canvas.Screen,3_0_2_0_1_0_2,NA,NA,timeout,4999.36,334674,334667.8,334680.06,339662.76,339664,2023-08-06T08:32:05Z,339679.42,NULL,Schönheit,kirembo,d,NA,NA,NA,NA,sdf,0,2,NA,NA,NA,NA,NA,NA,NA,NA,NA,NA,NA,NA,NA,NA,NA,NA,NA,NA,NA
ebbe2,deep,flow.Sequence,3_0_2_0_1_0,NA,NA,completion,8615.46,331034,331030.64,331047.3,339662.76,339665,2023-08-06T08:32:05Z,339679.42,NULL,Schönheit,kirembo,d,NA,NA,NA,NA,sdf,NA,2,NA,NA,NA,NA,NA,NA,NA,NA,NA,NA,NA,NA,NA,NA,NA,NA,NA,NA,NA
ebbe2,shallow,flow.Sequence,3_0_2_0_1_1,NA,NA,skipped,NA,339666,NA,NA,339662.76,339666,2023-08-06T08:32:05Z,339679.42,NULL,Schönheit,kirembo,d,NA,NA,NA,NA,sdf,NA,2,NA,NA,NA,NA,NA,NA,NA,NA,NA,NA,NA,NA,NA,NA,NA,NA,NA,NA,NA
ebbe2,task,flow.Sequence,3_0_2_0_1,NA,NA,completion,8615.46,331034,331030.64,331047.3,339662.76,339666,2023-08-06T08:32:05Z,339679.42,NULL,Schönheit,kirembo,d,NA,NA,NA,NA,sdf,NA,2,NA,NA,NA,NA,NA,NA,NA,NA,NA,NA,NA,NA,NA,NA,NA,NA,NA,NA,NA
ebbe2,deep,flow.Sequence,3_0_2_0_2_0,NA,NA,skipped,NA,339666,NA,NA,339662.76,339667,2023-08-06T08:32:05Z,339679.42,NULL,Wettbewerb,ushindani,s,mapendezi,kichocheo,ubaguzi,NA,sdf,NA,2,NA,NA,NA,NA,NA,NA,NA,NA,NA,NA,NA,NA,NA,NA,NA,NA,NA,NA,NA
ebbe2,Shallow Question,html.Page,3_0_2_0_2_1_0,NA,NA,form submission,5795.58,339667,339662.76,339679.42,345475,345476,2023-08-06T08:32:11Z,345495.4,NULL,Wettbewerb,ushindani,s,mapendezi,kichocheo,ubaguzi,ubaguzi,NA,NA,2,NA,NA,NA,NA,NA,NA,NA,NA,NA,NA,NA,NA,NA,NA,NA,NA,NA,NA,NA
ebbe2,"""Richtig""-Screen",canvas.Screen,3_0_2_0_2_1_1,NA,NA,skipped,NA,345478,NA,NA,345475,345478,2023-08-06T08:32:11Z,345495.4,NULL,Wettbewerb,ushindani,s,mapendezi,kichocheo,ubaguzi,NA,sdf,NA,2,NA,NA,NA,NA,NA,NA,NA,NA,NA,NA,NA,NA,NA,NA,NA,NA,NA,NA,NA
ebbe2,"""Falsch""-Screen",canvas.Screen,3_0_2_0_2_1_2,NA,NA,timeout,5002.74,345481,345478.74,345495.4,350478.14,350480,2023-08-06T08:32:16Z,350498.14,NULL,Wettbewerb,ushindani,s,mapendezi,kichocheo,ubaguzi,NA,sdf,0,2,NA,NA,NA,NA,NA,NA,NA,NA,NA,NA,NA,NA,NA,NA,NA,NA,NA,NA,NA
ebbe2,shallow,flow.Sequence,3_0_2_0_2_1,NA,NA,completion,10798.72,339667,339662.76,339679.42,350478.14,350481,2023-08-06T08:32:16Z,350498.14,NULL,Wettbewerb,ushindani,s,mapendezi,kichocheo,ubaguzi,NA,sdf,NA,2,NA,NA,NA,NA,NA,NA,NA,NA,NA,NA,NA,NA,NA,NA,NA,NA,NA,NA,NA
ebbe2,task,flow.Sequence,3_0_2_0_2,NA,NA,completion,10798.72,339666,339662.76,339679.42,350478.14,350481,2023-08-06T08:32:16Z,350498.14,NULL,Wettbewerb,ushindani,s,mapendezi,kichocheo,ubaguzi,NA,sdf,NA,2,NA,NA,NA,NA,NA,NA,NA,NA,NA,NA,NA,NA,NA,NA,NA,NA,NA,NA,NA
ebbe2,deep,flow.Sequence,3_0_2_0_3_0,NA,NA,skipped,NA,350481,NA,NA,350478.14,350482,2023-08-06T08:32:16Z,350498.14,NULL,Verpackung,ufungaji,s,uhusiano,upimaji,uchunguzi,NA,sdf,NA,2,NA,NA,NA,NA,NA,NA,NA,NA,NA,NA,NA,NA,NA,NA,NA,NA,NA,NA,NA
ebbe2,Shallow Question,html.Page,3_0_2_0_3_1_0,NA,NA,form submission,4703.86,350482,350478.14,350498.14,355202,355203,2023-08-06T08:32:21Z,355202.12,NULL,Verpackung,ufungaji,s,uhusiano,upimaji,uchunguzi,ufungaji,NA,NA,2,NA,NA,NA,NA,NA,NA,NA,NA,NA,NA,NA,NA,NA,NA,NA,NA,NA,NA,NA
ebbe2,"""Richtig""-Screen",canvas.Screen,3_0_2_0_3_1_1,NA,NA,timeout,5007.98,355205,355201.66,355202.12,360193.44,360195,2023-08-06T08:32:26Z,360210.1,NULL,Verpackung,ufungaji,s,uhusiano,upimaji,uchunguzi,NA,sdf,1,2,NA,NA,NA,NA,NA,NA,NA,NA,NA,NA,NA,NA,NA,NA,NA,NA,NA,NA,NA
ebbe2,"""Falsch""-Screen",canvas.Screen,3_0_2_0_3_1_2,NA,NA,skipped,NA,360200,NA,NA,360193.44,360200,2023-08-06T08:32:26Z,360210.1,NULL,Verpackung,ufungaji,s,uhusiano,upimaji,uchunguzi,NA,sdf,NA,2,NA,NA,NA,NA,NA,NA,NA,NA,NA,NA,NA,NA,NA,NA,NA,NA,NA,NA,NA
ebbe2,shallow,flow.Sequence,3_0_2_0_3_1,NA,NA,completion,9695.3,350482,350478.14,350498.14,360193.44,360201,2023-08-06T08:32:26Z,360210.1,NULL,Verpackung,ufungaji,s,uhusiano,upimaji,uchunguzi,NA,sdf,NA,2,NA,NA,NA,NA,NA,NA,NA,NA,NA,NA,NA,NA,NA,NA,NA,NA,NA,NA,NA
ebbe2,task,flow.Sequence,3_0_2_0_3,NA,NA,completion,9695.3,350481,350478.14,350498.14,360193.44,360201,2023-08-06T08:32:26Z,360210.1,NULL,Verpackung,ufungaji,s,uhusiano,upimaji,uchunguzi,NA,sdf,NA,2,NA,NA,NA,NA,NA,NA,NA,NA,NA,NA,NA,NA,NA,NA,NA,NA,NA,NA,NA
ebbe2,Deep Question,html.Page,3_0_2_0_4_0_0,NA,NA,form submission,5951.9,360201,360193.44,360210.1,366162,366162,2023-08-06T08:32:32Z,366161.4,NULL,Zufall,kikuti,d,NA,NA,NA,kitaki,NA,NA,2,NA,NA,NA,NA,NA,NA,NA,NA,NA,NA,NA,NA,NA,NA,NA,NA,NA,NA,NA
ebbe2,"""Richtig""-Screen",canvas.Screen,3_0_2_0_4_0_1,NA,NA,skipped,NA,366164,NA,NA,366162,366165,2023-08-06T08:32:32Z,366161.4,NULL,Zufall,kikuti,d,NA,NA,NA,NA,sdf,NA,2,NA,NA,NA,NA,NA,NA,NA,NA,NA,NA,NA,NA,NA,NA,NA,NA,NA,NA,NA
ebbe2,"""Falsch""-Screen",canvas.Screen,3_0_2_0_4_0_2,NA,NA,timeout,4997.34,366167,366161.1,366161.4,371142.08,371145,2023-08-06T08:32:37Z,371158.74,NULL,Zufall,kikuti,d,NA,NA,NA,NA,sdf,0,2,NA,NA,NA,NA,NA,NA,NA,NA,NA,NA,NA,NA,NA,NA,NA,NA,NA,NA,NA
ebbe2,deep,flow.Sequence,3_0_2_0_4_0,NA,NA,completion,10931.98,360201,360193.44,360210.1,371142.08,371146,2023-08-06T08:32:37Z,371158.74,NULL,Zufall,kikuti,d,NA,NA,NA,NA,sdf,NA,2,NA,NA,NA,NA,NA,NA,NA,NA,NA,NA,NA,NA,NA,NA,NA,NA,NA,NA,NA
ebbe2,shallow,flow.Sequence,3_0_2_0_4_1,NA,NA,skipped,NA,371146,NA,NA,371142.08,371147,2023-08-06T08:32:37Z,371158.74,NULL,Zufall,kikuti,d,NA,NA,NA,NA,sdf,NA,2,NA,NA,NA,NA,NA,NA,NA,NA,NA,NA,NA,NA,NA,NA,NA,NA,NA,NA,NA
ebbe2,task,flow.Sequence,3_0_2_0_4,NA,NA,completion,10931.98,360201,360193.44,360210.1,371142.08,371148,2023-08-06T08:32:37Z,371158.74,NULL,Zufall,kikuti,d,NA,NA,NA,NA,sdf,NA,2,NA,NA,NA,NA,NA,NA,NA,NA,NA,NA,NA,NA,NA,NA,NA,NA,NA,NA,NA
ebbe2,deep,flow.Sequence,3_0_2_0_5_0,NA,NA,skipped,NA,371148,NA,NA,371142.08,371148,2023-08-06T08:32:37Z,371158.74,NULL,Hoffnung,matarajio,s,kutaalamika,uratibu,mvumbuzi,NA,sdf,NA,2,NA,NA,NA,NA,NA,NA,NA,NA,NA,NA,NA,NA,NA,NA,NA,NA,NA,NA,NA
ebbe2,Shallow Question,html.Page,3_0_2_0_5_1_0,NA,NA,form submission,11792.26,371149,371142.08,371158.74,382951,382952,2023-08-06T08:32:49Z,382957.2,NULL,Hoffnung,matarajio,s,kutaalamika,uratibu,mvumbuzi,matarajio,NA,NA,2,NA,NA,NA,NA,NA,NA,NA,NA,NA,NA,NA,NA,NA,NA,NA,NA,NA,NA,NA
ebbe2,"""Richtig""-Screen",canvas.Screen,3_0_2_0_5_1_1,NA,NA,timeout,4999.3,382958,382949.1,382957.2,387939.84,387940,2023-08-06T08:32:54Z,387956.5,NULL,Hoffnung,matarajio,s,kutaalamika,uratibu,mvumbuzi,NA,sdf,1,2,NA,NA,NA,NA,NA,NA,NA,NA,NA,NA,NA,NA,NA,NA,NA,NA,NA,NA,NA
ebbe2,"""Falsch""-Screen",canvas.Screen,3_0_2_0_5_1_2,NA,NA,skipped,NA,387944,NA,NA,387939.84,387944,2023-08-06T08:32:54Z,387956.5,NULL,Hoffnung,matarajio,s,kutaalamika,uratibu,mvumbuzi,NA,sdf,NA,2,NA,NA,NA,NA,NA,NA,NA,NA,NA,NA,NA,NA,NA,NA,NA,NA,NA,NA,NA
ebbe2,shallow,flow.Sequence,3_0_2_0_5_1,NA,NA,completion,16781.1,371148,371142.08,371158.74,387939.84,387945,2023-08-06T08:32:54Z,387956.5,NULL,Hoffnung,matarajio,s,kutaalamika,uratibu,mvumbuzi,NA,sdf,NA,2,NA,NA,NA,NA,NA,NA,NA,NA,NA,NA,NA,NA,NA,NA,NA,NA,NA,NA,NA
ebbe2,task,flow.Sequence,3_0_2_0_5,NA,NA,completion,16781.1,371148,371142.08,371158.74,387939.84,387945,2023-08-06T08:32:54Z,387956.5,NULL,Hoffnung,matarajio,s,kutaalamika,uratibu,mvumbuzi,NA,sdf,NA,2,NA,NA,NA,NA,NA,NA,NA,NA,NA,NA,NA,NA,NA,NA,NA,NA,NA,NA,NA
ebbe2,deep,flow.Sequence,3_0_2_0_6_0,NA,NA,skipped,NA,387945,NA,NA,387939.84,387946,2023-08-06T08:32:54Z,387956.5,NULL,Auftrag,uagizaji,s,ghanima,kuzingatia,msukani,NA,sdf,NA,2,NA,NA,NA,NA,NA,NA,NA,NA,NA,NA,NA,NA,NA,NA,NA,NA,NA,NA,NA
ebbe2,Shallow Question,html.Page,3_0_2_0_6_1_0,NA,NA,form submission,4544.5,387946,387939.84,387956.5,392501,392501,2023-08-06T08:32:58Z,392505.92,NULL,Auftrag,uagizaji,s,ghanima,kuzingatia,msukani,uagizaji,NA,NA,2,NA,NA,NA,NA,NA,NA,NA,NA,NA,NA,NA,NA,NA,NA,NA,NA,NA,NA,NA
ebbe2,"""Richtig""-Screen",canvas.Screen,3_0_2_0_6_1_1,NA,NA,timeout,4999.42,392504,392499.62,392505.92,397488.68,397491,2023-08-06T08:33:03Z,397505.34,NULL,Auftrag,uagizaji,s,ghanima,kuzingatia,msukani,NA,sdf,1,2,NA,NA,NA,NA,NA,NA,NA,NA,NA,NA,NA,NA,NA,NA,NA,NA,NA,NA,NA
ebbe2,"""Falsch""-Screen",canvas.Screen,3_0_2_0_6_1_2,NA,NA,skipped,NA,397498,NA,NA,397488.68,397498,2023-08-06T08:33:03Z,397505.34,NULL,Auftrag,uagizaji,s,ghanima,kuzingatia,msukani,NA,sdf,NA,2,NA,NA,NA,NA,NA,NA,NA,NA,NA,NA,NA,NA,NA,NA,NA,NA,NA,NA,NA
ebbe2,shallow,flow.Sequence,3_0_2_0_6_1,NA,NA,completion,9532.18,387946,387939.84,387956.5,397488.68,397500,2023-08-06T08:33:03Z,397505.34,NULL,Auftrag,uagizaji,s,ghanima,kuzingatia,msukani,NA,sdf,NA,2,NA,NA,NA,NA,NA,NA,NA,NA,NA,NA,NA,NA,NA,NA,NA,NA,NA,NA,NA
ebbe2,task,flow.Sequence,3_0_2_0_6,NA,NA,completion,9532.18,387945,387939.84,387956.5,397488.68,397500,2023-08-06T08:33:03Z,397505.34,NULL,Auftrag,uagizaji,s,ghanima,kuzingatia,msukani,NA,sdf,NA,2,NA,NA,NA,NA,NA,NA,NA,NA,NA,NA,NA,NA,NA,NA,NA,NA,NA,NA,NA
ebbe2,Deep Question,html.Page,3_0_2_0_7_0_0,NA,NA,form submission,6318.66,397501,397488.68,397505.34,403824,403825,2023-08-06T08:33:10Z,403837.78,NULL,Theorie,nadharia,d,NA,NA,NA,mshkuto,NA,NA,2,NA,NA,NA,NA,NA,NA,NA,NA,NA,NA,NA,NA,NA,NA,NA,NA,NA,NA,NA
ebbe2,"""Richtig""-Screen",canvas.Screen,3_0_2_0_7_0_1,NA,NA,skipped,NA,403827,NA,NA,403824,403827,2023-08-06T08:33:10Z,403837.78,NULL,Theorie,nadharia,d,NA,NA,NA,NA,sdf,NA,2,NA,NA,NA,NA,NA,NA,NA,NA,NA,NA,NA,NA,NA,NA,NA,NA,NA,NA,NA
ebbe2,"""Falsch""-Screen",canvas.Screen,3_0_2_0_7_0_2,NA,NA,timeout,4999.34,403830,403823.3,403837.78,408820.48,408822,2023-08-06T08:33:15Z,408837.12,NULL,Theorie,nadharia,d,NA,NA,NA,NA,sdf,0,2,NA,NA,NA,NA,NA,NA,NA,NA,NA,NA,NA,NA,NA,NA,NA,NA,NA,NA,NA
ebbe2,deep,flow.Sequence,3_0_2_0_7_0,NA,NA,completion,11315.14,397501,397488.68,397505.34,408820.48,408823,2023-08-06T08:33:15Z,408837.12,NULL,Theorie,nadharia,d,NA,NA,NA,NA,sdf,NA,2,NA,NA,NA,NA,NA,NA,NA,NA,NA,NA,NA,NA,NA,NA,NA,NA,NA,NA,NA
ebbe2,shallow,flow.Sequence,3_0_2_0_7_1,NA,NA,skipped,NA,408823,NA,NA,408820.48,408823,2023-08-06T08:33:15Z,408837.12,NULL,Theorie,nadharia,d,NA,NA,NA,NA,sdf,NA,2,NA,NA,NA,NA,NA,NA,NA,NA,NA,NA,NA,NA,NA,NA,NA,NA,NA,NA,NA
ebbe2,task,flow.Sequence,3_0_2_0_7,NA,NA,completion,11315.14,397501,397488.68,397505.34,408820.48,408824,2023-08-06T08:33:15Z,408837.12,NULL,Theorie,nadharia,d,NA,NA,NA,NA,sdf,NA,2,NA,NA,NA,NA,NA,NA,NA,NA,NA,NA,NA,NA,NA,NA,NA,NA,NA,NA,NA
ebbe2,block,flow.Loop,3_0_2_0,NA,NA,completion,96817.58,312003,312002.54,312002.9,408820.48,408824,2023-08-06T08:33:15Z,408837.12,NULL,NA,NA,NA,NA,NA,NA,NA,sdf,NA,2,NA,NA,NA,NA,NA,NA,NA,NA,NA,NA,NA,NA,NA,NA,NA,NA,NA,NA,NA
ebbe2,weiter,canvas.Screen,3_0_2_1,sdf,keypress(Space),response,970.88,408825,408820.48,408837.12,409808,409822,2023-08-06T08:33:16Z,409875.52,NULL,NA,NA,NA,NA,NA,NA,NA,sdf,NA,2,NA,NA,NA,NA,NA,NA,NA,NA,NA,NA,NA,NA,NA,NA,NA,NA,NA,NA,NA
ebbe2,check continue,flow.Sequence,3_0_2,NA,NA,completion,97805.1,312003,312002.54,312002.9,409808,409822,2023-08-06T08:33:16Z,409875.52,NULL,NA,NA,NA,NA,NA,NA,NA,sdf,NA,2,NA,NA,NA,NA,NA,NA,NA,NA,NA,NA,NA,NA,NA,NA,NA,NA,NA,NA,NA
ebbe2,deep,flow.Sequence,3_0_3_0_0_0,NA,NA,skipped,NA,409875,NA,NA,409808,409875,2023-08-06T08:33:16Z,409875.52,NULL,Auftrag,uagizaji,s,ghanima,kuzingatia,msukani,NA,qt,NA,3,NA,NA,NA,NA,NA,NA,NA,NA,NA,NA,NA,NA,NA,NA,NA,NA,NA,NA,NA
ebbe2,Shallow Question,html.Page,3_0_3_0_0_1_0,NA,NA,form submission,14106.48,409875,409875.16,409875.52,423982,423982,2023-08-06T08:33:30Z,423985.16,NULL,Auftrag,uagizaji,s,ghanima,kuzingatia,msukani,uagizaji,NA,NA,3,NA,NA,NA,NA,NA,NA,NA,NA,NA,NA,NA,NA,NA,NA,NA,NA,NA,NA,NA
ebbe2,"""Richtig""-Screen",canvas.Screen,3_0_3_0_0_1_1,NA,NA,timeout,4999.32,423984,423980.96,423985.16,428967.8,428973,2023-08-06T08:33:35Z,428984.48,NULL,Auftrag,uagizaji,s,ghanima,kuzingatia,msukani,NA,qt,1,3,NA,NA,NA,NA,NA,NA,NA,NA,NA,NA,NA,NA,NA,NA,NA,NA,NA,NA,NA
ebbe2,"""Falsch""-Screen",canvas.Screen,3_0_3_0_0_1_2,NA,NA,skipped,NA,428990,NA,NA,428967.8,428991,2023-08-06T08:33:35Z,428984.48,NULL,Auftrag,uagizaji,s,ghanima,kuzingatia,msukani,NA,qt,NA,3,NA,NA,NA,NA,NA,NA,NA,NA,NA,NA,NA,NA,NA,NA,NA,NA,NA,NA,NA
ebbe2,shallow,flow.Sequence,3_0_3_0_0_1,NA,NA,completion,19092.28,409875,409875.16,409875.52,428967.8,428991,2023-08-06T08:33:35Z,428984.48,NULL,Auftrag,uagizaji,s,ghanima,kuzingatia,msukani,NA,qt,NA,3,NA,NA,NA,NA,NA,NA,NA,NA,NA,NA,NA,NA,NA,NA,NA,NA,NA,NA,NA
ebbe2,task,flow.Sequence,3_0_3_0_0,NA,NA,completion,19092.28,409875,409875.16,409875.52,428967.8,428991,2023-08-06T08:33:35Z,428984.48,NULL,Auftrag,uagizaji,s,ghanima,kuzingatia,msukani,NA,qt,NA,3,NA,NA,NA,NA,NA,NA,NA,NA,NA,NA,NA,NA,NA,NA,NA,NA,NA,NA,NA
ebbe2,deep,flow.Sequence,3_0_3_0_1_0,NA,NA,skipped,NA,428991,NA,NA,428967.8,428992,2023-08-06T08:33:35Z,428984.48,NULL,Wettbewerb,ushindani,s,mapendezi,kichocheo,ubaguzi,NA,qt,NA,3,NA,NA,NA,NA,NA,NA,NA,NA,NA,NA,NA,NA,NA,NA,NA,NA,NA,NA,NA
ebbe2,Shallow Question,html.Page,3_0_3_0_1_1_0,NA,NA,form submission,8297.52,428992,428967.8,428984.48,437282,437284,2023-08-06T08:33:43Z,437283.44,NULL,Wettbewerb,ushindani,s,mapendezi,kichocheo,ubaguzi,ushindani,NA,NA,3,NA,NA,NA,NA,NA,NA,NA,NA,NA,NA,NA,NA,NA,NA,NA,NA,NA,NA,NA
ebbe2,"""Richtig""-Screen",canvas.Screen,3_0_3_0_1_1_1,NA,NA,timeout,4999.32,437287,437281.18,437283.44,442266.16,442267,2023-08-06T08:33:48Z,442282.76,NULL,Wettbewerb,ushindani,s,mapendezi,kichocheo,ubaguzi,NA,qt,1,3,NA,NA,NA,NA,NA,NA,NA,NA,NA,NA,NA,NA,NA,NA,NA,NA,NA,NA,NA
ebbe2,"""Falsch""-Screen",canvas.Screen,3_0_3_0_1_1_2,NA,NA,skipped,NA,442276,NA,NA,442266.16,442277,2023-08-06T08:33:48Z,442282.76,NULL,Wettbewerb,ushindani,s,mapendezi,kichocheo,ubaguzi,NA,qt,NA,3,NA,NA,NA,NA,NA,NA,NA,NA,NA,NA,NA,NA,NA,NA,NA,NA,NA,NA,NA
ebbe2,shallow,flow.Sequence,3_0_3_0_1_1,NA,NA,completion,13281.68,428992,428967.8,428984.48,442266.16,442278,2023-08-06T08:33:48Z,442282.76,NULL,Wettbewerb,ushindani,s,mapendezi,kichocheo,ubaguzi,NA,qt,NA,3,NA,NA,NA,NA,NA,NA,NA,NA,NA,NA,NA,NA,NA,NA,NA,NA,NA,NA,NA
ebbe2,task,flow.Sequence,3_0_3_0_1,NA,NA,completion,13281.68,428991,428967.8,428984.48,442266.16,442278,2023-08-06T08:33:48Z,442282.76,NULL,Wettbewerb,ushindani,s,mapendezi,kichocheo,ubaguzi,NA,qt,NA,3,NA,NA,NA,NA,NA,NA,NA,NA,NA,NA,NA,NA,NA,NA,NA,NA,NA,NA,NA
ebbe2,Deep Question,html.Page,3_0_3_0_2_0_0,NA,NA,form submission,5885.24,442278,442266.16,442282.76,448168,448169,2023-08-06T08:33:54Z,448181.86,NULL,Schock,mshtuko,d,NA,NA,NA,mshkuto,NA,NA,3,NA,NA,NA,NA,NA,NA,NA,NA,NA,NA,NA,NA,NA,NA,NA,NA,NA,NA,NA
ebbe2,"""Richtig""-Screen",canvas.Screen,3_0_3_0_2_0_1,NA,NA,skipped,NA,448172,NA,NA,448168,448172,2023-08-06T08:33:54Z,448181.86,NULL,Schock,mshtuko,d,NA,NA,NA,NA,qt,NA,3,NA,NA,NA,NA,NA,NA,NA,NA,NA,NA,NA,NA,NA,NA,NA,NA,NA,NA,NA
ebbe2,"""Falsch""-Screen",canvas.Screen,3_0_3_0_2_0_2,NA,NA,timeout,4999.56,448176,448167.2,448181.86,453164.78,453166,2023-08-06T08:33:59Z,453181.42,NULL,Schock,mshtuko,d,NA,NA,NA,NA,qt,0,3,NA,NA,NA,NA,NA,NA,NA,NA,NA,NA,NA,NA,NA,NA,NA,NA,NA,NA,NA
ebbe2,deep,flow.Sequence,3_0_3_0_2_0,NA,NA,completion,10882.02,442278,442266.16,442282.76,453164.78,453167,2023-08-06T08:33:59Z,453181.42,NULL,Schock,mshtuko,d,NA,NA,NA,NA,qt,NA,3,NA,NA,NA,NA,NA,NA,NA,NA,NA,NA,NA,NA,NA,NA,NA,NA,NA,NA,NA
ebbe2,shallow,flow.Sequence,3_0_3_0_2_1,NA,NA,skipped,NA,453168,NA,NA,453164.78,453168,2023-08-06T08:33:59Z,453181.42,NULL,Schock,mshtuko,d,NA,NA,NA,NA,qt,NA,3,NA,NA,NA,NA,NA,NA,NA,NA,NA,NA,NA,NA,NA,NA,NA,NA,NA,NA,NA
ebbe2,task,flow.Sequence,3_0_3_0_2,NA,NA,completion,10882.02,442278,442266.16,442282.76,453164.78,453169,2023-08-06T08:33:59Z,453181.42,NULL,Schock,mshtuko,d,NA,NA,NA,NA,qt,NA,3,NA,NA,NA,NA,NA,NA,NA,NA,NA,NA,NA,NA,NA,NA,NA,NA,NA,NA,NA
ebbe2,Deep Question,html.Page,3_0_3_0_3_0_0,NA,NA,form submission,5169.58,453170,453164.78,453181.42,458351,458352,2023-08-06T08:34:04Z,458363.94,NULL,Schönheit,kirembo,d,NA,NA,NA,kirembo,NA,NA,3,NA,NA,NA,NA,NA,NA,NA,NA,NA,NA,NA,NA,NA,NA,NA,NA,NA,NA,NA
ebbe2,"""Richtig""-Screen",canvas.Screen,3_0_3_0_3_0_1,NA,NA,timeout,4999.46,458354,458350.04,458363.94,463346.74,463348,2023-08-06T08:34:09Z,463363.4,NULL,Schönheit,kirembo,d,NA,NA,NA,NA,qt,1,3,NA,NA,NA,NA,NA,NA,NA,NA,NA,NA,NA,NA,NA,NA,NA,NA,NA,NA,NA
ebbe2,"""Falsch""-Screen",canvas.Screen,3_0_3_0_3_0_2,NA,NA,skipped,NA,463353,NA,NA,463346.74,463354,2023-08-06T08:34:09Z,463363.4,NULL,Schönheit,kirembo,d,NA,NA,NA,NA,qt,NA,3,NA,NA,NA,NA,NA,NA,NA,NA,NA,NA,NA,NA,NA,NA,NA,NA,NA,NA,NA
ebbe2,deep,flow.Sequence,3_0_3_0_3_0,NA,NA,completion,10165.32,453170,453164.78,453181.42,463346.74,463354,2023-08-06T08:34:09Z,463363.4,NULL,Schönheit,kirembo,d,NA,NA,NA,NA,qt,NA,3,NA,NA,NA,NA,NA,NA,NA,NA,NA,NA,NA,NA,NA,NA,NA,NA,NA,NA,NA
ebbe2,shallow,flow.Sequence,3_0_3_0_3_1,NA,NA,skipped,NA,463354,NA,NA,463346.74,463354,2023-08-06T08:34:09Z,463363.4,NULL,Schönheit,kirembo,d,NA,NA,NA,NA,qt,NA,3,NA,NA,NA,NA,NA,NA,NA,NA,NA,NA,NA,NA,NA,NA,NA,NA,NA,NA,NA
ebbe2,task,flow.Sequence,3_0_3_0_3,NA,NA,completion,10165.32,453169,453164.78,453181.42,463346.74,463355,2023-08-06T08:34:09Z,463363.4,NULL,Schönheit,kirembo,d,NA,NA,NA,NA,qt,NA,3,NA,NA,NA,NA,NA,NA,NA,NA,NA,NA,NA,NA,NA,NA,NA,NA,NA,NA,NA
ebbe2,deep,flow.Sequence,3_0_3_0_4_0,NA,NA,skipped,NA,463355,NA,NA,463346.74,463355,2023-08-06T08:34:09Z,463363.4,NULL,Verpackung,ufungaji,s,uhusiano,upimaji,uchunguzi,NA,qt,NA,3,NA,NA,NA,NA,NA,NA,NA,NA,NA,NA,NA,NA,NA,NA,NA,NA,NA,NA,NA
ebbe2,Shallow Question,html.Page,3_0_3_0_4_1_0,NA,NA,form submission,5880.6,463355,463346.74,463363.4,469244,469244,2023-08-06T08:34:15Z,469245.94,NULL,Verpackung,ufungaji,s,uhusiano,upimaji,uchunguzi,ufungaji,NA,NA,3,NA,NA,NA,NA,NA,NA,NA,NA,NA,NA,NA,NA,NA,NA,NA,NA,NA,NA,NA
ebbe2,"""Richtig""-Screen",canvas.Screen,3_0_3_0_4_1_1,NA,NA,timeout,4999.36,469246,469242.58,469245.94,474228.66,474230,2023-08-06T08:34:20Z,474245.3,NULL,Verpackung,ufungaji,s,uhusiano,upimaji,uchunguzi,NA,qt,1,3,NA,NA,NA,NA,NA,NA,NA,NA,NA,NA,NA,NA,NA,NA,NA,NA,NA,NA,NA
ebbe2,"""Falsch""-Screen",canvas.Screen,3_0_3_0_4_1_2,NA,NA,skipped,NA,474237,NA,NA,474228.66,474238,2023-08-06T08:34:20Z,474245.3,NULL,Verpackung,ufungaji,s,uhusiano,upimaji,uchunguzi,NA,qt,NA,3,NA,NA,NA,NA,NA,NA,NA,NA,NA,NA,NA,NA,NA,NA,NA,NA,NA,NA,NA
ebbe2,shallow,flow.Sequence,3_0_3_0_4_1,NA,NA,completion,10865.26,463355,463346.74,463363.4,474228.66,474239,2023-08-06T08:34:20Z,474245.3,NULL,Verpackung,ufungaji,s,uhusiano,upimaji,uchunguzi,NA,qt,NA,3,NA,NA,NA,NA,NA,NA,NA,NA,NA,NA,NA,NA,NA,NA,NA,NA,NA,NA,NA
ebbe2,task,flow.Sequence,3_0_3_0_4,NA,NA,completion,10865.26,463355,463346.74,463363.4,474228.66,474240,2023-08-06T08:34:20Z,474245.3,NULL,Verpackung,ufungaji,s,uhusiano,upimaji,uchunguzi,NA,qt,NA,3,NA,NA,NA,NA,NA,NA,NA,NA,NA,NA,NA,NA,NA,NA,NA,NA,NA,NA,NA
ebbe2,deep,flow.Sequence,3_0_3_0_5_0,NA,NA,skipped,NA,474241,NA,NA,474228.66,474241,2023-08-06T08:34:20Z,474245.3,NULL,Hoffnung,matarajio,s,kutaalamika,uratibu,mvumbuzi,NA,qt,NA,3,NA,NA,NA,NA,NA,NA,NA,NA,NA,NA,NA,NA,NA,NA,NA,NA,NA,NA,NA
ebbe2,Shallow Question,html.Page,3_0_3_0_5_1_0,NA,NA,form submission,7278.7,474242,474228.66,474245.3,481524,481524,2023-08-06T08:34:27Z,481527.64,NULL,Hoffnung,matarajio,s,kutaalamika,uratibu,mvumbuzi,matarajio,NA,NA,3,NA,NA,NA,NA,NA,NA,NA,NA,NA,NA,NA,NA,NA,NA,NA,NA,NA,NA,NA
ebbe2,"""Richtig""-Screen",canvas.Screen,3_0_3_0_5_1_1,NA,NA,timeout,4999.4,481526,481522.18,481527.64,486510.38,486512,2023-08-06T08:34:32Z,486527.04,NULL,Hoffnung,matarajio,s,kutaalamika,uratibu,mvumbuzi,NA,qt,1,3,NA,NA,NA,NA,NA,NA,NA,NA,NA,NA,NA,NA,NA,NA,NA,NA,NA,NA,NA
ebbe2,"""Falsch""-Screen",canvas.Screen,3_0_3_0_5_1_2,NA,NA,skipped,NA,486517,NA,NA,486510.38,486517,2023-08-06T08:34:32Z,486527.04,NULL,Hoffnung,matarajio,s,kutaalamika,uratibu,mvumbuzi,NA,qt,NA,3,NA,NA,NA,NA,NA,NA,NA,NA,NA,NA,NA,NA,NA,NA,NA,NA,NA,NA,NA
ebbe2,shallow,flow.Sequence,3_0_3_0_5_1,NA,NA,completion,12265.08,474242,474228.66,474245.3,486510.38,486518,2023-08-06T08:34:32Z,486527.04,NULL,Hoffnung,matarajio,s,kutaalamika,uratibu,mvumbuzi,NA,qt,NA,3,NA,NA,NA,NA,NA,NA,NA,NA,NA,NA,NA,NA,NA,NA,NA,NA,NA,NA,NA
ebbe2,task,flow.Sequence,3_0_3_0_5,NA,NA,completion,12265.08,474241,474228.66,474245.3,486510.38,486518,2023-08-06T08:34:32Z,486527.04,NULL,Hoffnung,matarajio,s,kutaalamika,uratibu,mvumbuzi,NA,qt,NA,3,NA,NA,NA,NA,NA,NA,NA,NA,NA,NA,NA,NA,NA,NA,NA,NA,NA,NA,NA
ebbe2,Deep Question,html.Page,3_0_3_0_6_0_0,NA,NA,form submission,12427.96,486518,486510.38,486527.04,498955,498955,2023-08-06T08:34:45Z,498958.7,NULL,Zufall,kikuti,d,NA,NA,NA,mshtiko,NA,NA,3,NA,NA,NA,NA,NA,NA,NA,NA,NA,NA,NA,NA,NA,NA,NA,NA,NA,NA,NA
ebbe2,"""Richtig""-Screen",canvas.Screen,3_0_3_0_6_0_1,NA,NA,skipped,NA,498957,NA,NA,498955,498957,2023-08-06T08:34:45Z,498958.7,NULL,Zufall,kikuti,d,NA,NA,NA,NA,qt,NA,3,NA,NA,NA,NA,NA,NA,NA,NA,NA,NA,NA,NA,NA,NA,NA,NA,NA,NA,NA
ebbe2,"""Falsch""-Screen",canvas.Screen,3_0_3_0_6_0_2,NA,NA,timeout,4999.38,498960,498953.54,498958.7,503941.46,503943,2023-08-06T08:34:50Z,503958.08,NULL,Zufall,kikuti,d,NA,NA,NA,NA,qt,0,3,NA,NA,NA,NA,NA,NA,NA,NA,NA,NA,NA,NA,NA,NA,NA,NA,NA,NA,NA
ebbe2,deep,flow.Sequence,3_0_3_0_6_0,NA,NA,completion,17414.42,486518,486510.38,486527.04,503941.46,503943,2023-08-06T08:34:50Z,503958.08,NULL,Zufall,kikuti,d,NA,NA,NA,NA,qt,NA,3,NA,NA,NA,NA,NA,NA,NA,NA,NA,NA,NA,NA,NA,NA,NA,NA,NA,NA,NA
ebbe2,shallow,flow.Sequence,3_0_3_0_6_1,NA,NA,skipped,NA,503944,NA,NA,503941.46,503944,2023-08-06T08:34:50Z,503958.08,NULL,Zufall,kikuti,d,NA,NA,NA,NA,qt,NA,3,NA,NA,NA,NA,NA,NA,NA,NA,NA,NA,NA,NA,NA,NA,NA,NA,NA,NA,NA
ebbe2,task,flow.Sequence,3_0_3_0_6,NA,NA,completion,17414.42,486518,486510.38,486527.04,503941.46,503944,2023-08-06T08:34:50Z,503958.08,NULL,Zufall,kikuti,d,NA,NA,NA,NA,qt,NA,3,NA,NA,NA,NA,NA,NA,NA,NA,NA,NA,NA,NA,NA,NA,NA,NA,NA,NA,NA
ebbe2,Deep Question,html.Page,3_0_3_0_7_0_0,NA,NA,form submission,5968.92,503945,503941.46,503958.08,509927,509927,2023-08-06T08:34:56Z,509926,NULL,Theorie,nadharia,d,NA,NA,NA,mshtiko,NA,NA,3,NA,NA,NA,NA,NA,NA,NA,NA,NA,NA,NA,NA,NA,NA,NA,NA,NA,NA,NA
ebbe2,"""Richtig""-Screen",canvas.Screen,3_0_3_0_7_0_1,NA,NA,skipped,NA,509930,NA,NA,509927,509930,2023-08-06T08:34:56Z,509926,NULL,Theorie,nadharia,d,NA,NA,NA,NA,qt,NA,3,NA,NA,NA,NA,NA,NA,NA,NA,NA,NA,NA,NA,NA,NA,NA,NA,NA,NA,NA
ebbe2,"""Falsch""-Screen",canvas.Screen,3_0_3_0_7_0_2,NA,NA,timeout,4997.36,509932,509925.64,509926,514906.7,514909,2023-08-06T08:35:01Z,514923.36,NULL,Theorie,nadharia,d,NA,NA,NA,NA,qt,0,3,NA,NA,NA,NA,NA,NA,NA,NA,NA,NA,NA,NA,NA,NA,NA,NA,NA,NA,NA
ebbe2,deep,flow.Sequence,3_0_3_0_7_0,NA,NA,completion,10948.62,503945,503941.46,503958.08,514906.7,514909,2023-08-06T08:35:01Z,514923.36,NULL,Theorie,nadharia,d,NA,NA,NA,NA,qt,NA,3,NA,NA,NA,NA,NA,NA,NA,NA,NA,NA,NA,NA,NA,NA,NA,NA,NA,NA,NA
ebbe2,shallow,flow.Sequence,3_0_3_0_7_1,NA,NA,skipped,NA,514909,NA,NA,514906.7,514909,2023-08-06T08:35:01Z,514923.36,NULL,Theorie,nadharia,d,NA,NA,NA,NA,qt,NA,3,NA,NA,NA,NA,NA,NA,NA,NA,NA,NA,NA,NA,NA,NA,NA,NA,NA,NA,NA
ebbe2,task,flow.Sequence,3_0_3_0_7,NA,NA,completion,10948.62,503944,503941.46,503958.08,514906.7,514910,2023-08-06T08:35:01Z,514923.36,NULL,Theorie,nadharia,d,NA,NA,NA,NA,qt,NA,3,NA,NA,NA,NA,NA,NA,NA,NA,NA,NA,NA,NA,NA,NA,NA,NA,NA,NA,NA
ebbe2,block,flow.Loop,3_0_3_0,NA,NA,completion,105031.18,409875,409875.16,409875.52,514906.7,514911,2023-08-06T08:35:01Z,514923.36,NULL,NA,NA,NA,NA,NA,NA,NA,qt,NA,3,NA,NA,NA,NA,NA,NA,NA,NA,NA,NA,NA,NA,NA,NA,NA,NA,NA,NA,NA
ebbe2,weiter,canvas.Screen,3_0_3_1,sdf,keypress(Space),response,914.64000000001,514911,514906.7,514923.36,515838,515853,2023-08-06T08:35:02Z,515929.66,NULL,NA,NA,NA,NA,NA,NA,NA,qt,NA,3,NA,NA,NA,NA,NA,NA,NA,NA,NA,NA,NA,NA,NA,NA,NA,NA,NA,NA,NA
ebbe2,check continue,flow.Sequence,3_0_3,NA,NA,completion,105962.48,409875,409875.16,409875.52,515838,515855,2023-08-06T08:35:02Z,515929.66,NULL,NA,NA,NA,NA,NA,NA,NA,qt,NA,3,NA,NA,NA,NA,NA,NA,NA,NA,NA,NA,NA,NA,NA,NA,NA,NA,NA,NA,NA
ebbe2,Deep Question,html.Page,3_0_4_0_0_0_0,NA,NA,form submission,5068.34,515930,515929.3,515929.66,520998,521001,2023-08-06T08:35:07Z,521005.9,NULL,Zufall,kikuti,d,NA,NA,NA,nadharia,NA,NA,4,NA,NA,NA,NA,NA,NA,NA,NA,NA,NA,NA,NA,NA,NA,NA,NA,NA,NA,NA
ebbe2,"""Richtig""-Screen",canvas.Screen,3_0_4_0_0_0_1,NA,NA,skipped,NA,521008,NA,NA,520998,521008,2023-08-06T08:35:07Z,521005.9,NULL,Zufall,kikuti,d,NA,NA,NA,NA,sd,NA,4,NA,NA,NA,NA,NA,NA,NA,NA,NA,NA,NA,NA,NA,NA,NA,NA,NA,NA,NA
ebbe2,"""Falsch""-Screen",canvas.Screen,3_0_4_0_0_0_2,NA,NA,timeout,4999.2999999999,521011,520996.38,521005.9,525988.54,525990,2023-08-06T08:35:12Z,526005.2,NULL,Zufall,kikuti,d,NA,NA,NA,NA,sd,0,4,NA,NA,NA,NA,NA,NA,NA,NA,NA,NA,NA,NA,NA,NA,NA,NA,NA,NA,NA
ebbe2,deep,flow.Sequence,3_0_4_0_0_0,NA,NA,completion,10058.88,515930,515929.3,515929.66,525988.54,525991,2023-08-06T08:35:12Z,526005.2,NULL,Zufall,kikuti,d,NA,NA,NA,NA,sd,NA,4,NA,NA,NA,NA,NA,NA,NA,NA,NA,NA,NA,NA,NA,NA,NA,NA,NA,NA,NA
ebbe2,shallow,flow.Sequence,3_0_4_0_0_1,NA,NA,skipped,NA,525991,NA,NA,525988.54,525992,2023-08-06T08:35:12Z,526005.2,NULL,Zufall,kikuti,d,NA,NA,NA,NA,sd,NA,4,NA,NA,NA,NA,NA,NA,NA,NA,NA,NA,NA,NA,NA,NA,NA,NA,NA,NA,NA
ebbe2,task,flow.Sequence,3_0_4_0_0,NA,NA,completion,10058.88,515930,515929.3,515929.66,525988.54,525992,2023-08-06T08:35:12Z,526005.2,NULL,Zufall,kikuti,d,NA,NA,NA,NA,sd,NA,4,NA,NA,NA,NA,NA,NA,NA,NA,NA,NA,NA,NA,NA,NA,NA,NA,NA,NA,NA
ebbe2,deep,flow.Sequence,3_0_4_0_1_0,NA,NA,skipped,NA,525992,NA,NA,525988.54,525992,2023-08-06T08:35:12Z,526005.2,NULL,Hoffnung,matarajio,s,kutaalamika,uratibu,mvumbuzi,NA,sd,NA,4,NA,NA,NA,NA,NA,NA,NA,NA,NA,NA,NA,NA,NA,NA,NA,NA,NA,NA,NA
ebbe2,Shallow Question,html.Page,3_0_4_0_1_1_0,NA,NA,form submission,5431.8,525993,525988.54,526005.2,531437,531437,2023-08-06T08:35:17Z,531437.82,NULL,Hoffnung,matarajio,s,kutaalamika,uratibu,mvumbuzi,matarajio,NA,NA,4,NA,NA,NA,NA,NA,NA,NA,NA,NA,NA,NA,NA,NA,NA,NA,NA,NA,NA,NA
ebbe2,"""Richtig""-Screen",canvas.Screen,3_0_4_0_1_1_1,NA,NA,timeout,4999.3400000001,531440,531435.5,531437.82,536420.5,536423,2023-08-06T08:35:22Z,536437.16,NULL,Hoffnung,matarajio,s,kutaalamika,uratibu,mvumbuzi,NA,sd,1,4,NA,NA,NA,NA,NA,NA,NA,NA,NA,NA,NA,NA,NA,NA,NA,NA,NA,NA,NA
ebbe2,"""Falsch""-Screen",canvas.Screen,3_0_4_0_1_1_2,NA,NA,skipped,NA,536431,NA,NA,536420.5,536431,2023-08-06T08:35:22Z,536437.16,NULL,Hoffnung,matarajio,s,kutaalamika,uratibu,mvumbuzi,NA,sd,NA,4,NA,NA,NA,NA,NA,NA,NA,NA,NA,NA,NA,NA,NA,NA,NA,NA,NA,NA,NA
ebbe2,shallow,flow.Sequence,3_0_4_0_1_1,NA,NA,completion,10415.3,525992,525988.54,526005.2,536420.5,536432,2023-08-06T08:35:22Z,536437.16,NULL,Hoffnung,matarajio,s,kutaalamika,uratibu,mvumbuzi,NA,sd,NA,4,NA,NA,NA,NA,NA,NA,NA,NA,NA,NA,NA,NA,NA,NA,NA,NA,NA,NA,NA
ebbe2,task,flow.Sequence,3_0_4_0_1,NA,NA,completion,10415.3,525992,525988.54,526005.2,536420.5,536432,2023-08-06T08:35:22Z,536437.16,NULL,Hoffnung,matarajio,s,kutaalamika,uratibu,mvumbuzi,NA,sd,NA,4,NA,NA,NA,NA,NA,NA,NA,NA,NA,NA,NA,NA,NA,NA,NA,NA,NA,NA,NA
ebbe2,Deep Question,html.Page,3_0_4_0_2_0_0,NA,NA,form submission,10080.84,536433,536420.5,536437.16,546518,546519,2023-08-06T08:35:32Z,546519.2,NULL,Schock,mshtuko,d,NA,NA,NA,mshtiko,NA,NA,4,NA,NA,NA,NA,NA,NA,NA,NA,NA,NA,NA,NA,NA,NA,NA,NA,NA,NA,NA
ebbe2,"""Richtig""-Screen",canvas.Screen,3_0_4_0_2_0_1,NA,NA,skipped,NA,546521,NA,NA,546518,546521,2023-08-06T08:35:32Z,546519.2,NULL,Schock,mshtuko,d,NA,NA,NA,NA,sd,NA,4,NA,NA,NA,NA,NA,NA,NA,NA,NA,NA,NA,NA,NA,NA,NA,NA,NA,NA,NA
ebbe2,"""Falsch""-Screen",canvas.Screen,3_0_4_0_2_0_2,NA,NA,timeout,4999.3400000001,546524,546516.6,546519.2,551501.88,551504,2023-08-06T08:35:37Z,551518.54,NULL,Schock,mshtuko,d,NA,NA,NA,NA,sd,0,4,NA,NA,NA,NA,NA,NA,NA,NA,NA,NA,NA,NA,NA,NA,NA,NA,NA,NA,NA
ebbe2,deep,flow.Sequence,3_0_4_0_2_0,NA,NA,completion,15064.72,536433,536420.5,536437.16,551501.88,551504,2023-08-06T08:35:37Z,551518.54,NULL,Schock,mshtuko,d,NA,NA,NA,NA,sd,NA,4,NA,NA,NA,NA,NA,NA,NA,NA,NA,NA,NA,NA,NA,NA,NA,NA,NA,NA,NA
ebbe2,shallow,flow.Sequence,3_0_4_0_2_1,NA,NA,skipped,NA,551505,NA,NA,551501.88,551505,2023-08-06T08:35:37Z,551518.54,NULL,Schock,mshtuko,d,NA,NA,NA,NA,sd,NA,4,NA,NA,NA,NA,NA,NA,NA,NA,NA,NA,NA,NA,NA,NA,NA,NA,NA,NA,NA
ebbe2,task,flow.Sequence,3_0_4_0_2,NA,NA,completion,15064.72,536433,536420.5,536437.16,551501.88,551505,2023-08-06T08:35:37Z,551518.54,NULL,Schock,mshtuko,d,NA,NA,NA,NA,sd,NA,4,NA,NA,NA,NA,NA,NA,NA,NA,NA,NA,NA,NA,NA,NA,NA,NA,NA,NA,NA
ebbe2,Deep Question,html.Page,3_0_4_0_3_0_0,NA,NA,form submission,6347.46,551506,551501.88,551518.54,557866,557866,2023-08-06T08:35:44Z,557867.7,NULL,Schönheit,kirembo,d,NA,NA,NA,kirembo,NA,NA,4,NA,NA,NA,NA,NA,NA,NA,NA,NA,NA,NA,NA,NA,NA,NA,NA,NA,NA,NA
ebbe2,"""Richtig""-Screen",canvas.Screen,3_0_4_0_3_0_1,NA,NA,timeout,4999.4,557868,557865.12,557867.7,562850.44,562852,2023-08-06T08:35:49Z,562867.1,NULL,Schönheit,kirembo,d,NA,NA,NA,NA,sd,1,4,NA,NA,NA,NA,NA,NA,NA,NA,NA,NA,NA,NA,NA,NA,NA,NA,NA,NA,NA
ebbe2,"""Falsch""-Screen",canvas.Screen,3_0_4_0_3_0_2,NA,NA,skipped,NA,562857,NA,NA,562850.44,562858,2023-08-06T08:35:49Z,562867.1,NULL,Schönheit,kirembo,d,NA,NA,NA,NA,sd,NA,4,NA,NA,NA,NA,NA,NA,NA,NA,NA,NA,NA,NA,NA,NA,NA,NA,NA,NA,NA
ebbe2,deep,flow.Sequence,3_0_4_0_3_0,NA,NA,completion,11331.9,551506,551501.88,551518.54,562850.44,562858,2023-08-06T08:35:49Z,562867.1,NULL,Schönheit,kirembo,d,NA,NA,NA,NA,sd,NA,4,NA,NA,NA,NA,NA,NA,NA,NA,NA,NA,NA,NA,NA,NA,NA,NA,NA,NA,NA
ebbe2,shallow,flow.Sequence,3_0_4_0_3_1,NA,NA,skipped,NA,562858,NA,NA,562850.44,562858,2023-08-06T08:35:49Z,562867.1,NULL,Schönheit,kirembo,d,NA,NA,NA,NA,sd,NA,4,NA,NA,NA,NA,NA,NA,NA,NA,NA,NA,NA,NA,NA,NA,NA,NA,NA,NA,NA
ebbe2,task,flow.Sequence,3_0_4_0_3,NA,NA,completion,11331.9,551506,551501.88,551518.54,562850.44,562859,2023-08-06T08:35:49Z,562867.1,NULL,Schönheit,kirembo,d,NA,NA,NA,NA,sd,NA,4,NA,NA,NA,NA,NA,NA,NA,NA,NA,NA,NA,NA,NA,NA,NA,NA,NA,NA,NA
ebbe2,deep,flow.Sequence,3_0_4_0_4_0,NA,NA,skipped,NA,562859,NA,NA,562850.44,562859,2023-08-06T08:35:49Z,562867.1,NULL,Auftrag,uagizaji,s,ghanima,kuzingatia,msukani,NA,sd,NA,4,NA,NA,NA,NA,NA,NA,NA,NA,NA,NA,NA,NA,NA,NA,NA,NA,NA,NA,NA
ebbe2,Shallow Question,html.Page,3_0_4_0_4_1_0,NA,NA,form submission,5256.9,562859,562850.44,562867.1,568124,568125,2023-08-06T08:35:54Z,568123.16,NULL,Auftrag,uagizaji,s,ghanima,kuzingatia,msukani,uagizaji,NA,NA,4,NA,NA,NA,NA,NA,NA,NA,NA,NA,NA,NA,NA,NA,NA,NA,NA,NA,NA,NA
ebbe2,"""Richtig""-Screen",canvas.Screen,3_0_4_0_4_1_1,NA,NA,timeout,4992.64,568128,568122.82,568123.16,573099.14,573101,2023-08-06T08:35:59Z,573115.8,NULL,Auftrag,uagizaji,s,ghanima,kuzingatia,msukani,NA,sd,1,4,NA,NA,NA,NA,NA,NA,NA,NA,NA,NA,NA,NA,NA,NA,NA,NA,NA,NA,NA
ebbe2,"""Falsch""-Screen",canvas.Screen,3_0_4_0_4_1_2,NA,NA,skipped,NA,573106,NA,NA,573099.14,573107,2023-08-06T08:35:59Z,573115.8,NULL,Auftrag,uagizaji,s,ghanima,kuzingatia,msukani,NA,sd,NA,4,NA,NA,NA,NA,NA,NA,NA,NA,NA,NA,NA,NA,NA,NA,NA,NA,NA,NA,NA
ebbe2,shallow,flow.Sequence,3_0_4_0_4_1,NA,NA,completion,10232.04,562859,562850.44,562867.1,573099.14,573107,2023-08-06T08:35:59Z,573115.8,NULL,Auftrag,uagizaji,s,ghanima,kuzingatia,msukani,NA,sd,NA,4,NA,NA,NA,NA,NA,NA,NA,NA,NA,NA,NA,NA,NA,NA,NA,NA,NA,NA,NA
ebbe2,task,flow.Sequence,3_0_4_0_4,NA,NA,completion,10232.04,562859,562850.44,562867.1,573099.14,573108,2023-08-06T08:35:59Z,573115.8,NULL,Auftrag,uagizaji,s,ghanima,kuzingatia,msukani,NA,sd,NA,4,NA,NA,NA,NA,NA,NA,NA,NA,NA,NA,NA,NA,NA,NA,NA,NA,NA,NA,NA
ebbe2,Deep Question,html.Page,3_0_4_0_5_0_0,NA,NA,form submission,5474.2,573108,573099.14,573115.8,578590,578591,2023-08-06T08:36:04Z,578598.28,NULL,Theorie,nadharia,d,NA,NA,NA,mshtuko,NA,NA,4,NA,NA,NA,NA,NA,NA,NA,NA,NA,NA,NA,NA,NA,NA,NA,NA,NA,NA,NA
ebbe2,"""Richtig""-Screen",canvas.Screen,3_0_4_0_5_0_1,NA,NA,skipped,NA,578598,NA,NA,578590,578598,2023-08-06T08:36:04Z,578598.28,NULL,Theorie,nadharia,d,NA,NA,NA,NA,sd,NA,4,NA,NA,NA,NA,NA,NA,NA,NA,NA,NA,NA,NA,NA,NA,NA,NA,NA,NA,NA
ebbe2,"""Falsch""-Screen",canvas.Screen,3_0_4_0_5_0_2,NA,NA,timeout,4999.4399999999,578601,578587.98,578598.28,583581.1,583583,2023-08-06T08:36:09Z,583597.72,NULL,Theorie,nadharia,d,NA,NA,NA,NA,sd,0,4,NA,NA,NA,NA,NA,NA,NA,NA,NA,NA,NA,NA,NA,NA,NA,NA,NA,NA,NA
ebbe2,deep,flow.Sequence,3_0_4_0_5_0,NA,NA,completion,10465.3,573108,573099.14,573115.8,583581.1,583584,2023-08-06T08:36:09Z,583597.72,NULL,Theorie,nadharia,d,NA,NA,NA,NA,sd,NA,4,NA,NA,NA,NA,NA,NA,NA,NA,NA,NA,NA,NA,NA,NA,NA,NA,NA,NA,NA
ebbe2,shallow,flow.Sequence,3_0_4_0_5_1,NA,NA,skipped,NA,583585,NA,NA,583581.1,583585,2023-08-06T08:36:09Z,583597.72,NULL,Theorie,nadharia,d,NA,NA,NA,NA,sd,NA,4,NA,NA,NA,NA,NA,NA,NA,NA,NA,NA,NA,NA,NA,NA,NA,NA,NA,NA,NA
ebbe2,task,flow.Sequence,3_0_4_0_5,NA,NA,completion,10465.3,573108,573099.14,573115.8,583581.1,583585,2023-08-06T08:36:09Z,583597.72,NULL,Theorie,nadharia,d,NA,NA,NA,NA,sd,NA,4,NA,NA,NA,NA,NA,NA,NA,NA,NA,NA,NA,NA,NA,NA,NA,NA,NA,NA,NA
ebbe2,deep,flow.Sequence,3_0_4_0_6_0,NA,NA,skipped,NA,583586,NA,NA,583581.1,583586,2023-08-06T08:36:09Z,583597.72,NULL,Verpackung,ufungaji,s,uhusiano,upimaji,uchunguzi,NA,sd,NA,4,NA,NA,NA,NA,NA,NA,NA,NA,NA,NA,NA,NA,NA,NA,NA,NA,NA,NA,NA
ebbe2,Shallow Question,html.Page,3_0_4_0_6_1_0,NA,NA,form submission,3721.28,583587,583581.1,583597.72,587319,587319,2023-08-06T08:36:13Z,587318.3,NULL,Verpackung,ufungaji,s,uhusiano,upimaji,uchunguzi,ufungaji,NA,NA,4,NA,NA,NA,NA,NA,NA,NA,NA,NA,NA,NA,NA,NA,NA,NA,NA,NA,NA,NA
ebbe2,"""Richtig""-Screen",canvas.Screen,3_0_4_0_6_1_1,NA,NA,timeout,4994.9399999999,587322,587317.9,587318.3,592296.58,592299,2023-08-06T08:36:18Z,592313.24,NULL,Verpackung,ufungaji,s,uhusiano,upimaji,uchunguzi,NA,sd,1,4,NA,NA,NA,NA,NA,NA,NA,NA,NA,NA,NA,NA,NA,NA,NA,NA,NA,NA,NA
ebbe2,"""Falsch""-Screen",canvas.Screen,3_0_4_0_6_1_2,NA,NA,skipped,NA,592308,NA,NA,592296.58,592308,2023-08-06T08:36:18Z,592313.24,NULL,Verpackung,ufungaji,s,uhusiano,upimaji,uchunguzi,NA,sd,NA,4,NA,NA,NA,NA,NA,NA,NA,NA,NA,NA,NA,NA,NA,NA,NA,NA,NA,NA,NA
ebbe2,shallow,flow.Sequence,3_0_4_0_6_1,NA,NA,completion,8698.86,583587,583581.1,583597.72,592296.58,592310,2023-08-06T08:36:18Z,592313.24,NULL,Verpackung,ufungaji,s,uhusiano,upimaji,uchunguzi,NA,sd,NA,4,NA,NA,NA,NA,NA,NA,NA,NA,NA,NA,NA,NA,NA,NA,NA,NA,NA,NA,NA
ebbe2,task,flow.Sequence,3_0_4_0_6,NA,NA,completion,8698.86,583585,583581.1,583597.72,592296.58,592310,2023-08-06T08:36:18Z,592313.24,NULL,Verpackung,ufungaji,s,uhusiano,upimaji,uchunguzi,NA,sd,NA,4,NA,NA,NA,NA,NA,NA,NA,NA,NA,NA,NA,NA,NA,NA,NA,NA,NA,NA,NA
ebbe2,deep,flow.Sequence,3_0_4_0_7_0,NA,NA,skipped,NA,592310,NA,NA,592296.58,592311,2023-08-06T08:36:18Z,592313.24,NULL,Wettbewerb,ushindani,s,mapendezi,kichocheo,ubaguzi,NA,sd,NA,4,NA,NA,NA,NA,NA,NA,NA,NA,NA,NA,NA,NA,NA,NA,NA,NA,NA,NA,NA
ebbe2,Shallow Question,html.Page,3_0_4_0_7_1_0,NA,NA,form submission,7033.76,592311,592296.58,592313.24,599347,599347,2023-08-06T08:36:25Z,599346.26,NULL,Wettbewerb,ushindani,s,mapendezi,kichocheo,ubaguzi,ushindani,NA,NA,4,NA,NA,NA,NA,NA,NA,NA,NA,NA,NA,NA,NA,NA,NA,NA,NA,NA,NA,NA
ebbe2,"""Richtig""-Screen",canvas.Screen,3_0_4_0_7_1_1,NA,NA,timeout,4998.74,599350,599345.76,599346.26,604328.34,604330,2023-08-06T08:36:30Z,604345,NULL,Wettbewerb,ushindani,s,mapendezi,kichocheo,ubaguzi,NA,sd,1,4,NA,NA,NA,NA,NA,NA,NA,NA,NA,NA,NA,NA,NA,NA,NA,NA,NA,NA,NA
ebbe2,"""Falsch""-Screen",canvas.Screen,3_0_4_0_7_1_2,NA,NA,skipped,NA,604336,NA,NA,604328.34,604337,2023-08-06T08:36:30Z,604345,NULL,Wettbewerb,ushindani,s,mapendezi,kichocheo,ubaguzi,NA,sd,NA,4,NA,NA,NA,NA,NA,NA,NA,NA,NA,NA,NA,NA,NA,NA,NA,NA,NA,NA,NA
ebbe2,shallow,flow.Sequence,3_0_4_0_7_1,NA,NA,completion,12015.1,592311,592296.58,592313.24,604328.34,604337,2023-08-06T08:36:30Z,604345,NULL,Wettbewerb,ushindani,s,mapendezi,kichocheo,ubaguzi,NA,sd,NA,4,NA,NA,NA,NA,NA,NA,NA,NA,NA,NA,NA,NA,NA,NA,NA,NA,NA,NA,NA
ebbe2,task,flow.Sequence,3_0_4_0_7,NA,NA,completion,12015.1,592310,592296.58,592313.24,604328.34,604338,2023-08-06T08:36:30Z,604345,NULL,Wettbewerb,ushindani,s,mapendezi,kichocheo,ubaguzi,NA,sd,NA,4,NA,NA,NA,NA,NA,NA,NA,NA,NA,NA,NA,NA,NA,NA,NA,NA,NA,NA,NA
ebbe2,block,flow.Loop,3_0_4_0,NA,NA,completion,88398.68,515930,515929.3,515929.66,604328.34,604339,2023-08-06T08:36:30Z,604345,NULL,NA,NA,NA,NA,NA,NA,NA,sd,NA,4,NA,NA,NA,NA,NA,NA,NA,NA,NA,NA,NA,NA,NA,NA,NA,NA,NA,NA,NA
ebbe2,weiter,canvas.Screen,3_0_4_1,sdf,keypress(Space),response,899,604339,604328.34,604345,605244,605259,2023-08-06T08:36:31Z,605311.84,NULL,NA,NA,NA,NA,NA,NA,NA,sd,NA,4,NA,NA,NA,NA,NA,NA,NA,NA,NA,NA,NA,NA,NA,NA,NA,NA,NA,NA,NA
ebbe2,check continue,flow.Sequence,3_0_4,NA,NA,completion,89314.34,515930,515929.3,515929.66,605244,605260,2023-08-06T08:36:31Z,605311.84,NULL,NA,NA,NA,NA,NA,NA,NA,sd,NA,4,NA,NA,NA,NA,NA,NA,NA,NA,NA,NA,NA,NA,NA,NA,NA,NA,NA,NA,NA
ebbe2,deep,flow.Sequence,3_0_5_0_0_0,NA,NA,skipped,NA,605311,NA,NA,605244,605311,2023-08-06T08:36:31Z,605311.84,NULL,Auftrag,uagizaji,s,ghanima,kuzingatia,msukani,NA,sdf,NA,5,NA,NA,NA,NA,NA,NA,NA,NA,NA,NA,NA,NA,NA,NA,NA,NA,NA,NA,NA
ebbe2,Shallow Question,html.Page,3_0_5_0_0_1_0,NA,NA,form submission,8280.16,605311,605311.46,605311.84,613592,613592,2023-08-06T08:36:39Z,613593.84,NULL,Auftrag,uagizaji,s,ghanima,kuzingatia,msukani,uagizaji,NA,NA,5,NA,NA,NA,NA,NA,NA,NA,NA,NA,NA,NA,NA,NA,NA,NA,NA,NA,NA,NA
ebbe2,"""Richtig""-Screen",canvas.Screen,3_0_5_0_0_1_1,NA,NA,timeout,4999.3400000001,613595,613590.74,613593.84,618576.52,618578,2023-08-06T08:36:44Z,618593.18,NULL,Auftrag,uagizaji,s,ghanima,kuzingatia,msukani,NA,sdf,1,5,NA,NA,NA,NA,NA,NA,NA,NA,NA,NA,NA,NA,NA,NA,NA,NA,NA,NA,NA
ebbe2,"""Falsch""-Screen",canvas.Screen,3_0_5_0_0_1_2,NA,NA,skipped,NA,618584,NA,NA,618576.52,618584,2023-08-06T08:36:44Z,618593.18,NULL,Auftrag,uagizaji,s,ghanima,kuzingatia,msukani,NA,sdf,NA,5,NA,NA,NA,NA,NA,NA,NA,NA,NA,NA,NA,NA,NA,NA,NA,NA,NA,NA,NA
ebbe2,shallow,flow.Sequence,3_0_5_0_0_1,NA,NA,completion,13264.68,605311,605311.46,605311.84,618576.52,618585,2023-08-06T08:36:44Z,618593.18,NULL,Auftrag,uagizaji,s,ghanima,kuzingatia,msukani,NA,sdf,NA,5,NA,NA,NA,NA,NA,NA,NA,NA,NA,NA,NA,NA,NA,NA,NA,NA,NA,NA,NA
ebbe2,task,flow.Sequence,3_0_5_0_0,NA,NA,completion,13264.68,605311,605311.46,605311.84,618576.52,618586,2023-08-06T08:36:44Z,618593.18,NULL,Auftrag,uagizaji,s,ghanima,kuzingatia,msukani,NA,sdf,NA,5,NA,NA,NA,NA,NA,NA,NA,NA,NA,NA,NA,NA,NA,NA,NA,NA,NA,NA,NA
ebbe2,Deep Question,html.Page,3_0_5_0_1_0_0,NA,NA,form submission,4836.8199999999,618586,618576.52,618593.18,623430,623430,2023-08-06T08:36:49Z,623428.98,NULL,Zufall,kikuti,d,NA,NA,NA,mshtuko,NA,NA,5,NA,NA,NA,NA,NA,NA,NA,NA,NA,NA,NA,NA,NA,NA,NA,NA,NA,NA,NA
ebbe2,"""Richtig""-Screen",canvas.Screen,3_0_5_0_1_0_1,NA,NA,skipped,NA,623433,NA,NA,623430,623433,2023-08-06T08:36:49Z,623428.98,NULL,Zufall,kikuti,d,NA,NA,NA,NA,sdf,NA,5,NA,NA,NA,NA,NA,NA,NA,NA,NA,NA,NA,NA,NA,NA,NA,NA,NA,NA,NA
ebbe2,"""Falsch""-Screen",canvas.Screen,3_0_5_0_1_0_2,NA,NA,timeout,4996.24,623436,623428.72,623428.98,628408.6,628410,2023-08-06T08:36:54Z,628425.22,NULL,Zufall,kikuti,d,NA,NA,NA,NA,sdf,0,5,NA,NA,NA,NA,NA,NA,NA,NA,NA,NA,NA,NA,NA,NA,NA,NA,NA,NA,NA
ebbe2,deep,flow.Sequence,3_0_5_0_1_0,NA,NA,completion,9815.4199999999,618586,618576.52,618593.18,628408.6,628410,2023-08-06T08:36:54Z,628425.22,NULL,Zufall,kikuti,d,NA,NA,NA,NA,sdf,NA,5,NA,NA,NA,NA,NA,NA,NA,NA,NA,NA,NA,NA,NA,NA,NA,NA,NA,NA,NA
ebbe2,shallow,flow.Sequence,3_0_5_0_1_1,NA,NA,skipped,NA,628411,NA,NA,628408.6,628411,2023-08-06T08:36:54Z,628425.22,NULL,Zufall,kikuti,d,NA,NA,NA,NA,sdf,NA,5,NA,NA,NA,NA,NA,NA,NA,NA,NA,NA,NA,NA,NA,NA,NA,NA,NA,NA,NA
ebbe2,task,flow.Sequence,3_0_5_0_1,NA,NA,completion,9815.4199999999,618586,618576.52,618593.18,628408.6,628411,2023-08-06T08:36:54Z,628425.22,NULL,Zufall,kikuti,d,NA,NA,NA,NA,sdf,NA,5,NA,NA,NA,NA,NA,NA,NA,NA,NA,NA,NA,NA,NA,NA,NA,NA,NA,NA,NA
ebbe2,deep,flow.Sequence,3_0_5_0_2_0,NA,NA,skipped,NA,628411,NA,NA,628408.6,628412,2023-08-06T08:36:54Z,628425.22,NULL,Verpackung,ufungaji,s,uhusiano,upimaji,uchunguzi,NA,sdf,NA,5,NA,NA,NA,NA,NA,NA,NA,NA,NA,NA,NA,NA,NA,NA,NA,NA,NA,NA,NA
ebbe2,Shallow Question,html.Page,3_0_5_0_2_1_0,NA,NA,form submission,3966.78,628412,628408.6,628425.22,632392,632393,2023-08-06T08:36:58Z,632391.38,NULL,Verpackung,ufungaji,s,uhusiano,upimaji,uchunguzi,ufungaji,NA,NA,5,NA,NA,NA,NA,NA,NA,NA,NA,NA,NA,NA,NA,NA,NA,NA,NA,NA,NA,NA
ebbe2,"""Richtig""-Screen",canvas.Screen,3_0_5_0_2_1_1,NA,NA,timeout,4999.28,632395,632390.62,632391.38,637374.02,637376,2023-08-06T08:37:03Z,637390.66,NULL,Verpackung,ufungaji,s,uhusiano,upimaji,uchunguzi,NA,sdf,1,5,NA,NA,NA,NA,NA,NA,NA,NA,NA,NA,NA,NA,NA,NA,NA,NA,NA,NA,NA
ebbe2,"""Falsch""-Screen",canvas.Screen,3_0_5_0_2_1_2,NA,NA,skipped,NA,637381,NA,NA,637374.02,637381,2023-08-06T08:37:03Z,637390.66,NULL,Verpackung,ufungaji,s,uhusiano,upimaji,uchunguzi,NA,sdf,NA,5,NA,NA,NA,NA,NA,NA,NA,NA,NA,NA,NA,NA,NA,NA,NA,NA,NA,NA,NA
ebbe2,shallow,flow.Sequence,3_0_5_0_2_1,NA,NA,completion,8948.8,628412,628408.6,628425.22,637374.02,637381,2023-08-06T08:37:03Z,637390.66,NULL,Verpackung,ufungaji,s,uhusiano,upimaji,uchunguzi,NA,sdf,NA,5,NA,NA,NA,NA,NA,NA,NA,NA,NA,NA,NA,NA,NA,NA,NA,NA,NA,NA,NA
ebbe2,task,flow.Sequence,3_0_5_0_2,NA,NA,completion,8948.8,628411,628408.6,628425.22,637374.02,637381,2023-08-06T08:37:03Z,637390.66,NULL,Verpackung,ufungaji,s,uhusiano,upimaji,uchunguzi,NA,sdf,NA,5,NA,NA,NA,NA,NA,NA,NA,NA,NA,NA,NA,NA,NA,NA,NA,NA,NA,NA,NA
ebbe2,deep,flow.Sequence,3_0_5_0_3_0,NA,NA,skipped,NA,637382,NA,NA,637374.02,637382,2023-08-06T08:37:03Z,637390.66,NULL,Wettbewerb,ushindani,s,mapendezi,kichocheo,ubaguzi,NA,sdf,NA,5,NA,NA,NA,NA,NA,NA,NA,NA,NA,NA,NA,NA,NA,NA,NA,NA,NA,NA,NA
ebbe2,Shallow Question,html.Page,3_0_5_0_3_1_0,NA,NA,form submission,5972.34,637382,637374.02,637390.66,643363,643363,2023-08-06T08:37:09Z,643362.02,NULL,Wettbewerb,ushindani,s,mapendezi,kichocheo,ubaguzi,ushindani,NA,NA,5,NA,NA,NA,NA,NA,NA,NA,NA,NA,NA,NA,NA,NA,NA,NA,NA,NA,NA,NA
ebbe2,"""Richtig""-Screen",canvas.Screen,3_0_5_0_3_1_1,NA,NA,timeout,4993.84,643366,643361.72,643362.02,648339.32,648340,2023-08-06T08:37:14Z,648355.86,NULL,Wettbewerb,ushindani,s,mapendezi,kichocheo,ubaguzi,NA,sdf,1,5,NA,NA,NA,NA,NA,NA,NA,NA,NA,NA,NA,NA,NA,NA,NA,NA,NA,NA,NA
ebbe2,"""Falsch""-Screen",canvas.Screen,3_0_5_0_3_1_2,NA,NA,skipped,NA,648346,NA,NA,648339.32,648346,2023-08-06T08:37:14Z,648355.86,NULL,Wettbewerb,ushindani,s,mapendezi,kichocheo,ubaguzi,NA,sdf,NA,5,NA,NA,NA,NA,NA,NA,NA,NA,NA,NA,NA,NA,NA,NA,NA,NA,NA,NA,NA
ebbe2,shallow,flow.Sequence,3_0_5_0_3_1,NA,NA,completion,10948.66,637382,637374.02,637390.66,648339.32,648347,2023-08-06T08:37:14Z,648355.86,NULL,Wettbewerb,ushindani,s,mapendezi,kichocheo,ubaguzi,NA,sdf,NA,5,NA,NA,NA,NA,NA,NA,NA,NA,NA,NA,NA,NA,NA,NA,NA,NA,NA,NA,NA
ebbe2,task,flow.Sequence,3_0_5_0_3,NA,NA,completion,10948.66,637382,637374.02,637390.66,648339.32,648347,2023-08-06T08:37:14Z,648355.86,NULL,Wettbewerb,ushindani,s,mapendezi,kichocheo,ubaguzi,NA,sdf,NA,5,NA,NA,NA,NA,NA,NA,NA,NA,NA,NA,NA,NA,NA,NA,NA,NA,NA,NA,NA
ebbe2,deep,flow.Sequence,3_0_5_0_4_0,NA,NA,skipped,NA,648347,NA,NA,648339.32,648347,2023-08-06T08:37:14Z,648355.86,NULL,Hoffnung,matarajio,s,kutaalamika,uratibu,mvumbuzi,NA,sdf,NA,5,NA,NA,NA,NA,NA,NA,NA,NA,NA,NA,NA,NA,NA,NA,NA,NA,NA,NA,NA
ebbe2,Shallow Question,html.Page,3_0_5_0_4_1_0,NA,NA,form submission,6098.14,648347,648339.32,648355.86,654454,654455,2023-08-06T08:37:20Z,654455.12,NULL,Hoffnung,matarajio,s,kutaalamika,uratibu,mvumbuzi,matarajio,NA,NA,5,NA,NA,NA,NA,NA,NA,NA,NA,NA,NA,NA,NA,NA,NA,NA,NA,NA,NA,NA
ebbe2,"""Richtig""-Screen",canvas.Screen,3_0_5_0_4_1_1,NA,NA,timeout,4999.38,654457,654453.5,654455.12,659437.84,659442,2023-08-06T08:37:25Z,659454.5,NULL,Hoffnung,matarajio,s,kutaalamika,uratibu,mvumbuzi,NA,sdf,1,5,NA,NA,NA,NA,NA,NA,NA,NA,NA,NA,NA,NA,NA,NA,NA,NA,NA,NA,NA
ebbe2,"""Falsch""-Screen",canvas.Screen,3_0_5_0_4_1_2,NA,NA,skipped,NA,659454,NA,NA,659437.84,659454,2023-08-06T08:37:25Z,659454.5,NULL,Hoffnung,matarajio,s,kutaalamika,uratibu,mvumbuzi,NA,sdf,NA,5,NA,NA,NA,NA,NA,NA,NA,NA,NA,NA,NA,NA,NA,NA,NA,NA,NA,NA,NA
ebbe2,shallow,flow.Sequence,3_0_5_0_4_1,NA,NA,completion,11081.98,648347,648339.32,648355.86,659437.84,659455,2023-08-06T08:37:25Z,659454.5,NULL,Hoffnung,matarajio,s,kutaalamika,uratibu,mvumbuzi,NA,sdf,NA,5,NA,NA,NA,NA,NA,NA,NA,NA,NA,NA,NA,NA,NA,NA,NA,NA,NA,NA,NA
ebbe2,task,flow.Sequence,3_0_5_0_4,NA,NA,completion,11081.98,648347,648339.32,648355.86,659437.84,659455,2023-08-06T08:37:25Z,659454.5,NULL,Hoffnung,matarajio,s,kutaalamika,uratibu,mvumbuzi,NA,sdf,NA,5,NA,NA,NA,NA,NA,NA,NA,NA,NA,NA,NA,NA,NA,NA,NA,NA,NA,NA,NA
ebbe2,Deep Question,html.Page,3_0_5_0_5_0_0,NA,NA,form submission,4389.5,659456,659437.84,659454.5,663844,663844,2023-08-06T08:37:30Z,663843.18,NULL,Schönheit,kirembo,d,NA,NA,NA,kirembo,NA,NA,5,NA,NA,NA,NA,NA,NA,NA,NA,NA,NA,NA,NA,NA,NA,NA,NA,NA,NA,NA
ebbe2,"""Richtig""-Screen",canvas.Screen,3_0_5_0_5_0_1,NA,NA,timeout,4993.4399999999,663847,663842.8,663843.18,668819.98,668822,2023-08-06T08:37:35Z,668836.62,NULL,Schönheit,kirembo,d,NA,NA,NA,NA,sdf,1,5,NA,NA,NA,NA,NA,NA,NA,NA,NA,NA,NA,NA,NA,NA,NA,NA,NA,NA,NA
ebbe2,"""Falsch""-Screen",canvas.Screen,3_0_5_0_5_0_2,NA,NA,skipped,NA,668829,NA,NA,668819.98,668830,2023-08-06T08:37:35Z,668836.62,NULL,Schönheit,kirembo,d,NA,NA,NA,NA,sdf,NA,5,NA,NA,NA,NA,NA,NA,NA,NA,NA,NA,NA,NA,NA,NA,NA,NA,NA,NA,NA
ebbe2,deep,flow.Sequence,3_0_5_0_5_0,NA,NA,completion,9365.48,659456,659437.84,659454.5,668819.98,668830,2023-08-06T08:37:35Z,668836.62,NULL,Schönheit,kirembo,d,NA,NA,NA,NA,sdf,NA,5,NA,NA,NA,NA,NA,NA,NA,NA,NA,NA,NA,NA,NA,NA,NA,NA,NA,NA,NA
ebbe2,shallow,flow.Sequence,3_0_5_0_5_1,NA,NA,skipped,NA,668831,NA,NA,668819.98,668831,2023-08-06T08:37:35Z,668836.62,NULL,Schönheit,kirembo,d,NA,NA,NA,NA,sdf,NA,5,NA,NA,NA,NA,NA,NA,NA,NA,NA,NA,NA,NA,NA,NA,NA,NA,NA,NA,NA
ebbe2,task,flow.Sequence,3_0_5_0_5,NA,NA,completion,9365.48,659456,659437.84,659454.5,668819.98,668832,2023-08-06T08:37:35Z,668836.62,NULL,Schönheit,kirembo,d,NA,NA,NA,NA,sdf,NA,5,NA,NA,NA,NA,NA,NA,NA,NA,NA,NA,NA,NA,NA,NA,NA,NA,NA,NA,NA
ebbe2,Deep Question,html.Page,3_0_5_0_6_0_0,NA,NA,form submission,5813.38,668833,668819.98,668836.62,674650,674652,2023-08-06T08:37:40Z,674652.48,NULL,Theorie,nadharia,d,NA,NA,NA,nadharia,NA,NA,5,NA,NA,NA,NA,NA,NA,NA,NA,NA,NA,NA,NA,NA,NA,NA,NA,NA,NA,NA
ebbe2,"""Richtig""-Screen",canvas.Screen,3_0_5_0_6_0_1,NA,NA,timeout,4999.4,674654,674649.54,674652.48,679635.24,679637,2023-08-06T08:37:45Z,679651.88,NULL,Theorie,nadharia,d,NA,NA,NA,NA,sdf,1,5,NA,NA,NA,NA,NA,NA,NA,NA,NA,NA,NA,NA,NA,NA,NA,NA,NA,NA,NA
ebbe2,"""Falsch""-Screen",canvas.Screen,3_0_5_0_6_0_2,NA,NA,skipped,NA,679644,NA,NA,679635.24,679644,2023-08-06T08:37:45Z,679651.88,NULL,Theorie,nadharia,d,NA,NA,NA,NA,sdf,NA,5,NA,NA,NA,NA,NA,NA,NA,NA,NA,NA,NA,NA,NA,NA,NA,NA,NA,NA,NA
ebbe2,deep,flow.Sequence,3_0_5_0_6_0,NA,NA,completion,10798.62,668832,668819.98,668836.62,679635.24,679644,2023-08-06T08:37:45Z,679651.88,NULL,Theorie,nadharia,d,NA,NA,NA,NA,sdf,NA,5,NA,NA,NA,NA,NA,NA,NA,NA,NA,NA,NA,NA,NA,NA,NA,NA,NA,NA,NA
ebbe2,shallow,flow.Sequence,3_0_5_0_6_1,NA,NA,skipped,NA,679644,NA,NA,679635.24,679644,2023-08-06T08:37:45Z,679651.88,NULL,Theorie,nadharia,d,NA,NA,NA,NA,sdf,NA,5,NA,NA,NA,NA,NA,NA,NA,NA,NA,NA,NA,NA,NA,NA,NA,NA,NA,NA,NA
ebbe2,task,flow.Sequence,3_0_5_0_6,NA,NA,completion,10798.62,668832,668819.98,668836.62,679635.24,679645,2023-08-06T08:37:45Z,679651.88,NULL,Theorie,nadharia,d,NA,NA,NA,NA,sdf,NA,5,NA,NA,NA,NA,NA,NA,NA,NA,NA,NA,NA,NA,NA,NA,NA,NA,NA,NA,NA
ebbe2,Deep Question,html.Page,3_0_5_0_7_0_0,NA,NA,form submission,5819.12,679645,679635.24,679651.88,685471,685471,2023-08-06T08:37:51Z,685470.28,NULL,Schock,mshtuko,d,NA,NA,NA,mshtuko,NA,NA,5,NA,NA,NA,NA,NA,NA,NA,NA,NA,NA,NA,NA,NA,NA,NA,NA,NA,NA,NA
ebbe2,"""Richtig""-Screen",canvas.Screen,3_0_5_0_7_0_1,NA,NA,timeout,4996.84,685474,685470.02,685470.28,690450.46,690452,2023-08-06T08:37:56Z,690467.12,NULL,Schock,mshtuko,d,NA,NA,NA,NA,sdf,1,5,NA,NA,NA,NA,NA,NA,NA,NA,NA,NA,NA,NA,NA,NA,NA,NA,NA,NA,NA
ebbe2,"""Falsch""-Screen",canvas.Screen,3_0_5_0_7_0_2,NA,NA,skipped,NA,690459,NA,NA,690450.46,690459,2023-08-06T08:37:56Z,690467.12,NULL,Schock,mshtuko,d,NA,NA,NA,NA,sdf,NA,5,NA,NA,NA,NA,NA,NA,NA,NA,NA,NA,NA,NA,NA,NA,NA,NA,NA,NA,NA
ebbe2,deep,flow.Sequence,3_0_5_0_7_0,NA,NA,completion,10798.58,679645,679635.24,679651.88,690450.46,690459,2023-08-06T08:37:56Z,690467.12,NULL,Schock,mshtuko,d,NA,NA,NA,NA,sdf,NA,5,NA,NA,NA,NA,NA,NA,NA,NA,NA,NA,NA,NA,NA,NA,NA,NA,NA,NA,NA
ebbe2,shallow,flow.Sequence,3_0_5_0_7_1,NA,NA,skipped,NA,690460,NA,NA,690450.46,690460,2023-08-06T08:37:56Z,690467.12,NULL,Schock,mshtuko,d,NA,NA,NA,NA,sdf,NA,5,NA,NA,NA,NA,NA,NA,NA,NA,NA,NA,NA,NA,NA,NA,NA,NA,NA,NA,NA
ebbe2,task,flow.Sequence,3_0_5_0_7,NA,NA,completion,10798.58,679645,679635.24,679651.88,690450.46,690461,2023-08-06T08:37:56Z,690467.12,NULL,Schock,mshtuko,d,NA,NA,NA,NA,sdf,NA,5,NA,NA,NA,NA,NA,NA,NA,NA,NA,NA,NA,NA,NA,NA,NA,NA,NA,NA,NA
ebbe2,block,flow.Loop,3_0_5_0,NA,NA,completion,85138.62,605311,605311.46,605311.84,690450.46,690461,2023-08-06T08:37:56Z,690467.12,NULL,NA,NA,NA,NA,NA,NA,NA,sdf,NA,5,NA,NA,NA,NA,NA,NA,NA,NA,NA,NA,NA,NA,NA,NA,NA,NA,NA,NA,NA
ebbe2,weiter,canvas.Screen,3_0_5_1,sdf,keypress(Space),response,1027.88,690461,690450.46,690467.12,691495,691510,2023-08-06T08:37:57Z,692194.64,NULL,NA,NA,NA,NA,NA,NA,NA,sdf,NA,5,NA,NA,NA,NA,NA,NA,NA,NA,NA,NA,NA,NA,NA,NA,NA,NA,NA,NA,NA
ebbe2,check continue,flow.Sequence,3_0_5,NA,NA,completion,86183.16,605311,605311.46,605311.84,691495,691511,2023-08-06T08:37:57Z,692194.64,NULL,NA,NA,NA,NA,NA,NA,NA,sdf,NA,5,NA,NA,NA,NA,NA,NA,NA,NA,NA,NA,NA,NA,NA,NA,NA,NA,NA,NA,NA
ebbe2,check continue,flow.Sequence,3_0_6,NA,NA,skipped,NA,691572,NA,NA,691495,691572,2023-08-06T08:37:57Z,692194.64,NULL,NA,NA,NA,NA,NA,NA,NA,dfs,NA,6,NA,NA,NA,NA,NA,NA,NA,NA,NA,NA,NA,NA,NA,NA,NA,NA,NA,NA,NA
ebbe2,check continue,flow.Sequence,3_0_7,NA,NA,skipped,NA,691602,NA,NA,691495,691602,2023-08-06T08:37:57Z,692194.64,NULL,NA,NA,NA,NA,NA,NA,NA,df,NA,7,NA,NA,NA,NA,NA,NA,NA,NA,NA,NA,NA,NA,NA,NA,NA,NA,NA,NA,NA
ebbe2,check continue,flow.Sequence,3_0_8,NA,NA,skipped,NA,691631,NA,NA,691495,691631,2023-08-06T08:37:57Z,692194.64,NULL,NA,NA,NA,NA,NA,NA,NA,dfs,NA,8,NA,NA,NA,NA,NA,NA,NA,NA,NA,NA,NA,NA,NA,NA,NA,NA,NA,NA,NA
ebbe2,check continue,flow.Sequence,3_0_9,NA,NA,skipped,NA,691659,NA,NA,691495,691659,2023-08-06T08:37:57Z,692194.64,NULL,NA,NA,NA,NA,NA,NA,NA,dsf,NA,9,NA,NA,NA,NA,NA,NA,NA,NA,NA,NA,NA,NA,NA,NA,NA,NA,NA,NA,NA
ebbe2,check continue,flow.Sequence,3_0_10,NA,NA,skipped,NA,691688,NA,NA,691495,691688,2023-08-06T08:37:57Z,692194.64,NULL,NA,NA,NA,NA,NA,NA,NA,df,NA,10,NA,NA,NA,NA,NA,NA,NA,NA,NA,NA,NA,NA,NA,NA,NA,NA,NA,NA,NA
ebbe2,check continue,flow.Sequence,3_0_11,NA,NA,skipped,NA,691718,NA,NA,691495,691718,2023-08-06T08:37:57Z,692194.64,NULL,NA,NA,NA,NA,NA,NA,NA,dfs,NA,11,NA,NA,NA,NA,NA,NA,NA,NA,NA,NA,NA,NA,NA,NA,NA,NA,NA,NA,NA
ebbe2,check continue,flow.Sequence,3_0_12,NA,NA,skipped,NA,691744,NA,NA,691495,691744,2023-08-06T08:37:57Z,692194.64,NULL,NA,NA,NA,NA,NA,NA,NA,dsf,NA,12,NA,NA,NA,NA,NA,NA,NA,NA,NA,NA,NA,NA,NA,NA,NA,NA,NA,NA,NA
ebbe2,check continue,flow.Sequence,3_0_13,NA,NA,skipped,NA,691777,NA,NA,691495,691777,2023-08-06T08:37:58Z,692194.64,NULL,NA,NA,NA,NA,NA,NA,NA,dsf,NA,13,NA,NA,NA,NA,NA,NA,NA,NA,NA,NA,NA,NA,NA,NA,NA,NA,NA,NA,NA
ebbe2,check continue,flow.Sequence,3_0_14,NA,NA,skipped,NA,691807,NA,NA,691495,691807,2023-08-06T08:37:58Z,692194.64,NULL,NA,NA,NA,NA,NA,NA,NA,NA,NA,14,NA,NA,NA,NA,NA,NA,NA,NA,NA,NA,NA,NA,NA,NA,NA,NA,NA,NA,NA
ebbe2,check continue,flow.Sequence,3_0_15,NA,NA,skipped,NA,691831,NA,NA,691495,691832,2023-08-06T08:37:58Z,692194.64,NULL,NA,NA,NA,NA,NA,NA,NA,NA,NA,15,NA,NA,NA,NA,NA,NA,NA,NA,NA,NA,NA,NA,NA,NA,NA,NA,NA,NA,NA
ebbe2,check continue,flow.Sequence,3_0_16,NA,NA,skipped,NA,691860,NA,NA,691495,691860,2023-08-06T08:37:58Z,692194.64,NULL,NA,NA,NA,NA,NA,NA,NA,NA,NA,16,NA,NA,NA,NA,NA,NA,NA,NA,NA,NA,NA,NA,NA,NA,NA,NA,NA,NA,NA
ebbe2,check continue,flow.Sequence,3_0_17,NA,NA,skipped,NA,691886,NA,NA,691495,691886,2023-08-06T08:37:58Z,692194.64,NULL,NA,NA,NA,NA,NA,NA,NA,NA,NA,17,NA,NA,NA,NA,NA,NA,NA,NA,NA,NA,NA,NA,NA,NA,NA,NA,NA,NA,NA
ebbe2,check continue,flow.Sequence,3_0_18,NA,NA,skipped,NA,691911,NA,NA,691495,691911,2023-08-06T08:37:58Z,692194.64,NULL,NA,NA,NA,NA,NA,NA,NA,NA,NA,18,NA,NA,NA,NA,NA,NA,NA,NA,NA,NA,NA,NA,NA,NA,NA,NA,NA,NA,NA
ebbe2,check continue,flow.Sequence,3_0_19,NA,NA,skipped,NA,691937,NA,NA,691495,691937,2023-08-06T08:37:58Z,692194.64,NULL,NA,NA,NA,NA,NA,NA,NA,NA,NA,19,NA,NA,NA,NA,NA,NA,NA,NA,NA,NA,NA,NA,NA,NA,NA,NA,NA,NA,NA
ebbe2,check continue,flow.Sequence,3_0_20,NA,NA,skipped,NA,691962,NA,NA,691495,691962,2023-08-06T08:37:58Z,692194.64,NULL,NA,NA,NA,NA,NA,NA,NA,NA,NA,20,NA,NA,NA,NA,NA,NA,NA,NA,NA,NA,NA,NA,NA,NA,NA,NA,NA,NA,NA
ebbe2,check continue,flow.Sequence,3_0_21,NA,NA,skipped,NA,691986,NA,NA,691495,691986,2023-08-06T08:37:58Z,692194.64,NULL,NA,NA,NA,NA,NA,NA,NA,NA,NA,21,NA,NA,NA,NA,NA,NA,NA,NA,NA,NA,NA,NA,NA,NA,NA,NA,NA,NA,NA
ebbe2,check continue,flow.Sequence,3_0_22,NA,NA,skipped,NA,692013,NA,NA,691495,692013,2023-08-06T08:37:58Z,692194.64,NULL,NA,NA,NA,NA,NA,NA,NA,NA,NA,22,NA,NA,NA,NA,NA,NA,NA,NA,NA,NA,NA,NA,NA,NA,NA,NA,NA,NA,NA
ebbe2,check continue,flow.Sequence,3_0_23,NA,NA,skipped,NA,692041,NA,NA,691495,692041,2023-08-06T08:37:58Z,692194.64,NULL,NA,NA,NA,NA,NA,NA,NA,NA,NA,23,NA,NA,NA,NA,NA,NA,NA,NA,NA,NA,NA,NA,NA,NA,NA,NA,NA,NA,NA
ebbe2,check continue,flow.Sequence,3_0_24,NA,NA,skipped,NA,692066,NA,NA,691495,692066,2023-08-06T08:37:58Z,692194.64,NULL,NA,NA,NA,NA,NA,NA,NA,NA,NA,24,NA,NA,NA,NA,NA,NA,NA,NA,NA,NA,NA,NA,NA,NA,NA,NA,NA,NA,NA
ebbe2,check continue,flow.Sequence,3_0_25,NA,NA,skipped,NA,692091,NA,NA,691495,692091,2023-08-06T08:37:58Z,692194.64,NULL,NA,NA,NA,NA,NA,NA,NA,NA,NA,25,NA,NA,NA,NA,NA,NA,NA,NA,NA,NA,NA,NA,NA,NA,NA,NA,NA,NA,NA
ebbe2,check continue,flow.Sequence,3_0_26,NA,NA,skipped,NA,692116,NA,NA,691495,692116,2023-08-06T08:37:58Z,692194.64,NULL,NA,NA,NA,NA,NA,NA,NA,NA,NA,26,NA,NA,NA,NA,NA,NA,NA,NA,NA,NA,NA,NA,NA,NA,NA,NA,NA,NA,NA
ebbe2,check continue,flow.Sequence,3_0_27,NA,NA,skipped,NA,692143,NA,NA,691495,692143,2023-08-06T08:37:58Z,692194.64,NULL,NA,NA,NA,NA,NA,NA,NA,NA,NA,27,NA,NA,NA,NA,NA,NA,NA,NA,NA,NA,NA,NA,NA,NA,NA,NA,NA,NA,NA
ebbe2,check continue,flow.Sequence,3_0_28,NA,NA,skipped,NA,692166,NA,NA,691495,692166,2023-08-06T08:37:58Z,692194.64,NULL,NA,NA,NA,NA,NA,NA,NA,NA,NA,28,NA,NA,NA,NA,NA,NA,NA,NA,NA,NA,NA,NA,NA,NA,NA,NA,NA,NA,NA
ebbe2,check continue,flow.Sequence,3_0_29,NA,NA,skipped,NA,692194,NA,NA,691495,692194,2023-08-06T08:37:58Z,692194.64,NULL,NA,NA,NA,NA,NA,NA,NA,NA,NA,29,NA,NA,NA,NA,NA,NA,NA,NA,NA,NA,NA,NA,NA,NA,NA,NA,NA,NA,NA
ebbe2,until continue,flow.Loop,3_0,NA,NA,completion,585009.56,106452,106485.1,106485.44,691495,692194,2023-08-06T08:37:58Z,692194.64,NULL,NA,NA,NA,NA,NA,NA,NA,NA,NA,NA,NA,NA,NA,NA,NA,NA,NA,NA,NA,NA,NA,NA,NA,NA,NA,NA,NA,NA,NA
ebbe2,block 1,flow.Sequence,3,NA,NA,completion,585009.56,106452,106485.1,106485.44,691495,692194,2023-08-06T08:37:58Z,692194.64,NULL,NA,NA,NA,NA,NA,NA,NA,NA,NA,NA,NA,NA,NA,NA,NA,NA,NA,NA,NA,NA,NA,NA,NA,NA,NA,NA,NA,NA,NA
ebbe2,1.Part Over,canvas.Screen,4,NA,keypress(Space),response,2346.36,692194,692194.32,692194.64,694541,694550,2023-08-06T08:38:00Z,694627.46,NULL,NA,NA,NA,NA,NA,NA,NA,NA,NA,NA,NA,NA,NA,NA,NA,NA,NA,NA,NA,NA,NA,NA,NA,NA,NA,NA,NA,NA,NA
ebbe2,Deep Question,html.Page,5_0_0_0_0_0_0,NA,NA,form submission,4422.54,694627,694627.14,694627.46,699050,699050,2023-08-06T08:38:05Z,699049.22,NULL,Ergänzung,kijalizo,d,NA,NA,NA,tiko,NA,NA,0,NA,NA,NA,NA,NA,NA,NA,NA,NA,NA,NA,NA,NA,NA,NA,NA,NA,NA,NA
ebbe2,"""Richtig""-Screen",canvas.Screen,5_0_0_0_0_0_1,NA,NA,skipped,NA,699051,NA,NA,699050,699051,2023-08-06T08:38:05Z,699049.22,NULL,Ergänzung,kijalizo,d,NA,NA,NA,NA,sdf,NA,0,NA,NA,NA,NA,NA,NA,NA,NA,NA,NA,NA,NA,NA,NA,NA,NA,NA,NA,NA
ebbe2,"""Falsch""-Screen",canvas.Screen,5_0_0_0_0_0_2,NA,NA,timeout,4999.4,699053,699048.32,699049.22,704031.96,704033,2023-08-06T08:38:10Z,704048.62,NULL,Ergänzung,kijalizo,d,NA,NA,NA,NA,sdf,0,0,NA,NA,NA,NA,NA,NA,NA,NA,NA,NA,NA,NA,NA,NA,NA,NA,NA,NA,NA
ebbe2,deep,flow.Sequence,5_0_0_0_0_0,NA,NA,completion,9404.5,694627,694627.14,694627.46,704031.96,704033,2023-08-06T08:38:10Z,704048.62,NULL,Ergänzung,kijalizo,d,NA,NA,NA,NA,sdf,NA,0,NA,NA,NA,NA,NA,NA,NA,NA,NA,NA,NA,NA,NA,NA,NA,NA,NA,NA,NA
ebbe2,shallow,flow.Sequence,5_0_0_0_0_1,NA,NA,skipped,NA,704033,NA,NA,704031.96,704033,2023-08-06T08:38:10Z,704048.62,NULL,Ergänzung,kijalizo,d,NA,NA,NA,NA,sdf,NA,0,NA,NA,NA,NA,NA,NA,NA,NA,NA,NA,NA,NA,NA,NA,NA,NA,NA,NA,NA
ebbe2,task,flow.Sequence,5_0_0_0_0,NA,NA,completion,9404.5,694627,694627.14,694627.46,704031.96,704033,2023-08-06T08:38:10Z,704048.62,NULL,Ergänzung,kijalizo,d,NA,NA,NA,NA,sdf,NA,0,NA,NA,NA,NA,NA,NA,NA,NA,NA,NA,NA,NA,NA,NA,NA,NA,NA,NA,NA
ebbe2,Deep Question,html.Page,5_0_0_0_1_0_0,NA,NA,form submission,4311.38,704034,704031.96,704048.62,708360,708361,2023-08-06T08:38:14Z,708364.72,NULL,Wohlstand,mafanikio,d,NA,NA,NA,kijalizo,NA,NA,0,NA,NA,NA,NA,NA,NA,NA,NA,NA,NA,NA,NA,NA,NA,NA,NA,NA,NA,NA
ebbe2,"""Richtig""-Screen",canvas.Screen,5_0_0_0_1_0_1,NA,NA,skipped,NA,708363,NA,NA,708360,708363,2023-08-06T08:38:14Z,708364.72,NULL,Wohlstand,mafanikio,d,NA,NA,NA,NA,sdf,NA,0,NA,NA,NA,NA,NA,NA,NA,NA,NA,NA,NA,NA,NA,NA,NA,NA,NA,NA,NA
ebbe2,"""Falsch""-Screen",canvas.Screen,5_0_0_0_1_0_2,NA,NA,timeout,4999.4600000001,708365,708359.08,708364.72,713347.52,713351,2023-08-06T08:38:19Z,713364.18,NULL,Wohlstand,mafanikio,d,NA,NA,NA,NA,sdf,0,0,NA,NA,NA,NA,NA,NA,NA,NA,NA,NA,NA,NA,NA,NA,NA,NA,NA,NA,NA
ebbe2,deep,flow.Sequence,5_0_0_0_1_0,NA,NA,completion,9298.9,704034,704031.96,704048.62,713347.52,713352,2023-08-06T08:38:19Z,713364.18,NULL,Wohlstand,mafanikio,d,NA,NA,NA,NA,sdf,NA,0,NA,NA,NA,NA,NA,NA,NA,NA,NA,NA,NA,NA,NA,NA,NA,NA,NA,NA,NA
ebbe2,shallow,flow.Sequence,5_0_0_0_1_1,NA,NA,skipped,NA,713353,NA,NA,713347.52,713353,2023-08-06T08:38:19Z,713364.18,NULL,Wohlstand,mafanikio,d,NA,NA,NA,NA,sdf,NA,0,NA,NA,NA,NA,NA,NA,NA,NA,NA,NA,NA,NA,NA,NA,NA,NA,NA,NA,NA
ebbe2,task,flow.Sequence,5_0_0_0_1,NA,NA,completion,9298.9,704033,704031.96,704048.62,713347.52,713354,2023-08-06T08:38:19Z,713364.18,NULL,Wohlstand,mafanikio,d,NA,NA,NA,NA,sdf,NA,0,NA,NA,NA,NA,NA,NA,NA,NA,NA,NA,NA,NA,NA,NA,NA,NA,NA,NA,NA
ebbe2,deep,flow.Sequence,5_0_0_0_2_0,NA,NA,skipped,NA,713356,NA,NA,713347.52,713356,2023-08-06T08:38:19Z,713364.18,NULL,Gelegenheit,wakati,s,mchanganyiko,kipaumbele,kushuku,NA,sdf,NA,0,NA,NA,NA,NA,NA,NA,NA,NA,NA,NA,NA,NA,NA,NA,NA,NA,NA,NA,NA
ebbe2,Shallow Question,html.Page,5_0_0_0_2_1_0,NA,NA,form submission,5469.8199999999,713356,713347.52,713364.18,718834,718835,2023-08-06T08:38:25Z,718833,NULL,Gelegenheit,wakati,s,mchanganyiko,kipaumbele,kushuku,wakati,NA,NA,0,NA,NA,NA,NA,NA,NA,NA,NA,NA,NA,NA,NA,NA,NA,NA,NA,NA,NA,NA
ebbe2,"""Richtig""-Screen",canvas.Screen,5_0_0_0_2_1_1,NA,NA,timeout,4996.4399999999,718843,718832.64,718833,723812.82,723815,2023-08-06T08:38:30Z,723829.44,NULL,Gelegenheit,wakati,s,mchanganyiko,kipaumbele,kushuku,NA,sdf,1,0,NA,NA,NA,NA,NA,NA,NA,NA,NA,NA,NA,NA,NA,NA,NA,NA,NA,NA,NA
ebbe2,"""Falsch""-Screen",canvas.Screen,5_0_0_0_2_1_2,NA,NA,skipped,NA,723823,NA,NA,723812.82,723823,2023-08-06T08:38:30Z,723829.44,NULL,Gelegenheit,wakati,s,mchanganyiko,kipaumbele,kushuku,NA,sdf,NA,0,NA,NA,NA,NA,NA,NA,NA,NA,NA,NA,NA,NA,NA,NA,NA,NA,NA,NA,NA
ebbe2,shallow,flow.Sequence,5_0_0_0_2_1,NA,NA,completion,10448.64,713356,713347.52,713364.18,723812.82,723824,2023-08-06T08:38:30Z,723829.44,NULL,Gelegenheit,wakati,s,mchanganyiko,kipaumbele,kushuku,NA,sdf,NA,0,NA,NA,NA,NA,NA,NA,NA,NA,NA,NA,NA,NA,NA,NA,NA,NA,NA,NA,NA
ebbe2,task,flow.Sequence,5_0_0_0_2,NA,NA,completion,10448.64,713355,713347.52,713364.18,723812.82,723824,2023-08-06T08:38:30Z,723829.44,NULL,Gelegenheit,wakati,s,mchanganyiko,kipaumbele,kushuku,NA,sdf,NA,0,NA,NA,NA,NA,NA,NA,NA,NA,NA,NA,NA,NA,NA,NA,NA,NA,NA,NA,NA
ebbe2,deep,flow.Sequence,5_0_0_0_3_0,NA,NA,skipped,NA,723825,NA,NA,723812.82,723825,2023-08-06T08:38:30Z,723829.44,NULL,Notfall,dharura,s,rairai,malalamiko,ahueni,NA,sdf,NA,0,NA,NA,NA,NA,NA,NA,NA,NA,NA,NA,NA,NA,NA,NA,NA,NA,NA,NA,NA
ebbe2,Shallow Question,html.Page,5_0_0_0_3_1_0,NA,NA,form submission,6702.5600000001,723826,723812.82,723829.44,730532,730533,2023-08-06T08:38:36Z,730530.62,NULL,Notfall,dharura,s,rairai,malalamiko,ahueni,dharura,NA,NA,0,NA,NA,NA,NA,NA,NA,NA,NA,NA,NA,NA,NA,NA,NA,NA,NA,NA,NA,NA
ebbe2,"""Richtig""-Screen",canvas.Screen,5_0_0_0_3_1_1,NA,NA,timeout,4997.28,730537,730530.3,730530.62,735511.26,735513,2023-08-06T08:38:41Z,735527.9,NULL,Notfall,dharura,s,rairai,malalamiko,ahueni,NA,sdf,1,0,NA,NA,NA,NA,NA,NA,NA,NA,NA,NA,NA,NA,NA,NA,NA,NA,NA,NA,NA
ebbe2,"""Falsch""-Screen",canvas.Screen,5_0_0_0_3_1_2,NA,NA,skipped,NA,735517,NA,NA,735511.26,735518,2023-08-06T08:38:41Z,735527.9,NULL,Notfall,dharura,s,rairai,malalamiko,ahueni,NA,sdf,NA,0,NA,NA,NA,NA,NA,NA,NA,NA,NA,NA,NA,NA,NA,NA,NA,NA,NA,NA,NA
ebbe2,shallow,flow.Sequence,5_0_0_0_3_1,NA,NA,completion,11681.82,723826,723812.82,723829.44,735511.26,735518,2023-08-06T08:38:41Z,735527.9,NULL,Notfall,dharura,s,rairai,malalamiko,ahueni,NA,sdf,NA,0,NA,NA,NA,NA,NA,NA,NA,NA,NA,NA,NA,NA,NA,NA,NA,NA,NA,NA,NA
ebbe2,task,flow.Sequence,5_0_0_0_3,NA,NA,completion,11681.82,723824,723812.82,723829.44,735511.26,735518,2023-08-06T08:38:41Z,735527.9,NULL,Notfall,dharura,s,rairai,malalamiko,ahueni,NA,sdf,NA,0,NA,NA,NA,NA,NA,NA,NA,NA,NA,NA,NA,NA,NA,NA,NA,NA,NA,NA,NA
