observation,sender,sender_type,sender_id,response,response_action,ended_on,duration,time_run,time_render,time_show,time_end,time_commit,timestamp,time_switch,german,swahili,enc,distractor1,distractor2,distractor3,response_2,x,correct,distractors,url_vp,url_sess,meta_labjs_version,meta_location,meta_user_agent,meta_platform,meta_language,meta_locale,meta_time_zone,meta_timezone_offset,meta_screen_width,meta_screen_height,meta_scroll_width,meta_scroll_height,meta_window_inner_width,meta_window_inner_height,meta_device_pixel_ratio,meta_labjs_build_flavor,meta_labjs_build_commit
5e280,Introduction delayed retrieval,canvas.Screen,0,weiter,keypress(Space),response,16956.76,824,830.56,847.24,17804,17814,2023-04-07T07:26:46Z,17816.28,NA,NA,NA,NA,NA,NA,NA,NA,NA,NULL,207,2,20.2.4,https://neurocog.fernuni.ch/studies/vweber/sfink/delayed/index.html?vp=207&sess=2,Mozilla/5.0 (Windows NT 10.0; Win64; x64; rv:109.0) Gecko/20100101 Firefox/111.0,Win32,de,de-CH,Europe/Zurich,-120,1280,720,1280,539,1280,539,2.5,production,f5b4a49f956347addd546a832a3327688c2c0fef
5e280,Deep Question,html.Page,1_0_0_0,NA,NA,form submission,95120.72,17816,17816.1,17816.28,112937,112938,2023-04-07T07:28:21Z,112952.08,Vorsorge,tahadhari,s,ufafanuzi,makini,mashambani,presor,NA,NA,NULL,NA,NA,NA,NA,NA,NA,NA,NA,NA,NA,NA,NA,NA,NA,NA,NA,NA,NA,NA
5e280,Save data screen,canvas.Screen,1_0_0_1,NA,NA,timeout,499.95999999999,112941,112935.4,112952.08,113435.38,113436,2023-04-07T07:28:21Z,113452.04,Vorsorge,tahadhari,s,ufafanuzi,makini,mashambani,NA,NA,0,NULL,NA,NA,NA,NA,NA,NA,NA,NA,NA,NA,NA,NA,NA,NA,NA,NA,NA,NA,NA
5e280,deep,flow.Sequence,1_0_0,NA,NA,completion,95619.1,17816,17816.1,17816.28,113435.38,113437,2023-04-07T07:28:21Z,113452.04,Vorsorge,tahadhari,s,ufafanuzi,makini,mashambani,NA,NA,NA,NULL,NA,NA,NA,NA,NA,NA,NA,NA,NA,NA,NA,NA,NA,NA,NA,NA,NA,NA,NA
5e280,task,flow.Sequence,1_0,NA,NA,completion,95619.1,17816,17816.1,17816.28,113435.38,113437,2023-04-07T07:28:21Z,113452.04,Vorsorge,tahadhari,s,ufafanuzi,makini,mashambani,NA,NA,NA,NULL,NA,NA,NA,NA,NA,NA,NA,NA,NA,NA,NA,NA,NA,NA,NA,NA,NA,NA,NA
5e280,Deep Question,html.Page,1_1_0_0,NA,NA,form submission,36905.96,113438,113435.38,113452.04,150358,150359,2023-04-07T07:28:58Z,150366.44,Sympathie,mapendano,d,dhamiria,fungamano,maazimio,kik,NA,NA,NULL,NA,NA,NA,NA,NA,NA,NA,NA,NA,NA,NA,NA,NA,NA,NA,NA,NA,NA,NA
5e280,Save data screen,canvas.Screen,1_1_0_1,NA,NA,timeout,499.98000000001,150361,150356.78,150366.44,150849.74,150851,2023-04-07T07:28:59Z,150866.42,Sympathie,mapendano,d,dhamiria,fungamano,maazimio,NA,NA,0,NULL,NA,NA,NA,NA,NA,NA,NA,NA,NA,NA,NA,NA,NA,NA,NA,NA,NA,NA,NA
5e280,deep,flow.Sequence,1_1_0,NA,NA,completion,37397.7,113438,113435.38,113452.04,150849.74,150852,2023-04-07T07:28:59Z,150866.42,Sympathie,mapendano,d,dhamiria,fungamano,maazimio,NA,NA,NA,NULL,NA,NA,NA,NA,NA,NA,NA,NA,NA,NA,NA,NA,NA,NA,NA,NA,NA,NA,NA
5e280,task,flow.Sequence,1_1,NA,NA,completion,37397.7,113438,113435.38,113452.04,150849.74,150852,2023-04-07T07:28:59Z,150866.42,Sympathie,mapendano,d,dhamiria,fungamano,maazimio,NA,NA,NA,NULL,NA,NA,NA,NA,NA,NA,NA,NA,NA,NA,NA,NA,NA,NA,NA,NA,NA,NA,NA
5e280,Deep Question,html.Page,1_2_0_0,NA,NA,form submission,11197.58,150853,150849.74,150866.42,162064,162064,2023-04-07T07:29:10Z,162075.58,Ausschluss,kutengwa,s,ununuzi,taratibu,madeni,a,NA,NA,NULL,NA,NA,NA,NA,NA,NA,NA,NA,NA,NA,NA,NA,NA,NA,NA,NA,NA,NA,NA
5e280,Save data screen,canvas.Screen,1_2_0_1,NA,NA,timeout,499.98000000001,162066,162062.9,162075.58,162558.9,162560,2023-04-07T07:29:11Z,162575.56,Ausschluss,kutengwa,s,ununuzi,taratibu,madeni,NA,NA,0,NULL,NA,NA,NA,NA,NA,NA,NA,NA,NA,NA,NA,NA,NA,NA,NA,NA,NA,NA,NA
5e280,deep,flow.Sequence,1_2_0,NA,NA,completion,11692.48,150853,150849.74,150866.42,162558.9,162561,2023-04-07T07:29:11Z,162575.56,Ausschluss,kutengwa,s,ununuzi,taratibu,madeni,NA,NA,NA,NULL,NA,NA,NA,NA,NA,NA,NA,NA,NA,NA,NA,NA,NA,NA,NA,NA,NA,NA,NA
5e280,task,flow.Sequence,1_2,NA,NA,completion,11692.48,150853,150849.74,150866.42,162558.9,162561,2023-04-07T07:29:11Z,162575.56,Ausschluss,kutengwa,s,ununuzi,taratibu,madeni,NA,NA,NA,NULL,NA,NA,NA,NA,NA,NA,NA,NA,NA,NA,NA,NA,NA,NA,NA,NA,NA,NA,NA
5e280,Deep Question,html.Page,1_3_0_0,NA,NA,form submission,48029.44,162561,162558.9,162575.56,210605,210605,2023-04-07T07:29:59Z,210603.86,Widerstand,usulubu,d,kusababisha,mwalimu,mwenendo,unulubu,NA,NA,NULL,NA,NA,NA,NA,NA,NA,NA,NA,NA,NA,NA,NA,NA,NA,NA,NA,NA,NA,NA
5e280,Save data screen,canvas.Screen,1_3_0_1,NA,NA,timeout,495.74000000002,210606,210603.7,210603.86,211082.94,211085,2023-04-07T07:29:59Z,211099.6,Widerstand,usulubu,d,kusababisha,mwalimu,mwenendo,NA,NA,0,NULL,NA,NA,NA,NA,NA,NA,NA,NA,NA,NA,NA,NA,NA,NA,NA,NA,NA,NA,NA
5e280,deep,flow.Sequence,1_3_0,NA,NA,completion,48507.38,162561,162558.9,162575.56,211082.94,211087,2023-04-07T07:29:59Z,211099.6,Widerstand,usulubu,d,kusababisha,mwalimu,mwenendo,NA,NA,NA,NULL,NA,NA,NA,NA,NA,NA,NA,NA,NA,NA,NA,NA,NA,NA,NA,NA,NA,NA,NA
5e280,task,flow.Sequence,1_3,NA,NA,completion,48507.38,162561,162558.9,162575.56,211082.94,211088,2023-04-07T07:29:59Z,211099.6,Widerstand,usulubu,d,kusababisha,mwalimu,mwenendo,NA,NA,NA,NULL,NA,NA,NA,NA,NA,NA,NA,NA,NA,NA,NA,NA,NA,NA,NA,NA,NA,NA,NA
5e280,Deep Question,html.Page,1_4_0_0,NA,NA,form submission,18568.4,211089,211082.94,211099.6,229668,229669,2023-04-07T07:30:18Z,229679.48,Polizist,msongora,s,simanzi,mandhari,nidhamu,senzi,NA,NA,NULL,NA,NA,NA,NA,NA,NA,NA,NA,NA,NA,NA,NA,NA,NA,NA,NA,NA,NA,NA
5e280,Save data screen,canvas.Screen,1_4_0_1,NA,NA,timeout,500,229672,229668.1,229679.48,230162.86,230165,2023-04-07T07:30:18Z,230179.48,Polizist,msongora,s,simanzi,mandhari,nidhamu,NA,NA,0,NULL,NA,NA,NA,NA,NA,NA,NA,NA,NA,NA,NA,NA,NA,NA,NA,NA,NA,NA,NA
5e280,deep,flow.Sequence,1_4_0,NA,NA,completion,19063.26,211089,211082.94,211099.6,230162.86,230166,2023-04-07T07:30:18Z,230179.48,Polizist,msongora,s,simanzi,mandhari,nidhamu,NA,NA,NA,NULL,NA,NA,NA,NA,NA,NA,NA,NA,NA,NA,NA,NA,NA,NA,NA,NA,NA,NA,NA
5e280,task,flow.Sequence,1_4,NA,NA,completion,19063.26,211088,211082.94,211099.6,230162.86,230166,2023-04-07T07:30:18Z,230179.48,Polizist,msongora,s,simanzi,mandhari,nidhamu,NA,NA,NA,NULL,NA,NA,NA,NA,NA,NA,NA,NA,NA,NA,NA,NA,NA,NA,NA,NA,NA,NA,NA
5e280,Deep Question,html.Page,1_5_0_0,NA,NA,form submission,23811.52,230167,230162.86,230179.48,253991,253991,2023-04-07T07:30:42Z,253998.64,Konkurrent,mshindani,s,msemaji,mvutaji,kipukusa,ushindani,NA,NA,NULL,NA,NA,NA,NA,NA,NA,NA,NA,NA,NA,NA,NA,NA,NA,NA,NA,NA,NA,NA
5e280,Save data screen,canvas.Screen,1_5_0_1,NA,NA,timeout,500.01999999999,253993,253990.32,253998.64,254482,254482,2023-04-07T07:30:42Z,254498.66,Konkurrent,mshindani,s,msemaji,mvutaji,kipukusa,NA,NA,0,NULL,NA,NA,NA,NA,NA,NA,NA,NA,NA,NA,NA,NA,NA,NA,NA,NA,NA,NA,NA
5e280,deep,flow.Sequence,1_5_0,NA,NA,completion,24302.52,230167,230162.86,230179.48,254482,254483,2023-04-07T07:30:42Z,254498.66,Konkurrent,mshindani,s,msemaji,mvutaji,kipukusa,NA,NA,NA,NULL,NA,NA,NA,NA,NA,NA,NA,NA,NA,NA,NA,NA,NA,NA,NA,NA,NA,NA,NA
5e280,task,flow.Sequence,1_5,NA,NA,completion,24302.52,230167,230162.86,230179.48,254482,254484,2023-04-07T07:30:42Z,254498.66,Konkurrent,mshindani,s,msemaji,mvutaji,kipukusa,NA,NA,NA,NULL,NA,NA,NA,NA,NA,NA,NA,NA,NA,NA,NA,NA,NA,NA,NA,NA,NA,NA,NA
5e280,Deep Question,html.Page,1_6_0_0,NA,NA,form submission,25739.34,254484,254482,254498.66,280238,280239,2023-04-07T07:31:08Z,280239.64,Auftrag,uagizaji,s,ghanima,kuzingatia,msukani,exersizi,NA,NA,NULL,NA,NA,NA,NA,NA,NA,NA,NA,NA,NA,NA,NA,NA,NA,NA,NA,NA,NA,NA
5e280,Save data screen,canvas.Screen,1_6_0_1,NA,NA,timeout,500.06,280243,280236.96,280239.64,280723.06,280724,2023-04-07T07:31:09Z,280739.7,Auftrag,uagizaji,s,ghanima,kuzingatia,msukani,NA,NA,0,NULL,NA,NA,NA,NA,NA,NA,NA,NA,NA,NA,NA,NA,NA,NA,NA,NA,NA,NA,NA
5e280,deep,flow.Sequence,1_6_0,NA,NA,completion,26224.4,254484,254482,254498.66,280723.06,280726,2023-04-07T07:31:09Z,280739.7,Auftrag,uagizaji,s,ghanima,kuzingatia,msukani,NA,NA,NA,NULL,NA,NA,NA,NA,NA,NA,NA,NA,NA,NA,NA,NA,NA,NA,NA,NA,NA,NA,NA
5e280,task,flow.Sequence,1_6,NA,NA,completion,26224.4,254484,254482,254498.66,280723.06,280726,2023-04-07T07:31:09Z,280739.7,Auftrag,uagizaji,s,ghanima,kuzingatia,msukani,NA,NA,NA,NULL,NA,NA,NA,NA,NA,NA,NA,NA,NA,NA,NA,NA,NA,NA,NA,NA,NA,NA,NA
5e280,Deep Question,html.Page,1_7_0_0,NA,NA,form submission,21917.3,280727,280723.06,280739.7,302657,302657,2023-04-07T07:31:31Z,302662.98,Beweis,ushahidi,s,marudio,kizuizi,mtendaji,b,NA,NA,NULL,NA,NA,NA,NA,NA,NA,NA,NA,NA,NA,NA,NA,NA,NA,NA,NA,NA,NA,NA
5e280,Save data screen,canvas.Screen,1_7_0_1,NA,NA,timeout,499.96000000002,302660,302656.62,302662.98,303146.28,303147,2023-04-07T07:31:31Z,303162.94,Beweis,ushahidi,s,marudio,kizuizi,mtendaji,NA,NA,0,NULL,NA,NA,NA,NA,NA,NA,NA,NA,NA,NA,NA,NA,NA,NA,NA,NA,NA,NA,NA
5e280,deep,flow.Sequence,1_7_0,NA,NA,completion,22406.58,280727,280723.06,280739.7,303146.28,303147,2023-04-07T07:31:31Z,303162.94,Beweis,ushahidi,s,marudio,kizuizi,mtendaji,NA,NA,NA,NULL,NA,NA,NA,NA,NA,NA,NA,NA,NA,NA,NA,NA,NA,NA,NA,NA,NA,NA,NA
5e280,task,flow.Sequence,1_7,NA,NA,completion,22406.58,280727,280723.06,280739.7,303146.28,303148,2023-04-07T07:31:31Z,303162.94,Beweis,ushahidi,s,marudio,kizuizi,mtendaji,NA,NA,NA,NULL,NA,NA,NA,NA,NA,NA,NA,NA,NA,NA,NA,NA,NA,NA,NA,NA,NA,NA,NA
5e280,Deep Question,html.Page,1_8_0_0,NA,NA,form submission,5811.06,303148,303146.28,303162.94,308974,308974,2023-04-07T07:31:37Z,308973.38,Gelegenheit,wakati,s,mchanganyiko,kipaumbele,kushuku,g,NA,NA,NULL,NA,NA,NA,NA,NA,NA,NA,NA,NA,NA,NA,NA,NA,NA,NA,NA,NA,NA,NA
5e280,Save data screen,canvas.Screen,1_8_0_1,NA,NA,timeout,505.35999999999,308976,308973.24,308973.38,309462.08,309463,2023-04-07T07:31:37Z,309478.74,Gelegenheit,wakati,s,mchanganyiko,kipaumbele,kushuku,NA,NA,0,NULL,NA,NA,NA,NA,NA,NA,NA,NA,NA,NA,NA,NA,NA,NA,NA,NA,NA,NA,NA
5e280,deep,flow.Sequence,1_8_0,NA,NA,completion,6299.14,303148,303146.28,303162.94,309462.08,309464,2023-04-07T07:31:37Z,309478.74,Gelegenheit,wakati,s,mchanganyiko,kipaumbele,kushuku,NA,NA,NA,NULL,NA,NA,NA,NA,NA,NA,NA,NA,NA,NA,NA,NA,NA,NA,NA,NA,NA,NA,NA
5e280,task,flow.Sequence,1_8,NA,NA,completion,6299.14,303148,303146.28,303162.94,309462.08,309465,2023-04-07T07:31:37Z,309478.74,Gelegenheit,wakati,s,mchanganyiko,kipaumbele,kushuku,NA,NA,NA,NULL,NA,NA,NA,NA,NA,NA,NA,NA,NA,NA,NA,NA,NA,NA,NA,NA,NA,NA,NA
5e280,Deep Question,html.Page,1_9_0_0,NA,NA,form submission,5135.26,309466,309462.08,309478.74,314614,314614,2023-04-07T07:31:43Z,314614,Wettbewerb,ushindani,s,mapendezi,kichocheo,ubaguzi,ushindani,NA,NA,NULL,NA,NA,NA,NA,NA,NA,NA,NA,NA,NA,NA,NA,NA,NA,NA,NA,NA,NA,NA
5e280,Save data screen,canvas.Screen,1_9_0_1,NA,NA,timeout,496,314616,314613.84,314614,315093.32,315095,2023-04-07T07:31:43Z,315110,Wettbewerb,ushindani,s,mapendezi,kichocheo,ubaguzi,NA,NA,1,NULL,NA,NA,NA,NA,NA,NA,NA,NA,NA,NA,NA,NA,NA,NA,NA,NA,NA,NA,NA
5e280,deep,flow.Sequence,1_9_0,NA,NA,completion,5614.58,309466,309462.08,309478.74,315093.32,315097,2023-04-07T07:31:43Z,315110,Wettbewerb,ushindani,s,mapendezi,kichocheo,ubaguzi,NA,NA,NA,NULL,NA,NA,NA,NA,NA,NA,NA,NA,NA,NA,NA,NA,NA,NA,NA,NA,NA,NA,NA
5e280,task,flow.Sequence,1_9,NA,NA,completion,5614.58,309465,309462.08,309478.74,315093.32,315098,2023-04-07T07:31:43Z,315110,Wettbewerb,ushindani,s,mapendezi,kichocheo,ubaguzi,NA,NA,NA,NULL,NA,NA,NA,NA,NA,NA,NA,NA,NA,NA,NA,NA,NA,NA,NA,NA,NA,NA,NA
5e280,Deep Question,html.Page,1_10_0_0,NA,NA,form submission,14901,315099,315093.32,315110,330011,330011,2023-04-07T07:31:58Z,330019.7,Schönheit,kirembo,d,mahojiano,msisimko,jitihadi,kirembo,NA,NA,NULL,NA,NA,NA,NA,NA,NA,NA,NA,NA,NA,NA,NA,NA,NA,NA,NA,NA,NA,NA
5e280,Save data screen,canvas.Screen,1_10_0_1,NA,NA,timeout,500,330015,330010.28,330019.7,330503.12,330503,2023-04-07T07:31:58Z,330519.7,Schönheit,kirembo,d,mahojiano,msisimko,jitihadi,NA,NA,1,NULL,NA,NA,NA,NA,NA,NA,NA,NA,NA,NA,NA,NA,NA,NA,NA,NA,NA,NA,NA
5e280,deep,flow.Sequence,1_10_0,NA,NA,completion,15393.12,315099,315093.32,315110,330503.12,330504,2023-04-07T07:31:58Z,330519.7,Schönheit,kirembo,d,mahojiano,msisimko,jitihadi,NA,NA,NA,NULL,NA,NA,NA,NA,NA,NA,NA,NA,NA,NA,NA,NA,NA,NA,NA,NA,NA,NA,NA
5e280,task,flow.Sequence,1_10,NA,NA,completion,15393.12,315099,315093.32,315110,330503.12,330505,2023-04-07T07:31:58Z,330519.7,Schönheit,kirembo,d,mahojiano,msisimko,jitihadi,NA,NA,NA,NULL,NA,NA,NA,NA,NA,NA,NA,NA,NA,NA,NA,NA,NA,NA,NA,NA,NA,NA,NA
5e280,Deep Question,html.Page,1_11_0_0,NA,NA,form submission,18899.3,330505,330503.12,330519.7,349419,349419,2023-04-07T07:32:17Z,349418.6,Annäherung,maegesho,d,madahili,kujiamini,mapendekezo,mapendando,NA,NA,NULL,NA,NA,NA,NA,NA,NA,NA,NA,NA,NA,NA,NA,NA,NA,NA,NA,NA,NA,NA
5e280,Save data screen,canvas.Screen,1_11_0_1,NA,NA,timeout,500.02000000002,349421,349417.94,349418.6,349901.96,349903,2023-04-07T07:32:18Z,349918.62,Annäherung,maegesho,d,madahili,kujiamini,mapendekezo,NA,NA,0,NULL,NA,NA,NA,NA,NA,NA,NA,NA,NA,NA,NA,NA,NA,NA,NA,NA,NA,NA,NA
5e280,deep,flow.Sequence,1_11_0,NA,NA,completion,19382.26,330505,330503.12,330519.7,349901.96,349903,2023-04-07T07:32:18Z,349918.62,Annäherung,maegesho,d,madahili,kujiamini,mapendekezo,NA,NA,NA,NULL,NA,NA,NA,NA,NA,NA,NA,NA,NA,NA,NA,NA,NA,NA,NA,NA,NA,NA,NA
5e280,task,flow.Sequence,1_11,NA,NA,completion,19382.26,330505,330503.12,330519.7,349901.96,349904,2023-04-07T07:32:18Z,349918.62,Annäherung,maegesho,d,madahili,kujiamini,mapendekezo,NA,NA,NA,NULL,NA,NA,NA,NA,NA,NA,NA,NA,NA,NA,NA,NA,NA,NA,NA,NA,NA,NA,NA
5e280,Deep Question,html.Page,1_12_0_0,NA,NA,form submission,17075.38,349906,349901.96,349918.62,366994,366994,2023-04-07T07:32:35Z,367006.6,Zuwachs,nyongeza,d,matilaba,udhibiti,hudhurio,z,NA,NA,NULL,NA,NA,NA,NA,NA,NA,NA,NA,NA,NA,NA,NA,NA,NA,NA,NA,NA,NA,NA
5e280,Save data screen,canvas.Screen,1_12_0_1,NA,NA,timeout,499.96000000002,366996,366993.8,367006.6,367489.9,367491,2023-04-07T07:32:35Z,367506.56,Zuwachs,nyongeza,d,matilaba,udhibiti,hudhurio,NA,NA,0,NULL,NA,NA,NA,NA,NA,NA,NA,NA,NA,NA,NA,NA,NA,NA,NA,NA,NA,NA,NA
5e280,deep,flow.Sequence,1_12_0,NA,NA,completion,17571.28,349906,349901.96,349918.62,367489.9,367492,2023-04-07T07:32:35Z,367506.56,Zuwachs,nyongeza,d,matilaba,udhibiti,hudhurio,NA,NA,NA,NULL,NA,NA,NA,NA,NA,NA,NA,NA,NA,NA,NA,NA,NA,NA,NA,NA,NA,NA,NA
5e280,task,flow.Sequence,1_12,NA,NA,completion,17571.28,349905,349901.96,349918.62,367489.9,367492,2023-04-07T07:32:35Z,367506.56,Zuwachs,nyongeza,d,matilaba,udhibiti,hudhurio,NA,NA,NA,NULL,NA,NA,NA,NA,NA,NA,NA,NA,NA,NA,NA,NA,NA,NA,NA,NA,NA,NA,NA
5e280,Deep Question,html.Page,1_13_0_0,NA,NA,form submission,46119.44,367492,367489.9,367506.56,413626,413627,2023-04-07T07:33:22Z,413625.42,Symbol,kielezo,d,kinyume,nderemo,utayari,uvimaria,NA,NA,NULL,NA,NA,NA,NA,NA,NA,NA,NA,NA,NA,NA,NA,NA,NA,NA,NA,NA,NA,NA
5e280,Save data screen,canvas.Screen,1_13_0_1,NA,NA,timeout,505.29999999999,413632,413625.26,413625.42,414114.06,414115,2023-04-07T07:33:22Z,414130.72,Symbol,kielezo,d,kinyume,nderemo,utayari,NA,NA,0,NULL,NA,NA,NA,NA,NA,NA,NA,NA,NA,NA,NA,NA,NA,NA,NA,NA,NA,NA,NA
5e280,deep,flow.Sequence,1_13_0,NA,NA,completion,46607.5,367492,367489.9,367506.56,414114.06,414116,2023-04-07T07:33:22Z,414130.72,Symbol,kielezo,d,kinyume,nderemo,utayari,NA,NA,NA,NULL,NA,NA,NA,NA,NA,NA,NA,NA,NA,NA,NA,NA,NA,NA,NA,NA,NA,NA,NA
5e280,task,flow.Sequence,1_13,NA,NA,completion,46607.5,367492,367489.9,367506.56,414114.06,414116,2023-04-07T07:33:22Z,414130.72,Symbol,kielezo,d,kinyume,nderemo,utayari,NA,NA,NA,NULL,NA,NA,NA,NA,NA,NA,NA,NA,NA,NA,NA,NA,NA,NA,NA,NA,NA,NA,NA
5e280,Deep Question,html.Page,1_14_0_0,NA,NA,form submission,23186.28,414117,414114.06,414130.72,437317,437317,2023-04-07T07:33:45Z,437317.72,Verstand,ufahamivu,d,shakawa,hadhari,mhandisi,v,NA,NA,NULL,NA,NA,NA,NA,NA,NA,NA,NA,NA,NA,NA,NA,NA,NA,NA,NA,NA,NA,NA
5e280,Save data screen,canvas.Screen,1_14_0_1,NA,NA,timeout,500.08000000002,437319,437315.78,437317.72,437801.14,437802,2023-04-07T07:33:46Z,437817.8,Verstand,ufahamivu,d,shakawa,hadhari,mhandisi,NA,NA,0,NULL,NA,NA,NA,NA,NA,NA,NA,NA,NA,NA,NA,NA,NA,NA,NA,NA,NA,NA,NA
5e280,deep,flow.Sequence,1_14_0,NA,NA,completion,23670.42,414117,414114.06,414130.72,437801.14,437803,2023-04-07T07:33:46Z,437817.8,Verstand,ufahamivu,d,shakawa,hadhari,mhandisi,NA,NA,NA,NULL,NA,NA,NA,NA,NA,NA,NA,NA,NA,NA,NA,NA,NA,NA,NA,NA,NA,NA,NA
5e280,task,flow.Sequence,1_14,NA,NA,completion,23670.42,414117,414114.06,414130.72,437801.14,437803,2023-04-07T07:33:46Z,437817.8,Verstand,ufahamivu,d,shakawa,hadhari,mhandisi,NA,NA,NA,NULL,NA,NA,NA,NA,NA,NA,NA,NA,NA,NA,NA,NA,NA,NA,NA,NA,NA,NA,NA
5e280,Deep Question,html.Page,1_15_0_0,NA,NA,form submission,9860.2,437803,437801.14,437817.8,447678,447679,2023-04-07T07:33:56Z,447677.56,Zufall,kikuti,d,kukosekana,uchoraji,leseni,z,NA,NA,NULL,NA,NA,NA,NA,NA,NA,NA,NA,NA,NA,NA,NA,NA,NA,NA,NA,NA,NA,NA
5e280,Save data screen,canvas.Screen,1_15_0_1,NA,NA,timeout,505.32000000001,447680,447677.4,447677.56,448166.22,448167,2023-04-07T07:33:56Z,448182.88,Zufall,kikuti,d,kukosekana,uchoraji,leseni,NA,NA,0,NULL,NA,NA,NA,NA,NA,NA,NA,NA,NA,NA,NA,NA,NA,NA,NA,NA,NA,NA,NA
5e280,deep,flow.Sequence,1_15_0,NA,NA,completion,10348.42,437803,437801.14,437817.8,448166.22,448169,2023-04-07T07:33:56Z,448182.88,Zufall,kikuti,d,kukosekana,uchoraji,leseni,NA,NA,NA,NULL,NA,NA,NA,NA,NA,NA,NA,NA,NA,NA,NA,NA,NA,NA,NA,NA,NA,NA,NA
5e280,task,flow.Sequence,1_15,NA,NA,completion,10348.42,437803,437801.14,437817.8,448166.22,448170,2023-04-07T07:33:56Z,448182.88,Zufall,kikuti,d,kukosekana,uchoraji,leseni,NA,NA,NA,NULL,NA,NA,NA,NA,NA,NA,NA,NA,NA,NA,NA,NA,NA,NA,NA,NA,NA,NA,NA
5e280,retrieval block 1 (cued recall),flow.Loop,1,NA,NA,completion,430349.94,17816,17816.1,17816.28,448166.22,448171,2023-04-07T07:33:56Z,448182.88,NA,NA,NA,NA,NA,NA,NA,NA,NA,NULL,NA,NA,NA,NA,NA,NA,NA,NA,NA,NA,NA,NA,NA,NA,NA,NA,NA,NA,NA
5e280,Shallow Question,html.Page,2_0_0_0,NA,NA,form submission,9810.12,448172,448166.22,448182.88,457993,457993,2023-04-07T07:34:06Z,457992.42,Beweis,ushahidi,s,marudio,kizuizi,mtendaji,mtendaji,NA,NA,"c(""distractor1"", ""distractor2"", ""distractor3"")",NA,NA,NA,NA,NA,NA,NA,NA,NA,NA,NA,NA,NA,NA,NA,NA,NA,NA,NA
5e280,Save data screen,canvas.Screen,2_0_0_1,NA,NA,timeout,505.34000000003,457995,457992.28,457992.42,458481.16,458484,2023-04-07T07:34:06Z,458497.76,Beweis,ushahidi,s,marudio,kizuizi,mtendaji,NA,NA,0,"c(""distractor1"", ""distractor2"", ""distractor3"")",NA,NA,NA,NA,NA,NA,NA,NA,NA,NA,NA,NA,NA,NA,NA,NA,NA,NA,NA
5e280,shallow,flow.Sequence,2_0_0,NA,NA,completion,10298.28,448172,448166.22,448182.88,458481.16,458486,2023-04-07T07:34:06Z,458497.76,Beweis,ushahidi,s,marudio,kizuizi,mtendaji,NA,NA,NA,"c(""distractor1"", ""distractor2"", ""distractor3"")",NA,NA,NA,NA,NA,NA,NA,NA,NA,NA,NA,NA,NA,NA,NA,NA,NA,NA,NA
5e280,task,flow.Sequence,2_0,NA,NA,completion,10298.28,448172,448166.22,448182.88,458481.16,458488,2023-04-07T07:34:06Z,458497.76,Beweis,ushahidi,s,marudio,kizuizi,mtendaji,NA,NA,NA,"c(""distractor1"", ""distractor2"", ""distractor3"")",NA,NA,NA,NA,NA,NA,NA,NA,NA,NA,NA,NA,NA,NA,NA,NA,NA,NA,NA
5e280,Shallow Question,html.Page,2_1_0_0,NA,NA,form submission,13419.24,458490,458481.16,458497.76,471917,471917,2023-04-07T07:34:20Z,471915.7,Sympathie,mapendano,d,dhamiria,fungamano,maazimio,mapendano,NA,NA,"c(""distractor1"", ""distractor2"", ""distractor3"")",NA,NA,NA,NA,NA,NA,NA,NA,NA,NA,NA,NA,NA,NA,NA,NA,NA,NA,NA
5e280,Save data screen,canvas.Screen,2_1_0_1,NA,NA,timeout,505.32000000001,471920,471915.54,471915.7,472404.46,472405,2023-04-07T07:34:20Z,472421.02,Sympathie,mapendano,d,dhamiria,fungamano,maazimio,NA,NA,1,"c(""distractor1"", ""distractor2"", ""distractor3"")",NA,NA,NA,NA,NA,NA,NA,NA,NA,NA,NA,NA,NA,NA,NA,NA,NA,NA,NA
5e280,shallow,flow.Sequence,2_1_0,NA,NA,completion,13906.7,458490,458481.16,458497.76,472404.46,472406,2023-04-07T07:34:20Z,472421.02,Sympathie,mapendano,d,dhamiria,fungamano,maazimio,NA,NA,NA,"c(""distractor1"", ""distractor2"", ""distractor3"")",NA,NA,NA,NA,NA,NA,NA,NA,NA,NA,NA,NA,NA,NA,NA,NA,NA,NA,NA
5e280,task,flow.Sequence,2_1,NA,NA,completion,13906.7,458489,458481.16,458497.76,472404.46,472407,2023-04-07T07:34:20Z,472421.02,Sympathie,mapendano,d,dhamiria,fungamano,maazimio,NA,NA,NA,"c(""distractor1"", ""distractor2"", ""distractor3"")",NA,NA,NA,NA,NA,NA,NA,NA,NA,NA,NA,NA,NA,NA,NA,NA,NA,NA,NA
5e280,Shallow Question,html.Page,2_2_0_0,NA,NA,form submission,13553.98,472408,472404.46,472421.02,485975,485975,2023-04-07T07:34:34Z,485974.26,Symbol,kielezo,d,kinyume,nderemo,utayari,utayari,NA,NA,"c(""distractor1"", ""distractor2"", ""distractor3"")",NA,NA,NA,NA,NA,NA,NA,NA,NA,NA,NA,NA,NA,NA,NA,NA,NA,NA,NA
5e280,Save data screen,canvas.Screen,2_2_0_1,NA,NA,timeout,491.76000000001,485978,485974.12,485974.26,486449.36,486450,2023-04-07T07:34:34Z,486466.02,Symbol,kielezo,d,kinyume,nderemo,utayari,NA,NA,0,"c(""distractor1"", ""distractor2"", ""distractor3"")",NA,NA,NA,NA,NA,NA,NA,NA,NA,NA,NA,NA,NA,NA,NA,NA,NA,NA,NA
5e280,shallow,flow.Sequence,2_2_0,NA,NA,completion,14028.34,472408,472404.46,472421.02,486449.36,486451,2023-04-07T07:34:34Z,486466.02,Symbol,kielezo,d,kinyume,nderemo,utayari,NA,NA,NA,"c(""distractor1"", ""distractor2"", ""distractor3"")",NA,NA,NA,NA,NA,NA,NA,NA,NA,NA,NA,NA,NA,NA,NA,NA,NA,NA,NA
5e280,task,flow.Sequence,2_2,NA,NA,completion,14028.34,472408,472404.46,472421.02,486449.36,486452,2023-04-07T07:34:34Z,486466.02,Symbol,kielezo,d,kinyume,nderemo,utayari,NA,NA,NA,"c(""distractor1"", ""distractor2"", ""distractor3"")",NA,NA,NA,NA,NA,NA,NA,NA,NA,NA,NA,NA,NA,NA,NA,NA,NA,NA,NA
5e280,Shallow Question,html.Page,2_3_0_0,NA,NA,form submission,11642.98,486453,486449.36,486466.02,498109,498110,2023-04-07T07:34:46Z,498110.98,Konkurrent,mshindani,s,msemaji,mvutaji,kipukusa,mshindani,NA,NA,"c(""distractor1"", ""distractor2"", ""distractor3"")",NA,NA,NA,NA,NA,NA,NA,NA,NA,NA,NA,NA,NA,NA,NA,NA,NA,NA,NA
5e280,Save data screen,canvas.Screen,2_3_0_1,NA,NA,timeout,500,498111,498108.5,498110.98,498594.4,498596,2023-04-07T07:34:47Z,498610.98,Konkurrent,mshindani,s,msemaji,mvutaji,kipukusa,NA,NA,1,"c(""distractor1"", ""distractor2"", ""distractor3"")",NA,NA,NA,NA,NA,NA,NA,NA,NA,NA,NA,NA,NA,NA,NA,NA,NA,NA,NA
5e280,shallow,flow.Sequence,2_3_0,NA,NA,completion,12128.38,486453,486449.36,486466.02,498594.4,498597,2023-04-07T07:34:47Z,498610.98,Konkurrent,mshindani,s,msemaji,mvutaji,kipukusa,NA,NA,NA,"c(""distractor1"", ""distractor2"", ""distractor3"")",NA,NA,NA,NA,NA,NA,NA,NA,NA,NA,NA,NA,NA,NA,NA,NA,NA,NA,NA
5e280,task,flow.Sequence,2_3,NA,NA,completion,12128.38,486453,486449.36,486466.02,498594.4,498597,2023-04-07T07:34:47Z,498610.98,Konkurrent,mshindani,s,msemaji,mvutaji,kipukusa,NA,NA,NA,"c(""distractor1"", ""distractor2"", ""distractor3"")",NA,NA,NA,NA,NA,NA,NA,NA,NA,NA,NA,NA,NA,NA,NA,NA,NA,NA,NA
5e280,Shallow Question,html.Page,2_4_0_0,NA,NA,form submission,9789.02,498599,498594.4,498610.98,508400,508401,2023-04-07T07:34:56Z,508399.7,Widerstand,usulubu,d,kusababisha,mwalimu,mwenendo,usulubu,NA,NA,"c(""distractor1"", ""distractor2"", ""distractor3"")",NA,NA,NA,NA,NA,NA,NA,NA,NA,NA,NA,NA,NA,NA,NA,NA,NA,NA,NA
5e280,Save data screen,canvas.Screen,2_4_0_1,NA,NA,timeout,505.35999999999,508402,508399.56,508399.7,508888.4,508889,2023-04-07T07:34:57Z,508905.06,Widerstand,usulubu,d,kusababisha,mwalimu,mwenendo,NA,NA,1,"c(""distractor1"", ""distractor2"", ""distractor3"")",NA,NA,NA,NA,NA,NA,NA,NA,NA,NA,NA,NA,NA,NA,NA,NA,NA,NA,NA
5e280,shallow,flow.Sequence,2_4_0,NA,NA,completion,10277.42,498599,498594.4,498610.98,508888.4,508890,2023-04-07T07:34:57Z,508905.06,Widerstand,usulubu,d,kusababisha,mwalimu,mwenendo,NA,NA,NA,"c(""distractor1"", ""distractor2"", ""distractor3"")",NA,NA,NA,NA,NA,NA,NA,NA,NA,NA,NA,NA,NA,NA,NA,NA,NA,NA,NA
5e280,task,flow.Sequence,2_4,NA,NA,completion,10277.42,498598,498594.4,498610.98,508888.4,508890,2023-04-07T07:34:57Z,508905.06,Widerstand,usulubu,d,kusababisha,mwalimu,mwenendo,NA,NA,NA,"c(""distractor1"", ""distractor2"", ""distractor3"")",NA,NA,NA,NA,NA,NA,NA,NA,NA,NA,NA,NA,NA,NA,NA,NA,NA,NA,NA
5e280,Shallow Question,html.Page,2_5_0_0,NA,NA,form submission,5741.94,508891,508888.4,508905.06,514647,514647,2023-04-07T07:35:03Z,514646.36,Schönheit,kirembo,d,mahojiano,msisimko,jitihadi,kirembo,NA,NA,"c(""distractor1"", ""distractor2"", ""distractor3"")",NA,NA,NA,NA,NA,NA,NA,NA,NA,NA,NA,NA,NA,NA,NA,NA,NA,NA,NA
5e280,Save data screen,canvas.Screen,2_5_0_1,NA,NA,timeout,505.34000000003,514649,514646.22,514646.36,515135.02,515135,2023-04-07T07:35:03Z,515151.7,Schönheit,kirembo,d,mahojiano,msisimko,jitihadi,NA,NA,1,"c(""distractor1"", ""distractor2"", ""distractor3"")",NA,NA,NA,NA,NA,NA,NA,NA,NA,NA,NA,NA,NA,NA,NA,NA,NA,NA,NA
5e280,shallow,flow.Sequence,2_5_0,NA,NA,completion,6229.96,508891,508888.4,508905.06,515135.02,515136,2023-04-07T07:35:03Z,515151.7,Schönheit,kirembo,d,mahojiano,msisimko,jitihadi,NA,NA,NA,"c(""distractor1"", ""distractor2"", ""distractor3"")",NA,NA,NA,NA,NA,NA,NA,NA,NA,NA,NA,NA,NA,NA,NA,NA,NA,NA,NA
5e280,task,flow.Sequence,2_5,NA,NA,completion,6229.96,508891,508888.4,508905.06,515135.02,515136,2023-04-07T07:35:03Z,515151.7,Schönheit,kirembo,d,mahojiano,msisimko,jitihadi,NA,NA,NA,"c(""distractor1"", ""distractor2"", ""distractor3"")",NA,NA,NA,NA,NA,NA,NA,NA,NA,NA,NA,NA,NA,NA,NA,NA,NA,NA,NA
5e280,Shallow Question,html.Page,2_6_0_0,NA,NA,form submission,17045.3,515136,515135.02,515151.7,532197,532198,2023-04-07T07:35:20Z,532195.5,Annäherung,maegesho,d,madahili,kujiamini,mapendekezo,maegesho,NA,NA,"c(""distractor1"", ""distractor2"", ""distractor3"")",NA,NA,NA,NA,NA,NA,NA,NA,NA,NA,NA,NA,NA,NA,NA,NA,NA,NA,NA
5e280,Save data screen,canvas.Screen,2_6_0_1,NA,NA,timeout,505.38,532201,532195.34,532195.5,532684.22,532685,2023-04-07T07:35:21Z,532700.88,Annäherung,maegesho,d,madahili,kujiamini,mapendekezo,NA,NA,1,"c(""distractor1"", ""distractor2"", ""distractor3"")",NA,NA,NA,NA,NA,NA,NA,NA,NA,NA,NA,NA,NA,NA,NA,NA,NA,NA,NA
5e280,shallow,flow.Sequence,2_6_0,NA,NA,completion,17532.52,515136,515135.02,515151.7,532684.22,532686,2023-04-07T07:35:21Z,532700.88,Annäherung,maegesho,d,madahili,kujiamini,mapendekezo,NA,NA,NA,"c(""distractor1"", ""distractor2"", ""distractor3"")",NA,NA,NA,NA,NA,NA,NA,NA,NA,NA,NA,NA,NA,NA,NA,NA,NA,NA,NA
5e280,task,flow.Sequence,2_6,NA,NA,completion,17532.52,515136,515135.02,515151.7,532684.22,532686,2023-04-07T07:35:21Z,532700.88,Annäherung,maegesho,d,madahili,kujiamini,mapendekezo,NA,NA,NA,"c(""distractor1"", ""distractor2"", ""distractor3"")",NA,NA,NA,NA,NA,NA,NA,NA,NA,NA,NA,NA,NA,NA,NA,NA,NA,NA,NA
5e280,Shallow Question,html.Page,2_7_0_0,NA,NA,form submission,9877.12,532687,532684.22,532700.88,542578,542579,2023-04-07T07:35:31Z,542578.1,Vorsorge,tahadhari,s,ufafanuzi,makini,mashambani,makini,NA,NA,"c(""distractor1"", ""distractor2"", ""distractor3"")",NA,NA,NA,NA,NA,NA,NA,NA,NA,NA,NA,NA,NA,NA,NA,NA,NA,NA,NA
5e280,Save data screen,canvas.Screen,2_7_0_1,NA,NA,timeout,499.64000000001,542581,542577.96,542578.1,543061.12,543063,2023-04-07T07:35:31Z,543077.74,Vorsorge,tahadhari,s,ufafanuzi,makini,mashambani,NA,NA,0,"c(""distractor1"", ""distractor2"", ""distractor3"")",NA,NA,NA,NA,NA,NA,NA,NA,NA,NA,NA,NA,NA,NA,NA,NA,NA,NA,NA
5e280,shallow,flow.Sequence,2_7_0,NA,NA,completion,10360.24,532687,532684.22,532700.88,543061.12,543065,2023-04-07T07:35:31Z,543077.74,Vorsorge,tahadhari,s,ufafanuzi,makini,mashambani,NA,NA,NA,"c(""distractor1"", ""distractor2"", ""distractor3"")",NA,NA,NA,NA,NA,NA,NA,NA,NA,NA,NA,NA,NA,NA,NA,NA,NA,NA,NA
5e280,task,flow.Sequence,2_7,NA,NA,completion,10360.24,532687,532684.22,532700.88,543061.12,543066,2023-04-07T07:35:31Z,543077.74,Vorsorge,tahadhari,s,ufafanuzi,makini,mashambani,NA,NA,NA,"c(""distractor1"", ""distractor2"", ""distractor3"")",NA,NA,NA,NA,NA,NA,NA,NA,NA,NA,NA,NA,NA,NA,NA,NA,NA,NA,NA
5e280,Shallow Question,html.Page,2_8_0_0,NA,NA,form submission,8440.26,543066,543061.12,543077.74,551518,551518,2023-04-07T07:35:39Z,551517.28,Polizist,msongora,s,simanzi,mandhari,nidhamu,mandhari,NA,NA,"c(""distractor1"", ""distractor2"", ""distractor3"")",NA,NA,NA,NA,NA,NA,NA,NA,NA,NA,NA,NA,NA,NA,NA,NA,NA,NA,NA
5e280,Save data screen,canvas.Screen,2_8_0_1,NA,NA,timeout,505.40000000002,551520,551517.14,551517.28,552006.02,552007,2023-04-07T07:35:40Z,552022.68,Polizist,msongora,s,simanzi,mandhari,nidhamu,NA,NA,0,"c(""distractor1"", ""distractor2"", ""distractor3"")",NA,NA,NA,NA,NA,NA,NA,NA,NA,NA,NA,NA,NA,NA,NA,NA,NA,NA,NA
5e280,shallow,flow.Sequence,2_8_0,NA,NA,completion,8928.28,543066,543061.12,543077.74,552006.02,552008,2023-04-07T07:35:40Z,552022.68,Polizist,msongora,s,simanzi,mandhari,nidhamu,NA,NA,NA,"c(""distractor1"", ""distractor2"", ""distractor3"")",NA,NA,NA,NA,NA,NA,NA,NA,NA,NA,NA,NA,NA,NA,NA,NA,NA,NA,NA
5e280,task,flow.Sequence,2_8,NA,NA,completion,8928.28,543066,543061.12,543077.74,552006.02,552008,2023-04-07T07:35:40Z,552022.68,Polizist,msongora,s,simanzi,mandhari,nidhamu,NA,NA,NA,"c(""distractor1"", ""distractor2"", ""distractor3"")",NA,NA,NA,NA,NA,NA,NA,NA,NA,NA,NA,NA,NA,NA,NA,NA,NA,NA,NA
5e280,Shallow Question,html.Page,2_9_0_0,NA,NA,form submission,23304.32,552008,552006.02,552022.68,575327,575328,2023-04-07T07:36:03Z,575327.1,Zufall,kikuti,d,kukosekana,uchoraji,leseni,kikuti,NA,NA,"c(""distractor1"", ""distractor2"", ""distractor3"")",NA,NA,NA,NA,NA,NA,NA,NA,NA,NA,NA,NA,NA,NA,NA,NA,NA,NA,NA
5e280,Save data screen,canvas.Screen,2_9_0_1,NA,NA,timeout,505.35999999999,575329,575326.96,575327.1,575815.8,575817,2023-04-07T07:36:04Z,575832.46,Zufall,kikuti,d,kukosekana,uchoraji,leseni,NA,NA,1,"c(""distractor1"", ""distractor2"", ""distractor3"")",NA,NA,NA,NA,NA,NA,NA,NA,NA,NA,NA,NA,NA,NA,NA,NA,NA,NA,NA
5e280,shallow,flow.Sequence,2_9_0,NA,NA,completion,23793.12,552008,552006.02,552022.68,575815.8,575819,2023-04-07T07:36:04Z,575832.46,Zufall,kikuti,d,kukosekana,uchoraji,leseni,NA,NA,NA,"c(""distractor1"", ""distractor2"", ""distractor3"")",NA,NA,NA,NA,NA,NA,NA,NA,NA,NA,NA,NA,NA,NA,NA,NA,NA,NA,NA
5e280,task,flow.Sequence,2_9,NA,NA,completion,23793.12,552008,552006.02,552022.68,575815.8,575819,2023-04-07T07:36:04Z,575832.46,Zufall,kikuti,d,kukosekana,uchoraji,leseni,NA,NA,NA,"c(""distractor1"", ""distractor2"", ""distractor3"")",NA,NA,NA,NA,NA,NA,NA,NA,NA,NA,NA,NA,NA,NA,NA,NA,NA,NA,NA
5e280,Shallow Question,html.Page,2_10_0_0,NA,NA,form submission,12050.54,575820,575815.8,575832.46,587883,587883,2023-04-07T07:36:16Z,587881.32,Verstand,ufahamivu,d,shakawa,hadhari,mhandisi,ufahamivu,NA,NA,"c(""distractor1"", ""distractor2"", ""distractor3"")",NA,NA,NA,NA,NA,NA,NA,NA,NA,NA,NA,NA,NA,NA,NA,NA,NA,NA,NA
5e280,Save data screen,canvas.Screen,2_10_0_1,NA,NA,timeout,505.32000000007,587885,587881.14,587881.32,588369.98,588371,2023-04-07T07:36:16Z,588386.64,Verstand,ufahamivu,d,shakawa,hadhari,mhandisi,NA,NA,1,"c(""distractor1"", ""distractor2"", ""distractor3"")",NA,NA,NA,NA,NA,NA,NA,NA,NA,NA,NA,NA,NA,NA,NA,NA,NA,NA,NA
5e280,shallow,flow.Sequence,2_10_0,NA,NA,completion,12537.52,575819,575815.8,575832.46,588369.98,588372,2023-04-07T07:36:16Z,588386.64,Verstand,ufahamivu,d,shakawa,hadhari,mhandisi,NA,NA,NA,"c(""distractor1"", ""distractor2"", ""distractor3"")",NA,NA,NA,NA,NA,NA,NA,NA,NA,NA,NA,NA,NA,NA,NA,NA,NA,NA,NA
5e280,task,flow.Sequence,2_10,NA,NA,completion,12537.52,575819,575815.8,575832.46,588369.98,588372,2023-04-07T07:36:16Z,588386.64,Verstand,ufahamivu,d,shakawa,hadhari,mhandisi,NA,NA,NA,"c(""distractor1"", ""distractor2"", ""distractor3"")",NA,NA,NA,NA,NA,NA,NA,NA,NA,NA,NA,NA,NA,NA,NA,NA,NA,NA,NA
5e280,Shallow Question,html.Page,2_11_0_0,NA,NA,form submission,17664.36,588373,588369.98,588386.64,606051,606051,2023-04-07T07:36:34Z,606057.58,Gelegenheit,wakati,s,mchanganyiko,kipaumbele,kushuku,wakati,NA,NA,"c(""distractor1"", ""distractor2"", ""distractor3"")",NA,NA,NA,NA,NA,NA,NA,NA,NA,NA,NA,NA,NA,NA,NA,NA,NA,NA,NA
5e280,Save data screen,canvas.Screen,2_11_0_1,NA,NA,timeout,499.96000000008,606053,606049.58,606057.58,606540.88,606542,2023-04-07T07:36:35Z,606557.54,Gelegenheit,wakati,s,mchanganyiko,kipaumbele,kushuku,NA,NA,1,"c(""distractor1"", ""distractor2"", ""distractor3"")",NA,NA,NA,NA,NA,NA,NA,NA,NA,NA,NA,NA,NA,NA,NA,NA,NA,NA,NA
5e280,shallow,flow.Sequence,2_11_0,NA,NA,completion,18154.24,588372,588369.98,588386.64,606540.88,606542,2023-04-07T07:36:35Z,606557.54,Gelegenheit,wakati,s,mchanganyiko,kipaumbele,kushuku,NA,NA,NA,"c(""distractor1"", ""distractor2"", ""distractor3"")",NA,NA,NA,NA,NA,NA,NA,NA,NA,NA,NA,NA,NA,NA,NA,NA,NA,NA,NA
5e280,task,flow.Sequence,2_11,NA,NA,completion,18154.24,588372,588369.98,588386.64,606540.88,606543,2023-04-07T07:36:35Z,606557.54,Gelegenheit,wakati,s,mchanganyiko,kipaumbele,kushuku,NA,NA,NA,"c(""distractor1"", ""distractor2"", ""distractor3"")",NA,NA,NA,NA,NA,NA,NA,NA,NA,NA,NA,NA,NA,NA,NA,NA,NA,NA,NA
5e280,Shallow Question,html.Page,2_12_0_0,NA,NA,form submission,9653.46,606544,606540.88,606557.54,616211,616212,2023-04-07T07:36:44Z,616218.8,Zuwachs,nyongeza,d,matilaba,udhibiti,hudhurio,nyongeza,NA,NA,"c(""distractor1"", ""distractor2"", ""distractor3"")",NA,NA,NA,NA,NA,NA,NA,NA,NA,NA,NA,NA,NA,NA,NA,NA,NA,NA,NA
5e280,Save data screen,canvas.Screen,2_12_0_1,NA,NA,timeout,499.97999999998,616213,616202.12,616218.8,616702.1,616704,2023-04-07T07:36:45Z,616718.78,Zuwachs,nyongeza,d,matilaba,udhibiti,hudhurio,NA,NA,1,"c(""distractor1"", ""distractor2"", ""distractor3"")",NA,NA,NA,NA,NA,NA,NA,NA,NA,NA,NA,NA,NA,NA,NA,NA,NA,NA,NA
5e280,shallow,flow.Sequence,2_12_0,NA,NA,completion,10144.56,606544,606540.88,606557.54,616702.1,616704,2023-04-07T07:36:45Z,616718.78,Zuwachs,nyongeza,d,matilaba,udhibiti,hudhurio,NA,NA,NA,"c(""distractor1"", ""distractor2"", ""distractor3"")",NA,NA,NA,NA,NA,NA,NA,NA,NA,NA,NA,NA,NA,NA,NA,NA,NA,NA,NA
5e280,task,flow.Sequence,2_12,NA,NA,completion,10144.56,606544,606540.88,606557.54,616702.1,616704,2023-04-07T07:36:45Z,616718.78,Zuwachs,nyongeza,d,matilaba,udhibiti,hudhurio,NA,NA,NA,"c(""distractor1"", ""distractor2"", ""distractor3"")",NA,NA,NA,NA,NA,NA,NA,NA,NA,NA,NA,NA,NA,NA,NA,NA,NA,NA,NA
5e280,Shallow Question,html.Page,2_13_0_0,NA,NA,form submission,8733.22,616705,616702.1,616718.78,625452,625452,2023-04-07T07:36:53Z,625461.86,Ausschluss,kutengwa,s,ununuzi,taratibu,madeni,madeni,NA,NA,"c(""distractor1"", ""distractor2"", ""distractor3"")",NA,NA,NA,NA,NA,NA,NA,NA,NA,NA,NA,NA,NA,NA,NA,NA,NA,NA,NA
5e280,Save data screen,canvas.Screen,2_13_0_1,NA,NA,timeout,499.97999999998,625454,625451.1,625461.86,625945.18,625946,2023-04-07T07:36:54Z,625961.84,Ausschluss,kutengwa,s,ununuzi,taratibu,madeni,NA,NA,0,"c(""distractor1"", ""distractor2"", ""distractor3"")",NA,NA,NA,NA,NA,NA,NA,NA,NA,NA,NA,NA,NA,NA,NA,NA,NA,NA,NA
5e280,shallow,flow.Sequence,2_13_0,NA,NA,completion,9226.4,616704,616702.1,616718.78,625945.18,625946,2023-04-07T07:36:54Z,625961.84,Ausschluss,kutengwa,s,ununuzi,taratibu,madeni,NA,NA,NA,"c(""distractor1"", ""distractor2"", ""distractor3"")",NA,NA,NA,NA,NA,NA,NA,NA,NA,NA,NA,NA,NA,NA,NA,NA,NA,NA,NA
5e280,task,flow.Sequence,2_13,NA,NA,completion,9226.4,616704,616702.1,616718.78,625945.18,625946,2023-04-07T07:36:54Z,625961.84,Ausschluss,kutengwa,s,ununuzi,taratibu,madeni,NA,NA,NA,"c(""distractor1"", ""distractor2"", ""distractor3"")",NA,NA,NA,NA,NA,NA,NA,NA,NA,NA,NA,NA,NA,NA,NA,NA,NA,NA,NA
5e280,Shallow Question,html.Page,2_14_0_0,NA,NA,form submission,8036.16,625947,625945.18,625961.84,633998,633998,2023-04-07T07:37:02Z,634012.04,Auftrag,uagizaji,s,ghanima,kuzingatia,msukani,uagizaji,NA,NA,"c(""distractor1"", ""distractor2"", ""distractor3"")",NA,NA,NA,NA,NA,NA,NA,NA,NA,NA,NA,NA,NA,NA,NA,NA,NA,NA,NA
5e280,Save data screen,canvas.Screen,2_14_0_1,NA,NA,timeout,499.95999999996,633999,633997.2,634012.04,634495.34,634496,2023-04-07T07:37:02Z,634512,Auftrag,uagizaji,s,ghanima,kuzingatia,msukani,NA,NA,1,"c(""distractor1"", ""distractor2"", ""distractor3"")",NA,NA,NA,NA,NA,NA,NA,NA,NA,NA,NA,NA,NA,NA,NA,NA,NA,NA,NA
5e280,shallow,flow.Sequence,2_14_0,NA,NA,completion,8533.5,625947,625945.18,625961.84,634495.34,634497,2023-04-07T07:37:02Z,634512,Auftrag,uagizaji,s,ghanima,kuzingatia,msukani,NA,NA,NA,"c(""distractor1"", ""distractor2"", ""distractor3"")",NA,NA,NA,NA,NA,NA,NA,NA,NA,NA,NA,NA,NA,NA,NA,NA,NA,NA,NA
5e280,task,flow.Sequence,2_14,NA,NA,completion,8533.5,625947,625945.18,625961.84,634495.34,634497,2023-04-07T07:37:02Z,634512,Auftrag,uagizaji,s,ghanima,kuzingatia,msukani,NA,NA,NA,"c(""distractor1"", ""distractor2"", ""distractor3"")",NA,NA,NA,NA,NA,NA,NA,NA,NA,NA,NA,NA,NA,NA,NA,NA,NA,NA,NA
5e280,Shallow Question,html.Page,2_15_0_0,NA,NA,form submission,5116,634497,634495.34,634512,639628,639629,2023-04-07T07:37:08Z,639638.28,Wettbewerb,ushindani,s,mapendezi,kichocheo,ubaguzi,ushindani,NA,NA,"c(""distractor1"", ""distractor2"", ""distractor3"")",NA,NA,NA,NA,NA,NA,NA,NA,NA,NA,NA,NA,NA,NA,NA,NA,NA,NA,NA
5e280,Save data screen,canvas.Screen,2_15_0_1,NA,NA,timeout,499.97999999998,639633,639626.4,639638.28,640121.6,640122,2023-04-07T07:37:08Z,640138.26,Wettbewerb,ushindani,s,mapendezi,kichocheo,ubaguzi,NA,NA,1,"c(""distractor1"", ""distractor2"", ""distractor3"")",NA,NA,NA,NA,NA,NA,NA,NA,NA,NA,NA,NA,NA,NA,NA,NA,NA,NA,NA
5e280,shallow,flow.Sequence,2_15_0,NA,NA,completion,5609.6,634497,634495.34,634512,640121.6,640123,2023-04-07T07:37:08Z,640138.26,Wettbewerb,ushindani,s,mapendezi,kichocheo,ubaguzi,NA,NA,NA,"c(""distractor1"", ""distractor2"", ""distractor3"")",NA,NA,NA,NA,NA,NA,NA,NA,NA,NA,NA,NA,NA,NA,NA,NA,NA,NA,NA
5e280,task,flow.Sequence,2_15,NA,NA,completion,5609.6,634497,634495.34,634512,640121.6,640123,2023-04-07T07:37:08Z,640138.26,Wettbewerb,ushindani,s,mapendezi,kichocheo,ubaguzi,NA,NA,NA,"c(""distractor1"", ""distractor2"", ""distractor3"")",NA,NA,NA,NA,NA,NA,NA,NA,NA,NA,NA,NA,NA,NA,NA,NA,NA,NA,NA
5e280,retrieval block 2 (multiple choice),flow.Loop,2,NA,NA,completion,191938.72,448171,448166.22,448182.88,640121.6,640124,2023-04-07T07:37:08Z,640138.26,NA,NA,NA,NA,NA,NA,NA,NA,NA,"c(""distractor1"", ""distractor2"", ""distractor3"")",NA,NA,NA,NA,NA,NA,NA,NA,NA,NA,NA,NA,NA,NA,NA,NA,NA,NA,NA
5e280,End,canvas.Screen,3,NA,keypress(Space),response,2384.74,640124,640121.6,640138.26,642523,642533,2023-04-07T07:37:11Z,642533.74,NA,NA,NA,NA,NA,NA,NA,NA,NA,NULL,NA,NA,NA,NA,NA,NA,NA,NA,NA,NA,NA,NA,NA,NA,NA,NA,NA,NA,NA
5e280,root,flow.Sequence,NA,NA,NA,completion,641675.76,824,830.56,847.24,642523,642533,2023-04-07T07:37:11Z,642533.74,NA,NA,NA,NA,NA,NA,NA,NA,NA,NULL,NA,NA,NA,NA,NA,NA,NA,NA,NA,NA,NA,NA,NA,NA,NA,NA,NA,NA,NA
