observation,sender,sender_type,sender_id,response,response_action,ended_on,duration,time_run,time_render,time_show,time_end,time_commit,timestamp,time_switch,distractors,german,swahili,enc,distractor1,distractor2,distractor3,response_2,x,correct,x_2,url_vp,url_sess,meta_labjs_version,meta_location,meta_user_agent,meta_platform,meta_language,meta_locale,meta_time_zone,meta_timezone_offset,meta_screen_width,meta_screen_height,meta_scroll_width,meta_scroll_height,meta_window_inner_width,meta_window_inner_height,meta_device_pixel_ratio,meta_labjs_build_flavor,meta_labjs_build_commit
819ba,Introduction general,canvas.Screen,0,weiter,keypress(q),response,5863764.3679998,743.5,478.08,777.832,5864542.1999998,5864551.3000002,2023-06-15T09:22:12Z,5864556.792,NULL,NA,NA,NA,NA,NA,NA,NA,NA,NA,NA,219,3,20.2.4,https://neurocog.fernuni.ch/studies/vweber/sfink/encoding_immediate/index.html?vp=219&sess=3,"Mozilla/5.0 (Windows NT 10.0; Win64; x64) AppleWebKit/537.36 (KHTML, like Gecko) Chrome/114.0.0.0 Safari/537.36",Win32,de-CH,de,Europe/Zurich,-120,1536,864,1536,706,1536,754,1.25,production,f5b4a49f956347addd546a832a3327688c2c0fef
819ba,Introduction practice,canvas.Screen,1_0,NA,keypress(Space),response,3296.2079999996,5864552.4000001,5864539.153,5864556.792,5867853,5867854.1999998,2023-06-15T09:22:16Z,5867874.472,NULL,NA,NA,NA,NA,NA,NA,NA,NA,NA,NA,NA,NA,NA,NA,NA,NA,NA,NA,NA,NA,NA,NA,NA,NA,NA,NA,NA,NA,NA
819ba,Deep Question,html.Page,1_1_0_0_0,NA,NA,form submission,3863.6279999046,5867854.8000002,5867842.073,5867874.472,5871738.0999999,5871738.3000002,2023-06-15T09:22:20Z,5871754.725,"c(""distractor1"", ""distractor2"", ""distractor3"")",Gesundheit,salama,d,NA,NA,NA,h,NA,NA,NA,NA,NA,NA,NA,NA,NA,NA,NA,NA,NA,NA,NA,NA,NA,NA,NA,NA,NA,NA
819ba,"""Richtig""-Screen",canvas.Screen,1_1_0_0_1,NA,NA,skipped,NA,5871740.5,NA,NA,5871738.0999999,5871740.6999998,2023-06-15T09:22:20Z,5871754.725,"c(""distractor1"", ""distractor2"", ""distractor3"")",Gesundheit,salama,d,NA,NA,NA,NA,NA,NA,NA,NA,NA,NA,NA,NA,NA,NA,NA,NA,NA,NA,NA,NA,NA,NA,NA,NA,NA,NA
819ba,"""Falsch""-Screen",canvas.Screen,1_1_0_0_2,NA,NA,timeout,5003.6220000004,5871742.3000002,5871729.528,5871754.725,5876742.208,5876747.1999998,2023-06-15T09:22:25Z,5876758.347,"c(""distractor1"", ""distractor2"", ""distractor3"")",Gesundheit,salama,d,NA,NA,NA,NA,NA,0,NA,NA,NA,NA,NA,NA,NA,NA,NA,NA,NA,NA,NA,NA,NA,NA,NA,NA,NA,NA
819ba,deep,flow.Sequence,1_1_0_0,NA,NA,completion,8867.7359999996,5867854.6999998,5867842.073,5867874.472,5876742.208,5876747.9000001,2023-06-15T09:22:25Z,5876758.347,"c(""distractor1"", ""distractor2"", ""distractor3"")",Gesundheit,salama,d,NA,NA,NA,NA,NA,NA,NA,NA,NA,NA,NA,NA,NA,NA,NA,NA,NA,NA,NA,NA,NA,NA,NA,NA,NA,NA
819ba,shallow,flow.Sequence,1_1_0_1,NA,NA,skipped,NA,5876748.1999998,NA,NA,5876742.208,5876748.4000001,2023-06-15T09:22:25Z,5876758.347,"c(""distractor1"", ""distractor2"", ""distractor3"")",Gesundheit,salama,d,NA,NA,NA,NA,NA,NA,NA,NA,NA,NA,NA,NA,NA,NA,NA,NA,NA,NA,NA,NA,NA,NA,NA,NA,NA,NA
819ba,task,flow.Sequence,1_1_0,NA,NA,completion,8867.7359999996,5867854.6999998,5867842.073,5867874.472,5876742.208,5876748.8000002,2023-06-15T09:22:25Z,5876758.347,"c(""distractor1"", ""distractor2"", ""distractor3"")",Gesundheit,salama,d,NA,NA,NA,NA,NA,NA,NA,NA,NA,NA,NA,NA,NA,NA,NA,NA,NA,NA,NA,NA,NA,NA,NA,NA,NA,NA
819ba,deep,flow.Sequence,1_1_1_0,NA,NA,skipped,NA,5876749.0999999,NA,NA,5876742.208,5876749.3000002,2023-06-15T09:22:25Z,5876758.347,"c(""distractor1"", ""distractor2"", ""distractor3"")",Gegenwart,hadhara,s,katiba,jokofu,mikopo,NA,NA,NA,NA,NA,NA,NA,NA,NA,NA,NA,NA,NA,NA,NA,NA,NA,NA,NA,NA,NA,NA,NA
819ba,Shallow Question,html.Page,1_1_1_1_0,NA,NA,form submission,5189.8529998092,5876749.5999999,5876742.208,5876758.347,5881948.1999998,5881948.5,2023-06-15T09:22:30Z,5881961.137,"c(""distractor1"", ""distractor2"", ""distractor3"")",Gegenwart,hadhara,s,katiba,jokofu,mikopo,jokofu,NA,NA,NA,NA,NA,NA,NA,NA,NA,NA,NA,NA,NA,NA,NA,NA,NA,NA,NA,NA,NA,NA
819ba,"""Richtig""-Screen",canvas.Screen,1_1_1_1_1,NA,NA,skipped,NA,5881950.5,NA,NA,5881948.1999998,5881950.5999999,2023-06-15T09:22:30Z,5881961.137,"c(""distractor1"", ""distractor2"", ""distractor3"")",Gegenwart,hadhara,s,katiba,jokofu,mikopo,NA,NA,NA,NA,NA,NA,NA,NA,NA,NA,NA,NA,NA,NA,NA,NA,NA,NA,NA,NA,NA,NA,NA
819ba,"""Falsch""-Screen",canvas.Screen,1_1_1_1_2,NA,NA,timeout,5003.7469999995,5881951.4000001,5881931.319,5881961.137,5886948.364,5886949.5999999,2023-06-15T09:22:35Z,5886964.884,"c(""distractor1"", ""distractor2"", ""distractor3"")",Gegenwart,hadhara,s,katiba,jokofu,mikopo,NA,NA,0,NA,NA,NA,NA,NA,NA,NA,NA,NA,NA,NA,NA,NA,NA,NA,NA,NA,NA,NA,NA
819ba,shallow,flow.Sequence,1_1_1_1,NA,NA,completion,10190.017,5876749.4000001,5876742.208,5876758.347,5886948.364,5886950.0999999,2023-06-15T09:22:35Z,5886964.884,"c(""distractor1"", ""distractor2"", ""distractor3"")",Gegenwart,hadhara,s,katiba,jokofu,mikopo,NA,NA,NA,NA,NA,NA,NA,NA,NA,NA,NA,NA,NA,NA,NA,NA,NA,NA,NA,NA,NA,NA,NA
819ba,task,flow.Sequence,1_1_1,NA,NA,completion,10190.017,5876748.9000001,5876742.208,5876758.347,5886948.364,5886950.5,2023-06-15T09:22:35Z,5886964.884,"c(""distractor1"", ""distractor2"", ""distractor3"")",Gegenwart,hadhara,s,katiba,jokofu,mikopo,NA,NA,NA,NA,NA,NA,NA,NA,NA,NA,NA,NA,NA,NA,NA,NA,NA,NA,NA,NA,NA,NA,NA
819ba,deep,flow.Sequence,1_1_2_0,NA,NA,skipped,NA,5886950.8000002,NA,NA,5886948.364,5886951,2023-06-15T09:22:35Z,5886964.884,"c(""distractor1"", ""distractor2"", ""distractor3"")",Rückhalt,msaada,s,muhula,auwali,kiwimbe,NA,NA,NA,NA,NA,NA,NA,NA,NA,NA,NA,NA,NA,NA,NA,NA,NA,NA,NA,NA,NA,NA,NA
819ba,Shallow Question,html.Page,1_1_2_1_0,NA,NA,form submission,4692.9160001911,5886951.1999998,5886948.364,5886964.884,5891657.8000002,5891658,2023-06-15T09:22:40Z,5891671.784,"c(""distractor1"", ""distractor2"", ""distractor3"")",Rückhalt,msaada,s,muhula,auwali,kiwimbe,msaada,NA,NA,NA,NA,NA,NA,NA,NA,NA,NA,NA,NA,NA,NA,NA,NA,NA,NA,NA,NA,NA,NA
819ba,"""Richtig""-Screen",canvas.Screen,1_1_2_1_1,NA,NA,timeout,4999.5089999996,5891659.9000001,5891648.949,5891671.784,5896655.17,5896656.3000002,2023-06-15T09:22:45Z,5896671.293,"c(""distractor1"", ""distractor2"", ""distractor3"")",Rückhalt,msaada,s,muhula,auwali,kiwimbe,NA,NA,1,NA,NA,NA,NA,NA,NA,NA,NA,NA,NA,NA,NA,NA,NA,NA,NA,NA,NA,NA,NA
819ba,"""Falsch""-Screen",canvas.Screen,1_1_2_1_2,NA,NA,skipped,NA,5896661.8000002,NA,NA,5896655.17,5896662.3000002,2023-06-15T09:22:45Z,5896671.293,"c(""distractor1"", ""distractor2"", ""distractor3"")",Rückhalt,msaada,s,muhula,auwali,kiwimbe,NA,NA,NA,NA,NA,NA,NA,NA,NA,NA,NA,NA,NA,NA,NA,NA,NA,NA,NA,NA,NA,NA,NA
819ba,shallow,flow.Sequence,1_1_2_1,NA,NA,completion,9690.2860000003,5886951.1999998,5886948.364,5886964.884,5896655.17,5896662.5999999,2023-06-15T09:22:45Z,5896671.293,"c(""distractor1"", ""distractor2"", ""distractor3"")",Rückhalt,msaada,s,muhula,auwali,kiwimbe,NA,NA,NA,NA,NA,NA,NA,NA,NA,NA,NA,NA,NA,NA,NA,NA,NA,NA,NA,NA,NA,NA,NA
819ba,task,flow.Sequence,1_1_2,NA,NA,completion,9690.2860000003,5886950.6999998,5886948.364,5886964.884,5896655.17,5896662.9000001,2023-06-15T09:22:45Z,5896671.293,"c(""distractor1"", ""distractor2"", ""distractor3"")",Rückhalt,msaada,s,muhula,auwali,kiwimbe,NA,NA,NA,NA,NA,NA,NA,NA,NA,NA,NA,NA,NA,NA,NA,NA,NA,NA,NA,NA,NA,NA,NA
819ba,Deep Question,html.Page,1_1_3_0_0,NA,NA,form submission,4504.2070000004,5896663.3000002,5896655.17,5896671.293,5901175.5,5901175.5999999,2023-06-15T09:22:49Z,5901182.492,"c(""distractor1"", ""distractor2"", ""distractor3"")",Qualität,mtindo,d,NA,NA,NA,l,NA,NA,NA,NA,NA,NA,NA,NA,NA,NA,NA,NA,NA,NA,NA,NA,NA,NA,NA,NA,NA,NA
819ba,"""Richtig""-Screen",canvas.Screen,1_1_3_0_1,NA,NA,skipped,NA,5901177.5,NA,NA,5901175.5,5901177.6999998,2023-06-15T09:22:49Z,5901182.492,"c(""distractor1"", ""distractor2"", ""distractor3"")",Qualität,mtindo,d,NA,NA,NA,NA,NA,NA,NA,NA,NA,NA,NA,NA,NA,NA,NA,NA,NA,NA,NA,NA,NA,NA,NA,NA,NA,NA
819ba,"""Falsch""-Screen",canvas.Screen,1_1_3_0_2,NA,NA,timeout,5003.6050000004,5901179,5901174.72,5901182.492,5906169.481,5906176.4000001,2023-06-15T09:22:54Z,5906186.097,"c(""distractor1"", ""distractor2"", ""distractor3"")",Qualität,mtindo,d,NA,NA,NA,NA,NA,0,NA,NA,NA,NA,NA,NA,NA,NA,NA,NA,NA,NA,NA,NA,NA,NA,NA,NA,NA,NA
819ba,deep,flow.Sequence,1_1_3_0,NA,NA,completion,9498.1880000001,5896663.1999998,5896655.17,5896671.293,5906169.481,5906176.8000002,2023-06-15T09:22:54Z,5906186.097,"c(""distractor1"", ""distractor2"", ""distractor3"")",Qualität,mtindo,d,NA,NA,NA,NA,NA,NA,NA,NA,NA,NA,NA,NA,NA,NA,NA,NA,NA,NA,NA,NA,NA,NA,NA,NA,NA,NA
819ba,shallow,flow.Sequence,1_1_3_1,NA,NA,skipped,NA,5906177,NA,NA,5906169.481,5906177.1999998,2023-06-15T09:22:54Z,5906186.097,"c(""distractor1"", ""distractor2"", ""distractor3"")",Qualität,mtindo,d,NA,NA,NA,NA,NA,NA,NA,NA,NA,NA,NA,NA,NA,NA,NA,NA,NA,NA,NA,NA,NA,NA,NA,NA,NA,NA
819ba,task,flow.Sequence,1_1_3,NA,NA,completion,9498.1880000001,5896663.0999999,5896655.17,5896671.293,5906169.481,5906177.4000001,2023-06-15T09:22:54Z,5906186.097,"c(""distractor1"", ""distractor2"", ""distractor3"")",Qualität,mtindo,d,NA,NA,NA,NA,NA,NA,NA,NA,NA,NA,NA,NA,NA,NA,NA,NA,NA,NA,NA,NA,NA,NA,NA,NA,NA,NA
819ba,Deep Question,html.Page,1_1_4_0_0,NA,NA,form submission,2525.0029999046,5906177.6999998,5906169.481,5906186.097,5908711.0999999,5908711.3000002,2023-06-15T09:22:57Z,5908718.187,"c(""distractor1"", ""distractor2"", ""distractor3"")",Schatten,kivuli,d,NA,NA,NA,j,NA,NA,NA,NA,NA,NA,NA,NA,NA,NA,NA,NA,NA,NA,NA,NA,NA,NA,NA,NA,NA,NA
819ba,"""Richtig""-Screen",canvas.Screen,1_1_4_0_1,NA,NA,skipped,NA,5908713.4000001,NA,NA,5908711.0999999,5908713.5,2023-06-15T09:22:57Z,5908718.187,"c(""distractor1"", ""distractor2"", ""distractor3"")",Schatten,kivuli,d,NA,NA,NA,NA,NA,NA,NA,NA,NA,NA,NA,NA,NA,NA,NA,NA,NA,NA,NA,NA,NA,NA,NA,NA,NA,NA
819ba,"""Falsch""-Screen",canvas.Screen,1_1_4_0_2,NA,NA,timeout,4995.3739999998,5908714.0999999,5908701.854,5908718.187,5913697.451,5913698.6999998,2023-06-15T09:23:02Z,5913713.561,"c(""distractor1"", ""distractor2"", ""distractor3"")",Schatten,kivuli,d,NA,NA,NA,NA,NA,0,NA,NA,NA,NA,NA,NA,NA,NA,NA,NA,NA,NA,NA,NA,NA,NA,NA,NA,NA,NA
819ba,deep,flow.Sequence,1_1_4_0,NA,NA,completion,7511.3540000003,5906177.5999999,5906169.481,5906186.097,5913697.451,5913699.0999999,2023-06-15T09:23:02Z,5913713.561,"c(""distractor1"", ""distractor2"", ""distractor3"")",Schatten,kivuli,d,NA,NA,NA,NA,NA,NA,NA,NA,NA,NA,NA,NA,NA,NA,NA,NA,NA,NA,NA,NA,NA,NA,NA,NA,NA,NA
819ba,shallow,flow.Sequence,1_1_4_1,NA,NA,skipped,NA,5913699.1999998,NA,NA,5913697.451,5913699.5,2023-06-15T09:23:02Z,5913713.561,"c(""distractor1"", ""distractor2"", ""distractor3"")",Schatten,kivuli,d,NA,NA,NA,NA,NA,NA,NA,NA,NA,NA,NA,NA,NA,NA,NA,NA,NA,NA,NA,NA,NA,NA,NA,NA,NA,NA
819ba,task,flow.Sequence,1_1_4,NA,NA,completion,7511.3540000003,5906177.5999999,5906169.481,5906186.097,5913697.451,5913699.6999998,2023-06-15T09:23:02Z,5913713.561,"c(""distractor1"", ""distractor2"", ""distractor3"")",Schatten,kivuli,d,NA,NA,NA,NA,NA,NA,NA,NA,NA,NA,NA,NA,NA,NA,NA,NA,NA,NA,NA,NA,NA,NA,NA,NA,NA,NA
819ba,deep,flow.Sequence,1_1_5_0,NA,NA,skipped,NA,5913700,NA,NA,5913697.451,5913700.0999999,2023-06-15T09:23:02Z,5913713.561,"c(""distractor1"", ""distractor2"", ""distractor3"")",Kritik,lawama,s,dereva,nafasi,mawazo,NA,NA,NA,NA,NA,NA,NA,NA,NA,NA,NA,NA,NA,NA,NA,NA,NA,NA,NA,NA,NA,NA,NA
819ba,Shallow Question,html.Page,1_1_5_1_0,NA,NA,form submission,3455.6389998095,5913700.3000002,5913697.451,5913713.561,5917169.1999998,5917169.4000001,2023-06-15T09:23:05Z,5917174.347,"c(""distractor1"", ""distractor2"", ""distractor3"")",Kritik,lawama,s,dereva,nafasi,mawazo,mawazo,NA,NA,NA,NA,NA,NA,NA,NA,NA,NA,NA,NA,NA,NA,NA,NA,NA,NA,NA,NA,NA,NA
819ba,"""Richtig""-Screen",canvas.Screen,1_1_5_1_1,NA,NA,skipped,NA,5917171.8000002,NA,NA,5917169.1999998,5917172,2023-06-15T09:23:05Z,5917174.347,"c(""distractor1"", ""distractor2"", ""distractor3"")",Kritik,lawama,s,dereva,nafasi,mawazo,NA,NA,NA,NA,NA,NA,NA,NA,NA,NA,NA,NA,NA,NA,NA,NA,NA,NA,NA,NA,NA,NA,NA
819ba,"""Falsch""-Screen",canvas.Screen,1_1_5_1_2,NA,NA,timeout,4999.5889999997,5917172.5999999,5917153.254,5917174.347,5922157.804,5922159,2023-06-15T09:23:10Z,5922173.936,"c(""distractor1"", ""distractor2"", ""distractor3"")",Kritik,lawama,s,dereva,nafasi,mawazo,NA,NA,0,NA,NA,NA,NA,NA,NA,NA,NA,NA,NA,NA,NA,NA,NA,NA,NA,NA,NA,NA,NA
819ba,shallow,flow.Sequence,1_1_5_1,NA,NA,completion,8444.2429999998,5913700.3000002,5913697.451,5913713.561,5922157.804,5922159.4000001,2023-06-15T09:23:10Z,5922173.936,"c(""distractor1"", ""distractor2"", ""distractor3"")",Kritik,lawama,s,dereva,nafasi,mawazo,NA,NA,NA,NA,NA,NA,NA,NA,NA,NA,NA,NA,NA,NA,NA,NA,NA,NA,NA,NA,NA,NA,NA
819ba,task,flow.Sequence,1_1_5,NA,NA,completion,8444.2429999998,5913699.9000001,5913697.451,5913713.561,5922157.804,5922159.6999998,2023-06-15T09:23:10Z,5922173.936,"c(""distractor1"", ""distractor2"", ""distractor3"")",Kritik,lawama,s,dereva,nafasi,mawazo,NA,NA,NA,NA,NA,NA,NA,NA,NA,NA,NA,NA,NA,NA,NA,NA,NA,NA,NA,NA,NA,NA,NA
819ba,block,flow.Loop,1_1,NA,NA,completion,54283.331999999,5867854.5999999,5867842.073,5867874.472,5922157.804,5922160,2023-06-15T09:23:10Z,5922173.936,"c(""distractor1"", ""distractor2"", ""distractor3"")",NA,NA,NA,NA,NA,NA,NA,NA,NA,NA,NA,NA,NA,NA,NA,NA,NA,NA,NA,NA,NA,NA,NA,NA,NA,NA,NA,NA,NA
819ba,Practice,flow.Sequence,1,NA,NA,completion,57601.011999999,5864552.1999998,5864539.153,5864556.792,5922157.804,5922160.3000002,2023-06-15T09:23:10Z,5922173.936,NULL,NA,NA,NA,NA,NA,NA,NA,NA,NA,NA,NA,NA,NA,NA,NA,NA,NA,NA,NA,NA,NA,NA,NA,NA,NA,NA,NA,NA,NA
819ba,Experiment start,canvas.Screen,2,weiter,keypress(q),response,7576.2639998095,5922160.5,5922157.804,5922173.936,5929750.1999998,5929751.5,2023-06-15T09:23:18Z,5930006.541,NULL,NA,NA,NA,NA,NA,NA,NA,NA,NA,NA,NA,NA,NA,NA,NA,NA,NA,NA,NA,NA,NA,NA,NA,NA,NA,NA,NA,NA,NA
819ba,deep,flow.Sequence,3_0_0_0_0_0,NA,NA,skipped,NA,5929982.8000002,NA,NA,5929750.1999998,5929983.0999999,2023-06-15T09:23:18Z,5930006.541,NULL,Fenster,dirisha,s,walakini,tasawari,maarifa,NA,sdf,NA,0,NA,NA,NA,NA,NA,NA,NA,NA,NA,NA,NA,NA,NA,NA,NA,NA,NA,NA,NA
819ba,Shallow Question,html.Page,3_0_0_0_0_1_0,NA,NA,form submission,3792.8590000952,5929983.3000002,5929989.884,5930006.541,5933799.4000001,5933799.5999999,2023-06-15T09:23:22Z,5933805.016,NULL,Fenster,dirisha,s,walakini,tasawari,maarifa,maarifa,NA,NA,0,NA,NA,NA,NA,NA,NA,NA,NA,NA,NA,NA,NA,NA,NA,NA,NA,NA,NA,NA
819ba,"""Richtig""-Screen",canvas.Screen,3_0_0_0_0_1_1,NA,NA,skipped,NA,5933801.5999999,NA,NA,5933799.4000001,5933801.6999998,2023-06-15T09:23:22Z,5933805.016,NULL,Fenster,dirisha,s,walakini,tasawari,maarifa,NA,sdf,NA,0,NA,NA,NA,NA,NA,NA,NA,NA,NA,NA,NA,NA,NA,NA,NA,NA,NA,NA,NA
819ba,"""Falsch""-Screen",canvas.Screen,3_0_0_0_0_1_2,NA,NA,timeout,4999.7089999998,5933802.1999998,5933797.054,5933805.016,5938788.557,5938789.5999999,2023-06-15T09:23:27Z,5938804.725,NULL,Fenster,dirisha,s,walakini,tasawari,maarifa,NA,sdf,0,0,NA,NA,NA,NA,NA,NA,NA,NA,NA,NA,NA,NA,NA,NA,NA,NA,NA,NA,NA
819ba,shallow,flow.Sequence,3_0_0_0_0_1,NA,NA,completion,8782.0159999998,5929983.3000002,5929989.884,5930006.541,5938788.557,5938790,2023-06-15T09:23:27Z,5938804.725,NULL,Fenster,dirisha,s,walakini,tasawari,maarifa,NA,sdf,NA,0,NA,NA,NA,NA,NA,NA,NA,NA,NA,NA,NA,NA,NA,NA,NA,NA,NA,NA,NA
819ba,task,flow.Sequence,3_0_0_0_0,NA,NA,completion,8782.0159999998,5929982.8000002,5929989.884,5930006.541,5938788.557,5938790.3000002,2023-06-15T09:23:27Z,5938804.725,NULL,Fenster,dirisha,s,walakini,tasawari,maarifa,NA,sdf,NA,0,NA,NA,NA,NA,NA,NA,NA,NA,NA,NA,NA,NA,NA,NA,NA,NA,NA,NA,NA
819ba,deep,flow.Sequence,3_0_0_0_1_0,NA,NA,skipped,NA,5938790.5,NA,NA,5938788.557,5938790.6999998,2023-06-15T09:23:27Z,5938804.725,NULL,Spionage,upelelezi,s,maslahi,utokazo,magangao,NA,sdf,NA,0,NA,NA,NA,NA,NA,NA,NA,NA,NA,NA,NA,NA,NA,NA,NA,NA,NA,NA,NA
819ba,Shallow Question,html.Page,3_0_0_0_1_1_0,NA,NA,form submission,3343.374999905,5938790.9000001,5938788.557,5938804.725,5942148.0999999,5942148.1999998,2023-06-15T09:23:30Z,5942166.305,NULL,Spionage,upelelezi,s,maslahi,utokazo,magangao,maslahi,NA,NA,0,NA,NA,NA,NA,NA,NA,NA,NA,NA,NA,NA,NA,NA,NA,NA,NA,NA,NA,NA
819ba,"""Richtig""-Screen",canvas.Screen,3_0_0_0_1_1_1,NA,NA,skipped,NA,5942150,NA,NA,5942148.0999999,5942150.1999998,2023-06-15T09:23:30Z,5942166.305,NULL,Spionage,upelelezi,s,maslahi,utokazo,magangao,NA,sdf,NA,0,NA,NA,NA,NA,NA,NA,NA,NA,NA,NA,NA,NA,NA,NA,NA,NA,NA,NA,NA
819ba,"""Falsch""-Screen",canvas.Screen,3_0_0_0_1_1_2,NA,NA,timeout,4999.54,5942150.6999998,5942144.747,5942166.305,5947149.736,5947150.8000002,2023-06-15T09:23:35Z,5947165.845,NULL,Spionage,upelelezi,s,maslahi,utokazo,magangao,NA,sdf,0,0,NA,NA,NA,NA,NA,NA,NA,NA,NA,NA,NA,NA,NA,NA,NA,NA,NA,NA,NA
819ba,shallow,flow.Sequence,3_0_0_0_1_1,NA,NA,completion,8345.0109999999,5938790.9000001,5938788.557,5938804.725,5947149.736,5947151.3000002,2023-06-15T09:23:35Z,5947165.845,NULL,Spionage,upelelezi,s,maslahi,utokazo,magangao,NA,sdf,NA,0,NA,NA,NA,NA,NA,NA,NA,NA,NA,NA,NA,NA,NA,NA,NA,NA,NA,NA,NA
819ba,task,flow.Sequence,3_0_0_0_1,NA,NA,completion,8345.0109999999,5938790.5,5938788.557,5938804.725,5947149.736,5947151.5999999,2023-06-15T09:23:35Z,5947165.845,NULL,Spionage,upelelezi,s,maslahi,utokazo,magangao,NA,sdf,NA,0,NA,NA,NA,NA,NA,NA,NA,NA,NA,NA,NA,NA,NA,NA,NA,NA,NA,NA,NA
819ba,Deep Question,html.Page,3_0_0_0_2_0_0,NA,NA,form submission,3784.1550000003,5947151.8000002,5947149.736,5947165.845,5950950,5950950.3000002,2023-06-15T09:23:39Z,5950964.658,NULL,Niveau,kiwango,d,NA,NA,NA,i,NA,NA,0,NA,NA,NA,NA,NA,NA,NA,NA,NA,NA,NA,NA,NA,NA,NA,NA,NA,NA,NA
819ba,"""Richtig""-Screen",canvas.Screen,3_0_0_0_2_0_1,NA,NA,skipped,NA,5950952.1999998,NA,NA,5950950,5950952.3000002,2023-06-15T09:23:39Z,5950964.658,NULL,Niveau,kiwango,d,NA,NA,NA,NA,sdf,NA,0,NA,NA,NA,NA,NA,NA,NA,NA,NA,NA,NA,NA,NA,NA,NA,NA,NA,NA,NA
819ba,"""Falsch""-Screen",canvas.Screen,3_0_0_0_2_0_2,NA,NA,timeout,5004.074,5950952.9000001,5950940.173,5950964.658,5955952.235,5955953.4000001,2023-06-15T09:23:44Z,5955968.732,NULL,Niveau,kiwango,d,NA,NA,NA,NA,sdf,0,0,NA,NA,NA,NA,NA,NA,NA,NA,NA,NA,NA,NA,NA,NA,NA,NA,NA,NA,NA
819ba,deep,flow.Sequence,3_0_0_0_2_0,NA,NA,completion,8786.3900000006,5947151.6999998,5947149.736,5947165.845,5955952.235,5955953.8000002,2023-06-15T09:23:44Z,5955968.732,NULL,Niveau,kiwango,d,NA,NA,NA,NA,sdf,NA,0,NA,NA,NA,NA,NA,NA,NA,NA,NA,NA,NA,NA,NA,NA,NA,NA,NA,NA,NA
819ba,shallow,flow.Sequence,3_0_0_0_2_1,NA,NA,skipped,NA,5955954,NA,NA,5955952.235,5955954.1999998,2023-06-15T09:23:44Z,5955968.732,NULL,Niveau,kiwango,d,NA,NA,NA,NA,sdf,NA,0,NA,NA,NA,NA,NA,NA,NA,NA,NA,NA,NA,NA,NA,NA,NA,NA,NA,NA,NA
819ba,task,flow.Sequence,3_0_0_0_2,NA,NA,completion,8786.3900000006,5947151.6999998,5947149.736,5947165.845,5955952.235,5955954.5,2023-06-15T09:23:44Z,5955968.732,NULL,Niveau,kiwango,d,NA,NA,NA,NA,sdf,NA,0,NA,NA,NA,NA,NA,NA,NA,NA,NA,NA,NA,NA,NA,NA,NA,NA,NA,NA,NA
819ba,Deep Question,html.Page,3_0_0_0_3_0_0,NA,NA,form submission,5631.3679999048,5955954.8000002,5955952.235,5955968.732,5961600.0999999,5961600.4000001,2023-06-15T09:23:49Z,5961613.064,NULL,Schüler,mwanafunzi,d,NA,NA,NA,l,NA,NA,0,NA,NA,NA,NA,NA,NA,NA,NA,NA,NA,NA,NA,NA,NA,NA,NA,NA,NA,NA
819ba,"""Richtig""-Screen",canvas.Screen,3_0_0_0_3_0_1,NA,NA,skipped,NA,5961602.3000002,NA,NA,5961600.0999999,5961602.5,2023-06-15T09:23:49Z,5961613.064,NULL,Schüler,mwanafunzi,d,NA,NA,NA,NA,sdf,NA,0,NA,NA,NA,NA,NA,NA,NA,NA,NA,NA,NA,NA,NA,NA,NA,NA,NA,NA,NA
819ba,"""Falsch""-Screen",canvas.Screen,3_0_0_0_3_0_2,NA,NA,timeout,4995.7189999996,5961603.0999999,5961596.954,5961613.064,5966592.139,5966593.3000002,2023-06-15T09:23:54Z,5966608.783,NULL,Schüler,mwanafunzi,d,NA,NA,NA,NA,sdf,0,0,NA,NA,NA,NA,NA,NA,NA,NA,NA,NA,NA,NA,NA,NA,NA,NA,NA,NA,NA
819ba,deep,flow.Sequence,3_0_0_0_3_0,NA,NA,completion,10623.407000001,5955954.6999998,5955952.235,5955968.732,5966592.139,5966593.8000002,2023-06-15T09:23:54Z,5966608.783,NULL,Schüler,mwanafunzi,d,NA,NA,NA,NA,sdf,NA,0,NA,NA,NA,NA,NA,NA,NA,NA,NA,NA,NA,NA,NA,NA,NA,NA,NA,NA,NA
819ba,shallow,flow.Sequence,3_0_0_0_3_1,NA,NA,skipped,NA,5966594,NA,NA,5966592.139,5966594.1999998,2023-06-15T09:23:54Z,5966608.783,NULL,Schüler,mwanafunzi,d,NA,NA,NA,NA,sdf,NA,0,NA,NA,NA,NA,NA,NA,NA,NA,NA,NA,NA,NA,NA,NA,NA,NA,NA,NA,NA
819ba,task,flow.Sequence,3_0_0_0_3,NA,NA,completion,10623.407000001,5955954.5999999,5955952.235,5955968.732,5966592.139,5966594.5,2023-06-15T09:23:54Z,5966608.783,NULL,Schüler,mwanafunzi,d,NA,NA,NA,NA,sdf,NA,0,NA,NA,NA,NA,NA,NA,NA,NA,NA,NA,NA,NA,NA,NA,NA,NA,NA,NA,NA
819ba,Deep Question,html.Page,3_0_0_0_4_0_0,NA,NA,form submission,1348.3169999048,5966594.8000002,5966592.139,5966608.783,5967957.0999999,5967957.3000002,2023-06-15T09:23:56Z,5967961.892,NULL,Tester,wanaojaribu,d,NA,NA,NA,k,NA,NA,0,NA,NA,NA,NA,NA,NA,NA,NA,NA,NA,NA,NA,NA,NA,NA,NA,NA,NA,NA
819ba,"""Richtig""-Screen",canvas.Screen,3_0_0_0_4_0_1,NA,NA,skipped,NA,5967960.3000002,NA,NA,5967957.0999999,5967960.5999999,2023-06-15T09:23:56Z,5967961.892,NULL,Tester,wanaojaribu,d,NA,NA,NA,NA,sdf,NA,0,NA,NA,NA,NA,NA,NA,NA,NA,NA,NA,NA,NA,NA,NA,NA,NA,NA,NA,NA
819ba,"""Falsch""-Screen",canvas.Screen,3_0_0_0_4_0_2,NA,NA,timeout,5003.6009999998,5967961.9000001,5967954,5967961.892,5972949.501,5972950.5999999,2023-06-15T09:24:01Z,5972965.493,NULL,Tester,wanaojaribu,d,NA,NA,NA,NA,sdf,0,0,NA,NA,NA,NA,NA,NA,NA,NA,NA,NA,NA,NA,NA,NA,NA,NA,NA,NA,NA
819ba,deep,flow.Sequence,3_0_0_0_4_0,NA,NA,completion,6340.7180000003,5966594.6999998,5966592.139,5966608.783,5972949.501,5972951.0999999,2023-06-15T09:24:01Z,5972965.493,NULL,Tester,wanaojaribu,d,NA,NA,NA,NA,sdf,NA,0,NA,NA,NA,NA,NA,NA,NA,NA,NA,NA,NA,NA,NA,NA,NA,NA,NA,NA,NA
819ba,shallow,flow.Sequence,3_0_0_0_4_1,NA,NA,skipped,NA,5972951.3000002,NA,NA,5972949.501,5972951.5,2023-06-15T09:24:01Z,5972965.493,NULL,Tester,wanaojaribu,d,NA,NA,NA,NA,sdf,NA,0,NA,NA,NA,NA,NA,NA,NA,NA,NA,NA,NA,NA,NA,NA,NA,NA,NA,NA,NA
819ba,task,flow.Sequence,3_0_0_0_4,NA,NA,completion,6340.7180000003,5966594.5999999,5966592.139,5966608.783,5972949.501,5972951.6999998,2023-06-15T09:24:01Z,5972965.493,NULL,Tester,wanaojaribu,d,NA,NA,NA,NA,sdf,NA,0,NA,NA,NA,NA,NA,NA,NA,NA,NA,NA,NA,NA,NA,NA,NA,NA,NA,NA,NA
819ba,deep,flow.Sequence,3_0_0_0_5_0,NA,NA,skipped,NA,5972951.9000001,NA,NA,5972949.501,5972952,2023-06-15T09:24:01Z,5972965.493,NULL,Vorwurf,mashtaka,s,msukumo,mtangulizi,uenyekiti,NA,sdf,NA,0,NA,NA,NA,NA,NA,NA,NA,NA,NA,NA,NA,NA,NA,NA,NA,NA,NA,NA,NA
819ba,Shallow Question,html.Page,3_0_0_0_5_1_0,NA,NA,form submission,4385.0070000002,5972952.1999998,5972949.501,5972965.493,5977350.5,5977350.5,2023-06-15T09:24:05Z,5977350.761,NULL,Vorwurf,mashtaka,s,msukumo,mtangulizi,uenyekiti,uenyekiti,NA,NA,0,NA,NA,NA,NA,NA,NA,NA,NA,NA,NA,NA,NA,NA,NA,NA,NA,NA,NA,NA
819ba,"""Richtig""-Screen",canvas.Screen,3_0_0_0_5_1_1,NA,NA,skipped,NA,5977352.5,NA,NA,5977350.5,5977352.5999999,2023-06-15T09:24:05Z,5977350.761,NULL,Vorwurf,mashtaka,s,msukumo,mtangulizi,uenyekiti,NA,sdf,NA,0,NA,NA,NA,NA,NA,NA,NA,NA,NA,NA,NA,NA,NA,NA,NA,NA,NA,NA,NA
819ba,"""Falsch""-Screen",canvas.Screen,3_0_0_0_5_1_2,NA,NA,timeout,4995.909,5977353.3000002,5977345.984,5977350.761,5982330.116,5982331.3000002,2023-06-15T09:24:10Z,5982346.67,NULL,Vorwurf,mashtaka,s,msukumo,mtangulizi,uenyekiti,NA,sdf,0,0,NA,NA,NA,NA,NA,NA,NA,NA,NA,NA,NA,NA,NA,NA,NA,NA,NA,NA,NA
819ba,shallow,flow.Sequence,3_0_0_0_5_1,NA,NA,completion,9364.6230000006,5972952.1999998,5972949.501,5972965.493,5982330.116,5982331.8000002,2023-06-15T09:24:10Z,5982346.67,NULL,Vorwurf,mashtaka,s,msukumo,mtangulizi,uenyekiti,NA,sdf,NA,0,NA,NA,NA,NA,NA,NA,NA,NA,NA,NA,NA,NA,NA,NA,NA,NA,NA,NA,NA
819ba,task,flow.Sequence,3_0_0_0_5,NA,NA,completion,9364.6230000006,5972951.9000001,5972949.501,5972965.493,5982330.116,5982332.0999999,2023-06-15T09:24:10Z,5982346.67,NULL,Vorwurf,mashtaka,s,msukumo,mtangulizi,uenyekiti,NA,sdf,NA,0,NA,NA,NA,NA,NA,NA,NA,NA,NA,NA,NA,NA,NA,NA,NA,NA,NA,NA,NA
819ba,Deep Question,html.Page,3_0_0_0_6_0_0,NA,NA,form submission,1620.5299998093,5982332.4000001,5982330.116,5982346.67,5983967.1999998,5983967.3000002,2023-06-15T09:24:12Z,5983987.169,NULL,Papier,karatasi,d,NA,NA,NA,k,NA,NA,0,NA,NA,NA,NA,NA,NA,NA,NA,NA,NA,NA,NA,NA,NA,NA,NA,NA,NA,NA
819ba,"""Richtig""-Screen",canvas.Screen,3_0_0_0_6_0_1,NA,NA,skipped,NA,5983969.9000001,NA,NA,5983967.1999998,5983970.0999999,2023-06-15T09:24:12Z,5983987.169,NULL,Papier,karatasi,d,NA,NA,NA,NA,sdf,NA,0,NA,NA,NA,NA,NA,NA,NA,NA,NA,NA,NA,NA,NA,NA,NA,NA,NA,NA,NA
819ba,"""Falsch""-Screen",canvas.Screen,3_0_0_0_6_0_2,NA,NA,timeout,5007.7170000002,5983971.5,5983957.849,5983987.169,5988978.83,5988980.3000002,2023-06-15T09:24:17Z,5988994.886,NULL,Papier,karatasi,d,NA,NA,NA,NA,sdf,0,0,NA,NA,NA,NA,NA,NA,NA,NA,NA,NA,NA,NA,NA,NA,NA,NA,NA,NA,NA
819ba,deep,flow.Sequence,3_0_0_0_6_0,NA,NA,completion,6632.1600000001,5982332.3000002,5982330.116,5982346.67,5988978.83,5988980.8000002,2023-06-15T09:24:17Z,5988994.886,NULL,Papier,karatasi,d,NA,NA,NA,NA,sdf,NA,0,NA,NA,NA,NA,NA,NA,NA,NA,NA,NA,NA,NA,NA,NA,NA,NA,NA,NA,NA
819ba,shallow,flow.Sequence,3_0_0_0_6_1,NA,NA,skipped,NA,5988981,NA,NA,5988978.83,5988981.1999998,2023-06-15T09:24:17Z,5988994.886,NULL,Papier,karatasi,d,NA,NA,NA,NA,sdf,NA,0,NA,NA,NA,NA,NA,NA,NA,NA,NA,NA,NA,NA,NA,NA,NA,NA,NA,NA,NA
819ba,task,flow.Sequence,3_0_0_0_6,NA,NA,completion,6632.1600000001,5982332.3000002,5982330.116,5982346.67,5988978.83,5988981.5,2023-06-15T09:24:17Z,5988994.886,NULL,Papier,karatasi,d,NA,NA,NA,NA,sdf,NA,0,NA,NA,NA,NA,NA,NA,NA,NA,NA,NA,NA,NA,NA,NA,NA,NA,NA,NA,NA
819ba,deep,flow.Sequence,3_0_0_0_7_0,NA,NA,skipped,NA,5988981.6999998,NA,NA,5988978.83,5988981.9000001,2023-06-15T09:24:17Z,5988994.886,NULL,Entwicklung,maendeleo,s,uangavu,mshindwa,badiliko,NA,sdf,NA,0,NA,NA,NA,NA,NA,NA,NA,NA,NA,NA,NA,NA,NA,NA,NA,NA,NA,NA,NA
819ba,Shallow Question,html.Page,3_0_0_0_7_1_0,NA,NA,form submission,1867.4140001908,5988982.0999999,5988978.83,5988994.886,5990862.3000002,5990862.5,2023-06-15T09:24:19Z,5990872.791,NULL,Entwicklung,maendeleo,s,uangavu,mshindwa,badiliko,maendeleo,NA,NA,0,NA,NA,NA,NA,NA,NA,NA,NA,NA,NA,NA,NA,NA,NA,NA,NA,NA,NA,NA
819ba,"""Richtig""-Screen",canvas.Screen,3_0_0_0_7_1_1,NA,NA,timeout,5002.517,5990864.4000001,5990848.231,5990872.791,5995858.705,5995859.8000002,2023-06-15T09:24:24Z,5995875.308,NULL,Entwicklung,maendeleo,s,uangavu,mshindwa,badiliko,NA,sdf,1,0,NA,NA,NA,NA,NA,NA,NA,NA,NA,NA,NA,NA,NA,NA,NA,NA,NA,NA,NA
819ba,"""Falsch""-Screen",canvas.Screen,3_0_0_0_7_1_2,NA,NA,skipped,NA,5995865.3000002,NA,NA,5995858.705,5995865.6999998,2023-06-15T09:24:24Z,5995875.308,NULL,Entwicklung,maendeleo,s,uangavu,mshindwa,badiliko,NA,sdf,NA,0,NA,NA,NA,NA,NA,NA,NA,NA,NA,NA,NA,NA,NA,NA,NA,NA,NA,NA,NA
819ba,shallow,flow.Sequence,3_0_0_0_7_1,NA,NA,completion,6863.8190000001,5988982,5988978.83,5988994.886,5995858.705,5995866.0999999,2023-06-15T09:24:24Z,5995875.308,NULL,Entwicklung,maendeleo,s,uangavu,mshindwa,badiliko,NA,sdf,NA,0,NA,NA,NA,NA,NA,NA,NA,NA,NA,NA,NA,NA,NA,NA,NA,NA,NA,NA,NA
819ba,task,flow.Sequence,3_0_0_0_7,NA,NA,completion,6863.8190000001,5988981.5999999,5988978.83,5988994.886,5995858.705,5995866.4000001,2023-06-15T09:24:24Z,5995875.308,NULL,Entwicklung,maendeleo,s,uangavu,mshindwa,badiliko,NA,sdf,NA,0,NA,NA,NA,NA,NA,NA,NA,NA,NA,NA,NA,NA,NA,NA,NA,NA,NA,NA,NA
819ba,block,flow.Loop,3_0_0_0,NA,NA,completion,65852.164,5929982.6999998,5929989.884,5930006.541,5995858.705,5995866.6999998,2023-06-15T09:24:24Z,5995875.308,NULL,NA,NA,NA,NA,NA,NA,NA,sdf,NA,0,NA,NA,NA,NA,NA,NA,NA,NA,NA,NA,NA,NA,NA,NA,NA,NA,NA,NA,NA
819ba,weiter,canvas.Screen,3_0_0_1,sdf,keypress(Space),response,766.59200009517,5995866.9000001,5995858.705,5995875.308,5996641.9000001,5996643.0999999,2023-06-15T09:24:25Z,5996766.708,NULL,NA,NA,NA,NA,NA,NA,NA,sdf,NA,0,NA,NA,NA,NA,NA,NA,NA,NA,NA,NA,NA,NA,NA,NA,NA,NA,NA,NA,NA
819ba,check continue,flow.Sequence,3_0_0,NA,NA,completion,66635.359000095,5929982.5999999,5929989.884,5930006.541,5996641.9000001,5996643.4000001,2023-06-15T09:24:25Z,5996766.708,NULL,NA,NA,NA,NA,NA,NA,NA,sdf,NA,0,NA,NA,NA,NA,NA,NA,NA,NA,NA,NA,NA,NA,NA,NA,NA,NA,NA,NA,NA
819ba,deep,flow.Sequence,3_0_1_0_0_0,NA,NA,skipped,NA,5996747.5,NA,NA,5996641.9000001,5996747.8000002,2023-06-15T09:24:25Z,5996766.708,NULL,Vorwurf,mashtaka,s,msukumo,mtangulizi,uenyekiti,NA,sdfdsf,NA,1,NA,NA,NA,NA,NA,NA,NA,NA,NA,NA,NA,NA,NA,NA,NA,NA,NA,NA,NA
819ba,Shallow Question,html.Page,3_0_1_0_0_1_0,NA,NA,form submission,5847.5920001911,5996748,5996741.491,5996766.708,6002614.3000002,6002614.5,2023-06-15T09:24:30Z,6002633.84,NULL,Vorwurf,mashtaka,s,msukumo,mtangulizi,uenyekiti,mashtaka,NA,NA,1,NA,NA,NA,NA,NA,NA,NA,NA,NA,NA,NA,NA,NA,NA,NA,NA,NA,NA,NA
819ba,"""Richtig""-Screen",canvas.Screen,3_0_1_0_0_1_1,NA,NA,timeout,5003.6110000005,6002616.1999998,6002612.613,6002633.84,6007621.345,6007622.5999999,2023-06-15T09:24:35Z,6007637.451,NULL,Vorwurf,mashtaka,s,msukumo,mtangulizi,uenyekiti,NA,sdfdsf,1,1,NA,NA,NA,NA,NA,NA,NA,NA,NA,NA,NA,NA,NA,NA,NA,NA,NA,NA,NA
819ba,"""Falsch""-Screen",canvas.Screen,3_0_1_0_0_1_2,NA,NA,skipped,NA,6007627.9000001,NA,NA,6007621.345,6007628.3000002,2023-06-15T09:24:36Z,6007637.451,NULL,Vorwurf,mashtaka,s,msukumo,mtangulizi,uenyekiti,NA,sdfdsf,NA,1,NA,NA,NA,NA,NA,NA,NA,NA,NA,NA,NA,NA,NA,NA,NA,NA,NA,NA,NA
819ba,shallow,flow.Sequence,3_0_1_0_0_1,NA,NA,completion,10854.637,5996748,5996741.491,5996766.708,6007621.345,6007628.5999999,2023-06-15T09:24:36Z,6007637.451,NULL,Vorwurf,mashtaka,s,msukumo,mtangulizi,uenyekiti,NA,sdfdsf,NA,1,NA,NA,NA,NA,NA,NA,NA,NA,NA,NA,NA,NA,NA,NA,NA,NA,NA,NA,NA
819ba,task,flow.Sequence,3_0_1_0_0,NA,NA,completion,10854.637,5996747.5,5996741.491,5996766.708,6007621.345,6007628.9000001,2023-06-15T09:24:36Z,6007637.451,NULL,Vorwurf,mashtaka,s,msukumo,mtangulizi,uenyekiti,NA,sdfdsf,NA,1,NA,NA,NA,NA,NA,NA,NA,NA,NA,NA,NA,NA,NA,NA,NA,NA,NA,NA,NA
819ba,deep,flow.Sequence,3_0_1_0_1_0,NA,NA,skipped,NA,6007629.1999998,NA,NA,6007621.345,6007629.3000002,2023-06-15T09:24:36Z,6007637.451,NULL,Entwicklung,maendeleo,s,uangavu,mshindwa,badiliko,NA,sdfdsf,NA,1,NA,NA,NA,NA,NA,NA,NA,NA,NA,NA,NA,NA,NA,NA,NA,NA,NA,NA,NA
819ba,Shallow Question,html.Page,3_0_1_0_1_1_0,NA,NA,form submission,3398.8490001904,6007629.5,6007621.345,6007637.451,6011036.3000002,6011036.5,2023-06-15T09:24:39Z,6011051.998,NULL,Entwicklung,maendeleo,s,uangavu,mshindwa,badiliko,maendeleo,NA,NA,1,NA,NA,NA,NA,NA,NA,NA,NA,NA,NA,NA,NA,NA,NA,NA,NA,NA,NA,NA
819ba,"""Richtig""-Screen",canvas.Screen,3_0_1_0_1_1_1,NA,NA,timeout,4990.727,6011037.3000002,6011031.556,6011051.998,6016026.726,6016027.8000002,2023-06-15T09:24:44Z,6016042.725,NULL,Entwicklung,maendeleo,s,uangavu,mshindwa,badiliko,NA,sdfdsf,1,1,NA,NA,NA,NA,NA,NA,NA,NA,NA,NA,NA,NA,NA,NA,NA,NA,NA,NA,NA
819ba,"""Falsch""-Screen",canvas.Screen,3_0_1_0_1_1_2,NA,NA,skipped,NA,6016032.8000002,NA,NA,6016026.726,6016033.0999999,2023-06-15T09:24:44Z,6016042.725,NULL,Entwicklung,maendeleo,s,uangavu,mshindwa,badiliko,NA,sdfdsf,NA,1,NA,NA,NA,NA,NA,NA,NA,NA,NA,NA,NA,NA,NA,NA,NA,NA,NA,NA,NA
819ba,shallow,flow.Sequence,3_0_1_0_1_1,NA,NA,completion,8389.2749999994,6007629.5,6007621.345,6007637.451,6016026.726,6016033.4000001,2023-06-15T09:24:44Z,6016042.725,NULL,Entwicklung,maendeleo,s,uangavu,mshindwa,badiliko,NA,sdfdsf,NA,1,NA,NA,NA,NA,NA,NA,NA,NA,NA,NA,NA,NA,NA,NA,NA,NA,NA,NA,NA
819ba,task,flow.Sequence,3_0_1_0_1,NA,NA,completion,8389.2749999994,6007629.0999999,6007621.345,6007637.451,6016026.726,6016033.6999998,2023-06-15T09:24:44Z,6016042.725,NULL,Entwicklung,maendeleo,s,uangavu,mshindwa,badiliko,NA,sdfdsf,NA,1,NA,NA,NA,NA,NA,NA,NA,NA,NA,NA,NA,NA,NA,NA,NA,NA,NA,NA,NA
819ba,deep,flow.Sequence,3_0_1_0_2_0,NA,NA,skipped,NA,6016033.9000001,NA,NA,6016026.726,6016034.0999999,2023-06-15T09:24:44Z,6016042.725,NULL,Spionage,upelelezi,s,maslahi,utokazo,magangao,NA,sdfdsf,NA,1,NA,NA,NA,NA,NA,NA,NA,NA,NA,NA,NA,NA,NA,NA,NA,NA,NA,NA,NA
819ba,Shallow Question,html.Page,3_0_1_0_2_1_0,NA,NA,form submission,4119.7750000004,6016034.3000002,6016026.726,6016042.725,6020162.5,6020162.8000002,2023-06-15T09:24:48Z,6020182.21,NULL,Spionage,upelelezi,s,maslahi,utokazo,magangao,upelelezi,NA,NA,1,NA,NA,NA,NA,NA,NA,NA,NA,NA,NA,NA,NA,NA,NA,NA,NA,NA,NA,NA
819ba,"""Richtig""-Screen",canvas.Screen,3_0_1_0_2_1_1,NA,NA,timeout,4995.085,6020164.5,6020148.954,6020182.21,6025161.085,6025162.1999998,2023-06-15T09:24:53Z,6025177.295,NULL,Spionage,upelelezi,s,maslahi,utokazo,magangao,NA,sdfdsf,1,1,NA,NA,NA,NA,NA,NA,NA,NA,NA,NA,NA,NA,NA,NA,NA,NA,NA,NA,NA
819ba,"""Falsch""-Screen",canvas.Screen,3_0_1_0_2_1_2,NA,NA,skipped,NA,6025167.3000002,NA,NA,6025161.085,6025167.8000002,2023-06-15T09:24:53Z,6025177.295,NULL,Spionage,upelelezi,s,maslahi,utokazo,magangao,NA,sdfdsf,NA,1,NA,NA,NA,NA,NA,NA,NA,NA,NA,NA,NA,NA,NA,NA,NA,NA,NA,NA,NA
819ba,shallow,flow.Sequence,3_0_1_0_2_1,NA,NA,completion,9118.3600000003,6016034.1999998,6016026.726,6016042.725,6025161.085,6025168.1999998,2023-06-15T09:24:53Z,6025177.295,NULL,Spionage,upelelezi,s,maslahi,utokazo,magangao,NA,sdfdsf,NA,1,NA,NA,NA,NA,NA,NA,NA,NA,NA,NA,NA,NA,NA,NA,NA,NA,NA,NA,NA
819ba,task,flow.Sequence,3_0_1_0_2,NA,NA,completion,9118.3600000003,6016033.9000001,6016026.726,6016042.725,6025161.085,6025168.5,2023-06-15T09:24:53Z,6025177.295,NULL,Spionage,upelelezi,s,maslahi,utokazo,magangao,NA,sdfdsf,NA,1,NA,NA,NA,NA,NA,NA,NA,NA,NA,NA,NA,NA,NA,NA,NA,NA,NA,NA,NA
819ba,deep,flow.Sequence,3_0_1_0_3_0,NA,NA,skipped,NA,6025168.5999999,NA,NA,6025161.085,6025168.6999998,2023-06-15T09:24:53Z,6025177.295,NULL,Fenster,dirisha,s,walakini,tasawari,maarifa,NA,sdfdsf,NA,1,NA,NA,NA,NA,NA,NA,NA,NA,NA,NA,NA,NA,NA,NA,NA,NA,NA,NA,NA
819ba,Shallow Question,html.Page,3_0_1_0_3_1_0,NA,NA,form submission,7231.2050000001,6025169,6025161.085,6025177.295,6032408.5,6032408.5999999,2023-06-15T09:25:00Z,6032424.998,NULL,Fenster,dirisha,s,walakini,tasawari,maarifa,tasawari,NA,NA,1,NA,NA,NA,NA,NA,NA,NA,NA,NA,NA,NA,NA,NA,NA,NA,NA,NA,NA,NA
819ba,"""Richtig""-Screen",canvas.Screen,3_0_1_0_3_1_1,NA,NA,skipped,NA,6032410.4000001,NA,NA,6032408.5,6032410.5999999,2023-06-15T09:25:00Z,6032424.998,NULL,Fenster,dirisha,s,walakini,tasawari,maarifa,NA,sdfdsf,NA,1,NA,NA,NA,NA,NA,NA,NA,NA,NA,NA,NA,NA,NA,NA,NA,NA,NA,NA,NA
819ba,"""Falsch""-Screen",canvas.Screen,3_0_1_0_3_1_2,NA,NA,timeout,5003.7350000003,6032411.0999999,6032394.617,6032424.998,6037412.373,6037413.4000001,2023-06-15T09:25:05Z,6037428.733,NULL,Fenster,dirisha,s,walakini,tasawari,maarifa,NA,sdfdsf,0,1,NA,NA,NA,NA,NA,NA,NA,NA,NA,NA,NA,NA,NA,NA,NA,NA,NA,NA,NA
819ba,shallow,flow.Sequence,3_0_1_0_3_1,NA,NA,completion,12235.078,6025169,6025161.085,6025177.295,6037412.373,6037414.0999999,2023-06-15T09:25:05Z,6037428.733,NULL,Fenster,dirisha,s,walakini,tasawari,maarifa,NA,sdfdsf,NA,1,NA,NA,NA,NA,NA,NA,NA,NA,NA,NA,NA,NA,NA,NA,NA,NA,NA,NA,NA
819ba,task,flow.Sequence,3_0_1_0_3,NA,NA,completion,12235.078,6025168.5,6025161.085,6025177.295,6037412.373,6037414.4000001,2023-06-15T09:25:05Z,6037428.733,NULL,Fenster,dirisha,s,walakini,tasawari,maarifa,NA,sdfdsf,NA,1,NA,NA,NA,NA,NA,NA,NA,NA,NA,NA,NA,NA,NA,NA,NA,NA,NA,NA,NA
819ba,Deep Question,html.Page,3_0_1_0_4_0_0,NA,NA,form submission,5620.6670000954,6037414.6999998,6037412.373,6037428.733,6043049.4000001,6043049.5999999,2023-06-15T09:25:11Z,6043059.842,NULL,Papier,karatasi,d,NA,NA,NA,k,NA,NA,1,NA,NA,NA,NA,NA,NA,NA,NA,NA,NA,NA,NA,NA,NA,NA,NA,NA,NA,NA
819ba,"""Richtig""-Screen",canvas.Screen,3_0_1_0_4_0_1,NA,NA,skipped,NA,6043051.5,NA,NA,6043049.4000001,6043051.6999998,2023-06-15T09:25:11Z,6043059.842,NULL,Papier,karatasi,d,NA,NA,NA,NA,sdfdsf,NA,1,NA,NA,NA,NA,NA,NA,NA,NA,NA,NA,NA,NA,NA,NA,NA,NA,NA,NA,NA
819ba,"""Falsch""-Screen",canvas.Screen,3_0_1_0_4_0_2,NA,NA,timeout,4999.4720000001,6043052.3000002,6043043.629,6043059.842,6048043.269,6048044.5,2023-06-15T09:25:16Z,6048059.314,NULL,Papier,karatasi,d,NA,NA,NA,NA,sdfdsf,0,1,NA,NA,NA,NA,NA,NA,NA,NA,NA,NA,NA,NA,NA,NA,NA,NA,NA,NA,NA
819ba,deep,flow.Sequence,3_0_1_0_4_0,NA,NA,completion,10614.536,6037414.5999999,6037412.373,6037428.733,6048043.269,6048045,2023-06-15T09:25:16Z,6048059.314,NULL,Papier,karatasi,d,NA,NA,NA,NA,sdfdsf,NA,1,NA,NA,NA,NA,NA,NA,NA,NA,NA,NA,NA,NA,NA,NA,NA,NA,NA,NA,NA
819ba,shallow,flow.Sequence,3_0_1_0_4_1,NA,NA,skipped,NA,6048045.1999998,NA,NA,6048043.269,6048045.3000002,2023-06-15T09:25:16Z,6048059.314,NULL,Papier,karatasi,d,NA,NA,NA,NA,sdfdsf,NA,1,NA,NA,NA,NA,NA,NA,NA,NA,NA,NA,NA,NA,NA,NA,NA,NA,NA,NA,NA
819ba,task,flow.Sequence,3_0_1_0_4,NA,NA,completion,10614.536,6037414.5999999,6037412.373,6037428.733,6048043.269,6048045.5999999,2023-06-15T09:25:16Z,6048059.314,NULL,Papier,karatasi,d,NA,NA,NA,NA,sdfdsf,NA,1,NA,NA,NA,NA,NA,NA,NA,NA,NA,NA,NA,NA,NA,NA,NA,NA,NA,NA,NA
819ba,Deep Question,html.Page,3_0_1_0_5_0_0,NA,NA,form submission,7659.5860000951,6048045.9000001,6048043.269,6048059.314,6055718.9000001,6055719.1999998,2023-06-15T09:25:24Z,6055737.31,NULL,Tester,wanaojaribu,d,NA,NA,NA,k,NA,NA,1,NA,NA,NA,NA,NA,NA,NA,NA,NA,NA,NA,NA,NA,NA,NA,NA,NA,NA,NA
819ba,"""Richtig""-Screen",canvas.Screen,3_0_1_0_5_0_1,NA,NA,skipped,NA,6055721.1999998,NA,NA,6055718.9000001,6055721.3000002,2023-06-15T09:25:24Z,6055737.31,NULL,Tester,wanaojaribu,d,NA,NA,NA,NA,sdfdsf,NA,1,NA,NA,NA,NA,NA,NA,NA,NA,NA,NA,NA,NA,NA,NA,NA,NA,NA,NA,NA
819ba,"""Falsch""-Screen",canvas.Screen,3_0_1_0_5_0_2,NA,NA,timeout,4999.7700000005,6055721.9000001,6055708.447,6055737.31,6060720.812,6060722,2023-06-15T09:25:29Z,6060737.08,NULL,Tester,wanaojaribu,d,NA,NA,NA,NA,sdfdsf,0,1,NA,NA,NA,NA,NA,NA,NA,NA,NA,NA,NA,NA,NA,NA,NA,NA,NA,NA,NA
819ba,deep,flow.Sequence,3_0_1_0_5_0,NA,NA,completion,12661.498,6048045.8000002,6048043.269,6048059.314,6060720.812,6060722.5999999,2023-06-15T09:25:29Z,6060737.08,NULL,Tester,wanaojaribu,d,NA,NA,NA,NA,sdfdsf,NA,1,NA,NA,NA,NA,NA,NA,NA,NA,NA,NA,NA,NA,NA,NA,NA,NA,NA,NA,NA
819ba,shallow,flow.Sequence,3_0_1_0_5_1,NA,NA,skipped,NA,6060722.6999998,NA,NA,6060720.812,6060722.9000001,2023-06-15T09:25:29Z,6060737.08,NULL,Tester,wanaojaribu,d,NA,NA,NA,NA,sdfdsf,NA,1,NA,NA,NA,NA,NA,NA,NA,NA,NA,NA,NA,NA,NA,NA,NA,NA,NA,NA,NA
819ba,task,flow.Sequence,3_0_1_0_5,NA,NA,completion,12661.498,6048045.8000002,6048043.269,6048059.314,6060720.812,6060723.1999998,2023-06-15T09:25:29Z,6060737.08,NULL,Tester,wanaojaribu,d,NA,NA,NA,NA,sdfdsf,NA,1,NA,NA,NA,NA,NA,NA,NA,NA,NA,NA,NA,NA,NA,NA,NA,NA,NA,NA,NA
819ba,Deep Question,html.Page,3_0_1_0_6_0_0,NA,NA,form submission,2413.2200001907,6060723.4000001,6060720.812,6060737.08,6063150.3000002,6063150.5999999,2023-06-15T09:25:31Z,6063152.55,NULL,Schüler,mwanafunzi,d,NA,NA,NA,l,NA,NA,1,NA,NA,NA,NA,NA,NA,NA,NA,NA,NA,NA,NA,NA,NA,NA,NA,NA,NA,NA
819ba,"""Richtig""-Screen",canvas.Screen,3_0_1_0_6_0_1,NA,NA,skipped,NA,6063152.5,NA,NA,6063150.3000002,6063152.6999998,2023-06-15T09:25:31Z,6063152.55,NULL,Schüler,mwanafunzi,d,NA,NA,NA,NA,sdfdsf,NA,1,NA,NA,NA,NA,NA,NA,NA,NA,NA,NA,NA,NA,NA,NA,NA,NA,NA,NA,NA
819ba,"""Falsch""-Screen",canvas.Screen,3_0_1_0_6_0_2,NA,NA,timeout,5003.7460000003,6063153.4000001,6063135.926,6063152.55,6068139.682,6068146.5,2023-06-15T09:25:36Z,6068156.296,NULL,Schüler,mwanafunzi,d,NA,NA,NA,NA,sdfdsf,0,1,NA,NA,NA,NA,NA,NA,NA,NA,NA,NA,NA,NA,NA,NA,NA,NA,NA,NA,NA
819ba,deep,flow.Sequence,3_0_1_0_6_0,NA,NA,completion,7402.602,6060723.3000002,6060720.812,6060737.08,6068139.682,6068146.9000001,2023-06-15T09:25:36Z,6068156.296,NULL,Schüler,mwanafunzi,d,NA,NA,NA,NA,sdfdsf,NA,1,NA,NA,NA,NA,NA,NA,NA,NA,NA,NA,NA,NA,NA,NA,NA,NA,NA,NA,NA
819ba,shallow,flow.Sequence,3_0_1_0_6_1,NA,NA,skipped,NA,6068147.0999999,NA,NA,6068139.682,6068147.1999998,2023-06-15T09:25:36Z,6068156.296,NULL,Schüler,mwanafunzi,d,NA,NA,NA,NA,sdfdsf,NA,1,NA,NA,NA,NA,NA,NA,NA,NA,NA,NA,NA,NA,NA,NA,NA,NA,NA,NA,NA
819ba,task,flow.Sequence,3_0_1_0_6,NA,NA,completion,7402.602,6060723.1999998,6060720.812,6060737.08,6068139.682,6068147.5,2023-06-15T09:25:36Z,6068156.296,NULL,Schüler,mwanafunzi,d,NA,NA,NA,NA,sdfdsf,NA,1,NA,NA,NA,NA,NA,NA,NA,NA,NA,NA,NA,NA,NA,NA,NA,NA,NA,NA,NA
819ba,Deep Question,html.Page,3_0_1_0_7_0_0,NA,NA,form submission,1523.0040001906,6068149.4000001,6068139.682,6068156.296,6069679.3000002,6069679.5,2023-06-15T09:25:38Z,6069689.174,NULL,Niveau,kiwango,d,NA,NA,NA,k,NA,NA,1,NA,NA,NA,NA,NA,NA,NA,NA,NA,NA,NA,NA,NA,NA,NA,NA,NA,NA,NA
819ba,"""Richtig""-Screen",canvas.Screen,3_0_1_0_7_0_1,NA,NA,skipped,NA,6069682,NA,NA,6069679.3000002,6069682.3000002,2023-06-15T09:25:38Z,6069689.174,NULL,Niveau,kiwango,d,NA,NA,NA,NA,sdfdsf,NA,1,NA,NA,NA,NA,NA,NA,NA,NA,NA,NA,NA,NA,NA,NA,NA,NA,NA,NA,NA
819ba,"""Falsch""-Screen",canvas.Screen,3_0_1_0_7_0_2,NA,NA,timeout,4995.8020000001,6069682.9000001,6069664.567,6069689.174,6074668.356,6074669.5,2023-06-15T09:25:43Z,6074684.976,NULL,Niveau,kiwango,d,NA,NA,NA,NA,sdfdsf,0,1,NA,NA,NA,NA,NA,NA,NA,NA,NA,NA,NA,NA,NA,NA,NA,NA,NA,NA,NA
819ba,deep,flow.Sequence,3_0_1_0_7_0,NA,NA,completion,6512.0599999996,6068149.3000002,6068139.682,6068156.296,6074668.356,6074669.9000001,2023-06-15T09:25:43Z,6074684.976,NULL,Niveau,kiwango,d,NA,NA,NA,NA,sdfdsf,NA,1,NA,NA,NA,NA,NA,NA,NA,NA,NA,NA,NA,NA,NA,NA,NA,NA,NA,NA,NA
819ba,shallow,flow.Sequence,3_0_1_0_7_1,NA,NA,skipped,NA,6074670,NA,NA,6074668.356,6074670.3000002,2023-06-15T09:25:43Z,6074684.976,NULL,Niveau,kiwango,d,NA,NA,NA,NA,sdfdsf,NA,1,NA,NA,NA,NA,NA,NA,NA,NA,NA,NA,NA,NA,NA,NA,NA,NA,NA,NA,NA
819ba,task,flow.Sequence,3_0_1_0_7,NA,NA,completion,6512.0599999996,6068149.1999998,6068139.682,6068156.296,6074668.356,6074670.5,2023-06-15T09:25:43Z,6074684.976,NULL,Niveau,kiwango,d,NA,NA,NA,NA,sdfdsf,NA,1,NA,NA,NA,NA,NA,NA,NA,NA,NA,NA,NA,NA,NA,NA,NA,NA,NA,NA,NA
819ba,block,flow.Loop,3_0_1_0,NA,NA,completion,77901.648,5996747.4000001,5996741.491,5996766.708,6074668.356,6074670.8000002,2023-06-15T09:25:43Z,6074684.976,NULL,NA,NA,NA,NA,NA,NA,NA,sdfdsf,NA,1,NA,NA,NA,NA,NA,NA,NA,NA,NA,NA,NA,NA,NA,NA,NA,NA,NA,NA,NA
819ba,weiter,canvas.Screen,3_0_1_1,sdf,keypress(Space),response,846.02400000021,6074670.9000001,6074668.356,6074684.976,6075531,6075532.1999998,2023-06-15T09:25:43Z,6075646.89,NULL,NA,NA,NA,NA,NA,NA,NA,sdfdsf,NA,1,NA,NA,NA,NA,NA,NA,NA,NA,NA,NA,NA,NA,NA,NA,NA,NA,NA,NA,NA
819ba,check continue,flow.Sequence,3_0_1,NA,NA,completion,78764.292,5996747.1999998,5996741.491,5996766.708,6075531,6075532.5999999,2023-06-15T09:25:43Z,6075646.89,NULL,NA,NA,NA,NA,NA,NA,NA,sdfdsf,NA,1,NA,NA,NA,NA,NA,NA,NA,NA,NA,NA,NA,NA,NA,NA,NA,NA,NA,NA,NA
819ba,deep,flow.Sequence,3_0_2_0_0_0,NA,NA,skipped,NA,6075632.4000001,NA,NA,6075531,6075632.8000002,2023-06-15T09:25:44Z,6075646.89,NULL,Entwicklung,maendeleo,s,uangavu,mshindwa,badiliko,NA,sdf,NA,2,NA,NA,NA,NA,NA,NA,NA,NA,NA,NA,NA,NA,NA,NA,NA,NA,NA,NA,NA
819ba,Shallow Question,html.Page,3_0_2_0_0_1_0,NA,NA,form submission,3042.0100000957,6075633.0999999,6075617.655,6075646.89,6078688.9000001,6078689.0999999,2023-06-15T09:25:47Z,6078703.726,NULL,Entwicklung,maendeleo,s,uangavu,mshindwa,badiliko,maendeleo,NA,NA,2,NA,NA,NA,NA,NA,NA,NA,NA,NA,NA,NA,NA,NA,NA,NA,NA,NA,NA,NA
819ba,"""Richtig""-Screen",canvas.Screen,3_0_2_0_0_1_1,NA,NA,timeout,4999.3870000001,6078690.8000002,6078682.988,6078703.726,6083687.112,6083688.3000002,2023-06-15T09:25:52Z,6083703.113,NULL,Entwicklung,maendeleo,s,uangavu,mshindwa,badiliko,NA,sdf,1,2,NA,NA,NA,NA,NA,NA,NA,NA,NA,NA,NA,NA,NA,NA,NA,NA,NA,NA,NA
819ba,"""Falsch""-Screen",canvas.Screen,3_0_2_0_0_1_2,NA,NA,skipped,NA,6083693.5,NA,NA,6083687.112,6083693.9000001,2023-06-15T09:25:52Z,6083703.113,NULL,Entwicklung,maendeleo,s,uangavu,mshindwa,badiliko,NA,sdf,NA,2,NA,NA,NA,NA,NA,NA,NA,NA,NA,NA,NA,NA,NA,NA,NA,NA,NA,NA,NA
819ba,shallow,flow.Sequence,3_0_2_0_0_1,NA,NA,completion,8040.2220000001,6075633.0999999,6075617.655,6075646.89,6083687.112,6083694.1999998,2023-06-15T09:25:52Z,6083703.113,NULL,Entwicklung,maendeleo,s,uangavu,mshindwa,badiliko,NA,sdf,NA,2,NA,NA,NA,NA,NA,NA,NA,NA,NA,NA,NA,NA,NA,NA,NA,NA,NA,NA,NA
819ba,task,flow.Sequence,3_0_2_0_0,NA,NA,completion,8040.2220000001,6075632.4000001,6075617.655,6075646.89,6083687.112,6083694.5,2023-06-15T09:25:52Z,6083703.113,NULL,Entwicklung,maendeleo,s,uangavu,mshindwa,badiliko,NA,sdf,NA,2,NA,NA,NA,NA,NA,NA,NA,NA,NA,NA,NA,NA,NA,NA,NA,NA,NA,NA,NA
819ba,Deep Question,html.Page,3_0_2_0_1_0_0,NA,NA,form submission,4217.0869998094,6083694.6999998,6083687.112,6083703.113,6087920.1999998,6087920.4000001,2023-06-15T09:25:56Z,6087935.229,NULL,Schüler,mwanafunzi,d,NA,NA,NA,k,NA,NA,2,NA,NA,NA,NA,NA,NA,NA,NA,NA,NA,NA,NA,NA,NA,NA,NA,NA,NA,NA
819ba,"""Richtig""-Screen",canvas.Screen,3_0_2_0_1_0_1,NA,NA,skipped,NA,6087922.9000001,NA,NA,6087920.1999998,6087923.0999999,2023-06-15T09:25:56Z,6087935.229,NULL,Schüler,mwanafunzi,d,NA,NA,NA,NA,sdf,NA,2,NA,NA,NA,NA,NA,NA,NA,NA,NA,NA,NA,NA,NA,NA,NA,NA,NA,NA,NA
819ba,"""Falsch""-Screen",canvas.Screen,3_0_2_0_1_0_2,NA,NA,timeout,5003.7649999997,6087924,6087914.583,6087935.229,6092922.16,6092923.1999998,2023-06-15T09:26:01Z,6092938.994,NULL,Schüler,mwanafunzi,d,NA,NA,NA,NA,sdf,0,2,NA,NA,NA,NA,NA,NA,NA,NA,NA,NA,NA,NA,NA,NA,NA,NA,NA,NA,NA
819ba,deep,flow.Sequence,3_0_2_0_1_0,NA,NA,completion,9219.0470000003,6083694.6999998,6083687.112,6083703.113,6092922.16,6092923.6999998,2023-06-15T09:26:01Z,6092938.994,NULL,Schüler,mwanafunzi,d,NA,NA,NA,NA,sdf,NA,2,NA,NA,NA,NA,NA,NA,NA,NA,NA,NA,NA,NA,NA,NA,NA,NA,NA,NA,NA
819ba,shallow,flow.Sequence,3_0_2_0_1_1,NA,NA,skipped,NA,6092923.9000001,NA,NA,6092922.16,6092924.0999999,2023-06-15T09:26:01Z,6092938.994,NULL,Schüler,mwanafunzi,d,NA,NA,NA,NA,sdf,NA,2,NA,NA,NA,NA,NA,NA,NA,NA,NA,NA,NA,NA,NA,NA,NA,NA,NA,NA,NA
819ba,task,flow.Sequence,3_0_2_0_1,NA,NA,completion,9219.0470000003,6083694.5999999,6083687.112,6083703.113,6092922.16,6092924.3000002,2023-06-15T09:26:01Z,6092938.994,NULL,Schüler,mwanafunzi,d,NA,NA,NA,NA,sdf,NA,2,NA,NA,NA,NA,NA,NA,NA,NA,NA,NA,NA,NA,NA,NA,NA,NA,NA,NA,NA
819ba,deep,flow.Sequence,3_0_2_0_2_0,NA,NA,skipped,NA,6092924.5999999,NA,NA,6092922.16,6092924.6999998,2023-06-15T09:26:01Z,6092938.994,NULL,Fenster,dirisha,s,walakini,tasawari,maarifa,NA,sdf,NA,2,NA,NA,NA,NA,NA,NA,NA,NA,NA,NA,NA,NA,NA,NA,NA,NA,NA,NA,NA
819ba,Shallow Question,html.Page,3_0_2_0_2_1_0,NA,NA,form submission,4114.6059999047,6092924.9000001,6092922.16,6092938.994,6097053.5999999,6097053.8000002,2023-06-15T09:26:05Z,6097069.108,NULL,Fenster,dirisha,s,walakini,tasawari,maarifa,dirisha,NA,NA,2,NA,NA,NA,NA,NA,NA,NA,NA,NA,NA,NA,NA,NA,NA,NA,NA,NA,NA,NA
819ba,"""Richtig""-Screen",canvas.Screen,3_0_2_0_2_1_1,NA,NA,timeout,5003.2470000004,6097055.5,6097040.064,6097069.108,6102056.076,6102057.0999999,2023-06-15T09:26:10Z,6102072.355,NULL,Fenster,dirisha,s,walakini,tasawari,maarifa,NA,sdf,1,2,NA,NA,NA,NA,NA,NA,NA,NA,NA,NA,NA,NA,NA,NA,NA,NA,NA,NA,NA
819ba,"""Falsch""-Screen",canvas.Screen,3_0_2_0_2_1_2,NA,NA,skipped,NA,6102062.8000002,NA,NA,6102056.076,6102063.1999998,2023-06-15T09:26:10Z,6102072.355,NULL,Fenster,dirisha,s,walakini,tasawari,maarifa,NA,sdf,NA,2,NA,NA,NA,NA,NA,NA,NA,NA,NA,NA,NA,NA,NA,NA,NA,NA,NA,NA,NA
819ba,shallow,flow.Sequence,3_0_2_0_2_1,NA,NA,completion,9117.0820000004,6092924.9000001,6092922.16,6092938.994,6102056.076,6102063.5999999,2023-06-15T09:26:10Z,6102072.355,NULL,Fenster,dirisha,s,walakini,tasawari,maarifa,NA,sdf,NA,2,NA,NA,NA,NA,NA,NA,NA,NA,NA,NA,NA,NA,NA,NA,NA,NA,NA,NA,NA
819ba,task,flow.Sequence,3_0_2_0_2,NA,NA,completion,9117.0820000004,6092924.5999999,6092922.16,6092938.994,6102056.076,6102063.8000002,2023-06-15T09:26:10Z,6102072.355,NULL,Fenster,dirisha,s,walakini,tasawari,maarifa,NA,sdf,NA,2,NA,NA,NA,NA,NA,NA,NA,NA,NA,NA,NA,NA,NA,NA,NA,NA,NA,NA,NA
819ba,deep,flow.Sequence,3_0_2_0_3_0,NA,NA,skipped,NA,6102064.0999999,NA,NA,6102056.076,6102064.1999998,2023-06-15T09:26:10Z,6102072.355,NULL,Vorwurf,mashtaka,s,msukumo,mtangulizi,uenyekiti,NA,sdf,NA,2,NA,NA,NA,NA,NA,NA,NA,NA,NA,NA,NA,NA,NA,NA,NA,NA,NA,NA,NA
819ba,Shallow Question,html.Page,3_0_2_0_3_1_0,NA,NA,form submission,8362.7449999042,6102064.4000001,6102056.076,6102072.355,6110435.0999999,6110435.3000002,2023-06-15T09:26:18Z,6110450.726,NULL,Vorwurf,mashtaka,s,msukumo,mtangulizi,uenyekiti,mashtaka,NA,NA,2,NA,NA,NA,NA,NA,NA,NA,NA,NA,NA,NA,NA,NA,NA,NA,NA,NA,NA,NA
819ba,"""Richtig""-Screen",canvas.Screen,3_0_2_0_3_1_1,NA,NA,timeout,5003.5080000004,6110437.1999998,6110426.04,6110450.726,6115437.594,6115449,2023-06-15T09:26:23Z,6115454.234,NULL,Vorwurf,mashtaka,s,msukumo,mtangulizi,uenyekiti,NA,sdf,1,2,NA,NA,NA,NA,NA,NA,NA,NA,NA,NA,NA,NA,NA,NA,NA,NA,NA,NA,NA
819ba,"""Falsch""-Screen",canvas.Screen,3_0_2_0_3_1_2,NA,NA,skipped,NA,6115454.8000002,NA,NA,6115437.594,6115455.0999999,2023-06-15T09:26:23Z,6115454.234,NULL,Vorwurf,mashtaka,s,msukumo,mtangulizi,uenyekiti,NA,sdf,NA,2,NA,NA,NA,NA,NA,NA,NA,NA,NA,NA,NA,NA,NA,NA,NA,NA,NA,NA,NA
819ba,shallow,flow.Sequence,3_0_2_0_3_1,NA,NA,completion,13365.238999999,6102064.3000002,6102056.076,6102072.355,6115437.594,6115455.4000001,2023-06-15T09:26:23Z,6115454.234,NULL,Vorwurf,mashtaka,s,msukumo,mtangulizi,uenyekiti,NA,sdf,NA,2,NA,NA,NA,NA,NA,NA,NA,NA,NA,NA,NA,NA,NA,NA,NA,NA,NA,NA,NA
819ba,task,flow.Sequence,3_0_2_0_3,NA,NA,completion,13365.238999999,6102064,6102056.076,6102072.355,6115437.594,6115455.6999998,2023-06-15T09:26:23Z,6115454.234,NULL,Vorwurf,mashtaka,s,msukumo,mtangulizi,uenyekiti,NA,sdf,NA,2,NA,NA,NA,NA,NA,NA,NA,NA,NA,NA,NA,NA,NA,NA,NA,NA,NA,NA,NA
819ba,Deep Question,html.Page,3_0_2_0_4_0_0,NA,NA,form submission,7761.2659999998,6115456,6115437.594,6115454.234,6123215.5,6123215.8000002,2023-06-15T09:26:31Z,6123235.147,NULL,Papier,karatasi,d,NA,NA,NA,kiwango,NA,NA,2,NA,NA,NA,NA,NA,NA,NA,NA,NA,NA,NA,NA,NA,NA,NA,NA,NA,NA,NA
819ba,"""Richtig""-Screen",canvas.Screen,3_0_2_0_4_0_1,NA,NA,skipped,NA,6123217.5999999,NA,NA,6123215.5,6123217.8000002,2023-06-15T09:26:31Z,6123235.147,NULL,Papier,karatasi,d,NA,NA,NA,NA,sdf,NA,2,NA,NA,NA,NA,NA,NA,NA,NA,NA,NA,NA,NA,NA,NA,NA,NA,NA,NA,NA
819ba,"""Falsch""-Screen",canvas.Screen,3_0_2_0_4_0_2,NA,NA,timeout,5007.8300000001,6123218.4000001,6123201.582,6123235.147,6128226.782,6128228.1999998,2023-06-15T09:26:36Z,6128242.977,NULL,Papier,karatasi,d,NA,NA,NA,NA,sdf,0,2,NA,NA,NA,NA,NA,NA,NA,NA,NA,NA,NA,NA,NA,NA,NA,NA,NA,NA,NA
819ba,deep,flow.Sequence,3_0_2_0_4_0,NA,NA,completion,12772.547999999,6115455.9000001,6115437.594,6115454.234,6128226.782,6128228.5999999,2023-06-15T09:26:36Z,6128242.977,NULL,Papier,karatasi,d,NA,NA,NA,NA,sdf,NA,2,NA,NA,NA,NA,NA,NA,NA,NA,NA,NA,NA,NA,NA,NA,NA,NA,NA,NA,NA
819ba,shallow,flow.Sequence,3_0_2_0_4_1,NA,NA,skipped,NA,6128228.6999998,NA,NA,6128226.782,6128229,2023-06-15T09:26:36Z,6128242.977,NULL,Papier,karatasi,d,NA,NA,NA,NA,sdf,NA,2,NA,NA,NA,NA,NA,NA,NA,NA,NA,NA,NA,NA,NA,NA,NA,NA,NA,NA,NA
819ba,task,flow.Sequence,3_0_2_0_4,NA,NA,completion,12772.547999999,6115455.9000001,6115437.594,6115454.234,6128226.782,6128229.3000002,2023-06-15T09:26:36Z,6128242.977,NULL,Papier,karatasi,d,NA,NA,NA,NA,sdf,NA,2,NA,NA,NA,NA,NA,NA,NA,NA,NA,NA,NA,NA,NA,NA,NA,NA,NA,NA,NA
819ba,Deep Question,html.Page,3_0_2_0_5_0_0,NA,NA,form submission,6040.523,6128229.4000001,6128226.782,6128242.977,6134283.5,6134283.6999998,2023-06-15T09:26:42Z,6134286.467,NULL,Niveau,kiwango,d,NA,NA,NA,kiwango,NA,NA,2,NA,NA,NA,NA,NA,NA,NA,NA,NA,NA,NA,NA,NA,NA,NA,NA,NA,NA,NA
819ba,"""Richtig""-Screen",canvas.Screen,3_0_2_0_5_0_1,NA,NA,timeout,5003.6090000002,6134286.4000001,6134270.352,6134286.467,6139273.465,6139274.4000001,2023-06-15T09:26:47Z,6139290.076,NULL,Niveau,kiwango,d,NA,NA,NA,NA,sdf,1,2,NA,NA,NA,NA,NA,NA,NA,NA,NA,NA,NA,NA,NA,NA,NA,NA,NA,NA,NA
819ba,"""Falsch""-Screen",canvas.Screen,3_0_2_0_5_0_2,NA,NA,skipped,NA,6139279.5,NA,NA,6139273.465,6139279.9000001,2023-06-15T09:26:47Z,6139290.076,NULL,Niveau,kiwango,d,NA,NA,NA,NA,sdf,NA,2,NA,NA,NA,NA,NA,NA,NA,NA,NA,NA,NA,NA,NA,NA,NA,NA,NA,NA,NA
819ba,deep,flow.Sequence,3_0_2_0_5_0,NA,NA,completion,11030.488,6128229.4000001,6128226.782,6128242.977,6139273.465,6139280.1999998,2023-06-15T09:26:47Z,6139290.076,NULL,Niveau,kiwango,d,NA,NA,NA,NA,sdf,NA,2,NA,NA,NA,NA,NA,NA,NA,NA,NA,NA,NA,NA,NA,NA,NA,NA,NA,NA,NA
819ba,shallow,flow.Sequence,3_0_2_0_5_1,NA,NA,skipped,NA,6139280.4000001,NA,NA,6139273.465,6139280.5,2023-06-15T09:26:47Z,6139290.076,NULL,Niveau,kiwango,d,NA,NA,NA,NA,sdf,NA,2,NA,NA,NA,NA,NA,NA,NA,NA,NA,NA,NA,NA,NA,NA,NA,NA,NA,NA,NA
819ba,task,flow.Sequence,3_0_2_0_5,NA,NA,completion,11030.488,6128229.3000002,6128226.782,6128242.977,6139273.465,6139280.6999998,2023-06-15T09:26:47Z,6139290.076,NULL,Niveau,kiwango,d,NA,NA,NA,NA,sdf,NA,2,NA,NA,NA,NA,NA,NA,NA,NA,NA,NA,NA,NA,NA,NA,NA,NA,NA,NA,NA
819ba,deep,flow.Sequence,3_0_2_0_6_0,NA,NA,skipped,NA,6139281,NA,NA,6139273.465,6139281.0999999,2023-06-15T09:26:47Z,6139290.076,NULL,Spionage,upelelezi,s,maslahi,utokazo,magangao,NA,sdf,NA,2,NA,NA,NA,NA,NA,NA,NA,NA,NA,NA,NA,NA,NA,NA,NA,NA,NA,NA,NA
819ba,Shallow Question,html.Page,3_0_2_0_6_1_0,NA,NA,form submission,11036.123999809,6139281.1999998,6139273.465,6139290.076,6150326.1999998,6150326.5,2023-06-15T09:26:58Z,6150339.842,NULL,Spionage,upelelezi,s,maslahi,utokazo,magangao,upelelezi,NA,NA,2,NA,NA,NA,NA,NA,NA,NA,NA,NA,NA,NA,NA,NA,NA,NA,NA,NA,NA,NA
819ba,"""Richtig""-Screen",canvas.Screen,3_0_2_0_6_1_1,NA,NA,timeout,5003.5019999994,6150328.3000002,6150318.796,6150339.842,6155327.146,6155328.1999998,2023-06-15T09:27:03Z,6155343.344,NULL,Spionage,upelelezi,s,maslahi,utokazo,magangao,NA,sdf,1,2,NA,NA,NA,NA,NA,NA,NA,NA,NA,NA,NA,NA,NA,NA,NA,NA,NA,NA,NA
819ba,"""Falsch""-Screen",canvas.Screen,3_0_2_0_6_1_2,NA,NA,skipped,NA,6155333.4000001,NA,NA,6155327.146,6155333.8000002,2023-06-15T09:27:03Z,6155343.344,NULL,Spionage,upelelezi,s,maslahi,utokazo,magangao,NA,sdf,NA,2,NA,NA,NA,NA,NA,NA,NA,NA,NA,NA,NA,NA,NA,NA,NA,NA,NA,NA,NA
819ba,shallow,flow.Sequence,3_0_2_0_6_1,NA,NA,completion,16037.069999999,6139281.1999998,6139273.465,6139290.076,6155327.146,6155334.1999998,2023-06-15T09:27:03Z,6155343.344,NULL,Spionage,upelelezi,s,maslahi,utokazo,magangao,NA,sdf,NA,2,NA,NA,NA,NA,NA,NA,NA,NA,NA,NA,NA,NA,NA,NA,NA,NA,NA,NA,NA
819ba,task,flow.Sequence,3_0_2_0_6,NA,NA,completion,16037.069999999,6139280.9000001,6139273.465,6139290.076,6155327.146,6155334.4000001,2023-06-15T09:27:03Z,6155343.344,NULL,Spionage,upelelezi,s,maslahi,utokazo,magangao,NA,sdf,NA,2,NA,NA,NA,NA,NA,NA,NA,NA,NA,NA,NA,NA,NA,NA,NA,NA,NA,NA,NA
819ba,Deep Question,html.Page,3_0_2_0_7_0_0,NA,NA,form submission,1677.0560000958,6155334.8000002,6155327.146,6155343.344,6157020.4000001,6157020.5999999,2023-06-15T09:27:05Z,6157021.593,NULL,Tester,wanaojaribu,d,NA,NA,NA,k,NA,NA,2,NA,NA,NA,NA,NA,NA,NA,NA,NA,NA,NA,NA,NA,NA,NA,NA,NA,NA,NA
819ba,"""Richtig""-Screen",canvas.Screen,3_0_2_0_7_0_1,NA,NA,skipped,NA,6157021.8000002,NA,NA,6157020.4000001,6157022,2023-06-15T09:27:05Z,6157021.593,NULL,Tester,wanaojaribu,d,NA,NA,NA,NA,sdf,NA,2,NA,NA,NA,NA,NA,NA,NA,NA,NA,NA,NA,NA,NA,NA,NA,NA,NA,NA,NA
819ba,"""Falsch""-Screen",canvas.Screen,3_0_2_0_7_0_2,NA,NA,timeout,5004.2399999993,6157022.5999999,6157017.54,6157021.593,6162009.296,6162010.3000002,2023-06-15T09:27:10Z,6162025.833,NULL,Tester,wanaojaribu,d,NA,NA,NA,NA,sdf,0,2,NA,NA,NA,NA,NA,NA,NA,NA,NA,NA,NA,NA,NA,NA,NA,NA,NA,NA,NA
819ba,deep,flow.Sequence,3_0_2_0_7_0,NA,NA,completion,6665.9520000005,6155334.6999998,6155327.146,6155343.344,6162009.296,6162010.8000002,2023-06-15T09:27:10Z,6162025.833,NULL,Tester,wanaojaribu,d,NA,NA,NA,NA,sdf,NA,2,NA,NA,NA,NA,NA,NA,NA,NA,NA,NA,NA,NA,NA,NA,NA,NA,NA,NA,NA
819ba,shallow,flow.Sequence,3_0_2_0_7_1,NA,NA,skipped,NA,6162010.9000001,NA,NA,6162009.296,6162011,2023-06-15T09:27:10Z,6162025.833,NULL,Tester,wanaojaribu,d,NA,NA,NA,NA,sdf,NA,2,NA,NA,NA,NA,NA,NA,NA,NA,NA,NA,NA,NA,NA,NA,NA,NA,NA,NA,NA
819ba,task,flow.Sequence,3_0_2_0_7,NA,NA,completion,6665.9520000005,6155334.6999998,6155327.146,6155343.344,6162009.296,6162011.3000002,2023-06-15T09:27:10Z,6162025.833,NULL,Tester,wanaojaribu,d,NA,NA,NA,NA,sdf,NA,2,NA,NA,NA,NA,NA,NA,NA,NA,NA,NA,NA,NA,NA,NA,NA,NA,NA,NA,NA
819ba,block,flow.Loop,3_0_2_0,NA,NA,completion,86362.406,6075632.3000002,6075617.655,6075646.89,6162009.296,6162011.5999999,2023-06-15T09:27:10Z,6162025.833,NULL,NA,NA,NA,NA,NA,NA,NA,sdf,NA,2,NA,NA,NA,NA,NA,NA,NA,NA,NA,NA,NA,NA,NA,NA,NA,NA,NA,NA,NA
819ba,weiter,canvas.Screen,3_0_2_1,sdf,keypress(Space),response,727.36699980963,6162011.6999998,6162009.296,6162025.833,6162753.1999998,6162754.3000002,2023-06-15T09:27:11Z,6162871.229,NULL,NA,NA,NA,NA,NA,NA,NA,sdf,NA,2,NA,NA,NA,NA,NA,NA,NA,NA,NA,NA,NA,NA,NA,NA,NA,NA,NA,NA,NA
819ba,check continue,flow.Sequence,3_0_2,NA,NA,completion,87106.30999981,6075632.3000002,6075617.655,6075646.89,6162753.1999998,6162754.6999998,2023-06-15T09:27:11Z,6162871.229,NULL,NA,NA,NA,NA,NA,NA,NA,sdf,NA,2,NA,NA,NA,NA,NA,NA,NA,NA,NA,NA,NA,NA,NA,NA,NA,NA,NA,NA,NA
819ba,Deep Question,html.Page,3_0_3_0_0_0_0,NA,NA,form submission,12375.57100019,6162856.0999999,6162841.906,6162871.229,6175246.8000002,6175247,2023-06-15T09:27:23Z,6175259.107,NULL,Tester,wanaojaribu,d,NA,NA,NA,wanaojabaru,NA,NA,3,NA,NA,NA,NA,NA,NA,NA,NA,NA,NA,NA,NA,NA,NA,NA,NA,NA,NA,NA
819ba,"""Richtig""-Screen",canvas.Screen,3_0_3_0_0_0_1,NA,NA,skipped,NA,6175249.0999999,NA,NA,6175246.8000002,6175249.3000002,2023-06-15T09:27:23Z,6175259.107,NULL,Tester,wanaojaribu,d,NA,NA,NA,NA,qt,NA,3,NA,NA,NA,NA,NA,NA,NA,NA,NA,NA,NA,NA,NA,NA,NA,NA,NA,NA,NA
819ba,"""Falsch""-Screen",canvas.Screen,3_0_3_0_0_0_2,NA,NA,timeout,4995.2590000005,6175250,6175242.716,6175259.107,6180237.708,6180239,2023-06-15T09:27:28Z,6180254.366,NULL,Tester,wanaojaribu,d,NA,NA,NA,NA,qt,0,3,NA,NA,NA,NA,NA,NA,NA,NA,NA,NA,NA,NA,NA,NA,NA,NA,NA,NA,NA
819ba,deep,flow.Sequence,3_0_3_0_0_0,NA,NA,completion,17366.478999999,6162856.0999999,6162841.906,6162871.229,6180237.708,6180239.5,2023-06-15T09:27:28Z,6180254.366,NULL,Tester,wanaojaribu,d,NA,NA,NA,NA,qt,NA,3,NA,NA,NA,NA,NA,NA,NA,NA,NA,NA,NA,NA,NA,NA,NA,NA,NA,NA,NA
819ba,shallow,flow.Sequence,3_0_3_0_0_1,NA,NA,skipped,NA,6180239.6999998,NA,NA,6180237.708,6180239.9000001,2023-06-15T09:27:28Z,6180254.366,NULL,Tester,wanaojaribu,d,NA,NA,NA,NA,qt,NA,3,NA,NA,NA,NA,NA,NA,NA,NA,NA,NA,NA,NA,NA,NA,NA,NA,NA,NA,NA
819ba,task,flow.Sequence,3_0_3_0_0,NA,NA,completion,17366.478999999,6162856.0999999,6162841.906,6162871.229,6180237.708,6180240.1999998,2023-06-15T09:27:28Z,6180254.366,NULL,Tester,wanaojaribu,d,NA,NA,NA,NA,qt,NA,3,NA,NA,NA,NA,NA,NA,NA,NA,NA,NA,NA,NA,NA,NA,NA,NA,NA,NA,NA
819ba,Deep Question,html.Page,3_0_3_0_1_0_0,NA,NA,form submission,1696.3339998089,6180240.4000001,6180237.708,6180254.366,6181950.6999998,6181950.9000001,2023-06-15T09:27:30Z,6181961.592,NULL,Schüler,mwanafunzi,d,NA,NA,NA,k,NA,NA,3,NA,NA,NA,NA,NA,NA,NA,NA,NA,NA,NA,NA,NA,NA,NA,NA,NA,NA,NA
819ba,"""Richtig""-Screen",canvas.Screen,3_0_3_0_1_0_1,NA,NA,skipped,NA,6181952.6999998,NA,NA,6181950.6999998,6181952.8000002,2023-06-15T09:27:30Z,6181961.592,NULL,Schüler,mwanafunzi,d,NA,NA,NA,NA,qt,NA,3,NA,NA,NA,NA,NA,NA,NA,NA,NA,NA,NA,NA,NA,NA,NA,NA,NA,NA,NA
819ba,"""Falsch""-Screen",canvas.Screen,3_0_3_0_1_0_2,NA,NA,timeout,4999.8870000001,6181953.4000001,6181940.765,6181961.592,6186944.992,6186946.1999998,2023-06-15T09:27:35Z,6186961.479,NULL,Schüler,mwanafunzi,d,NA,NA,NA,NA,qt,0,3,NA,NA,NA,NA,NA,NA,NA,NA,NA,NA,NA,NA,NA,NA,NA,NA,NA,NA,NA
819ba,deep,flow.Sequence,3_0_3_0_1_0,NA,NA,completion,6690.6259999992,6180240.4000001,6180237.708,6180254.366,6186944.992,6186946.5999999,2023-06-15T09:27:35Z,6186961.479,NULL,Schüler,mwanafunzi,d,NA,NA,NA,NA,qt,NA,3,NA,NA,NA,NA,NA,NA,NA,NA,NA,NA,NA,NA,NA,NA,NA,NA,NA,NA,NA
819ba,shallow,flow.Sequence,3_0_3_0_1_1,NA,NA,skipped,NA,6186946.8000002,NA,NA,6186944.992,6186946.9000001,2023-06-15T09:27:35Z,6186961.479,NULL,Schüler,mwanafunzi,d,NA,NA,NA,NA,qt,NA,3,NA,NA,NA,NA,NA,NA,NA,NA,NA,NA,NA,NA,NA,NA,NA,NA,NA,NA,NA
819ba,task,flow.Sequence,3_0_3_0_1,NA,NA,completion,6690.6259999992,6180240.3000002,6180237.708,6180254.366,6186944.992,6186947.4000001,2023-06-15T09:27:35Z,6186961.479,NULL,Schüler,mwanafunzi,d,NA,NA,NA,NA,qt,NA,3,NA,NA,NA,NA,NA,NA,NA,NA,NA,NA,NA,NA,NA,NA,NA,NA,NA,NA,NA
819ba,Deep Question,html.Page,3_0_3_0_2_0_0,NA,NA,form submission,4838.9210000951,6186947.5,6186944.992,6186961.479,6191800.4000001,6191800.6999998,2023-06-15T09:27:40Z,6191805.042,NULL,Papier,karatasi,d,NA,NA,NA,k,NA,NA,3,NA,NA,NA,NA,NA,NA,NA,NA,NA,NA,NA,NA,NA,NA,NA,NA,NA,NA,NA
819ba,"""Richtig""-Screen",canvas.Screen,3_0_3_0_2_0_1,NA,NA,skipped,NA,6191802.5999999,NA,NA,6191800.4000001,6191802.8000002,2023-06-15T09:27:40Z,6191805.042,NULL,Papier,karatasi,d,NA,NA,NA,NA,qt,NA,3,NA,NA,NA,NA,NA,NA,NA,NA,NA,NA,NA,NA,NA,NA,NA,NA,NA,NA,NA
819ba,"""Falsch""-Screen",canvas.Screen,3_0_3_0_2_0_2,NA,NA,timeout,4995.6279999996,6191803.5,6191784.652,6191805.042,6196784.412,6196785.5999999,2023-06-15T09:27:45Z,6196800.67,NULL,Papier,karatasi,d,NA,NA,NA,NA,qt,0,3,NA,NA,NA,NA,NA,NA,NA,NA,NA,NA,NA,NA,NA,NA,NA,NA,NA,NA,NA
819ba,deep,flow.Sequence,3_0_3_0_2_0,NA,NA,completion,9822.9329999993,6186947.5,6186944.992,6186961.479,6196784.412,6196786,2023-06-15T09:27:45Z,6196800.67,NULL,Papier,karatasi,d,NA,NA,NA,NA,qt,NA,3,NA,NA,NA,NA,NA,NA,NA,NA,NA,NA,NA,NA,NA,NA,NA,NA,NA,NA,NA
819ba,shallow,flow.Sequence,3_0_3_0_2_1,NA,NA,skipped,NA,6196786.1999998,NA,NA,6196784.412,6196786.3000002,2023-06-15T09:27:45Z,6196800.67,NULL,Papier,karatasi,d,NA,NA,NA,NA,qt,NA,3,NA,NA,NA,NA,NA,NA,NA,NA,NA,NA,NA,NA,NA,NA,NA,NA,NA,NA,NA
819ba,task,flow.Sequence,3_0_3_0_2,NA,NA,completion,9822.9329999993,6186947.4000001,6186944.992,6186961.479,6196784.412,6196786.5,2023-06-15T09:27:45Z,6196800.67,NULL,Papier,karatasi,d,NA,NA,NA,NA,qt,NA,3,NA,NA,NA,NA,NA,NA,NA,NA,NA,NA,NA,NA,NA,NA,NA,NA,NA,NA,NA
819ba,deep,flow.Sequence,3_0_3_0_3_0,NA,NA,skipped,NA,6196786.6999998,NA,NA,6196784.412,6196786.9000001,2023-06-15T09:27:45Z,6196800.67,NULL,Fenster,dirisha,s,walakini,tasawari,maarifa,NA,qt,NA,3,NA,NA,NA,NA,NA,NA,NA,NA,NA,NA,NA,NA,NA,NA,NA,NA,NA,NA,NA
819ba,Shallow Question,html.Page,3_0_3_0_3_1_0,NA,NA,form submission,2787.3300000001,6196787.0999999,6196784.412,6196800.67,6199588,6199588.1999998,2023-06-15T09:27:47Z,6199594.695,NULL,Fenster,dirisha,s,walakini,tasawari,maarifa,dirisha,NA,NA,3,NA,NA,NA,NA,NA,NA,NA,NA,NA,NA,NA,NA,NA,NA,NA,NA,NA,NA,NA
819ba,"""Richtig""-Screen",canvas.Screen,3_0_3_0_3_1_1,NA,NA,timeout,5003.7199999997,6199589.8000002,6199574.354,6199594.695,6204582.403,6204583.5,2023-06-15T09:27:52Z,6204598.415,NULL,Fenster,dirisha,s,walakini,tasawari,maarifa,NA,qt,1,3,NA,NA,NA,NA,NA,NA,NA,NA,NA,NA,NA,NA,NA,NA,NA,NA,NA,NA,NA
819ba,"""Falsch""-Screen",canvas.Screen,3_0_3_0_3_1_2,NA,NA,skipped,NA,6204590.6999998,NA,NA,6204582.403,6204591.0999999,2023-06-15T09:27:52Z,6204598.415,NULL,Fenster,dirisha,s,walakini,tasawari,maarifa,NA,qt,NA,3,NA,NA,NA,NA,NA,NA,NA,NA,NA,NA,NA,NA,NA,NA,NA,NA,NA,NA,NA
819ba,shallow,flow.Sequence,3_0_3_0_3_1,NA,NA,completion,7781.733,6196787,6196784.412,6196800.67,6204582.403,6204591.4000001,2023-06-15T09:27:52Z,6204598.415,NULL,Fenster,dirisha,s,walakini,tasawari,maarifa,NA,qt,NA,3,NA,NA,NA,NA,NA,NA,NA,NA,NA,NA,NA,NA,NA,NA,NA,NA,NA,NA,NA
819ba,task,flow.Sequence,3_0_3_0_3,NA,NA,completion,7781.733,6196786.5999999,6196784.412,6196800.67,6204582.403,6204591.5999999,2023-06-15T09:27:52Z,6204598.415,NULL,Fenster,dirisha,s,walakini,tasawari,maarifa,NA,qt,NA,3,NA,NA,NA,NA,NA,NA,NA,NA,NA,NA,NA,NA,NA,NA,NA,NA,NA,NA,NA
819ba,deep,flow.Sequence,3_0_3_0_4_0,NA,NA,skipped,NA,6204591.9000001,NA,NA,6204582.403,6204591.9000001,2023-06-15T09:27:52Z,6204598.415,NULL,Entwicklung,maendeleo,s,uangavu,mshindwa,badiliko,NA,qt,NA,3,NA,NA,NA,NA,NA,NA,NA,NA,NA,NA,NA,NA,NA,NA,NA,NA,NA,NA,NA
819ba,Shallow Question,html.Page,3_0_3_0_4_1_0,NA,NA,form submission,5755.2849998092,6204592.0999999,6204582.403,6204598.415,6210353.6999998,6210353.9000001,2023-06-15T09:27:58Z,6210366.839,NULL,Entwicklung,maendeleo,s,uangavu,mshindwa,badiliko,maendeleo,NA,NA,3,NA,NA,NA,NA,NA,NA,NA,NA,NA,NA,NA,NA,NA,NA,NA,NA,NA,NA,NA
819ba,"""Richtig""-Screen",canvas.Screen,3_0_3_0_4_1_1,NA,NA,timeout,4991.0789999999,6210355.9000001,6210342.062,6210366.839,6215341.903,6215343.0999999,2023-06-15T09:28:03Z,6215357.918,NULL,Entwicklung,maendeleo,s,uangavu,mshindwa,badiliko,NA,qt,1,3,NA,NA,NA,NA,NA,NA,NA,NA,NA,NA,NA,NA,NA,NA,NA,NA,NA,NA,NA
819ba,"""Falsch""-Screen",canvas.Screen,3_0_3_0_4_1_2,NA,NA,skipped,NA,6215348.9000001,NA,NA,6215341.903,6215349.1999998,2023-06-15T09:28:03Z,6215357.918,NULL,Entwicklung,maendeleo,s,uangavu,mshindwa,badiliko,NA,qt,NA,3,NA,NA,NA,NA,NA,NA,NA,NA,NA,NA,NA,NA,NA,NA,NA,NA,NA,NA,NA
819ba,shallow,flow.Sequence,3_0_3_0_4_1,NA,NA,completion,10743.488,6204592.0999999,6204582.403,6204598.415,6215341.903,6215349.5999999,2023-06-15T09:28:03Z,6215357.918,NULL,Entwicklung,maendeleo,s,uangavu,mshindwa,badiliko,NA,qt,NA,3,NA,NA,NA,NA,NA,NA,NA,NA,NA,NA,NA,NA,NA,NA,NA,NA,NA,NA,NA
819ba,task,flow.Sequence,3_0_3_0_4,NA,NA,completion,10743.488,6204591.8000002,6204582.403,6204598.415,6215341.903,6215349.8000002,2023-06-15T09:28:03Z,6215357.918,NULL,Entwicklung,maendeleo,s,uangavu,mshindwa,badiliko,NA,qt,NA,3,NA,NA,NA,NA,NA,NA,NA,NA,NA,NA,NA,NA,NA,NA,NA,NA,NA,NA,NA
819ba,deep,flow.Sequence,3_0_3_0_5_0,NA,NA,skipped,NA,6215350,NA,NA,6215341.903,6215350.0999999,2023-06-15T09:28:03Z,6215357.918,NULL,Vorwurf,mashtaka,s,msukumo,mtangulizi,uenyekiti,NA,qt,NA,3,NA,NA,NA,NA,NA,NA,NA,NA,NA,NA,NA,NA,NA,NA,NA,NA,NA,NA,NA
819ba,Shallow Question,html.Page,3_0_3_0_5_1_0,NA,NA,form submission,4145.681999905,6215350.3000002,6215341.903,6215357.918,6219503.5999999,6219503.8000002,2023-06-15T09:28:07Z,6219518.996,NULL,Vorwurf,mashtaka,s,msukumo,mtangulizi,uenyekiti,mashtaka,NA,NA,3,NA,NA,NA,NA,NA,NA,NA,NA,NA,NA,NA,NA,NA,NA,NA,NA,NA,NA,NA
819ba,"""Richtig""-Screen",canvas.Screen,3_0_3_0_5_1_1,NA,NA,timeout,4999.4729999993,6219505.5999999,6219490.093,6219518.996,6224502.424,6224503.5999999,2023-06-15T09:28:12Z,6224518.469,NULL,Vorwurf,mashtaka,s,msukumo,mtangulizi,uenyekiti,NA,qt,1,3,NA,NA,NA,NA,NA,NA,NA,NA,NA,NA,NA,NA,NA,NA,NA,NA,NA,NA,NA
819ba,"""Falsch""-Screen",canvas.Screen,3_0_3_0_5_1_2,NA,NA,skipped,NA,6224508.8000002,NA,NA,6224502.424,6224509.0999999,2023-06-15T09:28:12Z,6224518.469,NULL,Vorwurf,mashtaka,s,msukumo,mtangulizi,uenyekiti,NA,qt,NA,3,NA,NA,NA,NA,NA,NA,NA,NA,NA,NA,NA,NA,NA,NA,NA,NA,NA,NA,NA
819ba,shallow,flow.Sequence,3_0_3_0_5_1,NA,NA,completion,9144.5060000001,6215350.1999998,6215341.903,6215357.918,6224502.424,6224509.5,2023-06-15T09:28:12Z,6224518.469,NULL,Vorwurf,mashtaka,s,msukumo,mtangulizi,uenyekiti,NA,qt,NA,3,NA,NA,NA,NA,NA,NA,NA,NA,NA,NA,NA,NA,NA,NA,NA,NA,NA,NA,NA
819ba,task,flow.Sequence,3_0_3_0_5,NA,NA,completion,9144.5060000001,6215350,6215341.903,6215357.918,6224502.424,6224509.8000002,2023-06-15T09:28:12Z,6224518.469,NULL,Vorwurf,mashtaka,s,msukumo,mtangulizi,uenyekiti,NA,qt,NA,3,NA,NA,NA,NA,NA,NA,NA,NA,NA,NA,NA,NA,NA,NA,NA,NA,NA,NA,NA
819ba,deep,flow.Sequence,3_0_3_0_6_0,NA,NA,skipped,NA,6224509.9000001,NA,NA,6224502.424,6224510.0999999,2023-06-15T09:28:12Z,6224518.469,NULL,Spionage,upelelezi,s,maslahi,utokazo,magangao,NA,qt,NA,3,NA,NA,NA,NA,NA,NA,NA,NA,NA,NA,NA,NA,NA,NA,NA,NA,NA,NA,NA
819ba,Shallow Question,html.Page,3_0_3_0_6_1_0,NA,NA,form submission,3433.1309999051,6224510.3000002,6224502.424,6224518.469,6227951.5999999,6227951.8000002,2023-06-15T09:28:16Z,6227954.042,NULL,Spionage,upelelezi,s,maslahi,utokazo,magangao,upelelezi,NA,NA,3,NA,NA,NA,NA,NA,NA,NA,NA,NA,NA,NA,NA,NA,NA,NA,NA,NA,NA,NA
819ba,"""Richtig""-Screen",canvas.Screen,3_0_3_0_6_1_1,NA,NA,timeout,5016.2369999997,6227954.5,6227937.254,6227954.042,6232936.98,6232944.9000001,2023-06-15T09:28:21Z,6232970.279,NULL,Spionage,upelelezi,s,maslahi,utokazo,magangao,NA,qt,1,3,NA,NA,NA,NA,NA,NA,NA,NA,NA,NA,NA,NA,NA,NA,NA,NA,NA,NA,NA
819ba,"""Falsch""-Screen",canvas.Screen,3_0_3_0_6_1_2,NA,NA,skipped,NA,6232951.9000001,NA,NA,6232936.98,6232952.5,2023-06-15T09:28:21Z,6232970.279,NULL,Spionage,upelelezi,s,maslahi,utokazo,magangao,NA,qt,NA,3,NA,NA,NA,NA,NA,NA,NA,NA,NA,NA,NA,NA,NA,NA,NA,NA,NA,NA,NA
819ba,shallow,flow.Sequence,3_0_3_0_6_1,NA,NA,completion,8418.5110000009,6224510.3000002,6224502.424,6224518.469,6232936.98,6232953,2023-06-15T09:28:21Z,6232970.279,NULL,Spionage,upelelezi,s,maslahi,utokazo,magangao,NA,qt,NA,3,NA,NA,NA,NA,NA,NA,NA,NA,NA,NA,NA,NA,NA,NA,NA,NA,NA,NA,NA
819ba,task,flow.Sequence,3_0_3_0_6,NA,NA,completion,8418.5110000009,6224509.9000001,6224502.424,6224518.469,6232936.98,6232953.3000002,2023-06-15T09:28:21Z,6232970.279,NULL,Spionage,upelelezi,s,maslahi,utokazo,magangao,NA,qt,NA,3,NA,NA,NA,NA,NA,NA,NA,NA,NA,NA,NA,NA,NA,NA,NA,NA,NA,NA,NA
819ba,Deep Question,html.Page,3_0_3_0_7_0_0,NA,NA,form submission,8506.5210001906,6232953.5,6232936.98,6232970.279,6241476.8000002,6241477,2023-06-15T09:28:29Z,6241484.168,NULL,Niveau,kiwango,d,NA,NA,NA,k,NA,NA,3,NA,NA,NA,NA,NA,NA,NA,NA,NA,NA,NA,NA,NA,NA,NA,NA,NA,NA,NA
819ba,"""Richtig""-Screen",canvas.Screen,3_0_3_0_7_0_1,NA,NA,skipped,NA,6241479.1999998,NA,NA,6241476.8000002,6241479.1999998,2023-06-15T09:28:29Z,6241484.168,NULL,Niveau,kiwango,d,NA,NA,NA,NA,qt,NA,3,NA,NA,NA,NA,NA,NA,NA,NA,NA,NA,NA,NA,NA,NA,NA,NA,NA,NA,NA
819ba,"""Falsch""-Screen",canvas.Screen,3_0_3_0_7_0_2,NA,NA,timeout,4999.9650000008,6241479.9000001,6241476.446,6241484.168,6246467.545,6246468.5999999,2023-06-15T09:28:34Z,6246484.133,NULL,Niveau,kiwango,d,NA,NA,NA,NA,qt,0,3,NA,NA,NA,NA,NA,NA,NA,NA,NA,NA,NA,NA,NA,NA,NA,NA,NA,NA,NA
819ba,deep,flow.Sequence,3_0_3_0_7_0,NA,NA,completion,13497.266,6232953.5,6232936.98,6232970.279,6246467.545,6246469,2023-06-15T09:28:34Z,6246484.133,NULL,Niveau,kiwango,d,NA,NA,NA,NA,qt,NA,3,NA,NA,NA,NA,NA,NA,NA,NA,NA,NA,NA,NA,NA,NA,NA,NA,NA,NA,NA
819ba,shallow,flow.Sequence,3_0_3_0_7_1,NA,NA,skipped,NA,6246469.1999998,NA,NA,6246467.545,6246469.4000001,2023-06-15T09:28:34Z,6246484.133,NULL,Niveau,kiwango,d,NA,NA,NA,NA,qt,NA,3,NA,NA,NA,NA,NA,NA,NA,NA,NA,NA,NA,NA,NA,NA,NA,NA,NA,NA,NA
819ba,task,flow.Sequence,3_0_3_0_7,NA,NA,completion,13497.266,6232953.4000001,6232936.98,6232970.279,6246467.545,6246469.5999999,2023-06-15T09:28:34Z,6246484.133,NULL,Niveau,kiwango,d,NA,NA,NA,NA,qt,NA,3,NA,NA,NA,NA,NA,NA,NA,NA,NA,NA,NA,NA,NA,NA,NA,NA,NA,NA,NA
819ba,block,flow.Loop,3_0_3_0,NA,NA,completion,83596.316,6162855.9000001,6162841.906,6162871.229,6246467.545,6246469.9000001,2023-06-15T09:28:34Z,6246484.133,NULL,NA,NA,NA,NA,NA,NA,NA,qt,NA,3,NA,NA,NA,NA,NA,NA,NA,NA,NA,NA,NA,NA,NA,NA,NA,NA,NA,NA,NA
819ba,weiter,canvas.Screen,3_0_3_1,sdf,keypress(Space),response,637.96699990425,6246470,6246467.545,6246484.133,6247122.0999999,6247123.0999999,2023-06-15T09:28:35Z,6247241.882,NULL,NA,NA,NA,NA,NA,NA,NA,qt,NA,3,NA,NA,NA,NA,NA,NA,NA,NA,NA,NA,NA,NA,NA,NA,NA,NA,NA,NA,NA
819ba,check continue,flow.Sequence,3_0_3,NA,NA,completion,84250.870999904,6162855.9000001,6162841.906,6162871.229,6247122.0999999,6247123.5,2023-06-15T09:28:35Z,6247241.882,NULL,NA,NA,NA,NA,NA,NA,NA,qt,NA,3,NA,NA,NA,NA,NA,NA,NA,NA,NA,NA,NA,NA,NA,NA,NA,NA,NA,NA,NA
819ba,deep,flow.Sequence,3_0_4_0_0_0,NA,NA,skipped,NA,6247239.3000002,NA,NA,6247122.0999999,6247239.6999998,2023-06-15T09:28:35Z,6247241.882,NULL,Spionage,upelelezi,s,maslahi,utokazo,magangao,NA,sd,NA,4,NA,NA,NA,NA,NA,NA,NA,NA,NA,NA,NA,NA,NA,NA,NA,NA,NA,NA,NA
819ba,Shallow Question,html.Page,3_0_4_0_0_1_0,NA,NA,form submission,1873.817999809,6247239.9000001,6247233.63,6247241.882,6249115.6999998,6249115.9000001,2023-06-15T09:28:37Z,6249143.639,NULL,Spionage,upelelezi,s,maslahi,utokazo,magangao,upelelezi,NA,NA,4,NA,NA,NA,NA,NA,NA,NA,NA,NA,NA,NA,NA,NA,NA,NA,NA,NA,NA,NA
819ba,"""Richtig""-Screen",canvas.Screen,3_0_4_0_0_1_1,NA,NA,timeout,4992.3819999993,6249116.5,6249107.687,6249143.639,6254119.918,6254121.1999998,2023-06-15T09:28:42Z,6254136.021,NULL,Spionage,upelelezi,s,maslahi,utokazo,magangao,NA,sd,1,4,NA,NA,NA,NA,NA,NA,NA,NA,NA,NA,NA,NA,NA,NA,NA,NA,NA,NA,NA
819ba,"""Falsch""-Screen",canvas.Screen,3_0_4_0_0_1_2,NA,NA,skipped,NA,6254126.1999998,NA,NA,6254119.918,6254126.5999999,2023-06-15T09:28:42Z,6254136.021,NULL,Spionage,upelelezi,s,maslahi,utokazo,magangao,NA,sd,NA,4,NA,NA,NA,NA,NA,NA,NA,NA,NA,NA,NA,NA,NA,NA,NA,NA,NA,NA,NA
819ba,shallow,flow.Sequence,3_0_4_0_0_1,NA,NA,completion,6878.0359999994,6247239.9000001,6247233.63,6247241.882,6254119.918,6254126.9000001,2023-06-15T09:28:42Z,6254136.021,NULL,Spionage,upelelezi,s,maslahi,utokazo,magangao,NA,sd,NA,4,NA,NA,NA,NA,NA,NA,NA,NA,NA,NA,NA,NA,NA,NA,NA,NA,NA,NA,NA
819ba,task,flow.Sequence,3_0_4_0_0,NA,NA,completion,6878.0359999994,6247239.1999998,6247233.63,6247241.882,6254119.918,6254127.1999998,2023-06-15T09:28:42Z,6254136.021,NULL,Spionage,upelelezi,s,maslahi,utokazo,magangao,NA,sd,NA,4,NA,NA,NA,NA,NA,NA,NA,NA,NA,NA,NA,NA,NA,NA,NA,NA,NA,NA,NA
819ba,Deep Question,html.Page,3_0_4_0_1_0_0,NA,NA,form submission,2800.3790000957,6254127.4000001,6254119.918,6254136.021,6256936.4000001,6256936.5999999,2023-06-15T09:28:45Z,6256951.288,NULL,Tester,wanaojaribu,d,NA,NA,NA,k,NA,NA,4,NA,NA,NA,NA,NA,NA,NA,NA,NA,NA,NA,NA,NA,NA,NA,NA,NA,NA,NA
819ba,"""Richtig""-Screen",canvas.Screen,3_0_4_0_1_0_1,NA,NA,skipped,NA,6256937.3000002,NA,NA,6256936.4000001,6256937.5,2023-06-15T09:28:45Z,6256951.288,NULL,Tester,wanaojaribu,d,NA,NA,NA,NA,sd,NA,4,NA,NA,NA,NA,NA,NA,NA,NA,NA,NA,NA,NA,NA,NA,NA,NA,NA,NA,NA
819ba,"""Falsch""-Screen",canvas.Screen,3_0_4_0_1_0_2,NA,NA,timeout,5003.6940000001,6256938,6256930.342,6256951.288,6261938.97,6261940.0999999,2023-06-15T09:28:50Z,6261954.982,NULL,Tester,wanaojaribu,d,NA,NA,NA,NA,sd,0,4,NA,NA,NA,NA,NA,NA,NA,NA,NA,NA,NA,NA,NA,NA,NA,NA,NA,NA,NA
819ba,deep,flow.Sequence,3_0_4_0_1_0,NA,NA,completion,7802.949,6254127.3000002,6254119.918,6254136.021,6261938.97,6261940.5,2023-06-15T09:28:50Z,6261954.982,NULL,Tester,wanaojaribu,d,NA,NA,NA,NA,sd,NA,4,NA,NA,NA,NA,NA,NA,NA,NA,NA,NA,NA,NA,NA,NA,NA,NA,NA,NA,NA
819ba,shallow,flow.Sequence,3_0_4_0_1_1,NA,NA,skipped,NA,6261940.5999999,NA,NA,6261938.97,6261940.9000001,2023-06-15T09:28:50Z,6261954.982,NULL,Tester,wanaojaribu,d,NA,NA,NA,NA,sd,NA,4,NA,NA,NA,NA,NA,NA,NA,NA,NA,NA,NA,NA,NA,NA,NA,NA,NA,NA,NA
819ba,task,flow.Sequence,3_0_4_0_1,NA,NA,completion,7802.949,6254127.3000002,6254119.918,6254136.021,6261938.97,6261941.0999999,2023-06-15T09:28:50Z,6261954.982,NULL,Tester,wanaojaribu,d,NA,NA,NA,NA,sd,NA,4,NA,NA,NA,NA,NA,NA,NA,NA,NA,NA,NA,NA,NA,NA,NA,NA,NA,NA,NA
819ba,deep,flow.Sequence,3_0_4_0_2_0,NA,NA,skipped,NA,6261941.1999998,NA,NA,6261938.97,6261941.4000001,2023-06-15T09:28:50Z,6261954.982,NULL,Fenster,dirisha,s,walakini,tasawari,maarifa,NA,sd,NA,4,NA,NA,NA,NA,NA,NA,NA,NA,NA,NA,NA,NA,NA,NA,NA,NA,NA,NA,NA
819ba,Shallow Question,html.Page,3_0_4_0_2_1_0,NA,NA,form submission,2932.7179998094,6261941.5,6261938.97,6261954.982,6264887.6999998,6264887.8000002,2023-06-15T09:28:53Z,6264890.539,NULL,Fenster,dirisha,s,walakini,tasawari,maarifa,dirisha,NA,NA,4,NA,NA,NA,NA,NA,NA,NA,NA,NA,NA,NA,NA,NA,NA,NA,NA,NA,NA,NA
819ba,"""Richtig""-Screen",canvas.Screen,3_0_4_0_2_1_1,NA,NA,timeout,4999.54,6264889.5999999,6264874.253,6264890.539,6269873.871,6269875,2023-06-15T09:28:58Z,6269890.079,NULL,Fenster,dirisha,s,walakini,tasawari,maarifa,NA,sd,1,4,NA,NA,NA,NA,NA,NA,NA,NA,NA,NA,NA,NA,NA,NA,NA,NA,NA,NA,NA
819ba,"""Falsch""-Screen",canvas.Screen,3_0_4_0_2_1_2,NA,NA,skipped,NA,6269880,NA,NA,6269873.871,6269880.4000001,2023-06-15T09:28:58Z,6269890.079,NULL,Fenster,dirisha,s,walakini,tasawari,maarifa,NA,sd,NA,4,NA,NA,NA,NA,NA,NA,NA,NA,NA,NA,NA,NA,NA,NA,NA,NA,NA,NA,NA
819ba,shallow,flow.Sequence,3_0_4_0_2_1,NA,NA,completion,7918.8890000004,6261941.4000001,6261938.97,6261954.982,6269873.871,6269880.8000002,2023-06-15T09:28:58Z,6269890.079,NULL,Fenster,dirisha,s,walakini,tasawari,maarifa,NA,sd,NA,4,NA,NA,NA,NA,NA,NA,NA,NA,NA,NA,NA,NA,NA,NA,NA,NA,NA,NA,NA
819ba,task,flow.Sequence,3_0_4_0_2,NA,NA,completion,7918.8890000004,6261941.1999998,6261938.97,6261954.982,6269873.871,6269881.0999999,2023-06-15T09:28:58Z,6269890.079,NULL,Fenster,dirisha,s,walakini,tasawari,maarifa,NA,sd,NA,4,NA,NA,NA,NA,NA,NA,NA,NA,NA,NA,NA,NA,NA,NA,NA,NA,NA,NA,NA
819ba,deep,flow.Sequence,3_0_4_0_3_0,NA,NA,skipped,NA,6269881.3000002,NA,NA,6269873.871,6269881.4000001,2023-06-15T09:28:58Z,6269890.079,NULL,Vorwurf,mashtaka,s,msukumo,mtangulizi,uenyekiti,NA,sd,NA,4,NA,NA,NA,NA,NA,NA,NA,NA,NA,NA,NA,NA,NA,NA,NA,NA,NA,NA,NA
819ba,Shallow Question,html.Page,3_0_4_0_3_1_0,NA,NA,form submission,2709.0209999047,6269881.5999999,6269873.871,6269890.079,6272599.0999999,6272599.3000002,2023-06-15T09:29:00Z,6272617.674,NULL,Vorwurf,mashtaka,s,msukumo,mtangulizi,uenyekiti,mashtaka,NA,NA,4,NA,NA,NA,NA,NA,NA,NA,NA,NA,NA,NA,NA,NA,NA,NA,NA,NA,NA,NA
819ba,"""Richtig""-Screen",canvas.Screen,3_0_4_0_3_1_1,NA,NA,timeout,4999.5,6272600,6272584.623,6272617.674,6277601.194,6277602.6999998,2023-06-15T09:29:05Z,6277617.174,NULL,Vorwurf,mashtaka,s,msukumo,mtangulizi,uenyekiti,NA,sd,1,4,NA,NA,NA,NA,NA,NA,NA,NA,NA,NA,NA,NA,NA,NA,NA,NA,NA,NA,NA
819ba,"""Falsch""-Screen",canvas.Screen,3_0_4_0_3_1_2,NA,NA,skipped,NA,6277608,NA,NA,6277601.194,6277608.3000002,2023-06-15T09:29:05Z,6277617.174,NULL,Vorwurf,mashtaka,s,msukumo,mtangulizi,uenyekiti,NA,sd,NA,4,NA,NA,NA,NA,NA,NA,NA,NA,NA,NA,NA,NA,NA,NA,NA,NA,NA,NA,NA
819ba,shallow,flow.Sequence,3_0_4_0_3_1,NA,NA,completion,7711.1150000002,6269881.5,6269873.871,6269890.079,6277601.194,6277608.8000002,2023-06-15T09:29:05Z,6277617.174,NULL,Vorwurf,mashtaka,s,msukumo,mtangulizi,uenyekiti,NA,sd,NA,4,NA,NA,NA,NA,NA,NA,NA,NA,NA,NA,NA,NA,NA,NA,NA,NA,NA,NA,NA
819ba,task,flow.Sequence,3_0_4_0_3,NA,NA,completion,7711.1150000002,6269881.1999998,6269873.871,6269890.079,6277601.194,6277609.0999999,2023-06-15T09:29:05Z,6277617.174,NULL,Vorwurf,mashtaka,s,msukumo,mtangulizi,uenyekiti,NA,sd,NA,4,NA,NA,NA,NA,NA,NA,NA,NA,NA,NA,NA,NA,NA,NA,NA,NA,NA,NA,NA
819ba,Deep Question,html.Page,3_0_4_0_4_0_0,NA,NA,form submission,8818.0259998096,6277609.3000002,6277601.194,6277617.174,6286435.1999998,6286435.3000002,2023-06-15T09:29:14Z,6286447.996,NULL,Papier,karatasi,d,NA,NA,NA,karatasi,NA,NA,4,NA,NA,NA,NA,NA,NA,NA,NA,NA,NA,NA,NA,NA,NA,NA,NA,NA,NA,NA
819ba,"""Richtig""-Screen",canvas.Screen,3_0_4_0_4_0_1,NA,NA,timeout,4999.4229999995,6286437.3000002,6286418.765,6286447.996,6291431.469,6291432.6999998,2023-06-15T09:29:19Z,6291447.419,NULL,Papier,karatasi,d,NA,NA,NA,NA,sd,1,4,NA,NA,NA,NA,NA,NA,NA,NA,NA,NA,NA,NA,NA,NA,NA,NA,NA,NA,NA
819ba,"""Falsch""-Screen",canvas.Screen,3_0_4_0_4_0_2,NA,NA,skipped,NA,6291438.6999998,NA,NA,6291431.469,6291439,2023-06-15T09:29:19Z,6291447.419,NULL,Papier,karatasi,d,NA,NA,NA,NA,sd,NA,4,NA,NA,NA,NA,NA,NA,NA,NA,NA,NA,NA,NA,NA,NA,NA,NA,NA,NA,NA
819ba,deep,flow.Sequence,3_0_4_0_4_0,NA,NA,completion,13814.295,6277609.1999998,6277601.194,6277617.174,6291431.469,6291439.5,2023-06-15T09:29:19Z,6291447.419,NULL,Papier,karatasi,d,NA,NA,NA,NA,sd,NA,4,NA,NA,NA,NA,NA,NA,NA,NA,NA,NA,NA,NA,NA,NA,NA,NA,NA,NA,NA
819ba,shallow,flow.Sequence,3_0_4_0_4_1,NA,NA,skipped,NA,6291439.6999998,NA,NA,6291431.469,6291439.9000001,2023-06-15T09:29:19Z,6291447.419,NULL,Papier,karatasi,d,NA,NA,NA,NA,sd,NA,4,NA,NA,NA,NA,NA,NA,NA,NA,NA,NA,NA,NA,NA,NA,NA,NA,NA,NA,NA
819ba,task,flow.Sequence,3_0_4_0_4,NA,NA,completion,13814.295,6277609.1999998,6277601.194,6277617.174,6291431.469,6291440.0999999,2023-06-15T09:29:19Z,6291447.419,NULL,Papier,karatasi,d,NA,NA,NA,NA,sd,NA,4,NA,NA,NA,NA,NA,NA,NA,NA,NA,NA,NA,NA,NA,NA,NA,NA,NA,NA,NA
819ba,deep,flow.Sequence,3_0_4_0_5_0,NA,NA,skipped,NA,6291440.3000002,NA,NA,6291431.469,6291440.4000001,2023-06-15T09:29:19Z,6291447.419,NULL,Entwicklung,maendeleo,s,uangavu,mshindwa,badiliko,NA,sd,NA,4,NA,NA,NA,NA,NA,NA,NA,NA,NA,NA,NA,NA,NA,NA,NA,NA,NA,NA,NA
819ba,Shallow Question,html.Page,3_0_4_0_5_1_0,NA,NA,form submission,3609.381000191,6291440.5999999,6291431.469,6291447.419,6295056.8000002,6295057,2023-06-15T09:29:23Z,6295066.375,NULL,Entwicklung,maendeleo,s,uangavu,mshindwa,badiliko,maendeleo,NA,NA,4,NA,NA,NA,NA,NA,NA,NA,NA,NA,NA,NA,NA,NA,NA,NA,NA,NA,NA,NA
819ba,"""Richtig""-Screen",canvas.Screen,3_0_4_0_5_1_1,NA,NA,timeout,5003.6569999997,6295058.8000002,6295045.664,6295066.375,6300053.94,6300055,2023-06-15T09:29:28Z,6300070.032,NULL,Entwicklung,maendeleo,s,uangavu,mshindwa,badiliko,NA,sd,1,4,NA,NA,NA,NA,NA,NA,NA,NA,NA,NA,NA,NA,NA,NA,NA,NA,NA,NA,NA
819ba,"""Falsch""-Screen",canvas.Screen,3_0_4_0_5_1_2,NA,NA,skipped,NA,6300060.1999998,NA,NA,6300053.94,6300060.5,2023-06-15T09:29:28Z,6300070.032,NULL,Entwicklung,maendeleo,s,uangavu,mshindwa,badiliko,NA,sd,NA,4,NA,NA,NA,NA,NA,NA,NA,NA,NA,NA,NA,NA,NA,NA,NA,NA,NA,NA,NA
819ba,shallow,flow.Sequence,3_0_4_0_5_1,NA,NA,completion,8606.5210000006009,6291440.5999999,6291431.469,6291447.419,6300053.94,6300060.9000001,2023-06-15T09:29:28Z,6300070.032,NULL,Entwicklung,maendeleo,s,uangavu,mshindwa,badiliko,NA,sd,NA,4,NA,NA,NA,NA,NA,NA,NA,NA,NA,NA,NA,NA,NA,NA,NA,NA,NA,NA,NA
819ba,task,flow.Sequence,3_0_4_0_5,NA,NA,completion,8606.5210000006009,6291440.1999998,6291431.469,6291447.419,6300053.94,6300061.1999998,2023-06-15T09:29:28Z,6300070.032,NULL,Entwicklung,maendeleo,s,uangavu,mshindwa,badiliko,NA,sd,NA,4,NA,NA,NA,NA,NA,NA,NA,NA,NA,NA,NA,NA,NA,NA,NA,NA,NA,NA,NA
819ba,Deep Question,html.Page,3_0_4_0_6_0_0,NA,NA,form submission,2163.067999905,6300062.9000001,6300053.94,6300070.032,6302233.0999999,6302233.3000002,2023-06-15T09:29:30Z,6302235.698,NULL,Schüler,mwanafunzi,d,NA,NA,NA,l,NA,NA,4,NA,NA,NA,NA,NA,NA,NA,NA,NA,NA,NA,NA,NA,NA,NA,NA,NA,NA,NA
819ba,"""Richtig""-Screen",canvas.Screen,3_0_4_0_6_0_1,NA,NA,skipped,NA,6302234.4000001,NA,NA,6302233.0999999,6302234.5,2023-06-15T09:29:30Z,6302235.698,NULL,Schüler,mwanafunzi,d,NA,NA,NA,NA,sd,NA,4,NA,NA,NA,NA,NA,NA,NA,NA,NA,NA,NA,NA,NA,NA,NA,NA,NA,NA,NA
819ba,"""Falsch""-Screen",canvas.Screen,3_0_4_0_6_0_2,NA,NA,timeout,5003.2400000002,6302235.0999999,6302227.785,6302235.698,6307222.233,6307234.9000001,2023-06-15T09:29:35Z,6307238.938,NULL,Schüler,mwanafunzi,d,NA,NA,NA,NA,sd,0,4,NA,NA,NA,NA,NA,NA,NA,NA,NA,NA,NA,NA,NA,NA,NA,NA,NA,NA,NA
819ba,deep,flow.Sequence,3_0_4_0_6_0,NA,NA,completion,7152.2010000004,6300062.6999998,6300053.94,6300070.032,6307222.233,6307235.3000002,2023-06-15T09:29:35Z,6307238.938,NULL,Schüler,mwanafunzi,d,NA,NA,NA,NA,sd,NA,4,NA,NA,NA,NA,NA,NA,NA,NA,NA,NA,NA,NA,NA,NA,NA,NA,NA,NA,NA
819ba,shallow,flow.Sequence,3_0_4_0_6_1,NA,NA,skipped,NA,6307235.5,NA,NA,6307222.233,6307235.5999999,2023-06-15T09:29:35Z,6307238.938,NULL,Schüler,mwanafunzi,d,NA,NA,NA,NA,sd,NA,4,NA,NA,NA,NA,NA,NA,NA,NA,NA,NA,NA,NA,NA,NA,NA,NA,NA,NA,NA
819ba,task,flow.Sequence,3_0_4_0_6,NA,NA,completion,7152.2010000004,6300061.4000001,6300053.94,6300070.032,6307222.233,6307235.9000001,2023-06-15T09:29:35Z,6307238.938,NULL,Schüler,mwanafunzi,d,NA,NA,NA,NA,sd,NA,4,NA,NA,NA,NA,NA,NA,NA,NA,NA,NA,NA,NA,NA,NA,NA,NA,NA,NA,NA
819ba,Deep Question,html.Page,3_0_4_0_7_0_0,NA,NA,form submission,4518.3620001907,6307236.0999999,6307222.233,6307238.938,6311757.3000002,6311757.5,2023-06-15T09:29:40Z,6311783.312,NULL,Niveau,kiwango,d,NA,NA,NA,kiwango,NA,NA,4,NA,NA,NA,NA,NA,NA,NA,NA,NA,NA,NA,NA,NA,NA,NA,NA,NA,NA,NA
819ba,"""Richtig""-Screen",canvas.Screen,3_0_4_0_7_0_1,NA,NA,timeout,5002.5209999997,6311759.5,6311741.461,6311783.312,6316769.83,6316771,2023-06-15T09:29:45Z,6316785.833,NULL,Niveau,kiwango,d,NA,NA,NA,NA,sd,1,4,NA,NA,NA,NA,NA,NA,NA,NA,NA,NA,NA,NA,NA,NA,NA,NA,NA,NA,NA
819ba,"""Falsch""-Screen",canvas.Screen,3_0_4_0_7_0_2,NA,NA,skipped,NA,6316776.3000002,NA,NA,6316769.83,6316776.5999999,2023-06-15T09:29:45Z,6316785.833,NULL,Niveau,kiwango,d,NA,NA,NA,NA,sd,NA,4,NA,NA,NA,NA,NA,NA,NA,NA,NA,NA,NA,NA,NA,NA,NA,NA,NA,NA,NA
819ba,deep,flow.Sequence,3_0_4_0_7_0,NA,NA,completion,9530.892,6307236.0999999,6307222.233,6307238.938,6316769.83,6316777.0999999,2023-06-15T09:29:45Z,6316785.833,NULL,Niveau,kiwango,d,NA,NA,NA,NA,sd,NA,4,NA,NA,NA,NA,NA,NA,NA,NA,NA,NA,NA,NA,NA,NA,NA,NA,NA,NA,NA
819ba,shallow,flow.Sequence,3_0_4_0_7_1,NA,NA,skipped,NA,6316777.1999998,NA,NA,6316769.83,6316777.3000002,2023-06-15T09:29:45Z,6316785.833,NULL,Niveau,kiwango,d,NA,NA,NA,NA,sd,NA,4,NA,NA,NA,NA,NA,NA,NA,NA,NA,NA,NA,NA,NA,NA,NA,NA,NA,NA,NA
819ba,task,flow.Sequence,3_0_4_0_7,NA,NA,completion,9530.892,6307236,6307222.233,6307238.938,6316769.83,6316777.5999999,2023-06-15T09:29:45Z,6316785.833,NULL,Niveau,kiwango,d,NA,NA,NA,NA,sd,NA,4,NA,NA,NA,NA,NA,NA,NA,NA,NA,NA,NA,NA,NA,NA,NA,NA,NA,NA,NA
819ba,block,flow.Loop,3_0_4_0,NA,NA,completion,69527.948,6247239.1999998,6247233.63,6247241.882,6316769.83,6316777.9000001,2023-06-15T09:29:45Z,6316785.833,NULL,NA,NA,NA,NA,NA,NA,NA,sd,NA,4,NA,NA,NA,NA,NA,NA,NA,NA,NA,NA,NA,NA,NA,NA,NA,NA,NA,NA,NA
819ba,weiter,canvas.Screen,3_0_4_1,sdf,keypress(Space),response,476.06700009573,6316778,6316769.83,6316785.833,6317261.9000001,6317263.0999999,2023-06-15T09:29:45Z,6318023.058,NULL,NA,NA,NA,NA,NA,NA,NA,sd,NA,4,NA,NA,NA,NA,NA,NA,NA,NA,NA,NA,NA,NA,NA,NA,NA,NA,NA,NA,NA
819ba,check continue,flow.Sequence,3_0_4,NA,NA,completion,70020.018000095,6247239.0999999,6247233.63,6247241.882,6317261.9000001,6317263.4000001,2023-06-15T09:29:45Z,6318023.058,NULL,NA,NA,NA,NA,NA,NA,NA,sd,NA,4,NA,NA,NA,NA,NA,NA,NA,NA,NA,NA,NA,NA,NA,NA,NA,NA,NA,NA,NA
819ba,check continue,flow.Sequence,3_0_5,NA,NA,skipped,NA,6317356.3000002,NA,NA,6317261.9000001,6317356.5999999,2023-06-15T09:29:45Z,6318023.058,NULL,NA,NA,NA,NA,NA,NA,NA,sdf,NA,5,NA,NA,NA,NA,NA,NA,NA,NA,NA,NA,NA,NA,NA,NA,NA,NA,NA,NA,NA
819ba,check continue,flow.Sequence,3_0_6,NA,NA,skipped,NA,6317421.0999999,NA,NA,6317261.9000001,6317421.4000001,2023-06-15T09:29:45Z,6318023.058,NULL,NA,NA,NA,NA,NA,NA,NA,dfs,NA,6,NA,NA,NA,NA,NA,NA,NA,NA,NA,NA,NA,NA,NA,NA,NA,NA,NA,NA,NA
819ba,check continue,flow.Sequence,3_0_7,NA,NA,skipped,NA,6317467.5999999,NA,NA,6317261.9000001,6317467.6999998,2023-06-15T09:29:45Z,6318023.058,NULL,NA,NA,NA,NA,NA,NA,NA,df,NA,7,NA,NA,NA,NA,NA,NA,NA,NA,NA,NA,NA,NA,NA,NA,NA,NA,NA,NA,NA
819ba,check continue,flow.Sequence,3_0_8,NA,NA,skipped,NA,6317518.6999998,NA,NA,6317261.9000001,6317518.9000001,2023-06-15T09:29:45Z,6318023.058,NULL,NA,NA,NA,NA,NA,NA,NA,dfs,NA,8,NA,NA,NA,NA,NA,NA,NA,NA,NA,NA,NA,NA,NA,NA,NA,NA,NA,NA,NA
819ba,check continue,flow.Sequence,3_0_9,NA,NA,skipped,NA,6317543.8000002,NA,NA,6317261.9000001,6317543.9000001,2023-06-15T09:29:45Z,6318023.058,NULL,NA,NA,NA,NA,NA,NA,NA,dsf,NA,9,NA,NA,NA,NA,NA,NA,NA,NA,NA,NA,NA,NA,NA,NA,NA,NA,NA,NA,NA
819ba,check continue,flow.Sequence,3_0_10,NA,NA,skipped,NA,6317561.1999998,NA,NA,6317261.9000001,6317561.3000002,2023-06-15T09:29:45Z,6318023.058,NULL,NA,NA,NA,NA,NA,NA,NA,df,NA,10,NA,NA,NA,NA,NA,NA,NA,NA,NA,NA,NA,NA,NA,NA,NA,NA,NA,NA,NA
819ba,check continue,flow.Sequence,3_0_11,NA,NA,skipped,NA,6317577.6999998,NA,NA,6317261.9000001,6317577.8000002,2023-06-15T09:29:45Z,6318023.058,NULL,NA,NA,NA,NA,NA,NA,NA,dfs,NA,11,NA,NA,NA,NA,NA,NA,NA,NA,NA,NA,NA,NA,NA,NA,NA,NA,NA,NA,NA
819ba,check continue,flow.Sequence,3_0_12,NA,NA,skipped,NA,6317595.5,NA,NA,6317261.9000001,6317595.6999998,2023-06-15T09:29:45Z,6318023.058,NULL,NA,NA,NA,NA,NA,NA,NA,dsf,NA,12,NA,NA,NA,NA,NA,NA,NA,NA,NA,NA,NA,NA,NA,NA,NA,NA,NA,NA,NA
819ba,check continue,flow.Sequence,3_0_13,NA,NA,skipped,NA,6317612.3000002,NA,NA,6317261.9000001,6317612.4000001,2023-06-15T09:29:45Z,6318023.058,NULL,NA,NA,NA,NA,NA,NA,NA,dsf,NA,13,NA,NA,NA,NA,NA,NA,NA,NA,NA,NA,NA,NA,NA,NA,NA,NA,NA,NA,NA
819ba,check continue,flow.Sequence,3_0_14,NA,NA,skipped,NA,6317632.0999999,NA,NA,6317261.9000001,6317632.1999998,2023-06-15T09:29:46Z,6318023.058,NULL,NA,NA,NA,NA,NA,NA,NA,NA,NA,14,NA,NA,NA,NA,NA,NA,NA,NA,NA,NA,NA,NA,NA,NA,NA,NA,NA,NA,NA
819ba,check continue,flow.Sequence,3_0_15,NA,NA,skipped,NA,6317651.6999998,NA,NA,6317261.9000001,6317651.8000002,2023-06-15T09:29:46Z,6318023.058,NULL,NA,NA,NA,NA,NA,NA,NA,NA,NA,15,NA,NA,NA,NA,NA,NA,NA,NA,NA,NA,NA,NA,NA,NA,NA,NA,NA,NA,NA
819ba,check continue,flow.Sequence,3_0_16,NA,NA,skipped,NA,6317670.8000002,NA,NA,6317261.9000001,6317670.9000001,2023-06-15T09:29:46Z,6318023.058,NULL,NA,NA,NA,NA,NA,NA,NA,NA,NA,16,NA,NA,NA,NA,NA,NA,NA,NA,NA,NA,NA,NA,NA,NA,NA,NA,NA,NA,NA
819ba,check continue,flow.Sequence,3_0_17,NA,NA,skipped,NA,6317692.4000001,NA,NA,6317261.9000001,6317692.5,2023-06-15T09:29:46Z,6318023.058,NULL,NA,NA,NA,NA,NA,NA,NA,NA,NA,17,NA,NA,NA,NA,NA,NA,NA,NA,NA,NA,NA,NA,NA,NA,NA,NA,NA,NA,NA
819ba,check continue,flow.Sequence,3_0_18,NA,NA,skipped,NA,6317708.6999998,NA,NA,6317261.9000001,6317708.9000001,2023-06-15T09:29:46Z,6318023.058,NULL,NA,NA,NA,NA,NA,NA,NA,NA,NA,18,NA,NA,NA,NA,NA,NA,NA,NA,NA,NA,NA,NA,NA,NA,NA,NA,NA,NA,NA
819ba,check continue,flow.Sequence,3_0_19,NA,NA,skipped,NA,6317728.8000002,NA,NA,6317261.9000001,6317728.9000001,2023-06-15T09:29:46Z,6318023.058,NULL,NA,NA,NA,NA,NA,NA,NA,NA,NA,19,NA,NA,NA,NA,NA,NA,NA,NA,NA,NA,NA,NA,NA,NA,NA,NA,NA,NA,NA
819ba,check continue,flow.Sequence,3_0_20,NA,NA,skipped,NA,6317748.8000002,NA,NA,6317261.9000001,6317749,2023-06-15T09:29:46Z,6318023.058,NULL,NA,NA,NA,NA,NA,NA,NA,NA,NA,20,NA,NA,NA,NA,NA,NA,NA,NA,NA,NA,NA,NA,NA,NA,NA,NA,NA,NA,NA
819ba,check continue,flow.Sequence,3_0_21,NA,NA,skipped,NA,6317774.1999998,NA,NA,6317261.9000001,6317774.3000002,2023-06-15T09:29:46Z,6318023.058,NULL,NA,NA,NA,NA,NA,NA,NA,NA,NA,21,NA,NA,NA,NA,NA,NA,NA,NA,NA,NA,NA,NA,NA,NA,NA,NA,NA,NA,NA
819ba,check continue,flow.Sequence,3_0_22,NA,NA,skipped,NA,6317797,NA,NA,6317261.9000001,6317797.0999999,2023-06-15T09:29:46Z,6318023.058,NULL,NA,NA,NA,NA,NA,NA,NA,NA,NA,22,NA,NA,NA,NA,NA,NA,NA,NA,NA,NA,NA,NA,NA,NA,NA,NA,NA,NA,NA
819ba,check continue,flow.Sequence,3_0_23,NA,NA,skipped,NA,6317823.8000002,NA,NA,6317261.9000001,6317823.9000001,2023-06-15T09:29:46Z,6318023.058,NULL,NA,NA,NA,NA,NA,NA,NA,NA,NA,23,NA,NA,NA,NA,NA,NA,NA,NA,NA,NA,NA,NA,NA,NA,NA,NA,NA,NA,NA
819ba,check continue,flow.Sequence,3_0_24,NA,NA,skipped,NA,6317849.5999999,NA,NA,6317261.9000001,6317849.8000002,2023-06-15T09:29:46Z,6318023.058,NULL,NA,NA,NA,NA,NA,NA,NA,NA,NA,24,NA,NA,NA,NA,NA,NA,NA,NA,NA,NA,NA,NA,NA,NA,NA,NA,NA,NA,NA
819ba,check continue,flow.Sequence,3_0_25,NA,NA,skipped,NA,6317876,NA,NA,6317261.9000001,6317876.1999998,2023-06-15T09:29:46Z,6318023.058,NULL,NA,NA,NA,NA,NA,NA,NA,NA,NA,25,NA,NA,NA,NA,NA,NA,NA,NA,NA,NA,NA,NA,NA,NA,NA,NA,NA,NA,NA
819ba,check continue,flow.Sequence,3_0_26,NA,NA,skipped,NA,6317901.5999999,NA,NA,6317261.9000001,6317901.6999998,2023-06-15T09:29:46Z,6318023.058,NULL,NA,NA,NA,NA,NA,NA,NA,NA,NA,26,NA,NA,NA,NA,NA,NA,NA,NA,NA,NA,NA,NA,NA,NA,NA,NA,NA,NA,NA
819ba,check continue,flow.Sequence,3_0_27,NA,NA,skipped,NA,6317919.4000001,NA,NA,6317261.9000001,6317919.5999999,2023-06-15T09:29:46Z,6318023.058,NULL,NA,NA,NA,NA,NA,NA,NA,NA,NA,27,NA,NA,NA,NA,NA,NA,NA,NA,NA,NA,NA,NA,NA,NA,NA,NA,NA,NA,NA
819ba,check continue,flow.Sequence,3_0_28,NA,NA,skipped,NA,6317937.1999998,NA,NA,6317261.9000001,6317937.4000001,2023-06-15T09:29:46Z,6318023.058,NULL,NA,NA,NA,NA,NA,NA,NA,NA,NA,28,NA,NA,NA,NA,NA,NA,NA,NA,NA,NA,NA,NA,NA,NA,NA,NA,NA,NA,NA
819ba,check continue,flow.Sequence,3_0_29,NA,NA,skipped,NA,6317954.9000001,NA,NA,6317261.9000001,6317955.0999999,2023-06-15T09:29:46Z,6318023.058,NULL,NA,NA,NA,NA,NA,NA,NA,NA,NA,29,NA,NA,NA,NA,NA,NA,NA,NA,NA,NA,NA,NA,NA,NA,NA,NA,NA,NA,NA
819ba,until continue,flow.Loop,3_0,NA,NA,completion,387255.3590001,5929922.5999999,5929989.884,5930006.541,6317261.9000001,6317955.0999999,2023-06-15T09:29:46Z,6318023.058,NULL,NA,NA,NA,NA,NA,NA,NA,NA,NA,NA,NA,NA,NA,NA,NA,NA,NA,NA,NA,NA,NA,NA,NA,NA,NA,NA,NA,NA,NA
819ba,block 1,flow.Sequence,3,NA,NA,completion,387255.3590001,5929922.5,5929989.884,5930006.541,6317261.9000001,6317955.1999998,2023-06-15T09:29:46Z,6318023.058,NULL,NA,NA,NA,NA,NA,NA,NA,NA,NA,NA,NA,NA,NA,NA,NA,NA,NA,NA,NA,NA,NA,NA,NA,NA,NA,NA,NA,NA,NA
819ba,1.Part Over,canvas.Screen,4,NA,keypress(Space),response,NA,6317955.1999998,NA,NA,6317648.3000002,6317956.1999998,2023-06-15T09:29:46Z,6318023.058,NULL,NA,NA,NA,NA,NA,NA,NA,NA,NA,NA,NA,NA,NA,NA,NA,NA,NA,NA,NA,NA,NA,NA,NA,NA,NA,NA,NA,NA,NA
819ba,deep,flow.Sequence,5_0_0_0_0_0,NA,NA,skipped,NA,6318036.5,NA,NA,6317648.3000002,6318036.5999999,2023-06-15T09:29:46Z,6318023.058,NULL,Schlange,foleni,s,uvumilivu,uteuzi,muuzaji,NA,sdf,NA,0,NA,NA,NA,NA,NA,NA,NA,NA,NA,NA,NA,NA,NA,NA,NA,NA,NA,NA,NA
819ba,Shallow Question,html.Page,5_0_0_0_0_1_0,NA,NA,form submission,9826.5419999044,6318036.6999998,6317952.045,6318023.058,6327849.5999999,6327849.8000002,2023-06-15T09:29:56Z,6327868.293,NULL,Schlange,foleni,s,uvumilivu,uteuzi,muuzaji,uteuzi,NA,NA,0,NA,NA,NA,NA,NA,NA,NA,NA,NA,NA,NA,NA,NA,NA,NA,NA,NA,NA,NA
819ba,"""Richtig""-Screen",canvas.Screen,5_0_0_0_0_1_1,NA,NA,skipped,NA,6327851.5,NA,NA,6327849.5999999,6327851.6999998,2023-06-15T09:29:56Z,6327868.293,NULL,Schlange,foleni,s,uvumilivu,uteuzi,muuzaji,NA,sdf,NA,0,NA,NA,NA,NA,NA,NA,NA,NA,NA,NA,NA,NA,NA,NA,NA,NA,NA,NA,NA
819ba,"""Falsch""-Screen",canvas.Screen,5_0_0_0_0_1_2,NA,NA,timeout,4991.3590000002,6327852.3000002,6327847.28,6327868.293,6332843.269,6332844.3000002,2023-06-15T09:30:01Z,6332859.652,NULL,Schlange,foleni,s,uvumilivu,uteuzi,muuzaji,NA,sdf,0,0,NA,NA,NA,NA,NA,NA,NA,NA,NA,NA,NA,NA,NA,NA,NA,NA,NA,NA,NA
819ba,shallow,flow.Sequence,5_0_0_0_0_1,NA,NA,completion,14820.211,6318036.6999998,6317952.045,6318023.058,6332843.269,6332844.5999999,2023-06-15T09:30:01Z,6332859.652,NULL,Schlange,foleni,s,uvumilivu,uteuzi,muuzaji,NA,sdf,NA,0,NA,NA,NA,NA,NA,NA,NA,NA,NA,NA,NA,NA,NA,NA,NA,NA,NA,NA,NA
819ba,task,flow.Sequence,5_0_0_0_0,NA,NA,completion,14820.211,6318036.4000001,6317952.045,6318023.058,6332843.269,6332844.9000001,2023-06-15T09:30:01Z,6332859.652,NULL,Schlange,foleni,s,uvumilivu,uteuzi,muuzaji,NA,sdf,NA,0,NA,NA,NA,NA,NA,NA,NA,NA,NA,NA,NA,NA,NA,NA,NA,NA,NA,NA,NA
819ba,deep,flow.Sequence,5_0_0_0_1_0,NA,NA,skipped,NA,6332845.0999999,NA,NA,6332843.269,6332845.1999998,2023-06-15T09:30:01Z,6332859.652,NULL,Begegnung,kukutana,s,mmasihiya,mpiganaji,husiano,NA,sdf,NA,0,NA,NA,NA,NA,NA,NA,NA,NA,NA,NA,NA,NA,NA,NA,NA,NA,NA,NA,NA
819ba,Shallow Question,html.Page,5_0_0_0_1_1_0,NA,NA,form submission,4443.4479999049,6332845.3000002,6332843.269,6332859.652,6337303.0999999,6337303.3000002,2023-06-15T09:30:05Z,6337316.287,NULL,Begegnung,kukutana,s,mmasihiya,mpiganaji,husiano,kukutana,NA,NA,0,NA,NA,NA,NA,NA,NA,NA,NA,NA,NA,NA,NA,NA,NA,NA,NA,NA,NA,NA
819ba,"""Richtig""-Screen",canvas.Screen,5_0_0_0_1_1_1,NA,NA,timeout,4999.5760000004,6337305.3000002,6337299.516,6337316.287,6342299.473,6342300.6999998,2023-06-15T09:30:10Z,6342315.863,NULL,Begegnung,kukutana,s,mmasihiya,mpiganaji,husiano,NA,sdf,1,0,NA,NA,NA,NA,NA,NA,NA,NA,NA,NA,NA,NA,NA,NA,NA,NA,NA,NA,NA
819ba,"""Falsch""-Screen",canvas.Screen,5_0_0_0_1_1_2,NA,NA,skipped,NA,6342306.1999998,NA,NA,6342299.473,6342306.5999999,2023-06-15T09:30:10Z,6342315.863,NULL,Begegnung,kukutana,s,mmasihiya,mpiganaji,husiano,NA,sdf,NA,0,NA,NA,NA,NA,NA,NA,NA,NA,NA,NA,NA,NA,NA,NA,NA,NA,NA,NA,NA
819ba,shallow,flow.Sequence,5_0_0_0_1_1,NA,NA,completion,9439.8210000005,6332845.3000002,6332843.269,6332859.652,6342299.473,6342307,2023-06-15T09:30:10Z,6342315.863,NULL,Begegnung,kukutana,s,mmasihiya,mpiganaji,husiano,NA,sdf,NA,0,NA,NA,NA,NA,NA,NA,NA,NA,NA,NA,NA,NA,NA,NA,NA,NA,NA,NA,NA
819ba,task,flow.Sequence,5_0_0_0_1,NA,NA,completion,9439.8210000005,6332845,6332843.269,6332859.652,6342299.473,6342307.3000002,2023-06-15T09:30:10Z,6342315.863,NULL,Begegnung,kukutana,s,mmasihiya,mpiganaji,husiano,NA,sdf,NA,0,NA,NA,NA,NA,NA,NA,NA,NA,NA,NA,NA,NA,NA,NA,NA,NA,NA,NA,NA
819ba,deep,flow.Sequence,5_0_0_0_2_0,NA,NA,skipped,NA,6342307.4000001,NA,NA,6342299.473,6342307.5999999,2023-06-15T09:30:10Z,6342315.863,NULL,Genehmigung,idhini,s,mwanamke,itikadi,fedheha,NA,sdf,NA,0,NA,NA,NA,NA,NA,NA,NA,NA,NA,NA,NA,NA,NA,NA,NA,NA,NA,NA,NA
819ba,Shallow Question,html.Page,5_0_0_0_2_1_0,NA,NA,form submission,2510.5370000955,6342307.8000002,6342299.473,6342315.863,6344826.4000001,6344826.5999999,2023-06-15T09:30:13Z,6344840.127,NULL,Genehmigung,idhini,s,mwanamke,itikadi,fedheha,mwanamke,NA,NA,0,NA,NA,NA,NA,NA,NA,NA,NA,NA,NA,NA,NA,NA,NA,NA,NA,NA,NA,NA
819ba,"""Richtig""-Screen",canvas.Screen,5_0_0_0_2_1_1,NA,NA,skipped,NA,6344827.3000002,NA,NA,6344826.4000001,6344827.4000001,2023-06-15T09:30:13Z,6344840.127,NULL,Genehmigung,idhini,s,mwanamke,itikadi,fedheha,NA,sdf,NA,0,NA,NA,NA,NA,NA,NA,NA,NA,NA,NA,NA,NA,NA,NA,NA,NA,NA,NA,NA
819ba,"""Falsch""-Screen",canvas.Screen,5_0_0_0_2_1_2,NA,NA,timeout,4995.1999999993,6344827.9000001,6344811.001,6344840.127,6349818.688,6349820.3000002,2023-06-15T09:30:18Z,6349835.327,NULL,Genehmigung,idhini,s,mwanamke,itikadi,fedheha,NA,sdf,0,0,NA,NA,NA,NA,NA,NA,NA,NA,NA,NA,NA,NA,NA,NA,NA,NA,NA,NA,NA
819ba,shallow,flow.Sequence,5_0_0_0_2_1,NA,NA,completion,7502.8250000002,6342307.8000002,6342299.473,6342315.863,6349818.688,6349821,2023-06-15T09:30:18Z,6349835.327,NULL,Genehmigung,idhini,s,mwanamke,itikadi,fedheha,NA,sdf,NA,0,NA,NA,NA,NA,NA,NA,NA,NA,NA,NA,NA,NA,NA,NA,NA,NA,NA,NA,NA
819ba,task,flow.Sequence,5_0_0_0_2,NA,NA,completion,7502.8250000002,6342307.3000002,6342299.473,6342315.863,6349818.688,6349821.4000001,2023-06-15T09:30:18Z,6349835.327,NULL,Genehmigung,idhini,s,mwanamke,itikadi,fedheha,NA,sdf,NA,0,NA,NA,NA,NA,NA,NA,NA,NA,NA,NA,NA,NA,NA,NA,NA,NA,NA,NA,NA
819ba,Deep Question,html.Page,5_0_0_0_3_0_0,NA,NA,form submission,2103.4730001912,6349821.9000001,6349818.688,6349835.327,6351938.8000002,6351939,2023-06-15T09:30:20Z,6351946.843,NULL,Fleisch,mshakiki,d,NA,NA,NA,k,NA,NA,0,NA,NA,NA,NA,NA,NA,NA,NA,NA,NA,NA,NA,NA,NA,NA,NA,NA,NA,NA
819ba,"""Richtig""-Screen",canvas.Screen,5_0_0_0_3_0_1,NA,NA,skipped,NA,6351940.9000001,NA,NA,6351938.8000002,6351941.0999999,2023-06-15T09:30:20Z,6351946.843,NULL,Fleisch,mshakiki,d,NA,NA,NA,NA,sdf,NA,0,NA,NA,NA,NA,NA,NA,NA,NA,NA,NA,NA,NA,NA,NA,NA,NA,NA,NA,NA
819ba,"""Falsch""-Screen",canvas.Screen,5_0_0_0_3_0_2,NA,NA,timeout,4999.7379999999,6351941.9000001,6351930.364,6351946.843,6356930.225,6356931.3000002,2023-06-15T09:30:25Z,6356946.581,NULL,Fleisch,mshakiki,d,NA,NA,NA,NA,sdf,0,0,NA,NA,NA,NA,NA,NA,NA,NA,NA,NA,NA,NA,NA,NA,NA,NA,NA,NA,NA
819ba,deep,flow.Sequence,5_0_0_0_3_0,NA,NA,completion,7094.898,6349821.8000002,6349818.688,6349835.327,6356930.225,6356931.9000001,2023-06-15T09:30:25Z,6356946.581,NULL,Fleisch,mshakiki,d,NA,NA,NA,NA,sdf,NA,0,NA,NA,NA,NA,NA,NA,NA,NA,NA,NA,NA,NA,NA,NA,NA,NA,NA,NA,NA
819ba,shallow,flow.Sequence,5_0_0_0_3_1,NA,NA,skipped,NA,6356932,NA,NA,6356930.225,6356932.1999998,2023-06-15T09:30:25Z,6356946.581,NULL,Fleisch,mshakiki,d,NA,NA,NA,NA,sdf,NA,0,NA,NA,NA,NA,NA,NA,NA,NA,NA,NA,NA,NA,NA,NA,NA,NA,NA,NA,NA
819ba,task,flow.Sequence,5_0_0_0_3,NA,NA,completion,7094.898,6349821.6999998,6349818.688,6349835.327,6356930.225,6356932.5,2023-06-15T09:30:25Z,6356946.581,NULL,Fleisch,mshakiki,d,NA,NA,NA,NA,sdf,NA,0,NA,NA,NA,NA,NA,NA,NA,NA,NA,NA,NA,NA,NA,NA,NA,NA,NA,NA,NA
819ba,deep,flow.Sequence,5_0_0_0_4_0,NA,NA,skipped,NA,6356932.5999999,NA,NA,6356930.225,6356932.6999998,2023-06-15T09:30:25Z,6356946.581,NULL,Toleranz,kuvumiliana,s,maombolezo,ujasusi,mchekeshaji,NA,sdf,NA,0,NA,NA,NA,NA,NA,NA,NA,NA,NA,NA,NA,NA,NA,NA,NA,NA,NA,NA,NA
819ba,Shallow Question,html.Page,5_0_0_0_4_1_0,NA,NA,form submission,6050.4189999998,6356932.9000001,6356930.225,6356946.581,6362997,6362997.1999998,2023-06-15T09:30:31Z,6363002.719,NULL,Toleranz,kuvumiliana,s,maombolezo,ujasusi,mchekeshaji,maombolezo,NA,NA,0,NA,NA,NA,NA,NA,NA,NA,NA,NA,NA,NA,NA,NA,NA,NA,NA,NA,NA,NA
819ba,"""Richtig""-Screen",canvas.Screen,5_0_0_0_4_1_1,NA,NA,skipped,NA,6362999.3000002,NA,NA,6362997,6362999.5,2023-06-15T09:30:31Z,6363002.719,NULL,Toleranz,kuvumiliana,s,maombolezo,ujasusi,mchekeshaji,NA,sdf,NA,0,NA,NA,NA,NA,NA,NA,NA,NA,NA,NA,NA,NA,NA,NA,NA,NA,NA,NA,NA
819ba,"""Falsch""-Screen",canvas.Screen,5_0_0_0_4_1_2,NA,NA,timeout,5004.2110000001,6363000.0999999,6362990.525,6363002.719,6367990.256,6367991.4000001,2023-06-15T09:30:36Z,6368006.93,NULL,Toleranz,kuvumiliana,s,maombolezo,ujasusi,mchekeshaji,NA,sdf,0,0,NA,NA,NA,NA,NA,NA,NA,NA,NA,NA,NA,NA,NA,NA,NA,NA,NA,NA,NA
819ba,shallow,flow.Sequence,5_0_0_0_4_1,NA,NA,completion,11043.675,6356932.8000002,6356930.225,6356946.581,6367990.256,6367991.9000001,2023-06-15T09:30:36Z,6368006.93,NULL,Toleranz,kuvumiliana,s,maombolezo,ujasusi,mchekeshaji,NA,sdf,NA,0,NA,NA,NA,NA,NA,NA,NA,NA,NA,NA,NA,NA,NA,NA,NA,NA,NA,NA,NA
819ba,task,flow.Sequence,5_0_0_0_4,NA,NA,completion,11043.675,6356932.5999999,6356930.225,6356946.581,6367990.256,6367992.1999998,2023-06-15T09:30:36Z,6368006.93,NULL,Toleranz,kuvumiliana,s,maombolezo,ujasusi,mchekeshaji,NA,sdf,NA,0,NA,NA,NA,NA,NA,NA,NA,NA,NA,NA,NA,NA,NA,NA,NA,NA,NA,NA,NA
819ba,Deep Question,html.Page,5_0_0_0_5_0_0,NA,NA,form submission,1748.1699999049,6367992.5,6367990.256,6368006.93,6369755.0999999,6369755.1999998,2023-06-15T09:30:38Z,6369773.551,NULL,Inhalt,yaliyomo,d,NA,NA,NA,k,NA,NA,0,NA,NA,NA,NA,NA,NA,NA,NA,NA,NA,NA,NA,NA,NA,NA,NA,NA,NA,NA
819ba,"""Richtig""-Screen",canvas.Screen,5_0_0_0_5_0_1,NA,NA,skipped,NA,6369757.9000001,NA,NA,6369755.0999999,6369758,2023-06-15T09:30:38Z,6369773.551,NULL,Inhalt,yaliyomo,d,NA,NA,NA,NA,sdf,NA,0,NA,NA,NA,NA,NA,NA,NA,NA,NA,NA,NA,NA,NA,NA,NA,NA,NA,NA,NA
819ba,"""Falsch""-Screen",canvas.Screen,5_0_0_0_5_0_2,NA,NA,timeout,4994.5980000002,6369759.0999999,6369751.712,6369773.551,6374751.25,6374752.4000001,2023-06-15T09:30:43Z,6374768.149,NULL,Inhalt,yaliyomo,d,NA,NA,NA,NA,sdf,0,0,NA,NA,NA,NA,NA,NA,NA,NA,NA,NA,NA,NA,NA,NA,NA,NA,NA,NA,NA
