observation,sender,sender_type,sender_id,response,response_action,ended_on,duration,time_run,time_render,time_show,time_end,time_commit,timestamp,time_switch,distractors,german,swahili,enc,distractor1,distractor2,distractor3,response_2,x,correct,x_2,url_vp,url_sess,meta_labjs_version,meta_location,meta_user_agent,meta_platform,meta_language,meta_locale,meta_time_zone,meta_timezone_offset,meta_screen_width,meta_screen_height,meta_scroll_width,meta_scroll_height,meta_window_inner_width,meta_window_inner_height,meta_device_pixel_ratio,meta_labjs_build_flavor,meta_labjs_build_commit
c506c,Introduction general,canvas.Screen,0,weiter,keypress(q),response,123180.98699998,1321.6000000238,717.594,1434.413,124615.39999998,124622.89999998,2023-04-04T16:32:27Z,124638.694,NULL,NA,NA,NA,NA,NA,NA,NA,NA,NA,NA,203,3,20.2.4,https://neurocog.fernuni.ch/studies/vweber/sfink/encoding_immediate/index.html?vp=203&sess=3,"Mozilla/5.0 (Windows NT 10.0; Win64; x64) AppleWebKit/537.36 (KHTML, like Gecko) Chrome/111.0.0.0 Safari/537.36 Edg/111.0.1661.62",Win32,de,de-CH,Europe/Zurich,-120,1500,1000,1395,841,1395,889,2,production,f5b4a49f956347addd546a832a3327688c2c0fef
c506c,Introduction practice,canvas.Screen,1_0,NA,keypress(Space),response,7407.7059999762,124623.70000005,124606.464,124638.694,132046.39999998,132047.60000002,2023-04-04T16:32:34Z,132076.774,NULL,NA,NA,NA,NA,NA,NA,NA,NA,NA,NA,NA,NA,NA,NA,NA,NA,NA,NA,NA,NA,NA,NA,NA,NA,NA,NA,NA,NA,NA
c506c,Deep Question,html.Page,1_1_0_0_0,NA,NA,form submission,15293.125999976,132048.20000005,132043.586,132076.774,147369.89999998,147370.5,2023-04-04T16:32:49Z,147428.798,"c(""distractor1"", ""distractor2"", ""distractor3"")",Schatten,kivuli,d,NA,NA,NA,whanki,NA,NA,NA,NA,NA,NA,NA,NA,NA,NA,NA,NA,NA,NA,NA,NA,NA,NA,NA,NA,NA,NA
c506c,"""Richtig""-Screen",canvas.Screen,1_1_0_0_1,NA,NA,skipped,NA,147374.39999998,NA,NA,147369.89999998,147374.89999998,2023-04-04T16:32:49Z,147428.798,"c(""distractor1"", ""distractor2"", ""distractor3"")",Schatten,kivuli,d,NA,NA,NA,NA,NA,NA,NA,NA,NA,NA,NA,NA,NA,NA,NA,NA,NA,NA,NA,NA,NA,NA,NA,NA,NA,NA
c506c,"""Falsch""-Screen",canvas.Screen,1_1_0_0_2,NA,NA,timeout,4995.552,147378,147345.604,147428.798,152407.693,152413.89999998,2023-04-04T16:32:54Z,152424.35,"c(""distractor1"", ""distractor2"", ""distractor3"")",Schatten,kivuli,d,NA,NA,NA,NA,NA,0,NA,NA,NA,NA,NA,NA,NA,NA,NA,NA,NA,NA,NA,NA,NA,NA,NA,NA,NA,NA
c506c,deep,flow.Sequence,1_1_0_0,NA,NA,completion,20330.919,132048.10000002,132043.586,132076.774,152407.693,152414.60000002,2023-04-04T16:32:54Z,152424.35,"c(""distractor1"", ""distractor2"", ""distractor3"")",Schatten,kivuli,d,NA,NA,NA,NA,NA,NA,NA,NA,NA,NA,NA,NA,NA,NA,NA,NA,NA,NA,NA,NA,NA,NA,NA,NA,NA,NA
c506c,shallow,flow.Sequence,1_1_0_1,NA,NA,skipped,NA,152414.80000007,NA,NA,152407.693,152415,2023-04-04T16:32:54Z,152424.35,"c(""distractor1"", ""distractor2"", ""distractor3"")",Schatten,kivuli,d,NA,NA,NA,NA,NA,NA,NA,NA,NA,NA,NA,NA,NA,NA,NA,NA,NA,NA,NA,NA,NA,NA,NA,NA,NA,NA
c506c,task,flow.Sequence,1_1_0,NA,NA,completion,20330.919,132048.10000002,132043.586,132076.774,152407.693,152415.39999998,2023-04-04T16:32:54Z,152424.35,"c(""distractor1"", ""distractor2"", ""distractor3"")",Schatten,kivuli,d,NA,NA,NA,NA,NA,NA,NA,NA,NA,NA,NA,NA,NA,NA,NA,NA,NA,NA,NA,NA,NA,NA,NA,NA,NA,NA
c506c,deep,flow.Sequence,1_1_1_0,NA,NA,skipped,NA,152415.70000005,NA,NA,152407.693,152415.89999998,2023-04-04T16:32:54Z,152424.35,"c(""distractor1"", ""distractor2"", ""distractor3"")",Kritik,lawama,s,dereva,nafasi,mawazo,NA,NA,NA,NA,NA,NA,NA,NA,NA,NA,NA,NA,NA,NA,NA,NA,NA,NA,NA,NA,NA,NA,NA
c506c,Shallow Question,html.Page,1_1_1_1_0,NA,NA,form submission,6194.3500000477,152416.30000007,152407.693,152424.35,158618.70000005,158619.30000007,2023-04-04T16:33:01Z,158638.491,"c(""distractor1"", ""distractor2"", ""distractor3"")",Kritik,lawama,s,dereva,nafasi,mawazo,lawama,NA,NA,NA,NA,NA,NA,NA,NA,NA,NA,NA,NA,NA,NA,NA,NA,NA,NA,NA,NA,NA,NA
c506c,"""Richtig""-Screen",canvas.Screen,1_1_1_1_1,NA,NA,timeout,4999.626,158627.39999998,158605.307,158638.491,163621.571,163623,2023-04-04T16:33:06Z,163638.117,"c(""distractor1"", ""distractor2"", ""distractor3"")",Kritik,lawama,s,dereva,nafasi,mawazo,NA,NA,1,NA,NA,NA,NA,NA,NA,NA,NA,NA,NA,NA,NA,NA,NA,NA,NA,NA,NA,NA,NA
c506c,"""Falsch""-Screen",canvas.Screen,1_1_1_1_2,NA,NA,skipped,NA,163630.30000007,NA,NA,163621.571,163630.89999998,2023-04-04T16:33:06Z,163638.117,"c(""distractor1"", ""distractor2"", ""distractor3"")",Kritik,lawama,s,dereva,nafasi,mawazo,NA,NA,NA,NA,NA,NA,NA,NA,NA,NA,NA,NA,NA,NA,NA,NA,NA,NA,NA,NA,NA,NA,NA
c506c,shallow,flow.Sequence,1_1_1_1,NA,NA,completion,11197.221,152416.10000002,152407.693,152424.35,163621.571,163631.70000005,2023-04-04T16:33:06Z,163638.117,"c(""distractor1"", ""distractor2"", ""distractor3"")",Kritik,lawama,s,dereva,nafasi,mawazo,NA,NA,NA,NA,NA,NA,NA,NA,NA,NA,NA,NA,NA,NA,NA,NA,NA,NA,NA,NA,NA,NA,NA
c506c,task,flow.Sequence,1_1_1,NA,NA,completion,11197.221,152415.60000002,152407.693,152424.35,163621.571,163632.10000002,2023-04-04T16:33:06Z,163638.117,"c(""distractor1"", ""distractor2"", ""distractor3"")",Kritik,lawama,s,dereva,nafasi,mawazo,NA,NA,NA,NA,NA,NA,NA,NA,NA,NA,NA,NA,NA,NA,NA,NA,NA,NA,NA,NA,NA,NA,NA
c506c,deep,flow.Sequence,1_1_2_0,NA,NA,skipped,NA,163632.5,NA,NA,163621.571,163632.70000005,2023-04-04T16:33:06Z,163638.117,"c(""distractor1"", ""distractor2"", ""distractor3"")",Gegenwart,hadhara,s,katiba,jokofu,mikopo,NA,NA,NA,NA,NA,NA,NA,NA,NA,NA,NA,NA,NA,NA,NA,NA,NA,NA,NA,NA,NA,NA,NA
c506c,Shallow Question,html.Page,1_1_2_1_0,NA,NA,form submission,4917.383,163633,163621.571,163638.117,168555.5,168556.20000005,2023-04-04T16:33:11Z,168581.193,"c(""distractor1"", ""distractor2"", ""distractor3"")",Gegenwart,hadhara,s,katiba,jokofu,mikopo,katiba,NA,NA,NA,NA,NA,NA,NA,NA,NA,NA,NA,NA,NA,NA,NA,NA,NA,NA,NA,NA,NA,NA
c506c,"""Richtig""-Screen",canvas.Screen,1_1_2_1_1,NA,NA,skipped,NA,168562.60000002,NA,NA,168555.5,168563.10000002,2023-04-04T16:33:11Z,168581.193,"c(""distractor1"", ""distractor2"", ""distractor3"")",Gegenwart,hadhara,s,katiba,jokofu,mikopo,NA,NA,NA,NA,NA,NA,NA,NA,NA,NA,NA,NA,NA,NA,NA,NA,NA,NA,NA,NA,NA,NA,NA
c506c,"""Falsch""-Screen",canvas.Screen,1_1_2_1_2,NA,NA,timeout,4995.033,168566.5,168564.511,168581.193,173559.7,173561,2023-04-04T16:33:16Z,173576.226,"c(""distractor1"", ""distractor2"", ""distractor3"")",Gegenwart,hadhara,s,katiba,jokofu,mikopo,NA,NA,0,NA,NA,NA,NA,NA,NA,NA,NA,NA,NA,NA,NA,NA,NA,NA,NA,NA,NA,NA,NA
c506c,shallow,flow.Sequence,1_1_2_1,NA,NA,completion,9921.583,163632.89999998,163621.571,163638.117,173559.7,173561.39999998,2023-04-04T16:33:16Z,173576.226,"c(""distractor1"", ""distractor2"", ""distractor3"")",Gegenwart,hadhara,s,katiba,jokofu,mikopo,NA,NA,NA,NA,NA,NA,NA,NA,NA,NA,NA,NA,NA,NA,NA,NA,NA,NA,NA,NA,NA,NA,NA
c506c,task,flow.Sequence,1_1_2,NA,NA,completion,9921.583,163632.30000007,163621.571,163638.117,173559.7,173561.70000005,2023-04-04T16:33:16Z,173576.226,"c(""distractor1"", ""distractor2"", ""distractor3"")",Gegenwart,hadhara,s,katiba,jokofu,mikopo,NA,NA,NA,NA,NA,NA,NA,NA,NA,NA,NA,NA,NA,NA,NA,NA,NA,NA,NA,NA,NA,NA,NA
c506c,Deep Question,html.Page,1_1_3_0_0,NA,NA,form submission,6276.9740000477,173562,173559.7,173576.226,179853.20000005,179853.70000005,2023-04-04T16:33:22Z,179870.966,"c(""distractor1"", ""distractor2"", ""distractor3"")",Qualität,mtindo,d,NA,NA,NA,ha,NA,NA,NA,NA,NA,NA,NA,NA,NA,NA,NA,NA,NA,NA,NA,NA,NA,NA,NA,NA,NA,NA
c506c,"""Richtig""-Screen",canvas.Screen,1_1_3_0_1,NA,NA,skipped,NA,179862.5,NA,NA,179853.20000005,179862.89999998,2023-04-04T16:33:22Z,179870.966,"c(""distractor1"", ""distractor2"", ""distractor3"")",Qualität,mtindo,d,NA,NA,NA,NA,NA,NA,NA,NA,NA,NA,NA,NA,NA,NA,NA,NA,NA,NA,NA,NA,NA,NA,NA,NA,NA,NA
c506c,"""Falsch""-Screen",canvas.Screen,1_1_3_0_2,NA,NA,timeout,5000.917,179865.60000002,179837.778,179870.966,184855.161,184856.5,2023-04-04T16:33:27Z,184871.883,"c(""distractor1"", ""distractor2"", ""distractor3"")",Qualität,mtindo,d,NA,NA,NA,NA,NA,0,NA,NA,NA,NA,NA,NA,NA,NA,NA,NA,NA,NA,NA,NA,NA,NA,NA,NA,NA,NA
c506c,deep,flow.Sequence,1_1_3_0,NA,NA,completion,11278.935,173562,173559.7,173576.226,184855.161,184857,2023-04-04T16:33:27Z,184871.883,"c(""distractor1"", ""distractor2"", ""distractor3"")",Qualität,mtindo,d,NA,NA,NA,NA,NA,NA,NA,NA,NA,NA,NA,NA,NA,NA,NA,NA,NA,NA,NA,NA,NA,NA,NA,NA,NA,NA
c506c,shallow,flow.Sequence,1_1_3_1,NA,NA,skipped,NA,184857.20000005,NA,NA,184855.161,184857.39999998,2023-04-04T16:33:27Z,184871.883,"c(""distractor1"", ""distractor2"", ""distractor3"")",Qualität,mtindo,d,NA,NA,NA,NA,NA,NA,NA,NA,NA,NA,NA,NA,NA,NA,NA,NA,NA,NA,NA,NA,NA,NA,NA,NA,NA,NA
c506c,task,flow.Sequence,1_1_3,NA,NA,completion,11278.935,173561.89999998,173559.7,173576.226,184855.161,184857.70000005,2023-04-04T16:33:27Z,184871.883,"c(""distractor1"", ""distractor2"", ""distractor3"")",Qualität,mtindo,d,NA,NA,NA,NA,NA,NA,NA,NA,NA,NA,NA,NA,NA,NA,NA,NA,NA,NA,NA,NA,NA,NA,NA,NA,NA,NA
c506c,deep,flow.Sequence,1_1_4_0,NA,NA,skipped,NA,184857.89999998,NA,NA,184855.161,184858,2023-04-04T16:33:27Z,184871.883,"c(""distractor1"", ""distractor2"", ""distractor3"")",Rückhalt,msaada,s,muhula,auwali,kiwimbe,NA,NA,NA,NA,NA,NA,NA,NA,NA,NA,NA,NA,NA,NA,NA,NA,NA,NA,NA,NA,NA,NA,NA
c506c,Shallow Question,html.Page,1_1_4_1_0,NA,NA,form submission,7216.5169999762,184858.30000007,184855.161,184871.883,192088.39999998,192089,2023-04-04T16:33:34Z,192090.648,"c(""distractor1"", ""distractor2"", ""distractor3"")",Rückhalt,msaada,s,muhula,auwali,kiwimbe,muhula,NA,NA,NA,NA,NA,NA,NA,NA,NA,NA,NA,NA,NA,NA,NA,NA,NA,NA,NA,NA,NA,NA
c506c,"""Richtig""-Screen",canvas.Screen,1_1_4_1_1,NA,NA,skipped,NA,192096.20000005,NA,NA,192088.39999998,192096.60000002,2023-04-04T16:33:34Z,192090.648,"c(""distractor1"", ""distractor2"", ""distractor3"")",Rückhalt,msaada,s,muhula,auwali,kiwimbe,NA,NA,NA,NA,NA,NA,NA,NA,NA,NA,NA,NA,NA,NA,NA,NA,NA,NA,NA,NA,NA,NA,NA
c506c,"""Falsch""-Screen",canvas.Screen,1_1_4_1_2,NA,NA,timeout,4993.786,192098.70000005,192079.331,192090.648,197067.734,197069.20000005,2023-04-04T16:33:39Z,197084.434,"c(""distractor1"", ""distractor2"", ""distractor3"")",Rückhalt,msaada,s,muhula,auwali,kiwimbe,NA,NA,0,NA,NA,NA,NA,NA,NA,NA,NA,NA,NA,NA,NA,NA,NA,NA,NA,NA,NA,NA,NA
c506c,shallow,flow.Sequence,1_1_4_1,NA,NA,completion,12195.851,184858.20000005,184855.161,184871.883,197067.734,197069.70000005,2023-04-04T16:33:39Z,197084.434,"c(""distractor1"", ""distractor2"", ""distractor3"")",Rückhalt,msaada,s,muhula,auwali,kiwimbe,NA,NA,NA,NA,NA,NA,NA,NA,NA,NA,NA,NA,NA,NA,NA,NA,NA,NA,NA,NA,NA,NA,NA
c506c,task,flow.Sequence,1_1_4,NA,NA,completion,12195.851,184857.89999998,184855.161,184871.883,197067.734,197070,2023-04-04T16:33:39Z,197084.434,"c(""distractor1"", ""distractor2"", ""distractor3"")",Rückhalt,msaada,s,muhula,auwali,kiwimbe,NA,NA,NA,NA,NA,NA,NA,NA,NA,NA,NA,NA,NA,NA,NA,NA,NA,NA,NA,NA,NA,NA,NA
c506c,Deep Question,html.Page,1_1_5_0_0,NA,NA,form submission,8014.6660000238,197070.30000007,197067.734,197084.434,205099.10000002,205099.60000002,2023-04-04T16:33:47Z,205101.61,"c(""distractor1"", ""distractor2"", ""distractor3"")",Gesundheit,salama,d,NA,NA,NA,mhu,NA,NA,NA,NA,NA,NA,NA,NA,NA,NA,NA,NA,NA,NA,NA,NA,NA,NA,NA,NA,NA,NA
c506c,"""Richtig""-Screen",canvas.Screen,1_1_5_0_1,NA,NA,skipped,NA,205108.70000005,NA,NA,205099.10000002,205109,2023-04-04T16:33:47Z,205101.61,"c(""distractor1"", ""distractor2"", ""distractor3"")",Gesundheit,salama,d,NA,NA,NA,NA,NA,NA,NA,NA,NA,NA,NA,NA,NA,NA,NA,NA,NA,NA,NA,NA,NA,NA,NA,NA,NA,NA
c506c,"""Falsch""-Screen",canvas.Screen,1_1_5_0_2,NA,NA,timeout,4991.866,205111,205082.079,205101.61,210076.96,210078.39999998,2023-04-04T16:33:52Z,210093.476,"c(""distractor1"", ""distractor2"", ""distractor3"")",Gesundheit,salama,d,NA,NA,NA,NA,NA,0,NA,NA,NA,NA,NA,NA,NA,NA,NA,NA,NA,NA,NA,NA,NA,NA,NA,NA,NA,NA
c506c,deep,flow.Sequence,1_1_5_0,NA,NA,completion,12992.526,197070.30000007,197067.734,197084.434,210076.96,210078.89999998,2023-04-04T16:33:52Z,210093.476,"c(""distractor1"", ""distractor2"", ""distractor3"")",Gesundheit,salama,d,NA,NA,NA,NA,NA,NA,NA,NA,NA,NA,NA,NA,NA,NA,NA,NA,NA,NA,NA,NA,NA,NA,NA,NA,NA,NA
c506c,shallow,flow.Sequence,1_1_5_1,NA,NA,skipped,NA,210079.10000002,NA,NA,210076.96,210079.30000007,2023-04-04T16:33:52Z,210093.476,"c(""distractor1"", ""distractor2"", ""distractor3"")",Gesundheit,salama,d,NA,NA,NA,NA,NA,NA,NA,NA,NA,NA,NA,NA,NA,NA,NA,NA,NA,NA,NA,NA,NA,NA,NA,NA,NA,NA
c506c,task,flow.Sequence,1_1_5,NA,NA,completion,12992.526,197070.20000005,197067.734,197084.434,210076.96,210079.60000002,2023-04-04T16:33:52Z,210093.476,"c(""distractor1"", ""distractor2"", ""distractor3"")",Gesundheit,salama,d,NA,NA,NA,NA,NA,NA,NA,NA,NA,NA,NA,NA,NA,NA,NA,NA,NA,NA,NA,NA,NA,NA,NA,NA,NA,NA
c506c,block,flow.Loop,1_1,NA,NA,completion,78000.186,132047.89999998,132043.586,132076.774,210076.96,210080.10000002,2023-04-04T16:33:52Z,210093.476,"c(""distractor1"", ""distractor2"", ""distractor3"")",NA,NA,NA,NA,NA,NA,NA,NA,NA,NA,NA,NA,NA,NA,NA,NA,NA,NA,NA,NA,NA,NA,NA,NA,NA,NA,NA,NA,NA
c506c,Practice,flow.Sequence,1,NA,NA,completion,85438.266,124623.5,124606.464,124638.694,210076.96,210080.39999998,2023-04-04T16:33:52Z,210093.476,NULL,NA,NA,NA,NA,NA,NA,NA,NA,NA,NA,NA,NA,NA,NA,NA,NA,NA,NA,NA,NA,NA,NA,NA,NA,NA,NA,NA,NA,NA
c506c,Experiment start,canvas.Screen,2,weiter,keypress(q),response,5753.7240000477,210080.60000002,210076.96,210093.476,215847.20000005,215851.10000002,2023-04-04T16:33:58Z,216070.37,NULL,NA,NA,NA,NA,NA,NA,NA,NA,NA,NA,NA,NA,NA,NA,NA,NA,NA,NA,NA,NA,NA,NA,NA,NA,NA,NA,NA,NA,NA
c506c,Deep Question,html.Page,3_0_0_0_0_0_0,NA,NA,form submission,9508.7300000238,216084,215843.681,216070.37,225579.10000002,225579.60000002,2023-04-04T16:34:08Z,225598.121,NULL,Lawine,banguko,d,NA,NA,NA,hamara,NA,NA,0,NA,NA,NA,NA,NA,NA,NA,NA,NA,NA,NA,NA,NA,NA,NA,NA,NA,NA,NA
c506c,"""Richtig""-Screen",canvas.Screen,3_0_0_0_0_0_1,NA,NA,skipped,NA,225587.70000005,NA,NA,225579.10000002,225588,2023-04-04T16:34:08Z,225598.121,NULL,Lawine,banguko,d,NA,NA,NA,NA,sdf,NA,0,NA,NA,NA,NA,NA,NA,NA,NA,NA,NA,NA,NA,NA,NA,NA,NA,NA,NA,NA
c506c,"""Falsch""-Screen",canvas.Screen,3_0_0_0_0_0_2,NA,NA,timeout,5008.293,225590,225574.172,225598.121,230589.675,230591,2023-04-04T16:34:13Z,230606.414,NULL,Lawine,banguko,d,NA,NA,NA,NA,sdf,0,0,NA,NA,NA,NA,NA,NA,NA,NA,NA,NA,NA,NA,NA,NA,NA,NA,NA,NA,NA
c506c,deep,flow.Sequence,3_0_0_0_0_0,NA,NA,completion,14519.305,216083.89999998,215843.681,216070.37,230589.675,230591.60000002,2023-04-04T16:34:13Z,230606.414,NULL,Lawine,banguko,d,NA,NA,NA,NA,sdf,NA,0,NA,NA,NA,NA,NA,NA,NA,NA,NA,NA,NA,NA,NA,NA,NA,NA,NA,NA,NA
c506c,shallow,flow.Sequence,3_0_0_0_0_1,NA,NA,skipped,NA,230591.70000005,NA,NA,230589.675,230591.89999998,2023-04-04T16:34:13Z,230606.414,NULL,Lawine,banguko,d,NA,NA,NA,NA,sdf,NA,0,NA,NA,NA,NA,NA,NA,NA,NA,NA,NA,NA,NA,NA,NA,NA,NA,NA,NA,NA
c506c,task,flow.Sequence,3_0_0_0_0,NA,NA,completion,14519.305,216083.89999998,215843.681,216070.37,230589.675,230592.20000005,2023-04-04T16:34:13Z,230606.414,NULL,Lawine,banguko,d,NA,NA,NA,NA,sdf,NA,0,NA,NA,NA,NA,NA,NA,NA,NA,NA,NA,NA,NA,NA,NA,NA,NA,NA,NA,NA
c506c,Deep Question,html.Page,3_0_0_0_1_0_0,NA,NA,form submission,8427.086,230592.39999998,230589.675,230606.414,239033.5,239033.89999998,2023-04-04T16:34:21Z,239035.906,NULL,Niveau,kiwango,d,NA,NA,NA,masahra,NA,NA,0,NA,NA,NA,NA,NA,NA,NA,NA,NA,NA,NA,NA,NA,NA,NA,NA,NA,NA,NA
c506c,"""Richtig""-Screen",canvas.Screen,3_0_0_0_1_0_1,NA,NA,skipped,NA,239042.10000002,NA,NA,239033.5,239042.39999998,2023-04-04T16:34:21Z,239035.906,NULL,Niveau,kiwango,d,NA,NA,NA,NA,sdf,NA,0,NA,NA,NA,NA,NA,NA,NA,NA,NA,NA,NA,NA,NA,NA,NA,NA,NA,NA,NA
c506c,"""Falsch""-Screen",canvas.Screen,3_0_0_0_1_0_2,NA,NA,timeout,5000.311,239044.39999998,239029.752,239035.906,244019.594,244020.89999998,2023-04-04T16:34:26Z,244036.217,NULL,Niveau,kiwango,d,NA,NA,NA,NA,sdf,0,0,NA,NA,NA,NA,NA,NA,NA,NA,NA,NA,NA,NA,NA,NA,NA,NA,NA,NA,NA
c506c,deep,flow.Sequence,3_0_0_0_1_0,NA,NA,completion,13413.18,230592.39999998,230589.675,230606.414,244019.594,244021.60000002,2023-04-04T16:34:26Z,244036.217,NULL,Niveau,kiwango,d,NA,NA,NA,NA,sdf,NA,0,NA,NA,NA,NA,NA,NA,NA,NA,NA,NA,NA,NA,NA,NA,NA,NA,NA,NA,NA
c506c,shallow,flow.Sequence,3_0_0_0_1_1,NA,NA,skipped,NA,244021.89999998,NA,NA,244019.594,244022.10000002,2023-04-04T16:34:26Z,244036.217,NULL,Niveau,kiwango,d,NA,NA,NA,NA,sdf,NA,0,NA,NA,NA,NA,NA,NA,NA,NA,NA,NA,NA,NA,NA,NA,NA,NA,NA,NA,NA
c506c,task,flow.Sequence,3_0_0_0_1,NA,NA,completion,13413.18,230592.30000007,230589.675,230606.414,244019.594,244022.30000007,2023-04-04T16:34:26Z,244036.217,NULL,Niveau,kiwango,d,NA,NA,NA,NA,sdf,NA,0,NA,NA,NA,NA,NA,NA,NA,NA,NA,NA,NA,NA,NA,NA,NA,NA,NA,NA,NA
c506c,Deep Question,html.Page,3_0_0_0_2_0_0,NA,NA,form submission,14154.383000024,244022.60000002,244019.594,244036.217,258190.60000002,258191.20000005,2023-04-04T16:34:40Z,258209.578,NULL,Papier,karatasi,d,NA,NA,NA,humadi,NA,NA,0,NA,NA,NA,NA,NA,NA,NA,NA,NA,NA,NA,NA,NA,NA,NA,NA,NA,NA,NA
c506c,"""Richtig""-Screen",canvas.Screen,3_0_0_0_2_0_1,NA,NA,skipped,NA,258201.30000007,NA,NA,258190.60000002,258201.80000007,2023-04-04T16:34:40Z,258209.578,NULL,Papier,karatasi,d,NA,NA,NA,NA,sdf,NA,0,NA,NA,NA,NA,NA,NA,NA,NA,NA,NA,NA,NA,NA,NA,NA,NA,NA,NA,NA
c506c,"""Falsch""-Screen",canvas.Screen,3_0_0_0_2_0_2,NA,NA,timeout,4997.551,258205,258181.626,258209.578,263190.463,263191.60000002,2023-04-04T16:34:45Z,263207.129,NULL,Papier,karatasi,d,NA,NA,NA,NA,sdf,0,0,NA,NA,NA,NA,NA,NA,NA,NA,NA,NA,NA,NA,NA,NA,NA,NA,NA,NA,NA
c506c,deep,flow.Sequence,3_0_0_0_2_0,NA,NA,completion,19154.246,244022.60000002,244019.594,244036.217,263190.463,263192.10000002,2023-04-04T16:34:45Z,263207.129,NULL,Papier,karatasi,d,NA,NA,NA,NA,sdf,NA,0,NA,NA,NA,NA,NA,NA,NA,NA,NA,NA,NA,NA,NA,NA,NA,NA,NA,NA,NA
c506c,shallow,flow.Sequence,3_0_0_0_2_1,NA,NA,skipped,NA,263192.30000007,NA,NA,263190.463,263192.39999998,2023-04-04T16:34:45Z,263207.129,NULL,Papier,karatasi,d,NA,NA,NA,NA,sdf,NA,0,NA,NA,NA,NA,NA,NA,NA,NA,NA,NA,NA,NA,NA,NA,NA,NA,NA,NA,NA
c506c,task,flow.Sequence,3_0_0_0_2,NA,NA,completion,19154.246,244022.5,244019.594,244036.217,263190.463,263192.80000007,2023-04-04T16:34:45Z,263207.129,NULL,Papier,karatasi,d,NA,NA,NA,NA,sdf,NA,0,NA,NA,NA,NA,NA,NA,NA,NA,NA,NA,NA,NA,NA,NA,NA,NA,NA,NA,NA
c506c,deep,flow.Sequence,3_0_0_0_3_0,NA,NA,skipped,NA,263193,NA,NA,263190.463,263193.10000002,2023-04-04T16:34:45Z,263207.129,NULL,Körper,kiwiliwili,s,mapambano,mpatanishi,kiolezo,NA,sdf,NA,0,NA,NA,NA,NA,NA,NA,NA,NA,NA,NA,NA,NA,NA,NA,NA,NA,NA,NA,NA
c506c,Shallow Question,html.Page,3_0_0_0_3_1_0,NA,NA,form submission,8168.2709999761,263193.30000007,263190.463,263207.129,271375.39999998,271375.89999998,2023-04-04T16:34:53Z,271411.332,NULL,Körper,kiwiliwili,s,mapambano,mpatanishi,kiolezo,kiwiliwili,NA,NA,0,NA,NA,NA,NA,NA,NA,NA,NA,NA,NA,NA,NA,NA,NA,NA,NA,NA,NA,NA
c506c,"""Richtig""-Screen",canvas.Screen,3_0_0_0_3_1_1,NA,NA,timeout,4997.998,271383.70000005,271361.687,271411.332,276392.755,276394.10000002,2023-04-04T16:34:58Z,276409.33,NULL,Körper,kiwiliwili,s,mapambano,mpatanishi,kiolezo,NA,sdf,1,0,NA,NA,NA,NA,NA,NA,NA,NA,NA,NA,NA,NA,NA,NA,NA,NA,NA,NA,NA
c506c,"""Falsch""-Screen",canvas.Screen,3_0_0_0_3_1_2,NA,NA,skipped,NA,276401.39999998,NA,NA,276392.755,276401.80000007,2023-04-04T16:34:58Z,276409.33,NULL,Körper,kiwiliwili,s,mapambano,mpatanishi,kiolezo,NA,sdf,NA,0,NA,NA,NA,NA,NA,NA,NA,NA,NA,NA,NA,NA,NA,NA,NA,NA,NA,NA,NA
c506c,shallow,flow.Sequence,3_0_0_0_3_1,NA,NA,completion,13185.626,263193.20000005,263190.463,263207.129,276392.755,276402.30000007,2023-04-04T16:34:58Z,276409.33,NULL,Körper,kiwiliwili,s,mapambano,mpatanishi,kiolezo,NA,sdf,NA,0,NA,NA,NA,NA,NA,NA,NA,NA,NA,NA,NA,NA,NA,NA,NA,NA,NA,NA,NA
c506c,task,flow.Sequence,3_0_0_0_3,NA,NA,completion,13185.626,263192.89999998,263190.463,263207.129,276392.755,276402.60000002,2023-04-04T16:34:58Z,276409.33,NULL,Körper,kiwiliwili,s,mapambano,mpatanishi,kiolezo,NA,sdf,NA,0,NA,NA,NA,NA,NA,NA,NA,NA,NA,NA,NA,NA,NA,NA,NA,NA,NA,NA,NA
c506c,deep,flow.Sequence,3_0_0_0_4_0,NA,NA,skipped,NA,276403,NA,NA,276392.755,276403.20000005,2023-04-04T16:34:58Z,276409.33,NULL,Vorwurf,mashtaka,s,msukumo,mtangulizi,uenyekiti,NA,sdf,NA,0,NA,NA,NA,NA,NA,NA,NA,NA,NA,NA,NA,NA,NA,NA,NA,NA,NA,NA,NA
c506c,Shallow Question,html.Page,3_0_0_0_4_1_0,NA,NA,form submission,7271.2700000238,276403.5,276392.755,276409.33,283680.60000002,283681,2023-04-04T16:35:06Z,283699.757,NULL,Vorwurf,mashtaka,s,msukumo,mtangulizi,uenyekiti,mtangulizi,NA,NA,0,NA,NA,NA,NA,NA,NA,NA,NA,NA,NA,NA,NA,NA,NA,NA,NA,NA,NA,NA
c506c,"""Richtig""-Screen",canvas.Screen,3_0_0_0_4_1_1,NA,NA,skipped,NA,283688.10000002,NA,NA,283680.60000002,283688.5,2023-04-04T16:35:06Z,283699.757,NULL,Vorwurf,mashtaka,s,msukumo,mtangulizi,uenyekiti,NA,sdf,NA,0,NA,NA,NA,NA,NA,NA,NA,NA,NA,NA,NA,NA,NA,NA,NA,NA,NA,NA,NA
c506c,"""Falsch""-Screen",canvas.Screen,3_0_0_0_4_1_2,NA,NA,timeout,4994.895,283690.80000007,283667.944,283699.757,288677.941,288679.10000002,2023-04-04T16:35:11Z,288694.652,NULL,Vorwurf,mashtaka,s,msukumo,mtangulizi,uenyekiti,NA,sdf,0,0,NA,NA,NA,NA,NA,NA,NA,NA,NA,NA,NA,NA,NA,NA,NA,NA,NA,NA,NA
c506c,shallow,flow.Sequence,3_0_0_0_4_1,NA,NA,completion,12268.611,276403.39999998,276392.755,276409.33,288677.941,288679.60000002,2023-04-04T16:35:11Z,288694.652,NULL,Vorwurf,mashtaka,s,msukumo,mtangulizi,uenyekiti,NA,sdf,NA,0,NA,NA,NA,NA,NA,NA,NA,NA,NA,NA,NA,NA,NA,NA,NA,NA,NA,NA,NA
c506c,task,flow.Sequence,3_0_0_0_4,NA,NA,completion,12268.611,276402.89999998,276392.755,276409.33,288677.941,288680,2023-04-04T16:35:11Z,288694.652,NULL,Vorwurf,mashtaka,s,msukumo,mtangulizi,uenyekiti,NA,sdf,NA,0,NA,NA,NA,NA,NA,NA,NA,NA,NA,NA,NA,NA,NA,NA,NA,NA,NA,NA,NA
c506c,deep,flow.Sequence,3_0_0_0_5_0,NA,NA,skipped,NA,288680.20000005,NA,NA,288677.941,288680.30000007,2023-04-04T16:35:11Z,288694.652,NULL,Übersicht,kilindo,s,mgusano,chipukizi,kulinganisha,NA,sdf,NA,0,NA,NA,NA,NA,NA,NA,NA,NA,NA,NA,NA,NA,NA,NA,NA,NA,NA,NA,NA
c506c,Shallow Question,html.Page,3_0_0_0_5_1_0,NA,NA,form submission,6282.7479999762,288680.60000002,288677.941,288694.652,294977.39999998,294977.80000007,2023-04-04T16:35:17Z,294978.972,NULL,Übersicht,kilindo,s,mgusano,chipukizi,kulinganisha,mgusano,NA,NA,0,NA,NA,NA,NA,NA,NA,NA,NA,NA,NA,NA,NA,NA,NA,NA,NA,NA,NA,NA
c506c,"""Richtig""-Screen",canvas.Screen,3_0_0_0_5_1_1,NA,NA,skipped,NA,294985.80000007,NA,NA,294977.39999998,294986.20000005,2023-04-04T16:35:17Z,294978.972,NULL,Übersicht,kilindo,s,mgusano,chipukizi,kulinganisha,NA,sdf,NA,0,NA,NA,NA,NA,NA,NA,NA,NA,NA,NA,NA,NA,NA,NA,NA,NA,NA,NA,NA
c506c,"""Falsch""-Screen",canvas.Screen,3_0_0_0_5_1_2,NA,NA,timeout,4999.985,294988.10000002,294960.057,294978.972,299962.248,299963.5,2023-04-04T16:35:22Z,299978.957,NULL,Übersicht,kilindo,s,mgusano,chipukizi,kulinganisha,NA,sdf,0,0,NA,NA,NA,NA,NA,NA,NA,NA,NA,NA,NA,NA,NA,NA,NA,NA,NA,NA,NA
c506c,shallow,flow.Sequence,3_0_0_0_5_1,NA,NA,completion,11267.596,288680.5,288677.941,288694.652,299962.248,299964.30000007,2023-04-04T16:35:22Z,299978.957,NULL,Übersicht,kilindo,s,mgusano,chipukizi,kulinganisha,NA,sdf,NA,0,NA,NA,NA,NA,NA,NA,NA,NA,NA,NA,NA,NA,NA,NA,NA,NA,NA,NA,NA
c506c,task,flow.Sequence,3_0_0_0_5,NA,NA,completion,11267.596,288680.10000002,288677.941,288694.652,299962.248,299964.5,2023-04-04T16:35:22Z,299978.957,NULL,Übersicht,kilindo,s,mgusano,chipukizi,kulinganisha,NA,sdf,NA,0,NA,NA,NA,NA,NA,NA,NA,NA,NA,NA,NA,NA,NA,NA,NA,NA,NA,NA,NA
c506c,deep,flow.Sequence,3_0_0_0_6_0,NA,NA,skipped,NA,299964.70000005,NA,NA,299962.248,299965,2023-04-04T16:35:22Z,299978.957,NULL,Entwicklung,maendeleo,s,uangavu,mshindwa,badiliko,NA,sdf,NA,0,NA,NA,NA,NA,NA,NA,NA,NA,NA,NA,NA,NA,NA,NA,NA,NA,NA,NA,NA
c506c,Shallow Question,html.Page,3_0_0_0_6_1_0,NA,NA,form submission,6288.9429999762,299965.20000005,299962.248,299978.957,306267.89999998,306268.39999998,2023-04-04T16:35:28Z,306270.268,NULL,Entwicklung,maendeleo,s,uangavu,mshindwa,badiliko,uangavu,NA,NA,0,NA,NA,NA,NA,NA,NA,NA,NA,NA,NA,NA,NA,NA,NA,NA,NA,NA,NA,NA
c506c,"""Richtig""-Screen",canvas.Screen,3_0_0_0_6_1_1,NA,NA,skipped,NA,306275.5,NA,NA,306267.89999998,306275.89999998,2023-04-04T16:35:28Z,306270.268,NULL,Entwicklung,maendeleo,s,uangavu,mshindwa,badiliko,NA,sdf,NA,0,NA,NA,NA,NA,NA,NA,NA,NA,NA,NA,NA,NA,NA,NA,NA,NA,NA,NA,NA
c506c,"""Falsch""-Screen",canvas.Screen,3_0_0_0_6_1_2,NA,NA,timeout,4996.289,306278,306262.81,306270.268,311249.902,311251.30000007,2023-04-04T16:35:33Z,311266.557,NULL,Entwicklung,maendeleo,s,uangavu,mshindwa,badiliko,NA,sdf,0,0,NA,NA,NA,NA,NA,NA,NA,NA,NA,NA,NA,NA,NA,NA,NA,NA,NA,NA,NA
c506c,shallow,flow.Sequence,3_0_0_0_6_1,NA,NA,completion,11270.945,299965.10000002,299962.248,299978.957,311249.902,311251.89999998,2023-04-04T16:35:33Z,311266.557,NULL,Entwicklung,maendeleo,s,uangavu,mshindwa,badiliko,NA,sdf,NA,0,NA,NA,NA,NA,NA,NA,NA,NA,NA,NA,NA,NA,NA,NA,NA,NA,NA,NA,NA
c506c,task,flow.Sequence,3_0_0_0_6,NA,NA,completion,11270.945,299964.70000005,299962.248,299978.957,311249.902,311252.20000005,2023-04-04T16:35:33Z,311266.557,NULL,Entwicklung,maendeleo,s,uangavu,mshindwa,badiliko,NA,sdf,NA,0,NA,NA,NA,NA,NA,NA,NA,NA,NA,NA,NA,NA,NA,NA,NA,NA,NA,NA,NA
c506c,Deep Question,html.Page,3_0_0_0_7_0_0,NA,NA,form submission,5434.6430000477,311252.39999998,311249.902,311266.557,316701.20000005,316701.80000007,2023-04-04T16:35:39Z,316720.336,NULL,System,maongozi,d,NA,NA,NA,koli,NA,NA,0,NA,NA,NA,NA,NA,NA,NA,NA,NA,NA,NA,NA,NA,NA,NA,NA,NA,NA,NA
c506c,"""Richtig""-Screen",canvas.Screen,3_0_0_0_7_0_1,NA,NA,skipped,NA,316711.5,NA,NA,316701.20000005,316711.89999998,2023-04-04T16:35:39Z,316720.336,NULL,System,maongozi,d,NA,NA,NA,NA,sdf,NA,0,NA,NA,NA,NA,NA,NA,NA,NA,NA,NA,NA,NA,NA,NA,NA,NA,NA,NA,NA
c506c,"""Falsch""-Screen",canvas.Screen,3_0_0_0_7_0_2,NA,NA,timeout,4999.156,316714.89999998,316696.131,316720.336,321702.935,321704.20000005,2023-04-04T16:35:44Z,321719.492,NULL,System,maongozi,d,NA,NA,NA,NA,sdf,0,0,NA,NA,NA,NA,NA,NA,NA,NA,NA,NA,NA,NA,NA,NA,NA,NA,NA,NA,NA
c506c,deep,flow.Sequence,3_0_0_0_7_0,NA,NA,completion,10436.378,311252.39999998,311249.902,311266.557,321702.935,321704.80000007,2023-04-04T16:35:44Z,321719.492,NULL,System,maongozi,d,NA,NA,NA,NA,sdf,NA,0,NA,NA,NA,NA,NA,NA,NA,NA,NA,NA,NA,NA,NA,NA,NA,NA,NA,NA,NA
c506c,shallow,flow.Sequence,3_0_0_0_7_1,NA,NA,skipped,NA,321704.89999998,NA,NA,321702.935,321705.20000005,2023-04-04T16:35:44Z,321719.492,NULL,System,maongozi,d,NA,NA,NA,NA,sdf,NA,0,NA,NA,NA,NA,NA,NA,NA,NA,NA,NA,NA,NA,NA,NA,NA,NA,NA,NA,NA
c506c,task,flow.Sequence,3_0_0_0_7,NA,NA,completion,10436.378,311252.30000007,311249.902,311266.557,321702.935,321705.39999998,2023-04-04T16:35:44Z,321719.492,NULL,System,maongozi,d,NA,NA,NA,NA,sdf,NA,0,NA,NA,NA,NA,NA,NA,NA,NA,NA,NA,NA,NA,NA,NA,NA,NA,NA,NA,NA
c506c,block,flow.Loop,3_0_0_0,NA,NA,completion,105632.565,216083.80000007,215843.681,216070.37,321702.935,321705.80000007,2023-04-04T16:35:44Z,321719.492,NULL,NA,NA,NA,NA,NA,NA,NA,sdf,NA,0,NA,NA,NA,NA,NA,NA,NA,NA,NA,NA,NA,NA,NA,NA,NA,NA,NA,NA,NA
c506c,weiter,canvas.Screen,3_0_0_1,sdf,keypress(Space),response,1101.8080000715,321705.80000007,321702.935,321719.492,322821.30000007,322828,2023-04-04T16:35:45Z,322944.875,NULL,NA,NA,NA,NA,NA,NA,NA,sdf,NA,0,NA,NA,NA,NA,NA,NA,NA,NA,NA,NA,NA,NA,NA,NA,NA,NA,NA,NA,NA
c506c,check continue,flow.Sequence,3_0_0,NA,NA,completion,106750.93000007,216083.80000007,215843.681,216070.37,322821.30000007,322828.80000007,2023-04-04T16:35:45Z,322944.875,NULL,NA,NA,NA,NA,NA,NA,NA,sdf,NA,0,NA,NA,NA,NA,NA,NA,NA,NA,NA,NA,NA,NA,NA,NA,NA,NA,NA,NA,NA
c506c,Deep Question,html.Page,3_0_1_0_0_0_0,NA,NA,form submission,7882.2250000238,322954.39999998,322819.826,322944.875,330827.10000002,330827.60000002,2023-04-04T16:35:53Z,330829.59,NULL,Papier,karatasi,d,NA,NA,NA,kartasi,NA,NA,1,NA,NA,NA,NA,NA,NA,NA,NA,NA,NA,NA,NA,NA,NA,NA,NA,NA,NA,NA
c506c,"""Richtig""-Screen",canvas.Screen,3_0_1_0_0_0_1,NA,NA,skipped,NA,330835.60000002,NA,NA,330827.10000002,330835.89999998,2023-04-04T16:35:53Z,330829.59,NULL,Papier,karatasi,d,NA,NA,NA,NA,sdfdsf,NA,1,NA,NA,NA,NA,NA,NA,NA,NA,NA,NA,NA,NA,NA,NA,NA,NA,NA,NA,NA
c506c,"""Falsch""-Screen",canvas.Screen,3_0_1_0_0_0_2,NA,NA,timeout,4994.3799999999,330838,330825.095,330829.59,335807.34,335809,2023-04-04T16:35:58Z,335823.97,NULL,Papier,karatasi,d,NA,NA,NA,NA,sdfdsf,0,1,NA,NA,NA,NA,NA,NA,NA,NA,NA,NA,NA,NA,NA,NA,NA,NA,NA,NA,NA
c506c,deep,flow.Sequence,3_0_1_0_0_0,NA,NA,completion,12862.465,322954.30000007,322819.826,322944.875,335807.34,335809.5,2023-04-04T16:35:58Z,335823.97,NULL,Papier,karatasi,d,NA,NA,NA,NA,sdfdsf,NA,1,NA,NA,NA,NA,NA,NA,NA,NA,NA,NA,NA,NA,NA,NA,NA,NA,NA,NA,NA
c506c,shallow,flow.Sequence,3_0_1_0_0_1,NA,NA,skipped,NA,335809.70000005,NA,NA,335807.34,335809.89999998,2023-04-04T16:35:58Z,335823.97,NULL,Papier,karatasi,d,NA,NA,NA,NA,sdfdsf,NA,1,NA,NA,NA,NA,NA,NA,NA,NA,NA,NA,NA,NA,NA,NA,NA,NA,NA,NA,NA
c506c,task,flow.Sequence,3_0_1_0_0,NA,NA,completion,12862.465,322954.30000007,322819.826,322944.875,335807.34,335810.10000002,2023-04-04T16:35:58Z,335823.97,NULL,Papier,karatasi,d,NA,NA,NA,NA,sdfdsf,NA,1,NA,NA,NA,NA,NA,NA,NA,NA,NA,NA,NA,NA,NA,NA,NA,NA,NA,NA,NA
c506c,deep,flow.Sequence,3_0_1_0_1_0,NA,NA,skipped,NA,335810.30000007,NA,NA,335807.34,335810.5,2023-04-04T16:35:58Z,335823.97,NULL,Vorwurf,mashtaka,s,msukumo,mtangulizi,uenyekiti,NA,sdfdsf,NA,1,NA,NA,NA,NA,NA,NA,NA,NA,NA,NA,NA,NA,NA,NA,NA,NA,NA,NA,NA
c506c,Shallow Question,html.Page,3_0_1_0_1_1_0,NA,NA,form submission,11815.730000048,335810.70000005,335807.34,335823.97,347639.70000005,347640.20000005,2023-04-04T16:36:10Z,347641.984,NULL,Vorwurf,mashtaka,s,msukumo,mtangulizi,uenyekiti,msukumo,NA,NA,1,NA,NA,NA,NA,NA,NA,NA,NA,NA,NA,NA,NA,NA,NA,NA,NA,NA,NA,NA
c506c,"""Richtig""-Screen",canvas.Screen,3_0_1_0_1_1_1,NA,NA,skipped,NA,347648.60000002,NA,NA,347639.70000005,347649,2023-04-04T16:36:10Z,347641.984,NULL,Vorwurf,mashtaka,s,msukumo,mtangulizi,uenyekiti,NA,sdfdsf,NA,1,NA,NA,NA,NA,NA,NA,NA,NA,NA,NA,NA,NA,NA,NA,NA,NA,NA,NA,NA
c506c,"""Falsch""-Screen",canvas.Screen,3_0_1_0_1_1_2,NA,NA,timeout,5003.054,347651.39999998,347629.11,347641.984,352628.492,352629.89999998,2023-04-04T16:36:15Z,352645.038,NULL,Vorwurf,mashtaka,s,msukumo,mtangulizi,uenyekiti,NA,sdfdsf,0,1,NA,NA,NA,NA,NA,NA,NA,NA,NA,NA,NA,NA,NA,NA,NA,NA,NA,NA,NA
c506c,shallow,flow.Sequence,3_0_1_0_1_1,NA,NA,completion,16804.522,335810.60000002,335807.34,335823.97,352628.492,352630.30000007,2023-04-04T16:36:15Z,352645.038,NULL,Vorwurf,mashtaka,s,msukumo,mtangulizi,uenyekiti,NA,sdfdsf,NA,1,NA,NA,NA,NA,NA,NA,NA,NA,NA,NA,NA,NA,NA,NA,NA,NA,NA,NA,NA
c506c,task,flow.Sequence,3_0_1_0_1,NA,NA,completion,16804.522,335810.30000007,335807.34,335823.97,352628.492,352630.60000002,2023-04-04T16:36:15Z,352645.038,NULL,Vorwurf,mashtaka,s,msukumo,mtangulizi,uenyekiti,NA,sdfdsf,NA,1,NA,NA,NA,NA,NA,NA,NA,NA,NA,NA,NA,NA,NA,NA,NA,NA,NA,NA,NA
c506c,Deep Question,html.Page,3_0_1_0_2_0_0,NA,NA,form submission,8331.462,352631.20000005,352628.492,352645.038,360976.5,360977,2023-04-04T16:36:23Z,360979.048,NULL,Lawine,banguko,d,NA,NA,NA,kuvi,NA,NA,1,NA,NA,NA,NA,NA,NA,NA,NA,NA,NA,NA,NA,NA,NA,NA,NA,NA,NA,NA
c506c,"""Richtig""-Screen",canvas.Screen,3_0_1_0_2_0_1,NA,NA,skipped,NA,360986.39999998,NA,NA,360976.5,360986.89999998,2023-04-04T16:36:23Z,360979.048,NULL,Lawine,banguko,d,NA,NA,NA,NA,sdfdsf,NA,1,NA,NA,NA,NA,NA,NA,NA,NA,NA,NA,NA,NA,NA,NA,NA,NA,NA,NA,NA
c506c,"""Falsch""-Screen",canvas.Screen,3_0_1_0_2_0_2,NA,NA,timeout,4994.066,360990,360963.271,360979.048,365956.609,365957.89999998,2023-04-04T16:36:28Z,365973.114,NULL,Lawine,banguko,d,NA,NA,NA,NA,sdfdsf,0,1,NA,NA,NA,NA,NA,NA,NA,NA,NA,NA,NA,NA,NA,NA,NA,NA,NA,NA,NA
c506c,deep,flow.Sequence,3_0_1_0_2_0,NA,NA,completion,13311.571,352631.10000002,352628.492,352645.038,365956.609,365958.39999998,2023-04-04T16:36:28Z,365973.114,NULL,Lawine,banguko,d,NA,NA,NA,NA,sdfdsf,NA,1,NA,NA,NA,NA,NA,NA,NA,NA,NA,NA,NA,NA,NA,NA,NA,NA,NA,NA,NA
c506c,shallow,flow.Sequence,3_0_1_0_2_1,NA,NA,skipped,NA,365958.60000002,NA,NA,365956.609,365958.80000007,2023-04-04T16:36:28Z,365973.114,NULL,Lawine,banguko,d,NA,NA,NA,NA,sdfdsf,NA,1,NA,NA,NA,NA,NA,NA,NA,NA,NA,NA,NA,NA,NA,NA,NA,NA,NA,NA,NA
c506c,task,flow.Sequence,3_0_1_0_2,NA,NA,completion,13311.571,352631,352628.492,352645.038,365956.609,365959.10000002,2023-04-04T16:36:28Z,365973.114,NULL,Lawine,banguko,d,NA,NA,NA,NA,sdfdsf,NA,1,NA,NA,NA,NA,NA,NA,NA,NA,NA,NA,NA,NA,NA,NA,NA,NA,NA,NA,NA
c506c,Deep Question,html.Page,3_0_1_0_3_0_0,NA,NA,form submission,7988.2859999762,365959.30000007,365956.609,365973.114,373961.39999998,373962,2023-04-04T16:36:36Z,373963.735,NULL,System,maongozi,d,NA,NA,NA,maendeleo,NA,NA,1,NA,NA,NA,NA,NA,NA,NA,NA,NA,NA,NA,NA,NA,NA,NA,NA,NA,NA,NA
c506c,"""Richtig""-Screen",canvas.Screen,3_0_1_0_3_0_1,NA,NA,skipped,NA,373970.70000005,NA,NA,373961.39999998,373971,2023-04-04T16:36:36Z,373963.735,NULL,System,maongozi,d,NA,NA,NA,NA,sdfdsf,NA,1,NA,NA,NA,NA,NA,NA,NA,NA,NA,NA,NA,NA,NA,NA,NA,NA,NA,NA,NA
c506c,"""Falsch""-Screen",canvas.Screen,3_0_1_0_3_0_2,NA,NA,timeout,4998.378,373973.10000002,373958.828,373963.735,378945.514,378946.70000005,2023-04-04T16:36:41Z,378962.113,NULL,System,maongozi,d,NA,NA,NA,NA,sdfdsf,0,1,NA,NA,NA,NA,NA,NA,NA,NA,NA,NA,NA,NA,NA,NA,NA,NA,NA,NA,NA
c506c,deep,flow.Sequence,3_0_1_0_3_0,NA,NA,completion,12972.4,365959.30000007,365956.609,365973.114,378945.514,378947.20000005,2023-04-04T16:36:41Z,378962.113,NULL,System,maongozi,d,NA,NA,NA,NA,sdfdsf,NA,1,NA,NA,NA,NA,NA,NA,NA,NA,NA,NA,NA,NA,NA,NA,NA,NA,NA,NA,NA
c506c,shallow,flow.Sequence,3_0_1_0_3_1,NA,NA,skipped,NA,378947.39999998,NA,NA,378945.514,378947.70000005,2023-04-04T16:36:41Z,378962.113,NULL,System,maongozi,d,NA,NA,NA,NA,sdfdsf,NA,1,NA,NA,NA,NA,NA,NA,NA,NA,NA,NA,NA,NA,NA,NA,NA,NA,NA,NA,NA
c506c,task,flow.Sequence,3_0_1_0_3,NA,NA,completion,12972.4,365959.30000007,365956.609,365973.114,378945.514,378947.89999998,2023-04-04T16:36:41Z,378962.113,NULL,System,maongozi,d,NA,NA,NA,NA,sdfdsf,NA,1,NA,NA,NA,NA,NA,NA,NA,NA,NA,NA,NA,NA,NA,NA,NA,NA,NA,NA,NA
c506c,deep,flow.Sequence,3_0_1_0_4_0,NA,NA,skipped,NA,378948.10000002,NA,NA,378945.514,378948.20000005,2023-04-04T16:36:41Z,378962.113,NULL,Entwicklung,maendeleo,s,uangavu,mshindwa,badiliko,NA,sdfdsf,NA,1,NA,NA,NA,NA,NA,NA,NA,NA,NA,NA,NA,NA,NA,NA,NA,NA,NA,NA,NA
c506c,Shallow Question,html.Page,3_0_1_0_4_1_0,NA,NA,form submission,9428.7869999761,378948.5,378945.514,378962.113,388390.89999998,388391.39999998,2023-04-04T16:36:50Z,388393.042,NULL,Entwicklung,maendeleo,s,uangavu,mshindwa,badiliko,mshindwa,NA,NA,1,NA,NA,NA,NA,NA,NA,NA,NA,NA,NA,NA,NA,NA,NA,NA,NA,NA,NA,NA
c506c,"""Richtig""-Screen",canvas.Screen,3_0_1_0_4_1_1,NA,NA,skipped,NA,388399,NA,NA,388390.89999998,388399.39999998,2023-04-04T16:36:50Z,388393.042,NULL,Entwicklung,maendeleo,s,uangavu,mshindwa,badiliko,NA,sdfdsf,NA,1,NA,NA,NA,NA,NA,NA,NA,NA,NA,NA,NA,NA,NA,NA,NA,NA,NA,NA,NA
c506c,"""Falsch""-Screen",canvas.Screen,3_0_1_0_4_1_2,NA,NA,timeout,5004.372,388401.30000007,388387.49,388393.042,393380.758,393382.20000005,2023-04-04T16:36:55Z,393397.414,NULL,Entwicklung,maendeleo,s,uangavu,mshindwa,badiliko,NA,sdfdsf,0,1,NA,NA,NA,NA,NA,NA,NA,NA,NA,NA,NA,NA,NA,NA,NA,NA,NA,NA,NA
c506c,shallow,flow.Sequence,3_0_1_0_4_1,NA,NA,completion,14418.645,378948.39999998,378945.514,378962.113,393380.758,393382.60000002,2023-04-04T16:36:55Z,393397.414,NULL,Entwicklung,maendeleo,s,uangavu,mshindwa,badiliko,NA,sdfdsf,NA,1,NA,NA,NA,NA,NA,NA,NA,NA,NA,NA,NA,NA,NA,NA,NA,NA,NA,NA,NA
c506c,task,flow.Sequence,3_0_1_0_4,NA,NA,completion,14418.645,378948,378945.514,378962.113,393380.758,393382.89999998,2023-04-04T16:36:55Z,393397.414,NULL,Entwicklung,maendeleo,s,uangavu,mshindwa,badiliko,NA,sdfdsf,NA,1,NA,NA,NA,NA,NA,NA,NA,NA,NA,NA,NA,NA,NA,NA,NA,NA,NA,NA,NA
c506c,deep,flow.Sequence,3_0_1_0_5_0,NA,NA,skipped,NA,393383.10000002,NA,NA,393380.758,393383.30000007,2023-04-04T16:36:55Z,393397.414,NULL,Übersicht,kilindo,s,mgusano,chipukizi,kulinganisha,NA,sdfdsf,NA,1,NA,NA,NA,NA,NA,NA,NA,NA,NA,NA,NA,NA,NA,NA,NA,NA,NA,NA,NA
c506c,Shallow Question,html.Page,3_0_1_0_5_1_0,NA,NA,form submission,11124.686000024,393383.60000002,393380.758,393397.414,404522.10000002,404522.70000005,2023-04-04T16:37:06Z,404523.398,NULL,Übersicht,kilindo,s,mgusano,chipukizi,kulinganisha,kilindo,NA,NA,1,NA,NA,NA,NA,NA,NA,NA,NA,NA,NA,NA,NA,NA,NA,NA,NA,NA,NA,NA
c506c,"""Richtig""-Screen",canvas.Screen,3_0_1_0_5_1_1,NA,NA,timeout,4997.871,404530.70000005,404508.12,404523.398,409504.752,409506,2023-04-04T16:37:11Z,409521.269,NULL,Übersicht,kilindo,s,mgusano,chipukizi,kulinganisha,NA,sdfdsf,1,1,NA,NA,NA,NA,NA,NA,NA,NA,NA,NA,NA,NA,NA,NA,NA,NA,NA,NA,NA
c506c,"""Falsch""-Screen",canvas.Screen,3_0_1_0_5_1_2,NA,NA,skipped,NA,409512.60000002,NA,NA,409504.752,409513,2023-04-04T16:37:11Z,409521.269,NULL,Übersicht,kilindo,s,mgusano,chipukizi,kulinganisha,NA,sdfdsf,NA,1,NA,NA,NA,NA,NA,NA,NA,NA,NA,NA,NA,NA,NA,NA,NA,NA,NA,NA,NA
c506c,shallow,flow.Sequence,3_0_1_0_5_1,NA,NA,completion,16107.338,393383.5,393380.758,393397.414,409504.752,409513.39999998,2023-04-04T16:37:11Z,409521.269,NULL,Übersicht,kilindo,s,mgusano,chipukizi,kulinganisha,NA,sdfdsf,NA,1,NA,NA,NA,NA,NA,NA,NA,NA,NA,NA,NA,NA,NA,NA,NA,NA,NA,NA,NA
c506c,task,flow.Sequence,3_0_1_0_5,NA,NA,completion,16107.338,393383,393380.758,393397.414,409504.752,409513.70000005,2023-04-04T16:37:11Z,409521.269,NULL,Übersicht,kilindo,s,mgusano,chipukizi,kulinganisha,NA,sdfdsf,NA,1,NA,NA,NA,NA,NA,NA,NA,NA,NA,NA,NA,NA,NA,NA,NA,NA,NA,NA,NA
c506c,deep,flow.Sequence,3_0_1_0_6_0,NA,NA,skipped,NA,409513.89999998,NA,NA,409504.752,409514.10000002,2023-04-04T16:37:11Z,409521.269,NULL,Körper,kiwiliwili,s,mapambano,mpatanishi,kiolezo,NA,sdfdsf,NA,1,NA,NA,NA,NA,NA,NA,NA,NA,NA,NA,NA,NA,NA,NA,NA,NA,NA,NA,NA
c506c,Shallow Question,html.Page,3_0_1_0_6_1_0,NA,NA,form submission,3778.231,409514.39999998,409504.752,409521.269,413299.5,413299.89999998,2023-04-04T16:37:15Z,413301.736,NULL,Körper,kiwiliwili,s,mapambano,mpatanishi,kiolezo,kiwiliwili,NA,NA,1,NA,NA,NA,NA,NA,NA,NA,NA,NA,NA,NA,NA,NA,NA,NA,NA,NA,NA,NA
c506c,"""Richtig""-Screen",canvas.Screen,3_0_1_0_6_1_1,NA,NA,timeout,5006.309,413306.89999998,413294.566,413301.736,418291.533,418292.89999998,2023-04-04T16:37:20Z,418308.045,NULL,Körper,kiwiliwili,s,mapambano,mpatanishi,kiolezo,NA,sdfdsf,1,1,NA,NA,NA,NA,NA,NA,NA,NA,NA,NA,NA,NA,NA,NA,NA,NA,NA,NA,NA
c506c,"""Falsch""-Screen",canvas.Screen,3_0_1_0_6_1_2,NA,NA,skipped,NA,418299.5,NA,NA,418291.533,418299.89999998,2023-04-04T16:37:20Z,418308.045,NULL,Körper,kiwiliwili,s,mapambano,mpatanishi,kiolezo,NA,sdfdsf,NA,1,NA,NA,NA,NA,NA,NA,NA,NA,NA,NA,NA,NA,NA,NA,NA,NA,NA,NA,NA
c506c,shallow,flow.Sequence,3_0_1_0_6_1,NA,NA,completion,8770.264,409514.30000007,409504.752,409521.269,418291.533,418300.30000007,2023-04-04T16:37:20Z,418308.045,NULL,Körper,kiwiliwili,s,mapambano,mpatanishi,kiolezo,NA,sdfdsf,NA,1,NA,NA,NA,NA,NA,NA,NA,NA,NA,NA,NA,NA,NA,NA,NA,NA,NA,NA,NA
c506c,task,flow.Sequence,3_0_1_0_6,NA,NA,completion,8770.264,409513.80000007,409504.752,409521.269,418291.533,418300.60000002,2023-04-04T16:37:20Z,418308.045,NULL,Körper,kiwiliwili,s,mapambano,mpatanishi,kiolezo,NA,sdfdsf,NA,1,NA,NA,NA,NA,NA,NA,NA,NA,NA,NA,NA,NA,NA,NA,NA,NA,NA,NA,NA
c506c,Deep Question,html.Page,3_0_1_0_7_0_0,NA,NA,form submission,8671.5550000239,418300.89999998,418291.533,418308.045,426979.60000002,426980.10000002,2023-04-04T16:37:29Z,427015.291,NULL,Niveau,kiwango,d,NA,NA,NA,do,NA,NA,1,NA,NA,NA,NA,NA,NA,NA,NA,NA,NA,NA,NA,NA,NA,NA,NA,NA,NA,NA
c506c,"""Richtig""-Screen",canvas.Screen,3_0_1_0_7_0_1,NA,NA,skipped,NA,426988.89999998,NA,NA,426979.60000002,426989.20000005,2023-04-04T16:37:29Z,427015.291,NULL,Niveau,kiwango,d,NA,NA,NA,NA,sdfdsf,NA,1,NA,NA,NA,NA,NA,NA,NA,NA,NA,NA,NA,NA,NA,NA,NA,NA,NA,NA,NA
c506c,"""Falsch""-Screen",canvas.Screen,3_0_1_0_7_0_2,NA,NA,timeout,4995.24,426991.30000007,426973.797,427015.291,431994.015,431995.20000005,2023-04-04T16:37:34Z,432010.531,NULL,Niveau,kiwango,d,NA,NA,NA,NA,sdfdsf,0,1,NA,NA,NA,NA,NA,NA,NA,NA,NA,NA,NA,NA,NA,NA,NA,NA,NA,NA,NA
c506c,deep,flow.Sequence,3_0_1_0_7_0,NA,NA,completion,13685.97,418300.80000007,418291.533,418308.045,431994.015,431995.70000005,2023-04-04T16:37:34Z,432010.531,NULL,Niveau,kiwango,d,NA,NA,NA,NA,sdfdsf,NA,1,NA,NA,NA,NA,NA,NA,NA,NA,NA,NA,NA,NA,NA,NA,NA,NA,NA,NA,NA
c506c,shallow,flow.Sequence,3_0_1_0_7_1,NA,NA,skipped,NA,431996,NA,NA,431994.015,431996.20000005,2023-04-04T16:37:34Z,432010.531,NULL,Niveau,kiwango,d,NA,NA,NA,NA,sdfdsf,NA,1,NA,NA,NA,NA,NA,NA,NA,NA,NA,NA,NA,NA,NA,NA,NA,NA,NA,NA,NA
c506c,task,flow.Sequence,3_0_1_0_7,NA,NA,completion,13685.97,418300.70000005,418291.533,418308.045,431994.015,431996.39999998,2023-04-04T16:37:34Z,432010.531,NULL,Niveau,kiwango,d,NA,NA,NA,NA,sdfdsf,NA,1,NA,NA,NA,NA,NA,NA,NA,NA,NA,NA,NA,NA,NA,NA,NA,NA,NA,NA,NA
c506c,block,flow.Loop,3_0_1_0,NA,NA,completion,109049.14,322954.10000002,322819.826,322944.875,431994.015,431996.60000002,2023-04-04T16:37:34Z,432010.531,NULL,NA,NA,NA,NA,NA,NA,NA,sdfdsf,NA,1,NA,NA,NA,NA,NA,NA,NA,NA,NA,NA,NA,NA,NA,NA,NA,NA,NA,NA,NA
c506c,weiter,canvas.Screen,3_0_1_1,sdf,keypress(Space),response,1078.2690000715,431996.80000007,431994.015,432010.531,433088.80000007,433096.30000007,2023-04-04T16:37:35Z,433212.41,NULL,NA,NA,NA,NA,NA,NA,NA,sdfdsf,NA,1,NA,NA,NA,NA,NA,NA,NA,NA,NA,NA,NA,NA,NA,NA,NA,NA,NA,NA,NA
c506c,check continue,flow.Sequence,3_0_1,NA,NA,completion,110143.92500007,322953.89999998,322819.826,322944.875,433088.80000007,433096.80000007,2023-04-04T16:37:35Z,433212.41,NULL,NA,NA,NA,NA,NA,NA,NA,sdfdsf,NA,1,NA,NA,NA,NA,NA,NA,NA,NA,NA,NA,NA,NA,NA,NA,NA,NA,NA,NA,NA
c506c,deep,flow.Sequence,3_0_2_0_0_0,NA,NA,skipped,NA,433206.60000002,NA,NA,433088.80000007,433207,2023-04-04T16:37:35Z,433212.41,NULL,Vorwurf,mashtaka,s,msukumo,mtangulizi,uenyekiti,NA,sdf,NA,2,NA,NA,NA,NA,NA,NA,NA,NA,NA,NA,NA,NA,NA,NA,NA,NA,NA,NA,NA
c506c,Shallow Question,html.Page,3_0_2_0_0_1_0,NA,NA,form submission,8079.2900000477,433207.30000007,433077.604,433212.41,441291.70000005,441292.10000002,2023-04-04T16:37:43Z,441294.076,NULL,Vorwurf,mashtaka,s,msukumo,mtangulizi,uenyekiti,msukumo,NA,NA,2,NA,NA,NA,NA,NA,NA,NA,NA,NA,NA,NA,NA,NA,NA,NA,NA,NA,NA,NA
c506c,"""Richtig""-Screen",canvas.Screen,3_0_2_0_0_1_1,NA,NA,skipped,NA,441300,NA,NA,441291.70000005,441300.39999998,2023-04-04T16:37:43Z,441294.076,NULL,Vorwurf,mashtaka,s,msukumo,mtangulizi,uenyekiti,NA,sdf,NA,2,NA,NA,NA,NA,NA,NA,NA,NA,NA,NA,NA,NA,NA,NA,NA,NA,NA,NA,NA
c506c,"""Falsch""-Screen",canvas.Screen,3_0_2_0_0_1_2,NA,NA,timeout,4997.215,441302.70000005,441277.714,441294.076,446274.771,446276.80000007,2023-04-04T16:37:48Z,446291.291,NULL,Vorwurf,mashtaka,s,msukumo,mtangulizi,uenyekiti,NA,sdf,0,2,NA,NA,NA,NA,NA,NA,NA,NA,NA,NA,NA,NA,NA,NA,NA,NA,NA,NA,NA
c506c,shallow,flow.Sequence,3_0_2_0_0_1,NA,NA,completion,13062.361,433207.20000005,433077.604,433212.41,446274.771,446277.30000007,2023-04-04T16:37:48Z,446291.291,NULL,Vorwurf,mashtaka,s,msukumo,mtangulizi,uenyekiti,NA,sdf,NA,2,NA,NA,NA,NA,NA,NA,NA,NA,NA,NA,NA,NA,NA,NA,NA,NA,NA,NA,NA
c506c,task,flow.Sequence,3_0_2_0_0,NA,NA,completion,13062.361,433206.5,433077.604,433212.41,446274.771,446277.70000005,2023-04-04T16:37:48Z,446291.291,NULL,Vorwurf,mashtaka,s,msukumo,mtangulizi,uenyekiti,NA,sdf,NA,2,NA,NA,NA,NA,NA,NA,NA,NA,NA,NA,NA,NA,NA,NA,NA,NA,NA,NA,NA
c506c,deep,flow.Sequence,3_0_2_0_1_0,NA,NA,skipped,NA,446278,NA,NA,446274.771,446278.20000005,2023-04-04T16:37:48Z,446291.291,NULL,Körper,kiwiliwili,s,mapambano,mpatanishi,kiolezo,NA,sdf,NA,2,NA,NA,NA,NA,NA,NA,NA,NA,NA,NA,NA,NA,NA,NA,NA,NA,NA,NA,NA
c506c,Shallow Question,html.Page,3_0_2_0_1_1_0,NA,NA,form submission,4206.1089999761,446278.39999998,446274.771,446291.291,450497.39999998,450497.80000007,2023-04-04T16:37:52Z,450499.64,NULL,Körper,kiwiliwili,s,mapambano,mpatanishi,kiolezo,kiwiliwili,NA,NA,2,NA,NA,NA,NA,NA,NA,NA,NA,NA,NA,NA,NA,NA,NA,NA,NA,NA,NA,NA
c506c,"""Richtig""-Screen",canvas.Screen,3_0_2_0_1_1_1,NA,NA,timeout,4993.216,450505.30000007,450493.569,450499.64,455476.354,455477.60000002,2023-04-04T16:37:57Z,455492.856,NULL,Körper,kiwiliwili,s,mapambano,mpatanishi,kiolezo,NA,sdf,1,2,NA,NA,NA,NA,NA,NA,NA,NA,NA,NA,NA,NA,NA,NA,NA,NA,NA,NA,NA
c506c,"""Falsch""-Screen",canvas.Screen,3_0_2_0_1_1_2,NA,NA,skipped,NA,455484,NA,NA,455476.354,455484.39999998,2023-04-04T16:37:57Z,455492.856,NULL,Körper,kiwiliwili,s,mapambano,mpatanishi,kiolezo,NA,sdf,NA,2,NA,NA,NA,NA,NA,NA,NA,NA,NA,NA,NA,NA,NA,NA,NA,NA,NA,NA,NA
c506c,shallow,flow.Sequence,3_0_2_0_1_1,NA,NA,completion,9185.063,446278.30000007,446274.771,446291.291,455476.354,455484.80000007,2023-04-04T16:37:57Z,455492.856,NULL,Körper,kiwiliwili,s,mapambano,mpatanishi,kiolezo,NA,sdf,NA,2,NA,NA,NA,NA,NA,NA,NA,NA,NA,NA,NA,NA,NA,NA,NA,NA,NA,NA,NA
c506c,task,flow.Sequence,3_0_2_0_1,NA,NA,completion,9185.063,446277.89999998,446274.771,446291.291,455476.354,455485.10000002,2023-04-04T16:37:57Z,455492.856,NULL,Körper,kiwiliwili,s,mapambano,mpatanishi,kiolezo,NA,sdf,NA,2,NA,NA,NA,NA,NA,NA,NA,NA,NA,NA,NA,NA,NA,NA,NA,NA,NA,NA,NA
c506c,Deep Question,html.Page,3_0_2_0_2_0_0,NA,NA,form submission,14197.043999976,455485.30000007,455476.354,455492.856,469689.89999998,469690.5,2023-04-04T16:38:12Z,469725.772,NULL,Lawine,banguko,d,NA,NA,NA,kungozu,NA,NA,2,NA,NA,NA,NA,NA,NA,NA,NA,NA,NA,NA,NA,NA,NA,NA,NA,NA,NA,NA
c506c,"""Richtig""-Screen",canvas.Screen,3_0_2_0_2_0_1,NA,NA,skipped,NA,469699.89999998,NA,NA,469689.89999998,469700.30000007,2023-04-04T16:38:12Z,469725.772,NULL,Lawine,banguko,d,NA,NA,NA,NA,sdf,NA,2,NA,NA,NA,NA,NA,NA,NA,NA,NA,NA,NA,NA,NA,NA,NA,NA,NA,NA,NA
c506c,"""Falsch""-Screen",canvas.Screen,3_0_2_0_2_0_2,NA,NA,timeout,4993.151,469702.39999998,469679.074,469725.772,474702.33,474703.70000005,2023-04-04T16:38:17Z,474718.923,NULL,Lawine,banguko,d,NA,NA,NA,NA,sdf,0,2,NA,NA,NA,NA,NA,NA,NA,NA,NA,NA,NA,NA,NA,NA,NA,NA,NA,NA,NA
c506c,deep,flow.Sequence,3_0_2_0_2_0,NA,NA,completion,19209.474,455485.20000005,455476.354,455492.856,474702.33,474704.20000005,2023-04-04T16:38:17Z,474718.923,NULL,Lawine,banguko,d,NA,NA,NA,NA,sdf,NA,2,NA,NA,NA,NA,NA,NA,NA,NA,NA,NA,NA,NA,NA,NA,NA,NA,NA,NA,NA
c506c,shallow,flow.Sequence,3_0_2_0_2_1,NA,NA,skipped,NA,474704.39999998,NA,NA,474702.33,474704.60000002,2023-04-04T16:38:17Z,474718.923,NULL,Lawine,banguko,d,NA,NA,NA,NA,sdf,NA,2,NA,NA,NA,NA,NA,NA,NA,NA,NA,NA,NA,NA,NA,NA,NA,NA,NA,NA,NA
c506c,task,flow.Sequence,3_0_2_0_2,NA,NA,completion,19209.474,455485.20000005,455476.354,455492.856,474702.33,474704.89999998,2023-04-04T16:38:17Z,474718.923,NULL,Lawine,banguko,d,NA,NA,NA,NA,sdf,NA,2,NA,NA,NA,NA,NA,NA,NA,NA,NA,NA,NA,NA,NA,NA,NA,NA,NA,NA,NA
c506c,deep,flow.Sequence,3_0_2_0_3_0,NA,NA,skipped,NA,474705.10000002,NA,NA,474702.33,474705.20000005,2023-04-04T16:38:17Z,474718.923,NULL,Entwicklung,maendeleo,s,uangavu,mshindwa,badiliko,NA,sdf,NA,2,NA,NA,NA,NA,NA,NA,NA,NA,NA,NA,NA,NA,NA,NA,NA,NA,NA,NA,NA
c506c,Shallow Question,html.Page,3_0_2_0_3_1_0,NA,NA,form submission,6321.7770000477,474705.30000007,474702.33,474718.923,481040.70000005,481041.20000005,2023-04-04T16:38:23Z,481043.02,NULL,Entwicklung,maendeleo,s,uangavu,mshindwa,badiliko,maendeleo,NA,NA,2,NA,NA,NA,NA,NA,NA,NA,NA,NA,NA,NA,NA,NA,NA,NA,NA,NA,NA,NA
c506c,"""Richtig""-Screen",canvas.Screen,3_0_2_0_3_1_1,NA,NA,timeout,5022.112,481048.89999998,481026.822,481043.02,486031.953,486033.20000005,2023-04-04T16:38:28Z,486065.132,NULL,Entwicklung,maendeleo,s,uangavu,mshindwa,badiliko,NA,sdf,1,2,NA,NA,NA,NA,NA,NA,NA,NA,NA,NA,NA,NA,NA,NA,NA,NA,NA,NA,NA
c506c,"""Falsch""-Screen",canvas.Screen,3_0_2_0_3_1_2,NA,NA,skipped,NA,486039.70000005,NA,NA,486031.953,486040.10000002,2023-04-04T16:38:28Z,486065.132,NULL,Entwicklung,maendeleo,s,uangavu,mshindwa,badiliko,NA,sdf,NA,2,NA,NA,NA,NA,NA,NA,NA,NA,NA,NA,NA,NA,NA,NA,NA,NA,NA,NA,NA
c506c,shallow,flow.Sequence,3_0_2_0_3_1,NA,NA,completion,11313.03,474705.30000007,474702.33,474718.923,486031.953,486040.5,2023-04-04T16:38:28Z,486065.132,NULL,Entwicklung,maendeleo,s,uangavu,mshindwa,badiliko,NA,sdf,NA,2,NA,NA,NA,NA,NA,NA,NA,NA,NA,NA,NA,NA,NA,NA,NA,NA,NA,NA,NA
c506c,task,flow.Sequence,3_0_2_0_3,NA,NA,completion,11313.03,474705,474702.33,474718.923,486031.953,486040.70000005,2023-04-04T16:38:28Z,486065.132,NULL,Entwicklung,maendeleo,s,uangavu,mshindwa,badiliko,NA,sdf,NA,2,NA,NA,NA,NA,NA,NA,NA,NA,NA,NA,NA,NA,NA,NA,NA,NA,NA,NA,NA
c506c,deep,flow.Sequence,3_0_2_0_4_0,NA,NA,skipped,NA,486041,NA,NA,486031.953,486041.10000002,2023-04-04T16:38:28Z,486065.132,NULL,Übersicht,kilindo,s,mgusano,chipukizi,kulinganisha,NA,sdf,NA,2,NA,NA,NA,NA,NA,NA,NA,NA,NA,NA,NA,NA,NA,NA,NA,NA,NA,NA,NA
c506c,Shallow Question,html.Page,3_0_2_0_4_1_0,NA,NA,form submission,7132.0680000477,486041.30000007,486031.953,486065.132,493197.20000005,493197.80000007,2023-04-04T16:38:35Z,493224.093,NULL,Übersicht,kilindo,s,mgusano,chipukizi,kulinganisha,kilindo,NA,NA,2,NA,NA,NA,NA,NA,NA,NA,NA,NA,NA,NA,NA,NA,NA,NA,NA,NA,NA,NA
c506c,"""Richtig""-Screen",canvas.Screen,3_0_2_0_4_1_1,NA,NA,timeout,4993.266,493204.30000007,493190.899,493224.093,498200.836,498202.10000002,2023-04-04T16:38:40Z,498217.359,NULL,Übersicht,kilindo,s,mgusano,chipukizi,kulinganisha,NA,sdf,1,2,NA,NA,NA,NA,NA,NA,NA,NA,NA,NA,NA,NA,NA,NA,NA,NA,NA,NA,NA
c506c,"""Falsch""-Screen",canvas.Screen,3_0_2_0_4_1_2,NA,NA,skipped,NA,498208.80000007,NA,NA,498200.836,498209.20000005,2023-04-04T16:38:40Z,498217.359,NULL,Übersicht,kilindo,s,mgusano,chipukizi,kulinganisha,NA,sdf,NA,2,NA,NA,NA,NA,NA,NA,NA,NA,NA,NA,NA,NA,NA,NA,NA,NA,NA,NA,NA
c506c,shallow,flow.Sequence,3_0_2_0_4_1,NA,NA,completion,12135.704,486041.30000007,486031.953,486065.132,498200.836,498209.70000005,2023-04-04T16:38:40Z,498217.359,NULL,Übersicht,kilindo,s,mgusano,chipukizi,kulinganisha,NA,sdf,NA,2,NA,NA,NA,NA,NA,NA,NA,NA,NA,NA,NA,NA,NA,NA,NA,NA,NA,NA,NA
c506c,task,flow.Sequence,3_0_2_0_4,NA,NA,completion,12135.704,486040.89999998,486031.953,486065.132,498200.836,498210,2023-04-04T16:38:40Z,498217.359,NULL,Übersicht,kilindo,s,mgusano,chipukizi,kulinganisha,NA,sdf,NA,2,NA,NA,NA,NA,NA,NA,NA,NA,NA,NA,NA,NA,NA,NA,NA,NA,NA,NA,NA
c506c,Deep Question,html.Page,3_0_2_0_5_0_0,NA,NA,form submission,7783.2410000238,498210.30000007,498200.836,498217.359,506000.60000002,506001.20000005,2023-04-04T16:38:48Z,506012.347,NULL,Papier,karatasi,d,NA,NA,NA,karatasi,NA,NA,2,NA,NA,NA,NA,NA,NA,NA,NA,NA,NA,NA,NA,NA,NA,NA,NA,NA,NA,NA
c506c,"""Richtig""-Screen",canvas.Screen,3_0_2_0_5_0_1,NA,NA,timeout,5000.209,506009.30000007,505995.847,506012.347,510995.911,510997.10000002,2023-04-04T16:38:53Z,511012.556,NULL,Papier,karatasi,d,NA,NA,NA,NA,sdf,1,2,NA,NA,NA,NA,NA,NA,NA,NA,NA,NA,NA,NA,NA,NA,NA,NA,NA,NA,NA
c506c,"""Falsch""-Screen",canvas.Screen,3_0_2_0_5_0_2,NA,NA,skipped,NA,511003.80000007,NA,NA,510995.911,511004.20000005,2023-04-04T16:38:53Z,511012.556,NULL,Papier,karatasi,d,NA,NA,NA,NA,sdf,NA,2,NA,NA,NA,NA,NA,NA,NA,NA,NA,NA,NA,NA,NA,NA,NA,NA,NA,NA,NA
c506c,deep,flow.Sequence,3_0_2_0_5_0,NA,NA,completion,12778.552,498210.30000007,498200.836,498217.359,510995.911,511004.60000002,2023-04-04T16:38:53Z,511012.556,NULL,Papier,karatasi,d,NA,NA,NA,NA,sdf,NA,2,NA,NA,NA,NA,NA,NA,NA,NA,NA,NA,NA,NA,NA,NA,NA,NA,NA,NA,NA
c506c,shallow,flow.Sequence,3_0_2_0_5_1,NA,NA,skipped,NA,511004.80000007,NA,NA,510995.911,511004.89999998,2023-04-04T16:38:53Z,511012.556,NULL,Papier,karatasi,d,NA,NA,NA,NA,sdf,NA,2,NA,NA,NA,NA,NA,NA,NA,NA,NA,NA,NA,NA,NA,NA,NA,NA,NA,NA,NA
c506c,task,flow.Sequence,3_0_2_0_5,NA,NA,completion,12778.552,498210.20000005,498200.836,498217.359,510995.911,511005.20000005,2023-04-04T16:38:53Z,511012.556,NULL,Papier,karatasi,d,NA,NA,NA,NA,sdf,NA,2,NA,NA,NA,NA,NA,NA,NA,NA,NA,NA,NA,NA,NA,NA,NA,NA,NA,NA,NA
c506c,Deep Question,html.Page,3_0_2_0_6_0_0,NA,NA,form submission,7843.944,511005.60000002,510995.911,511012.556,518856.5,518856.89999998,2023-04-04T16:39:01Z,518858.906,NULL,System,maongozi,d,NA,NA,NA,m,NA,NA,2,NA,NA,NA,NA,NA,NA,NA,NA,NA,NA,NA,NA,NA,NA,NA,NA,NA,NA,NA
c506c,"""Richtig""-Screen",canvas.Screen,3_0_2_0_6_0_1,NA,NA,skipped,NA,518865.60000002,NA,NA,518856.5,518865.89999998,2023-04-04T16:39:01Z,518858.906,NULL,System,maongozi,d,NA,NA,NA,NA,sdf,NA,2,NA,NA,NA,NA,NA,NA,NA,NA,NA,NA,NA,NA,NA,NA,NA,NA,NA,NA,NA
c506c,"""Falsch""-Screen",canvas.Screen,3_0_2_0_6_0_2,NA,NA,timeout,5008.424,518867.89999998,518844.423,518858.906,523834.132,523835.39999998,2023-04-04T16:39:06Z,523867.33,NULL,System,maongozi,d,NA,NA,NA,NA,sdf,0,2,NA,NA,NA,NA,NA,NA,NA,NA,NA,NA,NA,NA,NA,NA,NA,NA,NA,NA,NA
c506c,deep,flow.Sequence,3_0_2_0_6_0,NA,NA,completion,12821.576,511005.5,510995.911,511012.556,523834.132,523835.80000007,2023-04-04T16:39:06Z,523867.33,NULL,System,maongozi,d,NA,NA,NA,NA,sdf,NA,2,NA,NA,NA,NA,NA,NA,NA,NA,NA,NA,NA,NA,NA,NA,NA,NA,NA,NA,NA
c506c,shallow,flow.Sequence,3_0_2_0_6_1,NA,NA,skipped,NA,523836,NA,NA,523834.132,523836.20000005,2023-04-04T16:39:06Z,523867.33,NULL,System,maongozi,d,NA,NA,NA,NA,sdf,NA,2,NA,NA,NA,NA,NA,NA,NA,NA,NA,NA,NA,NA,NA,NA,NA,NA,NA,NA,NA
c506c,task,flow.Sequence,3_0_2_0_6,NA,NA,completion,12821.576,511005.39999998,510995.911,511012.556,523834.132,523836.39999998,2023-04-04T16:39:06Z,523867.33,NULL,System,maongozi,d,NA,NA,NA,NA,sdf,NA,2,NA,NA,NA,NA,NA,NA,NA,NA,NA,NA,NA,NA,NA,NA,NA,NA,NA,NA,NA
c506c,Deep Question,html.Page,3_0_2_0_7_0_0,NA,NA,form submission,5002.7700000238,523836.70000005,523834.132,523867.33,528870.10000002,528870.70000005,2023-04-04T16:39:11Z,528874.137,NULL,Niveau,kiwango,d,NA,NA,NA,s,NA,NA,2,NA,NA,NA,NA,NA,NA,NA,NA,NA,NA,NA,NA,NA,NA,NA,NA,NA,NA,NA
c506c,"""Richtig""-Screen",canvas.Screen,3_0_2_0_7_0_1,NA,NA,skipped,NA,528879.70000005,NA,NA,528870.10000002,528880.10000002,2023-04-04T16:39:11Z,528874.137,NULL,Niveau,kiwango,d,NA,NA,NA,NA,sdf,NA,2,NA,NA,NA,NA,NA,NA,NA,NA,NA,NA,NA,NA,NA,NA,NA,NA,NA,NA,NA
c506c,"""Falsch""-Screen",canvas.Screen,3_0_2_0_7_0_2,NA,NA,timeout,4993.451,528882.10000002,528857.571,528874.137,533851.067,533852.39999998,2023-04-04T16:39:16Z,533867.588,NULL,Niveau,kiwango,d,NA,NA,NA,NA,sdf,0,2,NA,NA,NA,NA,NA,NA,NA,NA,NA,NA,NA,NA,NA,NA,NA,NA,NA,NA,NA
c506c,deep,flow.Sequence,3_0_2_0_7_0,NA,NA,completion,9983.737,523836.60000002,523834.132,523867.33,533851.067,533852.89999998,2023-04-04T16:39:16Z,533867.588,NULL,Niveau,kiwango,d,NA,NA,NA,NA,sdf,NA,2,NA,NA,NA,NA,NA,NA,NA,NA,NA,NA,NA,NA,NA,NA,NA,NA,NA,NA,NA
c506c,shallow,flow.Sequence,3_0_2_0_7_1,NA,NA,skipped,NA,533853.10000002,NA,NA,533851.067,533853.30000007,2023-04-04T16:39:16Z,533867.588,NULL,Niveau,kiwango,d,NA,NA,NA,NA,sdf,NA,2,NA,NA,NA,NA,NA,NA,NA,NA,NA,NA,NA,NA,NA,NA,NA,NA,NA,NA,NA
c506c,task,flow.Sequence,3_0_2_0_7,NA,NA,completion,9983.737,523836.60000002,523834.132,523867.33,533851.067,533853.5,2023-04-04T16:39:16Z,533867.588,NULL,Niveau,kiwango,d,NA,NA,NA,NA,sdf,NA,2,NA,NA,NA,NA,NA,NA,NA,NA,NA,NA,NA,NA,NA,NA,NA,NA,NA,NA,NA
c506c,block,flow.Loop,3_0_2_0,NA,NA,completion,100638.657,433204.89999998,433077.604,433212.41,533851.067,533853.80000007,2023-04-04T16:39:16Z,533867.588,NULL,NA,NA,NA,NA,NA,NA,NA,sdf,NA,2,NA,NA,NA,NA,NA,NA,NA,NA,NA,NA,NA,NA,NA,NA,NA,NA,NA,NA,NA
c506c,weiter,canvas.Screen,3_0_2_1,sdf,keypress(Space),response,1018.3119999762,533854,533851.067,533867.588,534885.89999998,534892.60000002,2023-04-04T16:39:17Z,535009.352,NULL,NA,NA,NA,NA,NA,NA,NA,sdf,NA,2,NA,NA,NA,NA,NA,NA,NA,NA,NA,NA,NA,NA,NA,NA,NA,NA,NA,NA,NA
c506c,check continue,flow.Sequence,3_0_2,NA,NA,completion,101673.48999998,433204.80000007,433077.604,433212.41,534885.89999998,534893.20000005,2023-04-04T16:39:17Z,535009.352,NULL,NA,NA,NA,NA,NA,NA,NA,sdf,NA,2,NA,NA,NA,NA,NA,NA,NA,NA,NA,NA,NA,NA,NA,NA,NA,NA,NA,NA,NA
c506c,deep,flow.Sequence,3_0_3_0_0_0,NA,NA,skipped,NA,535014.39999998,NA,NA,534885.89999998,535014.80000007,2023-04-04T16:39:17Z,535009.352,NULL,Körper,kiwiliwili,s,mapambano,mpatanishi,kiolezo,NA,qt,NA,3,NA,NA,NA,NA,NA,NA,NA,NA,NA,NA,NA,NA,NA,NA,NA,NA,NA,NA,NA
c506c,Shallow Question,html.Page,3_0_3_0_0_1_0,NA,NA,form submission,4641.648,535015,534884.655,535009.352,539651,539651.39999998,2023-04-04T16:39:22Z,539653.308,NULL,Körper,kiwiliwili,s,mapambano,mpatanishi,kiolezo,kiwiliwili,NA,NA,3,NA,NA,NA,NA,NA,NA,NA,NA,NA,NA,NA,NA,NA,NA,NA,NA,NA,NA,NA
c506c,"""Richtig""-Screen",canvas.Screen,3_0_3_0_0_1_1,NA,NA,timeout,4996.689,539660.80000007,539639.431,539653.308,544633.464,544634.80000007,2023-04-04T16:39:27Z,544649.997,NULL,Körper,kiwiliwili,s,mapambano,mpatanishi,kiolezo,NA,qt,1,3,NA,NA,NA,NA,NA,NA,NA,NA,NA,NA,NA,NA,NA,NA,NA,NA,NA,NA,NA
c506c,"""Falsch""-Screen",canvas.Screen,3_0_3_0_0_1_2,NA,NA,skipped,NA,544641.80000007,NA,NA,544633.464,544642.10000002,2023-04-04T16:39:27Z,544649.997,NULL,Körper,kiwiliwili,s,mapambano,mpatanishi,kiolezo,NA,qt,NA,3,NA,NA,NA,NA,NA,NA,NA,NA,NA,NA,NA,NA,NA,NA,NA,NA,NA,NA,NA
c506c,shallow,flow.Sequence,3_0_3_0_0_1,NA,NA,completion,9624.1120000001,535015,534884.655,535009.352,544633.464,544642.60000002,2023-04-04T16:39:27Z,544649.997,NULL,Körper,kiwiliwili,s,mapambano,mpatanishi,kiolezo,NA,qt,NA,3,NA,NA,NA,NA,NA,NA,NA,NA,NA,NA,NA,NA,NA,NA,NA,NA,NA,NA,NA
c506c,task,flow.Sequence,3_0_3_0_0,NA,NA,completion,9624.1120000001,535014.39999998,534884.655,535009.352,544633.464,544642.89999998,2023-04-04T16:39:27Z,544649.997,NULL,Körper,kiwiliwili,s,mapambano,mpatanishi,kiolezo,NA,qt,NA,3,NA,NA,NA,NA,NA,NA,NA,NA,NA,NA,NA,NA,NA,NA,NA,NA,NA,NA,NA
c506c,Deep Question,html.Page,3_0_3_0_1_0_0,NA,NA,form submission,12114.902999976,544643.20000005,544633.464,544649.997,556764.89999998,556765.39999998,2023-04-04T16:39:39Z,556767.48,NULL,System,maongozi,d,NA,NA,NA,s,NA,NA,3,NA,NA,NA,NA,NA,NA,NA,NA,NA,NA,NA,NA,NA,NA,NA,NA,NA,NA,NA
c506c,"""Richtig""-Screen",canvas.Screen,3_0_3_0_1_0_1,NA,NA,skipped,NA,556773.5,NA,NA,556764.89999998,556774,2023-04-04T16:39:39Z,556767.48,NULL,System,maongozi,d,NA,NA,NA,NA,qt,NA,3,NA,NA,NA,NA,NA,NA,NA,NA,NA,NA,NA,NA,NA,NA,NA,NA,NA,NA,NA
c506c,"""Falsch""-Screen",canvas.Screen,3_0_3_0_1_0_2,NA,NA,timeout,5006.343,556775.89999998,556748.407,556767.48,561757.171,561758.39999998,2023-04-04T16:39:44Z,561773.823,NULL,System,maongozi,d,NA,NA,NA,NA,qt,0,3,NA,NA,NA,NA,NA,NA,NA,NA,NA,NA,NA,NA,NA,NA,NA,NA,NA,NA,NA
c506c,deep,flow.Sequence,3_0_3_0_1_0,NA,NA,completion,17107.174,544643.10000002,544633.464,544649.997,561757.171,561758.80000007,2023-04-04T16:39:44Z,561773.823,NULL,System,maongozi,d,NA,NA,NA,NA,qt,NA,3,NA,NA,NA,NA,NA,NA,NA,NA,NA,NA,NA,NA,NA,NA,NA,NA,NA,NA,NA
c506c,shallow,flow.Sequence,3_0_3_0_1_1,NA,NA,skipped,NA,561759.10000002,NA,NA,561757.171,561759.20000005,2023-04-04T16:39:44Z,561773.823,NULL,System,maongozi,d,NA,NA,NA,NA,qt,NA,3,NA,NA,NA,NA,NA,NA,NA,NA,NA,NA,NA,NA,NA,NA,NA,NA,NA,NA,NA
c506c,task,flow.Sequence,3_0_3_0_1,NA,NA,completion,17107.174,544643,544633.464,544649.997,561757.171,561759.5,2023-04-04T16:39:44Z,561773.823,NULL,System,maongozi,d,NA,NA,NA,NA,qt,NA,3,NA,NA,NA,NA,NA,NA,NA,NA,NA,NA,NA,NA,NA,NA,NA,NA,NA,NA,NA
c506c,Deep Question,html.Page,3_0_3_0_2_0_0,NA,NA,form submission,9086.9770000716,561759.70000005,561757.171,561773.823,570860.80000007,570861.39999998,2023-04-04T16:39:53Z,570896.756,NULL,Niveau,kiwango,d,NA,NA,NA,e,NA,NA,3,NA,NA,NA,NA,NA,NA,NA,NA,NA,NA,NA,NA,NA,NA,NA,NA,NA,NA,NA
c506c,"""Richtig""-Screen",canvas.Screen,3_0_3_0_2_0_1,NA,NA,skipped,NA,570869.39999998,NA,NA,570860.80000007,570869.80000007,2023-04-04T16:39:53Z,570896.756,NULL,Niveau,kiwango,d,NA,NA,NA,NA,qt,NA,3,NA,NA,NA,NA,NA,NA,NA,NA,NA,NA,NA,NA,NA,NA,NA,NA,NA,NA,NA
c506c,"""Falsch""-Screen",canvas.Screen,3_0_3_0_2_0_2,NA,NA,timeout,5005.9839999999,570871.80000007,570848.111,570896.756,575886.193,575887.60000002,2023-04-04T16:39:58Z,575902.74,NULL,Niveau,kiwango,d,NA,NA,NA,NA,qt,0,3,NA,NA,NA,NA,NA,NA,NA,NA,NA,NA,NA,NA,NA,NA,NA,NA,NA,NA,NA
c506c,deep,flow.Sequence,3_0_3_0_2_0,NA,NA,completion,14112.37,561759.70000005,561757.171,561773.823,575886.193,575888.10000002,2023-04-04T16:39:58Z,575902.74,NULL,Niveau,kiwango,d,NA,NA,NA,NA,qt,NA,3,NA,NA,NA,NA,NA,NA,NA,NA,NA,NA,NA,NA,NA,NA,NA,NA,NA,NA,NA
c506c,shallow,flow.Sequence,3_0_3_0_2_1,NA,NA,skipped,NA,575888.30000007,NA,NA,575886.193,575888.5,2023-04-04T16:39:58Z,575902.74,NULL,Niveau,kiwango,d,NA,NA,NA,NA,qt,NA,3,NA,NA,NA,NA,NA,NA,NA,NA,NA,NA,NA,NA,NA,NA,NA,NA,NA,NA,NA
c506c,task,flow.Sequence,3_0_3_0_2,NA,NA,completion,14112.37,561759.70000005,561757.171,561773.823,575886.193,575888.70000005,2023-04-04T16:39:58Z,575902.74,NULL,Niveau,kiwango,d,NA,NA,NA,NA,qt,NA,3,NA,NA,NA,NA,NA,NA,NA,NA,NA,NA,NA,NA,NA,NA,NA,NA,NA,NA,NA
c506c,deep,flow.Sequence,3_0_3_0_3_0,NA,NA,skipped,NA,575888.89999998,NA,NA,575886.193,575889,2023-04-04T16:39:58Z,575902.74,NULL,Vorwurf,mashtaka,s,msukumo,mtangulizi,uenyekiti,NA,qt,NA,3,NA,NA,NA,NA,NA,NA,NA,NA,NA,NA,NA,NA,NA,NA,NA,NA,NA,NA,NA
c506c,Shallow Question,html.Page,3_0_3_0_3_1_0,NA,NA,form submission,3897.8600000239,575889.20000005,575886.193,575902.74,579800.60000002,579801.20000005,2023-04-04T16:40:02Z,579802.945,NULL,Vorwurf,mashtaka,s,msukumo,mtangulizi,uenyekiti,mashtaka,NA,NA,3,NA,NA,NA,NA,NA,NA,NA,NA,NA,NA,NA,NA,NA,NA,NA,NA,NA,NA,NA
c506c,"""Richtig""-Screen",canvas.Screen,3_0_3_0_3_1_1,NA,NA,timeout,5004.513,579808.20000005,579789.406,579802.945,584790.919,584792.39999998,2023-04-04T16:40:07Z,584807.458,NULL,Vorwurf,mashtaka,s,msukumo,mtangulizi,uenyekiti,NA,qt,1,3,NA,NA,NA,NA,NA,NA,NA,NA,NA,NA,NA,NA,NA,NA,NA,NA,NA,NA,NA
c506c,"""Falsch""-Screen",canvas.Screen,3_0_3_0_3_1_2,NA,NA,skipped,NA,584799.80000007,NA,NA,584790.919,584800.30000007,2023-04-04T16:40:07Z,584807.458,NULL,Vorwurf,mashtaka,s,msukumo,mtangulizi,uenyekiti,NA,qt,NA,3,NA,NA,NA,NA,NA,NA,NA,NA,NA,NA,NA,NA,NA,NA,NA,NA,NA,NA,NA
c506c,shallow,flow.Sequence,3_0_3_0_3_1,NA,NA,completion,8888.179,575889.10000002,575886.193,575902.74,584790.919,584800.80000007,2023-04-04T16:40:07Z,584807.458,NULL,Vorwurf,mashtaka,s,msukumo,mtangulizi,uenyekiti,NA,qt,NA,3,NA,NA,NA,NA,NA,NA,NA,NA,NA,NA,NA,NA,NA,NA,NA,NA,NA,NA,NA
c506c,task,flow.Sequence,3_0_3_0_3,NA,NA,completion,8888.179,575888.89999998,575886.193,575902.74,584790.919,584801.10000002,2023-04-04T16:40:07Z,584807.458,NULL,Vorwurf,mashtaka,s,msukumo,mtangulizi,uenyekiti,NA,qt,NA,3,NA,NA,NA,NA,NA,NA,NA,NA,NA,NA,NA,NA,NA,NA,NA,NA,NA,NA,NA
c506c,deep,flow.Sequence,3_0_3_0_4_0,NA,NA,skipped,NA,584801.39999998,NA,NA,584790.919,584801.60000002,2023-04-04T16:40:07Z,584807.458,NULL,Übersicht,kilindo,s,mgusano,chipukizi,kulinganisha,NA,qt,NA,3,NA,NA,NA,NA,NA,NA,NA,NA,NA,NA,NA,NA,NA,NA,NA,NA,NA,NA,NA
c506c,Shallow Question,html.Page,3_0_3_0_4_1_0,NA,NA,form submission,5529.042,584801.70000005,584790.919,584807.458,590336.5,590337,2023-04-04T16:40:12Z,590348.188,NULL,Übersicht,kilindo,s,mgusano,chipukizi,kulinganisha,kilindo,NA,NA,3,NA,NA,NA,NA,NA,NA,NA,NA,NA,NA,NA,NA,NA,NA,NA,NA,NA,NA,NA
c506c,"""Richtig""-Screen",canvas.Screen,3_0_3_0_4_1_1,NA,NA,timeout,4997.8690000001,590343.30000007,590331.594,590348.188,595329.502,595330.80000007,2023-04-04T16:40:17Z,595346.057,NULL,Übersicht,kilindo,s,mgusano,chipukizi,kulinganisha,NA,qt,1,3,NA,NA,NA,NA,NA,NA,NA,NA,NA,NA,NA,NA,NA,NA,NA,NA,NA,NA,NA
c506c,"""Falsch""-Screen",canvas.Screen,3_0_3_0_4_1_2,NA,NA,skipped,NA,595337.30000007,NA,NA,595329.502,595337.70000005,2023-04-04T16:40:17Z,595346.057,NULL,Übersicht,kilindo,s,mgusano,chipukizi,kulinganisha,NA,qt,NA,3,NA,NA,NA,NA,NA,NA,NA,NA,NA,NA,NA,NA,NA,NA,NA,NA,NA,NA,NA
c506c,shallow,flow.Sequence,3_0_3_0_4_1,NA,NA,completion,10522.044,584801.70000005,584790.919,584807.458,595329.502,595338.20000005,2023-04-04T16:40:17Z,595346.057,NULL,Übersicht,kilindo,s,mgusano,chipukizi,kulinganisha,NA,qt,NA,3,NA,NA,NA,NA,NA,NA,NA,NA,NA,NA,NA,NA,NA,NA,NA,NA,NA,NA,NA
c506c,task,flow.Sequence,3_0_3_0_4,NA,NA,completion,10522.044,584801.20000005,584790.919,584807.458,595329.502,595338.5,2023-04-04T16:40:17Z,595346.057,NULL,Übersicht,kilindo,s,mgusano,chipukizi,kulinganisha,NA,qt,NA,3,NA,NA,NA,NA,NA,NA,NA,NA,NA,NA,NA,NA,NA,NA,NA,NA,NA,NA,NA
c506c,Deep Question,html.Page,3_0_3_0_5_0_0,NA,NA,form submission,16711.342999976,595338.70000005,595329.502,595346.057,612057.39999998,612057.89999998,2023-04-04T16:40:34Z,612064.598,NULL,Lawine,banguko,d,NA,NA,NA,manguko,NA,NA,3,NA,NA,NA,NA,NA,NA,NA,NA,NA,NA,NA,NA,NA,NA,NA,NA,NA,NA,NA
c506c,"""Richtig""-Screen",canvas.Screen,3_0_3_0_5_0_1,NA,NA,skipped,NA,612067.10000002,NA,NA,612057.39999998,612067.5,2023-04-04T16:40:34Z,612064.598,NULL,Lawine,banguko,d,NA,NA,NA,NA,qt,NA,3,NA,NA,NA,NA,NA,NA,NA,NA,NA,NA,NA,NA,NA,NA,NA,NA,NA,NA,NA
c506c,"""Falsch""-Screen",canvas.Screen,3_0_3_0_5_0_2,NA,NA,timeout,4996.169,612070.39999998,612048.06,612064.598,617044.212,617045.39999998,2023-04-04T16:40:39Z,617060.767,NULL,Lawine,banguko,d,NA,NA,NA,NA,qt,0,3,NA,NA,NA,NA,NA,NA,NA,NA,NA,NA,NA,NA,NA,NA,NA,NA,NA,NA,NA
c506c,deep,flow.Sequence,3_0_3_0_5_0,NA,NA,completion,21698.155,595338.70000005,595329.502,595346.057,617044.212,617046,2023-04-04T16:40:39Z,617060.767,NULL,Lawine,banguko,d,NA,NA,NA,NA,qt,NA,3,NA,NA,NA,NA,NA,NA,NA,NA,NA,NA,NA,NA,NA,NA,NA,NA,NA,NA,NA
c506c,shallow,flow.Sequence,3_0_3_0_5_1,NA,NA,skipped,NA,617046.10000002,NA,NA,617044.212,617046.30000007,2023-04-04T16:40:39Z,617060.767,NULL,Lawine,banguko,d,NA,NA,NA,NA,qt,NA,3,NA,NA,NA,NA,NA,NA,NA,NA,NA,NA,NA,NA,NA,NA,NA,NA,NA,NA,NA
c506c,task,flow.Sequence,3_0_3_0_5,NA,NA,completion,21698.155,595338.60000002,595329.502,595346.057,617044.212,617046.60000002,2023-04-04T16:40:39Z,617060.767,NULL,Lawine,banguko,d,NA,NA,NA,NA,qt,NA,3,NA,NA,NA,NA,NA,NA,NA,NA,NA,NA,NA,NA,NA,NA,NA,NA,NA,NA,NA
c506c,deep,flow.Sequence,3_0_3_0_6_0,NA,NA,skipped,NA,617046.80000007,NA,NA,617044.212,617047,2023-04-04T16:40:39Z,617060.767,NULL,Entwicklung,maendeleo,s,uangavu,mshindwa,badiliko,NA,qt,NA,3,NA,NA,NA,NA,NA,NA,NA,NA,NA,NA,NA,NA,NA,NA,NA,NA,NA,NA,NA
c506c,Shallow Question,html.Page,3_0_3_0_6_1_0,NA,NA,form submission,6226.1329999762,617047.10000002,617044.212,617060.767,623286.89999998,623287.39999998,2023-04-04T16:40:45Z,623289.24,NULL,Entwicklung,maendeleo,s,uangavu,mshindwa,badiliko,maendeleo,NA,NA,3,NA,NA,NA,NA,NA,NA,NA,NA,NA,NA,NA,NA,NA,NA,NA,NA,NA,NA,NA
c506c,"""Richtig""-Screen",canvas.Screen,3_0_3_0_6_1_1,NA,NA,timeout,5004.1460000001,623294.89999998,623279.195,623289.24,628276.832,628278.10000002,2023-04-04T16:40:50Z,628293.386,NULL,Entwicklung,maendeleo,s,uangavu,mshindwa,badiliko,NA,qt,1,3,NA,NA,NA,NA,NA,NA,NA,NA,NA,NA,NA,NA,NA,NA,NA,NA,NA,NA,NA
c506c,"""Falsch""-Screen",canvas.Screen,3_0_3_0_6_1_2,NA,NA,skipped,NA,628284.70000005,NA,NA,628276.832,628285.10000002,2023-04-04T16:40:50Z,628293.386,NULL,Entwicklung,maendeleo,s,uangavu,mshindwa,badiliko,NA,qt,NA,3,NA,NA,NA,NA,NA,NA,NA,NA,NA,NA,NA,NA,NA,NA,NA,NA,NA,NA,NA
c506c,shallow,flow.Sequence,3_0_3_0_6_1,NA,NA,completion,11216.065,617047,617044.212,617060.767,628276.832,628285.5,2023-04-04T16:40:50Z,628293.386,NULL,Entwicklung,maendeleo,s,uangavu,mshindwa,badiliko,NA,qt,NA,3,NA,NA,NA,NA,NA,NA,NA,NA,NA,NA,NA,NA,NA,NA,NA,NA,NA,NA,NA
c506c,task,flow.Sequence,3_0_3_0_6,NA,NA,completion,11216.065,617046.70000005,617044.212,617060.767,628276.832,628285.80000007,2023-04-04T16:40:50Z,628293.386,NULL,Entwicklung,maendeleo,s,uangavu,mshindwa,badiliko,NA,qt,NA,3,NA,NA,NA,NA,NA,NA,NA,NA,NA,NA,NA,NA,NA,NA,NA,NA,NA,NA,NA
c506c,Deep Question,html.Page,3_0_3_0_7_0_0,NA,NA,form submission,7046.0139999761,628286,628276.832,628293.386,635339.39999998,635340,2023-04-04T16:40:57Z,635374.458,NULL,Papier,karatasi,d,NA,NA,NA,karatasi,NA,NA,3,NA,NA,NA,NA,NA,NA,NA,NA,NA,NA,NA,NA,NA,NA,NA,NA,NA,NA,NA
c506c,"""Richtig""-Screen",canvas.Screen,3_0_3_0_7_0_1,NA,NA,timeout,5014.338,635348.70000005,635325.604,635374.458,640355.603,640357,2023-04-04T16:41:02Z,640388.796,NULL,Papier,karatasi,d,NA,NA,NA,NA,qt,1,3,NA,NA,NA,NA,NA,NA,NA,NA,NA,NA,NA,NA,NA,NA,NA,NA,NA,NA,NA
c506c,"""Falsch""-Screen",canvas.Screen,3_0_3_0_7_0_2,NA,NA,skipped,NA,640363.5,NA,NA,640355.603,640364,2023-04-04T16:41:02Z,640388.796,NULL,Papier,karatasi,d,NA,NA,NA,NA,qt,NA,3,NA,NA,NA,NA,NA,NA,NA,NA,NA,NA,NA,NA,NA,NA,NA,NA,NA,NA,NA
c506c,deep,flow.Sequence,3_0_3_0_7_0,NA,NA,completion,12062.217,628286,628276.832,628293.386,640355.603,640364.39999998,2023-04-04T16:41:02Z,640388.796,NULL,Papier,karatasi,d,NA,NA,NA,NA,qt,NA,3,NA,NA,NA,NA,NA,NA,NA,NA,NA,NA,NA,NA,NA,NA,NA,NA,NA,NA,NA
c506c,shallow,flow.Sequence,3_0_3_0_7_1,NA,NA,skipped,NA,640364.60000002,NA,NA,640355.603,640364.80000007,2023-04-04T16:41:02Z,640388.796,NULL,Papier,karatasi,d,NA,NA,NA,NA,qt,NA,3,NA,NA,NA,NA,NA,NA,NA,NA,NA,NA,NA,NA,NA,NA,NA,NA,NA,NA,NA
c506c,task,flow.Sequence,3_0_3_0_7,NA,NA,completion,12062.217,628286,628276.832,628293.386,640355.603,640365,2023-04-04T16:41:02Z,640388.796,NULL,Papier,karatasi,d,NA,NA,NA,NA,qt,NA,3,NA,NA,NA,NA,NA,NA,NA,NA,NA,NA,NA,NA,NA,NA,NA,NA,NA,NA,NA
c506c,block,flow.Loop,3_0_3_0,NA,NA,completion,105346.251,535014.30000007,534884.655,535009.352,640355.603,640365.5,2023-04-04T16:41:02Z,640388.796,NULL,NA,NA,NA,NA,NA,NA,NA,qt,NA,3,NA,NA,NA,NA,NA,NA,NA,NA,NA,NA,NA,NA,NA,NA,NA,NA,NA,NA,NA
c506c,weiter,canvas.Screen,3_0_3_1,sdf,keypress(Space),response,1085.1039999762,640365.80000007,640355.603,640388.796,641473.89999998,641476,2023-04-04T16:41:03Z,641580.563,NULL,NA,NA,NA,NA,NA,NA,NA,qt,NA,3,NA,NA,NA,NA,NA,NA,NA,NA,NA,NA,NA,NA,NA,NA,NA,NA,NA,NA,NA
c506c,check continue,flow.Sequence,3_0_3,NA,NA,completion,106464.54799998,535014.20000005,534884.655,535009.352,641473.89999998,641476.39999998,2023-04-04T16:41:03Z,641580.563,NULL,NA,NA,NA,NA,NA,NA,NA,qt,NA,3,NA,NA,NA,NA,NA,NA,NA,NA,NA,NA,NA,NA,NA,NA,NA,NA,NA,NA,NA
c506c,deep,flow.Sequence,3_0_4_0_0_0,NA,NA,skipped,NA,641578.70000005,NA,NA,641473.89999998,641579,2023-04-04T16:41:04Z,641580.563,NULL,Entwicklung,maendeleo,s,uangavu,mshindwa,badiliko,NA,sd,NA,4,NA,NA,NA,NA,NA,NA,NA,NA,NA,NA,NA,NA,NA,NA,NA,NA,NA,NA,NA
c506c,Shallow Question,html.Page,3_0_4_0_0_1_0,NA,NA,form submission,5396.7370000716,641579.30000007,641472.455,641580.563,646977.30000007,646977.80000007,2023-04-04T16:41:09Z,646979.353,NULL,Entwicklung,maendeleo,s,uangavu,mshindwa,badiliko,maendeleo,NA,NA,4,NA,NA,NA,NA,NA,NA,NA,NA,NA,NA,NA,NA,NA,NA,NA,NA,NA,NA,NA
c506c,"""Richtig""-Screen",canvas.Screen,3_0_4_0_0_1_1,NA,NA,timeout,5015.799,646984.89999998,646970.517,646979.353,651961.952,651963.10000002,2023-04-04T16:41:14Z,651995.152,NULL,Entwicklung,maendeleo,s,uangavu,mshindwa,badiliko,NA,sd,1,4,NA,NA,NA,NA,NA,NA,NA,NA,NA,NA,NA,NA,NA,NA,NA,NA,NA,NA,NA
c506c,"""Falsch""-Screen",canvas.Screen,3_0_4_0_0_1_2,NA,NA,skipped,NA,651969.5,NA,NA,651961.952,651970,2023-04-04T16:41:14Z,651995.152,NULL,Entwicklung,maendeleo,s,uangavu,mshindwa,badiliko,NA,sd,NA,4,NA,NA,NA,NA,NA,NA,NA,NA,NA,NA,NA,NA,NA,NA,NA,NA,NA,NA,NA
c506c,shallow,flow.Sequence,3_0_4_0_0_1,NA,NA,completion,10381.389,641579.20000005,641472.455,641580.563,651961.952,651970.39999998,2023-04-04T16:41:14Z,651995.152,NULL,Entwicklung,maendeleo,s,uangavu,mshindwa,badiliko,NA,sd,NA,4,NA,NA,NA,NA,NA,NA,NA,NA,NA,NA,NA,NA,NA,NA,NA,NA,NA,NA,NA
c506c,task,flow.Sequence,3_0_4_0_0,NA,NA,completion,10381.389,641578.60000002,641472.455,641580.563,651961.952,651970.60000002,2023-04-04T16:41:14Z,651995.152,NULL,Entwicklung,maendeleo,s,uangavu,mshindwa,badiliko,NA,sd,NA,4,NA,NA,NA,NA,NA,NA,NA,NA,NA,NA,NA,NA,NA,NA,NA,NA,NA,NA,NA
c506c,deep,flow.Sequence,3_0_4_0_1_0,NA,NA,skipped,NA,651970.80000007,NA,NA,651961.952,651971,2023-04-04T16:41:14Z,651995.152,NULL,Körper,kiwiliwili,s,mapambano,mpatanishi,kiolezo,NA,sd,NA,4,NA,NA,NA,NA,NA,NA,NA,NA,NA,NA,NA,NA,NA,NA,NA,NA,NA,NA,NA
c506c,Shallow Question,html.Page,3_0_4_0_1_1_0,NA,NA,form submission,4592.848,651971.10000002,651961.952,651995.152,656588,656588.70000005,2023-04-04T16:41:19Z,656589.983,NULL,Körper,kiwiliwili,s,mapambano,mpatanishi,kiolezo,kiwiliwili,NA,NA,4,NA,NA,NA,NA,NA,NA,NA,NA,NA,NA,NA,NA,NA,NA,NA,NA,NA,NA,NA
c506c,"""Richtig""-Screen",canvas.Screen,3_0_4_0_1_1_1,NA,NA,timeout,5006.576,656595.89999998,656583.805,656589.983,661580.033,661581.39999998,2023-04-04T16:41:24Z,661596.559,NULL,Körper,kiwiliwili,s,mapambano,mpatanishi,kiolezo,NA,sd,1,4,NA,NA,NA,NA,NA,NA,NA,NA,NA,NA,NA,NA,NA,NA,NA,NA,NA,NA,NA
c506c,"""Falsch""-Screen",canvas.Screen,3_0_4_0_1_1_2,NA,NA,skipped,NA,661588.10000002,NA,NA,661580.033,661588.5,2023-04-04T16:41:24Z,661596.559,NULL,Körper,kiwiliwili,s,mapambano,mpatanishi,kiolezo,NA,sd,NA,4,NA,NA,NA,NA,NA,NA,NA,NA,NA,NA,NA,NA,NA,NA,NA,NA,NA,NA,NA
c506c,shallow,flow.Sequence,3_0_4_0_1_1,NA,NA,completion,9584.8810000001,651971.10000002,651961.952,651995.152,661580.033,661588.80000007,2023-04-04T16:41:24Z,661596.559,NULL,Körper,kiwiliwili,s,mapambano,mpatanishi,kiolezo,NA,sd,NA,4,NA,NA,NA,NA,NA,NA,NA,NA,NA,NA,NA,NA,NA,NA,NA,NA,NA,NA,NA
c506c,task,flow.Sequence,3_0_4_0_1,NA,NA,completion,9584.8810000001,651970.80000007,651961.952,651995.152,661580.033,661589.10000002,2023-04-04T16:41:24Z,661596.559,NULL,Körper,kiwiliwili,s,mapambano,mpatanishi,kiolezo,NA,sd,NA,4,NA,NA,NA,NA,NA,NA,NA,NA,NA,NA,NA,NA,NA,NA,NA,NA,NA,NA,NA
c506c,deep,flow.Sequence,3_0_4_0_2_0,NA,NA,skipped,NA,661589.39999998,NA,NA,661580.033,661589.5,2023-04-04T16:41:24Z,661596.559,NULL,Übersicht,kilindo,s,mgusano,chipukizi,kulinganisha,NA,sd,NA,4,NA,NA,NA,NA,NA,NA,NA,NA,NA,NA,NA,NA,NA,NA,NA,NA,NA,NA,NA
c506c,Shallow Question,html.Page,3_0_4_0_2_1_0,NA,NA,form submission,5347.0410000238,661589.70000005,661580.033,661596.559,666943.60000002,666944.10000002,2023-04-04T16:41:29Z,666946.036,NULL,Übersicht,kilindo,s,mgusano,chipukizi,kulinganisha,kilindo,NA,NA,4,NA,NA,NA,NA,NA,NA,NA,NA,NA,NA,NA,NA,NA,NA,NA,NA,NA,NA,NA
c506c,"""Richtig""-Screen",canvas.Screen,3_0_4_0_2_1_1,NA,NA,timeout,5023.032,666951.10000002,666936.748,666946.036,671935.89,671937.10000002,2023-04-04T16:41:34Z,671969.068,NULL,Übersicht,kilindo,s,mgusano,chipukizi,kulinganisha,NA,sd,1,4,NA,NA,NA,NA,NA,NA,NA,NA,NA,NA,NA,NA,NA,NA,NA,NA,NA,NA,NA
c506c,"""Falsch""-Screen",canvas.Screen,3_0_4_0_2_1_2,NA,NA,skipped,NA,671943.5,NA,NA,671935.89,671943.89999998,2023-04-04T16:41:34Z,671969.068,NULL,Übersicht,kilindo,s,mgusano,chipukizi,kulinganisha,NA,sd,NA,4,NA,NA,NA,NA,NA,NA,NA,NA,NA,NA,NA,NA,NA,NA,NA,NA,NA,NA,NA
c506c,shallow,flow.Sequence,3_0_4_0_2_1,NA,NA,completion,10339.331,661589.60000002,661580.033,661596.559,671935.89,671944.30000007,2023-04-04T16:41:34Z,671969.068,NULL,Übersicht,kilindo,s,mgusano,chipukizi,kulinganisha,NA,sd,NA,4,NA,NA,NA,NA,NA,NA,NA,NA,NA,NA,NA,NA,NA,NA,NA,NA,NA,NA,NA
c506c,task,flow.Sequence,3_0_4_0_2,NA,NA,completion,10339.331,661589.30000007,661580.033,661596.559,671935.89,671944.60000002,2023-04-04T16:41:34Z,671969.068,NULL,Übersicht,kilindo,s,mgusano,chipukizi,kulinganisha,NA,sd,NA,4,NA,NA,NA,NA,NA,NA,NA,NA,NA,NA,NA,NA,NA,NA,NA,NA,NA,NA,NA
c506c,Deep Question,html.Page,3_0_4_0_3_0_0,NA,NA,form submission,7238.0320000239,671944.80000007,671935.89,671969.068,679207.10000002,679207.70000005,2023-04-04T16:41:41Z,679209.291,NULL,Papier,karatasi,d,NA,NA,NA,karatasi,NA,NA,4,NA,NA,NA,NA,NA,NA,NA,NA,NA,NA,NA,NA,NA,NA,NA,NA,NA,NA,NA
c506c,"""Richtig""-Screen",canvas.Screen,3_0_4_0_3_0_1,NA,NA,timeout,5007.0850000001,679216.20000005,679190.808,679209.291,684199.86,684201.20000005,2023-04-04T16:41:46Z,684216.376,NULL,Papier,karatasi,d,NA,NA,NA,NA,sd,1,4,NA,NA,NA,NA,NA,NA,NA,NA,NA,NA,NA,NA,NA,NA,NA,NA,NA,NA,NA
c506c,"""Falsch""-Screen",canvas.Screen,3_0_4_0_3_0_2,NA,NA,skipped,NA,684207.89999998,NA,NA,684199.86,684208.30000007,2023-04-04T16:41:46Z,684216.376,NULL,Papier,karatasi,d,NA,NA,NA,NA,sd,NA,4,NA,NA,NA,NA,NA,NA,NA,NA,NA,NA,NA,NA,NA,NA,NA,NA,NA,NA,NA
c506c,deep,flow.Sequence,3_0_4_0_3_0,NA,NA,completion,12230.792,671944.80000007,671935.89,671969.068,684199.86,684208.70000005,2023-04-04T16:41:46Z,684216.376,NULL,Papier,karatasi,d,NA,NA,NA,NA,sd,NA,4,NA,NA,NA,NA,NA,NA,NA,NA,NA,NA,NA,NA,NA,NA,NA,NA,NA,NA,NA
c506c,shallow,flow.Sequence,3_0_4_0_3_1,NA,NA,skipped,NA,684208.89999998,NA,NA,684199.86,684209.10000002,2023-04-04T16:41:46Z,684216.376,NULL,Papier,karatasi,d,NA,NA,NA,NA,sd,NA,4,NA,NA,NA,NA,NA,NA,NA,NA,NA,NA,NA,NA,NA,NA,NA,NA,NA,NA,NA
c506c,task,flow.Sequence,3_0_4_0_3,NA,NA,completion,12230.792,671944.70000005,671935.89,671969.068,684199.86,684209.30000007,2023-04-04T16:41:46Z,684216.376,NULL,Papier,karatasi,d,NA,NA,NA,NA,sd,NA,4,NA,NA,NA,NA,NA,NA,NA,NA,NA,NA,NA,NA,NA,NA,NA,NA,NA,NA,NA
c506c,Deep Question,html.Page,3_0_4_0_4_0_0,NA,NA,form submission,15595.624,684209.5,684199.86,684216.376,699812,699812.39999998,2023-04-04T16:42:02Z,699852.775,NULL,Niveau,kiwango,d,NA,NA,NA,m,NA,NA,4,NA,NA,NA,NA,NA,NA,NA,NA,NA,NA,NA,NA,NA,NA,NA,NA,NA,NA,NA
c506c,"""Richtig""-Screen",canvas.Screen,3_0_4_0_4_0_1,NA,NA,skipped,NA,699822.60000002,NA,NA,699812,699823,2023-04-04T16:42:02Z,699852.775,NULL,Niveau,kiwango,d,NA,NA,NA,NA,sd,NA,4,NA,NA,NA,NA,NA,NA,NA,NA,NA,NA,NA,NA,NA,NA,NA,NA,NA,NA,NA
c506c,"""Falsch""-Screen",canvas.Screen,3_0_4_0_4_0_2,NA,NA,timeout,5005.47,699825,699797.631,699852.775,704841.587,704842.89999998,2023-04-04T16:42:07Z,704858.245,NULL,Niveau,kiwango,d,NA,NA,NA,NA,sd,0,4,NA,NA,NA,NA,NA,NA,NA,NA,NA,NA,NA,NA,NA,NA,NA,NA,NA,NA,NA
c506c,deep,flow.Sequence,3_0_4_0_4_0,NA,NA,completion,20625.211,684209.5,684199.86,684216.376,704841.587,704843.39999998,2023-04-04T16:42:07Z,704858.245,NULL,Niveau,kiwango,d,NA,NA,NA,NA,sd,NA,4,NA,NA,NA,NA,NA,NA,NA,NA,NA,NA,NA,NA,NA,NA,NA,NA,NA,NA,NA
c506c,shallow,flow.Sequence,3_0_4_0_4_1,NA,NA,skipped,NA,704843.60000002,NA,NA,704841.587,704843.80000007,2023-04-04T16:42:07Z,704858.245,NULL,Niveau,kiwango,d,NA,NA,NA,NA,sd,NA,4,NA,NA,NA,NA,NA,NA,NA,NA,NA,NA,NA,NA,NA,NA,NA,NA,NA,NA,NA
c506c,task,flow.Sequence,3_0_4_0_4,NA,NA,completion,20625.211,684209.39999998,684199.86,684216.376,704841.587,704844.10000002,2023-04-04T16:42:07Z,704858.245,NULL,Niveau,kiwango,d,NA,NA,NA,NA,sd,NA,4,NA,NA,NA,NA,NA,NA,NA,NA,NA,NA,NA,NA,NA,NA,NA,NA,NA,NA,NA
c506c,Deep Question,html.Page,3_0_4_0_5_0_0,NA,NA,form submission,9367.1549999762,704844.30000007,704841.587,704858.245,714225.39999998,714225.89999998,2023-04-04T16:42:16Z,714227.771,NULL,Lawine,banguko,d,NA,NA,NA,banguko,NA,NA,4,NA,NA,NA,NA,NA,NA,NA,NA,NA,NA,NA,NA,NA,NA,NA,NA,NA,NA,NA
c506c,"""Richtig""-Screen",canvas.Screen,3_0_4_0_5_0_1,NA,NA,timeout,5007.162,714235.10000002,714210.782,714227.771,719218.404,719219.70000005,2023-04-04T16:42:21Z,719234.933,NULL,Lawine,banguko,d,NA,NA,NA,NA,sd,1,4,NA,NA,NA,NA,NA,NA,NA,NA,NA,NA,NA,NA,NA,NA,NA,NA,NA,NA,NA
c506c,"""Falsch""-Screen",canvas.Screen,3_0_4_0_5_0_2,NA,NA,skipped,NA,719226.70000005,NA,NA,719218.404,719227.10000002,2023-04-04T16:42:21Z,719234.933,NULL,Lawine,banguko,d,NA,NA,NA,NA,sd,NA,4,NA,NA,NA,NA,NA,NA,NA,NA,NA,NA,NA,NA,NA,NA,NA,NA,NA,NA,NA
c506c,deep,flow.Sequence,3_0_4_0_5_0,NA,NA,completion,14360.159,704844.20000005,704841.587,704858.245,719218.404,719227.39999998,2023-04-04T16:42:21Z,719234.933,NULL,Lawine,banguko,d,NA,NA,NA,NA,sd,NA,4,NA,NA,NA,NA,NA,NA,NA,NA,NA,NA,NA,NA,NA,NA,NA,NA,NA,NA,NA
c506c,shallow,flow.Sequence,3_0_4_0_5_1,NA,NA,skipped,NA,719227.60000002,NA,NA,719218.404,719227.80000007,2023-04-04T16:42:21Z,719234.933,NULL,Lawine,banguko,d,NA,NA,NA,NA,sd,NA,4,NA,NA,NA,NA,NA,NA,NA,NA,NA,NA,NA,NA,NA,NA,NA,NA,NA,NA,NA
c506c,task,flow.Sequence,3_0_4_0_5,NA,NA,completion,14360.159,704844.20000005,704841.587,704858.245,719218.404,719228.10000002,2023-04-04T16:42:21Z,719234.933,NULL,Lawine,banguko,d,NA,NA,NA,NA,sd,NA,4,NA,NA,NA,NA,NA,NA,NA,NA,NA,NA,NA,NA,NA,NA,NA,NA,NA,NA,NA
c506c,Deep Question,html.Page,3_0_4_0_6_0_0,NA,NA,form submission,9609.7670000477,719228.39999998,719218.404,719234.933,728844.70000005,728845.20000005,2023-04-04T16:42:31Z,728847.328,NULL,System,maongozi,d,NA,NA,NA,ma,NA,NA,4,NA,NA,NA,NA,NA,NA,NA,NA,NA,NA,NA,NA,NA,NA,NA,NA,NA,NA,NA
c506c,"""Richtig""-Screen",canvas.Screen,3_0_4_0_6_0_1,NA,NA,skipped,NA,728853.89999998,NA,NA,728844.70000005,728854.30000007,2023-04-04T16:42:31Z,728847.328,NULL,System,maongozi,d,NA,NA,NA,NA,sd,NA,4,NA,NA,NA,NA,NA,NA,NA,NA,NA,NA,NA,NA,NA,NA,NA,NA,NA,NA,NA
c506c,"""Falsch""-Screen",canvas.Screen,3_0_4_0_6_0_2,NA,NA,timeout,5009.137,728856.30000007,728841.779,728847.328,733823.302,733824.5,2023-04-04T16:42:36Z,733856.465,NULL,System,maongozi,d,NA,NA,NA,NA,sd,0,4,NA,NA,NA,NA,NA,NA,NA,NA,NA,NA,NA,NA,NA,NA,NA,NA,NA,NA,NA
c506c,deep,flow.Sequence,3_0_4_0_6_0,NA,NA,completion,14588.369,719228.30000007,719218.404,719234.933,733823.302,733825.10000002,2023-04-04T16:42:36Z,733856.465,NULL,System,maongozi,d,NA,NA,NA,NA,sd,NA,4,NA,NA,NA,NA,NA,NA,NA,NA,NA,NA,NA,NA,NA,NA,NA,NA,NA,NA,NA
c506c,shallow,flow.Sequence,3_0_4_0_6_1,NA,NA,skipped,NA,733825.30000007,NA,NA,733823.302,733825.5,2023-04-04T16:42:36Z,733856.465,NULL,System,maongozi,d,NA,NA,NA,NA,sd,NA,4,NA,NA,NA,NA,NA,NA,NA,NA,NA,NA,NA,NA,NA,NA,NA,NA,NA,NA,NA
c506c,task,flow.Sequence,3_0_4_0_6,NA,NA,completion,14588.369,719228.20000005,719218.404,719234.933,733823.302,733825.80000007,2023-04-04T16:42:36Z,733856.465,NULL,System,maongozi,d,NA,NA,NA,NA,sd,NA,4,NA,NA,NA,NA,NA,NA,NA,NA,NA,NA,NA,NA,NA,NA,NA,NA,NA,NA,NA
c506c,deep,flow.Sequence,3_0_4_0_7_0,NA,NA,skipped,NA,733825.89999998,NA,NA,733823.302,733826.10000002,2023-04-04T16:42:36Z,733856.465,NULL,Vorwurf,mashtaka,s,msukumo,mtangulizi,uenyekiti,NA,sd,NA,4,NA,NA,NA,NA,NA,NA,NA,NA,NA,NA,NA,NA,NA,NA,NA,NA,NA,NA,NA
c506c,Shallow Question,html.Page,3_0_4_0_7_1_0,NA,NA,form submission,6204.035,733826.30000007,733823.302,733856.465,740060.5,740061,2023-04-04T16:42:42Z,740063.159,NULL,Vorwurf,mashtaka,s,msukumo,mtangulizi,uenyekiti,mashtaka,NA,NA,4,NA,NA,NA,NA,NA,NA,NA,NA,NA,NA,NA,NA,NA,NA,NA,NA,NA,NA,NA
c506c,"""Richtig""-Screen",canvas.Screen,3_0_4_0_7_1_1,NA,NA,timeout,4996.844,740068.5,740046.597,740063.159,745043.322,745044.60000002,2023-04-04T16:42:47Z,745060.003,NULL,Vorwurf,mashtaka,s,msukumo,mtangulizi,uenyekiti,NA,sd,1,4,NA,NA,NA,NA,NA,NA,NA,NA,NA,NA,NA,NA,NA,NA,NA,NA,NA,NA,NA
c506c,"""Falsch""-Screen",canvas.Screen,3_0_4_0_7_1_2,NA,NA,skipped,NA,745051.5,NA,NA,745043.322,745051.89999998,2023-04-04T16:42:47Z,745060.003,NULL,Vorwurf,mashtaka,s,msukumo,mtangulizi,uenyekiti,NA,sd,NA,4,NA,NA,NA,NA,NA,NA,NA,NA,NA,NA,NA,NA,NA,NA,NA,NA,NA,NA,NA
c506c,shallow,flow.Sequence,3_0_4_0_7_1,NA,NA,completion,11186.857,733826.30000007,733823.302,733856.465,745043.322,745052.39999998,2023-04-04T16:42:47Z,745060.003,NULL,Vorwurf,mashtaka,s,msukumo,mtangulizi,uenyekiti,NA,sd,NA,4,NA,NA,NA,NA,NA,NA,NA,NA,NA,NA,NA,NA,NA,NA,NA,NA,NA,NA,NA
c506c,task,flow.Sequence,3_0_4_0_7,NA,NA,completion,11186.857,733825.89999998,733823.302,733856.465,745043.322,745052.60000002,2023-04-04T16:42:47Z,745060.003,NULL,Vorwurf,mashtaka,s,msukumo,mtangulizi,uenyekiti,NA,sd,NA,4,NA,NA,NA,NA,NA,NA,NA,NA,NA,NA,NA,NA,NA,NA,NA,NA,NA,NA,NA
c506c,block,flow.Loop,3_0_4_0,NA,NA,completion,103462.759,641578.60000002,641472.455,641580.563,745043.322,745052.89999998,2023-04-04T16:42:47Z,745060.003,NULL,NA,NA,NA,NA,NA,NA,NA,sd,NA,4,NA,NA,NA,NA,NA,NA,NA,NA,NA,NA,NA,NA,NA,NA,NA,NA,NA,NA,NA
c506c,weiter,canvas.Screen,3_0_4_1,sdf,keypress(Space),response,940.69700004766,745053.10000002,745043.322,745060.003,746000.70000005,746002.80000007,2023-04-04T16:42:48Z,746857.57,NULL,NA,NA,NA,NA,NA,NA,NA,sd,NA,4,NA,NA,NA,NA,NA,NA,NA,NA,NA,NA,NA,NA,NA,NA,NA,NA,NA,NA,NA
c506c,check continue,flow.Sequence,3_0_4,NA,NA,completion,104420.13700005,641578.5,641472.455,641580.563,746000.70000005,746003.20000005,2023-04-04T16:42:48Z,746857.57,NULL,NA,NA,NA,NA,NA,NA,NA,sd,NA,4,NA,NA,NA,NA,NA,NA,NA,NA,NA,NA,NA,NA,NA,NA,NA,NA,NA,NA,NA
c506c,check continue,flow.Sequence,3_0_5,NA,NA,skipped,NA,746127.10000002,NA,NA,746000.70000005,746127.60000002,2023-04-04T16:42:48Z,746857.57,NULL,NA,NA,NA,NA,NA,NA,NA,sdf,NA,5,NA,NA,NA,NA,NA,NA,NA,NA,NA,NA,NA,NA,NA,NA,NA,NA,NA,NA,NA
c506c,check continue,flow.Sequence,3_0_6,NA,NA,skipped,NA,746189.60000002,NA,NA,746000.70000005,746189.80000007,2023-04-04T16:42:48Z,746857.57,NULL,NA,NA,NA,NA,NA,NA,NA,dfs,NA,6,NA,NA,NA,NA,NA,NA,NA,NA,NA,NA,NA,NA,NA,NA,NA,NA,NA,NA,NA
c506c,check continue,flow.Sequence,3_0_7,NA,NA,skipped,NA,746216.60000002,NA,NA,746000.70000005,746216.60000002,2023-04-04T16:42:48Z,746857.57,NULL,NA,NA,NA,NA,NA,NA,NA,df,NA,7,NA,NA,NA,NA,NA,NA,NA,NA,NA,NA,NA,NA,NA,NA,NA,NA,NA,NA,NA
c506c,check continue,flow.Sequence,3_0_8,NA,NA,skipped,NA,746242.70000005,NA,NA,746000.70000005,746242.70000005,2023-04-04T16:42:48Z,746857.57,NULL,NA,NA,NA,NA,NA,NA,NA,dfs,NA,8,NA,NA,NA,NA,NA,NA,NA,NA,NA,NA,NA,NA,NA,NA,NA,NA,NA,NA,NA
c506c,check continue,flow.Sequence,3_0_9,NA,NA,skipped,NA,746267.89999998,NA,NA,746000.70000005,746268,2023-04-04T16:42:48Z,746857.57,NULL,NA,NA,NA,NA,NA,NA,NA,dsf,NA,9,NA,NA,NA,NA,NA,NA,NA,NA,NA,NA,NA,NA,NA,NA,NA,NA,NA,NA,NA
c506c,check continue,flow.Sequence,3_0_10,NA,NA,skipped,NA,746300.80000007,NA,NA,746000.70000005,746300.89999998,2023-04-04T16:42:48Z,746857.57,NULL,NA,NA,NA,NA,NA,NA,NA,df,NA,10,NA,NA,NA,NA,NA,NA,NA,NA,NA,NA,NA,NA,NA,NA,NA,NA,NA,NA,NA
c506c,check continue,flow.Sequence,3_0_11,NA,NA,skipped,NA,746330.80000007,NA,NA,746000.70000005,746331,2023-04-04T16:42:48Z,746857.57,NULL,NA,NA,NA,NA,NA,NA,NA,dfs,NA,11,NA,NA,NA,NA,NA,NA,NA,NA,NA,NA,NA,NA,NA,NA,NA,NA,NA,NA,NA
c506c,check continue,flow.Sequence,3_0_12,NA,NA,skipped,NA,746365.20000005,NA,NA,746000.70000005,746365.39999998,2023-04-04T16:42:48Z,746857.57,NULL,NA,NA,NA,NA,NA,NA,NA,dsf,NA,12,NA,NA,NA,NA,NA,NA,NA,NA,NA,NA,NA,NA,NA,NA,NA,NA,NA,NA,NA
c506c,check continue,flow.Sequence,3_0_13,NA,NA,skipped,NA,746394.80000007,NA,NA,746000.70000005,746395,2023-04-04T16:42:48Z,746857.57,NULL,NA,NA,NA,NA,NA,NA,NA,dsf,NA,13,NA,NA,NA,NA,NA,NA,NA,NA,NA,NA,NA,NA,NA,NA,NA,NA,NA,NA,NA
c506c,check continue,flow.Sequence,3_0_14,NA,NA,skipped,NA,746430.70000005,NA,NA,746000.70000005,746430.89999998,2023-04-04T16:42:48Z,746857.57,NULL,NA,NA,NA,NA,NA,NA,NA,NA,NA,14,NA,NA,NA,NA,NA,NA,NA,NA,NA,NA,NA,NA,NA,NA,NA,NA,NA,NA,NA
c506c,check continue,flow.Sequence,3_0_15,NA,NA,skipped,NA,746460.60000002,NA,NA,746000.70000005,746460.80000007,2023-04-04T16:42:48Z,746857.57,NULL,NA,NA,NA,NA,NA,NA,NA,NA,NA,15,NA,NA,NA,NA,NA,NA,NA,NA,NA,NA,NA,NA,NA,NA,NA,NA,NA,NA,NA
c506c,check continue,flow.Sequence,3_0_16,NA,NA,skipped,NA,746492.80000007,NA,NA,746000.70000005,746492.89999998,2023-04-04T16:42:48Z,746857.57,NULL,NA,NA,NA,NA,NA,NA,NA,NA,NA,16,NA,NA,NA,NA,NA,NA,NA,NA,NA,NA,NA,NA,NA,NA,NA,NA,NA,NA,NA
c506c,check continue,flow.Sequence,3_0_17,NA,NA,skipped,NA,746521,NA,NA,746000.70000005,746521.20000005,2023-04-04T16:42:48Z,746857.57,NULL,NA,NA,NA,NA,NA,NA,NA,NA,NA,17,NA,NA,NA,NA,NA,NA,NA,NA,NA,NA,NA,NA,NA,NA,NA,NA,NA,NA,NA
c506c,check continue,flow.Sequence,3_0_18,NA,NA,skipped,NA,746553.20000005,NA,NA,746000.70000005,746553.39999998,2023-04-04T16:42:49Z,746857.57,NULL,NA,NA,NA,NA,NA,NA,NA,NA,NA,18,NA,NA,NA,NA,NA,NA,NA,NA,NA,NA,NA,NA,NA,NA,NA,NA,NA,NA,NA
c506c,check continue,flow.Sequence,3_0_19,NA,NA,skipped,NA,746587.80000007,NA,NA,746000.70000005,746587.80000007,2023-04-04T16:42:49Z,746857.57,NULL,NA,NA,NA,NA,NA,NA,NA,NA,NA,19,NA,NA,NA,NA,NA,NA,NA,NA,NA,NA,NA,NA,NA,NA,NA,NA,NA,NA,NA
c506c,check continue,flow.Sequence,3_0_20,NA,NA,skipped,NA,746609.89999998,NA,NA,746000.70000005,746610.10000002,2023-04-04T16:42:49Z,746857.57,NULL,NA,NA,NA,NA,NA,NA,NA,NA,NA,20,NA,NA,NA,NA,NA,NA,NA,NA,NA,NA,NA,NA,NA,NA,NA,NA,NA,NA,NA
c506c,check continue,flow.Sequence,3_0_21,NA,NA,skipped,NA,746634.80000007,NA,NA,746000.70000005,746634.80000007,2023-04-04T16:42:49Z,746857.57,NULL,NA,NA,NA,NA,NA,NA,NA,NA,NA,21,NA,NA,NA,NA,NA,NA,NA,NA,NA,NA,NA,NA,NA,NA,NA,NA,NA,NA,NA
c506c,check continue,flow.Sequence,3_0_22,NA,NA,skipped,NA,746654.5,NA,NA,746000.70000005,746654.70000005,2023-04-04T16:42:49Z,746857.57,NULL,NA,NA,NA,NA,NA,NA,NA,NA,NA,22,NA,NA,NA,NA,NA,NA,NA,NA,NA,NA,NA,NA,NA,NA,NA,NA,NA,NA,NA
c506c,check continue,flow.Sequence,3_0_23,NA,NA,skipped,NA,746676.30000007,NA,NA,746000.70000005,746676.39999998,2023-04-04T16:42:49Z,746857.57,NULL,NA,NA,NA,NA,NA,NA,NA,NA,NA,23,NA,NA,NA,NA,NA,NA,NA,NA,NA,NA,NA,NA,NA,NA,NA,NA,NA,NA,NA
c506c,check continue,flow.Sequence,3_0_24,NA,NA,skipped,NA,746696.20000005,NA,NA,746000.70000005,746696.39999998,2023-04-04T16:42:49Z,746857.57,NULL,NA,NA,NA,NA,NA,NA,NA,NA,NA,24,NA,NA,NA,NA,NA,NA,NA,NA,NA,NA,NA,NA,NA,NA,NA,NA,NA,NA,NA
c506c,check continue,flow.Sequence,3_0_25,NA,NA,skipped,NA,746722.10000002,NA,NA,746000.70000005,746722.30000007,2023-04-04T16:42:49Z,746857.57,NULL,NA,NA,NA,NA,NA,NA,NA,NA,NA,25,NA,NA,NA,NA,NA,NA,NA,NA,NA,NA,NA,NA,NA,NA,NA,NA,NA,NA,NA
c506c,check continue,flow.Sequence,3_0_26,NA,NA,skipped,NA,746749.89999998,NA,NA,746000.70000005,746750.20000005,2023-04-04T16:42:49Z,746857.57,NULL,NA,NA,NA,NA,NA,NA,NA,NA,NA,26,NA,NA,NA,NA,NA,NA,NA,NA,NA,NA,NA,NA,NA,NA,NA,NA,NA,NA,NA
c506c,check continue,flow.Sequence,3_0_27,NA,NA,skipped,NA,746796.60000002,NA,NA,746000.70000005,746797.20000005,2023-04-04T16:42:49Z,746857.57,NULL,NA,NA,NA,NA,NA,NA,NA,NA,NA,27,NA,NA,NA,NA,NA,NA,NA,NA,NA,NA,NA,NA,NA,NA,NA,NA,NA,NA,NA
c506c,check continue,flow.Sequence,3_0_28,NA,NA,skipped,NA,746835.60000002,NA,NA,746000.70000005,746835.80000007,2023-04-04T16:42:49Z,746857.57,NULL,NA,NA,NA,NA,NA,NA,NA,NA,NA,28,NA,NA,NA,NA,NA,NA,NA,NA,NA,NA,NA,NA,NA,NA,NA,NA,NA,NA,NA
c506c,check continue,flow.Sequence,3_0_29,NA,NA,skipped,NA,746863.89999998,NA,NA,746000.70000005,746864,2023-04-04T16:42:49Z,746857.57,NULL,NA,NA,NA,NA,NA,NA,NA,NA,NA,29,NA,NA,NA,NA,NA,NA,NA,NA,NA,NA,NA,NA,NA,NA,NA,NA,NA,NA,NA
c506c,until continue,flow.Loop,3_0,NA,NA,completion,529930.33000005,216034.60000002,215843.681,216070.37,746000.70000005,746864.20000005,2023-04-04T16:42:49Z,746857.57,NULL,NA,NA,NA,NA,NA,NA,NA,NA,NA,NA,NA,NA,NA,NA,NA,NA,NA,NA,NA,NA,NA,NA,NA,NA,NA,NA,NA,NA,NA
c506c,block 1,flow.Sequence,3,NA,NA,completion,529930.33000005,216034.39999998,215843.681,216070.37,746000.70000005,746864.39999998,2023-04-04T16:42:49Z,746857.57,NULL,NA,NA,NA,NA,NA,NA,NA,NA,NA,NA,NA,NA,NA,NA,NA,NA,NA,NA,NA,NA,NA,NA,NA,NA,NA,NA,NA,NA,NA
c506c,1.Part Over,canvas.Screen,4,NA,keypress(Space),response,6015.1300000477,746864.5,745998.375,746857.57,752872.70000005,752874.30000007,2023-04-04T16:42:55Z,753041.964,NULL,NA,NA,NA,NA,NA,NA,NA,NA,NA,NA,NA,NA,NA,NA,NA,NA,NA,NA,NA,NA,NA,NA,NA,NA,NA,NA,NA,NA,NA
c506c,Deep Question,html.Page,5_0_0_0_0_0_0,NA,NA,form submission,4568.1360000238,753036.10000002,753025.543,753041.964,757610.10000002,757610.5,2023-04-04T16:43:00Z,757612.733,NULL,Prüfung,mtihani,d,NA,NA,NA,g,NA,NA,0,NA,NA,NA,NA,NA,NA,NA,NA,NA,NA,NA,NA,NA,NA,NA,NA,NA,NA,NA
c506c,"""Richtig""-Screen",canvas.Screen,5_0_0_0_0_0_1,NA,NA,skipped,NA,757618.89999998,NA,NA,757610.10000002,757619.30000007,2023-04-04T16:43:00Z,757612.733,NULL,Prüfung,mtihani,d,NA,NA,NA,NA,sdf,NA,0,NA,NA,NA,NA,NA,NA,NA,NA,NA,NA,NA,NA,NA,NA,NA,NA,NA,NA,NA
c506c,"""Falsch""-Screen",canvas.Screen,5_0_0_0_0_0_2,NA,NA,timeout,5007.2879999999,757621.20000005,757596.066,757612.733,762603.506,762604.80000007,2023-04-04T16:43:05Z,762620.021,NULL,Prüfung,mtihani,d,NA,NA,NA,NA,sdf,0,0,NA,NA,NA,NA,NA,NA,NA,NA,NA,NA,NA,NA,NA,NA,NA,NA,NA,NA,NA
c506c,deep,flow.Sequence,5_0_0_0_0_0,NA,NA,completion,9561.542,753036.10000002,753025.543,753041.964,762603.506,762605.20000005,2023-04-04T16:43:05Z,762620.021,NULL,Prüfung,mtihani,d,NA,NA,NA,NA,sdf,NA,0,NA,NA,NA,NA,NA,NA,NA,NA,NA,NA,NA,NA,NA,NA,NA,NA,NA,NA,NA
c506c,shallow,flow.Sequence,5_0_0_0_0_1,NA,NA,skipped,NA,762605.30000007,NA,NA,762603.506,762605.39999998,2023-04-04T16:43:05Z,762620.021,NULL,Prüfung,mtihani,d,NA,NA,NA,NA,sdf,NA,0,NA,NA,NA,NA,NA,NA,NA,NA,NA,NA,NA,NA,NA,NA,NA,NA,NA,NA,NA
c506c,task,flow.Sequence,5_0_0_0_0,NA,NA,completion,9561.542,753036,753025.543,753041.964,762603.506,762605.70000005,2023-04-04T16:43:05Z,762620.021,NULL,Prüfung,mtihani,d,NA,NA,NA,NA,sdf,NA,0,NA,NA,NA,NA,NA,NA,NA,NA,NA,NA,NA,NA,NA,NA,NA,NA,NA,NA,NA
c506c,deep,flow.Sequence,5_0_0_0_1_0,NA,NA,skipped,NA,762605.80000007,NA,NA,762603.506,762606,2023-04-04T16:43:05Z,762620.021,NULL,Verzögerung,kuchelewa,s,mwakilishi,mwanauchumi,jaribio,NA,sdf,NA,0,NA,NA,NA,NA,NA,NA,NA,NA,NA,NA,NA,NA,NA,NA,NA,NA,NA,NA,NA
c506c,Shallow Question,html.Page,5_0_0_0_1_1_0,NA,NA,form submission,6848.7790000716,762606.20000005,762603.506,762620.021,769468.80000007,769469.30000007,2023-04-04T16:43:11Z,769554.297,NULL,Verzögerung,kuchelewa,s,mwakilishi,mwanauchumi,jaribio,jaribio,NA,NA,0,NA,NA,NA,NA,NA,NA,NA,NA,NA,NA,NA,NA,NA,NA,NA,NA,NA,NA,NA
c506c,"""Richtig""-Screen",canvas.Screen,5_0_0_0_1_1_1,NA,NA,skipped,NA,769476.80000007,NA,NA,769468.80000007,769477.30000007,2023-04-04T16:43:11Z,769554.297,NULL,Verzögerung,kuchelewa,s,mwakilishi,mwanauchumi,jaribio,NA,sdf,NA,0,NA,NA,NA,NA,NA,NA,NA,NA,NA,NA,NA,NA,NA,NA,NA,NA,NA,NA,NA
c506c,"""Falsch""-Screen",canvas.Screen,5_0_0_0_1_1_2,NA,NA,timeout,4997.2459999999,769479.39999998,769465.933,769554.297,774534.909,774536.30000007,2023-04-04T16:43:16Z,774551.543,NULL,Verzögerung,kuchelewa,s,mwakilishi,mwanauchumi,jaribio,NA,sdf,0,0,NA,NA,NA,NA,NA,NA,NA,NA,NA,NA,NA,NA,NA,NA,NA,NA,NA,NA,NA
c506c,shallow,flow.Sequence,5_0_0_0_1_1,NA,NA,completion,11914.888,762606.10000002,762603.506,762620.021,774534.909,774536.80000007,2023-04-04T16:43:16Z,774551.543,NULL,Verzögerung,kuchelewa,s,mwakilishi,mwanauchumi,jaribio,NA,sdf,NA,0,NA,NA,NA,NA,NA,NA,NA,NA,NA,NA,NA,NA,NA,NA,NA,NA,NA,NA,NA
c506c,task,flow.Sequence,5_0_0_0_1,NA,NA,completion,11914.888,762605.80000007,762603.506,762620.021,774534.909,774537,2023-04-04T16:43:16Z,774551.543,NULL,Verzögerung,kuchelewa,s,mwakilishi,mwanauchumi,jaribio,NA,sdf,NA,0,NA,NA,NA,NA,NA,NA,NA,NA,NA,NA,NA,NA,NA,NA,NA,NA,NA,NA,NA
c506c,deep,flow.Sequence,5_0_0_0_2_0,NA,NA,skipped,NA,774537.30000007,NA,NA,774534.909,774537.39999998,2023-04-04T16:43:16Z,774551.543,NULL,Begegnung,kukutana,s,mmasihiya,mpiganaji,husiano,NA,sdf,NA,0,NA,NA,NA,NA,NA,NA,NA,NA,NA,NA,NA,NA,NA,NA,NA,NA,NA,NA,NA
c506c,Shallow Question,html.Page,5_0_0_0_2_1_0,NA,NA,form submission,8584.0570000239,774537.70000005,774534.909,774551.543,783135.60000002,783136.10000002,2023-04-04T16:43:25Z,783204.568,NULL,Begegnung,kukutana,s,mmasihiya,mpiganaji,husiano,husiano,NA,NA,0,NA,NA,NA,NA,NA,NA,NA,NA,NA,NA,NA,NA,NA,NA,NA,NA,NA,NA,NA
c506c,"""Richtig""-Screen",canvas.Screen,5_0_0_0_2_1_1,NA,NA,skipped,NA,783144.20000005,NA,NA,783135.60000002,783144.60000002,2023-04-04T16:43:25Z,783204.568,NULL,Begegnung,kukutana,s,mmasihiya,mpiganaji,husiano,NA,sdf,NA,0,NA,NA,NA,NA,NA,NA,NA,NA,NA,NA,NA,NA,NA,NA,NA,NA,NA,NA,NA
c506c,"""Falsch""-Screen",canvas.Screen,5_0_0_0_2_1_2,NA,NA,timeout,5003.9840000001,783146.5,783132.95,783204.568,788191.864,788193.10000002,2023-04-04T16:43:30Z,788208.552,NULL,Begegnung,kukutana,s,mmasihiya,mpiganaji,husiano,NA,sdf,0,0,NA,NA,NA,NA,NA,NA,NA,NA,NA,NA,NA,NA,NA,NA,NA,NA,NA,NA,NA
c506c,shallow,flow.Sequence,5_0_0_0_2_1,NA,NA,completion,13640.321,774537.60000002,774534.909,774551.543,788191.864,788193.80000007,2023-04-04T16:43:30Z,788208.552,NULL,Begegnung,kukutana,s,mmasihiya,mpiganaji,husiano,NA,sdf,NA,0,NA,NA,NA,NA,NA,NA,NA,NA,NA,NA,NA,NA,NA,NA,NA,NA,NA,NA,NA
c506c,task,flow.Sequence,5_0_0_0_2,NA,NA,completion,13640.321,774537.20000005,774534.909,774551.543,788191.864,788194.10000002,2023-04-04T16:43:30Z,788208.552,NULL,Begegnung,kukutana,s,mmasihiya,mpiganaji,husiano,NA,sdf,NA,0,NA,NA,NA,NA,NA,NA,NA,NA,NA,NA,NA,NA,NA,NA,NA,NA,NA,NA,NA
c506c,deep,flow.Sequence,5_0_0_0_3_0,NA,NA,skipped,NA,788194.20000005,NA,NA,788191.864,788194.5,2023-04-04T16:43:30Z,788208.552,NULL,Genehmigung,idhini,s,mwanamke,itikadi,fedheha,NA,sdf,NA,0,NA,NA,NA,NA,NA,NA,NA,NA,NA,NA,NA,NA,NA,NA,NA,NA,NA,NA,NA
c506c,Shallow Question,html.Page,5_0_0_0_3_1_0,NA,NA,form submission,12709.347999976,788194.70000005,788191.864,788208.552,800917.89999998,800918.5,2023-04-04T16:43:43Z,800920.388,NULL,Genehmigung,idhini,s,mwanamke,itikadi,fedheha,idhini,NA,NA,0,NA,NA,NA,NA,NA,NA,NA,NA,NA,NA,NA,NA,NA,NA,NA,NA,NA,NA,NA
c506c,"""Richtig""-Screen",canvas.Screen,5_0_0_0_3_1_1,NA,NA,timeout,4996.154,800926.30000007,800901.477,800920.388,805899.819,805901.10000002,2023-04-04T16:43:48Z,805916.542,NULL,Genehmigung,idhini,s,mwanamke,itikadi,fedheha,NA,sdf,1,0,NA,NA,NA,NA,NA,NA,NA,NA,NA,NA,NA,NA,NA,NA,NA,NA,NA,NA,NA
c506c,"""Falsch""-Screen",canvas.Screen,5_0_0_0_3_1_2,NA,NA,skipped,NA,805908.39999998,NA,NA,805899.819,805908.80000007,2023-04-04T16:43:48Z,805916.542,NULL,Genehmigung,idhini,s,mwanamke,itikadi,fedheha,NA,sdf,NA,0,NA,NA,NA,NA,NA,NA,NA,NA,NA,NA,NA,NA,NA,NA,NA,NA,NA,NA,NA
c506c,shallow,flow.Sequence,5_0_0_0_3_1,NA,NA,completion,17691.267,788194.60000002,788191.864,788208.552,805899.819,805909.30000007,2023-04-04T16:43:48Z,805916.542,NULL,Genehmigung,idhini,s,mwanamke,itikadi,fedheha,NA,sdf,NA,0,NA,NA,NA,NA,NA,NA,NA,NA,NA,NA,NA,NA,NA,NA,NA,NA,NA,NA,NA
c506c,task,flow.Sequence,5_0_0_0_3,NA,NA,completion,17691.267,788194.20000005,788191.864,788208.552,805899.819,805909.5,2023-04-04T16:43:48Z,805916.542,NULL,Genehmigung,idhini,s,mwanamke,itikadi,fedheha,NA,sdf,NA,0,NA,NA,NA,NA,NA,NA,NA,NA,NA,NA,NA,NA,NA,NA,NA,NA,NA,NA,NA
c506c,Deep Question,html.Page,5_0_0_0_4_0_0,NA,NA,form submission,3970.1580000477,805909.89999998,805899.819,805916.542,809886.70000005,809887.10000002,2023-04-04T16:43:52Z,809905.323,NULL,Aufstand,ugomaji,d,NA,NA,NA,k,NA,NA,0,NA,NA,NA,NA,NA,NA,NA,NA,NA,NA,NA,NA,NA,NA,NA,NA,NA,NA,NA
c506c,"""Richtig""-Screen",canvas.Screen,5_0_0_0_4_0_1,NA,NA,skipped,NA,809895.89999998,NA,NA,809886.70000005,809896.20000005,2023-04-04T16:43:52Z,809905.323,NULL,Aufstand,ugomaji,d,NA,NA,NA,NA,sdf,NA,0,NA,NA,NA,NA,NA,NA,NA,NA,NA,NA,NA,NA,NA,NA,NA,NA,NA,NA,NA
c506c,"""Falsch""-Screen",canvas.Screen,5_0_0_0_4_0_2,NA,NA,timeout,4993.302,809898.39999998,809879.87,809905.323,814881.962,814883.20000005,2023-04-04T16:43:57Z,814898.625,NULL,Aufstand,ugomaji,d,NA,NA,NA,NA,sdf,0,0,NA,NA,NA,NA,NA,NA,NA,NA,NA,NA,NA,NA,NA,NA,NA,NA,NA,NA,NA
c506c,deep,flow.Sequence,5_0_0_0_4_0,NA,NA,completion,8965.42,805909.80000007,805899.819,805916.542,814881.962,814883.80000007,2023-04-04T16:43:57Z,814898.625,NULL,Aufstand,ugomaji,d,NA,NA,NA,NA,sdf,NA,0,NA,NA,NA,NA,NA,NA,NA,NA,NA,NA,NA,NA,NA,NA,NA,NA,NA,NA,NA
c506c,shallow,flow.Sequence,5_0_0_0_4_1,NA,NA,skipped,NA,814884,NA,NA,814881.962,814884.10000002,2023-04-04T16:43:57Z,814898.625,NULL,Aufstand,ugomaji,d,NA,NA,NA,NA,sdf,NA,0,NA,NA,NA,NA,NA,NA,NA,NA,NA,NA,NA,NA,NA,NA,NA,NA,NA,NA,NA
c506c,task,flow.Sequence,5_0_0_0_4,NA,NA,completion,8965.42,805909.70000005,805899.819,805916.542,814881.962,814884.39999998,2023-04-04T16:43:57Z,814898.625,NULL,Aufstand,ugomaji,d,NA,NA,NA,NA,sdf,NA,0,NA,NA,NA,NA,NA,NA,NA,NA,NA,NA,NA,NA,NA,NA,NA,NA,NA,NA,NA
c506c,Deep Question,html.Page,5_0_0_0_5_0_0,NA,NA,form submission,3958.375,814884.70000005,814881.962,814898.625,818857,818857.60000002,2023-04-04T16:44:01Z,818876.104,NULL,Integrität,uadilifu,d,NA,NA,NA,k,NA,NA,0,NA,NA,NA,NA,NA,NA,NA,NA,NA,NA,NA,NA,NA,NA,NA,NA,NA,NA,NA
c506c,"""Richtig""-Screen",canvas.Screen,5_0_0_0_5_0_1,NA,NA,skipped,NA,818867.10000002,NA,NA,818857,818867.60000002,2023-04-04T16:44:01Z,818876.104,NULL,Integrität,uadilifu,d,NA,NA,NA,NA,sdf,NA,0,NA,NA,NA,NA,NA,NA,NA,NA,NA,NA,NA,NA,NA,NA,NA,NA,NA,NA,NA
c506c,"""Falsch""-Screen",canvas.Screen,5_0_0_0_5_0_2,NA,NA,timeout,5006.4419999999,818869.70000005,818839.823,818876.104,823865.997,823867.20000005,2023-04-04T16:44:06Z,823882.546,NULL,Integrität,uadilifu,d,NA,NA,NA,NA,sdf,0,0,NA,NA,NA,NA,NA,NA,NA,NA,NA,NA,NA,NA,NA,NA,NA,NA,NA,NA,NA
c506c,deep,flow.Sequence,5_0_0_0_5_0,NA,NA,completion,8967.372,814884.70000005,814881.962,814898.625,823865.997,823867.80000007,2023-04-04T16:44:06Z,823882.546,NULL,Integrität,uadilifu,d,NA,NA,NA,NA,sdf,NA,0,NA,NA,NA,NA,NA,NA,NA,NA,NA,NA,NA,NA,NA,NA,NA,NA,NA,NA,NA
c506c,shallow,flow.Sequence,5_0_0_0_5_1,NA,NA,skipped,NA,823867.89999998,NA,NA,823865.997,823868,2023-04-04T16:44:06Z,823882.546,NULL,Integrität,uadilifu,d,NA,NA,NA,NA,sdf,NA,0,NA,NA,NA,NA,NA,NA,NA,NA,NA,NA,NA,NA,NA,NA,NA,NA,NA,NA,NA
c506c,task,flow.Sequence,5_0_0_0_5,NA,NA,completion,8967.372,814884.70000005,814881.962,814898.625,823865.997,823868.30000007,2023-04-04T16:44:06Z,823882.546,NULL,Integrität,uadilifu,d,NA,NA,NA,NA,sdf,NA,0,NA,NA,NA,NA,NA,NA,NA,NA,NA,NA,NA,NA,NA,NA,NA,NA,NA,NA,NA
c506c,deep,flow.Sequence,5_0_0_0_6_0,NA,NA,skipped,NA,823868.5,NA,NA,823865.997,823868.70000005,2023-04-04T16:44:06Z,823882.546,NULL,Kultur,utamaduni,s,shetani,gerezani,mazingira,NA,sdf,NA,0,NA,NA,NA,NA,NA,NA,NA,NA,NA,NA,NA,NA,NA,NA,NA,NA,NA,NA,NA
c506c,Shallow Question,html.Page,5_0_0_0_6_1_0,NA,NA,form submission,6641.1540000477,823868.89999998,823865.997,823882.546,830523.70000005,830524.20000005,2023-04-04T16:44:12Z,830526.106,NULL,Kultur,utamaduni,s,shetani,gerezani,mazingira,gerezani,NA,NA,0,NA,NA,NA,NA,NA,NA,NA,NA,NA,NA,NA,NA,NA,NA,NA,NA,NA,NA,NA
c506c,"""Richtig""-Screen",canvas.Screen,5_0_0_0_6_1_1,NA,NA,skipped,NA,830531.70000005,NA,NA,830523.70000005,830532.20000005,2023-04-04T16:44:12Z,830526.106,NULL,Kultur,utamaduni,s,shetani,gerezani,mazingira,NA,sdf,NA,0,NA,NA,NA,NA,NA,NA,NA,NA,NA,NA,NA,NA,NA,NA,NA,NA,NA,NA,NA
c506c,"""Falsch""-Screen",canvas.Screen,5_0_0_0_6_1_2,NA,NA,timeout,4995.7359999999,830534.20000005,830518.493,830526.106,835505.19,835506.39999998,2023-04-04T16:44:17Z,835521.842,NULL,Kultur,utamaduni,s,shetani,gerezani,mazingira,NA,sdf,0,0,NA,NA,NA,NA,NA,NA,NA,NA,NA,NA,NA,NA,NA,NA,NA,NA,NA,NA,NA
