observation,sender,sender_type,sender_id,response,response_action,ended_on,duration,time_run,time_render,time_show,time_end,time_commit,timestamp,time_switch,distractors,german,swahili,enc,distractor1,distractor2,distractor3,response_2,x,correct,x_2,url_vp,url_sess,meta_labjs_version,meta_location,meta_user_agent,meta_platform,meta_language,meta_locale,meta_time_zone,meta_timezone_offset,meta_screen_width,meta_screen_height,meta_scroll_width,meta_scroll_height,meta_window_inner_width,meta_window_inner_height,meta_device_pixel_ratio,meta_labjs_build_flavor,meta_labjs_build_commit
9fd68,Introduction general,canvas.Screen,0,weiter,keypress(q),response,439703.881,350.19999999995,219.891,353.219,440057.1,440064.4,2023-04-06T12:03:36Z,440085.644,NULL,NA,NA,NA,NA,NA,NA,NA,NA,NA,NA,124,1,20.2.4,https://neurocog.fernuni.ch/studies/vweber/encoding_immediate/index.html?vp=124&sess=1,"Mozilla/5.0 (Macintosh; Intel Mac OS X 10_15_7) AppleWebKit/537.36 (KHTML, like Gecko) Chrome/111.0.0.0 Safari/537.36",MacIntel,de-DE,de,Europe/Zurich,-120,1440,900,1360,660,1360,708,2,production,f5b4a49f956347addd546a832a3327688c2c0fef
9fd68,Introduction practice,canvas.Screen,1_0,NA,keypress(Space),response,8536.056,440064.9,440068.978,440085.644,448621.7,448624.8,2023-04-06T12:03:45Z,448638.9,NULL,NA,NA,NA,NA,NA,NA,NA,NA,NA,NA,NA,NA,NA,NA,NA,NA,NA,NA,NA,NA,NA,NA,NA,NA,NA,NA,NA,NA,NA
9fd68,Deep Question,html.Page,1_1_0_0_0,NA,NA,form submission,5510.9999999999,448625.2,448622.234,448638.9,454149.9,454150.4,2023-04-06T12:03:50Z,454156.058,"c(""distractor1"", ""distractor2"", ""distractor3"")",Schatten,kivuli,d,NA,NA,NA,hgh,NA,NA,NA,NA,NA,NA,NA,NA,NA,NA,NA,NA,NA,NA,NA,NA,NA,NA,NA,NA,NA,NA
9fd68,"""Richtig""-Screen",canvas.Screen,1_1_0_0_1,NA,NA,skipped,NA,454152,NA,NA,454149.9,454152.1,2023-04-06T12:03:50Z,454156.058,"c(""distractor1"", ""distractor2"", ""distractor3"")",Schatten,kivuli,d,NA,NA,NA,NA,NA,NA,NA,NA,NA,NA,NA,NA,NA,NA,NA,NA,NA,NA,NA,NA,NA,NA,NA,NA,NA,NA
9fd68,"""Falsch""-Screen",canvas.Screen,1_1_0_0_2,NA,NA,timeout,4999.8,454153.1,454139.392,454156.058,459139.192,459147.2,2023-04-06T12:03:55Z,459155.858,"c(""distractor1"", ""distractor2"", ""distractor3"")",Schatten,kivuli,d,NA,NA,NA,NA,NA,0,NA,NA,NA,NA,NA,NA,NA,NA,NA,NA,NA,NA,NA,NA,NA,NA,NA,NA,NA,NA
9fd68,deep,flow.Sequence,1_1_0_0,NA,NA,completion,10500.292,448625.2,448622.234,448638.9,459139.192,459147.7,2023-04-06T12:03:55Z,459155.858,"c(""distractor1"", ""distractor2"", ""distractor3"")",Schatten,kivuli,d,NA,NA,NA,NA,NA,NA,NA,NA,NA,NA,NA,NA,NA,NA,NA,NA,NA,NA,NA,NA,NA,NA,NA,NA,NA,NA
9fd68,shallow,flow.Sequence,1_1_0_1,NA,NA,skipped,NA,459147.9,NA,NA,459139.192,459148,2023-04-06T12:03:55Z,459155.858,"c(""distractor1"", ""distractor2"", ""distractor3"")",Schatten,kivuli,d,NA,NA,NA,NA,NA,NA,NA,NA,NA,NA,NA,NA,NA,NA,NA,NA,NA,NA,NA,NA,NA,NA,NA,NA,NA,NA
9fd68,task,flow.Sequence,1_1_0,NA,NA,completion,10500.292,448625.1,448622.234,448638.9,459139.192,459148.3,2023-04-06T12:03:55Z,459155.858,"c(""distractor1"", ""distractor2"", ""distractor3"")",Schatten,kivuli,d,NA,NA,NA,NA,NA,NA,NA,NA,NA,NA,NA,NA,NA,NA,NA,NA,NA,NA,NA,NA,NA,NA,NA,NA,NA,NA
9fd68,deep,flow.Sequence,1_1_1_0,NA,NA,skipped,NA,459148.4,NA,NA,459139.192,459148.6,2023-04-06T12:03:55Z,459155.858,"c(""distractor1"", ""distractor2"", ""distractor3"")",Rückhalt,msaada,s,muhula,auwali,kiwimbe,NA,NA,NA,NA,NA,NA,NA,NA,NA,NA,NA,NA,NA,NA,NA,NA,NA,NA,NA,NA,NA,NA,NA
9fd68,Shallow Question,html.Page,1_1_1_1_0,NA,NA,form submission,8672.2419999999,459148.8,459139.192,459155.858,467828.1,467828.7,2023-04-06T12:04:04Z,467839.498,"c(""distractor1"", ""distractor2"", ""distractor3"")",Rückhalt,msaada,s,muhula,auwali,kiwimbe,muhula,NA,NA,NA,NA,NA,NA,NA,NA,NA,NA,NA,NA,NA,NA,NA,NA,NA,NA,NA,NA,NA,NA
9fd68,"""Richtig""-Screen",canvas.Screen,1_1_1_1_1,NA,NA,skipped,NA,467831.5,NA,NA,467828.1,467831.7,2023-04-06T12:04:04Z,467839.498,"c(""distractor1"", ""distractor2"", ""distractor3"")",Rückhalt,msaada,s,muhula,auwali,kiwimbe,NA,NA,NA,NA,NA,NA,NA,NA,NA,NA,NA,NA,NA,NA,NA,NA,NA,NA,NA,NA,NA,NA,NA
9fd68,"""Falsch""-Screen",canvas.Screen,1_1_1_1_2,NA,NA,timeout,4999.8,467832.4,467822.832,467839.498,472822.632,472827.6,2023-04-06T12:04:09Z,472839.298,"c(""distractor1"", ""distractor2"", ""distractor3"")",Rückhalt,msaada,s,muhula,auwali,kiwimbe,NA,NA,0,NA,NA,NA,NA,NA,NA,NA,NA,NA,NA,NA,NA,NA,NA,NA,NA,NA,NA,NA,NA
9fd68,shallow,flow.Sequence,1_1_1_1,NA,NA,completion,13666.774,459148.8,459139.192,459155.858,472822.632,472828.2,2023-04-06T12:04:09Z,472839.298,"c(""distractor1"", ""distractor2"", ""distractor3"")",Rückhalt,msaada,s,muhula,auwali,kiwimbe,NA,NA,NA,NA,NA,NA,NA,NA,NA,NA,NA,NA,NA,NA,NA,NA,NA,NA,NA,NA,NA,NA,NA
9fd68,task,flow.Sequence,1_1_1,NA,NA,completion,13666.774,459148.4,459139.192,459155.858,472822.632,472828.5,2023-04-06T12:04:09Z,472839.298,"c(""distractor1"", ""distractor2"", ""distractor3"")",Rückhalt,msaada,s,muhula,auwali,kiwimbe,NA,NA,NA,NA,NA,NA,NA,NA,NA,NA,NA,NA,NA,NA,NA,NA,NA,NA,NA,NA,NA,NA,NA
9fd68,Deep Question,html.Page,1_1_2_0_0,NA,NA,form submission,3973.3019999999,472828.8,472822.632,472839.298,476812.6,476813.1,2023-04-06T12:04:13Z,476823.003,"c(""distractor1"", ""distractor2"", ""distractor3"")",Qualität,mtindo,d,NA,NA,NA,mhm,NA,NA,NA,NA,NA,NA,NA,NA,NA,NA,NA,NA,NA,NA,NA,NA,NA,NA,NA,NA,NA,NA
9fd68,"""Richtig""-Screen",canvas.Screen,1_1_2_0_1,NA,NA,skipped,NA,476815.8,NA,NA,476812.6,476815.9,2023-04-06T12:04:13Z,476823.003,"c(""distractor1"", ""distractor2"", ""distractor3"")",Qualität,mtindo,d,NA,NA,NA,NA,NA,NA,NA,NA,NA,NA,NA,NA,NA,NA,NA,NA,NA,NA,NA,NA,NA,NA,NA,NA,NA,NA
9fd68,"""Falsch""-Screen",canvas.Screen,1_1_2_0_2,NA,NA,timeout,4999.8,476816.7,476806.337,476823.003,481806.137,481810.7,2023-04-06T12:04:18Z,481822.803,"c(""distractor1"", ""distractor2"", ""distractor3"")",Qualität,mtindo,d,NA,NA,NA,NA,NA,0,NA,NA,NA,NA,NA,NA,NA,NA,NA,NA,NA,NA,NA,NA,NA,NA,NA,NA,NA,NA
9fd68,deep,flow.Sequence,1_1_2_0,NA,NA,completion,8966.839,472828.7,472822.632,472839.298,481806.137,481811.1,2023-04-06T12:04:18Z,481822.803,"c(""distractor1"", ""distractor2"", ""distractor3"")",Qualität,mtindo,d,NA,NA,NA,NA,NA,NA,NA,NA,NA,NA,NA,NA,NA,NA,NA,NA,NA,NA,NA,NA,NA,NA,NA,NA,NA,NA
9fd68,shallow,flow.Sequence,1_1_2_1,NA,NA,skipped,NA,481811.3,NA,NA,481806.137,481811.4,2023-04-06T12:04:18Z,481822.803,"c(""distractor1"", ""distractor2"", ""distractor3"")",Qualität,mtindo,d,NA,NA,NA,NA,NA,NA,NA,NA,NA,NA,NA,NA,NA,NA,NA,NA,NA,NA,NA,NA,NA,NA,NA,NA,NA,NA
9fd68,task,flow.Sequence,1_1_2,NA,NA,completion,8966.839,472828.6,472822.632,472839.298,481806.137,481811.7,2023-04-06T12:04:18Z,481822.803,"c(""distractor1"", ""distractor2"", ""distractor3"")",Qualität,mtindo,d,NA,NA,NA,NA,NA,NA,NA,NA,NA,NA,NA,NA,NA,NA,NA,NA,NA,NA,NA,NA,NA,NA,NA,NA,NA,NA
9fd68,deep,flow.Sequence,1_1_3_0,NA,NA,skipped,NA,481811.9,NA,NA,481806.137,481812,2023-04-06T12:04:18Z,481822.803,"c(""distractor1"", ""distractor2"", ""distractor3"")",Gegenwart,hadhara,s,katiba,jokofu,mikopo,NA,NA,NA,NA,NA,NA,NA,NA,NA,NA,NA,NA,NA,NA,NA,NA,NA,NA,NA,NA,NA,NA,NA
9fd68,Shallow Question,html.Page,1_1_3_1_0,NA,NA,form submission,4606.3969999999,481812.1,481806.137,481822.803,486429.2,486429.8,2023-04-06T12:04:22Z,486439.285,"c(""distractor1"", ""distractor2"", ""distractor3"")",Gegenwart,hadhara,s,katiba,jokofu,mikopo,mikopo,NA,NA,NA,NA,NA,NA,NA,NA,NA,NA,NA,NA,NA,NA,NA,NA,NA,NA,NA,NA,NA,NA
9fd68,"""Richtig""-Screen",canvas.Screen,1_1_3_1_1,NA,NA,skipped,NA,486433.1,NA,NA,486429.2,486433.2,2023-04-06T12:04:22Z,486439.285,"c(""distractor1"", ""distractor2"", ""distractor3"")",Gegenwart,hadhara,s,katiba,jokofu,mikopo,NA,NA,NA,NA,NA,NA,NA,NA,NA,NA,NA,NA,NA,NA,NA,NA,NA,NA,NA,NA,NA,NA,NA
9fd68,"""Falsch""-Screen",canvas.Screen,1_1_3_1_2,NA,NA,timeout,4999.8,486433.9,486422.619,486439.285,491422.419,491426.6,2023-04-06T12:04:27Z,491439.085,"c(""distractor1"", ""distractor2"", ""distractor3"")",Gegenwart,hadhara,s,katiba,jokofu,mikopo,NA,NA,0,NA,NA,NA,NA,NA,NA,NA,NA,NA,NA,NA,NA,NA,NA,NA,NA,NA,NA,NA,NA
9fd68,shallow,flow.Sequence,1_1_3_1,NA,NA,completion,9599.616,481812,481806.137,481822.803,491422.419,491427,2023-04-06T12:04:27Z,491439.085,"c(""distractor1"", ""distractor2"", ""distractor3"")",Gegenwart,hadhara,s,katiba,jokofu,mikopo,NA,NA,NA,NA,NA,NA,NA,NA,NA,NA,NA,NA,NA,NA,NA,NA,NA,NA,NA,NA,NA,NA,NA
9fd68,task,flow.Sequence,1_1_3,NA,NA,completion,9599.616,481811.8,481806.137,481822.803,491422.419,491427.2,2023-04-06T12:04:27Z,491439.085,"c(""distractor1"", ""distractor2"", ""distractor3"")",Gegenwart,hadhara,s,katiba,jokofu,mikopo,NA,NA,NA,NA,NA,NA,NA,NA,NA,NA,NA,NA,NA,NA,NA,NA,NA,NA,NA,NA,NA,NA,NA
9fd68,Deep Question,html.Page,1_1_4_0_0,NA,NA,form submission,4728.0149999998,491427.5,491422.419,491439.085,496167.1,496167.7,2023-04-06T12:04:32Z,496173.296,"c(""distractor1"", ""distractor2"", ""distractor3"")",Gesundheit,salama,d,NA,NA,NA,klk,NA,NA,NA,NA,NA,NA,NA,NA,NA,NA,NA,NA,NA,NA,NA,NA,NA,NA,NA,NA,NA,NA
9fd68,"""Richtig""-Screen",canvas.Screen,1_1_4_0_1,NA,NA,skipped,NA,496170.8,NA,NA,496167.1,496171.1,2023-04-06T12:04:32Z,496173.296,"c(""distractor1"", ""distractor2"", ""distractor3"")",Gesundheit,salama,d,NA,NA,NA,NA,NA,NA,NA,NA,NA,NA,NA,NA,NA,NA,NA,NA,NA,NA,NA,NA,NA,NA,NA,NA,NA,NA
9fd68,"""Falsch""-Screen",canvas.Screen,1_1_4_0_2,NA,NA,timeout,4999.8,496172.1,496156.63,496173.296,501156.43,501160.7,2023-04-06T12:04:37Z,501173.096,"c(""distractor1"", ""distractor2"", ""distractor3"")",Gesundheit,salama,d,NA,NA,NA,NA,NA,0,NA,NA,NA,NA,NA,NA,NA,NA,NA,NA,NA,NA,NA,NA,NA,NA,NA,NA,NA,NA
9fd68,deep,flow.Sequence,1_1_4_0,NA,NA,completion,9717.345,491427.4,491422.419,491439.085,501156.43,501161.1,2023-04-06T12:04:37Z,501173.096,"c(""distractor1"", ""distractor2"", ""distractor3"")",Gesundheit,salama,d,NA,NA,NA,NA,NA,NA,NA,NA,NA,NA,NA,NA,NA,NA,NA,NA,NA,NA,NA,NA,NA,NA,NA,NA,NA,NA
9fd68,shallow,flow.Sequence,1_1_4_1,NA,NA,skipped,NA,501161.2,NA,NA,501156.43,501161.4,2023-04-06T12:04:37Z,501173.096,"c(""distractor1"", ""distractor2"", ""distractor3"")",Gesundheit,salama,d,NA,NA,NA,NA,NA,NA,NA,NA,NA,NA,NA,NA,NA,NA,NA,NA,NA,NA,NA,NA,NA,NA,NA,NA,NA,NA
9fd68,task,flow.Sequence,1_1_4,NA,NA,completion,9717.345,491427.4,491422.419,491439.085,501156.43,501161.6,2023-04-06T12:04:37Z,501173.096,"c(""distractor1"", ""distractor2"", ""distractor3"")",Gesundheit,salama,d,NA,NA,NA,NA,NA,NA,NA,NA,NA,NA,NA,NA,NA,NA,NA,NA,NA,NA,NA,NA,NA,NA,NA,NA,NA,NA
9fd68,deep,flow.Sequence,1_1_5_0,NA,NA,skipped,NA,501161.7,NA,NA,501156.43,501161.8,2023-04-06T12:04:37Z,501173.096,"c(""distractor1"", ""distractor2"", ""distractor3"")",Kritik,lawama,s,dereva,nafasi,mawazo,NA,NA,NA,NA,NA,NA,NA,NA,NA,NA,NA,NA,NA,NA,NA,NA,NA,NA,NA,NA,NA,NA,NA
9fd68,Shallow Question,html.Page,1_1_5_1_0,NA,NA,form submission,6354.6039999999,501162,501156.43,501173.096,507527.7,507528.2,2023-04-06T12:04:44Z,507540.038,"c(""distractor1"", ""distractor2"", ""distractor3"")",Kritik,lawama,s,dereva,nafasi,mawazo,nafasi,NA,NA,NA,NA,NA,NA,NA,NA,NA,NA,NA,NA,NA,NA,NA,NA,NA,NA,NA,NA,NA,NA
9fd68,"""Richtig""-Screen",canvas.Screen,1_1_5_1_1,NA,NA,skipped,NA,507531.5,NA,NA,507527.7,507531.7,2023-04-06T12:04:44Z,507540.038,"c(""distractor1"", ""distractor2"", ""distractor3"")",Kritik,lawama,s,dereva,nafasi,mawazo,NA,NA,NA,NA,NA,NA,NA,NA,NA,NA,NA,NA,NA,NA,NA,NA,NA,NA,NA,NA,NA,NA,NA
9fd68,"""Falsch""-Screen",canvas.Screen,1_1_5_1_2,NA,NA,timeout,4999.8,507532.9,507523.372,507540.038,512523.172,512527.8,2023-04-06T12:04:49Z,512539.838,"c(""distractor1"", ""distractor2"", ""distractor3"")",Kritik,lawama,s,dereva,nafasi,mawazo,NA,NA,0,NA,NA,NA,NA,NA,NA,NA,NA,NA,NA,NA,NA,NA,NA,NA,NA,NA,NA,NA,NA
9fd68,shallow,flow.Sequence,1_1_5_1,NA,NA,completion,11350.076,501162,501156.43,501173.096,512523.172,512528.2,2023-04-06T12:04:49Z,512539.838,"c(""distractor1"", ""distractor2"", ""distractor3"")",Kritik,lawama,s,dereva,nafasi,mawazo,NA,NA,NA,NA,NA,NA,NA,NA,NA,NA,NA,NA,NA,NA,NA,NA,NA,NA,NA,NA,NA,NA,NA
9fd68,task,flow.Sequence,1_1_5,NA,NA,completion,11350.076,501161.7,501156.43,501173.096,512523.172,512528.6,2023-04-06T12:04:49Z,512539.838,"c(""distractor1"", ""distractor2"", ""distractor3"")",Kritik,lawama,s,dereva,nafasi,mawazo,NA,NA,NA,NA,NA,NA,NA,NA,NA,NA,NA,NA,NA,NA,NA,NA,NA,NA,NA,NA,NA,NA,NA
9fd68,block,flow.Loop,1_1,NA,NA,completion,63884.272,448625.1,448622.234,448638.9,512523.172,512528.7,2023-04-06T12:04:49Z,512539.838,"c(""distractor1"", ""distractor2"", ""distractor3"")",NA,NA,NA,NA,NA,NA,NA,NA,NA,NA,NA,NA,NA,NA,NA,NA,NA,NA,NA,NA,NA,NA,NA,NA,NA,NA,NA,NA,NA
9fd68,Practice,flow.Sequence,1,NA,NA,completion,72437.528,440064.9,440068.978,440085.644,512523.172,512528.9,2023-04-06T12:04:49Z,512539.838,NULL,NA,NA,NA,NA,NA,NA,NA,NA,NA,NA,NA,NA,NA,NA,NA,NA,NA,NA,NA,NA,NA,NA,NA,NA,NA,NA,NA,NA,NA
9fd68,Experiment start,canvas.Screen,2,weiter,keypress(q),response,9019.0619999999,512529.1,512523.172,512539.838,521558.9,521565.1,2023-04-06T12:04:58Z,521622.808,NULL,NA,NA,NA,NA,NA,NA,NA,NA,NA,NA,NA,NA,NA,NA,NA,NA,NA,NA,NA,NA,NA,NA,NA,NA,NA,NA,NA,NA,NA
9fd68,Deep Question,html.Page,3_0_0_0_0_0_0,NA,NA,form submission,4730.492,521624.7,521556.144,521622.808,526353.3,526353.7,2023-04-06T12:05:02Z,526356.809,NULL,Schüler,mwanafunzi,d,NA,NA,NA,kml,NA,NA,0,NA,NA,NA,NA,NA,NA,NA,NA,NA,NA,NA,NA,NA,NA,NA,NA,NA,NA,NA
9fd68,"""Richtig""-Screen",canvas.Screen,3_0_0_0_0_0_1,NA,NA,skipped,NA,526357.4,NA,NA,526353.3,526357.7,2023-04-06T12:05:02Z,526356.809,NULL,Schüler,mwanafunzi,d,NA,NA,NA,NA,sdf,NA,0,NA,NA,NA,NA,NA,NA,NA,NA,NA,NA,NA,NA,NA,NA,NA,NA,NA,NA,NA
9fd68,"""Falsch""-Screen",canvas.Screen,3_0_0_0_0_0_2,NA,NA,timeout,4999.8,526358.8,526340.143,526356.809,531339.943,531341.7,2023-04-06T12:05:07Z,531356.609,NULL,Schüler,mwanafunzi,d,NA,NA,NA,NA,sdf,0,0,NA,NA,NA,NA,NA,NA,NA,NA,NA,NA,NA,NA,NA,NA,NA,NA,NA,NA,NA
9fd68,deep,flow.Sequence,3_0_0_0_0_0,NA,NA,completion,9717.135,521624.7,521556.144,521622.808,531339.943,531342.2,2023-04-06T12:05:07Z,531356.609,NULL,Schüler,mwanafunzi,d,NA,NA,NA,NA,sdf,NA,0,NA,NA,NA,NA,NA,NA,NA,NA,NA,NA,NA,NA,NA,NA,NA,NA,NA,NA,NA
9fd68,shallow,flow.Sequence,3_0_0_0_0_1,NA,NA,skipped,NA,531342.4,NA,NA,531339.943,531342.4,2023-04-06T12:05:07Z,531356.609,NULL,Schüler,mwanafunzi,d,NA,NA,NA,NA,sdf,NA,0,NA,NA,NA,NA,NA,NA,NA,NA,NA,NA,NA,NA,NA,NA,NA,NA,NA,NA,NA
9fd68,task,flow.Sequence,3_0_0_0_0,NA,NA,completion,9717.135,521624.7,521556.144,521622.808,531339.943,531342.7,2023-04-06T12:05:07Z,531356.609,NULL,Schüler,mwanafunzi,d,NA,NA,NA,NA,sdf,NA,0,NA,NA,NA,NA,NA,NA,NA,NA,NA,NA,NA,NA,NA,NA,NA,NA,NA,NA,NA
9fd68,deep,flow.Sequence,3_0_0_0_1_0,NA,NA,skipped,NA,531342.8,NA,NA,531339.943,531342.9,2023-04-06T12:05:07Z,531356.609,NULL,Fenster,dirisha,s,walakini,tasawari,maarifa,NA,sdf,NA,0,NA,NA,NA,NA,NA,NA,NA,NA,NA,NA,NA,NA,NA,NA,NA,NA,NA,NA,NA
9fd68,Shallow Question,html.Page,3_0_0_0_1_1_0,NA,NA,form submission,6538.8909999999,531343.1,531339.943,531356.609,537895.5,537896,2023-04-06T12:05:14Z,537906.934,NULL,Fenster,dirisha,s,walakini,tasawari,maarifa,dirisha,NA,NA,0,NA,NA,NA,NA,NA,NA,NA,NA,NA,NA,NA,NA,NA,NA,NA,NA,NA,NA,NA
9fd68,"""Richtig""-Screen",canvas.Screen,3_0_0_0_1_1_1,NA,NA,timeout,4999.8,537898.9,537890.268,537906.934,542890.068,542894.5,2023-04-06T12:05:19Z,542906.734,NULL,Fenster,dirisha,s,walakini,tasawari,maarifa,NA,sdf,1,0,NA,NA,NA,NA,NA,NA,NA,NA,NA,NA,NA,NA,NA,NA,NA,NA,NA,NA,NA
9fd68,"""Falsch""-Screen",canvas.Screen,3_0_0_0_1_1_2,NA,NA,skipped,NA,542898.4,NA,NA,542890.068,542898.5,2023-04-06T12:05:19Z,542906.734,NULL,Fenster,dirisha,s,walakini,tasawari,maarifa,NA,sdf,NA,0,NA,NA,NA,NA,NA,NA,NA,NA,NA,NA,NA,NA,NA,NA,NA,NA,NA,NA,NA
9fd68,shallow,flow.Sequence,3_0_0_0_1_1,NA,NA,completion,11533.459,531343,531339.943,531356.609,542890.068,542898.8,2023-04-06T12:05:19Z,542906.734,NULL,Fenster,dirisha,s,walakini,tasawari,maarifa,NA,sdf,NA,0,NA,NA,NA,NA,NA,NA,NA,NA,NA,NA,NA,NA,NA,NA,NA,NA,NA,NA,NA
9fd68,task,flow.Sequence,3_0_0_0_1,NA,NA,completion,11533.459,531342.8,531339.943,531356.609,542890.068,542898.9,2023-04-06T12:05:19Z,542906.734,NULL,Fenster,dirisha,s,walakini,tasawari,maarifa,NA,sdf,NA,0,NA,NA,NA,NA,NA,NA,NA,NA,NA,NA,NA,NA,NA,NA,NA,NA,NA,NA,NA
9fd68,deep,flow.Sequence,3_0_0_0_2_0,NA,NA,skipped,NA,542898.9,NA,NA,542890.068,542899.1,2023-04-06T12:05:19Z,542906.734,NULL,Spionage,upelelezi,s,maslahi,utokazo,magangao,NA,sdf,NA,0,NA,NA,NA,NA,NA,NA,NA,NA,NA,NA,NA,NA,NA,NA,NA,NA,NA,NA,NA
9fd68,Shallow Question,html.Page,3_0_0_0_2_1_0,NA,NA,form submission,9888.2659999999,542899.2,542890.068,542906.734,552795,552795.5,2023-04-06T12:05:29Z,552806.845,NULL,Spionage,upelelezi,s,maslahi,utokazo,magangao,upelelezi,NA,NA,0,NA,NA,NA,NA,NA,NA,NA,NA,NA,NA,NA,NA,NA,NA,NA,NA,NA,NA,NA
9fd68,"""Richtig""-Screen",canvas.Screen,3_0_0_0_2_1_1,NA,NA,timeout,4999.8,552798.1,552790.179,552806.845,557789.979,557794.5,2023-04-06T12:05:34Z,557806.645,NULL,Spionage,upelelezi,s,maslahi,utokazo,magangao,NA,sdf,1,0,NA,NA,NA,NA,NA,NA,NA,NA,NA,NA,NA,NA,NA,NA,NA,NA,NA,NA,NA
9fd68,"""Falsch""-Screen",canvas.Screen,3_0_0_0_2_1_2,NA,NA,skipped,NA,557798.4,NA,NA,557789.979,557798.5,2023-04-06T12:05:34Z,557806.645,NULL,Spionage,upelelezi,s,maslahi,utokazo,magangao,NA,sdf,NA,0,NA,NA,NA,NA,NA,NA,NA,NA,NA,NA,NA,NA,NA,NA,NA,NA,NA,NA,NA
9fd68,shallow,flow.Sequence,3_0_0_0_2_1,NA,NA,completion,14883.245,542899.1,542890.068,542906.734,557789.979,557798.7,2023-04-06T12:05:34Z,557806.645,NULL,Spionage,upelelezi,s,maslahi,utokazo,magangao,NA,sdf,NA,0,NA,NA,NA,NA,NA,NA,NA,NA,NA,NA,NA,NA,NA,NA,NA,NA,NA,NA,NA
9fd68,task,flow.Sequence,3_0_0_0_2,NA,NA,completion,14883.245,542898.9,542890.068,542906.734,557789.979,557798.8,2023-04-06T12:05:34Z,557806.645,NULL,Spionage,upelelezi,s,maslahi,utokazo,magangao,NA,sdf,NA,0,NA,NA,NA,NA,NA,NA,NA,NA,NA,NA,NA,NA,NA,NA,NA,NA,NA,NA,NA
9fd68,Deep Question,html.Page,3_0_0_0_3_0_0,NA,NA,form submission,4172.7549999999,557798.9,557789.979,557806.645,561979.4,561980,2023-04-06T12:05:38Z,561990.59,NULL,Niveau,kiwango,d,NA,NA,NA,mhm,NA,NA,0,NA,NA,NA,NA,NA,NA,NA,NA,NA,NA,NA,NA,NA,NA,NA,NA,NA,NA,NA
9fd68,"""Richtig""-Screen",canvas.Screen,3_0_0_0_3_0_1,NA,NA,skipped,NA,561983.3,NA,NA,561979.4,561983.5,2023-04-06T12:05:38Z,561990.59,NULL,Niveau,kiwango,d,NA,NA,NA,NA,sdf,NA,0,NA,NA,NA,NA,NA,NA,NA,NA,NA,NA,NA,NA,NA,NA,NA,NA,NA,NA,NA
9fd68,"""Falsch""-Screen",canvas.Screen,3_0_0_0_3_0_2,NA,NA,timeout,4999.8,561984.2,561973.924,561990.59,566973.724,566978.9,2023-04-06T12:05:43Z,566990.39,NULL,Niveau,kiwango,d,NA,NA,NA,NA,sdf,0,0,NA,NA,NA,NA,NA,NA,NA,NA,NA,NA,NA,NA,NA,NA,NA,NA,NA,NA,NA
9fd68,deep,flow.Sequence,3_0_0_0_3_0,NA,NA,completion,9167.079,557798.9,557789.979,557806.645,566973.724,566979.3,2023-04-06T12:05:43Z,566990.39,NULL,Niveau,kiwango,d,NA,NA,NA,NA,sdf,NA,0,NA,NA,NA,NA,NA,NA,NA,NA,NA,NA,NA,NA,NA,NA,NA,NA,NA,NA,NA
9fd68,shallow,flow.Sequence,3_0_0_0_3_1,NA,NA,skipped,NA,566979.5,NA,NA,566973.724,566979.6,2023-04-06T12:05:43Z,566990.39,NULL,Niveau,kiwango,d,NA,NA,NA,NA,sdf,NA,0,NA,NA,NA,NA,NA,NA,NA,NA,NA,NA,NA,NA,NA,NA,NA,NA,NA,NA,NA
9fd68,task,flow.Sequence,3_0_0_0_3,NA,NA,completion,9167.079,557798.9,557789.979,557806.645,566973.724,566979.8,2023-04-06T12:05:43Z,566990.39,NULL,Niveau,kiwango,d,NA,NA,NA,NA,sdf,NA,0,NA,NA,NA,NA,NA,NA,NA,NA,NA,NA,NA,NA,NA,NA,NA,NA,NA,NA,NA
9fd68,deep,flow.Sequence,3_0_0_0_4_0,NA,NA,skipped,NA,566980,NA,NA,566973.724,566980.2,2023-04-06T12:05:43Z,566990.39,NULL,Vorwurf,mashtaka,s,msukumo,mtangulizi,uenyekiti,NA,sdf,NA,0,NA,NA,NA,NA,NA,NA,NA,NA,NA,NA,NA,NA,NA,NA,NA,NA,NA,NA,NA
9fd68,Shallow Question,html.Page,3_0_0_0_4_1_0,NA,NA,form submission,10270.81,566980.3,566973.724,566990.39,577261.2,577261.8,2023-04-06T12:05:53Z,577273.949,NULL,Vorwurf,mashtaka,s,msukumo,mtangulizi,uenyekiti,msukumo,NA,NA,0,NA,NA,NA,NA,NA,NA,NA,NA,NA,NA,NA,NA,NA,NA,NA,NA,NA,NA,NA
9fd68,"""Richtig""-Screen",canvas.Screen,3_0_0_0_4_1_1,NA,NA,skipped,NA,577264.5,NA,NA,577261.2,577264.6,2023-04-06T12:05:53Z,577273.949,NULL,Vorwurf,mashtaka,s,msukumo,mtangulizi,uenyekiti,NA,sdf,NA,0,NA,NA,NA,NA,NA,NA,NA,NA,NA,NA,NA,NA,NA,NA,NA,NA,NA,NA,NA
9fd68,"""Falsch""-Screen",canvas.Screen,3_0_0_0_4_1_2,NA,NA,timeout,4999.7999999999,577265.2,577257.283,577273.949,582257.083,582258.6,2023-04-06T12:05:58Z,582273.749,NULL,Vorwurf,mashtaka,s,msukumo,mtangulizi,uenyekiti,NA,sdf,0,0,NA,NA,NA,NA,NA,NA,NA,NA,NA,NA,NA,NA,NA,NA,NA,NA,NA,NA,NA
9fd68,shallow,flow.Sequence,3_0_0_0_4_1,NA,NA,completion,15266.693,566980.3,566973.724,566990.39,582257.083,582259,2023-04-06T12:05:58Z,582273.749,NULL,Vorwurf,mashtaka,s,msukumo,mtangulizi,uenyekiti,NA,sdf,NA,0,NA,NA,NA,NA,NA,NA,NA,NA,NA,NA,NA,NA,NA,NA,NA,NA,NA,NA,NA
9fd68,task,flow.Sequence,3_0_0_0_4,NA,NA,completion,15266.693,566979.9,566973.724,566990.39,582257.083,582259.3,2023-04-06T12:05:58Z,582273.749,NULL,Vorwurf,mashtaka,s,msukumo,mtangulizi,uenyekiti,NA,sdf,NA,0,NA,NA,NA,NA,NA,NA,NA,NA,NA,NA,NA,NA,NA,NA,NA,NA,NA,NA,NA
9fd68,Deep Question,html.Page,3_0_0_0_5_0_0,NA,NA,form submission,4776.8509999999,582259.5,582257.083,582273.749,587050.6,587051.1,2023-04-06T12:06:03Z,587057.533,NULL,Papier,karatasi,d,NA,NA,NA,pol,NA,NA,0,NA,NA,NA,NA,NA,NA,NA,NA,NA,NA,NA,NA,NA,NA,NA,NA,NA,NA,NA
9fd68,"""Richtig""-Screen",canvas.Screen,3_0_0_0_5_0_1,NA,NA,skipped,NA,587054.4,NA,NA,587050.6,587054.7,2023-04-06T12:06:03Z,587057.533,NULL,Papier,karatasi,d,NA,NA,NA,NA,sdf,NA,0,NA,NA,NA,NA,NA,NA,NA,NA,NA,NA,NA,NA,NA,NA,NA,NA,NA,NA,NA
9fd68,"""Falsch""-Screen",canvas.Screen,3_0_0_0_5_0_2,NA,NA,timeout,4999.7999999999,587055.9,587040.867,587057.533,592040.667,592045.4,2023-04-06T12:06:08Z,592057.333,NULL,Papier,karatasi,d,NA,NA,NA,NA,sdf,0,0,NA,NA,NA,NA,NA,NA,NA,NA,NA,NA,NA,NA,NA,NA,NA,NA,NA,NA,NA
9fd68,deep,flow.Sequence,3_0_0_0_5_0,NA,NA,completion,9766.9180000001,582259.4,582257.083,582273.749,592040.667,592045.9,2023-04-06T12:06:08Z,592057.333,NULL,Papier,karatasi,d,NA,NA,NA,NA,sdf,NA,0,NA,NA,NA,NA,NA,NA,NA,NA,NA,NA,NA,NA,NA,NA,NA,NA,NA,NA,NA
9fd68,shallow,flow.Sequence,3_0_0_0_5_1,NA,NA,skipped,NA,592046,NA,NA,592040.667,592046.1,2023-04-06T12:06:08Z,592057.333,NULL,Papier,karatasi,d,NA,NA,NA,NA,sdf,NA,0,NA,NA,NA,NA,NA,NA,NA,NA,NA,NA,NA,NA,NA,NA,NA,NA,NA,NA,NA
9fd68,task,flow.Sequence,3_0_0_0_5,NA,NA,completion,9766.9180000001,582259.4,582257.083,582273.749,592040.667,592046.3,2023-04-06T12:06:08Z,592057.333,NULL,Papier,karatasi,d,NA,NA,NA,NA,sdf,NA,0,NA,NA,NA,NA,NA,NA,NA,NA,NA,NA,NA,NA,NA,NA,NA,NA,NA,NA,NA
9fd68,Deep Question,html.Page,3_0_0_0_6_0_0,NA,NA,form submission,3573.0669999999,592046.5,592040.667,592057.333,595630.4,595631,2023-04-06T12:06:12Z,595641.12,NULL,Tester,wanaojaribu,d,NA,NA,NA,mh,NA,NA,0,NA,NA,NA,NA,NA,NA,NA,NA,NA,NA,NA,NA,NA,NA,NA,NA,NA,NA,NA
9fd68,"""Richtig""-Screen",canvas.Screen,3_0_0_0_6_0_1,NA,NA,skipped,NA,595634.6,NA,NA,595630.4,595634.9,2023-04-06T12:06:12Z,595641.12,NULL,Tester,wanaojaribu,d,NA,NA,NA,NA,sdf,NA,0,NA,NA,NA,NA,NA,NA,NA,NA,NA,NA,NA,NA,NA,NA,NA,NA,NA,NA,NA
9fd68,"""Falsch""-Screen",canvas.Screen,3_0_0_0_6_0_2,NA,NA,timeout,4999.8,595636,595624.454,595641.12,600624.254,600628.3,2023-04-06T12:06:17Z,600640.92,NULL,Tester,wanaojaribu,d,NA,NA,NA,NA,sdf,0,0,NA,NA,NA,NA,NA,NA,NA,NA,NA,NA,NA,NA,NA,NA,NA,NA,NA,NA,NA
9fd68,deep,flow.Sequence,3_0_0_0_6_0,NA,NA,completion,8566.921,592046.5,592040.667,592057.333,600624.254,600628.7,2023-04-06T12:06:17Z,600640.92,NULL,Tester,wanaojaribu,d,NA,NA,NA,NA,sdf,NA,0,NA,NA,NA,NA,NA,NA,NA,NA,NA,NA,NA,NA,NA,NA,NA,NA,NA,NA,NA
9fd68,shallow,flow.Sequence,3_0_0_0_6_1,NA,NA,skipped,NA,600628.8,NA,NA,600624.254,600628.9,2023-04-06T12:06:17Z,600640.92,NULL,Tester,wanaojaribu,d,NA,NA,NA,NA,sdf,NA,0,NA,NA,NA,NA,NA,NA,NA,NA,NA,NA,NA,NA,NA,NA,NA,NA,NA,NA,NA
9fd68,task,flow.Sequence,3_0_0_0_6,NA,NA,completion,8566.921,592046.4,592040.667,592057.333,600624.254,600629.2,2023-04-06T12:06:17Z,600640.92,NULL,Tester,wanaojaribu,d,NA,NA,NA,NA,sdf,NA,0,NA,NA,NA,NA,NA,NA,NA,NA,NA,NA,NA,NA,NA,NA,NA,NA,NA,NA,NA
9fd68,deep,flow.Sequence,3_0_0_0_7_0,NA,NA,skipped,NA,600629.3,NA,NA,600624.254,600629.4,2023-04-06T12:06:17Z,600640.92,NULL,Entwicklung,maendeleo,s,uangavu,mshindwa,badiliko,NA,sdf,NA,0,NA,NA,NA,NA,NA,NA,NA,NA,NA,NA,NA,NA,NA,NA,NA,NA,NA,NA,NA
9fd68,Shallow Question,html.Page,3_0_0_0_7_1_0,NA,NA,form submission,7340.6799999998,600629.6,600624.254,600640.92,607981.6,607982,2023-04-06T12:06:24Z,607991.292,NULL,Entwicklung,maendeleo,s,uangavu,mshindwa,badiliko,uangavu,NA,NA,0,NA,NA,NA,NA,NA,NA,NA,NA,NA,NA,NA,NA,NA,NA,NA,NA,NA,NA,NA
9fd68,"""Richtig""-Screen",canvas.Screen,3_0_0_0_7_1_1,NA,NA,skipped,NA,607985.2,NA,NA,607981.6,607985.4,2023-04-06T12:06:24Z,607991.292,NULL,Entwicklung,maendeleo,s,uangavu,mshindwa,badiliko,NA,sdf,NA,0,NA,NA,NA,NA,NA,NA,NA,NA,NA,NA,NA,NA,NA,NA,NA,NA,NA,NA,NA
9fd68,"""Falsch""-Screen",canvas.Screen,3_0_0_0_7_1_2,NA,NA,timeout,4999.7999999999,607986.1,607974.626,607991.292,612974.426,612975.6,2023-04-06T12:06:29Z,612991.092,NULL,Entwicklung,maendeleo,s,uangavu,mshindwa,badiliko,NA,sdf,0,0,NA,NA,NA,NA,NA,NA,NA,NA,NA,NA,NA,NA,NA,NA,NA,NA,NA,NA,NA
9fd68,shallow,flow.Sequence,3_0_0_0_7_1,NA,NA,completion,12333.506,600629.6,600624.254,600640.92,612974.426,612976,2023-04-06T12:06:29Z,612991.092,NULL,Entwicklung,maendeleo,s,uangavu,mshindwa,badiliko,NA,sdf,NA,0,NA,NA,NA,NA,NA,NA,NA,NA,NA,NA,NA,NA,NA,NA,NA,NA,NA,NA,NA
9fd68,task,flow.Sequence,3_0_0_0_7,NA,NA,completion,12333.506,600629.3,600624.254,600640.92,612974.426,612976.3,2023-04-06T12:06:29Z,612991.092,NULL,Entwicklung,maendeleo,s,uangavu,mshindwa,badiliko,NA,sdf,NA,0,NA,NA,NA,NA,NA,NA,NA,NA,NA,NA,NA,NA,NA,NA,NA,NA,NA,NA,NA
9fd68,block,flow.Loop,3_0_0_0,NA,NA,completion,91351.618,521624.7,521556.144,521622.808,612974.426,612976.6,2023-04-06T12:06:29Z,612991.092,NULL,NA,NA,NA,NA,NA,NA,NA,sdf,NA,0,NA,NA,NA,NA,NA,NA,NA,NA,NA,NA,NA,NA,NA,NA,NA,NA,NA,NA,NA
9fd68,weiter,canvas.Screen,3_0_0_1,sdf,keypress(Space),response,3507.808,612976.7,612974.426,612991.092,616498.9,616504.7,2023-04-06T12:06:33Z,616540.95,NULL,NA,NA,NA,NA,NA,NA,NA,sdf,NA,0,NA,NA,NA,NA,NA,NA,NA,NA,NA,NA,NA,NA,NA,NA,NA,NA,NA,NA,NA
9fd68,check continue,flow.Sequence,3_0_0,NA,NA,completion,94876.092,521624.7,521556.144,521622.808,616498.9,616505,2023-04-06T12:06:33Z,616540.95,NULL,NA,NA,NA,NA,NA,NA,NA,sdf,NA,0,NA,NA,NA,NA,NA,NA,NA,NA,NA,NA,NA,NA,NA,NA,NA,NA,NA,NA,NA
9fd68,Deep Question,html.Page,3_0_1_0_0_0_0,NA,NA,form submission,14347.05,616531.1,616524.284,616540.95,630888,630888.6,2023-04-06T12:06:47Z,630891.457,NULL,Papier,karatasi,d,NA,NA,NA,majafitusi,NA,NA,1,NA,NA,NA,NA,NA,NA,NA,NA,NA,NA,NA,NA,NA,NA,NA,NA,NA,NA,NA
9fd68,"""Richtig""-Screen",canvas.Screen,3_0_1_0_0_0_1,NA,NA,skipped,NA,630893,NA,NA,630888,630893.3,2023-04-06T12:06:47Z,630891.457,NULL,Papier,karatasi,d,NA,NA,NA,NA,sdfdsf,NA,1,NA,NA,NA,NA,NA,NA,NA,NA,NA,NA,NA,NA,NA,NA,NA,NA,NA,NA,NA
9fd68,"""Falsch""-Screen",canvas.Screen,3_0_1_0_0_0_2,NA,NA,timeout,4999.7999999999,630894,630874.791,630891.457,635874.591,635878.9,2023-04-06T12:06:52Z,635891.257,NULL,Papier,karatasi,d,NA,NA,NA,NA,sdfdsf,0,1,NA,NA,NA,NA,NA,NA,NA,NA,NA,NA,NA,NA,NA,NA,NA,NA,NA,NA,NA
9fd68,deep,flow.Sequence,3_0_1_0_0_0,NA,NA,completion,19333.641,616531,616524.284,616540.95,635874.591,635879.3,2023-04-06T12:06:52Z,635891.257,NULL,Papier,karatasi,d,NA,NA,NA,NA,sdfdsf,NA,1,NA,NA,NA,NA,NA,NA,NA,NA,NA,NA,NA,NA,NA,NA,NA,NA,NA,NA,NA
9fd68,shallow,flow.Sequence,3_0_1_0_0_1,NA,NA,skipped,NA,635879.5,NA,NA,635874.591,635879.7,2023-04-06T12:06:52Z,635891.257,NULL,Papier,karatasi,d,NA,NA,NA,NA,sdfdsf,NA,1,NA,NA,NA,NA,NA,NA,NA,NA,NA,NA,NA,NA,NA,NA,NA,NA,NA,NA,NA
9fd68,task,flow.Sequence,3_0_1_0_0,NA,NA,completion,19333.641,616531,616524.284,616540.95,635874.591,635879.8,2023-04-06T12:06:52Z,635891.257,NULL,Papier,karatasi,d,NA,NA,NA,NA,sdfdsf,NA,1,NA,NA,NA,NA,NA,NA,NA,NA,NA,NA,NA,NA,NA,NA,NA,NA,NA,NA,NA
9fd68,deep,flow.Sequence,3_0_1_0_1_0,NA,NA,skipped,NA,635880,NA,NA,635874.591,635880.1,2023-04-06T12:06:52Z,635891.257,NULL,Spionage,upelelezi,s,maslahi,utokazo,magangao,NA,sdfdsf,NA,1,NA,NA,NA,NA,NA,NA,NA,NA,NA,NA,NA,NA,NA,NA,NA,NA,NA,NA,NA
9fd68,Shallow Question,html.Page,3_0_1_0_1_1_0,NA,NA,form submission,9071.0430000001,635880.3,635874.591,635891.257,644962.3,644962.8,2023-04-06T12:07:01Z,644974.811,NULL,Spionage,upelelezi,s,maslahi,utokazo,magangao,upelelezi,NA,NA,1,NA,NA,NA,NA,NA,NA,NA,NA,NA,NA,NA,NA,NA,NA,NA,NA,NA,NA,NA
9fd68,"""Richtig""-Screen",canvas.Screen,3_0_1_0_1_1_1,NA,NA,timeout,4999.8,644965.9,644958.145,644974.811,649957.945,649962.4,2023-04-06T12:07:06Z,649974.611,NULL,Spionage,upelelezi,s,maslahi,utokazo,magangao,NA,sdfdsf,1,1,NA,NA,NA,NA,NA,NA,NA,NA,NA,NA,NA,NA,NA,NA,NA,NA,NA,NA,NA
9fd68,"""Falsch""-Screen",canvas.Screen,3_0_1_0_1_1_2,NA,NA,skipped,NA,649966.7,NA,NA,649957.945,649966.9,2023-04-06T12:07:06Z,649974.611,NULL,Spionage,upelelezi,s,maslahi,utokazo,magangao,NA,sdfdsf,NA,1,NA,NA,NA,NA,NA,NA,NA,NA,NA,NA,NA,NA,NA,NA,NA,NA,NA,NA,NA
9fd68,shallow,flow.Sequence,3_0_1_0_1_1,NA,NA,completion,14066.688,635880.2,635874.591,635891.257,649957.945,649967.1,2023-04-06T12:07:06Z,649974.611,NULL,Spionage,upelelezi,s,maslahi,utokazo,magangao,NA,sdfdsf,NA,1,NA,NA,NA,NA,NA,NA,NA,NA,NA,NA,NA,NA,NA,NA,NA,NA,NA,NA,NA
9fd68,task,flow.Sequence,3_0_1_0_1,NA,NA,completion,14066.688,635879.9,635874.591,635891.257,649957.945,649967.2,2023-04-06T12:07:06Z,649974.611,NULL,Spionage,upelelezi,s,maslahi,utokazo,magangao,NA,sdfdsf,NA,1,NA,NA,NA,NA,NA,NA,NA,NA,NA,NA,NA,NA,NA,NA,NA,NA,NA,NA,NA
9fd68,deep,flow.Sequence,3_0_1_0_2_0,NA,NA,skipped,NA,649967.4,NA,NA,649957.945,649967.5,2023-04-06T12:07:06Z,649974.611,NULL,Entwicklung,maendeleo,s,uangavu,mshindwa,badiliko,NA,sdfdsf,NA,1,NA,NA,NA,NA,NA,NA,NA,NA,NA,NA,NA,NA,NA,NA,NA,NA,NA,NA,NA
9fd68,Shallow Question,html.Page,3_0_1_0_2_1_0,NA,NA,form submission,5321.5889999999,649967.7,649957.945,649974.611,655296.2,655296.8,2023-04-06T12:07:11Z,655308.346,NULL,Entwicklung,maendeleo,s,uangavu,mshindwa,badiliko,maendeleo,NA,NA,1,NA,NA,NA,NA,NA,NA,NA,NA,NA,NA,NA,NA,NA,NA,NA,NA,NA,NA,NA
9fd68,"""Richtig""-Screen",canvas.Screen,3_0_1_0_2_1_1,NA,NA,timeout,4999.7999999999,655300.3,655291.68,655308.346,660291.48,660295.4,2023-04-06T12:07:16Z,660308.146,NULL,Entwicklung,maendeleo,s,uangavu,mshindwa,badiliko,NA,sdfdsf,1,1,NA,NA,NA,NA,NA,NA,NA,NA,NA,NA,NA,NA,NA,NA,NA,NA,NA,NA,NA
9fd68,"""Falsch""-Screen",canvas.Screen,3_0_1_0_2_1_2,NA,NA,skipped,NA,660299.2,NA,NA,660291.48,660299.3,2023-04-06T12:07:16Z,660308.146,NULL,Entwicklung,maendeleo,s,uangavu,mshindwa,badiliko,NA,sdfdsf,NA,1,NA,NA,NA,NA,NA,NA,NA,NA,NA,NA,NA,NA,NA,NA,NA,NA,NA,NA,NA
9fd68,shallow,flow.Sequence,3_0_1_0_2_1,NA,NA,completion,10316.869,649967.6,649957.945,649974.611,660291.48,660299.5,2023-04-06T12:07:16Z,660308.146,NULL,Entwicklung,maendeleo,s,uangavu,mshindwa,badiliko,NA,sdfdsf,NA,1,NA,NA,NA,NA,NA,NA,NA,NA,NA,NA,NA,NA,NA,NA,NA,NA,NA,NA,NA
9fd68,task,flow.Sequence,3_0_1_0_2,NA,NA,completion,10316.869,649967.3,649957.945,649974.611,660291.48,660299.6,2023-04-06T12:07:16Z,660308.146,NULL,Entwicklung,maendeleo,s,uangavu,mshindwa,badiliko,NA,sdfdsf,NA,1,NA,NA,NA,NA,NA,NA,NA,NA,NA,NA,NA,NA,NA,NA,NA,NA,NA,NA,NA
9fd68,deep,flow.Sequence,3_0_1_0_3_0,NA,NA,skipped,NA,660299.7,NA,NA,660291.48,660299.8,2023-04-06T12:07:16Z,660308.146,NULL,Fenster,dirisha,s,walakini,tasawari,maarifa,NA,sdfdsf,NA,1,NA,NA,NA,NA,NA,NA,NA,NA,NA,NA,NA,NA,NA,NA,NA,NA,NA,NA,NA
9fd68,Shallow Question,html.Page,3_0_1_0_3_1_0,NA,NA,form submission,5587.754,660299.8,660291.48,660308.146,665895.9,665896.5,2023-04-06T12:07:22Z,665908.461,NULL,Fenster,dirisha,s,walakini,tasawari,maarifa,dirisha,NA,NA,1,NA,NA,NA,NA,NA,NA,NA,NA,NA,NA,NA,NA,NA,NA,NA,NA,NA,NA,NA
9fd68,"""Richtig""-Screen",canvas.Screen,3_0_1_0_3_1_1,NA,NA,timeout,4999.8,665899.1,665891.795,665908.461,670891.595,670893.9,2023-04-06T12:07:27Z,670908.261,NULL,Fenster,dirisha,s,walakini,tasawari,maarifa,NA,sdfdsf,1,1,NA,NA,NA,NA,NA,NA,NA,NA,NA,NA,NA,NA,NA,NA,NA,NA,NA,NA,NA
9fd68,"""Falsch""-Screen",canvas.Screen,3_0_1_0_3_1_2,NA,NA,skipped,NA,670898.3,NA,NA,670891.595,670898.4,2023-04-06T12:07:27Z,670908.261,NULL,Fenster,dirisha,s,walakini,tasawari,maarifa,NA,sdfdsf,NA,1,NA,NA,NA,NA,NA,NA,NA,NA,NA,NA,NA,NA,NA,NA,NA,NA,NA,NA,NA
9fd68,shallow,flow.Sequence,3_0_1_0_3_1,NA,NA,completion,10583.449,660299.8,660291.48,660308.146,670891.595,670898.7,2023-04-06T12:07:27Z,670908.261,NULL,Fenster,dirisha,s,walakini,tasawari,maarifa,NA,sdfdsf,NA,1,NA,NA,NA,NA,NA,NA,NA,NA,NA,NA,NA,NA,NA,NA,NA,NA,NA,NA,NA
9fd68,task,flow.Sequence,3_0_1_0_3,NA,NA,completion,10583.449,660299.7,660291.48,660308.146,670891.595,670898.9,2023-04-06T12:07:27Z,670908.261,NULL,Fenster,dirisha,s,walakini,tasawari,maarifa,NA,sdfdsf,NA,1,NA,NA,NA,NA,NA,NA,NA,NA,NA,NA,NA,NA,NA,NA,NA,NA,NA,NA,NA
9fd68,deep,flow.Sequence,3_0_1_0_4_0,NA,NA,skipped,NA,670899.1,NA,NA,670891.595,670899.2,2023-04-06T12:07:27Z,670908.261,NULL,Vorwurf,mashtaka,s,msukumo,mtangulizi,uenyekiti,NA,sdfdsf,NA,1,NA,NA,NA,NA,NA,NA,NA,NA,NA,NA,NA,NA,NA,NA,NA,NA,NA,NA,NA
9fd68,Shallow Question,html.Page,3_0_1_0_4_1_0,NA,NA,form submission,6787.8389999998,670899.3,670891.595,670908.261,677696.1,677696.7,2023-04-06T12:07:34Z,677708.545,NULL,Vorwurf,mashtaka,s,msukumo,mtangulizi,uenyekiti,mashtaka,NA,NA,1,NA,NA,NA,NA,NA,NA,NA,NA,NA,NA,NA,NA,NA,NA,NA,NA,NA,NA,NA
9fd68,"""Richtig""-Screen",canvas.Screen,3_0_1_0_4_1_1,NA,NA,timeout,4999.7999999999,677699.3,677691.879,677708.545,682691.679,682696,2023-04-06T12:07:39Z,682708.345,NULL,Vorwurf,mashtaka,s,msukumo,mtangulizi,uenyekiti,NA,sdfdsf,1,1,NA,NA,NA,NA,NA,NA,NA,NA,NA,NA,NA,NA,NA,NA,NA,NA,NA,NA,NA
9fd68,"""Falsch""-Screen",canvas.Screen,3_0_1_0_4_1_2,NA,NA,skipped,NA,682700.5,NA,NA,682691.679,682700.7,2023-04-06T12:07:39Z,682708.345,NULL,Vorwurf,mashtaka,s,msukumo,mtangulizi,uenyekiti,NA,sdfdsf,NA,1,NA,NA,NA,NA,NA,NA,NA,NA,NA,NA,NA,NA,NA,NA,NA,NA,NA,NA,NA
9fd68,shallow,flow.Sequence,3_0_1_0_4_1,NA,NA,completion,11783.418,670899.3,670891.595,670908.261,682691.679,682701,2023-04-06T12:07:39Z,682708.345,NULL,Vorwurf,mashtaka,s,msukumo,mtangulizi,uenyekiti,NA,sdfdsf,NA,1,NA,NA,NA,NA,NA,NA,NA,NA,NA,NA,NA,NA,NA,NA,NA,NA,NA,NA,NA
9fd68,task,flow.Sequence,3_0_1_0_4,NA,NA,completion,11783.418,670899,670891.595,670908.261,682691.679,682701.1,2023-04-06T12:07:39Z,682708.345,NULL,Vorwurf,mashtaka,s,msukumo,mtangulizi,uenyekiti,NA,sdfdsf,NA,1,NA,NA,NA,NA,NA,NA,NA,NA,NA,NA,NA,NA,NA,NA,NA,NA,NA,NA,NA
9fd68,Deep Question,html.Page,3_0_1_0_5_0_0,NA,NA,form submission,18459.555,682701.2,682691.679,682708.345,701167.9,701168.5,2023-04-06T12:07:57Z,701175.425,NULL,Schüler,mwanafunzi,d,NA,NA,NA,mathaefuzi,NA,NA,1,NA,NA,NA,NA,NA,NA,NA,NA,NA,NA,NA,NA,NA,NA,NA,NA,NA,NA,NA
9fd68,"""Richtig""-Screen",canvas.Screen,3_0_1_0_5_0_1,NA,NA,skipped,NA,701171.8,NA,NA,701167.9,701172.2,2023-04-06T12:07:57Z,701175.425,NULL,Schüler,mwanafunzi,d,NA,NA,NA,NA,sdfdsf,NA,1,NA,NA,NA,NA,NA,NA,NA,NA,NA,NA,NA,NA,NA,NA,NA,NA,NA,NA,NA
9fd68,"""Falsch""-Screen",canvas.Screen,3_0_1_0_5_0_2,NA,NA,timeout,4999.7999999999,701173.3,701158.759,701175.425,706158.559,706162.5,2023-04-06T12:08:02Z,706175.225,NULL,Schüler,mwanafunzi,d,NA,NA,NA,NA,sdfdsf,0,1,NA,NA,NA,NA,NA,NA,NA,NA,NA,NA,NA,NA,NA,NA,NA,NA,NA,NA,NA
9fd68,deep,flow.Sequence,3_0_1_0_5_0,NA,NA,completion,23450.214,682701.2,682691.679,682708.345,706158.559,706163,2023-04-06T12:08:02Z,706175.225,NULL,Schüler,mwanafunzi,d,NA,NA,NA,NA,sdfdsf,NA,1,NA,NA,NA,NA,NA,NA,NA,NA,NA,NA,NA,NA,NA,NA,NA,NA,NA,NA,NA
9fd68,shallow,flow.Sequence,3_0_1_0_5_1,NA,NA,skipped,NA,706163.1,NA,NA,706158.559,706163.2,2023-04-06T12:08:02Z,706175.225,NULL,Schüler,mwanafunzi,d,NA,NA,NA,NA,sdfdsf,NA,1,NA,NA,NA,NA,NA,NA,NA,NA,NA,NA,NA,NA,NA,NA,NA,NA,NA,NA,NA
9fd68,task,flow.Sequence,3_0_1_0_5,NA,NA,completion,23450.214,682701.2,682691.679,682708.345,706158.559,706163.4,2023-04-06T12:08:02Z,706175.225,NULL,Schüler,mwanafunzi,d,NA,NA,NA,NA,sdfdsf,NA,1,NA,NA,NA,NA,NA,NA,NA,NA,NA,NA,NA,NA,NA,NA,NA,NA,NA,NA,NA
9fd68,Deep Question,html.Page,3_0_1_0_6_0_0,NA,NA,form submission,5111.5750000001,706163.6,706158.559,706175.225,711286.8,711287.3,2023-04-06T12:08:07Z,711292.38,NULL,Niveau,kiwango,d,NA,NA,NA,m,NA,NA,1,NA,NA,NA,NA,NA,NA,NA,NA,NA,NA,NA,NA,NA,NA,NA,NA,NA,NA,NA
9fd68,"""Richtig""-Screen",canvas.Screen,3_0_1_0_6_0_1,NA,NA,skipped,NA,711290.1,NA,NA,711286.8,711290.2,2023-04-06T12:08:07Z,711292.38,NULL,Niveau,kiwango,d,NA,NA,NA,NA,sdfdsf,NA,1,NA,NA,NA,NA,NA,NA,NA,NA,NA,NA,NA,NA,NA,NA,NA,NA,NA,NA,NA
9fd68,"""Falsch""-Screen",canvas.Screen,3_0_1_0_6_0_2,NA,NA,timeout,4999.8,711290.8,711275.714,711292.38,716275.514,716280.1,2023-04-06T12:08:12Z,716292.18,NULL,Niveau,kiwango,d,NA,NA,NA,NA,sdfdsf,0,1,NA,NA,NA,NA,NA,NA,NA,NA,NA,NA,NA,NA,NA,NA,NA,NA,NA,NA,NA
9fd68,deep,flow.Sequence,3_0_1_0_6_0,NA,NA,completion,10100.289,706163.5,706158.559,706175.225,716275.514,716280.5,2023-04-06T12:08:12Z,716292.18,NULL,Niveau,kiwango,d,NA,NA,NA,NA,sdfdsf,NA,1,NA,NA,NA,NA,NA,NA,NA,NA,NA,NA,NA,NA,NA,NA,NA,NA,NA,NA,NA
9fd68,shallow,flow.Sequence,3_0_1_0_6_1,NA,NA,skipped,NA,716280.6,NA,NA,716275.514,716280.7,2023-04-06T12:08:12Z,716292.18,NULL,Niveau,kiwango,d,NA,NA,NA,NA,sdfdsf,NA,1,NA,NA,NA,NA,NA,NA,NA,NA,NA,NA,NA,NA,NA,NA,NA,NA,NA,NA,NA
9fd68,task,flow.Sequence,3_0_1_0_6,NA,NA,completion,10100.289,706163.5,706158.559,706175.225,716275.514,716280.9,2023-04-06T12:08:12Z,716292.18,NULL,Niveau,kiwango,d,NA,NA,NA,NA,sdfdsf,NA,1,NA,NA,NA,NA,NA,NA,NA,NA,NA,NA,NA,NA,NA,NA,NA,NA,NA,NA,NA
9fd68,Deep Question,html.Page,3_0_1_0_7_0_0,NA,NA,form submission,10925.82,716281.1,716275.514,716292.18,727218,727218.6,2023-04-06T12:08:23Z,727226.142,NULL,Tester,wanaojaribu,d,NA,NA,NA,kalaewo,NA,NA,1,NA,NA,NA,NA,NA,NA,NA,NA,NA,NA,NA,NA,NA,NA,NA,NA,NA,NA,NA
9fd68,"""Richtig""-Screen",canvas.Screen,3_0_1_0_7_0_1,NA,NA,skipped,NA,727221.7,NA,NA,727218,727222,2023-04-06T12:08:23Z,727226.142,NULL,Tester,wanaojaribu,d,NA,NA,NA,NA,sdfdsf,NA,1,NA,NA,NA,NA,NA,NA,NA,NA,NA,NA,NA,NA,NA,NA,NA,NA,NA,NA,NA
9fd68,"""Falsch""-Screen",canvas.Screen,3_0_1_0_7_0_2,NA,NA,timeout,4999.8,727223,727209.476,727226.142,732209.276,732213.3,2023-04-06T12:08:28Z,732225.942,NULL,Tester,wanaojaribu,d,NA,NA,NA,NA,sdfdsf,0,1,NA,NA,NA,NA,NA,NA,NA,NA,NA,NA,NA,NA,NA,NA,NA,NA,NA,NA,NA
9fd68,deep,flow.Sequence,3_0_1_0_7_0,NA,NA,completion,15917.096,716281.1,716275.514,716292.18,732209.276,732213.8,2023-04-06T12:08:28Z,732225.942,NULL,Tester,wanaojaribu,d,NA,NA,NA,NA,sdfdsf,NA,1,NA,NA,NA,NA,NA,NA,NA,NA,NA,NA,NA,NA,NA,NA,NA,NA,NA,NA,NA
9fd68,shallow,flow.Sequence,3_0_1_0_7_1,NA,NA,skipped,NA,732214,NA,NA,732209.276,732214.1,2023-04-06T12:08:28Z,732225.942,NULL,Tester,wanaojaribu,d,NA,NA,NA,NA,sdfdsf,NA,1,NA,NA,NA,NA,NA,NA,NA,NA,NA,NA,NA,NA,NA,NA,NA,NA,NA,NA,NA
9fd68,task,flow.Sequence,3_0_1_0_7,NA,NA,completion,15917.096,716281.1,716275.514,716292.18,732209.276,732214.3,2023-04-06T12:08:28Z,732225.942,NULL,Tester,wanaojaribu,d,NA,NA,NA,NA,sdfdsf,NA,1,NA,NA,NA,NA,NA,NA,NA,NA,NA,NA,NA,NA,NA,NA,NA,NA,NA,NA,NA
9fd68,block,flow.Loop,3_0_1_0,NA,NA,completion,115668.326,616531,616524.284,616540.95,732209.276,732214.5,2023-04-06T12:08:28Z,732225.942,NULL,NA,NA,NA,NA,NA,NA,NA,sdfdsf,NA,1,NA,NA,NA,NA,NA,NA,NA,NA,NA,NA,NA,NA,NA,NA,NA,NA,NA,NA,NA
9fd68,weiter,canvas.Screen,3_0_1_1,sdf,keypress(Space),response,1687.1579999998,732214.7,732209.276,732225.942,733913.1,733918,2023-04-06T12:08:30Z,733959.206,NULL,NA,NA,NA,NA,NA,NA,NA,sdfdsf,NA,1,NA,NA,NA,NA,NA,NA,NA,NA,NA,NA,NA,NA,NA,NA,NA,NA,NA,NA,NA
9fd68,check continue,flow.Sequence,3_0_1,NA,NA,completion,117372.15,616530.9,616524.284,616540.95,733913.1,733918.2,2023-04-06T12:08:30Z,733959.206,NULL,NA,NA,NA,NA,NA,NA,NA,sdfdsf,NA,1,NA,NA,NA,NA,NA,NA,NA,NA,NA,NA,NA,NA,NA,NA,NA,NA,NA,NA,NA
9fd68,Deep Question,html.Page,3_0_2_0_0_0_0,NA,NA,form submission,6890.8939999999,733943.6,733942.54,733959.206,740850.1,740850.7,2023-04-06T12:08:37Z,740859.541,NULL,Papier,karatasi,d,NA,NA,NA,jawanaeo,NA,NA,2,NA,NA,NA,NA,NA,NA,NA,NA,NA,NA,NA,NA,NA,NA,NA,NA,NA,NA,NA
9fd68,"""Richtig""-Screen",canvas.Screen,3_0_2_0_0_0_1,NA,NA,skipped,NA,740853.3,NA,NA,740850.1,740853.4,2023-04-06T12:08:37Z,740859.541,NULL,Papier,karatasi,d,NA,NA,NA,NA,sdf,NA,2,NA,NA,NA,NA,NA,NA,NA,NA,NA,NA,NA,NA,NA,NA,NA,NA,NA,NA,NA
9fd68,"""Falsch""-Screen",canvas.Screen,3_0_2_0_0_0_2,NA,NA,timeout,4999.8,740854,740842.875,740859.541,745842.675,745847.5,2023-04-06T12:08:42Z,745859.341,NULL,Papier,karatasi,d,NA,NA,NA,NA,sdf,0,2,NA,NA,NA,NA,NA,NA,NA,NA,NA,NA,NA,NA,NA,NA,NA,NA,NA,NA,NA
9fd68,deep,flow.Sequence,3_0_2_0_0_0,NA,NA,completion,11883.469,733943.5,733942.54,733959.206,745842.675,745847.8,2023-04-06T12:08:42Z,745859.341,NULL,Papier,karatasi,d,NA,NA,NA,NA,sdf,NA,2,NA,NA,NA,NA,NA,NA,NA,NA,NA,NA,NA,NA,NA,NA,NA,NA,NA,NA,NA
9fd68,shallow,flow.Sequence,3_0_2_0_0_1,NA,NA,skipped,NA,745847.9,NA,NA,745842.675,745848,2023-04-06T12:08:42Z,745859.341,NULL,Papier,karatasi,d,NA,NA,NA,NA,sdf,NA,2,NA,NA,NA,NA,NA,NA,NA,NA,NA,NA,NA,NA,NA,NA,NA,NA,NA,NA,NA
9fd68,task,flow.Sequence,3_0_2_0_0,NA,NA,completion,11883.469,733943.2,733942.54,733959.206,745842.675,745848.2,2023-04-06T12:08:42Z,745859.341,NULL,Papier,karatasi,d,NA,NA,NA,NA,sdf,NA,2,NA,NA,NA,NA,NA,NA,NA,NA,NA,NA,NA,NA,NA,NA,NA,NA,NA,NA,NA
9fd68,deep,flow.Sequence,3_0_2_0_1_0,NA,NA,skipped,NA,745848.3,NA,NA,745842.675,745848.4,2023-04-06T12:08:42Z,745859.341,NULL,Entwicklung,maendeleo,s,uangavu,mshindwa,badiliko,NA,sdf,NA,2,NA,NA,NA,NA,NA,NA,NA,NA,NA,NA,NA,NA,NA,NA,NA,NA,NA,NA,NA
9fd68,Shallow Question,html.Page,3_0_2_0_1_1_0,NA,NA,form submission,6006.659,745848.5,745842.675,745859.341,751866,751866.6,2023-04-06T12:08:48Z,751876.341,NULL,Entwicklung,maendeleo,s,uangavu,mshindwa,badiliko,maendeleo,NA,NA,2,NA,NA,NA,NA,NA,NA,NA,NA,NA,NA,NA,NA,NA,NA,NA,NA,NA,NA,NA
9fd68,"""Richtig""-Screen",canvas.Screen,3_0_2_0_1_1_1,NA,NA,timeout,4999.7999999999,751870.7,751859.675,751876.341,756859.475,756863.6,2023-04-06T12:08:53Z,756876.141,NULL,Entwicklung,maendeleo,s,uangavu,mshindwa,badiliko,NA,sdf,1,2,NA,NA,NA,NA,NA,NA,NA,NA,NA,NA,NA,NA,NA,NA,NA,NA,NA,NA,NA
9fd68,"""Falsch""-Screen",canvas.Screen,3_0_2_0_1_1_2,NA,NA,skipped,NA,756867.5,NA,NA,756859.475,756867.7,2023-04-06T12:08:53Z,756876.141,NULL,Entwicklung,maendeleo,s,uangavu,mshindwa,badiliko,NA,sdf,NA,2,NA,NA,NA,NA,NA,NA,NA,NA,NA,NA,NA,NA,NA,NA,NA,NA,NA,NA,NA
9fd68,shallow,flow.Sequence,3_0_2_0_1_1,NA,NA,completion,11000.134,745848.5,745842.675,745859.341,756859.475,756867.9,2023-04-06T12:08:53Z,756876.141,NULL,Entwicklung,maendeleo,s,uangavu,mshindwa,badiliko,NA,sdf,NA,2,NA,NA,NA,NA,NA,NA,NA,NA,NA,NA,NA,NA,NA,NA,NA,NA,NA,NA,NA
9fd68,task,flow.Sequence,3_0_2_0_1,NA,NA,completion,11000.134,745848.3,745842.675,745859.341,756859.475,756868,2023-04-06T12:08:53Z,756876.141,NULL,Entwicklung,maendeleo,s,uangavu,mshindwa,badiliko,NA,sdf,NA,2,NA,NA,NA,NA,NA,NA,NA,NA,NA,NA,NA,NA,NA,NA,NA,NA,NA,NA,NA
9fd68,deep,flow.Sequence,3_0_2_0_2_0,NA,NA,skipped,NA,756868.1,NA,NA,756859.475,756868.2,2023-04-06T12:08:53Z,756876.141,NULL,Spionage,upelelezi,s,maslahi,utokazo,magangao,NA,sdf,NA,2,NA,NA,NA,NA,NA,NA,NA,NA,NA,NA,NA,NA,NA,NA,NA,NA,NA,NA,NA
9fd68,Shallow Question,html.Page,3_0_2_0_2_1_0,NA,NA,form submission,5706.3590000001,756868.4,756859.475,756876.141,762582.5,762583,2023-04-06T12:08:59Z,762593.132,NULL,Spionage,upelelezi,s,maslahi,utokazo,magangao,upelelezi,NA,NA,2,NA,NA,NA,NA,NA,NA,NA,NA,NA,NA,NA,NA,NA,NA,NA,NA,NA,NA,NA
9fd68,"""Richtig""-Screen",canvas.Screen,3_0_2_0_2_1_1,NA,NA,timeout,4999.8,762586.4,762576.466,762593.132,767576.266,767580.3,2023-04-06T12:09:04Z,767592.932,NULL,Spionage,upelelezi,s,maslahi,utokazo,magangao,NA,sdf,1,2,NA,NA,NA,NA,NA,NA,NA,NA,NA,NA,NA,NA,NA,NA,NA,NA,NA,NA,NA
9fd68,"""Falsch""-Screen",canvas.Screen,3_0_2_0_2_1_2,NA,NA,skipped,NA,767584.3,NA,NA,767576.266,767584.4,2023-04-06T12:09:04Z,767592.932,NULL,Spionage,upelelezi,s,maslahi,utokazo,magangao,NA,sdf,NA,2,NA,NA,NA,NA,NA,NA,NA,NA,NA,NA,NA,NA,NA,NA,NA,NA,NA,NA,NA
9fd68,shallow,flow.Sequence,3_0_2_0_2_1,NA,NA,completion,10700.125,756868.3,756859.475,756876.141,767576.266,767584.5,2023-04-06T12:09:04Z,767592.932,NULL,Spionage,upelelezi,s,maslahi,utokazo,magangao,NA,sdf,NA,2,NA,NA,NA,NA,NA,NA,NA,NA,NA,NA,NA,NA,NA,NA,NA,NA,NA,NA,NA
9fd68,task,flow.Sequence,3_0_2_0_2,NA,NA,completion,10700.125,756868,756859.475,756876.141,767576.266,767584.6,2023-04-06T12:09:04Z,767592.932,NULL,Spionage,upelelezi,s,maslahi,utokazo,magangao,NA,sdf,NA,2,NA,NA,NA,NA,NA,NA,NA,NA,NA,NA,NA,NA,NA,NA,NA,NA,NA,NA,NA
9fd68,Deep Question,html.Page,3_0_2_0_3_0_0,NA,NA,form submission,10922.368,767584.8,767576.266,767592.932,778515.3,778515.9,2023-04-06T12:09:15Z,778526.387,NULL,Tester,wanaojaribu,d,NA,NA,NA,jeawelao,NA,NA,2,NA,NA,NA,NA,NA,NA,NA,NA,NA,NA,NA,NA,NA,NA,NA,NA,NA,NA,NA
9fd68,"""Richtig""-Screen",canvas.Screen,3_0_2_0_3_0_1,NA,NA,skipped,NA,778519.1,NA,NA,778515.3,778519.2,2023-04-06T12:09:15Z,778526.387,NULL,Tester,wanaojaribu,d,NA,NA,NA,NA,sdf,NA,2,NA,NA,NA,NA,NA,NA,NA,NA,NA,NA,NA,NA,NA,NA,NA,NA,NA,NA,NA
9fd68,"""Falsch""-Screen",canvas.Screen,3_0_2_0_3_0_2,NA,NA,timeout,4999.8,778520.1,778509.721,778526.387,783509.521,783514.3,2023-04-06T12:09:20Z,783526.187,NULL,Tester,wanaojaribu,d,NA,NA,NA,NA,sdf,0,2,NA,NA,NA,NA,NA,NA,NA,NA,NA,NA,NA,NA,NA,NA,NA,NA,NA,NA,NA
9fd68,deep,flow.Sequence,3_0_2_0_3_0,NA,NA,completion,15916.589,767584.8,767576.266,767592.932,783509.521,783514.7,2023-04-06T12:09:20Z,783526.187,NULL,Tester,wanaojaribu,d,NA,NA,NA,NA,sdf,NA,2,NA,NA,NA,NA,NA,NA,NA,NA,NA,NA,NA,NA,NA,NA,NA,NA,NA,NA,NA
9fd68,shallow,flow.Sequence,3_0_2_0_3_1,NA,NA,skipped,NA,783514.9,NA,NA,783509.521,783515.1,2023-04-06T12:09:20Z,783526.187,NULL,Tester,wanaojaribu,d,NA,NA,NA,NA,sdf,NA,2,NA,NA,NA,NA,NA,NA,NA,NA,NA,NA,NA,NA,NA,NA,NA,NA,NA,NA,NA
9fd68,task,flow.Sequence,3_0_2_0_3,NA,NA,completion,15916.589,767584.7,767576.266,767592.932,783509.521,783515.3,2023-04-06T12:09:20Z,783526.187,NULL,Tester,wanaojaribu,d,NA,NA,NA,NA,sdf,NA,2,NA,NA,NA,NA,NA,NA,NA,NA,NA,NA,NA,NA,NA,NA,NA,NA,NA,NA,NA
9fd68,Deep Question,html.Page,3_0_2_0_4_0_0,NA,NA,form submission,4493.5129999999,783515.4,783509.521,783526.187,788019.7,788020.2,2023-04-06T12:09:24Z,788026.769,NULL,Schüler,mwanafunzi,d,NA,NA,NA,jawanaero,NA,NA,2,NA,NA,NA,NA,NA,NA,NA,NA,NA,NA,NA,NA,NA,NA,NA,NA,NA,NA,NA
9fd68,"""Richtig""-Screen",canvas.Screen,3_0_2_0_4_0_1,NA,NA,skipped,NA,788022.9,NA,NA,788019.7,788023.1,2023-04-06T12:09:24Z,788026.769,NULL,Schüler,mwanafunzi,d,NA,NA,NA,NA,sdf,NA,2,NA,NA,NA,NA,NA,NA,NA,NA,NA,NA,NA,NA,NA,NA,NA,NA,NA,NA,NA
9fd68,"""Falsch""-Screen",canvas.Screen,3_0_2_0_4_0_2,NA,NA,timeout,4999.8,788024.1,788010.103,788026.769,793009.903,793015.3,2023-04-06T12:09:29Z,793026.569,NULL,Schüler,mwanafunzi,d,NA,NA,NA,NA,sdf,0,2,NA,NA,NA,NA,NA,NA,NA,NA,NA,NA,NA,NA,NA,NA,NA,NA,NA,NA,NA
9fd68,deep,flow.Sequence,3_0_2_0_4_0,NA,NA,completion,9483.716,783515.4,783509.521,783526.187,793009.903,793015.8,2023-04-06T12:09:29Z,793026.569,NULL,Schüler,mwanafunzi,d,NA,NA,NA,NA,sdf,NA,2,NA,NA,NA,NA,NA,NA,NA,NA,NA,NA,NA,NA,NA,NA,NA,NA,NA,NA,NA
9fd68,shallow,flow.Sequence,3_0_2_0_4_1,NA,NA,skipped,NA,793015.9,NA,NA,793009.903,793016,2023-04-06T12:09:29Z,793026.569,NULL,Schüler,mwanafunzi,d,NA,NA,NA,NA,sdf,NA,2,NA,NA,NA,NA,NA,NA,NA,NA,NA,NA,NA,NA,NA,NA,NA,NA,NA,NA,NA
9fd68,task,flow.Sequence,3_0_2_0_4,NA,NA,completion,9483.716,783515.3,783509.521,783526.187,793009.903,793016.2,2023-04-06T12:09:29Z,793026.569,NULL,Schüler,mwanafunzi,d,NA,NA,NA,NA,sdf,NA,2,NA,NA,NA,NA,NA,NA,NA,NA,NA,NA,NA,NA,NA,NA,NA,NA,NA,NA,NA
9fd68,Deep Question,html.Page,3_0_2_0_5_0_0,NA,NA,form submission,15478.431,793016.4,793009.903,793026.569,808505,808505.5,2023-04-06T12:09:45Z,808510.062,NULL,Niveau,kiwango,d,NA,NA,NA,jakaneo,NA,NA,2,NA,NA,NA,NA,NA,NA,NA,NA,NA,NA,NA,NA,NA,NA,NA,NA,NA,NA,NA
9fd68,"""Richtig""-Screen",canvas.Screen,3_0_2_0_5_0_1,NA,NA,skipped,NA,808508.3,NA,NA,808505,808508.4,2023-04-06T12:09:45Z,808510.062,NULL,Niveau,kiwango,d,NA,NA,NA,NA,sdf,NA,2,NA,NA,NA,NA,NA,NA,NA,NA,NA,NA,NA,NA,NA,NA,NA,NA,NA,NA,NA
9fd68,"""Falsch""-Screen",canvas.Screen,3_0_2_0_5_0_2,NA,NA,timeout,4999.7999999999,808509,808493.396,808510.062,813493.196,813495,2023-04-06T12:09:50Z,813509.862,NULL,Niveau,kiwango,d,NA,NA,NA,NA,sdf,0,2,NA,NA,NA,NA,NA,NA,NA,NA,NA,NA,NA,NA,NA,NA,NA,NA,NA,NA,NA
9fd68,deep,flow.Sequence,3_0_2_0_5_0,NA,NA,completion,20466.627,793016.4,793009.903,793026.569,813493.196,813495.4,2023-04-06T12:09:50Z,813509.862,NULL,Niveau,kiwango,d,NA,NA,NA,NA,sdf,NA,2,NA,NA,NA,NA,NA,NA,NA,NA,NA,NA,NA,NA,NA,NA,NA,NA,NA,NA,NA
9fd68,shallow,flow.Sequence,3_0_2_0_5_1,NA,NA,skipped,NA,813495.6,NA,NA,813493.196,813495.7,2023-04-06T12:09:50Z,813509.862,NULL,Niveau,kiwango,d,NA,NA,NA,NA,sdf,NA,2,NA,NA,NA,NA,NA,NA,NA,NA,NA,NA,NA,NA,NA,NA,NA,NA,NA,NA,NA
9fd68,task,flow.Sequence,3_0_2_0_5,NA,NA,completion,20466.627,793016.3,793009.903,793026.569,813493.196,813495.9,2023-04-06T12:09:50Z,813509.862,NULL,Niveau,kiwango,d,NA,NA,NA,NA,sdf,NA,2,NA,NA,NA,NA,NA,NA,NA,NA,NA,NA,NA,NA,NA,NA,NA,NA,NA,NA,NA
9fd68,deep,flow.Sequence,3_0_2_0_6_0,NA,NA,skipped,NA,813496,NA,NA,813493.196,813496.1,2023-04-06T12:09:50Z,813509.862,NULL,Vorwurf,mashtaka,s,msukumo,mtangulizi,uenyekiti,NA,sdf,NA,2,NA,NA,NA,NA,NA,NA,NA,NA,NA,NA,NA,NA,NA,NA,NA,NA,NA,NA,NA
9fd68,Shallow Question,html.Page,3_0_2_0_6_1_0,NA,NA,form submission,11255.438,813496.3,813493.196,813509.862,824765.3,824765.8,2023-04-06T12:10:01Z,824777.132,NULL,Vorwurf,mashtaka,s,msukumo,mtangulizi,uenyekiti,msukumo,NA,NA,2,NA,NA,NA,NA,NA,NA,NA,NA,NA,NA,NA,NA,NA,NA,NA,NA,NA,NA,NA
9fd68,"""Richtig""-Screen",canvas.Screen,3_0_2_0_6_1_1,NA,NA,skipped,NA,824769.7,NA,NA,824765.3,824769.9,2023-04-06T12:10:01Z,824777.132,NULL,Vorwurf,mashtaka,s,msukumo,mtangulizi,uenyekiti,NA,sdf,NA,2,NA,NA,NA,NA,NA,NA,NA,NA,NA,NA,NA,NA,NA,NA,NA,NA,NA,NA,NA
9fd68,"""Falsch""-Screen",canvas.Screen,3_0_2_0_6_1_2,NA,NA,timeout,4999.8,824770.7,824760.466,824777.132,829760.266,829765.7,2023-04-06T12:10:06Z,829776.932,NULL,Vorwurf,mashtaka,s,msukumo,mtangulizi,uenyekiti,NA,sdf,0,2,NA,NA,NA,NA,NA,NA,NA,NA,NA,NA,NA,NA,NA,NA,NA,NA,NA,NA,NA
9fd68,shallow,flow.Sequence,3_0_2_0_6_1,NA,NA,completion,16250.404,813496.3,813493.196,813509.862,829760.266,829766.3,2023-04-06T12:10:06Z,829776.932,NULL,Vorwurf,mashtaka,s,msukumo,mtangulizi,uenyekiti,NA,sdf,NA,2,NA,NA,NA,NA,NA,NA,NA,NA,NA,NA,NA,NA,NA,NA,NA,NA,NA,NA,NA
9fd68,task,flow.Sequence,3_0_2_0_6,NA,NA,completion,16250.404,813496,813493.196,813509.862,829760.266,829766.5,2023-04-06T12:10:06Z,829776.932,NULL,Vorwurf,mashtaka,s,msukumo,mtangulizi,uenyekiti,NA,sdf,NA,2,NA,NA,NA,NA,NA,NA,NA,NA,NA,NA,NA,NA,NA,NA,NA,NA,NA,NA,NA
9fd68,deep,flow.Sequence,3_0_2_0_7_0,NA,NA,skipped,NA,829766.6,NA,NA,829760.266,829766.7,2023-04-06T12:10:06Z,829776.932,NULL,Fenster,dirisha,s,walakini,tasawari,maarifa,NA,sdf,NA,2,NA,NA,NA,NA,NA,NA,NA,NA,NA,NA,NA,NA,NA,NA,NA,NA,NA,NA,NA
9fd68,Shallow Question,html.Page,3_0_2_0_7_1_0,NA,NA,form submission,2342.7679999999,829767,829760.266,829776.932,832119.7,832120.3,2023-04-06T12:10:08Z,832127.351,NULL,Fenster,dirisha,s,walakini,tasawari,maarifa,dirisha,NA,NA,2,NA,NA,NA,NA,NA,NA,NA,NA,NA,NA,NA,NA,NA,NA,NA,NA,NA,NA,NA
9fd68,"""Richtig""-Screen",canvas.Screen,3_0_2_0_7_1_1,NA,NA,timeout,4999.7999999999,832123.1,832110.685,832127.351,837110.485,837115.2,2023-04-06T12:10:13Z,837127.151,NULL,Fenster,dirisha,s,walakini,tasawari,maarifa,NA,sdf,1,2,NA,NA,NA,NA,NA,NA,NA,NA,NA,NA,NA,NA,NA,NA,NA,NA,NA,NA,NA
9fd68,"""Falsch""-Screen",canvas.Screen,3_0_2_0_7_1_2,NA,NA,skipped,NA,837119.3,NA,NA,837110.485,837119.5,2023-04-06T12:10:13Z,837127.151,NULL,Fenster,dirisha,s,walakini,tasawari,maarifa,NA,sdf,NA,2,NA,NA,NA,NA,NA,NA,NA,NA,NA,NA,NA,NA,NA,NA,NA,NA,NA,NA,NA
9fd68,shallow,flow.Sequence,3_0_2_0_7_1,NA,NA,completion,7333.553,829766.8,829760.266,829776.932,837110.485,837119.6,2023-04-06T12:10:13Z,837127.151,NULL,Fenster,dirisha,s,walakini,tasawari,maarifa,NA,sdf,NA,2,NA,NA,NA,NA,NA,NA,NA,NA,NA,NA,NA,NA,NA,NA,NA,NA,NA,NA,NA
9fd68,task,flow.Sequence,3_0_2_0_7,NA,NA,completion,7333.553,829766.6,829760.266,829776.932,837110.485,837119.8,2023-04-06T12:10:13Z,837127.151,NULL,Fenster,dirisha,s,walakini,tasawari,maarifa,NA,sdf,NA,2,NA,NA,NA,NA,NA,NA,NA,NA,NA,NA,NA,NA,NA,NA,NA,NA,NA,NA,NA
9fd68,block,flow.Loop,3_0_2_0,NA,NA,completion,103151.279,733943.2,733942.54,733959.206,837110.485,837119.9,2023-04-06T12:10:13Z,837127.151,NULL,NA,NA,NA,NA,NA,NA,NA,sdf,NA,2,NA,NA,NA,NA,NA,NA,NA,NA,NA,NA,NA,NA,NA,NA,NA,NA,NA,NA,NA
9fd68,weiter,canvas.Screen,3_0_2_1,sdf,keypress(Space),response,3731.6490000001,837120,837110.485,837127.151,840858.8,840864.1,2023-04-06T12:10:17Z,840893.667,NULL,NA,NA,NA,NA,NA,NA,NA,sdf,NA,2,NA,NA,NA,NA,NA,NA,NA,NA,NA,NA,NA,NA,NA,NA,NA,NA,NA,NA,NA
9fd68,check continue,flow.Sequence,3_0_2,NA,NA,completion,106899.594,733943.1,733942.54,733959.206,840858.8,840864.4,2023-04-06T12:10:17Z,840893.667,NULL,NA,NA,NA,NA,NA,NA,NA,sdf,NA,2,NA,NA,NA,NA,NA,NA,NA,NA,NA,NA,NA,NA,NA,NA,NA,NA,NA,NA,NA
9fd68,Deep Question,html.Page,3_0_3_0_0_0_0,NA,NA,form submission,23710.033,840891.1,840877.001,840893.667,864603.7,864604.3,2023-04-06T12:10:41Z,864611.054,NULL,Niveau,kiwango,d,NA,NA,NA,mawastanki,NA,NA,3,NA,NA,NA,NA,NA,NA,NA,NA,NA,NA,NA,NA,NA,NA,NA,NA,NA,NA,NA
9fd68,"""Richtig""-Screen",canvas.Screen,3_0_3_0_0_0_1,NA,NA,skipped,NA,864607.5,NA,NA,864603.7,864607.7,2023-04-06T12:10:41Z,864611.054,NULL,Niveau,kiwango,d,NA,NA,NA,NA,qt,NA,3,NA,NA,NA,NA,NA,NA,NA,NA,NA,NA,NA,NA,NA,NA,NA,NA,NA,NA,NA
9fd68,"""Falsch""-Screen",canvas.Screen,3_0_3_0_0_0_2,NA,NA,timeout,4999.8,864608.7,864594.388,864611.054,869594.188,869598.3,2023-04-06T12:10:46Z,869610.854,NULL,Niveau,kiwango,d,NA,NA,NA,NA,qt,0,3,NA,NA,NA,NA,NA,NA,NA,NA,NA,NA,NA,NA,NA,NA,NA,NA,NA,NA,NA
9fd68,deep,flow.Sequence,3_0_3_0_0_0,NA,NA,completion,28700.521,840891,840877.001,840893.667,869594.188,869598.8,2023-04-06T12:10:46Z,869610.854,NULL,Niveau,kiwango,d,NA,NA,NA,NA,qt,NA,3,NA,NA,NA,NA,NA,NA,NA,NA,NA,NA,NA,NA,NA,NA,NA,NA,NA,NA,NA
9fd68,shallow,flow.Sequence,3_0_3_0_0_1,NA,NA,skipped,NA,869598.9,NA,NA,869594.188,869599,2023-04-06T12:10:46Z,869610.854,NULL,Niveau,kiwango,d,NA,NA,NA,NA,qt,NA,3,NA,NA,NA,NA,NA,NA,NA,NA,NA,NA,NA,NA,NA,NA,NA,NA,NA,NA,NA
9fd68,task,flow.Sequence,3_0_3_0_0,NA,NA,completion,28700.521,840891,840877.001,840893.667,869594.188,869599.1,2023-04-06T12:10:46Z,869610.854,NULL,Niveau,kiwango,d,NA,NA,NA,NA,qt,NA,3,NA,NA,NA,NA,NA,NA,NA,NA,NA,NA,NA,NA,NA,NA,NA,NA,NA,NA,NA
9fd68,deep,flow.Sequence,3_0_3_0_1_0,NA,NA,skipped,NA,869599.3,NA,NA,869594.188,869599.4,2023-04-06T12:10:46Z,869610.854,NULL,Spionage,upelelezi,s,maslahi,utokazo,magangao,NA,qt,NA,3,NA,NA,NA,NA,NA,NA,NA,NA,NA,NA,NA,NA,NA,NA,NA,NA,NA,NA,NA
9fd68,Shallow Question,html.Page,3_0_3_0_1_1_0,NA,NA,form submission,4910.6459999999,869599.6,869594.188,869610.854,874521.5,874522.2,2023-04-06T12:10:51Z,874527.95,NULL,Spionage,upelelezi,s,maslahi,utokazo,magangao,upelelezi,NA,NA,3,NA,NA,NA,NA,NA,NA,NA,NA,NA,NA,NA,NA,NA,NA,NA,NA,NA,NA,NA
9fd68,"""Richtig""-Screen",canvas.Screen,3_0_3_0_1_1_1,NA,NA,timeout,4999.8,874526.2,874511.284,874527.95,879511.084,879515.4,2023-04-06T12:10:56Z,879527.75,NULL,Spionage,upelelezi,s,maslahi,utokazo,magangao,NA,qt,1,3,NA,NA,NA,NA,NA,NA,NA,NA,NA,NA,NA,NA,NA,NA,NA,NA,NA,NA,NA
9fd68,"""Falsch""-Screen",canvas.Screen,3_0_3_0_1_1_2,NA,NA,skipped,NA,879519,NA,NA,879511.084,879519.1,2023-04-06T12:10:56Z,879527.75,NULL,Spionage,upelelezi,s,maslahi,utokazo,magangao,NA,qt,NA,3,NA,NA,NA,NA,NA,NA,NA,NA,NA,NA,NA,NA,NA,NA,NA,NA,NA,NA,NA
9fd68,shallow,flow.Sequence,3_0_3_0_1_1,NA,NA,completion,9900.23,869599.5,869594.188,869610.854,879511.084,879519.3,2023-04-06T12:10:56Z,879527.75,NULL,Spionage,upelelezi,s,maslahi,utokazo,magangao,NA,qt,NA,3,NA,NA,NA,NA,NA,NA,NA,NA,NA,NA,NA,NA,NA,NA,NA,NA,NA,NA,NA
9fd68,task,flow.Sequence,3_0_3_0_1,NA,NA,completion,9900.23,869599.2,869594.188,869610.854,879511.084,879519.4,2023-04-06T12:10:56Z,879527.75,NULL,Spionage,upelelezi,s,maslahi,utokazo,magangao,NA,qt,NA,3,NA,NA,NA,NA,NA,NA,NA,NA,NA,NA,NA,NA,NA,NA,NA,NA,NA,NA,NA
9fd68,Deep Question,html.Page,3_0_3_0_2_0_0,NA,NA,form submission,5713.6499999999,879519.6,879511.084,879527.75,885241.4,885241.8,2023-04-06T12:11:01Z,885244.731,NULL,Papier,karatasi,d,NA,NA,NA,d,NA,NA,3,NA,NA,NA,NA,NA,NA,NA,NA,NA,NA,NA,NA,NA,NA,NA,NA,NA,NA,NA
9fd68,"""Richtig""-Screen",canvas.Screen,3_0_3_0_2_0_1,NA,NA,skipped,NA,885244.8,NA,NA,885241.4,885244.9,2023-04-06T12:11:01Z,885244.731,NULL,Papier,karatasi,d,NA,NA,NA,NA,qt,NA,3,NA,NA,NA,NA,NA,NA,NA,NA,NA,NA,NA,NA,NA,NA,NA,NA,NA,NA,NA
9fd68,"""Falsch""-Screen",canvas.Screen,3_0_3_0_2_0_2,NA,NA,timeout,4999.7999999999,885245.5,885228.065,885244.731,890227.865,890231.9,2023-04-06T12:11:06Z,890244.531,NULL,Papier,karatasi,d,NA,NA,NA,NA,qt,0,3,NA,NA,NA,NA,NA,NA,NA,NA,NA,NA,NA,NA,NA,NA,NA,NA,NA,NA,NA
9fd68,deep,flow.Sequence,3_0_3_0_2_0,NA,NA,completion,10700.115,879519.5,879511.084,879527.75,890227.865,890232.3,2023-04-06T12:11:06Z,890244.531,NULL,Papier,karatasi,d,NA,NA,NA,NA,qt,NA,3,NA,NA,NA,NA,NA,NA,NA,NA,NA,NA,NA,NA,NA,NA,NA,NA,NA,NA,NA
9fd68,shallow,flow.Sequence,3_0_3_0_2_1,NA,NA,skipped,NA,890232.5,NA,NA,890227.865,890232.5,2023-04-06T12:11:06Z,890244.531,NULL,Papier,karatasi,d,NA,NA,NA,NA,qt,NA,3,NA,NA,NA,NA,NA,NA,NA,NA,NA,NA,NA,NA,NA,NA,NA,NA,NA,NA,NA
9fd68,task,flow.Sequence,3_0_3_0_2,NA,NA,completion,10700.115,879519.5,879511.084,879527.75,890227.865,890232.8,2023-04-06T12:11:06Z,890244.531,NULL,Papier,karatasi,d,NA,NA,NA,NA,qt,NA,3,NA,NA,NA,NA,NA,NA,NA,NA,NA,NA,NA,NA,NA,NA,NA,NA,NA,NA,NA
9fd68,deep,flow.Sequence,3_0_3_0_3_0,NA,NA,skipped,NA,890233,NA,NA,890227.865,890233,2023-04-06T12:11:06Z,890244.531,NULL,Entwicklung,maendeleo,s,uangavu,mshindwa,badiliko,NA,qt,NA,3,NA,NA,NA,NA,NA,NA,NA,NA,NA,NA,NA,NA,NA,NA,NA,NA,NA,NA,NA
9fd68,Shallow Question,html.Page,3_0_3_0_3_1_0,NA,NA,form submission,3919.8689999999,890233.2,890227.865,890244.531,894164.4,894164.9,2023-04-06T12:11:10Z,894178.284,NULL,Entwicklung,maendeleo,s,uangavu,mshindwa,badiliko,maendeleo,NA,NA,3,NA,NA,NA,NA,NA,NA,NA,NA,NA,NA,NA,NA,NA,NA,NA,NA,NA,NA,NA
9fd68,"""Richtig""-Screen",canvas.Screen,3_0_3_0_3_1_1,NA,NA,timeout,4999.8,894169,894161.618,894178.284,899161.418,899166.2,2023-04-06T12:11:15Z,899178.084,NULL,Entwicklung,maendeleo,s,uangavu,mshindwa,badiliko,NA,qt,1,3,NA,NA,NA,NA,NA,NA,NA,NA,NA,NA,NA,NA,NA,NA,NA,NA,NA,NA,NA
9fd68,"""Falsch""-Screen",canvas.Screen,3_0_3_0_3_1_2,NA,NA,skipped,NA,899170.6,NA,NA,899161.418,899170.8,2023-04-06T12:11:15Z,899178.084,NULL,Entwicklung,maendeleo,s,uangavu,mshindwa,badiliko,NA,qt,NA,3,NA,NA,NA,NA,NA,NA,NA,NA,NA,NA,NA,NA,NA,NA,NA,NA,NA,NA,NA
9fd68,shallow,flow.Sequence,3_0_3_0_3_1,NA,NA,completion,8916.887,890233.1,890227.865,890244.531,899161.418,899171,2023-04-06T12:11:15Z,899178.084,NULL,Entwicklung,maendeleo,s,uangavu,mshindwa,badiliko,NA,qt,NA,3,NA,NA,NA,NA,NA,NA,NA,NA,NA,NA,NA,NA,NA,NA,NA,NA,NA,NA,NA
9fd68,task,flow.Sequence,3_0_3_0_3,NA,NA,completion,8916.887,890232.8,890227.865,890244.531,899161.418,899171.3,2023-04-06T12:11:15Z,899178.084,NULL,Entwicklung,maendeleo,s,uangavu,mshindwa,badiliko,NA,qt,NA,3,NA,NA,NA,NA,NA,NA,NA,NA,NA,NA,NA,NA,NA,NA,NA,NA,NA,NA,NA
9fd68,deep,flow.Sequence,3_0_3_0_4_0,NA,NA,skipped,NA,899171.3,NA,NA,899161.418,899171.5,2023-04-06T12:11:15Z,899178.084,NULL,Vorwurf,mashtaka,s,msukumo,mtangulizi,uenyekiti,NA,qt,NA,3,NA,NA,NA,NA,NA,NA,NA,NA,NA,NA,NA,NA,NA,NA,NA,NA,NA,NA,NA
9fd68,Shallow Question,html.Page,3_0_3_0_4_1_0,NA,NA,form submission,3019.5159999998,899171.7,899161.418,899178.084,902197.6,902198.2,2023-04-06T12:11:18Z,902211.296,NULL,Vorwurf,mashtaka,s,msukumo,mtangulizi,uenyekiti,msukumo,NA,NA,3,NA,NA,NA,NA,NA,NA,NA,NA,NA,NA,NA,NA,NA,NA,NA,NA,NA,NA,NA
9fd68,"""Richtig""-Screen",canvas.Screen,3_0_3_0_4_1_1,NA,NA,skipped,NA,902202.1,NA,NA,902197.6,902202.3,2023-04-06T12:11:18Z,902211.296,NULL,Vorwurf,mashtaka,s,msukumo,mtangulizi,uenyekiti,NA,qt,NA,3,NA,NA,NA,NA,NA,NA,NA,NA,NA,NA,NA,NA,NA,NA,NA,NA,NA,NA,NA
9fd68,"""Falsch""-Screen",canvas.Screen,3_0_3_0_4_1_2,NA,NA,timeout,4999.8,902203.5,902194.63,902211.296,907194.43,907197,2023-04-06T12:11:23Z,907211.096,NULL,Vorwurf,mashtaka,s,msukumo,mtangulizi,uenyekiti,NA,qt,0,3,NA,NA,NA,NA,NA,NA,NA,NA,NA,NA,NA,NA,NA,NA,NA,NA,NA,NA,NA
9fd68,shallow,flow.Sequence,3_0_3_0_4_1,NA,NA,completion,8016.346,899171.7,899161.418,899178.084,907194.43,907197.4,2023-04-06T12:11:23Z,907211.096,NULL,Vorwurf,mashtaka,s,msukumo,mtangulizi,uenyekiti,NA,qt,NA,3,NA,NA,NA,NA,NA,NA,NA,NA,NA,NA,NA,NA,NA,NA,NA,NA,NA,NA,NA
9fd68,task,flow.Sequence,3_0_3_0_4,NA,NA,completion,8016.346,899171.3,899161.418,899178.084,907194.43,907197.6,2023-04-06T12:11:23Z,907211.096,NULL,Vorwurf,mashtaka,s,msukumo,mtangulizi,uenyekiti,NA,qt,NA,3,NA,NA,NA,NA,NA,NA,NA,NA,NA,NA,NA,NA,NA,NA,NA,NA,NA,NA,NA
9fd68,Deep Question,html.Page,3_0_3_0_5_0_0,NA,NA,form submission,12446.204,907197.9,907194.43,907211.096,919657.3,919657.9,2023-04-06T12:11:36Z,919678.463,NULL,Schüler,mwanafunzi,d,NA,NA,NA,mawafuzi,NA,NA,3,NA,NA,NA,NA,NA,NA,NA,NA,NA,NA,NA,NA,NA,NA,NA,NA,NA,NA,NA
9fd68,"""Richtig""-Screen",canvas.Screen,3_0_3_0_5_0_1,NA,NA,skipped,NA,919660.9,NA,NA,919657.3,919661.1,2023-04-06T12:11:36Z,919678.463,NULL,Schüler,mwanafunzi,d,NA,NA,NA,NA,qt,NA,3,NA,NA,NA,NA,NA,NA,NA,NA,NA,NA,NA,NA,NA,NA,NA,NA,NA,NA,NA
9fd68,"""Falsch""-Screen",canvas.Screen,3_0_3_0_5_0_2,NA,NA,timeout,4999.8,919661.8,919661.797,919678.463,924661.597,924664.6,2023-04-06T12:11:41Z,924678.263,NULL,Schüler,mwanafunzi,d,NA,NA,NA,NA,qt,0,3,NA,NA,NA,NA,NA,NA,NA,NA,NA,NA,NA,NA,NA,NA,NA,NA,NA,NA,NA
9fd68,deep,flow.Sequence,3_0_3_0_5_0,NA,NA,completion,17450.501,907197.9,907194.43,907211.096,924661.597,924665.1,2023-04-06T12:11:41Z,924678.263,NULL,Schüler,mwanafunzi,d,NA,NA,NA,NA,qt,NA,3,NA,NA,NA,NA,NA,NA,NA,NA,NA,NA,NA,NA,NA,NA,NA,NA,NA,NA,NA
9fd68,shallow,flow.Sequence,3_0_3_0_5_1,NA,NA,skipped,NA,924665.3,NA,NA,924661.597,924665.4,2023-04-06T12:11:41Z,924678.263,NULL,Schüler,mwanafunzi,d,NA,NA,NA,NA,qt,NA,3,NA,NA,NA,NA,NA,NA,NA,NA,NA,NA,NA,NA,NA,NA,NA,NA,NA,NA,NA
9fd68,task,flow.Sequence,3_0_3_0_5,NA,NA,completion,17450.501,907197.7,907194.43,907211.096,924661.597,924665.6,2023-04-06T12:11:41Z,924678.263,NULL,Schüler,mwanafunzi,d,NA,NA,NA,NA,qt,NA,3,NA,NA,NA,NA,NA,NA,NA,NA,NA,NA,NA,NA,NA,NA,NA,NA,NA,NA,NA
9fd68,Deep Question,html.Page,3_0_3_0_6_0_0,NA,NA,form submission,7321.9369999999,924665.8,924661.597,924678.263,932000.2,932000.8,2023-04-06T12:11:48Z,932011.94,NULL,Tester,wanaojaribu,d,NA,NA,NA,lk,NA,NA,3,NA,NA,NA,NA,NA,NA,NA,NA,NA,NA,NA,NA,NA,NA,NA,NA,NA,NA,NA
9fd68,"""Richtig""-Screen",canvas.Screen,3_0_3_0_6_0_1,NA,NA,skipped,NA,932004.2,NA,NA,932000.2,932004.5,2023-04-06T12:11:48Z,932011.94,NULL,Tester,wanaojaribu,d,NA,NA,NA,NA,qt,NA,3,NA,NA,NA,NA,NA,NA,NA,NA,NA,NA,NA,NA,NA,NA,NA,NA,NA,NA,NA
9fd68,"""Falsch""-Screen",canvas.Screen,3_0_3_0_6_0_2,NA,NA,timeout,4999.8,932005.4,931995.274,932011.94,936995.074,936999.6,2023-04-06T12:11:53Z,937011.74,NULL,Tester,wanaojaribu,d,NA,NA,NA,NA,qt,0,3,NA,NA,NA,NA,NA,NA,NA,NA,NA,NA,NA,NA,NA,NA,NA,NA,NA,NA,NA
9fd68,deep,flow.Sequence,3_0_3_0_6_0,NA,NA,completion,12316.811,924665.8,924661.597,924678.263,936995.074,937000,2023-04-06T12:11:53Z,937011.74,NULL,Tester,wanaojaribu,d,NA,NA,NA,NA,qt,NA,3,NA,NA,NA,NA,NA,NA,NA,NA,NA,NA,NA,NA,NA,NA,NA,NA,NA,NA,NA
9fd68,shallow,flow.Sequence,3_0_3_0_6_1,NA,NA,skipped,NA,937000.2,NA,NA,936995.074,937000.3,2023-04-06T12:11:53Z,937011.74,NULL,Tester,wanaojaribu,d,NA,NA,NA,NA,qt,NA,3,NA,NA,NA,NA,NA,NA,NA,NA,NA,NA,NA,NA,NA,NA,NA,NA,NA,NA,NA
9fd68,task,flow.Sequence,3_0_3_0_6,NA,NA,completion,12316.811,924665.8,924661.597,924678.263,936995.074,937000.5,2023-04-06T12:11:53Z,937011.74,NULL,Tester,wanaojaribu,d,NA,NA,NA,NA,qt,NA,3,NA,NA,NA,NA,NA,NA,NA,NA,NA,NA,NA,NA,NA,NA,NA,NA,NA,NA,NA
9fd68,deep,flow.Sequence,3_0_3_0_7_0,NA,NA,skipped,NA,937000.6,NA,NA,936995.074,937000.8,2023-04-06T12:11:53Z,937011.74,NULL,Fenster,dirisha,s,walakini,tasawari,maarifa,NA,qt,NA,3,NA,NA,NA,NA,NA,NA,NA,NA,NA,NA,NA,NA,NA,NA,NA,NA,NA,NA,NA
9fd68,Shallow Question,html.Page,3_0_3_0_7_1_0,NA,NA,form submission,3788.5600000001,937000.8,936995.074,937011.74,940800.3,940801,2023-04-06T12:11:57Z,940812.143,NULL,Fenster,dirisha,s,walakini,tasawari,maarifa,dirisha,NA,NA,3,NA,NA,NA,NA,NA,NA,NA,NA,NA,NA,NA,NA,NA,NA,NA,NA,NA,NA,NA
9fd68,"""Richtig""-Screen",canvas.Screen,3_0_3_0_7_1_1,NA,NA,timeout,4999.7999999999,940805.6,940795.477,940812.143,945795.277,945799.4,2023-04-06T12:12:02Z,945811.943,NULL,Fenster,dirisha,s,walakini,tasawari,maarifa,NA,qt,1,3,NA,NA,NA,NA,NA,NA,NA,NA,NA,NA,NA,NA,NA,NA,NA,NA,NA,NA,NA
9fd68,"""Falsch""-Screen",canvas.Screen,3_0_3_0_7_1_2,NA,NA,skipped,NA,945803.6,NA,NA,945795.277,945803.8,2023-04-06T12:12:02Z,945811.943,NULL,Fenster,dirisha,s,walakini,tasawari,maarifa,NA,qt,NA,3,NA,NA,NA,NA,NA,NA,NA,NA,NA,NA,NA,NA,NA,NA,NA,NA,NA,NA,NA
9fd68,shallow,flow.Sequence,3_0_3_0_7_1,NA,NA,completion,8783.537,937000.8,936995.074,937011.74,945795.277,945804.1,2023-04-06T12:12:02Z,945811.943,NULL,Fenster,dirisha,s,walakini,tasawari,maarifa,NA,qt,NA,3,NA,NA,NA,NA,NA,NA,NA,NA,NA,NA,NA,NA,NA,NA,NA,NA,NA,NA,NA
9fd68,task,flow.Sequence,3_0_3_0_7,NA,NA,completion,8783.537,937000.6,936995.074,937011.74,945795.277,945804.1,2023-04-06T12:12:02Z,945811.943,NULL,Fenster,dirisha,s,walakini,tasawari,maarifa,NA,qt,NA,3,NA,NA,NA,NA,NA,NA,NA,NA,NA,NA,NA,NA,NA,NA,NA,NA,NA,NA,NA
9fd68,block,flow.Loop,3_0_3_0,NA,NA,completion,104901.61,840891,840877.001,840893.667,945795.277,945804.4,2023-04-06T12:12:02Z,945811.943,NULL,NA,NA,NA,NA,NA,NA,NA,qt,NA,3,NA,NA,NA,NA,NA,NA,NA,NA,NA,NA,NA,NA,NA,NA,NA,NA,NA,NA,NA
9fd68,weiter,canvas.Screen,3_0_3_1,sdf,keypress(Space),response,7127.257,945804.4,945795.277,945811.943,952939.2,952942.7,2023-04-06T12:12:09Z,952978.323,NULL,NA,NA,NA,NA,NA,NA,NA,qt,NA,3,NA,NA,NA,NA,NA,NA,NA,NA,NA,NA,NA,NA,NA,NA,NA,NA,NA,NA,NA
9fd68,check continue,flow.Sequence,3_0_3,NA,NA,completion,112045.533,840891,840877.001,840893.667,952939.2,952943,2023-04-06T12:12:09Z,952978.323,NULL,NA,NA,NA,NA,NA,NA,NA,qt,NA,3,NA,NA,NA,NA,NA,NA,NA,NA,NA,NA,NA,NA,NA,NA,NA,NA,NA,NA,NA
9fd68,Deep Question,html.Page,3_0_4_0_0_0_0,NA,NA,form submission,17205.577,952968.4,952961.657,952978.323,970183.9,970184.4,2023-04-06T12:12:26Z,970195.507,NULL,Papier,karatasi,d,NA,NA,NA,matazi,NA,NA,4,NA,NA,NA,NA,NA,NA,NA,NA,NA,NA,NA,NA,NA,NA,NA,NA,NA,NA,NA
9fd68,"""Richtig""-Screen",canvas.Screen,3_0_4_0_0_0_1,NA,NA,skipped,NA,970187.3,NA,NA,970183.9,970187.4,2023-04-06T12:12:26Z,970195.507,NULL,Papier,karatasi,d,NA,NA,NA,NA,sd,NA,4,NA,NA,NA,NA,NA,NA,NA,NA,NA,NA,NA,NA,NA,NA,NA,NA,NA,NA,NA
9fd68,"""Falsch""-Screen",canvas.Screen,3_0_4_0_0_0_2,NA,NA,timeout,4999.8,970188.1,970178.841,970195.507,975178.641,975183,2023-04-06T12:12:31Z,975195.307,NULL,Papier,karatasi,d,NA,NA,NA,NA,sd,0,4,NA,NA,NA,NA,NA,NA,NA,NA,NA,NA,NA,NA,NA,NA,NA,NA,NA,NA,NA
9fd68,deep,flow.Sequence,3_0_4_0_0_0,NA,NA,completion,22200.318,952968.3,952961.657,952978.323,975178.641,975183.4,2023-04-06T12:12:31Z,975195.307,NULL,Papier,karatasi,d,NA,NA,NA,NA,sd,NA,4,NA,NA,NA,NA,NA,NA,NA,NA,NA,NA,NA,NA,NA,NA,NA,NA,NA,NA,NA
9fd68,shallow,flow.Sequence,3_0_4_0_0_1,NA,NA,skipped,NA,975183.6,NA,NA,975178.641,975183.6,2023-04-06T12:12:31Z,975195.307,NULL,Papier,karatasi,d,NA,NA,NA,NA,sd,NA,4,NA,NA,NA,NA,NA,NA,NA,NA,NA,NA,NA,NA,NA,NA,NA,NA,NA,NA,NA
9fd68,task,flow.Sequence,3_0_4_0_0,NA,NA,completion,22200.318,952968.3,952961.657,952978.323,975178.641,975183.8,2023-04-06T12:12:31Z,975195.307,NULL,Papier,karatasi,d,NA,NA,NA,NA,sd,NA,4,NA,NA,NA,NA,NA,NA,NA,NA,NA,NA,NA,NA,NA,NA,NA,NA,NA,NA,NA
9fd68,Deep Question,html.Page,3_0_4_0_1_0_0,NA,NA,form submission,4906.193,975184.1,975178.641,975195.307,980101.5,980102,2023-04-06T12:12:36Z,980112.481,NULL,Niveau,kiwango,d,NA,NA,NA,jiwambou,NA,NA,4,NA,NA,NA,NA,NA,NA,NA,NA,NA,NA,NA,NA,NA,NA,NA,NA,NA,NA,NA
9fd68,"""Richtig""-Screen",canvas.Screen,3_0_4_0_1_0_1,NA,NA,skipped,NA,980105.5,NA,NA,980101.5,980105.7,2023-04-06T12:12:36Z,980112.481,NULL,Niveau,kiwango,d,NA,NA,NA,NA,sd,NA,4,NA,NA,NA,NA,NA,NA,NA,NA,NA,NA,NA,NA,NA,NA,NA,NA,NA,NA,NA
9fd68,"""Falsch""-Screen",canvas.Screen,3_0_4_0_1_0_2,NA,NA,timeout,4999.7999999999,980106.7,980095.815,980112.481,985095.615,985097.3,2023-04-06T12:12:41Z,985112.281,NULL,Niveau,kiwango,d,NA,NA,NA,NA,sd,0,4,NA,NA,NA,NA,NA,NA,NA,NA,NA,NA,NA,NA,NA,NA,NA,NA,NA,NA,NA
9fd68,deep,flow.Sequence,3_0_4_0_1_0,NA,NA,completion,9900.308,975184,975178.641,975195.307,985095.615,985097.8,2023-04-06T12:12:41Z,985112.281,NULL,Niveau,kiwango,d,NA,NA,NA,NA,sd,NA,4,NA,NA,NA,NA,NA,NA,NA,NA,NA,NA,NA,NA,NA,NA,NA,NA,NA,NA,NA
9fd68,shallow,flow.Sequence,3_0_4_0_1_1,NA,NA,skipped,NA,985097.9,NA,NA,985095.615,985098,2023-04-06T12:12:41Z,985112.281,NULL,Niveau,kiwango,d,NA,NA,NA,NA,sd,NA,4,NA,NA,NA,NA,NA,NA,NA,NA,NA,NA,NA,NA,NA,NA,NA,NA,NA,NA,NA
9fd68,task,flow.Sequence,3_0_4_0_1,NA,NA,completion,9900.308,975184,975178.641,975195.307,985095.615,985098.1,2023-04-06T12:12:41Z,985112.281,NULL,Niveau,kiwango,d,NA,NA,NA,NA,sd,NA,4,NA,NA,NA,NA,NA,NA,NA,NA,NA,NA,NA,NA,NA,NA,NA,NA,NA,NA,NA
9fd68,deep,flow.Sequence,3_0_4_0_2_0,NA,NA,skipped,NA,985098.3,NA,NA,985095.615,985098.4,2023-04-06T12:12:41Z,985112.281,NULL,Fenster,dirisha,s,walakini,tasawari,maarifa,NA,sd,NA,4,NA,NA,NA,NA,NA,NA,NA,NA,NA,NA,NA,NA,NA,NA,NA,NA,NA,NA,NA
9fd68,Shallow Question,html.Page,3_0_4_0_2_1_0,NA,NA,form submission,2499.3189999999,985098.6,985095.615,985112.281,987611.6,987612.2,2023-04-06T12:12:44Z,987612.773,NULL,Fenster,dirisha,s,walakini,tasawari,maarifa,dirisha,NA,NA,4,NA,NA,NA,NA,NA,NA,NA,NA,NA,NA,NA,NA,NA,NA,NA,NA,NA,NA,NA
9fd68,"""Richtig""-Screen",canvas.Screen,3_0_4_0_2_1_1,NA,NA,timeout,4999.7999999999,987615.6,987596.107,987612.773,992595.907,992599.1,2023-04-06T12:12:49Z,992612.573,NULL,Fenster,dirisha,s,walakini,tasawari,maarifa,NA,sd,1,4,NA,NA,NA,NA,NA,NA,NA,NA,NA,NA,NA,NA,NA,NA,NA,NA,NA,NA,NA
9fd68,"""Falsch""-Screen",canvas.Screen,3_0_4_0_2_1_2,NA,NA,skipped,NA,992603.1,NA,NA,992595.907,992603.2,2023-04-06T12:12:49Z,992612.573,NULL,Fenster,dirisha,s,walakini,tasawari,maarifa,NA,sd,NA,4,NA,NA,NA,NA,NA,NA,NA,NA,NA,NA,NA,NA,NA,NA,NA,NA,NA,NA,NA
9fd68,shallow,flow.Sequence,3_0_4_0_2_1,NA,NA,completion,7483.626,985098.5,985095.615,985112.281,992595.907,992603.4,2023-04-06T12:12:49Z,992612.573,NULL,Fenster,dirisha,s,walakini,tasawari,maarifa,NA,sd,NA,4,NA,NA,NA,NA,NA,NA,NA,NA,NA,NA,NA,NA,NA,NA,NA,NA,NA,NA,NA
9fd68,task,flow.Sequence,3_0_4_0_2,NA,NA,completion,7483.626,985098.3,985095.615,985112.281,992595.907,992603.5,2023-04-06T12:12:49Z,992612.573,NULL,Fenster,dirisha,s,walakini,tasawari,maarifa,NA,sd,NA,4,NA,NA,NA,NA,NA,NA,NA,NA,NA,NA,NA,NA,NA,NA,NA,NA,NA,NA,NA
9fd68,Deep Question,html.Page,3_0_4_0_3_0_0,NA,NA,form submission,12423.027,992603.6,992595.907,992612.573,1005035.6,1005036.2,2023-04-06T12:13:01Z,1005045.941,NULL,Schüler,mwanafunzi,d,NA,NA,NA,mawafantuzi,NA,NA,4,NA,NA,NA,NA,NA,NA,NA,NA,NA,NA,NA,NA,NA,NA,NA,NA,NA,NA,NA
9fd68,"""Richtig""-Screen",canvas.Screen,3_0_4_0_3_0_1,NA,NA,skipped,NA,1005039.2,NA,NA,1005035.6,1005039.4,2023-04-06T12:13:01Z,1005045.941,NULL,Schüler,mwanafunzi,d,NA,NA,NA,NA,sd,NA,4,NA,NA,NA,NA,NA,NA,NA,NA,NA,NA,NA,NA,NA,NA,NA,NA,NA,NA,NA
9fd68,"""Falsch""-Screen",canvas.Screen,3_0_4_0_3_0_2,NA,NA,timeout,4999.8,1005040,1005029.275,1005045.941,1010029.075,1010034.2,2023-04-06T12:13:06Z,1010045.741,NULL,Schüler,mwanafunzi,d,NA,NA,NA,NA,sd,0,4,NA,NA,NA,NA,NA,NA,NA,NA,NA,NA,NA,NA,NA,NA,NA,NA,NA,NA,NA
9fd68,deep,flow.Sequence,3_0_4_0_3_0,NA,NA,completion,17416.502,992603.6,992595.907,992612.573,1010029.075,1010034.7,2023-04-06T12:13:06Z,1010045.741,NULL,Schüler,mwanafunzi,d,NA,NA,NA,NA,sd,NA,4,NA,NA,NA,NA,NA,NA,NA,NA,NA,NA,NA,NA,NA,NA,NA,NA,NA,NA,NA
9fd68,shallow,flow.Sequence,3_0_4_0_3_1,NA,NA,skipped,NA,1010034.9,NA,NA,1010029.075,1010035.1,2023-04-06T12:13:06Z,1010045.741,NULL,Schüler,mwanafunzi,d,NA,NA,NA,NA,sd,NA,4,NA,NA,NA,NA,NA,NA,NA,NA,NA,NA,NA,NA,NA,NA,NA,NA,NA,NA,NA
9fd68,task,flow.Sequence,3_0_4_0_3,NA,NA,completion,17416.502,992603.5,992595.907,992612.573,1010029.075,1010035.2,2023-04-06T12:13:06Z,1010045.741,NULL,Schüler,mwanafunzi,d,NA,NA,NA,NA,sd,NA,4,NA,NA,NA,NA,NA,NA,NA,NA,NA,NA,NA,NA,NA,NA,NA,NA,NA,NA,NA
9fd68,deep,flow.Sequence,3_0_4_0_4_0,NA,NA,skipped,NA,1010035.4,NA,NA,1010029.075,1010035.5,2023-04-06T12:13:06Z,1010045.741,NULL,Vorwurf,mashtaka,s,msukumo,mtangulizi,uenyekiti,NA,sd,NA,4,NA,NA,NA,NA,NA,NA,NA,NA,NA,NA,NA,NA,NA,NA,NA,NA,NA,NA,NA
9fd68,Shallow Question,html.Page,3_0_4_0_4_1_0,NA,NA,form submission,4645.9589999999,1010035.6,1010029.075,1010045.741,1014691.7,1014692.2,2023-04-06T12:13:11Z,1014696.261,NULL,Vorwurf,mashtaka,s,msukumo,mtangulizi,uenyekiti,mashtaka,NA,NA,4,NA,NA,NA,NA,NA,NA,NA,NA,NA,NA,NA,NA,NA,NA,NA,NA,NA,NA,NA
9fd68,"""Richtig""-Screen",canvas.Screen,3_0_4_0_4_1_1,NA,NA,timeout,4999.7999999999,1014694.6,1014679.595,1014696.261,1019679.395,1019683.4,2023-04-06T12:13:16Z,1019696.061,NULL,Vorwurf,mashtaka,s,msukumo,mtangulizi,uenyekiti,NA,sd,1,4,NA,NA,NA,NA,NA,NA,NA,NA,NA,NA,NA,NA,NA,NA,NA,NA,NA,NA,NA
9fd68,"""Falsch""-Screen",canvas.Screen,3_0_4_0_4_1_2,NA,NA,skipped,NA,1019687.7,NA,NA,1019679.395,1019687.8,2023-04-06T12:13:16Z,1019696.061,NULL,Vorwurf,mashtaka,s,msukumo,mtangulizi,uenyekiti,NA,sd,NA,4,NA,NA,NA,NA,NA,NA,NA,NA,NA,NA,NA,NA,NA,NA,NA,NA,NA,NA,NA
9fd68,shallow,flow.Sequence,3_0_4_0_4_1,NA,NA,completion,9633.654,1010035.5,1010029.075,1010045.741,1019679.395,1019688.1,2023-04-06T12:13:16Z,1019696.061,NULL,Vorwurf,mashtaka,s,msukumo,mtangulizi,uenyekiti,NA,sd,NA,4,NA,NA,NA,NA,NA,NA,NA,NA,NA,NA,NA,NA,NA,NA,NA,NA,NA,NA,NA
9fd68,task,flow.Sequence,3_0_4_0_4,NA,NA,completion,9633.654,1010035.4,1010029.075,1010045.741,1019679.395,1019688.2,2023-04-06T12:13:16Z,1019696.061,NULL,Vorwurf,mashtaka,s,msukumo,mtangulizi,uenyekiti,NA,sd,NA,4,NA,NA,NA,NA,NA,NA,NA,NA,NA,NA,NA,NA,NA,NA,NA,NA,NA,NA,NA
9fd68,Deep Question,html.Page,3_0_4_0_5_0_0,NA,NA,form submission,12853.639,1019688.4,1019679.395,1019696.061,1032549.7,1032550.3,2023-04-06T12:13:29Z,1032563.25,NULL,Tester,wanaojaribu,d,NA,NA,NA,e,NA,NA,4,NA,NA,NA,NA,NA,NA,NA,NA,NA,NA,NA,NA,NA,NA,NA,NA,NA,NA,NA
9fd68,"""Richtig""-Screen",canvas.Screen,3_0_4_0_5_0_1,NA,NA,skipped,NA,1032554,NA,NA,1032549.7,1032554.2,2023-04-06T12:13:29Z,1032563.25,NULL,Tester,wanaojaribu,d,NA,NA,NA,NA,sd,NA,4,NA,NA,NA,NA,NA,NA,NA,NA,NA,NA,NA,NA,NA,NA,NA,NA,NA,NA,NA
9fd68,"""Falsch""-Screen",canvas.Screen,3_0_4_0_5_0_2,NA,NA,timeout,4999.8,1032555,1032546.584,1032563.25,1037546.384,1037551.1,2023-04-06T12:13:34Z,1037563.05,NULL,Tester,wanaojaribu,d,NA,NA,NA,NA,sd,0,4,NA,NA,NA,NA,NA,NA,NA,NA,NA,NA,NA,NA,NA,NA,NA,NA,NA,NA,NA
9fd68,deep,flow.Sequence,3_0_4_0_5_0,NA,NA,completion,17850.323,1019688.4,1019679.395,1019696.061,1037546.384,1037551.5,2023-04-06T12:13:34Z,1037563.05,NULL,Tester,wanaojaribu,d,NA,NA,NA,NA,sd,NA,4,NA,NA,NA,NA,NA,NA,NA,NA,NA,NA,NA,NA,NA,NA,NA,NA,NA,NA,NA
9fd68,shallow,flow.Sequence,3_0_4_0_5_1,NA,NA,skipped,NA,1037551.7,NA,NA,1037546.384,1037551.9,2023-04-06T12:13:34Z,1037563.05,NULL,Tester,wanaojaribu,d,NA,NA,NA,NA,sd,NA,4,NA,NA,NA,NA,NA,NA,NA,NA,NA,NA,NA,NA,NA,NA,NA,NA,NA,NA,NA
9fd68,task,flow.Sequence,3_0_4_0_5,NA,NA,completion,17850.323,1019688.3,1019679.395,1019696.061,1037546.384,1037552,2023-04-06T12:13:34Z,1037563.05,NULL,Tester,wanaojaribu,d,NA,NA,NA,NA,sd,NA,4,NA,NA,NA,NA,NA,NA,NA,NA,NA,NA,NA,NA,NA,NA,NA,NA,NA,NA,NA
9fd68,deep,flow.Sequence,3_0_4_0_6_0,NA,NA,skipped,NA,1037552.2,NA,NA,1037546.384,1037552.3,2023-04-06T12:13:34Z,1037563.05,NULL,Spionage,upelelezi,s,maslahi,utokazo,magangao,NA,sd,NA,4,NA,NA,NA,NA,NA,NA,NA,NA,NA,NA,NA,NA,NA,NA,NA,NA,NA,NA,NA
9fd68,Shallow Question,html.Page,3_0_4_0_6_1_0,NA,NA,form submission,5522.5499999998,1037552.5,1037546.384,1037563.05,1043085.6,1043086.2,2023-04-06T12:13:39Z,1043096.798,NULL,Spionage,upelelezi,s,maslahi,utokazo,magangao,upelelezi,NA,NA,4,NA,NA,NA,NA,NA,NA,NA,NA,NA,NA,NA,NA,NA,NA,NA,NA,NA,NA,NA
9fd68,"""Richtig""-Screen",canvas.Screen,3_0_4_0_6_1_1,NA,NA,timeout,4999.8,1043089.8,1043080.132,1043096.798,1048079.932,1048083.9,2023-04-06T12:13:44Z,1048096.598,NULL,Spionage,upelelezi,s,maslahi,utokazo,magangao,NA,sd,1,4,NA,NA,NA,NA,NA,NA,NA,NA,NA,NA,NA,NA,NA,NA,NA,NA,NA,NA,NA
9fd68,"""Falsch""-Screen",canvas.Screen,3_0_4_0_6_1_2,NA,NA,skipped,NA,1048088.4,NA,NA,1048079.932,1048088.5,2023-04-06T12:13:44Z,1048096.598,NULL,Spionage,upelelezi,s,maslahi,utokazo,magangao,NA,sd,NA,4,NA,NA,NA,NA,NA,NA,NA,NA,NA,NA,NA,NA,NA,NA,NA,NA,NA,NA,NA
9fd68,shallow,flow.Sequence,3_0_4_0_6_1,NA,NA,completion,10516.882,1037552.5,1037546.384,1037563.05,1048079.932,1048088.8,2023-04-06T12:13:44Z,1048096.598,NULL,Spionage,upelelezi,s,maslahi,utokazo,magangao,NA,sd,NA,4,NA,NA,NA,NA,NA,NA,NA,NA,NA,NA,NA,NA,NA,NA,NA,NA,NA,NA,NA
9fd68,task,flow.Sequence,3_0_4_0_6,NA,NA,completion,10516.882,1037552.2,1037546.384,1037563.05,1048079.932,1048089,2023-04-06T12:13:44Z,1048096.598,NULL,Spionage,upelelezi,s,maslahi,utokazo,magangao,NA,sd,NA,4,NA,NA,NA,NA,NA,NA,NA,NA,NA,NA,NA,NA,NA,NA,NA,NA,NA,NA,NA
9fd68,deep,flow.Sequence,3_0_4_0_7_0,NA,NA,skipped,NA,1048089.2,NA,NA,1048079.932,1048089.3,2023-04-06T12:13:44Z,1048096.598,NULL,Entwicklung,maendeleo,s,uangavu,mshindwa,badiliko,NA,sd,NA,4,NA,NA,NA,NA,NA,NA,NA,NA,NA,NA,NA,NA,NA,NA,NA,NA,NA,NA,NA
9fd68,Shallow Question,html.Page,3_0_4_0_7_1_0,NA,NA,form submission,5147.3020000001,1048089.4,1048079.932,1048096.598,1053243.9,1053244.5,2023-04-06T12:13:49Z,1053246.924,NULL,Entwicklung,maendeleo,s,uangavu,mshindwa,badiliko,mshindwa,NA,NA,4,NA,NA,NA,NA,NA,NA,NA,NA,NA,NA,NA,NA,NA,NA,NA,NA,NA,NA,NA
9fd68,"""Richtig""-Screen",canvas.Screen,3_0_4_0_7_1_1,NA,NA,skipped,NA,1053248.5,NA,NA,1053243.9,1053248.8,2023-04-06T12:13:49Z,1053246.924,NULL,Entwicklung,maendeleo,s,uangavu,mshindwa,badiliko,NA,sd,NA,4,NA,NA,NA,NA,NA,NA,NA,NA,NA,NA,NA,NA,NA,NA,NA,NA,NA,NA,NA
9fd68,"""Falsch""-Screen",canvas.Screen,3_0_4_0_7_1_2,NA,NA,timeout,4999.7999999998,1053249.6,1053230.258,1053246.924,1058230.058,1058235.2,2023-04-06T12:13:54Z,1058246.724,NULL,Entwicklung,maendeleo,s,uangavu,mshindwa,badiliko,NA,sd,0,4,NA,NA,NA,NA,NA,NA,NA,NA,NA,NA,NA,NA,NA,NA,NA,NA,NA,NA,NA
9fd68,shallow,flow.Sequence,3_0_4_0_7_1,NA,NA,completion,10133.46,1048089.4,1048079.932,1048096.598,1058230.058,1058235.6,2023-04-06T12:13:54Z,1058246.724,NULL,Entwicklung,maendeleo,s,uangavu,mshindwa,badiliko,NA,sd,NA,4,NA,NA,NA,NA,NA,NA,NA,NA,NA,NA,NA,NA,NA,NA,NA,NA,NA,NA,NA
9fd68,task,flow.Sequence,3_0_4_0_7,NA,NA,completion,10133.46,1048089.1,1048079.932,1048096.598,1058230.058,1058235.8,2023-04-06T12:13:54Z,1058246.724,NULL,Entwicklung,maendeleo,s,uangavu,mshindwa,badiliko,NA,sd,NA,4,NA,NA,NA,NA,NA,NA,NA,NA,NA,NA,NA,NA,NA,NA,NA,NA,NA,NA,NA
9fd68,block,flow.Loop,3_0_4_0,NA,NA,completion,105251.735,952968.3,952961.657,952978.323,1058230.058,1058236.1,2023-04-06T12:13:54Z,1058246.724,NULL,NA,NA,NA,NA,NA,NA,NA,sd,NA,4,NA,NA,NA,NA,NA,NA,NA,NA,NA,NA,NA,NA,NA,NA,NA,NA,NA,NA,NA
9fd68,weiter,canvas.Screen,3_0_4_1,sdf,keypress(Space),response,2814.7759999998,1058236.2,1058230.058,1058246.724,1061061.5,1061065.9,2023-04-06T12:13:57Z,1061096.61,NULL,NA,NA,NA,NA,NA,NA,NA,sd,NA,4,NA,NA,NA,NA,NA,NA,NA,NA,NA,NA,NA,NA,NA,NA,NA,NA,NA,NA,NA
9fd68,check continue,flow.Sequence,3_0_4,NA,NA,completion,108083.177,952968.3,952961.657,952978.323,1061061.5,1061066.2,2023-04-06T12:13:57Z,1061096.61,NULL,NA,NA,NA,NA,NA,NA,NA,sd,NA,4,NA,NA,NA,NA,NA,NA,NA,NA,NA,NA,NA,NA,NA,NA,NA,NA,NA,NA,NA
9fd68,Deep Question,html.Page,3_0_5_0_0_0_0,NA,NA,form submission,10989.19,1061091.5,1061079.944,1061096.61,1072085.8,1072086.4,2023-04-06T12:14:08Z,1072096.729,NULL,Niveau,kiwango,d,NA,NA,NA,mawatasi,NA,NA,5,NA,NA,NA,NA,NA,NA,NA,NA,NA,NA,NA,NA,NA,NA,NA,NA,NA,NA,NA
9fd68,"""Richtig""-Screen",canvas.Screen,3_0_5_0_0_0_1,NA,NA,skipped,NA,1072090.2,NA,NA,1072085.8,1072090.4,2023-04-06T12:14:08Z,1072096.729,NULL,Niveau,kiwango,d,NA,NA,NA,NA,sdf,NA,5,NA,NA,NA,NA,NA,NA,NA,NA,NA,NA,NA,NA,NA,NA,NA,NA,NA,NA,NA
9fd68,"""Falsch""-Screen",canvas.Screen,3_0_5_0_0_0_2,NA,NA,timeout,4999.8,1072091.1,1072080.063,1072096.729,1077079.863,1077083.7,2023-04-06T12:14:13Z,1077096.529,NULL,Niveau,kiwango,d,NA,NA,NA,NA,sdf,0,5,NA,NA,NA,NA,NA,NA,NA,NA,NA,NA,NA,NA,NA,NA,NA,NA,NA,NA,NA
9fd68,deep,flow.Sequence,3_0_5_0_0_0,NA,NA,completion,15983.253,1061091.4,1061079.944,1061096.61,1077079.863,1077084.1,2023-04-06T12:14:13Z,1077096.529,NULL,Niveau,kiwango,d,NA,NA,NA,NA,sdf,NA,5,NA,NA,NA,NA,NA,NA,NA,NA,NA,NA,NA,NA,NA,NA,NA,NA,NA,NA,NA
9fd68,shallow,flow.Sequence,3_0_5_0_0_1,NA,NA,skipped,NA,1077084.2,NA,NA,1077079.863,1077084.3,2023-04-06T12:14:13Z,1077096.529,NULL,Niveau,kiwango,d,NA,NA,NA,NA,sdf,NA,5,NA,NA,NA,NA,NA,NA,NA,NA,NA,NA,NA,NA,NA,NA,NA,NA,NA,NA,NA
9fd68,task,flow.Sequence,3_0_5_0_0,NA,NA,completion,15983.253,1061090.8,1061079.944,1061096.61,1077079.863,1077084.4,2023-04-06T12:14:13Z,1077096.529,NULL,Niveau,kiwango,d,NA,NA,NA,NA,sdf,NA,5,NA,NA,NA,NA,NA,NA,NA,NA,NA,NA,NA,NA,NA,NA,NA,NA,NA,NA,NA
9fd68,deep,flow.Sequence,3_0_5_0_1_0,NA,NA,skipped,NA,1077084.6,NA,NA,1077079.863,1077084.7,2023-04-06T12:14:13Z,1077096.529,NULL,Entwicklung,maendeleo,s,uangavu,mshindwa,badiliko,NA,sdf,NA,5,NA,NA,NA,NA,NA,NA,NA,NA,NA,NA,NA,NA,NA,NA,NA,NA,NA,NA,NA
9fd68,Shallow Question,html.Page,3_0_5_0_1_1_0,NA,NA,form submission,4597.2709999999,1077084.9,1077079.863,1077096.529,1081693.8,1081694.4,2023-04-06T12:14:18Z,1081697.101,NULL,Entwicklung,maendeleo,s,uangavu,mshindwa,badiliko,mshindwa,NA,NA,5,NA,NA,NA,NA,NA,NA,NA,NA,NA,NA,NA,NA,NA,NA,NA,NA,NA,NA,NA
9fd68,"""Richtig""-Screen",canvas.Screen,3_0_5_0_1_1_1,NA,NA,skipped,NA,1081697.6,NA,NA,1081693.8,1081697.7,2023-04-06T12:14:18Z,1081697.101,NULL,Entwicklung,maendeleo,s,uangavu,mshindwa,badiliko,NA,sdf,NA,5,NA,NA,NA,NA,NA,NA,NA,NA,NA,NA,NA,NA,NA,NA,NA,NA,NA,NA,NA
9fd68,"""Falsch""-Screen",canvas.Screen,3_0_5_0_1_1_2,NA,NA,timeout,4999.8,1081698.3,1081680.435,1081697.101,1086680.235,1086685.3,2023-04-06T12:14:23Z,1086696.901,NULL,Entwicklung,maendeleo,s,uangavu,mshindwa,badiliko,NA,sdf,0,5,NA,NA,NA,NA,NA,NA,NA,NA,NA,NA,NA,NA,NA,NA,NA,NA,NA,NA,NA
9fd68,shallow,flow.Sequence,3_0_5_0_1_1,NA,NA,completion,9583.706,1077084.8,1077079.863,1077096.529,1086680.235,1086685.8,2023-04-06T12:14:23Z,1086696.901,NULL,Entwicklung,maendeleo,s,uangavu,mshindwa,badiliko,NA,sdf,NA,5,NA,NA,NA,NA,NA,NA,NA,NA,NA,NA,NA,NA,NA,NA,NA,NA,NA,NA,NA
9fd68,task,flow.Sequence,3_0_5_0_1,NA,NA,completion,9583.706,1077084.6,1077079.863,1077096.529,1086680.235,1086685.9,2023-04-06T12:14:23Z,1086696.901,NULL,Entwicklung,maendeleo,s,uangavu,mshindwa,badiliko,NA,sdf,NA,5,NA,NA,NA,NA,NA,NA,NA,NA,NA,NA,NA,NA,NA,NA,NA,NA,NA,NA,NA
9fd68,Deep Question,html.Page,3_0_5_0_2_0_0,NA,NA,form submission,15294.399,1086686.2,1086680.235,1086696.901,1101991.3,1101991.6,2023-04-06T12:14:38Z,1102013.962,NULL,Schüler,mwanafunzi,d,NA,NA,NA,mwanfatuzi,NA,NA,5,NA,NA,NA,NA,NA,NA,NA,NA,NA,NA,NA,NA,NA,NA,NA,NA,NA,NA,NA
9fd68,"""Richtig""-Screen",canvas.Screen,3_0_5_0_2_0_1,NA,NA,skipped,NA,1101994.4,NA,NA,1101991.3,1101994.5,2023-04-06T12:14:38Z,1102013.962,NULL,Schüler,mwanafunzi,d,NA,NA,NA,NA,sdf,NA,5,NA,NA,NA,NA,NA,NA,NA,NA,NA,NA,NA,NA,NA,NA,NA,NA,NA,NA,NA
9fd68,"""Falsch""-Screen",canvas.Screen,3_0_5_0_2_0_2,NA,NA,timeout,4999.8,1101995,1101997.296,1102013.962,1106997.096,1106999.8,2023-04-06T12:14:43Z,1107013.762,NULL,Schüler,mwanafunzi,d,NA,NA,NA,NA,sdf,0,5,NA,NA,NA,NA,NA,NA,NA,NA,NA,NA,NA,NA,NA,NA,NA,NA,NA,NA,NA
9fd68,deep,flow.Sequence,3_0_5_0_2_0,NA,NA,completion,20300.195,1086686.2,1086680.235,1086696.901,1106997.096,1107000.1,2023-04-06T12:14:43Z,1107013.762,NULL,Schüler,mwanafunzi,d,NA,NA,NA,NA,sdf,NA,5,NA,NA,NA,NA,NA,NA,NA,NA,NA,NA,NA,NA,NA,NA,NA,NA,NA,NA,NA
9fd68,shallow,flow.Sequence,3_0_5_0_2_1,NA,NA,skipped,NA,1107000.3,NA,NA,1106997.096,1107000.4,2023-04-06T12:14:43Z,1107013.762,NULL,Schüler,mwanafunzi,d,NA,NA,NA,NA,sdf,NA,5,NA,NA,NA,NA,NA,NA,NA,NA,NA,NA,NA,NA,NA,NA,NA,NA,NA,NA,NA
9fd68,task,flow.Sequence,3_0_5_0_2,NA,NA,completion,20300.195,1086686.1,1086680.235,1086696.901,1106997.096,1107000.6,2023-04-06T12:14:43Z,1107013.762,NULL,Schüler,mwanafunzi,d,NA,NA,NA,NA,sdf,NA,5,NA,NA,NA,NA,NA,NA,NA,NA,NA,NA,NA,NA,NA,NA,NA,NA,NA,NA,NA
9fd68,deep,flow.Sequence,3_0_5_0_3_0,NA,NA,skipped,NA,1107000.8,NA,NA,1106997.096,1107000.9,2023-04-06T12:14:43Z,1107013.762,NULL,Vorwurf,mashtaka,s,msukumo,mtangulizi,uenyekiti,NA,sdf,NA,5,NA,NA,NA,NA,NA,NA,NA,NA,NA,NA,NA,NA,NA,NA,NA,NA,NA,NA,NA
9fd68,Shallow Question,html.Page,3_0_5_0_3_1_0,NA,NA,form submission,4188.3379999998,1107001.1,1106997.096,1107013.762,1111202.1,1111202.7,2023-04-06T12:14:47Z,1111214.246,NULL,Vorwurf,mashtaka,s,msukumo,mtangulizi,uenyekiti,mashtaka,NA,NA,5,NA,NA,NA,NA,NA,NA,NA,NA,NA,NA,NA,NA,NA,NA,NA,NA,NA,NA,NA
9fd68,"""Richtig""-Screen",canvas.Screen,3_0_5_0_3_1_1,NA,NA,timeout,4999.8,1111206.1,1111197.58,1111214.246,1116197.38,1116200.7,2023-04-06T12:14:52Z,1116214.046,NULL,Vorwurf,mashtaka,s,msukumo,mtangulizi,uenyekiti,NA,sdf,1,5,NA,NA,NA,NA,NA,NA,NA,NA,NA,NA,NA,NA,NA,NA,NA,NA,NA,NA,NA
9fd68,"""Falsch""-Screen",canvas.Screen,3_0_5_0_3_1_2,NA,NA,skipped,NA,1116205.2,NA,NA,1116197.38,1116205.4,2023-04-06T12:14:52Z,1116214.046,NULL,Vorwurf,mashtaka,s,msukumo,mtangulizi,uenyekiti,NA,sdf,NA,5,NA,NA,NA,NA,NA,NA,NA,NA,NA,NA,NA,NA,NA,NA,NA,NA,NA,NA,NA
9fd68,shallow,flow.Sequence,3_0_5_0_3_1,NA,NA,completion,9183.6179999998,1107001,1106997.096,1107013.762,1116197.38,1116205.6,2023-04-06T12:14:52Z,1116214.046,NULL,Vorwurf,mashtaka,s,msukumo,mtangulizi,uenyekiti,NA,sdf,NA,5,NA,NA,NA,NA,NA,NA,NA,NA,NA,NA,NA,NA,NA,NA,NA,NA,NA,NA,NA
9fd68,task,flow.Sequence,3_0_5_0_3,NA,NA,completion,9183.6179999998,1107000.7,1106997.096,1107013.762,1116197.38,1116205.7,2023-04-06T12:14:52Z,1116214.046,NULL,Vorwurf,mashtaka,s,msukumo,mtangulizi,uenyekiti,NA,sdf,NA,5,NA,NA,NA,NA,NA,NA,NA,NA,NA,NA,NA,NA,NA,NA,NA,NA,NA,NA,NA
9fd68,Deep Question,html.Page,3_0_5_0_4_0_0,NA,NA,form submission,11592.654,1116205.9,1116197.38,1116214.046,1127806.7,1127807.1,2023-04-06T12:15:04Z,1127814.001,NULL,Tester,wanaojaribu,d,NA,NA,NA,kawatasi,NA,NA,5,NA,NA,NA,NA,NA,NA,NA,NA,NA,NA,NA,NA,NA,NA,NA,NA,NA,NA,NA
9fd68,"""Richtig""-Screen",canvas.Screen,3_0_5_0_4_0_1,NA,NA,skipped,NA,1127810,NA,NA,1127806.7,1127810.1,2023-04-06T12:15:04Z,1127814.001,NULL,Tester,wanaojaribu,d,NA,NA,NA,NA,sdf,NA,5,NA,NA,NA,NA,NA,NA,NA,NA,NA,NA,NA,NA,NA,NA,NA,NA,NA,NA,NA
9fd68,"""Falsch""-Screen",canvas.Screen,3_0_5_0_4_0_2,NA,NA,timeout,4999.8,1127810.7,1127797.335,1127814.001,1132797.135,1132802,2023-04-06T12:15:09Z,1132813.801,NULL,Tester,wanaojaribu,d,NA,NA,NA,NA,sdf,0,5,NA,NA,NA,NA,NA,NA,NA,NA,NA,NA,NA,NA,NA,NA,NA,NA,NA,NA,NA
9fd68,deep,flow.Sequence,3_0_5_0_4_0,NA,NA,completion,16583.089,1116205.9,1116197.38,1116214.046,1132797.135,1132802.3,2023-04-06T12:15:09Z,1132813.801,NULL,Tester,wanaojaribu,d,NA,NA,NA,NA,sdf,NA,5,NA,NA,NA,NA,NA,NA,NA,NA,NA,NA,NA,NA,NA,NA,NA,NA,NA,NA,NA
9fd68,shallow,flow.Sequence,3_0_5_0_4_1,NA,NA,skipped,NA,1132802.6,NA,NA,1132797.135,1132802.7,2023-04-06T12:15:09Z,1132813.801,NULL,Tester,wanaojaribu,d,NA,NA,NA,NA,sdf,NA,5,NA,NA,NA,NA,NA,NA,NA,NA,NA,NA,NA,NA,NA,NA,NA,NA,NA,NA,NA
9fd68,task,flow.Sequence,3_0_5_0_4,NA,NA,completion,16583.089,1116205.8,1116197.38,1116214.046,1132797.135,1132802.8,2023-04-06T12:15:09Z,1132813.801,NULL,Tester,wanaojaribu,d,NA,NA,NA,NA,sdf,NA,5,NA,NA,NA,NA,NA,NA,NA,NA,NA,NA,NA,NA,NA,NA,NA,NA,NA,NA,NA
9fd68,Deep Question,html.Page,3_0_5_0_5_0_0,NA,NA,form submission,10290.799,1132803,1132797.135,1132813.801,1143104.6,1143105,2023-04-06T12:15:19Z,1143114.236,NULL,Papier,karatasi,d,NA,NA,NA,mawatasi,NA,NA,5,NA,NA,NA,NA,NA,NA,NA,NA,NA,NA,NA,NA,NA,NA,NA,NA,NA,NA,NA
9fd68,"""Richtig""-Screen",canvas.Screen,3_0_5_0_5_0_1,NA,NA,skipped,NA,1143108.1,NA,NA,1143104.6,1143108.2,2023-04-06T12:15:19Z,1143114.236,NULL,Papier,karatasi,d,NA,NA,NA,NA,sdf,NA,5,NA,NA,NA,NA,NA,NA,NA,NA,NA,NA,NA,NA,NA,NA,NA,NA,NA,NA,NA
9fd68,"""Falsch""-Screen",canvas.Screen,3_0_5_0_5_0_2,NA,NA,timeout,5000.2379999999,1143108.9,1143097.57,1143114.236,1148097.808,1148100.8,2023-04-06T12:15:24Z,1148114.474,NULL,Papier,karatasi,d,NA,NA,NA,NA,sdf,0,5,NA,NA,NA,NA,NA,NA,NA,NA,NA,NA,NA,NA,NA,NA,NA,NA,NA,NA,NA
9fd68,deep,flow.Sequence,3_0_5_0_5_0,NA,NA,completion,15284.007,1132803,1132797.135,1132813.801,1148097.808,1148101.3,2023-04-06T12:15:24Z,1148114.474,NULL,Papier,karatasi,d,NA,NA,NA,NA,sdf,NA,5,NA,NA,NA,NA,NA,NA,NA,NA,NA,NA,NA,NA,NA,NA,NA,NA,NA,NA,NA
9fd68,shallow,flow.Sequence,3_0_5_0_5_1,NA,NA,skipped,NA,1148101.4,NA,NA,1148097.808,1148101.6,2023-04-06T12:15:24Z,1148114.474,NULL,Papier,karatasi,d,NA,NA,NA,NA,sdf,NA,5,NA,NA,NA,NA,NA,NA,NA,NA,NA,NA,NA,NA,NA,NA,NA,NA,NA,NA,NA
9fd68,task,flow.Sequence,3_0_5_0_5,NA,NA,completion,15284.007,1132803,1132797.135,1132813.801,1148097.808,1148101.7,2023-04-06T12:15:24Z,1148114.474,NULL,Papier,karatasi,d,NA,NA,NA,NA,sdf,NA,5,NA,NA,NA,NA,NA,NA,NA,NA,NA,NA,NA,NA,NA,NA,NA,NA,NA,NA,NA
9fd68,deep,flow.Sequence,3_0_5_0_6_0,NA,NA,skipped,NA,1148101.9,NA,NA,1148097.808,1148102,2023-04-06T12:15:24Z,1148114.474,NULL,Spionage,upelelezi,s,maslahi,utokazo,magangao,NA,sdf,NA,5,NA,NA,NA,NA,NA,NA,NA,NA,NA,NA,NA,NA,NA,NA,NA,NA,NA,NA,NA
9fd68,Shallow Question,html.Page,3_0_5_0_6_1_0,NA,NA,form submission,4375.0259999998,1148102.2,1148097.808,1148114.474,1152489.5,1152490,2023-04-06T12:15:29Z,1152497.632,NULL,Spionage,upelelezi,s,maslahi,utokazo,magangao,upelelezi,NA,NA,5,NA,NA,NA,NA,NA,NA,NA,NA,NA,NA,NA,NA,NA,NA,NA,NA,NA,NA,NA
9fd68,"""Richtig""-Screen",canvas.Screen,3_0_5_0_6_1_1,NA,NA,timeout,4999.8,1152493.6,1152480.966,1152497.632,1157480.766,1157485.6,2023-04-06T12:15:34Z,1157497.432,NULL,Spionage,upelelezi,s,maslahi,utokazo,magangao,NA,sdf,1,5,NA,NA,NA,NA,NA,NA,NA,NA,NA,NA,NA,NA,NA,NA,NA,NA,NA,NA,NA
9fd68,"""Falsch""-Screen",canvas.Screen,3_0_5_0_6_1_2,NA,NA,skipped,NA,1157489.8,NA,NA,1157480.766,1157490,2023-04-06T12:15:34Z,1157497.432,NULL,Spionage,upelelezi,s,maslahi,utokazo,magangao,NA,sdf,NA,5,NA,NA,NA,NA,NA,NA,NA,NA,NA,NA,NA,NA,NA,NA,NA,NA,NA,NA,NA
9fd68,shallow,flow.Sequence,3_0_5_0_6_1,NA,NA,completion,9366.2920000001,1148102.1,1148097.808,1148114.474,1157480.766,1157490.2,2023-04-06T12:15:34Z,1157497.432,NULL,Spionage,upelelezi,s,maslahi,utokazo,magangao,NA,sdf,NA,5,NA,NA,NA,NA,NA,NA,NA,NA,NA,NA,NA,NA,NA,NA,NA,NA,NA,NA,NA
9fd68,task,flow.Sequence,3_0_5_0_6,NA,NA,completion,9366.2920000001,1148101.9,1148097.808,1148114.474,1157480.766,1157490.4,2023-04-06T12:15:34Z,1157497.432,NULL,Spionage,upelelezi,s,maslahi,utokazo,magangao,NA,sdf,NA,5,NA,NA,NA,NA,NA,NA,NA,NA,NA,NA,NA,NA,NA,NA,NA,NA,NA,NA,NA
9fd68,deep,flow.Sequence,3_0_5_0_7_0,NA,NA,skipped,NA,1157490.7,NA,NA,1157480.766,1157490.7,2023-04-06T12:15:34Z,1157497.432,NULL,Fenster,dirisha,s,walakini,tasawari,maarifa,NA,sdf,NA,5,NA,NA,NA,NA,NA,NA,NA,NA,NA,NA,NA,NA,NA,NA,NA,NA,NA,NA,NA
9fd68,Shallow Question,html.Page,3_0_5_0_7_1_0,NA,NA,form submission,2146.4680000001,1157490.9,1157480.766,1157497.432,1159643.9,1159644.5,2023-04-06T12:15:36Z,1159648.089,NULL,Fenster,dirisha,s,walakini,tasawari,maarifa,dirisha,NA,NA,5,NA,NA,NA,NA,NA,NA,NA,NA,NA,NA,NA,NA,NA,NA,NA,NA,NA,NA,NA
9fd68,"""Richtig""-Screen",canvas.Screen,3_0_5_0_7_1_1,NA,NA,timeout,4999.8,1159645.9,1159631.423,1159648.089,1164631.223,1164634.3,2023-04-06T12:15:41Z,1164647.889,NULL,Fenster,dirisha,s,walakini,tasawari,maarifa,NA,sdf,1,5,NA,NA,NA,NA,NA,NA,NA,NA,NA,NA,NA,NA,NA,NA,NA,NA,NA,NA,NA
9fd68,"""Falsch""-Screen",canvas.Screen,3_0_5_0_7_1_2,NA,NA,skipped,NA,1164636.7,NA,NA,1164631.223,1164636.9,2023-04-06T12:15:41Z,1164647.889,NULL,Fenster,dirisha,s,walakini,tasawari,maarifa,NA,sdf,NA,5,NA,NA,NA,NA,NA,NA,NA,NA,NA,NA,NA,NA,NA,NA,NA,NA,NA,NA,NA
9fd68,shallow,flow.Sequence,3_0_5_0_7_1,NA,NA,completion,7133.791,1157490.8,1157480.766,1157497.432,1164631.223,1164637,2023-04-06T12:15:41Z,1164647.889,NULL,Fenster,dirisha,s,walakini,tasawari,maarifa,NA,sdf,NA,5,NA,NA,NA,NA,NA,NA,NA,NA,NA,NA,NA,NA,NA,NA,NA,NA,NA,NA,NA
9fd68,task,flow.Sequence,3_0_5_0_7,NA,NA,completion,7133.791,1157490.6,1157480.766,1157497.432,1164631.223,1164637,2023-04-06T12:15:41Z,1164647.889,NULL,Fenster,dirisha,s,walakini,tasawari,maarifa,NA,sdf,NA,5,NA,NA,NA,NA,NA,NA,NA,NA,NA,NA,NA,NA,NA,NA,NA,NA,NA,NA,NA
9fd68,block,flow.Loop,3_0_5_0,NA,NA,completion,103534.613,1061090.8,1061079.944,1061096.61,1164631.223,1164637.2,2023-04-06T12:15:41Z,1164647.889,NULL,NA,NA,NA,NA,NA,NA,NA,sdf,NA,5,NA,NA,NA,NA,NA,NA,NA,NA,NA,NA,NA,NA,NA,NA,NA,NA,NA,NA,NA
9fd68,weiter,canvas.Screen,3_0_5_1,sdf,keypress(Space),response,1514.5110000002,1164637.2,1164631.223,1164647.889,1166162.4,1166166.5,2023-04-06T12:15:42Z,1166197.827,NULL,NA,NA,NA,NA,NA,NA,NA,sdf,NA,5,NA,NA,NA,NA,NA,NA,NA,NA,NA,NA,NA,NA,NA,NA,NA,NA,NA,NA,NA
9fd68,check continue,flow.Sequence,3_0_5,NA,NA,completion,105065.79,1061090.7,1061079.944,1061096.61,1166162.4,1166166.8,2023-04-06T12:15:42Z,1166197.827,NULL,NA,NA,NA,NA,NA,NA,NA,sdf,NA,5,NA,NA,NA,NA,NA,NA,NA,NA,NA,NA,NA,NA,NA,NA,NA,NA,NA,NA,NA
9fd68,deep,flow.Sequence,3_0_6_0_0_0,NA,NA,skipped,NA,1166193.6,NA,NA,1166162.4,1166193.7,2023-04-06T12:15:42Z,1166197.827,NULL,Spionage,upelelezi,s,maslahi,utokazo,magangao,NA,dfs,NA,6,NA,NA,NA,NA,NA,NA,NA,NA,NA,NA,NA,NA,NA,NA,NA,NA,NA,NA,NA
9fd68,Shallow Question,html.Page,3_0_6_0_0_1_0,NA,NA,form submission,2413.973,1166193.9,1166181.161,1166197.827,1168611.8,1168612.2,2023-04-06T12:15:45Z,1168615.055,NULL,Spionage,upelelezi,s,maslahi,utokazo,magangao,upelelezi,NA,NA,6,NA,NA,NA,NA,NA,NA,NA,NA,NA,NA,NA,NA,NA,NA,NA,NA,NA,NA,NA
9fd68,"""Richtig""-Screen",canvas.Screen,3_0_6_0_0_1_1,NA,NA,timeout,4999.8,1168615.3,1168598.389,1168615.055,1173598.189,1173602.6,2023-04-06T12:15:50Z,1173614.855,NULL,Spionage,upelelezi,s,maslahi,utokazo,magangao,NA,dfs,1,6,NA,NA,NA,NA,NA,NA,NA,NA,NA,NA,NA,NA,NA,NA,NA,NA,NA,NA,NA
9fd68,"""Falsch""-Screen",canvas.Screen,3_0_6_0_0_1_2,NA,NA,skipped,NA,1173606.6,NA,NA,1173598.189,1173606.6,2023-04-06T12:15:50Z,1173614.855,NULL,Spionage,upelelezi,s,maslahi,utokazo,magangao,NA,dfs,NA,6,NA,NA,NA,NA,NA,NA,NA,NA,NA,NA,NA,NA,NA,NA,NA,NA,NA,NA,NA
9fd68,shallow,flow.Sequence,3_0_6_0_0_1,NA,NA,completion,7400.362,1166193.8,1166181.161,1166197.827,1173598.189,1173606.8,2023-04-06T12:15:50Z,1173614.855,NULL,Spionage,upelelezi,s,maslahi,utokazo,magangao,NA,dfs,NA,6,NA,NA,NA,NA,NA,NA,NA,NA,NA,NA,NA,NA,NA,NA,NA,NA,NA,NA,NA
9fd68,task,flow.Sequence,3_0_6_0_0,NA,NA,completion,7400.362,1166193.6,1166181.161,1166197.827,1173598.189,1173606.9,2023-04-06T12:15:50Z,1173614.855,NULL,Spionage,upelelezi,s,maslahi,utokazo,magangao,NA,dfs,NA,6,NA,NA,NA,NA,NA,NA,NA,NA,NA,NA,NA,NA,NA,NA,NA,NA,NA,NA,NA
9fd68,deep,flow.Sequence,3_0_6_0_1_0,NA,NA,skipped,NA,1173607,NA,NA,1173598.189,1173607,2023-04-06T12:15:50Z,1173614.855,NULL,Fenster,dirisha,s,walakini,tasawari,maarifa,NA,dfs,NA,6,NA,NA,NA,NA,NA,NA,NA,NA,NA,NA,NA,NA,NA,NA,NA,NA,NA,NA,NA
9fd68,Shallow Question,html.Page,3_0_6_0_1_1_0,NA,NA,form submission,1769.9450000001,1173607.1,1173598.189,1173614.855,1175384.8,1175385.2,2023-04-06T12:15:51Z,1175398.117,NULL,Fenster,dirisha,s,walakini,tasawari,maarifa,dirisha,NA,NA,6,NA,NA,NA,NA,NA,NA,NA,NA,NA,NA,NA,NA,NA,NA,NA,NA,NA,NA,NA
9fd68,"""Richtig""-Screen",canvas.Screen,3_0_6_0_1_1_1,NA,NA,timeout,4999.7999999998,1175386.6,1175381.451,1175398.117,1180381.251,1180386,2023-04-06T12:15:56Z,1180397.917,NULL,Fenster,dirisha,s,walakini,tasawari,maarifa,NA,dfs,1,6,NA,NA,NA,NA,NA,NA,NA,NA,NA,NA,NA,NA,NA,NA,NA,NA,NA,NA,NA
9fd68,"""Falsch""-Screen",canvas.Screen,3_0_6_0_1_1_2,NA,NA,skipped,NA,1180389.7,NA,NA,1180381.251,1180389.8,2023-04-06T12:15:56Z,1180397.917,NULL,Fenster,dirisha,s,walakini,tasawari,maarifa,NA,dfs,NA,6,NA,NA,NA,NA,NA,NA,NA,NA,NA,NA,NA,NA,NA,NA,NA,NA,NA,NA,NA
9fd68,shallow,flow.Sequence,3_0_6_0_1_1,NA,NA,completion,6766.3959999999,1173607.1,1173598.189,1173614.855,1180381.251,1180390,2023-04-06T12:15:56Z,1180397.917,NULL,Fenster,dirisha,s,walakini,tasawari,maarifa,NA,dfs,NA,6,NA,NA,NA,NA,NA,NA,NA,NA,NA,NA,NA,NA,NA,NA,NA,NA,NA,NA,NA
9fd68,task,flow.Sequence,3_0_6_0_1,NA,NA,completion,6766.3959999999,1173606.9,1173598.189,1173614.855,1180381.251,1180390,2023-04-06T12:15:56Z,1180397.917,NULL,Fenster,dirisha,s,walakini,tasawari,maarifa,NA,dfs,NA,6,NA,NA,NA,NA,NA,NA,NA,NA,NA,NA,NA,NA,NA,NA,NA,NA,NA,NA,NA
9fd68,deep,flow.Sequence,3_0_6_0_2_0,NA,NA,skipped,NA,1180390.2,NA,NA,1180381.251,1180390.3,2023-04-06T12:15:56Z,1180397.917,NULL,Entwicklung,maendeleo,s,uangavu,mshindwa,badiliko,NA,dfs,NA,6,NA,NA,NA,NA,NA,NA,NA,NA,NA,NA,NA,NA,NA,NA,NA,NA,NA,NA,NA
9fd68,Shallow Question,html.Page,3_0_6_0_2_1_0,NA,NA,form submission,4154.183,1180390.3,1180381.251,1180397.917,1184552.1,1184552.7,2023-04-06T12:16:01Z,1184564.959,NULL,Entwicklung,maendeleo,s,uangavu,mshindwa,badiliko,maendeleo,NA,NA,6,NA,NA,NA,NA,NA,NA,NA,NA,NA,NA,NA,NA,NA,NA,NA,NA,NA,NA,NA
9fd68,"""Richtig""-Screen",canvas.Screen,3_0_6_0_2_1_1,NA,NA,timeout,4999.8,1184556,1184548.293,1184564.959,1189548.093,1189552.9,2023-04-06T12:16:06Z,1189564.759,NULL,Entwicklung,maendeleo,s,uangavu,mshindwa,badiliko,NA,dfs,1,6,NA,NA,NA,NA,NA,NA,NA,NA,NA,NA,NA,NA,NA,NA,NA,NA,NA,NA,NA
9fd68,"""Falsch""-Screen",canvas.Screen,3_0_6_0_2_1_2,NA,NA,skipped,NA,1189556.6,NA,NA,1189548.093,1189556.8,2023-04-06T12:16:06Z,1189564.759,NULL,Entwicklung,maendeleo,s,uangavu,mshindwa,badiliko,NA,dfs,NA,6,NA,NA,NA,NA,NA,NA,NA,NA,NA,NA,NA,NA,NA,NA,NA,NA,NA,NA,NA
9fd68,shallow,flow.Sequence,3_0_6_0_2_1,NA,NA,completion,9150.1760000002,1180390.3,1180381.251,1180397.917,1189548.093,1189556.8,2023-04-06T12:16:06Z,1189564.759,NULL,Entwicklung,maendeleo,s,uangavu,mshindwa,badiliko,NA,dfs,NA,6,NA,NA,NA,NA,NA,NA,NA,NA,NA,NA,NA,NA,NA,NA,NA,NA,NA,NA,NA
9fd68,task,flow.Sequence,3_0_6_0_2,NA,NA,completion,9150.1760000002,1180390.1,1180381.251,1180397.917,1189548.093,1189557,2023-04-06T12:16:06Z,1189564.759,NULL,Entwicklung,maendeleo,s,uangavu,mshindwa,badiliko,NA,dfs,NA,6,NA,NA,NA,NA,NA,NA,NA,NA,NA,NA,NA,NA,NA,NA,NA,NA,NA,NA,NA
9fd68,Deep Question,html.Page,3_0_6_0_3_0_0,NA,NA,form submission,15079.141,1189557.2,1189548.093,1189564.759,1204643.9,1204644.4,2023-04-06T12:16:21Z,1204648.565,NULL,Tester,wanaojaribu,d,NA,NA,NA,jarikaumo,NA,NA,6,NA,NA,NA,NA,NA,NA,NA,NA,NA,NA,NA,NA,NA,NA,NA,NA,NA,NA,NA
9fd68,"""Richtig""-Screen",canvas.Screen,3_0_6_0_3_0_1,NA,NA,skipped,NA,1204647,NA,NA,1204643.9,1204647.1,2023-04-06T12:16:21Z,1204648.565,NULL,Tester,wanaojaribu,d,NA,NA,NA,NA,dfs,NA,6,NA,NA,NA,NA,NA,NA,NA,NA,NA,NA,NA,NA,NA,NA,NA,NA,NA,NA,NA
9fd68,"""Falsch""-Screen",canvas.Screen,3_0_6_0_3_0_2,NA,NA,timeout,4999.8,1204647.9,1204631.899,1204648.565,1209631.699,1209636.5,2023-04-06T12:16:26Z,1209648.365,NULL,Tester,wanaojaribu,d,NA,NA,NA,NA,dfs,0,6,NA,NA,NA,NA,NA,NA,NA,NA,NA,NA,NA,NA,NA,NA,NA,NA,NA,NA,NA
9fd68,deep,flow.Sequence,3_0_6_0_3_0,NA,NA,completion,20066.94,1189557.1,1189548.093,1189564.759,1209631.699,1209637,2023-04-06T12:16:26Z,1209648.365,NULL,Tester,wanaojaribu,d,NA,NA,NA,NA,dfs,NA,6,NA,NA,NA,NA,NA,NA,NA,NA,NA,NA,NA,NA,NA,NA,NA,NA,NA,NA,NA
9fd68,shallow,flow.Sequence,3_0_6_0_3_1,NA,NA,skipped,NA,1209637.1,NA,NA,1209631.699,1209637.3,2023-04-06T12:16:26Z,1209648.365,NULL,Tester,wanaojaribu,d,NA,NA,NA,NA,dfs,NA,6,NA,NA,NA,NA,NA,NA,NA,NA,NA,NA,NA,NA,NA,NA,NA,NA,NA,NA,NA
9fd68,task,flow.Sequence,3_0_6_0_3,NA,NA,completion,20066.94,1189557,1189548.093,1189564.759,1209631.699,1209637.4,2023-04-06T12:16:26Z,1209648.365,NULL,Tester,wanaojaribu,d,NA,NA,NA,NA,dfs,NA,6,NA,NA,NA,NA,NA,NA,NA,NA,NA,NA,NA,NA,NA,NA,NA,NA,NA,NA,NA
9fd68,Deep Question,html.Page,3_0_6_0_4_0_0,NA,NA,form submission,12366.235,1209637.7,1209631.699,1209648.365,1222014.6,1222015.1,2023-04-06T12:16:38Z,1222032.291,NULL,Schüler,mwanafunzi,d,NA,NA,NA,mwafantuzi,NA,NA,6,NA,NA,NA,NA,NA,NA,NA,NA,NA,NA,NA,NA,NA,NA,NA,NA,NA,NA,NA
9fd68,"""Richtig""-Screen",canvas.Screen,3_0_6_0_4_0_1,NA,NA,skipped,NA,1222017.6,NA,NA,1222014.6,1222017.7,2023-04-06T12:16:38Z,1222032.291,NULL,Schüler,mwanafunzi,d,NA,NA,NA,NA,dfs,NA,6,NA,NA,NA,NA,NA,NA,NA,NA,NA,NA,NA,NA,NA,NA,NA,NA,NA,NA,NA
9fd68,"""Falsch""-Screen",canvas.Screen,3_0_6_0_4_0_2,NA,NA,timeout,4999.8,1222018.8,1222015.625,1222032.291,1227015.425,1227020.2,2023-04-06T12:16:43Z,1227032.091,NULL,Schüler,mwanafunzi,d,NA,NA,NA,NA,dfs,0,6,NA,NA,NA,NA,NA,NA,NA,NA,NA,NA,NA,NA,NA,NA,NA,NA,NA,NA,NA
9fd68,deep,flow.Sequence,3_0_6_0_4_0,NA,NA,completion,17367.06,1209637.6,1209631.699,1209648.365,1227015.425,1227020.6,2023-04-06T12:16:43Z,1227032.091,NULL,Schüler,mwanafunzi,d,NA,NA,NA,NA,dfs,NA,6,NA,NA,NA,NA,NA,NA,NA,NA,NA,NA,NA,NA,NA,NA,NA,NA,NA,NA,NA
9fd68,shallow,flow.Sequence,3_0_6_0_4_1,NA,NA,skipped,NA,1227020.8,NA,NA,1227015.425,1227020.9,2023-04-06T12:16:43Z,1227032.091,NULL,Schüler,mwanafunzi,d,NA,NA,NA,NA,dfs,NA,6,NA,NA,NA,NA,NA,NA,NA,NA,NA,NA,NA,NA,NA,NA,NA,NA,NA,NA,NA
9fd68,task,flow.Sequence,3_0_6_0_4,NA,NA,completion,17367.06,1209637.5,1209631.699,1209648.365,1227015.425,1227021,2023-04-06T12:16:43Z,1227032.091,NULL,Schüler,mwanafunzi,d,NA,NA,NA,NA,dfs,NA,6,NA,NA,NA,NA,NA,NA,NA,NA,NA,NA,NA,NA,NA,NA,NA,NA,NA,NA,NA
