observation,sender,sender_type,sender_id,response,response_action,ended_on,duration,time_run,time_render,time_show,time_end,time_commit,timestamp,time_switch,german,swahili,enc,distractor1,distractor2,distractor3,response_2,x,correct,distractors,url_vp,url_sess,meta_labjs_version,meta_location,meta_user_agent,meta_platform,meta_language,meta_locale,meta_time_zone,meta_timezone_offset,meta_screen_width,meta_screen_height,meta_scroll_width,meta_scroll_height,meta_window_inner_width,meta_window_inner_height,meta_device_pixel_ratio,meta_labjs_build_flavor,meta_labjs_build_commit
b7650,Introduction delayed retrieval,canvas.Screen,0,weiter,keypress(Space),response,17245,447,456,586,17701,17734,2023-03-31T15:08:17Z,17776,NA,NA,NA,NA,NA,NA,NA,NA,NA,NULL,206,2,20.2.4,https://neurocog.fernuni.ch/studies/vweber/sfink/delayed/index.html?vp=206&sess=2,"Mozilla/5.0 (Macintosh; Intel Mac OS X 10_15_7) AppleWebKit/605.1.15 (KHTML, like Gecko) Version/16.3.1 Safari/605.1.15",MacIntel,de-DE,de-DE,Europe/Zurich,-120,1440,900,870,66,886,722,1,production,f5b4a49f956347addd546a832a3327688c2c0fef
b7650,Deep Question,html.Page,1_0_0_0,NA,NA,form submission,16080,17735,17760,17776,33856,33857,2023-03-31T15:08:33Z,33886,Wettbewerb,ushindani,s,mapendezi,kichocheo,ubaguzi,ushadani,NA,NA,NULL,NA,NA,NA,NA,NA,NA,NA,NA,NA,NA,NA,NA,NA,NA,NA,NA,NA,NA,NA
b7650,Save data screen,canvas.Screen,1_0_0_1,NA,NA,timeout,502,33859,33869,33886,34370,34371,2023-03-31T15:08:33Z,34388,Wettbewerb,ushindani,s,mapendezi,kichocheo,ubaguzi,NA,NA,0,NULL,NA,NA,NA,NA,NA,NA,NA,NA,NA,NA,NA,NA,NA,NA,NA,NA,NA,NA,NA
b7650,deep,flow.Sequence,1_0_0,NA,NA,completion,16594,17735,17760,17776,34370,34372,2023-03-31T15:08:33Z,34388,Wettbewerb,ushindani,s,mapendezi,kichocheo,ubaguzi,NA,NA,NA,NULL,NA,NA,NA,NA,NA,NA,NA,NA,NA,NA,NA,NA,NA,NA,NA,NA,NA,NA,NA
b7650,task,flow.Sequence,1_0,NA,NA,completion,16594,17735,17760,17776,34370,34372,2023-03-31T15:08:33Z,34388,Wettbewerb,ushindani,s,mapendezi,kichocheo,ubaguzi,NA,NA,NA,NULL,NA,NA,NA,NA,NA,NA,NA,NA,NA,NA,NA,NA,NA,NA,NA,NA,NA,NA,NA
b7650,Deep Question,html.Page,1_1_0_0,NA,NA,form submission,20351,34372,34370,34388,54739,54739,2023-03-31T15:08:54Z,54774,Auftrag,uagizaji,s,ghanima,kuzingatia,msukani,maepani,NA,NA,NULL,NA,NA,NA,NA,NA,NA,NA,NA,NA,NA,NA,NA,NA,NA,NA,NA,NA,NA,NA
b7650,Save data screen,canvas.Screen,1_1_0_1,NA,NA,timeout,503,54740,54759,54774,55259,55260,2023-03-31T15:08:54Z,55277,Auftrag,uagizaji,s,ghanima,kuzingatia,msukani,NA,NA,0,NULL,NA,NA,NA,NA,NA,NA,NA,NA,NA,NA,NA,NA,NA,NA,NA,NA,NA,NA,NA
b7650,deep,flow.Sequence,1_1_0,NA,NA,completion,20871,34372,34370,34388,55259,55261,2023-03-31T15:08:54Z,55277,Auftrag,uagizaji,s,ghanima,kuzingatia,msukani,NA,NA,NA,NULL,NA,NA,NA,NA,NA,NA,NA,NA,NA,NA,NA,NA,NA,NA,NA,NA,NA,NA,NA
b7650,task,flow.Sequence,1_1,NA,NA,completion,20871,34372,34370,34388,55259,55261,2023-03-31T15:08:54Z,55277,Auftrag,uagizaji,s,ghanima,kuzingatia,msukani,NA,NA,NA,NULL,NA,NA,NA,NA,NA,NA,NA,NA,NA,NA,NA,NA,NA,NA,NA,NA,NA,NA,NA
b7650,Deep Question,html.Page,1_2_0_0,NA,NA,form submission,20456,55261,55259,55277,75733,75734,2023-03-31T15:09:15Z,75765,Vorsorge,tahadhari,s,ufafanuzi,makini,mashambani,ushitoki,NA,NA,NULL,NA,NA,NA,NA,NA,NA,NA,NA,NA,NA,NA,NA,NA,NA,NA,NA,NA,NA,NA
b7650,Save data screen,canvas.Screen,1_2_0_1,NA,NA,timeout,501,75736,75748,75765,76250,76250,2023-03-31T15:09:15Z,76266,Vorsorge,tahadhari,s,ufafanuzi,makini,mashambani,NA,NA,0,NULL,NA,NA,NA,NA,NA,NA,NA,NA,NA,NA,NA,NA,NA,NA,NA,NA,NA,NA,NA
b7650,deep,flow.Sequence,1_2_0,NA,NA,completion,20973,55261,55259,55277,76250,76251,2023-03-31T15:09:15Z,76266,Vorsorge,tahadhari,s,ufafanuzi,makini,mashambani,NA,NA,NA,NULL,NA,NA,NA,NA,NA,NA,NA,NA,NA,NA,NA,NA,NA,NA,NA,NA,NA,NA,NA
b7650,task,flow.Sequence,1_2,NA,NA,completion,20973,55261,55259,55277,76250,76251,2023-03-31T15:09:15Z,76266,Vorsorge,tahadhari,s,ufafanuzi,makini,mashambani,NA,NA,NA,NULL,NA,NA,NA,NA,NA,NA,NA,NA,NA,NA,NA,NA,NA,NA,NA,NA,NA,NA,NA
b7650,Deep Question,html.Page,1_3_0_0,NA,NA,form submission,37214,76252,76250,76266,113480,113480,2023-03-31T15:09:53Z,113499,Konkurrent,mshindani,s,msemaji,mvutaji,kipukusa,kikotaki,NA,NA,NULL,NA,NA,NA,NA,NA,NA,NA,NA,NA,NA,NA,NA,NA,NA,NA,NA,NA,NA,NA
b7650,Save data screen,canvas.Screen,1_3_0_1,NA,NA,timeout,501,113481,113484,113499,113984,113984,2023-03-31T15:09:53Z,114000,Konkurrent,mshindani,s,msemaji,mvutaji,kipukusa,NA,NA,0,NULL,NA,NA,NA,NA,NA,NA,NA,NA,NA,NA,NA,NA,NA,NA,NA,NA,NA,NA,NA
b7650,deep,flow.Sequence,1_3_0,NA,NA,completion,37718,76252,76250,76266,113984,113985,2023-03-31T15:09:53Z,114000,Konkurrent,mshindani,s,msemaji,mvutaji,kipukusa,NA,NA,NA,NULL,NA,NA,NA,NA,NA,NA,NA,NA,NA,NA,NA,NA,NA,NA,NA,NA,NA,NA,NA
b7650,task,flow.Sequence,1_3,NA,NA,completion,37718,76251,76250,76266,113984,113985,2023-03-31T15:09:53Z,114000,Konkurrent,mshindani,s,msemaji,mvutaji,kipukusa,NA,NA,NA,NULL,NA,NA,NA,NA,NA,NA,NA,NA,NA,NA,NA,NA,NA,NA,NA,NA,NA,NA,NA
b7650,Deep Question,html.Page,1_4_0_0,NA,NA,form submission,24978,113985,113984,114000,138978,138978,2023-03-31T15:10:18Z,139017,Ausschluss,kutengwa,s,ununuzi,taratibu,madeni,wakani,NA,NA,NULL,NA,NA,NA,NA,NA,NA,NA,NA,NA,NA,NA,NA,NA,NA,NA,NA,NA,NA,NA
b7650,Save data screen,canvas.Screen,1_4_0_1,NA,NA,timeout,502,138979,139001,139017,139501,139502,2023-03-31T15:10:19Z,139519,Ausschluss,kutengwa,s,ununuzi,taratibu,madeni,NA,NA,0,NULL,NA,NA,NA,NA,NA,NA,NA,NA,NA,NA,NA,NA,NA,NA,NA,NA,NA,NA,NA
b7650,deep,flow.Sequence,1_4_0,NA,NA,completion,25501,113985,113984,114000,139501,139502,2023-03-31T15:10:19Z,139519,Ausschluss,kutengwa,s,ununuzi,taratibu,madeni,NA,NA,NA,NULL,NA,NA,NA,NA,NA,NA,NA,NA,NA,NA,NA,NA,NA,NA,NA,NA,NA,NA,NA
b7650,task,flow.Sequence,1_4,NA,NA,completion,25501,113985,113984,114000,139501,139502,2023-03-31T15:10:19Z,139519,Ausschluss,kutengwa,s,ununuzi,taratibu,madeni,NA,NA,NA,NULL,NA,NA,NA,NA,NA,NA,NA,NA,NA,NA,NA,NA,NA,NA,NA,NA,NA,NA,NA
b7650,Deep Question,html.Page,1_5_0_0,NA,NA,form submission,14465,139503,139501,139519,153984,153984,2023-03-31T15:10:33Z,154007,Sympathie,mapendano,d,dhamiria,fungamano,maazimio,maemiliana,NA,NA,NULL,NA,NA,NA,NA,NA,NA,NA,NA,NA,NA,NA,NA,NA,NA,NA,NA,NA,NA,NA
b7650,Save data screen,canvas.Screen,1_5_0_1,NA,NA,timeout,502,153985,153991,154007,154492,154493,2023-03-31T15:10:34Z,154509,Sympathie,mapendano,d,dhamiria,fungamano,maazimio,NA,NA,0,NULL,NA,NA,NA,NA,NA,NA,NA,NA,NA,NA,NA,NA,NA,NA,NA,NA,NA,NA,NA
b7650,deep,flow.Sequence,1_5_0,NA,NA,completion,14973,139503,139501,139519,154492,154493,2023-03-31T15:10:34Z,154509,Sympathie,mapendano,d,dhamiria,fungamano,maazimio,NA,NA,NA,NULL,NA,NA,NA,NA,NA,NA,NA,NA,NA,NA,NA,NA,NA,NA,NA,NA,NA,NA,NA
b7650,task,flow.Sequence,1_5,NA,NA,completion,14973,139503,139501,139519,154492,154494,2023-03-31T15:10:34Z,154509,Sympathie,mapendano,d,dhamiria,fungamano,maazimio,NA,NA,NA,NULL,NA,NA,NA,NA,NA,NA,NA,NA,NA,NA,NA,NA,NA,NA,NA,NA,NA,NA,NA
b7650,Deep Question,html.Page,1_6_0_0,NA,NA,form submission,14188,154494,154492,154509,168697,168697,2023-03-31T15:10:48Z,168713,Schönheit,kirembo,d,mahojiano,msisimko,jitihadi,numbeko,NA,NA,NULL,NA,NA,NA,NA,NA,NA,NA,NA,NA,NA,NA,NA,NA,NA,NA,NA,NA,NA,NA
b7650,Save data screen,canvas.Screen,1_6_0_1,NA,NA,timeout,501,168698,168701,168713,169198,169198,2023-03-31T15:10:48Z,169214,Schönheit,kirembo,d,mahojiano,msisimko,jitihadi,NA,NA,0,NULL,NA,NA,NA,NA,NA,NA,NA,NA,NA,NA,NA,NA,NA,NA,NA,NA,NA,NA,NA
b7650,deep,flow.Sequence,1_6_0,NA,NA,completion,14689,154494,154492,154509,169198,169199,2023-03-31T15:10:48Z,169214,Schönheit,kirembo,d,mahojiano,msisimko,jitihadi,NA,NA,NA,NULL,NA,NA,NA,NA,NA,NA,NA,NA,NA,NA,NA,NA,NA,NA,NA,NA,NA,NA,NA
b7650,task,flow.Sequence,1_6,NA,NA,completion,14689,154494,154492,154509,169198,169199,2023-03-31T15:10:48Z,169214,Schönheit,kirembo,d,mahojiano,msisimko,jitihadi,NA,NA,NA,NULL,NA,NA,NA,NA,NA,NA,NA,NA,NA,NA,NA,NA,NA,NA,NA,NA,NA,NA,NA
b7650,Deep Question,html.Page,1_7_0_0,NA,NA,form submission,14007,169200,169198,169214,183221,183221,2023-03-31T15:11:02Z,183252,Zufall,kikuti,d,kukosekana,uchoraji,leseni,mshtuko,NA,NA,NULL,NA,NA,NA,NA,NA,NA,NA,NA,NA,NA,NA,NA,NA,NA,NA,NA,NA,NA,NA
b7650,Save data screen,canvas.Screen,1_7_0_1,NA,NA,timeout,501,183222,183235,183252,183736,183737,2023-03-31T15:11:03Z,183753,Zufall,kikuti,d,kukosekana,uchoraji,leseni,NA,NA,0,NULL,NA,NA,NA,NA,NA,NA,NA,NA,NA,NA,NA,NA,NA,NA,NA,NA,NA,NA,NA
b7650,deep,flow.Sequence,1_7_0,NA,NA,completion,14522,169200,169198,169214,183736,183737,2023-03-31T15:11:03Z,183753,Zufall,kikuti,d,kukosekana,uchoraji,leseni,NA,NA,NA,NULL,NA,NA,NA,NA,NA,NA,NA,NA,NA,NA,NA,NA,NA,NA,NA,NA,NA,NA,NA
b7650,task,flow.Sequence,1_7,NA,NA,completion,14522,169200,169198,169214,183736,183737,2023-03-31T15:11:03Z,183753,Zufall,kikuti,d,kukosekana,uchoraji,leseni,NA,NA,NA,NULL,NA,NA,NA,NA,NA,NA,NA,NA,NA,NA,NA,NA,NA,NA,NA,NA,NA,NA,NA
b7650,Deep Question,html.Page,1_8_0_0,NA,NA,form submission,8799,183738,183736,183753,192552,192552,2023-03-31T15:11:12Z,192594,Widerstand,usulubu,d,kusababisha,mwalimu,mwenendo,ushdani,NA,NA,NULL,NA,NA,NA,NA,NA,NA,NA,NA,NA,NA,NA,NA,NA,NA,NA,NA,NA,NA,NA
b7650,Save data screen,canvas.Screen,1_8_0_1,NA,NA,timeout,501,192553,192576,192594,193078,193079,2023-03-31T15:11:12Z,193095,Widerstand,usulubu,d,kusababisha,mwalimu,mwenendo,NA,NA,0,NULL,NA,NA,NA,NA,NA,NA,NA,NA,NA,NA,NA,NA,NA,NA,NA,NA,NA,NA,NA
b7650,deep,flow.Sequence,1_8_0,NA,NA,completion,9325,183738,183736,183753,193078,193079,2023-03-31T15:11:12Z,193095,Widerstand,usulubu,d,kusababisha,mwalimu,mwenendo,NA,NA,NA,NULL,NA,NA,NA,NA,NA,NA,NA,NA,NA,NA,NA,NA,NA,NA,NA,NA,NA,NA,NA
b7650,task,flow.Sequence,1_8,NA,NA,completion,9325,183738,183736,183753,193078,193080,2023-03-31T15:11:12Z,193095,Widerstand,usulubu,d,kusababisha,mwalimu,mwenendo,NA,NA,NA,NULL,NA,NA,NA,NA,NA,NA,NA,NA,NA,NA,NA,NA,NA,NA,NA,NA,NA,NA,NA
b7650,Deep Question,html.Page,1_9_0_0,NA,NA,form submission,11903,193080,193078,193095,204998,204998,2023-03-31T15:11:24Z,205027,Zuwachs,nyongeza,d,matilaba,udhibiti,hudhurio,kaleni,NA,NA,NULL,NA,NA,NA,NA,NA,NA,NA,NA,NA,NA,NA,NA,NA,NA,NA,NA,NA,NA,NA
b7650,Save data screen,canvas.Screen,1_9_0_1,NA,NA,timeout,500,204999,205010,205027,205512,205512,2023-03-31T15:11:25Z,205527,Zuwachs,nyongeza,d,matilaba,udhibiti,hudhurio,NA,NA,0,NULL,NA,NA,NA,NA,NA,NA,NA,NA,NA,NA,NA,NA,NA,NA,NA,NA,NA,NA,NA
b7650,deep,flow.Sequence,1_9_0,NA,NA,completion,12417,193080,193078,193095,205512,205513,2023-03-31T15:11:25Z,205527,Zuwachs,nyongeza,d,matilaba,udhibiti,hudhurio,NA,NA,NA,NULL,NA,NA,NA,NA,NA,NA,NA,NA,NA,NA,NA,NA,NA,NA,NA,NA,NA,NA,NA
b7650,task,flow.Sequence,1_9,NA,NA,completion,12417,193080,193078,193095,205512,205513,2023-03-31T15:11:25Z,205527,Zuwachs,nyongeza,d,matilaba,udhibiti,hudhurio,NA,NA,NA,NULL,NA,NA,NA,NA,NA,NA,NA,NA,NA,NA,NA,NA,NA,NA,NA,NA,NA,NA,NA
b7650,Deep Question,html.Page,1_10_0_0,NA,NA,form submission,9893,205513,205512,205527,215420,215420,2023-03-31T15:11:34Z,215437,Verstand,ufahamivu,d,shakawa,hadhari,mhandisi,maeshani,NA,NA,NULL,NA,NA,NA,NA,NA,NA,NA,NA,NA,NA,NA,NA,NA,NA,NA,NA,NA,NA,NA
b7650,Save data screen,canvas.Screen,1_10_0_1,NA,NA,timeout,501,215421,215426,215437,215922,215923,2023-03-31T15:11:35Z,215938,Verstand,ufahamivu,d,shakawa,hadhari,mhandisi,NA,NA,0,NULL,NA,NA,NA,NA,NA,NA,NA,NA,NA,NA,NA,NA,NA,NA,NA,NA,NA,NA,NA
b7650,deep,flow.Sequence,1_10_0,NA,NA,completion,10395,205513,205512,205527,215922,215924,2023-03-31T15:11:35Z,215938,Verstand,ufahamivu,d,shakawa,hadhari,mhandisi,NA,NA,NA,NULL,NA,NA,NA,NA,NA,NA,NA,NA,NA,NA,NA,NA,NA,NA,NA,NA,NA,NA,NA
b7650,task,flow.Sequence,1_10,NA,NA,completion,10395,205513,205512,205527,215922,215924,2023-03-31T15:11:35Z,215938,Verstand,ufahamivu,d,shakawa,hadhari,mhandisi,NA,NA,NA,NULL,NA,NA,NA,NA,NA,NA,NA,NA,NA,NA,NA,NA,NA,NA,NA,NA,NA,NA,NA
b7650,Deep Question,html.Page,1_11_0_0,NA,NA,form submission,18128,215924,215922,215938,234066,234067,2023-03-31T15:11:53Z,234088,Polizist,msongora,s,simanzi,mandhari,nidhamu,madanio,NA,NA,NULL,NA,NA,NA,NA,NA,NA,NA,NA,NA,NA,NA,NA,NA,NA,NA,NA,NA,NA,NA
b7650,Save data screen,canvas.Screen,1_11_0_1,NA,NA,timeout,501,234068,234071,234088,234573,234573,2023-03-31T15:11:54Z,234589,Polizist,msongora,s,simanzi,mandhari,nidhamu,NA,NA,0,NULL,NA,NA,NA,NA,NA,NA,NA,NA,NA,NA,NA,NA,NA,NA,NA,NA,NA,NA,NA
b7650,deep,flow.Sequence,1_11_0,NA,NA,completion,18635,215924,215922,215938,234573,234573,2023-03-31T15:11:54Z,234589,Polizist,msongora,s,simanzi,mandhari,nidhamu,NA,NA,NA,NULL,NA,NA,NA,NA,NA,NA,NA,NA,NA,NA,NA,NA,NA,NA,NA,NA,NA,NA,NA
b7650,task,flow.Sequence,1_11,NA,NA,completion,18635,215924,215922,215938,234573,234574,2023-03-31T15:11:54Z,234589,Polizist,msongora,s,simanzi,mandhari,nidhamu,NA,NA,NA,NULL,NA,NA,NA,NA,NA,NA,NA,NA,NA,NA,NA,NA,NA,NA,NA,NA,NA,NA,NA
b7650,Deep Question,html.Page,1_12_0_0,NA,NA,form submission,9406,234574,234573,234589,243995,243995,2023-03-31T15:12:03Z,244014,Beweis,ushahidi,s,marudio,kizuizi,mtendaji,kijani,NA,NA,NULL,NA,NA,NA,NA,NA,NA,NA,NA,NA,NA,NA,NA,NA,NA,NA,NA,NA,NA,NA
b7650,Save data screen,canvas.Screen,1_12_0_1,NA,NA,timeout,502,243996,243999,244014,244499,244500,2023-03-31T15:12:04Z,244516,Beweis,ushahidi,s,marudio,kizuizi,mtendaji,NA,NA,0,NULL,NA,NA,NA,NA,NA,NA,NA,NA,NA,NA,NA,NA,NA,NA,NA,NA,NA,NA,NA
b7650,deep,flow.Sequence,1_12_0,NA,NA,completion,9910,234574,234573,234589,244499,244500,2023-03-31T15:12:04Z,244516,Beweis,ushahidi,s,marudio,kizuizi,mtendaji,NA,NA,NA,NULL,NA,NA,NA,NA,NA,NA,NA,NA,NA,NA,NA,NA,NA,NA,NA,NA,NA,NA,NA
b7650,task,flow.Sequence,1_12,NA,NA,completion,9910,234574,234573,234589,244499,244500,2023-03-31T15:12:04Z,244516,Beweis,ushahidi,s,marudio,kizuizi,mtendaji,NA,NA,NA,NULL,NA,NA,NA,NA,NA,NA,NA,NA,NA,NA,NA,NA,NA,NA,NA,NA,NA,NA,NA
b7650,Deep Question,html.Page,1_13_0_0,NA,NA,form submission,4350,244500,244499,244516,248866,248866,2023-03-31T15:12:08Z,248893,Symbol,kielezo,d,kinyume,nderemo,utayari,yayimbo,NA,NA,NULL,NA,NA,NA,NA,NA,NA,NA,NA,NA,NA,NA,NA,NA,NA,NA,NA,NA,NA,NA
b7650,Save data screen,canvas.Screen,1_13_0_1,NA,NA,timeout,503,248867,248877,248893,249378,249379,2023-03-31T15:12:08Z,249396,Symbol,kielezo,d,kinyume,nderemo,utayari,NA,NA,0,NULL,NA,NA,NA,NA,NA,NA,NA,NA,NA,NA,NA,NA,NA,NA,NA,NA,NA,NA,NA
b7650,deep,flow.Sequence,1_13_0,NA,NA,completion,4862,244500,244499,244516,249378,249379,2023-03-31T15:12:08Z,249396,Symbol,kielezo,d,kinyume,nderemo,utayari,NA,NA,NA,NULL,NA,NA,NA,NA,NA,NA,NA,NA,NA,NA,NA,NA,NA,NA,NA,NA,NA,NA,NA
b7650,task,flow.Sequence,1_13,NA,NA,completion,4862,244500,244499,244516,249378,249379,2023-03-31T15:12:08Z,249396,Symbol,kielezo,d,kinyume,nderemo,utayari,NA,NA,NA,NULL,NA,NA,NA,NA,NA,NA,NA,NA,NA,NA,NA,NA,NA,NA,NA,NA,NA,NA,NA
b7650,Deep Question,html.Page,1_14_0_0,NA,NA,form submission,28750,249380,249378,249396,278146,278147,2023-03-31T15:12:37Z,278188,Gelegenheit,wakati,s,mchanganyiko,kipaumbele,kushuku,maeshuki,NA,NA,NULL,NA,NA,NA,NA,NA,NA,NA,NA,NA,NA,NA,NA,NA,NA,NA,NA,NA,NA,NA
b7650,Save data screen,canvas.Screen,1_14_0_1,NA,NA,timeout,502,278148,278172,278188,278673,278673,2023-03-31T15:12:38Z,278690,Gelegenheit,wakati,s,mchanganyiko,kipaumbele,kushuku,NA,NA,0,NULL,NA,NA,NA,NA,NA,NA,NA,NA,NA,NA,NA,NA,NA,NA,NA,NA,NA,NA,NA
b7650,deep,flow.Sequence,1_14_0,NA,NA,completion,29277,249380,249378,249396,278673,278674,2023-03-31T15:12:38Z,278690,Gelegenheit,wakati,s,mchanganyiko,kipaumbele,kushuku,NA,NA,NA,NULL,NA,NA,NA,NA,NA,NA,NA,NA,NA,NA,NA,NA,NA,NA,NA,NA,NA,NA,NA
b7650,task,flow.Sequence,1_14,NA,NA,completion,29277,249380,249378,249396,278673,278674,2023-03-31T15:12:38Z,278690,Gelegenheit,wakati,s,mchanganyiko,kipaumbele,kushuku,NA,NA,NA,NULL,NA,NA,NA,NA,NA,NA,NA,NA,NA,NA,NA,NA,NA,NA,NA,NA,NA,NA,NA
b7650,Deep Question,html.Page,1_15_0_0,NA,NA,form submission,21863,278674,278673,278690,300553,300553,2023-03-31T15:13:00Z,300581,Annäherung,maegesho,d,madahili,kujiamini,mapendekezo,maeshini,NA,NA,NULL,NA,NA,NA,NA,NA,NA,NA,NA,NA,NA,NA,NA,NA,NA,NA,NA,NA,NA,NA
b7650,Save data screen,canvas.Screen,1_15_0_1,NA,NA,timeout,529,300554,300565,300581,301066,301066,2023-03-31T15:13:00Z,301110,Annäherung,maegesho,d,madahili,kujiamini,mapendekezo,NA,NA,0,NULL,NA,NA,NA,NA,NA,NA,NA,NA,NA,NA,NA,NA,NA,NA,NA,NA,NA,NA,NA
b7650,deep,flow.Sequence,1_15_0,NA,NA,completion,22376,278674,278673,278690,301066,301067,2023-03-31T15:13:00Z,301110,Annäherung,maegesho,d,madahili,kujiamini,mapendekezo,NA,NA,NA,NULL,NA,NA,NA,NA,NA,NA,NA,NA,NA,NA,NA,NA,NA,NA,NA,NA,NA,NA,NA
b7650,task,flow.Sequence,1_15,NA,NA,completion,22376,278674,278673,278690,301066,301067,2023-03-31T15:13:00Z,301110,Annäherung,maegesho,d,madahili,kujiamini,mapendekezo,NA,NA,NA,NULL,NA,NA,NA,NA,NA,NA,NA,NA,NA,NA,NA,NA,NA,NA,NA,NA,NA,NA,NA
b7650,retrieval block 1 (cued recall),flow.Loop,1,NA,NA,completion,283290,17734,17760,17776,301066,301067,2023-03-31T15:13:00Z,301110,NA,NA,NA,NA,NA,NA,NA,NA,NA,NULL,NA,NA,NA,NA,NA,NA,NA,NA,NA,NA,NA,NA,NA,NA,NA,NA,NA,NA,NA
b7650,Shallow Question,html.Page,2_0_0_0,NA,NA,form submission,9659,301068,301066,301110,310769,310769,2023-03-31T15:13:10Z,310792,Gelegenheit,wakati,s,mchanganyiko,kipaumbele,kushuku,wakati,NA,NA,"c(""distractor1"", ""distractor2"", ""distractor3"")",NA,NA,NA,NA,NA,NA,NA,NA,NA,NA,NA,NA,NA,NA,NA,NA,NA,NA,NA
b7650,Save data screen,canvas.Screen,2_0_0_1,NA,NA,timeout,502,310770,310776,310792,311276,311277,2023-03-31T15:13:10Z,311294,Gelegenheit,wakati,s,mchanganyiko,kipaumbele,kushuku,NA,NA,1,"c(""distractor1"", ""distractor2"", ""distractor3"")",NA,NA,NA,NA,NA,NA,NA,NA,NA,NA,NA,NA,NA,NA,NA,NA,NA,NA,NA
b7650,shallow,flow.Sequence,2_0_0,NA,NA,completion,10166,301068,301066,301110,311276,311277,2023-03-31T15:13:10Z,311294,Gelegenheit,wakati,s,mchanganyiko,kipaumbele,kushuku,NA,NA,NA,"c(""distractor1"", ""distractor2"", ""distractor3"")",NA,NA,NA,NA,NA,NA,NA,NA,NA,NA,NA,NA,NA,NA,NA,NA,NA,NA,NA
b7650,task,flow.Sequence,2_0,NA,NA,completion,10166,301068,301066,301110,311276,311277,2023-03-31T15:13:10Z,311294,Gelegenheit,wakati,s,mchanganyiko,kipaumbele,kushuku,NA,NA,NA,"c(""distractor1"", ""distractor2"", ""distractor3"")",NA,NA,NA,NA,NA,NA,NA,NA,NA,NA,NA,NA,NA,NA,NA,NA,NA,NA,NA
b7650,Shallow Question,html.Page,2_1_0_0,NA,NA,form submission,10642,311277,311276,311294,321936,321937,2023-03-31T15:13:21Z,321955,Auftrag,uagizaji,s,ghanima,kuzingatia,msukani,uagizaji,NA,NA,"c(""distractor1"", ""distractor2"", ""distractor3"")",NA,NA,NA,NA,NA,NA,NA,NA,NA,NA,NA,NA,NA,NA,NA,NA,NA,NA,NA
b7650,Save data screen,canvas.Screen,2_1_0_1,NA,NA,timeout,502,321937,321939,321955,322440,322440,2023-03-31T15:13:21Z,322457,Auftrag,uagizaji,s,ghanima,kuzingatia,msukani,NA,NA,1,"c(""distractor1"", ""distractor2"", ""distractor3"")",NA,NA,NA,NA,NA,NA,NA,NA,NA,NA,NA,NA,NA,NA,NA,NA,NA,NA,NA
b7650,shallow,flow.Sequence,2_1_0,NA,NA,completion,11146,311277,311276,311294,322440,322440,2023-03-31T15:13:21Z,322457,Auftrag,uagizaji,s,ghanima,kuzingatia,msukani,NA,NA,NA,"c(""distractor1"", ""distractor2"", ""distractor3"")",NA,NA,NA,NA,NA,NA,NA,NA,NA,NA,NA,NA,NA,NA,NA,NA,NA,NA,NA
b7650,task,flow.Sequence,2_1,NA,NA,completion,11146,311277,311276,311294,322440,322441,2023-03-31T15:13:21Z,322457,Auftrag,uagizaji,s,ghanima,kuzingatia,msukani,NA,NA,NA,"c(""distractor1"", ""distractor2"", ""distractor3"")",NA,NA,NA,NA,NA,NA,NA,NA,NA,NA,NA,NA,NA,NA,NA,NA,NA,NA,NA
b7650,Shallow Question,html.Page,2_2_0_0,NA,NA,form submission,5831,322441,322440,322457,328288,328288,2023-03-31T15:13:27Z,328306,Zufall,kikuti,d,kukosekana,uchoraji,leseni,kikuti,NA,NA,"c(""distractor1"", ""distractor2"", ""distractor3"")",NA,NA,NA,NA,NA,NA,NA,NA,NA,NA,NA,NA,NA,NA,NA,NA,NA,NA,NA
b7650,Save data screen,canvas.Screen,2_2_0_1,NA,NA,timeout,502,328289,328294,328306,328790,328791,2023-03-31T15:13:28Z,328808,Zufall,kikuti,d,kukosekana,uchoraji,leseni,NA,NA,1,"c(""distractor1"", ""distractor2"", ""distractor3"")",NA,NA,NA,NA,NA,NA,NA,NA,NA,NA,NA,NA,NA,NA,NA,NA,NA,NA,NA
b7650,shallow,flow.Sequence,2_2_0,NA,NA,completion,6333,322441,322440,322457,328790,328791,2023-03-31T15:13:28Z,328808,Zufall,kikuti,d,kukosekana,uchoraji,leseni,NA,NA,NA,"c(""distractor1"", ""distractor2"", ""distractor3"")",NA,NA,NA,NA,NA,NA,NA,NA,NA,NA,NA,NA,NA,NA,NA,NA,NA,NA,NA
b7650,task,flow.Sequence,2_2,NA,NA,completion,6333,322441,322440,322457,328790,328792,2023-03-31T15:13:28Z,328808,Zufall,kikuti,d,kukosekana,uchoraji,leseni,NA,NA,NA,"c(""distractor1"", ""distractor2"", ""distractor3"")",NA,NA,NA,NA,NA,NA,NA,NA,NA,NA,NA,NA,NA,NA,NA,NA,NA,NA,NA
b7650,Shallow Question,html.Page,2_3_0_0,NA,NA,form submission,14316,328792,328790,328808,343124,343125,2023-03-31T15:13:42Z,343145,Zuwachs,nyongeza,d,matilaba,udhibiti,hudhurio,nyongeza,NA,NA,"c(""distractor1"", ""distractor2"", ""distractor3"")",NA,NA,NA,NA,NA,NA,NA,NA,NA,NA,NA,NA,NA,NA,NA,NA,NA,NA,NA
b7650,Save data screen,canvas.Screen,2_3_0_1,NA,NA,timeout,502,343125,343129,343145,343631,343631,2023-03-31T15:13:43Z,343647,Zuwachs,nyongeza,d,matilaba,udhibiti,hudhurio,NA,NA,1,"c(""distractor1"", ""distractor2"", ""distractor3"")",NA,NA,NA,NA,NA,NA,NA,NA,NA,NA,NA,NA,NA,NA,NA,NA,NA,NA,NA
b7650,shallow,flow.Sequence,2_3_0,NA,NA,completion,14823,328792,328790,328808,343631,343632,2023-03-31T15:13:43Z,343647,Zuwachs,nyongeza,d,matilaba,udhibiti,hudhurio,NA,NA,NA,"c(""distractor1"", ""distractor2"", ""distractor3"")",NA,NA,NA,NA,NA,NA,NA,NA,NA,NA,NA,NA,NA,NA,NA,NA,NA,NA,NA
b7650,task,flow.Sequence,2_3,NA,NA,completion,14823,328792,328790,328808,343631,343632,2023-03-31T15:13:43Z,343647,Zuwachs,nyongeza,d,matilaba,udhibiti,hudhurio,NA,NA,NA,"c(""distractor1"", ""distractor2"", ""distractor3"")",NA,NA,NA,NA,NA,NA,NA,NA,NA,NA,NA,NA,NA,NA,NA,NA,NA,NA,NA
b7650,Shallow Question,html.Page,2_4_0_0,NA,NA,form submission,11812,343632,343631,343647,355459,355459,2023-03-31T15:13:55Z,355478,Symbol,kielezo,d,kinyume,nderemo,utayari,kielezo,NA,NA,"c(""distractor1"", ""distractor2"", ""distractor3"")",NA,NA,NA,NA,NA,NA,NA,NA,NA,NA,NA,NA,NA,NA,NA,NA,NA,NA,NA
b7650,Save data screen,canvas.Screen,2_4_0_1,NA,NA,timeout,502,355460,355462,355478,355964,355965,2023-03-31T15:13:55Z,355980,Symbol,kielezo,d,kinyume,nderemo,utayari,NA,NA,1,"c(""distractor1"", ""distractor2"", ""distractor3"")",NA,NA,NA,NA,NA,NA,NA,NA,NA,NA,NA,NA,NA,NA,NA,NA,NA,NA,NA
b7650,shallow,flow.Sequence,2_4_0,NA,NA,completion,12317,343632,343631,343647,355964,355966,2023-03-31T15:13:55Z,355980,Symbol,kielezo,d,kinyume,nderemo,utayari,NA,NA,NA,"c(""distractor1"", ""distractor2"", ""distractor3"")",NA,NA,NA,NA,NA,NA,NA,NA,NA,NA,NA,NA,NA,NA,NA,NA,NA,NA,NA
b7650,task,flow.Sequence,2_4,NA,NA,completion,12317,343632,343631,343647,355964,355966,2023-03-31T15:13:55Z,355980,Symbol,kielezo,d,kinyume,nderemo,utayari,NA,NA,NA,"c(""distractor1"", ""distractor2"", ""distractor3"")",NA,NA,NA,NA,NA,NA,NA,NA,NA,NA,NA,NA,NA,NA,NA,NA,NA,NA,NA
b7650,Shallow Question,html.Page,2_5_0_0,NA,NA,form submission,14826,355966,355964,355980,370806,370806,2023-03-31T15:14:10Z,370836,Vorsorge,tahadhari,s,ufafanuzi,makini,mashambani,tahadhari,NA,NA,"c(""distractor1"", ""distractor2"", ""distractor3"")",NA,NA,NA,NA,NA,NA,NA,NA,NA,NA,NA,NA,NA,NA,NA,NA,NA,NA,NA
b7650,Save data screen,canvas.Screen,2_5_0_1,NA,NA,timeout,502,370807,370820,370836,371321,371321,2023-03-31T15:14:10Z,371338,Vorsorge,tahadhari,s,ufafanuzi,makini,mashambani,NA,NA,1,"c(""distractor1"", ""distractor2"", ""distractor3"")",NA,NA,NA,NA,NA,NA,NA,NA,NA,NA,NA,NA,NA,NA,NA,NA,NA,NA,NA
b7650,shallow,flow.Sequence,2_5_0,NA,NA,completion,15341,355966,355964,355980,371321,371322,2023-03-31T15:14:10Z,371338,Vorsorge,tahadhari,s,ufafanuzi,makini,mashambani,NA,NA,NA,"c(""distractor1"", ""distractor2"", ""distractor3"")",NA,NA,NA,NA,NA,NA,NA,NA,NA,NA,NA,NA,NA,NA,NA,NA,NA,NA,NA
b7650,task,flow.Sequence,2_5,NA,NA,completion,15341,355966,355964,355980,371321,371322,2023-03-31T15:14:10Z,371338,Vorsorge,tahadhari,s,ufafanuzi,makini,mashambani,NA,NA,NA,"c(""distractor1"", ""distractor2"", ""distractor3"")",NA,NA,NA,NA,NA,NA,NA,NA,NA,NA,NA,NA,NA,NA,NA,NA,NA,NA,NA
b7650,Shallow Question,html.Page,2_6_0_0,NA,NA,form submission,6933,371322,371321,371338,378271,378271,2023-03-31T15:14:17Z,378290,Wettbewerb,ushindani,s,mapendezi,kichocheo,ubaguzi,ushindani,NA,NA,"c(""distractor1"", ""distractor2"", ""distractor3"")",NA,NA,NA,NA,NA,NA,NA,NA,NA,NA,NA,NA,NA,NA,NA,NA,NA,NA,NA
b7650,Save data screen,canvas.Screen,2_6_0_1,NA,NA,timeout,501,378272,378274,378290,378774,378775,2023-03-31T15:14:18Z,378791,Wettbewerb,ushindani,s,mapendezi,kichocheo,ubaguzi,NA,NA,1,"c(""distractor1"", ""distractor2"", ""distractor3"")",NA,NA,NA,NA,NA,NA,NA,NA,NA,NA,NA,NA,NA,NA,NA,NA,NA,NA,NA
b7650,shallow,flow.Sequence,2_6_0,NA,NA,completion,7436,371322,371321,371338,378774,378775,2023-03-31T15:14:18Z,378791,Wettbewerb,ushindani,s,mapendezi,kichocheo,ubaguzi,NA,NA,NA,"c(""distractor1"", ""distractor2"", ""distractor3"")",NA,NA,NA,NA,NA,NA,NA,NA,NA,NA,NA,NA,NA,NA,NA,NA,NA,NA,NA
b7650,task,flow.Sequence,2_6,NA,NA,completion,7436,371322,371321,371338,378774,378775,2023-03-31T15:14:18Z,378791,Wettbewerb,ushindani,s,mapendezi,kichocheo,ubaguzi,NA,NA,NA,"c(""distractor1"", ""distractor2"", ""distractor3"")",NA,NA,NA,NA,NA,NA,NA,NA,NA,NA,NA,NA,NA,NA,NA,NA,NA,NA,NA
b7650,Shallow Question,html.Page,2_7_0_0,NA,NA,form submission,9919.0000000001,378775,378774,378791,388710,388710,2023-03-31T15:14:28Z,388733,Beweis,ushahidi,s,marudio,kizuizi,mtendaji,ushahidi,NA,NA,"c(""distractor1"", ""distractor2"", ""distractor3"")",NA,NA,NA,NA,NA,NA,NA,NA,NA,NA,NA,NA,NA,NA,NA,NA,NA,NA,NA
b7650,Save data screen,canvas.Screen,2_7_0_1,NA,NA,timeout,502,388711,388718,388733,389219,389219,2023-03-31T15:14:28Z,389235,Beweis,ushahidi,s,marudio,kizuizi,mtendaji,NA,NA,1,"c(""distractor1"", ""distractor2"", ""distractor3"")",NA,NA,NA,NA,NA,NA,NA,NA,NA,NA,NA,NA,NA,NA,NA,NA,NA,NA,NA
b7650,shallow,flow.Sequence,2_7_0,NA,NA,completion,10428,378775,378774,378791,389219,389220,2023-03-31T15:14:28Z,389235,Beweis,ushahidi,s,marudio,kizuizi,mtendaji,NA,NA,NA,"c(""distractor1"", ""distractor2"", ""distractor3"")",NA,NA,NA,NA,NA,NA,NA,NA,NA,NA,NA,NA,NA,NA,NA,NA,NA,NA,NA
b7650,task,flow.Sequence,2_7,NA,NA,completion,10428,378775,378774,378791,389219,389220,2023-03-31T15:14:28Z,389235,Beweis,ushahidi,s,marudio,kizuizi,mtendaji,NA,NA,NA,"c(""distractor1"", ""distractor2"", ""distractor3"")",NA,NA,NA,NA,NA,NA,NA,NA,NA,NA,NA,NA,NA,NA,NA,NA,NA,NA,NA
b7650,Shallow Question,html.Page,2_8_0_0,NA,NA,form submission,7939.0000000001,389220,389219,389235,397174,397174,2023-03-31T15:14:36Z,397207,Widerstand,usulubu,d,kusababisha,mwalimu,mwenendo,usulubu,NA,NA,"c(""distractor1"", ""distractor2"", ""distractor3"")",NA,NA,NA,NA,NA,NA,NA,NA,NA,NA,NA,NA,NA,NA,NA,NA,NA,NA,NA
b7650,Save data screen,canvas.Screen,2_8_0_1,NA,NA,timeout,500,397175,397190,397207,397692,397692,2023-03-31T15:14:37Z,397707,Widerstand,usulubu,d,kusababisha,mwalimu,mwenendo,NA,NA,1,"c(""distractor1"", ""distractor2"", ""distractor3"")",NA,NA,NA,NA,NA,NA,NA,NA,NA,NA,NA,NA,NA,NA,NA,NA,NA,NA,NA
b7650,shallow,flow.Sequence,2_8_0,NA,NA,completion,8457,389220,389219,389235,397692,397693,2023-03-31T15:14:37Z,397707,Widerstand,usulubu,d,kusababisha,mwalimu,mwenendo,NA,NA,NA,"c(""distractor1"", ""distractor2"", ""distractor3"")",NA,NA,NA,NA,NA,NA,NA,NA,NA,NA,NA,NA,NA,NA,NA,NA,NA,NA,NA
b7650,task,flow.Sequence,2_8,NA,NA,completion,8457,389220,389219,389235,397692,397693,2023-03-31T15:14:37Z,397707,Widerstand,usulubu,d,kusababisha,mwalimu,mwenendo,NA,NA,NA,"c(""distractor1"", ""distractor2"", ""distractor3"")",NA,NA,NA,NA,NA,NA,NA,NA,NA,NA,NA,NA,NA,NA,NA,NA,NA,NA,NA
b7650,Shallow Question,html.Page,2_9_0_0,NA,NA,form submission,4555,397693,397692,397707,402262,402263,2023-03-31T15:14:41Z,402287,Schönheit,kirembo,d,mahojiano,msisimko,jitihadi,kirembo,NA,NA,"c(""distractor1"", ""distractor2"", ""distractor3"")",NA,NA,NA,NA,NA,NA,NA,NA,NA,NA,NA,NA,NA,NA,NA,NA,NA,NA,NA
b7650,Save data screen,canvas.Screen,2_9_0_1,NA,NA,timeout,502,402264,402270,402287,402772,402772,2023-03-31T15:14:42Z,402789,Schönheit,kirembo,d,mahojiano,msisimko,jitihadi,NA,NA,1,"c(""distractor1"", ""distractor2"", ""distractor3"")",NA,NA,NA,NA,NA,NA,NA,NA,NA,NA,NA,NA,NA,NA,NA,NA,NA,NA,NA
b7650,shallow,flow.Sequence,2_9_0,NA,NA,completion,5065,397693,397692,397707,402772,402773,2023-03-31T15:14:42Z,402789,Schönheit,kirembo,d,mahojiano,msisimko,jitihadi,NA,NA,NA,"c(""distractor1"", ""distractor2"", ""distractor3"")",NA,NA,NA,NA,NA,NA,NA,NA,NA,NA,NA,NA,NA,NA,NA,NA,NA,NA,NA
b7650,task,flow.Sequence,2_9,NA,NA,completion,5065,397693,397692,397707,402772,402773,2023-03-31T15:14:42Z,402789,Schönheit,kirembo,d,mahojiano,msisimko,jitihadi,NA,NA,NA,"c(""distractor1"", ""distractor2"", ""distractor3"")",NA,NA,NA,NA,NA,NA,NA,NA,NA,NA,NA,NA,NA,NA,NA,NA,NA,NA,NA
b7650,Shallow Question,html.Page,2_10_0_0,NA,NA,form submission,9419,402773,402772,402789,412208,412208,2023-03-31T15:14:51Z,412230,Ausschluss,kutengwa,s,ununuzi,taratibu,madeni,kutengwa,NA,NA,"c(""distractor1"", ""distractor2"", ""distractor3"")",NA,NA,NA,NA,NA,NA,NA,NA,NA,NA,NA,NA,NA,NA,NA,NA,NA,NA,NA
b7650,Save data screen,canvas.Screen,2_10_0_1,NA,NA,timeout,502,412209,412214,412230,412715,412715,2023-03-31T15:14:52Z,412732,Ausschluss,kutengwa,s,ununuzi,taratibu,madeni,NA,NA,1,"c(""distractor1"", ""distractor2"", ""distractor3"")",NA,NA,NA,NA,NA,NA,NA,NA,NA,NA,NA,NA,NA,NA,NA,NA,NA,NA,NA
b7650,shallow,flow.Sequence,2_10_0,NA,NA,completion,9926,402773,402772,402789,412715,412716,2023-03-31T15:14:52Z,412732,Ausschluss,kutengwa,s,ununuzi,taratibu,madeni,NA,NA,NA,"c(""distractor1"", ""distractor2"", ""distractor3"")",NA,NA,NA,NA,NA,NA,NA,NA,NA,NA,NA,NA,NA,NA,NA,NA,NA,NA,NA
b7650,task,flow.Sequence,2_10,NA,NA,completion,9926,402773,402772,402789,412715,412716,2023-03-31T15:14:52Z,412732,Ausschluss,kutengwa,s,ununuzi,taratibu,madeni,NA,NA,NA,"c(""distractor1"", ""distractor2"", ""distractor3"")",NA,NA,NA,NA,NA,NA,NA,NA,NA,NA,NA,NA,NA,NA,NA,NA,NA,NA,NA
b7650,Shallow Question,html.Page,2_11_0_0,NA,NA,form submission,10441,412716,412715,412732,423173,423173,2023-03-31T15:15:02Z,423192,Sympathie,mapendano,d,dhamiria,fungamano,maazimio,mapendano,NA,NA,"c(""distractor1"", ""distractor2"", ""distractor3"")",NA,NA,NA,NA,NA,NA,NA,NA,NA,NA,NA,NA,NA,NA,NA,NA,NA,NA,NA
b7650,Save data screen,canvas.Screen,2_11_0_1,NA,NA,timeout,501,423174,423176,423192,423678,423678,2023-03-31T15:15:03Z,423693,Sympathie,mapendano,d,dhamiria,fungamano,maazimio,NA,NA,1,"c(""distractor1"", ""distractor2"", ""distractor3"")",NA,NA,NA,NA,NA,NA,NA,NA,NA,NA,NA,NA,NA,NA,NA,NA,NA,NA,NA
b7650,shallow,flow.Sequence,2_11_0,NA,NA,completion,10946,412716,412715,412732,423678,423678,2023-03-31T15:15:03Z,423693,Sympathie,mapendano,d,dhamiria,fungamano,maazimio,NA,NA,NA,"c(""distractor1"", ""distractor2"", ""distractor3"")",NA,NA,NA,NA,NA,NA,NA,NA,NA,NA,NA,NA,NA,NA,NA,NA,NA,NA,NA
b7650,task,flow.Sequence,2_11,NA,NA,completion,10946,412716,412715,412732,423678,423679,2023-03-31T15:15:03Z,423693,Sympathie,mapendano,d,dhamiria,fungamano,maazimio,NA,NA,NA,"c(""distractor1"", ""distractor2"", ""distractor3"")",NA,NA,NA,NA,NA,NA,NA,NA,NA,NA,NA,NA,NA,NA,NA,NA,NA,NA,NA
b7650,Shallow Question,html.Page,2_12_0_0,NA,NA,form submission,4929,423679,423678,423693,428622,428622,2023-03-31T15:15:08Z,428640,Polizist,msongora,s,simanzi,mandhari,nidhamu,msongora,NA,NA,"c(""distractor1"", ""distractor2"", ""distractor3"")",NA,NA,NA,NA,NA,NA,NA,NA,NA,NA,NA,NA,NA,NA,NA,NA,NA,NA,NA
b7650,Save data screen,canvas.Screen,2_12_0_1,NA,NA,timeout,502,428623,428625,428640,429124,429125,2023-03-31T15:15:08Z,429142,Polizist,msongora,s,simanzi,mandhari,nidhamu,NA,NA,1,"c(""distractor1"", ""distractor2"", ""distractor3"")",NA,NA,NA,NA,NA,NA,NA,NA,NA,NA,NA,NA,NA,NA,NA,NA,NA,NA,NA
b7650,shallow,flow.Sequence,2_12_0,NA,NA,completion,5431,423679,423678,423693,429124,429125,2023-03-31T15:15:08Z,429142,Polizist,msongora,s,simanzi,mandhari,nidhamu,NA,NA,NA,"c(""distractor1"", ""distractor2"", ""distractor3"")",NA,NA,NA,NA,NA,NA,NA,NA,NA,NA,NA,NA,NA,NA,NA,NA,NA,NA,NA
b7650,task,flow.Sequence,2_12,NA,NA,completion,5431,423679,423678,423693,429124,429125,2023-03-31T15:15:08Z,429142,Polizist,msongora,s,simanzi,mandhari,nidhamu,NA,NA,NA,"c(""distractor1"", ""distractor2"", ""distractor3"")",NA,NA,NA,NA,NA,NA,NA,NA,NA,NA,NA,NA,NA,NA,NA,NA,NA,NA,NA
b7650,Shallow Question,html.Page,2_13_0_0,NA,NA,form submission,11323,429125,429124,429142,440465,440465,2023-03-31T15:15:20Z,440489,Annäherung,maegesho,d,madahili,kujiamini,mapendekezo,maegesho,NA,NA,"c(""distractor1"", ""distractor2"", ""distractor3"")",NA,NA,NA,NA,NA,NA,NA,NA,NA,NA,NA,NA,NA,NA,NA,NA,NA,NA,NA
b7650,Save data screen,canvas.Screen,2_13_0_1,NA,NA,timeout,500,440466,440473,440489,440974,440974,2023-03-31T15:15:20Z,440989,Annäherung,maegesho,d,madahili,kujiamini,mapendekezo,NA,NA,1,"c(""distractor1"", ""distractor2"", ""distractor3"")",NA,NA,NA,NA,NA,NA,NA,NA,NA,NA,NA,NA,NA,NA,NA,NA,NA,NA,NA
b7650,shallow,flow.Sequence,2_13_0,NA,NA,completion,11832,429125,429124,429142,440974,440974,2023-03-31T15:15:20Z,440989,Annäherung,maegesho,d,madahili,kujiamini,mapendekezo,NA,NA,NA,"c(""distractor1"", ""distractor2"", ""distractor3"")",NA,NA,NA,NA,NA,NA,NA,NA,NA,NA,NA,NA,NA,NA,NA,NA,NA,NA,NA
b7650,task,flow.Sequence,2_13,NA,NA,completion,11832,429125,429124,429142,440974,440975,2023-03-31T15:15:20Z,440989,Annäherung,maegesho,d,madahili,kujiamini,mapendekezo,NA,NA,NA,"c(""distractor1"", ""distractor2"", ""distractor3"")",NA,NA,NA,NA,NA,NA,NA,NA,NA,NA,NA,NA,NA,NA,NA,NA,NA,NA,NA
b7650,Shallow Question,html.Page,2_14_0_0,NA,NA,form submission,13302,440975,440974,440989,454291,454292,2023-03-31T15:15:33Z,454309,Verstand,ufahamivu,d,shakawa,hadhari,mhandisi,ufahamivu,NA,NA,"c(""distractor1"", ""distractor2"", ""distractor3"")",NA,NA,NA,NA,NA,NA,NA,NA,NA,NA,NA,NA,NA,NA,NA,NA,NA,NA,NA
b7650,Save data screen,canvas.Screen,2_14_0_1,NA,NA,timeout,501,454292,454295,454309,454793,454794,2023-03-31T15:15:34Z,454810,Verstand,ufahamivu,d,shakawa,hadhari,mhandisi,NA,NA,1,"c(""distractor1"", ""distractor2"", ""distractor3"")",NA,NA,NA,NA,NA,NA,NA,NA,NA,NA,NA,NA,NA,NA,NA,NA,NA,NA,NA
b7650,shallow,flow.Sequence,2_14_0,NA,NA,completion,13804,440975,440974,440989,454793,454794,2023-03-31T15:15:34Z,454810,Verstand,ufahamivu,d,shakawa,hadhari,mhandisi,NA,NA,NA,"c(""distractor1"", ""distractor2"", ""distractor3"")",NA,NA,NA,NA,NA,NA,NA,NA,NA,NA,NA,NA,NA,NA,NA,NA,NA,NA,NA
b7650,task,flow.Sequence,2_14,NA,NA,completion,13804,440975,440974,440989,454793,454794,2023-03-31T15:15:34Z,454810,Verstand,ufahamivu,d,shakawa,hadhari,mhandisi,NA,NA,NA,"c(""distractor1"", ""distractor2"", ""distractor3"")",NA,NA,NA,NA,NA,NA,NA,NA,NA,NA,NA,NA,NA,NA,NA,NA,NA,NA,NA
b7650,Shallow Question,html.Page,2_15_0_0,NA,NA,form submission,7617,454794,454793,454810,462427,462427,2023-03-31T15:15:41Z,462447,Konkurrent,mshindani,s,msemaji,mvutaji,kipukusa,mshindani,NA,NA,"c(""distractor1"", ""distractor2"", ""distractor3"")",NA,NA,NA,NA,NA,NA,NA,NA,NA,NA,NA,NA,NA,NA,NA,NA,NA,NA,NA
b7650,Save data screen,canvas.Screen,2_15_0_1,NA,NA,timeout,501,462428,462430,462447,462932,462932,2023-03-31T15:15:42Z,462948,Konkurrent,mshindani,s,msemaji,mvutaji,kipukusa,NA,NA,1,"c(""distractor1"", ""distractor2"", ""distractor3"")",NA,NA,NA,NA,NA,NA,NA,NA,NA,NA,NA,NA,NA,NA,NA,NA,NA,NA,NA
b7650,shallow,flow.Sequence,2_15_0,NA,NA,completion,8122,454794,454793,454810,462932,462933,2023-03-31T15:15:42Z,462948,Konkurrent,mshindani,s,msemaji,mvutaji,kipukusa,NA,NA,NA,"c(""distractor1"", ""distractor2"", ""distractor3"")",NA,NA,NA,NA,NA,NA,NA,NA,NA,NA,NA,NA,NA,NA,NA,NA,NA,NA,NA
b7650,task,flow.Sequence,2_15,NA,NA,completion,8122,454794,454793,454810,462932,462933,2023-03-31T15:15:42Z,462948,Konkurrent,mshindani,s,msemaji,mvutaji,kipukusa,NA,NA,NA,"c(""distractor1"", ""distractor2"", ""distractor3"")",NA,NA,NA,NA,NA,NA,NA,NA,NA,NA,NA,NA,NA,NA,NA,NA,NA,NA,NA
b7650,retrieval block 2 (multiple choice),flow.Loop,2,NA,NA,completion,161822,301067,301066,301110,462932,462933,2023-03-31T15:15:42Z,462948,NA,NA,NA,NA,NA,NA,NA,NA,NA,"c(""distractor1"", ""distractor2"", ""distractor3"")",NA,NA,NA,NA,NA,NA,NA,NA,NA,NA,NA,NA,NA,NA,NA,NA,NA,NA,NA
b7650,End,canvas.Screen,3,NA,keypress(Space),response,1794,462933,462932,462948,464726,464760,2023-03-31T15:15:44Z,464804,NA,NA,NA,NA,NA,NA,NA,NA,NA,NULL,NA,NA,NA,NA,NA,NA,NA,NA,NA,NA,NA,NA,NA,NA,NA,NA,NA,NA,NA
b7650,root,flow.Sequence,NA,NA,NA,completion,464140,446,456,586,464726,464761,2023-03-31T15:15:44Z,464804,NA,NA,NA,NA,NA,NA,NA,NA,NA,NULL,NA,NA,NA,NA,NA,NA,NA,NA,NA,NA,NA,NA,NA,NA,NA,NA,NA,NA,NA
