observation,sender,sender_type,sender_id,response,response_action,ended_on,duration,time_run,time_render,time_show,time_end,time_commit,timestamp,time_switch,distractors,german,swahili,enc,distractor1,distractor2,distractor3,response_2,x,correct,x_2,url_vp,url_sess,meta_labjs_version,meta_location,meta_user_agent,meta_platform,meta_language,meta_locale,meta_time_zone,meta_timezone_offset,meta_screen_width,meta_screen_height,meta_scroll_width,meta_scroll_height,meta_window_inner_width,meta_window_inner_height,meta_device_pixel_ratio,meta_labjs_build_flavor,meta_labjs_build_commit
40265,Introduction general,canvas.Screen,0,weiter,keypress(q),response,419041.246,1672.7000007629,1525.239,1691.754,420733,420737.10000038,2023-03-29T15:34:56Z,420748.066,NULL,NA,NA,NA,NA,NA,NA,NA,NA,NA,NA,206,1,20.2.4,https://neurocog.fernuni.ch/studies/vweber/sfink/encoding_immediate/index.html?vp=206&sess=1,"Mozilla/5.0 (Windows NT 10.0; Win64; x64) AppleWebKit/537.36 (KHTML, like Gecko) Chrome/96.0.4664.110 Safari/537.36",Win32,de-CH,de,Europe/Zurich,-120,1536,864,1536,706,1536,754,1.25,production,f5b4a49f956347addd546a832a3327688c2c0fef
40265,Introduction practice,canvas.Screen,1_0,NA,keypress(Space),response,9470.434,420737.60000038,420724.17,420748.066,430218.5,430219.60000038,2023-03-29T15:35:05Z,430240.714,NULL,NA,NA,NA,NA,NA,NA,NA,NA,NA,NA,NA,NA,NA,NA,NA,NA,NA,NA,NA,NA,NA,NA,NA,NA,NA,NA,NA,NA,NA
40265,deep,flow.Sequence,1_1_0_0,NA,NA,skipped,NA,430220.10000038,NA,NA,430218.5,430222.80000114,2023-03-29T15:35:05Z,430240.714,"c(""distractor1"", ""distractor2"", ""distractor3"")",Rückhalt,msaada,s,muhula,auwali,kiwimbe,NA,NA,NA,NA,NA,NA,NA,NA,NA,NA,NA,NA,NA,NA,NA,NA,NA,NA,NA,NA,NA,NA,NA
40265,Shallow Question,html.Page,1_1_0_1_0,NA,NA,form submission,6310.786,430222.89999962,430223.065,430240.714,436551.5,436552.89999962,2023-03-29T15:35:11Z,436568.463,"c(""distractor1"", ""distractor2"", ""distractor3"")",Rückhalt,msaada,s,muhula,auwali,kiwimbe,auwali,NA,NA,NA,NA,NA,NA,NA,NA,NA,NA,NA,NA,NA,NA,NA,NA,NA,NA,NA,NA,NA,NA
40265,"""Richtig""-Screen",canvas.Screen,1_1_0_1_1,NA,NA,skipped,NA,436556.89999962,NA,NA,436551.5,436557.5,2023-03-29T15:35:11Z,436568.463,"c(""distractor1"", ""distractor2"", ""distractor3"")",Rückhalt,msaada,s,muhula,auwali,kiwimbe,NA,NA,NA,NA,NA,NA,NA,NA,NA,NA,NA,NA,NA,NA,NA,NA,NA,NA,NA,NA,NA,NA,NA
40265,"""Falsch""-Screen",canvas.Screen,1_1_0_1_2,NA,NA,timeout,4995.959,436559.80000114,436535.143,436568.463,441548.255,441551.30000114,2023-03-29T15:35:16Z,441564.422,"c(""distractor1"", ""distractor2"", ""distractor3"")",Rückhalt,msaada,s,muhula,auwali,kiwimbe,NA,NA,0,NA,NA,NA,NA,NA,NA,NA,NA,NA,NA,NA,NA,NA,NA,NA,NA,NA,NA,NA,NA
40265,shallow,flow.Sequence,1_1_0_1,NA,NA,completion,11307.541,430222.89999962,430223.065,430240.714,441548.255,441551.70000076003,2023-03-29T15:35:16Z,441564.422,"c(""distractor1"", ""distractor2"", ""distractor3"")",Rückhalt,msaada,s,muhula,auwali,kiwimbe,NA,NA,NA,NA,NA,NA,NA,NA,NA,NA,NA,NA,NA,NA,NA,NA,NA,NA,NA,NA,NA,NA,NA
40265,task,flow.Sequence,1_1_0,NA,NA,completion,11307.541,430220,430223.065,430240.714,441548.255,441552,2023-03-29T15:35:16Z,441564.422,"c(""distractor1"", ""distractor2"", ""distractor3"")",Rückhalt,msaada,s,muhula,auwali,kiwimbe,NA,NA,NA,NA,NA,NA,NA,NA,NA,NA,NA,NA,NA,NA,NA,NA,NA,NA,NA,NA,NA,NA,NA
40265,Deep Question,html.Page,1_1_1_0_0,NA,NA,form submission,14646.578,441552.39999962,441548.255,441564.422,456211,456211.39999962,2023-03-29T15:35:31Z,456218.945,"c(""distractor1"", ""distractor2"", ""distractor3"")",Gesundheit,salama,d,NA,NA,NA,fasaa,NA,NA,NA,NA,NA,NA,NA,NA,NA,NA,NA,NA,NA,NA,NA,NA,NA,NA,NA,NA,NA,NA
40265,"""Richtig""-Screen",canvas.Screen,1_1_1_0_1,NA,NA,skipped,NA,456213.70000076003,NA,NA,456211,456214,2023-03-29T15:35:31Z,456218.945,"c(""distractor1"", ""distractor2"", ""distractor3"")",Gesundheit,salama,d,NA,NA,NA,NA,NA,NA,NA,NA,NA,NA,NA,NA,NA,NA,NA,NA,NA,NA,NA,NA,NA,NA,NA,NA,NA,NA
40265,"""Falsch""-Screen",canvas.Screen,1_1_1_0_2,NA,NA,timeout,4995.96,456214.89999962,456202.883,456218.945,461198.223,461199,2023-03-29T15:35:36Z,461214.905,"c(""distractor1"", ""distractor2"", ""distractor3"")",Gesundheit,salama,d,NA,NA,NA,NA,NA,0,NA,NA,NA,NA,NA,NA,NA,NA,NA,NA,NA,NA,NA,NA,NA,NA,NA,NA,NA,NA
40265,deep,flow.Sequence,1_1_1_0,NA,NA,completion,19633.801,441552.30000114,441548.255,441564.422,461198.223,461199.30000114,2023-03-29T15:35:36Z,461214.905,"c(""distractor1"", ""distractor2"", ""distractor3"")",Gesundheit,salama,d,NA,NA,NA,NA,NA,NA,NA,NA,NA,NA,NA,NA,NA,NA,NA,NA,NA,NA,NA,NA,NA,NA,NA,NA,NA,NA
40265,shallow,flow.Sequence,1_1_1_1,NA,NA,skipped,NA,461199.5,NA,NA,461198.223,461199.60000038,2023-03-29T15:35:36Z,461214.905,"c(""distractor1"", ""distractor2"", ""distractor3"")",Gesundheit,salama,d,NA,NA,NA,NA,NA,NA,NA,NA,NA,NA,NA,NA,NA,NA,NA,NA,NA,NA,NA,NA,NA,NA,NA,NA,NA,NA
40265,task,flow.Sequence,1_1_1,NA,NA,completion,19633.801,441552.20000076003,441548.255,441564.422,461198.223,461199.89999962,2023-03-29T15:35:36Z,461214.905,"c(""distractor1"", ""distractor2"", ""distractor3"")",Gesundheit,salama,d,NA,NA,NA,NA,NA,NA,NA,NA,NA,NA,NA,NA,NA,NA,NA,NA,NA,NA,NA,NA,NA,NA,NA,NA,NA,NA
40265,deep,flow.Sequence,1_1_2_0,NA,NA,skipped,NA,461200,NA,NA,461198.223,461200.20000076003,2023-03-29T15:35:36Z,461214.905,"c(""distractor1"", ""distractor2"", ""distractor3"")",Gegenwart,hadhara,s,katiba,jokofu,mikopo,NA,NA,NA,NA,NA,NA,NA,NA,NA,NA,NA,NA,NA,NA,NA,NA,NA,NA,NA,NA,NA,NA,NA
40265,Shallow Question,html.Page,1_1_2_1_0,NA,NA,form submission,5862.7950007629,461200.39999962,461198.223,461214.905,467077.70000076003,467078,2023-03-29T15:35:42Z,467093.374,"c(""distractor1"", ""distractor2"", ""distractor3"")",Gegenwart,hadhara,s,katiba,jokofu,mikopo,mikopo,NA,NA,NA,NA,NA,NA,NA,NA,NA,NA,NA,NA,NA,NA,NA,NA,NA,NA,NA,NA,NA,NA
40265,"""Richtig""-Screen",canvas.Screen,1_1_2_1_1,NA,NA,skipped,NA,467079.80000114,NA,NA,467077.70000076003,467079.89999962,2023-03-29T15:35:42Z,467093.374,"c(""distractor1"", ""distractor2"", ""distractor3"")",Gegenwart,hadhara,s,katiba,jokofu,mikopo,NA,NA,NA,NA,NA,NA,NA,NA,NA,NA,NA,NA,NA,NA,NA,NA,NA,NA,NA,NA,NA,NA,NA
40265,"""Falsch""-Screen",canvas.Screen,1_1_2_1_2,NA,NA,timeout,4996.598,467080.5,467076.728,467093.374,472072.74,472073.20000076003,2023-03-29T15:35:47Z,472089.972,"c(""distractor1"", ""distractor2"", ""distractor3"")",Gegenwart,hadhara,s,katiba,jokofu,mikopo,NA,NA,0,NA,NA,NA,NA,NA,NA,NA,NA,NA,NA,NA,NA,NA,NA,NA,NA,NA,NA,NA,NA
40265,shallow,flow.Sequence,1_1_2_1,NA,NA,completion,10857.835,461200.30000114,461198.223,461214.905,472072.74,472073.5,2023-03-29T15:35:47Z,472089.972,"c(""distractor1"", ""distractor2"", ""distractor3"")",Gegenwart,hadhara,s,katiba,jokofu,mikopo,NA,NA,NA,NA,NA,NA,NA,NA,NA,NA,NA,NA,NA,NA,NA,NA,NA,NA,NA,NA,NA,NA,NA
40265,task,flow.Sequence,1_1_2,NA,NA,completion,10857.835,461199.89999962,461198.223,461214.905,472072.74,472073.60000038,2023-03-29T15:35:47Z,472089.972,"c(""distractor1"", ""distractor2"", ""distractor3"")",Gegenwart,hadhara,s,katiba,jokofu,mikopo,NA,NA,NA,NA,NA,NA,NA,NA,NA,NA,NA,NA,NA,NA,NA,NA,NA,NA,NA,NA,NA,NA,NA
40265,deep,flow.Sequence,1_1_3_0,NA,NA,skipped,NA,472073.70000076003,NA,NA,472072.74,472073.80000114,2023-03-29T15:35:47Z,472089.972,"c(""distractor1"", ""distractor2"", ""distractor3"")",Kritik,lawama,s,dereva,nafasi,mawazo,NA,NA,NA,NA,NA,NA,NA,NA,NA,NA,NA,NA,NA,NA,NA,NA,NA,NA,NA,NA,NA,NA,NA
40265,Shallow Question,html.Page,1_1_3_1_0,NA,NA,form submission,10011.427999619,472073.80000114,472072.74,472089.972,482101.39999962,482101.89999962,2023-03-29T15:35:57Z,482114.468,"c(""distractor1"", ""distractor2"", ""distractor3"")",Kritik,lawama,s,dereva,nafasi,mawazo,mawazo,NA,NA,NA,NA,NA,NA,NA,NA,NA,NA,NA,NA,NA,NA,NA,NA,NA,NA,NA,NA,NA,NA
40265,"""Richtig""-Screen",canvas.Screen,1_1_3_1_1,NA,NA,skipped,NA,482107.89999962,NA,NA,482101.39999962,482108.20000076003,2023-03-29T15:35:57Z,482114.468,"c(""distractor1"", ""distractor2"", ""distractor3"")",Kritik,lawama,s,dereva,nafasi,mawazo,NA,NA,NA,NA,NA,NA,NA,NA,NA,NA,NA,NA,NA,NA,NA,NA,NA,NA,NA,NA,NA,NA,NA
40265,"""Falsch""-Screen",canvas.Screen,1_1_3_1_2,NA,NA,timeout,4995.818,482110.30000114,482098.359,482114.468,487093.631,487094.10000038,2023-03-29T15:36:02Z,487110.286,"c(""distractor1"", ""distractor2"", ""distractor3"")",Kritik,lawama,s,dereva,nafasi,mawazo,NA,NA,0,NA,NA,NA,NA,NA,NA,NA,NA,NA,NA,NA,NA,NA,NA,NA,NA,NA,NA,NA,NA
40265,shallow,flow.Sequence,1_1_3_1,NA,NA,completion,15003.659,472073.80000114,472072.74,472089.972,487093.631,487094.30000114,2023-03-29T15:36:02Z,487110.286,"c(""distractor1"", ""distractor2"", ""distractor3"")",Kritik,lawama,s,dereva,nafasi,mawazo,NA,NA,NA,NA,NA,NA,NA,NA,NA,NA,NA,NA,NA,NA,NA,NA,NA,NA,NA,NA,NA,NA,NA
40265,task,flow.Sequence,1_1_3,NA,NA,completion,15003.659,472073.60000038,472072.74,472089.972,487093.631,487094.39999962,2023-03-29T15:36:02Z,487110.286,"c(""distractor1"", ""distractor2"", ""distractor3"")",Kritik,lawama,s,dereva,nafasi,mawazo,NA,NA,NA,NA,NA,NA,NA,NA,NA,NA,NA,NA,NA,NA,NA,NA,NA,NA,NA,NA,NA,NA,NA
40265,Deep Question,html.Page,1_1_4_0_0,NA,NA,form submission,10793.113999619,487094.5,487093.631,487110.286,497903.39999962,497903.5,2023-03-29T15:36:13Z,497918.101,"c(""distractor1"", ""distractor2"", ""distractor3"")",Schatten,kivuli,d,NA,NA,NA,ghghg,NA,NA,NA,NA,NA,NA,NA,NA,NA,NA,NA,NA,NA,NA,NA,NA,NA,NA,NA,NA,NA,NA
40265,"""Richtig""-Screen",canvas.Screen,1_1_4_0_1,NA,NA,skipped,NA,497906,NA,NA,497903.39999962,497906.20000076003,2023-03-29T15:36:13Z,497918.101,"c(""distractor1"", ""distractor2"", ""distractor3"")",Schatten,kivuli,d,NA,NA,NA,NA,NA,NA,NA,NA,NA,NA,NA,NA,NA,NA,NA,NA,NA,NA,NA,NA,NA,NA,NA,NA,NA,NA
40265,"""Falsch""-Screen",canvas.Screen,1_1_4_0_2,NA,NA,timeout,4996.187,497907.20000076003,497901.987,497918.101,502897.445,502898.60000038,2023-03-29T15:36:18Z,502914.288,"c(""distractor1"", ""distractor2"", ""distractor3"")",Schatten,kivuli,d,NA,NA,NA,NA,NA,0,NA,NA,NA,NA,NA,NA,NA,NA,NA,NA,NA,NA,NA,NA,NA,NA,NA,NA,NA,NA
40265,deep,flow.Sequence,1_1_4_0,NA,NA,completion,15787.159,487094.5,487093.631,487110.286,502897.445,502899.10000038,2023-03-29T15:36:18Z,502914.288,"c(""distractor1"", ""distractor2"", ""distractor3"")",Schatten,kivuli,d,NA,NA,NA,NA,NA,NA,NA,NA,NA,NA,NA,NA,NA,NA,NA,NA,NA,NA,NA,NA,NA,NA,NA,NA,NA,NA
40265,shallow,flow.Sequence,1_1_4_1,NA,NA,skipped,NA,502899.30000114,NA,NA,502897.445,502899.60000038,2023-03-29T15:36:18Z,502914.288,"c(""distractor1"", ""distractor2"", ""distractor3"")",Schatten,kivuli,d,NA,NA,NA,NA,NA,NA,NA,NA,NA,NA,NA,NA,NA,NA,NA,NA,NA,NA,NA,NA,NA,NA,NA,NA,NA,NA
40265,task,flow.Sequence,1_1_4,NA,NA,completion,15787.159,487094.5,487093.631,487110.286,502897.445,502899.80000114,2023-03-29T15:36:18Z,502914.288,"c(""distractor1"", ""distractor2"", ""distractor3"")",Schatten,kivuli,d,NA,NA,NA,NA,NA,NA,NA,NA,NA,NA,NA,NA,NA,NA,NA,NA,NA,NA,NA,NA,NA,NA,NA,NA,NA,NA
40265,Deep Question,html.Page,1_1_5_0_0,NA,NA,form submission,4570.5120011444,502900.20000076003,502897.445,502914.288,507484.80000114,507484.89999962,2023-03-29T15:36:22Z,507493.624,"c(""distractor1"", ""distractor2"", ""distractor3"")",Qualität,mtindo,d,NA,NA,NA,ert,NA,NA,NA,NA,NA,NA,NA,NA,NA,NA,NA,NA,NA,NA,NA,NA,NA,NA,NA,NA,NA,NA
40265,"""Richtig""-Screen",canvas.Screen,1_1_5_0_1,NA,NA,skipped,NA,507486.70000076003,NA,NA,507484.80000114,507486.89999962,2023-03-29T15:36:22Z,507493.624,"c(""distractor1"", ""distractor2"", ""distractor3"")",Qualität,mtindo,d,NA,NA,NA,NA,NA,NA,NA,NA,NA,NA,NA,NA,NA,NA,NA,NA,NA,NA,NA,NA,NA,NA,NA,NA,NA,NA
40265,"""Falsch""-Screen",canvas.Screen,1_1_5_0_2,NA,NA,timeout,4995.855,507487.80000114,507476.953,507493.624,512472.816,512473.20000076003,2023-03-29T15:36:27Z,512489.479,"c(""distractor1"", ""distractor2"", ""distractor3"")",Qualität,mtindo,d,NA,NA,NA,NA,NA,0,NA,NA,NA,NA,NA,NA,NA,NA,NA,NA,NA,NA,NA,NA,NA,NA,NA,NA,NA,NA
40265,deep,flow.Sequence,1_1_5_0,NA,NA,completion,9558.528,502900.10000038,502897.445,502914.288,512472.816,512473.30000114,2023-03-29T15:36:27Z,512489.479,"c(""distractor1"", ""distractor2"", ""distractor3"")",Qualität,mtindo,d,NA,NA,NA,NA,NA,NA,NA,NA,NA,NA,NA,NA,NA,NA,NA,NA,NA,NA,NA,NA,NA,NA,NA,NA,NA,NA
40265,shallow,flow.Sequence,1_1_5_1,NA,NA,skipped,NA,512473.39999962,NA,NA,512472.816,512473.5,2023-03-29T15:36:27Z,512489.479,"c(""distractor1"", ""distractor2"", ""distractor3"")",Qualität,mtindo,d,NA,NA,NA,NA,NA,NA,NA,NA,NA,NA,NA,NA,NA,NA,NA,NA,NA,NA,NA,NA,NA,NA,NA,NA,NA,NA
40265,task,flow.Sequence,1_1_5,NA,NA,completion,9558.528,502900.10000038,502897.445,502914.288,512472.816,512473.60000038,2023-03-29T15:36:27Z,512489.479,"c(""distractor1"", ""distractor2"", ""distractor3"")",Qualität,mtindo,d,NA,NA,NA,NA,NA,NA,NA,NA,NA,NA,NA,NA,NA,NA,NA,NA,NA,NA,NA,NA,NA,NA,NA,NA,NA,NA
40265,block,flow.Loop,1_1,NA,NA,completion,82232.102,430219.80000114,430223.065,430240.714,512472.816,512473.80000114,2023-03-29T15:36:27Z,512489.479,"c(""distractor1"", ""distractor2"", ""distractor3"")",NA,NA,NA,NA,NA,NA,NA,NA,NA,NA,NA,NA,NA,NA,NA,NA,NA,NA,NA,NA,NA,NA,NA,NA,NA,NA,NA,NA,NA
40265,Practice,flow.Sequence,1,NA,NA,completion,91724.75,420737.5,420724.17,420748.066,512472.816,512473.80000114,2023-03-29T15:36:27Z,512489.479,NULL,NA,NA,NA,NA,NA,NA,NA,NA,NA,NA,NA,NA,NA,NA,NA,NA,NA,NA,NA,NA,NA,NA,NA,NA,NA,NA,NA,NA,NA
40265,Experiment start,canvas.Screen,2,weiter,keypress(q),response,15704.521,512473.80000114,512472.816,512489.479,528194,528194.70000076,2023-03-29T15:36:43Z,528309.81,NULL,NA,NA,NA,NA,NA,NA,NA,NA,NA,NA,NA,NA,NA,NA,NA,NA,NA,NA,NA,NA,NA,NA,NA,NA,NA,NA,NA,NA,NA
40265,deep,flow.Sequence,3_0_0_0_0_0,NA,NA,skipped,NA,528305.70000076,NA,NA,528194,528305.80000114,2023-03-29T15:36:43Z,528309.81,NULL,Vermutung,udhanifu,s,haramia,tikisho,itifaki,NA,sdf,NA,0,NA,NA,NA,NA,NA,NA,NA,NA,NA,NA,NA,NA,NA,NA,NA,NA,NA,NA,NA
40265,Shallow Question,html.Page,3_0_0_0_0_1_0,NA,NA,form submission,6273.3900007629,528306,528292.233,528309.81,534583.20000076,534583.30000114,2023-03-29T15:36:49Z,534588.036,NULL,Vermutung,udhanifu,s,haramia,tikisho,itifaki,tikisho,NA,NA,0,NA,NA,NA,NA,NA,NA,NA,NA,NA,NA,NA,NA,NA,NA,NA,NA,NA,NA,NA
40265,"""Richtig""-Screen",canvas.Screen,3_0_0_0_0_1_1,NA,NA,skipped,NA,534585.20000076,NA,NA,534583.20000076,534585.30000114,2023-03-29T15:36:49Z,534588.036,NULL,Vermutung,udhanifu,s,haramia,tikisho,itifaki,NA,sdf,NA,0,NA,NA,NA,NA,NA,NA,NA,NA,NA,NA,NA,NA,NA,NA,NA,NA,NA,NA,NA
40265,"""Falsch""-Screen",canvas.Screen,3_0_0_0_0_1_2,NA,NA,timeout,4996.1240000001,534585.89999962,534571.329,534588.036,539567.975,539569.10000038,2023-03-29T15:36:54Z,539584.16,NULL,Vermutung,udhanifu,s,haramia,tikisho,itifaki,NA,sdf,0,0,NA,NA,NA,NA,NA,NA,NA,NA,NA,NA,NA,NA,NA,NA,NA,NA,NA,NA,NA
40265,shallow,flow.Sequence,3_0_0_0_0_1,NA,NA,completion,11258.165,528306,528292.233,528309.81,539567.975,539569.60000038,2023-03-29T15:36:54Z,539584.16,NULL,Vermutung,udhanifu,s,haramia,tikisho,itifaki,NA,sdf,NA,0,NA,NA,NA,NA,NA,NA,NA,NA,NA,NA,NA,NA,NA,NA,NA,NA,NA,NA,NA
40265,task,flow.Sequence,3_0_0_0_0,NA,NA,completion,11258.165,528305.60000038,528292.233,528309.81,539567.975,539569.80000114,2023-03-29T15:36:54Z,539584.16,NULL,Vermutung,udhanifu,s,haramia,tikisho,itifaki,NA,sdf,NA,0,NA,NA,NA,NA,NA,NA,NA,NA,NA,NA,NA,NA,NA,NA,NA,NA,NA,NA,NA
40265,deep,flow.Sequence,3_0_0_0_1_0,NA,NA,skipped,NA,539570,NA,NA,539567.975,539570.20000076,2023-03-29T15:36:54Z,539584.16,NULL,Inhalt,yaliyomo,s,kishawishi,hifadhi,kutembea,NA,sdf,NA,0,NA,NA,NA,NA,NA,NA,NA,NA,NA,NA,NA,NA,NA,NA,NA,NA,NA,NA,NA
40265,Shallow Question,html.Page,3_0_0_0_1_1_0,NA,NA,form submission,10999.84,539570.39999962,539567.975,539584.16,550584,550584.30000114,2023-03-29T15:37:05Z,550591.537,NULL,Inhalt,yaliyomo,s,kishawishi,hifadhi,kutembea,kutembea,NA,NA,0,NA,NA,NA,NA,NA,NA,NA,NA,NA,NA,NA,NA,NA,NA,NA,NA,NA,NA,NA
40265,"""Richtig""-Screen",canvas.Screen,3_0_0_0_1_1_1,NA,NA,skipped,NA,550586.80000114,NA,NA,550584,550586.89999962,2023-03-29T15:37:05Z,550591.537,NULL,Inhalt,yaliyomo,s,kishawishi,hifadhi,kutembea,NA,sdf,NA,0,NA,NA,NA,NA,NA,NA,NA,NA,NA,NA,NA,NA,NA,NA,NA,NA,NA,NA,NA
40265,"""Falsch""-Screen",canvas.Screen,3_0_0_0_1_1_2,NA,NA,timeout,4996.385,550587.80000114,550574.777,550591.537,555571.369,555572.39999962,2023-03-29T15:37:10Z,555587.922,NULL,Inhalt,yaliyomo,s,kishawishi,hifadhi,kutembea,NA,sdf,0,0,NA,NA,NA,NA,NA,NA,NA,NA,NA,NA,NA,NA,NA,NA,NA,NA,NA,NA,NA
40265,shallow,flow.Sequence,3_0_0_0_1_1,NA,NA,completion,15987.209,539570.39999962,539567.975,539584.16,555571.369,555574.10000038,2023-03-29T15:37:10Z,555587.922,NULL,Inhalt,yaliyomo,s,kishawishi,hifadhi,kutembea,NA,sdf,NA,0,NA,NA,NA,NA,NA,NA,NA,NA,NA,NA,NA,NA,NA,NA,NA,NA,NA,NA,NA
40265,task,flow.Sequence,3_0_0_0_1,NA,NA,completion,15987.209,539569.89999962,539567.975,539584.16,555571.369,555574.5,2023-03-29T15:37:10Z,555587.922,NULL,Inhalt,yaliyomo,s,kishawishi,hifadhi,kutembea,NA,sdf,NA,0,NA,NA,NA,NA,NA,NA,NA,NA,NA,NA,NA,NA,NA,NA,NA,NA,NA,NA,NA
40265,Deep Question,html.Page,3_0_0_0_2_0_0,NA,NA,form submission,6587.2780007629,555574.89999962,555571.369,555587.922,562175.20000076,562175.39999962,2023-03-29T15:37:17Z,562182.071,NULL,Sympathie,mapendano,d,NA,NA,NA,ghg,NA,NA,0,NA,NA,NA,NA,NA,NA,NA,NA,NA,NA,NA,NA,NA,NA,NA,NA,NA,NA,NA
40265,"""Richtig""-Screen",canvas.Screen,3_0_0_0_2_0_1,NA,NA,skipped,NA,562177.89999962,NA,NA,562175.20000076,562178.20000076,2023-03-29T15:37:17Z,562182.071,NULL,Sympathie,mapendano,d,NA,NA,NA,NA,sdf,NA,0,NA,NA,NA,NA,NA,NA,NA,NA,NA,NA,NA,NA,NA,NA,NA,NA,NA,NA,NA
40265,"""Falsch""-Screen",canvas.Screen,3_0_0_0_2_0_2,NA,NA,timeout,4996,562179.10000038,562166.083,562182.071,567162.022,567163.20000076,2023-03-29T15:37:22Z,567178.071,NULL,Sympathie,mapendano,d,NA,NA,NA,NA,sdf,0,0,NA,NA,NA,NA,NA,NA,NA,NA,NA,NA,NA,NA,NA,NA,NA,NA,NA,NA,NA
40265,deep,flow.Sequence,3_0_0_0_2_0,NA,NA,completion,11574.1,555574.80000114,555571.369,555587.922,567162.022,567163.60000038,2023-03-29T15:37:22Z,567178.071,NULL,Sympathie,mapendano,d,NA,NA,NA,NA,sdf,NA,0,NA,NA,NA,NA,NA,NA,NA,NA,NA,NA,NA,NA,NA,NA,NA,NA,NA,NA,NA
40265,shallow,flow.Sequence,3_0_0_0_2_1,NA,NA,skipped,NA,567163.80000114,NA,NA,567162.022,567164,2023-03-29T15:37:22Z,567178.071,NULL,Sympathie,mapendano,d,NA,NA,NA,NA,sdf,NA,0,NA,NA,NA,NA,NA,NA,NA,NA,NA,NA,NA,NA,NA,NA,NA,NA,NA,NA,NA
40265,task,flow.Sequence,3_0_0_0_2,NA,NA,completion,11574.1,555574.70000076,555571.369,555587.922,567162.022,567164.30000114,2023-03-29T15:37:22Z,567178.071,NULL,Sympathie,mapendano,d,NA,NA,NA,NA,sdf,NA,0,NA,NA,NA,NA,NA,NA,NA,NA,NA,NA,NA,NA,NA,NA,NA,NA,NA,NA,NA
40265,deep,flow.Sequence,3_0_0_0_3_0,NA,NA,skipped,NA,567164.39999962,NA,NA,567162.022,567164.60000038,2023-03-29T15:37:22Z,567178.071,NULL,Polizist,msongora,s,simanzi,mandhari,nidhamu,NA,sdf,NA,0,NA,NA,NA,NA,NA,NA,NA,NA,NA,NA,NA,NA,NA,NA,NA,NA,NA,NA,NA
40265,Shallow Question,html.Page,3_0_0_0_3_1_0,NA,NA,form submission,8076.3289996185,567164.80000114,567162.022,567178.071,575254.39999962,575254.70000076,2023-03-29T15:37:30Z,575284.334,NULL,Polizist,msongora,s,simanzi,mandhari,nidhamu,simanzi,NA,NA,0,NA,NA,NA,NA,NA,NA,NA,NA,NA,NA,NA,NA,NA,NA,NA,NA,NA,NA,NA
40265,"""Richtig""-Screen",canvas.Screen,3_0_0_0_3_1_1,NA,NA,skipped,NA,575257.10000038,NA,NA,575254.39999962,575257.30000114,2023-03-29T15:37:30Z,575284.334,NULL,Polizist,msongora,s,simanzi,mandhari,nidhamu,NA,sdf,NA,0,NA,NA,NA,NA,NA,NA,NA,NA,NA,NA,NA,NA,NA,NA,NA,NA,NA,NA,NA
40265,"""Falsch""-Screen",canvas.Screen,3_0_0_0_3_1_2,NA,NA,timeout,4999.598,575257.89999962,575238.03,575284.334,580267.922,580268.80000114,2023-03-29T15:37:35Z,580283.932,NULL,Polizist,msongora,s,simanzi,mandhari,nidhamu,NA,sdf,0,0,NA,NA,NA,NA,NA,NA,NA,NA,NA,NA,NA,NA,NA,NA,NA,NA,NA,NA,NA
40265,shallow,flow.Sequence,3_0_0_0_3_1,NA,NA,completion,13089.851,567164.70000076,567162.022,567178.071,580267.922,580269.30000114,2023-03-29T15:37:35Z,580283.932,NULL,Polizist,msongora,s,simanzi,mandhari,nidhamu,NA,sdf,NA,0,NA,NA,NA,NA,NA,NA,NA,NA,NA,NA,NA,NA,NA,NA,NA,NA,NA,NA,NA
40265,task,flow.Sequence,3_0_0_0_3,NA,NA,completion,13089.851,567164.39999962,567162.022,567178.071,580267.922,580269.60000038,2023-03-29T15:37:35Z,580283.932,NULL,Polizist,msongora,s,simanzi,mandhari,nidhamu,NA,sdf,NA,0,NA,NA,NA,NA,NA,NA,NA,NA,NA,NA,NA,NA,NA,NA,NA,NA,NA,NA,NA
40265,Deep Question,html.Page,3_0_0_0_4_0_0,NA,NA,form submission,8618.9679996185,580269.80000114,580267.922,580283.932,588902.89999962,588903.10000038,2023-03-29T15:37:44Z,588910.521,NULL,Annäherung,maegesho,d,NA,NA,NA,tz,NA,NA,0,NA,NA,NA,NA,NA,NA,NA,NA,NA,NA,NA,NA,NA,NA,NA,NA,NA,NA,NA
40265,"""Richtig""-Screen",canvas.Screen,3_0_0_0_4_0_1,NA,NA,skipped,NA,588905.80000114,NA,NA,588902.89999962,588906,2023-03-29T15:37:44Z,588910.521,NULL,Annäherung,maegesho,d,NA,NA,NA,NA,sdf,NA,0,NA,NA,NA,NA,NA,NA,NA,NA,NA,NA,NA,NA,NA,NA,NA,NA,NA,NA,NA
40265,"""Falsch""-Screen",canvas.Screen,3_0_0_0_4_0_2,NA,NA,timeout,4995.4900000001,588906.70000076,588893.446,588910.521,593889.349,593889.89999962,2023-03-29T15:37:49Z,593906.011,NULL,Annäherung,maegesho,d,NA,NA,NA,NA,sdf,0,0,NA,NA,NA,NA,NA,NA,NA,NA,NA,NA,NA,NA,NA,NA,NA,NA,NA,NA,NA
40265,deep,flow.Sequence,3_0_0_0_4_0,NA,NA,completion,13605.417,580269.80000114,580267.922,580283.932,593889.349,593890.20000076,2023-03-29T15:37:49Z,593906.011,NULL,Annäherung,maegesho,d,NA,NA,NA,NA,sdf,NA,0,NA,NA,NA,NA,NA,NA,NA,NA,NA,NA,NA,NA,NA,NA,NA,NA,NA,NA,NA
40265,shallow,flow.Sequence,3_0_0_0_4_1,NA,NA,skipped,NA,593890.30000114,NA,NA,593889.349,593890.5,2023-03-29T15:37:49Z,593906.011,NULL,Annäherung,maegesho,d,NA,NA,NA,NA,sdf,NA,0,NA,NA,NA,NA,NA,NA,NA,NA,NA,NA,NA,NA,NA,NA,NA,NA,NA,NA,NA
40265,task,flow.Sequence,3_0_0_0_4,NA,NA,completion,13605.417,580269.60000038,580267.922,580283.932,593889.349,593890.60000038,2023-03-29T15:37:49Z,593906.011,NULL,Annäherung,maegesho,d,NA,NA,NA,NA,sdf,NA,0,NA,NA,NA,NA,NA,NA,NA,NA,NA,NA,NA,NA,NA,NA,NA,NA,NA,NA,NA
40265,deep,flow.Sequence,3_0_0_0_5_0,NA,NA,skipped,NA,593890.70000076,NA,NA,593889.349,593890.89999962,2023-03-29T15:37:49Z,593906.011,NULL,Beweis,ushahidi,s,marudio,kizuizi,mtendaji,NA,sdf,NA,0,NA,NA,NA,NA,NA,NA,NA,NA,NA,NA,NA,NA,NA,NA,NA,NA,NA,NA,NA
40265,Shallow Question,html.Page,3_0_0_0_5_1_0,NA,NA,form submission,11236.689000763,593891,593889.349,593906.011,605142.70000076,605142.89999962,2023-03-29T15:38:00Z,605146.827,NULL,Beweis,ushahidi,s,marudio,kizuizi,mtendaji,marudio,NA,NA,0,NA,NA,NA,NA,NA,NA,NA,NA,NA,NA,NA,NA,NA,NA,NA,NA,NA,NA,NA
40265,"""Richtig""-Screen",canvas.Screen,3_0_0_0_5_1_1,NA,NA,skipped,NA,605144.89999962,NA,NA,605142.70000076,605145,2023-03-29T15:38:00Z,605146.827,NULL,Beweis,ushahidi,s,marudio,kizuizi,mtendaji,NA,sdf,NA,0,NA,NA,NA,NA,NA,NA,NA,NA,NA,NA,NA,NA,NA,NA,NA,NA,NA,NA,NA
40265,"""Falsch""-Screen",canvas.Screen,3_0_0_0_5_1_2,NA,NA,timeout,4996.3609999999,605145.70000076,605130.355,605146.827,610126.303,610127.30000114,2023-03-29T15:38:05Z,610143.188,NULL,Beweis,ushahidi,s,marudio,kizuizi,mtendaji,NA,sdf,0,0,NA,NA,NA,NA,NA,NA,NA,NA,NA,NA,NA,NA,NA,NA,NA,NA,NA,NA,NA
40265,shallow,flow.Sequence,3_0_0_0_5_1,NA,NA,completion,16220.292,593891,593889.349,593906.011,610126.303,610127.70000076,2023-03-29T15:38:05Z,610143.188,NULL,Beweis,ushahidi,s,marudio,kizuizi,mtendaji,NA,sdf,NA,0,NA,NA,NA,NA,NA,NA,NA,NA,NA,NA,NA,NA,NA,NA,NA,NA,NA,NA,NA
40265,task,flow.Sequence,3_0_0_0_5,NA,NA,completion,16220.292,593890.70000076,593889.349,593906.011,610126.303,610128.10000038,2023-03-29T15:38:05Z,610143.188,NULL,Beweis,ushahidi,s,marudio,kizuizi,mtendaji,NA,sdf,NA,0,NA,NA,NA,NA,NA,NA,NA,NA,NA,NA,NA,NA,NA,NA,NA,NA,NA,NA,NA
40265,Deep Question,html.Page,3_0_0_0_6_0_0,NA,NA,form submission,7801.312,610128.39999962,610126.303,610143.188,617944.5,617944.80000114,2023-03-29T15:38:13Z,617970.242,NULL,Schlange,foleni,d,NA,NA,NA,guzu,NA,NA,0,NA,NA,NA,NA,NA,NA,NA,NA,NA,NA,NA,NA,NA,NA,NA,NA,NA,NA,NA
40265,"""Richtig""-Screen",canvas.Screen,3_0_0_0_6_0_1,NA,NA,skipped,NA,617947.70000076,NA,NA,617944.5,617947.89999962,2023-03-29T15:38:13Z,617970.242,NULL,Schlange,foleni,d,NA,NA,NA,NA,sdf,NA,0,NA,NA,NA,NA,NA,NA,NA,NA,NA,NA,NA,NA,NA,NA,NA,NA,NA,NA,NA
40265,"""Falsch""-Screen",canvas.Screen,3_0_0_0_6_0_2,NA,NA,timeout,4995.657,617948.89999962,617953.34,617970.242,622949.365,622950.10000038,2023-03-29T15:38:18Z,622965.899,NULL,Schlange,foleni,d,NA,NA,NA,NA,sdf,0,0,NA,NA,NA,NA,NA,NA,NA,NA,NA,NA,NA,NA,NA,NA,NA,NA,NA,NA,NA
40265,deep,flow.Sequence,3_0_0_0_6_0,NA,NA,completion,12806.177,610128.20000076,610126.303,610143.188,622949.365,622950.39999962,2023-03-29T15:38:18Z,622965.899,NULL,Schlange,foleni,d,NA,NA,NA,NA,sdf,NA,0,NA,NA,NA,NA,NA,NA,NA,NA,NA,NA,NA,NA,NA,NA,NA,NA,NA,NA,NA
40265,shallow,flow.Sequence,3_0_0_0_6_1,NA,NA,skipped,NA,622950.5,NA,NA,622949.365,622950.5,2023-03-29T15:38:18Z,622965.899,NULL,Schlange,foleni,d,NA,NA,NA,NA,sdf,NA,0,NA,NA,NA,NA,NA,NA,NA,NA,NA,NA,NA,NA,NA,NA,NA,NA,NA,NA,NA
40265,task,flow.Sequence,3_0_0_0_6,NA,NA,completion,12806.177,610128.20000076,610126.303,610143.188,622949.365,622950.60000038,2023-03-29T15:38:18Z,622965.899,NULL,Schlange,foleni,d,NA,NA,NA,NA,sdf,NA,0,NA,NA,NA,NA,NA,NA,NA,NA,NA,NA,NA,NA,NA,NA,NA,NA,NA,NA,NA
40265,Deep Question,html.Page,3_0_0_0_7_0_0,NA,NA,form submission,13998.000999619,622950.80000114,622949.365,622965.899,636963.89999962,636964,2023-03-29T15:38:32Z,636970.741,NULL,Toleranz,kuvumiliana,d,NA,NA,NA,tt,NA,NA,0,NA,NA,NA,NA,NA,NA,NA,NA,NA,NA,NA,NA,NA,NA,NA,NA,NA,NA,NA
40265,"""Richtig""-Screen",canvas.Screen,3_0_0_0_7_0_1,NA,NA,skipped,NA,636966.10000038,NA,NA,636963.89999962,636966.20000076,2023-03-29T15:38:32Z,636970.741,NULL,Toleranz,kuvumiliana,d,NA,NA,NA,NA,sdf,NA,0,NA,NA,NA,NA,NA,NA,NA,NA,NA,NA,NA,NA,NA,NA,NA,NA,NA,NA,NA
40265,"""Falsch""-Screen",canvas.Screen,3_0_0_0_7_0_2,NA,NA,timeout,4996.0429999999,636966.80000114,636954.092,636970.741,641950.648,641951.60000038,2023-03-29T15:38:37Z,641966.784,NULL,Toleranz,kuvumiliana,d,NA,NA,NA,NA,sdf,0,0,NA,NA,NA,NA,NA,NA,NA,NA,NA,NA,NA,NA,NA,NA,NA,NA,NA,NA,NA
40265,deep,flow.Sequence,3_0_0_0_7_0,NA,NA,completion,18984.749,622950.70000076,622949.365,622965.899,641950.648,641952,2023-03-29T15:38:37Z,641966.784,NULL,Toleranz,kuvumiliana,d,NA,NA,NA,NA,sdf,NA,0,NA,NA,NA,NA,NA,NA,NA,NA,NA,NA,NA,NA,NA,NA,NA,NA,NA,NA,NA
40265,shallow,flow.Sequence,3_0_0_0_7_1,NA,NA,skipped,NA,641952.20000076,NA,NA,641950.648,641952.39999962,2023-03-29T15:38:37Z,641966.784,NULL,Toleranz,kuvumiliana,d,NA,NA,NA,NA,sdf,NA,0,NA,NA,NA,NA,NA,NA,NA,NA,NA,NA,NA,NA,NA,NA,NA,NA,NA,NA,NA
40265,task,flow.Sequence,3_0_0_0_7,NA,NA,completion,18984.749,622950.60000038,622949.365,622965.899,641950.648,641952.60000038,2023-03-29T15:38:37Z,641966.784,NULL,Toleranz,kuvumiliana,d,NA,NA,NA,NA,sdf,NA,0,NA,NA,NA,NA,NA,NA,NA,NA,NA,NA,NA,NA,NA,NA,NA,NA,NA,NA,NA
40265,block,flow.Loop,3_0_0_0,NA,NA,completion,113640.838,528305.60000038,528292.233,528309.81,641950.648,641952.89999962,2023-03-29T15:38:37Z,641966.784,NULL,NA,NA,NA,NA,NA,NA,NA,sdf,NA,0,NA,NA,NA,NA,NA,NA,NA,NA,NA,NA,NA,NA,NA,NA,NA,NA,NA,NA,NA
40265,weiter,canvas.Screen,3_0_0_1,sdf,keypress(Space),response,2006.716,641953.20000076,641950.648,641966.784,643973.5,643974,2023-03-29T15:38:39Z,644014.961,NULL,NA,NA,NA,NA,NA,NA,NA,sdf,NA,0,NA,NA,NA,NA,NA,NA,NA,NA,NA,NA,NA,NA,NA,NA,NA,NA,NA,NA,NA
40265,check continue,flow.Sequence,3_0_0,NA,NA,completion,115663.69,528305.5,528292.233,528309.81,643973.5,643974.20000076,2023-03-29T15:38:39Z,644014.961,NULL,NA,NA,NA,NA,NA,NA,NA,sdf,NA,0,NA,NA,NA,NA,NA,NA,NA,NA,NA,NA,NA,NA,NA,NA,NA,NA,NA,NA,NA
40265,Deep Question,html.Page,3_0_1_0_0_0_0,NA,NA,form submission,11742.139000381,644007.10000038,643998.776,644014.961,655757.10000038,655757.39999962,2023-03-29T15:38:51Z,655772.099,NULL,Toleranz,kuvumiliana,d,NA,NA,NA,kuwumiliana,NA,NA,1,NA,NA,NA,NA,NA,NA,NA,NA,NA,NA,NA,NA,NA,NA,NA,NA,NA,NA,NA
40265,"""Richtig""-Screen",canvas.Screen,3_0_1_0_0_0_1,NA,NA,skipped,NA,655760.5,NA,NA,655757.10000038,655760.70000076,2023-03-29T15:38:51Z,655772.099,NULL,Toleranz,kuvumiliana,d,NA,NA,NA,NA,sdfdsf,NA,1,NA,NA,NA,NA,NA,NA,NA,NA,NA,NA,NA,NA,NA,NA,NA,NA,NA,NA,NA
40265,"""Falsch""-Screen",canvas.Screen,3_0_1_0_0_0_2,NA,NA,timeout,4995.7559999999,655761.89999962,655755.322,655772.099,660751.187,660751.5,2023-03-29T15:38:56Z,660767.855,NULL,Toleranz,kuvumiliana,d,NA,NA,NA,NA,sdfdsf,0,1,NA,NA,NA,NA,NA,NA,NA,NA,NA,NA,NA,NA,NA,NA,NA,NA,NA,NA,NA
40265,deep,flow.Sequence,3_0_1_0_0_0,NA,NA,completion,16736.226,644007.10000038,643998.776,644014.961,660751.187,660751.70000076,2023-03-29T15:38:56Z,660767.855,NULL,Toleranz,kuvumiliana,d,NA,NA,NA,NA,sdfdsf,NA,1,NA,NA,NA,NA,NA,NA,NA,NA,NA,NA,NA,NA,NA,NA,NA,NA,NA,NA,NA
40265,shallow,flow.Sequence,3_0_1_0_0_1,NA,NA,skipped,NA,660751.80000114,NA,NA,660751.187,660751.89999962,2023-03-29T15:38:56Z,660767.855,NULL,Toleranz,kuvumiliana,d,NA,NA,NA,NA,sdfdsf,NA,1,NA,NA,NA,NA,NA,NA,NA,NA,NA,NA,NA,NA,NA,NA,NA,NA,NA,NA,NA
40265,task,flow.Sequence,3_0_1_0_0,NA,NA,completion,16736.226,644007.10000038,643998.776,644014.961,660751.187,660751.89999962,2023-03-29T15:38:56Z,660767.855,NULL,Toleranz,kuvumiliana,d,NA,NA,NA,NA,sdfdsf,NA,1,NA,NA,NA,NA,NA,NA,NA,NA,NA,NA,NA,NA,NA,NA,NA,NA,NA,NA,NA
40265,deep,flow.Sequence,3_0_1_0_1_0,NA,NA,skipped,NA,660752,NA,NA,660751.187,660752,2023-03-29T15:38:56Z,660767.855,NULL,Vermutung,udhanifu,s,haramia,tikisho,itifaki,NA,sdfdsf,NA,1,NA,NA,NA,NA,NA,NA,NA,NA,NA,NA,NA,NA,NA,NA,NA,NA,NA,NA,NA
40265,Shallow Question,html.Page,3_0_1_0_1_1_0,NA,NA,form submission,10832.745000381,660752.10000038,660751.187,660767.855,671600.60000038,671601,2023-03-29T15:39:06Z,671609.024,NULL,Vermutung,udhanifu,s,haramia,tikisho,itifaki,udhanifu,NA,NA,1,NA,NA,NA,NA,NA,NA,NA,NA,NA,NA,NA,NA,NA,NA,NA,NA,NA,NA,NA
40265,"""Richtig""-Screen",canvas.Screen,3_0_1_0_1_1_1,NA,NA,timeout,4995.863,671606.89999962,671592.619,671609.024,676588.884,676590,2023-03-29T15:39:11Z,676604.887,NULL,Vermutung,udhanifu,s,haramia,tikisho,itifaki,NA,sdfdsf,1,1,NA,NA,NA,NA,NA,NA,NA,NA,NA,NA,NA,NA,NA,NA,NA,NA,NA,NA,NA
40265,"""Falsch""-Screen",canvas.Screen,3_0_1_0_1_1_2,NA,NA,skipped,NA,676595,NA,NA,676588.884,676595.20000076,2023-03-29T15:39:11Z,676604.887,NULL,Vermutung,udhanifu,s,haramia,tikisho,itifaki,NA,sdfdsf,NA,1,NA,NA,NA,NA,NA,NA,NA,NA,NA,NA,NA,NA,NA,NA,NA,NA,NA,NA,NA
40265,shallow,flow.Sequence,3_0_1_0_1_1,NA,NA,completion,15821.029,660752.10000038,660751.187,660767.855,676588.884,676595.39999962,2023-03-29T15:39:11Z,676604.887,NULL,Vermutung,udhanifu,s,haramia,tikisho,itifaki,NA,sdfdsf,NA,1,NA,NA,NA,NA,NA,NA,NA,NA,NA,NA,NA,NA,NA,NA,NA,NA,NA,NA,NA
40265,task,flow.Sequence,3_0_1_0_1,NA,NA,completion,15821.029,660752,660751.187,660767.855,676588.884,676595.5,2023-03-29T15:39:11Z,676604.887,NULL,Vermutung,udhanifu,s,haramia,tikisho,itifaki,NA,sdfdsf,NA,1,NA,NA,NA,NA,NA,NA,NA,NA,NA,NA,NA,NA,NA,NA,NA,NA,NA,NA,NA
40265,deep,flow.Sequence,3_0_1_0_2_0,NA,NA,skipped,NA,676595.60000038,NA,NA,676588.884,676595.60000038,2023-03-29T15:39:11Z,676604.887,NULL,Beweis,ushahidi,s,marudio,kizuizi,mtendaji,NA,sdfdsf,NA,1,NA,NA,NA,NA,NA,NA,NA,NA,NA,NA,NA,NA,NA,NA,NA,NA,NA,NA,NA
40265,Shallow Question,html.Page,3_0_1_0_2_1_0,NA,NA,form submission,8311.2130003815,676595.60000038,676588.884,676604.887,684916.10000038,684916.30000114,2023-03-29T15:39:20Z,684932.019,NULL,Beweis,ushahidi,s,marudio,kizuizi,mtendaji,ushahidi,NA,NA,1,NA,NA,NA,NA,NA,NA,NA,NA,NA,NA,NA,NA,NA,NA,NA,NA,NA,NA,NA
40265,"""Richtig""-Screen",canvas.Screen,3_0_1_0_2_1_1,NA,NA,timeout,4995.2640000001,684918.20000076,684915.236,684932.019,689911.336,689912.39999962,2023-03-29T15:39:25Z,689927.283,NULL,Beweis,ushahidi,s,marudio,kizuizi,mtendaji,NA,sdfdsf,1,1,NA,NA,NA,NA,NA,NA,NA,NA,NA,NA,NA,NA,NA,NA,NA,NA,NA,NA,NA
40265,"""Falsch""-Screen",canvas.Screen,3_0_1_0_2_1_2,NA,NA,skipped,NA,689918.39999962,NA,NA,689911.336,689918.70000076,2023-03-29T15:39:25Z,689927.283,NULL,Beweis,ushahidi,s,marudio,kizuizi,mtendaji,NA,sdfdsf,NA,1,NA,NA,NA,NA,NA,NA,NA,NA,NA,NA,NA,NA,NA,NA,NA,NA,NA,NA,NA
40265,shallow,flow.Sequence,3_0_1_0_2_1,NA,NA,completion,13306.449,676595.60000038,676588.884,676604.887,689911.336,689919.10000038,2023-03-29T15:39:25Z,689927.283,NULL,Beweis,ushahidi,s,marudio,kizuizi,mtendaji,NA,sdfdsf,NA,1,NA,NA,NA,NA,NA,NA,NA,NA,NA,NA,NA,NA,NA,NA,NA,NA,NA,NA,NA
40265,task,flow.Sequence,3_0_1_0_2,NA,NA,completion,13306.449,676595.5,676588.884,676604.887,689911.336,689919.39999962,2023-03-29T15:39:25Z,689927.283,NULL,Beweis,ushahidi,s,marudio,kizuizi,mtendaji,NA,sdfdsf,NA,1,NA,NA,NA,NA,NA,NA,NA,NA,NA,NA,NA,NA,NA,NA,NA,NA,NA,NA,NA
40265,Deep Question,html.Page,3_0_1_0_3_0_0,NA,NA,form submission,11802.517001144,689919.60000038,689911.336,689927.283,701729.80000114,701730.10000038,2023-03-29T15:39:36Z,701734.254,NULL,Sympathie,mapendano,d,NA,NA,NA,maehidi,NA,NA,1,NA,NA,NA,NA,NA,NA,NA,NA,NA,NA,NA,NA,NA,NA,NA,NA,NA,NA,NA
40265,"""Richtig""-Screen",canvas.Screen,3_0_1_0_3_0_1,NA,NA,skipped,NA,701732.20000076,NA,NA,701729.80000114,701732.39999962,2023-03-29T15:39:36Z,701734.254,NULL,Sympathie,mapendano,d,NA,NA,NA,NA,sdfdsf,NA,1,NA,NA,NA,NA,NA,NA,NA,NA,NA,NA,NA,NA,NA,NA,NA,NA,NA,NA,NA
40265,"""Falsch""-Screen",canvas.Screen,3_0_1_0_3_0_2,NA,NA,timeout,4996.746,701733.10000038,701717.638,701734.254,706713.644,706716.30000114,2023-03-29T15:39:41Z,706731,NULL,Sympathie,mapendano,d,NA,NA,NA,NA,sdfdsf,0,1,NA,NA,NA,NA,NA,NA,NA,NA,NA,NA,NA,NA,NA,NA,NA,NA,NA,NA,NA
40265,deep,flow.Sequence,3_0_1_0_3_0,NA,NA,completion,16786.361,689919.5,689911.336,689927.283,706713.644,706716.80000114,2023-03-29T15:39:41Z,706731,NULL,Sympathie,mapendano,d,NA,NA,NA,NA,sdfdsf,NA,1,NA,NA,NA,NA,NA,NA,NA,NA,NA,NA,NA,NA,NA,NA,NA,NA,NA,NA,NA
40265,shallow,flow.Sequence,3_0_1_0_3_1,NA,NA,skipped,NA,706717,NA,NA,706713.644,706717.20000076,2023-03-29T15:39:41Z,706731,NULL,Sympathie,mapendano,d,NA,NA,NA,NA,sdfdsf,NA,1,NA,NA,NA,NA,NA,NA,NA,NA,NA,NA,NA,NA,NA,NA,NA,NA,NA,NA,NA
40265,task,flow.Sequence,3_0_1_0_3,NA,NA,completion,16786.361,689919.5,689911.336,689927.283,706713.644,706717.5,2023-03-29T15:39:41Z,706731,NULL,Sympathie,mapendano,d,NA,NA,NA,NA,sdfdsf,NA,1,NA,NA,NA,NA,NA,NA,NA,NA,NA,NA,NA,NA,NA,NA,NA,NA,NA,NA,NA
40265,deep,flow.Sequence,3_0_1_0_4_0,NA,NA,skipped,NA,706717.70000076,NA,NA,706713.644,706717.89999962,2023-03-29T15:39:41Z,706731,NULL,Inhalt,yaliyomo,s,kishawishi,hifadhi,kutembea,NA,sdfdsf,NA,1,NA,NA,NA,NA,NA,NA,NA,NA,NA,NA,NA,NA,NA,NA,NA,NA,NA,NA,NA
40265,Shallow Question,html.Page,3_0_1_0_4_1_0,NA,NA,form submission,5927.3000011444,706718.10000038,706713.644,706731,712658.30000114,712658.5,2023-03-29T15:39:47Z,712675.866,NULL,Inhalt,yaliyomo,s,kishawishi,hifadhi,kutembea,yaliyomo,NA,NA,1,NA,NA,NA,NA,NA,NA,NA,NA,NA,NA,NA,NA,NA,NA,NA,NA,NA,NA,NA
40265,"""Richtig""-Screen",canvas.Screen,3_0_1_0_4_1_1,NA,NA,timeout,4995.6209999999,712660.39999962,712642.38,712675.866,717654.662,717656.20000076,2023-03-29T15:39:52Z,717671.487,NULL,Inhalt,yaliyomo,s,kishawishi,hifadhi,kutembea,NA,sdfdsf,1,1,NA,NA,NA,NA,NA,NA,NA,NA,NA,NA,NA,NA,NA,NA,NA,NA,NA,NA,NA
40265,"""Falsch""-Screen",canvas.Screen,3_0_1_0_4_1_2,NA,NA,skipped,NA,717659.39999962,NA,NA,717654.662,717659.70000076,2023-03-29T15:39:52Z,717671.487,NULL,Inhalt,yaliyomo,s,kishawishi,hifadhi,kutembea,NA,sdfdsf,NA,1,NA,NA,NA,NA,NA,NA,NA,NA,NA,NA,NA,NA,NA,NA,NA,NA,NA,NA,NA
40265,shallow,flow.Sequence,3_0_1_0_4_1,NA,NA,completion,10923.662,706718,706713.644,706731,717654.662,717660,2023-03-29T15:39:52Z,717671.487,NULL,Inhalt,yaliyomo,s,kishawishi,hifadhi,kutembea,NA,sdfdsf,NA,1,NA,NA,NA,NA,NA,NA,NA,NA,NA,NA,NA,NA,NA,NA,NA,NA,NA,NA,NA
40265,task,flow.Sequence,3_0_1_0_4,NA,NA,completion,10923.662,706717.70000076,706713.644,706731,717654.662,717660.10000038,2023-03-29T15:39:52Z,717671.487,NULL,Inhalt,yaliyomo,s,kishawishi,hifadhi,kutembea,NA,sdfdsf,NA,1,NA,NA,NA,NA,NA,NA,NA,NA,NA,NA,NA,NA,NA,NA,NA,NA,NA,NA,NA
40265,Deep Question,html.Page,3_0_1_0_5_0_0,NA,NA,form submission,16562.313001144,717660.30000114,717654.662,717671.487,734233.80000114,734234,2023-03-29T15:40:09Z,734240.931,NULL,Annäherung,maegesho,d,NA,NA,NA,mapendo,NA,NA,1,NA,NA,NA,NA,NA,NA,NA,NA,NA,NA,NA,NA,NA,NA,NA,NA,NA,NA,NA
40265,"""Richtig""-Screen",canvas.Screen,3_0_1_0_5_0_1,NA,NA,skipped,NA,734236.10000038,NA,NA,734233.80000114,734236.30000114,2023-03-29T15:40:09Z,734240.931,NULL,Annäherung,maegesho,d,NA,NA,NA,NA,sdfdsf,NA,1,NA,NA,NA,NA,NA,NA,NA,NA,NA,NA,NA,NA,NA,NA,NA,NA,NA,NA,NA
40265,"""Falsch""-Screen",canvas.Screen,3_0_1_0_5_0_2,NA,NA,timeout,4995.902,734236.89999962,734224.273,734240.931,739221.098,739221.80000114,2023-03-29T15:40:14Z,739236.833,NULL,Annäherung,maegesho,d,NA,NA,NA,NA,sdfdsf,0,1,NA,NA,NA,NA,NA,NA,NA,NA,NA,NA,NA,NA,NA,NA,NA,NA,NA,NA,NA
40265,deep,flow.Sequence,3_0_1_0_5_0,NA,NA,completion,21549.611,717660.30000114,717654.662,717671.487,739221.098,739222,2023-03-29T15:40:14Z,739236.833,NULL,Annäherung,maegesho,d,NA,NA,NA,NA,sdfdsf,NA,1,NA,NA,NA,NA,NA,NA,NA,NA,NA,NA,NA,NA,NA,NA,NA,NA,NA,NA,NA
40265,shallow,flow.Sequence,3_0_1_0_5_1,NA,NA,skipped,NA,739222.10000038,NA,NA,739221.098,739222.10000038,2023-03-29T15:40:14Z,739236.833,NULL,Annäherung,maegesho,d,NA,NA,NA,NA,sdfdsf,NA,1,NA,NA,NA,NA,NA,NA,NA,NA,NA,NA,NA,NA,NA,NA,NA,NA,NA,NA,NA
40265,task,flow.Sequence,3_0_1_0_5,NA,NA,completion,21549.611,717660.20000076,717654.662,717671.487,739221.098,739222.20000076,2023-03-29T15:40:14Z,739236.833,NULL,Annäherung,maegesho,d,NA,NA,NA,NA,sdfdsf,NA,1,NA,NA,NA,NA,NA,NA,NA,NA,NA,NA,NA,NA,NA,NA,NA,NA,NA,NA,NA
40265,Deep Question,html.Page,3_0_1_0_6_0_0,NA,NA,form submission,12090.467001144,739223,739221.098,739236.833,751327.30000114,751327.39999962,2023-03-29T15:40:26Z,751343.583,NULL,Schlange,foleni,d,NA,NA,NA,haleni,NA,NA,1,NA,NA,NA,NA,NA,NA,NA,NA,NA,NA,NA,NA,NA,NA,NA,NA,NA,NA,NA
40265,"""Richtig""-Screen",canvas.Screen,3_0_1_0_6_0_1,NA,NA,skipped,NA,751329.60000038,NA,NA,751327.30000114,751329.80000114,2023-03-29T15:40:26Z,751343.583,NULL,Schlange,foleni,d,NA,NA,NA,NA,sdfdsf,NA,1,NA,NA,NA,NA,NA,NA,NA,NA,NA,NA,NA,NA,NA,NA,NA,NA,NA,NA,NA
40265,"""Falsch""-Screen",canvas.Screen,3_0_1_0_6_0_2,NA,NA,timeout,4995.943,751330.39999962,751311.052,751343.583,756323.359,756324.20000076,2023-03-29T15:40:31Z,756339.526,NULL,Schlange,foleni,d,NA,NA,NA,NA,sdfdsf,0,1,NA,NA,NA,NA,NA,NA,NA,NA,NA,NA,NA,NA,NA,NA,NA,NA,NA,NA,NA
40265,deep,flow.Sequence,3_0_1_0_6_0,NA,NA,completion,17086.526,739222.30000114,739221.098,739236.833,756323.359,756324.60000038,2023-03-29T15:40:31Z,756339.526,NULL,Schlange,foleni,d,NA,NA,NA,NA,sdfdsf,NA,1,NA,NA,NA,NA,NA,NA,NA,NA,NA,NA,NA,NA,NA,NA,NA,NA,NA,NA,NA
40265,shallow,flow.Sequence,3_0_1_0_6_1,NA,NA,skipped,NA,756324.89999962,NA,NA,756323.359,756325,2023-03-29T15:40:31Z,756339.526,NULL,Schlange,foleni,d,NA,NA,NA,NA,sdfdsf,NA,1,NA,NA,NA,NA,NA,NA,NA,NA,NA,NA,NA,NA,NA,NA,NA,NA,NA,NA,NA
40265,task,flow.Sequence,3_0_1_0_6,NA,NA,completion,17086.526,739222.30000114,739221.098,739236.833,756323.359,756325.30000114,2023-03-29T15:40:31Z,756339.526,NULL,Schlange,foleni,d,NA,NA,NA,NA,sdfdsf,NA,1,NA,NA,NA,NA,NA,NA,NA,NA,NA,NA,NA,NA,NA,NA,NA,NA,NA,NA,NA
40265,deep,flow.Sequence,3_0_1_0_7_0,NA,NA,skipped,NA,756325.60000038,NA,NA,756323.359,756325.70000076,2023-03-29T15:40:31Z,756339.526,NULL,Polizist,msongora,s,simanzi,mandhari,nidhamu,NA,sdfdsf,NA,1,NA,NA,NA,NA,NA,NA,NA,NA,NA,NA,NA,NA,NA,NA,NA,NA,NA,NA,NA
40265,Shallow Question,html.Page,3_0_1_0_7_1_0,NA,NA,form submission,16462.674000763,756325.89999962,756323.359,756339.526,772802.20000076,772802.70000076,2023-03-29T15:40:48Z,772809.387,NULL,Polizist,msongora,s,simanzi,mandhari,nidhamu,msongora,NA,NA,1,NA,NA,NA,NA,NA,NA,NA,NA,NA,NA,NA,NA,NA,NA,NA,NA,NA,NA,NA
40265,"""Richtig""-Screen",canvas.Screen,3_0_1_0_7_1_1,NA,NA,timeout,4996.083,772808.60000038,772792.922,772809.387,777789.171,777789.80000114,2023-03-29T15:40:53Z,777805.47,NULL,Polizist,msongora,s,simanzi,mandhari,nidhamu,NA,sdfdsf,1,1,NA,NA,NA,NA,NA,NA,NA,NA,NA,NA,NA,NA,NA,NA,NA,NA,NA,NA,NA
40265,"""Falsch""-Screen",canvas.Screen,3_0_1_0_7_1_2,NA,NA,skipped,NA,777792.39999962,NA,NA,777789.171,777792.60000038,2023-03-29T15:40:53Z,777805.47,NULL,Polizist,msongora,s,simanzi,mandhari,nidhamu,NA,sdfdsf,NA,1,NA,NA,NA,NA,NA,NA,NA,NA,NA,NA,NA,NA,NA,NA,NA,NA,NA,NA,NA
40265,shallow,flow.Sequence,3_0_1_0_7_1,NA,NA,completion,21449.645,756325.89999962,756323.359,756339.526,777789.171,777792.80000114,2023-03-29T15:40:53Z,777805.47,NULL,Polizist,msongora,s,simanzi,mandhari,nidhamu,NA,sdfdsf,NA,1,NA,NA,NA,NA,NA,NA,NA,NA,NA,NA,NA,NA,NA,NA,NA,NA,NA,NA,NA
40265,task,flow.Sequence,3_0_1_0_7,NA,NA,completion,21449.645,756325.39999962,756323.359,756339.526,777789.171,777792.89999962,2023-03-29T15:40:53Z,777805.47,NULL,Polizist,msongora,s,simanzi,mandhari,nidhamu,NA,sdfdsf,NA,1,NA,NA,NA,NA,NA,NA,NA,NA,NA,NA,NA,NA,NA,NA,NA,NA,NA,NA,NA
40265,block,flow.Loop,3_0_1_0,NA,NA,completion,133774.21,644007,643998.776,644014.961,777789.171,777793,2023-03-29T15:40:53Z,777805.47,NULL,NA,NA,NA,NA,NA,NA,NA,sdfdsf,NA,1,NA,NA,NA,NA,NA,NA,NA,NA,NA,NA,NA,NA,NA,NA,NA,NA,NA,NA,NA
40265,weiter,canvas.Screen,3_0_1_1,sdf,keypress(Space),response,1173.730000763,777793.20000076,777789.171,777805.47,778979.20000076,778980.5,2023-03-29T15:40:54Z,779037.836,NULL,NA,NA,NA,NA,NA,NA,NA,sdfdsf,NA,1,NA,NA,NA,NA,NA,NA,NA,NA,NA,NA,NA,NA,NA,NA,NA,NA,NA,NA,NA
40265,check continue,flow.Sequence,3_0_1,NA,NA,completion,134964.23900076,644007,643998.776,644014.961,778979.20000076,778980.89999962,2023-03-29T15:40:54Z,779037.836,NULL,NA,NA,NA,NA,NA,NA,NA,sdfdsf,NA,1,NA,NA,NA,NA,NA,NA,NA,NA,NA,NA,NA,NA,NA,NA,NA,NA,NA,NA,NA
40265,deep,flow.Sequence,3_0_2_0_0_0,NA,NA,skipped,NA,779021.70000076,NA,NA,778979.20000076,779021.89999962,2023-03-29T15:40:54Z,779037.836,NULL,Inhalt,yaliyomo,s,kishawishi,hifadhi,kutembea,NA,sdf,NA,2,NA,NA,NA,NA,NA,NA,NA,NA,NA,NA,NA,NA,NA,NA,NA,NA,NA,NA,NA
40265,Shallow Question,html.Page,3_0_2_0_0_1_0,NA,NA,form submission,5608.664,779022,779021.36,779037.836,784646.5,784646.80000114,2023-03-29T15:40:59Z,784649.561,NULL,Inhalt,yaliyomo,s,kishawishi,hifadhi,kutembea,yaliyomo,NA,NA,2,NA,NA,NA,NA,NA,NA,NA,NA,NA,NA,NA,NA,NA,NA,NA,NA,NA,NA,NA
40265,"""Richtig""-Screen",canvas.Screen,3_0_2_0_0_1_1,NA,NA,timeout,4996.2980000001,784648.80000114,784632.973,784649.561,789629.579,789630.10000038,2023-03-29T15:41:04Z,789645.859,NULL,Inhalt,yaliyomo,s,kishawishi,hifadhi,kutembea,NA,sdf,1,2,NA,NA,NA,NA,NA,NA,NA,NA,NA,NA,NA,NA,NA,NA,NA,NA,NA,NA,NA
40265,"""Falsch""-Screen",canvas.Screen,3_0_2_0_0_1_2,NA,NA,skipped,NA,789631.80000114,NA,NA,789629.579,789632,2023-03-29T15:41:04Z,789645.859,NULL,Inhalt,yaliyomo,s,kishawishi,hifadhi,kutembea,NA,sdf,NA,2,NA,NA,NA,NA,NA,NA,NA,NA,NA,NA,NA,NA,NA,NA,NA,NA,NA,NA,NA
40265,shallow,flow.Sequence,3_0_2_0_0_1,NA,NA,completion,10591.743,779021.89999962,779021.36,779037.836,789629.579,789632.10000038,2023-03-29T15:41:04Z,789645.859,NULL,Inhalt,yaliyomo,s,kishawishi,hifadhi,kutembea,NA,sdf,NA,2,NA,NA,NA,NA,NA,NA,NA,NA,NA,NA,NA,NA,NA,NA,NA,NA,NA,NA,NA
40265,task,flow.Sequence,3_0_2_0_0,NA,NA,completion,10591.743,779021.70000076,779021.36,779037.836,789629.579,789632.20000076,2023-03-29T15:41:04Z,789645.859,NULL,Inhalt,yaliyomo,s,kishawishi,hifadhi,kutembea,NA,sdf,NA,2,NA,NA,NA,NA,NA,NA,NA,NA,NA,NA,NA,NA,NA,NA,NA,NA,NA,NA,NA
40265,Deep Question,html.Page,3_0_2_0_1_0_0,NA,NA,form submission,18462.441001144,789632.20000076,789629.579,789645.859,808108.30000114,808108.5,2023-03-29T15:41:23Z,808113.645,NULL,Toleranz,kuvumiliana,d,NA,NA,NA,mavemiliana,NA,NA,2,NA,NA,NA,NA,NA,NA,NA,NA,NA,NA,NA,NA,NA,NA,NA,NA,NA,NA,NA
40265,"""Richtig""-Screen",canvas.Screen,3_0_2_0_1_0_1,NA,NA,skipped,NA,808111.10000038,NA,NA,808108.30000114,808111.39999962,2023-03-29T15:41:23Z,808113.645,NULL,Toleranz,kuvumiliana,d,NA,NA,NA,NA,sdf,NA,2,NA,NA,NA,NA,NA,NA,NA,NA,NA,NA,NA,NA,NA,NA,NA,NA,NA,NA,NA
40265,"""Falsch""-Screen",canvas.Screen,3_0_2_0_1_0_2,NA,NA,timeout,4996.257,808112.30000114,808097.029,808113.645,813092.915,813093.30000114,2023-03-29T15:41:28Z,813109.902,NULL,Toleranz,kuvumiliana,d,NA,NA,NA,NA,sdf,0,2,NA,NA,NA,NA,NA,NA,NA,NA,NA,NA,NA,NA,NA,NA,NA,NA,NA,NA,NA
40265,deep,flow.Sequence,3_0_2_0_1_0,NA,NA,completion,23447.056,789632.20000076,789629.579,789645.859,813092.915,813093.39999962,2023-03-29T15:41:28Z,813109.902,NULL,Toleranz,kuvumiliana,d,NA,NA,NA,NA,sdf,NA,2,NA,NA,NA,NA,NA,NA,NA,NA,NA,NA,NA,NA,NA,NA,NA,NA,NA,NA,NA
40265,shallow,flow.Sequence,3_0_2_0_1_1,NA,NA,skipped,NA,813093.60000038,NA,NA,813092.915,813093.60000038,2023-03-29T15:41:28Z,813109.902,NULL,Toleranz,kuvumiliana,d,NA,NA,NA,NA,sdf,NA,2,NA,NA,NA,NA,NA,NA,NA,NA,NA,NA,NA,NA,NA,NA,NA,NA,NA,NA,NA
40265,task,flow.Sequence,3_0_2_0_1,NA,NA,completion,23447.056,789632.20000076,789629.579,789645.859,813092.915,813093.70000076,2023-03-29T15:41:28Z,813109.902,NULL,Toleranz,kuvumiliana,d,NA,NA,NA,NA,sdf,NA,2,NA,NA,NA,NA,NA,NA,NA,NA,NA,NA,NA,NA,NA,NA,NA,NA,NA,NA,NA
40265,deep,flow.Sequence,3_0_2_0_2_0,NA,NA,skipped,NA,813093.89999962,NA,NA,813092.915,813093.89999962,2023-03-29T15:41:28Z,813109.902,NULL,Polizist,msongora,s,simanzi,mandhari,nidhamu,NA,sdf,NA,2,NA,NA,NA,NA,NA,NA,NA,NA,NA,NA,NA,NA,NA,NA,NA,NA,NA,NA,NA
40265,Shallow Question,html.Page,3_0_2_0_2_1_0,NA,NA,form submission,12719.198000381,813094,813092.915,813109.902,825829.10000038,825829.30000114,2023-03-29T15:41:41Z,825832.46,NULL,Polizist,msongora,s,simanzi,mandhari,nidhamu,msongora,NA,NA,2,NA,NA,NA,NA,NA,NA,NA,NA,NA,NA,NA,NA,NA,NA,NA,NA,NA,NA,NA
40265,"""Richtig""-Screen",canvas.Screen,3_0_2_0_2_1_1,NA,NA,timeout,4995.915,825831.39999962,825816.291,825832.46,830811.728,830812,2023-03-29T15:41:46Z,830828.375,NULL,Polizist,msongora,s,simanzi,mandhari,nidhamu,NA,sdf,1,2,NA,NA,NA,NA,NA,NA,NA,NA,NA,NA,NA,NA,NA,NA,NA,NA,NA,NA,NA
40265,"""Falsch""-Screen",canvas.Screen,3_0_2_0_2_1_2,NA,NA,skipped,NA,830814,NA,NA,830811.728,830814.30000114,2023-03-29T15:41:46Z,830828.375,NULL,Polizist,msongora,s,simanzi,mandhari,nidhamu,NA,sdf,NA,2,NA,NA,NA,NA,NA,NA,NA,NA,NA,NA,NA,NA,NA,NA,NA,NA,NA,NA,NA
40265,shallow,flow.Sequence,3_0_2_0_2_1,NA,NA,completion,17701.826,813093.89999962,813092.915,813109.902,830811.728,830814.39999962,2023-03-29T15:41:46Z,830828.375,NULL,Polizist,msongora,s,simanzi,mandhari,nidhamu,NA,sdf,NA,2,NA,NA,NA,NA,NA,NA,NA,NA,NA,NA,NA,NA,NA,NA,NA,NA,NA,NA,NA
40265,task,flow.Sequence,3_0_2_0_2,NA,NA,completion,17701.826,813093.80000114,813092.915,813109.902,830811.728,830814.5,2023-03-29T15:41:46Z,830828.375,NULL,Polizist,msongora,s,simanzi,mandhari,nidhamu,NA,sdf,NA,2,NA,NA,NA,NA,NA,NA,NA,NA,NA,NA,NA,NA,NA,NA,NA,NA,NA,NA,NA
40265,Deep Question,html.Page,3_0_2_0_3_0_0,NA,NA,form submission,10761.524999619,830814.70000076,830811.728,830828.375,841589.89999962,841590.10000038,2023-03-29T15:41:56Z,841603.049,NULL,Annäherung,maegesho,d,NA,NA,NA,endongo,NA,NA,2,NA,NA,NA,NA,NA,NA,NA,NA,NA,NA,NA,NA,NA,NA,NA,NA,NA,NA,NA
40265,"""Richtig""-Screen",canvas.Screen,3_0_2_0_3_0_1,NA,NA,skipped,NA,841592.20000076,NA,NA,841589.89999962,841592.5,2023-03-29T15:41:56Z,841603.049,NULL,Annäherung,maegesho,d,NA,NA,NA,NA,sdf,NA,2,NA,NA,NA,NA,NA,NA,NA,NA,NA,NA,NA,NA,NA,NA,NA,NA,NA,NA,NA
40265,"""Falsch""-Screen",canvas.Screen,3_0_2_0_3_0_2,NA,NA,timeout,4996.412,841593.10000038,841586.319,841603.049,846582.198,846583.30000114,2023-03-29T15:42:01Z,846599.461,NULL,Annäherung,maegesho,d,NA,NA,NA,NA,sdf,0,2,NA,NA,NA,NA,NA,NA,NA,NA,NA,NA,NA,NA,NA,NA,NA,NA,NA,NA,NA
40265,deep,flow.Sequence,3_0_2_0_3_0,NA,NA,completion,15753.823,830814.70000076,830811.728,830828.375,846582.198,846583.60000038,2023-03-29T15:42:01Z,846599.461,NULL,Annäherung,maegesho,d,NA,NA,NA,NA,sdf,NA,2,NA,NA,NA,NA,NA,NA,NA,NA,NA,NA,NA,NA,NA,NA,NA,NA,NA,NA,NA
40265,shallow,flow.Sequence,3_0_2_0_3_1,NA,NA,skipped,NA,846583.70000076,NA,NA,846582.198,846583.70000076,2023-03-29T15:42:01Z,846599.461,NULL,Annäherung,maegesho,d,NA,NA,NA,NA,sdf,NA,2,NA,NA,NA,NA,NA,NA,NA,NA,NA,NA,NA,NA,NA,NA,NA,NA,NA,NA,NA
40265,task,flow.Sequence,3_0_2_0_3,NA,NA,completion,15753.823,830814.70000076,830811.728,830828.375,846582.198,846584,2023-03-29T15:42:01Z,846599.461,NULL,Annäherung,maegesho,d,NA,NA,NA,NA,sdf,NA,2,NA,NA,NA,NA,NA,NA,NA,NA,NA,NA,NA,NA,NA,NA,NA,NA,NA,NA,NA
40265,deep,flow.Sequence,3_0_2_0_4_0,NA,NA,skipped,NA,846584.10000038,NA,NA,846582.198,846584.10000038,2023-03-29T15:42:01Z,846599.461,NULL,Beweis,ushahidi,s,marudio,kizuizi,mtendaji,NA,sdf,NA,2,NA,NA,NA,NA,NA,NA,NA,NA,NA,NA,NA,NA,NA,NA,NA,NA,NA,NA,NA
40265,Shallow Question,html.Page,3_0_2_0_4_1_0,NA,NA,form submission,10115.438999619,846584.20000076,846582.198,846599.461,856714.89999962,856715.60000038,2023-03-29T15:42:11Z,856723.908,NULL,Beweis,ushahidi,s,marudio,kizuizi,mtendaji,ushahidi,NA,NA,2,NA,NA,NA,NA,NA,NA,NA,NA,NA,NA,NA,NA,NA,NA,NA,NA,NA,NA,NA
40265,"""Richtig""-Screen",canvas.Screen,3_0_2_0_4_1_1,NA,NA,timeout,4996.3829999999,856721.30000114,856707.702,856723.908,861703.146,861704.80000114,2023-03-29T15:42:16Z,861720.291,NULL,Beweis,ushahidi,s,marudio,kizuizi,mtendaji,NA,sdf,1,2,NA,NA,NA,NA,NA,NA,NA,NA,NA,NA,NA,NA,NA,NA,NA,NA,NA,NA,NA
40265,"""Falsch""-Screen",canvas.Screen,3_0_2_0_4_1_2,NA,NA,skipped,NA,861707.60000038,NA,NA,861703.146,861707.60000038,2023-03-29T15:42:16Z,861720.291,NULL,Beweis,ushahidi,s,marudio,kizuizi,mtendaji,NA,sdf,NA,2,NA,NA,NA,NA,NA,NA,NA,NA,NA,NA,NA,NA,NA,NA,NA,NA,NA,NA,NA
40265,shallow,flow.Sequence,3_0_2_0_4_1,NA,NA,completion,15103.685,846584.20000076,846582.198,846599.461,861703.146,861707.80000114,2023-03-29T15:42:16Z,861720.291,NULL,Beweis,ushahidi,s,marudio,kizuizi,mtendaji,NA,sdf,NA,2,NA,NA,NA,NA,NA,NA,NA,NA,NA,NA,NA,NA,NA,NA,NA,NA,NA,NA,NA
40265,task,flow.Sequence,3_0_2_0_4,NA,NA,completion,15103.685,846584.10000038,846582.198,846599.461,861703.146,861708,2023-03-29T15:42:16Z,861720.291,NULL,Beweis,ushahidi,s,marudio,kizuizi,mtendaji,NA,sdf,NA,2,NA,NA,NA,NA,NA,NA,NA,NA,NA,NA,NA,NA,NA,NA,NA,NA,NA,NA,NA
40265,deep,flow.Sequence,3_0_2_0_5_0,NA,NA,skipped,NA,861708.20000076,NA,NA,861703.146,861708.20000076,2023-03-29T15:42:16Z,861720.291,NULL,Vermutung,udhanifu,s,haramia,tikisho,itifaki,NA,sdf,NA,2,NA,NA,NA,NA,NA,NA,NA,NA,NA,NA,NA,NA,NA,NA,NA,NA,NA,NA,NA
40265,Shallow Question,html.Page,3_0_2_0_5_1_0,NA,NA,form submission,8858.209,861708.30000114,861703.146,861720.291,870578.5,870578.70000076,2023-03-29T15:42:25Z,870579.121,NULL,Vermutung,udhanifu,s,haramia,tikisho,itifaki,udhanifu,NA,NA,2,NA,NA,NA,NA,NA,NA,NA,NA,NA,NA,NA,NA,NA,NA,NA,NA,NA,NA,NA
40265,"""Richtig""-Screen",canvas.Screen,3_0_2_0_5_1_1,NA,NA,timeout,4995.939,870580.60000038,870562.964,870579.121,875558.657,875559.10000038,2023-03-29T15:42:30Z,875575.06,NULL,Vermutung,udhanifu,s,haramia,tikisho,itifaki,NA,sdf,1,2,NA,NA,NA,NA,NA,NA,NA,NA,NA,NA,NA,NA,NA,NA,NA,NA,NA,NA,NA
40265,"""Falsch""-Screen",canvas.Screen,3_0_2_0_5_1_2,NA,NA,skipped,NA,875561.10000038,NA,NA,875558.657,875561.20000076,2023-03-29T15:42:30Z,875575.06,NULL,Vermutung,udhanifu,s,haramia,tikisho,itifaki,NA,sdf,NA,2,NA,NA,NA,NA,NA,NA,NA,NA,NA,NA,NA,NA,NA,NA,NA,NA,NA,NA,NA
40265,shallow,flow.Sequence,3_0_2_0_5_1,NA,NA,completion,13838.366,861708.30000114,861703.146,861720.291,875558.657,875561.39999962,2023-03-29T15:42:30Z,875575.06,NULL,Vermutung,udhanifu,s,haramia,tikisho,itifaki,NA,sdf,NA,2,NA,NA,NA,NA,NA,NA,NA,NA,NA,NA,NA,NA,NA,NA,NA,NA,NA,NA,NA
40265,task,flow.Sequence,3_0_2_0_5,NA,NA,completion,13838.366,861708.10000038,861703.146,861720.291,875558.657,875561.5,2023-03-29T15:42:30Z,875575.06,NULL,Vermutung,udhanifu,s,haramia,tikisho,itifaki,NA,sdf,NA,2,NA,NA,NA,NA,NA,NA,NA,NA,NA,NA,NA,NA,NA,NA,NA,NA,NA,NA,NA
40265,Deep Question,html.Page,3_0_2_0_6_0_0,NA,NA,form submission,20915.140000763,875561.5,875558.657,875575.06,896490.20000076,896490.39999962,2023-03-29T15:42:51Z,896491.154,NULL,Sympathie,mapendano,d,NA,NA,NA,medono,NA,NA,2,NA,NA,NA,NA,NA,NA,NA,NA,NA,NA,NA,NA,NA,NA,NA,NA,NA,NA,NA
40265,"""Richtig""-Screen",canvas.Screen,3_0_2_0_6_0_1,NA,NA,skipped,NA,896492.5,NA,NA,896490.20000076,896492.60000038,2023-03-29T15:42:51Z,896491.154,NULL,Sympathie,mapendano,d,NA,NA,NA,NA,sdf,NA,2,NA,NA,NA,NA,NA,NA,NA,NA,NA,NA,NA,NA,NA,NA,NA,NA,NA,NA,NA
40265,"""Falsch""-Screen",canvas.Screen,3_0_2_0_6_0_2,NA,NA,timeout,4996.519,896493.20000076,896474.671,896491.154,901470.993,901472,2023-03-29T15:42:56Z,901487.673,NULL,Sympathie,mapendano,d,NA,NA,NA,NA,sdf,0,2,NA,NA,NA,NA,NA,NA,NA,NA,NA,NA,NA,NA,NA,NA,NA,NA,NA,NA,NA
40265,deep,flow.Sequence,3_0_2_0_6_0,NA,NA,completion,25895.933,875561.5,875558.657,875575.06,901470.993,901472.39999962,2023-03-29T15:42:56Z,901487.673,NULL,Sympathie,mapendano,d,NA,NA,NA,NA,sdf,NA,2,NA,NA,NA,NA,NA,NA,NA,NA,NA,NA,NA,NA,NA,NA,NA,NA,NA,NA,NA
40265,shallow,flow.Sequence,3_0_2_0_6_1,NA,NA,skipped,NA,901472.70000076,NA,NA,901470.993,901472.89999962,2023-03-29T15:42:56Z,901487.673,NULL,Sympathie,mapendano,d,NA,NA,NA,NA,sdf,NA,2,NA,NA,NA,NA,NA,NA,NA,NA,NA,NA,NA,NA,NA,NA,NA,NA,NA,NA,NA
40265,task,flow.Sequence,3_0_2_0_6,NA,NA,completion,25895.933,875561.5,875558.657,875575.06,901470.993,901473.10000038,2023-03-29T15:42:56Z,901487.673,NULL,Sympathie,mapendano,d,NA,NA,NA,NA,sdf,NA,2,NA,NA,NA,NA,NA,NA,NA,NA,NA,NA,NA,NA,NA,NA,NA,NA,NA,NA,NA
40265,Deep Question,html.Page,3_0_2_0_7_0_0,NA,NA,form submission,4842.527000763,901473.5,901470.993,901487.673,906330.20000076,906330.39999962,2023-03-29T15:43:01Z,906333.096,NULL,Schlange,foleni,d,NA,NA,NA,foleni,NA,NA,2,NA,NA,NA,NA,NA,NA,NA,NA,NA,NA,NA,NA,NA,NA,NA,NA,NA,NA,NA
40265,"""Richtig""-Screen",canvas.Screen,3_0_2_0_7_0_1,NA,NA,timeout,4996.003,906332.39999962,906316.465,906333.096,911312.413,911313.5,2023-03-29T15:43:06Z,911329.099,NULL,Schlange,foleni,d,NA,NA,NA,NA,sdf,1,2,NA,NA,NA,NA,NA,NA,NA,NA,NA,NA,NA,NA,NA,NA,NA,NA,NA,NA,NA
40265,"""Falsch""-Screen",canvas.Screen,3_0_2_0_7_0_2,NA,NA,skipped,NA,911321.70000076,NA,NA,911312.413,911322,2023-03-29T15:43:06Z,911329.099,NULL,Schlange,foleni,d,NA,NA,NA,NA,sdf,NA,2,NA,NA,NA,NA,NA,NA,NA,NA,NA,NA,NA,NA,NA,NA,NA,NA,NA,NA,NA
40265,deep,flow.Sequence,3_0_2_0_7_0,NA,NA,completion,9824.74,901473.39999962,901470.993,901487.673,911312.413,911322.60000038,2023-03-29T15:43:06Z,911329.099,NULL,Schlange,foleni,d,NA,NA,NA,NA,sdf,NA,2,NA,NA,NA,NA,NA,NA,NA,NA,NA,NA,NA,NA,NA,NA,NA,NA,NA,NA,NA
40265,shallow,flow.Sequence,3_0_2_0_7_1,NA,NA,skipped,NA,911322.80000114,NA,NA,911312.413,911323.10000038,2023-03-29T15:43:06Z,911329.099,NULL,Schlange,foleni,d,NA,NA,NA,NA,sdf,NA,2,NA,NA,NA,NA,NA,NA,NA,NA,NA,NA,NA,NA,NA,NA,NA,NA,NA,NA,NA
40265,task,flow.Sequence,3_0_2_0_7,NA,NA,completion,9824.74,901473.30000114,901470.993,901487.673,911312.413,911323.5,2023-03-29T15:43:06Z,911329.099,NULL,Schlange,foleni,d,NA,NA,NA,NA,sdf,NA,2,NA,NA,NA,NA,NA,NA,NA,NA,NA,NA,NA,NA,NA,NA,NA,NA,NA,NA,NA
40265,block,flow.Loop,3_0_2_0,NA,NA,completion,132274.577,779021.70000076,779021.36,779037.836,911312.413,911324,2023-03-29T15:43:06Z,911329.099,NULL,NA,NA,NA,NA,NA,NA,NA,sdf,NA,2,NA,NA,NA,NA,NA,NA,NA,NA,NA,NA,NA,NA,NA,NA,NA,NA,NA,NA,NA
40265,weiter,canvas.Screen,3_0_2_1,sdf,keypress(Space),response,1035.8009996185,911324.20000076,911312.413,911329.099,912364.89999962,912365.60000038,2023-03-29T15:43:07Z,912411.443,NULL,NA,NA,NA,NA,NA,NA,NA,sdf,NA,2,NA,NA,NA,NA,NA,NA,NA,NA,NA,NA,NA,NA,NA,NA,NA,NA,NA,NA,NA
40265,check continue,flow.Sequence,3_0_2,NA,NA,completion,133327.06399962,779021.70000076,779021.36,779037.836,912364.89999962,912365.80000114,2023-03-29T15:43:07Z,912411.443,NULL,NA,NA,NA,NA,NA,NA,NA,sdf,NA,2,NA,NA,NA,NA,NA,NA,NA,NA,NA,NA,NA,NA,NA,NA,NA,NA,NA,NA,NA
40265,deep,flow.Sequence,3_0_3_0_0_0,NA,NA,skipped,NA,912400.20000076,NA,NA,912364.89999962,912400.39999962,2023-03-29T15:43:07Z,912411.443,NULL,Inhalt,yaliyomo,s,kishawishi,hifadhi,kutembea,NA,qt,NA,3,NA,NA,NA,NA,NA,NA,NA,NA,NA,NA,NA,NA,NA,NA,NA,NA,NA,NA,NA
40265,Shallow Question,html.Page,3_0_3_0_0_1_0,NA,NA,form submission,4117.557,912400.5,912394.768,912411.443,916529,916529.30000114,2023-03-29T15:43:11Z,916541.406,NULL,Inhalt,yaliyomo,s,kishawishi,hifadhi,kutembea,yaliyomo,NA,NA,3,NA,NA,NA,NA,NA,NA,NA,NA,NA,NA,NA,NA,NA,NA,NA,NA,NA,NA,NA
40265,"""Richtig""-Screen",canvas.Screen,3_0_3_0_0_1_1,NA,NA,timeout,4996.603,916530.80000114,916524.798,916541.406,921521.328,921522,2023-03-29T15:43:16Z,921538.009,NULL,Inhalt,yaliyomo,s,kishawishi,hifadhi,kutembea,NA,qt,1,3,NA,NA,NA,NA,NA,NA,NA,NA,NA,NA,NA,NA,NA,NA,NA,NA,NA,NA,NA
40265,"""Falsch""-Screen",canvas.Screen,3_0_3_0_0_1_2,NA,NA,skipped,NA,921523.80000114,NA,NA,921521.328,921523.89999962,2023-03-29T15:43:16Z,921538.009,NULL,Inhalt,yaliyomo,s,kishawishi,hifadhi,kutembea,NA,qt,NA,3,NA,NA,NA,NA,NA,NA,NA,NA,NA,NA,NA,NA,NA,NA,NA,NA,NA,NA,NA
40265,shallow,flow.Sequence,3_0_3_0_0_1,NA,NA,completion,9109.885,912400.5,912394.768,912411.443,921521.328,921524,2023-03-29T15:43:16Z,921538.009,NULL,Inhalt,yaliyomo,s,kishawishi,hifadhi,kutembea,NA,qt,NA,3,NA,NA,NA,NA,NA,NA,NA,NA,NA,NA,NA,NA,NA,NA,NA,NA,NA,NA,NA
40265,task,flow.Sequence,3_0_3_0_0,NA,NA,completion,9109.885,912400.20000076,912394.768,912411.443,921521.328,921524.10000038,2023-03-29T15:43:16Z,921538.009,NULL,Inhalt,yaliyomo,s,kishawishi,hifadhi,kutembea,NA,qt,NA,3,NA,NA,NA,NA,NA,NA,NA,NA,NA,NA,NA,NA,NA,NA,NA,NA,NA,NA,NA
40265,deep,flow.Sequence,3_0_3_0_1_0,NA,NA,skipped,NA,921524.10000038,NA,NA,921521.328,921524.20000076,2023-03-29T15:43:16Z,921538.009,NULL,Polizist,msongora,s,simanzi,mandhari,nidhamu,NA,qt,NA,3,NA,NA,NA,NA,NA,NA,NA,NA,NA,NA,NA,NA,NA,NA,NA,NA,NA,NA,NA
40265,Shallow Question,html.Page,3_0_3_0_1_1_0,NA,NA,form submission,6175.5910003815,921524.30000114,921521.328,921538.009,927713.60000038,927713.70000076,2023-03-29T15:43:22Z,927715.561,NULL,Polizist,msongora,s,simanzi,mandhari,nidhamu,msongora,NA,NA,3,NA,NA,NA,NA,NA,NA,NA,NA,NA,NA,NA,NA,NA,NA,NA,NA,NA,NA,NA
40265,"""Richtig""-Screen",canvas.Screen,3_0_3_0_1_1_1,NA,NA,timeout,4995.976,927715.5,927698.931,927715.561,932695.056,932695.70000076,2023-03-29T15:43:27Z,932711.537,NULL,Polizist,msongora,s,simanzi,mandhari,nidhamu,NA,qt,1,3,NA,NA,NA,NA,NA,NA,NA,NA,NA,NA,NA,NA,NA,NA,NA,NA,NA,NA,NA
40265,"""Falsch""-Screen",canvas.Screen,3_0_3_0_1_1_2,NA,NA,skipped,NA,932699.20000076,NA,NA,932695.056,932699.5,2023-03-29T15:43:27Z,932711.537,NULL,Polizist,msongora,s,simanzi,mandhari,nidhamu,NA,qt,NA,3,NA,NA,NA,NA,NA,NA,NA,NA,NA,NA,NA,NA,NA,NA,NA,NA,NA,NA,NA
40265,shallow,flow.Sequence,3_0_3_0_1_1,NA,NA,completion,11157.047,921524.30000114,921521.328,921538.009,932695.056,932699.70000076,2023-03-29T15:43:27Z,932711.537,NULL,Polizist,msongora,s,simanzi,mandhari,nidhamu,NA,qt,NA,3,NA,NA,NA,NA,NA,NA,NA,NA,NA,NA,NA,NA,NA,NA,NA,NA,NA,NA,NA
40265,task,flow.Sequence,3_0_3_0_1,NA,NA,completion,11157.047,921524.10000038,921521.328,921538.009,932695.056,932700,2023-03-29T15:43:27Z,932711.537,NULL,Polizist,msongora,s,simanzi,mandhari,nidhamu,NA,qt,NA,3,NA,NA,NA,NA,NA,NA,NA,NA,NA,NA,NA,NA,NA,NA,NA,NA,NA,NA,NA
40265,Deep Question,html.Page,3_0_3_0_2_0_0,NA,NA,form submission,9007.7630011444,932700.10000038,932695.056,932711.537,941719.30000114,941719.60000038,2023-03-29T15:43:36Z,941720.729,NULL,Annäherung,maegesho,d,NA,NA,NA,maegesho,NA,NA,3,NA,NA,NA,NA,NA,NA,NA,NA,NA,NA,NA,NA,NA,NA,NA,NA,NA,NA,NA
40265,"""Richtig""-Screen",canvas.Screen,3_0_3_0_2_0_1,NA,NA,timeout,4995.9219999999,941722.10000038,941704.08,941720.729,946700.044,946700.5,2023-03-29T15:43:41Z,946716.651,NULL,Annäherung,maegesho,d,NA,NA,NA,NA,qt,1,3,NA,NA,NA,NA,NA,NA,NA,NA,NA,NA,NA,NA,NA,NA,NA,NA,NA,NA,NA
40265,"""Falsch""-Screen",canvas.Screen,3_0_3_0_2_0_2,NA,NA,skipped,NA,946702.20000076,NA,NA,946700.044,946702.30000114,2023-03-29T15:43:41Z,946716.651,NULL,Annäherung,maegesho,d,NA,NA,NA,NA,qt,NA,3,NA,NA,NA,NA,NA,NA,NA,NA,NA,NA,NA,NA,NA,NA,NA,NA,NA,NA,NA
40265,deep,flow.Sequence,3_0_3_0_2_0,NA,NA,completion,13988.507,932700.10000038,932695.056,932711.537,946700.044,946702.5,2023-03-29T15:43:41Z,946716.651,NULL,Annäherung,maegesho,d,NA,NA,NA,NA,qt,NA,3,NA,NA,NA,NA,NA,NA,NA,NA,NA,NA,NA,NA,NA,NA,NA,NA,NA,NA,NA
40265,shallow,flow.Sequence,3_0_3_0_2_1,NA,NA,skipped,NA,946702.60000038,NA,NA,946700.044,946702.60000038,2023-03-29T15:43:41Z,946716.651,NULL,Annäherung,maegesho,d,NA,NA,NA,NA,qt,NA,3,NA,NA,NA,NA,NA,NA,NA,NA,NA,NA,NA,NA,NA,NA,NA,NA,NA,NA,NA
40265,task,flow.Sequence,3_0_3_0_2,NA,NA,completion,13988.507,932700.10000038,932695.056,932711.537,946700.044,946702.70000076,2023-03-29T15:43:41Z,946716.651,NULL,Annäherung,maegesho,d,NA,NA,NA,NA,qt,NA,3,NA,NA,NA,NA,NA,NA,NA,NA,NA,NA,NA,NA,NA,NA,NA,NA,NA,NA,NA
40265,Deep Question,html.Page,3_0_3_0_3_0_0,NA,NA,form submission,14204.248999619,946703.39999962,946700.044,946716.651,960920.89999962,960921.20000076,2023-03-29T15:43:56Z,960954.169,NULL,Sympathie,mapendano,d,NA,NA,NA,maedeno,NA,NA,3,NA,NA,NA,NA,NA,NA,NA,NA,NA,NA,NA,NA,NA,NA,NA,NA,NA,NA,NA
40265,"""Richtig""-Screen",canvas.Screen,3_0_3_0_3_0_1,NA,NA,skipped,NA,960923.30000114,NA,NA,960920.89999962,960923.5,2023-03-29T15:43:56Z,960954.169,NULL,Sympathie,mapendano,d,NA,NA,NA,NA,qt,NA,3,NA,NA,NA,NA,NA,NA,NA,NA,NA,NA,NA,NA,NA,NA,NA,NA,NA,NA,NA
40265,"""Falsch""-Screen",canvas.Screen,3_0_3_0_3_0_2,NA,NA,timeout,4996.9400000001,960924.10000038,960905.614,960954.169,965934.558,965935.5,2023-03-29T15:44:01Z,965951.109,NULL,Sympathie,mapendano,d,NA,NA,NA,NA,qt,0,3,NA,NA,NA,NA,NA,NA,NA,NA,NA,NA,NA,NA,NA,NA,NA,NA,NA,NA,NA
40265,deep,flow.Sequence,3_0_3_0_3_0,NA,NA,completion,19217.907,946703.39999962,946700.044,946716.651,965934.558,965936.10000038,2023-03-29T15:44:01Z,965951.109,NULL,Sympathie,mapendano,d,NA,NA,NA,NA,qt,NA,3,NA,NA,NA,NA,NA,NA,NA,NA,NA,NA,NA,NA,NA,NA,NA,NA,NA,NA,NA
40265,shallow,flow.Sequence,3_0_3_0_3_1,NA,NA,skipped,NA,965936.20000076,NA,NA,965934.558,965936.39999962,2023-03-29T15:44:01Z,965951.109,NULL,Sympathie,mapendano,d,NA,NA,NA,NA,qt,NA,3,NA,NA,NA,NA,NA,NA,NA,NA,NA,NA,NA,NA,NA,NA,NA,NA,NA,NA,NA
40265,task,flow.Sequence,3_0_3_0_3,NA,NA,completion,19217.907,946703.30000114,946700.044,946716.651,965934.558,965936.70000076,2023-03-29T15:44:01Z,965951.109,NULL,Sympathie,mapendano,d,NA,NA,NA,NA,qt,NA,3,NA,NA,NA,NA,NA,NA,NA,NA,NA,NA,NA,NA,NA,NA,NA,NA,NA,NA,NA
40265,deep,flow.Sequence,3_0_3_0_4_0,NA,NA,skipped,NA,965936.89999962,NA,NA,965934.558,965937.10000038,2023-03-29T15:44:01Z,965951.109,NULL,Vermutung,udhanifu,s,haramia,tikisho,itifaki,NA,qt,NA,3,NA,NA,NA,NA,NA,NA,NA,NA,NA,NA,NA,NA,NA,NA,NA,NA,NA,NA,NA
40265,Shallow Question,html.Page,3_0_3_0_4_1_0,NA,NA,form submission,9356.1910011444,965937.30000114,965934.558,965951.109,975307.30000114,975307.5,2023-03-29T15:44:10Z,975309.903,NULL,Vermutung,udhanifu,s,haramia,tikisho,itifaki,udhanifu,NA,NA,3,NA,NA,NA,NA,NA,NA,NA,NA,NA,NA,NA,NA,NA,NA,NA,NA,NA,NA,NA
40265,"""Richtig""-Screen",canvas.Screen,3_0_3_0_4_1_1,NA,NA,timeout,4995.865,975309.20000076,975293.231,975309.903,980289.149,980289.5,2023-03-29T15:44:15Z,980305.768,NULL,Vermutung,udhanifu,s,haramia,tikisho,itifaki,NA,qt,1,3,NA,NA,NA,NA,NA,NA,NA,NA,NA,NA,NA,NA,NA,NA,NA,NA,NA,NA,NA
40265,"""Falsch""-Screen",canvas.Screen,3_0_3_0_4_1_2,NA,NA,skipped,NA,980291.30000114,NA,NA,980289.149,980291.39999962,2023-03-29T15:44:15Z,980305.768,NULL,Vermutung,udhanifu,s,haramia,tikisho,itifaki,NA,qt,NA,3,NA,NA,NA,NA,NA,NA,NA,NA,NA,NA,NA,NA,NA,NA,NA,NA,NA,NA,NA
40265,shallow,flow.Sequence,3_0_3_0_4_1,NA,NA,completion,14338.04,965937.20000076,965934.558,965951.109,980289.149,980291.60000038,2023-03-29T15:44:15Z,980305.768,NULL,Vermutung,udhanifu,s,haramia,tikisho,itifaki,NA,qt,NA,3,NA,NA,NA,NA,NA,NA,NA,NA,NA,NA,NA,NA,NA,NA,NA,NA,NA,NA,NA
40265,task,flow.Sequence,3_0_3_0_4,NA,NA,completion,14338.04,965936.80000114,965934.558,965951.109,980289.149,980291.70000076,2023-03-29T15:44:15Z,980305.768,NULL,Vermutung,udhanifu,s,haramia,tikisho,itifaki,NA,qt,NA,3,NA,NA,NA,NA,NA,NA,NA,NA,NA,NA,NA,NA,NA,NA,NA,NA,NA,NA,NA
40265,Deep Question,html.Page,3_0_3_0_5_0_0,NA,NA,form submission,5818.232,980291.70000076,980289.149,980305.768,986124,986124.60000038,2023-03-29T15:44:21Z,986134.834,NULL,Schlange,foleni,d,NA,NA,NA,foleni,NA,NA,3,NA,NA,NA,NA,NA,NA,NA,NA,NA,NA,NA,NA,NA,NA,NA,NA,NA,NA,NA
40265,"""Richtig""-Screen",canvas.Screen,3_0_3_0_5_0_1,NA,NA,timeout,4995.703,986129.70000076,986118.284,986134.834,991113.823,991115.89999962,2023-03-29T15:44:26Z,991130.537,NULL,Schlange,foleni,d,NA,NA,NA,NA,qt,1,3,NA,NA,NA,NA,NA,NA,NA,NA,NA,NA,NA,NA,NA,NA,NA,NA,NA,NA,NA
40265,"""Falsch""-Screen",canvas.Screen,3_0_3_0_5_0_2,NA,NA,skipped,NA,991119.60000038,NA,NA,991113.823,991119.89999962,2023-03-29T15:44:26Z,991130.537,NULL,Schlange,foleni,d,NA,NA,NA,NA,qt,NA,3,NA,NA,NA,NA,NA,NA,NA,NA,NA,NA,NA,NA,NA,NA,NA,NA,NA,NA,NA
40265,deep,flow.Sequence,3_0_3_0_5_0,NA,NA,completion,10808.055,980291.70000076,980289.149,980305.768,991113.823,991120.20000076,2023-03-29T15:44:26Z,991130.537,NULL,Schlange,foleni,d,NA,NA,NA,NA,qt,NA,3,NA,NA,NA,NA,NA,NA,NA,NA,NA,NA,NA,NA,NA,NA,NA,NA,NA,NA,NA
40265,shallow,flow.Sequence,3_0_3_0_5_1,NA,NA,skipped,NA,991120.20000076,NA,NA,991113.823,991120.30000114,2023-03-29T15:44:26Z,991130.537,NULL,Schlange,foleni,d,NA,NA,NA,NA,qt,NA,3,NA,NA,NA,NA,NA,NA,NA,NA,NA,NA,NA,NA,NA,NA,NA,NA,NA,NA,NA
40265,task,flow.Sequence,3_0_3_0_5,NA,NA,completion,10808.055,980291.70000076,980289.149,980305.768,991113.823,991120.60000038,2023-03-29T15:44:26Z,991130.537,NULL,Schlange,foleni,d,NA,NA,NA,NA,qt,NA,3,NA,NA,NA,NA,NA,NA,NA,NA,NA,NA,NA,NA,NA,NA,NA,NA,NA,NA,NA
40265,Deep Question,html.Page,3_0_3_0_6_0_0,NA,NA,form submission,25421.362999619,991120.70000076,991113.823,991130.537,1016551.8999996,1016552.1000004,2023-03-29T15:44:51Z,1016559.349,NULL,Toleranz,kuvumiliana,d,NA,NA,NA,mo,NA,NA,3,NA,NA,NA,NA,NA,NA,NA,NA,NA,NA,NA,NA,NA,NA,NA,NA,NA,NA,NA
40265,"""Richtig""-Screen",canvas.Screen,3_0_3_0_6_0_1,NA,NA,skipped,NA,1016554.6000004,NA,NA,1016551.8999996,1016554.8000011,2023-03-29T15:44:51Z,1016559.349,NULL,Toleranz,kuvumiliana,d,NA,NA,NA,NA,qt,NA,3,NA,NA,NA,NA,NA,NA,NA,NA,NA,NA,NA,NA,NA,NA,NA,NA,NA,NA,NA
40265,"""Falsch""-Screen",canvas.Screen,3_0_3_0_6_0_2,NA,NA,timeout,4996.259,1016555.8000011,1016542.733,1016559.349,1021539.265,1021539.8000011,2023-03-29T15:44:56Z,1021555.608,NULL,Toleranz,kuvumiliana,d,NA,NA,NA,NA,qt,0,3,NA,NA,NA,NA,NA,NA,NA,NA,NA,NA,NA,NA,NA,NA,NA,NA,NA,NA,NA
40265,deep,flow.Sequence,3_0_3_0_6_0,NA,NA,completion,30408.728,991120.70000076,991113.823,991130.537,1021539.265,1021540,2023-03-29T15:44:56Z,1021555.608,NULL,Toleranz,kuvumiliana,d,NA,NA,NA,NA,qt,NA,3,NA,NA,NA,NA,NA,NA,NA,NA,NA,NA,NA,NA,NA,NA,NA,NA,NA,NA,NA
40265,shallow,flow.Sequence,3_0_3_0_6_1,NA,NA,skipped,NA,1021540.2000008,NA,NA,1021539.265,1021540.2000008,2023-03-29T15:44:56Z,1021555.608,NULL,Toleranz,kuvumiliana,d,NA,NA,NA,NA,qt,NA,3,NA,NA,NA,NA,NA,NA,NA,NA,NA,NA,NA,NA,NA,NA,NA,NA,NA,NA,NA
40265,task,flow.Sequence,3_0_3_0_6,NA,NA,completion,30408.728,991120.60000038,991113.823,991130.537,1021539.265,1021540.3000011,2023-03-29T15:44:56Z,1021555.608,NULL,Toleranz,kuvumiliana,d,NA,NA,NA,NA,qt,NA,3,NA,NA,NA,NA,NA,NA,NA,NA,NA,NA,NA,NA,NA,NA,NA,NA,NA,NA,NA
40265,deep,flow.Sequence,3_0_3_0_7_0,NA,NA,skipped,NA,1021540.3999996,NA,NA,1021539.265,1021540.5,2023-03-29T15:44:56Z,1021555.608,NULL,Beweis,ushahidi,s,marudio,kizuizi,mtendaji,NA,qt,NA,3,NA,NA,NA,NA,NA,NA,NA,NA,NA,NA,NA,NA,NA,NA,NA,NA,NA,NA,NA
40265,Shallow Question,html.Page,3_0_3_0_7_1_0,NA,NA,form submission,8115.892,1021540.5,1021539.265,1021555.608,1029671.5,1029671.8999996,2023-03-29T15:45:04Z,1029682.016,NULL,Beweis,ushahidi,s,marudio,kizuizi,mtendaji,ushahidi,NA,NA,3,NA,NA,NA,NA,NA,NA,NA,NA,NA,NA,NA,NA,NA,NA,NA,NA,NA,NA,NA
40265,"""Richtig""-Screen",canvas.Screen,3_0_3_0_7_1_1,NA,NA,timeout,4995.8820000001,1029677.8999996,1029665.694,1029682.016,1034661.629,1034662.8000011,2023-03-29T15:45:09Z,1034677.898,NULL,Beweis,ushahidi,s,marudio,kizuizi,mtendaji,NA,qt,1,3,NA,NA,NA,NA,NA,NA,NA,NA,NA,NA,NA,NA,NA,NA,NA,NA,NA,NA,NA
40265,"""Falsch""-Screen",canvas.Screen,3_0_3_0_7_1_2,NA,NA,skipped,NA,1034669.1000004,NA,NA,1034661.629,1034669.5,2023-03-29T15:45:09Z,1034677.898,NULL,Beweis,ushahidi,s,marudio,kizuizi,mtendaji,NA,qt,NA,3,NA,NA,NA,NA,NA,NA,NA,NA,NA,NA,NA,NA,NA,NA,NA,NA,NA,NA,NA
40265,shallow,flow.Sequence,3_0_3_0_7_1,NA,NA,completion,13106.021,1021540.5,1021539.265,1021555.608,1034661.629,1034669.8000011,2023-03-29T15:45:09Z,1034677.898,NULL,Beweis,ushahidi,s,marudio,kizuizi,mtendaji,NA,qt,NA,3,NA,NA,NA,NA,NA,NA,NA,NA,NA,NA,NA,NA,NA,NA,NA,NA,NA,NA,NA
40265,task,flow.Sequence,3_0_3_0_7,NA,NA,completion,13106.021,1021540.3999996,1021539.265,1021555.608,1034661.629,1034670.2000008,2023-03-29T15:45:09Z,1034677.898,NULL,Beweis,ushahidi,s,marudio,kizuizi,mtendaji,NA,qt,NA,3,NA,NA,NA,NA,NA,NA,NA,NA,NA,NA,NA,NA,NA,NA,NA,NA,NA,NA,NA
40265,block,flow.Loop,3_0_3_0,NA,NA,completion,122250.186,912399.60000038,912394.768,912411.443,1034661.629,1034670.5,2023-03-29T15:45:09Z,1034677.898,NULL,NA,NA,NA,NA,NA,NA,NA,qt,NA,3,NA,NA,NA,NA,NA,NA,NA,NA,NA,NA,NA,NA,NA,NA,NA,NA,NA,NA,NA
40265,weiter,canvas.Screen,3_0_3_1,sdf,keypress(Space),response,1252.5019996185,1034670.6000004,1034661.629,1034677.898,1035930.3999996,1035932.3000011,2023-03-29T15:45:11Z,1036626.224,NULL,NA,NA,NA,NA,NA,NA,NA,qt,NA,3,NA,NA,NA,NA,NA,NA,NA,NA,NA,NA,NA,NA,NA,NA,NA,NA,NA,NA,NA
40265,check continue,flow.Sequence,3_0_3,NA,NA,completion,123518.95699962,912399.5,912394.768,912411.443,1035930.3999996,1035932.8000011,2023-03-29T15:45:11Z,1036626.224,NULL,NA,NA,NA,NA,NA,NA,NA,qt,NA,3,NA,NA,NA,NA,NA,NA,NA,NA,NA,NA,NA,NA,NA,NA,NA,NA,NA,NA,NA
40265,check continue,flow.Sequence,3_0_4,NA,NA,skipped,NA,1035963.8999996,NA,NA,1035930.3999996,1035964,2023-03-29T15:45:11Z,1036626.224,NULL,NA,NA,NA,NA,NA,NA,NA,sd,NA,4,NA,NA,NA,NA,NA,NA,NA,NA,NA,NA,NA,NA,NA,NA,NA,NA,NA,NA,NA
40265,check continue,flow.Sequence,3_0_5,NA,NA,skipped,NA,1035986.6000004,NA,NA,1035930.3999996,1035987.2000008,2023-03-29T15:45:11Z,1036626.224,NULL,NA,NA,NA,NA,NA,NA,NA,sdf,NA,5,NA,NA,NA,NA,NA,NA,NA,NA,NA,NA,NA,NA,NA,NA,NA,NA,NA,NA,NA
40265,check continue,flow.Sequence,3_0_6,NA,NA,skipped,NA,1036008.3999996,NA,NA,1035930.3999996,1036008.5,2023-03-29T15:45:11Z,1036626.224,NULL,NA,NA,NA,NA,NA,NA,NA,dfs,NA,6,NA,NA,NA,NA,NA,NA,NA,NA,NA,NA,NA,NA,NA,NA,NA,NA,NA,NA,NA
40265,check continue,flow.Sequence,3_0_7,NA,NA,skipped,NA,1036028.5,NA,NA,1035930.3999996,1036028.7000008,2023-03-29T15:45:11Z,1036626.224,NULL,NA,NA,NA,NA,NA,NA,NA,df,NA,7,NA,NA,NA,NA,NA,NA,NA,NA,NA,NA,NA,NA,NA,NA,NA,NA,NA,NA,NA
40265,check continue,flow.Sequence,3_0_8,NA,NA,skipped,NA,1036052.2000008,NA,NA,1035930.3999996,1036052.3999996,2023-03-29T15:45:11Z,1036626.224,NULL,NA,NA,NA,NA,NA,NA,NA,dfs,NA,8,NA,NA,NA,NA,NA,NA,NA,NA,NA,NA,NA,NA,NA,NA,NA,NA,NA,NA,NA
40265,check continue,flow.Sequence,3_0_9,NA,NA,skipped,NA,1036071.2000008,NA,NA,1035930.3999996,1036071.3000011,2023-03-29T15:45:11Z,1036626.224,NULL,NA,NA,NA,NA,NA,NA,NA,dsf,NA,9,NA,NA,NA,NA,NA,NA,NA,NA,NA,NA,NA,NA,NA,NA,NA,NA,NA,NA,NA
40265,check continue,flow.Sequence,3_0_10,NA,NA,skipped,NA,1036089.2000008,NA,NA,1035930.3999996,1036089.3000011,2023-03-29T15:45:11Z,1036626.224,NULL,NA,NA,NA,NA,NA,NA,NA,df,NA,10,NA,NA,NA,NA,NA,NA,NA,NA,NA,NA,NA,NA,NA,NA,NA,NA,NA,NA,NA
40265,check continue,flow.Sequence,3_0_11,NA,NA,skipped,NA,1036107.8999996,NA,NA,1035930.3999996,1036107.8999996,2023-03-29T15:45:11Z,1036626.224,NULL,NA,NA,NA,NA,NA,NA,NA,dfs,NA,11,NA,NA,NA,NA,NA,NA,NA,NA,NA,NA,NA,NA,NA,NA,NA,NA,NA,NA,NA
40265,check continue,flow.Sequence,3_0_12,NA,NA,skipped,NA,1036130.7000008,NA,NA,1035930.3999996,1036130.8999996,2023-03-29T15:45:11Z,1036626.224,NULL,NA,NA,NA,NA,NA,NA,NA,dsf,NA,12,NA,NA,NA,NA,NA,NA,NA,NA,NA,NA,NA,NA,NA,NA,NA,NA,NA,NA,NA
40265,check continue,flow.Sequence,3_0_13,NA,NA,skipped,NA,1036151.8000011,NA,NA,1035930.3999996,1036151.8999996,2023-03-29T15:45:11Z,1036626.224,NULL,NA,NA,NA,NA,NA,NA,NA,dsf,NA,13,NA,NA,NA,NA,NA,NA,NA,NA,NA,NA,NA,NA,NA,NA,NA,NA,NA,NA,NA
40265,check continue,flow.Sequence,3_0_14,NA,NA,skipped,NA,1036169.8000011,NA,NA,1035930.3999996,1036169.8000011,2023-03-29T15:45:11Z,1036626.224,NULL,NA,NA,NA,NA,NA,NA,NA,NA,NA,14,NA,NA,NA,NA,NA,NA,NA,NA,NA,NA,NA,NA,NA,NA,NA,NA,NA,NA,NA
40265,check continue,flow.Sequence,3_0_15,NA,NA,skipped,NA,1036187.3999996,NA,NA,1035930.3999996,1036187.3999996,2023-03-29T15:45:11Z,1036626.224,NULL,NA,NA,NA,NA,NA,NA,NA,NA,NA,15,NA,NA,NA,NA,NA,NA,NA,NA,NA,NA,NA,NA,NA,NA,NA,NA,NA,NA,NA
40265,check continue,flow.Sequence,3_0_16,NA,NA,skipped,NA,1036215.8999996,NA,NA,1035930.3999996,1036216.1000004,2023-03-29T15:45:11Z,1036626.224,NULL,NA,NA,NA,NA,NA,NA,NA,NA,NA,16,NA,NA,NA,NA,NA,NA,NA,NA,NA,NA,NA,NA,NA,NA,NA,NA,NA,NA,NA
40265,check continue,flow.Sequence,3_0_17,NA,NA,skipped,NA,1036243.8999996,NA,NA,1035930.3999996,1036244,2023-03-29T15:45:11Z,1036626.224,NULL,NA,NA,NA,NA,NA,NA,NA,NA,NA,17,NA,NA,NA,NA,NA,NA,NA,NA,NA,NA,NA,NA,NA,NA,NA,NA,NA,NA,NA
40265,check continue,flow.Sequence,3_0_18,NA,NA,skipped,NA,1036264.8000011,NA,NA,1035930.3999996,1036265,2023-03-29T15:45:11Z,1036626.224,NULL,NA,NA,NA,NA,NA,NA,NA,NA,NA,18,NA,NA,NA,NA,NA,NA,NA,NA,NA,NA,NA,NA,NA,NA,NA,NA,NA,NA,NA
40265,check continue,flow.Sequence,3_0_19,NA,NA,skipped,NA,1036293.5,NA,NA,1035930.3999996,1036293.6000004,2023-03-29T15:45:11Z,1036626.224,NULL,NA,NA,NA,NA,NA,NA,NA,NA,NA,19,NA,NA,NA,NA,NA,NA,NA,NA,NA,NA,NA,NA,NA,NA,NA,NA,NA,NA,NA
40265,check continue,flow.Sequence,3_0_20,NA,NA,skipped,NA,1036325.3000011,NA,NA,1035930.3999996,1036325.5,2023-03-29T15:45:11Z,1036626.224,NULL,NA,NA,NA,NA,NA,NA,NA,NA,NA,20,NA,NA,NA,NA,NA,NA,NA,NA,NA,NA,NA,NA,NA,NA,NA,NA,NA,NA,NA
40265,check continue,flow.Sequence,3_0_21,NA,NA,skipped,NA,1036356.3999996,NA,NA,1035930.3999996,1036356.6000004,2023-03-29T15:45:11Z,1036626.224,NULL,NA,NA,NA,NA,NA,NA,NA,NA,NA,21,NA,NA,NA,NA,NA,NA,NA,NA,NA,NA,NA,NA,NA,NA,NA,NA,NA,NA,NA
40265,check continue,flow.Sequence,3_0_22,NA,NA,skipped,NA,1036389.6000004,NA,NA,1035930.3999996,1036389.6000004,2023-03-29T15:45:11Z,1036626.224,NULL,NA,NA,NA,NA,NA,NA,NA,NA,NA,22,NA,NA,NA,NA,NA,NA,NA,NA,NA,NA,NA,NA,NA,NA,NA,NA,NA,NA,NA
40265,check continue,flow.Sequence,3_0_23,NA,NA,skipped,NA,1036412.6000004,NA,NA,1035930.3999996,1036412.7000008,2023-03-29T15:45:11Z,1036626.224,NULL,NA,NA,NA,NA,NA,NA,NA,NA,NA,23,NA,NA,NA,NA,NA,NA,NA,NA,NA,NA,NA,NA,NA,NA,NA,NA,NA,NA,NA
40265,check continue,flow.Sequence,3_0_24,NA,NA,skipped,NA,1036435.3999996,NA,NA,1035930.3999996,1036435.6000004,2023-03-29T15:45:11Z,1036626.224,NULL,NA,NA,NA,NA,NA,NA,NA,NA,NA,24,NA,NA,NA,NA,NA,NA,NA,NA,NA,NA,NA,NA,NA,NA,NA,NA,NA,NA,NA
40265,check continue,flow.Sequence,3_0_25,NA,NA,skipped,NA,1036459,NA,NA,1035930.3999996,1036459.2000008,2023-03-29T15:45:11Z,1036626.224,NULL,NA,NA,NA,NA,NA,NA,NA,NA,NA,25,NA,NA,NA,NA,NA,NA,NA,NA,NA,NA,NA,NA,NA,NA,NA,NA,NA,NA,NA
40265,check continue,flow.Sequence,3_0_26,NA,NA,skipped,NA,1036482.1000004,NA,NA,1035930.3999996,1036482.2000008,2023-03-29T15:45:11Z,1036626.224,NULL,NA,NA,NA,NA,NA,NA,NA,NA,NA,26,NA,NA,NA,NA,NA,NA,NA,NA,NA,NA,NA,NA,NA,NA,NA,NA,NA,NA,NA
40265,check continue,flow.Sequence,3_0_27,NA,NA,skipped,NA,1036518.3999996,NA,NA,1035930.3999996,1036518.3999996,2023-03-29T15:45:11Z,1036626.224,NULL,NA,NA,NA,NA,NA,NA,NA,NA,NA,27,NA,NA,NA,NA,NA,NA,NA,NA,NA,NA,NA,NA,NA,NA,NA,NA,NA,NA,NA
40265,check continue,flow.Sequence,3_0_28,NA,NA,skipped,NA,1036536.6000004,NA,NA,1035930.3999996,1036536.7000008,2023-03-29T15:45:11Z,1036626.224,NULL,NA,NA,NA,NA,NA,NA,NA,NA,NA,28,NA,NA,NA,NA,NA,NA,NA,NA,NA,NA,NA,NA,NA,NA,NA,NA,NA,NA,NA
40265,check continue,flow.Sequence,3_0_29,NA,NA,skipped,NA,1036554.3999996,NA,NA,1035930.3999996,1036554.6000004,2023-03-29T15:45:11Z,1036626.224,NULL,NA,NA,NA,NA,NA,NA,NA,NA,NA,29,NA,NA,NA,NA,NA,NA,NA,NA,NA,NA,NA,NA,NA,NA,NA,NA,NA,NA,NA
40265,until continue,flow.Loop,3_0,NA,NA,completion,507620.58999962,528262,528292.233,528309.81,1035930.3999996,1036554.7000008,2023-03-29T15:45:11Z,1036626.224,NULL,NA,NA,NA,NA,NA,NA,NA,NA,NA,NA,NA,NA,NA,NA,NA,NA,NA,NA,NA,NA,NA,NA,NA,NA,NA,NA,NA,NA,NA
40265,block 1,flow.Sequence,3,NA,NA,completion,507620.58999962,528262,528292.233,528309.81,1035930.3999996,1036554.8000011,2023-03-29T15:45:11Z,1036626.224,NULL,NA,NA,NA,NA,NA,NA,NA,NA,NA,NA,NA,NA,NA,NA,NA,NA,NA,NA,NA,NA,NA,NA,NA,NA,NA,NA,NA,NA,NA
40265,1.Part Over,canvas.Screen,4,NA,keypress(Space),response,NA,1036554.8000011,NA,NA,1036536.3999996,1036557.3000011,2023-03-29T15:45:11Z,1036626.224,NULL,NA,NA,NA,NA,NA,NA,NA,NA,NA,NA,NA,NA,NA,NA,NA,NA,NA,NA,NA,NA,NA,NA,NA,NA,NA,NA,NA,NA,NA
40265,Deep Question,html.Page,5_0_0_0_0_0_0,NA,NA,form submission,5275.5760011444,1036640.6000004,1035926.97,1036626.224,1041901.8000011,1041902.1000004,2023-03-29T15:45:17Z,1041905.254,NULL,Schock,mshtuko,d,NA,NA,NA,kk,NA,NA,0,NA,NA,NA,NA,NA,NA,NA,NA,NA,NA,NA,NA,NA,NA,NA,NA,NA,NA,NA
40265,"""Richtig""-Screen",canvas.Screen,5_0_0_0_0_0_1,NA,NA,skipped,NA,1041904.2000008,NA,NA,1041901.8000011,1041904.3000011,2023-03-29T15:45:17Z,1041905.254,NULL,Schock,mshtuko,d,NA,NA,NA,NA,sdf,NA,0,NA,NA,NA,NA,NA,NA,NA,NA,NA,NA,NA,NA,NA,NA,NA,NA,NA,NA,NA
40265,"""Falsch""-Screen",canvas.Screen,5_0_0_0_0_0_2,NA,NA,timeout,4995.897,1041905.3999996,1041888.572,1041905.254,1046884.501,1046884.8999996,2023-03-29T15:45:22Z,1046901.151,NULL,Schock,mshtuko,d,NA,NA,NA,NA,sdf,0,0,NA,NA,NA,NA,NA,NA,NA,NA,NA,NA,NA,NA,NA,NA,NA,NA,NA,NA,NA
40265,deep,flow.Sequence,5_0_0_0_0_0,NA,NA,completion,10258.277,1036640.6000004,1035926.97,1036626.224,1046884.501,1046885,2023-03-29T15:45:22Z,1046901.151,NULL,Schock,mshtuko,d,NA,NA,NA,NA,sdf,NA,0,NA,NA,NA,NA,NA,NA,NA,NA,NA,NA,NA,NA,NA,NA,NA,NA,NA,NA,NA
40265,shallow,flow.Sequence,5_0_0_0_0_1,NA,NA,skipped,NA,1046885.1000004,NA,NA,1046884.501,1046885.2000008,2023-03-29T15:45:22Z,1046901.151,NULL,Schock,mshtuko,d,NA,NA,NA,NA,sdf,NA,0,NA,NA,NA,NA,NA,NA,NA,NA,NA,NA,NA,NA,NA,NA,NA,NA,NA,NA,NA
40265,task,flow.Sequence,5_0_0_0_0,NA,NA,completion,10258.277,1036640.6000004,1035926.97,1036626.224,1046884.501,1046885.3999996,2023-03-29T15:45:22Z,1046901.151,NULL,Schock,mshtuko,d,NA,NA,NA,NA,sdf,NA,0,NA,NA,NA,NA,NA,NA,NA,NA,NA,NA,NA,NA,NA,NA,NA,NA,NA,NA,NA
40265,deep,flow.Sequence,5_0_0_0_1_0,NA,NA,skipped,NA,1046885.3999996,NA,NA,1046884.501,1046885.5,2023-03-29T15:45:22Z,1046901.151,NULL,Wettbewerb,ushindani,s,mapendezi,kichocheo,ubaguzi,NA,sdf,NA,0,NA,NA,NA,NA,NA,NA,NA,NA,NA,NA,NA,NA,NA,NA,NA,NA,NA,NA,NA
40265,Shallow Question,html.Page,5_0_0_0_1_1_0,NA,NA,form submission,7736.349,1046885.6000004,1046884.501,1046901.151,1054637.5,1054638,2023-03-29T15:45:29Z,1054644.86,NULL,Wettbewerb,ushindani,s,mapendezi,kichocheo,ubaguzi,mapendezi,NA,NA,0,NA,NA,NA,NA,NA,NA,NA,NA,NA,NA,NA,NA,NA,NA,NA,NA,NA,NA,NA
40265,"""Richtig""-Screen",canvas.Screen,5_0_0_0_1_1_1,NA,NA,skipped,NA,1054644.3999996,NA,NA,1054637.5,1054645.1000004,2023-03-29T15:45:29Z,1054644.86,NULL,Wettbewerb,ushindani,s,mapendezi,kichocheo,ubaguzi,NA,sdf,NA,0,NA,NA,NA,NA,NA,NA,NA,NA,NA,NA,NA,NA,NA,NA,NA,NA,NA,NA,NA
40265,"""Falsch""-Screen",canvas.Screen,5_0_0_0_1_1_2,NA,NA,timeout,4995.919,1054648.2000008,1054628.48,1054644.86,1059624.344,1059627.2000008,2023-03-29T15:45:34Z,1059640.779,NULL,Wettbewerb,ushindani,s,mapendezi,kichocheo,ubaguzi,NA,sdf,0,0,NA,NA,NA,NA,NA,NA,NA,NA,NA,NA,NA,NA,NA,NA,NA,NA,NA,NA,NA
40265,shallow,flow.Sequence,5_0_0_0_1_1,NA,NA,completion,12723.193,1046885.6000004,1046884.501,1046901.151,1059624.344,1059627.8000011,2023-03-29T15:45:34Z,1059640.779,NULL,Wettbewerb,ushindani,s,mapendezi,kichocheo,ubaguzi,NA,sdf,NA,0,NA,NA,NA,NA,NA,NA,NA,NA,NA,NA,NA,NA,NA,NA,NA,NA,NA,NA,NA
40265,task,flow.Sequence,5_0_0_0_1,NA,NA,completion,12723.193,1046885.3999996,1046884.501,1046901.151,1059624.344,1059628.1000004,2023-03-29T15:45:34Z,1059640.779,NULL,Wettbewerb,ushindani,s,mapendezi,kichocheo,ubaguzi,NA,sdf,NA,0,NA,NA,NA,NA,NA,NA,NA,NA,NA,NA,NA,NA,NA,NA,NA,NA,NA,NA,NA
40265,deep,flow.Sequence,5_0_0_0_2_0,NA,NA,skipped,NA,1059628.3999996,NA,NA,1059624.344,1059628.6000004,2023-03-29T15:45:34Z,1059640.779,NULL,Hoffnung,matarajio,s,kutaalamika,uratibu,mvumbuzi,NA,sdf,NA,0,NA,NA,NA,NA,NA,NA,NA,NA,NA,NA,NA,NA,NA,NA,NA,NA,NA,NA,NA
40265,Shallow Question,html.Page,5_0_0_0_2_1_0,NA,NA,form submission,7994.7209999999,1059628.8000011,1059624.344,1059640.779,1067635.5,1067636.2000008,2023-03-29T15:45:42Z,1067650.916,NULL,Hoffnung,matarajio,s,kutaalamika,uratibu,mvumbuzi,uratibu,NA,NA,0,NA,NA,NA,NA,NA,NA,NA,NA,NA,NA,NA,NA,NA,NA,NA,NA,NA,NA,NA
40265,"""Richtig""-Screen",canvas.Screen,5_0_0_0_2_1_1,NA,NA,skipped,NA,1067642.6000004,NA,NA,1067635.5,1067643,2023-03-29T15:45:42Z,1067650.916,NULL,Hoffnung,matarajio,s,kutaalamika,uratibu,mvumbuzi,NA,sdf,NA,0,NA,NA,NA,NA,NA,NA,NA,NA,NA,NA,NA,NA,NA,NA,NA,NA,NA,NA,NA
40265,"""Falsch""-Screen",canvas.Screen,5_0_0_0_2_1_2,NA,NA,timeout,4996.378,1067645.5,1067618.088,1067650.916,1072630.6,1072631.7000008,2023-03-29T15:45:47Z,1072647.294,NULL,Hoffnung,matarajio,s,kutaalamika,uratibu,mvumbuzi,NA,sdf,0,0,NA,NA,NA,NA,NA,NA,NA,NA,NA,NA,NA,NA,NA,NA,NA,NA,NA,NA,NA
40265,shallow,flow.Sequence,5_0_0_0_2_1,NA,NA,completion,12989.821,1059628.7000008,1059624.344,1059640.779,1072630.6,1072632.1000004,2023-03-29T15:45:47Z,1072647.294,NULL,Hoffnung,matarajio,s,kutaalamika,uratibu,mvumbuzi,NA,sdf,NA,0,NA,NA,NA,NA,NA,NA,NA,NA,NA,NA,NA,NA,NA,NA,NA,NA,NA,NA,NA
40265,task,flow.Sequence,5_0_0_0_2,NA,NA,completion,12989.821,1059628.3000011,1059624.344,1059640.779,1072630.6,1072632.3000011,2023-03-29T15:45:47Z,1072647.294,NULL,Hoffnung,matarajio,s,kutaalamika,uratibu,mvumbuzi,NA,sdf,NA,0,NA,NA,NA,NA,NA,NA,NA,NA,NA,NA,NA,NA,NA,NA,NA,NA,NA,NA,NA
40265,Deep Question,html.Page,5_0_0_0_3_0_0,NA,NA,form submission,4622.8060003815,1072632.7000008,1072630.6,1072647.294,1077270.1000004,1077270.3999996,2023-03-29T15:45:52Z,1077276.22,NULL,Theorie,nadharia,d,NA,NA,NA,gg,NA,NA,0,NA,NA,NA,NA,NA,NA,NA,NA,NA,NA,NA,NA,NA,NA,NA,NA,NA,NA,NA
40265,"""Richtig""-Screen",canvas.Screen,5_0_0_0_3_0_1,NA,NA,skipped,NA,1077272.6000004,NA,NA,1077270.1000004,1077272.7000008,2023-03-29T15:45:52Z,1077276.22,NULL,Theorie,nadharia,d,NA,NA,NA,NA,sdf,NA,0,NA,NA,NA,NA,NA,NA,NA,NA,NA,NA,NA,NA,NA,NA,NA,NA,NA,NA,NA
40265,"""Falsch""-Screen",canvas.Screen,5_0_0_0_3_0_2,NA,NA,timeout,4996.618,1077273.3999996,1077259.677,1077276.22,1082255.894,1082257.1000004,2023-03-29T15:45:57Z,1082272.838,NULL,Theorie,nadharia,d,NA,NA,NA,NA,sdf,0,0,NA,NA,NA,NA,NA,NA,NA,NA,NA,NA,NA,NA,NA,NA,NA,NA,NA,NA,NA
40265,deep,flow.Sequence,5_0_0_0_3_0,NA,NA,completion,9608.6000000001,1072632.7000008,1072630.6,1072647.294,1082255.894,1082257.7000008,2023-03-29T15:45:57Z,1082272.838,NULL,Theorie,nadharia,d,NA,NA,NA,NA,sdf,NA,0,NA,NA,NA,NA,NA,NA,NA,NA,NA,NA,NA,NA,NA,NA,NA,NA,NA,NA,NA
40265,shallow,flow.Sequence,5_0_0_0_3_1,NA,NA,skipped,NA,1082257.8999996,NA,NA,1082255.894,1082258,2023-03-29T15:45:57Z,1082272.838,NULL,Theorie,nadharia,d,NA,NA,NA,NA,sdf,NA,0,NA,NA,NA,NA,NA,NA,NA,NA,NA,NA,NA,NA,NA,NA,NA,NA,NA,NA,NA
40265,task,flow.Sequence,5_0_0_0_3,NA,NA,completion,9608.6000000001,1072632.6000004,1072630.6,1072647.294,1082255.894,1082258.3000011,2023-03-29T15:45:57Z,1082272.838,NULL,Theorie,nadharia,d,NA,NA,NA,NA,sdf,NA,0,NA,NA,NA,NA,NA,NA,NA,NA,NA,NA,NA,NA,NA,NA,NA,NA,NA,NA,NA
40265,Deep Question,html.Page,5_0_0_0_4_0_0,NA,NA,form submission,8559.862000763,1082258.7000008,1082255.894,1082272.838,1090832.7000008,1090833.1000004,2023-03-29T15:46:06Z,1090849.02,NULL,Zufall,kikuti,d,NA,NA,NA,zuzu,NA,NA,0,NA,NA,NA,NA,NA,NA,NA,NA,NA,NA,NA,NA,NA,NA,NA,NA,NA,NA,NA
40265,"""Richtig""-Screen",canvas.Screen,5_0_0_0_4_0_1,NA,NA,skipped,NA,1090835.3999996,NA,NA,1090832.7000008,1090835.5,2023-03-29T15:46:06Z,1090849.02,NULL,Zufall,kikuti,d,NA,NA,NA,NA,sdf,NA,0,NA,NA,NA,NA,NA,NA,NA,NA,NA,NA,NA,NA,NA,NA,NA,NA,NA,NA,NA
40265,"""Falsch""-Screen",canvas.Screen,5_0_0_0_4_0_2,NA,NA,timeout,4995.48,1090836.3000011,1090832.392,1090849.02,1095828.281,1095829.3000011,2023-03-29T15:46:11Z,1095844.5,NULL,Zufall,kikuti,d,NA,NA,NA,NA,sdf,0,0,NA,NA,NA,NA,NA,NA,NA,NA,NA,NA,NA,NA,NA,NA,NA,NA,NA,NA,NA
40265,deep,flow.Sequence,5_0_0_0_4_0,NA,NA,completion,13555.443,1082258.7000008,1082255.894,1082272.838,1095828.281,1095829.8000011,2023-03-29T15:46:11Z,1095844.5,NULL,Zufall,kikuti,d,NA,NA,NA,NA,sdf,NA,0,NA,NA,NA,NA,NA,NA,NA,NA,NA,NA,NA,NA,NA,NA,NA,NA,NA,NA,NA
40265,shallow,flow.Sequence,5_0_0_0_4_1,NA,NA,skipped,NA,1095830,NA,NA,1095828.281,1095830.1000004,2023-03-29T15:46:11Z,1095844.5,NULL,Zufall,kikuti,d,NA,NA,NA,NA,sdf,NA,0,NA,NA,NA,NA,NA,NA,NA,NA,NA,NA,NA,NA,NA,NA,NA,NA,NA,NA,NA
40265,task,flow.Sequence,5_0_0_0_4,NA,NA,completion,13555.443,1082258.6000004,1082255.894,1082272.838,1095828.281,1095830.5,2023-03-29T15:46:11Z,1095844.5,NULL,Zufall,kikuti,d,NA,NA,NA,NA,sdf,NA,0,NA,NA,NA,NA,NA,NA,NA,NA,NA,NA,NA,NA,NA,NA,NA,NA,NA,NA,NA
40265,Deep Question,html.Page,5_0_0_0_5_0_0,NA,NA,form submission,4430,1095830.8000011,1095828.281,1095844.5,1100274.5,1100274.8000011,2023-03-29T15:46:15Z,1100291.298,NULL,Schönheit,kirembo,d,NA,NA,NA,olo,NA,NA,0,NA,NA,NA,NA,NA,NA,NA,NA,NA,NA,NA,NA,NA,NA,NA,NA,NA,NA,NA
40265,"""Richtig""-Screen",canvas.Screen,5_0_0_0_5_0_1,NA,NA,skipped,NA,1100277.2000008,NA,NA,1100274.5,1100277.3000011,2023-03-29T15:46:15Z,1100291.298,NULL,Schönheit,kirembo,d,NA,NA,NA,NA,sdf,NA,0,NA,NA,NA,NA,NA,NA,NA,NA,NA,NA,NA,NA,NA,NA,NA,NA,NA,NA,NA
40265,"""Falsch""-Screen",canvas.Screen,5_0_0_0_5_0_2,NA,NA,timeout,4995.7950000002,1100278.2000008,1100257.954,1100291.298,1105270.04,1105270.8999996,2023-03-29T15:46:20Z,1105287.093,NULL,Schönheit,kirembo,d,NA,NA,NA,NA,sdf,0,0,NA,NA,NA,NA,NA,NA,NA,NA,NA,NA,NA,NA,NA,NA,NA,NA,NA,NA,NA
40265,deep,flow.Sequence,5_0_0_0_5_0,NA,NA,completion,9425.54,1095830.7000008,1095828.281,1095844.5,1105270.04,1105271.3000011,2023-03-29T15:46:20Z,1105287.093,NULL,Schönheit,kirembo,d,NA,NA,NA,NA,sdf,NA,0,NA,NA,NA,NA,NA,NA,NA,NA,NA,NA,NA,NA,NA,NA,NA,NA,NA,NA,NA
40265,shallow,flow.Sequence,5_0_0_0_5_1,NA,NA,skipped,NA,1105271.5,NA,NA,1105270.04,1105271.7000008,2023-03-29T15:46:20Z,1105287.093,NULL,Schönheit,kirembo,d,NA,NA,NA,NA,sdf,NA,0,NA,NA,NA,NA,NA,NA,NA,NA,NA,NA,NA,NA,NA,NA,NA,NA,NA,NA,NA
40265,task,flow.Sequence,5_0_0_0_5,NA,NA,completion,9425.54,1095830.6000004,1095828.281,1095844.5,1105270.04,1105271.8999996,2023-03-29T15:46:20Z,1105287.093,NULL,Schönheit,kirembo,d,NA,NA,NA,NA,sdf,NA,0,NA,NA,NA,NA,NA,NA,NA,NA,NA,NA,NA,NA,NA,NA,NA,NA,NA,NA,NA
40265,deep,flow.Sequence,5_0_0_0_6_0,NA,NA,skipped,NA,1105272.1000004,NA,NA,1105270.04,1105272.2000008,2023-03-29T15:46:20Z,1105287.093,NULL,Auftrag,uagizaji,s,ghanima,kuzingatia,msukani,NA,sdf,NA,0,NA,NA,NA,NA,NA,NA,NA,NA,NA,NA,NA,NA,NA,NA,NA,NA,NA,NA,NA
40265,Shallow Question,html.Page,5_0_0_0_6_1_0,NA,NA,form submission,4752.0070003814,1105272.3999996,1105270.04,1105287.093,1110039.1000004,1110039.2000008,2023-03-29T15:46:25Z,1110049.548,NULL,Auftrag,uagizaji,s,ghanima,kuzingatia,msukani,ghanima,NA,NA,0,NA,NA,NA,NA,NA,NA,NA,NA,NA,NA,NA,NA,NA,NA,NA,NA,NA,NA,NA
40265,"""Richtig""-Screen",canvas.Screen,5_0_0_0_6_1_1,NA,NA,skipped,NA,1110041.5,NA,NA,1110039.1000004,1110041.5,2023-03-29T15:46:25Z,1110049.548,NULL,Auftrag,uagizaji,s,ghanima,kuzingatia,msukani,NA,sdf,NA,0,NA,NA,NA,NA,NA,NA,NA,NA,NA,NA,NA,NA,NA,NA,NA,NA,NA,NA,NA
40265,"""Falsch""-Screen",canvas.Screen,5_0_0_0_6_1_2,NA,NA,timeout,4996,1110042.3999996,1110033.343,1110049.548,1115029.175,1115030.2000008,2023-03-29T15:46:30Z,1115045.548,NULL,Auftrag,uagizaji,s,ghanima,kuzingatia,msukani,NA,sdf,0,0,NA,NA,NA,NA,NA,NA,NA,NA,NA,NA,NA,NA,NA,NA,NA,NA,NA,NA,NA
40265,shallow,flow.Sequence,5_0_0_0_6_1,NA,NA,completion,9742.0819999999,1105272.3999996,1105270.04,1105287.093,1115029.175,1115030.8000011,2023-03-29T15:46:30Z,1115045.548,NULL,Auftrag,uagizaji,s,ghanima,kuzingatia,msukani,NA,sdf,NA,0,NA,NA,NA,NA,NA,NA,NA,NA,NA,NA,NA,NA,NA,NA,NA,NA,NA,NA,NA
40265,task,flow.Sequence,5_0_0_0_6,NA,NA,completion,9742.0819999999,1105271.8999996,1105270.04,1105287.093,1115029.175,1115031,2023-03-29T15:46:30Z,1115045.548,NULL,Auftrag,uagizaji,s,ghanima,kuzingatia,msukani,NA,sdf,NA,0,NA,NA,NA,NA,NA,NA,NA,NA,NA,NA,NA,NA,NA,NA,NA,NA,NA,NA,NA
40265,deep,flow.Sequence,5_0_0_0_7_0,NA,NA,skipped,NA,1115031.3000011,NA,NA,1115029.175,1115031.3999996,2023-03-29T15:46:30Z,1115045.548,NULL,Verpackung,ufungaji,s,uhusiano,upimaji,uchunguzi,NA,sdf,NA,0,NA,NA,NA,NA,NA,NA,NA,NA,NA,NA,NA,NA,NA,NA,NA,NA,NA,NA,NA
40265,Shallow Question,html.Page,5_0_0_0_7_1_0,NA,NA,form submission,6178.0520003815,1115031.7000008,1115029.175,1115045.548,1121223.6000004,1121223.8000011,2023-03-29T15:46:36Z,1121241.152,NULL,Verpackung,ufungaji,s,uhusiano,upimaji,uchunguzi,upimaji,NA,NA,0,NA,NA,NA,NA,NA,NA,NA,NA,NA,NA,NA,NA,NA,NA,NA,NA,NA,NA,NA
40265,"""Richtig""-Screen",canvas.Screen,5_0_0_0_7_1_1,NA,NA,skipped,NA,1121225.8000011,NA,NA,1121223.6000004,1121226,2023-03-29T15:46:36Z,1121241.152,NULL,Verpackung,ufungaji,s,uhusiano,upimaji,uchunguzi,NA,sdf,NA,0,NA,NA,NA,NA,NA,NA,NA,NA,NA,NA,NA,NA,NA,NA,NA,NA,NA,NA,NA
40265,"""Falsch""-Screen",canvas.Screen,5_0_0_0_7_1_2,NA,NA,timeout,4995.3640000001,1121226.7000008,1121206.818,1121241.152,1126219.587,1126220.3000011,2023-03-29T15:46:41Z,1126236.516,NULL,Verpackung,ufungaji,s,uhusiano,upimaji,uchunguzi,NA,sdf,0,0,NA,NA,NA,NA,NA,NA,NA,NA,NA,NA,NA,NA,NA,NA,NA,NA,NA,NA,NA
40265,shallow,flow.Sequence,5_0_0_0_7_1,NA,NA,completion,11174.039,1115031.6000004,1115029.175,1115045.548,1126219.587,1126220.5,2023-03-29T15:46:41Z,1126236.516,NULL,Verpackung,ufungaji,s,uhusiano,upimaji,uchunguzi,NA,sdf,NA,0,NA,NA,NA,NA,NA,NA,NA,NA,NA,NA,NA,NA,NA,NA,NA,NA,NA,NA,NA
40265,task,flow.Sequence,5_0_0_0_7,NA,NA,completion,11174.039,1115031.2000008,1115029.175,1115045.548,1126219.587,1126220.5,2023-03-29T15:46:41Z,1126236.516,NULL,Verpackung,ufungaji,s,uhusiano,upimaji,uchunguzi,NA,sdf,NA,0,NA,NA,NA,NA,NA,NA,NA,NA,NA,NA,NA,NA,NA,NA,NA,NA,NA,NA,NA
40265,block,flow.Loop,5_0_0_0,NA,NA,completion,89593.363,1036640.6000004,1035926.97,1036626.224,1126219.587,1126220.6000004,2023-03-29T15:46:41Z,1126236.516,NULL,NA,NA,NA,NA,NA,NA,NA,sdf,NA,0,NA,NA,NA,NA,NA,NA,NA,NA,NA,NA,NA,NA,NA,NA,NA,NA,NA,NA,NA
40265,weiter,canvas.Screen,5_0_0_1,sdf,keypress(Space),response,2584.6840007629,1126220.6000004,1126219.587,1126236.516,1128821.2000008,1128822.7000008,2023-03-29T15:46:44Z,1128881.101,NULL,NA,NA,NA,NA,NA,NA,NA,sdf,NA,0,NA,NA,NA,NA,NA,NA,NA,NA,NA,NA,NA,NA,NA,NA,NA,NA,NA,NA,NA
40265,check continue,flow.Sequence,5_0_0,NA,NA,completion,92194.976000763,1036640.5,1035926.97,1036626.224,1128821.2000008,1128822.8999996,2023-03-29T15:46:44Z,1128881.101,NULL,NA,NA,NA,NA,NA,NA,NA,sdf,NA,0,NA,NA,NA,NA,NA,NA,NA,NA,NA,NA,NA,NA,NA,NA,NA,NA,NA,NA,NA
40265,Deep Question,html.Page,5_0_1_0_0_0_0,NA,NA,form submission,9233.4990003814,1128849.8000011,1128834.388,1128881.101,1138114.6000004,1138114.8000011,2023-03-29T15:46:53Z,1138126.337,NULL,Zufall,kikuti,d,NA,NA,NA,kikosi,NA,NA,1,NA,NA,NA,NA,NA,NA,NA,NA,NA,NA,NA,NA,NA,NA,NA,NA,NA,NA,NA
40265,"""Richtig""-Screen",canvas.Screen,5_0_1_0_0_0_1,NA,NA,skipped,NA,1138117.8000011,NA,NA,1138114.6000004,1138117.8999996,2023-03-29T15:46:53Z,1138126.337,NULL,Zufall,kikuti,d,NA,NA,NA,NA,sdfdsf,NA,1,NA,NA,NA,NA,NA,NA,NA,NA,NA,NA,NA,NA,NA,NA,NA,NA,NA,NA,NA
40265,"""Falsch""-Screen",canvas.Screen,5_0_1_0_0_0_2,NA,NA,timeout,4996.45,1138119.1000004,1138110.279,1138126.337,1143105.992,1143106.7000008,2023-03-29T15:46:58Z,1143122.787,NULL,Zufall,kikuti,d,NA,NA,NA,NA,sdfdsf,0,1,NA,NA,NA,NA,NA,NA,NA,NA,NA,NA,NA,NA,NA,NA,NA,NA,NA,NA,NA
40265,deep,flow.Sequence,5_0_1_0_0_0,NA,NA,completion,14224.891,1128849.8000011,1128834.388,1128881.101,1143105.992,1143106.8999996,2023-03-29T15:46:58Z,1143122.787,NULL,Zufall,kikuti,d,NA,NA,NA,NA,sdfdsf,NA,1,NA,NA,NA,NA,NA,NA,NA,NA,NA,NA,NA,NA,NA,NA,NA,NA,NA,NA,NA
40265,shallow,flow.Sequence,5_0_1_0_0_1,NA,NA,skipped,NA,1143107,NA,NA,1143105.992,1143107.1000004,2023-03-29T15:46:58Z,1143122.787,NULL,Zufall,kikuti,d,NA,NA,NA,NA,sdfdsf,NA,1,NA,NA,NA,NA,NA,NA,NA,NA,NA,NA,NA,NA,NA,NA,NA,NA,NA,NA,NA
40265,task,flow.Sequence,5_0_1_0_0,NA,NA,completion,14224.891,1128849.7000008,1128834.388,1128881.101,1143105.992,1143107.3000011,2023-03-29T15:46:58Z,1143122.787,NULL,Zufall,kikuti,d,NA,NA,NA,NA,sdfdsf,NA,1,NA,NA,NA,NA,NA,NA,NA,NA,NA,NA,NA,NA,NA,NA,NA,NA,NA,NA,NA
40265,deep,flow.Sequence,5_0_1_0_1_0,NA,NA,skipped,NA,1143107.3999996,NA,NA,1143105.992,1143107.5,2023-03-29T15:46:58Z,1143122.787,NULL,Wettbewerb,ushindani,s,mapendezi,kichocheo,ubaguzi,NA,sdfdsf,NA,1,NA,NA,NA,NA,NA,NA,NA,NA,NA,NA,NA,NA,NA,NA,NA,NA,NA,NA,NA
40265,Shallow Question,html.Page,5_0_1_0_1_1_0,NA,NA,form submission,12918.612999619,1143107.6000004,1143105.992,1143122.787,1156041.3999996,1156041.6000004,2023-03-29T15:47:11Z,1156044.965,NULL,Wettbewerb,ushindani,s,mapendezi,kichocheo,ubaguzi,ushindani,NA,NA,1,NA,NA,NA,NA,NA,NA,NA,NA,NA,NA,NA,NA,NA,NA,NA,NA,NA,NA,NA
40265,"""Richtig""-Screen",canvas.Screen,5_0_1_0_1_1_1,NA,NA,timeout,4995.993,1156043.7000008,1156028.733,1156044.965,1161024.525,1161027.3999996,2023-03-29T15:47:16Z,1161040.958,NULL,Wettbewerb,ushindani,s,mapendezi,kichocheo,ubaguzi,NA,sdfdsf,1,1,NA,NA,NA,NA,NA,NA,NA,NA,NA,NA,NA,NA,NA,NA,NA,NA,NA,NA,NA
40265,"""Falsch""-Screen",canvas.Screen,5_0_1_0_1_1_2,NA,NA,skipped,NA,1161034,NA,NA,1161024.525,1161034.3999996,2023-03-29T15:47:16Z,1161040.958,NULL,Wettbewerb,ushindani,s,mapendezi,kichocheo,ubaguzi,NA,sdfdsf,NA,1,NA,NA,NA,NA,NA,NA,NA,NA,NA,NA,NA,NA,NA,NA,NA,NA,NA,NA,NA
40265,shallow,flow.Sequence,5_0_1_0_1_1,NA,NA,completion,17901.738,1143107.6000004,1143105.992,1143122.787,1161024.525,1161034.8000011,2023-03-29T15:47:16Z,1161040.958,NULL,Wettbewerb,ushindani,s,mapendezi,kichocheo,ubaguzi,NA,sdfdsf,NA,1,NA,NA,NA,NA,NA,NA,NA,NA,NA,NA,NA,NA,NA,NA,NA,NA,NA,NA,NA
40265,task,flow.Sequence,5_0_1_0_1,NA,NA,completion,17901.738,1143107.3999996,1143105.992,1143122.787,1161024.525,1161035.1000004,2023-03-29T15:47:16Z,1161040.958,NULL,Wettbewerb,ushindani,s,mapendezi,kichocheo,ubaguzi,NA,sdfdsf,NA,1,NA,NA,NA,NA,NA,NA,NA,NA,NA,NA,NA,NA,NA,NA,NA,NA,NA,NA,NA
40265,deep,flow.Sequence,5_0_1_0_2_0,NA,NA,skipped,NA,1161035.3000011,NA,NA,1161024.525,1161035.5,2023-03-29T15:47:16Z,1161040.958,NULL,Hoffnung,matarajio,s,kutaalamika,uratibu,mvumbuzi,NA,sdfdsf,NA,1,NA,NA,NA,NA,NA,NA,NA,NA,NA,NA,NA,NA,NA,NA,NA,NA,NA,NA,NA
40265,Shallow Question,html.Page,5_0_1_0_2_1_0,NA,NA,form submission,9115.7420007628,1161035.7000008,1161024.525,1161040.958,1170156.7000008,1170157.2000008,2023-03-29T15:47:25Z,1170166.813,NULL,Hoffnung,matarajio,s,kutaalamika,uratibu,mvumbuzi,matarajio,NA,NA,1,NA,NA,NA,NA,NA,NA,NA,NA,NA,NA,NA,NA,NA,NA,NA,NA,NA,NA,NA
40265,"""Richtig""-Screen",canvas.Screen,5_0_1_0_2_1_1,NA,NA,timeout,4995.8829999999,1170163.5,1170150.73,1170166.813,1175146.455,1175147.5,2023-03-29T15:47:30Z,1175162.696,NULL,Hoffnung,matarajio,s,kutaalamika,uratibu,mvumbuzi,NA,sdfdsf,1,1,NA,NA,NA,NA,NA,NA,NA,NA,NA,NA,NA,NA,NA,NA,NA,NA,NA,NA,NA
40265,"""Falsch""-Screen",canvas.Screen,5_0_1_0_2_1_2,NA,NA,skipped,NA,1175153.5,NA,NA,1175146.455,1175154,2023-03-29T15:47:30Z,1175162.696,NULL,Hoffnung,matarajio,s,kutaalamika,uratibu,mvumbuzi,NA,sdfdsf,NA,1,NA,NA,NA,NA,NA,NA,NA,NA,NA,NA,NA,NA,NA,NA,NA,NA,NA,NA,NA
40265,shallow,flow.Sequence,5_0_1_0_2_1,NA,NA,completion,14105.497,1161035.6000004,1161024.525,1161040.958,1175146.455,1175154.3999996,2023-03-29T15:47:30Z,1175162.696,NULL,Hoffnung,matarajio,s,kutaalamika,uratibu,mvumbuzi,NA,sdfdsf,NA,1,NA,NA,NA,NA,NA,NA,NA,NA,NA,NA,NA,NA,NA,NA,NA,NA,NA,NA,NA
40265,task,flow.Sequence,5_0_1_0_2,NA,NA,completion,14105.497,1161035.3000011,1161024.525,1161040.958,1175146.455,1175154.8000011,2023-03-29T15:47:30Z,1175162.696,NULL,Hoffnung,matarajio,s,kutaalamika,uratibu,mvumbuzi,NA,sdfdsf,NA,1,NA,NA,NA,NA,NA,NA,NA,NA,NA,NA,NA,NA,NA,NA,NA,NA,NA,NA,NA
40265,Deep Question,html.Page,5_0_1_0_3_0_0,NA,NA,form submission,11984.604001144,1175155.1000004,1175146.455,1175162.696,1187147.3000011,1187147.5,2023-03-29T15:47:42Z,1187152.752,NULL,Schock,mshtuko,d,NA,NA,NA,kutschi,NA,NA,1,NA,NA,NA,NA,NA,NA,NA,NA,NA,NA,NA,NA,NA,NA,NA,NA,NA,NA,NA
40265,"""Richtig""-Screen",canvas.Screen,5_0_1_0_3_0_1,NA,NA,skipped,NA,1187149.7000008,NA,NA,1187147.3000011,1187149.8999996,2023-03-29T15:47:42Z,1187152.752,NULL,Schock,mshtuko,d,NA,NA,NA,NA,sdfdsf,NA,1,NA,NA,NA,NA,NA,NA,NA,NA,NA,NA,NA,NA,NA,NA,NA,NA,NA,NA,NA
40265,"""Falsch""-Screen",canvas.Screen,5_0_1_0_3_0_2,NA,NA,timeout,4995.9279999998,1187150.7000008,1187136.365,1187152.752,1192132.035,1192132.3000011,2023-03-29T15:47:47Z,1192148.68,NULL,Schock,mshtuko,d,NA,NA,NA,NA,sdfdsf,0,1,NA,NA,NA,NA,NA,NA,NA,NA,NA,NA,NA,NA,NA,NA,NA,NA,NA,NA,NA
40265,deep,flow.Sequence,5_0_1_0_3_0,NA,NA,completion,16969.339,1175155,1175146.455,1175162.696,1192132.035,1192132.6000004,2023-03-29T15:47:47Z,1192148.68,NULL,Schock,mshtuko,d,NA,NA,NA,NA,sdfdsf,NA,1,NA,NA,NA,NA,NA,NA,NA,NA,NA,NA,NA,NA,NA,NA,NA,NA,NA,NA,NA
40265,shallow,flow.Sequence,5_0_1_0_3_1,NA,NA,skipped,NA,1192132.7000008,NA,NA,1192132.035,1192132.7000008,2023-03-29T15:47:47Z,1192148.68,NULL,Schock,mshtuko,d,NA,NA,NA,NA,sdfdsf,NA,1,NA,NA,NA,NA,NA,NA,NA,NA,NA,NA,NA,NA,NA,NA,NA,NA,NA,NA,NA
40265,task,flow.Sequence,5_0_1_0_3,NA,NA,completion,16969.339,1175154.8999996,1175146.455,1175162.696,1192132.035,1192132.8999996,2023-03-29T15:47:47Z,1192148.68,NULL,Schock,mshtuko,d,NA,NA,NA,NA,sdfdsf,NA,1,NA,NA,NA,NA,NA,NA,NA,NA,NA,NA,NA,NA,NA,NA,NA,NA,NA,NA,NA
40265,deep,flow.Sequence,5_0_1_0_4_0,NA,NA,skipped,NA,1192133,NA,NA,1192132.035,1192133,2023-03-29T15:47:47Z,1192148.68,NULL,Auftrag,uagizaji,s,ghanima,kuzingatia,msukani,NA,sdfdsf,NA,1,NA,NA,NA,NA,NA,NA,NA,NA,NA,NA,NA,NA,NA,NA,NA,NA,NA,NA,NA
40265,Shallow Question,html.Page,5_0_1_0_4_1_0,NA,NA,form submission,13872.32,1192133.1000004,1192132.035,1192148.68,1206021,1206021.2000008,2023-03-29T15:48:01Z,1206037.28,NULL,Auftrag,uagizaji,s,ghanima,kuzingatia,msukani,uagizaji,NA,NA,1,NA,NA,NA,NA,NA,NA,NA,NA,NA,NA,NA,NA,NA,NA,NA,NA,NA,NA,NA
40265,"""Richtig""-Screen",canvas.Screen,5_0_1_0_4_1_1,NA,NA,timeout,4995.9439999999,1206023.2000008,1206004.546,1206037.28,1211016.909,1211018.6000004,2023-03-29T15:48:06Z,1211033.224,NULL,Auftrag,uagizaji,s,ghanima,kuzingatia,msukani,NA,sdfdsf,1,1,NA,NA,NA,NA,NA,NA,NA,NA,NA,NA,NA,NA,NA,NA,NA,NA,NA,NA,NA
40265,"""Falsch""-Screen",canvas.Screen,5_0_1_0_4_1_2,NA,NA,skipped,NA,1211025.8000011,NA,NA,1211016.909,1211026.2000008,2023-03-29T15:48:06Z,1211033.224,NULL,Auftrag,uagizaji,s,ghanima,kuzingatia,msukani,NA,sdfdsf,NA,1,NA,NA,NA,NA,NA,NA,NA,NA,NA,NA,NA,NA,NA,NA,NA,NA,NA,NA,NA
40265,shallow,flow.Sequence,5_0_1_0_4_1,NA,NA,completion,18868.229,1192133.1000004,1192132.035,1192148.68,1211016.909,1211026.8999996,2023-03-29T15:48:06Z,1211033.224,NULL,Auftrag,uagizaji,s,ghanima,kuzingatia,msukani,NA,sdfdsf,NA,1,NA,NA,NA,NA,NA,NA,NA,NA,NA,NA,NA,NA,NA,NA,NA,NA,NA,NA,NA
40265,task,flow.Sequence,5_0_1_0_4,NA,NA,completion,18868.229,1192133,1192132.035,1192148.68,1211016.909,1211027.1000004,2023-03-29T15:48:06Z,1211033.224,NULL,Auftrag,uagizaji,s,ghanima,kuzingatia,msukani,NA,sdfdsf,NA,1,NA,NA,NA,NA,NA,NA,NA,NA,NA,NA,NA,NA,NA,NA,NA,NA,NA,NA,NA
40265,deep,flow.Sequence,5_0_1_0_5_0,NA,NA,skipped,NA,1211027.3000011,NA,NA,1211016.909,1211027.5,2023-03-29T15:48:06Z,1211033.224,NULL,Verpackung,ufungaji,s,uhusiano,upimaji,uchunguzi,NA,sdfdsf,NA,1,NA,NA,NA,NA,NA,NA,NA,NA,NA,NA,NA,NA,NA,NA,NA,NA,NA,NA,NA
40265,Shallow Question,html.Page,5_0_1_0_5_1_0,NA,NA,form submission,9442.6759996186,1211027.6000004,1211016.909,1211033.224,1220475.8999996,1220476.8000011,2023-03-29T15:48:15Z,1220505.568,NULL,Verpackung,ufungaji,s,uhusiano,upimaji,uchunguzi,ufungaji,NA,NA,1,NA,NA,NA,NA,NA,NA,NA,NA,NA,NA,NA,NA,NA,NA,NA,NA,NA,NA,NA
40265,"""Richtig""-Screen",canvas.Screen,5_0_1_0_5_1_1,NA,NA,timeout,4999.148,1220483.1000004,1220459.147,1220505.568,1225488.597,1225489.7000008,2023-03-29T15:48:20Z,1225504.716,NULL,Verpackung,ufungaji,s,uhusiano,upimaji,uchunguzi,NA,sdfdsf,1,1,NA,NA,NA,NA,NA,NA,NA,NA,NA,NA,NA,NA,NA,NA,NA,NA,NA,NA,NA
40265,"""Falsch""-Screen",canvas.Screen,5_0_1_0_5_1_2,NA,NA,skipped,NA,1225495.5,NA,NA,1225488.597,1225496,2023-03-29T15:48:20Z,1225504.716,NULL,Verpackung,ufungaji,s,uhusiano,upimaji,uchunguzi,NA,sdfdsf,NA,1,NA,NA,NA,NA,NA,NA,NA,NA,NA,NA,NA,NA,NA,NA,NA,NA,NA,NA,NA
40265,shallow,flow.Sequence,5_0_1_0_5_1,NA,NA,completion,14455.373,1211027.6000004,1211016.909,1211033.224,1225488.597,1225496.3000011,2023-03-29T15:48:20Z,1225504.716,NULL,Verpackung,ufungaji,s,uhusiano,upimaji,uchunguzi,NA,sdfdsf,NA,1,NA,NA,NA,NA,NA,NA,NA,NA,NA,NA,NA,NA,NA,NA,NA,NA,NA,NA,NA
40265,task,flow.Sequence,5_0_1_0_5,NA,NA,completion,14455.373,1211027.3000011,1211016.909,1211033.224,1225488.597,1225496.7000008,2023-03-29T15:48:20Z,1225504.716,NULL,Verpackung,ufungaji,s,uhusiano,upimaji,uchunguzi,NA,sdfdsf,NA,1,NA,NA,NA,NA,NA,NA,NA,NA,NA,NA,NA,NA,NA,NA,NA,NA,NA,NA,NA
40265,Deep Question,html.Page,5_0_1_0_6_0_0,NA,NA,form submission,9569.8840003815,1225496.8000011,1225488.597,1225504.716,1235074.6000004,1235074.8000011,2023-03-29T15:48:30Z,1235080.134,NULL,Theorie,nadharia,d,NA,NA,NA,ukuzaki,NA,NA,1,NA,NA,NA,NA,NA,NA,NA,NA,NA,NA,NA,NA,NA,NA,NA,NA,NA,NA,NA
