observation,sender,sender_type,sender_id,response,response_action,ended_on,duration,time_run,time_render,time_show,time_end,time_commit,timestamp,time_switch,german,swahili,enc,distractor1,distractor2,distractor3,response_2,x,correct,distractors,url_vp,url_sess,meta_labjs_version,meta_location,meta_user_agent,meta_platform,meta_language,meta_locale,meta_time_zone,meta_timezone_offset,meta_screen_width,meta_screen_height,meta_scroll_width,meta_scroll_height,meta_window_inner_width,meta_window_inner_height,meta_device_pixel_ratio,meta_labjs_build_flavor,meta_labjs_build_commit
000a3,Introduction delayed retrieval,canvas.Screen,0,weiter,keypress(Space),response,4519,1629,1677,1809,6196,6218,2023-04-17T16:00:30Z,6261,NA,NA,NA,NA,NA,NA,NA,NA,NA,NULL,206,4,20.2.4,https://neurocog.fernuni.ch/studies/vweber/sfink/delayed/index.html?vp=206&sess=4,"Mozilla/5.0 (Macintosh; Intel Mac OS X 10_15_7) AppleWebKit/605.1.15 (KHTML, like Gecko) Version/16.4 Safari/605.1.15",MacIntel,de-DE,de-DE,Europe/Zurich,-120,1440,900,886,702,886,750,1,production,f5b4a49f956347addd546a832a3327688c2c0fef
000a3,Deep Question,html.Page,1_0_0_0,NA,NA,form submission,38773,6219,6247,6261,45034,45034,2023-04-17T16:01:08Z,45062,Genehmigung,idhini,d,mwanamke,itikadi,fedheha,keti,NA,NA,NULL,NA,NA,NA,NA,NA,NA,NA,NA,NA,NA,NA,NA,NA,NA,NA,NA,NA,NA,NA
000a3,Save data screen,canvas.Screen,1_0_0_1,NA,NA,timeout,502,45036,45045,45062,45547,45548,2023-04-17T16:01:09Z,45564,Genehmigung,idhini,d,mwanamke,itikadi,fedheha,NA,NA,0,NULL,NA,NA,NA,NA,NA,NA,NA,NA,NA,NA,NA,NA,NA,NA,NA,NA,NA,NA,NA
000a3,deep,flow.Sequence,1_0_0,NA,NA,completion,39286,6219,6247,6261,45547,45548,2023-04-17T16:01:09Z,45564,Genehmigung,idhini,d,mwanamke,itikadi,fedheha,NA,NA,NA,NULL,NA,NA,NA,NA,NA,NA,NA,NA,NA,NA,NA,NA,NA,NA,NA,NA,NA,NA,NA
000a3,task,flow.Sequence,1_0,NA,NA,completion,39286,6219,6247,6261,45547,45548,2023-04-17T16:01:09Z,45564,Genehmigung,idhini,d,mwanamke,itikadi,fedheha,NA,NA,NA,NULL,NA,NA,NA,NA,NA,NA,NA,NA,NA,NA,NA,NA,NA,NA,NA,NA,NA,NA,NA
000a3,Deep Question,html.Page,1_1_0_0,NA,NA,form submission,10566,45549,45547,45564,56130,56130,2023-04-17T16:01:20Z,56174,Vorwurf,mashtaka,d,msukumo,mtangulizi,uenyekiti,mashku,NA,NA,NULL,NA,NA,NA,NA,NA,NA,NA,NA,NA,NA,NA,NA,NA,NA,NA,NA,NA,NA,NA
000a3,Save data screen,canvas.Screen,1_1_0_1,NA,NA,timeout,502,56131,56158,56174,56659,56659,2023-04-17T16:01:20Z,56676,Vorwurf,mashtaka,d,msukumo,mtangulizi,uenyekiti,NA,NA,0,NULL,NA,NA,NA,NA,NA,NA,NA,NA,NA,NA,NA,NA,NA,NA,NA,NA,NA,NA,NA
000a3,deep,flow.Sequence,1_1_0,NA,NA,completion,11095,45549,45547,45564,56659,56660,2023-04-17T16:01:20Z,56676,Vorwurf,mashtaka,d,msukumo,mtangulizi,uenyekiti,NA,NA,NA,NULL,NA,NA,NA,NA,NA,NA,NA,NA,NA,NA,NA,NA,NA,NA,NA,NA,NA,NA,NA
000a3,task,flow.Sequence,1_1,NA,NA,completion,11095,45549,45547,45564,56659,56660,2023-04-17T16:01:20Z,56676,Vorwurf,mashtaka,d,msukumo,mtangulizi,uenyekiti,NA,NA,NA,NULL,NA,NA,NA,NA,NA,NA,NA,NA,NA,NA,NA,NA,NA,NA,NA,NA,NA,NA,NA
000a3,Deep Question,html.Page,1_2_0_0,NA,NA,form submission,41020,56660,56659,56676,97696,97696,2023-04-17T16:02:01Z,97720,Flexibilität,kubadilika,d,enjini,usikilivu,hesabu,mshuki,NA,NA,NULL,NA,NA,NA,NA,NA,NA,NA,NA,NA,NA,NA,NA,NA,NA,NA,NA,NA,NA,NA
000a3,Save data screen,canvas.Screen,1_2_0_1,NA,NA,timeout,501,97697,97702,97720,98204,98205,2023-04-17T16:02:02Z,98221,Flexibilität,kubadilika,d,enjini,usikilivu,hesabu,NA,NA,0,NULL,NA,NA,NA,NA,NA,NA,NA,NA,NA,NA,NA,NA,NA,NA,NA,NA,NA,NA,NA
000a3,deep,flow.Sequence,1_2_0,NA,NA,completion,41528,56660,56659,56676,98204,98205,2023-04-17T16:02:02Z,98221,Flexibilität,kubadilika,d,enjini,usikilivu,hesabu,NA,NA,NA,NULL,NA,NA,NA,NA,NA,NA,NA,NA,NA,NA,NA,NA,NA,NA,NA,NA,NA,NA,NA
000a3,task,flow.Sequence,1_2,NA,NA,completion,41528,56660,56659,56676,98204,98206,2023-04-17T16:02:02Z,98221,Flexibilität,kubadilika,d,enjini,usikilivu,hesabu,NA,NA,NA,NULL,NA,NA,NA,NA,NA,NA,NA,NA,NA,NA,NA,NA,NA,NA,NA,NA,NA,NA,NA
000a3,Deep Question,html.Page,1_3_0_0,NA,NA,form submission,44813,98206,98204,98221,143034,143035,2023-04-17T16:02:46Z,143057,Orientierung,urekebisho,s,uelekeo,marekebisho,utunzaji,bari,NA,NA,NULL,NA,NA,NA,NA,NA,NA,NA,NA,NA,NA,NA,NA,NA,NA,NA,NA,NA,NA,NA
000a3,Save data screen,canvas.Screen,1_3_0_1,NA,NA,timeout,502,143036,143040,143057,143541,143542,2023-04-17T16:02:47Z,143559,Orientierung,urekebisho,s,uelekeo,marekebisho,utunzaji,NA,NA,0,NULL,NA,NA,NA,NA,NA,NA,NA,NA,NA,NA,NA,NA,NA,NA,NA,NA,NA,NA,NA
000a3,deep,flow.Sequence,1_3_0,NA,NA,completion,45320,98206,98204,98221,143541,143543,2023-04-17T16:02:47Z,143559,Orientierung,urekebisho,s,uelekeo,marekebisho,utunzaji,NA,NA,NA,NULL,NA,NA,NA,NA,NA,NA,NA,NA,NA,NA,NA,NA,NA,NA,NA,NA,NA,NA,NA
000a3,task,flow.Sequence,1_3,NA,NA,completion,45320,98206,98204,98221,143541,143543,2023-04-17T16:02:47Z,143559,Orientierung,urekebisho,s,uelekeo,marekebisho,utunzaji,NA,NA,NA,NULL,NA,NA,NA,NA,NA,NA,NA,NA,NA,NA,NA,NA,NA,NA,NA,NA,NA,NA,NA
000a3,Deep Question,html.Page,1_4_0_0,NA,NA,form submission,21680,143543,143541,143559,165239,165239,2023-04-17T16:03:09Z,165267,Betrüger,mdanganyifu,d,mwanamuziki,wastani,mahakama,mdanger,NA,NA,NULL,NA,NA,NA,NA,NA,NA,NA,NA,NA,NA,NA,NA,NA,NA,NA,NA,NA,NA,NA
000a3,Save data screen,canvas.Screen,1_4_0_1,NA,NA,timeout,501,165240,165249,165267,165751,165752,2023-04-17T16:03:09Z,165768,Betrüger,mdanganyifu,d,mwanamuziki,wastani,mahakama,NA,NA,0,NULL,NA,NA,NA,NA,NA,NA,NA,NA,NA,NA,NA,NA,NA,NA,NA,NA,NA,NA,NA
000a3,deep,flow.Sequence,1_4_0,NA,NA,completion,22192,143543,143541,143559,165751,165752,2023-04-17T16:03:09Z,165768,Betrüger,mdanganyifu,d,mwanamuziki,wastani,mahakama,NA,NA,NA,NULL,NA,NA,NA,NA,NA,NA,NA,NA,NA,NA,NA,NA,NA,NA,NA,NA,NA,NA,NA
000a3,task,flow.Sequence,1_4,NA,NA,completion,22192,143543,143541,143559,165751,165752,2023-04-17T16:03:09Z,165768,Betrüger,mdanganyifu,d,mwanamuziki,wastani,mahakama,NA,NA,NA,NULL,NA,NA,NA,NA,NA,NA,NA,NA,NA,NA,NA,NA,NA,NA,NA,NA,NA,NA,NA
000a3,Deep Question,html.Page,1_5_0_0,NA,NA,form submission,15723,165753,165751,165768,181491,181491,2023-04-17T16:03:25Z,181526,Erneuerung,ukarabati,s,ushawishi,ukalifu,unyonyaji,shaki,NA,NA,NULL,NA,NA,NA,NA,NA,NA,NA,NA,NA,NA,NA,NA,NA,NA,NA,NA,NA,NA,NA
000a3,Save data screen,canvas.Screen,1_5_0_1,NA,NA,timeout,502,181492,181511,181526,182011,182012,2023-04-17T16:03:25Z,182028,Erneuerung,ukarabati,s,ushawishi,ukalifu,unyonyaji,NA,NA,0,NULL,NA,NA,NA,NA,NA,NA,NA,NA,NA,NA,NA,NA,NA,NA,NA,NA,NA,NA,NA
000a3,deep,flow.Sequence,1_5_0,NA,NA,completion,16243,165753,165751,165768,182011,182012,2023-04-17T16:03:25Z,182028,Erneuerung,ukarabati,s,ushawishi,ukalifu,unyonyaji,NA,NA,NA,NULL,NA,NA,NA,NA,NA,NA,NA,NA,NA,NA,NA,NA,NA,NA,NA,NA,NA,NA,NA
000a3,task,flow.Sequence,1_5,NA,NA,completion,16243,165753,165751,165768,182011,182012,2023-04-17T16:03:25Z,182028,Erneuerung,ukarabati,s,ushawishi,ukalifu,unyonyaji,NA,NA,NA,NULL,NA,NA,NA,NA,NA,NA,NA,NA,NA,NA,NA,NA,NA,NA,NA,NA,NA,NA,NA
000a3,Deep Question,html.Page,1_6_0_0,NA,NA,form submission,14105,182013,182011,182028,196133,196133,2023-04-17T16:03:40Z,196149,Entwicklung,maendeleo,d,uangavu,mshindwa,badiliko,raki,NA,NA,NULL,NA,NA,NA,NA,NA,NA,NA,NA,NA,NA,NA,NA,NA,NA,NA,NA,NA,NA,NA
000a3,Save data screen,canvas.Screen,1_6_0_1,NA,NA,timeout,502,196134,196137,196149,196634,196634,2023-04-17T16:03:40Z,196651,Entwicklung,maendeleo,d,uangavu,mshindwa,badiliko,NA,NA,0,NULL,NA,NA,NA,NA,NA,NA,NA,NA,NA,NA,NA,NA,NA,NA,NA,NA,NA,NA,NA
000a3,deep,flow.Sequence,1_6_0,NA,NA,completion,14606,182013,182011,182028,196634,196635,2023-04-17T16:03:40Z,196651,Entwicklung,maendeleo,d,uangavu,mshindwa,badiliko,NA,NA,NA,NULL,NA,NA,NA,NA,NA,NA,NA,NA,NA,NA,NA,NA,NA,NA,NA,NA,NA,NA,NA
000a3,task,flow.Sequence,1_6,NA,NA,completion,14606,182013,182011,182028,196634,196635,2023-04-17T16:03:40Z,196651,Entwicklung,maendeleo,d,uangavu,mshindwa,badiliko,NA,NA,NA,NULL,NA,NA,NA,NA,NA,NA,NA,NA,NA,NA,NA,NA,NA,NA,NA,NA,NA,NA,NA
000a3,Deep Question,html.Page,1_7_0_0,NA,NA,form submission,10297,196635,196634,196651,206948,206948,2023-04-17T16:03:50Z,206978,Niveau,kiwango,s,usimamizi,mwamali,mshairi,diponi,NA,NA,NULL,NA,NA,NA,NA,NA,NA,NA,NA,NA,NA,NA,NA,NA,NA,NA,NA,NA,NA,NA
000a3,Save data screen,canvas.Screen,1_7_0_1,NA,NA,timeout,502,206949,206961,206978,207463,207464,2023-04-17T16:03:51Z,207480,Niveau,kiwango,s,usimamizi,mwamali,mshairi,NA,NA,0,NULL,NA,NA,NA,NA,NA,NA,NA,NA,NA,NA,NA,NA,NA,NA,NA,NA,NA,NA,NA
000a3,deep,flow.Sequence,1_7_0,NA,NA,completion,10812,196635,196634,196651,207463,207465,2023-04-17T16:03:51Z,207480,Niveau,kiwango,s,usimamizi,mwamali,mshairi,NA,NA,NA,NULL,NA,NA,NA,NA,NA,NA,NA,NA,NA,NA,NA,NA,NA,NA,NA,NA,NA,NA,NA
000a3,task,flow.Sequence,1_7,NA,NA,completion,10812,196635,196634,196651,207463,207465,2023-04-17T16:03:51Z,207480,Niveau,kiwango,s,usimamizi,mwamali,mshairi,NA,NA,NA,NULL,NA,NA,NA,NA,NA,NA,NA,NA,NA,NA,NA,NA,NA,NA,NA,NA,NA,NA,NA
000a3,Deep Question,html.Page,1_8_0_0,NA,NA,form submission,13002,207466,207463,207480,220482,220482,2023-04-17T16:04:04Z,220515,Fleisch,mshakiki,s,kizunguzungu,mshikamano,angusho,kuwi,NA,NA,NULL,NA,NA,NA,NA,NA,NA,NA,NA,NA,NA,NA,NA,NA,NA,NA,NA,NA,NA,NA
000a3,Save data screen,canvas.Screen,1_8_0_1,NA,NA,timeout,500,220484,220498,220515,220999,221000,2023-04-17T16:04:04Z,221015,Fleisch,mshakiki,s,kizunguzungu,mshikamano,angusho,NA,NA,0,NULL,NA,NA,NA,NA,NA,NA,NA,NA,NA,NA,NA,NA,NA,NA,NA,NA,NA,NA,NA
000a3,deep,flow.Sequence,1_8_0,NA,NA,completion,13519,207465,207463,207480,220999,221000,2023-04-17T16:04:04Z,221015,Fleisch,mshakiki,s,kizunguzungu,mshikamano,angusho,NA,NA,NA,NULL,NA,NA,NA,NA,NA,NA,NA,NA,NA,NA,NA,NA,NA,NA,NA,NA,NA,NA,NA
000a3,task,flow.Sequence,1_8,NA,NA,completion,13519,207465,207463,207480,220999,221001,2023-04-17T16:04:04Z,221015,Fleisch,mshakiki,s,kizunguzungu,mshikamano,angusho,NA,NA,NA,NULL,NA,NA,NA,NA,NA,NA,NA,NA,NA,NA,NA,NA,NA,NA,NA,NA,NA,NA,NA
000a3,Deep Question,html.Page,1_9_0_0,NA,NA,form submission,8021,221001,220999,221015,229036,229036,2023-04-17T16:04:12Z,229071,Stimmung,kinyongo,d,kilekile,kisambo,madhehebu,batju,NA,NA,NULL,NA,NA,NA,NA,NA,NA,NA,NA,NA,NA,NA,NA,NA,NA,NA,NA,NA,NA,NA
000a3,Save data screen,canvas.Screen,1_9_0_1,NA,NA,timeout,500,229038,229054,229071,229555,229556,2023-04-17T16:04:13Z,229571,Stimmung,kinyongo,d,kilekile,kisambo,madhehebu,NA,NA,0,NULL,NA,NA,NA,NA,NA,NA,NA,NA,NA,NA,NA,NA,NA,NA,NA,NA,NA,NA,NA
000a3,deep,flow.Sequence,1_9_0,NA,NA,completion,8540,221001,220999,221015,229555,229556,2023-04-17T16:04:13Z,229571,Stimmung,kinyongo,d,kilekile,kisambo,madhehebu,NA,NA,NA,NULL,NA,NA,NA,NA,NA,NA,NA,NA,NA,NA,NA,NA,NA,NA,NA,NA,NA,NA,NA
000a3,task,flow.Sequence,1_9,NA,NA,completion,8540,221001,220999,221015,229555,229557,2023-04-17T16:04:13Z,229571,Stimmung,kinyongo,d,kilekile,kisambo,madhehebu,NA,NA,NA,NULL,NA,NA,NA,NA,NA,NA,NA,NA,NA,NA,NA,NA,NA,NA,NA,NA,NA,NA,NA
000a3,Deep Question,html.Page,1_10_0_0,NA,NA,form submission,24177,229557,229555,229571,253748,253748,2023-04-17T16:04:37Z,253787,Integrität,uadilifu,s,muungano,mtiririko,upunguaji,mukati,NA,NA,NULL,NA,NA,NA,NA,NA,NA,NA,NA,NA,NA,NA,NA,NA,NA,NA,NA,NA,NA,NA
000a3,Save data screen,canvas.Screen,1_10_0_1,NA,NA,timeout,501,253749,253769,253787,254271,254272,2023-04-17T16:04:38Z,254288,Integrität,uadilifu,s,muungano,mtiririko,upunguaji,NA,NA,0,NULL,NA,NA,NA,NA,NA,NA,NA,NA,NA,NA,NA,NA,NA,NA,NA,NA,NA,NA,NA
000a3,deep,flow.Sequence,1_10_0,NA,NA,completion,24700,229557,229555,229571,254271,254272,2023-04-17T16:04:38Z,254288,Integrität,uadilifu,s,muungano,mtiririko,upunguaji,NA,NA,NA,NULL,NA,NA,NA,NA,NA,NA,NA,NA,NA,NA,NA,NA,NA,NA,NA,NA,NA,NA,NA
000a3,task,flow.Sequence,1_10,NA,NA,completion,24700,229557,229555,229571,254271,254273,2023-04-17T16:04:38Z,254288,Integrität,uadilifu,s,muungano,mtiririko,upunguaji,NA,NA,NA,NULL,NA,NA,NA,NA,NA,NA,NA,NA,NA,NA,NA,NA,NA,NA,NA,NA,NA,NA,NA
000a3,Deep Question,html.Page,1_11_0_0,NA,NA,form submission,10911,254273,254271,254288,265199,265199,2023-04-17T16:04:49Z,265234,Begegnung,kukutana,d,mmasihiya,mpiganaji,husiano,luku,NA,NA,NULL,NA,NA,NA,NA,NA,NA,NA,NA,NA,NA,NA,NA,NA,NA,NA,NA,NA,NA,NA
000a3,Save data screen,canvas.Screen,1_11_0_1,NA,NA,timeout,501,265200,265217,265234,265719,265719,2023-04-17T16:04:49Z,265735,Begegnung,kukutana,d,mmasihiya,mpiganaji,husiano,NA,NA,0,NULL,NA,NA,NA,NA,NA,NA,NA,NA,NA,NA,NA,NA,NA,NA,NA,NA,NA,NA,NA
000a3,deep,flow.Sequence,1_11_0,NA,NA,completion,11431,254273,254271,254288,265719,265720,2023-04-17T16:04:49Z,265735,Begegnung,kukutana,d,mmasihiya,mpiganaji,husiano,NA,NA,NA,NULL,NA,NA,NA,NA,NA,NA,NA,NA,NA,NA,NA,NA,NA,NA,NA,NA,NA,NA,NA
000a3,task,flow.Sequence,1_11,NA,NA,completion,11431,254273,254271,254288,265719,265720,2023-04-17T16:04:49Z,265735,Begegnung,kukutana,d,mmasihiya,mpiganaji,husiano,NA,NA,NA,NULL,NA,NA,NA,NA,NA,NA,NA,NA,NA,NA,NA,NA,NA,NA,NA,NA,NA,NA,NA
000a3,Deep Question,html.Page,1_12_0_0,NA,NA,form submission,7967,265720,265719,265735,273702,273703,2023-04-17T16:04:57Z,273740,Wechsel,ugeuzaji,s,utambulisho,kujenga,wasiwasi,wuhu,NA,NA,NULL,NA,NA,NA,NA,NA,NA,NA,NA,NA,NA,NA,NA,NA,NA,NA,NA,NA,NA,NA
000a3,Save data screen,canvas.Screen,1_12_0_1,NA,NA,timeout,505,273704,273722,273740,274226,274227,2023-04-17T16:04:58Z,274245,Wechsel,ugeuzaji,s,utambulisho,kujenga,wasiwasi,NA,NA,0,NULL,NA,NA,NA,NA,NA,NA,NA,NA,NA,NA,NA,NA,NA,NA,NA,NA,NA,NA,NA
000a3,deep,flow.Sequence,1_12_0,NA,NA,completion,8491,265720,265719,265735,274226,274227,2023-04-17T16:04:58Z,274245,Wechsel,ugeuzaji,s,utambulisho,kujenga,wasiwasi,NA,NA,NA,NULL,NA,NA,NA,NA,NA,NA,NA,NA,NA,NA,NA,NA,NA,NA,NA,NA,NA,NA,NA
000a3,task,flow.Sequence,1_12,NA,NA,completion,8491,265720,265719,265735,274226,274227,2023-04-17T16:04:58Z,274245,Wechsel,ugeuzaji,s,utambulisho,kujenga,wasiwasi,NA,NA,NA,NULL,NA,NA,NA,NA,NA,NA,NA,NA,NA,NA,NA,NA,NA,NA,NA,NA,NA,NA,NA
000a3,Deep Question,html.Page,1_13_0_0,NA,NA,form submission,21681,274227,274226,274245,295926,295926,2023-04-17T16:05:19Z,295966,Atmosphäre,angahewa,d,kuteseka,usahihi,kutoamini,mashi,NA,NA,NULL,NA,NA,NA,NA,NA,NA,NA,NA,NA,NA,NA,NA,NA,NA,NA,NA,NA,NA,NA
000a3,Save data screen,canvas.Screen,1_13_0_1,NA,NA,timeout,501,295927,295948,295966,296451,296451,2023-04-17T16:05:20Z,296467,Atmosphäre,angahewa,d,kuteseka,usahihi,kutoamini,NA,NA,0,NULL,NA,NA,NA,NA,NA,NA,NA,NA,NA,NA,NA,NA,NA,NA,NA,NA,NA,NA,NA
000a3,deep,flow.Sequence,1_13_0,NA,NA,completion,22206,274227,274226,274245,296451,296452,2023-04-17T16:05:20Z,296467,Atmosphäre,angahewa,d,kuteseka,usahihi,kutoamini,NA,NA,NA,NULL,NA,NA,NA,NA,NA,NA,NA,NA,NA,NA,NA,NA,NA,NA,NA,NA,NA,NA,NA
000a3,task,flow.Sequence,1_13,NA,NA,completion,22206,274227,274226,274245,296451,296452,2023-04-17T16:05:20Z,296467,Atmosphäre,angahewa,d,kuteseka,usahihi,kutoamini,NA,NA,NA,NULL,NA,NA,NA,NA,NA,NA,NA,NA,NA,NA,NA,NA,NA,NA,NA,NA,NA,NA,NA
000a3,Deep Question,html.Page,1_14_0_0,NA,NA,form submission,14478,296452,296451,296467,310945,310946,2023-04-17T16:05:34Z,310972,Papier,karatasi,s,uchambuzi,usalama,kukataliwa,baji,NA,NA,NULL,NA,NA,NA,NA,NA,NA,NA,NA,NA,NA,NA,NA,NA,NA,NA,NA,NA,NA,NA
000a3,Save data screen,canvas.Screen,1_14_0_1,NA,NA,timeout,502,310947,310956,310972,311456,311457,2023-04-17T16:05:35Z,311474,Papier,karatasi,s,uchambuzi,usalama,kukataliwa,NA,NA,0,NULL,NA,NA,NA,NA,NA,NA,NA,NA,NA,NA,NA,NA,NA,NA,NA,NA,NA,NA,NA
000a3,deep,flow.Sequence,1_14_0,NA,NA,completion,14989,296452,296451,296467,311456,311458,2023-04-17T16:05:35Z,311474,Papier,karatasi,s,uchambuzi,usalama,kukataliwa,NA,NA,NA,NULL,NA,NA,NA,NA,NA,NA,NA,NA,NA,NA,NA,NA,NA,NA,NA,NA,NA,NA,NA
000a3,task,flow.Sequence,1_14,NA,NA,completion,14989,296452,296451,296467,311456,311458,2023-04-17T16:05:35Z,311474,Papier,karatasi,s,uchambuzi,usalama,kukataliwa,NA,NA,NA,NULL,NA,NA,NA,NA,NA,NA,NA,NA,NA,NA,NA,NA,NA,NA,NA,NA,NA,NA,NA
000a3,Deep Question,html.Page,1_15_0_0,NA,NA,form submission,16617,311458,311456,311474,328091,328091,2023-04-17T16:05:51Z,328118,Respekt,heshima,s,changamnao,upinzani,ufanisi,maruki,NA,NA,NULL,NA,NA,NA,NA,NA,NA,NA,NA,NA,NA,NA,NA,NA,NA,NA,NA,NA,NA,NA
000a3,Save data screen,canvas.Screen,1_15_0_1,NA,NA,timeout,534,328092,328102,328118,328603,328604,2023-04-17T16:05:52Z,328652,Respekt,heshima,s,changamnao,upinzani,ufanisi,NA,NA,0,NULL,NA,NA,NA,NA,NA,NA,NA,NA,NA,NA,NA,NA,NA,NA,NA,NA,NA,NA,NA
000a3,deep,flow.Sequence,1_15_0,NA,NA,completion,17129,311458,311456,311474,328603,328604,2023-04-17T16:05:52Z,328652,Respekt,heshima,s,changamnao,upinzani,ufanisi,NA,NA,NA,NULL,NA,NA,NA,NA,NA,NA,NA,NA,NA,NA,NA,NA,NA,NA,NA,NA,NA,NA,NA
000a3,task,flow.Sequence,1_15,NA,NA,completion,17129,311458,311456,311474,328603,328604,2023-04-17T16:05:52Z,328652,Respekt,heshima,s,changamnao,upinzani,ufanisi,NA,NA,NA,NULL,NA,NA,NA,NA,NA,NA,NA,NA,NA,NA,NA,NA,NA,NA,NA,NA,NA,NA,NA
000a3,retrieval block 1 (cued recall),flow.Loop,1,NA,NA,completion,322342,6219,6247,6261,328603,328605,2023-04-17T16:05:52Z,328652,NA,NA,NA,NA,NA,NA,NA,NA,NA,NULL,NA,NA,NA,NA,NA,NA,NA,NA,NA,NA,NA,NA,NA,NA,NA,NA,NA,NA,NA
000a3,Shallow Question,html.Page,2_0_0_0,NA,NA,form submission,11534,328606,328603,328652,340186,340187,2023-04-17T16:06:04Z,340200,Orientierung,urekebisho,s,uelekeo,marekebisho,utunzaji,urekebisho,NA,NA,"c(""distractor1"", ""distractor2"", ""distractor3"")",NA,NA,NA,NA,NA,NA,NA,NA,NA,NA,NA,NA,NA,NA,NA,NA,NA,NA,NA
000a3,Save data screen,canvas.Screen,2_0_0_1,NA,NA,timeout,502,340188,340190,340200,340685,340685,2023-04-17T16:06:04Z,340702,Orientierung,urekebisho,s,uelekeo,marekebisho,utunzaji,NA,NA,1,"c(""distractor1"", ""distractor2"", ""distractor3"")",NA,NA,NA,NA,NA,NA,NA,NA,NA,NA,NA,NA,NA,NA,NA,NA,NA,NA,NA
000a3,shallow,flow.Sequence,2_0_0,NA,NA,completion,12033,328606,328603,328652,340685,340686,2023-04-17T16:06:04Z,340702,Orientierung,urekebisho,s,uelekeo,marekebisho,utunzaji,NA,NA,NA,"c(""distractor1"", ""distractor2"", ""distractor3"")",NA,NA,NA,NA,NA,NA,NA,NA,NA,NA,NA,NA,NA,NA,NA,NA,NA,NA,NA
000a3,task,flow.Sequence,2_0,NA,NA,completion,12033,328605,328603,328652,340685,340686,2023-04-17T16:06:04Z,340702,Orientierung,urekebisho,s,uelekeo,marekebisho,utunzaji,NA,NA,NA,"c(""distractor1"", ""distractor2"", ""distractor3"")",NA,NA,NA,NA,NA,NA,NA,NA,NA,NA,NA,NA,NA,NA,NA,NA,NA,NA,NA
000a3,Shallow Question,html.Page,2_1_0_0,NA,NA,form submission,12619,340686,340685,340702,353321,353321,2023-04-17T16:06:17Z,353352,Entwicklung,maendeleo,d,uangavu,mshindwa,badiliko,maendeleo,NA,NA,"c(""distractor1"", ""distractor2"", ""distractor3"")",NA,NA,NA,NA,NA,NA,NA,NA,NA,NA,NA,NA,NA,NA,NA,NA,NA,NA,NA
000a3,Save data screen,canvas.Screen,2_1_0_1,NA,NA,timeout,501,353322,353336,353352,353837,353838,2023-04-17T16:06:17Z,353853,Entwicklung,maendeleo,d,uangavu,mshindwa,badiliko,NA,NA,1,"c(""distractor1"", ""distractor2"", ""distractor3"")",NA,NA,NA,NA,NA,NA,NA,NA,NA,NA,NA,NA,NA,NA,NA,NA,NA,NA,NA
000a3,shallow,flow.Sequence,2_1_0,NA,NA,completion,13135,340686,340685,340702,353837,353838,2023-04-17T16:06:17Z,353853,Entwicklung,maendeleo,d,uangavu,mshindwa,badiliko,NA,NA,NA,"c(""distractor1"", ""distractor2"", ""distractor3"")",NA,NA,NA,NA,NA,NA,NA,NA,NA,NA,NA,NA,NA,NA,NA,NA,NA,NA,NA
000a3,task,flow.Sequence,2_1,NA,NA,completion,13135,340686,340685,340702,353837,353838,2023-04-17T16:06:17Z,353853,Entwicklung,maendeleo,d,uangavu,mshindwa,badiliko,NA,NA,NA,"c(""distractor1"", ""distractor2"", ""distractor3"")",NA,NA,NA,NA,NA,NA,NA,NA,NA,NA,NA,NA,NA,NA,NA,NA,NA,NA,NA
000a3,Shallow Question,html.Page,2_2_0_0,NA,NA,form submission,6969,353839,353837,353853,360822,360823,2023-04-17T16:06:24Z,360839,Betrüger,mdanganyifu,d,mwanamuziki,wastani,mahakama,mdanganyifu,NA,NA,"c(""distractor1"", ""distractor2"", ""distractor3"")",NA,NA,NA,NA,NA,NA,NA,NA,NA,NA,NA,NA,NA,NA,NA,NA,NA,NA,NA
000a3,Save data screen,canvas.Screen,2_2_0_1,NA,NA,timeout,502,360823,360825,360839,361324,361324,2023-04-17T16:06:25Z,361341,Betrüger,mdanganyifu,d,mwanamuziki,wastani,mahakama,NA,NA,1,"c(""distractor1"", ""distractor2"", ""distractor3"")",NA,NA,NA,NA,NA,NA,NA,NA,NA,NA,NA,NA,NA,NA,NA,NA,NA,NA,NA
000a3,shallow,flow.Sequence,2_2_0,NA,NA,completion,7471,353839,353837,353853,361324,361325,2023-04-17T16:06:25Z,361341,Betrüger,mdanganyifu,d,mwanamuziki,wastani,mahakama,NA,NA,NA,"c(""distractor1"", ""distractor2"", ""distractor3"")",NA,NA,NA,NA,NA,NA,NA,NA,NA,NA,NA,NA,NA,NA,NA,NA,NA,NA,NA
000a3,task,flow.Sequence,2_2,NA,NA,completion,7471,353838,353837,353853,361324,361325,2023-04-17T16:06:25Z,361341,Betrüger,mdanganyifu,d,mwanamuziki,wastani,mahakama,NA,NA,NA,"c(""distractor1"", ""distractor2"", ""distractor3"")",NA,NA,NA,NA,NA,NA,NA,NA,NA,NA,NA,NA,NA,NA,NA,NA,NA,NA,NA
000a3,Shallow Question,html.Page,2_3_0_0,NA,NA,form submission,5751,361325,361324,361341,367092,367092,2023-04-17T16:06:30Z,367122,Erneuerung,ukarabati,s,ushawishi,ukalifu,unyonyaji,ukarabati,NA,NA,"c(""distractor1"", ""distractor2"", ""distractor3"")",NA,NA,NA,NA,NA,NA,NA,NA,NA,NA,NA,NA,NA,NA,NA,NA,NA,NA,NA
000a3,Save data screen,canvas.Screen,2_3_0_1,NA,NA,timeout,502,367093,367106,367122,367607,367609,2023-04-17T16:06:31Z,367624,Erneuerung,ukarabati,s,ushawishi,ukalifu,unyonyaji,NA,NA,1,"c(""distractor1"", ""distractor2"", ""distractor3"")",NA,NA,NA,NA,NA,NA,NA,NA,NA,NA,NA,NA,NA,NA,NA,NA,NA,NA,NA
000a3,shallow,flow.Sequence,2_3_0,NA,NA,completion,6266,361325,361324,361341,367607,367609,2023-04-17T16:06:31Z,367624,Erneuerung,ukarabati,s,ushawishi,ukalifu,unyonyaji,NA,NA,NA,"c(""distractor1"", ""distractor2"", ""distractor3"")",NA,NA,NA,NA,NA,NA,NA,NA,NA,NA,NA,NA,NA,NA,NA,NA,NA,NA,NA
000a3,task,flow.Sequence,2_3,NA,NA,completion,6266,361325,361324,361341,367607,367610,2023-04-17T16:06:31Z,367624,Erneuerung,ukarabati,s,ushawishi,ukalifu,unyonyaji,NA,NA,NA,"c(""distractor1"", ""distractor2"", ""distractor3"")",NA,NA,NA,NA,NA,NA,NA,NA,NA,NA,NA,NA,NA,NA,NA,NA,NA,NA,NA
000a3,Shallow Question,html.Page,2_4_0_0,NA,NA,form submission,9201,367610,367607,367624,376825,376825,2023-04-17T16:06:40Z,376849,Flexibilität,kubadilika,d,enjini,usikilivu,hesabu,hesabu,NA,NA,"c(""distractor1"", ""distractor2"", ""distractor3"")",NA,NA,NA,NA,NA,NA,NA,NA,NA,NA,NA,NA,NA,NA,NA,NA,NA,NA,NA
000a3,Save data screen,canvas.Screen,2_4_0_1,NA,NA,timeout,500,376826,376831,376849,377333,377334,2023-04-17T16:06:41Z,377349,Flexibilität,kubadilika,d,enjini,usikilivu,hesabu,NA,NA,0,"c(""distractor1"", ""distractor2"", ""distractor3"")",NA,NA,NA,NA,NA,NA,NA,NA,NA,NA,NA,NA,NA,NA,NA,NA,NA,NA,NA
000a3,shallow,flow.Sequence,2_4_0,NA,NA,completion,9709,367610,367607,367624,377333,377335,2023-04-17T16:06:41Z,377349,Flexibilität,kubadilika,d,enjini,usikilivu,hesabu,NA,NA,NA,"c(""distractor1"", ""distractor2"", ""distractor3"")",NA,NA,NA,NA,NA,NA,NA,NA,NA,NA,NA,NA,NA,NA,NA,NA,NA,NA,NA
000a3,task,flow.Sequence,2_4,NA,NA,completion,9709,367610,367607,367624,377333,377335,2023-04-17T16:06:41Z,377349,Flexibilität,kubadilika,d,enjini,usikilivu,hesabu,NA,NA,NA,"c(""distractor1"", ""distractor2"", ""distractor3"")",NA,NA,NA,NA,NA,NA,NA,NA,NA,NA,NA,NA,NA,NA,NA,NA,NA,NA,NA
000a3,Shallow Question,html.Page,2_5_0_0,NA,NA,form submission,8697,377335,377333,377349,386046,386046,2023-04-17T16:06:49Z,386073,Wechsel,ugeuzaji,s,utambulisho,kujenga,wasiwasi,ugeuzaji,NA,NA,"c(""distractor1"", ""distractor2"", ""distractor3"")",NA,NA,NA,NA,NA,NA,NA,NA,NA,NA,NA,NA,NA,NA,NA,NA,NA,NA,NA
000a3,Save data screen,canvas.Screen,2_5_0_1,NA,NA,timeout,502,386047,386056,386073,386558,386559,2023-04-17T16:06:50Z,386575,Wechsel,ugeuzaji,s,utambulisho,kujenga,wasiwasi,NA,NA,1,"c(""distractor1"", ""distractor2"", ""distractor3"")",NA,NA,NA,NA,NA,NA,NA,NA,NA,NA,NA,NA,NA,NA,NA,NA,NA,NA,NA
000a3,shallow,flow.Sequence,2_5_0,NA,NA,completion,9209,377335,377333,377349,386558,386559,2023-04-17T16:06:50Z,386575,Wechsel,ugeuzaji,s,utambulisho,kujenga,wasiwasi,NA,NA,NA,"c(""distractor1"", ""distractor2"", ""distractor3"")",NA,NA,NA,NA,NA,NA,NA,NA,NA,NA,NA,NA,NA,NA,NA,NA,NA,NA,NA
000a3,task,flow.Sequence,2_5,NA,NA,completion,9209,377335,377333,377349,386558,386560,2023-04-17T16:06:50Z,386575,Wechsel,ugeuzaji,s,utambulisho,kujenga,wasiwasi,NA,NA,NA,"c(""distractor1"", ""distractor2"", ""distractor3"")",NA,NA,NA,NA,NA,NA,NA,NA,NA,NA,NA,NA,NA,NA,NA,NA,NA,NA,NA
000a3,Shallow Question,html.Page,2_6_0_0,NA,NA,form submission,8853,386560,386558,386575,395428,395428,2023-04-17T16:06:59Z,395447,Genehmigung,idhini,d,mwanamke,itikadi,fedheha,idhini,NA,NA,"c(""distractor1"", ""distractor2"", ""distractor3"")",NA,NA,NA,NA,NA,NA,NA,NA,NA,NA,NA,NA,NA,NA,NA,NA,NA,NA,NA
000a3,Save data screen,canvas.Screen,2_6_0_1,NA,NA,timeout,503,395429,395431,395447,395933,395934,2023-04-17T16:06:59Z,395950,Genehmigung,idhini,d,mwanamke,itikadi,fedheha,NA,NA,1,"c(""distractor1"", ""distractor2"", ""distractor3"")",NA,NA,NA,NA,NA,NA,NA,NA,NA,NA,NA,NA,NA,NA,NA,NA,NA,NA,NA
000a3,shallow,flow.Sequence,2_6_0,NA,NA,completion,9358,386560,386558,386575,395933,395935,2023-04-17T16:06:59Z,395950,Genehmigung,idhini,d,mwanamke,itikadi,fedheha,NA,NA,NA,"c(""distractor1"", ""distractor2"", ""distractor3"")",NA,NA,NA,NA,NA,NA,NA,NA,NA,NA,NA,NA,NA,NA,NA,NA,NA,NA,NA
000a3,task,flow.Sequence,2_6,NA,NA,completion,9358,386560,386558,386575,395933,395935,2023-04-17T16:06:59Z,395950,Genehmigung,idhini,d,mwanamke,itikadi,fedheha,NA,NA,NA,"c(""distractor1"", ""distractor2"", ""distractor3"")",NA,NA,NA,NA,NA,NA,NA,NA,NA,NA,NA,NA,NA,NA,NA,NA,NA,NA,NA
000a3,Shallow Question,html.Page,2_7_0_0,NA,NA,form submission,5448,395935,395933,395950,401398,401398,2023-04-17T16:07:05Z,401413,Papier,karatasi,s,uchambuzi,usalama,kukataliwa,karatasi,NA,NA,"c(""distractor1"", ""distractor2"", ""distractor3"")",NA,NA,NA,NA,NA,NA,NA,NA,NA,NA,NA,NA,NA,NA,NA,NA,NA,NA,NA
000a3,Save data screen,canvas.Screen,2_7_0_1,NA,NA,timeout,503,401400,401402,401413,401898,401899,2023-04-17T16:07:05Z,401916,Papier,karatasi,s,uchambuzi,usalama,kukataliwa,NA,NA,1,"c(""distractor1"", ""distractor2"", ""distractor3"")",NA,NA,NA,NA,NA,NA,NA,NA,NA,NA,NA,NA,NA,NA,NA,NA,NA,NA,NA
000a3,shallow,flow.Sequence,2_7_0,NA,NA,completion,5948,395935,395933,395950,401898,401899,2023-04-17T16:07:05Z,401916,Papier,karatasi,s,uchambuzi,usalama,kukataliwa,NA,NA,NA,"c(""distractor1"", ""distractor2"", ""distractor3"")",NA,NA,NA,NA,NA,NA,NA,NA,NA,NA,NA,NA,NA,NA,NA,NA,NA,NA,NA
000a3,task,flow.Sequence,2_7,NA,NA,completion,5948,395935,395933,395950,401898,401900,2023-04-17T16:07:05Z,401916,Papier,karatasi,s,uchambuzi,usalama,kukataliwa,NA,NA,NA,"c(""distractor1"", ""distractor2"", ""distractor3"")",NA,NA,NA,NA,NA,NA,NA,NA,NA,NA,NA,NA,NA,NA,NA,NA,NA,NA,NA
000a3,Shallow Question,html.Page,2_8_0_0,NA,NA,form submission,6637,401900,401898,401916,408553,408553,2023-04-17T16:07:12Z,408583,Respekt,heshima,s,changamnao,upinzani,ufanisi,heshima,NA,NA,"c(""distractor1"", ""distractor2"", ""distractor3"")",NA,NA,NA,NA,NA,NA,NA,NA,NA,NA,NA,NA,NA,NA,NA,NA,NA,NA,NA
000a3,Save data screen,canvas.Screen,2_8_0_1,NA,NA,timeout,502,408554,408567,408583,409067,409068,2023-04-17T16:07:12Z,409085,Respekt,heshima,s,changamnao,upinzani,ufanisi,NA,NA,1,"c(""distractor1"", ""distractor2"", ""distractor3"")",NA,NA,NA,NA,NA,NA,NA,NA,NA,NA,NA,NA,NA,NA,NA,NA,NA,NA,NA
000a3,shallow,flow.Sequence,2_8_0,NA,NA,completion,7151,401900,401898,401916,409067,409068,2023-04-17T16:07:12Z,409085,Respekt,heshima,s,changamnao,upinzani,ufanisi,NA,NA,NA,"c(""distractor1"", ""distractor2"", ""distractor3"")",NA,NA,NA,NA,NA,NA,NA,NA,NA,NA,NA,NA,NA,NA,NA,NA,NA,NA,NA
000a3,task,flow.Sequence,2_8,NA,NA,completion,7151,401900,401898,401916,409067,409068,2023-04-17T16:07:12Z,409085,Respekt,heshima,s,changamnao,upinzani,ufanisi,NA,NA,NA,"c(""distractor1"", ""distractor2"", ""distractor3"")",NA,NA,NA,NA,NA,NA,NA,NA,NA,NA,NA,NA,NA,NA,NA,NA,NA,NA,NA
000a3,Shallow Question,html.Page,2_9_0_0,NA,NA,form submission,7359,409069,409067,409085,416444,416444,2023-04-17T16:07:20Z,416472,Integrität,uadilifu,s,muungano,mtiririko,upunguaji,uadilifu,NA,NA,"c(""distractor1"", ""distractor2"", ""distractor3"")",NA,NA,NA,NA,NA,NA,NA,NA,NA,NA,NA,NA,NA,NA,NA,NA,NA,NA,NA
000a3,Save data screen,canvas.Screen,2_9_0_1,NA,NA,timeout,501,416445,416454,416472,416956,416956,2023-04-17T16:07:20Z,416973,Integrität,uadilifu,s,muungano,mtiririko,upunguaji,NA,NA,1,"c(""distractor1"", ""distractor2"", ""distractor3"")",NA,NA,NA,NA,NA,NA,NA,NA,NA,NA,NA,NA,NA,NA,NA,NA,NA,NA,NA
000a3,shallow,flow.Sequence,2_9_0,NA,NA,completion,7871,409069,409067,409085,416956,416957,2023-04-17T16:07:20Z,416973,Integrität,uadilifu,s,muungano,mtiririko,upunguaji,NA,NA,NA,"c(""distractor1"", ""distractor2"", ""distractor3"")",NA,NA,NA,NA,NA,NA,NA,NA,NA,NA,NA,NA,NA,NA,NA,NA,NA,NA,NA
000a3,task,flow.Sequence,2_9,NA,NA,completion,7871,409069,409067,409085,416956,416957,2023-04-17T16:07:20Z,416973,Integrität,uadilifu,s,muungano,mtiririko,upunguaji,NA,NA,NA,"c(""distractor1"", ""distractor2"", ""distractor3"")",NA,NA,NA,NA,NA,NA,NA,NA,NA,NA,NA,NA,NA,NA,NA,NA,NA,NA,NA
000a3,Shallow Question,html.Page,2_10_0_0,NA,NA,form submission,8225.0000000001,416957,416956,416973,425198,425198,2023-04-17T16:07:29Z,425228,Niveau,kiwango,s,usimamizi,mwamali,mshairi,kiwango,NA,NA,"c(""distractor1"", ""distractor2"", ""distractor3"")",NA,NA,NA,NA,NA,NA,NA,NA,NA,NA,NA,NA,NA,NA,NA,NA,NA,NA,NA
000a3,Save data screen,canvas.Screen,2_10_0_1,NA,NA,timeout,501,425199,425211,425228,425713,425713,2023-04-17T16:07:29Z,425729,Niveau,kiwango,s,usimamizi,mwamali,mshairi,NA,NA,1,"c(""distractor1"", ""distractor2"", ""distractor3"")",NA,NA,NA,NA,NA,NA,NA,NA,NA,NA,NA,NA,NA,NA,NA,NA,NA,NA,NA
000a3,shallow,flow.Sequence,2_10_0,NA,NA,completion,8740,416957,416956,416973,425713,425713,2023-04-17T16:07:29Z,425729,Niveau,kiwango,s,usimamizi,mwamali,mshairi,NA,NA,NA,"c(""distractor1"", ""distractor2"", ""distractor3"")",NA,NA,NA,NA,NA,NA,NA,NA,NA,NA,NA,NA,NA,NA,NA,NA,NA,NA,NA
000a3,task,flow.Sequence,2_10,NA,NA,completion,8740,416957,416956,416973,425713,425714,2023-04-17T16:07:29Z,425729,Niveau,kiwango,s,usimamizi,mwamali,mshairi,NA,NA,NA,"c(""distractor1"", ""distractor2"", ""distractor3"")",NA,NA,NA,NA,NA,NA,NA,NA,NA,NA,NA,NA,NA,NA,NA,NA,NA,NA,NA
000a3,Shallow Question,html.Page,2_11_0_0,NA,NA,form submission,6245,425714,425713,425729,431974,431974,2023-04-17T16:07:35Z,431998,Atmosphäre,angahewa,d,kuteseka,usahihi,kutoamini,angahewa,NA,NA,"c(""distractor1"", ""distractor2"", ""distractor3"")",NA,NA,NA,NA,NA,NA,NA,NA,NA,NA,NA,NA,NA,NA,NA,NA,NA,NA,NA
000a3,Save data screen,canvas.Screen,2_11_0_1,NA,NA,timeout,498,431975,431980,431998,432481,432482,2023-04-17T16:07:36Z,432496,Atmosphäre,angahewa,d,kuteseka,usahihi,kutoamini,NA,NA,1,"c(""distractor1"", ""distractor2"", ""distractor3"")",NA,NA,NA,NA,NA,NA,NA,NA,NA,NA,NA,NA,NA,NA,NA,NA,NA,NA,NA
000a3,shallow,flow.Sequence,2_11_0,NA,NA,completion,6752,425714,425713,425729,432481,432482,2023-04-17T16:07:36Z,432496,Atmosphäre,angahewa,d,kuteseka,usahihi,kutoamini,NA,NA,NA,"c(""distractor1"", ""distractor2"", ""distractor3"")",NA,NA,NA,NA,NA,NA,NA,NA,NA,NA,NA,NA,NA,NA,NA,NA,NA,NA,NA
000a3,task,flow.Sequence,2_11,NA,NA,completion,6752,425714,425713,425729,432481,432483,2023-04-17T16:07:36Z,432496,Atmosphäre,angahewa,d,kuteseka,usahihi,kutoamini,NA,NA,NA,"c(""distractor1"", ""distractor2"", ""distractor3"")",NA,NA,NA,NA,NA,NA,NA,NA,NA,NA,NA,NA,NA,NA,NA,NA,NA,NA,NA
000a3,Shallow Question,html.Page,2_12_0_0,NA,NA,form submission,20122,432483,432481,432496,452618,452618,2023-04-17T16:07:56Z,452634,Begegnung,kukutana,d,mmasihiya,mpiganaji,husiano,kukutana,NA,NA,"c(""distractor1"", ""distractor2"", ""distractor3"")",NA,NA,NA,NA,NA,NA,NA,NA,NA,NA,NA,NA,NA,NA,NA,NA,NA,NA,NA
000a3,Save data screen,canvas.Screen,2_12_0_1,NA,NA,timeout,502,452620,452622,452634,453119,453119,2023-04-17T16:07:57Z,453136,Begegnung,kukutana,d,mmasihiya,mpiganaji,husiano,NA,NA,1,"c(""distractor1"", ""distractor2"", ""distractor3"")",NA,NA,NA,NA,NA,NA,NA,NA,NA,NA,NA,NA,NA,NA,NA,NA,NA,NA,NA
000a3,shallow,flow.Sequence,2_12_0,NA,NA,completion,20623,432483,432481,432496,453119,453120,2023-04-17T16:07:57Z,453136,Begegnung,kukutana,d,mmasihiya,mpiganaji,husiano,NA,NA,NA,"c(""distractor1"", ""distractor2"", ""distractor3"")",NA,NA,NA,NA,NA,NA,NA,NA,NA,NA,NA,NA,NA,NA,NA,NA,NA,NA,NA
000a3,task,flow.Sequence,2_12,NA,NA,completion,20623,432483,432481,432496,453119,453120,2023-04-17T16:07:57Z,453136,Begegnung,kukutana,d,mmasihiya,mpiganaji,husiano,NA,NA,NA,"c(""distractor1"", ""distractor2"", ""distractor3"")",NA,NA,NA,NA,NA,NA,NA,NA,NA,NA,NA,NA,NA,NA,NA,NA,NA,NA,NA
000a3,Shallow Question,html.Page,2_13_0_0,NA,NA,form submission,6597,453121,453119,453136,459733,459734,2023-04-17T16:08:03Z,459754,Stimmung,kinyongo,d,kilekile,kisambo,madhehebu,kinyongo,NA,NA,"c(""distractor1"", ""distractor2"", ""distractor3"")",NA,NA,NA,NA,NA,NA,NA,NA,NA,NA,NA,NA,NA,NA,NA,NA,NA,NA,NA
000a3,Save data screen,canvas.Screen,2_13_0_1,NA,NA,timeout,501,459735,459737,459754,460238,460239,2023-04-17T16:08:04Z,460255,Stimmung,kinyongo,d,kilekile,kisambo,madhehebu,NA,NA,1,"c(""distractor1"", ""distractor2"", ""distractor3"")",NA,NA,NA,NA,NA,NA,NA,NA,NA,NA,NA,NA,NA,NA,NA,NA,NA,NA,NA
000a3,shallow,flow.Sequence,2_13_0,NA,NA,completion,7102,453121,453119,453136,460238,460239,2023-04-17T16:08:04Z,460255,Stimmung,kinyongo,d,kilekile,kisambo,madhehebu,NA,NA,NA,"c(""distractor1"", ""distractor2"", ""distractor3"")",NA,NA,NA,NA,NA,NA,NA,NA,NA,NA,NA,NA,NA,NA,NA,NA,NA,NA,NA
000a3,task,flow.Sequence,2_13,NA,NA,completion,7102,453120,453119,453136,460238,460239,2023-04-17T16:08:04Z,460255,Stimmung,kinyongo,d,kilekile,kisambo,madhehebu,NA,NA,NA,"c(""distractor1"", ""distractor2"", ""distractor3"")",NA,NA,NA,NA,NA,NA,NA,NA,NA,NA,NA,NA,NA,NA,NA,NA,NA,NA,NA
000a3,Shallow Question,html.Page,2_14_0_0,NA,NA,form submission,7215,460240,460238,460255,467470,467471,2023-04-17T16:08:11Z,467491,Fleisch,mshakiki,s,kizunguzungu,mshikamano,angusho,mshakiki,NA,NA,"c(""distractor1"", ""distractor2"", ""distractor3"")",NA,NA,NA,NA,NA,NA,NA,NA,NA,NA,NA,NA,NA,NA,NA,NA,NA,NA,NA
000a3,Save data screen,canvas.Screen,2_14_0_1,NA,NA,timeout,501,467472,467474,467491,467976,467976,2023-04-17T16:08:11Z,467992,Fleisch,mshakiki,s,kizunguzungu,mshikamano,angusho,NA,NA,1,"c(""distractor1"", ""distractor2"", ""distractor3"")",NA,NA,NA,NA,NA,NA,NA,NA,NA,NA,NA,NA,NA,NA,NA,NA,NA,NA,NA
000a3,shallow,flow.Sequence,2_14_0,NA,NA,completion,7721,460240,460238,460255,467976,467977,2023-04-17T16:08:11Z,467992,Fleisch,mshakiki,s,kizunguzungu,mshikamano,angusho,NA,NA,NA,"c(""distractor1"", ""distractor2"", ""distractor3"")",NA,NA,NA,NA,NA,NA,NA,NA,NA,NA,NA,NA,NA,NA,NA,NA,NA,NA,NA
000a3,task,flow.Sequence,2_14,NA,NA,completion,7721,460240,460238,460255,467976,467977,2023-04-17T16:08:11Z,467992,Fleisch,mshakiki,s,kizunguzungu,mshikamano,angusho,NA,NA,NA,"c(""distractor1"", ""distractor2"", ""distractor3"")",NA,NA,NA,NA,NA,NA,NA,NA,NA,NA,NA,NA,NA,NA,NA,NA,NA,NA,NA
000a3,Shallow Question,html.Page,2_15_0_0,NA,NA,form submission,10254,467977,467976,467992,478246,478246,2023-04-17T16:08:22Z,478269,Vorwurf,mashtaka,d,msukumo,mtangulizi,uenyekiti,mashtaka,NA,NA,"c(""distractor1"", ""distractor2"", ""distractor3"")",NA,NA,NA,NA,NA,NA,NA,NA,NA,NA,NA,NA,NA,NA,NA,NA,NA,NA,NA
000a3,Save data screen,canvas.Screen,2_15_0_1,NA,NA,timeout,502,478247,478253,478269,478753,478754,2023-04-17T16:08:22Z,478771,Vorwurf,mashtaka,d,msukumo,mtangulizi,uenyekiti,NA,NA,1,"c(""distractor1"", ""distractor2"", ""distractor3"")",NA,NA,NA,NA,NA,NA,NA,NA,NA,NA,NA,NA,NA,NA,NA,NA,NA,NA,NA
000a3,shallow,flow.Sequence,2_15_0,NA,NA,completion,10761,467977,467976,467992,478753,478754,2023-04-17T16:08:22Z,478771,Vorwurf,mashtaka,d,msukumo,mtangulizi,uenyekiti,NA,NA,NA,"c(""distractor1"", ""distractor2"", ""distractor3"")",NA,NA,NA,NA,NA,NA,NA,NA,NA,NA,NA,NA,NA,NA,NA,NA,NA,NA,NA
000a3,task,flow.Sequence,2_15,NA,NA,completion,10761,467977,467976,467992,478753,478754,2023-04-17T16:08:22Z,478771,Vorwurf,mashtaka,d,msukumo,mtangulizi,uenyekiti,NA,NA,NA,"c(""distractor1"", ""distractor2"", ""distractor3"")",NA,NA,NA,NA,NA,NA,NA,NA,NA,NA,NA,NA,NA,NA,NA,NA,NA,NA,NA
000a3,retrieval block 2 (multiple choice),flow.Loop,2,NA,NA,completion,150101,328605,328603,328652,478753,478755,2023-04-17T16:08:22Z,478771,NA,NA,NA,NA,NA,NA,NA,NA,NA,"c(""distractor1"", ""distractor2"", ""distractor3"")",NA,NA,NA,NA,NA,NA,NA,NA,NA,NA,NA,NA,NA,NA,NA,NA,NA,NA,NA
000a3,End,canvas.Screen,3,NA,keypress(Space),response,1823,478755,478753,478771,480576,480582,2023-04-17T16:08:24Z,480626,NA,NA,NA,NA,NA,NA,NA,NA,NA,NULL,NA,NA,NA,NA,NA,NA,NA,NA,NA,NA,NA,NA,NA,NA,NA,NA,NA,NA,NA
000a3,root,flow.Sequence,NA,NA,NA,completion,478767,1628,1677,1809,480576,480582,2023-04-17T16:08:24Z,480626,NA,NA,NA,NA,NA,NA,NA,NA,NA,NULL,NA,NA,NA,NA,NA,NA,NA,NA,NA,NA,NA,NA,NA,NA,NA,NA,NA,NA,NA
