observation,sender,sender_type,sender_id,response,response_action,ended_on,duration,time_run,time_render,time_show,time_end,time_commit,timestamp,time_switch,distractors,german,swahili,enc,distractor1,distractor2,distractor3,response_2,x,correct,x_2,url_vp,url_sess,meta_labjs_version,meta_location,meta_user_agent,meta_platform,meta_language,meta_locale,meta_time_zone,meta_timezone_offset,meta_screen_width,meta_screen_height,meta_scroll_width,meta_scroll_height,meta_window_inner_width,meta_window_inner_height,meta_device_pixel_ratio,meta_labjs_build_flavor,meta_labjs_build_commit
f6d8d,Introduction general,canvas.Screen,0,weiter,keypress(q),response,1005593.352,365.79999999702,294.084,360.748,1005954.1,1005960.1,2023-02-05T09:22:57Z,1005974.155,NULL,NA,NA,NA,NA,NA,NA,NA,NA,NA,NA,105,3,20.2.4,https://neurocog.fernuni.ch/studies/vweber/encoding_immediate/index.html?vp=105&sess=3,"Mozilla/5.0 (Macintosh; Intel Mac OS X 10_15_7) AppleWebKit/537.36 (KHTML, like Gecko) Chrome/109.0.0.0 Safari/537.36",MacIntel,de-DE,de,Europe/Zurich,-60,1440,900,1440,690,1440,738,2,production,f5b4a49f956347addd546a832a3327688c2c0fef
f6d8d,Introduction practice,canvas.Screen,1_0,NA,keypress(Space),response,1806.444999994,1005960.6,1005957.489,1005974.155,1007780.6,1007784.4,2023-02-05T09:22:59Z,1007790.749,NULL,NA,NA,NA,NA,NA,NA,NA,NA,NA,NA,NA,NA,NA,NA,NA,NA,NA,NA,NA,NA,NA,NA,NA,NA,NA,NA,NA,NA,NA
f6d8d,deep,flow.Sequence,1_1_0_0,NA,NA,skipped,NA,1007784.8,NA,NA,1007780.6,1007785.1,2023-02-05T09:22:59Z,1007790.749,"c(""distractor1"", ""distractor2"", ""distractor3"")",Kritik,lawama,s,dereva,nafasi,mawazo,NA,NA,NA,NA,NA,NA,NA,NA,NA,NA,NA,NA,NA,NA,NA,NA,NA,NA,NA,NA,NA,NA,NA
f6d8d,Shallow Question,html.Page,1_1_0_1_0,NA,NA,form submission,6111.0509999971,1007785.2,1007774.083,1007790.749,1013901.8,1013902.3,2023-02-05T09:23:05Z,1013907.738,"c(""distractor1"", ""distractor2"", ""distractor3"")",Kritik,lawama,s,dereva,nafasi,mawazo,lawama,NA,NA,NA,NA,NA,NA,NA,NA,NA,NA,NA,NA,NA,NA,NA,NA,NA,NA,NA,NA,NA,NA
f6d8d,"""Richtig""-Screen",canvas.Screen,1_1_0_1_1,NA,NA,timeout,4999.7999999999,1013904.3,1013891.072,1013907.738,1018890.872,1018895.9,2023-02-05T09:23:10Z,1018907.538,"c(""distractor1"", ""distractor2"", ""distractor3"")",Kritik,lawama,s,dereva,nafasi,mawazo,NA,NA,1,NA,NA,NA,NA,NA,NA,NA,NA,NA,NA,NA,NA,NA,NA,NA,NA,NA,NA,NA,NA
f6d8d,"""Falsch""-Screen",canvas.Screen,1_1_0_1_2,NA,NA,skipped,NA,1018897.9,NA,NA,1018890.872,1018898.1,2023-02-05T09:23:10Z,1018907.538,"c(""distractor1"", ""distractor2"", ""distractor3"")",Kritik,lawama,s,dereva,nafasi,mawazo,NA,NA,NA,NA,NA,NA,NA,NA,NA,NA,NA,NA,NA,NA,NA,NA,NA,NA,NA,NA,NA,NA,NA
f6d8d,shallow,flow.Sequence,1_1_0_1,NA,NA,completion,11100.123,1007785.2,1007774.083,1007790.749,1018890.872,1018898.2,2023-02-05T09:23:10Z,1018907.538,"c(""distractor1"", ""distractor2"", ""distractor3"")",Kritik,lawama,s,dereva,nafasi,mawazo,NA,NA,NA,NA,NA,NA,NA,NA,NA,NA,NA,NA,NA,NA,NA,NA,NA,NA,NA,NA,NA,NA,NA
f6d8d,task,flow.Sequence,1_1_0,NA,NA,completion,11100.123,1007784.7,1007774.083,1007790.749,1018890.872,1018898.4,2023-02-05T09:23:10Z,1018907.538,"c(""distractor1"", ""distractor2"", ""distractor3"")",Kritik,lawama,s,dereva,nafasi,mawazo,NA,NA,NA,NA,NA,NA,NA,NA,NA,NA,NA,NA,NA,NA,NA,NA,NA,NA,NA,NA,NA,NA,NA
f6d8d,deep,flow.Sequence,1_1_1_0,NA,NA,skipped,NA,1018898.5,NA,NA,1018890.872,1018898.6,2023-02-05T09:23:10Z,1018907.538,"c(""distractor1"", ""distractor2"", ""distractor3"")",Rückhalt,msaada,s,muhula,auwali,kiwimbe,NA,NA,NA,NA,NA,NA,NA,NA,NA,NA,NA,NA,NA,NA,NA,NA,NA,NA,NA,NA,NA,NA,NA
f6d8d,Shallow Question,html.Page,1_1_1_1_0,NA,NA,form submission,9054.8619999911,1018898.7,1018890.872,1018907.538,1027962.4,1027963.1,2023-02-05T09:23:19Z,1027973.842,"c(""distractor1"", ""distractor2"", ""distractor3"")",Rückhalt,msaada,s,muhula,auwali,kiwimbe,muhula,NA,NA,NA,NA,NA,NA,NA,NA,NA,NA,NA,NA,NA,NA,NA,NA,NA,NA,NA,NA,NA,NA
f6d8d,"""Richtig""-Screen",canvas.Screen,1_1_1_1_1,NA,NA,skipped,NA,1027967.1,NA,NA,1027962.4,1027967.2,2023-02-05T09:23:19Z,1027973.842,"c(""distractor1"", ""distractor2"", ""distractor3"")",Rückhalt,msaada,s,muhula,auwali,kiwimbe,NA,NA,NA,NA,NA,NA,NA,NA,NA,NA,NA,NA,NA,NA,NA,NA,NA,NA,NA,NA,NA,NA,NA
f6d8d,"""Falsch""-Screen",canvas.Screen,1_1_1_1_2,NA,NA,timeout,4999.8,1027968.1,1027957.176,1027973.842,1032956.976,1032959.2,2023-02-05T09:23:24Z,1032973.642,"c(""distractor1"", ""distractor2"", ""distractor3"")",Rückhalt,msaada,s,muhula,auwali,kiwimbe,NA,NA,0,NA,NA,NA,NA,NA,NA,NA,NA,NA,NA,NA,NA,NA,NA,NA,NA,NA,NA,NA,NA
f6d8d,shallow,flow.Sequence,1_1_1_1,NA,NA,completion,14049.438,1018898.7,1018890.872,1018907.538,1032956.976,1032959.8,2023-02-05T09:23:24Z,1032973.642,"c(""distractor1"", ""distractor2"", ""distractor3"")",Rückhalt,msaada,s,muhula,auwali,kiwimbe,NA,NA,NA,NA,NA,NA,NA,NA,NA,NA,NA,NA,NA,NA,NA,NA,NA,NA,NA,NA,NA,NA,NA
f6d8d,task,flow.Sequence,1_1_1,NA,NA,completion,14049.438,1018898.4,1018890.872,1018907.538,1032956.976,1032960,2023-02-05T09:23:24Z,1032973.642,"c(""distractor1"", ""distractor2"", ""distractor3"")",Rückhalt,msaada,s,muhula,auwali,kiwimbe,NA,NA,NA,NA,NA,NA,NA,NA,NA,NA,NA,NA,NA,NA,NA,NA,NA,NA,NA,NA,NA,NA,NA
f6d8d,deep,flow.Sequence,1_1_2_0,NA,NA,skipped,NA,1032960.3,NA,NA,1032956.976,1032960.6,2023-02-05T09:23:24Z,1032973.642,"c(""distractor1"", ""distractor2"", ""distractor3"")",Gegenwart,hadhara,s,katiba,jokofu,mikopo,NA,NA,NA,NA,NA,NA,NA,NA,NA,NA,NA,NA,NA,NA,NA,NA,NA,NA,NA,NA,NA,NA,NA
f6d8d,Shallow Question,html.Page,1_1_2_1_0,NA,NA,form submission,3106.2579999911,1032960.7,1032956.976,1032973.642,1036079.9,1036080.4,2023-02-05T09:23:27Z,1036091.325,"c(""distractor1"", ""distractor2"", ""distractor3"")",Gegenwart,hadhara,s,katiba,jokofu,mikopo,katiba,NA,NA,NA,NA,NA,NA,NA,NA,NA,NA,NA,NA,NA,NA,NA,NA,NA,NA,NA,NA,NA,NA
f6d8d,"""Richtig""-Screen",canvas.Screen,1_1_2_1_1,NA,NA,skipped,NA,1036083,NA,NA,1036079.9,1036083.2,2023-02-05T09:23:27Z,1036091.325,"c(""distractor1"", ""distractor2"", ""distractor3"")",Gegenwart,hadhara,s,katiba,jokofu,mikopo,NA,NA,NA,NA,NA,NA,NA,NA,NA,NA,NA,NA,NA,NA,NA,NA,NA,NA,NA,NA,NA,NA,NA
f6d8d,"""Falsch""-Screen",canvas.Screen,1_1_2_1_2,NA,NA,timeout,4999.8,1036084.1,1036074.659,1036091.325,1041074.459,1041076.8,2023-02-05T09:23:32Z,1041091.125,"c(""distractor1"", ""distractor2"", ""distractor3"")",Gegenwart,hadhara,s,katiba,jokofu,mikopo,NA,NA,0,NA,NA,NA,NA,NA,NA,NA,NA,NA,NA,NA,NA,NA,NA,NA,NA,NA,NA,NA,NA
f6d8d,shallow,flow.Sequence,1_1_2_1,NA,NA,completion,8100.817,1032960.7,1032956.976,1032973.642,1041074.459,1041077.2,2023-02-05T09:23:32Z,1041091.125,"c(""distractor1"", ""distractor2"", ""distractor3"")",Gegenwart,hadhara,s,katiba,jokofu,mikopo,NA,NA,NA,NA,NA,NA,NA,NA,NA,NA,NA,NA,NA,NA,NA,NA,NA,NA,NA,NA,NA,NA,NA
f6d8d,task,flow.Sequence,1_1_2,NA,NA,completion,8100.817,1032960.3,1032956.976,1032973.642,1041074.459,1041077.4,2023-02-05T09:23:32Z,1041091.125,"c(""distractor1"", ""distractor2"", ""distractor3"")",Gegenwart,hadhara,s,katiba,jokofu,mikopo,NA,NA,NA,NA,NA,NA,NA,NA,NA,NA,NA,NA,NA,NA,NA,NA,NA,NA,NA,NA,NA,NA,NA
f6d8d,Deep Question,html.Page,1_1_3_0_0,NA,NA,form submission,2259.375,1041077.7,1041074.459,1041091.125,1043350.5,1043350.9,2023-02-05T09:23:34Z,1043358.241,"c(""distractor1"", ""distractor2"", ""distractor3"")",Schatten,kivuli,d,NA,NA,NA,a,NA,NA,NA,NA,NA,NA,NA,NA,NA,NA,NA,NA,NA,NA,NA,NA,NA,NA,NA,NA,NA,NA
f6d8d,"""Richtig""-Screen",canvas.Screen,1_1_3_0_1,NA,NA,skipped,NA,1043353.5,NA,NA,1043350.5,1043353.7,2023-02-05T09:23:34Z,1043358.241,"c(""distractor1"", ""distractor2"", ""distractor3"")",Schatten,kivuli,d,NA,NA,NA,NA,NA,NA,NA,NA,NA,NA,NA,NA,NA,NA,NA,NA,NA,NA,NA,NA,NA,NA,NA,NA,NA,NA
f6d8d,"""Falsch""-Screen",canvas.Screen,1_1_3_0_2,NA,NA,timeout,4999.7999999999,1043354.4,1043341.575,1043358.241,1048341.375,1048344.1,2023-02-05T09:23:39Z,1048358.041,"c(""distractor1"", ""distractor2"", ""distractor3"")",Schatten,kivuli,d,NA,NA,NA,NA,NA,0,NA,NA,NA,NA,NA,NA,NA,NA,NA,NA,NA,NA,NA,NA,NA,NA,NA,NA,NA,NA
f6d8d,deep,flow.Sequence,1_1_3_0,NA,NA,completion,7250.25,1041077.7,1041074.459,1041091.125,1048341.375,1048344.4,2023-02-05T09:23:39Z,1048358.041,"c(""distractor1"", ""distractor2"", ""distractor3"")",Schatten,kivuli,d,NA,NA,NA,NA,NA,NA,NA,NA,NA,NA,NA,NA,NA,NA,NA,NA,NA,NA,NA,NA,NA,NA,NA,NA,NA,NA
f6d8d,shallow,flow.Sequence,1_1_3_1,NA,NA,skipped,NA,1048344.7,NA,NA,1048341.375,1048344.8,2023-02-05T09:23:39Z,1048358.041,"c(""distractor1"", ""distractor2"", ""distractor3"")",Schatten,kivuli,d,NA,NA,NA,NA,NA,NA,NA,NA,NA,NA,NA,NA,NA,NA,NA,NA,NA,NA,NA,NA,NA,NA,NA,NA,NA,NA
f6d8d,task,flow.Sequence,1_1_3,NA,NA,completion,7250.25,1041077.6,1041074.459,1041091.125,1048341.375,1048344.9,2023-02-05T09:23:39Z,1048358.041,"c(""distractor1"", ""distractor2"", ""distractor3"")",Schatten,kivuli,d,NA,NA,NA,NA,NA,NA,NA,NA,NA,NA,NA,NA,NA,NA,NA,NA,NA,NA,NA,NA,NA,NA,NA,NA,NA,NA
f6d8d,Deep Question,html.Page,1_1_4_0_0,NA,NA,form submission,1804.459,1048345.3,1048341.375,1048358.041,1050162.5,1050163,2023-02-05T09:23:41Z,1050174.635,"c(""distractor1"", ""distractor2"", ""distractor3"")",Gesundheit,salama,d,NA,NA,NA,a,NA,NA,NA,NA,NA,NA,NA,NA,NA,NA,NA,NA,NA,NA,NA,NA,NA,NA,NA,NA,NA,NA
f6d8d,"""Richtig""-Screen",canvas.Screen,1_1_4_0_1,NA,NA,skipped,NA,1050167.3,NA,NA,1050162.5,1050167.5,2023-02-05T09:23:41Z,1050174.635,"c(""distractor1"", ""distractor2"", ""distractor3"")",Gesundheit,salama,d,NA,NA,NA,NA,NA,NA,NA,NA,NA,NA,NA,NA,NA,NA,NA,NA,NA,NA,NA,NA,NA,NA,NA,NA,NA,NA
f6d8d,"""Falsch""-Screen",canvas.Screen,1_1_4_0_2,NA,NA,timeout,4999.8,1050168.7,1050157.969,1050174.635,1055157.769,1055160,2023-02-05T09:23:46Z,1055174.435,"c(""distractor1"", ""distractor2"", ""distractor3"")",Gesundheit,salama,d,NA,NA,NA,NA,NA,0,NA,NA,NA,NA,NA,NA,NA,NA,NA,NA,NA,NA,NA,NA,NA,NA,NA,NA,NA,NA
f6d8d,deep,flow.Sequence,1_1_4_0,NA,NA,completion,6799.7280000001,1048345.2,1048341.375,1048358.041,1055157.769,1055160.4,2023-02-05T09:23:46Z,1055174.435,"c(""distractor1"", ""distractor2"", ""distractor3"")",Gesundheit,salama,d,NA,NA,NA,NA,NA,NA,NA,NA,NA,NA,NA,NA,NA,NA,NA,NA,NA,NA,NA,NA,NA,NA,NA,NA,NA,NA
f6d8d,shallow,flow.Sequence,1_1_4_1,NA,NA,skipped,NA,1055160.6,NA,NA,1055157.769,1055160.8,2023-02-05T09:23:46Z,1055174.435,"c(""distractor1"", ""distractor2"", ""distractor3"")",Gesundheit,salama,d,NA,NA,NA,NA,NA,NA,NA,NA,NA,NA,NA,NA,NA,NA,NA,NA,NA,NA,NA,NA,NA,NA,NA,NA,NA,NA
f6d8d,task,flow.Sequence,1_1_4,NA,NA,completion,6799.7280000001,1048345.1,1048341.375,1048358.041,1055157.769,1055161,2023-02-05T09:23:46Z,1055174.435,"c(""distractor1"", ""distractor2"", ""distractor3"")",Gesundheit,salama,d,NA,NA,NA,NA,NA,NA,NA,NA,NA,NA,NA,NA,NA,NA,NA,NA,NA,NA,NA,NA,NA,NA,NA,NA,NA,NA
f6d8d,Deep Question,html.Page,1_1_5_0_0,NA,NA,form submission,3400.0649999999,1055161.4,1055157.769,1055174.435,1058574.5,1058574.8,2023-02-05T09:23:49Z,1058574.815,"c(""distractor1"", ""distractor2"", ""distractor3"")",Qualität,mtindo,d,NA,NA,NA,sda,NA,NA,NA,NA,NA,NA,NA,NA,NA,NA,NA,NA,NA,NA,NA,NA,NA,NA,NA,NA,NA,NA
f6d8d,"""Richtig""-Screen",canvas.Screen,1_1_5_0_1,NA,NA,skipped,NA,1058577.5,NA,NA,1058574.5,1058577.7,2023-02-05T09:23:49Z,1058574.815,"c(""distractor1"", ""distractor2"", ""distractor3"")",Qualität,mtindo,d,NA,NA,NA,NA,NA,NA,NA,NA,NA,NA,NA,NA,NA,NA,NA,NA,NA,NA,NA,NA,NA,NA,NA,NA,NA,NA
f6d8d,"""Falsch""-Screen",canvas.Screen,1_1_5_0_2,NA,NA,timeout,4999.8,1058578.6,1058558.149,1058574.815,1063557.949,1063560.2,2023-02-05T09:23:54Z,1063574.615,"c(""distractor1"", ""distractor2"", ""distractor3"")",Qualität,mtindo,d,NA,NA,NA,NA,NA,0,NA,NA,NA,NA,NA,NA,NA,NA,NA,NA,NA,NA,NA,NA,NA,NA,NA,NA,NA,NA
f6d8d,deep,flow.Sequence,1_1_5_0,NA,NA,completion,8383.514,1055161.3,1055157.769,1055174.435,1063557.949,1063560.8,2023-02-05T09:23:54Z,1063574.615,"c(""distractor1"", ""distractor2"", ""distractor3"")",Qualität,mtindo,d,NA,NA,NA,NA,NA,NA,NA,NA,NA,NA,NA,NA,NA,NA,NA,NA,NA,NA,NA,NA,NA,NA,NA,NA,NA,NA
f6d8d,shallow,flow.Sequence,1_1_5_1,NA,NA,skipped,NA,1063561,NA,NA,1063557.949,1063561.1,2023-02-05T09:23:54Z,1063574.615,"c(""distractor1"", ""distractor2"", ""distractor3"")",Qualität,mtindo,d,NA,NA,NA,NA,NA,NA,NA,NA,NA,NA,NA,NA,NA,NA,NA,NA,NA,NA,NA,NA,NA,NA,NA,NA,NA,NA
f6d8d,task,flow.Sequence,1_1_5,NA,NA,completion,8383.514,1055161.2,1055157.769,1055174.435,1063557.949,1063561.3,2023-02-05T09:23:54Z,1063574.615,"c(""distractor1"", ""distractor2"", ""distractor3"")",Qualität,mtindo,d,NA,NA,NA,NA,NA,NA,NA,NA,NA,NA,NA,NA,NA,NA,NA,NA,NA,NA,NA,NA,NA,NA,NA,NA,NA,NA
f6d8d,block,flow.Loop,1_1,NA,NA,completion,55767.2,1007784.7,1007774.083,1007790.749,1063557.949,1063561.6,2023-02-05T09:23:54Z,1063574.615,"c(""distractor1"", ""distractor2"", ""distractor3"")",NA,NA,NA,NA,NA,NA,NA,NA,NA,NA,NA,NA,NA,NA,NA,NA,NA,NA,NA,NA,NA,NA,NA,NA,NA,NA,NA,NA,NA
f6d8d,Practice,flow.Sequence,1,NA,NA,completion,57583.794,1005960.5,1005957.489,1005974.155,1063557.949,1063561.9,2023-02-05T09:23:54Z,1063574.615,NULL,NA,NA,NA,NA,NA,NA,NA,NA,NA,NA,NA,NA,NA,NA,NA,NA,NA,NA,NA,NA,NA,NA,NA,NA,NA,NA,NA,NA,NA
f6d8d,Experiment start,canvas.Screen,2,weiter,keypress(q),response,24210.284999991,1063562,1063557.949,1063574.615,1087784.9,1087790.9,2023-02-05T09:24:19Z,1087856.977,NULL,NA,NA,NA,NA,NA,NA,NA,NA,NA,NA,NA,NA,NA,NA,NA,NA,NA,NA,NA,NA,NA,NA,NA,NA,NA,NA,NA,NA,NA
f6d8d,deep,flow.Sequence,3_0_0_0_0_0,NA,NA,skipped,NA,1087849.6,NA,NA,1087784.9,1087849.7,2023-02-05T09:24:19Z,1087856.977,NULL,Widerstand,usulubu,s,kusababisha,mwalimu,mwenendo,NA,sdf,NA,0,NA,NA,NA,NA,NA,NA,NA,NA,NA,NA,NA,NA,NA,NA,NA,NA,NA,NA,NA
f6d8d,Shallow Question,html.Page,3_0_0_0_0_1_0,NA,NA,form submission,8656.023,1087849.7,1087840.311,1087856.977,1096513,1096513.6,2023-02-05T09:24:27Z,1096525.008,NULL,Widerstand,usulubu,s,kusababisha,mwalimu,mwenendo,usulubu,NA,NA,0,NA,NA,NA,NA,NA,NA,NA,NA,NA,NA,NA,NA,NA,NA,NA,NA,NA,NA,NA
f6d8d,"""Richtig""-Screen",canvas.Screen,3_0_0_0_0_1_1,NA,NA,timeout,4999.8,1096516.5,1096508.342,1096525.008,1101508.142,1101510.1,2023-02-05T09:24:32Z,1101524.808,NULL,Widerstand,usulubu,s,kusababisha,mwalimu,mwenendo,NA,sdf,1,0,NA,NA,NA,NA,NA,NA,NA,NA,NA,NA,NA,NA,NA,NA,NA,NA,NA,NA,NA
f6d8d,"""Falsch""-Screen",canvas.Screen,3_0_0_0_0_1_2,NA,NA,skipped,NA,1101514.8,NA,NA,1101508.142,1101515,2023-02-05T09:24:32Z,1101524.808,NULL,Widerstand,usulubu,s,kusababisha,mwalimu,mwenendo,NA,sdf,NA,0,NA,NA,NA,NA,NA,NA,NA,NA,NA,NA,NA,NA,NA,NA,NA,NA,NA,NA,NA
f6d8d,shallow,flow.Sequence,3_0_0_0_0_1,NA,NA,completion,13651.165,1087849.7,1087840.311,1087856.977,1101508.142,1101515.3,2023-02-05T09:24:32Z,1101524.808,NULL,Widerstand,usulubu,s,kusababisha,mwalimu,mwenendo,NA,sdf,NA,0,NA,NA,NA,NA,NA,NA,NA,NA,NA,NA,NA,NA,NA,NA,NA,NA,NA,NA,NA
f6d8d,task,flow.Sequence,3_0_0_0_0,NA,NA,completion,13651.165,1087849.6,1087840.311,1087856.977,1101508.142,1101515.4,2023-02-05T09:24:32Z,1101524.808,NULL,Widerstand,usulubu,s,kusababisha,mwalimu,mwenendo,NA,sdf,NA,0,NA,NA,NA,NA,NA,NA,NA,NA,NA,NA,NA,NA,NA,NA,NA,NA,NA,NA,NA
f6d8d,deep,flow.Sequence,3_0_0_0_1_0,NA,NA,skipped,NA,1101515.5,NA,NA,1101508.142,1101515.6,2023-02-05T09:24:32Z,1101524.808,NULL,Wohlstand,mafanikio,s,chimbuko,kumbuko,mapwaji,NA,sdf,NA,0,NA,NA,NA,NA,NA,NA,NA,NA,NA,NA,NA,NA,NA,NA,NA,NA,NA,NA,NA
f6d8d,Shallow Question,html.Page,3_0_0_0_1_1_0,NA,NA,form submission,4272.0919999911,1101515.8,1101508.142,1101524.808,1105796.9,1105797.5,2023-02-05T09:24:37Z,1105808.68,NULL,Wohlstand,mafanikio,s,chimbuko,kumbuko,mapwaji,kumbuko,NA,NA,0,NA,NA,NA,NA,NA,NA,NA,NA,NA,NA,NA,NA,NA,NA,NA,NA,NA,NA,NA
f6d8d,"""Richtig""-Screen",canvas.Screen,3_0_0_0_1_1_1,NA,NA,skipped,NA,1105800.2,NA,NA,1105796.9,1105800.4,2023-02-05T09:24:37Z,1105808.68,NULL,Wohlstand,mafanikio,s,chimbuko,kumbuko,mapwaji,NA,sdf,NA,0,NA,NA,NA,NA,NA,NA,NA,NA,NA,NA,NA,NA,NA,NA,NA,NA,NA,NA,NA
f6d8d,"""Falsch""-Screen",canvas.Screen,3_0_0_0_1_1_2,NA,NA,timeout,4999.8,1105801.5,1105792.014,1105808.68,1110791.814,1110794,2023-02-05T09:24:42Z,1110808.48,NULL,Wohlstand,mafanikio,s,chimbuko,kumbuko,mapwaji,NA,sdf,0,0,NA,NA,NA,NA,NA,NA,NA,NA,NA,NA,NA,NA,NA,NA,NA,NA,NA,NA,NA
f6d8d,shallow,flow.Sequence,3_0_0_0_1_1,NA,NA,completion,9267.0060000001,1101515.7,1101508.142,1101524.808,1110791.814,1110794.5,2023-02-05T09:24:42Z,1110808.48,NULL,Wohlstand,mafanikio,s,chimbuko,kumbuko,mapwaji,NA,sdf,NA,0,NA,NA,NA,NA,NA,NA,NA,NA,NA,NA,NA,NA,NA,NA,NA,NA,NA,NA,NA
f6d8d,task,flow.Sequence,3_0_0_0_1,NA,NA,completion,9267.0060000001,1101515.5,1101508.142,1101524.808,1110791.814,1110794.7,2023-02-05T09:24:42Z,1110808.48,NULL,Wohlstand,mafanikio,s,chimbuko,kumbuko,mapwaji,NA,sdf,NA,0,NA,NA,NA,NA,NA,NA,NA,NA,NA,NA,NA,NA,NA,NA,NA,NA,NA,NA,NA
f6d8d,Deep Question,html.Page,3_0_0_0_2_0_0,NA,NA,form submission,5570.9199999911,1110794.9,1110791.814,1110808.48,1116379.4,1116379.8,2023-02-05T09:24:47Z,1116392.319,NULL,Vergnügen,kichekesho,d,NA,NA,NA,a,NA,NA,0,NA,NA,NA,NA,NA,NA,NA,NA,NA,NA,NA,NA,NA,NA,NA,NA,NA,NA,NA
f6d8d,"""Richtig""-Screen",canvas.Screen,3_0_0_0_2_0_1,NA,NA,skipped,NA,1116382.7,NA,NA,1116379.4,1116382.8,2023-02-05T09:24:47Z,1116392.319,NULL,Vergnügen,kichekesho,d,NA,NA,NA,NA,sdf,NA,0,NA,NA,NA,NA,NA,NA,NA,NA,NA,NA,NA,NA,NA,NA,NA,NA,NA,NA,NA
f6d8d,"""Falsch""-Screen",canvas.Screen,3_0_0_0_2_0_2,NA,NA,timeout,4999.8,1116383.5,1116375.653,1116392.319,1121375.453,1121377.8,2023-02-05T09:24:52Z,1121392.119,NULL,Vergnügen,kichekesho,d,NA,NA,NA,NA,sdf,0,0,NA,NA,NA,NA,NA,NA,NA,NA,NA,NA,NA,NA,NA,NA,NA,NA,NA,NA,NA
f6d8d,deep,flow.Sequence,3_0_0_0_2_0,NA,NA,completion,10566.973,1110794.8,1110791.814,1110808.48,1121375.453,1121378.2,2023-02-05T09:24:52Z,1121392.119,NULL,Vergnügen,kichekesho,d,NA,NA,NA,NA,sdf,NA,0,NA,NA,NA,NA,NA,NA,NA,NA,NA,NA,NA,NA,NA,NA,NA,NA,NA,NA,NA
f6d8d,shallow,flow.Sequence,3_0_0_0_2_1,NA,NA,skipped,NA,1121378.3,NA,NA,1121375.453,1121378.5,2023-02-05T09:24:52Z,1121392.119,NULL,Vergnügen,kichekesho,d,NA,NA,NA,NA,sdf,NA,0,NA,NA,NA,NA,NA,NA,NA,NA,NA,NA,NA,NA,NA,NA,NA,NA,NA,NA,NA
f6d8d,task,flow.Sequence,3_0_0_0_2,NA,NA,completion,10566.973,1110794.8,1110791.814,1110808.48,1121375.453,1121378.8,2023-02-05T09:24:52Z,1121392.119,NULL,Vergnügen,kichekesho,d,NA,NA,NA,NA,sdf,NA,0,NA,NA,NA,NA,NA,NA,NA,NA,NA,NA,NA,NA,NA,NA,NA,NA,NA,NA,NA
f6d8d,Deep Question,html.Page,3_0_0_0_3_0_0,NA,NA,form submission,4052.8810000001,1121379,1121375.453,1121392.119,1125445,1125445.2,2023-02-05T09:24:56Z,1125459.171,NULL,Notfall,dharura,d,NA,NA,NA,a,NA,NA,0,NA,NA,NA,NA,NA,NA,NA,NA,NA,NA,NA,NA,NA,NA,NA,NA,NA,NA,NA
f6d8d,"""Richtig""-Screen",canvas.Screen,3_0_0_0_3_0_1,NA,NA,skipped,NA,1125448.1,NA,NA,1125445,1125448.2,2023-02-05T09:24:56Z,1125459.171,NULL,Notfall,dharura,d,NA,NA,NA,NA,sdf,NA,0,NA,NA,NA,NA,NA,NA,NA,NA,NA,NA,NA,NA,NA,NA,NA,NA,NA,NA,NA
f6d8d,"""Falsch""-Screen",canvas.Screen,3_0_0_0_3_0_2,NA,NA,timeout,4999.7999999998,1125448.7,1125442.505,1125459.171,1130442.305,1130444.9,2023-02-05T09:25:01Z,1130458.971,NULL,Notfall,dharura,d,NA,NA,NA,NA,sdf,0,0,NA,NA,NA,NA,NA,NA,NA,NA,NA,NA,NA,NA,NA,NA,NA,NA,NA,NA,NA
f6d8d,deep,flow.Sequence,3_0_0_0_3_0,NA,NA,completion,9050.186,1121379,1121375.453,1121392.119,1130442.305,1130445.4,2023-02-05T09:25:01Z,1130458.971,NULL,Notfall,dharura,d,NA,NA,NA,NA,sdf,NA,0,NA,NA,NA,NA,NA,NA,NA,NA,NA,NA,NA,NA,NA,NA,NA,NA,NA,NA,NA
f6d8d,shallow,flow.Sequence,3_0_0_0_3_1,NA,NA,skipped,NA,1130445.6,NA,NA,1130442.305,1130445.7,2023-02-05T09:25:01Z,1130458.971,NULL,Notfall,dharura,d,NA,NA,NA,NA,sdf,NA,0,NA,NA,NA,NA,NA,NA,NA,NA,NA,NA,NA,NA,NA,NA,NA,NA,NA,NA,NA
f6d8d,task,flow.Sequence,3_0_0_0_3,NA,NA,completion,9050.186,1121378.9,1121375.453,1121392.119,1130442.305,1130446,2023-02-05T09:25:01Z,1130458.971,NULL,Notfall,dharura,d,NA,NA,NA,NA,sdf,NA,0,NA,NA,NA,NA,NA,NA,NA,NA,NA,NA,NA,NA,NA,NA,NA,NA,NA,NA,NA
f6d8d,deep,flow.Sequence,3_0_0_0_4_0,NA,NA,skipped,NA,1130446.1,NA,NA,1130442.305,1130446.2,2023-02-05T09:25:01Z,1130458.971,NULL,Verstand,ufahamivu,s,shakawa,hadhari,mhandisi,NA,sdf,NA,0,NA,NA,NA,NA,NA,NA,NA,NA,NA,NA,NA,NA,NA,NA,NA,NA,NA,NA,NA
f6d8d,Shallow Question,html.Page,3_0_0_0_4_1_0,NA,NA,form submission,3555.1289999941,1130446.3,1130442.305,1130458.971,1134014.1,1134014.6,2023-02-05T09:25:05Z,1134025.891,NULL,Verstand,ufahamivu,s,shakawa,hadhari,mhandisi,hadhari,NA,NA,0,NA,NA,NA,NA,NA,NA,NA,NA,NA,NA,NA,NA,NA,NA,NA,NA,NA,NA,NA
f6d8d,"""Richtig""-Screen",canvas.Screen,3_0_0_0_4_1_1,NA,NA,skipped,NA,1134017.5,NA,NA,1134014.1,1134017.7,2023-02-05T09:25:05Z,1134025.891,NULL,Verstand,ufahamivu,s,shakawa,hadhari,mhandisi,NA,sdf,NA,0,NA,NA,NA,NA,NA,NA,NA,NA,NA,NA,NA,NA,NA,NA,NA,NA,NA,NA,NA
f6d8d,"""Falsch""-Screen",canvas.Screen,3_0_0_0_4_1_2,NA,NA,timeout,4999.8,1134018.8,1134009.225,1134025.891,1139009.025,1139011.1,2023-02-05T09:25:10Z,1139025.691,NULL,Verstand,ufahamivu,s,shakawa,hadhari,mhandisi,NA,sdf,0,0,NA,NA,NA,NA,NA,NA,NA,NA,NA,NA,NA,NA,NA,NA,NA,NA,NA,NA,NA
f6d8d,shallow,flow.Sequence,3_0_0_0_4_1,NA,NA,completion,8550.054,1130446.3,1130442.305,1130458.971,1139009.025,1139011.7,2023-02-05T09:25:10Z,1139025.691,NULL,Verstand,ufahamivu,s,shakawa,hadhari,mhandisi,NA,sdf,NA,0,NA,NA,NA,NA,NA,NA,NA,NA,NA,NA,NA,NA,NA,NA,NA,NA,NA,NA,NA
f6d8d,task,flow.Sequence,3_0_0_0_4,NA,NA,completion,8550.054,1130446,1130442.305,1130458.971,1139009.025,1139011.8,2023-02-05T09:25:10Z,1139025.691,NULL,Verstand,ufahamivu,s,shakawa,hadhari,mhandisi,NA,sdf,NA,0,NA,NA,NA,NA,NA,NA,NA,NA,NA,NA,NA,NA,NA,NA,NA,NA,NA,NA,NA
f6d8d,Deep Question,html.Page,3_0_0_0_5_0_0,NA,NA,form submission,3019.008999988,1139012.1,1139009.025,1139025.691,1142044.7,1142045,2023-02-05T09:25:13Z,1142058.903,NULL,Ausschluss,kutengwa,d,NA,NA,NA,a,NA,NA,0,NA,NA,NA,NA,NA,NA,NA,NA,NA,NA,NA,NA,NA,NA,NA,NA,NA,NA,NA
f6d8d,"""Richtig""-Screen",canvas.Screen,3_0_0_0_5_0_1,NA,NA,skipped,NA,1142047.7,NA,NA,1142044.7,1142047.8,2023-02-05T09:25:13Z,1142058.903,NULL,Ausschluss,kutengwa,d,NA,NA,NA,NA,sdf,NA,0,NA,NA,NA,NA,NA,NA,NA,NA,NA,NA,NA,NA,NA,NA,NA,NA,NA,NA,NA
f6d8d,"""Falsch""-Screen",canvas.Screen,3_0_0_0_5_0_2,NA,NA,timeout,4999.8,1142048.3,1142042.237,1142058.903,1147042.037,1147044.8,2023-02-05T09:25:18Z,1147058.703,NULL,Ausschluss,kutengwa,d,NA,NA,NA,NA,sdf,0,0,NA,NA,NA,NA,NA,NA,NA,NA,NA,NA,NA,NA,NA,NA,NA,NA,NA,NA,NA
f6d8d,deep,flow.Sequence,3_0_0_0_5_0,NA,NA,completion,8016.3459999999,1139012.1,1139009.025,1139025.691,1147042.037,1147045.1,2023-02-05T09:25:18Z,1147058.703,NULL,Ausschluss,kutengwa,d,NA,NA,NA,NA,sdf,NA,0,NA,NA,NA,NA,NA,NA,NA,NA,NA,NA,NA,NA,NA,NA,NA,NA,NA,NA,NA
f6d8d,shallow,flow.Sequence,3_0_0_0_5_1,NA,NA,skipped,NA,1147045.3,NA,NA,1147042.037,1147045.4,2023-02-05T09:25:18Z,1147058.703,NULL,Ausschluss,kutengwa,d,NA,NA,NA,NA,sdf,NA,0,NA,NA,NA,NA,NA,NA,NA,NA,NA,NA,NA,NA,NA,NA,NA,NA,NA,NA,NA
f6d8d,task,flow.Sequence,3_0_0_0_5,NA,NA,completion,8016.3459999999,1139012,1139009.025,1139025.691,1147042.037,1147045.6,2023-02-05T09:25:18Z,1147058.703,NULL,Ausschluss,kutengwa,d,NA,NA,NA,NA,sdf,NA,0,NA,NA,NA,NA,NA,NA,NA,NA,NA,NA,NA,NA,NA,NA,NA,NA,NA,NA,NA
f6d8d,Deep Question,html.Page,3_0_0_0_6_0_0,NA,NA,form submission,3803.1969999911,1147045.9,1147042.037,1147058.703,1150861.9,1150862.2,2023-02-05T09:25:22Z,1150875.914,NULL,Gelegenheit,wakati,d,NA,NA,NA,a,NA,NA,0,NA,NA,NA,NA,NA,NA,NA,NA,NA,NA,NA,NA,NA,NA,NA,NA,NA,NA,NA
f6d8d,"""Richtig""-Screen",canvas.Screen,3_0_0_0_6_0_1,NA,NA,skipped,NA,1150864.8,NA,NA,1150861.9,1150864.9,2023-02-05T09:25:22Z,1150875.914,NULL,Gelegenheit,wakati,d,NA,NA,NA,NA,sdf,NA,0,NA,NA,NA,NA,NA,NA,NA,NA,NA,NA,NA,NA,NA,NA,NA,NA,NA,NA,NA
f6d8d,"""Falsch""-Screen",canvas.Screen,3_0_0_0_6_0_2,NA,NA,timeout,4999.7999999998,1150865.6,1150859.248,1150875.914,1155859.048,1155860.9,2023-02-05T09:25:27Z,1155875.714,NULL,Gelegenheit,wakati,d,NA,NA,NA,NA,sdf,0,0,NA,NA,NA,NA,NA,NA,NA,NA,NA,NA,NA,NA,NA,NA,NA,NA,NA,NA,NA
f6d8d,deep,flow.Sequence,3_0_0_0_6_0,NA,NA,completion,8800.345,1147045.8,1147042.037,1147058.703,1155859.048,1155861.4,2023-02-05T09:25:27Z,1155875.714,NULL,Gelegenheit,wakati,d,NA,NA,NA,NA,sdf,NA,0,NA,NA,NA,NA,NA,NA,NA,NA,NA,NA,NA,NA,NA,NA,NA,NA,NA,NA,NA
f6d8d,shallow,flow.Sequence,3_0_0_0_6_1,NA,NA,skipped,NA,1155861.6,NA,NA,1155859.048,1155861.8,2023-02-05T09:25:27Z,1155875.714,NULL,Gelegenheit,wakati,d,NA,NA,NA,NA,sdf,NA,0,NA,NA,NA,NA,NA,NA,NA,NA,NA,NA,NA,NA,NA,NA,NA,NA,NA,NA,NA
f6d8d,task,flow.Sequence,3_0_0_0_6,NA,NA,completion,8800.345,1147045.7,1147042.037,1147058.703,1155859.048,1155862,2023-02-05T09:25:27Z,1155875.714,NULL,Gelegenheit,wakati,d,NA,NA,NA,NA,sdf,NA,0,NA,NA,NA,NA,NA,NA,NA,NA,NA,NA,NA,NA,NA,NA,NA,NA,NA,NA,NA
f6d8d,deep,flow.Sequence,3_0_0_0_7_0,NA,NA,skipped,NA,1155862.1,NA,NA,1155859.048,1155862.1,2023-02-05T09:25:27Z,1155875.714,NULL,Ergänzung,kijalizo,s,ulaghai,mustarehe,matangazo,NA,sdf,NA,0,NA,NA,NA,NA,NA,NA,NA,NA,NA,NA,NA,NA,NA,NA,NA,NA,NA,NA,NA
f6d8d,Shallow Question,html.Page,3_0_0_0_7_1_0,NA,NA,form submission,3255.7860000001,1155862.3,1155859.048,1155875.714,1159131.5,1159132,2023-02-05T09:25:30Z,1159142.735,NULL,Ergänzung,kijalizo,s,ulaghai,mustarehe,matangazo,matangazo,NA,NA,0,NA,NA,NA,NA,NA,NA,NA,NA,NA,NA,NA,NA,NA,NA,NA,NA,NA,NA,NA
f6d8d,"""Richtig""-Screen",canvas.Screen,3_0_0_0_7_1_1,NA,NA,skipped,NA,1159135,NA,NA,1159131.5,1159135.2,2023-02-05T09:25:30Z,1159142.735,NULL,Ergänzung,kijalizo,s,ulaghai,mustarehe,matangazo,NA,sdf,NA,0,NA,NA,NA,NA,NA,NA,NA,NA,NA,NA,NA,NA,NA,NA,NA,NA,NA,NA,NA
f6d8d,"""Falsch""-Screen",canvas.Screen,3_0_0_0_7_1_2,NA,NA,timeout,4999.7999999998,1159136.5,1159126.069,1159142.735,1164125.869,1164128.6,2023-02-05T09:25:35Z,1164142.535,NULL,Ergänzung,kijalizo,s,ulaghai,mustarehe,matangazo,NA,sdf,0,0,NA,NA,NA,NA,NA,NA,NA,NA,NA,NA,NA,NA,NA,NA,NA,NA,NA,NA,NA
f6d8d,shallow,flow.Sequence,3_0_0_0_7_1,NA,NA,completion,8250.155,1155862.2,1155859.048,1155875.714,1164125.869,1164129.1,2023-02-05T09:25:35Z,1164142.535,NULL,Ergänzung,kijalizo,s,ulaghai,mustarehe,matangazo,NA,sdf,NA,0,NA,NA,NA,NA,NA,NA,NA,NA,NA,NA,NA,NA,NA,NA,NA,NA,NA,NA,NA
f6d8d,task,flow.Sequence,3_0_0_0_7,NA,NA,completion,8250.155,1155862.1,1155859.048,1155875.714,1164125.869,1164129.3,2023-02-05T09:25:35Z,1164142.535,NULL,Ergänzung,kijalizo,s,ulaghai,mustarehe,matangazo,NA,sdf,NA,0,NA,NA,NA,NA,NA,NA,NA,NA,NA,NA,NA,NA,NA,NA,NA,NA,NA,NA,NA
f6d8d,block,flow.Loop,3_0_0_0,NA,NA,completion,76268.892,1087849.6,1087840.311,1087856.977,1164125.869,1164129.6,2023-02-05T09:25:35Z,1164142.535,NULL,NA,NA,NA,NA,NA,NA,NA,sdf,NA,0,NA,NA,NA,NA,NA,NA,NA,NA,NA,NA,NA,NA,NA,NA,NA,NA,NA,NA,NA
f6d8d,weiter,canvas.Screen,3_0_0_1,sdf,keypress(Space),response,1328.8649999911,1164129.7,1164125.869,1164142.535,1165471.4,1165475.6,2023-02-05T09:25:36Z,1165492.481,NULL,NA,NA,NA,NA,NA,NA,NA,sdf,NA,0,NA,NA,NA,NA,NA,NA,NA,NA,NA,NA,NA,NA,NA,NA,NA,NA,NA,NA,NA
f6d8d,check continue,flow.Sequence,3_0_0,NA,NA,completion,77614.422999991,1087849.5,1087840.311,1087856.977,1165471.4,1165475.9,2023-02-05T09:25:36Z,1165492.481,NULL,NA,NA,NA,NA,NA,NA,NA,sdf,NA,0,NA,NA,NA,NA,NA,NA,NA,NA,NA,NA,NA,NA,NA,NA,NA,NA,NA,NA,NA
f6d8d,Deep Question,html.Page,3_0_1_0_0_0_0,NA,NA,form submission,9386.9189999911,1165503.3,1165459.149,1165492.481,1174879.4,1174879.7,2023-02-05T09:25:46Z,1174892.697,NULL,Gelegenheit,wakati,d,NA,NA,NA,a,NA,NA,1,NA,NA,NA,NA,NA,NA,NA,NA,NA,NA,NA,NA,NA,NA,NA,NA,NA,NA,NA
f6d8d,"""Richtig""-Screen",canvas.Screen,3_0_1_0_0_0_1,NA,NA,skipped,NA,1174882.4,NA,NA,1174879.4,1174882.5,2023-02-05T09:25:46Z,1174892.697,NULL,Gelegenheit,wakati,d,NA,NA,NA,NA,sdfdsf,NA,1,NA,NA,NA,NA,NA,NA,NA,NA,NA,NA,NA,NA,NA,NA,NA,NA,NA,NA,NA
f6d8d,"""Falsch""-Screen",canvas.Screen,3_0_1_0_0_0_2,NA,NA,timeout,4999.8,1174883.2,1174876.031,1174892.697,1179875.831,1179878,2023-02-05T09:25:51Z,1179892.497,NULL,Gelegenheit,wakati,d,NA,NA,NA,NA,sdfdsf,0,1,NA,NA,NA,NA,NA,NA,NA,NA,NA,NA,NA,NA,NA,NA,NA,NA,NA,NA,NA
f6d8d,deep,flow.Sequence,3_0_1_0_0_0,NA,NA,completion,14383.35,1165503.3,1165459.149,1165492.481,1179875.831,1179878.5,2023-02-05T09:25:51Z,1179892.497,NULL,Gelegenheit,wakati,d,NA,NA,NA,NA,sdfdsf,NA,1,NA,NA,NA,NA,NA,NA,NA,NA,NA,NA,NA,NA,NA,NA,NA,NA,NA,NA,NA
f6d8d,shallow,flow.Sequence,3_0_1_0_0_1,NA,NA,skipped,NA,1179878.6,NA,NA,1179875.831,1179878.7,2023-02-05T09:25:51Z,1179892.497,NULL,Gelegenheit,wakati,d,NA,NA,NA,NA,sdfdsf,NA,1,NA,NA,NA,NA,NA,NA,NA,NA,NA,NA,NA,NA,NA,NA,NA,NA,NA,NA,NA
f6d8d,task,flow.Sequence,3_0_1_0_0,NA,NA,completion,14383.35,1165503.3,1165459.149,1165492.481,1179875.831,1179878.9,2023-02-05T09:25:51Z,1179892.497,NULL,Gelegenheit,wakati,d,NA,NA,NA,NA,sdfdsf,NA,1,NA,NA,NA,NA,NA,NA,NA,NA,NA,NA,NA,NA,NA,NA,NA,NA,NA,NA,NA
f6d8d,Deep Question,html.Page,3_0_1_0_1_0_0,NA,NA,form submission,5669.4029999911,1179879,1179875.831,1179892.497,1185561.9,1185562.2,2023-02-05T09:25:56Z,1185576.235,NULL,Notfall,dharura,d,NA,NA,NA,a,NA,NA,1,NA,NA,NA,NA,NA,NA,NA,NA,NA,NA,NA,NA,NA,NA,NA,NA,NA,NA,NA
f6d8d,"""Richtig""-Screen",canvas.Screen,3_0_1_0_1_0_1,NA,NA,skipped,NA,1185565,NA,NA,1185561.9,1185565.1,2023-02-05T09:25:56Z,1185576.235,NULL,Notfall,dharura,d,NA,NA,NA,NA,sdfdsf,NA,1,NA,NA,NA,NA,NA,NA,NA,NA,NA,NA,NA,NA,NA,NA,NA,NA,NA,NA,NA
f6d8d,"""Falsch""-Screen",canvas.Screen,3_0_1_0_1_0_2,NA,NA,timeout,4999.7999999998,1185565.6,1185559.569,1185576.235,1190559.369,1190561.2,2023-02-05T09:26:01Z,1190576.035,NULL,Notfall,dharura,d,NA,NA,NA,NA,sdfdsf,0,1,NA,NA,NA,NA,NA,NA,NA,NA,NA,NA,NA,NA,NA,NA,NA,NA,NA,NA,NA
f6d8d,deep,flow.Sequence,3_0_1_0_1_0,NA,NA,completion,10666.872,1179879,1179875.831,1179892.497,1190559.369,1190561.6,2023-02-05T09:26:01Z,1190576.035,NULL,Notfall,dharura,d,NA,NA,NA,NA,sdfdsf,NA,1,NA,NA,NA,NA,NA,NA,NA,NA,NA,NA,NA,NA,NA,NA,NA,NA,NA,NA,NA
f6d8d,shallow,flow.Sequence,3_0_1_0_1_1,NA,NA,skipped,NA,1190561.9,NA,NA,1190559.369,1190561.9,2023-02-05T09:26:01Z,1190576.035,NULL,Notfall,dharura,d,NA,NA,NA,NA,sdfdsf,NA,1,NA,NA,NA,NA,NA,NA,NA,NA,NA,NA,NA,NA,NA,NA,NA,NA,NA,NA,NA
f6d8d,task,flow.Sequence,3_0_1_0_1,NA,NA,completion,10666.872,1179879,1179875.831,1179892.497,1190559.369,1190562.2,2023-02-05T09:26:01Z,1190576.035,NULL,Notfall,dharura,d,NA,NA,NA,NA,sdfdsf,NA,1,NA,NA,NA,NA,NA,NA,NA,NA,NA,NA,NA,NA,NA,NA,NA,NA,NA,NA,NA
f6d8d,deep,flow.Sequence,3_0_1_0_2_0,NA,NA,skipped,NA,1190562.3,NA,NA,1190559.369,1190562.5,2023-02-05T09:26:01Z,1190576.035,NULL,Verstand,ufahamivu,s,shakawa,hadhari,mhandisi,NA,sdfdsf,NA,1,NA,NA,NA,NA,NA,NA,NA,NA,NA,NA,NA,NA,NA,NA,NA,NA,NA,NA,NA
f6d8d,Shallow Question,html.Page,3_0_1_0_2_1_0,NA,NA,form submission,8371.2649999971,1190562.7,1190559.369,1190576.035,1198947.3,1198947.8,2023-02-05T09:26:10Z,1198959.476,NULL,Verstand,ufahamivu,s,shakawa,hadhari,mhandisi,ufahamivu,NA,NA,1,NA,NA,NA,NA,NA,NA,NA,NA,NA,NA,NA,NA,NA,NA,NA,NA,NA,NA,NA
f6d8d,"""Richtig""-Screen",canvas.Screen,3_0_1_0_2_1_1,NA,NA,timeout,4999.8,1198950.4,1198942.81,1198959.476,1203942.61,1203944.2,2023-02-05T09:26:15Z,1203959.276,NULL,Verstand,ufahamivu,s,shakawa,hadhari,mhandisi,NA,sdfdsf,1,1,NA,NA,NA,NA,NA,NA,NA,NA,NA,NA,NA,NA,NA,NA,NA,NA,NA,NA,NA
f6d8d,"""Falsch""-Screen",canvas.Screen,3_0_1_0_2_1_2,NA,NA,skipped,NA,1203948.4,NA,NA,1203942.61,1203948.6,2023-02-05T09:26:15Z,1203959.276,NULL,Verstand,ufahamivu,s,shakawa,hadhari,mhandisi,NA,sdfdsf,NA,1,NA,NA,NA,NA,NA,NA,NA,NA,NA,NA,NA,NA,NA,NA,NA,NA,NA,NA,NA
f6d8d,shallow,flow.Sequence,3_0_1_0_2_1,NA,NA,completion,13366.575,1190562.7,1190559.369,1190576.035,1203942.61,1203948.8,2023-02-05T09:26:15Z,1203959.276,NULL,Verstand,ufahamivu,s,shakawa,hadhari,mhandisi,NA,sdfdsf,NA,1,NA,NA,NA,NA,NA,NA,NA,NA,NA,NA,NA,NA,NA,NA,NA,NA,NA,NA,NA
f6d8d,task,flow.Sequence,3_0_1_0_2,NA,NA,completion,13366.575,1190562.3,1190559.369,1190576.035,1203942.61,1203948.9,2023-02-05T09:26:15Z,1203959.276,NULL,Verstand,ufahamivu,s,shakawa,hadhari,mhandisi,NA,sdfdsf,NA,1,NA,NA,NA,NA,NA,NA,NA,NA,NA,NA,NA,NA,NA,NA,NA,NA,NA,NA,NA
f6d8d,deep,flow.Sequence,3_0_1_0_3_0,NA,NA,skipped,NA,1203949,NA,NA,1203942.61,1203949.2,2023-02-05T09:26:15Z,1203959.276,NULL,Widerstand,usulubu,s,kusababisha,mwalimu,mwenendo,NA,sdfdsf,NA,1,NA,NA,NA,NA,NA,NA,NA,NA,NA,NA,NA,NA,NA,NA,NA,NA,NA,NA,NA
f6d8d,Shallow Question,html.Page,3_0_1_0_3_1_0,NA,NA,form submission,11104.823999994,1203949.2,1203942.61,1203959.276,1215064.1,1215064.7,2023-02-05T09:26:26Z,1215076.814,NULL,Widerstand,usulubu,s,kusababisha,mwalimu,mwenendo,usulubu,NA,NA,1,NA,NA,NA,NA,NA,NA,NA,NA,NA,NA,NA,NA,NA,NA,NA,NA,NA,NA,NA
f6d8d,"""Richtig""-Screen",canvas.Screen,3_0_1_0_3_1_1,NA,NA,timeout,4999.8,1215067.2,1215060.148,1215076.814,1220059.948,1220062.3,2023-02-05T09:26:31Z,1220076.614,NULL,Widerstand,usulubu,s,kusababisha,mwalimu,mwenendo,NA,sdfdsf,1,1,NA,NA,NA,NA,NA,NA,NA,NA,NA,NA,NA,NA,NA,NA,NA,NA,NA,NA,NA
f6d8d,"""Falsch""-Screen",canvas.Screen,3_0_1_0_3_1_2,NA,NA,skipped,NA,1220066.1,NA,NA,1220059.948,1220066.2,2023-02-05T09:26:31Z,1220076.614,NULL,Widerstand,usulubu,s,kusababisha,mwalimu,mwenendo,NA,sdfdsf,NA,1,NA,NA,NA,NA,NA,NA,NA,NA,NA,NA,NA,NA,NA,NA,NA,NA,NA,NA,NA
f6d8d,shallow,flow.Sequence,3_0_1_0_3_1,NA,NA,completion,16100.672,1203949.2,1203942.61,1203959.276,1220059.948,1220066.4,2023-02-05T09:26:31Z,1220076.614,NULL,Widerstand,usulubu,s,kusababisha,mwalimu,mwenendo,NA,sdfdsf,NA,1,NA,NA,NA,NA,NA,NA,NA,NA,NA,NA,NA,NA,NA,NA,NA,NA,NA,NA,NA
f6d8d,task,flow.Sequence,3_0_1_0_3,NA,NA,completion,16100.672,1203949,1203942.61,1203959.276,1220059.948,1220066.5,2023-02-05T09:26:31Z,1220076.614,NULL,Widerstand,usulubu,s,kusababisha,mwalimu,mwenendo,NA,sdfdsf,NA,1,NA,NA,NA,NA,NA,NA,NA,NA,NA,NA,NA,NA,NA,NA,NA,NA,NA,NA,NA
f6d8d,Deep Question,html.Page,3_0_1_0_4_0_0,NA,NA,form submission,7087.485999994,1220066.6,1220059.948,1220076.614,1227164.1,1227164.6,2023-02-05T09:26:38Z,1227176.909,NULL,Vergnügen,kichekesho,d,NA,NA,NA,kicherhikio,NA,NA,1,NA,NA,NA,NA,NA,NA,NA,NA,NA,NA,NA,NA,NA,NA,NA,NA,NA,NA,NA
f6d8d,"""Richtig""-Screen",canvas.Screen,3_0_1_0_4_0_1,NA,NA,skipped,NA,1227167,NA,NA,1227164.1,1227167.1,2023-02-05T09:26:38Z,1227176.909,NULL,Vergnügen,kichekesho,d,NA,NA,NA,NA,sdfdsf,NA,1,NA,NA,NA,NA,NA,NA,NA,NA,NA,NA,NA,NA,NA,NA,NA,NA,NA,NA,NA
f6d8d,"""Falsch""-Screen",canvas.Screen,3_0_1_0_4_0_2,NA,NA,timeout,4999.8,1227168,1227160.243,1227176.909,1232160.043,1232162.5,2023-02-05T09:26:43Z,1232176.709,NULL,Vergnügen,kichekesho,d,NA,NA,NA,NA,sdfdsf,0,1,NA,NA,NA,NA,NA,NA,NA,NA,NA,NA,NA,NA,NA,NA,NA,NA,NA,NA,NA
f6d8d,deep,flow.Sequence,3_0_1_0_4_0,NA,NA,completion,12083.429,1220066.6,1220059.948,1220076.614,1232160.043,1232163,2023-02-05T09:26:43Z,1232176.709,NULL,Vergnügen,kichekesho,d,NA,NA,NA,NA,sdfdsf,NA,1,NA,NA,NA,NA,NA,NA,NA,NA,NA,NA,NA,NA,NA,NA,NA,NA,NA,NA,NA
f6d8d,shallow,flow.Sequence,3_0_1_0_4_1,NA,NA,skipped,NA,1232163.2,NA,NA,1232160.043,1232163.3,2023-02-05T09:26:43Z,1232176.709,NULL,Vergnügen,kichekesho,d,NA,NA,NA,NA,sdfdsf,NA,1,NA,NA,NA,NA,NA,NA,NA,NA,NA,NA,NA,NA,NA,NA,NA,NA,NA,NA,NA
f6d8d,task,flow.Sequence,3_0_1_0_4,NA,NA,completion,12083.429,1220066.5,1220059.948,1220076.614,1232160.043,1232163.5,2023-02-05T09:26:43Z,1232176.709,NULL,Vergnügen,kichekesho,d,NA,NA,NA,NA,sdfdsf,NA,1,NA,NA,NA,NA,NA,NA,NA,NA,NA,NA,NA,NA,NA,NA,NA,NA,NA,NA,NA
f6d8d,deep,flow.Sequence,3_0_1_0_5_0,NA,NA,skipped,NA,1232163.7,NA,NA,1232160.043,1232163.8,2023-02-05T09:26:43Z,1232176.709,NULL,Wohlstand,mafanikio,s,chimbuko,kumbuko,mapwaji,NA,sdfdsf,NA,1,NA,NA,NA,NA,NA,NA,NA,NA,NA,NA,NA,NA,NA,NA,NA,NA,NA,NA,NA
f6d8d,Shallow Question,html.Page,3_0_1_0_5_1_0,NA,NA,form submission,8587.890999994,1232164,1232160.043,1232176.709,1240764.6,1240765.1,2023-02-05T09:26:52Z,1240776.816,NULL,Wohlstand,mafanikio,s,chimbuko,kumbuko,mapwaji,mafanikio,NA,NA,1,NA,NA,NA,NA,NA,NA,NA,NA,NA,NA,NA,NA,NA,NA,NA,NA,NA,NA,NA
f6d8d,"""Richtig""-Screen",canvas.Screen,3_0_1_0_5_1_1,NA,NA,timeout,4999.7999999998,1240767.8,1240760.15,1240776.816,1245759.95,1245762.6,2023-02-05T09:26:57Z,1245776.616,NULL,Wohlstand,mafanikio,s,chimbuko,kumbuko,mapwaji,NA,sdfdsf,1,1,NA,NA,NA,NA,NA,NA,NA,NA,NA,NA,NA,NA,NA,NA,NA,NA,NA,NA,NA
f6d8d,"""Falsch""-Screen",canvas.Screen,3_0_1_0_5_1_2,NA,NA,skipped,NA,1245766.9,NA,NA,1245759.95,1245767.1,2023-02-05T09:26:57Z,1245776.616,NULL,Wohlstand,mafanikio,s,chimbuko,kumbuko,mapwaji,NA,sdfdsf,NA,1,NA,NA,NA,NA,NA,NA,NA,NA,NA,NA,NA,NA,NA,NA,NA,NA,NA,NA,NA
f6d8d,shallow,flow.Sequence,3_0_1_0_5_1,NA,NA,completion,13583.241,1232163.9,1232160.043,1232176.709,1245759.95,1245767.3,2023-02-05T09:26:57Z,1245776.616,NULL,Wohlstand,mafanikio,s,chimbuko,kumbuko,mapwaji,NA,sdfdsf,NA,1,NA,NA,NA,NA,NA,NA,NA,NA,NA,NA,NA,NA,NA,NA,NA,NA,NA,NA,NA
f6d8d,task,flow.Sequence,3_0_1_0_5,NA,NA,completion,13583.241,1232163.7,1232160.043,1232176.709,1245759.95,1245767.4,2023-02-05T09:26:57Z,1245776.616,NULL,Wohlstand,mafanikio,s,chimbuko,kumbuko,mapwaji,NA,sdfdsf,NA,1,NA,NA,NA,NA,NA,NA,NA,NA,NA,NA,NA,NA,NA,NA,NA,NA,NA,NA,NA
f6d8d,Deep Question,html.Page,3_0_1_0_6_0_0,NA,NA,form submission,8087.1839999971,1245767.6,1245759.95,1245776.616,1253863.8,1253864.1,2023-02-05T09:27:05Z,1253876.93,NULL,Ausschluss,kutengwa,d,NA,NA,NA,a,NA,NA,1,NA,NA,NA,NA,NA,NA,NA,NA,NA,NA,NA,NA,NA,NA,NA,NA,NA,NA,NA
f6d8d,"""Richtig""-Screen",canvas.Screen,3_0_1_0_6_0_1,NA,NA,skipped,NA,1253867,NA,NA,1253863.8,1253867.2,2023-02-05T09:27:05Z,1253876.93,NULL,Ausschluss,kutengwa,d,NA,NA,NA,NA,sdfdsf,NA,1,NA,NA,NA,NA,NA,NA,NA,NA,NA,NA,NA,NA,NA,NA,NA,NA,NA,NA,NA
f6d8d,"""Falsch""-Screen",canvas.Screen,3_0_1_0_6_0_2,NA,NA,timeout,4999.8,1253867.8,1253860.264,1253876.93,1258860.064,1258870,2023-02-05T09:27:10Z,1258876.73,NULL,Ausschluss,kutengwa,d,NA,NA,NA,NA,sdfdsf,0,1,NA,NA,NA,NA,NA,NA,NA,NA,NA,NA,NA,NA,NA,NA,NA,NA,NA,NA,NA
f6d8d,deep,flow.Sequence,3_0_1_0_6_0,NA,NA,completion,13083.448,1245767.6,1245759.95,1245776.616,1258860.064,1258870.4,2023-02-05T09:27:10Z,1258876.73,NULL,Ausschluss,kutengwa,d,NA,NA,NA,NA,sdfdsf,NA,1,NA,NA,NA,NA,NA,NA,NA,NA,NA,NA,NA,NA,NA,NA,NA,NA,NA,NA,NA
f6d8d,shallow,flow.Sequence,3_0_1_0_6_1,NA,NA,skipped,NA,1258870.5,NA,NA,1258860.064,1258870.6,2023-02-05T09:27:10Z,1258876.73,NULL,Ausschluss,kutengwa,d,NA,NA,NA,NA,sdfdsf,NA,1,NA,NA,NA,NA,NA,NA,NA,NA,NA,NA,NA,NA,NA,NA,NA,NA,NA,NA,NA
f6d8d,task,flow.Sequence,3_0_1_0_6,NA,NA,completion,13083.448,1245767.6,1245759.95,1245776.616,1258860.064,1258870.7,2023-02-05T09:27:10Z,1258876.73,NULL,Ausschluss,kutengwa,d,NA,NA,NA,NA,sdfdsf,NA,1,NA,NA,NA,NA,NA,NA,NA,NA,NA,NA,NA,NA,NA,NA,NA,NA,NA,NA,NA
f6d8d,deep,flow.Sequence,3_0_1_0_7_0,NA,NA,skipped,NA,1258870.7,NA,NA,1258860.064,1258870.8,2023-02-05T09:27:10Z,1258876.73,NULL,Ergänzung,kijalizo,s,ulaghai,mustarehe,matangazo,NA,sdfdsf,NA,1,NA,NA,NA,NA,NA,NA,NA,NA,NA,NA,NA,NA,NA,NA,NA,NA,NA,NA,NA
f6d8d,Shallow Question,html.Page,3_0_1_0_7_1_0,NA,NA,form submission,4621.8699999941,1258870.9,1258860.064,1258876.73,1263498.6,1263499.1,2023-02-05T09:27:14Z,1263510.443,NULL,Ergänzung,kijalizo,s,ulaghai,mustarehe,matangazo,kijalizo,NA,NA,1,NA,NA,NA,NA,NA,NA,NA,NA,NA,NA,NA,NA,NA,NA,NA,NA,NA,NA,NA
f6d8d,"""Richtig""-Screen",canvas.Screen,3_0_1_0_7_1_1,NA,NA,timeout,4999.8,1263502,1263493.777,1263510.443,1268493.577,1268496.1,2023-02-05T09:27:19Z,1268510.243,NULL,Ergänzung,kijalizo,s,ulaghai,mustarehe,matangazo,NA,sdfdsf,1,1,NA,NA,NA,NA,NA,NA,NA,NA,NA,NA,NA,NA,NA,NA,NA,NA,NA,NA,NA
f6d8d,"""Falsch""-Screen",canvas.Screen,3_0_1_0_7_1_2,NA,NA,skipped,NA,1268499.7,NA,NA,1268493.577,1268499.8,2023-02-05T09:27:19Z,1268510.243,NULL,Ergänzung,kijalizo,s,ulaghai,mustarehe,matangazo,NA,sdfdsf,NA,1,NA,NA,NA,NA,NA,NA,NA,NA,NA,NA,NA,NA,NA,NA,NA,NA,NA,NA,NA
f6d8d,shallow,flow.Sequence,3_0_1_0_7_1,NA,NA,completion,9616.8470000001,1258870.8,1258860.064,1258876.73,1268493.577,1268500,2023-02-05T09:27:19Z,1268510.243,NULL,Ergänzung,kijalizo,s,ulaghai,mustarehe,matangazo,NA,sdfdsf,NA,1,NA,NA,NA,NA,NA,NA,NA,NA,NA,NA,NA,NA,NA,NA,NA,NA,NA,NA,NA
f6d8d,task,flow.Sequence,3_0_1_0_7,NA,NA,completion,9616.8470000001,1258870.7,1258860.064,1258876.73,1268493.577,1268500.2,2023-02-05T09:27:19Z,1268510.243,NULL,Ergänzung,kijalizo,s,ulaghai,mustarehe,matangazo,NA,sdfdsf,NA,1,NA,NA,NA,NA,NA,NA,NA,NA,NA,NA,NA,NA,NA,NA,NA,NA,NA,NA,NA
f6d8d,block,flow.Loop,3_0_1_0,NA,NA,completion,103001.096,1165503.2,1165459.149,1165492.481,1268493.577,1268500.3,2023-02-05T09:27:19Z,1268510.243,NULL,NA,NA,NA,NA,NA,NA,NA,sdfdsf,NA,1,NA,NA,NA,NA,NA,NA,NA,NA,NA,NA,NA,NA,NA,NA,NA,NA,NA,NA,NA
f6d8d,weiter,canvas.Screen,3_0_1_1,sdf,keypress(Space),response,940.15699999104,1268500.4,1268493.577,1268510.243,1269450.4,1269453.8,2023-02-05T09:27:20Z,1269476.871,NULL,NA,NA,NA,NA,NA,NA,NA,sdfdsf,NA,1,NA,NA,NA,NA,NA,NA,NA,NA,NA,NA,NA,NA,NA,NA,NA,NA,NA,NA,NA
f6d8d,check continue,flow.Sequence,3_0_1,NA,NA,completion,103957.91899999,1165503.2,1165459.149,1165492.481,1269450.4,1269454.2,2023-02-05T09:27:20Z,1269476.871,NULL,NA,NA,NA,NA,NA,NA,NA,sdfdsf,NA,1,NA,NA,NA,NA,NA,NA,NA,NA,NA,NA,NA,NA,NA,NA,NA,NA,NA,NA,NA
f6d8d,deep,flow.Sequence,3_0_2_0_0_0,NA,NA,skipped,NA,1269481.9,NA,NA,1269450.4,1269481.9,2023-02-05T09:27:20Z,1269476.871,NULL,Wohlstand,mafanikio,s,chimbuko,kumbuko,mapwaji,NA,sdf,NA,2,NA,NA,NA,NA,NA,NA,NA,NA,NA,NA,NA,NA,NA,NA,NA,NA,NA,NA,NA
f6d8d,Shallow Question,html.Page,3_0_2_0_0_1_0,NA,NA,form submission,5154.828999988,1269482,1269443.539,1269476.871,1274631.7,1274632.3,2023-02-05T09:27:25Z,1274643.997,NULL,Wohlstand,mafanikio,s,chimbuko,kumbuko,mapwaji,mafanikio,NA,NA,2,NA,NA,NA,NA,NA,NA,NA,NA,NA,NA,NA,NA,NA,NA,NA,NA,NA,NA,NA
f6d8d,"""Richtig""-Screen",canvas.Screen,3_0_2_0_0_1_1,NA,NA,timeout,4999.8,1274634.9,1274627.331,1274643.997,1279627.131,1279629.7,2023-02-05T09:27:30Z,1279643.797,NULL,Wohlstand,mafanikio,s,chimbuko,kumbuko,mapwaji,NA,sdf,1,2,NA,NA,NA,NA,NA,NA,NA,NA,NA,NA,NA,NA,NA,NA,NA,NA,NA,NA,NA
f6d8d,"""Falsch""-Screen",canvas.Screen,3_0_2_0_0_1_2,NA,NA,skipped,NA,1279633.9,NA,NA,1279627.131,1279634,2023-02-05T09:27:30Z,1279643.797,NULL,Wohlstand,mafanikio,s,chimbuko,kumbuko,mapwaji,NA,sdf,NA,2,NA,NA,NA,NA,NA,NA,NA,NA,NA,NA,NA,NA,NA,NA,NA,NA,NA,NA,NA
f6d8d,shallow,flow.Sequence,3_0_2_0_0_1,NA,NA,completion,10150.26,1269482,1269443.539,1269476.871,1279627.131,1279634.2,2023-02-05T09:27:30Z,1279643.797,NULL,Wohlstand,mafanikio,s,chimbuko,kumbuko,mapwaji,NA,sdf,NA,2,NA,NA,NA,NA,NA,NA,NA,NA,NA,NA,NA,NA,NA,NA,NA,NA,NA,NA,NA
f6d8d,task,flow.Sequence,3_0_2_0_0,NA,NA,completion,10150.26,1269481.9,1269443.539,1269476.871,1279627.131,1279634.4,2023-02-05T09:27:30Z,1279643.797,NULL,Wohlstand,mafanikio,s,chimbuko,kumbuko,mapwaji,NA,sdf,NA,2,NA,NA,NA,NA,NA,NA,NA,NA,NA,NA,NA,NA,NA,NA,NA,NA,NA,NA,NA
f6d8d,deep,flow.Sequence,3_0_2_0_1_0,NA,NA,skipped,NA,1279634.5,NA,NA,1279627.131,1279634.6,2023-02-05T09:27:30Z,1279643.797,NULL,Ergänzung,kijalizo,s,ulaghai,mustarehe,matangazo,NA,sdf,NA,2,NA,NA,NA,NA,NA,NA,NA,NA,NA,NA,NA,NA,NA,NA,NA,NA,NA,NA,NA
f6d8d,Shallow Question,html.Page,3_0_2_0_1_1_0,NA,NA,form submission,3637.703,1279634.7,1279627.131,1279643.797,1283281.5,1283282.1,2023-02-05T09:27:34Z,1283294.181,NULL,Ergänzung,kijalizo,s,ulaghai,mustarehe,matangazo,kijalizo,NA,NA,2,NA,NA,NA,NA,NA,NA,NA,NA,NA,NA,NA,NA,NA,NA,NA,NA,NA,NA,NA
f6d8d,"""Richtig""-Screen",canvas.Screen,3_0_2_0_1_1_1,NA,NA,timeout,4999.7999999998,1283283.9,1283277.515,1283294.181,1288277.315,1288279.6,2023-02-05T09:27:39Z,1288293.981,NULL,Ergänzung,kijalizo,s,ulaghai,mustarehe,matangazo,NA,sdf,1,2,NA,NA,NA,NA,NA,NA,NA,NA,NA,NA,NA,NA,NA,NA,NA,NA,NA,NA,NA
f6d8d,"""Falsch""-Screen",canvas.Screen,3_0_2_0_1_1_2,NA,NA,skipped,NA,1288284.2,NA,NA,1288277.315,1288284.4,2023-02-05T09:27:39Z,1288293.981,NULL,Ergänzung,kijalizo,s,ulaghai,mustarehe,matangazo,NA,sdf,NA,2,NA,NA,NA,NA,NA,NA,NA,NA,NA,NA,NA,NA,NA,NA,NA,NA,NA,NA,NA
f6d8d,shallow,flow.Sequence,3_0_2_0_1_1,NA,NA,completion,8633.5179999999,1279634.6,1279627.131,1279643.797,1288277.315,1288284.6,2023-02-05T09:27:39Z,1288293.981,NULL,Ergänzung,kijalizo,s,ulaghai,mustarehe,matangazo,NA,sdf,NA,2,NA,NA,NA,NA,NA,NA,NA,NA,NA,NA,NA,NA,NA,NA,NA,NA,NA,NA,NA
f6d8d,task,flow.Sequence,3_0_2_0_1,NA,NA,completion,8633.5179999999,1279634.4,1279627.131,1279643.797,1288277.315,1288284.8,2023-02-05T09:27:39Z,1288293.981,NULL,Ergänzung,kijalizo,s,ulaghai,mustarehe,matangazo,NA,sdf,NA,2,NA,NA,NA,NA,NA,NA,NA,NA,NA,NA,NA,NA,NA,NA,NA,NA,NA,NA,NA
f6d8d,deep,flow.Sequence,3_0_2_0_2_0,NA,NA,skipped,NA,1288285,NA,NA,1288277.315,1288285.1,2023-02-05T09:27:39Z,1288293.981,NULL,Verstand,ufahamivu,s,shakawa,hadhari,mhandisi,NA,sdf,NA,2,NA,NA,NA,NA,NA,NA,NA,NA,NA,NA,NA,NA,NA,NA,NA,NA,NA,NA,NA
f6d8d,Shallow Question,html.Page,3_0_2_0_2_1_0,NA,NA,form submission,9837.7189999882,1288285.2,1288277.315,1288293.981,1298131.7,1298132.3,2023-02-05T09:27:49Z,1298144.122,NULL,Verstand,ufahamivu,s,shakawa,hadhari,mhandisi,ufahamivu,NA,NA,2,NA,NA,NA,NA,NA,NA,NA,NA,NA,NA,NA,NA,NA,NA,NA,NA,NA,NA,NA
f6d8d,"""Richtig""-Screen",canvas.Screen,3_0_2_0_2_1_1,NA,NA,timeout,4999.8,1298135.3,1298127.456,1298144.122,1303127.256,1303129.1,2023-02-05T09:27:54Z,1303143.922,NULL,Verstand,ufahamivu,s,shakawa,hadhari,mhandisi,NA,sdf,1,2,NA,NA,NA,NA,NA,NA,NA,NA,NA,NA,NA,NA,NA,NA,NA,NA,NA,NA,NA
f6d8d,"""Falsch""-Screen",canvas.Screen,3_0_2_0_2_1_2,NA,NA,skipped,NA,1303132.1,NA,NA,1303127.256,1303132.2,2023-02-05T09:27:54Z,1303143.922,NULL,Verstand,ufahamivu,s,shakawa,hadhari,mhandisi,NA,sdf,NA,2,NA,NA,NA,NA,NA,NA,NA,NA,NA,NA,NA,NA,NA,NA,NA,NA,NA,NA,NA
f6d8d,shallow,flow.Sequence,3_0_2_0_2_1,NA,NA,completion,14833.275,1288285.2,1288277.315,1288293.981,1303127.256,1303132.4,2023-02-05T09:27:54Z,1303143.922,NULL,Verstand,ufahamivu,s,shakawa,hadhari,mhandisi,NA,sdf,NA,2,NA,NA,NA,NA,NA,NA,NA,NA,NA,NA,NA,NA,NA,NA,NA,NA,NA,NA,NA
f6d8d,task,flow.Sequence,3_0_2_0_2,NA,NA,completion,14833.275,1288284.9,1288277.315,1288293.981,1303127.256,1303132.5,2023-02-05T09:27:54Z,1303143.922,NULL,Verstand,ufahamivu,s,shakawa,hadhari,mhandisi,NA,sdf,NA,2,NA,NA,NA,NA,NA,NA,NA,NA,NA,NA,NA,NA,NA,NA,NA,NA,NA,NA,NA
f6d8d,deep,flow.Sequence,3_0_2_0_3_0,NA,NA,skipped,NA,1303132.6,NA,NA,1303127.256,1303132.6,2023-02-05T09:27:54Z,1303143.922,NULL,Widerstand,usulubu,s,kusababisha,mwalimu,mwenendo,NA,sdf,NA,2,NA,NA,NA,NA,NA,NA,NA,NA,NA,NA,NA,NA,NA,NA,NA,NA,NA,NA,NA
f6d8d,Shallow Question,html.Page,3_0_2_0_3_1_0,NA,NA,form submission,4671.477999991,1303132.7,1303127.256,1303143.922,1307815.4,1307816,2023-02-05T09:27:59Z,1307827.754,NULL,Widerstand,usulubu,s,kusababisha,mwalimu,mwenendo,usulubu,NA,NA,2,NA,NA,NA,NA,NA,NA,NA,NA,NA,NA,NA,NA,NA,NA,NA,NA,NA,NA,NA
f6d8d,"""Richtig""-Screen",canvas.Screen,3_0_2_0_3_1_1,NA,NA,timeout,4999.8,1307819.6,1307811.088,1307827.754,1312810.888,1312813.1,2023-02-05T09:28:04Z,1312827.554,NULL,Widerstand,usulubu,s,kusababisha,mwalimu,mwenendo,NA,sdf,1,2,NA,NA,NA,NA,NA,NA,NA,NA,NA,NA,NA,NA,NA,NA,NA,NA,NA,NA,NA
f6d8d,"""Falsch""-Screen",canvas.Screen,3_0_2_0_3_1_2,NA,NA,skipped,NA,1312817.7,NA,NA,1312810.888,1312817.8,2023-02-05T09:28:04Z,1312827.554,NULL,Widerstand,usulubu,s,kusababisha,mwalimu,mwenendo,NA,sdf,NA,2,NA,NA,NA,NA,NA,NA,NA,NA,NA,NA,NA,NA,NA,NA,NA,NA,NA,NA,NA
f6d8d,shallow,flow.Sequence,3_0_2_0_3_1,NA,NA,completion,9666.966,1303132.7,1303127.256,1303143.922,1312810.888,1312818,2023-02-05T09:28:04Z,1312827.554,NULL,Widerstand,usulubu,s,kusababisha,mwalimu,mwenendo,NA,sdf,NA,2,NA,NA,NA,NA,NA,NA,NA,NA,NA,NA,NA,NA,NA,NA,NA,NA,NA,NA,NA
f6d8d,task,flow.Sequence,3_0_2_0_3,NA,NA,completion,9666.966,1303132.6,1303127.256,1303143.922,1312810.888,1312818.2,2023-02-05T09:28:04Z,1312827.554,NULL,Widerstand,usulubu,s,kusababisha,mwalimu,mwenendo,NA,sdf,NA,2,NA,NA,NA,NA,NA,NA,NA,NA,NA,NA,NA,NA,NA,NA,NA,NA,NA,NA,NA
f6d8d,Deep Question,html.Page,3_0_2_0_4_0_0,NA,NA,form submission,7169.6459999881,1312818.4,1312810.888,1312827.554,1319997.2,1319997.5,2023-02-05T09:28:11Z,1320011.077,NULL,Notfall,dharura,d,NA,NA,NA,dahinwa,NA,NA,2,NA,NA,NA,NA,NA,NA,NA,NA,NA,NA,NA,NA,NA,NA,NA,NA,NA,NA,NA
f6d8d,"""Richtig""-Screen",canvas.Screen,3_0_2_0_4_0_1,NA,NA,skipped,NA,1320000.2,NA,NA,1319997.2,1320000.2,2023-02-05T09:28:11Z,1320011.077,NULL,Notfall,dharura,d,NA,NA,NA,NA,sdf,NA,2,NA,NA,NA,NA,NA,NA,NA,NA,NA,NA,NA,NA,NA,NA,NA,NA,NA,NA,NA
f6d8d,"""Falsch""-Screen",canvas.Screen,3_0_2_0_4_0_2,NA,NA,timeout,4999.8,1320001,1319994.411,1320011.077,1324994.211,1324996,2023-02-05T09:28:16Z,1325010.877,NULL,Notfall,dharura,d,NA,NA,NA,NA,sdf,0,2,NA,NA,NA,NA,NA,NA,NA,NA,NA,NA,NA,NA,NA,NA,NA,NA,NA,NA,NA
f6d8d,deep,flow.Sequence,3_0_2_0_4_0,NA,NA,completion,12166.657,1312818.4,1312810.888,1312827.554,1324994.211,1324996.5,2023-02-05T09:28:16Z,1325010.877,NULL,Notfall,dharura,d,NA,NA,NA,NA,sdf,NA,2,NA,NA,NA,NA,NA,NA,NA,NA,NA,NA,NA,NA,NA,NA,NA,NA,NA,NA,NA
f6d8d,shallow,flow.Sequence,3_0_2_0_4_1,NA,NA,skipped,NA,1324996.6,NA,NA,1324994.211,1324996.7,2023-02-05T09:28:16Z,1325010.877,NULL,Notfall,dharura,d,NA,NA,NA,NA,sdf,NA,2,NA,NA,NA,NA,NA,NA,NA,NA,NA,NA,NA,NA,NA,NA,NA,NA,NA,NA,NA
f6d8d,task,flow.Sequence,3_0_2_0_4,NA,NA,completion,12166.657,1312818.3,1312810.888,1312827.554,1324994.211,1324996.9,2023-02-05T09:28:16Z,1325010.877,NULL,Notfall,dharura,d,NA,NA,NA,NA,sdf,NA,2,NA,NA,NA,NA,NA,NA,NA,NA,NA,NA,NA,NA,NA,NA,NA,NA,NA,NA,NA
f6d8d,Deep Question,html.Page,3_0_2_0_5_0_0,NA,NA,form submission,11403.422999997,1324997.2,1324994.211,1325010.877,1336414.3,1336414.6,2023-02-05T09:28:27Z,1336428.271,NULL,Vergnügen,kichekesho,d,NA,NA,NA,kicherkisho,NA,NA,2,NA,NA,NA,NA,NA,NA,NA,NA,NA,NA,NA,NA,NA,NA,NA,NA,NA,NA,NA
f6d8d,"""Richtig""-Screen",canvas.Screen,3_0_2_0_5_0_1,NA,NA,skipped,NA,1336417.4,NA,NA,1336414.3,1336417.5,2023-02-05T09:28:27Z,1336428.271,NULL,Vergnügen,kichekesho,d,NA,NA,NA,NA,sdf,NA,2,NA,NA,NA,NA,NA,NA,NA,NA,NA,NA,NA,NA,NA,NA,NA,NA,NA,NA,NA
f6d8d,"""Falsch""-Screen",canvas.Screen,3_0_2_0_5_0_2,NA,NA,timeout,4999.8,1336418.2,1336411.605,1336428.271,1341411.405,1341412.5,2023-02-05T09:28:32Z,1341428.071,NULL,Vergnügen,kichekesho,d,NA,NA,NA,NA,sdf,0,2,NA,NA,NA,NA,NA,NA,NA,NA,NA,NA,NA,NA,NA,NA,NA,NA,NA,NA,NA
f6d8d,deep,flow.Sequence,3_0_2_0_5_0,NA,NA,completion,16400.528,1324997.1,1324994.211,1325010.877,1341411.405,1341412.8,2023-02-05T09:28:32Z,1341428.071,NULL,Vergnügen,kichekesho,d,NA,NA,NA,NA,sdf,NA,2,NA,NA,NA,NA,NA,NA,NA,NA,NA,NA,NA,NA,NA,NA,NA,NA,NA,NA,NA
f6d8d,shallow,flow.Sequence,3_0_2_0_5_1,NA,NA,skipped,NA,1341412.9,NA,NA,1341411.405,1341413,2023-02-05T09:28:32Z,1341428.071,NULL,Vergnügen,kichekesho,d,NA,NA,NA,NA,sdf,NA,2,NA,NA,NA,NA,NA,NA,NA,NA,NA,NA,NA,NA,NA,NA,NA,NA,NA,NA,NA
f6d8d,task,flow.Sequence,3_0_2_0_5,NA,NA,completion,16400.528,1324997,1324994.211,1325010.877,1341411.405,1341413.1,2023-02-05T09:28:32Z,1341428.071,NULL,Vergnügen,kichekesho,d,NA,NA,NA,NA,sdf,NA,2,NA,NA,NA,NA,NA,NA,NA,NA,NA,NA,NA,NA,NA,NA,NA,NA,NA,NA,NA
f6d8d,Deep Question,html.Page,3_0_2_0_6_0_0,NA,NA,form submission,15708.028999994,1341413.2,1341411.405,1341428.071,1357136.1,1357136.8,2023-02-05T09:28:48Z,1357145.191,NULL,Ausschluss,kutengwa,d,NA,NA,NA,a,NA,NA,2,NA,NA,NA,NA,NA,NA,NA,NA,NA,NA,NA,NA,NA,NA,NA,NA,NA,NA,NA
f6d8d,"""Richtig""-Screen",canvas.Screen,3_0_2_0_6_0_1,NA,NA,skipped,NA,1357140.3,NA,NA,1357136.1,1357140.6,2023-02-05T09:28:48Z,1357145.191,NULL,Ausschluss,kutengwa,d,NA,NA,NA,NA,sdf,NA,2,NA,NA,NA,NA,NA,NA,NA,NA,NA,NA,NA,NA,NA,NA,NA,NA,NA,NA,NA
f6d8d,"""Falsch""-Screen",canvas.Screen,3_0_2_0_6_0_2,NA,NA,timeout,4999.7999999998,1357141.7,1357128.525,1357145.191,1362128.325,1362130.7,2023-02-05T09:28:53Z,1362144.991,NULL,Ausschluss,kutengwa,d,NA,NA,NA,NA,sdf,0,2,NA,NA,NA,NA,NA,NA,NA,NA,NA,NA,NA,NA,NA,NA,NA,NA,NA,NA,NA
f6d8d,deep,flow.Sequence,3_0_2_0_6_0,NA,NA,completion,20700.254,1341413.2,1341411.405,1341428.071,1362128.325,1362131.2,2023-02-05T09:28:53Z,1362144.991,NULL,Ausschluss,kutengwa,d,NA,NA,NA,NA,sdf,NA,2,NA,NA,NA,NA,NA,NA,NA,NA,NA,NA,NA,NA,NA,NA,NA,NA,NA,NA,NA
f6d8d,shallow,flow.Sequence,3_0_2_0_6_1,NA,NA,skipped,NA,1362131.3,NA,NA,1362128.325,1362131.5,2023-02-05T09:28:53Z,1362144.991,NULL,Ausschluss,kutengwa,d,NA,NA,NA,NA,sdf,NA,2,NA,NA,NA,NA,NA,NA,NA,NA,NA,NA,NA,NA,NA,NA,NA,NA,NA,NA,NA
f6d8d,task,flow.Sequence,3_0_2_0_6,NA,NA,completion,20700.254,1341413.2,1341411.405,1341428.071,1362128.325,1362131.6,2023-02-05T09:28:53Z,1362144.991,NULL,Ausschluss,kutengwa,d,NA,NA,NA,NA,sdf,NA,2,NA,NA,NA,NA,NA,NA,NA,NA,NA,NA,NA,NA,NA,NA,NA,NA,NA,NA,NA
f6d8d,Deep Question,html.Page,3_0_2_0_7_0_0,NA,NA,form submission,4586.1089999941,1362131.9,1362128.325,1362144.991,1366731.1,1366731.5,2023-02-05T09:28:58Z,1366745.281,NULL,Gelegenheit,wakati,d,NA,NA,NA,a,NA,NA,2,NA,NA,NA,NA,NA,NA,NA,NA,NA,NA,NA,NA,NA,NA,NA,NA,NA,NA,NA
f6d8d,"""Richtig""-Screen",canvas.Screen,3_0_2_0_7_0_1,NA,NA,skipped,NA,1366734.4,NA,NA,1366731.1,1366734.5,2023-02-05T09:28:58Z,1366745.281,NULL,Gelegenheit,wakati,d,NA,NA,NA,NA,sdf,NA,2,NA,NA,NA,NA,NA,NA,NA,NA,NA,NA,NA,NA,NA,NA,NA,NA,NA,NA,NA
f6d8d,"""Falsch""-Screen",canvas.Screen,3_0_2_0_7_0_2,NA,NA,timeout,4999.8,1366735.1,1366728.615,1366745.281,1371728.415,1371730.7,2023-02-05T09:29:03Z,1371745.081,NULL,Gelegenheit,wakati,d,NA,NA,NA,NA,sdf,0,2,NA,NA,NA,NA,NA,NA,NA,NA,NA,NA,NA,NA,NA,NA,NA,NA,NA,NA,NA
f6d8d,deep,flow.Sequence,3_0_2_0_7_0,NA,NA,completion,9583.4240000001,1362131.8,1362128.325,1362144.991,1371728.415,1371731.2,2023-02-05T09:29:03Z,1371745.081,NULL,Gelegenheit,wakati,d,NA,NA,NA,NA,sdf,NA,2,NA,NA,NA,NA,NA,NA,NA,NA,NA,NA,NA,NA,NA,NA,NA,NA,NA,NA,NA
f6d8d,shallow,flow.Sequence,3_0_2_0_7_1,NA,NA,skipped,NA,1371731.3,NA,NA,1371728.415,1371731.5,2023-02-05T09:29:03Z,1371745.081,NULL,Gelegenheit,wakati,d,NA,NA,NA,NA,sdf,NA,2,NA,NA,NA,NA,NA,NA,NA,NA,NA,NA,NA,NA,NA,NA,NA,NA,NA,NA,NA
f6d8d,task,flow.Sequence,3_0_2_0_7,NA,NA,completion,9583.4240000001,1362131.8,1362128.325,1362144.991,1371728.415,1371731.7,2023-02-05T09:29:03Z,1371745.081,NULL,Gelegenheit,wakati,d,NA,NA,NA,NA,sdf,NA,2,NA,NA,NA,NA,NA,NA,NA,NA,NA,NA,NA,NA,NA,NA,NA,NA,NA,NA,NA
f6d8d,block,flow.Loop,3_0_2_0,NA,NA,completion,102251.544,1269481.9,1269443.539,1269476.871,1371728.415,1371731.9,2023-02-05T09:29:03Z,1371745.081,NULL,NA,NA,NA,NA,NA,NA,NA,sdf,NA,2,NA,NA,NA,NA,NA,NA,NA,NA,NA,NA,NA,NA,NA,NA,NA,NA,NA,NA,NA
f6d8d,weiter,canvas.Screen,3_0_2_1,sdf,keypress(Space),response,2011.6189999881,1371732.1,1371728.415,1371745.081,1373756.7,1373761.5,2023-02-05T09:29:05Z,1373778.333,NULL,NA,NA,NA,NA,NA,NA,NA,sdf,NA,2,NA,NA,NA,NA,NA,NA,NA,NA,NA,NA,NA,NA,NA,NA,NA,NA,NA,NA,NA
f6d8d,check continue,flow.Sequence,3_0_2,NA,NA,completion,104279.82899999,1269481.8,1269443.539,1269476.871,1373756.7,1373761.8,2023-02-05T09:29:05Z,1373778.333,NULL,NA,NA,NA,NA,NA,NA,NA,sdf,NA,2,NA,NA,NA,NA,NA,NA,NA,NA,NA,NA,NA,NA,NA,NA,NA,NA,NA,NA,NA
f6d8d,Deep Question,html.Page,3_0_3_0_0_0_0,NA,NA,form submission,6870.366999988,1373787.5,1373745.001,1373778.333,1380648.7,1380648.9,2023-02-05T09:29:12Z,1380661.903,NULL,Vergnügen,kichekesho,d,NA,NA,NA,kichekesho,NA,NA,3,NA,NA,NA,NA,NA,NA,NA,NA,NA,NA,NA,NA,NA,NA,NA,NA,NA,NA,NA
f6d8d,"""Richtig""-Screen",canvas.Screen,3_0_3_0_0_0_1,NA,NA,timeout,4999.8,1380651.5,1380645.237,1380661.903,1385645.037,1385647.4,2023-02-05T09:29:17Z,1385661.703,NULL,Vergnügen,kichekesho,d,NA,NA,NA,NA,qt,1,3,NA,NA,NA,NA,NA,NA,NA,NA,NA,NA,NA,NA,NA,NA,NA,NA,NA,NA,NA
f6d8d,"""Falsch""-Screen",canvas.Screen,3_0_3_0_0_0_2,NA,NA,skipped,NA,1385651.8,NA,NA,1385645.037,1385652,2023-02-05T09:29:17Z,1385661.703,NULL,Vergnügen,kichekesho,d,NA,NA,NA,NA,qt,NA,3,NA,NA,NA,NA,NA,NA,NA,NA,NA,NA,NA,NA,NA,NA,NA,NA,NA,NA,NA
f6d8d,deep,flow.Sequence,3_0_3_0_0_0,NA,NA,completion,11866.704,1373787.5,1373745.001,1373778.333,1385645.037,1385652.1,2023-02-05T09:29:17Z,1385661.703,NULL,Vergnügen,kichekesho,d,NA,NA,NA,NA,qt,NA,3,NA,NA,NA,NA,NA,NA,NA,NA,NA,NA,NA,NA,NA,NA,NA,NA,NA,NA,NA
f6d8d,shallow,flow.Sequence,3_0_3_0_0_1,NA,NA,skipped,NA,1385652.1,NA,NA,1385645.037,1385652.3,2023-02-05T09:29:17Z,1385661.703,NULL,Vergnügen,kichekesho,d,NA,NA,NA,NA,qt,NA,3,NA,NA,NA,NA,NA,NA,NA,NA,NA,NA,NA,NA,NA,NA,NA,NA,NA,NA,NA
f6d8d,task,flow.Sequence,3_0_3_0_0,NA,NA,completion,11866.704,1373787.5,1373745.001,1373778.333,1385645.037,1385652.4,2023-02-05T09:29:17Z,1385661.703,NULL,Vergnügen,kichekesho,d,NA,NA,NA,NA,qt,NA,3,NA,NA,NA,NA,NA,NA,NA,NA,NA,NA,NA,NA,NA,NA,NA,NA,NA,NA,NA
f6d8d,deep,flow.Sequence,3_0_3_0_1_0,NA,NA,skipped,NA,1385652.4,NA,NA,1385645.037,1385652.5,2023-02-05T09:29:17Z,1385661.703,NULL,Widerstand,usulubu,s,kusababisha,mwalimu,mwenendo,NA,qt,NA,3,NA,NA,NA,NA,NA,NA,NA,NA,NA,NA,NA,NA,NA,NA,NA,NA,NA,NA,NA
f6d8d,Shallow Question,html.Page,3_0_3_0_1_1_0,NA,NA,form submission,3170.9969999881,1385652.5,1385645.037,1385661.703,1388832.7,1388833.3,2023-02-05T09:29:20Z,1388845.418,NULL,Widerstand,usulubu,s,kusababisha,mwalimu,mwenendo,usulubu,NA,NA,3,NA,NA,NA,NA,NA,NA,NA,NA,NA,NA,NA,NA,NA,NA,NA,NA,NA,NA,NA
f6d8d,"""Richtig""-Screen",canvas.Screen,3_0_3_0_1_1_1,NA,NA,timeout,4999.8,1388836.4,1388828.752,1388845.418,1393828.552,1393830.7,2023-02-05T09:29:25Z,1393845.218,NULL,Widerstand,usulubu,s,kusababisha,mwalimu,mwenendo,NA,qt,1,3,NA,NA,NA,NA,NA,NA,NA,NA,NA,NA,NA,NA,NA,NA,NA,NA,NA,NA,NA
f6d8d,"""Falsch""-Screen",canvas.Screen,3_0_3_0_1_1_2,NA,NA,skipped,NA,1393843.6,NA,NA,1393828.552,1393843.8,2023-02-05T09:29:25Z,1393845.218,NULL,Widerstand,usulubu,s,kusababisha,mwalimu,mwenendo,NA,qt,NA,3,NA,NA,NA,NA,NA,NA,NA,NA,NA,NA,NA,NA,NA,NA,NA,NA,NA,NA,NA
f6d8d,shallow,flow.Sequence,3_0_3_0_1_1,NA,NA,completion,8166.8489999999,1385652.5,1385645.037,1385661.703,1393828.552,1393844.1,2023-02-05T09:29:25Z,1393845.218,NULL,Widerstand,usulubu,s,kusababisha,mwalimu,mwenendo,NA,qt,NA,3,NA,NA,NA,NA,NA,NA,NA,NA,NA,NA,NA,NA,NA,NA,NA,NA,NA,NA,NA
f6d8d,task,flow.Sequence,3_0_3_0_1,NA,NA,completion,8166.8489999999,1385652.4,1385645.037,1385661.703,1393828.552,1393844.2,2023-02-05T09:29:25Z,1393845.218,NULL,Widerstand,usulubu,s,kusababisha,mwalimu,mwenendo,NA,qt,NA,3,NA,NA,NA,NA,NA,NA,NA,NA,NA,NA,NA,NA,NA,NA,NA,NA,NA,NA,NA
f6d8d,deep,flow.Sequence,3_0_3_0_2_0,NA,NA,skipped,NA,1393844.2,NA,NA,1393828.552,1393844.3,2023-02-05T09:29:25Z,1393845.218,NULL,Wohlstand,mafanikio,s,chimbuko,kumbuko,mapwaji,NA,qt,NA,3,NA,NA,NA,NA,NA,NA,NA,NA,NA,NA,NA,NA,NA,NA,NA,NA,NA,NA,NA
f6d8d,Shallow Question,html.Page,3_0_3_0_2_1_0,NA,NA,form submission,5120.981999988,1393844.4,1393828.552,1393845.218,1398966.2,1398966.7,2023-02-05T09:29:30Z,1398979.005,NULL,Wohlstand,mafanikio,s,chimbuko,kumbuko,mapwaji,mafanikio,NA,NA,3,NA,NA,NA,NA,NA,NA,NA,NA,NA,NA,NA,NA,NA,NA,NA,NA,NA,NA,NA
f6d8d,"""Richtig""-Screen",canvas.Screen,3_0_3_0_2_1_1,NA,NA,timeout,4999.8,1398969.5,1398962.339,1398979.005,1403962.139,1403964.1,2023-02-05T09:29:35Z,1403978.805,NULL,Wohlstand,mafanikio,s,chimbuko,kumbuko,mapwaji,NA,qt,1,3,NA,NA,NA,NA,NA,NA,NA,NA,NA,NA,NA,NA,NA,NA,NA,NA,NA,NA,NA
f6d8d,"""Falsch""-Screen",canvas.Screen,3_0_3_0_2_1_2,NA,NA,skipped,NA,1403968.1,NA,NA,1403962.139,1403968.2,2023-02-05T09:29:35Z,1403978.805,NULL,Wohlstand,mafanikio,s,chimbuko,kumbuko,mapwaji,NA,qt,NA,3,NA,NA,NA,NA,NA,NA,NA,NA,NA,NA,NA,NA,NA,NA,NA,NA,NA,NA,NA
f6d8d,shallow,flow.Sequence,3_0_3_0_2_1,NA,NA,completion,10116.921,1393844.3,1393828.552,1393845.218,1403962.139,1403968.4,2023-02-05T09:29:35Z,1403978.805,NULL,Wohlstand,mafanikio,s,chimbuko,kumbuko,mapwaji,NA,qt,NA,3,NA,NA,NA,NA,NA,NA,NA,NA,NA,NA,NA,NA,NA,NA,NA,NA,NA,NA,NA
f6d8d,task,flow.Sequence,3_0_3_0_2,NA,NA,completion,10116.921,1393844.2,1393828.552,1393845.218,1403962.139,1403968.5,2023-02-05T09:29:35Z,1403978.805,NULL,Wohlstand,mafanikio,s,chimbuko,kumbuko,mapwaji,NA,qt,NA,3,NA,NA,NA,NA,NA,NA,NA,NA,NA,NA,NA,NA,NA,NA,NA,NA,NA,NA,NA
f6d8d,deep,flow.Sequence,3_0_3_0_3_0,NA,NA,skipped,NA,1403968.6,NA,NA,1403962.139,1403968.6,2023-02-05T09:29:35Z,1403978.805,NULL,Verstand,ufahamivu,s,shakawa,hadhari,mhandisi,NA,qt,NA,3,NA,NA,NA,NA,NA,NA,NA,NA,NA,NA,NA,NA,NA,NA,NA,NA,NA,NA,NA
f6d8d,Shallow Question,html.Page,3_0_3_0_3_1_0,NA,NA,form submission,7504.3949999881,1403968.7,1403962.139,1403978.805,1411483.2,1411483.7,2023-02-05T09:29:42Z,1411495.72,NULL,Verstand,ufahamivu,s,shakawa,hadhari,mhandisi,ufahamivu,NA,NA,3,NA,NA,NA,NA,NA,NA,NA,NA,NA,NA,NA,NA,NA,NA,NA,NA,NA,NA,NA
f6d8d,"""Richtig""-Screen",canvas.Screen,3_0_3_0_3_1_1,NA,NA,timeout,4999.8,1411486.3,1411479.054,1411495.72,1416478.854,1416481.2,2023-02-05T09:29:47Z,1416495.52,NULL,Verstand,ufahamivu,s,shakawa,hadhari,mhandisi,NA,qt,1,3,NA,NA,NA,NA,NA,NA,NA,NA,NA,NA,NA,NA,NA,NA,NA,NA,NA,NA,NA
f6d8d,"""Falsch""-Screen",canvas.Screen,3_0_3_0_3_1_2,NA,NA,skipped,NA,1416485.2,NA,NA,1416478.854,1416485.4,2023-02-05T09:29:47Z,1416495.52,NULL,Verstand,ufahamivu,s,shakawa,hadhari,mhandisi,NA,qt,NA,3,NA,NA,NA,NA,NA,NA,NA,NA,NA,NA,NA,NA,NA,NA,NA,NA,NA,NA,NA
f6d8d,shallow,flow.Sequence,3_0_3_0_3_1,NA,NA,completion,12500.049,1403968.7,1403962.139,1403978.805,1416478.854,1416485.5,2023-02-05T09:29:47Z,1416495.52,NULL,Verstand,ufahamivu,s,shakawa,hadhari,mhandisi,NA,qt,NA,3,NA,NA,NA,NA,NA,NA,NA,NA,NA,NA,NA,NA,NA,NA,NA,NA,NA,NA,NA
f6d8d,task,flow.Sequence,3_0_3_0_3,NA,NA,completion,12500.049,1403968.6,1403962.139,1403978.805,1416478.854,1416485.6,2023-02-05T09:29:47Z,1416495.52,NULL,Verstand,ufahamivu,s,shakawa,hadhari,mhandisi,NA,qt,NA,3,NA,NA,NA,NA,NA,NA,NA,NA,NA,NA,NA,NA,NA,NA,NA,NA,NA,NA,NA
f6d8d,Deep Question,html.Page,3_0_3_0_4_0_0,NA,NA,form submission,14166.779999997,1416485.8,1416478.854,1416495.52,1430662.3,1430662.7,2023-02-05T09:30:02Z,1430662.697,NULL,Ausschluss,kutengwa,d,NA,NA,NA,a,NA,NA,3,NA,NA,NA,NA,NA,NA,NA,NA,NA,NA,NA,NA,NA,NA,NA,NA,NA,NA,NA
f6d8d,"""Richtig""-Screen",canvas.Screen,3_0_3_0_4_0_1,NA,NA,skipped,NA,1430665.3,NA,NA,1430662.3,1430665.4,2023-02-05T09:30:02Z,1430662.697,NULL,Ausschluss,kutengwa,d,NA,NA,NA,NA,qt,NA,3,NA,NA,NA,NA,NA,NA,NA,NA,NA,NA,NA,NA,NA,NA,NA,NA,NA,NA,NA
f6d8d,"""Falsch""-Screen",canvas.Screen,3_0_3_0_4_0_2,NA,NA,timeout,4999.8,1430666.1,1430646.031,1430662.697,1435645.831,1435647.9,2023-02-05T09:30:07Z,1435662.497,NULL,Ausschluss,kutengwa,d,NA,NA,NA,NA,qt,0,3,NA,NA,NA,NA,NA,NA,NA,NA,NA,NA,NA,NA,NA,NA,NA,NA,NA,NA,NA
f6d8d,deep,flow.Sequence,3_0_3_0_4_0,NA,NA,completion,19150.311,1416485.8,1416478.854,1416495.52,1435645.831,1435648.4,2023-02-05T09:30:07Z,1435662.497,NULL,Ausschluss,kutengwa,d,NA,NA,NA,NA,qt,NA,3,NA,NA,NA,NA,NA,NA,NA,NA,NA,NA,NA,NA,NA,NA,NA,NA,NA,NA,NA
f6d8d,shallow,flow.Sequence,3_0_3_0_4_1,NA,NA,skipped,NA,1435648.5,NA,NA,1435645.831,1435648.7,2023-02-05T09:30:07Z,1435662.497,NULL,Ausschluss,kutengwa,d,NA,NA,NA,NA,qt,NA,3,NA,NA,NA,NA,NA,NA,NA,NA,NA,NA,NA,NA,NA,NA,NA,NA,NA,NA,NA
f6d8d,task,flow.Sequence,3_0_3_0_4,NA,NA,completion,19150.311,1416485.6,1416478.854,1416495.52,1435645.831,1435648.9,2023-02-05T09:30:07Z,1435662.497,NULL,Ausschluss,kutengwa,d,NA,NA,NA,NA,qt,NA,3,NA,NA,NA,NA,NA,NA,NA,NA,NA,NA,NA,NA,NA,NA,NA,NA,NA,NA,NA
f6d8d,deep,flow.Sequence,3_0_3_0_5_0,NA,NA,skipped,NA,1435649.2,NA,NA,1435645.831,1435649.3,2023-02-05T09:30:07Z,1435662.497,NULL,Ergänzung,kijalizo,s,ulaghai,mustarehe,matangazo,NA,qt,NA,3,NA,NA,NA,NA,NA,NA,NA,NA,NA,NA,NA,NA,NA,NA,NA,NA,NA,NA,NA
f6d8d,Shallow Question,html.Page,3_0_3_0_5_1_0,NA,NA,form submission,5621.003,1435649.5,1435645.831,1435662.497,1441283.5,1441284,2023-02-05T09:30:12Z,1441296.044,NULL,Ergänzung,kijalizo,s,ulaghai,mustarehe,matangazo,kijalizo,NA,NA,3,NA,NA,NA,NA,NA,NA,NA,NA,NA,NA,NA,NA,NA,NA,NA,NA,NA,NA,NA
f6d8d,"""Richtig""-Screen",canvas.Screen,3_0_3_0_5_1_1,NA,NA,timeout,4999.8,1441286.7,1441279.378,1441296.044,1446279.178,1446280.8,2023-02-05T09:30:17Z,1446295.844,NULL,Ergänzung,kijalizo,s,ulaghai,mustarehe,matangazo,NA,qt,1,3,NA,NA,NA,NA,NA,NA,NA,NA,NA,NA,NA,NA,NA,NA,NA,NA,NA,NA,NA
f6d8d,"""Falsch""-Screen",canvas.Screen,3_0_3_0_5_1_2,NA,NA,skipped,NA,1446284.6,NA,NA,1446279.178,1446284.7,2023-02-05T09:30:17Z,1446295.844,NULL,Ergänzung,kijalizo,s,ulaghai,mustarehe,matangazo,NA,qt,NA,3,NA,NA,NA,NA,NA,NA,NA,NA,NA,NA,NA,NA,NA,NA,NA,NA,NA,NA,NA
f6d8d,shallow,flow.Sequence,3_0_3_0_5_1,NA,NA,completion,10616.681,1435649.3,1435645.831,1435662.497,1446279.178,1446284.8,2023-02-05T09:30:17Z,1446295.844,NULL,Ergänzung,kijalizo,s,ulaghai,mustarehe,matangazo,NA,qt,NA,3,NA,NA,NA,NA,NA,NA,NA,NA,NA,NA,NA,NA,NA,NA,NA,NA,NA,NA,NA
f6d8d,task,flow.Sequence,3_0_3_0_5,NA,NA,completion,10616.681,1435649,1435645.831,1435662.497,1446279.178,1446285,2023-02-05T09:30:17Z,1446295.844,NULL,Ergänzung,kijalizo,s,ulaghai,mustarehe,matangazo,NA,qt,NA,3,NA,NA,NA,NA,NA,NA,NA,NA,NA,NA,NA,NA,NA,NA,NA,NA,NA,NA,NA
f6d8d,Deep Question,html.Page,3_0_3_0_6_0_0,NA,NA,form submission,11104.955999997,1446285.1,1446279.178,1446295.844,1457400.8,1457401.4,2023-02-05T09:30:28Z,1457412.681,NULL,Notfall,dharura,d,NA,NA,NA,dahera,NA,NA,3,NA,NA,NA,NA,NA,NA,NA,NA,NA,NA,NA,NA,NA,NA,NA,NA,NA,NA,NA
f6d8d,"""Richtig""-Screen",canvas.Screen,3_0_3_0_6_0_1,NA,NA,skipped,NA,1457404.5,NA,NA,1457400.8,1457404.8,2023-02-05T09:30:28Z,1457412.681,NULL,Notfall,dharura,d,NA,NA,NA,NA,qt,NA,3,NA,NA,NA,NA,NA,NA,NA,NA,NA,NA,NA,NA,NA,NA,NA,NA,NA,NA,NA
f6d8d,"""Falsch""-Screen",canvas.Screen,3_0_3_0_6_0_2,NA,NA,timeout,4999.7999999998,1457405.9,1457396.015,1457412.681,1462395.815,1462398.4,2023-02-05T09:30:33Z,1462412.481,NULL,Notfall,dharura,d,NA,NA,NA,NA,qt,0,3,NA,NA,NA,NA,NA,NA,NA,NA,NA,NA,NA,NA,NA,NA,NA,NA,NA,NA,NA
f6d8d,deep,flow.Sequence,3_0_3_0_6_0,NA,NA,completion,16099.971,1446285.1,1446279.178,1446295.844,1462395.815,1462398.9,2023-02-05T09:30:33Z,1462412.481,NULL,Notfall,dharura,d,NA,NA,NA,NA,qt,NA,3,NA,NA,NA,NA,NA,NA,NA,NA,NA,NA,NA,NA,NA,NA,NA,NA,NA,NA,NA
f6d8d,shallow,flow.Sequence,3_0_3_0_6_1,NA,NA,skipped,NA,1462399.1,NA,NA,1462395.815,1462399.3,2023-02-05T09:30:33Z,1462412.481,NULL,Notfall,dharura,d,NA,NA,NA,NA,qt,NA,3,NA,NA,NA,NA,NA,NA,NA,NA,NA,NA,NA,NA,NA,NA,NA,NA,NA,NA,NA
f6d8d,task,flow.Sequence,3_0_3_0_6,NA,NA,completion,16099.971,1446285,1446279.178,1446295.844,1462395.815,1462399.5,2023-02-05T09:30:33Z,1462412.481,NULL,Notfall,dharura,d,NA,NA,NA,NA,qt,NA,3,NA,NA,NA,NA,NA,NA,NA,NA,NA,NA,NA,NA,NA,NA,NA,NA,NA,NA,NA
f6d8d,Deep Question,html.Page,3_0_3_0_7_0_0,NA,NA,form submission,4492.2189999882,1462399.7,1462395.815,1462412.481,1466904.7,1466905.2,2023-02-05T09:30:38Z,1466912.877,NULL,Gelegenheit,wakati,d,NA,NA,NA,wakati,NA,NA,3,NA,NA,NA,NA,NA,NA,NA,NA,NA,NA,NA,NA,NA,NA,NA,NA,NA,NA,NA
f6d8d,"""Richtig""-Screen",canvas.Screen,3_0_3_0_7_0_1,NA,NA,timeout,4999.7999999998,1466908.3,1466896.211,1466912.877,1471896.011,1471898,2023-02-05T09:30:43Z,1471912.677,NULL,Gelegenheit,wakati,d,NA,NA,NA,NA,qt,1,3,NA,NA,NA,NA,NA,NA,NA,NA,NA,NA,NA,NA,NA,NA,NA,NA,NA,NA,NA
f6d8d,"""Falsch""-Screen",canvas.Screen,3_0_3_0_7_0_2,NA,NA,skipped,NA,1471902.8,NA,NA,1471896.011,1471902.8,2023-02-05T09:30:43Z,1471912.677,NULL,Gelegenheit,wakati,d,NA,NA,NA,NA,qt,NA,3,NA,NA,NA,NA,NA,NA,NA,NA,NA,NA,NA,NA,NA,NA,NA,NA,NA,NA,NA
f6d8d,deep,flow.Sequence,3_0_3_0_7_0,NA,NA,completion,9483.53,1462399.6,1462395.815,1462412.481,1471896.011,1471903,2023-02-05T09:30:43Z,1471912.677,NULL,Gelegenheit,wakati,d,NA,NA,NA,NA,qt,NA,3,NA,NA,NA,NA,NA,NA,NA,NA,NA,NA,NA,NA,NA,NA,NA,NA,NA,NA,NA
f6d8d,shallow,flow.Sequence,3_0_3_0_7_1,NA,NA,skipped,NA,1471903,NA,NA,1471896.011,1471903.2,2023-02-05T09:30:43Z,1471912.677,NULL,Gelegenheit,wakati,d,NA,NA,NA,NA,qt,NA,3,NA,NA,NA,NA,NA,NA,NA,NA,NA,NA,NA,NA,NA,NA,NA,NA,NA,NA,NA
f6d8d,task,flow.Sequence,3_0_3_0_7,NA,NA,completion,9483.53,1462399.6,1462395.815,1462412.481,1471896.011,1471903.2,2023-02-05T09:30:43Z,1471912.677,NULL,Gelegenheit,wakati,d,NA,NA,NA,NA,qt,NA,3,NA,NA,NA,NA,NA,NA,NA,NA,NA,NA,NA,NA,NA,NA,NA,NA,NA,NA,NA
f6d8d,block,flow.Loop,3_0_3_0,NA,NA,completion,98117.678,1373787.5,1373745.001,1373778.333,1471896.011,1471903.3,2023-02-05T09:30:43Z,1471912.677,NULL,NA,NA,NA,NA,NA,NA,NA,qt,NA,3,NA,NA,NA,NA,NA,NA,NA,NA,NA,NA,NA,NA,NA,NA,NA,NA,NA,NA,NA
f6d8d,weiter,canvas.Screen,3_0_3_1,sdf,keypress(Space),response,1040.9229999941,1471903.5,1471896.011,1471912.677,1472953.6,1472956.8,2023-02-05T09:30:44Z,1472995.967,NULL,NA,NA,NA,NA,NA,NA,NA,qt,NA,3,NA,NA,NA,NA,NA,NA,NA,NA,NA,NA,NA,NA,NA,NA,NA,NA,NA,NA,NA
f6d8d,check continue,flow.Sequence,3_0_3,NA,NA,completion,99175.266999994,1373787.5,1373745.001,1373778.333,1472953.6,1472957.1,2023-02-05T09:30:44Z,1472995.967,NULL,NA,NA,NA,NA,NA,NA,NA,qt,NA,3,NA,NA,NA,NA,NA,NA,NA,NA,NA,NA,NA,NA,NA,NA,NA,NA,NA,NA,NA
f6d8d,Deep Question,html.Page,3_0_4_0_0_0_0,NA,NA,form submission,3499.4329999911,1472983.5,1472979.301,1472995.967,1476495.4,1476496,2023-02-05T09:30:47Z,1476496.488,NULL,Gelegenheit,wakati,d,NA,NA,NA,wakati,NA,NA,4,NA,NA,NA,NA,NA,NA,NA,NA,NA,NA,NA,NA,NA,NA,NA,NA,NA,NA,NA
f6d8d,"""Richtig""-Screen",canvas.Screen,3_0_4_0_0_0_1,NA,NA,timeout,4999.8,1476497.8,1476479.822,1476496.488,1481479.622,1481481.5,2023-02-05T09:30:52Z,1481496.288,NULL,Gelegenheit,wakati,d,NA,NA,NA,NA,sd,1,4,NA,NA,NA,NA,NA,NA,NA,NA,NA,NA,NA,NA,NA,NA,NA,NA,NA,NA,NA
f6d8d,"""Falsch""-Screen",canvas.Screen,3_0_4_0_0_0_2,NA,NA,skipped,NA,1481485,NA,NA,1481479.622,1481485.1,2023-02-05T09:30:52Z,1481496.288,NULL,Gelegenheit,wakati,d,NA,NA,NA,NA,sd,NA,4,NA,NA,NA,NA,NA,NA,NA,NA,NA,NA,NA,NA,NA,NA,NA,NA,NA,NA,NA
f6d8d,deep,flow.Sequence,3_0_4_0_0_0,NA,NA,completion,8483.655,1472983.5,1472979.301,1472995.967,1481479.622,1481485.3,2023-02-05T09:30:52Z,1481496.288,NULL,Gelegenheit,wakati,d,NA,NA,NA,NA,sd,NA,4,NA,NA,NA,NA,NA,NA,NA,NA,NA,NA,NA,NA,NA,NA,NA,NA,NA,NA,NA
f6d8d,shallow,flow.Sequence,3_0_4_0_0_1,NA,NA,skipped,NA,1481485.3,NA,NA,1481479.622,1481485.4,2023-02-05T09:30:52Z,1481496.288,NULL,Gelegenheit,wakati,d,NA,NA,NA,NA,sd,NA,4,NA,NA,NA,NA,NA,NA,NA,NA,NA,NA,NA,NA,NA,NA,NA,NA,NA,NA,NA
f6d8d,task,flow.Sequence,3_0_4_0_0,NA,NA,completion,8483.655,1472983.5,1472979.301,1472995.967,1481479.622,1481485.5,2023-02-05T09:30:52Z,1481496.288,NULL,Gelegenheit,wakati,d,NA,NA,NA,NA,sd,NA,4,NA,NA,NA,NA,NA,NA,NA,NA,NA,NA,NA,NA,NA,NA,NA,NA,NA,NA,NA
f6d8d,deep,flow.Sequence,3_0_4_0_1_0,NA,NA,skipped,NA,1481485.6,NA,NA,1481479.622,1481485.6,2023-02-05T09:30:52Z,1481496.288,NULL,Widerstand,usulubu,s,kusababisha,mwalimu,mwenendo,NA,sd,NA,4,NA,NA,NA,NA,NA,NA,NA,NA,NA,NA,NA,NA,NA,NA,NA,NA,NA,NA,NA
f6d8d,Shallow Question,html.Page,3_0_4_0_1_1_0,NA,NA,form submission,4171.1119999911,1481485.7,1481479.622,1481496.288,1485667.4,1485668,2023-02-05T09:30:57Z,1485679.985,NULL,Widerstand,usulubu,s,kusababisha,mwalimu,mwenendo,usulubu,NA,NA,4,NA,NA,NA,NA,NA,NA,NA,NA,NA,NA,NA,NA,NA,NA,NA,NA,NA,NA,NA
f6d8d,"""Richtig""-Screen",canvas.Screen,3_0_4_0_1_1_1,NA,NA,timeout,4999.7999999998,1485671.1,1485663.319,1485679.985,1490663.119,1490665.5,2023-02-05T09:31:02Z,1490679.785,NULL,Widerstand,usulubu,s,kusababisha,mwalimu,mwenendo,NA,sd,1,4,NA,NA,NA,NA,NA,NA,NA,NA,NA,NA,NA,NA,NA,NA,NA,NA,NA,NA,NA
f6d8d,"""Falsch""-Screen",canvas.Screen,3_0_4_0_1_1_2,NA,NA,skipped,NA,1490669.1,NA,NA,1490663.119,1490669.3,2023-02-05T09:31:02Z,1490679.785,NULL,Widerstand,usulubu,s,kusababisha,mwalimu,mwenendo,NA,sd,NA,4,NA,NA,NA,NA,NA,NA,NA,NA,NA,NA,NA,NA,NA,NA,NA,NA,NA,NA,NA
f6d8d,shallow,flow.Sequence,3_0_4_0_1_1,NA,NA,completion,9166.831,1481485.7,1481479.622,1481496.288,1490663.119,1490669.4,2023-02-05T09:31:02Z,1490679.785,NULL,Widerstand,usulubu,s,kusababisha,mwalimu,mwenendo,NA,sd,NA,4,NA,NA,NA,NA,NA,NA,NA,NA,NA,NA,NA,NA,NA,NA,NA,NA,NA,NA,NA
f6d8d,task,flow.Sequence,3_0_4_0_1,NA,NA,completion,9166.831,1481485.6,1481479.622,1481496.288,1490663.119,1490669.6,2023-02-05T09:31:02Z,1490679.785,NULL,Widerstand,usulubu,s,kusababisha,mwalimu,mwenendo,NA,sd,NA,4,NA,NA,NA,NA,NA,NA,NA,NA,NA,NA,NA,NA,NA,NA,NA,NA,NA,NA,NA
f6d8d,deep,flow.Sequence,3_0_4_0_2_0,NA,NA,skipped,NA,1490669.6,NA,NA,1490663.119,1490669.8,2023-02-05T09:31:02Z,1490679.785,NULL,Wohlstand,mafanikio,s,chimbuko,kumbuko,mapwaji,NA,sd,NA,4,NA,NA,NA,NA,NA,NA,NA,NA,NA,NA,NA,NA,NA,NA,NA,NA,NA,NA,NA
f6d8d,Shallow Question,html.Page,3_0_4_0_2_1_0,NA,NA,form submission,5987.7150000001,1490669.8,1490663.119,1490679.785,1496667.5,1496668.1,2023-02-05T09:31:08Z,1496680.165,NULL,Wohlstand,mafanikio,s,chimbuko,kumbuko,mapwaji,mafanikio,NA,NA,4,NA,NA,NA,NA,NA,NA,NA,NA,NA,NA,NA,NA,NA,NA,NA,NA,NA,NA,NA
f6d8d,"""Richtig""-Screen",canvas.Screen,3_0_4_0_2_1_1,NA,NA,timeout,4999.8,1496670.5,1496663.499,1496680.165,1501663.299,1501665.3,2023-02-05T09:31:13Z,1501679.965,NULL,Wohlstand,mafanikio,s,chimbuko,kumbuko,mapwaji,NA,sd,1,4,NA,NA,NA,NA,NA,NA,NA,NA,NA,NA,NA,NA,NA,NA,NA,NA,NA,NA,NA
f6d8d,"""Falsch""-Screen",canvas.Screen,3_0_4_0_2_1_2,NA,NA,skipped,NA,1501669.1,NA,NA,1501663.299,1501669.2,2023-02-05T09:31:13Z,1501679.965,NULL,Wohlstand,mafanikio,s,chimbuko,kumbuko,mapwaji,NA,sd,NA,4,NA,NA,NA,NA,NA,NA,NA,NA,NA,NA,NA,NA,NA,NA,NA,NA,NA,NA,NA
f6d8d,shallow,flow.Sequence,3_0_4_0_2_1,NA,NA,completion,10983.514,1490669.8,1490663.119,1490679.785,1501663.299,1501669.3,2023-02-05T09:31:13Z,1501679.965,NULL,Wohlstand,mafanikio,s,chimbuko,kumbuko,mapwaji,NA,sd,NA,4,NA,NA,NA,NA,NA,NA,NA,NA,NA,NA,NA,NA,NA,NA,NA,NA,NA,NA,NA
f6d8d,task,flow.Sequence,3_0_4_0_2,NA,NA,completion,10983.514,1490669.6,1490663.119,1490679.785,1501663.299,1501669.5,2023-02-05T09:31:13Z,1501679.965,NULL,Wohlstand,mafanikio,s,chimbuko,kumbuko,mapwaji,NA,sd,NA,4,NA,NA,NA,NA,NA,NA,NA,NA,NA,NA,NA,NA,NA,NA,NA,NA,NA,NA,NA
f6d8d,Deep Question,html.Page,3_0_4_0_3_0_0,NA,NA,form submission,14897.334999997,1501669.6,1501663.299,1501679.965,1516577.3,1516578,2023-02-05T09:31:27Z,1516579.971,NULL,Ausschluss,kutengwa,d,NA,NA,NA,katengwa,NA,NA,4,NA,NA,NA,NA,NA,NA,NA,NA,NA,NA,NA,NA,NA,NA,NA,NA,NA,NA,NA
f6d8d,"""Richtig""-Screen",canvas.Screen,3_0_4_0_3_0_1,NA,NA,skipped,NA,1516580.5,NA,NA,1516577.3,1516580.5,2023-02-05T09:31:27Z,1516579.971,NULL,Ausschluss,kutengwa,d,NA,NA,NA,NA,sd,NA,4,NA,NA,NA,NA,NA,NA,NA,NA,NA,NA,NA,NA,NA,NA,NA,NA,NA,NA,NA
f6d8d,"""Falsch""-Screen",canvas.Screen,3_0_4_0_3_0_2,NA,NA,timeout,5000.2280000001,1516581.2,1516563.305,1516579.971,1521563.533,1521566.3,2023-02-05T09:31:32Z,1521580.199,NULL,Ausschluss,kutengwa,d,NA,NA,NA,NA,sd,0,4,NA,NA,NA,NA,NA,NA,NA,NA,NA,NA,NA,NA,NA,NA,NA,NA,NA,NA,NA
f6d8d,deep,flow.Sequence,3_0_4_0_3_0,NA,NA,completion,19883.568,1501669.6,1501663.299,1501679.965,1521563.533,1521566.7,2023-02-05T09:31:32Z,1521580.199,NULL,Ausschluss,kutengwa,d,NA,NA,NA,NA,sd,NA,4,NA,NA,NA,NA,NA,NA,NA,NA,NA,NA,NA,NA,NA,NA,NA,NA,NA,NA,NA
f6d8d,shallow,flow.Sequence,3_0_4_0_3_1,NA,NA,skipped,NA,1521566.8,NA,NA,1521563.533,1521567,2023-02-05T09:31:32Z,1521580.199,NULL,Ausschluss,kutengwa,d,NA,NA,NA,NA,sd,NA,4,NA,NA,NA,NA,NA,NA,NA,NA,NA,NA,NA,NA,NA,NA,NA,NA,NA,NA,NA
f6d8d,task,flow.Sequence,3_0_4_0_3,NA,NA,completion,19883.568,1501669.5,1501663.299,1501679.965,1521563.533,1521567.2,2023-02-05T09:31:32Z,1521580.199,NULL,Ausschluss,kutengwa,d,NA,NA,NA,NA,sd,NA,4,NA,NA,NA,NA,NA,NA,NA,NA,NA,NA,NA,NA,NA,NA,NA,NA,NA,NA,NA
f6d8d,deep,flow.Sequence,3_0_4_0_4_0,NA,NA,skipped,NA,1521567.4,NA,NA,1521563.533,1521567.5,2023-02-05T09:31:32Z,1521580.199,NULL,Verstand,ufahamivu,s,shakawa,hadhari,mhandisi,NA,sd,NA,4,NA,NA,NA,NA,NA,NA,NA,NA,NA,NA,NA,NA,NA,NA,NA,NA,NA,NA,NA
f6d8d,Shallow Question,html.Page,3_0_4_0_4_1_0,NA,NA,form submission,3837.600999997,1521567.7,1521563.533,1521580.199,1525417.8,1525418.3,2023-02-05T09:31:36Z,1525430.045,NULL,Verstand,ufahamivu,s,shakawa,hadhari,mhandisi,ufahamivu,NA,NA,4,NA,NA,NA,NA,NA,NA,NA,NA,NA,NA,NA,NA,NA,NA,NA,NA,NA,NA,NA
f6d8d,"""Richtig""-Screen",canvas.Screen,3_0_4_0_4_1_1,NA,NA,timeout,4999.8,1525421.5,1525413.379,1525430.045,1530413.179,1530415.6,2023-02-05T09:31:41Z,1530429.845,NULL,Verstand,ufahamivu,s,shakawa,hadhari,mhandisi,NA,sd,1,4,NA,NA,NA,NA,NA,NA,NA,NA,NA,NA,NA,NA,NA,NA,NA,NA,NA,NA,NA
f6d8d,"""Falsch""-Screen",canvas.Screen,3_0_4_0_4_1_2,NA,NA,skipped,NA,1530420.1,NA,NA,1530413.179,1530420.2,2023-02-05T09:31:41Z,1530429.845,NULL,Verstand,ufahamivu,s,shakawa,hadhari,mhandisi,NA,sd,NA,4,NA,NA,NA,NA,NA,NA,NA,NA,NA,NA,NA,NA,NA,NA,NA,NA,NA,NA,NA
f6d8d,shallow,flow.Sequence,3_0_4_0_4_1,NA,NA,completion,8832.98,1521567.6,1521563.533,1521580.199,1530413.179,1530420.3,2023-02-05T09:31:41Z,1530429.845,NULL,Verstand,ufahamivu,s,shakawa,hadhari,mhandisi,NA,sd,NA,4,NA,NA,NA,NA,NA,NA,NA,NA,NA,NA,NA,NA,NA,NA,NA,NA,NA,NA,NA
f6d8d,task,flow.Sequence,3_0_4_0_4,NA,NA,completion,8832.98,1521567.3,1521563.533,1521580.199,1530413.179,1530420.5,2023-02-05T09:31:41Z,1530429.845,NULL,Verstand,ufahamivu,s,shakawa,hadhari,mhandisi,NA,sd,NA,4,NA,NA,NA,NA,NA,NA,NA,NA,NA,NA,NA,NA,NA,NA,NA,NA,NA,NA,NA
f6d8d,Deep Question,html.Page,3_0_4_0_5_0_0,NA,NA,form submission,7471.155,1530420.6,1530413.179,1530429.845,1537901,1537901.2,2023-02-05T09:31:49Z,1537913.57,NULL,Vergnügen,kichekesho,d,NA,NA,NA,kichekesho,NA,NA,4,NA,NA,NA,NA,NA,NA,NA,NA,NA,NA,NA,NA,NA,NA,NA,NA,NA,NA,NA
f6d8d,"""Richtig""-Screen",canvas.Screen,3_0_4_0_5_0_1,NA,NA,timeout,4999.8,1537904,1537896.904,1537913.57,1542896.704,1542899.4,2023-02-05T09:31:54Z,1542913.37,NULL,Vergnügen,kichekesho,d,NA,NA,NA,NA,sd,1,4,NA,NA,NA,NA,NA,NA,NA,NA,NA,NA,NA,NA,NA,NA,NA,NA,NA,NA,NA
f6d8d,"""Falsch""-Screen",canvas.Screen,3_0_4_0_5_0_2,NA,NA,skipped,NA,1542903.8,NA,NA,1542896.704,1542904,2023-02-05T09:31:54Z,1542913.37,NULL,Vergnügen,kichekesho,d,NA,NA,NA,NA,sd,NA,4,NA,NA,NA,NA,NA,NA,NA,NA,NA,NA,NA,NA,NA,NA,NA,NA,NA,NA,NA
f6d8d,deep,flow.Sequence,3_0_4_0_5_0,NA,NA,completion,12466.859,1530420.6,1530413.179,1530429.845,1542896.704,1542904.2,2023-02-05T09:31:54Z,1542913.37,NULL,Vergnügen,kichekesho,d,NA,NA,NA,NA,sd,NA,4,NA,NA,NA,NA,NA,NA,NA,NA,NA,NA,NA,NA,NA,NA,NA,NA,NA,NA,NA
f6d8d,shallow,flow.Sequence,3_0_4_0_5_1,NA,NA,skipped,NA,1542904.3,NA,NA,1542896.704,1542904.4,2023-02-05T09:31:54Z,1542913.37,NULL,Vergnügen,kichekesho,d,NA,NA,NA,NA,sd,NA,4,NA,NA,NA,NA,NA,NA,NA,NA,NA,NA,NA,NA,NA,NA,NA,NA,NA,NA,NA
f6d8d,task,flow.Sequence,3_0_4_0_5,NA,NA,completion,12466.859,1530420.5,1530413.179,1530429.845,1542896.704,1542904.6,2023-02-05T09:31:54Z,1542913.37,NULL,Vergnügen,kichekesho,d,NA,NA,NA,NA,sd,NA,4,NA,NA,NA,NA,NA,NA,NA,NA,NA,NA,NA,NA,NA,NA,NA,NA,NA,NA,NA
f6d8d,Deep Question,html.Page,3_0_4_0_6_0_0,NA,NA,form submission,6793.0299999909,1542904.7,1542896.704,1542913.37,1549706.4,1549706.9,2023-02-05T09:32:01Z,1549730.533,NULL,Notfall,dharura,d,NA,NA,NA,dhahera,NA,NA,4,NA,NA,NA,NA,NA,NA,NA,NA,NA,NA,NA,NA,NA,NA,NA,NA,NA,NA,NA
f6d8d,"""Richtig""-Screen",canvas.Screen,3_0_4_0_6_0_1,NA,NA,skipped,NA,1549709.9,NA,NA,1549706.4,1549710,2023-02-05T09:32:01Z,1549730.533,NULL,Notfall,dharura,d,NA,NA,NA,NA,sd,NA,4,NA,NA,NA,NA,NA,NA,NA,NA,NA,NA,NA,NA,NA,NA,NA,NA,NA,NA,NA
f6d8d,"""Falsch""-Screen",canvas.Screen,3_0_4_0_6_0_2,NA,NA,timeout,4999.8,1549710.8,1549713.867,1549730.533,1554713.667,1554716.1,2023-02-05T09:32:06Z,1554730.333,NULL,Notfall,dharura,d,NA,NA,NA,NA,sd,0,4,NA,NA,NA,NA,NA,NA,NA,NA,NA,NA,NA,NA,NA,NA,NA,NA,NA,NA,NA
f6d8d,deep,flow.Sequence,3_0_4_0_6_0,NA,NA,completion,11800.297,1542904.6,1542896.704,1542913.37,1554713.667,1554716.7,2023-02-05T09:32:06Z,1554730.333,NULL,Notfall,dharura,d,NA,NA,NA,NA,sd,NA,4,NA,NA,NA,NA,NA,NA,NA,NA,NA,NA,NA,NA,NA,NA,NA,NA,NA,NA,NA
f6d8d,shallow,flow.Sequence,3_0_4_0_6_1,NA,NA,skipped,NA,1554716.9,NA,NA,1554713.667,1554717,2023-02-05T09:32:06Z,1554730.333,NULL,Notfall,dharura,d,NA,NA,NA,NA,sd,NA,4,NA,NA,NA,NA,NA,NA,NA,NA,NA,NA,NA,NA,NA,NA,NA,NA,NA,NA,NA
f6d8d,task,flow.Sequence,3_0_4_0_6,NA,NA,completion,11800.297,1542904.6,1542896.704,1542913.37,1554713.667,1554717.2,2023-02-05T09:32:06Z,1554730.333,NULL,Notfall,dharura,d,NA,NA,NA,NA,sd,NA,4,NA,NA,NA,NA,NA,NA,NA,NA,NA,NA,NA,NA,NA,NA,NA,NA,NA,NA,NA
f6d8d,deep,flow.Sequence,3_0_4_0_7_0,NA,NA,skipped,NA,1554717.4,NA,NA,1554713.667,1554717.5,2023-02-05T09:32:06Z,1554730.333,NULL,Ergänzung,kijalizo,s,ulaghai,mustarehe,matangazo,NA,sd,NA,4,NA,NA,NA,NA,NA,NA,NA,NA,NA,NA,NA,NA,NA,NA,NA,NA,NA,NA,NA
f6d8d,Shallow Question,html.Page,3_0_4_0_7_1_0,NA,NA,form submission,4654.6669999999,1554717.7,1554713.667,1554730.333,1559385,1559385.4,2023-02-05T09:32:10Z,1559397.389,NULL,Ergänzung,kijalizo,s,ulaghai,mustarehe,matangazo,kijalizo,NA,NA,4,NA,NA,NA,NA,NA,NA,NA,NA,NA,NA,NA,NA,NA,NA,NA,NA,NA,NA,NA
f6d8d,"""Richtig""-Screen",canvas.Screen,3_0_4_0_7_1_1,NA,NA,timeout,4999.8,1559387.9,1559380.723,1559397.389,1564380.523,1564383,2023-02-05T09:32:15Z,1564397.189,NULL,Ergänzung,kijalizo,s,ulaghai,mustarehe,matangazo,NA,sd,1,4,NA,NA,NA,NA,NA,NA,NA,NA,NA,NA,NA,NA,NA,NA,NA,NA,NA,NA,NA
f6d8d,"""Falsch""-Screen",canvas.Screen,3_0_4_0_7_1_2,NA,NA,skipped,NA,1564386.5,NA,NA,1564380.523,1564386.7,2023-02-05T09:32:15Z,1564397.189,NULL,Ergänzung,kijalizo,s,ulaghai,mustarehe,matangazo,NA,sd,NA,4,NA,NA,NA,NA,NA,NA,NA,NA,NA,NA,NA,NA,NA,NA,NA,NA,NA,NA,NA
f6d8d,shallow,flow.Sequence,3_0_4_0_7_1,NA,NA,completion,9650.1899999999,1554717.6,1554713.667,1554730.333,1564380.523,1564386.8,2023-02-05T09:32:15Z,1564397.189,NULL,Ergänzung,kijalizo,s,ulaghai,mustarehe,matangazo,NA,sd,NA,4,NA,NA,NA,NA,NA,NA,NA,NA,NA,NA,NA,NA,NA,NA,NA,NA,NA,NA,NA
f6d8d,task,flow.Sequence,3_0_4_0_7,NA,NA,completion,9650.1899999999,1554717.3,1554713.667,1554730.333,1564380.523,1564387,2023-02-05T09:32:15Z,1564397.189,NULL,Ergänzung,kijalizo,s,ulaghai,mustarehe,matangazo,NA,sd,NA,4,NA,NA,NA,NA,NA,NA,NA,NA,NA,NA,NA,NA,NA,NA,NA,NA,NA,NA,NA
f6d8d,block,flow.Loop,3_0_4_0,NA,NA,completion,91384.556,1472983.5,1472979.301,1472995.967,1564380.523,1564387.1,2023-02-05T09:32:15Z,1564397.189,NULL,NA,NA,NA,NA,NA,NA,NA,sd,NA,4,NA,NA,NA,NA,NA,NA,NA,NA,NA,NA,NA,NA,NA,NA,NA,NA,NA,NA,NA
f6d8d,weiter,canvas.Screen,3_0_4_1,sdf,keypress(Space),response,946.61099999701,1564387.2,1564380.523,1564397.189,1565343.8,1565347.4,2023-02-05T09:32:16Z,1565563.809,NULL,NA,NA,NA,NA,NA,NA,NA,sd,NA,4,NA,NA,NA,NA,NA,NA,NA,NA,NA,NA,NA,NA,NA,NA,NA,NA,NA,NA,NA
f6d8d,check continue,flow.Sequence,3_0_4,NA,NA,completion,92347.832999997,1472983.4,1472979.301,1472995.967,1565343.8,1565347.7,2023-02-05T09:32:16Z,1565563.809,NULL,NA,NA,NA,NA,NA,NA,NA,sd,NA,4,NA,NA,NA,NA,NA,NA,NA,NA,NA,NA,NA,NA,NA,NA,NA,NA,NA,NA,NA
f6d8d,check continue,flow.Sequence,3_0_5,NA,NA,skipped,NA,1565375.2,NA,NA,1565343.8,1565375.3,2023-02-05T09:32:16Z,1565563.809,NULL,NA,NA,NA,NA,NA,NA,NA,sdf,NA,5,NA,NA,NA,NA,NA,NA,NA,NA,NA,NA,NA,NA,NA,NA,NA,NA,NA,NA,NA
f6d8d,check continue,flow.Sequence,3_0_6,NA,NA,skipped,NA,1565390.2,NA,NA,1565343.8,1565390.3,2023-02-05T09:32:16Z,1565563.809,NULL,NA,NA,NA,NA,NA,NA,NA,dfs,NA,6,NA,NA,NA,NA,NA,NA,NA,NA,NA,NA,NA,NA,NA,NA,NA,NA,NA,NA,NA
f6d8d,check continue,flow.Sequence,3_0_7,NA,NA,skipped,NA,1565402.4,NA,NA,1565343.8,1565402.4,2023-02-05T09:32:16Z,1565563.809,NULL,NA,NA,NA,NA,NA,NA,NA,df,NA,7,NA,NA,NA,NA,NA,NA,NA,NA,NA,NA,NA,NA,NA,NA,NA,NA,NA,NA,NA
f6d8d,check continue,flow.Sequence,3_0_8,NA,NA,skipped,NA,1565412.4,NA,NA,1565343.8,1565412.5,2023-02-05T09:32:16Z,1565563.809,NULL,NA,NA,NA,NA,NA,NA,NA,dfs,NA,8,NA,NA,NA,NA,NA,NA,NA,NA,NA,NA,NA,NA,NA,NA,NA,NA,NA,NA,NA
f6d8d,check continue,flow.Sequence,3_0_9,NA,NA,skipped,NA,1565421.2,NA,NA,1565343.8,1565421.2,2023-02-05T09:32:16Z,1565563.809,NULL,NA,NA,NA,NA,NA,NA,NA,dsf,NA,9,NA,NA,NA,NA,NA,NA,NA,NA,NA,NA,NA,NA,NA,NA,NA,NA,NA,NA,NA
f6d8d,check continue,flow.Sequence,3_0_10,NA,NA,skipped,NA,1565429.8,NA,NA,1565343.8,1565429.8,2023-02-05T09:32:16Z,1565563.809,NULL,NA,NA,NA,NA,NA,NA,NA,df,NA,10,NA,NA,NA,NA,NA,NA,NA,NA,NA,NA,NA,NA,NA,NA,NA,NA,NA,NA,NA
f6d8d,check continue,flow.Sequence,3_0_11,NA,NA,skipped,NA,1565437.2,NA,NA,1565343.8,1565437.2,2023-02-05T09:32:16Z,1565563.809,NULL,NA,NA,NA,NA,NA,NA,NA,dfs,NA,11,NA,NA,NA,NA,NA,NA,NA,NA,NA,NA,NA,NA,NA,NA,NA,NA,NA,NA,NA
f6d8d,check continue,flow.Sequence,3_0_12,NA,NA,skipped,NA,1565444.5,NA,NA,1565343.8,1565444.6,2023-02-05T09:32:16Z,1565563.809,NULL,NA,NA,NA,NA,NA,NA,NA,dsf,NA,12,NA,NA,NA,NA,NA,NA,NA,NA,NA,NA,NA,NA,NA,NA,NA,NA,NA,NA,NA
f6d8d,check continue,flow.Sequence,3_0_13,NA,NA,skipped,NA,1565451.8,NA,NA,1565343.8,1565451.9,2023-02-05T09:32:16Z,1565563.809,NULL,NA,NA,NA,NA,NA,NA,NA,dsf,NA,13,NA,NA,NA,NA,NA,NA,NA,NA,NA,NA,NA,NA,NA,NA,NA,NA,NA,NA,NA
f6d8d,check continue,flow.Sequence,3_0_14,NA,NA,skipped,NA,1565458.5,NA,NA,1565343.8,1565458.5,2023-02-05T09:32:16Z,1565563.809,NULL,NA,NA,NA,NA,NA,NA,NA,NA,NA,14,NA,NA,NA,NA,NA,NA,NA,NA,NA,NA,NA,NA,NA,NA,NA,NA,NA,NA,NA
f6d8d,check continue,flow.Sequence,3_0_15,NA,NA,skipped,NA,1565465.5,NA,NA,1565343.8,1565465.5,2023-02-05T09:32:16Z,1565563.809,NULL,NA,NA,NA,NA,NA,NA,NA,NA,NA,15,NA,NA,NA,NA,NA,NA,NA,NA,NA,NA,NA,NA,NA,NA,NA,NA,NA,NA,NA
f6d8d,check continue,flow.Sequence,3_0_16,NA,NA,skipped,NA,1565472,NA,NA,1565343.8,1565472.1,2023-02-05T09:32:16Z,1565563.809,NULL,NA,NA,NA,NA,NA,NA,NA,NA,NA,16,NA,NA,NA,NA,NA,NA,NA,NA,NA,NA,NA,NA,NA,NA,NA,NA,NA,NA,NA
f6d8d,check continue,flow.Sequence,3_0_17,NA,NA,skipped,NA,1565478.2,NA,NA,1565343.8,1565478.3,2023-02-05T09:32:16Z,1565563.809,NULL,NA,NA,NA,NA,NA,NA,NA,NA,NA,17,NA,NA,NA,NA,NA,NA,NA,NA,NA,NA,NA,NA,NA,NA,NA,NA,NA,NA,NA
f6d8d,check continue,flow.Sequence,3_0_18,NA,NA,skipped,NA,1565484.3,NA,NA,1565343.8,1565484.4,2023-02-05T09:32:16Z,1565563.809,NULL,NA,NA,NA,NA,NA,NA,NA,NA,NA,18,NA,NA,NA,NA,NA,NA,NA,NA,NA,NA,NA,NA,NA,NA,NA,NA,NA,NA,NA
f6d8d,check continue,flow.Sequence,3_0_19,NA,NA,skipped,NA,1565490.9,NA,NA,1565343.8,1565491,2023-02-05T09:32:16Z,1565563.809,NULL,NA,NA,NA,NA,NA,NA,NA,NA,NA,19,NA,NA,NA,NA,NA,NA,NA,NA,NA,NA,NA,NA,NA,NA,NA,NA,NA,NA,NA
f6d8d,check continue,flow.Sequence,3_0_20,NA,NA,skipped,NA,1565497,NA,NA,1565343.8,1565497,2023-02-05T09:32:16Z,1565563.809,NULL,NA,NA,NA,NA,NA,NA,NA,NA,NA,20,NA,NA,NA,NA,NA,NA,NA,NA,NA,NA,NA,NA,NA,NA,NA,NA,NA,NA,NA
f6d8d,check continue,flow.Sequence,3_0_21,NA,NA,skipped,NA,1565503.7,NA,NA,1565343.8,1565503.7,2023-02-05T09:32:16Z,1565563.809,NULL,NA,NA,NA,NA,NA,NA,NA,NA,NA,21,NA,NA,NA,NA,NA,NA,NA,NA,NA,NA,NA,NA,NA,NA,NA,NA,NA,NA,NA
f6d8d,check continue,flow.Sequence,3_0_22,NA,NA,skipped,NA,1565509.8,NA,NA,1565343.8,1565509.8,2023-02-05T09:32:16Z,1565563.809,NULL,NA,NA,NA,NA,NA,NA,NA,NA,NA,22,NA,NA,NA,NA,NA,NA,NA,NA,NA,NA,NA,NA,NA,NA,NA,NA,NA,NA,NA
f6d8d,check continue,flow.Sequence,3_0_23,NA,NA,skipped,NA,1565516.4,NA,NA,1565343.8,1565516.4,2023-02-05T09:32:16Z,1565563.809,NULL,NA,NA,NA,NA,NA,NA,NA,NA,NA,23,NA,NA,NA,NA,NA,NA,NA,NA,NA,NA,NA,NA,NA,NA,NA,NA,NA,NA,NA
f6d8d,check continue,flow.Sequence,3_0_24,NA,NA,skipped,NA,1565522.3,NA,NA,1565343.8,1565522.3,2023-02-05T09:32:16Z,1565563.809,NULL,NA,NA,NA,NA,NA,NA,NA,NA,NA,24,NA,NA,NA,NA,NA,NA,NA,NA,NA,NA,NA,NA,NA,NA,NA,NA,NA,NA,NA
f6d8d,check continue,flow.Sequence,3_0_25,NA,NA,skipped,NA,1565528.9,NA,NA,1565343.8,1565528.9,2023-02-05T09:32:16Z,1565563.809,NULL,NA,NA,NA,NA,NA,NA,NA,NA,NA,25,NA,NA,NA,NA,NA,NA,NA,NA,NA,NA,NA,NA,NA,NA,NA,NA,NA,NA,NA
f6d8d,check continue,flow.Sequence,3_0_26,NA,NA,skipped,NA,1565534.8,NA,NA,1565343.8,1565534.8,2023-02-05T09:32:16Z,1565563.809,NULL,NA,NA,NA,NA,NA,NA,NA,NA,NA,26,NA,NA,NA,NA,NA,NA,NA,NA,NA,NA,NA,NA,NA,NA,NA,NA,NA,NA,NA
f6d8d,check continue,flow.Sequence,3_0_27,NA,NA,skipped,NA,1565548.1,NA,NA,1565343.8,1565548.2,2023-02-05T09:32:16Z,1565563.809,NULL,NA,NA,NA,NA,NA,NA,NA,NA,NA,27,NA,NA,NA,NA,NA,NA,NA,NA,NA,NA,NA,NA,NA,NA,NA,NA,NA,NA,NA
f6d8d,check continue,flow.Sequence,3_0_28,NA,NA,skipped,NA,1565554.2,NA,NA,1565343.8,1565554.2,2023-02-05T09:32:16Z,1565563.809,NULL,NA,NA,NA,NA,NA,NA,NA,NA,NA,28,NA,NA,NA,NA,NA,NA,NA,NA,NA,NA,NA,NA,NA,NA,NA,NA,NA,NA,NA
f6d8d,check continue,flow.Sequence,3_0_29,NA,NA,skipped,NA,1565560.6,NA,NA,1565343.8,1565560.7,2023-02-05T09:32:16Z,1565563.809,NULL,NA,NA,NA,NA,NA,NA,NA,NA,NA,29,NA,NA,NA,NA,NA,NA,NA,NA,NA,NA,NA,NA,NA,NA,NA,NA,NA,NA,NA
f6d8d,until continue,flow.Loop,3_0,NA,NA,completion,477486.823,1087835.6,1087840.311,1087856.977,1565343.8,1565560.7,2023-02-05T09:32:16Z,1565563.809,NULL,NA,NA,NA,NA,NA,NA,NA,NA,NA,NA,NA,NA,NA,NA,NA,NA,NA,NA,NA,NA,NA,NA,NA,NA,NA,NA,NA,NA,NA
f6d8d,block 1,flow.Sequence,3,NA,NA,completion,477486.823,1087835.6,1087840.311,1087856.977,1565343.8,1565560.7,2023-02-05T09:32:16Z,1565563.809,NULL,NA,NA,NA,NA,NA,NA,NA,NA,NA,NA,NA,NA,NA,NA,NA,NA,NA,NA,NA,NA,NA,NA,NA,NA,NA,NA,NA,NA,NA
f6d8d,1.Part Over,canvas.Screen,4,NA,keypress(Space),response,1723.0909999912,1565560.8,1565330.485,1565563.809,1567286.9,1567290.5,2023-02-05T09:32:18Z,1567347.669,NULL,NA,NA,NA,NA,NA,NA,NA,NA,NA,NA,NA,NA,NA,NA,NA,NA,NA,NA,NA,NA,NA,NA,NA,NA,NA,NA,NA,NA,NA
f6d8d,deep,flow.Sequence,5_0_0_0_0_0,NA,NA,skipped,NA,1567342.6,NA,NA,1567286.9,1567342.7,2023-02-05T09:32:18Z,1567347.669,NULL,Symbol,kielezo,s,kinyume,nderemo,utayari,NA,sdf,NA,0,NA,NA,NA,NA,NA,NA,NA,NA,NA,NA,NA,NA,NA,NA,NA,NA,NA,NA,NA
f6d8d,Shallow Question,html.Page,5_0_0_0_0_1_0,NA,NA,form submission,2587.831,1567342.7,1567331.003,1567347.669,1569935.5,1569936,2023-02-05T09:32:21Z,1569947.565,NULL,Symbol,kielezo,s,kinyume,nderemo,utayari,utayari,NA,NA,0,NA,NA,NA,NA,NA,NA,NA,NA,NA,NA,NA,NA,NA,NA,NA,NA,NA,NA,NA
f6d8d,"""Richtig""-Screen",canvas.Screen,5_0_0_0_0_1_1,NA,NA,skipped,NA,1569938.3,NA,NA,1569935.5,1569938.5,2023-02-05T09:32:21Z,1569947.565,NULL,Symbol,kielezo,s,kinyume,nderemo,utayari,NA,sdf,NA,0,NA,NA,NA,NA,NA,NA,NA,NA,NA,NA,NA,NA,NA,NA,NA,NA,NA,NA,NA
f6d8d,"""Falsch""-Screen",canvas.Screen,5_0_0_0_0_1_2,NA,NA,timeout,4999.8,1569939.5,1569930.899,1569947.565,1574930.699,1574933,2023-02-05T09:32:26Z,1574947.365,NULL,Symbol,kielezo,s,kinyume,nderemo,utayari,NA,sdf,0,0,NA,NA,NA,NA,NA,NA,NA,NA,NA,NA,NA,NA,NA,NA,NA,NA,NA,NA,NA
f6d8d,shallow,flow.Sequence,5_0_0_0_0_1,NA,NA,completion,7583.03,1567342.7,1567331.003,1567347.669,1574930.699,1574933.6,2023-02-05T09:32:26Z,1574947.365,NULL,Symbol,kielezo,s,kinyume,nderemo,utayari,NA,sdf,NA,0,NA,NA,NA,NA,NA,NA,NA,NA,NA,NA,NA,NA,NA,NA,NA,NA,NA,NA,NA
f6d8d,task,flow.Sequence,5_0_0_0_0,NA,NA,completion,7583.03,1567342.6,1567331.003,1567347.669,1574930.699,1574933.8,2023-02-05T09:32:26Z,1574947.365,NULL,Symbol,kielezo,s,kinyume,nderemo,utayari,NA,sdf,NA,0,NA,NA,NA,NA,NA,NA,NA,NA,NA,NA,NA,NA,NA,NA,NA,NA,NA,NA,NA
f6d8d,deep,flow.Sequence,5_0_0_0_1_0,NA,NA,skipped,NA,1574934,NA,NA,1574930.699,1574934.1,2023-02-05T09:32:26Z,1574947.365,NULL,Spionage,upelelezi,s,maslahi,utokazo,magangao,NA,sdf,NA,0,NA,NA,NA,NA,NA,NA,NA,NA,NA,NA,NA,NA,NA,NA,NA,NA,NA,NA,NA
f6d8d,Shallow Question,html.Page,5_0_0_0_1_1_0,NA,NA,form submission,3104.434999997,1574934.3,1574930.699,1574947.365,1578051.8,1578052.3,2023-02-05T09:32:29Z,1578064.438,NULL,Spionage,upelelezi,s,maslahi,utokazo,magangao,magangao,NA,NA,0,NA,NA,NA,NA,NA,NA,NA,NA,NA,NA,NA,NA,NA,NA,NA,NA,NA,NA,NA
f6d8d,"""Richtig""-Screen",canvas.Screen,5_0_0_0_1_1_1,NA,NA,skipped,NA,1578055.7,NA,NA,1578051.8,1578055.8,2023-02-05T09:32:29Z,1578064.438,NULL,Spionage,upelelezi,s,maslahi,utokazo,magangao,NA,sdf,NA,0,NA,NA,NA,NA,NA,NA,NA,NA,NA,NA,NA,NA,NA,NA,NA,NA,NA,NA,NA
f6d8d,"""Falsch""-Screen",canvas.Screen,5_0_0_0_1_1_2,NA,NA,timeout,4999.7999999998,1578056.9,1578047.772,1578064.438,1583047.572,1583049.8,2023-02-05T09:32:34Z,1583064.238,NULL,Spionage,upelelezi,s,maslahi,utokazo,magangao,NA,sdf,0,0,NA,NA,NA,NA,NA,NA,NA,NA,NA,NA,NA,NA,NA,NA,NA,NA,NA,NA,NA
f6d8d,shallow,flow.Sequence,5_0_0_0_1_1,NA,NA,completion,8100.2069999999,1574934.2,1574930.699,1574947.365,1583047.572,1583050.3,2023-02-05T09:32:34Z,1583064.238,NULL,Spionage,upelelezi,s,maslahi,utokazo,magangao,NA,sdf,NA,0,NA,NA,NA,NA,NA,NA,NA,NA,NA,NA,NA,NA,NA,NA,NA,NA,NA,NA,NA
f6d8d,task,flow.Sequence,5_0_0_0_1,NA,NA,completion,8100.2069999999,1574933.9,1574930.699,1574947.365,1583047.572,1583050.4,2023-02-05T09:32:34Z,1583064.238,NULL,Spionage,upelelezi,s,maslahi,utokazo,magangao,NA,sdf,NA,0,NA,NA,NA,NA,NA,NA,NA,NA,NA,NA,NA,NA,NA,NA,NA,NA,NA,NA,NA
f6d8d,deep,flow.Sequence,5_0_0_0_2_0,NA,NA,skipped,NA,1583050.7,NA,NA,1583047.572,1583050.9,2023-02-05T09:32:34Z,1583064.238,NULL,Zuwachs,nyongeza,s,matilaba,udhibiti,hudhurio,NA,sdf,NA,0,NA,NA,NA,NA,NA,NA,NA,NA,NA,NA,NA,NA,NA,NA,NA,NA,NA,NA,NA
f6d8d,Shallow Question,html.Page,5_0_0_0_2_1_0,NA,NA,form submission,4687.7620000001,1583051,1583047.572,1583064.238,1587752,1587752.6,2023-02-05T09:32:39Z,1587764.492,NULL,Zuwachs,nyongeza,s,matilaba,udhibiti,hudhurio,udhibiti,NA,NA,0,NA,NA,NA,NA,NA,NA,NA,NA,NA,NA,NA,NA,NA,NA,NA,NA,NA,NA,NA
f6d8d,"""Richtig""-Screen",canvas.Screen,5_0_0_0_2_1_1,NA,NA,skipped,NA,1587755.4,NA,NA,1587752,1587755.5,2023-02-05T09:32:39Z,1587764.492,NULL,Zuwachs,nyongeza,s,matilaba,udhibiti,hudhurio,NA,sdf,NA,0,NA,NA,NA,NA,NA,NA,NA,NA,NA,NA,NA,NA,NA,NA,NA,NA,NA,NA,NA
f6d8d,"""Falsch""-Screen",canvas.Screen,5_0_0_0_2_1_2,NA,NA,timeout,4999.7999999998,1587756.7,1587747.826,1587764.492,1592747.626,1592749.9,2023-02-05T09:32:44Z,1592764.292,NULL,Zuwachs,nyongeza,s,matilaba,udhibiti,hudhurio,NA,sdf,0,0,NA,NA,NA,NA,NA,NA,NA,NA,NA,NA,NA,NA,NA,NA,NA,NA,NA,NA,NA
f6d8d,shallow,flow.Sequence,5_0_0_0_2_1,NA,NA,completion,9683.388,1583051,1583047.572,1583064.238,1592747.626,1592750.3,2023-02-05T09:32:44Z,1592764.292,NULL,Zuwachs,nyongeza,s,matilaba,udhibiti,hudhurio,NA,sdf,NA,0,NA,NA,NA,NA,NA,NA,NA,NA,NA,NA,NA,NA,NA,NA,NA,NA,NA,NA,NA
f6d8d,task,flow.Sequence,5_0_0_0_2,NA,NA,completion,9683.388,1583050.7,1583047.572,1583064.238,1592747.626,1592750.5,2023-02-05T09:32:44Z,1592764.292,NULL,Zuwachs,nyongeza,s,matilaba,udhibiti,hudhurio,NA,sdf,NA,0,NA,NA,NA,NA,NA,NA,NA,NA,NA,NA,NA,NA,NA,NA,NA,NA,NA,NA,NA
f6d8d,Deep Question,html.Page,5_0_0_0_3_0_0,NA,NA,form submission,7387.0079999971,1592750.8,1592747.626,1592764.292,1600151.3,1600151.8,2023-02-05T09:32:51Z,1600164.622,NULL,Konkurrent,mshindani,d,NA,NA,NA,a,NA,NA,0,NA,NA,NA,NA,NA,NA,NA,NA,NA,NA,NA,NA,NA,NA,NA,NA,NA,NA,NA
f6d8d,"""Richtig""-Screen",canvas.Screen,5_0_0_0_3_0_1,NA,NA,skipped,NA,1600154.9,NA,NA,1600151.3,1600155,2023-02-05T09:32:51Z,1600164.622,NULL,Konkurrent,mshindani,d,NA,NA,NA,NA,sdf,NA,0,NA,NA,NA,NA,NA,NA,NA,NA,NA,NA,NA,NA,NA,NA,NA,NA,NA,NA,NA
f6d8d,"""Falsch""-Screen",canvas.Screen,5_0_0_0_3_0_2,NA,NA,timeout,4999.8,1600155.8,1600147.956,1600164.622,1605147.756,1605150.5,2023-02-05T09:32:56Z,1605164.422,NULL,Konkurrent,mshindani,d,NA,NA,NA,NA,sdf,0,0,NA,NA,NA,NA,NA,NA,NA,NA,NA,NA,NA,NA,NA,NA,NA,NA,NA,NA,NA
f6d8d,deep,flow.Sequence,5_0_0_0_3_0,NA,NA,completion,12383.464,1592750.7,1592747.626,1592764.292,1605147.756,1605151,2023-02-05T09:32:56Z,1605164.422,NULL,Konkurrent,mshindani,d,NA,NA,NA,NA,sdf,NA,0,NA,NA,NA,NA,NA,NA,NA,NA,NA,NA,NA,NA,NA,NA,NA,NA,NA,NA,NA
f6d8d,shallow,flow.Sequence,5_0_0_0_3_1,NA,NA,skipped,NA,1605151.3,NA,NA,1605147.756,1605151.4,2023-02-05T09:32:56Z,1605164.422,NULL,Konkurrent,mshindani,d,NA,NA,NA,NA,sdf,NA,0,NA,NA,NA,NA,NA,NA,NA,NA,NA,NA,NA,NA,NA,NA,NA,NA,NA,NA,NA
f6d8d,task,flow.Sequence,5_0_0_0_3,NA,NA,completion,12383.464,1592750.7,1592747.626,1592764.292,1605147.756,1605151.5,2023-02-05T09:32:56Z,1605164.422,NULL,Konkurrent,mshindani,d,NA,NA,NA,NA,sdf,NA,0,NA,NA,NA,NA,NA,NA,NA,NA,NA,NA,NA,NA,NA,NA,NA,NA,NA,NA,NA
f6d8d,Deep Question,html.Page,5_0_0_0_4_0_0,NA,NA,form submission,2785.977999991,1605151.7,1605147.756,1605164.422,1607950.4,1607950.6,2023-02-05T09:32:59Z,1607964.31,NULL,Schüler,mwanafunzi,d,NA,NA,NA,a,NA,NA,0,NA,NA,NA,NA,NA,NA,NA,NA,NA,NA,NA,NA,NA,NA,NA,NA,NA,NA,NA
f6d8d,"""Richtig""-Screen",canvas.Screen,5_0_0_0_4_0_1,NA,NA,skipped,NA,1607953,NA,NA,1607950.4,1607953,2023-02-05T09:32:59Z,1607964.31,NULL,Schüler,mwanafunzi,d,NA,NA,NA,NA,sdf,NA,0,NA,NA,NA,NA,NA,NA,NA,NA,NA,NA,NA,NA,NA,NA,NA,NA,NA,NA,NA
f6d8d,"""Falsch""-Screen",canvas.Screen,5_0_0_0_4_0_2,NA,NA,timeout,4999.8,1607953.6,1607947.644,1607964.31,1612947.444,1612949.7,2023-02-05T09:33:04Z,1612964.11,NULL,Schüler,mwanafunzi,d,NA,NA,NA,NA,sdf,0,0,NA,NA,NA,NA,NA,NA,NA,NA,NA,NA,NA,NA,NA,NA,NA,NA,NA,NA,NA
f6d8d,deep,flow.Sequence,5_0_0_0_4_0,NA,NA,completion,7783.0219999999,1605151.7,1605147.756,1605164.422,1612947.444,1612950.2,2023-02-05T09:33:04Z,1612964.11,NULL,Schüler,mwanafunzi,d,NA,NA,NA,NA,sdf,NA,0,NA,NA,NA,NA,NA,NA,NA,NA,NA,NA,NA,NA,NA,NA,NA,NA,NA,NA,NA
f6d8d,shallow,flow.Sequence,5_0_0_0_4_1,NA,NA,skipped,NA,1612950.4,NA,NA,1612947.444,1612950.5,2023-02-05T09:33:04Z,1612964.11,NULL,Schüler,mwanafunzi,d,NA,NA,NA,NA,sdf,NA,0,NA,NA,NA,NA,NA,NA,NA,NA,NA,NA,NA,NA,NA,NA,NA,NA,NA,NA,NA
f6d8d,task,flow.Sequence,5_0_0_0_4,NA,NA,completion,7783.0219999999,1605151.7,1605147.756,1605164.422,1612947.444,1612950.6,2023-02-05T09:33:04Z,1612964.11,NULL,Schüler,mwanafunzi,d,NA,NA,NA,NA,sdf,NA,0,NA,NA,NA,NA,NA,NA,NA,NA,NA,NA,NA,NA,NA,NA,NA,NA,NA,NA,NA
f6d8d,deep,flow.Sequence,5_0_0_0_5_0,NA,NA,skipped,NA,1612950.8,NA,NA,1612947.444,1612951,2023-02-05T09:33:04Z,1612964.11,NULL,Fenster,dirisha,s,walakini,tasawari,maarifa,NA,sdf,NA,0,NA,NA,NA,NA,NA,NA,NA,NA,NA,NA,NA,NA,NA,NA,NA,NA,NA,NA,NA
f6d8d,Shallow Question,html.Page,5_0_0_0_5_1_0,NA,NA,form submission,4521.289999991,1612951.1,1612947.444,1612964.11,1617485.4,1617486,2023-02-05T09:33:08Z,1617498.107,NULL,Fenster,dirisha,s,walakini,tasawari,maarifa,maarifa,NA,NA,0,NA,NA,NA,NA,NA,NA,NA,NA,NA,NA,NA,NA,NA,NA,NA,NA,NA,NA,NA
f6d8d,"""Richtig""-Screen",canvas.Screen,5_0_0_0_5_1_1,NA,NA,skipped,NA,1617489.6,NA,NA,1617485.4,1617489.8,2023-02-05T09:33:08Z,1617498.107,NULL,Fenster,dirisha,s,walakini,tasawari,maarifa,NA,sdf,NA,0,NA,NA,NA,NA,NA,NA,NA,NA,NA,NA,NA,NA,NA,NA,NA,NA,NA,NA,NA
f6d8d,"""Falsch""-Screen",canvas.Screen,5_0_0_0_5_1_2,NA,NA,timeout,4999.7999999998,1617490.8,1617481.441,1617498.107,1622481.241,1622483.7,2023-02-05T09:33:13Z,1622497.907,NULL,Fenster,dirisha,s,walakini,tasawari,maarifa,NA,sdf,0,0,NA,NA,NA,NA,NA,NA,NA,NA,NA,NA,NA,NA,NA,NA,NA,NA,NA,NA,NA
f6d8d,shallow,flow.Sequence,5_0_0_0_5_1,NA,NA,completion,9517.1309999998,1612951.1,1612947.444,1612964.11,1622481.241,1622484.2,2023-02-05T09:33:13Z,1622497.907,NULL,Fenster,dirisha,s,walakini,tasawari,maarifa,NA,sdf,NA,0,NA,NA,NA,NA,NA,NA,NA,NA,NA,NA,NA,NA,NA,NA,NA,NA,NA,NA,NA
f6d8d,task,flow.Sequence,5_0_0_0_5,NA,NA,completion,9517.1309999998,1612950.8,1612947.444,1612964.11,1622481.241,1622484.4,2023-02-05T09:33:13Z,1622497.907,NULL,Fenster,dirisha,s,walakini,tasawari,maarifa,NA,sdf,NA,0,NA,NA,NA,NA,NA,NA,NA,NA,NA,NA,NA,NA,NA,NA,NA,NA,NA,NA,NA
f6d8d,Deep Question,html.Page,5_0_0_0_6_0_0,NA,NA,form submission,2669.6929999941,1622484.7,1622481.241,1622497.907,1625167.6,1625167.9,2023-02-05T09:33:16Z,1625181.679,NULL,Vorsorge,tahadhari,d,NA,NA,NA,a,NA,NA,0,NA,NA,NA,NA,NA,NA,NA,NA,NA,NA,NA,NA,NA,NA,NA,NA,NA,NA,NA
f6d8d,"""Richtig""-Screen",canvas.Screen,5_0_0_0_6_0_1,NA,NA,skipped,NA,1625170.8,NA,NA,1625167.6,1625170.8,2023-02-05T09:33:16Z,1625181.679,NULL,Vorsorge,tahadhari,d,NA,NA,NA,NA,sdf,NA,0,NA,NA,NA,NA,NA,NA,NA,NA,NA,NA,NA,NA,NA,NA,NA,NA,NA,NA,NA
f6d8d,"""Falsch""-Screen",canvas.Screen,5_0_0_0_6_0_2,NA,NA,timeout,4999.8,1625171.4,1625165.013,1625181.679,1630164.813,1630166.5,2023-02-05T09:33:21Z,1630181.479,NULL,Vorsorge,tahadhari,d,NA,NA,NA,NA,sdf,0,0,NA,NA,NA,NA,NA,NA,NA,NA,NA,NA,NA,NA,NA,NA,NA,NA,NA,NA,NA
f6d8d,deep,flow.Sequence,5_0_0_0_6_0,NA,NA,completion,7666.9060000002,1622484.6,1622481.241,1622497.907,1630164.813,1630167,2023-02-05T09:33:21Z,1630181.479,NULL,Vorsorge,tahadhari,d,NA,NA,NA,NA,sdf,NA,0,NA,NA,NA,NA,NA,NA,NA,NA,NA,NA,NA,NA,NA,NA,NA,NA,NA,NA,NA
f6d8d,shallow,flow.Sequence,5_0_0_0_6_1,NA,NA,skipped,NA,1630167.1,NA,NA,1630164.813,1630167.2,2023-02-05T09:33:21Z,1630181.479,NULL,Vorsorge,tahadhari,d,NA,NA,NA,NA,sdf,NA,0,NA,NA,NA,NA,NA,NA,NA,NA,NA,NA,NA,NA,NA,NA,NA,NA,NA,NA,NA
f6d8d,task,flow.Sequence,5_0_0_0_6,NA,NA,completion,7666.9060000002,1622484.6,1622481.241,1622497.907,1630164.813,1630167.4,2023-02-05T09:33:21Z,1630181.479,NULL,Vorsorge,tahadhari,d,NA,NA,NA,NA,sdf,NA,0,NA,NA,NA,NA,NA,NA,NA,NA,NA,NA,NA,NA,NA,NA,NA,NA,NA,NA,NA
f6d8d,Deep Question,html.Page,5_0_0_0_7_0_0,NA,NA,form submission,2653.720999988,1630167.6,1630164.813,1630181.479,1632835.2,1632835.7,2023-02-05T09:33:24Z,1632848.039,NULL,Tester,wanaojaribu,d,NA,NA,NA,a,NA,NA,0,NA,NA,NA,NA,NA,NA,NA,NA,NA,NA,NA,NA,NA,NA,NA,NA,NA,NA,NA
f6d8d,"""Richtig""-Screen",canvas.Screen,5_0_0_0_7_0_1,NA,NA,skipped,NA,1632839.7,NA,NA,1632835.2,1632839.9,2023-02-05T09:33:24Z,1632848.039,NULL,Tester,wanaojaribu,d,NA,NA,NA,NA,sdf,NA,0,NA,NA,NA,NA,NA,NA,NA,NA,NA,NA,NA,NA,NA,NA,NA,NA,NA,NA,NA
f6d8d,"""Falsch""-Screen",canvas.Screen,5_0_0_0_7_0_2,NA,NA,timeout,4999.7999999998,1632840.7,1632831.373,1632848.039,1637831.173,1637833.8,2023-02-05T09:33:29Z,1637847.839,NULL,Tester,wanaojaribu,d,NA,NA,NA,NA,sdf,0,0,NA,NA,NA,NA,NA,NA,NA,NA,NA,NA,NA,NA,NA,NA,NA,NA,NA,NA,NA
f6d8d,deep,flow.Sequence,5_0_0_0_7_0,NA,NA,completion,7649.6939999999,1630167.6,1630164.813,1630181.479,1637831.173,1637834.4,2023-02-05T09:33:29Z,1637847.839,NULL,Tester,wanaojaribu,d,NA,NA,NA,NA,sdf,NA,0,NA,NA,NA,NA,NA,NA,NA,NA,NA,NA,NA,NA,NA,NA,NA,NA,NA,NA,NA
f6d8d,shallow,flow.Sequence,5_0_0_0_7_1,NA,NA,skipped,NA,1637834.5,NA,NA,1637831.173,1637834.7,2023-02-05T09:33:29Z,1637847.839,NULL,Tester,wanaojaribu,d,NA,NA,NA,NA,sdf,NA,0,NA,NA,NA,NA,NA,NA,NA,NA,NA,NA,NA,NA,NA,NA,NA,NA,NA,NA,NA
f6d8d,task,flow.Sequence,5_0_0_0_7,NA,NA,completion,7649.6939999999,1630167.5,1630164.813,1630181.479,1637831.173,1637834.8,2023-02-05T09:33:29Z,1637847.839,NULL,Tester,wanaojaribu,d,NA,NA,NA,NA,sdf,NA,0,NA,NA,NA,NA,NA,NA,NA,NA,NA,NA,NA,NA,NA,NA,NA,NA,NA,NA,NA
f6d8d,block,flow.Loop,5_0_0_0,NA,NA,completion,70483.504,1567342.6,1567331.003,1567347.669,1637831.173,1637835,2023-02-05T09:33:29Z,1637847.839,NULL,NA,NA,NA,NA,NA,NA,NA,sdf,NA,0,NA,NA,NA,NA,NA,NA,NA,NA,NA,NA,NA,NA,NA,NA,NA,NA,NA,NA,NA
f6d8d,weiter,canvas.Screen,5_0_0_1,sdf,keypress(Space),response,972.36099998816,1637835.2,1637831.173,1637847.839,1638820.2,1638826,2023-02-05T09:33:30Z,1638848.498,NULL,NA,NA,NA,NA,NA,NA,NA,sdf,NA,0,NA,NA,NA,NA,NA,NA,NA,NA,NA,NA,NA,NA,NA,NA,NA,NA,NA,NA,NA
