observation,sender,sender_type,sender_id,response,response_action,ended_on,duration,time_run,time_render,time_show,time_end,time_commit,timestamp,time_switch,distractors,german,swahili,enc,distractor1,distractor2,distractor3,response_2,x,correct,x_2,url_vp,url_sess,meta_labjs_version,meta_location,meta_user_agent,meta_platform,meta_language,meta_locale,meta_time_zone,meta_timezone_offset,meta_screen_width,meta_screen_height,meta_scroll_width,meta_scroll_height,meta_window_inner_width,meta_window_inner_height,meta_device_pixel_ratio,meta_labjs_build_flavor,meta_labjs_build_commit
fae62,Introduction general,canvas.Screen,0,weiter,keypress(q),response,77500.5,258.5,102.1,268.6,77769.1,77775.8,2024-05-26T10:49:31Z,77774.172,NULL,NA,NA,NA,NA,NA,NA,NA,NA,NA,NA,198,1,20.2.4,https://neurocog.fernuni.ch/studies/vweber/aberisha/encoding_immediate/index.html?vp=198&sess=1,"Mozilla/5.0 (Windows NT 10.0; Win64; x64) AppleWebKit/537.36 (KHTML, like Gecko) Chrome/125.0.0.0 Safari/537.36",Win32,de-DE,de,Europe/Zurich,-120,1536,864,1536,682,1536,730,1.25,production,f5b4a49f956347addd546a832a3327688c2c0fef
fae62,Introduction practice,canvas.Screen,1_0,NA,keypress(Space),response,8382.1279999998,77775.9,77774.172,77774.172,86156.3,86157.2,2024-05-26T10:49:39Z,86199.8,NULL,NA,NA,NA,NA,NA,NA,NA,NA,NA,NA,NA,NA,NA,NA,NA,NA,NA,NA,NA,NA,NA,NA,NA,NA,NA,NA,NA,NA,NA
fae62,Deep Question,html.Page,1_1_0_0_0,NA,NA,form submission,13688.3,86157.6,86150.812,86199.8,99888.1,99888.3,2024-05-26T10:49:53Z,99907.9,"c(""distractor1"", ""distractor2"", ""distractor3"")",Gesundheit,salama,d,NA,NA,NA,kjdfhskjdh,NA,NA,NA,NA,NA,NA,NA,NA,NA,NA,NA,NA,NA,NA,NA,NA,NA,NA,NA,NA,NA,NA
fae62,"""Richtig""-Screen",canvas.Screen,1_1_0_0_1,NA,NA,skipped,NA,99890.1,NA,NA,99888.1,99890.3,2024-05-26T10:49:53Z,99907.9,"c(""distractor1"", ""distractor2"", ""distractor3"")",Gesundheit,salama,d,NA,NA,NA,NA,NA,NA,NA,NA,NA,NA,NA,NA,NA,NA,NA,NA,NA,NA,NA,NA,NA,NA,NA,NA,NA,NA
fae62,"""Falsch""-Screen",canvas.Screen,1_1_0_0_2,NA,NA,timeout,5030.6,99891.8,99893.014,99907.9,104888.3,104893.4,2024-05-26T10:49:58Z,104938.5,"c(""distractor1"", ""distractor2"", ""distractor3"")",Gesundheit,salama,d,NA,NA,NA,NA,NA,0,NA,NA,NA,NA,NA,NA,NA,NA,NA,NA,NA,NA,NA,NA,NA,NA,NA,NA,NA,NA
fae62,deep,flow.Sequence,1_1_0_0,NA,NA,completion,18688.5,86157.6,86150.812,86199.8,104888.3,104893.9,2024-05-26T10:49:58Z,104938.5,"c(""distractor1"", ""distractor2"", ""distractor3"")",Gesundheit,salama,d,NA,NA,NA,NA,NA,NA,NA,NA,NA,NA,NA,NA,NA,NA,NA,NA,NA,NA,NA,NA,NA,NA,NA,NA,NA,NA
fae62,shallow,flow.Sequence,1_1_0_1,NA,NA,skipped,NA,104894.1,NA,NA,104888.3,104894.2,2024-05-26T10:49:58Z,104938.5,"c(""distractor1"", ""distractor2"", ""distractor3"")",Gesundheit,salama,d,NA,NA,NA,NA,NA,NA,NA,NA,NA,NA,NA,NA,NA,NA,NA,NA,NA,NA,NA,NA,NA,NA,NA,NA,NA,NA
fae62,task,flow.Sequence,1_1_0,NA,NA,completion,18688.5,86157.5,86150.812,86199.8,104888.3,104894.3,2024-05-26T10:49:58Z,104938.5,"c(""distractor1"", ""distractor2"", ""distractor3"")",Gesundheit,salama,d,NA,NA,NA,NA,NA,NA,NA,NA,NA,NA,NA,NA,NA,NA,NA,NA,NA,NA,NA,NA,NA,NA,NA,NA,NA,NA
fae62,Deep Question,html.Page,1_1_1_0_0,NA,NA,form submission,6557.3999999999,104894.3,104888.3,104938.5,111495.9,111496.2,2024-05-26T10:50:05Z,111500.8,"c(""distractor1"", ""distractor2"", ""distractor3"")",Qualität,mtindo,d,NA,NA,NA,sklafjlas,NA,NA,NA,NA,NA,NA,NA,NA,NA,NA,NA,NA,NA,NA,NA,NA,NA,NA,NA,NA,NA,NA
fae62,"""Richtig""-Screen",canvas.Screen,1_1_1_0_1,NA,NA,skipped,NA,111499.6,NA,NA,111495.9,111499.7,2024-05-26T10:50:05Z,111500.8,"c(""distractor1"", ""distractor2"", ""distractor3"")",Qualität,mtindo,d,NA,NA,NA,NA,NA,NA,NA,NA,NA,NA,NA,NA,NA,NA,NA,NA,NA,NA,NA,NA,NA,NA,NA,NA,NA,NA
fae62,"""Falsch""-Screen",canvas.Screen,1_1_1_0_2,NA,NA,timeout,4997.3,111500.6,111485.57,111500.8,116481.5,116482.5,2024-05-26T10:50:10Z,116498.1,"c(""distractor1"", ""distractor2"", ""distractor3"")",Qualität,mtindo,d,NA,NA,NA,NA,NA,0,NA,NA,NA,NA,NA,NA,NA,NA,NA,NA,NA,NA,NA,NA,NA,NA,NA,NA,NA,NA
fae62,deep,flow.Sequence,1_1_1_0,NA,NA,completion,11543,104894.3,104888.3,104938.5,116481.5,116482.9,2024-05-26T10:50:10Z,116498.1,"c(""distractor1"", ""distractor2"", ""distractor3"")",Qualität,mtindo,d,NA,NA,NA,NA,NA,NA,NA,NA,NA,NA,NA,NA,NA,NA,NA,NA,NA,NA,NA,NA,NA,NA,NA,NA,NA,NA
fae62,shallow,flow.Sequence,1_1_1_1,NA,NA,skipped,NA,116483.2,NA,NA,116481.5,116483.3,2024-05-26T10:50:10Z,116498.1,"c(""distractor1"", ""distractor2"", ""distractor3"")",Qualität,mtindo,d,NA,NA,NA,NA,NA,NA,NA,NA,NA,NA,NA,NA,NA,NA,NA,NA,NA,NA,NA,NA,NA,NA,NA,NA,NA,NA
fae62,task,flow.Sequence,1_1_1,NA,NA,completion,11543,104894.3,104888.3,104938.5,116481.5,116483.5,2024-05-26T10:50:10Z,116498.1,"c(""distractor1"", ""distractor2"", ""distractor3"")",Qualität,mtindo,d,NA,NA,NA,NA,NA,NA,NA,NA,NA,NA,NA,NA,NA,NA,NA,NA,NA,NA,NA,NA,NA,NA,NA,NA,NA,NA
fae62,deep,flow.Sequence,1_1_2_0,NA,NA,skipped,NA,116483.7,NA,NA,116481.5,116483.8,2024-05-26T10:50:10Z,116498.1,"c(""distractor1"", ""distractor2"", ""distractor3"")",Rückhalt,msaada,s,muhula,auwali,kiwimbe,NA,NA,NA,NA,NA,NA,NA,NA,NA,NA,NA,NA,NA,NA,NA,NA,NA,NA,NA,NA,NA,NA,NA
fae62,Shallow Question,html.Page,1_1_2_1_0,NA,NA,form submission,9907.6999999998,116484,116481.5,116498.1,126405.8,126406.1,2024-05-26T10:50:20Z,126409.406,"c(""distractor1"", ""distractor2"", ""distractor3"")",Rückhalt,msaada,s,muhula,auwali,kiwimbe,msaada,NA,NA,NA,NA,NA,NA,NA,NA,NA,NA,NA,NA,NA,NA,NA,NA,NA,NA,NA,NA,NA,NA
fae62,"""Richtig""-Screen",canvas.Screen,1_1_2_1_1,NA,NA,timeout,4996.394,126409.3,126409.406,126409.406,131388.8,131389.8,2024-05-26T10:50:25Z,131405.8,"c(""distractor1"", ""distractor2"", ""distractor3"")",Rückhalt,msaada,s,muhula,auwali,kiwimbe,NA,NA,1,NA,NA,NA,NA,NA,NA,NA,NA,NA,NA,NA,NA,NA,NA,NA,NA,NA,NA,NA,NA
fae62,"""Falsch""-Screen",canvas.Screen,1_1_2_1_2,NA,NA,skipped,NA,131394.9,NA,NA,131388.8,131395,2024-05-26T10:50:25Z,131405.8,"c(""distractor1"", ""distractor2"", ""distractor3"")",Rückhalt,msaada,s,muhula,auwali,kiwimbe,NA,NA,NA,NA,NA,NA,NA,NA,NA,NA,NA,NA,NA,NA,NA,NA,NA,NA,NA,NA,NA,NA,NA
fae62,shallow,flow.Sequence,1_1_2_1,NA,NA,completion,14890.7,116483.9,116481.5,116498.1,131388.8,131395.1,2024-05-26T10:50:25Z,131405.8,"c(""distractor1"", ""distractor2"", ""distractor3"")",Rückhalt,msaada,s,muhula,auwali,kiwimbe,NA,NA,NA,NA,NA,NA,NA,NA,NA,NA,NA,NA,NA,NA,NA,NA,NA,NA,NA,NA,NA,NA,NA
fae62,task,flow.Sequence,1_1_2,NA,NA,completion,14890.7,116483.7,116481.5,116498.1,131388.8,131395.2,2024-05-26T10:50:25Z,131405.8,"c(""distractor1"", ""distractor2"", ""distractor3"")",Rückhalt,msaada,s,muhula,auwali,kiwimbe,NA,NA,NA,NA,NA,NA,NA,NA,NA,NA,NA,NA,NA,NA,NA,NA,NA,NA,NA,NA,NA,NA,NA
fae62,deep,flow.Sequence,1_1_3_0,NA,NA,skipped,NA,131395.2,NA,NA,131388.8,131395.2,2024-05-26T10:50:25Z,131405.8,"c(""distractor1"", ""distractor2"", ""distractor3"")",Kritik,lawama,s,dereva,nafasi,mawazo,NA,NA,NA,NA,NA,NA,NA,NA,NA,NA,NA,NA,NA,NA,NA,NA,NA,NA,NA,NA,NA,NA,NA
fae62,Shallow Question,html.Page,1_1_3_1_0,NA,NA,form submission,15546.5,131395.3,131388.8,131405.8,146952.3,146952.5,2024-05-26T10:50:40Z,146962.7,"c(""distractor1"", ""distractor2"", ""distractor3"")",Kritik,lawama,s,dereva,nafasi,mawazo,nafasi,NA,NA,NA,NA,NA,NA,NA,NA,NA,NA,NA,NA,NA,NA,NA,NA,NA,NA,NA,NA,NA,NA
fae62,"""Richtig""-Screen",canvas.Screen,1_1_3_1_1,NA,NA,skipped,NA,146955.5,NA,NA,146952.3,146955.7,2024-05-26T10:50:40Z,146962.7,"c(""distractor1"", ""distractor2"", ""distractor3"")",Kritik,lawama,s,dereva,nafasi,mawazo,NA,NA,NA,NA,NA,NA,NA,NA,NA,NA,NA,NA,NA,NA,NA,NA,NA,NA,NA,NA,NA,NA,NA
fae62,"""Falsch""-Screen",canvas.Screen,1_1_3_1_2,NA,NA,timeout,4996.9,146956.6,146946.574,146962.7,151943.2,151944.1,2024-05-26T10:50:45Z,151959.6,"c(""distractor1"", ""distractor2"", ""distractor3"")",Kritik,lawama,s,dereva,nafasi,mawazo,NA,NA,0,NA,NA,NA,NA,NA,NA,NA,NA,NA,NA,NA,NA,NA,NA,NA,NA,NA,NA,NA,NA
fae62,shallow,flow.Sequence,1_1_3_1,NA,NA,completion,20537.4,131395.3,131388.8,131405.8,151943.2,151944.5,2024-05-26T10:50:45Z,151959.6,"c(""distractor1"", ""distractor2"", ""distractor3"")",Kritik,lawama,s,dereva,nafasi,mawazo,NA,NA,NA,NA,NA,NA,NA,NA,NA,NA,NA,NA,NA,NA,NA,NA,NA,NA,NA,NA,NA,NA,NA
fae62,task,flow.Sequence,1_1_3,NA,NA,completion,20537.4,131395.2,131388.8,131405.8,151943.2,151944.8,2024-05-26T10:50:45Z,151959.6,"c(""distractor1"", ""distractor2"", ""distractor3"")",Kritik,lawama,s,dereva,nafasi,mawazo,NA,NA,NA,NA,NA,NA,NA,NA,NA,NA,NA,NA,NA,NA,NA,NA,NA,NA,NA,NA,NA,NA,NA
fae62,deep,flow.Sequence,1_1_4_0,NA,NA,skipped,NA,151945,NA,NA,151943.2,151945.1,2024-05-26T10:50:45Z,151959.6,"c(""distractor1"", ""distractor2"", ""distractor3"")",Gegenwart,hadhara,s,katiba,jokofu,mikopo,NA,NA,NA,NA,NA,NA,NA,NA,NA,NA,NA,NA,NA,NA,NA,NA,NA,NA,NA,NA,NA,NA,NA
fae62,Shallow Question,html.Page,1_1_4_1_0,NA,NA,form submission,4350.4999999999,151945.3,151943.2,151959.6,156310.1,156310.3,2024-05-26T10:50:50Z,156323.9,"c(""distractor1"", ""distractor2"", ""distractor3"")",Gegenwart,hadhara,s,katiba,jokofu,mikopo,hadhara,NA,NA,NA,NA,NA,NA,NA,NA,NA,NA,NA,NA,NA,NA,NA,NA,NA,NA,NA,NA,NA,NA
fae62,"""Richtig""-Screen",canvas.Screen,1_1_4_1_1,NA,NA,timeout,4997,156313.3,156307.678,156323.9,161304.4,161305.4,2024-05-26T10:50:55Z,161320.9,"c(""distractor1"", ""distractor2"", ""distractor3"")",Gegenwart,hadhara,s,katiba,jokofu,mikopo,NA,NA,1,NA,NA,NA,NA,NA,NA,NA,NA,NA,NA,NA,NA,NA,NA,NA,NA,NA,NA,NA,NA
fae62,"""Falsch""-Screen",canvas.Screen,1_1_4_1_2,NA,NA,skipped,NA,161310.7,NA,NA,161304.4,161310.7,2024-05-26T10:50:55Z,161320.9,"c(""distractor1"", ""distractor2"", ""distractor3"")",Gegenwart,hadhara,s,katiba,jokofu,mikopo,NA,NA,NA,NA,NA,NA,NA,NA,NA,NA,NA,NA,NA,NA,NA,NA,NA,NA,NA,NA,NA,NA,NA
fae62,shallow,flow.Sequence,1_1_4_1,NA,NA,completion,9344.8,151945.3,151943.2,151959.6,161304.4,161310.9,2024-05-26T10:50:55Z,161320.9,"c(""distractor1"", ""distractor2"", ""distractor3"")",Gegenwart,hadhara,s,katiba,jokofu,mikopo,NA,NA,NA,NA,NA,NA,NA,NA,NA,NA,NA,NA,NA,NA,NA,NA,NA,NA,NA,NA,NA,NA,NA
fae62,task,flow.Sequence,1_1_4,NA,NA,completion,9344.8,151945,151943.2,151959.6,161304.4,161310.9,2024-05-26T10:50:55Z,161320.9,"c(""distractor1"", ""distractor2"", ""distractor3"")",Gegenwart,hadhara,s,katiba,jokofu,mikopo,NA,NA,NA,NA,NA,NA,NA,NA,NA,NA,NA,NA,NA,NA,NA,NA,NA,NA,NA,NA,NA,NA,NA
fae62,Deep Question,html.Page,1_1_5_0_0,NA,NA,form submission,5413.1999999999,161311,161304.4,161320.9,166734.1,166734.4,2024-05-26T10:51:00Z,166750.5,"c(""distractor1"", ""distractor2"", ""distractor3"")",Schatten,kivuli,d,NA,NA,NA,sfhshs,NA,NA,NA,NA,NA,NA,NA,NA,NA,NA,NA,NA,NA,NA,NA,NA,NA,NA,NA,NA,NA,NA
fae62,"""Richtig""-Screen",canvas.Screen,1_1_5_0_1,NA,NA,skipped,NA,166737.7,NA,NA,166734.1,166737.8,2024-05-26T10:51:00Z,166750.5,"c(""distractor1"", ""distractor2"", ""distractor3"")",Schatten,kivuli,d,NA,NA,NA,NA,NA,NA,NA,NA,NA,NA,NA,NA,NA,NA,NA,NA,NA,NA,NA,NA,NA,NA,NA,NA,NA,NA
fae62,"""Falsch""-Screen",canvas.Screen,1_1_5_0_2,NA,NA,timeout,4997.4,166738.7,166734.466,166750.5,171730.9,171731.8,2024-05-26T10:51:05Z,171747.9,"c(""distractor1"", ""distractor2"", ""distractor3"")",Schatten,kivuli,d,NA,NA,NA,NA,NA,0,NA,NA,NA,NA,NA,NA,NA,NA,NA,NA,NA,NA,NA,NA,NA,NA,NA,NA,NA,NA
fae62,deep,flow.Sequence,1_1_5_0,NA,NA,completion,10410,161310.9,161304.4,161320.9,171730.9,171732.2,2024-05-26T10:51:05Z,171747.9,"c(""distractor1"", ""distractor2"", ""distractor3"")",Schatten,kivuli,d,NA,NA,NA,NA,NA,NA,NA,NA,NA,NA,NA,NA,NA,NA,NA,NA,NA,NA,NA,NA,NA,NA,NA,NA,NA,NA
fae62,shallow,flow.Sequence,1_1_5_1,NA,NA,skipped,NA,171732.3,NA,NA,171730.9,171732.4,2024-05-26T10:51:05Z,171747.9,"c(""distractor1"", ""distractor2"", ""distractor3"")",Schatten,kivuli,d,NA,NA,NA,NA,NA,NA,NA,NA,NA,NA,NA,NA,NA,NA,NA,NA,NA,NA,NA,NA,NA,NA,NA,NA,NA,NA
fae62,task,flow.Sequence,1_1_5,NA,NA,completion,10410,161310.9,161304.4,161320.9,171730.9,171732.6,2024-05-26T10:51:05Z,171747.9,"c(""distractor1"", ""distractor2"", ""distractor3"")",Schatten,kivuli,d,NA,NA,NA,NA,NA,NA,NA,NA,NA,NA,NA,NA,NA,NA,NA,NA,NA,NA,NA,NA,NA,NA,NA,NA,NA,NA
fae62,block,flow.Loop,1_1,NA,NA,completion,85531.1,86157.5,86150.812,86199.8,171730.9,171733,2024-05-26T10:51:05Z,171747.9,"c(""distractor1"", ""distractor2"", ""distractor3"")",NA,NA,NA,NA,NA,NA,NA,NA,NA,NA,NA,NA,NA,NA,NA,NA,NA,NA,NA,NA,NA,NA,NA,NA,NA,NA,NA,NA,NA
fae62,Practice,flow.Sequence,1,NA,NA,completion,93956.728,77775.9,77774.172,77774.172,171730.9,171733.3,2024-05-26T10:51:05Z,171747.9,NULL,NA,NA,NA,NA,NA,NA,NA,NA,NA,NA,NA,NA,NA,NA,NA,NA,NA,NA,NA,NA,NA,NA,NA,NA,NA,NA,NA,NA,NA
fae62,Experiment start,canvas.Screen,2,weiter,keypress(q),response,30004.2,171733.4,171730.9,171747.9,201752.1,201753.1,2024-05-26T10:51:35Z,201812.5,NULL,NA,NA,NA,NA,NA,NA,NA,NA,NA,NA,NA,NA,NA,NA,NA,NA,NA,NA,NA,NA,NA,NA,NA,NA,NA,NA,NA,NA,NA
fae62,Deep Question,html.Page,3_0_0_0_0_0_0,NA,NA,form submission,5181.7999999998,201805.4,201801.744,201812.5,206994.3,206994.5,2024-05-26T10:51:40Z,207009.7,NULL,Vermutung,udhanifu,d,NA,NA,NA,gdjdjgd,NA,NA,0,NA,NA,NA,NA,NA,NA,NA,NA,NA,NA,NA,NA,NA,NA,NA,NA,NA,NA,NA
fae62,"""Richtig""-Screen",canvas.Screen,3_0_0_0_0_0_1,NA,NA,skipped,NA,206997.4,NA,NA,206994.3,206997.6,2024-05-26T10:51:40Z,207009.7,NULL,Vermutung,udhanifu,d,NA,NA,NA,NA,sdf,NA,0,NA,NA,NA,NA,NA,NA,NA,NA,NA,NA,NA,NA,NA,NA,NA,NA,NA,NA,NA
fae62,"""Falsch""-Screen",canvas.Screen,3_0_0_0_0_0_2,NA,NA,timeout,4996.6,206998.4,206993.26,207009.7,211989.9,211990.9,2024-05-26T10:51:45Z,212006.3,NULL,Vermutung,udhanifu,d,NA,NA,NA,NA,sdf,0,0,NA,NA,NA,NA,NA,NA,NA,NA,NA,NA,NA,NA,NA,NA,NA,NA,NA,NA,NA
fae62,deep,flow.Sequence,3_0_0_0_0_0,NA,NA,completion,10177.4,201805.4,201801.744,201812.5,211989.9,211991.2,2024-05-26T10:51:45Z,212006.3,NULL,Vermutung,udhanifu,d,NA,NA,NA,NA,sdf,NA,0,NA,NA,NA,NA,NA,NA,NA,NA,NA,NA,NA,NA,NA,NA,NA,NA,NA,NA,NA
fae62,shallow,flow.Sequence,3_0_0_0_0_1,NA,NA,skipped,NA,211991.3,NA,NA,211989.9,211991.5,2024-05-26T10:51:45Z,212006.3,NULL,Vermutung,udhanifu,d,NA,NA,NA,NA,sdf,NA,0,NA,NA,NA,NA,NA,NA,NA,NA,NA,NA,NA,NA,NA,NA,NA,NA,NA,NA,NA
fae62,task,flow.Sequence,3_0_0_0_0,NA,NA,completion,10177.4,201805.4,201801.744,201812.5,211989.9,211991.7,2024-05-26T10:51:45Z,212006.3,NULL,Vermutung,udhanifu,d,NA,NA,NA,NA,sdf,NA,0,NA,NA,NA,NA,NA,NA,NA,NA,NA,NA,NA,NA,NA,NA,NA,NA,NA,NA,NA
fae62,deep,flow.Sequence,3_0_0_0_1_0,NA,NA,skipped,NA,211991.9,NA,NA,211989.9,211991.9,2024-05-26T10:51:45Z,212006.3,NULL,Annäherung,maegesho,s,madahili,kujiamini,mapendekezo,NA,sdf,NA,0,NA,NA,NA,NA,NA,NA,NA,NA,NA,NA,NA,NA,NA,NA,NA,NA,NA,NA,NA
fae62,Shallow Question,html.Page,3_0_0_0_1_1_0,NA,NA,form submission,19843.2,211992.1,211989.9,212006.3,231849.5,231849.7,2024-05-26T10:52:05Z,231860.9,NULL,Annäherung,maegesho,s,madahili,kujiamini,mapendekezo,madahili,NA,NA,0,NA,NA,NA,NA,NA,NA,NA,NA,NA,NA,NA,NA,NA,NA,NA,NA,NA,NA,NA
fae62,"""Richtig""-Screen",canvas.Screen,3_0_0_0_1_1_1,NA,NA,skipped,NA,231852.7,NA,NA,231849.5,231852.9,2024-05-26T10:52:05Z,231860.9,NULL,Annäherung,maegesho,s,madahili,kujiamini,mapendekezo,NA,sdf,NA,0,NA,NA,NA,NA,NA,NA,NA,NA,NA,NA,NA,NA,NA,NA,NA,NA,NA,NA,NA
fae62,"""Falsch""-Screen",canvas.Screen,3_0_0_0_1_1_2,NA,NA,timeout,4996.8,231853.6,231845.064,231860.9,236841.1,236842.6,2024-05-26T10:52:10Z,236857.7,NULL,Annäherung,maegesho,s,madahili,kujiamini,mapendekezo,NA,sdf,0,0,NA,NA,NA,NA,NA,NA,NA,NA,NA,NA,NA,NA,NA,NA,NA,NA,NA,NA,NA
fae62,shallow,flow.Sequence,3_0_0_0_1_1,NA,NA,completion,24834.8,211992.1,211989.9,212006.3,236841.1,236842.6,2024-05-26T10:52:10Z,236857.7,NULL,Annäherung,maegesho,s,madahili,kujiamini,mapendekezo,NA,sdf,NA,0,NA,NA,NA,NA,NA,NA,NA,NA,NA,NA,NA,NA,NA,NA,NA,NA,NA,NA,NA
fae62,task,flow.Sequence,3_0_0_0_1,NA,NA,completion,24834.8,211991.9,211989.9,212006.3,236841.1,236842.7,2024-05-26T10:52:10Z,236857.7,NULL,Annäherung,maegesho,s,madahili,kujiamini,mapendekezo,NA,sdf,NA,0,NA,NA,NA,NA,NA,NA,NA,NA,NA,NA,NA,NA,NA,NA,NA,NA,NA,NA,NA
fae62,deep,flow.Sequence,3_0_0_0_2_0,NA,NA,skipped,NA,236842.8,NA,NA,236841.1,236842.8,2024-05-26T10:52:10Z,236857.7,NULL,Sympathie,mapendano,s,dhamiria,fungamano,maazimio,NA,sdf,NA,0,NA,NA,NA,NA,NA,NA,NA,NA,NA,NA,NA,NA,NA,NA,NA,NA,NA,NA,NA
fae62,Shallow Question,html.Page,3_0_0_0_2_1_0,NA,NA,form submission,16063.9,236842.8,236841.1,236857.7,252921.6,252921.8,2024-05-26T10:52:26Z,252931.4,NULL,Sympathie,mapendano,s,dhamiria,fungamano,maazimio,maazimio,NA,NA,0,NA,NA,NA,NA,NA,NA,NA,NA,NA,NA,NA,NA,NA,NA,NA,NA,NA,NA,NA
fae62,"""Richtig""-Screen",canvas.Screen,3_0_0_0_2_1_1,NA,NA,skipped,NA,252924.9,NA,NA,252921.6,252925,2024-05-26T10:52:26Z,252931.4,NULL,Sympathie,mapendano,s,dhamiria,fungamano,maazimio,NA,sdf,NA,0,NA,NA,NA,NA,NA,NA,NA,NA,NA,NA,NA,NA,NA,NA,NA,NA,NA,NA,NA
fae62,"""Falsch""-Screen",canvas.Screen,3_0_0_0_2_1_2,NA,NA,timeout,4997.4,252925.7,252915.312,252931.4,257911.9,257912.6,2024-05-26T10:52:31Z,257928.8,NULL,Sympathie,mapendano,s,dhamiria,fungamano,maazimio,NA,sdf,0,0,NA,NA,NA,NA,NA,NA,NA,NA,NA,NA,NA,NA,NA,NA,NA,NA,NA,NA,NA
fae62,shallow,flow.Sequence,3_0_0_0_2_1,NA,NA,completion,21054.2,236842.8,236841.1,236857.7,257911.9,257912.8,2024-05-26T10:52:31Z,257928.8,NULL,Sympathie,mapendano,s,dhamiria,fungamano,maazimio,NA,sdf,NA,0,NA,NA,NA,NA,NA,NA,NA,NA,NA,NA,NA,NA,NA,NA,NA,NA,NA,NA,NA
fae62,task,flow.Sequence,3_0_0_0_2,NA,NA,completion,21054.2,236842.8,236841.1,236857.7,257911.9,257913,2024-05-26T10:52:31Z,257928.8,NULL,Sympathie,mapendano,s,dhamiria,fungamano,maazimio,NA,sdf,NA,0,NA,NA,NA,NA,NA,NA,NA,NA,NA,NA,NA,NA,NA,NA,NA,NA,NA,NA,NA
fae62,Deep Question,html.Page,3_0_0_0_3_0_0,NA,NA,form submission,10542.1,257913.1,257911.9,257928.8,268470.9,268471.2,2024-05-26T10:52:42Z,268472.674,NULL,Inhalt,yaliyomo,d,NA,NA,NA,fhgdfhdfh,NA,NA,0,NA,NA,NA,NA,NA,NA,NA,NA,NA,NA,NA,NA,NA,NA,NA,NA,NA,NA,NA
fae62,"""Richtig""-Screen",canvas.Screen,3_0_0_0_3_0_1,NA,NA,skipped,NA,268474.5,NA,NA,268470.9,268474.6,2024-05-26T10:52:42Z,268472.674,NULL,Inhalt,yaliyomo,d,NA,NA,NA,NA,sdf,NA,0,NA,NA,NA,NA,NA,NA,NA,NA,NA,NA,NA,NA,NA,NA,NA,NA,NA,NA,NA
fae62,"""Falsch""-Screen",canvas.Screen,3_0_0_0_3_0_2,NA,NA,timeout,4996.426,268475.4,268472.674,268472.674,273452.5,273453.5,2024-05-26T10:52:47Z,273469.1,NULL,Inhalt,yaliyomo,d,NA,NA,NA,NA,sdf,0,0,NA,NA,NA,NA,NA,NA,NA,NA,NA,NA,NA,NA,NA,NA,NA,NA,NA,NA,NA
fae62,deep,flow.Sequence,3_0_0_0_3_0,NA,NA,completion,15523.7,257913.1,257911.9,257928.8,273452.5,273453.8,2024-05-26T10:52:47Z,273469.1,NULL,Inhalt,yaliyomo,d,NA,NA,NA,NA,sdf,NA,0,NA,NA,NA,NA,NA,NA,NA,NA,NA,NA,NA,NA,NA,NA,NA,NA,NA,NA,NA
fae62,shallow,flow.Sequence,3_0_0_0_3_1,NA,NA,skipped,NA,273453.9,NA,NA,273452.5,273454,2024-05-26T10:52:47Z,273469.1,NULL,Inhalt,yaliyomo,d,NA,NA,NA,NA,sdf,NA,0,NA,NA,NA,NA,NA,NA,NA,NA,NA,NA,NA,NA,NA,NA,NA,NA,NA,NA,NA
fae62,task,flow.Sequence,3_0_0_0_3,NA,NA,completion,15523.7,257913.1,257911.9,257928.8,273452.5,273454.2,2024-05-26T10:52:47Z,273469.1,NULL,Inhalt,yaliyomo,d,NA,NA,NA,NA,sdf,NA,0,NA,NA,NA,NA,NA,NA,NA,NA,NA,NA,NA,NA,NA,NA,NA,NA,NA,NA,NA
fae62,deep,flow.Sequence,3_0_0_0_4_0,NA,NA,skipped,NA,273454.4,NA,NA,273452.5,273454.5,2024-05-26T10:52:47Z,273469.1,NULL,Schlange,foleni,s,uvumilivu,uteuzi,muuzaji,NA,sdf,NA,0,NA,NA,NA,NA,NA,NA,NA,NA,NA,NA,NA,NA,NA,NA,NA,NA,NA,NA,NA
fae62,Shallow Question,html.Page,3_0_0_0_4_1_0,NA,NA,form submission,14402.5,273454.6,273452.5,273469.1,287871.6,287871.8,2024-05-26T10:53:01Z,287876.6,NULL,Schlange,foleni,s,uvumilivu,uteuzi,muuzaji,muuzaji,NA,NA,0,NA,NA,NA,NA,NA,NA,NA,NA,NA,NA,NA,NA,NA,NA,NA,NA,NA,NA,NA
fae62,"""Richtig""-Screen",canvas.Screen,3_0_0_0_4_1_1,NA,NA,skipped,NA,287875,NA,NA,287871.6,287875.2,2024-05-26T10:53:01Z,287876.6,NULL,Schlange,foleni,s,uvumilivu,uteuzi,muuzaji,NA,sdf,NA,0,NA,NA,NA,NA,NA,NA,NA,NA,NA,NA,NA,NA,NA,NA,NA,NA,NA,NA,NA
fae62,"""Falsch""-Screen",canvas.Screen,3_0_0_0_4_1_2,NA,NA,timeout,4997.4,287875.9,287861.274,287876.6,292857.3,292858.1,2024-05-26T10:53:06Z,292874,NULL,Schlange,foleni,s,uvumilivu,uteuzi,muuzaji,NA,sdf,0,0,NA,NA,NA,NA,NA,NA,NA,NA,NA,NA,NA,NA,NA,NA,NA,NA,NA,NA,NA
fae62,shallow,flow.Sequence,3_0_0_0_4_1,NA,NA,completion,19388.2,273454.6,273452.5,273469.1,292857.3,292858.4,2024-05-26T10:53:06Z,292874,NULL,Schlange,foleni,s,uvumilivu,uteuzi,muuzaji,NA,sdf,NA,0,NA,NA,NA,NA,NA,NA,NA,NA,NA,NA,NA,NA,NA,NA,NA,NA,NA,NA,NA
fae62,task,flow.Sequence,3_0_0_0_4,NA,NA,completion,19388.2,273454.4,273452.5,273469.1,292857.3,292858.5,2024-05-26T10:53:06Z,292874,NULL,Schlange,foleni,s,uvumilivu,uteuzi,muuzaji,NA,sdf,NA,0,NA,NA,NA,NA,NA,NA,NA,NA,NA,NA,NA,NA,NA,NA,NA,NA,NA,NA,NA
fae62,Deep Question,html.Page,3_0_0_0_5_0_0,NA,NA,form submission,39922.9,292858.7,292857.3,292874,332796.9,332797.1,2024-05-26T10:53:46Z,332799.762,NULL,Polizist,msongora,d,NA,NA,NA,fgjdjf,NA,NA,0,NA,NA,NA,NA,NA,NA,NA,NA,NA,NA,NA,NA,NA,NA,NA,NA,NA,NA,NA
fae62,"""Richtig""-Screen",canvas.Screen,3_0_0_0_5_0_1,NA,NA,skipped,NA,332800.2,NA,NA,332796.9,332800.4,2024-05-26T10:53:46Z,332799.762,NULL,Polizist,msongora,d,NA,NA,NA,NA,sdf,NA,0,NA,NA,NA,NA,NA,NA,NA,NA,NA,NA,NA,NA,NA,NA,NA,NA,NA,NA,NA
fae62,"""Falsch""-Screen",canvas.Screen,3_0_0_0_5_0_2,NA,NA,timeout,4996.838,332801.2,332799.762,332799.762,337779.8,337780.7,2024-05-26T10:53:51Z,337796.6,NULL,Polizist,msongora,d,NA,NA,NA,NA,sdf,0,0,NA,NA,NA,NA,NA,NA,NA,NA,NA,NA,NA,NA,NA,NA,NA,NA,NA,NA,NA
fae62,deep,flow.Sequence,3_0_0_0_5_0,NA,NA,completion,44905.8,292858.7,292857.3,292874,337779.8,337781,2024-05-26T10:53:51Z,337796.6,NULL,Polizist,msongora,d,NA,NA,NA,NA,sdf,NA,0,NA,NA,NA,NA,NA,NA,NA,NA,NA,NA,NA,NA,NA,NA,NA,NA,NA,NA,NA
fae62,shallow,flow.Sequence,3_0_0_0_5_1,NA,NA,skipped,NA,337781.1,NA,NA,337779.8,337781.3,2024-05-26T10:53:51Z,337796.6,NULL,Polizist,msongora,d,NA,NA,NA,NA,sdf,NA,0,NA,NA,NA,NA,NA,NA,NA,NA,NA,NA,NA,NA,NA,NA,NA,NA,NA,NA,NA
fae62,task,flow.Sequence,3_0_0_0_5,NA,NA,completion,44905.8,292858.7,292857.3,292874,337779.8,337781.4,2024-05-26T10:53:51Z,337796.6,NULL,Polizist,msongora,d,NA,NA,NA,NA,sdf,NA,0,NA,NA,NA,NA,NA,NA,NA,NA,NA,NA,NA,NA,NA,NA,NA,NA,NA,NA,NA
fae62,deep,flow.Sequence,3_0_0_0_6_0,NA,NA,skipped,NA,337781.6,NA,NA,337779.8,337781.7,2024-05-26T10:53:51Z,337796.6,NULL,Toleranz,kuvumiliana,s,maombolezo,ujasusi,mchekeshaji,NA,sdf,NA,0,NA,NA,NA,NA,NA,NA,NA,NA,NA,NA,NA,NA,NA,NA,NA,NA,NA,NA,NA
fae62,Shallow Question,html.Page,3_0_0_0_6_1_0,NA,NA,form submission,16015.9,337781.8,337779.8,337796.6,353812.5,353812.7,2024-05-26T10:54:07Z,353819.7,NULL,Toleranz,kuvumiliana,s,maombolezo,ujasusi,mchekeshaji,maombolezo,NA,NA,0,NA,NA,NA,NA,NA,NA,NA,NA,NA,NA,NA,NA,NA,NA,NA,NA,NA,NA,NA
fae62,"""Richtig""-Screen",canvas.Screen,3_0_0_0_6_1_1,NA,NA,skipped,NA,353815.9,NA,NA,353812.5,353816.1,2024-05-26T10:54:07Z,353819.7,NULL,Toleranz,kuvumiliana,s,maombolezo,ujasusi,mchekeshaji,NA,sdf,NA,0,NA,NA,NA,NA,NA,NA,NA,NA,NA,NA,NA,NA,NA,NA,NA,NA,NA,NA,NA
fae62,"""Falsch""-Screen",canvas.Screen,3_0_0_0_6_1_2,NA,NA,timeout,4997.4,353816.8,353804.72,353819.7,358800.5,358801.3,2024-05-26T10:54:12Z,358817.1,NULL,Toleranz,kuvumiliana,s,maombolezo,ujasusi,mchekeshaji,NA,sdf,0,0,NA,NA,NA,NA,NA,NA,NA,NA,NA,NA,NA,NA,NA,NA,NA,NA,NA,NA,NA
fae62,shallow,flow.Sequence,3_0_0_0_6_1,NA,NA,completion,21003.9,337781.7,337779.8,337796.6,358800.5,358801.6,2024-05-26T10:54:12Z,358817.1,NULL,Toleranz,kuvumiliana,s,maombolezo,ujasusi,mchekeshaji,NA,sdf,NA,0,NA,NA,NA,NA,NA,NA,NA,NA,NA,NA,NA,NA,NA,NA,NA,NA,NA,NA,NA
fae62,task,flow.Sequence,3_0_0_0_6,NA,NA,completion,21003.9,337781.5,337779.8,337796.6,358800.5,358801.8,2024-05-26T10:54:12Z,358817.1,NULL,Toleranz,kuvumiliana,s,maombolezo,ujasusi,mchekeshaji,NA,sdf,NA,0,NA,NA,NA,NA,NA,NA,NA,NA,NA,NA,NA,NA,NA,NA,NA,NA,NA,NA,NA
fae62,Deep Question,html.Page,3_0_0_0_7_0_0,NA,NA,form submission,27006.8,358801.9,358800.5,358817.1,385823.9,385824.1,2024-05-26T10:54:39Z,385833.5,NULL,Beweis,ushahidi,d,NA,NA,NA,ghk,NA,NA,0,NA,NA,NA,NA,NA,NA,NA,NA,NA,NA,NA,NA,NA,NA,NA,NA,NA,NA,NA
fae62,"""Richtig""-Screen",canvas.Screen,3_0_0_0_7_0_1,NA,NA,skipped,NA,385827.4,NA,NA,385823.9,385827.5,2024-05-26T10:54:39Z,385833.5,NULL,Beweis,ushahidi,d,NA,NA,NA,NA,sdf,NA,0,NA,NA,NA,NA,NA,NA,NA,NA,NA,NA,NA,NA,NA,NA,NA,NA,NA,NA,NA
fae62,"""Falsch""-Screen",canvas.Screen,3_0_0_0_7_0_2,NA,NA,timeout,4997.5,385828.3,385817.796,385833.5,390814,390815.1,2024-05-26T10:54:44Z,390831,NULL,Beweis,ushahidi,d,NA,NA,NA,NA,sdf,0,0,NA,NA,NA,NA,NA,NA,NA,NA,NA,NA,NA,NA,NA,NA,NA,NA,NA,NA,NA
fae62,deep,flow.Sequence,3_0_0_0_7_0,NA,NA,completion,31996.9,358801.9,358800.5,358817.1,390814,390815.4,2024-05-26T10:54:44Z,390831,NULL,Beweis,ushahidi,d,NA,NA,NA,NA,sdf,NA,0,NA,NA,NA,NA,NA,NA,NA,NA,NA,NA,NA,NA,NA,NA,NA,NA,NA,NA,NA
fae62,shallow,flow.Sequence,3_0_0_0_7_1,NA,NA,skipped,NA,390815.6,NA,NA,390814,390815.8,2024-05-26T10:54:44Z,390831,NULL,Beweis,ushahidi,d,NA,NA,NA,NA,sdf,NA,0,NA,NA,NA,NA,NA,NA,NA,NA,NA,NA,NA,NA,NA,NA,NA,NA,NA,NA,NA
fae62,task,flow.Sequence,3_0_0_0_7,NA,NA,completion,31996.9,358801.9,358800.5,358817.1,390814,390816,2024-05-26T10:54:44Z,390831,NULL,Beweis,ushahidi,d,NA,NA,NA,NA,sdf,NA,0,NA,NA,NA,NA,NA,NA,NA,NA,NA,NA,NA,NA,NA,NA,NA,NA,NA,NA,NA
fae62,block,flow.Loop,3_0_0_0,NA,NA,completion,189001.5,201805.3,201801.744,201812.5,390814,390816.2,2024-05-26T10:54:44Z,390831,NULL,NA,NA,NA,NA,NA,NA,NA,sdf,NA,0,NA,NA,NA,NA,NA,NA,NA,NA,NA,NA,NA,NA,NA,NA,NA,NA,NA,NA,NA
fae62,weiter,canvas.Screen,3_0_0_1,sdf,keypress(Space),response,2816.8999999999,390816.4,390814,390831,393647.9,393648.8,2024-05-26T10:54:47Z,393679,NULL,NA,NA,NA,NA,NA,NA,NA,sdf,NA,0,NA,NA,NA,NA,NA,NA,NA,NA,NA,NA,NA,NA,NA,NA,NA,NA,NA,NA,NA
fae62,check continue,flow.Sequence,3_0_0,NA,NA,completion,191835.4,201805.3,201801.744,201812.5,393647.9,393649.1,2024-05-26T10:54:47Z,393679,NULL,NA,NA,NA,NA,NA,NA,NA,sdf,NA,0,NA,NA,NA,NA,NA,NA,NA,NA,NA,NA,NA,NA,NA,NA,NA,NA,NA,NA,NA
fae62,Deep Question,html.Page,3_0_1_0_0_0_0,NA,NA,form submission,27076.7,393671.6,393662.562,393679,420755.7,420755.8,2024-05-26T10:55:14Z,420762.4,NULL,Inhalt,yaliyomo,d,NA,NA,NA,magadama,NA,NA,1,NA,NA,NA,NA,NA,NA,NA,NA,NA,NA,NA,NA,NA,NA,NA,NA,NA,NA,NA
fae62,"""Richtig""-Screen",canvas.Screen,3_0_1_0_0_0_1,NA,NA,skipped,NA,420759,NA,NA,420755.7,420759.1,2024-05-26T10:55:14Z,420762.4,NULL,Inhalt,yaliyomo,d,NA,NA,NA,NA,sdfdsf,NA,1,NA,NA,NA,NA,NA,NA,NA,NA,NA,NA,NA,NA,NA,NA,NA,NA,NA,NA,NA
fae62,"""Falsch""-Screen",canvas.Screen,3_0_1_0_0_0_2,NA,NA,timeout,4997.1,420760.1,420747.486,420762.4,425742.9,425743.8,2024-05-26T10:55:19Z,425759.5,NULL,Inhalt,yaliyomo,d,NA,NA,NA,NA,sdfdsf,0,1,NA,NA,NA,NA,NA,NA,NA,NA,NA,NA,NA,NA,NA,NA,NA,NA,NA,NA,NA
fae62,deep,flow.Sequence,3_0_1_0_0_0,NA,NA,completion,32063.9,393671.6,393662.562,393679,425742.9,425744.2,2024-05-26T10:55:19Z,425759.5,NULL,Inhalt,yaliyomo,d,NA,NA,NA,NA,sdfdsf,NA,1,NA,NA,NA,NA,NA,NA,NA,NA,NA,NA,NA,NA,NA,NA,NA,NA,NA,NA,NA
fae62,shallow,flow.Sequence,3_0_1_0_0_1,NA,NA,skipped,NA,425744.2,NA,NA,425742.9,425744.4,2024-05-26T10:55:19Z,425759.5,NULL,Inhalt,yaliyomo,d,NA,NA,NA,NA,sdfdsf,NA,1,NA,NA,NA,NA,NA,NA,NA,NA,NA,NA,NA,NA,NA,NA,NA,NA,NA,NA,NA
fae62,task,flow.Sequence,3_0_1_0_0,NA,NA,completion,32063.9,393671.6,393662.562,393679,425742.9,425744.6,2024-05-26T10:55:19Z,425759.5,NULL,Inhalt,yaliyomo,d,NA,NA,NA,NA,sdfdsf,NA,1,NA,NA,NA,NA,NA,NA,NA,NA,NA,NA,NA,NA,NA,NA,NA,NA,NA,NA,NA
fae62,Deep Question,html.Page,3_0_1_0_1_0_0,NA,NA,form submission,13247.8,425744.8,425742.9,425759.5,439007.3,439007.4,2024-05-26T10:55:32Z,439017.8,NULL,Vermutung,udhanifu,d,NA,NA,NA,kj,NA,NA,1,NA,NA,NA,NA,NA,NA,NA,NA,NA,NA,NA,NA,NA,NA,NA,NA,NA,NA,NA
fae62,"""Richtig""-Screen",canvas.Screen,3_0_1_0_1_0_1,NA,NA,skipped,NA,439010.5,NA,NA,439007.3,439010.6,2024-05-26T10:55:32Z,439017.8,NULL,Vermutung,udhanifu,d,NA,NA,NA,NA,sdfdsf,NA,1,NA,NA,NA,NA,NA,NA,NA,NA,NA,NA,NA,NA,NA,NA,NA,NA,NA,NA,NA
fae62,"""Falsch""-Screen",canvas.Screen,3_0_1_0_1_0_2,NA,NA,timeout,4997.2,439011.3,439002.494,439017.8,443998.2,443999.2,2024-05-26T10:55:37Z,444015,NULL,Vermutung,udhanifu,d,NA,NA,NA,NA,sdfdsf,0,1,NA,NA,NA,NA,NA,NA,NA,NA,NA,NA,NA,NA,NA,NA,NA,NA,NA,NA,NA
fae62,deep,flow.Sequence,3_0_1_0_1_0,NA,NA,completion,18238.7,425744.8,425742.9,425759.5,443998.2,443999.4,2024-05-26T10:55:37Z,444015,NULL,Vermutung,udhanifu,d,NA,NA,NA,NA,sdfdsf,NA,1,NA,NA,NA,NA,NA,NA,NA,NA,NA,NA,NA,NA,NA,NA,NA,NA,NA,NA,NA
fae62,shallow,flow.Sequence,3_0_1_0_1_1,NA,NA,skipped,NA,443999.6,NA,NA,443998.2,443999.7,2024-05-26T10:55:37Z,444015,NULL,Vermutung,udhanifu,d,NA,NA,NA,NA,sdfdsf,NA,1,NA,NA,NA,NA,NA,NA,NA,NA,NA,NA,NA,NA,NA,NA,NA,NA,NA,NA,NA
fae62,task,flow.Sequence,3_0_1_0_1,NA,NA,completion,18238.7,425744.8,425742.9,425759.5,443998.2,443999.8,2024-05-26T10:55:37Z,444015,NULL,Vermutung,udhanifu,d,NA,NA,NA,NA,sdfdsf,NA,1,NA,NA,NA,NA,NA,NA,NA,NA,NA,NA,NA,NA,NA,NA,NA,NA,NA,NA,NA
fae62,Deep Question,html.Page,3_0_1_0_2_0_0,NA,NA,form submission,22696.2,444000.1,443998.2,444015,466711.2,466711.4,2024-05-26T10:56:00Z,466734.9,NULL,Beweis,ushahidi,d,NA,NA,NA,fgh,NA,NA,1,NA,NA,NA,NA,NA,NA,NA,NA,NA,NA,NA,NA,NA,NA,NA,NA,NA,NA,NA
fae62,"""Richtig""-Screen",canvas.Screen,3_0_1_0_2_0_1,NA,NA,skipped,NA,466714.5,NA,NA,466711.2,466714.7,2024-05-26T10:56:00Z,466734.9,NULL,Beweis,ushahidi,d,NA,NA,NA,NA,sdfdsf,NA,1,NA,NA,NA,NA,NA,NA,NA,NA,NA,NA,NA,NA,NA,NA,NA,NA,NA,NA,NA
fae62,"""Falsch""-Screen",canvas.Screen,3_0_1_0_2_0_2,NA,NA,timeout,4996.7,466715.3,466717.6,466734.9,471714.6,471716.2,2024-05-26T10:56:05Z,471731.6,NULL,Beweis,ushahidi,d,NA,NA,NA,NA,sdfdsf,0,1,NA,NA,NA,NA,NA,NA,NA,NA,NA,NA,NA,NA,NA,NA,NA,NA,NA,NA,NA
fae62,deep,flow.Sequence,3_0_1_0_2_0,NA,NA,completion,27699.6,444000,443998.2,444015,471714.6,471716.6,2024-05-26T10:56:05Z,471731.6,NULL,Beweis,ushahidi,d,NA,NA,NA,NA,sdfdsf,NA,1,NA,NA,NA,NA,NA,NA,NA,NA,NA,NA,NA,NA,NA,NA,NA,NA,NA,NA,NA
fae62,shallow,flow.Sequence,3_0_1_0_2_1,NA,NA,skipped,NA,471716.9,NA,NA,471714.6,471716.9,2024-05-26T10:56:05Z,471731.6,NULL,Beweis,ushahidi,d,NA,NA,NA,NA,sdfdsf,NA,1,NA,NA,NA,NA,NA,NA,NA,NA,NA,NA,NA,NA,NA,NA,NA,NA,NA,NA,NA
fae62,task,flow.Sequence,3_0_1_0_2,NA,NA,completion,27699.6,444000,443998.2,444015,471714.6,471717.2,2024-05-26T10:56:05Z,471731.6,NULL,Beweis,ushahidi,d,NA,NA,NA,NA,sdfdsf,NA,1,NA,NA,NA,NA,NA,NA,NA,NA,NA,NA,NA,NA,NA,NA,NA,NA,NA,NA,NA
fae62,deep,flow.Sequence,3_0_1_0_3_0,NA,NA,skipped,NA,471717.3,NA,NA,471714.6,471717.4,2024-05-26T10:56:05Z,471731.6,NULL,Schlange,foleni,s,uvumilivu,uteuzi,muuzaji,NA,sdfdsf,NA,1,NA,NA,NA,NA,NA,NA,NA,NA,NA,NA,NA,NA,NA,NA,NA,NA,NA,NA,NA
fae62,Shallow Question,html.Page,3_0_1_0_3_1_0,NA,NA,form submission,5692.4,471717.6,471714.6,471731.6,477424,477424.2,2024-05-26T10:56:11Z,477428.54,NULL,Schlange,foleni,s,uvumilivu,uteuzi,muuzaji,foleni,NA,NA,1,NA,NA,NA,NA,NA,NA,NA,NA,NA,NA,NA,NA,NA,NA,NA,NA,NA,NA,NA
fae62,"""Richtig""-Screen",canvas.Screen,3_0_1_0_3_1_1,NA,NA,timeout,4996.66,477427.3,477428.54,477428.54,482408.3,482408.8,2024-05-26T10:56:16Z,482425.2,NULL,Schlange,foleni,s,uvumilivu,uteuzi,muuzaji,NA,sdfdsf,1,1,NA,NA,NA,NA,NA,NA,NA,NA,NA,NA,NA,NA,NA,NA,NA,NA,NA,NA,NA
fae62,"""Falsch""-Screen",canvas.Screen,3_0_1_0_3_1_2,NA,NA,skipped,NA,482411.2,NA,NA,482408.3,482411.3,2024-05-26T10:56:16Z,482425.2,NULL,Schlange,foleni,s,uvumilivu,uteuzi,muuzaji,NA,sdfdsf,NA,1,NA,NA,NA,NA,NA,NA,NA,NA,NA,NA,NA,NA,NA,NA,NA,NA,NA,NA,NA
fae62,shallow,flow.Sequence,3_0_1_0_3_1,NA,NA,completion,10676.7,471717.5,471714.6,471731.6,482408.3,482411.4,2024-05-26T10:56:16Z,482425.2,NULL,Schlange,foleni,s,uvumilivu,uteuzi,muuzaji,NA,sdfdsf,NA,1,NA,NA,NA,NA,NA,NA,NA,NA,NA,NA,NA,NA,NA,NA,NA,NA,NA,NA,NA
fae62,task,flow.Sequence,3_0_1_0_3,NA,NA,completion,10676.7,471717.3,471714.6,471731.6,482408.3,482411.5,2024-05-26T10:56:16Z,482425.2,NULL,Schlange,foleni,s,uvumilivu,uteuzi,muuzaji,NA,sdfdsf,NA,1,NA,NA,NA,NA,NA,NA,NA,NA,NA,NA,NA,NA,NA,NA,NA,NA,NA,NA,NA
fae62,deep,flow.Sequence,3_0_1_0_4_0,NA,NA,skipped,NA,482411.6,NA,NA,482408.3,482411.6,2024-05-26T10:56:16Z,482425.2,NULL,Sympathie,mapendano,s,dhamiria,fungamano,maazimio,NA,sdfdsf,NA,1,NA,NA,NA,NA,NA,NA,NA,NA,NA,NA,NA,NA,NA,NA,NA,NA,NA,NA,NA
fae62,Shallow Question,html.Page,3_0_1_0_4_1_0,NA,NA,form submission,6309.4999999997,482411.7,482408.3,482425.2,488734.7,488735,2024-05-26T10:56:22Z,488738.404,NULL,Sympathie,mapendano,s,dhamiria,fungamano,maazimio,mapendano,NA,NA,1,NA,NA,NA,NA,NA,NA,NA,NA,NA,NA,NA,NA,NA,NA,NA,NA,NA,NA,NA
fae62,"""Richtig""-Screen",canvas.Screen,3_0_1_0_4_1_1,NA,NA,timeout,4996.596,488737.9,488738.404,488738.404,493717.9,493718.8,2024-05-26T10:56:27Z,493735,NULL,Sympathie,mapendano,s,dhamiria,fungamano,maazimio,NA,sdfdsf,1,1,NA,NA,NA,NA,NA,NA,NA,NA,NA,NA,NA,NA,NA,NA,NA,NA,NA,NA,NA
fae62,"""Falsch""-Screen",canvas.Screen,3_0_1_0_4_1_2,NA,NA,skipped,NA,493723.6,NA,NA,493717.9,493723.9,2024-05-26T10:56:27Z,493735,NULL,Sympathie,mapendano,s,dhamiria,fungamano,maazimio,NA,sdfdsf,NA,1,NA,NA,NA,NA,NA,NA,NA,NA,NA,NA,NA,NA,NA,NA,NA,NA,NA,NA,NA
fae62,shallow,flow.Sequence,3_0_1_0_4_1,NA,NA,completion,11292.7,482411.7,482408.3,482425.2,493717.9,493724,2024-05-26T10:56:27Z,493735,NULL,Sympathie,mapendano,s,dhamiria,fungamano,maazimio,NA,sdfdsf,NA,1,NA,NA,NA,NA,NA,NA,NA,NA,NA,NA,NA,NA,NA,NA,NA,NA,NA,NA,NA
fae62,task,flow.Sequence,3_0_1_0_4,NA,NA,completion,11292.7,482411.5,482408.3,482425.2,493717.9,493724.1,2024-05-26T10:56:27Z,493735,NULL,Sympathie,mapendano,s,dhamiria,fungamano,maazimio,NA,sdfdsf,NA,1,NA,NA,NA,NA,NA,NA,NA,NA,NA,NA,NA,NA,NA,NA,NA,NA,NA,NA,NA
fae62,deep,flow.Sequence,3_0_1_0_5_0,NA,NA,skipped,NA,493724.1,NA,NA,493717.9,493724.2,2024-05-26T10:56:27Z,493735,NULL,Toleranz,kuvumiliana,s,maombolezo,ujasusi,mchekeshaji,NA,sdfdsf,NA,1,NA,NA,NA,NA,NA,NA,NA,NA,NA,NA,NA,NA,NA,NA,NA,NA,NA,NA,NA
fae62,Shallow Question,html.Page,3_0_1_0_5_1_0,NA,NA,form submission,3580.2999999998,493724.2,493717.9,493735,497315.3,497315.5,2024-05-26T10:56:31Z,497332.6,NULL,Toleranz,kuvumiliana,s,maombolezo,ujasusi,mchekeshaji,kuvumiliana,NA,NA,1,NA,NA,NA,NA,NA,NA,NA,NA,NA,NA,NA,NA,NA,NA,NA,NA,NA,NA,NA
fae62,"""Richtig""-Screen",canvas.Screen,3_0_1_0_5_1_1,NA,NA,timeout,4997,497316.4,497316.378,497332.6,502312.9,502313.9,2024-05-26T10:56:36Z,502329.6,NULL,Toleranz,kuvumiliana,s,maombolezo,ujasusi,mchekeshaji,NA,sdfdsf,1,1,NA,NA,NA,NA,NA,NA,NA,NA,NA,NA,NA,NA,NA,NA,NA,NA,NA,NA,NA
fae62,"""Falsch""-Screen",canvas.Screen,3_0_1_0_5_1_2,NA,NA,skipped,NA,502319,NA,NA,502312.9,502319.1,2024-05-26T10:56:36Z,502329.6,NULL,Toleranz,kuvumiliana,s,maombolezo,ujasusi,mchekeshaji,NA,sdfdsf,NA,1,NA,NA,NA,NA,NA,NA,NA,NA,NA,NA,NA,NA,NA,NA,NA,NA,NA,NA,NA
fae62,shallow,flow.Sequence,3_0_1_0_5_1,NA,NA,completion,8577.9,493724.2,493717.9,493735,502312.9,502319.2,2024-05-26T10:56:36Z,502329.6,NULL,Toleranz,kuvumiliana,s,maombolezo,ujasusi,mchekeshaji,NA,sdfdsf,NA,1,NA,NA,NA,NA,NA,NA,NA,NA,NA,NA,NA,NA,NA,NA,NA,NA,NA,NA,NA
fae62,task,flow.Sequence,3_0_1_0_5,NA,NA,completion,8577.9,493724.1,493717.9,493735,502312.9,502319.3,2024-05-26T10:56:36Z,502329.6,NULL,Toleranz,kuvumiliana,s,maombolezo,ujasusi,mchekeshaji,NA,sdfdsf,NA,1,NA,NA,NA,NA,NA,NA,NA,NA,NA,NA,NA,NA,NA,NA,NA,NA,NA,NA,NA
fae62,deep,flow.Sequence,3_0_1_0_6_0,NA,NA,skipped,NA,502319.4,NA,NA,502312.9,502319.4,2024-05-26T10:56:36Z,502329.6,NULL,Annäherung,maegesho,s,madahili,kujiamini,mapendekezo,NA,sdfdsf,NA,1,NA,NA,NA,NA,NA,NA,NA,NA,NA,NA,NA,NA,NA,NA,NA,NA,NA,NA,NA
fae62,Shallow Question,html.Page,3_0_1_0_6_1_0,NA,NA,form submission,7764.6999999998,502319.4,502312.9,502329.6,510094.3,510094.5,2024-05-26T10:56:43Z,510108.2,NULL,Annäherung,maegesho,s,madahili,kujiamini,mapendekezo,maegesho,NA,NA,1,NA,NA,NA,NA,NA,NA,NA,NA,NA,NA,NA,NA,NA,NA,NA,NA,NA,NA,NA
fae62,"""Richtig""-Screen",canvas.Screen,3_0_1_0_6_1_1,NA,NA,timeout,4997,510097.5,510092.158,510108.2,515088.2,515089.2,2024-05-26T10:56:48Z,515105.2,NULL,Annäherung,maegesho,s,madahili,kujiamini,mapendekezo,NA,sdfdsf,1,1,NA,NA,NA,NA,NA,NA,NA,NA,NA,NA,NA,NA,NA,NA,NA,NA,NA,NA,NA
fae62,"""Falsch""-Screen",canvas.Screen,3_0_1_0_6_1_2,NA,NA,skipped,NA,515094.3,NA,NA,515088.2,515094.4,2024-05-26T10:56:48Z,515105.2,NULL,Annäherung,maegesho,s,madahili,kujiamini,mapendekezo,NA,sdfdsf,NA,1,NA,NA,NA,NA,NA,NA,NA,NA,NA,NA,NA,NA,NA,NA,NA,NA,NA,NA,NA
fae62,shallow,flow.Sequence,3_0_1_0_6_1,NA,NA,completion,12758.6,502319.4,502312.9,502329.6,515088.2,515094.5,2024-05-26T10:56:48Z,515105.2,NULL,Annäherung,maegesho,s,madahili,kujiamini,mapendekezo,NA,sdfdsf,NA,1,NA,NA,NA,NA,NA,NA,NA,NA,NA,NA,NA,NA,NA,NA,NA,NA,NA,NA,NA
fae62,task,flow.Sequence,3_0_1_0_6,NA,NA,completion,12758.6,502319.4,502312.9,502329.6,515088.2,515094.6,2024-05-26T10:56:48Z,515105.2,NULL,Annäherung,maegesho,s,madahili,kujiamini,mapendekezo,NA,sdfdsf,NA,1,NA,NA,NA,NA,NA,NA,NA,NA,NA,NA,NA,NA,NA,NA,NA,NA,NA,NA,NA
fae62,Deep Question,html.Page,3_0_1_0_7_0_0,NA,NA,form submission,8714.6999999999,515094.6,515088.2,515105.2,523819.9,523820,2024-05-26T10:56:57Z,523832.8,NULL,Polizist,msongora,d,NA,NA,NA,jhg,NA,NA,1,NA,NA,NA,NA,NA,NA,NA,NA,NA,NA,NA,NA,NA,NA,NA,NA,NA,NA,NA
fae62,"""Richtig""-Screen",canvas.Screen,3_0_1_0_7_0_1,NA,NA,skipped,NA,523823.2,NA,NA,523819.9,523823.3,2024-05-26T10:56:57Z,523832.8,NULL,Polizist,msongora,d,NA,NA,NA,NA,sdfdsf,NA,1,NA,NA,NA,NA,NA,NA,NA,NA,NA,NA,NA,NA,NA,NA,NA,NA,NA,NA,NA
fae62,"""Falsch""-Screen",canvas.Screen,3_0_1_0_7_0_2,NA,NA,timeout,4997.2,523824,523816.842,523832.8,528813,528814.6,2024-05-26T10:57:02Z,528830,NULL,Polizist,msongora,d,NA,NA,NA,NA,sdfdsf,0,1,NA,NA,NA,NA,NA,NA,NA,NA,NA,NA,NA,NA,NA,NA,NA,NA,NA,NA,NA
fae62,deep,flow.Sequence,3_0_1_0_7_0,NA,NA,completion,13707.8,515094.6,515088.2,515105.2,528813,528814.7,2024-05-26T10:57:02Z,528830,NULL,Polizist,msongora,d,NA,NA,NA,NA,sdfdsf,NA,1,NA,NA,NA,NA,NA,NA,NA,NA,NA,NA,NA,NA,NA,NA,NA,NA,NA,NA,NA
fae62,shallow,flow.Sequence,3_0_1_0_7_1,NA,NA,skipped,NA,528814.8,NA,NA,528813,528814.8,2024-05-26T10:57:02Z,528830,NULL,Polizist,msongora,d,NA,NA,NA,NA,sdfdsf,NA,1,NA,NA,NA,NA,NA,NA,NA,NA,NA,NA,NA,NA,NA,NA,NA,NA,NA,NA,NA
fae62,task,flow.Sequence,3_0_1_0_7,NA,NA,completion,13707.8,515094.6,515088.2,515105.2,528813,528814.9,2024-05-26T10:57:02Z,528830,NULL,Polizist,msongora,d,NA,NA,NA,NA,sdfdsf,NA,1,NA,NA,NA,NA,NA,NA,NA,NA,NA,NA,NA,NA,NA,NA,NA,NA,NA,NA,NA
fae62,block,flow.Loop,3_0_1_0,NA,NA,completion,135134,393671.6,393662.562,393679,528813,528815,2024-05-26T10:57:02Z,528830,NULL,NA,NA,NA,NA,NA,NA,NA,sdfdsf,NA,1,NA,NA,NA,NA,NA,NA,NA,NA,NA,NA,NA,NA,NA,NA,NA,NA,NA,NA,NA
fae62,weiter,canvas.Screen,3_0_1_1,sdf,keypress(Space),response,1919.7999999998,528815.1,528813,528830,530749.8,530750.6,2024-05-26T10:57:04Z,530778.7,NULL,NA,NA,NA,NA,NA,NA,NA,sdfdsf,NA,1,NA,NA,NA,NA,NA,NA,NA,NA,NA,NA,NA,NA,NA,NA,NA,NA,NA,NA,NA
fae62,check continue,flow.Sequence,3_0_1,NA,NA,completion,137070.8,393671.6,393662.562,393679,530749.8,530750.8,2024-05-26T10:57:04Z,530778.7,NULL,NA,NA,NA,NA,NA,NA,NA,sdfdsf,NA,1,NA,NA,NA,NA,NA,NA,NA,NA,NA,NA,NA,NA,NA,NA,NA,NA,NA,NA,NA
fae62,Deep Question,html.Page,3_0_2_0_0_0_0,NA,NA,form submission,7339.2,530769.6,530763.256,530778.7,538117.9,538118.1,2024-05-26T10:57:11Z,538124.1,NULL,Polizist,msongora,d,NA,NA,NA,msongora,NA,NA,2,NA,NA,NA,NA,NA,NA,NA,NA,NA,NA,NA,NA,NA,NA,NA,NA,NA,NA,NA
fae62,"""Richtig""-Screen",canvas.Screen,3_0_2_0_0_0_1,NA,NA,timeout,4997.4,538121.1,538108.798,538124.1,543104.6,543105.5,2024-05-26T10:57:16Z,543121.5,NULL,Polizist,msongora,d,NA,NA,NA,NA,sdf,1,2,NA,NA,NA,NA,NA,NA,NA,NA,NA,NA,NA,NA,NA,NA,NA,NA,NA,NA,NA
fae62,"""Falsch""-Screen",canvas.Screen,3_0_2_0_0_0_2,NA,NA,skipped,NA,543110.3,NA,NA,543104.6,543110.5,2024-05-26T10:57:16Z,543121.5,NULL,Polizist,msongora,d,NA,NA,NA,NA,sdf,NA,2,NA,NA,NA,NA,NA,NA,NA,NA,NA,NA,NA,NA,NA,NA,NA,NA,NA,NA,NA
fae62,deep,flow.Sequence,3_0_2_0_0_0,NA,NA,completion,12325.9,530769.6,530763.256,530778.7,543104.6,543110.6,2024-05-26T10:57:16Z,543121.5,NULL,Polizist,msongora,d,NA,NA,NA,NA,sdf,NA,2,NA,NA,NA,NA,NA,NA,NA,NA,NA,NA,NA,NA,NA,NA,NA,NA,NA,NA,NA
fae62,shallow,flow.Sequence,3_0_2_0_0_1,NA,NA,skipped,NA,543110.7,NA,NA,543104.6,543110.8,2024-05-26T10:57:16Z,543121.5,NULL,Polizist,msongora,d,NA,NA,NA,NA,sdf,NA,2,NA,NA,NA,NA,NA,NA,NA,NA,NA,NA,NA,NA,NA,NA,NA,NA,NA,NA,NA
fae62,task,flow.Sequence,3_0_2_0_0,NA,NA,completion,12325.9,530769.6,530763.256,530778.7,543104.6,543110.8,2024-05-26T10:57:16Z,543121.5,NULL,Polizist,msongora,d,NA,NA,NA,NA,sdf,NA,2,NA,NA,NA,NA,NA,NA,NA,NA,NA,NA,NA,NA,NA,NA,NA,NA,NA,NA,NA
fae62,deep,flow.Sequence,3_0_2_0_1_0,NA,NA,skipped,NA,543110.8,NA,NA,543104.6,543110.9,2024-05-26T10:57:16Z,543121.5,NULL,Toleranz,kuvumiliana,s,maombolezo,ujasusi,mchekeshaji,NA,sdf,NA,2,NA,NA,NA,NA,NA,NA,NA,NA,NA,NA,NA,NA,NA,NA,NA,NA,NA,NA,NA
fae62,Shallow Question,html.Page,3_0_2_0_1_1_0,NA,NA,form submission,7439.7999999998,543110.9,543104.6,543121.5,550561.3,550561.5,2024-05-26T10:57:24Z,550568.524,NULL,Toleranz,kuvumiliana,s,maombolezo,ujasusi,mchekeshaji,kuvumiliana,NA,NA,2,NA,NA,NA,NA,NA,NA,NA,NA,NA,NA,NA,NA,NA,NA,NA,NA,NA,NA,NA
fae62,"""Richtig""-Screen",canvas.Screen,3_0_2_0_1_1_1,NA,NA,timeout,4995.376,550564.5,550568.524,550568.524,555546.9,555547.9,2024-05-26T10:57:29Z,555563.9,NULL,Toleranz,kuvumiliana,s,maombolezo,ujasusi,mchekeshaji,NA,sdf,1,2,NA,NA,NA,NA,NA,NA,NA,NA,NA,NA,NA,NA,NA,NA,NA,NA,NA,NA,NA
fae62,"""Falsch""-Screen",canvas.Screen,3_0_2_0_1_1_2,NA,NA,skipped,NA,555553.2,NA,NA,555546.9,555553.3,2024-05-26T10:57:29Z,555563.9,NULL,Toleranz,kuvumiliana,s,maombolezo,ujasusi,mchekeshaji,NA,sdf,NA,2,NA,NA,NA,NA,NA,NA,NA,NA,NA,NA,NA,NA,NA,NA,NA,NA,NA,NA,NA
fae62,shallow,flow.Sequence,3_0_2_0_1_1,NA,NA,completion,12425.4,543110.9,543104.6,543121.5,555546.9,555553.4,2024-05-26T10:57:29Z,555563.9,NULL,Toleranz,kuvumiliana,s,maombolezo,ujasusi,mchekeshaji,NA,sdf,NA,2,NA,NA,NA,NA,NA,NA,NA,NA,NA,NA,NA,NA,NA,NA,NA,NA,NA,NA,NA
fae62,task,flow.Sequence,3_0_2_0_1,NA,NA,completion,12425.4,543110.8,543104.6,543121.5,555546.9,555553.4,2024-05-26T10:57:29Z,555563.9,NULL,Toleranz,kuvumiliana,s,maombolezo,ujasusi,mchekeshaji,NA,sdf,NA,2,NA,NA,NA,NA,NA,NA,NA,NA,NA,NA,NA,NA,NA,NA,NA,NA,NA,NA,NA
fae62,Deep Question,html.Page,3_0_2_0_2_0_0,NA,NA,form submission,2702.2999999997,555553.4,555546.9,555563.9,558266.2,558266.4,2024-05-26T10:57:32Z,558278.6,NULL,Inhalt,yaliyomo,d,NA,NA,NA,fg,NA,NA,2,NA,NA,NA,NA,NA,NA,NA,NA,NA,NA,NA,NA,NA,NA,NA,NA,NA,NA,NA
fae62,"""Richtig""-Screen",canvas.Screen,3_0_2_0_2_0_1,NA,NA,skipped,NA,558267.3,NA,NA,558266.2,558267.5,2024-05-26T10:57:32Z,558278.6,NULL,Inhalt,yaliyomo,d,NA,NA,NA,NA,sdf,NA,2,NA,NA,NA,NA,NA,NA,NA,NA,NA,NA,NA,NA,NA,NA,NA,NA,NA,NA,NA
fae62,"""Falsch""-Screen",canvas.Screen,3_0_2_0_2_0_2,NA,NA,timeout,4996.8,558268.2,558262.628,558278.6,563259,563259.8,2024-05-26T10:57:37Z,563275.4,NULL,Inhalt,yaliyomo,d,NA,NA,NA,NA,sdf,0,2,NA,NA,NA,NA,NA,NA,NA,NA,NA,NA,NA,NA,NA,NA,NA,NA,NA,NA,NA
fae62,deep,flow.Sequence,3_0_2_0_2_0,NA,NA,completion,7695.1,555553.4,555546.9,555563.9,563259,563260.1,2024-05-26T10:57:37Z,563275.4,NULL,Inhalt,yaliyomo,d,NA,NA,NA,NA,sdf,NA,2,NA,NA,NA,NA,NA,NA,NA,NA,NA,NA,NA,NA,NA,NA,NA,NA,NA,NA,NA
fae62,shallow,flow.Sequence,3_0_2_0_2_1,NA,NA,skipped,NA,563260.2,NA,NA,563259,563260.4,2024-05-26T10:57:37Z,563275.4,NULL,Inhalt,yaliyomo,d,NA,NA,NA,NA,sdf,NA,2,NA,NA,NA,NA,NA,NA,NA,NA,NA,NA,NA,NA,NA,NA,NA,NA,NA,NA,NA
fae62,task,flow.Sequence,3_0_2_0_2,NA,NA,completion,7695.1,555553.4,555546.9,555563.9,563259,563260.6,2024-05-26T10:57:37Z,563275.4,NULL,Inhalt,yaliyomo,d,NA,NA,NA,NA,sdf,NA,2,NA,NA,NA,NA,NA,NA,NA,NA,NA,NA,NA,NA,NA,NA,NA,NA,NA,NA,NA
fae62,deep,flow.Sequence,3_0_2_0_3_0,NA,NA,skipped,NA,563260.7,NA,NA,563259,563260.8,2024-05-26T10:57:37Z,563275.4,NULL,Annäherung,maegesho,s,madahili,kujiamini,mapendekezo,NA,sdf,NA,2,NA,NA,NA,NA,NA,NA,NA,NA,NA,NA,NA,NA,NA,NA,NA,NA,NA,NA,NA
fae62,Shallow Question,html.Page,3_0_2_0_3_1_0,NA,NA,form submission,5579.1,563260.9,563259,563275.4,568854.5,568854.8,2024-05-26T10:57:42Z,568856.43,NULL,Annäherung,maegesho,s,madahili,kujiamini,mapendekezo,maegesho,NA,NA,2,NA,NA,NA,NA,NA,NA,NA,NA,NA,NA,NA,NA,NA,NA,NA,NA,NA,NA,NA
fae62,"""Richtig""-Screen",canvas.Screen,3_0_2_0_3_1_1,NA,NA,timeout,4996.37,568857.7,568856.43,568856.43,573836,573836.8,2024-05-26T10:57:47Z,573852.8,NULL,Annäherung,maegesho,s,madahili,kujiamini,mapendekezo,NA,sdf,1,2,NA,NA,NA,NA,NA,NA,NA,NA,NA,NA,NA,NA,NA,NA,NA,NA,NA,NA,NA
fae62,"""Falsch""-Screen",canvas.Screen,3_0_2_0_3_1_2,NA,NA,skipped,NA,573841.6,NA,NA,573836,573841.8,2024-05-26T10:57:47Z,573852.8,NULL,Annäherung,maegesho,s,madahili,kujiamini,mapendekezo,NA,sdf,NA,2,NA,NA,NA,NA,NA,NA,NA,NA,NA,NA,NA,NA,NA,NA,NA,NA,NA,NA,NA
fae62,shallow,flow.Sequence,3_0_2_0_3_1,NA,NA,completion,10560.6,563260.8,563259,563275.4,573836,573842,2024-05-26T10:57:47Z,573852.8,NULL,Annäherung,maegesho,s,madahili,kujiamini,mapendekezo,NA,sdf,NA,2,NA,NA,NA,NA,NA,NA,NA,NA,NA,NA,NA,NA,NA,NA,NA,NA,NA,NA,NA
fae62,task,flow.Sequence,3_0_2_0_3,NA,NA,completion,10560.6,563260.6,563259,563275.4,573836,573842.2,2024-05-26T10:57:47Z,573852.8,NULL,Annäherung,maegesho,s,madahili,kujiamini,mapendekezo,NA,sdf,NA,2,NA,NA,NA,NA,NA,NA,NA,NA,NA,NA,NA,NA,NA,NA,NA,NA,NA,NA,NA
fae62,Deep Question,html.Page,3_0_2_0_4_0_0,NA,NA,form submission,6052.2,573842.3,573836,573852.8,579905,579905.2,2024-05-26T10:57:53Z,579915.2,NULL,Vermutung,udhanifu,d,NA,NA,NA,udhanifi,NA,NA,2,NA,NA,NA,NA,NA,NA,NA,NA,NA,NA,NA,NA,NA,NA,NA,NA,NA,NA,NA
fae62,"""Richtig""-Screen",canvas.Screen,3_0_2_0_4_0_1,NA,NA,skipped,NA,579908.1,NA,NA,579905,579908.3,2024-05-26T10:57:53Z,579915.2,NULL,Vermutung,udhanifu,d,NA,NA,NA,NA,sdf,NA,2,NA,NA,NA,NA,NA,NA,NA,NA,NA,NA,NA,NA,NA,NA,NA,NA,NA,NA,NA
fae62,"""Falsch""-Screen",canvas.Screen,3_0_2_0_4_0_2,NA,NA,timeout,4997.4,579909,579900.17,579915.2,584895.7,584896.5,2024-05-26T10:57:58Z,584912.6,NULL,Vermutung,udhanifu,d,NA,NA,NA,NA,sdf,0,2,NA,NA,NA,NA,NA,NA,NA,NA,NA,NA,NA,NA,NA,NA,NA,NA,NA,NA,NA
fae62,deep,flow.Sequence,3_0_2_0_4_0,NA,NA,completion,11042.9,573842.2,573836,573852.8,584895.7,584896.9,2024-05-26T10:57:58Z,584912.6,NULL,Vermutung,udhanifu,d,NA,NA,NA,NA,sdf,NA,2,NA,NA,NA,NA,NA,NA,NA,NA,NA,NA,NA,NA,NA,NA,NA,NA,NA,NA,NA
fae62,shallow,flow.Sequence,3_0_2_0_4_1,NA,NA,skipped,NA,584897,NA,NA,584895.7,584897.1,2024-05-26T10:57:58Z,584912.6,NULL,Vermutung,udhanifu,d,NA,NA,NA,NA,sdf,NA,2,NA,NA,NA,NA,NA,NA,NA,NA,NA,NA,NA,NA,NA,NA,NA,NA,NA,NA,NA
fae62,task,flow.Sequence,3_0_2_0_4,NA,NA,completion,11042.9,573842.2,573836,573852.8,584895.7,584897.3,2024-05-26T10:57:58Z,584912.6,NULL,Vermutung,udhanifu,d,NA,NA,NA,NA,sdf,NA,2,NA,NA,NA,NA,NA,NA,NA,NA,NA,NA,NA,NA,NA,NA,NA,NA,NA,NA,NA
fae62,deep,flow.Sequence,3_0_2_0_5_0,NA,NA,skipped,NA,584897.4,NA,NA,584895.7,584897.5,2024-05-26T10:57:58Z,584912.6,NULL,Sympathie,mapendano,s,dhamiria,fungamano,maazimio,NA,sdf,NA,2,NA,NA,NA,NA,NA,NA,NA,NA,NA,NA,NA,NA,NA,NA,NA,NA,NA,NA,NA
fae62,Shallow Question,html.Page,3_0_2_0_5_1_0,NA,NA,form submission,4332.7999999999,584897.7,584895.7,584912.6,589245.4,589245.6,2024-05-26T10:58:03Z,589259.6,NULL,Sympathie,mapendano,s,dhamiria,fungamano,maazimio,mapendano,NA,NA,2,NA,NA,NA,NA,NA,NA,NA,NA,NA,NA,NA,NA,NA,NA,NA,NA,NA,NA,NA
fae62,"""Richtig""-Screen",canvas.Screen,3_0_2_0_5_1_1,NA,NA,timeout,4997.4,589248.5,589243.644,589259.6,594240.2,594241.1,2024-05-26T10:58:08Z,594257,NULL,Sympathie,mapendano,s,dhamiria,fungamano,maazimio,NA,sdf,1,2,NA,NA,NA,NA,NA,NA,NA,NA,NA,NA,NA,NA,NA,NA,NA,NA,NA,NA,NA
fae62,"""Falsch""-Screen",canvas.Screen,3_0_2_0_5_1_2,NA,NA,skipped,NA,594246.1,NA,NA,594240.2,594246.2,2024-05-26T10:58:08Z,594257,NULL,Sympathie,mapendano,s,dhamiria,fungamano,maazimio,NA,sdf,NA,2,NA,NA,NA,NA,NA,NA,NA,NA,NA,NA,NA,NA,NA,NA,NA,NA,NA,NA,NA
fae62,shallow,flow.Sequence,3_0_2_0_5_1,NA,NA,completion,9327.6,584897.7,584895.7,584912.6,594240.2,594246.3,2024-05-26T10:58:08Z,594257,NULL,Sympathie,mapendano,s,dhamiria,fungamano,maazimio,NA,sdf,NA,2,NA,NA,NA,NA,NA,NA,NA,NA,NA,NA,NA,NA,NA,NA,NA,NA,NA,NA,NA
fae62,task,flow.Sequence,3_0_2_0_5,NA,NA,completion,9327.6,584897.4,584895.7,584912.6,594240.2,594246.3,2024-05-26T10:58:08Z,594257,NULL,Sympathie,mapendano,s,dhamiria,fungamano,maazimio,NA,sdf,NA,2,NA,NA,NA,NA,NA,NA,NA,NA,NA,NA,NA,NA,NA,NA,NA,NA,NA,NA,NA
fae62,Deep Question,html.Page,3_0_2_0_6_0_0,NA,NA,form submission,5477.7999999998,594246.4,594240.2,594257,599734.8,599735.1,2024-05-26T10:58:13Z,599738.782,NULL,Beweis,ushahidi,d,NA,NA,NA,dfh,NA,NA,2,NA,NA,NA,NA,NA,NA,NA,NA,NA,NA,NA,NA,NA,NA,NA,NA,NA,NA,NA
fae62,"""Richtig""-Screen",canvas.Screen,3_0_2_0_6_0_1,NA,NA,skipped,NA,599738.1,NA,NA,599734.8,599738.2,2024-05-26T10:58:13Z,599738.782,NULL,Beweis,ushahidi,d,NA,NA,NA,NA,sdf,NA,2,NA,NA,NA,NA,NA,NA,NA,NA,NA,NA,NA,NA,NA,NA,NA,NA,NA,NA,NA
fae62,"""Falsch""-Screen",canvas.Screen,3_0_2_0_6_0_2,NA,NA,timeout,4995.118,599739.1,599738.782,599738.782,604717.3,604718.2,2024-05-26T10:58:18Z,604733.9,NULL,Beweis,ushahidi,d,NA,NA,NA,NA,sdf,0,2,NA,NA,NA,NA,NA,NA,NA,NA,NA,NA,NA,NA,NA,NA,NA,NA,NA,NA,NA
fae62,deep,flow.Sequence,3_0_2_0_6_0,NA,NA,completion,10460.3,594246.4,594240.2,594257,604717.3,604718.5,2024-05-26T10:58:18Z,604733.9,NULL,Beweis,ushahidi,d,NA,NA,NA,NA,sdf,NA,2,NA,NA,NA,NA,NA,NA,NA,NA,NA,NA,NA,NA,NA,NA,NA,NA,NA,NA,NA
fae62,shallow,flow.Sequence,3_0_2_0_6_1,NA,NA,skipped,NA,604718.6,NA,NA,604717.3,604718.7,2024-05-26T10:58:18Z,604733.9,NULL,Beweis,ushahidi,d,NA,NA,NA,NA,sdf,NA,2,NA,NA,NA,NA,NA,NA,NA,NA,NA,NA,NA,NA,NA,NA,NA,NA,NA,NA,NA
fae62,task,flow.Sequence,3_0_2_0_6,NA,NA,completion,10460.3,594246.4,594240.2,594257,604717.3,604718.8,2024-05-26T10:58:18Z,604733.9,NULL,Beweis,ushahidi,d,NA,NA,NA,NA,sdf,NA,2,NA,NA,NA,NA,NA,NA,NA,NA,NA,NA,NA,NA,NA,NA,NA,NA,NA,NA,NA
fae62,deep,flow.Sequence,3_0_2_0_7_0,NA,NA,skipped,NA,604719,NA,NA,604717.3,604719.1,2024-05-26T10:58:18Z,604733.9,NULL,Schlange,foleni,s,uvumilivu,uteuzi,muuzaji,NA,sdf,NA,2,NA,NA,NA,NA,NA,NA,NA,NA,NA,NA,NA,NA,NA,NA,NA,NA,NA,NA,NA
fae62,Shallow Question,html.Page,3_0_2_0_7_1_0,NA,NA,form submission,3154.6,604719.2,604717.3,604733.9,607888.5,607888.7,2024-05-26T10:58:21Z,607898.3,NULL,Schlange,foleni,s,uvumilivu,uteuzi,muuzaji,foleni,NA,NA,2,NA,NA,NA,NA,NA,NA,NA,NA,NA,NA,NA,NA,NA,NA,NA,NA,NA,NA,NA
fae62,"""Richtig""-Screen",canvas.Screen,3_0_2_0_7_1_1,NA,NA,timeout,4997.2999999999,607891.8,607882.128,607898.3,612878.5,612879.5,2024-05-26T10:58:26Z,612895.6,NULL,Schlange,foleni,s,uvumilivu,uteuzi,muuzaji,NA,sdf,1,2,NA,NA,NA,NA,NA,NA,NA,NA,NA,NA,NA,NA,NA,NA,NA,NA,NA,NA,NA
fae62,"""Falsch""-Screen",canvas.Screen,3_0_2_0_7_1_2,NA,NA,skipped,NA,612884.2,NA,NA,612878.5,612884.5,2024-05-26T10:58:26Z,612895.6,NULL,Schlange,foleni,s,uvumilivu,uteuzi,muuzaji,NA,sdf,NA,2,NA,NA,NA,NA,NA,NA,NA,NA,NA,NA,NA,NA,NA,NA,NA,NA,NA,NA,NA
fae62,shallow,flow.Sequence,3_0_2_0_7_1,NA,NA,completion,8144.6,604719.2,604717.3,604733.9,612878.5,612884.6,2024-05-26T10:58:26Z,612895.6,NULL,Schlange,foleni,s,uvumilivu,uteuzi,muuzaji,NA,sdf,NA,2,NA,NA,NA,NA,NA,NA,NA,NA,NA,NA,NA,NA,NA,NA,NA,NA,NA,NA,NA
fae62,task,flow.Sequence,3_0_2_0_7,NA,NA,completion,8144.6,604719,604717.3,604733.9,612878.5,612884.7,2024-05-26T10:58:26Z,612895.6,NULL,Schlange,foleni,s,uvumilivu,uteuzi,muuzaji,NA,sdf,NA,2,NA,NA,NA,NA,NA,NA,NA,NA,NA,NA,NA,NA,NA,NA,NA,NA,NA,NA,NA
fae62,block,flow.Loop,3_0_2_0,NA,NA,completion,82099.8,530769.6,530763.256,530778.7,612878.5,612884.8,2024-05-26T10:58:26Z,612895.6,NULL,NA,NA,NA,NA,NA,NA,NA,sdf,NA,2,NA,NA,NA,NA,NA,NA,NA,NA,NA,NA,NA,NA,NA,NA,NA,NA,NA,NA,NA
fae62,weiter,canvas.Screen,3_0_2_1,sdf,keypress(Space),response,1502.4,612884.8,612878.5,612895.6,614398,614399,2024-05-26T10:58:28Z,614444.7,NULL,NA,NA,NA,NA,NA,NA,NA,sdf,NA,2,NA,NA,NA,NA,NA,NA,NA,NA,NA,NA,NA,NA,NA,NA,NA,NA,NA,NA,NA
fae62,check continue,flow.Sequence,3_0_2,NA,NA,completion,83619.3,530769.6,530763.256,530778.7,614398,614399.3,2024-05-26T10:58:28Z,614444.7,NULL,NA,NA,NA,NA,NA,NA,NA,sdf,NA,2,NA,NA,NA,NA,NA,NA,NA,NA,NA,NA,NA,NA,NA,NA,NA,NA,NA,NA,NA
fae62,deep,flow.Sequence,3_0_3_0_0_0,NA,NA,skipped,NA,614417,NA,NA,614398,614417.1,2024-05-26T10:58:28Z,614444.7,NULL,Sympathie,mapendano,s,dhamiria,fungamano,maazimio,NA,qt,NA,3,NA,NA,NA,NA,NA,NA,NA,NA,NA,NA,NA,NA,NA,NA,NA,NA,NA,NA,NA
fae62,Shallow Question,html.Page,3_0_3_0_0_1_0,NA,NA,form submission,3471.3,614417.1,614428.2,614444.7,617916,617916.1,2024-05-26T10:58:31Z,617925.4,NULL,Sympathie,mapendano,s,dhamiria,fungamano,maazimio,mapendano,NA,NA,3,NA,NA,NA,NA,NA,NA,NA,NA,NA,NA,NA,NA,NA,NA,NA,NA,NA,NA,NA
fae62,"""Richtig""-Screen",canvas.Screen,3_0_3_0_0_1_1,NA,NA,timeout,4997.5,617919.1,617909.566,617925.4,622906,622906.9,2024-05-26T10:58:36Z,622922.9,NULL,Sympathie,mapendano,s,dhamiria,fungamano,maazimio,NA,qt,1,3,NA,NA,NA,NA,NA,NA,NA,NA,NA,NA,NA,NA,NA,NA,NA,NA,NA,NA,NA
fae62,"""Falsch""-Screen",canvas.Screen,3_0_3_0_0_1_2,NA,NA,skipped,NA,622912,NA,NA,622906,622912.2,2024-05-26T10:58:36Z,622922.9,NULL,Sympathie,mapendano,s,dhamiria,fungamano,maazimio,NA,qt,NA,3,NA,NA,NA,NA,NA,NA,NA,NA,NA,NA,NA,NA,NA,NA,NA,NA,NA,NA,NA
fae62,shallow,flow.Sequence,3_0_3_0_0_1,NA,NA,completion,8461.3,614417.1,614428.2,614444.7,622906,622912.3,2024-05-26T10:58:36Z,622922.9,NULL,Sympathie,mapendano,s,dhamiria,fungamano,maazimio,NA,qt,NA,3,NA,NA,NA,NA,NA,NA,NA,NA,NA,NA,NA,NA,NA,NA,NA,NA,NA,NA,NA
fae62,task,flow.Sequence,3_0_3_0_0,NA,NA,completion,8461.3,614417,614428.2,614444.7,622906,622912.4,2024-05-26T10:58:36Z,622922.9,NULL,Sympathie,mapendano,s,dhamiria,fungamano,maazimio,NA,qt,NA,3,NA,NA,NA,NA,NA,NA,NA,NA,NA,NA,NA,NA,NA,NA,NA,NA,NA,NA,NA
fae62,Deep Question,html.Page,3_0_3_0_1_0_0,NA,NA,form submission,8870.4999999999,622912.5,622906,622922.9,631793.4,631793.6,2024-05-26T10:58:45Z,631800.3,NULL,Beweis,ushahidi,d,NA,NA,NA,ushahidi,NA,NA,3,NA,NA,NA,NA,NA,NA,NA,NA,NA,NA,NA,NA,NA,NA,NA,NA,NA,NA,NA
fae62,"""Richtig""-Screen",canvas.Screen,3_0_3_0_1_0_1,NA,NA,timeout,4997,631796.9,631784.254,631800.3,636781,636782,2024-05-26T10:58:50Z,636797.3,NULL,Beweis,ushahidi,d,NA,NA,NA,NA,qt,1,3,NA,NA,NA,NA,NA,NA,NA,NA,NA,NA,NA,NA,NA,NA,NA,NA,NA,NA,NA
fae62,"""Falsch""-Screen",canvas.Screen,3_0_3_0_1_0_2,NA,NA,skipped,NA,636787.4,NA,NA,636781,636787.6,2024-05-26T10:58:50Z,636797.3,NULL,Beweis,ushahidi,d,NA,NA,NA,NA,qt,NA,3,NA,NA,NA,NA,NA,NA,NA,NA,NA,NA,NA,NA,NA,NA,NA,NA,NA,NA,NA
fae62,deep,flow.Sequence,3_0_3_0_1_0,NA,NA,completion,13858.1,622912.4,622906,622922.9,636781,636788,2024-05-26T10:58:50Z,636797.3,NULL,Beweis,ushahidi,d,NA,NA,NA,NA,qt,NA,3,NA,NA,NA,NA,NA,NA,NA,NA,NA,NA,NA,NA,NA,NA,NA,NA,NA,NA,NA
fae62,shallow,flow.Sequence,3_0_3_0_1_1,NA,NA,skipped,NA,636788.1,NA,NA,636781,636788.3,2024-05-26T10:58:50Z,636797.3,NULL,Beweis,ushahidi,d,NA,NA,NA,NA,qt,NA,3,NA,NA,NA,NA,NA,NA,NA,NA,NA,NA,NA,NA,NA,NA,NA,NA,NA,NA,NA
fae62,task,flow.Sequence,3_0_3_0_1,NA,NA,completion,13858.1,622912.4,622906,622922.9,636781,636788.5,2024-05-26T10:58:50Z,636797.3,NULL,Beweis,ushahidi,d,NA,NA,NA,NA,qt,NA,3,NA,NA,NA,NA,NA,NA,NA,NA,NA,NA,NA,NA,NA,NA,NA,NA,NA,NA,NA
fae62,Deep Question,html.Page,3_0_3_0_2_0_0,NA,NA,form submission,9139.8999999997,636788.6,636781,636797.3,645937.2,645937.4,2024-05-26T10:58:59Z,645941.9,NULL,Inhalt,yaliyomo,d,NA,NA,NA,yaliyono,NA,NA,3,NA,NA,NA,NA,NA,NA,NA,NA,NA,NA,NA,NA,NA,NA,NA,NA,NA,NA,NA
fae62,"""Richtig""-Screen",canvas.Screen,3_0_3_0_2_0_1,NA,NA,skipped,NA,645940.5,NA,NA,645937.2,645940.6,2024-05-26T10:58:59Z,645941.9,NULL,Inhalt,yaliyomo,d,NA,NA,NA,NA,qt,NA,3,NA,NA,NA,NA,NA,NA,NA,NA,NA,NA,NA,NA,NA,NA,NA,NA,NA,NA,NA
fae62,"""Falsch""-Screen",canvas.Screen,3_0_3_0_2_0_2,NA,NA,timeout,4996.7999999999,645941.4,645927.674,645941.9,650922.1,650923.1,2024-05-26T10:59:04Z,650938.7,NULL,Inhalt,yaliyomo,d,NA,NA,NA,NA,qt,0,3,NA,NA,NA,NA,NA,NA,NA,NA,NA,NA,NA,NA,NA,NA,NA,NA,NA,NA,NA
fae62,deep,flow.Sequence,3_0_3_0_2_0,NA,NA,completion,14124.8,636788.6,636781,636797.3,650922.1,650923.5,2024-05-26T10:59:04Z,650938.7,NULL,Inhalt,yaliyomo,d,NA,NA,NA,NA,qt,NA,3,NA,NA,NA,NA,NA,NA,NA,NA,NA,NA,NA,NA,NA,NA,NA,NA,NA,NA,NA
fae62,shallow,flow.Sequence,3_0_3_0_2_1,NA,NA,skipped,NA,650923.6,NA,NA,650922.1,650923.7,2024-05-26T10:59:04Z,650938.7,NULL,Inhalt,yaliyomo,d,NA,NA,NA,NA,qt,NA,3,NA,NA,NA,NA,NA,NA,NA,NA,NA,NA,NA,NA,NA,NA,NA,NA,NA,NA,NA
fae62,task,flow.Sequence,3_0_3_0_2,NA,NA,completion,14124.8,636788.6,636781,636797.3,650922.1,650923.9,2024-05-26T10:59:04Z,650938.7,NULL,Inhalt,yaliyomo,d,NA,NA,NA,NA,qt,NA,3,NA,NA,NA,NA,NA,NA,NA,NA,NA,NA,NA,NA,NA,NA,NA,NA,NA,NA,NA
fae62,Deep Question,html.Page,3_0_3_0_3_0_0,NA,NA,form submission,6023.5999999999,650924.1,650922.1,650938.7,656962.3,656962.5,2024-05-26T10:59:10Z,656968.3,NULL,Vermutung,udhanifu,d,NA,NA,NA,udhanifu,NA,NA,3,NA,NA,NA,NA,NA,NA,NA,NA,NA,NA,NA,NA,NA,NA,NA,NA,NA,NA,NA
fae62,"""Richtig""-Screen",canvas.Screen,3_0_3_0_3_0_1,NA,NA,timeout,4997,656965.6,656952.23,656968.3,661948.6,661950.1,2024-05-26T10:59:15Z,661965.3,NULL,Vermutung,udhanifu,d,NA,NA,NA,NA,qt,1,3,NA,NA,NA,NA,NA,NA,NA,NA,NA,NA,NA,NA,NA,NA,NA,NA,NA,NA,NA
fae62,"""Falsch""-Screen",canvas.Screen,3_0_3_0_3_0_2,NA,NA,skipped,NA,661955.1,NA,NA,661948.6,661955.3,2024-05-26T10:59:15Z,661965.3,NULL,Vermutung,udhanifu,d,NA,NA,NA,NA,qt,NA,3,NA,NA,NA,NA,NA,NA,NA,NA,NA,NA,NA,NA,NA,NA,NA,NA,NA,NA,NA
fae62,deep,flow.Sequence,3_0_3_0_3_0,NA,NA,completion,11009.9,650924.1,650922.1,650938.7,661948.6,661955.5,2024-05-26T10:59:15Z,661965.3,NULL,Vermutung,udhanifu,d,NA,NA,NA,NA,qt,NA,3,NA,NA,NA,NA,NA,NA,NA,NA,NA,NA,NA,NA,NA,NA,NA,NA,NA,NA,NA
fae62,shallow,flow.Sequence,3_0_3_0_3_1,NA,NA,skipped,NA,661955.7,NA,NA,661948.6,661955.7,2024-05-26T10:59:15Z,661965.3,NULL,Vermutung,udhanifu,d,NA,NA,NA,NA,qt,NA,3,NA,NA,NA,NA,NA,NA,NA,NA,NA,NA,NA,NA,NA,NA,NA,NA,NA,NA,NA
fae62,task,flow.Sequence,3_0_3_0_3,NA,NA,completion,11009.9,650924,650922.1,650938.7,661948.6,661956,2024-05-26T10:59:15Z,661965.3,NULL,Vermutung,udhanifu,d,NA,NA,NA,NA,qt,NA,3,NA,NA,NA,NA,NA,NA,NA,NA,NA,NA,NA,NA,NA,NA,NA,NA,NA,NA,NA
fae62,deep,flow.Sequence,3_0_3_0_4_0,NA,NA,skipped,NA,661956.1,NA,NA,661948.6,661956.1,2024-05-26T10:59:15Z,661965.3,NULL,Schlange,foleni,s,uvumilivu,uteuzi,muuzaji,NA,qt,NA,3,NA,NA,NA,NA,NA,NA,NA,NA,NA,NA,NA,NA,NA,NA,NA,NA,NA,NA,NA
fae62,Shallow Question,html.Page,3_0_3_0_4_1_0,NA,NA,form submission,3786.7,661956.2,661948.6,661965.3,665752,665752.2,2024-05-26T10:59:19Z,665762.8,NULL,Schlange,foleni,s,uvumilivu,uteuzi,muuzaji,foleni,NA,NA,3,NA,NA,NA,NA,NA,NA,NA,NA,NA,NA,NA,NA,NA,NA,NA,NA,NA,NA,NA
fae62,"""Richtig""-Screen",canvas.Screen,3_0_3_0_4_1_1,NA,NA,timeout,4997.5,665755.3,665746.924,665762.8,670743.5,670744.5,2024-05-26T10:59:24Z,670760.3,NULL,Schlange,foleni,s,uvumilivu,uteuzi,muuzaji,NA,qt,1,3,NA,NA,NA,NA,NA,NA,NA,NA,NA,NA,NA,NA,NA,NA,NA,NA,NA,NA,NA
fae62,"""Falsch""-Screen",canvas.Screen,3_0_3_0_4_1_2,NA,NA,skipped,NA,670749.6,NA,NA,670743.5,670749.8,2024-05-26T10:59:24Z,670760.3,NULL,Schlange,foleni,s,uvumilivu,uteuzi,muuzaji,NA,qt,NA,3,NA,NA,NA,NA,NA,NA,NA,NA,NA,NA,NA,NA,NA,NA,NA,NA,NA,NA,NA
fae62,shallow,flow.Sequence,3_0_3_0_4_1,NA,NA,completion,8778.2,661956.2,661948.6,661965.3,670743.5,670749.9,2024-05-26T10:59:24Z,670760.3,NULL,Schlange,foleni,s,uvumilivu,uteuzi,muuzaji,NA,qt,NA,3,NA,NA,NA,NA,NA,NA,NA,NA,NA,NA,NA,NA,NA,NA,NA,NA,NA,NA,NA
fae62,task,flow.Sequence,3_0_3_0_4,NA,NA,completion,8778.2,661956,661948.6,661965.3,670743.5,670749.9,2024-05-26T10:59:24Z,670760.3,NULL,Schlange,foleni,s,uvumilivu,uteuzi,muuzaji,NA,qt,NA,3,NA,NA,NA,NA,NA,NA,NA,NA,NA,NA,NA,NA,NA,NA,NA,NA,NA,NA,NA
fae62,Deep Question,html.Page,3_0_3_0_5_0_0,NA,NA,form submission,17064.2,670749.9,670743.5,670760.3,687824.5,687824.6,2024-05-26T10:59:41Z,687832.9,NULL,Polizist,msongora,d,NA,NA,NA,masigono,NA,NA,3,NA,NA,NA,NA,NA,NA,NA,NA,NA,NA,NA,NA,NA,NA,NA,NA,NA,NA,NA
fae62,"""Richtig""-Screen",canvas.Screen,3_0_3_0_5_0_1,NA,NA,skipped,NA,687826.4,NA,NA,687824.5,687826.5,2024-05-26T10:59:41Z,687832.9,NULL,Polizist,msongora,d,NA,NA,NA,NA,qt,NA,3,NA,NA,NA,NA,NA,NA,NA,NA,NA,NA,NA,NA,NA,NA,NA,NA,NA,NA,NA
fae62,"""Falsch""-Screen",canvas.Screen,3_0_3_0_5_0_2,NA,NA,timeout,4997.2999999999,687826.9,687823.638,687832.9,692813.6,692814.8,2024-05-26T10:59:46Z,692830.2,NULL,Polizist,msongora,d,NA,NA,NA,NA,qt,0,3,NA,NA,NA,NA,NA,NA,NA,NA,NA,NA,NA,NA,NA,NA,NA,NA,NA,NA,NA
fae62,deep,flow.Sequence,3_0_3_0_5_0,NA,NA,completion,22053.3,670749.9,670743.5,670760.3,692813.6,692815.1,2024-05-26T10:59:46Z,692830.2,NULL,Polizist,msongora,d,NA,NA,NA,NA,qt,NA,3,NA,NA,NA,NA,NA,NA,NA,NA,NA,NA,NA,NA,NA,NA,NA,NA,NA,NA,NA
fae62,shallow,flow.Sequence,3_0_3_0_5_1,NA,NA,skipped,NA,692815.2,NA,NA,692813.6,692815.4,2024-05-26T10:59:46Z,692830.2,NULL,Polizist,msongora,d,NA,NA,NA,NA,qt,NA,3,NA,NA,NA,NA,NA,NA,NA,NA,NA,NA,NA,NA,NA,NA,NA,NA,NA,NA,NA
fae62,task,flow.Sequence,3_0_3_0_5,NA,NA,completion,22053.3,670749.9,670743.5,670760.3,692813.6,692815.6,2024-05-26T10:59:46Z,692830.2,NULL,Polizist,msongora,d,NA,NA,NA,NA,qt,NA,3,NA,NA,NA,NA,NA,NA,NA,NA,NA,NA,NA,NA,NA,NA,NA,NA,NA,NA,NA
fae62,deep,flow.Sequence,3_0_3_0_6_0,NA,NA,skipped,NA,692815.8,NA,NA,692813.6,692815.8,2024-05-26T10:59:46Z,692830.2,NULL,Annäherung,maegesho,s,madahili,kujiamini,mapendekezo,NA,qt,NA,3,NA,NA,NA,NA,NA,NA,NA,NA,NA,NA,NA,NA,NA,NA,NA,NA,NA,NA,NA
fae62,Shallow Question,html.Page,3_0_3_0_6_1_0,NA,NA,form submission,3682.7,692816,692813.6,692830.2,696512.9,696513.2,2024-05-26T10:59:50Z,696528.1,NULL,Annäherung,maegesho,s,madahili,kujiamini,mapendekezo,maegesho,NA,NA,3,NA,NA,NA,NA,NA,NA,NA,NA,NA,NA,NA,NA,NA,NA,NA,NA,NA,NA,NA
fae62,"""Richtig""-Screen",canvas.Screen,3_0_3_0_6_1_1,NA,NA,timeout,4996.4,696516.1,696511.644,696528.1,701508.4,701509.3,2024-05-26T10:59:55Z,701524.5,NULL,Annäherung,maegesho,s,madahili,kujiamini,mapendekezo,NA,qt,1,3,NA,NA,NA,NA,NA,NA,NA,NA,NA,NA,NA,NA,NA,NA,NA,NA,NA,NA,NA
fae62,"""Falsch""-Screen",canvas.Screen,3_0_3_0_6_1_2,NA,NA,skipped,NA,701514.2,NA,NA,701508.4,701514.4,2024-05-26T10:59:55Z,701524.5,NULL,Annäherung,maegesho,s,madahili,kujiamini,mapendekezo,NA,qt,NA,3,NA,NA,NA,NA,NA,NA,NA,NA,NA,NA,NA,NA,NA,NA,NA,NA,NA,NA,NA
fae62,shallow,flow.Sequence,3_0_3_0_6_1,NA,NA,completion,8678.2000000001,692816,692813.6,692830.2,701508.4,701514.7,2024-05-26T10:59:55Z,701524.5,NULL,Annäherung,maegesho,s,madahili,kujiamini,mapendekezo,NA,qt,NA,3,NA,NA,NA,NA,NA,NA,NA,NA,NA,NA,NA,NA,NA,NA,NA,NA,NA,NA,NA
fae62,task,flow.Sequence,3_0_3_0_6,NA,NA,completion,8678.2000000001,692815.8,692813.6,692830.2,701508.4,701514.7,2024-05-26T10:59:55Z,701524.5,NULL,Annäherung,maegesho,s,madahili,kujiamini,mapendekezo,NA,qt,NA,3,NA,NA,NA,NA,NA,NA,NA,NA,NA,NA,NA,NA,NA,NA,NA,NA,NA,NA,NA
fae62,deep,flow.Sequence,3_0_3_0_7_0,NA,NA,skipped,NA,701514.7,NA,NA,701508.4,701514.7,2024-05-26T10:59:55Z,701524.5,NULL,Toleranz,kuvumiliana,s,maombolezo,ujasusi,mchekeshaji,NA,qt,NA,3,NA,NA,NA,NA,NA,NA,NA,NA,NA,NA,NA,NA,NA,NA,NA,NA,NA,NA,NA
fae62,Shallow Question,html.Page,3_0_3_0_7_1_0,NA,NA,form submission,3575.1999999997,701514.8,701508.4,701524.5,705099.7,705099.9,2024-05-26T10:59:58Z,705105.6,NULL,Toleranz,kuvumiliana,s,maombolezo,ujasusi,mchekeshaji,kuvumiliana,NA,NA,3,NA,NA,NA,NA,NA,NA,NA,NA,NA,NA,NA,NA,NA,NA,NA,NA,NA,NA,NA
fae62,"""Richtig""-Screen",canvas.Screen,3_0_3_0_7_1_1,NA,NA,timeout,4997.1,705102.8,705089.746,705105.6,710086.1,710087,2024-05-26T11:00:03Z,710102.7,NULL,Toleranz,kuvumiliana,s,maombolezo,ujasusi,mchekeshaji,NA,qt,1,3,NA,NA,NA,NA,NA,NA,NA,NA,NA,NA,NA,NA,NA,NA,NA,NA,NA,NA,NA
fae62,"""Falsch""-Screen",canvas.Screen,3_0_3_0_7_1_2,NA,NA,skipped,NA,710092.2,NA,NA,710086.1,710092.4,2024-05-26T11:00:03Z,710102.7,NULL,Toleranz,kuvumiliana,s,maombolezo,ujasusi,mchekeshaji,NA,qt,NA,3,NA,NA,NA,NA,NA,NA,NA,NA,NA,NA,NA,NA,NA,NA,NA,NA,NA,NA,NA
fae62,shallow,flow.Sequence,3_0_3_0_7_1,NA,NA,completion,8561.6,701514.7,701508.4,701524.5,710086.1,710092.6,2024-05-26T11:00:03Z,710102.7,NULL,Toleranz,kuvumiliana,s,maombolezo,ujasusi,mchekeshaji,NA,qt,NA,3,NA,NA,NA,NA,NA,NA,NA,NA,NA,NA,NA,NA,NA,NA,NA,NA,NA,NA,NA
fae62,task,flow.Sequence,3_0_3_0_7,NA,NA,completion,8561.6,701514.7,701508.4,701524.5,710086.1,710092.6,2024-05-26T11:00:03Z,710102.7,NULL,Toleranz,kuvumiliana,s,maombolezo,ujasusi,mchekeshaji,NA,qt,NA,3,NA,NA,NA,NA,NA,NA,NA,NA,NA,NA,NA,NA,NA,NA,NA,NA,NA,NA,NA
fae62,block,flow.Loop,3_0_3_0,NA,NA,completion,95641.4,614417,614428.2,614444.7,710086.1,710092.7,2024-05-26T11:00:03Z,710102.7,NULL,NA,NA,NA,NA,NA,NA,NA,qt,NA,3,NA,NA,NA,NA,NA,NA,NA,NA,NA,NA,NA,NA,NA,NA,NA,NA,NA,NA,NA
fae62,weiter,canvas.Screen,3_0_3_1,sdf,keypress(Space),response,1174.3,710092.7,710086.1,710102.7,711277,711278,2024-05-26T11:00:05Z,711601.6,NULL,NA,NA,NA,NA,NA,NA,NA,qt,NA,3,NA,NA,NA,NA,NA,NA,NA,NA,NA,NA,NA,NA,NA,NA,NA,NA,NA,NA,NA
fae62,check continue,flow.Sequence,3_0_3,NA,NA,completion,96832.3,614416.9,614428.2,614444.7,711277,711278.4,2024-05-26T11:00:05Z,711601.6,NULL,NA,NA,NA,NA,NA,NA,NA,qt,NA,3,NA,NA,NA,NA,NA,NA,NA,NA,NA,NA,NA,NA,NA,NA,NA,NA,NA,NA,NA
fae62,check continue,flow.Sequence,3_0_4,NA,NA,skipped,NA,711296.3,NA,NA,711277,711296.4,2024-05-26T11:00:05Z,711601.6,NULL,NA,NA,NA,NA,NA,NA,NA,sd,NA,4,NA,NA,NA,NA,NA,NA,NA,NA,NA,NA,NA,NA,NA,NA,NA,NA,NA,NA,NA
fae62,check continue,flow.Sequence,3_0_5,NA,NA,skipped,NA,711310.2,NA,NA,711277,711310.4,2024-05-26T11:00:05Z,711601.6,NULL,NA,NA,NA,NA,NA,NA,NA,sdf,NA,5,NA,NA,NA,NA,NA,NA,NA,NA,NA,NA,NA,NA,NA,NA,NA,NA,NA,NA,NA
fae62,check continue,flow.Sequence,3_0_6,NA,NA,skipped,NA,711324,NA,NA,711277,711324,2024-05-26T11:00:05Z,711601.6,NULL,NA,NA,NA,NA,NA,NA,NA,dfs,NA,6,NA,NA,NA,NA,NA,NA,NA,NA,NA,NA,NA,NA,NA,NA,NA,NA,NA,NA,NA
fae62,check continue,flow.Sequence,3_0_7,NA,NA,skipped,NA,711337.3,NA,NA,711277,711337.4,2024-05-26T11:00:05Z,711601.6,NULL,NA,NA,NA,NA,NA,NA,NA,df,NA,7,NA,NA,NA,NA,NA,NA,NA,NA,NA,NA,NA,NA,NA,NA,NA,NA,NA,NA,NA
fae62,check continue,flow.Sequence,3_0_8,NA,NA,skipped,NA,711349.6,NA,NA,711277,711349.8,2024-05-26T11:00:05Z,711601.6,NULL,NA,NA,NA,NA,NA,NA,NA,dfs,NA,8,NA,NA,NA,NA,NA,NA,NA,NA,NA,NA,NA,NA,NA,NA,NA,NA,NA,NA,NA
fae62,check continue,flow.Sequence,3_0_9,NA,NA,skipped,NA,711361,NA,NA,711277,711361.1,2024-05-26T11:00:05Z,711601.6,NULL,NA,NA,NA,NA,NA,NA,NA,dsf,NA,9,NA,NA,NA,NA,NA,NA,NA,NA,NA,NA,NA,NA,NA,NA,NA,NA,NA,NA,NA
fae62,check continue,flow.Sequence,3_0_10,NA,NA,skipped,NA,711372.7,NA,NA,711277,711372.8,2024-05-26T11:00:05Z,711601.6,NULL,NA,NA,NA,NA,NA,NA,NA,df,NA,10,NA,NA,NA,NA,NA,NA,NA,NA,NA,NA,NA,NA,NA,NA,NA,NA,NA,NA,NA
fae62,check continue,flow.Sequence,3_0_11,NA,NA,skipped,NA,711386,NA,NA,711277,711386.1,2024-05-26T11:00:05Z,711601.6,NULL,NA,NA,NA,NA,NA,NA,NA,dfs,NA,11,NA,NA,NA,NA,NA,NA,NA,NA,NA,NA,NA,NA,NA,NA,NA,NA,NA,NA,NA
fae62,check continue,flow.Sequence,3_0_12,NA,NA,skipped,NA,711399.6,NA,NA,711277,711399.8,2024-05-26T11:00:05Z,711601.6,NULL,NA,NA,NA,NA,NA,NA,NA,dsf,NA,12,NA,NA,NA,NA,NA,NA,NA,NA,NA,NA,NA,NA,NA,NA,NA,NA,NA,NA,NA
fae62,check continue,flow.Sequence,3_0_13,NA,NA,skipped,NA,711411.6,NA,NA,711277,711411.7,2024-05-26T11:00:05Z,711601.6,NULL,NA,NA,NA,NA,NA,NA,NA,dsf,NA,13,NA,NA,NA,NA,NA,NA,NA,NA,NA,NA,NA,NA,NA,NA,NA,NA,NA,NA,NA
fae62,check continue,flow.Sequence,3_0_14,NA,NA,skipped,NA,711423.2,NA,NA,711277,711423.4,2024-05-26T11:00:05Z,711601.6,NULL,NA,NA,NA,NA,NA,NA,NA,NA,NA,14,NA,NA,NA,NA,NA,NA,NA,NA,NA,NA,NA,NA,NA,NA,NA,NA,NA,NA,NA
fae62,check continue,flow.Sequence,3_0_15,NA,NA,skipped,NA,711434.1,NA,NA,711277,711434.1,2024-05-26T11:00:05Z,711601.6,NULL,NA,NA,NA,NA,NA,NA,NA,NA,NA,15,NA,NA,NA,NA,NA,NA,NA,NA,NA,NA,NA,NA,NA,NA,NA,NA,NA,NA,NA
fae62,check continue,flow.Sequence,3_0_16,NA,NA,skipped,NA,711444.4,NA,NA,711277,711444.5,2024-05-26T11:00:05Z,711601.6,NULL,NA,NA,NA,NA,NA,NA,NA,NA,NA,16,NA,NA,NA,NA,NA,NA,NA,NA,NA,NA,NA,NA,NA,NA,NA,NA,NA,NA,NA
fae62,check continue,flow.Sequence,3_0_17,NA,NA,skipped,NA,711455.6,NA,NA,711277,711455.6,2024-05-26T11:00:05Z,711601.6,NULL,NA,NA,NA,NA,NA,NA,NA,NA,NA,17,NA,NA,NA,NA,NA,NA,NA,NA,NA,NA,NA,NA,NA,NA,NA,NA,NA,NA,NA
fae62,check continue,flow.Sequence,3_0_18,NA,NA,skipped,NA,711467,NA,NA,711277,711467,2024-05-26T11:00:05Z,711601.6,NULL,NA,NA,NA,NA,NA,NA,NA,NA,NA,18,NA,NA,NA,NA,NA,NA,NA,NA,NA,NA,NA,NA,NA,NA,NA,NA,NA,NA,NA
fae62,check continue,flow.Sequence,3_0_19,NA,NA,skipped,NA,711478.6,NA,NA,711277,711478.6,2024-05-26T11:00:05Z,711601.6,NULL,NA,NA,NA,NA,NA,NA,NA,NA,NA,19,NA,NA,NA,NA,NA,NA,NA,NA,NA,NA,NA,NA,NA,NA,NA,NA,NA,NA,NA
fae62,check continue,flow.Sequence,3_0_20,NA,NA,skipped,NA,711490.3,NA,NA,711277,711490.3,2024-05-26T11:00:05Z,711601.6,NULL,NA,NA,NA,NA,NA,NA,NA,NA,NA,20,NA,NA,NA,NA,NA,NA,NA,NA,NA,NA,NA,NA,NA,NA,NA,NA,NA,NA,NA
fae62,check continue,flow.Sequence,3_0_21,NA,NA,skipped,NA,711501.6,NA,NA,711277,711501.6,2024-05-26T11:00:05Z,711601.6,NULL,NA,NA,NA,NA,NA,NA,NA,NA,NA,21,NA,NA,NA,NA,NA,NA,NA,NA,NA,NA,NA,NA,NA,NA,NA,NA,NA,NA,NA
fae62,check continue,flow.Sequence,3_0_22,NA,NA,skipped,NA,711514,NA,NA,711277,711514.1,2024-05-26T11:00:05Z,711601.6,NULL,NA,NA,NA,NA,NA,NA,NA,NA,NA,22,NA,NA,NA,NA,NA,NA,NA,NA,NA,NA,NA,NA,NA,NA,NA,NA,NA,NA,NA
fae62,check continue,flow.Sequence,3_0_23,NA,NA,skipped,NA,711524,NA,NA,711277,711524.1,2024-05-26T11:00:05Z,711601.6,NULL,NA,NA,NA,NA,NA,NA,NA,NA,NA,23,NA,NA,NA,NA,NA,NA,NA,NA,NA,NA,NA,NA,NA,NA,NA,NA,NA,NA,NA
fae62,check continue,flow.Sequence,3_0_24,NA,NA,skipped,NA,711535.6,NA,NA,711277,711535.7,2024-05-26T11:00:05Z,711601.6,NULL,NA,NA,NA,NA,NA,NA,NA,NA,NA,24,NA,NA,NA,NA,NA,NA,NA,NA,NA,NA,NA,NA,NA,NA,NA,NA,NA,NA,NA
fae62,check continue,flow.Sequence,3_0_25,NA,NA,skipped,NA,711545.7,NA,NA,711277,711545.7,2024-05-26T11:00:05Z,711601.6,NULL,NA,NA,NA,NA,NA,NA,NA,NA,NA,25,NA,NA,NA,NA,NA,NA,NA,NA,NA,NA,NA,NA,NA,NA,NA,NA,NA,NA,NA
fae62,check continue,flow.Sequence,3_0_26,NA,NA,skipped,NA,711556.5,NA,NA,711277,711556.6,2024-05-26T11:00:05Z,711601.6,NULL,NA,NA,NA,NA,NA,NA,NA,NA,NA,26,NA,NA,NA,NA,NA,NA,NA,NA,NA,NA,NA,NA,NA,NA,NA,NA,NA,NA,NA
fae62,check continue,flow.Sequence,3_0_27,NA,NA,skipped,NA,711566.4,NA,NA,711277,711566.5,2024-05-26T11:00:05Z,711601.6,NULL,NA,NA,NA,NA,NA,NA,NA,NA,NA,27,NA,NA,NA,NA,NA,NA,NA,NA,NA,NA,NA,NA,NA,NA,NA,NA,NA,NA,NA
fae62,check continue,flow.Sequence,3_0_28,NA,NA,skipped,NA,711576.4,NA,NA,711277,711576.4,2024-05-26T11:00:05Z,711601.6,NULL,NA,NA,NA,NA,NA,NA,NA,NA,NA,28,NA,NA,NA,NA,NA,NA,NA,NA,NA,NA,NA,NA,NA,NA,NA,NA,NA,NA,NA
fae62,check continue,flow.Sequence,3_0_29,NA,NA,skipped,NA,711593.8,NA,NA,711277,711593.8,2024-05-26T11:00:05Z,711601.6,NULL,NA,NA,NA,NA,NA,NA,NA,NA,NA,29,NA,NA,NA,NA,NA,NA,NA,NA,NA,NA,NA,NA,NA,NA,NA,NA,NA,NA,NA
fae62,until continue,flow.Loop,3_0,NA,NA,completion,509464.5,201790.5,201801.744,201812.5,711277,711594,2024-05-26T11:00:05Z,711601.6,NULL,NA,NA,NA,NA,NA,NA,NA,NA,NA,NA,NA,NA,NA,NA,NA,NA,NA,NA,NA,NA,NA,NA,NA,NA,NA,NA,NA,NA,NA
fae62,block 1,flow.Sequence,3,NA,NA,completion,509464.5,201790.4,201801.744,201812.5,711277,711594.2,2024-05-26T11:00:05Z,711601.6,NULL,NA,NA,NA,NA,NA,NA,NA,NA,NA,NA,NA,NA,NA,NA,NA,NA,NA,NA,NA,NA,NA,NA,NA,NA,NA,NA,NA,NA,NA
fae62,1.Part Over,canvas.Screen,4,NA,keypress(Space),response,2318.2999999999,711594.2,711585.866,711601.6,713919.9,713920.7,2024-05-26T11:00:07Z,713967,NULL,NA,NA,NA,NA,NA,NA,NA,NA,NA,NA,NA,NA,NA,NA,NA,NA,NA,NA,NA,NA,NA,NA,NA,NA,NA,NA,NA,NA,NA
fae62,Deep Question,html.Page,5_0_0_0_0_0_0,NA,NA,form submission,10633.1,713961.6,713952.4,713967,724600.1,724600.4,2024-05-26T11:00:18Z,724610.5,NULL,Wettbewerb,ushindani,d,NA,NA,NA,fghfhf,NA,NA,0,NA,NA,NA,NA,NA,NA,NA,NA,NA,NA,NA,NA,NA,NA,NA,NA,NA,NA,NA
fae62,"""Richtig""-Screen",canvas.Screen,5_0_0_0_0_0_1,NA,NA,skipped,NA,724603.8,NA,NA,724600.1,724604,2024-05-26T11:00:18Z,724610.5,NULL,Wettbewerb,ushindani,d,NA,NA,NA,NA,sdf,NA,0,NA,NA,NA,NA,NA,NA,NA,NA,NA,NA,NA,NA,NA,NA,NA,NA,NA,NA,NA
fae62,"""Falsch""-Screen",canvas.Screen,5_0_0_0_0_0_2,NA,NA,timeout,4996.8,724604.7,724595.536,724610.5,729590.7,729591.7,2024-05-26T11:00:23Z,729607.3,NULL,Wettbewerb,ushindani,d,NA,NA,NA,NA,sdf,0,0,NA,NA,NA,NA,NA,NA,NA,NA,NA,NA,NA,NA,NA,NA,NA,NA,NA,NA,NA
fae62,deep,flow.Sequence,5_0_0_0_0_0,NA,NA,completion,15623.7,713961.6,713952.4,713967,729590.7,729592.1,2024-05-26T11:00:23Z,729607.3,NULL,Wettbewerb,ushindani,d,NA,NA,NA,NA,sdf,NA,0,NA,NA,NA,NA,NA,NA,NA,NA,NA,NA,NA,NA,NA,NA,NA,NA,NA,NA,NA
fae62,shallow,flow.Sequence,5_0_0_0_0_1,NA,NA,skipped,NA,729592.4,NA,NA,729590.7,729592.5,2024-05-26T11:00:23Z,729607.3,NULL,Wettbewerb,ushindani,d,NA,NA,NA,NA,sdf,NA,0,NA,NA,NA,NA,NA,NA,NA,NA,NA,NA,NA,NA,NA,NA,NA,NA,NA,NA,NA
fae62,task,flow.Sequence,5_0_0_0_0,NA,NA,completion,15623.7,713961.6,713952.4,713967,729590.7,729592.7,2024-05-26T11:00:23Z,729607.3,NULL,Wettbewerb,ushindani,d,NA,NA,NA,NA,sdf,NA,0,NA,NA,NA,NA,NA,NA,NA,NA,NA,NA,NA,NA,NA,NA,NA,NA,NA,NA,NA
fae62,Deep Question,html.Page,5_0_0_0_1_0_0,NA,NA,form submission,10059.3,729592.9,729590.7,729607.3,739666.6,739666.8,2024-05-26T11:00:33Z,739668.986,NULL,Hoffnung,matarajio,d,NA,NA,NA,hg,NA,NA,0,NA,NA,NA,NA,NA,NA,NA,NA,NA,NA,NA,NA,NA,NA,NA,NA,NA,NA,NA
fae62,"""Richtig""-Screen",canvas.Screen,5_0_0_0_1_0_1,NA,NA,skipped,NA,739669.2,NA,NA,739666.6,739669.3,2024-05-26T11:00:33Z,739668.986,NULL,Hoffnung,matarajio,d,NA,NA,NA,NA,sdf,NA,0,NA,NA,NA,NA,NA,NA,NA,NA,NA,NA,NA,NA,NA,NA,NA,NA,NA,NA,NA
fae62,"""Falsch""-Screen",canvas.Screen,5_0_0_0_1_0_2,NA,NA,timeout,4996.1139999999,739669.9,739668.986,739668.986,744648.2,744649.2,2024-05-26T11:00:38Z,744665.1,NULL,Hoffnung,matarajio,d,NA,NA,NA,NA,sdf,0,0,NA,NA,NA,NA,NA,NA,NA,NA,NA,NA,NA,NA,NA,NA,NA,NA,NA,NA,NA
fae62,deep,flow.Sequence,5_0_0_0_1_0,NA,NA,completion,15040.9,729592.9,729590.7,729607.3,744648.2,744649.5,2024-05-26T11:00:38Z,744665.1,NULL,Hoffnung,matarajio,d,NA,NA,NA,NA,sdf,NA,0,NA,NA,NA,NA,NA,NA,NA,NA,NA,NA,NA,NA,NA,NA,NA,NA,NA,NA,NA
fae62,shallow,flow.Sequence,5_0_0_0_1_1,NA,NA,skipped,NA,744649.7,NA,NA,744648.2,744649.8,2024-05-26T11:00:38Z,744665.1,NULL,Hoffnung,matarajio,d,NA,NA,NA,NA,sdf,NA,0,NA,NA,NA,NA,NA,NA,NA,NA,NA,NA,NA,NA,NA,NA,NA,NA,NA,NA,NA
fae62,task,flow.Sequence,5_0_0_0_1,NA,NA,completion,15040.9,729592.8,729590.7,729607.3,744648.2,744650,2024-05-26T11:00:38Z,744665.1,NULL,Hoffnung,matarajio,d,NA,NA,NA,NA,sdf,NA,0,NA,NA,NA,NA,NA,NA,NA,NA,NA,NA,NA,NA,NA,NA,NA,NA,NA,NA,NA
fae62,Deep Question,html.Page,5_0_0_0_2_0_0,NA,NA,form submission,10981,744650.2,744648.2,744665.1,755646.1,755646.3,2024-05-26T11:00:49Z,755658.1,NULL,Verpackung,ufungaji,d,NA,NA,NA,jhg,NA,NA,0,NA,NA,NA,NA,NA,NA,NA,NA,NA,NA,NA,NA,NA,NA,NA,NA,NA,NA,NA
fae62,"""Richtig""-Screen",canvas.Screen,5_0_0_0_2_0_1,NA,NA,skipped,NA,755649.5,NA,NA,755646.1,755649.6,2024-05-26T11:00:49Z,755658.1,NULL,Verpackung,ufungaji,d,NA,NA,NA,NA,sdf,NA,0,NA,NA,NA,NA,NA,NA,NA,NA,NA,NA,NA,NA,NA,NA,NA,NA,NA,NA,NA
fae62,"""Falsch""-Screen",canvas.Screen,5_0_0_0_2_0_2,NA,NA,timeout,4997.4,755650.3,755643.212,755658.1,760638.6,760639.6,2024-05-26T11:00:54Z,760655.5,NULL,Verpackung,ufungaji,d,NA,NA,NA,NA,sdf,0,0,NA,NA,NA,NA,NA,NA,NA,NA,NA,NA,NA,NA,NA,NA,NA,NA,NA,NA,NA
fae62,deep,flow.Sequence,5_0_0_0_2_0,NA,NA,completion,15973.5,744650.1,744648.2,744665.1,760638.6,760640,2024-05-26T11:00:54Z,760655.5,NULL,Verpackung,ufungaji,d,NA,NA,NA,NA,sdf,NA,0,NA,NA,NA,NA,NA,NA,NA,NA,NA,NA,NA,NA,NA,NA,NA,NA,NA,NA,NA
fae62,shallow,flow.Sequence,5_0_0_0_2_1,NA,NA,skipped,NA,760640.2,NA,NA,760638.6,760640.3,2024-05-26T11:00:54Z,760655.5,NULL,Verpackung,ufungaji,d,NA,NA,NA,NA,sdf,NA,0,NA,NA,NA,NA,NA,NA,NA,NA,NA,NA,NA,NA,NA,NA,NA,NA,NA,NA,NA
fae62,task,flow.Sequence,5_0_0_0_2,NA,NA,completion,15973.5,744650,744648.2,744665.1,760638.6,760640.4,2024-05-26T11:00:54Z,760655.5,NULL,Verpackung,ufungaji,d,NA,NA,NA,NA,sdf,NA,0,NA,NA,NA,NA,NA,NA,NA,NA,NA,NA,NA,NA,NA,NA,NA,NA,NA,NA,NA
fae62,deep,flow.Sequence,5_0_0_0_3_0,NA,NA,skipped,NA,760640.6,NA,NA,760638.6,760640.7,2024-05-26T11:00:54Z,760655.5,NULL,Schönheit,kirembo,s,mahojiano,msisimko,jitihadi,NA,sdf,NA,0,NA,NA,NA,NA,NA,NA,NA,NA,NA,NA,NA,NA,NA,NA,NA,NA,NA,NA,NA
fae62,Shallow Question,html.Page,5_0_0_0_3_1_0,NA,NA,form submission,4411.1000000001,760640.8,760638.6,760655.5,765066.6,765066.9,2024-05-26T11:00:58Z,765070.22,NULL,Schönheit,kirembo,s,mahojiano,msisimko,jitihadi,msisimko,NA,NA,0,NA,NA,NA,NA,NA,NA,NA,NA,NA,NA,NA,NA,NA,NA,NA,NA,NA,NA,NA
fae62,"""Richtig""-Screen",canvas.Screen,5_0_0_0_3_1_1,NA,NA,skipped,NA,765070.1,NA,NA,765066.6,765070.2,2024-05-26T11:00:58Z,765070.22,NULL,Schönheit,kirembo,s,mahojiano,msisimko,jitihadi,NA,sdf,NA,0,NA,NA,NA,NA,NA,NA,NA,NA,NA,NA,NA,NA,NA,NA,NA,NA,NA,NA,NA
fae62,"""Falsch""-Screen",canvas.Screen,5_0_0_0_3_1_2,NA,NA,timeout,4996.38,765071.2,765070.22,765070.22,770049.6,770050.7,2024-05-26T11:01:03Z,770066.6,NULL,Schönheit,kirembo,s,mahojiano,msisimko,jitihadi,NA,sdf,0,0,NA,NA,NA,NA,NA,NA,NA,NA,NA,NA,NA,NA,NA,NA,NA,NA,NA,NA,NA
fae62,shallow,flow.Sequence,5_0_0_0_3_1,NA,NA,completion,9394.1,760640.8,760638.6,760655.5,770049.6,770051,2024-05-26T11:01:03Z,770066.6,NULL,Schönheit,kirembo,s,mahojiano,msisimko,jitihadi,NA,sdf,NA,0,NA,NA,NA,NA,NA,NA,NA,NA,NA,NA,NA,NA,NA,NA,NA,NA,NA,NA,NA
fae62,task,flow.Sequence,5_0_0_0_3,NA,NA,completion,9394.1,760640.6,760638.6,760655.5,770049.6,770051.3,2024-05-26T11:01:03Z,770066.6,NULL,Schönheit,kirembo,s,mahojiano,msisimko,jitihadi,NA,sdf,NA,0,NA,NA,NA,NA,NA,NA,NA,NA,NA,NA,NA,NA,NA,NA,NA,NA,NA,NA,NA
fae62,Deep Question,html.Page,5_0_0_0_4_0_0,NA,NA,form submission,2985.0999999997,770051.5,770049.6,770066.6,773051.7,773052,2024-05-26T11:01:06Z,773064.2,NULL,Auftrag,uagizaji,d,NA,NA,NA,hg,NA,NA,0,NA,NA,NA,NA,NA,NA,NA,NA,NA,NA,NA,NA,NA,NA,NA,NA,NA,NA,NA
fae62,"""Richtig""-Screen",canvas.Screen,5_0_0_0_4_0_1,NA,NA,skipped,NA,773055,NA,NA,773051.7,773055.2,2024-05-26T11:01:06Z,773064.2,NULL,Auftrag,uagizaji,d,NA,NA,NA,NA,sdf,NA,0,NA,NA,NA,NA,NA,NA,NA,NA,NA,NA,NA,NA,NA,NA,NA,NA,NA,NA,NA
fae62,"""Falsch""-Screen",canvas.Screen,5_0_0_0_4_0_2,NA,NA,timeout,4997.3,773056,773047.902,773064.2,778044.7,778045.6,2024-05-26T11:01:11Z,778061.5,NULL,Auftrag,uagizaji,d,NA,NA,NA,NA,sdf,0,0,NA,NA,NA,NA,NA,NA,NA,NA,NA,NA,NA,NA,NA,NA,NA,NA,NA,NA,NA
fae62,deep,flow.Sequence,5_0_0_0_4_0,NA,NA,completion,7978.1,770051.5,770049.6,770066.6,778044.7,778046,2024-05-26T11:01:11Z,778061.5,NULL,Auftrag,uagizaji,d,NA,NA,NA,NA,sdf,NA,0,NA,NA,NA,NA,NA,NA,NA,NA,NA,NA,NA,NA,NA,NA,NA,NA,NA,NA,NA
fae62,shallow,flow.Sequence,5_0_0_0_4_1,NA,NA,skipped,NA,778046.1,NA,NA,778044.7,778046.3,2024-05-26T11:01:11Z,778061.5,NULL,Auftrag,uagizaji,d,NA,NA,NA,NA,sdf,NA,0,NA,NA,NA,NA,NA,NA,NA,NA,NA,NA,NA,NA,NA,NA,NA,NA,NA,NA,NA
fae62,task,flow.Sequence,5_0_0_0_4,NA,NA,completion,7978.1,770051.5,770049.6,770066.6,778044.7,778046.4,2024-05-26T11:01:11Z,778061.5,NULL,Auftrag,uagizaji,d,NA,NA,NA,NA,sdf,NA,0,NA,NA,NA,NA,NA,NA,NA,NA,NA,NA,NA,NA,NA,NA,NA,NA,NA,NA,NA
fae62,deep,flow.Sequence,5_0_0_0_5_0,NA,NA,skipped,NA,778046.6,NA,NA,778044.7,778046.7,2024-05-26T11:01:11Z,778061.5,NULL,Schock,mshtuko,s,biashara,kukataza,vichekesho,NA,sdf,NA,0,NA,NA,NA,NA,NA,NA,NA,NA,NA,NA,NA,NA,NA,NA,NA,NA,NA,NA,NA
fae62,Shallow Question,html.Page,5_0_0_0_5_1_0,NA,NA,form submission,4989.1999999997,778046.8,778044.7,778061.5,783050.7,783050.8,2024-05-26T11:01:16Z,783058,NULL,Schock,mshtuko,s,biashara,kukataza,vichekesho,mshtuko,NA,NA,0,NA,NA,NA,NA,NA,NA,NA,NA,NA,NA,NA,NA,NA,NA,NA,NA,NA,NA,NA
fae62,"""Richtig""-Screen",canvas.Screen,5_0_0_0_5_1_1,NA,NA,timeout,4997.4,783054.1,783042.4,783058,788038.4,788039.4,2024-05-26T11:01:21Z,788055.4,NULL,Schock,mshtuko,s,biashara,kukataza,vichekesho,NA,sdf,1,0,NA,NA,NA,NA,NA,NA,NA,NA,NA,NA,NA,NA,NA,NA,NA,NA,NA,NA,NA
fae62,"""Falsch""-Screen",canvas.Screen,5_0_0_0_5_1_2,NA,NA,skipped,NA,788044.3,NA,NA,788038.4,788044.4,2024-05-26T11:01:21Z,788055.4,NULL,Schock,mshtuko,s,biashara,kukataza,vichekesho,NA,sdf,NA,0,NA,NA,NA,NA,NA,NA,NA,NA,NA,NA,NA,NA,NA,NA,NA,NA,NA,NA,NA
fae62,shallow,flow.Sequence,5_0_0_0_5_1,NA,NA,completion,9976.9,778046.7,778044.7,778061.5,788038.4,788044.5,2024-05-26T11:01:21Z,788055.4,NULL,Schock,mshtuko,s,biashara,kukataza,vichekesho,NA,sdf,NA,0,NA,NA,NA,NA,NA,NA,NA,NA,NA,NA,NA,NA,NA,NA,NA,NA,NA,NA,NA
fae62,task,flow.Sequence,5_0_0_0_5,NA,NA,completion,9976.9,778046.5,778044.7,778061.5,788038.4,788044.5,2024-05-26T11:01:21Z,788055.4,NULL,Schock,mshtuko,s,biashara,kukataza,vichekesho,NA,sdf,NA,0,NA,NA,NA,NA,NA,NA,NA,NA,NA,NA,NA,NA,NA,NA,NA,NA,NA,NA,NA
fae62,deep,flow.Sequence,5_0_0_0_6_0,NA,NA,skipped,NA,788044.5,NA,NA,788038.4,788044.6,2024-05-26T11:01:21Z,788055.4,NULL,Theorie,nadharia,s,ushungi,mkutano,uwakilishi,NA,sdf,NA,0,NA,NA,NA,NA,NA,NA,NA,NA,NA,NA,NA,NA,NA,NA,NA,NA,NA,NA,NA
fae62,Shallow Question,html.Page,5_0_0_0_6_1_0,NA,NA,form submission,4603.7000000001,788044.6,788038.4,788055.4,792659.1,792659.3,2024-05-26T11:01:26Z,792668.9,NULL,Theorie,nadharia,s,ushungi,mkutano,uwakilishi,mkutano,NA,NA,0,NA,NA,NA,NA,NA,NA,NA,NA,NA,NA,NA,NA,NA,NA,NA,NA,NA,NA,NA
fae62,"""Richtig""-Screen",canvas.Screen,5_0_0_0_6_1_1,NA,NA,skipped,NA,792662.2,NA,NA,792659.1,792662.3,2024-05-26T11:01:26Z,792668.9,NULL,Theorie,nadharia,s,ushungi,mkutano,uwakilishi,NA,sdf,NA,0,NA,NA,NA,NA,NA,NA,NA,NA,NA,NA,NA,NA,NA,NA,NA,NA,NA,NA,NA
fae62,"""Falsch""-Screen",canvas.Screen,5_0_0_0_6_1_2,NA,NA,timeout,4997,792663.1,792652.974,792668.9,797649.5,797650.5,2024-05-26T11:01:31Z,797665.9,NULL,Theorie,nadharia,s,ushungi,mkutano,uwakilishi,NA,sdf,0,0,NA,NA,NA,NA,NA,NA,NA,NA,NA,NA,NA,NA,NA,NA,NA,NA,NA,NA,NA
fae62,shallow,flow.Sequence,5_0_0_0_6_1,NA,NA,completion,9594.1,788044.6,788038.4,788055.4,797649.5,797651,2024-05-26T11:01:31Z,797665.9,NULL,Theorie,nadharia,s,ushungi,mkutano,uwakilishi,NA,sdf,NA,0,NA,NA,NA,NA,NA,NA,NA,NA,NA,NA,NA,NA,NA,NA,NA,NA,NA,NA,NA
fae62,task,flow.Sequence,5_0_0_0_6,NA,NA,completion,9594.1,788044.5,788038.4,788055.4,797649.5,797651.2,2024-05-26T11:01:31Z,797665.9,NULL,Theorie,nadharia,s,ushungi,mkutano,uwakilishi,NA,sdf,NA,0,NA,NA,NA,NA,NA,NA,NA,NA,NA,NA,NA,NA,NA,NA,NA,NA,NA,NA,NA
fae62,deep,flow.Sequence,5_0_0_0_7_0,NA,NA,skipped,NA,797651.4,NA,NA,797649.5,797651.5,2024-05-26T11:01:31Z,797665.9,NULL,Zufall,kikuti,s,kukosekana,uchoraji,leseni,NA,sdf,NA,0,NA,NA,NA,NA,NA,NA,NA,NA,NA,NA,NA,NA,NA,NA,NA,NA,NA,NA,NA
fae62,Shallow Question,html.Page,5_0_0_0_7_1_0,NA,NA,form submission,10402.7,797651.7,797649.5,797665.9,808068.6,808068.9,2024-05-26T11:01:41Z,808076.3,NULL,Zufall,kikuti,s,kukosekana,uchoraji,leseni,kikuti,NA,NA,0,NA,NA,NA,NA,NA,NA,NA,NA,NA,NA,NA,NA,NA,NA,NA,NA,NA,NA,NA
fae62,"""Richtig""-Screen",canvas.Screen,5_0_0_0_7_1_1,NA,NA,timeout,4997.2,808072,808060.5,808076.3,813056.7,813057.7,2024-05-26T11:01:46Z,813073.5,NULL,Zufall,kikuti,s,kukosekana,uchoraji,leseni,NA,sdf,1,0,NA,NA,NA,NA,NA,NA,NA,NA,NA,NA,NA,NA,NA,NA,NA,NA,NA,NA,NA
fae62,"""Falsch""-Screen",canvas.Screen,5_0_0_0_7_1_2,NA,NA,skipped,NA,813062.2,NA,NA,813056.7,813062.4,2024-05-26T11:01:46Z,813073.5,NULL,Zufall,kikuti,s,kukosekana,uchoraji,leseni,NA,sdf,NA,0,NA,NA,NA,NA,NA,NA,NA,NA,NA,NA,NA,NA,NA,NA,NA,NA,NA,NA,NA
fae62,shallow,flow.Sequence,5_0_0_0_7_1,NA,NA,completion,15390.8,797651.6,797649.5,797665.9,813056.7,813062.4,2024-05-26T11:01:46Z,813073.5,NULL,Zufall,kikuti,s,kukosekana,uchoraji,leseni,NA,sdf,NA,0,NA,NA,NA,NA,NA,NA,NA,NA,NA,NA,NA,NA,NA,NA,NA,NA,NA,NA,NA
fae62,task,flow.Sequence,5_0_0_0_7,NA,NA,completion,15390.8,797651.3,797649.5,797665.9,813056.7,813062.6,2024-05-26T11:01:46Z,813073.5,NULL,Zufall,kikuti,s,kukosekana,uchoraji,leseni,NA,sdf,NA,0,NA,NA,NA,NA,NA,NA,NA,NA,NA,NA,NA,NA,NA,NA,NA,NA,NA,NA,NA
fae62,block,flow.Loop,5_0_0_0,NA,NA,completion,99089.7,713961.6,713952.4,713967,813056.7,813062.6,2024-05-26T11:01:46Z,813073.5,NULL,NA,NA,NA,NA,NA,NA,NA,sdf,NA,0,NA,NA,NA,NA,NA,NA,NA,NA,NA,NA,NA,NA,NA,NA,NA,NA,NA,NA,NA
fae62,weiter,canvas.Screen,5_0_0_1,sdf,keypress(Space),response,2040.8999999999,813062.7,813056.7,813073.5,815114.4,815116.2,2024-05-26T11:01:48Z,815155.3,NULL,NA,NA,NA,NA,NA,NA,NA,sdf,NA,0,NA,NA,NA,NA,NA,NA,NA,NA,NA,NA,NA,NA,NA,NA,NA,NA,NA,NA,NA
fae62,check continue,flow.Sequence,5_0_0,NA,NA,completion,101147.4,713961.5,713952.4,713967,815114.4,815116.6,2024-05-26T11:01:48Z,815155.3,NULL,NA,NA,NA,NA,NA,NA,NA,sdf,NA,0,NA,NA,NA,NA,NA,NA,NA,NA,NA,NA,NA,NA,NA,NA,NA,NA,NA,NA,NA
fae62,Deep Question,html.Page,5_0_1_0_0_0_0,NA,NA,form submission,14379.1,815145.3,815140.084,815155.3,829534.4,829534.7,2024-05-26T11:02:03Z,829546.3,NULL,Auftrag,uagizaji,d,NA,NA,NA,ushingano,NA,NA,1,NA,NA,NA,NA,NA,NA,NA,NA,NA,NA,NA,NA,NA,NA,NA,NA,NA,NA,NA
fae62,"""Richtig""-Screen",canvas.Screen,5_0_1_0_0_0_1,NA,NA,skipped,NA,829537.7,NA,NA,829534.4,829537.9,2024-05-26T11:02:03Z,829546.3,NULL,Auftrag,uagizaji,d,NA,NA,NA,NA,sdfdsf,NA,1,NA,NA,NA,NA,NA,NA,NA,NA,NA,NA,NA,NA,NA,NA,NA,NA,NA,NA,NA
fae62,"""Falsch""-Screen",canvas.Screen,5_0_1_0_0_0_2,NA,NA,timeout,4997.3999999999,829538.8,829531.668,829546.3,834527,834527.9,2024-05-26T11:02:08Z,834543.7,NULL,Auftrag,uagizaji,d,NA,NA,NA,NA,sdfdsf,0,1,NA,NA,NA,NA,NA,NA,NA,NA,NA,NA,NA,NA,NA,NA,NA,NA,NA,NA,NA
fae62,deep,flow.Sequence,5_0_1_0_0_0,NA,NA,completion,19371.7,815145.3,815140.084,815155.3,834527,834528.3,2024-05-26T11:02:08Z,834543.7,NULL,Auftrag,uagizaji,d,NA,NA,NA,NA,sdfdsf,NA,1,NA,NA,NA,NA,NA,NA,NA,NA,NA,NA,NA,NA,NA,NA,NA,NA,NA,NA,NA
fae62,shallow,flow.Sequence,5_0_1_0_0_1,NA,NA,skipped,NA,834528.4,NA,NA,834527,834528.6,2024-05-26T11:02:08Z,834543.7,NULL,Auftrag,uagizaji,d,NA,NA,NA,NA,sdfdsf,NA,1,NA,NA,NA,NA,NA,NA,NA,NA,NA,NA,NA,NA,NA,NA,NA,NA,NA,NA,NA
fae62,task,flow.Sequence,5_0_1_0_0,NA,NA,completion,19371.7,815145.3,815140.084,815155.3,834527,834528.8,2024-05-26T11:02:08Z,834543.7,NULL,Auftrag,uagizaji,d,NA,NA,NA,NA,sdfdsf,NA,1,NA,NA,NA,NA,NA,NA,NA,NA,NA,NA,NA,NA,NA,NA,NA,NA,NA,NA,NA
fae62,Deep Question,html.Page,5_0_1_0_1_0_0,NA,NA,form submission,23118.7,834529,834527,834543.7,857662.4,857662.6,2024-05-26T11:02:31Z,857679.8,NULL,Verpackung,ufungaji,d,NA,NA,NA,jhg,NA,NA,1,NA,NA,NA,NA,NA,NA,NA,NA,NA,NA,NA,NA,NA,NA,NA,NA,NA,NA,NA
fae62,"""Richtig""-Screen",canvas.Screen,5_0_1_0_1_0_1,NA,NA,skipped,NA,857666,NA,NA,857662.4,857666.1,2024-05-26T11:02:31Z,857679.8,NULL,Verpackung,ufungaji,d,NA,NA,NA,NA,sdfdsf,NA,1,NA,NA,NA,NA,NA,NA,NA,NA,NA,NA,NA,NA,NA,NA,NA,NA,NA,NA,NA
fae62,"""Falsch""-Screen",canvas.Screen,5_0_1_0_1_0_2,NA,NA,timeout,4996.7999999999,857667,857663.982,857679.8,862659.8,862660.7,2024-05-26T11:02:36Z,862676.6,NULL,Verpackung,ufungaji,d,NA,NA,NA,NA,sdfdsf,0,1,NA,NA,NA,NA,NA,NA,NA,NA,NA,NA,NA,NA,NA,NA,NA,NA,NA,NA,NA
fae62,deep,flow.Sequence,5_0_1_0_1_0,NA,NA,completion,28116.1,834529,834527,834543.7,862659.8,862661.1,2024-05-26T11:02:36Z,862676.6,NULL,Verpackung,ufungaji,d,NA,NA,NA,NA,sdfdsf,NA,1,NA,NA,NA,NA,NA,NA,NA,NA,NA,NA,NA,NA,NA,NA,NA,NA,NA,NA,NA
fae62,shallow,flow.Sequence,5_0_1_0_1_1,NA,NA,skipped,NA,862661.2,NA,NA,862659.8,862661.3,2024-05-26T11:02:36Z,862676.6,NULL,Verpackung,ufungaji,d,NA,NA,NA,NA,sdfdsf,NA,1,NA,NA,NA,NA,NA,NA,NA,NA,NA,NA,NA,NA,NA,NA,NA,NA,NA,NA,NA
fae62,task,flow.Sequence,5_0_1_0_1,NA,NA,completion,28116.1,834528.9,834527,834543.7,862659.8,862661.5,2024-05-26T11:02:36Z,862676.6,NULL,Verpackung,ufungaji,d,NA,NA,NA,NA,sdfdsf,NA,1,NA,NA,NA,NA,NA,NA,NA,NA,NA,NA,NA,NA,NA,NA,NA,NA,NA,NA,NA
fae62,Deep Question,html.Page,5_0_1_0_2_0_0,NA,NA,form submission,31960.6,862661.7,862659.8,862676.6,894637.2,894637.5,2024-05-26T11:03:08Z,894640.816,NULL,Hoffnung,matarajio,d,NA,NA,NA,jh,NA,NA,1,NA,NA,NA,NA,NA,NA,NA,NA,NA,NA,NA,NA,NA,NA,NA,NA,NA,NA,NA
fae62,"""Richtig""-Screen",canvas.Screen,5_0_1_0_2_0_1,NA,NA,skipped,NA,894640.7,NA,NA,894637.2,894640.7,2024-05-26T11:03:08Z,894640.816,NULL,Hoffnung,matarajio,d,NA,NA,NA,NA,sdfdsf,NA,1,NA,NA,NA,NA,NA,NA,NA,NA,NA,NA,NA,NA,NA,NA,NA,NA,NA,NA,NA
fae62,"""Falsch""-Screen",canvas.Screen,5_0_1_0_2_0_2,NA,NA,timeout,4996.584,894641.5,894640.816,894640.816,899620.5,899621.5,2024-05-26T11:03:13Z,899637.4,NULL,Hoffnung,matarajio,d,NA,NA,NA,NA,sdfdsf,0,1,NA,NA,NA,NA,NA,NA,NA,NA,NA,NA,NA,NA,NA,NA,NA,NA,NA,NA,NA
fae62,deep,flow.Sequence,5_0_1_0_2_0,NA,NA,completion,36943.9,862661.7,862659.8,862676.6,899620.5,899621.8,2024-05-26T11:03:13Z,899637.4,NULL,Hoffnung,matarajio,d,NA,NA,NA,NA,sdfdsf,NA,1,NA,NA,NA,NA,NA,NA,NA,NA,NA,NA,NA,NA,NA,NA,NA,NA,NA,NA,NA
fae62,shallow,flow.Sequence,5_0_1_0_2_1,NA,NA,skipped,NA,899622,NA,NA,899620.5,899622.1,2024-05-26T11:03:13Z,899637.4,NULL,Hoffnung,matarajio,d,NA,NA,NA,NA,sdfdsf,NA,1,NA,NA,NA,NA,NA,NA,NA,NA,NA,NA,NA,NA,NA,NA,NA,NA,NA,NA,NA
fae62,task,flow.Sequence,5_0_1_0_2,NA,NA,completion,36943.9,862661.6,862659.8,862676.6,899620.5,899622.2,2024-05-26T11:03:13Z,899637.4,NULL,Hoffnung,matarajio,d,NA,NA,NA,NA,sdfdsf,NA,1,NA,NA,NA,NA,NA,NA,NA,NA,NA,NA,NA,NA,NA,NA,NA,NA,NA,NA,NA
fae62,Deep Question,html.Page,5_0_1_0_3_0_0,NA,NA,form submission,22977.9,899622.4,899620.5,899637.4,922615.3,922615.5,2024-05-26T11:03:36Z,922623,NULL,Wettbewerb,ushindani,d,NA,NA,NA,hj,NA,NA,1,NA,NA,NA,NA,NA,NA,NA,NA,NA,NA,NA,NA,NA,NA,NA,NA,NA,NA,NA
fae62,"""Richtig""-Screen",canvas.Screen,5_0_1_0_3_0_1,NA,NA,skipped,NA,922618.8,NA,NA,922615.3,922618.9,2024-05-26T11:03:36Z,922623,NULL,Wettbewerb,ushindani,d,NA,NA,NA,NA,sdfdsf,NA,1,NA,NA,NA,NA,NA,NA,NA,NA,NA,NA,NA,NA,NA,NA,NA,NA,NA,NA,NA
fae62,"""Falsch""-Screen",canvas.Screen,5_0_1_0_3_0_2,NA,NA,timeout,4997.3,922619.6,922607.66,922623,927603.6,927604.5,2024-05-26T11:03:41Z,927620.3,NULL,Wettbewerb,ushindani,d,NA,NA,NA,NA,sdfdsf,0,1,NA,NA,NA,NA,NA,NA,NA,NA,NA,NA,NA,NA,NA,NA,NA,NA,NA,NA,NA
fae62,deep,flow.Sequence,5_0_1_0_3_0,NA,NA,completion,27966.2,899622.4,899620.5,899637.4,927603.6,927604.9,2024-05-26T11:03:41Z,927620.3,NULL,Wettbewerb,ushindani,d,NA,NA,NA,NA,sdfdsf,NA,1,NA,NA,NA,NA,NA,NA,NA,NA,NA,NA,NA,NA,NA,NA,NA,NA,NA,NA,NA
fae62,shallow,flow.Sequence,5_0_1_0_3_1,NA,NA,skipped,NA,927605.1,NA,NA,927603.6,927605.2,2024-05-26T11:03:41Z,927620.3,NULL,Wettbewerb,ushindani,d,NA,NA,NA,NA,sdfdsf,NA,1,NA,NA,NA,NA,NA,NA,NA,NA,NA,NA,NA,NA,NA,NA,NA,NA,NA,NA,NA
fae62,task,flow.Sequence,5_0_1_0_3,NA,NA,completion,27966.2,899622.3,899620.5,899637.4,927603.6,927605.3,2024-05-26T11:03:41Z,927620.3,NULL,Wettbewerb,ushindani,d,NA,NA,NA,NA,sdfdsf,NA,1,NA,NA,NA,NA,NA,NA,NA,NA,NA,NA,NA,NA,NA,NA,NA,NA,NA,NA,NA
fae62,deep,flow.Sequence,5_0_1_0_4_0,NA,NA,skipped,NA,927605.5,NA,NA,927603.6,927605.6,2024-05-26T11:03:41Z,927620.3,NULL,Theorie,nadharia,s,ushungi,mkutano,uwakilishi,NA,sdfdsf,NA,1,NA,NA,NA,NA,NA,NA,NA,NA,NA,NA,NA,NA,NA,NA,NA,NA,NA,NA,NA
fae62,Shallow Question,html.Page,5_0_1_0_4_1_0,NA,NA,form submission,9496.0999999999,927605.7,927603.6,927620.3,937116.4,937116.7,2024-05-26T11:03:50Z,937131.2,NULL,Theorie,nadharia,s,ushungi,mkutano,uwakilishi,nadharia,NA,NA,1,NA,NA,NA,NA,NA,NA,NA,NA,NA,NA,NA,NA,NA,NA,NA,NA,NA,NA,NA
fae62,"""Richtig""-Screen",canvas.Screen,5_0_1_0_4_1_1,NA,NA,timeout,4997.1000000001,937120.1,937115.156,937131.2,942111.4,942112.5,2024-05-26T11:03:55Z,942128.3,NULL,Theorie,nadharia,s,ushungi,mkutano,uwakilishi,NA,sdfdsf,1,1,NA,NA,NA,NA,NA,NA,NA,NA,NA,NA,NA,NA,NA,NA,NA,NA,NA,NA,NA
fae62,"""Falsch""-Screen",canvas.Screen,5_0_1_0_4_1_2,NA,NA,skipped,NA,942118,NA,NA,942111.4,942118,2024-05-26T11:03:55Z,942128.3,NULL,Theorie,nadharia,s,ushungi,mkutano,uwakilishi,NA,sdfdsf,NA,1,NA,NA,NA,NA,NA,NA,NA,NA,NA,NA,NA,NA,NA,NA,NA,NA,NA,NA,NA
fae62,shallow,flow.Sequence,5_0_1_0_4_1,NA,NA,completion,14491.1,927605.7,927603.6,927620.3,942111.4,942118.1,2024-05-26T11:03:55Z,942128.3,NULL,Theorie,nadharia,s,ushungi,mkutano,uwakilishi,NA,sdfdsf,NA,1,NA,NA,NA,NA,NA,NA,NA,NA,NA,NA,NA,NA,NA,NA,NA,NA,NA,NA,NA
fae62,task,flow.Sequence,5_0_1_0_4,NA,NA,completion,14491.1,927605.4,927603.6,927620.3,942111.4,942118.2,2024-05-26T11:03:55Z,942128.3,NULL,Theorie,nadharia,s,ushungi,mkutano,uwakilishi,NA,sdfdsf,NA,1,NA,NA,NA,NA,NA,NA,NA,NA,NA,NA,NA,NA,NA,NA,NA,NA,NA,NA,NA
fae62,deep,flow.Sequence,5_0_1_0_5_0,NA,NA,skipped,NA,942118.3,NA,NA,942111.4,942118.3,2024-05-26T11:03:55Z,942128.3,NULL,Zufall,kikuti,s,kukosekana,uchoraji,leseni,NA,sdfdsf,NA,1,NA,NA,NA,NA,NA,NA,NA,NA,NA,NA,NA,NA,NA,NA,NA,NA,NA,NA,NA
fae62,Shallow Question,html.Page,5_0_1_0_5_1_0,NA,NA,form submission,3612.8,942118.3,942111.4,942128.3,945741.1,945741.3,2024-05-26T11:03:59Z,945743.136,NULL,Zufall,kikuti,s,kukosekana,uchoraji,leseni,kikuti,NA,NA,1,NA,NA,NA,NA,NA,NA,NA,NA,NA,NA,NA,NA,NA,NA,NA,NA,NA,NA,NA
fae62,"""Richtig""-Screen",canvas.Screen,5_0_1_0_5_1_1,NA,NA,timeout,4996.4639999999,945744.2,945743.136,945743.136,950722.8,950723.6,2024-05-26T11:04:04Z,950739.6,NULL,Zufall,kikuti,s,kukosekana,uchoraji,leseni,NA,sdfdsf,1,1,NA,NA,NA,NA,NA,NA,NA,NA,NA,NA,NA,NA,NA,NA,NA,NA,NA,NA,NA
fae62,"""Falsch""-Screen",canvas.Screen,5_0_1_0_5_1_2,NA,NA,skipped,NA,950728.8,NA,NA,950722.8,950728.9,2024-05-26T11:04:04Z,950739.6,NULL,Zufall,kikuti,s,kukosekana,uchoraji,leseni,NA,sdfdsf,NA,1,NA,NA,NA,NA,NA,NA,NA,NA,NA,NA,NA,NA,NA,NA,NA,NA,NA,NA,NA
fae62,shallow,flow.Sequence,5_0_1_0_5_1,NA,NA,completion,8594.5,942118.3,942111.4,942128.3,950722.8,950729,2024-05-26T11:04:04Z,950739.6,NULL,Zufall,kikuti,s,kukosekana,uchoraji,leseni,NA,sdfdsf,NA,1,NA,NA,NA,NA,NA,NA,NA,NA,NA,NA,NA,NA,NA,NA,NA,NA,NA,NA,NA
fae62,task,flow.Sequence,5_0_1_0_5,NA,NA,completion,8594.5,942118.3,942111.4,942128.3,950722.8,950729,2024-05-26T11:04:04Z,950739.6,NULL,Zufall,kikuti,s,kukosekana,uchoraji,leseni,NA,sdfdsf,NA,1,NA,NA,NA,NA,NA,NA,NA,NA,NA,NA,NA,NA,NA,NA,NA,NA,NA,NA,NA
fae62,deep,flow.Sequence,5_0_1_0_6_0,NA,NA,skipped,NA,950729.1,NA,NA,950722.8,950729.1,2024-05-26T11:04:04Z,950739.6,NULL,Schock,mshtuko,s,biashara,kukataza,vichekesho,NA,sdfdsf,NA,1,NA,NA,NA,NA,NA,NA,NA,NA,NA,NA,NA,NA,NA,NA,NA,NA,NA,NA,NA
fae62,Shallow Question,html.Page,5_0_1_0_6_1_0,NA,NA,form submission,5855.5999999997,950729.1,950722.8,950739.6,956595.2,956595.4,2024-05-26T11:04:10Z,956602.2,NULL,Schock,mshtuko,s,biashara,kukataza,vichekesho,mshtuko,NA,NA,1,NA,NA,NA,NA,NA,NA,NA,NA,NA,NA,NA,NA,NA,NA,NA,NA,NA,NA,NA
fae62,"""Richtig""-Screen",canvas.Screen,5_0_1_0_6_1_1,NA,NA,timeout,4997.4,956598.3,956587.1,956602.2,961583,961584.2,2024-05-26T11:04:15Z,961599.6,NULL,Schock,mshtuko,s,biashara,kukataza,vichekesho,NA,sdfdsf,1,1,NA,NA,NA,NA,NA,NA,NA,NA,NA,NA,NA,NA,NA,NA,NA,NA,NA,NA,NA
fae62,"""Falsch""-Screen",canvas.Screen,5_0_1_0_6_1_2,NA,NA,skipped,NA,961589.2,NA,NA,961583,961589.3,2024-05-26T11:04:15Z,961599.6,NULL,Schock,mshtuko,s,biashara,kukataza,vichekesho,NA,sdfdsf,NA,1,NA,NA,NA,NA,NA,NA,NA,NA,NA,NA,NA,NA,NA,NA,NA,NA,NA,NA,NA
fae62,shallow,flow.Sequence,5_0_1_0_6_1,NA,NA,completion,10843.4,950729.1,950722.8,950739.6,961583,961589.4,2024-05-26T11:04:15Z,961599.6,NULL,Schock,mshtuko,s,biashara,kukataza,vichekesho,NA,sdfdsf,NA,1,NA,NA,NA,NA,NA,NA,NA,NA,NA,NA,NA,NA,NA,NA,NA,NA,NA,NA,NA
fae62,task,flow.Sequence,5_0_1_0_6,NA,NA,completion,10843.4,950729.1,950722.8,950739.6,961583,961589.4,2024-05-26T11:04:15Z,961599.6,NULL,Schock,mshtuko,s,biashara,kukataza,vichekesho,NA,sdfdsf,NA,1,NA,NA,NA,NA,NA,NA,NA,NA,NA,NA,NA,NA,NA,NA,NA,NA,NA,NA,NA
fae62,deep,flow.Sequence,5_0_1_0_7_0,NA,NA,skipped,NA,961589.4,NA,NA,961583,961589.5,2024-05-26T11:04:15Z,961599.6,NULL,Schönheit,kirembo,s,mahojiano,msisimko,jitihadi,NA,sdfdsf,NA,1,NA,NA,NA,NA,NA,NA,NA,NA,NA,NA,NA,NA,NA,NA,NA,NA,NA,NA,NA
fae62,Shallow Question,html.Page,5_0_1_0_7_1_0,NA,NA,form submission,3926.5999999997,961589.5,961583,961599.6,965526.2,965526.6,2024-05-26T11:04:19Z,965530.2,NULL,Schönheit,kirembo,s,mahojiano,msisimko,jitihadi,kirembo,NA,NA,1,NA,NA,NA,NA,NA,NA,NA,NA,NA,NA,NA,NA,NA,NA,NA,NA,NA,NA,NA
fae62,"""Richtig""-Screen",canvas.Screen,5_0_1_0_7_1_1,NA,NA,timeout,4997.4,965529.5,965514.2,965530.2,970510.8,970511.6,2024-05-26T11:04:24Z,970527.6,NULL,Schönheit,kirembo,s,mahojiano,msisimko,jitihadi,NA,sdfdsf,1,1,NA,NA,NA,NA,NA,NA,NA,NA,NA,NA,NA,NA,NA,NA,NA,NA,NA,NA,NA
fae62,"""Falsch""-Screen",canvas.Screen,5_0_1_0_7_1_2,NA,NA,skipped,NA,970516.5,NA,NA,970510.8,970516.6,2024-05-26T11:04:24Z,970527.6,NULL,Schönheit,kirembo,s,mahojiano,msisimko,jitihadi,NA,sdfdsf,NA,1,NA,NA,NA,NA,NA,NA,NA,NA,NA,NA,NA,NA,NA,NA,NA,NA,NA,NA,NA
fae62,shallow,flow.Sequence,5_0_1_0_7_1,NA,NA,completion,8911.2000000001,961589.5,961583,961599.6,970510.8,970516.7,2024-05-26T11:04:24Z,970527.6,NULL,Schönheit,kirembo,s,mahojiano,msisimko,jitihadi,NA,sdfdsf,NA,1,NA,NA,NA,NA,NA,NA,NA,NA,NA,NA,NA,NA,NA,NA,NA,NA,NA,NA,NA
fae62,task,flow.Sequence,5_0_1_0_7,NA,NA,completion,8911.2000000001,961589.4,961583,961599.6,970510.8,970516.8,2024-05-26T11:04:24Z,970527.6,NULL,Schönheit,kirembo,s,mahojiano,msisimko,jitihadi,NA,sdfdsf,NA,1,NA,NA,NA,NA,NA,NA,NA,NA,NA,NA,NA,NA,NA,NA,NA,NA,NA,NA,NA
fae62,block,flow.Loop,5_0_1_0,NA,NA,completion,155355.5,815145.3,815140.084,815155.3,970510.8,970516.9,2024-05-26T11:04:24Z,970527.6,NULL,NA,NA,NA,NA,NA,NA,NA,sdfdsf,NA,1,NA,NA,NA,NA,NA,NA,NA,NA,NA,NA,NA,NA,NA,NA,NA,NA,NA,NA,NA
fae62,weiter,canvas.Screen,5_0_1_1,sdf,keypress(Space),response,1269.5000000001,970516.9,970510.8,970527.6,971797.1,971799.1,2024-05-26T11:04:25Z,971843.5,NULL,NA,NA,NA,NA,NA,NA,NA,sdfdsf,NA,1,NA,NA,NA,NA,NA,NA,NA,NA,NA,NA,NA,NA,NA,NA,NA,NA,NA,NA,NA
fae62,check continue,flow.Sequence,5_0_1,NA,NA,completion,156641.8,815145.2,815140.084,815155.3,971797.1,971799.5,2024-05-26T11:04:25Z,971843.5,NULL,NA,NA,NA,NA,NA,NA,NA,sdfdsf,NA,1,NA,NA,NA,NA,NA,NA,NA,NA,NA,NA,NA,NA,NA,NA,NA,NA,NA,NA,NA
fae62,Deep Question,html.Page,5_0_2_0_0_0_0,NA,NA,form submission,12328.9,971826.5,971827.548,971843.5,984172.4,984172.7,2024-05-26T11:04:37Z,984185.3,NULL,Verpackung,ufungaji,d,NA,NA,NA,ushinaji,NA,NA,2,NA,NA,NA,NA,NA,NA,NA,NA,NA,NA,NA,NA,NA,NA,NA,NA,NA,NA,NA
fae62,"""Richtig""-Screen",canvas.Screen,5_0_2_0_0_0_1,NA,NA,skipped,NA,984176.1,NA,NA,984172.4,984176.3,2024-05-26T11:04:37Z,984185.3,NULL,Verpackung,ufungaji,d,NA,NA,NA,NA,sdf,NA,2,NA,NA,NA,NA,NA,NA,NA,NA,NA,NA,NA,NA,NA,NA,NA,NA,NA,NA,NA
fae62,"""Falsch""-Screen",canvas.Screen,5_0_2_0_0_0_2,NA,NA,timeout,4997.5,984177.1,984169.1,984185.3,989165.8,989166.7,2024-05-26T11:04:42Z,989182.8,NULL,Verpackung,ufungaji,d,NA,NA,NA,NA,sdf,0,2,NA,NA,NA,NA,NA,NA,NA,NA,NA,NA,NA,NA,NA,NA,NA,NA,NA,NA,NA
fae62,deep,flow.Sequence,5_0_2_0_0_0,NA,NA,completion,17322.3,971826.5,971827.548,971843.5,989165.8,989167.1,2024-05-26T11:04:42Z,989182.8,NULL,Verpackung,ufungaji,d,NA,NA,NA,NA,sdf,NA,2,NA,NA,NA,NA,NA,NA,NA,NA,NA,NA,NA,NA,NA,NA,NA,NA,NA,NA,NA
fae62,shallow,flow.Sequence,5_0_2_0_0_1,NA,NA,skipped,NA,989167.2,NA,NA,989165.8,989167.3,2024-05-26T11:04:42Z,989182.8,NULL,Verpackung,ufungaji,d,NA,NA,NA,NA,sdf,NA,2,NA,NA,NA,NA,NA,NA,NA,NA,NA,NA,NA,NA,NA,NA,NA,NA,NA,NA,NA
fae62,task,flow.Sequence,5_0_2_0_0,NA,NA,completion,17322.3,971826.5,971827.548,971843.5,989165.8,989167.5,2024-05-26T11:04:42Z,989182.8,NULL,Verpackung,ufungaji,d,NA,NA,NA,NA,sdf,NA,2,NA,NA,NA,NA,NA,NA,NA,NA,NA,NA,NA,NA,NA,NA,NA,NA,NA,NA,NA
fae62,Deep Question,html.Page,5_0_2_0_1_0_0,NA,NA,form submission,12097,989167.7,989165.8,989182.8,1001279.8,1001280,2024-05-26T11:04:55Z,1001291.6,NULL,Hoffnung,matarajio,d,NA,NA,NA,nasangaji,NA,NA,2,NA,NA,NA,NA,NA,NA,NA,NA,NA,NA,NA,NA,NA,NA,NA,NA,NA,NA,NA
fae62,"""Richtig""-Screen",canvas.Screen,5_0_2_0_1_0_1,NA,NA,skipped,NA,1001283.1,NA,NA,1001279.8,1001283.3,2024-05-26T11:04:55Z,1001291.6,NULL,Hoffnung,matarajio,d,NA,NA,NA,NA,sdf,NA,2,NA,NA,NA,NA,NA,NA,NA,NA,NA,NA,NA,NA,NA,NA,NA,NA,NA,NA,NA
fae62,"""Falsch""-Screen",canvas.Screen,5_0_2_0_1_0_2,NA,NA,timeout,4997,1001284,1001278.2,1001291.6,1006272.3,1006272.9,2024-05-26T11:05:00Z,1006288.6,NULL,Hoffnung,matarajio,d,NA,NA,NA,NA,sdf,0,2,NA,NA,NA,NA,NA,NA,NA,NA,NA,NA,NA,NA,NA,NA,NA,NA,NA,NA,NA
fae62,deep,flow.Sequence,5_0_2_0_1_0,NA,NA,completion,17089.5,989167.6,989165.8,989182.8,1006272.3,1006273.1,2024-05-26T11:05:00Z,1006288.6,NULL,Hoffnung,matarajio,d,NA,NA,NA,NA,sdf,NA,2,NA,NA,NA,NA,NA,NA,NA,NA,NA,NA,NA,NA,NA,NA,NA,NA,NA,NA,NA
fae62,shallow,flow.Sequence,5_0_2_0_1_1,NA,NA,skipped,NA,1006273.2,NA,NA,1006272.3,1006273.2,2024-05-26T11:05:00Z,1006288.6,NULL,Hoffnung,matarajio,d,NA,NA,NA,NA,sdf,NA,2,NA,NA,NA,NA,NA,NA,NA,NA,NA,NA,NA,NA,NA,NA,NA,NA,NA,NA,NA
fae62,task,flow.Sequence,5_0_2_0_1,NA,NA,completion,17089.5,989167.6,989165.8,989182.8,1006272.3,1006273.3,2024-05-26T11:05:00Z,1006288.6,NULL,Hoffnung,matarajio,d,NA,NA,NA,NA,sdf,NA,2,NA,NA,NA,NA,NA,NA,NA,NA,NA,NA,NA,NA,NA,NA,NA,NA,NA,NA,NA
fae62,deep,flow.Sequence,5_0_2_0_2_0,NA,NA,skipped,NA,1006273.3,NA,NA,1006272.3,1006273.3,2024-05-26T11:05:00Z,1006288.6,NULL,Zufall,kikuti,s,kukosekana,uchoraji,leseni,NA,sdf,NA,2,NA,NA,NA,NA,NA,NA,NA,NA,NA,NA,NA,NA,NA,NA,NA,NA,NA,NA,NA
fae62,Shallow Question,html.Page,5_0_2_0_2_1_0,NA,NA,form submission,3513.7999999999,1006273.4,1006272.3,1006288.6,1009802.4,1009802.6,2024-05-26T11:05:03Z,1009803.944,NULL,Zufall,kikuti,s,kukosekana,uchoraji,leseni,kikuti,NA,NA,2,NA,NA,NA,NA,NA,NA,NA,NA,NA,NA,NA,NA,NA,NA,NA,NA,NA,NA,NA
fae62,"""Richtig""-Screen",canvas.Screen,5_0_2_0_2_1_1,NA,NA,timeout,4996.656,1009805.6,1009803.944,1009803.944,1014783.8,1014784.7,2024-05-26T11:05:08Z,1014800.6,NULL,Zufall,kikuti,s,kukosekana,uchoraji,leseni,NA,sdf,1,2,NA,NA,NA,NA,NA,NA,NA,NA,NA,NA,NA,NA,NA,NA,NA,NA,NA,NA,NA
fae62,"""Falsch""-Screen",canvas.Screen,5_0_2_0_2_1_2,NA,NA,skipped,NA,1014790,NA,NA,1014783.8,1014790.1,2024-05-26T11:05:08Z,1014800.6,NULL,Zufall,kikuti,s,kukosekana,uchoraji,leseni,NA,sdf,NA,2,NA,NA,NA,NA,NA,NA,NA,NA,NA,NA,NA,NA,NA,NA,NA,NA,NA,NA,NA
fae62,shallow,flow.Sequence,5_0_2_0_2_1,NA,NA,completion,8495.2000000001,1006273.3,1006272.3,1006288.6,1014783.8,1014790.1,2024-05-26T11:05:08Z,1014800.6,NULL,Zufall,kikuti,s,kukosekana,uchoraji,leseni,NA,sdf,NA,2,NA,NA,NA,NA,NA,NA,NA,NA,NA,NA,NA,NA,NA,NA,NA,NA,NA,NA,NA
