observation,sender,sender_type,sender_id,response,response_action,ended_on,duration,time_run,time_render,time_show,time_end,time_commit,timestamp,time_switch,german,swahili,enc,distractor1,distractor2,distractor3,response_2,x,correct,distractors,url_vp,url_sess,meta_labjs_version,meta_location,meta_user_agent,meta_platform,meta_language,meta_locale,meta_time_zone,meta_timezone_offset,meta_screen_width,meta_screen_height,meta_scroll_width,meta_scroll_height,meta_window_inner_width,meta_window_inner_height,meta_device_pixel_ratio,meta_labjs_build_flavor,meta_labjs_build_commit
e9375,Introduction delayed retrieval,canvas.Screen,0,weiter,keypress(Space),response,1379.5000000022,908.69999999925,905.69,922.4,2301.9000000022,2303.3000000007,2024-06-17T18:30:07Z,2318.6,NA,NA,NA,NA,NA,NA,NA,NA,NA,NULL,199,4,20.2.4,https://neurocog.fernuni.ch/studies/vweber/aberisha/delayed/index.html?vp=199&sess=4,"Mozilla/5.0 (Windows NT 10.0; Win64; x64) AppleWebKit/537.36 (KHTML, like Gecko) Chrome/126.0.0.0 Safari/537.36 Edg/126.0.0.0",Win32,de,de-CH,Europe/Zurich,-120,1920,1200,1801,921,1801,969,1,production,f5b4a49f956347addd546a832a3327688c2c0fef
e9375,Deep Question,html.Page,1_0_0_0,NA,NA,form submission,64783.500000001,2303.5,2287.604,2318.6,67102.100000001,67102.400000002,2024-06-17T18:31:12Z,67115.7,Erneuerung,ukarabati,d,ushawishi,ukalifu,unyonyaji,dsf,NA,NA,NULL,NA,NA,NA,NA,NA,NA,NA,NA,NA,NA,NA,NA,NA,NA,NA,NA,NA,NA,NA
e9375,Save data screen,canvas.Screen,1_0_0_1,NA,NA,timeout,492.2,67103.100000001,67088.886,67115.7,67591.3,67592.699999999,2024-06-17T18:31:12Z,67607.9,Erneuerung,ukarabati,d,ushawishi,ukalifu,unyonyaji,NA,NA,0,NULL,NA,NA,NA,NA,NA,NA,NA,NA,NA,NA,NA,NA,NA,NA,NA,NA,NA,NA,NA
e9375,deep,flow.Sequence,1_0_0,NA,NA,completion,65272.7,2303.5,2287.604,2318.6,67591.3,67593.199999999,2024-06-17T18:31:12Z,67607.9,Erneuerung,ukarabati,d,ushawishi,ukalifu,unyonyaji,NA,NA,NA,NULL,NA,NA,NA,NA,NA,NA,NA,NA,NA,NA,NA,NA,NA,NA,NA,NA,NA,NA,NA
e9375,task,flow.Sequence,1_0,NA,NA,completion,65272.7,2303.5,2287.604,2318.6,67591.3,67593.199999999,2024-06-17T18:31:12Z,67607.9,Erneuerung,ukarabati,d,ushawishi,ukalifu,unyonyaji,NA,NA,NA,NULL,NA,NA,NA,NA,NA,NA,NA,NA,NA,NA,NA,NA,NA,NA,NA,NA,NA,NA,NA
e9375,Deep Question,html.Page,1_1_0_0,NA,NA,form submission,9083.2000000015,67593.400000002,67591.3,67607.9,76691.100000001,76691.400000002,2024-06-17T18:31:22Z,76702.9,Wechsel,ugeuzaji,d,utambulisho,kujenga,wasiwasi,efsdg,NA,NA,NULL,NA,NA,NA,NA,NA,NA,NA,NA,NA,NA,NA,NA,NA,NA,NA,NA,NA,NA,NA
e9375,Save data screen,canvas.Screen,1_1_0_1,NA,NA,timeout,502.8,76694,76686.354,76702.9,77189,77189.800000001,2024-06-17T18:31:22Z,77205.7,Wechsel,ugeuzaji,d,utambulisho,kujenga,wasiwasi,NA,NA,0,NULL,NA,NA,NA,NA,NA,NA,NA,NA,NA,NA,NA,NA,NA,NA,NA,NA,NA,NA,NA
e9375,deep,flow.Sequence,1_1_0,NA,NA,completion,9581.1,67593.400000002,67591.3,67607.9,77189,77190,2024-06-17T18:31:22Z,77205.7,Wechsel,ugeuzaji,d,utambulisho,kujenga,wasiwasi,NA,NA,NA,NULL,NA,NA,NA,NA,NA,NA,NA,NA,NA,NA,NA,NA,NA,NA,NA,NA,NA,NA,NA
e9375,task,flow.Sequence,1_1,NA,NA,completion,9581.1,67593.400000002,67591.3,67607.9,77189,77190.100000001,2024-06-17T18:31:22Z,77205.7,Wechsel,ugeuzaji,d,utambulisho,kujenga,wasiwasi,NA,NA,NA,NULL,NA,NA,NA,NA,NA,NA,NA,NA,NA,NA,NA,NA,NA,NA,NA,NA,NA,NA,NA
e9375,Deep Question,html.Page,1_2_0_0,NA,NA,form submission,13309.200000002,77190.100000001,77189,77205.7,90514.900000002,90515.100000001,2024-06-17T18:31:35Z,90528.9,Betrüger,mdanganyifu,s,mwanamuziki,wastani,mahakama,dcxdvg,NA,NA,NULL,NA,NA,NA,NA,NA,NA,NA,NA,NA,NA,NA,NA,NA,NA,NA,NA,NA,NA,NA
e9375,Save data screen,canvas.Screen,1_2_0_1,NA,NA,timeout,498.8,90516.699999999,90508.6,90528.9,91011.1,91011.699999999,2024-06-17T18:31:36Z,91027.7,Betrüger,mdanganyifu,s,mwanamuziki,wastani,mahakama,NA,NA,0,NULL,NA,NA,NA,NA,NA,NA,NA,NA,NA,NA,NA,NA,NA,NA,NA,NA,NA,NA,NA
e9375,deep,flow.Sequence,1_2_0,NA,NA,completion,13805.4,77190.100000001,77189,77205.7,91011.1,91011.800000001,2024-06-17T18:31:36Z,91027.7,Betrüger,mdanganyifu,s,mwanamuziki,wastani,mahakama,NA,NA,NA,NULL,NA,NA,NA,NA,NA,NA,NA,NA,NA,NA,NA,NA,NA,NA,NA,NA,NA,NA,NA
e9375,task,flow.Sequence,1_2,NA,NA,completion,13805.4,77190.100000001,77189,77205.7,91011.1,91012,2024-06-17T18:31:36Z,91027.7,Betrüger,mdanganyifu,s,mwanamuziki,wastani,mahakama,NA,NA,NA,NULL,NA,NA,NA,NA,NA,NA,NA,NA,NA,NA,NA,NA,NA,NA,NA,NA,NA,NA,NA
e9375,Deep Question,html.Page,1_3_0_0,NA,NA,form submission,18293.700000002,91012.100000001,91011.1,91027.7,109321.4,109321.7,2024-06-17T18:31:54Z,109356.6,Begegnung,kukutana,s,mmasihiya,mpiganaji,husiano,kutuna,NA,NA,NULL,NA,NA,NA,NA,NA,NA,NA,NA,NA,NA,NA,NA,NA,NA,NA,NA,NA,NA,NA
e9375,Save data screen,canvas.Screen,1_3_0_1,NA,NA,timeout,504.29999999999,109324,109321.76,109356.6,109844.2,109845.1,2024-06-17T18:31:55Z,109860.9,Begegnung,kukutana,s,mmasihiya,mpiganaji,husiano,NA,NA,0,NULL,NA,NA,NA,NA,NA,NA,NA,NA,NA,NA,NA,NA,NA,NA,NA,NA,NA,NA,NA
e9375,deep,flow.Sequence,1_3_0,NA,NA,completion,18816.5,91012.100000001,91011.1,91027.7,109844.2,109845.4,2024-06-17T18:31:55Z,109860.9,Begegnung,kukutana,s,mmasihiya,mpiganaji,husiano,NA,NA,NA,NULL,NA,NA,NA,NA,NA,NA,NA,NA,NA,NA,NA,NA,NA,NA,NA,NA,NA,NA,NA
e9375,task,flow.Sequence,1_3,NA,NA,completion,18816.5,91012.100000001,91011.1,91027.7,109844.2,109845.5,2024-06-17T18:31:55Z,109860.9,Begegnung,kukutana,s,mmasihiya,mpiganaji,husiano,NA,NA,NA,NULL,NA,NA,NA,NA,NA,NA,NA,NA,NA,NA,NA,NA,NA,NA,NA,NA,NA,NA,NA
e9375,Deep Question,html.Page,1_4_0_0,NA,NA,form submission,29553.200000001,109845.6,109844.2,109860.9,139414.1,139414.3,2024-06-17T18:32:24Z,139423.3,Respekt,heshima,d,changamnao,upinzani,ufanisi,heshima,NA,NA,NULL,NA,NA,NA,NA,NA,NA,NA,NA,NA,NA,NA,NA,NA,NA,NA,NA,NA,NA,NA
e9375,Save data screen,canvas.Screen,1_4_0_1,NA,NA,timeout,506.30000000002,139416.6,139406.6,139423.3,139913.1,139913.6,2024-06-17T18:32:25Z,139929.6,Respekt,heshima,d,changamnao,upinzani,ufanisi,NA,NA,1,NULL,NA,NA,NA,NA,NA,NA,NA,NA,NA,NA,NA,NA,NA,NA,NA,NA,NA,NA,NA
e9375,deep,flow.Sequence,1_4_0,NA,NA,completion,30052.2,109845.6,109844.2,109860.9,139913.1,139913.8,2024-06-17T18:32:25Z,139929.6,Respekt,heshima,d,changamnao,upinzani,ufanisi,NA,NA,NA,NULL,NA,NA,NA,NA,NA,NA,NA,NA,NA,NA,NA,NA,NA,NA,NA,NA,NA,NA,NA
e9375,task,flow.Sequence,1_4,NA,NA,completion,30052.2,109845.5,109844.2,109860.9,139913.1,139913.8,2024-06-17T18:32:25Z,139929.6,Respekt,heshima,d,changamnao,upinzani,ufanisi,NA,NA,NA,NULL,NA,NA,NA,NA,NA,NA,NA,NA,NA,NA,NA,NA,NA,NA,NA,NA,NA,NA,NA
e9375,Deep Question,html.Page,1_5_0_0,NA,NA,form submission,17858.9,139914,139913.1,139929.6,157788.5,157788.8,2024-06-17T18:32:43Z,157814.5,Stimmung,kinyongo,s,kilekile,kisambo,madhehebu,jsdh,NA,NA,NULL,NA,NA,NA,NA,NA,NA,NA,NA,NA,NA,NA,NA,NA,NA,NA,NA,NA,NA,NA
e9375,Save data screen,canvas.Screen,1_5_0_1,NA,NA,timeout,492.89999999999,157790.3,157798,157814.5,158290.7,158291.4,2024-06-17T18:32:43Z,158307.4,Stimmung,kinyongo,s,kilekile,kisambo,madhehebu,NA,NA,0,NULL,NA,NA,NA,NA,NA,NA,NA,NA,NA,NA,NA,NA,NA,NA,NA,NA,NA,NA,NA
e9375,deep,flow.Sequence,1_5_0,NA,NA,completion,18361.1,139913.9,139913.1,139929.6,158290.7,158291.6,2024-06-17T18:32:43Z,158307.4,Stimmung,kinyongo,s,kilekile,kisambo,madhehebu,NA,NA,NA,NULL,NA,NA,NA,NA,NA,NA,NA,NA,NA,NA,NA,NA,NA,NA,NA,NA,NA,NA,NA
e9375,task,flow.Sequence,1_5,NA,NA,completion,18361.1,139913.9,139913.1,139929.6,158290.7,158291.7,2024-06-17T18:32:43Z,158307.4,Stimmung,kinyongo,s,kilekile,kisambo,madhehebu,NA,NA,NA,NULL,NA,NA,NA,NA,NA,NA,NA,NA,NA,NA,NA,NA,NA,NA,NA,NA,NA,NA,NA
e9375,Deep Question,html.Page,1_6_0_0,NA,NA,form submission,4121.7999999993,158291.8,158290.7,158307.4,162429.2,162429.5,2024-06-17T18:32:47Z,162445.5,Genehmigung,idhini,s,mwanamke,itikadi,fedheha,jdjfh,NA,NA,NULL,NA,NA,NA,NA,NA,NA,NA,NA,NA,NA,NA,NA,NA,NA,NA,NA,NA,NA,NA
e9375,Save data screen,canvas.Screen,1_6_0_1,NA,NA,timeout,496.70000000001,162431.3,162423.428,162445.5,162925.6,162926,2024-06-17T18:32:48Z,162942.2,Genehmigung,idhini,s,mwanamke,itikadi,fedheha,NA,NA,0,NULL,NA,NA,NA,NA,NA,NA,NA,NA,NA,NA,NA,NA,NA,NA,NA,NA,NA,NA,NA
e9375,deep,flow.Sequence,1_6_0,NA,NA,completion,4618.2,158291.8,158290.7,158307.4,162925.6,162926.1,2024-06-17T18:32:48Z,162942.2,Genehmigung,idhini,s,mwanamke,itikadi,fedheha,NA,NA,NA,NULL,NA,NA,NA,NA,NA,NA,NA,NA,NA,NA,NA,NA,NA,NA,NA,NA,NA,NA,NA
e9375,task,flow.Sequence,1_6,NA,NA,completion,4618.2,158291.8,158290.7,158307.4,162925.6,162926.1,2024-06-17T18:32:48Z,162942.2,Genehmigung,idhini,s,mwanamke,itikadi,fedheha,NA,NA,NA,NULL,NA,NA,NA,NA,NA,NA,NA,NA,NA,NA,NA,NA,NA,NA,NA,NA,NA,NA,NA
e9375,Deep Question,html.Page,1_7_0_0,NA,NA,form submission,2960.3,162926.2,162925.6,162942.2,165902.5,165902.7,2024-06-17T18:32:51Z,165918.7,Atmosphäre,angahewa,s,kuteseka,usahihi,kutoamini,kjdfh,NA,NA,NULL,NA,NA,NA,NA,NA,NA,NA,NA,NA,NA,NA,NA,NA,NA,NA,NA,NA,NA,NA
e9375,Save data screen,canvas.Screen,1_7_0_1,NA,NA,timeout,505.69999999998,165903.8,165902.058,165918.7,166407.9,166408.8,2024-06-17T18:32:51Z,166424.4,Atmosphäre,angahewa,s,kuteseka,usahihi,kutoamini,NA,NA,0,NULL,NA,NA,NA,NA,NA,NA,NA,NA,NA,NA,NA,NA,NA,NA,NA,NA,NA,NA,NA
e9375,deep,flow.Sequence,1_7_0,NA,NA,completion,3465.7,162926.2,162925.6,162942.2,166407.9,166409.2,2024-06-17T18:32:51Z,166424.4,Atmosphäre,angahewa,s,kuteseka,usahihi,kutoamini,NA,NA,NA,NULL,NA,NA,NA,NA,NA,NA,NA,NA,NA,NA,NA,NA,NA,NA,NA,NA,NA,NA,NA
e9375,task,flow.Sequence,1_7,NA,NA,completion,3465.7,162926.2,162925.6,162942.2,166407.9,166409.2,2024-06-17T18:32:51Z,166424.4,Atmosphäre,angahewa,s,kuteseka,usahihi,kutoamini,NA,NA,NA,NULL,NA,NA,NA,NA,NA,NA,NA,NA,NA,NA,NA,NA,NA,NA,NA,NA,NA,NA,NA
e9375,Deep Question,html.Page,1_8_0_0,NA,NA,form submission,3966.1,166409.4,166407.9,166424.4,170390.5,170390.7,2024-06-17T18:32:55Z,170406.8,Integrität,uadilifu,d,muungano,mtiririko,upunguaji,dsfgsg,NA,NA,NULL,NA,NA,NA,NA,NA,NA,NA,NA,NA,NA,NA,NA,NA,NA,NA,NA,NA,NA,NA
e9375,Save data screen,canvas.Screen,1_8_0_1,NA,NA,timeout,499.30000000002,170392,170382.6,170406.8,170889.6,170890.1,2024-06-17T18:32:56Z,170906.1,Integrität,uadilifu,d,muungano,mtiririko,upunguaji,NA,NA,0,NULL,NA,NA,NA,NA,NA,NA,NA,NA,NA,NA,NA,NA,NA,NA,NA,NA,NA,NA,NA
e9375,deep,flow.Sequence,1_8_0,NA,NA,completion,4465.2,166409.4,166407.9,166424.4,170889.6,170890.2,2024-06-17T18:32:56Z,170906.1,Integrität,uadilifu,d,muungano,mtiririko,upunguaji,NA,NA,NA,NULL,NA,NA,NA,NA,NA,NA,NA,NA,NA,NA,NA,NA,NA,NA,NA,NA,NA,NA,NA
e9375,task,flow.Sequence,1_8,NA,NA,completion,4465.2,166409.3,166407.9,166424.4,170889.6,170890.3,2024-06-17T18:32:56Z,170906.1,Integrität,uadilifu,d,muungano,mtiririko,upunguaji,NA,NA,NA,NULL,NA,NA,NA,NA,NA,NA,NA,NA,NA,NA,NA,NA,NA,NA,NA,NA,NA,NA,NA
e9375,Deep Question,html.Page,1_9_0_0,NA,NA,form submission,3673.4,170890.3,170889.6,170906.1,174579.5,174579.7,2024-06-17T18:32:59Z,174595.7,Niveau,kiwango,d,usimamizi,mwamali,mshairi,sfdg,NA,NA,NULL,NA,NA,NA,NA,NA,NA,NA,NA,NA,NA,NA,NA,NA,NA,NA,NA,NA,NA,NA
e9375,Save data screen,canvas.Screen,1_9_0_1,NA,NA,timeout,508,174581.1,174570.5,174595.7,175086.9,175087.2,2024-06-17T18:33:00Z,175103.7,Niveau,kiwango,d,usimamizi,mwamali,mshairi,NA,NA,0,NULL,NA,NA,NA,NA,NA,NA,NA,NA,NA,NA,NA,NA,NA,NA,NA,NA,NA,NA,NA
e9375,deep,flow.Sequence,1_9_0,NA,NA,completion,4180.8,170890.3,170889.6,170906.1,175086.9,175087.3,2024-06-17T18:33:00Z,175103.7,Niveau,kiwango,d,usimamizi,mwamali,mshairi,NA,NA,NA,NULL,NA,NA,NA,NA,NA,NA,NA,NA,NA,NA,NA,NA,NA,NA,NA,NA,NA,NA,NA
e9375,task,flow.Sequence,1_9,NA,NA,completion,4180.8,170890.3,170889.6,170906.1,175086.9,175087.3,2024-06-17T18:33:00Z,175103.7,Niveau,kiwango,d,usimamizi,mwamali,mshairi,NA,NA,NA,NULL,NA,NA,NA,NA,NA,NA,NA,NA,NA,NA,NA,NA,NA,NA,NA,NA,NA,NA,NA
e9375,Deep Question,html.Page,1_10_0_0,NA,NA,form submission,22954.400000001,175087.4,175086.9,175103.7,198058.1,198058.6,2024-06-17T18:33:23Z,198102.8,Vorwurf,mashtaka,s,msukumo,mtangulizi,uenyekiti,jgj,NA,NA,NULL,NA,NA,NA,NA,NA,NA,NA,NA,NA,NA,NA,NA,NA,NA,NA,NA,NA,NA,NA
e9375,Save data screen,canvas.Screen,1_10_0_1,NA,NA,timeout,492.90000000002,198062.3,198055.56,198102.8,198578.8,198579.5,2024-06-17T18:33:23Z,198595.7,Vorwurf,mashtaka,s,msukumo,mtangulizi,uenyekiti,NA,NA,0,NULL,NA,NA,NA,NA,NA,NA,NA,NA,NA,NA,NA,NA,NA,NA,NA,NA,NA,NA,NA
e9375,deep,flow.Sequence,1_10_0,NA,NA,completion,23475.1,175087.4,175086.9,175103.7,198578.8,198579.7,2024-06-17T18:33:23Z,198595.7,Vorwurf,mashtaka,s,msukumo,mtangulizi,uenyekiti,NA,NA,NA,NULL,NA,NA,NA,NA,NA,NA,NA,NA,NA,NA,NA,NA,NA,NA,NA,NA,NA,NA,NA
e9375,task,flow.Sequence,1_10,NA,NA,completion,23475.1,175087.4,175086.9,175103.7,198578.8,198579.7,2024-06-17T18:33:23Z,198595.7,Vorwurf,mashtaka,s,msukumo,mtangulizi,uenyekiti,NA,NA,NA,NULL,NA,NA,NA,NA,NA,NA,NA,NA,NA,NA,NA,NA,NA,NA,NA,NA,NA,NA,NA
e9375,Deep Question,html.Page,1_11_0_0,NA,NA,form submission,3966.1000000007,198579.7,198578.8,198595.7,202561.8,202562.2,2024-06-17T18:33:27Z,202583.8,Entwicklung,maendeleo,s,uangavu,mshindwa,badiliko,jkg,NA,NA,NULL,NA,NA,NA,NA,NA,NA,NA,NA,NA,NA,NA,NA,NA,NA,NA,NA,NA,NA,NA
e9375,Save data screen,canvas.Screen,1_11_0_1,NA,NA,timeout,505.70000000001,202566.1,202573.324,202583.8,203072.8,203074.7,2024-06-17T18:33:28Z,203089.5,Entwicklung,maendeleo,s,uangavu,mshindwa,badiliko,NA,NA,0,NULL,NA,NA,NA,NA,NA,NA,NA,NA,NA,NA,NA,NA,NA,NA,NA,NA,NA,NA,NA
e9375,deep,flow.Sequence,1_11_0,NA,NA,completion,4477.1,198579.7,198578.8,198595.7,203072.8,203075.2,2024-06-17T18:33:28Z,203089.5,Entwicklung,maendeleo,s,uangavu,mshindwa,badiliko,NA,NA,NA,NULL,NA,NA,NA,NA,NA,NA,NA,NA,NA,NA,NA,NA,NA,NA,NA,NA,NA,NA,NA
e9375,task,flow.Sequence,1_11,NA,NA,completion,4477.1,198579.7,198578.8,198595.7,203072.8,203075.5,2024-06-17T18:33:28Z,203089.5,Entwicklung,maendeleo,s,uangavu,mshindwa,badiliko,NA,NA,NA,NULL,NA,NA,NA,NA,NA,NA,NA,NA,NA,NA,NA,NA,NA,NA,NA,NA,NA,NA,NA
e9375,Deep Question,html.Page,1_12_0_0,NA,NA,form submission,2628.4000000022,203075.8,203072.8,203089.5,205717.9,205717.9,2024-06-17T18:33:30Z,205733.9,Papier,karatasi,d,uchambuzi,usalama,kukataliwa,hgjzd,NA,NA,NULL,NA,NA,NA,NA,NA,NA,NA,NA,NA,NA,NA,NA,NA,NA,NA,NA,NA,NA,NA
e9375,Save data screen,canvas.Screen,1_12_0_1,NA,NA,timeout,492,205718.4,205711.618,205733.9,206209.1,206209.6,2024-06-17T18:33:31Z,206225.9,Papier,karatasi,d,uchambuzi,usalama,kukataliwa,NA,NA,0,NULL,NA,NA,NA,NA,NA,NA,NA,NA,NA,NA,NA,NA,NA,NA,NA,NA,NA,NA,NA
e9375,deep,flow.Sequence,1_12_0,NA,NA,completion,3119.6,203075.8,203072.8,203089.5,206209.1,206209.7,2024-06-17T18:33:31Z,206225.9,Papier,karatasi,d,uchambuzi,usalama,kukataliwa,NA,NA,NA,NULL,NA,NA,NA,NA,NA,NA,NA,NA,NA,NA,NA,NA,NA,NA,NA,NA,NA,NA,NA
e9375,task,flow.Sequence,1_12,NA,NA,completion,3119.6,203075.7,203072.8,203089.5,206209.1,206209.7,2024-06-17T18:33:31Z,206225.9,Papier,karatasi,d,uchambuzi,usalama,kukataliwa,NA,NA,NA,NULL,NA,NA,NA,NA,NA,NA,NA,NA,NA,NA,NA,NA,NA,NA,NA,NA,NA,NA,NA
e9375,Deep Question,html.Page,1_13_0_0,NA,NA,form submission,2736.2999999993,206209.8,206209.1,206225.9,208962.2,208962.5,2024-06-17T18:33:34Z,208967.4,Flexibilität,kubadilika,s,enjini,usikilivu,hesabu,hjzdds,NA,NA,NULL,NA,NA,NA,NA,NA,NA,NA,NA,NA,NA,NA,NA,NA,NA,NA,NA,NA,NA,NA
e9375,Save data screen,canvas.Screen,1_13_0_1,NA,NA,timeout,507.70000000001,208965.9,208961.2,208967.4,209458.3,209463.7,2024-06-17T18:33:34Z,209475.1,Flexibilität,kubadilika,s,enjini,usikilivu,hesabu,NA,NA,0,NULL,NA,NA,NA,NA,NA,NA,NA,NA,NA,NA,NA,NA,NA,NA,NA,NA,NA,NA,NA
e9375,deep,flow.Sequence,1_13_0,NA,NA,completion,3232.4,206209.8,206209.1,206225.9,209458.3,209464,2024-06-17T18:33:34Z,209475.1,Flexibilität,kubadilika,s,enjini,usikilivu,hesabu,NA,NA,NA,NULL,NA,NA,NA,NA,NA,NA,NA,NA,NA,NA,NA,NA,NA,NA,NA,NA,NA,NA,NA
e9375,task,flow.Sequence,1_13,NA,NA,completion,3232.4,206209.7,206209.1,206225.9,209458.3,209464.1,2024-06-17T18:33:34Z,209475.1,Flexibilität,kubadilika,s,enjini,usikilivu,hesabu,NA,NA,NA,NULL,NA,NA,NA,NA,NA,NA,NA,NA,NA,NA,NA,NA,NA,NA,NA,NA,NA,NA,NA
e9375,Deep Question,html.Page,1_14_0_0,NA,NA,form submission,3307.8000000022,209464.2,209458.3,209475.1,212782.9,212783.2,2024-06-17T18:33:38Z,212798.8,Orientierung,urekebisho,d,uelekeo,marekebisho,utunzaji,jzhfd,NA,NA,NULL,NA,NA,NA,NA,NA,NA,NA,NA,NA,NA,NA,NA,NA,NA,NA,NA,NA,NA,NA
e9375,Save data screen,canvas.Screen,1_14_0_1,NA,NA,timeout,505.5,212785.4,212777,212798.8,213287.8,213289.6,2024-06-17T18:33:38Z,213304.3,Orientierung,urekebisho,d,uelekeo,marekebisho,utunzaji,NA,NA,0,NULL,NA,NA,NA,NA,NA,NA,NA,NA,NA,NA,NA,NA,NA,NA,NA,NA,NA,NA,NA
e9375,deep,flow.Sequence,1_14_0,NA,NA,completion,3812.7,209464.2,209458.3,209475.1,213287.8,213290,2024-06-17T18:33:38Z,213304.3,Orientierung,urekebisho,d,uelekeo,marekebisho,utunzaji,NA,NA,NA,NULL,NA,NA,NA,NA,NA,NA,NA,NA,NA,NA,NA,NA,NA,NA,NA,NA,NA,NA,NA
e9375,task,flow.Sequence,1_14,NA,NA,completion,3812.7,209464.2,209458.3,209475.1,213287.8,213290.3,2024-06-17T18:33:38Z,213304.3,Orientierung,urekebisho,d,uelekeo,marekebisho,utunzaji,NA,NA,NA,NULL,NA,NA,NA,NA,NA,NA,NA,NA,NA,NA,NA,NA,NA,NA,NA,NA,NA,NA,NA
e9375,Deep Question,html.Page,1_15_0_0,NA,NA,form submission,3186.6000000022,213290.6,213287.8,213304.3,216490.9,216491.3,2024-06-17T18:33:41Z,216506.9,Fleisch,mshakiki,d,kizunguzungu,mshikamano,angusho,hjzdjd,NA,NA,NULL,NA,NA,NA,NA,NA,NA,NA,NA,NA,NA,NA,NA,NA,NA,NA,NA,NA,NA,NA
e9375,Save data screen,canvas.Screen,1_15_0_1,NA,NA,timeout,496.70000000001,216495,216490.4,216506.9,216987.1,216988.6,2024-06-17T18:33:42Z,217003.6,Fleisch,mshakiki,d,kizunguzungu,mshikamano,angusho,NA,NA,0,NULL,NA,NA,NA,NA,NA,NA,NA,NA,NA,NA,NA,NA,NA,NA,NA,NA,NA,NA,NA
e9375,deep,flow.Sequence,1_15_0,NA,NA,completion,3682.8,213290.5,213287.8,213304.3,216987.1,216988.9,2024-06-17T18:33:42Z,217003.6,Fleisch,mshakiki,d,kizunguzungu,mshikamano,angusho,NA,NA,NA,NULL,NA,NA,NA,NA,NA,NA,NA,NA,NA,NA,NA,NA,NA,NA,NA,NA,NA,NA,NA
e9375,task,flow.Sequence,1_15,NA,NA,completion,3682.8,213290.4,213287.8,213304.3,216987.1,216989.1,2024-06-17T18:33:42Z,217003.6,Fleisch,mshakiki,d,kizunguzungu,mshikamano,angusho,NA,NA,NA,NULL,NA,NA,NA,NA,NA,NA,NA,NA,NA,NA,NA,NA,NA,NA,NA,NA,NA,NA,NA
e9375,retrieval block 1 (cued recall),flow.Loop,1,NA,NA,completion,214668.5,2303.5,2287.604,2318.6,216987.1,216989.5,2024-06-17T18:33:42Z,217003.6,NA,NA,NA,NA,NA,NA,NA,NA,NA,NULL,NA,NA,NA,NA,NA,NA,NA,NA,NA,NA,NA,NA,NA,NA,NA,NA,NA,NA,NA
e9375,Shallow Question,html.Page,2_0_0_0,NA,NA,form submission,10929.599999999,216989.7,216987.1,217003.6,227933.2,227933.7,2024-06-17T18:33:53Z,227947.1,Atmosphäre,angahewa,s,kuteseka,usahihi,kutoamini,angahewa,NA,NA,"c(""distractor1"", ""distractor2"", ""distractor3"")",NA,NA,NA,NA,NA,NA,NA,NA,NA,NA,NA,NA,NA,NA,NA,NA,NA,NA,NA
e9375,Save data screen,canvas.Screen,2_0_0_1,NA,NA,timeout,496.39999999999,227937.1,227933.2,227947.1,228426.8,228427.8,2024-06-17T18:33:53Z,228443.5,Atmosphäre,angahewa,s,kuteseka,usahihi,kutoamini,NA,NA,1,"c(""distractor1"", ""distractor2"", ""distractor3"")",NA,NA,NA,NA,NA,NA,NA,NA,NA,NA,NA,NA,NA,NA,NA,NA,NA,NA,NA
e9375,shallow,flow.Sequence,2_0_0,NA,NA,completion,11423.2,216989.7,216987.1,217003.6,228426.8,228428,2024-06-17T18:33:53Z,228443.5,Atmosphäre,angahewa,s,kuteseka,usahihi,kutoamini,NA,NA,NA,"c(""distractor1"", ""distractor2"", ""distractor3"")",NA,NA,NA,NA,NA,NA,NA,NA,NA,NA,NA,NA,NA,NA,NA,NA,NA,NA,NA
e9375,task,flow.Sequence,2_0,NA,NA,completion,11423.2,216989.7,216987.1,217003.6,228426.8,228428.2,2024-06-17T18:33:53Z,228443.5,Atmosphäre,angahewa,s,kuteseka,usahihi,kutoamini,NA,NA,NA,"c(""distractor1"", ""distractor2"", ""distractor3"")",NA,NA,NA,NA,NA,NA,NA,NA,NA,NA,NA,NA,NA,NA,NA,NA,NA,NA,NA
e9375,Shallow Question,html.Page,2_1_0_0,NA,NA,form submission,10509.100000001,228428.3,228426.8,228443.5,238952.6,238953,2024-06-17T18:34:04Z,238966,Begegnung,kukutana,s,mmasihiya,mpiganaji,husiano,kukutana,NA,NA,"c(""distractor1"", ""distractor2"", ""distractor3"")",NA,NA,NA,NA,NA,NA,NA,NA,NA,NA,NA,NA,NA,NA,NA,NA,NA,NA,NA
e9375,Save data screen,canvas.Screen,2_1_0_1,NA,NA,timeout,493.70000000001,238956.6,238947.946,238966,239443,239444.1,2024-06-17T18:34:04Z,239459.7,Begegnung,kukutana,s,mmasihiya,mpiganaji,husiano,NA,NA,1,"c(""distractor1"", ""distractor2"", ""distractor3"")",NA,NA,NA,NA,NA,NA,NA,NA,NA,NA,NA,NA,NA,NA,NA,NA,NA,NA,NA
e9375,shallow,flow.Sequence,2_1_0,NA,NA,completion,10999.5,228428.3,228426.8,228443.5,239443,239444.2,2024-06-17T18:34:04Z,239459.7,Begegnung,kukutana,s,mmasihiya,mpiganaji,husiano,NA,NA,NA,"c(""distractor1"", ""distractor2"", ""distractor3"")",NA,NA,NA,NA,NA,NA,NA,NA,NA,NA,NA,NA,NA,NA,NA,NA,NA,NA,NA
e9375,task,flow.Sequence,2_1,NA,NA,completion,10999.5,228428.2,228426.8,228443.5,239443,239444.3,2024-06-17T18:34:04Z,239459.7,Begegnung,kukutana,s,mmasihiya,mpiganaji,husiano,NA,NA,NA,"c(""distractor1"", ""distractor2"", ""distractor3"")",NA,NA,NA,NA,NA,NA,NA,NA,NA,NA,NA,NA,NA,NA,NA,NA,NA,NA,NA
e9375,Shallow Question,html.Page,2_2_0_0,NA,NA,form submission,13291.900000001,239444.4,239443,239459.7,252751.6,252751.7,2024-06-17T18:34:17Z,252766.6,Orientierung,urekebisho,d,uelekeo,marekebisho,utunzaji,uelekeo,NA,NA,"c(""distractor1"", ""distractor2"", ""distractor3"")",NA,NA,NA,NA,NA,NA,NA,NA,NA,NA,NA,NA,NA,NA,NA,NA,NA,NA,NA
e9375,Save data screen,canvas.Screen,2_2_0_1,NA,NA,timeout,493.5,252753.6,252747.062,252766.6,253243.4,253244.7,2024-06-17T18:34:18Z,253260.1,Orientierung,urekebisho,d,uelekeo,marekebisho,utunzaji,NA,NA,0,"c(""distractor1"", ""distractor2"", ""distractor3"")",NA,NA,NA,NA,NA,NA,NA,NA,NA,NA,NA,NA,NA,NA,NA,NA,NA,NA,NA
e9375,shallow,flow.Sequence,2_2_0,NA,NA,completion,13783.7,239444.4,239443,239459.7,253243.4,253244.9,2024-06-17T18:34:18Z,253260.1,Orientierung,urekebisho,d,uelekeo,marekebisho,utunzaji,NA,NA,NA,"c(""distractor1"", ""distractor2"", ""distractor3"")",NA,NA,NA,NA,NA,NA,NA,NA,NA,NA,NA,NA,NA,NA,NA,NA,NA,NA,NA
e9375,task,flow.Sequence,2_2,NA,NA,completion,13783.7,239444.4,239443,239459.7,253243.4,253245,2024-06-17T18:34:18Z,253260.1,Orientierung,urekebisho,d,uelekeo,marekebisho,utunzaji,NA,NA,NA,"c(""distractor1"", ""distractor2"", ""distractor3"")",NA,NA,NA,NA,NA,NA,NA,NA,NA,NA,NA,NA,NA,NA,NA,NA,NA,NA,NA
e9375,Shallow Question,html.Page,2_3_0_0,NA,NA,form submission,4557.8000000022,253245.2,253243.4,253260.1,257817.9,257818,2024-06-17T18:34:23Z,257826.5,Respekt,heshima,d,changamnao,upinzani,ufanisi,heshima,NA,NA,"c(""distractor1"", ""distractor2"", ""distractor3"")",NA,NA,NA,NA,NA,NA,NA,NA,NA,NA,NA,NA,NA,NA,NA,NA,NA,NA,NA
e9375,Save data screen,canvas.Screen,2_3_0_1,NA,NA,timeout,498.5,257819.3,257814.836,257826.5,258308.3,258309.5,2024-06-17T18:34:23Z,258325,Respekt,heshima,d,changamnao,upinzani,ufanisi,NA,NA,1,"c(""distractor1"", ""distractor2"", ""distractor3"")",NA,NA,NA,NA,NA,NA,NA,NA,NA,NA,NA,NA,NA,NA,NA,NA,NA,NA,NA
e9375,shallow,flow.Sequence,2_3_0,NA,NA,completion,5048.2,253245.2,253243.4,253260.1,258308.3,258309.8,2024-06-17T18:34:23Z,258325,Respekt,heshima,d,changamnao,upinzani,ufanisi,NA,NA,NA,"c(""distractor1"", ""distractor2"", ""distractor3"")",NA,NA,NA,NA,NA,NA,NA,NA,NA,NA,NA,NA,NA,NA,NA,NA,NA,NA,NA
e9375,task,flow.Sequence,2_3,NA,NA,completion,5048.2,253245.2,253243.4,253260.1,258308.3,258310,2024-06-17T18:34:23Z,258325,Respekt,heshima,d,changamnao,upinzani,ufanisi,NA,NA,NA,"c(""distractor1"", ""distractor2"", ""distractor3"")",NA,NA,NA,NA,NA,NA,NA,NA,NA,NA,NA,NA,NA,NA,NA,NA,NA,NA,NA
e9375,Shallow Question,html.Page,2_4_0_0,NA,NA,form submission,4504.8000000007,258310.2,258308.3,258325,262829.8,262830,2024-06-17T18:34:28Z,262844.8,Papier,karatasi,d,uchambuzi,usalama,kukataliwa,karatasi,NA,NA,"c(""distractor1"", ""distractor2"", ""distractor3"")",NA,NA,NA,NA,NA,NA,NA,NA,NA,NA,NA,NA,NA,NA,NA,NA,NA,NA,NA
e9375,Save data screen,canvas.Screen,2_4_0_1,NA,NA,timeout,497.70000000001,262832.2,262821.8,262844.8,263325.8,263327.2,2024-06-17T18:34:28Z,263342.5,Papier,karatasi,d,uchambuzi,usalama,kukataliwa,NA,NA,1,"c(""distractor1"", ""distractor2"", ""distractor3"")",NA,NA,NA,NA,NA,NA,NA,NA,NA,NA,NA,NA,NA,NA,NA,NA,NA,NA,NA
e9375,shallow,flow.Sequence,2_4_0,NA,NA,completion,5000.8,258310.1,258308.3,258325,263325.8,263327.5,2024-06-17T18:34:28Z,263342.5,Papier,karatasi,d,uchambuzi,usalama,kukataliwa,NA,NA,NA,"c(""distractor1"", ""distractor2"", ""distractor3"")",NA,NA,NA,NA,NA,NA,NA,NA,NA,NA,NA,NA,NA,NA,NA,NA,NA,NA,NA
e9375,task,flow.Sequence,2_4,NA,NA,completion,5000.8,258310.1,258308.3,258325,263325.8,263327.7,2024-06-17T18:34:28Z,263342.5,Papier,karatasi,d,uchambuzi,usalama,kukataliwa,NA,NA,NA,"c(""distractor1"", ""distractor2"", ""distractor3"")",NA,NA,NA,NA,NA,NA,NA,NA,NA,NA,NA,NA,NA,NA,NA,NA,NA,NA,NA
e9375,Shallow Question,html.Page,2_5_0_0,NA,NA,form submission,7807.4000000022,263327.8,263325.8,263342.5,271149.9,271150.4,2024-06-17T18:34:36Z,271155.542,Stimmung,kinyongo,s,kilekile,kisambo,madhehebu,kisambo,NA,NA,"c(""distractor1"", ""distractor2"", ""distractor3"")",NA,NA,NA,NA,NA,NA,NA,NA,NA,NA,NA,NA,NA,NA,NA,NA,NA,NA,NA
e9375,Save data screen,canvas.Screen,2_5_0_1,NA,NA,timeout,506.158,271153.9,271155.542,271155.542,271645,271645.8,2024-06-17T18:34:36Z,271661.7,Stimmung,kinyongo,s,kilekile,kisambo,madhehebu,NA,NA,0,"c(""distractor1"", ""distractor2"", ""distractor3"")",NA,NA,NA,NA,NA,NA,NA,NA,NA,NA,NA,NA,NA,NA,NA,NA,NA,NA,NA
e9375,shallow,flow.Sequence,2_5_0,NA,NA,completion,8302.5,263327.8,263325.8,263342.5,271645,271645.9,2024-06-17T18:34:36Z,271661.7,Stimmung,kinyongo,s,kilekile,kisambo,madhehebu,NA,NA,NA,"c(""distractor1"", ""distractor2"", ""distractor3"")",NA,NA,NA,NA,NA,NA,NA,NA,NA,NA,NA,NA,NA,NA,NA,NA,NA,NA,NA
e9375,task,flow.Sequence,2_5,NA,NA,completion,8302.5,263327.7,263325.8,263342.5,271645,271645.9,2024-06-17T18:34:36Z,271661.7,Stimmung,kinyongo,s,kilekile,kisambo,madhehebu,NA,NA,NA,"c(""distractor1"", ""distractor2"", ""distractor3"")",NA,NA,NA,NA,NA,NA,NA,NA,NA,NA,NA,NA,NA,NA,NA,NA,NA,NA,NA
e9375,Shallow Question,html.Page,2_6_0_0,NA,NA,form submission,7578.7000000022,271646,271645,271661.7,279240.4,279240.7,2024-06-17T18:34:44Z,279254.6,Entwicklung,maendeleo,s,uangavu,mshindwa,badiliko,maendeleo,NA,NA,"c(""distractor1"", ""distractor2"", ""distractor3"")",NA,NA,NA,NA,NA,NA,NA,NA,NA,NA,NA,NA,NA,NA,NA,NA,NA,NA,NA
e9375,Save data screen,canvas.Screen,2_6_0_1,NA,NA,timeout,501.90000000002,279243.4,279236.9,279254.6,279739.9,279740.7,2024-06-17T18:34:44Z,279756.5,Entwicklung,maendeleo,s,uangavu,mshindwa,badiliko,NA,NA,1,"c(""distractor1"", ""distractor2"", ""distractor3"")",NA,NA,NA,NA,NA,NA,NA,NA,NA,NA,NA,NA,NA,NA,NA,NA,NA,NA,NA
e9375,shallow,flow.Sequence,2_6_0,NA,NA,completion,8078.2,271646,271645,271661.7,279739.9,279740.8,2024-06-17T18:34:44Z,279756.5,Entwicklung,maendeleo,s,uangavu,mshindwa,badiliko,NA,NA,NA,"c(""distractor1"", ""distractor2"", ""distractor3"")",NA,NA,NA,NA,NA,NA,NA,NA,NA,NA,NA,NA,NA,NA,NA,NA,NA,NA,NA
e9375,task,flow.Sequence,2_6,NA,NA,completion,8078.2,271646,271645,271661.7,279739.9,279740.9,2024-06-17T18:34:44Z,279756.5,Entwicklung,maendeleo,s,uangavu,mshindwa,badiliko,NA,NA,NA,"c(""distractor1"", ""distractor2"", ""distractor3"")",NA,NA,NA,NA,NA,NA,NA,NA,NA,NA,NA,NA,NA,NA,NA,NA,NA,NA,NA
e9375,Shallow Question,html.Page,2_7_0_0,NA,NA,form submission,5540.5,279740.9,279739.9,279756.5,285297,285297.2,2024-06-17T18:34:50Z,285307.2,Vorwurf,mashtaka,s,msukumo,mtangulizi,uenyekiti,msukumo,NA,NA,"c(""distractor1"", ""distractor2"", ""distractor3"")",NA,NA,NA,NA,NA,NA,NA,NA,NA,NA,NA,NA,NA,NA,NA,NA,NA,NA,NA
e9375,Save data screen,canvas.Screen,2_7_0_1,NA,NA,timeout,492,285299,285292.164,285307.2,285782.5,285783.3,2024-06-17T18:34:50Z,285799.2,Vorwurf,mashtaka,s,msukumo,mtangulizi,uenyekiti,NA,NA,0,"c(""distractor1"", ""distractor2"", ""distractor3"")",NA,NA,NA,NA,NA,NA,NA,NA,NA,NA,NA,NA,NA,NA,NA,NA,NA,NA,NA
e9375,shallow,flow.Sequence,2_7_0,NA,NA,completion,6026,279740.9,279739.9,279756.5,285782.5,285783.4,2024-06-17T18:34:50Z,285799.2,Vorwurf,mashtaka,s,msukumo,mtangulizi,uenyekiti,NA,NA,NA,"c(""distractor1"", ""distractor2"", ""distractor3"")",NA,NA,NA,NA,NA,NA,NA,NA,NA,NA,NA,NA,NA,NA,NA,NA,NA,NA,NA
e9375,task,flow.Sequence,2_7,NA,NA,completion,6026,279740.9,279739.9,279756.5,285782.5,285783.4,2024-06-17T18:34:50Z,285799.2,Vorwurf,mashtaka,s,msukumo,mtangulizi,uenyekiti,NA,NA,NA,"c(""distractor1"", ""distractor2"", ""distractor3"")",NA,NA,NA,NA,NA,NA,NA,NA,NA,NA,NA,NA,NA,NA,NA,NA,NA,NA,NA
e9375,Shallow Question,html.Page,2_8_0_0,NA,NA,form submission,5476.9000000015,285783.5,285782.5,285799.2,291276.1,291276.6,2024-06-17T18:34:56Z,291288.2,Genehmigung,idhini,s,mwanamke,itikadi,fedheha,idhini,NA,NA,"c(""distractor1"", ""distractor2"", ""distractor3"")",NA,NA,NA,NA,NA,NA,NA,NA,NA,NA,NA,NA,NA,NA,NA,NA,NA,NA,NA
e9375,Save data screen,canvas.Screen,2_8_0_1,NA,NA,timeout,495,291280.4,291279.706,291288.2,291766.5,291767,2024-06-17T18:34:56Z,291783.2,Genehmigung,idhini,s,mwanamke,itikadi,fedheha,NA,NA,1,"c(""distractor1"", ""distractor2"", ""distractor3"")",NA,NA,NA,NA,NA,NA,NA,NA,NA,NA,NA,NA,NA,NA,NA,NA,NA,NA,NA
e9375,shallow,flow.Sequence,2_8_0,NA,NA,completion,5967.3,285783.5,285782.5,285799.2,291766.5,291767.1,2024-06-17T18:34:56Z,291783.2,Genehmigung,idhini,s,mwanamke,itikadi,fedheha,NA,NA,NA,"c(""distractor1"", ""distractor2"", ""distractor3"")",NA,NA,NA,NA,NA,NA,NA,NA,NA,NA,NA,NA,NA,NA,NA,NA,NA,NA,NA
e9375,task,flow.Sequence,2_8,NA,NA,completion,5967.3,285783.5,285782.5,285799.2,291766.5,291767.2,2024-06-17T18:34:56Z,291783.2,Genehmigung,idhini,s,mwanamke,itikadi,fedheha,NA,NA,NA,"c(""distractor1"", ""distractor2"", ""distractor3"")",NA,NA,NA,NA,NA,NA,NA,NA,NA,NA,NA,NA,NA,NA,NA,NA,NA,NA,NA
e9375,Shallow Question,html.Page,2_9_0_0,NA,NA,form submission,5400.4999999992,291767.2,291766.5,291783.2,297183.7,297184,2024-06-17T18:35:02Z,297197.7,Fleisch,mshakiki,d,kizunguzungu,mshikamano,angusho,kizunguzungu,NA,NA,"c(""distractor1"", ""distractor2"", ""distractor3"")",NA,NA,NA,NA,NA,NA,NA,NA,NA,NA,NA,NA,NA,NA,NA,NA,NA,NA,NA
e9375,Save data screen,canvas.Screen,2_9_0_1,NA,NA,timeout,498.89999999997,297187,297175.614,297197.7,297680,297681.5,2024-06-17T18:35:02Z,297696.6,Fleisch,mshakiki,d,kizunguzungu,mshikamano,angusho,NA,NA,0,"c(""distractor1"", ""distractor2"", ""distractor3"")",NA,NA,NA,NA,NA,NA,NA,NA,NA,NA,NA,NA,NA,NA,NA,NA,NA,NA,NA
e9375,shallow,flow.Sequence,2_9_0,NA,NA,completion,5896.8,291767.2,291766.5,291783.2,297680,297681.6,2024-06-17T18:35:02Z,297696.6,Fleisch,mshakiki,d,kizunguzungu,mshikamano,angusho,NA,NA,NA,"c(""distractor1"", ""distractor2"", ""distractor3"")",NA,NA,NA,NA,NA,NA,NA,NA,NA,NA,NA,NA,NA,NA,NA,NA,NA,NA,NA
e9375,task,flow.Sequence,2_9,NA,NA,completion,5896.8,291767.2,291766.5,291783.2,297680,297681.7,2024-06-17T18:35:02Z,297696.6,Fleisch,mshakiki,d,kizunguzungu,mshikamano,angusho,NA,NA,NA,"c(""distractor1"", ""distractor2"", ""distractor3"")",NA,NA,NA,NA,NA,NA,NA,NA,NA,NA,NA,NA,NA,NA,NA,NA,NA,NA,NA
e9375,Shallow Question,html.Page,2_10_0_0,NA,NA,form submission,6675.8000000023,297681.7,297680,297696.6,304372.4,304372.6,2024-06-17T18:35:09Z,304405.1,Niveau,kiwango,d,usimamizi,mwamali,mshairi,mshairi,NA,NA,"c(""distractor1"", ""distractor2"", ""distractor3"")",NA,NA,NA,NA,NA,NA,NA,NA,NA,NA,NA,NA,NA,NA,NA,NA,NA,NA,NA
e9375,Save data screen,canvas.Screen,2_10_0_1,NA,NA,timeout,505.40000000002,304375.5,304370,304405.1,304893.8,304894.8,2024-06-17T18:35:10Z,304910.5,Niveau,kiwango,d,usimamizi,mwamali,mshairi,NA,NA,0,"c(""distractor1"", ""distractor2"", ""distractor3"")",NA,NA,NA,NA,NA,NA,NA,NA,NA,NA,NA,NA,NA,NA,NA,NA,NA,NA,NA
e9375,shallow,flow.Sequence,2_10_0,NA,NA,completion,7197.2,297681.7,297680,297696.6,304893.8,304894.9,2024-06-17T18:35:10Z,304910.5,Niveau,kiwango,d,usimamizi,mwamali,mshairi,NA,NA,NA,"c(""distractor1"", ""distractor2"", ""distractor3"")",NA,NA,NA,NA,NA,NA,NA,NA,NA,NA,NA,NA,NA,NA,NA,NA,NA,NA,NA
e9375,task,flow.Sequence,2_10,NA,NA,completion,7197.2,297681.7,297680,297696.6,304893.8,304894.9,2024-06-17T18:35:10Z,304910.5,Niveau,kiwango,d,usimamizi,mwamali,mshairi,NA,NA,NA,"c(""distractor1"", ""distractor2"", ""distractor3"")",NA,NA,NA,NA,NA,NA,NA,NA,NA,NA,NA,NA,NA,NA,NA,NA,NA,NA,NA
e9375,Shallow Question,html.Page,2_11_0_0,NA,NA,form submission,7968.8000000007,304895,304893.8,304910.5,312879.3,312879.6,2024-06-17T18:35:17Z,312881.5,Betrüger,mdanganyifu,s,mwanamuziki,wastani,mahakama,mdanganyifu,NA,NA,"c(""distractor1"", ""distractor2"", ""distractor3"")",NA,NA,NA,NA,NA,NA,NA,NA,NA,NA,NA,NA,NA,NA,NA,NA,NA,NA,NA
e9375,Save data screen,canvas.Screen,2_11_0_1,NA,NA,timeout,495.79999999999,312881.9,312872.854,312881.5,313360.5,313361.2,2024-06-17T18:35:18Z,313377.3,Betrüger,mdanganyifu,s,mwanamuziki,wastani,mahakama,NA,NA,1,"c(""distractor1"", ""distractor2"", ""distractor3"")",NA,NA,NA,NA,NA,NA,NA,NA,NA,NA,NA,NA,NA,NA,NA,NA,NA,NA,NA
e9375,shallow,flow.Sequence,2_11_0,NA,NA,completion,8450,304894.9,304893.8,304910.5,313360.5,313361.4,2024-06-17T18:35:18Z,313377.3,Betrüger,mdanganyifu,s,mwanamuziki,wastani,mahakama,NA,NA,NA,"c(""distractor1"", ""distractor2"", ""distractor3"")",NA,NA,NA,NA,NA,NA,NA,NA,NA,NA,NA,NA,NA,NA,NA,NA,NA,NA,NA
e9375,task,flow.Sequence,2_11,NA,NA,completion,8450,304894.9,304893.8,304910.5,313360.5,313361.5,2024-06-17T18:35:18Z,313377.3,Betrüger,mdanganyifu,s,mwanamuziki,wastani,mahakama,NA,NA,NA,"c(""distractor1"", ""distractor2"", ""distractor3"")",NA,NA,NA,NA,NA,NA,NA,NA,NA,NA,NA,NA,NA,NA,NA,NA,NA,NA,NA
e9375,Shallow Question,html.Page,2_12_0_0,NA,NA,form submission,10284.7,313361.5,313360.5,313377.3,323662,323662.3,2024-06-17T18:35:28Z,323669,Wechsel,ugeuzaji,d,utambulisho,kujenga,wasiwasi,wasiwasi,NA,NA,"c(""distractor1"", ""distractor2"", ""distractor3"")",NA,NA,NA,NA,NA,NA,NA,NA,NA,NA,NA,NA,NA,NA,NA,NA,NA,NA,NA
e9375,Save data screen,canvas.Screen,2_12_0_1,NA,NA,timeout,493.09999999998,323665.7,323655.618,323669,324145.4,324147.3,2024-06-17T18:35:29Z,324162.1,Wechsel,ugeuzaji,d,utambulisho,kujenga,wasiwasi,NA,NA,0,"c(""distractor1"", ""distractor2"", ""distractor3"")",NA,NA,NA,NA,NA,NA,NA,NA,NA,NA,NA,NA,NA,NA,NA,NA,NA,NA,NA
e9375,shallow,flow.Sequence,2_12_0,NA,NA,completion,10768.1,313361.5,313360.5,313377.3,324145.4,324147.7,2024-06-17T18:35:29Z,324162.1,Wechsel,ugeuzaji,d,utambulisho,kujenga,wasiwasi,NA,NA,NA,"c(""distractor1"", ""distractor2"", ""distractor3"")",NA,NA,NA,NA,NA,NA,NA,NA,NA,NA,NA,NA,NA,NA,NA,NA,NA,NA,NA
e9375,task,flow.Sequence,2_12,NA,NA,completion,10768.1,313361.5,313360.5,313377.3,324145.4,324147.9,2024-06-17T18:35:29Z,324162.1,Wechsel,ugeuzaji,d,utambulisho,kujenga,wasiwasi,NA,NA,NA,"c(""distractor1"", ""distractor2"", ""distractor3"")",NA,NA,NA,NA,NA,NA,NA,NA,NA,NA,NA,NA,NA,NA,NA,NA,NA,NA,NA
e9375,Shallow Question,html.Page,2_13_0_0,NA,NA,form submission,9367.0000000015,324148.1,324145.4,324162.1,333529.1,333529.5,2024-06-17T18:35:38Z,333542,Erneuerung,ukarabati,d,ushawishi,ukalifu,unyonyaji,unyonyaji,NA,NA,"c(""distractor1"", ""distractor2"", ""distractor3"")",NA,NA,NA,NA,NA,NA,NA,NA,NA,NA,NA,NA,NA,NA,NA,NA,NA,NA,NA
e9375,Save data screen,canvas.Screen,2_13_0_1,NA,NA,timeout,501.40000000002,333532.8,333529.344,333542,334026.7,334028,2024-06-17T18:35:39Z,334043.4,Erneuerung,ukarabati,d,ushawishi,ukalifu,unyonyaji,NA,NA,0,"c(""distractor1"", ""distractor2"", ""distractor3"")",NA,NA,NA,NA,NA,NA,NA,NA,NA,NA,NA,NA,NA,NA,NA,NA,NA,NA,NA
e9375,shallow,flow.Sequence,2_13_0,NA,NA,completion,9864.6,324148.1,324145.4,324162.1,334026.7,334028.2,2024-06-17T18:35:39Z,334043.4,Erneuerung,ukarabati,d,ushawishi,ukalifu,unyonyaji,NA,NA,NA,"c(""distractor1"", ""distractor2"", ""distractor3"")",NA,NA,NA,NA,NA,NA,NA,NA,NA,NA,NA,NA,NA,NA,NA,NA,NA,NA,NA
e9375,task,flow.Sequence,2_13,NA,NA,completion,9864.6,324148,324145.4,324162.1,334026.7,334028.3,2024-06-17T18:35:39Z,334043.4,Erneuerung,ukarabati,d,ushawishi,ukalifu,unyonyaji,NA,NA,NA,"c(""distractor1"", ""distractor2"", ""distractor3"")",NA,NA,NA,NA,NA,NA,NA,NA,NA,NA,NA,NA,NA,NA,NA,NA,NA,NA,NA
e9375,Shallow Question,html.Page,2_14_0_0,NA,NA,form submission,6391.6,334028.4,334026.7,334043.4,340435,340435.2,2024-06-17T18:35:45Z,340450.1,Flexibilität,kubadilika,s,enjini,usikilivu,hesabu,hesabu,NA,NA,"c(""distractor1"", ""distractor2"", ""distractor3"")",NA,NA,NA,NA,NA,NA,NA,NA,NA,NA,NA,NA,NA,NA,NA,NA,NA,NA,NA
e9375,Save data screen,canvas.Screen,2_14_0_1,NA,NA,timeout,500.40000000002,340437.3,340434.246,340450.1,340933.7,340935.3,2024-06-17T18:35:46Z,340950.5,Flexibilität,kubadilika,s,enjini,usikilivu,hesabu,NA,NA,0,"c(""distractor1"", ""distractor2"", ""distractor3"")",NA,NA,NA,NA,NA,NA,NA,NA,NA,NA,NA,NA,NA,NA,NA,NA,NA,NA,NA
e9375,shallow,flow.Sequence,2_14_0,NA,NA,completion,6890.3,334028.4,334026.7,334043.4,340933.7,340935.5,2024-06-17T18:35:46Z,340950.5,Flexibilität,kubadilika,s,enjini,usikilivu,hesabu,NA,NA,NA,"c(""distractor1"", ""distractor2"", ""distractor3"")",NA,NA,NA,NA,NA,NA,NA,NA,NA,NA,NA,NA,NA,NA,NA,NA,NA,NA,NA
e9375,task,flow.Sequence,2_14,NA,NA,completion,6890.3,334028.4,334026.7,334043.4,340933.7,340935.6,2024-06-17T18:35:46Z,340950.5,Flexibilität,kubadilika,s,enjini,usikilivu,hesabu,NA,NA,NA,"c(""distractor1"", ""distractor2"", ""distractor3"")",NA,NA,NA,NA,NA,NA,NA,NA,NA,NA,NA,NA,NA,NA,NA,NA,NA,NA,NA
e9375,Shallow Question,html.Page,2_15_0_0,NA,NA,form submission,13032.699999999,340935.8,340933.7,340950.5,353983.2,353983.6,2024-06-17T18:35:59Z,353996.6,Integrität,uadilifu,d,muungano,mtiririko,upunguaji,muungano,NA,NA,"c(""distractor1"", ""distractor2"", ""distractor3"")",NA,NA,NA,NA,NA,NA,NA,NA,NA,NA,NA,NA,NA,NA,NA,NA,NA,NA,NA
e9375,Save data screen,canvas.Screen,2_15_0_1,NA,NA,timeout,507.90000000002,353986.8,353987.216,353996.6,354487.8,354488.3,2024-06-17T18:35:59Z,354504.5,Integrität,uadilifu,d,muungano,mtiririko,upunguaji,NA,NA,0,"c(""distractor1"", ""distractor2"", ""distractor3"")",NA,NA,NA,NA,NA,NA,NA,NA,NA,NA,NA,NA,NA,NA,NA,NA,NA,NA,NA
e9375,shallow,flow.Sequence,2_15_0,NA,NA,completion,13537.3,340935.7,340933.7,340950.5,354487.8,354488.5,2024-06-17T18:35:59Z,354504.5,Integrität,uadilifu,d,muungano,mtiririko,upunguaji,NA,NA,NA,"c(""distractor1"", ""distractor2"", ""distractor3"")",NA,NA,NA,NA,NA,NA,NA,NA,NA,NA,NA,NA,NA,NA,NA,NA,NA,NA,NA
e9375,task,flow.Sequence,2_15,NA,NA,completion,13537.3,340935.7,340933.7,340950.5,354487.8,354488.6,2024-06-17T18:35:59Z,354504.5,Integrität,uadilifu,d,muungano,mtiririko,upunguaji,NA,NA,NA,"c(""distractor1"", ""distractor2"", ""distractor3"")",NA,NA,NA,NA,NA,NA,NA,NA,NA,NA,NA,NA,NA,NA,NA,NA,NA,NA,NA
e9375,retrieval block 2 (multiple choice),flow.Loop,2,NA,NA,completion,137484.2,216989.6,216987.1,217003.6,354487.8,354488.8,2024-06-17T18:35:59Z,354504.5,NA,NA,NA,NA,NA,NA,NA,NA,NA,"c(""distractor1"", ""distractor2"", ""distractor3"")",NA,NA,NA,NA,NA,NA,NA,NA,NA,NA,NA,NA,NA,NA,NA,NA,NA,NA,NA
e9375,End,canvas.Screen,3,NA,keypress(Space),response,5321.6999999993,354488.8,354487.8,354504.5,359826.2,359828.5,2024-06-17T18:36:04Z,359843.7,NA,NA,NA,NA,NA,NA,NA,NA,NA,NULL,NA,NA,NA,NA,NA,NA,NA,NA,NA,NA,NA,NA,NA,NA,NA,NA,NA,NA,NA
e9375,root,flow.Sequence,NA,NA,NA,completion,358903.8,908.5,905.69,922.4,359826.2,359828.9,2024-06-17T18:36:04Z,359843.7,NA,NA,NA,NA,NA,NA,NA,NA,NA,NULL,NA,NA,NA,NA,NA,NA,NA,NA,NA,NA,NA,NA,NA,NA,NA,NA,NA,NA,NA
