observation,sender,sender_type,sender_id,response,response_action,ended_on,duration,time_run,time_render,time_show,time_end,time_commit,timestamp,time_switch,distractors,german,swahili,enc,distractor1,distractor2,distractor3,response_2,x,correct,x_2,url_vp,url_sess,meta_labjs_version,meta_location,meta_user_agent,meta_platform,meta_language,meta_locale,meta_time_zone,meta_timezone_offset,meta_screen_width,meta_screen_height,meta_scroll_width,meta_scroll_height,meta_window_inner_width,meta_window_inner_height,meta_device_pixel_ratio,meta_labjs_build_flavor,meta_labjs_build_commit
a1b98,Introduction general,canvas.Screen,0,weiter,keypress(q),response,1315.6,243,241.58,258.4,1574,1587,2023-12-02T10:09:45Z,1587.1,NULL,NA,NA,NA,NA,NA,NA,NA,NA,NA,NA,191,3,20.2.4,https://neurocog.fernuni.ch/studies/vweber/sliechti/encoding_immediate/index.html?vp=191&sess=3,Mozilla/5.0 (Windows NT 10.0; Win64; x64; rv:120.0) Gecko/20100101 Firefox/120.0,Win32,de,de-CH,Europe/Zurich,-60,1280,720,1280,587,1280,587,1.5,production,f5b4a49f956347addd546a832a3327688c2c0fef
a1b98,Introduction practice,canvas.Screen,1_0,NA,keypress(Space),response,1799.9,1587,1586.96,1587.1,3387,3396,2023-12-02T10:09:46Z,3396.86,NULL,NA,NA,NA,NA,NA,NA,NA,NA,NA,NA,NA,NA,NA,NA,NA,NA,NA,NA,NA,NA,NA,NA,NA,NA,NA,NA,NA,NA,NA
a1b98,deep,flow.Sequence,1_1_0_0,NA,NA,skipped,NA,3396,NA,NA,3387,3396,2023-12-02T10:09:46Z,3396.86,"c(""distractor1"", ""distractor2"", ""distractor3"")",Gegenwart,hadhara,s,katiba,jokofu,mikopo,NA,NA,NA,NA,NA,NA,NA,NA,NA,NA,NA,NA,NA,NA,NA,NA,NA,NA,NA,NA,NA,NA,NA
a1b98,Shallow Question,html.Page,1_1_0_1_0,NA,NA,form submission,2358.14,3396,3396.7,3396.86,5755,5758,2023-12-02T10:09:49Z,5774.24,"c(""distractor1"", ""distractor2"", ""distractor3"")",Gegenwart,hadhara,s,katiba,jokofu,mikopo,hadhara,NA,NA,NA,NA,NA,NA,NA,NA,NA,NA,NA,NA,NA,NA,NA,NA,NA,NA,NA,NA,NA,NA
a1b98,"""Richtig""-Screen",canvas.Screen,1_1_0_1_1,NA,NA,timeout,4999.42,5760,5751.26,5774.24,10757.22,10763,2023-12-02T10:09:54Z,10773.66,"c(""distractor1"", ""distractor2"", ""distractor3"")",Gegenwart,hadhara,s,katiba,jokofu,mikopo,NA,NA,1,NA,NA,NA,NA,NA,NA,NA,NA,NA,NA,NA,NA,NA,NA,NA,NA,NA,NA,NA,NA
a1b98,"""Falsch""-Screen",canvas.Screen,1_1_0_1_2,NA,NA,skipped,NA,10776,NA,NA,10757.22,10776,2023-12-02T10:09:54Z,10773.66,"c(""distractor1"", ""distractor2"", ""distractor3"")",Gegenwart,hadhara,s,katiba,jokofu,mikopo,NA,NA,NA,NA,NA,NA,NA,NA,NA,NA,NA,NA,NA,NA,NA,NA,NA,NA,NA,NA,NA,NA,NA
a1b98,shallow,flow.Sequence,1_1_0_1,NA,NA,completion,7360.36,3396,3396.7,3396.86,10757.22,10777,2023-12-02T10:09:54Z,10773.66,"c(""distractor1"", ""distractor2"", ""distractor3"")",Gegenwart,hadhara,s,katiba,jokofu,mikopo,NA,NA,NA,NA,NA,NA,NA,NA,NA,NA,NA,NA,NA,NA,NA,NA,NA,NA,NA,NA,NA,NA,NA
a1b98,task,flow.Sequence,1_1_0,NA,NA,completion,7360.36,3396,3396.7,3396.86,10757.22,10777,2023-12-02T10:09:54Z,10773.66,"c(""distractor1"", ""distractor2"", ""distractor3"")",Gegenwart,hadhara,s,katiba,jokofu,mikopo,NA,NA,NA,NA,NA,NA,NA,NA,NA,NA,NA,NA,NA,NA,NA,NA,NA,NA,NA,NA,NA,NA,NA
a1b98,Deep Question,html.Page,1_1_1_0_0,NA,NA,form submission,2189.34,10778,10757.22,10773.66,12963,12965,2023-12-02T10:09:56Z,12973.36,"c(""distractor1"", ""distractor2"", ""distractor3"")",Qualität,mtindo,d,NA,NA,NA,sdfj,NA,NA,NA,NA,NA,NA,NA,NA,NA,NA,NA,NA,NA,NA,NA,NA,NA,NA,NA,NA,NA,NA
a1b98,"""Richtig""-Screen",canvas.Screen,1_1_1_0_1,NA,NA,skipped,NA,12972,NA,NA,12963,12972,2023-12-02T10:09:56Z,12973.36,"c(""distractor1"", ""distractor2"", ""distractor3"")",Qualität,mtindo,d,NA,NA,NA,NA,NA,NA,NA,NA,NA,NA,NA,NA,NA,NA,NA,NA,NA,NA,NA,NA,NA,NA,NA,NA,NA,NA
a1b98,"""Falsch""-Screen",canvas.Screen,1_1_1_0_2,NA,NA,timeout,4999.34,12975,12960.7,12973.36,17956.14,17958,2023-12-02T10:10:01Z,17972.7,"c(""distractor1"", ""distractor2"", ""distractor3"")",Qualität,mtindo,d,NA,NA,NA,NA,NA,0,NA,NA,NA,NA,NA,NA,NA,NA,NA,NA,NA,NA,NA,NA,NA,NA,NA,NA,NA,NA
a1b98,deep,flow.Sequence,1_1_1_0,NA,NA,completion,7182.48,10778,10757.22,10773.66,17956.14,17959,2023-12-02T10:10:01Z,17972.7,"c(""distractor1"", ""distractor2"", ""distractor3"")",Qualität,mtindo,d,NA,NA,NA,NA,NA,NA,NA,NA,NA,NA,NA,NA,NA,NA,NA,NA,NA,NA,NA,NA,NA,NA,NA,NA,NA,NA
a1b98,shallow,flow.Sequence,1_1_1_1,NA,NA,skipped,NA,17960,NA,NA,17956.14,17960,2023-12-02T10:10:01Z,17972.7,"c(""distractor1"", ""distractor2"", ""distractor3"")",Qualität,mtindo,d,NA,NA,NA,NA,NA,NA,NA,NA,NA,NA,NA,NA,NA,NA,NA,NA,NA,NA,NA,NA,NA,NA,NA,NA,NA,NA
a1b98,task,flow.Sequence,1_1_1,NA,NA,completion,7182.48,10778,10757.22,10773.66,17956.14,17961,2023-12-02T10:10:01Z,17972.7,"c(""distractor1"", ""distractor2"", ""distractor3"")",Qualität,mtindo,d,NA,NA,NA,NA,NA,NA,NA,NA,NA,NA,NA,NA,NA,NA,NA,NA,NA,NA,NA,NA,NA,NA,NA,NA,NA,NA
a1b98,deep,flow.Sequence,1_1_2_0,NA,NA,skipped,NA,17962,NA,NA,17956.14,17963,2023-12-02T10:10:01Z,17972.7,"c(""distractor1"", ""distractor2"", ""distractor3"")",Rückhalt,msaada,s,muhula,auwali,kiwimbe,NA,NA,NA,NA,NA,NA,NA,NA,NA,NA,NA,NA,NA,NA,NA,NA,NA,NA,NA,NA,NA,NA,NA
a1b98,Shallow Question,html.Page,1_1_2_1_0,NA,NA,form submission,2623.3,17963,17956.14,17972.7,20596,20596,2023-12-02T10:10:04Z,20595.42,"c(""distractor1"", ""distractor2"", ""distractor3"")",Rückhalt,msaada,s,muhula,auwali,kiwimbe,auwali,NA,NA,NA,NA,NA,NA,NA,NA,NA,NA,NA,NA,NA,NA,NA,NA,NA,NA,NA,NA,NA,NA
a1b98,"""Richtig""-Screen",canvas.Screen,1_1_2_1_1,NA,NA,skipped,NA,20598,NA,NA,20596,20599,2023-12-02T10:10:04Z,20595.42,"c(""distractor1"", ""distractor2"", ""distractor3"")",Rückhalt,msaada,s,muhula,auwali,kiwimbe,NA,NA,NA,NA,NA,NA,NA,NA,NA,NA,NA,NA,NA,NA,NA,NA,NA,NA,NA,NA,NA,NA,NA
a1b98,"""Falsch""-Screen",canvas.Screen,1_1_2_1_2,NA,NA,timeout,4993.02,20601,20595.18,20595.42,25571.78,25573,2023-12-02T10:10:09Z,25588.44,"c(""distractor1"", ""distractor2"", ""distractor3"")",Rückhalt,msaada,s,muhula,auwali,kiwimbe,NA,NA,0,NA,NA,NA,NA,NA,NA,NA,NA,NA,NA,NA,NA,NA,NA,NA,NA,NA,NA,NA,NA
a1b98,shallow,flow.Sequence,1_1_2_1,NA,NA,completion,7599.08,17963,17956.14,17972.7,25571.78,25574,2023-12-02T10:10:09Z,25588.44,"c(""distractor1"", ""distractor2"", ""distractor3"")",Rückhalt,msaada,s,muhula,auwali,kiwimbe,NA,NA,NA,NA,NA,NA,NA,NA,NA,NA,NA,NA,NA,NA,NA,NA,NA,NA,NA,NA,NA,NA,NA
a1b98,task,flow.Sequence,1_1_2,NA,NA,completion,7599.08,17962,17956.14,17972.7,25571.78,25574,2023-12-02T10:10:09Z,25588.44,"c(""distractor1"", ""distractor2"", ""distractor3"")",Rückhalt,msaada,s,muhula,auwali,kiwimbe,NA,NA,NA,NA,NA,NA,NA,NA,NA,NA,NA,NA,NA,NA,NA,NA,NA,NA,NA,NA,NA,NA,NA
a1b98,Deep Question,html.Page,1_1_3_0_0,NA,NA,form submission,1933.56,25574,25571.78,25588.44,27522,27522,2023-12-02T10:10:11Z,27521.48,"c(""distractor1"", ""distractor2"", ""distractor3"")",Schatten,kivuli,d,NA,NA,NA,yf,NA,NA,NA,NA,NA,NA,NA,NA,NA,NA,NA,NA,NA,NA,NA,NA,NA,NA,NA,NA,NA,NA
a1b98,"""Richtig""-Screen",canvas.Screen,1_1_3_0_1,NA,NA,skipped,NA,27525,NA,NA,27522,27526,2023-12-02T10:10:11Z,27521.48,"c(""distractor1"", ""distractor2"", ""distractor3"")",Schatten,kivuli,d,NA,NA,NA,NA,NA,NA,NA,NA,NA,NA,NA,NA,NA,NA,NA,NA,NA,NA,NA,NA,NA,NA,NA,NA,NA,NA
a1b98,"""Falsch""-Screen",canvas.Screen,1_1_3_0_2,NA,NA,timeout,4999.34,27528,27520.64,27521.48,32504.26,32505,2023-12-02T10:10:15Z,32520.82,"c(""distractor1"", ""distractor2"", ""distractor3"")",Schatten,kivuli,d,NA,NA,NA,NA,NA,0,NA,NA,NA,NA,NA,NA,NA,NA,NA,NA,NA,NA,NA,NA,NA,NA,NA,NA,NA,NA
a1b98,deep,flow.Sequence,1_1_3_0,NA,NA,completion,6915.82,25574,25571.78,25588.44,32504.26,32506,2023-12-02T10:10:15Z,32520.82,"c(""distractor1"", ""distractor2"", ""distractor3"")",Schatten,kivuli,d,NA,NA,NA,NA,NA,NA,NA,NA,NA,NA,NA,NA,NA,NA,NA,NA,NA,NA,NA,NA,NA,NA,NA,NA,NA,NA
a1b98,shallow,flow.Sequence,1_1_3_1,NA,NA,skipped,NA,32506,NA,NA,32504.26,32506,2023-12-02T10:10:15Z,32520.82,"c(""distractor1"", ""distractor2"", ""distractor3"")",Schatten,kivuli,d,NA,NA,NA,NA,NA,NA,NA,NA,NA,NA,NA,NA,NA,NA,NA,NA,NA,NA,NA,NA,NA,NA,NA,NA,NA,NA
a1b98,task,flow.Sequence,1_1_3,NA,NA,completion,6915.82,25574,25571.78,25588.44,32504.26,32508,2023-12-02T10:10:15Z,32520.82,"c(""distractor1"", ""distractor2"", ""distractor3"")",Schatten,kivuli,d,NA,NA,NA,NA,NA,NA,NA,NA,NA,NA,NA,NA,NA,NA,NA,NA,NA,NA,NA,NA,NA,NA,NA,NA,NA,NA
a1b98,deep,flow.Sequence,1_1_4_0,NA,NA,skipped,NA,32508,NA,NA,32504.26,32508,2023-12-02T10:10:15Z,32520.82,"c(""distractor1"", ""distractor2"", ""distractor3"")",Kritik,lawama,s,dereva,nafasi,mawazo,NA,NA,NA,NA,NA,NA,NA,NA,NA,NA,NA,NA,NA,NA,NA,NA,NA,NA,NA,NA,NA,NA,NA
a1b98,Shallow Question,html.Page,1_1_4_1_0,NA,NA,form submission,4069.18,32509,32504.26,32520.82,36590,36592,2023-12-02T10:10:20Z,36590.06,"c(""distractor1"", ""distractor2"", ""distractor3"")",Kritik,lawama,s,dereva,nafasi,mawazo,dereva,NA,NA,NA,NA,NA,NA,NA,NA,NA,NA,NA,NA,NA,NA,NA,NA,NA,NA,NA,NA,NA,NA
a1b98,"""Richtig""-Screen",canvas.Screen,1_1_4_1_1,NA,NA,skipped,NA,36594,NA,NA,36590,36594,2023-12-02T10:10:20Z,36590.06,"c(""distractor1"", ""distractor2"", ""distractor3"")",Kritik,lawama,s,dereva,nafasi,mawazo,NA,NA,NA,NA,NA,NA,NA,NA,NA,NA,NA,NA,NA,NA,NA,NA,NA,NA,NA,NA,NA,NA,NA
a1b98,"""Falsch""-Screen",canvas.Screen,1_1_4_1_2,NA,NA,timeout,4996.3,36596,36589.76,36590.06,41569.94,41571,2023-12-02T10:10:25Z,41586.36,"c(""distractor1"", ""distractor2"", ""distractor3"")",Kritik,lawama,s,dereva,nafasi,mawazo,NA,NA,0,NA,NA,NA,NA,NA,NA,NA,NA,NA,NA,NA,NA,NA,NA,NA,NA,NA,NA,NA,NA
a1b98,shallow,flow.Sequence,1_1_4_1,NA,NA,completion,9049.12,32508,32504.26,32520.82,41569.94,41572,2023-12-02T10:10:25Z,41586.36,"c(""distractor1"", ""distractor2"", ""distractor3"")",Kritik,lawama,s,dereva,nafasi,mawazo,NA,NA,NA,NA,NA,NA,NA,NA,NA,NA,NA,NA,NA,NA,NA,NA,NA,NA,NA,NA,NA,NA,NA
a1b98,task,flow.Sequence,1_1_4,NA,NA,completion,9049.12,32508,32504.26,32520.82,41569.94,41573,2023-12-02T10:10:25Z,41586.36,"c(""distractor1"", ""distractor2"", ""distractor3"")",Kritik,lawama,s,dereva,nafasi,mawazo,NA,NA,NA,NA,NA,NA,NA,NA,NA,NA,NA,NA,NA,NA,NA,NA,NA,NA,NA,NA,NA,NA,NA
a1b98,Deep Question,html.Page,1_1_5_0_0,NA,NA,form submission,1981.64,41573,41569.94,41586.36,43568,43568,2023-12-02T10:10:27Z,43569.48,"c(""distractor1"", ""distractor2"", ""distractor3"")",Gesundheit,salama,d,NA,NA,NA,awskdfj,NA,NA,NA,NA,NA,NA,NA,NA,NA,NA,NA,NA,NA,NA,NA,NA,NA,NA,NA,NA,NA,NA
a1b98,"""Richtig""-Screen",canvas.Screen,1_1_5_0_1,NA,NA,skipped,NA,43570,NA,NA,43568,43570,2023-12-02T10:10:27Z,43569.48,"c(""distractor1"", ""distractor2"", ""distractor3"")",Gesundheit,salama,d,NA,NA,NA,NA,NA,NA,NA,NA,NA,NA,NA,NA,NA,NA,NA,NA,NA,NA,NA,NA,NA,NA,NA,NA,NA,NA
a1b98,"""Falsch""-Screen",canvas.Screen,1_1_5_0_2,NA,NA,timeout,4999.28,43573,43566.12,43569.48,48552.16,48552,2023-12-02T10:10:32Z,48568.76,"c(""distractor1"", ""distractor2"", ""distractor3"")",Gesundheit,salama,d,NA,NA,NA,NA,NA,0,NA,NA,NA,NA,NA,NA,NA,NA,NA,NA,NA,NA,NA,NA,NA,NA,NA,NA,NA,NA
a1b98,deep,flow.Sequence,1_1_5_0,NA,NA,completion,6965.8,41573,41569.94,41586.36,48552.16,48553,2023-12-02T10:10:32Z,48568.76,"c(""distractor1"", ""distractor2"", ""distractor3"")",Gesundheit,salama,d,NA,NA,NA,NA,NA,NA,NA,NA,NA,NA,NA,NA,NA,NA,NA,NA,NA,NA,NA,NA,NA,NA,NA,NA,NA,NA
a1b98,shallow,flow.Sequence,1_1_5_1,NA,NA,skipped,NA,48553,NA,NA,48552.16,48553,2023-12-02T10:10:32Z,48568.76,"c(""distractor1"", ""distractor2"", ""distractor3"")",Gesundheit,salama,d,NA,NA,NA,NA,NA,NA,NA,NA,NA,NA,NA,NA,NA,NA,NA,NA,NA,NA,NA,NA,NA,NA,NA,NA,NA,NA
a1b98,task,flow.Sequence,1_1_5,NA,NA,completion,6965.8,41573,41569.94,41586.36,48552.16,48553,2023-12-02T10:10:32Z,48568.76,"c(""distractor1"", ""distractor2"", ""distractor3"")",Gesundheit,salama,d,NA,NA,NA,NA,NA,NA,NA,NA,NA,NA,NA,NA,NA,NA,NA,NA,NA,NA,NA,NA,NA,NA,NA,NA,NA,NA
a1b98,block,flow.Loop,1_1,NA,NA,completion,45155.3,3396,3396.7,3396.86,48552.16,48553,2023-12-02T10:10:32Z,48568.76,"c(""distractor1"", ""distractor2"", ""distractor3"")",NA,NA,NA,NA,NA,NA,NA,NA,NA,NA,NA,NA,NA,NA,NA,NA,NA,NA,NA,NA,NA,NA,NA,NA,NA,NA,NA,NA,NA
a1b98,Practice,flow.Sequence,1,NA,NA,completion,46965.06,1587,1586.96,1587.1,48552.16,48553,2023-12-02T10:10:32Z,48568.76,NULL,NA,NA,NA,NA,NA,NA,NA,NA,NA,NA,NA,NA,NA,NA,NA,NA,NA,NA,NA,NA,NA,NA,NA,NA,NA,NA,NA,NA,NA
a1b98,Experiment start,canvas.Screen,2,weiter,keypress(q),response,2692.24,48553,48552.16,48568.76,51261,51264,2023-12-02T10:10:34Z,51333.38,NULL,NA,NA,NA,NA,NA,NA,NA,NA,NA,NA,NA,NA,NA,NA,NA,NA,NA,NA,NA,NA,NA,NA,NA,NA,NA,NA,NA,NA,NA
a1b98,deep,flow.Sequence,3_0_0_0_0_0,NA,NA,skipped,NA,51333,NA,NA,51261,51333,2023-12-02T10:10:34Z,51333.38,NULL,Auftrag,uagizaji,s,ghanima,kuzingatia,msukani,NA,sdf,NA,0,NA,NA,NA,NA,NA,NA,NA,NA,NA,NA,NA,NA,NA,NA,NA,NA,NA,NA,NA
a1b98,Shallow Question,html.Page,3_0_0_0_0_1_0,NA,NA,form submission,92277.62,51333,51333.12,51333.38,143611,143616,2023-12-02T10:12:07Z,143633.84,NULL,Auftrag,uagizaji,s,ghanima,kuzingatia,msukani,ghanima,NA,NA,0,NA,NA,NA,NA,NA,NA,NA,NA,NA,NA,NA,NA,NA,NA,NA,NA,NA,NA,NA
a1b98,"""Richtig""-Screen",canvas.Screen,3_0_0_0_0_1_1,NA,NA,skipped,NA,143628,NA,NA,143611,143628,2023-12-02T10:12:07Z,143633.84,NULL,Auftrag,uagizaji,s,ghanima,kuzingatia,msukani,NA,sdf,NA,0,NA,NA,NA,NA,NA,NA,NA,NA,NA,NA,NA,NA,NA,NA,NA,NA,NA,NA,NA
a1b98,"""Falsch""-Screen",canvas.Screen,3_0_0_0_0_1_2,NA,NA,timeout,4999.4,143632,143601.04,143633.84,148616.62,148618,2023-12-02T10:12:12Z,148633.24,NULL,Auftrag,uagizaji,s,ghanima,kuzingatia,msukani,NA,sdf,0,0,NA,NA,NA,NA,NA,NA,NA,NA,NA,NA,NA,NA,NA,NA,NA,NA,NA,NA,NA
a1b98,shallow,flow.Sequence,3_0_0_0_0_1,NA,NA,completion,97283.24,51333,51333.12,51333.38,148616.62,148619,2023-12-02T10:12:12Z,148633.24,NULL,Auftrag,uagizaji,s,ghanima,kuzingatia,msukani,NA,sdf,NA,0,NA,NA,NA,NA,NA,NA,NA,NA,NA,NA,NA,NA,NA,NA,NA,NA,NA,NA,NA
a1b98,task,flow.Sequence,3_0_0_0_0,NA,NA,completion,97283.24,51333,51333.12,51333.38,148616.62,148619,2023-12-02T10:12:12Z,148633.24,NULL,Auftrag,uagizaji,s,ghanima,kuzingatia,msukani,NA,sdf,NA,0,NA,NA,NA,NA,NA,NA,NA,NA,NA,NA,NA,NA,NA,NA,NA,NA,NA,NA,NA
a1b98,Deep Question,html.Page,3_0_0_0_1_0_0,NA,NA,form submission,6747.76,148620,148616.62,148633.24,155381,155381,2023-12-02T10:12:18Z,155382.4,NULL,Abrechnung,uhasibu,d,NA,NA,NA,a,NA,NA,0,NA,NA,NA,NA,NA,NA,NA,NA,NA,NA,NA,NA,NA,NA,NA,NA,NA,NA,NA
a1b98,"""Richtig""-Screen",canvas.Screen,3_0_0_0_1_0_1,NA,NA,skipped,NA,155384,NA,NA,155381,155384,2023-12-02T10:12:18Z,155382.4,NULL,Abrechnung,uhasibu,d,NA,NA,NA,NA,sdf,NA,0,NA,NA,NA,NA,NA,NA,NA,NA,NA,NA,NA,NA,NA,NA,NA,NA,NA,NA,NA
a1b98,"""Falsch""-Screen",canvas.Screen,3_0_0_0_1_0_2,NA,NA,timeout,4999.32,155386,155379.64,155382.4,160365.3,160367,2023-12-02T10:12:23Z,160381.72,NULL,Abrechnung,uhasibu,d,NA,NA,NA,NA,sdf,0,0,NA,NA,NA,NA,NA,NA,NA,NA,NA,NA,NA,NA,NA,NA,NA,NA,NA,NA,NA
a1b98,deep,flow.Sequence,3_0_0_0_1_0,NA,NA,completion,11732.06,148620,148616.62,148633.24,160365.3,160368,2023-12-02T10:12:23Z,160381.72,NULL,Abrechnung,uhasibu,d,NA,NA,NA,NA,sdf,NA,0,NA,NA,NA,NA,NA,NA,NA,NA,NA,NA,NA,NA,NA,NA,NA,NA,NA,NA,NA
a1b98,shallow,flow.Sequence,3_0_0_0_1_1,NA,NA,skipped,NA,160368,NA,NA,160365.3,160368,2023-12-02T10:12:23Z,160381.72,NULL,Abrechnung,uhasibu,d,NA,NA,NA,NA,sdf,NA,0,NA,NA,NA,NA,NA,NA,NA,NA,NA,NA,NA,NA,NA,NA,NA,NA,NA,NA,NA
a1b98,task,flow.Sequence,3_0_0_0_1,NA,NA,completion,11732.06,148619,148616.62,148633.24,160365.3,160370,2023-12-02T10:12:23Z,160381.72,NULL,Abrechnung,uhasibu,d,NA,NA,NA,NA,sdf,NA,0,NA,NA,NA,NA,NA,NA,NA,NA,NA,NA,NA,NA,NA,NA,NA,NA,NA,NA,NA
a1b98,Deep Question,html.Page,3_0_0_0_2_0_0,NA,NA,form submission,23437.28,160371,160365.3,160381.72,183819,183819,2023-12-02T10:12:47Z,183818.44,NULL,Kanzler,diwani,d,NA,NA,NA,a,NA,NA,0,NA,NA,NA,NA,NA,NA,NA,NA,NA,NA,NA,NA,NA,NA,NA,NA,NA,NA,NA
a1b98,"""Richtig""-Screen",canvas.Screen,3_0_0_0_2_0_1,NA,NA,skipped,NA,183823,NA,NA,183819,183823,2023-12-02T10:12:47Z,183818.44,NULL,Kanzler,diwani,d,NA,NA,NA,NA,sdf,NA,0,NA,NA,NA,NA,NA,NA,NA,NA,NA,NA,NA,NA,NA,NA,NA,NA,NA,NA,NA
a1b98,"""Falsch""-Screen",canvas.Screen,3_0_0_0_2_0_2,NA,NA,timeout,4992.98,183826,183818.14,183818.44,188794.88,188797,2023-12-02T10:12:52Z,188811.42,NULL,Kanzler,diwani,d,NA,NA,NA,NA,sdf,0,0,NA,NA,NA,NA,NA,NA,NA,NA,NA,NA,NA,NA,NA,NA,NA,NA,NA,NA,NA
a1b98,deep,flow.Sequence,3_0_0_0_2_0,NA,NA,completion,28413.16,160371,160365.3,160381.72,188794.88,188797,2023-12-02T10:12:52Z,188811.42,NULL,Kanzler,diwani,d,NA,NA,NA,NA,sdf,NA,0,NA,NA,NA,NA,NA,NA,NA,NA,NA,NA,NA,NA,NA,NA,NA,NA,NA,NA,NA
a1b98,shallow,flow.Sequence,3_0_0_0_2_1,NA,NA,skipped,NA,188797,NA,NA,188794.88,188797,2023-12-02T10:12:52Z,188811.42,NULL,Kanzler,diwani,d,NA,NA,NA,NA,sdf,NA,0,NA,NA,NA,NA,NA,NA,NA,NA,NA,NA,NA,NA,NA,NA,NA,NA,NA,NA,NA
a1b98,task,flow.Sequence,3_0_0_0_2,NA,NA,completion,28413.16,160370,160365.3,160381.72,188794.88,188799,2023-12-02T10:12:52Z,188811.42,NULL,Kanzler,diwani,d,NA,NA,NA,NA,sdf,NA,0,NA,NA,NA,NA,NA,NA,NA,NA,NA,NA,NA,NA,NA,NA,NA,NA,NA,NA,NA
a1b98,deep,flow.Sequence,3_0_0_0_3_0,NA,NA,skipped,NA,188799,NA,NA,188794.88,188799,2023-12-02T10:12:52Z,188811.42,NULL,Sänger,mwimbaji,s,msichana,shughuli,mshirika,NA,sdf,NA,0,NA,NA,NA,NA,NA,NA,NA,NA,NA,NA,NA,NA,NA,NA,NA,NA,NA,NA,NA
a1b98,Shallow Question,html.Page,3_0_0_0_3_1_0,NA,NA,form submission,18604.58,188799,188794.88,188811.42,207416,207421,2023-12-02T10:13:10Z,207425.78,NULL,Sänger,mwimbaji,s,msichana,shughuli,mshirika,shughuli,NA,NA,0,NA,NA,NA,NA,NA,NA,NA,NA,NA,NA,NA,NA,NA,NA,NA,NA,NA,NA,NA
a1b98,"""Richtig""-Screen",canvas.Screen,3_0_0_0_3_1_1,NA,NA,skipped,NA,207430,NA,NA,207416,207430,2023-12-02T10:13:10Z,207425.78,NULL,Sänger,mwimbaji,s,msichana,shughuli,mshirika,NA,sdf,NA,0,NA,NA,NA,NA,NA,NA,NA,NA,NA,NA,NA,NA,NA,NA,NA,NA,NA,NA,NA
a1b98,"""Falsch""-Screen",canvas.Screen,3_0_0_0_3_1_2,NA,NA,timeout,4999.24,207434,207407.82,207425.78,212408.46,212410,2023-12-02T10:13:15Z,212425.02,NULL,Sänger,mwimbaji,s,msichana,shughuli,mshirika,NA,sdf,0,0,NA,NA,NA,NA,NA,NA,NA,NA,NA,NA,NA,NA,NA,NA,NA,NA,NA,NA,NA
a1b98,shallow,flow.Sequence,3_0_0_0_3_1,NA,NA,completion,23597.04,188799,188794.88,188811.42,212408.46,212410,2023-12-02T10:13:15Z,212425.02,NULL,Sänger,mwimbaji,s,msichana,shughuli,mshirika,NA,sdf,NA,0,NA,NA,NA,NA,NA,NA,NA,NA,NA,NA,NA,NA,NA,NA,NA,NA,NA,NA,NA
a1b98,task,flow.Sequence,3_0_0_0_3,NA,NA,completion,23597.04,188799,188794.88,188811.42,212408.46,212410,2023-12-02T10:13:15Z,212425.02,NULL,Sänger,mwimbaji,s,msichana,shughuli,mshirika,NA,sdf,NA,0,NA,NA,NA,NA,NA,NA,NA,NA,NA,NA,NA,NA,NA,NA,NA,NA,NA,NA,NA
a1b98,Deep Question,html.Page,3_0_0_0_4_0_0,NA,NA,form submission,4758.98,212411,212408.46,212425.02,217184,217185,2023-12-02T10:13:20Z,217191.14,NULL,Schönheit,kirembo,d,NA,NA,NA,h,NA,NA,0,NA,NA,NA,NA,NA,NA,NA,NA,NA,NA,NA,NA,NA,NA,NA,NA,NA,NA,NA
a1b98,"""Richtig""-Screen",canvas.Screen,3_0_0_0_4_0_1,NA,NA,skipped,NA,217187,NA,NA,217184,217187,2023-12-02T10:13:20Z,217191.14,NULL,Schönheit,kirembo,d,NA,NA,NA,NA,sdf,NA,0,NA,NA,NA,NA,NA,NA,NA,NA,NA,NA,NA,NA,NA,NA,NA,NA,NA,NA,NA
a1b98,"""Falsch""-Screen",canvas.Screen,3_0_0_0_4_0_2,NA,NA,timeout,4999.32,217191,217182.46,217191.14,222173.9,222176,2023-12-02T10:13:25Z,222190.46,NULL,Schönheit,kirembo,d,NA,NA,NA,NA,sdf,0,0,NA,NA,NA,NA,NA,NA,NA,NA,NA,NA,NA,NA,NA,NA,NA,NA,NA,NA,NA
a1b98,deep,flow.Sequence,3_0_0_0_4_0,NA,NA,completion,9748.88,212411,212408.46,212425.02,222173.9,222176,2023-12-02T10:13:25Z,222190.46,NULL,Schönheit,kirembo,d,NA,NA,NA,NA,sdf,NA,0,NA,NA,NA,NA,NA,NA,NA,NA,NA,NA,NA,NA,NA,NA,NA,NA,NA,NA,NA
a1b98,shallow,flow.Sequence,3_0_0_0_4_1,NA,NA,skipped,NA,222177,NA,NA,222173.9,222177,2023-12-02T10:13:25Z,222190.46,NULL,Schönheit,kirembo,d,NA,NA,NA,NA,sdf,NA,0,NA,NA,NA,NA,NA,NA,NA,NA,NA,NA,NA,NA,NA,NA,NA,NA,NA,NA,NA
a1b98,task,flow.Sequence,3_0_0_0_4,NA,NA,completion,9748.88,212411,212408.46,212425.02,222173.9,222178,2023-12-02T10:13:25Z,222190.46,NULL,Schönheit,kirembo,d,NA,NA,NA,NA,sdf,NA,0,NA,NA,NA,NA,NA,NA,NA,NA,NA,NA,NA,NA,NA,NA,NA,NA,NA,NA,NA
a1b98,deep,flow.Sequence,3_0_0_0_5_0,NA,NA,skipped,NA,222178,NA,NA,222173.9,222178,2023-12-02T10:13:25Z,222190.46,NULL,Angreifer,mshambulizi,s,kitengo,tasinia,usafirishaji,NA,sdf,NA,0,NA,NA,NA,NA,NA,NA,NA,NA,NA,NA,NA,NA,NA,NA,NA,NA,NA,NA,NA
a1b98,Shallow Question,html.Page,3_0_0_0_5_1_0,NA,NA,form submission,13316.54,222179,222173.9,222190.46,235507,235507,2023-12-02T10:13:38Z,235505.46,NULL,Angreifer,mshambulizi,s,kitengo,tasinia,usafirishaji,kitengo,NA,NA,0,NA,NA,NA,NA,NA,NA,NA,NA,NA,NA,NA,NA,NA,NA,NA,NA,NA,NA,NA
a1b98,"""Richtig""-Screen",canvas.Screen,3_0_0_0_5_1_1,NA,NA,skipped,NA,235510,NA,NA,235507,235510,2023-12-02T10:13:38Z,235505.46,NULL,Angreifer,mshambulizi,s,kitengo,tasinia,usafirishaji,NA,sdf,NA,0,NA,NA,NA,NA,NA,NA,NA,NA,NA,NA,NA,NA,NA,NA,NA,NA,NA,NA,NA
a1b98,"""Falsch""-Screen",canvas.Screen,3_0_0_0_5_1_2,NA,NA,timeout,4999.54,235514,235502.46,235505.46,240488.52,240489,2023-12-02T10:13:43Z,240505,NULL,Angreifer,mshambulizi,s,kitengo,tasinia,usafirishaji,NA,sdf,0,0,NA,NA,NA,NA,NA,NA,NA,NA,NA,NA,NA,NA,NA,NA,NA,NA,NA,NA,NA
a1b98,shallow,flow.Sequence,3_0_0_0_5_1,NA,NA,completion,18298.06,222178,222173.9,222190.46,240488.52,240489,2023-12-02T10:13:43Z,240505,NULL,Angreifer,mshambulizi,s,kitengo,tasinia,usafirishaji,NA,sdf,NA,0,NA,NA,NA,NA,NA,NA,NA,NA,NA,NA,NA,NA,NA,NA,NA,NA,NA,NA,NA
a1b98,task,flow.Sequence,3_0_0_0_5,NA,NA,completion,18298.06,222178,222173.9,222190.46,240488.52,240490,2023-12-02T10:13:43Z,240505,NULL,Angreifer,mshambulizi,s,kitengo,tasinia,usafirishaji,NA,sdf,NA,0,NA,NA,NA,NA,NA,NA,NA,NA,NA,NA,NA,NA,NA,NA,NA,NA,NA,NA,NA
a1b98,deep,flow.Sequence,3_0_0_0_6_0,NA,NA,skipped,NA,240490,NA,NA,240488.52,240490,2023-12-02T10:13:43Z,240505,NULL,Wettbewerb,ushindani,s,mapendezi,kichocheo,ubaguzi,NA,sdf,NA,0,NA,NA,NA,NA,NA,NA,NA,NA,NA,NA,NA,NA,NA,NA,NA,NA,NA,NA,NA
a1b98,Shallow Question,html.Page,3_0_0_0_6_1_0,NA,NA,form submission,13155,240490,240488.52,240505,253660,253660,2023-12-02T10:13:57Z,253669.86,NULL,Wettbewerb,ushindani,s,mapendezi,kichocheo,ubaguzi,ubaguzi,NA,NA,0,NA,NA,NA,NA,NA,NA,NA,NA,NA,NA,NA,NA,NA,NA,NA,NA,NA,NA,NA
a1b98,"""Richtig""-Screen",canvas.Screen,3_0_0_0_6_1_1,NA,NA,skipped,NA,253666,NA,NA,253660,253666,2023-12-02T10:13:57Z,253669.86,NULL,Wettbewerb,ushindani,s,mapendezi,kichocheo,ubaguzi,NA,sdf,NA,0,NA,NA,NA,NA,NA,NA,NA,NA,NA,NA,NA,NA,NA,NA,NA,NA,NA,NA,NA
a1b98,"""Falsch""-Screen",canvas.Screen,3_0_0_0_6_1_2,NA,NA,timeout,4999.3,253672,253654.7,253669.86,258652.82,258658,2023-12-02T10:14:02Z,258669.16,NULL,Wettbewerb,ushindani,s,mapendezi,kichocheo,ubaguzi,NA,sdf,0,0,NA,NA,NA,NA,NA,NA,NA,NA,NA,NA,NA,NA,NA,NA,NA,NA,NA,NA,NA
a1b98,shallow,flow.Sequence,3_0_0_0_6_1,NA,NA,completion,18147.82,240490,240488.52,240505,258652.82,258660,2023-12-02T10:14:02Z,258669.16,NULL,Wettbewerb,ushindani,s,mapendezi,kichocheo,ubaguzi,NA,sdf,NA,0,NA,NA,NA,NA,NA,NA,NA,NA,NA,NA,NA,NA,NA,NA,NA,NA,NA,NA,NA
a1b98,task,flow.Sequence,3_0_0_0_6,NA,NA,completion,18147.82,240490,240488.52,240505,258652.82,258662,2023-12-02T10:14:02Z,258669.16,NULL,Wettbewerb,ushindani,s,mapendezi,kichocheo,ubaguzi,NA,sdf,NA,0,NA,NA,NA,NA,NA,NA,NA,NA,NA,NA,NA,NA,NA,NA,NA,NA,NA,NA,NA
a1b98,Deep Question,html.Page,3_0_0_0_7_0_0,NA,NA,form submission,6340.84,258662,258652.82,258669.16,265010,265010,2023-12-02T10:14:08Z,265018.4,NULL,Zufall,kikuti,d,NA,NA,NA,g,NA,NA,0,NA,NA,NA,NA,NA,NA,NA,NA,NA,NA,NA,NA,NA,NA,NA,NA,NA,NA,NA
a1b98,"""Richtig""-Screen",canvas.Screen,3_0_0_0_7_0_1,NA,NA,skipped,NA,265016,NA,NA,265010,265016,2023-12-02T10:14:08Z,265018.4,NULL,Zufall,kikuti,d,NA,NA,NA,NA,sdf,NA,0,NA,NA,NA,NA,NA,NA,NA,NA,NA,NA,NA,NA,NA,NA,NA,NA,NA,NA,NA
a1b98,"""Falsch""-Screen",canvas.Screen,3_0_0_0_7_0_2,NA,NA,timeout,4999.54,265019,265008.42,265018.4,270001.12,270002,2023-12-02T10:14:13Z,270017.94,NULL,Zufall,kikuti,d,NA,NA,NA,NA,sdf,0,0,NA,NA,NA,NA,NA,NA,NA,NA,NA,NA,NA,NA,NA,NA,NA,NA,NA,NA,NA
a1b98,deep,flow.Sequence,3_0_0_0_7_0,NA,NA,completion,11331.96,258662,258652.82,258669.16,270001.12,270003,2023-12-02T10:14:13Z,270017.94,NULL,Zufall,kikuti,d,NA,NA,NA,NA,sdf,NA,0,NA,NA,NA,NA,NA,NA,NA,NA,NA,NA,NA,NA,NA,NA,NA,NA,NA,NA,NA
a1b98,shallow,flow.Sequence,3_0_0_0_7_1,NA,NA,skipped,NA,270003,NA,NA,270001.12,270003,2023-12-02T10:14:13Z,270017.94,NULL,Zufall,kikuti,d,NA,NA,NA,NA,sdf,NA,0,NA,NA,NA,NA,NA,NA,NA,NA,NA,NA,NA,NA,NA,NA,NA,NA,NA,NA,NA
a1b98,task,flow.Sequence,3_0_0_0_7,NA,NA,completion,11331.96,258662,258652.82,258669.16,270001.12,270003,2023-12-02T10:14:13Z,270017.94,NULL,Zufall,kikuti,d,NA,NA,NA,NA,sdf,NA,0,NA,NA,NA,NA,NA,NA,NA,NA,NA,NA,NA,NA,NA,NA,NA,NA,NA,NA,NA
a1b98,block,flow.Loop,3_0_0_0,NA,NA,completion,218667.74,51333,51333.12,51333.38,270001.12,270004,2023-12-02T10:14:13Z,270017.94,NULL,NA,NA,NA,NA,NA,NA,NA,sdf,NA,0,NA,NA,NA,NA,NA,NA,NA,NA,NA,NA,NA,NA,NA,NA,NA,NA,NA,NA,NA
a1b98,weiter,canvas.Screen,3_0_0_1,sdf,keypress(Space),response,1337.06,270004,270001.12,270017.94,271355,271360,2023-12-02T10:14:14Z,271421.4,NULL,NA,NA,NA,NA,NA,NA,NA,sdf,NA,0,NA,NA,NA,NA,NA,NA,NA,NA,NA,NA,NA,NA,NA,NA,NA,NA,NA,NA,NA
a1b98,check continue,flow.Sequence,3_0_0,NA,NA,completion,220021.62,51332,51333.12,51333.38,271355,271360,2023-12-02T10:14:14Z,271421.4,NULL,NA,NA,NA,NA,NA,NA,NA,sdf,NA,0,NA,NA,NA,NA,NA,NA,NA,NA,NA,NA,NA,NA,NA,NA,NA,NA,NA,NA,NA
a1b98,deep,flow.Sequence,3_0_1_0_0_0,NA,NA,skipped,NA,271421,NA,NA,271355,271421,2023-12-02T10:14:14Z,271421.4,NULL,Auftrag,uagizaji,s,ghanima,kuzingatia,msukani,NA,sdfdsf,NA,1,NA,NA,NA,NA,NA,NA,NA,NA,NA,NA,NA,NA,NA,NA,NA,NA,NA,NA,NA
a1b98,Shallow Question,html.Page,3_0_1_0_0_1_0,NA,NA,form submission,12128.6,271421,271421.1,271421.4,283550,283550,2023-12-02T10:14:27Z,283549.14,NULL,Auftrag,uagizaji,s,ghanima,kuzingatia,msukani,ghanima,NA,NA,1,NA,NA,NA,NA,NA,NA,NA,NA,NA,NA,NA,NA,NA,NA,NA,NA,NA,NA,NA
a1b98,"""Richtig""-Screen",canvas.Screen,3_0_1_0_0_1_1,NA,NA,skipped,NA,283556,NA,NA,283550,283557,2023-12-02T10:14:27Z,283549.14,NULL,Auftrag,uagizaji,s,ghanima,kuzingatia,msukani,NA,sdfdsf,NA,1,NA,NA,NA,NA,NA,NA,NA,NA,NA,NA,NA,NA,NA,NA,NA,NA,NA,NA,NA
a1b98,"""Falsch""-Screen",canvas.Screen,3_0_1_0_0_1_2,NA,NA,timeout,4999.36,283559,283543.66,283549.14,288532.06,288533,2023-12-02T10:14:32Z,288548.5,NULL,Auftrag,uagizaji,s,ghanima,kuzingatia,msukani,NA,sdfdsf,0,1,NA,NA,NA,NA,NA,NA,NA,NA,NA,NA,NA,NA,NA,NA,NA,NA,NA,NA,NA
a1b98,shallow,flow.Sequence,3_0_1_0_0_1,NA,NA,completion,17110.66,271421,271421.1,271421.4,288532.06,288533,2023-12-02T10:14:32Z,288548.5,NULL,Auftrag,uagizaji,s,ghanima,kuzingatia,msukani,NA,sdfdsf,NA,1,NA,NA,NA,NA,NA,NA,NA,NA,NA,NA,NA,NA,NA,NA,NA,NA,NA,NA,NA
a1b98,task,flow.Sequence,3_0_1_0_0,NA,NA,completion,17110.66,271421,271421.1,271421.4,288532.06,288534,2023-12-02T10:14:32Z,288548.5,NULL,Auftrag,uagizaji,s,ghanima,kuzingatia,msukani,NA,sdfdsf,NA,1,NA,NA,NA,NA,NA,NA,NA,NA,NA,NA,NA,NA,NA,NA,NA,NA,NA,NA,NA
a1b98,deep,flow.Sequence,3_0_1_0_1_0,NA,NA,skipped,NA,288535,NA,NA,288532.06,288535,2023-12-02T10:14:32Z,288548.5,NULL,Sänger,mwimbaji,s,msichana,shughuli,mshirika,NA,sdfdsf,NA,1,NA,NA,NA,NA,NA,NA,NA,NA,NA,NA,NA,NA,NA,NA,NA,NA,NA,NA,NA
a1b98,Shallow Question,html.Page,3_0_1_0_1_1_0,NA,NA,form submission,12595.5,288535,288532.06,288548.5,301144,301145,2023-12-02T10:14:44Z,301147.06,NULL,Sänger,mwimbaji,s,msichana,shughuli,mshirika,msichana,NA,NA,1,NA,NA,NA,NA,NA,NA,NA,NA,NA,NA,NA,NA,NA,NA,NA,NA,NA,NA,NA
a1b98,"""Richtig""-Screen",canvas.Screen,3_0_1_0_1_1_1,NA,NA,skipped,NA,301148,NA,NA,301144,301148,2023-12-02T10:14:44Z,301147.06,NULL,Sänger,mwimbaji,s,msichana,shughuli,mshirika,NA,sdfdsf,NA,1,NA,NA,NA,NA,NA,NA,NA,NA,NA,NA,NA,NA,NA,NA,NA,NA,NA,NA,NA
a1b98,"""Falsch""-Screen",canvas.Screen,3_0_1_0_1_1_2,NA,NA,timeout,4999.44,301152,301139.34,301147.06,306130.06,306131,2023-12-02T10:14:49Z,306146.5,NULL,Sänger,mwimbaji,s,msichana,shughuli,mshirika,NA,sdfdsf,0,1,NA,NA,NA,NA,NA,NA,NA,NA,NA,NA,NA,NA,NA,NA,NA,NA,NA,NA,NA
a1b98,shallow,flow.Sequence,3_0_1_0_1_1,NA,NA,completion,17581.56,288535,288532.06,288548.5,306130.06,306132,2023-12-02T10:14:49Z,306146.5,NULL,Sänger,mwimbaji,s,msichana,shughuli,mshirika,NA,sdfdsf,NA,1,NA,NA,NA,NA,NA,NA,NA,NA,NA,NA,NA,NA,NA,NA,NA,NA,NA,NA,NA
a1b98,task,flow.Sequence,3_0_1_0_1,NA,NA,completion,17581.56,288534,288532.06,288548.5,306130.06,306132,2023-12-02T10:14:49Z,306146.5,NULL,Sänger,mwimbaji,s,msichana,shughuli,mshirika,NA,sdfdsf,NA,1,NA,NA,NA,NA,NA,NA,NA,NA,NA,NA,NA,NA,NA,NA,NA,NA,NA,NA,NA
a1b98,deep,flow.Sequence,3_0_1_0_2_0,NA,NA,skipped,NA,306133,NA,NA,306130.06,306133,2023-12-02T10:14:49Z,306146.5,NULL,Wettbewerb,ushindani,s,mapendezi,kichocheo,ubaguzi,NA,sdfdsf,NA,1,NA,NA,NA,NA,NA,NA,NA,NA,NA,NA,NA,NA,NA,NA,NA,NA,NA,NA,NA
a1b98,Shallow Question,html.Page,3_0_1_0_2_1_0,NA,NA,form submission,19364.5,306133,306130.06,306146.5,325511,325511,2023-12-02T10:15:08Z,325510.62,NULL,Wettbewerb,ushindani,s,mapendezi,kichocheo,ubaguzi,mapendezi,NA,NA,1,NA,NA,NA,NA,NA,NA,NA,NA,NA,NA,NA,NA,NA,NA,NA,NA,NA,NA,NA
a1b98,"""Richtig""-Screen",canvas.Screen,3_0_1_0_2_1_1,NA,NA,skipped,NA,325514,NA,NA,325511,325514,2023-12-02T10:15:08Z,325510.62,NULL,Wettbewerb,ushindani,s,mapendezi,kichocheo,ubaguzi,NA,sdfdsf,NA,1,NA,NA,NA,NA,NA,NA,NA,NA,NA,NA,NA,NA,NA,NA,NA,NA,NA,NA,NA
a1b98,"""Falsch""-Screen",canvas.Screen,3_0_1_0_2_1_2,NA,NA,timeout,4999.36,325517,325508.9,325510.62,330493.78,330495,2023-12-02T10:15:13Z,330509.98,NULL,Wettbewerb,ushindani,s,mapendezi,kichocheo,ubaguzi,NA,sdfdsf,0,1,NA,NA,NA,NA,NA,NA,NA,NA,NA,NA,NA,NA,NA,NA,NA,NA,NA,NA,NA
a1b98,shallow,flow.Sequence,3_0_1_0_2_1,NA,NA,completion,24347.28,306133,306130.06,306146.5,330493.78,330496,2023-12-02T10:15:13Z,330509.98,NULL,Wettbewerb,ushindani,s,mapendezi,kichocheo,ubaguzi,NA,sdfdsf,NA,1,NA,NA,NA,NA,NA,NA,NA,NA,NA,NA,NA,NA,NA,NA,NA,NA,NA,NA,NA
a1b98,task,flow.Sequence,3_0_1_0_2,NA,NA,completion,24347.28,306133,306130.06,306146.5,330493.78,330496,2023-12-02T10:15:13Z,330509.98,NULL,Wettbewerb,ushindani,s,mapendezi,kichocheo,ubaguzi,NA,sdfdsf,NA,1,NA,NA,NA,NA,NA,NA,NA,NA,NA,NA,NA,NA,NA,NA,NA,NA,NA,NA,NA
a1b98,Deep Question,html.Page,3_0_1_0_3_0_0,NA,NA,form submission,16689.02,330497,330493.78,330509.98,347199,347199,2023-12-02T10:15:30Z,347198.16,NULL,Zufall,kikuti,d,NA,NA,NA,w,NA,NA,1,NA,NA,NA,NA,NA,NA,NA,NA,NA,NA,NA,NA,NA,NA,NA,NA,NA,NA,NA
a1b98,"""Richtig""-Screen",canvas.Screen,3_0_1_0_3_0_1,NA,NA,skipped,NA,347201,NA,NA,347199,347201,2023-12-02T10:15:30Z,347198.16,NULL,Zufall,kikuti,d,NA,NA,NA,NA,sdfdsf,NA,1,NA,NA,NA,NA,NA,NA,NA,NA,NA,NA,NA,NA,NA,NA,NA,NA,NA,NA,NA
a1b98,"""Falsch""-Screen",canvas.Screen,3_0_1_0_3_0_2,NA,NA,timeout,4992.46,347204,347197.82,347198.16,352174.22,352175,2023-12-02T10:15:35Z,352190.62,NULL,Zufall,kikuti,d,NA,NA,NA,NA,sdfdsf,0,1,NA,NA,NA,NA,NA,NA,NA,NA,NA,NA,NA,NA,NA,NA,NA,NA,NA,NA,NA
a1b98,deep,flow.Sequence,3_0_1_0_3_0,NA,NA,completion,21664.24,330497,330493.78,330509.98,352174.22,352177,2023-12-02T10:15:35Z,352190.62,NULL,Zufall,kikuti,d,NA,NA,NA,NA,sdfdsf,NA,1,NA,NA,NA,NA,NA,NA,NA,NA,NA,NA,NA,NA,NA,NA,NA,NA,NA,NA,NA
a1b98,shallow,flow.Sequence,3_0_1_0_3_1,NA,NA,skipped,NA,352177,NA,NA,352174.22,352177,2023-12-02T10:15:35Z,352190.62,NULL,Zufall,kikuti,d,NA,NA,NA,NA,sdfdsf,NA,1,NA,NA,NA,NA,NA,NA,NA,NA,NA,NA,NA,NA,NA,NA,NA,NA,NA,NA,NA
a1b98,task,flow.Sequence,3_0_1_0_3,NA,NA,completion,21664.24,330496,330493.78,330509.98,352174.22,352177,2023-12-02T10:15:35Z,352190.62,NULL,Zufall,kikuti,d,NA,NA,NA,NA,sdfdsf,NA,1,NA,NA,NA,NA,NA,NA,NA,NA,NA,NA,NA,NA,NA,NA,NA,NA,NA,NA,NA
a1b98,deep,flow.Sequence,3_0_1_0_4_0,NA,NA,skipped,NA,352177,NA,NA,352174.22,352178,2023-12-02T10:15:35Z,352190.62,NULL,Angreifer,mshambulizi,s,kitengo,tasinia,usafirishaji,NA,sdfdsf,NA,1,NA,NA,NA,NA,NA,NA,NA,NA,NA,NA,NA,NA,NA,NA,NA,NA,NA,NA,NA
a1b98,Shallow Question,html.Page,3_0_1_0_4_1_0,NA,NA,form submission,8365.38,352178,352174.22,352190.62,360556,360556,2023-12-02T10:15:44Z,360556.16,NULL,Angreifer,mshambulizi,s,kitengo,tasinia,usafirishaji,mshambulizi,NA,NA,1,NA,NA,NA,NA,NA,NA,NA,NA,NA,NA,NA,NA,NA,NA,NA,NA,NA,NA,NA
a1b98,"""Richtig""-Screen",canvas.Screen,3_0_1_0_4_1_1,NA,NA,timeout,4999.46,360560,360552,360556.16,365538.94,365540,2023-12-02T10:15:49Z,365555.62,NULL,Angreifer,mshambulizi,s,kitengo,tasinia,usafirishaji,NA,sdfdsf,1,1,NA,NA,NA,NA,NA,NA,NA,NA,NA,NA,NA,NA,NA,NA,NA,NA,NA,NA,NA
a1b98,"""Falsch""-Screen",canvas.Screen,3_0_1_0_4_1_2,NA,NA,skipped,NA,365544,NA,NA,365538.94,365544,2023-12-02T10:15:49Z,365555.62,NULL,Angreifer,mshambulizi,s,kitengo,tasinia,usafirishaji,NA,sdfdsf,NA,1,NA,NA,NA,NA,NA,NA,NA,NA,NA,NA,NA,NA,NA,NA,NA,NA,NA,NA,NA
a1b98,shallow,flow.Sequence,3_0_1_0_4_1,NA,NA,completion,13348.32,352178,352174.22,352190.62,365538.94,365544,2023-12-02T10:15:49Z,365555.62,NULL,Angreifer,mshambulizi,s,kitengo,tasinia,usafirishaji,NA,sdfdsf,NA,1,NA,NA,NA,NA,NA,NA,NA,NA,NA,NA,NA,NA,NA,NA,NA,NA,NA,NA,NA
a1b98,task,flow.Sequence,3_0_1_0_4,NA,NA,completion,13348.32,352177,352174.22,352190.62,365538.94,365545,2023-12-02T10:15:49Z,365555.62,NULL,Angreifer,mshambulizi,s,kitengo,tasinia,usafirishaji,NA,sdfdsf,NA,1,NA,NA,NA,NA,NA,NA,NA,NA,NA,NA,NA,NA,NA,NA,NA,NA,NA,NA,NA
a1b98,Deep Question,html.Page,3_0_1_0_5_0_0,NA,NA,form submission,17272.38,365545,365538.94,365555.62,382828,382830,2023-12-02T10:16:06Z,382836.72,NULL,Kanzler,diwani,d,NA,NA,NA,divini,NA,NA,1,NA,NA,NA,NA,NA,NA,NA,NA,NA,NA,NA,NA,NA,NA,NA,NA,NA,NA,NA
a1b98,"""Richtig""-Screen",canvas.Screen,3_0_1_0_5_0_1,NA,NA,skipped,NA,382836,NA,NA,382828,382836,2023-12-02T10:16:06Z,382836.72,NULL,Kanzler,diwani,d,NA,NA,NA,NA,sdfdsf,NA,1,NA,NA,NA,NA,NA,NA,NA,NA,NA,NA,NA,NA,NA,NA,NA,NA,NA,NA,NA
a1b98,"""Falsch""-Screen",canvas.Screen,3_0_1_0_5_0_2,NA,NA,timeout,4999.34,382840,382825.9,382836.72,387819.66,387826,2023-12-02T10:16:11Z,387836.06,NULL,Kanzler,diwani,d,NA,NA,NA,NA,sdfdsf,0,1,NA,NA,NA,NA,NA,NA,NA,NA,NA,NA,NA,NA,NA,NA,NA,NA,NA,NA,NA
a1b98,deep,flow.Sequence,3_0_1_0_5_0,NA,NA,completion,22264.04,365545,365538.94,365555.62,387819.66,387828,2023-12-02T10:16:11Z,387836.06,NULL,Kanzler,diwani,d,NA,NA,NA,NA,sdfdsf,NA,1,NA,NA,NA,NA,NA,NA,NA,NA,NA,NA,NA,NA,NA,NA,NA,NA,NA,NA,NA
a1b98,shallow,flow.Sequence,3_0_1_0_5_1,NA,NA,skipped,NA,387829,NA,NA,387819.66,387829,2023-12-02T10:16:11Z,387836.06,NULL,Kanzler,diwani,d,NA,NA,NA,NA,sdfdsf,NA,1,NA,NA,NA,NA,NA,NA,NA,NA,NA,NA,NA,NA,NA,NA,NA,NA,NA,NA,NA
a1b98,task,flow.Sequence,3_0_1_0_5,NA,NA,completion,22264.04,365545,365538.94,365555.62,387819.66,387830,2023-12-02T10:16:11Z,387836.06,NULL,Kanzler,diwani,d,NA,NA,NA,NA,sdfdsf,NA,1,NA,NA,NA,NA,NA,NA,NA,NA,NA,NA,NA,NA,NA,NA,NA,NA,NA,NA,NA
a1b98,Deep Question,html.Page,3_0_1_0_6_0_0,NA,NA,form submission,11843.94,387830,387819.66,387836.06,399680,399680,2023-12-02T10:16:23Z,399684.54,NULL,Abrechnung,uhasibu,d,NA,NA,NA,hasibu,NA,NA,1,NA,NA,NA,NA,NA,NA,NA,NA,NA,NA,NA,NA,NA,NA,NA,NA,NA,NA,NA
a1b98,"""Richtig""-Screen",canvas.Screen,3_0_1_0_6_0_1,NA,NA,skipped,NA,399687,NA,NA,399680,399687,2023-12-02T10:16:23Z,399684.54,NULL,Abrechnung,uhasibu,d,NA,NA,NA,NA,sdfdsf,NA,1,NA,NA,NA,NA,NA,NA,NA,NA,NA,NA,NA,NA,NA,NA,NA,NA,NA,NA,NA
a1b98,"""Falsch""-Screen",canvas.Screen,3_0_1_0_6_0_2,NA,NA,timeout,4999.34,399690,399678.92,399684.54,404667.5,404669,2023-12-02T10:16:28Z,404683.88,NULL,Abrechnung,uhasibu,d,NA,NA,NA,NA,sdfdsf,0,1,NA,NA,NA,NA,NA,NA,NA,NA,NA,NA,NA,NA,NA,NA,NA,NA,NA,NA,NA
a1b98,deep,flow.Sequence,3_0_1_0_6_0,NA,NA,completion,16831.44,387830,387819.66,387836.06,404667.5,404670,2023-12-02T10:16:28Z,404683.88,NULL,Abrechnung,uhasibu,d,NA,NA,NA,NA,sdfdsf,NA,1,NA,NA,NA,NA,NA,NA,NA,NA,NA,NA,NA,NA,NA,NA,NA,NA,NA,NA,NA
a1b98,shallow,flow.Sequence,3_0_1_0_6_1,NA,NA,skipped,NA,404670,NA,NA,404667.5,404672,2023-12-02T10:16:28Z,404683.88,NULL,Abrechnung,uhasibu,d,NA,NA,NA,NA,sdfdsf,NA,1,NA,NA,NA,NA,NA,NA,NA,NA,NA,NA,NA,NA,NA,NA,NA,NA,NA,NA,NA
a1b98,task,flow.Sequence,3_0_1_0_6,NA,NA,completion,16831.44,387830,387819.66,387836.06,404667.5,404673,2023-12-02T10:16:28Z,404683.88,NULL,Abrechnung,uhasibu,d,NA,NA,NA,NA,sdfdsf,NA,1,NA,NA,NA,NA,NA,NA,NA,NA,NA,NA,NA,NA,NA,NA,NA,NA,NA,NA,NA
a1b98,Deep Question,html.Page,3_0_1_0_7_0_0,NA,NA,form submission,13007.12,404674,404667.5,404683.88,417691,417691,2023-12-02T10:16:41Z,417698.88,NULL,Schönheit,kirembo,d,NA,NA,NA,kirei,NA,NA,1,NA,NA,NA,NA,NA,NA,NA,NA,NA,NA,NA,NA,NA,NA,NA,NA,NA,NA,NA
a1b98,"""Richtig""-Screen",canvas.Screen,3_0_1_0_7_0_1,NA,NA,skipped,NA,417694,NA,NA,417691,417694,2023-12-02T10:16:41Z,417698.88,NULL,Schönheit,kirembo,d,NA,NA,NA,NA,sdfdsf,NA,1,NA,NA,NA,NA,NA,NA,NA,NA,NA,NA,NA,NA,NA,NA,NA,NA,NA,NA,NA
a1b98,"""Falsch""-Screen",canvas.Screen,3_0_1_0_7_0_2,NA,NA,timeout,4999.48,417697,417689.62,417698.88,422681.7,422683,2023-12-02T10:16:46Z,422698.36,NULL,Schönheit,kirembo,d,NA,NA,NA,NA,sdfdsf,0,1,NA,NA,NA,NA,NA,NA,NA,NA,NA,NA,NA,NA,NA,NA,NA,NA,NA,NA,NA
a1b98,deep,flow.Sequence,3_0_1_0_7_0,NA,NA,completion,17997.82,404674,404667.5,404683.88,422681.7,422683,2023-12-02T10:16:46Z,422698.36,NULL,Schönheit,kirembo,d,NA,NA,NA,NA,sdfdsf,NA,1,NA,NA,NA,NA,NA,NA,NA,NA,NA,NA,NA,NA,NA,NA,NA,NA,NA,NA,NA
a1b98,shallow,flow.Sequence,3_0_1_0_7_1,NA,NA,skipped,NA,422684,NA,NA,422681.7,422684,2023-12-02T10:16:46Z,422698.36,NULL,Schönheit,kirembo,d,NA,NA,NA,NA,sdfdsf,NA,1,NA,NA,NA,NA,NA,NA,NA,NA,NA,NA,NA,NA,NA,NA,NA,NA,NA,NA,NA
a1b98,task,flow.Sequence,3_0_1_0_7,NA,NA,completion,17997.82,404674,404667.5,404683.88,422681.7,422684,2023-12-02T10:16:46Z,422698.36,NULL,Schönheit,kirembo,d,NA,NA,NA,NA,sdfdsf,NA,1,NA,NA,NA,NA,NA,NA,NA,NA,NA,NA,NA,NA,NA,NA,NA,NA,NA,NA,NA
a1b98,block,flow.Loop,3_0_1_0,NA,NA,completion,151260.3,271421,271421.1,271421.4,422681.7,422685,2023-12-02T10:16:46Z,422698.36,NULL,NA,NA,NA,NA,NA,NA,NA,sdfdsf,NA,1,NA,NA,NA,NA,NA,NA,NA,NA,NA,NA,NA,NA,NA,NA,NA,NA,NA,NA,NA
a1b98,weiter,canvas.Screen,3_0_1_1,sdf,keypress(Space),response,936.64000000001,422685,422681.7,422698.36,423635,423644,2023-12-02T10:16:47Z,423699.4,NULL,NA,NA,NA,NA,NA,NA,NA,sdfdsf,NA,1,NA,NA,NA,NA,NA,NA,NA,NA,NA,NA,NA,NA,NA,NA,NA,NA,NA,NA,NA
a1b98,check continue,flow.Sequence,3_0_1,NA,NA,completion,152213.6,271421,271421.1,271421.4,423635,423645,2023-12-02T10:16:47Z,423699.4,NULL,NA,NA,NA,NA,NA,NA,NA,sdfdsf,NA,1,NA,NA,NA,NA,NA,NA,NA,NA,NA,NA,NA,NA,NA,NA,NA,NA,NA,NA,NA
a1b98,Deep Question,html.Page,3_0_2_0_0_0_0,NA,NA,form submission,3214.6,423698,423698.48,423699.4,426914,426914,2023-12-02T10:16:50Z,426914.42,NULL,Zufall,kikuti,d,NA,NA,NA,d,NA,NA,2,NA,NA,NA,NA,NA,NA,NA,NA,NA,NA,NA,NA,NA,NA,NA,NA,NA,NA,NA
a1b98,"""Richtig""-Screen",canvas.Screen,3_0_2_0_0_0_1,NA,NA,skipped,NA,426916,NA,NA,426914,426917,2023-12-02T10:16:50Z,426914.42,NULL,Zufall,kikuti,d,NA,NA,NA,NA,sdf,NA,2,NA,NA,NA,NA,NA,NA,NA,NA,NA,NA,NA,NA,NA,NA,NA,NA,NA,NA,NA
a1b98,"""Falsch""-Screen",canvas.Screen,3_0_2_0_0_0_2,NA,NA,timeout,4999.16,426920,426913.06,426914.42,431897.28,431898,2023-12-02T10:16:55Z,431913.58,NULL,Zufall,kikuti,d,NA,NA,NA,NA,sdf,0,2,NA,NA,NA,NA,NA,NA,NA,NA,NA,NA,NA,NA,NA,NA,NA,NA,NA,NA,NA
a1b98,deep,flow.Sequence,3_0_2_0_0_0,NA,NA,completion,8197.88,423698,423698.48,423699.4,431897.28,431899,2023-12-02T10:16:55Z,431913.58,NULL,Zufall,kikuti,d,NA,NA,NA,NA,sdf,NA,2,NA,NA,NA,NA,NA,NA,NA,NA,NA,NA,NA,NA,NA,NA,NA,NA,NA,NA,NA
a1b98,shallow,flow.Sequence,3_0_2_0_0_1,NA,NA,skipped,NA,431900,NA,NA,431897.28,431900,2023-12-02T10:16:55Z,431913.58,NULL,Zufall,kikuti,d,NA,NA,NA,NA,sdf,NA,2,NA,NA,NA,NA,NA,NA,NA,NA,NA,NA,NA,NA,NA,NA,NA,NA,NA,NA,NA
a1b98,task,flow.Sequence,3_0_2_0_0,NA,NA,completion,8197.88,423698,423698.48,423699.4,431897.28,431900,2023-12-02T10:16:55Z,431913.58,NULL,Zufall,kikuti,d,NA,NA,NA,NA,sdf,NA,2,NA,NA,NA,NA,NA,NA,NA,NA,NA,NA,NA,NA,NA,NA,NA,NA,NA,NA,NA
a1b98,deep,flow.Sequence,3_0_2_0_1_0,NA,NA,skipped,NA,431900,NA,NA,431897.28,431901,2023-12-02T10:16:55Z,431913.58,NULL,Wettbewerb,ushindani,s,mapendezi,kichocheo,ubaguzi,NA,sdf,NA,2,NA,NA,NA,NA,NA,NA,NA,NA,NA,NA,NA,NA,NA,NA,NA,NA,NA,NA,NA
a1b98,Shallow Question,html.Page,3_0_2_0_1_1_0,NA,NA,form submission,32265.42,431901,431897.28,431913.58,464179,464183,2023-12-02T10:17:27Z,464193.04,NULL,Wettbewerb,ushindani,s,mapendezi,kichocheo,ubaguzi,ubaguzi,NA,NA,2,NA,NA,NA,NA,NA,NA,NA,NA,NA,NA,NA,NA,NA,NA,NA,NA,NA,NA,NA
a1b98,"""Richtig""-Screen",canvas.Screen,3_0_2_0_1_1_1,NA,NA,skipped,NA,464194,NA,NA,464179,464194,2023-12-02T10:17:27Z,464193.04,NULL,Wettbewerb,ushindani,s,mapendezi,kichocheo,ubaguzi,NA,sdf,NA,2,NA,NA,NA,NA,NA,NA,NA,NA,NA,NA,NA,NA,NA,NA,NA,NA,NA,NA,NA
a1b98,"""Falsch""-Screen",canvas.Screen,3_0_2_0_1_1_2,NA,NA,timeout,4999.54,464198,464169.9,464193.04,469175.88,469177,2023-12-02T10:17:32Z,469192.58,NULL,Wettbewerb,ushindani,s,mapendezi,kichocheo,ubaguzi,NA,sdf,0,2,NA,NA,NA,NA,NA,NA,NA,NA,NA,NA,NA,NA,NA,NA,NA,NA,NA,NA,NA
a1b98,shallow,flow.Sequence,3_0_2_0_1_1,NA,NA,completion,37262.3,431901,431897.28,431913.58,469175.88,469177,2023-12-02T10:17:32Z,469192.58,NULL,Wettbewerb,ushindani,s,mapendezi,kichocheo,ubaguzi,NA,sdf,NA,2,NA,NA,NA,NA,NA,NA,NA,NA,NA,NA,NA,NA,NA,NA,NA,NA,NA,NA,NA
a1b98,task,flow.Sequence,3_0_2_0_1,NA,NA,completion,37262.3,431900,431897.28,431913.58,469175.88,469178,2023-12-02T10:17:32Z,469192.58,NULL,Wettbewerb,ushindani,s,mapendezi,kichocheo,ubaguzi,NA,sdf,NA,2,NA,NA,NA,NA,NA,NA,NA,NA,NA,NA,NA,NA,NA,NA,NA,NA,NA,NA,NA
a1b98,Deep Question,html.Page,3_0_2_0_2_0_0,NA,NA,form submission,7857.42,469178,469175.88,469192.58,477050,477050,2023-12-02T10:17:40Z,477057.96,NULL,Kanzler,diwani,d,NA,NA,NA,divini,NA,NA,2,NA,NA,NA,NA,NA,NA,NA,NA,NA,NA,NA,NA,NA,NA,NA,NA,NA,NA,NA
a1b98,"""Richtig""-Screen",canvas.Screen,3_0_2_0_2_0_1,NA,NA,skipped,NA,477053,NA,NA,477050,477053,2023-12-02T10:17:40Z,477057.96,NULL,Kanzler,diwani,d,NA,NA,NA,NA,sdf,NA,2,NA,NA,NA,NA,NA,NA,NA,NA,NA,NA,NA,NA,NA,NA,NA,NA,NA,NA,NA
a1b98,"""Falsch""-Screen",canvas.Screen,3_0_2_0_2_0_2,NA,NA,timeout,4999.54,477056,477048.68,477057.96,482040.76,482042,2023-12-02T10:17:45Z,482057.5,NULL,Kanzler,diwani,d,NA,NA,NA,NA,sdf,0,2,NA,NA,NA,NA,NA,NA,NA,NA,NA,NA,NA,NA,NA,NA,NA,NA,NA,NA,NA
a1b98,deep,flow.Sequence,3_0_2_0_2_0,NA,NA,completion,12848.18,469178,469175.88,469192.58,482040.76,482043,2023-12-02T10:17:45Z,482057.5,NULL,Kanzler,diwani,d,NA,NA,NA,NA,sdf,NA,2,NA,NA,NA,NA,NA,NA,NA,NA,NA,NA,NA,NA,NA,NA,NA,NA,NA,NA,NA
a1b98,shallow,flow.Sequence,3_0_2_0_2_1,NA,NA,skipped,NA,482044,NA,NA,482040.76,482044,2023-12-02T10:17:45Z,482057.5,NULL,Kanzler,diwani,d,NA,NA,NA,NA,sdf,NA,2,NA,NA,NA,NA,NA,NA,NA,NA,NA,NA,NA,NA,NA,NA,NA,NA,NA,NA,NA
a1b98,task,flow.Sequence,3_0_2_0_2,NA,NA,completion,12848.18,469178,469175.88,469192.58,482040.76,482046,2023-12-02T10:17:45Z,482057.5,NULL,Kanzler,diwani,d,NA,NA,NA,NA,sdf,NA,2,NA,NA,NA,NA,NA,NA,NA,NA,NA,NA,NA,NA,NA,NA,NA,NA,NA,NA,NA
a1b98,deep,flow.Sequence,3_0_2_0_3_0,NA,NA,skipped,NA,482046,NA,NA,482040.76,482046,2023-12-02T10:17:45Z,482057.5,NULL,Auftrag,uagizaji,s,ghanima,kuzingatia,msukani,NA,sdf,NA,2,NA,NA,NA,NA,NA,NA,NA,NA,NA,NA,NA,NA,NA,NA,NA,NA,NA,NA,NA
a1b98,Shallow Question,html.Page,3_0_2_0_3_1_0,NA,NA,form submission,12586.5,482047,482040.76,482057.5,494644,494645,2023-12-02T10:17:58Z,494652.86,NULL,Auftrag,uagizaji,s,ghanima,kuzingatia,msukani,uagizaji,NA,NA,2,NA,NA,NA,NA,NA,NA,NA,NA,NA,NA,NA,NA,NA,NA,NA,NA,NA,NA,NA
a1b98,"""Richtig""-Screen",canvas.Screen,3_0_2_0_3_1_1,NA,NA,timeout,5002.28,494650,494640.02,494652.86,499638.72,499641,2023-12-02T10:18:03Z,499655.14,NULL,Auftrag,uagizaji,s,ghanima,kuzingatia,msukani,NA,sdf,1,2,NA,NA,NA,NA,NA,NA,NA,NA,NA,NA,NA,NA,NA,NA,NA,NA,NA,NA,NA
a1b98,"""Falsch""-Screen",canvas.Screen,3_0_2_0_3_1_2,NA,NA,skipped,NA,499648,NA,NA,499638.72,499648,2023-12-02T10:18:03Z,499655.14,NULL,Auftrag,uagizaji,s,ghanima,kuzingatia,msukani,NA,sdf,NA,2,NA,NA,NA,NA,NA,NA,NA,NA,NA,NA,NA,NA,NA,NA,NA,NA,NA,NA,NA
a1b98,shallow,flow.Sequence,3_0_2_0_3_1,NA,NA,completion,17581.22,482047,482040.76,482057.5,499638.72,499649,2023-12-02T10:18:03Z,499655.14,NULL,Auftrag,uagizaji,s,ghanima,kuzingatia,msukani,NA,sdf,NA,2,NA,NA,NA,NA,NA,NA,NA,NA,NA,NA,NA,NA,NA,NA,NA,NA,NA,NA,NA
a1b98,task,flow.Sequence,3_0_2_0_3,NA,NA,completion,17581.22,482046,482040.76,482057.5,499638.72,499650,2023-12-02T10:18:03Z,499655.14,NULL,Auftrag,uagizaji,s,ghanima,kuzingatia,msukani,NA,sdf,NA,2,NA,NA,NA,NA,NA,NA,NA,NA,NA,NA,NA,NA,NA,NA,NA,NA,NA,NA,NA
a1b98,Deep Question,html.Page,3_0_2_0_4_0_0,NA,NA,form submission,8276.86,499650,499638.72,499655.14,507932,507932,2023-12-02T10:18:11Z,507937.4,NULL,Schönheit,kirembo,d,NA,NA,NA,kiremba,NA,NA,2,NA,NA,NA,NA,NA,NA,NA,NA,NA,NA,NA,NA,NA,NA,NA,NA,NA,NA,NA
a1b98,"""Richtig""-Screen",canvas.Screen,3_0_2_0_4_0_1,NA,NA,skipped,NA,507935,NA,NA,507932,507935,2023-12-02T10:18:11Z,507937.4,NULL,Schönheit,kirembo,d,NA,NA,NA,NA,sdf,NA,2,NA,NA,NA,NA,NA,NA,NA,NA,NA,NA,NA,NA,NA,NA,NA,NA,NA,NA,NA
a1b98,"""Falsch""-Screen",canvas.Screen,3_0_2_0_4_0_2,NA,NA,timeout,4999.52,507937,507930.48,507937.4,512920.32,512921,2023-12-02T10:18:16Z,512936.92,NULL,Schönheit,kirembo,d,NA,NA,NA,NA,sdf,0,2,NA,NA,NA,NA,NA,NA,NA,NA,NA,NA,NA,NA,NA,NA,NA,NA,NA,NA,NA
a1b98,deep,flow.Sequence,3_0_2_0_4_0,NA,NA,completion,13265.18,499650,499638.72,499655.14,512920.32,512922,2023-12-02T10:18:16Z,512936.92,NULL,Schönheit,kirembo,d,NA,NA,NA,NA,sdf,NA,2,NA,NA,NA,NA,NA,NA,NA,NA,NA,NA,NA,NA,NA,NA,NA,NA,NA,NA,NA
a1b98,shallow,flow.Sequence,3_0_2_0_4_1,NA,NA,skipped,NA,512923,NA,NA,512920.32,512923,2023-12-02T10:18:16Z,512936.92,NULL,Schönheit,kirembo,d,NA,NA,NA,NA,sdf,NA,2,NA,NA,NA,NA,NA,NA,NA,NA,NA,NA,NA,NA,NA,NA,NA,NA,NA,NA,NA
a1b98,task,flow.Sequence,3_0_2_0_4,NA,NA,completion,13265.18,499650,499638.72,499655.14,512920.32,512923,2023-12-02T10:18:16Z,512936.92,NULL,Schönheit,kirembo,d,NA,NA,NA,NA,sdf,NA,2,NA,NA,NA,NA,NA,NA,NA,NA,NA,NA,NA,NA,NA,NA,NA,NA,NA,NA,NA
a1b98,deep,flow.Sequence,3_0_2_0_5_0,NA,NA,skipped,NA,512924,NA,NA,512920.32,512924,2023-12-02T10:18:16Z,512936.92,NULL,Angreifer,mshambulizi,s,kitengo,tasinia,usafirishaji,NA,sdf,NA,2,NA,NA,NA,NA,NA,NA,NA,NA,NA,NA,NA,NA,NA,NA,NA,NA,NA,NA,NA
a1b98,Shallow Question,html.Page,3_0_2_0_5_1_0,NA,NA,form submission,25236.08,512924,512920.32,512936.92,538173,538174,2023-12-02T10:18:41Z,538183.54,NULL,Angreifer,mshambulizi,s,kitengo,tasinia,usafirishaji,mshambulizi,NA,NA,2,NA,NA,NA,NA,NA,NA,NA,NA,NA,NA,NA,NA,NA,NA,NA,NA,NA,NA,NA
a1b98,"""Richtig""-Screen",canvas.Screen,3_0_2_0_5_1_1,NA,NA,timeout,4999.3999999999,538178,538168,538183.54,543166.36,543167,2023-12-02T10:18:46Z,543182.94,NULL,Angreifer,mshambulizi,s,kitengo,tasinia,usafirishaji,NA,sdf,1,2,NA,NA,NA,NA,NA,NA,NA,NA,NA,NA,NA,NA,NA,NA,NA,NA,NA,NA,NA
a1b98,"""Falsch""-Screen",canvas.Screen,3_0_2_0_5_1_2,NA,NA,skipped,NA,543175,NA,NA,543166.36,543176,2023-12-02T10:18:46Z,543182.94,NULL,Angreifer,mshambulizi,s,kitengo,tasinia,usafirishaji,NA,sdf,NA,2,NA,NA,NA,NA,NA,NA,NA,NA,NA,NA,NA,NA,NA,NA,NA,NA,NA,NA,NA
a1b98,shallow,flow.Sequence,3_0_2_0_5_1,NA,NA,completion,30229.44,512924,512920.32,512936.92,543166.36,543176,2023-12-02T10:18:46Z,543182.94,NULL,Angreifer,mshambulizi,s,kitengo,tasinia,usafirishaji,NA,sdf,NA,2,NA,NA,NA,NA,NA,NA,NA,NA,NA,NA,NA,NA,NA,NA,NA,NA,NA,NA,NA
a1b98,task,flow.Sequence,3_0_2_0_5,NA,NA,completion,30229.44,512924,512920.32,512936.92,543166.36,543176,2023-12-02T10:18:46Z,543182.94,NULL,Angreifer,mshambulizi,s,kitengo,tasinia,usafirishaji,NA,sdf,NA,2,NA,NA,NA,NA,NA,NA,NA,NA,NA,NA,NA,NA,NA,NA,NA,NA,NA,NA,NA
a1b98,deep,flow.Sequence,3_0_2_0_6_0,NA,NA,skipped,NA,543177,NA,NA,543166.36,543177,2023-12-02T10:18:46Z,543182.94,NULL,Sänger,mwimbaji,s,msichana,shughuli,mshirika,NA,sdf,NA,2,NA,NA,NA,NA,NA,NA,NA,NA,NA,NA,NA,NA,NA,NA,NA,NA,NA,NA,NA
a1b98,Shallow Question,html.Page,3_0_2_0_6_1_0,NA,NA,form submission,30461.06,543177,543166.36,543182.94,573644,573644,2023-12-02T10:19:17Z,573645.6,NULL,Sänger,mwimbaji,s,msichana,shughuli,mshirika,msichana,NA,NA,2,NA,NA,NA,NA,NA,NA,NA,NA,NA,NA,NA,NA,NA,NA,NA,NA,NA,NA,NA
a1b98,"""Richtig""-Screen",canvas.Screen,3_0_2_0_6_1_1,NA,NA,skipped,NA,573645,NA,NA,573644,573645,2023-12-02T10:19:17Z,573645.6,NULL,Sänger,mwimbaji,s,msichana,shughuli,mshirika,NA,sdf,NA,2,NA,NA,NA,NA,NA,NA,NA,NA,NA,NA,NA,NA,NA,NA,NA,NA,NA,NA,NA
a1b98,"""Falsch""-Screen",canvas.Screen,3_0_2_0_6_1_2,NA,NA,timeout,4999.42,573647,573641.82,573645.6,578628.64,578630,2023-12-02T10:19:22Z,578645.02,NULL,Sänger,mwimbaji,s,msichana,shughuli,mshirika,NA,sdf,0,2,NA,NA,NA,NA,NA,NA,NA,NA,NA,NA,NA,NA,NA,NA,NA,NA,NA,NA,NA
a1b98,shallow,flow.Sequence,3_0_2_0_6_1,NA,NA,completion,35445.7,543177,543166.36,543182.94,578628.64,578631,2023-12-02T10:19:22Z,578645.02,NULL,Sänger,mwimbaji,s,msichana,shughuli,mshirika,NA,sdf,NA,2,NA,NA,NA,NA,NA,NA,NA,NA,NA,NA,NA,NA,NA,NA,NA,NA,NA,NA,NA
a1b98,task,flow.Sequence,3_0_2_0_6,NA,NA,completion,35445.7,543177,543166.36,543182.94,578628.64,578632,2023-12-02T10:19:22Z,578645.02,NULL,Sänger,mwimbaji,s,msichana,shughuli,mshirika,NA,sdf,NA,2,NA,NA,NA,NA,NA,NA,NA,NA,NA,NA,NA,NA,NA,NA,NA,NA,NA,NA,NA
a1b98,Deep Question,html.Page,3_0_2_0_7_0_0,NA,NA,form submission,27827.98,578632,578628.64,578645.02,606473,606474,2023-12-02T10:19:49Z,606474.82,NULL,Abrechnung,uhasibu,d,NA,NA,NA,uhasibu,NA,NA,2,NA,NA,NA,NA,NA,NA,NA,NA,NA,NA,NA,NA,NA,NA,NA,NA,NA,NA,NA
a1b98,"""Richtig""-Screen",canvas.Screen,3_0_2_0_7_0_1,NA,NA,timeout,4999.4,606476,606472.18,606474.82,611457.72,611459,2023-12-02T10:19:54Z,611474.22,NULL,Abrechnung,uhasibu,d,NA,NA,NA,NA,sdf,1,2,NA,NA,NA,NA,NA,NA,NA,NA,NA,NA,NA,NA,NA,NA,NA,NA,NA,NA,NA
a1b98,"""Falsch""-Screen",canvas.Screen,3_0_2_0_7_0_2,NA,NA,skipped,NA,611463,NA,NA,611457.72,611463,2023-12-02T10:19:54Z,611474.22,NULL,Abrechnung,uhasibu,d,NA,NA,NA,NA,sdf,NA,2,NA,NA,NA,NA,NA,NA,NA,NA,NA,NA,NA,NA,NA,NA,NA,NA,NA,NA,NA
a1b98,deep,flow.Sequence,3_0_2_0_7_0,NA,NA,completion,32812.7,578632,578628.64,578645.02,611457.72,611463,2023-12-02T10:19:54Z,611474.22,NULL,Abrechnung,uhasibu,d,NA,NA,NA,NA,sdf,NA,2,NA,NA,NA,NA,NA,NA,NA,NA,NA,NA,NA,NA,NA,NA,NA,NA,NA,NA,NA
a1b98,shallow,flow.Sequence,3_0_2_0_7_1,NA,NA,skipped,NA,611463,NA,NA,611457.72,611463,2023-12-02T10:19:54Z,611474.22,NULL,Abrechnung,uhasibu,d,NA,NA,NA,NA,sdf,NA,2,NA,NA,NA,NA,NA,NA,NA,NA,NA,NA,NA,NA,NA,NA,NA,NA,NA,NA,NA
a1b98,task,flow.Sequence,3_0_2_0_7,NA,NA,completion,32812.7,578632,578628.64,578645.02,611457.72,611464,2023-12-02T10:19:54Z,611474.22,NULL,Abrechnung,uhasibu,d,NA,NA,NA,NA,sdf,NA,2,NA,NA,NA,NA,NA,NA,NA,NA,NA,NA,NA,NA,NA,NA,NA,NA,NA,NA,NA
a1b98,block,flow.Loop,3_0_2_0,NA,NA,completion,187758.32,423698,423698.48,423699.4,611457.72,611464,2023-12-02T10:19:54Z,611474.22,NULL,NA,NA,NA,NA,NA,NA,NA,sdf,NA,2,NA,NA,NA,NA,NA,NA,NA,NA,NA,NA,NA,NA,NA,NA,NA,NA,NA,NA,NA
a1b98,weiter,canvas.Screen,3_0_2_1,sdf,keypress(Space),response,1566.78,611464,611457.72,611474.22,613041,613057,2023-12-02T10:19:56Z,613120,NULL,NA,NA,NA,NA,NA,NA,NA,sdf,NA,2,NA,NA,NA,NA,NA,NA,NA,NA,NA,NA,NA,NA,NA,NA,NA,NA,NA,NA,NA
a1b98,check continue,flow.Sequence,3_0_2,NA,NA,completion,189341.6,423698,423698.48,423699.4,613041,613057,2023-12-02T10:19:56Z,613120,NULL,NA,NA,NA,NA,NA,NA,NA,sdf,NA,2,NA,NA,NA,NA,NA,NA,NA,NA,NA,NA,NA,NA,NA,NA,NA,NA,NA,NA,NA
a1b98,Deep Question,html.Page,3_0_3_0_0_0_0,NA,NA,form submission,13655,613120,613119.7,613120,626775,626775,2023-12-02T10:20:10Z,626774.44,NULL,Schönheit,kirembo,d,NA,NA,NA,kirebo,NA,NA,3,NA,NA,NA,NA,NA,NA,NA,NA,NA,NA,NA,NA,NA,NA,NA,NA,NA,NA,NA
a1b98,"""Richtig""-Screen",canvas.Screen,3_0_3_0_0_0_1,NA,NA,skipped,NA,626778,NA,NA,626775,626778,2023-12-02T10:20:10Z,626774.44,NULL,Schönheit,kirembo,d,NA,NA,NA,NA,qt,NA,3,NA,NA,NA,NA,NA,NA,NA,NA,NA,NA,NA,NA,NA,NA,NA,NA,NA,NA,NA
a1b98,"""Falsch""-Screen",canvas.Screen,3_0_3_0_0_0_2,NA,NA,timeout,4997.14,626781,626774.08,626774.44,631755.36,631761,2023-12-02T10:20:15Z,631771.58,NULL,Schönheit,kirembo,d,NA,NA,NA,NA,qt,0,3,NA,NA,NA,NA,NA,NA,NA,NA,NA,NA,NA,NA,NA,NA,NA,NA,NA,NA,NA
a1b98,deep,flow.Sequence,3_0_3_0_0_0,NA,NA,completion,18635.36,613120,613119.7,613120,631755.36,631764,2023-12-02T10:20:15Z,631771.58,NULL,Schönheit,kirembo,d,NA,NA,NA,NA,qt,NA,3,NA,NA,NA,NA,NA,NA,NA,NA,NA,NA,NA,NA,NA,NA,NA,NA,NA,NA,NA
a1b98,shallow,flow.Sequence,3_0_3_0_0_1,NA,NA,skipped,NA,631765,NA,NA,631755.36,631766,2023-12-02T10:20:15Z,631771.58,NULL,Schönheit,kirembo,d,NA,NA,NA,NA,qt,NA,3,NA,NA,NA,NA,NA,NA,NA,NA,NA,NA,NA,NA,NA,NA,NA,NA,NA,NA,NA
a1b98,task,flow.Sequence,3_0_3_0_0,NA,NA,completion,18635.36,613120,613119.7,613120,631755.36,631767,2023-12-02T10:20:15Z,631771.58,NULL,Schönheit,kirembo,d,NA,NA,NA,NA,qt,NA,3,NA,NA,NA,NA,NA,NA,NA,NA,NA,NA,NA,NA,NA,NA,NA,NA,NA,NA,NA
a1b98,Deep Question,html.Page,3_0_3_0_1_0_0,NA,NA,form submission,10951.42,631768,631755.36,631771.58,642723,642724,2023-12-02T10:20:26Z,642722.18,NULL,Abrechnung,uhasibu,d,NA,NA,NA,uhasibu,NA,NA,3,NA,NA,NA,NA,NA,NA,NA,NA,NA,NA,NA,NA,NA,NA,NA,NA,NA,NA,NA
a1b98,"""Richtig""-Screen",canvas.Screen,3_0_3_0_1_0_1,NA,NA,timeout,4997.4399999999,642729,642721.86,642722.18,647703,647704,2023-12-02T10:20:31Z,647719.62,NULL,Abrechnung,uhasibu,d,NA,NA,NA,NA,qt,1,3,NA,NA,NA,NA,NA,NA,NA,NA,NA,NA,NA,NA,NA,NA,NA,NA,NA,NA,NA
a1b98,"""Falsch""-Screen",canvas.Screen,3_0_3_0_1_0_2,NA,NA,skipped,NA,647712,NA,NA,647703,647713,2023-12-02T10:20:31Z,647719.62,NULL,Abrechnung,uhasibu,d,NA,NA,NA,NA,qt,NA,3,NA,NA,NA,NA,NA,NA,NA,NA,NA,NA,NA,NA,NA,NA,NA,NA,NA,NA,NA
a1b98,deep,flow.Sequence,3_0_3_0_1_0,NA,NA,completion,15931.42,631767,631755.36,631771.58,647703,647713,2023-12-02T10:20:31Z,647719.62,NULL,Abrechnung,uhasibu,d,NA,NA,NA,NA,qt,NA,3,NA,NA,NA,NA,NA,NA,NA,NA,NA,NA,NA,NA,NA,NA,NA,NA,NA,NA,NA
a1b98,shallow,flow.Sequence,3_0_3_0_1_1,NA,NA,skipped,NA,647714,NA,NA,647703,647714,2023-12-02T10:20:31Z,647719.62,NULL,Abrechnung,uhasibu,d,NA,NA,NA,NA,qt,NA,3,NA,NA,NA,NA,NA,NA,NA,NA,NA,NA,NA,NA,NA,NA,NA,NA,NA,NA,NA
a1b98,task,flow.Sequence,3_0_3_0_1,NA,NA,completion,15931.42,631767,631755.36,631771.58,647703,647715,2023-12-02T10:20:31Z,647719.62,NULL,Abrechnung,uhasibu,d,NA,NA,NA,NA,qt,NA,3,NA,NA,NA,NA,NA,NA,NA,NA,NA,NA,NA,NA,NA,NA,NA,NA,NA,NA,NA
a1b98,Deep Question,html.Page,3_0_3_0_2_0_0,NA,NA,form submission,13031.38,647715,647703,647719.62,660751,660752,2023-12-02T10:20:44Z,660751.24,NULL,Kanzler,diwani,d,NA,NA,NA,divino,NA,NA,3,NA,NA,NA,NA,NA,NA,NA,NA,NA,NA,NA,NA,NA,NA,NA,NA,NA,NA,NA
a1b98,"""Richtig""-Screen",canvas.Screen,3_0_3_0_2_0_1,NA,NA,skipped,NA,660755,NA,NA,660751,660755,2023-12-02T10:20:44Z,660751.24,NULL,Kanzler,diwani,d,NA,NA,NA,NA,qt,NA,3,NA,NA,NA,NA,NA,NA,NA,NA,NA,NA,NA,NA,NA,NA,NA,NA,NA,NA,NA
a1b98,"""Falsch""-Screen",canvas.Screen,3_0_3_0_2_0_2,NA,NA,timeout,4999.34,660758,660749.72,660751.24,665734.34,665736,2023-12-02T10:20:49Z,665750.58,NULL,Kanzler,diwani,d,NA,NA,NA,NA,qt,0,3,NA,NA,NA,NA,NA,NA,NA,NA,NA,NA,NA,NA,NA,NA,NA,NA,NA,NA,NA
a1b98,deep,flow.Sequence,3_0_3_0_2_0,NA,NA,completion,18014.72,647715,647703,647719.62,665734.34,665737,2023-12-02T10:20:49Z,665750.58,NULL,Kanzler,diwani,d,NA,NA,NA,NA,qt,NA,3,NA,NA,NA,NA,NA,NA,NA,NA,NA,NA,NA,NA,NA,NA,NA,NA,NA,NA,NA
a1b98,shallow,flow.Sequence,3_0_3_0_2_1,NA,NA,skipped,NA,665737,NA,NA,665734.34,665737,2023-12-02T10:20:49Z,665750.58,NULL,Kanzler,diwani,d,NA,NA,NA,NA,qt,NA,3,NA,NA,NA,NA,NA,NA,NA,NA,NA,NA,NA,NA,NA,NA,NA,NA,NA,NA,NA
a1b98,task,flow.Sequence,3_0_3_0_2,NA,NA,completion,18014.72,647715,647703,647719.62,665734.34,665738,2023-12-02T10:20:49Z,665750.58,NULL,Kanzler,diwani,d,NA,NA,NA,NA,qt,NA,3,NA,NA,NA,NA,NA,NA,NA,NA,NA,NA,NA,NA,NA,NA,NA,NA,NA,NA,NA
a1b98,deep,flow.Sequence,3_0_3_0_3_0,NA,NA,skipped,NA,665738,NA,NA,665734.34,665739,2023-12-02T10:20:49Z,665750.58,NULL,Auftrag,uagizaji,s,ghanima,kuzingatia,msukani,NA,qt,NA,3,NA,NA,NA,NA,NA,NA,NA,NA,NA,NA,NA,NA,NA,NA,NA,NA,NA,NA,NA
a1b98,Shallow Question,html.Page,3_0_3_0_3_1_0,NA,NA,form submission,11888.42,665740,665734.34,665750.58,677639,677639,2023-12-02T10:21:01Z,677649.06,NULL,Auftrag,uagizaji,s,ghanima,kuzingatia,msukani,uagizaji,NA,NA,3,NA,NA,NA,NA,NA,NA,NA,NA,NA,NA,NA,NA,NA,NA,NA,NA,NA,NA,NA
a1b98,"""Richtig""-Screen",canvas.Screen,3_0_3_0_3_1_1,NA,NA,timeout,4999.5599999999,677642,677634.54,677649.06,682631.8,682633,2023-12-02T10:21:06Z,682648.62,NULL,Auftrag,uagizaji,s,ghanima,kuzingatia,msukani,NA,qt,1,3,NA,NA,NA,NA,NA,NA,NA,NA,NA,NA,NA,NA,NA,NA,NA,NA,NA,NA,NA
a1b98,"""Falsch""-Screen",canvas.Screen,3_0_3_0_3_1_2,NA,NA,skipped,NA,682636,NA,NA,682631.8,682636,2023-12-02T10:21:06Z,682648.62,NULL,Auftrag,uagizaji,s,ghanima,kuzingatia,msukani,NA,qt,NA,3,NA,NA,NA,NA,NA,NA,NA,NA,NA,NA,NA,NA,NA,NA,NA,NA,NA,NA,NA
a1b98,shallow,flow.Sequence,3_0_3_0_3_1,NA,NA,completion,16881.22,665739,665734.34,665750.58,682631.8,682636,2023-12-02T10:21:06Z,682648.62,NULL,Auftrag,uagizaji,s,ghanima,kuzingatia,msukani,NA,qt,NA,3,NA,NA,NA,NA,NA,NA,NA,NA,NA,NA,NA,NA,NA,NA,NA,NA,NA,NA,NA
a1b98,task,flow.Sequence,3_0_3_0_3,NA,NA,completion,16881.22,665738,665734.34,665750.58,682631.8,682636,2023-12-02T10:21:06Z,682648.62,NULL,Auftrag,uagizaji,s,ghanima,kuzingatia,msukani,NA,qt,NA,3,NA,NA,NA,NA,NA,NA,NA,NA,NA,NA,NA,NA,NA,NA,NA,NA,NA,NA,NA
a1b98,deep,flow.Sequence,3_0_3_0_4_0,NA,NA,skipped,NA,682637,NA,NA,682631.8,682637,2023-12-02T10:21:06Z,682648.62,NULL,Wettbewerb,ushindani,s,mapendezi,kichocheo,ubaguzi,NA,qt,NA,3,NA,NA,NA,NA,NA,NA,NA,NA,NA,NA,NA,NA,NA,NA,NA,NA,NA,NA,NA
a1b98,Shallow Question,html.Page,3_0_3_0_4_1_0,NA,NA,form submission,12744.38,682637,682631.8,682648.62,695393,695396,2023-12-02T10:21:18Z,695396.84,NULL,Wettbewerb,ushindani,s,mapendezi,kichocheo,ubaguzi,mapendezi,NA,NA,3,NA,NA,NA,NA,NA,NA,NA,NA,NA,NA,NA,NA,NA,NA,NA,NA,NA,NA,NA
a1b98,"""Richtig""-Screen",canvas.Screen,3_0_3_0_4_1_1,NA,NA,skipped,NA,695403,NA,NA,695393,695403,2023-12-02T10:21:18Z,695396.84,NULL,Wettbewerb,ushindani,s,mapendezi,kichocheo,ubaguzi,NA,qt,NA,3,NA,NA,NA,NA,NA,NA,NA,NA,NA,NA,NA,NA,NA,NA,NA,NA,NA,NA,NA
a1b98,"""Falsch""-Screen",canvas.Screen,3_0_3_0_4_1_2,NA,NA,timeout,4999.48,695405,695387.28,695396.84,700379.76,700381,2023-12-02T10:21:23Z,700396.32,NULL,Wettbewerb,ushindani,s,mapendezi,kichocheo,ubaguzi,NA,qt,0,3,NA,NA,NA,NA,NA,NA,NA,NA,NA,NA,NA,NA,NA,NA,NA,NA,NA,NA,NA
a1b98,shallow,flow.Sequence,3_0_3_0_4_1,NA,NA,completion,17731.14,682637,682631.8,682648.62,700379.76,700382,2023-12-02T10:21:23Z,700396.32,NULL,Wettbewerb,ushindani,s,mapendezi,kichocheo,ubaguzi,NA,qt,NA,3,NA,NA,NA,NA,NA,NA,NA,NA,NA,NA,NA,NA,NA,NA,NA,NA,NA,NA,NA
a1b98,task,flow.Sequence,3_0_3_0_4,NA,NA,completion,17731.14,682637,682631.8,682648.62,700379.76,700382,2023-12-02T10:21:23Z,700396.32,NULL,Wettbewerb,ushindani,s,mapendezi,kichocheo,ubaguzi,NA,qt,NA,3,NA,NA,NA,NA,NA,NA,NA,NA,NA,NA,NA,NA,NA,NA,NA,NA,NA,NA,NA
a1b98,Deep Question,html.Page,3_0_3_0_5_0_0,NA,NA,form submission,6738.6800000001,700383,700379.76,700396.32,707135,707136,2023-12-02T10:21:30Z,707145.3,NULL,Zufall,kikuti,d,NA,NA,NA,f,NA,NA,3,NA,NA,NA,NA,NA,NA,NA,NA,NA,NA,NA,NA,NA,NA,NA,NA,NA,NA,NA
a1b98,"""Richtig""-Screen",canvas.Screen,3_0_3_0_5_0_1,NA,NA,skipped,NA,707138,NA,NA,707135,707138,2023-12-02T10:21:30Z,707145.3,NULL,Zufall,kikuti,d,NA,NA,NA,NA,qt,NA,3,NA,NA,NA,NA,NA,NA,NA,NA,NA,NA,NA,NA,NA,NA,NA,NA,NA,NA,NA
a1b98,"""Falsch""-Screen",canvas.Screen,3_0_3_0_5_0_2,NA,NA,timeout,4999.5,707141,707133.64,707145.3,712128.26,712129,2023-12-02T10:21:35Z,712144.8,NULL,Zufall,kikuti,d,NA,NA,NA,NA,qt,0,3,NA,NA,NA,NA,NA,NA,NA,NA,NA,NA,NA,NA,NA,NA,NA,NA,NA,NA,NA
a1b98,deep,flow.Sequence,3_0_3_0_5_0,NA,NA,completion,11731.94,700383,700379.76,700396.32,712128.26,712130,2023-12-02T10:21:35Z,712144.8,NULL,Zufall,kikuti,d,NA,NA,NA,NA,qt,NA,3,NA,NA,NA,NA,NA,NA,NA,NA,NA,NA,NA,NA,NA,NA,NA,NA,NA,NA,NA
a1b98,shallow,flow.Sequence,3_0_3_0_5_1,NA,NA,skipped,NA,712132,NA,NA,712128.26,712132,2023-12-02T10:21:35Z,712144.8,NULL,Zufall,kikuti,d,NA,NA,NA,NA,qt,NA,3,NA,NA,NA,NA,NA,NA,NA,NA,NA,NA,NA,NA,NA,NA,NA,NA,NA,NA,NA
a1b98,task,flow.Sequence,3_0_3_0_5,NA,NA,completion,11731.94,700383,700379.76,700396.32,712128.26,712133,2023-12-02T10:21:35Z,712144.8,NULL,Zufall,kikuti,d,NA,NA,NA,NA,qt,NA,3,NA,NA,NA,NA,NA,NA,NA,NA,NA,NA,NA,NA,NA,NA,NA,NA,NA,NA,NA
a1b98,deep,flow.Sequence,3_0_3_0_6_0,NA,NA,skipped,NA,712134,NA,NA,712128.26,712134,2023-12-02T10:21:35Z,712144.8,NULL,Sänger,mwimbaji,s,msichana,shughuli,mshirika,NA,qt,NA,3,NA,NA,NA,NA,NA,NA,NA,NA,NA,NA,NA,NA,NA,NA,NA,NA,NA,NA,NA
a1b98,Shallow Question,html.Page,3_0_3_0_6_1_0,NA,NA,form submission,11384.2,712134,712128.26,712144.8,723529,723530,2023-12-02T10:21:47Z,723526.58,NULL,Sänger,mwimbaji,s,msichana,shughuli,mshirika,mshirika,NA,NA,3,NA,NA,NA,NA,NA,NA,NA,NA,NA,NA,NA,NA,NA,NA,NA,NA,NA,NA,NA
a1b98,"""Richtig""-Screen",canvas.Screen,3_0_3_0_6_1_1,NA,NA,skipped,NA,723536,NA,NA,723529,723536,2023-12-02T10:21:47Z,723526.58,NULL,Sänger,mwimbaji,s,msichana,shughuli,mshirika,NA,qt,NA,3,NA,NA,NA,NA,NA,NA,NA,NA,NA,NA,NA,NA,NA,NA,NA,NA,NA,NA,NA
a1b98,"""Falsch""-Screen",canvas.Screen,3_0_3_0_6_1_2,NA,NA,timeout,4999.36,723539,723523.3,723526.58,728509.28,728509,2023-12-02T10:21:51Z,728525.94,NULL,Sänger,mwimbaji,s,msichana,shughuli,mshirika,NA,qt,0,3,NA,NA,NA,NA,NA,NA,NA,NA,NA,NA,NA,NA,NA,NA,NA,NA,NA,NA,NA
a1b98,shallow,flow.Sequence,3_0_3_0_6_1,NA,NA,completion,16364.48,712134,712128.26,712144.8,728509.28,728510,2023-12-02T10:21:51Z,728525.94,NULL,Sänger,mwimbaji,s,msichana,shughuli,mshirika,NA,qt,NA,3,NA,NA,NA,NA,NA,NA,NA,NA,NA,NA,NA,NA,NA,NA,NA,NA,NA,NA,NA
a1b98,task,flow.Sequence,3_0_3_0_6,NA,NA,completion,16364.48,712134,712128.26,712144.8,728509.28,728511,2023-12-02T10:21:51Z,728525.94,NULL,Sänger,mwimbaji,s,msichana,shughuli,mshirika,NA,qt,NA,3,NA,NA,NA,NA,NA,NA,NA,NA,NA,NA,NA,NA,NA,NA,NA,NA,NA,NA,NA
a1b98,deep,flow.Sequence,3_0_3_0_7_0,NA,NA,skipped,NA,728511,NA,NA,728509.28,728511,2023-12-02T10:21:51Z,728525.94,NULL,Angreifer,mshambulizi,s,kitengo,tasinia,usafirishaji,NA,qt,NA,3,NA,NA,NA,NA,NA,NA,NA,NA,NA,NA,NA,NA,NA,NA,NA,NA,NA,NA,NA
a1b98,Shallow Question,html.Page,3_0_3_0_7_1_0,NA,NA,form submission,13735.06,728511,728509.28,728525.94,742261,742262,2023-12-02T10:22:05Z,742257.48,NULL,Angreifer,mshambulizi,s,kitengo,tasinia,usafirishaji,mshambulizi,NA,NA,3,NA,NA,NA,NA,NA,NA,NA,NA,NA,NA,NA,NA,NA,NA,NA,NA,NA,NA,NA
a1b98,"""Richtig""-Screen",canvas.Screen,3_0_3_0_7_1_1,NA,NA,timeout,4999.6,742269,742256.96,742257.48,747240.56,747242,2023-12-02T10:22:10Z,747257.08,NULL,Angreifer,mshambulizi,s,kitengo,tasinia,usafirishaji,NA,qt,1,3,NA,NA,NA,NA,NA,NA,NA,NA,NA,NA,NA,NA,NA,NA,NA,NA,NA,NA,NA
a1b98,"""Falsch""-Screen",canvas.Screen,3_0_3_0_7_1_2,NA,NA,skipped,NA,747246,NA,NA,747240.56,747246,2023-12-02T10:22:10Z,747257.08,NULL,Angreifer,mshambulizi,s,kitengo,tasinia,usafirishaji,NA,qt,NA,3,NA,NA,NA,NA,NA,NA,NA,NA,NA,NA,NA,NA,NA,NA,NA,NA,NA,NA,NA
a1b98,shallow,flow.Sequence,3_0_3_0_7_1,NA,NA,completion,18714.62,728511,728509.28,728525.94,747240.56,747246,2023-12-02T10:22:10Z,747257.08,NULL,Angreifer,mshambulizi,s,kitengo,tasinia,usafirishaji,NA,qt,NA,3,NA,NA,NA,NA,NA,NA,NA,NA,NA,NA,NA,NA,NA,NA,NA,NA,NA,NA,NA
a1b98,task,flow.Sequence,3_0_3_0_7,NA,NA,completion,18714.62,728511,728509.28,728525.94,747240.56,747246,2023-12-02T10:22:10Z,747257.08,NULL,Angreifer,mshambulizi,s,kitengo,tasinia,usafirishaji,NA,qt,NA,3,NA,NA,NA,NA,NA,NA,NA,NA,NA,NA,NA,NA,NA,NA,NA,NA,NA,NA,NA
a1b98,block,flow.Loop,3_0_3_0,NA,NA,completion,134120.56,613120,613119.7,613120,747240.56,747246,2023-12-02T10:22:10Z,747257.08,NULL,NA,NA,NA,NA,NA,NA,NA,qt,NA,3,NA,NA,NA,NA,NA,NA,NA,NA,NA,NA,NA,NA,NA,NA,NA,NA,NA,NA,NA
a1b98,weiter,canvas.Screen,3_0_3_1,sdf,keypress(Space),response,908.92000000004,747246,747240.56,747257.08,748166,748180,2023-12-02T10:22:11Z,748251.98,NULL,NA,NA,NA,NA,NA,NA,NA,qt,NA,3,NA,NA,NA,NA,NA,NA,NA,NA,NA,NA,NA,NA,NA,NA,NA,NA,NA,NA,NA
a1b98,check continue,flow.Sequence,3_0_3,NA,NA,completion,135046,613120,613119.7,613120,748166,748181,2023-12-02T10:22:11Z,748251.98,NULL,NA,NA,NA,NA,NA,NA,NA,qt,NA,3,NA,NA,NA,NA,NA,NA,NA,NA,NA,NA,NA,NA,NA,NA,NA,NA,NA,NA,NA
a1b98,Deep Question,html.Page,3_0_4_0_0_0_0,NA,NA,form submission,5659.02,748251,748251.7,748251.98,753911,753912,2023-12-02T10:22:17Z,753911.18,NULL,Abrechnung,uhasibu,d,NA,NA,NA,uhasibu,NA,NA,4,NA,NA,NA,NA,NA,NA,NA,NA,NA,NA,NA,NA,NA,NA,NA,NA,NA,NA,NA
a1b98,"""Richtig""-Screen",canvas.Screen,3_0_4_0_0_0_1,NA,NA,timeout,4994.2599999999,753914,753910.8,753911.18,758889,758890,2023-12-02T10:22:22Z,758905.44,NULL,Abrechnung,uhasibu,d,NA,NA,NA,NA,sd,1,4,NA,NA,NA,NA,NA,NA,NA,NA,NA,NA,NA,NA,NA,NA,NA,NA,NA,NA,NA
a1b98,"""Falsch""-Screen",canvas.Screen,3_0_4_0_0_0_2,NA,NA,skipped,NA,758896,NA,NA,758889,758896,2023-12-02T10:22:22Z,758905.44,NULL,Abrechnung,uhasibu,d,NA,NA,NA,NA,sd,NA,4,NA,NA,NA,NA,NA,NA,NA,NA,NA,NA,NA,NA,NA,NA,NA,NA,NA,NA,NA
a1b98,deep,flow.Sequence,3_0_4_0_0_0,NA,NA,completion,10637.02,748251,748251.7,748251.98,758889,758897,2023-12-02T10:22:22Z,758905.44,NULL,Abrechnung,uhasibu,d,NA,NA,NA,NA,sd,NA,4,NA,NA,NA,NA,NA,NA,NA,NA,NA,NA,NA,NA,NA,NA,NA,NA,NA,NA,NA
a1b98,shallow,flow.Sequence,3_0_4_0_0_1,NA,NA,skipped,NA,758897,NA,NA,758889,758898,2023-12-02T10:22:22Z,758905.44,NULL,Abrechnung,uhasibu,d,NA,NA,NA,NA,sd,NA,4,NA,NA,NA,NA,NA,NA,NA,NA,NA,NA,NA,NA,NA,NA,NA,NA,NA,NA,NA
a1b98,task,flow.Sequence,3_0_4_0_0,NA,NA,completion,10637.02,748251,748251.7,748251.98,758889,758898,2023-12-02T10:22:22Z,758905.44,NULL,Abrechnung,uhasibu,d,NA,NA,NA,NA,sd,NA,4,NA,NA,NA,NA,NA,NA,NA,NA,NA,NA,NA,NA,NA,NA,NA,NA,NA,NA,NA
a1b98,Deep Question,html.Page,3_0_4_0_1_0_0,NA,NA,form submission,40100.56,758898,758889,758905.44,799006,799007,2023-12-02T10:23:02Z,799005.92,NULL,Kanzler,diwani,d,NA,NA,NA,divimo,NA,NA,4,NA,NA,NA,NA,NA,NA,NA,NA,NA,NA,NA,NA,NA,NA,NA,NA,NA,NA,NA
a1b98,"""Richtig""-Screen",canvas.Screen,3_0_4_0_1_0_1,NA,NA,skipped,NA,799008,NA,NA,799006,799008,2023-12-02T10:23:02Z,799005.92,NULL,Kanzler,diwani,d,NA,NA,NA,NA,sd,NA,4,NA,NA,NA,NA,NA,NA,NA,NA,NA,NA,NA,NA,NA,NA,NA,NA,NA,NA,NA
a1b98,"""Falsch""-Screen",canvas.Screen,3_0_4_0_1_0_2,NA,NA,timeout,4993.2,799011,799005.56,799005.92,803983.28,803985,2023-12-02T10:23:07Z,803999.12,NULL,Kanzler,diwani,d,NA,NA,NA,NA,sd,0,4,NA,NA,NA,NA,NA,NA,NA,NA,NA,NA,NA,NA,NA,NA,NA,NA,NA,NA,NA
a1b98,deep,flow.Sequence,3_0_4_0_1_0,NA,NA,completion,45077.84,758898,758889,758905.44,803983.28,803985,2023-12-02T10:23:07Z,803999.12,NULL,Kanzler,diwani,d,NA,NA,NA,NA,sd,NA,4,NA,NA,NA,NA,NA,NA,NA,NA,NA,NA,NA,NA,NA,NA,NA,NA,NA,NA,NA
a1b98,shallow,flow.Sequence,3_0_4_0_1_1,NA,NA,skipped,NA,803985,NA,NA,803983.28,803985,2023-12-02T10:23:07Z,803999.12,NULL,Kanzler,diwani,d,NA,NA,NA,NA,sd,NA,4,NA,NA,NA,NA,NA,NA,NA,NA,NA,NA,NA,NA,NA,NA,NA,NA,NA,NA,NA
a1b98,task,flow.Sequence,3_0_4_0_1,NA,NA,completion,45077.84,758898,758889,758905.44,803983.28,803986,2023-12-02T10:23:07Z,803999.12,NULL,Kanzler,diwani,d,NA,NA,NA,NA,sd,NA,4,NA,NA,NA,NA,NA,NA,NA,NA,NA,NA,NA,NA,NA,NA,NA,NA,NA,NA,NA
a1b98,Deep Question,html.Page,3_0_4_0_2_0_0,NA,NA,form submission,17763.88,803986,803983.28,803999.12,821763,821764,2023-12-02T10:23:25Z,821764.1,NULL,Schönheit,kirembo,d,NA,NA,NA,kiremba,NA,NA,4,NA,NA,NA,NA,NA,NA,NA,NA,NA,NA,NA,NA,NA,NA,NA,NA,NA,NA,NA
a1b98,"""Richtig""-Screen",canvas.Screen,3_0_4_0_2_0_1,NA,NA,skipped,NA,821766,NA,NA,821763,821766,2023-12-02T10:23:25Z,821764.1,NULL,Schönheit,kirembo,d,NA,NA,NA,NA,sd,NA,4,NA,NA,NA,NA,NA,NA,NA,NA,NA,NA,NA,NA,NA,NA,NA,NA,NA,NA,NA
a1b98,"""Falsch""-Screen",canvas.Screen,3_0_4_0_2_0_2,NA,NA,timeout,4999.4,821769,821762.26,821764.1,826746.86,826748,2023-12-02T10:23:30Z,826763.5,NULL,Schönheit,kirembo,d,NA,NA,NA,NA,sd,0,4,NA,NA,NA,NA,NA,NA,NA,NA,NA,NA,NA,NA,NA,NA,NA,NA,NA,NA,NA
a1b98,deep,flow.Sequence,3_0_4_0_2_0,NA,NA,completion,22747.74,803986,803983.28,803999.12,826746.86,826749,2023-12-02T10:23:30Z,826763.5,NULL,Schönheit,kirembo,d,NA,NA,NA,NA,sd,NA,4,NA,NA,NA,NA,NA,NA,NA,NA,NA,NA,NA,NA,NA,NA,NA,NA,NA,NA,NA
a1b98,shallow,flow.Sequence,3_0_4_0_2_1,NA,NA,skipped,NA,826749,NA,NA,826746.86,826750,2023-12-02T10:23:30Z,826763.5,NULL,Schönheit,kirembo,d,NA,NA,NA,NA,sd,NA,4,NA,NA,NA,NA,NA,NA,NA,NA,NA,NA,NA,NA,NA,NA,NA,NA,NA,NA,NA
a1b98,task,flow.Sequence,3_0_4_0_2,NA,NA,completion,22747.74,803986,803983.28,803999.12,826746.86,826750,2023-12-02T10:23:30Z,826763.5,NULL,Schönheit,kirembo,d,NA,NA,NA,NA,sd,NA,4,NA,NA,NA,NA,NA,NA,NA,NA,NA,NA,NA,NA,NA,NA,NA,NA,NA,NA,NA
a1b98,deep,flow.Sequence,3_0_4_0_3_0,NA,NA,skipped,NA,826750,NA,NA,826746.86,826750,2023-12-02T10:23:30Z,826763.5,NULL,Sänger,mwimbaji,s,msichana,shughuli,mshirika,NA,sd,NA,4,NA,NA,NA,NA,NA,NA,NA,NA,NA,NA,NA,NA,NA,NA,NA,NA,NA,NA,NA
a1b98,Shallow Question,html.Page,3_0_4_0_3_1_0,NA,NA,form submission,11752.5,826751,826746.86,826763.5,838516,838516,2023-12-02T10:23:41Z,838511.9,NULL,Sänger,mwimbaji,s,msichana,shughuli,mshirika,mwimbaji,NA,NA,4,NA,NA,NA,NA,NA,NA,NA,NA,NA,NA,NA,NA,NA,NA,NA,NA,NA,NA,NA
a1b98,"""Richtig""-Screen",canvas.Screen,3_0_4_0_3_1_1,NA,NA,timeout,4999.34,838522,838510.5,838511.9,843494.8,843496,2023-12-02T10:23:46Z,843511.24,NULL,Sänger,mwimbaji,s,msichana,shughuli,mshirika,NA,sd,1,4,NA,NA,NA,NA,NA,NA,NA,NA,NA,NA,NA,NA,NA,NA,NA,NA,NA,NA,NA
a1b98,"""Falsch""-Screen",canvas.Screen,3_0_4_0_3_1_2,NA,NA,skipped,NA,843508,NA,NA,843494.8,843508,2023-12-02T10:23:46Z,843511.24,NULL,Sänger,mwimbaji,s,msichana,shughuli,mshirika,NA,sd,NA,4,NA,NA,NA,NA,NA,NA,NA,NA,NA,NA,NA,NA,NA,NA,NA,NA,NA,NA,NA
a1b98,shallow,flow.Sequence,3_0_4_0_3_1,NA,NA,completion,16731.3,826751,826746.86,826763.5,843494.8,843509,2023-12-02T10:23:46Z,843511.24,NULL,Sänger,mwimbaji,s,msichana,shughuli,mshirika,NA,sd,NA,4,NA,NA,NA,NA,NA,NA,NA,NA,NA,NA,NA,NA,NA,NA,NA,NA,NA,NA,NA
a1b98,task,flow.Sequence,3_0_4_0_3,NA,NA,completion,16731.3,826750,826746.86,826763.5,843494.8,843509,2023-12-02T10:23:46Z,843511.24,NULL,Sänger,mwimbaji,s,msichana,shughuli,mshirika,NA,sd,NA,4,NA,NA,NA,NA,NA,NA,NA,NA,NA,NA,NA,NA,NA,NA,NA,NA,NA,NA,NA
a1b98,deep,flow.Sequence,3_0_4_0_4_0,NA,NA,skipped,NA,843509,NA,NA,843494.8,843509,2023-12-02T10:23:46Z,843511.24,NULL,Auftrag,uagizaji,s,ghanima,kuzingatia,msukani,NA,sd,NA,4,NA,NA,NA,NA,NA,NA,NA,NA,NA,NA,NA,NA,NA,NA,NA,NA,NA,NA,NA
a1b98,Shallow Question,html.Page,3_0_4_0_4_1_0,NA,NA,form submission,11871.76,843510,843494.8,843511.24,855383,855384,2023-12-02T10:23:58Z,855393.38,NULL,Auftrag,uagizaji,s,ghanima,kuzingatia,msukani,uagizaji,NA,NA,4,NA,NA,NA,NA,NA,NA,NA,NA,NA,NA,NA,NA,NA,NA,NA,NA,NA,NA,NA
a1b98,"""Richtig""-Screen",canvas.Screen,3_0_4_0_4_1_1,NA,NA,timeout,4999.12,855385,855380.56,855393.38,860376.32,860378,2023-12-02T10:24:03Z,860392.5,NULL,Auftrag,uagizaji,s,ghanima,kuzingatia,msukani,NA,sd,1,4,NA,NA,NA,NA,NA,NA,NA,NA,NA,NA,NA,NA,NA,NA,NA,NA,NA,NA,NA
a1b98,"""Falsch""-Screen",canvas.Screen,3_0_4_0_4_1_2,NA,NA,skipped,NA,860384,NA,NA,860376.32,860385,2023-12-02T10:24:03Z,860392.5,NULL,Auftrag,uagizaji,s,ghanima,kuzingatia,msukani,NA,sd,NA,4,NA,NA,NA,NA,NA,NA,NA,NA,NA,NA,NA,NA,NA,NA,NA,NA,NA,NA,NA
a1b98,shallow,flow.Sequence,3_0_4_0_4_1,NA,NA,completion,16865.08,843510,843494.8,843511.24,860376.32,860386,2023-12-02T10:24:03Z,860392.5,NULL,Auftrag,uagizaji,s,ghanima,kuzingatia,msukani,NA,sd,NA,4,NA,NA,NA,NA,NA,NA,NA,NA,NA,NA,NA,NA,NA,NA,NA,NA,NA,NA,NA
a1b98,task,flow.Sequence,3_0_4_0_4,NA,NA,completion,16865.08,843509,843494.8,843511.24,860376.32,860386,2023-12-02T10:24:03Z,860392.5,NULL,Auftrag,uagizaji,s,ghanima,kuzingatia,msukani,NA,sd,NA,4,NA,NA,NA,NA,NA,NA,NA,NA,NA,NA,NA,NA,NA,NA,NA,NA,NA,NA,NA
a1b98,Deep Question,html.Page,3_0_4_0_5_0_0,NA,NA,form submission,5242.5,860387,860376.32,860392.5,865635,865635,2023-12-02T10:24:09Z,865641.82,NULL,Zufall,kikuti,d,NA,NA,NA,kereba,NA,NA,4,NA,NA,NA,NA,NA,NA,NA,NA,NA,NA,NA,NA,NA,NA,NA,NA,NA,NA,NA
a1b98,"""Richtig""-Screen",canvas.Screen,3_0_4_0_5_0_1,NA,NA,skipped,NA,865638,NA,NA,865635,865638,2023-12-02T10:24:09Z,865641.82,NULL,Zufall,kikuti,d,NA,NA,NA,NA,sd,NA,4,NA,NA,NA,NA,NA,NA,NA,NA,NA,NA,NA,NA,NA,NA,NA,NA,NA,NA,NA
a1b98,"""Falsch""-Screen",canvas.Screen,3_0_4_0_5_0_2,NA,NA,timeout,4999.3200000001,865643,865633.08,865641.82,870624.9,870626,2023-12-02T10:24:14Z,870641.14,NULL,Zufall,kikuti,d,NA,NA,NA,NA,sd,0,4,NA,NA,NA,NA,NA,NA,NA,NA,NA,NA,NA,NA,NA,NA,NA,NA,NA,NA,NA
a1b98,deep,flow.Sequence,3_0_4_0_5_0,NA,NA,completion,10232.4,860387,860376.32,860392.5,870624.9,870627,2023-12-02T10:24:14Z,870641.14,NULL,Zufall,kikuti,d,NA,NA,NA,NA,sd,NA,4,NA,NA,NA,NA,NA,NA,NA,NA,NA,NA,NA,NA,NA,NA,NA,NA,NA,NA,NA
a1b98,shallow,flow.Sequence,3_0_4_0_5_1,NA,NA,skipped,NA,870628,NA,NA,870624.9,870628,2023-12-02T10:24:14Z,870641.14,NULL,Zufall,kikuti,d,NA,NA,NA,NA,sd,NA,4,NA,NA,NA,NA,NA,NA,NA,NA,NA,NA,NA,NA,NA,NA,NA,NA,NA,NA,NA
a1b98,task,flow.Sequence,3_0_4_0_5,NA,NA,completion,10232.4,860387,860376.32,860392.5,870624.9,870629,2023-12-02T10:24:14Z,870641.14,NULL,Zufall,kikuti,d,NA,NA,NA,NA,sd,NA,4,NA,NA,NA,NA,NA,NA,NA,NA,NA,NA,NA,NA,NA,NA,NA,NA,NA,NA,NA
a1b98,deep,flow.Sequence,3_0_4_0_6_0,NA,NA,skipped,NA,870630,NA,NA,870624.9,870630,2023-12-02T10:24:14Z,870641.14,NULL,Angreifer,mshambulizi,s,kitengo,tasinia,usafirishaji,NA,sd,NA,4,NA,NA,NA,NA,NA,NA,NA,NA,NA,NA,NA,NA,NA,NA,NA,NA,NA,NA,NA
a1b98,Shallow Question,html.Page,3_0_4_0_6_1_0,NA,NA,form submission,11778.86,870631,870624.9,870641.14,882420,882421,2023-12-02T10:24:25Z,882423,NULL,Angreifer,mshambulizi,s,kitengo,tasinia,usafirishaji,mshambulizi,NA,NA,4,NA,NA,NA,NA,NA,NA,NA,NA,NA,NA,NA,NA,NA,NA,NA,NA,NA,NA,NA
a1b98,"""Richtig""-Screen",canvas.Screen,3_0_4_0_6_1_1,NA,NA,timeout,4999.42,882427,882414.82,882423,887405.98,887408,2023-12-02T10:24:30Z,887422.42,NULL,Angreifer,mshambulizi,s,kitengo,tasinia,usafirishaji,NA,sd,1,4,NA,NA,NA,NA,NA,NA,NA,NA,NA,NA,NA,NA,NA,NA,NA,NA,NA,NA,NA
a1b98,"""Falsch""-Screen",canvas.Screen,3_0_4_0_6_1_2,NA,NA,skipped,NA,887414,NA,NA,887405.98,887415,2023-12-02T10:24:30Z,887422.42,NULL,Angreifer,mshambulizi,s,kitengo,tasinia,usafirishaji,NA,sd,NA,4,NA,NA,NA,NA,NA,NA,NA,NA,NA,NA,NA,NA,NA,NA,NA,NA,NA,NA,NA
a1b98,shallow,flow.Sequence,3_0_4_0_6_1,NA,NA,completion,16764.84,870630,870624.9,870641.14,887405.98,887415,2023-12-02T10:24:30Z,887422.42,NULL,Angreifer,mshambulizi,s,kitengo,tasinia,usafirishaji,NA,sd,NA,4,NA,NA,NA,NA,NA,NA,NA,NA,NA,NA,NA,NA,NA,NA,NA,NA,NA,NA,NA
a1b98,task,flow.Sequence,3_0_4_0_6,NA,NA,completion,16764.84,870630,870624.9,870641.14,887405.98,887415,2023-12-02T10:24:30Z,887422.42,NULL,Angreifer,mshambulizi,s,kitengo,tasinia,usafirishaji,NA,sd,NA,4,NA,NA,NA,NA,NA,NA,NA,NA,NA,NA,NA,NA,NA,NA,NA,NA,NA,NA,NA
a1b98,deep,flow.Sequence,3_0_4_0_7_0,NA,NA,skipped,NA,887416,NA,NA,887405.98,887416,2023-12-02T10:24:30Z,887422.42,NULL,Wettbewerb,ushindani,s,mapendezi,kichocheo,ubaguzi,NA,sd,NA,4,NA,NA,NA,NA,NA,NA,NA,NA,NA,NA,NA,NA,NA,NA,NA,NA,NA,NA,NA
a1b98,Shallow Question,html.Page,3_0_4_0_7_1_0,NA,NA,form submission,17687.58,887416,887405.98,887422.42,905110,905113,2023-12-02T10:24:48Z,905120.02,NULL,Wettbewerb,ushindani,s,mapendezi,kichocheo,ubaguzi,ushindani,NA,NA,4,NA,NA,NA,NA,NA,NA,NA,NA,NA,NA,NA,NA,NA,NA,NA,NA,NA,NA,NA
a1b98,"""Richtig""-Screen",canvas.Screen,3_0_4_0_7_1_1,NA,NA,timeout,4999.5599999999,905122,905104.26,905120.02,910102.86,910104,2023-12-02T10:24:53Z,910119.58,NULL,Wettbewerb,ushindani,s,mapendezi,kichocheo,ubaguzi,NA,sd,1,4,NA,NA,NA,NA,NA,NA,NA,NA,NA,NA,NA,NA,NA,NA,NA,NA,NA,NA,NA
a1b98,"""Falsch""-Screen",canvas.Screen,3_0_4_0_7_1_2,NA,NA,skipped,NA,910111,NA,NA,910102.86,910111,2023-12-02T10:24:53Z,910119.58,NULL,Wettbewerb,ushindani,s,mapendezi,kichocheo,ubaguzi,NA,sd,NA,4,NA,NA,NA,NA,NA,NA,NA,NA,NA,NA,NA,NA,NA,NA,NA,NA,NA,NA,NA
a1b98,shallow,flow.Sequence,3_0_4_0_7_1,NA,NA,completion,22680.44,887416,887405.98,887422.42,910102.86,910111,2023-12-02T10:24:53Z,910119.58,NULL,Wettbewerb,ushindani,s,mapendezi,kichocheo,ubaguzi,NA,sd,NA,4,NA,NA,NA,NA,NA,NA,NA,NA,NA,NA,NA,NA,NA,NA,NA,NA,NA,NA,NA
a1b98,task,flow.Sequence,3_0_4_0_7,NA,NA,completion,22680.44,887416,887405.98,887422.42,910102.86,910112,2023-12-02T10:24:53Z,910119.58,NULL,Wettbewerb,ushindani,s,mapendezi,kichocheo,ubaguzi,NA,sd,NA,4,NA,NA,NA,NA,NA,NA,NA,NA,NA,NA,NA,NA,NA,NA,NA,NA,NA,NA,NA
a1b98,block,flow.Loop,3_0_4_0,NA,NA,completion,161850.88,748251,748251.7,748251.98,910102.86,910112,2023-12-02T10:24:53Z,910119.58,NULL,NA,NA,NA,NA,NA,NA,NA,sd,NA,4,NA,NA,NA,NA,NA,NA,NA,NA,NA,NA,NA,NA,NA,NA,NA,NA,NA,NA,NA
a1b98,weiter,canvas.Screen,3_0_4_1,sdf,keypress(Space),response,1031.42,910112,910102.86,910119.58,911151,911158,2023-12-02T10:24:54Z,911843.58,NULL,NA,NA,NA,NA,NA,NA,NA,sd,NA,4,NA,NA,NA,NA,NA,NA,NA,NA,NA,NA,NA,NA,NA,NA,NA,NA,NA,NA,NA
a1b98,check continue,flow.Sequence,3_0_4,NA,NA,completion,162899.02,748251,748251.7,748251.98,911151,911159,2023-12-02T10:24:54Z,911843.58,NULL,NA,NA,NA,NA,NA,NA,NA,sd,NA,4,NA,NA,NA,NA,NA,NA,NA,NA,NA,NA,NA,NA,NA,NA,NA,NA,NA,NA,NA
a1b98,check continue,flow.Sequence,3_0_5,NA,NA,skipped,NA,911213,NA,NA,911151,911213,2023-12-02T10:24:54Z,911843.58,NULL,NA,NA,NA,NA,NA,NA,NA,sdf,NA,5,NA,NA,NA,NA,NA,NA,NA,NA,NA,NA,NA,NA,NA,NA,NA,NA,NA,NA,NA
a1b98,check continue,flow.Sequence,3_0_6,NA,NA,skipped,NA,911243,NA,NA,911151,911243,2023-12-02T10:24:54Z,911843.58,NULL,NA,NA,NA,NA,NA,NA,NA,dfs,NA,6,NA,NA,NA,NA,NA,NA,NA,NA,NA,NA,NA,NA,NA,NA,NA,NA,NA,NA,NA
a1b98,check continue,flow.Sequence,3_0_7,NA,NA,skipped,NA,911278,NA,NA,911151,911279,2023-12-02T10:24:54Z,911843.58,NULL,NA,NA,NA,NA,NA,NA,NA,df,NA,7,NA,NA,NA,NA,NA,NA,NA,NA,NA,NA,NA,NA,NA,NA,NA,NA,NA,NA,NA
a1b98,check continue,flow.Sequence,3_0_8,NA,NA,skipped,NA,911305,NA,NA,911151,911305,2023-12-02T10:24:54Z,911843.58,NULL,NA,NA,NA,NA,NA,NA,NA,dfs,NA,8,NA,NA,NA,NA,NA,NA,NA,NA,NA,NA,NA,NA,NA,NA,NA,NA,NA,NA,NA
a1b98,check continue,flow.Sequence,3_0_9,NA,NA,skipped,NA,911334,NA,NA,911151,911334,2023-12-02T10:24:54Z,911843.58,NULL,NA,NA,NA,NA,NA,NA,NA,dsf,NA,9,NA,NA,NA,NA,NA,NA,NA,NA,NA,NA,NA,NA,NA,NA,NA,NA,NA,NA,NA
a1b98,check continue,flow.Sequence,3_0_10,NA,NA,skipped,NA,911360,NA,NA,911151,911360,2023-12-02T10:24:54Z,911843.58,NULL,NA,NA,NA,NA,NA,NA,NA,df,NA,10,NA,NA,NA,NA,NA,NA,NA,NA,NA,NA,NA,NA,NA,NA,NA,NA,NA,NA,NA
a1b98,check continue,flow.Sequence,3_0_11,NA,NA,skipped,NA,911387,NA,NA,911151,911387,2023-12-02T10:24:54Z,911843.58,NULL,NA,NA,NA,NA,NA,NA,NA,dfs,NA,11,NA,NA,NA,NA,NA,NA,NA,NA,NA,NA,NA,NA,NA,NA,NA,NA,NA,NA,NA
a1b98,check continue,flow.Sequence,3_0_12,NA,NA,skipped,NA,911412,NA,NA,911151,911412,2023-12-02T10:24:54Z,911843.58,NULL,NA,NA,NA,NA,NA,NA,NA,dsf,NA,12,NA,NA,NA,NA,NA,NA,NA,NA,NA,NA,NA,NA,NA,NA,NA,NA,NA,NA,NA
a1b98,check continue,flow.Sequence,3_0_13,NA,NA,skipped,NA,911443,NA,NA,911151,911443,2023-12-02T10:24:54Z,911843.58,NULL,NA,NA,NA,NA,NA,NA,NA,dsf,NA,13,NA,NA,NA,NA,NA,NA,NA,NA,NA,NA,NA,NA,NA,NA,NA,NA,NA,NA,NA
a1b98,check continue,flow.Sequence,3_0_14,NA,NA,skipped,NA,911467,NA,NA,911151,911467,2023-12-02T10:24:54Z,911843.58,NULL,NA,NA,NA,NA,NA,NA,NA,NA,NA,14,NA,NA,NA,NA,NA,NA,NA,NA,NA,NA,NA,NA,NA,NA,NA,NA,NA,NA,NA
a1b98,check continue,flow.Sequence,3_0_15,NA,NA,skipped,NA,911490,NA,NA,911151,911490,2023-12-02T10:24:54Z,911843.58,NULL,NA,NA,NA,NA,NA,NA,NA,NA,NA,15,NA,NA,NA,NA,NA,NA,NA,NA,NA,NA,NA,NA,NA,NA,NA,NA,NA,NA,NA
a1b98,check continue,flow.Sequence,3_0_16,NA,NA,skipped,NA,911520,NA,NA,911151,911520,2023-12-02T10:24:55Z,911843.58,NULL,NA,NA,NA,NA,NA,NA,NA,NA,NA,16,NA,NA,NA,NA,NA,NA,NA,NA,NA,NA,NA,NA,NA,NA,NA,NA,NA,NA,NA
a1b98,check continue,flow.Sequence,3_0_17,NA,NA,skipped,NA,911544,NA,NA,911151,911544,2023-12-02T10:24:55Z,911843.58,NULL,NA,NA,NA,NA,NA,NA,NA,NA,NA,17,NA,NA,NA,NA,NA,NA,NA,NA,NA,NA,NA,NA,NA,NA,NA,NA,NA,NA,NA
a1b98,check continue,flow.Sequence,3_0_18,NA,NA,skipped,NA,911568,NA,NA,911151,911568,2023-12-02T10:24:55Z,911843.58,NULL,NA,NA,NA,NA,NA,NA,NA,NA,NA,18,NA,NA,NA,NA,NA,NA,NA,NA,NA,NA,NA,NA,NA,NA,NA,NA,NA,NA,NA
a1b98,check continue,flow.Sequence,3_0_19,NA,NA,skipped,NA,911594,NA,NA,911151,911594,2023-12-02T10:24:55Z,911843.58,NULL,NA,NA,NA,NA,NA,NA,NA,NA,NA,19,NA,NA,NA,NA,NA,NA,NA,NA,NA,NA,NA,NA,NA,NA,NA,NA,NA,NA,NA
a1b98,check continue,flow.Sequence,3_0_20,NA,NA,skipped,NA,911618,NA,NA,911151,911618,2023-12-02T10:24:55Z,911843.58,NULL,NA,NA,NA,NA,NA,NA,NA,NA,NA,20,NA,NA,NA,NA,NA,NA,NA,NA,NA,NA,NA,NA,NA,NA,NA,NA,NA,NA,NA
a1b98,check continue,flow.Sequence,3_0_21,NA,NA,skipped,NA,911644,NA,NA,911151,911644,2023-12-02T10:24:55Z,911843.58,NULL,NA,NA,NA,NA,NA,NA,NA,NA,NA,21,NA,NA,NA,NA,NA,NA,NA,NA,NA,NA,NA,NA,NA,NA,NA,NA,NA,NA,NA
a1b98,check continue,flow.Sequence,3_0_22,NA,NA,skipped,NA,911670,NA,NA,911151,911671,2023-12-02T10:24:55Z,911843.58,NULL,NA,NA,NA,NA,NA,NA,NA,NA,NA,22,NA,NA,NA,NA,NA,NA,NA,NA,NA,NA,NA,NA,NA,NA,NA,NA,NA,NA,NA
a1b98,check continue,flow.Sequence,3_0_23,NA,NA,skipped,NA,911696,NA,NA,911151,911696,2023-12-02T10:24:55Z,911843.58,NULL,NA,NA,NA,NA,NA,NA,NA,NA,NA,23,NA,NA,NA,NA,NA,NA,NA,NA,NA,NA,NA,NA,NA,NA,NA,NA,NA,NA,NA
a1b98,check continue,flow.Sequence,3_0_24,NA,NA,skipped,NA,911720,NA,NA,911151,911723,2023-12-02T10:24:55Z,911843.58,NULL,NA,NA,NA,NA,NA,NA,NA,NA,NA,24,NA,NA,NA,NA,NA,NA,NA,NA,NA,NA,NA,NA,NA,NA,NA,NA,NA,NA,NA
a1b98,check continue,flow.Sequence,3_0_25,NA,NA,skipped,NA,911747,NA,NA,911151,911747,2023-12-02T10:24:55Z,911843.58,NULL,NA,NA,NA,NA,NA,NA,NA,NA,NA,25,NA,NA,NA,NA,NA,NA,NA,NA,NA,NA,NA,NA,NA,NA,NA,NA,NA,NA,NA
a1b98,check continue,flow.Sequence,3_0_26,NA,NA,skipped,NA,911770,NA,NA,911151,911770,2023-12-02T10:24:55Z,911843.58,NULL,NA,NA,NA,NA,NA,NA,NA,NA,NA,26,NA,NA,NA,NA,NA,NA,NA,NA,NA,NA,NA,NA,NA,NA,NA,NA,NA,NA,NA
a1b98,check continue,flow.Sequence,3_0_27,NA,NA,skipped,NA,911795,NA,NA,911151,911795,2023-12-02T10:24:55Z,911843.58,NULL,NA,NA,NA,NA,NA,NA,NA,NA,NA,27,NA,NA,NA,NA,NA,NA,NA,NA,NA,NA,NA,NA,NA,NA,NA,NA,NA,NA,NA
a1b98,check continue,flow.Sequence,3_0_28,NA,NA,skipped,NA,911819,NA,NA,911151,911819,2023-12-02T10:24:55Z,911843.58,NULL,NA,NA,NA,NA,NA,NA,NA,NA,NA,28,NA,NA,NA,NA,NA,NA,NA,NA,NA,NA,NA,NA,NA,NA,NA,NA,NA,NA,NA
a1b98,check continue,flow.Sequence,3_0_29,NA,NA,skipped,NA,911843,NA,NA,911151,911843,2023-12-02T10:24:55Z,911843.58,NULL,NA,NA,NA,NA,NA,NA,NA,NA,NA,29,NA,NA,NA,NA,NA,NA,NA,NA,NA,NA,NA,NA,NA,NA,NA,NA,NA,NA,NA
a1b98,until continue,flow.Loop,3_0,NA,NA,completion,859817.62,51298,51333.12,51333.38,911151,911843,2023-12-02T10:24:55Z,911843.58,NULL,NA,NA,NA,NA,NA,NA,NA,NA,NA,NA,NA,NA,NA,NA,NA,NA,NA,NA,NA,NA,NA,NA,NA,NA,NA,NA,NA,NA,NA
a1b98,block 1,flow.Sequence,3,NA,NA,completion,859817.62,51298,51333.12,51333.38,911151,911843,2023-12-02T10:24:55Z,911843.58,NULL,NA,NA,NA,NA,NA,NA,NA,NA,NA,NA,NA,NA,NA,NA,NA,NA,NA,NA,NA,NA,NA,NA,NA,NA,NA,NA,NA,NA,NA
a1b98,1.Part Over,canvas.Screen,4,NA,keypress(Space),response,8291.42,911843,911843.26,911843.58,920135,920140,2023-12-02T10:25:03Z,920210.98,NULL,NA,NA,NA,NA,NA,NA,NA,NA,NA,NA,NA,NA,NA,NA,NA,NA,NA,NA,NA,NA,NA,NA,NA,NA,NA,NA,NA,NA,NA
a1b98,Deep Question,html.Page,5_0_0_0_0_0_0,NA,NA,form submission,3879.02,920210,920210.66,920210.98,924090,924090,2023-12-02T10:25:07Z,924089.4,NULL,Kontrolle,kudhibiti,d,NA,NA,NA,a,NA,NA,0,NA,NA,NA,NA,NA,NA,NA,NA,NA,NA,NA,NA,NA,NA,NA,NA,NA,NA,NA
a1b98,"""Richtig""-Screen",canvas.Screen,5_0_0_0_0_0_1,NA,NA,skipped,NA,924093,NA,NA,924090,924093,2023-12-02T10:25:07Z,924089.4,NULL,Kontrolle,kudhibiti,d,NA,NA,NA,NA,sdf,NA,0,NA,NA,NA,NA,NA,NA,NA,NA,NA,NA,NA,NA,NA,NA,NA,NA,NA,NA,NA
a1b98,"""Falsch""-Screen",canvas.Screen,5_0_0_0_0_0_2,NA,NA,timeout,4994.3199999999,924095,924088.74,924089.4,929067.28,929068,2023-12-02T10:25:12Z,929083.72,NULL,Kontrolle,kudhibiti,d,NA,NA,NA,NA,sdf,0,0,NA,NA,NA,NA,NA,NA,NA,NA,NA,NA,NA,NA,NA,NA,NA,NA,NA,NA,NA
a1b98,deep,flow.Sequence,5_0_0_0_0_0,NA,NA,completion,8856.3,920210,920210.66,920210.98,929067.28,929069,2023-12-02T10:25:12Z,929083.72,NULL,Kontrolle,kudhibiti,d,NA,NA,NA,NA,sdf,NA,0,NA,NA,NA,NA,NA,NA,NA,NA,NA,NA,NA,NA,NA,NA,NA,NA,NA,NA,NA
a1b98,shallow,flow.Sequence,5_0_0_0_0_1,NA,NA,skipped,NA,929069,NA,NA,929067.28,929069,2023-12-02T10:25:12Z,929083.72,NULL,Kontrolle,kudhibiti,d,NA,NA,NA,NA,sdf,NA,0,NA,NA,NA,NA,NA,NA,NA,NA,NA,NA,NA,NA,NA,NA,NA,NA,NA,NA,NA
a1b98,task,flow.Sequence,5_0_0_0_0,NA,NA,completion,8856.3,920210,920210.66,920210.98,929067.28,929069,2023-12-02T10:25:12Z,929083.72,NULL,Kontrolle,kudhibiti,d,NA,NA,NA,NA,sdf,NA,0,NA,NA,NA,NA,NA,NA,NA,NA,NA,NA,NA,NA,NA,NA,NA,NA,NA,NA,NA
a1b98,deep,flow.Sequence,5_0_0_0_1_0,NA,NA,skipped,NA,929069,NA,NA,929067.28,929069,2023-12-02T10:25:12Z,929083.72,NULL,Können,unaweza,s,kiongozi,bustani,mienendo,NA,sdf,NA,0,NA,NA,NA,NA,NA,NA,NA,NA,NA,NA,NA,NA,NA,NA,NA,NA,NA,NA,NA
a1b98,Shallow Question,html.Page,5_0_0_0_1_1_0,NA,NA,form submission,16966.28,929070,929067.28,929083.72,946050,946051,2023-12-02T10:25:29Z,946048.22,NULL,Können,unaweza,s,kiongozi,bustani,mienendo,bustani,NA,NA,0,NA,NA,NA,NA,NA,NA,NA,NA,NA,NA,NA,NA,NA,NA,NA,NA,NA,NA,NA
a1b98,"""Richtig""-Screen",canvas.Screen,5_0_0_0_1_1_1,NA,NA,skipped,NA,946053,NA,NA,946050,946053,2023-12-02T10:25:29Z,946048.22,NULL,Können,unaweza,s,kiongozi,bustani,mienendo,NA,sdf,NA,0,NA,NA,NA,NA,NA,NA,NA,NA,NA,NA,NA,NA,NA,NA,NA,NA,NA,NA,NA
a1b98,"""Falsch""-Screen",canvas.Screen,5_0_0_0_1_1_2,NA,NA,timeout,4999.4,946056,946046.28,946048.22,951030.96,951032,2023-12-02T10:25:34Z,951047.62,NULL,Können,unaweza,s,kiongozi,bustani,mienendo,NA,sdf,0,0,NA,NA,NA,NA,NA,NA,NA,NA,NA,NA,NA,NA,NA,NA,NA,NA,NA,NA,NA
a1b98,shallow,flow.Sequence,5_0_0_0_1_1,NA,NA,completion,21947.24,929069,929067.28,929083.72,951030.96,951033,2023-12-02T10:25:34Z,951047.62,NULL,Können,unaweza,s,kiongozi,bustani,mienendo,NA,sdf,NA,0,NA,NA,NA,NA,NA,NA,NA,NA,NA,NA,NA,NA,NA,NA,NA,NA,NA,NA,NA
a1b98,task,flow.Sequence,5_0_0_0_1,NA,NA,completion,21947.24,929069,929067.28,929083.72,951030.96,951033,2023-12-02T10:25:34Z,951047.62,NULL,Können,unaweza,s,kiongozi,bustani,mienendo,NA,sdf,NA,0,NA,NA,NA,NA,NA,NA,NA,NA,NA,NA,NA,NA,NA,NA,NA,NA,NA,NA,NA
a1b98,deep,flow.Sequence,5_0_0_0_2_0,NA,NA,skipped,NA,951033,NA,NA,951030.96,951034,2023-12-02T10:25:34Z,951047.62,NULL,Gelegenheit,wakati,s,mchanganyiko,kipaumbele,kushuku,NA,sdf,NA,0,NA,NA,NA,NA,NA,NA,NA,NA,NA,NA,NA,NA,NA,NA,NA,NA,NA,NA,NA
a1b98,Shallow Question,html.Page,5_0_0_0_2_1_0,NA,NA,form submission,31361.38,951035,951030.96,951047.62,982409,982409,2023-12-02T10:26:05Z,982410.2,NULL,Gelegenheit,wakati,s,mchanganyiko,kipaumbele,kushuku,mchanganyiko,NA,NA,0,NA,NA,NA,NA,NA,NA,NA,NA,NA,NA,NA,NA,NA,NA,NA,NA,NA,NA,NA
a1b98,"""Richtig""-Screen",canvas.Screen,5_0_0_0_2_1_1,NA,NA,skipped,NA,982412,NA,NA,982409,982412,2023-12-02T10:26:05Z,982410.2,NULL,Gelegenheit,wakati,s,mchanganyiko,kipaumbele,kushuku,NA,sdf,NA,0,NA,NA,NA,NA,NA,NA,NA,NA,NA,NA,NA,NA,NA,NA,NA,NA,NA,NA,NA
a1b98,"""Falsch""-Screen",canvas.Screen,5_0_0_0_2_1_2,NA,NA,timeout,4999.2000000001,982414,982405.36,982410.2,987393.24,987394,2023-12-02T10:26:10Z,987409.4,NULL,Gelegenheit,wakati,s,mchanganyiko,kipaumbele,kushuku,NA,sdf,0,0,NA,NA,NA,NA,NA,NA,NA,NA,NA,NA,NA,NA,NA,NA,NA,NA,NA,NA,NA
a1b98,shallow,flow.Sequence,5_0_0_0_2_1,NA,NA,completion,36345.62,951035,951030.96,951047.62,987393.24,987394,2023-12-02T10:26:10Z,987409.4,NULL,Gelegenheit,wakati,s,mchanganyiko,kipaumbele,kushuku,NA,sdf,NA,0,NA,NA,NA,NA,NA,NA,NA,NA,NA,NA,NA,NA,NA,NA,NA,NA,NA,NA,NA
a1b98,task,flow.Sequence,5_0_0_0_2,NA,NA,completion,36345.62,951033,951030.96,951047.62,987393.24,987395,2023-12-02T10:26:10Z,987409.4,NULL,Gelegenheit,wakati,s,mchanganyiko,kipaumbele,kushuku,NA,sdf,NA,0,NA,NA,NA,NA,NA,NA,NA,NA,NA,NA,NA,NA,NA,NA,NA,NA,NA,NA,NA
a1b98,Deep Question,html.Page,5_0_0_0_3_0_0,NA,NA,form submission,5226.6,987395,987393.24,987409.4,992636,992636,2023-12-02T10:26:16Z,992642.26,NULL,Gefährdung,kuhatarisha,d,NA,NA,NA,j,NA,NA,0,NA,NA,NA,NA,NA,NA,NA,NA,NA,NA,NA,NA,NA,NA,NA,NA,NA,NA,NA
a1b98,"""Richtig""-Screen",canvas.Screen,5_0_0_0_3_0_1,NA,NA,skipped,NA,992638,NA,NA,992636,992638,2023-12-02T10:26:16Z,992642.26,NULL,Gefährdung,kuhatarisha,d,NA,NA,NA,NA,sdf,NA,0,NA,NA,NA,NA,NA,NA,NA,NA,NA,NA,NA,NA,NA,NA,NA,NA,NA,NA,NA
a1b98,"""Falsch""-Screen",canvas.Screen,5_0_0_0_3_0_2,NA,NA,timeout,4999.38,992641,992634.96,992642.26,997625.06,997626,2023-12-02T10:26:21Z,997641.64,NULL,Gefährdung,kuhatarisha,d,NA,NA,NA,NA,sdf,0,0,NA,NA,NA,NA,NA,NA,NA,NA,NA,NA,NA,NA,NA,NA,NA,NA,NA,NA,NA
a1b98,deep,flow.Sequence,5_0_0_0_3_0,NA,NA,completion,10215.66,987395,987393.24,987409.4,997625.06,997626,2023-12-02T10:26:21Z,997641.64,NULL,Gefährdung,kuhatarisha,d,NA,NA,NA,NA,sdf,NA,0,NA,NA,NA,NA,NA,NA,NA,NA,NA,NA,NA,NA,NA,NA,NA,NA,NA,NA,NA
a1b98,shallow,flow.Sequence,5_0_0_0_3_1,NA,NA,skipped,NA,997627,NA,NA,997625.06,997627,2023-12-02T10:26:21Z,997641.64,NULL,Gefährdung,kuhatarisha,d,NA,NA,NA,NA,sdf,NA,0,NA,NA,NA,NA,NA,NA,NA,NA,NA,NA,NA,NA,NA,NA,NA,NA,NA,NA,NA
a1b98,task,flow.Sequence,5_0_0_0_3,NA,NA,completion,10215.66,987395,987393.24,987409.4,997625.06,997628,2023-12-02T10:26:21Z,997641.64,NULL,Gefährdung,kuhatarisha,d,NA,NA,NA,NA,sdf,NA,0,NA,NA,NA,NA,NA,NA,NA,NA,NA,NA,NA,NA,NA,NA,NA,NA,NA,NA,NA
a1b98,Deep Question,html.Page,5_0_0_0_4_0_0,NA,NA,form submission,4049.36,997628,997625.06,997641.64,1001691,1001692,2023-12-02T10:26:25Z,1001691.42,NULL,Widerstand,usulubu,d,NA,NA,NA,j,NA,NA,0,NA,NA,NA,NA,NA,NA,NA,NA,NA,NA,NA,NA,NA,NA,NA,NA,NA,NA,NA
a1b98,"""Richtig""-Screen",canvas.Screen,5_0_0_0_4_0_1,NA,NA,skipped,NA,1001693,NA,NA,1001691,1001693,2023-12-02T10:26:25Z,1001691.42,NULL,Widerstand,usulubu,d,NA,NA,NA,NA,sdf,NA,0,NA,NA,NA,NA,NA,NA,NA,NA,NA,NA,NA,NA,NA,NA,NA,NA,NA,NA,NA
a1b98,"""Falsch""-Screen",canvas.Screen,5_0_0_0_4_0_2,NA,NA,timeout,4999.0399999999,1001695,1001691.34,1001691.42,1006673.88,1006677,2023-12-02T10:26:30Z,1006690.46,NULL,Widerstand,usulubu,d,NA,NA,NA,NA,sdf,0,0,NA,NA,NA,NA,NA,NA,NA,NA,NA,NA,NA,NA,NA,NA,NA,NA,NA,NA,NA
a1b98,deep,flow.Sequence,5_0_0_0_4_0,NA,NA,completion,9032.24,997628,997625.06,997641.64,1006673.88,1006678,2023-12-02T10:26:30Z,1006690.46,NULL,Widerstand,usulubu,d,NA,NA,NA,NA,sdf,NA,0,NA,NA,NA,NA,NA,NA,NA,NA,NA,NA,NA,NA,NA,NA,NA,NA,NA,NA,NA
a1b98,shallow,flow.Sequence,5_0_0_0_4_1,NA,NA,skipped,NA,1006679,NA,NA,1006673.88,1006679,2023-12-02T10:26:30Z,1006690.46,NULL,Widerstand,usulubu,d,NA,NA,NA,NA,sdf,NA,0,NA,NA,NA,NA,NA,NA,NA,NA,NA,NA,NA,NA,NA,NA,NA,NA,NA,NA,NA
a1b98,task,flow.Sequence,5_0_0_0_4,NA,NA,completion,9032.24,997628,997625.06,997641.64,1006673.88,1006680,2023-12-02T10:26:30Z,1006690.46,NULL,Widerstand,usulubu,d,NA,NA,NA,NA,sdf,NA,0,NA,NA,NA,NA,NA,NA,NA,NA,NA,NA,NA,NA,NA,NA,NA,NA,NA,NA,NA
a1b98,deep,flow.Sequence,5_0_0_0_5_0,NA,NA,skipped,NA,1006682,NA,NA,1006673.88,1006682,2023-12-02T10:26:30Z,1006690.46,NULL,Kreativität,ubunifu,s,mratibu,mwendelezo,makubaliano,NA,sdf,NA,0,NA,NA,NA,NA,NA,NA,NA,NA,NA,NA,NA,NA,NA,NA,NA,NA,NA,NA,NA
a1b98,Shallow Question,html.Page,5_0_0_0_5_1_0,NA,NA,form submission,6820.54,1006682,1006673.88,1006690.46,1013511,1013513,2023-12-02T10:26:36Z,1013522.96,NULL,Kreativität,ubunifu,s,mratibu,mwendelezo,makubaliano,mwendelezo,NA,NA,0,NA,NA,NA,NA,NA,NA,NA,NA,NA,NA,NA,NA,NA,NA,NA,NA,NA,NA,NA
a1b98,"""Richtig""-Screen",canvas.Screen,5_0_0_0_5_1_1,NA,NA,skipped,NA,1013524,NA,NA,1013511,1013525,2023-12-02T10:26:37Z,1013522.96,NULL,Kreativität,ubunifu,s,mratibu,mwendelezo,makubaliano,NA,sdf,NA,0,NA,NA,NA,NA,NA,NA,NA,NA,NA,NA,NA,NA,NA,NA,NA,NA,NA,NA,NA
a1b98,"""Falsch""-Screen",canvas.Screen,5_0_0_0_5_1_2,NA,NA,timeout,4999.3,1013528,1013503.44,1013522.96,1018505.76,1018507,2023-12-02T10:26:41Z,1018522.26,NULL,Kreativität,ubunifu,s,mratibu,mwendelezo,makubaliano,NA,sdf,0,0,NA,NA,NA,NA,NA,NA,NA,NA,NA,NA,NA,NA,NA,NA,NA,NA,NA,NA,NA
a1b98,shallow,flow.Sequence,5_0_0_0_5_1,NA,NA,completion,11815.3,1006682,1006673.88,1006690.46,1018505.76,1018508,2023-12-02T10:26:41Z,1018522.26,NULL,Kreativität,ubunifu,s,mratibu,mwendelezo,makubaliano,NA,sdf,NA,0,NA,NA,NA,NA,NA,NA,NA,NA,NA,NA,NA,NA,NA,NA,NA,NA,NA,NA,NA
a1b98,task,flow.Sequence,5_0_0_0_5,NA,NA,completion,11815.3,1006681,1006673.88,1006690.46,1018505.76,1018509,2023-12-02T10:26:41Z,1018522.26,NULL,Kreativität,ubunifu,s,mratibu,mwendelezo,makubaliano,NA,sdf,NA,0,NA,NA,NA,NA,NA,NA,NA,NA,NA,NA,NA,NA,NA,NA,NA,NA,NA,NA,NA
a1b98,deep,flow.Sequence,5_0_0_0_6_0,NA,NA,skipped,NA,1018509,NA,NA,1018505.76,1018510,2023-12-02T10:26:41Z,1018522.26,NULL,Ausschluss,kutengwa,s,ununuzi,taratibu,madeni,NA,sdf,NA,0,NA,NA,NA,NA,NA,NA,NA,NA,NA,NA,NA,NA,NA,NA,NA,NA,NA,NA,NA
a1b98,Shallow Question,html.Page,5_0_0_0_6_1_0,NA,NA,form submission,14123.74,1018511,1018505.76,1018522.26,1032646,1032647,2023-12-02T10:26:56Z,1032653.8,NULL,Ausschluss,kutengwa,s,ununuzi,taratibu,madeni,kutengwa,NA,NA,0,NA,NA,NA,NA,NA,NA,NA,NA,NA,NA,NA,NA,NA,NA,NA,NA,NA,NA,NA
a1b98,"""Richtig""-Screen",canvas.Screen,5_0_0_0_6_1_1,NA,NA,timeout,4999.38,1032651,1032641.86,1032653.8,1037636.94,1037639,2023-12-02T10:27:01Z,1037653.18,NULL,Ausschluss,kutengwa,s,ununuzi,taratibu,madeni,NA,sdf,1,0,NA,NA,NA,NA,NA,NA,NA,NA,NA,NA,NA,NA,NA,NA,NA,NA,NA,NA,NA
a1b98,"""Falsch""-Screen",canvas.Screen,5_0_0_0_6_1_2,NA,NA,skipped,NA,1037646,NA,NA,1037636.94,1037646,2023-12-02T10:27:01Z,1037653.18,NULL,Ausschluss,kutengwa,s,ununuzi,taratibu,madeni,NA,sdf,NA,0,NA,NA,NA,NA,NA,NA,NA,NA,NA,NA,NA,NA,NA,NA,NA,NA,NA,NA,NA
a1b98,shallow,flow.Sequence,5_0_0_0_6_1,NA,NA,completion,19114.68,1018510,1018505.76,1018522.26,1037636.94,1037647,2023-12-02T10:27:01Z,1037653.18,NULL,Ausschluss,kutengwa,s,ununuzi,taratibu,madeni,NA,sdf,NA,0,NA,NA,NA,NA,NA,NA,NA,NA,NA,NA,NA,NA,NA,NA,NA,NA,NA,NA,NA
a1b98,task,flow.Sequence,5_0_0_0_6,NA,NA,completion,19114.68,1018509,1018505.76,1018522.26,1037636.94,1037647,2023-12-02T10:27:01Z,1037653.18,NULL,Ausschluss,kutengwa,s,ununuzi,taratibu,madeni,NA,sdf,NA,0,NA,NA,NA,NA,NA,NA,NA,NA,NA,NA,NA,NA,NA,NA,NA,NA,NA,NA,NA
a1b98,Deep Question,html.Page,5_0_0_0_7_0_0,NA,NA,form submission,3459.8199999999,1037648,1037636.94,1037653.18,1041113,1041113,2023-12-02T10:27:04Z,1041119.54,NULL,Verstand,ufahamivu,d,NA,NA,NA,k,NA,NA,0,NA,NA,NA,NA,NA,NA,NA,NA,NA,NA,NA,NA,NA,NA,NA,NA,NA,NA,NA
a1b98,"""Richtig""-Screen",canvas.Screen,5_0_0_0_7_0_1,NA,NA,skipped,NA,1041116,NA,NA,1041113,1041116,2023-12-02T10:27:04Z,1041119.54,NULL,Verstand,ufahamivu,d,NA,NA,NA,NA,sdf,NA,0,NA,NA,NA,NA,NA,NA,NA,NA,NA,NA,NA,NA,NA,NA,NA,NA,NA,NA,NA
a1b98,"""Falsch""-Screen",canvas.Screen,5_0_0_0_7_0_2,NA,NA,timeout,4999.02,1041120,1041111.88,1041119.54,1046102.14,1046103,2023-12-02T10:27:09Z,1046118.56,NULL,Verstand,ufahamivu,d,NA,NA,NA,NA,sdf,0,0,NA,NA,NA,NA,NA,NA,NA,NA,NA,NA,NA,NA,NA,NA,NA,NA,NA,NA,NA
a1b98,deep,flow.Sequence,5_0_0_0_7_0,NA,NA,completion,8448.96,1037648,1037636.94,1037653.18,1046102.14,1046104,2023-12-02T10:27:09Z,1046118.56,NULL,Verstand,ufahamivu,d,NA,NA,NA,NA,sdf,NA,0,NA,NA,NA,NA,NA,NA,NA,NA,NA,NA,NA,NA,NA,NA,NA,NA,NA,NA,NA
a1b98,shallow,flow.Sequence,5_0_0_0_7_1,NA,NA,skipped,NA,1046105,NA,NA,1046102.14,1046105,2023-12-02T10:27:09Z,1046118.56,NULL,Verstand,ufahamivu,d,NA,NA,NA,NA,sdf,NA,0,NA,NA,NA,NA,NA,NA,NA,NA,NA,NA,NA,NA,NA,NA,NA,NA,NA,NA,NA
a1b98,task,flow.Sequence,5_0_0_0_7,NA,NA,completion,8448.96,1037648,1037636.94,1037653.18,1046102.14,1046107,2023-12-02T10:27:09Z,1046118.56,NULL,Verstand,ufahamivu,d,NA,NA,NA,NA,sdf,NA,0,NA,NA,NA,NA,NA,NA,NA,NA,NA,NA,NA,NA,NA,NA,NA,NA,NA,NA,NA
a1b98,block,flow.Loop,5_0_0_0,NA,NA,completion,125891.16,920210,920210.66,920210.98,1046102.14,1046107,2023-12-02T10:27:09Z,1046118.56,NULL,NA,NA,NA,NA,NA,NA,NA,sdf,NA,0,NA,NA,NA,NA,NA,NA,NA,NA,NA,NA,NA,NA,NA,NA,NA,NA,NA,NA,NA
a1b98,weiter,canvas.Screen,5_0_0_1,sdf,keypress(Space),response,1001.4399999999,1046107,1046102.14,1046118.56,1047120,1047136,2023-12-02T10:27:10Z,1047201.3,NULL,NA,NA,NA,NA,NA,NA,NA,sdf,NA,0,NA,NA,NA,NA,NA,NA,NA,NA,NA,NA,NA,NA,NA,NA,NA,NA,NA,NA,NA
a1b98,check continue,flow.Sequence,5_0_0,NA,NA,completion,126909.02,920210,920210.66,920210.98,1047120,1047136,2023-12-02T10:27:10Z,1047201.3,NULL,NA,NA,NA,NA,NA,NA,NA,sdf,NA,0,NA,NA,NA,NA,NA,NA,NA,NA,NA,NA,NA,NA,NA,NA,NA,NA,NA,NA,NA
a1b98,Deep Question,html.Page,5_0_1_0_0_0_0,NA,NA,form submission,3528.7,1047201,1047201,1047201.3,1050730,1050731,2023-12-02T10:27:14Z,1050734.88,NULL,Verstand,ufahamivu,d,NA,NA,NA,k,NA,NA,1,NA,NA,NA,NA,NA,NA,NA,NA,NA,NA,NA,NA,NA,NA,NA,NA,NA,NA,NA
a1b98,"""Richtig""-Screen",canvas.Screen,5_0_1_0_0_0_1,NA,NA,skipped,NA,1050733,NA,NA,1050730,1050734,2023-12-02T10:27:14Z,1050734.88,NULL,Verstand,ufahamivu,d,NA,NA,NA,NA,sdfdsf,NA,1,NA,NA,NA,NA,NA,NA,NA,NA,NA,NA,NA,NA,NA,NA,NA,NA,NA,NA,NA
a1b98,"""Falsch""-Screen",canvas.Screen,5_0_1_0_0_0_2,NA,NA,timeout,4999.1400000001,1050736,1050728.84,1050734.88,1055717.66,1055719,2023-12-02T10:27:19Z,1055734.02,NULL,Verstand,ufahamivu,d,NA,NA,NA,NA,sdfdsf,0,1,NA,NA,NA,NA,NA,NA,NA,NA,NA,NA,NA,NA,NA,NA,NA,NA,NA,NA,NA
a1b98,deep,flow.Sequence,5_0_1_0_0_0,NA,NA,completion,8516.3599999999,1047201,1047201,1047201.3,1055717.66,1055719,2023-12-02T10:27:19Z,1055734.02,NULL,Verstand,ufahamivu,d,NA,NA,NA,NA,sdfdsf,NA,1,NA,NA,NA,NA,NA,NA,NA,NA,NA,NA,NA,NA,NA,NA,NA,NA,NA,NA,NA
a1b98,shallow,flow.Sequence,5_0_1_0_0_1,NA,NA,skipped,NA,1055719,NA,NA,1055717.66,1055719,2023-12-02T10:27:19Z,1055734.02,NULL,Verstand,ufahamivu,d,NA,NA,NA,NA,sdfdsf,NA,1,NA,NA,NA,NA,NA,NA,NA,NA,NA,NA,NA,NA,NA,NA,NA,NA,NA,NA,NA
a1b98,task,flow.Sequence,5_0_1_0_0,NA,NA,completion,8516.3599999999,1047201,1047201,1047201.3,1055717.66,1055720,2023-12-02T10:27:19Z,1055734.02,NULL,Verstand,ufahamivu,d,NA,NA,NA,NA,sdfdsf,NA,1,NA,NA,NA,NA,NA,NA,NA,NA,NA,NA,NA,NA,NA,NA,NA,NA,NA,NA,NA
a1b98,deep,flow.Sequence,5_0_1_0_1_0,NA,NA,skipped,NA,1055720,NA,NA,1055717.66,1055720,2023-12-02T10:27:19Z,1055734.02,NULL,Kreativität,ubunifu,s,mratibu,mwendelezo,makubaliano,NA,sdfdsf,NA,1,NA,NA,NA,NA,NA,NA,NA,NA,NA,NA,NA,NA,NA,NA,NA,NA,NA,NA,NA
a1b98,Shallow Question,html.Page,5_0_1_0_1_1_0,NA,NA,form submission,9418.98,1055720,1055717.66,1055734.02,1065153,1065157,2023-12-02T10:27:28Z,1065166.38,NULL,Kreativität,ubunifu,s,mratibu,mwendelezo,makubaliano,ubunifu,NA,NA,1,NA,NA,NA,NA,NA,NA,NA,NA,NA,NA,NA,NA,NA,NA,NA,NA,NA,NA,NA
a1b98,"""Richtig""-Screen",canvas.Screen,5_0_1_0_1_1_1,NA,NA,timeout,4999.4000000001,1065167,1065143.08,1065166.38,1070149.4,1070150,2023-12-02T10:27:33Z,1070165.78,NULL,Kreativität,ubunifu,s,mratibu,mwendelezo,makubaliano,NA,sdfdsf,1,1,NA,NA,NA,NA,NA,NA,NA,NA,NA,NA,NA,NA,NA,NA,NA,NA,NA,NA,NA
a1b98,"""Falsch""-Screen",canvas.Screen,5_0_1_0_1_1_2,NA,NA,skipped,NA,1070153,NA,NA,1070149.4,1070153,2023-12-02T10:27:33Z,1070165.78,NULL,Kreativität,ubunifu,s,mratibu,mwendelezo,makubaliano,NA,sdfdsf,NA,1,NA,NA,NA,NA,NA,NA,NA,NA,NA,NA,NA,NA,NA,NA,NA,NA,NA,NA,NA
a1b98,shallow,flow.Sequence,5_0_1_0_1_1,NA,NA,completion,14415.38,1055720,1055717.66,1055734.02,1070149.4,1070154,2023-12-02T10:27:33Z,1070165.78,NULL,Kreativität,ubunifu,s,mratibu,mwendelezo,makubaliano,NA,sdfdsf,NA,1,NA,NA,NA,NA,NA,NA,NA,NA,NA,NA,NA,NA,NA,NA,NA,NA,NA,NA,NA
a1b98,task,flow.Sequence,5_0_1_0_1,NA,NA,completion,14415.38,1055720,1055717.66,1055734.02,1070149.4,1070154,2023-12-02T10:27:33Z,1070165.78,NULL,Kreativität,ubunifu,s,mratibu,mwendelezo,makubaliano,NA,sdfdsf,NA,1,NA,NA,NA,NA,NA,NA,NA,NA,NA,NA,NA,NA,NA,NA,NA,NA,NA,NA,NA
a1b98,deep,flow.Sequence,5_0_1_0_2_0,NA,NA,skipped,NA,1070154,NA,NA,1070149.4,1070154,2023-12-02T10:27:33Z,1070165.78,NULL,Ausschluss,kutengwa,s,ununuzi,taratibu,madeni,NA,sdfdsf,NA,1,NA,NA,NA,NA,NA,NA,NA,NA,NA,NA,NA,NA,NA,NA,NA,NA,NA,NA,NA
a1b98,Shallow Question,html.Page,5_0_1_0_2_1_0,NA,NA,form submission,8987.22,1070155,1070149.4,1070165.78,1079153,1079154,2023-12-02T10:27:42Z,1079164.78,NULL,Ausschluss,kutengwa,s,ununuzi,taratibu,madeni,kutengwa,NA,NA,1,NA,NA,NA,NA,NA,NA,NA,NA,NA,NA,NA,NA,NA,NA,NA,NA,NA,NA,NA
a1b98,"""Richtig""-Screen",canvas.Screen,5_0_1_0_2_1_1,NA,NA,timeout,4999.1799999999,1079156,1079148.68,1079164.78,1084147.8,1084149,2023-12-02T10:27:47Z,1084163.96,NULL,Ausschluss,kutengwa,s,ununuzi,taratibu,madeni,NA,sdfdsf,1,1,NA,NA,NA,NA,NA,NA,NA,NA,NA,NA,NA,NA,NA,NA,NA,NA,NA,NA,NA
a1b98,"""Falsch""-Screen",canvas.Screen,5_0_1_0_2_1_2,NA,NA,skipped,NA,1084156,NA,NA,1084147.8,1084156,2023-12-02T10:27:47Z,1084163.96,NULL,Ausschluss,kutengwa,s,ununuzi,taratibu,madeni,NA,sdfdsf,NA,1,NA,NA,NA,NA,NA,NA,NA,NA,NA,NA,NA,NA,NA,NA,NA,NA,NA,NA,NA
a1b98,shallow,flow.Sequence,5_0_1_0_2_1,NA,NA,completion,13982.02,1070154,1070149.4,1070165.78,1084147.8,1084158,2023-12-02T10:27:47Z,1084163.96,NULL,Ausschluss,kutengwa,s,ununuzi,taratibu,madeni,NA,sdfdsf,NA,1,NA,NA,NA,NA,NA,NA,NA,NA,NA,NA,NA,NA,NA,NA,NA,NA,NA,NA,NA
a1b98,task,flow.Sequence,5_0_1_0_2,NA,NA,completion,13982.02,1070154,1070149.4,1070165.78,1084147.8,1084158,2023-12-02T10:27:47Z,1084163.96,NULL,Ausschluss,kutengwa,s,ununuzi,taratibu,madeni,NA,sdfdsf,NA,1,NA,NA,NA,NA,NA,NA,NA,NA,NA,NA,NA,NA,NA,NA,NA,NA,NA,NA,NA
a1b98,deep,flow.Sequence,5_0_1_0_3_0,NA,NA,skipped,NA,1084159,NA,NA,1084147.8,1084159,2023-12-02T10:27:47Z,1084163.96,NULL,Können,unaweza,s,kiongozi,bustani,mienendo,NA,sdfdsf,NA,1,NA,NA,NA,NA,NA,NA,NA,NA,NA,NA,NA,NA,NA,NA,NA,NA,NA,NA,NA
a1b98,Shallow Question,html.Page,5_0_1_0_3_1_0,NA,NA,form submission,15974.04,1084159,1084147.8,1084163.96,1100138,1100138,2023-12-02T10:28:03Z,1100145.26,NULL,Können,unaweza,s,kiongozi,bustani,mienendo,unaweza,NA,NA,1,NA,NA,NA,NA,NA,NA,NA,NA,NA,NA,NA,NA,NA,NA,NA,NA,NA,NA,NA
