observation,sender,sender_type,sender_id,response,response_action,ended_on,duration,time_run,time_render,time_show,time_end,time_commit,timestamp,time_switch,distractors,german,swahili,enc,distractor1,distractor2,distractor3,response_2,x,correct,x_2,url_vp,url_sess,meta_labjs_version,meta_location,meta_user_agent,meta_platform,meta_language,meta_locale,meta_time_zone,meta_timezone_offset,meta_screen_width,meta_screen_height,meta_scroll_width,meta_scroll_height,meta_window_inner_width,meta_window_inner_height,meta_device_pixel_ratio,meta_labjs_build_flavor,meta_labjs_build_commit
dfba9,Introduction general,canvas.Screen,0,weiter,keypress(q),response,62393.96,454,463.36,480.04,62874,62900,2023-11-04T09:58:23Z,62905.36,NULL,NA,NA,NA,NA,NA,NA,NA,NA,NA,NA,191,1,20.2.4,https://neurocog.fernuni.ch/studies/vweber/sliechti/encoding_immediate/index.html?vp=191&sess=1,Mozilla/5.0 (Windows NT 10.0; Win64; x64; rv:109.0) Gecko/20100101 Firefox/119.0,Win32,de,de-CH,Europe/Zurich,-60,1280,720,1280,587,1280,587,1.5,production,f5b4a49f956347addd546a832a3327688c2c0fef
dfba9,Introduction practice,canvas.Screen,1_0,NA,keypress(Space),response,6640.64,62903,62902.8,62905.36,69546,69558,2023-11-04T09:58:30Z,69558.7,NULL,NA,NA,NA,NA,NA,NA,NA,NA,NA,NA,NA,NA,NA,NA,NA,NA,NA,NA,NA,NA,NA,NA,NA,NA,NA,NA,NA,NA,NA
dfba9,Deep Question,html.Page,1_1_0_0_0,NA,NA,form submission,14569.3,69559,69558.3,69558.7,84128,84131,2023-11-04T09:58:45Z,84135.92,"c(""distractor1"", ""distractor2"", ""distractor3"")",Qualität,mtindo,d,NA,NA,NA,a,NA,NA,NA,NA,NA,NA,NA,NA,NA,NA,NA,NA,NA,NA,NA,NA,NA,NA,NA,NA,NA,NA
dfba9,"""Richtig""-Screen",canvas.Screen,1_1_0_0_1,NA,NA,skipped,NA,84139,NA,NA,84128,84139,2023-11-04T09:58:45Z,84135.92,"c(""distractor1"", ""distractor2"", ""distractor3"")",Qualität,mtindo,d,NA,NA,NA,NA,NA,NA,NA,NA,NA,NA,NA,NA,NA,NA,NA,NA,NA,NA,NA,NA,NA,NA,NA,NA,NA,NA
dfba9,"""Falsch""-Screen",canvas.Screen,1_1_0_0_2,NA,NA,timeout,4999.44,84142,84118.5,84135.92,89118.66,89120,2023-11-04T09:58:50Z,89135.36,"c(""distractor1"", ""distractor2"", ""distractor3"")",Qualität,mtindo,d,NA,NA,NA,NA,NA,0,NA,NA,NA,NA,NA,NA,NA,NA,NA,NA,NA,NA,NA,NA,NA,NA,NA,NA,NA,NA
dfba9,deep,flow.Sequence,1_1_0_0,NA,NA,completion,19559.96,69559,69558.3,69558.7,89118.66,89122,2023-11-04T09:58:50Z,89135.36,"c(""distractor1"", ""distractor2"", ""distractor3"")",Qualität,mtindo,d,NA,NA,NA,NA,NA,NA,NA,NA,NA,NA,NA,NA,NA,NA,NA,NA,NA,NA,NA,NA,NA,NA,NA,NA,NA,NA
dfba9,shallow,flow.Sequence,1_1_0_1,NA,NA,skipped,NA,89123,NA,NA,89118.66,89123,2023-11-04T09:58:50Z,89135.36,"c(""distractor1"", ""distractor2"", ""distractor3"")",Qualität,mtindo,d,NA,NA,NA,NA,NA,NA,NA,NA,NA,NA,NA,NA,NA,NA,NA,NA,NA,NA,NA,NA,NA,NA,NA,NA,NA,NA
dfba9,task,flow.Sequence,1_1_0,NA,NA,completion,19559.96,69558,69558.3,69558.7,89118.66,89124,2023-11-04T09:58:50Z,89135.36,"c(""distractor1"", ""distractor2"", ""distractor3"")",Qualität,mtindo,d,NA,NA,NA,NA,NA,NA,NA,NA,NA,NA,NA,NA,NA,NA,NA,NA,NA,NA,NA,NA,NA,NA,NA,NA,NA,NA
dfba9,deep,flow.Sequence,1_1_1_0,NA,NA,skipped,NA,89125,NA,NA,89118.66,89125,2023-11-04T09:58:50Z,89135.36,"c(""distractor1"", ""distractor2"", ""distractor3"")",Kritik,lawama,s,dereva,nafasi,mawazo,NA,NA,NA,NA,NA,NA,NA,NA,NA,NA,NA,NA,NA,NA,NA,NA,NA,NA,NA,NA,NA,NA,NA
dfba9,Shallow Question,html.Page,1_1_1_1_0,NA,NA,form submission,9603.64,89126,89118.66,89135.36,98739,98740,2023-11-04T09:58:59Z,98750.64,"c(""distractor1"", ""distractor2"", ""distractor3"")",Kritik,lawama,s,dereva,nafasi,mawazo,lawama,NA,NA,NA,NA,NA,NA,NA,NA,NA,NA,NA,NA,NA,NA,NA,NA,NA,NA,NA,NA,NA,NA
dfba9,"""Richtig""-Screen",canvas.Screen,1_1_1_1_1,NA,NA,timeout,4999.34,98744,98735.84,98750.64,103733.5,103736,2023-11-04T09:59:04Z,103749.98,"c(""distractor1"", ""distractor2"", ""distractor3"")",Kritik,lawama,s,dereva,nafasi,mawazo,NA,NA,1,NA,NA,NA,NA,NA,NA,NA,NA,NA,NA,NA,NA,NA,NA,NA,NA,NA,NA,NA,NA
dfba9,"""Falsch""-Screen",canvas.Screen,1_1_1_1_2,NA,NA,skipped,NA,103742,NA,NA,103733.5,103743,2023-11-04T09:59:04Z,103749.98,"c(""distractor1"", ""distractor2"", ""distractor3"")",Kritik,lawama,s,dereva,nafasi,mawazo,NA,NA,NA,NA,NA,NA,NA,NA,NA,NA,NA,NA,NA,NA,NA,NA,NA,NA,NA,NA,NA,NA,NA
dfba9,shallow,flow.Sequence,1_1_1_1,NA,NA,completion,14598.14,89126,89118.66,89135.36,103733.5,103743,2023-11-04T09:59:04Z,103749.98,"c(""distractor1"", ""distractor2"", ""distractor3"")",Kritik,lawama,s,dereva,nafasi,mawazo,NA,NA,NA,NA,NA,NA,NA,NA,NA,NA,NA,NA,NA,NA,NA,NA,NA,NA,NA,NA,NA,NA,NA
dfba9,task,flow.Sequence,1_1_1,NA,NA,completion,14598.14,89125,89118.66,89135.36,103733.5,103744,2023-11-04T09:59:04Z,103749.98,"c(""distractor1"", ""distractor2"", ""distractor3"")",Kritik,lawama,s,dereva,nafasi,mawazo,NA,NA,NA,NA,NA,NA,NA,NA,NA,NA,NA,NA,NA,NA,NA,NA,NA,NA,NA,NA,NA,NA,NA
dfba9,deep,flow.Sequence,1_1_2_0,NA,NA,skipped,NA,103744,NA,NA,103733.5,103744,2023-11-04T09:59:04Z,103749.98,"c(""distractor1"", ""distractor2"", ""distractor3"")",Gegenwart,hadhara,s,katiba,jokofu,mikopo,NA,NA,NA,NA,NA,NA,NA,NA,NA,NA,NA,NA,NA,NA,NA,NA,NA,NA,NA,NA,NA,NA,NA
dfba9,Shallow Question,html.Page,1_1_2_1_0,NA,NA,form submission,13661.02,103745,103733.5,103749.98,117411,117412,2023-11-04T09:59:18Z,117414.96,"c(""distractor1"", ""distractor2"", ""distractor3"")",Gegenwart,hadhara,s,katiba,jokofu,mikopo,jokofu,NA,NA,NA,NA,NA,NA,NA,NA,NA,NA,NA,NA,NA,NA,NA,NA,NA,NA,NA,NA,NA,NA
dfba9,"""Richtig""-Screen",canvas.Screen,1_1_2_1_1,NA,NA,skipped,NA,117419,NA,NA,117411,117420,2023-11-04T09:59:18Z,117414.96,"c(""distractor1"", ""distractor2"", ""distractor3"")",Gegenwart,hadhara,s,katiba,jokofu,mikopo,NA,NA,NA,NA,NA,NA,NA,NA,NA,NA,NA,NA,NA,NA,NA,NA,NA,NA,NA,NA,NA,NA,NA
dfba9,"""Falsch""-Screen",canvas.Screen,1_1_2_1_2,NA,NA,timeout,4999.22,117425,117405.94,117414.96,122397.58,122398,2023-11-04T09:59:23Z,122414.18,"c(""distractor1"", ""distractor2"", ""distractor3"")",Gegenwart,hadhara,s,katiba,jokofu,mikopo,NA,NA,0,NA,NA,NA,NA,NA,NA,NA,NA,NA,NA,NA,NA,NA,NA,NA,NA,NA,NA,NA,NA
dfba9,shallow,flow.Sequence,1_1_2_1,NA,NA,completion,18647.6,103745,103733.5,103749.98,122397.58,122398,2023-11-04T09:59:23Z,122414.18,"c(""distractor1"", ""distractor2"", ""distractor3"")",Gegenwart,hadhara,s,katiba,jokofu,mikopo,NA,NA,NA,NA,NA,NA,NA,NA,NA,NA,NA,NA,NA,NA,NA,NA,NA,NA,NA,NA,NA,NA,NA
dfba9,task,flow.Sequence,1_1_2,NA,NA,completion,18647.6,103744,103733.5,103749.98,122397.58,122399,2023-11-04T09:59:23Z,122414.18,"c(""distractor1"", ""distractor2"", ""distractor3"")",Gegenwart,hadhara,s,katiba,jokofu,mikopo,NA,NA,NA,NA,NA,NA,NA,NA,NA,NA,NA,NA,NA,NA,NA,NA,NA,NA,NA,NA,NA,NA,NA
dfba9,deep,flow.Sequence,1_1_3_0,NA,NA,skipped,NA,122399,NA,NA,122397.58,122399,2023-11-04T09:59:23Z,122414.18,"c(""distractor1"", ""distractor2"", ""distractor3"")",Rückhalt,msaada,s,muhula,auwali,kiwimbe,NA,NA,NA,NA,NA,NA,NA,NA,NA,NA,NA,NA,NA,NA,NA,NA,NA,NA,NA,NA,NA,NA,NA
dfba9,Shallow Question,html.Page,1_1_3_1_0,NA,NA,form submission,12429.82,122399,122397.58,122414.18,134844,134845,2023-11-04T09:59:35Z,134845.94,"c(""distractor1"", ""distractor2"", ""distractor3"")",Rückhalt,msaada,s,muhula,auwali,kiwimbe,auwali,NA,NA,NA,NA,NA,NA,NA,NA,NA,NA,NA,NA,NA,NA,NA,NA,NA,NA,NA,NA,NA,NA
dfba9,"""Richtig""-Screen",canvas.Screen,1_1_3_1_1,NA,NA,skipped,NA,134848,NA,NA,134844,134848,2023-11-04T09:59:35Z,134845.94,"c(""distractor1"", ""distractor2"", ""distractor3"")",Rückhalt,msaada,s,muhula,auwali,kiwimbe,NA,NA,NA,NA,NA,NA,NA,NA,NA,NA,NA,NA,NA,NA,NA,NA,NA,NA,NA,NA,NA,NA,NA
dfba9,"""Falsch""-Screen",canvas.Screen,1_1_3_1_2,NA,NA,timeout,4999.4,134852,134840.3,134845.94,139828.74,139830,2023-11-04T09:59:40Z,139845.34,"c(""distractor1"", ""distractor2"", ""distractor3"")",Rückhalt,msaada,s,muhula,auwali,kiwimbe,NA,NA,0,NA,NA,NA,NA,NA,NA,NA,NA,NA,NA,NA,NA,NA,NA,NA,NA,NA,NA,NA,NA
dfba9,shallow,flow.Sequence,1_1_3_1,NA,NA,completion,17414.56,122399,122397.58,122414.18,139828.74,139831,2023-11-04T09:59:40Z,139845.34,"c(""distractor1"", ""distractor2"", ""distractor3"")",Rückhalt,msaada,s,muhula,auwali,kiwimbe,NA,NA,NA,NA,NA,NA,NA,NA,NA,NA,NA,NA,NA,NA,NA,NA,NA,NA,NA,NA,NA,NA,NA
dfba9,task,flow.Sequence,1_1_3,NA,NA,completion,17414.56,122399,122397.58,122414.18,139828.74,139832,2023-11-04T09:59:40Z,139845.34,"c(""distractor1"", ""distractor2"", ""distractor3"")",Rückhalt,msaada,s,muhula,auwali,kiwimbe,NA,NA,NA,NA,NA,NA,NA,NA,NA,NA,NA,NA,NA,NA,NA,NA,NA,NA,NA,NA,NA,NA,NA
dfba9,Deep Question,html.Page,1_1_4_0_0,NA,NA,form submission,6211.66,139832,139828.74,139845.34,146057,146057,2023-11-04T09:59:47Z,146061.16,"c(""distractor1"", ""distractor2"", ""distractor3"")",Gesundheit,salama,d,NA,NA,NA,g,NA,NA,NA,NA,NA,NA,NA,NA,NA,NA,NA,NA,NA,NA,NA,NA,NA,NA,NA,NA,NA,NA
dfba9,"""Richtig""-Screen",canvas.Screen,1_1_4_0_1,NA,NA,skipped,NA,146063,NA,NA,146057,146063,2023-11-04T09:59:47Z,146061.16,"c(""distractor1"", ""distractor2"", ""distractor3"")",Gesundheit,salama,d,NA,NA,NA,NA,NA,NA,NA,NA,NA,NA,NA,NA,NA,NA,NA,NA,NA,NA,NA,NA,NA,NA,NA,NA,NA,NA
dfba9,"""Falsch""-Screen",canvas.Screen,1_1_4_0_2,NA,NA,timeout,4999.36,146068,146052.02,146061.16,151043.96,151045,2023-11-04T09:59:52Z,151060.52,"c(""distractor1"", ""distractor2"", ""distractor3"")",Gesundheit,salama,d,NA,NA,NA,NA,NA,0,NA,NA,NA,NA,NA,NA,NA,NA,NA,NA,NA,NA,NA,NA,NA,NA,NA,NA,NA,NA
dfba9,deep,flow.Sequence,1_1_4_0,NA,NA,completion,11198.62,139832,139828.74,139845.34,151043.96,151046,2023-11-04T09:59:52Z,151060.52,"c(""distractor1"", ""distractor2"", ""distractor3"")",Gesundheit,salama,d,NA,NA,NA,NA,NA,NA,NA,NA,NA,NA,NA,NA,NA,NA,NA,NA,NA,NA,NA,NA,NA,NA,NA,NA,NA,NA
dfba9,shallow,flow.Sequence,1_1_4_1,NA,NA,skipped,NA,151046,NA,NA,151043.96,151047,2023-11-04T09:59:52Z,151060.52,"c(""distractor1"", ""distractor2"", ""distractor3"")",Gesundheit,salama,d,NA,NA,NA,NA,NA,NA,NA,NA,NA,NA,NA,NA,NA,NA,NA,NA,NA,NA,NA,NA,NA,NA,NA,NA,NA,NA
dfba9,task,flow.Sequence,1_1_4,NA,NA,completion,11198.62,139832,139828.74,139845.34,151043.96,151047,2023-11-04T09:59:52Z,151060.52,"c(""distractor1"", ""distractor2"", ""distractor3"")",Gesundheit,salama,d,NA,NA,NA,NA,NA,NA,NA,NA,NA,NA,NA,NA,NA,NA,NA,NA,NA,NA,NA,NA,NA,NA,NA,NA,NA,NA
dfba9,Deep Question,html.Page,1_1_5_0_0,NA,NA,form submission,6631.48,151047,151043.96,151060.52,157692,157692,2023-11-04T09:59:58Z,157693,"c(""distractor1"", ""distractor2"", ""distractor3"")",Schatten,kivuli,d,NA,NA,NA,a,NA,NA,NA,NA,NA,NA,NA,NA,NA,NA,NA,NA,NA,NA,NA,NA,NA,NA,NA,NA,NA,NA
dfba9,"""Richtig""-Screen",canvas.Screen,1_1_5_0_1,NA,NA,skipped,NA,157698,NA,NA,157692,157698,2023-11-04T09:59:58Z,157693,"c(""distractor1"", ""distractor2"", ""distractor3"")",Schatten,kivuli,d,NA,NA,NA,NA,NA,NA,NA,NA,NA,NA,NA,NA,NA,NA,NA,NA,NA,NA,NA,NA,NA,NA,NA,NA,NA,NA
dfba9,"""Falsch""-Screen",canvas.Screen,1_1_5_0_2,NA,NA,timeout,4999.46,157704,157684.76,157693,162675.82,162678,2023-11-04T10:00:03Z,162692.46,"c(""distractor1"", ""distractor2"", ""distractor3"")",Schatten,kivuli,d,NA,NA,NA,NA,NA,0,NA,NA,NA,NA,NA,NA,NA,NA,NA,NA,NA,NA,NA,NA,NA,NA,NA,NA,NA,NA
dfba9,deep,flow.Sequence,1_1_5_0,NA,NA,completion,11615.3,151047,151043.96,151060.52,162675.82,162678,2023-11-04T10:00:03Z,162692.46,"c(""distractor1"", ""distractor2"", ""distractor3"")",Schatten,kivuli,d,NA,NA,NA,NA,NA,NA,NA,NA,NA,NA,NA,NA,NA,NA,NA,NA,NA,NA,NA,NA,NA,NA,NA,NA,NA,NA
dfba9,shallow,flow.Sequence,1_1_5_1,NA,NA,skipped,NA,162679,NA,NA,162675.82,162679,2023-11-04T10:00:03Z,162692.46,"c(""distractor1"", ""distractor2"", ""distractor3"")",Schatten,kivuli,d,NA,NA,NA,NA,NA,NA,NA,NA,NA,NA,NA,NA,NA,NA,NA,NA,NA,NA,NA,NA,NA,NA,NA,NA,NA,NA
dfba9,task,flow.Sequence,1_1_5,NA,NA,completion,11615.3,151047,151043.96,151060.52,162675.82,162679,2023-11-04T10:00:03Z,162692.46,"c(""distractor1"", ""distractor2"", ""distractor3"")",Schatten,kivuli,d,NA,NA,NA,NA,NA,NA,NA,NA,NA,NA,NA,NA,NA,NA,NA,NA,NA,NA,NA,NA,NA,NA,NA,NA,NA,NA
dfba9,block,flow.Loop,1_1,NA,NA,completion,93117.12,69558,69558.3,69558.7,162675.82,162680,2023-11-04T10:00:03Z,162692.46,"c(""distractor1"", ""distractor2"", ""distractor3"")",NA,NA,NA,NA,NA,NA,NA,NA,NA,NA,NA,NA,NA,NA,NA,NA,NA,NA,NA,NA,NA,NA,NA,NA,NA,NA,NA,NA,NA
dfba9,Practice,flow.Sequence,1,NA,NA,completion,99770.46,62902,62902.8,62905.36,162675.82,162680,2023-11-04T10:00:03Z,162692.46,NULL,NA,NA,NA,NA,NA,NA,NA,NA,NA,NA,NA,NA,NA,NA,NA,NA,NA,NA,NA,NA,NA,NA,NA,NA,NA,NA,NA,NA,NA
dfba9,Experiment start,canvas.Screen,2,weiter,keypress(q),response,69008.54,162681,162675.82,162692.46,231701,231714,2023-11-04T10:01:12Z,231783.46,NULL,NA,NA,NA,NA,NA,NA,NA,NA,NA,NA,NA,NA,NA,NA,NA,NA,NA,NA,NA,NA,NA,NA,NA,NA,NA,NA,NA,NA,NA
dfba9,deep,flow.Sequence,3_0_0_0_0_0,NA,NA,skipped,NA,231780,NA,NA,231701,231780,2023-11-04T10:01:12Z,231783.46,NULL,Verpackung,ufungaji,s,uhusiano,upimaji,uchunguzi,NA,sdf,NA,0,NA,NA,NA,NA,NA,NA,NA,NA,NA,NA,NA,NA,NA,NA,NA,NA,NA,NA,NA
dfba9,Shallow Question,html.Page,3_0_0_0_0_1_0,NA,NA,form submission,12581.54,231781,231780.82,231783.46,244365,244366,2023-11-04T10:01:25Z,244365.08,NULL,Verpackung,ufungaji,s,uhusiano,upimaji,uchunguzi,uchunguzi,NA,NA,0,NA,NA,NA,NA,NA,NA,NA,NA,NA,NA,NA,NA,NA,NA,NA,NA,NA,NA,NA
dfba9,"""Richtig""-Screen",canvas.Screen,3_0_0_0_0_1_1,NA,NA,skipped,NA,244368,NA,NA,244365,244369,2023-11-04T10:01:25Z,244365.08,NULL,Verpackung,ufungaji,s,uhusiano,upimaji,uchunguzi,NA,sdf,NA,0,NA,NA,NA,NA,NA,NA,NA,NA,NA,NA,NA,NA,NA,NA,NA,NA,NA,NA,NA
dfba9,"""Falsch""-Screen",canvas.Screen,3_0_0_0_0_1_2,NA,NA,timeout,4999.44,244371,244361.2,244365.08,249347.88,249349,2023-11-04T10:01:30Z,249364.52,NULL,Verpackung,ufungaji,s,uhusiano,upimaji,uchunguzi,NA,sdf,0,0,NA,NA,NA,NA,NA,NA,NA,NA,NA,NA,NA,NA,NA,NA,NA,NA,NA,NA,NA
dfba9,shallow,flow.Sequence,3_0_0_0_0_1,NA,NA,completion,17564.42,231781,231780.82,231783.46,249347.88,249350,2023-11-04T10:01:30Z,249364.52,NULL,Verpackung,ufungaji,s,uhusiano,upimaji,uchunguzi,NA,sdf,NA,0,NA,NA,NA,NA,NA,NA,NA,NA,NA,NA,NA,NA,NA,NA,NA,NA,NA,NA,NA
dfba9,task,flow.Sequence,3_0_0_0_0,NA,NA,completion,17564.42,231780,231780.82,231783.46,249347.88,249350,2023-11-04T10:01:30Z,249364.52,NULL,Verpackung,ufungaji,s,uhusiano,upimaji,uchunguzi,NA,sdf,NA,0,NA,NA,NA,NA,NA,NA,NA,NA,NA,NA,NA,NA,NA,NA,NA,NA,NA,NA,NA
dfba9,deep,flow.Sequence,3_0_0_0_1_0,NA,NA,skipped,NA,249351,NA,NA,249347.88,249351,2023-11-04T10:01:30Z,249364.52,NULL,Erneuerung,ukarabati,s,ushawishi,ukalifu,unyonyaji,NA,sdf,NA,0,NA,NA,NA,NA,NA,NA,NA,NA,NA,NA,NA,NA,NA,NA,NA,NA,NA,NA,NA
dfba9,Shallow Question,html.Page,3_0_0_0_1_1_0,NA,NA,form submission,9189.48,249351,249347.88,249364.52,258554,258554,2023-11-04T10:01:39Z,258563.2,NULL,Erneuerung,ukarabati,s,ushawishi,ukalifu,unyonyaji,ukalifu,NA,NA,0,NA,NA,NA,NA,NA,NA,NA,NA,NA,NA,NA,NA,NA,NA,NA,NA,NA,NA,NA
dfba9,"""Richtig""-Screen",canvas.Screen,3_0_0_0_1_1_1,NA,NA,skipped,NA,258557,NA,NA,258554,258557,2023-11-04T10:01:39Z,258563.2,NULL,Erneuerung,ukarabati,s,ushawishi,ukalifu,unyonyaji,NA,sdf,NA,0,NA,NA,NA,NA,NA,NA,NA,NA,NA,NA,NA,NA,NA,NA,NA,NA,NA,NA,NA
dfba9,"""Falsch""-Screen",canvas.Screen,3_0_0_0_1_1_2,NA,NA,timeout,4999.48,258560,258550.06,258563.2,263546.1,263552,2023-11-04T10:01:44Z,263562.68,NULL,Erneuerung,ukarabati,s,ushawishi,ukalifu,unyonyaji,NA,sdf,0,0,NA,NA,NA,NA,NA,NA,NA,NA,NA,NA,NA,NA,NA,NA,NA,NA,NA,NA,NA
dfba9,shallow,flow.Sequence,3_0_0_0_1_1,NA,NA,completion,14181.58,249351,249347.88,249364.52,263546.1,263555,2023-11-04T10:01:44Z,263562.68,NULL,Erneuerung,ukarabati,s,ushawishi,ukalifu,unyonyaji,NA,sdf,NA,0,NA,NA,NA,NA,NA,NA,NA,NA,NA,NA,NA,NA,NA,NA,NA,NA,NA,NA,NA
dfba9,task,flow.Sequence,3_0_0_0_1,NA,NA,completion,14181.58,249350,249347.88,249364.52,263546.1,263556,2023-11-04T10:01:44Z,263562.68,NULL,Erneuerung,ukarabati,s,ushawishi,ukalifu,unyonyaji,NA,sdf,NA,0,NA,NA,NA,NA,NA,NA,NA,NA,NA,NA,NA,NA,NA,NA,NA,NA,NA,NA,NA
dfba9,Deep Question,html.Page,3_0_0_0_2_0_0,NA,NA,form submission,5327.32,263557,263546.1,263562.68,268890,268891,2023-11-04T10:01:49Z,268895.32,NULL,Flexibilität,kubadilika,d,NA,NA,NA,a,NA,NA,0,NA,NA,NA,NA,NA,NA,NA,NA,NA,NA,NA,NA,NA,NA,NA,NA,NA,NA,NA
dfba9,"""Richtig""-Screen",canvas.Screen,3_0_0_0_2_0_1,NA,NA,skipped,NA,268904,NA,NA,268890,268904,2023-11-04T10:01:49Z,268895.32,NULL,Flexibilität,kubadilika,d,NA,NA,NA,NA,sdf,NA,0,NA,NA,NA,NA,NA,NA,NA,NA,NA,NA,NA,NA,NA,NA,NA,NA,NA,NA,NA
dfba9,"""Falsch""-Screen",canvas.Screen,3_0_0_0_2_0_2,NA,NA,timeout,4999.34,268908,268883.14,268895.32,273877.98,273880,2023-11-04T10:01:54Z,273894.66,NULL,Flexibilität,kubadilika,d,NA,NA,NA,NA,sdf,0,0,NA,NA,NA,NA,NA,NA,NA,NA,NA,NA,NA,NA,NA,NA,NA,NA,NA,NA,NA
dfba9,deep,flow.Sequence,3_0_0_0_2_0,NA,NA,completion,10315.3,263557,263546.1,263562.68,273877.98,273880,2023-11-04T10:01:54Z,273894.66,NULL,Flexibilität,kubadilika,d,NA,NA,NA,NA,sdf,NA,0,NA,NA,NA,NA,NA,NA,NA,NA,NA,NA,NA,NA,NA,NA,NA,NA,NA,NA,NA
dfba9,shallow,flow.Sequence,3_0_0_0_2_1,NA,NA,skipped,NA,273880,NA,NA,273877.98,273880,2023-11-04T10:01:54Z,273894.66,NULL,Flexibilität,kubadilika,d,NA,NA,NA,NA,sdf,NA,0,NA,NA,NA,NA,NA,NA,NA,NA,NA,NA,NA,NA,NA,NA,NA,NA,NA,NA,NA
dfba9,task,flow.Sequence,3_0_0_0_2,NA,NA,completion,10315.3,263557,263546.1,263562.68,273877.98,273880,2023-11-04T10:01:54Z,273894.66,NULL,Flexibilität,kubadilika,d,NA,NA,NA,NA,sdf,NA,0,NA,NA,NA,NA,NA,NA,NA,NA,NA,NA,NA,NA,NA,NA,NA,NA,NA,NA,NA
dfba9,deep,flow.Sequence,3_0_0_0_3_0,NA,NA,skipped,NA,273881,NA,NA,273877.98,273881,2023-11-04T10:01:54Z,273894.66,NULL,Wechsel,ugeuzaji,s,utambulisho,kujenga,wasiwasi,NA,sdf,NA,0,NA,NA,NA,NA,NA,NA,NA,NA,NA,NA,NA,NA,NA,NA,NA,NA,NA,NA,NA
dfba9,Shallow Question,html.Page,3_0_0_0_3_1_0,NA,NA,form submission,9347.34,273882,273877.98,273894.66,283242,283243,2023-11-04T10:02:04Z,283243.48,NULL,Wechsel,ugeuzaji,s,utambulisho,kujenga,wasiwasi,wasiwasi,NA,NA,0,NA,NA,NA,NA,NA,NA,NA,NA,NA,NA,NA,NA,NA,NA,NA,NA,NA,NA,NA
dfba9,"""Richtig""-Screen",canvas.Screen,3_0_0_0_3_1_1,NA,NA,skipped,NA,283249,NA,NA,283242,283250,2023-11-04T10:02:04Z,283243.48,NULL,Wechsel,ugeuzaji,s,utambulisho,kujenga,wasiwasi,NA,sdf,NA,0,NA,NA,NA,NA,NA,NA,NA,NA,NA,NA,NA,NA,NA,NA,NA,NA,NA,NA,NA
dfba9,"""Falsch""-Screen",canvas.Screen,3_0_0_0_3_1_2,NA,NA,timeout,4999.26,283255,283236.4,283243.48,288226.18,288228,2023-11-04T10:02:09Z,288242.74,NULL,Wechsel,ugeuzaji,s,utambulisho,kujenga,wasiwasi,NA,sdf,0,0,NA,NA,NA,NA,NA,NA,NA,NA,NA,NA,NA,NA,NA,NA,NA,NA,NA,NA,NA
dfba9,shallow,flow.Sequence,3_0_0_0_3_1,NA,NA,completion,14331.52,273882,273877.98,273894.66,288226.18,288228,2023-11-04T10:02:09Z,288242.74,NULL,Wechsel,ugeuzaji,s,utambulisho,kujenga,wasiwasi,NA,sdf,NA,0,NA,NA,NA,NA,NA,NA,NA,NA,NA,NA,NA,NA,NA,NA,NA,NA,NA,NA,NA
dfba9,task,flow.Sequence,3_0_0_0_3,NA,NA,completion,14331.52,273881,273877.98,273894.66,288226.18,288229,2023-11-04T10:02:09Z,288242.74,NULL,Wechsel,ugeuzaji,s,utambulisho,kujenga,wasiwasi,NA,sdf,NA,0,NA,NA,NA,NA,NA,NA,NA,NA,NA,NA,NA,NA,NA,NA,NA,NA,NA,NA,NA
dfba9,Deep Question,html.Page,3_0_0_0_4_0_0,NA,NA,form submission,5472.26,288230,288226.18,288242.74,293715,293716,2023-11-04T10:02:14Z,293725.4,NULL,Schock,mshtuko,d,NA,NA,NA,a,NA,NA,0,NA,NA,NA,NA,NA,NA,NA,NA,NA,NA,NA,NA,NA,NA,NA,NA,NA,NA,NA
dfba9,"""Richtig""-Screen",canvas.Screen,3_0_0_0_4_0_1,NA,NA,skipped,NA,293720,NA,NA,293715,293720,2023-11-04T10:02:14Z,293725.4,NULL,Schock,mshtuko,d,NA,NA,NA,NA,sdf,NA,0,NA,NA,NA,NA,NA,NA,NA,NA,NA,NA,NA,NA,NA,NA,NA,NA,NA,NA,NA
dfba9,"""Falsch""-Screen",canvas.Screen,3_0_0_0_4_0_2,NA,NA,timeout,4999.46,293723,293711.94,293725.4,298708.18,298710,2023-11-04T10:02:19Z,298724.86,NULL,Schock,mshtuko,d,NA,NA,NA,NA,sdf,0,0,NA,NA,NA,NA,NA,NA,NA,NA,NA,NA,NA,NA,NA,NA,NA,NA,NA,NA,NA
dfba9,deep,flow.Sequence,3_0_0_0_4_0,NA,NA,completion,10465.44,288229,288226.18,288242.74,298708.18,298711,2023-11-04T10:02:19Z,298724.86,NULL,Schock,mshtuko,d,NA,NA,NA,NA,sdf,NA,0,NA,NA,NA,NA,NA,NA,NA,NA,NA,NA,NA,NA,NA,NA,NA,NA,NA,NA,NA
dfba9,shallow,flow.Sequence,3_0_0_0_4_1,NA,NA,skipped,NA,298711,NA,NA,298708.18,298711,2023-11-04T10:02:19Z,298724.86,NULL,Schock,mshtuko,d,NA,NA,NA,NA,sdf,NA,0,NA,NA,NA,NA,NA,NA,NA,NA,NA,NA,NA,NA,NA,NA,NA,NA,NA,NA,NA
dfba9,task,flow.Sequence,3_0_0_0_4,NA,NA,completion,10465.44,288229,288226.18,288242.74,298708.18,298712,2023-11-04T10:02:19Z,298724.86,NULL,Schock,mshtuko,d,NA,NA,NA,NA,sdf,NA,0,NA,NA,NA,NA,NA,NA,NA,NA,NA,NA,NA,NA,NA,NA,NA,NA,NA,NA,NA
dfba9,Deep Question,html.Page,3_0_0_0_5_0_0,NA,NA,form submission,5746.14,298713,298708.18,298724.86,304471,304471,2023-11-04T10:02:25Z,304474,NULL,Atmosphäre,angahewa,d,NA,NA,NA,a,NA,NA,0,NA,NA,NA,NA,NA,NA,NA,NA,NA,NA,NA,NA,NA,NA,NA,NA,NA,NA,NA
dfba9,"""Richtig""-Screen",canvas.Screen,3_0_0_0_5_0_1,NA,NA,skipped,NA,304474,NA,NA,304471,304475,2023-11-04T10:02:25Z,304474,NULL,Atmosphäre,angahewa,d,NA,NA,NA,NA,sdf,NA,0,NA,NA,NA,NA,NA,NA,NA,NA,NA,NA,NA,NA,NA,NA,NA,NA,NA,NA,NA
dfba9,"""Falsch""-Screen",canvas.Screen,3_0_0_0_5_0_2,NA,NA,timeout,4999.28,304478,304465.68,304474,309456.76,309458,2023-11-04T10:02:30Z,309473.28,NULL,Atmosphäre,angahewa,d,NA,NA,NA,NA,sdf,0,0,NA,NA,NA,NA,NA,NA,NA,NA,NA,NA,NA,NA,NA,NA,NA,NA,NA,NA,NA
dfba9,deep,flow.Sequence,3_0_0_0_5_0,NA,NA,completion,10731.9,298713,298708.18,298724.86,309456.76,309459,2023-11-04T10:02:30Z,309473.28,NULL,Atmosphäre,angahewa,d,NA,NA,NA,NA,sdf,NA,0,NA,NA,NA,NA,NA,NA,NA,NA,NA,NA,NA,NA,NA,NA,NA,NA,NA,NA,NA
dfba9,shallow,flow.Sequence,3_0_0_0_5_1,NA,NA,skipped,NA,309460,NA,NA,309456.76,309460,2023-11-04T10:02:30Z,309473.28,NULL,Atmosphäre,angahewa,d,NA,NA,NA,NA,sdf,NA,0,NA,NA,NA,NA,NA,NA,NA,NA,NA,NA,NA,NA,NA,NA,NA,NA,NA,NA,NA
dfba9,task,flow.Sequence,3_0_0_0_5,NA,NA,completion,10731.9,298713,298708.18,298724.86,309456.76,309460,2023-11-04T10:02:30Z,309473.28,NULL,Atmosphäre,angahewa,d,NA,NA,NA,NA,sdf,NA,0,NA,NA,NA,NA,NA,NA,NA,NA,NA,NA,NA,NA,NA,NA,NA,NA,NA,NA,NA
dfba9,Deep Question,html.Page,3_0_0_0_6_0_0,NA,NA,form submission,4826.72,309461,309456.76,309473.28,314300,314301,2023-11-04T10:02:35Z,314306,NULL,Theorie,nadharia,d,NA,NA,NA,a,NA,NA,0,NA,NA,NA,NA,NA,NA,NA,NA,NA,NA,NA,NA,NA,NA,NA,NA,NA,NA,NA
dfba9,"""Richtig""-Screen",canvas.Screen,3_0_0_0_6_0_1,NA,NA,skipped,NA,314304,NA,NA,314300,314305,2023-11-04T10:02:35Z,314306,NULL,Theorie,nadharia,d,NA,NA,NA,NA,sdf,NA,0,NA,NA,NA,NA,NA,NA,NA,NA,NA,NA,NA,NA,NA,NA,NA,NA,NA,NA,NA
dfba9,"""Falsch""-Screen",canvas.Screen,3_0_0_0_6_0_2,NA,NA,timeout,4999.46,314308,314293.32,314306,319288.8,319295,2023-11-04T10:02:40Z,319305.46,NULL,Theorie,nadharia,d,NA,NA,NA,NA,sdf,0,0,NA,NA,NA,NA,NA,NA,NA,NA,NA,NA,NA,NA,NA,NA,NA,NA,NA,NA,NA
dfba9,deep,flow.Sequence,3_0_0_0_6_0,NA,NA,completion,9815.52,309461,309456.76,309473.28,319288.8,319297,2023-11-04T10:02:40Z,319305.46,NULL,Theorie,nadharia,d,NA,NA,NA,NA,sdf,NA,0,NA,NA,NA,NA,NA,NA,NA,NA,NA,NA,NA,NA,NA,NA,NA,NA,NA,NA,NA
dfba9,shallow,flow.Sequence,3_0_0_0_6_1,NA,NA,skipped,NA,319298,NA,NA,319288.8,319298,2023-11-04T10:02:40Z,319305.46,NULL,Theorie,nadharia,d,NA,NA,NA,NA,sdf,NA,0,NA,NA,NA,NA,NA,NA,NA,NA,NA,NA,NA,NA,NA,NA,NA,NA,NA,NA,NA
dfba9,task,flow.Sequence,3_0_0_0_6,NA,NA,completion,9815.52,309461,309456.76,309473.28,319288.8,319299,2023-11-04T10:02:40Z,319305.46,NULL,Theorie,nadharia,d,NA,NA,NA,NA,sdf,NA,0,NA,NA,NA,NA,NA,NA,NA,NA,NA,NA,NA,NA,NA,NA,NA,NA,NA,NA,NA
dfba9,deep,flow.Sequence,3_0_0_0_7_0,NA,NA,skipped,NA,319300,NA,NA,319288.8,319301,2023-11-04T10:02:40Z,319305.46,NULL,Hoffnung,matarajio,s,kutaalamika,uratibu,mvumbuzi,NA,sdf,NA,0,NA,NA,NA,NA,NA,NA,NA,NA,NA,NA,NA,NA,NA,NA,NA,NA,NA,NA,NA
dfba9,Shallow Question,html.Page,3_0_0_0_7_1_0,NA,NA,form submission,8783.54,319301,319288.8,319305.46,328089,328090,2023-11-04T10:02:49Z,328087.54,NULL,Hoffnung,matarajio,s,kutaalamika,uratibu,mvumbuzi,uratibu,NA,NA,0,NA,NA,NA,NA,NA,NA,NA,NA,NA,NA,NA,NA,NA,NA,NA,NA,NA,NA,NA
dfba9,"""Richtig""-Screen",canvas.Screen,3_0_0_0_7_1_1,NA,NA,skipped,NA,328097,NA,NA,328089,328097,2023-11-04T10:02:49Z,328087.54,NULL,Hoffnung,matarajio,s,kutaalamika,uratibu,mvumbuzi,NA,sdf,NA,0,NA,NA,NA,NA,NA,NA,NA,NA,NA,NA,NA,NA,NA,NA,NA,NA,NA,NA,NA
dfba9,"""Falsch""-Screen",canvas.Screen,3_0_0_0_7_1_2,NA,NA,timeout,4999.32,328100,328081.68,328087.54,333070.28,333071,2023-11-04T10:02:54Z,333086.86,NULL,Hoffnung,matarajio,s,kutaalamika,uratibu,mvumbuzi,NA,sdf,0,0,NA,NA,NA,NA,NA,NA,NA,NA,NA,NA,NA,NA,NA,NA,NA,NA,NA,NA,NA
dfba9,shallow,flow.Sequence,3_0_0_0_7_1,NA,NA,completion,13764.82,319301,319288.8,319305.46,333070.28,333072,2023-11-04T10:02:54Z,333086.86,NULL,Hoffnung,matarajio,s,kutaalamika,uratibu,mvumbuzi,NA,sdf,NA,0,NA,NA,NA,NA,NA,NA,NA,NA,NA,NA,NA,NA,NA,NA,NA,NA,NA,NA,NA
dfba9,task,flow.Sequence,3_0_0_0_7,NA,NA,completion,13764.82,319300,319288.8,319305.46,333070.28,333072,2023-11-04T10:02:54Z,333086.86,NULL,Hoffnung,matarajio,s,kutaalamika,uratibu,mvumbuzi,NA,sdf,NA,0,NA,NA,NA,NA,NA,NA,NA,NA,NA,NA,NA,NA,NA,NA,NA,NA,NA,NA,NA
dfba9,block,flow.Loop,3_0_0_0,NA,NA,completion,101286.82,231780,231780.82,231783.46,333070.28,333073,2023-11-04T10:02:54Z,333086.86,NULL,NA,NA,NA,NA,NA,NA,NA,sdf,NA,0,NA,NA,NA,NA,NA,NA,NA,NA,NA,NA,NA,NA,NA,NA,NA,NA,NA,NA,NA
dfba9,weiter,canvas.Screen,3_0_0_1,sdf,keypress(Space),response,1740.14,333073,333070.28,333086.86,334827,334846,2023-11-04T10:02:55Z,334909.52,NULL,NA,NA,NA,NA,NA,NA,NA,sdf,NA,0,NA,NA,NA,NA,NA,NA,NA,NA,NA,NA,NA,NA,NA,NA,NA,NA,NA,NA,NA
dfba9,check continue,flow.Sequence,3_0_0,NA,NA,completion,103043.54,231780,231780.82,231783.46,334827,334847,2023-11-04T10:02:55Z,334909.52,NULL,NA,NA,NA,NA,NA,NA,NA,sdf,NA,0,NA,NA,NA,NA,NA,NA,NA,NA,NA,NA,NA,NA,NA,NA,NA,NA,NA,NA,NA
dfba9,Deep Question,html.Page,3_0_1_0_0_0_0,NA,NA,form submission,14293.48,334910,334909.18,334909.52,349203,349203,2023-11-04T10:03:10Z,349201.6,NULL,Flexibilität,kubadilika,d,NA,NA,NA,a,NA,NA,1,NA,NA,NA,NA,NA,NA,NA,NA,NA,NA,NA,NA,NA,NA,NA,NA,NA,NA,NA
dfba9,"""Richtig""-Screen",canvas.Screen,3_0_1_0_0_0_1,NA,NA,skipped,NA,349206,NA,NA,349203,349206,2023-11-04T10:03:10Z,349201.6,NULL,Flexibilität,kubadilika,d,NA,NA,NA,NA,sdfdsf,NA,1,NA,NA,NA,NA,NA,NA,NA,NA,NA,NA,NA,NA,NA,NA,NA,NA,NA,NA,NA
dfba9,"""Falsch""-Screen",canvas.Screen,3_0_1_0_0_0_2,NA,NA,timeout,4999.26,349208,349199.74,349201.6,354184.26,354186,2023-11-04T10:03:15Z,354200.86,NULL,Flexibilität,kubadilika,d,NA,NA,NA,NA,sdfdsf,0,1,NA,NA,NA,NA,NA,NA,NA,NA,NA,NA,NA,NA,NA,NA,NA,NA,NA,NA,NA
dfba9,deep,flow.Sequence,3_0_1_0_0_0,NA,NA,completion,19274.74,334909,334909.18,334909.52,354184.26,354186,2023-11-04T10:03:15Z,354200.86,NULL,Flexibilität,kubadilika,d,NA,NA,NA,NA,sdfdsf,NA,1,NA,NA,NA,NA,NA,NA,NA,NA,NA,NA,NA,NA,NA,NA,NA,NA,NA,NA,NA
dfba9,shallow,flow.Sequence,3_0_1_0_0_1,NA,NA,skipped,NA,354186,NA,NA,354184.26,354187,2023-11-04T10:03:15Z,354200.86,NULL,Flexibilität,kubadilika,d,NA,NA,NA,NA,sdfdsf,NA,1,NA,NA,NA,NA,NA,NA,NA,NA,NA,NA,NA,NA,NA,NA,NA,NA,NA,NA,NA
dfba9,task,flow.Sequence,3_0_1_0_0,NA,NA,completion,19274.74,334909,334909.18,334909.52,354184.26,354187,2023-11-04T10:03:15Z,354200.86,NULL,Flexibilität,kubadilika,d,NA,NA,NA,NA,sdfdsf,NA,1,NA,NA,NA,NA,NA,NA,NA,NA,NA,NA,NA,NA,NA,NA,NA,NA,NA,NA,NA
dfba9,deep,flow.Sequence,3_0_1_0_1_0,NA,NA,skipped,NA,354188,NA,NA,354184.26,354188,2023-11-04T10:03:15Z,354200.86,NULL,Wechsel,ugeuzaji,s,utambulisho,kujenga,wasiwasi,NA,sdfdsf,NA,1,NA,NA,NA,NA,NA,NA,NA,NA,NA,NA,NA,NA,NA,NA,NA,NA,NA,NA,NA
dfba9,Shallow Question,html.Page,3_0_1_0_1_1_0,NA,NA,form submission,9595.14,354188,354184.26,354200.86,363796,363796,2023-11-04T10:03:24Z,363799.58,NULL,Wechsel,ugeuzaji,s,utambulisho,kujenga,wasiwasi,ugeuzaji,NA,NA,1,NA,NA,NA,NA,NA,NA,NA,NA,NA,NA,NA,NA,NA,NA,NA,NA,NA,NA,NA
dfba9,"""Richtig""-Screen",canvas.Screen,3_0_1_0_1_1_1,NA,NA,timeout,4999.38,363799,363789.6,363799.58,368782.32,368783,2023-11-04T10:03:29Z,368798.96,NULL,Wechsel,ugeuzaji,s,utambulisho,kujenga,wasiwasi,NA,sdfdsf,1,1,NA,NA,NA,NA,NA,NA,NA,NA,NA,NA,NA,NA,NA,NA,NA,NA,NA,NA,NA
dfba9,"""Falsch""-Screen",canvas.Screen,3_0_1_0_1_1_2,NA,NA,skipped,NA,368786,NA,NA,368782.32,368786,2023-11-04T10:03:29Z,368798.96,NULL,Wechsel,ugeuzaji,s,utambulisho,kujenga,wasiwasi,NA,sdfdsf,NA,1,NA,NA,NA,NA,NA,NA,NA,NA,NA,NA,NA,NA,NA,NA,NA,NA,NA,NA,NA
dfba9,shallow,flow.Sequence,3_0_1_0_1_1,NA,NA,completion,14581.46,354188,354184.26,354200.86,368782.32,368787,2023-11-04T10:03:29Z,368798.96,NULL,Wechsel,ugeuzaji,s,utambulisho,kujenga,wasiwasi,NA,sdfdsf,NA,1,NA,NA,NA,NA,NA,NA,NA,NA,NA,NA,NA,NA,NA,NA,NA,NA,NA,NA,NA
dfba9,task,flow.Sequence,3_0_1_0_1,NA,NA,completion,14581.46,354188,354184.26,354200.86,368782.32,368787,2023-11-04T10:03:29Z,368798.96,NULL,Wechsel,ugeuzaji,s,utambulisho,kujenga,wasiwasi,NA,sdfdsf,NA,1,NA,NA,NA,NA,NA,NA,NA,NA,NA,NA,NA,NA,NA,NA,NA,NA,NA,NA,NA
dfba9,deep,flow.Sequence,3_0_1_0_2_0,NA,NA,skipped,NA,368787,NA,NA,368782.32,368787,2023-11-04T10:03:29Z,368798.96,NULL,Verpackung,ufungaji,s,uhusiano,upimaji,uchunguzi,NA,sdfdsf,NA,1,NA,NA,NA,NA,NA,NA,NA,NA,NA,NA,NA,NA,NA,NA,NA,NA,NA,NA,NA
dfba9,Shallow Question,html.Page,3_0_1_0_2_1_0,NA,NA,form submission,17071.04,368788,368782.32,368798.96,385870,385870,2023-11-04T10:03:46Z,385880.1,NULL,Verpackung,ufungaji,s,uhusiano,upimaji,uchunguzi,ufungaji,NA,NA,1,NA,NA,NA,NA,NA,NA,NA,NA,NA,NA,NA,NA,NA,NA,NA,NA,NA,NA,NA
dfba9,"""Richtig""-Screen",canvas.Screen,3_0_1_0_2_1_1,NA,NA,timeout,4999.34,385875,385864.12,385880.1,390862.82,390864,2023-11-04T10:03:51Z,390879.44,NULL,Verpackung,ufungaji,s,uhusiano,upimaji,uchunguzi,NA,sdfdsf,1,1,NA,NA,NA,NA,NA,NA,NA,NA,NA,NA,NA,NA,NA,NA,NA,NA,NA,NA,NA
dfba9,"""Falsch""-Screen",canvas.Screen,3_0_1_0_2_1_2,NA,NA,skipped,NA,390867,NA,NA,390862.82,390867,2023-11-04T10:03:51Z,390879.44,NULL,Verpackung,ufungaji,s,uhusiano,upimaji,uchunguzi,NA,sdfdsf,NA,1,NA,NA,NA,NA,NA,NA,NA,NA,NA,NA,NA,NA,NA,NA,NA,NA,NA,NA,NA
dfba9,shallow,flow.Sequence,3_0_1_0_2_1,NA,NA,completion,22063.86,368788,368782.32,368798.96,390862.82,390867,2023-11-04T10:03:51Z,390879.44,NULL,Verpackung,ufungaji,s,uhusiano,upimaji,uchunguzi,NA,sdfdsf,NA,1,NA,NA,NA,NA,NA,NA,NA,NA,NA,NA,NA,NA,NA,NA,NA,NA,NA,NA,NA
dfba9,task,flow.Sequence,3_0_1_0_2,NA,NA,completion,22063.86,368787,368782.32,368798.96,390862.82,390868,2023-11-04T10:03:51Z,390879.44,NULL,Verpackung,ufungaji,s,uhusiano,upimaji,uchunguzi,NA,sdfdsf,NA,1,NA,NA,NA,NA,NA,NA,NA,NA,NA,NA,NA,NA,NA,NA,NA,NA,NA,NA,NA
dfba9,Deep Question,html.Page,3_0_1_0_3_0_0,NA,NA,form submission,18798.56,390868,390862.82,390879.44,409678,409678,2023-11-04T10:04:10Z,409676.94,NULL,Atmosphäre,angahewa,d,NA,NA,NA,a,NA,NA,1,NA,NA,NA,NA,NA,NA,NA,NA,NA,NA,NA,NA,NA,NA,NA,NA,NA,NA,NA
dfba9,"""Richtig""-Screen",canvas.Screen,3_0_1_0_3_0_1,NA,NA,skipped,NA,409680,NA,NA,409678,409680,2023-11-04T10:04:10Z,409676.94,NULL,Atmosphäre,angahewa,d,NA,NA,NA,NA,sdfdsf,NA,1,NA,NA,NA,NA,NA,NA,NA,NA,NA,NA,NA,NA,NA,NA,NA,NA,NA,NA,NA
dfba9,"""Falsch""-Screen",canvas.Screen,3_0_1_0_3_0_2,NA,NA,timeout,4999.44,409681,409672.32,409676.94,414659.8,414661,2023-11-04T10:04:15Z,414676.38,NULL,Atmosphäre,angahewa,d,NA,NA,NA,NA,sdfdsf,0,1,NA,NA,NA,NA,NA,NA,NA,NA,NA,NA,NA,NA,NA,NA,NA,NA,NA,NA,NA
dfba9,deep,flow.Sequence,3_0_1_0_3_0,NA,NA,completion,23780.36,390868,390862.82,390879.44,414659.8,414662,2023-11-04T10:04:15Z,414676.38,NULL,Atmosphäre,angahewa,d,NA,NA,NA,NA,sdfdsf,NA,1,NA,NA,NA,NA,NA,NA,NA,NA,NA,NA,NA,NA,NA,NA,NA,NA,NA,NA,NA
dfba9,shallow,flow.Sequence,3_0_1_0_3_1,NA,NA,skipped,NA,414662,NA,NA,414659.8,414662,2023-11-04T10:04:15Z,414676.38,NULL,Atmosphäre,angahewa,d,NA,NA,NA,NA,sdfdsf,NA,1,NA,NA,NA,NA,NA,NA,NA,NA,NA,NA,NA,NA,NA,NA,NA,NA,NA,NA,NA
dfba9,task,flow.Sequence,3_0_1_0_3,NA,NA,completion,23780.36,390868,390862.82,390879.44,414659.8,414663,2023-11-04T10:04:15Z,414676.38,NULL,Atmosphäre,angahewa,d,NA,NA,NA,NA,sdfdsf,NA,1,NA,NA,NA,NA,NA,NA,NA,NA,NA,NA,NA,NA,NA,NA,NA,NA,NA,NA,NA
dfba9,Deep Question,html.Page,3_0_1_0_4_0_0,NA,NA,form submission,10677.62,414663,414659.8,414676.38,425354,425354,2023-11-04T10:04:26Z,425358.26,NULL,Schock,mshtuko,d,NA,NA,NA,a,NA,NA,1,NA,NA,NA,NA,NA,NA,NA,NA,NA,NA,NA,NA,NA,NA,NA,NA,NA,NA,NA
dfba9,"""Richtig""-Screen",canvas.Screen,3_0_1_0_4_0_1,NA,NA,skipped,NA,425358,NA,NA,425354,425358,2023-11-04T10:04:26Z,425358.26,NULL,Schock,mshtuko,d,NA,NA,NA,NA,sdfdsf,NA,1,NA,NA,NA,NA,NA,NA,NA,NA,NA,NA,NA,NA,NA,NA,NA,NA,NA,NA,NA
dfba9,"""Falsch""-Screen",canvas.Screen,3_0_1_0_4_0_2,NA,NA,timeout,5002.8,425362,425348.32,425358.26,430341.04,430342,2023-11-04T10:04:31Z,430361.06,NULL,Schock,mshtuko,d,NA,NA,NA,NA,sdfdsf,0,1,NA,NA,NA,NA,NA,NA,NA,NA,NA,NA,NA,NA,NA,NA,NA,NA,NA,NA,NA
dfba9,deep,flow.Sequence,3_0_1_0_4_0,NA,NA,completion,15664.66,414663,414659.8,414676.38,430341.04,430343,2023-11-04T10:04:31Z,430361.06,NULL,Schock,mshtuko,d,NA,NA,NA,NA,sdfdsf,NA,1,NA,NA,NA,NA,NA,NA,NA,NA,NA,NA,NA,NA,NA,NA,NA,NA,NA,NA,NA
dfba9,shallow,flow.Sequence,3_0_1_0_4_1,NA,NA,skipped,NA,430343,NA,NA,430341.04,430343,2023-11-04T10:04:31Z,430361.06,NULL,Schock,mshtuko,d,NA,NA,NA,NA,sdfdsf,NA,1,NA,NA,NA,NA,NA,NA,NA,NA,NA,NA,NA,NA,NA,NA,NA,NA,NA,NA,NA
dfba9,task,flow.Sequence,3_0_1_0_4,NA,NA,completion,15664.66,414663,414659.8,414676.38,430341.04,430344,2023-11-04T10:04:31Z,430361.06,NULL,Schock,mshtuko,d,NA,NA,NA,NA,sdfdsf,NA,1,NA,NA,NA,NA,NA,NA,NA,NA,NA,NA,NA,NA,NA,NA,NA,NA,NA,NA,NA
dfba9,deep,flow.Sequence,3_0_1_0_5_0,NA,NA,skipped,NA,430344,NA,NA,430341.04,430344,2023-11-04T10:04:31Z,430361.06,NULL,Hoffnung,matarajio,s,kutaalamika,uratibu,mvumbuzi,NA,sdfdsf,NA,1,NA,NA,NA,NA,NA,NA,NA,NA,NA,NA,NA,NA,NA,NA,NA,NA,NA,NA,NA
dfba9,Shallow Question,html.Page,3_0_1_0_5_1_0,NA,NA,form submission,14978.94,430344,430341.04,430361.06,445340,445346,2023-11-04T10:04:46Z,445355.74,NULL,Hoffnung,matarajio,s,kutaalamika,uratibu,mvumbuzi,uratibu,NA,NA,1,NA,NA,NA,NA,NA,NA,NA,NA,NA,NA,NA,NA,NA,NA,NA,NA,NA,NA,NA
dfba9,"""Richtig""-Screen",canvas.Screen,3_0_1_0_5_1_1,NA,NA,skipped,NA,445355,NA,NA,445340,445355,2023-11-04T10:04:46Z,445355.74,NULL,Hoffnung,matarajio,s,kutaalamika,uratibu,mvumbuzi,NA,sdfdsf,NA,1,NA,NA,NA,NA,NA,NA,NA,NA,NA,NA,NA,NA,NA,NA,NA,NA,NA,NA,NA
dfba9,"""Falsch""-Screen",canvas.Screen,3_0_1_0_5_1_2,NA,NA,timeout,4999.32,445358,445328.58,445355.74,450338.4,450339,2023-11-04T10:04:51Z,450355.06,NULL,Hoffnung,matarajio,s,kutaalamika,uratibu,mvumbuzi,NA,sdfdsf,0,1,NA,NA,NA,NA,NA,NA,NA,NA,NA,NA,NA,NA,NA,NA,NA,NA,NA,NA,NA
dfba9,shallow,flow.Sequence,3_0_1_0_5_1,NA,NA,completion,19977.34,430344,430341.04,430361.06,450338.4,450339,2023-11-04T10:04:51Z,450355.06,NULL,Hoffnung,matarajio,s,kutaalamika,uratibu,mvumbuzi,NA,sdfdsf,NA,1,NA,NA,NA,NA,NA,NA,NA,NA,NA,NA,NA,NA,NA,NA,NA,NA,NA,NA,NA
dfba9,task,flow.Sequence,3_0_1_0_5,NA,NA,completion,19977.34,430344,430341.04,430361.06,450338.4,450340,2023-11-04T10:04:51Z,450355.06,NULL,Hoffnung,matarajio,s,kutaalamika,uratibu,mvumbuzi,NA,sdfdsf,NA,1,NA,NA,NA,NA,NA,NA,NA,NA,NA,NA,NA,NA,NA,NA,NA,NA,NA,NA,NA
dfba9,Deep Question,html.Page,3_0_1_0_6_0_0,NA,NA,form submission,10067.94,450341,450338.4,450355.06,460423,460424,2023-11-04T10:05:01Z,460420.42,NULL,Theorie,nadharia,d,NA,NA,NA,mutarabi,NA,NA,1,NA,NA,NA,NA,NA,NA,NA,NA,NA,NA,NA,NA,NA,NA,NA,NA,NA,NA,NA
dfba9,"""Richtig""-Screen",canvas.Screen,3_0_1_0_6_0_1,NA,NA,skipped,NA,460427,NA,NA,460423,460427,2023-11-04T10:05:01Z,460420.42,NULL,Theorie,nadharia,d,NA,NA,NA,NA,sdfdsf,NA,1,NA,NA,NA,NA,NA,NA,NA,NA,NA,NA,NA,NA,NA,NA,NA,NA,NA,NA,NA
dfba9,"""Falsch""-Screen",canvas.Screen,3_0_1_0_6_0_2,NA,NA,timeout,4999.42,460431,460420.2,460420.42,465403.16,465404,2023-11-04T10:05:06Z,465419.84,NULL,Theorie,nadharia,d,NA,NA,NA,NA,sdfdsf,0,1,NA,NA,NA,NA,NA,NA,NA,NA,NA,NA,NA,NA,NA,NA,NA,NA,NA,NA,NA
dfba9,deep,flow.Sequence,3_0_1_0_6_0,NA,NA,completion,15048.1,450340,450338.4,450355.06,465403.16,465405,2023-11-04T10:05:06Z,465419.84,NULL,Theorie,nadharia,d,NA,NA,NA,NA,sdfdsf,NA,1,NA,NA,NA,NA,NA,NA,NA,NA,NA,NA,NA,NA,NA,NA,NA,NA,NA,NA,NA
dfba9,shallow,flow.Sequence,3_0_1_0_6_1,NA,NA,skipped,NA,465406,NA,NA,465403.16,465406,2023-11-04T10:05:06Z,465419.84,NULL,Theorie,nadharia,d,NA,NA,NA,NA,sdfdsf,NA,1,NA,NA,NA,NA,NA,NA,NA,NA,NA,NA,NA,NA,NA,NA,NA,NA,NA,NA,NA
dfba9,task,flow.Sequence,3_0_1_0_6,NA,NA,completion,15048.1,450340,450338.4,450355.06,465403.16,465407,2023-11-04T10:05:06Z,465419.84,NULL,Theorie,nadharia,d,NA,NA,NA,NA,sdfdsf,NA,1,NA,NA,NA,NA,NA,NA,NA,NA,NA,NA,NA,NA,NA,NA,NA,NA,NA,NA,NA
dfba9,deep,flow.Sequence,3_0_1_0_7_0,NA,NA,skipped,NA,465408,NA,NA,465403.16,465408,2023-11-04T10:05:06Z,465419.84,NULL,Erneuerung,ukarabati,s,ushawishi,ukalifu,unyonyaji,NA,sdfdsf,NA,1,NA,NA,NA,NA,NA,NA,NA,NA,NA,NA,NA,NA,NA,NA,NA,NA,NA,NA,NA
dfba9,Shallow Question,html.Page,3_0_1_0_7_1_0,NA,NA,form submission,13326.16,465409,465403.16,465419.84,478746,478747,2023-11-04T10:05:19Z,478751.4,NULL,Erneuerung,ukarabati,s,ushawishi,ukalifu,unyonyaji,ukarabati,NA,NA,1,NA,NA,NA,NA,NA,NA,NA,NA,NA,NA,NA,NA,NA,NA,NA,NA,NA,NA,NA
dfba9,"""Richtig""-Screen",canvas.Screen,3_0_1_0_7_1_1,NA,NA,timeout,4999.34,478753,478741.04,478751.4,483734.06,483736,2023-11-04T10:05:24Z,483750.74,NULL,Erneuerung,ukarabati,s,ushawishi,ukalifu,unyonyaji,NA,sdfdsf,1,1,NA,NA,NA,NA,NA,NA,NA,NA,NA,NA,NA,NA,NA,NA,NA,NA,NA,NA,NA
dfba9,"""Falsch""-Screen",canvas.Screen,3_0_1_0_7_1_2,NA,NA,skipped,NA,483744,NA,NA,483734.06,483744,2023-11-04T10:05:24Z,483750.74,NULL,Erneuerung,ukarabati,s,ushawishi,ukalifu,unyonyaji,NA,sdfdsf,NA,1,NA,NA,NA,NA,NA,NA,NA,NA,NA,NA,NA,NA,NA,NA,NA,NA,NA,NA,NA
dfba9,shallow,flow.Sequence,3_0_1_0_7_1,NA,NA,completion,18314.22,465409,465403.16,465419.84,483734.06,483745,2023-11-04T10:05:24Z,483750.74,NULL,Erneuerung,ukarabati,s,ushawishi,ukalifu,unyonyaji,NA,sdfdsf,NA,1,NA,NA,NA,NA,NA,NA,NA,NA,NA,NA,NA,NA,NA,NA,NA,NA,NA,NA,NA
dfba9,task,flow.Sequence,3_0_1_0_7,NA,NA,completion,18314.22,465408,465403.16,465419.84,483734.06,483746,2023-11-04T10:05:24Z,483750.74,NULL,Erneuerung,ukarabati,s,ushawishi,ukalifu,unyonyaji,NA,sdfdsf,NA,1,NA,NA,NA,NA,NA,NA,NA,NA,NA,NA,NA,NA,NA,NA,NA,NA,NA,NA,NA
dfba9,block,flow.Loop,3_0_1_0,NA,NA,completion,148824.54,334909,334909.18,334909.52,483734.06,483747,2023-11-04T10:05:24Z,483750.74,NULL,NA,NA,NA,NA,NA,NA,NA,sdfdsf,NA,1,NA,NA,NA,NA,NA,NA,NA,NA,NA,NA,NA,NA,NA,NA,NA,NA,NA,NA,NA
dfba9,weiter,canvas.Screen,3_0_1_1,sdf,keypress(Space),response,2170.26,483747,483734.06,483750.74,485921,485932,2023-11-04T10:05:26Z,485997.24,NULL,NA,NA,NA,NA,NA,NA,NA,sdfdsf,NA,1,NA,NA,NA,NA,NA,NA,NA,NA,NA,NA,NA,NA,NA,NA,NA,NA,NA,NA,NA
dfba9,check continue,flow.Sequence,3_0_1,NA,NA,completion,151011.48,334909,334909.18,334909.52,485921,485933,2023-11-04T10:05:26Z,485997.24,NULL,NA,NA,NA,NA,NA,NA,NA,sdfdsf,NA,1,NA,NA,NA,NA,NA,NA,NA,NA,NA,NA,NA,NA,NA,NA,NA,NA,NA,NA,NA
dfba9,Deep Question,html.Page,3_0_2_0_0_0_0,NA,NA,form submission,14524.76,485997,485996.98,485997.24,500522,500523,2023-11-04T10:05:41Z,500521.2,NULL,Atmosphäre,angahewa,d,NA,NA,NA,heiwa,NA,NA,2,NA,NA,NA,NA,NA,NA,NA,NA,NA,NA,NA,NA,NA,NA,NA,NA,NA,NA,NA
dfba9,"""Richtig""-Screen",canvas.Screen,3_0_2_0_0_0_1,NA,NA,skipped,NA,500525,NA,NA,500522,500525,2023-11-04T10:05:41Z,500521.2,NULL,Atmosphäre,angahewa,d,NA,NA,NA,NA,sdf,NA,2,NA,NA,NA,NA,NA,NA,NA,NA,NA,NA,NA,NA,NA,NA,NA,NA,NA,NA,NA
dfba9,"""Falsch""-Screen",canvas.Screen,3_0_2_0_0_0_2,NA,NA,timeout,4993.38,500527,500520.92,500521.2,505497.98,505503,2023-11-04T10:05:46Z,505514.58,NULL,Atmosphäre,angahewa,d,NA,NA,NA,NA,sdf,0,2,NA,NA,NA,NA,NA,NA,NA,NA,NA,NA,NA,NA,NA,NA,NA,NA,NA,NA,NA
dfba9,deep,flow.Sequence,3_0_2_0_0_0,NA,NA,completion,19500.74,485997,485996.98,485997.24,505497.98,505506,2023-11-04T10:05:46Z,505514.58,NULL,Atmosphäre,angahewa,d,NA,NA,NA,NA,sdf,NA,2,NA,NA,NA,NA,NA,NA,NA,NA,NA,NA,NA,NA,NA,NA,NA,NA,NA,NA,NA
dfba9,shallow,flow.Sequence,3_0_2_0_0_1,NA,NA,skipped,NA,505506,NA,NA,505497.98,505507,2023-11-04T10:05:46Z,505514.58,NULL,Atmosphäre,angahewa,d,NA,NA,NA,NA,sdf,NA,2,NA,NA,NA,NA,NA,NA,NA,NA,NA,NA,NA,NA,NA,NA,NA,NA,NA,NA,NA
dfba9,task,flow.Sequence,3_0_2_0_0,NA,NA,completion,19500.74,485997,485996.98,485997.24,505497.98,505508,2023-11-04T10:05:46Z,505514.58,NULL,Atmosphäre,angahewa,d,NA,NA,NA,NA,sdf,NA,2,NA,NA,NA,NA,NA,NA,NA,NA,NA,NA,NA,NA,NA,NA,NA,NA,NA,NA,NA
dfba9,Deep Question,html.Page,3_0_2_0_1_0_0,NA,NA,form submission,19517.42,505509,505497.98,505514.58,525032,525033,2023-11-04T10:06:06Z,525045.36,NULL,Schock,mshtuko,d,NA,NA,NA,karabiti,NA,NA,2,NA,NA,NA,NA,NA,NA,NA,NA,NA,NA,NA,NA,NA,NA,NA,NA,NA,NA,NA
dfba9,"""Richtig""-Screen",canvas.Screen,3_0_2_0_1_0_1,NA,NA,skipped,NA,525039,NA,NA,525032,525039,2023-11-04T10:06:06Z,525045.36,NULL,Schock,mshtuko,d,NA,NA,NA,NA,sdf,NA,2,NA,NA,NA,NA,NA,NA,NA,NA,NA,NA,NA,NA,NA,NA,NA,NA,NA,NA,NA
dfba9,"""Falsch""-Screen",canvas.Screen,3_0_2_0_1_0_2,NA,NA,timeout,4999.34,525043,525031.28,525045.36,530028.1,530029,2023-11-04T10:06:11Z,530044.7,NULL,Schock,mshtuko,d,NA,NA,NA,NA,sdf,0,2,NA,NA,NA,NA,NA,NA,NA,NA,NA,NA,NA,NA,NA,NA,NA,NA,NA,NA,NA
dfba9,deep,flow.Sequence,3_0_2_0_1_0,NA,NA,completion,24513.52,505508,505497.98,505514.58,530028.1,530030,2023-11-04T10:06:11Z,530044.7,NULL,Schock,mshtuko,d,NA,NA,NA,NA,sdf,NA,2,NA,NA,NA,NA,NA,NA,NA,NA,NA,NA,NA,NA,NA,NA,NA,NA,NA,NA,NA
dfba9,shallow,flow.Sequence,3_0_2_0_1_1,NA,NA,skipped,NA,530030,NA,NA,530028.1,530030,2023-11-04T10:06:11Z,530044.7,NULL,Schock,mshtuko,d,NA,NA,NA,NA,sdf,NA,2,NA,NA,NA,NA,NA,NA,NA,NA,NA,NA,NA,NA,NA,NA,NA,NA,NA,NA,NA
dfba9,task,flow.Sequence,3_0_2_0_1,NA,NA,completion,24513.52,505508,505497.98,505514.58,530028.1,530031,2023-11-04T10:06:11Z,530044.7,NULL,Schock,mshtuko,d,NA,NA,NA,NA,sdf,NA,2,NA,NA,NA,NA,NA,NA,NA,NA,NA,NA,NA,NA,NA,NA,NA,NA,NA,NA,NA
dfba9,deep,flow.Sequence,3_0_2_0_2_0,NA,NA,skipped,NA,530031,NA,NA,530028.1,530031,2023-11-04T10:06:11Z,530044.7,NULL,Wechsel,ugeuzaji,s,utambulisho,kujenga,wasiwasi,NA,sdf,NA,2,NA,NA,NA,NA,NA,NA,NA,NA,NA,NA,NA,NA,NA,NA,NA,NA,NA,NA,NA
dfba9,Shallow Question,html.Page,3_0_2_0_2_1_0,NA,NA,form submission,10919.3,530031,530028.1,530044.7,540964,540964,2023-11-04T10:06:22Z,540959.92,NULL,Wechsel,ugeuzaji,s,utambulisho,kujenga,wasiwasi,ugeuzaji,NA,NA,2,NA,NA,NA,NA,NA,NA,NA,NA,NA,NA,NA,NA,NA,NA,NA,NA,NA,NA,NA
dfba9,"""Richtig""-Screen",canvas.Screen,3_0_2_0_2_1_1,NA,NA,timeout,4999.3999999999,540969,540957.12,540959.92,545942.76,545944,2023-11-04T10:06:26Z,545959.32,NULL,Wechsel,ugeuzaji,s,utambulisho,kujenga,wasiwasi,NA,sdf,1,2,NA,NA,NA,NA,NA,NA,NA,NA,NA,NA,NA,NA,NA,NA,NA,NA,NA,NA,NA
dfba9,"""Falsch""-Screen",canvas.Screen,3_0_2_0_2_1_2,NA,NA,skipped,NA,545952,NA,NA,545942.76,545952,2023-11-04T10:06:27Z,545959.32,NULL,Wechsel,ugeuzaji,s,utambulisho,kujenga,wasiwasi,NA,sdf,NA,2,NA,NA,NA,NA,NA,NA,NA,NA,NA,NA,NA,NA,NA,NA,NA,NA,NA,NA,NA
dfba9,shallow,flow.Sequence,3_0_2_0_2_1,NA,NA,completion,15898.06,530031,530028.1,530044.7,545942.76,545953,2023-11-04T10:06:27Z,545959.32,NULL,Wechsel,ugeuzaji,s,utambulisho,kujenga,wasiwasi,NA,sdf,NA,2,NA,NA,NA,NA,NA,NA,NA,NA,NA,NA,NA,NA,NA,NA,NA,NA,NA,NA,NA
dfba9,task,flow.Sequence,3_0_2_0_2,NA,NA,completion,15898.06,530031,530028.1,530044.7,545942.76,545954,2023-11-04T10:06:27Z,545959.32,NULL,Wechsel,ugeuzaji,s,utambulisho,kujenga,wasiwasi,NA,sdf,NA,2,NA,NA,NA,NA,NA,NA,NA,NA,NA,NA,NA,NA,NA,NA,NA,NA,NA,NA,NA
dfba9,deep,flow.Sequence,3_0_2_0_3_0,NA,NA,skipped,NA,545954,NA,NA,545942.76,545954,2023-11-04T10:06:27Z,545959.32,NULL,Verpackung,ufungaji,s,uhusiano,upimaji,uchunguzi,NA,sdf,NA,2,NA,NA,NA,NA,NA,NA,NA,NA,NA,NA,NA,NA,NA,NA,NA,NA,NA,NA,NA
dfba9,Shallow Question,html.Page,3_0_2_0_3_1_0,NA,NA,form submission,14872.68,545955,545942.76,545959.32,560832,560834,2023-11-04T10:06:41Z,560840.82,NULL,Verpackung,ufungaji,s,uhusiano,upimaji,uchunguzi,ufungaji,NA,NA,2,NA,NA,NA,NA,NA,NA,NA,NA,NA,NA,NA,NA,NA,NA,NA,NA,NA,NA,NA
dfba9,"""Richtig""-Screen",canvas.Screen,3_0_2_0_3_1_1,NA,NA,timeout,4999.3,560840,560828,560840.82,565823.42,565825,2023-11-04T10:06:46Z,565840.12,NULL,Verpackung,ufungaji,s,uhusiano,upimaji,uchunguzi,NA,sdf,1,2,NA,NA,NA,NA,NA,NA,NA,NA,NA,NA,NA,NA,NA,NA,NA,NA,NA,NA,NA
dfba9,"""Falsch""-Screen",canvas.Screen,3_0_2_0_3_1_2,NA,NA,skipped,NA,565827,NA,NA,565823.42,565828,2023-11-04T10:06:46Z,565840.12,NULL,Verpackung,ufungaji,s,uhusiano,upimaji,uchunguzi,NA,sdf,NA,2,NA,NA,NA,NA,NA,NA,NA,NA,NA,NA,NA,NA,NA,NA,NA,NA,NA,NA,NA
dfba9,shallow,flow.Sequence,3_0_2_0_3_1,NA,NA,completion,19864.1,545954,545942.76,545959.32,565823.42,565828,2023-11-04T10:06:46Z,565840.12,NULL,Verpackung,ufungaji,s,uhusiano,upimaji,uchunguzi,NA,sdf,NA,2,NA,NA,NA,NA,NA,NA,NA,NA,NA,NA,NA,NA,NA,NA,NA,NA,NA,NA,NA
dfba9,task,flow.Sequence,3_0_2_0_3,NA,NA,completion,19864.1,545954,545942.76,545959.32,565823.42,565828,2023-11-04T10:06:46Z,565840.12,NULL,Verpackung,ufungaji,s,uhusiano,upimaji,uchunguzi,NA,sdf,NA,2,NA,NA,NA,NA,NA,NA,NA,NA,NA,NA,NA,NA,NA,NA,NA,NA,NA,NA,NA
dfba9,Deep Question,html.Page,3_0_2_0_4_0_0,NA,NA,form submission,12621.88,565828,565823.42,565840.12,578462,578462,2023-11-04T10:06:59Z,578471.76,NULL,Flexibilität,kubadilika,d,NA,NA,NA,ungowasi,NA,NA,2,NA,NA,NA,NA,NA,NA,NA,NA,NA,NA,NA,NA,NA,NA,NA,NA,NA,NA,NA
dfba9,"""Richtig""-Screen",canvas.Screen,3_0_2_0_4_0_1,NA,NA,skipped,NA,578465,NA,NA,578462,578465,2023-11-04T10:06:59Z,578471.76,NULL,Flexibilität,kubadilika,d,NA,NA,NA,NA,sdf,NA,2,NA,NA,NA,NA,NA,NA,NA,NA,NA,NA,NA,NA,NA,NA,NA,NA,NA,NA,NA
dfba9,"""Falsch""-Screen",canvas.Screen,3_0_2_0_4_0_2,NA,NA,timeout,4999.3,578468,578461.5,578471.76,583454.44,583455,2023-11-04T10:07:04Z,583471.06,NULL,Flexibilität,kubadilika,d,NA,NA,NA,NA,sdf,0,2,NA,NA,NA,NA,NA,NA,NA,NA,NA,NA,NA,NA,NA,NA,NA,NA,NA,NA,NA
dfba9,deep,flow.Sequence,3_0_2_0_4_0,NA,NA,completion,17614.32,565828,565823.42,565840.12,583454.44,583455,2023-11-04T10:07:04Z,583471.06,NULL,Flexibilität,kubadilika,d,NA,NA,NA,NA,sdf,NA,2,NA,NA,NA,NA,NA,NA,NA,NA,NA,NA,NA,NA,NA,NA,NA,NA,NA,NA,NA
dfba9,shallow,flow.Sequence,3_0_2_0_4_1,NA,NA,skipped,NA,583455,NA,NA,583454.44,583455,2023-11-04T10:07:04Z,583471.06,NULL,Flexibilität,kubadilika,d,NA,NA,NA,NA,sdf,NA,2,NA,NA,NA,NA,NA,NA,NA,NA,NA,NA,NA,NA,NA,NA,NA,NA,NA,NA,NA
dfba9,task,flow.Sequence,3_0_2_0_4,NA,NA,completion,17614.32,565828,565823.42,565840.12,583454.44,583456,2023-11-04T10:07:04Z,583471.06,NULL,Flexibilität,kubadilika,d,NA,NA,NA,NA,sdf,NA,2,NA,NA,NA,NA,NA,NA,NA,NA,NA,NA,NA,NA,NA,NA,NA,NA,NA,NA,NA
dfba9,Deep Question,html.Page,3_0_2_0_5_0_0,NA,NA,form submission,23383.94,583456,583454.44,583471.06,606855,606855,2023-11-04T10:07:27Z,606854.12,NULL,Theorie,nadharia,d,NA,NA,NA,wasi,NA,NA,2,NA,NA,NA,NA,NA,NA,NA,NA,NA,NA,NA,NA,NA,NA,NA,NA,NA,NA,NA
dfba9,"""Richtig""-Screen",canvas.Screen,3_0_2_0_5_0_1,NA,NA,skipped,NA,606857,NA,NA,606855,606858,2023-11-04T10:07:27Z,606854.12,NULL,Theorie,nadharia,d,NA,NA,NA,NA,sdf,NA,2,NA,NA,NA,NA,NA,NA,NA,NA,NA,NA,NA,NA,NA,NA,NA,NA,NA,NA,NA
dfba9,"""Falsch""-Screen",canvas.Screen,3_0_2_0_5_0_2,NA,NA,timeout,4996.72,606860,606853.76,606854.12,611834.16,611835,2023-11-04T10:07:32Z,611850.84,NULL,Theorie,nadharia,d,NA,NA,NA,NA,sdf,0,2,NA,NA,NA,NA,NA,NA,NA,NA,NA,NA,NA,NA,NA,NA,NA,NA,NA,NA,NA
dfba9,deep,flow.Sequence,3_0_2_0_5_0,NA,NA,completion,28363.1,583456,583454.44,583471.06,611834.16,611836,2023-11-04T10:07:32Z,611850.84,NULL,Theorie,nadharia,d,NA,NA,NA,NA,sdf,NA,2,NA,NA,NA,NA,NA,NA,NA,NA,NA,NA,NA,NA,NA,NA,NA,NA,NA,NA,NA
dfba9,shallow,flow.Sequence,3_0_2_0_5_1,NA,NA,skipped,NA,611836,NA,NA,611834.16,611836,2023-11-04T10:07:32Z,611850.84,NULL,Theorie,nadharia,d,NA,NA,NA,NA,sdf,NA,2,NA,NA,NA,NA,NA,NA,NA,NA,NA,NA,NA,NA,NA,NA,NA,NA,NA,NA,NA
dfba9,task,flow.Sequence,3_0_2_0_5,NA,NA,completion,28363.1,583456,583454.44,583471.06,611834.16,611836,2023-11-04T10:07:32Z,611850.84,NULL,Theorie,nadharia,d,NA,NA,NA,NA,sdf,NA,2,NA,NA,NA,NA,NA,NA,NA,NA,NA,NA,NA,NA,NA,NA,NA,NA,NA,NA,NA
dfba9,deep,flow.Sequence,3_0_2_0_6_0,NA,NA,skipped,NA,611837,NA,NA,611834.16,611837,2023-11-04T10:07:32Z,611850.84,NULL,Hoffnung,matarajio,s,kutaalamika,uratibu,mvumbuzi,NA,sdf,NA,2,NA,NA,NA,NA,NA,NA,NA,NA,NA,NA,NA,NA,NA,NA,NA,NA,NA,NA,NA
dfba9,Shallow Question,html.Page,3_0_2_0_6_1_0,NA,NA,form submission,18749.16,611837,611834.16,611850.84,630600,630604,2023-11-04T10:07:51Z,630614.98,NULL,Hoffnung,matarajio,s,kutaalamika,uratibu,mvumbuzi,matarajio,NA,NA,2,NA,NA,NA,NA,NA,NA,NA,NA,NA,NA,NA,NA,NA,NA,NA,NA,NA,NA,NA
dfba9,"""Richtig""-Screen",canvas.Screen,3_0_2_0_6_1_1,NA,NA,timeout,4999.36,630612,630590.98,630614.98,635597.78,635599,2023-11-04T10:07:56Z,635614.34,NULL,Hoffnung,matarajio,s,kutaalamika,uratibu,mvumbuzi,NA,sdf,1,2,NA,NA,NA,NA,NA,NA,NA,NA,NA,NA,NA,NA,NA,NA,NA,NA,NA,NA,NA
dfba9,"""Falsch""-Screen",canvas.Screen,3_0_2_0_6_1_2,NA,NA,skipped,NA,635607,NA,NA,635597.78,635607,2023-11-04T10:07:56Z,635614.34,NULL,Hoffnung,matarajio,s,kutaalamika,uratibu,mvumbuzi,NA,sdf,NA,2,NA,NA,NA,NA,NA,NA,NA,NA,NA,NA,NA,NA,NA,NA,NA,NA,NA,NA,NA
dfba9,shallow,flow.Sequence,3_0_2_0_6_1,NA,NA,completion,23746.94,611837,611834.16,611850.84,635597.78,635609,2023-11-04T10:07:56Z,635614.34,NULL,Hoffnung,matarajio,s,kutaalamika,uratibu,mvumbuzi,NA,sdf,NA,2,NA,NA,NA,NA,NA,NA,NA,NA,NA,NA,NA,NA,NA,NA,NA,NA,NA,NA,NA
dfba9,task,flow.Sequence,3_0_2_0_6,NA,NA,completion,23746.94,611836,611834.16,611850.84,635597.78,635609,2023-11-04T10:07:56Z,635614.34,NULL,Hoffnung,matarajio,s,kutaalamika,uratibu,mvumbuzi,NA,sdf,NA,2,NA,NA,NA,NA,NA,NA,NA,NA,NA,NA,NA,NA,NA,NA,NA,NA,NA,NA,NA
dfba9,deep,flow.Sequence,3_0_2_0_7_0,NA,NA,skipped,NA,635609,NA,NA,635597.78,635610,2023-11-04T10:07:56Z,635614.34,NULL,Erneuerung,ukarabati,s,ushawishi,ukalifu,unyonyaji,NA,sdf,NA,2,NA,NA,NA,NA,NA,NA,NA,NA,NA,NA,NA,NA,NA,NA,NA,NA,NA,NA,NA
dfba9,Shallow Question,html.Page,3_0_2_0_7_1_0,NA,NA,form submission,23018.66,635611,635597.78,635614.34,658633,658634,2023-11-04T10:08:19Z,658644.72,NULL,Erneuerung,ukarabati,s,ushawishi,ukalifu,unyonyaji,ukalifu,NA,NA,2,NA,NA,NA,NA,NA,NA,NA,NA,NA,NA,NA,NA,NA,NA,NA,NA,NA,NA,NA
dfba9,"""Richtig""-Screen",canvas.Screen,3_0_2_0_7_1_1,NA,NA,skipped,NA,658640,NA,NA,658633,658640,2023-11-04T10:08:19Z,658644.72,NULL,Erneuerung,ukarabati,s,ushawishi,ukalifu,unyonyaji,NA,sdf,NA,2,NA,NA,NA,NA,NA,NA,NA,NA,NA,NA,NA,NA,NA,NA,NA,NA,NA,NA,NA
dfba9,"""Falsch""-Screen",canvas.Screen,3_0_2_0_7_1_2,NA,NA,timeout,4999.4,658644,658626.9,658644.72,663627.44,663629,2023-11-04T10:08:24Z,663644.12,NULL,Erneuerung,ukarabati,s,ushawishi,ukalifu,unyonyaji,NA,sdf,0,2,NA,NA,NA,NA,NA,NA,NA,NA,NA,NA,NA,NA,NA,NA,NA,NA,NA,NA,NA
dfba9,shallow,flow.Sequence,3_0_2_0_7_1,NA,NA,completion,28013.1,635610,635597.78,635614.34,663627.44,663630,2023-11-04T10:08:24Z,663644.12,NULL,Erneuerung,ukarabati,s,ushawishi,ukalifu,unyonyaji,NA,sdf,NA,2,NA,NA,NA,NA,NA,NA,NA,NA,NA,NA,NA,NA,NA,NA,NA,NA,NA,NA,NA
dfba9,task,flow.Sequence,3_0_2_0_7,NA,NA,completion,28013.1,635609,635597.78,635614.34,663627.44,663631,2023-11-04T10:08:24Z,663644.12,NULL,Erneuerung,ukarabati,s,ushawishi,ukalifu,unyonyaji,NA,sdf,NA,2,NA,NA,NA,NA,NA,NA,NA,NA,NA,NA,NA,NA,NA,NA,NA,NA,NA,NA,NA
dfba9,block,flow.Loop,3_0_2_0,NA,NA,completion,177630.2,485997,485996.98,485997.24,663627.44,663632,2023-11-04T10:08:24Z,663644.12,NULL,NA,NA,NA,NA,NA,NA,NA,sdf,NA,2,NA,NA,NA,NA,NA,NA,NA,NA,NA,NA,NA,NA,NA,NA,NA,NA,NA,NA,NA
dfba9,weiter,canvas.Screen,3_0_2_1,sdf,keypress(Space),response,1337.88,663633,663627.44,663644.12,664982,664999,2023-11-04T10:08:26Z,665069.26,NULL,NA,NA,NA,NA,NA,NA,NA,sdf,NA,2,NA,NA,NA,NA,NA,NA,NA,NA,NA,NA,NA,NA,NA,NA,NA,NA,NA,NA,NA
dfba9,check continue,flow.Sequence,3_0_2,NA,NA,completion,178984.76,485997,485996.98,485997.24,664982,664999,2023-11-04T10:08:26Z,665069.26,NULL,NA,NA,NA,NA,NA,NA,NA,sdf,NA,2,NA,NA,NA,NA,NA,NA,NA,NA,NA,NA,NA,NA,NA,NA,NA,NA,NA,NA,NA
dfba9,Deep Question,html.Page,3_0_3_0_0_0_0,NA,NA,form submission,16928.74,665068,665068.92,665069.26,681998,682000,2023-11-04T10:08:43Z,681997.7,NULL,Flexibilität,kubadilika,d,NA,NA,NA,kubaka,NA,NA,3,NA,NA,NA,NA,NA,NA,NA,NA,NA,NA,NA,NA,NA,NA,NA,NA,NA,NA,NA
dfba9,"""Richtig""-Screen",canvas.Screen,3_0_3_0_0_0_1,NA,NA,skipped,NA,682001,NA,NA,681998,682001,2023-11-04T10:08:43Z,681997.7,NULL,Flexibilität,kubadilika,d,NA,NA,NA,NA,qt,NA,3,NA,NA,NA,NA,NA,NA,NA,NA,NA,NA,NA,NA,NA,NA,NA,NA,NA,NA,NA
dfba9,"""Falsch""-Screen",canvas.Screen,3_0_3_0_0_0_2,NA,NA,timeout,4993.3200000001,682004,681997.34,681997.7,686974.48,686977,2023-11-04T10:08:48Z,686991.02,NULL,Flexibilität,kubadilika,d,NA,NA,NA,NA,qt,0,3,NA,NA,NA,NA,NA,NA,NA,NA,NA,NA,NA,NA,NA,NA,NA,NA,NA,NA,NA
dfba9,deep,flow.Sequence,3_0_3_0_0_0,NA,NA,completion,21905.22,665068,665068.92,665069.26,686974.48,686977,2023-11-04T10:08:48Z,686991.02,NULL,Flexibilität,kubadilika,d,NA,NA,NA,NA,qt,NA,3,NA,NA,NA,NA,NA,NA,NA,NA,NA,NA,NA,NA,NA,NA,NA,NA,NA,NA,NA
dfba9,shallow,flow.Sequence,3_0_3_0_0_1,NA,NA,skipped,NA,686977,NA,NA,686974.48,686977,2023-11-04T10:08:48Z,686991.02,NULL,Flexibilität,kubadilika,d,NA,NA,NA,NA,qt,NA,3,NA,NA,NA,NA,NA,NA,NA,NA,NA,NA,NA,NA,NA,NA,NA,NA,NA,NA,NA
dfba9,task,flow.Sequence,3_0_3_0_0,NA,NA,completion,21905.22,665068,665068.92,665069.26,686974.48,686977,2023-11-04T10:08:48Z,686991.02,NULL,Flexibilität,kubadilika,d,NA,NA,NA,NA,qt,NA,3,NA,NA,NA,NA,NA,NA,NA,NA,NA,NA,NA,NA,NA,NA,NA,NA,NA,NA,NA
dfba9,deep,flow.Sequence,3_0_3_0_1_0,NA,NA,skipped,NA,686978,NA,NA,686974.48,686978,2023-11-04T10:08:48Z,686991.02,NULL,Verpackung,ufungaji,s,uhusiano,upimaji,uchunguzi,NA,qt,NA,3,NA,NA,NA,NA,NA,NA,NA,NA,NA,NA,NA,NA,NA,NA,NA,NA,NA,NA,NA
dfba9,Shallow Question,html.Page,3_0_3_0_1_1_0,NA,NA,form submission,12858.98,686978,686974.48,686991.02,699850,699852,2023-11-04T10:09:00Z,699855.98,NULL,Verpackung,ufungaji,s,uhusiano,upimaji,uchunguzi,uchunguzi,NA,NA,3,NA,NA,NA,NA,NA,NA,NA,NA,NA,NA,NA,NA,NA,NA,NA,NA,NA,NA,NA
dfba9,"""Richtig""-Screen",canvas.Screen,3_0_3_0_1_1_1,NA,NA,skipped,NA,699859,NA,NA,699850,699859,2023-11-04T10:09:00Z,699855.98,NULL,Verpackung,ufungaji,s,uhusiano,upimaji,uchunguzi,NA,qt,NA,3,NA,NA,NA,NA,NA,NA,NA,NA,NA,NA,NA,NA,NA,NA,NA,NA,NA,NA,NA
dfba9,"""Falsch""-Screen",canvas.Screen,3_0_3_0_1_1_2,NA,NA,timeout,4999.4,699862,699843.52,699855.98,704838.8,704840,2023-11-04T10:09:05Z,704855.38,NULL,Verpackung,ufungaji,s,uhusiano,upimaji,uchunguzi,NA,qt,0,3,NA,NA,NA,NA,NA,NA,NA,NA,NA,NA,NA,NA,NA,NA,NA,NA,NA,NA,NA
dfba9,shallow,flow.Sequence,3_0_3_0_1_1,NA,NA,completion,17847.78,686978,686974.48,686991.02,704838.8,704840,2023-11-04T10:09:05Z,704855.38,NULL,Verpackung,ufungaji,s,uhusiano,upimaji,uchunguzi,NA,qt,NA,3,NA,NA,NA,NA,NA,NA,NA,NA,NA,NA,NA,NA,NA,NA,NA,NA,NA,NA,NA
dfba9,task,flow.Sequence,3_0_3_0_1,NA,NA,completion,17847.78,686978,686974.48,686991.02,704838.8,704841,2023-11-04T10:09:05Z,704855.38,NULL,Verpackung,ufungaji,s,uhusiano,upimaji,uchunguzi,NA,qt,NA,3,NA,NA,NA,NA,NA,NA,NA,NA,NA,NA,NA,NA,NA,NA,NA,NA,NA,NA,NA
dfba9,deep,flow.Sequence,3_0_3_0_2_0,NA,NA,skipped,NA,704841,NA,NA,704838.8,704842,2023-11-04T10:09:05Z,704855.38,NULL,Erneuerung,ukarabati,s,ushawishi,ukalifu,unyonyaji,NA,qt,NA,3,NA,NA,NA,NA,NA,NA,NA,NA,NA,NA,NA,NA,NA,NA,NA,NA,NA,NA,NA
dfba9,Shallow Question,html.Page,3_0_3_0_2_1_0,NA,NA,form submission,21630.62,704842,704838.8,704855.38,726486,726487,2023-11-04T10:09:27Z,726502.28,NULL,Erneuerung,ukarabati,s,ushawishi,ukalifu,unyonyaji,ukalifu,NA,NA,3,NA,NA,NA,NA,NA,NA,NA,NA,NA,NA,NA,NA,NA,NA,NA,NA,NA,NA,NA
dfba9,"""Richtig""-Screen",canvas.Screen,3_0_3_0_2_1_1,NA,NA,skipped,NA,726494,NA,NA,726486,726494,2023-11-04T10:09:27Z,726502.28,NULL,Erneuerung,ukarabati,s,ushawishi,ukalifu,unyonyaji,NA,qt,NA,3,NA,NA,NA,NA,NA,NA,NA,NA,NA,NA,NA,NA,NA,NA,NA,NA,NA,NA,NA
dfba9,"""Falsch""-Screen",canvas.Screen,3_0_3_0_2_1_2,NA,NA,timeout,4999.64,726499,726480.82,726502.28,731485.48,731487,2023-11-04T10:09:32Z,731501.92,NULL,Erneuerung,ukarabati,s,ushawishi,ukalifu,unyonyaji,NA,qt,0,3,NA,NA,NA,NA,NA,NA,NA,NA,NA,NA,NA,NA,NA,NA,NA,NA,NA,NA,NA
dfba9,shallow,flow.Sequence,3_0_3_0_2_1,NA,NA,completion,26630.1,704842,704838.8,704855.38,731485.48,731489,2023-11-04T10:09:32Z,731501.92,NULL,Erneuerung,ukarabati,s,ushawishi,ukalifu,unyonyaji,NA,qt,NA,3,NA,NA,NA,NA,NA,NA,NA,NA,NA,NA,NA,NA,NA,NA,NA,NA,NA,NA,NA
dfba9,task,flow.Sequence,3_0_3_0_2,NA,NA,completion,26630.1,704841,704838.8,704855.38,731485.48,731492,2023-11-04T10:09:32Z,731501.92,NULL,Erneuerung,ukarabati,s,ushawishi,ukalifu,unyonyaji,NA,qt,NA,3,NA,NA,NA,NA,NA,NA,NA,NA,NA,NA,NA,NA,NA,NA,NA,NA,NA,NA,NA
dfba9,deep,flow.Sequence,3_0_3_0_3_0,NA,NA,skipped,NA,731493,NA,NA,731485.48,731494,2023-11-04T10:09:32Z,731501.92,NULL,Wechsel,ugeuzaji,s,utambulisho,kujenga,wasiwasi,NA,qt,NA,3,NA,NA,NA,NA,NA,NA,NA,NA,NA,NA,NA,NA,NA,NA,NA,NA,NA,NA,NA
dfba9,Shallow Question,html.Page,3_0_3_0_3_1_0,NA,NA,form submission,18945.08,731495,731485.48,731501.92,750447,750447,2023-11-04T10:09:51Z,750449.6,NULL,Wechsel,ugeuzaji,s,utambulisho,kujenga,wasiwasi,ugeuzaji,NA,NA,3,NA,NA,NA,NA,NA,NA,NA,NA,NA,NA,NA,NA,NA,NA,NA,NA,NA,NA,NA
dfba9,"""Richtig""-Screen",canvas.Screen,3_0_3_0_3_1_1,NA,NA,timeout,4999.22,750451,750443.08,750449.6,755432.22,755434,2023-11-04T10:09:56Z,755448.82,NULL,Wechsel,ugeuzaji,s,utambulisho,kujenga,wasiwasi,NA,qt,1,3,NA,NA,NA,NA,NA,NA,NA,NA,NA,NA,NA,NA,NA,NA,NA,NA,NA,NA,NA
dfba9,"""Falsch""-Screen",canvas.Screen,3_0_3_0_3_1_2,NA,NA,skipped,NA,755441,NA,NA,755432.22,755441,2023-11-04T10:09:56Z,755448.82,NULL,Wechsel,ugeuzaji,s,utambulisho,kujenga,wasiwasi,NA,qt,NA,3,NA,NA,NA,NA,NA,NA,NA,NA,NA,NA,NA,NA,NA,NA,NA,NA,NA,NA,NA
dfba9,shallow,flow.Sequence,3_0_3_0_3_1,NA,NA,completion,23930.3,731494,731485.48,731501.92,755432.22,755442,2023-11-04T10:09:56Z,755448.82,NULL,Wechsel,ugeuzaji,s,utambulisho,kujenga,wasiwasi,NA,qt,NA,3,NA,NA,NA,NA,NA,NA,NA,NA,NA,NA,NA,NA,NA,NA,NA,NA,NA,NA,NA
dfba9,task,flow.Sequence,3_0_3_0_3,NA,NA,completion,23930.3,731493,731485.48,731501.92,755432.22,755443,2023-11-04T10:09:56Z,755448.82,NULL,Wechsel,ugeuzaji,s,utambulisho,kujenga,wasiwasi,NA,qt,NA,3,NA,NA,NA,NA,NA,NA,NA,NA,NA,NA,NA,NA,NA,NA,NA,NA,NA,NA,NA
dfba9,Deep Question,html.Page,3_0_3_0_4_0_0,NA,NA,form submission,17440.18,755444,755432.22,755448.82,772889,772889,2023-11-04T10:10:13Z,772896.54,NULL,Atmosphäre,angahewa,d,NA,NA,NA,heiwa,NA,NA,3,NA,NA,NA,NA,NA,NA,NA,NA,NA,NA,NA,NA,NA,NA,NA,NA,NA,NA,NA
dfba9,"""Richtig""-Screen",canvas.Screen,3_0_3_0_4_0_1,NA,NA,skipped,NA,772892,NA,NA,772889,772892,2023-11-04T10:10:13Z,772896.54,NULL,Atmosphäre,angahewa,d,NA,NA,NA,NA,qt,NA,3,NA,NA,NA,NA,NA,NA,NA,NA,NA,NA,NA,NA,NA,NA,NA,NA,NA,NA,NA
dfba9,"""Falsch""-Screen",canvas.Screen,3_0_3_0_4_0_2,NA,NA,timeout,4999.38,772895,772887.74,772896.54,777879.3,777880,2023-11-04T10:10:18Z,777895.92,NULL,Atmosphäre,angahewa,d,NA,NA,NA,NA,qt,0,3,NA,NA,NA,NA,NA,NA,NA,NA,NA,NA,NA,NA,NA,NA,NA,NA,NA,NA,NA
dfba9,deep,flow.Sequence,3_0_3_0_4_0,NA,NA,completion,22430.48,755444,755432.22,755448.82,777879.3,777881,2023-11-04T10:10:18Z,777895.92,NULL,Atmosphäre,angahewa,d,NA,NA,NA,NA,qt,NA,3,NA,NA,NA,NA,NA,NA,NA,NA,NA,NA,NA,NA,NA,NA,NA,NA,NA,NA,NA
dfba9,shallow,flow.Sequence,3_0_3_0_4_1,NA,NA,skipped,NA,777881,NA,NA,777879.3,777882,2023-11-04T10:10:18Z,777895.92,NULL,Atmosphäre,angahewa,d,NA,NA,NA,NA,qt,NA,3,NA,NA,NA,NA,NA,NA,NA,NA,NA,NA,NA,NA,NA,NA,NA,NA,NA,NA,NA
dfba9,task,flow.Sequence,3_0_3_0_4,NA,NA,completion,22430.48,755444,755432.22,755448.82,777879.3,777882,2023-11-04T10:10:18Z,777895.92,NULL,Atmosphäre,angahewa,d,NA,NA,NA,NA,qt,NA,3,NA,NA,NA,NA,NA,NA,NA,NA,NA,NA,NA,NA,NA,NA,NA,NA,NA,NA,NA
dfba9,Deep Question,html.Page,3_0_3_0_5_0_0,NA,NA,form submission,23311.08,777883,777879.3,777895.92,801207,801208,2023-11-04T10:10:42Z,801209.58,NULL,Schock,mshtuko,d,NA,NA,NA,a,NA,NA,3,NA,NA,NA,NA,NA,NA,NA,NA,NA,NA,NA,NA,NA,NA,NA,NA,NA,NA,NA
dfba9,"""Richtig""-Screen",canvas.Screen,3_0_3_0_5_0_1,NA,NA,skipped,NA,801210,NA,NA,801207,801210,2023-11-04T10:10:42Z,801209.58,NULL,Schock,mshtuko,d,NA,NA,NA,NA,qt,NA,3,NA,NA,NA,NA,NA,NA,NA,NA,NA,NA,NA,NA,NA,NA,NA,NA,NA,NA,NA
dfba9,"""Falsch""-Screen",canvas.Screen,3_0_3_0_5_0_2,NA,NA,timeout,4999.3400000001,801213,801206.06,801209.58,806192.38,806193,2023-11-04T10:10:47Z,806208.92,NULL,Schock,mshtuko,d,NA,NA,NA,NA,qt,0,3,NA,NA,NA,NA,NA,NA,NA,NA,NA,NA,NA,NA,NA,NA,NA,NA,NA,NA,NA
dfba9,deep,flow.Sequence,3_0_3_0_5_0,NA,NA,completion,28296.46,777883,777879.3,777895.92,806192.38,806195,2023-11-04T10:10:47Z,806208.92,NULL,Schock,mshtuko,d,NA,NA,NA,NA,qt,NA,3,NA,NA,NA,NA,NA,NA,NA,NA,NA,NA,NA,NA,NA,NA,NA,NA,NA,NA,NA
dfba9,shallow,flow.Sequence,3_0_3_0_5_1,NA,NA,skipped,NA,806195,NA,NA,806192.38,806195,2023-11-04T10:10:47Z,806208.92,NULL,Schock,mshtuko,d,NA,NA,NA,NA,qt,NA,3,NA,NA,NA,NA,NA,NA,NA,NA,NA,NA,NA,NA,NA,NA,NA,NA,NA,NA,NA
dfba9,task,flow.Sequence,3_0_3_0_5,NA,NA,completion,28296.46,777882,777879.3,777895.92,806192.38,806195,2023-11-04T10:10:47Z,806208.92,NULL,Schock,mshtuko,d,NA,NA,NA,NA,qt,NA,3,NA,NA,NA,NA,NA,NA,NA,NA,NA,NA,NA,NA,NA,NA,NA,NA,NA,NA,NA
dfba9,Deep Question,html.Page,3_0_3_0_6_0_0,NA,NA,form submission,34756.08,806196,806192.38,806208.92,840965,840966,2023-11-04T10:11:22Z,840971.08,NULL,Theorie,nadharia,d,NA,NA,NA,a,NA,NA,3,NA,NA,NA,NA,NA,NA,NA,NA,NA,NA,NA,NA,NA,NA,NA,NA,NA,NA,NA
dfba9,"""Richtig""-Screen",canvas.Screen,3_0_3_0_6_0_1,NA,NA,skipped,NA,840970,NA,NA,840965,840970,2023-11-04T10:11:22Z,840971.08,NULL,Theorie,nadharia,d,NA,NA,NA,NA,qt,NA,3,NA,NA,NA,NA,NA,NA,NA,NA,NA,NA,NA,NA,NA,NA,NA,NA,NA,NA,NA
dfba9,"""Falsch""-Screen",canvas.Screen,3_0_3_0_6_0_2,NA,NA,timeout,4999.3400000001,840971,840958.98,840971.08,845953.78,845954,2023-11-04T10:11:27Z,845970.42,NULL,Theorie,nadharia,d,NA,NA,NA,NA,qt,0,3,NA,NA,NA,NA,NA,NA,NA,NA,NA,NA,NA,NA,NA,NA,NA,NA,NA,NA,NA
dfba9,deep,flow.Sequence,3_0_3_0_6_0,NA,NA,completion,39744.86,806196,806192.38,806208.92,845953.78,845955,2023-11-04T10:11:27Z,845970.42,NULL,Theorie,nadharia,d,NA,NA,NA,NA,qt,NA,3,NA,NA,NA,NA,NA,NA,NA,NA,NA,NA,NA,NA,NA,NA,NA,NA,NA,NA,NA
dfba9,shallow,flow.Sequence,3_0_3_0_6_1,NA,NA,skipped,NA,845956,NA,NA,845953.78,845957,2023-11-04T10:11:27Z,845970.42,NULL,Theorie,nadharia,d,NA,NA,NA,NA,qt,NA,3,NA,NA,NA,NA,NA,NA,NA,NA,NA,NA,NA,NA,NA,NA,NA,NA,NA,NA,NA
dfba9,task,flow.Sequence,3_0_3_0_6,NA,NA,completion,39744.86,806195,806192.38,806208.92,845953.78,845957,2023-11-04T10:11:27Z,845970.42,NULL,Theorie,nadharia,d,NA,NA,NA,NA,qt,NA,3,NA,NA,NA,NA,NA,NA,NA,NA,NA,NA,NA,NA,NA,NA,NA,NA,NA,NA,NA
dfba9,deep,flow.Sequence,3_0_3_0_7_0,NA,NA,skipped,NA,845957,NA,NA,845953.78,845958,2023-11-04T10:11:27Z,845970.42,NULL,Hoffnung,matarajio,s,kutaalamika,uratibu,mvumbuzi,NA,qt,NA,3,NA,NA,NA,NA,NA,NA,NA,NA,NA,NA,NA,NA,NA,NA,NA,NA,NA,NA,NA
dfba9,Shallow Question,html.Page,3_0_3_0_7_1_0,NA,NA,form submission,15142.58,845958,845953.78,845970.42,861113,861113,2023-11-04T10:11:42Z,861118.44,NULL,Hoffnung,matarajio,s,kutaalamika,uratibu,mvumbuzi,matarajio,NA,NA,3,NA,NA,NA,NA,NA,NA,NA,NA,NA,NA,NA,NA,NA,NA,NA,NA,NA,NA,NA
dfba9,"""Richtig""-Screen",canvas.Screen,3_0_3_0_7_1_1,NA,NA,timeout,4999.3400000001,861114,861110.78,861118.44,866101.18,866102,2023-11-04T10:11:47Z,866117.78,NULL,Hoffnung,matarajio,s,kutaalamika,uratibu,mvumbuzi,NA,qt,1,3,NA,NA,NA,NA,NA,NA,NA,NA,NA,NA,NA,NA,NA,NA,NA,NA,NA,NA,NA
dfba9,"""Falsch""-Screen",canvas.Screen,3_0_3_0_7_1_2,NA,NA,skipped,NA,866107,NA,NA,866101.18,866107,2023-11-04T10:11:47Z,866117.78,NULL,Hoffnung,matarajio,s,kutaalamika,uratibu,mvumbuzi,NA,qt,NA,3,NA,NA,NA,NA,NA,NA,NA,NA,NA,NA,NA,NA,NA,NA,NA,NA,NA,NA,NA
dfba9,shallow,flow.Sequence,3_0_3_0_7_1,NA,NA,completion,20130.76,845958,845953.78,845970.42,866101.18,866107,2023-11-04T10:11:47Z,866117.78,NULL,Hoffnung,matarajio,s,kutaalamika,uratibu,mvumbuzi,NA,qt,NA,3,NA,NA,NA,NA,NA,NA,NA,NA,NA,NA,NA,NA,NA,NA,NA,NA,NA,NA,NA
dfba9,task,flow.Sequence,3_0_3_0_7,NA,NA,completion,20130.76,845957,845953.78,845970.42,866101.18,866108,2023-11-04T10:11:47Z,866117.78,NULL,Hoffnung,matarajio,s,kutaalamika,uratibu,mvumbuzi,NA,qt,NA,3,NA,NA,NA,NA,NA,NA,NA,NA,NA,NA,NA,NA,NA,NA,NA,NA,NA,NA,NA
dfba9,block,flow.Loop,3_0_3_0,NA,NA,completion,201031.92,665068,665068.92,665069.26,866101.18,866109,2023-11-04T10:11:47Z,866117.78,NULL,NA,NA,NA,NA,NA,NA,NA,qt,NA,3,NA,NA,NA,NA,NA,NA,NA,NA,NA,NA,NA,NA,NA,NA,NA,NA,NA,NA,NA
dfba9,weiter,canvas.Screen,3_0_3_1,sdf,keypress(Space),response,1193.22,866109,866101.18,866117.78,867311,867322,2023-11-04T10:11:48Z,867378.4,NULL,NA,NA,NA,NA,NA,NA,NA,qt,NA,3,NA,NA,NA,NA,NA,NA,NA,NA,NA,NA,NA,NA,NA,NA,NA,NA,NA,NA,NA
dfba9,check continue,flow.Sequence,3_0_3,NA,NA,completion,202241.74,665068,665068.92,665069.26,867311,867323,2023-11-04T10:11:48Z,867378.4,NULL,NA,NA,NA,NA,NA,NA,NA,qt,NA,3,NA,NA,NA,NA,NA,NA,NA,NA,NA,NA,NA,NA,NA,NA,NA,NA,NA,NA,NA
dfba9,deep,flow.Sequence,3_0_4_0_0_0,NA,NA,skipped,NA,867378,NA,NA,867311,867378,2023-11-04T10:11:48Z,867378.4,NULL,Hoffnung,matarajio,s,kutaalamika,uratibu,mvumbuzi,NA,sd,NA,4,NA,NA,NA,NA,NA,NA,NA,NA,NA,NA,NA,NA,NA,NA,NA,NA,NA,NA,NA
dfba9,Shallow Question,html.Page,3_0_4_0_0_1_0,NA,NA,form submission,11913.6,867378,867378.14,867378.4,879292,879295,2023-11-04T10:12:00Z,879299.44,NULL,Hoffnung,matarajio,s,kutaalamika,uratibu,mvumbuzi,matarajio,NA,NA,4,NA,NA,NA,NA,NA,NA,NA,NA,NA,NA,NA,NA,NA,NA,NA,NA,NA,NA,NA
dfba9,"""Richtig""-Screen",canvas.Screen,3_0_4_0_0_1_1,NA,NA,timeout,4999.4,879306,879285.56,879299.44,884282.22,884284,2023-11-04T10:12:05Z,884298.84,NULL,Hoffnung,matarajio,s,kutaalamika,uratibu,mvumbuzi,NA,sd,1,4,NA,NA,NA,NA,NA,NA,NA,NA,NA,NA,NA,NA,NA,NA,NA,NA,NA,NA,NA
dfba9,"""Falsch""-Screen",canvas.Screen,3_0_4_0_0_1_2,NA,NA,skipped,NA,884295,NA,NA,884282.22,884296,2023-11-04T10:12:05Z,884298.84,NULL,Hoffnung,matarajio,s,kutaalamika,uratibu,mvumbuzi,NA,sd,NA,4,NA,NA,NA,NA,NA,NA,NA,NA,NA,NA,NA,NA,NA,NA,NA,NA,NA,NA,NA
dfba9,shallow,flow.Sequence,3_0_4_0_0_1,NA,NA,completion,16903.82,867378,867378.14,867378.4,884282.22,884297,2023-11-04T10:12:05Z,884298.84,NULL,Hoffnung,matarajio,s,kutaalamika,uratibu,mvumbuzi,NA,sd,NA,4,NA,NA,NA,NA,NA,NA,NA,NA,NA,NA,NA,NA,NA,NA,NA,NA,NA,NA,NA
dfba9,task,flow.Sequence,3_0_4_0_0,NA,NA,completion,16903.82,867378,867378.14,867378.4,884282.22,884297,2023-11-04T10:12:05Z,884298.84,NULL,Hoffnung,matarajio,s,kutaalamika,uratibu,mvumbuzi,NA,sd,NA,4,NA,NA,NA,NA,NA,NA,NA,NA,NA,NA,NA,NA,NA,NA,NA,NA,NA,NA,NA
dfba9,deep,flow.Sequence,3_0_4_0_1_0,NA,NA,skipped,NA,884297,NA,NA,884282.22,884298,2023-11-04T10:12:05Z,884298.84,NULL,Wechsel,ugeuzaji,s,utambulisho,kujenga,wasiwasi,NA,sd,NA,4,NA,NA,NA,NA,NA,NA,NA,NA,NA,NA,NA,NA,NA,NA,NA,NA,NA,NA,NA
dfba9,Shallow Question,html.Page,3_0_4_0_1_1_0,NA,NA,form submission,17954.16,884298,884282.22,884298.84,902253,902254,2023-11-04T10:12:23Z,902263.32,NULL,Wechsel,ugeuzaji,s,utambulisho,kujenga,wasiwasi,ugeuzaji,NA,NA,4,NA,NA,NA,NA,NA,NA,NA,NA,NA,NA,NA,NA,NA,NA,NA,NA,NA,NA,NA
dfba9,"""Richtig""-Screen",canvas.Screen,3_0_4_0_1_1_1,NA,NA,timeout,4999.1000000001,902261,902247.48,902263.32,907245.8,907247,2023-11-04T10:12:28Z,907262.42,NULL,Wechsel,ugeuzaji,s,utambulisho,kujenga,wasiwasi,NA,sd,1,4,NA,NA,NA,NA,NA,NA,NA,NA,NA,NA,NA,NA,NA,NA,NA,NA,NA,NA,NA
dfba9,"""Falsch""-Screen",canvas.Screen,3_0_4_0_1_1_2,NA,NA,skipped,NA,907251,NA,NA,907245.8,907252,2023-11-04T10:12:28Z,907262.42,NULL,Wechsel,ugeuzaji,s,utambulisho,kujenga,wasiwasi,NA,sd,NA,4,NA,NA,NA,NA,NA,NA,NA,NA,NA,NA,NA,NA,NA,NA,NA,NA,NA,NA,NA
dfba9,shallow,flow.Sequence,3_0_4_0_1_1,NA,NA,completion,22946.96,884298,884282.22,884298.84,907245.8,907253,2023-11-04T10:12:28Z,907262.42,NULL,Wechsel,ugeuzaji,s,utambulisho,kujenga,wasiwasi,NA,sd,NA,4,NA,NA,NA,NA,NA,NA,NA,NA,NA,NA,NA,NA,NA,NA,NA,NA,NA,NA,NA
dfba9,task,flow.Sequence,3_0_4_0_1,NA,NA,completion,22946.96,884297,884282.22,884298.84,907245.8,907253,2023-11-04T10:12:28Z,907262.42,NULL,Wechsel,ugeuzaji,s,utambulisho,kujenga,wasiwasi,NA,sd,NA,4,NA,NA,NA,NA,NA,NA,NA,NA,NA,NA,NA,NA,NA,NA,NA,NA,NA,NA,NA
dfba9,Deep Question,html.Page,3_0_4_0_2_0_0,NA,NA,form submission,9568.58,907254,907245.8,907262.42,916831,916831,2023-11-04T10:12:37Z,916829.52,NULL,Theorie,nadharia,d,NA,NA,NA,nadia,NA,NA,4,NA,NA,NA,NA,NA,NA,NA,NA,NA,NA,NA,NA,NA,NA,NA,NA,NA,NA,NA
dfba9,"""Richtig""-Screen",canvas.Screen,3_0_4_0_2_0_1,NA,NA,skipped,NA,916833,NA,NA,916831,916834,2023-11-04T10:12:37Z,916829.52,NULL,Theorie,nadharia,d,NA,NA,NA,NA,sd,NA,4,NA,NA,NA,NA,NA,NA,NA,NA,NA,NA,NA,NA,NA,NA,NA,NA,NA,NA,NA
dfba9,"""Falsch""-Screen",canvas.Screen,3_0_4_0_2_0_2,NA,NA,timeout,4997.76,916836,916829.2,916829.52,921810.6,921812,2023-11-04T10:12:42Z,921827.28,NULL,Theorie,nadharia,d,NA,NA,NA,NA,sd,0,4,NA,NA,NA,NA,NA,NA,NA,NA,NA,NA,NA,NA,NA,NA,NA,NA,NA,NA,NA
dfba9,deep,flow.Sequence,3_0_4_0_2_0,NA,NA,completion,14548.18,907254,907245.8,907262.42,921810.6,921812,2023-11-04T10:12:42Z,921827.28,NULL,Theorie,nadharia,d,NA,NA,NA,NA,sd,NA,4,NA,NA,NA,NA,NA,NA,NA,NA,NA,NA,NA,NA,NA,NA,NA,NA,NA,NA,NA
dfba9,shallow,flow.Sequence,3_0_4_0_2_1,NA,NA,skipped,NA,921812,NA,NA,921810.6,921813,2023-11-04T10:12:42Z,921827.28,NULL,Theorie,nadharia,d,NA,NA,NA,NA,sd,NA,4,NA,NA,NA,NA,NA,NA,NA,NA,NA,NA,NA,NA,NA,NA,NA,NA,NA,NA,NA
dfba9,task,flow.Sequence,3_0_4_0_2,NA,NA,completion,14548.18,907254,907245.8,907262.42,921810.6,921814,2023-11-04T10:12:42Z,921827.28,NULL,Theorie,nadharia,d,NA,NA,NA,NA,sd,NA,4,NA,NA,NA,NA,NA,NA,NA,NA,NA,NA,NA,NA,NA,NA,NA,NA,NA,NA,NA
dfba9,Deep Question,html.Page,3_0_4_0_3_0_0,NA,NA,form submission,53736.72,921814,921810.6,921827.28,975564,975566,2023-11-04T10:13:36Z,975570.32,NULL,Flexibilität,kubadilika,d,NA,NA,NA,kubaka,NA,NA,4,NA,NA,NA,NA,NA,NA,NA,NA,NA,NA,NA,NA,NA,NA,NA,NA,NA,NA,NA
dfba9,"""Richtig""-Screen",canvas.Screen,3_0_4_0_3_0_1,NA,NA,skipped,NA,975574,NA,NA,975564,975574,2023-11-04T10:13:36Z,975570.32,NULL,Flexibilität,kubadilika,d,NA,NA,NA,NA,sd,NA,4,NA,NA,NA,NA,NA,NA,NA,NA,NA,NA,NA,NA,NA,NA,NA,NA,NA,NA,NA
dfba9,"""Falsch""-Screen",canvas.Screen,3_0_4_0_3_0_2,NA,NA,timeout,4999.3,975578,975562.64,975570.32,980553,980554,2023-11-04T10:13:41Z,980569.62,NULL,Flexibilität,kubadilika,d,NA,NA,NA,NA,sd,0,4,NA,NA,NA,NA,NA,NA,NA,NA,NA,NA,NA,NA,NA,NA,NA,NA,NA,NA,NA
dfba9,deep,flow.Sequence,3_0_4_0_3_0,NA,NA,completion,58725.72,921814,921810.6,921827.28,980553,980555,2023-11-04T10:13:41Z,980569.62,NULL,Flexibilität,kubadilika,d,NA,NA,NA,NA,sd,NA,4,NA,NA,NA,NA,NA,NA,NA,NA,NA,NA,NA,NA,NA,NA,NA,NA,NA,NA,NA
dfba9,shallow,flow.Sequence,3_0_4_0_3_1,NA,NA,skipped,NA,980555,NA,NA,980553,980555,2023-11-04T10:13:41Z,980569.62,NULL,Flexibilität,kubadilika,d,NA,NA,NA,NA,sd,NA,4,NA,NA,NA,NA,NA,NA,NA,NA,NA,NA,NA,NA,NA,NA,NA,NA,NA,NA,NA
dfba9,task,flow.Sequence,3_0_4_0_3,NA,NA,completion,58725.72,921814,921810.6,921827.28,980553,980555,2023-11-04T10:13:41Z,980569.62,NULL,Flexibilität,kubadilika,d,NA,NA,NA,NA,sd,NA,4,NA,NA,NA,NA,NA,NA,NA,NA,NA,NA,NA,NA,NA,NA,NA,NA,NA,NA,NA
dfba9,Deep Question,html.Page,3_0_4_0_4_0_0,NA,NA,form submission,10371.38,980556,980553,980569.62,990941,990942,2023-11-04T10:13:51Z,990951.66,NULL,Schock,mshtuko,d,NA,NA,NA,mbunda,NA,NA,4,NA,NA,NA,NA,NA,NA,NA,NA,NA,NA,NA,NA,NA,NA,NA,NA,NA,NA,NA
dfba9,"""Richtig""-Screen",canvas.Screen,3_0_4_0_4_0_1,NA,NA,skipped,NA,990945,NA,NA,990941,990945,2023-11-04T10:13:51Z,990951.66,NULL,Schock,mshtuko,d,NA,NA,NA,NA,sd,NA,4,NA,NA,NA,NA,NA,NA,NA,NA,NA,NA,NA,NA,NA,NA,NA,NA,NA,NA,NA
dfba9,"""Falsch""-Screen",canvas.Screen,3_0_4_0_4_0_2,NA,NA,timeout,4999.3199999999,990948,990940.2,990951.66,995934.3,995935,2023-11-04T10:13:56Z,995950.98,NULL,Schock,mshtuko,d,NA,NA,NA,NA,sd,0,4,NA,NA,NA,NA,NA,NA,NA,NA,NA,NA,NA,NA,NA,NA,NA,NA,NA,NA,NA
dfba9,deep,flow.Sequence,3_0_4_0_4_0,NA,NA,completion,15364.68,980556,980553,980569.62,995934.3,995935,2023-11-04T10:13:56Z,995950.98,NULL,Schock,mshtuko,d,NA,NA,NA,NA,sd,NA,4,NA,NA,NA,NA,NA,NA,NA,NA,NA,NA,NA,NA,NA,NA,NA,NA,NA,NA,NA
dfba9,shallow,flow.Sequence,3_0_4_0_4_1,NA,NA,skipped,NA,995936,NA,NA,995934.3,995936,2023-11-04T10:13:56Z,995950.98,NULL,Schock,mshtuko,d,NA,NA,NA,NA,sd,NA,4,NA,NA,NA,NA,NA,NA,NA,NA,NA,NA,NA,NA,NA,NA,NA,NA,NA,NA,NA
dfba9,task,flow.Sequence,3_0_4_0_4,NA,NA,completion,15364.68,980556,980553,980569.62,995934.3,995936,2023-11-04T10:13:56Z,995950.98,NULL,Schock,mshtuko,d,NA,NA,NA,NA,sd,NA,4,NA,NA,NA,NA,NA,NA,NA,NA,NA,NA,NA,NA,NA,NA,NA,NA,NA,NA,NA
dfba9,Deep Question,html.Page,3_0_4_0_5_0_0,NA,NA,form submission,19900.02,995937,995934.3,995950.98,1015851,1015852,2023-11-04T10:14:16Z,1015865.02,NULL,Atmosphäre,angahewa,d,NA,NA,NA,angohewaka,NA,NA,4,NA,NA,NA,NA,NA,NA,NA,NA,NA,NA,NA,NA,NA,NA,NA,NA,NA,NA,NA
dfba9,"""Richtig""-Screen",canvas.Screen,3_0_4_0_5_0_1,NA,NA,skipped,NA,1015854,NA,NA,1015851,1015855,2023-11-04T10:14:16Z,1015865.02,NULL,Atmosphäre,angahewa,d,NA,NA,NA,NA,sd,NA,4,NA,NA,NA,NA,NA,NA,NA,NA,NA,NA,NA,NA,NA,NA,NA,NA,NA,NA,NA
dfba9,"""Falsch""-Screen",canvas.Screen,3_0_4_0_5_0_2,NA,NA,timeout,4999.4,1015859,1015850.42,1015865.02,1020847.82,1020850,2023-11-04T10:14:21Z,1020864.42,NULL,Atmosphäre,angahewa,d,NA,NA,NA,NA,sd,0,4,NA,NA,NA,NA,NA,NA,NA,NA,NA,NA,NA,NA,NA,NA,NA,NA,NA,NA,NA
dfba9,deep,flow.Sequence,3_0_4_0_5_0,NA,NA,completion,24896.84,995937,995934.3,995950.98,1020847.82,1020850,2023-11-04T10:14:21Z,1020864.42,NULL,Atmosphäre,angahewa,d,NA,NA,NA,NA,sd,NA,4,NA,NA,NA,NA,NA,NA,NA,NA,NA,NA,NA,NA,NA,NA,NA,NA,NA,NA,NA
dfba9,shallow,flow.Sequence,3_0_4_0_5_1,NA,NA,skipped,NA,1020851,NA,NA,1020847.82,1020851,2023-11-04T10:14:21Z,1020864.42,NULL,Atmosphäre,angahewa,d,NA,NA,NA,NA,sd,NA,4,NA,NA,NA,NA,NA,NA,NA,NA,NA,NA,NA,NA,NA,NA,NA,NA,NA,NA,NA
dfba9,task,flow.Sequence,3_0_4_0_5,NA,NA,completion,24896.84,995936,995934.3,995950.98,1020847.82,1020851,2023-11-04T10:14:21Z,1020864.42,NULL,Atmosphäre,angahewa,d,NA,NA,NA,NA,sd,NA,4,NA,NA,NA,NA,NA,NA,NA,NA,NA,NA,NA,NA,NA,NA,NA,NA,NA,NA,NA
dfba9,deep,flow.Sequence,3_0_4_0_6_0,NA,NA,skipped,NA,1020851,NA,NA,1020847.82,1020851,2023-11-04T10:14:21Z,1020864.42,NULL,Erneuerung,ukarabati,s,ushawishi,ukalifu,unyonyaji,NA,sd,NA,4,NA,NA,NA,NA,NA,NA,NA,NA,NA,NA,NA,NA,NA,NA,NA,NA,NA,NA,NA
dfba9,Shallow Question,html.Page,3_0_4_0_6_1_0,NA,NA,form submission,28774.58,1020852,1020847.82,1020864.42,1049639,1049639,2023-11-04T10:14:50Z,1049643.96,NULL,Erneuerung,ukarabati,s,ushawishi,ukalifu,unyonyaji,ukarabati,NA,NA,4,NA,NA,NA,NA,NA,NA,NA,NA,NA,NA,NA,NA,NA,NA,NA,NA,NA,NA,NA
dfba9,"""Richtig""-Screen",canvas.Screen,3_0_4_0_6_1_1,NA,NA,timeout,4999.4199999999,1049643,1049635.4,1049643.96,1054626.86,1054628,2023-11-04T10:14:55Z,1054643.38,NULL,Erneuerung,ukarabati,s,ushawishi,ukalifu,unyonyaji,NA,sd,1,4,NA,NA,NA,NA,NA,NA,NA,NA,NA,NA,NA,NA,NA,NA,NA,NA,NA,NA,NA
dfba9,"""Falsch""-Screen",canvas.Screen,3_0_4_0_6_1_2,NA,NA,skipped,NA,1054635,NA,NA,1054626.86,1054635,2023-11-04T10:14:55Z,1054643.38,NULL,Erneuerung,ukarabati,s,ushawishi,ukalifu,unyonyaji,NA,sd,NA,4,NA,NA,NA,NA,NA,NA,NA,NA,NA,NA,NA,NA,NA,NA,NA,NA,NA,NA,NA
dfba9,shallow,flow.Sequence,3_0_4_0_6_1,NA,NA,completion,33762.44,1020852,1020847.82,1020864.42,1054626.86,1054635,2023-11-04T10:14:55Z,1054643.38,NULL,Erneuerung,ukarabati,s,ushawishi,ukalifu,unyonyaji,NA,sd,NA,4,NA,NA,NA,NA,NA,NA,NA,NA,NA,NA,NA,NA,NA,NA,NA,NA,NA,NA,NA
dfba9,task,flow.Sequence,3_0_4_0_6,NA,NA,completion,33762.44,1020851,1020847.82,1020864.42,1054626.86,1054636,2023-11-04T10:14:55Z,1054643.38,NULL,Erneuerung,ukarabati,s,ushawishi,ukalifu,unyonyaji,NA,sd,NA,4,NA,NA,NA,NA,NA,NA,NA,NA,NA,NA,NA,NA,NA,NA,NA,NA,NA,NA,NA
dfba9,deep,flow.Sequence,3_0_4_0_7_0,NA,NA,skipped,NA,1054637,NA,NA,1054626.86,1054638,2023-11-04T10:14:55Z,1054643.38,NULL,Verpackung,ufungaji,s,uhusiano,upimaji,uchunguzi,NA,sd,NA,4,NA,NA,NA,NA,NA,NA,NA,NA,NA,NA,NA,NA,NA,NA,NA,NA,NA,NA,NA
dfba9,Shallow Question,html.Page,3_0_4_0_7_1_0,NA,NA,form submission,24687.62,1054638,1054626.86,1054643.38,1079331,1079336,2023-11-04T10:15:20Z,1079340.18,NULL,Verpackung,ufungaji,s,uhusiano,upimaji,uchunguzi,ufungaji,NA,NA,4,NA,NA,NA,NA,NA,NA,NA,NA,NA,NA,NA,NA,NA,NA,NA,NA,NA,NA,NA
dfba9,"""Richtig""-Screen",canvas.Screen,3_0_4_0_7_1_1,NA,NA,timeout,4999.3200000001,1079348,1079320.42,1079340.18,1084322.9,1084324,2023-11-04T10:15:25Z,1084339.5,NULL,Verpackung,ufungaji,s,uhusiano,upimaji,uchunguzi,NA,sd,1,4,NA,NA,NA,NA,NA,NA,NA,NA,NA,NA,NA,NA,NA,NA,NA,NA,NA,NA,NA
dfba9,"""Falsch""-Screen",canvas.Screen,3_0_4_0_7_1_2,NA,NA,skipped,NA,1084332,NA,NA,1084322.9,1084334,2023-11-04T10:15:25Z,1084339.5,NULL,Verpackung,ufungaji,s,uhusiano,upimaji,uchunguzi,NA,sd,NA,4,NA,NA,NA,NA,NA,NA,NA,NA,NA,NA,NA,NA,NA,NA,NA,NA,NA,NA,NA
dfba9,shallow,flow.Sequence,3_0_4_0_7_1,NA,NA,completion,29679.52,1054638,1054626.86,1054643.38,1084322.9,1084334,2023-11-04T10:15:25Z,1084339.5,NULL,Verpackung,ufungaji,s,uhusiano,upimaji,uchunguzi,NA,sd,NA,4,NA,NA,NA,NA,NA,NA,NA,NA,NA,NA,NA,NA,NA,NA,NA,NA,NA,NA,NA
dfba9,task,flow.Sequence,3_0_4_0_7,NA,NA,completion,29679.52,1054636,1054626.86,1054643.38,1084322.9,1084334,2023-11-04T10:15:25Z,1084339.5,NULL,Verpackung,ufungaji,s,uhusiano,upimaji,uchunguzi,NA,sd,NA,4,NA,NA,NA,NA,NA,NA,NA,NA,NA,NA,NA,NA,NA,NA,NA,NA,NA,NA,NA
dfba9,block,flow.Loop,3_0_4_0,NA,NA,completion,216944.5,867378,867378.14,867378.4,1084322.9,1084334,2023-11-04T10:15:25Z,1084339.5,NULL,NA,NA,NA,NA,NA,NA,NA,sd,NA,4,NA,NA,NA,NA,NA,NA,NA,NA,NA,NA,NA,NA,NA,NA,NA,NA,NA,NA,NA
dfba9,weiter,canvas.Screen,3_0_4_1,sdf,keypress(Space),response,1159.5,1084334,1084322.9,1084339.5,1085499,1085512,2023-11-04T10:15:26Z,1085570.28,NULL,NA,NA,NA,NA,NA,NA,NA,sd,NA,4,NA,NA,NA,NA,NA,NA,NA,NA,NA,NA,NA,NA,NA,NA,NA,NA,NA,NA,NA
dfba9,check continue,flow.Sequence,3_0_4,NA,NA,completion,218120.6,867378,867378.14,867378.4,1085499,1085513,2023-11-04T10:15:26Z,1085570.28,NULL,NA,NA,NA,NA,NA,NA,NA,sd,NA,4,NA,NA,NA,NA,NA,NA,NA,NA,NA,NA,NA,NA,NA,NA,NA,NA,NA,NA,NA
dfba9,Deep Question,html.Page,3_0_5_0_0_0_0,NA,NA,form submission,23948.72,1085570,1085569.92,1085570.28,1109519,1109520,2023-11-04T10:15:50Z,1109519.54,NULL,Flexibilität,kubadilika,d,NA,NA,NA,kubadilika,NA,NA,5,NA,NA,NA,NA,NA,NA,NA,NA,NA,NA,NA,NA,NA,NA,NA,NA,NA,NA,NA
dfba9,"""Richtig""-Screen",canvas.Screen,3_0_5_0_0_0_1,NA,NA,timeout,4999.3999999999,1109523,1109518.16,1109519.54,1114502.38,1114504,2023-11-04T10:15:55Z,1114518.94,NULL,Flexibilität,kubadilika,d,NA,NA,NA,NA,sdf,1,5,NA,NA,NA,NA,NA,NA,NA,NA,NA,NA,NA,NA,NA,NA,NA,NA,NA,NA,NA
dfba9,"""Falsch""-Screen",canvas.Screen,3_0_5_0_0_0_2,NA,NA,skipped,NA,1114509,NA,NA,1114502.38,1114510,2023-11-04T10:15:55Z,1114518.94,NULL,Flexibilität,kubadilika,d,NA,NA,NA,NA,sdf,NA,5,NA,NA,NA,NA,NA,NA,NA,NA,NA,NA,NA,NA,NA,NA,NA,NA,NA,NA,NA
dfba9,deep,flow.Sequence,3_0_5_0_0_0,NA,NA,completion,28932.1,1085570,1085569.92,1085570.28,1114502.38,1114511,2023-11-04T10:15:55Z,1114518.94,NULL,Flexibilität,kubadilika,d,NA,NA,NA,NA,sdf,NA,5,NA,NA,NA,NA,NA,NA,NA,NA,NA,NA,NA,NA,NA,NA,NA,NA,NA,NA,NA
dfba9,shallow,flow.Sequence,3_0_5_0_0_1,NA,NA,skipped,NA,1114511,NA,NA,1114502.38,1114511,2023-11-04T10:15:55Z,1114518.94,NULL,Flexibilität,kubadilika,d,NA,NA,NA,NA,sdf,NA,5,NA,NA,NA,NA,NA,NA,NA,NA,NA,NA,NA,NA,NA,NA,NA,NA,NA,NA,NA
dfba9,task,flow.Sequence,3_0_5_0_0,NA,NA,completion,28932.1,1085570,1085569.92,1085570.28,1114502.38,1114512,2023-11-04T10:15:55Z,1114518.94,NULL,Flexibilität,kubadilika,d,NA,NA,NA,NA,sdf,NA,5,NA,NA,NA,NA,NA,NA,NA,NA,NA,NA,NA,NA,NA,NA,NA,NA,NA,NA,NA
dfba9,deep,flow.Sequence,3_0_5_0_1_0,NA,NA,skipped,NA,1114512,NA,NA,1114502.38,1114513,2023-11-04T10:15:55Z,1114518.94,NULL,Hoffnung,matarajio,s,kutaalamika,uratibu,mvumbuzi,NA,sdf,NA,5,NA,NA,NA,NA,NA,NA,NA,NA,NA,NA,NA,NA,NA,NA,NA,NA,NA,NA,NA
dfba9,Shallow Question,html.Page,3_0_5_0_1_1_0,NA,NA,form submission,10888.06,1114513,1114502.38,1114518.94,1125407,1125408,2023-11-04T10:16:06Z,1125417.44,NULL,Hoffnung,matarajio,s,kutaalamika,uratibu,mvumbuzi,matarajio,NA,NA,5,NA,NA,NA,NA,NA,NA,NA,NA,NA,NA,NA,NA,NA,NA,NA,NA,NA,NA,NA
dfba9,"""Richtig""-Screen",canvas.Screen,3_0_5_0_1_1_1,NA,NA,timeout,4999.4200000002,1125412,1125403.6,1125417.44,1130400.24,1130402,2023-11-04T10:16:11Z,1130416.86,NULL,Hoffnung,matarajio,s,kutaalamika,uratibu,mvumbuzi,NA,sdf,1,5,NA,NA,NA,NA,NA,NA,NA,NA,NA,NA,NA,NA,NA,NA,NA,NA,NA,NA,NA
dfba9,"""Falsch""-Screen",canvas.Screen,3_0_5_0_1_1_2,NA,NA,skipped,NA,1130405,NA,NA,1130400.24,1130406,2023-11-04T10:16:11Z,1130416.86,NULL,Hoffnung,matarajio,s,kutaalamika,uratibu,mvumbuzi,NA,sdf,NA,5,NA,NA,NA,NA,NA,NA,NA,NA,NA,NA,NA,NA,NA,NA,NA,NA,NA,NA,NA
dfba9,shallow,flow.Sequence,3_0_5_0_1_1,NA,NA,completion,15881.3,1114513,1114502.38,1114518.94,1130400.24,1130406,2023-11-04T10:16:11Z,1130416.86,NULL,Hoffnung,matarajio,s,kutaalamika,uratibu,mvumbuzi,NA,sdf,NA,5,NA,NA,NA,NA,NA,NA,NA,NA,NA,NA,NA,NA,NA,NA,NA,NA,NA,NA,NA
dfba9,task,flow.Sequence,3_0_5_0_1,NA,NA,completion,15881.3,1114512,1114502.38,1114518.94,1130400.24,1130406,2023-11-04T10:16:11Z,1130416.86,NULL,Hoffnung,matarajio,s,kutaalamika,uratibu,mvumbuzi,NA,sdf,NA,5,NA,NA,NA,NA,NA,NA,NA,NA,NA,NA,NA,NA,NA,NA,NA,NA,NA,NA,NA
dfba9,Deep Question,html.Page,3_0_5_0_2_0_0,NA,NA,form submission,15857.14,1130406,1130400.24,1130416.86,1146274,1146274,2023-11-04T10:16:27Z,1146281.22,NULL,Theorie,nadharia,d,NA,NA,NA,nadaja,NA,NA,5,NA,NA,NA,NA,NA,NA,NA,NA,NA,NA,NA,NA,NA,NA,NA,NA,NA,NA,NA
dfba9,"""Richtig""-Screen",canvas.Screen,3_0_5_0_2_0_1,NA,NA,skipped,NA,1146278,NA,NA,1146274,1146278,2023-11-04T10:16:27Z,1146281.22,NULL,Theorie,nadharia,d,NA,NA,NA,NA,sdf,NA,5,NA,NA,NA,NA,NA,NA,NA,NA,NA,NA,NA,NA,NA,NA,NA,NA,NA,NA,NA
dfba9,"""Falsch""-Screen",canvas.Screen,3_0_5_0_2_0_2,NA,NA,timeout,4999.6400000001,1146281,1146272.86,1146281.22,1151264.26,1151266,2023-11-04T10:16:32Z,1151280.86,NULL,Theorie,nadharia,d,NA,NA,NA,NA,sdf,0,5,NA,NA,NA,NA,NA,NA,NA,NA,NA,NA,NA,NA,NA,NA,NA,NA,NA,NA,NA
dfba9,deep,flow.Sequence,3_0_5_0_2_0,NA,NA,completion,20847.4,1130406,1130400.24,1130416.86,1151264.26,1151266,2023-11-04T10:16:32Z,1151280.86,NULL,Theorie,nadharia,d,NA,NA,NA,NA,sdf,NA,5,NA,NA,NA,NA,NA,NA,NA,NA,NA,NA,NA,NA,NA,NA,NA,NA,NA,NA,NA
dfba9,shallow,flow.Sequence,3_0_5_0_2_1,NA,NA,skipped,NA,1151267,NA,NA,1151264.26,1151267,2023-11-04T10:16:32Z,1151280.86,NULL,Theorie,nadharia,d,NA,NA,NA,NA,sdf,NA,5,NA,NA,NA,NA,NA,NA,NA,NA,NA,NA,NA,NA,NA,NA,NA,NA,NA,NA,NA
dfba9,task,flow.Sequence,3_0_5_0_2,NA,NA,completion,20847.4,1130406,1130400.24,1130416.86,1151264.26,1151268,2023-11-04T10:16:32Z,1151280.86,NULL,Theorie,nadharia,d,NA,NA,NA,NA,sdf,NA,5,NA,NA,NA,NA,NA,NA,NA,NA,NA,NA,NA,NA,NA,NA,NA,NA,NA,NA,NA
dfba9,deep,flow.Sequence,3_0_5_0_3_0,NA,NA,skipped,NA,1151269,NA,NA,1151264.26,1151269,2023-11-04T10:16:32Z,1151280.86,NULL,Wechsel,ugeuzaji,s,utambulisho,kujenga,wasiwasi,NA,sdf,NA,5,NA,NA,NA,NA,NA,NA,NA,NA,NA,NA,NA,NA,NA,NA,NA,NA,NA,NA,NA
dfba9,Shallow Question,html.Page,3_0_5_0_3_1_0,NA,NA,form submission,19763.14,1151270,1151264.26,1151280.86,1171044,1171045,2023-11-04T10:16:52Z,1171044.82,NULL,Wechsel,ugeuzaji,s,utambulisho,kujenga,wasiwasi,ugeuzaji,NA,NA,5,NA,NA,NA,NA,NA,NA,NA,NA,NA,NA,NA,NA,NA,NA,NA,NA,NA,NA,NA
dfba9,"""Richtig""-Screen",canvas.Screen,3_0_5_0_3_1_1,NA,NA,timeout,4999.4399999999,1171051,1171038.18,1171044.82,1176027.68,1176029,2023-11-04T10:16:57Z,1176044.26,NULL,Wechsel,ugeuzaji,s,utambulisho,kujenga,wasiwasi,NA,sdf,1,5,NA,NA,NA,NA,NA,NA,NA,NA,NA,NA,NA,NA,NA,NA,NA,NA,NA,NA,NA
dfba9,"""Falsch""-Screen",canvas.Screen,3_0_5_0_3_1_2,NA,NA,skipped,NA,1176036,NA,NA,1176027.68,1176036,2023-11-04T10:16:57Z,1176044.26,NULL,Wechsel,ugeuzaji,s,utambulisho,kujenga,wasiwasi,NA,sdf,NA,5,NA,NA,NA,NA,NA,NA,NA,NA,NA,NA,NA,NA,NA,NA,NA,NA,NA,NA,NA
dfba9,shallow,flow.Sequence,3_0_5_0_3_1,NA,NA,completion,24746.82,1151269,1151264.26,1151280.86,1176027.68,1176037,2023-11-04T10:16:57Z,1176044.26,NULL,Wechsel,ugeuzaji,s,utambulisho,kujenga,wasiwasi,NA,sdf,NA,5,NA,NA,NA,NA,NA,NA,NA,NA,NA,NA,NA,NA,NA,NA,NA,NA,NA,NA,NA
dfba9,task,flow.Sequence,3_0_5_0_3,NA,NA,completion,24746.82,1151269,1151264.26,1151280.86,1176027.68,1176037,2023-11-04T10:16:57Z,1176044.26,NULL,Wechsel,ugeuzaji,s,utambulisho,kujenga,wasiwasi,NA,sdf,NA,5,NA,NA,NA,NA,NA,NA,NA,NA,NA,NA,NA,NA,NA,NA,NA,NA,NA,NA,NA
dfba9,deep,flow.Sequence,3_0_5_0_4_0,NA,NA,skipped,NA,1176037,NA,NA,1176027.68,1176037,2023-11-04T10:16:57Z,1176044.26,NULL,Verpackung,ufungaji,s,uhusiano,upimaji,uchunguzi,NA,sdf,NA,5,NA,NA,NA,NA,NA,NA,NA,NA,NA,NA,NA,NA,NA,NA,NA,NA,NA,NA,NA
dfba9,Shallow Question,html.Page,3_0_5_0_4_1_0,NA,NA,form submission,5108.74,1176037,1176027.68,1176044.26,1181153,1181153,2023-11-04T10:17:02Z,1181160.34,NULL,Verpackung,ufungaji,s,uhusiano,upimaji,uchunguzi,uchunguzi,NA,NA,5,NA,NA,NA,NA,NA,NA,NA,NA,NA,NA,NA,NA,NA,NA,NA,NA,NA,NA,NA
dfba9,"""Richtig""-Screen",canvas.Screen,3_0_5_0_4_1_1,NA,NA,skipped,NA,1181155,NA,NA,1181153,1181155,2023-11-04T10:17:02Z,1181160.34,NULL,Verpackung,ufungaji,s,uhusiano,upimaji,uchunguzi,NA,sdf,NA,5,NA,NA,NA,NA,NA,NA,NA,NA,NA,NA,NA,NA,NA,NA,NA,NA,NA,NA,NA
dfba9,"""Falsch""-Screen",canvas.Screen,3_0_5_0_4_1_2,NA,NA,timeout,4999.2999999998,1181157,1181150.62,1181160.34,1186143.06,1186144,2023-11-04T10:17:07Z,1186159.64,NULL,Verpackung,ufungaji,s,uhusiano,upimaji,uchunguzi,NA,sdf,0,5,NA,NA,NA,NA,NA,NA,NA,NA,NA,NA,NA,NA,NA,NA,NA,NA,NA,NA,NA
dfba9,shallow,flow.Sequence,3_0_5_0_4_1,NA,NA,completion,10098.8,1176037,1176027.68,1176044.26,1186143.06,1186145,2023-11-04T10:17:07Z,1186159.64,NULL,Verpackung,ufungaji,s,uhusiano,upimaji,uchunguzi,NA,sdf,NA,5,NA,NA,NA,NA,NA,NA,NA,NA,NA,NA,NA,NA,NA,NA,NA,NA,NA,NA,NA
dfba9,task,flow.Sequence,3_0_5_0_4,NA,NA,completion,10098.8,1176037,1176027.68,1176044.26,1186143.06,1186146,2023-11-04T10:17:07Z,1186159.64,NULL,Verpackung,ufungaji,s,uhusiano,upimaji,uchunguzi,NA,sdf,NA,5,NA,NA,NA,NA,NA,NA,NA,NA,NA,NA,NA,NA,NA,NA,NA,NA,NA,NA,NA
dfba9,deep,flow.Sequence,3_0_5_0_5_0,NA,NA,skipped,NA,1186146,NA,NA,1186143.06,1186146,2023-11-04T10:17:07Z,1186159.64,NULL,Erneuerung,ukarabati,s,ushawishi,ukalifu,unyonyaji,NA,sdf,NA,5,NA,NA,NA,NA,NA,NA,NA,NA,NA,NA,NA,NA,NA,NA,NA,NA,NA,NA,NA
dfba9,Shallow Question,html.Page,3_0_5_0_5_1_0,NA,NA,form submission,11068.36,1186147,1186143.06,1186159.64,1197228,1197229,2023-11-04T10:17:18Z,1197241.44,NULL,Erneuerung,ukarabati,s,ushawishi,ukalifu,unyonyaji,ukarabati,NA,NA,5,NA,NA,NA,NA,NA,NA,NA,NA,NA,NA,NA,NA,NA,NA,NA,NA,NA,NA,NA
dfba9,"""Richtig""-Screen",canvas.Screen,3_0_5_0_5_1_1,NA,NA,timeout,4999.4399999999,1197230,1197226.88,1197241.44,1202224.32,1202226,2023-11-04T10:17:23Z,1202240.88,NULL,Erneuerung,ukarabati,s,ushawishi,ukalifu,unyonyaji,NA,sdf,1,5,NA,NA,NA,NA,NA,NA,NA,NA,NA,NA,NA,NA,NA,NA,NA,NA,NA,NA,NA
dfba9,"""Falsch""-Screen",canvas.Screen,3_0_5_0_5_1_2,NA,NA,skipped,NA,1202233,NA,NA,1202224.32,1202233,2023-11-04T10:17:23Z,1202240.88,NULL,Erneuerung,ukarabati,s,ushawishi,ukalifu,unyonyaji,NA,sdf,NA,5,NA,NA,NA,NA,NA,NA,NA,NA,NA,NA,NA,NA,NA,NA,NA,NA,NA,NA,NA
dfba9,shallow,flow.Sequence,3_0_5_0_5_1,NA,NA,completion,16064.68,1186147,1186143.06,1186159.64,1202224.32,1202234,2023-11-04T10:17:23Z,1202240.88,NULL,Erneuerung,ukarabati,s,ushawishi,ukalifu,unyonyaji,NA,sdf,NA,5,NA,NA,NA,NA,NA,NA,NA,NA,NA,NA,NA,NA,NA,NA,NA,NA,NA,NA,NA
dfba9,task,flow.Sequence,3_0_5_0_5,NA,NA,completion,16064.68,1186146,1186143.06,1186159.64,1202224.32,1202234,2023-11-04T10:17:23Z,1202240.88,NULL,Erneuerung,ukarabati,s,ushawishi,ukalifu,unyonyaji,NA,sdf,NA,5,NA,NA,NA,NA,NA,NA,NA,NA,NA,NA,NA,NA,NA,NA,NA,NA,NA,NA,NA
dfba9,Deep Question,html.Page,3_0_5_0_6_0_0,NA,NA,form submission,27376.12,1202234,1202224.32,1202240.88,1229617,1229617,2023-11-04T10:17:50Z,1229620.68,NULL,Schock,mshtuko,d,NA,NA,NA,a,NA,NA,5,NA,NA,NA,NA,NA,NA,NA,NA,NA,NA,NA,NA,NA,NA,NA,NA,NA,NA,NA
dfba9,"""Richtig""-Screen",canvas.Screen,3_0_5_0_6_0_1,NA,NA,skipped,NA,1229619,NA,NA,1229617,1229619,2023-11-04T10:17:50Z,1229620.68,NULL,Schock,mshtuko,d,NA,NA,NA,NA,sdf,NA,5,NA,NA,NA,NA,NA,NA,NA,NA,NA,NA,NA,NA,NA,NA,NA,NA,NA,NA,NA
dfba9,"""Falsch""-Screen",canvas.Screen,3_0_5_0_6_0_2,NA,NA,timeout,4999.3400000001,1229622,1229615.56,1229620.68,1234603.4,1234605,2023-11-04T10:17:55Z,1234620.02,NULL,Schock,mshtuko,d,NA,NA,NA,NA,sdf,0,5,NA,NA,NA,NA,NA,NA,NA,NA,NA,NA,NA,NA,NA,NA,NA,NA,NA,NA,NA
dfba9,deep,flow.Sequence,3_0_5_0_6_0,NA,NA,completion,32362.52,1202234,1202224.32,1202240.88,1234603.4,1234606,2023-11-04T10:17:55Z,1234620.02,NULL,Schock,mshtuko,d,NA,NA,NA,NA,sdf,NA,5,NA,NA,NA,NA,NA,NA,NA,NA,NA,NA,NA,NA,NA,NA,NA,NA,NA,NA,NA
dfba9,shallow,flow.Sequence,3_0_5_0_6_1,NA,NA,skipped,NA,1234606,NA,NA,1234603.4,1234607,2023-11-04T10:17:55Z,1234620.02,NULL,Schock,mshtuko,d,NA,NA,NA,NA,sdf,NA,5,NA,NA,NA,NA,NA,NA,NA,NA,NA,NA,NA,NA,NA,NA,NA,NA,NA,NA,NA
dfba9,task,flow.Sequence,3_0_5_0_6,NA,NA,completion,32362.52,1202234,1202224.32,1202240.88,1234603.4,1234607,2023-11-04T10:17:55Z,1234620.02,NULL,Schock,mshtuko,d,NA,NA,NA,NA,sdf,NA,5,NA,NA,NA,NA,NA,NA,NA,NA,NA,NA,NA,NA,NA,NA,NA,NA,NA,NA,NA
dfba9,Deep Question,html.Page,3_0_5_0_7_0_0,NA,NA,form submission,16664.98,1234608,1234603.4,1234620.02,1251285,1251285,2023-11-04T10:18:12Z,1251284.62,NULL,Atmosphäre,angahewa,d,NA,NA,NA,angohewa,NA,NA,5,NA,NA,NA,NA,NA,NA,NA,NA,NA,NA,NA,NA,NA,NA,NA,NA,NA,NA,NA
dfba9,"""Richtig""-Screen",canvas.Screen,3_0_5_0_7_0_1,NA,NA,skipped,NA,1251288,NA,NA,1251285,1251288,2023-11-04T10:18:12Z,1251284.62,NULL,Atmosphäre,angahewa,d,NA,NA,NA,NA,sdf,NA,5,NA,NA,NA,NA,NA,NA,NA,NA,NA,NA,NA,NA,NA,NA,NA,NA,NA,NA,NA
dfba9,"""Falsch""-Screen",canvas.Screen,3_0_5_0_7_0_2,NA,NA,timeout,4999.3199999998,1251290,1251284.24,1251284.62,1256267.38,1256269,2023-11-04T10:18:17Z,1256283.94,NULL,Atmosphäre,angahewa,d,NA,NA,NA,NA,sdf,0,5,NA,NA,NA,NA,NA,NA,NA,NA,NA,NA,NA,NA,NA,NA,NA,NA,NA,NA,NA
dfba9,deep,flow.Sequence,3_0_5_0_7_0,NA,NA,completion,21647.36,1234608,1234603.4,1234620.02,1256267.38,1256269,2023-11-04T10:18:17Z,1256283.94,NULL,Atmosphäre,angahewa,d,NA,NA,NA,NA,sdf,NA,5,NA,NA,NA,NA,NA,NA,NA,NA,NA,NA,NA,NA,NA,NA,NA,NA,NA,NA,NA
dfba9,shallow,flow.Sequence,3_0_5_0_7_1,NA,NA,skipped,NA,1256270,NA,NA,1256267.38,1256270,2023-11-04T10:18:17Z,1256283.94,NULL,Atmosphäre,angahewa,d,NA,NA,NA,NA,sdf,NA,5,NA,NA,NA,NA,NA,NA,NA,NA,NA,NA,NA,NA,NA,NA,NA,NA,NA,NA,NA
dfba9,task,flow.Sequence,3_0_5_0_7,NA,NA,completion,21647.36,1234608,1234603.4,1234620.02,1256267.38,1256271,2023-11-04T10:18:17Z,1256283.94,NULL,Atmosphäre,angahewa,d,NA,NA,NA,NA,sdf,NA,5,NA,NA,NA,NA,NA,NA,NA,NA,NA,NA,NA,NA,NA,NA,NA,NA,NA,NA,NA
dfba9,block,flow.Loop,3_0_5_0,NA,NA,completion,170697.1,1085570,1085569.92,1085570.28,1256267.38,1256271,2023-11-04T10:18:17Z,1256283.94,NULL,NA,NA,NA,NA,NA,NA,NA,sdf,NA,5,NA,NA,NA,NA,NA,NA,NA,NA,NA,NA,NA,NA,NA,NA,NA,NA,NA,NA,NA
dfba9,weiter,canvas.Screen,3_0_5_1,sdf,keypress(Space),response,1090.0600000001,1256272,1256267.38,1256283.94,1257374,1257385,2023-11-04T10:18:18Z,1257452.48,NULL,NA,NA,NA,NA,NA,NA,NA,sdf,NA,5,NA,NA,NA,NA,NA,NA,NA,NA,NA,NA,NA,NA,NA,NA,NA,NA,NA,NA,NA
dfba9,check continue,flow.Sequence,3_0_5,NA,NA,completion,171803.72,1085570,1085569.92,1085570.28,1257374,1257386,2023-11-04T10:18:18Z,1257452.48,NULL,NA,NA,NA,NA,NA,NA,NA,sdf,NA,5,NA,NA,NA,NA,NA,NA,NA,NA,NA,NA,NA,NA,NA,NA,NA,NA,NA,NA,NA
dfba9,deep,flow.Sequence,3_0_6_0_0_0,NA,NA,skipped,NA,1257452,NA,NA,1257374,1257453,2023-11-04T10:18:18Z,1257452.48,NULL,Hoffnung,matarajio,s,kutaalamika,uratibu,mvumbuzi,NA,dfs,NA,6,NA,NA,NA,NA,NA,NA,NA,NA,NA,NA,NA,NA,NA,NA,NA,NA,NA,NA,NA
dfba9,Shallow Question,html.Page,3_0_6_0_0_1_0,NA,NA,form submission,15796.52,1257453,1257452.18,1257452.48,1273249,1273251,2023-11-04T10:18:34Z,1273248.36,NULL,Hoffnung,matarajio,s,kutaalamika,uratibu,mvumbuzi,matarajio,NA,NA,6,NA,NA,NA,NA,NA,NA,NA,NA,NA,NA,NA,NA,NA,NA,NA,NA,NA,NA,NA
dfba9,"""Richtig""-Screen",canvas.Screen,3_0_6_0_0_1_1,NA,NA,timeout,4999.3599999999,1273255,1273239.54,1273248.36,1278231.08,1278232,2023-11-04T10:18:39Z,1278247.72,NULL,Hoffnung,matarajio,s,kutaalamika,uratibu,mvumbuzi,NA,dfs,1,6,NA,NA,NA,NA,NA,NA,NA,NA,NA,NA,NA,NA,NA,NA,NA,NA,NA,NA,NA
dfba9,"""Falsch""-Screen",canvas.Screen,3_0_6_0_0_1_2,NA,NA,skipped,NA,1278238,NA,NA,1278231.08,1278239,2023-11-04T10:18:39Z,1278247.72,NULL,Hoffnung,matarajio,s,kutaalamika,uratibu,mvumbuzi,NA,dfs,NA,6,NA,NA,NA,NA,NA,NA,NA,NA,NA,NA,NA,NA,NA,NA,NA,NA,NA,NA,NA
dfba9,shallow,flow.Sequence,3_0_6_0_0_1,NA,NA,completion,20778.6,1257453,1257452.18,1257452.48,1278231.08,1278240,2023-11-04T10:18:39Z,1278247.72,NULL,Hoffnung,matarajio,s,kutaalamika,uratibu,mvumbuzi,NA,dfs,NA,6,NA,NA,NA,NA,NA,NA,NA,NA,NA,NA,NA,NA,NA,NA,NA,NA,NA,NA,NA
dfba9,task,flow.Sequence,3_0_6_0_0,NA,NA,completion,20778.6,1257452,1257452.18,1257452.48,1278231.08,1278240,2023-11-04T10:18:39Z,1278247.72,NULL,Hoffnung,matarajio,s,kutaalamika,uratibu,mvumbuzi,NA,dfs,NA,6,NA,NA,NA,NA,NA,NA,NA,NA,NA,NA,NA,NA,NA,NA,NA,NA,NA,NA,NA
dfba9,Deep Question,html.Page,3_0_6_0_1_0_0,NA,NA,form submission,44766.28,1278240,1278231.08,1278247.72,1323014,1323014,2023-11-04T10:19:24Z,1323012.96,NULL,Flexibilität,kubadilika,d,NA,NA,NA,kubadika,NA,NA,6,NA,NA,NA,NA,NA,NA,NA,NA,NA,NA,NA,NA,NA,NA,NA,NA,NA,NA,NA
dfba9,"""Richtig""-Screen",canvas.Screen,3_0_6_0_1_0_1,NA,NA,skipped,NA,1323017,NA,NA,1323014,1323017,2023-11-04T10:19:24Z,1323012.96,NULL,Flexibilität,kubadilika,d,NA,NA,NA,NA,dfs,NA,6,NA,NA,NA,NA,NA,NA,NA,NA,NA,NA,NA,NA,NA,NA,NA,NA,NA,NA,NA
dfba9,"""Falsch""-Screen",canvas.Screen,3_0_6_0_1_0_2,NA,NA,timeout,4994.96,1323019,1323012.78,1323012.96,1327991.36,1327992,2023-11-04T10:19:29Z,1328007.92,NULL,Flexibilität,kubadilika,d,NA,NA,NA,NA,dfs,0,6,NA,NA,NA,NA,NA,NA,NA,NA,NA,NA,NA,NA,NA,NA,NA,NA,NA,NA,NA
dfba9,deep,flow.Sequence,3_0_6_0_1_0,NA,NA,completion,49743.64,1278240,1278231.08,1278247.72,1327991.36,1327993,2023-11-04T10:19:29Z,1328007.92,NULL,Flexibilität,kubadilika,d,NA,NA,NA,NA,dfs,NA,6,NA,NA,NA,NA,NA,NA,NA,NA,NA,NA,NA,NA,NA,NA,NA,NA,NA,NA,NA
dfba9,shallow,flow.Sequence,3_0_6_0_1_1,NA,NA,skipped,NA,1327993,NA,NA,1327991.36,1327993,2023-11-04T10:19:29Z,1328007.92,NULL,Flexibilität,kubadilika,d,NA,NA,NA,NA,dfs,NA,6,NA,NA,NA,NA,NA,NA,NA,NA,NA,NA,NA,NA,NA,NA,NA,NA,NA,NA,NA
dfba9,task,flow.Sequence,3_0_6_0_1,NA,NA,completion,49743.64,1278240,1278231.08,1278247.72,1327991.36,1327994,2023-11-04T10:19:29Z,1328007.92,NULL,Flexibilität,kubadilika,d,NA,NA,NA,NA,dfs,NA,6,NA,NA,NA,NA,NA,NA,NA,NA,NA,NA,NA,NA,NA,NA,NA,NA,NA,NA,NA
dfba9,deep,flow.Sequence,3_0_6_0_2_0,NA,NA,skipped,NA,1327994,NA,NA,1327991.36,1327994,2023-11-04T10:19:29Z,1328007.92,NULL,Verpackung,ufungaji,s,uhusiano,upimaji,uchunguzi,NA,dfs,NA,6,NA,NA,NA,NA,NA,NA,NA,NA,NA,NA,NA,NA,NA,NA,NA,NA,NA,NA,NA
dfba9,Shallow Question,html.Page,3_0_6_0_2_1_0,NA,NA,form submission,13401.08,1327995,1327991.36,1328007.92,1341409,1341409,2023-11-04T10:19:42Z,1341422.82,NULL,Verpackung,ufungaji,s,uhusiano,upimaji,uchunguzi,ufungaji,NA,NA,6,NA,NA,NA,NA,NA,NA,NA,NA,NA,NA,NA,NA,NA,NA,NA,NA,NA,NA,NA
dfba9,"""Richtig""-Screen",canvas.Screen,3_0_6_0_2_1_1,NA,NA,timeout,4999.3399999999,1341412,1341405.86,1341422.82,1346405.48,1346406,2023-11-04T10:19:47Z,1346422.16,NULL,Verpackung,ufungaji,s,uhusiano,upimaji,uchunguzi,NA,dfs,1,6,NA,NA,NA,NA,NA,NA,NA,NA,NA,NA,NA,NA,NA,NA,NA,NA,NA,NA,NA
dfba9,"""Falsch""-Screen",canvas.Screen,3_0_6_0_2_1_2,NA,NA,skipped,NA,1346407,NA,NA,1346405.48,1346408,2023-11-04T10:19:47Z,1346422.16,NULL,Verpackung,ufungaji,s,uhusiano,upimaji,uchunguzi,NA,dfs,NA,6,NA,NA,NA,NA,NA,NA,NA,NA,NA,NA,NA,NA,NA,NA,NA,NA,NA,NA,NA
dfba9,shallow,flow.Sequence,3_0_6_0_2_1,NA,NA,completion,18397.56,1327995,1327991.36,1328007.92,1346405.48,1346408,2023-11-04T10:19:47Z,1346422.16,NULL,Verpackung,ufungaji,s,uhusiano,upimaji,uchunguzi,NA,dfs,NA,6,NA,NA,NA,NA,NA,NA,NA,NA,NA,NA,NA,NA,NA,NA,NA,NA,NA,NA,NA
dfba9,task,flow.Sequence,3_0_6_0_2,NA,NA,completion,18397.56,1327994,1327991.36,1328007.92,1346405.48,1346409,2023-11-04T10:19:47Z,1346422.16,NULL,Verpackung,ufungaji,s,uhusiano,upimaji,uchunguzi,NA,dfs,NA,6,NA,NA,NA,NA,NA,NA,NA,NA,NA,NA,NA,NA,NA,NA,NA,NA,NA,NA,NA
dfba9,Deep Question,html.Page,3_0_6_0_3_0_0,NA,NA,form submission,12667.84,1346409,1346405.48,1346422.16,1359090,1359091,2023-11-04T10:20:00Z,1359089.9,NULL,Schock,mshtuko,d,NA,NA,NA,mshtuka,NA,NA,6,NA,NA,NA,NA,NA,NA,NA,NA,NA,NA,NA,NA,NA,NA,NA,NA,NA,NA,NA
dfba9,"""Richtig""-Screen",canvas.Screen,3_0_6_0_3_0_1,NA,NA,skipped,NA,1359092,NA,NA,1359090,1359092,2023-11-04T10:20:00Z,1359089.9,NULL,Schock,mshtuko,d,NA,NA,NA,NA,dfs,NA,6,NA,NA,NA,NA,NA,NA,NA,NA,NA,NA,NA,NA,NA,NA,NA,NA,NA,NA,NA
dfba9,"""Falsch""-Screen",canvas.Screen,3_0_6_0_3_0_2,NA,NA,timeout,4996.6600000001,1359094,1359089.58,1359089.9,1364069.88,1364071,2023-11-04T10:20:05Z,1364086.56,NULL,Schock,mshtuko,d,NA,NA,NA,NA,dfs,0,6,NA,NA,NA,NA,NA,NA,NA,NA,NA,NA,NA,NA,NA,NA,NA,NA,NA,NA,NA
dfba9,deep,flow.Sequence,3_0_6_0_3_0,NA,NA,completion,17647.72,1346409,1346405.48,1346422.16,1364069.88,1364072,2023-11-04T10:20:05Z,1364086.56,NULL,Schock,mshtuko,d,NA,NA,NA,NA,dfs,NA,6,NA,NA,NA,NA,NA,NA,NA,NA,NA,NA,NA,NA,NA,NA,NA,NA,NA,NA,NA
dfba9,shallow,flow.Sequence,3_0_6_0_3_1,NA,NA,skipped,NA,1364072,NA,NA,1364069.88,1364072,2023-11-04T10:20:05Z,1364086.56,NULL,Schock,mshtuko,d,NA,NA,NA,NA,dfs,NA,6,NA,NA,NA,NA,NA,NA,NA,NA,NA,NA,NA,NA,NA,NA,NA,NA,NA,NA,NA
dfba9,task,flow.Sequence,3_0_6_0_3,NA,NA,completion,17647.72,1346409,1346405.48,1346422.16,1364069.88,1364073,2023-11-04T10:20:05Z,1364086.56,NULL,Schock,mshtuko,d,NA,NA,NA,NA,dfs,NA,6,NA,NA,NA,NA,NA,NA,NA,NA,NA,NA,NA,NA,NA,NA,NA,NA,NA,NA,NA
dfba9,deep,flow.Sequence,3_0_6_0_4_0,NA,NA,skipped,NA,1364073,NA,NA,1364069.88,1364073,2023-11-04T10:20:05Z,1364086.56,NULL,Erneuerung,ukarabati,s,ushawishi,ukalifu,unyonyaji,NA,dfs,NA,6,NA,NA,NA,NA,NA,NA,NA,NA,NA,NA,NA,NA,NA,NA,NA,NA,NA,NA,NA
dfba9,Shallow Question,html.Page,3_0_6_0_4_1_0,NA,NA,form submission,16879.44,1364073,1364069.88,1364086.56,1380966,1380966,2023-11-04T10:20:22Z,1380967.66,NULL,Erneuerung,ukarabati,s,ushawishi,ukalifu,unyonyaji,ukarabati,NA,NA,6,NA,NA,NA,NA,NA,NA,NA,NA,NA,NA,NA,NA,NA,NA,NA,NA,NA,NA,NA
dfba9,"""Richtig""-Screen",canvas.Screen,3_0_6_0_4_1_1,NA,NA,timeout,4999.5600000001,1380968,1380955.7,1380967.66,1385950.54,1385952,2023-11-04T10:20:27Z,1385967.22,NULL,Erneuerung,ukarabati,s,ushawishi,ukalifu,unyonyaji,NA,dfs,1,6,NA,NA,NA,NA,NA,NA,NA,NA,NA,NA,NA,NA,NA,NA,NA,NA,NA,NA,NA
dfba9,"""Falsch""-Screen",canvas.Screen,3_0_6_0_4_1_2,NA,NA,skipped,NA,1385957,NA,NA,1385950.54,1385957,2023-11-04T10:20:27Z,1385967.22,NULL,Erneuerung,ukarabati,s,ushawishi,ukalifu,unyonyaji,NA,dfs,NA,6,NA,NA,NA,NA,NA,NA,NA,NA,NA,NA,NA,NA,NA,NA,NA,NA,NA,NA,NA
dfba9,shallow,flow.Sequence,3_0_6_0_4_1,NA,NA,completion,21863.98,1364073,1364069.88,1364086.56,1385950.54,1385958,2023-11-04T10:20:27Z,1385967.22,NULL,Erneuerung,ukarabati,s,ushawishi,ukalifu,unyonyaji,NA,dfs,NA,6,NA,NA,NA,NA,NA,NA,NA,NA,NA,NA,NA,NA,NA,NA,NA,NA,NA,NA,NA
dfba9,task,flow.Sequence,3_0_6_0_4,NA,NA,completion,21863.98,1364073,1364069.88,1364086.56,1385950.54,1385959,2023-11-04T10:20:27Z,1385967.22,NULL,Erneuerung,ukarabati,s,ushawishi,ukalifu,unyonyaji,NA,dfs,NA,6,NA,NA,NA,NA,NA,NA,NA,NA,NA,NA,NA,NA,NA,NA,NA,NA,NA,NA,NA
dfba9,Deep Question,html.Page,3_0_6_0_5_0_0,NA,NA,form submission,11254.78,1385959,1385950.54,1385967.22,1397222,1397222,2023-11-04T10:20:38Z,1397221.4,NULL,Atmosphäre,angahewa,d,NA,NA,NA,angahewa,NA,NA,6,NA,NA,NA,NA,NA,NA,NA,NA,NA,NA,NA,NA,NA,NA,NA,NA,NA,NA,NA
dfba9,"""Richtig""-Screen",canvas.Screen,3_0_6_0_5_0_1,NA,NA,timeout,4993.5800000001,1397225,1397221.14,1397221.4,1402198.36,1402200,2023-11-04T10:20:43Z,1402214.98,NULL,Atmosphäre,angahewa,d,NA,NA,NA,NA,dfs,1,6,NA,NA,NA,NA,NA,NA,NA,NA,NA,NA,NA,NA,NA,NA,NA,NA,NA,NA,NA
dfba9,"""Falsch""-Screen",canvas.Screen,3_0_6_0_5_0_2,NA,NA,skipped,NA,1402205,NA,NA,1402198.36,1402205,2023-11-04T10:20:43Z,1402214.98,NULL,Atmosphäre,angahewa,d,NA,NA,NA,NA,dfs,NA,6,NA,NA,NA,NA,NA,NA,NA,NA,NA,NA,NA,NA,NA,NA,NA,NA,NA,NA,NA
dfba9,deep,flow.Sequence,3_0_6_0_5_0,NA,NA,completion,16231.14,1385959,1385950.54,1385967.22,1402198.36,1402206,2023-11-04T10:20:43Z,1402214.98,NULL,Atmosphäre,angahewa,d,NA,NA,NA,NA,dfs,NA,6,NA,NA,NA,NA,NA,NA,NA,NA,NA,NA,NA,NA,NA,NA,NA,NA,NA,NA,NA
dfba9,shallow,flow.Sequence,3_0_6_0_5_1,NA,NA,skipped,NA,1402206,NA,NA,1402198.36,1402206,2023-11-04T10:20:43Z,1402214.98,NULL,Atmosphäre,angahewa,d,NA,NA,NA,NA,dfs,NA,6,NA,NA,NA,NA,NA,NA,NA,NA,NA,NA,NA,NA,NA,NA,NA,NA,NA,NA,NA
dfba9,task,flow.Sequence,3_0_6_0_5,NA,NA,completion,16231.14,1385959,1385950.54,1385967.22,1402198.36,1402207,2023-11-04T10:20:43Z,1402214.98,NULL,Atmosphäre,angahewa,d,NA,NA,NA,NA,dfs,NA,6,NA,NA,NA,NA,NA,NA,NA,NA,NA,NA,NA,NA,NA,NA,NA,NA,NA,NA,NA
dfba9,deep,flow.Sequence,3_0_6_0_6_0,NA,NA,skipped,NA,1402207,NA,NA,1402198.36,1402207,2023-11-04T10:20:43Z,1402214.98,NULL,Wechsel,ugeuzaji,s,utambulisho,kujenga,wasiwasi,NA,dfs,NA,6,NA,NA,NA,NA,NA,NA,NA,NA,NA,NA,NA,NA,NA,NA,NA,NA,NA,NA,NA
dfba9,Shallow Question,html.Page,3_0_6_0_6_1_0,NA,NA,form submission,19769.02,1402207,1402198.36,1402214.98,1421984,1421985,2023-11-04T10:21:03Z,1421995.96,NULL,Wechsel,ugeuzaji,s,utambulisho,kujenga,wasiwasi,ugeuzaji,NA,NA,6,NA,NA,NA,NA,NA,NA,NA,NA,NA,NA,NA,NA,NA,NA,NA,NA,NA,NA,NA
dfba9,"""Richtig""-Screen",canvas.Screen,3_0_6_0_6_1_1,NA,NA,timeout,4999.1000000001,1421990,1421980.54,1421995.96,1426978.48,1426979,2023-11-04T10:21:08Z,1426995.06,NULL,Wechsel,ugeuzaji,s,utambulisho,kujenga,wasiwasi,NA,dfs,1,6,NA,NA,NA,NA,NA,NA,NA,NA,NA,NA,NA,NA,NA,NA,NA,NA,NA,NA,NA
dfba9,"""Falsch""-Screen",canvas.Screen,3_0_6_0_6_1_2,NA,NA,skipped,NA,1426986,NA,NA,1426978.48,1426986,2023-11-04T10:21:08Z,1426995.06,NULL,Wechsel,ugeuzaji,s,utambulisho,kujenga,wasiwasi,NA,dfs,NA,6,NA,NA,NA,NA,NA,NA,NA,NA,NA,NA,NA,NA,NA,NA,NA,NA,NA,NA,NA
dfba9,shallow,flow.Sequence,3_0_6_0_6_1,NA,NA,completion,24763.5,1402207,1402198.36,1402214.98,1426978.48,1426986,2023-11-04T10:21:08Z,1426995.06,NULL,Wechsel,ugeuzaji,s,utambulisho,kujenga,wasiwasi,NA,dfs,NA,6,NA,NA,NA,NA,NA,NA,NA,NA,NA,NA,NA,NA,NA,NA,NA,NA,NA,NA,NA
