observation,sender,sender_type,sender_id,response,response_action,ended_on,duration,time_run,time_render,time_show,time_end,time_commit,timestamp,time_switch,german,swahili,enc,distractor1,distractor2,distractor3,response_2,x,correct,distractors,url_vp,url_sess,meta_labjs_version,meta_location,meta_user_agent,meta_platform,meta_language,meta_locale,meta_time_zone,meta_timezone_offset,meta_screen_width,meta_screen_height,meta_scroll_width,meta_scroll_height,meta_window_inner_width,meta_window_inner_height,meta_device_pixel_ratio,meta_labjs_build_flavor,meta_labjs_build_commit
48c95,Introduction delayed retrieval,canvas.Screen,0,weiter,keypress(Space),response,22404.76,1476,1480.42,1501.24,23906,23919,2024-11-05T15:17:31Z,23928.08,NA,NA,NA,NA,NA,NA,NA,NA,NA,NULL,165,2,20.2.4,https://neurocog.fernuni.ch/studies/vweber/delayed/index.html?vp=165&sess=2,Mozilla/5.0 (Windows NT 10.0; Win64; x64; rv:132.0) Gecko/20100101 Firefox/132.0,Win32,de,de-CH,Europe/Zurich,-60,1920,1080,958,870,958,918,1,production,f5b4a49f956347addd546a832a3327688c2c0fef
48c95,Deep Question,html.Page,1_0_0_0,NA,NA,form submission,38957.92,23923,23922.34,23928.08,62886,62886,2024-11-05T15:18:10Z,62889.34,Genehmigung,idhini,s,mwanamke,itikadi,fedheha,aghenefi,NA,NA,NULL,NA,NA,NA,NA,NA,NA,NA,NA,NA,NA,NA,NA,NA,NA,NA,NA,NA,NA,NA
48c95,Save data screen,canvas.Screen,1_0_0_1,NA,NA,timeout,499.74000000001,62889,62884.04,62889.34,63368.24,63370,2024-11-05T15:18:11Z,63389.08,Genehmigung,idhini,s,mwanamke,itikadi,fedheha,NA,NA,0,NULL,NA,NA,NA,NA,NA,NA,NA,NA,NA,NA,NA,NA,NA,NA,NA,NA,NA,NA,NA
48c95,deep,flow.Sequence,1_0_0,NA,NA,completion,39440.16,23922,23922.34,23928.08,63368.24,63370,2024-11-05T15:18:11Z,63389.08,Genehmigung,idhini,s,mwanamke,itikadi,fedheha,NA,NA,NA,NULL,NA,NA,NA,NA,NA,NA,NA,NA,NA,NA,NA,NA,NA,NA,NA,NA,NA,NA,NA
48c95,task,flow.Sequence,1_0,NA,NA,completion,39440.16,23922,23922.34,23928.08,63368.24,63371,2024-11-05T15:18:11Z,63389.08,Genehmigung,idhini,s,mwanamke,itikadi,fedheha,NA,NA,NA,NULL,NA,NA,NA,NA,NA,NA,NA,NA,NA,NA,NA,NA,NA,NA,NA,NA,NA,NA,NA
48c95,Deep Question,html.Page,1_1_0_0,NA,NA,form submission,18088.92,63372,63368.24,63389.08,81478,81479,2024-11-05T15:18:29Z,81483.48,Integrität,uadilifu,d,muungano,mtiririko,upunguaji,feshuni,NA,NA,NULL,NA,NA,NA,NA,NA,NA,NA,NA,NA,NA,NA,NA,NA,NA,NA,NA,NA,NA,NA
48c95,Save data screen,canvas.Screen,1_1_0_1,NA,NA,timeout,499.72,81482,81471.14,81483.48,81962.38,81964,2024-11-05T15:18:29Z,81983.2,Integrität,uadilifu,d,muungano,mtiririko,upunguaji,NA,NA,0,NULL,NA,NA,NA,NA,NA,NA,NA,NA,NA,NA,NA,NA,NA,NA,NA,NA,NA,NA,NA
48c95,deep,flow.Sequence,1_1_0,NA,NA,completion,18573.3,63372,63368.24,63389.08,81962.38,81965,2024-11-05T15:18:29Z,81983.2,Integrität,uadilifu,d,muungano,mtiririko,upunguaji,NA,NA,NA,NULL,NA,NA,NA,NA,NA,NA,NA,NA,NA,NA,NA,NA,NA,NA,NA,NA,NA,NA,NA
48c95,task,flow.Sequence,1_1,NA,NA,completion,18573.3,63371,63368.24,63389.08,81962.38,81965,2024-11-05T15:18:29Z,81983.2,Integrität,uadilifu,d,muungano,mtiririko,upunguaji,NA,NA,NA,NULL,NA,NA,NA,NA,NA,NA,NA,NA,NA,NA,NA,NA,NA,NA,NA,NA,NA,NA,NA
48c95,Deep Question,html.Page,1_2_0_0,NA,NA,form submission,9181.8,81965,81962.38,81983.2,91165,91166,2024-11-05T15:18:39Z,91165.76,Fleisch,mshakiki,d,kizunguzungu,mshikamano,angusho,wakaki,NA,NA,NULL,NA,NA,NA,NA,NA,NA,NA,NA,NA,NA,NA,NA,NA,NA,NA,NA,NA,NA,NA
48c95,Save data screen,canvas.Screen,1_2_0_1,NA,NA,timeout,501.3,91169,91161.98,91165.76,91646.3,91648,2024-11-05T15:18:39Z,91667.06,Fleisch,mshakiki,d,kizunguzungu,mshikamano,angusho,NA,NA,0,NULL,NA,NA,NA,NA,NA,NA,NA,NA,NA,NA,NA,NA,NA,NA,NA,NA,NA,NA,NA
48c95,deep,flow.Sequence,1_2_0,NA,NA,completion,9663.1,81965,81962.38,81983.2,91646.3,91648,2024-11-05T15:18:39Z,91667.06,Fleisch,mshakiki,d,kizunguzungu,mshikamano,angusho,NA,NA,NA,NULL,NA,NA,NA,NA,NA,NA,NA,NA,NA,NA,NA,NA,NA,NA,NA,NA,NA,NA,NA
48c95,task,flow.Sequence,1_2,NA,NA,completion,9663.1,81965,81962.38,81983.2,91646.3,91649,2024-11-05T15:18:39Z,91667.06,Fleisch,mshakiki,d,kizunguzungu,mshikamano,angusho,NA,NA,NA,NULL,NA,NA,NA,NA,NA,NA,NA,NA,NA,NA,NA,NA,NA,NA,NA,NA,NA,NA,NA
48c95,Deep Question,html.Page,1_3_0_0,NA,NA,form submission,32794.94,91650,91646.3,91667.06,124462,124463,2024-11-05T15:19:12Z,124463.1,Orientierung,urekebisho,d,uelekeo,marekebisho,utunzaji,awefanga,NA,NA,NULL,NA,NA,NA,NA,NA,NA,NA,NA,NA,NA,NA,NA,NA,NA,NA,NA,NA,NA,NA
48c95,Save data screen,canvas.Screen,1_3_0_1,NA,NA,timeout,499.73999999999,124466,124459.58,124463.1,124942,124943,2024-11-05T15:19:12Z,124962.84,Orientierung,urekebisho,d,uelekeo,marekebisho,utunzaji,NA,NA,0,NULL,NA,NA,NA,NA,NA,NA,NA,NA,NA,NA,NA,NA,NA,NA,NA,NA,NA,NA,NA
48c95,deep,flow.Sequence,1_3_0,NA,NA,completion,33274.94,91650,91646.3,91667.06,124942,124943,2024-11-05T15:19:12Z,124962.84,Orientierung,urekebisho,d,uelekeo,marekebisho,utunzaji,NA,NA,NA,NULL,NA,NA,NA,NA,NA,NA,NA,NA,NA,NA,NA,NA,NA,NA,NA,NA,NA,NA,NA
48c95,task,flow.Sequence,1_3,NA,NA,completion,33274.94,91649,91646.3,91667.06,124942,124944,2024-11-05T15:19:12Z,124962.84,Orientierung,urekebisho,d,uelekeo,marekebisho,utunzaji,NA,NA,NA,NULL,NA,NA,NA,NA,NA,NA,NA,NA,NA,NA,NA,NA,NA,NA,NA,NA,NA,NA,NA
48c95,Deep Question,html.Page,1_4_0_0,NA,NA,form submission,11700.16,124944,124942,124962.84,136663,136664,2024-11-05T15:19:24Z,136664.86,Entwicklung,maendeleo,s,uangavu,mshindwa,badiliko,ofunga,NA,NA,NULL,NA,NA,NA,NA,NA,NA,NA,NA,NA,NA,NA,NA,NA,NA,NA,NA,NA,NA,NA
48c95,Save data screen,canvas.Screen,1_4_0_1,NA,NA,timeout,499.72,136669,136659.26,136664.86,137143.76,137145,2024-11-05T15:19:25Z,137164.58,Entwicklung,maendeleo,s,uangavu,mshindwa,badiliko,NA,NA,0,NULL,NA,NA,NA,NA,NA,NA,NA,NA,NA,NA,NA,NA,NA,NA,NA,NA,NA,NA,NA
48c95,deep,flow.Sequence,1_4_0,NA,NA,completion,12180.92,124944,124942,124962.84,137143.76,137146,2024-11-05T15:19:25Z,137164.58,Entwicklung,maendeleo,s,uangavu,mshindwa,badiliko,NA,NA,NA,NULL,NA,NA,NA,NA,NA,NA,NA,NA,NA,NA,NA,NA,NA,NA,NA,NA,NA,NA,NA
48c95,task,flow.Sequence,1_4,NA,NA,completion,12180.92,124944,124942,124962.84,137143.76,137146,2024-11-05T15:19:25Z,137164.58,Entwicklung,maendeleo,s,uangavu,mshindwa,badiliko,NA,NA,NA,NULL,NA,NA,NA,NA,NA,NA,NA,NA,NA,NA,NA,NA,NA,NA,NA,NA,NA,NA,NA
48c95,Deep Question,html.Page,1_5_0_0,NA,NA,form submission,12149.42,137146,137143.76,137164.58,149314,149315,2024-11-05T15:19:37Z,149326.22,Wechsel,ugeuzaji,d,utambulisho,kujenga,wasiwasi,akmehdi,NA,NA,NULL,NA,NA,NA,NA,NA,NA,NA,NA,NA,NA,NA,NA,NA,NA,NA,NA,NA,NA,NA
48c95,Save data screen,canvas.Screen,1_5_0_1,NA,NA,timeout,499.72,149315,149310.9,149326.22,149805.12,149807,2024-11-05T15:19:37Z,149825.94,Wechsel,ugeuzaji,d,utambulisho,kujenga,wasiwasi,NA,NA,0,NULL,NA,NA,NA,NA,NA,NA,NA,NA,NA,NA,NA,NA,NA,NA,NA,NA,NA,NA,NA
48c95,deep,flow.Sequence,1_5_0,NA,NA,completion,12640.54,137146,137143.76,137164.58,149805.12,149807,2024-11-05T15:19:37Z,149825.94,Wechsel,ugeuzaji,d,utambulisho,kujenga,wasiwasi,NA,NA,NA,NULL,NA,NA,NA,NA,NA,NA,NA,NA,NA,NA,NA,NA,NA,NA,NA,NA,NA,NA,NA
48c95,task,flow.Sequence,1_5,NA,NA,completion,12640.54,137146,137143.76,137164.58,149805.12,149808,2024-11-05T15:19:37Z,149825.94,Wechsel,ugeuzaji,d,utambulisho,kujenga,wasiwasi,NA,NA,NA,NULL,NA,NA,NA,NA,NA,NA,NA,NA,NA,NA,NA,NA,NA,NA,NA,NA,NA,NA,NA
48c95,Deep Question,html.Page,1_6_0_0,NA,NA,form submission,16378.06,149808,149805.12,149825.94,166204,166204,2024-11-05T15:19:54Z,166212.94,Betrüger,mdanganyifu,s,mwanamuziki,wastani,mahakama,aweshifu,NA,NA,NULL,NA,NA,NA,NA,NA,NA,NA,NA,NA,NA,NA,NA,NA,NA,NA,NA,NA,NA,NA
48c95,Save data screen,canvas.Screen,1_6_0_1,NA,NA,timeout,499.72,166208,166201.04,166212.94,166691.84,166694,2024-11-05T15:19:54Z,166712.66,Betrüger,mdanganyifu,s,mwanamuziki,wastani,mahakama,NA,NA,0,NULL,NA,NA,NA,NA,NA,NA,NA,NA,NA,NA,NA,NA,NA,NA,NA,NA,NA,NA,NA
48c95,deep,flow.Sequence,1_6_0,NA,NA,completion,16865.9,149808,149805.12,149825.94,166691.84,166695,2024-11-05T15:19:54Z,166712.66,Betrüger,mdanganyifu,s,mwanamuziki,wastani,mahakama,NA,NA,NA,NULL,NA,NA,NA,NA,NA,NA,NA,NA,NA,NA,NA,NA,NA,NA,NA,NA,NA,NA,NA
48c95,task,flow.Sequence,1_6,NA,NA,completion,16865.9,149808,149805.12,149825.94,166691.84,166696,2024-11-05T15:19:54Z,166712.66,Betrüger,mdanganyifu,s,mwanamuziki,wastani,mahakama,NA,NA,NA,NULL,NA,NA,NA,NA,NA,NA,NA,NA,NA,NA,NA,NA,NA,NA,NA,NA,NA,NA,NA
48c95,Deep Question,html.Page,1_7_0_0,NA,NA,form submission,9994.34,166696,166691.84,166712.66,176707,176708,2024-11-05T15:20:04Z,176708.68,Erneuerung,ukarabati,d,ushawishi,ukalifu,unyonyaji,ogukili,NA,NA,NULL,NA,NA,NA,NA,NA,NA,NA,NA,NA,NA,NA,NA,NA,NA,NA,NA,NA,NA,NA
48c95,Save data screen,canvas.Screen,1_7_0_1,NA,NA,timeout,499.72,176711,176705.06,176708.68,177187.58,177188,2024-11-05T15:20:05Z,177208.4,Erneuerung,ukarabati,d,ushawishi,ukalifu,unyonyaji,NA,NA,0,NULL,NA,NA,NA,NA,NA,NA,NA,NA,NA,NA,NA,NA,NA,NA,NA,NA,NA,NA,NA
48c95,deep,flow.Sequence,1_7_0,NA,NA,completion,10474.92,166696,166691.84,166712.66,177187.58,177189,2024-11-05T15:20:05Z,177208.4,Erneuerung,ukarabati,d,ushawishi,ukalifu,unyonyaji,NA,NA,NA,NULL,NA,NA,NA,NA,NA,NA,NA,NA,NA,NA,NA,NA,NA,NA,NA,NA,NA,NA,NA
48c95,task,flow.Sequence,1_7,NA,NA,completion,10474.92,166696,166691.84,166712.66,177187.58,177190,2024-11-05T15:20:05Z,177208.4,Erneuerung,ukarabati,d,ushawishi,ukalifu,unyonyaji,NA,NA,NA,NULL,NA,NA,NA,NA,NA,NA,NA,NA,NA,NA,NA,NA,NA,NA,NA,NA,NA,NA,NA
48c95,Deep Question,html.Page,1_8_0_0,NA,NA,form submission,7930.6,177190,177187.58,177208.4,185139,185139,2024-11-05T15:20:13Z,185141.62,Niveau,kiwango,d,usimamizi,mwamali,mshairi,delotuni,NA,NA,NULL,NA,NA,NA,NA,NA,NA,NA,NA,NA,NA,NA,NA,NA,NA,NA,NA,NA,NA,NA
48c95,Save data screen,canvas.Screen,1_8_0_1,NA,NA,timeout,499.73999999999,185143,185136.36,185141.62,185620.54,185622,2024-11-05T15:20:13Z,185641.36,Niveau,kiwango,d,usimamizi,mwamali,mshairi,NA,NA,0,NULL,NA,NA,NA,NA,NA,NA,NA,NA,NA,NA,NA,NA,NA,NA,NA,NA,NA,NA,NA
48c95,deep,flow.Sequence,1_8_0,NA,NA,completion,8412.14,177190,177187.58,177208.4,185620.54,185623,2024-11-05T15:20:13Z,185641.36,Niveau,kiwango,d,usimamizi,mwamali,mshairi,NA,NA,NA,NULL,NA,NA,NA,NA,NA,NA,NA,NA,NA,NA,NA,NA,NA,NA,NA,NA,NA,NA,NA
48c95,task,flow.Sequence,1_8,NA,NA,completion,8412.14,177190,177187.58,177208.4,185620.54,185624,2024-11-05T15:20:13Z,185641.36,Niveau,kiwango,d,usimamizi,mwamali,mshairi,NA,NA,NA,NULL,NA,NA,NA,NA,NA,NA,NA,NA,NA,NA,NA,NA,NA,NA,NA,NA,NA,NA,NA
48c95,Deep Question,html.Page,1_9_0_0,NA,NA,form submission,7111.64,185624,185620.54,185641.36,192753,192753,2024-11-05T15:20:20Z,192762.52,Atmosphäre,angahewa,s,kuteseka,usahihi,kutoamini,fogundi,NA,NA,NULL,NA,NA,NA,NA,NA,NA,NA,NA,NA,NA,NA,NA,NA,NA,NA,NA,NA,NA,NA
48c95,Save data screen,canvas.Screen,1_9_0_1,NA,NA,timeout,499.72,192754,192750.7,192762.52,193241.42,193244,2024-11-05T15:20:21Z,193262.24,Atmosphäre,angahewa,s,kuteseka,usahihi,kutoamini,NA,NA,0,NULL,NA,NA,NA,NA,NA,NA,NA,NA,NA,NA,NA,NA,NA,NA,NA,NA,NA,NA,NA
48c95,deep,flow.Sequence,1_9_0,NA,NA,completion,7600.06,185624,185620.54,185641.36,193241.42,193244,2024-11-05T15:20:21Z,193262.24,Atmosphäre,angahewa,s,kuteseka,usahihi,kutoamini,NA,NA,NA,NULL,NA,NA,NA,NA,NA,NA,NA,NA,NA,NA,NA,NA,NA,NA,NA,NA,NA,NA,NA
48c95,task,flow.Sequence,1_9,NA,NA,completion,7600.06,185624,185620.54,185641.36,193241.42,193245,2024-11-05T15:20:21Z,193262.24,Atmosphäre,angahewa,s,kuteseka,usahihi,kutoamini,NA,NA,NA,NULL,NA,NA,NA,NA,NA,NA,NA,NA,NA,NA,NA,NA,NA,NA,NA,NA,NA,NA,NA
48c95,Deep Question,html.Page,1_10_0_0,NA,NA,form submission,7380.76,193245,193241.42,193262.24,200643,200644,2024-11-05T15:20:28Z,200654.1,Begegnung,kukutana,s,mmasihiya,mpiganaji,husiano,akwalili,NA,NA,NULL,NA,NA,NA,NA,NA,NA,NA,NA,NA,NA,NA,NA,NA,NA,NA,NA,NA,NA,NA
48c95,Save data screen,canvas.Screen,1_10_0_1,NA,NA,timeout,499.72,200647,200640.92,200654.1,201133,201136,2024-11-05T15:20:29Z,201153.82,Begegnung,kukutana,s,mmasihiya,mpiganaji,husiano,NA,NA,0,NULL,NA,NA,NA,NA,NA,NA,NA,NA,NA,NA,NA,NA,NA,NA,NA,NA,NA,NA,NA
48c95,deep,flow.Sequence,1_10_0,NA,NA,completion,7870.76,193245,193241.42,193262.24,201133,201137,2024-11-05T15:20:29Z,201153.82,Begegnung,kukutana,s,mmasihiya,mpiganaji,husiano,NA,NA,NA,NULL,NA,NA,NA,NA,NA,NA,NA,NA,NA,NA,NA,NA,NA,NA,NA,NA,NA,NA,NA
48c95,task,flow.Sequence,1_10,NA,NA,completion,7870.76,193245,193241.42,193262.24,201133,201137,2024-11-05T15:20:29Z,201153.82,Begegnung,kukutana,s,mmasihiya,mpiganaji,husiano,NA,NA,NA,NULL,NA,NA,NA,NA,NA,NA,NA,NA,NA,NA,NA,NA,NA,NA,NA,NA,NA,NA,NA
48c95,Deep Question,html.Page,1_11_0_0,NA,NA,form submission,11421.18,201137,201133,201153.82,212575,212575,2024-11-05T15:20:40Z,212586.74,Papier,karatasi,d,uchambuzi,usalama,kukataliwa,wagaki,NA,NA,NULL,NA,NA,NA,NA,NA,NA,NA,NA,NA,NA,NA,NA,NA,NA,NA,NA,NA,NA,NA
48c95,Save data screen,canvas.Screen,1_11_0_1,NA,NA,timeout,499.72,212579,212572.54,212586.74,213065.64,213068,2024-11-05T15:20:40Z,213086.46,Papier,karatasi,d,uchambuzi,usalama,kukataliwa,NA,NA,0,NULL,NA,NA,NA,NA,NA,NA,NA,NA,NA,NA,NA,NA,NA,NA,NA,NA,NA,NA,NA
48c95,deep,flow.Sequence,1_11_0,NA,NA,completion,11911.82,201137,201133,201153.82,213065.64,213068,2024-11-05T15:20:40Z,213086.46,Papier,karatasi,d,uchambuzi,usalama,kukataliwa,NA,NA,NA,NULL,NA,NA,NA,NA,NA,NA,NA,NA,NA,NA,NA,NA,NA,NA,NA,NA,NA,NA,NA
48c95,task,flow.Sequence,1_11,NA,NA,completion,11911.82,201137,201133,201153.82,213065.64,213068,2024-11-05T15:20:40Z,213086.46,Papier,karatasi,d,uchambuzi,usalama,kukataliwa,NA,NA,NA,NULL,NA,NA,NA,NA,NA,NA,NA,NA,NA,NA,NA,NA,NA,NA,NA,NA,NA,NA,NA
48c95,Deep Question,html.Page,1_12_0_0,NA,NA,form submission,8629.54,213069,213065.64,213086.46,221716,221717,2024-11-05T15:20:49Z,221727.64,Respekt,heshima,d,changamnao,upinzani,ufanisi,dekoundi,NA,NA,NULL,NA,NA,NA,NA,NA,NA,NA,NA,NA,NA,NA,NA,NA,NA,NA,NA,NA,NA,NA
48c95,Save data screen,canvas.Screen,1_12_0_1,NA,NA,timeout,499.71999999997,221720,221714.32,221727.64,222206.54,222209,2024-11-05T15:20:50Z,222227.36,Respekt,heshima,d,changamnao,upinzani,ufanisi,NA,NA,0,NULL,NA,NA,NA,NA,NA,NA,NA,NA,NA,NA,NA,NA,NA,NA,NA,NA,NA,NA,NA
48c95,deep,flow.Sequence,1_12_0,NA,NA,completion,9120.08,213069,213065.64,213086.46,222206.54,222209,2024-11-05T15:20:50Z,222227.36,Respekt,heshima,d,changamnao,upinzani,ufanisi,NA,NA,NA,NULL,NA,NA,NA,NA,NA,NA,NA,NA,NA,NA,NA,NA,NA,NA,NA,NA,NA,NA,NA
48c95,task,flow.Sequence,1_12,NA,NA,completion,9120.08,213069,213065.64,213086.46,222206.54,222209,2024-11-05T15:20:50Z,222227.36,Respekt,heshima,d,changamnao,upinzani,ufanisi,NA,NA,NA,NULL,NA,NA,NA,NA,NA,NA,NA,NA,NA,NA,NA,NA,NA,NA,NA,NA,NA,NA,NA
48c95,Deep Question,html.Page,1_13_0_0,NA,NA,form submission,9379.64,222210,222206.54,222227.36,231607,231607,2024-11-05T15:20:59Z,231618.14,Stimmung,kinyongo,s,kilekile,kisambo,madhehebu,geofili,NA,NA,NULL,NA,NA,NA,NA,NA,NA,NA,NA,NA,NA,NA,NA,NA,NA,NA,NA,NA,NA,NA
48c95,Save data screen,canvas.Screen,1_13_0_1,NA,NA,timeout,499.71999999997,231610,231603.88,231618.14,232097.04,232100,2024-11-05T15:20:59Z,232117.86,Stimmung,kinyongo,s,kilekile,kisambo,madhehebu,NA,NA,0,NULL,NA,NA,NA,NA,NA,NA,NA,NA,NA,NA,NA,NA,NA,NA,NA,NA,NA,NA,NA
48c95,deep,flow.Sequence,1_13_0,NA,NA,completion,9869.68,222209,222206.54,222227.36,232097.04,232100,2024-11-05T15:20:59Z,232117.86,Stimmung,kinyongo,s,kilekile,kisambo,madhehebu,NA,NA,NA,NULL,NA,NA,NA,NA,NA,NA,NA,NA,NA,NA,NA,NA,NA,NA,NA,NA,NA,NA,NA
48c95,task,flow.Sequence,1_13,NA,NA,completion,9869.68,222209,222206.54,222227.36,232097.04,232101,2024-11-05T15:20:59Z,232117.86,Stimmung,kinyongo,s,kilekile,kisambo,madhehebu,NA,NA,NA,NULL,NA,NA,NA,NA,NA,NA,NA,NA,NA,NA,NA,NA,NA,NA,NA,NA,NA,NA,NA
48c95,Deep Question,html.Page,1_14_0_0,NA,NA,form submission,9163.14,232101,232097.04,232117.86,241281,241282,2024-11-05T15:21:09Z,241281.1,Vorwurf,mashtaka,s,msukumo,mtangulizi,uenyekiti,wodundi,NA,NA,NULL,NA,NA,NA,NA,NA,NA,NA,NA,NA,NA,NA,NA,NA,NA,NA,NA,NA,NA,NA
48c95,Save data screen,canvas.Screen,1_14_0_1,NA,NA,timeout,499.73999999999,241284,241278.66,241281.1,241760.02,241762,2024-11-05T15:21:09Z,241780.84,Vorwurf,mashtaka,s,msukumo,mtangulizi,uenyekiti,NA,NA,0,NULL,NA,NA,NA,NA,NA,NA,NA,NA,NA,NA,NA,NA,NA,NA,NA,NA,NA,NA,NA
48c95,deep,flow.Sequence,1_14_0,NA,NA,completion,9642.16,232101,232097.04,232117.86,241760.02,241763,2024-11-05T15:21:09Z,241780.84,Vorwurf,mashtaka,s,msukumo,mtangulizi,uenyekiti,NA,NA,NA,NULL,NA,NA,NA,NA,NA,NA,NA,NA,NA,NA,NA,NA,NA,NA,NA,NA,NA,NA,NA
48c95,task,flow.Sequence,1_14,NA,NA,completion,9642.16,232101,232097.04,232117.86,241760.02,241763,2024-11-05T15:21:09Z,241780.84,Vorwurf,mashtaka,s,msukumo,mtangulizi,uenyekiti,NA,NA,NA,NULL,NA,NA,NA,NA,NA,NA,NA,NA,NA,NA,NA,NA,NA,NA,NA,NA,NA,NA,NA
48c95,Deep Question,html.Page,1_15_0_0,NA,NA,form submission,10149.16,241763,241760.02,241780.84,251930,251931,2024-11-05T15:21:19Z,251942.02,Flexibilität,kubadilika,s,enjini,usikilivu,hesabu,akwanda,NA,NA,NULL,NA,NA,NA,NA,NA,NA,NA,NA,NA,NA,NA,NA,NA,NA,NA,NA,NA,NA,NA
48c95,Save data screen,canvas.Screen,1_15_0_1,NA,NA,timeout,499.74000000002,251933,251927.3,251942.02,252420.94,252422,2024-11-05T15:21:20Z,252441.76,Flexibilität,kubadilika,s,enjini,usikilivu,hesabu,NA,NA,0,NULL,NA,NA,NA,NA,NA,NA,NA,NA,NA,NA,NA,NA,NA,NA,NA,NA,NA,NA,NA
48c95,deep,flow.Sequence,1_15_0,NA,NA,completion,10640.1,241763,241760.02,241780.84,252420.94,252423,2024-11-05T15:21:20Z,252441.76,Flexibilität,kubadilika,s,enjini,usikilivu,hesabu,NA,NA,NA,NULL,NA,NA,NA,NA,NA,NA,NA,NA,NA,NA,NA,NA,NA,NA,NA,NA,NA,NA,NA
48c95,task,flow.Sequence,1_15,NA,NA,completion,10640.1,241763,241760.02,241780.84,252420.94,252423,2024-11-05T15:21:20Z,252441.76,Flexibilität,kubadilika,s,enjini,usikilivu,hesabu,NA,NA,NA,NULL,NA,NA,NA,NA,NA,NA,NA,NA,NA,NA,NA,NA,NA,NA,NA,NA,NA,NA,NA
48c95,retrieval block 1 (cued recall),flow.Loop,1,NA,NA,completion,228492.86,23922,23922.34,23928.08,252420.94,252424,2024-11-05T15:21:20Z,252441.76,NA,NA,NA,NA,NA,NA,NA,NA,NA,NULL,NA,NA,NA,NA,NA,NA,NA,NA,NA,NA,NA,NA,NA,NA,NA,NA,NA,NA,NA
48c95,Shallow Question,html.Page,2_0_0_0,NA,NA,form submission,8170.24,252424,252420.94,252441.76,260612,260613,2024-11-05T15:21:28Z,260624.84,Niveau,kiwango,d,usimamizi,mwamali,mshairi,kiwango,NA,NA,"c(""distractor1"", ""distractor2"", ""distractor3"")",NA,NA,NA,NA,NA,NA,NA,NA,NA,NA,NA,NA,NA,NA,NA,NA,NA,NA,NA
48c95,Save data screen,canvas.Screen,2_0_0_1,NA,NA,timeout,499.72,260615,260609.74,260624.84,261103.74,261106,2024-11-05T15:21:28Z,261124.56,Niveau,kiwango,d,usimamizi,mwamali,mshairi,NA,NA,1,"c(""distractor1"", ""distractor2"", ""distractor3"")",NA,NA,NA,NA,NA,NA,NA,NA,NA,NA,NA,NA,NA,NA,NA,NA,NA,NA,NA
48c95,shallow,flow.Sequence,2_0_0,NA,NA,completion,8661.98,252424,252420.94,252441.76,261103.74,261107,2024-11-05T15:21:28Z,261124.56,Niveau,kiwango,d,usimamizi,mwamali,mshairi,NA,NA,NA,"c(""distractor1"", ""distractor2"", ""distractor3"")",NA,NA,NA,NA,NA,NA,NA,NA,NA,NA,NA,NA,NA,NA,NA,NA,NA,NA,NA
48c95,task,flow.Sequence,2_0,NA,NA,completion,8661.98,252424,252420.94,252441.76,261103.74,261108,2024-11-05T15:21:28Z,261124.56,Niveau,kiwango,d,usimamizi,mwamali,mshairi,NA,NA,NA,"c(""distractor1"", ""distractor2"", ""distractor3"")",NA,NA,NA,NA,NA,NA,NA,NA,NA,NA,NA,NA,NA,NA,NA,NA,NA,NA,NA
48c95,Shallow Question,html.Page,2_1_0_0,NA,NA,form submission,7837.44,261108,261103.74,261124.56,268962,268964,2024-11-05T15:21:36Z,268975.94,Betrüger,mdanganyifu,s,mwanamuziki,wastani,mahakama,mdanganyifu,NA,NA,"c(""distractor1"", ""distractor2"", ""distractor3"")",NA,NA,NA,NA,NA,NA,NA,NA,NA,NA,NA,NA,NA,NA,NA,NA,NA,NA,NA
48c95,Save data screen,canvas.Screen,2_1_0_1,NA,NA,timeout,499.73999999999,268965,268960.18,268975.94,269454.86,269456,2024-11-05T15:21:37Z,269475.68,Betrüger,mdanganyifu,s,mwanamuziki,wastani,mahakama,NA,NA,1,"c(""distractor1"", ""distractor2"", ""distractor3"")",NA,NA,NA,NA,NA,NA,NA,NA,NA,NA,NA,NA,NA,NA,NA,NA,NA,NA,NA
48c95,shallow,flow.Sequence,2_1_0,NA,NA,completion,8330.3,261108,261103.74,261124.56,269454.86,269457,2024-11-05T15:21:37Z,269475.68,Betrüger,mdanganyifu,s,mwanamuziki,wastani,mahakama,NA,NA,NA,"c(""distractor1"", ""distractor2"", ""distractor3"")",NA,NA,NA,NA,NA,NA,NA,NA,NA,NA,NA,NA,NA,NA,NA,NA,NA,NA,NA
48c95,task,flow.Sequence,2_1,NA,NA,completion,8330.3,261108,261103.74,261124.56,269454.86,269457,2024-11-05T15:21:37Z,269475.68,Betrüger,mdanganyifu,s,mwanamuziki,wastani,mahakama,NA,NA,NA,"c(""distractor1"", ""distractor2"", ""distractor3"")",NA,NA,NA,NA,NA,NA,NA,NA,NA,NA,NA,NA,NA,NA,NA,NA,NA,NA,NA
48c95,Shallow Question,html.Page,2_2_0_0,NA,NA,form submission,7091.32,269457,269454.86,269475.68,276567,276568,2024-11-05T15:21:44Z,276576.02,Fleisch,mshakiki,d,kizunguzungu,mshikamano,angusho,mshakiki,NA,NA,"c(""distractor1"", ""distractor2"", ""distractor3"")",NA,NA,NA,NA,NA,NA,NA,NA,NA,NA,NA,NA,NA,NA,NA,NA,NA,NA,NA
48c95,Save data screen,canvas.Screen,2_2_0_1,NA,NA,timeout,499.71999999997,276571,276564.94,276576.02,277054.92,277057,2024-11-05T15:21:44Z,277075.74,Fleisch,mshakiki,d,kizunguzungu,mshikamano,angusho,NA,NA,1,"c(""distractor1"", ""distractor2"", ""distractor3"")",NA,NA,NA,NA,NA,NA,NA,NA,NA,NA,NA,NA,NA,NA,NA,NA,NA,NA,NA
48c95,shallow,flow.Sequence,2_2_0,NA,NA,completion,7579.24,269457,269454.86,269475.68,277054.92,277058,2024-11-05T15:21:44Z,277075.74,Fleisch,mshakiki,d,kizunguzungu,mshikamano,angusho,NA,NA,NA,"c(""distractor1"", ""distractor2"", ""distractor3"")",NA,NA,NA,NA,NA,NA,NA,NA,NA,NA,NA,NA,NA,NA,NA,NA,NA,NA,NA
48c95,task,flow.Sequence,2_2,NA,NA,completion,7579.24,269457,269454.86,269475.68,277054.92,277058,2024-11-05T15:21:44Z,277075.74,Fleisch,mshakiki,d,kizunguzungu,mshikamano,angusho,NA,NA,NA,"c(""distractor1"", ""distractor2"", ""distractor3"")",NA,NA,NA,NA,NA,NA,NA,NA,NA,NA,NA,NA,NA,NA,NA,NA,NA,NA,NA
48c95,Shallow Question,html.Page,2_3_0_0,NA,NA,form submission,9180.26,277059,277054.92,277075.74,286256,286257,2024-11-05T15:21:54Z,286258.28,Wechsel,ugeuzaji,d,utambulisho,kujenga,wasiwasi,utambulisho,NA,NA,"c(""distractor1"", ""distractor2"", ""distractor3"")",NA,NA,NA,NA,NA,NA,NA,NA,NA,NA,NA,NA,NA,NA,NA,NA,NA,NA,NA
48c95,Save data screen,canvas.Screen,2_3_0_1,NA,NA,timeout,499.73999999999,286258,286253.18,286258.28,286737.2,286740,2024-11-05T15:21:54Z,286758.02,Wechsel,ugeuzaji,d,utambulisho,kujenga,wasiwasi,NA,NA,0,"c(""distractor1"", ""distractor2"", ""distractor3"")",NA,NA,NA,NA,NA,NA,NA,NA,NA,NA,NA,NA,NA,NA,NA,NA,NA,NA,NA
48c95,shallow,flow.Sequence,2_3_0,NA,NA,completion,9661.46,277058,277054.92,277075.74,286737.2,286741,2024-11-05T15:21:54Z,286758.02,Wechsel,ugeuzaji,d,utambulisho,kujenga,wasiwasi,NA,NA,NA,"c(""distractor1"", ""distractor2"", ""distractor3"")",NA,NA,NA,NA,NA,NA,NA,NA,NA,NA,NA,NA,NA,NA,NA,NA,NA,NA,NA
48c95,task,flow.Sequence,2_3,NA,NA,completion,9661.46,277058,277054.92,277075.74,286737.2,286741,2024-11-05T15:21:54Z,286758.02,Wechsel,ugeuzaji,d,utambulisho,kujenga,wasiwasi,NA,NA,NA,"c(""distractor1"", ""distractor2"", ""distractor3"")",NA,NA,NA,NA,NA,NA,NA,NA,NA,NA,NA,NA,NA,NA,NA,NA,NA,NA,NA
48c95,Shallow Question,html.Page,2_4_0_0,NA,NA,form submission,8187.98,286741,286737.2,286758.02,294946,294947,2024-11-05T15:22:02Z,294963.5,Erneuerung,ukarabati,d,ushawishi,ukalifu,unyonyaji,ukarabati,NA,NA,"c(""distractor1"", ""distractor2"", ""distractor3"")",NA,NA,NA,NA,NA,NA,NA,NA,NA,NA,NA,NA,NA,NA,NA,NA,NA,NA,NA
48c95,Save data screen,canvas.Screen,2_4_0_1,NA,NA,timeout,499.71999999997,294949,294943.96,294963.5,295442.4,295444,2024-11-05T15:22:03Z,295463.22,Erneuerung,ukarabati,d,ushawishi,ukalifu,unyonyaji,NA,NA,1,"c(""distractor1"", ""distractor2"", ""distractor3"")",NA,NA,NA,NA,NA,NA,NA,NA,NA,NA,NA,NA,NA,NA,NA,NA,NA,NA,NA
48c95,shallow,flow.Sequence,2_4_0,NA,NA,completion,8684.38,286741,286737.2,286758.02,295442.4,295445,2024-11-05T15:22:03Z,295463.22,Erneuerung,ukarabati,d,ushawishi,ukalifu,unyonyaji,NA,NA,NA,"c(""distractor1"", ""distractor2"", ""distractor3"")",NA,NA,NA,NA,NA,NA,NA,NA,NA,NA,NA,NA,NA,NA,NA,NA,NA,NA,NA
48c95,task,flow.Sequence,2_4,NA,NA,completion,8684.38,286741,286737.2,286758.02,295442.4,295445,2024-11-05T15:22:03Z,295463.22,Erneuerung,ukarabati,d,ushawishi,ukalifu,unyonyaji,NA,NA,NA,"c(""distractor1"", ""distractor2"", ""distractor3"")",NA,NA,NA,NA,NA,NA,NA,NA,NA,NA,NA,NA,NA,NA,NA,NA,NA,NA,NA
48c95,Shallow Question,html.Page,2_5_0_0,NA,NA,form submission,20364.78,295445,295442.4,295463.22,315828,315828,2024-11-05T15:22:23Z,315827.24,Atmosphäre,angahewa,s,kuteseka,usahihi,kutoamini,angahewa,NA,NA,"c(""distractor1"", ""distractor2"", ""distractor3"")",NA,NA,NA,NA,NA,NA,NA,NA,NA,NA,NA,NA,NA,NA,NA,NA,NA,NA,NA
48c95,Save data screen,canvas.Screen,2_5_0_1,NA,NA,timeout,499.72000000003,315832,315825.52,315827.24,316306.14,316309,2024-11-05T15:22:24Z,316326.96,Atmosphäre,angahewa,s,kuteseka,usahihi,kutoamini,NA,NA,1,"c(""distractor1"", ""distractor2"", ""distractor3"")",NA,NA,NA,NA,NA,NA,NA,NA,NA,NA,NA,NA,NA,NA,NA,NA,NA,NA,NA
48c95,shallow,flow.Sequence,2_5_0,NA,NA,completion,20842.92,295445,295442.4,295463.22,316306.14,316309,2024-11-05T15:22:24Z,316326.96,Atmosphäre,angahewa,s,kuteseka,usahihi,kutoamini,NA,NA,NA,"c(""distractor1"", ""distractor2"", ""distractor3"")",NA,NA,NA,NA,NA,NA,NA,NA,NA,NA,NA,NA,NA,NA,NA,NA,NA,NA,NA
48c95,task,flow.Sequence,2_5,NA,NA,completion,20842.92,295445,295442.4,295463.22,316306.14,316310,2024-11-05T15:22:24Z,316326.96,Atmosphäre,angahewa,s,kuteseka,usahihi,kutoamini,NA,NA,NA,"c(""distractor1"", ""distractor2"", ""distractor3"")",NA,NA,NA,NA,NA,NA,NA,NA,NA,NA,NA,NA,NA,NA,NA,NA,NA,NA,NA
48c95,Shallow Question,html.Page,2_6_0_0,NA,NA,form submission,8661.04,316311,316306.14,316326.96,324988,324988,2024-11-05T15:22:32Z,324990.64,Stimmung,kinyongo,s,kilekile,kisambo,madhehebu,kisambo,NA,NA,"c(""distractor1"", ""distractor2"", ""distractor3"")",NA,NA,NA,NA,NA,NA,NA,NA,NA,NA,NA,NA,NA,NA,NA,NA,NA,NA,NA
48c95,Save data screen,canvas.Screen,2_6_0_1,NA,NA,timeout,499.73999999999,324990,324985.06,324990.64,325469.56,325474,2024-11-05T15:22:33Z,325490.38,Stimmung,kinyongo,s,kilekile,kisambo,madhehebu,NA,NA,0,"c(""distractor1"", ""distractor2"", ""distractor3"")",NA,NA,NA,NA,NA,NA,NA,NA,NA,NA,NA,NA,NA,NA,NA,NA,NA,NA,NA
48c95,shallow,flow.Sequence,2_6_0,NA,NA,completion,9142.6,316311,316306.14,316326.96,325469.56,325474,2024-11-05T15:22:33Z,325490.38,Stimmung,kinyongo,s,kilekile,kisambo,madhehebu,NA,NA,NA,"c(""distractor1"", ""distractor2"", ""distractor3"")",NA,NA,NA,NA,NA,NA,NA,NA,NA,NA,NA,NA,NA,NA,NA,NA,NA,NA,NA
48c95,task,flow.Sequence,2_6,NA,NA,completion,9142.6,316310,316306.14,316326.96,325469.56,325475,2024-11-05T15:22:33Z,325490.38,Stimmung,kinyongo,s,kilekile,kisambo,madhehebu,NA,NA,NA,"c(""distractor1"", ""distractor2"", ""distractor3"")",NA,NA,NA,NA,NA,NA,NA,NA,NA,NA,NA,NA,NA,NA,NA,NA,NA,NA,NA
48c95,Shallow Question,html.Page,2_7_0_0,NA,NA,form submission,9586.62,325475,325469.56,325490.38,335077,335080,2024-11-05T15:22:42Z,335089.36,Respekt,heshima,d,changamnao,upinzani,ufanisi,heshima,NA,NA,"c(""distractor1"", ""distractor2"", ""distractor3"")",NA,NA,NA,NA,NA,NA,NA,NA,NA,NA,NA,NA,NA,NA,NA,NA,NA,NA,NA
48c95,Save data screen,canvas.Screen,2_7_0_1,NA,NA,timeout,499.73999999999,335083,335073.44,335089.36,335568.28,335571,2024-11-05T15:22:43Z,335589.1,Respekt,heshima,d,changamnao,upinzani,ufanisi,NA,NA,1,"c(""distractor1"", ""distractor2"", ""distractor3"")",NA,NA,NA,NA,NA,NA,NA,NA,NA,NA,NA,NA,NA,NA,NA,NA,NA,NA,NA
48c95,shallow,flow.Sequence,2_7_0,NA,NA,completion,10077.9,325475,325469.56,325490.38,335568.28,335571,2024-11-05T15:22:43Z,335589.1,Respekt,heshima,d,changamnao,upinzani,ufanisi,NA,NA,NA,"c(""distractor1"", ""distractor2"", ""distractor3"")",NA,NA,NA,NA,NA,NA,NA,NA,NA,NA,NA,NA,NA,NA,NA,NA,NA,NA,NA
48c95,task,flow.Sequence,2_7,NA,NA,completion,10077.9,325475,325469.56,325490.38,335568.28,335572,2024-11-05T15:22:43Z,335589.1,Respekt,heshima,d,changamnao,upinzani,ufanisi,NA,NA,NA,"c(""distractor1"", ""distractor2"", ""distractor3"")",NA,NA,NA,NA,NA,NA,NA,NA,NA,NA,NA,NA,NA,NA,NA,NA,NA,NA,NA
48c95,Shallow Question,html.Page,2_8_0_0,NA,NA,form submission,7935.9,335573,335568.28,335589.1,343525,343525,2024-11-05T15:22:51Z,343522.32,Flexibilität,kubadilika,s,enjini,usikilivu,hesabu,kubadilika,NA,NA,"c(""distractor1"", ""distractor2"", ""distractor3"")",NA,NA,NA,NA,NA,NA,NA,NA,NA,NA,NA,NA,NA,NA,NA,NA,NA,NA,NA
48c95,Save data screen,canvas.Screen,2_8_0_1,NA,NA,timeout,499.71999999997,343529,343521.5,343522.32,344001.22,344004,2024-11-05T15:22:51Z,344022.04,Flexibilität,kubadilika,s,enjini,usikilivu,hesabu,NA,NA,1,"c(""distractor1"", ""distractor2"", ""distractor3"")",NA,NA,NA,NA,NA,NA,NA,NA,NA,NA,NA,NA,NA,NA,NA,NA,NA,NA,NA
48c95,shallow,flow.Sequence,2_8_0,NA,NA,completion,8412.12,335572,335568.28,335589.1,344001.22,344005,2024-11-05T15:22:51Z,344022.04,Flexibilität,kubadilika,s,enjini,usikilivu,hesabu,NA,NA,NA,"c(""distractor1"", ""distractor2"", ""distractor3"")",NA,NA,NA,NA,NA,NA,NA,NA,NA,NA,NA,NA,NA,NA,NA,NA,NA,NA,NA
48c95,task,flow.Sequence,2_8,NA,NA,completion,8412.12,335572,335568.28,335589.1,344001.22,344006,2024-11-05T15:22:51Z,344022.04,Flexibilität,kubadilika,s,enjini,usikilivu,hesabu,NA,NA,NA,"c(""distractor1"", ""distractor2"", ""distractor3"")",NA,NA,NA,NA,NA,NA,NA,NA,NA,NA,NA,NA,NA,NA,NA,NA,NA,NA,NA
48c95,Shallow Question,html.Page,2_9_0_0,NA,NA,form submission,10202.96,344006,344001.22,344022.04,354225,354226,2024-11-05T15:23:02Z,354226.48,Orientierung,urekebisho,d,uelekeo,marekebisho,utunzaji,urekebisho,NA,NA,"c(""distractor1"", ""distractor2"", ""distractor3"")",NA,NA,NA,NA,NA,NA,NA,NA,NA,NA,NA,NA,NA,NA,NA,NA,NA,NA,NA
48c95,Save data screen,canvas.Screen,2_9_0_1,NA,NA,timeout,499.73999999999,354228,354222.24,354226.48,354705.4,354707,2024-11-05T15:23:02Z,354726.22,Orientierung,urekebisho,d,uelekeo,marekebisho,utunzaji,NA,NA,1,"c(""distractor1"", ""distractor2"", ""distractor3"")",NA,NA,NA,NA,NA,NA,NA,NA,NA,NA,NA,NA,NA,NA,NA,NA,NA,NA,NA
48c95,shallow,flow.Sequence,2_9_0,NA,NA,completion,10683.36,344006,344001.22,344022.04,354705.4,354708,2024-11-05T15:23:02Z,354726.22,Orientierung,urekebisho,d,uelekeo,marekebisho,utunzaji,NA,NA,NA,"c(""distractor1"", ""distractor2"", ""distractor3"")",NA,NA,NA,NA,NA,NA,NA,NA,NA,NA,NA,NA,NA,NA,NA,NA,NA,NA,NA
48c95,task,flow.Sequence,2_9,NA,NA,completion,10683.36,344006,344001.22,344022.04,354705.4,354708,2024-11-05T15:23:02Z,354726.22,Orientierung,urekebisho,d,uelekeo,marekebisho,utunzaji,NA,NA,NA,"c(""distractor1"", ""distractor2"", ""distractor3"")",NA,NA,NA,NA,NA,NA,NA,NA,NA,NA,NA,NA,NA,NA,NA,NA,NA,NA,NA
48c95,Shallow Question,html.Page,2_10_0_0,NA,NA,form submission,8998.78,354708,354705.4,354726.22,363725,363726,2024-11-05T15:23:11Z,363742.18,Entwicklung,maendeleo,s,uangavu,mshindwa,badiliko,maendeleo,NA,NA,"c(""distractor1"", ""distractor2"", ""distractor3"")",NA,NA,NA,NA,NA,NA,NA,NA,NA,NA,NA,NA,NA,NA,NA,NA,NA,NA,NA
48c95,Save data screen,canvas.Screen,2_10_0_1,NA,NA,timeout,499.73999999999,363728,363722.66,363742.18,364221.1,364222,2024-11-05T15:23:12Z,364241.92,Entwicklung,maendeleo,s,uangavu,mshindwa,badiliko,NA,NA,1,"c(""distractor1"", ""distractor2"", ""distractor3"")",NA,NA,NA,NA,NA,NA,NA,NA,NA,NA,NA,NA,NA,NA,NA,NA,NA,NA,NA
48c95,shallow,flow.Sequence,2_10_0,NA,NA,completion,9494.88,354708,354705.4,354726.22,364221.1,364223,2024-11-05T15:23:12Z,364241.92,Entwicklung,maendeleo,s,uangavu,mshindwa,badiliko,NA,NA,NA,"c(""distractor1"", ""distractor2"", ""distractor3"")",NA,NA,NA,NA,NA,NA,NA,NA,NA,NA,NA,NA,NA,NA,NA,NA,NA,NA,NA
48c95,task,flow.Sequence,2_10,NA,NA,completion,9494.88,354708,354705.4,354726.22,364221.1,364223,2024-11-05T15:23:12Z,364241.92,Entwicklung,maendeleo,s,uangavu,mshindwa,badiliko,NA,NA,NA,"c(""distractor1"", ""distractor2"", ""distractor3"")",NA,NA,NA,NA,NA,NA,NA,NA,NA,NA,NA,NA,NA,NA,NA,NA,NA,NA,NA
48c95,Shallow Question,html.Page,2_11_0_0,NA,NA,form submission,6032.08,364224,364221.1,364241.92,370274,370274,2024-11-05T15:23:18Z,370280.32,Papier,karatasi,d,uchambuzi,usalama,kukataliwa,karatasi,NA,NA,"c(""distractor1"", ""distractor2"", ""distractor3"")",NA,NA,NA,NA,NA,NA,NA,NA,NA,NA,NA,NA,NA,NA,NA,NA,NA,NA,NA
48c95,Save data screen,canvas.Screen,2_11_0_1,NA,NA,timeout,499.73999999999,370277,370271,370280.32,370759.22,370762,2024-11-05T15:23:18Z,370780.06,Papier,karatasi,d,uchambuzi,usalama,kukataliwa,NA,NA,1,"c(""distractor1"", ""distractor2"", ""distractor3"")",NA,NA,NA,NA,NA,NA,NA,NA,NA,NA,NA,NA,NA,NA,NA,NA,NA,NA,NA
48c95,shallow,flow.Sequence,2_11_0,NA,NA,completion,6517.3,364224,364221.1,364241.92,370759.22,370762,2024-11-05T15:23:18Z,370780.06,Papier,karatasi,d,uchambuzi,usalama,kukataliwa,NA,NA,NA,"c(""distractor1"", ""distractor2"", ""distractor3"")",NA,NA,NA,NA,NA,NA,NA,NA,NA,NA,NA,NA,NA,NA,NA,NA,NA,NA,NA
48c95,task,flow.Sequence,2_11,NA,NA,completion,6517.3,364223,364221.1,364241.92,370759.22,370762,2024-11-05T15:23:18Z,370780.06,Papier,karatasi,d,uchambuzi,usalama,kukataliwa,NA,NA,NA,"c(""distractor1"", ""distractor2"", ""distractor3"")",NA,NA,NA,NA,NA,NA,NA,NA,NA,NA,NA,NA,NA,NA,NA,NA,NA,NA,NA
48c95,Shallow Question,html.Page,2_12_0_0,NA,NA,form submission,6334.94,370762,370759.22,370780.06,377115,377116,2024-11-05T15:23:24Z,377130.8,Vorwurf,mashtaka,s,msukumo,mtangulizi,uenyekiti,mashtaka,NA,NA,"c(""distractor1"", ""distractor2"", ""distractor3"")",NA,NA,NA,NA,NA,NA,NA,NA,NA,NA,NA,NA,NA,NA,NA,NA,NA,NA,NA
48c95,Save data screen,canvas.Screen,2_12_0_1,NA,NA,timeout,499.72000000003,377119,377112.58,377130.8,377609.7,377612,2024-11-05T15:23:25Z,377630.52,Vorwurf,mashtaka,s,msukumo,mtangulizi,uenyekiti,NA,NA,1,"c(""distractor1"", ""distractor2"", ""distractor3"")",NA,NA,NA,NA,NA,NA,NA,NA,NA,NA,NA,NA,NA,NA,NA,NA,NA,NA,NA
48c95,shallow,flow.Sequence,2_12_0,NA,NA,completion,6829.64,370762,370759.22,370780.06,377609.7,377613,2024-11-05T15:23:25Z,377630.52,Vorwurf,mashtaka,s,msukumo,mtangulizi,uenyekiti,NA,NA,NA,"c(""distractor1"", ""distractor2"", ""distractor3"")",NA,NA,NA,NA,NA,NA,NA,NA,NA,NA,NA,NA,NA,NA,NA,NA,NA,NA,NA
48c95,task,flow.Sequence,2_12,NA,NA,completion,6829.64,370762,370759.22,370780.06,377609.7,377613,2024-11-05T15:23:25Z,377630.52,Vorwurf,mashtaka,s,msukumo,mtangulizi,uenyekiti,NA,NA,NA,"c(""distractor1"", ""distractor2"", ""distractor3"")",NA,NA,NA,NA,NA,NA,NA,NA,NA,NA,NA,NA,NA,NA,NA,NA,NA,NA,NA
48c95,Shallow Question,html.Page,2_13_0_0,NA,NA,form submission,9038.48,377614,377609.7,377630.52,386669,386673,2024-11-05T15:23:34Z,386668.82,Genehmigung,idhini,s,mwanamke,itikadi,fedheha,idhini,NA,NA,"c(""distractor1"", ""distractor2"", ""distractor3"")",NA,NA,NA,NA,NA,NA,NA,NA,NA,NA,NA,NA,NA,NA,NA,NA,NA,NA,NA
48c95,Save data screen,canvas.Screen,2_13_0_1,NA,NA,timeout,499.71999999997,386680,386657.14,386668.82,387147.72,387150,2024-11-05T15:23:35Z,387168.54,Genehmigung,idhini,s,mwanamke,itikadi,fedheha,NA,NA,1,"c(""distractor1"", ""distractor2"", ""distractor3"")",NA,NA,NA,NA,NA,NA,NA,NA,NA,NA,NA,NA,NA,NA,NA,NA,NA,NA,NA
48c95,shallow,flow.Sequence,2_13_0,NA,NA,completion,9517.2,377614,377609.7,377630.52,387147.72,387150,2024-11-05T15:23:35Z,387168.54,Genehmigung,idhini,s,mwanamke,itikadi,fedheha,NA,NA,NA,"c(""distractor1"", ""distractor2"", ""distractor3"")",NA,NA,NA,NA,NA,NA,NA,NA,NA,NA,NA,NA,NA,NA,NA,NA,NA,NA,NA
48c95,task,flow.Sequence,2_13,NA,NA,completion,9517.2,377613,377609.7,377630.52,387147.72,387151,2024-11-05T15:23:35Z,387168.54,Genehmigung,idhini,s,mwanamke,itikadi,fedheha,NA,NA,NA,"c(""distractor1"", ""distractor2"", ""distractor3"")",NA,NA,NA,NA,NA,NA,NA,NA,NA,NA,NA,NA,NA,NA,NA,NA,NA,NA,NA
48c95,Shallow Question,html.Page,2_14_0_0,NA,NA,form submission,17667.46,387152,387147.72,387168.54,404836,404836,2024-11-05T15:23:52Z,404846.5,Begegnung,kukutana,s,mmasihiya,mpiganaji,husiano,kukutana,NA,NA,"c(""distractor1"", ""distractor2"", ""distractor3"")",NA,NA,NA,NA,NA,NA,NA,NA,NA,NA,NA,NA,NA,NA,NA,NA,NA,NA,NA
48c95,Save data screen,canvas.Screen,2_14_0_1,NA,NA,timeout,499.73999999999,404839,404832.54,404846.5,405325.42,405328,2024-11-05T15:23:53Z,405346.24,Begegnung,kukutana,s,mmasihiya,mpiganaji,husiano,NA,NA,1,"c(""distractor1"", ""distractor2"", ""distractor3"")",NA,NA,NA,NA,NA,NA,NA,NA,NA,NA,NA,NA,NA,NA,NA,NA,NA,NA,NA
48c95,shallow,flow.Sequence,2_14_0,NA,NA,completion,18156.88,387151,387147.72,387168.54,405325.42,405328,2024-11-05T15:23:53Z,405346.24,Begegnung,kukutana,s,mmasihiya,mpiganaji,husiano,NA,NA,NA,"c(""distractor1"", ""distractor2"", ""distractor3"")",NA,NA,NA,NA,NA,NA,NA,NA,NA,NA,NA,NA,NA,NA,NA,NA,NA,NA,NA
48c95,task,flow.Sequence,2_14,NA,NA,completion,18156.88,387151,387147.72,387168.54,405325.42,405328,2024-11-05T15:23:53Z,405346.24,Begegnung,kukutana,s,mmasihiya,mpiganaji,husiano,NA,NA,NA,"c(""distractor1"", ""distractor2"", ""distractor3"")",NA,NA,NA,NA,NA,NA,NA,NA,NA,NA,NA,NA,NA,NA,NA,NA,NA,NA,NA
48c95,Shallow Question,html.Page,2_15_0_0,NA,NA,form submission,7653.76,405329,405325.42,405346.24,413000,413000,2024-11-05T15:24:00Z,413010.3,Integrität,uadilifu,d,muungano,mtiririko,upunguaji,uadilifu,NA,NA,"c(""distractor1"", ""distractor2"", ""distractor3"")",NA,NA,NA,NA,NA,NA,NA,NA,NA,NA,NA,NA,NA,NA,NA,NA,NA,NA,NA
48c95,Save data screen,canvas.Screen,2_15_0_1,NA,NA,timeout,499.73999999999,413004,412997.16,413010.3,413489.22,413491,2024-11-05T15:24:01Z,413510.04,Integrität,uadilifu,d,muungano,mtiririko,upunguaji,NA,NA,1,"c(""distractor1"", ""distractor2"", ""distractor3"")",NA,NA,NA,NA,NA,NA,NA,NA,NA,NA,NA,NA,NA,NA,NA,NA,NA,NA,NA
48c95,shallow,flow.Sequence,2_15_0,NA,NA,completion,8142.98,405329,405325.42,405346.24,413489.22,413491,2024-11-05T15:24:01Z,413510.04,Integrität,uadilifu,d,muungano,mtiririko,upunguaji,NA,NA,NA,"c(""distractor1"", ""distractor2"", ""distractor3"")",NA,NA,NA,NA,NA,NA,NA,NA,NA,NA,NA,NA,NA,NA,NA,NA,NA,NA,NA
48c95,task,flow.Sequence,2_15,NA,NA,completion,8142.98,405329,405325.42,405346.24,413489.22,413493,2024-11-05T15:24:01Z,413510.04,Integrität,uadilifu,d,muungano,mtiririko,upunguaji,NA,NA,NA,"c(""distractor1"", ""distractor2"", ""distractor3"")",NA,NA,NA,NA,NA,NA,NA,NA,NA,NA,NA,NA,NA,NA,NA,NA,NA,NA,NA
48c95,retrieval block 2 (multiple choice),flow.Loop,2,NA,NA,completion,161047.46,252424,252420.94,252441.76,413489.22,413493,2024-11-05T15:24:01Z,413510.04,NA,NA,NA,NA,NA,NA,NA,NA,NA,"c(""distractor1"", ""distractor2"", ""distractor3"")",NA,NA,NA,NA,NA,NA,NA,NA,NA,NA,NA,NA,NA,NA,NA,NA,NA,NA,NA
48c95,End,canvas.Screen,3,NA,keypress(Space),response,2377.96,413494,413489.22,413510.04,415888,415909,2024-11-05T15:24:03Z,415925.4,NA,NA,NA,NA,NA,NA,NA,NA,NA,NULL,NA,NA,NA,NA,NA,NA,NA,NA,NA,NA,NA,NA,NA,NA,NA,NA,NA,NA,NA
48c95,root,flow.Sequence,NA,NA,NA,completion,414386.76,1476,1480.42,1501.24,415888,415910,2024-11-05T15:24:03Z,415925.4,NA,NA,NA,NA,NA,NA,NA,NA,NA,NULL,NA,NA,NA,NA,NA,NA,NA,NA,NA,NA,NA,NA,NA,NA,NA,NA,NA,NA,NA
86528,Introduction delayed retrieval,canvas.Screen,0,weiter,keypress(Space),response,42756.853000001,827.90000000037,764.083,830.747,43587.600000001,43594.600000001,2023-12-07T15:33:22Z,43596.908,NA,NA,NA,NA,NA,NA,NA,NA,NA,NULL,132,4,20.2.4,https://neurocog.fernuni.ch/studies/vweber/delayed/index.html?vp=132&sess=4,"Mozilla/5.0 (Macintosh; Intel Mac OS X 10_15_7) AppleWebKit/537.36 (KHTML, like Gecko) Chrome/119.0.0.0 Safari/537.36",MacIntel,de-DE,de,Europe/Zurich,-60,1440,900,1440,671,1440,719,2,production,f5b4a49f956347addd546a832a3327688c2c0fef
86528,Deep Question,html.Page,1_0_0_0,NA,NA,form submission,18710.492,43595,43580.242,43596.908,62307.4,62307.700000001,2023-12-07T15:33:41Z,62314.559,Gefährdung,kuhatarisha,d,uchokozi,udhaifu,makorowezo,suhali,NA,NA,NULL,NA,NA,NA,NA,NA,NA,NA,NA,NA,NA,NA,NA,NA,NA,NA,NA,NA,NA,NA
86528,Save data screen,canvas.Screen,1_0_0_1,NA,NA,timeout,499.98,62308.4,62297.893,62314.559,62797.873,62801.100000001,2023-12-07T15:33:41Z,62814.539,Gefährdung,kuhatarisha,d,uchokozi,udhaifu,makorowezo,NA,NA,0,NULL,NA,NA,NA,NA,NA,NA,NA,NA,NA,NA,NA,NA,NA,NA,NA,NA,NA,NA,NA
86528,deep,flow.Sequence,1_0_0,NA,NA,completion,19200.965,43595,43580.242,43596.908,62797.873,62801.4,2023-12-07T15:33:41Z,62814.539,Gefährdung,kuhatarisha,d,uchokozi,udhaifu,makorowezo,NA,NA,NA,NULL,NA,NA,NA,NA,NA,NA,NA,NA,NA,NA,NA,NA,NA,NA,NA,NA,NA,NA,NA
86528,task,flow.Sequence,1_0,NA,NA,completion,19200.965,43595,43580.242,43596.908,62797.873,62801.5,2023-12-07T15:33:41Z,62814.539,Gefährdung,kuhatarisha,d,uchokozi,udhaifu,makorowezo,NA,NA,NA,NULL,NA,NA,NA,NA,NA,NA,NA,NA,NA,NA,NA,NA,NA,NA,NA,NA,NA,NA,NA
86528,Deep Question,html.Page,1_1_0_0,NA,NA,form submission,11408.661000001,62801.600000001,62797.873,62814.539,74223.200000001,74223.700000001,2023-12-07T15:33:53Z,74231.843,Kultur,utamaduni,d,shetani,gerezani,mazingira,kawash,NA,NA,NULL,NA,NA,NA,NA,NA,NA,NA,NA,NA,NA,NA,NA,NA,NA,NA,NA,NA,NA,NA
86528,Save data screen,canvas.Screen,1_1_0_1,NA,NA,timeout,499.98000000001,74226.600000001,74215.177,74231.843,74715.157,74719.5,2023-12-07T15:33:53Z,74731.823,Kultur,utamaduni,d,shetani,gerezani,mazingira,NA,NA,0,NULL,NA,NA,NA,NA,NA,NA,NA,NA,NA,NA,NA,NA,NA,NA,NA,NA,NA,NA,NA
86528,deep,flow.Sequence,1_1_0,NA,NA,completion,11900.618,62801.600000001,62797.873,62814.539,74715.157,74719.9,2023-12-07T15:33:53Z,74731.823,Kultur,utamaduni,d,shetani,gerezani,mazingira,NA,NA,NA,NULL,NA,NA,NA,NA,NA,NA,NA,NA,NA,NA,NA,NA,NA,NA,NA,NA,NA,NA,NA
86528,task,flow.Sequence,1_1,NA,NA,completion,11900.618,62801.5,62797.873,62814.539,74715.157,74720.200000001,2023-12-07T15:33:53Z,74731.823,Kultur,utamaduni,d,shetani,gerezani,mazingira,NA,NA,NA,NULL,NA,NA,NA,NA,NA,NA,NA,NA,NA,NA,NA,NA,NA,NA,NA,NA,NA,NA,NA
86528,Deep Question,html.Page,1_2_0_0,NA,NA,form submission,30725.177,74720.5,74715.157,74731.823,105457,105457.3,2023-12-07T15:34:24Z,105465.038,Abrechnung,uhasibu,d,kusahihisha,mpambano,mashambulizi,-,NA,NA,NULL,NA,NA,NA,NA,NA,NA,NA,NA,NA,NA,NA,NA,NA,NA,NA,NA,NA,NA,NA
86528,Save data screen,canvas.Screen,1_2_0_1,NA,NA,timeout,500.719,105460.3,105448.372,105465.038,105949.091,105954.1,2023-12-07T15:34:24Z,105965.757,Abrechnung,uhasibu,d,kusahihisha,mpambano,mashambulizi,NA,NA,0,NULL,NA,NA,NA,NA,NA,NA,NA,NA,NA,NA,NA,NA,NA,NA,NA,NA,NA,NA,NA
86528,deep,flow.Sequence,1_2_0,NA,NA,completion,31217.268,74720.5,74715.157,74731.823,105949.091,105954.6,2023-12-07T15:34:24Z,105965.757,Abrechnung,uhasibu,d,kusahihisha,mpambano,mashambulizi,NA,NA,NA,NULL,NA,NA,NA,NA,NA,NA,NA,NA,NA,NA,NA,NA,NA,NA,NA,NA,NA,NA,NA
86528,task,flow.Sequence,1_2,NA,NA,completion,31217.268,74720.300000001,74715.157,74731.823,105949.091,105954.9,2023-12-07T15:34:24Z,105965.757,Abrechnung,uhasibu,d,kusahihisha,mpambano,mashambulizi,NA,NA,NA,NULL,NA,NA,NA,NA,NA,NA,NA,NA,NA,NA,NA,NA,NA,NA,NA,NA,NA,NA,NA
86528,Deep Question,html.Page,1_3_0_0,NA,NA,form submission,6106.9430000011,105955.1,105949.091,105965.757,112072.7,112073,2023-12-07T15:34:31Z,112082.179,Kontrolle,kudhibiti,d,mbinguni,kufunga,utegemezi,kupesi,NA,NA,NULL,NA,NA,NA,NA,NA,NA,NA,NA,NA,NA,NA,NA,NA,NA,NA,NA,NA,NA,NA
86528,Save data screen,canvas.Screen,1_3_0_1,NA,NA,timeout,499.98,112075.6,112065.513,112082.179,112565.493,112570.8,2023-12-07T15:34:31Z,112582.159,Kontrolle,kudhibiti,d,mbinguni,kufunga,utegemezi,NA,NA,0,NULL,NA,NA,NA,NA,NA,NA,NA,NA,NA,NA,NA,NA,NA,NA,NA,NA,NA,NA,NA
86528,deep,flow.Sequence,1_3_0,NA,NA,completion,6599.736,105955,105949.091,105965.757,112565.493,112571.1,2023-12-07T15:34:31Z,112582.159,Kontrolle,kudhibiti,d,mbinguni,kufunga,utegemezi,NA,NA,NA,NULL,NA,NA,NA,NA,NA,NA,NA,NA,NA,NA,NA,NA,NA,NA,NA,NA,NA,NA,NA
86528,task,flow.Sequence,1_3,NA,NA,completion,6599.736,105955,105949.091,105965.757,112565.493,112571.3,2023-12-07T15:34:31Z,112582.159,Kontrolle,kudhibiti,d,mbinguni,kufunga,utegemezi,NA,NA,NA,NULL,NA,NA,NA,NA,NA,NA,NA,NA,NA,NA,NA,NA,NA,NA,NA,NA,NA,NA,NA
86528,Deep Question,html.Page,1_4_0_0,NA,NA,form submission,5707.1410000007,112571.6,112565.493,112582.159,118289.3,118289.5,2023-12-07T15:34:37Z,118299.168,Prüfung,mtihani,s,mkulima,mtizamo,ufumbuzi,-,NA,NA,NULL,NA,NA,NA,NA,NA,NA,NA,NA,NA,NA,NA,NA,NA,NA,NA,NA,NA,NA,NA
86528,Save data screen,canvas.Screen,1_4_0_1,NA,NA,timeout,499.98,118291.8,118282.502,118299.168,118782.482,118787.7,2023-12-07T15:34:37Z,118799.148,Prüfung,mtihani,s,mkulima,mtizamo,ufumbuzi,NA,NA,0,NULL,NA,NA,NA,NA,NA,NA,NA,NA,NA,NA,NA,NA,NA,NA,NA,NA,NA,NA,NA
86528,deep,flow.Sequence,1_4_0,NA,NA,completion,6200.323,112571.6,112565.493,112582.159,118782.482,118788.1,2023-12-07T15:34:37Z,118799.148,Prüfung,mtihani,s,mkulima,mtizamo,ufumbuzi,NA,NA,NA,NULL,NA,NA,NA,NA,NA,NA,NA,NA,NA,NA,NA,NA,NA,NA,NA,NA,NA,NA,NA
86528,task,flow.Sequence,1_4,NA,NA,completion,6200.323,112571.4,112565.493,112582.159,118782.482,118788.4,2023-12-07T15:34:37Z,118799.148,Prüfung,mtihani,s,mkulima,mtizamo,ufumbuzi,NA,NA,NA,NULL,NA,NA,NA,NA,NA,NA,NA,NA,NA,NA,NA,NA,NA,NA,NA,NA,NA,NA,NA
86528,Deep Question,html.Page,1_5_0_0,NA,NA,form submission,5440.2520000004,118788.6,118782.482,118799.148,124239.4,124239.6,2023-12-07T15:34:43Z,124248.93,Aufstand,ugomaji,s,mazidio,msingi,kujieleza,-,NA,NA,NULL,NA,NA,NA,NA,NA,NA,NA,NA,NA,NA,NA,NA,NA,NA,NA,NA,NA,NA,NA
86528,Save data screen,canvas.Screen,1_5_0_1,NA,NA,timeout,499.98000000001,124242,124232.264,124248.93,124732.244,124737.2,2023-12-07T15:34:43Z,124748.91,Aufstand,ugomaji,s,mazidio,msingi,kujieleza,NA,NA,0,NULL,NA,NA,NA,NA,NA,NA,NA,NA,NA,NA,NA,NA,NA,NA,NA,NA,NA,NA,NA
86528,deep,flow.Sequence,1_5_0,NA,NA,completion,5933.096,118788.6,118782.482,118799.148,124732.244,124737.5,2023-12-07T15:34:43Z,124748.91,Aufstand,ugomaji,s,mazidio,msingi,kujieleza,NA,NA,NA,NULL,NA,NA,NA,NA,NA,NA,NA,NA,NA,NA,NA,NA,NA,NA,NA,NA,NA,NA,NA
86528,task,flow.Sequence,1_5,NA,NA,completion,5933.096,118788.5,118782.482,118799.148,124732.244,124737.8,2023-12-07T15:34:43Z,124748.91,Aufstand,ugomaji,s,mazidio,msingi,kujieleza,NA,NA,NA,NULL,NA,NA,NA,NA,NA,NA,NA,NA,NA,NA,NA,NA,NA,NA,NA,NA,NA,NA,NA
86528,Deep Question,html.Page,1_6_0_0,NA,NA,form submission,4990.4900000004,124738,124732.244,124748.91,129739.4,129739.6,2023-12-07T15:34:48Z,129749.171,Verzögerung,kuchelewa,d,mwakilishi,mwanauchumi,jaribio,-,NA,NA,NULL,NA,NA,NA,NA,NA,NA,NA,NA,NA,NA,NA,NA,NA,NA,NA,NA,NA,NA,NA
86528,Save data screen,canvas.Screen,1_6_0_1,NA,NA,timeout,499.98,129742,129732.505,129749.171,130232.485,130237.1,2023-12-07T15:34:49Z,130249.151,Verzögerung,kuchelewa,d,mwakilishi,mwanauchumi,jaribio,NA,NA,0,NULL,NA,NA,NA,NA,NA,NA,NA,NA,NA,NA,NA,NA,NA,NA,NA,NA,NA,NA,NA
86528,deep,flow.Sequence,1_6_0,NA,NA,completion,5483.575,124737.9,124732.244,124748.91,130232.485,130237.5,2023-12-07T15:34:49Z,130249.151,Verzögerung,kuchelewa,d,mwakilishi,mwanauchumi,jaribio,NA,NA,NA,NULL,NA,NA,NA,NA,NA,NA,NA,NA,NA,NA,NA,NA,NA,NA,NA,NA,NA,NA,NA
86528,task,flow.Sequence,1_6,NA,NA,completion,5483.575,124737.9,124732.244,124748.91,130232.485,130237.7,2023-12-07T15:34:49Z,130249.151,Verzögerung,kuchelewa,d,mwakilishi,mwanauchumi,jaribio,NA,NA,NA,NULL,NA,NA,NA,NA,NA,NA,NA,NA,NA,NA,NA,NA,NA,NA,NA,NA,NA,NA,NA
86528,Deep Question,html.Page,1_7_0_0,NA,NA,form submission,104458.649,130237.9,130232.485,130249.151,234707.8,234708.1,2023-12-07T15:36:33Z,234717.409,Lawine,banguko,s,maambukizi,usuluhishi,chekechea,bungawo,NA,NA,NULL,NA,NA,NA,NA,NA,NA,NA,NA,NA,NA,NA,NA,NA,NA,NA,NA,NA,NA,NA
86528,Save data screen,canvas.Screen,1_7_0_1,NA,NA,timeout,499.97999999998,234710.9,234700.743,234717.409,235200.723,235204.2,2023-12-07T15:36:34Z,235217.389,Lawine,banguko,s,maambukizi,usuluhishi,chekechea,NA,NA,0,NULL,NA,NA,NA,NA,NA,NA,NA,NA,NA,NA,NA,NA,NA,NA,NA,NA,NA,NA,NA
86528,deep,flow.Sequence,1_7_0,NA,NA,completion,104951.572,130237.9,130232.485,130249.151,235200.723,235204.3,2023-12-07T15:36:34Z,235217.389,Lawine,banguko,s,maambukizi,usuluhishi,chekechea,NA,NA,NA,NULL,NA,NA,NA,NA,NA,NA,NA,NA,NA,NA,NA,NA,NA,NA,NA,NA,NA,NA,NA
86528,task,flow.Sequence,1_7,NA,NA,completion,104951.572,130237.9,130232.485,130249.151,235200.723,235204.5,2023-12-07T15:36:34Z,235217.389,Lawine,banguko,s,maambukizi,usuluhishi,chekechea,NA,NA,NA,NULL,NA,NA,NA,NA,NA,NA,NA,NA,NA,NA,NA,NA,NA,NA,NA,NA,NA,NA,NA
86528,Deep Question,html.Page,1_8_0_0,NA,NA,form submission,5141.7110000015,235204.5,235200.723,235217.389,240359.1,240359.5,2023-12-07T15:36:39Z,240367.757,Sänger,mwimbaji,s,msichana,shughuli,mshirika,-,NA,NA,NULL,NA,NA,NA,NA,NA,NA,NA,NA,NA,NA,NA,NA,NA,NA,NA,NA,NA,NA,NA
86528,Save data screen,canvas.Screen,1_8_0_1,NA,NA,timeout,499.97999999998,240361.7,240351.091,240367.757,240851.071,240855.5,2023-12-07T15:36:39Z,240867.737,Sänger,mwimbaji,s,msichana,shughuli,mshirika,NA,NA,0,NULL,NA,NA,NA,NA,NA,NA,NA,NA,NA,NA,NA,NA,NA,NA,NA,NA,NA,NA,NA
86528,deep,flow.Sequence,1_8_0,NA,NA,completion,5633.682,235204.5,235200.723,235217.389,240851.071,240855.9,2023-12-07T15:36:39Z,240867.737,Sänger,mwimbaji,s,msichana,shughuli,mshirika,NA,NA,NA,NULL,NA,NA,NA,NA,NA,NA,NA,NA,NA,NA,NA,NA,NA,NA,NA,NA,NA,NA,NA
86528,task,flow.Sequence,1_8,NA,NA,completion,5633.682,235204.5,235200.723,235217.389,240851.071,240856.1,2023-12-07T15:36:39Z,240867.737,Sänger,mwimbaji,s,msichana,shughuli,mshirika,NA,NA,NA,NULL,NA,NA,NA,NA,NA,NA,NA,NA,NA,NA,NA,NA,NA,NA,NA,NA,NA,NA,NA
86528,Deep Question,html.Page,1_9_0_0,NA,NA,form submission,26273.663,240856.3,240851.071,240867.737,267141.4,267141.6,2023-12-07T15:37:06Z,267151.151,Kreativität,ubunifu,s,mratibu,mwendelezo,makubaliano,kiwiliwili,NA,NA,NULL,NA,NA,NA,NA,NA,NA,NA,NA,NA,NA,NA,NA,NA,NA,NA,NA,NA,NA,NA
86528,Save data screen,canvas.Screen,1_9_0_1,NA,NA,timeout,499.97999999998,267144.1,267134.485,267151.151,267634.465,267638.6,2023-12-07T15:37:06Z,267651.131,Kreativität,ubunifu,s,mratibu,mwendelezo,makubaliano,NA,NA,0,NULL,NA,NA,NA,NA,NA,NA,NA,NA,NA,NA,NA,NA,NA,NA,NA,NA,NA,NA,NA
86528,deep,flow.Sequence,1_9_0,NA,NA,completion,26766.728,240856.3,240851.071,240867.737,267634.465,267638.9,2023-12-07T15:37:06Z,267651.131,Kreativität,ubunifu,s,mratibu,mwendelezo,makubaliano,NA,NA,NA,NULL,NA,NA,NA,NA,NA,NA,NA,NA,NA,NA,NA,NA,NA,NA,NA,NA,NA,NA,NA
86528,task,flow.Sequence,1_9,NA,NA,completion,26766.728,240856.2,240851.071,240867.737,267634.465,267639.1,2023-12-07T15:37:06Z,267651.131,Kreativität,ubunifu,s,mratibu,mwendelezo,makubaliano,NA,NA,NA,NULL,NA,NA,NA,NA,NA,NA,NA,NA,NA,NA,NA,NA,NA,NA,NA,NA,NA,NA,NA
86528,Deep Question,html.Page,1_10_0_0,NA,NA,form submission,4791.369,267639.4,267634.465,267651.131,272442.5,272442.8,2023-12-07T15:37:11Z,272451.505,Angreifer,mshambulizi,s,kitengo,tasinia,usafirishaji,-,NA,NA,NULL,NA,NA,NA,NA,NA,NA,NA,NA,NA,NA,NA,NA,NA,NA,NA,NA,NA,NA,NA
86528,Save data screen,canvas.Screen,1_10_0_1,NA,NA,timeout,499.97999999998,272446.2,272434.839,272451.505,272934.819,272939.1,2023-12-07T15:37:11Z,272951.485,Angreifer,mshambulizi,s,kitengo,tasinia,usafirishaji,NA,NA,0,NULL,NA,NA,NA,NA,NA,NA,NA,NA,NA,NA,NA,NA,NA,NA,NA,NA,NA,NA,NA
86528,deep,flow.Sequence,1_10_0,NA,NA,completion,5283.688,267639.4,267634.465,267651.131,272934.819,272939.5,2023-12-07T15:37:11Z,272951.485,Angreifer,mshambulizi,s,kitengo,tasinia,usafirishaji,NA,NA,NA,NULL,NA,NA,NA,NA,NA,NA,NA,NA,NA,NA,NA,NA,NA,NA,NA,NA,NA,NA,NA
86528,task,flow.Sequence,1_10,NA,NA,completion,5283.688,267639.2,267634.465,267651.131,272934.819,272939.7,2023-12-07T15:37:11Z,272951.485,Angreifer,mshambulizi,s,kitengo,tasinia,usafirishaji,NA,NA,NA,NULL,NA,NA,NA,NA,NA,NA,NA,NA,NA,NA,NA,NA,NA,NA,NA,NA,NA,NA,NA
86528,Deep Question,html.Page,1_11_0_0,NA,NA,form submission,6158.9150000004,272939.9,272934.819,272951.485,279110.4,279110.8,2023-12-07T15:37:18Z,279117.905,Übersicht,kilindo,d,mgusano,chipukizi,kulinganisha,maengo,NA,NA,NULL,NA,NA,NA,NA,NA,NA,NA,NA,NA,NA,NA,NA,NA,NA,NA,NA,NA,NA,NA
86528,Save data screen,canvas.Screen,1_11_0_1,NA,NA,timeout,499.97999999998,279113.9,279101.239,279117.905,279601.219,279605,2023-12-07T15:37:18Z,279617.885,Übersicht,kilindo,d,mgusano,chipukizi,kulinganisha,NA,NA,0,NULL,NA,NA,NA,NA,NA,NA,NA,NA,NA,NA,NA,NA,NA,NA,NA,NA,NA,NA,NA
86528,deep,flow.Sequence,1_11_0,NA,NA,completion,6649.734,272939.9,272934.819,272951.485,279601.219,279605.5,2023-12-07T15:37:18Z,279617.885,Übersicht,kilindo,d,mgusano,chipukizi,kulinganisha,NA,NA,NA,NULL,NA,NA,NA,NA,NA,NA,NA,NA,NA,NA,NA,NA,NA,NA,NA,NA,NA,NA,NA
86528,task,flow.Sequence,1_11,NA,NA,completion,6649.734,272939.8,272934.819,272951.485,279601.219,279605.6,2023-12-07T15:37:18Z,279617.885,Übersicht,kilindo,d,mgusano,chipukizi,kulinganisha,NA,NA,NA,NULL,NA,NA,NA,NA,NA,NA,NA,NA,NA,NA,NA,NA,NA,NA,NA,NA,NA,NA,NA
86528,Deep Question,html.Page,1_12_0_0,NA,NA,form submission,3225.2150000015,279605.9,279601.219,279617.885,282843.1,282843.4,2023-12-07T15:37:21Z,282851.508,System,maongozi,s,chokochoko,nuksani,mitaani,-,NA,NA,NULL,NA,NA,NA,NA,NA,NA,NA,NA,NA,NA,NA,NA,NA,NA,NA,NA,NA,NA,NA
86528,Save data screen,canvas.Screen,1_12_0_1,NA,NA,timeout,499.98000000004,282845.6,282834.842,282851.508,283334.822,283339,2023-12-07T15:37:22Z,283351.488,System,maongozi,s,chokochoko,nuksani,mitaani,NA,NA,0,NULL,NA,NA,NA,NA,NA,NA,NA,NA,NA,NA,NA,NA,NA,NA,NA,NA,NA,NA,NA
86528,deep,flow.Sequence,1_12_0,NA,NA,completion,3716.937,279605.8,279601.219,279617.885,283334.822,283339.4,2023-12-07T15:37:22Z,283351.488,System,maongozi,s,chokochoko,nuksani,mitaani,NA,NA,NA,NULL,NA,NA,NA,NA,NA,NA,NA,NA,NA,NA,NA,NA,NA,NA,NA,NA,NA,NA,NA
86528,task,flow.Sequence,1_12,NA,NA,completion,3716.937,279605.8,279601.219,279617.885,283334.822,283339.6,2023-12-07T15:37:22Z,283351.488,System,maongozi,s,chokochoko,nuksani,mitaani,NA,NA,NA,NULL,NA,NA,NA,NA,NA,NA,NA,NA,NA,NA,NA,NA,NA,NA,NA,NA,NA,NA,NA
86528,Deep Question,html.Page,1_13_0_0,NA,NA,form submission,4908.3120000007,283339.9,283334.822,283351.488,288259.8,288260,2023-12-07T15:37:27Z,288267.958,Körper,kiwiliwili,d,mapambano,mpatanishi,kiolezo,-,NA,NA,NULL,NA,NA,NA,NA,NA,NA,NA,NA,NA,NA,NA,NA,NA,NA,NA,NA,NA,NA,NA
86528,Save data screen,canvas.Screen,1_13_0_1,NA,NA,timeout,499.98000000004,288263.1,288251.292,288267.958,288751.272,288753.4,2023-12-07T15:37:27Z,288767.938,Körper,kiwiliwili,d,mapambano,mpatanishi,kiolezo,NA,NA,0,NULL,NA,NA,NA,NA,NA,NA,NA,NA,NA,NA,NA,NA,NA,NA,NA,NA,NA,NA,NA
86528,deep,flow.Sequence,1_13_0,NA,NA,completion,5399.784,283339.8,283334.822,283351.488,288751.272,288753.8,2023-12-07T15:37:27Z,288767.938,Körper,kiwiliwili,d,mapambano,mpatanishi,kiolezo,NA,NA,NA,NULL,NA,NA,NA,NA,NA,NA,NA,NA,NA,NA,NA,NA,NA,NA,NA,NA,NA,NA,NA
86528,task,flow.Sequence,1_13,NA,NA,completion,5399.784,283339.7,283334.822,283351.488,288751.272,288754,2023-12-07T15:37:27Z,288767.938,Körper,kiwiliwili,d,mapambano,mpatanishi,kiolezo,NA,NA,NA,NULL,NA,NA,NA,NA,NA,NA,NA,NA,NA,NA,NA,NA,NA,NA,NA,NA,NA,NA,NA
86528,Deep Question,html.Page,1_14_0_0,NA,NA,form submission,6057.062,288754.3,288751.272,288767.938,294825,294825.2,2023-12-07T15:37:33Z,294834.947,Kanzler,diwani,d,rasilmali,mahitaji,maabudu,dewani,NA,NA,NULL,NA,NA,NA,NA,NA,NA,NA,NA,NA,NA,NA,NA,NA,NA,NA,NA,NA,NA,NA
86528,Save data screen,canvas.Screen,1_14_0_1,NA,NA,timeout,499.98000000004,294827.7,294818.281,294834.947,295318.261,295320,2023-12-07T15:37:34Z,295334.927,Kanzler,diwani,d,rasilmali,mahitaji,maabudu,NA,NA,0,NULL,NA,NA,NA,NA,NA,NA,NA,NA,NA,NA,NA,NA,NA,NA,NA,NA,NA,NA,NA
86528,deep,flow.Sequence,1_14_0,NA,NA,completion,6550.323,288754.2,288751.272,288767.938,295318.261,295320.3,2023-12-07T15:37:34Z,295334.927,Kanzler,diwani,d,rasilmali,mahitaji,maabudu,NA,NA,NA,NULL,NA,NA,NA,NA,NA,NA,NA,NA,NA,NA,NA,NA,NA,NA,NA,NA,NA,NA,NA
86528,task,flow.Sequence,1_14,NA,NA,completion,6550.323,288754.1,288751.272,288767.938,295318.261,295320.5,2023-12-07T15:37:34Z,295334.927,Kanzler,diwani,d,rasilmali,mahitaji,maabudu,NA,NA,NA,NULL,NA,NA,NA,NA,NA,NA,NA,NA,NA,NA,NA,NA,NA,NA,NA,NA,NA,NA,NA
86528,Deep Question,html.Page,1_15_0_0,NA,NA,form submission,8991.573,295320.8,295318.261,295334.927,304326.5,304327,2023-12-07T15:37:43Z,304335.239,Können,unaweza,s,kiongozi,bustani,mienendo,ugundo,NA,NA,NULL,NA,NA,NA,NA,NA,NA,NA,NA,NA,NA,NA,NA,NA,NA,NA,NA,NA,NA,NA
86528,Save data screen,canvas.Screen,1_15_0_1,NA,NA,timeout,499.97999999998,304329.9,304318.573,304335.239,304818.553,304822.8,2023-12-07T15:37:43Z,304835.219,Können,unaweza,s,kiongozi,bustani,mienendo,NA,NA,0,NULL,NA,NA,NA,NA,NA,NA,NA,NA,NA,NA,NA,NA,NA,NA,NA,NA,NA,NA,NA
86528,deep,flow.Sequence,1_15_0,NA,NA,completion,9483.626,295320.7,295318.261,295334.927,304818.553,304823.1,2023-12-07T15:37:43Z,304835.219,Können,unaweza,s,kiongozi,bustani,mienendo,NA,NA,NA,NULL,NA,NA,NA,NA,NA,NA,NA,NA,NA,NA,NA,NA,NA,NA,NA,NA,NA,NA,NA
86528,task,flow.Sequence,1_15,NA,NA,completion,9483.626,295320.7,295318.261,295334.927,304818.553,304823.3,2023-12-07T15:37:43Z,304835.219,Können,unaweza,s,kiongozi,bustani,mienendo,NA,NA,NA,NULL,NA,NA,NA,NA,NA,NA,NA,NA,NA,NA,NA,NA,NA,NA,NA,NA,NA,NA,NA
86528,retrieval block 1 (cued recall),flow.Loop,1,NA,NA,completion,261221.645,43594.800000001,43580.242,43596.908,304818.553,304823.6,2023-12-07T15:37:43Z,304835.219,NA,NA,NA,NA,NA,NA,NA,NA,NA,NULL,NA,NA,NA,NA,NA,NA,NA,NA,NA,NA,NA,NA,NA,NA,NA,NA,NA,NA,NA
86528,Shallow Question,html.Page,2_0_0_0,NA,NA,form submission,14641.981000001,304823.9,304818.553,304835.219,319477.2,319477.8,2023-12-07T15:37:58Z,319485.287,Kultur,utamaduni,d,shetani,gerezani,mazingira,utamaduni,NA,NA,"c(""distractor1"", ""distractor2"", ""distractor3"")",NA,NA,NA,NA,NA,NA,NA,NA,NA,NA,NA,NA,NA,NA,NA,NA,NA,NA,NA
86528,Save data screen,canvas.Screen,2_0_0_1,NA,NA,timeout,499.97999999998,319481.2,319468.621,319485.287,319968.601,319971.8,2023-12-07T15:37:58Z,319985.267,Kultur,utamaduni,d,shetani,gerezani,mazingira,NA,NA,1,"c(""distractor1"", ""distractor2"", ""distractor3"")",NA,NA,NA,NA,NA,NA,NA,NA,NA,NA,NA,NA,NA,NA,NA,NA,NA,NA,NA
86528,shallow,flow.Sequence,2_0_0,NA,NA,completion,15133.382,304823.9,304818.553,304835.219,319968.601,319972.2,2023-12-07T15:37:58Z,319985.267,Kultur,utamaduni,d,shetani,gerezani,mazingira,NA,NA,NA,"c(""distractor1"", ""distractor2"", ""distractor3"")",NA,NA,NA,NA,NA,NA,NA,NA,NA,NA,NA,NA,NA,NA,NA,NA,NA,NA,NA
86528,task,flow.Sequence,2_0,NA,NA,completion,15133.382,304823.8,304818.553,304835.219,319968.601,319972.4,2023-12-07T15:37:58Z,319985.267,Kultur,utamaduni,d,shetani,gerezani,mazingira,NA,NA,NA,"c(""distractor1"", ""distractor2"", ""distractor3"")",NA,NA,NA,NA,NA,NA,NA,NA,NA,NA,NA,NA,NA,NA,NA,NA,NA,NA,NA
86528,Shallow Question,html.Page,2_1_0_0,NA,NA,form submission,7492.233,319972.7,319968.601,319985.267,327477.5,327478,2023-12-07T15:38:06Z,327485.589,Lawine,banguko,s,maambukizi,usuluhishi,chekechea,banguko,NA,NA,"c(""distractor1"", ""distractor2"", ""distractor3"")",NA,NA,NA,NA,NA,NA,NA,NA,NA,NA,NA,NA,NA,NA,NA,NA,NA,NA,NA
86528,Save data screen,canvas.Screen,2_1_0_1,NA,NA,timeout,499.98000000004,327480.5,327468.923,327485.589,327968.903,327973,2023-12-07T15:38:06Z,327985.569,Lawine,banguko,s,maambukizi,usuluhishi,chekechea,NA,NA,1,"c(""distractor1"", ""distractor2"", ""distractor3"")",NA,NA,NA,NA,NA,NA,NA,NA,NA,NA,NA,NA,NA,NA,NA,NA,NA,NA,NA
86528,shallow,flow.Sequence,2_1_0,NA,NA,completion,7983.636,319972.6,319968.601,319985.267,327968.903,327973.4,2023-12-07T15:38:06Z,327985.569,Lawine,banguko,s,maambukizi,usuluhishi,chekechea,NA,NA,NA,"c(""distractor1"", ""distractor2"", ""distractor3"")",NA,NA,NA,NA,NA,NA,NA,NA,NA,NA,NA,NA,NA,NA,NA,NA,NA,NA,NA
86528,task,flow.Sequence,2_1,NA,NA,completion,7983.636,319972.5,319968.601,319985.267,327968.903,327973.7,2023-12-07T15:38:06Z,327985.569,Lawine,banguko,s,maambukizi,usuluhishi,chekechea,NA,NA,NA,"c(""distractor1"", ""distractor2"", ""distractor3"")",NA,NA,NA,NA,NA,NA,NA,NA,NA,NA,NA,NA,NA,NA,NA,NA,NA,NA,NA
86528,Shallow Question,html.Page,2_2_0_0,NA,NA,form submission,9491.3310000004,327973.9,327968.903,327985.569,337476.9,337477.5,2023-12-07T15:38:16Z,337485.832,Kontrolle,kudhibiti,d,mbinguni,kufunga,utegemezi,utegemezi,NA,NA,"c(""distractor1"", ""distractor2"", ""distractor3"")",NA,NA,NA,NA,NA,NA,NA,NA,NA,NA,NA,NA,NA,NA,NA,NA,NA,NA,NA
86528,Save data screen,canvas.Screen,2_2_0_1,NA,NA,timeout,499.97999999998,337480.1,337469.166,337485.832,337969.146,337974.5,2023-12-07T15:38:16Z,337985.812,Kontrolle,kudhibiti,d,mbinguni,kufunga,utegemezi,NA,NA,0,"c(""distractor1"", ""distractor2"", ""distractor3"")",NA,NA,NA,NA,NA,NA,NA,NA,NA,NA,NA,NA,NA,NA,NA,NA,NA,NA,NA
86528,shallow,flow.Sequence,2_2_0,NA,NA,completion,9983.577,327973.8,327968.903,327985.569,337969.146,337974.9,2023-12-07T15:38:16Z,337985.812,Kontrolle,kudhibiti,d,mbinguni,kufunga,utegemezi,NA,NA,NA,"c(""distractor1"", ""distractor2"", ""distractor3"")",NA,NA,NA,NA,NA,NA,NA,NA,NA,NA,NA,NA,NA,NA,NA,NA,NA,NA,NA
86528,task,flow.Sequence,2_2,NA,NA,completion,9983.577,327973.8,327968.903,327985.569,337969.146,337975.1,2023-12-07T15:38:16Z,337985.812,Kontrolle,kudhibiti,d,mbinguni,kufunga,utegemezi,NA,NA,NA,"c(""distractor1"", ""distractor2"", ""distractor3"")",NA,NA,NA,NA,NA,NA,NA,NA,NA,NA,NA,NA,NA,NA,NA,NA,NA,NA,NA
86528,Shallow Question,html.Page,2_3_0_0,NA,NA,form submission,12508.488000001,337975.4,337969.146,337985.812,350494.3,350494.7,2023-12-07T15:38:29Z,350502.699,Aufstand,ugomaji,s,mazidio,msingi,kujieleza,ugomaji,NA,NA,"c(""distractor1"", ""distractor2"", ""distractor3"")",NA,NA,NA,NA,NA,NA,NA,NA,NA,NA,NA,NA,NA,NA,NA,NA,NA,NA,NA
86528,Save data screen,canvas.Screen,2_3_0_1,NA,NA,timeout,499.97999999998,350497.2,350486.033,350502.699,350986.013,350990.6,2023-12-07T15:38:29Z,351002.679,Aufstand,ugomaji,s,mazidio,msingi,kujieleza,NA,NA,1,"c(""distractor1"", ""distractor2"", ""distractor3"")",NA,NA,NA,NA,NA,NA,NA,NA,NA,NA,NA,NA,NA,NA,NA,NA,NA,NA,NA
86528,shallow,flow.Sequence,2_3_0,NA,NA,completion,13000.201,337975.3,337969.146,337985.812,350986.013,350991,2023-12-07T15:38:29Z,351002.679,Aufstand,ugomaji,s,mazidio,msingi,kujieleza,NA,NA,NA,"c(""distractor1"", ""distractor2"", ""distractor3"")",NA,NA,NA,NA,NA,NA,NA,NA,NA,NA,NA,NA,NA,NA,NA,NA,NA,NA,NA
86528,task,flow.Sequence,2_3,NA,NA,completion,13000.201,337975.3,337969.146,337985.812,350986.013,350991.2,2023-12-07T15:38:29Z,351002.679,Aufstand,ugomaji,s,mazidio,msingi,kujieleza,NA,NA,NA,"c(""distractor1"", ""distractor2"", ""distractor3"")",NA,NA,NA,NA,NA,NA,NA,NA,NA,NA,NA,NA,NA,NA,NA,NA,NA,NA,NA
86528,Shallow Question,html.Page,2_4_0_0,NA,NA,form submission,22359.221,350991.4,350986.013,351002.679,373361.9,373362.4,2023-12-07T15:38:52Z,373369.58,Übersicht,kilindo,d,mgusano,chipukizi,kulinganisha,mgusano,NA,NA,"c(""distractor1"", ""distractor2"", ""distractor3"")",NA,NA,NA,NA,NA,NA,NA,NA,NA,NA,NA,NA,NA,NA,NA,NA,NA,NA,NA
86528,Save data screen,canvas.Screen,2_4_0_1,NA,NA,timeout,499.97999999998,373365.3,373352.914,373369.58,373852.894,373856.6,2023-12-07T15:38:52Z,373869.56,Übersicht,kilindo,d,mgusano,chipukizi,kulinganisha,NA,NA,0,"c(""distractor1"", ""distractor2"", ""distractor3"")",NA,NA,NA,NA,NA,NA,NA,NA,NA,NA,NA,NA,NA,NA,NA,NA,NA,NA,NA
86528,shallow,flow.Sequence,2_4_0,NA,NA,completion,22850.215,350991.4,350986.013,351002.679,373852.894,373857,2023-12-07T15:38:52Z,373869.56,Übersicht,kilindo,d,mgusano,chipukizi,kulinganisha,NA,NA,NA,"c(""distractor1"", ""distractor2"", ""distractor3"")",NA,NA,NA,NA,NA,NA,NA,NA,NA,NA,NA,NA,NA,NA,NA,NA,NA,NA,NA
86528,task,flow.Sequence,2_4,NA,NA,completion,22850.215,350991.3,350986.013,351002.679,373852.894,373857.2,2023-12-07T15:38:52Z,373869.56,Übersicht,kilindo,d,mgusano,chipukizi,kulinganisha,NA,NA,NA,"c(""distractor1"", ""distractor2"", ""distractor3"")",NA,NA,NA,NA,NA,NA,NA,NA,NA,NA,NA,NA,NA,NA,NA,NA,NA,NA,NA
86528,Shallow Question,html.Page,2_5_0_0,NA,NA,form submission,3391.44,373857.4,373852.894,373869.56,377261,377261.4,2023-12-07T15:38:56Z,377269.424,Kanzler,diwani,d,rasilmali,mahitaji,maabudu,diwani,NA,NA,"c(""distractor1"", ""distractor2"", ""distractor3"")",NA,NA,NA,NA,NA,NA,NA,NA,NA,NA,NA,NA,NA,NA,NA,NA,NA,NA,NA
86528,Save data screen,canvas.Screen,2_5_0_1,NA,NA,timeout,499.97999999998,377262.2,377252.758,377269.424,377752.738,377755.7,2023-12-07T15:38:56Z,377769.404,Kanzler,diwani,d,rasilmali,mahitaji,maabudu,NA,NA,1,"c(""distractor1"", ""distractor2"", ""distractor3"")",NA,NA,NA,NA,NA,NA,NA,NA,NA,NA,NA,NA,NA,NA,NA,NA,NA,NA,NA
86528,shallow,flow.Sequence,2_5_0,NA,NA,completion,3883.178,373857.3,373852.894,373869.56,377752.738,377756.1,2023-12-07T15:38:56Z,377769.404,Kanzler,diwani,d,rasilmali,mahitaji,maabudu,NA,NA,NA,"c(""distractor1"", ""distractor2"", ""distractor3"")",NA,NA,NA,NA,NA,NA,NA,NA,NA,NA,NA,NA,NA,NA,NA,NA,NA,NA,NA
86528,task,flow.Sequence,2_5,NA,NA,completion,3883.178,373857.3,373852.894,373869.56,377752.738,377756.3,2023-12-07T15:38:56Z,377769.404,Kanzler,diwani,d,rasilmali,mahitaji,maabudu,NA,NA,NA,"c(""distractor1"", ""distractor2"", ""distractor3"")",NA,NA,NA,NA,NA,NA,NA,NA,NA,NA,NA,NA,NA,NA,NA,NA,NA,NA,NA
86528,Shallow Question,html.Page,2_6_0_0,NA,NA,form submission,5458.1960000015,377756.5,377752.738,377769.404,383227.6,383228.1,2023-12-07T15:39:02Z,383236.396,Können,unaweza,s,kiongozi,bustani,mienendo,unaweza,NA,NA,"c(""distractor1"", ""distractor2"", ""distractor3"")",NA,NA,NA,NA,NA,NA,NA,NA,NA,NA,NA,NA,NA,NA,NA,NA,NA,NA,NA
86528,Save data screen,canvas.Screen,2_6_0_1,NA,NA,timeout,499.97999999998,383230.8,383219.73,383236.396,383719.71,383723.8,2023-12-07T15:39:02Z,383736.376,Können,unaweza,s,kiongozi,bustani,mienendo,NA,NA,1,"c(""distractor1"", ""distractor2"", ""distractor3"")",NA,NA,NA,NA,NA,NA,NA,NA,NA,NA,NA,NA,NA,NA,NA,NA,NA,NA,NA
86528,shallow,flow.Sequence,2_6_0,NA,NA,completion,5950.306,377756.5,377752.738,377769.404,383719.71,383724.1,2023-12-07T15:39:02Z,383736.376,Können,unaweza,s,kiongozi,bustani,mienendo,NA,NA,NA,"c(""distractor1"", ""distractor2"", ""distractor3"")",NA,NA,NA,NA,NA,NA,NA,NA,NA,NA,NA,NA,NA,NA,NA,NA,NA,NA,NA
86528,task,flow.Sequence,2_6,NA,NA,completion,5950.306,377756.5,377752.738,377769.404,383719.71,383724.3,2023-12-07T15:39:02Z,383736.376,Können,unaweza,s,kiongozi,bustani,mienendo,NA,NA,NA,"c(""distractor1"", ""distractor2"", ""distractor3"")",NA,NA,NA,NA,NA,NA,NA,NA,NA,NA,NA,NA,NA,NA,NA,NA,NA,NA,NA
86528,Shallow Question,html.Page,2_7_0_0,NA,NA,form submission,6375.8240000011,383724.6,383719.71,383736.376,390112.2,390112.7,2023-12-07T15:39:09Z,390119.454,System,maongozi,s,chokochoko,nuksani,mitaani,maongozi,NA,NA,"c(""distractor1"", ""distractor2"", ""distractor3"")",NA,NA,NA,NA,NA,NA,NA,NA,NA,NA,NA,NA,NA,NA,NA,NA,NA,NA,NA
86528,Save data screen,canvas.Screen,2_7_0_1,NA,NA,timeout,500.63299999997,390115.5,390102.788,390119.454,390603.421,390607.4,2023-12-07T15:39:09Z,390620.087,System,maongozi,s,chokochoko,nuksani,mitaani,NA,NA,1,"c(""distractor1"", ""distractor2"", ""distractor3"")",NA,NA,NA,NA,NA,NA,NA,NA,NA,NA,NA,NA,NA,NA,NA,NA,NA,NA,NA
86528,shallow,flow.Sequence,2_7_0,NA,NA,completion,6867.045,383724.5,383719.71,383736.376,390603.421,390607.8,2023-12-07T15:39:09Z,390620.087,System,maongozi,s,chokochoko,nuksani,mitaani,NA,NA,NA,"c(""distractor1"", ""distractor2"", ""distractor3"")",NA,NA,NA,NA,NA,NA,NA,NA,NA,NA,NA,NA,NA,NA,NA,NA,NA,NA,NA
86528,task,flow.Sequence,2_7,NA,NA,completion,6867.045,383724.4,383719.71,383736.376,390603.421,390608.1,2023-12-07T15:39:09Z,390620.087,System,maongozi,s,chokochoko,nuksani,mitaani,NA,NA,NA,"c(""distractor1"", ""distractor2"", ""distractor3"")",NA,NA,NA,NA,NA,NA,NA,NA,NA,NA,NA,NA,NA,NA,NA,NA,NA,NA,NA
86528,Shallow Question,html.Page,2_8_0_0,NA,NA,form submission,4924.8130000004,390608.3,390603.421,390620.087,395544.9,395545.3,2023-12-07T15:39:14Z,395553.223,Gefährdung,kuhatarisha,d,uchokozi,udhaifu,makorowezo,udhaifu,NA,NA,"c(""distractor1"", ""distractor2"", ""distractor3"")",NA,NA,NA,NA,NA,NA,NA,NA,NA,NA,NA,NA,NA,NA,NA,NA,NA,NA,NA
86528,Save data screen,canvas.Screen,2_8_0_1,NA,NA,timeout,499.97999999998,395548.4,395536.557,395553.223,396036.537,396038.7,2023-12-07T15:39:14Z,396053.203,Gefährdung,kuhatarisha,d,uchokozi,udhaifu,makorowezo,NA,NA,0,"c(""distractor1"", ""distractor2"", ""distractor3"")",NA,NA,NA,NA,NA,NA,NA,NA,NA,NA,NA,NA,NA,NA,NA,NA,NA,NA,NA
86528,shallow,flow.Sequence,2_8_0,NA,NA,completion,5416.45,390608.3,390603.421,390620.087,396036.537,396039.1,2023-12-07T15:39:14Z,396053.203,Gefährdung,kuhatarisha,d,uchokozi,udhaifu,makorowezo,NA,NA,NA,"c(""distractor1"", ""distractor2"", ""distractor3"")",NA,NA,NA,NA,NA,NA,NA,NA,NA,NA,NA,NA,NA,NA,NA,NA,NA,NA,NA
86528,task,flow.Sequence,2_8,NA,NA,completion,5416.45,390608.3,390603.421,390620.087,396036.537,396039.3,2023-12-07T15:39:14Z,396053.203,Gefährdung,kuhatarisha,d,uchokozi,udhaifu,makorowezo,NA,NA,NA,"c(""distractor1"", ""distractor2"", ""distractor3"")",NA,NA,NA,NA,NA,NA,NA,NA,NA,NA,NA,NA,NA,NA,NA,NA,NA,NA,NA
86528,Shallow Question,html.Page,2_9_0_0,NA,NA,form submission,8825.1970000004,396039.5,396036.537,396053.203,404878.4,404878.9,2023-12-07T15:39:23Z,404886.744,Körper,kiwiliwili,d,mapambano,mpatanishi,kiolezo,kiwiliwili,NA,NA,"c(""distractor1"", ""distractor2"", ""distractor3"")",NA,NA,NA,NA,NA,NA,NA,NA,NA,NA,NA,NA,NA,NA,NA,NA,NA,NA,NA
86528,Save data screen,canvas.Screen,2_9_0_1,NA,NA,timeout,499.97999999998,404881.3,404870.078,404886.744,405370.058,405374.3,2023-12-07T15:39:24Z,405386.724,Körper,kiwiliwili,d,mapambano,mpatanishi,kiolezo,NA,NA,1,"c(""distractor1"", ""distractor2"", ""distractor3"")",NA,NA,NA,NA,NA,NA,NA,NA,NA,NA,NA,NA,NA,NA,NA,NA,NA,NA,NA
86528,shallow,flow.Sequence,2_9_0,NA,NA,completion,9316.855,396039.5,396036.537,396053.203,405370.058,405374.7,2023-12-07T15:39:24Z,405386.724,Körper,kiwiliwili,d,mapambano,mpatanishi,kiolezo,NA,NA,NA,"c(""distractor1"", ""distractor2"", ""distractor3"")",NA,NA,NA,NA,NA,NA,NA,NA,NA,NA,NA,NA,NA,NA,NA,NA,NA,NA,NA
86528,task,flow.Sequence,2_9,NA,NA,completion,9316.855,396039.5,396036.537,396053.203,405370.058,405375,2023-12-07T15:39:24Z,405386.724,Körper,kiwiliwili,d,mapambano,mpatanishi,kiolezo,NA,NA,NA,"c(""distractor1"", ""distractor2"", ""distractor3"")",NA,NA,NA,NA,NA,NA,NA,NA,NA,NA,NA,NA,NA,NA,NA,NA,NA,NA,NA
86528,Shallow Question,html.Page,2_10_0_0,NA,NA,form submission,11541.376000002,405375.2,405370.058,405386.724,416928.1,416928.5,2023-12-07T15:39:35Z,416936.585,Abrechnung,uhasibu,d,kusahihisha,mpambano,mashambulizi,mpambano,NA,NA,"c(""distractor1"", ""distractor2"", ""distractor3"")",NA,NA,NA,NA,NA,NA,NA,NA,NA,NA,NA,NA,NA,NA,NA,NA,NA,NA,NA
86528,Save data screen,canvas.Screen,2_10_0_1,NA,NA,timeout,499.97999999998,416931.1,416919.919,416936.585,417419.899,417424.7,2023-12-07T15:39:36Z,417436.565,Abrechnung,uhasibu,d,kusahihisha,mpambano,mashambulizi,NA,NA,0,"c(""distractor1"", ""distractor2"", ""distractor3"")",NA,NA,NA,NA,NA,NA,NA,NA,NA,NA,NA,NA,NA,NA,NA,NA,NA,NA,NA
86528,shallow,flow.Sequence,2_10_0,NA,NA,completion,12033.175,405375.1,405370.058,405386.724,417419.899,417425.1,2023-12-07T15:39:36Z,417436.565,Abrechnung,uhasibu,d,kusahihisha,mpambano,mashambulizi,NA,NA,NA,"c(""distractor1"", ""distractor2"", ""distractor3"")",NA,NA,NA,NA,NA,NA,NA,NA,NA,NA,NA,NA,NA,NA,NA,NA,NA,NA,NA
86528,task,flow.Sequence,2_10,NA,NA,completion,12033.175,405375.1,405370.058,405386.724,417419.899,417425.2,2023-12-07T15:39:36Z,417436.565,Abrechnung,uhasibu,d,kusahihisha,mpambano,mashambulizi,NA,NA,NA,"c(""distractor1"", ""distractor2"", ""distractor3"")",NA,NA,NA,NA,NA,NA,NA,NA,NA,NA,NA,NA,NA,NA,NA,NA,NA,NA,NA
86528,Shallow Question,html.Page,2_11_0_0,NA,NA,form submission,7725.1349999993,417425.5,417419.899,417436.565,425161.7,425162,2023-12-07T15:39:44Z,425170.556,Angreifer,mshambulizi,s,kitengo,tasinia,usafirishaji,mshambulizi,NA,NA,"c(""distractor1"", ""distractor2"", ""distractor3"")",NA,NA,NA,NA,NA,NA,NA,NA,NA,NA,NA,NA,NA,NA,NA,NA,NA,NA,NA
86528,Save data screen,canvas.Screen,2_11_0_1,NA,NA,timeout,499.98000000004,425165.2,425153.89,425170.556,425653.87,425658.5,2023-12-07T15:39:44Z,425670.536,Angreifer,mshambulizi,s,kitengo,tasinia,usafirishaji,NA,NA,1,"c(""distractor1"", ""distractor2"", ""distractor3"")",NA,NA,NA,NA,NA,NA,NA,NA,NA,NA,NA,NA,NA,NA,NA,NA,NA,NA,NA
86528,shallow,flow.Sequence,2_11_0,NA,NA,completion,8217.305,417425.5,417419.899,417436.565,425653.87,425659,2023-12-07T15:39:44Z,425670.536,Angreifer,mshambulizi,s,kitengo,tasinia,usafirishaji,NA,NA,NA,"c(""distractor1"", ""distractor2"", ""distractor3"")",NA,NA,NA,NA,NA,NA,NA,NA,NA,NA,NA,NA,NA,NA,NA,NA,NA,NA,NA
86528,task,flow.Sequence,2_11,NA,NA,completion,8217.305,417425.4,417419.899,417436.565,425653.87,425659.2,2023-12-07T15:39:44Z,425670.536,Angreifer,mshambulizi,s,kitengo,tasinia,usafirishaji,NA,NA,NA,"c(""distractor1"", ""distractor2"", ""distractor3"")",NA,NA,NA,NA,NA,NA,NA,NA,NA,NA,NA,NA,NA,NA,NA,NA,NA,NA,NA
86528,Shallow Question,html.Page,2_12_0_0,NA,NA,form submission,7358.7640000007,425659.4,425653.87,425670.536,433029.3,433029.8,2023-12-07T15:39:51Z,433036.908,Verzögerung,kuchelewa,d,mwakilishi,mwanauchumi,jaribio,mwakilishi,NA,NA,"c(""distractor1"", ""distractor2"", ""distractor3"")",NA,NA,NA,NA,NA,NA,NA,NA,NA,NA,NA,NA,NA,NA,NA,NA,NA,NA,NA
86528,Save data screen,canvas.Screen,2_12_0_1,NA,NA,timeout,499.97999999998,433032.4,433020.242,433036.908,433520.222,433524.2,2023-12-07T15:39:52Z,433536.888,Verzögerung,kuchelewa,d,mwakilishi,mwanauchumi,jaribio,NA,NA,0,"c(""distractor1"", ""distractor2"", ""distractor3"")",NA,NA,NA,NA,NA,NA,NA,NA,NA,NA,NA,NA,NA,NA,NA,NA,NA,NA,NA
86528,shallow,flow.Sequence,2_12_0,NA,NA,completion,7849.686,425659.4,425653.87,425670.536,433520.222,433524.6,2023-12-07T15:39:52Z,433536.888,Verzögerung,kuchelewa,d,mwakilishi,mwanauchumi,jaribio,NA,NA,NA,"c(""distractor1"", ""distractor2"", ""distractor3"")",NA,NA,NA,NA,NA,NA,NA,NA,NA,NA,NA,NA,NA,NA,NA,NA,NA,NA,NA
86528,task,flow.Sequence,2_12,NA,NA,completion,7849.686,425659.3,425653.87,425670.536,433520.222,433524.8,2023-12-07T15:39:52Z,433536.888,Verzögerung,kuchelewa,d,mwakilishi,mwanauchumi,jaribio,NA,NA,NA,"c(""distractor1"", ""distractor2"", ""distractor3"")",NA,NA,NA,NA,NA,NA,NA,NA,NA,NA,NA,NA,NA,NA,NA,NA,NA,NA,NA
86528,Shallow Question,html.Page,2_13_0_0,NA,NA,form submission,9524.8119999993,433525,433520.222,433536.888,443061.7,443062.1,2023-12-07T15:40:01Z,443070.429,Sänger,mwimbaji,s,msichana,shughuli,mshirika,mshirika,NA,NA,"c(""distractor1"", ""distractor2"", ""distractor3"")",NA,NA,NA,NA,NA,NA,NA,NA,NA,NA,NA,NA,NA,NA,NA,NA,NA,NA,NA
86528,Save data screen,canvas.Screen,2_13_0_1,NA,NA,timeout,499.97999999998,443064.8,443053.763,443070.429,443553.743,443555.7,2023-12-07T15:40:02Z,443570.409,Sänger,mwimbaji,s,msichana,shughuli,mshirika,NA,NA,0,"c(""distractor1"", ""distractor2"", ""distractor3"")",NA,NA,NA,NA,NA,NA,NA,NA,NA,NA,NA,NA,NA,NA,NA,NA,NA,NA,NA
86528,shallow,flow.Sequence,2_13_0,NA,NA,completion,10016.855,433525,433520.222,433536.888,443553.743,443556.2,2023-12-07T15:40:02Z,443570.409,Sänger,mwimbaji,s,msichana,shughuli,mshirika,NA,NA,NA,"c(""distractor1"", ""distractor2"", ""distractor3"")",NA,NA,NA,NA,NA,NA,NA,NA,NA,NA,NA,NA,NA,NA,NA,NA,NA,NA,NA
86528,task,flow.Sequence,2_13,NA,NA,completion,10016.855,433524.9,433520.222,433536.888,443553.743,443556.4,2023-12-07T15:40:02Z,443570.409,Sänger,mwimbaji,s,msichana,shughuli,mshirika,NA,NA,NA,"c(""distractor1"", ""distractor2"", ""distractor3"")",NA,NA,NA,NA,NA,NA,NA,NA,NA,NA,NA,NA,NA,NA,NA,NA,NA,NA,NA
86528,Shallow Question,html.Page,2_14_0_0,NA,NA,form submission,7308.591,443556.6,443553.743,443570.409,450879,450879.5,2023-12-07T15:40:09Z,450887.312,Prüfung,mtihani,s,mkulima,mtizamo,ufumbuzi,mtihani,NA,NA,"c(""distractor1"", ""distractor2"", ""distractor3"")",NA,NA,NA,NA,NA,NA,NA,NA,NA,NA,NA,NA,NA,NA,NA,NA,NA,NA,NA
86528,Save data screen,canvas.Screen,2_14_0_1,NA,NA,timeout,499.98000000004,450882.2,450870.646,450887.312,451370.626,451375,2023-12-07T15:40:10Z,451387.292,Prüfung,mtihani,s,mkulima,mtizamo,ufumbuzi,NA,NA,1,"c(""distractor1"", ""distractor2"", ""distractor3"")",NA,NA,NA,NA,NA,NA,NA,NA,NA,NA,NA,NA,NA,NA,NA,NA,NA,NA,NA
86528,shallow,flow.Sequence,2_14_0,NA,NA,completion,7800.217,443556.6,443553.743,443570.409,451370.626,451375.5,2023-12-07T15:40:10Z,451387.292,Prüfung,mtihani,s,mkulima,mtizamo,ufumbuzi,NA,NA,NA,"c(""distractor1"", ""distractor2"", ""distractor3"")",NA,NA,NA,NA,NA,NA,NA,NA,NA,NA,NA,NA,NA,NA,NA,NA,NA,NA,NA
86528,task,flow.Sequence,2_14,NA,NA,completion,7800.217,443556.6,443553.743,443570.409,451370.626,451375.7,2023-12-07T15:40:10Z,451387.292,Prüfung,mtihani,s,mkulima,mtizamo,ufumbuzi,NA,NA,NA,"c(""distractor1"", ""distractor2"", ""distractor3"")",NA,NA,NA,NA,NA,NA,NA,NA,NA,NA,NA,NA,NA,NA,NA,NA,NA,NA,NA
86528,Shallow Question,html.Page,2_15_0_0,NA,NA,form submission,5791.8080000015,451375.9,451370.626,451387.292,457179.1,457179.5,2023-12-07T15:40:16Z,457187.06,Kreativität,ubunifu,s,mratibu,mwendelezo,makubaliano,mwendelezo,NA,NA,"c(""distractor1"", ""distractor2"", ""distractor3"")",NA,NA,NA,NA,NA,NA,NA,NA,NA,NA,NA,NA,NA,NA,NA,NA,NA,NA,NA
86528,Save data screen,canvas.Screen,2_15_0_1,NA,NA,timeout,499.97999999998,457181.9,457170.394,457187.06,457670.374,457671.9,2023-12-07T15:40:16Z,457687.04,Kreativität,ubunifu,s,mratibu,mwendelezo,makubaliano,NA,NA,0,"c(""distractor1"", ""distractor2"", ""distractor3"")",NA,NA,NA,NA,NA,NA,NA,NA,NA,NA,NA,NA,NA,NA,NA,NA,NA,NA,NA
86528,shallow,flow.Sequence,2_15_0,NA,NA,completion,6283.082,451375.8,451370.626,451387.292,457670.374,457672.3,2023-12-07T15:40:16Z,457687.04,Kreativität,ubunifu,s,mratibu,mwendelezo,makubaliano,NA,NA,NA,"c(""distractor1"", ""distractor2"", ""distractor3"")",NA,NA,NA,NA,NA,NA,NA,NA,NA,NA,NA,NA,NA,NA,NA,NA,NA,NA,NA
86528,task,flow.Sequence,2_15,NA,NA,completion,6283.082,451375.8,451370.626,451387.292,457670.374,457672.5,2023-12-07T15:40:16Z,457687.04,Kreativität,ubunifu,s,mratibu,mwendelezo,makubaliano,NA,NA,NA,"c(""distractor1"", ""distractor2"", ""distractor3"")",NA,NA,NA,NA,NA,NA,NA,NA,NA,NA,NA,NA,NA,NA,NA,NA,NA,NA,NA
86528,retrieval block 2 (multiple choice),flow.Loop,2,NA,NA,completion,152835.155,304823.7,304818.553,304835.219,457670.374,457672.8,2023-12-07T15:40:16Z,457687.04,NA,NA,NA,NA,NA,NA,NA,NA,NA,"c(""distractor1"", ""distractor2"", ""distractor3"")",NA,NA,NA,NA,NA,NA,NA,NA,NA,NA,NA,NA,NA,NA,NA,NA,NA,NA,NA
86528,End,canvas.Screen,3,NA,keypress(Space),response,1873.7600000008,457672.9,457670.374,457687.04,459560.8,459566.5,2023-12-07T15:40:18Z,459571.056,NA,NA,NA,NA,NA,NA,NA,NA,NA,NULL,NA,NA,NA,NA,NA,NA,NA,NA,NA,NA,NA,NA,NA,NA,NA,NA,NA,NA,NA
86528,root,flow.Sequence,NA,NA,NA,completion,458730.053,827.80000000075,764.083,830.747,459560.8,459567.3,2023-12-07T15:40:18Z,459571.056,NA,NA,NA,NA,NA,NA,NA,NA,NA,NULL,NA,NA,NA,NA,NA,NA,NA,NA,NA,NA,NA,NA,NA,NA,NA,NA,NA,NA,NA
