observation,sender,sender_type,sender_id,response,response_action,ended_on,duration,time_run,time_render,time_show,time_end,time_commit,timestamp,time_switch,distractors,german,swahili,enc,distractor1,distractor2,distractor3,response_2,x,correct,x_2,url_vp,url_sess,meta_labjs_version,meta_location,meta_user_agent,meta_platform,meta_language,meta_locale,meta_time_zone,meta_timezone_offset,meta_screen_width,meta_screen_height,meta_scroll_width,meta_scroll_height,meta_window_inner_width,meta_window_inner_height,meta_device_pixel_ratio,meta_labjs_build_flavor,meta_labjs_build_commit
6a880,Introduction general,canvas.Screen,0,weiter,keypress(q),response,10714.101000012,1289.200000003,1286.058,1302.699,12016.800000012,12017.800000012,2023-11-24T13:24:38Z,12019.753,NULL,NA,NA,NA,NA,NA,NA,NA,NA,NA,NA,188,3,20.2.4,https://neurocog.fernuni.ch/studies/vweber/sliechti/encoding_immediate/index.html?vp=188&sess=3,"Mozilla/5.0 (Windows NT 10.0; Win64; x64) AppleWebKit/537.36 (KHTML, like Gecko) Chrome/119.0.0.0 Safari/537.36",Win32,en,de,Europe/Zurich,-60,1290,860,1720,901,1720,948,1.3125,production,f5b4a49f956347addd546a832a3327688c2c0fef
6a880,Introduction practice,canvas.Screen,1_0,NA,keypress(Space),response,4451.447000003,12018.100000009,12003.03,12019.753,16471.200000003,16472.100000009,2023-11-24T13:24:43Z,16486.51,NULL,NA,NA,NA,NA,NA,NA,NA,NA,NA,NA,NA,NA,NA,NA,NA,NA,NA,NA,NA,NA,NA,NA,NA,NA,NA,NA,NA,NA,NA
6a880,Deep Question,html.Page,1_1_0_0_0,NA,NA,form submission,3479.690000003,16472.300000012,16469.821,16486.51,19966.200000003,19966.5,2023-11-24T13:24:46Z,19969.922,"c(""distractor1"", ""distractor2"", ""distractor3"")",Schatten,kivuli,d,NA,NA,NA,a,NA,NA,NA,NA,NA,NA,NA,NA,NA,NA,NA,NA,NA,NA,NA,NA,NA,NA,NA,NA,NA,NA
6a880,"""Richtig""-Screen",canvas.Screen,1_1_0_0_1,NA,NA,skipped,NA,19967.300000012,NA,NA,19966.200000003,19967.5,2023-11-24T13:24:46Z,19969.922,"c(""distractor1"", ""distractor2"", ""distractor3"")",Schatten,kivuli,d,NA,NA,NA,NA,NA,NA,NA,NA,NA,NA,NA,NA,NA,NA,NA,NA,NA,NA,NA,NA,NA,NA,NA,NA,NA,NA
6a880,"""Falsch""-Screen",canvas.Screen,1_1_0_0_2,NA,NA,timeout,5000.13,19968.200000003,19953.308,19969.922,24953.45,24954.400000006,2023-11-24T13:24:51Z,24970.052,"c(""distractor1"", ""distractor2"", ""distractor3"")",Schatten,kivuli,d,NA,NA,NA,NA,NA,0,NA,NA,NA,NA,NA,NA,NA,NA,NA,NA,NA,NA,NA,NA,NA,NA,NA,NA,NA,NA
6a880,deep,flow.Sequence,1_1_0_0,NA,NA,completion,8466.94,16472.300000012,16469.821,16486.51,24953.45,24954.700000003,2023-11-24T13:24:51Z,24970.052,"c(""distractor1"", ""distractor2"", ""distractor3"")",Schatten,kivuli,d,NA,NA,NA,NA,NA,NA,NA,NA,NA,NA,NA,NA,NA,NA,NA,NA,NA,NA,NA,NA,NA,NA,NA,NA,NA,NA
6a880,shallow,flow.Sequence,1_1_0_1,NA,NA,skipped,NA,24954.800000012,NA,NA,24953.45,24954.900000006,2023-11-24T13:24:51Z,24970.052,"c(""distractor1"", ""distractor2"", ""distractor3"")",Schatten,kivuli,d,NA,NA,NA,NA,NA,NA,NA,NA,NA,NA,NA,NA,NA,NA,NA,NA,NA,NA,NA,NA,NA,NA,NA,NA,NA,NA
6a880,task,flow.Sequence,1_1_0,NA,NA,completion,8466.94,16472.200000003,16469.821,16486.51,24953.45,24955.400000006,2023-11-24T13:24:51Z,24970.052,"c(""distractor1"", ""distractor2"", ""distractor3"")",Schatten,kivuli,d,NA,NA,NA,NA,NA,NA,NA,NA,NA,NA,NA,NA,NA,NA,NA,NA,NA,NA,NA,NA,NA,NA,NA,NA,NA,NA
6a880,deep,flow.Sequence,1_1_1_0,NA,NA,skipped,NA,24955.5,NA,NA,24953.45,24955.600000009,2023-11-24T13:24:51Z,24970.052,"c(""distractor1"", ""distractor2"", ""distractor3"")",Rückhalt,msaada,s,muhula,auwali,kiwimbe,NA,NA,NA,NA,NA,NA,NA,NA,NA,NA,NA,NA,NA,NA,NA,NA,NA,NA,NA,NA,NA,NA,NA
6a880,Shallow Question,html.Page,1_1_1_1_0,NA,NA,form submission,6515.148000003,24955.700000003,24953.45,24970.052,31485.200000003,31485.700000003,2023-11-24T13:24:58Z,31486.924,"c(""distractor1"", ""distractor2"", ""distractor3"")",Rückhalt,msaada,s,muhula,auwali,kiwimbe,kiwimbe,NA,NA,NA,NA,NA,NA,NA,NA,NA,NA,NA,NA,NA,NA,NA,NA,NA,NA,NA,NA,NA,NA
6a880,"""Richtig""-Screen",canvas.Screen,1_1_1_1_1,NA,NA,skipped,NA,31486.400000006,NA,NA,31485.200000003,31486.5,2023-11-24T13:24:58Z,31486.924,"c(""distractor1"", ""distractor2"", ""distractor3"")",Rückhalt,msaada,s,muhula,auwali,kiwimbe,NA,NA,NA,NA,NA,NA,NA,NA,NA,NA,NA,NA,NA,NA,NA,NA,NA,NA,NA,NA,NA,NA,NA
6a880,"""Falsch""-Screen",canvas.Screen,1_1_1_1_2,NA,NA,timeout,5000.104,31487.300000012,31470.232,31486.924,36470.423,36471,2023-11-24T13:25:03Z,36487.028,"c(""distractor1"", ""distractor2"", ""distractor3"")",Rückhalt,msaada,s,muhula,auwali,kiwimbe,NA,NA,0,NA,NA,NA,NA,NA,NA,NA,NA,NA,NA,NA,NA,NA,NA,NA,NA,NA,NA,NA,NA
6a880,shallow,flow.Sequence,1_1_1_1,NA,NA,completion,11500.371,24955.700000003,24953.45,24970.052,36470.423,36471.400000006,2023-11-24T13:25:03Z,36487.028,"c(""distractor1"", ""distractor2"", ""distractor3"")",Rückhalt,msaada,s,muhula,auwali,kiwimbe,NA,NA,NA,NA,NA,NA,NA,NA,NA,NA,NA,NA,NA,NA,NA,NA,NA,NA,NA,NA,NA,NA,NA
6a880,task,flow.Sequence,1_1_1,NA,NA,completion,11500.371,24955.400000006,24953.45,24970.052,36470.423,36471.400000006,2023-11-24T13:25:03Z,36487.028,"c(""distractor1"", ""distractor2"", ""distractor3"")",Rückhalt,msaada,s,muhula,auwali,kiwimbe,NA,NA,NA,NA,NA,NA,NA,NA,NA,NA,NA,NA,NA,NA,NA,NA,NA,NA,NA,NA,NA,NA,NA
6a880,deep,flow.Sequence,1_1_2_0,NA,NA,skipped,NA,36471.5,NA,NA,36470.423,36471.600000009,2023-11-24T13:25:03Z,36487.028,"c(""distractor1"", ""distractor2"", ""distractor3"")",Gegenwart,hadhara,s,katiba,jokofu,mikopo,NA,NA,NA,NA,NA,NA,NA,NA,NA,NA,NA,NA,NA,NA,NA,NA,NA,NA,NA,NA,NA,NA,NA
6a880,Shallow Question,html.Page,1_1_2_1_0,NA,NA,form submission,14233.472,36471.600000009,36470.423,36487.028,50720.5,50720.900000006,2023-11-24T13:25:17Z,50738.292,"c(""distractor1"", ""distractor2"", ""distractor3"")",Gegenwart,hadhara,s,katiba,jokofu,mikopo,mikopo,NA,NA,NA,NA,NA,NA,NA,NA,NA,NA,NA,NA,NA,NA,NA,NA,NA,NA,NA,NA,NA,NA
6a880,"""Richtig""-Screen",canvas.Screen,1_1_2_1_1,NA,NA,skipped,NA,50722.5,NA,NA,50720.5,50722.600000009,2023-11-24T13:25:17Z,50738.292,"c(""distractor1"", ""distractor2"", ""distractor3"")",Gegenwart,hadhara,s,katiba,jokofu,mikopo,NA,NA,NA,NA,NA,NA,NA,NA,NA,NA,NA,NA,NA,NA,NA,NA,NA,NA,NA,NA,NA,NA,NA
6a880,"""Falsch""-Screen",canvas.Screen,1_1_2_1_2,NA,NA,timeout,4999.185,50723.5,50704.02,50738.292,55720.999,55721.700000003,2023-11-24T13:25:22Z,55737.477,"c(""distractor1"", ""distractor2"", ""distractor3"")",Gegenwart,hadhara,s,katiba,jokofu,mikopo,NA,NA,0,NA,NA,NA,NA,NA,NA,NA,NA,NA,NA,NA,NA,NA,NA,NA,NA,NA,NA,NA,NA
6a880,shallow,flow.Sequence,1_1_2_1,NA,NA,completion,19233.971,36471.600000009,36470.423,36487.028,55720.999,55722,2023-11-24T13:25:22Z,55737.477,"c(""distractor1"", ""distractor2"", ""distractor3"")",Gegenwart,hadhara,s,katiba,jokofu,mikopo,NA,NA,NA,NA,NA,NA,NA,NA,NA,NA,NA,NA,NA,NA,NA,NA,NA,NA,NA,NA,NA,NA,NA
6a880,task,flow.Sequence,1_1_2,NA,NA,completion,19233.971,36471.5,36470.423,36487.028,55720.999,55722.300000012,2023-11-24T13:25:22Z,55737.477,"c(""distractor1"", ""distractor2"", ""distractor3"")",Gegenwart,hadhara,s,katiba,jokofu,mikopo,NA,NA,NA,NA,NA,NA,NA,NA,NA,NA,NA,NA,NA,NA,NA,NA,NA,NA,NA,NA,NA,NA,NA
6a880,Deep Question,html.Page,1_1_3_0_0,NA,NA,form submission,8032.023,55722.600000009,55720.999,55737.477,63769.5,63769.600000009,2023-11-24T13:25:30Z,63771.037,"c(""distractor1"", ""distractor2"", ""distractor3"")",Qualität,mtindo,d,NA,NA,NA,sf,NA,NA,NA,NA,NA,NA,NA,NA,NA,NA,NA,NA,NA,NA,NA,NA,NA,NA,NA,NA,NA,NA
6a880,"""Richtig""-Screen",canvas.Screen,1_1_3_0_1,NA,NA,skipped,NA,63771.100000009,NA,NA,63769.5,63771.200000003,2023-11-24T13:25:30Z,63771.037,"c(""distractor1"", ""distractor2"", ""distractor3"")",Qualität,mtindo,d,NA,NA,NA,NA,NA,NA,NA,NA,NA,NA,NA,NA,NA,NA,NA,NA,NA,NA,NA,NA,NA,NA,NA,NA,NA,NA
6a880,"""Falsch""-Screen",canvas.Screen,1_1_3_0_2,NA,NA,timeout,5000.175,63771.900000006,63754.407,63771.037,68754.519,68755.300000012,2023-11-24T13:25:35Z,68771.212,"c(""distractor1"", ""distractor2"", ""distractor3"")",Qualität,mtindo,d,NA,NA,NA,NA,NA,0,NA,NA,NA,NA,NA,NA,NA,NA,NA,NA,NA,NA,NA,NA,NA,NA,NA,NA,NA,NA
6a880,deep,flow.Sequence,1_1_3_0,NA,NA,completion,13017.042,55722.5,55720.999,55737.477,68754.519,68755.700000003,2023-11-24T13:25:35Z,68771.212,"c(""distractor1"", ""distractor2"", ""distractor3"")",Qualität,mtindo,d,NA,NA,NA,NA,NA,NA,NA,NA,NA,NA,NA,NA,NA,NA,NA,NA,NA,NA,NA,NA,NA,NA,NA,NA,NA,NA
6a880,shallow,flow.Sequence,1_1_3_1,NA,NA,skipped,NA,68755.800000012,NA,NA,68754.519,68756,2023-11-24T13:25:35Z,68771.212,"c(""distractor1"", ""distractor2"", ""distractor3"")",Qualität,mtindo,d,NA,NA,NA,NA,NA,NA,NA,NA,NA,NA,NA,NA,NA,NA,NA,NA,NA,NA,NA,NA,NA,NA,NA,NA,NA,NA
6a880,task,flow.Sequence,1_1_3,NA,NA,completion,13017.042,55722.400000006,55720.999,55737.477,68754.519,68756.200000003,2023-11-24T13:25:35Z,68771.212,"c(""distractor1"", ""distractor2"", ""distractor3"")",Qualität,mtindo,d,NA,NA,NA,NA,NA,NA,NA,NA,NA,NA,NA,NA,NA,NA,NA,NA,NA,NA,NA,NA,NA,NA,NA,NA,NA,NA
6a880,Deep Question,html.Page,1_1_4_0_0,NA,NA,form submission,2620.188000006,68756.700000003,68754.519,68771.212,71391.400000006,71391.700000003,2023-11-24T13:25:37Z,71404.583,"c(""distractor1"", ""distractor2"", ""distractor3"")",Gesundheit,salama,d,NA,NA,NA,df,NA,NA,NA,NA,NA,NA,NA,NA,NA,NA,NA,NA,NA,NA,NA,NA,NA,NA,NA,NA,NA,NA
6a880,"""Richtig""-Screen",canvas.Screen,1_1_4_0_1,NA,NA,skipped,NA,71393.800000012,NA,NA,71391.400000006,71393.900000006,2023-11-24T13:25:37Z,71404.583,"c(""distractor1"", ""distractor2"", ""distractor3"")",Gesundheit,salama,d,NA,NA,NA,NA,NA,NA,NA,NA,NA,NA,NA,NA,NA,NA,NA,NA,NA,NA,NA,NA,NA,NA,NA,NA,NA,NA
6a880,"""Falsch""-Screen",canvas.Screen,1_1_4_0_2,NA,NA,timeout,5000.053,71394.600000009,71387.956,71404.583,76387.959,76388.600000009,2023-11-24T13:25:42Z,76404.636,"c(""distractor1"", ""distractor2"", ""distractor3"")",Gesundheit,salama,d,NA,NA,NA,NA,NA,0,NA,NA,NA,NA,NA,NA,NA,NA,NA,NA,NA,NA,NA,NA,NA,NA,NA,NA,NA,NA
6a880,deep,flow.Sequence,1_1_4_0,NA,NA,completion,7616.747,68756.600000009,68754.519,68771.212,76387.959,76388.900000006,2023-11-24T13:25:42Z,76404.636,"c(""distractor1"", ""distractor2"", ""distractor3"")",Gesundheit,salama,d,NA,NA,NA,NA,NA,NA,NA,NA,NA,NA,NA,NA,NA,NA,NA,NA,NA,NA,NA,NA,NA,NA,NA,NA,NA,NA
6a880,shallow,flow.Sequence,1_1_4_1,NA,NA,skipped,NA,76388.900000006,NA,NA,76387.959,76389,2023-11-24T13:25:42Z,76404.636,"c(""distractor1"", ""distractor2"", ""distractor3"")",Gesundheit,salama,d,NA,NA,NA,NA,NA,NA,NA,NA,NA,NA,NA,NA,NA,NA,NA,NA,NA,NA,NA,NA,NA,NA,NA,NA,NA,NA
6a880,task,flow.Sequence,1_1_4,NA,NA,completion,7616.747,68756.5,68754.519,68771.212,76387.959,76389.100000009,2023-11-24T13:25:42Z,76404.636,"c(""distractor1"", ""distractor2"", ""distractor3"")",Gesundheit,salama,d,NA,NA,NA,NA,NA,NA,NA,NA,NA,NA,NA,NA,NA,NA,NA,NA,NA,NA,NA,NA,NA,NA,NA,NA,NA,NA
6a880,deep,flow.Sequence,1_1_5_0,NA,NA,skipped,NA,76389.200000003,NA,NA,76387.959,76389.200000003,2023-11-24T13:25:42Z,76404.636,"c(""distractor1"", ""distractor2"", ""distractor3"")",Kritik,lawama,s,dereva,nafasi,mawazo,NA,NA,NA,NA,NA,NA,NA,NA,NA,NA,NA,NA,NA,NA,NA,NA,NA,NA,NA,NA,NA,NA,NA
6a880,Shallow Question,html.Page,1_1_5_1_0,NA,NA,form submission,4638.864,76389.300000012,76387.959,76404.636,81043.5,81043.800000012,2023-11-24T13:25:47Z,81054.833,"c(""distractor1"", ""distractor2"", ""distractor3"")",Kritik,lawama,s,dereva,nafasi,mawazo,dereva,NA,NA,NA,NA,NA,NA,NA,NA,NA,NA,NA,NA,NA,NA,NA,NA,NA,NA,NA,NA,NA,NA
6a880,"""Richtig""-Screen",canvas.Screen,1_1_5_1_1,NA,NA,skipped,NA,81045.200000003,NA,NA,81043.5,81045.300000012,2023-11-24T13:25:47Z,81054.833,"c(""distractor1"", ""distractor2"", ""distractor3"")",Kritik,lawama,s,dereva,nafasi,mawazo,NA,NA,NA,NA,NA,NA,NA,NA,NA,NA,NA,NA,NA,NA,NA,NA,NA,NA,NA,NA,NA,NA,NA
6a880,"""Falsch""-Screen",canvas.Screen,1_1_5_1_2,NA,NA,timeout,5000.076,81045.600000009,81038.18,81054.833,86038.232,86038.800000012,2023-11-24T13:25:52Z,86054.909,"c(""distractor1"", ""distractor2"", ""distractor3"")",Kritik,lawama,s,dereva,nafasi,mawazo,NA,NA,0,NA,NA,NA,NA,NA,NA,NA,NA,NA,NA,NA,NA,NA,NA,NA,NA,NA,NA,NA,NA
6a880,shallow,flow.Sequence,1_1_5_1,NA,NA,completion,9633.596,76389.200000003,76387.959,76404.636,86038.232,86038.900000006,2023-11-24T13:25:52Z,86054.909,"c(""distractor1"", ""distractor2"", ""distractor3"")",Kritik,lawama,s,dereva,nafasi,mawazo,NA,NA,NA,NA,NA,NA,NA,NA,NA,NA,NA,NA,NA,NA,NA,NA,NA,NA,NA,NA,NA,NA,NA
6a880,task,flow.Sequence,1_1_5,NA,NA,completion,9633.596,76389.100000009,76387.959,76404.636,86038.232,86039.100000009,2023-11-24T13:25:52Z,86054.909,"c(""distractor1"", ""distractor2"", ""distractor3"")",Kritik,lawama,s,dereva,nafasi,mawazo,NA,NA,NA,NA,NA,NA,NA,NA,NA,NA,NA,NA,NA,NA,NA,NA,NA,NA,NA,NA,NA,NA,NA
6a880,block,flow.Loop,1_1,NA,NA,completion,69551.722,16472.200000003,16469.821,16486.51,86038.232,86039.100000009,2023-11-24T13:25:52Z,86054.909,"c(""distractor1"", ""distractor2"", ""distractor3"")",NA,NA,NA,NA,NA,NA,NA,NA,NA,NA,NA,NA,NA,NA,NA,NA,NA,NA,NA,NA,NA,NA,NA,NA,NA,NA,NA,NA,NA
6a880,Practice,flow.Sequence,1,NA,NA,completion,74018.479,12018.100000009,12003.03,12019.753,86038.232,86039.200000003,2023-11-24T13:25:52Z,86054.909,NULL,NA,NA,NA,NA,NA,NA,NA,NA,NA,NA,NA,NA,NA,NA,NA,NA,NA,NA,NA,NA,NA,NA,NA,NA,NA,NA,NA,NA,NA
6a880,Experiment start,canvas.Screen,2,weiter,keypress(q),response,11686.891000012,86039.200000003,86038.232,86054.909,97741.800000012,97743.400000006,2023-11-24T13:26:04Z,97805.205,NULL,NA,NA,NA,NA,NA,NA,NA,NA,NA,NA,NA,NA,NA,NA,NA,NA,NA,NA,NA,NA,NA,NA,NA,NA,NA,NA,NA,NA,NA
6a880,Deep Question,html.Page,3_0_0_0_0_0_0,NA,NA,form submission,20047.595000012,97802.200000003,97788.465,97805.205,117852.80000001,117853,2023-11-24T13:26:24Z,117855.731,NULL,Konkurrent,mshindani,d,NA,NA,NA,k,NA,NA,0,NA,NA,NA,NA,NA,NA,NA,NA,NA,NA,NA,NA,NA,NA,NA,NA,NA,NA,NA
6a880,"""Richtig""-Screen",canvas.Screen,3_0_0_0_0_0_1,NA,NA,skipped,NA,117854.60000001,NA,NA,117852.80000001,117854.7,2023-11-24T13:26:24Z,117855.731,NULL,Konkurrent,mshindani,d,NA,NA,NA,NA,sdf,NA,0,NA,NA,NA,NA,NA,NA,NA,NA,NA,NA,NA,NA,NA,NA,NA,NA,NA,NA,NA
6a880,"""Falsch""-Screen",canvas.Screen,3_0_0_0_0_0_2,NA,NA,timeout,5000.181,117855,117839.025,117855.731,122839.246,122839.90000001,2023-11-24T13:26:29Z,122855.912,NULL,Konkurrent,mshindani,d,NA,NA,NA,NA,sdf,0,0,NA,NA,NA,NA,NA,NA,NA,NA,NA,NA,NA,NA,NA,NA,NA,NA,NA,NA,NA
6a880,deep,flow.Sequence,3_0_0_0_0_0,NA,NA,completion,25034.041,97802.200000003,97788.465,97805.205,122839.246,122840.2,2023-11-24T13:26:29Z,122855.912,NULL,Konkurrent,mshindani,d,NA,NA,NA,NA,sdf,NA,0,NA,NA,NA,NA,NA,NA,NA,NA,NA,NA,NA,NA,NA,NA,NA,NA,NA,NA,NA
6a880,shallow,flow.Sequence,3_0_0_0_0_1,NA,NA,skipped,NA,122840.30000001,NA,NA,122839.246,122840.40000001,2023-11-24T13:26:29Z,122855.912,NULL,Konkurrent,mshindani,d,NA,NA,NA,NA,sdf,NA,0,NA,NA,NA,NA,NA,NA,NA,NA,NA,NA,NA,NA,NA,NA,NA,NA,NA,NA,NA
6a880,task,flow.Sequence,3_0_0_0_0,NA,NA,completion,25034.041,97802.200000003,97788.465,97805.205,122839.246,122840.5,2023-11-24T13:26:29Z,122855.912,NULL,Konkurrent,mshindani,d,NA,NA,NA,NA,sdf,NA,0,NA,NA,NA,NA,NA,NA,NA,NA,NA,NA,NA,NA,NA,NA,NA,NA,NA,NA,NA
6a880,Deep Question,html.Page,3_0_0_0_1_0_0,NA,NA,form submission,2855.3880000119,122840.60000001,122839.246,122855.912,125711.30000001,125711.60000001,2023-11-24T13:26:32Z,125722.563,NULL,Lawine,banguko,d,NA,NA,NA,sf,NA,NA,0,NA,NA,NA,NA,NA,NA,NA,NA,NA,NA,NA,NA,NA,NA,NA,NA,NA,NA,NA
6a880,"""Richtig""-Screen",canvas.Screen,3_0_0_0_1_0_1,NA,NA,skipped,NA,125713,NA,NA,125711.30000001,125713,2023-11-24T13:26:32Z,125722.563,NULL,Lawine,banguko,d,NA,NA,NA,NA,sdf,NA,0,NA,NA,NA,NA,NA,NA,NA,NA,NA,NA,NA,NA,NA,NA,NA,NA,NA,NA,NA
6a880,"""Falsch""-Screen",canvas.Screen,3_0_0_0_1_0_2,NA,NA,timeout,5000.144,125713.40000001,125705.998,125722.563,130706.141,130706.7,2023-11-24T13:26:37Z,130722.707,NULL,Lawine,banguko,d,NA,NA,NA,NA,sdf,0,0,NA,NA,NA,NA,NA,NA,NA,NA,NA,NA,NA,NA,NA,NA,NA,NA,NA,NA,NA
6a880,deep,flow.Sequence,3_0_0_0_1_0,NA,NA,completion,7850.229,122840.60000001,122839.246,122855.912,130706.141,130706.90000001,2023-11-24T13:26:37Z,130722.707,NULL,Lawine,banguko,d,NA,NA,NA,NA,sdf,NA,0,NA,NA,NA,NA,NA,NA,NA,NA,NA,NA,NA,NA,NA,NA,NA,NA,NA,NA,NA
6a880,shallow,flow.Sequence,3_0_0_0_1_1,NA,NA,skipped,NA,130706.90000001,NA,NA,130706.141,130706.90000001,2023-11-24T13:26:37Z,130722.707,NULL,Lawine,banguko,d,NA,NA,NA,NA,sdf,NA,0,NA,NA,NA,NA,NA,NA,NA,NA,NA,NA,NA,NA,NA,NA,NA,NA,NA,NA,NA
6a880,task,flow.Sequence,3_0_0_0_1,NA,NA,completion,7850.229,122840.60000001,122839.246,122855.912,130706.141,130707.10000001,2023-11-24T13:26:37Z,130722.707,NULL,Lawine,banguko,d,NA,NA,NA,NA,sdf,NA,0,NA,NA,NA,NA,NA,NA,NA,NA,NA,NA,NA,NA,NA,NA,NA,NA,NA,NA,NA
6a880,deep,flow.Sequence,3_0_0_0_2_0,NA,NA,skipped,NA,130707.10000001,NA,NA,130706.141,130707.10000001,2023-11-24T13:26:37Z,130722.707,NULL,Zuwachs,nyongeza,s,matilaba,udhibiti,hudhurio,NA,sdf,NA,0,NA,NA,NA,NA,NA,NA,NA,NA,NA,NA,NA,NA,NA,NA,NA,NA,NA,NA,NA
6a880,Shallow Question,html.Page,3_0_0_0_2_1_0,NA,NA,form submission,3392.693000006,130707.10000001,130706.141,130722.707,134115.40000001,134115.7,2023-11-24T13:26:40Z,134122.77,NULL,Zuwachs,nyongeza,s,matilaba,udhibiti,hudhurio,matilaba,NA,NA,0,NA,NA,NA,NA,NA,NA,NA,NA,NA,NA,NA,NA,NA,NA,NA,NA,NA,NA,NA
6a880,"""Richtig""-Screen",canvas.Screen,3_0_0_0_2_1_1,NA,NA,skipped,NA,134117,NA,NA,134115.40000001,134117.10000001,2023-11-24T13:26:40Z,134122.77,NULL,Zuwachs,nyongeza,s,matilaba,udhibiti,hudhurio,NA,sdf,NA,0,NA,NA,NA,NA,NA,NA,NA,NA,NA,NA,NA,NA,NA,NA,NA,NA,NA,NA,NA
6a880,"""Falsch""-Screen",canvas.Screen,3_0_0_0_2_1_2,NA,NA,timeout,5000.149,134117.5,134106.151,134122.77,139106.353,139106.90000001,2023-11-24T13:26:45Z,139122.919,NULL,Zuwachs,nyongeza,s,matilaba,udhibiti,hudhurio,NA,sdf,0,0,NA,NA,NA,NA,NA,NA,NA,NA,NA,NA,NA,NA,NA,NA,NA,NA,NA,NA,NA
6a880,shallow,flow.Sequence,3_0_0_0_2_1,NA,NA,completion,8383.646,130707.10000001,130706.141,130722.707,139106.353,139107,2023-11-24T13:26:45Z,139122.919,NULL,Zuwachs,nyongeza,s,matilaba,udhibiti,hudhurio,NA,sdf,NA,0,NA,NA,NA,NA,NA,NA,NA,NA,NA,NA,NA,NA,NA,NA,NA,NA,NA,NA,NA
6a880,task,flow.Sequence,3_0_0_0_2,NA,NA,completion,8383.646,130707.10000001,130706.141,130722.707,139106.353,139107.2,2023-11-24T13:26:45Z,139122.919,NULL,Zuwachs,nyongeza,s,matilaba,udhibiti,hudhurio,NA,sdf,NA,0,NA,NA,NA,NA,NA,NA,NA,NA,NA,NA,NA,NA,NA,NA,NA,NA,NA,NA,NA
6a880,deep,flow.Sequence,3_0_0_0_3_0,NA,NA,skipped,NA,139107.2,NA,NA,139106.353,139107.30000001,2023-11-24T13:26:45Z,139122.919,NULL,Symbol,kielezo,s,kinyume,nderemo,utayari,NA,sdf,NA,0,NA,NA,NA,NA,NA,NA,NA,NA,NA,NA,NA,NA,NA,NA,NA,NA,NA,NA,NA
6a880,Shallow Question,html.Page,3_0_0_0_3_1_0,NA,NA,form submission,2187.981000006,139107.30000001,139106.353,139122.919,141310.90000001,141311.2,2023-11-24T13:26:47Z,141323.1,NULL,Symbol,kielezo,s,kinyume,nderemo,utayari,nderemo,NA,NA,0,NA,NA,NA,NA,NA,NA,NA,NA,NA,NA,NA,NA,NA,NA,NA,NA,NA,NA,NA
6a880,"""Richtig""-Screen",canvas.Screen,3_0_0_0_3_1_1,NA,NA,skipped,NA,141312.7,NA,NA,141310.90000001,141312.80000001,2023-11-24T13:26:47Z,141323.1,NULL,Symbol,kielezo,s,kinyume,nderemo,utayari,NA,sdf,NA,0,NA,NA,NA,NA,NA,NA,NA,NA,NA,NA,NA,NA,NA,NA,NA,NA,NA,NA,NA
6a880,"""Falsch""-Screen",canvas.Screen,3_0_0_0_3_1_2,NA,NA,timeout,5000,141313.2,141306.344,141323.1,146306.48,146307.10000001,2023-11-24T13:26:52Z,146323.1,NULL,Symbol,kielezo,s,kinyume,nderemo,utayari,NA,sdf,0,0,NA,NA,NA,NA,NA,NA,NA,NA,NA,NA,NA,NA,NA,NA,NA,NA,NA,NA,NA
6a880,shallow,flow.Sequence,3_0_0_0_3_1,NA,NA,completion,7183.561,139107.30000001,139106.353,139122.919,146306.48,146307.30000001,2023-11-24T13:26:52Z,146323.1,NULL,Symbol,kielezo,s,kinyume,nderemo,utayari,NA,sdf,NA,0,NA,NA,NA,NA,NA,NA,NA,NA,NA,NA,NA,NA,NA,NA,NA,NA,NA,NA,NA
6a880,task,flow.Sequence,3_0_0_0_3,NA,NA,completion,7183.561,139107.2,139106.353,139122.919,146306.48,146307.40000001,2023-11-24T13:26:52Z,146323.1,NULL,Symbol,kielezo,s,kinyume,nderemo,utayari,NA,sdf,NA,0,NA,NA,NA,NA,NA,NA,NA,NA,NA,NA,NA,NA,NA,NA,NA,NA,NA,NA,NA
6a880,deep,flow.Sequence,3_0_0_0_4_0,NA,NA,skipped,NA,146307.40000001,NA,NA,146306.48,146307.60000001,2023-11-24T13:26:52Z,146323.1,NULL,Körper,kiwiliwili,s,mapambano,mpatanishi,kiolezo,NA,sdf,NA,0,NA,NA,NA,NA,NA,NA,NA,NA,NA,NA,NA,NA,NA,NA,NA,NA,NA,NA,NA
6a880,Shallow Question,html.Page,3_0_0_0_4_1_0,NA,NA,form submission,3247.4,146307.60000001,146306.48,146323.1,149570.5,149570.80000001,2023-11-24T13:26:56Z,149573.181,NULL,Körper,kiwiliwili,s,mapambano,mpatanishi,kiolezo,mapambano,NA,NA,0,NA,NA,NA,NA,NA,NA,NA,NA,NA,NA,NA,NA,NA,NA,NA,NA,NA,NA,NA
6a880,"""Richtig""-Screen",canvas.Screen,3_0_0_0_4_1_1,NA,NA,skipped,NA,149572.2,NA,NA,149570.5,149572.2,2023-11-24T13:26:56Z,149573.181,NULL,Körper,kiwiliwili,s,mapambano,mpatanishi,kiolezo,NA,sdf,NA,0,NA,NA,NA,NA,NA,NA,NA,NA,NA,NA,NA,NA,NA,NA,NA,NA,NA,NA,NA
6a880,"""Falsch""-Screen",canvas.Screen,3_0_0_0_4_1_2,NA,NA,timeout,5000.188,149572.60000001,149556.528,149573.181,154556.837,154557.40000001,2023-11-24T13:27:01Z,154573.369,NULL,Körper,kiwiliwili,s,mapambano,mpatanishi,kiolezo,NA,sdf,0,0,NA,NA,NA,NA,NA,NA,NA,NA,NA,NA,NA,NA,NA,NA,NA,NA,NA,NA,NA
6a880,shallow,flow.Sequence,3_0_0_0_4_1,NA,NA,completion,8233.737,146307.60000001,146306.48,146323.1,154556.837,154557.80000001,2023-11-24T13:27:01Z,154573.369,NULL,Körper,kiwiliwili,s,mapambano,mpatanishi,kiolezo,NA,sdf,NA,0,NA,NA,NA,NA,NA,NA,NA,NA,NA,NA,NA,NA,NA,NA,NA,NA,NA,NA,NA
6a880,task,flow.Sequence,3_0_0_0_4,NA,NA,completion,8233.737,146307.40000001,146306.48,146323.1,154556.837,154557.90000001,2023-11-24T13:27:01Z,154573.369,NULL,Körper,kiwiliwili,s,mapambano,mpatanishi,kiolezo,NA,sdf,NA,0,NA,NA,NA,NA,NA,NA,NA,NA,NA,NA,NA,NA,NA,NA,NA,NA,NA,NA,NA
6a880,deep,flow.Sequence,3_0_0_0_5_0,NA,NA,skipped,NA,154558.10000001,NA,NA,154556.837,154558.2,2023-11-24T13:27:01Z,154573.369,NULL,Übersicht,kilindo,s,mgusano,chipukizi,kulinganisha,NA,sdf,NA,0,NA,NA,NA,NA,NA,NA,NA,NA,NA,NA,NA,NA,NA,NA,NA,NA,NA,NA,NA
6a880,Shallow Question,html.Page,3_0_0_0_5_1_0,NA,NA,form submission,4005.9310000119,154558.40000001,154556.837,154573.369,158579.30000001,158579.60000001,2023-11-24T13:27:05Z,158590.159,NULL,Übersicht,kilindo,s,mgusano,chipukizi,kulinganisha,mgusano,NA,NA,0,NA,NA,NA,NA,NA,NA,NA,NA,NA,NA,NA,NA,NA,NA,NA,NA,NA,NA,NA
6a880,"""Richtig""-Screen",canvas.Screen,3_0_0_0_5_1_1,NA,NA,skipped,NA,158581.2,NA,NA,158579.30000001,158581.40000001,2023-11-24T13:27:05Z,158590.159,NULL,Übersicht,kilindo,s,mgusano,chipukizi,kulinganisha,NA,sdf,NA,0,NA,NA,NA,NA,NA,NA,NA,NA,NA,NA,NA,NA,NA,NA,NA,NA,NA,NA,NA
6a880,"""Falsch""-Screen",canvas.Screen,3_0_0_0_5_1_2,NA,NA,timeout,5000.188,158581.80000001,158573.552,158590.159,163573.674,163574,2023-11-24T13:27:10Z,163590.347,NULL,Übersicht,kilindo,s,mgusano,chipukizi,kulinganisha,NA,sdf,0,0,NA,NA,NA,NA,NA,NA,NA,NA,NA,NA,NA,NA,NA,NA,NA,NA,NA,NA,NA
6a880,shallow,flow.Sequence,3_0_0_0_5_1,NA,NA,completion,9000.305,154558.30000001,154556.837,154573.369,163573.674,163574.10000001,2023-11-24T13:27:10Z,163590.347,NULL,Übersicht,kilindo,s,mgusano,chipukizi,kulinganisha,NA,sdf,NA,0,NA,NA,NA,NA,NA,NA,NA,NA,NA,NA,NA,NA,NA,NA,NA,NA,NA,NA,NA
6a880,task,flow.Sequence,3_0_0_0_5,NA,NA,completion,9000.305,154558.10000001,154556.837,154573.369,163573.674,163574.30000001,2023-11-24T13:27:10Z,163590.347,NULL,Übersicht,kilindo,s,mgusano,chipukizi,kulinganisha,NA,sdf,NA,0,NA,NA,NA,NA,NA,NA,NA,NA,NA,NA,NA,NA,NA,NA,NA,NA,NA,NA,NA
6a880,Deep Question,html.Page,3_0_0_0_6_0_0,NA,NA,form submission,2390.7530000089,163574.30000001,163573.674,163590.347,165981.10000001,165981.30000001,2023-11-24T13:27:12Z,165990.324,NULL,System,maongozi,d,NA,NA,NA,sf,NA,NA,0,NA,NA,NA,NA,NA,NA,NA,NA,NA,NA,NA,NA,NA,NA,NA,NA,NA,NA,NA
6a880,"""Richtig""-Screen",canvas.Screen,3_0_0_0_6_0_1,NA,NA,skipped,NA,165983,NA,NA,165981.10000001,165983.10000001,2023-11-24T13:27:12Z,165990.324,NULL,System,maongozi,d,NA,NA,NA,NA,sdf,NA,0,NA,NA,NA,NA,NA,NA,NA,NA,NA,NA,NA,NA,NA,NA,NA,NA,NA,NA,NA
6a880,"""Falsch""-Screen",canvas.Screen,3_0_0_0_6_0_2,NA,NA,timeout,5000.213,165983.7,165973.776,165990.324,170973.82,170974.60000001,2023-11-24T13:27:17Z,170990.537,NULL,System,maongozi,d,NA,NA,NA,NA,sdf,0,0,NA,NA,NA,NA,NA,NA,NA,NA,NA,NA,NA,NA,NA,NA,NA,NA,NA,NA,NA
6a880,deep,flow.Sequence,3_0_0_0_6_0,NA,NA,completion,7383.473,163574.30000001,163573.674,163590.347,170973.82,170974.90000001,2023-11-24T13:27:17Z,170990.537,NULL,System,maongozi,d,NA,NA,NA,NA,sdf,NA,0,NA,NA,NA,NA,NA,NA,NA,NA,NA,NA,NA,NA,NA,NA,NA,NA,NA,NA,NA
6a880,shallow,flow.Sequence,3_0_0_0_6_1,NA,NA,skipped,NA,170975,NA,NA,170973.82,170975.10000001,2023-11-24T13:27:17Z,170990.537,NULL,System,maongozi,d,NA,NA,NA,NA,sdf,NA,0,NA,NA,NA,NA,NA,NA,NA,NA,NA,NA,NA,NA,NA,NA,NA,NA,NA,NA,NA
6a880,task,flow.Sequence,3_0_0_0_6,NA,NA,completion,7383.473,163574.30000001,163573.674,163590.347,170973.82,170975.40000001,2023-11-24T13:27:17Z,170990.537,NULL,System,maongozi,d,NA,NA,NA,NA,sdf,NA,0,NA,NA,NA,NA,NA,NA,NA,NA,NA,NA,NA,NA,NA,NA,NA,NA,NA,NA,NA
6a880,Deep Question,html.Page,3_0_0_0_7_0_0,NA,NA,form submission,4982.3630000059,170975.90000001,170973.82,170990.537,175972.90000001,175973.2,2023-11-24T13:27:22Z,175974.017,NULL,Vorsorge,tahadhari,d,NA,NA,NA,sf,NA,NA,0,NA,NA,NA,NA,NA,NA,NA,NA,NA,NA,NA,NA,NA,NA,NA,NA,NA,NA,NA
6a880,"""Richtig""-Screen",canvas.Screen,3_0_0_0_7_0_1,NA,NA,skipped,NA,175975.5,NA,NA,175972.90000001,175975.80000001,2023-11-24T13:27:22Z,175974.017,NULL,Vorsorge,tahadhari,d,NA,NA,NA,NA,sdf,NA,0,NA,NA,NA,NA,NA,NA,NA,NA,NA,NA,NA,NA,NA,NA,NA,NA,NA,NA,NA
6a880,"""Falsch""-Screen",canvas.Screen,3_0_0_0_7_0_2,NA,NA,timeout,5000.056,175976.5,175957.276,175974.017,180957.405,180958,2023-11-24T13:27:27Z,180974.073,NULL,Vorsorge,tahadhari,d,NA,NA,NA,NA,sdf,0,0,NA,NA,NA,NA,NA,NA,NA,NA,NA,NA,NA,NA,NA,NA,NA,NA,NA,NA,NA
6a880,deep,flow.Sequence,3_0_0_0_7_0,NA,NA,completion,9966.868,170975.90000001,170973.82,170990.537,180957.405,180958.2,2023-11-24T13:27:27Z,180974.073,NULL,Vorsorge,tahadhari,d,NA,NA,NA,NA,sdf,NA,0,NA,NA,NA,NA,NA,NA,NA,NA,NA,NA,NA,NA,NA,NA,NA,NA,NA,NA,NA
6a880,shallow,flow.Sequence,3_0_0_0_7_1,NA,NA,skipped,NA,180958.2,NA,NA,180957.405,180958.2,2023-11-24T13:27:27Z,180974.073,NULL,Vorsorge,tahadhari,d,NA,NA,NA,NA,sdf,NA,0,NA,NA,NA,NA,NA,NA,NA,NA,NA,NA,NA,NA,NA,NA,NA,NA,NA,NA,NA
6a880,task,flow.Sequence,3_0_0_0_7,NA,NA,completion,9966.868,170975.80000001,170973.82,170990.537,180957.405,180958.40000001,2023-11-24T13:27:27Z,180974.073,NULL,Vorsorge,tahadhari,d,NA,NA,NA,NA,sdf,NA,0,NA,NA,NA,NA,NA,NA,NA,NA,NA,NA,NA,NA,NA,NA,NA,NA,NA,NA,NA
6a880,block,flow.Loop,3_0_0_0,NA,NA,completion,83152.2,97802.200000003,97788.465,97805.205,180957.405,180958.60000001,2023-11-24T13:27:27Z,180974.073,NULL,NA,NA,NA,NA,NA,NA,NA,sdf,NA,0,NA,NA,NA,NA,NA,NA,NA,NA,NA,NA,NA,NA,NA,NA,NA,NA,NA,NA,NA
6a880,weiter,canvas.Screen,3_0_0_1,sdf,keypress(Space),response,13428.627000003,180958.60000001,180957.405,180974.073,194402.7,194404.80000001,2023-11-24T13:27:40Z,194442.149,NULL,NA,NA,NA,NA,NA,NA,NA,sdf,NA,0,NA,NA,NA,NA,NA,NA,NA,NA,NA,NA,NA,NA,NA,NA,NA,NA,NA,NA,NA
6a880,check continue,flow.Sequence,3_0_0,NA,NA,completion,96597.495000003,97802.200000003,97788.465,97805.205,194402.7,194404.90000001,2023-11-24T13:27:40Z,194442.149,NULL,NA,NA,NA,NA,NA,NA,NA,sdf,NA,0,NA,NA,NA,NA,NA,NA,NA,NA,NA,NA,NA,NA,NA,NA,NA,NA,NA,NA,NA
6a880,deep,flow.Sequence,3_0_1_0_0_0,NA,NA,skipped,NA,194422.60000001,NA,NA,194402.7,194423.2,2023-11-24T13:27:41Z,194442.149,NULL,Zuwachs,nyongeza,s,matilaba,udhibiti,hudhurio,NA,sdfdsf,NA,1,NA,NA,NA,NA,NA,NA,NA,NA,NA,NA,NA,NA,NA,NA,NA,NA,NA,NA,NA
6a880,Shallow Question,html.Page,3_0_1_0_0_1_0,NA,NA,form submission,7302.051000003,194423.30000001,194407.662,194442.149,201744.2,201744.30000001,2023-11-24T13:27:48Z,201757.969,NULL,Zuwachs,nyongeza,s,matilaba,udhibiti,hudhurio,nyongeza,NA,NA,1,NA,NA,NA,NA,NA,NA,NA,NA,NA,NA,NA,NA,NA,NA,NA,NA,NA,NA,NA
6a880,"""Richtig""-Screen",canvas.Screen,3_0_1_0_0_1_1,NA,NA,timeout,5000.163,201745.7,201741.309,201757.969,206741.409,206741.90000001,2023-11-24T13:27:53Z,206758.132,NULL,Zuwachs,nyongeza,s,matilaba,udhibiti,hudhurio,NA,sdfdsf,1,1,NA,NA,NA,NA,NA,NA,NA,NA,NA,NA,NA,NA,NA,NA,NA,NA,NA,NA,NA
6a880,"""Falsch""-Screen",canvas.Screen,3_0_1_0_0_1_2,NA,NA,skipped,NA,206744.5,NA,NA,206741.409,206744.7,2023-11-24T13:27:53Z,206758.132,NULL,Zuwachs,nyongeza,s,matilaba,udhibiti,hudhurio,NA,sdfdsf,NA,1,NA,NA,NA,NA,NA,NA,NA,NA,NA,NA,NA,NA,NA,NA,NA,NA,NA,NA,NA
6a880,shallow,flow.Sequence,3_0_1_0_0_1,NA,NA,completion,12299.26,194423.30000001,194407.662,194442.149,206741.409,206744.80000001,2023-11-24T13:27:53Z,206758.132,NULL,Zuwachs,nyongeza,s,matilaba,udhibiti,hudhurio,NA,sdfdsf,NA,1,NA,NA,NA,NA,NA,NA,NA,NA,NA,NA,NA,NA,NA,NA,NA,NA,NA,NA,NA
6a880,task,flow.Sequence,3_0_1_0_0,NA,NA,completion,12299.26,194422.60000001,194407.662,194442.149,206741.409,206744.80000001,2023-11-24T13:27:53Z,206758.132,NULL,Zuwachs,nyongeza,s,matilaba,udhibiti,hudhurio,NA,sdfdsf,NA,1,NA,NA,NA,NA,NA,NA,NA,NA,NA,NA,NA,NA,NA,NA,NA,NA,NA,NA,NA
6a880,deep,flow.Sequence,3_0_1_0_1_0,NA,NA,skipped,NA,206744.90000001,NA,NA,206741.409,206744.90000001,2023-11-24T13:27:53Z,206758.132,NULL,Übersicht,kilindo,s,mgusano,chipukizi,kulinganisha,NA,sdfdsf,NA,1,NA,NA,NA,NA,NA,NA,NA,NA,NA,NA,NA,NA,NA,NA,NA,NA,NA,NA,NA
6a880,Shallow Question,html.Page,3_0_1_0_1_1_0,NA,NA,form submission,9634.6680000119,206745,206741.409,206758.132,216392.80000001,216393.30000001,2023-11-24T13:28:02Z,216408.35,NULL,Übersicht,kilindo,s,mgusano,chipukizi,kulinganisha,mgusano,NA,NA,1,NA,NA,NA,NA,NA,NA,NA,NA,NA,NA,NA,NA,NA,NA,NA,NA,NA,NA,NA
6a880,"""Richtig""-Screen",canvas.Screen,3_0_1_0_1_1_1,NA,NA,skipped,NA,216395.30000001,NA,NA,216392.80000001,216395.40000001,2023-11-24T13:28:02Z,216408.35,NULL,Übersicht,kilindo,s,mgusano,chipukizi,kulinganisha,NA,sdfdsf,NA,1,NA,NA,NA,NA,NA,NA,NA,NA,NA,NA,NA,NA,NA,NA,NA,NA,NA,NA,NA
6a880,"""Falsch""-Screen",canvas.Screen,3_0_1_0_1_1_2,NA,NA,timeout,5000.158,216396,216391.595,216408.35,221391.789,221392.5,2023-11-24T13:28:07Z,221408.508,NULL,Übersicht,kilindo,s,mgusano,chipukizi,kulinganisha,NA,sdfdsf,0,1,NA,NA,NA,NA,NA,NA,NA,NA,NA,NA,NA,NA,NA,NA,NA,NA,NA,NA,NA
6a880,shallow,flow.Sequence,3_0_1_0_1_1,NA,NA,completion,14633.657,206745,206741.409,206758.132,221391.789,221392.80000001,2023-11-24T13:28:07Z,221408.508,NULL,Übersicht,kilindo,s,mgusano,chipukizi,kulinganisha,NA,sdfdsf,NA,1,NA,NA,NA,NA,NA,NA,NA,NA,NA,NA,NA,NA,NA,NA,NA,NA,NA,NA,NA
6a880,task,flow.Sequence,3_0_1_0_1,NA,NA,completion,14633.657,206744.90000001,206741.409,206758.132,221391.789,221392.80000001,2023-11-24T13:28:07Z,221408.508,NULL,Übersicht,kilindo,s,mgusano,chipukizi,kulinganisha,NA,sdfdsf,NA,1,NA,NA,NA,NA,NA,NA,NA,NA,NA,NA,NA,NA,NA,NA,NA,NA,NA,NA,NA
6a880,Deep Question,html.Page,3_0_1_0_2_0_0,NA,NA,form submission,11058.692000003,221393,221391.789,221408.508,232467.2,232467.40000001,2023-11-24T13:28:19Z,232475.397,NULL,System,maongozi,d,NA,NA,NA,d,NA,NA,1,NA,NA,NA,NA,NA,NA,NA,NA,NA,NA,NA,NA,NA,NA,NA,NA,NA,NA,NA
6a880,"""Richtig""-Screen",canvas.Screen,3_0_1_0_2_0_1,NA,NA,skipped,NA,232469,NA,NA,232467.2,232469.10000001,2023-11-24T13:28:19Z,232475.397,NULL,System,maongozi,d,NA,NA,NA,NA,sdfdsf,NA,1,NA,NA,NA,NA,NA,NA,NA,NA,NA,NA,NA,NA,NA,NA,NA,NA,NA,NA,NA
6a880,"""Falsch""-Screen",canvas.Screen,3_0_1_0_2_0_2,NA,NA,timeout,5000.107,232469.60000001,232458.743,232475.397,237458.967,237459.30000001,2023-11-24T13:28:24Z,237475.504,NULL,System,maongozi,d,NA,NA,NA,NA,sdfdsf,0,1,NA,NA,NA,NA,NA,NA,NA,NA,NA,NA,NA,NA,NA,NA,NA,NA,NA,NA,NA
6a880,deep,flow.Sequence,3_0_1_0_2_0,NA,NA,completion,16050.459,221392.90000001,221391.789,221408.508,237458.967,237459.5,2023-11-24T13:28:24Z,237475.504,NULL,System,maongozi,d,NA,NA,NA,NA,sdfdsf,NA,1,NA,NA,NA,NA,NA,NA,NA,NA,NA,NA,NA,NA,NA,NA,NA,NA,NA,NA,NA
6a880,shallow,flow.Sequence,3_0_1_0_2_1,NA,NA,skipped,NA,237459.7,NA,NA,237458.967,237459.7,2023-11-24T13:28:24Z,237475.504,NULL,System,maongozi,d,NA,NA,NA,NA,sdfdsf,NA,1,NA,NA,NA,NA,NA,NA,NA,NA,NA,NA,NA,NA,NA,NA,NA,NA,NA,NA,NA
6a880,task,flow.Sequence,3_0_1_0_2,NA,NA,completion,16050.459,221392.90000001,221391.789,221408.508,237458.967,237459.80000001,2023-11-24T13:28:24Z,237475.504,NULL,System,maongozi,d,NA,NA,NA,NA,sdfdsf,NA,1,NA,NA,NA,NA,NA,NA,NA,NA,NA,NA,NA,NA,NA,NA,NA,NA,NA,NA,NA
6a880,Deep Question,html.Page,3_0_1_0_3_0_0,NA,NA,form submission,3179.7960000119,237459.90000001,237458.967,237475.504,240655.30000001,240655.5,2023-11-24T13:28:27Z,240658.902,NULL,Lawine,banguko,d,NA,NA,NA,d,NA,NA,1,NA,NA,NA,NA,NA,NA,NA,NA,NA,NA,NA,NA,NA,NA,NA,NA,NA,NA,NA
6a880,"""Richtig""-Screen",canvas.Screen,3_0_1_0_3_0_1,NA,NA,skipped,NA,240657.10000001,NA,NA,240655.30000001,240657.2,2023-11-24T13:28:27Z,240658.902,NULL,Lawine,banguko,d,NA,NA,NA,NA,sdfdsf,NA,1,NA,NA,NA,NA,NA,NA,NA,NA,NA,NA,NA,NA,NA,NA,NA,NA,NA,NA,NA
6a880,"""Falsch""-Screen",canvas.Screen,3_0_1_0_3_0_2,NA,NA,timeout,5000.293,240657.60000001,240642.255,240658.902,245642.469,245643,2023-11-24T13:28:32Z,245659.195,NULL,Lawine,banguko,d,NA,NA,NA,NA,sdfdsf,0,1,NA,NA,NA,NA,NA,NA,NA,NA,NA,NA,NA,NA,NA,NA,NA,NA,NA,NA,NA
6a880,deep,flow.Sequence,3_0_1_0_3_0,NA,NA,completion,8166.965,237459.90000001,237458.967,237475.504,245642.469,245643.10000001,2023-11-24T13:28:32Z,245659.195,NULL,Lawine,banguko,d,NA,NA,NA,NA,sdfdsf,NA,1,NA,NA,NA,NA,NA,NA,NA,NA,NA,NA,NA,NA,NA,NA,NA,NA,NA,NA,NA
6a880,shallow,flow.Sequence,3_0_1_0_3_1,NA,NA,skipped,NA,245643.2,NA,NA,245642.469,245643.2,2023-11-24T13:28:32Z,245659.195,NULL,Lawine,banguko,d,NA,NA,NA,NA,sdfdsf,NA,1,NA,NA,NA,NA,NA,NA,NA,NA,NA,NA,NA,NA,NA,NA,NA,NA,NA,NA,NA
6a880,task,flow.Sequence,3_0_1_0_3,NA,NA,completion,8166.965,237459.90000001,237458.967,237475.504,245642.469,245643.30000001,2023-11-24T13:28:32Z,245659.195,NULL,Lawine,banguko,d,NA,NA,NA,NA,sdfdsf,NA,1,NA,NA,NA,NA,NA,NA,NA,NA,NA,NA,NA,NA,NA,NA,NA,NA,NA,NA,NA
6a880,Deep Question,html.Page,3_0_1_0_4_0_0,NA,NA,form submission,6878.305,245643.40000001,245642.469,245659.195,252537.5,252537.80000001,2023-11-24T13:28:39Z,252542.58,NULL,Vorsorge,tahadhari,d,NA,NA,NA,qw,NA,NA,1,NA,NA,NA,NA,NA,NA,NA,NA,NA,NA,NA,NA,NA,NA,NA,NA,NA,NA,NA
6a880,"""Richtig""-Screen",canvas.Screen,3_0_1_0_4_0_1,NA,NA,skipped,NA,252539.2,NA,NA,252537.5,252539.30000001,2023-11-24T13:28:39Z,252542.58,NULL,Vorsorge,tahadhari,d,NA,NA,NA,NA,sdfdsf,NA,1,NA,NA,NA,NA,NA,NA,NA,NA,NA,NA,NA,NA,NA,NA,NA,NA,NA,NA,NA
6a880,"""Falsch""-Screen",canvas.Screen,3_0_1_0_4_0_2,NA,NA,timeout,5000.208,252539.60000001,252525.974,252542.58,257526.133,257526.80000001,2023-11-24T13:28:44Z,257542.788,NULL,Vorsorge,tahadhari,d,NA,NA,NA,NA,sdfdsf,0,1,NA,NA,NA,NA,NA,NA,NA,NA,NA,NA,NA,NA,NA,NA,NA,NA,NA,NA,NA
6a880,deep,flow.Sequence,3_0_1_0_4_0,NA,NA,completion,11866.938,245643.40000001,245642.469,245659.195,257526.133,257527.2,2023-11-24T13:28:44Z,257542.788,NULL,Vorsorge,tahadhari,d,NA,NA,NA,NA,sdfdsf,NA,1,NA,NA,NA,NA,NA,NA,NA,NA,NA,NA,NA,NA,NA,NA,NA,NA,NA,NA,NA
6a880,shallow,flow.Sequence,3_0_1_0_4_1,NA,NA,skipped,NA,257527.5,NA,NA,257526.133,257527.60000001,2023-11-24T13:28:44Z,257542.788,NULL,Vorsorge,tahadhari,d,NA,NA,NA,NA,sdfdsf,NA,1,NA,NA,NA,NA,NA,NA,NA,NA,NA,NA,NA,NA,NA,NA,NA,NA,NA,NA,NA
6a880,task,flow.Sequence,3_0_1_0_4,NA,NA,completion,11866.938,245643.30000001,245642.469,245659.195,257526.133,257527.80000001,2023-11-24T13:28:44Z,257542.788,NULL,Vorsorge,tahadhari,d,NA,NA,NA,NA,sdfdsf,NA,1,NA,NA,NA,NA,NA,NA,NA,NA,NA,NA,NA,NA,NA,NA,NA,NA,NA,NA,NA
6a880,deep,flow.Sequence,3_0_1_0_5_0,NA,NA,skipped,NA,257528.30000001,NA,NA,257526.133,257528.5,2023-11-24T13:28:44Z,257542.788,NULL,Körper,kiwiliwili,s,mapambano,mpatanishi,kiolezo,NA,sdfdsf,NA,1,NA,NA,NA,NA,NA,NA,NA,NA,NA,NA,NA,NA,NA,NA,NA,NA,NA,NA,NA
6a880,Shallow Question,html.Page,3_0_1_0_5_1_0,NA,NA,form submission,5249.3120000089,257528.60000001,257526.133,257542.788,262792.10000001,262792.30000001,2023-11-24T13:28:49Z,262792.888,NULL,Körper,kiwiliwili,s,mapambano,mpatanishi,kiolezo,kiwiliwili,NA,NA,1,NA,NA,NA,NA,NA,NA,NA,NA,NA,NA,NA,NA,NA,NA,NA,NA,NA,NA,NA
6a880,"""Richtig""-Screen",canvas.Screen,3_0_1_0_5_1_1,NA,NA,timeout,5000.098,262794.5,262776.188,262792.888,267776.315,267776.7,2023-11-24T13:28:54Z,267792.986,NULL,Körper,kiwiliwili,s,mapambano,mpatanishi,kiolezo,NA,sdfdsf,1,1,NA,NA,NA,NA,NA,NA,NA,NA,NA,NA,NA,NA,NA,NA,NA,NA,NA,NA,NA
6a880,"""Falsch""-Screen",canvas.Screen,3_0_1_0_5_1_2,NA,NA,skipped,NA,267778.40000001,NA,NA,267776.315,267778.5,2023-11-24T13:28:54Z,267792.986,NULL,Körper,kiwiliwili,s,mapambano,mpatanishi,kiolezo,NA,sdfdsf,NA,1,NA,NA,NA,NA,NA,NA,NA,NA,NA,NA,NA,NA,NA,NA,NA,NA,NA,NA,NA
6a880,shallow,flow.Sequence,3_0_1_0_5_1,NA,NA,completion,10233.527,257528.60000001,257526.133,257542.788,267776.315,267778.60000001,2023-11-24T13:28:54Z,267792.986,NULL,Körper,kiwiliwili,s,mapambano,mpatanishi,kiolezo,NA,sdfdsf,NA,1,NA,NA,NA,NA,NA,NA,NA,NA,NA,NA,NA,NA,NA,NA,NA,NA,NA,NA,NA
6a880,task,flow.Sequence,3_0_1_0_5,NA,NA,completion,10233.527,257528,257526.133,257542.788,267776.315,267778.7,2023-11-24T13:28:54Z,267792.986,NULL,Körper,kiwiliwili,s,mapambano,mpatanishi,kiolezo,NA,sdfdsf,NA,1,NA,NA,NA,NA,NA,NA,NA,NA,NA,NA,NA,NA,NA,NA,NA,NA,NA,NA,NA
6a880,deep,flow.Sequence,3_0_1_0_6_0,NA,NA,skipped,NA,267778.7,NA,NA,267776.315,267778.80000001,2023-11-24T13:28:54Z,267792.986,NULL,Symbol,kielezo,s,kinyume,nderemo,utayari,NA,sdfdsf,NA,1,NA,NA,NA,NA,NA,NA,NA,NA,NA,NA,NA,NA,NA,NA,NA,NA,NA,NA,NA
6a880,Shallow Question,html.Page,3_0_1_0_6_1_0,NA,NA,form submission,5209.614000009,267778.80000001,267776.315,267792.986,273002.60000001,273002.90000001,2023-11-24T13:28:59Z,273009.719,NULL,Symbol,kielezo,s,kinyume,nderemo,utayari,utayari,NA,NA,1,NA,NA,NA,NA,NA,NA,NA,NA,NA,NA,NA,NA,NA,NA,NA,NA,NA,NA,NA
6a880,"""Richtig""-Screen",canvas.Screen,3_0_1_0_6_1_1,NA,NA,skipped,NA,273004.5,NA,NA,273002.60000001,273004.7,2023-11-24T13:28:59Z,273009.719,NULL,Symbol,kielezo,s,kinyume,nderemo,utayari,NA,sdfdsf,NA,1,NA,NA,NA,NA,NA,NA,NA,NA,NA,NA,NA,NA,NA,NA,NA,NA,NA,NA,NA
6a880,"""Falsch""-Screen",canvas.Screen,3_0_1_0_6_1_2,NA,NA,timeout,5000.18,273005.10000001,272993.172,273009.719,277993.237,277994,2023-11-24T13:29:04Z,278009.899,NULL,Symbol,kielezo,s,kinyume,nderemo,utayari,NA,sdfdsf,0,1,NA,NA,NA,NA,NA,NA,NA,NA,NA,NA,NA,NA,NA,NA,NA,NA,NA,NA,NA
6a880,shallow,flow.Sequence,3_0_1_0_6_1,NA,NA,completion,10200.251,267778.80000001,267776.315,267792.986,277993.237,277994.30000001,2023-11-24T13:29:04Z,278009.899,NULL,Symbol,kielezo,s,kinyume,nderemo,utayari,NA,sdfdsf,NA,1,NA,NA,NA,NA,NA,NA,NA,NA,NA,NA,NA,NA,NA,NA,NA,NA,NA,NA,NA
6a880,task,flow.Sequence,3_0_1_0_6,NA,NA,completion,10200.251,267778.7,267776.315,267792.986,277993.237,277994.5,2023-11-24T13:29:04Z,278009.899,NULL,Symbol,kielezo,s,kinyume,nderemo,utayari,NA,sdfdsf,NA,1,NA,NA,NA,NA,NA,NA,NA,NA,NA,NA,NA,NA,NA,NA,NA,NA,NA,NA,NA
6a880,Deep Question,html.Page,3_0_1_0_7_0_0,NA,NA,form submission,4175.701000009,277994.60000001,277993.237,278009.899,282185.60000001,282186,2023-11-24T13:29:08Z,282193.28,NULL,Konkurrent,mshindani,d,NA,NA,NA,e,NA,NA,1,NA,NA,NA,NA,NA,NA,NA,NA,NA,NA,NA,NA,NA,NA,NA,NA,NA,NA,NA
6a880,"""Richtig""-Screen",canvas.Screen,3_0_1_0_7_0_1,NA,NA,skipped,NA,282187.60000001,NA,NA,282185.60000001,282187.7,2023-11-24T13:29:08Z,282193.28,NULL,Konkurrent,mshindani,d,NA,NA,NA,NA,sdfdsf,NA,1,NA,NA,NA,NA,NA,NA,NA,NA,NA,NA,NA,NA,NA,NA,NA,NA,NA,NA,NA
6a880,"""Falsch""-Screen",canvas.Screen,3_0_1_0_7_0_2,NA,NA,timeout,5000.324,282188.10000001,282176.806,282193.28,287176.822,287177.40000001,2023-11-24T13:29:13Z,287193.604,NULL,Konkurrent,mshindani,d,NA,NA,NA,NA,sdfdsf,0,1,NA,NA,NA,NA,NA,NA,NA,NA,NA,NA,NA,NA,NA,NA,NA,NA,NA,NA,NA
6a880,deep,flow.Sequence,3_0_1_0_7_0,NA,NA,completion,9166.923,277994.60000001,277993.237,278009.899,287176.822,287177.60000001,2023-11-24T13:29:13Z,287193.604,NULL,Konkurrent,mshindani,d,NA,NA,NA,NA,sdfdsf,NA,1,NA,NA,NA,NA,NA,NA,NA,NA,NA,NA,NA,NA,NA,NA,NA,NA,NA,NA,NA
6a880,shallow,flow.Sequence,3_0_1_0_7_1,NA,NA,skipped,NA,287177.60000001,NA,NA,287176.822,287177.80000001,2023-11-24T13:29:13Z,287193.604,NULL,Konkurrent,mshindani,d,NA,NA,NA,NA,sdfdsf,NA,1,NA,NA,NA,NA,NA,NA,NA,NA,NA,NA,NA,NA,NA,NA,NA,NA,NA,NA,NA
6a880,task,flow.Sequence,3_0_1_0_7,NA,NA,completion,9166.923,277994.5,277993.237,278009.899,287176.822,287177.80000001,2023-11-24T13:29:13Z,287193.604,NULL,Konkurrent,mshindani,d,NA,NA,NA,NA,sdfdsf,NA,1,NA,NA,NA,NA,NA,NA,NA,NA,NA,NA,NA,NA,NA,NA,NA,NA,NA,NA,NA
6a880,block,flow.Loop,3_0_1_0,NA,NA,completion,92734.673,194422.60000001,194407.662,194442.149,287176.822,287177.90000001,2023-11-24T13:29:13Z,287193.604,NULL,NA,NA,NA,NA,NA,NA,NA,sdfdsf,NA,1,NA,NA,NA,NA,NA,NA,NA,NA,NA,NA,NA,NA,NA,NA,NA,NA,NA,NA,NA
6a880,weiter,canvas.Screen,3_0_1_1,sdf,keypress(Space),response,1075.796000006,287178,287176.822,287193.604,288269.40000001,288271,2023-11-24T13:29:14Z,288293.475,NULL,NA,NA,NA,NA,NA,NA,NA,sdfdsf,NA,1,NA,NA,NA,NA,NA,NA,NA,NA,NA,NA,NA,NA,NA,NA,NA,NA,NA,NA,NA
6a880,check continue,flow.Sequence,3_0_1,NA,NA,completion,93827.251000006,194422.60000001,194407.662,194442.149,288269.40000001,288271.10000001,2023-11-24T13:29:14Z,288293.475,NULL,NA,NA,NA,NA,NA,NA,NA,sdfdsf,NA,1,NA,NA,NA,NA,NA,NA,NA,NA,NA,NA,NA,NA,NA,NA,NA,NA,NA,NA,NA
6a880,Deep Question,html.Page,3_0_2_0_0_0_0,NA,NA,form submission,2376.925000006,288289.10000001,288276.91,288293.475,290670.40000001,290670.60000001,2023-11-24T13:29:17Z,290676.856,NULL,Vorsorge,tahadhari,d,NA,NA,NA,s,NA,NA,2,NA,NA,NA,NA,NA,NA,NA,NA,NA,NA,NA,NA,NA,NA,NA,NA,NA,NA,NA
6a880,"""Richtig""-Screen",canvas.Screen,3_0_2_0_0_0_1,NA,NA,skipped,NA,290671.40000001,NA,NA,290670.40000001,290671.40000001,2023-11-24T13:29:17Z,290676.856,NULL,Vorsorge,tahadhari,d,NA,NA,NA,NA,sdf,NA,2,NA,NA,NA,NA,NA,NA,NA,NA,NA,NA,NA,NA,NA,NA,NA,NA,NA,NA,NA
6a880,"""Falsch""-Screen",canvas.Screen,3_0_2_0_0_0_2,NA,NA,timeout,5000.187,290671.90000001,290660.287,290676.856,295660.415,295661.10000001,2023-11-24T13:29:22Z,295677.043,NULL,Vorsorge,tahadhari,d,NA,NA,NA,NA,sdf,0,2,NA,NA,NA,NA,NA,NA,NA,NA,NA,NA,NA,NA,NA,NA,NA,NA,NA,NA,NA
6a880,deep,flow.Sequence,3_0_2_0_0_0,NA,NA,completion,7366.94,288289.10000001,288276.91,288293.475,295660.415,295661.40000001,2023-11-24T13:29:22Z,295677.043,NULL,Vorsorge,tahadhari,d,NA,NA,NA,NA,sdf,NA,2,NA,NA,NA,NA,NA,NA,NA,NA,NA,NA,NA,NA,NA,NA,NA,NA,NA,NA,NA
6a880,shallow,flow.Sequence,3_0_2_0_0_1,NA,NA,skipped,NA,295661.5,NA,NA,295660.415,295661.5,2023-11-24T13:29:22Z,295677.043,NULL,Vorsorge,tahadhari,d,NA,NA,NA,NA,sdf,NA,2,NA,NA,NA,NA,NA,NA,NA,NA,NA,NA,NA,NA,NA,NA,NA,NA,NA,NA,NA
6a880,task,flow.Sequence,3_0_2_0_0,NA,NA,completion,7366.94,288289.10000001,288276.91,288293.475,295660.415,295661.60000001,2023-11-24T13:29:22Z,295677.043,NULL,Vorsorge,tahadhari,d,NA,NA,NA,NA,sdf,NA,2,NA,NA,NA,NA,NA,NA,NA,NA,NA,NA,NA,NA,NA,NA,NA,NA,NA,NA,NA
6a880,Deep Question,html.Page,3_0_2_0_1_0_0,NA,NA,form submission,14346.357000006,295661.80000001,295660.415,295677.043,310023.40000001,310023.7,2023-11-24T13:29:36Z,310027.4,NULL,Konkurrent,mshindani,d,NA,NA,NA,tahadhari,NA,NA,2,NA,NA,NA,NA,NA,NA,NA,NA,NA,NA,NA,NA,NA,NA,NA,NA,NA,NA,NA
6a880,"""Richtig""-Screen",canvas.Screen,3_0_2_0_1_0_1,NA,NA,skipped,NA,310025.2,NA,NA,310023.40000001,310025.40000001,2023-11-24T13:29:36Z,310027.4,NULL,Konkurrent,mshindani,d,NA,NA,NA,NA,sdf,NA,2,NA,NA,NA,NA,NA,NA,NA,NA,NA,NA,NA,NA,NA,NA,NA,NA,NA,NA,NA
6a880,"""Falsch""-Screen",canvas.Screen,3_0_2_0_1_0_2,NA,NA,timeout,5000.227,310025.90000001,310010.767,310027.4,315011.005,315011.5,2023-11-24T13:29:41Z,315027.627,NULL,Konkurrent,mshindani,d,NA,NA,NA,NA,sdf,0,2,NA,NA,NA,NA,NA,NA,NA,NA,NA,NA,NA,NA,NA,NA,NA,NA,NA,NA,NA
6a880,deep,flow.Sequence,3_0_2_0_1_0,NA,NA,completion,19333.962,295661.7,295660.415,295677.043,315011.005,315011.7,2023-11-24T13:29:41Z,315027.627,NULL,Konkurrent,mshindani,d,NA,NA,NA,NA,sdf,NA,2,NA,NA,NA,NA,NA,NA,NA,NA,NA,NA,NA,NA,NA,NA,NA,NA,NA,NA,NA
6a880,shallow,flow.Sequence,3_0_2_0_1_1,NA,NA,skipped,NA,315011.7,NA,NA,315011.005,315011.80000001,2023-11-24T13:29:41Z,315027.627,NULL,Konkurrent,mshindani,d,NA,NA,NA,NA,sdf,NA,2,NA,NA,NA,NA,NA,NA,NA,NA,NA,NA,NA,NA,NA,NA,NA,NA,NA,NA,NA
6a880,task,flow.Sequence,3_0_2_0_1,NA,NA,completion,19333.962,295661.7,295660.415,295677.043,315011.005,315011.90000001,2023-11-24T13:29:41Z,315027.627,NULL,Konkurrent,mshindani,d,NA,NA,NA,NA,sdf,NA,2,NA,NA,NA,NA,NA,NA,NA,NA,NA,NA,NA,NA,NA,NA,NA,NA,NA,NA,NA
6a880,deep,flow.Sequence,3_0_2_0_2_0,NA,NA,skipped,NA,315012,NA,NA,315011.005,315012.10000001,2023-11-24T13:29:41Z,315027.627,NULL,Körper,kiwiliwili,s,mapambano,mpatanishi,kiolezo,NA,sdf,NA,2,NA,NA,NA,NA,NA,NA,NA,NA,NA,NA,NA,NA,NA,NA,NA,NA,NA,NA,NA
6a880,Shallow Question,html.Page,3_0_2_0_2_1_0,NA,NA,form submission,4344.073000003,315012.10000001,315011.005,315027.627,319371.7,319371.90000001,2023-11-24T13:29:45Z,319377.601,NULL,Körper,kiwiliwili,s,mapambano,mpatanishi,kiolezo,kiwiliwili,NA,NA,2,NA,NA,NA,NA,NA,NA,NA,NA,NA,NA,NA,NA,NA,NA,NA,NA,NA,NA,NA
6a880,"""Richtig""-Screen",canvas.Screen,3_0_2_0_2_1_1,NA,NA,timeout,5000.188,319373.40000001,319360.999,319377.601,324361.15,324361.7,2023-11-24T13:29:50Z,324377.789,NULL,Körper,kiwiliwili,s,mapambano,mpatanishi,kiolezo,NA,sdf,1,2,NA,NA,NA,NA,NA,NA,NA,NA,NA,NA,NA,NA,NA,NA,NA,NA,NA,NA,NA
6a880,"""Falsch""-Screen",canvas.Screen,3_0_2_0_2_1_2,NA,NA,skipped,NA,324363.90000001,NA,NA,324361.15,324364,2023-11-24T13:29:50Z,324377.789,NULL,Körper,kiwiliwili,s,mapambano,mpatanishi,kiolezo,NA,sdf,NA,2,NA,NA,NA,NA,NA,NA,NA,NA,NA,NA,NA,NA,NA,NA,NA,NA,NA,NA,NA
6a880,shallow,flow.Sequence,3_0_2_0_2_1,NA,NA,completion,9333.523,315012.10000001,315011.005,315027.627,324361.15,324364.10000001,2023-11-24T13:29:50Z,324377.789,NULL,Körper,kiwiliwili,s,mapambano,mpatanishi,kiolezo,NA,sdf,NA,2,NA,NA,NA,NA,NA,NA,NA,NA,NA,NA,NA,NA,NA,NA,NA,NA,NA,NA,NA
6a880,task,flow.Sequence,3_0_2_0_2,NA,NA,completion,9333.523,315012,315011.005,315027.627,324361.15,324364.2,2023-11-24T13:29:50Z,324377.789,NULL,Körper,kiwiliwili,s,mapambano,mpatanishi,kiolezo,NA,sdf,NA,2,NA,NA,NA,NA,NA,NA,NA,NA,NA,NA,NA,NA,NA,NA,NA,NA,NA,NA,NA
6a880,deep,flow.Sequence,3_0_2_0_3_0,NA,NA,skipped,NA,324364.2,NA,NA,324361.15,324364.2,2023-11-24T13:29:50Z,324377.789,NULL,Symbol,kielezo,s,kinyume,nderemo,utayari,NA,sdf,NA,2,NA,NA,NA,NA,NA,NA,NA,NA,NA,NA,NA,NA,NA,NA,NA,NA,NA,NA,NA
6a880,Shallow Question,html.Page,3_0_2_0_3_1_0,NA,NA,form submission,5079.411000003,324364.30000001,324361.15,324377.789,329457.2,329457.7,2023-11-24T13:29:56Z,329477.859,NULL,Symbol,kielezo,s,kinyume,nderemo,utayari,kielezo,NA,NA,2,NA,NA,NA,NA,NA,NA,NA,NA,NA,NA,NA,NA,NA,NA,NA,NA,NA,NA,NA
6a880,"""Richtig""-Screen",canvas.Screen,3_0_2_0_3_1_1,NA,NA,timeout,5000.125,329459.10000001,329461.234,329477.859,334461.359,334461.80000001,2023-11-24T13:30:01Z,334477.984,NULL,Symbol,kielezo,s,kinyume,nderemo,utayari,NA,sdf,1,2,NA,NA,NA,NA,NA,NA,NA,NA,NA,NA,NA,NA,NA,NA,NA,NA,NA,NA,NA
6a880,"""Falsch""-Screen",canvas.Screen,3_0_2_0_3_1_2,NA,NA,skipped,NA,334464,NA,NA,334461.359,334464.10000001,2023-11-24T13:30:01Z,334477.984,NULL,Symbol,kielezo,s,kinyume,nderemo,utayari,NA,sdf,NA,2,NA,NA,NA,NA,NA,NA,NA,NA,NA,NA,NA,NA,NA,NA,NA,NA,NA,NA,NA
6a880,shallow,flow.Sequence,3_0_2_0_3_1,NA,NA,completion,10083.57,324364.30000001,324361.15,324377.789,334461.359,334464.10000001,2023-11-24T13:30:01Z,334477.984,NULL,Symbol,kielezo,s,kinyume,nderemo,utayari,NA,sdf,NA,2,NA,NA,NA,NA,NA,NA,NA,NA,NA,NA,NA,NA,NA,NA,NA,NA,NA,NA,NA
6a880,task,flow.Sequence,3_0_2_0_3,NA,NA,completion,10083.57,324364.2,324361.15,324377.789,334461.359,334464.2,2023-11-24T13:30:01Z,334477.984,NULL,Symbol,kielezo,s,kinyume,nderemo,utayari,NA,sdf,NA,2,NA,NA,NA,NA,NA,NA,NA,NA,NA,NA,NA,NA,NA,NA,NA,NA,NA,NA,NA
6a880,deep,flow.Sequence,3_0_2_0_4_0,NA,NA,skipped,NA,334464.2,NA,NA,334461.359,334464.30000001,2023-11-24T13:30:01Z,334477.984,NULL,Zuwachs,nyongeza,s,matilaba,udhibiti,hudhurio,NA,sdf,NA,2,NA,NA,NA,NA,NA,NA,NA,NA,NA,NA,NA,NA,NA,NA,NA,NA,NA,NA,NA
6a880,Shallow Question,html.Page,3_0_2_0_4_1_0,NA,NA,form submission,6686.8160000119,334464.30000001,334461.359,334477.984,341164.80000001,341165.10000001,2023-11-24T13:30:07Z,341178.31,NULL,Zuwachs,nyongeza,s,matilaba,udhibiti,hudhurio,nyongeza,NA,NA,2,NA,NA,NA,NA,NA,NA,NA,NA,NA,NA,NA,NA,NA,NA,NA,NA,NA,NA,NA
6a880,"""Richtig""-Screen",canvas.Screen,3_0_2_0_4_1_1,NA,NA,timeout,5000.144,341166.60000001,341161.504,341178.31,346161.822,346162.60000001,2023-11-24T13:30:12Z,346178.454,NULL,Zuwachs,nyongeza,s,matilaba,udhibiti,hudhurio,NA,sdf,1,2,NA,NA,NA,NA,NA,NA,NA,NA,NA,NA,NA,NA,NA,NA,NA,NA,NA,NA,NA
6a880,"""Falsch""-Screen",canvas.Screen,3_0_2_0_4_1_2,NA,NA,skipped,NA,346165.60000001,NA,NA,346161.822,346165.80000001,2023-11-24T13:30:12Z,346178.454,NULL,Zuwachs,nyongeza,s,matilaba,udhibiti,hudhurio,NA,sdf,NA,2,NA,NA,NA,NA,NA,NA,NA,NA,NA,NA,NA,NA,NA,NA,NA,NA,NA,NA,NA
6a880,shallow,flow.Sequence,3_0_2_0_4_1,NA,NA,completion,11683.838,334464.30000001,334461.359,334477.984,346161.822,346165.90000001,2023-11-24T13:30:12Z,346178.454,NULL,Zuwachs,nyongeza,s,matilaba,udhibiti,hudhurio,NA,sdf,NA,2,NA,NA,NA,NA,NA,NA,NA,NA,NA,NA,NA,NA,NA,NA,NA,NA,NA,NA,NA
6a880,task,flow.Sequence,3_0_2_0_4,NA,NA,completion,11683.838,334464.2,334461.359,334477.984,346161.822,346166.10000001,2023-11-24T13:30:12Z,346178.454,NULL,Zuwachs,nyongeza,s,matilaba,udhibiti,hudhurio,NA,sdf,NA,2,NA,NA,NA,NA,NA,NA,NA,NA,NA,NA,NA,NA,NA,NA,NA,NA,NA,NA,NA
6a880,Deep Question,html.Page,3_0_2_0_5_0_0,NA,NA,form submission,10301.446000006,346166.30000001,346161.822,346178.454,356479.90000001,356480.7,2023-11-24T13:30:23Z,356495.242,NULL,System,maongozi,d,NA,NA,NA,tahadhari,NA,NA,2,NA,NA,NA,NA,NA,NA,NA,NA,NA,NA,NA,NA,NA,NA,NA,NA,NA,NA,NA
6a880,"""Richtig""-Screen",canvas.Screen,3_0_2_0_5_0_1,NA,NA,skipped,NA,356482.40000001,NA,NA,356479.90000001,356482.40000001,2023-11-24T13:30:23Z,356495.242,NULL,System,maongozi,d,NA,NA,NA,NA,sdf,NA,2,NA,NA,NA,NA,NA,NA,NA,NA,NA,NA,NA,NA,NA,NA,NA,NA,NA,NA,NA
6a880,"""Falsch""-Screen",canvas.Screen,3_0_2_0_5_0_2,NA,NA,timeout,5000.118,356483,356478.657,356495.242,361478.787,361479.60000001,2023-11-24T13:30:28Z,361495.36,NULL,System,maongozi,d,NA,NA,NA,NA,sdf,0,2,NA,NA,NA,NA,NA,NA,NA,NA,NA,NA,NA,NA,NA,NA,NA,NA,NA,NA,NA
6a880,deep,flow.Sequence,3_0_2_0_5_0,NA,NA,completion,15300.333,346166.30000001,346161.822,346178.454,361478.787,361480,2023-11-24T13:30:28Z,361495.36,NULL,System,maongozi,d,NA,NA,NA,NA,sdf,NA,2,NA,NA,NA,NA,NA,NA,NA,NA,NA,NA,NA,NA,NA,NA,NA,NA,NA,NA,NA
6a880,shallow,flow.Sequence,3_0_2_0_5_1,NA,NA,skipped,NA,361480,NA,NA,361478.787,361480.10000001,2023-11-24T13:30:28Z,361495.36,NULL,System,maongozi,d,NA,NA,NA,NA,sdf,NA,2,NA,NA,NA,NA,NA,NA,NA,NA,NA,NA,NA,NA,NA,NA,NA,NA,NA,NA,NA
6a880,task,flow.Sequence,3_0_2_0_5,NA,NA,completion,15300.333,346166.30000001,346161.822,346178.454,361478.787,361480.30000001,2023-11-24T13:30:28Z,361495.36,NULL,System,maongozi,d,NA,NA,NA,NA,sdf,NA,2,NA,NA,NA,NA,NA,NA,NA,NA,NA,NA,NA,NA,NA,NA,NA,NA,NA,NA,NA
6a880,Deep Question,html.Page,3_0_2_0_6_0_0,NA,NA,form submission,3280.840000003,361480.5,361478.787,361495.36,364776.2,364776.40000001,2023-11-24T13:30:31Z,364778.867,NULL,Lawine,banguko,d,NA,NA,NA,d,NA,NA,2,NA,NA,NA,NA,NA,NA,NA,NA,NA,NA,NA,NA,NA,NA,NA,NA,NA,NA,NA
6a880,"""Richtig""-Screen",canvas.Screen,3_0_2_0_6_0_1,NA,NA,skipped,NA,364778.10000001,NA,NA,364776.2,364778.2,2023-11-24T13:30:31Z,364778.867,NULL,Lawine,banguko,d,NA,NA,NA,NA,sdf,NA,2,NA,NA,NA,NA,NA,NA,NA,NA,NA,NA,NA,NA,NA,NA,NA,NA,NA,NA,NA
6a880,"""Falsch""-Screen",canvas.Screen,3_0_2_0_6_0_2,NA,NA,timeout,5000.086,364778.7,364762.33,364778.867,369762.342,369763,2023-11-24T13:30:36Z,369778.953,NULL,Lawine,banguko,d,NA,NA,NA,NA,sdf,0,2,NA,NA,NA,NA,NA,NA,NA,NA,NA,NA,NA,NA,NA,NA,NA,NA,NA,NA,NA
6a880,deep,flow.Sequence,3_0_2_0_6_0,NA,NA,completion,8266.982,361480.5,361478.787,361495.36,369762.342,369763.2,2023-11-24T13:30:36Z,369778.953,NULL,Lawine,banguko,d,NA,NA,NA,NA,sdf,NA,2,NA,NA,NA,NA,NA,NA,NA,NA,NA,NA,NA,NA,NA,NA,NA,NA,NA,NA,NA
6a880,shallow,flow.Sequence,3_0_2_0_6_1,NA,NA,skipped,NA,369763.2,NA,NA,369762.342,369763.40000001,2023-11-24T13:30:36Z,369778.953,NULL,Lawine,banguko,d,NA,NA,NA,NA,sdf,NA,2,NA,NA,NA,NA,NA,NA,NA,NA,NA,NA,NA,NA,NA,NA,NA,NA,NA,NA,NA
6a880,task,flow.Sequence,3_0_2_0_6,NA,NA,completion,8266.982,361480.40000001,361478.787,361495.36,369762.342,369763.40000001,2023-11-24T13:30:36Z,369778.953,NULL,Lawine,banguko,d,NA,NA,NA,NA,sdf,NA,2,NA,NA,NA,NA,NA,NA,NA,NA,NA,NA,NA,NA,NA,NA,NA,NA,NA,NA,NA
6a880,deep,flow.Sequence,3_0_2_0_7_0,NA,NA,skipped,NA,369763.5,NA,NA,369762.342,369763.5,2023-11-24T13:30:36Z,369778.953,NULL,Übersicht,kilindo,s,mgusano,chipukizi,kulinganisha,NA,sdf,NA,2,NA,NA,NA,NA,NA,NA,NA,NA,NA,NA,NA,NA,NA,NA,NA,NA,NA,NA,NA
6a880,Shallow Question,html.Page,3_0_2_0_7_1_0,NA,NA,form submission,4073.947000006,369763.7,369762.342,369778.953,373852.90000001,373853.2,2023-11-24T13:30:40Z,373862.415,NULL,Übersicht,kilindo,s,mgusano,chipukizi,kulinganisha,kilindo,NA,NA,2,NA,NA,NA,NA,NA,NA,NA,NA,NA,NA,NA,NA,NA,NA,NA,NA,NA,NA,NA
6a880,"""Richtig""-Screen",canvas.Screen,3_0_2_0_7_1_1,NA,NA,timeout,5000.146,373854.5,373845.794,373862.415,378845.913,378846.40000001,2023-11-24T13:30:45Z,378862.561,NULL,Übersicht,kilindo,s,mgusano,chipukizi,kulinganisha,NA,sdf,1,2,NA,NA,NA,NA,NA,NA,NA,NA,NA,NA,NA,NA,NA,NA,NA,NA,NA,NA,NA
6a880,"""Falsch""-Screen",canvas.Screen,3_0_2_0_7_1_2,NA,NA,skipped,NA,378848.30000001,NA,NA,378845.913,378848.40000001,2023-11-24T13:30:45Z,378862.561,NULL,Übersicht,kilindo,s,mgusano,chipukizi,kulinganisha,NA,sdf,NA,2,NA,NA,NA,NA,NA,NA,NA,NA,NA,NA,NA,NA,NA,NA,NA,NA,NA,NA,NA
6a880,shallow,flow.Sequence,3_0_2_0_7_1,NA,NA,completion,9066.96,369763.60000001,369762.342,369778.953,378845.913,378848.5,2023-11-24T13:30:45Z,378862.561,NULL,Übersicht,kilindo,s,mgusano,chipukizi,kulinganisha,NA,sdf,NA,2,NA,NA,NA,NA,NA,NA,NA,NA,NA,NA,NA,NA,NA,NA,NA,NA,NA,NA,NA
6a880,task,flow.Sequence,3_0_2_0_7,NA,NA,completion,9066.96,369763.5,369762.342,369778.953,378845.913,378848.5,2023-11-24T13:30:45Z,378862.561,NULL,Übersicht,kilindo,s,mgusano,chipukizi,kulinganisha,NA,sdf,NA,2,NA,NA,NA,NA,NA,NA,NA,NA,NA,NA,NA,NA,NA,NA,NA,NA,NA,NA,NA
6a880,block,flow.Loop,3_0_2_0,NA,NA,completion,90552.438,288289.10000001,288276.91,288293.475,378845.913,378848.60000001,2023-11-24T13:30:45Z,378862.561,NULL,NA,NA,NA,NA,NA,NA,NA,sdf,NA,2,NA,NA,NA,NA,NA,NA,NA,NA,NA,NA,NA,NA,NA,NA,NA,NA,NA,NA,NA
6a880,weiter,canvas.Screen,3_0_2_1,sdf,keypress(Space),response,1147.139000003,378848.7,378845.913,378862.561,380009.7,380010.30000001,2023-11-24T13:30:46Z,380047.063,NULL,NA,NA,NA,NA,NA,NA,NA,sdf,NA,2,NA,NA,NA,NA,NA,NA,NA,NA,NA,NA,NA,NA,NA,NA,NA,NA,NA,NA,NA
6a880,check continue,flow.Sequence,3_0_2,NA,NA,completion,91716.225000003,288289.10000001,288276.91,288293.475,380009.7,380010.5,2023-11-24T13:30:46Z,380047.063,NULL,NA,NA,NA,NA,NA,NA,NA,sdf,NA,2,NA,NA,NA,NA,NA,NA,NA,NA,NA,NA,NA,NA,NA,NA,NA,NA,NA,NA,NA
6a880,deep,flow.Sequence,3_0_3_0_0_0,NA,NA,skipped,NA,380028.5,NA,NA,380009.7,380028.5,2023-11-24T13:30:46Z,380047.063,NULL,Übersicht,kilindo,s,mgusano,chipukizi,kulinganisha,NA,qt,NA,3,NA,NA,NA,NA,NA,NA,NA,NA,NA,NA,NA,NA,NA,NA,NA,NA,NA,NA,NA
6a880,Shallow Question,html.Page,3_0_3_0_0_1_0,NA,NA,form submission,2961.2370000119,380028.60000001,380012.58,380047.063,383008.30000001,383008.60000001,2023-11-24T13:30:49Z,383012.655,NULL,Übersicht,kilindo,s,mgusano,chipukizi,kulinganisha,kilindo,NA,NA,3,NA,NA,NA,NA,NA,NA,NA,NA,NA,NA,NA,NA,NA,NA,NA,NA,NA,NA,NA
6a880,"""Richtig""-Screen",canvas.Screen,3_0_3_0_0_1_1,NA,NA,timeout,5000.209,383009.7,382996.033,383012.655,387996.301,387997,2023-11-24T13:30:54Z,388012.864,NULL,Übersicht,kilindo,s,mgusano,chipukizi,kulinganisha,NA,qt,1,3,NA,NA,NA,NA,NA,NA,NA,NA,NA,NA,NA,NA,NA,NA,NA,NA,NA,NA,NA
6a880,"""Falsch""-Screen",canvas.Screen,3_0_3_0_0_1_2,NA,NA,skipped,NA,387999.30000001,NA,NA,387996.301,387999.40000001,2023-11-24T13:30:54Z,388012.864,NULL,Übersicht,kilindo,s,mgusano,chipukizi,kulinganisha,NA,qt,NA,3,NA,NA,NA,NA,NA,NA,NA,NA,NA,NA,NA,NA,NA,NA,NA,NA,NA,NA,NA
6a880,shallow,flow.Sequence,3_0_3_0_0_1,NA,NA,completion,7949.238,380028.60000001,380012.58,380047.063,387996.301,387999.5,2023-11-24T13:30:54Z,388012.864,NULL,Übersicht,kilindo,s,mgusano,chipukizi,kulinganisha,NA,qt,NA,3,NA,NA,NA,NA,NA,NA,NA,NA,NA,NA,NA,NA,NA,NA,NA,NA,NA,NA,NA
6a880,task,flow.Sequence,3_0_3_0_0,NA,NA,completion,7949.238,380028.40000001,380012.58,380047.063,387996.301,387999.5,2023-11-24T13:30:54Z,388012.864,NULL,Übersicht,kilindo,s,mgusano,chipukizi,kulinganisha,NA,qt,NA,3,NA,NA,NA,NA,NA,NA,NA,NA,NA,NA,NA,NA,NA,NA,NA,NA,NA,NA,NA
6a880,Deep Question,html.Page,3_0_3_0_1_0_0,NA,NA,form submission,3384.836000003,387999.60000001,387996.301,388012.864,391397.7,391398.2,2023-11-24T13:30:57Z,391412.812,NULL,Konkurrent,mshindani,d,NA,NA,NA,tahadhari,NA,NA,3,NA,NA,NA,NA,NA,NA,NA,NA,NA,NA,NA,NA,NA,NA,NA,NA,NA,NA,NA
6a880,"""Richtig""-Screen",canvas.Screen,3_0_3_0_1_0_1,NA,NA,skipped,NA,391399.60000001,NA,NA,391397.7,391399.7,2023-11-24T13:30:57Z,391412.812,NULL,Konkurrent,mshindani,d,NA,NA,NA,NA,qt,NA,3,NA,NA,NA,NA,NA,NA,NA,NA,NA,NA,NA,NA,NA,NA,NA,NA,NA,NA,NA
6a880,"""Falsch""-Screen",canvas.Screen,3_0_3_0_1_0_2,NA,NA,timeout,5000.215,391400.2,391396.301,391412.812,396396.483,396397.30000001,2023-11-24T13:31:02Z,396413.027,NULL,Konkurrent,mshindani,d,NA,NA,NA,NA,qt,0,3,NA,NA,NA,NA,NA,NA,NA,NA,NA,NA,NA,NA,NA,NA,NA,NA,NA,NA,NA
6a880,deep,flow.Sequence,3_0_3_0_1_0,NA,NA,completion,8383.619,387999.60000001,387996.301,388012.864,396396.483,396397.60000001,2023-11-24T13:31:02Z,396413.027,NULL,Konkurrent,mshindani,d,NA,NA,NA,NA,qt,NA,3,NA,NA,NA,NA,NA,NA,NA,NA,NA,NA,NA,NA,NA,NA,NA,NA,NA,NA,NA
6a880,shallow,flow.Sequence,3_0_3_0_1_1,NA,NA,skipped,NA,396397.60000001,NA,NA,396396.483,396397.7,2023-11-24T13:31:02Z,396413.027,NULL,Konkurrent,mshindani,d,NA,NA,NA,NA,qt,NA,3,NA,NA,NA,NA,NA,NA,NA,NA,NA,NA,NA,NA,NA,NA,NA,NA,NA,NA,NA
6a880,task,flow.Sequence,3_0_3_0_1,NA,NA,completion,8383.619,387999.5,387996.301,388012.864,396396.483,396397.80000001,2023-11-24T13:31:02Z,396413.027,NULL,Konkurrent,mshindani,d,NA,NA,NA,NA,qt,NA,3,NA,NA,NA,NA,NA,NA,NA,NA,NA,NA,NA,NA,NA,NA,NA,NA,NA,NA,NA
6a880,Deep Question,html.Page,3_0_3_0_2_0_0,NA,NA,form submission,2293.373000006,396398,396396.483,396413.027,398706.40000001,398706.60000001,2023-11-24T13:31:05Z,398712.969,NULL,Vorsorge,tahadhari,d,NA,NA,NA,tahadhari,NA,NA,3,NA,NA,NA,NA,NA,NA,NA,NA,NA,NA,NA,NA,NA,NA,NA,NA,NA,NA,NA
6a880,"""Richtig""-Screen",canvas.Screen,3_0_3_0_2_0_1,NA,NA,timeout,5000.23,398708,398696.425,398712.969,403696.533,403697.30000001,2023-11-24T13:31:10Z,403713.199,NULL,Vorsorge,tahadhari,d,NA,NA,NA,NA,qt,1,3,NA,NA,NA,NA,NA,NA,NA,NA,NA,NA,NA,NA,NA,NA,NA,NA,NA,NA,NA
6a880,"""Falsch""-Screen",canvas.Screen,3_0_3_0_2_0_2,NA,NA,skipped,NA,403700.40000001,NA,NA,403696.533,403700.60000001,2023-11-24T13:31:10Z,403713.199,NULL,Vorsorge,tahadhari,d,NA,NA,NA,NA,qt,NA,3,NA,NA,NA,NA,NA,NA,NA,NA,NA,NA,NA,NA,NA,NA,NA,NA,NA,NA,NA
6a880,deep,flow.Sequence,3_0_3_0_2_0,NA,NA,completion,7283.506,396397.90000001,396396.483,396413.027,403696.533,403700.7,2023-11-24T13:31:10Z,403713.199,NULL,Vorsorge,tahadhari,d,NA,NA,NA,NA,qt,NA,3,NA,NA,NA,NA,NA,NA,NA,NA,NA,NA,NA,NA,NA,NA,NA,NA,NA,NA,NA
6a880,shallow,flow.Sequence,3_0_3_0_2_1,NA,NA,skipped,NA,403700.80000001,NA,NA,403696.533,403700.80000001,2023-11-24T13:31:10Z,403713.199,NULL,Vorsorge,tahadhari,d,NA,NA,NA,NA,qt,NA,3,NA,NA,NA,NA,NA,NA,NA,NA,NA,NA,NA,NA,NA,NA,NA,NA,NA,NA,NA
6a880,task,flow.Sequence,3_0_3_0_2,NA,NA,completion,7283.506,396397.90000001,396396.483,396413.027,403696.533,403701,2023-11-24T13:31:10Z,403713.199,NULL,Vorsorge,tahadhari,d,NA,NA,NA,NA,qt,NA,3,NA,NA,NA,NA,NA,NA,NA,NA,NA,NA,NA,NA,NA,NA,NA,NA,NA,NA,NA
6a880,deep,flow.Sequence,3_0_3_0_3_0,NA,NA,skipped,NA,403701.10000001,NA,NA,403696.533,403701.10000001,2023-11-24T13:31:10Z,403713.199,NULL,Körper,kiwiliwili,s,mapambano,mpatanishi,kiolezo,NA,qt,NA,3,NA,NA,NA,NA,NA,NA,NA,NA,NA,NA,NA,NA,NA,NA,NA,NA,NA,NA,NA
6a880,Shallow Question,html.Page,3_0_3_0_3_1_0,NA,NA,form submission,5868.7010000059,403701.2,403696.533,403713.199,409581.90000001,409582.2,2023-11-24T13:31:16Z,409596.661,NULL,Körper,kiwiliwili,s,mapambano,mpatanishi,kiolezo,kiwiliwili,NA,NA,3,NA,NA,NA,NA,NA,NA,NA,NA,NA,NA,NA,NA,NA,NA,NA,NA,NA,NA,NA
6a880,"""Richtig""-Screen",canvas.Screen,3_0_3_0_3_1_1,NA,NA,timeout,5000.137,409583.7,409580.001,409596.661,414580.174,414580.7,2023-11-24T13:31:21Z,414596.798,NULL,Körper,kiwiliwili,s,mapambano,mpatanishi,kiolezo,NA,qt,1,3,NA,NA,NA,NA,NA,NA,NA,NA,NA,NA,NA,NA,NA,NA,NA,NA,NA,NA,NA
6a880,"""Falsch""-Screen",canvas.Screen,3_0_3_0_3_1_2,NA,NA,skipped,NA,414583.10000001,NA,NA,414580.174,414583.30000001,2023-11-24T13:31:21Z,414596.798,NULL,Körper,kiwiliwili,s,mapambano,mpatanishi,kiolezo,NA,qt,NA,3,NA,NA,NA,NA,NA,NA,NA,NA,NA,NA,NA,NA,NA,NA,NA,NA,NA,NA,NA
6a880,shallow,flow.Sequence,3_0_3_0_3_1,NA,NA,completion,10866.975,403701.10000001,403696.533,403713.199,414580.174,414583.40000001,2023-11-24T13:31:21Z,414596.798,NULL,Körper,kiwiliwili,s,mapambano,mpatanishi,kiolezo,NA,qt,NA,3,NA,NA,NA,NA,NA,NA,NA,NA,NA,NA,NA,NA,NA,NA,NA,NA,NA,NA,NA
6a880,task,flow.Sequence,3_0_3_0_3,NA,NA,completion,10866.975,403701,403696.533,403713.199,414580.174,414583.40000001,2023-11-24T13:31:21Z,414596.798,NULL,Körper,kiwiliwili,s,mapambano,mpatanishi,kiolezo,NA,qt,NA,3,NA,NA,NA,NA,NA,NA,NA,NA,NA,NA,NA,NA,NA,NA,NA,NA,NA,NA,NA
6a880,deep,flow.Sequence,3_0_3_0_4_0,NA,NA,skipped,NA,414583.5,NA,NA,414580.174,414583.5,2023-11-24T13:31:21Z,414596.798,NULL,Symbol,kielezo,s,kinyume,nderemo,utayari,NA,qt,NA,3,NA,NA,NA,NA,NA,NA,NA,NA,NA,NA,NA,NA,NA,NA,NA,NA,NA,NA,NA
6a880,Shallow Question,html.Page,3_0_3_0_4_1_0,NA,NA,form submission,6053.3020000089,414583.5,414580.174,414596.798,420650.10000001,420650.30000001,2023-11-24T13:31:27Z,420663.676,NULL,Symbol,kielezo,s,kinyume,nderemo,utayari,kielezo,NA,NA,3,NA,NA,NA,NA,NA,NA,NA,NA,NA,NA,NA,NA,NA,NA,NA,NA,NA,NA,NA
6a880,"""Richtig""-Screen",canvas.Screen,3_0_3_0_4_1_1,NA,NA,timeout,5000.053,420651.5,420646.964,420663.676,425647.162,425647.7,2023-11-24T13:31:32Z,425663.729,NULL,Symbol,kielezo,s,kinyume,nderemo,utayari,NA,qt,1,3,NA,NA,NA,NA,NA,NA,NA,NA,NA,NA,NA,NA,NA,NA,NA,NA,NA,NA,NA
6a880,"""Falsch""-Screen",canvas.Screen,3_0_3_0_4_1_2,NA,NA,skipped,NA,425649.60000001,NA,NA,425647.162,425649.80000001,2023-11-24T13:31:32Z,425663.729,NULL,Symbol,kielezo,s,kinyume,nderemo,utayari,NA,qt,NA,3,NA,NA,NA,NA,NA,NA,NA,NA,NA,NA,NA,NA,NA,NA,NA,NA,NA,NA,NA
6a880,shallow,flow.Sequence,3_0_3_0_4_1,NA,NA,completion,11050.364,414583.5,414580.174,414596.798,425647.162,425649.90000001,2023-11-24T13:31:32Z,425663.729,NULL,Symbol,kielezo,s,kinyume,nderemo,utayari,NA,qt,NA,3,NA,NA,NA,NA,NA,NA,NA,NA,NA,NA,NA,NA,NA,NA,NA,NA,NA,NA,NA
6a880,task,flow.Sequence,3_0_3_0_4,NA,NA,completion,11050.364,414583.5,414580.174,414596.798,425647.162,425649.90000001,2023-11-24T13:31:32Z,425663.729,NULL,Symbol,kielezo,s,kinyume,nderemo,utayari,NA,qt,NA,3,NA,NA,NA,NA,NA,NA,NA,NA,NA,NA,NA,NA,NA,NA,NA,NA,NA,NA,NA
6a880,Deep Question,html.Page,3_0_3_0_5_0_0,NA,NA,form submission,7055.671000006,425650,425647.162,425663.729,432719.40000001,432719.7,2023-11-24T13:31:39Z,432730.582,NULL,Lawine,banguko,d,NA,NA,NA,banguko,NA,NA,3,NA,NA,NA,NA,NA,NA,NA,NA,NA,NA,NA,NA,NA,NA,NA,NA,NA,NA,NA
6a880,"""Richtig""-Screen",canvas.Screen,3_0_3_0_5_0_1,NA,NA,timeout,5000.168,432721.10000001,432713.924,432730.582,437714.127,437714.80000001,2023-11-24T13:31:44Z,437730.75,NULL,Lawine,banguko,d,NA,NA,NA,NA,qt,1,3,NA,NA,NA,NA,NA,NA,NA,NA,NA,NA,NA,NA,NA,NA,NA,NA,NA,NA,NA
6a880,"""Falsch""-Screen",canvas.Screen,3_0_3_0_5_0_2,NA,NA,skipped,NA,437717.7,NA,NA,437714.127,437717.80000001,2023-11-24T13:31:44Z,437730.75,NULL,Lawine,banguko,d,NA,NA,NA,NA,qt,NA,3,NA,NA,NA,NA,NA,NA,NA,NA,NA,NA,NA,NA,NA,NA,NA,NA,NA,NA,NA
6a880,deep,flow.Sequence,3_0_3_0_5_0,NA,NA,completion,12050.398,425650,425647.162,425663.729,437714.127,437718,2023-11-24T13:31:44Z,437730.75,NULL,Lawine,banguko,d,NA,NA,NA,NA,qt,NA,3,NA,NA,NA,NA,NA,NA,NA,NA,NA,NA,NA,NA,NA,NA,NA,NA,NA,NA,NA
6a880,shallow,flow.Sequence,3_0_3_0_5_1,NA,NA,skipped,NA,437718.10000001,NA,NA,437714.127,437718.2,2023-11-24T13:31:44Z,437730.75,NULL,Lawine,banguko,d,NA,NA,NA,NA,qt,NA,3,NA,NA,NA,NA,NA,NA,NA,NA,NA,NA,NA,NA,NA,NA,NA,NA,NA,NA,NA
6a880,task,flow.Sequence,3_0_3_0_5,NA,NA,completion,12050.398,425649.90000001,425647.162,425663.729,437714.127,437718.30000001,2023-11-24T13:31:44Z,437730.75,NULL,Lawine,banguko,d,NA,NA,NA,NA,qt,NA,3,NA,NA,NA,NA,NA,NA,NA,NA,NA,NA,NA,NA,NA,NA,NA,NA,NA,NA,NA
6a880,deep,flow.Sequence,3_0_3_0_6_0,NA,NA,skipped,NA,437718.30000001,NA,NA,437714.127,437718.40000001,2023-11-24T13:31:44Z,437730.75,NULL,Zuwachs,nyongeza,s,matilaba,udhibiti,hudhurio,NA,qt,NA,3,NA,NA,NA,NA,NA,NA,NA,NA,NA,NA,NA,NA,NA,NA,NA,NA,NA,NA,NA
6a880,Shallow Question,html.Page,3_0_3_0_6_1_0,NA,NA,form submission,7792.150000006,437718.40000001,437714.127,437730.75,445522.90000001,445523.2,2023-11-24T13:31:52Z,445530.866,NULL,Zuwachs,nyongeza,s,matilaba,udhibiti,hudhurio,nyongeza,NA,NA,3,NA,NA,NA,NA,NA,NA,NA,NA,NA,NA,NA,NA,NA,NA,NA,NA,NA,NA,NA
6a880,"""Richtig""-Screen",canvas.Screen,3_0_3_0_6_1_1,NA,NA,timeout,5000.295,445524.7,445514.241,445530.866,450514.454,450515,2023-11-24T13:31:57Z,450531.161,NULL,Zuwachs,nyongeza,s,matilaba,udhibiti,hudhurio,NA,qt,1,3,NA,NA,NA,NA,NA,NA,NA,NA,NA,NA,NA,NA,NA,NA,NA,NA,NA,NA,NA
6a880,"""Falsch""-Screen",canvas.Screen,3_0_3_0_6_1_2,NA,NA,skipped,NA,450517.60000001,NA,NA,450514.454,450517.7,2023-11-24T13:31:57Z,450531.161,NULL,Zuwachs,nyongeza,s,matilaba,udhibiti,hudhurio,NA,qt,NA,3,NA,NA,NA,NA,NA,NA,NA,NA,NA,NA,NA,NA,NA,NA,NA,NA,NA,NA,NA
6a880,shallow,flow.Sequence,3_0_3_0_6_1,NA,NA,completion,12783.704,437718.40000001,437714.127,437730.75,450514.454,450517.80000001,2023-11-24T13:31:57Z,450531.161,NULL,Zuwachs,nyongeza,s,matilaba,udhibiti,hudhurio,NA,qt,NA,3,NA,NA,NA,NA,NA,NA,NA,NA,NA,NA,NA,NA,NA,NA,NA,NA,NA,NA,NA
6a880,task,flow.Sequence,3_0_3_0_6,NA,NA,completion,12783.704,437718.30000001,437714.127,437730.75,450514.454,450517.80000001,2023-11-24T13:31:57Z,450531.161,NULL,Zuwachs,nyongeza,s,matilaba,udhibiti,hudhurio,NA,qt,NA,3,NA,NA,NA,NA,NA,NA,NA,NA,NA,NA,NA,NA,NA,NA,NA,NA,NA,NA,NA
6a880,Deep Question,html.Page,3_0_3_0_7_0_0,NA,NA,form submission,11014.639000012001,450517.90000001,450514.454,450531.161,461545.80000001,461546.2,2023-11-24T13:32:08Z,461547.965,NULL,System,maongozi,d,NA,NA,NA,fg,NA,NA,3,NA,NA,NA,NA,NA,NA,NA,NA,NA,NA,NA,NA,NA,NA,NA,NA,NA,NA,NA
6a880,"""Richtig""-Screen",canvas.Screen,3_0_3_0_7_0_1,NA,NA,skipped,NA,461548.2,NA,NA,461545.80000001,461548.30000001,2023-11-24T13:32:08Z,461547.965,NULL,System,maongozi,d,NA,NA,NA,NA,qt,NA,3,NA,NA,NA,NA,NA,NA,NA,NA,NA,NA,NA,NA,NA,NA,NA,NA,NA,NA,NA
6a880,"""Falsch""-Screen",canvas.Screen,3_0_3_0_7_0_2,NA,NA,timeout,5000.2439999999,461549,461531.41,461547.965,466531.424,466531.90000001,2023-11-24T13:32:13Z,466548.209,NULL,System,maongozi,d,NA,NA,NA,NA,qt,0,3,NA,NA,NA,NA,NA,NA,NA,NA,NA,NA,NA,NA,NA,NA,NA,NA,NA,NA,NA
6a880,deep,flow.Sequence,3_0_3_0_7_0,NA,NA,completion,16000.263,450517.90000001,450514.454,450531.161,466531.424,466532,2023-11-24T13:32:13Z,466548.209,NULL,System,maongozi,d,NA,NA,NA,NA,qt,NA,3,NA,NA,NA,NA,NA,NA,NA,NA,NA,NA,NA,NA,NA,NA,NA,NA,NA,NA,NA
6a880,shallow,flow.Sequence,3_0_3_0_7_1,NA,NA,skipped,NA,466532.10000001,NA,NA,466531.424,466532.2,2023-11-24T13:32:13Z,466548.209,NULL,System,maongozi,d,NA,NA,NA,NA,qt,NA,3,NA,NA,NA,NA,NA,NA,NA,NA,NA,NA,NA,NA,NA,NA,NA,NA,NA,NA,NA
6a880,task,flow.Sequence,3_0_3_0_7,NA,NA,completion,16000.263,450517.90000001,450514.454,450531.161,466531.424,466532.2,2023-11-24T13:32:13Z,466548.209,NULL,System,maongozi,d,NA,NA,NA,NA,qt,NA,3,NA,NA,NA,NA,NA,NA,NA,NA,NA,NA,NA,NA,NA,NA,NA,NA,NA,NA,NA
6a880,block,flow.Loop,3_0_3_0,NA,NA,completion,86484.361,380028.40000001,380012.58,380047.063,466531.424,466532.30000001,2023-11-24T13:32:13Z,466548.209,NULL,NA,NA,NA,NA,NA,NA,NA,qt,NA,3,NA,NA,NA,NA,NA,NA,NA,NA,NA,NA,NA,NA,NA,NA,NA,NA,NA,NA,NA
6a880,weiter,canvas.Screen,3_0_3_1,sdf,keypress(Space),response,1583.691000006,466532.40000001,466531.424,466548.209,468131.90000001,468133.60000001,2023-11-24T13:32:14Z,468164.914,NULL,NA,NA,NA,NA,NA,NA,NA,qt,NA,3,NA,NA,NA,NA,NA,NA,NA,NA,NA,NA,NA,NA,NA,NA,NA,NA,NA,NA,NA
6a880,check continue,flow.Sequence,3_0_3,NA,NA,completion,88084.837000006,380028.40000001,380012.58,380047.063,468131.90000001,468133.80000001,2023-11-24T13:32:14Z,468164.914,NULL,NA,NA,NA,NA,NA,NA,NA,qt,NA,3,NA,NA,NA,NA,NA,NA,NA,NA,NA,NA,NA,NA,NA,NA,NA,NA,NA,NA,NA
6a880,Deep Question,html.Page,3_0_4_0_0_0_0,NA,NA,form submission,6504.986000006,468153.5,468148.307,468164.914,474669.90000001,474670.2,2023-11-24T13:32:21Z,474681.62,NULL,System,maongozi,d,NA,NA,NA,s,NA,NA,4,NA,NA,NA,NA,NA,NA,NA,NA,NA,NA,NA,NA,NA,NA,NA,NA,NA,NA,NA
6a880,"""Richtig""-Screen",canvas.Screen,3_0_4_0_0_0_1,NA,NA,skipped,NA,474672.10000001,NA,NA,474669.90000001,474672.2,2023-11-24T13:32:21Z,474681.62,NULL,System,maongozi,d,NA,NA,NA,NA,sd,NA,4,NA,NA,NA,NA,NA,NA,NA,NA,NA,NA,NA,NA,NA,NA,NA,NA,NA,NA,NA
6a880,"""Falsch""-Screen",canvas.Screen,3_0_4_0_0_0_2,NA,NA,timeout,5000.21,474672.60000001,474665.06,474681.62,479665.219,479665.7,2023-11-24T13:32:26Z,479681.83,NULL,System,maongozi,d,NA,NA,NA,NA,sd,0,4,NA,NA,NA,NA,NA,NA,NA,NA,NA,NA,NA,NA,NA,NA,NA,NA,NA,NA,NA
6a880,deep,flow.Sequence,3_0_4_0_0_0,NA,NA,completion,11500.305,468153.5,468148.307,468164.914,479665.219,479665.80000001,2023-11-24T13:32:26Z,479681.83,NULL,System,maongozi,d,NA,NA,NA,NA,sd,NA,4,NA,NA,NA,NA,NA,NA,NA,NA,NA,NA,NA,NA,NA,NA,NA,NA,NA,NA,NA
6a880,shallow,flow.Sequence,3_0_4_0_0_1,NA,NA,skipped,NA,479665.90000001,NA,NA,479665.219,479666,2023-11-24T13:32:26Z,479681.83,NULL,System,maongozi,d,NA,NA,NA,NA,sd,NA,4,NA,NA,NA,NA,NA,NA,NA,NA,NA,NA,NA,NA,NA,NA,NA,NA,NA,NA,NA
6a880,task,flow.Sequence,3_0_4_0_0,NA,NA,completion,11500.305,468153.40000001,468148.307,468164.914,479665.219,479666,2023-11-24T13:32:26Z,479681.83,NULL,System,maongozi,d,NA,NA,NA,NA,sd,NA,4,NA,NA,NA,NA,NA,NA,NA,NA,NA,NA,NA,NA,NA,NA,NA,NA,NA,NA,NA
6a880,deep,flow.Sequence,3_0_4_0_1_0,NA,NA,skipped,NA,479666.10000001,NA,NA,479665.219,479666.10000001,2023-11-24T13:32:26Z,479681.83,NULL,Symbol,kielezo,s,kinyume,nderemo,utayari,NA,sd,NA,4,NA,NA,NA,NA,NA,NA,NA,NA,NA,NA,NA,NA,NA,NA,NA,NA,NA,NA,NA
6a880,Shallow Question,html.Page,3_0_4_0_1_1_0,NA,NA,form submission,5692.0700000059,479666.2,479665.219,479681.83,485373.90000001,485374.40000001,2023-11-24T13:32:31Z,485381.904,NULL,Symbol,kielezo,s,kinyume,nderemo,utayari,kielezo,NA,NA,4,NA,NA,NA,NA,NA,NA,NA,NA,NA,NA,NA,NA,NA,NA,NA,NA,NA,NA,NA
6a880,"""Richtig""-Screen",canvas.Screen,3_0_4_0_1_1_1,NA,NA,timeout,5000.352,485375.7,485365.384,485381.904,490365.54,490366,2023-11-24T13:32:36Z,490382.256,NULL,Symbol,kielezo,s,kinyume,nderemo,utayari,NA,sd,1,4,NA,NA,NA,NA,NA,NA,NA,NA,NA,NA,NA,NA,NA,NA,NA,NA,NA,NA,NA
6a880,"""Falsch""-Screen",canvas.Screen,3_0_4_0_1_1_2,NA,NA,skipped,NA,490368.2,NA,NA,490365.54,490368.40000001,2023-11-24T13:32:36Z,490382.256,NULL,Symbol,kielezo,s,kinyume,nderemo,utayari,NA,sd,NA,4,NA,NA,NA,NA,NA,NA,NA,NA,NA,NA,NA,NA,NA,NA,NA,NA,NA,NA,NA
6a880,shallow,flow.Sequence,3_0_4_0_1_1,NA,NA,completion,10683.71,479666.2,479665.219,479681.83,490365.54,490368.40000001,2023-11-24T13:32:36Z,490382.256,NULL,Symbol,kielezo,s,kinyume,nderemo,utayari,NA,sd,NA,4,NA,NA,NA,NA,NA,NA,NA,NA,NA,NA,NA,NA,NA,NA,NA,NA,NA,NA,NA
6a880,task,flow.Sequence,3_0_4_0_1,NA,NA,completion,10683.71,479666,479665.219,479681.83,490365.54,490368.5,2023-11-24T13:32:36Z,490382.256,NULL,Symbol,kielezo,s,kinyume,nderemo,utayari,NA,sd,NA,4,NA,NA,NA,NA,NA,NA,NA,NA,NA,NA,NA,NA,NA,NA,NA,NA,NA,NA,NA
6a880,deep,flow.Sequence,3_0_4_0_2_0,NA,NA,skipped,NA,490368.60000001,NA,NA,490365.54,490368.60000001,2023-11-24T13:32:36Z,490382.256,NULL,Übersicht,kilindo,s,mgusano,chipukizi,kulinganisha,NA,sd,NA,4,NA,NA,NA,NA,NA,NA,NA,NA,NA,NA,NA,NA,NA,NA,NA,NA,NA,NA,NA
6a880,Shallow Question,html.Page,3_0_4_0_2_1_0,NA,NA,form submission,6042.644000006,490368.60000001,490365.54,490382.256,496424.90000001,496425,2023-11-24T13:32:43Z,496432.243,NULL,Übersicht,kilindo,s,mgusano,chipukizi,kulinganisha,kilindo,NA,NA,4,NA,NA,NA,NA,NA,NA,NA,NA,NA,NA,NA,NA,NA,NA,NA,NA,NA,NA,NA
6a880,"""Richtig""-Screen",canvas.Screen,3_0_4_0_2_1_1,NA,NA,timeout,5000.115,496426.30000001,496415.707,496432.243,501415.751,501416.5,2023-11-24T13:32:47Z,501432.358,NULL,Übersicht,kilindo,s,mgusano,chipukizi,kulinganisha,NA,sd,1,4,NA,NA,NA,NA,NA,NA,NA,NA,NA,NA,NA,NA,NA,NA,NA,NA,NA,NA,NA
6a880,"""Falsch""-Screen",canvas.Screen,3_0_4_0_2_1_2,NA,NA,skipped,NA,501418.80000001,NA,NA,501415.751,501419,2023-11-24T13:32:47Z,501432.358,NULL,Übersicht,kilindo,s,mgusano,chipukizi,kulinganisha,NA,sd,NA,4,NA,NA,NA,NA,NA,NA,NA,NA,NA,NA,NA,NA,NA,NA,NA,NA,NA,NA,NA
6a880,shallow,flow.Sequence,3_0_4_0_2_1,NA,NA,completion,11033.495,490368.60000001,490365.54,490382.256,501415.751,501419.2,2023-11-24T13:32:47Z,501432.358,NULL,Übersicht,kilindo,s,mgusano,chipukizi,kulinganisha,NA,sd,NA,4,NA,NA,NA,NA,NA,NA,NA,NA,NA,NA,NA,NA,NA,NA,NA,NA,NA,NA,NA
6a880,task,flow.Sequence,3_0_4_0_2,NA,NA,completion,11033.495,490368.60000001,490365.54,490382.256,501415.751,501419.40000001,2023-11-24T13:32:47Z,501432.358,NULL,Übersicht,kilindo,s,mgusano,chipukizi,kulinganisha,NA,sd,NA,4,NA,NA,NA,NA,NA,NA,NA,NA,NA,NA,NA,NA,NA,NA,NA,NA,NA,NA,NA
6a880,Deep Question,html.Page,3_0_4_0_3_0_0,NA,NA,form submission,4517.9420000119,501419.60000001,501415.751,501432.358,505950.30000001,505950.7,2023-11-24T13:32:52Z,505965.781,NULL,Konkurrent,mshindani,d,NA,NA,NA,ll,NA,NA,4,NA,NA,NA,NA,NA,NA,NA,NA,NA,NA,NA,NA,NA,NA,NA,NA,NA,NA,NA
6a880,"""Richtig""-Screen",canvas.Screen,3_0_4_0_3_0_1,NA,NA,skipped,NA,505952.60000001,NA,NA,505950.30000001,505952.7,2023-11-24T13:32:52Z,505965.781,NULL,Konkurrent,mshindani,d,NA,NA,NA,NA,sd,NA,4,NA,NA,NA,NA,NA,NA,NA,NA,NA,NA,NA,NA,NA,NA,NA,NA,NA,NA,NA
6a880,"""Falsch""-Screen",canvas.Screen,3_0_4_0_3_0_2,NA,NA,timeout,5000.196,505953.2,505949.275,505965.781,510949.337,510950,2023-11-24T13:32:57Z,510965.977,NULL,Konkurrent,mshindani,d,NA,NA,NA,NA,sd,0,4,NA,NA,NA,NA,NA,NA,NA,NA,NA,NA,NA,NA,NA,NA,NA,NA,NA,NA,NA
6a880,deep,flow.Sequence,3_0_4_0_3_0,NA,NA,completion,9516.979,501419.5,501415.751,501432.358,510949.337,510950.2,2023-11-24T13:32:57Z,510965.977,NULL,Konkurrent,mshindani,d,NA,NA,NA,NA,sd,NA,4,NA,NA,NA,NA,NA,NA,NA,NA,NA,NA,NA,NA,NA,NA,NA,NA,NA,NA,NA
6a880,shallow,flow.Sequence,3_0_4_0_3_1,NA,NA,skipped,NA,510950.30000001,NA,NA,510949.337,510950.40000001,2023-11-24T13:32:57Z,510965.977,NULL,Konkurrent,mshindani,d,NA,NA,NA,NA,sd,NA,4,NA,NA,NA,NA,NA,NA,NA,NA,NA,NA,NA,NA,NA,NA,NA,NA,NA,NA,NA
6a880,task,flow.Sequence,3_0_4_0_3,NA,NA,completion,9516.979,501419.40000001,501415.751,501432.358,510949.337,510950.60000001,2023-11-24T13:32:57Z,510965.977,NULL,Konkurrent,mshindani,d,NA,NA,NA,NA,sd,NA,4,NA,NA,NA,NA,NA,NA,NA,NA,NA,NA,NA,NA,NA,NA,NA,NA,NA,NA,NA
6a880,Deep Question,html.Page,3_0_4_0_4_0_0,NA,NA,form submission,4673.3230000119,510950.80000001,510949.337,510965.977,515639.30000001,515639.5,2023-11-24T13:33:02Z,515649.401,NULL,Vorsorge,tahadhari,d,NA,NA,NA,tahadhari,NA,NA,4,NA,NA,NA,NA,NA,NA,NA,NA,NA,NA,NA,NA,NA,NA,NA,NA,NA,NA,NA
6a880,"""Richtig""-Screen",canvas.Screen,3_0_4_0_4_0_1,NA,NA,timeout,5000.239,515641.10000001,515632.811,515649.401,520632.962,520633.5,2023-11-24T13:33:07Z,520649.64,NULL,Vorsorge,tahadhari,d,NA,NA,NA,NA,sd,1,4,NA,NA,NA,NA,NA,NA,NA,NA,NA,NA,NA,NA,NA,NA,NA,NA,NA,NA,NA
6a880,"""Falsch""-Screen",canvas.Screen,3_0_4_0_4_0_2,NA,NA,skipped,NA,520635.60000001,NA,NA,520632.962,520635.80000001,2023-11-24T13:33:07Z,520649.64,NULL,Vorsorge,tahadhari,d,NA,NA,NA,NA,sd,NA,4,NA,NA,NA,NA,NA,NA,NA,NA,NA,NA,NA,NA,NA,NA,NA,NA,NA,NA,NA
6a880,deep,flow.Sequence,3_0_4_0_4_0,NA,NA,completion,9666.985,510950.80000001,510949.337,510965.977,520632.962,520635.90000001,2023-11-24T13:33:07Z,520649.64,NULL,Vorsorge,tahadhari,d,NA,NA,NA,NA,sd,NA,4,NA,NA,NA,NA,NA,NA,NA,NA,NA,NA,NA,NA,NA,NA,NA,NA,NA,NA,NA
6a880,shallow,flow.Sequence,3_0_4_0_4_1,NA,NA,skipped,NA,520635.90000001,NA,NA,520632.962,520636.10000001,2023-11-24T13:33:07Z,520649.64,NULL,Vorsorge,tahadhari,d,NA,NA,NA,NA,sd,NA,4,NA,NA,NA,NA,NA,NA,NA,NA,NA,NA,NA,NA,NA,NA,NA,NA,NA,NA,NA
6a880,task,flow.Sequence,3_0_4_0_4,NA,NA,completion,9666.985,510950.7,510949.337,510965.977,520632.962,520636.10000001,2023-11-24T13:33:07Z,520649.64,NULL,Vorsorge,tahadhari,d,NA,NA,NA,NA,sd,NA,4,NA,NA,NA,NA,NA,NA,NA,NA,NA,NA,NA,NA,NA,NA,NA,NA,NA,NA,NA
6a880,deep,flow.Sequence,3_0_4_0_5_0,NA,NA,skipped,NA,520636.10000001,NA,NA,520632.962,520636.2,2023-11-24T13:33:07Z,520649.64,NULL,Zuwachs,nyongeza,s,matilaba,udhibiti,hudhurio,NA,sd,NA,4,NA,NA,NA,NA,NA,NA,NA,NA,NA,NA,NA,NA,NA,NA,NA,NA,NA,NA,NA
6a880,Shallow Question,html.Page,3_0_4_0_5_1_0,NA,NA,form submission,6123.4600000089,520636.2,520632.962,520649.64,526773.10000001,526773.40000001,2023-11-24T13:33:13Z,526783.005,NULL,Zuwachs,nyongeza,s,matilaba,udhibiti,hudhurio,nyongeza,NA,NA,4,NA,NA,NA,NA,NA,NA,NA,NA,NA,NA,NA,NA,NA,NA,NA,NA,NA,NA,NA
6a880,"""Richtig""-Screen",canvas.Screen,3_0_4_0_5_1_1,NA,NA,timeout,5000.093,526774.7,526766.473,526783.005,531766.49,531767.2,2023-11-24T13:33:18Z,531783.098,NULL,Zuwachs,nyongeza,s,matilaba,udhibiti,hudhurio,NA,sd,1,4,NA,NA,NA,NA,NA,NA,NA,NA,NA,NA,NA,NA,NA,NA,NA,NA,NA,NA,NA
6a880,"""Falsch""-Screen",canvas.Screen,3_0_4_0_5_1_2,NA,NA,skipped,NA,531769.80000001,NA,NA,531766.49,531770,2023-11-24T13:33:18Z,531783.098,NULL,Zuwachs,nyongeza,s,matilaba,udhibiti,hudhurio,NA,sd,NA,4,NA,NA,NA,NA,NA,NA,NA,NA,NA,NA,NA,NA,NA,NA,NA,NA,NA,NA,NA
6a880,shallow,flow.Sequence,3_0_4_0_5_1,NA,NA,completion,11116.85,520636.2,520632.962,520649.64,531766.49,531770.10000001,2023-11-24T13:33:18Z,531783.098,NULL,Zuwachs,nyongeza,s,matilaba,udhibiti,hudhurio,NA,sd,NA,4,NA,NA,NA,NA,NA,NA,NA,NA,NA,NA,NA,NA,NA,NA,NA,NA,NA,NA,NA
6a880,task,flow.Sequence,3_0_4_0_5,NA,NA,completion,11116.85,520636.10000001,520632.962,520649.64,531766.49,531770.10000001,2023-11-24T13:33:18Z,531783.098,NULL,Zuwachs,nyongeza,s,matilaba,udhibiti,hudhurio,NA,sd,NA,4,NA,NA,NA,NA,NA,NA,NA,NA,NA,NA,NA,NA,NA,NA,NA,NA,NA,NA,NA
6a880,deep,flow.Sequence,3_0_4_0_6_0,NA,NA,skipped,NA,531770.2,NA,NA,531766.49,531770.2,2023-11-24T13:33:18Z,531783.098,NULL,Körper,kiwiliwili,s,mapambano,mpatanishi,kiolezo,NA,sd,NA,4,NA,NA,NA,NA,NA,NA,NA,NA,NA,NA,NA,NA,NA,NA,NA,NA,NA,NA,NA
6a880,Shallow Question,html.Page,3_0_4_0_6_1_0,NA,NA,form submission,4950.5020000089,531770.30000000994,531766.49,531783.098,536733.60000001,536734,2023-11-24T13:33:23Z,536750.937,NULL,Körper,kiwiliwili,s,mapambano,mpatanishi,kiolezo,kiwiliwili,NA,NA,4,NA,NA,NA,NA,NA,NA,NA,NA,NA,NA,NA,NA,NA,NA,NA,NA,NA,NA,NA
6a880,"""Richtig""-Screen",canvas.Screen,3_0_4_0_6_1_1,NA,NA,timeout,4999.1849999999,536736,536716.779,536750.937,541733.442,541734.10000001,2023-11-24T13:33:28Z,541750.122,NULL,Körper,kiwiliwili,s,mapambano,mpatanishi,kiolezo,NA,sd,1,4,NA,NA,NA,NA,NA,NA,NA,NA,NA,NA,NA,NA,NA,NA,NA,NA,NA,NA,NA
6a880,"""Falsch""-Screen",canvas.Screen,3_0_4_0_6_1_2,NA,NA,skipped,NA,541736.80000000994,NA,NA,541733.442,541737,2023-11-24T13:33:28Z,541750.122,NULL,Körper,kiwiliwili,s,mapambano,mpatanishi,kiolezo,NA,sd,NA,4,NA,NA,NA,NA,NA,NA,NA,NA,NA,NA,NA,NA,NA,NA,NA,NA,NA,NA,NA
6a880,shallow,flow.Sequence,3_0_4_0_6_1,NA,NA,completion,9950.344,531770.30000000994,531766.49,531783.098,541733.442,541737.2,2023-11-24T13:33:28Z,541750.122,NULL,Körper,kiwiliwili,s,mapambano,mpatanishi,kiolezo,NA,sd,NA,4,NA,NA,NA,NA,NA,NA,NA,NA,NA,NA,NA,NA,NA,NA,NA,NA,NA,NA,NA
6a880,task,flow.Sequence,3_0_4_0_6,NA,NA,completion,9950.344,531770.10000001,531766.49,531783.098,541733.442,541737.30000001,2023-11-24T13:33:28Z,541750.122,NULL,Körper,kiwiliwili,s,mapambano,mpatanishi,kiolezo,NA,sd,NA,4,NA,NA,NA,NA,NA,NA,NA,NA,NA,NA,NA,NA,NA,NA,NA,NA,NA,NA,NA
6a880,Deep Question,html.Page,3_0_4_0_7_0_0,NA,NA,form submission,4539.278000006,541737.40000001,541733.442,541750.122,546289.40000001,546289.7,2023-11-24T13:33:32Z,546300.173,NULL,Lawine,banguko,d,NA,NA,NA,banguko,NA,NA,4,NA,NA,NA,NA,NA,NA,NA,NA,NA,NA,NA,NA,NA,NA,NA,NA,NA,NA,NA
6a880,"""Richtig""-Screen",canvas.Screen,3_0_4_0_7_0_1,NA,NA,timeout,5000.2100000001,546291,546283.603,546300.173,551283.703,551284.30000001,2023-11-24T13:33:37Z,551300.383,NULL,Lawine,banguko,d,NA,NA,NA,NA,sd,1,4,NA,NA,NA,NA,NA,NA,NA,NA,NA,NA,NA,NA,NA,NA,NA,NA,NA,NA,NA
6a880,"""Falsch""-Screen",canvas.Screen,3_0_4_0_7_0_2,NA,NA,skipped,NA,551286.80000001,NA,NA,551283.703,551287,2023-11-24T13:33:37Z,551300.383,NULL,Lawine,banguko,d,NA,NA,NA,NA,sd,NA,4,NA,NA,NA,NA,NA,NA,NA,NA,NA,NA,NA,NA,NA,NA,NA,NA,NA,NA,NA
6a880,deep,flow.Sequence,3_0_4_0_7_0,NA,NA,completion,9533.581,541737.40000001,541733.442,541750.122,551283.703,551287.2,2023-11-24T13:33:37Z,551300.383,NULL,Lawine,banguko,d,NA,NA,NA,NA,sd,NA,4,NA,NA,NA,NA,NA,NA,NA,NA,NA,NA,NA,NA,NA,NA,NA,NA,NA,NA,NA
6a880,shallow,flow.Sequence,3_0_4_0_7_1,NA,NA,skipped,NA,551287.2,NA,NA,551283.703,551287.30000001,2023-11-24T13:33:37Z,551300.383,NULL,Lawine,banguko,d,NA,NA,NA,NA,sd,NA,4,NA,NA,NA,NA,NA,NA,NA,NA,NA,NA,NA,NA,NA,NA,NA,NA,NA,NA,NA
6a880,task,flow.Sequence,3_0_4_0_7,NA,NA,completion,9533.581,541737.40000001,541733.442,541750.122,551283.703,551287.30000001,2023-11-24T13:33:37Z,551300.383,NULL,Lawine,banguko,d,NA,NA,NA,NA,sd,NA,4,NA,NA,NA,NA,NA,NA,NA,NA,NA,NA,NA,NA,NA,NA,NA,NA,NA,NA,NA
6a880,block,flow.Loop,3_0_4_0,NA,NA,completion,83118.789,468153.40000001,468148.307,468164.914,551283.703,551287.5,2023-11-24T13:33:37Z,551300.383,NULL,NA,NA,NA,NA,NA,NA,NA,sd,NA,4,NA,NA,NA,NA,NA,NA,NA,NA,NA,NA,NA,NA,NA,NA,NA,NA,NA,NA,NA
6a880,weiter,canvas.Screen,3_0_4_1,sdf,keypress(Space),response,1299.4170000119,551287.5,551283.703,551300.383,552599.80000001,552600.40000001,2023-11-24T13:33:39Z,552933.731,NULL,NA,NA,NA,NA,NA,NA,NA,sd,NA,4,NA,NA,NA,NA,NA,NA,NA,NA,NA,NA,NA,NA,NA,NA,NA,NA,NA,NA,NA
6a880,check continue,flow.Sequence,3_0_4,NA,NA,completion,84434.886000012,468153.40000001,468148.307,468164.914,552599.80000001,552600.5,2023-11-24T13:33:39Z,552933.731,NULL,NA,NA,NA,NA,NA,NA,NA,sd,NA,4,NA,NA,NA,NA,NA,NA,NA,NA,NA,NA,NA,NA,NA,NA,NA,NA,NA,NA,NA
6a880,check continue,flow.Sequence,3_0_5,NA,NA,skipped,NA,552620.60000001,NA,NA,552599.80000001,552620.60000001,2023-11-24T13:33:39Z,552933.731,NULL,NA,NA,NA,NA,NA,NA,NA,sdf,NA,5,NA,NA,NA,NA,NA,NA,NA,NA,NA,NA,NA,NA,NA,NA,NA,NA,NA,NA,NA
6a880,check continue,flow.Sequence,3_0_6,NA,NA,skipped,NA,552634.2,NA,NA,552599.80000001,552634.2,2023-11-24T13:33:39Z,552933.731,NULL,NA,NA,NA,NA,NA,NA,NA,dfs,NA,6,NA,NA,NA,NA,NA,NA,NA,NA,NA,NA,NA,NA,NA,NA,NA,NA,NA,NA,NA
6a880,check continue,flow.Sequence,3_0_7,NA,NA,skipped,NA,552647.80000001,NA,NA,552599.80000001,552647.90000001,2023-11-24T13:33:39Z,552933.731,NULL,NA,NA,NA,NA,NA,NA,NA,df,NA,7,NA,NA,NA,NA,NA,NA,NA,NA,NA,NA,NA,NA,NA,NA,NA,NA,NA,NA,NA
6a880,check continue,flow.Sequence,3_0_8,NA,NA,skipped,NA,552661.90000001,NA,NA,552599.80000001,552662,2023-11-24T13:33:39Z,552933.731,NULL,NA,NA,NA,NA,NA,NA,NA,dfs,NA,8,NA,NA,NA,NA,NA,NA,NA,NA,NA,NA,NA,NA,NA,NA,NA,NA,NA,NA,NA
6a880,check continue,flow.Sequence,3_0_9,NA,NA,skipped,NA,552676.2,NA,NA,552599.80000001,552676.30000000994,2023-11-24T13:33:39Z,552933.731,NULL,NA,NA,NA,NA,NA,NA,NA,dsf,NA,9,NA,NA,NA,NA,NA,NA,NA,NA,NA,NA,NA,NA,NA,NA,NA,NA,NA,NA,NA
6a880,check continue,flow.Sequence,3_0_10,NA,NA,skipped,NA,552688,NA,NA,552599.80000001,552688.10000001,2023-11-24T13:33:39Z,552933.731,NULL,NA,NA,NA,NA,NA,NA,NA,df,NA,10,NA,NA,NA,NA,NA,NA,NA,NA,NA,NA,NA,NA,NA,NA,NA,NA,NA,NA,NA
6a880,check continue,flow.Sequence,3_0_11,NA,NA,skipped,NA,552699.30000001,NA,NA,552599.80000001,552699.40000001,2023-11-24T13:33:39Z,552933.731,NULL,NA,NA,NA,NA,NA,NA,NA,dfs,NA,11,NA,NA,NA,NA,NA,NA,NA,NA,NA,NA,NA,NA,NA,NA,NA,NA,NA,NA,NA
6a880,check continue,flow.Sequence,3_0_12,NA,NA,skipped,NA,552712.40000001,NA,NA,552599.80000001,552712.5,2023-11-24T13:33:39Z,552933.731,NULL,NA,NA,NA,NA,NA,NA,NA,dsf,NA,12,NA,NA,NA,NA,NA,NA,NA,NA,NA,NA,NA,NA,NA,NA,NA,NA,NA,NA,NA
6a880,check continue,flow.Sequence,3_0_13,NA,NA,skipped,NA,552726.10000001,NA,NA,552599.80000001,552726.10000001,2023-11-24T13:33:39Z,552933.731,NULL,NA,NA,NA,NA,NA,NA,NA,dsf,NA,13,NA,NA,NA,NA,NA,NA,NA,NA,NA,NA,NA,NA,NA,NA,NA,NA,NA,NA,NA
6a880,check continue,flow.Sequence,3_0_14,NA,NA,skipped,NA,552739.30000000994,NA,NA,552599.80000001,552739.40000001,2023-11-24T13:33:39Z,552933.731,NULL,NA,NA,NA,NA,NA,NA,NA,NA,NA,14,NA,NA,NA,NA,NA,NA,NA,NA,NA,NA,NA,NA,NA,NA,NA,NA,NA,NA,NA
6a880,check continue,flow.Sequence,3_0_15,NA,NA,skipped,NA,552751.40000001,NA,NA,552599.80000001,552751.60000001,2023-11-24T13:33:39Z,552933.731,NULL,NA,NA,NA,NA,NA,NA,NA,NA,NA,15,NA,NA,NA,NA,NA,NA,NA,NA,NA,NA,NA,NA,NA,NA,NA,NA,NA,NA,NA
6a880,check continue,flow.Sequence,3_0_16,NA,NA,skipped,NA,552763.7,NA,NA,552599.80000001,552763.7,2023-11-24T13:33:39Z,552933.731,NULL,NA,NA,NA,NA,NA,NA,NA,NA,NA,16,NA,NA,NA,NA,NA,NA,NA,NA,NA,NA,NA,NA,NA,NA,NA,NA,NA,NA,NA
6a880,check continue,flow.Sequence,3_0_17,NA,NA,skipped,NA,552775.80000000994,NA,NA,552599.80000001,552775.90000001,2023-11-24T13:33:39Z,552933.731,NULL,NA,NA,NA,NA,NA,NA,NA,NA,NA,17,NA,NA,NA,NA,NA,NA,NA,NA,NA,NA,NA,NA,NA,NA,NA,NA,NA,NA,NA
6a880,check continue,flow.Sequence,3_0_18,NA,NA,skipped,NA,552787.90000001,NA,NA,552599.80000001,552788.10000001,2023-11-24T13:33:39Z,552933.731,NULL,NA,NA,NA,NA,NA,NA,NA,NA,NA,18,NA,NA,NA,NA,NA,NA,NA,NA,NA,NA,NA,NA,NA,NA,NA,NA,NA,NA,NA
6a880,check continue,flow.Sequence,3_0_19,NA,NA,skipped,NA,552798.90000001,NA,NA,552599.80000001,552799,2023-11-24T13:33:39Z,552933.731,NULL,NA,NA,NA,NA,NA,NA,NA,NA,NA,19,NA,NA,NA,NA,NA,NA,NA,NA,NA,NA,NA,NA,NA,NA,NA,NA,NA,NA,NA
6a880,check continue,flow.Sequence,3_0_20,NA,NA,skipped,NA,552811.30000001,NA,NA,552599.80000001,552811.40000001,2023-11-24T13:33:39Z,552933.731,NULL,NA,NA,NA,NA,NA,NA,NA,NA,NA,20,NA,NA,NA,NA,NA,NA,NA,NA,NA,NA,NA,NA,NA,NA,NA,NA,NA,NA,NA
6a880,check continue,flow.Sequence,3_0_21,NA,NA,skipped,NA,552824.90000001,NA,NA,552599.80000001,552825.10000001,2023-11-24T13:33:39Z,552933.731,NULL,NA,NA,NA,NA,NA,NA,NA,NA,NA,21,NA,NA,NA,NA,NA,NA,NA,NA,NA,NA,NA,NA,NA,NA,NA,NA,NA,NA,NA
6a880,check continue,flow.Sequence,3_0_22,NA,NA,skipped,NA,552838.60000001,NA,NA,552599.80000001,552838.60000001,2023-11-24T13:33:39Z,552933.731,NULL,NA,NA,NA,NA,NA,NA,NA,NA,NA,22,NA,NA,NA,NA,NA,NA,NA,NA,NA,NA,NA,NA,NA,NA,NA,NA,NA,NA,NA
6a880,check continue,flow.Sequence,3_0_23,NA,NA,skipped,NA,552849.90000001,NA,NA,552599.80000001,552850,2023-11-24T13:33:39Z,552933.731,NULL,NA,NA,NA,NA,NA,NA,NA,NA,NA,23,NA,NA,NA,NA,NA,NA,NA,NA,NA,NA,NA,NA,NA,NA,NA,NA,NA,NA,NA
6a880,check continue,flow.Sequence,3_0_24,NA,NA,skipped,NA,552861.40000001,NA,NA,552599.80000001,552861.40000001,2023-11-24T13:33:39Z,552933.731,NULL,NA,NA,NA,NA,NA,NA,NA,NA,NA,24,NA,NA,NA,NA,NA,NA,NA,NA,NA,NA,NA,NA,NA,NA,NA,NA,NA,NA,NA
6a880,check continue,flow.Sequence,3_0_25,NA,NA,skipped,NA,552873.40000001,NA,NA,552599.80000001,552873.40000001,2023-11-24T13:33:39Z,552933.731,NULL,NA,NA,NA,NA,NA,NA,NA,NA,NA,25,NA,NA,NA,NA,NA,NA,NA,NA,NA,NA,NA,NA,NA,NA,NA,NA,NA,NA,NA
6a880,check continue,flow.Sequence,3_0_26,NA,NA,skipped,NA,552883,NA,NA,552599.80000001,552883.10000001,2023-11-24T13:33:39Z,552933.731,NULL,NA,NA,NA,NA,NA,NA,NA,NA,NA,26,NA,NA,NA,NA,NA,NA,NA,NA,NA,NA,NA,NA,NA,NA,NA,NA,NA,NA,NA
6a880,check continue,flow.Sequence,3_0_27,NA,NA,skipped,NA,552898.90000001,NA,NA,552599.80000001,552899,2023-11-24T13:33:39Z,552933.731,NULL,NA,NA,NA,NA,NA,NA,NA,NA,NA,27,NA,NA,NA,NA,NA,NA,NA,NA,NA,NA,NA,NA,NA,NA,NA,NA,NA,NA,NA
6a880,check continue,flow.Sequence,3_0_28,NA,NA,skipped,NA,552915.40000001,NA,NA,552599.80000001,552915.40000001,2023-11-24T13:33:39Z,552933.731,NULL,NA,NA,NA,NA,NA,NA,NA,NA,NA,28,NA,NA,NA,NA,NA,NA,NA,NA,NA,NA,NA,NA,NA,NA,NA,NA,NA,NA,NA
6a880,check continue,flow.Sequence,3_0_29,NA,NA,skipped,NA,552927.5,NA,NA,552599.80000001,552927.60000001,2023-11-24T13:33:39Z,552933.731,NULL,NA,NA,NA,NA,NA,NA,NA,NA,NA,29,NA,NA,NA,NA,NA,NA,NA,NA,NA,NA,NA,NA,NA,NA,NA,NA,NA,NA,NA
6a880,until continue,flow.Loop,3_0,NA,NA,completion,454794.59500001,97784.100000009,97788.465,97805.205,552599.80000001,552927.7,2023-11-24T13:33:39Z,552933.731,NULL,NA,NA,NA,NA,NA,NA,NA,NA,NA,NA,NA,NA,NA,NA,NA,NA,NA,NA,NA,NA,NA,NA,NA,NA,NA,NA,NA,NA,NA
6a880,block 1,flow.Sequence,3,NA,NA,completion,454794.59500001,97784.100000009,97788.465,97805.205,552599.80000001,552927.80000001,2023-11-24T13:33:39Z,552933.731,NULL,NA,NA,NA,NA,NA,NA,NA,NA,NA,NA,NA,NA,NA,NA,NA,NA,NA,NA,NA,NA,NA,NA,NA,NA,NA,NA,NA,NA,NA
6a880,1.Part Over,canvas.Screen,4,NA,keypress(Space),response,2865.469000003,552927.80000001,552917.061,552933.731,555799.2,555799.7,2023-11-24T13:33:42Z,555850.455,NULL,NA,NA,NA,NA,NA,NA,NA,NA,NA,NA,NA,NA,NA,NA,NA,NA,NA,NA,NA,NA,NA,NA,NA,NA,NA,NA,NA,NA,NA
6a880,deep,flow.Sequence,5_0_0_0_0_0,NA,NA,skipped,NA,555841.90000001,NA,NA,555799.2,555841.90000001,2023-11-24T13:33:42Z,555850.455,NULL,Kultur,utamaduni,s,shetani,gerezani,mazingira,NA,sdf,NA,0,NA,NA,NA,NA,NA,NA,NA,NA,NA,NA,NA,NA,NA,NA,NA,NA,NA,NA,NA
6a880,Shallow Question,html.Page,5_0_0_0_0_1_0,NA,NA,form submission,19253.345000012,555842,555833.71,555850.455,575103.80000000994,575104.2,2023-11-24T13:34:01Z,575117.582,NULL,Kultur,utamaduni,s,shetani,gerezani,mazingira,utamaduni,NA,NA,0,NA,NA,NA,NA,NA,NA,NA,NA,NA,NA,NA,NA,NA,NA,NA,NA,NA,NA,NA
6a880,"""Richtig""-Screen",canvas.Screen,5_0_0_0_0_1_1,NA,NA,timeout,5000.1409999999,575106.40000001,575100.973,575117.582,580101.053,580101.60000001,2023-11-24T13:34:06Z,580117.723,NULL,Kultur,utamaduni,s,shetani,gerezani,mazingira,NA,sdf,1,0,NA,NA,NA,NA,NA,NA,NA,NA,NA,NA,NA,NA,NA,NA,NA,NA,NA,NA,NA
6a880,"""Falsch""-Screen",canvas.Screen,5_0_0_0_0_1_2,NA,NA,skipped,NA,580103.90000001,NA,NA,580101.053,580104,2023-11-24T13:34:06Z,580117.723,NULL,Kultur,utamaduni,s,shetani,gerezani,mazingira,NA,sdf,NA,0,NA,NA,NA,NA,NA,NA,NA,NA,NA,NA,NA,NA,NA,NA,NA,NA,NA,NA,NA
6a880,shallow,flow.Sequence,5_0_0_0_0_1,NA,NA,completion,24250.598,555842,555833.71,555850.455,580101.053,580104.2,2023-11-24T13:34:06Z,580117.723,NULL,Kultur,utamaduni,s,shetani,gerezani,mazingira,NA,sdf,NA,0,NA,NA,NA,NA,NA,NA,NA,NA,NA,NA,NA,NA,NA,NA,NA,NA,NA,NA,NA
6a880,task,flow.Sequence,5_0_0_0_0,NA,NA,completion,24250.598,555841.90000001,555833.71,555850.455,580101.053,580104.2,2023-11-24T13:34:06Z,580117.723,NULL,Kultur,utamaduni,s,shetani,gerezani,mazingira,NA,sdf,NA,0,NA,NA,NA,NA,NA,NA,NA,NA,NA,NA,NA,NA,NA,NA,NA,NA,NA,NA,NA
6a880,Deep Question,html.Page,5_0_0_0_1_0_0,NA,NA,form submission,7336.0770000119,580104.40000001,580101.053,580117.723,587453.80000000994,587454,2023-11-24T13:34:14Z,587467.952,NULL,Beweis,ushahidi,d,NA,NA,NA,d,NA,NA,0,NA,NA,NA,NA,NA,NA,NA,NA,NA,NA,NA,NA,NA,NA,NA,NA,NA,NA,NA
6a880,"""Richtig""-Screen",canvas.Screen,5_0_0_0_1_0_1,NA,NA,skipped,NA,587455.7,NA,NA,587453.80000000994,587455.80000000994,2023-11-24T13:34:14Z,587467.952,NULL,Beweis,ushahidi,d,NA,NA,NA,NA,sdf,NA,0,NA,NA,NA,NA,NA,NA,NA,NA,NA,NA,NA,NA,NA,NA,NA,NA,NA,NA,NA
6a880,"""Falsch""-Screen",canvas.Screen,5_0_0_0_1_0_2,NA,NA,timeout,5000.09,587456.40000001,587451.3,587467.952,592451.515,592452,2023-11-24T13:34:19Z,592468.042,NULL,Beweis,ushahidi,d,NA,NA,NA,NA,sdf,0,0,NA,NA,NA,NA,NA,NA,NA,NA,NA,NA,NA,NA,NA,NA,NA,NA,NA,NA,NA
6a880,deep,flow.Sequence,5_0_0_0_1_0,NA,NA,completion,12333.792,580104.40000001,580101.053,580117.723,592451.515,592452.10000001,2023-11-24T13:34:19Z,592468.042,NULL,Beweis,ushahidi,d,NA,NA,NA,NA,sdf,NA,0,NA,NA,NA,NA,NA,NA,NA,NA,NA,NA,NA,NA,NA,NA,NA,NA,NA,NA,NA
6a880,shallow,flow.Sequence,5_0_0_0_1_1,NA,NA,skipped,NA,592452.2,NA,NA,592451.515,592452.30000001,2023-11-24T13:34:19Z,592468.042,NULL,Beweis,ushahidi,d,NA,NA,NA,NA,sdf,NA,0,NA,NA,NA,NA,NA,NA,NA,NA,NA,NA,NA,NA,NA,NA,NA,NA,NA,NA,NA
6a880,task,flow.Sequence,5_0_0_0_1,NA,NA,completion,12333.792,580104.40000001,580101.053,580117.723,592451.515,592452.40000001,2023-11-24T13:34:19Z,592468.042,NULL,Beweis,ushahidi,d,NA,NA,NA,NA,sdf,NA,0,NA,NA,NA,NA,NA,NA,NA,NA,NA,NA,NA,NA,NA,NA,NA,NA,NA,NA,NA
6a880,deep,flow.Sequence,5_0_0_0_2_0,NA,NA,skipped,NA,592452.5,NA,NA,592451.515,592452.60000001,2023-11-24T13:34:19Z,592468.042,NULL,Sympathie,mapendano,s,dhamiria,fungamano,maazimio,NA,sdf,NA,0,NA,NA,NA,NA,NA,NA,NA,NA,NA,NA,NA,NA,NA,NA,NA,NA,NA,NA,NA
6a880,Shallow Question,html.Page,5_0_0_0_2_1_0,NA,NA,form submission,4121.158000003,592452.60000001,592451.515,592468.042,596589.2,596589.5,2023-11-24T13:34:23Z,596601.466,NULL,Sympathie,mapendano,s,dhamiria,fungamano,maazimio,fungamano,NA,NA,0,NA,NA,NA,NA,NA,NA,NA,NA,NA,NA,NA,NA,NA,NA,NA,NA,NA,NA,NA
6a880,"""Richtig""-Screen",canvas.Screen,5_0_0_0_2_1_1,NA,NA,skipped,NA,596591.2,NA,NA,596589.2,596591.30000000994,2023-11-24T13:34:23Z,596601.466,NULL,Sympathie,mapendano,s,dhamiria,fungamano,maazimio,NA,sdf,NA,0,NA,NA,NA,NA,NA,NA,NA,NA,NA,NA,NA,NA,NA,NA,NA,NA,NA,NA,NA
6a880,"""Falsch""-Screen",canvas.Screen,5_0_0_0_2_1_2,NA,NA,timeout,5000.237,596592,596584.889,596601.466,601585.038,601585.7,2023-11-24T13:34:28Z,601601.703,NULL,Sympathie,mapendano,s,dhamiria,fungamano,maazimio,NA,sdf,0,0,NA,NA,NA,NA,NA,NA,NA,NA,NA,NA,NA,NA,NA,NA,NA,NA,NA,NA,NA
6a880,shallow,flow.Sequence,5_0_0_0_2_1,NA,NA,completion,9116.9959999999,592452.60000001,592451.515,592468.042,601585.038,601586.2,2023-11-24T13:34:28Z,601601.703,NULL,Sympathie,mapendano,s,dhamiria,fungamano,maazimio,NA,sdf,NA,0,NA,NA,NA,NA,NA,NA,NA,NA,NA,NA,NA,NA,NA,NA,NA,NA,NA,NA,NA
6a880,task,flow.Sequence,5_0_0_0_2,NA,NA,completion,9116.9959999999,592452.40000001,592451.515,592468.042,601585.038,601586.40000001,2023-11-24T13:34:28Z,601601.703,NULL,Sympathie,mapendano,s,dhamiria,fungamano,maazimio,NA,sdf,NA,0,NA,NA,NA,NA,NA,NA,NA,NA,NA,NA,NA,NA,NA,NA,NA,NA,NA,NA,NA
6a880,Deep Question,html.Page,5_0_0_0_3_0_0,NA,NA,form submission,6680.0970000119,601586.5,601585.038,601601.703,608281.80000000994,608282,2023-11-24T13:34:34Z,608285.1,NULL,Aufstand,ugomaji,d,NA,NA,NA,ushahidi,NA,NA,0,NA,NA,NA,NA,NA,NA,NA,NA,NA,NA,NA,NA,NA,NA,NA,NA,NA,NA,NA
6a880,"""Richtig""-Screen",canvas.Screen,5_0_0_0_3_0_1,NA,NA,skipped,NA,608283.40000001,NA,NA,608281.80000000994,608283.5,2023-11-24T13:34:34Z,608285.1,NULL,Aufstand,ugomaji,d,NA,NA,NA,NA,sdf,NA,0,NA,NA,NA,NA,NA,NA,NA,NA,NA,NA,NA,NA,NA,NA,NA,NA,NA,NA,NA
6a880,"""Falsch""-Screen",canvas.Screen,5_0_0_0_3_0_2,NA,NA,timeout,5000.273,608283.90000001,608268.529,608285.1,613268.737,613269.2,2023-11-24T13:34:39Z,613285.373,NULL,Aufstand,ugomaji,d,NA,NA,NA,NA,sdf,0,0,NA,NA,NA,NA,NA,NA,NA,NA,NA,NA,NA,NA,NA,NA,NA,NA,NA,NA,NA
6a880,deep,flow.Sequence,5_0_0_0_3_0,NA,NA,completion,11667.034,601586.5,601585.038,601601.703,613268.737,613269.5,2023-11-24T13:34:39Z,613285.373,NULL,Aufstand,ugomaji,d,NA,NA,NA,NA,sdf,NA,0,NA,NA,NA,NA,NA,NA,NA,NA,NA,NA,NA,NA,NA,NA,NA,NA,NA,NA,NA
6a880,shallow,flow.Sequence,5_0_0_0_3_1,NA,NA,skipped,NA,613269.60000001,NA,NA,613268.737,613269.60000001,2023-11-24T13:34:39Z,613285.373,NULL,Aufstand,ugomaji,d,NA,NA,NA,NA,sdf,NA,0,NA,NA,NA,NA,NA,NA,NA,NA,NA,NA,NA,NA,NA,NA,NA,NA,NA,NA,NA
6a880,task,flow.Sequence,5_0_0_0_3,NA,NA,completion,11667.034,601586.5,601585.038,601601.703,613268.737,613269.80000000994,2023-11-24T13:34:39Z,613285.373,NULL,Aufstand,ugomaji,d,NA,NA,NA,NA,sdf,NA,0,NA,NA,NA,NA,NA,NA,NA,NA,NA,NA,NA,NA,NA,NA,NA,NA,NA,NA,NA
6a880,deep,flow.Sequence,5_0_0_0_4_0,NA,NA,skipped,NA,613269.80000000994,NA,NA,613268.737,613269.80000000994,2023-11-24T13:34:39Z,613285.373,NULL,Annäherung,maegesho,s,madahili,kujiamini,mapendekezo,NA,sdf,NA,0,NA,NA,NA,NA,NA,NA,NA,NA,NA,NA,NA,NA,NA,NA,NA,NA,NA,NA,NA
6a880,Shallow Question,html.Page,5_0_0_0_4_1_0,NA,NA,form submission,5508.827000003,613269.90000001,613268.737,613285.373,618794.2,618794.40000001,2023-11-24T13:34:45Z,618802.065,NULL,Annäherung,maegesho,s,madahili,kujiamini,mapendekezo,madahili,NA,NA,0,NA,NA,NA,NA,NA,NA,NA,NA,NA,NA,NA,NA,NA,NA,NA,NA,NA,NA,NA
6a880,"""Richtig""-Screen",canvas.Screen,5_0_0_0_4_1_1,NA,NA,skipped,NA,618795.7,NA,NA,618794.2,618795.90000001,2023-11-24T13:34:45Z,618802.065,NULL,Annäherung,maegesho,s,madahili,kujiamini,mapendekezo,NA,sdf,NA,0,NA,NA,NA,NA,NA,NA,NA,NA,NA,NA,NA,NA,NA,NA,NA,NA,NA,NA,NA
6a880,"""Falsch""-Screen",canvas.Screen,5_0_0_0_4_1_2,NA,NA,timeout,5000.165,618796.30000001,618785.466,618802.065,623785.702,623786.10000001,2023-11-24T13:34:50Z,623802.23,NULL,Annäherung,maegesho,s,madahili,kujiamini,mapendekezo,NA,sdf,0,0,NA,NA,NA,NA,NA,NA,NA,NA,NA,NA,NA,NA,NA,NA,NA,NA,NA,NA,NA
6a880,shallow,flow.Sequence,5_0_0_0_4_1,NA,NA,completion,10500.329,613269.90000001,613268.737,613285.373,623785.702,623786.30000000994,2023-11-24T13:34:50Z,623802.23,NULL,Annäherung,maegesho,s,madahili,kujiamini,mapendekezo,NA,sdf,NA,0,NA,NA,NA,NA,NA,NA,NA,NA,NA,NA,NA,NA,NA,NA,NA,NA,NA,NA,NA
6a880,task,flow.Sequence,5_0_0_0_4,NA,NA,completion,10500.329,613269.80000000994,613268.737,613285.373,623785.702,623786.40000001,2023-11-24T13:34:50Z,623802.23,NULL,Annäherung,maegesho,s,madahili,kujiamini,mapendekezo,NA,sdf,NA,0,NA,NA,NA,NA,NA,NA,NA,NA,NA,NA,NA,NA,NA,NA,NA,NA,NA,NA,NA
6a880,deep,flow.Sequence,5_0_0_0_5_0,NA,NA,skipped,NA,623786.5,NA,NA,623785.702,623786.5,2023-11-24T13:34:50Z,623802.23,NULL,Verzögerung,kuchelewa,s,mwakilishi,mwanauchumi,jaribio,NA,sdf,NA,0,NA,NA,NA,NA,NA,NA,NA,NA,NA,NA,NA,NA,NA,NA,NA,NA,NA,NA,NA
6a880,Shallow Question,html.Page,5_0_0_0_5_1_0,NA,NA,form submission,17757.070000012,623786.60000001,623785.702,623802.23,641559.30000001,641559.7,2023-11-24T13:35:08Z,641569.297,NULL,Verzögerung,kuchelewa,s,mwakilishi,mwanauchumi,jaribio,mwanauchumi,NA,NA,0,NA,NA,NA,NA,NA,NA,NA,NA,NA,NA,NA,NA,NA,NA,NA,NA,NA,NA,NA
6a880,"""Richtig""-Screen",canvas.Screen,5_0_0_0_5_1_1,NA,NA,skipped,NA,641561.10000001,NA,NA,641559.30000001,641561.30000001,2023-11-24T13:35:08Z,641569.297,NULL,Verzögerung,kuchelewa,s,mwakilishi,mwanauchumi,jaribio,NA,sdf,NA,0,NA,NA,NA,NA,NA,NA,NA,NA,NA,NA,NA,NA,NA,NA,NA,NA,NA,NA,NA
6a880,"""Falsch""-Screen",canvas.Screen,5_0_0_0_5_1_2,NA,NA,timeout,5000.22,641561.7,641552.756,641569.297,646552.942,646553.60000001,2023-11-24T13:35:13Z,646569.517,NULL,Verzögerung,kuchelewa,s,mwakilishi,mwanauchumi,jaribio,NA,sdf,0,0,NA,NA,NA,NA,NA,NA,NA,NA,NA,NA,NA,NA,NA,NA,NA,NA,NA,NA,NA
6a880,shallow,flow.Sequence,5_0_0_0_5_1,NA,NA,completion,22750.712,623786.5,623785.702,623802.23,646552.942,646553.7,2023-11-24T13:35:13Z,646569.517,NULL,Verzögerung,kuchelewa,s,mwakilishi,mwanauchumi,jaribio,NA,sdf,NA,0,NA,NA,NA,NA,NA,NA,NA,NA,NA,NA,NA,NA,NA,NA,NA,NA,NA,NA,NA
6a880,task,flow.Sequence,5_0_0_0_5,NA,NA,completion,22750.712,623786.5,623785.702,623802.23,646552.942,646553.80000001,2023-11-24T13:35:13Z,646569.517,NULL,Verzögerung,kuchelewa,s,mwakilishi,mwanauchumi,jaribio,NA,sdf,NA,0,NA,NA,NA,NA,NA,NA,NA,NA,NA,NA,NA,NA,NA,NA,NA,NA,NA,NA,NA
6a880,Deep Question,html.Page,5_0_0_0_6_0_0,NA,NA,form submission,6859.5830000089,646553.90000001,646552.942,646569.517,653429.10000001,653429.30000001,2023-11-24T13:35:20Z,653436.42,NULL,Prüfung,mtihani,d,NA,NA,NA,sdf,NA,NA,0,NA,NA,NA,NA,NA,NA,NA,NA,NA,NA,NA,NA,NA,NA,NA,NA,NA,NA,NA
6a880,"""Richtig""-Screen",canvas.Screen,5_0_0_0_6_0_1,NA,NA,skipped,NA,653430.80000001,NA,NA,653429.10000001,653430.90000001,2023-11-24T13:35:20Z,653436.42,NULL,Prüfung,mtihani,d,NA,NA,NA,NA,sdf,NA,0,NA,NA,NA,NA,NA,NA,NA,NA,NA,NA,NA,NA,NA,NA,NA,NA,NA,NA,NA
6a880,"""Falsch""-Screen",canvas.Screen,5_0_0_0_6_0_2,NA,NA,timeout,4999.9789999999,653431.40000001,653419.696,653436.42,658419.876,658420.40000001,2023-11-24T13:35:24Z,658436.399,NULL,Prüfung,mtihani,d,NA,NA,NA,NA,sdf,0,0,NA,NA,NA,NA,NA,NA,NA,NA,NA,NA,NA,NA,NA,NA,NA,NA,NA,NA,NA
6a880,deep,flow.Sequence,5_0_0_0_6_0,NA,NA,completion,11850.359,646553.90000001,646552.942,646569.517,658419.876,658420.60000001,2023-11-24T13:35:24Z,658436.399,NULL,Prüfung,mtihani,d,NA,NA,NA,NA,sdf,NA,0,NA,NA,NA,NA,NA,NA,NA,NA,NA,NA,NA,NA,NA,NA,NA,NA,NA,NA,NA
6a880,shallow,flow.Sequence,5_0_0_0_6_1,NA,NA,skipped,NA,658420.7,NA,NA,658419.876,658420.7,2023-11-24T13:35:24Z,658436.399,NULL,Prüfung,mtihani,d,NA,NA,NA,NA,sdf,NA,0,NA,NA,NA,NA,NA,NA,NA,NA,NA,NA,NA,NA,NA,NA,NA,NA,NA,NA,NA
6a880,task,flow.Sequence,5_0_0_0_6,NA,NA,completion,11850.359,646553.80000001,646552.942,646569.517,658419.876,658421.10000001,2023-11-24T13:35:24Z,658436.399,NULL,Prüfung,mtihani,d,NA,NA,NA,NA,sdf,NA,0,NA,NA,NA,NA,NA,NA,NA,NA,NA,NA,NA,NA,NA,NA,NA,NA,NA,NA,NA
6a880,Deep Question,html.Page,5_0_0_0_7_0_0,NA,NA,form submission,3484.9010000119,658421.5,658419.876,658436.399,661921.30000001,661922,2023-11-24T13:35:28Z,661936.522,NULL,Polizist,msongora,d,NA,NA,NA,x,NA,NA,0,NA,NA,NA,NA,NA,NA,NA,NA,NA,NA,NA,NA,NA,NA,NA,NA,NA,NA,NA
6a880,"""Richtig""-Screen",canvas.Screen,5_0_0_0_7_0_1,NA,NA,skipped,NA,661923.5,NA,NA,661921.30000001,661923.90000001,2023-11-24T13:35:28Z,661936.522,NULL,Polizist,msongora,d,NA,NA,NA,NA,sdf,NA,0,NA,NA,NA,NA,NA,NA,NA,NA,NA,NA,NA,NA,NA,NA,NA,NA,NA,NA,NA
