observation,sender,sender_type,sender_id,response,response_action,ended_on,duration,time_run,time_render,time_show,time_end,time_commit,timestamp,time_switch,german,swahili,enc,distractor1,distractor2,distractor3,response_2,x,correct,distractors,url_vp,url_sess,meta_labjs_version,meta_location,meta_user_agent,meta_platform,meta_language,meta_locale,meta_time_zone,meta_timezone_offset,meta_screen_width,meta_screen_height,meta_scroll_width,meta_scroll_height,meta_window_inner_width,meta_window_inner_height,meta_device_pixel_ratio,meta_labjs_build_flavor,meta_labjs_build_commit
195cc,Introduction delayed retrieval,canvas.Screen,0,weiter,keypress(Space),response,19463.68,1688,1690.6,1707.32,21171,21189,2024-06-28T19:05:49Z,21206.38,NA,NA,NA,NA,NA,NA,NA,NA,NA,NULL,162,4,20.2.4,https://neurocog.fernuni.ch/studies/vweber/jbaenninger/delayed%202/index.html?vp=162&sess=4,Mozilla/5.0 (Windows NT 10.0; Win64; x64; rv:127.0) Gecko/20100101 Firefox/127.0,Win32,de,de-CH,Europe/Zurich,-120,1280,800,1280,591,1280,639,1.5,production,f5b4a49f956347addd546a832a3327688c2c0fef
195cc,Deep Question,html.Page,1_0_0_0,NA,NA,form submission,18109.62,21190,21190.54,21206.38,39316,39317,2024-06-28T19:06:07Z,39321.74,Hoffnung,matarajio,s,kutaalamika,uratibu,mvumbuzi,h,NA,NA,NULL,NA,NA,NA,NA,NA,NA,NA,NA,NA,NA,NA,NA,NA,NA,NA,NA,NA,NA,NA
195cc,Save data screen,canvas.Screen,1_0_0_1,NA,NA,timeout,500.56,39322,39310,39321.74,39805.92,39808,2024-06-28T19:06:08Z,39822.3,Hoffnung,matarajio,s,kutaalamika,uratibu,mvumbuzi,NA,NA,0,NULL,NA,NA,NA,NA,NA,NA,NA,NA,NA,NA,NA,NA,NA,NA,NA,NA,NA,NA,NA
195cc,deep,flow.Sequence,1_0_0,NA,NA,completion,18599.54,21190,21190.54,21206.38,39805.92,39808,2024-06-28T19:06:08Z,39822.3,Hoffnung,matarajio,s,kutaalamika,uratibu,mvumbuzi,NA,NA,NA,NULL,NA,NA,NA,NA,NA,NA,NA,NA,NA,NA,NA,NA,NA,NA,NA,NA,NA,NA,NA
195cc,task,flow.Sequence,1_0,NA,NA,completion,18599.54,21190,21190.54,21206.38,39805.92,39809,2024-06-28T19:06:08Z,39822.3,Hoffnung,matarajio,s,kutaalamika,uratibu,mvumbuzi,NA,NA,NA,NULL,NA,NA,NA,NA,NA,NA,NA,NA,NA,NA,NA,NA,NA,NA,NA,NA,NA,NA,NA
195cc,Deep Question,html.Page,1_1_0_0,NA,NA,form submission,47606.7,39809,39805.92,39822.3,87429,87430,2024-06-28T19:06:55Z,87428.28,Fenster,dirisha,d,walakini,tasawari,maarifa,diriwa,NA,NA,NULL,NA,NA,NA,NA,NA,NA,NA,NA,NA,NA,NA,NA,NA,NA,NA,NA,NA,NA,NA
195cc,Save data screen,canvas.Screen,1_1_0_1,NA,NA,timeout,500.08,87436,87424.02,87428.28,87912.08,87913,2024-06-28T19:06:56Z,87928.36,Fenster,dirisha,d,walakini,tasawari,maarifa,NA,NA,0,NULL,NA,NA,NA,NA,NA,NA,NA,NA,NA,NA,NA,NA,NA,NA,NA,NA,NA,NA,NA
195cc,deep,flow.Sequence,1_1_0,NA,NA,completion,48089.78,39809,39805.92,39822.3,87912.08,87913,2024-06-28T19:06:56Z,87928.36,Fenster,dirisha,d,walakini,tasawari,maarifa,NA,NA,NA,NULL,NA,NA,NA,NA,NA,NA,NA,NA,NA,NA,NA,NA,NA,NA,NA,NA,NA,NA,NA
195cc,task,flow.Sequence,1_1,NA,NA,completion,48089.78,39809,39805.92,39822.3,87912.08,87913,2024-06-28T19:06:56Z,87928.36,Fenster,dirisha,d,walakini,tasawari,maarifa,NA,NA,NA,NULL,NA,NA,NA,NA,NA,NA,NA,NA,NA,NA,NA,NA,NA,NA,NA,NA,NA,NA,NA
195cc,Deep Question,html.Page,1_2_0_0,NA,NA,form submission,17807.64,87914,87912.08,87928.36,105736,105736,2024-06-28T19:07:14Z,105743.4,Spionage,upelelezi,d,maslahi,utokazo,magangao,u,NA,NA,NULL,NA,NA,NA,NA,NA,NA,NA,NA,NA,NA,NA,NA,NA,NA,NA,NA,NA,NA,NA
195cc,Save data screen,canvas.Screen,1_2_0_1,NA,NA,timeout,500.18000000001,105738,105732.22,105743.4,106226.96,106228,2024-06-28T19:07:14Z,106243.58,Spionage,upelelezi,d,maslahi,utokazo,magangao,NA,NA,0,NULL,NA,NA,NA,NA,NA,NA,NA,NA,NA,NA,NA,NA,NA,NA,NA,NA,NA,NA,NA
195cc,deep,flow.Sequence,1_2_0,NA,NA,completion,18298.6,87914,87912.08,87928.36,106226.96,106228,2024-06-28T19:07:14Z,106243.58,Spionage,upelelezi,d,maslahi,utokazo,magangao,NA,NA,NA,NULL,NA,NA,NA,NA,NA,NA,NA,NA,NA,NA,NA,NA,NA,NA,NA,NA,NA,NA,NA
195cc,task,flow.Sequence,1_2,NA,NA,completion,18298.6,87914,87912.08,87928.36,106226.96,106228,2024-06-28T19:07:14Z,106243.58,Spionage,upelelezi,d,maslahi,utokazo,magangao,NA,NA,NA,NULL,NA,NA,NA,NA,NA,NA,NA,NA,NA,NA,NA,NA,NA,NA,NA,NA,NA,NA,NA
195cc,Deep Question,html.Page,1_3_0_0,NA,NA,form submission,3516.42,106229,106226.96,106243.58,109760,109760,2024-06-28T19:07:18Z,109762.78,Toleranz,kuvumiliana,d,maombolezo,ujasusi,mchekeshaji,uihib,NA,NA,NULL,NA,NA,NA,NA,NA,NA,NA,NA,NA,NA,NA,NA,NA,NA,NA,NA,NA,NA,NA
195cc,Save data screen,canvas.Screen,1_3_0_1,NA,NA,timeout,501.10000000001,109761,109757.36,109762.78,110247.16,110248,2024-06-28T19:07:18Z,110263.88,Toleranz,kuvumiliana,d,maombolezo,ujasusi,mchekeshaji,NA,NA,0,NULL,NA,NA,NA,NA,NA,NA,NA,NA,NA,NA,NA,NA,NA,NA,NA,NA,NA,NA,NA
195cc,deep,flow.Sequence,1_3_0,NA,NA,completion,4003.58,106228,106226.96,106243.58,110247.16,110248,2024-06-28T19:07:18Z,110263.88,Toleranz,kuvumiliana,d,maombolezo,ujasusi,mchekeshaji,NA,NA,NA,NULL,NA,NA,NA,NA,NA,NA,NA,NA,NA,NA,NA,NA,NA,NA,NA,NA,NA,NA,NA
195cc,task,flow.Sequence,1_3,NA,NA,completion,4003.58,106228,106226.96,106243.58,110247.16,110249,2024-06-28T19:07:18Z,110263.88,Toleranz,kuvumiliana,d,maombolezo,ujasusi,mchekeshaji,NA,NA,NA,NULL,NA,NA,NA,NA,NA,NA,NA,NA,NA,NA,NA,NA,NA,NA,NA,NA,NA,NA,NA
195cc,Deep Question,html.Page,1_4_0_0,NA,NA,form submission,13524.12,110249,110247.16,110263.88,123788,123788,2024-06-28T19:07:32Z,123790.38,Schock,mshtuko,d,biashara,kukataza,vichekesho,mshoka,NA,NA,NULL,NA,NA,NA,NA,NA,NA,NA,NA,NA,NA,NA,NA,NA,NA,NA,NA,NA,NA,NA
195cc,Save data screen,canvas.Screen,1_4_0_1,NA,NA,timeout,501.44,123788,123783.7,123790.38,124274.7,124277,2024-06-28T19:07:32Z,124291.82,Schock,mshtuko,d,biashara,kukataza,vichekesho,NA,NA,0,NULL,NA,NA,NA,NA,NA,NA,NA,NA,NA,NA,NA,NA,NA,NA,NA,NA,NA,NA,NA
195cc,deep,flow.Sequence,1_4_0,NA,NA,completion,14010.82,110249,110247.16,110263.88,124274.7,124278,2024-06-28T19:07:32Z,124291.82,Schock,mshtuko,d,biashara,kukataza,vichekesho,NA,NA,NA,NULL,NA,NA,NA,NA,NA,NA,NA,NA,NA,NA,NA,NA,NA,NA,NA,NA,NA,NA,NA
195cc,task,flow.Sequence,1_4,NA,NA,completion,14010.82,110249,110247.16,110263.88,124274.7,124278,2024-06-28T19:07:32Z,124291.82,Schock,mshtuko,d,biashara,kukataza,vichekesho,NA,NA,NA,NULL,NA,NA,NA,NA,NA,NA,NA,NA,NA,NA,NA,NA,NA,NA,NA,NA,NA,NA,NA
195cc,Deep Question,html.Page,1_5_0_0,NA,NA,form submission,4979.18,124278,124274.7,124291.82,129271,129271,2024-06-28T19:07:37Z,129278.76,Inhalt,yaliyomo,s,kishawishi,hifadhi,kutembea,hjbhjb,NA,NA,NULL,NA,NA,NA,NA,NA,NA,NA,NA,NA,NA,NA,NA,NA,NA,NA,NA,NA,NA,NA
195cc,Save data screen,canvas.Screen,1_5_0_1,NA,NA,timeout,500.86,129272,129267.42,129278.76,129763.38,129765,2024-06-28T19:07:38Z,129779.62,Inhalt,yaliyomo,s,kishawishi,hifadhi,kutembea,NA,NA,0,NULL,NA,NA,NA,NA,NA,NA,NA,NA,NA,NA,NA,NA,NA,NA,NA,NA,NA,NA,NA
195cc,deep,flow.Sequence,1_5_0,NA,NA,completion,5471.56,124278,124274.7,124291.82,129763.38,129765,2024-06-28T19:07:38Z,129779.62,Inhalt,yaliyomo,s,kishawishi,hifadhi,kutembea,NA,NA,NA,NULL,NA,NA,NA,NA,NA,NA,NA,NA,NA,NA,NA,NA,NA,NA,NA,NA,NA,NA,NA
195cc,task,flow.Sequence,1_5,NA,NA,completion,5471.56,124278,124274.7,124291.82,129763.38,129765,2024-06-28T19:07:38Z,129779.62,Inhalt,yaliyomo,s,kishawishi,hifadhi,kutembea,NA,NA,NA,NULL,NA,NA,NA,NA,NA,NA,NA,NA,NA,NA,NA,NA,NA,NA,NA,NA,NA,NA,NA
195cc,Deep Question,html.Page,1_6_0_0,NA,NA,form submission,3343.38,129766,129763.38,129779.62,133123,133124,2024-06-28T19:07:41Z,133132.66,Vermutung,udhanifu,s,haramia,tikisho,itifaki,hjbjb,NA,NA,NULL,NA,NA,NA,NA,NA,NA,NA,NA,NA,NA,NA,NA,NA,NA,NA,NA,NA,NA,NA
195cc,Save data screen,canvas.Screen,1_6_0_1,NA,NA,timeout,500.17999999999,133125,133120.72,133132.66,133616.26,133618,2024-06-28T19:07:42Z,133632.84,Vermutung,udhanifu,s,haramia,tikisho,itifaki,NA,NA,0,NULL,NA,NA,NA,NA,NA,NA,NA,NA,NA,NA,NA,NA,NA,NA,NA,NA,NA,NA,NA
195cc,deep,flow.Sequence,1_6_0,NA,NA,completion,3836.64,129765,129763.38,129779.62,133616.26,133618,2024-06-28T19:07:42Z,133632.84,Vermutung,udhanifu,s,haramia,tikisho,itifaki,NA,NA,NA,NULL,NA,NA,NA,NA,NA,NA,NA,NA,NA,NA,NA,NA,NA,NA,NA,NA,NA,NA,NA
195cc,task,flow.Sequence,1_6,NA,NA,completion,3836.64,129765,129763.38,129779.62,133616.26,133618,2024-06-28T19:07:42Z,133632.84,Vermutung,udhanifu,s,haramia,tikisho,itifaki,NA,NA,NA,NULL,NA,NA,NA,NA,NA,NA,NA,NA,NA,NA,NA,NA,NA,NA,NA,NA,NA,NA,NA
195cc,Deep Question,html.Page,1_7_0_0,NA,NA,form submission,8726.16,133618,133616.26,133632.84,142359,142361,2024-06-28T19:07:50Z,142356.52,Wohlstand,mafanikio,d,chimbuko,kumbuko,mapwaji,cxhv,NA,NA,NULL,NA,NA,NA,NA,NA,NA,NA,NA,NA,NA,NA,NA,NA,NA,NA,NA,NA,NA,NA
195cc,Save data screen,canvas.Screen,1_7_0_1,NA,NA,timeout,500.04000000001,142366,142354.04,142356.52,142840.32,142842,2024-06-28T19:07:51Z,142856.56,Wohlstand,mafanikio,d,chimbuko,kumbuko,mapwaji,NA,NA,0,NULL,NA,NA,NA,NA,NA,NA,NA,NA,NA,NA,NA,NA,NA,NA,NA,NA,NA,NA,NA
195cc,deep,flow.Sequence,1_7_0,NA,NA,completion,9207.48,133618,133616.26,133632.84,142840.32,142842,2024-06-28T19:07:51Z,142856.56,Wohlstand,mafanikio,d,chimbuko,kumbuko,mapwaji,NA,NA,NA,NULL,NA,NA,NA,NA,NA,NA,NA,NA,NA,NA,NA,NA,NA,NA,NA,NA,NA,NA,NA
195cc,task,flow.Sequence,1_7,NA,NA,completion,9207.48,133618,133616.26,133632.84,142840.32,142843,2024-06-28T19:07:51Z,142856.56,Wohlstand,mafanikio,d,chimbuko,kumbuko,mapwaji,NA,NA,NA,NULL,NA,NA,NA,NA,NA,NA,NA,NA,NA,NA,NA,NA,NA,NA,NA,NA,NA,NA,NA
195cc,Deep Question,html.Page,1_8_0_0,NA,NA,form submission,10121.44,142844,142840.32,142856.56,152978,152978,2024-06-28T19:08:01Z,152982.24,Tester,wanaojaribu,s,sherti,sihiri,mlipuko,waohaobi,NA,NA,NULL,NA,NA,NA,NA,NA,NA,NA,NA,NA,NA,NA,NA,NA,NA,NA,NA,NA,NA,NA
195cc,Save data screen,canvas.Screen,1_8_0_1,NA,NA,timeout,500.54000000001,152980,152974.52,152982.24,153465.66,153468,2024-06-28T19:08:01Z,153482.78,Tester,wanaojaribu,s,sherti,sihiri,mlipuko,NA,NA,0,NULL,NA,NA,NA,NA,NA,NA,NA,NA,NA,NA,NA,NA,NA,NA,NA,NA,NA,NA,NA
195cc,deep,flow.Sequence,1_8_0,NA,NA,completion,10609.1,142843,142840.32,142856.56,153465.66,153468,2024-06-28T19:08:01Z,153482.78,Tester,wanaojaribu,s,sherti,sihiri,mlipuko,NA,NA,NA,NULL,NA,NA,NA,NA,NA,NA,NA,NA,NA,NA,NA,NA,NA,NA,NA,NA,NA,NA,NA
195cc,task,flow.Sequence,1_8,NA,NA,completion,10609.1,142843,142840.32,142856.56,153465.66,153468,2024-06-28T19:08:01Z,153482.78,Tester,wanaojaribu,s,sherti,sihiri,mlipuko,NA,NA,NA,NULL,NA,NA,NA,NA,NA,NA,NA,NA,NA,NA,NA,NA,NA,NA,NA,NA,NA,NA,NA
195cc,Deep Question,html.Page,1_9_0_0,NA,NA,form submission,5321.22,153469,153465.66,153482.78,158804,158804,2024-06-28T19:08:07Z,158803.96,Schüler,mwanafunzi,s,mwekezaji,matumizi,uaminifu,vbvb,NA,NA,NULL,NA,NA,NA,NA,NA,NA,NA,NA,NA,NA,NA,NA,NA,NA,NA,NA,NA,NA,NA
195cc,Save data screen,canvas.Screen,1_9_0_1,NA,NA,timeout,500.32000000001,158805,158800.62,158803.96,159287.68,159289,2024-06-28T19:08:07Z,159304.28,Schüler,mwanafunzi,s,mwekezaji,matumizi,uaminifu,NA,NA,0,NULL,NA,NA,NA,NA,NA,NA,NA,NA,NA,NA,NA,NA,NA,NA,NA,NA,NA,NA,NA
195cc,deep,flow.Sequence,1_9_0,NA,NA,completion,5804.9,153469,153465.66,153482.78,159287.68,159289,2024-06-28T19:08:07Z,159304.28,Schüler,mwanafunzi,s,mwekezaji,matumizi,uaminifu,NA,NA,NA,NULL,NA,NA,NA,NA,NA,NA,NA,NA,NA,NA,NA,NA,NA,NA,NA,NA,NA,NA,NA
195cc,task,flow.Sequence,1_9,NA,NA,completion,5804.9,153469,153465.66,153482.78,159287.68,159289,2024-06-28T19:08:07Z,159304.28,Schüler,mwanafunzi,s,mwekezaji,matumizi,uaminifu,NA,NA,NA,NULL,NA,NA,NA,NA,NA,NA,NA,NA,NA,NA,NA,NA,NA,NA,NA,NA,NA,NA,NA
195cc,Deep Question,html.Page,1_10_0_0,NA,NA,form submission,24499.72,159290,159287.68,159304.28,183804,183804,2024-06-28T19:08:32Z,183807.82,Theorie,nadharia,d,ushungi,mkutano,uwakilishi,hadharia,NA,NA,NULL,NA,NA,NA,NA,NA,NA,NA,NA,NA,NA,NA,NA,NA,NA,NA,NA,NA,NA,NA
195cc,Save data screen,canvas.Screen,1_10_0_1,NA,NA,timeout,500.51999999999,183805,183800.54,183807.82,184291.24,184292,2024-06-28T19:08:32Z,184308.34,Theorie,nadharia,d,ushungi,mkutano,uwakilishi,NA,NA,0,NULL,NA,NA,NA,NA,NA,NA,NA,NA,NA,NA,NA,NA,NA,NA,NA,NA,NA,NA,NA
195cc,deep,flow.Sequence,1_10_0,NA,NA,completion,24986.96,159290,159287.68,159304.28,184291.24,184293,2024-06-28T19:08:32Z,184308.34,Theorie,nadharia,d,ushungi,mkutano,uwakilishi,NA,NA,NA,NULL,NA,NA,NA,NA,NA,NA,NA,NA,NA,NA,NA,NA,NA,NA,NA,NA,NA,NA,NA
195cc,task,flow.Sequence,1_10,NA,NA,completion,24986.96,159290,159287.68,159304.28,184291.24,184293,2024-06-28T19:08:32Z,184308.34,Theorie,nadharia,d,ushungi,mkutano,uwakilishi,NA,NA,NA,NULL,NA,NA,NA,NA,NA,NA,NA,NA,NA,NA,NA,NA,NA,NA,NA,NA,NA,NA,NA
195cc,Deep Question,html.Page,1_11_0_0,NA,NA,form submission,6716.66,184293,184291.24,184308.34,191025,191025,2024-06-28T19:08:39Z,191030.7,Notfall,dharura,s,rairai,malalamiko,ahueni,n,NA,NA,NULL,NA,NA,NA,NA,NA,NA,NA,NA,NA,NA,NA,NA,NA,NA,NA,NA,NA,NA,NA
195cc,Save data screen,canvas.Screen,1_11_0_1,NA,NA,timeout,500.13999999998,191027,191022.1,191030.7,191513.72,191516,2024-06-28T19:08:39Z,191530.84,Notfall,dharura,s,rairai,malalamiko,ahueni,NA,NA,0,NULL,NA,NA,NA,NA,NA,NA,NA,NA,NA,NA,NA,NA,NA,NA,NA,NA,NA,NA,NA
195cc,deep,flow.Sequence,1_11_0,NA,NA,completion,7205.38,184293,184291.24,184308.34,191513.72,191517,2024-06-28T19:08:39Z,191530.84,Notfall,dharura,s,rairai,malalamiko,ahueni,NA,NA,NA,NULL,NA,NA,NA,NA,NA,NA,NA,NA,NA,NA,NA,NA,NA,NA,NA,NA,NA,NA,NA
195cc,task,flow.Sequence,1_11,NA,NA,completion,7205.38,184293,184291.24,184308.34,191513.72,191517,2024-06-28T19:08:39Z,191530.84,Notfall,dharura,s,rairai,malalamiko,ahueni,NA,NA,NA,NULL,NA,NA,NA,NA,NA,NA,NA,NA,NA,NA,NA,NA,NA,NA,NA,NA,NA,NA,NA
195cc,Deep Question,html.Page,1_12_0_0,NA,NA,form submission,9822.16,191518,191513.72,191530.84,201353,201353,2024-06-28T19:08:49Z,201355.82,Schlange,foleni,d,uvumilivu,uteuzi,muuzaji,s,NA,NA,NULL,NA,NA,NA,NA,NA,NA,NA,NA,NA,NA,NA,NA,NA,NA,NA,NA,NA,NA,NA
195cc,Save data screen,canvas.Screen,1_12_0_1,NA,NA,timeout,500.35999999999,201354,201349.58,201355.82,201839.5,201843,2024-06-28T19:08:50Z,201856.18,Schlange,foleni,d,uvumilivu,uteuzi,muuzaji,NA,NA,0,NULL,NA,NA,NA,NA,NA,NA,NA,NA,NA,NA,NA,NA,NA,NA,NA,NA,NA,NA,NA
195cc,deep,flow.Sequence,1_12_0,NA,NA,completion,10308.66,191517,191513.72,191530.84,201839.5,201844,2024-06-28T19:08:50Z,201856.18,Schlange,foleni,d,uvumilivu,uteuzi,muuzaji,NA,NA,NA,NULL,NA,NA,NA,NA,NA,NA,NA,NA,NA,NA,NA,NA,NA,NA,NA,NA,NA,NA,NA
195cc,task,flow.Sequence,1_12,NA,NA,completion,10308.66,191517,191513.72,191530.84,201839.5,201845,2024-06-28T19:08:50Z,201856.18,Schlange,foleni,d,uvumilivu,uteuzi,muuzaji,NA,NA,NA,NULL,NA,NA,NA,NA,NA,NA,NA,NA,NA,NA,NA,NA,NA,NA,NA,NA,NA,NA,NA
195cc,Deep Question,html.Page,1_13_0_0,NA,NA,form submission,13004.82,201845,201839.5,201856.18,214861,214863,2024-06-28T19:09:03Z,214866.92,Vergnügen,kichekesho,s,dubwana,mpanuko,mtesaji,kilezo,NA,NA,NULL,NA,NA,NA,NA,NA,NA,NA,NA,NA,NA,NA,NA,NA,NA,NA,NA,NA,NA,NA
195cc,Save data screen,canvas.Screen,1_13_0_1,NA,NA,timeout,500.51999999999,214869,214856.4,214866.92,215350.68,215352,2024-06-28T19:09:03Z,215367.44,Vergnügen,kichekesho,s,dubwana,mpanuko,mtesaji,NA,NA,0,NULL,NA,NA,NA,NA,NA,NA,NA,NA,NA,NA,NA,NA,NA,NA,NA,NA,NA,NA,NA
195cc,deep,flow.Sequence,1_13_0,NA,NA,completion,13494.5,201845,201839.5,201856.18,215350.68,215353,2024-06-28T19:09:03Z,215367.44,Vergnügen,kichekesho,s,dubwana,mpanuko,mtesaji,NA,NA,NA,NULL,NA,NA,NA,NA,NA,NA,NA,NA,NA,NA,NA,NA,NA,NA,NA,NA,NA,NA,NA
195cc,task,flow.Sequence,1_13,NA,NA,completion,13494.5,201845,201839.5,201856.18,215350.68,215353,2024-06-28T19:09:03Z,215367.44,Vergnügen,kichekesho,s,dubwana,mpanuko,mtesaji,NA,NA,NA,NULL,NA,NA,NA,NA,NA,NA,NA,NA,NA,NA,NA,NA,NA,NA,NA,NA,NA,NA,NA
195cc,Deep Question,html.Page,1_14_0_0,NA,NA,form submission,3535.56,215354,215350.68,215367.44,218903,218904,2024-06-28T19:09:07Z,218903.6,Verpackung,ufungaji,s,uhusiano,upimaji,uchunguzi,v,NA,NA,NULL,NA,NA,NA,NA,NA,NA,NA,NA,NA,NA,NA,NA,NA,NA,NA,NA,NA,NA,NA
195cc,Save data screen,canvas.Screen,1_14_0_1,NA,NA,timeout,500.35999999999,218905,218900.02,218903.6,219387.48,219389,2024-06-28T19:09:07Z,219403.96,Verpackung,ufungaji,s,uhusiano,upimaji,uchunguzi,NA,NA,0,NULL,NA,NA,NA,NA,NA,NA,NA,NA,NA,NA,NA,NA,NA,NA,NA,NA,NA,NA,NA
195cc,deep,flow.Sequence,1_14_0,NA,NA,completion,4020.04,215353,215350.68,215367.44,219387.48,219390,2024-06-28T19:09:07Z,219403.96,Verpackung,ufungaji,s,uhusiano,upimaji,uchunguzi,NA,NA,NA,NULL,NA,NA,NA,NA,NA,NA,NA,NA,NA,NA,NA,NA,NA,NA,NA,NA,NA,NA,NA
195cc,task,flow.Sequence,1_14,NA,NA,completion,4020.04,215353,215350.68,215367.44,219387.48,219390,2024-06-28T19:09:07Z,219403.96,Verpackung,ufungaji,s,uhusiano,upimaji,uchunguzi,NA,NA,NA,NULL,NA,NA,NA,NA,NA,NA,NA,NA,NA,NA,NA,NA,NA,NA,NA,NA,NA,NA,NA
195cc,Deep Question,html.Page,1_15_0_0,NA,NA,form submission,5733.04,219390,219387.48,219403.96,225137,225137,2024-06-28T19:09:13Z,225142.12,Ergänzung,kijalizo,d,ulaghai,mustarehe,matangazo,e,NA,NA,NULL,NA,NA,NA,NA,NA,NA,NA,NA,NA,NA,NA,NA,NA,NA,NA,NA,NA,NA,NA
195cc,Save data screen,canvas.Screen,1_15_0_1,NA,NA,timeout,500.30000000002,225138,225133.3,225142.12,225625.3,225627,2024-06-28T19:09:14Z,225642.42,Ergänzung,kijalizo,d,ulaghai,mustarehe,matangazo,NA,NA,0,NULL,NA,NA,NA,NA,NA,NA,NA,NA,NA,NA,NA,NA,NA,NA,NA,NA,NA,NA,NA
195cc,deep,flow.Sequence,1_15_0,NA,NA,completion,6221.34,219390,219387.48,219403.96,225625.3,225627,2024-06-28T19:09:14Z,225642.42,Ergänzung,kijalizo,d,ulaghai,mustarehe,matangazo,NA,NA,NA,NULL,NA,NA,NA,NA,NA,NA,NA,NA,NA,NA,NA,NA,NA,NA,NA,NA,NA,NA,NA
195cc,task,flow.Sequence,1_15,NA,NA,completion,6221.34,219390,219387.48,219403.96,225625.3,225627,2024-06-28T19:09:14Z,225642.42,Ergänzung,kijalizo,d,ulaghai,mustarehe,matangazo,NA,NA,NA,NULL,NA,NA,NA,NA,NA,NA,NA,NA,NA,NA,NA,NA,NA,NA,NA,NA,NA,NA,NA
195cc,retrieval block 1 (cued recall),flow.Loop,1,NA,NA,completion,204418.92,21190,21190.54,21206.38,225625.3,225628,2024-06-28T19:09:14Z,225642.42,NA,NA,NA,NA,NA,NA,NA,NA,NA,NULL,NA,NA,NA,NA,NA,NA,NA,NA,NA,NA,NA,NA,NA,NA,NA,NA,NA,NA,NA
195cc,Shallow Question,html.Page,2_0_0_0,NA,NA,form submission,7299.58,225628,225625.3,225642.42,232942,232943,2024-06-28T19:09:21Z,232948.06,Vermutung,udhanifu,s,haramia,tikisho,itifaki,udhanifu,NA,NA,"c(""distractor1"", ""distractor2"", ""distractor3"")",NA,NA,NA,NA,NA,NA,NA,NA,NA,NA,NA,NA,NA,NA,NA,NA,NA,NA,NA
195cc,Save data screen,canvas.Screen,2_0_0_1,NA,NA,timeout,500.89999999999,232944,232939.82,232948.06,233432.32,233434,2024-06-28T19:09:21Z,233448.96,Vermutung,udhanifu,s,haramia,tikisho,itifaki,NA,NA,1,"c(""distractor1"", ""distractor2"", ""distractor3"")",NA,NA,NA,NA,NA,NA,NA,NA,NA,NA,NA,NA,NA,NA,NA,NA,NA,NA,NA
195cc,shallow,flow.Sequence,2_0_0,NA,NA,completion,7789.9,225628,225625.3,225642.42,233432.32,233434,2024-06-28T19:09:21Z,233448.96,Vermutung,udhanifu,s,haramia,tikisho,itifaki,NA,NA,NA,"c(""distractor1"", ""distractor2"", ""distractor3"")",NA,NA,NA,NA,NA,NA,NA,NA,NA,NA,NA,NA,NA,NA,NA,NA,NA,NA,NA
195cc,task,flow.Sequence,2_0,NA,NA,completion,7789.9,225628,225625.3,225642.42,233432.32,233434,2024-06-28T19:09:21Z,233448.96,Vermutung,udhanifu,s,haramia,tikisho,itifaki,NA,NA,NA,"c(""distractor1"", ""distractor2"", ""distractor3"")",NA,NA,NA,NA,NA,NA,NA,NA,NA,NA,NA,NA,NA,NA,NA,NA,NA,NA,NA
195cc,Shallow Question,html.Page,2_1_0_0,NA,NA,form submission,5456.04,233435,233432.32,233448.96,238905,238906,2024-06-28T19:09:27Z,238903.06,Wohlstand,mafanikio,d,chimbuko,kumbuko,mapwaji,kumbuko,NA,NA,"c(""distractor1"", ""distractor2"", ""distractor3"")",NA,NA,NA,NA,NA,NA,NA,NA,NA,NA,NA,NA,NA,NA,NA,NA,NA,NA,NA
195cc,Save data screen,canvas.Screen,2_1_0_1,NA,NA,timeout,500.94,238907,238902.14,238903.06,239387.24,239389,2024-06-28T19:09:27Z,239404,Wohlstand,mafanikio,d,chimbuko,kumbuko,mapwaji,NA,NA,0,"c(""distractor1"", ""distractor2"", ""distractor3"")",NA,NA,NA,NA,NA,NA,NA,NA,NA,NA,NA,NA,NA,NA,NA,NA,NA,NA,NA
195cc,shallow,flow.Sequence,2_1_0,NA,NA,completion,5938.28,233434,233432.32,233448.96,239387.24,239389,2024-06-28T19:09:27Z,239404,Wohlstand,mafanikio,d,chimbuko,kumbuko,mapwaji,NA,NA,NA,"c(""distractor1"", ""distractor2"", ""distractor3"")",NA,NA,NA,NA,NA,NA,NA,NA,NA,NA,NA,NA,NA,NA,NA,NA,NA,NA,NA
195cc,task,flow.Sequence,2_1,NA,NA,completion,5938.28,233434,233432.32,233448.96,239387.24,239389,2024-06-28T19:09:27Z,239404,Wohlstand,mafanikio,d,chimbuko,kumbuko,mapwaji,NA,NA,NA,"c(""distractor1"", ""distractor2"", ""distractor3"")",NA,NA,NA,NA,NA,NA,NA,NA,NA,NA,NA,NA,NA,NA,NA,NA,NA,NA,NA
195cc,Shallow Question,html.Page,2_2_0_0,NA,NA,form submission,7525,239389,239387.24,239404,246929,246929,2024-06-28T19:09:35Z,246926.74,Hoffnung,matarajio,s,kutaalamika,uratibu,mvumbuzi,kutaalamika,NA,NA,"c(""distractor1"", ""distractor2"", ""distractor3"")",NA,NA,NA,NA,NA,NA,NA,NA,NA,NA,NA,NA,NA,NA,NA,NA,NA,NA,NA
195cc,Save data screen,canvas.Screen,2_2_0_1,NA,NA,timeout,500.48000000001,246931,246926.4,246926.74,247410.46,247412,2024-06-28T19:09:35Z,247427.22,Hoffnung,matarajio,s,kutaalamika,uratibu,mvumbuzi,NA,NA,0,"c(""distractor1"", ""distractor2"", ""distractor3"")",NA,NA,NA,NA,NA,NA,NA,NA,NA,NA,NA,NA,NA,NA,NA,NA,NA,NA,NA
195cc,shallow,flow.Sequence,2_2_0,NA,NA,completion,8006.46,239389,239387.24,239404,247410.46,247412,2024-06-28T19:09:35Z,247427.22,Hoffnung,matarajio,s,kutaalamika,uratibu,mvumbuzi,NA,NA,NA,"c(""distractor1"", ""distractor2"", ""distractor3"")",NA,NA,NA,NA,NA,NA,NA,NA,NA,NA,NA,NA,NA,NA,NA,NA,NA,NA,NA
195cc,task,flow.Sequence,2_2,NA,NA,completion,8006.46,239389,239387.24,239404,247410.46,247412,2024-06-28T19:09:35Z,247427.22,Hoffnung,matarajio,s,kutaalamika,uratibu,mvumbuzi,NA,NA,NA,"c(""distractor1"", ""distractor2"", ""distractor3"")",NA,NA,NA,NA,NA,NA,NA,NA,NA,NA,NA,NA,NA,NA,NA,NA,NA,NA,NA
195cc,Shallow Question,html.Page,2_3_0_0,NA,NA,form submission,4151.78,247413,247410.46,247427.22,251579,251579,2024-06-28T19:09:39Z,251580.68,Fenster,dirisha,d,walakini,tasawari,maarifa,dirisha,NA,NA,"c(""distractor1"", ""distractor2"", ""distractor3"")",NA,NA,NA,NA,NA,NA,NA,NA,NA,NA,NA,NA,NA,NA,NA,NA,NA,NA,NA
195cc,Save data screen,canvas.Screen,2_3_0_1,NA,NA,timeout,500.32000000001,251581,251576.28,251580.68,252064.28,252065,2024-06-28T19:09:40Z,252081,Fenster,dirisha,d,walakini,tasawari,maarifa,NA,NA,1,"c(""distractor1"", ""distractor2"", ""distractor3"")",NA,NA,NA,NA,NA,NA,NA,NA,NA,NA,NA,NA,NA,NA,NA,NA,NA,NA,NA
195cc,shallow,flow.Sequence,2_3_0,NA,NA,completion,4637.06,247413,247410.46,247427.22,252064.28,252066,2024-06-28T19:09:40Z,252081,Fenster,dirisha,d,walakini,tasawari,maarifa,NA,NA,NA,"c(""distractor1"", ""distractor2"", ""distractor3"")",NA,NA,NA,NA,NA,NA,NA,NA,NA,NA,NA,NA,NA,NA,NA,NA,NA,NA,NA
195cc,task,flow.Sequence,2_3,NA,NA,completion,4637.06,247413,247410.46,247427.22,252064.28,252066,2024-06-28T19:09:40Z,252081,Fenster,dirisha,d,walakini,tasawari,maarifa,NA,NA,NA,"c(""distractor1"", ""distractor2"", ""distractor3"")",NA,NA,NA,NA,NA,NA,NA,NA,NA,NA,NA,NA,NA,NA,NA,NA,NA,NA,NA
195cc,Shallow Question,html.Page,2_4_0_0,NA,NA,form submission,4403,252066,252064.28,252081,256484,256484,2024-06-28T19:09:44Z,256484.74,Schüler,mwanafunzi,s,mwekezaji,matumizi,uaminifu,mwanafunzi,NA,NA,"c(""distractor1"", ""distractor2"", ""distractor3"")",NA,NA,NA,NA,NA,NA,NA,NA,NA,NA,NA,NA,NA,NA,NA,NA,NA,NA,NA
195cc,Save data screen,canvas.Screen,2_4_0_1,NA,NA,timeout,500.44,256485,256481.62,256484.74,256968.32,256970,2024-06-28T19:09:45Z,256985.18,Schüler,mwanafunzi,s,mwekezaji,matumizi,uaminifu,NA,NA,1,"c(""distractor1"", ""distractor2"", ""distractor3"")",NA,NA,NA,NA,NA,NA,NA,NA,NA,NA,NA,NA,NA,NA,NA,NA,NA,NA,NA
195cc,shallow,flow.Sequence,2_4_0,NA,NA,completion,4887.32,252066,252064.28,252081,256968.32,256970,2024-06-28T19:09:45Z,256985.18,Schüler,mwanafunzi,s,mwekezaji,matumizi,uaminifu,NA,NA,NA,"c(""distractor1"", ""distractor2"", ""distractor3"")",NA,NA,NA,NA,NA,NA,NA,NA,NA,NA,NA,NA,NA,NA,NA,NA,NA,NA,NA
195cc,task,flow.Sequence,2_4,NA,NA,completion,4887.32,252066,252064.28,252081,256968.32,256970,2024-06-28T19:09:45Z,256985.18,Schüler,mwanafunzi,s,mwekezaji,matumizi,uaminifu,NA,NA,NA,"c(""distractor1"", ""distractor2"", ""distractor3"")",NA,NA,NA,NA,NA,NA,NA,NA,NA,NA,NA,NA,NA,NA,NA,NA,NA,NA,NA
195cc,Shallow Question,html.Page,2_5_0_0,NA,NA,form submission,4291.82,256970,256968.32,256985.18,261277,261277,2024-06-28T19:09:49Z,261288.58,Ergänzung,kijalizo,d,ulaghai,mustarehe,matangazo,kijalizo,NA,NA,"c(""distractor1"", ""distractor2"", ""distractor3"")",NA,NA,NA,NA,NA,NA,NA,NA,NA,NA,NA,NA,NA,NA,NA,NA,NA,NA,NA
195cc,Save data screen,canvas.Screen,2_5_0_1,NA,NA,timeout,500.64000000001,261278,261274.54,261288.58,261772.32,261775,2024-06-28T19:09:50Z,261789.22,Ergänzung,kijalizo,d,ulaghai,mustarehe,matangazo,NA,NA,1,"c(""distractor1"", ""distractor2"", ""distractor3"")",NA,NA,NA,NA,NA,NA,NA,NA,NA,NA,NA,NA,NA,NA,NA,NA,NA,NA,NA
195cc,shallow,flow.Sequence,2_5_0,NA,NA,completion,4787.14,256970,256968.32,256985.18,261772.32,261776,2024-06-28T19:09:50Z,261789.22,Ergänzung,kijalizo,d,ulaghai,mustarehe,matangazo,NA,NA,NA,"c(""distractor1"", ""distractor2"", ""distractor3"")",NA,NA,NA,NA,NA,NA,NA,NA,NA,NA,NA,NA,NA,NA,NA,NA,NA,NA,NA
195cc,task,flow.Sequence,2_5,NA,NA,completion,4787.14,256970,256968.32,256985.18,261772.32,261777,2024-06-28T19:09:50Z,261789.22,Ergänzung,kijalizo,d,ulaghai,mustarehe,matangazo,NA,NA,NA,"c(""distractor1"", ""distractor2"", ""distractor3"")",NA,NA,NA,NA,NA,NA,NA,NA,NA,NA,NA,NA,NA,NA,NA,NA,NA,NA,NA
195cc,Shallow Question,html.Page,2_6_0_0,NA,NA,form submission,10959.78,261777,261772.32,261789.22,272749,272751,2024-06-28T19:10:01Z,272747.78,Notfall,dharura,s,rairai,malalamiko,ahueni,malalamiko,NA,NA,"c(""distractor1"", ""distractor2"", ""distractor3"")",NA,NA,NA,NA,NA,NA,NA,NA,NA,NA,NA,NA,NA,NA,NA,NA,NA,NA,NA
195cc,Save data screen,canvas.Screen,2_6_0_1,NA,NA,timeout,500.91999999998,272756,272743.9,272747.78,273231.8,273234,2024-06-28T19:10:01Z,273248.7,Notfall,dharura,s,rairai,malalamiko,ahueni,NA,NA,0,"c(""distractor1"", ""distractor2"", ""distractor3"")",NA,NA,NA,NA,NA,NA,NA,NA,NA,NA,NA,NA,NA,NA,NA,NA,NA,NA,NA
195cc,shallow,flow.Sequence,2_6_0,NA,NA,completion,11442.58,261777,261772.32,261789.22,273231.8,273235,2024-06-28T19:10:01Z,273248.7,Notfall,dharura,s,rairai,malalamiko,ahueni,NA,NA,NA,"c(""distractor1"", ""distractor2"", ""distractor3"")",NA,NA,NA,NA,NA,NA,NA,NA,NA,NA,NA,NA,NA,NA,NA,NA,NA,NA,NA
195cc,task,flow.Sequence,2_6,NA,NA,completion,11442.58,261777,261772.32,261789.22,273231.8,273235,2024-06-28T19:10:01Z,273248.7,Notfall,dharura,s,rairai,malalamiko,ahueni,NA,NA,NA,"c(""distractor1"", ""distractor2"", ""distractor3"")",NA,NA,NA,NA,NA,NA,NA,NA,NA,NA,NA,NA,NA,NA,NA,NA,NA,NA,NA
195cc,Shallow Question,html.Page,2_7_0_0,NA,NA,form submission,3077.3,273235,273231.8,273248.7,276326,276326,2024-06-28T19:10:04Z,276334.46,Theorie,nadharia,d,ushungi,mkutano,uwakilishi,nadharia,NA,NA,"c(""distractor1"", ""distractor2"", ""distractor3"")",NA,NA,NA,NA,NA,NA,NA,NA,NA,NA,NA,NA,NA,NA,NA,NA,NA,NA,NA
195cc,Save data screen,canvas.Screen,2_7_0_1,NA,NA,timeout,500.56,276328,276322.2,276334.46,276818.34,276820,2024-06-28T19:10:05Z,276835.02,Theorie,nadharia,d,ushungi,mkutano,uwakilishi,NA,NA,1,"c(""distractor1"", ""distractor2"", ""distractor3"")",NA,NA,NA,NA,NA,NA,NA,NA,NA,NA,NA,NA,NA,NA,NA,NA,NA,NA,NA
195cc,shallow,flow.Sequence,2_7_0,NA,NA,completion,3569.64,273235,273231.8,273248.7,276818.34,276820,2024-06-28T19:10:05Z,276835.02,Theorie,nadharia,d,ushungi,mkutano,uwakilishi,NA,NA,NA,"c(""distractor1"", ""distractor2"", ""distractor3"")",NA,NA,NA,NA,NA,NA,NA,NA,NA,NA,NA,NA,NA,NA,NA,NA,NA,NA,NA
195cc,task,flow.Sequence,2_7,NA,NA,completion,3569.64,273235,273231.8,273248.7,276818.34,276821,2024-06-28T19:10:05Z,276835.02,Theorie,nadharia,d,ushungi,mkutano,uwakilishi,NA,NA,NA,"c(""distractor1"", ""distractor2"", ""distractor3"")",NA,NA,NA,NA,NA,NA,NA,NA,NA,NA,NA,NA,NA,NA,NA,NA,NA,NA,NA
195cc,Shallow Question,html.Page,2_8_0_0,NA,NA,form submission,13836.98,276821,276818.34,276835.02,290672,290672,2024-06-28T19:10:19Z,290679.74,Verpackung,ufungaji,s,uhusiano,upimaji,uchunguzi,upimaji,NA,NA,"c(""distractor1"", ""distractor2"", ""distractor3"")",NA,NA,NA,NA,NA,NA,NA,NA,NA,NA,NA,NA,NA,NA,NA,NA,NA,NA,NA
195cc,Save data screen,canvas.Screen,2_8_0_1,NA,NA,timeout,500.52000000002,290674,290668.4,290679.74,291163.44,291165,2024-06-28T19:10:19Z,291180.26,Verpackung,ufungaji,s,uhusiano,upimaji,uchunguzi,NA,NA,0,"c(""distractor1"", ""distractor2"", ""distractor3"")",NA,NA,NA,NA,NA,NA,NA,NA,NA,NA,NA,NA,NA,NA,NA,NA,NA,NA,NA
195cc,shallow,flow.Sequence,2_8_0,NA,NA,completion,14328.42,276821,276818.34,276835.02,291163.44,291166,2024-06-28T19:10:19Z,291180.26,Verpackung,ufungaji,s,uhusiano,upimaji,uchunguzi,NA,NA,NA,"c(""distractor1"", ""distractor2"", ""distractor3"")",NA,NA,NA,NA,NA,NA,NA,NA,NA,NA,NA,NA,NA,NA,NA,NA,NA,NA,NA
195cc,task,flow.Sequence,2_8,NA,NA,completion,14328.42,276821,276818.34,276835.02,291163.44,291166,2024-06-28T19:10:19Z,291180.26,Verpackung,ufungaji,s,uhusiano,upimaji,uchunguzi,NA,NA,NA,"c(""distractor1"", ""distractor2"", ""distractor3"")",NA,NA,NA,NA,NA,NA,NA,NA,NA,NA,NA,NA,NA,NA,NA,NA,NA,NA,NA
195cc,Shallow Question,html.Page,2_9_0_0,NA,NA,form submission,2791.74,291166,291163.44,291180.26,293972,293973,2024-06-28T19:10:22Z,293982.4,Spionage,upelelezi,d,maslahi,utokazo,magangao,upelelezi,NA,NA,"c(""distractor1"", ""distractor2"", ""distractor3"")",NA,NA,NA,NA,NA,NA,NA,NA,NA,NA,NA,NA,NA,NA,NA,NA,NA,NA,NA
195cc,Save data screen,canvas.Screen,2_9_0_1,NA,NA,timeout,500.41999999998,293974,293969.8,293982.4,294466.24,294468,2024-06-28T19:10:22Z,294482.82,Spionage,upelelezi,d,maslahi,utokazo,magangao,NA,NA,1,"c(""distractor1"", ""distractor2"", ""distractor3"")",NA,NA,NA,NA,NA,NA,NA,NA,NA,NA,NA,NA,NA,NA,NA,NA,NA,NA,NA
195cc,shallow,flow.Sequence,2_9_0,NA,NA,completion,3285.98,291166,291163.44,291180.26,294466.24,294469,2024-06-28T19:10:22Z,294482.82,Spionage,upelelezi,d,maslahi,utokazo,magangao,NA,NA,NA,"c(""distractor1"", ""distractor2"", ""distractor3"")",NA,NA,NA,NA,NA,NA,NA,NA,NA,NA,NA,NA,NA,NA,NA,NA,NA,NA,NA
195cc,task,flow.Sequence,2_9,NA,NA,completion,3285.98,291166,291163.44,291180.26,294466.24,294469,2024-06-28T19:10:22Z,294482.82,Spionage,upelelezi,d,maslahi,utokazo,magangao,NA,NA,NA,"c(""distractor1"", ""distractor2"", ""distractor3"")",NA,NA,NA,NA,NA,NA,NA,NA,NA,NA,NA,NA,NA,NA,NA,NA,NA,NA,NA
195cc,Shallow Question,html.Page,2_10_0_0,NA,NA,form submission,3620.18,294469,294466.24,294482.82,298103,298104,2024-06-28T19:10:26Z,298102.46,Vergnügen,kichekesho,s,dubwana,mpanuko,mtesaji,kichekesho,NA,NA,"c(""distractor1"", ""distractor2"", ""distractor3"")",NA,NA,NA,NA,NA,NA,NA,NA,NA,NA,NA,NA,NA,NA,NA,NA,NA,NA,NA
195cc,Save data screen,canvas.Screen,2_10_0_1,NA,NA,timeout,500.32000000001,298105,298100.14,298102.46,298585.66,298587,2024-06-28T19:10:26Z,298602.78,Vergnügen,kichekesho,s,dubwana,mpanuko,mtesaji,NA,NA,1,"c(""distractor1"", ""distractor2"", ""distractor3"")",NA,NA,NA,NA,NA,NA,NA,NA,NA,NA,NA,NA,NA,NA,NA,NA,NA,NA,NA
195cc,shallow,flow.Sequence,2_10_0,NA,NA,completion,4102.84,294469,294466.24,294482.82,298585.66,298587,2024-06-28T19:10:26Z,298602.78,Vergnügen,kichekesho,s,dubwana,mpanuko,mtesaji,NA,NA,NA,"c(""distractor1"", ""distractor2"", ""distractor3"")",NA,NA,NA,NA,NA,NA,NA,NA,NA,NA,NA,NA,NA,NA,NA,NA,NA,NA,NA
195cc,task,flow.Sequence,2_10,NA,NA,completion,4102.84,294469,294466.24,294482.82,298585.66,298587,2024-06-28T19:10:26Z,298602.78,Vergnügen,kichekesho,s,dubwana,mpanuko,mtesaji,NA,NA,NA,"c(""distractor1"", ""distractor2"", ""distractor3"")",NA,NA,NA,NA,NA,NA,NA,NA,NA,NA,NA,NA,NA,NA,NA,NA,NA,NA,NA
195cc,Shallow Question,html.Page,2_11_0_0,NA,NA,form submission,9124.22,298588,298585.66,298602.78,307727,307728,2024-06-28T19:10:36Z,307726.74,Toleranz,kuvumiliana,d,maombolezo,ujasusi,mchekeshaji,ujasusi,NA,NA,"c(""distractor1"", ""distractor2"", ""distractor3"")",NA,NA,NA,NA,NA,NA,NA,NA,NA,NA,NA,NA,NA,NA,NA,NA,NA,NA,NA
195cc,Save data screen,canvas.Screen,2_11_0_1,NA,NA,timeout,500.66000000003,307729,307723.42,307726.74,308210.28,308212,2024-06-28T19:10:36Z,308227.4,Toleranz,kuvumiliana,d,maombolezo,ujasusi,mchekeshaji,NA,NA,0,"c(""distractor1"", ""distractor2"", ""distractor3"")",NA,NA,NA,NA,NA,NA,NA,NA,NA,NA,NA,NA,NA,NA,NA,NA,NA,NA,NA
195cc,shallow,flow.Sequence,2_11_0,NA,NA,completion,9607.5,298588,298585.66,298602.78,308210.28,308213,2024-06-28T19:10:36Z,308227.4,Toleranz,kuvumiliana,d,maombolezo,ujasusi,mchekeshaji,NA,NA,NA,"c(""distractor1"", ""distractor2"", ""distractor3"")",NA,NA,NA,NA,NA,NA,NA,NA,NA,NA,NA,NA,NA,NA,NA,NA,NA,NA,NA
195cc,task,flow.Sequence,2_11,NA,NA,completion,9607.5,298587,298585.66,298602.78,308210.28,308213,2024-06-28T19:10:36Z,308227.4,Toleranz,kuvumiliana,d,maombolezo,ujasusi,mchekeshaji,NA,NA,NA,"c(""distractor1"", ""distractor2"", ""distractor3"")",NA,NA,NA,NA,NA,NA,NA,NA,NA,NA,NA,NA,NA,NA,NA,NA,NA,NA,NA
195cc,Shallow Question,html.Page,2_12_0_0,NA,NA,form submission,2432.6,308213,308210.28,308227.4,310660,310660,2024-06-28T19:10:39Z,310662.86,Schlange,foleni,d,uvumilivu,uteuzi,muuzaji,foleni,NA,NA,"c(""distractor1"", ""distractor2"", ""distractor3"")",NA,NA,NA,NA,NA,NA,NA,NA,NA,NA,NA,NA,NA,NA,NA,NA,NA,NA,NA
195cc,Save data screen,canvas.Screen,2_12_0_1,NA,NA,timeout,500.40000000002,310661,310656.64,310662.86,311146.94,311148,2024-06-28T19:10:39Z,311163.26,Schlange,foleni,d,uvumilivu,uteuzi,muuzaji,NA,NA,1,"c(""distractor1"", ""distractor2"", ""distractor3"")",NA,NA,NA,NA,NA,NA,NA,NA,NA,NA,NA,NA,NA,NA,NA,NA,NA,NA,NA
195cc,shallow,flow.Sequence,2_12_0,NA,NA,completion,2919.54,308213,308210.28,308227.4,311146.94,311149,2024-06-28T19:10:39Z,311163.26,Schlange,foleni,d,uvumilivu,uteuzi,muuzaji,NA,NA,NA,"c(""distractor1"", ""distractor2"", ""distractor3"")",NA,NA,NA,NA,NA,NA,NA,NA,NA,NA,NA,NA,NA,NA,NA,NA,NA,NA,NA
195cc,task,flow.Sequence,2_12,NA,NA,completion,2919.54,308213,308210.28,308227.4,311146.94,311149,2024-06-28T19:10:39Z,311163.26,Schlange,foleni,d,uvumilivu,uteuzi,muuzaji,NA,NA,NA,"c(""distractor1"", ""distractor2"", ""distractor3"")",NA,NA,NA,NA,NA,NA,NA,NA,NA,NA,NA,NA,NA,NA,NA,NA,NA,NA,NA
195cc,Shallow Question,html.Page,2_13_0_0,NA,NA,form submission,6959.74,311149,311146.94,311163.26,318123,318123,2024-06-28T19:10:46Z,318135.62,Inhalt,yaliyomo,s,kishawishi,hifadhi,kutembea,kishawishi,NA,NA,"c(""distractor1"", ""distractor2"", ""distractor3"")",NA,NA,NA,NA,NA,NA,NA,NA,NA,NA,NA,NA,NA,NA,NA,NA,NA,NA,NA
195cc,Save data screen,canvas.Screen,2_13_0_1,NA,NA,timeout,500.58000000002,318124,318119.66,318135.62,318619.64,318621,2024-06-28T19:10:47Z,318636.2,Inhalt,yaliyomo,s,kishawishi,hifadhi,kutembea,NA,NA,0,"c(""distractor1"", ""distractor2"", ""distractor3"")",NA,NA,NA,NA,NA,NA,NA,NA,NA,NA,NA,NA,NA,NA,NA,NA,NA,NA,NA
195cc,shallow,flow.Sequence,2_13_0,NA,NA,completion,7456.38,311149,311146.94,311163.26,318619.64,318621,2024-06-28T19:10:47Z,318636.2,Inhalt,yaliyomo,s,kishawishi,hifadhi,kutembea,NA,NA,NA,"c(""distractor1"", ""distractor2"", ""distractor3"")",NA,NA,NA,NA,NA,NA,NA,NA,NA,NA,NA,NA,NA,NA,NA,NA,NA,NA,NA
195cc,task,flow.Sequence,2_13,NA,NA,completion,7456.38,311149,311146.94,311163.26,318619.64,318622,2024-06-28T19:10:47Z,318636.2,Inhalt,yaliyomo,s,kishawishi,hifadhi,kutembea,NA,NA,NA,"c(""distractor1"", ""distractor2"", ""distractor3"")",NA,NA,NA,NA,NA,NA,NA,NA,NA,NA,NA,NA,NA,NA,NA,NA,NA,NA,NA
195cc,Shallow Question,html.Page,2_14_0_0,NA,NA,form submission,3250.8,318622,318619.64,318636.2,321887,321887,2024-06-28T19:10:50Z,321888.76,Tester,wanaojaribu,s,sherti,sihiri,mlipuko,wanaojaribu,NA,NA,"c(""distractor1"", ""distractor2"", ""distractor3"")",NA,NA,NA,NA,NA,NA,NA,NA,NA,NA,NA,NA,NA,NA,NA,NA,NA,NA,NA
195cc,Save data screen,canvas.Screen,2_14_0_1,NA,NA,timeout,500.59999999998,321888,321883.76,321888.76,322372.56,322376,2024-06-28T19:10:50Z,322389.36,Tester,wanaojaribu,s,sherti,sihiri,mlipuko,NA,NA,1,"c(""distractor1"", ""distractor2"", ""distractor3"")",NA,NA,NA,NA,NA,NA,NA,NA,NA,NA,NA,NA,NA,NA,NA,NA,NA,NA,NA
195cc,shallow,flow.Sequence,2_14_0,NA,NA,completion,3736.36,318622,318619.64,318636.2,322372.56,322377,2024-06-28T19:10:50Z,322389.36,Tester,wanaojaribu,s,sherti,sihiri,mlipuko,NA,NA,NA,"c(""distractor1"", ""distractor2"", ""distractor3"")",NA,NA,NA,NA,NA,NA,NA,NA,NA,NA,NA,NA,NA,NA,NA,NA,NA,NA,NA
195cc,task,flow.Sequence,2_14,NA,NA,completion,3736.36,318622,318619.64,318636.2,322372.56,322377,2024-06-28T19:10:50Z,322389.36,Tester,wanaojaribu,s,sherti,sihiri,mlipuko,NA,NA,NA,"c(""distractor1"", ""distractor2"", ""distractor3"")",NA,NA,NA,NA,NA,NA,NA,NA,NA,NA,NA,NA,NA,NA,NA,NA,NA,NA,NA
195cc,Shallow Question,html.Page,2_15_0_0,NA,NA,form submission,2933.64,322378,322372.56,322389.36,325323,325324,2024-06-28T19:10:53Z,325341.56,Schock,mshtuko,d,biashara,kukataza,vichekesho,mshtuko,NA,NA,"c(""distractor1"", ""distractor2"", ""distractor3"")",NA,NA,NA,NA,NA,NA,NA,NA,NA,NA,NA,NA,NA,NA,NA,NA,NA,NA,NA
195cc,Save data screen,canvas.Screen,2_15_0_1,NA,NA,timeout,500.41999999998,325329,325324.98,325341.56,325826,325828,2024-06-28T19:10:54Z,325841.98,Schock,mshtuko,d,biashara,kukataza,vichekesho,NA,NA,1,"c(""distractor1"", ""distractor2"", ""distractor3"")",NA,NA,NA,NA,NA,NA,NA,NA,NA,NA,NA,NA,NA,NA,NA,NA,NA,NA,NA
195cc,shallow,flow.Sequence,2_15_0,NA,NA,completion,3436.64,322378,322372.56,322389.36,325826,325828,2024-06-28T19:10:54Z,325841.98,Schock,mshtuko,d,biashara,kukataza,vichekesho,NA,NA,NA,"c(""distractor1"", ""distractor2"", ""distractor3"")",NA,NA,NA,NA,NA,NA,NA,NA,NA,NA,NA,NA,NA,NA,NA,NA,NA,NA,NA
195cc,task,flow.Sequence,2_15,NA,NA,completion,3436.64,322378,322372.56,322389.36,325826,325828,2024-06-28T19:10:54Z,325841.98,Schock,mshtuko,d,biashara,kukataza,vichekesho,NA,NA,NA,"c(""distractor1"", ""distractor2"", ""distractor3"")",NA,NA,NA,NA,NA,NA,NA,NA,NA,NA,NA,NA,NA,NA,NA,NA,NA,NA,NA
195cc,retrieval block 2 (multiple choice),flow.Loop,2,NA,NA,completion,100183.58,225628,225625.3,225642.42,325826,325828,2024-06-28T19:10:54Z,325841.98,NA,NA,NA,NA,NA,NA,NA,NA,NA,"c(""distractor1"", ""distractor2"", ""distractor3"")",NA,NA,NA,NA,NA,NA,NA,NA,NA,NA,NA,NA,NA,NA,NA,NA,NA,NA,NA
195cc,End,canvas.Screen,3,NA,keypress(Space),response,1372.02,325828,325826,325841.98,327214,327227,2024-06-28T19:10:55Z,327227.78,NA,NA,NA,NA,NA,NA,NA,NA,NA,NULL,NA,NA,NA,NA,NA,NA,NA,NA,NA,NA,NA,NA,NA,NA,NA,NA,NA,NA,NA
195cc,root,flow.Sequence,NA,NA,NA,completion,325506.68,1688,1690.6,1707.32,327214,327227,2024-06-28T19:10:55Z,327227.78,NA,NA,NA,NA,NA,NA,NA,NA,NA,NULL,NA,NA,NA,NA,NA,NA,NA,NA,NA,NA,NA,NA,NA,NA,NA,NA,NA,NA,NA
