observation,sender,sender_type,sender_id,response,response_action,ended_on,duration,time_run,time_render,time_show,time_end,time_commit,timestamp,time_switch,distractors,german,swahili,enc,distractor1,distractor2,distractor3,response_2,x,correct,x_2,url_vp,url_sess,meta_labjs_version,meta_location,meta_user_agent,meta_platform,meta_language,meta_locale,meta_time_zone,meta_timezone_offset,meta_screen_width,meta_screen_height,meta_scroll_width,meta_scroll_height,meta_window_inner_width,meta_window_inner_height,meta_device_pixel_ratio,meta_labjs_build_flavor,meta_labjs_build_commit
e15de,Introduction general,canvas.Screen,0,weiter,keypress(q),response,75861.36,458,454.04,470.64,76332,76348,2023-09-08T11:56:02Z,76350.56,NULL,NA,NA,NA,NA,NA,NA,NA,NA,NA,NA,180,1,20.2.4,https://neurocog.fernuni.ch/studies/vweber/sliechti/encoding_immediate/index.html?vp=180&sess=1,Mozilla/5.0 (Windows NT 10.0; Win64; x64; rv:109.0) Gecko/20100101 Firefox/117.0,Win32,de,de-CH,Europe/Zurich,-120,1280,720,1280,587,1280,587,1.5,production,f5b4a49f956347addd546a832a3327688c2c0fef
e15de,Introduction practice,canvas.Screen,1_0,NA,keypress(Space),response,8403.44,76350,76350.08,76350.56,84754,84771,2023-09-08T11:56:10Z,84776.36,NULL,NA,NA,NA,NA,NA,NA,NA,NA,NA,NA,NA,NA,NA,NA,NA,NA,NA,NA,NA,NA,NA,NA,NA,NA,NA,NA,NA,NA,NA
e15de,deep,flow.Sequence,1_1_0_0,NA,NA,skipped,NA,84772,NA,NA,84754,84773,2023-09-08T11:56:10Z,84776.36,"c(""distractor1"", ""distractor2"", ""distractor3"")",Gegenwart,hadhara,s,katiba,jokofu,mikopo,NA,NA,NA,NA,NA,NA,NA,NA,NA,NA,NA,NA,NA,NA,NA,NA,NA,NA,NA,NA,NA,NA,NA
e15de,Shallow Question,html.Page,1_1_0_1_0,NA,NA,form submission,6259.64,84773,84773.18,84776.36,91036,91036,2023-09-08T11:56:17Z,91042.22,"c(""distractor1"", ""distractor2"", ""distractor3"")",Gegenwart,hadhara,s,katiba,jokofu,mikopo,hadhara,NA,NA,NA,NA,NA,NA,NA,NA,NA,NA,NA,NA,NA,NA,NA,NA,NA,NA,NA,NA,NA,NA
e15de,"""Richtig""-Screen",canvas.Screen,1_1_0_1_1,NA,NA,timeout,4999.42,91041,91009.18,91042.22,96025.38,96026,2023-09-08T11:56:21Z,96041.64,"c(""distractor1"", ""distractor2"", ""distractor3"")",Gegenwart,hadhara,s,katiba,jokofu,mikopo,NA,NA,1,NA,NA,NA,NA,NA,NA,NA,NA,NA,NA,NA,NA,NA,NA,NA,NA,NA,NA,NA,NA
e15de,"""Falsch""-Screen",canvas.Screen,1_1_0_1_2,NA,NA,skipped,NA,96032,NA,NA,96025.38,96032,2023-09-08T11:56:22Z,96041.64,"c(""distractor1"", ""distractor2"", ""distractor3"")",Gegenwart,hadhara,s,katiba,jokofu,mikopo,NA,NA,NA,NA,NA,NA,NA,NA,NA,NA,NA,NA,NA,NA,NA,NA,NA,NA,NA,NA,NA,NA,NA
e15de,shallow,flow.Sequence,1_1_0_1,NA,NA,completion,11249.02,84773,84773.18,84776.36,96025.38,96033,2023-09-08T11:56:22Z,96041.64,"c(""distractor1"", ""distractor2"", ""distractor3"")",Gegenwart,hadhara,s,katiba,jokofu,mikopo,NA,NA,NA,NA,NA,NA,NA,NA,NA,NA,NA,NA,NA,NA,NA,NA,NA,NA,NA,NA,NA,NA,NA
e15de,task,flow.Sequence,1_1_0,NA,NA,completion,11249.02,84772,84773.18,84776.36,96025.38,96034,2023-09-08T11:56:22Z,96041.64,"c(""distractor1"", ""distractor2"", ""distractor3"")",Gegenwart,hadhara,s,katiba,jokofu,mikopo,NA,NA,NA,NA,NA,NA,NA,NA,NA,NA,NA,NA,NA,NA,NA,NA,NA,NA,NA,NA,NA,NA,NA
e15de,deep,flow.Sequence,1_1_1_0,NA,NA,skipped,NA,96034,NA,NA,96025.38,96034,2023-09-08T11:56:22Z,96041.64,"c(""distractor1"", ""distractor2"", ""distractor3"")",Kritik,lawama,s,dereva,nafasi,mawazo,NA,NA,NA,NA,NA,NA,NA,NA,NA,NA,NA,NA,NA,NA,NA,NA,NA,NA,NA,NA,NA,NA,NA
e15de,Shallow Question,html.Page,1_1_1_1_0,NA,NA,form submission,6526.36,96034,96025.38,96041.64,102568,102569,2023-09-08T11:56:28Z,102574.12,"c(""distractor1"", ""distractor2"", ""distractor3"")",Kritik,lawama,s,dereva,nafasi,mawazo,lawama,NA,NA,NA,NA,NA,NA,NA,NA,NA,NA,NA,NA,NA,NA,NA,NA,NA,NA,NA,NA,NA,NA
e15de,"""Richtig""-Screen",canvas.Screen,1_1_1_1_1,NA,NA,timeout,4999.28,102575,102561.52,102574.12,107557.06,107558,2023-09-08T11:56:33Z,107573.4,"c(""distractor1"", ""distractor2"", ""distractor3"")",Kritik,lawama,s,dereva,nafasi,mawazo,NA,NA,1,NA,NA,NA,NA,NA,NA,NA,NA,NA,NA,NA,NA,NA,NA,NA,NA,NA,NA,NA,NA
e15de,"""Falsch""-Screen",canvas.Screen,1_1_1_1_2,NA,NA,skipped,NA,107565,NA,NA,107557.06,107565,2023-09-08T11:56:33Z,107573.4,"c(""distractor1"", ""distractor2"", ""distractor3"")",Kritik,lawama,s,dereva,nafasi,mawazo,NA,NA,NA,NA,NA,NA,NA,NA,NA,NA,NA,NA,NA,NA,NA,NA,NA,NA,NA,NA,NA,NA,NA
e15de,shallow,flow.Sequence,1_1_1_1,NA,NA,completion,11515.42,96034,96025.38,96041.64,107557.06,107565,2023-09-08T11:56:33Z,107573.4,"c(""distractor1"", ""distractor2"", ""distractor3"")",Kritik,lawama,s,dereva,nafasi,mawazo,NA,NA,NA,NA,NA,NA,NA,NA,NA,NA,NA,NA,NA,NA,NA,NA,NA,NA,NA,NA,NA,NA,NA
e15de,task,flow.Sequence,1_1_1,NA,NA,completion,11515.42,96034,96025.38,96041.64,107557.06,107565,2023-09-08T11:56:33Z,107573.4,"c(""distractor1"", ""distractor2"", ""distractor3"")",Kritik,lawama,s,dereva,nafasi,mawazo,NA,NA,NA,NA,NA,NA,NA,NA,NA,NA,NA,NA,NA,NA,NA,NA,NA,NA,NA,NA,NA,NA,NA
e15de,Deep Question,html.Page,1_1_2_0_0,NA,NA,form submission,8631.6,107565,107557.06,107573.4,116205,116206,2023-09-08T11:56:42Z,116205.6,"c(""distractor1"", ""distractor2"", ""distractor3"")",Schatten,kivuli,d,NA,NA,NA,rabat,NA,NA,NA,NA,NA,NA,NA,NA,NA,NA,NA,NA,NA,NA,NA,NA,NA,NA,NA,NA,NA,NA
e15de,"""Richtig""-Screen",canvas.Screen,1_1_2_0_1,NA,NA,skipped,NA,116210,NA,NA,116205,116210,2023-09-08T11:56:42Z,116205.6,"c(""distractor1"", ""distractor2"", ""distractor3"")",Schatten,kivuli,d,NA,NA,NA,NA,NA,NA,NA,NA,NA,NA,NA,NA,NA,NA,NA,NA,NA,NA,NA,NA,NA,NA,NA,NA,NA,NA
e15de,"""Falsch""-Screen",canvas.Screen,1_1_2_0_2,NA,NA,timeout,4999.56,116214,116200.22,116205.6,121188.46,121189,2023-09-08T11:56:47Z,121205.16,"c(""distractor1"", ""distractor2"", ""distractor3"")",Schatten,kivuli,d,NA,NA,NA,NA,NA,0,NA,NA,NA,NA,NA,NA,NA,NA,NA,NA,NA,NA,NA,NA,NA,NA,NA,NA,NA,NA
e15de,deep,flow.Sequence,1_1_2_0,NA,NA,completion,13615.06,107565,107557.06,107573.4,121188.46,121190,2023-09-08T11:56:47Z,121205.16,"c(""distractor1"", ""distractor2"", ""distractor3"")",Schatten,kivuli,d,NA,NA,NA,NA,NA,NA,NA,NA,NA,NA,NA,NA,NA,NA,NA,NA,NA,NA,NA,NA,NA,NA,NA,NA,NA,NA
e15de,shallow,flow.Sequence,1_1_2_1,NA,NA,skipped,NA,121190,NA,NA,121188.46,121190,2023-09-08T11:56:47Z,121205.16,"c(""distractor1"", ""distractor2"", ""distractor3"")",Schatten,kivuli,d,NA,NA,NA,NA,NA,NA,NA,NA,NA,NA,NA,NA,NA,NA,NA,NA,NA,NA,NA,NA,NA,NA,NA,NA,NA,NA
e15de,task,flow.Sequence,1_1_2,NA,NA,completion,13615.06,107565,107557.06,107573.4,121188.46,121190,2023-09-08T11:56:47Z,121205.16,"c(""distractor1"", ""distractor2"", ""distractor3"")",Schatten,kivuli,d,NA,NA,NA,NA,NA,NA,NA,NA,NA,NA,NA,NA,NA,NA,NA,NA,NA,NA,NA,NA,NA,NA,NA,NA,NA,NA
e15de,Deep Question,html.Page,1_1_3_0_0,NA,NA,form submission,11490.84,121191,121188.46,121205.16,132696,132696,2023-09-08T11:56:58Z,132703.46,"c(""distractor1"", ""distractor2"", ""distractor3"")",Gesundheit,salama,d,NA,NA,NA,sulani,NA,NA,NA,NA,NA,NA,NA,NA,NA,NA,NA,NA,NA,NA,NA,NA,NA,NA,NA,NA,NA,NA
e15de,"""Richtig""-Screen",canvas.Screen,1_1_3_0_1,NA,NA,skipped,NA,132702,NA,NA,132696,132703,2023-09-08T11:56:58Z,132703.46,"c(""distractor1"", ""distractor2"", ""distractor3"")",Gesundheit,salama,d,NA,NA,NA,NA,NA,NA,NA,NA,NA,NA,NA,NA,NA,NA,NA,NA,NA,NA,NA,NA,NA,NA,NA,NA,NA,NA
e15de,"""Falsch""-Screen",canvas.Screen,1_1_3_0_2,NA,NA,timeout,4999.34,132708,132684.34,132703.46,137686.78,137688,2023-09-08T11:57:03Z,137702.8,"c(""distractor1"", ""distractor2"", ""distractor3"")",Gesundheit,salama,d,NA,NA,NA,NA,NA,0,NA,NA,NA,NA,NA,NA,NA,NA,NA,NA,NA,NA,NA,NA,NA,NA,NA,NA,NA,NA
e15de,deep,flow.Sequence,1_1_3_0,NA,NA,completion,16481.62,121191,121188.46,121205.16,137686.78,137689,2023-09-08T11:57:03Z,137702.8,"c(""distractor1"", ""distractor2"", ""distractor3"")",Gesundheit,salama,d,NA,NA,NA,NA,NA,NA,NA,NA,NA,NA,NA,NA,NA,NA,NA,NA,NA,NA,NA,NA,NA,NA,NA,NA,NA,NA
e15de,shallow,flow.Sequence,1_1_3_1,NA,NA,skipped,NA,137689,NA,NA,137686.78,137689,2023-09-08T11:57:03Z,137702.8,"c(""distractor1"", ""distractor2"", ""distractor3"")",Gesundheit,salama,d,NA,NA,NA,NA,NA,NA,NA,NA,NA,NA,NA,NA,NA,NA,NA,NA,NA,NA,NA,NA,NA,NA,NA,NA,NA,NA
e15de,task,flow.Sequence,1_1_3,NA,NA,completion,16481.62,121190,121188.46,121205.16,137686.78,137689,2023-09-08T11:57:03Z,137702.8,"c(""distractor1"", ""distractor2"", ""distractor3"")",Gesundheit,salama,d,NA,NA,NA,NA,NA,NA,NA,NA,NA,NA,NA,NA,NA,NA,NA,NA,NA,NA,NA,NA,NA,NA,NA,NA,NA,NA
e15de,deep,flow.Sequence,1_1_4_0,NA,NA,skipped,NA,137690,NA,NA,137686.78,137690,2023-09-08T11:57:03Z,137702.8,"c(""distractor1"", ""distractor2"", ""distractor3"")",Rückhalt,msaada,s,muhula,auwali,kiwimbe,NA,NA,NA,NA,NA,NA,NA,NA,NA,NA,NA,NA,NA,NA,NA,NA,NA,NA,NA,NA,NA,NA,NA
e15de,Shallow Question,html.Page,1_1_4_1_0,NA,NA,form submission,6248.2,137690,137686.78,137702.8,143951,143952,2023-09-08T11:57:09Z,143952.06,"c(""distractor1"", ""distractor2"", ""distractor3"")",Rückhalt,msaada,s,muhula,auwali,kiwimbe,auwali,NA,NA,NA,NA,NA,NA,NA,NA,NA,NA,NA,NA,NA,NA,NA,NA,NA,NA,NA,NA,NA,NA
e15de,"""Richtig""-Screen",canvas.Screen,1_1_4_1_1,NA,NA,skipped,NA,143955,NA,NA,143951,143955,2023-09-08T11:57:09Z,143952.06,"c(""distractor1"", ""distractor2"", ""distractor3"")",Rückhalt,msaada,s,muhula,auwali,kiwimbe,NA,NA,NA,NA,NA,NA,NA,NA,NA,NA,NA,NA,NA,NA,NA,NA,NA,NA,NA,NA,NA,NA,NA
e15de,"""Falsch""-Screen",canvas.Screen,1_1_4_1_2,NA,NA,timeout,4999.36,143958,143947.5,143952.06,148935.22,148936,2023-09-08T11:57:14Z,148951.42,"c(""distractor1"", ""distractor2"", ""distractor3"")",Rückhalt,msaada,s,muhula,auwali,kiwimbe,NA,NA,0,NA,NA,NA,NA,NA,NA,NA,NA,NA,NA,NA,NA,NA,NA,NA,NA,NA,NA,NA,NA
e15de,shallow,flow.Sequence,1_1_4_1,NA,NA,completion,11232.42,137690,137686.78,137702.8,148935.22,148937,2023-09-08T11:57:14Z,148951.42,"c(""distractor1"", ""distractor2"", ""distractor3"")",Rückhalt,msaada,s,muhula,auwali,kiwimbe,NA,NA,NA,NA,NA,NA,NA,NA,NA,NA,NA,NA,NA,NA,NA,NA,NA,NA,NA,NA,NA,NA,NA
e15de,task,flow.Sequence,1_1_4,NA,NA,completion,11232.42,137690,137686.78,137702.8,148935.22,148938,2023-09-08T11:57:14Z,148951.42,"c(""distractor1"", ""distractor2"", ""distractor3"")",Rückhalt,msaada,s,muhula,auwali,kiwimbe,NA,NA,NA,NA,NA,NA,NA,NA,NA,NA,NA,NA,NA,NA,NA,NA,NA,NA,NA,NA,NA,NA,NA
e15de,Deep Question,html.Page,1_1_5_0_0,NA,NA,form submission,6205.58,148938,148935.22,148951.42,155157,155157,2023-09-08T11:57:21Z,155167.16,"c(""distractor1"", ""distractor2"", ""distractor3"")",Qualität,mtindo,d,NA,NA,NA,tubi,NA,NA,NA,NA,NA,NA,NA,NA,NA,NA,NA,NA,NA,NA,NA,NA,NA,NA,NA,NA,NA,NA
e15de,"""Richtig""-Screen",canvas.Screen,1_1_5_0_1,NA,NA,skipped,NA,155159,NA,NA,155157,155159,2023-09-08T11:57:21Z,155167.16,"c(""distractor1"", ""distractor2"", ""distractor3"")",Qualität,mtindo,d,NA,NA,NA,NA,NA,NA,NA,NA,NA,NA,NA,NA,NA,NA,NA,NA,NA,NA,NA,NA,NA,NA,NA,NA,NA,NA
e15de,"""Falsch""-Screen",canvas.Screen,1_1_5_0_2,NA,NA,timeout,4999.52,155161,155155.3,155167.16,160149.98,160151,2023-09-08T11:57:26Z,160166.68,"c(""distractor1"", ""distractor2"", ""distractor3"")",Qualität,mtindo,d,NA,NA,NA,NA,NA,0,NA,NA,NA,NA,NA,NA,NA,NA,NA,NA,NA,NA,NA,NA,NA,NA,NA,NA,NA,NA
e15de,deep,flow.Sequence,1_1_5_0,NA,NA,completion,11198.56,148938,148935.22,148951.42,160149.98,160151,2023-09-08T11:57:26Z,160166.68,"c(""distractor1"", ""distractor2"", ""distractor3"")",Qualität,mtindo,d,NA,NA,NA,NA,NA,NA,NA,NA,NA,NA,NA,NA,NA,NA,NA,NA,NA,NA,NA,NA,NA,NA,NA,NA,NA,NA
e15de,shallow,flow.Sequence,1_1_5_1,NA,NA,skipped,NA,160153,NA,NA,160149.98,160153,2023-09-08T11:57:26Z,160166.68,"c(""distractor1"", ""distractor2"", ""distractor3"")",Qualität,mtindo,d,NA,NA,NA,NA,NA,NA,NA,NA,NA,NA,NA,NA,NA,NA,NA,NA,NA,NA,NA,NA,NA,NA,NA,NA,NA,NA
e15de,task,flow.Sequence,1_1_5,NA,NA,completion,11198.56,148938,148935.22,148951.42,160149.98,160153,2023-09-08T11:57:26Z,160166.68,"c(""distractor1"", ""distractor2"", ""distractor3"")",Qualität,mtindo,d,NA,NA,NA,NA,NA,NA,NA,NA,NA,NA,NA,NA,NA,NA,NA,NA,NA,NA,NA,NA,NA,NA,NA,NA,NA,NA
e15de,block,flow.Loop,1_1,NA,NA,completion,75373.62,84772,84773.18,84776.36,160149.98,160154,2023-09-08T11:57:26Z,160166.68,"c(""distractor1"", ""distractor2"", ""distractor3"")",NA,NA,NA,NA,NA,NA,NA,NA,NA,NA,NA,NA,NA,NA,NA,NA,NA,NA,NA,NA,NA,NA,NA,NA,NA,NA,NA,NA,NA
e15de,Practice,flow.Sequence,1,NA,NA,completion,83799.42,76349,76350.08,76350.56,160149.98,160154,2023-09-08T11:57:26Z,160166.68,NULL,NA,NA,NA,NA,NA,NA,NA,NA,NA,NA,NA,NA,NA,NA,NA,NA,NA,NA,NA,NA,NA,NA,NA,NA,NA,NA,NA,NA,NA
e15de,Experiment start,canvas.Screen,2,weiter,keypress(q),response,42539.32,160154,160149.98,160166.68,202706,202721,2023-09-08T11:58:08Z,202811,NULL,NA,NA,NA,NA,NA,NA,NA,NA,NA,NA,NA,NA,NA,NA,NA,NA,NA,NA,NA,NA,NA,NA,NA,NA,NA,NA,NA,NA,NA
e15de,Deep Question,html.Page,3_0_0_0_0_0_0,NA,NA,form submission,11467,202809,202809.38,202811,214278,214280,2023-09-08T11:58:20Z,214276.28,NULL,Körper,kiwiliwili,d,NA,NA,NA,zorpe,NA,NA,0,NA,NA,NA,NA,NA,NA,NA,NA,NA,NA,NA,NA,NA,NA,NA,NA,NA,NA,NA
e15de,"""Richtig""-Screen",canvas.Screen,3_0_0_0_0_0_1,NA,NA,skipped,NA,214284,NA,NA,214278,214284,2023-09-08T11:58:20Z,214276.28,NULL,Körper,kiwiliwili,d,NA,NA,NA,NA,sdf,NA,0,NA,NA,NA,NA,NA,NA,NA,NA,NA,NA,NA,NA,NA,NA,NA,NA,NA,NA,NA
e15de,"""Falsch""-Screen",canvas.Screen,3_0_0_0_0_0_2,NA,NA,timeout,4999.26,214288,214272.16,214276.28,219259,219260,2023-09-08T11:58:25Z,219275.54,NULL,Körper,kiwiliwili,d,NA,NA,NA,NA,sdf,0,0,NA,NA,NA,NA,NA,NA,NA,NA,NA,NA,NA,NA,NA,NA,NA,NA,NA,NA,NA
e15de,deep,flow.Sequence,3_0_0_0_0_0,NA,NA,completion,16448,202809,202809.38,202811,219259,219261,2023-09-08T11:58:25Z,219275.54,NULL,Körper,kiwiliwili,d,NA,NA,NA,NA,sdf,NA,0,NA,NA,NA,NA,NA,NA,NA,NA,NA,NA,NA,NA,NA,NA,NA,NA,NA,NA,NA
e15de,shallow,flow.Sequence,3_0_0_0_0_1,NA,NA,skipped,NA,219262,NA,NA,219259,219262,2023-09-08T11:58:25Z,219275.54,NULL,Körper,kiwiliwili,d,NA,NA,NA,NA,sdf,NA,0,NA,NA,NA,NA,NA,NA,NA,NA,NA,NA,NA,NA,NA,NA,NA,NA,NA,NA,NA
e15de,task,flow.Sequence,3_0_0_0_0,NA,NA,completion,16448,202809,202809.38,202811,219259,219262,2023-09-08T11:58:25Z,219275.54,NULL,Körper,kiwiliwili,d,NA,NA,NA,NA,sdf,NA,0,NA,NA,NA,NA,NA,NA,NA,NA,NA,NA,NA,NA,NA,NA,NA,NA,NA,NA,NA
e15de,deep,flow.Sequence,3_0_0_0_1_0,NA,NA,skipped,NA,219263,NA,NA,219259,219263,2023-09-08T11:58:25Z,219275.54,NULL,Lawine,banguko,s,maambukizi,usuluhishi,chekechea,NA,sdf,NA,0,NA,NA,NA,NA,NA,NA,NA,NA,NA,NA,NA,NA,NA,NA,NA,NA,NA,NA,NA
e15de,Shallow Question,html.Page,3_0_0_0_1_1_0,NA,NA,form submission,6647.46,219264,219259,219275.54,225923,225924,2023-09-08T11:58:31Z,225924.66,NULL,Lawine,banguko,s,maambukizi,usuluhishi,chekechea,usuluhishi,NA,NA,0,NA,NA,NA,NA,NA,NA,NA,NA,NA,NA,NA,NA,NA,NA,NA,NA,NA,NA,NA
e15de,"""Richtig""-Screen",canvas.Screen,3_0_0_0_1_1_1,NA,NA,skipped,NA,225931,NA,NA,225923,225931,2023-09-08T11:58:31Z,225924.66,NULL,Lawine,banguko,s,maambukizi,usuluhishi,chekechea,NA,sdf,NA,0,NA,NA,NA,NA,NA,NA,NA,NA,NA,NA,NA,NA,NA,NA,NA,NA,NA,NA,NA
e15de,"""Falsch""-Screen",canvas.Screen,3_0_0_0_1_1_2,NA,NA,timeout,4999.36,225935,225917.64,225924.66,230907.42,230909,2023-09-08T11:58:36Z,230924.02,NULL,Lawine,banguko,s,maambukizi,usuluhishi,chekechea,NA,sdf,0,0,NA,NA,NA,NA,NA,NA,NA,NA,NA,NA,NA,NA,NA,NA,NA,NA,NA,NA,NA
e15de,shallow,flow.Sequence,3_0_0_0_1_1,NA,NA,completion,11631.88,219264,219259,219275.54,230907.42,230910,2023-09-08T11:58:36Z,230924.02,NULL,Lawine,banguko,s,maambukizi,usuluhishi,chekechea,NA,sdf,NA,0,NA,NA,NA,NA,NA,NA,NA,NA,NA,NA,NA,NA,NA,NA,NA,NA,NA,NA,NA
e15de,task,flow.Sequence,3_0_0_0_1,NA,NA,completion,11631.88,219263,219259,219275.54,230907.42,230910,2023-09-08T11:58:36Z,230924.02,NULL,Lawine,banguko,s,maambukizi,usuluhishi,chekechea,NA,sdf,NA,0,NA,NA,NA,NA,NA,NA,NA,NA,NA,NA,NA,NA,NA,NA,NA,NA,NA,NA,NA
e15de,Deep Question,html.Page,3_0_0_0_2_0_0,NA,NA,form submission,5234.98,230910,230907.42,230924.02,236159,236159,2023-09-08T11:58:42Z,236173.42,NULL,Entwicklung,maendeleo,d,NA,NA,NA,ev,NA,NA,0,NA,NA,NA,NA,NA,NA,NA,NA,NA,NA,NA,NA,NA,NA,NA,NA,NA,NA,NA
e15de,"""Richtig""-Screen",canvas.Screen,3_0_0_0_2_0_1,NA,NA,skipped,NA,236162,NA,NA,236159,236162,2023-09-08T11:58:42Z,236173.42,NULL,Entwicklung,maendeleo,d,NA,NA,NA,NA,sdf,NA,0,NA,NA,NA,NA,NA,NA,NA,NA,NA,NA,NA,NA,NA,NA,NA,NA,NA,NA,NA
e15de,"""Falsch""-Screen",canvas.Screen,3_0_0_0_2_0_2,NA,NA,timeout,4999.58,236163,236158.04,236173.42,241156.42,241157,2023-09-08T11:58:47Z,241173,NULL,Entwicklung,maendeleo,d,NA,NA,NA,NA,sdf,0,0,NA,NA,NA,NA,NA,NA,NA,NA,NA,NA,NA,NA,NA,NA,NA,NA,NA,NA,NA
e15de,deep,flow.Sequence,3_0_0_0_2_0,NA,NA,completion,10232.4,230910,230907.42,230924.02,241156.42,241157,2023-09-08T11:58:47Z,241173,NULL,Entwicklung,maendeleo,d,NA,NA,NA,NA,sdf,NA,0,NA,NA,NA,NA,NA,NA,NA,NA,NA,NA,NA,NA,NA,NA,NA,NA,NA,NA,NA
e15de,shallow,flow.Sequence,3_0_0_0_2_1,NA,NA,skipped,NA,241158,NA,NA,241156.42,241158,2023-09-08T11:58:47Z,241173,NULL,Entwicklung,maendeleo,d,NA,NA,NA,NA,sdf,NA,0,NA,NA,NA,NA,NA,NA,NA,NA,NA,NA,NA,NA,NA,NA,NA,NA,NA,NA,NA
e15de,task,flow.Sequence,3_0_0_0_2,NA,NA,completion,10232.4,230910,230907.42,230924.02,241156.42,241158,2023-09-08T11:58:47Z,241173,NULL,Entwicklung,maendeleo,d,NA,NA,NA,NA,sdf,NA,0,NA,NA,NA,NA,NA,NA,NA,NA,NA,NA,NA,NA,NA,NA,NA,NA,NA,NA,NA
e15de,Deep Question,html.Page,3_0_0_0_3_0_0,NA,NA,form submission,6970,241158,241156.42,241173,248143,248143,2023-09-08T11:58:54Z,248155.12,NULL,Übersicht,kilindo,d,NA,NA,NA,view,NA,NA,0,NA,NA,NA,NA,NA,NA,NA,NA,NA,NA,NA,NA,NA,NA,NA,NA,NA,NA,NA
e15de,"""Richtig""-Screen",canvas.Screen,3_0_0_0_3_0_1,NA,NA,skipped,NA,248147,NA,NA,248143,248148,2023-09-08T11:58:54Z,248155.12,NULL,Übersicht,kilindo,d,NA,NA,NA,NA,sdf,NA,0,NA,NA,NA,NA,NA,NA,NA,NA,NA,NA,NA,NA,NA,NA,NA,NA,NA,NA,NA
e15de,"""Falsch""-Screen",canvas.Screen,3_0_0_0_3_0_2,NA,NA,timeout,4999.3,248152,248138.12,248155.12,253137.82,253139,2023-09-08T11:58:59Z,253154.42,NULL,Übersicht,kilindo,d,NA,NA,NA,NA,sdf,0,0,NA,NA,NA,NA,NA,NA,NA,NA,NA,NA,NA,NA,NA,NA,NA,NA,NA,NA,NA
e15de,deep,flow.Sequence,3_0_0_0_3_0,NA,NA,completion,11964.82,241158,241156.42,241173,253137.82,253140,2023-09-08T11:58:59Z,253154.42,NULL,Übersicht,kilindo,d,NA,NA,NA,NA,sdf,NA,0,NA,NA,NA,NA,NA,NA,NA,NA,NA,NA,NA,NA,NA,NA,NA,NA,NA,NA,NA
e15de,shallow,flow.Sequence,3_0_0_0_3_1,NA,NA,skipped,NA,253140,NA,NA,253137.82,253140,2023-09-08T11:58:59Z,253154.42,NULL,Übersicht,kilindo,d,NA,NA,NA,NA,sdf,NA,0,NA,NA,NA,NA,NA,NA,NA,NA,NA,NA,NA,NA,NA,NA,NA,NA,NA,NA,NA
e15de,task,flow.Sequence,3_0_0_0_3,NA,NA,completion,11964.82,241158,241156.42,241173,253137.82,253141,2023-09-08T11:58:59Z,253154.42,NULL,Übersicht,kilindo,d,NA,NA,NA,NA,sdf,NA,0,NA,NA,NA,NA,NA,NA,NA,NA,NA,NA,NA,NA,NA,NA,NA,NA,NA,NA,NA
e15de,deep,flow.Sequence,3_0_0_0_4_0,NA,NA,skipped,NA,253141,NA,NA,253137.82,253141,2023-09-08T11:58:59Z,253154.42,NULL,Papier,karatasi,s,uchambuzi,usalama,kukataliwa,NA,sdf,NA,0,NA,NA,NA,NA,NA,NA,NA,NA,NA,NA,NA,NA,NA,NA,NA,NA,NA,NA,NA
e15de,Shallow Question,html.Page,3_0_0_0_4_1_0,NA,NA,form submission,6714.58,253141,253137.82,253154.42,259869,259870,2023-09-08T11:59:05Z,259870.26,NULL,Papier,karatasi,s,uchambuzi,usalama,kukataliwa,uchambuzi,NA,NA,0,NA,NA,NA,NA,NA,NA,NA,NA,NA,NA,NA,NA,NA,NA,NA,NA,NA,NA,NA
e15de,"""Richtig""-Screen",canvas.Screen,3_0_0_0_4_1_1,NA,NA,skipped,NA,259875,NA,NA,259869,259876,2023-09-08T11:59:05Z,259870.26,NULL,Papier,karatasi,s,uchambuzi,usalama,kukataliwa,NA,sdf,NA,0,NA,NA,NA,NA,NA,NA,NA,NA,NA,NA,NA,NA,NA,NA,NA,NA,NA,NA,NA
e15de,"""Falsch""-Screen",canvas.Screen,3_0_0_0_4_1_2,NA,NA,timeout,4999.34,259880,259864.06,259870.26,264852.9,264854,2023-09-08T11:59:10Z,264869.6,NULL,Papier,karatasi,s,uchambuzi,usalama,kukataliwa,NA,sdf,0,0,NA,NA,NA,NA,NA,NA,NA,NA,NA,NA,NA,NA,NA,NA,NA,NA,NA,NA,NA
e15de,shallow,flow.Sequence,3_0_0_0_4_1,NA,NA,completion,11698.48,253141,253137.82,253154.42,264852.9,264855,2023-09-08T11:59:10Z,264869.6,NULL,Papier,karatasi,s,uchambuzi,usalama,kukataliwa,NA,sdf,NA,0,NA,NA,NA,NA,NA,NA,NA,NA,NA,NA,NA,NA,NA,NA,NA,NA,NA,NA,NA
e15de,task,flow.Sequence,3_0_0_0_4,NA,NA,completion,11698.48,253141,253137.82,253154.42,264852.9,264855,2023-09-08T11:59:10Z,264869.6,NULL,Papier,karatasi,s,uchambuzi,usalama,kukataliwa,NA,sdf,NA,0,NA,NA,NA,NA,NA,NA,NA,NA,NA,NA,NA,NA,NA,NA,NA,NA,NA,NA,NA
e15de,Deep Question,html.Page,3_0_0_0_5_0_0,NA,NA,form submission,6257.4,264855,264852.9,264869.6,271127,271127,2023-09-08T11:59:17Z,271135.44,NULL,Vorwurf,mashtaka,d,NA,NA,NA,sfg,NA,NA,0,NA,NA,NA,NA,NA,NA,NA,NA,NA,NA,NA,NA,NA,NA,NA,NA,NA,NA,NA
e15de,"""Richtig""-Screen",canvas.Screen,3_0_0_0_5_0_1,NA,NA,skipped,NA,271132,NA,NA,271127,271132,2023-09-08T11:59:17Z,271135.44,NULL,Vorwurf,mashtaka,d,NA,NA,NA,NA,sdf,NA,0,NA,NA,NA,NA,NA,NA,NA,NA,NA,NA,NA,NA,NA,NA,NA,NA,NA,NA,NA
e15de,"""Falsch""-Screen",canvas.Screen,3_0_0_0_5_0_2,NA,NA,timeout,4999.32,271136,271120,271135.44,276118.14,276119,2023-09-08T11:59:22Z,276134.76,NULL,Vorwurf,mashtaka,d,NA,NA,NA,NA,sdf,0,0,NA,NA,NA,NA,NA,NA,NA,NA,NA,NA,NA,NA,NA,NA,NA,NA,NA,NA,NA
e15de,deep,flow.Sequence,3_0_0_0_5_0,NA,NA,completion,11248.54,264855,264852.9,264869.6,276118.14,276119,2023-09-08T11:59:22Z,276134.76,NULL,Vorwurf,mashtaka,d,NA,NA,NA,NA,sdf,NA,0,NA,NA,NA,NA,NA,NA,NA,NA,NA,NA,NA,NA,NA,NA,NA,NA,NA,NA,NA
e15de,shallow,flow.Sequence,3_0_0_0_5_1,NA,NA,skipped,NA,276120,NA,NA,276118.14,276120,2023-09-08T11:59:22Z,276134.76,NULL,Vorwurf,mashtaka,d,NA,NA,NA,NA,sdf,NA,0,NA,NA,NA,NA,NA,NA,NA,NA,NA,NA,NA,NA,NA,NA,NA,NA,NA,NA,NA
e15de,task,flow.Sequence,3_0_0_0_5,NA,NA,completion,11248.54,264855,264852.9,264869.6,276118.14,276120,2023-09-08T11:59:22Z,276134.76,NULL,Vorwurf,mashtaka,d,NA,NA,NA,NA,sdf,NA,0,NA,NA,NA,NA,NA,NA,NA,NA,NA,NA,NA,NA,NA,NA,NA,NA,NA,NA,NA
e15de,deep,flow.Sequence,3_0_0_0_6_0,NA,NA,skipped,NA,276121,NA,NA,276118.14,276121,2023-09-08T11:59:22Z,276134.76,NULL,Niveau,kiwango,s,usimamizi,mwamali,mshairi,NA,sdf,NA,0,NA,NA,NA,NA,NA,NA,NA,NA,NA,NA,NA,NA,NA,NA,NA,NA,NA,NA,NA
e15de,Shallow Question,html.Page,3_0_0_0_6_1_0,NA,NA,form submission,8006.24,276121,276118.14,276134.76,284141,284142,2023-09-08T11:59:30Z,284150.48,NULL,Niveau,kiwango,s,usimamizi,mwamali,mshairi,mwamali,NA,NA,0,NA,NA,NA,NA,NA,NA,NA,NA,NA,NA,NA,NA,NA,NA,NA,NA,NA,NA,NA
e15de,"""Richtig""-Screen",canvas.Screen,3_0_0_0_6_1_1,NA,NA,skipped,NA,284145,NA,NA,284141,284146,2023-09-08T11:59:30Z,284150.48,NULL,Niveau,kiwango,s,usimamizi,mwamali,mshairi,NA,sdf,NA,0,NA,NA,NA,NA,NA,NA,NA,NA,NA,NA,NA,NA,NA,NA,NA,NA,NA,NA,NA
e15de,"""Falsch""-Screen",canvas.Screen,3_0_0_0_6_1_2,NA,NA,timeout,4999.32,284151,284136.78,284150.48,289133.22,289135,2023-09-08T11:59:35Z,289149.8,NULL,Niveau,kiwango,s,usimamizi,mwamali,mshairi,NA,sdf,0,0,NA,NA,NA,NA,NA,NA,NA,NA,NA,NA,NA,NA,NA,NA,NA,NA,NA,NA,NA
e15de,shallow,flow.Sequence,3_0_0_0_6_1,NA,NA,completion,12998.46,276121,276118.14,276134.76,289133.22,289136,2023-09-08T11:59:35Z,289149.8,NULL,Niveau,kiwango,s,usimamizi,mwamali,mshairi,NA,sdf,NA,0,NA,NA,NA,NA,NA,NA,NA,NA,NA,NA,NA,NA,NA,NA,NA,NA,NA,NA,NA
e15de,task,flow.Sequence,3_0_0_0_6,NA,NA,completion,12998.46,276121,276118.14,276134.76,289133.22,289137,2023-09-08T11:59:35Z,289149.8,NULL,Niveau,kiwango,s,usimamizi,mwamali,mshairi,NA,sdf,NA,0,NA,NA,NA,NA,NA,NA,NA,NA,NA,NA,NA,NA,NA,NA,NA,NA,NA,NA,NA
e15de,deep,flow.Sequence,3_0_0_0_7_0,NA,NA,skipped,NA,289137,NA,NA,289133.22,289137,2023-09-08T11:59:35Z,289149.8,NULL,System,maongozi,s,chokochoko,nuksani,mitaani,NA,sdf,NA,0,NA,NA,NA,NA,NA,NA,NA,NA,NA,NA,NA,NA,NA,NA,NA,NA,NA,NA,NA
e15de,Shallow Question,html.Page,3_0_0_0_7_1_0,NA,NA,form submission,6434.2,289138,289133.22,289149.8,295584,295585,2023-09-08T11:59:41Z,295582.26,NULL,System,maongozi,s,chokochoko,nuksani,mitaani,nuksani,NA,NA,0,NA,NA,NA,NA,NA,NA,NA,NA,NA,NA,NA,NA,NA,NA,NA,NA,NA,NA,NA
e15de,"""Richtig""-Screen",canvas.Screen,3_0_0_0_7_1_1,NA,NA,skipped,NA,295591,NA,NA,295584,295591,2023-09-08T11:59:41Z,295582.26,NULL,System,maongozi,s,chokochoko,nuksani,mitaani,NA,sdf,NA,0,NA,NA,NA,NA,NA,NA,NA,NA,NA,NA,NA,NA,NA,NA,NA,NA,NA,NA,NA
e15de,"""Falsch""-Screen",canvas.Screen,3_0_0_0_7_1_2,NA,NA,timeout,4999.7,295595,295578.88,295582.26,300565.32,300566,2023-09-08T11:59:46Z,300581.96,NULL,System,maongozi,s,chokochoko,nuksani,mitaani,NA,sdf,0,0,NA,NA,NA,NA,NA,NA,NA,NA,NA,NA,NA,NA,NA,NA,NA,NA,NA,NA,NA
e15de,shallow,flow.Sequence,3_0_0_0_7_1,NA,NA,completion,11415.52,289138,289133.22,289149.8,300565.32,300566,2023-09-08T11:59:46Z,300581.96,NULL,System,maongozi,s,chokochoko,nuksani,mitaani,NA,sdf,NA,0,NA,NA,NA,NA,NA,NA,NA,NA,NA,NA,NA,NA,NA,NA,NA,NA,NA,NA,NA
e15de,task,flow.Sequence,3_0_0_0_7,NA,NA,completion,11415.52,289137,289133.22,289149.8,300565.32,300566,2023-09-08T11:59:46Z,300581.96,NULL,System,maongozi,s,chokochoko,nuksani,mitaani,NA,sdf,NA,0,NA,NA,NA,NA,NA,NA,NA,NA,NA,NA,NA,NA,NA,NA,NA,NA,NA,NA,NA
e15de,block,flow.Loop,3_0_0_0,NA,NA,completion,97754.32,202809,202809.38,202811,300565.32,300567,2023-09-08T11:59:46Z,300581.96,NULL,NA,NA,NA,NA,NA,NA,NA,sdf,NA,0,NA,NA,NA,NA,NA,NA,NA,NA,NA,NA,NA,NA,NA,NA,NA,NA,NA,NA,NA
e15de,weiter,canvas.Screen,3_0_0_1,sdf,keypress(Space),response,1656.04,300567,300565.32,300581.96,302238,302248,2023-09-08T11:59:48Z,302291.98,NULL,NA,NA,NA,NA,NA,NA,NA,sdf,NA,0,NA,NA,NA,NA,NA,NA,NA,NA,NA,NA,NA,NA,NA,NA,NA,NA,NA,NA,NA
e15de,check continue,flow.Sequence,3_0_0,NA,NA,completion,99427,202809,202809.38,202811,302238,302248,2023-09-08T11:59:48Z,302291.98,NULL,NA,NA,NA,NA,NA,NA,NA,sdf,NA,0,NA,NA,NA,NA,NA,NA,NA,NA,NA,NA,NA,NA,NA,NA,NA,NA,NA,NA,NA
e15de,Deep Question,html.Page,3_0_1_0_0_0_0,NA,NA,form submission,12682.02,302291,302291.66,302291.98,314974,314975,2023-09-08T12:00:00Z,314979.72,NULL,Körper,kiwiliwili,d,NA,NA,NA,kiwiliwili,NA,NA,1,NA,NA,NA,NA,NA,NA,NA,NA,NA,NA,NA,NA,NA,NA,NA,NA,NA,NA,NA
e15de,"""Richtig""-Screen",canvas.Screen,3_0_1_0_0_0_1,NA,NA,timeout,4999.36,314980,314969.44,314979.72,319962.52,319967,2023-09-08T12:00:05Z,319979.08,NULL,Körper,kiwiliwili,d,NA,NA,NA,NA,sdfdsf,1,1,NA,NA,NA,NA,NA,NA,NA,NA,NA,NA,NA,NA,NA,NA,NA,NA,NA,NA,NA
e15de,"""Falsch""-Screen",canvas.Screen,3_0_1_0_0_0_2,NA,NA,skipped,NA,319979,NA,NA,319962.52,319979,2023-09-08T12:00:05Z,319979.08,NULL,Körper,kiwiliwili,d,NA,NA,NA,NA,sdfdsf,NA,1,NA,NA,NA,NA,NA,NA,NA,NA,NA,NA,NA,NA,NA,NA,NA,NA,NA,NA,NA
e15de,deep,flow.Sequence,3_0_1_0_0_0,NA,NA,completion,17670.54,302291,302291.66,302291.98,319962.52,319979,2023-09-08T12:00:05Z,319979.08,NULL,Körper,kiwiliwili,d,NA,NA,NA,NA,sdfdsf,NA,1,NA,NA,NA,NA,NA,NA,NA,NA,NA,NA,NA,NA,NA,NA,NA,NA,NA,NA,NA
e15de,shallow,flow.Sequence,3_0_1_0_0_1,NA,NA,skipped,NA,319980,NA,NA,319962.52,319980,2023-09-08T12:00:05Z,319979.08,NULL,Körper,kiwiliwili,d,NA,NA,NA,NA,sdfdsf,NA,1,NA,NA,NA,NA,NA,NA,NA,NA,NA,NA,NA,NA,NA,NA,NA,NA,NA,NA,NA
e15de,task,flow.Sequence,3_0_1_0_0,NA,NA,completion,17670.54,302291,302291.66,302291.98,319962.52,319980,2023-09-08T12:00:05Z,319979.08,NULL,Körper,kiwiliwili,d,NA,NA,NA,NA,sdfdsf,NA,1,NA,NA,NA,NA,NA,NA,NA,NA,NA,NA,NA,NA,NA,NA,NA,NA,NA,NA,NA
e15de,deep,flow.Sequence,3_0_1_0_1_0,NA,NA,skipped,NA,319980,NA,NA,319962.52,319980,2023-09-08T12:00:05Z,319979.08,NULL,Papier,karatasi,s,uchambuzi,usalama,kukataliwa,NA,sdfdsf,NA,1,NA,NA,NA,NA,NA,NA,NA,NA,NA,NA,NA,NA,NA,NA,NA,NA,NA,NA,NA
e15de,Shallow Question,html.Page,3_0_1_0_1_1_0,NA,NA,form submission,3770.92,319981,319962.52,319979.08,323750,323751,2023-09-08T12:00:09Z,323745.22,NULL,Papier,karatasi,s,uchambuzi,usalama,kukataliwa,karatasi,NA,NA,1,NA,NA,NA,NA,NA,NA,NA,NA,NA,NA,NA,NA,NA,NA,NA,NA,NA,NA,NA
e15de,"""Richtig""-Screen",canvas.Screen,3_0_1_0_1_1_1,NA,NA,timeout,4999.46,323755,323742.48,323745.22,328728.24,328730,2023-09-08T12:00:14Z,328744.68,NULL,Papier,karatasi,s,uchambuzi,usalama,kukataliwa,NA,sdfdsf,1,1,NA,NA,NA,NA,NA,NA,NA,NA,NA,NA,NA,NA,NA,NA,NA,NA,NA,NA,NA
e15de,"""Falsch""-Screen",canvas.Screen,3_0_1_0_1_1_2,NA,NA,skipped,NA,328735,NA,NA,328728.24,328736,2023-09-08T12:00:14Z,328744.68,NULL,Papier,karatasi,s,uchambuzi,usalama,kukataliwa,NA,sdfdsf,NA,1,NA,NA,NA,NA,NA,NA,NA,NA,NA,NA,NA,NA,NA,NA,NA,NA,NA,NA,NA
e15de,shallow,flow.Sequence,3_0_1_0_1_1,NA,NA,completion,8749.16,319980,319962.52,319979.08,328728.24,328736,2023-09-08T12:00:14Z,328744.68,NULL,Papier,karatasi,s,uchambuzi,usalama,kukataliwa,NA,sdfdsf,NA,1,NA,NA,NA,NA,NA,NA,NA,NA,NA,NA,NA,NA,NA,NA,NA,NA,NA,NA,NA
e15de,task,flow.Sequence,3_0_1_0_1,NA,NA,completion,8749.16,319980,319962.52,319979.08,328728.24,328736,2023-09-08T12:00:14Z,328744.68,NULL,Papier,karatasi,s,uchambuzi,usalama,kukataliwa,NA,sdfdsf,NA,1,NA,NA,NA,NA,NA,NA,NA,NA,NA,NA,NA,NA,NA,NA,NA,NA,NA,NA,NA
e15de,deep,flow.Sequence,3_0_1_0_2_0,NA,NA,skipped,NA,328736,NA,NA,328728.24,328736,2023-09-08T12:00:14Z,328744.68,NULL,System,maongozi,s,chokochoko,nuksani,mitaani,NA,sdfdsf,NA,1,NA,NA,NA,NA,NA,NA,NA,NA,NA,NA,NA,NA,NA,NA,NA,NA,NA,NA,NA
e15de,Shallow Question,html.Page,3_0_1_0_2_1_0,NA,NA,form submission,4350.32,328737,328728.24,328744.68,333095,333095,2023-09-08T12:00:19Z,333093.98,NULL,System,maongozi,s,chokochoko,nuksani,mitaani,maongozi,NA,NA,1,NA,NA,NA,NA,NA,NA,NA,NA,NA,NA,NA,NA,NA,NA,NA,NA,NA,NA,NA
e15de,"""Richtig""-Screen",canvas.Screen,3_0_1_0_2_1_1,NA,NA,timeout,4999.5,333098,333091.94,333093.98,338077.2,338079,2023-09-08T12:00:24Z,338093.48,NULL,System,maongozi,s,chokochoko,nuksani,mitaani,NA,sdfdsf,1,1,NA,NA,NA,NA,NA,NA,NA,NA,NA,NA,NA,NA,NA,NA,NA,NA,NA,NA,NA
e15de,"""Falsch""-Screen",canvas.Screen,3_0_1_0_2_1_2,NA,NA,skipped,NA,338086,NA,NA,338077.2,338086,2023-09-08T12:00:24Z,338093.48,NULL,System,maongozi,s,chokochoko,nuksani,mitaani,NA,sdfdsf,NA,1,NA,NA,NA,NA,NA,NA,NA,NA,NA,NA,NA,NA,NA,NA,NA,NA,NA,NA,NA
e15de,shallow,flow.Sequence,3_0_1_0_2_1,NA,NA,completion,9332.52,328737,328728.24,328744.68,338077.2,338087,2023-09-08T12:00:24Z,338093.48,NULL,System,maongozi,s,chokochoko,nuksani,mitaani,NA,sdfdsf,NA,1,NA,NA,NA,NA,NA,NA,NA,NA,NA,NA,NA,NA,NA,NA,NA,NA,NA,NA,NA
e15de,task,flow.Sequence,3_0_1_0_2,NA,NA,completion,9332.52,328736,328728.24,328744.68,338077.2,338088,2023-09-08T12:00:24Z,338093.48,NULL,System,maongozi,s,chokochoko,nuksani,mitaani,NA,sdfdsf,NA,1,NA,NA,NA,NA,NA,NA,NA,NA,NA,NA,NA,NA,NA,NA,NA,NA,NA,NA,NA
e15de,deep,flow.Sequence,3_0_1_0_3_0,NA,NA,skipped,NA,338088,NA,NA,338077.2,338088,2023-09-08T12:00:24Z,338093.48,NULL,Niveau,kiwango,s,usimamizi,mwamali,mshairi,NA,sdfdsf,NA,1,NA,NA,NA,NA,NA,NA,NA,NA,NA,NA,NA,NA,NA,NA,NA,NA,NA,NA,NA
e15de,Shallow Question,html.Page,3_0_1_0_3_1_0,NA,NA,form submission,7287.52,338089,338077.2,338093.48,345381,345381,2023-09-08T12:00:31Z,345392.4,NULL,Niveau,kiwango,s,usimamizi,mwamali,mshairi,kiwango,NA,NA,1,NA,NA,NA,NA,NA,NA,NA,NA,NA,NA,NA,NA,NA,NA,NA,NA,NA,NA,NA
e15de,"""Richtig""-Screen",canvas.Screen,3_0_1_0_3_1_1,NA,NA,timeout,4999.38,345385,345377.72,345392.4,350375.38,350376,2023-09-08T12:00:36Z,350391.78,NULL,Niveau,kiwango,s,usimamizi,mwamali,mshairi,NA,sdfdsf,1,1,NA,NA,NA,NA,NA,NA,NA,NA,NA,NA,NA,NA,NA,NA,NA,NA,NA,NA,NA
e15de,"""Falsch""-Screen",canvas.Screen,3_0_1_0_3_1_2,NA,NA,skipped,NA,350385,NA,NA,350375.38,350385,2023-09-08T12:00:36Z,350391.78,NULL,Niveau,kiwango,s,usimamizi,mwamali,mshairi,NA,sdfdsf,NA,1,NA,NA,NA,NA,NA,NA,NA,NA,NA,NA,NA,NA,NA,NA,NA,NA,NA,NA,NA
e15de,shallow,flow.Sequence,3_0_1_0_3_1,NA,NA,completion,12281.9,338089,338077.2,338093.48,350375.38,350385,2023-09-08T12:00:36Z,350391.78,NULL,Niveau,kiwango,s,usimamizi,mwamali,mshairi,NA,sdfdsf,NA,1,NA,NA,NA,NA,NA,NA,NA,NA,NA,NA,NA,NA,NA,NA,NA,NA,NA,NA,NA
e15de,task,flow.Sequence,3_0_1_0_3,NA,NA,completion,12281.9,338088,338077.2,338093.48,350375.38,350386,2023-09-08T12:00:36Z,350391.78,NULL,Niveau,kiwango,s,usimamizi,mwamali,mshairi,NA,sdfdsf,NA,1,NA,NA,NA,NA,NA,NA,NA,NA,NA,NA,NA,NA,NA,NA,NA,NA,NA,NA,NA
e15de,Deep Question,html.Page,3_0_1_0_4_0_0,NA,NA,form submission,19343.22,350386,350375.38,350391.78,369735,369735,2023-09-08T12:00:55Z,369739.26,NULL,Entwicklung,maendeleo,d,NA,NA,NA,unoshi,NA,NA,1,NA,NA,NA,NA,NA,NA,NA,NA,NA,NA,NA,NA,NA,NA,NA,NA,NA,NA,NA
e15de,"""Richtig""-Screen",canvas.Screen,3_0_1_0_4_0_1,NA,NA,skipped,NA,369738,NA,NA,369735,369739,2023-09-08T12:00:55Z,369739.26,NULL,Entwicklung,maendeleo,d,NA,NA,NA,NA,sdfdsf,NA,1,NA,NA,NA,NA,NA,NA,NA,NA,NA,NA,NA,NA,NA,NA,NA,NA,NA,NA,NA
e15de,"""Falsch""-Screen",canvas.Screen,3_0_1_0_4_0_2,NA,NA,timeout,4999.34,369742,369730.9,369739.26,374722.04,374723,2023-09-08T12:01:00Z,374738.6,NULL,Entwicklung,maendeleo,d,NA,NA,NA,NA,sdfdsf,0,1,NA,NA,NA,NA,NA,NA,NA,NA,NA,NA,NA,NA,NA,NA,NA,NA,NA,NA,NA
e15de,deep,flow.Sequence,3_0_1_0_4_0,NA,NA,completion,24330.26,350386,350375.38,350391.78,374722.04,374724,2023-09-08T12:01:00Z,374738.6,NULL,Entwicklung,maendeleo,d,NA,NA,NA,NA,sdfdsf,NA,1,NA,NA,NA,NA,NA,NA,NA,NA,NA,NA,NA,NA,NA,NA,NA,NA,NA,NA,NA
e15de,shallow,flow.Sequence,3_0_1_0_4_1,NA,NA,skipped,NA,374724,NA,NA,374722.04,374724,2023-09-08T12:01:00Z,374738.6,NULL,Entwicklung,maendeleo,d,NA,NA,NA,NA,sdfdsf,NA,1,NA,NA,NA,NA,NA,NA,NA,NA,NA,NA,NA,NA,NA,NA,NA,NA,NA,NA,NA
e15de,task,flow.Sequence,3_0_1_0_4,NA,NA,completion,24330.26,350386,350375.38,350391.78,374722.04,374725,2023-09-08T12:01:00Z,374738.6,NULL,Entwicklung,maendeleo,d,NA,NA,NA,NA,sdfdsf,NA,1,NA,NA,NA,NA,NA,NA,NA,NA,NA,NA,NA,NA,NA,NA,NA,NA,NA,NA,NA
e15de,Deep Question,html.Page,3_0_1_0_5_0_0,NA,NA,form submission,24358.4,374725,374722.04,374738.6,399097,399098,2023-09-08T12:01:25Z,399102.14,NULL,Vorwurf,mashtaka,d,NA,NA,NA,ungushi,NA,NA,1,NA,NA,NA,NA,NA,NA,NA,NA,NA,NA,NA,NA,NA,NA,NA,NA,NA,NA,NA
e15de,"""Richtig""-Screen",canvas.Screen,3_0_1_0_5_0_1,NA,NA,skipped,NA,399107,NA,NA,399097,399107,2023-09-08T12:01:25Z,399102.14,NULL,Vorwurf,mashtaka,d,NA,NA,NA,NA,sdfdsf,NA,1,NA,NA,NA,NA,NA,NA,NA,NA,NA,NA,NA,NA,NA,NA,NA,NA,NA,NA,NA
e15de,"""Falsch""-Screen",canvas.Screen,3_0_1_0_5_0_2,NA,NA,timeout,4999.36,399111,399090.52,399102.14,404084.78,404087,2023-09-08T12:01:30Z,404101.5,NULL,Vorwurf,mashtaka,d,NA,NA,NA,NA,sdfdsf,0,1,NA,NA,NA,NA,NA,NA,NA,NA,NA,NA,NA,NA,NA,NA,NA,NA,NA,NA,NA
e15de,deep,flow.Sequence,3_0_1_0_5_0,NA,NA,completion,29346.18,374725,374722.04,374738.6,404084.78,404088,2023-09-08T12:01:30Z,404101.5,NULL,Vorwurf,mashtaka,d,NA,NA,NA,NA,sdfdsf,NA,1,NA,NA,NA,NA,NA,NA,NA,NA,NA,NA,NA,NA,NA,NA,NA,NA,NA,NA,NA
e15de,shallow,flow.Sequence,3_0_1_0_5_1,NA,NA,skipped,NA,404089,NA,NA,404084.78,404090,2023-09-08T12:01:30Z,404101.5,NULL,Vorwurf,mashtaka,d,NA,NA,NA,NA,sdfdsf,NA,1,NA,NA,NA,NA,NA,NA,NA,NA,NA,NA,NA,NA,NA,NA,NA,NA,NA,NA,NA
e15de,task,flow.Sequence,3_0_1_0_5,NA,NA,completion,29346.18,374725,374722.04,374738.6,404084.78,404091,2023-09-08T12:01:30Z,404101.5,NULL,Vorwurf,mashtaka,d,NA,NA,NA,NA,sdfdsf,NA,1,NA,NA,NA,NA,NA,NA,NA,NA,NA,NA,NA,NA,NA,NA,NA,NA,NA,NA,NA
e15de,deep,flow.Sequence,3_0_1_0_6_0,NA,NA,skipped,NA,404092,NA,NA,404084.78,404092,2023-09-08T12:01:30Z,404101.5,NULL,Lawine,banguko,s,maambukizi,usuluhishi,chekechea,NA,sdfdsf,NA,1,NA,NA,NA,NA,NA,NA,NA,NA,NA,NA,NA,NA,NA,NA,NA,NA,NA,NA,NA
e15de,Shallow Question,html.Page,3_0_1_0_6_1_0,NA,NA,form submission,5290.5,404093,404084.78,404101.5,409392,409392,2023-09-08T12:01:35Z,409400.78,NULL,Lawine,banguko,s,maambukizi,usuluhishi,chekechea,banguko,NA,NA,1,NA,NA,NA,NA,NA,NA,NA,NA,NA,NA,NA,NA,NA,NA,NA,NA,NA,NA,NA
e15de,"""Richtig""-Screen",canvas.Screen,3_0_1_0_6_1_1,NA,NA,timeout,4999.3799999999,409394,409389.14,409400.78,414383.9,414386,2023-09-08T12:01:40Z,414400.16,NULL,Lawine,banguko,s,maambukizi,usuluhishi,chekechea,NA,sdfdsf,1,1,NA,NA,NA,NA,NA,NA,NA,NA,NA,NA,NA,NA,NA,NA,NA,NA,NA,NA,NA
e15de,"""Falsch""-Screen",canvas.Screen,3_0_1_0_6_1_2,NA,NA,skipped,NA,414392,NA,NA,414383.9,414393,2023-09-08T12:01:40Z,414400.16,NULL,Lawine,banguko,s,maambukizi,usuluhishi,chekechea,NA,sdfdsf,NA,1,NA,NA,NA,NA,NA,NA,NA,NA,NA,NA,NA,NA,NA,NA,NA,NA,NA,NA,NA
e15de,shallow,flow.Sequence,3_0_1_0_6_1,NA,NA,completion,10282.4,404092,404084.78,404101.5,414383.9,414394,2023-09-08T12:01:40Z,414400.16,NULL,Lawine,banguko,s,maambukizi,usuluhishi,chekechea,NA,sdfdsf,NA,1,NA,NA,NA,NA,NA,NA,NA,NA,NA,NA,NA,NA,NA,NA,NA,NA,NA,NA,NA
e15de,task,flow.Sequence,3_0_1_0_6,NA,NA,completion,10282.4,404091,404084.78,404101.5,414383.9,414394,2023-09-08T12:01:40Z,414400.16,NULL,Lawine,banguko,s,maambukizi,usuluhishi,chekechea,NA,sdfdsf,NA,1,NA,NA,NA,NA,NA,NA,NA,NA,NA,NA,NA,NA,NA,NA,NA,NA,NA,NA,NA
e15de,Deep Question,html.Page,3_0_1_0_7_0_0,NA,NA,form submission,16404.84,414396,414383.9,414400.16,430805,430806,2023-09-08T12:01:56Z,430814.64,NULL,Übersicht,kilindo,d,NA,NA,NA,mangoeo,NA,NA,1,NA,NA,NA,NA,NA,NA,NA,NA,NA,NA,NA,NA,NA,NA,NA,NA,NA,NA,NA
e15de,"""Richtig""-Screen",canvas.Screen,3_0_1_0_7_0_1,NA,NA,skipped,NA,430810,NA,NA,430805,430811,2023-09-08T12:01:56Z,430814.64,NULL,Übersicht,kilindo,d,NA,NA,NA,NA,sdfdsf,NA,1,NA,NA,NA,NA,NA,NA,NA,NA,NA,NA,NA,NA,NA,NA,NA,NA,NA,NA,NA
e15de,"""Falsch""-Screen",canvas.Screen,3_0_1_0_7_0_2,NA,NA,timeout,4999.36,430814,430800.38,430814.64,435797.42,435799,2023-09-08T12:02:01Z,435814,NULL,Übersicht,kilindo,d,NA,NA,NA,NA,sdfdsf,0,1,NA,NA,NA,NA,NA,NA,NA,NA,NA,NA,NA,NA,NA,NA,NA,NA,NA,NA,NA
e15de,deep,flow.Sequence,3_0_1_0_7_0,NA,NA,completion,21397.26,414396,414383.9,414400.16,435797.42,435800,2023-09-08T12:02:01Z,435814,NULL,Übersicht,kilindo,d,NA,NA,NA,NA,sdfdsf,NA,1,NA,NA,NA,NA,NA,NA,NA,NA,NA,NA,NA,NA,NA,NA,NA,NA,NA,NA,NA
e15de,shallow,flow.Sequence,3_0_1_0_7_1,NA,NA,skipped,NA,435801,NA,NA,435797.42,435801,2023-09-08T12:02:01Z,435814,NULL,Übersicht,kilindo,d,NA,NA,NA,NA,sdfdsf,NA,1,NA,NA,NA,NA,NA,NA,NA,NA,NA,NA,NA,NA,NA,NA,NA,NA,NA,NA,NA
e15de,task,flow.Sequence,3_0_1_0_7,NA,NA,completion,21397.26,414396,414383.9,414400.16,435797.42,435801,2023-09-08T12:02:01Z,435814,NULL,Übersicht,kilindo,d,NA,NA,NA,NA,sdfdsf,NA,1,NA,NA,NA,NA,NA,NA,NA,NA,NA,NA,NA,NA,NA,NA,NA,NA,NA,NA,NA
e15de,block,flow.Loop,3_0_1_0,NA,NA,completion,133505.44,302291,302291.66,302291.98,435797.42,435801,2023-09-08T12:02:01Z,435814,NULL,NA,NA,NA,NA,NA,NA,NA,sdfdsf,NA,1,NA,NA,NA,NA,NA,NA,NA,NA,NA,NA,NA,NA,NA,NA,NA,NA,NA,NA,NA
e15de,weiter,canvas.Screen,3_0_1_1,sdf,keypress(Space),response,1345,435802,435797.42,435814,437159,437173,2023-09-08T12:02:03Z,437231.1,NULL,NA,NA,NA,NA,NA,NA,NA,sdfdsf,NA,1,NA,NA,NA,NA,NA,NA,NA,NA,NA,NA,NA,NA,NA,NA,NA,NA,NA,NA,NA
e15de,check continue,flow.Sequence,3_0_1,NA,NA,completion,134867.02,302291,302291.66,302291.98,437159,437173,2023-09-08T12:02:03Z,437231.1,NULL,NA,NA,NA,NA,NA,NA,NA,sdfdsf,NA,1,NA,NA,NA,NA,NA,NA,NA,NA,NA,NA,NA,NA,NA,NA,NA,NA,NA,NA,NA
e15de,deep,flow.Sequence,3_0_2_0_0_0,NA,NA,skipped,NA,437231,NA,NA,437159,437231,2023-09-08T12:02:03Z,437231.1,NULL,Niveau,kiwango,s,usimamizi,mwamali,mshairi,NA,sdf,NA,2,NA,NA,NA,NA,NA,NA,NA,NA,NA,NA,NA,NA,NA,NA,NA,NA,NA,NA,NA
e15de,Shallow Question,html.Page,3_0_2_0_0_1_0,NA,NA,form submission,6338.9,437231,437230.76,437231.1,443570,443571,2023-09-08T12:02:09Z,443579.62,NULL,Niveau,kiwango,s,usimamizi,mwamali,mshairi,kiwango,NA,NA,2,NA,NA,NA,NA,NA,NA,NA,NA,NA,NA,NA,NA,NA,NA,NA,NA,NA,NA,NA
e15de,"""Richtig""-Screen",canvas.Screen,3_0_2_0_0_1_1,NA,NA,timeout,4999.4,443576,443564.78,443579.62,448562.46,448564,2023-09-08T12:02:14Z,448579.02,NULL,Niveau,kiwango,s,usimamizi,mwamali,mshairi,NA,sdf,1,2,NA,NA,NA,NA,NA,NA,NA,NA,NA,NA,NA,NA,NA,NA,NA,NA,NA,NA,NA
e15de,"""Falsch""-Screen",canvas.Screen,3_0_2_0_0_1_2,NA,NA,skipped,NA,448570,NA,NA,448562.46,448570,2023-09-08T12:02:14Z,448579.02,NULL,Niveau,kiwango,s,usimamizi,mwamali,mshairi,NA,sdf,NA,2,NA,NA,NA,NA,NA,NA,NA,NA,NA,NA,NA,NA,NA,NA,NA,NA,NA,NA,NA
e15de,shallow,flow.Sequence,3_0_2_0_0_1,NA,NA,completion,11331.36,437231,437230.76,437231.1,448562.46,448570,2023-09-08T12:02:14Z,448579.02,NULL,Niveau,kiwango,s,usimamizi,mwamali,mshairi,NA,sdf,NA,2,NA,NA,NA,NA,NA,NA,NA,NA,NA,NA,NA,NA,NA,NA,NA,NA,NA,NA,NA
e15de,task,flow.Sequence,3_0_2_0_0,NA,NA,completion,11331.36,437231,437230.76,437231.1,448562.46,448571,2023-09-08T12:02:14Z,448579.02,NULL,Niveau,kiwango,s,usimamizi,mwamali,mshairi,NA,sdf,NA,2,NA,NA,NA,NA,NA,NA,NA,NA,NA,NA,NA,NA,NA,NA,NA,NA,NA,NA,NA
e15de,Deep Question,html.Page,3_0_2_0_1_0_0,NA,NA,form submission,8230.98,448571,448562.46,448579.02,456810,456810,2023-09-08T12:02:22Z,456811.2,NULL,Entwicklung,maendeleo,d,NA,NA,NA,mangaleo,NA,NA,2,NA,NA,NA,NA,NA,NA,NA,NA,NA,NA,NA,NA,NA,NA,NA,NA,NA,NA,NA
e15de,"""Richtig""-Screen",canvas.Screen,3_0_2_0_1_0_1,NA,NA,skipped,NA,456812,NA,NA,456810,456812,2023-09-08T12:02:22Z,456811.2,NULL,Entwicklung,maendeleo,d,NA,NA,NA,NA,sdf,NA,2,NA,NA,NA,NA,NA,NA,NA,NA,NA,NA,NA,NA,NA,NA,NA,NA,NA,NA,NA
e15de,"""Falsch""-Screen",canvas.Screen,3_0_2_0_1_0_2,NA,NA,timeout,4999.42,456813,456809.26,456811.2,461794.24,461795,2023-09-08T12:02:27Z,461810.62,NULL,Entwicklung,maendeleo,d,NA,NA,NA,NA,sdf,0,2,NA,NA,NA,NA,NA,NA,NA,NA,NA,NA,NA,NA,NA,NA,NA,NA,NA,NA,NA
e15de,deep,flow.Sequence,3_0_2_0_1_0,NA,NA,completion,13215.22,448571,448562.46,448579.02,461794.24,461796,2023-09-08T12:02:27Z,461810.62,NULL,Entwicklung,maendeleo,d,NA,NA,NA,NA,sdf,NA,2,NA,NA,NA,NA,NA,NA,NA,NA,NA,NA,NA,NA,NA,NA,NA,NA,NA,NA,NA
e15de,shallow,flow.Sequence,3_0_2_0_1_1,NA,NA,skipped,NA,461796,NA,NA,461794.24,461796,2023-09-08T12:02:27Z,461810.62,NULL,Entwicklung,maendeleo,d,NA,NA,NA,NA,sdf,NA,2,NA,NA,NA,NA,NA,NA,NA,NA,NA,NA,NA,NA,NA,NA,NA,NA,NA,NA,NA
e15de,task,flow.Sequence,3_0_2_0_1,NA,NA,completion,13215.22,448571,448562.46,448579.02,461794.24,461797,2023-09-08T12:02:27Z,461810.62,NULL,Entwicklung,maendeleo,d,NA,NA,NA,NA,sdf,NA,2,NA,NA,NA,NA,NA,NA,NA,NA,NA,NA,NA,NA,NA,NA,NA,NA,NA,NA,NA
e15de,Deep Question,html.Page,3_0_2_0_2_0_0,NA,NA,form submission,19408.38,461797,461794.24,461810.62,481219,481219,2023-09-08T12:02:47Z,481224.68,NULL,Körper,kiwiliwili,d,NA,NA,NA,kiwiliwili,NA,NA,2,NA,NA,NA,NA,NA,NA,NA,NA,NA,NA,NA,NA,NA,NA,NA,NA,NA,NA,NA
e15de,"""Richtig""-Screen",canvas.Screen,3_0_2_0_2_0_1,NA,NA,timeout,4999.44,481221,481216.96,481224.68,486207.5,486208,2023-09-08T12:02:52Z,486224.12,NULL,Körper,kiwiliwili,d,NA,NA,NA,NA,sdf,1,2,NA,NA,NA,NA,NA,NA,NA,NA,NA,NA,NA,NA,NA,NA,NA,NA,NA,NA,NA
e15de,"""Falsch""-Screen",canvas.Screen,3_0_2_0_2_0_2,NA,NA,skipped,NA,486216,NA,NA,486207.5,486216,2023-09-08T12:02:52Z,486224.12,NULL,Körper,kiwiliwili,d,NA,NA,NA,NA,sdf,NA,2,NA,NA,NA,NA,NA,NA,NA,NA,NA,NA,NA,NA,NA,NA,NA,NA,NA,NA,NA
e15de,deep,flow.Sequence,3_0_2_0_2_0,NA,NA,completion,24396.88,461797,461794.24,461810.62,486207.5,486217,2023-09-08T12:02:52Z,486224.12,NULL,Körper,kiwiliwili,d,NA,NA,NA,NA,sdf,NA,2,NA,NA,NA,NA,NA,NA,NA,NA,NA,NA,NA,NA,NA,NA,NA,NA,NA,NA,NA
e15de,shallow,flow.Sequence,3_0_2_0_2_1,NA,NA,skipped,NA,486217,NA,NA,486207.5,486217,2023-09-08T12:02:52Z,486224.12,NULL,Körper,kiwiliwili,d,NA,NA,NA,NA,sdf,NA,2,NA,NA,NA,NA,NA,NA,NA,NA,NA,NA,NA,NA,NA,NA,NA,NA,NA,NA,NA
e15de,task,flow.Sequence,3_0_2_0_2,NA,NA,completion,24396.88,461797,461794.24,461810.62,486207.5,486218,2023-09-08T12:02:52Z,486224.12,NULL,Körper,kiwiliwili,d,NA,NA,NA,NA,sdf,NA,2,NA,NA,NA,NA,NA,NA,NA,NA,NA,NA,NA,NA,NA,NA,NA,NA,NA,NA,NA
e15de,deep,flow.Sequence,3_0_2_0_3_0,NA,NA,skipped,NA,486218,NA,NA,486207.5,486218,2023-09-08T12:02:52Z,486224.12,NULL,Lawine,banguko,s,maambukizi,usuluhishi,chekechea,NA,sdf,NA,2,NA,NA,NA,NA,NA,NA,NA,NA,NA,NA,NA,NA,NA,NA,NA,NA,NA,NA,NA
e15de,Shallow Question,html.Page,3_0_2_0_3_1_0,NA,NA,form submission,4682.88,486219,486207.5,486224.12,490907,490908,2023-09-08T12:02:56Z,490906.9,NULL,Lawine,banguko,s,maambukizi,usuluhishi,chekechea,banguko,NA,NA,2,NA,NA,NA,NA,NA,NA,NA,NA,NA,NA,NA,NA,NA,NA,NA,NA,NA,NA,NA
e15de,"""Richtig""-Screen",canvas.Screen,3_0_2_0_3_1_1,NA,NA,timeout,4999.24,490912,490902.1,490906.9,495889.6,495891,2023-09-08T12:03:01Z,495906.14,NULL,Lawine,banguko,s,maambukizi,usuluhishi,chekechea,NA,sdf,1,2,NA,NA,NA,NA,NA,NA,NA,NA,NA,NA,NA,NA,NA,NA,NA,NA,NA,NA,NA
e15de,"""Falsch""-Screen",canvas.Screen,3_0_2_0_3_1_2,NA,NA,skipped,NA,495897,NA,NA,495889.6,495897,2023-09-08T12:03:01Z,495906.14,NULL,Lawine,banguko,s,maambukizi,usuluhishi,chekechea,NA,sdf,NA,2,NA,NA,NA,NA,NA,NA,NA,NA,NA,NA,NA,NA,NA,NA,NA,NA,NA,NA,NA
e15de,shallow,flow.Sequence,3_0_2_0_3_1,NA,NA,completion,9665.48,486218,486207.5,486224.12,495889.6,495898,2023-09-08T12:03:01Z,495906.14,NULL,Lawine,banguko,s,maambukizi,usuluhishi,chekechea,NA,sdf,NA,2,NA,NA,NA,NA,NA,NA,NA,NA,NA,NA,NA,NA,NA,NA,NA,NA,NA,NA,NA
e15de,task,flow.Sequence,3_0_2_0_3,NA,NA,completion,9665.48,486218,486207.5,486224.12,495889.6,495898,2023-09-08T12:03:01Z,495906.14,NULL,Lawine,banguko,s,maambukizi,usuluhishi,chekechea,NA,sdf,NA,2,NA,NA,NA,NA,NA,NA,NA,NA,NA,NA,NA,NA,NA,NA,NA,NA,NA,NA,NA
e15de,Deep Question,html.Page,3_0_2_0_4_0_0,NA,NA,form submission,11794.86,495899,495889.6,495906.14,507701,507705,2023-09-08T12:03:13Z,507704.8,NULL,Übersicht,kilindo,d,NA,NA,NA,kanguaka,NA,NA,2,NA,NA,NA,NA,NA,NA,NA,NA,NA,NA,NA,NA,NA,NA,NA,NA,NA,NA,NA
e15de,"""Richtig""-Screen",canvas.Screen,3_0_2_0_4_0_1,NA,NA,skipped,NA,507713,NA,NA,507701,507713,2023-09-08T12:03:13Z,507704.8,NULL,Übersicht,kilindo,d,NA,NA,NA,NA,sdf,NA,2,NA,NA,NA,NA,NA,NA,NA,NA,NA,NA,NA,NA,NA,NA,NA,NA,NA,NA,NA
e15de,"""Falsch""-Screen",canvas.Screen,3_0_2_0_4_0_2,NA,NA,timeout,4999.18,507716,507691,507704.8,512687.44,512689,2023-09-08T12:03:18Z,512703.98,NULL,Übersicht,kilindo,d,NA,NA,NA,NA,sdf,0,2,NA,NA,NA,NA,NA,NA,NA,NA,NA,NA,NA,NA,NA,NA,NA,NA,NA,NA,NA
e15de,deep,flow.Sequence,3_0_2_0_4_0,NA,NA,completion,16781.3,495899,495889.6,495906.14,512687.44,512690,2023-09-08T12:03:18Z,512703.98,NULL,Übersicht,kilindo,d,NA,NA,NA,NA,sdf,NA,2,NA,NA,NA,NA,NA,NA,NA,NA,NA,NA,NA,NA,NA,NA,NA,NA,NA,NA,NA
e15de,shallow,flow.Sequence,3_0_2_0_4_1,NA,NA,skipped,NA,512691,NA,NA,512687.44,512691,2023-09-08T12:03:18Z,512703.98,NULL,Übersicht,kilindo,d,NA,NA,NA,NA,sdf,NA,2,NA,NA,NA,NA,NA,NA,NA,NA,NA,NA,NA,NA,NA,NA,NA,NA,NA,NA,NA
e15de,task,flow.Sequence,3_0_2_0_4,NA,NA,completion,16781.3,495899,495889.6,495906.14,512687.44,512692,2023-09-08T12:03:18Z,512703.98,NULL,Übersicht,kilindo,d,NA,NA,NA,NA,sdf,NA,2,NA,NA,NA,NA,NA,NA,NA,NA,NA,NA,NA,NA,NA,NA,NA,NA,NA,NA,NA
e15de,deep,flow.Sequence,3_0_2_0_5_0,NA,NA,skipped,NA,512692,NA,NA,512687.44,512693,2023-09-08T12:03:18Z,512703.98,NULL,System,maongozi,s,chokochoko,nuksani,mitaani,NA,sdf,NA,2,NA,NA,NA,NA,NA,NA,NA,NA,NA,NA,NA,NA,NA,NA,NA,NA,NA,NA,NA
e15de,Shallow Question,html.Page,3_0_2_0_5_1_0,NA,NA,form submission,9292.02,512693,512687.44,512703.98,521996,521996,2023-09-08T12:03:27Z,522002.74,NULL,System,maongozi,s,chokochoko,nuksani,mitaani,maongozi,NA,NA,2,NA,NA,NA,NA,NA,NA,NA,NA,NA,NA,NA,NA,NA,NA,NA,NA,NA,NA,NA
e15de,"""Richtig""-Screen",canvas.Screen,3_0_2_0_5_1_1,NA,NA,timeout,4999.4400000001,521998,521993.8,522002.74,526985.62,526987,2023-09-08T12:03:32Z,527002.18,NULL,System,maongozi,s,chokochoko,nuksani,mitaani,NA,sdf,1,2,NA,NA,NA,NA,NA,NA,NA,NA,NA,NA,NA,NA,NA,NA,NA,NA,NA,NA,NA
e15de,"""Falsch""-Screen",canvas.Screen,3_0_2_0_5_1_2,NA,NA,skipped,NA,526991,NA,NA,526985.62,526991,2023-09-08T12:03:32Z,527002.18,NULL,System,maongozi,s,chokochoko,nuksani,mitaani,NA,sdf,NA,2,NA,NA,NA,NA,NA,NA,NA,NA,NA,NA,NA,NA,NA,NA,NA,NA,NA,NA,NA
e15de,shallow,flow.Sequence,3_0_2_0_5_1,NA,NA,completion,14281.64,512693,512687.44,512703.98,526985.62,526991,2023-09-08T12:03:32Z,527002.18,NULL,System,maongozi,s,chokochoko,nuksani,mitaani,NA,sdf,NA,2,NA,NA,NA,NA,NA,NA,NA,NA,NA,NA,NA,NA,NA,NA,NA,NA,NA,NA,NA
e15de,task,flow.Sequence,3_0_2_0_5,NA,NA,completion,14281.64,512692,512687.44,512703.98,526985.62,526991,2023-09-08T12:03:32Z,527002.18,NULL,System,maongozi,s,chokochoko,nuksani,mitaani,NA,sdf,NA,2,NA,NA,NA,NA,NA,NA,NA,NA,NA,NA,NA,NA,NA,NA,NA,NA,NA,NA,NA
e15de,Deep Question,html.Page,3_0_2_0_6_0_0,NA,NA,form submission,11567.82,526992,526985.62,527002.18,538570,538570,2023-09-08T12:03:44Z,538584.18,NULL,Vorwurf,mashtaka,d,NA,NA,NA,mataka,NA,NA,2,NA,NA,NA,NA,NA,NA,NA,NA,NA,NA,NA,NA,NA,NA,NA,NA,NA,NA,NA
e15de,"""Richtig""-Screen",canvas.Screen,3_0_2_0_6_0_1,NA,NA,skipped,NA,538571,NA,NA,538570,538571,2023-09-08T12:03:44Z,538584.18,NULL,Vorwurf,mashtaka,d,NA,NA,NA,NA,sdf,NA,2,NA,NA,NA,NA,NA,NA,NA,NA,NA,NA,NA,NA,NA,NA,NA,NA,NA,NA,NA
e15de,"""Falsch""-Screen",canvas.Screen,3_0_2_0_6_0_2,NA,NA,timeout,4999.12,538572,538568.32,538584.18,543566.76,543568,2023-09-08T12:03:49Z,543583.3,NULL,Vorwurf,mashtaka,d,NA,NA,NA,NA,sdf,0,2,NA,NA,NA,NA,NA,NA,NA,NA,NA,NA,NA,NA,NA,NA,NA,NA,NA,NA,NA
e15de,deep,flow.Sequence,3_0_2_0_6_0,NA,NA,completion,16564.58,526991,526985.62,527002.18,543566.76,543569,2023-09-08T12:03:49Z,543583.3,NULL,Vorwurf,mashtaka,d,NA,NA,NA,NA,sdf,NA,2,NA,NA,NA,NA,NA,NA,NA,NA,NA,NA,NA,NA,NA,NA,NA,NA,NA,NA,NA
e15de,shallow,flow.Sequence,3_0_2_0_6_1,NA,NA,skipped,NA,543569,NA,NA,543566.76,543570,2023-09-08T12:03:49Z,543583.3,NULL,Vorwurf,mashtaka,d,NA,NA,NA,NA,sdf,NA,2,NA,NA,NA,NA,NA,NA,NA,NA,NA,NA,NA,NA,NA,NA,NA,NA,NA,NA,NA
e15de,task,flow.Sequence,3_0_2_0_6,NA,NA,completion,16564.58,526991,526985.62,527002.18,543566.76,543570,2023-09-08T12:03:49Z,543583.3,NULL,Vorwurf,mashtaka,d,NA,NA,NA,NA,sdf,NA,2,NA,NA,NA,NA,NA,NA,NA,NA,NA,NA,NA,NA,NA,NA,NA,NA,NA,NA,NA
e15de,deep,flow.Sequence,3_0_2_0_7_0,NA,NA,skipped,NA,543571,NA,NA,543566.76,543571,2023-09-08T12:03:49Z,543583.3,NULL,Papier,karatasi,s,uchambuzi,usalama,kukataliwa,NA,sdf,NA,2,NA,NA,NA,NA,NA,NA,NA,NA,NA,NA,NA,NA,NA,NA,NA,NA,NA,NA,NA
e15de,Shallow Question,html.Page,3_0_2_0_7_1_0,NA,NA,form submission,3983.7,543572,543566.76,543583.3,547567,547568,2023-09-08T12:03:53Z,547566.02,NULL,Papier,karatasi,s,uchambuzi,usalama,kukataliwa,karatasi,NA,NA,2,NA,NA,NA,NA,NA,NA,NA,NA,NA,NA,NA,NA,NA,NA,NA,NA,NA,NA,NA
e15de,"""Richtig""-Screen",canvas.Screen,3_0_2_0_7_1_1,NA,NA,timeout,4999.36,547574,547561.6,547566.02,552548.82,552549,2023-09-08T12:03:58Z,552565.38,NULL,Papier,karatasi,s,uchambuzi,usalama,kukataliwa,NA,sdf,1,2,NA,NA,NA,NA,NA,NA,NA,NA,NA,NA,NA,NA,NA,NA,NA,NA,NA,NA,NA
e15de,"""Falsch""-Screen",canvas.Screen,3_0_2_0_7_1_2,NA,NA,skipped,NA,552553,NA,NA,552548.82,552553,2023-09-08T12:03:58Z,552565.38,NULL,Papier,karatasi,s,uchambuzi,usalama,kukataliwa,NA,sdf,NA,2,NA,NA,NA,NA,NA,NA,NA,NA,NA,NA,NA,NA,NA,NA,NA,NA,NA,NA,NA
e15de,shallow,flow.Sequence,3_0_2_0_7_1,NA,NA,completion,8965.5199999999,543571,543566.76,543583.3,552548.82,552554,2023-09-08T12:03:58Z,552565.38,NULL,Papier,karatasi,s,uchambuzi,usalama,kukataliwa,NA,sdf,NA,2,NA,NA,NA,NA,NA,NA,NA,NA,NA,NA,NA,NA,NA,NA,NA,NA,NA,NA,NA
e15de,task,flow.Sequence,3_0_2_0_7,NA,NA,completion,8965.5199999999,543570,543566.76,543583.3,552548.82,552554,2023-09-08T12:03:58Z,552565.38,NULL,Papier,karatasi,s,uchambuzi,usalama,kukataliwa,NA,sdf,NA,2,NA,NA,NA,NA,NA,NA,NA,NA,NA,NA,NA,NA,NA,NA,NA,NA,NA,NA,NA
e15de,block,flow.Loop,3_0_2_0,NA,NA,completion,115317.72,437231,437230.76,437231.1,552548.82,552554,2023-09-08T12:03:58Z,552565.38,NULL,NA,NA,NA,NA,NA,NA,NA,sdf,NA,2,NA,NA,NA,NA,NA,NA,NA,NA,NA,NA,NA,NA,NA,NA,NA,NA,NA,NA,NA
e15de,weiter,canvas.Screen,3_0_2_1,sdf,keypress(Space),response,1093.62,552555,552548.82,552565.38,553659,553672,2023-09-08T12:03:59Z,553735.06,NULL,NA,NA,NA,NA,NA,NA,NA,sdf,NA,2,NA,NA,NA,NA,NA,NA,NA,NA,NA,NA,NA,NA,NA,NA,NA,NA,NA,NA,NA
e15de,check continue,flow.Sequence,3_0_2,NA,NA,completion,116427.9,437231,437230.76,437231.1,553659,553673,2023-09-08T12:03:59Z,553735.06,NULL,NA,NA,NA,NA,NA,NA,NA,sdf,NA,2,NA,NA,NA,NA,NA,NA,NA,NA,NA,NA,NA,NA,NA,NA,NA,NA,NA,NA,NA
e15de,Deep Question,html.Page,3_0_3_0_0_0_0,NA,NA,form submission,7382.9399999999,553735,553734.74,553735.06,561118,561118,2023-09-08T12:04:07Z,561131.02,NULL,Übersicht,kilindo,d,NA,NA,NA,kilindo,NA,NA,3,NA,NA,NA,NA,NA,NA,NA,NA,NA,NA,NA,NA,NA,NA,NA,NA,NA,NA,NA
e15de,"""Richtig""-Screen",canvas.Screen,3_0_3_0_0_0_1,NA,NA,timeout,4999.3199999999,561120,561114.82,561131.02,566114.12,566118,2023-09-08T12:04:12Z,566130.34,NULL,Übersicht,kilindo,d,NA,NA,NA,NA,qt,1,3,NA,NA,NA,NA,NA,NA,NA,NA,NA,NA,NA,NA,NA,NA,NA,NA,NA,NA,NA
e15de,"""Falsch""-Screen",canvas.Screen,3_0_3_0_0_0_2,NA,NA,skipped,NA,566134,NA,NA,566114.12,566134,2023-09-08T12:04:12Z,566130.34,NULL,Übersicht,kilindo,d,NA,NA,NA,NA,qt,NA,3,NA,NA,NA,NA,NA,NA,NA,NA,NA,NA,NA,NA,NA,NA,NA,NA,NA,NA,NA
e15de,deep,flow.Sequence,3_0_3_0_0_0,NA,NA,completion,12379.06,553735,553734.74,553735.06,566114.12,566134,2023-09-08T12:04:12Z,566130.34,NULL,Übersicht,kilindo,d,NA,NA,NA,NA,qt,NA,3,NA,NA,NA,NA,NA,NA,NA,NA,NA,NA,NA,NA,NA,NA,NA,NA,NA,NA,NA
e15de,shallow,flow.Sequence,3_0_3_0_0_1,NA,NA,skipped,NA,566134,NA,NA,566114.12,566134,2023-09-08T12:04:12Z,566130.34,NULL,Übersicht,kilindo,d,NA,NA,NA,NA,qt,NA,3,NA,NA,NA,NA,NA,NA,NA,NA,NA,NA,NA,NA,NA,NA,NA,NA,NA,NA,NA
e15de,task,flow.Sequence,3_0_3_0_0,NA,NA,completion,12379.06,553735,553734.74,553735.06,566114.12,566135,2023-09-08T12:04:12Z,566130.34,NULL,Übersicht,kilindo,d,NA,NA,NA,NA,qt,NA,3,NA,NA,NA,NA,NA,NA,NA,NA,NA,NA,NA,NA,NA,NA,NA,NA,NA,NA,NA
e15de,Deep Question,html.Page,3_0_3_0_1_0_0,NA,NA,form submission,8713.66,566135,566114.12,566130.34,574844,574844,2023-09-08T12:04:20Z,574845.96,NULL,Entwicklung,maendeleo,d,NA,NA,NA,maendeleo,NA,NA,3,NA,NA,NA,NA,NA,NA,NA,NA,NA,NA,NA,NA,NA,NA,NA,NA,NA,NA,NA
e15de,"""Richtig""-Screen",canvas.Screen,3_0_3_0_1_0_1,NA,NA,timeout,4999.26,574849,574838.38,574845.96,579828.58,579830,2023-09-08T12:04:25Z,579845.22,NULL,Entwicklung,maendeleo,d,NA,NA,NA,NA,qt,1,3,NA,NA,NA,NA,NA,NA,NA,NA,NA,NA,NA,NA,NA,NA,NA,NA,NA,NA,NA
e15de,"""Falsch""-Screen",canvas.Screen,3_0_3_0_1_0_2,NA,NA,skipped,NA,579834,NA,NA,579828.58,579835,2023-09-08T12:04:25Z,579845.22,NULL,Entwicklung,maendeleo,d,NA,NA,NA,NA,qt,NA,3,NA,NA,NA,NA,NA,NA,NA,NA,NA,NA,NA,NA,NA,NA,NA,NA,NA,NA,NA
e15de,deep,flow.Sequence,3_0_3_0_1_0,NA,NA,completion,13698.24,566135,566114.12,566130.34,579828.58,579835,2023-09-08T12:04:25Z,579845.22,NULL,Entwicklung,maendeleo,d,NA,NA,NA,NA,qt,NA,3,NA,NA,NA,NA,NA,NA,NA,NA,NA,NA,NA,NA,NA,NA,NA,NA,NA,NA,NA
e15de,shallow,flow.Sequence,3_0_3_0_1_1,NA,NA,skipped,NA,579835,NA,NA,579828.58,579836,2023-09-08T12:04:25Z,579845.22,NULL,Entwicklung,maendeleo,d,NA,NA,NA,NA,qt,NA,3,NA,NA,NA,NA,NA,NA,NA,NA,NA,NA,NA,NA,NA,NA,NA,NA,NA,NA,NA
e15de,task,flow.Sequence,3_0_3_0_1,NA,NA,completion,13698.24,566135,566114.12,566130.34,579828.58,579836,2023-09-08T12:04:25Z,579845.22,NULL,Entwicklung,maendeleo,d,NA,NA,NA,NA,qt,NA,3,NA,NA,NA,NA,NA,NA,NA,NA,NA,NA,NA,NA,NA,NA,NA,NA,NA,NA,NA
e15de,Deep Question,html.Page,3_0_3_0_2_0_0,NA,NA,form submission,9946.78,579837,579828.58,579845.22,589792,589793,2023-09-08T12:04:35Z,589793.92,NULL,Vorwurf,mashtaka,d,NA,NA,NA,mashaka,NA,NA,3,NA,NA,NA,NA,NA,NA,NA,NA,NA,NA,NA,NA,NA,NA,NA,NA,NA,NA,NA
e15de,"""Richtig""-Screen",canvas.Screen,3_0_3_0_2_0_1,NA,NA,skipped,NA,589797,NA,NA,589792,589797,2023-09-08T12:04:35Z,589793.92,NULL,Vorwurf,mashtaka,d,NA,NA,NA,NA,qt,NA,3,NA,NA,NA,NA,NA,NA,NA,NA,NA,NA,NA,NA,NA,NA,NA,NA,NA,NA,NA
e15de,"""Falsch""-Screen",canvas.Screen,3_0_3_0_2_0_2,NA,NA,timeout,4999.36,589800,589786.56,589793.92,594777.06,594778,2023-09-08T12:04:40Z,594793.28,NULL,Vorwurf,mashtaka,d,NA,NA,NA,NA,qt,0,3,NA,NA,NA,NA,NA,NA,NA,NA,NA,NA,NA,NA,NA,NA,NA,NA,NA,NA,NA
e15de,deep,flow.Sequence,3_0_3_0_2_0,NA,NA,completion,14931.84,579836,579828.58,579845.22,594777.06,594779,2023-09-08T12:04:40Z,594793.28,NULL,Vorwurf,mashtaka,d,NA,NA,NA,NA,qt,NA,3,NA,NA,NA,NA,NA,NA,NA,NA,NA,NA,NA,NA,NA,NA,NA,NA,NA,NA,NA
e15de,shallow,flow.Sequence,3_0_3_0_2_1,NA,NA,skipped,NA,594779,NA,NA,594777.06,594779,2023-09-08T12:04:40Z,594793.28,NULL,Vorwurf,mashtaka,d,NA,NA,NA,NA,qt,NA,3,NA,NA,NA,NA,NA,NA,NA,NA,NA,NA,NA,NA,NA,NA,NA,NA,NA,NA,NA
e15de,task,flow.Sequence,3_0_3_0_2,NA,NA,completion,14931.84,579836,579828.58,579845.22,594777.06,594780,2023-09-08T12:04:40Z,594793.28,NULL,Vorwurf,mashtaka,d,NA,NA,NA,NA,qt,NA,3,NA,NA,NA,NA,NA,NA,NA,NA,NA,NA,NA,NA,NA,NA,NA,NA,NA,NA,NA
e15de,deep,flow.Sequence,3_0_3_0_3_0,NA,NA,skipped,NA,594781,NA,NA,594777.06,594781,2023-09-08T12:04:40Z,594793.28,NULL,Papier,karatasi,s,uchambuzi,usalama,kukataliwa,NA,qt,NA,3,NA,NA,NA,NA,NA,NA,NA,NA,NA,NA,NA,NA,NA,NA,NA,NA,NA,NA,NA
e15de,Shallow Question,html.Page,3_0_3_0_3_1_0,NA,NA,form submission,3334.72,594782,594777.06,594793.28,598128,598129,2023-09-08T12:04:44Z,598126.14,NULL,Papier,karatasi,s,uchambuzi,usalama,kukataliwa,karatasi,NA,NA,3,NA,NA,NA,NA,NA,NA,NA,NA,NA,NA,NA,NA,NA,NA,NA,NA,NA,NA,NA
e15de,"""Richtig""-Screen",canvas.Screen,3_0_3_0_3_1_1,NA,NA,timeout,4999.38,598135,598122.3,598126.14,603108.9,603110,2023-09-08T12:04:49Z,603125.52,NULL,Papier,karatasi,s,uchambuzi,usalama,kukataliwa,NA,qt,1,3,NA,NA,NA,NA,NA,NA,NA,NA,NA,NA,NA,NA,NA,NA,NA,NA,NA,NA,NA
e15de,"""Falsch""-Screen",canvas.Screen,3_0_3_0_3_1_2,NA,NA,skipped,NA,603114,NA,NA,603108.9,603114,2023-09-08T12:04:49Z,603125.52,NULL,Papier,karatasi,s,uchambuzi,usalama,kukataliwa,NA,qt,NA,3,NA,NA,NA,NA,NA,NA,NA,NA,NA,NA,NA,NA,NA,NA,NA,NA,NA,NA,NA
e15de,shallow,flow.Sequence,3_0_3_0_3_1,NA,NA,completion,8315.62,594782,594777.06,594793.28,603108.9,603115,2023-09-08T12:04:49Z,603125.52,NULL,Papier,karatasi,s,uchambuzi,usalama,kukataliwa,NA,qt,NA,3,NA,NA,NA,NA,NA,NA,NA,NA,NA,NA,NA,NA,NA,NA,NA,NA,NA,NA,NA
e15de,task,flow.Sequence,3_0_3_0_3,NA,NA,completion,8315.62,594780,594777.06,594793.28,603108.9,603115,2023-09-08T12:04:49Z,603125.52,NULL,Papier,karatasi,s,uchambuzi,usalama,kukataliwa,NA,qt,NA,3,NA,NA,NA,NA,NA,NA,NA,NA,NA,NA,NA,NA,NA,NA,NA,NA,NA,NA,NA
e15de,Deep Question,html.Page,3_0_3_0_4_0_0,NA,NA,form submission,9548.48,603115,603108.9,603125.52,612674,612675,2023-09-08T12:04:58Z,612674.28,NULL,Körper,kiwiliwili,d,NA,NA,NA,kiwiliwili,NA,NA,3,NA,NA,NA,NA,NA,NA,NA,NA,NA,NA,NA,NA,NA,NA,NA,NA,NA,NA,NA
e15de,"""Richtig""-Screen",canvas.Screen,3_0_3_0_4_0_1,NA,NA,timeout,4999.4399999999,612678,612671.08,612674.28,617657.06,617658,2023-09-08T12:05:03Z,617673.72,NULL,Körper,kiwiliwili,d,NA,NA,NA,NA,qt,1,3,NA,NA,NA,NA,NA,NA,NA,NA,NA,NA,NA,NA,NA,NA,NA,NA,NA,NA,NA
e15de,"""Falsch""-Screen",canvas.Screen,3_0_3_0_4_0_2,NA,NA,skipped,NA,617661,NA,NA,617657.06,617662,2023-09-08T12:05:03Z,617673.72,NULL,Körper,kiwiliwili,d,NA,NA,NA,NA,qt,NA,3,NA,NA,NA,NA,NA,NA,NA,NA,NA,NA,NA,NA,NA,NA,NA,NA,NA,NA,NA
e15de,deep,flow.Sequence,3_0_3_0_4_0,NA,NA,completion,14531.54,603115,603108.9,603125.52,617657.06,617662,2023-09-08T12:05:03Z,617673.72,NULL,Körper,kiwiliwili,d,NA,NA,NA,NA,qt,NA,3,NA,NA,NA,NA,NA,NA,NA,NA,NA,NA,NA,NA,NA,NA,NA,NA,NA,NA,NA
e15de,shallow,flow.Sequence,3_0_3_0_4_1,NA,NA,skipped,NA,617662,NA,NA,617657.06,617662,2023-09-08T12:05:03Z,617673.72,NULL,Körper,kiwiliwili,d,NA,NA,NA,NA,qt,NA,3,NA,NA,NA,NA,NA,NA,NA,NA,NA,NA,NA,NA,NA,NA,NA,NA,NA,NA,NA
e15de,task,flow.Sequence,3_0_3_0_4,NA,NA,completion,14531.54,603115,603108.9,603125.52,617657.06,617662,2023-09-08T12:05:03Z,617673.72,NULL,Körper,kiwiliwili,d,NA,NA,NA,NA,qt,NA,3,NA,NA,NA,NA,NA,NA,NA,NA,NA,NA,NA,NA,NA,NA,NA,NA,NA,NA,NA
e15de,deep,flow.Sequence,3_0_3_0_5_0,NA,NA,skipped,NA,617662,NA,NA,617657.06,617662,2023-09-08T12:05:03Z,617673.72,NULL,System,maongozi,s,chokochoko,nuksani,mitaani,NA,qt,NA,3,NA,NA,NA,NA,NA,NA,NA,NA,NA,NA,NA,NA,NA,NA,NA,NA,NA,NA,NA
e15de,Shallow Question,html.Page,3_0_3_0_5_1_0,NA,NA,form submission,3971.28,617663,617657.06,617673.72,621645,621645,2023-09-08T12:05:07Z,621639.68,NULL,System,maongozi,s,chokochoko,nuksani,mitaani,maongozi,NA,NA,3,NA,NA,NA,NA,NA,NA,NA,NA,NA,NA,NA,NA,NA,NA,NA,NA,NA,NA,NA
e15de,"""Richtig""-Screen",canvas.Screen,3_0_3_0_5_1_1,NA,NA,timeout,4999.72,621650,621639.26,621639.68,626622.88,626624,2023-09-08T12:05:12Z,626639.4,NULL,System,maongozi,s,chokochoko,nuksani,mitaani,NA,qt,1,3,NA,NA,NA,NA,NA,NA,NA,NA,NA,NA,NA,NA,NA,NA,NA,NA,NA,NA,NA
e15de,"""Falsch""-Screen",canvas.Screen,3_0_3_0_5_1_2,NA,NA,skipped,NA,626627,NA,NA,626622.88,626627,2023-09-08T12:05:12Z,626639.4,NULL,System,maongozi,s,chokochoko,nuksani,mitaani,NA,qt,NA,3,NA,NA,NA,NA,NA,NA,NA,NA,NA,NA,NA,NA,NA,NA,NA,NA,NA,NA,NA
e15de,shallow,flow.Sequence,3_0_3_0_5_1,NA,NA,completion,8949.16,617663,617657.06,617673.72,626622.88,626628,2023-09-08T12:05:12Z,626639.4,NULL,System,maongozi,s,chokochoko,nuksani,mitaani,NA,qt,NA,3,NA,NA,NA,NA,NA,NA,NA,NA,NA,NA,NA,NA,NA,NA,NA,NA,NA,NA,NA
e15de,task,flow.Sequence,3_0_3_0_5,NA,NA,completion,8949.16,617662,617657.06,617673.72,626622.88,626629,2023-09-08T12:05:12Z,626639.4,NULL,System,maongozi,s,chokochoko,nuksani,mitaani,NA,qt,NA,3,NA,NA,NA,NA,NA,NA,NA,NA,NA,NA,NA,NA,NA,NA,NA,NA,NA,NA,NA
e15de,deep,flow.Sequence,3_0_3_0_6_0,NA,NA,skipped,NA,626629,NA,NA,626622.88,626629,2023-09-08T12:05:12Z,626639.4,NULL,Niveau,kiwango,s,usimamizi,mwamali,mshairi,NA,qt,NA,3,NA,NA,NA,NA,NA,NA,NA,NA,NA,NA,NA,NA,NA,NA,NA,NA,NA,NA,NA
e15de,Shallow Question,html.Page,3_0_3_0_6_1_0,NA,NA,form submission,5464.6,626629,626622.88,626639.4,632104,632104,2023-09-08T12:05:18Z,632105.16,NULL,Niveau,kiwango,s,usimamizi,mwamali,mshairi,kiwango,NA,NA,3,NA,NA,NA,NA,NA,NA,NA,NA,NA,NA,NA,NA,NA,NA,NA,NA,NA,NA,NA
e15de,"""Richtig""-Screen",canvas.Screen,3_0_3_0_6_1_1,NA,NA,timeout,4999.2999999999,632109,632097.72,632105.16,637087.86,637089,2023-09-08T12:05:23Z,637104.46,NULL,Niveau,kiwango,s,usimamizi,mwamali,mshairi,NA,qt,1,3,NA,NA,NA,NA,NA,NA,NA,NA,NA,NA,NA,NA,NA,NA,NA,NA,NA,NA,NA
e15de,"""Falsch""-Screen",canvas.Screen,3_0_3_0_6_1_2,NA,NA,skipped,NA,637096,NA,NA,637087.86,637096,2023-09-08T12:05:23Z,637104.46,NULL,Niveau,kiwango,s,usimamizi,mwamali,mshairi,NA,qt,NA,3,NA,NA,NA,NA,NA,NA,NA,NA,NA,NA,NA,NA,NA,NA,NA,NA,NA,NA,NA
e15de,shallow,flow.Sequence,3_0_3_0_6_1,NA,NA,completion,10448.46,626629,626622.88,626639.4,637087.86,637097,2023-09-08T12:05:23Z,637104.46,NULL,Niveau,kiwango,s,usimamizi,mwamali,mshairi,NA,qt,NA,3,NA,NA,NA,NA,NA,NA,NA,NA,NA,NA,NA,NA,NA,NA,NA,NA,NA,NA,NA
e15de,task,flow.Sequence,3_0_3_0_6,NA,NA,completion,10448.46,626629,626622.88,626639.4,637087.86,637097,2023-09-08T12:05:23Z,637104.46,NULL,Niveau,kiwango,s,usimamizi,mwamali,mshairi,NA,qt,NA,3,NA,NA,NA,NA,NA,NA,NA,NA,NA,NA,NA,NA,NA,NA,NA,NA,NA,NA,NA
e15de,deep,flow.Sequence,3_0_3_0_7_0,NA,NA,skipped,NA,637098,NA,NA,637087.86,637098,2023-09-08T12:05:23Z,637104.46,NULL,Lawine,banguko,s,maambukizi,usuluhishi,chekechea,NA,qt,NA,3,NA,NA,NA,NA,NA,NA,NA,NA,NA,NA,NA,NA,NA,NA,NA,NA,NA,NA,NA
e15de,Shallow Question,html.Page,3_0_3_0_7_1_0,NA,NA,form submission,4874.54,637098,637087.86,637104.46,641979,641980,2023-09-08T12:05:27Z,641987.08,NULL,Lawine,banguko,s,maambukizi,usuluhishi,chekechea,banguko,NA,NA,3,NA,NA,NA,NA,NA,NA,NA,NA,NA,NA,NA,NA,NA,NA,NA,NA,NA,NA,NA
e15de,"""Richtig""-Screen",canvas.Screen,3_0_3_0_7_1_1,NA,NA,timeout,4999.5800000001,641982,641976.9,641987.08,646969.96,646971,2023-09-08T12:05:32Z,646986.66,NULL,Lawine,banguko,s,maambukizi,usuluhishi,chekechea,NA,qt,1,3,NA,NA,NA,NA,NA,NA,NA,NA,NA,NA,NA,NA,NA,NA,NA,NA,NA,NA,NA
e15de,"""Falsch""-Screen",canvas.Screen,3_0_3_0_7_1_2,NA,NA,skipped,NA,646977,NA,NA,646969.96,646977,2023-09-08T12:05:32Z,646986.66,NULL,Lawine,banguko,s,maambukizi,usuluhishi,chekechea,NA,qt,NA,3,NA,NA,NA,NA,NA,NA,NA,NA,NA,NA,NA,NA,NA,NA,NA,NA,NA,NA,NA
e15de,shallow,flow.Sequence,3_0_3_0_7_1,NA,NA,completion,9865.5,637098,637087.86,637104.46,646969.96,646978,2023-09-08T12:05:32Z,646986.66,NULL,Lawine,banguko,s,maambukizi,usuluhishi,chekechea,NA,qt,NA,3,NA,NA,NA,NA,NA,NA,NA,NA,NA,NA,NA,NA,NA,NA,NA,NA,NA,NA,NA
e15de,task,flow.Sequence,3_0_3_0_7,NA,NA,completion,9865.5,637097,637087.86,637104.46,646969.96,646978,2023-09-08T12:05:32Z,646986.66,NULL,Lawine,banguko,s,maambukizi,usuluhishi,chekechea,NA,qt,NA,3,NA,NA,NA,NA,NA,NA,NA,NA,NA,NA,NA,NA,NA,NA,NA,NA,NA,NA,NA
e15de,block,flow.Loop,3_0_3_0,NA,NA,completion,93234.9,553735,553734.74,553735.06,646969.96,646979,2023-09-08T12:05:32Z,646986.66,NULL,NA,NA,NA,NA,NA,NA,NA,qt,NA,3,NA,NA,NA,NA,NA,NA,NA,NA,NA,NA,NA,NA,NA,NA,NA,NA,NA,NA,NA
e15de,weiter,canvas.Screen,3_0_3_1,sdf,keypress(Space),response,1281.34,646979,646969.96,646986.66,648268,648275,2023-09-08T12:05:34Z,648974.14,NULL,NA,NA,NA,NA,NA,NA,NA,qt,NA,3,NA,NA,NA,NA,NA,NA,NA,NA,NA,NA,NA,NA,NA,NA,NA,NA,NA,NA,NA
e15de,check continue,flow.Sequence,3_0_3,NA,NA,completion,94532.94,553735,553734.74,553735.06,648268,648277,2023-09-08T12:05:34Z,648974.14,NULL,NA,NA,NA,NA,NA,NA,NA,qt,NA,3,NA,NA,NA,NA,NA,NA,NA,NA,NA,NA,NA,NA,NA,NA,NA,NA,NA,NA,NA
e15de,check continue,flow.Sequence,3_0_4,NA,NA,skipped,NA,648319,NA,NA,648268,648319,2023-09-08T12:05:34Z,648974.14,NULL,NA,NA,NA,NA,NA,NA,NA,sd,NA,4,NA,NA,NA,NA,NA,NA,NA,NA,NA,NA,NA,NA,NA,NA,NA,NA,NA,NA,NA
e15de,check continue,flow.Sequence,3_0_5,NA,NA,skipped,NA,648347,NA,NA,648268,648348,2023-09-08T12:05:34Z,648974.14,NULL,NA,NA,NA,NA,NA,NA,NA,sdf,NA,5,NA,NA,NA,NA,NA,NA,NA,NA,NA,NA,NA,NA,NA,NA,NA,NA,NA,NA,NA
e15de,check continue,flow.Sequence,3_0_6,NA,NA,skipped,NA,648377,NA,NA,648268,648377,2023-09-08T12:05:34Z,648974.14,NULL,NA,NA,NA,NA,NA,NA,NA,dfs,NA,6,NA,NA,NA,NA,NA,NA,NA,NA,NA,NA,NA,NA,NA,NA,NA,NA,NA,NA,NA
e15de,check continue,flow.Sequence,3_0_7,NA,NA,skipped,NA,648404,NA,NA,648268,648404,2023-09-08T12:05:34Z,648974.14,NULL,NA,NA,NA,NA,NA,NA,NA,df,NA,7,NA,NA,NA,NA,NA,NA,NA,NA,NA,NA,NA,NA,NA,NA,NA,NA,NA,NA,NA
e15de,check continue,flow.Sequence,3_0_8,NA,NA,skipped,NA,648434,NA,NA,648268,648434,2023-09-08T12:05:34Z,648974.14,NULL,NA,NA,NA,NA,NA,NA,NA,dfs,NA,8,NA,NA,NA,NA,NA,NA,NA,NA,NA,NA,NA,NA,NA,NA,NA,NA,NA,NA,NA
e15de,check continue,flow.Sequence,3_0_9,NA,NA,skipped,NA,648460,NA,NA,648268,648461,2023-09-08T12:05:34Z,648974.14,NULL,NA,NA,NA,NA,NA,NA,NA,dsf,NA,9,NA,NA,NA,NA,NA,NA,NA,NA,NA,NA,NA,NA,NA,NA,NA,NA,NA,NA,NA
e15de,check continue,flow.Sequence,3_0_10,NA,NA,skipped,NA,648485,NA,NA,648268,648485,2023-09-08T12:05:34Z,648974.14,NULL,NA,NA,NA,NA,NA,NA,NA,df,NA,10,NA,NA,NA,NA,NA,NA,NA,NA,NA,NA,NA,NA,NA,NA,NA,NA,NA,NA,NA
e15de,check continue,flow.Sequence,3_0_11,NA,NA,skipped,NA,648513,NA,NA,648268,648513,2023-09-08T12:05:34Z,648974.14,NULL,NA,NA,NA,NA,NA,NA,NA,dfs,NA,11,NA,NA,NA,NA,NA,NA,NA,NA,NA,NA,NA,NA,NA,NA,NA,NA,NA,NA,NA
e15de,check continue,flow.Sequence,3_0_12,NA,NA,skipped,NA,648540,NA,NA,648268,648541,2023-09-08T12:05:34Z,648974.14,NULL,NA,NA,NA,NA,NA,NA,NA,dsf,NA,12,NA,NA,NA,NA,NA,NA,NA,NA,NA,NA,NA,NA,NA,NA,NA,NA,NA,NA,NA
e15de,check continue,flow.Sequence,3_0_13,NA,NA,skipped,NA,648565,NA,NA,648268,648565,2023-09-08T12:05:34Z,648974.14,NULL,NA,NA,NA,NA,NA,NA,NA,dsf,NA,13,NA,NA,NA,NA,NA,NA,NA,NA,NA,NA,NA,NA,NA,NA,NA,NA,NA,NA,NA
e15de,check continue,flow.Sequence,3_0_14,NA,NA,skipped,NA,648593,NA,NA,648268,648593,2023-09-08T12:05:34Z,648974.14,NULL,NA,NA,NA,NA,NA,NA,NA,NA,NA,14,NA,NA,NA,NA,NA,NA,NA,NA,NA,NA,NA,NA,NA,NA,NA,NA,NA,NA,NA
e15de,check continue,flow.Sequence,3_0_15,NA,NA,skipped,NA,648619,NA,NA,648268,648619,2023-09-08T12:05:34Z,648974.14,NULL,NA,NA,NA,NA,NA,NA,NA,NA,NA,15,NA,NA,NA,NA,NA,NA,NA,NA,NA,NA,NA,NA,NA,NA,NA,NA,NA,NA,NA
e15de,check continue,flow.Sequence,3_0_16,NA,NA,skipped,NA,648643,NA,NA,648268,648643,2023-09-08T12:05:34Z,648974.14,NULL,NA,NA,NA,NA,NA,NA,NA,NA,NA,16,NA,NA,NA,NA,NA,NA,NA,NA,NA,NA,NA,NA,NA,NA,NA,NA,NA,NA,NA
e15de,check continue,flow.Sequence,3_0_17,NA,NA,skipped,NA,648669,NA,NA,648268,648669,2023-09-08T12:05:34Z,648974.14,NULL,NA,NA,NA,NA,NA,NA,NA,NA,NA,17,NA,NA,NA,NA,NA,NA,NA,NA,NA,NA,NA,NA,NA,NA,NA,NA,NA,NA,NA
e15de,check continue,flow.Sequence,3_0_18,NA,NA,skipped,NA,648693,NA,NA,648268,648693,2023-09-08T12:05:34Z,648974.14,NULL,NA,NA,NA,NA,NA,NA,NA,NA,NA,18,NA,NA,NA,NA,NA,NA,NA,NA,NA,NA,NA,NA,NA,NA,NA,NA,NA,NA,NA
e15de,check continue,flow.Sequence,3_0_19,NA,NA,skipped,NA,648720,NA,NA,648268,648720,2023-09-08T12:05:34Z,648974.14,NULL,NA,NA,NA,NA,NA,NA,NA,NA,NA,19,NA,NA,NA,NA,NA,NA,NA,NA,NA,NA,NA,NA,NA,NA,NA,NA,NA,NA,NA
e15de,check continue,flow.Sequence,3_0_20,NA,NA,skipped,NA,648743,NA,NA,648268,648743,2023-09-08T12:05:34Z,648974.14,NULL,NA,NA,NA,NA,NA,NA,NA,NA,NA,20,NA,NA,NA,NA,NA,NA,NA,NA,NA,NA,NA,NA,NA,NA,NA,NA,NA,NA,NA
e15de,check continue,flow.Sequence,3_0_21,NA,NA,skipped,NA,648772,NA,NA,648268,648772,2023-09-08T12:05:34Z,648974.14,NULL,NA,NA,NA,NA,NA,NA,NA,NA,NA,21,NA,NA,NA,NA,NA,NA,NA,NA,NA,NA,NA,NA,NA,NA,NA,NA,NA,NA,NA
e15de,check continue,flow.Sequence,3_0_22,NA,NA,skipped,NA,648796,NA,NA,648268,648796,2023-09-08T12:05:34Z,648974.14,NULL,NA,NA,NA,NA,NA,NA,NA,NA,NA,22,NA,NA,NA,NA,NA,NA,NA,NA,NA,NA,NA,NA,NA,NA,NA,NA,NA,NA,NA
e15de,check continue,flow.Sequence,3_0_23,NA,NA,skipped,NA,648820,NA,NA,648268,648820,2023-09-08T12:05:34Z,648974.14,NULL,NA,NA,NA,NA,NA,NA,NA,NA,NA,23,NA,NA,NA,NA,NA,NA,NA,NA,NA,NA,NA,NA,NA,NA,NA,NA,NA,NA,NA
e15de,check continue,flow.Sequence,3_0_24,NA,NA,skipped,NA,648847,NA,NA,648268,648847,2023-09-08T12:05:34Z,648974.14,NULL,NA,NA,NA,NA,NA,NA,NA,NA,NA,24,NA,NA,NA,NA,NA,NA,NA,NA,NA,NA,NA,NA,NA,NA,NA,NA,NA,NA,NA
e15de,check continue,flow.Sequence,3_0_25,NA,NA,skipped,NA,648871,NA,NA,648268,648872,2023-09-08T12:05:34Z,648974.14,NULL,NA,NA,NA,NA,NA,NA,NA,NA,NA,25,NA,NA,NA,NA,NA,NA,NA,NA,NA,NA,NA,NA,NA,NA,NA,NA,NA,NA,NA
e15de,check continue,flow.Sequence,3_0_26,NA,NA,skipped,NA,648897,NA,NA,648268,648897,2023-09-08T12:05:34Z,648974.14,NULL,NA,NA,NA,NA,NA,NA,NA,NA,NA,26,NA,NA,NA,NA,NA,NA,NA,NA,NA,NA,NA,NA,NA,NA,NA,NA,NA,NA,NA
e15de,check continue,flow.Sequence,3_0_27,NA,NA,skipped,NA,648920,NA,NA,648268,648920,2023-09-08T12:05:34Z,648974.14,NULL,NA,NA,NA,NA,NA,NA,NA,NA,NA,27,NA,NA,NA,NA,NA,NA,NA,NA,NA,NA,NA,NA,NA,NA,NA,NA,NA,NA,NA
e15de,check continue,flow.Sequence,3_0_28,NA,NA,skipped,NA,648944,NA,NA,648268,648944,2023-09-08T12:05:34Z,648974.14,NULL,NA,NA,NA,NA,NA,NA,NA,NA,NA,28,NA,NA,NA,NA,NA,NA,NA,NA,NA,NA,NA,NA,NA,NA,NA,NA,NA,NA,NA
e15de,check continue,flow.Sequence,3_0_29,NA,NA,skipped,NA,648973,NA,NA,648268,648973,2023-09-08T12:05:34Z,648974.14,NULL,NA,NA,NA,NA,NA,NA,NA,NA,NA,29,NA,NA,NA,NA,NA,NA,NA,NA,NA,NA,NA,NA,NA,NA,NA,NA,NA,NA,NA
e15de,until continue,flow.Loop,3_0,NA,NA,completion,445457,202774,202809.38,202811,648268,648973,2023-09-08T12:05:34Z,648974.14,NULL,NA,NA,NA,NA,NA,NA,NA,NA,NA,NA,NA,NA,NA,NA,NA,NA,NA,NA,NA,NA,NA,NA,NA,NA,NA,NA,NA,NA,NA
e15de,block 1,flow.Sequence,3,NA,NA,completion,445457,202774,202809.38,202811,648268,648973,2023-09-08T12:05:34Z,648974.14,NULL,NA,NA,NA,NA,NA,NA,NA,NA,NA,NA,NA,NA,NA,NA,NA,NA,NA,NA,NA,NA,NA,NA,NA,NA,NA,NA,NA,NA,NA
e15de,1.Part Over,canvas.Screen,4,NA,keypress(Space),response,2403.86,648973,648973.84,648974.14,651378,651395,2023-09-08T12:05:37Z,651469.64,NULL,NA,NA,NA,NA,NA,NA,NA,NA,NA,NA,NA,NA,NA,NA,NA,NA,NA,NA,NA,NA,NA,NA,NA,NA,NA,NA,NA,NA,NA
e15de,deep,flow.Sequence,5_0_0_0_0_0,NA,NA,skipped,NA,651469,NA,NA,651378,651469,2023-09-08T12:05:37Z,651469.64,NULL,Prüfung,mtihani,s,mkulima,mtizamo,ufumbuzi,NA,sdf,NA,0,NA,NA,NA,NA,NA,NA,NA,NA,NA,NA,NA,NA,NA,NA,NA,NA,NA,NA,NA
e15de,Shallow Question,html.Page,5_0_0_0_0_1_0,NA,NA,form submission,6594.36,651469,651469.3,651469.64,658064,658065,2023-09-08T12:05:44Z,658068.4,NULL,Prüfung,mtihani,s,mkulima,mtizamo,ufumbuzi,mtihani,NA,NA,0,NA,NA,NA,NA,NA,NA,NA,NA,NA,NA,NA,NA,NA,NA,NA,NA,NA,NA,NA
e15de,"""Richtig""-Screen",canvas.Screen,5_0_0_0_0_1_1,NA,NA,timeout,4999.4399999999,658068,658055.84,658068.4,663051.52,663053,2023-09-08T12:05:49Z,663067.84,NULL,Prüfung,mtihani,s,mkulima,mtizamo,ufumbuzi,NA,sdf,1,0,NA,NA,NA,NA,NA,NA,NA,NA,NA,NA,NA,NA,NA,NA,NA,NA,NA,NA,NA
e15de,"""Falsch""-Screen",canvas.Screen,5_0_0_0_0_1_2,NA,NA,skipped,NA,663058,NA,NA,663051.52,663059,2023-09-08T12:05:49Z,663067.84,NULL,Prüfung,mtihani,s,mkulima,mtizamo,ufumbuzi,NA,sdf,NA,0,NA,NA,NA,NA,NA,NA,NA,NA,NA,NA,NA,NA,NA,NA,NA,NA,NA,NA,NA
e15de,shallow,flow.Sequence,5_0_0_0_0_1,NA,NA,completion,11581.88,651469,651469.3,651469.64,663051.52,663059,2023-09-08T12:05:49Z,663067.84,NULL,Prüfung,mtihani,s,mkulima,mtizamo,ufumbuzi,NA,sdf,NA,0,NA,NA,NA,NA,NA,NA,NA,NA,NA,NA,NA,NA,NA,NA,NA,NA,NA,NA,NA
e15de,task,flow.Sequence,5_0_0_0_0,NA,NA,completion,11581.88,651469,651469.3,651469.64,663051.52,663059,2023-09-08T12:05:49Z,663067.84,NULL,Prüfung,mtihani,s,mkulima,mtizamo,ufumbuzi,NA,sdf,NA,0,NA,NA,NA,NA,NA,NA,NA,NA,NA,NA,NA,NA,NA,NA,NA,NA,NA,NA,NA
e15de,deep,flow.Sequence,5_0_0_0_1_0,NA,NA,skipped,NA,663060,NA,NA,663051.52,663060,2023-09-08T12:05:49Z,663067.84,NULL,Fleisch,mshakiki,s,kizunguzungu,mshikamano,angusho,NA,sdf,NA,0,NA,NA,NA,NA,NA,NA,NA,NA,NA,NA,NA,NA,NA,NA,NA,NA,NA,NA,NA
e15de,Shallow Question,html.Page,5_0_0_0_1_1_0,NA,NA,form submission,8094.16,663060,663051.52,663067.84,671162,671163,2023-09-08T12:05:57Z,671166.62,NULL,Fleisch,mshakiki,s,kizunguzungu,mshikamano,angusho,mshakiki,NA,NA,0,NA,NA,NA,NA,NA,NA,NA,NA,NA,NA,NA,NA,NA,NA,NA,NA,NA,NA,NA
e15de,"""Richtig""-Screen",canvas.Screen,5_0_0_0_1_1_1,NA,NA,timeout,4999.34,671168,671156.88,671166.62,676149.42,676151,2023-09-08T12:06:02Z,676165.96,NULL,Fleisch,mshakiki,s,kizunguzungu,mshikamano,angusho,NA,sdf,1,0,NA,NA,NA,NA,NA,NA,NA,NA,NA,NA,NA,NA,NA,NA,NA,NA,NA,NA,NA
e15de,"""Falsch""-Screen",canvas.Screen,5_0_0_0_1_1_2,NA,NA,skipped,NA,676155,NA,NA,676149.42,676155,2023-09-08T12:06:02Z,676165.96,NULL,Fleisch,mshakiki,s,kizunguzungu,mshikamano,angusho,NA,sdf,NA,0,NA,NA,NA,NA,NA,NA,NA,NA,NA,NA,NA,NA,NA,NA,NA,NA,NA,NA,NA
e15de,shallow,flow.Sequence,5_0_0_0_1_1,NA,NA,completion,13081.58,663060,663051.52,663067.84,676149.42,676156,2023-09-08T12:06:02Z,676165.96,NULL,Fleisch,mshakiki,s,kizunguzungu,mshikamano,angusho,NA,sdf,NA,0,NA,NA,NA,NA,NA,NA,NA,NA,NA,NA,NA,NA,NA,NA,NA,NA,NA,NA,NA
e15de,task,flow.Sequence,5_0_0_0_1,NA,NA,completion,13081.58,663060,663051.52,663067.84,676149.42,676156,2023-09-08T12:06:02Z,676165.96,NULL,Fleisch,mshakiki,s,kizunguzungu,mshikamano,angusho,NA,sdf,NA,0,NA,NA,NA,NA,NA,NA,NA,NA,NA,NA,NA,NA,NA,NA,NA,NA,NA,NA,NA
e15de,Deep Question,html.Page,5_0_0_0_2_0_0,NA,NA,form submission,8550.04,676156,676149.42,676165.96,684716,684716,2023-09-08T12:06:10Z,684714.86,NULL,Genehmigung,idhini,d,NA,NA,NA,genush,NA,NA,0,NA,NA,NA,NA,NA,NA,NA,NA,NA,NA,NA,NA,NA,NA,NA,NA,NA,NA,NA
e15de,"""Richtig""-Screen",canvas.Screen,5_0_0_0_2_0_1,NA,NA,skipped,NA,684717,NA,NA,684716,684717,2023-09-08T12:06:10Z,684714.86,NULL,Genehmigung,idhini,d,NA,NA,NA,NA,sdf,NA,0,NA,NA,NA,NA,NA,NA,NA,NA,NA,NA,NA,NA,NA,NA,NA,NA,NA,NA,NA
e15de,"""Falsch""-Screen",canvas.Screen,5_0_0_0_2_0_2,NA,NA,timeout,4999.5,684719,684713.34,684714.86,689697.7,689699,2023-09-08T12:06:15Z,689714.36,NULL,Genehmigung,idhini,d,NA,NA,NA,NA,sdf,0,0,NA,NA,NA,NA,NA,NA,NA,NA,NA,NA,NA,NA,NA,NA,NA,NA,NA,NA,NA
e15de,deep,flow.Sequence,5_0_0_0_2_0,NA,NA,completion,13531.74,676156,676149.42,676165.96,689697.7,689699,2023-09-08T12:06:15Z,689714.36,NULL,Genehmigung,idhini,d,NA,NA,NA,NA,sdf,NA,0,NA,NA,NA,NA,NA,NA,NA,NA,NA,NA,NA,NA,NA,NA,NA,NA,NA,NA,NA
e15de,shallow,flow.Sequence,5_0_0_0_2_1,NA,NA,skipped,NA,689699,NA,NA,689697.7,689700,2023-09-08T12:06:15Z,689714.36,NULL,Genehmigung,idhini,d,NA,NA,NA,NA,sdf,NA,0,NA,NA,NA,NA,NA,NA,NA,NA,NA,NA,NA,NA,NA,NA,NA,NA,NA,NA,NA
e15de,task,flow.Sequence,5_0_0_0_2,NA,NA,completion,13531.74,676156,676149.42,676165.96,689697.7,689700,2023-09-08T12:06:15Z,689714.36,NULL,Genehmigung,idhini,d,NA,NA,NA,NA,sdf,NA,0,NA,NA,NA,NA,NA,NA,NA,NA,NA,NA,NA,NA,NA,NA,NA,NA,NA,NA,NA
e15de,deep,flow.Sequence,5_0_0_0_3_0,NA,NA,skipped,NA,689700,NA,NA,689697.7,689701,2023-09-08T12:06:15Z,689714.36,NULL,Integrität,uadilifu,s,muungano,mtiririko,upunguaji,NA,sdf,NA,0,NA,NA,NA,NA,NA,NA,NA,NA,NA,NA,NA,NA,NA,NA,NA,NA,NA,NA,NA
e15de,Shallow Question,html.Page,5_0_0_0_3_1_0,NA,NA,form submission,5845.64,689701,689697.7,689714.36,695560,695561,2023-09-08T12:06:21Z,695563.4,NULL,Integrität,uadilifu,s,muungano,mtiririko,upunguaji,uadilifu,NA,NA,0,NA,NA,NA,NA,NA,NA,NA,NA,NA,NA,NA,NA,NA,NA,NA,NA,NA,NA,NA
e15de,"""Richtig""-Screen",canvas.Screen,5_0_0_0_3_1_1,NA,NA,timeout,4999.48,695564,695557.5,695563.4,700546.32,700548,2023-09-08T12:06:26Z,700562.88,NULL,Integrität,uadilifu,s,muungano,mtiririko,upunguaji,NA,sdf,1,0,NA,NA,NA,NA,NA,NA,NA,NA,NA,NA,NA,NA,NA,NA,NA,NA,NA,NA,NA
e15de,"""Falsch""-Screen",canvas.Screen,5_0_0_0_3_1_2,NA,NA,skipped,NA,700554,NA,NA,700546.32,700554,2023-09-08T12:06:26Z,700562.88,NULL,Integrität,uadilifu,s,muungano,mtiririko,upunguaji,NA,sdf,NA,0,NA,NA,NA,NA,NA,NA,NA,NA,NA,NA,NA,NA,NA,NA,NA,NA,NA,NA,NA
e15de,shallow,flow.Sequence,5_0_0_0_3_1,NA,NA,completion,10831.96,689701,689697.7,689714.36,700546.32,700555,2023-09-08T12:06:26Z,700562.88,NULL,Integrität,uadilifu,s,muungano,mtiririko,upunguaji,NA,sdf,NA,0,NA,NA,NA,NA,NA,NA,NA,NA,NA,NA,NA,NA,NA,NA,NA,NA,NA,NA,NA
e15de,task,flow.Sequence,5_0_0_0_3,NA,NA,completion,10831.96,689700,689697.7,689714.36,700546.32,700555,2023-09-08T12:06:26Z,700562.88,NULL,Integrität,uadilifu,s,muungano,mtiririko,upunguaji,NA,sdf,NA,0,NA,NA,NA,NA,NA,NA,NA,NA,NA,NA,NA,NA,NA,NA,NA,NA,NA,NA,NA
e15de,Deep Question,html.Page,5_0_0_0_4_0_0,NA,NA,form submission,9589.12,700555,700546.32,700562.88,710152,710155,2023-09-08T12:06:36Z,710161.64,NULL,Verzögerung,kuchelewa,d,NA,NA,NA,ramini,NA,NA,0,NA,NA,NA,NA,NA,NA,NA,NA,NA,NA,NA,NA,NA,NA,NA,NA,NA,NA,NA
e15de,"""Richtig""-Screen",canvas.Screen,5_0_0_0_4_0_1,NA,NA,skipped,NA,710165,NA,NA,710152,710165,2023-09-08T12:06:36Z,710161.64,NULL,Verzögerung,kuchelewa,d,NA,NA,NA,NA,sdf,NA,0,NA,NA,NA,NA,NA,NA,NA,NA,NA,NA,NA,NA,NA,NA,NA,NA,NA,NA,NA
e15de,"""Falsch""-Screen",canvas.Screen,5_0_0_0_4_0_2,NA,NA,timeout,4999.22,710170,710145.26,710161.64,715144.36,715145,2023-09-08T12:06:41Z,715160.86,NULL,Verzögerung,kuchelewa,d,NA,NA,NA,NA,sdf,0,0,NA,NA,NA,NA,NA,NA,NA,NA,NA,NA,NA,NA,NA,NA,NA,NA,NA,NA,NA
e15de,deep,flow.Sequence,5_0_0_0_4_0,NA,NA,completion,14581.48,700555,700546.32,700562.88,715144.36,715146,2023-09-08T12:06:41Z,715160.86,NULL,Verzögerung,kuchelewa,d,NA,NA,NA,NA,sdf,NA,0,NA,NA,NA,NA,NA,NA,NA,NA,NA,NA,NA,NA,NA,NA,NA,NA,NA,NA,NA
e15de,shallow,flow.Sequence,5_0_0_0_4_1,NA,NA,skipped,NA,715147,NA,NA,715144.36,715147,2023-09-08T12:06:41Z,715160.86,NULL,Verzögerung,kuchelewa,d,NA,NA,NA,NA,sdf,NA,0,NA,NA,NA,NA,NA,NA,NA,NA,NA,NA,NA,NA,NA,NA,NA,NA,NA,NA,NA
e15de,task,flow.Sequence,5_0_0_0_4,NA,NA,completion,14581.48,700555,700546.32,700562.88,715144.36,715147,2023-09-08T12:06:41Z,715160.86,NULL,Verzögerung,kuchelewa,d,NA,NA,NA,NA,sdf,NA,0,NA,NA,NA,NA,NA,NA,NA,NA,NA,NA,NA,NA,NA,NA,NA,NA,NA,NA,NA
e15de,deep,flow.Sequence,5_0_0_0_5_0,NA,NA,skipped,NA,715147,NA,NA,715144.36,715147,2023-09-08T12:06:41Z,715160.86,NULL,Aufstand,ugomaji,s,mazidio,msingi,kujieleza,NA,sdf,NA,0,NA,NA,NA,NA,NA,NA,NA,NA,NA,NA,NA,NA,NA,NA,NA,NA,NA,NA,NA
e15de,Shallow Question,html.Page,5_0_0_0_5_1_0,NA,NA,form submission,7004.14,715148,715144.36,715160.86,722165,722165,2023-09-08T12:06:48Z,722176.68,NULL,Aufstand,ugomaji,s,mazidio,msingi,kujieleza,mazidio,NA,NA,0,NA,NA,NA,NA,NA,NA,NA,NA,NA,NA,NA,NA,NA,NA,NA,NA,NA,NA,NA
e15de,"""Richtig""-Screen",canvas.Screen,5_0_0_0_5_1_1,NA,NA,skipped,NA,722170,NA,NA,722165,722170,2023-09-08T12:06:48Z,722176.68,NULL,Aufstand,ugomaji,s,mazidio,msingi,kujieleza,NA,sdf,NA,0,NA,NA,NA,NA,NA,NA,NA,NA,NA,NA,NA,NA,NA,NA,NA,NA,NA,NA,NA
e15de,"""Falsch""-Screen",canvas.Screen,5_0_0_0_5_1_2,NA,NA,timeout,4999.38,722174,722160.7,722176.68,727159.38,727161,2023-09-08T12:06:53Z,727176.06,NULL,Aufstand,ugomaji,s,mazidio,msingi,kujieleza,NA,sdf,0,0,NA,NA,NA,NA,NA,NA,NA,NA,NA,NA,NA,NA,NA,NA,NA,NA,NA,NA,NA
e15de,shallow,flow.Sequence,5_0_0_0_5_1,NA,NA,completion,11998.52,715148,715144.36,715160.86,727159.38,727163,2023-09-08T12:06:53Z,727176.06,NULL,Aufstand,ugomaji,s,mazidio,msingi,kujieleza,NA,sdf,NA,0,NA,NA,NA,NA,NA,NA,NA,NA,NA,NA,NA,NA,NA,NA,NA,NA,NA,NA,NA
e15de,task,flow.Sequence,5_0_0_0_5,NA,NA,completion,11998.52,715147,715144.36,715160.86,727159.38,727164,2023-09-08T12:06:53Z,727176.06,NULL,Aufstand,ugomaji,s,mazidio,msingi,kujieleza,NA,sdf,NA,0,NA,NA,NA,NA,NA,NA,NA,NA,NA,NA,NA,NA,NA,NA,NA,NA,NA,NA,NA
e15de,Deep Question,html.Page,5_0_0_0_6_0_0,NA,NA,form submission,8732.9399999999,727164,727159.38,727176.06,735909,735910,2023-09-08T12:07:01Z,735924.82,NULL,Begegnung,kukutana,d,NA,NA,NA,mashini,NA,NA,0,NA,NA,NA,NA,NA,NA,NA,NA,NA,NA,NA,NA,NA,NA,NA,NA,NA,NA,NA
e15de,"""Richtig""-Screen",canvas.Screen,5_0_0_0_6_0_1,NA,NA,skipped,NA,735916,NA,NA,735909,735916,2023-09-08T12:07:01Z,735924.82,NULL,Begegnung,kukutana,d,NA,NA,NA,NA,sdf,NA,0,NA,NA,NA,NA,NA,NA,NA,NA,NA,NA,NA,NA,NA,NA,NA,NA,NA,NA,NA
e15de,"""Falsch""-Screen",canvas.Screen,5_0_0_0_6_0_2,NA,NA,timeout,4999.5,735924,735904.34,735924.82,740907.68,740909,2023-09-08T12:07:06Z,740924.32,NULL,Begegnung,kukutana,d,NA,NA,NA,NA,sdf,0,0,NA,NA,NA,NA,NA,NA,NA,NA,NA,NA,NA,NA,NA,NA,NA,NA,NA,NA,NA
e15de,deep,flow.Sequence,5_0_0_0_6_0,NA,NA,completion,13731.62,727164,727159.38,727176.06,740907.68,740909,2023-09-08T12:07:06Z,740924.32,NULL,Begegnung,kukutana,d,NA,NA,NA,NA,sdf,NA,0,NA,NA,NA,NA,NA,NA,NA,NA,NA,NA,NA,NA,NA,NA,NA,NA,NA,NA,NA
e15de,shallow,flow.Sequence,5_0_0_0_6_1,NA,NA,skipped,NA,740910,NA,NA,740907.68,740910,2023-09-08T12:07:06Z,740924.32,NULL,Begegnung,kukutana,d,NA,NA,NA,NA,sdf,NA,0,NA,NA,NA,NA,NA,NA,NA,NA,NA,NA,NA,NA,NA,NA,NA,NA,NA,NA,NA
e15de,task,flow.Sequence,5_0_0_0_6,NA,NA,completion,13731.62,727164,727159.38,727176.06,740907.68,740910,2023-09-08T12:07:06Z,740924.32,NULL,Begegnung,kukutana,d,NA,NA,NA,NA,sdf,NA,0,NA,NA,NA,NA,NA,NA,NA,NA,NA,NA,NA,NA,NA,NA,NA,NA,NA,NA,NA
e15de,Deep Question,html.Page,5_0_0_0_7_0_0,NA,NA,form submission,9664.6800000001,740910,740907.68,740924.32,750589,750590,2023-09-08T12:07:16Z,750589.66,NULL,Kultur,utamaduni,d,NA,NA,NA,kumana,NA,NA,0,NA,NA,NA,NA,NA,NA,NA,NA,NA,NA,NA,NA,NA,NA,NA,NA,NA,NA,NA
e15de,"""Richtig""-Screen",canvas.Screen,5_0_0_0_7_0_1,NA,NA,skipped,NA,750595,NA,NA,750589,750595,2023-09-08T12:07:16Z,750589.66,NULL,Kultur,utamaduni,d,NA,NA,NA,NA,sdf,NA,0,NA,NA,NA,NA,NA,NA,NA,NA,NA,NA,NA,NA,NA,NA,NA,NA,NA,NA,NA
e15de,"""Falsch""-Screen",canvas.Screen,5_0_0_0_7_0_2,NA,NA,timeout,4999.58,750601,750585.6,750589.66,755572.78,755574,2023-09-08T12:07:21Z,755589.24,NULL,Kultur,utamaduni,d,NA,NA,NA,NA,sdf,0,0,NA,NA,NA,NA,NA,NA,NA,NA,NA,NA,NA,NA,NA,NA,NA,NA,NA,NA,NA
e15de,deep,flow.Sequence,5_0_0_0_7_0,NA,NA,completion,14648.46,740910,740907.68,740924.32,755572.78,755575,2023-09-08T12:07:21Z,755589.24,NULL,Kultur,utamaduni,d,NA,NA,NA,NA,sdf,NA,0,NA,NA,NA,NA,NA,NA,NA,NA,NA,NA,NA,NA,NA,NA,NA,NA,NA,NA,NA
e15de,shallow,flow.Sequence,5_0_0_0_7_1,NA,NA,skipped,NA,755575,NA,NA,755572.78,755576,2023-09-08T12:07:21Z,755589.24,NULL,Kultur,utamaduni,d,NA,NA,NA,NA,sdf,NA,0,NA,NA,NA,NA,NA,NA,NA,NA,NA,NA,NA,NA,NA,NA,NA,NA,NA,NA,NA
e15de,task,flow.Sequence,5_0_0_0_7,NA,NA,completion,14648.46,740910,740907.68,740924.32,755572.78,755576,2023-09-08T12:07:21Z,755589.24,NULL,Kultur,utamaduni,d,NA,NA,NA,NA,sdf,NA,0,NA,NA,NA,NA,NA,NA,NA,NA,NA,NA,NA,NA,NA,NA,NA,NA,NA,NA,NA
e15de,block,flow.Loop,5_0_0_0,NA,NA,completion,104103.14,651469,651469.3,651469.64,755572.78,755576,2023-09-08T12:07:21Z,755589.24,NULL,NA,NA,NA,NA,NA,NA,NA,sdf,NA,0,NA,NA,NA,NA,NA,NA,NA,NA,NA,NA,NA,NA,NA,NA,NA,NA,NA,NA,NA
e15de,weiter,canvas.Screen,5_0_0_1,sdf,keypress(Space),response,1429.76,755576,755572.78,755589.24,757019,757028,2023-09-08T12:07:22Z,757099.34,NULL,NA,NA,NA,NA,NA,NA,NA,sdf,NA,0,NA,NA,NA,NA,NA,NA,NA,NA,NA,NA,NA,NA,NA,NA,NA,NA,NA,NA,NA
e15de,check continue,flow.Sequence,5_0_0,NA,NA,completion,105549.36,651469,651469.3,651469.64,757019,757028,2023-09-08T12:07:22Z,757099.34,NULL,NA,NA,NA,NA,NA,NA,NA,sdf,NA,0,NA,NA,NA,NA,NA,NA,NA,NA,NA,NA,NA,NA,NA,NA,NA,NA,NA,NA,NA
e15de,Deep Question,html.Page,5_0_1_0_0_0_0,NA,NA,form submission,6382.66,757100,757099.08,757099.34,763482,763482,2023-09-08T12:07:29Z,763488.02,NULL,Kultur,utamaduni,d,NA,NA,NA,utamaduni,NA,NA,1,NA,NA,NA,NA,NA,NA,NA,NA,NA,NA,NA,NA,NA,NA,NA,NA,NA,NA,NA
e15de,"""Richtig""-Screen",canvas.Screen,5_0_1_0_0_0_1,NA,NA,timeout,4999.34,763487,763477.94,763488.02,768470.72,768472,2023-09-08T12:07:34Z,768487.36,NULL,Kultur,utamaduni,d,NA,NA,NA,NA,sdfdsf,1,1,NA,NA,NA,NA,NA,NA,NA,NA,NA,NA,NA,NA,NA,NA,NA,NA,NA,NA,NA
e15de,"""Falsch""-Screen",canvas.Screen,5_0_1_0_0_0_2,NA,NA,skipped,NA,768476,NA,NA,768470.72,768476,2023-09-08T12:07:34Z,768487.36,NULL,Kultur,utamaduni,d,NA,NA,NA,NA,sdfdsf,NA,1,NA,NA,NA,NA,NA,NA,NA,NA,NA,NA,NA,NA,NA,NA,NA,NA,NA,NA,NA
e15de,deep,flow.Sequence,5_0_1_0_0_0,NA,NA,completion,11371.38,757099,757099.08,757099.34,768470.72,768476,2023-09-08T12:07:34Z,768487.36,NULL,Kultur,utamaduni,d,NA,NA,NA,NA,sdfdsf,NA,1,NA,NA,NA,NA,NA,NA,NA,NA,NA,NA,NA,NA,NA,NA,NA,NA,NA,NA,NA
e15de,shallow,flow.Sequence,5_0_1_0_0_1,NA,NA,skipped,NA,768477,NA,NA,768470.72,768477,2023-09-08T12:07:34Z,768487.36,NULL,Kultur,utamaduni,d,NA,NA,NA,NA,sdfdsf,NA,1,NA,NA,NA,NA,NA,NA,NA,NA,NA,NA,NA,NA,NA,NA,NA,NA,NA,NA,NA
e15de,task,flow.Sequence,5_0_1_0_0,NA,NA,completion,11371.38,757099,757099.08,757099.34,768470.72,768477,2023-09-08T12:07:34Z,768487.36,NULL,Kultur,utamaduni,d,NA,NA,NA,NA,sdfdsf,NA,1,NA,NA,NA,NA,NA,NA,NA,NA,NA,NA,NA,NA,NA,NA,NA,NA,NA,NA,NA
e15de,Deep Question,html.Page,5_0_1_0_1_0_0,NA,NA,form submission,9119.64,768477,768470.72,768487.36,777607,777607,2023-09-08T12:07:43Z,777619.56,NULL,Verzögerung,kuchelewa,d,NA,NA,NA,hibini,NA,NA,1,NA,NA,NA,NA,NA,NA,NA,NA,NA,NA,NA,NA,NA,NA,NA,NA,NA,NA,NA
e15de,"""Richtig""-Screen",canvas.Screen,5_0_1_0_1_0_1,NA,NA,skipped,NA,777608,NA,NA,777607,777609,2023-09-08T12:07:43Z,777619.56,NULL,Verzögerung,kuchelewa,d,NA,NA,NA,NA,sdfdsf,NA,1,NA,NA,NA,NA,NA,NA,NA,NA,NA,NA,NA,NA,NA,NA,NA,NA,NA,NA,NA
e15de,"""Falsch""-Screen",canvas.Screen,5_0_1_0_1_0_2,NA,NA,timeout,4999.24,777611,777605.6,777619.56,782602.54,782603,2023-09-08T12:07:48Z,782618.8,NULL,Verzögerung,kuchelewa,d,NA,NA,NA,NA,sdfdsf,0,1,NA,NA,NA,NA,NA,NA,NA,NA,NA,NA,NA,NA,NA,NA,NA,NA,NA,NA,NA
e15de,deep,flow.Sequence,5_0_1_0_1_0,NA,NA,completion,14115.18,768477,768470.72,768487.36,782602.54,782604,2023-09-08T12:07:48Z,782618.8,NULL,Verzögerung,kuchelewa,d,NA,NA,NA,NA,sdfdsf,NA,1,NA,NA,NA,NA,NA,NA,NA,NA,NA,NA,NA,NA,NA,NA,NA,NA,NA,NA,NA
e15de,shallow,flow.Sequence,5_0_1_0_1_1,NA,NA,skipped,NA,782604,NA,NA,782602.54,782605,2023-09-08T12:07:48Z,782618.8,NULL,Verzögerung,kuchelewa,d,NA,NA,NA,NA,sdfdsf,NA,1,NA,NA,NA,NA,NA,NA,NA,NA,NA,NA,NA,NA,NA,NA,NA,NA,NA,NA,NA
e15de,task,flow.Sequence,5_0_1_0_1,NA,NA,completion,14115.18,768477,768470.72,768487.36,782602.54,782605,2023-09-08T12:07:48Z,782618.8,NULL,Verzögerung,kuchelewa,d,NA,NA,NA,NA,sdfdsf,NA,1,NA,NA,NA,NA,NA,NA,NA,NA,NA,NA,NA,NA,NA,NA,NA,NA,NA,NA,NA
e15de,Deep Question,html.Page,5_0_1_0_2_0_0,NA,NA,form submission,13437.2,782605,782602.54,782618.8,796056,796056,2023-09-08T12:08:02Z,796067,NULL,Begegnung,kukutana,d,NA,NA,NA,kukutana,NA,NA,1,NA,NA,NA,NA,NA,NA,NA,NA,NA,NA,NA,NA,NA,NA,NA,NA,NA,NA,NA
e15de,"""Richtig""-Screen",canvas.Screen,5_0_1_0_2_0_1,NA,NA,timeout,4999.42,796057,796054.24,796067,801049.82,801052,2023-09-08T12:08:07Z,801066.42,NULL,Begegnung,kukutana,d,NA,NA,NA,NA,sdfdsf,1,1,NA,NA,NA,NA,NA,NA,NA,NA,NA,NA,NA,NA,NA,NA,NA,NA,NA,NA,NA
e15de,"""Falsch""-Screen",canvas.Screen,5_0_1_0_2_0_2,NA,NA,skipped,NA,801064,NA,NA,801049.82,801064,2023-09-08T12:08:07Z,801066.42,NULL,Begegnung,kukutana,d,NA,NA,NA,NA,sdfdsf,NA,1,NA,NA,NA,NA,NA,NA,NA,NA,NA,NA,NA,NA,NA,NA,NA,NA,NA,NA,NA
e15de,deep,flow.Sequence,5_0_1_0_2_0,NA,NA,completion,18431.02,782605,782602.54,782618.8,801049.82,801064,2023-09-08T12:08:07Z,801066.42,NULL,Begegnung,kukutana,d,NA,NA,NA,NA,sdfdsf,NA,1,NA,NA,NA,NA,NA,NA,NA,NA,NA,NA,NA,NA,NA,NA,NA,NA,NA,NA,NA
e15de,shallow,flow.Sequence,5_0_1_0_2_1,NA,NA,skipped,NA,801065,NA,NA,801049.82,801065,2023-09-08T12:08:07Z,801066.42,NULL,Begegnung,kukutana,d,NA,NA,NA,NA,sdfdsf,NA,1,NA,NA,NA,NA,NA,NA,NA,NA,NA,NA,NA,NA,NA,NA,NA,NA,NA,NA,NA
e15de,task,flow.Sequence,5_0_1_0_2,NA,NA,completion,18431.02,782605,782602.54,782618.8,801049.82,801065,2023-09-08T12:08:07Z,801066.42,NULL,Begegnung,kukutana,d,NA,NA,NA,NA,sdfdsf,NA,1,NA,NA,NA,NA,NA,NA,NA,NA,NA,NA,NA,NA,NA,NA,NA,NA,NA,NA,NA
e15de,deep,flow.Sequence,5_0_1_0_3_0,NA,NA,skipped,NA,801065,NA,NA,801049.82,801066,2023-09-08T12:08:07Z,801066.42,NULL,Aufstand,ugomaji,s,mazidio,msingi,kujieleza,NA,sdfdsf,NA,1,NA,NA,NA,NA,NA,NA,NA,NA,NA,NA,NA,NA,NA,NA,NA,NA,NA,NA,NA
e15de,Shallow Question,html.Page,5_0_1_0_3_1_0,NA,NA,form submission,5126.58,801066,801049.82,801066.42,806193,806195,2023-09-08T12:08:12Z,806199.16,NULL,Aufstand,ugomaji,s,mazidio,msingi,kujieleza,ugomaji,NA,NA,1,NA,NA,NA,NA,NA,NA,NA,NA,NA,NA,NA,NA,NA,NA,NA,NA,NA,NA,NA
e15de,"""Richtig""-Screen",canvas.Screen,5_0_1_0_3_1_1,NA,NA,timeout,4999.26,806201,806186.04,806199.16,811181.96,811184,2023-09-08T12:08:17Z,811198.42,NULL,Aufstand,ugomaji,s,mazidio,msingi,kujieleza,NA,sdfdsf,1,1,NA,NA,NA,NA,NA,NA,NA,NA,NA,NA,NA,NA,NA,NA,NA,NA,NA,NA,NA
e15de,"""Falsch""-Screen",canvas.Screen,5_0_1_0_3_1_2,NA,NA,skipped,NA,811192,NA,NA,811181.96,811193,2023-09-08T12:08:17Z,811198.42,NULL,Aufstand,ugomaji,s,mazidio,msingi,kujieleza,NA,sdfdsf,NA,1,NA,NA,NA,NA,NA,NA,NA,NA,NA,NA,NA,NA,NA,NA,NA,NA,NA,NA,NA
e15de,shallow,flow.Sequence,5_0_1_0_3_1,NA,NA,completion,10115.54,801066,801049.82,801066.42,811181.96,811193,2023-09-08T12:08:17Z,811198.42,NULL,Aufstand,ugomaji,s,mazidio,msingi,kujieleza,NA,sdfdsf,NA,1,NA,NA,NA,NA,NA,NA,NA,NA,NA,NA,NA,NA,NA,NA,NA,NA,NA,NA,NA
e15de,task,flow.Sequence,5_0_1_0_3,NA,NA,completion,10115.54,801065,801049.82,801066.42,811181.96,811194,2023-09-08T12:08:17Z,811198.42,NULL,Aufstand,ugomaji,s,mazidio,msingi,kujieleza,NA,sdfdsf,NA,1,NA,NA,NA,NA,NA,NA,NA,NA,NA,NA,NA,NA,NA,NA,NA,NA,NA,NA,NA
e15de,deep,flow.Sequence,5_0_1_0_4_0,NA,NA,skipped,NA,811194,NA,NA,811181.96,811195,2023-09-08T12:08:17Z,811198.42,NULL,Integrität,uadilifu,s,muungano,mtiririko,upunguaji,NA,sdfdsf,NA,1,NA,NA,NA,NA,NA,NA,NA,NA,NA,NA,NA,NA,NA,NA,NA,NA,NA,NA,NA
e15de,Shallow Question,html.Page,5_0_1_0_4_1_0,NA,NA,form submission,6908.58,811195,811181.96,811198.42,818107,818108,2023-09-08T12:08:24Z,818114.16,NULL,Integrität,uadilifu,s,muungano,mtiririko,upunguaji,uadilifu,NA,NA,1,NA,NA,NA,NA,NA,NA,NA,NA,NA,NA,NA,NA,NA,NA,NA,NA,NA,NA,NA
e15de,"""Richtig""-Screen",canvas.Screen,5_0_1_0_4_1_1,NA,NA,timeout,4999.34,818113,818102.12,818114.16,823097.04,823098,2023-09-08T12:08:29Z,823113.5,NULL,Integrität,uadilifu,s,muungano,mtiririko,upunguaji,NA,sdfdsf,1,1,NA,NA,NA,NA,NA,NA,NA,NA,NA,NA,NA,NA,NA,NA,NA,NA,NA,NA,NA
e15de,"""Falsch""-Screen",canvas.Screen,5_0_1_0_4_1_2,NA,NA,skipped,NA,823104,NA,NA,823097.04,823105,2023-09-08T12:08:29Z,823113.5,NULL,Integrität,uadilifu,s,muungano,mtiririko,upunguaji,NA,sdfdsf,NA,1,NA,NA,NA,NA,NA,NA,NA,NA,NA,NA,NA,NA,NA,NA,NA,NA,NA,NA,NA
e15de,shallow,flow.Sequence,5_0_1_0_4_1,NA,NA,completion,11898.62,811195,811181.96,811198.42,823097.04,823106,2023-09-08T12:08:29Z,823113.5,NULL,Integrität,uadilifu,s,muungano,mtiririko,upunguaji,NA,sdfdsf,NA,1,NA,NA,NA,NA,NA,NA,NA,NA,NA,NA,NA,NA,NA,NA,NA,NA,NA,NA,NA
e15de,task,flow.Sequence,5_0_1_0_4,NA,NA,completion,11898.62,811194,811181.96,811198.42,823097.04,823106,2023-09-08T12:08:29Z,823113.5,NULL,Integrität,uadilifu,s,muungano,mtiririko,upunguaji,NA,sdfdsf,NA,1,NA,NA,NA,NA,NA,NA,NA,NA,NA,NA,NA,NA,NA,NA,NA,NA,NA,NA,NA
e15de,deep,flow.Sequence,5_0_1_0_5_0,NA,NA,skipped,NA,823107,NA,NA,823097.04,823107,2023-09-08T12:08:29Z,823113.5,NULL,Fleisch,mshakiki,s,kizunguzungu,mshikamano,angusho,NA,sdfdsf,NA,1,NA,NA,NA,NA,NA,NA,NA,NA,NA,NA,NA,NA,NA,NA,NA,NA,NA,NA,NA
e15de,Shallow Question,html.Page,5_0_1_0_5_1_0,NA,NA,form submission,4340.5,823108,823097.04,823113.5,827454,827455,2023-09-08T12:08:33Z,827462.98,NULL,Fleisch,mshakiki,s,kizunguzungu,mshikamano,angusho,mshakiki,NA,NA,1,NA,NA,NA,NA,NA,NA,NA,NA,NA,NA,NA,NA,NA,NA,NA,NA,NA,NA,NA
e15de,"""Richtig""-Screen",canvas.Screen,5_0_1_0_5_1_1,NA,NA,timeout,4999.4,827462,827449.18,827462.98,832446.2,832447,2023-09-08T12:08:38Z,832462.38,NULL,Fleisch,mshakiki,s,kizunguzungu,mshikamano,angusho,NA,sdfdsf,1,1,NA,NA,NA,NA,NA,NA,NA,NA,NA,NA,NA,NA,NA,NA,NA,NA,NA,NA,NA
e15de,"""Falsch""-Screen",canvas.Screen,5_0_1_0_5_1_2,NA,NA,skipped,NA,832455,NA,NA,832446.2,832455,2023-09-08T12:08:38Z,832462.38,NULL,Fleisch,mshakiki,s,kizunguzungu,mshikamano,angusho,NA,sdfdsf,NA,1,NA,NA,NA,NA,NA,NA,NA,NA,NA,NA,NA,NA,NA,NA,NA,NA,NA,NA,NA
e15de,shallow,flow.Sequence,5_0_1_0_5_1,NA,NA,completion,9332.7,823107,823097.04,823113.5,832446.2,832455,2023-09-08T12:08:38Z,832462.38,NULL,Fleisch,mshakiki,s,kizunguzungu,mshikamano,angusho,NA,sdfdsf,NA,1,NA,NA,NA,NA,NA,NA,NA,NA,NA,NA,NA,NA,NA,NA,NA,NA,NA,NA,NA
e15de,task,flow.Sequence,5_0_1_0_5,NA,NA,completion,9332.7,823106,823097.04,823113.5,832446.2,832456,2023-09-08T12:08:38Z,832462.38,NULL,Fleisch,mshakiki,s,kizunguzungu,mshikamano,angusho,NA,sdfdsf,NA,1,NA,NA,NA,NA,NA,NA,NA,NA,NA,NA,NA,NA,NA,NA,NA,NA,NA,NA,NA
e15de,deep,flow.Sequence,5_0_1_0_6_0,NA,NA,skipped,NA,832456,NA,NA,832446.2,832457,2023-09-08T12:08:38Z,832462.38,NULL,Prüfung,mtihani,s,mkulima,mtizamo,ufumbuzi,NA,sdfdsf,NA,1,NA,NA,NA,NA,NA,NA,NA,NA,NA,NA,NA,NA,NA,NA,NA,NA,NA,NA,NA
e15de,Shallow Question,html.Page,5_0_1_0_6_1_0,NA,NA,form submission,4823.62,832457,832446.2,832462.38,837286,837287,2023-09-08T12:08:43Z,837294.98,NULL,Prüfung,mtihani,s,mkulima,mtizamo,ufumbuzi,mtihani,NA,NA,1,NA,NA,NA,NA,NA,NA,NA,NA,NA,NA,NA,NA,NA,NA,NA,NA,NA,NA,NA
e15de,"""Richtig""-Screen",canvas.Screen,5_0_1_0_6_1_1,NA,NA,timeout,4999.42,837289,837282.84,837294.98,842277.78,842279,2023-09-08T12:08:48Z,842294.4,NULL,Prüfung,mtihani,s,mkulima,mtizamo,ufumbuzi,NA,sdfdsf,1,1,NA,NA,NA,NA,NA,NA,NA,NA,NA,NA,NA,NA,NA,NA,NA,NA,NA,NA,NA
e15de,"""Falsch""-Screen",canvas.Screen,5_0_1_0_6_1_2,NA,NA,skipped,NA,842286,NA,NA,842277.78,842286,2023-09-08T12:08:48Z,842294.4,NULL,Prüfung,mtihani,s,mkulima,mtizamo,ufumbuzi,NA,sdfdsf,NA,1,NA,NA,NA,NA,NA,NA,NA,NA,NA,NA,NA,NA,NA,NA,NA,NA,NA,NA,NA
e15de,shallow,flow.Sequence,5_0_1_0_6_1,NA,NA,completion,9815.4,832457,832446.2,832462.38,842277.78,842287,2023-09-08T12:08:48Z,842294.4,NULL,Prüfung,mtihani,s,mkulima,mtizamo,ufumbuzi,NA,sdfdsf,NA,1,NA,NA,NA,NA,NA,NA,NA,NA,NA,NA,NA,NA,NA,NA,NA,NA,NA,NA,NA
e15de,task,flow.Sequence,5_0_1_0_6,NA,NA,completion,9815.4,832456,832446.2,832462.38,842277.78,842287,2023-09-08T12:08:48Z,842294.4,NULL,Prüfung,mtihani,s,mkulima,mtizamo,ufumbuzi,NA,sdfdsf,NA,1,NA,NA,NA,NA,NA,NA,NA,NA,NA,NA,NA,NA,NA,NA,NA,NA,NA,NA,NA
e15de,Deep Question,html.Page,5_0_1_0_7_0_0,NA,NA,form submission,8554.6,842288,842277.78,842294.4,850849,850850,2023-09-08T12:08:56Z,850859.92,NULL,Genehmigung,idhini,d,NA,NA,NA,inhini,NA,NA,1,NA,NA,NA,NA,NA,NA,NA,NA,NA,NA,NA,NA,NA,NA,NA,NA,NA,NA,NA
e15de,"""Richtig""-Screen",canvas.Screen,5_0_1_0_7_0_1,NA,NA,skipped,NA,850854,NA,NA,850849,850854,2023-09-08T12:08:56Z,850859.92,NULL,Genehmigung,idhini,d,NA,NA,NA,NA,sdfdsf,NA,1,NA,NA,NA,NA,NA,NA,NA,NA,NA,NA,NA,NA,NA,NA,NA,NA,NA,NA,NA
e15de,"""Falsch""-Screen",canvas.Screen,5_0_1_0_7_0_2,NA,NA,timeout,4999.4199999999,850859,850844.24,850859.92,855842.7,855844,2023-09-08T12:09:01Z,855859.34,NULL,Genehmigung,idhini,d,NA,NA,NA,NA,sdfdsf,0,1,NA,NA,NA,NA,NA,NA,NA,NA,NA,NA,NA,NA,NA,NA,NA,NA,NA,NA,NA
e15de,deep,flow.Sequence,5_0_1_0_7_0,NA,NA,completion,13548.3,842288,842277.78,842294.4,855842.7,855844,2023-09-08T12:09:01Z,855859.34,NULL,Genehmigung,idhini,d,NA,NA,NA,NA,sdfdsf,NA,1,NA,NA,NA,NA,NA,NA,NA,NA,NA,NA,NA,NA,NA,NA,NA,NA,NA,NA,NA
e15de,shallow,flow.Sequence,5_0_1_0_7_1,NA,NA,skipped,NA,855845,NA,NA,855842.7,855845,2023-09-08T12:09:01Z,855859.34,NULL,Genehmigung,idhini,d,NA,NA,NA,NA,sdfdsf,NA,1,NA,NA,NA,NA,NA,NA,NA,NA,NA,NA,NA,NA,NA,NA,NA,NA,NA,NA,NA
e15de,task,flow.Sequence,5_0_1_0_7,NA,NA,completion,13548.3,842287,842277.78,842294.4,855842.7,855845,2023-09-08T12:09:01Z,855859.34,NULL,Genehmigung,idhini,d,NA,NA,NA,NA,sdfdsf,NA,1,NA,NA,NA,NA,NA,NA,NA,NA,NA,NA,NA,NA,NA,NA,NA,NA,NA,NA,NA
e15de,block,flow.Loop,5_0_1_0,NA,NA,completion,98743.36,757099,757099.08,757099.34,855842.7,855846,2023-09-08T12:09:01Z,855859.34,NULL,NA,NA,NA,NA,NA,NA,NA,sdfdsf,NA,1,NA,NA,NA,NA,NA,NA,NA,NA,NA,NA,NA,NA,NA,NA,NA,NA,NA,NA,NA
e15de,weiter,canvas.Screen,5_0_1_1,sdf,keypress(Space),response,1236.66,855846,855842.7,855859.34,857096,857115,2023-09-08T12:09:03Z,857169.46,NULL,NA,NA,NA,NA,NA,NA,NA,sdfdsf,NA,1,NA,NA,NA,NA,NA,NA,NA,NA,NA,NA,NA,NA,NA,NA,NA,NA,NA,NA,NA
e15de,check continue,flow.Sequence,5_0_1,NA,NA,completion,99996.66,757099,757099.08,757099.34,857096,857116,2023-09-08T12:09:03Z,857169.46,NULL,NA,NA,NA,NA,NA,NA,NA,sdfdsf,NA,1,NA,NA,NA,NA,NA,NA,NA,NA,NA,NA,NA,NA,NA,NA,NA,NA,NA,NA,NA
e15de,Deep Question,html.Page,5_0_2_0_0_0_0,NA,NA,form submission,6441.54,857169,857169.12,857169.46,863611,863611,2023-09-08T12:09:09Z,863625,NULL,Begegnung,kukutana,d,NA,NA,NA,kukutana,NA,NA,2,NA,NA,NA,NA,NA,NA,NA,NA,NA,NA,NA,NA,NA,NA,NA,NA,NA,NA,NA
e15de,"""Richtig""-Screen",canvas.Screen,5_0_2_0_0_0_1,NA,NA,timeout,4999.28,863612,863608.42,863625,868607.66,868609,2023-09-08T12:09:14Z,868624.28,NULL,Begegnung,kukutana,d,NA,NA,NA,NA,sdf,1,2,NA,NA,NA,NA,NA,NA,NA,NA,NA,NA,NA,NA,NA,NA,NA,NA,NA,NA,NA
e15de,"""Falsch""-Screen",canvas.Screen,5_0_2_0_0_0_2,NA,NA,skipped,NA,868613,NA,NA,868607.66,868614,2023-09-08T12:09:14Z,868624.28,NULL,Begegnung,kukutana,d,NA,NA,NA,NA,sdf,NA,2,NA,NA,NA,NA,NA,NA,NA,NA,NA,NA,NA,NA,NA,NA,NA,NA,NA,NA,NA
e15de,deep,flow.Sequence,5_0_2_0_0_0,NA,NA,completion,11438.2,857169,857169.12,857169.46,868607.66,868614,2023-09-08T12:09:14Z,868624.28,NULL,Begegnung,kukutana,d,NA,NA,NA,NA,sdf,NA,2,NA,NA,NA,NA,NA,NA,NA,NA,NA,NA,NA,NA,NA,NA,NA,NA,NA,NA,NA
e15de,shallow,flow.Sequence,5_0_2_0_0_1,NA,NA,skipped,NA,868614,NA,NA,868607.66,868615,2023-09-08T12:09:14Z,868624.28,NULL,Begegnung,kukutana,d,NA,NA,NA,NA,sdf,NA,2,NA,NA,NA,NA,NA,NA,NA,NA,NA,NA,NA,NA,NA,NA,NA,NA,NA,NA,NA
e15de,task,flow.Sequence,5_0_2_0_0,NA,NA,completion,11438.2,857169,857169.12,857169.46,868607.66,868615,2023-09-08T12:09:14Z,868624.28,NULL,Begegnung,kukutana,d,NA,NA,NA,NA,sdf,NA,2,NA,NA,NA,NA,NA,NA,NA,NA,NA,NA,NA,NA,NA,NA,NA,NA,NA,NA,NA
e15de,deep,flow.Sequence,5_0_2_0_1_0,NA,NA,skipped,NA,868615,NA,NA,868607.66,868615,2023-09-08T12:09:14Z,868624.28,NULL,Fleisch,mshakiki,s,kizunguzungu,mshikamano,angusho,NA,sdf,NA,2,NA,NA,NA,NA,NA,NA,NA,NA,NA,NA,NA,NA,NA,NA,NA,NA,NA,NA,NA
e15de,Shallow Question,html.Page,5_0_2_0_1_1_0,NA,NA,form submission,3750.72,868616,868607.66,868624.28,872375,872376,2023-09-08T12:09:18Z,872373.82,NULL,Fleisch,mshakiki,s,kizunguzungu,mshikamano,angusho,mshakiki,NA,NA,2,NA,NA,NA,NA,NA,NA,NA,NA,NA,NA,NA,NA,NA,NA,NA,NA,NA,NA,NA
e15de,"""Richtig""-Screen",canvas.Screen,5_0_2_0_1_1_1,NA,NA,timeout,4999.38,872381,872369.76,872373.82,877356.56,877358,2023-09-08T12:09:23Z,877373.2,NULL,Fleisch,mshakiki,s,kizunguzungu,mshikamano,angusho,NA,sdf,1,2,NA,NA,NA,NA,NA,NA,NA,NA,NA,NA,NA,NA,NA,NA,NA,NA,NA,NA,NA
e15de,"""Falsch""-Screen",canvas.Screen,5_0_2_0_1_1_2,NA,NA,skipped,NA,877363,NA,NA,877356.56,877363,2023-09-08T12:09:23Z,877373.2,NULL,Fleisch,mshakiki,s,kizunguzungu,mshikamano,angusho,NA,sdf,NA,2,NA,NA,NA,NA,NA,NA,NA,NA,NA,NA,NA,NA,NA,NA,NA,NA,NA,NA,NA
e15de,shallow,flow.Sequence,5_0_2_0_1_1,NA,NA,completion,8732.28,868616,868607.66,868624.28,877356.56,877364,2023-09-08T12:09:23Z,877373.2,NULL,Fleisch,mshakiki,s,kizunguzungu,mshikamano,angusho,NA,sdf,NA,2,NA,NA,NA,NA,NA,NA,NA,NA,NA,NA,NA,NA,NA,NA,NA,NA,NA,NA,NA
e15de,task,flow.Sequence,5_0_2_0_1,NA,NA,completion,8732.28,868615,868607.66,868624.28,877356.56,877364,2023-09-08T12:09:23Z,877373.2,NULL,Fleisch,mshakiki,s,kizunguzungu,mshikamano,angusho,NA,sdf,NA,2,NA,NA,NA,NA,NA,NA,NA,NA,NA,NA,NA,NA,NA,NA,NA,NA,NA,NA,NA
e15de,Deep Question,html.Page,5_0_2_0_2_0_0,NA,NA,form submission,18182.8,877364,877356.56,877373.2,895556,895556,2023-09-08T12:09:41Z,895554.08,NULL,Genehmigung,idhini,d,NA,NA,NA,idhini,NA,NA,2,NA,NA,NA,NA,NA,NA,NA,NA,NA,NA,NA,NA,NA,NA,NA,NA,NA,NA,NA
e15de,"""Richtig""-Screen",canvas.Screen,5_0_2_0_2_0_1,NA,NA,timeout,4999.3200000001,895558,895553.26,895554.08,900536.82,900538,2023-09-08T12:09:46Z,900553.4,NULL,Genehmigung,idhini,d,NA,NA,NA,NA,sdf,1,2,NA,NA,NA,NA,NA,NA,NA,NA,NA,NA,NA,NA,NA,NA,NA,NA,NA,NA,NA
e15de,"""Falsch""-Screen",canvas.Screen,5_0_2_0_2_0_2,NA,NA,skipped,NA,900546,NA,NA,900536.82,900547,2023-09-08T12:09:46Z,900553.4,NULL,Genehmigung,idhini,d,NA,NA,NA,NA,sdf,NA,2,NA,NA,NA,NA,NA,NA,NA,NA,NA,NA,NA,NA,NA,NA,NA,NA,NA,NA,NA
e15de,deep,flow.Sequence,5_0_2_0_2_0,NA,NA,completion,23163.62,877364,877356.56,877373.2,900536.82,900547,2023-09-08T12:09:46Z,900553.4,NULL,Genehmigung,idhini,d,NA,NA,NA,NA,sdf,NA,2,NA,NA,NA,NA,NA,NA,NA,NA,NA,NA,NA,NA,NA,NA,NA,NA,NA,NA,NA
e15de,shallow,flow.Sequence,5_0_2_0_2_1,NA,NA,skipped,NA,900548,NA,NA,900536.82,900548,2023-09-08T12:09:46Z,900553.4,NULL,Genehmigung,idhini,d,NA,NA,NA,NA,sdf,NA,2,NA,NA,NA,NA,NA,NA,NA,NA,NA,NA,NA,NA,NA,NA,NA,NA,NA,NA,NA
e15de,task,flow.Sequence,5_0_2_0_2,NA,NA,completion,23163.62,877364,877356.56,877373.2,900536.82,900548,2023-09-08T12:09:46Z,900553.4,NULL,Genehmigung,idhini,d,NA,NA,NA,NA,sdf,NA,2,NA,NA,NA,NA,NA,NA,NA,NA,NA,NA,NA,NA,NA,NA,NA,NA,NA,NA,NA
e15de,deep,flow.Sequence,5_0_2_0_3_0,NA,NA,skipped,NA,900548,NA,NA,900536.82,900549,2023-09-08T12:09:46Z,900553.4,NULL,Aufstand,ugomaji,s,mazidio,msingi,kujieleza,NA,sdf,NA,2,NA,NA,NA,NA,NA,NA,NA,NA,NA,NA,NA,NA,NA,NA,NA,NA,NA,NA,NA
e15de,Shallow Question,html.Page,5_0_2_0_3_1_0,NA,NA,form submission,4704.6,900549,900536.82,900553.4,905258,905258,2023-09-08T12:09:51Z,905269.7,NULL,Aufstand,ugomaji,s,mazidio,msingi,kujieleza,ugomaji,NA,NA,2,NA,NA,NA,NA,NA,NA,NA,NA,NA,NA,NA,NA,NA,NA,NA,NA,NA,NA,NA
e15de,"""Richtig""-Screen",canvas.Screen,5_0_2_0_3_1_1,NA,NA,timeout,4999.1000000001,905260,905256.36,905269.7,910252.14,910253,2023-09-08T12:09:56Z,910268.8,NULL,Aufstand,ugomaji,s,mazidio,msingi,kujieleza,NA,sdf,1,2,NA,NA,NA,NA,NA,NA,NA,NA,NA,NA,NA,NA,NA,NA,NA,NA,NA,NA,NA
