observation,sender,sender_type,sender_id,response,response_action,ended_on,duration,time_run,time_render,time_show,time_end,time_commit,timestamp,time_switch,distractors,german,swahili,enc,distractor1,distractor2,distractor3,response_2,x,correct,x_2,url_vp,url_sess,meta_labjs_version,meta_location,meta_user_agent,meta_platform,meta_language,meta_locale,meta_time_zone,meta_timezone_offset,meta_screen_width,meta_screen_height,meta_scroll_width,meta_scroll_height,meta_window_inner_width,meta_window_inner_height,meta_device_pixel_ratio,meta_labjs_build_flavor,meta_labjs_build_commit
0c921,Introduction general,canvas.Screen,0,weiter,keypress(q),response,153719.26399996,2600.1999999881,2457.607,2674.336,156393.59999996,156403.5,2023-03-20T12:53:47Z,156433.788,NULL,NA,NA,NA,NA,NA,NA,NA,NA,NA,NA,203,1,20.2.4,https://neurocog.fernuni.ch/studies/vweber/sfink/encoding_immediate/index.html?vp=203&sess=1,"Mozilla/5.0 (Windows NT 10.0; Win64; x64) AppleWebKit/537.36 (KHTML, like Gecko) Chrome/111.0.0.0 Safari/537.36 Edg/111.0.1661.41",Win32,de,de-CH,Europe/Zurich,-60,1500,1000,1395,841,1395,889,2,production,f5b4a49f956347addd546a832a3327688c2c0fef
0c921,Introduction practice,canvas.Screen,1_0,NA,keypress(Space),response,13609.311999964,156404.30000001,156392.165,156433.788,170043.09999996,170044.80000001,2023-03-20T12:54:00Z,170054.809,NULL,NA,NA,NA,NA,NA,NA,NA,NA,NA,NA,NA,NA,NA,NA,NA,NA,NA,NA,NA,NA,NA,NA,NA,NA,NA,NA,NA,NA,NA
0c921,Deep Question,html.Page,1_1_0_0_0,NA,NA,form submission,16793.790999964,170045.39999998,170036.687,170054.809,186848.59999996,186849.19999999,2023-03-20T12:54:17Z,186911.846,"c(""distractor1"", ""distractor2"", ""distractor3"")",Gesundheit,salama,d,NA,NA,NA,a,NA,NA,NA,NA,NA,NA,NA,NA,NA,NA,NA,NA,NA,NA,NA,NA,NA,NA,NA,NA,NA,NA
0c921,"""Richtig""-Screen",canvas.Screen,1_1_0_0_1,NA,NA,skipped,NA,186854.19999999,NA,NA,186848.59999996,186855,2023-03-20T12:54:17Z,186911.846,"c(""distractor1"", ""distractor2"", ""distractor3"")",Gesundheit,salama,d,NA,NA,NA,NA,NA,NA,NA,NA,NA,NA,NA,NA,NA,NA,NA,NA,NA,NA,NA,NA,NA,NA,NA,NA,NA,NA
0c921,"""Falsch""-Screen",canvas.Screen,1_1_0_0_2,NA,NA,timeout,5006.83,186858.19999999,186819.657,186911.846,191902.211,191908.39999998,2023-03-20T12:54:22Z,191918.676,"c(""distractor1"", ""distractor2"", ""distractor3"")",Gesundheit,salama,d,NA,NA,NA,NA,NA,0,NA,NA,NA,NA,NA,NA,NA,NA,NA,NA,NA,NA,NA,NA,NA,NA,NA,NA,NA,NA
0c921,deep,flow.Sequence,1_1_0_0,NA,NA,completion,21847.402,170045.39999998,170036.687,170054.809,191902.211,191909.09999996,2023-03-20T12:54:22Z,191918.676,"c(""distractor1"", ""distractor2"", ""distractor3"")",Gesundheit,salama,d,NA,NA,NA,NA,NA,NA,NA,NA,NA,NA,NA,NA,NA,NA,NA,NA,NA,NA,NA,NA,NA,NA,NA,NA,NA,NA
0c921,shallow,flow.Sequence,1_1_0_1,NA,NA,skipped,NA,191909.30000001,NA,NA,191902.211,191909.59999996,2023-03-20T12:54:22Z,191918.676,"c(""distractor1"", ""distractor2"", ""distractor3"")",Gesundheit,salama,d,NA,NA,NA,NA,NA,NA,NA,NA,NA,NA,NA,NA,NA,NA,NA,NA,NA,NA,NA,NA,NA,NA,NA,NA,NA,NA
0c921,task,flow.Sequence,1_1_0,NA,NA,completion,21847.402,170045.30000001,170036.687,170054.809,191902.211,191909.89999998,2023-03-20T12:54:22Z,191918.676,"c(""distractor1"", ""distractor2"", ""distractor3"")",Gesundheit,salama,d,NA,NA,NA,NA,NA,NA,NA,NA,NA,NA,NA,NA,NA,NA,NA,NA,NA,NA,NA,NA,NA,NA,NA,NA,NA,NA
0c921,deep,flow.Sequence,1_1_1_0,NA,NA,skipped,NA,191910.19999999,NA,NA,191902.211,191910.5,2023-03-20T12:54:22Z,191918.676,"c(""distractor1"", ""distractor2"", ""distractor3"")",Gegenwart,hadhara,s,katiba,jokofu,mikopo,NA,NA,NA,NA,NA,NA,NA,NA,NA,NA,NA,NA,NA,NA,NA,NA,NA,NA,NA,NA,NA,NA,NA
0c921,Shallow Question,html.Page,1_1_1_1_0,NA,NA,form submission,14621.723999976,191910.80000001,191902.211,191918.676,206540.39999998,206540.89999998,2023-03-20T12:54:37Z,206559.033,"c(""distractor1"", ""distractor2"", ""distractor3"")",Gegenwart,hadhara,s,katiba,jokofu,mikopo,hadhara,NA,NA,NA,NA,NA,NA,NA,NA,NA,NA,NA,NA,NA,NA,NA,NA,NA,NA,NA,NA,NA,NA
0c921,"""Richtig""-Screen",canvas.Screen,1_1_1_1_1,NA,NA,timeout,4999.144,206550,206525.912,206559.033,211541.676,211543.19999999,2023-03-20T12:54:42Z,211558.177,"c(""distractor1"", ""distractor2"", ""distractor3"")",Gegenwart,hadhara,s,katiba,jokofu,mikopo,NA,NA,1,NA,NA,NA,NA,NA,NA,NA,NA,NA,NA,NA,NA,NA,NA,NA,NA,NA,NA,NA,NA
0c921,"""Falsch""-Screen",canvas.Screen,1_1_1_1_2,NA,NA,skipped,NA,211550.80000001,NA,NA,211541.676,211551.59999996,2023-03-20T12:54:42Z,211558.177,"c(""distractor1"", ""distractor2"", ""distractor3"")",Gegenwart,hadhara,s,katiba,jokofu,mikopo,NA,NA,NA,NA,NA,NA,NA,NA,NA,NA,NA,NA,NA,NA,NA,NA,NA,NA,NA,NA,NA,NA,NA
0c921,shallow,flow.Sequence,1_1_1_1,NA,NA,completion,19623,191910.69999999,191902.211,191918.676,211541.676,211552.09999996,2023-03-20T12:54:42Z,211558.177,"c(""distractor1"", ""distractor2"", ""distractor3"")",Gegenwart,hadhara,s,katiba,jokofu,mikopo,NA,NA,NA,NA,NA,NA,NA,NA,NA,NA,NA,NA,NA,NA,NA,NA,NA,NA,NA,NA,NA,NA,NA
0c921,task,flow.Sequence,1_1_1,NA,NA,completion,19623,191910,191902.211,191918.676,211541.676,211552.5,2023-03-20T12:54:42Z,211558.177,"c(""distractor1"", ""distractor2"", ""distractor3"")",Gegenwart,hadhara,s,katiba,jokofu,mikopo,NA,NA,NA,NA,NA,NA,NA,NA,NA,NA,NA,NA,NA,NA,NA,NA,NA,NA,NA,NA,NA,NA,NA
0c921,Deep Question,html.Page,1_1_2_0_0,NA,NA,form submission,10274.722999976,211553,211541.676,211558.177,221832.89999998,221833.69999999,2023-03-20T12:54:52Z,221851.952,"c(""distractor1"", ""distractor2"", ""distractor3"")",Schatten,kivuli,d,NA,NA,NA,g,NA,NA,NA,NA,NA,NA,NA,NA,NA,NA,NA,NA,NA,NA,NA,NA,NA,NA,NA,NA,NA,NA
0c921,"""Richtig""-Screen",canvas.Screen,1_1_2_0_1,NA,NA,skipped,NA,221843.89999998,NA,NA,221832.89999998,221844.5,2023-03-20T12:54:52Z,221851.952,"c(""distractor1"", ""distractor2"", ""distractor3"")",Schatten,kivuli,d,NA,NA,NA,NA,NA,NA,NA,NA,NA,NA,NA,NA,NA,NA,NA,NA,NA,NA,NA,NA,NA,NA,NA,NA,NA,NA
0c921,"""Falsch""-Screen",canvas.Screen,1_1_2_0_2,NA,NA,timeout,4995.312,221849.19999999,221828.692,221851.952,226830.767,226832.09999996,2023-03-20T12:54:57Z,226847.264,"c(""distractor1"", ""distractor2"", ""distractor3"")",Schatten,kivuli,d,NA,NA,NA,NA,NA,0,NA,NA,NA,NA,NA,NA,NA,NA,NA,NA,NA,NA,NA,NA,NA,NA,NA,NA,NA,NA
0c921,deep,flow.Sequence,1_1_2_0,NA,NA,completion,15272.59,211552.89999998,211541.676,211558.177,226830.767,226832.59999996,2023-03-20T12:54:57Z,226847.264,"c(""distractor1"", ""distractor2"", ""distractor3"")",Schatten,kivuli,d,NA,NA,NA,NA,NA,NA,NA,NA,NA,NA,NA,NA,NA,NA,NA,NA,NA,NA,NA,NA,NA,NA,NA,NA,NA,NA
0c921,shallow,flow.Sequence,1_1_2_1,NA,NA,skipped,NA,226832.80000001,NA,NA,226830.767,226833,2023-03-20T12:54:57Z,226847.264,"c(""distractor1"", ""distractor2"", ""distractor3"")",Schatten,kivuli,d,NA,NA,NA,NA,NA,NA,NA,NA,NA,NA,NA,NA,NA,NA,NA,NA,NA,NA,NA,NA,NA,NA,NA,NA,NA,NA
0c921,task,flow.Sequence,1_1_2,NA,NA,completion,15272.59,211552.80000001,211541.676,211558.177,226830.767,226833.39999998,2023-03-20T12:54:57Z,226847.264,"c(""distractor1"", ""distractor2"", ""distractor3"")",Schatten,kivuli,d,NA,NA,NA,NA,NA,NA,NA,NA,NA,NA,NA,NA,NA,NA,NA,NA,NA,NA,NA,NA,NA,NA,NA,NA,NA,NA
0c921,Deep Question,html.Page,1_1_3_0_0,NA,NA,form submission,7706.1359999762,226833.69999999,226830.767,226847.264,234553.39999998,234553.80000001,2023-03-20T12:55:05Z,234572.762,"c(""distractor1"", ""distractor2"", ""distractor3"")",Qualität,mtindo,d,NA,NA,NA,lo,NA,NA,NA,NA,NA,NA,NA,NA,NA,NA,NA,NA,NA,NA,NA,NA,NA,NA,NA,NA,NA,NA
0c921,"""Richtig""-Screen",canvas.Screen,1_1_3_0_1,NA,NA,skipped,NA,234562.89999998,NA,NA,234553.39999998,234563.30000001,2023-03-20T12:55:05Z,234572.762,"c(""distractor1"", ""distractor2"", ""distractor3"")",Qualität,mtindo,d,NA,NA,NA,NA,NA,NA,NA,NA,NA,NA,NA,NA,NA,NA,NA,NA,NA,NA,NA,NA,NA,NA,NA,NA,NA,NA
0c921,"""Falsch""-Screen",canvas.Screen,1_1_3_0_2,NA,NA,timeout,4993.693,234566,234546.291,234572.762,239549.983,239551.39999998,2023-03-20T12:55:10Z,239566.455,"c(""distractor1"", ""distractor2"", ""distractor3"")",Qualität,mtindo,d,NA,NA,NA,NA,NA,0,NA,NA,NA,NA,NA,NA,NA,NA,NA,NA,NA,NA,NA,NA,NA,NA,NA,NA,NA,NA
0c921,deep,flow.Sequence,1_1_3_0,NA,NA,completion,12702.719,226833.5,226830.767,226847.264,239549.983,239551.80000001,2023-03-20T12:55:10Z,239566.455,"c(""distractor1"", ""distractor2"", ""distractor3"")",Qualität,mtindo,d,NA,NA,NA,NA,NA,NA,NA,NA,NA,NA,NA,NA,NA,NA,NA,NA,NA,NA,NA,NA,NA,NA,NA,NA,NA,NA
0c921,shallow,flow.Sequence,1_1_3_1,NA,NA,skipped,NA,239552.09999996,NA,NA,239549.983,239552.39999998,2023-03-20T12:55:10Z,239566.455,"c(""distractor1"", ""distractor2"", ""distractor3"")",Qualität,mtindo,d,NA,NA,NA,NA,NA,NA,NA,NA,NA,NA,NA,NA,NA,NA,NA,NA,NA,NA,NA,NA,NA,NA,NA,NA,NA,NA
0c921,task,flow.Sequence,1_1_3,NA,NA,completion,12702.719,226833.5,226830.767,226847.264,239549.983,239552.69999999,2023-03-20T12:55:10Z,239566.455,"c(""distractor1"", ""distractor2"", ""distractor3"")",Qualität,mtindo,d,NA,NA,NA,NA,NA,NA,NA,NA,NA,NA,NA,NA,NA,NA,NA,NA,NA,NA,NA,NA,NA,NA,NA,NA,NA,NA
0c921,deep,flow.Sequence,1_1_4_0,NA,NA,skipped,NA,239552.80000001,NA,NA,239549.983,239553.09999996,2023-03-20T12:55:10Z,239566.455,"c(""distractor1"", ""distractor2"", ""distractor3"")",Kritik,lawama,s,dereva,nafasi,mawazo,NA,NA,NA,NA,NA,NA,NA,NA,NA,NA,NA,NA,NA,NA,NA,NA,NA,NA,NA,NA,NA,NA,NA
0c921,Shallow Question,html.Page,1_1_4_1_0,NA,NA,form submission,8201.9449999762,239553.30000001,239549.983,239566.455,247768.39999998,247768.89999998,2023-03-20T12:55:18Z,247787.133,"c(""distractor1"", ""distractor2"", ""distractor3"")",Kritik,lawama,s,dereva,nafasi,mawazo,mawazo,NA,NA,NA,NA,NA,NA,NA,NA,NA,NA,NA,NA,NA,NA,NA,NA,NA,NA,NA,NA,NA,NA
0c921,"""Richtig""-Screen",canvas.Screen,1_1_4_1_1,NA,NA,skipped,NA,247776.69999999,NA,NA,247768.39999998,247777.09999996,2023-03-20T12:55:18Z,247787.133,"c(""distractor1"", ""distractor2"", ""distractor3"")",Kritik,lawama,s,dereva,nafasi,mawazo,NA,NA,NA,NA,NA,NA,NA,NA,NA,NA,NA,NA,NA,NA,NA,NA,NA,NA,NA,NA,NA,NA,NA
0c921,"""Falsch""-Screen",canvas.Screen,1_1_4_1_2,NA,NA,timeout,5007.955,247779.5,247757.987,247787.133,252778.559,252779.80000001,2023-03-20T12:55:23Z,252795.088,"c(""distractor1"", ""distractor2"", ""distractor3"")",Kritik,lawama,s,dereva,nafasi,mawazo,NA,NA,0,NA,NA,NA,NA,NA,NA,NA,NA,NA,NA,NA,NA,NA,NA,NA,NA,NA,NA,NA,NA
0c921,shallow,flow.Sequence,1_1_4_1,NA,NA,completion,13212.104,239553.19999999,239549.983,239566.455,252778.559,252780.30000001,2023-03-20T12:55:23Z,252795.088,"c(""distractor1"", ""distractor2"", ""distractor3"")",Kritik,lawama,s,dereva,nafasi,mawazo,NA,NA,NA,NA,NA,NA,NA,NA,NA,NA,NA,NA,NA,NA,NA,NA,NA,NA,NA,NA,NA,NA,NA
0c921,task,flow.Sequence,1_1_4,NA,NA,completion,13212.104,239552.80000001,239549.983,239566.455,252778.559,252780.59999996,2023-03-20T12:55:23Z,252795.088,"c(""distractor1"", ""distractor2"", ""distractor3"")",Kritik,lawama,s,dereva,nafasi,mawazo,NA,NA,NA,NA,NA,NA,NA,NA,NA,NA,NA,NA,NA,NA,NA,NA,NA,NA,NA,NA,NA,NA,NA
0c921,deep,flow.Sequence,1_1_5_0,NA,NA,skipped,NA,252780.89999998,NA,NA,252778.559,252781.09999996,2023-03-20T12:55:23Z,252795.088,"c(""distractor1"", ""distractor2"", ""distractor3"")",Rückhalt,msaada,s,muhula,auwali,kiwimbe,NA,NA,NA,NA,NA,NA,NA,NA,NA,NA,NA,NA,NA,NA,NA,NA,NA,NA,NA,NA,NA,NA,NA
0c921,Shallow Question,html.Page,1_1_5_1_0,NA,NA,form submission,6422.1119999881,252781.19999999,252778.559,252795.088,259217.19999999,259217.80000001,2023-03-20T12:55:29Z,259235.909,"c(""distractor1"", ""distractor2"", ""distractor3"")",Rückhalt,msaada,s,muhula,auwali,kiwimbe,msaada,NA,NA,NA,NA,NA,NA,NA,NA,NA,NA,NA,NA,NA,NA,NA,NA,NA,NA,NA,NA,NA,NA
0c921,"""Richtig""-Screen",canvas.Screen,1_1_5_1_1,NA,NA,timeout,4992.599,259226.30000001,259209.28,259235.909,264212.073,264213.5,2023-03-20T12:55:34Z,264228.508,"c(""distractor1"", ""distractor2"", ""distractor3"")",Rückhalt,msaada,s,muhula,auwali,kiwimbe,NA,NA,1,NA,NA,NA,NA,NA,NA,NA,NA,NA,NA,NA,NA,NA,NA,NA,NA,NA,NA,NA,NA
0c921,"""Falsch""-Screen",canvas.Screen,1_1_5_1_2,NA,NA,skipped,NA,264220.89999998,NA,NA,264212.073,264221.39999998,2023-03-20T12:55:34Z,264228.508,"c(""distractor1"", ""distractor2"", ""distractor3"")",Rückhalt,msaada,s,muhula,auwali,kiwimbe,NA,NA,NA,NA,NA,NA,NA,NA,NA,NA,NA,NA,NA,NA,NA,NA,NA,NA,NA,NA,NA,NA,NA
0c921,shallow,flow.Sequence,1_1_5_1,NA,NA,completion,11416.985,252781.19999999,252778.559,252795.088,264212.073,264221.89999998,2023-03-20T12:55:34Z,264228.508,"c(""distractor1"", ""distractor2"", ""distractor3"")",Rückhalt,msaada,s,muhula,auwali,kiwimbe,NA,NA,NA,NA,NA,NA,NA,NA,NA,NA,NA,NA,NA,NA,NA,NA,NA,NA,NA,NA,NA,NA,NA
0c921,task,flow.Sequence,1_1_5,NA,NA,completion,11416.985,252780.69999999,252778.559,252795.088,264212.073,264222.19999999,2023-03-20T12:55:34Z,264228.508,"c(""distractor1"", ""distractor2"", ""distractor3"")",Rückhalt,msaada,s,muhula,auwali,kiwimbe,NA,NA,NA,NA,NA,NA,NA,NA,NA,NA,NA,NA,NA,NA,NA,NA,NA,NA,NA,NA,NA,NA,NA
0c921,block,flow.Loop,1_1,NA,NA,completion,94157.264,170045.30000001,170036.687,170054.809,264212.073,264222.80000001,2023-03-20T12:55:34Z,264228.508,"c(""distractor1"", ""distractor2"", ""distractor3"")",NA,NA,NA,NA,NA,NA,NA,NA,NA,NA,NA,NA,NA,NA,NA,NA,NA,NA,NA,NA,NA,NA,NA,NA,NA,NA,NA,NA,NA
0c921,Practice,flow.Sequence,1,NA,NA,completion,107778.285,156404.19999999,156392.165,156433.788,264212.073,264223.09999996,2023-03-20T12:55:34Z,264228.508,NULL,NA,NA,NA,NA,NA,NA,NA,NA,NA,NA,NA,NA,NA,NA,NA,NA,NA,NA,NA,NA,NA,NA,NA,NA,NA,NA,NA,NA,NA
0c921,Experiment start,canvas.Screen,2,weiter,keypress(q),response,412249.59199996,264223.30000001,264212.073,264228.508,676478.09999996,676486.5,2023-03-20T13:02:27Z,676635.243,NULL,NA,NA,NA,NA,NA,NA,NA,NA,NA,NA,NA,NA,NA,NA,NA,NA,NA,NA,NA,NA,NA,NA,NA,NA,NA,NA,NA,NA,NA
0c921,Deep Question,html.Page,3_0_0_0_0_0_0,NA,NA,form submission,12058.356999964,676638.39999998,676470.01,676635.243,688693.59999996,688694.30000001,2023-03-20T13:02:39Z,688711.149,NULL,Tester,wanaojaribu,d,NA,NA,NA,sumali,NA,NA,0,NA,NA,NA,NA,NA,NA,NA,NA,NA,NA,NA,NA,NA,NA,NA,NA,NA,NA,NA
0c921,"""Richtig""-Screen",canvas.Screen,3_0_0_0_0_0_1,NA,NA,skipped,NA,688708.5,NA,NA,688693.59999996,688708.89999998,2023-03-20T13:02:39Z,688711.149,NULL,Tester,wanaojaribu,d,NA,NA,NA,NA,sdf,NA,0,NA,NA,NA,NA,NA,NA,NA,NA,NA,NA,NA,NA,NA,NA,NA,NA,NA,NA,NA
0c921,"""Falsch""-Screen",canvas.Screen,3_0_0_0_0_0_2,NA,NA,timeout,4993.644,688713.19999999006,688685.51,688711.149,693688.339,693689.69999999006,2023-03-20T13:02:44Z,693704.793,NULL,Tester,wanaojaribu,d,NA,NA,NA,NA,sdf,0,0,NA,NA,NA,NA,NA,NA,NA,NA,NA,NA,NA,NA,NA,NA,NA,NA,NA,NA,NA
0c921,deep,flow.Sequence,3_0_0_0_0_0,NA,NA,completion,17053.096,676638.39999998,676470.01,676635.243,693688.339,693690.30000001,2023-03-20T13:02:44Z,693704.793,NULL,Tester,wanaojaribu,d,NA,NA,NA,NA,sdf,NA,0,NA,NA,NA,NA,NA,NA,NA,NA,NA,NA,NA,NA,NA,NA,NA,NA,NA,NA,NA
0c921,shallow,flow.Sequence,3_0_0_0_0_1,NA,NA,skipped,NA,693690.39999998,NA,NA,693688.339,693690.59999996,2023-03-20T13:02:44Z,693704.793,NULL,Tester,wanaojaribu,d,NA,NA,NA,NA,sdf,NA,0,NA,NA,NA,NA,NA,NA,NA,NA,NA,NA,NA,NA,NA,NA,NA,NA,NA,NA,NA
0c921,task,flow.Sequence,3_0_0_0_0,NA,NA,completion,17053.096,676638.30000001,676470.01,676635.243,693688.339,693690.89999998,2023-03-20T13:02:44Z,693704.793,NULL,Tester,wanaojaribu,d,NA,NA,NA,NA,sdf,NA,0,NA,NA,NA,NA,NA,NA,NA,NA,NA,NA,NA,NA,NA,NA,NA,NA,NA,NA,NA
0c921,deep,flow.Sequence,3_0_0_0_1_0,NA,NA,skipped,NA,693691.09999996,NA,NA,693688.339,693691.19999999006,2023-03-20T13:02:44Z,693704.793,NULL,Zuwachs,nyongeza,s,matilaba,udhibiti,hudhurio,NA,sdf,NA,0,NA,NA,NA,NA,NA,NA,NA,NA,NA,NA,NA,NA,NA,NA,NA,NA,NA,NA,NA
0c921,Shallow Question,html.Page,3_0_0_0_1_1_0,NA,NA,form submission,7612.6069999762,693691.39999998,693688.339,693704.793,701317.39999998,701317.89999998,2023-03-20T13:02:51Z,701335.944,NULL,Zuwachs,nyongeza,s,matilaba,udhibiti,hudhurio,udhibiti,NA,NA,0,NA,NA,NA,NA,NA,NA,NA,NA,NA,NA,NA,NA,NA,NA,NA,NA,NA,NA,NA
0c921,"""Richtig""-Screen",canvas.Screen,3_0_0_0_1_1_1,NA,NA,skipped,NA,701324.59999996,NA,NA,701317.39999998,701325,2023-03-20T13:02:51Z,701335.944,NULL,Zuwachs,nyongeza,s,matilaba,udhibiti,hudhurio,NA,sdf,NA,0,NA,NA,NA,NA,NA,NA,NA,NA,NA,NA,NA,NA,NA,NA,NA,NA,NA,NA,NA
0c921,"""Falsch""-Screen",canvas.Screen,3_0_0_0_1_1_2,NA,NA,timeout,4995.037,701326.89999998,701314.194,701335.944,706314.52,706315.89999998,2023-03-20T13:02:56Z,706330.981,NULL,Zuwachs,nyongeza,s,matilaba,udhibiti,hudhurio,NA,sdf,0,0,NA,NA,NA,NA,NA,NA,NA,NA,NA,NA,NA,NA,NA,NA,NA,NA,NA,NA,NA
0c921,shallow,flow.Sequence,3_0_0_0_1_1,NA,NA,completion,12609.727,693691.30000000994,693688.339,693704.793,706314.52,706316.39999998,2023-03-20T13:02:56Z,706330.981,NULL,Zuwachs,nyongeza,s,matilaba,udhibiti,hudhurio,NA,sdf,NA,0,NA,NA,NA,NA,NA,NA,NA,NA,NA,NA,NA,NA,NA,NA,NA,NA,NA,NA,NA
0c921,task,flow.Sequence,3_0_0_0_1,NA,NA,completion,12609.727,693691,693688.339,693704.793,706314.52,706316.69999999006,2023-03-20T13:02:56Z,706330.981,NULL,Zuwachs,nyongeza,s,matilaba,udhibiti,hudhurio,NA,sdf,NA,0,NA,NA,NA,NA,NA,NA,NA,NA,NA,NA,NA,NA,NA,NA,NA,NA,NA,NA,NA
0c921,deep,flow.Sequence,3_0_0_0_2_0,NA,NA,skipped,NA,706317,NA,NA,706314.52,706317.09999996,2023-03-20T13:02:56Z,706330.981,NULL,Symbol,kielezo,s,kinyume,nderemo,utayari,NA,sdf,NA,0,NA,NA,NA,NA,NA,NA,NA,NA,NA,NA,NA,NA,NA,NA,NA,NA,NA,NA,NA
0c921,Shallow Question,html.Page,3_0_0_0_2_1_0,NA,NA,form submission,6535.3190000119,706317.30000000994,706314.52,706330.981,712866.30000001,712867,2023-03-20T13:03:03Z,712868.62,NULL,Symbol,kielezo,s,kinyume,nderemo,utayari,utayari,NA,NA,0,NA,NA,NA,NA,NA,NA,NA,NA,NA,NA,NA,NA,NA,NA,NA,NA,NA,NA,NA
0c921,"""Richtig""-Screen",canvas.Screen,3_0_0_0_2_1_1,NA,NA,skipped,NA,712874.5,NA,NA,712866.30000001,712874.89999998,2023-03-20T13:03:03Z,712868.62,NULL,Symbol,kielezo,s,kinyume,nderemo,utayari,NA,sdf,NA,0,NA,NA,NA,NA,NA,NA,NA,NA,NA,NA,NA,NA,NA,NA,NA,NA,NA,NA,NA
0c921,"""Falsch""-Screen",canvas.Screen,3_0_0_0_2_1_2,NA,NA,timeout,4992.503,712877,712854.388,712868.62,717844.597,717845.89999998,2023-03-20T13:03:08Z,717861.123,NULL,Symbol,kielezo,s,kinyume,nderemo,utayari,NA,sdf,0,0,NA,NA,NA,NA,NA,NA,NA,NA,NA,NA,NA,NA,NA,NA,NA,NA,NA,NA,NA
0c921,shallow,flow.Sequence,3_0_0_0_2_1,NA,NA,completion,11513.616,706317.19999999006,706314.52,706330.981,717844.597,717846.5,2023-03-20T13:03:08Z,717861.123,NULL,Symbol,kielezo,s,kinyume,nderemo,utayari,NA,sdf,NA,0,NA,NA,NA,NA,NA,NA,NA,NA,NA,NA,NA,NA,NA,NA,NA,NA,NA,NA,NA
0c921,task,flow.Sequence,3_0_0_0_2,NA,NA,completion,11513.616,706316.89999998,706314.52,706330.981,717844.597,717846.80000001,2023-03-20T13:03:08Z,717861.123,NULL,Symbol,kielezo,s,kinyume,nderemo,utayari,NA,sdf,NA,0,NA,NA,NA,NA,NA,NA,NA,NA,NA,NA,NA,NA,NA,NA,NA,NA,NA,NA,NA
0c921,deep,flow.Sequence,3_0_0_0_3_0,NA,NA,skipped,NA,717847.09999996,NA,NA,717844.597,717847.19999999006,2023-03-20T13:03:08Z,717861.123,NULL,Fenster,dirisha,s,walakini,tasawari,maarifa,NA,sdf,NA,0,NA,NA,NA,NA,NA,NA,NA,NA,NA,NA,NA,NA,NA,NA,NA,NA,NA,NA,NA
0c921,Shallow Question,html.Page,3_0_0_0_3_1_0,NA,NA,form submission,7321.2769999761,717847.39999998,717844.597,717861.123,725182.39999998,725182.80000001,2023-03-20T13:03:15Z,725185.655,NULL,Fenster,dirisha,s,walakini,tasawari,maarifa,walakini,NA,NA,0,NA,NA,NA,NA,NA,NA,NA,NA,NA,NA,NA,NA,NA,NA,NA,NA,NA,NA,NA
0c921,"""Richtig""-Screen",canvas.Screen,3_0_0_0_3_1_1,NA,NA,skipped,NA,725188.89999998,NA,NA,725182.39999998,725189.30000001,2023-03-20T13:03:15Z,725185.655,NULL,Fenster,dirisha,s,walakini,tasawari,maarifa,NA,sdf,NA,0,NA,NA,NA,NA,NA,NA,NA,NA,NA,NA,NA,NA,NA,NA,NA,NA,NA,NA,NA
0c921,"""Falsch""-Screen",canvas.Screen,3_0_0_0_3_1_2,NA,NA,timeout,5005.6309999999,725191.19999999006,725174.723,725185.655,730174.77,730176,2023-03-20T13:03:20Z,730191.286,NULL,Fenster,dirisha,s,walakini,tasawari,maarifa,NA,sdf,0,0,NA,NA,NA,NA,NA,NA,NA,NA,NA,NA,NA,NA,NA,NA,NA,NA,NA,NA,NA
0c921,shallow,flow.Sequence,3_0_0_0_3_1,NA,NA,completion,12313.647,717847.39999998,717844.597,717861.123,730174.77,730176.39999998,2023-03-20T13:03:20Z,730191.286,NULL,Fenster,dirisha,s,walakini,tasawari,maarifa,NA,sdf,NA,0,NA,NA,NA,NA,NA,NA,NA,NA,NA,NA,NA,NA,NA,NA,NA,NA,NA,NA,NA
0c921,task,flow.Sequence,3_0_0_0_3,NA,NA,completion,12313.647,717846.89999998,717844.597,717861.123,730174.77,730176.69999999006,2023-03-20T13:03:20Z,730191.286,NULL,Fenster,dirisha,s,walakini,tasawari,maarifa,NA,sdf,NA,0,NA,NA,NA,NA,NA,NA,NA,NA,NA,NA,NA,NA,NA,NA,NA,NA,NA,NA,NA
0c921,deep,flow.Sequence,3_0_0_0_4_0,NA,NA,skipped,NA,730176.89999998,NA,NA,730174.77,730177,2023-03-20T13:03:20Z,730191.286,NULL,Spionage,upelelezi,s,maslahi,utokazo,magangao,NA,sdf,NA,0,NA,NA,NA,NA,NA,NA,NA,NA,NA,NA,NA,NA,NA,NA,NA,NA,NA,NA,NA
0c921,Shallow Question,html.Page,3_0_0_0_4_1_0,NA,NA,form submission,10398.313999964,730177.30000001,730174.77,730191.286,740589.59999996,740590,2023-03-20T13:03:31Z,740624.864,NULL,Spionage,upelelezi,s,maslahi,utokazo,magangao,utokazo,NA,NA,0,NA,NA,NA,NA,NA,NA,NA,NA,NA,NA,NA,NA,NA,NA,NA,NA,NA,NA,NA
0c921,"""Richtig""-Screen",canvas.Screen,3_0_0_0_4_1_1,NA,NA,skipped,NA,740598,NA,NA,740589.59999996,740598.39999998,2023-03-20T13:03:31Z,740624.864,NULL,Spionage,upelelezi,s,maslahi,utokazo,magangao,NA,sdf,NA,0,NA,NA,NA,NA,NA,NA,NA,NA,NA,NA,NA,NA,NA,NA,NA,NA,NA,NA,NA
0c921,"""Falsch""-Screen",canvas.Screen,3_0_0_0_4_1_2,NA,NA,timeout,5001.3370000001,740600.39999998,740583.252,740624.864,745609.546,745610.89999998,2023-03-20T13:03:36Z,745626.201,NULL,Spionage,upelelezi,s,maslahi,utokazo,magangao,NA,sdf,0,0,NA,NA,NA,NA,NA,NA,NA,NA,NA,NA,NA,NA,NA,NA,NA,NA,NA,NA,NA
0c921,shallow,flow.Sequence,3_0_0_0_4_1,NA,NA,completion,15418.26,730177.19999999006,730174.77,730191.286,745609.546,745611.59999996,2023-03-20T13:03:36Z,745626.201,NULL,Spionage,upelelezi,s,maslahi,utokazo,magangao,NA,sdf,NA,0,NA,NA,NA,NA,NA,NA,NA,NA,NA,NA,NA,NA,NA,NA,NA,NA,NA,NA,NA
0c921,task,flow.Sequence,3_0_0_0_4,NA,NA,completion,15418.26,730176.80000000994,730174.77,730191.286,745609.546,745611.80000001,2023-03-20T13:03:36Z,745626.201,NULL,Spionage,upelelezi,s,maslahi,utokazo,magangao,NA,sdf,NA,0,NA,NA,NA,NA,NA,NA,NA,NA,NA,NA,NA,NA,NA,NA,NA,NA,NA,NA,NA
0c921,Deep Question,html.Page,3_0_0_0_5_0_0,NA,NA,form submission,17871.898999964,745612.09999996,745609.546,745626.201,763498.09999996,763498.59999996,2023-03-20T13:03:54Z,763533.804,NULL,Vorsorge,tahadhari,d,NA,NA,NA,dwaraka,NA,NA,0,NA,NA,NA,NA,NA,NA,NA,NA,NA,NA,NA,NA,NA,NA,NA,NA,NA,NA,NA
0c921,"""Richtig""-Screen",canvas.Screen,3_0_0_0_5_0_1,NA,NA,skipped,NA,763508,NA,NA,763498.09999996,763508.5,2023-03-20T13:03:54Z,763533.804,NULL,Vorsorge,tahadhari,d,NA,NA,NA,NA,sdf,NA,0,NA,NA,NA,NA,NA,NA,NA,NA,NA,NA,NA,NA,NA,NA,NA,NA,NA,NA,NA
0c921,"""Falsch""-Screen",canvas.Screen,3_0_0_0_5_0_2,NA,NA,timeout,4996.273,763511.59999996,763486.279,763533.804,768513.617,768514.80000000994,2023-03-20T13:03:59Z,768530.077,NULL,Vorsorge,tahadhari,d,NA,NA,NA,NA,sdf,0,0,NA,NA,NA,NA,NA,NA,NA,NA,NA,NA,NA,NA,NA,NA,NA,NA,NA,NA,NA
0c921,deep,flow.Sequence,3_0_0_0_5_0,NA,NA,completion,22887.416,745612,745609.546,745626.201,768513.617,768515.39999998,2023-03-20T13:03:59Z,768530.077,NULL,Vorsorge,tahadhari,d,NA,NA,NA,NA,sdf,NA,0,NA,NA,NA,NA,NA,NA,NA,NA,NA,NA,NA,NA,NA,NA,NA,NA,NA,NA,NA
0c921,shallow,flow.Sequence,3_0_0_0_5_1,NA,NA,skipped,NA,768515.59999996,NA,NA,768513.617,768515.80000001,2023-03-20T13:03:59Z,768530.077,NULL,Vorsorge,tahadhari,d,NA,NA,NA,NA,sdf,NA,0,NA,NA,NA,NA,NA,NA,NA,NA,NA,NA,NA,NA,NA,NA,NA,NA,NA,NA,NA
0c921,task,flow.Sequence,3_0_0_0_5,NA,NA,completion,22887.416,745612,745609.546,745626.201,768513.617,768516.09999996,2023-03-20T13:03:59Z,768530.077,NULL,Vorsorge,tahadhari,d,NA,NA,NA,NA,sdf,NA,0,NA,NA,NA,NA,NA,NA,NA,NA,NA,NA,NA,NA,NA,NA,NA,NA,NA,NA,NA
0c921,Deep Question,html.Page,3_0_0_0_6_0_0,NA,NA,form submission,18005.223000012,768516.39999998,768513.617,768530.077,786535.30000000994,786535.89999998,2023-03-20T13:04:17Z,786554.476,NULL,Schüler,mwanafunzi,d,NA,NA,NA,edutwa,NA,NA,0,NA,NA,NA,NA,NA,NA,NA,NA,NA,NA,NA,NA,NA,NA,NA,NA,NA,NA,NA
0c921,"""Richtig""-Screen",canvas.Screen,3_0_0_0_6_0_1,NA,NA,skipped,NA,786544.80000001,NA,NA,786535.30000000994,786545.09999996,2023-03-20T13:04:17Z,786554.476,NULL,Schüler,mwanafunzi,d,NA,NA,NA,NA,sdf,NA,0,NA,NA,NA,NA,NA,NA,NA,NA,NA,NA,NA,NA,NA,NA,NA,NA,NA,NA,NA
0c921,"""Falsch""-Screen",canvas.Screen,3_0_0_0_6_0_2,NA,NA,timeout,4992.16,786547.19999999006,786523.632,786554.476,791530.192,791531.59999996,2023-03-20T13:04:22Z,791546.636,NULL,Schüler,mwanafunzi,d,NA,NA,NA,NA,sdf,0,0,NA,NA,NA,NA,NA,NA,NA,NA,NA,NA,NA,NA,NA,NA,NA,NA,NA,NA,NA
0c921,deep,flow.Sequence,3_0_0_0_6_0,NA,NA,completion,23000.115,768516.30000001,768513.617,768530.077,791530.192,791532.19999999006,2023-03-20T13:04:22Z,791546.636,NULL,Schüler,mwanafunzi,d,NA,NA,NA,NA,sdf,NA,0,NA,NA,NA,NA,NA,NA,NA,NA,NA,NA,NA,NA,NA,NA,NA,NA,NA,NA,NA
0c921,shallow,flow.Sequence,3_0_0_0_6_1,NA,NA,skipped,NA,791532.30000001,NA,NA,791530.192,791532.5,2023-03-20T13:04:22Z,791546.636,NULL,Schüler,mwanafunzi,d,NA,NA,NA,NA,sdf,NA,0,NA,NA,NA,NA,NA,NA,NA,NA,NA,NA,NA,NA,NA,NA,NA,NA,NA,NA,NA
0c921,task,flow.Sequence,3_0_0_0_6,NA,NA,completion,23000.115,768516.19999999006,768513.617,768530.077,791530.192,791532.80000000994,2023-03-20T13:04:22Z,791546.636,NULL,Schüler,mwanafunzi,d,NA,NA,NA,NA,sdf,NA,0,NA,NA,NA,NA,NA,NA,NA,NA,NA,NA,NA,NA,NA,NA,NA,NA,NA,NA,NA
0c921,Deep Question,html.Page,3_0_0_0_7_0_0,NA,NA,form submission,14948.364,791533.09999996,791530.192,791546.636,806495,806495.5,2023-03-20T13:04:37Z,806497.168,NULL,Konkurrent,mshindani,d,NA,NA,NA,whahadi,NA,NA,0,NA,NA,NA,NA,NA,NA,NA,NA,NA,NA,NA,NA,NA,NA,NA,NA,NA,NA,NA
0c921,"""Richtig""-Screen",canvas.Screen,3_0_0_0_7_0_1,NA,NA,skipped,NA,806503.89999998,NA,NA,806495,806504.19999999006,2023-03-20T13:04:37Z,806497.168,NULL,Konkurrent,mshindani,d,NA,NA,NA,NA,sdf,NA,0,NA,NA,NA,NA,NA,NA,NA,NA,NA,NA,NA,NA,NA,NA,NA,NA,NA,NA,NA
0c921,"""Falsch""-Screen",canvas.Screen,3_0_0_0_7_0_2,NA,NA,timeout,5002.028,806506.30000000994,806482.21,806497.168,811482.295,811484,2023-03-20T13:04:42Z,811499.196,NULL,Konkurrent,mshindani,d,NA,NA,NA,NA,sdf,0,0,NA,NA,NA,NA,NA,NA,NA,NA,NA,NA,NA,NA,NA,NA,NA,NA,NA,NA,NA
0c921,deep,flow.Sequence,3_0_0_0_7_0,NA,NA,completion,19935.659,791533.09999996,791530.192,791546.636,811482.295,811485.19999999006,2023-03-20T13:04:42Z,811499.196,NULL,Konkurrent,mshindani,d,NA,NA,NA,NA,sdf,NA,0,NA,NA,NA,NA,NA,NA,NA,NA,NA,NA,NA,NA,NA,NA,NA,NA,NA,NA,NA
0c921,shallow,flow.Sequence,3_0_0_0_7_1,NA,NA,skipped,NA,811485.59999996,NA,NA,811482.295,811486.09999996,2023-03-20T13:04:42Z,811499.196,NULL,Konkurrent,mshindani,d,NA,NA,NA,NA,sdf,NA,0,NA,NA,NA,NA,NA,NA,NA,NA,NA,NA,NA,NA,NA,NA,NA,NA,NA,NA,NA
0c921,task,flow.Sequence,3_0_0_0_7,NA,NA,completion,19935.659,791533,791530.192,791546.636,811482.295,811487,2023-03-20T13:04:42Z,811499.196,NULL,Konkurrent,mshindani,d,NA,NA,NA,NA,sdf,NA,0,NA,NA,NA,NA,NA,NA,NA,NA,NA,NA,NA,NA,NA,NA,NA,NA,NA,NA,NA
0c921,block,flow.Loop,3_0_0_0,NA,NA,completion,134847.052,676638.30000001,676470.01,676635.243,811482.295,811487.80000001,2023-03-20T13:04:42Z,811499.196,NULL,NA,NA,NA,NA,NA,NA,NA,sdf,NA,0,NA,NA,NA,NA,NA,NA,NA,NA,NA,NA,NA,NA,NA,NA,NA,NA,NA,NA,NA
0c921,weiter,canvas.Screen,3_0_0_1,sdf,keypress(Space),response,2558.0039999881,811488.19999999006,811482.295,811499.196,814057.19999999006,814065.09999996,2023-03-20T13:04:44Z,814180.506,NULL,NA,NA,NA,NA,NA,NA,NA,sdf,NA,0,NA,NA,NA,NA,NA,NA,NA,NA,NA,NA,NA,NA,NA,NA,NA,NA,NA,NA,NA
0c921,check continue,flow.Sequence,3_0_0,NA,NA,completion,137421.95699999,676638.19999999006,676470.01,676635.243,814057.19999999006,814065.5,2023-03-20T13:04:44Z,814180.506,NULL,NA,NA,NA,NA,NA,NA,NA,sdf,NA,0,NA,NA,NA,NA,NA,NA,NA,NA,NA,NA,NA,NA,NA,NA,NA,NA,NA,NA,NA
0c921,deep,flow.Sequence,3_0_1_0_0_0,NA,NA,skipped,NA,814174.30000001,NA,NA,814057.19999999006,814174.39999998,2023-03-20T13:04:44Z,814180.506,NULL,Zuwachs,nyongeza,s,matilaba,udhibiti,hudhurio,NA,sdfdsf,NA,1,NA,NA,NA,NA,NA,NA,NA,NA,NA,NA,NA,NA,NA,NA,NA,NA,NA,NA,NA
0c921,Shallow Question,html.Page,3_0_1_0_0_1_0,NA,NA,form submission,12342.193999988,814174.59999996,814049.752,814180.506,826522.69999999006,826523.09999996,2023-03-20T13:04:57Z,826524.799,NULL,Zuwachs,nyongeza,s,matilaba,udhibiti,hudhurio,udhibiti,NA,NA,1,NA,NA,NA,NA,NA,NA,NA,NA,NA,NA,NA,NA,NA,NA,NA,NA,NA,NA,NA
0c921,"""Richtig""-Screen",canvas.Screen,3_0_1_0_0_1_1,NA,NA,skipped,NA,826531.59999996,NA,NA,826522.69999999006,826532,2023-03-20T13:04:57Z,826524.799,NULL,Zuwachs,nyongeza,s,matilaba,udhibiti,hudhurio,NA,sdfdsf,NA,1,NA,NA,NA,NA,NA,NA,NA,NA,NA,NA,NA,NA,NA,NA,NA,NA,NA,NA,NA
0c921,"""Falsch""-Screen",canvas.Screen,3_0_1_0_0_1_2,NA,NA,timeout,5007.292,826534.09999996,826510.902,826524.799,831515.58,831516.80000001,2023-03-20T13:05:02Z,831532.091,NULL,Zuwachs,nyongeza,s,matilaba,udhibiti,hudhurio,NA,sdfdsf,0,1,NA,NA,NA,NA,NA,NA,NA,NA,NA,NA,NA,NA,NA,NA,NA,NA,NA,NA,NA
0c921,shallow,flow.Sequence,3_0_1_0_0_1,NA,NA,completion,17335.074,814174.59999996,814049.752,814180.506,831515.58,831517.39999998,2023-03-20T13:05:02Z,831532.091,NULL,Zuwachs,nyongeza,s,matilaba,udhibiti,hudhurio,NA,sdfdsf,NA,1,NA,NA,NA,NA,NA,NA,NA,NA,NA,NA,NA,NA,NA,NA,NA,NA,NA,NA,NA
0c921,task,flow.Sequence,3_0_1_0_0,NA,NA,completion,17335.074,814174.19999999006,814049.752,814180.506,831515.58,831517.69999999006,2023-03-20T13:05:02Z,831532.091,NULL,Zuwachs,nyongeza,s,matilaba,udhibiti,hudhurio,NA,sdfdsf,NA,1,NA,NA,NA,NA,NA,NA,NA,NA,NA,NA,NA,NA,NA,NA,NA,NA,NA,NA,NA
0c921,deep,flow.Sequence,3_0_1_0_1_0,NA,NA,skipped,NA,831517.89999998,NA,NA,831515.58,831518.09999996,2023-03-20T13:05:02Z,831532.091,NULL,Symbol,kielezo,s,kinyume,nderemo,utayari,NA,sdfdsf,NA,1,NA,NA,NA,NA,NA,NA,NA,NA,NA,NA,NA,NA,NA,NA,NA,NA,NA,NA,NA
0c921,Shallow Question,html.Page,3_0_1_0_1_1_0,NA,NA,form submission,7894.3089999761,831518.30000000994,831515.58,831532.091,839426.39999998,839426.89999998,2023-03-20T13:05:10Z,839462.013,NULL,Symbol,kielezo,s,kinyume,nderemo,utayari,kielezo,NA,NA,1,NA,NA,NA,NA,NA,NA,NA,NA,NA,NA,NA,NA,NA,NA,NA,NA,NA,NA,NA
0c921,"""Richtig""-Screen",canvas.Screen,3_0_1_0_1_1_1,NA,NA,timeout,4992.549,839434.80000001,839412.782,839462.013,844438.118,844439.39999998,2023-03-20T13:05:15Z,844454.562,NULL,Symbol,kielezo,s,kinyume,nderemo,utayari,NA,sdfdsf,1,1,NA,NA,NA,NA,NA,NA,NA,NA,NA,NA,NA,NA,NA,NA,NA,NA,NA,NA,NA
0c921,"""Falsch""-Screen",canvas.Screen,3_0_1_0_1_1_2,NA,NA,skipped,NA,844446.89999998,NA,NA,844438.118,844447.30000000994,2023-03-20T13:05:15Z,844454.562,NULL,Symbol,kielezo,s,kinyume,nderemo,utayari,NA,sdfdsf,NA,1,NA,NA,NA,NA,NA,NA,NA,NA,NA,NA,NA,NA,NA,NA,NA,NA,NA,NA,NA
0c921,shallow,flow.Sequence,3_0_1_0_1_1,NA,NA,completion,12906.027,831518.19999999006,831515.58,831532.091,844438.118,844447.80000001,2023-03-20T13:05:15Z,844454.562,NULL,Symbol,kielezo,s,kinyume,nderemo,utayari,NA,sdfdsf,NA,1,NA,NA,NA,NA,NA,NA,NA,NA,NA,NA,NA,NA,NA,NA,NA,NA,NA,NA,NA
0c921,task,flow.Sequence,3_0_1_0_1,NA,NA,completion,12906.027,831517.89999998,831515.58,831532.091,844438.118,844448,2023-03-20T13:05:15Z,844454.562,NULL,Symbol,kielezo,s,kinyume,nderemo,utayari,NA,sdfdsf,NA,1,NA,NA,NA,NA,NA,NA,NA,NA,NA,NA,NA,NA,NA,NA,NA,NA,NA,NA,NA
0c921,deep,flow.Sequence,3_0_1_0_2_0,NA,NA,skipped,NA,844448.30000001,NA,NA,844438.118,844448.59999996,2023-03-20T13:05:15Z,844454.562,NULL,Spionage,upelelezi,s,maslahi,utokazo,magangao,NA,sdfdsf,NA,1,NA,NA,NA,NA,NA,NA,NA,NA,NA,NA,NA,NA,NA,NA,NA,NA,NA,NA,NA
0c921,Shallow Question,html.Page,3_0_1_0_2_1_0,NA,NA,form submission,8244.137999988,844448.89999998,844438.118,844454.562,852698.69999999006,852699.19999999006,2023-03-20T13:05:23Z,852699.796,NULL,Spionage,upelelezi,s,maslahi,utokazo,magangao,upelelezi,NA,NA,1,NA,NA,NA,NA,NA,NA,NA,NA,NA,NA,NA,NA,NA,NA,NA,NA,NA,NA,NA
0c921,"""Richtig""-Screen",canvas.Screen,3_0_1_0_2_1_1,NA,NA,timeout,5000.664,852707.09999996,852683.142,852699.796,857684.022,857685.30000001,2023-03-20T13:05:28Z,857700.46,NULL,Spionage,upelelezi,s,maslahi,utokazo,magangao,NA,sdfdsf,1,1,NA,NA,NA,NA,NA,NA,NA,NA,NA,NA,NA,NA,NA,NA,NA,NA,NA,NA,NA
0c921,"""Falsch""-Screen",canvas.Screen,3_0_1_0_2_1_2,NA,NA,skipped,NA,857692.09999996,NA,NA,857684.022,857692.5,2023-03-20T13:05:28Z,857700.46,NULL,Spionage,upelelezi,s,maslahi,utokazo,magangao,NA,sdfdsf,NA,1,NA,NA,NA,NA,NA,NA,NA,NA,NA,NA,NA,NA,NA,NA,NA,NA,NA,NA,NA
0c921,shallow,flow.Sequence,3_0_1_0_2_1,NA,NA,completion,13229.46,844448.80000001,844438.118,844454.562,857684.022,857693,2023-03-20T13:05:28Z,857700.46,NULL,Spionage,upelelezi,s,maslahi,utokazo,magangao,NA,sdfdsf,NA,1,NA,NA,NA,NA,NA,NA,NA,NA,NA,NA,NA,NA,NA,NA,NA,NA,NA,NA,NA
0c921,task,flow.Sequence,3_0_1_0_2,NA,NA,completion,13229.46,844448.19999999006,844438.118,844454.562,857684.022,857693.19999999006,2023-03-20T13:05:28Z,857700.46,NULL,Spionage,upelelezi,s,maslahi,utokazo,magangao,NA,sdfdsf,NA,1,NA,NA,NA,NA,NA,NA,NA,NA,NA,NA,NA,NA,NA,NA,NA,NA,NA,NA,NA
0c921,Deep Question,html.Page,3_0_1_0_3_0_0,NA,NA,form submission,18771.340000012,857693.5,857684.022,857700.46,876471.80000001,876472.39999998,2023-03-20T13:05:47Z,876515.733,NULL,Schüler,mwanafunzi,d,NA,NA,NA,dhawafunzi,NA,NA,1,NA,NA,NA,NA,NA,NA,NA,NA,NA,NA,NA,NA,NA,NA,NA,NA,NA,NA,NA
0c921,"""Richtig""-Screen",canvas.Screen,3_0_1_0_3_0_1,NA,NA,skipped,NA,876480.30000001,NA,NA,876471.80000001,876480.59999996,2023-03-20T13:05:47Z,876515.733,NULL,Schüler,mwanafunzi,d,NA,NA,NA,NA,sdfdsf,NA,1,NA,NA,NA,NA,NA,NA,NA,NA,NA,NA,NA,NA,NA,NA,NA,NA,NA,NA,NA
0c921,"""Falsch""-Screen",canvas.Screen,3_0_1_0_3_0_2,NA,NA,timeout,4995.9669999999,876483.80000001,876465.781,876515.733,881495.125,881496.5,2023-03-20T13:05:52Z,881511.7,NULL,Schüler,mwanafunzi,d,NA,NA,NA,NA,sdfdsf,0,1,NA,NA,NA,NA,NA,NA,NA,NA,NA,NA,NA,NA,NA,NA,NA,NA,NA,NA,NA
0c921,deep,flow.Sequence,3_0_1_0_3_0,NA,NA,completion,23794.665,857693.5,857684.022,857700.46,881495.125,881497.09999996,2023-03-20T13:05:52Z,881511.7,NULL,Schüler,mwanafunzi,d,NA,NA,NA,NA,sdfdsf,NA,1,NA,NA,NA,NA,NA,NA,NA,NA,NA,NA,NA,NA,NA,NA,NA,NA,NA,NA,NA
0c921,shallow,flow.Sequence,3_0_1_0_3_1,NA,NA,skipped,NA,881497.30000001,NA,NA,881495.125,881497.39999998,2023-03-20T13:05:52Z,881511.7,NULL,Schüler,mwanafunzi,d,NA,NA,NA,NA,sdfdsf,NA,1,NA,NA,NA,NA,NA,NA,NA,NA,NA,NA,NA,NA,NA,NA,NA,NA,NA,NA,NA
0c921,task,flow.Sequence,3_0_1_0_3,NA,NA,completion,23794.665,857693.5,857684.022,857700.46,881495.125,881497.69999999006,2023-03-20T13:05:52Z,881511.7,NULL,Schüler,mwanafunzi,d,NA,NA,NA,NA,sdfdsf,NA,1,NA,NA,NA,NA,NA,NA,NA,NA,NA,NA,NA,NA,NA,NA,NA,NA,NA,NA,NA
0c921,Deep Question,html.Page,3_0_1_0_4_0_0,NA,NA,form submission,22585.999999988,881498,881495.125,881511.7,904097.69999999006,904098.19999999006,2023-03-20T13:06:14Z,904100.09,NULL,Vorsorge,tahadhari,d,NA,NA,NA,h,NA,NA,1,NA,NA,NA,NA,NA,NA,NA,NA,NA,NA,NA,NA,NA,NA,NA,NA,NA,NA,NA
0c921,"""Richtig""-Screen",canvas.Screen,3_0_1_0_4_0_1,NA,NA,skipped,NA,904106.59999996,NA,NA,904097.69999999006,904107,2023-03-20T13:06:14Z,904100.09,NULL,Vorsorge,tahadhari,d,NA,NA,NA,NA,sdfdsf,NA,1,NA,NA,NA,NA,NA,NA,NA,NA,NA,NA,NA,NA,NA,NA,NA,NA,NA,NA,NA
0c921,"""Falsch""-Screen",canvas.Screen,3_0_1_0_4_0_2,NA,NA,timeout,5000.05,904109,904079.693,904100.09,909083.562,909084.89999998,2023-03-20T13:06:19Z,909100.14,NULL,Vorsorge,tahadhari,d,NA,NA,NA,NA,sdfdsf,0,1,NA,NA,NA,NA,NA,NA,NA,NA,NA,NA,NA,NA,NA,NA,NA,NA,NA,NA,NA
0c921,deep,flow.Sequence,3_0_1_0_4_0,NA,NA,completion,27571.862,881497.89999998,881495.125,881511.7,909083.562,909085.5,2023-03-20T13:06:19Z,909100.14,NULL,Vorsorge,tahadhari,d,NA,NA,NA,NA,sdfdsf,NA,1,NA,NA,NA,NA,NA,NA,NA,NA,NA,NA,NA,NA,NA,NA,NA,NA,NA,NA,NA
0c921,shallow,flow.Sequence,3_0_1_0_4_1,NA,NA,skipped,NA,909085.59999996,NA,NA,909083.562,909085.80000001,2023-03-20T13:06:19Z,909100.14,NULL,Vorsorge,tahadhari,d,NA,NA,NA,NA,sdfdsf,NA,1,NA,NA,NA,NA,NA,NA,NA,NA,NA,NA,NA,NA,NA,NA,NA,NA,NA,NA,NA
0c921,task,flow.Sequence,3_0_1_0_4,NA,NA,completion,27571.862,881497.89999998,881495.125,881511.7,909083.562,909086.09999996,2023-03-20T13:06:19Z,909100.14,NULL,Vorsorge,tahadhari,d,NA,NA,NA,NA,sdfdsf,NA,1,NA,NA,NA,NA,NA,NA,NA,NA,NA,NA,NA,NA,NA,NA,NA,NA,NA,NA,NA
0c921,Deep Question,html.Page,3_0_1_0_5_0_0,NA,NA,form submission,20284.059999988,909086.5,909083.562,909100.14,929384.19999999006,929384.59999996,2023-03-20T13:06:40Z,929386.537,NULL,Konkurrent,mshindani,d,NA,NA,NA,uzentely,NA,NA,1,NA,NA,NA,NA,NA,NA,NA,NA,NA,NA,NA,NA,NA,NA,NA,NA,NA,NA,NA
0c921,"""Richtig""-Screen",canvas.Screen,3_0_1_0_5_0_1,NA,NA,skipped,NA,929394.5,NA,NA,929384.19999999006,929394.89999998,2023-03-20T13:06:40Z,929386.537,NULL,Konkurrent,mshindani,d,NA,NA,NA,NA,sdfdsf,NA,1,NA,NA,NA,NA,NA,NA,NA,NA,NA,NA,NA,NA,NA,NA,NA,NA,NA,NA,NA
0c921,"""Falsch""-Screen",canvas.Screen,3_0_1_0_5_0_2,NA,NA,timeout,5002.556,929396.80000001,929368.579,929386.537,934372.397,934373.09999996,2023-03-20T13:06:44Z,934389.093,NULL,Konkurrent,mshindani,d,NA,NA,NA,NA,sdfdsf,0,1,NA,NA,NA,NA,NA,NA,NA,NA,NA,NA,NA,NA,NA,NA,NA,NA,NA,NA,NA
0c921,deep,flow.Sequence,3_0_1_0_5_0,NA,NA,completion,25272.257,909086.39999998,909083.562,909100.14,934372.397,934373.5,2023-03-20T13:06:44Z,934389.093,NULL,Konkurrent,mshindani,d,NA,NA,NA,NA,sdfdsf,NA,1,NA,NA,NA,NA,NA,NA,NA,NA,NA,NA,NA,NA,NA,NA,NA,NA,NA,NA,NA
0c921,shallow,flow.Sequence,3_0_1_0_5_1,NA,NA,skipped,NA,934373.59999996,NA,NA,934372.397,934373.80000001,2023-03-20T13:06:44Z,934389.093,NULL,Konkurrent,mshindani,d,NA,NA,NA,NA,sdfdsf,NA,1,NA,NA,NA,NA,NA,NA,NA,NA,NA,NA,NA,NA,NA,NA,NA,NA,NA,NA,NA
0c921,task,flow.Sequence,3_0_1_0_5,NA,NA,completion,25272.257,909086.30000000994,909083.562,909100.14,934372.397,934374.09999996,2023-03-20T13:06:44Z,934389.093,NULL,Konkurrent,mshindani,d,NA,NA,NA,NA,sdfdsf,NA,1,NA,NA,NA,NA,NA,NA,NA,NA,NA,NA,NA,NA,NA,NA,NA,NA,NA,NA,NA
0c921,deep,flow.Sequence,3_0_1_0_6_0,NA,NA,skipped,NA,934374.19999999006,NA,NA,934372.397,934374.30000001,2023-03-20T13:06:44Z,934389.093,NULL,Fenster,dirisha,s,walakini,tasawari,maarifa,NA,sdfdsf,NA,1,NA,NA,NA,NA,NA,NA,NA,NA,NA,NA,NA,NA,NA,NA,NA,NA,NA,NA,NA
0c921,Shallow Question,html.Page,3_0_1_0_6_1_0,NA,NA,form submission,6630.407,934374.5,934372.397,934389.093,941019.5,941019.80000000994,2023-03-20T13:06:51Z,941023.683,NULL,Fenster,dirisha,s,walakini,tasawari,maarifa,tasawari,NA,NA,1,NA,NA,NA,NA,NA,NA,NA,NA,NA,NA,NA,NA,NA,NA,NA,NA,NA,NA,NA
0c921,"""Richtig""-Screen",canvas.Screen,3_0_1_0_6_1_1,NA,NA,skipped,NA,941022.89999998,NA,NA,941019.5,941023,2023-03-20T13:06:51Z,941023.683,NULL,Fenster,dirisha,s,walakini,tasawari,maarifa,NA,sdfdsf,NA,1,NA,NA,NA,NA,NA,NA,NA,NA,NA,NA,NA,NA,NA,NA,NA,NA,NA,NA,NA
0c921,"""Falsch""-Screen",canvas.Screen,3_0_1_0_6_1_2,NA,NA,timeout,4994.983,941023.69999999006,941003.914,941023.683,946002.226,946003.5,2023-03-20T13:06:56Z,946018.666,NULL,Fenster,dirisha,s,walakini,tasawari,maarifa,NA,sdfdsf,0,1,NA,NA,NA,NA,NA,NA,NA,NA,NA,NA,NA,NA,NA,NA,NA,NA,NA,NA,NA
0c921,shallow,flow.Sequence,3_0_1_0_6_1,NA,NA,completion,11613.133,934374.39999998,934372.397,934389.093,946002.226,946003.89999998,2023-03-20T13:06:56Z,946018.666,NULL,Fenster,dirisha,s,walakini,tasawari,maarifa,NA,sdfdsf,NA,1,NA,NA,NA,NA,NA,NA,NA,NA,NA,NA,NA,NA,NA,NA,NA,NA,NA,NA,NA
0c921,task,flow.Sequence,3_0_1_0_6,NA,NA,completion,11613.133,934374.09999996,934372.397,934389.093,946002.226,946004.09999996,2023-03-20T13:06:56Z,946018.666,NULL,Fenster,dirisha,s,walakini,tasawari,maarifa,NA,sdfdsf,NA,1,NA,NA,NA,NA,NA,NA,NA,NA,NA,NA,NA,NA,NA,NA,NA,NA,NA,NA,NA
0c921,Deep Question,html.Page,3_0_1_0_7_0_0,NA,NA,form submission,11805.533999988,946004.39999998,946002.226,946018.666,957824.19999999006,957824.80000001,2023-03-20T13:07:08Z,957835.864,NULL,Tester,wanaojaribu,d,NA,NA,NA,whahani,NA,NA,1,NA,NA,NA,NA,NA,NA,NA,NA,NA,NA,NA,NA,NA,NA,NA,NA,NA,NA,NA
0c921,"""Richtig""-Screen",canvas.Screen,3_0_1_0_7_0_1,NA,NA,skipped,NA,957832,NA,NA,957824.19999999006,957832.5,2023-03-20T13:07:08Z,957835.864,NULL,Tester,wanaojaribu,d,NA,NA,NA,NA,sdfdsf,NA,1,NA,NA,NA,NA,NA,NA,NA,NA,NA,NA,NA,NA,NA,NA,NA,NA,NA,NA,NA
0c921,"""Falsch""-Screen",canvas.Screen,3_0_1_0_7_0_2,NA,NA,timeout,5005.1000000001,957834.69999999006,957819.163,957835.864,962824.28,962825.5,2023-03-20T13:07:13Z,962840.964,NULL,Tester,wanaojaribu,d,NA,NA,NA,NA,sdfdsf,0,1,NA,NA,NA,NA,NA,NA,NA,NA,NA,NA,NA,NA,NA,NA,NA,NA,NA,NA,NA
0c921,deep,flow.Sequence,3_0_1_0_7_0,NA,NA,completion,16805.614,946004.30000001,946002.226,946018.666,962824.28,962826,2023-03-20T13:07:13Z,962840.964,NULL,Tester,wanaojaribu,d,NA,NA,NA,NA,sdfdsf,NA,1,NA,NA,NA,NA,NA,NA,NA,NA,NA,NA,NA,NA,NA,NA,NA,NA,NA,NA,NA
0c921,shallow,flow.Sequence,3_0_1_0_7_1,NA,NA,skipped,NA,962826.19999999006,NA,NA,962824.28,962826.39999998,2023-03-20T13:07:13Z,962840.964,NULL,Tester,wanaojaribu,d,NA,NA,NA,NA,sdfdsf,NA,1,NA,NA,NA,NA,NA,NA,NA,NA,NA,NA,NA,NA,NA,NA,NA,NA,NA,NA,NA
0c921,task,flow.Sequence,3_0_1_0_7,NA,NA,completion,16805.614,946004.30000001,946002.226,946018.666,962824.28,962826.80000000994,2023-03-20T13:07:13Z,962840.964,NULL,Tester,wanaojaribu,d,NA,NA,NA,NA,sdfdsf,NA,1,NA,NA,NA,NA,NA,NA,NA,NA,NA,NA,NA,NA,NA,NA,NA,NA,NA,NA,NA
0c921,block,flow.Loop,3_0_1_0,NA,NA,completion,148643.774,814174.19999999006,814049.752,814180.506,962824.28,962827.09999996,2023-03-20T13:07:13Z,962840.964,NULL,NA,NA,NA,NA,NA,NA,NA,sdfdsf,NA,1,NA,NA,NA,NA,NA,NA,NA,NA,NA,NA,NA,NA,NA,NA,NA,NA,NA,NA,NA
0c921,weiter,canvas.Screen,3_0_1_1,sdf,keypress(Space),response,1902.036,962827.30000001,962824.28,962840.964,964743,964750.5,2023-03-20T13:07:15Z,964816.278,NULL,NA,NA,NA,NA,NA,NA,NA,sdfdsf,NA,1,NA,NA,NA,NA,NA,NA,NA,NA,NA,NA,NA,NA,NA,NA,NA,NA,NA,NA,NA
0c921,check continue,flow.Sequence,3_0_1,NA,NA,completion,150562.494,814174.09999996,814049.752,814180.506,964743,964750.80000001,2023-03-20T13:07:15Z,964816.278,NULL,NA,NA,NA,NA,NA,NA,NA,sdfdsf,NA,1,NA,NA,NA,NA,NA,NA,NA,NA,NA,NA,NA,NA,NA,NA,NA,NA,NA,NA,NA
0c921,Deep Question,html.Page,3_0_2_0_0_0_0,NA,NA,form submission,11718.821999964,964817.30000001,964741.532,964816.278,976535.09999996,976535.69999999006,2023-03-20T13:07:27Z,976537.578,NULL,Schüler,mwanafunzi,d,NA,NA,NA,mhawafunzi,NA,NA,2,NA,NA,NA,NA,NA,NA,NA,NA,NA,NA,NA,NA,NA,NA,NA,NA,NA,NA,NA
0c921,"""Richtig""-Screen",canvas.Screen,3_0_2_0_0_0_1,NA,NA,skipped,NA,976543.89999998,NA,NA,976535.09999996,976544.39999998,2023-03-20T13:07:27Z,976537.578,NULL,Schüler,mwanafunzi,d,NA,NA,NA,NA,sdf,NA,2,NA,NA,NA,NA,NA,NA,NA,NA,NA,NA,NA,NA,NA,NA,NA,NA,NA,NA,NA
0c921,"""Falsch""-Screen",canvas.Screen,3_0_2_0_0_0_2,NA,NA,timeout,4992.329,976546.19999999006,976524.575,976537.578,981512.997,981514.89999998,2023-03-20T13:07:32Z,981529.907,NULL,Schüler,mwanafunzi,d,NA,NA,NA,NA,sdf,0,2,NA,NA,NA,NA,NA,NA,NA,NA,NA,NA,NA,NA,NA,NA,NA,NA,NA,NA,NA
0c921,deep,flow.Sequence,3_0_2_0_0_0,NA,NA,completion,16696.719,964817.30000001,964741.532,964816.278,981512.997,981515.39999998,2023-03-20T13:07:32Z,981529.907,NULL,Schüler,mwanafunzi,d,NA,NA,NA,NA,sdf,NA,2,NA,NA,NA,NA,NA,NA,NA,NA,NA,NA,NA,NA,NA,NA,NA,NA,NA,NA,NA
0c921,shallow,flow.Sequence,3_0_2_0_0_1,NA,NA,skipped,NA,981515.59999996,NA,NA,981512.997,981515.89999998,2023-03-20T13:07:32Z,981529.907,NULL,Schüler,mwanafunzi,d,NA,NA,NA,NA,sdf,NA,2,NA,NA,NA,NA,NA,NA,NA,NA,NA,NA,NA,NA,NA,NA,NA,NA,NA,NA,NA
0c921,task,flow.Sequence,3_0_2_0_0,NA,NA,completion,16696.719,964817.30000001,964741.532,964816.278,981512.997,981516.09999996,2023-03-20T13:07:32Z,981529.907,NULL,Schüler,mwanafunzi,d,NA,NA,NA,NA,sdf,NA,2,NA,NA,NA,NA,NA,NA,NA,NA,NA,NA,NA,NA,NA,NA,NA,NA,NA,NA,NA
0c921,Deep Question,html.Page,3_0_2_0_1_0_0,NA,NA,form submission,14431.093,981516.39999998,981512.997,981529.907,995961,995963,2023-03-20T13:07:46Z,995978.097,NULL,Vorsorge,tahadhari,d,NA,NA,NA,d,NA,NA,2,NA,NA,NA,NA,NA,NA,NA,NA,NA,NA,NA,NA,NA,NA,NA,NA,NA,NA,NA
0c921,"""Richtig""-Screen",canvas.Screen,3_0_2_0_1_0_1,NA,NA,skipped,NA,995977.39999998,NA,NA,995961,995977.80000001,2023-03-20T13:07:46Z,995978.097,NULL,Vorsorge,tahadhari,d,NA,NA,NA,NA,sdf,NA,2,NA,NA,NA,NA,NA,NA,NA,NA,NA,NA,NA,NA,NA,NA,NA,NA,NA,NA,NA
0c921,"""Falsch""-Screen",canvas.Screen,3_0_2_0_1_0_2,NA,NA,timeout,5006.3620000001,995981.80000001,995951.143,995978.097,1000967.897,1000969.1,2023-03-20T13:07:51Z,1000984.459,NULL,Vorsorge,tahadhari,d,NA,NA,NA,NA,sdf,0,2,NA,NA,NA,NA,NA,NA,NA,NA,NA,NA,NA,NA,NA,NA,NA,NA,NA,NA,NA
0c921,deep,flow.Sequence,3_0_2_0_1_0,NA,NA,completion,19437.99,981516.39999998,981512.997,981529.907,1000967.897,1000969.8,2023-03-20T13:07:51Z,1000984.459,NULL,Vorsorge,tahadhari,d,NA,NA,NA,NA,sdf,NA,2,NA,NA,NA,NA,NA,NA,NA,NA,NA,NA,NA,NA,NA,NA,NA,NA,NA,NA,NA
0c921,shallow,flow.Sequence,3_0_2_0_1_1,NA,NA,skipped,NA,1000970.1,NA,NA,1000967.897,1000970.3,2023-03-20T13:07:51Z,1000984.459,NULL,Vorsorge,tahadhari,d,NA,NA,NA,NA,sdf,NA,2,NA,NA,NA,NA,NA,NA,NA,NA,NA,NA,NA,NA,NA,NA,NA,NA,NA,NA,NA
0c921,task,flow.Sequence,3_0_2_0_1,NA,NA,completion,19437.99,981516.30000000994,981512.997,981529.907,1000967.897,1000970.6,2023-03-20T13:07:51Z,1000984.459,NULL,Vorsorge,tahadhari,d,NA,NA,NA,NA,sdf,NA,2,NA,NA,NA,NA,NA,NA,NA,NA,NA,NA,NA,NA,NA,NA,NA,NA,NA,NA,NA
0c921,deep,flow.Sequence,3_0_2_0_2_0,NA,NA,skipped,NA,1000970.8,NA,NA,1000967.897,1000971,2023-03-20T13:07:51Z,1000984.459,NULL,Zuwachs,nyongeza,s,matilaba,udhibiti,hudhurio,NA,sdf,NA,2,NA,NA,NA,NA,NA,NA,NA,NA,NA,NA,NA,NA,NA,NA,NA,NA,NA,NA,NA
0c921,Shallow Question,html.Page,3_0_2_0_2_1_0,NA,NA,form submission,5731.9409999761,1000971.2,1000967.897,1000984.459,1006716.4,1006716.9,2023-03-20T13:07:57Z,1006718.762,NULL,Zuwachs,nyongeza,s,matilaba,udhibiti,hudhurio,nyongeza,NA,NA,2,NA,NA,NA,NA,NA,NA,NA,NA,NA,NA,NA,NA,NA,NA,NA,NA,NA,NA,NA
0c921,"""Richtig""-Screen",canvas.Screen,3_0_2_0_2_1_1,NA,NA,timeout,4991.468,1006724.7,1006714.453,1006718.762,1011693.774,1011695,2023-03-20T13:08:02Z,1011710.23,NULL,Zuwachs,nyongeza,s,matilaba,udhibiti,hudhurio,NA,sdf,1,2,NA,NA,NA,NA,NA,NA,NA,NA,NA,NA,NA,NA,NA,NA,NA,NA,NA,NA,NA
0c921,"""Falsch""-Screen",canvas.Screen,3_0_2_0_2_1_2,NA,NA,skipped,NA,1011702.1,NA,NA,1011693.774,1011702.5,2023-03-20T13:08:02Z,1011710.23,NULL,Zuwachs,nyongeza,s,matilaba,udhibiti,hudhurio,NA,sdf,NA,2,NA,NA,NA,NA,NA,NA,NA,NA,NA,NA,NA,NA,NA,NA,NA,NA,NA,NA,NA
0c921,shallow,flow.Sequence,3_0_2_0_2_1,NA,NA,completion,10709.315,1000971.1,1000967.897,1000984.459,1011693.774,1011702.9,2023-03-20T13:08:02Z,1011710.23,NULL,Zuwachs,nyongeza,s,matilaba,udhibiti,hudhurio,NA,sdf,NA,2,NA,NA,NA,NA,NA,NA,NA,NA,NA,NA,NA,NA,NA,NA,NA,NA,NA,NA,NA
0c921,task,flow.Sequence,3_0_2_0_2,NA,NA,completion,10709.315,1000970.8,1000967.897,1000984.459,1011693.774,1011703.2,2023-03-20T13:08:02Z,1011710.23,NULL,Zuwachs,nyongeza,s,matilaba,udhibiti,hudhurio,NA,sdf,NA,2,NA,NA,NA,NA,NA,NA,NA,NA,NA,NA,NA,NA,NA,NA,NA,NA,NA,NA,NA
0c921,deep,flow.Sequence,3_0_2_0_3_0,NA,NA,skipped,NA,1011703.4,NA,NA,1011693.774,1011703.5,2023-03-20T13:08:02Z,1011710.23,NULL,Spionage,upelelezi,s,maslahi,utokazo,magangao,NA,sdf,NA,2,NA,NA,NA,NA,NA,NA,NA,NA,NA,NA,NA,NA,NA,NA,NA,NA,NA,NA,NA
0c921,Shallow Question,html.Page,3_0_2_0_3_1_0,NA,NA,form submission,5385.0700000119,1011703.8,1011693.774,1011710.23,1017095.3,1017095.8,2023-03-20T13:08:07Z,1017097.751,NULL,Spionage,upelelezi,s,maslahi,utokazo,magangao,upelelezi,NA,NA,2,NA,NA,NA,NA,NA,NA,NA,NA,NA,NA,NA,NA,NA,NA,NA,NA,NA,NA,NA
0c921,"""Richtig""-Screen",canvas.Screen,3_0_2_0_3_1_1,NA,NA,timeout,4991.531,1017103,1017085.219,1017097.751,1022072.82,1022074.1,2023-03-20T13:08:12Z,1022089.282,NULL,Spionage,upelelezi,s,maslahi,utokazo,magangao,NA,sdf,1,2,NA,NA,NA,NA,NA,NA,NA,NA,NA,NA,NA,NA,NA,NA,NA,NA,NA,NA,NA
0c921,"""Falsch""-Screen",canvas.Screen,3_0_2_0_3_1_2,NA,NA,skipped,NA,1022081.2,NA,NA,1022072.82,1022081.6,2023-03-20T13:08:12Z,1022089.282,NULL,Spionage,upelelezi,s,maslahi,utokazo,magangao,NA,sdf,NA,2,NA,NA,NA,NA,NA,NA,NA,NA,NA,NA,NA,NA,NA,NA,NA,NA,NA,NA,NA
0c921,shallow,flow.Sequence,3_0_2_0_3_1,NA,NA,completion,10362.59,1011703.7,1011693.774,1011710.23,1022072.82,1022082.1,2023-03-20T13:08:12Z,1022089.282,NULL,Spionage,upelelezi,s,maslahi,utokazo,magangao,NA,sdf,NA,2,NA,NA,NA,NA,NA,NA,NA,NA,NA,NA,NA,NA,NA,NA,NA,NA,NA,NA,NA
0c921,task,flow.Sequence,3_0_2_0_3,NA,NA,completion,10362.59,1011703.3,1011693.774,1011710.23,1022072.82,1022082.3,2023-03-20T13:08:12Z,1022089.282,NULL,Spionage,upelelezi,s,maslahi,utokazo,magangao,NA,sdf,NA,2,NA,NA,NA,NA,NA,NA,NA,NA,NA,NA,NA,NA,NA,NA,NA,NA,NA,NA,NA
0c921,deep,flow.Sequence,3_0_2_0_4_0,NA,NA,skipped,NA,1022082.7,NA,NA,1022072.82,1022082.8,2023-03-20T13:08:12Z,1022089.282,NULL,Fenster,dirisha,s,walakini,tasawari,maarifa,NA,sdf,NA,2,NA,NA,NA,NA,NA,NA,NA,NA,NA,NA,NA,NA,NA,NA,NA,NA,NA,NA,NA
0c921,Shallow Question,html.Page,3_0_2_0_4_1_0,NA,NA,form submission,5377.4179999881,1022083,1022072.82,1022089.282,1027466.7,1027467.3,2023-03-20T13:08:18Z,1027468.998,NULL,Fenster,dirisha,s,walakini,tasawari,maarifa,dirisha,NA,NA,2,NA,NA,NA,NA,NA,NA,NA,NA,NA,NA,NA,NA,NA,NA,NA,NA,NA,NA,NA
0c921,"""Richtig""-Screen",canvas.Screen,3_0_2_0_4_1_1,NA,NA,timeout,4992.252,1027474.4,1027457.873,1027468.998,1032444.624,1032446.3,2023-03-20T13:08:23Z,1032461.25,NULL,Fenster,dirisha,s,walakini,tasawari,maarifa,NA,sdf,1,2,NA,NA,NA,NA,NA,NA,NA,NA,NA,NA,NA,NA,NA,NA,NA,NA,NA,NA,NA
0c921,"""Falsch""-Screen",canvas.Screen,3_0_2_0_4_1_2,NA,NA,skipped,NA,1032452.9,NA,NA,1032444.624,1032453.1,2023-03-20T13:08:23Z,1032461.25,NULL,Fenster,dirisha,s,walakini,tasawari,maarifa,NA,sdf,NA,2,NA,NA,NA,NA,NA,NA,NA,NA,NA,NA,NA,NA,NA,NA,NA,NA,NA,NA,NA
0c921,shallow,flow.Sequence,3_0_2_0_4_1,NA,NA,completion,10355.342,1022082.9,1022072.82,1022089.282,1032444.624,1032453.3,2023-03-20T13:08:23Z,1032461.25,NULL,Fenster,dirisha,s,walakini,tasawari,maarifa,NA,sdf,NA,2,NA,NA,NA,NA,NA,NA,NA,NA,NA,NA,NA,NA,NA,NA,NA,NA,NA,NA,NA
0c921,task,flow.Sequence,3_0_2_0_4,NA,NA,completion,10355.342,1022082.6,1022072.82,1022089.282,1032444.624,1032453.6,2023-03-20T13:08:23Z,1032461.25,NULL,Fenster,dirisha,s,walakini,tasawari,maarifa,NA,sdf,NA,2,NA,NA,NA,NA,NA,NA,NA,NA,NA,NA,NA,NA,NA,NA,NA,NA,NA,NA,NA
0c921,Deep Question,html.Page,3_0_2_0_5_0_0,NA,NA,form submission,25843.449999988,1032453.7,1032444.624,1032461.25,1058304.7,1058305.4,2023-03-20T13:08:48Z,1058306.954,NULL,Tester,wanaojaribu,d,NA,NA,NA,tahadari,NA,NA,2,NA,NA,NA,NA,NA,NA,NA,NA,NA,NA,NA,NA,NA,NA,NA,NA,NA,NA,NA
0c921,"""Richtig""-Screen",canvas.Screen,3_0_2_0_5_0_1,NA,NA,skipped,NA,1058314.3,NA,NA,1058304.7,1058314.7,2023-03-20T13:08:48Z,1058306.954,NULL,Tester,wanaojaribu,d,NA,NA,NA,NA,sdf,NA,2,NA,NA,NA,NA,NA,NA,NA,NA,NA,NA,NA,NA,NA,NA,NA,NA,NA,NA,NA
0c921,"""Falsch""-Screen",canvas.Screen,3_0_2_0_5_0_2,NA,NA,timeout,5004.3660000002,1058316.6,1058291.974,1058306.954,1063294.716,1063296,2023-03-20T13:08:53Z,1063311.32,NULL,Tester,wanaojaribu,d,NA,NA,NA,NA,sdf,0,2,NA,NA,NA,NA,NA,NA,NA,NA,NA,NA,NA,NA,NA,NA,NA,NA,NA,NA,NA
0c921,deep,flow.Sequence,3_0_2_0_5_0,NA,NA,completion,30833.466,1032453.6,1032444.624,1032461.25,1063294.716,1063296.5,2023-03-20T13:08:53Z,1063311.32,NULL,Tester,wanaojaribu,d,NA,NA,NA,NA,sdf,NA,2,NA,NA,NA,NA,NA,NA,NA,NA,NA,NA,NA,NA,NA,NA,NA,NA,NA,NA,NA
0c921,shallow,flow.Sequence,3_0_2_0_5_1,NA,NA,skipped,NA,1063296.7,NA,NA,1063294.716,1063296.9,2023-03-20T13:08:53Z,1063311.32,NULL,Tester,wanaojaribu,d,NA,NA,NA,NA,sdf,NA,2,NA,NA,NA,NA,NA,NA,NA,NA,NA,NA,NA,NA,NA,NA,NA,NA,NA,NA,NA
0c921,task,flow.Sequence,3_0_2_0_5,NA,NA,completion,30833.466,1032453.6,1032444.624,1032461.25,1063294.716,1063297.2,2023-03-20T13:08:53Z,1063311.32,NULL,Tester,wanaojaribu,d,NA,NA,NA,NA,sdf,NA,2,NA,NA,NA,NA,NA,NA,NA,NA,NA,NA,NA,NA,NA,NA,NA,NA,NA,NA,NA
0c921,Deep Question,html.Page,3_0_2_0_6_0_0,NA,NA,form submission,11300.879999988,1063297.5,1063294.716,1063311.32,1074612.2,1074612.7,2023-03-20T13:09:05Z,1074625.477,NULL,Konkurrent,mshindani,d,NA,NA,NA,d,NA,NA,2,NA,NA,NA,NA,NA,NA,NA,NA,NA,NA,NA,NA,NA,NA,NA,NA,NA,NA,NA
0c921,"""Richtig""-Screen",canvas.Screen,3_0_2_0_6_0_1,NA,NA,skipped,NA,1074620.4,NA,NA,1074612.2,1074620.9,2023-03-20T13:09:05Z,1074625.477,NULL,Konkurrent,mshindani,d,NA,NA,NA,NA,sdf,NA,2,NA,NA,NA,NA,NA,NA,NA,NA,NA,NA,NA,NA,NA,NA,NA,NA,NA,NA,NA
0c921,"""Falsch""-Screen",canvas.Screen,3_0_2_0_6_0_2,NA,NA,timeout,5000.0620000002,1074622.9,1074608.949,1074625.477,1079609.029,1079610.4,2023-03-20T13:09:10Z,1079625.539,NULL,Konkurrent,mshindani,d,NA,NA,NA,NA,sdf,0,2,NA,NA,NA,NA,NA,NA,NA,NA,NA,NA,NA,NA,NA,NA,NA,NA,NA,NA,NA
0c921,deep,flow.Sequence,3_0_2_0_6_0,NA,NA,completion,16297.709,1063297.4,1063294.716,1063311.32,1079609.029,1079610.9,2023-03-20T13:09:10Z,1079625.539,NULL,Konkurrent,mshindani,d,NA,NA,NA,NA,sdf,NA,2,NA,NA,NA,NA,NA,NA,NA,NA,NA,NA,NA,NA,NA,NA,NA,NA,NA,NA,NA
0c921,shallow,flow.Sequence,3_0_2_0_6_1,NA,NA,skipped,NA,1079611.1,NA,NA,1079609.029,1079611.3,2023-03-20T13:09:10Z,1079625.539,NULL,Konkurrent,mshindani,d,NA,NA,NA,NA,sdf,NA,2,NA,NA,NA,NA,NA,NA,NA,NA,NA,NA,NA,NA,NA,NA,NA,NA,NA,NA,NA
0c921,task,flow.Sequence,3_0_2_0_6,NA,NA,completion,16297.709,1063297.3,1063294.716,1063311.32,1079609.029,1079611.6,2023-03-20T13:09:10Z,1079625.539,NULL,Konkurrent,mshindani,d,NA,NA,NA,NA,sdf,NA,2,NA,NA,NA,NA,NA,NA,NA,NA,NA,NA,NA,NA,NA,NA,NA,NA,NA,NA,NA
0c921,deep,flow.Sequence,3_0_2_0_7_0,NA,NA,skipped,NA,1079611.9,NA,NA,1079609.029,1079611.9,2023-03-20T13:09:10Z,1079625.539,NULL,Symbol,kielezo,s,kinyume,nderemo,utayari,NA,sdf,NA,2,NA,NA,NA,NA,NA,NA,NA,NA,NA,NA,NA,NA,NA,NA,NA,NA,NA,NA,NA
0c921,Shallow Question,html.Page,3_0_2_0_7_1_0,NA,NA,form submission,25464.560999964,1079612.2,1079609.029,1079625.539,1105090.1,1105090.7,2023-03-20T13:09:35Z,1105091.698,NULL,Symbol,kielezo,s,kinyume,nderemo,utayari,nderemo,NA,NA,2,NA,NA,NA,NA,NA,NA,NA,NA,NA,NA,NA,NA,NA,NA,NA,NA,NA,NA,NA
0c921,"""Richtig""-Screen",canvas.Screen,3_0_2_0_7_1_1,NA,NA,skipped,NA,1105093.7,NA,NA,1105090.1,1105093.9,2023-03-20T13:09:35Z,1105091.698,NULL,Symbol,kielezo,s,kinyume,nderemo,utayari,NA,sdf,NA,2,NA,NA,NA,NA,NA,NA,NA,NA,NA,NA,NA,NA,NA,NA,NA,NA,NA,NA,NA
0c921,"""Falsch""-Screen",canvas.Screen,3_0_2_0_7_1_2,NA,NA,timeout,5022.6509999998,1105094.6,1105080.655,1105091.698,1110081.227,1110082.4,2023-03-20T13:09:40Z,1110114.349,NULL,Symbol,kielezo,s,kinyume,nderemo,utayari,NA,sdf,0,2,NA,NA,NA,NA,NA,NA,NA,NA,NA,NA,NA,NA,NA,NA,NA,NA,NA,NA,NA
0c921,shallow,flow.Sequence,3_0_2_0_7_1,NA,NA,completion,30455.688,1079612.1,1079609.029,1079625.539,1110081.227,1110082.8,2023-03-20T13:09:40Z,1110114.349,NULL,Symbol,kielezo,s,kinyume,nderemo,utayari,NA,sdf,NA,2,NA,NA,NA,NA,NA,NA,NA,NA,NA,NA,NA,NA,NA,NA,NA,NA,NA,NA,NA
0c921,task,flow.Sequence,3_0_2_0_7,NA,NA,completion,30455.688,1079611.8,1079609.029,1079625.539,1110081.227,1110083.1,2023-03-20T13:09:40Z,1110114.349,NULL,Symbol,kielezo,s,kinyume,nderemo,utayari,NA,sdf,NA,2,NA,NA,NA,NA,NA,NA,NA,NA,NA,NA,NA,NA,NA,NA,NA,NA,NA,NA,NA
0c921,block,flow.Loop,3_0_2_0,NA,NA,completion,145264.949,964817.19999999006,964741.532,964816.278,1110081.227,1110083.4,2023-03-20T13:09:40Z,1110114.349,NULL,NA,NA,NA,NA,NA,NA,NA,sdf,NA,2,NA,NA,NA,NA,NA,NA,NA,NA,NA,NA,NA,NA,NA,NA,NA,NA,NA,NA,NA
0c921,weiter,canvas.Screen,3_0_2_1,sdf,keypress(Space),response,1144.3509999881,1110083.5,1110081.227,1110114.349,1111258.7,1111265.4,2023-03-20T13:09:41Z,1111315.406,NULL,NA,NA,NA,NA,NA,NA,NA,sdf,NA,2,NA,NA,NA,NA,NA,NA,NA,NA,NA,NA,NA,NA,NA,NA,NA,NA,NA,NA,NA
0c921,check continue,flow.Sequence,3_0_2,NA,NA,completion,146442.42199999,964817.19999999006,964741.532,964816.278,1111258.7,1111266.1,2023-03-20T13:09:41Z,1111315.406,NULL,NA,NA,NA,NA,NA,NA,NA,sdf,NA,2,NA,NA,NA,NA,NA,NA,NA,NA,NA,NA,NA,NA,NA,NA,NA,NA,NA,NA,NA
0c921,Deep Question,html.Page,3_0_3_0_0_0_0,NA,NA,form submission,22267.493999976,1111317.1,1111248.176,1111315.406,1133582.9,1133583.5,2023-03-20T13:10:04Z,1133601.885,NULL,Tester,wanaojaribu,d,NA,NA,NA,whan,NA,NA,3,NA,NA,NA,NA,NA,NA,NA,NA,NA,NA,NA,NA,NA,NA,NA,NA,NA,NA,NA
0c921,"""Richtig""-Screen",canvas.Screen,3_0_3_0_0_0_1,NA,NA,skipped,NA,1133594.1,NA,NA,1133582.9,1133594.7,2023-03-20T13:10:04Z,1133601.885,NULL,Tester,wanaojaribu,d,NA,NA,NA,NA,qt,NA,3,NA,NA,NA,NA,NA,NA,NA,NA,NA,NA,NA,NA,NA,NA,NA,NA,NA,NA,NA
0c921,"""Falsch""-Screen",canvas.Screen,3_0_3_0_0_0_2,NA,NA,timeout,5000.5290000001,1133598.3,1133575.49,1133601.885,1138585.837,1138587.1,2023-03-20T13:10:09Z,1138602.414,NULL,Tester,wanaojaribu,d,NA,NA,NA,NA,qt,0,3,NA,NA,NA,NA,NA,NA,NA,NA,NA,NA,NA,NA,NA,NA,NA,NA,NA,NA,NA
0c921,deep,flow.Sequence,3_0_3_0_0_0,NA,NA,completion,27270.431,1111317.1,1111248.176,1111315.406,1138585.837,1138587.7,2023-03-20T13:10:09Z,1138602.414,NULL,Tester,wanaojaribu,d,NA,NA,NA,NA,qt,NA,3,NA,NA,NA,NA,NA,NA,NA,NA,NA,NA,NA,NA,NA,NA,NA,NA,NA,NA,NA
0c921,shallow,flow.Sequence,3_0_3_0_0_1,NA,NA,skipped,NA,1138587.8,NA,NA,1138585.837,1138588,2023-03-20T13:10:09Z,1138602.414,NULL,Tester,wanaojaribu,d,NA,NA,NA,NA,qt,NA,3,NA,NA,NA,NA,NA,NA,NA,NA,NA,NA,NA,NA,NA,NA,NA,NA,NA,NA,NA
0c921,task,flow.Sequence,3_0_3_0_0,NA,NA,completion,27270.431,1111317.1,1111248.176,1111315.406,1138585.837,1138588.2,2023-03-20T13:10:09Z,1138602.414,NULL,Tester,wanaojaribu,d,NA,NA,NA,NA,qt,NA,3,NA,NA,NA,NA,NA,NA,NA,NA,NA,NA,NA,NA,NA,NA,NA,NA,NA,NA,NA
0c921,Deep Question,html.Page,3_0_3_0_1_0_0,NA,NA,form submission,8764.5859999999,1138588.5,1138585.837,1138602.414,1147367,1147367.5,2023-03-20T13:10:17Z,1147369.543,NULL,Konkurrent,mshindani,d,NA,NA,NA,dishindra,NA,NA,3,NA,NA,NA,NA,NA,NA,NA,NA,NA,NA,NA,NA,NA,NA,NA,NA,NA,NA,NA
0c921,"""Richtig""-Screen",canvas.Screen,3_0_3_0_1_0_1,NA,NA,skipped,NA,1147376.4,NA,NA,1147367,1147376.9,2023-03-20T13:10:17Z,1147369.543,NULL,Konkurrent,mshindani,d,NA,NA,NA,NA,qt,NA,3,NA,NA,NA,NA,NA,NA,NA,NA,NA,NA,NA,NA,NA,NA,NA,NA,NA,NA,NA
0c921,"""Falsch""-Screen",canvas.Screen,3_0_3_0_1_0_2,NA,NA,timeout,5000.3599999999,1147378.8,1147352.556,1147369.543,1152353.354,1152354.7,2023-03-20T13:10:22Z,1152369.903,NULL,Konkurrent,mshindani,d,NA,NA,NA,NA,qt,0,3,NA,NA,NA,NA,NA,NA,NA,NA,NA,NA,NA,NA,NA,NA,NA,NA,NA,NA,NA
0c921,deep,flow.Sequence,3_0_3_0_1_0,NA,NA,completion,13750.94,1138588.5,1138585.837,1138602.414,1152353.354,1152355.2,2023-03-20T13:10:22Z,1152369.903,NULL,Konkurrent,mshindani,d,NA,NA,NA,NA,qt,NA,3,NA,NA,NA,NA,NA,NA,NA,NA,NA,NA,NA,NA,NA,NA,NA,NA,NA,NA,NA
0c921,shallow,flow.Sequence,3_0_3_0_1_1,NA,NA,skipped,NA,1152355.4,NA,NA,1152353.354,1152355.6,2023-03-20T13:10:22Z,1152369.903,NULL,Konkurrent,mshindani,d,NA,NA,NA,NA,qt,NA,3,NA,NA,NA,NA,NA,NA,NA,NA,NA,NA,NA,NA,NA,NA,NA,NA,NA,NA,NA
0c921,task,flow.Sequence,3_0_3_0_1,NA,NA,completion,13750.94,1138588.4,1138585.837,1138602.414,1152353.354,1152355.8,2023-03-20T13:10:22Z,1152369.903,NULL,Konkurrent,mshindani,d,NA,NA,NA,NA,qt,NA,3,NA,NA,NA,NA,NA,NA,NA,NA,NA,NA,NA,NA,NA,NA,NA,NA,NA,NA,NA
0c921,Deep Question,html.Page,3_0_3_0_2_0_0,NA,NA,form submission,7996.0970000001,1152356,1152353.354,1152369.903,1160366,1160366.6,2023-03-20T13:10:30Z,1160368.332,NULL,Vorsorge,tahadhari,d,NA,NA,NA,w,NA,NA,3,NA,NA,NA,NA,NA,NA,NA,NA,NA,NA,NA,NA,NA,NA,NA,NA,NA,NA,NA
0c921,"""Richtig""-Screen",canvas.Screen,3_0_3_0_2_0_1,NA,NA,skipped,NA,1160375.1,NA,NA,1160366,1160375.5,2023-03-20T13:10:30Z,1160368.332,NULL,Vorsorge,tahadhari,d,NA,NA,NA,NA,qt,NA,3,NA,NA,NA,NA,NA,NA,NA,NA,NA,NA,NA,NA,NA,NA,NA,NA,NA,NA,NA
0c921,"""Falsch""-Screen",canvas.Screen,3_0_3_0_2_0_2,NA,NA,timeout,4998.9040000001,1160377.5,1160355.587,1160368.332,1165350.695,1165351.9,2023-03-20T13:10:35Z,1165367.236,NULL,Vorsorge,tahadhari,d,NA,NA,NA,NA,qt,0,3,NA,NA,NA,NA,NA,NA,NA,NA,NA,NA,NA,NA,NA,NA,NA,NA,NA,NA,NA
0c921,deep,flow.Sequence,3_0_3_0_2_0,NA,NA,completion,12980.792,1152356,1152353.354,1152369.903,1165350.695,1165352.4,2023-03-20T13:10:35Z,1165367.236,NULL,Vorsorge,tahadhari,d,NA,NA,NA,NA,qt,NA,3,NA,NA,NA,NA,NA,NA,NA,NA,NA,NA,NA,NA,NA,NA,NA,NA,NA,NA,NA
0c921,shallow,flow.Sequence,3_0_3_0_2_1,NA,NA,skipped,NA,1165352.6,NA,NA,1165350.695,1165352.8,2023-03-20T13:10:35Z,1165367.236,NULL,Vorsorge,tahadhari,d,NA,NA,NA,NA,qt,NA,3,NA,NA,NA,NA,NA,NA,NA,NA,NA,NA,NA,NA,NA,NA,NA,NA,NA,NA,NA
0c921,task,flow.Sequence,3_0_3_0_2,NA,NA,completion,12980.792,1152355.9,1152353.354,1152369.903,1165350.695,1165353.1,2023-03-20T13:10:35Z,1165367.236,NULL,Vorsorge,tahadhari,d,NA,NA,NA,NA,qt,NA,3,NA,NA,NA,NA,NA,NA,NA,NA,NA,NA,NA,NA,NA,NA,NA,NA,NA,NA,NA
0c921,deep,flow.Sequence,3_0_3_0_3_0,NA,NA,skipped,NA,1165353.4,NA,NA,1165350.695,1165353.5,2023-03-20T13:10:35Z,1165367.236,NULL,Zuwachs,nyongeza,s,matilaba,udhibiti,hudhurio,NA,qt,NA,3,NA,NA,NA,NA,NA,NA,NA,NA,NA,NA,NA,NA,NA,NA,NA,NA,NA,NA,NA
0c921,Shallow Question,html.Page,3_0_3_0_3_1_0,NA,NA,form submission,6419.463999988,1165353.7,1165350.695,1165367.236,1171786.7,1171787.1,2023-03-20T13:10:42Z,1171788.693,NULL,Zuwachs,nyongeza,s,matilaba,udhibiti,hudhurio,nyongeza,NA,NA,3,NA,NA,NA,NA,NA,NA,NA,NA,NA,NA,NA,NA,NA,NA,NA,NA,NA,NA,NA
0c921,"""Richtig""-Screen",canvas.Screen,3_0_3_0_3_1_1,NA,NA,timeout,5007.0889999999,1171794.9,1171779.373,1171788.693,1176779.322,1176780.7,2023-03-20T13:10:47Z,1176795.782,NULL,Zuwachs,nyongeza,s,matilaba,udhibiti,hudhurio,NA,qt,1,3,NA,NA,NA,NA,NA,NA,NA,NA,NA,NA,NA,NA,NA,NA,NA,NA,NA,NA,NA
0c921,"""Falsch""-Screen",canvas.Screen,3_0_3_0_3_1_2,NA,NA,skipped,NA,1176787.4,NA,NA,1176779.322,1176787.9,2023-03-20T13:10:47Z,1176795.782,NULL,Zuwachs,nyongeza,s,matilaba,udhibiti,hudhurio,NA,qt,NA,3,NA,NA,NA,NA,NA,NA,NA,NA,NA,NA,NA,NA,NA,NA,NA,NA,NA,NA,NA
0c921,shallow,flow.Sequence,3_0_3_0_3_1,NA,NA,completion,11412.086,1165353.6,1165350.695,1165367.236,1176779.322,1176788.3,2023-03-20T13:10:47Z,1176795.782,NULL,Zuwachs,nyongeza,s,matilaba,udhibiti,hudhurio,NA,qt,NA,3,NA,NA,NA,NA,NA,NA,NA,NA,NA,NA,NA,NA,NA,NA,NA,NA,NA,NA,NA
0c921,task,flow.Sequence,3_0_3_0_3,NA,NA,completion,11412.086,1165353.2,1165350.695,1165367.236,1176779.322,1176788.6,2023-03-20T13:10:47Z,1176795.782,NULL,Zuwachs,nyongeza,s,matilaba,udhibiti,hudhurio,NA,qt,NA,3,NA,NA,NA,NA,NA,NA,NA,NA,NA,NA,NA,NA,NA,NA,NA,NA,NA,NA,NA
0c921,deep,flow.Sequence,3_0_3_0_4_0,NA,NA,skipped,NA,1176788.8,NA,NA,1176779.322,1176789,2023-03-20T13:10:47Z,1176795.782,NULL,Fenster,dirisha,s,walakini,tasawari,maarifa,NA,qt,NA,3,NA,NA,NA,NA,NA,NA,NA,NA,NA,NA,NA,NA,NA,NA,NA,NA,NA,NA,NA
0c921,Shallow Question,html.Page,3_0_3_0_4_1_0,NA,NA,form submission,4346.9179999882,1176789.2,1176779.322,1176795.782,1181142.7,1181143.2,2023-03-20T13:10:51Z,1181145.097,NULL,Fenster,dirisha,s,walakini,tasawari,maarifa,dirisha,NA,NA,3,NA,NA,NA,NA,NA,NA,NA,NA,NA,NA,NA,NA,NA,NA,NA,NA,NA,NA,NA
0c921,"""Richtig""-Screen",canvas.Screen,3_0_3_0_4_1_1,NA,NA,timeout,5005.2679999999,1181150.4,1181137.508,1181145.097,1186133.936,1186135.3,2023-03-20T13:10:56Z,1186150.365,NULL,Fenster,dirisha,s,walakini,tasawari,maarifa,NA,qt,1,3,NA,NA,NA,NA,NA,NA,NA,NA,NA,NA,NA,NA,NA,NA,NA,NA,NA,NA,NA
0c921,"""Falsch""-Screen",canvas.Screen,3_0_3_0_4_1_2,NA,NA,skipped,NA,1186142,NA,NA,1186133.936,1186142.4,2023-03-20T13:10:56Z,1186150.365,NULL,Fenster,dirisha,s,walakini,tasawari,maarifa,NA,qt,NA,3,NA,NA,NA,NA,NA,NA,NA,NA,NA,NA,NA,NA,NA,NA,NA,NA,NA,NA,NA
0c921,shallow,flow.Sequence,3_0_3_0_4_1,NA,NA,completion,9338.1540000001,1176789.2,1176779.322,1176795.782,1186133.936,1186142.8,2023-03-20T13:10:56Z,1186150.365,NULL,Fenster,dirisha,s,walakini,tasawari,maarifa,NA,qt,NA,3,NA,NA,NA,NA,NA,NA,NA,NA,NA,NA,NA,NA,NA,NA,NA,NA,NA,NA,NA
0c921,task,flow.Sequence,3_0_3_0_4,NA,NA,completion,9338.1540000001,1176788.7,1176779.322,1176795.782,1186133.936,1186143.1,2023-03-20T13:10:56Z,1186150.365,NULL,Fenster,dirisha,s,walakini,tasawari,maarifa,NA,qt,NA,3,NA,NA,NA,NA,NA,NA,NA,NA,NA,NA,NA,NA,NA,NA,NA,NA,NA,NA,NA
0c921,Deep Question,html.Page,3_0_3_0_5_0_0,NA,NA,form submission,31513.334999988,1186143.4,1186133.936,1186150.365,1217663.7,1217664.2,2023-03-20T13:11:28Z,1217666.279,NULL,Schüler,mwanafunzi,d,NA,NA,NA,wamafunzi,NA,NA,3,NA,NA,NA,NA,NA,NA,NA,NA,NA,NA,NA,NA,NA,NA,NA,NA,NA,NA,NA
0c921,"""Richtig""-Screen",canvas.Screen,3_0_3_0_5_0_1,NA,NA,skipped,NA,1217673.6,NA,NA,1217663.7,1217674.1,2023-03-20T13:11:28Z,1217666.279,NULL,Schüler,mwanafunzi,d,NA,NA,NA,NA,qt,NA,3,NA,NA,NA,NA,NA,NA,NA,NA,NA,NA,NA,NA,NA,NA,NA,NA,NA,NA,NA
0c921,"""Falsch""-Screen",canvas.Screen,3_0_3_0_5_0_2,NA,NA,timeout,5006.723,1217677.6,1217660.31,1217666.279,1222656.511,1222658.5,2023-03-20T13:11:33Z,1222673.002,NULL,Schüler,mwanafunzi,d,NA,NA,NA,NA,qt,0,3,NA,NA,NA,NA,NA,NA,NA,NA,NA,NA,NA,NA,NA,NA,NA,NA,NA,NA,NA
0c921,deep,flow.Sequence,3_0_3_0_5_0,NA,NA,completion,36506.146,1186143.3,1186133.936,1186150.365,1222656.511,1222659.3,2023-03-20T13:11:33Z,1222673.002,NULL,Schüler,mwanafunzi,d,NA,NA,NA,NA,qt,NA,3,NA,NA,NA,NA,NA,NA,NA,NA,NA,NA,NA,NA,NA,NA,NA,NA,NA,NA,NA
0c921,shallow,flow.Sequence,3_0_3_0_5_1,NA,NA,skipped,NA,1222659.7,NA,NA,1222656.511,1222660,2023-03-20T13:11:33Z,1222673.002,NULL,Schüler,mwanafunzi,d,NA,NA,NA,NA,qt,NA,3,NA,NA,NA,NA,NA,NA,NA,NA,NA,NA,NA,NA,NA,NA,NA,NA,NA,NA,NA
0c921,task,flow.Sequence,3_0_3_0_5,NA,NA,completion,36506.146,1186143.2,1186133.936,1186150.365,1222656.511,1222660.4,2023-03-20T13:11:33Z,1222673.002,NULL,Schüler,mwanafunzi,d,NA,NA,NA,NA,qt,NA,3,NA,NA,NA,NA,NA,NA,NA,NA,NA,NA,NA,NA,NA,NA,NA,NA,NA,NA,NA
0c921,deep,flow.Sequence,3_0_3_0_6_0,NA,NA,skipped,NA,1222660.6,NA,NA,1222656.511,1222660.8,2023-03-20T13:11:33Z,1222673.002,NULL,Symbol,kielezo,s,kinyume,nderemo,utayari,NA,qt,NA,3,NA,NA,NA,NA,NA,NA,NA,NA,NA,NA,NA,NA,NA,NA,NA,NA,NA,NA,NA
0c921,Shallow Question,html.Page,3_0_3_0_6_1_0,NA,NA,form submission,4124.7980000118,1222661,1222656.511,1222673.002,1226797.8,1226798.4,2023-03-20T13:11:37Z,1226800.325,NULL,Symbol,kielezo,s,kinyume,nderemo,utayari,kielezo,NA,NA,3,NA,NA,NA,NA,NA,NA,NA,NA,NA,NA,NA,NA,NA,NA,NA,NA,NA,NA,NA
0c921,"""Richtig""-Screen",canvas.Screen,3_0_3_0_6_1_1,NA,NA,timeout,5004.7779999999,1226806.1,1226791.967,1226800.325,1231788.651,1231789.9,2023-03-20T13:11:42Z,1231805.103,NULL,Symbol,kielezo,s,kinyume,nderemo,utayari,NA,qt,1,3,NA,NA,NA,NA,NA,NA,NA,NA,NA,NA,NA,NA,NA,NA,NA,NA,NA,NA,NA
0c921,"""Falsch""-Screen",canvas.Screen,3_0_3_0_6_1_2,NA,NA,skipped,NA,1231796.7,NA,NA,1231788.651,1231797.1,2023-03-20T13:11:42Z,1231805.103,NULL,Symbol,kielezo,s,kinyume,nderemo,utayari,NA,qt,NA,3,NA,NA,NA,NA,NA,NA,NA,NA,NA,NA,NA,NA,NA,NA,NA,NA,NA,NA,NA
0c921,shallow,flow.Sequence,3_0_3_0_6_1,NA,NA,completion,9115.649,1222661,1222656.511,1222673.002,1231788.651,1231797.6,2023-03-20T13:11:42Z,1231805.103,NULL,Symbol,kielezo,s,kinyume,nderemo,utayari,NA,qt,NA,3,NA,NA,NA,NA,NA,NA,NA,NA,NA,NA,NA,NA,NA,NA,NA,NA,NA,NA,NA
0c921,task,flow.Sequence,3_0_3_0_6,NA,NA,completion,9115.649,1222660.6,1222656.511,1222673.002,1231788.651,1231797.9,2023-03-20T13:11:42Z,1231805.103,NULL,Symbol,kielezo,s,kinyume,nderemo,utayari,NA,qt,NA,3,NA,NA,NA,NA,NA,NA,NA,NA,NA,NA,NA,NA,NA,NA,NA,NA,NA,NA,NA
0c921,deep,flow.Sequence,3_0_3_0_7_0,NA,NA,skipped,NA,1231798.1,NA,NA,1231788.651,1231798.3,2023-03-20T13:11:42Z,1231805.103,NULL,Spionage,upelelezi,s,maslahi,utokazo,magangao,NA,qt,NA,3,NA,NA,NA,NA,NA,NA,NA,NA,NA,NA,NA,NA,NA,NA,NA,NA,NA,NA,NA
0c921,Shallow Question,html.Page,3_0_3_0_7_1_0,NA,NA,form submission,12758.296999976,1231798.5,1231788.651,1231805.103,1244563.4,1244564.1,2023-03-20T13:11:55Z,1244565.955,NULL,Spionage,upelelezi,s,maslahi,utokazo,magangao,upelelezi,NA,NA,3,NA,NA,NA,NA,NA,NA,NA,NA,NA,NA,NA,NA,NA,NA,NA,NA,NA,NA,NA
0c921,"""Richtig""-Screen",canvas.Screen,3_0_3_0_7_1_1,NA,NA,timeout,5009.7729999998,1244572.3,1244551.286,1244565.955,1249542.621,1249544,2023-03-20T13:12:00Z,1249575.728,NULL,Spionage,upelelezi,s,maslahi,utokazo,magangao,NA,qt,1,3,NA,NA,NA,NA,NA,NA,NA,NA,NA,NA,NA,NA,NA,NA,NA,NA,NA,NA,NA
0c921,"""Falsch""-Screen",canvas.Screen,3_0_3_0_7_1_2,NA,NA,skipped,NA,1249550.6,NA,NA,1249542.621,1249551.1,2023-03-20T13:12:00Z,1249575.728,NULL,Spionage,upelelezi,s,maslahi,utokazo,magangao,NA,qt,NA,3,NA,NA,NA,NA,NA,NA,NA,NA,NA,NA,NA,NA,NA,NA,NA,NA,NA,NA,NA
0c921,shallow,flow.Sequence,3_0_3_0_7_1,NA,NA,completion,17737.518,1231798.4,1231788.651,1231805.103,1249542.621,1249551.5,2023-03-20T13:12:00Z,1249575.728,NULL,Spionage,upelelezi,s,maslahi,utokazo,magangao,NA,qt,NA,3,NA,NA,NA,NA,NA,NA,NA,NA,NA,NA,NA,NA,NA,NA,NA,NA,NA,NA,NA
0c921,task,flow.Sequence,3_0_3_0_7,NA,NA,completion,17737.518,1231798,1231788.651,1231805.103,1249542.621,1249551.8,2023-03-20T13:12:00Z,1249575.728,NULL,Spionage,upelelezi,s,maslahi,utokazo,magangao,NA,qt,NA,3,NA,NA,NA,NA,NA,NA,NA,NA,NA,NA,NA,NA,NA,NA,NA,NA,NA,NA,NA
0c921,block,flow.Loop,3_0_3_0,NA,NA,completion,138227.215,1111317.1,1111248.176,1111315.406,1249542.621,1249552,2023-03-20T13:12:00Z,1249575.728,NULL,NA,NA,NA,NA,NA,NA,NA,qt,NA,3,NA,NA,NA,NA,NA,NA,NA,NA,NA,NA,NA,NA,NA,NA,NA,NA,NA,NA,NA
0c921,weiter,canvas.Screen,3_0_3_1,sdf,keypress(Space),response,1169.2720000001,1249552.2,1249542.621,1249575.728,1250745,1250747,2023-03-20T13:12:01Z,1250818.285,NULL,NA,NA,NA,NA,NA,NA,NA,qt,NA,3,NA,NA,NA,NA,NA,NA,NA,NA,NA,NA,NA,NA,NA,NA,NA,NA,NA,NA,NA
0c921,check continue,flow.Sequence,3_0_3,NA,NA,completion,139429.594,1111317.1,1111248.176,1111315.406,1250745,1250747.5,2023-03-20T13:12:01Z,1250818.285,NULL,NA,NA,NA,NA,NA,NA,NA,qt,NA,3,NA,NA,NA,NA,NA,NA,NA,NA,NA,NA,NA,NA,NA,NA,NA,NA,NA,NA,NA
0c921,Deep Question,html.Page,3_0_4_0_0_0_0,NA,NA,form submission,11577.314999964,1250824.2,1250742.847,1250818.285,1262395.6,1262396.1,2023-03-20T13:12:13Z,1262419.529,NULL,Schüler,mwanafunzi,d,NA,NA,NA,wmanafunzi,NA,NA,4,NA,NA,NA,NA,NA,NA,NA,NA,NA,NA,NA,NA,NA,NA,NA,NA,NA,NA,NA
0c921,"""Richtig""-Screen",canvas.Screen,3_0_4_0_0_0_1,NA,NA,skipped,NA,1262404.1,NA,NA,1262395.6,1262404.6,2023-03-20T13:12:13Z,1262419.529,NULL,Schüler,mwanafunzi,d,NA,NA,NA,NA,sd,NA,4,NA,NA,NA,NA,NA,NA,NA,NA,NA,NA,NA,NA,NA,NA,NA,NA,NA,NA,NA
0c921,"""Falsch""-Screen",canvas.Screen,3_0_4_0_0_0_2,NA,NA,timeout,5004.504,1262407.4,1262402.823,1262419.529,1267407.419,1267408.8,2023-03-20T13:12:18Z,1267424.033,NULL,Schüler,mwanafunzi,d,NA,NA,NA,NA,sd,0,4,NA,NA,NA,NA,NA,NA,NA,NA,NA,NA,NA,NA,NA,NA,NA,NA,NA,NA,NA
0c921,deep,flow.Sequence,3_0_4_0_0_0,NA,NA,completion,16589.134,1250824.2,1250742.847,1250818.285,1267407.419,1267409.2,2023-03-20T13:12:18Z,1267424.033,NULL,Schüler,mwanafunzi,d,NA,NA,NA,NA,sd,NA,4,NA,NA,NA,NA,NA,NA,NA,NA,NA,NA,NA,NA,NA,NA,NA,NA,NA,NA,NA
0c921,shallow,flow.Sequence,3_0_4_0_0_1,NA,NA,skipped,NA,1267409.4,NA,NA,1267407.419,1267409.7,2023-03-20T13:12:18Z,1267424.033,NULL,Schüler,mwanafunzi,d,NA,NA,NA,NA,sd,NA,4,NA,NA,NA,NA,NA,NA,NA,NA,NA,NA,NA,NA,NA,NA,NA,NA,NA,NA,NA
0c921,task,flow.Sequence,3_0_4_0_0,NA,NA,completion,16589.134,1250824.1,1250742.847,1250818.285,1267407.419,1267409.9,2023-03-20T13:12:18Z,1267424.033,NULL,Schüler,mwanafunzi,d,NA,NA,NA,NA,sd,NA,4,NA,NA,NA,NA,NA,NA,NA,NA,NA,NA,NA,NA,NA,NA,NA,NA,NA,NA,NA
0c921,Deep Question,html.Page,3_0_4_0_1_0_0,NA,NA,form submission,21877.267000012,1267410.2,1267407.419,1267424.033,1289301.3,1289302,2023-03-20T13:12:39Z,1289318.871,NULL,Konkurrent,mshindani,d,NA,NA,NA,wha,NA,NA,4,NA,NA,NA,NA,NA,NA,NA,NA,NA,NA,NA,NA,NA,NA,NA,NA,NA,NA,NA
0c921,"""Richtig""-Screen",canvas.Screen,3_0_4_0_1_0_1,NA,NA,skipped,NA,1289315,NA,NA,1289301.3,1289315.5,2023-03-20T13:12:39Z,1289318.871,NULL,Konkurrent,mshindani,d,NA,NA,NA,NA,sd,NA,4,NA,NA,NA,NA,NA,NA,NA,NA,NA,NA,NA,NA,NA,NA,NA,NA,NA,NA,NA
0c921,"""Falsch""-Screen",canvas.Screen,3_0_4_0_1_0_2,NA,NA,timeout,5017.4839999999,1289319.9,1289296.076,1289318.871,1294303.144,1294304.3,2023-03-20T13:12:44Z,1294336.355,NULL,Konkurrent,mshindani,d,NA,NA,NA,NA,sd,0,4,NA,NA,NA,NA,NA,NA,NA,NA,NA,NA,NA,NA,NA,NA,NA,NA,NA,NA,NA
0c921,deep,flow.Sequence,3_0_4_0_1_0,NA,NA,completion,26879.111,1267410.1,1267407.419,1267424.033,1294303.144,1294304.8,2023-03-20T13:12:44Z,1294336.355,NULL,Konkurrent,mshindani,d,NA,NA,NA,NA,sd,NA,4,NA,NA,NA,NA,NA,NA,NA,NA,NA,NA,NA,NA,NA,NA,NA,NA,NA,NA,NA
0c921,shallow,flow.Sequence,3_0_4_0_1_1,NA,NA,skipped,NA,1294305,NA,NA,1294303.144,1294305.2,2023-03-20T13:12:44Z,1294336.355,NULL,Konkurrent,mshindani,d,NA,NA,NA,NA,sd,NA,4,NA,NA,NA,NA,NA,NA,NA,NA,NA,NA,NA,NA,NA,NA,NA,NA,NA,NA,NA
0c921,task,flow.Sequence,3_0_4_0_1,NA,NA,completion,26879.111,1267410,1267407.419,1267424.033,1294303.144,1294305.4,2023-03-20T13:12:44Z,1294336.355,NULL,Konkurrent,mshindani,d,NA,NA,NA,NA,sd,NA,4,NA,NA,NA,NA,NA,NA,NA,NA,NA,NA,NA,NA,NA,NA,NA,NA,NA,NA,NA
0c921,deep,flow.Sequence,3_0_4_0_2_0,NA,NA,skipped,NA,1294305.7,NA,NA,1294303.144,1294305.8,2023-03-20T13:12:44Z,1294336.355,NULL,Spionage,upelelezi,s,maslahi,utokazo,magangao,NA,sd,NA,4,NA,NA,NA,NA,NA,NA,NA,NA,NA,NA,NA,NA,NA,NA,NA,NA,NA,NA,NA
0c921,Shallow Question,html.Page,3_0_4_0_2_1_0,NA,NA,form submission,4300.9450000119,1294306,1294303.144,1294336.355,1298637.3,1298637.8,2023-03-20T13:12:49Z,1298639.643,NULL,Spionage,upelelezi,s,maslahi,utokazo,magangao,upelelezi,NA,NA,4,NA,NA,NA,NA,NA,NA,NA,NA,NA,NA,NA,NA,NA,NA,NA,NA,NA,NA,NA
0c921,"""Richtig""-Screen",canvas.Screen,3_0_4_0_2_1_1,NA,NA,timeout,4996.6140000001,1298645.5,1298633.362,1298639.643,1303619.622,1303621.3,2023-03-20T13:12:54Z,1303636.257,NULL,Spionage,upelelezi,s,maslahi,utokazo,magangao,NA,sd,1,4,NA,NA,NA,NA,NA,NA,NA,NA,NA,NA,NA,NA,NA,NA,NA,NA,NA,NA,NA
0c921,"""Falsch""-Screen",canvas.Screen,3_0_4_0_2_1_2,NA,NA,skipped,NA,1303628,NA,NA,1303619.622,1303628.4,2023-03-20T13:12:54Z,1303636.257,NULL,Spionage,upelelezi,s,maslahi,utokazo,magangao,NA,sd,NA,4,NA,NA,NA,NA,NA,NA,NA,NA,NA,NA,NA,NA,NA,NA,NA,NA,NA,NA,NA
0c921,shallow,flow.Sequence,3_0_4_0_2_1,NA,NA,completion,9283.267,1294306,1294303.144,1294336.355,1303619.622,1303628.9,2023-03-20T13:12:54Z,1303636.257,NULL,Spionage,upelelezi,s,maslahi,utokazo,magangao,NA,sd,NA,4,NA,NA,NA,NA,NA,NA,NA,NA,NA,NA,NA,NA,NA,NA,NA,NA,NA,NA,NA
0c921,task,flow.Sequence,3_0_4_0_2,NA,NA,completion,9283.267,1294305.6,1294303.144,1294336.355,1303619.622,1303629.2,2023-03-20T13:12:54Z,1303636.257,NULL,Spionage,upelelezi,s,maslahi,utokazo,magangao,NA,sd,NA,4,NA,NA,NA,NA,NA,NA,NA,NA,NA,NA,NA,NA,NA,NA,NA,NA,NA,NA,NA
0c921,Deep Question,html.Page,3_0_4_0_3_0_0,NA,NA,form submission,10481.342999964,1303629.6,1303619.622,1303636.257,1314117.6,1314118.3,2023-03-20T13:13:04Z,1314120.111,NULL,Tester,wanaojaribu,d,NA,NA,NA,whando,NA,NA,4,NA,NA,NA,NA,NA,NA,NA,NA,NA,NA,NA,NA,NA,NA,NA,NA,NA,NA,NA
0c921,"""Richtig""-Screen",canvas.Screen,3_0_4_0_3_0_1,NA,NA,skipped,NA,1314128.5,NA,NA,1314117.6,1314129.2,2023-03-20T13:13:04Z,1314120.111,NULL,Tester,wanaojaribu,d,NA,NA,NA,NA,sd,NA,4,NA,NA,NA,NA,NA,NA,NA,NA,NA,NA,NA,NA,NA,NA,NA,NA,NA,NA,NA
0c921,"""Falsch""-Screen",canvas.Screen,3_0_4_0_3_0_2,NA,NA,timeout,5008.1240000001,1314131.2,1314107.634,1314120.111,1319111.668,1319112.9,2023-03-20T13:13:09Z,1319128.235,NULL,Tester,wanaojaribu,d,NA,NA,NA,NA,sd,0,4,NA,NA,NA,NA,NA,NA,NA,NA,NA,NA,NA,NA,NA,NA,NA,NA,NA,NA,NA
0c921,deep,flow.Sequence,3_0_4_0_3_0,NA,NA,completion,15475.411,1303629.6,1303619.622,1303636.257,1319111.668,1319113.4,2023-03-20T13:13:09Z,1319128.235,NULL,Tester,wanaojaribu,d,NA,NA,NA,NA,sd,NA,4,NA,NA,NA,NA,NA,NA,NA,NA,NA,NA,NA,NA,NA,NA,NA,NA,NA,NA,NA
0c921,shallow,flow.Sequence,3_0_4_0_3_1,NA,NA,skipped,NA,1319113.6,NA,NA,1319111.668,1319113.8,2023-03-20T13:13:09Z,1319128.235,NULL,Tester,wanaojaribu,d,NA,NA,NA,NA,sd,NA,4,NA,NA,NA,NA,NA,NA,NA,NA,NA,NA,NA,NA,NA,NA,NA,NA,NA,NA,NA
0c921,task,flow.Sequence,3_0_4_0_3,NA,NA,completion,15475.411,1303629.5,1303619.622,1303636.257,1319111.668,1319114.1,2023-03-20T13:13:09Z,1319128.235,NULL,Tester,wanaojaribu,d,NA,NA,NA,NA,sd,NA,4,NA,NA,NA,NA,NA,NA,NA,NA,NA,NA,NA,NA,NA,NA,NA,NA,NA,NA,NA
0c921,Deep Question,html.Page,3_0_4_0_4_0_0,NA,NA,form submission,22801.265,1319114.3,1319111.668,1319128.235,1341929.5,1341929.9,2023-03-20T13:13:32Z,1341981.756,NULL,Vorsorge,tahadhari,d,NA,NA,NA,s,NA,NA,4,NA,NA,NA,NA,NA,NA,NA,NA,NA,NA,NA,NA,NA,NA,NA,NA,NA,NA,NA
0c921,"""Richtig""-Screen",canvas.Screen,3_0_4_0_4_0_1,NA,NA,skipped,NA,1341941.3,NA,NA,1341929.5,1341941.8,2023-03-20T13:13:32Z,1341981.756,NULL,Vorsorge,tahadhari,d,NA,NA,NA,NA,sd,NA,4,NA,NA,NA,NA,NA,NA,NA,NA,NA,NA,NA,NA,NA,NA,NA,NA,NA,NA,NA
0c921,"""Falsch""-Screen",canvas.Screen,3_0_4_0_4_0_2,NA,NA,timeout,4993.1669999999,1341944.7,1341919.888,1341981.756,1346958.421,1346959.7,2023-03-20T13:13:37Z,1346974.923,NULL,Vorsorge,tahadhari,d,NA,NA,NA,NA,sd,0,4,NA,NA,NA,NA,NA,NA,NA,NA,NA,NA,NA,NA,NA,NA,NA,NA,NA,NA,NA
0c921,deep,flow.Sequence,3_0_4_0_4_0,NA,NA,completion,27830.186,1319114.2,1319111.668,1319128.235,1346958.421,1346960.2,2023-03-20T13:13:37Z,1346974.923,NULL,Vorsorge,tahadhari,d,NA,NA,NA,NA,sd,NA,4,NA,NA,NA,NA,NA,NA,NA,NA,NA,NA,NA,NA,NA,NA,NA,NA,NA,NA,NA
0c921,shallow,flow.Sequence,3_0_4_0_4_1,NA,NA,skipped,NA,1346960.4,NA,NA,1346958.421,1346960.5,2023-03-20T13:13:37Z,1346974.923,NULL,Vorsorge,tahadhari,d,NA,NA,NA,NA,sd,NA,4,NA,NA,NA,NA,NA,NA,NA,NA,NA,NA,NA,NA,NA,NA,NA,NA,NA,NA,NA
0c921,task,flow.Sequence,3_0_4_0_4,NA,NA,completion,27830.186,1319114.2,1319111.668,1319128.235,1346958.421,1346960.8,2023-03-20T13:13:37Z,1346974.923,NULL,Vorsorge,tahadhari,d,NA,NA,NA,NA,sd,NA,4,NA,NA,NA,NA,NA,NA,NA,NA,NA,NA,NA,NA,NA,NA,NA,NA,NA,NA,NA
0c921,deep,flow.Sequence,3_0_4_0_5_0,NA,NA,skipped,NA,1346961,NA,NA,1346958.421,1346961.2,2023-03-20T13:13:37Z,1346974.923,NULL,Symbol,kielezo,s,kinyume,nderemo,utayari,NA,sd,NA,4,NA,NA,NA,NA,NA,NA,NA,NA,NA,NA,NA,NA,NA,NA,NA,NA,NA,NA,NA
0c921,Shallow Question,html.Page,3_0_4_0_5_1_0,NA,NA,form submission,6025.1769999643,1346961.4,1346958.421,1346974.923,1353000.1,1353000.6,2023-03-20T13:13:43Z,1353002.321,NULL,Symbol,kielezo,s,kinyume,nderemo,utayari,kielezo,NA,NA,4,NA,NA,NA,NA,NA,NA,NA,NA,NA,NA,NA,NA,NA,NA,NA,NA,NA,NA,NA
0c921,"""Richtig""-Screen",canvas.Screen,3_0_4_0_5_1_1,NA,NA,timeout,5010.159,1353008.2,1352984.467,1353002.321,1357979.365,1357980.6,2023-03-20T13:13:48Z,1358012.48,NULL,Symbol,kielezo,s,kinyume,nderemo,utayari,NA,sd,1,4,NA,NA,NA,NA,NA,NA,NA,NA,NA,NA,NA,NA,NA,NA,NA,NA,NA,NA,NA
0c921,"""Falsch""-Screen",canvas.Screen,3_0_4_0_5_1_2,NA,NA,skipped,NA,1357987.7,NA,NA,1357979.365,1357988.1,2023-03-20T13:13:48Z,1358012.48,NULL,Symbol,kielezo,s,kinyume,nderemo,utayari,NA,sd,NA,4,NA,NA,NA,NA,NA,NA,NA,NA,NA,NA,NA,NA,NA,NA,NA,NA,NA,NA,NA
0c921,shallow,flow.Sequence,3_0_4_0_5_1,NA,NA,completion,11004.442,1346961.3,1346958.421,1346974.923,1357979.365,1357988.5,2023-03-20T13:13:48Z,1358012.48,NULL,Symbol,kielezo,s,kinyume,nderemo,utayari,NA,sd,NA,4,NA,NA,NA,NA,NA,NA,NA,NA,NA,NA,NA,NA,NA,NA,NA,NA,NA,NA,NA
0c921,task,flow.Sequence,3_0_4_0_5,NA,NA,completion,11004.442,1346961,1346958.421,1346974.923,1357979.365,1357988.7,2023-03-20T13:13:48Z,1358012.48,NULL,Symbol,kielezo,s,kinyume,nderemo,utayari,NA,sd,NA,4,NA,NA,NA,NA,NA,NA,NA,NA,NA,NA,NA,NA,NA,NA,NA,NA,NA,NA,NA
0c921,deep,flow.Sequence,3_0_4_0_6_0,NA,NA,skipped,NA,1357989,NA,NA,1357979.365,1357989.2,2023-03-20T13:13:48Z,1358012.48,NULL,Fenster,dirisha,s,walakini,tasawari,maarifa,NA,sd,NA,4,NA,NA,NA,NA,NA,NA,NA,NA,NA,NA,NA,NA,NA,NA,NA,NA,NA,NA,NA
0c921,Shallow Question,html.Page,3_0_4_0_6_1_0,NA,NA,form submission,3939.7199999881,1357989.4,1357979.365,1358012.48,1361952.2,1361952.6,2023-03-20T13:13:52Z,1361987.778,NULL,Fenster,dirisha,s,walakini,tasawari,maarifa,dirisha,NA,NA,4,NA,NA,NA,NA,NA,NA,NA,NA,NA,NA,NA,NA,NA,NA,NA,NA,NA,NA,NA
0c921,"""Richtig""-Screen",canvas.Screen,3_0_4_0_6_1_1,NA,NA,timeout,5007.628,1361960.1,1361949.636,1361987.778,1366978.963,1366980.4,2023-03-20T13:13:57Z,1366995.406,NULL,Fenster,dirisha,s,walakini,tasawari,maarifa,NA,sd,1,4,NA,NA,NA,NA,NA,NA,NA,NA,NA,NA,NA,NA,NA,NA,NA,NA,NA,NA,NA
0c921,"""Falsch""-Screen",canvas.Screen,3_0_4_0_6_1_2,NA,NA,skipped,NA,1366987.2,NA,NA,1366978.963,1366987.6,2023-03-20T13:13:57Z,1366995.406,NULL,Fenster,dirisha,s,walakini,tasawari,maarifa,NA,sd,NA,4,NA,NA,NA,NA,NA,NA,NA,NA,NA,NA,NA,NA,NA,NA,NA,NA,NA,NA,NA
0c921,shallow,flow.Sequence,3_0_4_0_6_1,NA,NA,completion,8966.483,1357989.3,1357979.365,1358012.48,1366978.963,1366988.1,2023-03-20T13:13:57Z,1366995.406,NULL,Fenster,dirisha,s,walakini,tasawari,maarifa,NA,sd,NA,4,NA,NA,NA,NA,NA,NA,NA,NA,NA,NA,NA,NA,NA,NA,NA,NA,NA,NA,NA
0c921,task,flow.Sequence,3_0_4_0_6,NA,NA,completion,8966.483,1357989,1357979.365,1358012.48,1366978.963,1366988.3,2023-03-20T13:13:57Z,1366995.406,NULL,Fenster,dirisha,s,walakini,tasawari,maarifa,NA,sd,NA,4,NA,NA,NA,NA,NA,NA,NA,NA,NA,NA,NA,NA,NA,NA,NA,NA,NA,NA,NA
0c921,deep,flow.Sequence,3_0_4_0_7_0,NA,NA,skipped,NA,1366988.5,NA,NA,1366978.963,1366988.7,2023-03-20T13:13:57Z,1366995.406,NULL,Zuwachs,nyongeza,s,matilaba,udhibiti,hudhurio,NA,sd,NA,4,NA,NA,NA,NA,NA,NA,NA,NA,NA,NA,NA,NA,NA,NA,NA,NA,NA,NA,NA
0c921,Shallow Question,html.Page,3_0_4_0_7_1_0,NA,NA,form submission,6788.6939999643,1366988.9,1366978.963,1366995.406,1373784.1,1373784.5,2023-03-20T13:14:04Z,1373786.488,NULL,Zuwachs,nyongeza,s,matilaba,udhibiti,hudhurio,nyongeza,NA,NA,4,NA,NA,NA,NA,NA,NA,NA,NA,NA,NA,NA,NA,NA,NA,NA,NA,NA,NA,NA
0c921,"""Richtig""-Screen",canvas.Screen,3_0_4_0_7_1_1,NA,NA,timeout,5015.2680000002,1373791.7,1373767.919,1373786.488,1378768.643,1378770,2023-03-20T13:14:09Z,1378801.756,NULL,Zuwachs,nyongeza,s,matilaba,udhibiti,hudhurio,NA,sd,1,4,NA,NA,NA,NA,NA,NA,NA,NA,NA,NA,NA,NA,NA,NA,NA,NA,NA,NA,NA
0c921,"""Falsch""-Screen",canvas.Screen,3_0_4_0_7_1_2,NA,NA,skipped,NA,1378776.7,NA,NA,1378768.643,1378777.1,2023-03-20T13:14:09Z,1378801.756,NULL,Zuwachs,nyongeza,s,matilaba,udhibiti,hudhurio,NA,sd,NA,4,NA,NA,NA,NA,NA,NA,NA,NA,NA,NA,NA,NA,NA,NA,NA,NA,NA,NA,NA
0c921,shallow,flow.Sequence,3_0_4_0_7_1,NA,NA,completion,11773.237,1366988.8,1366978.963,1366995.406,1378768.643,1378777.6,2023-03-20T13:14:09Z,1378801.756,NULL,Zuwachs,nyongeza,s,matilaba,udhibiti,hudhurio,NA,sd,NA,4,NA,NA,NA,NA,NA,NA,NA,NA,NA,NA,NA,NA,NA,NA,NA,NA,NA,NA,NA
0c921,task,flow.Sequence,3_0_4_0_7,NA,NA,completion,11773.237,1366988.5,1366978.963,1366995.406,1378768.643,1378777.8,2023-03-20T13:14:09Z,1378801.756,NULL,Zuwachs,nyongeza,s,matilaba,udhibiti,hudhurio,NA,sd,NA,4,NA,NA,NA,NA,NA,NA,NA,NA,NA,NA,NA,NA,NA,NA,NA,NA,NA,NA,NA
0c921,block,flow.Loop,3_0_4_0,NA,NA,completion,127950.358,1250824,1250742.847,1250818.285,1378768.643,1378778.2,2023-03-20T13:14:09Z,1378801.756,NULL,NA,NA,NA,NA,NA,NA,NA,sd,NA,4,NA,NA,NA,NA,NA,NA,NA,NA,NA,NA,NA,NA,NA,NA,NA,NA,NA,NA,NA
0c921,weiter,canvas.Screen,3_0_4_1,sdf,keypress(Space),response,1380.443999988,1378778.5,1378768.643,1378801.756,1380182.2,1380184.2,2023-03-20T13:14:10Z,1380255.504,NULL,NA,NA,NA,NA,NA,NA,NA,sd,NA,4,NA,NA,NA,NA,NA,NA,NA,NA,NA,NA,NA,NA,NA,NA,NA,NA,NA,NA,NA
0c921,check continue,flow.Sequence,3_0_4,NA,NA,completion,129363.91499999,1250824,1250742.847,1250818.285,1380182.2,1380184.7,2023-03-20T13:14:10Z,1380255.504,NULL,NA,NA,NA,NA,NA,NA,NA,sd,NA,4,NA,NA,NA,NA,NA,NA,NA,NA,NA,NA,NA,NA,NA,NA,NA,NA,NA,NA,NA
0c921,deep,flow.Sequence,3_0_5_0_0_0,NA,NA,skipped,NA,1380265,NA,NA,1380182.2,1380265.2,2023-03-20T13:14:10Z,1380255.504,NULL,Spionage,upelelezi,s,maslahi,utokazo,magangao,NA,sdf,NA,5,NA,NA,NA,NA,NA,NA,NA,NA,NA,NA,NA,NA,NA,NA,NA,NA,NA,NA,NA
0c921,Shallow Question,html.Page,3_0_5_0_0_1_0,NA,NA,form submission,4956.796000012,1380265.2,1380168.868,1380255.504,1385212.3,1385212.9,2023-03-20T13:14:15Z,1385247.937,NULL,Spionage,upelelezi,s,maslahi,utokazo,magangao,upelelezi,NA,NA,5,NA,NA,NA,NA,NA,NA,NA,NA,NA,NA,NA,NA,NA,NA,NA,NA,NA,NA,NA
0c921,"""Richtig""-Screen",canvas.Screen,3_0_5_0_0_1_1,NA,NA,timeout,4994.1130000001,1385221,1385194.415,1385247.937,1390225.414,1390227.7,2023-03-20T13:14:20Z,1390242.05,NULL,Spionage,upelelezi,s,maslahi,utokazo,magangao,NA,sdf,1,5,NA,NA,NA,NA,NA,NA,NA,NA,NA,NA,NA,NA,NA,NA,NA,NA,NA,NA,NA
0c921,"""Falsch""-Screen",canvas.Screen,3_0_5_0_0_1_2,NA,NA,skipped,NA,1390235.4,NA,NA,1390225.414,1390235.8,2023-03-20T13:14:20Z,1390242.05,NULL,Spionage,upelelezi,s,maslahi,utokazo,magangao,NA,sdf,NA,5,NA,NA,NA,NA,NA,NA,NA,NA,NA,NA,NA,NA,NA,NA,NA,NA,NA,NA,NA
0c921,shallow,flow.Sequence,3_0_5_0_0_1,NA,NA,completion,9969.9100000001,1380265.2,1380168.868,1380255.504,1390225.414,1390236.3,2023-03-20T13:14:20Z,1390242.05,NULL,Spionage,upelelezi,s,maslahi,utokazo,magangao,NA,sdf,NA,5,NA,NA,NA,NA,NA,NA,NA,NA,NA,NA,NA,NA,NA,NA,NA,NA,NA,NA,NA
0c921,task,flow.Sequence,3_0_5_0_0,NA,NA,completion,9969.9100000001,1380265,1380168.868,1380255.504,1390225.414,1390236.5,2023-03-20T13:14:20Z,1390242.05,NULL,Spionage,upelelezi,s,maslahi,utokazo,magangao,NA,sdf,NA,5,NA,NA,NA,NA,NA,NA,NA,NA,NA,NA,NA,NA,NA,NA,NA,NA,NA,NA,NA
0c921,Deep Question,html.Page,3_0_5_0_1_0_0,NA,NA,form submission,23216.750000012,1390236.7,1390225.414,1390242.05,1413458.8,1413459.3,2023-03-20T13:14:44Z,1413461.156,NULL,Konkurrent,mshindani,d,NA,NA,NA,wha,NA,NA,5,NA,NA,NA,NA,NA,NA,NA,NA,NA,NA,NA,NA,NA,NA,NA,NA,NA,NA,NA
0c921,"""Richtig""-Screen",canvas.Screen,3_0_5_0_1_0_1,NA,NA,skipped,NA,1413467.7,NA,NA,1413458.8,1413468,2023-03-20T13:14:44Z,1413461.156,NULL,Konkurrent,mshindani,d,NA,NA,NA,NA,sdf,NA,5,NA,NA,NA,NA,NA,NA,NA,NA,NA,NA,NA,NA,NA,NA,NA,NA,NA,NA,NA
0c921,"""Falsch""-Screen",canvas.Screen,3_0_5_0_1_0_2,NA,NA,timeout,5004.4850000001,1413470.1,1413448.998,1413461.156,1418449.093,1418450.2,2023-03-20T13:14:49Z,1418465.641,NULL,Konkurrent,mshindani,d,NA,NA,NA,NA,sdf,0,5,NA,NA,NA,NA,NA,NA,NA,NA,NA,NA,NA,NA,NA,NA,NA,NA,NA,NA,NA
0c921,deep,flow.Sequence,3_0_5_0_1_0,NA,NA,completion,28207.043,1390236.7,1390225.414,1390242.05,1418449.093,1418450.7,2023-03-20T13:14:49Z,1418465.641,NULL,Konkurrent,mshindani,d,NA,NA,NA,NA,sdf,NA,5,NA,NA,NA,NA,NA,NA,NA,NA,NA,NA,NA,NA,NA,NA,NA,NA,NA,NA,NA
0c921,shallow,flow.Sequence,3_0_5_0_1_1,NA,NA,skipped,NA,1418450.9,NA,NA,1418449.093,1418451,2023-03-20T13:14:49Z,1418465.641,NULL,Konkurrent,mshindani,d,NA,NA,NA,NA,sdf,NA,5,NA,NA,NA,NA,NA,NA,NA,NA,NA,NA,NA,NA,NA,NA,NA,NA,NA,NA,NA
0c921,task,flow.Sequence,3_0_5_0_1,NA,NA,completion,28207.043,1390236.7,1390225.414,1390242.05,1418449.093,1418451.3,2023-03-20T13:14:49Z,1418465.641,NULL,Konkurrent,mshindani,d,NA,NA,NA,NA,sdf,NA,5,NA,NA,NA,NA,NA,NA,NA,NA,NA,NA,NA,NA,NA,NA,NA,NA,NA,NA,NA
0c921,Deep Question,html.Page,3_0_5_0_2_0_0,NA,NA,form submission,10625.958999964,1418451.5,1418449.093,1418465.641,1429091.6,1429092.2,2023-03-20T13:14:59Z,1429094.002,NULL,Schüler,mwanafunzi,d,NA,NA,NA,mwanafunzi,NA,NA,5,NA,NA,NA,NA,NA,NA,NA,NA,NA,NA,NA,NA,NA,NA,NA,NA,NA,NA,NA
0c921,"""Richtig""-Screen",canvas.Screen,3_0_5_0_2_0_1,NA,NA,timeout,5005.5559999999,1429100.5,1429085.186,1429094.002,1434083.039,1434084.3,2023-03-20T13:15:04Z,1434099.558,NULL,Schüler,mwanafunzi,d,NA,NA,NA,NA,sdf,1,5,NA,NA,NA,NA,NA,NA,NA,NA,NA,NA,NA,NA,NA,NA,NA,NA,NA,NA,NA
0c921,"""Falsch""-Screen",canvas.Screen,3_0_5_0_2_0_2,NA,NA,skipped,NA,1434091.3,NA,NA,1434083.039,1434091.7,2023-03-20T13:15:04Z,1434099.558,NULL,Schüler,mwanafunzi,d,NA,NA,NA,NA,sdf,NA,5,NA,NA,NA,NA,NA,NA,NA,NA,NA,NA,NA,NA,NA,NA,NA,NA,NA,NA,NA
0c921,deep,flow.Sequence,3_0_5_0_2_0,NA,NA,completion,15617.398,1418451.4,1418449.093,1418465.641,1434083.039,1434092.1,2023-03-20T13:15:04Z,1434099.558,NULL,Schüler,mwanafunzi,d,NA,NA,NA,NA,sdf,NA,5,NA,NA,NA,NA,NA,NA,NA,NA,NA,NA,NA,NA,NA,NA,NA,NA,NA,NA,NA
0c921,shallow,flow.Sequence,3_0_5_0_2_1,NA,NA,skipped,NA,1434092.3,NA,NA,1434083.039,1434092.5,2023-03-20T13:15:04Z,1434099.558,NULL,Schüler,mwanafunzi,d,NA,NA,NA,NA,sdf,NA,5,NA,NA,NA,NA,NA,NA,NA,NA,NA,NA,NA,NA,NA,NA,NA,NA,NA,NA,NA
0c921,task,flow.Sequence,3_0_5_0_2,NA,NA,completion,15617.398,1418451.4,1418449.093,1418465.641,1434083.039,1434092.7,2023-03-20T13:15:04Z,1434099.558,NULL,Schüler,mwanafunzi,d,NA,NA,NA,NA,sdf,NA,5,NA,NA,NA,NA,NA,NA,NA,NA,NA,NA,NA,NA,NA,NA,NA,NA,NA,NA,NA
0c921,deep,flow.Sequence,3_0_5_0_3_0,NA,NA,skipped,NA,1434092.9,NA,NA,1434083.039,1434093.1,2023-03-20T13:15:04Z,1434099.558,NULL,Zuwachs,nyongeza,s,matilaba,udhibiti,hudhurio,NA,sdf,NA,5,NA,NA,NA,NA,NA,NA,NA,NA,NA,NA,NA,NA,NA,NA,NA,NA,NA,NA,NA
0c921,Shallow Question,html.Page,3_0_5_0_3_1_0,NA,NA,form submission,4579.3419999762,1434093.3,1434083.039,1434099.558,1438678.9,1438679.4,2023-03-20T13:15:09Z,1438681.081,NULL,Zuwachs,nyongeza,s,matilaba,udhibiti,hudhurio,nyongeza,NA,NA,5,NA,NA,NA,NA,NA,NA,NA,NA,NA,NA,NA,NA,NA,NA,NA,NA,NA,NA,NA
0c921,"""Richtig""-Screen",canvas.Screen,3_0_5_0_3_1_1,NA,NA,timeout,4994.8330000001,1438686.9,1438662.325,1438681.081,1443659.363,1443660.7,2023-03-20T13:15:14Z,1443675.914,NULL,Zuwachs,nyongeza,s,matilaba,udhibiti,hudhurio,NA,sdf,1,5,NA,NA,NA,NA,NA,NA,NA,NA,NA,NA,NA,NA,NA,NA,NA,NA,NA,NA,NA
0c921,"""Falsch""-Screen",canvas.Screen,3_0_5_0_3_1_2,NA,NA,skipped,NA,1443668,NA,NA,1443659.363,1443668.4,2023-03-20T13:15:14Z,1443675.914,NULL,Zuwachs,nyongeza,s,matilaba,udhibiti,hudhurio,NA,sdf,NA,5,NA,NA,NA,NA,NA,NA,NA,NA,NA,NA,NA,NA,NA,NA,NA,NA,NA,NA,NA
0c921,shallow,flow.Sequence,3_0_5_0_3_1,NA,NA,completion,9559.8049999999,1434093.3,1434083.039,1434099.558,1443659.363,1443668.8,2023-03-20T13:15:14Z,1443675.914,NULL,Zuwachs,nyongeza,s,matilaba,udhibiti,hudhurio,NA,sdf,NA,5,NA,NA,NA,NA,NA,NA,NA,NA,NA,NA,NA,NA,NA,NA,NA,NA,NA,NA,NA
0c921,task,flow.Sequence,3_0_5_0_3,NA,NA,completion,9559.8049999999,1434092.9,1434083.039,1434099.558,1443659.363,1443669.1,2023-03-20T13:15:14Z,1443675.914,NULL,Zuwachs,nyongeza,s,matilaba,udhibiti,hudhurio,NA,sdf,NA,5,NA,NA,NA,NA,NA,NA,NA,NA,NA,NA,NA,NA,NA,NA,NA,NA,NA,NA,NA
0c921,Deep Question,html.Page,3_0_5_0_4_0_0,NA,NA,form submission,10289.086,1443669.4,1443659.363,1443675.914,1453965,1453965.6,2023-03-20T13:15:24Z,1453967.157,NULL,Vorsorge,tahadhari,d,NA,NA,NA,tahadari,NA,NA,5,NA,NA,NA,NA,NA,NA,NA,NA,NA,NA,NA,NA,NA,NA,NA,NA,NA,NA,NA
0c921,"""Richtig""-Screen",canvas.Screen,3_0_5_0_4_0_1,NA,NA,skipped,NA,1453974,NA,NA,1453965,1453974.5,2023-03-20T13:15:24Z,1453967.157,NULL,Vorsorge,tahadhari,d,NA,NA,NA,NA,sdf,NA,5,NA,NA,NA,NA,NA,NA,NA,NA,NA,NA,NA,NA,NA,NA,NA,NA,NA,NA,NA
0c921,"""Falsch""-Screen",canvas.Screen,3_0_5_0_4_0_2,NA,NA,timeout,5006.3100000001,1453976.3,1453952.312,1453967.157,1458956.938,1458958.3,2023-03-20T13:15:29Z,1458973.467,NULL,Vorsorge,tahadhari,d,NA,NA,NA,NA,sdf,0,5,NA,NA,NA,NA,NA,NA,NA,NA,NA,NA,NA,NA,NA,NA,NA,NA,NA,NA,NA
0c921,deep,flow.Sequence,3_0_5_0_4_0,NA,NA,completion,15281.024,1443669.4,1443659.363,1443675.914,1458956.938,1458958.7,2023-03-20T13:15:29Z,1458973.467,NULL,Vorsorge,tahadhari,d,NA,NA,NA,NA,sdf,NA,5,NA,NA,NA,NA,NA,NA,NA,NA,NA,NA,NA,NA,NA,NA,NA,NA,NA,NA,NA
0c921,shallow,flow.Sequence,3_0_5_0_4_1,NA,NA,skipped,NA,1458958.9,NA,NA,1458956.938,1458959.1,2023-03-20T13:15:29Z,1458973.467,NULL,Vorsorge,tahadhari,d,NA,NA,NA,NA,sdf,NA,5,NA,NA,NA,NA,NA,NA,NA,NA,NA,NA,NA,NA,NA,NA,NA,NA,NA,NA,NA
0c921,task,flow.Sequence,3_0_5_0_4,NA,NA,completion,15281.024,1443669.3,1443659.363,1443675.914,1458956.938,1458959.4,2023-03-20T13:15:29Z,1458973.467,NULL,Vorsorge,tahadhari,d,NA,NA,NA,NA,sdf,NA,5,NA,NA,NA,NA,NA,NA,NA,NA,NA,NA,NA,NA,NA,NA,NA,NA,NA,NA,NA
0c921,deep,flow.Sequence,3_0_5_0_5_0,NA,NA,skipped,NA,1458959.6,NA,NA,1458956.938,1458959.7,2023-03-20T13:15:29Z,1458973.467,NULL,Fenster,dirisha,s,walakini,tasawari,maarifa,NA,sdf,NA,5,NA,NA,NA,NA,NA,NA,NA,NA,NA,NA,NA,NA,NA,NA,NA,NA,NA,NA,NA
0c921,Shallow Question,html.Page,3_0_5_0_5_1_0,NA,NA,form submission,4610.333000012,1458959.9,1458956.938,1458973.467,1463583.8,1463584.4,2023-03-20T13:15:34Z,1463586.341,NULL,Fenster,dirisha,s,walakini,tasawari,maarifa,dirisha,NA,NA,5,NA,NA,NA,NA,NA,NA,NA,NA,NA,NA,NA,NA,NA,NA,NA,NA,NA,NA,NA
0c921,"""Richtig""-Screen",canvas.Screen,3_0_5_0_5_1_1,NA,NA,timeout,4991.4280000001,1463592.1,1463567.201,1463586.341,1468561.334,1468562.5,2023-03-20T13:15:39Z,1468577.769,NULL,Fenster,dirisha,s,walakini,tasawari,maarifa,NA,sdf,1,5,NA,NA,NA,NA,NA,NA,NA,NA,NA,NA,NA,NA,NA,NA,NA,NA,NA,NA,NA
0c921,"""Falsch""-Screen",canvas.Screen,3_0_5_0_5_1_2,NA,NA,skipped,NA,1468569.4,NA,NA,1468561.334,1468569.8,2023-03-20T13:15:39Z,1468577.769,NULL,Fenster,dirisha,s,walakini,tasawari,maarifa,NA,sdf,NA,5,NA,NA,NA,NA,NA,NA,NA,NA,NA,NA,NA,NA,NA,NA,NA,NA,NA,NA,NA
0c921,shallow,flow.Sequence,3_0_5_0_5_1,NA,NA,completion,9587.8670000001,1458959.9,1458956.938,1458973.467,1468561.334,1468570.3,2023-03-20T13:15:39Z,1468577.769,NULL,Fenster,dirisha,s,walakini,tasawari,maarifa,NA,sdf,NA,5,NA,NA,NA,NA,NA,NA,NA,NA,NA,NA,NA,NA,NA,NA,NA,NA,NA,NA,NA
0c921,task,flow.Sequence,3_0_5_0_5,NA,NA,completion,9587.8670000001,1458959.5,1458956.938,1458973.467,1468561.334,1468570.5,2023-03-20T13:15:39Z,1468577.769,NULL,Fenster,dirisha,s,walakini,tasawari,maarifa,NA,sdf,NA,5,NA,NA,NA,NA,NA,NA,NA,NA,NA,NA,NA,NA,NA,NA,NA,NA,NA,NA,NA
0c921,Deep Question,html.Page,3_0_5_0_6_0_0,NA,NA,form submission,11858.630999976,1468570.9,1468561.334,1468577.769,1480436.4,1480437,2023-03-20T13:15:51Z,1480438.688,NULL,Tester,wanaojaribu,d,NA,NA,NA,whamb,NA,NA,5,NA,NA,NA,NA,NA,NA,NA,NA,NA,NA,NA,NA,NA,NA,NA,NA,NA,NA,NA
0c921,"""Richtig""-Screen",canvas.Screen,3_0_5_0_6_0_1,NA,NA,skipped,NA,1480445.3,NA,NA,1480436.4,1480445.7,2023-03-20T13:15:51Z,1480438.688,NULL,Tester,wanaojaribu,d,NA,NA,NA,NA,sdf,NA,5,NA,NA,NA,NA,NA,NA,NA,NA,NA,NA,NA,NA,NA,NA,NA,NA,NA,NA,NA
0c921,"""Falsch""-Screen",canvas.Screen,3_0_5_0_6_0_2,NA,NA,timeout,4995.7859999998,1480447.6,1480432.628,1480438.688,1485417.976,1485419.3,2023-03-20T13:15:56Z,1485434.474,NULL,Tester,wanaojaribu,d,NA,NA,NA,NA,sdf,0,5,NA,NA,NA,NA,NA,NA,NA,NA,NA,NA,NA,NA,NA,NA,NA,NA,NA,NA,NA
0c921,deep,flow.Sequence,3_0_5_0_6_0,NA,NA,completion,16840.207,1468570.8,1468561.334,1468577.769,1485417.976,1485419.8,2023-03-20T13:15:56Z,1485434.474,NULL,Tester,wanaojaribu,d,NA,NA,NA,NA,sdf,NA,5,NA,NA,NA,NA,NA,NA,NA,NA,NA,NA,NA,NA,NA,NA,NA,NA,NA,NA,NA
0c921,shallow,flow.Sequence,3_0_5_0_6_1,NA,NA,skipped,NA,1485420,NA,NA,1485417.976,1485420.1,2023-03-20T13:15:56Z,1485434.474,NULL,Tester,wanaojaribu,d,NA,NA,NA,NA,sdf,NA,5,NA,NA,NA,NA,NA,NA,NA,NA,NA,NA,NA,NA,NA,NA,NA,NA,NA,NA,NA
0c921,task,flow.Sequence,3_0_5_0_6,NA,NA,completion,16840.207,1468570.7,1468561.334,1468577.769,1485417.976,1485420.4,2023-03-20T13:15:56Z,1485434.474,NULL,Tester,wanaojaribu,d,NA,NA,NA,NA,sdf,NA,5,NA,NA,NA,NA,NA,NA,NA,NA,NA,NA,NA,NA,NA,NA,NA,NA,NA,NA,NA
0c921,deep,flow.Sequence,3_0_5_0_7_0,NA,NA,skipped,NA,1485420.5,NA,NA,1485417.976,1485420.7,2023-03-20T13:15:56Z,1485434.474,NULL,Symbol,kielezo,s,kinyume,nderemo,utayari,NA,sdf,NA,5,NA,NA,NA,NA,NA,NA,NA,NA,NA,NA,NA,NA,NA,NA,NA,NA,NA,NA,NA
0c921,Shallow Question,html.Page,3_0_5_0_7_1_0,NA,NA,form submission,5567.4259999762,1485420.9,1485417.976,1485434.474,1491001.9,1491002.5,2023-03-20T13:16:01Z,1491037.658,NULL,Symbol,kielezo,s,kinyume,nderemo,utayari,kielezo,NA,NA,5,NA,NA,NA,NA,NA,NA,NA,NA,NA,NA,NA,NA,NA,NA,NA,NA,NA,NA,NA
0c921,"""Richtig""-Screen",canvas.Screen,3_0_5_0_7_1_1,NA,NA,timeout,4999.513,1491011.2,1490989.579,1491037.658,1496020.708,1496022,2023-03-20T13:16:06Z,1496037.171,NULL,Symbol,kielezo,s,kinyume,nderemo,utayari,NA,sdf,1,5,NA,NA,NA,NA,NA,NA,NA,NA,NA,NA,NA,NA,NA,NA,NA,NA,NA,NA,NA
0c921,"""Falsch""-Screen",canvas.Screen,3_0_5_0_7_1_2,NA,NA,skipped,NA,1496029,NA,NA,1496020.708,1496029.3,2023-03-20T13:16:06Z,1496037.171,NULL,Symbol,kielezo,s,kinyume,nderemo,utayari,NA,sdf,NA,5,NA,NA,NA,NA,NA,NA,NA,NA,NA,NA,NA,NA,NA,NA,NA,NA,NA,NA,NA
0c921,shallow,flow.Sequence,3_0_5_0_7_1,NA,NA,completion,10586.234,1485420.9,1485417.976,1485434.474,1496020.708,1496029.8,2023-03-20T13:16:06Z,1496037.171,NULL,Symbol,kielezo,s,kinyume,nderemo,utayari,NA,sdf,NA,5,NA,NA,NA,NA,NA,NA,NA,NA,NA,NA,NA,NA,NA,NA,NA,NA,NA,NA,NA
0c921,task,flow.Sequence,3_0_5_0_7,NA,NA,completion,10586.234,1485420.5,1485417.976,1485434.474,1496020.708,1496030.1,2023-03-20T13:16:06Z,1496037.171,NULL,Symbol,kielezo,s,kinyume,nderemo,utayari,NA,sdf,NA,5,NA,NA,NA,NA,NA,NA,NA,NA,NA,NA,NA,NA,NA,NA,NA,NA,NA,NA,NA
0c921,block,flow.Loop,3_0_5_0,NA,NA,completion,115765.204,1380265,1380168.868,1380255.504,1496020.708,1496030.3,2023-03-20T13:16:06Z,1496037.171,NULL,NA,NA,NA,NA,NA,NA,NA,sdf,NA,5,NA,NA,NA,NA,NA,NA,NA,NA,NA,NA,NA,NA,NA,NA,NA,NA,NA,NA,NA
0c921,weiter,canvas.Screen,3_0_5_1,sdf,keypress(Space),response,1042.1290000118,1496030.5,1496020.708,1496037.171,1497079.3,1497081.8,2023-03-20T13:16:07Z,1497202.733,NULL,NA,NA,NA,NA,NA,NA,NA,sdf,NA,5,NA,NA,NA,NA,NA,NA,NA,NA,NA,NA,NA,NA,NA,NA,NA,NA,NA,NA,NA
0c921,check continue,flow.Sequence,3_0_5,NA,NA,completion,116823.79600001,1380264.9,1380168.868,1380255.504,1497079.3,1497082.1,2023-03-20T13:16:07Z,1497202.733,NULL,NA,NA,NA,NA,NA,NA,NA,sdf,NA,5,NA,NA,NA,NA,NA,NA,NA,NA,NA,NA,NA,NA,NA,NA,NA,NA,NA,NA,NA
0c921,Deep Question,html.Page,3_0_6_0_0_0_0,NA,NA,form submission,32870.067000012,1497186.2,1497070.887,1497202.733,1530072.8,1530073.5,2023-03-20T13:16:40Z,1530081.919,NULL,Konkurrent,mshindani,d,NA,NA,NA,w,NA,NA,6,NA,NA,NA,NA,NA,NA,NA,NA,NA,NA,NA,NA,NA,NA,NA,NA,NA,NA,NA
0c921,"""Richtig""-Screen",canvas.Screen,3_0_6_0_0_0_1,NA,NA,skipped,NA,1530084.2,NA,NA,1530072.8,1530084.6,2023-03-20T13:16:40Z,1530081.919,NULL,Konkurrent,mshindani,d,NA,NA,NA,NA,dfs,NA,6,NA,NA,NA,NA,NA,NA,NA,NA,NA,NA,NA,NA,NA,NA,NA,NA,NA,NA,NA
0c921,"""Falsch""-Screen",canvas.Screen,3_0_6_0_0_0_2,NA,NA,timeout,5006.273,1530086.5,1530065.381,1530081.919,1535071.548,1535072.5,2023-03-20T13:16:45Z,1535088.192,NULL,Konkurrent,mshindani,d,NA,NA,NA,NA,dfs,0,6,NA,NA,NA,NA,NA,NA,NA,NA,NA,NA,NA,NA,NA,NA,NA,NA,NA,NA,NA
0c921,deep,flow.Sequence,3_0_6_0_0_0,NA,NA,completion,37868.815,1497186.2,1497070.887,1497202.733,1535071.548,1535072.7,2023-03-20T13:16:45Z,1535088.192,NULL,Konkurrent,mshindani,d,NA,NA,NA,NA,dfs,NA,6,NA,NA,NA,NA,NA,NA,NA,NA,NA,NA,NA,NA,NA,NA,NA,NA,NA,NA,NA
0c921,shallow,flow.Sequence,3_0_6_0_0_1,NA,NA,skipped,NA,1535072.9,NA,NA,1535071.548,1535073,2023-03-20T13:16:45Z,1535088.192,NULL,Konkurrent,mshindani,d,NA,NA,NA,NA,dfs,NA,6,NA,NA,NA,NA,NA,NA,NA,NA,NA,NA,NA,NA,NA,NA,NA,NA,NA,NA,NA
0c921,task,flow.Sequence,3_0_6_0_0,NA,NA,completion,37868.815,1497186.1,1497070.887,1497202.733,1535071.548,1535073.1,2023-03-20T13:16:45Z,1535088.192,NULL,Konkurrent,mshindani,d,NA,NA,NA,NA,dfs,NA,6,NA,NA,NA,NA,NA,NA,NA,NA,NA,NA,NA,NA,NA,NA,NA,NA,NA,NA,NA
0c921,deep,flow.Sequence,3_0_6_0_1_0,NA,NA,skipped,NA,1535073.2,NA,NA,1535071.548,1535073.3,2023-03-20T13:16:45Z,1535088.192,NULL,Symbol,kielezo,s,kinyume,nderemo,utayari,NA,dfs,NA,6,NA,NA,NA,NA,NA,NA,NA,NA,NA,NA,NA,NA,NA,NA,NA,NA,NA,NA,NA
0c921,Shallow Question,html.Page,3_0_6_0_1_1_0,NA,NA,form submission,4495.007999988,1535073.3,1535071.548,1535088.192,1539583.2,1539583.6,2023-03-20T13:16:50Z,1539585.721,NULL,Symbol,kielezo,s,kinyume,nderemo,utayari,kielezo,NA,NA,6,NA,NA,NA,NA,NA,NA,NA,NA,NA,NA,NA,NA,NA,NA,NA,NA,NA,NA,NA
0c921,"""Richtig""-Screen",canvas.Screen,3_0_6_0_1_1_1,NA,NA,timeout,4993.3620000002,1539591.1,1539577.619,1539585.721,1544562.647,1544563.9,2023-03-20T13:16:55Z,1544579.083,NULL,Symbol,kielezo,s,kinyume,nderemo,utayari,NA,dfs,1,6,NA,NA,NA,NA,NA,NA,NA,NA,NA,NA,NA,NA,NA,NA,NA,NA,NA,NA,NA
0c921,"""Falsch""-Screen",canvas.Screen,3_0_6_0_1_1_2,NA,NA,skipped,NA,1544570.4,NA,NA,1544562.647,1544570.7,2023-03-20T13:16:55Z,1544579.083,NULL,Symbol,kielezo,s,kinyume,nderemo,utayari,NA,dfs,NA,6,NA,NA,NA,NA,NA,NA,NA,NA,NA,NA,NA,NA,NA,NA,NA,NA,NA,NA,NA
0c921,shallow,flow.Sequence,3_0_6_0_1_1,NA,NA,completion,9474.4550000001,1535073.3,1535071.548,1535088.192,1544562.647,1544571.2,2023-03-20T13:16:55Z,1544579.083,NULL,Symbol,kielezo,s,kinyume,nderemo,utayari,NA,dfs,NA,6,NA,NA,NA,NA,NA,NA,NA,NA,NA,NA,NA,NA,NA,NA,NA,NA,NA,NA,NA
0c921,task,flow.Sequence,3_0_6_0_1,NA,NA,completion,9474.4550000001,1535073.2,1535071.548,1535088.192,1544562.647,1544571.4,2023-03-20T13:16:55Z,1544579.083,NULL,Symbol,kielezo,s,kinyume,nderemo,utayari,NA,dfs,NA,6,NA,NA,NA,NA,NA,NA,NA,NA,NA,NA,NA,NA,NA,NA,NA,NA,NA,NA,NA
0c921,Deep Question,html.Page,3_0_6_0_2_0_0,NA,NA,form submission,9590.8169999761,1544571.7,1544562.647,1544579.083,1554169.9,1554170.6,2023-03-20T13:17:04Z,1554187.534,NULL,Tester,wanaojaribu,d,NA,NA,NA,wanajaboi,NA,NA,6,NA,NA,NA,NA,NA,NA,NA,NA,NA,NA,NA,NA,NA,NA,NA,NA,NA,NA,NA
0c921,"""Richtig""-Screen",canvas.Screen,3_0_6_0_2_0_1,NA,NA,skipped,NA,1554183.7,NA,NA,1554169.9,1554184.2,2023-03-20T13:17:04Z,1554187.534,NULL,Tester,wanaojaribu,d,NA,NA,NA,NA,dfs,NA,6,NA,NA,NA,NA,NA,NA,NA,NA,NA,NA,NA,NA,NA,NA,NA,NA,NA,NA,NA
0c921,"""Falsch""-Screen",canvas.Screen,3_0_6_0_2_0_2,NA,NA,timeout,5000.8999999999,1554187.5,1554164.654,1554187.534,1559171.905,1559173.1,2023-03-20T13:17:09Z,1559188.434,NULL,Tester,wanaojaribu,d,NA,NA,NA,NA,dfs,0,6,NA,NA,NA,NA,NA,NA,NA,NA,NA,NA,NA,NA,NA,NA,NA,NA,NA,NA,NA
0c921,deep,flow.Sequence,3_0_6_0_2_0,NA,NA,completion,14592.822,1544571.6,1544562.647,1544579.083,1559171.905,1559173.5,2023-03-20T13:17:09Z,1559188.434,NULL,Tester,wanaojaribu,d,NA,NA,NA,NA,dfs,NA,6,NA,NA,NA,NA,NA,NA,NA,NA,NA,NA,NA,NA,NA,NA,NA,NA,NA,NA,NA
0c921,shallow,flow.Sequence,3_0_6_0_2_1,NA,NA,skipped,NA,1559173.7,NA,NA,1559171.905,1559173.9,2023-03-20T13:17:09Z,1559188.434,NULL,Tester,wanaojaribu,d,NA,NA,NA,NA,dfs,NA,6,NA,NA,NA,NA,NA,NA,NA,NA,NA,NA,NA,NA,NA,NA,NA,NA,NA,NA,NA
0c921,task,flow.Sequence,3_0_6_0_2,NA,NA,completion,14592.822,1544571.5,1544562.647,1544579.083,1559171.905,1559174.1,2023-03-20T13:17:09Z,1559188.434,NULL,Tester,wanaojaribu,d,NA,NA,NA,NA,dfs,NA,6,NA,NA,NA,NA,NA,NA,NA,NA,NA,NA,NA,NA,NA,NA,NA,NA,NA,NA,NA
0c921,deep,flow.Sequence,3_0_6_0_3_0,NA,NA,skipped,NA,1559174.4,NA,NA,1559171.905,1559174.4,2023-03-20T13:17:09Z,1559188.434,NULL,Spionage,upelelezi,s,maslahi,utokazo,magangao,NA,dfs,NA,6,NA,NA,NA,NA,NA,NA,NA,NA,NA,NA,NA,NA,NA,NA,NA,NA,NA,NA,NA
