observation,sender,sender_type,sender_id,response,response_action,ended_on,duration,time_run,time_render,time_show,time_end,time_commit,timestamp,time_switch,german,swahili,enc,distractor1,distractor2,distractor3,response_2,x,correct,distractors,url_vp,url_sess,meta_labjs_version,meta_location,meta_user_agent,meta_platform,meta_language,meta_locale,meta_time_zone,meta_timezone_offset,meta_screen_width,meta_screen_height,meta_scroll_width,meta_scroll_height,meta_window_inner_width,meta_window_inner_height,meta_device_pixel_ratio,meta_labjs_build_flavor,meta_labjs_build_commit
c8b96,Introduction delayed retrieval,canvas.Screen,0,weiter,keypress(Space),response,4133160.14,1119,1129.24,1145.86,4134306,4134314,2024-11-26T12:42:40Z,4134318.92,NA,NA,NA,NA,NA,NA,NA,NA,NA,NULL,165,4,20.2.4,https://neurocog.fernuni.ch/studies/vweber/delayed/index.html?vp=165&sess=4,Mozilla/5.0 (Windows NT 10.0; Win64; x64; rv:132.0) Gecko/20100101 Firefox/132.0,Win32,de,de-CH,Europe/Zurich,-60,1920,1080,1920,871,1920,919,1,production,f5b4a49f956347addd546a832a3327688c2c0fef
c8b96,Deep Question,html.Page,1_0_0_0,NA,NA,form submission,11281.08,4134314,4134313.94,4134318.92,4145600,4145600,2024-11-26T12:42:52Z,4145609.6,Sympathie,mapendano,s,dhamiria,fungamano,maazimio,kweshoni,NA,NA,NULL,NA,NA,NA,NA,NA,NA,NA,NA,NA,NA,NA,NA,NA,NA,NA,NA,NA,NA,NA
c8b96,Save data screen,canvas.Screen,1_0_0_1,NA,NA,timeout,499.87999999989,4145603,4145598.66,4145609.6,4146092.82,4146093,2024-11-26T12:42:52Z,4146109.48,Sympathie,mapendano,s,dhamiria,fungamano,maazimio,NA,NA,0,NULL,NA,NA,NA,NA,NA,NA,NA,NA,NA,NA,NA,NA,NA,NA,NA,NA,NA,NA,NA
c8b96,deep,flow.Sequence,1_0_0,NA,NA,completion,11773.9,4134314,4134313.94,4134318.92,4146092.82,4146093,2024-11-26T12:42:52Z,4146109.48,Sympathie,mapendano,s,dhamiria,fungamano,maazimio,NA,NA,NA,NULL,NA,NA,NA,NA,NA,NA,NA,NA,NA,NA,NA,NA,NA,NA,NA,NA,NA,NA,NA
c8b96,task,flow.Sequence,1_0,NA,NA,completion,11773.9,4134314,4134313.94,4134318.92,4146092.82,4146094,2024-11-26T12:42:52Z,4146109.48,Sympathie,mapendano,s,dhamiria,fungamano,maazimio,NA,NA,NA,NULL,NA,NA,NA,NA,NA,NA,NA,NA,NA,NA,NA,NA,NA,NA,NA,NA,NA,NA,NA
c8b96,Deep Question,html.Page,1_1_0_0,NA,NA,form submission,5843.52,4146094,4146092.82,4146109.48,4151953,4151953,2024-11-26T12:42:58Z,4151954.34,Wettbewerb,ushindani,d,mapendezi,kichocheo,ubaguzi,fungezi,NA,NA,NULL,NA,NA,NA,NA,NA,NA,NA,NA,NA,NA,NA,NA,NA,NA,NA,NA,NA,NA,NA
c8b96,Save data screen,canvas.Screen,1_1_0_1,NA,NA,timeout,499.64000000013,4151954,4151952.48,4151954.34,4152437.44,4152438,2024-11-26T12:42:59Z,4152453.98,Wettbewerb,ushindani,d,mapendezi,kichocheo,ubaguzi,NA,NA,0,NULL,NA,NA,NA,NA,NA,NA,NA,NA,NA,NA,NA,NA,NA,NA,NA,NA,NA,NA,NA
c8b96,deep,flow.Sequence,1_1_0,NA,NA,completion,6327.96,4146094,4146092.82,4146109.48,4152437.44,4152439,2024-11-26T12:42:59Z,4152453.98,Wettbewerb,ushindani,d,mapendezi,kichocheo,ubaguzi,NA,NA,NA,NULL,NA,NA,NA,NA,NA,NA,NA,NA,NA,NA,NA,NA,NA,NA,NA,NA,NA,NA,NA
c8b96,task,flow.Sequence,1_1,NA,NA,completion,6327.96,4146094,4146092.82,4146109.48,4152437.44,4152440,2024-11-26T12:42:59Z,4152453.98,Wettbewerb,ushindani,d,mapendezi,kichocheo,ubaguzi,NA,NA,NA,NULL,NA,NA,NA,NA,NA,NA,NA,NA,NA,NA,NA,NA,NA,NA,NA,NA,NA,NA,NA
c8b96,Deep Question,html.Page,1_2_0_0,NA,NA,form submission,5657.02,4152440,4152437.44,4152453.98,4158111,4158112,2024-11-26T12:43:04Z,4158115.92,Vorsorge,tahadhari,d,ufafanuzi,makini,mashambani,kwabibi,NA,NA,NULL,NA,NA,NA,NA,NA,NA,NA,NA,NA,NA,NA,NA,NA,NA,NA,NA,NA,NA,NA
c8b96,Save data screen,canvas.Screen,1_2_0_1,NA,NA,timeout,499.83999999985,4158113,4158111.3,4158115.92,4158599.2,4158601,2024-11-26T12:43:05Z,4158615.76,Vorsorge,tahadhari,d,ufafanuzi,makini,mashambani,NA,NA,0,NULL,NA,NA,NA,NA,NA,NA,NA,NA,NA,NA,NA,NA,NA,NA,NA,NA,NA,NA,NA
c8b96,deep,flow.Sequence,1_2_0,NA,NA,completion,6145.2200000002,4152440,4152437.44,4152453.98,4158599.2,4158602,2024-11-26T12:43:05Z,4158615.76,Vorsorge,tahadhari,d,ufafanuzi,makini,mashambani,NA,NA,NA,NULL,NA,NA,NA,NA,NA,NA,NA,NA,NA,NA,NA,NA,NA,NA,NA,NA,NA,NA,NA
c8b96,task,flow.Sequence,1_2,NA,NA,completion,6145.2200000002,4152440,4152437.44,4152453.98,4158599.2,4158602,2024-11-26T12:43:05Z,4158615.76,Vorsorge,tahadhari,d,ufafanuzi,makini,mashambani,NA,NA,NA,NULL,NA,NA,NA,NA,NA,NA,NA,NA,NA,NA,NA,NA,NA,NA,NA,NA,NA,NA,NA
c8b96,Deep Question,html.Page,1_3_0_0,NA,NA,form submission,4060.2400000002,4158602,4158599.2,4158615.76,4162676,4162677,2024-11-26T12:43:09Z,4162678.86,Beweis,ushahidi,d,marudio,kizuizi,mtendaji,fengui,NA,NA,NULL,NA,NA,NA,NA,NA,NA,NA,NA,NA,NA,NA,NA,NA,NA,NA,NA,NA,NA,NA
c8b96,Save data screen,canvas.Screen,1_3_0_1,NA,NA,timeout,499.62000000011,4162678,4162675.48,4162678.86,4163162.18,4163163,2024-11-26T12:43:09Z,4163178.48,Beweis,ushahidi,d,marudio,kizuizi,mtendaji,NA,NA,0,NULL,NA,NA,NA,NA,NA,NA,NA,NA,NA,NA,NA,NA,NA,NA,NA,NA,NA,NA,NA
c8b96,deep,flow.Sequence,1_3_0,NA,NA,completion,4546.4200000004,4158602,4158599.2,4158615.76,4163162.18,4163163,2024-11-26T12:43:09Z,4163178.48,Beweis,ushahidi,d,marudio,kizuizi,mtendaji,NA,NA,NA,NULL,NA,NA,NA,NA,NA,NA,NA,NA,NA,NA,NA,NA,NA,NA,NA,NA,NA,NA,NA
c8b96,task,flow.Sequence,1_3,NA,NA,completion,4546.4200000004,4158602,4158599.2,4158615.76,4163162.18,4163164,2024-11-26T12:43:09Z,4163178.48,Beweis,ushahidi,d,marudio,kizuizi,mtendaji,NA,NA,NA,NULL,NA,NA,NA,NA,NA,NA,NA,NA,NA,NA,NA,NA,NA,NA,NA,NA,NA,NA,NA
c8b96,Deep Question,html.Page,1_4_0_0,NA,NA,form submission,10057.52,4163164,4163162.18,4163178.48,4173236,4173237,2024-11-26T12:43:19Z,4173236.8,Ausschluss,kutengwa,d,ununuzi,taratibu,madeni,kwahui,NA,NA,NULL,NA,NA,NA,NA,NA,NA,NA,NA,NA,NA,NA,NA,NA,NA,NA,NA,NA,NA,NA
c8b96,Save data screen,canvas.Screen,1_4_0_1,NA,NA,timeout,499.86000000034,4173238,4173235.68,4173236.8,4173719.82,4173720,2024-11-26T12:43:20Z,4173736.66,Ausschluss,kutengwa,d,ununuzi,taratibu,madeni,NA,NA,0,NULL,NA,NA,NA,NA,NA,NA,NA,NA,NA,NA,NA,NA,NA,NA,NA,NA,NA,NA,NA
c8b96,deep,flow.Sequence,1_4_0,NA,NA,completion,10541.34,4163164,4163162.18,4163178.48,4173719.82,4173720,2024-11-26T12:43:20Z,4173736.66,Ausschluss,kutengwa,d,ununuzi,taratibu,madeni,NA,NA,NA,NULL,NA,NA,NA,NA,NA,NA,NA,NA,NA,NA,NA,NA,NA,NA,NA,NA,NA,NA,NA
c8b96,task,flow.Sequence,1_4,NA,NA,completion,10541.34,4163164,4163162.18,4163178.48,4173719.82,4173720,2024-11-26T12:43:20Z,4173736.66,Ausschluss,kutengwa,d,ununuzi,taratibu,madeni,NA,NA,NA,NULL,NA,NA,NA,NA,NA,NA,NA,NA,NA,NA,NA,NA,NA,NA,NA,NA,NA,NA,NA
c8b96,Deep Question,html.Page,1_5_0_0,NA,NA,form submission,7277.3399999999,4173720,4173719.82,4173736.66,4181014,4181015,2024-11-26T12:43:27Z,4181030.18,Zuwachs,nyongeza,s,matilaba,udhibiti,hudhurio,tenghuk,NA,NA,NULL,NA,NA,NA,NA,NA,NA,NA,NA,NA,NA,NA,NA,NA,NA,NA,NA,NA,NA,NA
c8b96,Save data screen,canvas.Screen,1_5_0_1,NA,NA,timeout,500.15999999968,4181016,4181013.9,4181030.18,4181513.76,4181514,2024-11-26T12:43:28Z,4181530.34,Zuwachs,nyongeza,s,matilaba,udhibiti,hudhurio,NA,NA,0,NULL,NA,NA,NA,NA,NA,NA,NA,NA,NA,NA,NA,NA,NA,NA,NA,NA,NA,NA,NA
c8b96,deep,flow.Sequence,1_5_0,NA,NA,completion,7777.0999999996,4173720,4173719.82,4173736.66,4181513.76,4181514,2024-11-26T12:43:28Z,4181530.34,Zuwachs,nyongeza,s,matilaba,udhibiti,hudhurio,NA,NA,NA,NULL,NA,NA,NA,NA,NA,NA,NA,NA,NA,NA,NA,NA,NA,NA,NA,NA,NA,NA,NA
c8b96,task,flow.Sequence,1_5,NA,NA,completion,7777.0999999996,4173720,4173719.82,4173736.66,4181513.76,4181515,2024-11-26T12:43:28Z,4181530.34,Zuwachs,nyongeza,s,matilaba,udhibiti,hudhurio,NA,NA,NA,NULL,NA,NA,NA,NA,NA,NA,NA,NA,NA,NA,NA,NA,NA,NA,NA,NA,NA,NA,NA
c8b96,Deep Question,html.Page,1_6_0_0,NA,NA,form submission,4878.6600000001,4181515,4181513.76,4181530.34,4186409,4186409,2024-11-26T12:43:32Z,4186409.36,Auftrag,uagizaji,d,ghanima,kuzingatia,msukani,genko,NA,NA,NULL,NA,NA,NA,NA,NA,NA,NA,NA,NA,NA,NA,NA,NA,NA,NA,NA,NA,NA,NA
c8b96,Save data screen,canvas.Screen,1_6_0_1,NA,NA,timeout,499.60000000009,4186410,4186408.2,4186409.36,4186892.7,4186893,2024-11-26T12:43:33Z,4186908.96,Auftrag,uagizaji,d,ghanima,kuzingatia,msukani,NA,NA,0,NULL,NA,NA,NA,NA,NA,NA,NA,NA,NA,NA,NA,NA,NA,NA,NA,NA,NA,NA,NA
c8b96,deep,flow.Sequence,1_6_0,NA,NA,completion,5362.3600000003,4181515,4181513.76,4181530.34,4186892.7,4186893,2024-11-26T12:43:33Z,4186908.96,Auftrag,uagizaji,d,ghanima,kuzingatia,msukani,NA,NA,NA,NULL,NA,NA,NA,NA,NA,NA,NA,NA,NA,NA,NA,NA,NA,NA,NA,NA,NA,NA,NA
c8b96,task,flow.Sequence,1_6,NA,NA,completion,5362.3600000003,4181515,4181513.76,4181530.34,4186892.7,4186893,2024-11-26T12:43:33Z,4186908.96,Auftrag,uagizaji,d,ghanima,kuzingatia,msukani,NA,NA,NA,NULL,NA,NA,NA,NA,NA,NA,NA,NA,NA,NA,NA,NA,NA,NA,NA,NA,NA,NA,NA
c8b96,Deep Question,html.Page,1_7_0_0,NA,NA,form submission,5597.04,4186894,4186892.7,4186908.96,4192506,4192507,2024-11-26T12:43:39Z,4192521.02,Annäherung,maegesho,s,madahili,kujiamini,mapendekezo,kwibebo,NA,NA,NULL,NA,NA,NA,NA,NA,NA,NA,NA,NA,NA,NA,NA,NA,NA,NA,NA,NA,NA,NA
c8b96,Save data screen,canvas.Screen,1_7_0_1,NA,NA,timeout,499.35999999987,4192507,4192505.46,4192521.02,4193004.14,4193005,2024-11-26T12:43:39Z,4193020.38,Annäherung,maegesho,s,madahili,kujiamini,mapendekezo,NA,NA,0,NULL,NA,NA,NA,NA,NA,NA,NA,NA,NA,NA,NA,NA,NA,NA,NA,NA,NA,NA,NA
c8b96,deep,flow.Sequence,1_7_0,NA,NA,completion,6095.1800000002,4186894,4186892.7,4186908.96,4193004.14,4193006,2024-11-26T12:43:39Z,4193020.38,Annäherung,maegesho,s,madahili,kujiamini,mapendekezo,NA,NA,NA,NULL,NA,NA,NA,NA,NA,NA,NA,NA,NA,NA,NA,NA,NA,NA,NA,NA,NA,NA,NA
c8b96,task,flow.Sequence,1_7,NA,NA,completion,6095.1800000002,4186894,4186892.7,4186908.96,4193004.14,4193006,2024-11-26T12:43:39Z,4193020.38,Annäherung,maegesho,s,madahili,kujiamini,mapendekezo,NA,NA,NA,NULL,NA,NA,NA,NA,NA,NA,NA,NA,NA,NA,NA,NA,NA,NA,NA,NA,NA,NA,NA
c8b96,Deep Question,html.Page,1_8_0_0,NA,NA,form submission,3106.6200000001,4193006,4193004.14,4193020.38,4196127,4196127,2024-11-26T12:43:42Z,4196134.6,Symbol,kielezo,s,kinyume,nderemo,utayari,gego,NA,NA,NULL,NA,NA,NA,NA,NA,NA,NA,NA,NA,NA,NA,NA,NA,NA,NA,NA,NA,NA,NA
c8b96,Save data screen,canvas.Screen,1_8_0_1,NA,NA,timeout,499.54000000004,4196130,4196126.36,4196134.6,4196617.74,4196619,2024-11-26T12:43:43Z,4196634.14,Symbol,kielezo,s,kinyume,nderemo,utayari,NA,NA,0,NULL,NA,NA,NA,NA,NA,NA,NA,NA,NA,NA,NA,NA,NA,NA,NA,NA,NA,NA,NA
c8b96,deep,flow.Sequence,1_8_0,NA,NA,completion,3597.3600000003,4193006,4193004.14,4193020.38,4196617.74,4196620,2024-11-26T12:43:43Z,4196634.14,Symbol,kielezo,s,kinyume,nderemo,utayari,NA,NA,NA,NULL,NA,NA,NA,NA,NA,NA,NA,NA,NA,NA,NA,NA,NA,NA,NA,NA,NA,NA,NA
c8b96,task,flow.Sequence,1_8,NA,NA,completion,3597.3600000003,4193006,4193004.14,4193020.38,4196617.74,4196620,2024-11-26T12:43:43Z,4196634.14,Symbol,kielezo,s,kinyume,nderemo,utayari,NA,NA,NA,NULL,NA,NA,NA,NA,NA,NA,NA,NA,NA,NA,NA,NA,NA,NA,NA,NA,NA,NA,NA
c8b96,Deep Question,html.Page,1_9_0_0,NA,NA,form submission,6674.8600000003,4196621,4196617.74,4196634.14,4203309,4203310,2024-11-26T12:43:49Z,4203312.04,Zufall,kikuti,s,kukosekana,uchoraji,leseni,fewoju,NA,NA,NULL,NA,NA,NA,NA,NA,NA,NA,NA,NA,NA,NA,NA,NA,NA,NA,NA,NA,NA,NA
c8b96,Save data screen,canvas.Screen,1_9_0_1,NA,NA,timeout,499.66000000015,4203311,4203308.72,4203312.04,4203795.44,4203797,2024-11-26T12:43:50Z,4203811.7,Zufall,kikuti,s,kukosekana,uchoraji,leseni,NA,NA,0,NULL,NA,NA,NA,NA,NA,NA,NA,NA,NA,NA,NA,NA,NA,NA,NA,NA,NA,NA,NA
c8b96,deep,flow.Sequence,1_9_0,NA,NA,completion,7161.3000000007,4196621,4196617.74,4196634.14,4203795.44,4203797,2024-11-26T12:43:50Z,4203811.7,Zufall,kikuti,s,kukosekana,uchoraji,leseni,NA,NA,NA,NULL,NA,NA,NA,NA,NA,NA,NA,NA,NA,NA,NA,NA,NA,NA,NA,NA,NA,NA,NA
c8b96,task,flow.Sequence,1_9,NA,NA,completion,7161.3000000007,4196620,4196617.74,4196634.14,4203795.44,4203798,2024-11-26T12:43:50Z,4203811.7,Zufall,kikuti,s,kukosekana,uchoraji,leseni,NA,NA,NA,NULL,NA,NA,NA,NA,NA,NA,NA,NA,NA,NA,NA,NA,NA,NA,NA,NA,NA,NA,NA
c8b96,Deep Question,html.Page,1_10_0_0,NA,NA,form submission,5244.2999999998,4203799,4203795.44,4203811.7,4209056,4209056,2024-11-26T12:43:55Z,4209057.34,Widerstand,usulubu,s,kusababisha,mwalimu,mwenendo,dekoshu,NA,NA,NULL,NA,NA,NA,NA,NA,NA,NA,NA,NA,NA,NA,NA,NA,NA,NA,NA,NA,NA,NA
c8b96,Save data screen,canvas.Screen,1_10_0_1,NA,NA,timeout,499.75999999978,4209057,4209054.9,4209057.34,4209540.26,4209541,2024-11-26T12:43:56Z,4209557.1,Widerstand,usulubu,s,kusababisha,mwalimu,mwenendo,NA,NA,0,NULL,NA,NA,NA,NA,NA,NA,NA,NA,NA,NA,NA,NA,NA,NA,NA,NA,NA,NA,NA
c8b96,deep,flow.Sequence,1_10_0,NA,NA,completion,5728.5599999996,4203799,4203795.44,4203811.7,4209540.26,4209541,2024-11-26T12:43:56Z,4209557.1,Widerstand,usulubu,s,kusababisha,mwalimu,mwenendo,NA,NA,NA,NULL,NA,NA,NA,NA,NA,NA,NA,NA,NA,NA,NA,NA,NA,NA,NA,NA,NA,NA,NA
c8b96,task,flow.Sequence,1_10,NA,NA,completion,5728.5599999996,4203799,4203795.44,4203811.7,4209540.26,4209541,2024-11-26T12:43:56Z,4209557.1,Widerstand,usulubu,s,kusababisha,mwalimu,mwenendo,NA,NA,NA,NULL,NA,NA,NA,NA,NA,NA,NA,NA,NA,NA,NA,NA,NA,NA,NA,NA,NA,NA,NA
c8b96,Deep Question,html.Page,1_11_0_0,NA,NA,form submission,6899.9000000004,4209541,4209540.26,4209557.1,4216457,4216457,2024-11-26T12:44:03Z,4216467.86,Schönheit,kirembo,s,mahojiano,msisimko,jitihadi,hekobi,NA,NA,NULL,NA,NA,NA,NA,NA,NA,NA,NA,NA,NA,NA,NA,NA,NA,NA,NA,NA,NA,NA
c8b96,Save data screen,canvas.Screen,1_11_0_1,NA,NA,timeout,499.75999999978,4216458,4216455.98,4216467.86,4216951.28,4216951,2024-11-26T12:44:03Z,4216967.62,Schönheit,kirembo,s,mahojiano,msisimko,jitihadi,NA,NA,0,NULL,NA,NA,NA,NA,NA,NA,NA,NA,NA,NA,NA,NA,NA,NA,NA,NA,NA,NA,NA
c8b96,deep,flow.Sequence,1_11_0,NA,NA,completion,7394.1800000006,4209541,4209540.26,4209557.1,4216951.28,4216951,2024-11-26T12:44:03Z,4216967.62,Schönheit,kirembo,s,mahojiano,msisimko,jitihadi,NA,NA,NA,NULL,NA,NA,NA,NA,NA,NA,NA,NA,NA,NA,NA,NA,NA,NA,NA,NA,NA,NA,NA
c8b96,task,flow.Sequence,1_11,NA,NA,completion,7394.1800000006,4209541,4209540.26,4209557.1,4216951.28,4216952,2024-11-26T12:44:03Z,4216967.62,Schönheit,kirembo,s,mahojiano,msisimko,jitihadi,NA,NA,NA,NULL,NA,NA,NA,NA,NA,NA,NA,NA,NA,NA,NA,NA,NA,NA,NA,NA,NA,NA,NA
c8b96,Deep Question,html.Page,1_12_0_0,NA,NA,form submission,4982.3799999999,4216952,4216951.28,4216967.62,4221950,4221950,2024-11-26T12:44:08Z,4221963.32,Konkurrent,mshindani,d,msemaji,mvutaji,kipukusa,bemoni,NA,NA,NULL,NA,NA,NA,NA,NA,NA,NA,NA,NA,NA,NA,NA,NA,NA,NA,NA,NA,NA,NA
c8b96,Save data screen,canvas.Screen,1_12_0_1,NA,NA,timeout,499.59999999963,4221951,4221948.8,4221963.32,4222446.32,4222447,2024-11-26T12:44:09Z,4222462.92,Konkurrent,mshindani,d,msemaji,mvutaji,kipukusa,NA,NA,0,NULL,NA,NA,NA,NA,NA,NA,NA,NA,NA,NA,NA,NA,NA,NA,NA,NA,NA,NA,NA
c8b96,deep,flow.Sequence,1_12_0,NA,NA,completion,5478.7000000002,4216952,4216951.28,4216967.62,4222446.32,4222447,2024-11-26T12:44:09Z,4222462.92,Konkurrent,mshindani,d,msemaji,mvutaji,kipukusa,NA,NA,NA,NULL,NA,NA,NA,NA,NA,NA,NA,NA,NA,NA,NA,NA,NA,NA,NA,NA,NA,NA,NA
c8b96,task,flow.Sequence,1_12,NA,NA,completion,5478.7000000002,4216952,4216951.28,4216967.62,4222446.32,4222447,2024-11-26T12:44:09Z,4222462.92,Konkurrent,mshindani,d,msemaji,mvutaji,kipukusa,NA,NA,NA,NULL,NA,NA,NA,NA,NA,NA,NA,NA,NA,NA,NA,NA,NA,NA,NA,NA,NA,NA,NA
c8b96,Deep Question,html.Page,1_13_0_0,NA,NA,form submission,4336.0800000001,4222447,4222446.32,4222462.92,4226799,4226799,2024-11-26T12:44:13Z,4226809.38,Verstand,ufahamivu,s,shakawa,hadhari,mhandisi,gewuku,NA,NA,NULL,NA,NA,NA,NA,NA,NA,NA,NA,NA,NA,NA,NA,NA,NA,NA,NA,NA,NA,NA
c8b96,Save data screen,canvas.Screen,1_13_0_1,NA,NA,timeout,499.86000000034,4226800,4226798.66,4226809.38,4227292.64,4227293,2024-11-26T12:44:13Z,4227309.24,Verstand,ufahamivu,s,shakawa,hadhari,mhandisi,NA,NA,0,NULL,NA,NA,NA,NA,NA,NA,NA,NA,NA,NA,NA,NA,NA,NA,NA,NA,NA,NA,NA
c8b96,deep,flow.Sequence,1_13_0,NA,NA,completion,4829.7199999997,4222447,4222446.32,4222462.92,4227292.64,4227293,2024-11-26T12:44:13Z,4227309.24,Verstand,ufahamivu,s,shakawa,hadhari,mhandisi,NA,NA,NA,NULL,NA,NA,NA,NA,NA,NA,NA,NA,NA,NA,NA,NA,NA,NA,NA,NA,NA,NA,NA
c8b96,task,flow.Sequence,1_13,NA,NA,completion,4829.7199999997,4222447,4222446.32,4222462.92,4227292.64,4227293,2024-11-26T12:44:13Z,4227309.24,Verstand,ufahamivu,s,shakawa,hadhari,mhandisi,NA,NA,NA,NULL,NA,NA,NA,NA,NA,NA,NA,NA,NA,NA,NA,NA,NA,NA,NA,NA,NA,NA,NA
c8b96,Deep Question,html.Page,1_14_0_0,NA,NA,form submission,5898.7599999998,4227293,4227292.64,4227309.24,4233208,4233208,2024-11-26T12:44:19Z,4233220.82,Gelegenheit,wakati,d,mchanganyiko,kipaumbele,kushuku,huu,NA,NA,NULL,NA,NA,NA,NA,NA,NA,NA,NA,NA,NA,NA,NA,NA,NA,NA,NA,NA,NA,NA
c8b96,Save data screen,canvas.Screen,1_14_0_1,NA,NA,timeout,499.87999999989,4233209,4233207.62,4233220.82,4233703.98,4233705,2024-11-26T12:44:20Z,4233720.7,Gelegenheit,wakati,d,mchanganyiko,kipaumbele,kushuku,NA,NA,0,NULL,NA,NA,NA,NA,NA,NA,NA,NA,NA,NA,NA,NA,NA,NA,NA,NA,NA,NA,NA
c8b96,deep,flow.Sequence,1_14_0,NA,NA,completion,6394.7400000002,4227293,4227292.64,4227309.24,4233703.98,4233705,2024-11-26T12:44:20Z,4233720.7,Gelegenheit,wakati,d,mchanganyiko,kipaumbele,kushuku,NA,NA,NA,NULL,NA,NA,NA,NA,NA,NA,NA,NA,NA,NA,NA,NA,NA,NA,NA,NA,NA,NA,NA
c8b96,task,flow.Sequence,1_14,NA,NA,completion,6394.7400000002,4227293,4227292.64,4227309.24,4233703.98,4233706,2024-11-26T12:44:20Z,4233720.7,Gelegenheit,wakati,d,mchanganyiko,kipaumbele,kushuku,NA,NA,NA,NULL,NA,NA,NA,NA,NA,NA,NA,NA,NA,NA,NA,NA,NA,NA,NA,NA,NA,NA,NA
c8b96,Deep Question,html.Page,1_15_0_0,NA,NA,form submission,5147.2999999998,4233706,4233703.98,4233720.7,4238868,4238869,2024-11-26T12:44:25Z,4238882.76,Polizist,msongora,d,simanzi,mandhari,nidhamu,kinzozo,NA,NA,NULL,NA,NA,NA,NA,NA,NA,NA,NA,NA,NA,NA,NA,NA,NA,NA,NA,NA,NA,NA
c8b96,Save data screen,canvas.Screen,1_15_0_1,NA,NA,timeout,499.44000000041,4238869,4238867.28,4238882.76,4239366.02,4239367,2024-11-26T12:44:25Z,4239382.2,Polizist,msongora,d,simanzi,mandhari,nidhamu,NA,NA,0,NULL,NA,NA,NA,NA,NA,NA,NA,NA,NA,NA,NA,NA,NA,NA,NA,NA,NA,NA,NA
c8b96,deep,flow.Sequence,1_15_0,NA,NA,completion,5645.3199999994,4233706,4233703.98,4233720.7,4239366.02,4239367,2024-11-26T12:44:25Z,4239382.2,Polizist,msongora,d,simanzi,mandhari,nidhamu,NA,NA,NA,NULL,NA,NA,NA,NA,NA,NA,NA,NA,NA,NA,NA,NA,NA,NA,NA,NA,NA,NA,NA
c8b96,task,flow.Sequence,1_15,NA,NA,completion,5645.3199999994,4233706,4233703.98,4233720.7,4239366.02,4239368,2024-11-26T12:44:25Z,4239382.2,Polizist,msongora,d,simanzi,mandhari,nidhamu,NA,NA,NA,NULL,NA,NA,NA,NA,NA,NA,NA,NA,NA,NA,NA,NA,NA,NA,NA,NA,NA,NA,NA
c8b96,retrieval block 1 (cued recall),flow.Loop,1,NA,NA,completion,105047.1,4134314,4134313.94,4134318.92,4239366.02,4239368,2024-11-26T12:44:25Z,4239382.2,NA,NA,NA,NA,NA,NA,NA,NA,NA,NULL,NA,NA,NA,NA,NA,NA,NA,NA,NA,NA,NA,NA,NA,NA,NA,NA,NA,NA,NA
c8b96,Shallow Question,html.Page,2_0_0_0,NA,NA,form submission,9823.7999999998,4239369,4239366.02,4239382.2,4249206,4249207,2024-11-26T12:44:35Z,4249207.62,Symbol,kielezo,s,kinyume,nderemo,utayari,kielezo,NA,NA,"c(""distractor1"", ""distractor2"", ""distractor3"")",NA,NA,NA,NA,NA,NA,NA,NA,NA,NA,NA,NA,NA,NA,NA,NA,NA,NA,NA
c8b96,Save data screen,canvas.Screen,2_0_0_1,NA,NA,timeout,499.58000000007,4249207,4249205.88,4249207.62,4249690.6,4249691,2024-11-26T12:44:36Z,4249707.2,Symbol,kielezo,s,kinyume,nderemo,utayari,NA,NA,1,"c(""distractor1"", ""distractor2"", ""distractor3"")",NA,NA,NA,NA,NA,NA,NA,NA,NA,NA,NA,NA,NA,NA,NA,NA,NA,NA,NA
c8b96,shallow,flow.Sequence,2_0_0,NA,NA,completion,10308.399999999,4239369,4239366.02,4239382.2,4249690.6,4249691,2024-11-26T12:44:36Z,4249707.2,Symbol,kielezo,s,kinyume,nderemo,utayari,NA,NA,NA,"c(""distractor1"", ""distractor2"", ""distractor3"")",NA,NA,NA,NA,NA,NA,NA,NA,NA,NA,NA,NA,NA,NA,NA,NA,NA,NA,NA
c8b96,task,flow.Sequence,2_0,NA,NA,completion,10308.399999999,4239368,4239366.02,4239382.2,4249690.6,4249691,2024-11-26T12:44:36Z,4249707.2,Symbol,kielezo,s,kinyume,nderemo,utayari,NA,NA,NA,"c(""distractor1"", ""distractor2"", ""distractor3"")",NA,NA,NA,NA,NA,NA,NA,NA,NA,NA,NA,NA,NA,NA,NA,NA,NA,NA,NA
c8b96,Shallow Question,html.Page,2_1_0_0,NA,NA,form submission,25457.8,4249691,4249690.6,4249707.2,4275165,4275166,2024-11-26T12:45:01Z,4275169.56,Widerstand,usulubu,s,kusababisha,mwalimu,mwenendo,usulubu,NA,NA,"c(""distractor1"", ""distractor2"", ""distractor3"")",NA,NA,NA,NA,NA,NA,NA,NA,NA,NA,NA,NA,NA,NA,NA,NA,NA,NA,NA
c8b96,Save data screen,canvas.Screen,2_1_0_1,NA,NA,timeout,499.78000000026,4275168,4275164.46,4275169.56,4275652.8,4275654,2024-11-26T12:45:02Z,4275669.34,Widerstand,usulubu,s,kusababisha,mwalimu,mwenendo,NA,NA,1,"c(""distractor1"", ""distractor2"", ""distractor3"")",NA,NA,NA,NA,NA,NA,NA,NA,NA,NA,NA,NA,NA,NA,NA,NA,NA,NA,NA
c8b96,shallow,flow.Sequence,2_1_0,NA,NA,completion,25945.6,4249691,4249690.6,4249707.2,4275652.8,4275654,2024-11-26T12:45:02Z,4275669.34,Widerstand,usulubu,s,kusababisha,mwalimu,mwenendo,NA,NA,NA,"c(""distractor1"", ""distractor2"", ""distractor3"")",NA,NA,NA,NA,NA,NA,NA,NA,NA,NA,NA,NA,NA,NA,NA,NA,NA,NA,NA
c8b96,task,flow.Sequence,2_1,NA,NA,completion,25945.6,4249691,4249690.6,4249707.2,4275652.8,4275655,2024-11-26T12:45:02Z,4275669.34,Widerstand,usulubu,s,kusababisha,mwalimu,mwenendo,NA,NA,NA,"c(""distractor1"", ""distractor2"", ""distractor3"")",NA,NA,NA,NA,NA,NA,NA,NA,NA,NA,NA,NA,NA,NA,NA,NA,NA,NA,NA
c8b96,Shallow Question,html.Page,2_2_0_0,NA,NA,form submission,10754.66,4275656,4275652.8,4275669.34,4286424,4286424,2024-11-26T12:45:13Z,4286426.96,Polizist,msongora,d,simanzi,mandhari,nidhamu,mandhari,NA,NA,"c(""distractor1"", ""distractor2"", ""distractor3"")",NA,NA,NA,NA,NA,NA,NA,NA,NA,NA,NA,NA,NA,NA,NA,NA,NA,NA,NA
c8b96,Save data screen,canvas.Screen,2_2_0_1,NA,NA,timeout,499.66000000015,4286425,4286423.08,4286426.96,4286910.22,4286911,2024-11-26T12:45:13Z,4286926.62,Polizist,msongora,d,simanzi,mandhari,nidhamu,NA,NA,0,"c(""distractor1"", ""distractor2"", ""distractor3"")",NA,NA,NA,NA,NA,NA,NA,NA,NA,NA,NA,NA,NA,NA,NA,NA,NA,NA,NA
c8b96,shallow,flow.Sequence,2_2_0,NA,NA,completion,11240.88,4275656,4275652.8,4275669.34,4286910.22,4286912,2024-11-26T12:45:13Z,4286926.62,Polizist,msongora,d,simanzi,mandhari,nidhamu,NA,NA,NA,"c(""distractor1"", ""distractor2"", ""distractor3"")",NA,NA,NA,NA,NA,NA,NA,NA,NA,NA,NA,NA,NA,NA,NA,NA,NA,NA,NA
c8b96,task,flow.Sequence,2_2,NA,NA,completion,11240.88,4275656,4275652.8,4275669.34,4286910.22,4286912,2024-11-26T12:45:13Z,4286926.62,Polizist,msongora,d,simanzi,mandhari,nidhamu,NA,NA,NA,"c(""distractor1"", ""distractor2"", ""distractor3"")",NA,NA,NA,NA,NA,NA,NA,NA,NA,NA,NA,NA,NA,NA,NA,NA,NA,NA,NA
c8b96,Shallow Question,html.Page,2_3_0_0,NA,NA,form submission,9531.3799999999,4286913,4286910.22,4286926.62,4296458,4296458,2024-11-26T12:45:23Z,4296468.44,Verstand,ufahamivu,s,shakawa,hadhari,mhandisi,ufahamivu,NA,NA,"c(""distractor1"", ""distractor2"", ""distractor3"")",NA,NA,NA,NA,NA,NA,NA,NA,NA,NA,NA,NA,NA,NA,NA,NA,NA,NA,NA
c8b96,Save data screen,canvas.Screen,2_3_0_1,NA,NA,timeout,499.65999999922,4296459,4296457,4296468.44,4296951.72,4296953,2024-11-26T12:45:23Z,4296968.1,Verstand,ufahamivu,s,shakawa,hadhari,mhandisi,NA,NA,1,"c(""distractor1"", ""distractor2"", ""distractor3"")",NA,NA,NA,NA,NA,NA,NA,NA,NA,NA,NA,NA,NA,NA,NA,NA,NA,NA,NA
c8b96,shallow,flow.Sequence,2_3_0,NA,NA,completion,10025.1,4286913,4286910.22,4286926.62,4296951.72,4296954,2024-11-26T12:45:23Z,4296968.1,Verstand,ufahamivu,s,shakawa,hadhari,mhandisi,NA,NA,NA,"c(""distractor1"", ""distractor2"", ""distractor3"")",NA,NA,NA,NA,NA,NA,NA,NA,NA,NA,NA,NA,NA,NA,NA,NA,NA,NA,NA
c8b96,task,flow.Sequence,2_3,NA,NA,completion,10025.1,4286913,4286910.22,4286926.62,4296951.72,4296954,2024-11-26T12:45:23Z,4296968.1,Verstand,ufahamivu,s,shakawa,hadhari,mhandisi,NA,NA,NA,"c(""distractor1"", ""distractor2"", ""distractor3"")",NA,NA,NA,NA,NA,NA,NA,NA,NA,NA,NA,NA,NA,NA,NA,NA,NA,NA,NA
c8b96,Shallow Question,html.Page,2_4_0_0,NA,NA,form submission,9258.9000000004,4296955,4296951.72,4296968.1,4306227,4306227,2024-11-26T12:45:32Z,4306227.28,Sympathie,mapendano,s,dhamiria,fungamano,maazimio,mapendano,NA,NA,"c(""distractor1"", ""distractor2"", ""distractor3"")",NA,NA,NA,NA,NA,NA,NA,NA,NA,NA,NA,NA,NA,NA,NA,NA,NA,NA,NA
c8b96,Save data screen,canvas.Screen,2_4_0_1,NA,NA,timeout,499.83999999985,4306227,4306226.26,4306227.28,4306710.52,4306711,2024-11-26T12:45:33Z,4306727.12,Sympathie,mapendano,s,dhamiria,fungamano,maazimio,NA,NA,1,"c(""distractor1"", ""distractor2"", ""distractor3"")",NA,NA,NA,NA,NA,NA,NA,NA,NA,NA,NA,NA,NA,NA,NA,NA,NA,NA,NA
c8b96,shallow,flow.Sequence,2_4_0,NA,NA,completion,9742.4199999999,4296955,4296951.72,4296968.1,4306710.52,4306711,2024-11-26T12:45:33Z,4306727.12,Sympathie,mapendano,s,dhamiria,fungamano,maazimio,NA,NA,NA,"c(""distractor1"", ""distractor2"", ""distractor3"")",NA,NA,NA,NA,NA,NA,NA,NA,NA,NA,NA,NA,NA,NA,NA,NA,NA,NA,NA
c8b96,task,flow.Sequence,2_4,NA,NA,completion,9742.4199999999,4296954,4296951.72,4296968.1,4306710.52,4306711,2024-11-26T12:45:33Z,4306727.12,Sympathie,mapendano,s,dhamiria,fungamano,maazimio,NA,NA,NA,"c(""distractor1"", ""distractor2"", ""distractor3"")",NA,NA,NA,NA,NA,NA,NA,NA,NA,NA,NA,NA,NA,NA,NA,NA,NA,NA,NA
c8b96,Shallow Question,html.Page,2_5_0_0,NA,NA,form submission,10979.88,4306711,4306710.52,4306727.12,4317707,4317708,2024-11-26T12:45:44Z,4317717.84,Gelegenheit,wakati,d,mchanganyiko,kipaumbele,kushuku,mchanganyiko,NA,NA,"c(""distractor1"", ""distractor2"", ""distractor3"")",NA,NA,NA,NA,NA,NA,NA,NA,NA,NA,NA,NA,NA,NA,NA,NA,NA,NA,NA
c8b96,Save data screen,canvas.Screen,2_5_0_1,NA,NA,timeout,499.79999999981,4317710,4317704.2,4317717.84,4318201.08,4318202,2024-11-26T12:45:44Z,4318217.64,Gelegenheit,wakati,d,mchanganyiko,kipaumbele,kushuku,NA,NA,0,"c(""distractor1"", ""distractor2"", ""distractor3"")",NA,NA,NA,NA,NA,NA,NA,NA,NA,NA,NA,NA,NA,NA,NA,NA,NA,NA,NA
c8b96,shallow,flow.Sequence,2_5_0,NA,NA,completion,11473.96,4306711,4306710.52,4306727.12,4318201.08,4318202,2024-11-26T12:45:44Z,4318217.64,Gelegenheit,wakati,d,mchanganyiko,kipaumbele,kushuku,NA,NA,NA,"c(""distractor1"", ""distractor2"", ""distractor3"")",NA,NA,NA,NA,NA,NA,NA,NA,NA,NA,NA,NA,NA,NA,NA,NA,NA,NA,NA
c8b96,task,flow.Sequence,2_5,NA,NA,completion,11473.96,4306711,4306710.52,4306727.12,4318201.08,4318204,2024-11-26T12:45:44Z,4318217.64,Gelegenheit,wakati,d,mchanganyiko,kipaumbele,kushuku,NA,NA,NA,"c(""distractor1"", ""distractor2"", ""distractor3"")",NA,NA,NA,NA,NA,NA,NA,NA,NA,NA,NA,NA,NA,NA,NA,NA,NA,NA,NA
c8b96,Shallow Question,html.Page,2_6_0_0,NA,NA,form submission,6084.3600000003,4318204,4318201.08,4318217.64,4324302,4324303,2024-11-26T12:45:50Z,4324312.24,Ausschluss,kutengwa,d,ununuzi,taratibu,madeni,kutengwa,NA,NA,"c(""distractor1"", ""distractor2"", ""distractor3"")",NA,NA,NA,NA,NA,NA,NA,NA,NA,NA,NA,NA,NA,NA,NA,NA,NA,NA,NA
c8b96,Save data screen,canvas.Screen,2_6_0_1,NA,NA,timeout,499.74000000022,4324305,4324299.42,4324312.24,4324795.38,4324796,2024-11-26T12:45:51Z,4324811.98,Ausschluss,kutengwa,d,ununuzi,taratibu,madeni,NA,NA,1,"c(""distractor1"", ""distractor2"", ""distractor3"")",NA,NA,NA,NA,NA,NA,NA,NA,NA,NA,NA,NA,NA,NA,NA,NA,NA,NA,NA
c8b96,shallow,flow.Sequence,2_6_0,NA,NA,completion,6577.7400000002,4318204,4318201.08,4318217.64,4324795.38,4324796,2024-11-26T12:45:51Z,4324811.98,Ausschluss,kutengwa,d,ununuzi,taratibu,madeni,NA,NA,NA,"c(""distractor1"", ""distractor2"", ""distractor3"")",NA,NA,NA,NA,NA,NA,NA,NA,NA,NA,NA,NA,NA,NA,NA,NA,NA,NA,NA
c8b96,task,flow.Sequence,2_6,NA,NA,completion,6577.7400000002,4318204,4318201.08,4318217.64,4324795.38,4324796,2024-11-26T12:45:51Z,4324811.98,Ausschluss,kutengwa,d,ununuzi,taratibu,madeni,NA,NA,NA,"c(""distractor1"", ""distractor2"", ""distractor3"")",NA,NA,NA,NA,NA,NA,NA,NA,NA,NA,NA,NA,NA,NA,NA,NA,NA,NA,NA
c8b96,Shallow Question,html.Page,2_7_0_0,NA,NA,form submission,6006.0199999996,4324796,4324795.38,4324811.98,4330818,4330819,2024-11-26T12:45:57Z,4330823.66,Zufall,kikuti,s,kukosekana,uchoraji,leseni,kikuti,NA,NA,"c(""distractor1"", ""distractor2"", ""distractor3"")",NA,NA,NA,NA,NA,NA,NA,NA,NA,NA,NA,NA,NA,NA,NA,NA,NA,NA,NA
c8b96,Save data screen,canvas.Screen,2_7_0_1,NA,NA,timeout,499.78000000026,4330819,4330817.66,4330823.66,4331307.12,4331308,2024-11-26T12:45:57Z,4331323.44,Zufall,kikuti,s,kukosekana,uchoraji,leseni,NA,NA,1,"c(""distractor1"", ""distractor2"", ""distractor3"")",NA,NA,NA,NA,NA,NA,NA,NA,NA,NA,NA,NA,NA,NA,NA,NA,NA,NA,NA
c8b96,shallow,flow.Sequence,2_7_0,NA,NA,completion,6495.1399999997,4324796,4324795.38,4324811.98,4331307.12,4331309,2024-11-26T12:45:57Z,4331323.44,Zufall,kikuti,s,kukosekana,uchoraji,leseni,NA,NA,NA,"c(""distractor1"", ""distractor2"", ""distractor3"")",NA,NA,NA,NA,NA,NA,NA,NA,NA,NA,NA,NA,NA,NA,NA,NA,NA,NA,NA
c8b96,task,flow.Sequence,2_7,NA,NA,completion,6495.1399999997,4324796,4324795.38,4324811.98,4331307.12,4331310,2024-11-26T12:45:57Z,4331323.44,Zufall,kikuti,s,kukosekana,uchoraji,leseni,NA,NA,NA,"c(""distractor1"", ""distractor2"", ""distractor3"")",NA,NA,NA,NA,NA,NA,NA,NA,NA,NA,NA,NA,NA,NA,NA,NA,NA,NA,NA
c8b96,Shallow Question,html.Page,2_8_0_0,NA,NA,form submission,7355.5599999996,4331310,4331307.12,4331323.44,4338679,4338679,2024-11-26T12:46:05Z,4338683.9,Zuwachs,nyongeza,s,matilaba,udhibiti,hudhurio,nyongeza,NA,NA,"c(""distractor1"", ""distractor2"", ""distractor3"")",NA,NA,NA,NA,NA,NA,NA,NA,NA,NA,NA,NA,NA,NA,NA,NA,NA,NA,NA
c8b96,Save data screen,canvas.Screen,2_8_0_1,NA,NA,timeout,499.41999999993,4338680,4338678.26,4338683.9,4339166.86,4339167,2024-11-26T12:46:05Z,4339183.32,Zuwachs,nyongeza,s,matilaba,udhibiti,hudhurio,NA,NA,1,"c(""distractor1"", ""distractor2"", ""distractor3"")",NA,NA,NA,NA,NA,NA,NA,NA,NA,NA,NA,NA,NA,NA,NA,NA,NA,NA,NA
c8b96,shallow,flow.Sequence,2_8_0,NA,NA,completion,7843.4199999999,4331310,4331307.12,4331323.44,4339166.86,4339167,2024-11-26T12:46:05Z,4339183.32,Zuwachs,nyongeza,s,matilaba,udhibiti,hudhurio,NA,NA,NA,"c(""distractor1"", ""distractor2"", ""distractor3"")",NA,NA,NA,NA,NA,NA,NA,NA,NA,NA,NA,NA,NA,NA,NA,NA,NA,NA,NA
c8b96,task,flow.Sequence,2_8,NA,NA,completion,7843.4199999999,4331310,4331307.12,4331323.44,4339166.86,4339167,2024-11-26T12:46:05Z,4339183.32,Zuwachs,nyongeza,s,matilaba,udhibiti,hudhurio,NA,NA,NA,"c(""distractor1"", ""distractor2"", ""distractor3"")",NA,NA,NA,NA,NA,NA,NA,NA,NA,NA,NA,NA,NA,NA,NA,NA,NA,NA,NA
c8b96,Shallow Question,html.Page,2_9_0_0,NA,NA,form submission,12707.68,4339167,4339166.86,4339183.32,4351891,4351891,2024-11-26T12:46:18Z,4351906.16,Auftrag,uagizaji,d,ghanima,kuzingatia,msukani,uagizaji,NA,NA,"c(""distractor1"", ""distractor2"", ""distractor3"")",NA,NA,NA,NA,NA,NA,NA,NA,NA,NA,NA,NA,NA,NA,NA,NA,NA,NA,NA
c8b96,Save data screen,canvas.Screen,2_9_0_1,NA,NA,timeout,499.54000000004,4351892,4351890.66,4351906.16,4352389.4,4352390,2024-11-26T12:46:18Z,4352405.7,Auftrag,uagizaji,d,ghanima,kuzingatia,msukani,NA,NA,1,"c(""distractor1"", ""distractor2"", ""distractor3"")",NA,NA,NA,NA,NA,NA,NA,NA,NA,NA,NA,NA,NA,NA,NA,NA,NA,NA,NA
c8b96,shallow,flow.Sequence,2_9_0,NA,NA,completion,13206.08,4339167,4339166.86,4339183.32,4352389.4,4352390,2024-11-26T12:46:18Z,4352405.7,Auftrag,uagizaji,d,ghanima,kuzingatia,msukani,NA,NA,NA,"c(""distractor1"", ""distractor2"", ""distractor3"")",NA,NA,NA,NA,NA,NA,NA,NA,NA,NA,NA,NA,NA,NA,NA,NA,NA,NA,NA
c8b96,task,flow.Sequence,2_9,NA,NA,completion,13206.08,4339167,4339166.86,4339183.32,4352389.4,4352390,2024-11-26T12:46:18Z,4352405.7,Auftrag,uagizaji,d,ghanima,kuzingatia,msukani,NA,NA,NA,"c(""distractor1"", ""distractor2"", ""distractor3"")",NA,NA,NA,NA,NA,NA,NA,NA,NA,NA,NA,NA,NA,NA,NA,NA,NA,NA,NA
c8b96,Shallow Question,html.Page,2_10_0_0,NA,NA,form submission,6703.2999999998,4352390,4352389.4,4352405.7,4359109,4359109,2024-11-26T12:46:25Z,4359116.82,Vorsorge,tahadhari,d,ufafanuzi,makini,mashambani,tahadhari,NA,NA,"c(""distractor1"", ""distractor2"", ""distractor3"")",NA,NA,NA,NA,NA,NA,NA,NA,NA,NA,NA,NA,NA,NA,NA,NA,NA,NA,NA
c8b96,Save data screen,canvas.Screen,2_10_0_1,NA,NA,timeout,500.08000000007,4359110,4359107.72,4359116.82,4359600.3,4359601,2024-11-26T12:46:26Z,4359616.9,Vorsorge,tahadhari,d,ufafanuzi,makini,mashambani,NA,NA,1,"c(""distractor1"", ""distractor2"", ""distractor3"")",NA,NA,NA,NA,NA,NA,NA,NA,NA,NA,NA,NA,NA,NA,NA,NA,NA,NA,NA
c8b96,shallow,flow.Sequence,2_10_0,NA,NA,completion,7194.5999999996,4352390,4352389.4,4352405.7,4359600.3,4359602,2024-11-26T12:46:26Z,4359616.9,Vorsorge,tahadhari,d,ufafanuzi,makini,mashambani,NA,NA,NA,"c(""distractor1"", ""distractor2"", ""distractor3"")",NA,NA,NA,NA,NA,NA,NA,NA,NA,NA,NA,NA,NA,NA,NA,NA,NA,NA,NA
c8b96,task,flow.Sequence,2_10,NA,NA,completion,7194.5999999996,4352390,4352389.4,4352405.7,4359600.3,4359602,2024-11-26T12:46:26Z,4359616.9,Vorsorge,tahadhari,d,ufafanuzi,makini,mashambani,NA,NA,NA,"c(""distractor1"", ""distractor2"", ""distractor3"")",NA,NA,NA,NA,NA,NA,NA,NA,NA,NA,NA,NA,NA,NA,NA,NA,NA,NA,NA
c8b96,Shallow Question,html.Page,2_11_0_0,NA,NA,form submission,5119.0999999996,4359602,4359600.3,4359616.9,4364736,4364736,2024-11-26T12:46:31Z,4364745.82,Konkurrent,mshindani,d,msemaji,mvutaji,kipukusa,mshindani,NA,NA,"c(""distractor1"", ""distractor2"", ""distractor3"")",NA,NA,NA,NA,NA,NA,NA,NA,NA,NA,NA,NA,NA,NA,NA,NA,NA,NA,NA
c8b96,Save data screen,canvas.Screen,2_11_0_1,NA,NA,timeout,499.54000000004,4364738,4364735.78,4364745.82,4365228.8,4365230,2024-11-26T12:46:31Z,4365245.36,Konkurrent,mshindani,d,msemaji,mvutaji,kipukusa,NA,NA,1,"c(""distractor1"", ""distractor2"", ""distractor3"")",NA,NA,NA,NA,NA,NA,NA,NA,NA,NA,NA,NA,NA,NA,NA,NA,NA,NA,NA
c8b96,shallow,flow.Sequence,2_11_0,NA,NA,completion,5611.8999999994,4359602,4359600.3,4359616.9,4365228.8,4365230,2024-11-26T12:46:31Z,4365245.36,Konkurrent,mshindani,d,msemaji,mvutaji,kipukusa,NA,NA,NA,"c(""distractor1"", ""distractor2"", ""distractor3"")",NA,NA,NA,NA,NA,NA,NA,NA,NA,NA,NA,NA,NA,NA,NA,NA,NA,NA,NA
c8b96,task,flow.Sequence,2_11,NA,NA,completion,5611.8999999994,4359602,4359600.3,4359616.9,4365228.8,4365231,2024-11-26T12:46:31Z,4365245.36,Konkurrent,mshindani,d,msemaji,mvutaji,kipukusa,NA,NA,NA,"c(""distractor1"", ""distractor2"", ""distractor3"")",NA,NA,NA,NA,NA,NA,NA,NA,NA,NA,NA,NA,NA,NA,NA,NA,NA,NA,NA
c8b96,Shallow Question,html.Page,2_12_0_0,NA,NA,form submission,7658.6399999997,4365231,4365228.8,4365245.36,4372904,4372904,2024-11-26T12:46:39Z,4372905.7,Beweis,ushahidi,d,marudio,kizuizi,mtendaji,ushahidi,NA,NA,"c(""distractor1"", ""distractor2"", ""distractor3"")",NA,NA,NA,NA,NA,NA,NA,NA,NA,NA,NA,NA,NA,NA,NA,NA,NA,NA,NA
c8b96,Save data screen,canvas.Screen,2_12_0_1,NA,NA,timeout,499.8599999994,4372904,4372903.04,4372905.7,4373389,4373390,2024-11-26T12:46:39Z,4373405.56,Beweis,ushahidi,d,marudio,kizuizi,mtendaji,NA,NA,1,"c(""distractor1"", ""distractor2"", ""distractor3"")",NA,NA,NA,NA,NA,NA,NA,NA,NA,NA,NA,NA,NA,NA,NA,NA,NA,NA,NA
c8b96,shallow,flow.Sequence,2_12_0,NA,NA,completion,8143.6399999997,4365231,4365228.8,4365245.36,4373389,4373390,2024-11-26T12:46:39Z,4373405.56,Beweis,ushahidi,d,marudio,kizuizi,mtendaji,NA,NA,NA,"c(""distractor1"", ""distractor2"", ""distractor3"")",NA,NA,NA,NA,NA,NA,NA,NA,NA,NA,NA,NA,NA,NA,NA,NA,NA,NA,NA
c8b96,task,flow.Sequence,2_12,NA,NA,completion,8143.6399999997,4365231,4365228.8,4365245.36,4373389,4373390,2024-11-26T12:46:39Z,4373405.56,Beweis,ushahidi,d,marudio,kizuizi,mtendaji,NA,NA,NA,"c(""distractor1"", ""distractor2"", ""distractor3"")",NA,NA,NA,NA,NA,NA,NA,NA,NA,NA,NA,NA,NA,NA,NA,NA,NA,NA,NA
c8b96,Shallow Question,html.Page,2_13_0_0,NA,NA,form submission,8157.4400000004,4373390,4373389,4373405.56,4381563,4381563,2024-11-26T12:46:48Z,4381565.2,Annäherung,maegesho,s,madahili,kujiamini,mapendekezo,maegesho,NA,NA,"c(""distractor1"", ""distractor2"", ""distractor3"")",NA,NA,NA,NA,NA,NA,NA,NA,NA,NA,NA,NA,NA,NA,NA,NA,NA,NA,NA
c8b96,Save data screen,canvas.Screen,2_13_0_1,NA,NA,timeout,499.63999999966,4381564,4381562.74,4381565.2,4382048.28,4382051,2024-11-26T12:46:48Z,4382064.84,Annäherung,maegesho,s,madahili,kujiamini,mapendekezo,NA,NA,1,"c(""distractor1"", ""distractor2"", ""distractor3"")",NA,NA,NA,NA,NA,NA,NA,NA,NA,NA,NA,NA,NA,NA,NA,NA,NA,NA,NA
c8b96,shallow,flow.Sequence,2_13_0,NA,NA,completion,8642.7200000007,4373390,4373389,4373405.56,4382048.28,4382053,2024-11-26T12:46:48Z,4382064.84,Annäherung,maegesho,s,madahili,kujiamini,mapendekezo,NA,NA,NA,"c(""distractor1"", ""distractor2"", ""distractor3"")",NA,NA,NA,NA,NA,NA,NA,NA,NA,NA,NA,NA,NA,NA,NA,NA,NA,NA,NA
c8b96,task,flow.Sequence,2_13,NA,NA,completion,8642.7200000007,4373390,4373389,4373405.56,4382048.28,4382054,2024-11-26T12:46:48Z,4382064.84,Annäherung,maegesho,s,madahili,kujiamini,mapendekezo,NA,NA,NA,"c(""distractor1"", ""distractor2"", ""distractor3"")",NA,NA,NA,NA,NA,NA,NA,NA,NA,NA,NA,NA,NA,NA,NA,NA,NA,NA,NA
c8b96,Shallow Question,html.Page,2_14_0_0,NA,NA,form submission,5705.1600000001,4382055,4382048.28,4382064.84,4387770,4387770,2024-11-26T12:46:54Z,4387776.82,Schönheit,kirembo,s,mahojiano,msisimko,jitihadi,kirembo,NA,NA,"c(""distractor1"", ""distractor2"", ""distractor3"")",NA,NA,NA,NA,NA,NA,NA,NA,NA,NA,NA,NA,NA,NA,NA,NA,NA,NA,NA
c8b96,Save data screen,canvas.Screen,2_14_0_1,NA,NA,timeout,499.3599999994,4387773,4387769.14,4387776.82,4388259.76,4388260,2024-11-26T12:46:54Z,4388276.18,Schönheit,kirembo,s,mahojiano,msisimko,jitihadi,NA,NA,1,"c(""distractor1"", ""distractor2"", ""distractor3"")",NA,NA,NA,NA,NA,NA,NA,NA,NA,NA,NA,NA,NA,NA,NA,NA,NA,NA,NA
c8b96,shallow,flow.Sequence,2_14_0,NA,NA,completion,6194.9199999999,4382055,4382048.28,4382064.84,4388259.76,4388260,2024-11-26T12:46:54Z,4388276.18,Schönheit,kirembo,s,mahojiano,msisimko,jitihadi,NA,NA,NA,"c(""distractor1"", ""distractor2"", ""distractor3"")",NA,NA,NA,NA,NA,NA,NA,NA,NA,NA,NA,NA,NA,NA,NA,NA,NA,NA,NA
c8b96,task,flow.Sequence,2_14,NA,NA,completion,6194.9199999999,4382055,4382048.28,4382064.84,4388259.76,4388260,2024-11-26T12:46:54Z,4388276.18,Schönheit,kirembo,s,mahojiano,msisimko,jitihadi,NA,NA,NA,"c(""distractor1"", ""distractor2"", ""distractor3"")",NA,NA,NA,NA,NA,NA,NA,NA,NA,NA,NA,NA,NA,NA,NA,NA,NA,NA,NA
c8b96,Shallow Question,html.Page,2_15_0_0,NA,NA,form submission,5813.8200000003,4388261,4388259.76,4388276.18,4394090,4394090,2024-11-26T12:47:00Z,4394104.76,Wettbewerb,ushindani,d,mapendezi,kichocheo,ubaguzi,ushindani,NA,NA,"c(""distractor1"", ""distractor2"", ""distractor3"")",NA,NA,NA,NA,NA,NA,NA,NA,NA,NA,NA,NA,NA,NA,NA,NA,NA,NA,NA
c8b96,Save data screen,canvas.Screen,2_15_0_1,NA,NA,timeout,499.58000000007,4394091,4394088.5,4394104.76,4394587.94,4394588,2024-11-26T12:47:01Z,4394604.34,Wettbewerb,ushindani,d,mapendezi,kichocheo,ubaguzi,NA,NA,1,"c(""distractor1"", ""distractor2"", ""distractor3"")",NA,NA,NA,NA,NA,NA,NA,NA,NA,NA,NA,NA,NA,NA,NA,NA,NA,NA,NA
c8b96,shallow,flow.Sequence,2_15_0,NA,NA,completion,6311.7600000007,4388261,4388259.76,4388276.18,4394587.94,4394588,2024-11-26T12:47:01Z,4394604.34,Wettbewerb,ushindani,d,mapendezi,kichocheo,ubaguzi,NA,NA,NA,"c(""distractor1"", ""distractor2"", ""distractor3"")",NA,NA,NA,NA,NA,NA,NA,NA,NA,NA,NA,NA,NA,NA,NA,NA,NA,NA,NA
c8b96,task,flow.Sequence,2_15,NA,NA,completion,6311.7600000007,4388260,4388259.76,4388276.18,4394587.94,4394589,2024-11-26T12:47:01Z,4394604.34,Wettbewerb,ushindani,d,mapendezi,kichocheo,ubaguzi,NA,NA,NA,"c(""distractor1"", ""distractor2"", ""distractor3"")",NA,NA,NA,NA,NA,NA,NA,NA,NA,NA,NA,NA,NA,NA,NA,NA,NA,NA,NA
c8b96,retrieval block 2 (multiple choice),flow.Loop,2,NA,NA,completion,155205.74,4239368,4239366.02,4239382.2,4394587.94,4394589,2024-11-26T12:47:01Z,4394604.34,NA,NA,NA,NA,NA,NA,NA,NA,NA,"c(""distractor1"", ""distractor2"", ""distractor3"")",NA,NA,NA,NA,NA,NA,NA,NA,NA,NA,NA,NA,NA,NA,NA,NA,NA,NA,NA
c8b96,End,canvas.Screen,3,NA,keypress(Space),response,1590.6600000001,4394589,4394587.94,4394604.34,4396195,4396204,2024-11-26T12:47:02Z,4396219.88,NA,NA,NA,NA,NA,NA,NA,NA,NA,NULL,NA,NA,NA,NA,NA,NA,NA,NA,NA,NA,NA,NA,NA,NA,NA,NA,NA,NA,NA
c8b96,root,flow.Sequence,NA,NA,NA,completion,4395049.14,1119,1129.24,1145.86,4396195,4396204,2024-11-26T12:47:02Z,4396219.88,NA,NA,NA,NA,NA,NA,NA,NA,NA,NULL,NA,NA,NA,NA,NA,NA,NA,NA,NA,NA,NA,NA,NA,NA,NA,NA,NA,NA,NA
