observation,sender,sender_type,sender_id,response,response_action,ended_on,duration,time_run,time_render,time_show,time_end,time_commit,timestamp,time_switch,german,swahili,enc,distractor1,distractor2,distractor3,response_2,x,correct,distractors,url_vp,url_sess,meta_labjs_version,meta_location,meta_user_agent,meta_platform,meta_language,meta_locale,meta_time_zone,meta_timezone_offset,meta_screen_width,meta_screen_height,meta_scroll_width,meta_scroll_height,meta_window_inner_width,meta_window_inner_height,meta_device_pixel_ratio,meta_labjs_build_flavor,meta_labjs_build_commit
92873,Introduction delayed retrieval,canvas.Screen,0,weiter,keypress(Space),response,11462.243000095,932.5,937.605,954.157,12416.400000095,12420.400000095,2023-07-12T18:04:24Z,12428.106,NA,NA,NA,NA,NA,NA,NA,NA,NA,NULL,175,2,20.2.4,https://neurocog.fernuni.ch/studies/vweber/sliechti/delayed%203/index.html?vp=175&sess=2,"Mozilla/5.0 (Windows NT 10.0; Win64; x64) AppleWebKit/537.36 (KHTML, like Gecko) Chrome/114.0.0.0 Safari/537.36",Win32,de-CH,de,Europe/Zurich,-120,1280,720,1266,539,1266,539,1.5,production,f5b4a49f956347addd546a832a3327688c2c0fef
92873,Deep Question,html.Page,1_0_0_0,NA,NA,form submission,11556.494000024,12421.100000024,12411.207,12428.106,23984.600000024,23985.200000048,2023-07-12T18:04:36Z,24001.913,Fleisch,mshakiki,s,kizunguzungu,mshikamano,angusho,mhtiki,NA,NA,NULL,NA,NA,NA,NA,NA,NA,NA,NA,NA,NA,NA,NA,NA,NA,NA,NA,NA,NA,NA
92873,Save data screen,canvas.Screen,1_0_0_1,NA,NA,timeout,499.769,23988,23985.338,24001.913,24484.917,24487.900000095,2023-07-12T18:04:36Z,24501.682,Fleisch,mshakiki,s,kizunguzungu,mshikamano,angusho,NA,NA,0,NULL,NA,NA,NA,NA,NA,NA,NA,NA,NA,NA,NA,NA,NA,NA,NA,NA,NA,NA,NA
92873,deep,flow.Sequence,1_0_0,NA,NA,completion,12056.811,12421.100000024,12411.207,12428.106,24484.917,24488.5,2023-07-12T18:04:36Z,24501.682,Fleisch,mshakiki,s,kizunguzungu,mshikamano,angusho,NA,NA,NA,NULL,NA,NA,NA,NA,NA,NA,NA,NA,NA,NA,NA,NA,NA,NA,NA,NA,NA,NA,NA
92873,task,flow.Sequence,1_0,NA,NA,completion,12056.811,12421,12411.207,12428.106,24484.917,24488.800000072,2023-07-12T18:04:36Z,24501.682,Fleisch,mshakiki,s,kizunguzungu,mshikamano,angusho,NA,NA,NA,NULL,NA,NA,NA,NA,NA,NA,NA,NA,NA,NA,NA,NA,NA,NA,NA,NA,NA,NA,NA
92873,Deep Question,html.Page,1_1_0_0,NA,NA,form submission,8276.0180000477,24489,24484.917,24501.682,32777.700000048,32779,2023-07-12T18:04:44Z,32794.739,Stimmung,kinyongo,d,kilekile,kisambo,madhehebu,mikade,NA,NA,NULL,NA,NA,NA,NA,NA,NA,NA,NA,NA,NA,NA,NA,NA,NA,NA,NA,NA,NA,NA
92873,Save data screen,canvas.Screen,1_1_0_1,NA,NA,timeout,499.6,32782,32778.152,32794.739,33277.651,33280.400000095004,2023-07-12T18:04:45Z,33294.339,Stimmung,kinyongo,d,kilekile,kisambo,madhehebu,NA,NA,0,NULL,NA,NA,NA,NA,NA,NA,NA,NA,NA,NA,NA,NA,NA,NA,NA,NA,NA,NA,NA
92873,deep,flow.Sequence,1_1_0,NA,NA,completion,8775.969,24489,24484.917,24501.682,33277.651,33281.100000024,2023-07-12T18:04:45Z,33294.339,Stimmung,kinyongo,d,kilekile,kisambo,madhehebu,NA,NA,NA,NULL,NA,NA,NA,NA,NA,NA,NA,NA,NA,NA,NA,NA,NA,NA,NA,NA,NA,NA,NA
92873,task,flow.Sequence,1_1,NA,NA,completion,8775.969,24488.900000095,24484.917,24501.682,33277.651,33281.600000024,2023-07-12T18:04:45Z,33294.339,Stimmung,kinyongo,d,kilekile,kisambo,madhehebu,NA,NA,NA,NULL,NA,NA,NA,NA,NA,NA,NA,NA,NA,NA,NA,NA,NA,NA,NA,NA,NA,NA,NA
92873,Deep Question,html.Page,1_2_0_0,NA,NA,form submission,6238.5610000954,33282,33277.651,33294.339,39532.900000095004,39533.700000048,2023-07-12T18:04:51Z,39555.802,Orientierung,urekebisho,s,uelekeo,marekebisho,utunzaji,matero,NA,NA,NULL,NA,NA,NA,NA,NA,NA,NA,NA,NA,NA,NA,NA,NA,NA,NA,NA,NA,NA,NA
92873,Save data screen,canvas.Screen,1_2_0_1,NA,NA,timeout,499.75399999999,39535.200000048,39539.178,39555.802,40038.859,40039.800000072,2023-07-12T18:04:52Z,40055.556,Orientierung,urekebisho,s,uelekeo,marekebisho,utunzaji,NA,NA,0,NULL,NA,NA,NA,NA,NA,NA,NA,NA,NA,NA,NA,NA,NA,NA,NA,NA,NA,NA,NA
92873,deep,flow.Sequence,1_2_0,NA,NA,completion,6744.52,33282,33277.651,33294.339,40038.859,40040.200000048,2023-07-12T18:04:52Z,40055.556,Orientierung,urekebisho,s,uelekeo,marekebisho,utunzaji,NA,NA,NA,NULL,NA,NA,NA,NA,NA,NA,NA,NA,NA,NA,NA,NA,NA,NA,NA,NA,NA,NA,NA
92873,task,flow.Sequence,1_2,NA,NA,completion,6744.52,33281.800000072,33277.651,33294.339,40038.859,40040.600000024,2023-07-12T18:04:52Z,40055.556,Orientierung,urekebisho,s,uelekeo,marekebisho,utunzaji,NA,NA,NA,NULL,NA,NA,NA,NA,NA,NA,NA,NA,NA,NA,NA,NA,NA,NA,NA,NA,NA,NA,NA
92873,Deep Question,html.Page,1_3_0_0,NA,NA,form submission,20688.144000048,40040.800000072,40038.859,40055.556,60743.700000048,60744.400000095004,2023-07-12T18:05:12Z,60771.885,Entwicklung,maendeleo,d,uangavu,mshindwa,badiliko,maendeleo,NA,NA,NULL,NA,NA,NA,NA,NA,NA,NA,NA,NA,NA,NA,NA,NA,NA,NA,NA,NA,NA,NA
92873,Save data screen,canvas.Screen,1_3_0_1,NA,NA,timeout,499.426,60745.700000048,60755.221,60771.885,61254.736,61255.700000048,2023-07-12T18:05:13Z,61271.311,Entwicklung,maendeleo,d,uangavu,mshindwa,badiliko,NA,NA,1,NULL,NA,NA,NA,NA,NA,NA,NA,NA,NA,NA,NA,NA,NA,NA,NA,NA,NA,NA,NA
92873,deep,flow.Sequence,1_3_0,NA,NA,completion,21199.18,40040.800000072,40038.859,40055.556,61254.736,61256,2023-07-12T18:05:13Z,61271.311,Entwicklung,maendeleo,d,uangavu,mshindwa,badiliko,NA,NA,NA,NULL,NA,NA,NA,NA,NA,NA,NA,NA,NA,NA,NA,NA,NA,NA,NA,NA,NA,NA,NA
92873,task,flow.Sequence,1_3,NA,NA,completion,21199.18,40040.600000024,40038.859,40055.556,61254.736,61256.200000048,2023-07-12T18:05:13Z,61271.311,Entwicklung,maendeleo,d,uangavu,mshindwa,badiliko,NA,NA,NA,NULL,NA,NA,NA,NA,NA,NA,NA,NA,NA,NA,NA,NA,NA,NA,NA,NA,NA,NA,NA
92873,Deep Question,html.Page,1_4_0_0,NA,NA,form submission,30625.789000024,61256.600000024,61254.736,61271.311,91897.100000024,91897.800000072,2023-07-12T18:05:43Z,91913.199,Respekt,heshima,s,changamnao,upinzani,ufanisi,kahido,NA,NA,NULL,NA,NA,NA,NA,NA,NA,NA,NA,NA,NA,NA,NA,NA,NA,NA,NA,NA,NA,NA
92873,Save data screen,canvas.Screen,1_4_0_1,NA,NA,timeout,499.30600000001,91902.300000072,91896.336,91913.199,92395.894,92396.700000048,2023-07-12T18:05:44Z,92412.505,Respekt,heshima,s,changamnao,upinzani,ufanisi,NA,NA,0,NULL,NA,NA,NA,NA,NA,NA,NA,NA,NA,NA,NA,NA,NA,NA,NA,NA,NA,NA,NA
92873,deep,flow.Sequence,1_4_0,NA,NA,completion,31124.583,61256.400000095004,61254.736,61271.311,92395.894,92396.900000095,2023-07-12T18:05:44Z,92412.505,Respekt,heshima,s,changamnao,upinzani,ufanisi,NA,NA,NA,NULL,NA,NA,NA,NA,NA,NA,NA,NA,NA,NA,NA,NA,NA,NA,NA,NA,NA,NA,NA
92873,task,flow.Sequence,1_4,NA,NA,completion,31124.583,61256.400000095004,61254.736,61271.311,92395.894,92397.200000048,2023-07-12T18:05:44Z,92412.505,Respekt,heshima,s,changamnao,upinzani,ufanisi,NA,NA,NA,NULL,NA,NA,NA,NA,NA,NA,NA,NA,NA,NA,NA,NA,NA,NA,NA,NA,NA,NA,NA
92873,Deep Question,html.Page,1_5_0_0,NA,NA,form submission,22644.195000048,92397.300000072,92395.894,92412.505,115056.70000005,115057.20000005,2023-07-12T18:06:07Z,115077.077,Genehmigung,idhini,d,mwanamke,itikadi,fedheha,idhini,NA,NA,NULL,NA,NA,NA,NA,NA,NA,NA,NA,NA,NA,NA,NA,NA,NA,NA,NA,NA,NA,NA
92873,Save data screen,canvas.Screen,1_5_0_1,NA,NA,timeout,499.55499999999,115060,115060.456,115077.077,115559.982,115560.70000005,2023-07-12T18:06:07Z,115576.632,Genehmigung,idhini,d,mwanamke,itikadi,fedheha,NA,NA,1,NULL,NA,NA,NA,NA,NA,NA,NA,NA,NA,NA,NA,NA,NA,NA,NA,NA,NA,NA,NA
92873,deep,flow.Sequence,1_5_0,NA,NA,completion,23147.477,92397.300000072,92395.894,92412.505,115559.982,115560.9000001,2023-07-12T18:06:07Z,115576.632,Genehmigung,idhini,d,mwanamke,itikadi,fedheha,NA,NA,NA,NULL,NA,NA,NA,NA,NA,NA,NA,NA,NA,NA,NA,NA,NA,NA,NA,NA,NA,NA,NA
92873,task,flow.Sequence,1_5,NA,NA,completion,23147.477,92397.200000048,92395.894,92412.505,115559.982,115561,2023-07-12T18:06:07Z,115576.632,Genehmigung,idhini,d,mwanamke,itikadi,fedheha,NA,NA,NA,NULL,NA,NA,NA,NA,NA,NA,NA,NA,NA,NA,NA,NA,NA,NA,NA,NA,NA,NA,NA
92873,Deep Question,html.Page,1_6_0_0,NA,NA,form submission,18326.168000072,115561.10000002,115559.982,115576.632,133902.80000007,133903.20000005,2023-07-12T18:06:25Z,133928.3,Betrüger,mdanganyifu,d,mwanamuziki,wastani,mahakama,keban,NA,NA,NULL,NA,NA,NA,NA,NA,NA,NA,NA,NA,NA,NA,NA,NA,NA,NA,NA,NA,NA,NA
92873,Save data screen,canvas.Screen,1_6_0_1,NA,NA,timeout,499.55900000001,133907.5,133911.592,133928.3,134411.312,134412.30000007,2023-07-12T18:06:26Z,134427.859,Betrüger,mdanganyifu,d,mwanamuziki,wastani,mahakama,NA,NA,0,NULL,NA,NA,NA,NA,NA,NA,NA,NA,NA,NA,NA,NA,NA,NA,NA,NA,NA,NA,NA
92873,deep,flow.Sequence,1_6_0,NA,NA,completion,18834.68,115561,115559.982,115576.632,134411.312,134412.70000005,2023-07-12T18:06:26Z,134427.859,Betrüger,mdanganyifu,d,mwanamuziki,wastani,mahakama,NA,NA,NA,NULL,NA,NA,NA,NA,NA,NA,NA,NA,NA,NA,NA,NA,NA,NA,NA,NA,NA,NA,NA
92873,task,flow.Sequence,1_6,NA,NA,completion,18834.68,115561,115559.982,115576.632,134411.312,134412.9000001,2023-07-12T18:06:26Z,134427.859,Betrüger,mdanganyifu,d,mwanamuziki,wastani,mahakama,NA,NA,NA,NULL,NA,NA,NA,NA,NA,NA,NA,NA,NA,NA,NA,NA,NA,NA,NA,NA,NA,NA,NA
92873,Deep Question,html.Page,1_7_0_0,NA,NA,form submission,8329.9410000715,134413.20000005,134411.312,134427.859,142757.80000007,142758.20000005,2023-07-12T18:06:34Z,142771.004,Erneuerung,ukarabati,s,ushawishi,ukalifu,unyonyaji,hebami,NA,NA,NULL,NA,NA,NA,NA,NA,NA,NA,NA,NA,NA,NA,NA,NA,NA,NA,NA,NA,NA,NA
92873,Save data screen,canvas.Screen,1_7_0_1,NA,NA,timeout,499.62300000002,142762.20000005,142754.551,142771.004,143253.994,143254.70000005,2023-07-12T18:06:35Z,143270.627,Erneuerung,ukarabati,s,ushawishi,ukalifu,unyonyaji,NA,NA,0,NULL,NA,NA,NA,NA,NA,NA,NA,NA,NA,NA,NA,NA,NA,NA,NA,NA,NA,NA,NA
92873,deep,flow.Sequence,1_7_0,NA,NA,completion,8826.135,134413.20000005,134411.312,134427.859,143253.994,143254.9000001,2023-07-12T18:06:35Z,143270.627,Erneuerung,ukarabati,s,ushawishi,ukalifu,unyonyaji,NA,NA,NA,NULL,NA,NA,NA,NA,NA,NA,NA,NA,NA,NA,NA,NA,NA,NA,NA,NA,NA,NA,NA
92873,task,flow.Sequence,1_7,NA,NA,completion,8826.135,134413.10000002,134411.312,134427.859,143253.994,143255.10000002,2023-07-12T18:06:35Z,143270.627,Erneuerung,ukarabati,s,ushawishi,ukalifu,unyonyaji,NA,NA,NA,NULL,NA,NA,NA,NA,NA,NA,NA,NA,NA,NA,NA,NA,NA,NA,NA,NA,NA,NA,NA
92873,Deep Question,html.Page,1_8_0_0,NA,NA,form submission,20342.073000048,143255.30000007,143253.994,143270.627,163612.70000005,163613.5,2023-07-12T18:06:55Z,163637.202,Niveau,kiwango,s,usimamizi,mwamali,mshairi,khibiti,NA,NA,NULL,NA,NA,NA,NA,NA,NA,NA,NA,NA,NA,NA,NA,NA,NA,NA,NA,NA,NA,NA
92873,Save data screen,canvas.Screen,1_8_0_1,NA,NA,timeout,499.57700000002,163618.9000001,163620.538,163637.202,164120.115,164121.30000007,2023-07-12T18:06:56Z,164136.779,Niveau,kiwango,s,usimamizi,mwamali,mshairi,NA,NA,0,NULL,NA,NA,NA,NA,NA,NA,NA,NA,NA,NA,NA,NA,NA,NA,NA,NA,NA,NA,NA
92873,deep,flow.Sequence,1_8_0,NA,NA,completion,20849.488,143255.30000007,143253.994,143270.627,164120.115,164121.60000002,2023-07-12T18:06:56Z,164136.779,Niveau,kiwango,s,usimamizi,mwamali,mshairi,NA,NA,NA,NULL,NA,NA,NA,NA,NA,NA,NA,NA,NA,NA,NA,NA,NA,NA,NA,NA,NA,NA,NA
92873,task,flow.Sequence,1_8,NA,NA,completion,20849.488,143255.30000007,143253.994,143270.627,164120.115,164121.9000001,2023-07-12T18:06:56Z,164136.779,Niveau,kiwango,s,usimamizi,mwamali,mshairi,NA,NA,NA,NULL,NA,NA,NA,NA,NA,NA,NA,NA,NA,NA,NA,NA,NA,NA,NA,NA,NA,NA,NA
92873,Deep Question,html.Page,1_9_0_0,NA,NA,form submission,10349.321000024,164122.5,164120.115,164136.779,174486.10000002,174486.60000002,2023-07-12T18:07:06Z,174511.586,Flexibilität,kubadilika,d,enjini,usikilivu,hesabu,kebago,NA,NA,NULL,NA,NA,NA,NA,NA,NA,NA,NA,NA,NA,NA,NA,NA,NA,NA,NA,NA,NA,NA
92873,Save data screen,canvas.Screen,1_9_0_1,NA,NA,timeout,499.617,174491.10000002,174494.954,174511.586,174994.63,174995.4000001,2023-07-12T18:07:07Z,175011.203,Flexibilität,kubadilika,d,enjini,usikilivu,hesabu,NA,NA,0,NULL,NA,NA,NA,NA,NA,NA,NA,NA,NA,NA,NA,NA,NA,NA,NA,NA,NA,NA,NA
92873,deep,flow.Sequence,1_9_0,NA,NA,completion,10857.851,164122.20000005,164120.115,164136.779,174994.63,174995.60000002,2023-07-12T18:07:07Z,175011.203,Flexibilität,kubadilika,d,enjini,usikilivu,hesabu,NA,NA,NA,NULL,NA,NA,NA,NA,NA,NA,NA,NA,NA,NA,NA,NA,NA,NA,NA,NA,NA,NA,NA
92873,task,flow.Sequence,1_9,NA,NA,completion,10857.851,164122.10000002,164120.115,164136.779,174994.63,174995.80000007,2023-07-12T18:07:07Z,175011.203,Flexibilität,kubadilika,d,enjini,usikilivu,hesabu,NA,NA,NA,NULL,NA,NA,NA,NA,NA,NA,NA,NA,NA,NA,NA,NA,NA,NA,NA,NA,NA,NA,NA
92873,Deep Question,html.Page,1_10_0_0,NA,NA,form submission,15069.597000072,174995.9000001,174994.63,175011.203,190080.80000007,190081.10000002,2023-07-12T18:07:22Z,190098.961,Atmosphäre,angahewa,d,kuteseka,usahihi,kutoamini,hebamini,NA,NA,NULL,NA,NA,NA,NA,NA,NA,NA,NA,NA,NA,NA,NA,NA,NA,NA,NA,NA,NA,NA
92873,Save data screen,canvas.Screen,1_10_0_1,NA,NA,timeout,499.41899999999,190083.4000001,190082.112,190098.961,190581.758,190582.70000005,2023-07-12T18:07:22Z,190598.38,Atmosphäre,angahewa,d,kuteseka,usahihi,kutoamini,NA,NA,0,NULL,NA,NA,NA,NA,NA,NA,NA,NA,NA,NA,NA,NA,NA,NA,NA,NA,NA,NA,NA
92873,deep,flow.Sequence,1_10_0,NA,NA,completion,15570.555,174995.9000001,174994.63,175011.203,190581.758,190583.10000002,2023-07-12T18:07:22Z,190598.38,Atmosphäre,angahewa,d,kuteseka,usahihi,kutoamini,NA,NA,NA,NULL,NA,NA,NA,NA,NA,NA,NA,NA,NA,NA,NA,NA,NA,NA,NA,NA,NA,NA,NA
92873,task,flow.Sequence,1_10,NA,NA,completion,15570.555,174995.9000001,174994.63,175011.203,190581.758,190583.5,2023-07-12T18:07:22Z,190598.38,Atmosphäre,angahewa,d,kuteseka,usahihi,kutoamini,NA,NA,NA,NULL,NA,NA,NA,NA,NA,NA,NA,NA,NA,NA,NA,NA,NA,NA,NA,NA,NA,NA,NA
92873,Deep Question,html.Page,1_11_0_0,NA,NA,form submission,17675.12,190583.9000001,190581.758,190598.38,208273.5,208274.10000002,2023-07-12T18:07:40Z,208300.697,Integrität,uadilifu,s,muungano,mtiririko,upunguaji,maendolo,NA,NA,NULL,NA,NA,NA,NA,NA,NA,NA,NA,NA,NA,NA,NA,NA,NA,NA,NA,NA,NA,NA
92873,Save data screen,canvas.Screen,1_11_0_1,NA,NA,timeout,499.394,208278.70000005,208283.976,208300.697,208783.483,208784.30000007,2023-07-12T18:07:40Z,208800.091,Integrität,uadilifu,s,muungano,mtiririko,upunguaji,NA,NA,0,NULL,NA,NA,NA,NA,NA,NA,NA,NA,NA,NA,NA,NA,NA,NA,NA,NA,NA,NA,NA
92873,deep,flow.Sequence,1_11_0,NA,NA,completion,18185.103,190583.9000001,190581.758,190598.38,208783.483,208784.60000002,2023-07-12T18:07:40Z,208800.091,Integrität,uadilifu,s,muungano,mtiririko,upunguaji,NA,NA,NA,NULL,NA,NA,NA,NA,NA,NA,NA,NA,NA,NA,NA,NA,NA,NA,NA,NA,NA,NA,NA
92873,task,flow.Sequence,1_11,NA,NA,completion,18185.103,190583.80000007,190581.758,190598.38,208783.483,208784.80000007,2023-07-12T18:07:40Z,208800.091,Integrität,uadilifu,s,muungano,mtiririko,upunguaji,NA,NA,NA,NULL,NA,NA,NA,NA,NA,NA,NA,NA,NA,NA,NA,NA,NA,NA,NA,NA,NA,NA,NA
92873,Deep Question,html.Page,1_12_0_0,NA,NA,form submission,6642.3090000954,208785.10000002,208783.483,208800.091,215442.4000001,215442.80000007,2023-07-12T18:07:47Z,215461.349,Vorwurf,mashtaka,d,msukumo,mtangulizi,uenyekiti,kebahiti,NA,NA,NULL,NA,NA,NA,NA,NA,NA,NA,NA,NA,NA,NA,NA,NA,NA,NA,NA,NA,NA,NA
92873,Save data screen,canvas.Screen,1_12_0_1,NA,NA,timeout,499.59100000001,215447.60000002,215444.646,215461.349,215944.221,215945,2023-07-12T18:07:47Z,215960.94,Vorwurf,mashtaka,d,msukumo,mtangulizi,uenyekiti,NA,NA,0,NULL,NA,NA,NA,NA,NA,NA,NA,NA,NA,NA,NA,NA,NA,NA,NA,NA,NA,NA,NA
92873,deep,flow.Sequence,1_12_0,NA,NA,completion,7144.13,208785.10000002,208783.483,208800.091,215944.221,215945.30000007,2023-07-12T18:07:47Z,215960.94,Vorwurf,mashtaka,d,msukumo,mtangulizi,uenyekiti,NA,NA,NA,NULL,NA,NA,NA,NA,NA,NA,NA,NA,NA,NA,NA,NA,NA,NA,NA,NA,NA,NA,NA
92873,task,flow.Sequence,1_12,NA,NA,completion,7144.13,208785,208783.483,208800.091,215944.221,215945.5,2023-07-12T18:07:47Z,215960.94,Vorwurf,mashtaka,d,msukumo,mtangulizi,uenyekiti,NA,NA,NA,NULL,NA,NA,NA,NA,NA,NA,NA,NA,NA,NA,NA,NA,NA,NA,NA,NA,NA,NA,NA
92873,Deep Question,html.Page,1_13_0_0,NA,NA,form submission,10460.260000048,215945.70000005,215944.221,215960.94,226421.20000005,226421.5,2023-07-12T18:07:58Z,226435.662,Wechsel,ugeuzaji,s,utambulisho,kujenga,wasiwasi,change,NA,NA,NULL,NA,NA,NA,NA,NA,NA,NA,NA,NA,NA,NA,NA,NA,NA,NA,NA,NA,NA,NA
92873,Save data screen,canvas.Screen,1_13_0_1,NA,NA,timeout,499.59,226425,226418.947,226435.662,226918.526,226919.20000005,2023-07-12T18:07:58Z,226935.252,Wechsel,ugeuzaji,s,utambulisho,kujenga,wasiwasi,NA,NA,0,NULL,NA,NA,NA,NA,NA,NA,NA,NA,NA,NA,NA,NA,NA,NA,NA,NA,NA,NA,NA
92873,deep,flow.Sequence,1_13_0,NA,NA,completion,10957.586,215945.60000002,215944.221,215960.94,226918.526,226919.5,2023-07-12T18:07:58Z,226935.252,Wechsel,ugeuzaji,s,utambulisho,kujenga,wasiwasi,NA,NA,NA,NULL,NA,NA,NA,NA,NA,NA,NA,NA,NA,NA,NA,NA,NA,NA,NA,NA,NA,NA,NA
92873,task,flow.Sequence,1_13,NA,NA,completion,10957.586,215945.60000002,215944.221,215960.94,226918.526,226919.60000002,2023-07-12T18:07:58Z,226935.252,Wechsel,ugeuzaji,s,utambulisho,kujenga,wasiwasi,NA,NA,NA,NULL,NA,NA,NA,NA,NA,NA,NA,NA,NA,NA,NA,NA,NA,NA,NA,NA,NA,NA,NA
92873,Deep Question,html.Page,1_14_0_0,NA,NA,form submission,16649.948000048,226919.80000007,226918.526,226935.252,243585.20000005,243585.70000005,2023-07-12T18:08:15Z,243604.937,Papier,karatasi,s,uchambuzi,usalama,kukataliwa,mandele,NA,NA,NULL,NA,NA,NA,NA,NA,NA,NA,NA,NA,NA,NA,NA,NA,NA,NA,NA,NA,NA,NA
92873,Save data screen,canvas.Screen,1_14_0_1,NA,NA,timeout,499.47699999998,243591.5,243588.161,243604.937,244087.895,244088.70000005,2023-07-12T18:08:16Z,244104.414,Papier,karatasi,s,uchambuzi,usalama,kukataliwa,NA,NA,0,NULL,NA,NA,NA,NA,NA,NA,NA,NA,NA,NA,NA,NA,NA,NA,NA,NA,NA,NA,NA
92873,deep,flow.Sequence,1_14_0,NA,NA,completion,17152.643,226919.70000005,226918.526,226935.252,244087.895,244089.10000002,2023-07-12T18:08:16Z,244104.414,Papier,karatasi,s,uchambuzi,usalama,kukataliwa,NA,NA,NA,NULL,NA,NA,NA,NA,NA,NA,NA,NA,NA,NA,NA,NA,NA,NA,NA,NA,NA,NA,NA
92873,task,flow.Sequence,1_14,NA,NA,completion,17152.643,226919.70000005,226918.526,226935.252,244087.895,244089.20000005,2023-07-12T18:08:16Z,244104.414,Papier,karatasi,s,uchambuzi,usalama,kukataliwa,NA,NA,NA,NULL,NA,NA,NA,NA,NA,NA,NA,NA,NA,NA,NA,NA,NA,NA,NA,NA,NA,NA,NA
92873,Deep Question,html.Page,1_15_0_0,NA,NA,form submission,6097.6860000239,244089.5,244087.895,244104.414,250202.10000002,250202.60000002,2023-07-12T18:08:22Z,250216.361,Begegnung,kukutana,d,mmasihiya,mpiganaji,husiano,hibito,NA,NA,NULL,NA,NA,NA,NA,NA,NA,NA,NA,NA,NA,NA,NA,NA,NA,NA,NA,NA,NA,NA
92873,Save data screen,canvas.Screen,1_15_0_1,NA,NA,timeout,499.29999999999,250206.5,250199.427,250216.361,250699.061,250699.70000005,2023-07-12T18:08:22Z,250715.661,Begegnung,kukutana,d,mmasihiya,mpiganaji,husiano,NA,NA,0,NULL,NA,NA,NA,NA,NA,NA,NA,NA,NA,NA,NA,NA,NA,NA,NA,NA,NA,NA,NA
92873,deep,flow.Sequence,1_15_0,NA,NA,completion,6594.647,244089.5,244087.895,244104.414,250699.061,250700,2023-07-12T18:08:22Z,250715.661,Begegnung,kukutana,d,mmasihiya,mpiganaji,husiano,NA,NA,NA,NULL,NA,NA,NA,NA,NA,NA,NA,NA,NA,NA,NA,NA,NA,NA,NA,NA,NA,NA,NA
92873,task,flow.Sequence,1_15,NA,NA,completion,6594.647,244089.4000001,244087.895,244104.414,250699.061,250700.4000001,2023-07-12T18:08:22Z,250715.661,Begegnung,kukutana,d,mmasihiya,mpiganaji,husiano,NA,NA,NA,NULL,NA,NA,NA,NA,NA,NA,NA,NA,NA,NA,NA,NA,NA,NA,NA,NA,NA,NA,NA
92873,retrieval block 1 (cued recall),flow.Loop,1,NA,NA,completion,238270.955,12421,12411.207,12428.106,250699.061,250700.60000002,2023-07-12T18:08:22Z,250715.661,NA,NA,NA,NA,NA,NA,NA,NA,NA,NULL,NA,NA,NA,NA,NA,NA,NA,NA,NA,NA,NA,NA,NA,NA,NA,NA,NA,NA,NA
92873,Shallow Question,html.Page,2_0_0_0,NA,NA,form submission,9558.0390000477,250701.10000002,250699.061,250715.661,260273.70000005,260274.10000002,2023-07-12T18:08:32Z,260291.182,Fleisch,mshakiki,s,kizunguzungu,mshikamano,angusho,mshakiki,NA,NA,"c(""distractor1"", ""distractor2"", ""distractor3"")",NA,NA,NA,NA,NA,NA,NA,NA,NA,NA,NA,NA,NA,NA,NA,NA,NA,NA,NA
92873,Save data screen,canvas.Screen,2_0_0_1,NA,NA,timeout,499.62599999999,260278.60000002,260274.479,260291.182,260774.084,260775,2023-07-12T18:08:32Z,260790.808,Fleisch,mshakiki,s,kizunguzungu,mshikamano,angusho,NA,NA,1,"c(""distractor1"", ""distractor2"", ""distractor3"")",NA,NA,NA,NA,NA,NA,NA,NA,NA,NA,NA,NA,NA,NA,NA,NA,NA,NA,NA
92873,shallow,flow.Sequence,2_0_0,NA,NA,completion,10058.423,250701,250699.061,250715.661,260774.084,260775.4000001,2023-07-12T18:08:32Z,260790.808,Fleisch,mshakiki,s,kizunguzungu,mshikamano,angusho,NA,NA,NA,"c(""distractor1"", ""distractor2"", ""distractor3"")",NA,NA,NA,NA,NA,NA,NA,NA,NA,NA,NA,NA,NA,NA,NA,NA,NA,NA,NA
92873,task,flow.Sequence,2_0,NA,NA,completion,10058.423,250700.9000001,250699.061,250715.661,260774.084,260775.80000007,2023-07-12T18:08:32Z,260790.808,Fleisch,mshakiki,s,kizunguzungu,mshikamano,angusho,NA,NA,NA,"c(""distractor1"", ""distractor2"", ""distractor3"")",NA,NA,NA,NA,NA,NA,NA,NA,NA,NA,NA,NA,NA,NA,NA,NA,NA,NA,NA
92873,Shallow Question,html.Page,2_1_0_0,NA,NA,form submission,10531.292000024,260776.10000002,260774.084,260790.808,271322.10000002,271322.60000002,2023-07-12T18:08:43Z,271348.791,Vorwurf,mashtaka,d,msukumo,mtangulizi,uenyekiti,mashtaka,NA,NA,"c(""distractor1"", ""distractor2"", ""distractor3"")",NA,NA,NA,NA,NA,NA,NA,NA,NA,NA,NA,NA,NA,NA,NA,NA,NA,NA,NA
92873,Save data screen,canvas.Screen,2_1_0_1,NA,NA,timeout,499.61699999997,271326.4000001,271332.177,271348.791,271831.788,271832.5,2023-07-12T18:08:43Z,271848.408,Vorwurf,mashtaka,d,msukumo,mtangulizi,uenyekiti,NA,NA,1,"c(""distractor1"", ""distractor2"", ""distractor3"")",NA,NA,NA,NA,NA,NA,NA,NA,NA,NA,NA,NA,NA,NA,NA,NA,NA,NA,NA
92873,shallow,flow.Sequence,2_1_0,NA,NA,completion,11040.98,260776.10000002,260774.084,260790.808,271831.788,271832.80000007,2023-07-12T18:08:43Z,271848.408,Vorwurf,mashtaka,d,msukumo,mtangulizi,uenyekiti,NA,NA,NA,"c(""distractor1"", ""distractor2"", ""distractor3"")",NA,NA,NA,NA,NA,NA,NA,NA,NA,NA,NA,NA,NA,NA,NA,NA,NA,NA,NA
92873,task,flow.Sequence,2_1,NA,NA,completion,11040.98,260776,260774.084,260790.808,271831.788,271833,2023-07-12T18:08:43Z,271848.408,Vorwurf,mashtaka,d,msukumo,mtangulizi,uenyekiti,NA,NA,NA,"c(""distractor1"", ""distractor2"", ""distractor3"")",NA,NA,NA,NA,NA,NA,NA,NA,NA,NA,NA,NA,NA,NA,NA,NA,NA,NA,NA
92873,Shallow Question,html.Page,2_2_0_0,NA,NA,form submission,9445.7920000477,271833.20000005,271831.788,271848.408,281294.20000005,281294.60000002,2023-07-12T18:08:53Z,281307.538,Orientierung,urekebisho,s,uelekeo,marekebisho,utunzaji,utunzaji,NA,NA,"c(""distractor1"", ""distractor2"", ""distractor3"")",NA,NA,NA,NA,NA,NA,NA,NA,NA,NA,NA,NA,NA,NA,NA,NA,NA,NA,NA
92873,Save data screen,canvas.Screen,2_2_0_1,NA,NA,timeout,499.36700000003,281298.70000005,281290.573,281307.538,281790.229,281791.20000005,2023-07-12T18:08:53Z,281806.905,Orientierung,urekebisho,s,uelekeo,marekebisho,utunzaji,NA,NA,0,"c(""distractor1"", ""distractor2"", ""distractor3"")",NA,NA,NA,NA,NA,NA,NA,NA,NA,NA,NA,NA,NA,NA,NA,NA,NA,NA,NA
92873,shallow,flow.Sequence,2_2_0,NA,NA,completion,9941.821,271833.20000005,271831.788,271848.408,281790.229,281791.70000005,2023-07-12T18:08:53Z,281806.905,Orientierung,urekebisho,s,uelekeo,marekebisho,utunzaji,NA,NA,NA,"c(""distractor1"", ""distractor2"", ""distractor3"")",NA,NA,NA,NA,NA,NA,NA,NA,NA,NA,NA,NA,NA,NA,NA,NA,NA,NA,NA
92873,task,flow.Sequence,2_2,NA,NA,completion,9941.821,271833.10000002,271831.788,271848.408,281790.229,281791.9000001,2023-07-12T18:08:53Z,281806.905,Orientierung,urekebisho,s,uelekeo,marekebisho,utunzaji,NA,NA,NA,"c(""distractor1"", ""distractor2"", ""distractor3"")",NA,NA,NA,NA,NA,NA,NA,NA,NA,NA,NA,NA,NA,NA,NA,NA,NA,NA,NA
92873,Shallow Question,html.Page,2_3_0_0,NA,NA,form submission,6529.4950000953,281792.20000005,281790.229,281806.905,288336.4000001,288336.9000001,2023-07-12T18:09:00Z,288351.514,Respekt,heshima,s,changamnao,upinzani,ufanisi,heshima,NA,NA,"c(""distractor1"", ""distractor2"", ""distractor3"")",NA,NA,NA,NA,NA,NA,NA,NA,NA,NA,NA,NA,NA,NA,NA,NA,NA,NA,NA
92873,Save data screen,canvas.Screen,2_3_0_1,NA,NA,timeout,499.47999999998,288340.20000005,288334.797,288351.514,288834.419,288835.20000005,2023-07-12T18:09:00Z,288850.994,Respekt,heshima,s,changamnao,upinzani,ufanisi,NA,NA,1,"c(""distractor1"", ""distractor2"", ""distractor3"")",NA,NA,NA,NA,NA,NA,NA,NA,NA,NA,NA,NA,NA,NA,NA,NA,NA,NA,NA
92873,shallow,flow.Sequence,2_3_0,NA,NA,completion,7027.514,281792.10000002,281790.229,281806.905,288834.419,288835.5,2023-07-12T18:09:00Z,288850.994,Respekt,heshima,s,changamnao,upinzani,ufanisi,NA,NA,NA,"c(""distractor1"", ""distractor2"", ""distractor3"")",NA,NA,NA,NA,NA,NA,NA,NA,NA,NA,NA,NA,NA,NA,NA,NA,NA,NA,NA
92873,task,flow.Sequence,2_3,NA,NA,completion,7027.514,281792.10000002,281790.229,281806.905,288834.419,288835.70000005,2023-07-12T18:09:00Z,288850.994,Respekt,heshima,s,changamnao,upinzani,ufanisi,NA,NA,NA,"c(""distractor1"", ""distractor2"", ""distractor3"")",NA,NA,NA,NA,NA,NA,NA,NA,NA,NA,NA,NA,NA,NA,NA,NA,NA,NA,NA
92873,Shallow Question,html.Page,2_4_0_0,NA,NA,form submission,11968.706000048,288835.9000001,288834.419,288850.994,300819.70000005,300820.10000002,2023-07-12T18:09:12Z,300841.142,Erneuerung,ukarabati,s,ushawishi,ukalifu,unyonyaji,ukalifu,NA,NA,"c(""distractor1"", ""distractor2"", ""distractor3"")",NA,NA,NA,NA,NA,NA,NA,NA,NA,NA,NA,NA,NA,NA,NA,NA,NA,NA,NA
92873,Save data screen,canvas.Screen,2_4_0_1,NA,NA,timeout,499.89900000003,300824.30000007,300824.49,300841.142,301324.116,301325.10000002,2023-07-12T18:09:13Z,301341.041,Erneuerung,ukarabati,s,ushawishi,ukalifu,unyonyaji,NA,NA,0,"c(""distractor1"", ""distractor2"", ""distractor3"")",NA,NA,NA,NA,NA,NA,NA,NA,NA,NA,NA,NA,NA,NA,NA,NA,NA,NA,NA
92873,shallow,flow.Sequence,2_4_0,NA,NA,completion,12473.122,288835.80000007,288834.419,288850.994,301324.116,301325.4000001,2023-07-12T18:09:13Z,301341.041,Erneuerung,ukarabati,s,ushawishi,ukalifu,unyonyaji,NA,NA,NA,"c(""distractor1"", ""distractor2"", ""distractor3"")",NA,NA,NA,NA,NA,NA,NA,NA,NA,NA,NA,NA,NA,NA,NA,NA,NA,NA,NA
92873,task,flow.Sequence,2_4,NA,NA,completion,12473.122,288835.70000005,288834.419,288850.994,301324.116,301325.70000005,2023-07-12T18:09:13Z,301341.041,Erneuerung,ukarabati,s,ushawishi,ukalifu,unyonyaji,NA,NA,NA,"c(""distractor1"", ""distractor2"", ""distractor3"")",NA,NA,NA,NA,NA,NA,NA,NA,NA,NA,NA,NA,NA,NA,NA,NA,NA,NA,NA
92873,Shallow Question,html.Page,2_5_0_0,NA,NA,form submission,6090.8590000953,301326,301324.116,301341.041,307431.9000001,307432.30000007,2023-07-12T18:09:19Z,307452.406,Wechsel,ugeuzaji,s,utambulisho,kujenga,wasiwasi,ugeuzaji,NA,NA,"c(""distractor1"", ""distractor2"", ""distractor3"")",NA,NA,NA,NA,NA,NA,NA,NA,NA,NA,NA,NA,NA,NA,NA,NA,NA,NA,NA
92873,Save data screen,canvas.Screen,2_5_0_1,NA,NA,timeout,499.55900000001,307435.60000002,307435.718,307452.406,307935.402,307936.4000001,2023-07-12T18:09:19Z,307951.965,Wechsel,ugeuzaji,s,utambulisho,kujenga,wasiwasi,NA,NA,1,"c(""distractor1"", ""distractor2"", ""distractor3"")",NA,NA,NA,NA,NA,NA,NA,NA,NA,NA,NA,NA,NA,NA,NA,NA,NA,NA,NA
92873,shallow,flow.Sequence,2_5_0,NA,NA,completion,6594.361,301325.9000001,301324.116,301341.041,307935.402,307936.80000007,2023-07-12T18:09:19Z,307951.965,Wechsel,ugeuzaji,s,utambulisho,kujenga,wasiwasi,NA,NA,NA,"c(""distractor1"", ""distractor2"", ""distractor3"")",NA,NA,NA,NA,NA,NA,NA,NA,NA,NA,NA,NA,NA,NA,NA,NA,NA,NA,NA
92873,task,flow.Sequence,2_5,NA,NA,completion,6594.361,301325.80000007,301324.116,301341.041,307935.402,307937.10000002,2023-07-12T18:09:19Z,307951.965,Wechsel,ugeuzaji,s,utambulisho,kujenga,wasiwasi,NA,NA,NA,"c(""distractor1"", ""distractor2"", ""distractor3"")",NA,NA,NA,NA,NA,NA,NA,NA,NA,NA,NA,NA,NA,NA,NA,NA,NA,NA,NA
92873,Shallow Question,html.Page,2_6_0_0,NA,NA,form submission,6053.1350000238,307937.20000005,307935.402,307951.965,314005.10000002,314005.60000002,2023-07-12T18:09:26Z,314030.378,Genehmigung,idhini,d,mwanamke,itikadi,fedheha,idhini,NA,NA,"c(""distractor1"", ""distractor2"", ""distractor3"")",NA,NA,NA,NA,NA,NA,NA,NA,NA,NA,NA,NA,NA,NA,NA,NA,NA,NA,NA
92873,Save data screen,canvas.Screen,2_6_0_1,NA,NA,timeout,499.53699999995,314009.30000007,314013.776,314030.378,314513.316,314514.30000007,2023-07-12T18:09:26Z,314529.915,Genehmigung,idhini,d,mwanamke,itikadi,fedheha,NA,NA,1,"c(""distractor1"", ""distractor2"", ""distractor3"")",NA,NA,NA,NA,NA,NA,NA,NA,NA,NA,NA,NA,NA,NA,NA,NA,NA,NA,NA
92873,shallow,flow.Sequence,2_6_0,NA,NA,completion,6561.351,307937.20000005,307935.402,307951.965,314513.316,314514.60000002,2023-07-12T18:09:26Z,314529.915,Genehmigung,idhini,d,mwanamke,itikadi,fedheha,NA,NA,NA,"c(""distractor1"", ""distractor2"", ""distractor3"")",NA,NA,NA,NA,NA,NA,NA,NA,NA,NA,NA,NA,NA,NA,NA,NA,NA,NA,NA
92873,task,flow.Sequence,2_6,NA,NA,completion,6561.351,307937.20000005,307935.402,307951.965,314513.316,314514.9000001,2023-07-12T18:09:26Z,314529.915,Genehmigung,idhini,d,mwanamke,itikadi,fedheha,NA,NA,NA,"c(""distractor1"", ""distractor2"", ""distractor3"")",NA,NA,NA,NA,NA,NA,NA,NA,NA,NA,NA,NA,NA,NA,NA,NA,NA,NA,NA
92873,Shallow Question,html.Page,2_7_0_0,NA,NA,form submission,15631.885000072,314515.10000002,314513.316,314529.915,330161.80000007,330162.30000007,2023-07-12T18:09:42Z,330183.894,Niveau,kiwango,s,usimamizi,mwamali,mshairi,usimamizi,NA,NA,"c(""distractor1"", ""distractor2"", ""distractor3"")",NA,NA,NA,NA,NA,NA,NA,NA,NA,NA,NA,NA,NA,NA,NA,NA,NA,NA,NA
92873,Save data screen,canvas.Screen,2_7_0_1,NA,NA,timeout,499.52400000003,330165.80000007,330167.152,330183.894,330666.703,330667.60000002,2023-07-12T18:09:42Z,330683.418,Niveau,kiwango,s,usimamizi,mwamali,mshairi,NA,NA,0,"c(""distractor1"", ""distractor2"", ""distractor3"")",NA,NA,NA,NA,NA,NA,NA,NA,NA,NA,NA,NA,NA,NA,NA,NA,NA,NA,NA
92873,shallow,flow.Sequence,2_7_0,NA,NA,completion,16136.788,314515.10000002,314513.316,314529.915,330666.703,330668,2023-07-12T18:09:42Z,330683.418,Niveau,kiwango,s,usimamizi,mwamali,mshairi,NA,NA,NA,"c(""distractor1"", ""distractor2"", ""distractor3"")",NA,NA,NA,NA,NA,NA,NA,NA,NA,NA,NA,NA,NA,NA,NA,NA,NA,NA,NA
92873,task,flow.Sequence,2_7,NA,NA,completion,16136.788,314515,314513.316,314529.915,330666.703,330668.20000005,2023-07-12T18:09:42Z,330683.418,Niveau,kiwango,s,usimamizi,mwamali,mshairi,NA,NA,NA,"c(""distractor1"", ""distractor2"", ""distractor3"")",NA,NA,NA,NA,NA,NA,NA,NA,NA,NA,NA,NA,NA,NA,NA,NA,NA,NA,NA
92873,Shallow Question,html.Page,2_8_0_0,NA,NA,form submission,6394.082,330668.5,330666.703,330683.418,337077.5,337077.9000001,2023-07-12T18:09:49Z,337094.778,Stimmung,kinyongo,d,kilekile,kisambo,madhehebu,kinyongo,NA,NA,"c(""distractor1"", ""distractor2"", ""distractor3"")",NA,NA,NA,NA,NA,NA,NA,NA,NA,NA,NA,NA,NA,NA,NA,NA,NA,NA,NA
92873,Save data screen,canvas.Screen,2_8_0_1,NA,NA,timeout,499.48200000002,337081.9000001,337078.03,337094.778,337577.625,337578.70000005,2023-07-12T18:09:49Z,337594.26,Stimmung,kinyongo,d,kilekile,kisambo,madhehebu,NA,NA,1,"c(""distractor1"", ""distractor2"", ""distractor3"")",NA,NA,NA,NA,NA,NA,NA,NA,NA,NA,NA,NA,NA,NA,NA,NA,NA,NA,NA
92873,shallow,flow.Sequence,2_8_0,NA,NA,completion,6894.207,330668.4000001,330666.703,330683.418,337577.625,337579.10000002,2023-07-12T18:09:49Z,337594.26,Stimmung,kinyongo,d,kilekile,kisambo,madhehebu,NA,NA,NA,"c(""distractor1"", ""distractor2"", ""distractor3"")",NA,NA,NA,NA,NA,NA,NA,NA,NA,NA,NA,NA,NA,NA,NA,NA,NA,NA,NA
92873,task,flow.Sequence,2_8,NA,NA,completion,6894.207,330668.30000007,330666.703,330683.418,337577.625,337579.30000007,2023-07-12T18:09:49Z,337594.26,Stimmung,kinyongo,d,kilekile,kisambo,madhehebu,NA,NA,NA,"c(""distractor1"", ""distractor2"", ""distractor3"")",NA,NA,NA,NA,NA,NA,NA,NA,NA,NA,NA,NA,NA,NA,NA,NA,NA,NA,NA
92873,Shallow Question,html.Page,2_9_0_0,NA,NA,form submission,12704.040000072,337579.60000002,337577.625,337594.26,350298.30000007,350298.80000007,2023-07-12T18:10:02Z,350317.173,Betrüger,mdanganyifu,d,mwanamuziki,wastani,mahakama,mdanganyifu,NA,NA,"c(""distractor1"", ""distractor2"", ""distractor3"")",NA,NA,NA,NA,NA,NA,NA,NA,NA,NA,NA,NA,NA,NA,NA,NA,NA,NA,NA
92873,Save data screen,canvas.Screen,2_9_0_1,NA,NA,timeout,499.56,350303.4000001,350300.525,350317.173,350800.058,350801.10000002,2023-07-12T18:10:02Z,350816.733,Betrüger,mdanganyifu,d,mwanamuziki,wastani,mahakama,NA,NA,1,"c(""distractor1"", ""distractor2"", ""distractor3"")",NA,NA,NA,NA,NA,NA,NA,NA,NA,NA,NA,NA,NA,NA,NA,NA,NA,NA,NA
92873,shallow,flow.Sequence,2_9_0,NA,NA,completion,13205.798,337579.60000002,337577.625,337594.26,350800.058,350802,2023-07-12T18:10:02Z,350816.733,Betrüger,mdanganyifu,d,mwanamuziki,wastani,mahakama,NA,NA,NA,"c(""distractor1"", ""distractor2"", ""distractor3"")",NA,NA,NA,NA,NA,NA,NA,NA,NA,NA,NA,NA,NA,NA,NA,NA,NA,NA,NA
92873,task,flow.Sequence,2_9,NA,NA,completion,13205.798,337579.5,337577.625,337594.26,350800.058,350802.5,2023-07-12T18:10:02Z,350816.733,Betrüger,mdanganyifu,d,mwanamuziki,wastani,mahakama,NA,NA,NA,"c(""distractor1"", ""distractor2"", ""distractor3"")",NA,NA,NA,NA,NA,NA,NA,NA,NA,NA,NA,NA,NA,NA,NA,NA,NA,NA,NA
92873,Shallow Question,html.Page,2_10_0_0,NA,NA,form submission,5923.767,350802.80000007,350800.058,350816.733,356740.5,356740.80000007,2023-07-12T18:10:08Z,356761.945,Integrität,uadilifu,s,muungano,mtiririko,upunguaji,uadilifu,NA,NA,"c(""distractor1"", ""distractor2"", ""distractor3"")",NA,NA,NA,NA,NA,NA,NA,NA,NA,NA,NA,NA,NA,NA,NA,NA,NA,NA,NA
92873,Save data screen,canvas.Screen,2_10_0_1,NA,NA,timeout,499.46600000001,356744,356745.208,356761.945,357244.779,357245.80000007,2023-07-12T18:10:09Z,357261.411,Integrität,uadilifu,s,muungano,mtiririko,upunguaji,NA,NA,1,"c(""distractor1"", ""distractor2"", ""distractor3"")",NA,NA,NA,NA,NA,NA,NA,NA,NA,NA,NA,NA,NA,NA,NA,NA,NA,NA,NA
92873,shallow,flow.Sequence,2_10_0,NA,NA,completion,6428.046,350802.80000007,350800.058,350816.733,357244.779,357246.60000002,2023-07-12T18:10:09Z,357261.411,Integrität,uadilifu,s,muungano,mtiririko,upunguaji,NA,NA,NA,"c(""distractor1"", ""distractor2"", ""distractor3"")",NA,NA,NA,NA,NA,NA,NA,NA,NA,NA,NA,NA,NA,NA,NA,NA,NA,NA,NA
92873,task,flow.Sequence,2_10,NA,NA,completion,6428.046,350802.70000005,350800.058,350816.733,357244.779,357247.30000007,2023-07-12T18:10:09Z,357261.411,Integrität,uadilifu,s,muungano,mtiririko,upunguaji,NA,NA,NA,"c(""distractor1"", ""distractor2"", ""distractor3"")",NA,NA,NA,NA,NA,NA,NA,NA,NA,NA,NA,NA,NA,NA,NA,NA,NA,NA,NA
92873,Shallow Question,html.Page,2_11_0_0,NA,NA,form submission,11301.089,357247.70000005,357244.779,357261.411,368562.5,368562.70000005,2023-07-12T18:10:20Z,368585.582,Papier,karatasi,s,uchambuzi,usalama,kukataliwa,karatasi,NA,NA,"c(""distractor1"", ""distractor2"", ""distractor3"")",NA,NA,NA,NA,NA,NA,NA,NA,NA,NA,NA,NA,NA,NA,NA,NA,NA,NA,NA
92873,Save data screen,canvas.Screen,2_11_0_1,NA,NA,timeout,499.53500000003,368566.20000005,368568.819,368585.582,369068.508,369069.30000007,2023-07-12T18:10:21Z,369085.117,Papier,karatasi,s,uchambuzi,usalama,kukataliwa,NA,NA,1,"c(""distractor1"", ""distractor2"", ""distractor3"")",NA,NA,NA,NA,NA,NA,NA,NA,NA,NA,NA,NA,NA,NA,NA,NA,NA,NA,NA
92873,shallow,flow.Sequence,2_11_0,NA,NA,completion,11807.097,357247.60000002,357244.779,357261.411,369068.508,369069.80000007,2023-07-12T18:10:21Z,369085.117,Papier,karatasi,s,uchambuzi,usalama,kukataliwa,NA,NA,NA,"c(""distractor1"", ""distractor2"", ""distractor3"")",NA,NA,NA,NA,NA,NA,NA,NA,NA,NA,NA,NA,NA,NA,NA,NA,NA,NA,NA
92873,task,flow.Sequence,2_11,NA,NA,completion,11807.097,357247.60000002,357244.779,357261.411,369068.508,369070.4000001,2023-07-12T18:10:21Z,369085.117,Papier,karatasi,s,uchambuzi,usalama,kukataliwa,NA,NA,NA,"c(""distractor1"", ""distractor2"", ""distractor3"")",NA,NA,NA,NA,NA,NA,NA,NA,NA,NA,NA,NA,NA,NA,NA,NA,NA,NA,NA
92873,Shallow Question,html.Page,2_12_0_0,NA,NA,form submission,9549.383,369070.70000005,369068.508,369085.117,378634.5,378634.9000001,2023-07-12T18:10:30Z,378660.635,Flexibilität,kubadilika,d,enjini,usikilivu,hesabu,hesabu,NA,NA,"c(""distractor1"", ""distractor2"", ""distractor3"")",NA,NA,NA,NA,NA,NA,NA,NA,NA,NA,NA,NA,NA,NA,NA,NA,NA,NA,NA
92873,Save data screen,canvas.Screen,2_12_0_1,NA,NA,timeout,499.53100000002,378638.60000002,378643.892,378660.635,379143.574,379144.60000002,2023-07-12T18:10:31Z,379160.166,Flexibilität,kubadilika,d,enjini,usikilivu,hesabu,NA,NA,0,"c(""distractor1"", ""distractor2"", ""distractor3"")",NA,NA,NA,NA,NA,NA,NA,NA,NA,NA,NA,NA,NA,NA,NA,NA,NA,NA,NA
92873,shallow,flow.Sequence,2_12_0,NA,NA,completion,10058.457,369070.70000005,369068.508,369085.117,379143.574,379144.9000001,2023-07-12T18:10:31Z,379160.166,Flexibilität,kubadilika,d,enjini,usikilivu,hesabu,NA,NA,NA,"c(""distractor1"", ""distractor2"", ""distractor3"")",NA,NA,NA,NA,NA,NA,NA,NA,NA,NA,NA,NA,NA,NA,NA,NA,NA,NA,NA
92873,task,flow.Sequence,2_12,NA,NA,completion,10058.457,369070.60000002,369068.508,369085.117,379143.574,379145.10000002,2023-07-12T18:10:31Z,379160.166,Flexibilität,kubadilika,d,enjini,usikilivu,hesabu,NA,NA,NA,"c(""distractor1"", ""distractor2"", ""distractor3"")",NA,NA,NA,NA,NA,NA,NA,NA,NA,NA,NA,NA,NA,NA,NA,NA,NA,NA,NA
92873,Shallow Question,html.Page,2_13_0_0,NA,NA,form submission,6942.4340000238,379145.4000001,379143.574,379160.166,386102.60000002,386103,2023-07-12T18:10:38Z,386121.126,Begegnung,kukutana,d,mmasihiya,mpiganaji,husiano,kukutana,NA,NA,"c(""distractor1"", ""distractor2"", ""distractor3"")",NA,NA,NA,NA,NA,NA,NA,NA,NA,NA,NA,NA,NA,NA,NA,NA,NA,NA,NA
92873,Save data screen,canvas.Screen,2_13_0_1,NA,NA,timeout,499.636,386108,386104.496,386121.126,386604.293,386605.10000002,2023-07-12T18:10:38Z,386620.762,Begegnung,kukutana,d,mmasihiya,mpiganaji,husiano,NA,NA,1,"c(""distractor1"", ""distractor2"", ""distractor3"")",NA,NA,NA,NA,NA,NA,NA,NA,NA,NA,NA,NA,NA,NA,NA,NA,NA,NA,NA
92873,shallow,flow.Sequence,2_13_0,NA,NA,completion,7444.127,379145.4000001,379143.574,379160.166,386604.293,386605.60000002,2023-07-12T18:10:38Z,386620.762,Begegnung,kukutana,d,mmasihiya,mpiganaji,husiano,NA,NA,NA,"c(""distractor1"", ""distractor2"", ""distractor3"")",NA,NA,NA,NA,NA,NA,NA,NA,NA,NA,NA,NA,NA,NA,NA,NA,NA,NA,NA
92873,task,flow.Sequence,2_13,NA,NA,completion,7444.127,379145.20000005,379143.574,379160.166,386604.293,386605.80000007,2023-07-12T18:10:38Z,386620.762,Begegnung,kukutana,d,mmasihiya,mpiganaji,husiano,NA,NA,NA,"c(""distractor1"", ""distractor2"", ""distractor3"")",NA,NA,NA,NA,NA,NA,NA,NA,NA,NA,NA,NA,NA,NA,NA,NA,NA,NA,NA
92873,Shallow Question,html.Page,2_14_0_0,NA,NA,form submission,24865.338000024,386606.10000002,386604.293,386620.762,411486.10000002,411486.5,2023-07-12T18:11:03Z,411500.368,Atmosphäre,angahewa,d,kuteseka,usahihi,kutoamini,angahewa,NA,NA,"c(""distractor1"", ""distractor2"", ""distractor3"")",NA,NA,NA,NA,NA,NA,NA,NA,NA,NA,NA,NA,NA,NA,NA,NA,NA,NA,NA
92873,Save data screen,canvas.Screen,2_14_0_1,NA,NA,timeout,499.56599999999,411490.20000005,411483.748,411500.368,411983.226,411984.10000002,2023-07-12T18:11:04Z,411999.934,Atmosphäre,angahewa,d,kuteseka,usahihi,kutoamini,NA,NA,1,"c(""distractor1"", ""distractor2"", ""distractor3"")",NA,NA,NA,NA,NA,NA,NA,NA,NA,NA,NA,NA,NA,NA,NA,NA,NA,NA,NA
92873,shallow,flow.Sequence,2_14_0,NA,NA,completion,25362.464,386606,386604.293,386620.762,411983.226,411984.5,2023-07-12T18:11:04Z,411999.934,Atmosphäre,angahewa,d,kuteseka,usahihi,kutoamini,NA,NA,NA,"c(""distractor1"", ""distractor2"", ""distractor3"")",NA,NA,NA,NA,NA,NA,NA,NA,NA,NA,NA,NA,NA,NA,NA,NA,NA,NA,NA
92873,task,flow.Sequence,2_14,NA,NA,completion,25362.464,386606,386604.293,386620.762,411983.226,411984.70000005,2023-07-12T18:11:04Z,411999.934,Atmosphäre,angahewa,d,kuteseka,usahihi,kutoamini,NA,NA,NA,"c(""distractor1"", ""distractor2"", ""distractor3"")",NA,NA,NA,NA,NA,NA,NA,NA,NA,NA,NA,NA,NA,NA,NA,NA,NA,NA,NA
92873,Shallow Question,html.Page,2_15_0_0,NA,NA,form submission,7679.1660000238,411985,411983.226,411999.934,419679.10000002,419679.4000001,2023-07-12T18:11:11Z,419693.857,Entwicklung,maendeleo,d,uangavu,mshindwa,badiliko,maendeleo,NA,NA,"c(""distractor1"", ""distractor2"", ""distractor3"")",NA,NA,NA,NA,NA,NA,NA,NA,NA,NA,NA,NA,NA,NA,NA,NA,NA,NA,NA
92873,Save data screen,canvas.Screen,2_15_0_1,NA,NA,timeout,499.29499999998,419681.9000001,419676.96,419693.857,420176.439,420177.20000005,2023-07-12T18:11:12Z,420193.152,Entwicklung,maendeleo,d,uangavu,mshindwa,badiliko,NA,NA,1,"c(""distractor1"", ""distractor2"", ""distractor3"")",NA,NA,NA,NA,NA,NA,NA,NA,NA,NA,NA,NA,NA,NA,NA,NA,NA,NA,NA
92873,shallow,flow.Sequence,2_15_0,NA,NA,completion,8176.505,411985,411983.226,411999.934,420176.439,420177.5,2023-07-12T18:11:12Z,420193.152,Entwicklung,maendeleo,d,uangavu,mshindwa,badiliko,NA,NA,NA,"c(""distractor1"", ""distractor2"", ""distractor3"")",NA,NA,NA,NA,NA,NA,NA,NA,NA,NA,NA,NA,NA,NA,NA,NA,NA,NA,NA
92873,task,flow.Sequence,2_15,NA,NA,completion,8176.505,411984.9000001,411983.226,411999.934,420176.439,420177.70000005,2023-07-12T18:11:12Z,420193.152,Entwicklung,maendeleo,d,uangavu,mshindwa,badiliko,NA,NA,NA,"c(""distractor1"", ""distractor2"", ""distractor3"")",NA,NA,NA,NA,NA,NA,NA,NA,NA,NA,NA,NA,NA,NA,NA,NA,NA,NA,NA
92873,retrieval block 2 (multiple choice),flow.Loop,2,NA,NA,completion,169460.778,250700.80000007,250699.061,250715.661,420176.439,420177.80000007,2023-07-12T18:11:12Z,420193.152,NA,NA,NA,NA,NA,NA,NA,NA,NA,"c(""distractor1"", ""distractor2"", ""distractor3"")",NA,NA,NA,NA,NA,NA,NA,NA,NA,NA,NA,NA,NA,NA,NA,NA,NA,NA,NA
92873,End,canvas.Screen,3,NA,keypress(Space),response,1780.6480000715,420177.9000001,420176.439,420193.152,421973.80000007,421975.20000005,2023-07-12T18:11:14Z,421997.973,NA,NA,NA,NA,NA,NA,NA,NA,NA,NULL,NA,NA,NA,NA,NA,NA,NA,NA,NA,NA,NA,NA,NA,NA,NA,NA,NA,NA,NA
92873,root,flow.Sequence,NA,NA,NA,completion,421019.64300007,932.40000009537,937.605,954.157,421973.80000007,421975.60000002,2023-07-12T18:11:14Z,421997.973,NA,NA,NA,NA,NA,NA,NA,NA,NA,NULL,NA,NA,NA,NA,NA,NA,NA,NA,NA,NA,NA,NA,NA,NA,NA,NA,NA,NA,NA
