observation,sender,sender_type,sender_id,response,response_action,ended_on,duration,time_run,time_render,time_show,time_end,time_commit,timestamp,time_switch,german,swahili,enc,distractor1,distractor2,distractor3,response_2,x,correct,distractors,url_vp,url_sess,meta_labjs_version,meta_location,meta_user_agent,meta_platform,meta_language,meta_locale,meta_time_zone,meta_timezone_offset,meta_screen_width,meta_screen_height,meta_scroll_width,meta_scroll_height,meta_window_inner_width,meta_window_inner_height,meta_device_pixel_ratio,meta_labjs_build_flavor,meta_labjs_build_commit
e5884,Introduction delayed retrieval,canvas.Screen,0,weiter,keypress(Space),response,1985.6970000119,548.69999998808,467.022,567.103,2552.8000000119,2554.4000000358,2023-05-13T15:13:43Z,2569.308,NA,NA,NA,NA,NA,NA,NA,NA,NA,NULL,215,2,20.2.4,https://neurocog.fernuni.ch/studies/vweber/sfink/delayed/index.html?vp=215&sess=2,"Mozilla/5.0 (Windows NT 10.0; Win64; x64) AppleWebKit/537.36 (KHTML, like Gecko) Chrome/113.0.0.0 Safari/537.36 Edg/113.0.1774.35",Win32,de,de-CH,Europe/Amsterdam,-120,1536,864,1536,666,1536,714,1.25,production,f5b4a49f956347addd546a832a3327688c2c0fef
e5884,Deep Question,html.Page,1_0_0_0,NA,NA,form submission,9034.5920000358,2554.6999999881,2552.685,2569.308,11603.900000036,11604.100000024,2023-05-13T15:13:52Z,11612.66,Können,unaweza,d,kiongozi,bustani,mienendo,unaweza,NA,NA,NULL,NA,NA,NA,NA,NA,NA,NA,NA,NA,NA,NA,NA,NA,NA,NA,NA,NA,NA,NA
e5884,Save data screen,canvas.Screen,1_0_0_1,NA,NA,timeout,500.537,11605.100000024,11595.936,11612.66,12096.497,12097.600000024,2023-05-13T15:13:52Z,12113.197,Können,unaweza,d,kiongozi,bustani,mienendo,NA,NA,1,NULL,NA,NA,NA,NA,NA,NA,NA,NA,NA,NA,NA,NA,NA,NA,NA,NA,NA,NA,NA
e5884,deep,flow.Sequence,1_0_0,NA,NA,completion,9527.189,2554.6000000238,2552.685,2569.308,12096.497,12097.800000012,2023-05-13T15:13:52Z,12113.197,Können,unaweza,d,kiongozi,bustani,mienendo,NA,NA,NA,NULL,NA,NA,NA,NA,NA,NA,NA,NA,NA,NA,NA,NA,NA,NA,NA,NA,NA,NA,NA
e5884,task,flow.Sequence,1_0,NA,NA,completion,9527.189,2554.6000000238,2552.685,2569.308,12096.497,12097.900000036,2023-05-13T15:13:52Z,12113.197,Können,unaweza,d,kiongozi,bustani,mienendo,NA,NA,NA,NULL,NA,NA,NA,NA,NA,NA,NA,NA,NA,NA,NA,NA,NA,NA,NA,NA,NA,NA,NA
e5884,Deep Question,html.Page,1_1_0_0,NA,NA,form submission,11749.203000036,12098.100000024,12096.497,12113.197,23862.400000036,23862.800000012,2023-05-13T15:14:04Z,23876.062,Körper,kiwiliwili,s,mapambano,mpatanishi,kiolezo,kiliwili,NA,NA,NULL,NA,NA,NA,NA,NA,NA,NA,NA,NA,NA,NA,NA,NA,NA,NA,NA,NA,NA,NA
e5884,Save data screen,canvas.Screen,1_1_0_1,NA,NA,timeout,500.557,23863.699999988,23859.387,23876.062,24359.948,24360.900000036,2023-05-13T15:14:05Z,24376.619,Körper,kiwiliwili,s,mapambano,mpatanishi,kiolezo,NA,NA,0,NULL,NA,NA,NA,NA,NA,NA,NA,NA,NA,NA,NA,NA,NA,NA,NA,NA,NA,NA,NA
e5884,deep,flow.Sequence,1_1_0,NA,NA,completion,12246.751,12098.100000024,12096.497,12113.197,24359.948,24361.199999988,2023-05-13T15:14:05Z,24376.619,Körper,kiwiliwili,s,mapambano,mpatanishi,kiolezo,NA,NA,NA,NULL,NA,NA,NA,NA,NA,NA,NA,NA,NA,NA,NA,NA,NA,NA,NA,NA,NA,NA,NA
e5884,task,flow.Sequence,1_1,NA,NA,completion,12246.751,12098.100000024,12096.497,12113.197,24359.948,24361.300000012,2023-05-13T15:14:05Z,24376.619,Körper,kiwiliwili,s,mapambano,mpatanishi,kiolezo,NA,NA,NA,NULL,NA,NA,NA,NA,NA,NA,NA,NA,NA,NA,NA,NA,NA,NA,NA,NA,NA,NA,NA
e5884,Deep Question,html.Page,1_2_0_0,NA,NA,form submission,3553.4810000238,24361.5,24359.948,24376.619,27930.100000024,27930.600000024,2023-05-13T15:14:08Z,27948.066,Übersicht,kilindo,s,mgusano,chipukizi,kulinganisha,f,NA,NA,NULL,NA,NA,NA,NA,NA,NA,NA,NA,NA,NA,NA,NA,NA,NA,NA,NA,NA,NA,NA
e5884,Save data screen,canvas.Screen,1_2_0_1,NA,NA,timeout,499.695,27931.400000036,27913.867,27948.066,28431.069,28431.800000012,2023-05-13T15:14:09Z,28447.761,Übersicht,kilindo,s,mgusano,chipukizi,kulinganisha,NA,NA,0,NULL,NA,NA,NA,NA,NA,NA,NA,NA,NA,NA,NA,NA,NA,NA,NA,NA,NA,NA,NA
e5884,deep,flow.Sequence,1_2_0,NA,NA,completion,4054.45,24361.5,24359.948,24376.619,28431.069,28432.100000024,2023-05-13T15:14:09Z,28447.761,Übersicht,kilindo,s,mgusano,chipukizi,kulinganisha,NA,NA,NA,NULL,NA,NA,NA,NA,NA,NA,NA,NA,NA,NA,NA,NA,NA,NA,NA,NA,NA,NA,NA
e5884,task,flow.Sequence,1_2,NA,NA,completion,4054.45,24361.400000036,24359.948,24376.619,28431.069,28432.400000036,2023-05-13T15:14:09Z,28447.761,Übersicht,kilindo,s,mgusano,chipukizi,kulinganisha,NA,NA,NA,NULL,NA,NA,NA,NA,NA,NA,NA,NA,NA,NA,NA,NA,NA,NA,NA,NA,NA,NA,NA
e5884,Deep Question,html.Page,1_3_0_0,NA,NA,form submission,2005.4389999881,28432.5,28431.069,28447.761,30453.199999988,30453.5,2023-05-13T15:14:11Z,30466.671,Kontrolle,kudhibiti,s,mbinguni,kufunga,utegemezi,f,NA,NA,NULL,NA,NA,NA,NA,NA,NA,NA,NA,NA,NA,NA,NA,NA,NA,NA,NA,NA,NA,NA
e5884,Save data screen,canvas.Screen,1_3_0_1,NA,NA,timeout,500.62,30454.199999988,30450.03,30466.671,30950.496,30951.199999988,2023-05-13T15:14:11Z,30967.291,Kontrolle,kudhibiti,s,mbinguni,kufunga,utegemezi,NA,NA,0,NULL,NA,NA,NA,NA,NA,NA,NA,NA,NA,NA,NA,NA,NA,NA,NA,NA,NA,NA,NA
e5884,deep,flow.Sequence,1_3_0,NA,NA,completion,2502.735,28432.5,28431.069,28447.761,30950.496,30951.5,2023-05-13T15:14:11Z,30967.291,Kontrolle,kudhibiti,s,mbinguni,kufunga,utegemezi,NA,NA,NA,NULL,NA,NA,NA,NA,NA,NA,NA,NA,NA,NA,NA,NA,NA,NA,NA,NA,NA,NA,NA
e5884,task,flow.Sequence,1_3,NA,NA,completion,2502.735,28432.5,28431.069,28447.761,30950.496,30951.600000024,2023-05-13T15:14:11Z,30967.291,Kontrolle,kudhibiti,s,mbinguni,kufunga,utegemezi,NA,NA,NA,NULL,NA,NA,NA,NA,NA,NA,NA,NA,NA,NA,NA,NA,NA,NA,NA,NA,NA,NA,NA
e5884,Deep Question,html.Page,1_4_0_0,NA,NA,form submission,9833.5090000119,30951.699999988,30950.496,30967.291,40800.800000012,40801,2023-05-13T15:14:21Z,40811.352,Aufstand,ugomaji,d,mazidio,msingi,kujieleza,uzigaj,NA,NA,NULL,NA,NA,NA,NA,NA,NA,NA,NA,NA,NA,NA,NA,NA,NA,NA,NA,NA,NA,NA
e5884,Save data screen,canvas.Screen,1_4_0_1,NA,NA,timeout,500.528,40801.800000012,40794.671,40811.352,41295.236,41296.300000012,2023-05-13T15:14:22Z,41311.88,Aufstand,ugomaji,d,mazidio,msingi,kujieleza,NA,NA,0,NULL,NA,NA,NA,NA,NA,NA,NA,NA,NA,NA,NA,NA,NA,NA,NA,NA,NA,NA,NA
e5884,deep,flow.Sequence,1_4_0,NA,NA,completion,10327.945,30951.699999988,30950.496,30967.291,41295.236,41296.400000036,2023-05-13T15:14:22Z,41311.88,Aufstand,ugomaji,d,mazidio,msingi,kujieleza,NA,NA,NA,NULL,NA,NA,NA,NA,NA,NA,NA,NA,NA,NA,NA,NA,NA,NA,NA,NA,NA,NA,NA
e5884,task,flow.Sequence,1_4,NA,NA,completion,10327.945,30951.699999988,30950.496,30967.291,41295.236,41296.5,2023-05-13T15:14:22Z,41311.88,Aufstand,ugomaji,d,mazidio,msingi,kujieleza,NA,NA,NA,NULL,NA,NA,NA,NA,NA,NA,NA,NA,NA,NA,NA,NA,NA,NA,NA,NA,NA,NA,NA
e5884,Deep Question,html.Page,1_5_0_0,NA,NA,form submission,3296.7200000238,41296.600000024,41295.236,41311.88,44608.600000024,44608.800000012,2023-05-13T15:14:25Z,44615.533,Verzögerung,kuchelewa,s,mwakilishi,mwanauchumi,jaribio,f,NA,NA,NULL,NA,NA,NA,NA,NA,NA,NA,NA,NA,NA,NA,NA,NA,NA,NA,NA,NA,NA,NA
e5884,Save data screen,canvas.Screen,1_5_0_1,NA,NA,timeout,500.66699999999,44609.400000036,44598.98,44615.533,45099.406,45099.900000036,2023-05-13T15:14:25Z,45116.2,Verzögerung,kuchelewa,s,mwakilishi,mwanauchumi,jaribio,NA,NA,0,NULL,NA,NA,NA,NA,NA,NA,NA,NA,NA,NA,NA,NA,NA,NA,NA,NA,NA,NA,NA
e5884,deep,flow.Sequence,1_5_0,NA,NA,completion,3787.526,41296.600000024,41295.236,41311.88,45099.406,45100.100000024,2023-05-13T15:14:25Z,45116.2,Verzögerung,kuchelewa,s,mwakilishi,mwanauchumi,jaribio,NA,NA,NA,NULL,NA,NA,NA,NA,NA,NA,NA,NA,NA,NA,NA,NA,NA,NA,NA,NA,NA,NA,NA
e5884,task,flow.Sequence,1_5,NA,NA,completion,3787.526,41296.600000024,41295.236,41311.88,45099.406,45100.199999988,2023-05-13T15:14:25Z,45116.2,Verzögerung,kuchelewa,s,mwakilishi,mwanauchumi,jaribio,NA,NA,NA,NULL,NA,NA,NA,NA,NA,NA,NA,NA,NA,NA,NA,NA,NA,NA,NA,NA,NA,NA,NA
e5884,Deep Question,html.Page,1_6_0_0,NA,NA,form submission,18849.999999988,45100.300000012,45099.406,45116.2,63966.199999988,63966.300000012,2023-05-13T15:14:44Z,63970.798,System,maongozi,d,chokochoko,nuksani,mitaani,f,NA,NA,NULL,NA,NA,NA,NA,NA,NA,NA,NA,NA,NA,NA,NA,NA,NA,NA,NA,NA,NA,NA
e5884,Save data screen,canvas.Screen,1_6_0_1,NA,NA,timeout,499.897,63971.800000012,63953.447,63970.798,64454.007,64454.5,2023-05-13T15:14:45Z,64470.695,System,maongozi,d,chokochoko,nuksani,mitaani,NA,NA,0,NULL,NA,NA,NA,NA,NA,NA,NA,NA,NA,NA,NA,NA,NA,NA,NA,NA,NA,NA,NA
e5884,deep,flow.Sequence,1_6_0,NA,NA,completion,19337.807,45100.300000012,45099.406,45116.2,64454.007,64454.900000036,2023-05-13T15:14:45Z,64470.695,System,maongozi,d,chokochoko,nuksani,mitaani,NA,NA,NA,NULL,NA,NA,NA,NA,NA,NA,NA,NA,NA,NA,NA,NA,NA,NA,NA,NA,NA,NA,NA
e5884,task,flow.Sequence,1_6,NA,NA,completion,19337.807,45100.300000012,45099.406,45116.2,64454.007,64455,2023-05-13T15:14:45Z,64470.695,System,maongozi,d,chokochoko,nuksani,mitaani,NA,NA,NA,NULL,NA,NA,NA,NA,NA,NA,NA,NA,NA,NA,NA,NA,NA,NA,NA,NA,NA,NA,NA
e5884,Deep Question,html.Page,1_7_0_0,NA,NA,form submission,2689.305,64455.199999988,64454.007,64470.695,67160,67160.199999988,2023-05-13T15:14:47Z,67173.725,Abrechnung,uhasibu,s,kusahihisha,mpambano,mashambulizi,f,NA,NA,NULL,NA,NA,NA,NA,NA,NA,NA,NA,NA,NA,NA,NA,NA,NA,NA,NA,NA,NA,NA
e5884,Save data screen,canvas.Screen,1_7_0_1,NA,NA,timeout,500.514,67162.100000024,67157.025,67173.725,67657.541,67658,2023-05-13T15:14:48Z,67674.239,Abrechnung,uhasibu,s,kusahihisha,mpambano,mashambulizi,NA,NA,0,NULL,NA,NA,NA,NA,NA,NA,NA,NA,NA,NA,NA,NA,NA,NA,NA,NA,NA,NA,NA
e5884,deep,flow.Sequence,1_7_0,NA,NA,completion,3186.846,64455.100000024,64454.007,64470.695,67657.541,67658.199999988,2023-05-13T15:14:48Z,67674.239,Abrechnung,uhasibu,s,kusahihisha,mpambano,mashambulizi,NA,NA,NA,NULL,NA,NA,NA,NA,NA,NA,NA,NA,NA,NA,NA,NA,NA,NA,NA,NA,NA,NA,NA
e5884,task,flow.Sequence,1_7,NA,NA,completion,3186.846,64455.100000024,64454.007,64470.695,67657.541,67658.300000012,2023-05-13T15:14:48Z,67674.239,Abrechnung,uhasibu,s,kusahihisha,mpambano,mashambulizi,NA,NA,NA,NULL,NA,NA,NA,NA,NA,NA,NA,NA,NA,NA,NA,NA,NA,NA,NA,NA,NA,NA,NA
e5884,Deep Question,html.Page,1_8_0_0,NA,NA,form submission,2318.8610000238,67658.400000036,67657.541,67674.239,69993.100000024,69993.300000012,2023-05-13T15:14:50Z,70014.95,Gefährdung,kuhatarisha,s,uchokozi,udhaifu,makorowezo,f,NA,NA,NULL,NA,NA,NA,NA,NA,NA,NA,NA,NA,NA,NA,NA,NA,NA,NA,NA,NA,NA,NA
e5884,Save data screen,canvas.Screen,1_8_0_1,NA,NA,timeout,495.758,69994,69976.742,70014.95,70494.02,70494.600000024,2023-05-13T15:14:51Z,70510.708,Gefährdung,kuhatarisha,s,uchokozi,udhaifu,makorowezo,NA,NA,0,NULL,NA,NA,NA,NA,NA,NA,NA,NA,NA,NA,NA,NA,NA,NA,NA,NA,NA,NA,NA
e5884,deep,flow.Sequence,1_8_0,NA,NA,completion,2819.781,67658.400000036,67657.541,67674.239,70494.02,70494.900000036,2023-05-13T15:14:51Z,70510.708,Gefährdung,kuhatarisha,s,uchokozi,udhaifu,makorowezo,NA,NA,NA,NULL,NA,NA,NA,NA,NA,NA,NA,NA,NA,NA,NA,NA,NA,NA,NA,NA,NA,NA,NA
e5884,task,flow.Sequence,1_8,NA,NA,completion,2819.781,67658.400000036,67657.541,67674.239,70494.02,70495.400000036,2023-05-13T15:14:51Z,70510.708,Gefährdung,kuhatarisha,s,uchokozi,udhaifu,makorowezo,NA,NA,NA,NULL,NA,NA,NA,NA,NA,NA,NA,NA,NA,NA,NA,NA,NA,NA,NA,NA,NA,NA,NA
e5884,Deep Question,html.Page,1_9_0_0,NA,NA,form submission,7276.9919999881,70495.5,70494.02,70510.708,77787.699999988,77788,2023-05-13T15:14:58Z,77802.141,Kultur,utamaduni,s,shetani,gerezani,mazingira,f,NA,NA,NULL,NA,NA,NA,NA,NA,NA,NA,NA,NA,NA,NA,NA,NA,NA,NA,NA,NA,NA,NA
e5884,Save data screen,canvas.Screen,1_9_0_1,NA,NA,timeout,500.48999999999,77790.300000012,77785.349,77802.141,78285.893,78286.400000036,2023-05-13T15:14:59Z,78302.631,Kultur,utamaduni,s,shetani,gerezani,mazingira,NA,NA,0,NULL,NA,NA,NA,NA,NA,NA,NA,NA,NA,NA,NA,NA,NA,NA,NA,NA,NA,NA,NA
e5884,deep,flow.Sequence,1_9_0,NA,NA,completion,7775.185,70495.5,70494.02,70510.708,78285.893,78286.600000024,2023-05-13T15:14:59Z,78302.631,Kultur,utamaduni,s,shetani,gerezani,mazingira,NA,NA,NA,NULL,NA,NA,NA,NA,NA,NA,NA,NA,NA,NA,NA,NA,NA,NA,NA,NA,NA,NA,NA
e5884,task,flow.Sequence,1_9,NA,NA,completion,7775.185,70495.5,70494.02,70510.708,78285.893,78286.800000012,2023-05-13T15:14:59Z,78302.631,Kultur,utamaduni,s,shetani,gerezani,mazingira,NA,NA,NA,NULL,NA,NA,NA,NA,NA,NA,NA,NA,NA,NA,NA,NA,NA,NA,NA,NA,NA,NA,NA
e5884,Deep Question,html.Page,1_10_0_0,NA,NA,form submission,32542.169000012,78286.900000036,78285.893,78302.631,110844.80000001,110845.10000002,2023-05-13T15:15:31Z,110855.111,Lawine,banguko,d,maambukizi,usuluhishi,chekechea,bangake,NA,NA,NULL,NA,NA,NA,NA,NA,NA,NA,NA,NA,NA,NA,NA,NA,NA,NA,NA,NA,NA,NA
e5884,Save data screen,canvas.Screen,1_10_0_1,NA,NA,timeout,500.594,110847.5,110838.308,110855.111,111339.042,111339.69999999,2023-05-13T15:15:32Z,111355.705,Lawine,banguko,d,maambukizi,usuluhishi,chekechea,NA,NA,0,NULL,NA,NA,NA,NA,NA,NA,NA,NA,NA,NA,NA,NA,NA,NA,NA,NA,NA,NA,NA
e5884,deep,flow.Sequence,1_10_0,NA,NA,completion,33036.411,78286.900000036,78285.893,78302.631,111339.042,111340,2023-05-13T15:15:32Z,111355.705,Lawine,banguko,d,maambukizi,usuluhishi,chekechea,NA,NA,NA,NULL,NA,NA,NA,NA,NA,NA,NA,NA,NA,NA,NA,NA,NA,NA,NA,NA,NA,NA,NA
e5884,task,flow.Sequence,1_10,NA,NA,completion,33036.411,78286.900000036,78285.893,78302.631,111339.042,111340,2023-05-13T15:15:32Z,111355.705,Lawine,banguko,d,maambukizi,usuluhishi,chekechea,NA,NA,NA,NULL,NA,NA,NA,NA,NA,NA,NA,NA,NA,NA,NA,NA,NA,NA,NA,NA,NA,NA,NA
e5884,Deep Question,html.Page,1_11_0_0,NA,NA,form submission,2823.6950000358,111340.10000002,111339.042,111355.705,114179.40000004,114179.69999999,2023-05-13T15:15:34Z,114192.032,Angreifer,mshambulizi,d,kitengo,tasinia,usafirishaji,n,NA,NA,NULL,NA,NA,NA,NA,NA,NA,NA,NA,NA,NA,NA,NA,NA,NA,NA,NA,NA,NA,NA
e5884,Save data screen,canvas.Screen,1_11_0_1,NA,NA,timeout,500.56899999999,114180.19999999,114175.31,114192.032,114675.89,114676.30000001,2023-05-13T15:15:35Z,114692.601,Angreifer,mshambulizi,d,kitengo,tasinia,usafirishaji,NA,NA,0,NULL,NA,NA,NA,NA,NA,NA,NA,NA,NA,NA,NA,NA,NA,NA,NA,NA,NA,NA,NA
e5884,deep,flow.Sequence,1_11_0,NA,NA,completion,3320.185,111340.10000002,111339.042,111355.705,114675.89,114676.5,2023-05-13T15:15:35Z,114692.601,Angreifer,mshambulizi,d,kitengo,tasinia,usafirishaji,NA,NA,NA,NULL,NA,NA,NA,NA,NA,NA,NA,NA,NA,NA,NA,NA,NA,NA,NA,NA,NA,NA,NA
e5884,task,flow.Sequence,1_11,NA,NA,completion,3320.185,111340.10000002,111339.042,111355.705,114675.89,114676.69999999,2023-05-13T15:15:35Z,114692.601,Angreifer,mshambulizi,d,kitengo,tasinia,usafirishaji,NA,NA,NA,NULL,NA,NA,NA,NA,NA,NA,NA,NA,NA,NA,NA,NA,NA,NA,NA,NA,NA,NA,NA
e5884,Deep Question,html.Page,1_12_0_0,NA,NA,form submission,3497.0989999881,114676.80000001,114675.89,114692.601,118189.69999999,118190,2023-05-13T15:15:38Z,118196.461,Sänger,mwimbaji,d,msichana,shughuli,mshirika,f,NA,NA,NULL,NA,NA,NA,NA,NA,NA,NA,NA,NA,NA,NA,NA,NA,NA,NA,NA,NA,NA,NA
e5884,Save data screen,canvas.Screen,1_12_0_1,NA,NA,timeout,500.86900000001,118192.40000004,118180.088,118196.461,118680.63,118681.60000002,2023-05-13T15:15:39Z,118697.33,Sänger,mwimbaji,d,msichana,shughuli,mshirika,NA,NA,0,NULL,NA,NA,NA,NA,NA,NA,NA,NA,NA,NA,NA,NA,NA,NA,NA,NA,NA,NA,NA
e5884,deep,flow.Sequence,1_12_0,NA,NA,completion,3988.029,114676.80000001,114675.89,114692.601,118680.63,118681.80000001,2023-05-13T15:15:39Z,118697.33,Sänger,mwimbaji,d,msichana,shughuli,mshirika,NA,NA,NA,NULL,NA,NA,NA,NA,NA,NA,NA,NA,NA,NA,NA,NA,NA,NA,NA,NA,NA,NA,NA
e5884,task,flow.Sequence,1_12,NA,NA,completion,3988.029,114676.80000001,114675.89,114692.601,118680.63,118681.90000004,2023-05-13T15:15:39Z,118697.33,Sänger,mwimbaji,d,msichana,shughuli,mshirika,NA,NA,NA,NULL,NA,NA,NA,NA,NA,NA,NA,NA,NA,NA,NA,NA,NA,NA,NA,NA,NA,NA,NA
e5884,Deep Question,html.Page,1_13_0_0,NA,NA,form submission,5573.2700000238,118682,118680.63,118697.33,124270.60000002,124271.10000002,2023-05-13T15:15:45Z,124286.483,Kreativität,ubunifu,d,mratibu,mwendelezo,makubaliano,f,NA,NA,NULL,NA,NA,NA,NA,NA,NA,NA,NA,NA,NA,NA,NA,NA,NA,NA,NA,NA,NA,NA
e5884,Save data screen,canvas.Screen,1_13_0_1,NA,NA,timeout,500.57800000001,124273.60000002,124269.789,124286.483,124770.373,124771.10000002,2023-05-13T15:15:45Z,124787.061,Kreativität,ubunifu,d,mratibu,mwendelezo,makubaliano,NA,NA,0,NULL,NA,NA,NA,NA,NA,NA,NA,NA,NA,NA,NA,NA,NA,NA,NA,NA,NA,NA,NA
e5884,deep,flow.Sequence,1_13_0,NA,NA,completion,6073.043,118682,118680.63,118697.33,124770.373,124771.30000001,2023-05-13T15:15:45Z,124787.061,Kreativität,ubunifu,d,mratibu,mwendelezo,makubaliano,NA,NA,NA,NULL,NA,NA,NA,NA,NA,NA,NA,NA,NA,NA,NA,NA,NA,NA,NA,NA,NA,NA,NA
e5884,task,flow.Sequence,1_13,NA,NA,completion,6073.043,118682,118680.63,118697.33,124770.373,124771.5,2023-05-13T15:15:45Z,124787.061,Kreativität,ubunifu,d,mratibu,mwendelezo,makubaliano,NA,NA,NA,NULL,NA,NA,NA,NA,NA,NA,NA,NA,NA,NA,NA,NA,NA,NA,NA,NA,NA,NA,NA
e5884,Deep Question,html.Page,1_14_0_0,NA,NA,form submission,2541.939,124771.60000002,124770.373,124787.061,127329,127329.40000004,2023-05-13T15:15:48Z,127339.836,Prüfung,mtihani,d,mkulima,mtizamo,ufumbuzi,f,NA,NA,NULL,NA,NA,NA,NA,NA,NA,NA,NA,NA,NA,NA,NA,NA,NA,NA,NA,NA,NA,NA
e5884,Save data screen,canvas.Screen,1_14_0_1,NA,NA,timeout,500.90700000001,127331.80000001,127323.569,127339.836,127824.058,127825.10000002,2023-05-13T15:15:48Z,127840.743,Prüfung,mtihani,d,mkulima,mtizamo,ufumbuzi,NA,NA,0,NULL,NA,NA,NA,NA,NA,NA,NA,NA,NA,NA,NA,NA,NA,NA,NA,NA,NA,NA,NA
e5884,deep,flow.Sequence,1_14_0,NA,NA,completion,3036.997,124771.60000002,124770.373,124787.061,127824.058,127825.30000001,2023-05-13T15:15:48Z,127840.743,Prüfung,mtihani,d,mkulima,mtizamo,ufumbuzi,NA,NA,NA,NULL,NA,NA,NA,NA,NA,NA,NA,NA,NA,NA,NA,NA,NA,NA,NA,NA,NA,NA,NA
e5884,task,flow.Sequence,1_14,NA,NA,completion,3036.997,124771.60000002,124770.373,124787.061,127824.058,127825.40000004,2023-05-13T15:15:48Z,127840.743,Prüfung,mtihani,d,mkulima,mtizamo,ufumbuzi,NA,NA,NA,NULL,NA,NA,NA,NA,NA,NA,NA,NA,NA,NA,NA,NA,NA,NA,NA,NA,NA,NA,NA
e5884,Deep Question,html.Page,1_15_0_0,NA,NA,form submission,10722.157000036,127825.5,127824.058,127840.743,138562.90000004,138563.19999999,2023-05-13T15:15:59Z,138585.659,Kanzler,diwani,s,rasilmali,mahitaji,maabudu,duniwi,NA,NA,NULL,NA,NA,NA,NA,NA,NA,NA,NA,NA,NA,NA,NA,NA,NA,NA,NA,NA,NA,NA
e5884,Save data screen,canvas.Screen,1_15_0_1,NA,NA,timeout,500.83199999999,138566.90000004,138568.859,138585.659,139069.845,139070.69999999,2023-05-13T15:15:59Z,139086.491,Kanzler,diwani,s,rasilmali,mahitaji,maabudu,NA,NA,0,NULL,NA,NA,NA,NA,NA,NA,NA,NA,NA,NA,NA,NA,NA,NA,NA,NA,NA,NA,NA
e5884,deep,flow.Sequence,1_15_0,NA,NA,completion,11229.102,127825.5,127824.058,127840.743,139069.845,139070.90000004,2023-05-13T15:15:59Z,139086.491,Kanzler,diwani,s,rasilmali,mahitaji,maabudu,NA,NA,NA,NULL,NA,NA,NA,NA,NA,NA,NA,NA,NA,NA,NA,NA,NA,NA,NA,NA,NA,NA,NA
e5884,task,flow.Sequence,1_15,NA,NA,completion,11229.102,127825.5,127824.058,127840.743,139069.845,139071,2023-05-13T15:15:59Z,139086.491,Kanzler,diwani,s,rasilmali,mahitaji,maabudu,NA,NA,NA,NULL,NA,NA,NA,NA,NA,NA,NA,NA,NA,NA,NA,NA,NA,NA,NA,NA,NA,NA,NA
e5884,retrieval block 1 (cued recall),flow.Loop,1,NA,NA,completion,136500.537,2554.6000000238,2552.685,2569.308,139069.845,139071.19999999,2023-05-13T15:15:59Z,139086.491,NA,NA,NA,NA,NA,NA,NA,NA,NA,NULL,NA,NA,NA,NA,NA,NA,NA,NA,NA,NA,NA,NA,NA,NA,NA,NA,NA,NA,NA
e5884,Shallow Question,html.Page,2_0_0_0,NA,NA,form submission,11755.809000012,139071.30000001,139069.845,139086.491,150842.30000001,150842.60000002,2023-05-13T15:16:11Z,150849.062,Angreifer,mshambulizi,d,kitengo,tasinia,usafirishaji,mshambulizi,NA,NA,"c(""distractor1"", ""distractor2"", ""distractor3"")",NA,NA,NA,NA,NA,NA,NA,NA,NA,NA,NA,NA,NA,NA,NA,NA,NA,NA,NA
e5884,Save data screen,canvas.Screen,2_0_0_1,NA,NA,timeout,500.49599999998,150845.19999999,150832.885,150849.062,151333.345,151334.19999999,2023-05-13T15:16:12Z,151349.558,Angreifer,mshambulizi,d,kitengo,tasinia,usafirishaji,NA,NA,1,"c(""distractor1"", ""distractor2"", ""distractor3"")",NA,NA,NA,NA,NA,NA,NA,NA,NA,NA,NA,NA,NA,NA,NA,NA,NA,NA,NA
e5884,shallow,flow.Sequence,2_0_0,NA,NA,completion,12246.854,139071.30000001,139069.845,139086.491,151333.345,151334.30000001,2023-05-13T15:16:12Z,151349.558,Angreifer,mshambulizi,d,kitengo,tasinia,usafirishaji,NA,NA,NA,"c(""distractor1"", ""distractor2"", ""distractor3"")",NA,NA,NA,NA,NA,NA,NA,NA,NA,NA,NA,NA,NA,NA,NA,NA,NA,NA,NA
e5884,task,flow.Sequence,2_0,NA,NA,completion,12246.854,139071.19999999,139069.845,139086.491,151333.345,151334.40000004,2023-05-13T15:16:12Z,151349.558,Angreifer,mshambulizi,d,kitengo,tasinia,usafirishaji,NA,NA,NA,"c(""distractor1"", ""distractor2"", ""distractor3"")",NA,NA,NA,NA,NA,NA,NA,NA,NA,NA,NA,NA,NA,NA,NA,NA,NA,NA,NA
e5884,Shallow Question,html.Page,2_1_0_0,NA,NA,form submission,6377.1419999881,151334.5,151333.345,151349.558,157726.69999999,157727.10000002,2023-05-13T15:16:18Z,157740.17,Können,unaweza,d,kiongozi,bustani,mienendo,unaweza,NA,NA,"c(""distractor1"", ""distractor2"", ""distractor3"")",NA,NA,NA,NA,NA,NA,NA,NA,NA,NA,NA,NA,NA,NA,NA,NA,NA,NA,NA
e5884,Save data screen,canvas.Screen,2_1_0_1,NA,NA,timeout,500.78699999998,157729.5,157723.665,157740.17,158224.249,158225.10000002,2023-05-13T15:16:19Z,158240.957,Können,unaweza,d,kiongozi,bustani,mienendo,NA,NA,1,"c(""distractor1"", ""distractor2"", ""distractor3"")",NA,NA,NA,NA,NA,NA,NA,NA,NA,NA,NA,NA,NA,NA,NA,NA,NA,NA,NA
e5884,shallow,flow.Sequence,2_1_0,NA,NA,completion,6874.691,151334.5,151333.345,151349.558,158224.249,158225.30000001,2023-05-13T15:16:19Z,158240.957,Können,unaweza,d,kiongozi,bustani,mienendo,NA,NA,NA,"c(""distractor1"", ""distractor2"", ""distractor3"")",NA,NA,NA,NA,NA,NA,NA,NA,NA,NA,NA,NA,NA,NA,NA,NA,NA,NA,NA
e5884,task,flow.Sequence,2_1,NA,NA,completion,6874.691,151334.40000004,151333.345,151349.558,158224.249,158225.5,2023-05-13T15:16:19Z,158240.957,Können,unaweza,d,kiongozi,bustani,mienendo,NA,NA,NA,"c(""distractor1"", ""distractor2"", ""distractor3"")",NA,NA,NA,NA,NA,NA,NA,NA,NA,NA,NA,NA,NA,NA,NA,NA,NA,NA,NA
e5884,Shallow Question,html.Page,2_2_0_0,NA,NA,form submission,7018.7429999881,158225.60000002,158224.249,158240.957,165259.69999999,165259.90000004,2023-05-13T15:16:26Z,165264.934,Kreativität,ubunifu,d,mratibu,mwendelezo,makubaliano,mwendelezo,NA,NA,"c(""distractor1"", ""distractor2"", ""distractor3"")",NA,NA,NA,NA,NA,NA,NA,NA,NA,NA,NA,NA,NA,NA,NA,NA,NA,NA,NA
e5884,Save data screen,canvas.Screen,2_2_0_1,NA,NA,timeout,500.95999999999,165262.60000002,165248.67,165264.934,165749.115,165750,2023-05-13T15:16:26Z,165765.894,Kreativität,ubunifu,d,mratibu,mwendelezo,makubaliano,NA,NA,0,"c(""distractor1"", ""distractor2"", ""distractor3"")",NA,NA,NA,NA,NA,NA,NA,NA,NA,NA,NA,NA,NA,NA,NA,NA,NA,NA,NA
e5884,shallow,flow.Sequence,2_2_0,NA,NA,completion,7508.158,158225.60000002,158224.249,158240.957,165749.115,165750.10000002,2023-05-13T15:16:26Z,165765.894,Kreativität,ubunifu,d,mratibu,mwendelezo,makubaliano,NA,NA,NA,"c(""distractor1"", ""distractor2"", ""distractor3"")",NA,NA,NA,NA,NA,NA,NA,NA,NA,NA,NA,NA,NA,NA,NA,NA,NA,NA,NA
e5884,task,flow.Sequence,2_2,NA,NA,completion,7508.158,158225.60000002,158224.249,158240.957,165749.115,165750.19999999,2023-05-13T15:16:26Z,165765.894,Kreativität,ubunifu,d,mratibu,mwendelezo,makubaliano,NA,NA,NA,"c(""distractor1"", ""distractor2"", ""distractor3"")",NA,NA,NA,NA,NA,NA,NA,NA,NA,NA,NA,NA,NA,NA,NA,NA,NA,NA,NA
e5884,Shallow Question,html.Page,2_3_0_0,NA,NA,form submission,11231.906000012,165750.40000004,165749.115,165765.894,176997.80000001,176998.19999999,2023-05-13T15:16:37Z,177011.191,Kontrolle,kudhibiti,s,mbinguni,kufunga,utegemezi,kufunga,NA,NA,"c(""distractor1"", ""distractor2"", ""distractor3"")",NA,NA,NA,NA,NA,NA,NA,NA,NA,NA,NA,NA,NA,NA,NA,NA,NA,NA,NA
e5884,Save data screen,canvas.Screen,2_3_0_1,NA,NA,timeout,500.467,177000.80000001,176995.026,177011.191,177495.431,177496.40000004,2023-05-13T15:16:38Z,177511.658,Kontrolle,kudhibiti,s,mbinguni,kufunga,utegemezi,NA,NA,0,"c(""distractor1"", ""distractor2"", ""distractor3"")",NA,NA,NA,NA,NA,NA,NA,NA,NA,NA,NA,NA,NA,NA,NA,NA,NA,NA,NA
e5884,shallow,flow.Sequence,2_3_0,NA,NA,completion,11729.537,165750.40000004,165749.115,165765.894,177495.431,177496.80000001,2023-05-13T15:16:38Z,177511.658,Kontrolle,kudhibiti,s,mbinguni,kufunga,utegemezi,NA,NA,NA,"c(""distractor1"", ""distractor2"", ""distractor3"")",NA,NA,NA,NA,NA,NA,NA,NA,NA,NA,NA,NA,NA,NA,NA,NA,NA,NA,NA
e5884,task,flow.Sequence,2_3,NA,NA,completion,11729.537,165750.40000004,165749.115,165765.894,177495.431,177496.90000004,2023-05-13T15:16:38Z,177511.658,Kontrolle,kudhibiti,s,mbinguni,kufunga,utegemezi,NA,NA,NA,"c(""distractor1"", ""distractor2"", ""distractor3"")",NA,NA,NA,NA,NA,NA,NA,NA,NA,NA,NA,NA,NA,NA,NA,NA,NA,NA,NA
e5884,Shallow Question,html.Page,2_4_0_0,NA,NA,form submission,5143.0419999881,177497.10000002,177495.431,177511.658,182654.69999999,182655,2023-05-13T15:16:43Z,182667.478,Kanzler,diwani,s,rasilmali,mahitaji,maabudu,diwani,NA,NA,"c(""distractor1"", ""distractor2"", ""distractor3"")",NA,NA,NA,NA,NA,NA,NA,NA,NA,NA,NA,NA,NA,NA,NA,NA,NA,NA,NA
e5884,Save data screen,canvas.Screen,2_4_0_1,NA,NA,timeout,500.905,182657.5,182650.75,182667.478,183151.67,183152.40000004,2023-05-13T15:16:43Z,183168.383,Kanzler,diwani,s,rasilmali,mahitaji,maabudu,NA,NA,1,"c(""distractor1"", ""distractor2"", ""distractor3"")",NA,NA,NA,NA,NA,NA,NA,NA,NA,NA,NA,NA,NA,NA,NA,NA,NA,NA,NA
e5884,shallow,flow.Sequence,2_4_0,NA,NA,completion,5640.012,177497.10000002,177495.431,177511.658,183151.67,183152.80000001,2023-05-13T15:16:43Z,183168.383,Kanzler,diwani,s,rasilmali,mahitaji,maabudu,NA,NA,NA,"c(""distractor1"", ""distractor2"", ""distractor3"")",NA,NA,NA,NA,NA,NA,NA,NA,NA,NA,NA,NA,NA,NA,NA,NA,NA,NA,NA
e5884,task,flow.Sequence,2_4,NA,NA,completion,5640.012,177497,177495.431,177511.658,183151.67,183153,2023-05-13T15:16:43Z,183168.383,Kanzler,diwani,s,rasilmali,mahitaji,maabudu,NA,NA,NA,"c(""distractor1"", ""distractor2"", ""distractor3"")",NA,NA,NA,NA,NA,NA,NA,NA,NA,NA,NA,NA,NA,NA,NA,NA,NA,NA,NA
e5884,Shallow Question,html.Page,2_5_0_0,NA,NA,form submission,9301.9170000119,183153.10000002,183151.67,183168.383,192470.30000001,192470.5,2023-05-13T15:16:53Z,192478.197,Verzögerung,kuchelewa,s,mwakilishi,mwanauchumi,jaribio,kuchelewa,NA,NA,"c(""distractor1"", ""distractor2"", ""distractor3"")",NA,NA,NA,NA,NA,NA,NA,NA,NA,NA,NA,NA,NA,NA,NA,NA,NA,NA,NA
e5884,Save data screen,canvas.Screen,2_5_0_1,NA,NA,timeout,500.48700000002,192473.19999999,192461.608,192478.197,192962.466,192963.19999999,2023-05-13T15:16:53Z,192978.684,Verzögerung,kuchelewa,s,mwakilishi,mwanauchumi,jaribio,NA,NA,1,"c(""distractor1"", ""distractor2"", ""distractor3"")",NA,NA,NA,NA,NA,NA,NA,NA,NA,NA,NA,NA,NA,NA,NA,NA,NA,NA,NA
e5884,shallow,flow.Sequence,2_5_0,NA,NA,completion,9794.083,183153.10000002,183151.67,183168.383,192962.466,192963.5,2023-05-13T15:16:53Z,192978.684,Verzögerung,kuchelewa,s,mwakilishi,mwanauchumi,jaribio,NA,NA,NA,"c(""distractor1"", ""distractor2"", ""distractor3"")",NA,NA,NA,NA,NA,NA,NA,NA,NA,NA,NA,NA,NA,NA,NA,NA,NA,NA,NA
e5884,task,flow.Sequence,2_5,NA,NA,completion,9794.083,183153.10000002,183151.67,183168.383,192962.466,192963.5,2023-05-13T15:16:53Z,192978.684,Verzögerung,kuchelewa,s,mwakilishi,mwanauchumi,jaribio,NA,NA,NA,"c(""distractor1"", ""distractor2"", ""distractor3"")",NA,NA,NA,NA,NA,NA,NA,NA,NA,NA,NA,NA,NA,NA,NA,NA,NA,NA,NA
e5884,Shallow Question,html.Page,2_6_0_0,NA,NA,form submission,16571.116000012,192963.60000002,192962.466,192978.684,209549.80000001,209550,2023-05-13T15:17:10Z,209563.648,Prüfung,mtihani,d,mkulima,mtizamo,ufumbuzi,ufumbuzi,NA,NA,"c(""distractor1"", ""distractor2"", ""distractor3"")",NA,NA,NA,NA,NA,NA,NA,NA,NA,NA,NA,NA,NA,NA,NA,NA,NA,NA,NA
e5884,Save data screen,canvas.Screen,2_6_0_1,NA,NA,timeout,500.94700000001,209552.5,209547.765,209563.648,210047.906,210048.80000001,2023-05-13T15:17:10Z,210064.595,Prüfung,mtihani,d,mkulima,mtizamo,ufumbuzi,NA,NA,0,"c(""distractor1"", ""distractor2"", ""distractor3"")",NA,NA,NA,NA,NA,NA,NA,NA,NA,NA,NA,NA,NA,NA,NA,NA,NA,NA,NA
e5884,shallow,flow.Sequence,2_6_0,NA,NA,completion,17069.222,192963.60000002,192962.466,192978.684,210047.906,210049.10000002,2023-05-13T15:17:10Z,210064.595,Prüfung,mtihani,d,mkulima,mtizamo,ufumbuzi,NA,NA,NA,"c(""distractor1"", ""distractor2"", ""distractor3"")",NA,NA,NA,NA,NA,NA,NA,NA,NA,NA,NA,NA,NA,NA,NA,NA,NA,NA,NA
e5884,task,flow.Sequence,2_6,NA,NA,completion,17069.222,192963.60000002,192962.466,192978.684,210047.906,210049.19999999,2023-05-13T15:17:10Z,210064.595,Prüfung,mtihani,d,mkulima,mtizamo,ufumbuzi,NA,NA,NA,"c(""distractor1"", ""distractor2"", ""distractor3"")",NA,NA,NA,NA,NA,NA,NA,NA,NA,NA,NA,NA,NA,NA,NA,NA,NA,NA,NA
e5884,Shallow Question,html.Page,2_7_0_0,NA,NA,form submission,10381.505000024,210049.30000001,210047.906,210064.595,220446.10000002,220446.40000004,2023-05-13T15:17:21Z,220459.197,Abrechnung,uhasibu,s,kusahihisha,mpambano,mashambulizi,kusahihisha,NA,NA,"c(""distractor1"", ""distractor2"", ""distractor3"")",NA,NA,NA,NA,NA,NA,NA,NA,NA,NA,NA,NA,NA,NA,NA,NA,NA,NA,NA
e5884,Save data screen,canvas.Screen,2_7_0_1,NA,NA,timeout,500.63600000003,220449.10000002,220442.641,220459.197,220943.269,220944.10000002,2023-05-13T15:17:21Z,220959.833,Abrechnung,uhasibu,s,kusahihisha,mpambano,mashambulizi,NA,NA,0,"c(""distractor1"", ""distractor2"", ""distractor3"")",NA,NA,NA,NA,NA,NA,NA,NA,NA,NA,NA,NA,NA,NA,NA,NA,NA,NA,NA
e5884,shallow,flow.Sequence,2_7_0,NA,NA,completion,10878.674,210049.30000001,210047.906,210064.595,220943.269,220944.30000001,2023-05-13T15:17:21Z,220959.833,Abrechnung,uhasibu,s,kusahihisha,mpambano,mashambulizi,NA,NA,NA,"c(""distractor1"", ""distractor2"", ""distractor3"")",NA,NA,NA,NA,NA,NA,NA,NA,NA,NA,NA,NA,NA,NA,NA,NA,NA,NA,NA
e5884,task,flow.Sequence,2_7,NA,NA,completion,10878.674,210049.30000001,210047.906,210064.595,220943.269,220944.5,2023-05-13T15:17:21Z,220959.833,Abrechnung,uhasibu,s,kusahihisha,mpambano,mashambulizi,NA,NA,NA,"c(""distractor1"", ""distractor2"", ""distractor3"")",NA,NA,NA,NA,NA,NA,NA,NA,NA,NA,NA,NA,NA,NA,NA,NA,NA,NA,NA
e5884,Shallow Question,html.Page,2_8_0_0,NA,NA,form submission,10999.067000036,220944.69999999,220943.269,220959.833,231958.90000004,231959.19999999,2023-05-13T15:17:32Z,231971.746,Kultur,utamaduni,s,shetani,gerezani,mazingira,utamaduni,NA,NA,"c(""distractor1"", ""distractor2"", ""distractor3"")",NA,NA,NA,NA,NA,NA,NA,NA,NA,NA,NA,NA,NA,NA,NA,NA,NA,NA,NA
e5884,Save data screen,canvas.Screen,2_8_0_1,NA,NA,timeout,500.68399999998,231961.69999999,231955.265,231971.746,232455.727,232457,2023-05-13T15:17:33Z,232472.43,Kultur,utamaduni,s,shetani,gerezani,mazingira,NA,NA,1,"c(""distractor1"", ""distractor2"", ""distractor3"")",NA,NA,NA,NA,NA,NA,NA,NA,NA,NA,NA,NA,NA,NA,NA,NA,NA,NA,NA
e5884,shallow,flow.Sequence,2_8_0,NA,NA,completion,11495.894,220944.69999999,220943.269,220959.833,232455.727,232457.30000001,2023-05-13T15:17:33Z,232472.43,Kultur,utamaduni,s,shetani,gerezani,mazingira,NA,NA,NA,"c(""distractor1"", ""distractor2"", ""distractor3"")",NA,NA,NA,NA,NA,NA,NA,NA,NA,NA,NA,NA,NA,NA,NA,NA,NA,NA,NA
e5884,task,flow.Sequence,2_8,NA,NA,completion,11495.894,220944.69999999,220943.269,220959.833,232455.727,232457.40000004,2023-05-13T15:17:33Z,232472.43,Kultur,utamaduni,s,shetani,gerezani,mazingira,NA,NA,NA,"c(""distractor1"", ""distractor2"", ""distractor3"")",NA,NA,NA,NA,NA,NA,NA,NA,NA,NA,NA,NA,NA,NA,NA,NA,NA,NA,NA
e5884,Shallow Question,html.Page,2_9_0_0,NA,NA,form submission,12237.07,232457.60000002,232455.727,232472.43,244709.5,244709.80000001,2023-05-13T15:17:45Z,244718.932,Sänger,mwimbaji,d,msichana,shughuli,mshirika,mwimbaji,NA,NA,"c(""distractor1"", ""distractor2"", ""distractor3"")",NA,NA,NA,NA,NA,NA,NA,NA,NA,NA,NA,NA,NA,NA,NA,NA,NA,NA,NA
e5884,Save data screen,canvas.Screen,2_9_0_1,NA,NA,timeout,500.54999999999,244712.19999999,244702.296,244718.932,245202.77,245203.40000004,2023-05-13T15:17:45Z,245219.482,Sänger,mwimbaji,d,msichana,shughuli,mshirika,NA,NA,1,"c(""distractor1"", ""distractor2"", ""distractor3"")",NA,NA,NA,NA,NA,NA,NA,NA,NA,NA,NA,NA,NA,NA,NA,NA,NA,NA,NA
e5884,shallow,flow.Sequence,2_9_0,NA,NA,completion,12730.34,232457.60000002,232455.727,232472.43,245202.77,245203.69999999,2023-05-13T15:17:45Z,245219.482,Sänger,mwimbaji,d,msichana,shughuli,mshirika,NA,NA,NA,"c(""distractor1"", ""distractor2"", ""distractor3"")",NA,NA,NA,NA,NA,NA,NA,NA,NA,NA,NA,NA,NA,NA,NA,NA,NA,NA,NA
e5884,task,flow.Sequence,2_9,NA,NA,completion,12730.34,232457.60000002,232455.727,232472.43,245202.77,245203.90000004,2023-05-13T15:17:45Z,245219.482,Sänger,mwimbaji,d,msichana,shughuli,mshirika,NA,NA,NA,"c(""distractor1"", ""distractor2"", ""distractor3"")",NA,NA,NA,NA,NA,NA,NA,NA,NA,NA,NA,NA,NA,NA,NA,NA,NA,NA,NA
e5884,Shallow Question,html.Page,2_10_0_0,NA,NA,form submission,6290.7179999881,245204,245202.77,245219.482,251510.19999999,251510.5,2023-05-13T15:17:52Z,251526.843,Körper,kiwiliwili,s,mapambano,mpatanishi,kiolezo,kiwiliwili,NA,NA,"c(""distractor1"", ""distractor2"", ""distractor3"")",NA,NA,NA,NA,NA,NA,NA,NA,NA,NA,NA,NA,NA,NA,NA,NA,NA,NA,NA
e5884,Save data screen,canvas.Screen,2_10_0_1,NA,NA,timeout,500.071,251513,251493.783,251526.843,252010.594,252012.10000002,2023-05-13T15:17:52Z,252026.914,Körper,kiwiliwili,s,mapambano,mpatanishi,kiolezo,NA,NA,1,"c(""distractor1"", ""distractor2"", ""distractor3"")",NA,NA,NA,NA,NA,NA,NA,NA,NA,NA,NA,NA,NA,NA,NA,NA,NA,NA,NA
e5884,shallow,flow.Sequence,2_10_0,NA,NA,completion,6791.112,245204,245202.77,245219.482,252010.594,252012.5,2023-05-13T15:17:52Z,252026.914,Körper,kiwiliwili,s,mapambano,mpatanishi,kiolezo,NA,NA,NA,"c(""distractor1"", ""distractor2"", ""distractor3"")",NA,NA,NA,NA,NA,NA,NA,NA,NA,NA,NA,NA,NA,NA,NA,NA,NA,NA,NA
e5884,task,flow.Sequence,2_10,NA,NA,completion,6791.112,245204,245202.77,245219.482,252010.594,252012.69999999,2023-05-13T15:17:52Z,252026.914,Körper,kiwiliwili,s,mapambano,mpatanishi,kiolezo,NA,NA,NA,"c(""distractor1"", ""distractor2"", ""distractor3"")",NA,NA,NA,NA,NA,NA,NA,NA,NA,NA,NA,NA,NA,NA,NA,NA,NA,NA,NA
e5884,Shallow Question,html.Page,2_11_0_0,NA,NA,form submission,13562.986000036,252012.90000004,252010.594,252026.914,265589.90000004,265590,2023-05-13T15:18:06Z,265591.97,System,maongozi,d,chokochoko,nuksani,mitaani,nuksani,NA,NA,"c(""distractor1"", ""distractor2"", ""distractor3"")",NA,NA,NA,NA,NA,NA,NA,NA,NA,NA,NA,NA,NA,NA,NA,NA,NA,NA,NA
e5884,Save data screen,canvas.Screen,2_11_0_1,NA,NA,timeout,500.42800000001,265591.90000004,265575.122,265591.97,266075.728,266076.30000001,2023-05-13T15:18:06Z,266092.398,System,maongozi,d,chokochoko,nuksani,mitaani,NA,NA,0,"c(""distractor1"", ""distractor2"", ""distractor3"")",NA,NA,NA,NA,NA,NA,NA,NA,NA,NA,NA,NA,NA,NA,NA,NA,NA,NA,NA
e5884,shallow,flow.Sequence,2_11_0,NA,NA,completion,14048.814,252012.90000004,252010.594,252026.914,266075.728,266076.60000002,2023-05-13T15:18:06Z,266092.398,System,maongozi,d,chokochoko,nuksani,mitaani,NA,NA,NA,"c(""distractor1"", ""distractor2"", ""distractor3"")",NA,NA,NA,NA,NA,NA,NA,NA,NA,NA,NA,NA,NA,NA,NA,NA,NA,NA,NA
e5884,task,flow.Sequence,2_11,NA,NA,completion,14048.814,252012.80000001,252010.594,252026.914,266075.728,266076.69999999,2023-05-13T15:18:06Z,266092.398,System,maongozi,d,chokochoko,nuksani,mitaani,NA,NA,NA,"c(""distractor1"", ""distractor2"", ""distractor3"")",NA,NA,NA,NA,NA,NA,NA,NA,NA,NA,NA,NA,NA,NA,NA,NA,NA,NA,NA
e5884,Shallow Question,html.Page,2_12_0_0,NA,NA,form submission,5734.5020000358,266076.80000001,266075.728,266092.398,271826.90000004,271827.19999999,2023-05-13T15:18:12Z,271832.041,Aufstand,ugomaji,d,mazidio,msingi,kujieleza,ugomaji,NA,NA,"c(""distractor1"", ""distractor2"", ""distractor3"")",NA,NA,NA,NA,NA,NA,NA,NA,NA,NA,NA,NA,NA,NA,NA,NA,NA,NA,NA
e5884,Save data screen,canvas.Screen,2_12_0_1,NA,NA,timeout,500.53999999998,271829.40000004,271815.163,271832.041,272315.924,272316.5,2023-05-13T15:18:13Z,272332.581,Aufstand,ugomaji,d,mazidio,msingi,kujieleza,NA,NA,1,"c(""distractor1"", ""distractor2"", ""distractor3"")",NA,NA,NA,NA,NA,NA,NA,NA,NA,NA,NA,NA,NA,NA,NA,NA,NA,NA,NA
e5884,shallow,flow.Sequence,2_12_0,NA,NA,completion,6223.526,266076.69999999,266075.728,266092.398,272315.924,272316.69999999,2023-05-13T15:18:13Z,272332.581,Aufstand,ugomaji,d,mazidio,msingi,kujieleza,NA,NA,NA,"c(""distractor1"", ""distractor2"", ""distractor3"")",NA,NA,NA,NA,NA,NA,NA,NA,NA,NA,NA,NA,NA,NA,NA,NA,NA,NA,NA
e5884,task,flow.Sequence,2_12,NA,NA,completion,6223.526,266076.69999999,266075.728,266092.398,272315.924,272316.90000004,2023-05-13T15:18:13Z,272332.581,Aufstand,ugomaji,d,mazidio,msingi,kujieleza,NA,NA,NA,"c(""distractor1"", ""distractor2"", ""distractor3"")",NA,NA,NA,NA,NA,NA,NA,NA,NA,NA,NA,NA,NA,NA,NA,NA,NA,NA,NA
e5884,Shallow Question,html.Page,2_13_0_0,NA,NA,form submission,13292.519000024,272317,272315.924,272332.581,285625.10000002,285625.40000004,2023-05-13T15:18:26Z,285630.696,Gefährdung,kuhatarisha,s,uchokozi,udhaifu,makorowezo,udhaifu,NA,NA,"c(""distractor1"", ""distractor2"", ""distractor3"")",NA,NA,NA,NA,NA,NA,NA,NA,NA,NA,NA,NA,NA,NA,NA,NA,NA,NA,NA
e5884,Save data screen,canvas.Screen,2_13_0_1,NA,NA,timeout,500.55099999998,285628,285614.546,285630.696,286114.42,286127.60000002,2023-05-13T15:18:26Z,286131.247,Gefährdung,kuhatarisha,s,uchokozi,udhaifu,makorowezo,NA,NA,0,"c(""distractor1"", ""distractor2"", ""distractor3"")",NA,NA,NA,NA,NA,NA,NA,NA,NA,NA,NA,NA,NA,NA,NA,NA,NA,NA,NA
e5884,shallow,flow.Sequence,2_13_0,NA,NA,completion,13781.839,272317,272315.924,272332.581,286114.42,286127.69999999,2023-05-13T15:18:26Z,286131.247,Gefährdung,kuhatarisha,s,uchokozi,udhaifu,makorowezo,NA,NA,NA,"c(""distractor1"", ""distractor2"", ""distractor3"")",NA,NA,NA,NA,NA,NA,NA,NA,NA,NA,NA,NA,NA,NA,NA,NA,NA,NA,NA
e5884,task,flow.Sequence,2_13,NA,NA,completion,13781.839,272317,272315.924,272332.581,286114.42,286127.80000001,2023-05-13T15:18:26Z,286131.247,Gefährdung,kuhatarisha,s,uchokozi,udhaifu,makorowezo,NA,NA,NA,"c(""distractor1"", ""distractor2"", ""distractor3"")",NA,NA,NA,NA,NA,NA,NA,NA,NA,NA,NA,NA,NA,NA,NA,NA,NA,NA,NA
e5884,Shallow Question,html.Page,2_14_0_0,NA,NA,form submission,7220.0530000119,286128,286114.42,286131.247,293351.30000001,293351.60000002,2023-05-13T15:18:34Z,293355.75,Übersicht,kilindo,s,mgusano,chipukizi,kulinganisha,kilindo,NA,NA,"c(""distractor1"", ""distractor2"", ""distractor3"")",NA,NA,NA,NA,NA,NA,NA,NA,NA,NA,NA,NA,NA,NA,NA,NA,NA,NA,NA
e5884,Save data screen,canvas.Screen,2_14_0_1,NA,NA,timeout,500.54599999997,293354.10000002,293339.033,293355.75,293839.607,293853.10000002,2023-05-13T15:18:34Z,293856.296,Übersicht,kilindo,s,mgusano,chipukizi,kulinganisha,NA,NA,1,"c(""distractor1"", ""distractor2"", ""distractor3"")",NA,NA,NA,NA,NA,NA,NA,NA,NA,NA,NA,NA,NA,NA,NA,NA,NA,NA,NA
e5884,shallow,flow.Sequence,2_14_0,NA,NA,completion,7708.36,286128,286114.42,286131.247,293839.607,293853.30000001,2023-05-13T15:18:34Z,293856.296,Übersicht,kilindo,s,mgusano,chipukizi,kulinganisha,NA,NA,NA,"c(""distractor1"", ""distractor2"", ""distractor3"")",NA,NA,NA,NA,NA,NA,NA,NA,NA,NA,NA,NA,NA,NA,NA,NA,NA,NA,NA
e5884,task,flow.Sequence,2_14,NA,NA,completion,7708.36,286127.90000004,286114.42,286131.247,293839.607,293853.5,2023-05-13T15:18:34Z,293856.296,Übersicht,kilindo,s,mgusano,chipukizi,kulinganisha,NA,NA,NA,"c(""distractor1"", ""distractor2"", ""distractor3"")",NA,NA,NA,NA,NA,NA,NA,NA,NA,NA,NA,NA,NA,NA,NA,NA,NA,NA,NA
e5884,Shallow Question,html.Page,2_15_0_0,NA,NA,form submission,3311.1040000358,293853.60000002,293839.607,293856.296,297167.40000004,297167.69999999,2023-05-13T15:18:37Z,297193.355,Lawine,banguko,d,maambukizi,usuluhishi,chekechea,banguko,NA,NA,"c(""distractor1"", ""distractor2"", ""distractor3"")",NA,NA,NA,NA,NA,NA,NA,NA,NA,NA,NA,NA,NA,NA,NA,NA,NA,NA,NA
e5884,Save data screen,canvas.Screen,2_15_0_1,NA,NA,timeout,503.12700000004,297170.30000001,297160.059,297193.355,297677.648,297678.60000002,2023-05-13T15:18:38Z,297696.482,Lawine,banguko,d,maambukizi,usuluhishi,chekechea,NA,NA,1,"c(""distractor1"", ""distractor2"", ""distractor3"")",NA,NA,NA,NA,NA,NA,NA,NA,NA,NA,NA,NA,NA,NA,NA,NA,NA,NA,NA
e5884,shallow,flow.Sequence,2_15_0,NA,NA,completion,3821.352,293853.60000002,293839.607,293856.296,297677.648,297678.80000001,2023-05-13T15:18:38Z,297696.482,Lawine,banguko,d,maambukizi,usuluhishi,chekechea,NA,NA,NA,"c(""distractor1"", ""distractor2"", ""distractor3"")",NA,NA,NA,NA,NA,NA,NA,NA,NA,NA,NA,NA,NA,NA,NA,NA,NA,NA,NA
e5884,task,flow.Sequence,2_15,NA,NA,completion,3821.352,293853.5,293839.607,293856.296,297677.648,297679,2023-05-13T15:18:38Z,297696.482,Lawine,banguko,d,maambukizi,usuluhishi,chekechea,NA,NA,NA,"c(""distractor1"", ""distractor2"", ""distractor3"")",NA,NA,NA,NA,NA,NA,NA,NA,NA,NA,NA,NA,NA,NA,NA,NA,NA,NA,NA
e5884,retrieval block 2 (multiple choice),flow.Loop,2,NA,NA,completion,158591.157,139071.19999999,139069.845,139086.491,297677.648,297679.10000002,2023-05-13T15:18:38Z,297696.482,NA,NA,NA,NA,NA,NA,NA,NA,NA,"c(""distractor1"", ""distractor2"", ""distractor3"")",NA,NA,NA,NA,NA,NA,NA,NA,NA,NA,NA,NA,NA,NA,NA,NA,NA,NA,NA
e5884,End,canvas.Screen,3,NA,keypress(Space),response,4046.3180000119,297679.10000002,297677.648,297696.482,301742.80000001,301746.10000002,2023-05-13T15:18:42Z,301748.252,NA,NA,NA,NA,NA,NA,NA,NA,NA,NULL,NA,NA,NA,NA,NA,NA,NA,NA,NA,NA,NA,NA,NA,NA,NA,NA,NA,NA,NA
e5884,root,flow.Sequence,NA,NA,NA,completion,301175.69700001,548.40000003576,467.022,567.103,301742.80000001,301746.5,2023-05-13T15:18:42Z,301748.252,NA,NA,NA,NA,NA,NA,NA,NA,NA,NULL,NA,NA,NA,NA,NA,NA,NA,NA,NA,NA,NA,NA,NA,NA,NA,NA,NA,NA,NA
71e44,Introduction delayed retrieval,canvas.Screen,0,weiter,keypress(Space),response,50734.5552,1720.9304,1733.676,1752.9752,52487.5304,52530.1304,2023-05-13T15:11:05Z,52564.6971,NA,NA,NA,NA,NA,NA,NA,NA,NA,NA,215,2,20.2.4,https://neurocog.fernuni.ch/studies/vweber/sfink/delayed/index.html?vp=215&sess=2,"Mozilla/5.0 (Windows NT 10.0; Win64; x64; WebView/3.0) AppleWebKit/537.36 (KHTML, like Gecko) Chrome/70.0.3538.102 Safari/537.36 Edge/18.22621",Win32,de-CH,de-CH-u-ca-gregory-cu-chf-fw-mon-hc-h23-ms-metric,Europe/Amsterdam,-120,1536,864,1488,645,1487,645,1.25,production,f5b4a49f956347addd546a832a3327688c2c0fef
