observation,sender,sender_type,sender_id,response,response_action,ended_on,duration,time_run,time_render,time_show,time_end,time_commit,timestamp,time_switch,distractors,german,swahili,enc,distractor1,distractor2,distractor3,response_2,x,correct,x_2,url_vp,url_sess,meta_labjs_version,meta_location,meta_user_agent,meta_platform,meta_language,meta_locale,meta_time_zone,meta_timezone_offset,meta_screen_width,meta_screen_height,meta_scroll_width,meta_scroll_height,meta_window_inner_width,meta_window_inner_height,meta_device_pixel_ratio,meta_labjs_build_flavor,meta_labjs_build_commit
7d8d8,Introduction general,canvas.Screen,0,weiter,keypress(q),response,21137.999999988,804.69999998808,1707.6,1724.2,22862.199999988,22866.599999994,2024-03-10T14:21:18Z,22878.4,NULL,NA,NA,NA,NA,NA,NA,NA,NA,NA,NA,140,3,20.2.4,https://neurocog.fernuni.ch/studies/vweber/aberisha/encoding_immediate/index.html?vp=140&sess=3,"Mozilla/5.0 (Windows NT 10.0; Win64; x64) AppleWebKit/537.36 (KHTML, like Gecko) Chrome/122.0.0.0 Safari/537.36",Win32,de-DE,de,Europe/Zurich,-60,1739,979,1740,763,1740,811,1.1041666269302,production,f5b4a49f956347addd546a832a3327688c2c0fef
7d8d8,Introduction practice,canvas.Screen,1_0,NA,keypress(Space),response,6825.699999994,22867.400000006,22868.222,22878.4,29704.099999994,29705,2024-03-10T14:21:25Z,29725.7,NULL,NA,NA,NA,NA,NA,NA,NA,NA,NA,NA,NA,NA,NA,NA,NA,NA,NA,NA,NA,NA,NA,NA,NA,NA,NA,NA,NA,NA,NA
7d8d8,Deep Question,html.Page,1_1_0_0_0,NA,NA,form submission,9092.200000006,29705.400000006,29698.6,29725.7,38817.900000006,38818.400000006,2024-03-10T14:21:34Z,38820.036,"c(""distractor1"", ""distractor2"", ""distractor3"")",Gesundheit,salama,d,NA,NA,NA,mn,NA,NA,NA,NA,NA,NA,NA,NA,NA,NA,NA,NA,NA,NA,NA,NA,NA,NA,NA,NA,NA,NA
7d8d8,"""Richtig""-Screen",canvas.Screen,1_1_0_0_1,NA,NA,skipped,NA,38820.099999994,NA,NA,38817.900000006,38820.400000006,2024-03-10T14:21:34Z,38820.036,"c(""distractor1"", ""distractor2"", ""distractor3"")",Gesundheit,salama,d,NA,NA,NA,NA,NA,NA,NA,NA,NA,NA,NA,NA,NA,NA,NA,NA,NA,NA,NA,NA,NA,NA,NA,NA,NA,NA
7d8d8,"""Falsch""-Screen",canvas.Screen,1_1_0_0_2,NA,NA,timeout,4995.764,38821.299999982,38820.036,38820.036,43799,43799.5,2024-03-10T14:21:39Z,43815.8,"c(""distractor1"", ""distractor2"", ""distractor3"")",Gesundheit,salama,d,NA,NA,NA,NA,NA,0,NA,NA,NA,NA,NA,NA,NA,NA,NA,NA,NA,NA,NA,NA,NA,NA,NA,NA,NA,NA
7d8d8,deep,flow.Sequence,1_1_0_0,NA,NA,completion,14073.3,29705.299999982,29698.6,29725.7,43799,43799.699999988,2024-03-10T14:21:39Z,43815.8,"c(""distractor1"", ""distractor2"", ""distractor3"")",Gesundheit,salama,d,NA,NA,NA,NA,NA,NA,NA,NA,NA,NA,NA,NA,NA,NA,NA,NA,NA,NA,NA,NA,NA,NA,NA,NA,NA,NA
7d8d8,shallow,flow.Sequence,1_1_0_1,NA,NA,skipped,NA,43799.699999988,NA,NA,43799,43799.799999982,2024-03-10T14:21:39Z,43815.8,"c(""distractor1"", ""distractor2"", ""distractor3"")",Gesundheit,salama,d,NA,NA,NA,NA,NA,NA,NA,NA,NA,NA,NA,NA,NA,NA,NA,NA,NA,NA,NA,NA,NA,NA,NA,NA,NA,NA
7d8d8,task,flow.Sequence,1_1_0,NA,NA,completion,14073.3,29705.299999982,29698.6,29725.7,43799,43799.799999982,2024-03-10T14:21:39Z,43815.8,"c(""distractor1"", ""distractor2"", ""distractor3"")",Gesundheit,salama,d,NA,NA,NA,NA,NA,NA,NA,NA,NA,NA,NA,NA,NA,NA,NA,NA,NA,NA,NA,NA,NA,NA,NA,NA,NA,NA
7d8d8,deep,flow.Sequence,1_1_1_0,NA,NA,skipped,NA,43800,NA,NA,43799,43800,2024-03-10T14:21:39Z,43815.8,"c(""distractor1"", ""distractor2"", ""distractor3"")",Kritik,lawama,s,dereva,nafasi,mawazo,NA,NA,NA,NA,NA,NA,NA,NA,NA,NA,NA,NA,NA,NA,NA,NA,NA,NA,NA,NA,NA,NA,NA
7d8d8,Shallow Question,html.Page,1_1_1_1_0,NA,NA,form submission,8823.4999999821,43800,43799,43815.8,52639.299999982,52639.5,2024-03-10T14:21:48Z,52643.1,"c(""distractor1"", ""distractor2"", ""distractor3"")",Kritik,lawama,s,dereva,nafasi,mawazo,mawazo,NA,NA,NA,NA,NA,NA,NA,NA,NA,NA,NA,NA,NA,NA,NA,NA,NA,NA,NA,NA,NA,NA
7d8d8,"""Richtig""-Screen",canvas.Screen,1_1_1_1_1,NA,NA,skipped,NA,52640.099999994,NA,NA,52639.299999982,52640.199999988,2024-03-10T14:21:48Z,52643.1,"c(""distractor1"", ""distractor2"", ""distractor3"")",Kritik,lawama,s,dereva,nafasi,mawazo,NA,NA,NA,NA,NA,NA,NA,NA,NA,NA,NA,NA,NA,NA,NA,NA,NA,NA,NA,NA,NA,NA,NA
7d8d8,"""Falsch""-Screen",canvas.Screen,1_1_1_1_2,NA,NA,timeout,4997.3,52640.799999982,52627.31,52643.1,57624,57625.299999982,2024-03-10T14:21:53Z,57640.4,"c(""distractor1"", ""distractor2"", ""distractor3"")",Kritik,lawama,s,dereva,nafasi,mawazo,NA,NA,0,NA,NA,NA,NA,NA,NA,NA,NA,NA,NA,NA,NA,NA,NA,NA,NA,NA,NA,NA,NA
7d8d8,shallow,flow.Sequence,1_1_1_1,NA,NA,completion,13808.2,43800,43799,43815.8,57624,57625.799999982,2024-03-10T14:21:53Z,57640.4,"c(""distractor1"", ""distractor2"", ""distractor3"")",Kritik,lawama,s,dereva,nafasi,mawazo,NA,NA,NA,NA,NA,NA,NA,NA,NA,NA,NA,NA,NA,NA,NA,NA,NA,NA,NA,NA,NA,NA,NA
7d8d8,task,flow.Sequence,1_1_1,NA,NA,completion,13808.2,43799.900000006,43799,43815.8,57624,57626,2024-03-10T14:21:53Z,57640.4,"c(""distractor1"", ""distractor2"", ""distractor3"")",Kritik,lawama,s,dereva,nafasi,mawazo,NA,NA,NA,NA,NA,NA,NA,NA,NA,NA,NA,NA,NA,NA,NA,NA,NA,NA,NA,NA,NA,NA,NA
7d8d8,deep,flow.Sequence,1_1_2_0,NA,NA,skipped,NA,57626.299999982,NA,NA,57624,57626.400000006,2024-03-10T14:21:53Z,57640.4,"c(""distractor1"", ""distractor2"", ""distractor3"")",Gegenwart,hadhara,s,katiba,jokofu,mikopo,NA,NA,NA,NA,NA,NA,NA,NA,NA,NA,NA,NA,NA,NA,NA,NA,NA,NA,NA,NA,NA,NA,NA
7d8d8,Shallow Question,html.Page,1_1_2_1_0,NA,NA,form submission,8767.1,57626.699999988,57624,57640.4,66407.5,66407.799999982,2024-03-10T14:22:02Z,66418.6,"c(""distractor1"", ""distractor2"", ""distractor3"")",Gegenwart,hadhara,s,katiba,jokofu,mikopo,katiba,NA,NA,NA,NA,NA,NA,NA,NA,NA,NA,NA,NA,NA,NA,NA,NA,NA,NA,NA,NA,NA,NA
7d8d8,"""Richtig""-Screen",canvas.Screen,1_1_2_1_1,NA,NA,skipped,NA,66411,NA,NA,66407.5,66411.099999994,2024-03-10T14:22:02Z,66418.6,"c(""distractor1"", ""distractor2"", ""distractor3"")",Gegenwart,hadhara,s,katiba,jokofu,mikopo,NA,NA,NA,NA,NA,NA,NA,NA,NA,NA,NA,NA,NA,NA,NA,NA,NA,NA,NA,NA,NA,NA,NA
7d8d8,"""Falsch""-Screen",canvas.Screen,1_1_2_1_2,NA,NA,timeout,4996.5,66411.799999982,66402.116,66418.6,71398.7,71399.699999988,2024-03-10T14:22:07Z,71415.1,"c(""distractor1"", ""distractor2"", ""distractor3"")",Gegenwart,hadhara,s,katiba,jokofu,mikopo,NA,NA,0,NA,NA,NA,NA,NA,NA,NA,NA,NA,NA,NA,NA,NA,NA,NA,NA,NA,NA,NA,NA
7d8d8,shallow,flow.Sequence,1_1_2_1,NA,NA,completion,13758.3,57626.599999994,57624,57640.4,71398.7,71400,2024-03-10T14:22:07Z,71415.1,"c(""distractor1"", ""distractor2"", ""distractor3"")",Gegenwart,hadhara,s,katiba,jokofu,mikopo,NA,NA,NA,NA,NA,NA,NA,NA,NA,NA,NA,NA,NA,NA,NA,NA,NA,NA,NA,NA,NA,NA,NA
7d8d8,task,flow.Sequence,1_1_2,NA,NA,completion,13758.3,57626.199999988,57624,57640.4,71398.7,71400.299999982,2024-03-10T14:22:07Z,71415.1,"c(""distractor1"", ""distractor2"", ""distractor3"")",Gegenwart,hadhara,s,katiba,jokofu,mikopo,NA,NA,NA,NA,NA,NA,NA,NA,NA,NA,NA,NA,NA,NA,NA,NA,NA,NA,NA,NA,NA,NA,NA
7d8d8,Deep Question,html.Page,1_1_3_0_0,NA,NA,form submission,6039.1999999821,71400.5,71398.7,71415.1,77454.299999982,77454.400000006,2024-03-10T14:22:13Z,77461.4,"c(""distractor1"", ""distractor2"", ""distractor3"")",Qualität,mtindo,d,NA,NA,NA,hh,NA,NA,NA,NA,NA,NA,NA,NA,NA,NA,NA,NA,NA,NA,NA,NA,NA,NA,NA,NA,NA,NA
7d8d8,"""Richtig""-Screen",canvas.Screen,1_1_3_0_1,NA,NA,skipped,NA,77455.900000006,NA,NA,77454.299999982,77456.099999994,2024-03-10T14:22:13Z,77461.4,"c(""distractor1"", ""distractor2"", ""distractor3"")",Qualität,mtindo,d,NA,NA,NA,NA,NA,NA,NA,NA,NA,NA,NA,NA,NA,NA,NA,NA,NA,NA,NA,NA,NA,NA,NA,NA,NA,NA
7d8d8,"""Falsch""-Screen",canvas.Screen,1_1_3_0_2,NA,NA,timeout,4997.5,77456.5,77445.382,77461.4,82442,82442.900000006,2024-03-10T14:22:18Z,82458.9,"c(""distractor1"", ""distractor2"", ""distractor3"")",Qualität,mtindo,d,NA,NA,NA,NA,NA,0,NA,NA,NA,NA,NA,NA,NA,NA,NA,NA,NA,NA,NA,NA,NA,NA,NA,NA,NA,NA
7d8d8,deep,flow.Sequence,1_1_3_0,NA,NA,completion,11026.9,71400.5,71398.7,71415.1,82442,82443.299999982,2024-03-10T14:22:18Z,82458.9,"c(""distractor1"", ""distractor2"", ""distractor3"")",Qualität,mtindo,d,NA,NA,NA,NA,NA,NA,NA,NA,NA,NA,NA,NA,NA,NA,NA,NA,NA,NA,NA,NA,NA,NA,NA,NA,NA,NA
7d8d8,shallow,flow.Sequence,1_1_3_1,NA,NA,skipped,NA,82443.400000006,NA,NA,82442,82443.599999994,2024-03-10T14:22:18Z,82458.9,"c(""distractor1"", ""distractor2"", ""distractor3"")",Qualität,mtindo,d,NA,NA,NA,NA,NA,NA,NA,NA,NA,NA,NA,NA,NA,NA,NA,NA,NA,NA,NA,NA,NA,NA,NA,NA,NA,NA
7d8d8,task,flow.Sequence,1_1_3,NA,NA,completion,11026.9,71400.400000006,71398.7,71415.1,82442,82443.799999982,2024-03-10T14:22:18Z,82458.9,"c(""distractor1"", ""distractor2"", ""distractor3"")",Qualität,mtindo,d,NA,NA,NA,NA,NA,NA,NA,NA,NA,NA,NA,NA,NA,NA,NA,NA,NA,NA,NA,NA,NA,NA,NA,NA,NA,NA
7d8d8,Deep Question,html.Page,1_1_4_0_0,NA,NA,form submission,8335.8999999821,82444,82442,82458.9,90794.799999982,90795.099999994,2024-03-10T14:22:26Z,90803.4,"c(""distractor1"", ""distractor2"", ""distractor3"")",Schatten,kivuli,d,NA,NA,NA,zz,NA,NA,NA,NA,NA,NA,NA,NA,NA,NA,NA,NA,NA,NA,NA,NA,NA,NA,NA,NA,NA,NA
7d8d8,"""Richtig""-Screen",canvas.Screen,1_1_4_0_1,NA,NA,skipped,NA,90796.599999994,NA,NA,90794.799999982,90796.799999982,2024-03-10T14:22:26Z,90803.4,"c(""distractor1"", ""distractor2"", ""distractor3"")",Schatten,kivuli,d,NA,NA,NA,NA,NA,NA,NA,NA,NA,NA,NA,NA,NA,NA,NA,NA,NA,NA,NA,NA,NA,NA,NA,NA,NA,NA
7d8d8,"""Falsch""-Screen",canvas.Screen,1_1_4_0_2,NA,NA,timeout,4996.6,90797.199999988,90787.28,90803.4,95783.5,95784.799999982,2024-03-10T14:22:31Z,95800,"c(""distractor1"", ""distractor2"", ""distractor3"")",Schatten,kivuli,d,NA,NA,NA,NA,NA,0,NA,NA,NA,NA,NA,NA,NA,NA,NA,NA,NA,NA,NA,NA,NA,NA,NA,NA,NA,NA
7d8d8,deep,flow.Sequence,1_1_4_0,NA,NA,completion,13324.6,82444,82442,82458.9,95783.5,95785.099999994,2024-03-10T14:22:31Z,95800,"c(""distractor1"", ""distractor2"", ""distractor3"")",Schatten,kivuli,d,NA,NA,NA,NA,NA,NA,NA,NA,NA,NA,NA,NA,NA,NA,NA,NA,NA,NA,NA,NA,NA,NA,NA,NA,NA,NA
7d8d8,shallow,flow.Sequence,1_1_4_1,NA,NA,skipped,NA,95785.299999982,NA,NA,95783.5,95785.5,2024-03-10T14:22:31Z,95800,"c(""distractor1"", ""distractor2"", ""distractor3"")",Schatten,kivuli,d,NA,NA,NA,NA,NA,NA,NA,NA,NA,NA,NA,NA,NA,NA,NA,NA,NA,NA,NA,NA,NA,NA,NA,NA,NA,NA
7d8d8,task,flow.Sequence,1_1_4,NA,NA,completion,13324.6,82443.900000006,82442,82458.9,95783.5,95785.699999988,2024-03-10T14:22:31Z,95800,"c(""distractor1"", ""distractor2"", ""distractor3"")",Schatten,kivuli,d,NA,NA,NA,NA,NA,NA,NA,NA,NA,NA,NA,NA,NA,NA,NA,NA,NA,NA,NA,NA,NA,NA,NA,NA,NA,NA
7d8d8,deep,flow.Sequence,1_1_5_0,NA,NA,skipped,NA,95785.900000006,NA,NA,95783.5,95786,2024-03-10T14:22:31Z,95800,"c(""distractor1"", ""distractor2"", ""distractor3"")",Rückhalt,msaada,s,muhula,auwali,kiwimbe,NA,NA,NA,NA,NA,NA,NA,NA,NA,NA,NA,NA,NA,NA,NA,NA,NA,NA,NA,NA,NA,NA,NA
7d8d8,Shallow Question,html.Page,1_1_5_1_0,NA,NA,form submission,5886.599999994,95786.199999988,95783.5,95800,101686.59999999,101686.90000001,2024-03-10T14:22:37Z,101696.9,"c(""distractor1"", ""distractor2"", ""distractor3"")",Rückhalt,msaada,s,muhula,auwali,kiwimbe,kiwimbe,NA,NA,NA,NA,NA,NA,NA,NA,NA,NA,NA,NA,NA,NA,NA,NA,NA,NA,NA,NA,NA,NA
7d8d8,"""Richtig""-Screen",canvas.Screen,1_1_5_1_1,NA,NA,skipped,NA,101689.40000001,NA,NA,101686.59999999,101689.5,2024-03-10T14:22:37Z,101696.9,"c(""distractor1"", ""distractor2"", ""distractor3"")",Rückhalt,msaada,s,muhula,auwali,kiwimbe,NA,NA,NA,NA,NA,NA,NA,NA,NA,NA,NA,NA,NA,NA,NA,NA,NA,NA,NA,NA,NA,NA,NA
7d8d8,"""Falsch""-Screen",canvas.Screen,1_1_5_1_2,NA,NA,timeout,4996.9,101689.90000001,101680.616,101696.9,106677,106678.19999999,2024-03-10T14:22:42Z,106693.8,"c(""distractor1"", ""distractor2"", ""distractor3"")",Rückhalt,msaada,s,muhula,auwali,kiwimbe,NA,NA,0,NA,NA,NA,NA,NA,NA,NA,NA,NA,NA,NA,NA,NA,NA,NA,NA,NA,NA,NA,NA
7d8d8,shallow,flow.Sequence,1_1_5_1,NA,NA,completion,10877,95786.099999994,95783.5,95800,106677,106678.59999999,2024-03-10T14:22:42Z,106693.8,"c(""distractor1"", ""distractor2"", ""distractor3"")",Rückhalt,msaada,s,muhula,auwali,kiwimbe,NA,NA,NA,NA,NA,NA,NA,NA,NA,NA,NA,NA,NA,NA,NA,NA,NA,NA,NA,NA,NA,NA,NA
7d8d8,task,flow.Sequence,1_1_5,NA,NA,completion,10877,95785.799999982,95783.5,95800,106677,106678.90000001,2024-03-10T14:22:42Z,106693.8,"c(""distractor1"", ""distractor2"", ""distractor3"")",Rückhalt,msaada,s,muhula,auwali,kiwimbe,NA,NA,NA,NA,NA,NA,NA,NA,NA,NA,NA,NA,NA,NA,NA,NA,NA,NA,NA,NA,NA,NA,NA
7d8d8,block,flow.Loop,1_1,NA,NA,completion,76951.3,29705.299999982,29698.6,29725.7,106677,106679.19999999,2024-03-10T14:22:42Z,106693.8,"c(""distractor1"", ""distractor2"", ""distractor3"")",NA,NA,NA,NA,NA,NA,NA,NA,NA,NA,NA,NA,NA,NA,NA,NA,NA,NA,NA,NA,NA,NA,NA,NA,NA,NA,NA,NA,NA
7d8d8,Practice,flow.Sequence,1,NA,NA,completion,83798.6,22867.299999982,22868.222,22878.4,106677,106679.40000001,2024-03-10T14:22:42Z,106693.8,NULL,NA,NA,NA,NA,NA,NA,NA,NA,NA,NA,NA,NA,NA,NA,NA,NA,NA,NA,NA,NA,NA,NA,NA,NA,NA,NA,NA,NA,NA
7d8d8,Experiment start,canvas.Screen,2,weiter,keypress(q),response,13274.7,106679.5,106677,106693.8,119968.5,119969.40000001,2024-03-10T14:22:55Z,120019.718,NULL,NA,NA,NA,NA,NA,NA,NA,NA,NA,NA,NA,NA,NA,NA,NA,NA,NA,NA,NA,NA,NA,NA,NA,NA,NA,NA,NA,NA,NA
7d8d8,deep,flow.Sequence,3_0_0_0_0_0,NA,NA,skipped,NA,120028.40000001,NA,NA,119968.5,120028.5,2024-03-10T14:22:56Z,120019.718,NULL,Entwicklung,maendeleo,s,uangavu,mshindwa,badiliko,NA,sdf,NA,0,NA,NA,NA,NA,NA,NA,NA,NA,NA,NA,NA,NA,NA,NA,NA,NA,NA,NA,NA
7d8d8,Shallow Question,html.Page,3_0_0_0_0_1_0,NA,NA,form submission,7286.282,120028.5,120019.718,120019.718,127306,127306.29999998,2024-03-10T14:23:03Z,127314.2,NULL,Entwicklung,maendeleo,s,uangavu,mshindwa,badiliko,mshindwa,NA,NA,0,NA,NA,NA,NA,NA,NA,NA,NA,NA,NA,NA,NA,NA,NA,NA,NA,NA,NA,NA
7d8d8,"""Richtig""-Screen",canvas.Screen,3_0_0_0_0_1_1,NA,NA,skipped,NA,127308.79999998,NA,NA,127306,127308.90000001,2024-03-10T14:23:03Z,127314.2,NULL,Entwicklung,maendeleo,s,uangavu,mshindwa,badiliko,NA,sdf,NA,0,NA,NA,NA,NA,NA,NA,NA,NA,NA,NA,NA,NA,NA,NA,NA,NA,NA,NA,NA
7d8d8,"""Falsch""-Screen",canvas.Screen,3_0_0_0_0_1_2,NA,NA,timeout,4997.4,127309.5,127298.314,127314.2,132295,132295.90000001,2024-03-10T14:23:08Z,132311.6,NULL,Entwicklung,maendeleo,s,uangavu,mshindwa,badiliko,NA,sdf,0,0,NA,NA,NA,NA,NA,NA,NA,NA,NA,NA,NA,NA,NA,NA,NA,NA,NA,NA,NA
7d8d8,shallow,flow.Sequence,3_0_0_0_0_1,NA,NA,completion,12275.282,120028.5,120019.718,120019.718,132295,132296.19999999,2024-03-10T14:23:08Z,132311.6,NULL,Entwicklung,maendeleo,s,uangavu,mshindwa,badiliko,NA,sdf,NA,0,NA,NA,NA,NA,NA,NA,NA,NA,NA,NA,NA,NA,NA,NA,NA,NA,NA,NA,NA
7d8d8,task,flow.Sequence,3_0_0_0_0,NA,NA,completion,12275.282,120028.40000001,120019.718,120019.718,132295,132296.5,2024-03-10T14:23:08Z,132311.6,NULL,Entwicklung,maendeleo,s,uangavu,mshindwa,badiliko,NA,sdf,NA,0,NA,NA,NA,NA,NA,NA,NA,NA,NA,NA,NA,NA,NA,NA,NA,NA,NA,NA,NA
7d8d8,deep,flow.Sequence,3_0_0_0_1_0,NA,NA,skipped,NA,132296.69999999,NA,NA,132295,132296.79999998,2024-03-10T14:23:08Z,132311.6,NULL,Übersicht,kilindo,s,mgusano,chipukizi,kulinganisha,NA,sdf,NA,0,NA,NA,NA,NA,NA,NA,NA,NA,NA,NA,NA,NA,NA,NA,NA,NA,NA,NA,NA
7d8d8,Shallow Question,html.Page,3_0_0_0_1_1_0,NA,NA,form submission,11694.599999988,132297,132295,132311.6,144006.19999999,144006.40000001,2024-03-10T14:23:19Z,144021.1,NULL,Übersicht,kilindo,s,mgusano,chipukizi,kulinganisha,mgusano,NA,NA,0,NA,NA,NA,NA,NA,NA,NA,NA,NA,NA,NA,NA,NA,NA,NA,NA,NA,NA,NA
7d8d8,"""Richtig""-Screen",canvas.Screen,3_0_0_0_1_1_1,NA,NA,skipped,NA,144009.40000001,NA,NA,144006.19999999,144009.5,2024-03-10T14:23:19Z,144021.1,NULL,Übersicht,kilindo,s,mgusano,chipukizi,kulinganisha,NA,sdf,NA,0,NA,NA,NA,NA,NA,NA,NA,NA,NA,NA,NA,NA,NA,NA,NA,NA,NA,NA,NA
7d8d8,"""Falsch""-Screen",canvas.Screen,3_0_0_0_1_1_2,NA,NA,timeout,4996.9,144010.29999998,144005.492,144021.1,149001.2,149002.09999999,2024-03-10T14:23:24Z,149018,NULL,Übersicht,kilindo,s,mgusano,chipukizi,kulinganisha,NA,sdf,0,0,NA,NA,NA,NA,NA,NA,NA,NA,NA,NA,NA,NA,NA,NA,NA,NA,NA,NA,NA
7d8d8,shallow,flow.Sequence,3_0_0_0_1_1,NA,NA,completion,16689.6,132296.90000001,132295,132311.6,149001.2,149002.40000001,2024-03-10T14:23:24Z,149018,NULL,Übersicht,kilindo,s,mgusano,chipukizi,kulinganisha,NA,sdf,NA,0,NA,NA,NA,NA,NA,NA,NA,NA,NA,NA,NA,NA,NA,NA,NA,NA,NA,NA,NA
7d8d8,task,flow.Sequence,3_0_0_0_1,NA,NA,completion,16689.6,132296.69999999,132295,132311.6,149001.2,149002.59999999,2024-03-10T14:23:24Z,149018,NULL,Übersicht,kilindo,s,mgusano,chipukizi,kulinganisha,NA,sdf,NA,0,NA,NA,NA,NA,NA,NA,NA,NA,NA,NA,NA,NA,NA,NA,NA,NA,NA,NA,NA
7d8d8,Deep Question,html.Page,3_0_0_0_2_0_0,NA,NA,form submission,14273.699999988,149002.79999998,149001.2,149018,163291.69999999,163292,2024-03-10T14:23:39Z,163308.9,NULL,Niveau,kiwango,d,NA,NA,NA,ll,NA,NA,0,NA,NA,NA,NA,NA,NA,NA,NA,NA,NA,NA,NA,NA,NA,NA,NA,NA,NA,NA
7d8d8,"""Richtig""-Screen",canvas.Screen,3_0_0_0_2_0_1,NA,NA,skipped,NA,163293.79999998,NA,NA,163291.69999999,163293.90000001,2024-03-10T14:23:39Z,163308.9,NULL,Niveau,kiwango,d,NA,NA,NA,NA,sdf,NA,0,NA,NA,NA,NA,NA,NA,NA,NA,NA,NA,NA,NA,NA,NA,NA,NA,NA,NA,NA
7d8d8,"""Falsch""-Screen",canvas.Screen,3_0_0_0_2_0_2,NA,NA,timeout,4997.2,163294.40000001,163292.658,163308.9,168289.2,168290.40000001,2024-03-10T14:23:44Z,168306.1,NULL,Niveau,kiwango,d,NA,NA,NA,NA,sdf,0,0,NA,NA,NA,NA,NA,NA,NA,NA,NA,NA,NA,NA,NA,NA,NA,NA,NA,NA,NA
7d8d8,deep,flow.Sequence,3_0_0_0_2_0,NA,NA,completion,19271.2,149002.79999998,149001.2,149018,168289.2,168290.69999999,2024-03-10T14:23:44Z,168306.1,NULL,Niveau,kiwango,d,NA,NA,NA,NA,sdf,NA,0,NA,NA,NA,NA,NA,NA,NA,NA,NA,NA,NA,NA,NA,NA,NA,NA,NA,NA,NA
7d8d8,shallow,flow.Sequence,3_0_0_0_2_1,NA,NA,skipped,NA,168290.90000001,NA,NA,168289.2,168291,2024-03-10T14:23:44Z,168306.1,NULL,Niveau,kiwango,d,NA,NA,NA,NA,sdf,NA,0,NA,NA,NA,NA,NA,NA,NA,NA,NA,NA,NA,NA,NA,NA,NA,NA,NA,NA,NA
7d8d8,task,flow.Sequence,3_0_0_0_2,NA,NA,completion,19271.2,149002.69999999,149001.2,149018,168289.2,168291.19999999,2024-03-10T14:23:44Z,168306.1,NULL,Niveau,kiwango,d,NA,NA,NA,NA,sdf,NA,0,NA,NA,NA,NA,NA,NA,NA,NA,NA,NA,NA,NA,NA,NA,NA,NA,NA,NA,NA
7d8d8,Deep Question,html.Page,3_0_0_0_3_0_0,NA,NA,form submission,6746.999999994,168291.5,168289.2,168306.1,175053.09999999,175053.29999998,2024-03-10T14:23:51Z,175068.3,NULL,Lawine,banguko,d,NA,NA,NA,ll,NA,NA,0,NA,NA,NA,NA,NA,NA,NA,NA,NA,NA,NA,NA,NA,NA,NA,NA,NA,NA,NA
7d8d8,"""Richtig""-Screen",canvas.Screen,3_0_0_0_3_0_1,NA,NA,skipped,NA,175056.5,NA,NA,175053.09999999,175056.59999999,2024-03-10T14:23:51Z,175068.3,NULL,Lawine,banguko,d,NA,NA,NA,NA,sdf,NA,0,NA,NA,NA,NA,NA,NA,NA,NA,NA,NA,NA,NA,NA,NA,NA,NA,NA,NA,NA
7d8d8,"""Falsch""-Screen",canvas.Screen,3_0_0_0_3_0_2,NA,NA,timeout,4997,175057.40000001,175052.394,175068.3,180048.6,180049.79999998,2024-03-10T14:23:56Z,180065.3,NULL,Lawine,banguko,d,NA,NA,NA,NA,sdf,0,0,NA,NA,NA,NA,NA,NA,NA,NA,NA,NA,NA,NA,NA,NA,NA,NA,NA,NA,NA
7d8d8,deep,flow.Sequence,3_0_0_0_3_0,NA,NA,completion,11742.5,168291.40000001,168289.2,168306.1,180048.6,180050.19999999,2024-03-10T14:23:56Z,180065.3,NULL,Lawine,banguko,d,NA,NA,NA,NA,sdf,NA,0,NA,NA,NA,NA,NA,NA,NA,NA,NA,NA,NA,NA,NA,NA,NA,NA,NA,NA,NA
7d8d8,shallow,flow.Sequence,3_0_0_0_3_1,NA,NA,skipped,NA,180050.29999998,NA,NA,180048.6,180050.5,2024-03-10T14:23:56Z,180065.3,NULL,Lawine,banguko,d,NA,NA,NA,NA,sdf,NA,0,NA,NA,NA,NA,NA,NA,NA,NA,NA,NA,NA,NA,NA,NA,NA,NA,NA,NA,NA
7d8d8,task,flow.Sequence,3_0_0_0_3,NA,NA,completion,11742.5,168291.29999998,168289.2,168306.1,180048.6,180050.69999999,2024-03-10T14:23:56Z,180065.3,NULL,Lawine,banguko,d,NA,NA,NA,NA,sdf,NA,0,NA,NA,NA,NA,NA,NA,NA,NA,NA,NA,NA,NA,NA,NA,NA,NA,NA,NA,NA
7d8d8,deep,flow.Sequence,3_0_0_0_4_0,NA,NA,skipped,NA,180050.79999998,NA,NA,180048.6,180050.90000001,2024-03-10T14:23:56Z,180065.3,NULL,Körper,kiwiliwili,s,mapambano,mpatanishi,kiolezo,NA,sdf,NA,0,NA,NA,NA,NA,NA,NA,NA,NA,NA,NA,NA,NA,NA,NA,NA,NA,NA,NA,NA
7d8d8,Shallow Question,html.Page,3_0_0_0_4_1_0,NA,NA,form submission,7560.7,180051.09999999,180048.6,180065.3,187626,187626.09999999,2024-03-10T14:24:03Z,187627.988,NULL,Körper,kiwiliwili,s,mapambano,mpatanishi,kiolezo,kiolezo,NA,NA,0,NA,NA,NA,NA,NA,NA,NA,NA,NA,NA,NA,NA,NA,NA,NA,NA,NA,NA,NA
7d8d8,"""Richtig""-Screen",canvas.Screen,3_0_0_0_4_1_1,NA,NA,skipped,NA,187629.19999999,NA,NA,187626,187629.40000001,2024-03-10T14:24:03Z,187627.988,NULL,Körper,kiwiliwili,s,mapambano,mpatanishi,kiolezo,NA,sdf,NA,0,NA,NA,NA,NA,NA,NA,NA,NA,NA,NA,NA,NA,NA,NA,NA,NA,NA,NA,NA
7d8d8,"""Falsch""-Screen",canvas.Screen,3_0_0_0_4_1_2,NA,NA,timeout,4996.312,187630.29999998,187627.988,187627.988,192608,192609.29999998,2024-03-10T14:24:08Z,192624.3,NULL,Körper,kiwiliwili,s,mapambano,mpatanishi,kiolezo,NA,sdf,0,0,NA,NA,NA,NA,NA,NA,NA,NA,NA,NA,NA,NA,NA,NA,NA,NA,NA,NA,NA
7d8d8,shallow,flow.Sequence,3_0_0_0_4_1,NA,NA,completion,12542.7,180051,180048.6,180065.3,192608,192609.5,2024-03-10T14:24:08Z,192624.3,NULL,Körper,kiwiliwili,s,mapambano,mpatanishi,kiolezo,NA,sdf,NA,0,NA,NA,NA,NA,NA,NA,NA,NA,NA,NA,NA,NA,NA,NA,NA,NA,NA,NA,NA
7d8d8,task,flow.Sequence,3_0_0_0_4,NA,NA,completion,12542.7,180050.79999998,180048.6,180065.3,192608,192609.90000001,2024-03-10T14:24:08Z,192624.3,NULL,Körper,kiwiliwili,s,mapambano,mpatanishi,kiolezo,NA,sdf,NA,0,NA,NA,NA,NA,NA,NA,NA,NA,NA,NA,NA,NA,NA,NA,NA,NA,NA,NA,NA
7d8d8,Deep Question,html.Page,3_0_0_0_5_0_0,NA,NA,form submission,6588.100000006,192610.09999999,192608,192624.3,199212.40000001,199212.5,2024-03-10T14:24:15Z,199220.1,NULL,System,maongozi,d,NA,NA,NA,ll,NA,NA,0,NA,NA,NA,NA,NA,NA,NA,NA,NA,NA,NA,NA,NA,NA,NA,NA,NA,NA,NA
7d8d8,"""Richtig""-Screen",canvas.Screen,3_0_0_0_5_0_1,NA,NA,skipped,NA,199215.59999999,NA,NA,199212.40000001,199215.69999999,2024-03-10T14:24:15Z,199220.1,NULL,System,maongozi,d,NA,NA,NA,NA,sdf,NA,0,NA,NA,NA,NA,NA,NA,NA,NA,NA,NA,NA,NA,NA,NA,NA,NA,NA,NA,NA
7d8d8,"""Falsch""-Screen",canvas.Screen,3_0_0_0_5_0_2,NA,NA,timeout,4997.4,199216.40000001,199204.2,199220.1,204200.6,204201.69999999,2024-03-10T14:24:20Z,204217.5,NULL,System,maongozi,d,NA,NA,NA,NA,sdf,0,0,NA,NA,NA,NA,NA,NA,NA,NA,NA,NA,NA,NA,NA,NA,NA,NA,NA,NA,NA
7d8d8,deep,flow.Sequence,3_0_0_0_5_0,NA,NA,completion,11576.3,192610,192608,192624.3,204200.6,204202.09999999,2024-03-10T14:24:20Z,204217.5,NULL,System,maongozi,d,NA,NA,NA,NA,sdf,NA,0,NA,NA,NA,NA,NA,NA,NA,NA,NA,NA,NA,NA,NA,NA,NA,NA,NA,NA,NA
7d8d8,shallow,flow.Sequence,3_0_0_0_5_1,NA,NA,skipped,NA,204202.29999998,NA,NA,204200.6,204202.40000001,2024-03-10T14:24:20Z,204217.5,NULL,System,maongozi,d,NA,NA,NA,NA,sdf,NA,0,NA,NA,NA,NA,NA,NA,NA,NA,NA,NA,NA,NA,NA,NA,NA,NA,NA,NA,NA
7d8d8,task,flow.Sequence,3_0_0_0_5,NA,NA,completion,11576.3,192610,192608,192624.3,204200.6,204202.59999999,2024-03-10T14:24:20Z,204217.5,NULL,System,maongozi,d,NA,NA,NA,NA,sdf,NA,0,NA,NA,NA,NA,NA,NA,NA,NA,NA,NA,NA,NA,NA,NA,NA,NA,NA,NA,NA
7d8d8,Deep Question,html.Page,3_0_0_0_6_0_0,NA,NA,form submission,10229.199999988,204202.79999998,204200.6,204217.5,214446.69999999,214447,2024-03-10T14:24:30Z,214461.3,NULL,Papier,karatasi,d,NA,NA,NA,ii,NA,NA,0,NA,NA,NA,NA,NA,NA,NA,NA,NA,NA,NA,NA,NA,NA,NA,NA,NA,NA,NA
7d8d8,"""Richtig""-Screen",canvas.Screen,3_0_0_0_6_0_1,NA,NA,skipped,NA,214450.09999999,NA,NA,214446.69999999,214450.19999999,2024-03-10T14:24:30Z,214461.3,NULL,Papier,karatasi,d,NA,NA,NA,NA,sdf,NA,0,NA,NA,NA,NA,NA,NA,NA,NA,NA,NA,NA,NA,NA,NA,NA,NA,NA,NA,NA
7d8d8,"""Falsch""-Screen",canvas.Screen,3_0_0_0_6_0_2,NA,NA,timeout,4996.8,214451,214444.732,214461.3,219441.2,219441.90000001,2024-03-10T14:24:35Z,219458.1,NULL,Papier,karatasi,d,NA,NA,NA,NA,sdf,0,0,NA,NA,NA,NA,NA,NA,NA,NA,NA,NA,NA,NA,NA,NA,NA,NA,NA,NA,NA
7d8d8,deep,flow.Sequence,3_0_0_0_6_0,NA,NA,completion,15223.7,204202.79999998,204200.6,204217.5,219441.2,219442.09999999,2024-03-10T14:24:35Z,219458.1,NULL,Papier,karatasi,d,NA,NA,NA,NA,sdf,NA,0,NA,NA,NA,NA,NA,NA,NA,NA,NA,NA,NA,NA,NA,NA,NA,NA,NA,NA,NA
7d8d8,shallow,flow.Sequence,3_0_0_0_6_1,NA,NA,skipped,NA,219442.29999998,NA,NA,219441.2,219442.29999998,2024-03-10T14:24:35Z,219458.1,NULL,Papier,karatasi,d,NA,NA,NA,NA,sdf,NA,0,NA,NA,NA,NA,NA,NA,NA,NA,NA,NA,NA,NA,NA,NA,NA,NA,NA,NA,NA
7d8d8,task,flow.Sequence,3_0_0_0_6,NA,NA,completion,15223.7,204202.69999999,204200.6,204217.5,219441.2,219442.5,2024-03-10T14:24:35Z,219458.1,NULL,Papier,karatasi,d,NA,NA,NA,NA,sdf,NA,0,NA,NA,NA,NA,NA,NA,NA,NA,NA,NA,NA,NA,NA,NA,NA,NA,NA,NA,NA
7d8d8,deep,flow.Sequence,3_0_0_0_7_0,NA,NA,skipped,NA,219442.59999999,NA,NA,219441.2,219442.59999999,2024-03-10T14:24:35Z,219458.1,NULL,Vorwurf,mashtaka,s,msukumo,mtangulizi,uenyekiti,NA,sdf,NA,0,NA,NA,NA,NA,NA,NA,NA,NA,NA,NA,NA,NA,NA,NA,NA,NA,NA,NA,NA
7d8d8,Shallow Question,html.Page,3_0_0_0_7_1_0,NA,NA,form submission,9194.300000006,219442.79999998,219441.2,219458.1,228652.40000001,228652.59999999,2024-03-10T14:24:44Z,228668.8,NULL,Vorwurf,mashtaka,s,msukumo,mtangulizi,uenyekiti,mashtaka,NA,NA,0,NA,NA,NA,NA,NA,NA,NA,NA,NA,NA,NA,NA,NA,NA,NA,NA,NA,NA,NA
7d8d8,"""Richtig""-Screen",canvas.Screen,3_0_0_0_7_1_1,NA,NA,timeout,4997.4,228655.59999999,228652.566,228668.8,233649.3,233650.5,2024-03-10T14:24:49Z,233666.2,NULL,Vorwurf,mashtaka,s,msukumo,mtangulizi,uenyekiti,NA,sdf,1,0,NA,NA,NA,NA,NA,NA,NA,NA,NA,NA,NA,NA,NA,NA,NA,NA,NA,NA,NA
7d8d8,"""Falsch""-Screen",canvas.Screen,3_0_0_0_7_1_2,NA,NA,skipped,NA,233655.59999999,NA,NA,233649.3,233655.69999999,2024-03-10T14:24:49Z,233666.2,NULL,Vorwurf,mashtaka,s,msukumo,mtangulizi,uenyekiti,NA,sdf,NA,0,NA,NA,NA,NA,NA,NA,NA,NA,NA,NA,NA,NA,NA,NA,NA,NA,NA,NA,NA
7d8d8,shallow,flow.Sequence,3_0_0_0_7_1,NA,NA,completion,14191.2,219442.69999999,219441.2,219458.1,233649.3,233655.79999998,2024-03-10T14:24:49Z,233666.2,NULL,Vorwurf,mashtaka,s,msukumo,mtangulizi,uenyekiti,NA,sdf,NA,0,NA,NA,NA,NA,NA,NA,NA,NA,NA,NA,NA,NA,NA,NA,NA,NA,NA,NA,NA
7d8d8,task,flow.Sequence,3_0_0_0_7,NA,NA,completion,14191.2,219442.59999999,219441.2,219458.1,233649.3,233655.90000001,2024-03-10T14:24:49Z,233666.2,NULL,Vorwurf,mashtaka,s,msukumo,mtangulizi,uenyekiti,NA,sdf,NA,0,NA,NA,NA,NA,NA,NA,NA,NA,NA,NA,NA,NA,NA,NA,NA,NA,NA,NA,NA
7d8d8,block,flow.Loop,3_0_0_0,NA,NA,completion,113629.582,120028.40000001,120019.718,120019.718,233649.3,233655.90000001,2024-03-10T14:24:49Z,233666.2,NULL,NA,NA,NA,NA,NA,NA,NA,sdf,NA,0,NA,NA,NA,NA,NA,NA,NA,NA,NA,NA,NA,NA,NA,NA,NA,NA,NA,NA,NA
7d8d8,weiter,canvas.Screen,3_0_0_1,sdf,keypress(Space),response,3329.8,233655.90000001,233649.3,233666.2,236996,236997,2024-03-10T14:24:52Z,237014.7,NULL,NA,NA,NA,NA,NA,NA,NA,sdf,NA,0,NA,NA,NA,NA,NA,NA,NA,NA,NA,NA,NA,NA,NA,NA,NA,NA,NA,NA,NA
7d8d8,check continue,flow.Sequence,3_0_0,NA,NA,completion,116976.282,120028.40000001,120019.718,120019.718,236996,236997.19999999,2024-03-10T14:24:52Z,237014.7,NULL,NA,NA,NA,NA,NA,NA,NA,sdf,NA,0,NA,NA,NA,NA,NA,NA,NA,NA,NA,NA,NA,NA,NA,NA,NA,NA,NA,NA,NA
7d8d8,Deep Question,html.Page,3_0_1_0_0_0_0,NA,NA,form submission,6673.7000000059,237016.19999999,237014.528,237014.7,243688.40000001,243688.59999999,2024-03-10T14:24:59Z,243692.9,NULL,System,maongozi,d,NA,NA,NA,hh,NA,NA,1,NA,NA,NA,NA,NA,NA,NA,NA,NA,NA,NA,NA,NA,NA,NA,NA,NA,NA,NA
7d8d8,"""Richtig""-Screen",canvas.Screen,3_0_1_0_0_0_1,NA,NA,skipped,NA,243690.09999999,NA,NA,243688.40000001,243690.09999999,2024-03-10T14:24:59Z,243692.9,NULL,System,maongozi,d,NA,NA,NA,NA,sdfdsf,NA,1,NA,NA,NA,NA,NA,NA,NA,NA,NA,NA,NA,NA,NA,NA,NA,NA,NA,NA,NA
7d8d8,"""Falsch""-Screen",canvas.Screen,3_0_1_0_0_0_2,NA,NA,timeout,4997.1,243690.5,243677.486,243692.9,248673.4,248674.5,2024-03-10T14:25:04Z,248690,NULL,System,maongozi,d,NA,NA,NA,NA,sdfdsf,0,1,NA,NA,NA,NA,NA,NA,NA,NA,NA,NA,NA,NA,NA,NA,NA,NA,NA,NA,NA
7d8d8,deep,flow.Sequence,3_0_1_0_0_0,NA,NA,completion,11658.7,237016.19999999,237014.528,237014.7,248673.4,248674.90000001,2024-03-10T14:25:04Z,248690,NULL,System,maongozi,d,NA,NA,NA,NA,sdfdsf,NA,1,NA,NA,NA,NA,NA,NA,NA,NA,NA,NA,NA,NA,NA,NA,NA,NA,NA,NA,NA
7d8d8,shallow,flow.Sequence,3_0_1_0_0_1,NA,NA,skipped,NA,248675,NA,NA,248673.4,248675.19999999,2024-03-10T14:25:04Z,248690,NULL,System,maongozi,d,NA,NA,NA,NA,sdfdsf,NA,1,NA,NA,NA,NA,NA,NA,NA,NA,NA,NA,NA,NA,NA,NA,NA,NA,NA,NA,NA
7d8d8,task,flow.Sequence,3_0_1_0_0,NA,NA,completion,11658.7,237016.19999999,237014.528,237014.7,248673.4,248675.5,2024-03-10T14:25:04Z,248690,NULL,System,maongozi,d,NA,NA,NA,NA,sdfdsf,NA,1,NA,NA,NA,NA,NA,NA,NA,NA,NA,NA,NA,NA,NA,NA,NA,NA,NA,NA,NA
7d8d8,Deep Question,html.Page,3_0_1_0_1_0_0,NA,NA,form submission,5173.6999999881,248675.69999999,248673.4,248690,253863.69999999,253863.90000001,2024-03-10T14:25:09Z,253870,NULL,Lawine,banguko,d,NA,NA,NA,uu,NA,NA,1,NA,NA,NA,NA,NA,NA,NA,NA,NA,NA,NA,NA,NA,NA,NA,NA,NA,NA,NA
7d8d8,"""Richtig""-Screen",canvas.Screen,3_0_1_0_1_0_1,NA,NA,skipped,NA,253867,NA,NA,253863.69999999,253867.19999999,2024-03-10T14:25:09Z,253870,NULL,Lawine,banguko,d,NA,NA,NA,NA,sdfdsf,NA,1,NA,NA,NA,NA,NA,NA,NA,NA,NA,NA,NA,NA,NA,NA,NA,NA,NA,NA,NA
7d8d8,"""Falsch""-Screen",canvas.Screen,3_0_1_0_1_0_2,NA,NA,timeout,4997.4,253867.90000001,253854.334,253870,258850.6,258851.59999999,2024-03-10T14:25:14Z,258867.4,NULL,Lawine,banguko,d,NA,NA,NA,NA,sdfdsf,0,1,NA,NA,NA,NA,NA,NA,NA,NA,NA,NA,NA,NA,NA,NA,NA,NA,NA,NA,NA
7d8d8,deep,flow.Sequence,3_0_1_0_1_0,NA,NA,completion,10160.6,248675.59999999,248673.4,248690,258850.6,258852,2024-03-10T14:25:14Z,258867.4,NULL,Lawine,banguko,d,NA,NA,NA,NA,sdfdsf,NA,1,NA,NA,NA,NA,NA,NA,NA,NA,NA,NA,NA,NA,NA,NA,NA,NA,NA,NA,NA
7d8d8,shallow,flow.Sequence,3_0_1_0_1_1,NA,NA,skipped,NA,258852.09999999,NA,NA,258850.6,258852.19999999,2024-03-10T14:25:14Z,258867.4,NULL,Lawine,banguko,d,NA,NA,NA,NA,sdfdsf,NA,1,NA,NA,NA,NA,NA,NA,NA,NA,NA,NA,NA,NA,NA,NA,NA,NA,NA,NA,NA
7d8d8,task,flow.Sequence,3_0_1_0_1,NA,NA,completion,10160.6,248675.5,248673.4,248690,258850.6,258852.5,2024-03-10T14:25:14Z,258867.4,NULL,Lawine,banguko,d,NA,NA,NA,NA,sdfdsf,NA,1,NA,NA,NA,NA,NA,NA,NA,NA,NA,NA,NA,NA,NA,NA,NA,NA,NA,NA,NA
7d8d8,deep,flow.Sequence,3_0_1_0_2_0,NA,NA,skipped,NA,258852.59999999,NA,NA,258850.6,258852.69999999,2024-03-10T14:25:14Z,258867.4,NULL,Entwicklung,maendeleo,s,uangavu,mshindwa,badiliko,NA,sdfdsf,NA,1,NA,NA,NA,NA,NA,NA,NA,NA,NA,NA,NA,NA,NA,NA,NA,NA,NA,NA,NA
7d8d8,Shallow Question,html.Page,3_0_1_0_2_1_0,NA,NA,form submission,5570.3999999821,258852.90000001,258850.6,258867.4,264437.79999998,264438,2024-03-10T14:25:20Z,264464.1,NULL,Entwicklung,maendeleo,s,uangavu,mshindwa,badiliko,mshindwa,NA,NA,1,NA,NA,NA,NA,NA,NA,NA,NA,NA,NA,NA,NA,NA,NA,NA,NA,NA,NA,NA
7d8d8,"""Richtig""-Screen",canvas.Screen,3_0_1_0_2_1_1,NA,NA,skipped,NA,264441.09999999,NA,NA,264437.79999998,264441.19999999,2024-03-10T14:25:20Z,264464.1,NULL,Entwicklung,maendeleo,s,uangavu,mshindwa,badiliko,NA,sdfdsf,NA,1,NA,NA,NA,NA,NA,NA,NA,NA,NA,NA,NA,NA,NA,NA,NA,NA,NA,NA,NA
7d8d8,"""Falsch""-Screen",canvas.Screen,3_0_1_0_2_1_2,NA,NA,timeout,4996.8,264442,264447.56,264464.1,269444.4,269445.19999999,2024-03-10T14:25:25Z,269460.9,NULL,Entwicklung,maendeleo,s,uangavu,mshindwa,badiliko,NA,sdfdsf,0,1,NA,NA,NA,NA,NA,NA,NA,NA,NA,NA,NA,NA,NA,NA,NA,NA,NA,NA,NA
7d8d8,shallow,flow.Sequence,3_0_1_0_2_1,NA,NA,completion,10577,258852.79999998,258850.6,258867.4,269444.4,269445.59999999,2024-03-10T14:25:25Z,269460.9,NULL,Entwicklung,maendeleo,s,uangavu,mshindwa,badiliko,NA,sdfdsf,NA,1,NA,NA,NA,NA,NA,NA,NA,NA,NA,NA,NA,NA,NA,NA,NA,NA,NA,NA,NA
7d8d8,task,flow.Sequence,3_0_1_0_2,NA,NA,completion,10577,258852.5,258850.6,258867.4,269444.4,269445.79999998,2024-03-10T14:25:25Z,269460.9,NULL,Entwicklung,maendeleo,s,uangavu,mshindwa,badiliko,NA,sdfdsf,NA,1,NA,NA,NA,NA,NA,NA,NA,NA,NA,NA,NA,NA,NA,NA,NA,NA,NA,NA,NA
7d8d8,deep,flow.Sequence,3_0_1_0_3_0,NA,NA,skipped,NA,269446,NA,NA,269444.4,269446.09999999,2024-03-10T14:25:25Z,269460.9,NULL,Körper,kiwiliwili,s,mapambano,mpatanishi,kiolezo,NA,sdfdsf,NA,1,NA,NA,NA,NA,NA,NA,NA,NA,NA,NA,NA,NA,NA,NA,NA,NA,NA,NA,NA
7d8d8,Shallow Question,html.Page,3_0_1_0_3_1_0,NA,NA,form submission,4127.699999994,269446.19999999,269444.4,269460.9,273588.59999999,273588.79999998,2024-03-10T14:25:29Z,273608.6,NULL,Körper,kiwiliwili,s,mapambano,mpatanishi,kiolezo,kiwiliwili,NA,NA,1,NA,NA,NA,NA,NA,NA,NA,NA,NA,NA,NA,NA,NA,NA,NA,NA,NA,NA,NA
7d8d8,"""Richtig""-Screen",canvas.Screen,3_0_1_0_3_1_1,NA,NA,timeout,4996.9,273592.09999999,273591.866,273608.6,278588.9,278589.29999998,2024-03-10T14:25:34Z,278605.5,NULL,Körper,kiwiliwili,s,mapambano,mpatanishi,kiolezo,NA,sdfdsf,1,1,NA,NA,NA,NA,NA,NA,NA,NA,NA,NA,NA,NA,NA,NA,NA,NA,NA,NA,NA
7d8d8,"""Falsch""-Screen",canvas.Screen,3_0_1_0_3_1_2,NA,NA,skipped,NA,278590.69999999,NA,NA,278588.9,278590.79999998,2024-03-10T14:25:34Z,278605.5,NULL,Körper,kiwiliwili,s,mapambano,mpatanishi,kiolezo,NA,sdfdsf,NA,1,NA,NA,NA,NA,NA,NA,NA,NA,NA,NA,NA,NA,NA,NA,NA,NA,NA,NA,NA
7d8d8,shallow,flow.Sequence,3_0_1_0_3_1,NA,NA,completion,9128,269446.19999999,269444.4,269460.9,278588.9,278590.90000001,2024-03-10T14:25:34Z,278605.5,NULL,Körper,kiwiliwili,s,mapambano,mpatanishi,kiolezo,NA,sdfdsf,NA,1,NA,NA,NA,NA,NA,NA,NA,NA,NA,NA,NA,NA,NA,NA,NA,NA,NA,NA,NA
7d8d8,task,flow.Sequence,3_0_1_0_3,NA,NA,completion,9128,269446,269444.4,269460.9,278588.9,278590.90000001,2024-03-10T14:25:34Z,278605.5,NULL,Körper,kiwiliwili,s,mapambano,mpatanishi,kiolezo,NA,sdfdsf,NA,1,NA,NA,NA,NA,NA,NA,NA,NA,NA,NA,NA,NA,NA,NA,NA,NA,NA,NA,NA
7d8d8,deep,flow.Sequence,3_0_1_0_4_0,NA,NA,skipped,NA,278591,NA,NA,278588.9,278591,2024-03-10T14:25:34Z,278605.5,NULL,Übersicht,kilindo,s,mgusano,chipukizi,kulinganisha,NA,sdfdsf,NA,1,NA,NA,NA,NA,NA,NA,NA,NA,NA,NA,NA,NA,NA,NA,NA,NA,NA,NA,NA
7d8d8,Shallow Question,html.Page,3_0_1_0_4_1_0,NA,NA,form submission,6500.5,278591,278588.9,278605.5,285106,285106.19999999,2024-03-10T14:25:41Z,285118,NULL,Übersicht,kilindo,s,mgusano,chipukizi,kulinganisha,kilindo,NA,NA,1,NA,NA,NA,NA,NA,NA,NA,NA,NA,NA,NA,NA,NA,NA,NA,NA,NA,NA,NA
7d8d8,"""Richtig""-Screen",canvas.Screen,3_0_1_0_4_1_1,NA,NA,timeout,4997,285109.19999999,285101.622,285118,290098.2,290098.69999999,2024-03-10T14:25:46Z,290115,NULL,Übersicht,kilindo,s,mgusano,chipukizi,kulinganisha,NA,sdfdsf,1,1,NA,NA,NA,NA,NA,NA,NA,NA,NA,NA,NA,NA,NA,NA,NA,NA,NA,NA,NA
7d8d8,"""Falsch""-Screen",canvas.Screen,3_0_1_0_4_1_2,NA,NA,skipped,NA,290101.69999999,NA,NA,290098.2,290102,2024-03-10T14:25:46Z,290115,NULL,Übersicht,kilindo,s,mgusano,chipukizi,kulinganisha,NA,sdfdsf,NA,1,NA,NA,NA,NA,NA,NA,NA,NA,NA,NA,NA,NA,NA,NA,NA,NA,NA,NA,NA
7d8d8,shallow,flow.Sequence,3_0_1_0_4_1,NA,NA,completion,11492.7,278591,278588.9,278605.5,290098.2,290102.19999999,2024-03-10T14:25:46Z,290115,NULL,Übersicht,kilindo,s,mgusano,chipukizi,kulinganisha,NA,sdfdsf,NA,1,NA,NA,NA,NA,NA,NA,NA,NA,NA,NA,NA,NA,NA,NA,NA,NA,NA,NA,NA
7d8d8,task,flow.Sequence,3_0_1_0_4,NA,NA,completion,11492.7,278591,278588.9,278605.5,290098.2,290102.29999998,2024-03-10T14:25:46Z,290115,NULL,Übersicht,kilindo,s,mgusano,chipukizi,kulinganisha,NA,sdfdsf,NA,1,NA,NA,NA,NA,NA,NA,NA,NA,NA,NA,NA,NA,NA,NA,NA,NA,NA,NA,NA
7d8d8,Deep Question,html.Page,3_0_1_0_5_0_0,NA,NA,form submission,4081.099999994,290102.29999998,290098.2,290115,294196.09999999,294196.29999998,2024-03-10T14:25:50Z,294212.1,NULL,Niveau,kiwango,d,NA,NA,NA,hh,NA,NA,1,NA,NA,NA,NA,NA,NA,NA,NA,NA,NA,NA,NA,NA,NA,NA,NA,NA,NA,NA
7d8d8,"""Richtig""-Screen",canvas.Screen,3_0_1_0_5_0_1,NA,NA,skipped,NA,294200.09999999,NA,NA,294196.09999999,294200.29999998,2024-03-10T14:25:50Z,294212.1,NULL,Niveau,kiwango,d,NA,NA,NA,NA,sdfdsf,NA,1,NA,NA,NA,NA,NA,NA,NA,NA,NA,NA,NA,NA,NA,NA,NA,NA,NA,NA,NA
7d8d8,"""Falsch""-Screen",canvas.Screen,3_0_1_0_5_0_2,NA,NA,timeout,4997.2,294200.59999999,294195.892,294212.1,299192.5,299193.29999998,2024-03-10T14:25:55Z,299209.3,NULL,Niveau,kiwango,d,NA,NA,NA,NA,sdfdsf,0,1,NA,NA,NA,NA,NA,NA,NA,NA,NA,NA,NA,NA,NA,NA,NA,NA,NA,NA,NA
7d8d8,deep,flow.Sequence,3_0_1_0_5_0,NA,NA,completion,9077.5,290102.29999998,290098.2,290115,299192.5,299193.79999998,2024-03-10T14:25:55Z,299209.3,NULL,Niveau,kiwango,d,NA,NA,NA,NA,sdfdsf,NA,1,NA,NA,NA,NA,NA,NA,NA,NA,NA,NA,NA,NA,NA,NA,NA,NA,NA,NA,NA
7d8d8,shallow,flow.Sequence,3_0_1_0_5_1,NA,NA,skipped,NA,299194,NA,NA,299192.5,299194.09999999,2024-03-10T14:25:55Z,299209.3,NULL,Niveau,kiwango,d,NA,NA,NA,NA,sdfdsf,NA,1,NA,NA,NA,NA,NA,NA,NA,NA,NA,NA,NA,NA,NA,NA,NA,NA,NA,NA,NA
7d8d8,task,flow.Sequence,3_0_1_0_5,NA,NA,completion,9077.5,290102.29999998,290098.2,290115,299192.5,299194.29999998,2024-03-10T14:25:55Z,299209.3,NULL,Niveau,kiwango,d,NA,NA,NA,NA,sdfdsf,NA,1,NA,NA,NA,NA,NA,NA,NA,NA,NA,NA,NA,NA,NA,NA,NA,NA,NA,NA,NA
7d8d8,Deep Question,html.Page,3_0_1_0_6_0_0,NA,NA,form submission,3309.2,299194.5,299192.5,299209.3,302518.5,302518.69999999,2024-03-10T14:25:58Z,302523.6,NULL,Papier,karatasi,d,NA,NA,NA,iii,NA,NA,1,NA,NA,NA,NA,NA,NA,NA,NA,NA,NA,NA,NA,NA,NA,NA,NA,NA,NA,NA
7d8d8,"""Richtig""-Screen",canvas.Screen,3_0_1_0_6_0_1,NA,NA,skipped,NA,302521.79999998,NA,NA,302518.5,302522,2024-03-10T14:25:58Z,302523.6,NULL,Papier,karatasi,d,NA,NA,NA,NA,sdfdsf,NA,1,NA,NA,NA,NA,NA,NA,NA,NA,NA,NA,NA,NA,NA,NA,NA,NA,NA,NA,NA
7d8d8,"""Falsch""-Screen",canvas.Screen,3_0_1_0_6_0_2,NA,NA,timeout,4996.9,302522.5,302507.524,302523.6,307504.2,307505.09999999,2024-03-10T14:26:03Z,307520.5,NULL,Papier,karatasi,d,NA,NA,NA,NA,sdfdsf,0,1,NA,NA,NA,NA,NA,NA,NA,NA,NA,NA,NA,NA,NA,NA,NA,NA,NA,NA,NA
7d8d8,deep,flow.Sequence,3_0_1_0_6_0,NA,NA,completion,8294.9,299194.5,299192.5,299209.3,307504.2,307505.5,2024-03-10T14:26:03Z,307520.5,NULL,Papier,karatasi,d,NA,NA,NA,NA,sdfdsf,NA,1,NA,NA,NA,NA,NA,NA,NA,NA,NA,NA,NA,NA,NA,NA,NA,NA,NA,NA,NA
7d8d8,shallow,flow.Sequence,3_0_1_0_6_1,NA,NA,skipped,NA,307505.69999999,NA,NA,307504.2,307505.79999998,2024-03-10T14:26:03Z,307520.5,NULL,Papier,karatasi,d,NA,NA,NA,NA,sdfdsf,NA,1,NA,NA,NA,NA,NA,NA,NA,NA,NA,NA,NA,NA,NA,NA,NA,NA,NA,NA,NA
7d8d8,task,flow.Sequence,3_0_1_0_6,NA,NA,completion,8294.9,299194.40000001,299192.5,299209.3,307504.2,307506,2024-03-10T14:26:03Z,307520.5,NULL,Papier,karatasi,d,NA,NA,NA,NA,sdfdsf,NA,1,NA,NA,NA,NA,NA,NA,NA,NA,NA,NA,NA,NA,NA,NA,NA,NA,NA,NA,NA
7d8d8,deep,flow.Sequence,3_0_1_0_7_0,NA,NA,skipped,NA,307506.09999999,NA,NA,307504.2,307506.19999999,2024-03-10T14:26:03Z,307520.5,NULL,Vorwurf,mashtaka,s,msukumo,mtangulizi,uenyekiti,NA,sdfdsf,NA,1,NA,NA,NA,NA,NA,NA,NA,NA,NA,NA,NA,NA,NA,NA,NA,NA,NA,NA,NA
7d8d8,Shallow Question,html.Page,3_0_1_0_7_1_0,NA,NA,form submission,7867.599999994,307506.40000001,307504.2,307520.5,315388.09999999,315388.29999998,2024-03-10T14:26:11Z,315399.2,NULL,Vorwurf,mashtaka,s,msukumo,mtangulizi,uenyekiti,uenyekiti,NA,NA,1,NA,NA,NA,NA,NA,NA,NA,NA,NA,NA,NA,NA,NA,NA,NA,NA,NA,NA,NA
7d8d8,"""Richtig""-Screen",canvas.Screen,3_0_1_0_7_1_1,NA,NA,skipped,NA,315391.29999998,NA,NA,315388.09999999,315391.40000001,2024-03-10T14:26:11Z,315399.2,NULL,Vorwurf,mashtaka,s,msukumo,mtangulizi,uenyekiti,NA,sdfdsf,NA,1,NA,NA,NA,NA,NA,NA,NA,NA,NA,NA,NA,NA,NA,NA,NA,NA,NA,NA,NA
7d8d8,"""Falsch""-Screen",canvas.Screen,3_0_1_0_7_1_2,NA,NA,timeout,4996.8,315392.09999999,315383.016,315399.2,320379.7,320380.09999999,2024-03-10T14:26:16Z,320396,NULL,Vorwurf,mashtaka,s,msukumo,mtangulizi,uenyekiti,NA,sdfdsf,0,1,NA,NA,NA,NA,NA,NA,NA,NA,NA,NA,NA,NA,NA,NA,NA,NA,NA,NA,NA
7d8d8,shallow,flow.Sequence,3_0_1_0_7_1,NA,NA,completion,12859.2,307506.40000001,307504.2,307520.5,320379.7,320380.19999999,2024-03-10T14:26:16Z,320396,NULL,Vorwurf,mashtaka,s,msukumo,mtangulizi,uenyekiti,NA,sdfdsf,NA,1,NA,NA,NA,NA,NA,NA,NA,NA,NA,NA,NA,NA,NA,NA,NA,NA,NA,NA,NA
7d8d8,task,flow.Sequence,3_0_1_0_7,NA,NA,completion,12859.2,307506.09999999,307504.2,307520.5,320379.7,320380.19999999,2024-03-10T14:26:16Z,320396,NULL,Vorwurf,mashtaka,s,msukumo,mtangulizi,uenyekiti,NA,sdfdsf,NA,1,NA,NA,NA,NA,NA,NA,NA,NA,NA,NA,NA,NA,NA,NA,NA,NA,NA,NA,NA
7d8d8,block,flow.Loop,3_0_1_0,NA,NA,completion,83365,237016.19999999,237014.528,237014.7,320379.7,320380.29999998,2024-03-10T14:26:16Z,320396,NULL,NA,NA,NA,NA,NA,NA,NA,sdfdsf,NA,1,NA,NA,NA,NA,NA,NA,NA,NA,NA,NA,NA,NA,NA,NA,NA,NA,NA,NA,NA
7d8d8,weiter,canvas.Screen,3_0_1_1,sdf,keypress(Space),response,2102.7999999821,320380.29999998,320379.7,320396,322498.79999998,322499.19999999,2024-03-10T14:26:18Z,322528.6,NULL,NA,NA,NA,NA,NA,NA,NA,sdfdsf,NA,1,NA,NA,NA,NA,NA,NA,NA,NA,NA,NA,NA,NA,NA,NA,NA,NA,NA,NA,NA
7d8d8,check continue,flow.Sequence,3_0_1,NA,NA,completion,85484.099999982,237016.19999999,237014.528,237014.7,322498.79999998,322499.19999999,2024-03-10T14:26:18Z,322528.6,NULL,NA,NA,NA,NA,NA,NA,NA,sdfdsf,NA,1,NA,NA,NA,NA,NA,NA,NA,NA,NA,NA,NA,NA,NA,NA,NA,NA,NA,NA,NA
7d8d8,deep,flow.Sequence,3_0_2_0_0_0,NA,NA,skipped,NA,322514.90000001,NA,NA,322498.79999998,322515,2024-03-10T14:26:18Z,322528.6,NULL,Körper,kiwiliwili,s,mapambano,mpatanishi,kiolezo,NA,sdf,NA,2,NA,NA,NA,NA,NA,NA,NA,NA,NA,NA,NA,NA,NA,NA,NA,NA,NA,NA,NA
7d8d8,Shallow Question,html.Page,3_0_2_0_0_1_0,NA,NA,form submission,3282.4999999941,322515,322511.366,322528.6,325811.09999999,325811.29999998,2024-03-10T14:26:21Z,325843,NULL,Körper,kiwiliwili,s,mapambano,mpatanishi,kiolezo,kiwiliwili,NA,NA,2,NA,NA,NA,NA,NA,NA,NA,NA,NA,NA,NA,NA,NA,NA,NA,NA,NA,NA,NA
7d8d8,"""Richtig""-Screen",canvas.Screen,3_0_2_0_0_1_1,NA,NA,timeout,4997,325813,325826.4,325843,330823.4,330824.40000001,2024-03-10T14:26:26Z,330840,NULL,Körper,kiwiliwili,s,mapambano,mpatanishi,kiolezo,NA,sdf,1,2,NA,NA,NA,NA,NA,NA,NA,NA,NA,NA,NA,NA,NA,NA,NA,NA,NA,NA,NA
7d8d8,"""Falsch""-Screen",canvas.Screen,3_0_2_0_0_1_2,NA,NA,skipped,NA,330829.59999999,NA,NA,330823.4,330829.69999999,2024-03-10T14:26:26Z,330840,NULL,Körper,kiwiliwili,s,mapambano,mpatanishi,kiolezo,NA,sdf,NA,2,NA,NA,NA,NA,NA,NA,NA,NA,NA,NA,NA,NA,NA,NA,NA,NA,NA,NA,NA
7d8d8,shallow,flow.Sequence,3_0_2_0_0_1,NA,NA,completion,8294.8,322515,322511.366,322528.6,330823.4,330829.79999998,2024-03-10T14:26:26Z,330840,NULL,Körper,kiwiliwili,s,mapambano,mpatanishi,kiolezo,NA,sdf,NA,2,NA,NA,NA,NA,NA,NA,NA,NA,NA,NA,NA,NA,NA,NA,NA,NA,NA,NA,NA
7d8d8,task,flow.Sequence,3_0_2_0_0,NA,NA,completion,8294.8,322514.90000001,322511.366,322528.6,330823.4,330829.90000001,2024-03-10T14:26:26Z,330840,NULL,Körper,kiwiliwili,s,mapambano,mpatanishi,kiolezo,NA,sdf,NA,2,NA,NA,NA,NA,NA,NA,NA,NA,NA,NA,NA,NA,NA,NA,NA,NA,NA,NA,NA
7d8d8,Deep Question,html.Page,3_0_2_0_1_0_0,NA,NA,form submission,30031.799999982,330829.90000001,330823.4,330840,360871.79999998,360872,2024-03-10T14:26:56Z,360888.3,NULL,Papier,karatasi,d,NA,NA,NA,karatasi,NA,NA,2,NA,NA,NA,NA,NA,NA,NA,NA,NA,NA,NA,NA,NA,NA,NA,NA,NA,NA,NA
7d8d8,"""Richtig""-Screen",canvas.Screen,3_0_2_0_1_0_1,NA,NA,timeout,4997,360875.09999999,360871.55,360888.3,365868.7,365869.59999999,2024-03-10T14:27:01Z,365885.3,NULL,Papier,karatasi,d,NA,NA,NA,NA,sdf,1,2,NA,NA,NA,NA,NA,NA,NA,NA,NA,NA,NA,NA,NA,NA,NA,NA,NA,NA,NA
7d8d8,"""Falsch""-Screen",canvas.Screen,3_0_2_0_1_0_2,NA,NA,skipped,NA,365875,NA,NA,365868.7,365875.09999999,2024-03-10T14:27:01Z,365885.3,NULL,Papier,karatasi,d,NA,NA,NA,NA,sdf,NA,2,NA,NA,NA,NA,NA,NA,NA,NA,NA,NA,NA,NA,NA,NA,NA,NA,NA,NA,NA
7d8d8,deep,flow.Sequence,3_0_2_0_1_0,NA,NA,completion,35028.7,330829.90000001,330823.4,330840,365868.7,365875.09999999,2024-03-10T14:27:01Z,365885.3,NULL,Papier,karatasi,d,NA,NA,NA,NA,sdf,NA,2,NA,NA,NA,NA,NA,NA,NA,NA,NA,NA,NA,NA,NA,NA,NA,NA,NA,NA,NA
7d8d8,shallow,flow.Sequence,3_0_2_0_1_1,NA,NA,skipped,NA,365875.09999999,NA,NA,365868.7,365875.19999999,2024-03-10T14:27:01Z,365885.3,NULL,Papier,karatasi,d,NA,NA,NA,NA,sdf,NA,2,NA,NA,NA,NA,NA,NA,NA,NA,NA,NA,NA,NA,NA,NA,NA,NA,NA,NA,NA
7d8d8,task,flow.Sequence,3_0_2_0_1,NA,NA,completion,35028.7,330829.90000001,330823.4,330840,365868.7,365875.19999999,2024-03-10T14:27:01Z,365885.3,NULL,Papier,karatasi,d,NA,NA,NA,NA,sdf,NA,2,NA,NA,NA,NA,NA,NA,NA,NA,NA,NA,NA,NA,NA,NA,NA,NA,NA,NA,NA
7d8d8,Deep Question,html.Page,3_0_2_0_2_0_0,NA,NA,form submission,8113.9999999821,365875.19999999,365868.7,365885.3,373999.29999998,373999.59999999,2024-03-10T14:27:09Z,374013.7,NULL,Niveau,kiwango,d,NA,NA,NA,c,NA,NA,2,NA,NA,NA,NA,NA,NA,NA,NA,NA,NA,NA,NA,NA,NA,NA,NA,NA,NA,NA
7d8d8,"""Richtig""-Screen",canvas.Screen,3_0_2_0_2_0_1,NA,NA,skipped,NA,374003.29999998,NA,NA,373999.29999998,374003.40000001,2024-03-10T14:27:09Z,374013.7,NULL,Niveau,kiwango,d,NA,NA,NA,NA,sdf,NA,2,NA,NA,NA,NA,NA,NA,NA,NA,NA,NA,NA,NA,NA,NA,NA,NA,NA,NA,NA
7d8d8,"""Falsch""-Screen",canvas.Screen,3_0_2_0_2_0_2,NA,NA,timeout,4996.9,374003.79999998,373997.402,374013.7,378994,378994.79999998,2024-03-10T14:27:14Z,379010.6,NULL,Niveau,kiwango,d,NA,NA,NA,NA,sdf,0,2,NA,NA,NA,NA,NA,NA,NA,NA,NA,NA,NA,NA,NA,NA,NA,NA,NA,NA,NA
7d8d8,deep,flow.Sequence,3_0_2_0_2_0,NA,NA,completion,13108.7,365875.19999999,365868.7,365885.3,378994,378995.09999999,2024-03-10T14:27:14Z,379010.6,NULL,Niveau,kiwango,d,NA,NA,NA,NA,sdf,NA,2,NA,NA,NA,NA,NA,NA,NA,NA,NA,NA,NA,NA,NA,NA,NA,NA,NA,NA,NA
7d8d8,shallow,flow.Sequence,3_0_2_0_2_1,NA,NA,skipped,NA,378995.29999998,NA,NA,378994,378995.40000001,2024-03-10T14:27:14Z,379010.6,NULL,Niveau,kiwango,d,NA,NA,NA,NA,sdf,NA,2,NA,NA,NA,NA,NA,NA,NA,NA,NA,NA,NA,NA,NA,NA,NA,NA,NA,NA,NA
7d8d8,task,flow.Sequence,3_0_2_0_2,NA,NA,completion,13108.7,365875.19999999,365868.7,365885.3,378994,378995.59999999,2024-03-10T14:27:14Z,379010.6,NULL,Niveau,kiwango,d,NA,NA,NA,NA,sdf,NA,2,NA,NA,NA,NA,NA,NA,NA,NA,NA,NA,NA,NA,NA,NA,NA,NA,NA,NA,NA
7d8d8,deep,flow.Sequence,3_0_2_0_3_0,NA,NA,skipped,NA,378995.79999998,NA,NA,378994,378995.90000001,2024-03-10T14:27:14Z,379010.6,NULL,Vorwurf,mashtaka,s,msukumo,mtangulizi,uenyekiti,NA,sdf,NA,2,NA,NA,NA,NA,NA,NA,NA,NA,NA,NA,NA,NA,NA,NA,NA,NA,NA,NA,NA
7d8d8,Shallow Question,html.Page,3_0_2_0_3_1_0,NA,NA,form submission,7245.0999999881,378996,378994,379010.6,386255.69999999,386255.79999998,2024-03-10T14:27:22Z,386272.8,NULL,Vorwurf,mashtaka,s,msukumo,mtangulizi,uenyekiti,mtangulizi,NA,NA,2,NA,NA,NA,NA,NA,NA,NA,NA,NA,NA,NA,NA,NA,NA,NA,NA,NA,NA,NA
7d8d8,"""Richtig""-Screen",canvas.Screen,3_0_2_0_3_1_1,NA,NA,skipped,NA,386257.5,NA,NA,386255.69999999,386257.59999999,2024-03-10T14:27:22Z,386272.8,NULL,Vorwurf,mashtaka,s,msukumo,mtangulizi,uenyekiti,NA,sdf,NA,2,NA,NA,NA,NA,NA,NA,NA,NA,NA,NA,NA,NA,NA,NA,NA,NA,NA,NA,NA
7d8d8,"""Falsch""-Screen",canvas.Screen,3_0_2_0_3_1_2,NA,NA,timeout,4996.4,386258,386255.832,386272.8,391253,391254.09999999,2024-03-10T14:27:27Z,391269.2,NULL,Vorwurf,mashtaka,s,msukumo,mtangulizi,uenyekiti,NA,sdf,0,2,NA,NA,NA,NA,NA,NA,NA,NA,NA,NA,NA,NA,NA,NA,NA,NA,NA,NA,NA
7d8d8,shallow,flow.Sequence,3_0_2_0_3_1,NA,NA,completion,12242.4,378995.90000001,378994,379010.6,391253,391254.5,2024-03-10T14:27:27Z,391269.2,NULL,Vorwurf,mashtaka,s,msukumo,mtangulizi,uenyekiti,NA,sdf,NA,2,NA,NA,NA,NA,NA,NA,NA,NA,NA,NA,NA,NA,NA,NA,NA,NA,NA,NA,NA
7d8d8,task,flow.Sequence,3_0_2_0_3,NA,NA,completion,12242.4,378995.69999999,378994,379010.6,391253,391254.79999998,2024-03-10T14:27:27Z,391269.2,NULL,Vorwurf,mashtaka,s,msukumo,mtangulizi,uenyekiti,NA,sdf,NA,2,NA,NA,NA,NA,NA,NA,NA,NA,NA,NA,NA,NA,NA,NA,NA,NA,NA,NA,NA
7d8d8,deep,flow.Sequence,3_0_2_0_4_0,NA,NA,skipped,NA,391254.90000001,NA,NA,391253,391255.09999999,2024-03-10T14:27:27Z,391269.2,NULL,Entwicklung,maendeleo,s,uangavu,mshindwa,badiliko,NA,sdf,NA,2,NA,NA,NA,NA,NA,NA,NA,NA,NA,NA,NA,NA,NA,NA,NA,NA,NA,NA,NA
7d8d8,Shallow Question,html.Page,3_0_2_0_4_1_0,NA,NA,form submission,7636.399999994,391255.29999998,391253,391269.2,398905.59999999,398905.79999998,2024-03-10T14:27:34Z,398914.7,NULL,Entwicklung,maendeleo,s,uangavu,mshindwa,badiliko,maendeleo,NA,NA,2,NA,NA,NA,NA,NA,NA,NA,NA,NA,NA,NA,NA,NA,NA,NA,NA,NA,NA,NA
7d8d8,"""Richtig""-Screen",canvas.Screen,3_0_2_0_4_1_1,NA,NA,timeout,4997.1,398908.90000001,398898.718,398914.7,403895.5,403896.29999998,2024-03-10T14:27:39Z,403911.8,NULL,Entwicklung,maendeleo,s,uangavu,mshindwa,badiliko,NA,sdf,1,2,NA,NA,NA,NA,NA,NA,NA,NA,NA,NA,NA,NA,NA,NA,NA,NA,NA,NA,NA
7d8d8,"""Falsch""-Screen",canvas.Screen,3_0_2_0_4_1_2,NA,NA,skipped,NA,403901.79999998,NA,NA,403895.5,403901.90000001,2024-03-10T14:27:39Z,403911.8,NULL,Entwicklung,maendeleo,s,uangavu,mshindwa,badiliko,NA,sdf,NA,2,NA,NA,NA,NA,NA,NA,NA,NA,NA,NA,NA,NA,NA,NA,NA,NA,NA,NA,NA
7d8d8,shallow,flow.Sequence,3_0_2_0_4_1,NA,NA,completion,12626.3,391255.19999999,391253,391269.2,403895.5,403901.90000001,2024-03-10T14:27:39Z,403911.8,NULL,Entwicklung,maendeleo,s,uangavu,mshindwa,badiliko,NA,sdf,NA,2,NA,NA,NA,NA,NA,NA,NA,NA,NA,NA,NA,NA,NA,NA,NA,NA,NA,NA,NA
7d8d8,task,flow.Sequence,3_0_2_0_4,NA,NA,completion,12626.3,391254.90000001,391253,391269.2,403895.5,403902.09999999,2024-03-10T14:27:39Z,403911.8,NULL,Entwicklung,maendeleo,s,uangavu,mshindwa,badiliko,NA,sdf,NA,2,NA,NA,NA,NA,NA,NA,NA,NA,NA,NA,NA,NA,NA,NA,NA,NA,NA,NA,NA
7d8d8,Deep Question,html.Page,3_0_2_0_5_0_0,NA,NA,form submission,24478.999999982,403902.09999999,403895.5,403911.8,428390.79999998,428390.79999998,2024-03-10T14:28:04Z,428396.7,NULL,System,maongozi,d,NA,NA,NA,kiwango,NA,NA,2,NA,NA,NA,NA,NA,NA,NA,NA,NA,NA,NA,NA,NA,NA,NA,NA,NA,NA,NA
7d8d8,"""Richtig""-Screen",canvas.Screen,3_0_2_0_5_0_1,NA,NA,skipped,NA,428392.29999998,NA,NA,428390.79999998,428392.40000001,2024-03-10T14:28:04Z,428396.7,NULL,System,maongozi,d,NA,NA,NA,NA,sdf,NA,2,NA,NA,NA,NA,NA,NA,NA,NA,NA,NA,NA,NA,NA,NA,NA,NA,NA,NA,NA
7d8d8,"""Falsch""-Screen",canvas.Screen,3_0_2_0_5_0_2,NA,NA,timeout,4996.9,428392.79999998,428380.462,428396.7,433377,433378,2024-03-10T14:28:09Z,433393.6,NULL,System,maongozi,d,NA,NA,NA,NA,sdf,0,2,NA,NA,NA,NA,NA,NA,NA,NA,NA,NA,NA,NA,NA,NA,NA,NA,NA,NA,NA
7d8d8,deep,flow.Sequence,3_0_2_0_5_0,NA,NA,completion,29465.2,403902.09999999,403895.5,403911.8,433377,433378.40000001,2024-03-10T14:28:09Z,433393.6,NULL,System,maongozi,d,NA,NA,NA,NA,sdf,NA,2,NA,NA,NA,NA,NA,NA,NA,NA,NA,NA,NA,NA,NA,NA,NA,NA,NA,NA,NA
7d8d8,shallow,flow.Sequence,3_0_2_0_5_1,NA,NA,skipped,NA,433378.5,NA,NA,433377,433378.69999999,2024-03-10T14:28:09Z,433393.6,NULL,System,maongozi,d,NA,NA,NA,NA,sdf,NA,2,NA,NA,NA,NA,NA,NA,NA,NA,NA,NA,NA,NA,NA,NA,NA,NA,NA,NA,NA
7d8d8,task,flow.Sequence,3_0_2_0_5,NA,NA,completion,29465.2,403902.09999999,403895.5,403911.8,433377,433378.90000001,2024-03-10T14:28:09Z,433393.6,NULL,System,maongozi,d,NA,NA,NA,NA,sdf,NA,2,NA,NA,NA,NA,NA,NA,NA,NA,NA,NA,NA,NA,NA,NA,NA,NA,NA,NA,NA
7d8d8,Deep Question,html.Page,3_0_2_0_6_0_0,NA,NA,form submission,4372.6999999821,433379.09999999,433377,433393.6,437766.29999998,437766.5,2024-03-10T14:28:13Z,437774.4,NULL,Lawine,banguko,d,NA,NA,NA,zz,NA,NA,2,NA,NA,NA,NA,NA,NA,NA,NA,NA,NA,NA,NA,NA,NA,NA,NA,NA,NA,NA
7d8d8,"""Richtig""-Screen",canvas.Screen,3_0_2_0_6_0_1,NA,NA,skipped,NA,437769.40000001,NA,NA,437766.29999998,437769.59999999,2024-03-10T14:28:13Z,437774.4,NULL,Lawine,banguko,d,NA,NA,NA,NA,sdf,NA,2,NA,NA,NA,NA,NA,NA,NA,NA,NA,NA,NA,NA,NA,NA,NA,NA,NA,NA,NA
7d8d8,"""Falsch""-Screen",canvas.Screen,3_0_2_0_6_0_2,NA,NA,timeout,4997.1,437770.29999998,437758.22,437774.4,442755,442755.29999998,2024-03-10T14:28:18Z,442771.5,NULL,Lawine,banguko,d,NA,NA,NA,NA,sdf,0,2,NA,NA,NA,NA,NA,NA,NA,NA,NA,NA,NA,NA,NA,NA,NA,NA,NA,NA,NA
7d8d8,deep,flow.Sequence,3_0_2_0_6_0,NA,NA,completion,9361.4,433379,433377,433393.6,442755,442755.40000001,2024-03-10T14:28:18Z,442771.5,NULL,Lawine,banguko,d,NA,NA,NA,NA,sdf,NA,2,NA,NA,NA,NA,NA,NA,NA,NA,NA,NA,NA,NA,NA,NA,NA,NA,NA,NA,NA
7d8d8,shallow,flow.Sequence,3_0_2_0_6_1,NA,NA,skipped,NA,442755.40000001,NA,NA,442755,442755.5,2024-03-10T14:28:18Z,442771.5,NULL,Lawine,banguko,d,NA,NA,NA,NA,sdf,NA,2,NA,NA,NA,NA,NA,NA,NA,NA,NA,NA,NA,NA,NA,NA,NA,NA,NA,NA,NA
7d8d8,task,flow.Sequence,3_0_2_0_6,NA,NA,completion,9361.4,433379,433377,433393.6,442755,442755.59999999,2024-03-10T14:28:18Z,442771.5,NULL,Lawine,banguko,d,NA,NA,NA,NA,sdf,NA,2,NA,NA,NA,NA,NA,NA,NA,NA,NA,NA,NA,NA,NA,NA,NA,NA,NA,NA,NA
7d8d8,deep,flow.Sequence,3_0_2_0_7_0,NA,NA,skipped,NA,442755.59999999,NA,NA,442755,442755.59999999,2024-03-10T14:28:18Z,442771.5,NULL,Übersicht,kilindo,s,mgusano,chipukizi,kulinganisha,NA,sdf,NA,2,NA,NA,NA,NA,NA,NA,NA,NA,NA,NA,NA,NA,NA,NA,NA,NA,NA,NA,NA
7d8d8,Shallow Question,html.Page,3_0_2_0_7_1_0,NA,NA,form submission,7422.099999994,442755.69999999,442755,442771.5,450193.59999999,450193.90000001,2024-03-10T14:28:26Z,450199.9,NULL,Übersicht,kilindo,s,mgusano,chipukizi,kulinganisha,kilindo,NA,NA,2,NA,NA,NA,NA,NA,NA,NA,NA,NA,NA,NA,NA,NA,NA,NA,NA,NA,NA,NA
7d8d8,"""Richtig""-Screen",canvas.Screen,3_0_2_0_7_1_1,NA,NA,timeout,4997.4,450197,450183.6,450199.9,455180.3,455181.19999999,2024-03-10T14:28:31Z,455197.3,NULL,Übersicht,kilindo,s,mgusano,chipukizi,kulinganisha,NA,sdf,1,2,NA,NA,NA,NA,NA,NA,NA,NA,NA,NA,NA,NA,NA,NA,NA,NA,NA,NA,NA
7d8d8,"""Falsch""-Screen",canvas.Screen,3_0_2_0_7_1_2,NA,NA,skipped,NA,455186.29999998,NA,NA,455180.3,455186.40000001,2024-03-10T14:28:31Z,455197.3,NULL,Übersicht,kilindo,s,mgusano,chipukizi,kulinganisha,NA,sdf,NA,2,NA,NA,NA,NA,NA,NA,NA,NA,NA,NA,NA,NA,NA,NA,NA,NA,NA,NA,NA
7d8d8,shallow,flow.Sequence,3_0_2_0_7_1,NA,NA,completion,12408.8,442755.59999999,442755,442771.5,455180.3,455186.59999999,2024-03-10T14:28:31Z,455197.3,NULL,Übersicht,kilindo,s,mgusano,chipukizi,kulinganisha,NA,sdf,NA,2,NA,NA,NA,NA,NA,NA,NA,NA,NA,NA,NA,NA,NA,NA,NA,NA,NA,NA,NA
7d8d8,task,flow.Sequence,3_0_2_0_7,NA,NA,completion,12408.8,442755.59999999,442755,442771.5,455180.3,455186.59999999,2024-03-10T14:28:31Z,455197.3,NULL,Übersicht,kilindo,s,mgusano,chipukizi,kulinganisha,NA,sdf,NA,2,NA,NA,NA,NA,NA,NA,NA,NA,NA,NA,NA,NA,NA,NA,NA,NA,NA,NA,NA
7d8d8,block,flow.Loop,3_0_2_0,NA,NA,completion,132651.7,322514.90000001,322511.366,322528.6,455180.3,455186.59999999,2024-03-10T14:28:31Z,455197.3,NULL,NA,NA,NA,NA,NA,NA,NA,sdf,NA,2,NA,NA,NA,NA,NA,NA,NA,NA,NA,NA,NA,NA,NA,NA,NA,NA,NA,NA,NA
7d8d8,weiter,canvas.Screen,3_0_2_1,sdf,keypress(Space),response,1715.7999999941,455186.69999999,455180.3,455197.3,456913.09999999,456914.09999999,2024-03-10T14:28:32Z,456929.726,NULL,NA,NA,NA,NA,NA,NA,NA,sdf,NA,2,NA,NA,NA,NA,NA,NA,NA,NA,NA,NA,NA,NA,NA,NA,NA,NA,NA,NA,NA
7d8d8,check continue,flow.Sequence,3_0_2,NA,NA,completion,134384.49999999,322514.79999998,322511.366,322528.6,456913.09999999,456914.40000001,2024-03-10T14:28:32Z,456929.726,NULL,NA,NA,NA,NA,NA,NA,NA,sdf,NA,2,NA,NA,NA,NA,NA,NA,NA,NA,NA,NA,NA,NA,NA,NA,NA,NA,NA,NA,NA
7d8d8,deep,flow.Sequence,3_0_3_0_0_0,NA,NA,skipped,NA,456932.40000001,NA,NA,456913.09999999,456932.5,2024-03-10T14:28:32Z,456929.726,NULL,Entwicklung,maendeleo,s,uangavu,mshindwa,badiliko,NA,qt,NA,3,NA,NA,NA,NA,NA,NA,NA,NA,NA,NA,NA,NA,NA,NA,NA,NA,NA,NA,NA
7d8d8,Shallow Question,html.Page,3_0_3_0_0_1_0,NA,NA,form submission,5076.0739999821,456932.59999999,456929.726,456929.726,462005.79999998,462006,2024-03-10T14:28:37Z,462009.3,NULL,Entwicklung,maendeleo,s,uangavu,mshindwa,badiliko,maendeleo,NA,NA,3,NA,NA,NA,NA,NA,NA,NA,NA,NA,NA,NA,NA,NA,NA,NA,NA,NA,NA,NA
7d8d8,"""Richtig""-Screen",canvas.Screen,3_0_3_0_0_1_1,NA,NA,timeout,4997.5,462008.09999999,461993.19,462009.3,466989.9,466990.59999999,2024-03-10T14:28:42Z,467006.8,NULL,Entwicklung,maendeleo,s,uangavu,mshindwa,badiliko,NA,qt,1,3,NA,NA,NA,NA,NA,NA,NA,NA,NA,NA,NA,NA,NA,NA,NA,NA,NA,NA,NA
7d8d8,"""Falsch""-Screen",canvas.Screen,3_0_3_0_0_1_2,NA,NA,skipped,NA,466995.40000001,NA,NA,466989.9,466995.5,2024-03-10T14:28:42Z,467006.8,NULL,Entwicklung,maendeleo,s,uangavu,mshindwa,badiliko,NA,qt,NA,3,NA,NA,NA,NA,NA,NA,NA,NA,NA,NA,NA,NA,NA,NA,NA,NA,NA,NA,NA
7d8d8,shallow,flow.Sequence,3_0_3_0_0_1,NA,NA,completion,10060.174,456932.59999999,456929.726,456929.726,466989.9,466995.59999999,2024-03-10T14:28:42Z,467006.8,NULL,Entwicklung,maendeleo,s,uangavu,mshindwa,badiliko,NA,qt,NA,3,NA,NA,NA,NA,NA,NA,NA,NA,NA,NA,NA,NA,NA,NA,NA,NA,NA,NA,NA
7d8d8,task,flow.Sequence,3_0_3_0_0,NA,NA,completion,10060.174,456932.40000001,456929.726,456929.726,466989.9,466995.79999998,2024-03-10T14:28:42Z,467006.8,NULL,Entwicklung,maendeleo,s,uangavu,mshindwa,badiliko,NA,qt,NA,3,NA,NA,NA,NA,NA,NA,NA,NA,NA,NA,NA,NA,NA,NA,NA,NA,NA,NA,NA
7d8d8,deep,flow.Sequence,3_0_3_0_1_0,NA,NA,skipped,NA,466995.79999998,NA,NA,466989.9,466995.79999998,2024-03-10T14:28:42Z,467006.8,NULL,Übersicht,kilindo,s,mgusano,chipukizi,kulinganisha,NA,qt,NA,3,NA,NA,NA,NA,NA,NA,NA,NA,NA,NA,NA,NA,NA,NA,NA,NA,NA,NA,NA
7d8d8,Shallow Question,html.Page,3_0_3_0_1_1_0,NA,NA,form submission,9132.9999999821,466995.79999998,466989.9,467006.8,476139.79999998,476140,2024-03-10T14:28:52Z,476150.7,NULL,Übersicht,kilindo,s,mgusano,chipukizi,kulinganisha,mgusano,NA,NA,3,NA,NA,NA,NA,NA,NA,NA,NA,NA,NA,NA,NA,NA,NA,NA,NA,NA,NA,NA
7d8d8,"""Richtig""-Screen",canvas.Screen,3_0_3_0_1_1_1,NA,NA,skipped,NA,476142.90000001,NA,NA,476139.79999998,476143.09999999,2024-03-10T14:28:52Z,476150.7,NULL,Übersicht,kilindo,s,mgusano,chipukizi,kulinganisha,NA,qt,NA,3,NA,NA,NA,NA,NA,NA,NA,NA,NA,NA,NA,NA,NA,NA,NA,NA,NA,NA,NA
7d8d8,"""Falsch""-Screen",canvas.Screen,3_0_3_0_1_1_2,NA,NA,timeout,4997.6,476143.90000001,476134.686,476150.7,481131.3,481132.5,2024-03-10T14:28:57Z,481148.3,NULL,Übersicht,kilindo,s,mgusano,chipukizi,kulinganisha,NA,qt,0,3,NA,NA,NA,NA,NA,NA,NA,NA,NA,NA,NA,NA,NA,NA,NA,NA,NA,NA,NA
7d8d8,shallow,flow.Sequence,3_0_3_0_1_1,NA,NA,completion,14124.5,466995.79999998,466989.9,467006.8,481131.3,481133,2024-03-10T14:28:57Z,481148.3,NULL,Übersicht,kilindo,s,mgusano,chipukizi,kulinganisha,NA,qt,NA,3,NA,NA,NA,NA,NA,NA,NA,NA,NA,NA,NA,NA,NA,NA,NA,NA,NA,NA,NA
7d8d8,task,flow.Sequence,3_0_3_0_1,NA,NA,completion,14124.5,466995.79999998,466989.9,467006.8,481131.3,481133.19999999,2024-03-10T14:28:57Z,481148.3,NULL,Übersicht,kilindo,s,mgusano,chipukizi,kulinganisha,NA,qt,NA,3,NA,NA,NA,NA,NA,NA,NA,NA,NA,NA,NA,NA,NA,NA,NA,NA,NA,NA,NA
7d8d8,deep,flow.Sequence,3_0_3_0_2_0,NA,NA,skipped,NA,481133.40000001,NA,NA,481131.3,481133.5,2024-03-10T14:28:57Z,481148.3,NULL,Körper,kiwiliwili,s,mapambano,mpatanishi,kiolezo,NA,qt,NA,3,NA,NA,NA,NA,NA,NA,NA,NA,NA,NA,NA,NA,NA,NA,NA,NA,NA,NA,NA
7d8d8,Shallow Question,html.Page,3_0_3_0_2_1_0,NA,NA,form submission,4245.2,481133.69999999,481131.3,481148.3,485393.5,485393.79999998,2024-03-10T14:29:01Z,485395.756,NULL,Körper,kiwiliwili,s,mapambano,mpatanishi,kiolezo,kiwiliwili,NA,NA,3,NA,NA,NA,NA,NA,NA,NA,NA,NA,NA,NA,NA,NA,NA,NA,NA,NA,NA,NA
7d8d8,"""Richtig""-Screen",canvas.Screen,3_0_3_0_2_1_1,NA,NA,timeout,4996.744,485397,485395.756,485395.756,490375.9,490376.69999999,2024-03-10T14:29:06Z,490392.5,NULL,Körper,kiwiliwili,s,mapambano,mpatanishi,kiolezo,NA,qt,1,3,NA,NA,NA,NA,NA,NA,NA,NA,NA,NA,NA,NA,NA,NA,NA,NA,NA,NA,NA
7d8d8,"""Falsch""-Screen",canvas.Screen,3_0_3_0_2_1_2,NA,NA,skipped,NA,490381.69999999,NA,NA,490375.9,490382,2024-03-10T14:29:06Z,490392.5,NULL,Körper,kiwiliwili,s,mapambano,mpatanishi,kiolezo,NA,qt,NA,3,NA,NA,NA,NA,NA,NA,NA,NA,NA,NA,NA,NA,NA,NA,NA,NA,NA,NA,NA
7d8d8,shallow,flow.Sequence,3_0_3_0_2_1,NA,NA,completion,9227.6,481133.59999999,481131.3,481148.3,490375.9,490382.09999999,2024-03-10T14:29:06Z,490392.5,NULL,Körper,kiwiliwili,s,mapambano,mpatanishi,kiolezo,NA,qt,NA,3,NA,NA,NA,NA,NA,NA,NA,NA,NA,NA,NA,NA,NA,NA,NA,NA,NA,NA,NA
7d8d8,task,flow.Sequence,3_0_3_0_2,NA,NA,completion,9227.6,481133.40000001,481131.3,481148.3,490375.9,490382.09999999,2024-03-10T14:29:06Z,490392.5,NULL,Körper,kiwiliwili,s,mapambano,mpatanishi,kiolezo,NA,qt,NA,3,NA,NA,NA,NA,NA,NA,NA,NA,NA,NA,NA,NA,NA,NA,NA,NA,NA,NA,NA
7d8d8,Deep Question,html.Page,3_0_3_0_3_0_0,NA,NA,form submission,5634.5,490382.19999999,490375.9,490392.5,496027,496027.19999999,2024-03-10T14:29:12Z,496038.5,NULL,Lawine,banguko,d,NA,NA,NA,kk,NA,NA,3,NA,NA,NA,NA,NA,NA,NA,NA,NA,NA,NA,NA,NA,NA,NA,NA,NA,NA,NA
7d8d8,"""Richtig""-Screen",canvas.Screen,3_0_3_0_3_0_1,NA,NA,skipped,NA,496030.09999999,NA,NA,496027,496030.29999998,2024-03-10T14:29:12Z,496038.5,NULL,Lawine,banguko,d,NA,NA,NA,NA,qt,NA,3,NA,NA,NA,NA,NA,NA,NA,NA,NA,NA,NA,NA,NA,NA,NA,NA,NA,NA,NA
7d8d8,"""Falsch""-Screen",canvas.Screen,3_0_3_0_3_0_2,NA,NA,timeout,4997.4,496031,496022.494,496038.5,501018.8,501019.69999999,2024-03-10T14:29:17Z,501035.9,NULL,Lawine,banguko,d,NA,NA,NA,NA,qt,0,3,NA,NA,NA,NA,NA,NA,NA,NA,NA,NA,NA,NA,NA,NA,NA,NA,NA,NA,NA
7d8d8,deep,flow.Sequence,3_0_3_0_3_0,NA,NA,completion,10626.3,490382.19999999,490375.9,490392.5,501018.8,501020,2024-03-10T14:29:17Z,501035.9,NULL,Lawine,banguko,d,NA,NA,NA,NA,qt,NA,3,NA,NA,NA,NA,NA,NA,NA,NA,NA,NA,NA,NA,NA,NA,NA,NA,NA,NA,NA
7d8d8,shallow,flow.Sequence,3_0_3_0_3_1,NA,NA,skipped,NA,501020.19999999,NA,NA,501018.8,501020.29999998,2024-03-10T14:29:17Z,501035.9,NULL,Lawine,banguko,d,NA,NA,NA,NA,qt,NA,3,NA,NA,NA,NA,NA,NA,NA,NA,NA,NA,NA,NA,NA,NA,NA,NA,NA,NA,NA
7d8d8,task,flow.Sequence,3_0_3_0_3,NA,NA,completion,10626.3,490382.19999999,490375.9,490392.5,501018.8,501020.5,2024-03-10T14:29:17Z,501035.9,NULL,Lawine,banguko,d,NA,NA,NA,NA,qt,NA,3,NA,NA,NA,NA,NA,NA,NA,NA,NA,NA,NA,NA,NA,NA,NA,NA,NA,NA,NA
7d8d8,Deep Question,html.Page,3_0_3_0_4_0_0,NA,NA,form submission,24099.199999994,501020.69999999,501018.8,501035.9,525135.09999999,525135.40000001,2024-03-10T14:29:41Z,525137.4,NULL,System,maongozi,d,NA,NA,NA,maongozi,NA,NA,3,NA,NA,NA,NA,NA,NA,NA,NA,NA,NA,NA,NA,NA,NA,NA,NA,NA,NA,NA
7d8d8,"""Richtig""-Screen",canvas.Screen,3_0_3_0_4_0_1,NA,NA,timeout,4997.5,525137.09999999,525121.362,525137.4,530118.2,530119.09999999,2024-03-10T14:29:46Z,530134.9,NULL,System,maongozi,d,NA,NA,NA,NA,qt,1,3,NA,NA,NA,NA,NA,NA,NA,NA,NA,NA,NA,NA,NA,NA,NA,NA,NA,NA,NA
7d8d8,"""Falsch""-Screen",canvas.Screen,3_0_3_0_4_0_2,NA,NA,skipped,NA,530124.29999998,NA,NA,530118.2,530124.29999998,2024-03-10T14:29:46Z,530134.9,NULL,System,maongozi,d,NA,NA,NA,NA,qt,NA,3,NA,NA,NA,NA,NA,NA,NA,NA,NA,NA,NA,NA,NA,NA,NA,NA,NA,NA,NA
7d8d8,deep,flow.Sequence,3_0_3_0_4_0,NA,NA,completion,29082.3,501020.69999999,501018.8,501035.9,530118.2,530124.5,2024-03-10T14:29:46Z,530134.9,NULL,System,maongozi,d,NA,NA,NA,NA,qt,NA,3,NA,NA,NA,NA,NA,NA,NA,NA,NA,NA,NA,NA,NA,NA,NA,NA,NA,NA,NA
7d8d8,shallow,flow.Sequence,3_0_3_0_4_1,NA,NA,skipped,NA,530124.5,NA,NA,530118.2,530124.59999999,2024-03-10T14:29:46Z,530134.9,NULL,System,maongozi,d,NA,NA,NA,NA,qt,NA,3,NA,NA,NA,NA,NA,NA,NA,NA,NA,NA,NA,NA,NA,NA,NA,NA,NA,NA,NA
7d8d8,task,flow.Sequence,3_0_3_0_4,NA,NA,completion,29082.3,501020.69999999,501018.8,501035.9,530118.2,530124.59999999,2024-03-10T14:29:46Z,530134.9,NULL,System,maongozi,d,NA,NA,NA,NA,qt,NA,3,NA,NA,NA,NA,NA,NA,NA,NA,NA,NA,NA,NA,NA,NA,NA,NA,NA,NA,NA
7d8d8,Deep Question,html.Page,3_0_3_0_5_0_0,NA,NA,form submission,19529.199999994,530124.69999999006,530118.2,530134.9,549664.09999999,549664.29999998,2024-03-10T14:30:05Z,549672.3,NULL,Niveau,kiwango,d,NA,NA,NA,dd,NA,NA,3,NA,NA,NA,NA,NA,NA,NA,NA,NA,NA,NA,NA,NA,NA,NA,NA,NA,NA,NA
7d8d8,"""Richtig""-Screen",canvas.Screen,3_0_3_0_5_0_1,NA,NA,skipped,NA,549667.40000001,NA,NA,549664.09999999,549667.5,2024-03-10T14:30:05Z,549672.3,NULL,Niveau,kiwango,d,NA,NA,NA,NA,qt,NA,3,NA,NA,NA,NA,NA,NA,NA,NA,NA,NA,NA,NA,NA,NA,NA,NA,NA,NA,NA
7d8d8,"""Falsch""-Screen",canvas.Screen,3_0_3_0_5_0_2,NA,NA,timeout,4997.1,549667.90000001,549656.3,549672.3,554652.9,554654.19999999006,2024-03-10T14:30:10Z,554669.4,NULL,Niveau,kiwango,d,NA,NA,NA,NA,qt,0,3,NA,NA,NA,NA,NA,NA,NA,NA,NA,NA,NA,NA,NA,NA,NA,NA,NA,NA,NA
7d8d8,deep,flow.Sequence,3_0_3_0_5_0,NA,NA,completion,24518,530124.69999999006,530118.2,530134.9,554652.9,554654.69999999006,2024-03-10T14:30:10Z,554669.4,NULL,Niveau,kiwango,d,NA,NA,NA,NA,qt,NA,3,NA,NA,NA,NA,NA,NA,NA,NA,NA,NA,NA,NA,NA,NA,NA,NA,NA,NA,NA
7d8d8,shallow,flow.Sequence,3_0_3_0_5_1,NA,NA,skipped,NA,554654.90000001,NA,NA,554652.9,554655,2024-03-10T14:30:10Z,554669.4,NULL,Niveau,kiwango,d,NA,NA,NA,NA,qt,NA,3,NA,NA,NA,NA,NA,NA,NA,NA,NA,NA,NA,NA,NA,NA,NA,NA,NA,NA,NA
7d8d8,task,flow.Sequence,3_0_3_0_5,NA,NA,completion,24518,530124.59999999,530118.2,530134.9,554652.9,554655.19999999006,2024-03-10T14:30:10Z,554669.4,NULL,Niveau,kiwango,d,NA,NA,NA,NA,qt,NA,3,NA,NA,NA,NA,NA,NA,NA,NA,NA,NA,NA,NA,NA,NA,NA,NA,NA,NA,NA
7d8d8,Deep Question,html.Page,3_0_3_0_6_0_0,NA,NA,form submission,4198.7999999881,554655.40000001,554652.9,554669.4,558868.19999999006,558868.40000001,2024-03-10T14:30:14Z,558883.8,NULL,Papier,karatasi,d,NA,NA,NA,jj,NA,NA,3,NA,NA,NA,NA,NA,NA,NA,NA,NA,NA,NA,NA,NA,NA,NA,NA,NA,NA,NA
7d8d8,"""Richtig""-Screen",canvas.Screen,3_0_3_0_6_0_1,NA,NA,skipped,NA,558871.5,NA,NA,558868.19999999006,558871.69999999006,2024-03-10T14:30:14Z,558883.8,NULL,Papier,karatasi,d,NA,NA,NA,NA,qt,NA,3,NA,NA,NA,NA,NA,NA,NA,NA,NA,NA,NA,NA,NA,NA,NA,NA,NA,NA,NA
7d8d8,"""Falsch""-Screen",canvas.Screen,3_0_3_0_6_0_2,NA,NA,timeout,4996.7,558872.29999998,558867.256,558883.8,563863.7,563865,2024-03-10T14:30:19Z,563880.5,NULL,Papier,karatasi,d,NA,NA,NA,NA,qt,0,3,NA,NA,NA,NA,NA,NA,NA,NA,NA,NA,NA,NA,NA,NA,NA,NA,NA,NA,NA
7d8d8,deep,flow.Sequence,3_0_3_0_6_0,NA,NA,completion,9194.2999999999,554655.40000001,554652.9,554669.4,563863.7,563865.29999998,2024-03-10T14:30:19Z,563880.5,NULL,Papier,karatasi,d,NA,NA,NA,NA,qt,NA,3,NA,NA,NA,NA,NA,NA,NA,NA,NA,NA,NA,NA,NA,NA,NA,NA,NA,NA,NA
7d8d8,shallow,flow.Sequence,3_0_3_0_6_1,NA,NA,skipped,NA,563865.5,NA,NA,563863.7,563865.59999999,2024-03-10T14:30:19Z,563880.5,NULL,Papier,karatasi,d,NA,NA,NA,NA,qt,NA,3,NA,NA,NA,NA,NA,NA,NA,NA,NA,NA,NA,NA,NA,NA,NA,NA,NA,NA,NA
7d8d8,task,flow.Sequence,3_0_3_0_6,NA,NA,completion,9194.2999999999,554655.40000001,554652.9,554669.4,563863.7,563865.79999998,2024-03-10T14:30:19Z,563880.5,NULL,Papier,karatasi,d,NA,NA,NA,NA,qt,NA,3,NA,NA,NA,NA,NA,NA,NA,NA,NA,NA,NA,NA,NA,NA,NA,NA,NA,NA,NA
7d8d8,deep,flow.Sequence,3_0_3_0_7_0,NA,NA,skipped,NA,563865.90000001,NA,NA,563863.7,563866.09999999,2024-03-10T14:30:19Z,563880.5,NULL,Vorwurf,mashtaka,s,msukumo,mtangulizi,uenyekiti,NA,qt,NA,3,NA,NA,NA,NA,NA,NA,NA,NA,NA,NA,NA,NA,NA,NA,NA,NA,NA,NA,NA
7d8d8,Shallow Question,html.Page,3_0_3_0_7_1_0,NA,NA,form submission,9457,563866.19999999006,563863.7,563880.5,573337.5,573337.79999998,2024-03-10T14:30:29Z,573341.798,NULL,Vorwurf,mashtaka,s,msukumo,mtangulizi,uenyekiti,msukumo,NA,NA,3,NA,NA,NA,NA,NA,NA,NA,NA,NA,NA,NA,NA,NA,NA,NA,NA,NA,NA,NA
7d8d8,"""Richtig""-Screen",canvas.Screen,3_0_3_0_7_1_1,NA,NA,skipped,NA,573340.69999999006,NA,NA,573337.5,573340.90000001,2024-03-10T14:30:29Z,573341.798,NULL,Vorwurf,mashtaka,s,msukumo,mtangulizi,uenyekiti,NA,qt,NA,3,NA,NA,NA,NA,NA,NA,NA,NA,NA,NA,NA,NA,NA,NA,NA,NA,NA,NA,NA
7d8d8,"""Falsch""-Screen",canvas.Screen,3_0_3_0_7_1_2,NA,NA,timeout,4996.802,573341.69999999006,573341.798,573341.798,578321.9,578322.69999999006,2024-03-10T14:30:34Z,578338.6,NULL,Vorwurf,mashtaka,s,msukumo,mtangulizi,uenyekiti,NA,qt,0,3,NA,NA,NA,NA,NA,NA,NA,NA,NA,NA,NA,NA,NA,NA,NA,NA,NA,NA,NA
7d8d8,shallow,flow.Sequence,3_0_3_0_7_1,NA,NA,completion,14441.4,563866.09999999,563863.7,563880.5,578321.9,578323,2024-03-10T14:30:34Z,578338.6,NULL,Vorwurf,mashtaka,s,msukumo,mtangulizi,uenyekiti,NA,qt,NA,3,NA,NA,NA,NA,NA,NA,NA,NA,NA,NA,NA,NA,NA,NA,NA,NA,NA,NA,NA
7d8d8,task,flow.Sequence,3_0_3_0_7,NA,NA,completion,14441.4,563865.90000001,563863.7,563880.5,578321.9,578323.19999999006,2024-03-10T14:30:34Z,578338.6,NULL,Vorwurf,mashtaka,s,msukumo,mtangulizi,uenyekiti,NA,qt,NA,3,NA,NA,NA,NA,NA,NA,NA,NA,NA,NA,NA,NA,NA,NA,NA,NA,NA,NA,NA
7d8d8,block,flow.Loop,3_0_3_0,NA,NA,completion,121392.174,456932.40000001,456929.726,456929.726,578321.9,578323.40000001,2024-03-10T14:30:34Z,578338.6,NULL,NA,NA,NA,NA,NA,NA,NA,qt,NA,3,NA,NA,NA,NA,NA,NA,NA,NA,NA,NA,NA,NA,NA,NA,NA,NA,NA,NA,NA
7d8d8,weiter,canvas.Screen,3_0_3_1,sdf,keypress(Space),response,1320.4,578323.59999999,578321.9,578338.6,579659,579659.5,2024-03-10T14:30:35Z,579671.51,NULL,NA,NA,NA,NA,NA,NA,NA,qt,NA,3,NA,NA,NA,NA,NA,NA,NA,NA,NA,NA,NA,NA,NA,NA,NA,NA,NA,NA,NA
7d8d8,check continue,flow.Sequence,3_0_3,NA,NA,completion,122729.274,456932.40000001,456929.726,456929.726,579659,579659.5,2024-03-10T14:30:35Z,579671.51,NULL,NA,NA,NA,NA,NA,NA,NA,qt,NA,3,NA,NA,NA,NA,NA,NA,NA,NA,NA,NA,NA,NA,NA,NA,NA,NA,NA,NA,NA
7d8d8,Deep Question,html.Page,3_0_4_0_0_0_0,NA,NA,form submission,5548.49,579682.09999999,579671.51,579671.51,585220,585220.19999999006,2024-03-10T14:30:41Z,585234.3,NULL,Lawine,banguko,d,NA,NA,NA,kk,NA,NA,4,NA,NA,NA,NA,NA,NA,NA,NA,NA,NA,NA,NA,NA,NA,NA,NA,NA,NA,NA
7d8d8,"""Richtig""-Screen",canvas.Screen,3_0_4_0_0_0_1,NA,NA,skipped,NA,585223.09999999,NA,NA,585220,585223.29999998,2024-03-10T14:30:41Z,585234.3,NULL,Lawine,banguko,d,NA,NA,NA,NA,sd,NA,4,NA,NA,NA,NA,NA,NA,NA,NA,NA,NA,NA,NA,NA,NA,NA,NA,NA,NA,NA
7d8d8,"""Falsch""-Screen",canvas.Screen,3_0_4_0_0_0_2,NA,NA,timeout,4997,585223.90000001,585216.9,585234.3,590214.7,590216,2024-03-10T14:30:46Z,590231.3,NULL,Lawine,banguko,d,NA,NA,NA,NA,sd,0,4,NA,NA,NA,NA,NA,NA,NA,NA,NA,NA,NA,NA,NA,NA,NA,NA,NA,NA,NA
7d8d8,deep,flow.Sequence,3_0_4_0_0_0,NA,NA,completion,10543.19,579682.09999999,579671.51,579671.51,590214.7,590216.29999998,2024-03-10T14:30:46Z,590231.3,NULL,Lawine,banguko,d,NA,NA,NA,NA,sd,NA,4,NA,NA,NA,NA,NA,NA,NA,NA,NA,NA,NA,NA,NA,NA,NA,NA,NA,NA,NA
7d8d8,shallow,flow.Sequence,3_0_4_0_0_1,NA,NA,skipped,NA,590216.5,NA,NA,590214.7,590216.59999999,2024-03-10T14:30:46Z,590231.3,NULL,Lawine,banguko,d,NA,NA,NA,NA,sd,NA,4,NA,NA,NA,NA,NA,NA,NA,NA,NA,NA,NA,NA,NA,NA,NA,NA,NA,NA,NA
7d8d8,task,flow.Sequence,3_0_4_0_0,NA,NA,completion,10543.19,579682.09999999,579671.51,579671.51,590214.7,590216.79999998,2024-03-10T14:30:46Z,590231.3,NULL,Lawine,banguko,d,NA,NA,NA,NA,sd,NA,4,NA,NA,NA,NA,NA,NA,NA,NA,NA,NA,NA,NA,NA,NA,NA,NA,NA,NA,NA
7d8d8,deep,flow.Sequence,3_0_4_0_1_0,NA,NA,skipped,NA,590216.90000001,NA,NA,590214.7,590217,2024-03-10T14:30:46Z,590231.3,NULL,Vorwurf,mashtaka,s,msukumo,mtangulizi,uenyekiti,NA,sd,NA,4,NA,NA,NA,NA,NA,NA,NA,NA,NA,NA,NA,NA,NA,NA,NA,NA,NA,NA,NA
7d8d8,Shallow Question,html.Page,3_0_4_0_1_1_0,NA,NA,form submission,7709.6000000059,590217.09999999,590214.7,590231.3,597940.90000001,597941,2024-03-10T14:30:53Z,597959.9,NULL,Vorwurf,mashtaka,s,msukumo,mtangulizi,uenyekiti,mashtaka,NA,NA,4,NA,NA,NA,NA,NA,NA,NA,NA,NA,NA,NA,NA,NA,NA,NA,NA,NA,NA,NA
7d8d8,"""Richtig""-Screen",canvas.Screen,3_0_4_0_1_1_1,NA,NA,timeout,4996.9,597942.40000001,597942.8,597959.9,602940,602940.90000001,2024-03-10T14:30:58Z,602956.8,NULL,Vorwurf,mashtaka,s,msukumo,mtangulizi,uenyekiti,NA,sd,1,4,NA,NA,NA,NA,NA,NA,NA,NA,NA,NA,NA,NA,NA,NA,NA,NA,NA,NA,NA
7d8d8,"""Falsch""-Screen",canvas.Screen,3_0_4_0_1_1_2,NA,NA,skipped,NA,602946.09999999,NA,NA,602940,602946.29999998,2024-03-10T14:30:58Z,602956.8,NULL,Vorwurf,mashtaka,s,msukumo,mtangulizi,uenyekiti,NA,sd,NA,4,NA,NA,NA,NA,NA,NA,NA,NA,NA,NA,NA,NA,NA,NA,NA,NA,NA,NA,NA
7d8d8,shallow,flow.Sequence,3_0_4_0_1_1,NA,NA,completion,12708.7,590217.09999999,590214.7,590231.3,602940,602946.40000001,2024-03-10T14:30:58Z,602956.8,NULL,Vorwurf,mashtaka,s,msukumo,mtangulizi,uenyekiti,NA,sd,NA,4,NA,NA,NA,NA,NA,NA,NA,NA,NA,NA,NA,NA,NA,NA,NA,NA,NA,NA,NA
7d8d8,task,flow.Sequence,3_0_4_0_1,NA,NA,completion,12708.7,590216.90000001,590214.7,590231.3,602940,602946.40000001,2024-03-10T14:30:58Z,602956.8,NULL,Vorwurf,mashtaka,s,msukumo,mtangulizi,uenyekiti,NA,sd,NA,4,NA,NA,NA,NA,NA,NA,NA,NA,NA,NA,NA,NA,NA,NA,NA,NA,NA,NA,NA
7d8d8,Deep Question,html.Page,3_0_4_0_2_0_0,NA,NA,form submission,26345.499999982,602946.5,602940,602956.8,629302.29999998,629302.59999999,2024-03-10T14:31:25Z,629306.9,NULL,System,maongozi,d,NA,NA,NA,maongozi,NA,NA,4,NA,NA,NA,NA,NA,NA,NA,NA,NA,NA,NA,NA,NA,NA,NA,NA,NA,NA,NA
7d8d8,"""Richtig""-Screen",canvas.Screen,3_0_4_0_2_0_1,NA,NA,timeout,4997.6,629305.40000001,629294.2,629306.9,634287.9,634288.40000001,2024-03-10T14:31:30Z,634304.5,NULL,System,maongozi,d,NA,NA,NA,NA,sd,1,4,NA,NA,NA,NA,NA,NA,NA,NA,NA,NA,NA,NA,NA,NA,NA,NA,NA,NA,NA
7d8d8,"""Falsch""-Screen",canvas.Screen,3_0_4_0_2_0_2,NA,NA,skipped,NA,634290,NA,NA,634287.9,634290.09999999,2024-03-10T14:31:30Z,634304.5,NULL,System,maongozi,d,NA,NA,NA,NA,sd,NA,4,NA,NA,NA,NA,NA,NA,NA,NA,NA,NA,NA,NA,NA,NA,NA,NA,NA,NA,NA
7d8d8,deep,flow.Sequence,3_0_4_0_2_0,NA,NA,completion,31331.1,602946.5,602940,602956.8,634287.9,634290.29999998,2024-03-10T14:31:30Z,634304.5,NULL,System,maongozi,d,NA,NA,NA,NA,sd,NA,4,NA,NA,NA,NA,NA,NA,NA,NA,NA,NA,NA,NA,NA,NA,NA,NA,NA,NA,NA
7d8d8,shallow,flow.Sequence,3_0_4_0_2_1,NA,NA,skipped,NA,634290.29999998,NA,NA,634287.9,634290.29999998,2024-03-10T14:31:30Z,634304.5,NULL,System,maongozi,d,NA,NA,NA,NA,sd,NA,4,NA,NA,NA,NA,NA,NA,NA,NA,NA,NA,NA,NA,NA,NA,NA,NA,NA,NA,NA
7d8d8,task,flow.Sequence,3_0_4_0_2,NA,NA,completion,31331.1,602946.5,602940,602956.8,634287.9,634290.29999998,2024-03-10T14:31:30Z,634304.5,NULL,System,maongozi,d,NA,NA,NA,NA,sd,NA,4,NA,NA,NA,NA,NA,NA,NA,NA,NA,NA,NA,NA,NA,NA,NA,NA,NA,NA,NA
7d8d8,deep,flow.Sequence,3_0_4_0_3_0,NA,NA,skipped,NA,634290.29999998,NA,NA,634287.9,634290.29999998,2024-03-10T14:31:30Z,634304.5,NULL,Entwicklung,maendeleo,s,uangavu,mshindwa,badiliko,NA,sd,NA,4,NA,NA,NA,NA,NA,NA,NA,NA,NA,NA,NA,NA,NA,NA,NA,NA,NA,NA,NA
7d8d8,Shallow Question,html.Page,3_0_4_0_3_1_0,NA,NA,form submission,5288.599999994,634290.40000001,634287.9,634304.5,639593.09999999,639593.29999998,2024-03-10T14:31:35Z,639617.6,NULL,Entwicklung,maendeleo,s,uangavu,mshindwa,badiliko,maendeleo,NA,NA,4,NA,NA,NA,NA,NA,NA,NA,NA,NA,NA,NA,NA,NA,NA,NA,NA,NA,NA,NA
7d8d8,"""Richtig""-Screen",canvas.Screen,3_0_4_0_3_1_1,NA,NA,timeout,4996.7000000001,639594.90000001,639601.266,639617.6,644597.7,644597.90000001,2024-03-10T14:31:40Z,644614.3,NULL,Entwicklung,maendeleo,s,uangavu,mshindwa,badiliko,NA,sd,1,4,NA,NA,NA,NA,NA,NA,NA,NA,NA,NA,NA,NA,NA,NA,NA,NA,NA,NA,NA
7d8d8,"""Falsch""-Screen",canvas.Screen,3_0_4_0_3_1_2,NA,NA,skipped,NA,644599.29999998,NA,NA,644597.7,644599.29999998,2024-03-10T14:31:40Z,644614.3,NULL,Entwicklung,maendeleo,s,uangavu,mshindwa,badiliko,NA,sd,NA,4,NA,NA,NA,NA,NA,NA,NA,NA,NA,NA,NA,NA,NA,NA,NA,NA,NA,NA,NA
7d8d8,shallow,flow.Sequence,3_0_4_0_3_1,NA,NA,completion,10293.2,634290.40000001,634287.9,634304.5,644597.7,644599.5,2024-03-10T14:31:40Z,644614.3,NULL,Entwicklung,maendeleo,s,uangavu,mshindwa,badiliko,NA,sd,NA,4,NA,NA,NA,NA,NA,NA,NA,NA,NA,NA,NA,NA,NA,NA,NA,NA,NA,NA,NA
7d8d8,task,flow.Sequence,3_0_4_0_3,NA,NA,completion,10293.2,634290.29999998,634287.9,634304.5,644597.7,644599.5,2024-03-10T14:31:40Z,644614.3,NULL,Entwicklung,maendeleo,s,uangavu,mshindwa,badiliko,NA,sd,NA,4,NA,NA,NA,NA,NA,NA,NA,NA,NA,NA,NA,NA,NA,NA,NA,NA,NA,NA,NA
7d8d8,deep,flow.Sequence,3_0_4_0_4_0,NA,NA,skipped,NA,644599.5,NA,NA,644597.7,644599.5,2024-03-10T14:31:40Z,644614.3,NULL,Körper,kiwiliwili,s,mapambano,mpatanishi,kiolezo,NA,sd,NA,4,NA,NA,NA,NA,NA,NA,NA,NA,NA,NA,NA,NA,NA,NA,NA,NA,NA,NA,NA
7d8d8,Shallow Question,html.Page,3_0_4_0_4_1_0,NA,NA,form submission,3724.1000000059,644599.59999999,644597.7,644614.3,648338.40000001,648338.69999999006,2024-03-10T14:31:44Z,648361.9,NULL,Körper,kiwiliwili,s,mapambano,mpatanishi,kiolezo,kiwiliwili,NA,NA,4,NA,NA,NA,NA,NA,NA,NA,NA,NA,NA,NA,NA,NA,NA,NA,NA,NA,NA,NA
7d8d8,"""Richtig""-Screen",canvas.Screen,3_0_4_0_4_1_1,NA,NA,timeout,4997.4,648341.5,648345.898,648361.9,653342.7,653343.5,2024-03-10T14:31:49Z,653359.3,NULL,Körper,kiwiliwili,s,mapambano,mpatanishi,kiolezo,NA,sd,1,4,NA,NA,NA,NA,NA,NA,NA,NA,NA,NA,NA,NA,NA,NA,NA,NA,NA,NA,NA
7d8d8,"""Falsch""-Screen",canvas.Screen,3_0_4_0_4_1_2,NA,NA,skipped,NA,653348.19999999006,NA,NA,653342.7,653348.40000001,2024-03-10T14:31:49Z,653359.3,NULL,Körper,kiwiliwili,s,mapambano,mpatanishi,kiolezo,NA,sd,NA,4,NA,NA,NA,NA,NA,NA,NA,NA,NA,NA,NA,NA,NA,NA,NA,NA,NA,NA,NA
7d8d8,shallow,flow.Sequence,3_0_4_0_4_1,NA,NA,completion,8728.3999999999,644599.5,644597.7,644614.3,653342.7,653348.59999999,2024-03-10T14:31:49Z,653359.3,NULL,Körper,kiwiliwili,s,mapambano,mpatanishi,kiolezo,NA,sd,NA,4,NA,NA,NA,NA,NA,NA,NA,NA,NA,NA,NA,NA,NA,NA,NA,NA,NA,NA,NA
7d8d8,task,flow.Sequence,3_0_4_0_4,NA,NA,completion,8728.3999999999,644599.5,644597.7,644614.3,653342.7,653348.79999998,2024-03-10T14:31:49Z,653359.3,NULL,Körper,kiwiliwili,s,mapambano,mpatanishi,kiolezo,NA,sd,NA,4,NA,NA,NA,NA,NA,NA,NA,NA,NA,NA,NA,NA,NA,NA,NA,NA,NA,NA,NA
7d8d8,deep,flow.Sequence,3_0_4_0_5_0,NA,NA,skipped,NA,653348.90000001,NA,NA,653342.7,653349,2024-03-10T14:31:49Z,653359.3,NULL,Übersicht,kilindo,s,mgusano,chipukizi,kulinganisha,NA,sd,NA,4,NA,NA,NA,NA,NA,NA,NA,NA,NA,NA,NA,NA,NA,NA,NA,NA,NA,NA,NA
7d8d8,Shallow Question,html.Page,3_0_4_0_5_1_0,NA,NA,form submission,8008.299999994,653349,653342.7,653359.3,661367.59999999,661367.90000001,2024-03-10T14:31:57Z,661388,NULL,Übersicht,kilindo,s,mgusano,chipukizi,kulinganisha,kilindo,NA,NA,4,NA,NA,NA,NA,NA,NA,NA,NA,NA,NA,NA,NA,NA,NA,NA,NA,NA,NA,NA
7d8d8,"""Richtig""-Screen",canvas.Screen,3_0_4_0_5_1_1,NA,NA,timeout,4996.5,661370.90000001,661371.19,661388,666368.2,666369.09999999,2024-03-10T14:32:02Z,666384.5,NULL,Übersicht,kilindo,s,mgusano,chipukizi,kulinganisha,NA,sd,1,4,NA,NA,NA,NA,NA,NA,NA,NA,NA,NA,NA,NA,NA,NA,NA,NA,NA,NA,NA
7d8d8,"""Falsch""-Screen",canvas.Screen,3_0_4_0_5_1_2,NA,NA,skipped,NA,666374.29999998,NA,NA,666368.2,666374.5,2024-03-10T14:32:02Z,666384.5,NULL,Übersicht,kilindo,s,mgusano,chipukizi,kulinganisha,NA,sd,NA,4,NA,NA,NA,NA,NA,NA,NA,NA,NA,NA,NA,NA,NA,NA,NA,NA,NA,NA,NA
7d8d8,shallow,flow.Sequence,3_0_4_0_5_1,NA,NA,completion,13008.9,653349,653342.7,653359.3,666368.2,666374.59999999,2024-03-10T14:32:02Z,666384.5,NULL,Übersicht,kilindo,s,mgusano,chipukizi,kulinganisha,NA,sd,NA,4,NA,NA,NA,NA,NA,NA,NA,NA,NA,NA,NA,NA,NA,NA,NA,NA,NA,NA,NA
7d8d8,task,flow.Sequence,3_0_4_0_5,NA,NA,completion,13008.9,653348.90000001,653342.7,653359.3,666368.2,666374.69999999006,2024-03-10T14:32:02Z,666384.5,NULL,Übersicht,kilindo,s,mgusano,chipukizi,kulinganisha,NA,sd,NA,4,NA,NA,NA,NA,NA,NA,NA,NA,NA,NA,NA,NA,NA,NA,NA,NA,NA,NA,NA
7d8d8,Deep Question,html.Page,3_0_4_0_6_0_0,NA,NA,form submission,5053.5,666374.69999999006,666368.2,666384.5,671438,671438.19999999006,2024-03-10T14:32:07Z,671447.8,NULL,Papier,karatasi,d,NA,NA,NA,öä,NA,NA,4,NA,NA,NA,NA,NA,NA,NA,NA,NA,NA,NA,NA,NA,NA,NA,NA,NA,NA,NA
7d8d8,"""Richtig""-Screen",canvas.Screen,3_0_4_0_6_0_1,NA,NA,skipped,NA,671441.19999999006,NA,NA,671438,671441.40000001,2024-03-10T14:32:07Z,671447.8,NULL,Papier,karatasi,d,NA,NA,NA,NA,sd,NA,4,NA,NA,NA,NA,NA,NA,NA,NA,NA,NA,NA,NA,NA,NA,NA,NA,NA,NA,NA
7d8d8,"""Falsch""-Screen",canvas.Screen,3_0_4_0_6_0_2,NA,NA,timeout,4997.3999999999,671442.09999999,671432.132,671447.8,676428.6,676429.5,2024-03-10T14:32:12Z,676445.2,NULL,Papier,karatasi,d,NA,NA,NA,NA,sd,0,4,NA,NA,NA,NA,NA,NA,NA,NA,NA,NA,NA,NA,NA,NA,NA,NA,NA,NA,NA
7d8d8,deep,flow.Sequence,3_0_4_0_6_0,NA,NA,completion,10044.1,666374.69999999006,666368.2,666384.5,676428.6,676429.79999998,2024-03-10T14:32:12Z,676445.2,NULL,Papier,karatasi,d,NA,NA,NA,NA,sd,NA,4,NA,NA,NA,NA,NA,NA,NA,NA,NA,NA,NA,NA,NA,NA,NA,NA,NA,NA,NA
7d8d8,shallow,flow.Sequence,3_0_4_0_6_1,NA,NA,skipped,NA,676430,NA,NA,676428.6,676430.19999999006,2024-03-10T14:32:12Z,676445.2,NULL,Papier,karatasi,d,NA,NA,NA,NA,sd,NA,4,NA,NA,NA,NA,NA,NA,NA,NA,NA,NA,NA,NA,NA,NA,NA,NA,NA,NA,NA
7d8d8,task,flow.Sequence,3_0_4_0_6,NA,NA,completion,10044.1,666374.69999999006,666368.2,666384.5,676428.6,676430.40000001,2024-03-10T14:32:12Z,676445.2,NULL,Papier,karatasi,d,NA,NA,NA,NA,sd,NA,4,NA,NA,NA,NA,NA,NA,NA,NA,NA,NA,NA,NA,NA,NA,NA,NA,NA,NA,NA
7d8d8,Deep Question,html.Page,3_0_4_0_7_0_0,NA,NA,form submission,3762.0999999822,676430.59999999,676428.6,676445.2,680207.29999998,680207.59999999,2024-03-10T14:32:16Z,680210.456,NULL,Niveau,kiwango,d,NA,NA,NA,lo,NA,NA,4,NA,NA,NA,NA,NA,NA,NA,NA,NA,NA,NA,NA,NA,NA,NA,NA,NA,NA,NA
7d8d8,"""Richtig""-Screen",canvas.Screen,3_0_4_0_7_0_1,NA,NA,skipped,NA,680210.59999999,NA,NA,680207.29999998,680210.69999999006,2024-03-10T14:32:16Z,680210.456,NULL,Niveau,kiwango,d,NA,NA,NA,NA,sd,NA,4,NA,NA,NA,NA,NA,NA,NA,NA,NA,NA,NA,NA,NA,NA,NA,NA,NA,NA,NA
7d8d8,"""Falsch""-Screen",canvas.Screen,3_0_4_0_7_0_2,NA,NA,timeout,4996.144,680211.40000001,680210.456,680210.456,685189.7,685190.19999999006,2024-03-10T14:32:21Z,685206.6,NULL,Niveau,kiwango,d,NA,NA,NA,NA,sd,0,4,NA,NA,NA,NA,NA,NA,NA,NA,NA,NA,NA,NA,NA,NA,NA,NA,NA,NA,NA
7d8d8,deep,flow.Sequence,3_0_4_0_7_0,NA,NA,completion,8744.5,676430.59999999,676428.6,676445.2,685189.7,685190.29999998,2024-03-10T14:32:21Z,685206.6,NULL,Niveau,kiwango,d,NA,NA,NA,NA,sd,NA,4,NA,NA,NA,NA,NA,NA,NA,NA,NA,NA,NA,NA,NA,NA,NA,NA,NA,NA,NA
7d8d8,shallow,flow.Sequence,3_0_4_0_7_1,NA,NA,skipped,NA,685190.5,NA,NA,685189.7,685190.5,2024-03-10T14:32:21Z,685206.6,NULL,Niveau,kiwango,d,NA,NA,NA,NA,sd,NA,4,NA,NA,NA,NA,NA,NA,NA,NA,NA,NA,NA,NA,NA,NA,NA,NA,NA,NA,NA
7d8d8,task,flow.Sequence,3_0_4_0_7,NA,NA,completion,8744.5,676430.5,676428.6,676445.2,685189.7,685190.59999999,2024-03-10T14:32:21Z,685206.6,NULL,Niveau,kiwango,d,NA,NA,NA,NA,sd,NA,4,NA,NA,NA,NA,NA,NA,NA,NA,NA,NA,NA,NA,NA,NA,NA,NA,NA,NA,NA
7d8d8,block,flow.Loop,3_0_4_0,NA,NA,completion,105518.19,579682.09999999,579671.51,579671.51,685189.7,685190.69999999006,2024-03-10T14:32:21Z,685206.6,NULL,NA,NA,NA,NA,NA,NA,NA,sd,NA,4,NA,NA,NA,NA,NA,NA,NA,NA,NA,NA,NA,NA,NA,NA,NA,NA,NA,NA,NA
7d8d8,weiter,canvas.Screen,3_0_4_1,sdf,keypress(Space),response,1172.4,685190.79999998,685189.7,685206.6,686379,686379.90000001,2024-03-10T14:32:22Z,686705.4,NULL,NA,NA,NA,NA,NA,NA,NA,sd,NA,4,NA,NA,NA,NA,NA,NA,NA,NA,NA,NA,NA,NA,NA,NA,NA,NA,NA,NA,NA
7d8d8,check continue,flow.Sequence,3_0_4,NA,NA,completion,106707.49,579682.09999999,579671.51,579671.51,686379,686380.19999999006,2024-03-10T14:32:22Z,686705.4,NULL,NA,NA,NA,NA,NA,NA,NA,sd,NA,4,NA,NA,NA,NA,NA,NA,NA,NA,NA,NA,NA,NA,NA,NA,NA,NA,NA,NA,NA
7d8d8,check continue,flow.Sequence,3_0_5,NA,NA,skipped,NA,686399.40000001,NA,NA,686379,686399.40000001,2024-03-10T14:32:22Z,686705.4,NULL,NA,NA,NA,NA,NA,NA,NA,sdf,NA,5,NA,NA,NA,NA,NA,NA,NA,NA,NA,NA,NA,NA,NA,NA,NA,NA,NA,NA,NA
7d8d8,check continue,flow.Sequence,3_0_6,NA,NA,skipped,NA,686419.5,NA,NA,686379,686419.59999999,2024-03-10T14:32:22Z,686705.4,NULL,NA,NA,NA,NA,NA,NA,NA,dfs,NA,6,NA,NA,NA,NA,NA,NA,NA,NA,NA,NA,NA,NA,NA,NA,NA,NA,NA,NA,NA
7d8d8,check continue,flow.Sequence,3_0_7,NA,NA,skipped,NA,686433.90000001,NA,NA,686379,686434,2024-03-10T14:32:22Z,686705.4,NULL,NA,NA,NA,NA,NA,NA,NA,df,NA,7,NA,NA,NA,NA,NA,NA,NA,NA,NA,NA,NA,NA,NA,NA,NA,NA,NA,NA,NA
7d8d8,check continue,flow.Sequence,3_0_8,NA,NA,skipped,NA,686446.90000001,NA,NA,686379,686447,2024-03-10T14:32:22Z,686705.4,NULL,NA,NA,NA,NA,NA,NA,NA,dfs,NA,8,NA,NA,NA,NA,NA,NA,NA,NA,NA,NA,NA,NA,NA,NA,NA,NA,NA,NA,NA
7d8d8,check continue,flow.Sequence,3_0_9,NA,NA,skipped,NA,686459.40000001,NA,NA,686379,686459.5,2024-03-10T14:32:22Z,686705.4,NULL,NA,NA,NA,NA,NA,NA,NA,dsf,NA,9,NA,NA,NA,NA,NA,NA,NA,NA,NA,NA,NA,NA,NA,NA,NA,NA,NA,NA,NA
7d8d8,check continue,flow.Sequence,3_0_10,NA,NA,skipped,NA,686472.5,NA,NA,686379,686472.5,2024-03-10T14:32:22Z,686705.4,NULL,NA,NA,NA,NA,NA,NA,NA,df,NA,10,NA,NA,NA,NA,NA,NA,NA,NA,NA,NA,NA,NA,NA,NA,NA,NA,NA,NA,NA
7d8d8,check continue,flow.Sequence,3_0_11,NA,NA,skipped,NA,686484.79999998,NA,NA,686379,686484.90000001,2024-03-10T14:32:22Z,686705.4,NULL,NA,NA,NA,NA,NA,NA,NA,dfs,NA,11,NA,NA,NA,NA,NA,NA,NA,NA,NA,NA,NA,NA,NA,NA,NA,NA,NA,NA,NA
7d8d8,check continue,flow.Sequence,3_0_12,NA,NA,skipped,NA,686497.79999998,NA,NA,686379,686498,2024-03-10T14:32:22Z,686705.4,NULL,NA,NA,NA,NA,NA,NA,NA,dsf,NA,12,NA,NA,NA,NA,NA,NA,NA,NA,NA,NA,NA,NA,NA,NA,NA,NA,NA,NA,NA
7d8d8,check continue,flow.Sequence,3_0_13,NA,NA,skipped,NA,686510.79999998,NA,NA,686379,686510.90000001,2024-03-10T14:32:22Z,686705.4,NULL,NA,NA,NA,NA,NA,NA,NA,dsf,NA,13,NA,NA,NA,NA,NA,NA,NA,NA,NA,NA,NA,NA,NA,NA,NA,NA,NA,NA,NA
7d8d8,check continue,flow.Sequence,3_0_14,NA,NA,skipped,NA,686522.59999999,NA,NA,686379,686522.59999999,2024-03-10T14:32:22Z,686705.4,NULL,NA,NA,NA,NA,NA,NA,NA,NA,NA,14,NA,NA,NA,NA,NA,NA,NA,NA,NA,NA,NA,NA,NA,NA,NA,NA,NA,NA,NA
7d8d8,check continue,flow.Sequence,3_0_15,NA,NA,skipped,NA,686533.79999998,NA,NA,686379,686533.90000001,2024-03-10T14:32:22Z,686705.4,NULL,NA,NA,NA,NA,NA,NA,NA,NA,NA,15,NA,NA,NA,NA,NA,NA,NA,NA,NA,NA,NA,NA,NA,NA,NA,NA,NA,NA,NA
7d8d8,check continue,flow.Sequence,3_0_16,NA,NA,skipped,NA,686545.09999999,NA,NA,686379,686545.09999999,2024-03-10T14:32:22Z,686705.4,NULL,NA,NA,NA,NA,NA,NA,NA,NA,NA,16,NA,NA,NA,NA,NA,NA,NA,NA,NA,NA,NA,NA,NA,NA,NA,NA,NA,NA,NA
7d8d8,check continue,flow.Sequence,3_0_17,NA,NA,skipped,NA,686556.69999999006,NA,NA,686379,686556.69999999006,2024-03-10T14:32:22Z,686705.4,NULL,NA,NA,NA,NA,NA,NA,NA,NA,NA,17,NA,NA,NA,NA,NA,NA,NA,NA,NA,NA,NA,NA,NA,NA,NA,NA,NA,NA,NA
7d8d8,check continue,flow.Sequence,3_0_18,NA,NA,skipped,NA,686567.90000001,NA,NA,686379,686568,2024-03-10T14:32:22Z,686705.4,NULL,NA,NA,NA,NA,NA,NA,NA,NA,NA,18,NA,NA,NA,NA,NA,NA,NA,NA,NA,NA,NA,NA,NA,NA,NA,NA,NA,NA,NA
7d8d8,check continue,flow.Sequence,3_0_19,NA,NA,skipped,NA,686578.19999999006,NA,NA,686379,686578.19999999006,2024-03-10T14:32:22Z,686705.4,NULL,NA,NA,NA,NA,NA,NA,NA,NA,NA,19,NA,NA,NA,NA,NA,NA,NA,NA,NA,NA,NA,NA,NA,NA,NA,NA,NA,NA,NA
7d8d8,check continue,flow.Sequence,3_0_20,NA,NA,skipped,NA,686589.90000001,NA,NA,686379,686589.90000001,2024-03-10T14:32:22Z,686705.4,NULL,NA,NA,NA,NA,NA,NA,NA,NA,NA,20,NA,NA,NA,NA,NA,NA,NA,NA,NA,NA,NA,NA,NA,NA,NA,NA,NA,NA,NA
7d8d8,check continue,flow.Sequence,3_0_21,NA,NA,skipped,NA,686601.29999998,NA,NA,686379,686601.40000001,2024-03-10T14:32:22Z,686705.4,NULL,NA,NA,NA,NA,NA,NA,NA,NA,NA,21,NA,NA,NA,NA,NA,NA,NA,NA,NA,NA,NA,NA,NA,NA,NA,NA,NA,NA,NA
7d8d8,check continue,flow.Sequence,3_0_22,NA,NA,skipped,NA,686613,NA,NA,686379,686613.09999999,2024-03-10T14:32:22Z,686705.4,NULL,NA,NA,NA,NA,NA,NA,NA,NA,NA,22,NA,NA,NA,NA,NA,NA,NA,NA,NA,NA,NA,NA,NA,NA,NA,NA,NA,NA,NA
7d8d8,check continue,flow.Sequence,3_0_23,NA,NA,skipped,NA,686624.59999999,NA,NA,686379,686624.69999999006,2024-03-10T14:32:22Z,686705.4,NULL,NA,NA,NA,NA,NA,NA,NA,NA,NA,23,NA,NA,NA,NA,NA,NA,NA,NA,NA,NA,NA,NA,NA,NA,NA,NA,NA,NA,NA
7d8d8,check continue,flow.Sequence,3_0_24,NA,NA,skipped,NA,686634.90000001,NA,NA,686379,686635,2024-03-10T14:32:22Z,686705.4,NULL,NA,NA,NA,NA,NA,NA,NA,NA,NA,24,NA,NA,NA,NA,NA,NA,NA,NA,NA,NA,NA,NA,NA,NA,NA,NA,NA,NA,NA
7d8d8,check continue,flow.Sequence,3_0_25,NA,NA,skipped,NA,686647.29999998,NA,NA,686379,686647.40000001,2024-03-10T14:32:22Z,686705.4,NULL,NA,NA,NA,NA,NA,NA,NA,NA,NA,25,NA,NA,NA,NA,NA,NA,NA,NA,NA,NA,NA,NA,NA,NA,NA,NA,NA,NA,NA
7d8d8,check continue,flow.Sequence,3_0_26,NA,NA,skipped,NA,686658,NA,NA,686379,686658.09999999,2024-03-10T14:32:22Z,686705.4,NULL,NA,NA,NA,NA,NA,NA,NA,NA,NA,26,NA,NA,NA,NA,NA,NA,NA,NA,NA,NA,NA,NA,NA,NA,NA,NA,NA,NA,NA
7d8d8,check continue,flow.Sequence,3_0_27,NA,NA,skipped,NA,686669.09999999,NA,NA,686379,686669.29999998,2024-03-10T14:32:22Z,686705.4,NULL,NA,NA,NA,NA,NA,NA,NA,NA,NA,27,NA,NA,NA,NA,NA,NA,NA,NA,NA,NA,NA,NA,NA,NA,NA,NA,NA,NA,NA
7d8d8,check continue,flow.Sequence,3_0_28,NA,NA,skipped,NA,686679.5,NA,NA,686379,686679.59999999,2024-03-10T14:32:22Z,686705.4,NULL,NA,NA,NA,NA,NA,NA,NA,NA,NA,28,NA,NA,NA,NA,NA,NA,NA,NA,NA,NA,NA,NA,NA,NA,NA,NA,NA,NA,NA
7d8d8,check continue,flow.Sequence,3_0_29,NA,NA,skipped,NA,686691,NA,NA,686379,686691,2024-03-10T14:32:22Z,686705.4,NULL,NA,NA,NA,NA,NA,NA,NA,NA,NA,29,NA,NA,NA,NA,NA,NA,NA,NA,NA,NA,NA,NA,NA,NA,NA,NA,NA,NA,NA
7d8d8,until continue,flow.Loop,3_0,NA,NA,completion,566359.282,120012.90000001,120019.718,120019.718,686379,686691.09999999,2024-03-10T14:32:22Z,686705.4,NULL,NA,NA,NA,NA,NA,NA,NA,NA,NA,NA,NA,NA,NA,NA,NA,NA,NA,NA,NA,NA,NA,NA,NA,NA,NA,NA,NA,NA,NA
7d8d8,block 1,flow.Sequence,3,NA,NA,completion,566359.282,120012.90000001,120019.718,120019.718,686379,686691.19999999006,2024-03-10T14:32:22Z,686705.4,NULL,NA,NA,NA,NA,NA,NA,NA,NA,NA,NA,NA,NA,NA,NA,NA,NA,NA,NA,NA,NA,NA,NA,NA,NA,NA,NA,NA,NA,NA
7d8d8,1.Part Over,canvas.Screen,4,NA,keypress(Space),response,3406.199999994,686691.19999999006,686689.332,686705.4,690111.59999999,690112.5,2024-03-10T14:32:26Z,690170.1,NULL,NA,NA,NA,NA,NA,NA,NA,NA,NA,NA,NA,NA,NA,NA,NA,NA,NA,NA,NA,NA,NA,NA,NA,NA,NA,NA,NA,NA,NA
7d8d8,Deep Question,html.Page,5_0_0_0_0_0_0,NA,NA,form submission,13128.599999988,690154.29999998,690153.602,690170.1,703298.69999999006,703298.79999998,2024-03-10T14:32:39Z,703328.5,NULL,Prüfung,mtihani,d,NA,NA,NA,jj,NA,NA,0,NA,NA,NA,NA,NA,NA,NA,NA,NA,NA,NA,NA,NA,NA,NA,NA,NA,NA,NA
7d8d8,"""Richtig""-Screen",canvas.Screen,5_0_0_0_0_0_1,NA,NA,skipped,NA,703300.5,NA,NA,703298.69999999006,703300.59999999,2024-03-10T14:32:39Z,703328.5,NULL,Prüfung,mtihani,d,NA,NA,NA,NA,sdf,NA,0,NA,NA,NA,NA,NA,NA,NA,NA,NA,NA,NA,NA,NA,NA,NA,NA,NA,NA,NA
7d8d8,"""Falsch""-Screen",canvas.Screen,5_0_0_0_0_0_2,NA,NA,timeout,4996.7,703301,703311.7,703328.5,708309,708310,2024-03-10T14:32:44Z,708325.2,NULL,Prüfung,mtihani,d,NA,NA,NA,NA,sdf,0,0,NA,NA,NA,NA,NA,NA,NA,NA,NA,NA,NA,NA,NA,NA,NA,NA,NA,NA,NA
7d8d8,deep,flow.Sequence,5_0_0_0_0_0,NA,NA,completion,18138.9,690154.19999999006,690153.602,690170.1,708309,708310.5,2024-03-10T14:32:44Z,708325.2,NULL,Prüfung,mtihani,d,NA,NA,NA,NA,sdf,NA,0,NA,NA,NA,NA,NA,NA,NA,NA,NA,NA,NA,NA,NA,NA,NA,NA,NA,NA,NA
7d8d8,shallow,flow.Sequence,5_0_0_0_0_1,NA,NA,skipped,NA,708310.59999999,NA,NA,708309,708310.79999998,2024-03-10T14:32:44Z,708325.2,NULL,Prüfung,mtihani,d,NA,NA,NA,NA,sdf,NA,0,NA,NA,NA,NA,NA,NA,NA,NA,NA,NA,NA,NA,NA,NA,NA,NA,NA,NA,NA
7d8d8,task,flow.Sequence,5_0_0_0_0,NA,NA,completion,18138.9,690154.19999999006,690153.602,690170.1,708309,708311,2024-03-10T14:32:44Z,708325.2,NULL,Prüfung,mtihani,d,NA,NA,NA,NA,sdf,NA,0,NA,NA,NA,NA,NA,NA,NA,NA,NA,NA,NA,NA,NA,NA,NA,NA,NA,NA,NA
7d8d8,deep,flow.Sequence,5_0_0_0_1_0,NA,NA,skipped,NA,708311.09999999,NA,NA,708309,708311.19999999006,2024-03-10T14:32:44Z,708325.2,NULL,Verzögerung,kuchelewa,s,mwakilishi,mwanauchumi,jaribio,NA,sdf,NA,0,NA,NA,NA,NA,NA,NA,NA,NA,NA,NA,NA,NA,NA,NA,NA,NA,NA,NA,NA
7d8d8,Shallow Question,html.Page,5_0_0_0_1_1_0,NA,NA,form submission,8346.0999999822,708311.29999998,708309,708325.2,716671.29999998,716671.59999999,2024-03-10T14:32:52Z,716686.8,NULL,Verzögerung,kuchelewa,s,mwakilishi,mwanauchumi,jaribio,kuchelewa,NA,NA,0,NA,NA,NA,NA,NA,NA,NA,NA,NA,NA,NA,NA,NA,NA,NA,NA,NA,NA,NA
7d8d8,"""Richtig""-Screen",canvas.Screen,5_0_0_0_1_1_1,NA,NA,timeout,4997.3999999999,716674.79999998,716670.952,716686.8,721667.7,721668.59999999,2024-03-10T14:32:57Z,721684.2,NULL,Verzögerung,kuchelewa,s,mwakilishi,mwanauchumi,jaribio,NA,sdf,1,0,NA,NA,NA,NA,NA,NA,NA,NA,NA,NA,NA,NA,NA,NA,NA,NA,NA,NA,NA
7d8d8,"""Falsch""-Screen",canvas.Screen,5_0_0_0_1_1_2,NA,NA,skipped,NA,721674,NA,NA,721667.7,721674.09999999,2024-03-10T14:32:57Z,721684.2,NULL,Verzögerung,kuchelewa,s,mwakilishi,mwanauchumi,jaribio,NA,sdf,NA,0,NA,NA,NA,NA,NA,NA,NA,NA,NA,NA,NA,NA,NA,NA,NA,NA,NA,NA,NA
7d8d8,shallow,flow.Sequence,5_0_0_0_1_1,NA,NA,completion,13342.5,708311.29999998,708309,708325.2,721667.7,721674.19999999006,2024-03-10T14:32:57Z,721684.2,NULL,Verzögerung,kuchelewa,s,mwakilishi,mwanauchumi,jaribio,NA,sdf,NA,0,NA,NA,NA,NA,NA,NA,NA,NA,NA,NA,NA,NA,NA,NA,NA,NA,NA,NA,NA
7d8d8,task,flow.Sequence,5_0_0_0_1,NA,NA,completion,13342.5,708311.09999999,708309,708325.2,721667.7,721674.29999998,2024-03-10T14:32:57Z,721684.2,NULL,Verzögerung,kuchelewa,s,mwakilishi,mwanauchumi,jaribio,NA,sdf,NA,0,NA,NA,NA,NA,NA,NA,NA,NA,NA,NA,NA,NA,NA,NA,NA,NA,NA,NA,NA
7d8d8,deep,flow.Sequence,5_0_0_0_2_0,NA,NA,skipped,NA,721674.40000001,NA,NA,721667.7,721674.5,2024-03-10T14:32:57Z,721684.2,NULL,Kultur,utamaduni,s,shetani,gerezani,mazingira,NA,sdf,NA,0,NA,NA,NA,NA,NA,NA,NA,NA,NA,NA,NA,NA,NA,NA,NA,NA,NA,NA,NA
7d8d8,Shallow Question,html.Page,5_0_0_0_2_1_0,NA,NA,form submission,8455.4999999881,721674.5,721667.7,721684.2,730139.69999999006,730140,2024-03-10T14:33:06Z,730145.3,NULL,Kultur,utamaduni,s,shetani,gerezani,mazingira,shetani,NA,NA,0,NA,NA,NA,NA,NA,NA,NA,NA,NA,NA,NA,NA,NA,NA,NA,NA,NA,NA,NA
7d8d8,"""Richtig""-Screen",canvas.Screen,5_0_0_0_2_1_1,NA,NA,skipped,NA,730143,NA,NA,730139.69999999006,730143.09999999,2024-03-10T14:33:06Z,730145.3,NULL,Kultur,utamaduni,s,shetani,gerezani,mazingira,NA,sdf,NA,0,NA,NA,NA,NA,NA,NA,NA,NA,NA,NA,NA,NA,NA,NA,NA,NA,NA,NA,NA
7d8d8,"""Falsch""-Screen",canvas.Screen,5_0_0_0_2_1_2,NA,NA,timeout,4997.2,730144,730129.1,730145.3,735125.9,735126.5,2024-03-10T14:33:11Z,735142.5,NULL,Kultur,utamaduni,s,shetani,gerezani,mazingira,NA,sdf,0,0,NA,NA,NA,NA,NA,NA,NA,NA,NA,NA,NA,NA,NA,NA,NA,NA,NA,NA,NA
7d8d8,shallow,flow.Sequence,5_0_0_0_2_1,NA,NA,completion,13441.7,721674.5,721667.7,721684.2,735125.9,735126.79999998,2024-03-10T14:33:11Z,735142.5,NULL,Kultur,utamaduni,s,shetani,gerezani,mazingira,NA,sdf,NA,0,NA,NA,NA,NA,NA,NA,NA,NA,NA,NA,NA,NA,NA,NA,NA,NA,NA,NA,NA
7d8d8,task,flow.Sequence,5_0_0_0_2,NA,NA,completion,13441.7,721674.40000001,721667.7,721684.2,735125.9,735126.79999998,2024-03-10T14:33:11Z,735142.5,NULL,Kultur,utamaduni,s,shetani,gerezani,mazingira,NA,sdf,NA,0,NA,NA,NA,NA,NA,NA,NA,NA,NA,NA,NA,NA,NA,NA,NA,NA,NA,NA,NA
7d8d8,deep,flow.Sequence,5_0_0_0_3_0,NA,NA,skipped,NA,735126.90000001,NA,NA,735125.9,735127,2024-03-10T14:33:11Z,735142.5,NULL,Genehmigung,idhini,s,mwanamke,itikadi,fedheha,NA,sdf,NA,0,NA,NA,NA,NA,NA,NA,NA,NA,NA,NA,NA,NA,NA,NA,NA,NA,NA,NA,NA
7d8d8,Shallow Question,html.Page,5_0_0_0_3_1_0,NA,NA,form submission,8723.1999999881,735127,735125.9,735142.5,743865.69999999006,743865.90000001,2024-03-10T14:33:19Z,743870.88,NULL,Genehmigung,idhini,s,mwanamke,itikadi,fedheha,mwanamke,NA,NA,0,NA,NA,NA,NA,NA,NA,NA,NA,NA,NA,NA,NA,NA,NA,NA,NA,NA,NA,NA
7d8d8,"""Richtig""-Screen",canvas.Screen,5_0_0_0_3_1_1,NA,NA,skipped,NA,743869,NA,NA,743865.69999999006,743869.19999999006,2024-03-10T14:33:19Z,743870.88,NULL,Genehmigung,idhini,s,mwanamke,itikadi,fedheha,NA,sdf,NA,0,NA,NA,NA,NA,NA,NA,NA,NA,NA,NA,NA,NA,NA,NA,NA,NA,NA,NA,NA
7d8d8,"""Falsch""-Screen",canvas.Screen,5_0_0_0_3_1_2,NA,NA,timeout,4996.62,743870,743870.88,743870.88,748850.9,748852.19999999006,2024-03-10T14:33:24Z,748867.5,NULL,Genehmigung,idhini,s,mwanamke,itikadi,fedheha,NA,sdf,0,0,NA,NA,NA,NA,NA,NA,NA,NA,NA,NA,NA,NA,NA,NA,NA,NA,NA,NA,NA
7d8d8,shallow,flow.Sequence,5_0_0_0_3_1,NA,NA,completion,13708.4,735127,735125.9,735142.5,748850.9,748852.69999999006,2024-03-10T14:33:24Z,748867.5,NULL,Genehmigung,idhini,s,mwanamke,itikadi,fedheha,NA,sdf,NA,0,NA,NA,NA,NA,NA,NA,NA,NA,NA,NA,NA,NA,NA,NA,NA,NA,NA,NA,NA
7d8d8,task,flow.Sequence,5_0_0_0_3,NA,NA,completion,13708.4,735126.90000001,735125.9,735142.5,748850.9,748852.90000001,2024-03-10T14:33:24Z,748867.5,NULL,Genehmigung,idhini,s,mwanamke,itikadi,fedheha,NA,sdf,NA,0,NA,NA,NA,NA,NA,NA,NA,NA,NA,NA,NA,NA,NA,NA,NA,NA,NA,NA,NA
7d8d8,Deep Question,html.Page,5_0_0_0_4_0_0,NA,NA,form submission,7580.6999999881,748853.19999999006,748850.9,748867.5,756448.19999999006,756448.29999998,2024-03-10T14:33:32Z,756479.2,NULL,Integrität,uadilifu,d,NA,NA,NA,ff,NA,NA,0,NA,NA,NA,NA,NA,NA,NA,NA,NA,NA,NA,NA,NA,NA,NA,NA,NA,NA,NA
7d8d8,"""Richtig""-Screen",canvas.Screen,5_0_0_0_4_0_1,NA,NA,skipped,NA,756449.79999998,NA,NA,756448.19999999006,756449.79999998,2024-03-10T14:33:32Z,756479.2,NULL,Integrität,uadilifu,d,NA,NA,NA,NA,sdf,NA,0,NA,NA,NA,NA,NA,NA,NA,NA,NA,NA,NA,NA,NA,NA,NA,NA,NA,NA,NA
7d8d8,"""Falsch""-Screen",canvas.Screen,5_0_0_0_4_0_2,NA,NA,timeout,4997.4,756450.19999999006,756462.5,756479.2,761459.5,761460.79999998,2024-03-10T14:33:37Z,761476.6,NULL,Integrität,uadilifu,d,NA,NA,NA,NA,sdf,0,0,NA,NA,NA,NA,NA,NA,NA,NA,NA,NA,NA,NA,NA,NA,NA,NA,NA,NA,NA
7d8d8,deep,flow.Sequence,5_0_0_0_4_0,NA,NA,completion,12592,748853.19999999006,748850.9,748867.5,761459.5,761461.19999999006,2024-03-10T14:33:37Z,761476.6,NULL,Integrität,uadilifu,d,NA,NA,NA,NA,sdf,NA,0,NA,NA,NA,NA,NA,NA,NA,NA,NA,NA,NA,NA,NA,NA,NA,NA,NA,NA,NA
7d8d8,shallow,flow.Sequence,5_0_0_0_4_1,NA,NA,skipped,NA,761461.29999998,NA,NA,761459.5,761461.5,2024-03-10T14:33:37Z,761476.6,NULL,Integrität,uadilifu,d,NA,NA,NA,NA,sdf,NA,0,NA,NA,NA,NA,NA,NA,NA,NA,NA,NA,NA,NA,NA,NA,NA,NA,NA,NA,NA
7d8d8,task,flow.Sequence,5_0_0_0_4,NA,NA,completion,12592,748853.09999999,748850.9,748867.5,761459.5,761461.69999999006,2024-03-10T14:33:37Z,761476.6,NULL,Integrität,uadilifu,d,NA,NA,NA,NA,sdf,NA,0,NA,NA,NA,NA,NA,NA,NA,NA,NA,NA,NA,NA,NA,NA,NA,NA,NA,NA,NA
7d8d8,Deep Question,html.Page,5_0_0_0_5_0_0,NA,NA,form submission,7561.9999999941,761461.90000001,761459.5,761476.6,769038.59999999,769038.90000001,2024-03-10T14:33:45Z,769054.7,NULL,Fleisch,mshakiki,d,NA,NA,NA,dd,NA,NA,0,NA,NA,NA,NA,NA,NA,NA,NA,NA,NA,NA,NA,NA,NA,NA,NA,NA,NA,NA
7d8d8,"""Richtig""-Screen",canvas.Screen,5_0_0_0_5_0_1,NA,NA,skipped,NA,769042.09999999,NA,NA,769038.59999999,769042.29999998,2024-03-10T14:33:45Z,769054.7,NULL,Fleisch,mshakiki,d,NA,NA,NA,NA,sdf,NA,0,NA,NA,NA,NA,NA,NA,NA,NA,NA,NA,NA,NA,NA,NA,NA,NA,NA,NA,NA
7d8d8,"""Falsch""-Screen",canvas.Screen,5_0_0_0_5_0_2,NA,NA,timeout,4997.5,769043,769038.82,769054.7,774035.2,774036.40000001,2024-03-10T14:33:50Z,774052.2,NULL,Fleisch,mshakiki,d,NA,NA,NA,NA,sdf,0,0,NA,NA,NA,NA,NA,NA,NA,NA,NA,NA,NA,NA,NA,NA,NA,NA,NA,NA,NA
7d8d8,deep,flow.Sequence,5_0_0_0_5_0,NA,NA,completion,12558.6,761461.90000001,761459.5,761476.6,774035.2,774036.90000001,2024-03-10T14:33:50Z,774052.2,NULL,Fleisch,mshakiki,d,NA,NA,NA,NA,sdf,NA,0,NA,NA,NA,NA,NA,NA,NA,NA,NA,NA,NA,NA,NA,NA,NA,NA,NA,NA,NA
7d8d8,shallow,flow.Sequence,5_0_0_0_5_1,NA,NA,skipped,NA,774037.09999999,NA,NA,774035.2,774037.29999998,2024-03-10T14:33:50Z,774052.2,NULL,Fleisch,mshakiki,d,NA,NA,NA,NA,sdf,NA,0,NA,NA,NA,NA,NA,NA,NA,NA,NA,NA,NA,NA,NA,NA,NA,NA,NA,NA,NA
7d8d8,task,flow.Sequence,5_0_0_0_5,NA,NA,completion,12558.6,761461.79999998,761459.5,761476.6,774035.2,774037.40000001,2024-03-10T14:33:50Z,774052.2,NULL,Fleisch,mshakiki,d,NA,NA,NA,NA,sdf,NA,0,NA,NA,NA,NA,NA,NA,NA,NA,NA,NA,NA,NA,NA,NA,NA,NA,NA,NA,NA
7d8d8,Deep Question,html.Page,5_0_0_0_6_0_0,NA,NA,form submission,7163.4999999881,774037.59999999,774035.2,774052.2,781215.69999999006,781216,2024-03-10T14:33:57Z,781247.8,NULL,Aufstand,ugomaji,d,NA,NA,NA,ll,NA,NA,0,NA,NA,NA,NA,NA,NA,NA,NA,NA,NA,NA,NA,NA,NA,NA,NA,NA,NA,NA
7d8d8,"""Richtig""-Screen",canvas.Screen,5_0_0_0_6_0_1,NA,NA,skipped,NA,781219.19999999006,NA,NA,781215.69999999006,781219.29999998,2024-03-10T14:33:57Z,781247.8,NULL,Aufstand,ugomaji,d,NA,NA,NA,NA,sdf,NA,0,NA,NA,NA,NA,NA,NA,NA,NA,NA,NA,NA,NA,NA,NA,NA,NA,NA,NA,NA
7d8d8,"""Falsch""-Screen",canvas.Screen,5_0_0_0_6_0_2,NA,NA,timeout,4996.7,781220.09999999,781231.1,781247.8,786227.7,786228.90000001,2024-03-10T14:34:02Z,786244.5,NULL,Aufstand,ugomaji,d,NA,NA,NA,NA,sdf,0,0,NA,NA,NA,NA,NA,NA,NA,NA,NA,NA,NA,NA,NA,NA,NA,NA,NA,NA,NA
7d8d8,deep,flow.Sequence,5_0_0_0_6_0,NA,NA,completion,12175.5,774037.5,774035.2,774052.2,786227.7,786229.40000001,2024-03-10T14:34:02Z,786244.5,NULL,Aufstand,ugomaji,d,NA,NA,NA,NA,sdf,NA,0,NA,NA,NA,NA,NA,NA,NA,NA,NA,NA,NA,NA,NA,NA,NA,NA,NA,NA,NA
7d8d8,shallow,flow.Sequence,5_0_0_0_6_1,NA,NA,skipped,NA,786229.59999999,NA,NA,786227.7,786229.69999999006,2024-03-10T14:34:02Z,786244.5,NULL,Aufstand,ugomaji,d,NA,NA,NA,NA,sdf,NA,0,NA,NA,NA,NA,NA,NA,NA,NA,NA,NA,NA,NA,NA,NA,NA,NA,NA,NA,NA
7d8d8,task,flow.Sequence,5_0_0_0_6,NA,NA,completion,12175.5,774037.5,774035.2,774052.2,786227.7,786229.90000001,2024-03-10T14:34:02Z,786244.5,NULL,Aufstand,ugomaji,d,NA,NA,NA,NA,sdf,NA,0,NA,NA,NA,NA,NA,NA,NA,NA,NA,NA,NA,NA,NA,NA,NA,NA,NA,NA,NA
7d8d8,deep,flow.Sequence,5_0_0_0_7_0,NA,NA,skipped,NA,786230.09999999,NA,NA,786227.7,786230.19999999006,2024-03-10T14:34:02Z,786244.5,NULL,Begegnung,kukutana,s,mmasihiya,mpiganaji,husiano,NA,sdf,NA,0,NA,NA,NA,NA,NA,NA,NA,NA,NA,NA,NA,NA,NA,NA,NA,NA,NA,NA,NA
7d8d8,Shallow Question,html.Page,5_0_0_0_7_1_0,NA,NA,form submission,6755.7999999821,786230.40000001,786227.7,786244.5,793000.29999998,793000.5,2024-03-10T14:34:08Z,793006.8,NULL,Begegnung,kukutana,s,mmasihiya,mpiganaji,husiano,kukutana,NA,NA,0,NA,NA,NA,NA,NA,NA,NA,NA,NA,NA,NA,NA,NA,NA,NA,NA,NA,NA,NA
7d8d8,"""Richtig""-Screen",canvas.Screen,5_0_0_0_7_1_1,NA,NA,timeout,4997.3999999999,793003.69999999006,792990.826,793006.8,797987.5,797988.09999999,2024-03-10T14:34:13Z,798004.2,NULL,Begegnung,kukutana,s,mmasihiya,mpiganaji,husiano,NA,sdf,1,0,NA,NA,NA,NA,NA,NA,NA,NA,NA,NA,NA,NA,NA,NA,NA,NA,NA,NA,NA
7d8d8,"""Falsch""-Screen",canvas.Screen,5_0_0_0_7_1_2,NA,NA,skipped,NA,797989.79999998,NA,NA,797987.5,797990,2024-03-10T14:34:13Z,798004.2,NULL,Begegnung,kukutana,s,mmasihiya,mpiganaji,husiano,NA,sdf,NA,0,NA,NA,NA,NA,NA,NA,NA,NA,NA,NA,NA,NA,NA,NA,NA,NA,NA,NA,NA
7d8d8,shallow,flow.Sequence,5_0_0_0_7_1,NA,NA,completion,11743,786230.29999998,786227.7,786244.5,797987.5,797990.09999999,2024-03-10T14:34:13Z,798004.2,NULL,Begegnung,kukutana,s,mmasihiya,mpiganaji,husiano,NA,sdf,NA,0,NA,NA,NA,NA,NA,NA,NA,NA,NA,NA,NA,NA,NA,NA,NA,NA,NA,NA,NA
7d8d8,task,flow.Sequence,5_0_0_0_7,NA,NA,completion,11743,786230.09999999,786227.7,786244.5,797987.5,797990.09999999,2024-03-10T14:34:13Z,798004.2,NULL,Begegnung,kukutana,s,mmasihiya,mpiganaji,husiano,NA,sdf,NA,0,NA,NA,NA,NA,NA,NA,NA,NA,NA,NA,NA,NA,NA,NA,NA,NA,NA,NA,NA
7d8d8,block,flow.Loop,5_0_0_0,NA,NA,completion,107817.4,690154.19999999006,690153.602,690170.1,797987.5,797990.19999999006,2024-03-10T14:34:13Z,798004.2,NULL,NA,NA,NA,NA,NA,NA,NA,sdf,NA,0,NA,NA,NA,NA,NA,NA,NA,NA,NA,NA,NA,NA,NA,NA,NA,NA,NA,NA,NA
7d8d8,weiter,canvas.Screen,5_0_0_1,sdf,keypress(Space),response,1992.0999999822,797990.19999999006,797987.5,798004.2,799996.29999998,799997.5,2024-03-10T14:34:15Z,800003.43,NULL,NA,NA,NA,NA,NA,NA,NA,sdf,NA,0,NA,NA,NA,NA,NA,NA,NA,NA,NA,NA,NA,NA,NA,NA,NA,NA,NA,NA,NA
7d8d8,check continue,flow.Sequence,5_0_0,NA,NA,completion,109826.19999998,690154.19999999006,690153.602,690170.1,799996.29999998,799997.69999999006,2024-03-10T14:34:15Z,800003.43,NULL,NA,NA,NA,NA,NA,NA,NA,sdf,NA,0,NA,NA,NA,NA,NA,NA,NA,NA,NA,NA,NA,NA,NA,NA,NA,NA,NA,NA,NA
