observation,sender,sender_type,sender_id,response,response_action,ended_on,duration,time_run,time_render,time_show,time_end,time_commit,timestamp,time_switch,german,swahili,enc,distractor1,distractor2,distractor3,response_2,x,correct,distractors,url_vp,url_sess,meta_labjs_version,meta_location,meta_user_agent,meta_platform,meta_language,meta_locale,meta_time_zone,meta_timezone_offset,meta_screen_width,meta_screen_height,meta_scroll_width,meta_scroll_height,meta_window_inner_width,meta_window_inner_height,meta_device_pixel_ratio,meta_labjs_build_flavor,meta_labjs_build_commit
c570e,Introduction delayed retrieval,canvas.Screen,0,weiter,keypress(Space),response,19664.429999905,817.39999961853,658.344,841.67,20506.099999905,20513.5,2023-10-01T08:09:30Z,20524.74,NA,NA,NA,NA,NA,NA,NA,NA,NA,NULL,184,2,20.2.4,https://neurocog.fernuni.ch/studies/vweber/sliechti/delayed/index.html?vp=184&sess=2,"Mozilla/5.0 (Macintosh; Intel Mac OS X 10_15_7) AppleWebKit/537.36 (KHTML, like Gecko) Chrome/116.0.0.0 Safari/537.36",MacIntel,de-DE,de,Europe/Zurich,-120,1920,1080,1795,889,1795,937,1,production,f5b4a49f956347addd546a832a3327688c2c0fef
c570e,Deep Question,html.Page,1_0_0_0,NA,NA,form submission,47495.859999905,20514.299999714,20508.074,20524.74,68020.599999905,68020.799999714,2023-10-01T08:10:17Z,68024.955,Vermutung,udhanifu,d,haramia,tikisho,itifaki,kichekesho,NA,NA,NULL,NA,NA,NA,NA,NA,NA,NA,NA,NA,NA,NA,NA,NA,NA,NA,NA,NA,NA,NA
c570e,Save data screen,canvas.Screen,1_0_0_1,NA,NA,timeout,499.98,68021.899999619,68008.289,68024.955,68508.269,68512.799999714,2023-10-01T08:10:18Z,68524.935,Vermutung,udhanifu,d,haramia,tikisho,itifaki,NA,NA,0,NULL,NA,NA,NA,NA,NA,NA,NA,NA,NA,NA,NA,NA,NA,NA,NA,NA,NA,NA,NA
c570e,deep,flow.Sequence,1_0_0,NA,NA,completion,47983.529,20514.199999809,20508.074,20524.74,68508.269,68513.199999809,2023-10-01T08:10:18Z,68524.935,Vermutung,udhanifu,d,haramia,tikisho,itifaki,NA,NA,NA,NULL,NA,NA,NA,NA,NA,NA,NA,NA,NA,NA,NA,NA,NA,NA,NA,NA,NA,NA,NA
c570e,task,flow.Sequence,1_0,NA,NA,completion,47983.529,20514.099999905,20508.074,20524.74,68508.269,68513.5,2023-10-01T08:10:18Z,68524.935,Vermutung,udhanifu,d,haramia,tikisho,itifaki,NA,NA,NA,NULL,NA,NA,NA,NA,NA,NA,NA,NA,NA,NA,NA,NA,NA,NA,NA,NA,NA,NA,NA
c570e,Deep Question,html.Page,1_1_0_0,NA,NA,form submission,18359.464999619,68513.699999809,68508.269,68524.935,86884.399999619,86884.699999809,2023-10-01T08:10:36Z,86891.825,Hoffnung,matarajio,d,kutaalamika,uratibu,mvumbuzi,mataragio,NA,NA,NULL,NA,NA,NA,NA,NA,NA,NA,NA,NA,NA,NA,NA,NA,NA,NA,NA,NA,NA,NA
c570e,Save data screen,canvas.Screen,1_1_0_1,NA,NA,timeout,499.98,86887,86875.159,86891.825,87375.139,87379.099999905,2023-10-01T08:10:37Z,87391.805,Hoffnung,matarajio,d,kutaalamika,uratibu,mvumbuzi,NA,NA,0,NULL,NA,NA,NA,NA,NA,NA,NA,NA,NA,NA,NA,NA,NA,NA,NA,NA,NA,NA,NA
c570e,deep,flow.Sequence,1_1_0,NA,NA,completion,18850.204,68513.599999905,68508.269,68524.935,87375.139,87379.399999619,2023-10-01T08:10:37Z,87391.805,Hoffnung,matarajio,d,kutaalamika,uratibu,mvumbuzi,NA,NA,NA,NULL,NA,NA,NA,NA,NA,NA,NA,NA,NA,NA,NA,NA,NA,NA,NA,NA,NA,NA,NA
c570e,task,flow.Sequence,1_1,NA,NA,completion,18850.204,68513.599999905,68508.269,68524.935,87375.139,87379.799999714,2023-10-01T08:10:37Z,87391.805,Hoffnung,matarajio,d,kutaalamika,uratibu,mvumbuzi,NA,NA,NA,NULL,NA,NA,NA,NA,NA,NA,NA,NA,NA,NA,NA,NA,NA,NA,NA,NA,NA,NA,NA
c570e,Deep Question,html.Page,1_2_0_0,NA,NA,form submission,10538.294999905,87385.5,87375.139,87391.805,97930.099999905,97930.5,2023-10-01T08:10:47Z,97941.889,Schock,mshtuko,s,biashara,kukataza,vichekesho,mshtuko,NA,NA,NULL,NA,NA,NA,NA,NA,NA,NA,NA,NA,NA,NA,NA,NA,NA,NA,NA,NA,NA,NA
c570e,Save data screen,canvas.Screen,1_2_0_1,NA,NA,timeout,499.98000000001,97932.399999619,97925.223,97941.889,98425.203,98429.899999619,2023-10-01T08:10:48Z,98441.869,Schock,mshtuko,s,biashara,kukataza,vichekesho,NA,NA,1,NULL,NA,NA,NA,NA,NA,NA,NA,NA,NA,NA,NA,NA,NA,NA,NA,NA,NA,NA,NA
c570e,deep,flow.Sequence,1_2_0,NA,NA,completion,11033.398,87385.399999619,87375.139,87391.805,98425.203,98430.199999809,2023-10-01T08:10:48Z,98441.869,Schock,mshtuko,s,biashara,kukataza,vichekesho,NA,NA,NA,NULL,NA,NA,NA,NA,NA,NA,NA,NA,NA,NA,NA,NA,NA,NA,NA,NA,NA,NA,NA
c570e,task,flow.Sequence,1_2,NA,NA,completion,11033.398,87385.299999714,87375.139,87391.805,98425.203,98430.599999905,2023-10-01T08:10:48Z,98441.869,Schock,mshtuko,s,biashara,kukataza,vichekesho,NA,NA,NA,NULL,NA,NA,NA,NA,NA,NA,NA,NA,NA,NA,NA,NA,NA,NA,NA,NA,NA,NA,NA
c570e,Deep Question,html.Page,1_3_0_0,NA,NA,form submission,17511.830999809,98430.699999809,98425.203,98441.869,115953.69999981,115954,2023-10-01T08:11:05Z,115975.049,Notfall,dharura,d,rairai,malalamiko,ahueni,harura,NA,NA,NULL,NA,NA,NA,NA,NA,NA,NA,NA,NA,NA,NA,NA,NA,NA,NA,NA,NA,NA,NA
c570e,Save data screen,canvas.Screen,1_3_0_1,NA,NA,timeout,499.98,115955.79999971,115958.383,115975.049,116458.363,116461.79999971,2023-10-01T08:11:06Z,116475.029,Notfall,dharura,d,rairai,malalamiko,ahueni,NA,NA,0,NULL,NA,NA,NA,NA,NA,NA,NA,NA,NA,NA,NA,NA,NA,NA,NA,NA,NA,NA,NA
c570e,deep,flow.Sequence,1_3_0,NA,NA,completion,18016.494,98430.699999809,98425.203,98441.869,116458.363,116462.0999999,2023-10-01T08:11:06Z,116475.029,Notfall,dharura,d,rairai,malalamiko,ahueni,NA,NA,NA,NULL,NA,NA,NA,NA,NA,NA,NA,NA,NA,NA,NA,NA,NA,NA,NA,NA,NA,NA,NA
c570e,task,flow.Sequence,1_3,NA,NA,completion,18016.494,98430.699999809,98425.203,98441.869,116458.363,116462.39999962,2023-10-01T08:11:06Z,116475.029,Notfall,dharura,d,rairai,malalamiko,ahueni,NA,NA,NA,NULL,NA,NA,NA,NA,NA,NA,NA,NA,NA,NA,NA,NA,NA,NA,NA,NA,NA,NA,NA
c570e,Deep Question,html.Page,1_4_0_0,NA,NA,form submission,12291.670999809,116462.5,116458.363,116475.029,128766.69999981,128767.0999999,2023-10-01T08:11:18Z,128775.135,Theorie,nadharia,s,ushungi,mkutano,uwakilishi,nope,NA,NA,NULL,NA,NA,NA,NA,NA,NA,NA,NA,NA,NA,NA,NA,NA,NA,NA,NA,NA,NA,NA
c570e,Save data screen,canvas.Screen,1_4_0_1,NA,NA,timeout,499.98000000001,128768.69999980999,128758.469,128775.135,129258.449,129262.0999999,2023-10-01T08:11:19Z,129275.115,Theorie,nadharia,s,ushungi,mkutano,uwakilishi,NA,NA,0,NULL,NA,NA,NA,NA,NA,NA,NA,NA,NA,NA,NA,NA,NA,NA,NA,NA,NA,NA,NA
c570e,deep,flow.Sequence,1_4_0,NA,NA,completion,12783.42,116462.5,116458.363,116475.029,129258.449,129262.29999971,2023-10-01T08:11:19Z,129275.115,Theorie,nadharia,s,ushungi,mkutano,uwakilishi,NA,NA,NA,NULL,NA,NA,NA,NA,NA,NA,NA,NA,NA,NA,NA,NA,NA,NA,NA,NA,NA,NA,NA
c570e,task,flow.Sequence,1_4,NA,NA,completion,12783.42,116462.39999962,116458.363,116475.029,129258.449,129262.69999981,2023-10-01T08:11:19Z,129275.115,Theorie,nadharia,s,ushungi,mkutano,uwakilishi,NA,NA,NA,NULL,NA,NA,NA,NA,NA,NA,NA,NA,NA,NA,NA,NA,NA,NA,NA,NA,NA,NA,NA
c570e,Deep Question,html.Page,1_5_0_0,NA,NA,form submission,5802.7849996185,129262.79999971,129258.449,129275.115,135077.89999961999,135078.19999981,2023-10-01T08:11:24Z,135091.899,Toleranz,kuvumiliana,s,maombolezo,ujasusi,mchekeshaji,nope,NA,NA,NULL,NA,NA,NA,NA,NA,NA,NA,NA,NA,NA,NA,NA,NA,NA,NA,NA,NA,NA,NA
c570e,Save data screen,canvas.Screen,1_5_0_1,NA,NA,timeout,499.97999999998,135079.79999971,135075.233,135091.899,135575.213,135578.79999971,2023-10-01T08:11:25Z,135591.879,Toleranz,kuvumiliana,s,maombolezo,ujasusi,mchekeshaji,NA,NA,0,NULL,NA,NA,NA,NA,NA,NA,NA,NA,NA,NA,NA,NA,NA,NA,NA,NA,NA,NA,NA
c570e,deep,flow.Sequence,1_5_0,NA,NA,completion,6300.098,129262.79999971,129258.449,129275.115,135575.213,135579,2023-10-01T08:11:25Z,135591.879,Toleranz,kuvumiliana,s,maombolezo,ujasusi,mchekeshaji,NA,NA,NA,NULL,NA,NA,NA,NA,NA,NA,NA,NA,NA,NA,NA,NA,NA,NA,NA,NA,NA,NA,NA
c570e,task,flow.Sequence,1_5,NA,NA,completion,6300.098,129262.69999981,129258.449,129275.115,135575.213,135579.29999971,2023-10-01T08:11:25Z,135591.879,Toleranz,kuvumiliana,s,maombolezo,ujasusi,mchekeshaji,NA,NA,NA,NULL,NA,NA,NA,NA,NA,NA,NA,NA,NA,NA,NA,NA,NA,NA,NA,NA,NA,NA,NA
c570e,Deep Question,html.Page,1_6_0_0,NA,NA,form submission,12367.121,135579.5,135575.213,135591.879,147959,147959.19999981,2023-10-01T08:11:37Z,147958.541,Inhalt,yaliyomo,d,kishawishi,hifadhi,kutembea,yaliyomo,NA,NA,NULL,NA,NA,NA,NA,NA,NA,NA,NA,NA,NA,NA,NA,NA,NA,NA,NA,NA,NA,NA
c570e,Save data screen,canvas.Screen,1_6_0_1,NA,NA,timeout,499.98000000001,147960.89999962,147941.875,147958.541,148441.855,148446.5999999,2023-10-01T08:11:38Z,148458.521,Inhalt,yaliyomo,d,kishawishi,hifadhi,kutembea,NA,NA,1,NULL,NA,NA,NA,NA,NA,NA,NA,NA,NA,NA,NA,NA,NA,NA,NA,NA,NA,NA,NA
c570e,deep,flow.Sequence,1_6_0,NA,NA,completion,12849.976,135579.5,135575.213,135591.879,148441.855,148446.89999962,2023-10-01T08:11:38Z,148458.521,Inhalt,yaliyomo,d,kishawishi,hifadhi,kutembea,NA,NA,NA,NULL,NA,NA,NA,NA,NA,NA,NA,NA,NA,NA,NA,NA,NA,NA,NA,NA,NA,NA,NA
c570e,task,flow.Sequence,1_6,NA,NA,completion,12849.976,135579.39999961999,135575.213,135591.879,148441.855,148447.0999999,2023-10-01T08:11:38Z,148458.521,Inhalt,yaliyomo,d,kishawishi,hifadhi,kutembea,NA,NA,NA,NULL,NA,NA,NA,NA,NA,NA,NA,NA,NA,NA,NA,NA,NA,NA,NA,NA,NA,NA,NA
c570e,Deep Question,html.Page,1_7_0_0,NA,NA,form submission,35578.078999905,148447.39999962,148441.855,148458.521,184036.5999999,184036.79999971,2023-10-01T08:12:13Z,184058.32,Schlange,foleni,s,uvumilivu,uteuzi,muuzaji,fenoli,NA,NA,NULL,NA,NA,NA,NA,NA,NA,NA,NA,NA,NA,NA,NA,NA,NA,NA,NA,NA,NA,NA
c570e,Save data screen,canvas.Screen,1_7_0_1,NA,NA,timeout,499.97999999998,184038.89999962,184041.654,184058.32,184541.634,184545.69999981,2023-10-01T08:12:14Z,184558.3,Schlange,foleni,s,uvumilivu,uteuzi,muuzaji,NA,NA,0,NULL,NA,NA,NA,NA,NA,NA,NA,NA,NA,NA,NA,NA,NA,NA,NA,NA,NA,NA,NA
c570e,deep,flow.Sequence,1_7_0,NA,NA,completion,36083.113,148447.39999962,148441.855,148458.521,184541.634,184546,2023-10-01T08:12:14Z,184558.3,Schlange,foleni,s,uvumilivu,uteuzi,muuzaji,NA,NA,NA,NULL,NA,NA,NA,NA,NA,NA,NA,NA,NA,NA,NA,NA,NA,NA,NA,NA,NA,NA,NA
c570e,task,flow.Sequence,1_7,NA,NA,completion,36083.113,148447.29999971,148441.855,148458.521,184541.634,184546.29999971,2023-10-01T08:12:14Z,184558.3,Schlange,foleni,s,uvumilivu,uteuzi,muuzaji,NA,NA,NA,NULL,NA,NA,NA,NA,NA,NA,NA,NA,NA,NA,NA,NA,NA,NA,NA,NA,NA,NA,NA
c570e,Deep Question,html.Page,1_8_0_0,NA,NA,form submission,22022.499999714,184546.5,184541.634,184558.3,206580.79999971,206581,2023-10-01T08:12:36Z,206591.798,Schüler,mwanafunzi,d,mwekezaji,matumizi,uaminifu,mwafunzi,NA,NA,NULL,NA,NA,NA,NA,NA,NA,NA,NA,NA,NA,NA,NA,NA,NA,NA,NA,NA,NA,NA
c570e,Save data screen,canvas.Screen,1_8_0_1,NA,NA,timeout,499.97999999998,206582.89999961999,206575.132,206591.798,207075.112,207077.89999962,2023-10-01T08:12:36Z,207091.778,Schüler,mwanafunzi,d,mwekezaji,matumizi,uaminifu,NA,NA,0,NULL,NA,NA,NA,NA,NA,NA,NA,NA,NA,NA,NA,NA,NA,NA,NA,NA,NA,NA,NA
c570e,deep,flow.Sequence,1_8_0,NA,NA,completion,22516.812,184546.5,184541.634,184558.3,207075.112,207078.29999971,2023-10-01T08:12:36Z,207091.778,Schüler,mwanafunzi,d,mwekezaji,matumizi,uaminifu,NA,NA,NA,NULL,NA,NA,NA,NA,NA,NA,NA,NA,NA,NA,NA,NA,NA,NA,NA,NA,NA,NA,NA
c570e,task,flow.Sequence,1_8,NA,NA,completion,22516.812,184546.39999962,184541.634,184558.3,207075.112,207078.5,2023-10-01T08:12:36Z,207091.778,Schüler,mwanafunzi,d,mwekezaji,matumizi,uaminifu,NA,NA,NA,NULL,NA,NA,NA,NA,NA,NA,NA,NA,NA,NA,NA,NA,NA,NA,NA,NA,NA,NA,NA
c570e,Deep Question,html.Page,1_9_0_0,NA,NA,form submission,18388.321999905,207078.69999981,207075.112,207091.778,225480.0999999,225480.29999971,2023-10-01T08:12:55Z,225491.905,Verpackung,ufungaji,d,uhusiano,upimaji,uchunguzi,ufugaji,NA,NA,NULL,NA,NA,NA,NA,NA,NA,NA,NA,NA,NA,NA,NA,NA,NA,NA,NA,NA,NA,NA
c570e,Save data screen,canvas.Screen,1_9_0_1,NA,NA,timeout,499.98000000001,225482,225475.239,225491.905,225975.219,225978.89999962,2023-10-01T08:12:55Z,225991.885,Verpackung,ufungaji,d,uhusiano,upimaji,uchunguzi,NA,NA,0,NULL,NA,NA,NA,NA,NA,NA,NA,NA,NA,NA,NA,NA,NA,NA,NA,NA,NA,NA,NA
c570e,deep,flow.Sequence,1_9_0,NA,NA,completion,18883.441,207078.69999981,207075.112,207091.778,225975.219,225979.29999971,2023-10-01T08:12:55Z,225991.885,Verpackung,ufungaji,d,uhusiano,upimaji,uchunguzi,NA,NA,NA,NULL,NA,NA,NA,NA,NA,NA,NA,NA,NA,NA,NA,NA,NA,NA,NA,NA,NA,NA,NA
c570e,task,flow.Sequence,1_9,NA,NA,completion,18883.441,207078.5999999,207075.112,207091.778,225975.219,225979.39999962,2023-10-01T08:12:55Z,225991.885,Verpackung,ufungaji,d,uhusiano,upimaji,uchunguzi,NA,NA,NA,NULL,NA,NA,NA,NA,NA,NA,NA,NA,NA,NA,NA,NA,NA,NA,NA,NA,NA,NA,NA
c570e,Deep Question,html.Page,1_10_0_0,NA,NA,form submission,29795.014999619,225979.69999981,225975.219,225991.885,255786.89999962,255787.0999999,2023-10-01T08:13:25Z,255791.982,Vergnügen,kichekesho,d,dubwana,mpanuko,mtesaji,nope,NA,NA,NULL,NA,NA,NA,NA,NA,NA,NA,NA,NA,NA,NA,NA,NA,NA,NA,NA,NA,NA,NA
c570e,Save data screen,canvas.Screen,1_10_0_1,NA,NA,timeout,499.98000000001,255788.89999962,255775.316,255791.982,256275.296,256279.89999962,2023-10-01T08:13:26Z,256291.962,Vergnügen,kichekesho,d,dubwana,mpanuko,mtesaji,NA,NA,0,NULL,NA,NA,NA,NA,NA,NA,NA,NA,NA,NA,NA,NA,NA,NA,NA,NA,NA,NA,NA
c570e,deep,flow.Sequence,1_10_0,NA,NA,completion,30283.411,225979.69999981,225975.219,225991.885,256275.296,256280.19999981,2023-10-01T08:13:26Z,256291.962,Vergnügen,kichekesho,d,dubwana,mpanuko,mtesaji,NA,NA,NA,NULL,NA,NA,NA,NA,NA,NA,NA,NA,NA,NA,NA,NA,NA,NA,NA,NA,NA,NA,NA
c570e,task,flow.Sequence,1_10,NA,NA,completion,30283.411,225979.69999981,225975.219,225991.885,256275.296,256280.39999962,2023-10-01T08:13:26Z,256291.962,Vergnügen,kichekesho,d,dubwana,mpanuko,mtesaji,NA,NA,NA,NULL,NA,NA,NA,NA,NA,NA,NA,NA,NA,NA,NA,NA,NA,NA,NA,NA,NA,NA,NA
c570e,Deep Question,html.Page,1_11_0_0,NA,NA,form submission,23007.337999714,256280.69999981,256275.296,256291.962,279299.29999971,279299.5999999,2023-10-01T08:13:49Z,279308.779,Ergänzung,kijalizo,s,ulaghai,mustarehe,matangazo,nope,NA,NA,NULL,NA,NA,NA,NA,NA,NA,NA,NA,NA,NA,NA,NA,NA,NA,NA,NA,NA,NA,NA
c570e,Save data screen,canvas.Screen,1_11_0_1,NA,NA,timeout,499.98000000004,279301.19999981,279292.113,279308.779,279792.093,279796.5,2023-10-01T08:13:49Z,279808.759,Ergänzung,kijalizo,s,ulaghai,mustarehe,matangazo,NA,NA,0,NULL,NA,NA,NA,NA,NA,NA,NA,NA,NA,NA,NA,NA,NA,NA,NA,NA,NA,NA,NA
c570e,deep,flow.Sequence,1_11_0,NA,NA,completion,23500.131,256280.69999981,256275.296,256291.962,279792.093,279796.79999971,2023-10-01T08:13:49Z,279808.759,Ergänzung,kijalizo,s,ulaghai,mustarehe,matangazo,NA,NA,NA,NULL,NA,NA,NA,NA,NA,NA,NA,NA,NA,NA,NA,NA,NA,NA,NA,NA,NA,NA,NA
c570e,task,flow.Sequence,1_11,NA,NA,completion,23500.131,256280.5,256275.296,256291.962,279792.093,279797,2023-10-01T08:13:49Z,279808.759,Ergänzung,kijalizo,s,ulaghai,mustarehe,matangazo,NA,NA,NA,NULL,NA,NA,NA,NA,NA,NA,NA,NA,NA,NA,NA,NA,NA,NA,NA,NA,NA,NA,NA
c570e,Deep Question,html.Page,1_12_0_0,NA,NA,form submission,20887.440999809,279797.0999999,279792.093,279808.759,300696.19999981,300696.39999962,2023-10-01T08:14:10Z,300708.716,Wohlstand,mafanikio,s,chimbuko,kumbuko,mapwaji,ugenfagi,NA,NA,NULL,NA,NA,NA,NA,NA,NA,NA,NA,NA,NA,NA,NA,NA,NA,NA,NA,NA,NA,NA
c570e,Save data screen,canvas.Screen,1_12_0_1,NA,NA,timeout,499.97999999998,300698.19999981,300692.05,300708.716,301192.03,301194.0999999,2023-10-01T08:14:10Z,301208.696,Wohlstand,mafanikio,s,chimbuko,kumbuko,mapwaji,NA,NA,0,NULL,NA,NA,NA,NA,NA,NA,NA,NA,NA,NA,NA,NA,NA,NA,NA,NA,NA,NA,NA
c570e,deep,flow.Sequence,1_12_0,NA,NA,completion,21383.271,279797.0999999,279792.093,279808.759,301192.03,301194.29999971,2023-10-01T08:14:10Z,301208.696,Wohlstand,mafanikio,s,chimbuko,kumbuko,mapwaji,NA,NA,NA,NULL,NA,NA,NA,NA,NA,NA,NA,NA,NA,NA,NA,NA,NA,NA,NA,NA,NA,NA,NA
c570e,task,flow.Sequence,1_12,NA,NA,completion,21383.271,279797,279792.093,279808.759,301192.03,301194.5,2023-10-01T08:14:10Z,301208.696,Wohlstand,mafanikio,s,chimbuko,kumbuko,mapwaji,NA,NA,NA,NULL,NA,NA,NA,NA,NA,NA,NA,NA,NA,NA,NA,NA,NA,NA,NA,NA,NA,NA,NA
c570e,Deep Question,html.Page,1_13_0_0,NA,NA,form submission,7845.0039998093,301194.5999999,301192.03,301208.696,309053.69999981,309053.89999962,2023-10-01T08:14:18Z,309058.846,Tester,wanaojaribu,d,sherti,sihiri,mlipuko,nope,NA,NA,NULL,NA,NA,NA,NA,NA,NA,NA,NA,NA,NA,NA,NA,NA,NA,NA,NA,NA,NA,NA
c570e,Save data screen,canvas.Screen,1_13_0_1,NA,NA,timeout,499.97999999998,309055.39999962,309042.18,309058.846,309542.16,309544.89999962,2023-10-01T08:14:19Z,309558.826,Tester,wanaojaribu,d,sherti,sihiri,mlipuko,NA,NA,0,NULL,NA,NA,NA,NA,NA,NA,NA,NA,NA,NA,NA,NA,NA,NA,NA,NA,NA,NA,NA
c570e,deep,flow.Sequence,1_13_0,NA,NA,completion,8333.464,301194.5999999,301192.03,301208.696,309542.16,309545.5,2023-10-01T08:14:19Z,309558.826,Tester,wanaojaribu,d,sherti,sihiri,mlipuko,NA,NA,NA,NULL,NA,NA,NA,NA,NA,NA,NA,NA,NA,NA,NA,NA,NA,NA,NA,NA,NA,NA,NA
c570e,task,flow.Sequence,1_13,NA,NA,completion,8333.464,301194.5999999,301192.03,301208.696,309542.16,309545.69999981,2023-10-01T08:14:19Z,309558.826,Tester,wanaojaribu,d,sherti,sihiri,mlipuko,NA,NA,NA,NULL,NA,NA,NA,NA,NA,NA,NA,NA,NA,NA,NA,NA,NA,NA,NA,NA,NA,NA,NA
c570e,Deep Question,html.Page,1_14_0_0,NA,NA,form submission,26866.373999809,309545.89999962,309542.16,309558.826,336425.19999981,336425.5999999,2023-10-01T08:14:46Z,336425.506,Fenster,dirisha,s,walakini,tasawari,maarifa,dirisha,NA,NA,NULL,NA,NA,NA,NA,NA,NA,NA,NA,NA,NA,NA,NA,NA,NA,NA,NA,NA,NA,NA
c570e,Save data screen,canvas.Screen,1_14_0_1,NA,NA,timeout,499.97999999998,336427.69999981,336408.84,336425.506,336908.82,336912.29999971,2023-10-01T08:14:46Z,336925.486,Fenster,dirisha,s,walakini,tasawari,maarifa,NA,NA,1,NULL,NA,NA,NA,NA,NA,NA,NA,NA,NA,NA,NA,NA,NA,NA,NA,NA,NA,NA,NA
c570e,deep,flow.Sequence,1_14_0,NA,NA,completion,27349.994,309545.89999962,309542.16,309558.826,336908.82,336912.5999999,2023-10-01T08:14:46Z,336925.486,Fenster,dirisha,s,walakini,tasawari,maarifa,NA,NA,NA,NULL,NA,NA,NA,NA,NA,NA,NA,NA,NA,NA,NA,NA,NA,NA,NA,NA,NA,NA,NA
c570e,task,flow.Sequence,1_14,NA,NA,completion,27349.994,309545.89999962,309542.16,309558.826,336908.82,336912.79999971,2023-10-01T08:14:46Z,336925.486,Fenster,dirisha,s,walakini,tasawari,maarifa,NA,NA,NA,NULL,NA,NA,NA,NA,NA,NA,NA,NA,NA,NA,NA,NA,NA,NA,NA,NA,NA,NA,NA
c570e,Deep Question,html.Page,1_15_0_0,NA,NA,form submission,4561.9139996186,336912.89999962,336908.82,336925.486,341487.39999962,341487.69999981,2023-10-01T08:14:51Z,341491.97,Spionage,upelelezi,s,maslahi,utokazo,magangao,nope,NA,NA,NULL,NA,NA,NA,NA,NA,NA,NA,NA,NA,NA,NA,NA,NA,NA,NA,NA,NA,NA,NA
c570e,Save data screen,canvas.Screen,1_15_0_1,NA,NA,timeout,499.98000000004,341488.29999971,341475.304,341491.97,341975.284,341979.5999999,2023-10-01T08:14:51Z,341991.95,Spionage,upelelezi,s,maslahi,utokazo,magangao,NA,NA,0,NULL,NA,NA,NA,NA,NA,NA,NA,NA,NA,NA,NA,NA,NA,NA,NA,NA,NA,NA,NA
c570e,deep,flow.Sequence,1_15_0,NA,NA,completion,5049.798,336912.89999962,336908.82,336925.486,341975.284,341979.89999962,2023-10-01T08:14:51Z,341991.95,Spionage,upelelezi,s,maslahi,utokazo,magangao,NA,NA,NA,NULL,NA,NA,NA,NA,NA,NA,NA,NA,NA,NA,NA,NA,NA,NA,NA,NA,NA,NA,NA
c570e,task,flow.Sequence,1_15,NA,NA,completion,5049.798,336912.79999971,336908.82,336925.486,341975.284,341980.0999999,2023-10-01T08:14:51Z,341991.95,Spionage,upelelezi,s,maslahi,utokazo,magangao,NA,NA,NA,NULL,NA,NA,NA,NA,NA,NA,NA,NA,NA,NA,NA,NA,NA,NA,NA,NA,NA,NA,NA
c570e,retrieval block 1 (cued recall),flow.Loop,1,NA,NA,completion,321450.544,20514.099999905,20508.074,20524.74,341975.284,341980.29999971,2023-10-01T08:14:51Z,341991.95,NA,NA,NA,NA,NA,NA,NA,NA,NA,NULL,NA,NA,NA,NA,NA,NA,NA,NA,NA,NA,NA,NA,NA,NA,NA,NA,NA,NA,NA
c570e,Shallow Question,html.Page,2_0_0_0,NA,NA,form submission,4489.4499996185,341980.5,341975.284,341991.95,346481.39999962,346481.79999971,2023-10-01T08:14:56Z,346508.872,Schock,mshtuko,s,biashara,kukataza,vichekesho,mshtuko,NA,NA,"c(""distractor1"", ""distractor2"", ""distractor3"")",NA,NA,NA,NA,NA,NA,NA,NA,NA,NA,NA,NA,NA,NA,NA,NA,NA,NA,NA
c570e,Save data screen,canvas.Screen,2_0_0_1,NA,NA,timeout,499.98000000004,346482.29999971,346492.206,346508.872,346992.186,346996.5,2023-10-01T08:14:56Z,347008.852,Schock,mshtuko,s,biashara,kukataza,vichekesho,NA,NA,1,"c(""distractor1"", ""distractor2"", ""distractor3"")",NA,NA,NA,NA,NA,NA,NA,NA,NA,NA,NA,NA,NA,NA,NA,NA,NA,NA,NA
c570e,shallow,flow.Sequence,2_0_0,NA,NA,completion,5000.236,341980.5,341975.284,341991.95,346992.186,346996.89999962,2023-10-01T08:14:56Z,347008.852,Schock,mshtuko,s,biashara,kukataza,vichekesho,NA,NA,NA,"c(""distractor1"", ""distractor2"", ""distractor3"")",NA,NA,NA,NA,NA,NA,NA,NA,NA,NA,NA,NA,NA,NA,NA,NA,NA,NA,NA
c570e,task,flow.Sequence,2_0,NA,NA,completion,5000.236,341980.5,341975.284,341991.95,346992.186,346997.0999999,2023-10-01T08:14:56Z,347008.852,Schock,mshtuko,s,biashara,kukataza,vichekesho,NA,NA,NA,"c(""distractor1"", ""distractor2"", ""distractor3"")",NA,NA,NA,NA,NA,NA,NA,NA,NA,NA,NA,NA,NA,NA,NA,NA,NA,NA,NA
c570e,Shallow Question,html.Page,2_1_0_0,NA,NA,form submission,21690.447999714,346997.19999981,346992.186,347008.852,368699.29999971,368699.69999981,2023-10-01T08:15:18Z,368708.877,Theorie,nadharia,s,ushungi,mkutano,uwakilishi,nadharia,NA,NA,"c(""distractor1"", ""distractor2"", ""distractor3"")",NA,NA,NA,NA,NA,NA,NA,NA,NA,NA,NA,NA,NA,NA,NA,NA,NA,NA,NA
c570e,Save data screen,canvas.Screen,2_1_0_1,NA,NA,timeout,499.98000000004,368701.29999971,368692.211,368708.877,369192.191,369196.19999981,2023-10-01T08:15:18Z,369208.857,Theorie,nadharia,s,ushungi,mkutano,uwakilishi,NA,NA,1,"c(""distractor1"", ""distractor2"", ""distractor3"")",NA,NA,NA,NA,NA,NA,NA,NA,NA,NA,NA,NA,NA,NA,NA,NA,NA,NA,NA
c570e,shallow,flow.Sequence,2_1_0,NA,NA,completion,22183.339,346997.19999981,346992.186,347008.852,369192.191,369196.39999962,2023-10-01T08:15:18Z,369208.857,Theorie,nadharia,s,ushungi,mkutano,uwakilishi,NA,NA,NA,"c(""distractor1"", ""distractor2"", ""distractor3"")",NA,NA,NA,NA,NA,NA,NA,NA,NA,NA,NA,NA,NA,NA,NA,NA,NA,NA,NA
c570e,task,flow.Sequence,2_1,NA,NA,completion,22183.339,346997.19999981,346992.186,347008.852,369192.191,369196.5999999,2023-10-01T08:15:18Z,369208.857,Theorie,nadharia,s,ushungi,mkutano,uwakilishi,NA,NA,NA,"c(""distractor1"", ""distractor2"", ""distractor3"")",NA,NA,NA,NA,NA,NA,NA,NA,NA,NA,NA,NA,NA,NA,NA,NA,NA,NA,NA
c570e,Shallow Question,html.Page,2_2_0_0,NA,NA,form submission,22496.442999714,369196.69999981,369192.191,369208.857,391705.29999971,391705.5999999,2023-10-01T08:15:41Z,391708.854,Vermutung,udhanifu,d,haramia,tikisho,itifaki,udhanifu,NA,NA,"c(""distractor1"", ""distractor2"", ""distractor3"")",NA,NA,NA,NA,NA,NA,NA,NA,NA,NA,NA,NA,NA,NA,NA,NA,NA,NA,NA
c570e,Save data screen,canvas.Screen,2_2_0_1,NA,NA,timeout,499.97999999998,391708,391692.188,391708.854,392192.168,392193.29999971,2023-10-01T08:15:41Z,392208.834,Vermutung,udhanifu,d,haramia,tikisho,itifaki,NA,NA,1,"c(""distractor1"", ""distractor2"", ""distractor3"")",NA,NA,NA,NA,NA,NA,NA,NA,NA,NA,NA,NA,NA,NA,NA,NA,NA,NA,NA
c570e,shallow,flow.Sequence,2_2_0,NA,NA,completion,22983.311,369196.69999981,369192.191,369208.857,392192.168,392193.5,2023-10-01T08:15:41Z,392208.834,Vermutung,udhanifu,d,haramia,tikisho,itifaki,NA,NA,NA,"c(""distractor1"", ""distractor2"", ""distractor3"")",NA,NA,NA,NA,NA,NA,NA,NA,NA,NA,NA,NA,NA,NA,NA,NA,NA,NA,NA
c570e,task,flow.Sequence,2_2,NA,NA,completion,22983.311,369196.69999981,369192.191,369208.857,392192.168,392193.69999981,2023-10-01T08:15:41Z,392208.834,Vermutung,udhanifu,d,haramia,tikisho,itifaki,NA,NA,NA,"c(""distractor1"", ""distractor2"", ""distractor3"")",NA,NA,NA,NA,NA,NA,NA,NA,NA,NA,NA,NA,NA,NA,NA,NA,NA,NA,NA
c570e,Shallow Question,html.Page,2_3_0_0,NA,NA,form submission,5672.4659997139,392193.89999962,392192.168,392208.834,397881.29999971,397881.5999999,2023-10-01T08:15:47Z,397908.606,Inhalt,yaliyomo,d,kishawishi,hifadhi,kutembea,yaliyomo,NA,NA,"c(""distractor1"", ""distractor2"", ""distractor3"")",NA,NA,NA,NA,NA,NA,NA,NA,NA,NA,NA,NA,NA,NA,NA,NA,NA,NA,NA
c570e,Save data screen,canvas.Screen,2_3_0_1,NA,NA,timeout,499.97999999998,397883.29999971,397891.94,397908.606,398391.92,398393.39999962,2023-10-01T08:15:48Z,398408.586,Inhalt,yaliyomo,d,kishawishi,hifadhi,kutembea,NA,NA,1,"c(""distractor1"", ""distractor2"", ""distractor3"")",NA,NA,NA,NA,NA,NA,NA,NA,NA,NA,NA,NA,NA,NA,NA,NA,NA,NA,NA
c570e,shallow,flow.Sequence,2_3_0,NA,NA,completion,6183.086,392193.89999962,392192.168,392208.834,398391.92,398393.5,2023-10-01T08:15:48Z,398408.586,Inhalt,yaliyomo,d,kishawishi,hifadhi,kutembea,NA,NA,NA,"c(""distractor1"", ""distractor2"", ""distractor3"")",NA,NA,NA,NA,NA,NA,NA,NA,NA,NA,NA,NA,NA,NA,NA,NA,NA,NA,NA
c570e,task,flow.Sequence,2_3,NA,NA,completion,6183.086,392193.79999971,392192.168,392208.834,398391.92,398393.69999981,2023-10-01T08:15:48Z,398408.586,Inhalt,yaliyomo,d,kishawishi,hifadhi,kutembea,NA,NA,NA,"c(""distractor1"", ""distractor2"", ""distractor3"")",NA,NA,NA,NA,NA,NA,NA,NA,NA,NA,NA,NA,NA,NA,NA,NA,NA,NA,NA
c570e,Shallow Question,html.Page,2_4_0_0,NA,NA,form submission,9001.6139998093,398393.89999962,398391.92,398408.586,407410.19999981,407410.5,2023-10-01T08:15:57Z,407425.351,Vergnügen,kichekesho,d,dubwana,mpanuko,mtesaji,kichekesho,NA,NA,"c(""distractor1"", ""distractor2"", ""distractor3"")",NA,NA,NA,NA,NA,NA,NA,NA,NA,NA,NA,NA,NA,NA,NA,NA,NA,NA,NA
c570e,Save data screen,canvas.Screen,2_4_0_1,NA,NA,timeout,499.97999999998,407412.5999999,407408.685,407425.351,407908.665,407912.89999962,2023-10-01T08:15:57Z,407925.331,Vergnügen,kichekesho,d,dubwana,mpanuko,mtesaji,NA,NA,1,"c(""distractor1"", ""distractor2"", ""distractor3"")",NA,NA,NA,NA,NA,NA,NA,NA,NA,NA,NA,NA,NA,NA,NA,NA,NA,NA,NA
c570e,shallow,flow.Sequence,2_4_0,NA,NA,completion,9500.079,398393.89999962,398391.92,398408.586,407908.665,407913.29999971,2023-10-01T08:15:57Z,407925.331,Vergnügen,kichekesho,d,dubwana,mpanuko,mtesaji,NA,NA,NA,"c(""distractor1"", ""distractor2"", ""distractor3"")",NA,NA,NA,NA,NA,NA,NA,NA,NA,NA,NA,NA,NA,NA,NA,NA,NA,NA,NA
c570e,task,flow.Sequence,2_4,NA,NA,completion,9500.079,398393.79999971,398391.92,398408.586,407908.665,407913.5999999,2023-10-01T08:15:57Z,407925.331,Vergnügen,kichekesho,d,dubwana,mpanuko,mtesaji,NA,NA,NA,"c(""distractor1"", ""distractor2"", ""distractor3"")",NA,NA,NA,NA,NA,NA,NA,NA,NA,NA,NA,NA,NA,NA,NA,NA,NA,NA,NA
c570e,Shallow Question,html.Page,2_5_0_0,NA,NA,form submission,37002.169,407913.79999971,407908.665,407925.331,444927.5,444927.79999971,2023-10-01T08:16:34Z,444942.23,Tester,wanaojaribu,d,sherti,sihiri,mlipuko,wanaojaribu,NA,NA,"c(""distractor1"", ""distractor2"", ""distractor3"")",NA,NA,NA,NA,NA,NA,NA,NA,NA,NA,NA,NA,NA,NA,NA,NA,NA,NA,NA
c570e,Save data screen,canvas.Screen,2_5_0_1,NA,NA,timeout,499.98000000004,444930,444925.564,444942.23,445425.544,445429.69999981,2023-10-01T08:16:35Z,445442.21,Tester,wanaojaribu,d,sherti,sihiri,mlipuko,NA,NA,1,"c(""distractor1"", ""distractor2"", ""distractor3"")",NA,NA,NA,NA,NA,NA,NA,NA,NA,NA,NA,NA,NA,NA,NA,NA,NA,NA,NA
c570e,shallow,flow.Sequence,2_5_0,NA,NA,completion,37500.213,407913.79999971,407908.665,407925.331,445425.544,445430,2023-10-01T08:16:35Z,445442.21,Tester,wanaojaribu,d,sherti,sihiri,mlipuko,NA,NA,NA,"c(""distractor1"", ""distractor2"", ""distractor3"")",NA,NA,NA,NA,NA,NA,NA,NA,NA,NA,NA,NA,NA,NA,NA,NA,NA,NA,NA
c570e,task,flow.Sequence,2_5,NA,NA,completion,37500.213,407913.69999981,407908.665,407925.331,445425.544,445430.19999981,2023-10-01T08:16:35Z,445442.21,Tester,wanaojaribu,d,sherti,sihiri,mlipuko,NA,NA,NA,"c(""distractor1"", ""distractor2"", ""distractor3"")",NA,NA,NA,NA,NA,NA,NA,NA,NA,NA,NA,NA,NA,NA,NA,NA,NA,NA,NA
c570e,Shallow Question,html.Page,2_6_0_0,NA,NA,form submission,6650.29,445430.39999962,445425.544,445442.21,452092.5,452092.79999971,2023-10-01T08:16:41Z,452092.348,Verpackung,ufungaji,d,uhusiano,upimaji,uchunguzi,ufungaji,NA,NA,"c(""distractor1"", ""distractor2"", ""distractor3"")",NA,NA,NA,NA,NA,NA,NA,NA,NA,NA,NA,NA,NA,NA,NA,NA,NA,NA,NA
c570e,Save data screen,canvas.Screen,2_6_0_1,NA,NA,timeout,499.97999999998,452094.69999981,452075.682,452092.348,452575.662,452581.79999971,2023-10-01T08:16:42Z,452592.328,Verpackung,ufungaji,d,uhusiano,upimaji,uchunguzi,NA,NA,1,"c(""distractor1"", ""distractor2"", ""distractor3"")",NA,NA,NA,NA,NA,NA,NA,NA,NA,NA,NA,NA,NA,NA,NA,NA,NA,NA,NA
c570e,shallow,flow.Sequence,2_6_0,NA,NA,completion,7133.452,445430.39999962,445425.544,445442.21,452575.662,452582.0999999,2023-10-01T08:16:42Z,452592.328,Verpackung,ufungaji,d,uhusiano,upimaji,uchunguzi,NA,NA,NA,"c(""distractor1"", ""distractor2"", ""distractor3"")",NA,NA,NA,NA,NA,NA,NA,NA,NA,NA,NA,NA,NA,NA,NA,NA,NA,NA,NA
c570e,task,flow.Sequence,2_6,NA,NA,completion,7133.452,445430.29999971,445425.544,445442.21,452575.662,452582.19999981,2023-10-01T08:16:42Z,452592.328,Verpackung,ufungaji,d,uhusiano,upimaji,uchunguzi,NA,NA,NA,"c(""distractor1"", ""distractor2"", ""distractor3"")",NA,NA,NA,NA,NA,NA,NA,NA,NA,NA,NA,NA,NA,NA,NA,NA,NA,NA,NA
c570e,Shallow Question,html.Page,2_7_0_0,NA,NA,form submission,6126.3719998093,452582.29999971,452575.662,452592.328,458718.69999981,458718.79999971,2023-10-01T08:16:48Z,458742.082,Notfall,dharura,d,rairai,malalamiko,ahueni,dharura,NA,NA,"c(""distractor1"", ""distractor2"", ""distractor3"")",NA,NA,NA,NA,NA,NA,NA,NA,NA,NA,NA,NA,NA,NA,NA,NA,NA,NA,NA
c570e,Save data screen,canvas.Screen,2_7_0_1,NA,NA,timeout,499.97999999998,458719.39999962,458725.416,458742.082,459225.396,459229.0999999,2023-10-01T08:16:48Z,459242.062,Notfall,dharura,d,rairai,malalamiko,ahueni,NA,NA,1,"c(""distractor1"", ""distractor2"", ""distractor3"")",NA,NA,NA,NA,NA,NA,NA,NA,NA,NA,NA,NA,NA,NA,NA,NA,NA,NA,NA
c570e,shallow,flow.Sequence,2_7_0,NA,NA,completion,6633.068,452582.19999981,452575.662,452592.328,459225.396,459229.39999962,2023-10-01T08:16:48Z,459242.062,Notfall,dharura,d,rairai,malalamiko,ahueni,NA,NA,NA,"c(""distractor1"", ""distractor2"", ""distractor3"")",NA,NA,NA,NA,NA,NA,NA,NA,NA,NA,NA,NA,NA,NA,NA,NA,NA,NA,NA
c570e,task,flow.Sequence,2_7,NA,NA,completion,6633.068,452582.19999981,452575.662,452592.328,459225.396,459229.5999999,2023-10-01T08:16:48Z,459242.062,Notfall,dharura,d,rairai,malalamiko,ahueni,NA,NA,NA,"c(""distractor1"", ""distractor2"", ""distractor3"")",NA,NA,NA,NA,NA,NA,NA,NA,NA,NA,NA,NA,NA,NA,NA,NA,NA,NA,NA
c570e,Shallow Question,html.Page,2_8_0_0,NA,NA,form submission,24035.737999714,459229.79999971,459225.396,459242.062,483277.79999971,483278.0999999,2023-10-01T08:17:13Z,483292.383,Toleranz,kuvumiliana,s,maombolezo,ujasusi,mchekeshaji,kuvumiliana,NA,NA,"c(""distractor1"", ""distractor2"", ""distractor3"")",NA,NA,NA,NA,NA,NA,NA,NA,NA,NA,NA,NA,NA,NA,NA,NA,NA,NA,NA
c570e,Save data screen,canvas.Screen,2_8_0_1,NA,NA,timeout,499.98000000004,483280.29999971,483275.717,483292.383,483775.697,483777.5,2023-10-01T08:17:13Z,483792.363,Toleranz,kuvumiliana,s,maombolezo,ujasusi,mchekeshaji,NA,NA,1,"c(""distractor1"", ""distractor2"", ""distractor3"")",NA,NA,NA,NA,NA,NA,NA,NA,NA,NA,NA,NA,NA,NA,NA,NA,NA,NA,NA
c570e,shallow,flow.Sequence,2_8_0,NA,NA,completion,24533.635,459229.79999971,459225.396,459242.062,483775.697,483777.79999971,2023-10-01T08:17:13Z,483792.363,Toleranz,kuvumiliana,s,maombolezo,ujasusi,mchekeshaji,NA,NA,NA,"c(""distractor1"", ""distractor2"", ""distractor3"")",NA,NA,NA,NA,NA,NA,NA,NA,NA,NA,NA,NA,NA,NA,NA,NA,NA,NA,NA
c570e,task,flow.Sequence,2_8,NA,NA,completion,24533.635,459229.69999981,459225.396,459242.062,483775.697,483777.89999962,2023-10-01T08:17:13Z,483792.363,Toleranz,kuvumiliana,s,maombolezo,ujasusi,mchekeshaji,NA,NA,NA,"c(""distractor1"", ""distractor2"", ""distractor3"")",NA,NA,NA,NA,NA,NA,NA,NA,NA,NA,NA,NA,NA,NA,NA,NA,NA,NA,NA
c570e,Shallow Question,html.Page,2_9_0_0,NA,NA,form submission,3355.2369999046,483778.0999999,483775.697,483792.363,487147.5999999,487147.89999962,2023-10-01T08:17:16Z,487158.895,Fenster,dirisha,s,walakini,tasawari,maarifa,dirisha,NA,NA,"c(""distractor1"", ""distractor2"", ""distractor3"")",NA,NA,NA,NA,NA,NA,NA,NA,NA,NA,NA,NA,NA,NA,NA,NA,NA,NA,NA
c570e,Save data screen,canvas.Screen,2_9_0_1,NA,NA,timeout,499.97999999998,487148.69999981,487142.229,487158.895,487642.209,487644.5999999,2023-10-01T08:17:17Z,487658.875,Fenster,dirisha,s,walakini,tasawari,maarifa,NA,NA,1,"c(""distractor1"", ""distractor2"", ""distractor3"")",NA,NA,NA,NA,NA,NA,NA,NA,NA,NA,NA,NA,NA,NA,NA,NA,NA,NA,NA
c570e,shallow,flow.Sequence,2_9_0,NA,NA,completion,3849.846,483778.0999999,483775.697,483792.363,487642.209,487644.79999971,2023-10-01T08:17:17Z,487658.875,Fenster,dirisha,s,walakini,tasawari,maarifa,NA,NA,NA,"c(""distractor1"", ""distractor2"", ""distractor3"")",NA,NA,NA,NA,NA,NA,NA,NA,NA,NA,NA,NA,NA,NA,NA,NA,NA,NA,NA
c570e,task,flow.Sequence,2_9,NA,NA,completion,3849.846,483778.0999999,483775.697,483792.363,487642.209,487645,2023-10-01T08:17:17Z,487658.875,Fenster,dirisha,s,walakini,tasawari,maarifa,NA,NA,NA,"c(""distractor1"", ""distractor2"", ""distractor3"")",NA,NA,NA,NA,NA,NA,NA,NA,NA,NA,NA,NA,NA,NA,NA,NA,NA,NA,NA
c570e,Shallow Question,html.Page,2_10_0_0,NA,NA,form submission,14248.424999714,487645.0999999,487642.209,487658.875,501907.29999971,501907.5999999,2023-10-01T08:17:31Z,501925.818,Schlange,foleni,s,uvumilivu,uteuzi,muuzaji,foleni,NA,NA,"c(""distractor1"", ""distractor2"", ""distractor3"")",NA,NA,NA,NA,NA,NA,NA,NA,NA,NA,NA,NA,NA,NA,NA,NA,NA,NA,NA
c570e,Save data screen,canvas.Screen,2_10_0_1,NA,NA,timeout,499.97999999998,501909.89999962,501909.152,501925.818,502409.132,502411.29999971,2023-10-01T08:17:32Z,502425.798,Schlange,foleni,s,uvumilivu,uteuzi,muuzaji,NA,NA,1,"c(""distractor1"", ""distractor2"", ""distractor3"")",NA,NA,NA,NA,NA,NA,NA,NA,NA,NA,NA,NA,NA,NA,NA,NA,NA,NA,NA
c570e,shallow,flow.Sequence,2_10_0,NA,NA,completion,14750.257,487645,487642.209,487658.875,502409.132,502411.5,2023-10-01T08:17:32Z,502425.798,Schlange,foleni,s,uvumilivu,uteuzi,muuzaji,NA,NA,NA,"c(""distractor1"", ""distractor2"", ""distractor3"")",NA,NA,NA,NA,NA,NA,NA,NA,NA,NA,NA,NA,NA,NA,NA,NA,NA,NA,NA
c570e,task,flow.Sequence,2_10,NA,NA,completion,14750.257,487645,487642.209,487658.875,502409.132,502411.69999981,2023-10-01T08:17:32Z,502425.798,Schlange,foleni,s,uvumilivu,uteuzi,muuzaji,NA,NA,NA,"c(""distractor1"", ""distractor2"", ""distractor3"")",NA,NA,NA,NA,NA,NA,NA,NA,NA,NA,NA,NA,NA,NA,NA,NA,NA,NA,NA
c570e,Shallow Question,html.Page,2_11_0_0,NA,NA,form submission,3745.0019997139,502411.89999962,502409.132,502425.798,506170.79999971,506171.19999981,2023-10-01T08:17:35Z,506175.648,Schüler,mwanafunzi,d,mwekezaji,matumizi,uaminifu,mwanafunzi,NA,NA,"c(""distractor1"", ""distractor2"", ""distractor3"")",NA,NA,NA,NA,NA,NA,NA,NA,NA,NA,NA,NA,NA,NA,NA,NA,NA,NA,NA
c570e,Save data screen,canvas.Screen,2_11_0_1,NA,NA,timeout,499.98000000004,506172,506158.982,506175.648,506658.962,506661.69999981,2023-10-01T08:17:36Z,506675.628,Schüler,mwanafunzi,d,mwekezaji,matumizi,uaminifu,NA,NA,1,"c(""distractor1"", ""distractor2"", ""distractor3"")",NA,NA,NA,NA,NA,NA,NA,NA,NA,NA,NA,NA,NA,NA,NA,NA,NA,NA,NA
c570e,shallow,flow.Sequence,2_11_0,NA,NA,completion,4233.164,502411.89999962,502409.132,502425.798,506658.962,506662,2023-10-01T08:17:36Z,506675.628,Schüler,mwanafunzi,d,mwekezaji,matumizi,uaminifu,NA,NA,NA,"c(""distractor1"", ""distractor2"", ""distractor3"")",NA,NA,NA,NA,NA,NA,NA,NA,NA,NA,NA,NA,NA,NA,NA,NA,NA,NA,NA
c570e,task,flow.Sequence,2_11,NA,NA,completion,4233.164,502411.89999962,502409.132,502425.798,506658.962,506662.19999981,2023-10-01T08:17:36Z,506675.628,Schüler,mwanafunzi,d,mwekezaji,matumizi,uaminifu,NA,NA,NA,"c(""distractor1"", ""distractor2"", ""distractor3"")",NA,NA,NA,NA,NA,NA,NA,NA,NA,NA,NA,NA,NA,NA,NA,NA,NA,NA,NA
c570e,Shallow Question,html.Page,2_12_0_0,NA,NA,form submission,35550.571999809,506662.39999962,506658.962,506675.628,542226.19999981,542226.5,2023-10-01T08:18:11Z,542242.109,Wohlstand,mafanikio,s,chimbuko,kumbuko,mapwaji,mafanikio,NA,NA,"c(""distractor1"", ""distractor2"", ""distractor3"")",NA,NA,NA,NA,NA,NA,NA,NA,NA,NA,NA,NA,NA,NA,NA,NA,NA,NA,NA
c570e,Save data screen,canvas.Screen,2_12_0_1,NA,NA,timeout,499.97999999998,542228.79999971,542225.443,542242.109,542725.423,542727.19999981,2023-10-01T08:18:12Z,542742.089,Wohlstand,mafanikio,s,chimbuko,kumbuko,mapwaji,NA,NA,1,"c(""distractor1"", ""distractor2"", ""distractor3"")",NA,NA,NA,NA,NA,NA,NA,NA,NA,NA,NA,NA,NA,NA,NA,NA,NA,NA,NA
c570e,shallow,flow.Sequence,2_12_0,NA,NA,completion,36049.795,506662.29999971,506658.962,506675.628,542725.423,542727.5,2023-10-01T08:18:12Z,542742.089,Wohlstand,mafanikio,s,chimbuko,kumbuko,mapwaji,NA,NA,NA,"c(""distractor1"", ""distractor2"", ""distractor3"")",NA,NA,NA,NA,NA,NA,NA,NA,NA,NA,NA,NA,NA,NA,NA,NA,NA,NA,NA
c570e,task,flow.Sequence,2_12,NA,NA,completion,36049.795,506662.29999971,506658.962,506675.628,542725.423,542727.69999981,2023-10-01T08:18:12Z,542742.089,Wohlstand,mafanikio,s,chimbuko,kumbuko,mapwaji,NA,NA,NA,"c(""distractor1"", ""distractor2"", ""distractor3"")",NA,NA,NA,NA,NA,NA,NA,NA,NA,NA,NA,NA,NA,NA,NA,NA,NA,NA,NA
c570e,Shallow Question,html.Page,2_13_0_0,NA,NA,form submission,4816.911,542727.89999962,542725.423,542742.089,547559,547559.29999971,2023-10-01T08:18:17Z,547559.087,Hoffnung,matarajio,d,kutaalamika,uratibu,mvumbuzi,matarajio,NA,NA,"c(""distractor1"", ""distractor2"", ""distractor3"")",NA,NA,NA,NA,NA,NA,NA,NA,NA,NA,NA,NA,NA,NA,NA,NA,NA,NA,NA
c570e,Save data screen,canvas.Screen,2_13_0_1,NA,NA,timeout,499.97999999998,547560.19999981,547542.421,547559.087,548042.401,548045.39999962,2023-10-01T08:18:17Z,548059.067,Hoffnung,matarajio,d,kutaalamika,uratibu,mvumbuzi,NA,NA,1,"c(""distractor1"", ""distractor2"", ""distractor3"")",NA,NA,NA,NA,NA,NA,NA,NA,NA,NA,NA,NA,NA,NA,NA,NA,NA,NA,NA
c570e,shallow,flow.Sequence,2_13_0,NA,NA,completion,5300.3119999999,542727.79999971,542725.423,542742.089,548042.401,548045.69999981,2023-10-01T08:18:17Z,548059.067,Hoffnung,matarajio,d,kutaalamika,uratibu,mvumbuzi,NA,NA,NA,"c(""distractor1"", ""distractor2"", ""distractor3"")",NA,NA,NA,NA,NA,NA,NA,NA,NA,NA,NA,NA,NA,NA,NA,NA,NA,NA,NA
c570e,task,flow.Sequence,2_13,NA,NA,completion,5300.3119999999,542727.79999971,542725.423,542742.089,548042.401,548045.89999962,2023-10-01T08:18:17Z,548059.067,Hoffnung,matarajio,d,kutaalamika,uratibu,mvumbuzi,NA,NA,NA,"c(""distractor1"", ""distractor2"", ""distractor3"")",NA,NA,NA,NA,NA,NA,NA,NA,NA,NA,NA,NA,NA,NA,NA,NA,NA,NA,NA
c570e,Shallow Question,html.Page,2_14_0_0,NA,NA,form submission,25182.632999809,548046.0999999,548042.401,548059.067,573241.69999981,573241.89999962,2023-10-01T08:18:43Z,573242.193,Spionage,upelelezi,s,maslahi,utokazo,magangao,upelelezi,NA,NA,"c(""distractor1"", ""distractor2"", ""distractor3"")",NA,NA,NA,NA,NA,NA,NA,NA,NA,NA,NA,NA,NA,NA,NA,NA,NA,NA,NA
c570e,Save data screen,canvas.Screen,2_14_0_1,NA,NA,timeout,499.97999999998,573244.19999981,573225.527,573242.193,573725.507,573726.89999962,2023-10-01T08:18:43Z,573742.173,Spionage,upelelezi,s,maslahi,utokazo,magangao,NA,NA,1,"c(""distractor1"", ""distractor2"", ""distractor3"")",NA,NA,NA,NA,NA,NA,NA,NA,NA,NA,NA,NA,NA,NA,NA,NA,NA,NA,NA
c570e,shallow,flow.Sequence,2_14_0,NA,NA,completion,25666.44,548046,548042.401,548059.067,573725.507,573727.0999999,2023-10-01T08:18:43Z,573742.173,Spionage,upelelezi,s,maslahi,utokazo,magangao,NA,NA,NA,"c(""distractor1"", ""distractor2"", ""distractor3"")",NA,NA,NA,NA,NA,NA,NA,NA,NA,NA,NA,NA,NA,NA,NA,NA,NA,NA,NA
c570e,task,flow.Sequence,2_14,NA,NA,completion,25666.44,548046,548042.401,548059.067,573725.507,573727.29999971,2023-10-01T08:18:43Z,573742.173,Spionage,upelelezi,s,maslahi,utokazo,magangao,NA,NA,NA,"c(""distractor1"", ""distractor2"", ""distractor3"")",NA,NA,NA,NA,NA,NA,NA,NA,NA,NA,NA,NA,NA,NA,NA,NA,NA,NA,NA
c570e,Shallow Question,html.Page,2_15_0_0,NA,NA,form submission,5349.327,573727.5,573725.507,573742.173,579091.5,579091.79999971,2023-10-01T08:18:48Z,579092.343,Ergänzung,kijalizo,s,ulaghai,mustarehe,matangazo,kijalizo,NA,NA,"c(""distractor1"", ""distractor2"", ""distractor3"")",NA,NA,NA,NA,NA,NA,NA,NA,NA,NA,NA,NA,NA,NA,NA,NA,NA,NA,NA
c570e,Save data screen,canvas.Screen,2_15_0_1,NA,NA,timeout,499.97999999998,579092.5,579075.677,579092.343,579575.657,579577.69999981,2023-10-01T08:18:49Z,579592.323,Ergänzung,kijalizo,s,ulaghai,mustarehe,matangazo,NA,NA,1,"c(""distractor1"", ""distractor2"", ""distractor3"")",NA,NA,NA,NA,NA,NA,NA,NA,NA,NA,NA,NA,NA,NA,NA,NA,NA,NA,NA
c570e,shallow,flow.Sequence,2_15_0,NA,NA,completion,5833.4840000001,573727.39999962,573725.507,573742.173,579575.657,579577.89999962,2023-10-01T08:18:49Z,579592.323,Ergänzung,kijalizo,s,ulaghai,mustarehe,matangazo,NA,NA,NA,"c(""distractor1"", ""distractor2"", ""distractor3"")",NA,NA,NA,NA,NA,NA,NA,NA,NA,NA,NA,NA,NA,NA,NA,NA,NA,NA,NA
c570e,task,flow.Sequence,2_15,NA,NA,completion,5833.4840000001,573727.39999962,573725.507,573742.173,579575.657,579578.19999981,2023-10-01T08:18:49Z,579592.323,Ergänzung,kijalizo,s,ulaghai,mustarehe,matangazo,NA,NA,NA,"c(""distractor1"", ""distractor2"", ""distractor3"")",NA,NA,NA,NA,NA,NA,NA,NA,NA,NA,NA,NA,NA,NA,NA,NA,NA,NA,NA
c570e,retrieval block 2 (multiple choice),flow.Loop,2,NA,NA,completion,237583.707,341980.39999962,341975.284,341991.95,579575.657,579578.39999962,2023-10-01T08:18:49Z,579592.323,NA,NA,NA,NA,NA,NA,NA,NA,NA,"c(""distractor1"", ""distractor2"", ""distractor3"")",NA,NA,NA,NA,NA,NA,NA,NA,NA,NA,NA,NA,NA,NA,NA,NA,NA,NA,NA
c570e,End,canvas.Screen,3,NA,keypress(Space),response,2295.8769998093,579578.5,579575.657,579592.323,581888.19999981,581891.0999999,2023-10-01T08:18:51Z,581892.231,NA,NA,NA,NA,NA,NA,NA,NA,NA,NULL,NA,NA,NA,NA,NA,NA,NA,NA,NA,NA,NA,NA,NA,NA,NA,NA,NA,NA,NA
c570e,root,flow.Sequence,NA,NA,NA,completion,581046.52999981,817.19999980927,658.344,841.67,581888.19999981,581891.5999999,2023-10-01T08:18:51Z,581892.231,NA,NA,NA,NA,NA,NA,NA,NA,NA,NULL,NA,NA,NA,NA,NA,NA,NA,NA,NA,NA,NA,NA,NA,NA,NA,NA,NA,NA,NA
