observation,sender,sender_type,sender_id,response,response_action,ended_on,duration,time_run,time_render,time_show,time_end,time_commit,timestamp,time_switch,distractors,german,swahili,enc,distractor1,distractor2,distractor3,response_2,x,correct,x_2,url_vp,url_sess,meta_labjs_version,meta_location,meta_user_agent,meta_platform,meta_language,meta_locale,meta_time_zone,meta_timezone_offset,meta_screen_width,meta_screen_height,meta_scroll_width,meta_scroll_height,meta_window_inner_width,meta_window_inner_height,meta_device_pixel_ratio,meta_labjs_build_flavor,meta_labjs_build_commit
38b3c,Introduction general,canvas.Screen,0,weiter,keypress(q),response,138609.62600005,747.39999985695,331.24,764.574,139374.20000005,139384,2023-07-10T15:54:32Z,139386.791,NULL,NA,NA,NA,NA,NA,NA,NA,NA,NA,NA,128,1,20.2.4,https://neurocog.fernuni.ch/studies/vweber/encoding_immediate/index.html?vp=128&sess=1,"Mozilla/5.0 (Windows NT 10.0; Win64; x64) AppleWebKit/537.36 (KHTML, like Gecko) Chrome/114.0.0.0 Safari/537.36",Win32,de-DE,de,Europe/Zurich,-120,1440,960,1440,761,1440,809,2,production,f5b4a49f956347addd546a832a3327688c2c0fef
38b3c,Introduction practice,canvas.Screen,1_0,NA,keypress(Space),response,9773.209,139384.5999999,139368.343,139386.791,149160,149161.5,2023-07-10T15:54:42Z,149177.057,NULL,NA,NA,NA,NA,NA,NA,NA,NA,NA,NA,NA,NA,NA,NA,NA,NA,NA,NA,NA,NA,NA,NA,NA,NA,NA,NA,NA,NA,NA
38b3c,Deep Question,html.Page,1_1_0_0_0,NA,NA,form submission,6024.943,149161.89999986,149159.456,149177.057,155202,155202.5,2023-07-10T15:54:48Z,155221.906,"c(""distractor1"", ""distractor2"", ""distractor3"")",Schatten,kivuli,d,NA,NA,NA,e,NA,NA,NA,NA,NA,NA,NA,NA,NA,NA,NA,NA,NA,NA,NA,NA,NA,NA,NA,NA,NA,NA
38b3c,"""Richtig""-Screen",canvas.Screen,1_1_0_0_1,NA,NA,skipped,NA,155206,NA,NA,155202,155206.5999999,2023-07-10T15:54:48Z,155221.906,"c(""distractor1"", ""distractor2"", ""distractor3"")",Schatten,kivuli,d,NA,NA,NA,NA,NA,NA,NA,NA,NA,NA,NA,NA,NA,NA,NA,NA,NA,NA,NA,NA,NA,NA,NA,NA,NA,NA
38b3c,"""Falsch""-Screen",canvas.Screen,1_1_0_0_2,NA,NA,timeout,5007.314,155209,155195.518,155221.906,160212.513,160217.39999986,2023-07-10T15:54:53Z,160229.22,"c(""distractor1"", ""distractor2"", ""distractor3"")",Schatten,kivuli,d,NA,NA,NA,NA,NA,0,NA,NA,NA,NA,NA,NA,NA,NA,NA,NA,NA,NA,NA,NA,NA,NA,NA,NA,NA,NA
38b3c,deep,flow.Sequence,1_1_0_0,NA,NA,completion,11035.456,149161.79999995,149159.456,149177.057,160212.513,160218.0999999,2023-07-10T15:54:53Z,160229.22,"c(""distractor1"", ""distractor2"", ""distractor3"")",Schatten,kivuli,d,NA,NA,NA,NA,NA,NA,NA,NA,NA,NA,NA,NA,NA,NA,NA,NA,NA,NA,NA,NA,NA,NA,NA,NA,NA,NA
38b3c,shallow,flow.Sequence,1_1_0_1,NA,NA,skipped,NA,160218.39999986,NA,NA,160212.513,160218.70000005,2023-07-10T15:54:53Z,160229.22,"c(""distractor1"", ""distractor2"", ""distractor3"")",Schatten,kivuli,d,NA,NA,NA,NA,NA,NA,NA,NA,NA,NA,NA,NA,NA,NA,NA,NA,NA,NA,NA,NA,NA,NA,NA,NA,NA,NA
38b3c,task,flow.Sequence,1_1_0,NA,NA,completion,11035.456,149161.79999995,149159.456,149177.057,160212.513,160219,2023-07-10T15:54:53Z,160229.22,"c(""distractor1"", ""distractor2"", ""distractor3"")",Schatten,kivuli,d,NA,NA,NA,NA,NA,NA,NA,NA,NA,NA,NA,NA,NA,NA,NA,NA,NA,NA,NA,NA,NA,NA,NA,NA,NA,NA
38b3c,deep,flow.Sequence,1_1_1_0,NA,NA,skipped,NA,160219.79999995,NA,NA,160212.513,160220.39999986,2023-07-10T15:54:53Z,160229.22,"c(""distractor1"", ""distractor2"", ""distractor3"")",Rückhalt,msaada,s,muhula,auwali,kiwimbe,NA,NA,NA,NA,NA,NA,NA,NA,NA,NA,NA,NA,NA,NA,NA,NA,NA,NA,NA,NA,NA,NA,NA
38b3c,Shallow Question,html.Page,1_1_1_1_0,NA,NA,form submission,8126.8799999046,160220.89999986,160212.513,160229.22,168356.0999999,168356.5999999,2023-07-10T15:55:01Z,168369.39,"c(""distractor1"", ""distractor2"", ""distractor3"")",Rückhalt,msaada,s,muhula,auwali,kiwimbe,auwali,NA,NA,NA,NA,NA,NA,NA,NA,NA,NA,NA,NA,NA,NA,NA,NA,NA,NA,NA,NA,NA,NA
38b3c,"""Richtig""-Screen",canvas.Screen,1_1_1_1_1,NA,NA,skipped,NA,168361.79999995,NA,NA,168356.0999999,168362.29999995,2023-07-10T15:55:01Z,168369.39,"c(""distractor1"", ""distractor2"", ""distractor3"")",Rückhalt,msaada,s,muhula,auwali,kiwimbe,NA,NA,NA,NA,NA,NA,NA,NA,NA,NA,NA,NA,NA,NA,NA,NA,NA,NA,NA,NA,NA,NA,NA
38b3c,"""Falsch""-Screen",canvas.Screen,1_1_1_1_2,NA,NA,timeout,5001.393,168364.79999995,168352.947,168369.39,173354.005,173354.89999986,2023-07-10T15:55:06Z,173370.783,"c(""distractor1"", ""distractor2"", ""distractor3"")",Rückhalt,msaada,s,muhula,auwali,kiwimbe,NA,NA,0,NA,NA,NA,NA,NA,NA,NA,NA,NA,NA,NA,NA,NA,NA,NA,NA,NA,NA,NA,NA
38b3c,shallow,flow.Sequence,1_1_1_1,NA,NA,completion,13124.785,160220.70000005,160212.513,160229.22,173354.005,173355.29999995,2023-07-10T15:55:06Z,173370.783,"c(""distractor1"", ""distractor2"", ""distractor3"")",Rückhalt,msaada,s,muhula,auwali,kiwimbe,NA,NA,NA,NA,NA,NA,NA,NA,NA,NA,NA,NA,NA,NA,NA,NA,NA,NA,NA,NA,NA,NA,NA
38b3c,task,flow.Sequence,1_1_1,NA,NA,completion,13124.785,160219.5999999,160212.513,160229.22,173354.005,173355.5,2023-07-10T15:55:06Z,173370.783,"c(""distractor1"", ""distractor2"", ""distractor3"")",Rückhalt,msaada,s,muhula,auwali,kiwimbe,NA,NA,NA,NA,NA,NA,NA,NA,NA,NA,NA,NA,NA,NA,NA,NA,NA,NA,NA,NA,NA,NA,NA
38b3c,deep,flow.Sequence,1_1_2_0,NA,NA,skipped,NA,173355.70000005,NA,NA,173354.005,173355.89999986,2023-07-10T15:55:06Z,173370.783,"c(""distractor1"", ""distractor2"", ""distractor3"")",Kritik,lawama,s,dereva,nafasi,mawazo,NA,NA,NA,NA,NA,NA,NA,NA,NA,NA,NA,NA,NA,NA,NA,NA,NA,NA,NA,NA,NA,NA,NA
38b3c,Shallow Question,html.Page,1_1_2_1_0,NA,NA,form submission,6277.9170000477,173356,173354.005,173370.783,179648.70000005,179649.0999999,2023-07-10T15:55:13Z,179660.677,"c(""distractor1"", ""distractor2"", ""distractor3"")",Kritik,lawama,s,dereva,nafasi,mawazo,lawama,NA,NA,NA,NA,NA,NA,NA,NA,NA,NA,NA,NA,NA,NA,NA,NA,NA,NA,NA,NA,NA,NA
38b3c,"""Richtig""-Screen",canvas.Screen,1_1_2_1_1,NA,NA,timeout,5005.037,179653.89999986,179644.36,179660.677,184649.099,184650,2023-07-10T15:55:18Z,184665.714,"c(""distractor1"", ""distractor2"", ""distractor3"")",Kritik,lawama,s,dereva,nafasi,mawazo,NA,NA,1,NA,NA,NA,NA,NA,NA,NA,NA,NA,NA,NA,NA,NA,NA,NA,NA,NA,NA,NA,NA
38b3c,"""Falsch""-Screen",canvas.Screen,1_1_2_1_2,NA,NA,skipped,NA,184656,NA,NA,184649.099,184656.5,2023-07-10T15:55:18Z,184665.714,"c(""distractor1"", ""distractor2"", ""distractor3"")",Kritik,lawama,s,dereva,nafasi,mawazo,NA,NA,NA,NA,NA,NA,NA,NA,NA,NA,NA,NA,NA,NA,NA,NA,NA,NA,NA,NA,NA,NA,NA
38b3c,shallow,flow.Sequence,1_1_2_1,NA,NA,completion,11278.316,173356,173354.005,173370.783,184649.099,184657.79999995,2023-07-10T15:55:18Z,184665.714,"c(""distractor1"", ""distractor2"", ""distractor3"")",Kritik,lawama,s,dereva,nafasi,mawazo,NA,NA,NA,NA,NA,NA,NA,NA,NA,NA,NA,NA,NA,NA,NA,NA,NA,NA,NA,NA,NA,NA,NA
38b3c,task,flow.Sequence,1_1_2,NA,NA,completion,11278.316,173355.70000005,173354.005,173370.783,184649.099,184658.39999986,2023-07-10T15:55:18Z,184665.714,"c(""distractor1"", ""distractor2"", ""distractor3"")",Kritik,lawama,s,dereva,nafasi,mawazo,NA,NA,NA,NA,NA,NA,NA,NA,NA,NA,NA,NA,NA,NA,NA,NA,NA,NA,NA,NA,NA,NA,NA
38b3c,Deep Question,html.Page,1_1_3_0_0,NA,NA,form submission,5130.5859999523,184658.70000005,184649.099,184665.714,189796.29999995,189797.5999999,2023-07-10T15:55:23Z,189803.959,"c(""distractor1"", ""distractor2"", ""distractor3"")",Qualität,mtindo,d,NA,NA,NA,tz,NA,NA,NA,NA,NA,NA,NA,NA,NA,NA,NA,NA,NA,NA,NA,NA,NA,NA,NA,NA,NA,NA
38b3c,"""Richtig""-Screen",canvas.Screen,1_1_3_0_1,NA,NA,skipped,NA,189800.79999995,NA,NA,189796.29999995,189800.89999986,2023-07-10T15:55:23Z,189803.959,"c(""distractor1"", ""distractor2"", ""distractor3"")",Qualität,mtindo,d,NA,NA,NA,NA,NA,NA,NA,NA,NA,NA,NA,NA,NA,NA,NA,NA,NA,NA,NA,NA,NA,NA,NA,NA,NA,NA
38b3c,"""Falsch""-Screen",canvas.Screen,1_1_3_0_2,NA,NA,timeout,5004.12,189801.70000005,189786.63,189803.959,194791.396,194792.0999999,2023-07-10T15:55:28Z,194808.079,"c(""distractor1"", ""distractor2"", ""distractor3"")",Qualität,mtindo,d,NA,NA,NA,NA,NA,0,NA,NA,NA,NA,NA,NA,NA,NA,NA,NA,NA,NA,NA,NA,NA,NA,NA,NA,NA,NA
38b3c,deep,flow.Sequence,1_1_3_0,NA,NA,completion,10125.682,184658.70000005,184649.099,184665.714,194791.396,194792.5,2023-07-10T15:55:28Z,194808.079,"c(""distractor1"", ""distractor2"", ""distractor3"")",Qualität,mtindo,d,NA,NA,NA,NA,NA,NA,NA,NA,NA,NA,NA,NA,NA,NA,NA,NA,NA,NA,NA,NA,NA,NA,NA,NA,NA,NA
38b3c,shallow,flow.Sequence,1_1_3_1,NA,NA,skipped,NA,194792.5999999,NA,NA,194791.396,194792.70000005,2023-07-10T15:55:28Z,194808.079,"c(""distractor1"", ""distractor2"", ""distractor3"")",Qualität,mtindo,d,NA,NA,NA,NA,NA,NA,NA,NA,NA,NA,NA,NA,NA,NA,NA,NA,NA,NA,NA,NA,NA,NA,NA,NA,NA,NA
38b3c,task,flow.Sequence,1_1_3,NA,NA,completion,10125.682,184658.5999999,184649.099,184665.714,194791.396,194792.89999986,2023-07-10T15:55:28Z,194808.079,"c(""distractor1"", ""distractor2"", ""distractor3"")",Qualität,mtindo,d,NA,NA,NA,NA,NA,NA,NA,NA,NA,NA,NA,NA,NA,NA,NA,NA,NA,NA,NA,NA,NA,NA,NA,NA,NA,NA
38b3c,Deep Question,html.Page,1_1_4_0_0,NA,NA,form submission,4556.320999857,194793.0999999,194791.396,194808.079,199364.39999986,199364.79999995,2023-07-10T15:55:32Z,199371.303,"c(""distractor1"", ""distractor2"", ""distractor3"")",Gesundheit,salama,d,NA,NA,NA,t,NA,NA,NA,NA,NA,NA,NA,NA,NA,NA,NA,NA,NA,NA,NA,NA,NA,NA,NA,NA,NA,NA
38b3c,"""Richtig""-Screen",canvas.Screen,1_1_4_0_1,NA,NA,skipped,NA,199368.79999995,NA,NA,199364.39999986,199369.20000005,2023-07-10T15:55:32Z,199371.303,"c(""distractor1"", ""distractor2"", ""distractor3"")",Gesundheit,salama,d,NA,NA,NA,NA,NA,NA,NA,NA,NA,NA,NA,NA,NA,NA,NA,NA,NA,NA,NA,NA,NA,NA,NA,NA,NA,NA
38b3c,"""Falsch""-Screen",canvas.Screen,1_1_4_0_2,NA,NA,timeout,5004.534,199370.29999995,199353.985,199371.303,204359.166,204360,2023-07-10T15:55:37Z,204375.837,"c(""distractor1"", ""distractor2"", ""distractor3"")",Gesundheit,salama,d,NA,NA,NA,NA,NA,0,NA,NA,NA,NA,NA,NA,NA,NA,NA,NA,NA,NA,NA,NA,NA,NA,NA,NA,NA,NA
38b3c,deep,flow.Sequence,1_1_4_0,NA,NA,completion,9551.087,194793,194791.396,194808.079,204359.166,204360.29999995,2023-07-10T15:55:37Z,204375.837,"c(""distractor1"", ""distractor2"", ""distractor3"")",Gesundheit,salama,d,NA,NA,NA,NA,NA,NA,NA,NA,NA,NA,NA,NA,NA,NA,NA,NA,NA,NA,NA,NA,NA,NA,NA,NA,NA,NA
38b3c,shallow,flow.Sequence,1_1_4_1,NA,NA,skipped,NA,204360.5,NA,NA,204359.166,204360.5,2023-07-10T15:55:37Z,204375.837,"c(""distractor1"", ""distractor2"", ""distractor3"")",Gesundheit,salama,d,NA,NA,NA,NA,NA,NA,NA,NA,NA,NA,NA,NA,NA,NA,NA,NA,NA,NA,NA,NA,NA,NA,NA,NA,NA,NA
38b3c,task,flow.Sequence,1_1_4,NA,NA,completion,9551.087,194792.89999986,194791.396,194808.079,204359.166,204360.70000005,2023-07-10T15:55:37Z,204375.837,"c(""distractor1"", ""distractor2"", ""distractor3"")",Gesundheit,salama,d,NA,NA,NA,NA,NA,NA,NA,NA,NA,NA,NA,NA,NA,NA,NA,NA,NA,NA,NA,NA,NA,NA,NA,NA,NA,NA
38b3c,deep,flow.Sequence,1_1_5_0,NA,NA,skipped,NA,204360.89999986,NA,NA,204359.166,204360.89999986,2023-07-10T15:55:37Z,204375.837,"c(""distractor1"", ""distractor2"", ""distractor3"")",Gegenwart,hadhara,s,katiba,jokofu,mikopo,NA,NA,NA,NA,NA,NA,NA,NA,NA,NA,NA,NA,NA,NA,NA,NA,NA,NA,NA,NA,NA,NA,NA
38b3c,Shallow Question,html.Page,1_1_5_1_0,NA,NA,form submission,6076.8630000477,204361,204359.166,204375.837,210452.70000005,210452.89999986,2023-07-10T15:55:43Z,210461.847,"c(""distractor1"", ""distractor2"", ""distractor3"")",Gegenwart,hadhara,s,katiba,jokofu,mikopo,katiba,NA,NA,NA,NA,NA,NA,NA,NA,NA,NA,NA,NA,NA,NA,NA,NA,NA,NA,NA,NA,NA,NA
38b3c,"""Richtig""-Screen",canvas.Screen,1_1_5_1_1,NA,NA,skipped,NA,210454.89999986,NA,NA,210452.70000005,210455,2023-07-10T15:55:43Z,210461.847,"c(""distractor1"", ""distractor2"", ""distractor3"")",Gegenwart,hadhara,s,katiba,jokofu,mikopo,NA,NA,NA,NA,NA,NA,NA,NA,NA,NA,NA,NA,NA,NA,NA,NA,NA,NA,NA,NA,NA,NA,NA
38b3c,"""Falsch""-Screen",canvas.Screen,1_1_5_1_2,NA,NA,timeout,4999.104,210455.79999995,210440.391,210461.847,215444.524,215445.29999995,2023-07-10T15:55:48Z,215460.951,"c(""distractor1"", ""distractor2"", ""distractor3"")",Gegenwart,hadhara,s,katiba,jokofu,mikopo,NA,NA,0,NA,NA,NA,NA,NA,NA,NA,NA,NA,NA,NA,NA,NA,NA,NA,NA,NA,NA,NA,NA
38b3c,shallow,flow.Sequence,1_1_5_1,NA,NA,completion,11068.687,204361,204359.166,204375.837,215444.524,215445.5999999,2023-07-10T15:55:48Z,215460.951,"c(""distractor1"", ""distractor2"", ""distractor3"")",Gegenwart,hadhara,s,katiba,jokofu,mikopo,NA,NA,NA,NA,NA,NA,NA,NA,NA,NA,NA,NA,NA,NA,NA,NA,NA,NA,NA,NA,NA,NA,NA
38b3c,task,flow.Sequence,1_1_5,NA,NA,completion,11068.687,204360.79999995,204359.166,204375.837,215444.524,215445.70000005,2023-07-10T15:55:48Z,215460.951,"c(""distractor1"", ""distractor2"", ""distractor3"")",Gegenwart,hadhara,s,katiba,jokofu,mikopo,NA,NA,NA,NA,NA,NA,NA,NA,NA,NA,NA,NA,NA,NA,NA,NA,NA,NA,NA,NA,NA,NA,NA
38b3c,block,flow.Loop,1_1,NA,NA,completion,66267.467,149161.70000005,149159.456,149177.057,215444.524,215446,2023-07-10T15:55:48Z,215460.951,"c(""distractor1"", ""distractor2"", ""distractor3"")",NA,NA,NA,NA,NA,NA,NA,NA,NA,NA,NA,NA,NA,NA,NA,NA,NA,NA,NA,NA,NA,NA,NA,NA,NA,NA,NA,NA,NA
38b3c,Practice,flow.Sequence,1,NA,NA,completion,76057.733,139384.5,139368.343,139386.791,215444.524,215446.0999999,2023-07-10T15:55:48Z,215460.951,NULL,NA,NA,NA,NA,NA,NA,NA,NA,NA,NA,NA,NA,NA,NA,NA,NA,NA,NA,NA,NA,NA,NA,NA,NA,NA,NA,NA,NA,NA
38b3c,Experiment start,canvas.Screen,2,weiter,keypress(q),response,31409.549,215446.20000005,215444.524,215460.951,246870.5,246874.39999986,2023-07-10T15:56:20Z,246932.927,NULL,NA,NA,NA,NA,NA,NA,NA,NA,NA,NA,NA,NA,NA,NA,NA,NA,NA,NA,NA,NA,NA,NA,NA,NA,NA,NA,NA,NA,NA
38b3c,deep,flow.Sequence,3_0_0_0_0_0,NA,NA,skipped,NA,246940.5999999,NA,NA,246870.5,246940.70000005,2023-07-10T15:56:20Z,246932.927,NULL,Wechsel,ugeuzaji,s,utambulisho,kujenga,wasiwasi,NA,sdf,NA,0,NA,NA,NA,NA,NA,NA,NA,NA,NA,NA,NA,NA,NA,NA,NA,NA,NA,NA,NA
38b3c,Shallow Question,html.Page,3_0_0_0_0_1_0,NA,NA,form submission,5376.073,246940.70000005,246863.154,246932.927,252309,252309.5,2023-07-10T15:56:25Z,252315.138,NULL,Wechsel,ugeuzaji,s,utambulisho,kujenga,wasiwasi,wasiwasi,NA,NA,0,NA,NA,NA,NA,NA,NA,NA,NA,NA,NA,NA,NA,NA,NA,NA,NA,NA,NA,NA
38b3c,"""Richtig""-Screen",canvas.Screen,3_0_0_0_0_1_1,NA,NA,skipped,NA,252313.20000005,NA,NA,252309,252313.39999986,2023-07-10T15:56:25Z,252315.138,NULL,Wechsel,ugeuzaji,s,utambulisho,kujenga,wasiwasi,NA,sdf,NA,0,NA,NA,NA,NA,NA,NA,NA,NA,NA,NA,NA,NA,NA,NA,NA,NA,NA,NA,NA
38b3c,"""Falsch""-Screen",canvas.Screen,3_0_0_0_0_1_2,NA,NA,timeout,5002.965,252314.5999999,252298.523,252315.138,257301.45,257302.5,2023-07-10T15:56:30Z,257318.103,NULL,Wechsel,ugeuzaji,s,utambulisho,kujenga,wasiwasi,NA,sdf,0,0,NA,NA,NA,NA,NA,NA,NA,NA,NA,NA,NA,NA,NA,NA,NA,NA,NA,NA,NA
38b3c,shallow,flow.Sequence,3_0_0_0_0_1,NA,NA,completion,10368.523,246940.70000005,246863.154,246932.927,257301.45,257302.79999995,2023-07-10T15:56:30Z,257318.103,NULL,Wechsel,ugeuzaji,s,utambulisho,kujenga,wasiwasi,NA,sdf,NA,0,NA,NA,NA,NA,NA,NA,NA,NA,NA,NA,NA,NA,NA,NA,NA,NA,NA,NA,NA
38b3c,task,flow.Sequence,3_0_0_0_0,NA,NA,completion,10368.523,246940.5999999,246863.154,246932.927,257301.45,257302.89999986,2023-07-10T15:56:30Z,257318.103,NULL,Wechsel,ugeuzaji,s,utambulisho,kujenga,wasiwasi,NA,sdf,NA,0,NA,NA,NA,NA,NA,NA,NA,NA,NA,NA,NA,NA,NA,NA,NA,NA,NA,NA,NA
38b3c,Deep Question,html.Page,3_0_0_0_1_0_0,NA,NA,form submission,5145.9969999046,257303,257301.45,257318.103,262464.0999999,262464.5,2023-07-10T15:56:35Z,262472.471,NULL,Theorie,nadharia,d,NA,NA,NA,zz,NA,NA,0,NA,NA,NA,NA,NA,NA,NA,NA,NA,NA,NA,NA,NA,NA,NA,NA,NA,NA,NA
38b3c,"""Richtig""-Screen",canvas.Screen,3_0_0_0_1_0_1,NA,NA,skipped,NA,262468.20000005,NA,NA,262464.0999999,262468.39999986,2023-07-10T15:56:35Z,262472.471,NULL,Theorie,nadharia,d,NA,NA,NA,NA,sdf,NA,0,NA,NA,NA,NA,NA,NA,NA,NA,NA,NA,NA,NA,NA,NA,NA,NA,NA,NA,NA
38b3c,"""Falsch""-Screen",canvas.Screen,3_0_0_0_1_0_2,NA,NA,timeout,4993.032,262469.5,262456.064,262472.471,267448.867,267450,2023-07-10T15:56:40Z,267465.503,NULL,Theorie,nadharia,d,NA,NA,NA,NA,sdf,0,0,NA,NA,NA,NA,NA,NA,NA,NA,NA,NA,NA,NA,NA,NA,NA,NA,NA,NA,NA
38b3c,deep,flow.Sequence,3_0_0_0_1_0,NA,NA,completion,10130.764,257303,257301.45,257318.103,267448.867,267450.20000005,2023-07-10T15:56:40Z,267465.503,NULL,Theorie,nadharia,d,NA,NA,NA,NA,sdf,NA,0,NA,NA,NA,NA,NA,NA,NA,NA,NA,NA,NA,NA,NA,NA,NA,NA,NA,NA,NA
38b3c,shallow,flow.Sequence,3_0_0_0_1_1,NA,NA,skipped,NA,267450.29999995,NA,NA,267448.867,267450.39999986,2023-07-10T15:56:40Z,267465.503,NULL,Theorie,nadharia,d,NA,NA,NA,NA,sdf,NA,0,NA,NA,NA,NA,NA,NA,NA,NA,NA,NA,NA,NA,NA,NA,NA,NA,NA,NA,NA
38b3c,task,flow.Sequence,3_0_0_0_1,NA,NA,completion,10130.764,257303,257301.45,257318.103,267448.867,267450.5,2023-07-10T15:56:40Z,267465.503,NULL,Theorie,nadharia,d,NA,NA,NA,NA,sdf,NA,0,NA,NA,NA,NA,NA,NA,NA,NA,NA,NA,NA,NA,NA,NA,NA,NA,NA,NA,NA
38b3c,Deep Question,html.Page,3_0_0_0_2_0_0,NA,NA,form submission,4543.8969998569,267450.5999999,267448.867,267465.503,272009.39999986,272009.89999986,2023-07-10T15:56:45Z,272019.768,NULL,Atmosphäre,angahewa,d,NA,NA,NA,ee,NA,NA,0,NA,NA,NA,NA,NA,NA,NA,NA,NA,NA,NA,NA,NA,NA,NA,NA,NA,NA,NA
38b3c,"""Richtig""-Screen",canvas.Screen,3_0_0_0_2_0_1,NA,NA,skipped,NA,272013.89999986,NA,NA,272009.39999986,272014.20000005,2023-07-10T15:56:45Z,272019.768,NULL,Atmosphäre,angahewa,d,NA,NA,NA,NA,sdf,NA,0,NA,NA,NA,NA,NA,NA,NA,NA,NA,NA,NA,NA,NA,NA,NA,NA,NA,NA,NA
38b3c,"""Falsch""-Screen",canvas.Screen,3_0_0_0_2_0_2,NA,NA,timeout,5008.525,272015.20000005,272004.232,272019.768,277011.526,277012.39999986,2023-07-10T15:56:50Z,277028.293,NULL,Atmosphäre,angahewa,d,NA,NA,NA,NA,sdf,0,0,NA,NA,NA,NA,NA,NA,NA,NA,NA,NA,NA,NA,NA,NA,NA,NA,NA,NA,NA
38b3c,deep,flow.Sequence,3_0_0_0_2_0,NA,NA,completion,9546.023,267450.5999999,267448.867,267465.503,277011.526,277012.5999999,2023-07-10T15:56:50Z,277028.293,NULL,Atmosphäre,angahewa,d,NA,NA,NA,NA,sdf,NA,0,NA,NA,NA,NA,NA,NA,NA,NA,NA,NA,NA,NA,NA,NA,NA,NA,NA,NA,NA
38b3c,shallow,flow.Sequence,3_0_0_0_2_1,NA,NA,skipped,NA,277012.79999995,NA,NA,277011.526,277012.89999986,2023-07-10T15:56:50Z,277028.293,NULL,Atmosphäre,angahewa,d,NA,NA,NA,NA,sdf,NA,0,NA,NA,NA,NA,NA,NA,NA,NA,NA,NA,NA,NA,NA,NA,NA,NA,NA,NA,NA
38b3c,task,flow.Sequence,3_0_0_0_2,NA,NA,completion,9546.023,267450.5999999,267448.867,267465.503,277011.526,277013,2023-07-10T15:56:50Z,277028.293,NULL,Atmosphäre,angahewa,d,NA,NA,NA,NA,sdf,NA,0,NA,NA,NA,NA,NA,NA,NA,NA,NA,NA,NA,NA,NA,NA,NA,NA,NA,NA,NA
38b3c,deep,flow.Sequence,3_0_0_0_3_0,NA,NA,skipped,NA,277013.0999999,NA,NA,277011.526,277013.20000005,2023-07-10T15:56:50Z,277028.293,NULL,Erneuerung,ukarabati,s,ushawishi,ukalifu,unyonyaji,NA,sdf,NA,0,NA,NA,NA,NA,NA,NA,NA,NA,NA,NA,NA,NA,NA,NA,NA,NA,NA,NA,NA
38b3c,Shallow Question,html.Page,3_0_0_0_3_1_0,NA,NA,form submission,6424.6069998569,277013.29999995,277011.526,277028.293,283452.89999986,283453.29999995,2023-07-10T15:56:56Z,283459.435,NULL,Erneuerung,ukarabati,s,ushawishi,ukalifu,unyonyaji,ukalifu,NA,NA,0,NA,NA,NA,NA,NA,NA,NA,NA,NA,NA,NA,NA,NA,NA,NA,NA,NA,NA,NA
38b3c,"""Richtig""-Screen",canvas.Screen,3_0_0_0_3_1_1,NA,NA,skipped,NA,283457.20000005,NA,NA,283452.89999986,283457.39999986,2023-07-10T15:56:56Z,283459.435,NULL,Erneuerung,ukarabati,s,ushawishi,ukalifu,unyonyaji,NA,sdf,NA,0,NA,NA,NA,NA,NA,NA,NA,NA,NA,NA,NA,NA,NA,NA,NA,NA,NA,NA,NA
38b3c,"""Falsch""-Screen",canvas.Screen,3_0_0_0_3_1_2,NA,NA,timeout,5003.243,283458.39999986,283442.814,283459.435,288445.821,288446.79999995,2023-07-10T15:57:01Z,288462.678,NULL,Erneuerung,ukarabati,s,ushawishi,ukalifu,unyonyaji,NA,sdf,0,0,NA,NA,NA,NA,NA,NA,NA,NA,NA,NA,NA,NA,NA,NA,NA,NA,NA,NA,NA
38b3c,shallow,flow.Sequence,3_0_0_0_3_1,NA,NA,completion,11417.528,277013.29999995,277011.526,277028.293,288445.821,288447.0999999,2023-07-10T15:57:01Z,288462.678,NULL,Erneuerung,ukarabati,s,ushawishi,ukalifu,unyonyaji,NA,sdf,NA,0,NA,NA,NA,NA,NA,NA,NA,NA,NA,NA,NA,NA,NA,NA,NA,NA,NA,NA,NA
38b3c,task,flow.Sequence,3_0_0_0_3,NA,NA,completion,11417.528,277013.0999999,277011.526,277028.293,288445.821,288447.29999995,2023-07-10T15:57:01Z,288462.678,NULL,Erneuerung,ukarabati,s,ushawishi,ukalifu,unyonyaji,NA,sdf,NA,0,NA,NA,NA,NA,NA,NA,NA,NA,NA,NA,NA,NA,NA,NA,NA,NA,NA,NA,NA
38b3c,Deep Question,html.Page,3_0_0_0_4_0_0,NA,NA,form submission,4624.5220000477,288447.5,288445.821,288462.678,293087.20000005,293087.5,2023-07-10T15:57:06Z,293088.449,NULL,Flexibilität,kubadilika,d,NA,NA,NA,tz,NA,NA,0,NA,NA,NA,NA,NA,NA,NA,NA,NA,NA,NA,NA,NA,NA,NA,NA,NA,NA,NA
38b3c,"""Richtig""-Screen",canvas.Screen,3_0_0_0_4_0_1,NA,NA,skipped,NA,293091.5,NA,NA,293087.20000005,293091.79999995,2023-07-10T15:57:06Z,293088.449,NULL,Flexibilität,kubadilika,d,NA,NA,NA,NA,sdf,NA,0,NA,NA,NA,NA,NA,NA,NA,NA,NA,NA,NA,NA,NA,NA,NA,NA,NA,NA,NA
38b3c,"""Falsch""-Screen",canvas.Screen,3_0_0_0_4_0_2,NA,NA,timeout,4992.29,293092.89999986,293072.137,293088.449,298064.014,298065.0999999,2023-07-10T15:57:11Z,298080.739,NULL,Flexibilität,kubadilika,d,NA,NA,NA,NA,sdf,0,0,NA,NA,NA,NA,NA,NA,NA,NA,NA,NA,NA,NA,NA,NA,NA,NA,NA,NA,NA
38b3c,deep,flow.Sequence,3_0_0_0_4_0,NA,NA,completion,9601.336,288447.39999986,288445.821,288462.678,298064.014,298065.29999995,2023-07-10T15:57:11Z,298080.739,NULL,Flexibilität,kubadilika,d,NA,NA,NA,NA,sdf,NA,0,NA,NA,NA,NA,NA,NA,NA,NA,NA,NA,NA,NA,NA,NA,NA,NA,NA,NA,NA
38b3c,shallow,flow.Sequence,3_0_0_0_4_1,NA,NA,skipped,NA,298065.5,NA,NA,298064.014,298065.5,2023-07-10T15:57:11Z,298080.739,NULL,Flexibilität,kubadilika,d,NA,NA,NA,NA,sdf,NA,0,NA,NA,NA,NA,NA,NA,NA,NA,NA,NA,NA,NA,NA,NA,NA,NA,NA,NA,NA
38b3c,task,flow.Sequence,3_0_0_0_4,NA,NA,completion,9601.336,288447.39999986,288445.821,288462.678,298064.014,298065.70000005,2023-07-10T15:57:11Z,298080.739,NULL,Flexibilität,kubadilika,d,NA,NA,NA,NA,sdf,NA,0,NA,NA,NA,NA,NA,NA,NA,NA,NA,NA,NA,NA,NA,NA,NA,NA,NA,NA,NA
38b3c,deep,flow.Sequence,3_0_0_0_5_0,NA,NA,skipped,NA,298065.79999995,NA,NA,298064.014,298065.79999995,2023-07-10T15:57:11Z,298080.739,NULL,Hoffnung,matarajio,s,kutaalamika,uratibu,mvumbuzi,NA,sdf,NA,0,NA,NA,NA,NA,NA,NA,NA,NA,NA,NA,NA,NA,NA,NA,NA,NA,NA,NA,NA
38b3c,Shallow Question,html.Page,3_0_0_0_5_1_0,NA,NA,form submission,6332.1609998569,298065.89999986,298064.014,298080.739,304412.89999986,304413.20000005,2023-07-10T15:57:17Z,304416.507,NULL,Hoffnung,matarajio,s,kutaalamika,uratibu,mvumbuzi,kutaalamika,NA,NA,0,NA,NA,NA,NA,NA,NA,NA,NA,NA,NA,NA,NA,NA,NA,NA,NA,NA,NA,NA
38b3c,"""Richtig""-Screen",canvas.Screen,3_0_0_0_5_1_1,NA,NA,skipped,NA,304417.0999999,NA,NA,304412.89999986,304417.29999995,2023-07-10T15:57:17Z,304416.507,NULL,Hoffnung,matarajio,s,kutaalamika,uratibu,mvumbuzi,NA,sdf,NA,0,NA,NA,NA,NA,NA,NA,NA,NA,NA,NA,NA,NA,NA,NA,NA,NA,NA,NA,NA
38b3c,"""Falsch""-Screen",canvas.Screen,3_0_0_0_5_1_2,NA,NA,timeout,4993.198,304418.29999995,304399.805,304416.507,309393.37,309394.29999995,2023-07-10T15:57:22Z,309409.705,NULL,Hoffnung,matarajio,s,kutaalamika,uratibu,mvumbuzi,NA,sdf,0,0,NA,NA,NA,NA,NA,NA,NA,NA,NA,NA,NA,NA,NA,NA,NA,NA,NA,NA,NA
38b3c,shallow,flow.Sequence,3_0_0_0_5_1,NA,NA,completion,11312.631,298065.89999986,298064.014,298080.739,309393.37,309394.39999986,2023-07-10T15:57:22Z,309409.705,NULL,Hoffnung,matarajio,s,kutaalamika,uratibu,mvumbuzi,NA,sdf,NA,0,NA,NA,NA,NA,NA,NA,NA,NA,NA,NA,NA,NA,NA,NA,NA,NA,NA,NA,NA
38b3c,task,flow.Sequence,3_0_0_0_5,NA,NA,completion,11312.631,298065.79999995,298064.014,298080.739,309393.37,309394.5999999,2023-07-10T15:57:22Z,309409.705,NULL,Hoffnung,matarajio,s,kutaalamika,uratibu,mvumbuzi,NA,sdf,NA,0,NA,NA,NA,NA,NA,NA,NA,NA,NA,NA,NA,NA,NA,NA,NA,NA,NA,NA,NA
38b3c,deep,flow.Sequence,3_0_0_0_6_0,NA,NA,skipped,NA,309394.79999995,NA,NA,309393.37,309394.79999995,2023-07-10T15:57:22Z,309409.705,NULL,Verpackung,ufungaji,s,uhusiano,upimaji,uchunguzi,NA,sdf,NA,0,NA,NA,NA,NA,NA,NA,NA,NA,NA,NA,NA,NA,NA,NA,NA,NA,NA,NA,NA
38b3c,Shallow Question,html.Page,3_0_0_0_6_1_0,NA,NA,form submission,5928.4950000477,309394.89999986,309393.37,309409.705,315338.20000005,315338.5999999,2023-07-10T15:57:28Z,315346.761,NULL,Verpackung,ufungaji,s,uhusiano,upimaji,uchunguzi,upimaji,NA,NA,0,NA,NA,NA,NA,NA,NA,NA,NA,NA,NA,NA,NA,NA,NA,NA,NA,NA,NA,NA
38b3c,"""Richtig""-Screen",canvas.Screen,3_0_0_0_6_1_1,NA,NA,skipped,NA,315342.39999986,NA,NA,315338.20000005,315342.70000005,2023-07-10T15:57:28Z,315346.761,NULL,Verpackung,ufungaji,s,uhusiano,upimaji,uchunguzi,NA,sdf,NA,0,NA,NA,NA,NA,NA,NA,NA,NA,NA,NA,NA,NA,NA,NA,NA,NA,NA,NA,NA
38b3c,"""Falsch""-Screen",canvas.Screen,3_0_0_0_6_1_2,NA,NA,timeout,4992.448,315343.70000005,315330.255,315346.761,320322.309,320323.5999999,2023-07-10T15:57:33Z,320339.209,NULL,Verpackung,ufungaji,s,uhusiano,upimaji,uchunguzi,NA,sdf,0,0,NA,NA,NA,NA,NA,NA,NA,NA,NA,NA,NA,NA,NA,NA,NA,NA,NA,NA,NA
38b3c,shallow,flow.Sequence,3_0_0_0_6_1,NA,NA,completion,10912.604,309394.89999986,309393.37,309409.705,320322.309,320323.89999986,2023-07-10T15:57:33Z,320339.209,NULL,Verpackung,ufungaji,s,uhusiano,upimaji,uchunguzi,NA,sdf,NA,0,NA,NA,NA,NA,NA,NA,NA,NA,NA,NA,NA,NA,NA,NA,NA,NA,NA,NA,NA
38b3c,task,flow.Sequence,3_0_0_0_6,NA,NA,completion,10912.604,309394.5999999,309393.37,309409.705,320322.309,320324,2023-07-10T15:57:33Z,320339.209,NULL,Verpackung,ufungaji,s,uhusiano,upimaji,uchunguzi,NA,sdf,NA,0,NA,NA,NA,NA,NA,NA,NA,NA,NA,NA,NA,NA,NA,NA,NA,NA,NA,NA,NA
38b3c,Deep Question,html.Page,3_0_0_0_7_0_0,NA,NA,form submission,3787.291,320324.20000005,320322.309,320339.209,324126.5,324126.89999986,2023-07-10T15:57:37Z,324137.012,NULL,Schock,mshtuko,d,NA,NA,NA,u,NA,NA,0,NA,NA,NA,NA,NA,NA,NA,NA,NA,NA,NA,NA,NA,NA,NA,NA,NA,NA,NA
38b3c,"""Richtig""-Screen",canvas.Screen,3_0_0_0_7_0_1,NA,NA,skipped,NA,324130.79999995,NA,NA,324126.5,324131.0999999,2023-07-10T15:57:37Z,324137.012,NULL,Schock,mshtuko,d,NA,NA,NA,NA,sdf,NA,0,NA,NA,NA,NA,NA,NA,NA,NA,NA,NA,NA,NA,NA,NA,NA,NA,NA,NA,NA
38b3c,"""Falsch""-Screen",canvas.Screen,3_0_0_0_7_0_2,NA,NA,timeout,5002.381,324132.0999999,324118.365,324137.012,329122.803,329123.70000005,2023-07-10T15:57:42Z,329139.393,NULL,Schock,mshtuko,d,NA,NA,NA,NA,sdf,0,0,NA,NA,NA,NA,NA,NA,NA,NA,NA,NA,NA,NA,NA,NA,NA,NA,NA,NA,NA
38b3c,deep,flow.Sequence,3_0_0_0_7_0,NA,NA,completion,8783.594,320324.20000005,320322.309,320339.209,329122.803,329124,2023-07-10T15:57:42Z,329139.393,NULL,Schock,mshtuko,d,NA,NA,NA,NA,sdf,NA,0,NA,NA,NA,NA,NA,NA,NA,NA,NA,NA,NA,NA,NA,NA,NA,NA,NA,NA,NA
38b3c,shallow,flow.Sequence,3_0_0_0_7_1,NA,NA,skipped,NA,329124.0999999,NA,NA,329122.803,329124.20000005,2023-07-10T15:57:42Z,329139.393,NULL,Schock,mshtuko,d,NA,NA,NA,NA,sdf,NA,0,NA,NA,NA,NA,NA,NA,NA,NA,NA,NA,NA,NA,NA,NA,NA,NA,NA,NA,NA
38b3c,task,flow.Sequence,3_0_0_0_7,NA,NA,completion,8783.594,320324.0999999,320322.309,320339.209,329122.803,329124.29999995,2023-07-10T15:57:42Z,329139.393,NULL,Schock,mshtuko,d,NA,NA,NA,NA,sdf,NA,0,NA,NA,NA,NA,NA,NA,NA,NA,NA,NA,NA,NA,NA,NA,NA,NA,NA,NA,NA
38b3c,block,flow.Loop,3_0_0_0,NA,NA,completion,82189.876,246940.5999999,246863.154,246932.927,329122.803,329124.5,2023-07-10T15:57:42Z,329139.393,NULL,NA,NA,NA,NA,NA,NA,NA,sdf,NA,0,NA,NA,NA,NA,NA,NA,NA,NA,NA,NA,NA,NA,NA,NA,NA,NA,NA,NA,NA
38b3c,weiter,canvas.Screen,3_0_0_1,sdf,keypress(Space),response,2005.3070000477,329124.5999999,329122.803,329139.393,331144.70000005,331148.29999995,2023-07-10T15:57:44Z,331173.537,NULL,NA,NA,NA,NA,NA,NA,NA,sdf,NA,0,NA,NA,NA,NA,NA,NA,NA,NA,NA,NA,NA,NA,NA,NA,NA,NA,NA,NA,NA
38b3c,check continue,flow.Sequence,3_0_0,NA,NA,completion,84211.773000048,246940.5999999,246863.154,246932.927,331144.70000005,331148.5999999,2023-07-10T15:57:44Z,331173.537,NULL,NA,NA,NA,NA,NA,NA,NA,sdf,NA,0,NA,NA,NA,NA,NA,NA,NA,NA,NA,NA,NA,NA,NA,NA,NA,NA,NA,NA,NA
38b3c,Deep Question,html.Page,3_0_1_0_0_0_0,NA,NA,form submission,9735.6630000477,331184.29999995,331140.391,331173.537,340909.20000005,340909.5,2023-07-10T15:57:54Z,340915.08,NULL,Schock,mshtuko,d,NA,NA,NA,z,NA,NA,1,NA,NA,NA,NA,NA,NA,NA,NA,NA,NA,NA,NA,NA,NA,NA,NA,NA,NA,NA
38b3c,"""Richtig""-Screen",canvas.Screen,3_0_1_0_0_0_1,NA,NA,skipped,NA,340913.5,NA,NA,340909.20000005,340913.70000005,2023-07-10T15:57:54Z,340915.08,NULL,Schock,mshtuko,d,NA,NA,NA,NA,sdfdsf,NA,1,NA,NA,NA,NA,NA,NA,NA,NA,NA,NA,NA,NA,NA,NA,NA,NA,NA,NA,NA
38b3c,"""Falsch""-Screen",canvas.Screen,3_0_1_0_0_0_2,NA,NA,timeout,5003.255,340914.70000005,340898.797,340915.08,345901.652,345902.39999986,2023-07-10T15:57:59Z,345918.335,NULL,Schock,mshtuko,d,NA,NA,NA,NA,sdfdsf,0,1,NA,NA,NA,NA,NA,NA,NA,NA,NA,NA,NA,NA,NA,NA,NA,NA,NA,NA,NA
38b3c,deep,flow.Sequence,3_0_1_0_0_0,NA,NA,completion,14728.115,331184.20000005,331140.391,331173.537,345901.652,345902.70000005,2023-07-10T15:57:59Z,345918.335,NULL,Schock,mshtuko,d,NA,NA,NA,NA,sdfdsf,NA,1,NA,NA,NA,NA,NA,NA,NA,NA,NA,NA,NA,NA,NA,NA,NA,NA,NA,NA,NA
38b3c,shallow,flow.Sequence,3_0_1_0_0_1,NA,NA,skipped,NA,345902.79999995,NA,NA,345901.652,345902.89999986,2023-07-10T15:57:59Z,345918.335,NULL,Schock,mshtuko,d,NA,NA,NA,NA,sdfdsf,NA,1,NA,NA,NA,NA,NA,NA,NA,NA,NA,NA,NA,NA,NA,NA,NA,NA,NA,NA,NA
38b3c,task,flow.Sequence,3_0_1_0_0,NA,NA,completion,14728.115,331184.20000005,331140.391,331173.537,345901.652,345903,2023-07-10T15:57:59Z,345918.335,NULL,Schock,mshtuko,d,NA,NA,NA,NA,sdfdsf,NA,1,NA,NA,NA,NA,NA,NA,NA,NA,NA,NA,NA,NA,NA,NA,NA,NA,NA,NA,NA
38b3c,Deep Question,html.Page,3_0_1_0_1_0_0,NA,NA,form submission,5986.7649999046,345903.0999999,345901.652,345918.335,351905.0999999,351905.29999995,2023-07-10T15:58:05Z,351919.658,NULL,Flexibilität,kubadilika,d,NA,NA,NA,f,NA,NA,1,NA,NA,NA,NA,NA,NA,NA,NA,NA,NA,NA,NA,NA,NA,NA,NA,NA,NA,NA
38b3c,"""Richtig""-Screen",canvas.Screen,3_0_1_0_1_0_1,NA,NA,skipped,NA,351907,NA,NA,351905.0999999,351907.0999999,2023-07-10T15:58:05Z,351919.658,NULL,Flexibilität,kubadilika,d,NA,NA,NA,NA,sdfdsf,NA,1,NA,NA,NA,NA,NA,NA,NA,NA,NA,NA,NA,NA,NA,NA,NA,NA,NA,NA,NA
38b3c,"""Falsch""-Screen",canvas.Screen,3_0_1_0_1_0_2,NA,NA,timeout,5003.248,351907.39999986,351903.052,351919.658,356906.254,356906.5999999,2023-07-10T15:58:10Z,356922.906,NULL,Flexibilität,kubadilika,d,NA,NA,NA,NA,sdfdsf,0,1,NA,NA,NA,NA,NA,NA,NA,NA,NA,NA,NA,NA,NA,NA,NA,NA,NA,NA,NA
38b3c,deep,flow.Sequence,3_0_1_0_1_0,NA,NA,completion,10987.919,345903.0999999,345901.652,345918.335,356906.254,356906.79999995,2023-07-10T15:58:10Z,356922.906,NULL,Flexibilität,kubadilika,d,NA,NA,NA,NA,sdfdsf,NA,1,NA,NA,NA,NA,NA,NA,NA,NA,NA,NA,NA,NA,NA,NA,NA,NA,NA,NA,NA
38b3c,shallow,flow.Sequence,3_0_1_0_1_1,NA,NA,skipped,NA,356906.79999995,NA,NA,356906.254,356906.89999986,2023-07-10T15:58:10Z,356922.906,NULL,Flexibilität,kubadilika,d,NA,NA,NA,NA,sdfdsf,NA,1,NA,NA,NA,NA,NA,NA,NA,NA,NA,NA,NA,NA,NA,NA,NA,NA,NA,NA,NA
38b3c,task,flow.Sequence,3_0_1_0_1,NA,NA,completion,10987.919,345903.0999999,345901.652,345918.335,356906.254,356906.89999986,2023-07-10T15:58:10Z,356922.906,NULL,Flexibilität,kubadilika,d,NA,NA,NA,NA,sdfdsf,NA,1,NA,NA,NA,NA,NA,NA,NA,NA,NA,NA,NA,NA,NA,NA,NA,NA,NA,NA,NA
38b3c,deep,flow.Sequence,3_0_1_0_2_0,NA,NA,skipped,NA,356907,NA,NA,356906.254,356907,2023-07-10T15:58:10Z,356922.906,NULL,Verpackung,ufungaji,s,uhusiano,upimaji,uchunguzi,NA,sdfdsf,NA,1,NA,NA,NA,NA,NA,NA,NA,NA,NA,NA,NA,NA,NA,NA,NA,NA,NA,NA,NA
38b3c,Shallow Question,html.Page,3_0_1_0_2_1_0,NA,NA,form submission,5424.7940000477,356907.0999999,356906.254,356922.906,362347.70000005,362347.79999995,2023-07-10T15:58:15Z,362352.312,NULL,Verpackung,ufungaji,s,uhusiano,upimaji,uchunguzi,ufungaji,NA,NA,1,NA,NA,NA,NA,NA,NA,NA,NA,NA,NA,NA,NA,NA,NA,NA,NA,NA,NA,NA
38b3c,"""Richtig""-Screen",canvas.Screen,3_0_1_0_2_1_1,NA,NA,timeout,5000.957,362350.70000005,362335.772,362352.312,367336.577,367337.5999999,2023-07-10T15:58:20Z,367353.269,NULL,Verpackung,ufungaji,s,uhusiano,upimaji,uchunguzi,NA,sdfdsf,1,1,NA,NA,NA,NA,NA,NA,NA,NA,NA,NA,NA,NA,NA,NA,NA,NA,NA,NA,NA
38b3c,"""Falsch""-Screen",canvas.Screen,3_0_1_0_2_1_2,NA,NA,skipped,NA,367341.29999995,NA,NA,367336.577,367341.5,2023-07-10T15:58:20Z,367353.269,NULL,Verpackung,ufungaji,s,uhusiano,upimaji,uchunguzi,NA,sdfdsf,NA,1,NA,NA,NA,NA,NA,NA,NA,NA,NA,NA,NA,NA,NA,NA,NA,NA,NA,NA,NA
38b3c,shallow,flow.Sequence,3_0_1_0_2_1,NA,NA,completion,10413.671,356907,356906.254,356922.906,367336.577,367341.5999999,2023-07-10T15:58:20Z,367353.269,NULL,Verpackung,ufungaji,s,uhusiano,upimaji,uchunguzi,NA,sdfdsf,NA,1,NA,NA,NA,NA,NA,NA,NA,NA,NA,NA,NA,NA,NA,NA,NA,NA,NA,NA,NA
38b3c,task,flow.Sequence,3_0_1_0_2,NA,NA,completion,10413.671,356906.89999986,356906.254,356922.906,367336.577,367341.79999995,2023-07-10T15:58:20Z,367353.269,NULL,Verpackung,ufungaji,s,uhusiano,upimaji,uchunguzi,NA,sdfdsf,NA,1,NA,NA,NA,NA,NA,NA,NA,NA,NA,NA,NA,NA,NA,NA,NA,NA,NA,NA,NA
38b3c,deep,flow.Sequence,3_0_1_0_3_0,NA,NA,skipped,NA,367341.89999986,NA,NA,367336.577,367342.0999999,2023-07-10T15:58:20Z,367353.269,NULL,Hoffnung,matarajio,s,kutaalamika,uratibu,mvumbuzi,NA,sdfdsf,NA,1,NA,NA,NA,NA,NA,NA,NA,NA,NA,NA,NA,NA,NA,NA,NA,NA,NA,NA,NA
38b3c,Shallow Question,html.Page,3_0_1_0_3_1_0,NA,NA,form submission,10083.330999905,367342.20000005,367336.577,367353.269,377436.5999999,377437.0999999,2023-07-10T15:58:30Z,377449.256,NULL,Hoffnung,matarajio,s,kutaalamika,uratibu,mvumbuzi,matarajio,NA,NA,1,NA,NA,NA,NA,NA,NA,NA,NA,NA,NA,NA,NA,NA,NA,NA,NA,NA,NA,NA
38b3c,"""Richtig""-Screen",canvas.Screen,3_0_1_0_3_1_1,NA,NA,timeout,5004.535,377440.79999995,377432.611,377449.256,382436.945,382438.0999999,2023-07-10T15:58:35Z,382453.791,NULL,Hoffnung,matarajio,s,kutaalamika,uratibu,mvumbuzi,NA,sdfdsf,1,1,NA,NA,NA,NA,NA,NA,NA,NA,NA,NA,NA,NA,NA,NA,NA,NA,NA,NA,NA
38b3c,"""Falsch""-Screen",canvas.Screen,3_0_1_0_3_1_2,NA,NA,skipped,NA,382441.79999995,NA,NA,382436.945,382442.0999999,2023-07-10T15:58:35Z,382453.791,NULL,Hoffnung,matarajio,s,kutaalamika,uratibu,mvumbuzi,NA,sdfdsf,NA,1,NA,NA,NA,NA,NA,NA,NA,NA,NA,NA,NA,NA,NA,NA,NA,NA,NA,NA,NA
38b3c,shallow,flow.Sequence,3_0_1_0_3_1,NA,NA,completion,15083.676,367342.20000005,367336.577,367353.269,382436.945,382442.20000005,2023-07-10T15:58:35Z,382453.791,NULL,Hoffnung,matarajio,s,kutaalamika,uratibu,mvumbuzi,NA,sdfdsf,NA,1,NA,NA,NA,NA,NA,NA,NA,NA,NA,NA,NA,NA,NA,NA,NA,NA,NA,NA,NA
38b3c,task,flow.Sequence,3_0_1_0_3,NA,NA,completion,15083.676,367341.89999986,367336.577,367353.269,382436.945,382442.39999986,2023-07-10T15:58:35Z,382453.791,NULL,Hoffnung,matarajio,s,kutaalamika,uratibu,mvumbuzi,NA,sdfdsf,NA,1,NA,NA,NA,NA,NA,NA,NA,NA,NA,NA,NA,NA,NA,NA,NA,NA,NA,NA,NA
38b3c,deep,flow.Sequence,3_0_1_0_4_0,NA,NA,skipped,NA,382442.39999986,NA,NA,382436.945,382442.5,2023-07-10T15:58:35Z,382453.791,NULL,Erneuerung,ukarabati,s,ushawishi,ukalifu,unyonyaji,NA,sdfdsf,NA,1,NA,NA,NA,NA,NA,NA,NA,NA,NA,NA,NA,NA,NA,NA,NA,NA,NA,NA,NA
38b3c,Shallow Question,html.Page,3_0_1_0_4_1_0,NA,NA,form submission,10132.709,382442.5999999,382436.945,382453.791,392586.5,392586.89999986,2023-07-10T15:58:46Z,392596.403,NULL,Erneuerung,ukarabati,s,ushawishi,ukalifu,unyonyaji,ukarabati,NA,NA,1,NA,NA,NA,NA,NA,NA,NA,NA,NA,NA,NA,NA,NA,NA,NA,NA,NA,NA,NA
38b3c,"""Richtig""-Screen",canvas.Screen,3_0_1_0_4_1_1,NA,NA,timeout,4992.974,392590.5999999,392584.115,392596.403,397572.558,397573.5,2023-07-10T15:58:51Z,397589.377,NULL,Erneuerung,ukarabati,s,ushawishi,ukalifu,unyonyaji,NA,sdfdsf,1,1,NA,NA,NA,NA,NA,NA,NA,NA,NA,NA,NA,NA,NA,NA,NA,NA,NA,NA,NA
38b3c,"""Falsch""-Screen",canvas.Screen,3_0_1_0_4_1_2,NA,NA,skipped,NA,397577.5,NA,NA,397572.558,397577.70000005,2023-07-10T15:58:51Z,397589.377,NULL,Erneuerung,ukarabati,s,ushawishi,ukalifu,unyonyaji,NA,sdfdsf,NA,1,NA,NA,NA,NA,NA,NA,NA,NA,NA,NA,NA,NA,NA,NA,NA,NA,NA,NA,NA
38b3c,shallow,flow.Sequence,3_0_1_0_4_1,NA,NA,completion,15118.767,382442.5999999,382436.945,382453.791,397572.558,397577.89999986,2023-07-10T15:58:51Z,397589.377,NULL,Erneuerung,ukarabati,s,ushawishi,ukalifu,unyonyaji,NA,sdfdsf,NA,1,NA,NA,NA,NA,NA,NA,NA,NA,NA,NA,NA,NA,NA,NA,NA,NA,NA,NA,NA
38b3c,task,flow.Sequence,3_0_1_0_4,NA,NA,completion,15118.767,382442.39999986,382436.945,382453.791,397572.558,397578.0999999,2023-07-10T15:58:51Z,397589.377,NULL,Erneuerung,ukarabati,s,ushawishi,ukalifu,unyonyaji,NA,sdfdsf,NA,1,NA,NA,NA,NA,NA,NA,NA,NA,NA,NA,NA,NA,NA,NA,NA,NA,NA,NA,NA
38b3c,deep,flow.Sequence,3_0_1_0_5_0,NA,NA,skipped,NA,397578.20000005,NA,NA,397572.558,397578.20000005,2023-07-10T15:58:51Z,397589.377,NULL,Wechsel,ugeuzaji,s,utambulisho,kujenga,wasiwasi,NA,sdfdsf,NA,1,NA,NA,NA,NA,NA,NA,NA,NA,NA,NA,NA,NA,NA,NA,NA,NA,NA,NA,NA
38b3c,Shallow Question,html.Page,3_0_1_0_5_1_0,NA,NA,form submission,9399.7229999047,397578.39999986,397572.558,397589.377,406989.0999999,406989.5,2023-07-10T15:59:00Z,406992.541,NULL,Wechsel,ugeuzaji,s,utambulisho,kujenga,wasiwasi,wasiwasi,NA,NA,1,NA,NA,NA,NA,NA,NA,NA,NA,NA,NA,NA,NA,NA,NA,NA,NA,NA,NA,NA
38b3c,"""Richtig""-Screen",canvas.Screen,3_0_1_0_5_1_1,NA,NA,skipped,NA,406993,NA,NA,406989.0999999,406993.20000005,2023-07-10T15:59:00Z,406992.541,NULL,Wechsel,ugeuzaji,s,utambulisho,kujenga,wasiwasi,NA,sdfdsf,NA,1,NA,NA,NA,NA,NA,NA,NA,NA,NA,NA,NA,NA,NA,NA,NA,NA,NA,NA,NA
38b3c,"""Falsch""-Screen",canvas.Screen,3_0_1_0_5_1_2,NA,NA,timeout,5003.222,406994.0999999,406976.017,406992.541,411979.117,411980.0999999,2023-07-10T15:59:05Z,411995.763,NULL,Wechsel,ugeuzaji,s,utambulisho,kujenga,wasiwasi,NA,sdfdsf,0,1,NA,NA,NA,NA,NA,NA,NA,NA,NA,NA,NA,NA,NA,NA,NA,NA,NA,NA,NA
38b3c,shallow,flow.Sequence,3_0_1_0_5_1,NA,NA,completion,14389.74,397578.29999995,397572.558,397589.377,411979.117,411980.39999986,2023-07-10T15:59:05Z,411995.763,NULL,Wechsel,ugeuzaji,s,utambulisho,kujenga,wasiwasi,NA,sdfdsf,NA,1,NA,NA,NA,NA,NA,NA,NA,NA,NA,NA,NA,NA,NA,NA,NA,NA,NA,NA,NA
38b3c,task,flow.Sequence,3_0_1_0_5,NA,NA,completion,14389.74,397578.0999999,397572.558,397589.377,411979.117,411980.5,2023-07-10T15:59:05Z,411995.763,NULL,Wechsel,ugeuzaji,s,utambulisho,kujenga,wasiwasi,NA,sdfdsf,NA,1,NA,NA,NA,NA,NA,NA,NA,NA,NA,NA,NA,NA,NA,NA,NA,NA,NA,NA,NA
38b3c,Deep Question,html.Page,3_0_1_0_6_0_0,NA,NA,form submission,4851.636999857,411980.79999995,411979.117,411995.763,416847.39999986,416847.70000005,2023-07-10T15:59:10Z,416864.282,NULL,Theorie,nadharia,d,NA,NA,NA,rr,NA,NA,1,NA,NA,NA,NA,NA,NA,NA,NA,NA,NA,NA,NA,NA,NA,NA,NA,NA,NA,NA
38b3c,"""Richtig""-Screen",canvas.Screen,3_0_1_0_6_0_1,NA,NA,skipped,NA,416852.0999999,NA,NA,416847.39999986,416852.20000005,2023-07-10T15:59:10Z,416864.282,NULL,Theorie,nadharia,d,NA,NA,NA,NA,sdfdsf,NA,1,NA,NA,NA,NA,NA,NA,NA,NA,NA,NA,NA,NA,NA,NA,NA,NA,NA,NA,NA
38b3c,"""Falsch""-Screen",canvas.Screen,3_0_1_0_6_0_2,NA,NA,timeout,4996.743,416853.5999999,416830.614,416864.282,421844.334,421845.20000005,2023-07-10T15:59:15Z,421861.025,NULL,Theorie,nadharia,d,NA,NA,NA,NA,sdfdsf,0,1,NA,NA,NA,NA,NA,NA,NA,NA,NA,NA,NA,NA,NA,NA,NA,NA,NA,NA,NA
38b3c,deep,flow.Sequence,3_0_1_0_6_0,NA,NA,completion,9848.571,411980.70000005,411979.117,411995.763,421844.334,421845.5,2023-07-10T15:59:15Z,421861.025,NULL,Theorie,nadharia,d,NA,NA,NA,NA,sdfdsf,NA,1,NA,NA,NA,NA,NA,NA,NA,NA,NA,NA,NA,NA,NA,NA,NA,NA,NA,NA,NA
38b3c,shallow,flow.Sequence,3_0_1_0_6_1,NA,NA,skipped,NA,421845.5999999,NA,NA,421844.334,421845.70000005,2023-07-10T15:59:15Z,421861.025,NULL,Theorie,nadharia,d,NA,NA,NA,NA,sdfdsf,NA,1,NA,NA,NA,NA,NA,NA,NA,NA,NA,NA,NA,NA,NA,NA,NA,NA,NA,NA,NA
38b3c,task,flow.Sequence,3_0_1_0_6,NA,NA,completion,9848.571,411980.70000005,411979.117,411995.763,421844.334,421845.79999995,2023-07-10T15:59:15Z,421861.025,NULL,Theorie,nadharia,d,NA,NA,NA,NA,sdfdsf,NA,1,NA,NA,NA,NA,NA,NA,NA,NA,NA,NA,NA,NA,NA,NA,NA,NA,NA,NA,NA
38b3c,Deep Question,html.Page,3_0_1_0_7_0_0,NA,NA,form submission,5475.3749998569,421846,421844.334,421861.025,427336.39999986,427336.70000005,2023-07-10T15:59:20Z,427346.296,NULL,Atmosphäre,angahewa,d,NA,NA,NA,w,NA,NA,1,NA,NA,NA,NA,NA,NA,NA,NA,NA,NA,NA,NA,NA,NA,NA,NA,NA,NA,NA
38b3c,"""Richtig""-Screen",canvas.Screen,3_0_1_0_7_0_1,NA,NA,skipped,NA,427340.5999999,NA,NA,427336.39999986,427340.79999995,2023-07-10T15:59:20Z,427346.296,NULL,Atmosphäre,angahewa,d,NA,NA,NA,NA,sdfdsf,NA,1,NA,NA,NA,NA,NA,NA,NA,NA,NA,NA,NA,NA,NA,NA,NA,NA,NA,NA,NA
38b3c,"""Falsch""-Screen",canvas.Screen,3_0_1_0_7_0_2,NA,NA,timeout,5006.876,427341.79999995,427332.367,427346.296,432336.554,432337.5999999,2023-07-10T15:59:25Z,432353.172,NULL,Atmosphäre,angahewa,d,NA,NA,NA,NA,sdfdsf,0,1,NA,NA,NA,NA,NA,NA,NA,NA,NA,NA,NA,NA,NA,NA,NA,NA,NA,NA,NA
38b3c,deep,flow.Sequence,3_0_1_0_7_0,NA,NA,completion,10475.529,421846,421844.334,421861.025,432336.554,432337.79999995,2023-07-10T15:59:25Z,432353.172,NULL,Atmosphäre,angahewa,d,NA,NA,NA,NA,sdfdsf,NA,1,NA,NA,NA,NA,NA,NA,NA,NA,NA,NA,NA,NA,NA,NA,NA,NA,NA,NA,NA
38b3c,shallow,flow.Sequence,3_0_1_0_7_1,NA,NA,skipped,NA,432338,NA,NA,432336.554,432338,2023-07-10T15:59:25Z,432353.172,NULL,Atmosphäre,angahewa,d,NA,NA,NA,NA,sdfdsf,NA,1,NA,NA,NA,NA,NA,NA,NA,NA,NA,NA,NA,NA,NA,NA,NA,NA,NA,NA,NA
38b3c,task,flow.Sequence,3_0_1_0_7,NA,NA,completion,10475.529,421845.89999986,421844.334,421861.025,432336.554,432338.20000005,2023-07-10T15:59:25Z,432353.172,NULL,Atmosphäre,angahewa,d,NA,NA,NA,NA,sdfdsf,NA,1,NA,NA,NA,NA,NA,NA,NA,NA,NA,NA,NA,NA,NA,NA,NA,NA,NA,NA,NA
38b3c,block,flow.Loop,3_0_1_0,NA,NA,completion,101163.017,331184.20000005,331140.391,331173.537,432336.554,432338.39999986,2023-07-10T15:59:25Z,432353.172,NULL,NA,NA,NA,NA,NA,NA,NA,sdfdsf,NA,1,NA,NA,NA,NA,NA,NA,NA,NA,NA,NA,NA,NA,NA,NA,NA,NA,NA,NA,NA
38b3c,weiter,canvas.Screen,3_0_1_1,sdf,keypress(Space),response,1323.4279999046,432338.5,432336.554,432353.172,433676.5999999,433680.39999986,2023-07-10T15:59:27Z,433688.727,NULL,NA,NA,NA,NA,NA,NA,NA,sdfdsf,NA,1,NA,NA,NA,NA,NA,NA,NA,NA,NA,NA,NA,NA,NA,NA,NA,NA,NA,NA,NA
38b3c,check continue,flow.Sequence,3_0_1,NA,NA,completion,102503.0629999,331184.20000005,331140.391,331173.537,433676.5999999,433680.70000005,2023-07-10T15:59:27Z,433688.727,NULL,NA,NA,NA,NA,NA,NA,NA,sdfdsf,NA,1,NA,NA,NA,NA,NA,NA,NA,NA,NA,NA,NA,NA,NA,NA,NA,NA,NA,NA,NA
38b3c,Deep Question,html.Page,3_0_2_0_0_0_0,NA,NA,form submission,23123.773,433696.5,433670.699,433688.727,456812.5,456812.79999995,2023-07-10T15:59:50Z,456822.956,NULL,Theorie,nadharia,d,NA,NA,NA,angahera,NA,NA,2,NA,NA,NA,NA,NA,NA,NA,NA,NA,NA,NA,NA,NA,NA,NA,NA,NA,NA,NA
38b3c,"""Richtig""-Screen",canvas.Screen,3_0_2_0_0_0_1,NA,NA,skipped,NA,456814.20000005,NA,NA,456812.5,456814.39999986,2023-07-10T15:59:50Z,456822.956,NULL,Theorie,nadharia,d,NA,NA,NA,NA,sdf,NA,2,NA,NA,NA,NA,NA,NA,NA,NA,NA,NA,NA,NA,NA,NA,NA,NA,NA,NA,NA
38b3c,"""Falsch""-Screen",canvas.Screen,3_0_2_0_0_0_2,NA,NA,timeout,5001.45,456814.70000005,456807.504,456822.956,461807.734,461808.70000005,2023-07-10T15:59:55Z,461824.406,NULL,Theorie,nadharia,d,NA,NA,NA,NA,sdf,0,2,NA,NA,NA,NA,NA,NA,NA,NA,NA,NA,NA,NA,NA,NA,NA,NA,NA,NA,NA
38b3c,deep,flow.Sequence,3_0_2_0_0_0,NA,NA,completion,28119.007,433696.5,433670.699,433688.727,461807.734,461808.89999986,2023-07-10T15:59:55Z,461824.406,NULL,Theorie,nadharia,d,NA,NA,NA,NA,sdf,NA,2,NA,NA,NA,NA,NA,NA,NA,NA,NA,NA,NA,NA,NA,NA,NA,NA,NA,NA,NA
38b3c,shallow,flow.Sequence,3_0_2_0_0_1,NA,NA,skipped,NA,461809,NA,NA,461807.734,461809.0999999,2023-07-10T15:59:55Z,461824.406,NULL,Theorie,nadharia,d,NA,NA,NA,NA,sdf,NA,2,NA,NA,NA,NA,NA,NA,NA,NA,NA,NA,NA,NA,NA,NA,NA,NA,NA,NA,NA
38b3c,task,flow.Sequence,3_0_2_0_0,NA,NA,completion,28119.007,433696.5,433670.699,433688.727,461807.734,461809.20000005,2023-07-10T15:59:55Z,461824.406,NULL,Theorie,nadharia,d,NA,NA,NA,NA,sdf,NA,2,NA,NA,NA,NA,NA,NA,NA,NA,NA,NA,NA,NA,NA,NA,NA,NA,NA,NA,NA
38b3c,deep,flow.Sequence,3_0_2_0_1_0,NA,NA,skipped,NA,461809.39999986,NA,NA,461807.734,461809.5,2023-07-10T15:59:55Z,461824.406,NULL,Erneuerung,ukarabati,s,ushawishi,ukalifu,unyonyaji,NA,sdf,NA,2,NA,NA,NA,NA,NA,NA,NA,NA,NA,NA,NA,NA,NA,NA,NA,NA,NA,NA,NA
38b3c,Shallow Question,html.Page,3_0_2_0_1_1_0,NA,NA,form submission,6978.8939999523,461809.5,461807.734,461824.406,468803.29999995,468803.5999999,2023-07-10T16:00:02Z,468813.267,NULL,Erneuerung,ukarabati,s,ushawishi,ukalifu,unyonyaji,ukarabati,NA,NA,2,NA,NA,NA,NA,NA,NA,NA,NA,NA,NA,NA,NA,NA,NA,NA,NA,NA,NA,NA
38b3c,"""Richtig""-Screen",canvas.Screen,3_0_2_0_1_1_1,NA,NA,timeout,4994.902,468807.39999986,468789.082,468813.267,473791.707,473792.79999995,2023-07-10T16:00:07Z,473808.169,NULL,Erneuerung,ukarabati,s,ushawishi,ukalifu,unyonyaji,NA,sdf,1,2,NA,NA,NA,NA,NA,NA,NA,NA,NA,NA,NA,NA,NA,NA,NA,NA,NA,NA,NA
38b3c,"""Falsch""-Screen",canvas.Screen,3_0_2_0_1_1_2,NA,NA,skipped,NA,473796.39999986,NA,NA,473791.707,473796.5999999,2023-07-10T16:00:07Z,473808.169,NULL,Erneuerung,ukarabati,s,ushawishi,ukalifu,unyonyaji,NA,sdf,NA,2,NA,NA,NA,NA,NA,NA,NA,NA,NA,NA,NA,NA,NA,NA,NA,NA,NA,NA,NA
38b3c,shallow,flow.Sequence,3_0_2_0_1_1,NA,NA,completion,11967.301,461809.5,461807.734,461824.406,473791.707,473796.79999995,2023-07-10T16:00:07Z,473808.169,NULL,Erneuerung,ukarabati,s,ushawishi,ukalifu,unyonyaji,NA,sdf,NA,2,NA,NA,NA,NA,NA,NA,NA,NA,NA,NA,NA,NA,NA,NA,NA,NA,NA,NA,NA
38b3c,task,flow.Sequence,3_0_2_0_1,NA,NA,completion,11967.301,461809.39999986,461807.734,461824.406,473791.707,473796.89999986,2023-07-10T16:00:07Z,473808.169,NULL,Erneuerung,ukarabati,s,ushawishi,ukalifu,unyonyaji,NA,sdf,NA,2,NA,NA,NA,NA,NA,NA,NA,NA,NA,NA,NA,NA,NA,NA,NA,NA,NA,NA,NA
38b3c,deep,flow.Sequence,3_0_2_0_2_0,NA,NA,skipped,NA,473797.0999999,NA,NA,473791.707,473797.0999999,2023-07-10T16:00:07Z,473808.169,NULL,Verpackung,ufungaji,s,uhusiano,upimaji,uchunguzi,NA,sdf,NA,2,NA,NA,NA,NA,NA,NA,NA,NA,NA,NA,NA,NA,NA,NA,NA,NA,NA,NA,NA
38b3c,Shallow Question,html.Page,3_0_2_0_2_1_0,NA,NA,form submission,6698.831,473797.20000005,473791.707,473808.169,480507,480507.29999995,2023-07-10T16:00:13Z,480518.785,NULL,Verpackung,ufungaji,s,uhusiano,upimaji,uchunguzi,ufungaji,NA,NA,2,NA,NA,NA,NA,NA,NA,NA,NA,NA,NA,NA,NA,NA,NA,NA,NA,NA,NA,NA
38b3c,"""Richtig""-Screen",canvas.Screen,3_0_2_0_2_1_1,NA,NA,timeout,5001.059,480510.79999995,480502.068,480518.785,485503.333,485504.39999986,2023-07-10T16:00:18Z,485519.844,NULL,Verpackung,ufungaji,s,uhusiano,upimaji,uchunguzi,NA,sdf,1,2,NA,NA,NA,NA,NA,NA,NA,NA,NA,NA,NA,NA,NA,NA,NA,NA,NA,NA,NA
38b3c,"""Falsch""-Screen",canvas.Screen,3_0_2_0_2_1_2,NA,NA,skipped,NA,485508.0999999,NA,NA,485503.333,485508.29999995,2023-07-10T16:00:18Z,485519.844,NULL,Verpackung,ufungaji,s,uhusiano,upimaji,uchunguzi,NA,sdf,NA,2,NA,NA,NA,NA,NA,NA,NA,NA,NA,NA,NA,NA,NA,NA,NA,NA,NA,NA,NA
38b3c,shallow,flow.Sequence,3_0_2_0_2_1,NA,NA,completion,11695.164,473797.0999999,473791.707,473808.169,485503.333,485508.5,2023-07-10T16:00:18Z,485519.844,NULL,Verpackung,ufungaji,s,uhusiano,upimaji,uchunguzi,NA,sdf,NA,2,NA,NA,NA,NA,NA,NA,NA,NA,NA,NA,NA,NA,NA,NA,NA,NA,NA,NA,NA
38b3c,task,flow.Sequence,3_0_2_0_2,NA,NA,completion,11695.164,473797,473791.707,473808.169,485503.333,485508.5999999,2023-07-10T16:00:18Z,485519.844,NULL,Verpackung,ufungaji,s,uhusiano,upimaji,uchunguzi,NA,sdf,NA,2,NA,NA,NA,NA,NA,NA,NA,NA,NA,NA,NA,NA,NA,NA,NA,NA,NA,NA,NA
38b3c,Deep Question,html.Page,3_0_2_0_3_0_0,NA,NA,form submission,12279.255999905,485508.79999995,485503.333,485519.844,497799.0999999,497799.5,2023-07-10T16:00:31Z,497808.721,NULL,Flexibilität,kubadilika,d,NA,NA,NA,n,NA,NA,2,NA,NA,NA,NA,NA,NA,NA,NA,NA,NA,NA,NA,NA,NA,NA,NA,NA,NA,NA
38b3c,"""Richtig""-Screen",canvas.Screen,3_0_2_0_3_0_1,NA,NA,skipped,NA,497803.79999995,NA,NA,497799.0999999,497804,2023-07-10T16:00:31Z,497808.721,NULL,Flexibilität,kubadilika,d,NA,NA,NA,NA,sdf,NA,2,NA,NA,NA,NA,NA,NA,NA,NA,NA,NA,NA,NA,NA,NA,NA,NA,NA,NA,NA
38b3c,"""Falsch""-Screen",canvas.Screen,3_0_2_0_3_0_2,NA,NA,timeout,5001.477,497805.20000005,497790.473,497808.721,502793.67,502794.5,2023-07-10T16:00:36Z,502810.198,NULL,Flexibilität,kubadilika,d,NA,NA,NA,NA,sdf,0,2,NA,NA,NA,NA,NA,NA,NA,NA,NA,NA,NA,NA,NA,NA,NA,NA,NA,NA,NA
38b3c,deep,flow.Sequence,3_0_2_0_3_0,NA,NA,completion,17273.826,485508.79999995,485503.333,485519.844,502793.67,502794.79999995,2023-07-10T16:00:36Z,502810.198,NULL,Flexibilität,kubadilika,d,NA,NA,NA,NA,sdf,NA,2,NA,NA,NA,NA,NA,NA,NA,NA,NA,NA,NA,NA,NA,NA,NA,NA,NA,NA,NA
38b3c,shallow,flow.Sequence,3_0_2_0_3_1,NA,NA,skipped,NA,502794.79999995,NA,NA,502793.67,502794.89999986,2023-07-10T16:00:36Z,502810.198,NULL,Flexibilität,kubadilika,d,NA,NA,NA,NA,sdf,NA,2,NA,NA,NA,NA,NA,NA,NA,NA,NA,NA,NA,NA,NA,NA,NA,NA,NA,NA,NA
38b3c,task,flow.Sequence,3_0_2_0_3,NA,NA,completion,17273.826,485508.70000005,485503.333,485519.844,502793.67,502795.0999999,2023-07-10T16:00:36Z,502810.198,NULL,Flexibilität,kubadilika,d,NA,NA,NA,NA,sdf,NA,2,NA,NA,NA,NA,NA,NA,NA,NA,NA,NA,NA,NA,NA,NA,NA,NA,NA,NA,NA
38b3c,deep,flow.Sequence,3_0_2_0_4_0,NA,NA,skipped,NA,502795.20000005,NA,NA,502793.67,502795.29999995,2023-07-10T16:00:36Z,502810.198,NULL,Hoffnung,matarajio,s,kutaalamika,uratibu,mvumbuzi,NA,sdf,NA,2,NA,NA,NA,NA,NA,NA,NA,NA,NA,NA,NA,NA,NA,NA,NA,NA,NA,NA,NA
38b3c,Shallow Question,html.Page,3_0_2_0_4_1_0,NA,NA,form submission,10108.701999857,502795.29999995,502793.67,502810.198,512918.89999986,512919.39999986,2023-07-10T16:00:46Z,512927.744,NULL,Hoffnung,matarajio,s,kutaalamika,uratibu,mvumbuzi,matarajio,NA,NA,2,NA,NA,NA,NA,NA,NA,NA,NA,NA,NA,NA,NA,NA,NA,NA,NA,NA,NA,NA
38b3c,"""Richtig""-Screen",canvas.Screen,3_0_2_0_4_1_1,NA,NA,timeout,5005.424,512923.20000005,512911.315,512927.744,517916.401,517917.29999995,2023-07-10T16:00:51Z,517933.168,NULL,Hoffnung,matarajio,s,kutaalamika,uratibu,mvumbuzi,NA,sdf,1,2,NA,NA,NA,NA,NA,NA,NA,NA,NA,NA,NA,NA,NA,NA,NA,NA,NA,NA,NA
38b3c,"""Falsch""-Screen",canvas.Screen,3_0_2_0_4_1_2,NA,NA,skipped,NA,517920.70000005,NA,NA,517916.401,517920.89999986,2023-07-10T16:00:51Z,517933.168,NULL,Hoffnung,matarajio,s,kutaalamika,uratibu,mvumbuzi,NA,sdf,NA,2,NA,NA,NA,NA,NA,NA,NA,NA,NA,NA,NA,NA,NA,NA,NA,NA,NA,NA,NA
38b3c,shallow,flow.Sequence,3_0_2_0_4_1,NA,NA,completion,15106.203,502795.29999995,502793.67,502810.198,517916.401,517921.0999999,2023-07-10T16:00:51Z,517933.168,NULL,Hoffnung,matarajio,s,kutaalamika,uratibu,mvumbuzi,NA,sdf,NA,2,NA,NA,NA,NA,NA,NA,NA,NA,NA,NA,NA,NA,NA,NA,NA,NA,NA,NA,NA
38b3c,task,flow.Sequence,3_0_2_0_4,NA,NA,completion,15106.203,502795.20000005,502793.67,502810.198,517916.401,517921.20000005,2023-07-10T16:00:51Z,517933.168,NULL,Hoffnung,matarajio,s,kutaalamika,uratibu,mvumbuzi,NA,sdf,NA,2,NA,NA,NA,NA,NA,NA,NA,NA,NA,NA,NA,NA,NA,NA,NA,NA,NA,NA,NA
38b3c,Deep Question,html.Page,3_0_2_0_5_0_0,NA,NA,form submission,11970.832,517921.39999986,517916.401,517933.168,529904,529904.29999995,2023-07-10T16:01:03Z,529913.955,NULL,Schock,mshtuko,d,NA,NA,NA,m,NA,NA,2,NA,NA,NA,NA,NA,NA,NA,NA,NA,NA,NA,NA,NA,NA,NA,NA,NA,NA,NA
38b3c,"""Richtig""-Screen",canvas.Screen,3_0_2_0_5_0_1,NA,NA,skipped,NA,529908.29999995,NA,NA,529904,529908.5,2023-07-10T16:01:03Z,529913.955,NULL,Schock,mshtuko,d,NA,NA,NA,NA,sdf,NA,2,NA,NA,NA,NA,NA,NA,NA,NA,NA,NA,NA,NA,NA,NA,NA,NA,NA,NA,NA
38b3c,"""Falsch""-Screen",canvas.Screen,3_0_2_0_5_0_2,NA,NA,timeout,5004.7340000001,529909.5,529899.867,529913.955,534901.869,534902.89999986,2023-07-10T16:01:08Z,534918.689,NULL,Schock,mshtuko,d,NA,NA,NA,NA,sdf,0,2,NA,NA,NA,NA,NA,NA,NA,NA,NA,NA,NA,NA,NA,NA,NA,NA,NA,NA,NA
38b3c,deep,flow.Sequence,3_0_2_0_5_0,NA,NA,completion,16968.701,517921.39999986,517916.401,517933.168,534901.869,534903.20000005,2023-07-10T16:01:08Z,534918.689,NULL,Schock,mshtuko,d,NA,NA,NA,NA,sdf,NA,2,NA,NA,NA,NA,NA,NA,NA,NA,NA,NA,NA,NA,NA,NA,NA,NA,NA,NA,NA
38b3c,shallow,flow.Sequence,3_0_2_0_5_1,NA,NA,skipped,NA,534903.29999995,NA,NA,534901.869,534903.29999995,2023-07-10T16:01:08Z,534918.689,NULL,Schock,mshtuko,d,NA,NA,NA,NA,sdf,NA,2,NA,NA,NA,NA,NA,NA,NA,NA,NA,NA,NA,NA,NA,NA,NA,NA,NA,NA,NA
38b3c,task,flow.Sequence,3_0_2_0_5,NA,NA,completion,16968.701,517921.29999995,517916.401,517933.168,534901.869,534903.5999999,2023-07-10T16:01:08Z,534918.689,NULL,Schock,mshtuko,d,NA,NA,NA,NA,sdf,NA,2,NA,NA,NA,NA,NA,NA,NA,NA,NA,NA,NA,NA,NA,NA,NA,NA,NA,NA,NA
38b3c,deep,flow.Sequence,3_0_2_0_6_0,NA,NA,skipped,NA,534903.5999999,NA,NA,534901.869,534903.70000005,2023-07-10T16:01:08Z,534918.689,NULL,Wechsel,ugeuzaji,s,utambulisho,kujenga,wasiwasi,NA,sdf,NA,2,NA,NA,NA,NA,NA,NA,NA,NA,NA,NA,NA,NA,NA,NA,NA,NA,NA,NA,NA
38b3c,Shallow Question,html.Page,3_0_2_0_6_1_0,NA,NA,form submission,6545.2109998569,534903.79999995,534901.869,534918.689,541463.89999986,541464.20000005,2023-07-10T16:01:14Z,541469.128,NULL,Wechsel,ugeuzaji,s,utambulisho,kujenga,wasiwasi,ugeuzaji,NA,NA,2,NA,NA,NA,NA,NA,NA,NA,NA,NA,NA,NA,NA,NA,NA,NA,NA,NA,NA,NA
38b3c,"""Richtig""-Screen",canvas.Screen,3_0_2_0_6_1_1,NA,NA,timeout,5004.377,541467.89999986,541452.743,541469.128,546457.009,546457.89999986,2023-07-10T16:01:19Z,546473.505,NULL,Wechsel,ugeuzaji,s,utambulisho,kujenga,wasiwasi,NA,sdf,1,2,NA,NA,NA,NA,NA,NA,NA,NA,NA,NA,NA,NA,NA,NA,NA,NA,NA,NA,NA
38b3c,"""Falsch""-Screen",canvas.Screen,3_0_2_0_6_1_2,NA,NA,skipped,NA,546461.20000005,NA,NA,546457.009,546461.39999986,2023-07-10T16:01:19Z,546473.505,NULL,Wechsel,ugeuzaji,s,utambulisho,kujenga,wasiwasi,NA,sdf,NA,2,NA,NA,NA,NA,NA,NA,NA,NA,NA,NA,NA,NA,NA,NA,NA,NA,NA,NA,NA
38b3c,shallow,flow.Sequence,3_0_2_0_6_1,NA,NA,completion,11538.32,534903.79999995,534901.869,534918.689,546457.009,546461.5999999,2023-07-10T16:01:19Z,546473.505,NULL,Wechsel,ugeuzaji,s,utambulisho,kujenga,wasiwasi,NA,sdf,NA,2,NA,NA,NA,NA,NA,NA,NA,NA,NA,NA,NA,NA,NA,NA,NA,NA,NA,NA,NA
38b3c,task,flow.Sequence,3_0_2_0_6,NA,NA,completion,11538.32,534903.5999999,534901.869,534918.689,546457.009,546461.79999995,2023-07-10T16:01:19Z,546473.505,NULL,Wechsel,ugeuzaji,s,utambulisho,kujenga,wasiwasi,NA,sdf,NA,2,NA,NA,NA,NA,NA,NA,NA,NA,NA,NA,NA,NA,NA,NA,NA,NA,NA,NA,NA
38b3c,Deep Question,html.Page,3_0_2_0_7_0_0,NA,NA,form submission,6920.2949999523,546461.89999986,546457.009,546473.505,553393.79999995,553394.20000005,2023-07-10T16:01:26Z,553395.204,NULL,Atmosphäre,angahewa,d,NA,NA,NA,k,NA,NA,2,NA,NA,NA,NA,NA,NA,NA,NA,NA,NA,NA,NA,NA,NA,NA,NA,NA,NA,NA
38b3c,"""Richtig""-Screen",canvas.Screen,3_0_2_0_7_0_1,NA,NA,skipped,NA,553398.0999999,NA,NA,553393.79999995,553398.29999995,2023-07-10T16:01:26Z,553395.204,NULL,Atmosphäre,angahewa,d,NA,NA,NA,NA,sdf,NA,2,NA,NA,NA,NA,NA,NA,NA,NA,NA,NA,NA,NA,NA,NA,NA,NA,NA,NA,NA
38b3c,"""Falsch""-Screen",canvas.Screen,3_0_2_0_7_0_2,NA,NA,timeout,4993.101,553399.5,553378.831,553395.204,558371.449,558372.5,2023-07-10T16:01:31Z,558388.305,NULL,Atmosphäre,angahewa,d,NA,NA,NA,NA,sdf,0,2,NA,NA,NA,NA,NA,NA,NA,NA,NA,NA,NA,NA,NA,NA,NA,NA,NA,NA,NA
38b3c,deep,flow.Sequence,3_0_2_0_7_0,NA,NA,completion,11897.944,546461.89999986,546457.009,546473.505,558371.449,558372.79999995,2023-07-10T16:01:31Z,558388.305,NULL,Atmosphäre,angahewa,d,NA,NA,NA,NA,sdf,NA,2,NA,NA,NA,NA,NA,NA,NA,NA,NA,NA,NA,NA,NA,NA,NA,NA,NA,NA,NA
38b3c,shallow,flow.Sequence,3_0_2_0_7_1,NA,NA,skipped,NA,558372.89999986,NA,NA,558371.449,558373,2023-07-10T16:01:31Z,558388.305,NULL,Atmosphäre,angahewa,d,NA,NA,NA,NA,sdf,NA,2,NA,NA,NA,NA,NA,NA,NA,NA,NA,NA,NA,NA,NA,NA,NA,NA,NA,NA,NA
38b3c,task,flow.Sequence,3_0_2_0_7,NA,NA,completion,11897.944,546461.89999986,546457.009,546473.505,558371.449,558373.0999999,2023-07-10T16:01:31Z,558388.305,NULL,Atmosphäre,angahewa,d,NA,NA,NA,NA,sdf,NA,2,NA,NA,NA,NA,NA,NA,NA,NA,NA,NA,NA,NA,NA,NA,NA,NA,NA,NA,NA
38b3c,block,flow.Loop,3_0_2_0,NA,NA,completion,124682.722,433696.5,433670.699,433688.727,558371.449,558373.29999995,2023-07-10T16:01:31Z,558388.305,NULL,NA,NA,NA,NA,NA,NA,NA,sdf,NA,2,NA,NA,NA,NA,NA,NA,NA,NA,NA,NA,NA,NA,NA,NA,NA,NA,NA,NA,NA
38b3c,weiter,canvas.Screen,3_0_2_1,sdf,keypress(Space),response,908.49499995227,558373.39999986,558371.449,558388.305,559296.79999995,559300.29999995,2023-07-10T16:01:32Z,559320.526,NULL,NA,NA,NA,NA,NA,NA,NA,sdf,NA,2,NA,NA,NA,NA,NA,NA,NA,NA,NA,NA,NA,NA,NA,NA,NA,NA,NA,NA,NA
38b3c,check continue,flow.Sequence,3_0_2,NA,NA,completion,125608.07299995,433696.39999986,433670.699,433688.727,559296.79999995,559300.39999986,2023-07-10T16:01:32Z,559320.526,NULL,NA,NA,NA,NA,NA,NA,NA,sdf,NA,2,NA,NA,NA,NA,NA,NA,NA,NA,NA,NA,NA,NA,NA,NA,NA,NA,NA,NA,NA
38b3c,Deep Question,html.Page,3_0_3_0_0_0_0,NA,NA,form submission,11746.373999857,559331.0999999,559287.201,559320.526,571066.89999986,571067.20000005,2023-07-10T16:01:44Z,571069.796,NULL,Theorie,nadharia,d,NA,NA,NA,w,NA,NA,3,NA,NA,NA,NA,NA,NA,NA,NA,NA,NA,NA,NA,NA,NA,NA,NA,NA,NA,NA
38b3c,"""Richtig""-Screen",canvas.Screen,3_0_3_0_0_0_1,NA,NA,skipped,NA,571071.20000005,NA,NA,571066.89999986,571071.39999986,2023-07-10T16:01:44Z,571069.796,NULL,Theorie,nadharia,d,NA,NA,NA,NA,qt,NA,3,NA,NA,NA,NA,NA,NA,NA,NA,NA,NA,NA,NA,NA,NA,NA,NA,NA,NA,NA
38b3c,"""Falsch""-Screen",canvas.Screen,3_0_3_0_0_0_2,NA,NA,timeout,4996.659,571072.39999986,571053.443,571069.796,576049.957,576051,2023-07-10T16:01:49Z,576066.455,NULL,Theorie,nadharia,d,NA,NA,NA,NA,qt,0,3,NA,NA,NA,NA,NA,NA,NA,NA,NA,NA,NA,NA,NA,NA,NA,NA,NA,NA,NA
38b3c,deep,flow.Sequence,3_0_3_0_0_0,NA,NA,completion,16729.431,559331.0999999,559287.201,559320.526,576049.957,576051.20000005,2023-07-10T16:01:49Z,576066.455,NULL,Theorie,nadharia,d,NA,NA,NA,NA,qt,NA,3,NA,NA,NA,NA,NA,NA,NA,NA,NA,NA,NA,NA,NA,NA,NA,NA,NA,NA,NA
38b3c,shallow,flow.Sequence,3_0_3_0_0_1,NA,NA,skipped,NA,576051.29999995,NA,NA,576049.957,576051.39999986,2023-07-10T16:01:49Z,576066.455,NULL,Theorie,nadharia,d,NA,NA,NA,NA,qt,NA,3,NA,NA,NA,NA,NA,NA,NA,NA,NA,NA,NA,NA,NA,NA,NA,NA,NA,NA,NA
38b3c,task,flow.Sequence,3_0_3_0_0,NA,NA,completion,16729.431,559331.0999999,559287.201,559320.526,576049.957,576051.5,2023-07-10T16:01:49Z,576066.455,NULL,Theorie,nadharia,d,NA,NA,NA,NA,qt,NA,3,NA,NA,NA,NA,NA,NA,NA,NA,NA,NA,NA,NA,NA,NA,NA,NA,NA,NA,NA
38b3c,Deep Question,html.Page,3_0_3_0_1_0_0,NA,NA,form submission,4867.444999857,576051.70000005,576049.957,576066.455,580933.89999986,580933.89999986,2023-07-10T16:01:54Z,580940.472,NULL,Atmosphäre,angahewa,d,NA,NA,NA,angahewa,NA,NA,3,NA,NA,NA,NA,NA,NA,NA,NA,NA,NA,NA,NA,NA,NA,NA,NA,NA,NA,NA
38b3c,"""Richtig""-Screen",canvas.Screen,3_0_3_0_1_0_1,NA,NA,timeout,5002.9770000001,580935.5,580924.028,580940.472,585926.737,585927.5999999,2023-07-10T16:01:59Z,585943.449,NULL,Atmosphäre,angahewa,d,NA,NA,NA,NA,qt,1,3,NA,NA,NA,NA,NA,NA,NA,NA,NA,NA,NA,NA,NA,NA,NA,NA,NA,NA,NA
38b3c,"""Falsch""-Screen",canvas.Screen,3_0_3_0_1_0_2,NA,NA,skipped,NA,585931.20000005,NA,NA,585926.737,585931.39999986,2023-07-10T16:01:59Z,585943.449,NULL,Atmosphäre,angahewa,d,NA,NA,NA,NA,qt,NA,3,NA,NA,NA,NA,NA,NA,NA,NA,NA,NA,NA,NA,NA,NA,NA,NA,NA,NA,NA
38b3c,deep,flow.Sequence,3_0_3_0_1_0,NA,NA,completion,9860.282,576051.70000005,576049.957,576066.455,585926.737,585931.5999999,2023-07-10T16:01:59Z,585943.449,NULL,Atmosphäre,angahewa,d,NA,NA,NA,NA,qt,NA,3,NA,NA,NA,NA,NA,NA,NA,NA,NA,NA,NA,NA,NA,NA,NA,NA,NA,NA,NA
38b3c,shallow,flow.Sequence,3_0_3_0_1_1,NA,NA,skipped,NA,585931.5999999,NA,NA,585926.737,585931.70000005,2023-07-10T16:01:59Z,585943.449,NULL,Atmosphäre,angahewa,d,NA,NA,NA,NA,qt,NA,3,NA,NA,NA,NA,NA,NA,NA,NA,NA,NA,NA,NA,NA,NA,NA,NA,NA,NA,NA
38b3c,task,flow.Sequence,3_0_3_0_1,NA,NA,completion,9860.282,576051.5999999,576049.957,576066.455,585926.737,585931.79999995,2023-07-10T16:01:59Z,585943.449,NULL,Atmosphäre,angahewa,d,NA,NA,NA,NA,qt,NA,3,NA,NA,NA,NA,NA,NA,NA,NA,NA,NA,NA,NA,NA,NA,NA,NA,NA,NA,NA
38b3c,Deep Question,html.Page,3_0_3_0_2_0_0,NA,NA,form submission,11157.251000048,585932,585926.737,585943.449,597100.70000005,597101.0999999,2023-07-10T16:02:10Z,597110.795,NULL,Schock,mshtuko,d,NA,NA,NA,g,NA,NA,3,NA,NA,NA,NA,NA,NA,NA,NA,NA,NA,NA,NA,NA,NA,NA,NA,NA,NA,NA
38b3c,"""Richtig""-Screen",canvas.Screen,3_0_3_0_2_0_1,NA,NA,skipped,NA,597105.29999995,NA,NA,597100.70000005,597105.5999999,2023-07-10T16:02:10Z,597110.795,NULL,Schock,mshtuko,d,NA,NA,NA,NA,qt,NA,3,NA,NA,NA,NA,NA,NA,NA,NA,NA,NA,NA,NA,NA,NA,NA,NA,NA,NA,NA
38b3c,"""Falsch""-Screen",canvas.Screen,3_0_3_0_2_0_2,NA,NA,timeout,4998.7699999999,597106.5999999,597097.005,597110.795,602092.707,602093.70000005,2023-07-10T16:02:15Z,602109.565,NULL,Schock,mshtuko,d,NA,NA,NA,NA,qt,0,3,NA,NA,NA,NA,NA,NA,NA,NA,NA,NA,NA,NA,NA,NA,NA,NA,NA,NA,NA
38b3c,deep,flow.Sequence,3_0_3_0_2_0,NA,NA,completion,16149.258,585931.89999986,585926.737,585943.449,602092.707,602094,2023-07-10T16:02:15Z,602109.565,NULL,Schock,mshtuko,d,NA,NA,NA,NA,qt,NA,3,NA,NA,NA,NA,NA,NA,NA,NA,NA,NA,NA,NA,NA,NA,NA,NA,NA,NA,NA
38b3c,shallow,flow.Sequence,3_0_3_0_2_1,NA,NA,skipped,NA,602094.0999999,NA,NA,602092.707,602094.20000005,2023-07-10T16:02:15Z,602109.565,NULL,Schock,mshtuko,d,NA,NA,NA,NA,qt,NA,3,NA,NA,NA,NA,NA,NA,NA,NA,NA,NA,NA,NA,NA,NA,NA,NA,NA,NA,NA
38b3c,task,flow.Sequence,3_0_3_0_2,NA,NA,completion,16149.258,585931.89999986,585926.737,585943.449,602092.707,602094.39999986,2023-07-10T16:02:15Z,602109.565,NULL,Schock,mshtuko,d,NA,NA,NA,NA,qt,NA,3,NA,NA,NA,NA,NA,NA,NA,NA,NA,NA,NA,NA,NA,NA,NA,NA,NA,NA,NA
38b3c,deep,flow.Sequence,3_0_3_0_3_0,NA,NA,skipped,NA,602094.39999986,NA,NA,602092.707,602094.5,2023-07-10T16:02:15Z,602109.565,NULL,Hoffnung,matarajio,s,kutaalamika,uratibu,mvumbuzi,NA,qt,NA,3,NA,NA,NA,NA,NA,NA,NA,NA,NA,NA,NA,NA,NA,NA,NA,NA,NA,NA,NA
38b3c,Shallow Question,html.Page,3_0_3_0_3_1_0,NA,NA,form submission,5795.0349999047,602094.70000005,602092.707,602109.565,607904.5999999,607904.89999986,2023-07-10T16:02:21Z,607914.401,NULL,Hoffnung,matarajio,s,kutaalamika,uratibu,mvumbuzi,matarajio,NA,NA,3,NA,NA,NA,NA,NA,NA,NA,NA,NA,NA,NA,NA,NA,NA,NA,NA,NA,NA,NA
38b3c,"""Richtig""-Screen",canvas.Screen,3_0_3_0_3_1_1,NA,NA,timeout,4996.89,607908.70000005,607891.48,607914.401,612894.9,612895.5999999,2023-07-10T16:02:26Z,612911.291,NULL,Hoffnung,matarajio,s,kutaalamika,uratibu,mvumbuzi,NA,qt,1,3,NA,NA,NA,NA,NA,NA,NA,NA,NA,NA,NA,NA,NA,NA,NA,NA,NA,NA,NA
38b3c,"""Falsch""-Screen",canvas.Screen,3_0_3_0_3_1_2,NA,NA,skipped,NA,612899.5,NA,NA,612894.9,612899.5999999,2023-07-10T16:02:26Z,612911.291,NULL,Hoffnung,matarajio,s,kutaalamika,uratibu,mvumbuzi,NA,qt,NA,3,NA,NA,NA,NA,NA,NA,NA,NA,NA,NA,NA,NA,NA,NA,NA,NA,NA,NA,NA
38b3c,shallow,flow.Sequence,3_0_3_0_3_1,NA,NA,completion,10785.335,602094.5999999,602092.707,602109.565,612894.9,612899.79999995,2023-07-10T16:02:26Z,612911.291,NULL,Hoffnung,matarajio,s,kutaalamika,uratibu,mvumbuzi,NA,qt,NA,3,NA,NA,NA,NA,NA,NA,NA,NA,NA,NA,NA,NA,NA,NA,NA,NA,NA,NA,NA
38b3c,task,flow.Sequence,3_0_3_0_3,NA,NA,completion,10785.335,602094.39999986,602092.707,602109.565,612894.9,612899.89999986,2023-07-10T16:02:26Z,612911.291,NULL,Hoffnung,matarajio,s,kutaalamika,uratibu,mvumbuzi,NA,qt,NA,3,NA,NA,NA,NA,NA,NA,NA,NA,NA,NA,NA,NA,NA,NA,NA,NA,NA,NA,NA
38b3c,deep,flow.Sequence,3_0_3_0_4_0,NA,NA,skipped,NA,612900,NA,NA,612894.9,612900.0999999,2023-07-10T16:02:26Z,612911.291,NULL,Wechsel,ugeuzaji,s,utambulisho,kujenga,wasiwasi,NA,qt,NA,3,NA,NA,NA,NA,NA,NA,NA,NA,NA,NA,NA,NA,NA,NA,NA,NA,NA,NA,NA
38b3c,Shallow Question,html.Page,3_0_3_0_4_1_0,NA,NA,form submission,7327.108999857,612900.20000005,612894.9,612911.291,620238.39999986,620238.70000005,2023-07-10T16:02:33Z,620250.278,NULL,Wechsel,ugeuzaji,s,utambulisho,kujenga,wasiwasi,ugeuzaji,NA,NA,3,NA,NA,NA,NA,NA,NA,NA,NA,NA,NA,NA,NA,NA,NA,NA,NA,NA,NA,NA
38b3c,"""Richtig""-Screen",canvas.Screen,3_0_3_0_4_1_1,NA,NA,timeout,5003.62,620242.39999986,620233.857,620250.278,625237.265,625238.20000005,2023-07-10T16:02:38Z,625253.898,NULL,Wechsel,ugeuzaji,s,utambulisho,kujenga,wasiwasi,NA,qt,1,3,NA,NA,NA,NA,NA,NA,NA,NA,NA,NA,NA,NA,NA,NA,NA,NA,NA,NA,NA
38b3c,"""Falsch""-Screen",canvas.Screen,3_0_3_0_4_1_2,NA,NA,skipped,NA,625242.0999999,NA,NA,625237.265,625242.39999986,2023-07-10T16:02:38Z,625253.898,NULL,Wechsel,ugeuzaji,s,utambulisho,kujenga,wasiwasi,NA,qt,NA,3,NA,NA,NA,NA,NA,NA,NA,NA,NA,NA,NA,NA,NA,NA,NA,NA,NA,NA,NA
38b3c,shallow,flow.Sequence,3_0_3_0_4_1,NA,NA,completion,12325.974,612900.0999999,612894.9,612911.291,625237.265,625242.5,2023-07-10T16:02:38Z,625253.898,NULL,Wechsel,ugeuzaji,s,utambulisho,kujenga,wasiwasi,NA,qt,NA,3,NA,NA,NA,NA,NA,NA,NA,NA,NA,NA,NA,NA,NA,NA,NA,NA,NA,NA,NA
38b3c,task,flow.Sequence,3_0_3_0_4,NA,NA,completion,12325.974,612900,612894.9,612911.291,625237.265,625242.5999999,2023-07-10T16:02:38Z,625253.898,NULL,Wechsel,ugeuzaji,s,utambulisho,kujenga,wasiwasi,NA,qt,NA,3,NA,NA,NA,NA,NA,NA,NA,NA,NA,NA,NA,NA,NA,NA,NA,NA,NA,NA,NA
38b3c,deep,flow.Sequence,3_0_3_0_5_0,NA,NA,skipped,NA,625242.79999995,NA,NA,625237.265,625242.79999995,2023-07-10T16:02:38Z,625253.898,NULL,Erneuerung,ukarabati,s,ushawishi,ukalifu,unyonyaji,NA,qt,NA,3,NA,NA,NA,NA,NA,NA,NA,NA,NA,NA,NA,NA,NA,NA,NA,NA,NA,NA,NA
38b3c,Shallow Question,html.Page,3_0_3_0_5_1_0,NA,NA,form submission,7974.0019998569,625242.89999986,625237.265,625253.898,633227.89999986,633228.0999999,2023-07-10T16:02:46Z,633235.852,NULL,Erneuerung,ukarabati,s,ushawishi,ukalifu,unyonyaji,ukarabati,NA,NA,3,NA,NA,NA,NA,NA,NA,NA,NA,NA,NA,NA,NA,NA,NA,NA,NA,NA,NA,NA
38b3c,"""Richtig""-Screen",canvas.Screen,3_0_3_0_5_1_1,NA,NA,timeout,5003.326,633231.89999986,633219.514,633235.852,638222.187,638223.20000005,2023-07-10T16:02:51Z,638239.178,NULL,Erneuerung,ukarabati,s,ushawishi,ukalifu,unyonyaji,NA,qt,1,3,NA,NA,NA,NA,NA,NA,NA,NA,NA,NA,NA,NA,NA,NA,NA,NA,NA,NA,NA
38b3c,"""Falsch""-Screen",canvas.Screen,3_0_3_0_5_1_2,NA,NA,skipped,NA,638227.0999999,NA,NA,638222.187,638227.20000005,2023-07-10T16:02:51Z,638239.178,NULL,Erneuerung,ukarabati,s,ushawishi,ukalifu,unyonyaji,NA,qt,NA,3,NA,NA,NA,NA,NA,NA,NA,NA,NA,NA,NA,NA,NA,NA,NA,NA,NA,NA,NA
38b3c,shallow,flow.Sequence,3_0_3_0_5_1,NA,NA,completion,12968.289,625242.89999986,625237.265,625253.898,638222.187,638227.5,2023-07-10T16:02:51Z,638239.178,NULL,Erneuerung,ukarabati,s,ushawishi,ukalifu,unyonyaji,NA,qt,NA,3,NA,NA,NA,NA,NA,NA,NA,NA,NA,NA,NA,NA,NA,NA,NA,NA,NA,NA,NA
38b3c,task,flow.Sequence,3_0_3_0_5,NA,NA,completion,12968.289,625242.70000005,625237.265,625253.898,638222.187,638227.5999999,2023-07-10T16:02:51Z,638239.178,NULL,Erneuerung,ukarabati,s,ushawishi,ukalifu,unyonyaji,NA,qt,NA,3,NA,NA,NA,NA,NA,NA,NA,NA,NA,NA,NA,NA,NA,NA,NA,NA,NA,NA,NA
38b3c,Deep Question,html.Page,3_0_3_0_6_0_0,NA,NA,form submission,6598.721999857,638227.70000005,638222.187,638239.178,644837.89999986,644838.20000005,2023-07-10T16:02:58Z,644848.164,NULL,Flexibilität,kubadilika,d,NA,NA,NA,e,NA,NA,3,NA,NA,NA,NA,NA,NA,NA,NA,NA,NA,NA,NA,NA,NA,NA,NA,NA,NA,NA
38b3c,"""Richtig""-Screen",canvas.Screen,3_0_3_0_6_0_1,NA,NA,skipped,NA,644841.70000005,NA,NA,644837.89999986,644841.79999995,2023-07-10T16:02:58Z,644848.164,NULL,Flexibilität,kubadilika,d,NA,NA,NA,NA,qt,NA,3,NA,NA,NA,NA,NA,NA,NA,NA,NA,NA,NA,NA,NA,NA,NA,NA,NA,NA,NA
38b3c,"""Falsch""-Screen",canvas.Screen,3_0_3_0_6_0_2,NA,NA,timeout,5002.417,644842.79999995,644834.41,644848.164,649833.782,649834.79999995,2023-07-10T16:03:03Z,649850.581,NULL,Flexibilität,kubadilika,d,NA,NA,NA,NA,qt,0,3,NA,NA,NA,NA,NA,NA,NA,NA,NA,NA,NA,NA,NA,NA,NA,NA,NA,NA,NA
38b3c,deep,flow.Sequence,3_0_3_0_6_0,NA,NA,completion,11594.604,638227.70000005,638222.187,638239.178,649833.782,649835,2023-07-10T16:03:03Z,649850.581,NULL,Flexibilität,kubadilika,d,NA,NA,NA,NA,qt,NA,3,NA,NA,NA,NA,NA,NA,NA,NA,NA,NA,NA,NA,NA,NA,NA,NA,NA,NA,NA
38b3c,shallow,flow.Sequence,3_0_3_0_6_1,NA,NA,skipped,NA,649835.0999999,NA,NA,649833.782,649835.29999995,2023-07-10T16:03:03Z,649850.581,NULL,Flexibilität,kubadilika,d,NA,NA,NA,NA,qt,NA,3,NA,NA,NA,NA,NA,NA,NA,NA,NA,NA,NA,NA,NA,NA,NA,NA,NA,NA,NA
38b3c,task,flow.Sequence,3_0_3_0_6,NA,NA,completion,11594.604,638227.70000005,638222.187,638239.178,649833.782,649835.39999986,2023-07-10T16:03:03Z,649850.581,NULL,Flexibilität,kubadilika,d,NA,NA,NA,NA,qt,NA,3,NA,NA,NA,NA,NA,NA,NA,NA,NA,NA,NA,NA,NA,NA,NA,NA,NA,NA,NA
38b3c,deep,flow.Sequence,3_0_3_0_7_0,NA,NA,skipped,NA,649835.5,NA,NA,649833.782,649835.5999999,2023-07-10T16:03:03Z,649850.581,NULL,Verpackung,ufungaji,s,uhusiano,upimaji,uchunguzi,NA,qt,NA,3,NA,NA,NA,NA,NA,NA,NA,NA,NA,NA,NA,NA,NA,NA,NA,NA,NA,NA,NA
38b3c,Shallow Question,html.Page,3_0_3_0_7_1_0,NA,NA,form submission,4958.0189999046,649835.70000005,649833.782,649850.581,654808.5999999,654809,2023-07-10T16:03:08Z,654825.45,NULL,Verpackung,ufungaji,s,uhusiano,upimaji,uchunguzi,ufungaji,NA,NA,3,NA,NA,NA,NA,NA,NA,NA,NA,NA,NA,NA,NA,NA,NA,NA,NA,NA,NA,NA
38b3c,"""Richtig""-Screen",canvas.Screen,3_0_3_0_7_1_1,NA,NA,timeout,4999.064,654812.70000005,654791.778,654825.45,659807.926,659809,2023-07-10T16:03:13Z,659824.514,NULL,Verpackung,ufungaji,s,uhusiano,upimaji,uchunguzi,NA,qt,1,3,NA,NA,NA,NA,NA,NA,NA,NA,NA,NA,NA,NA,NA,NA,NA,NA,NA,NA,NA
38b3c,"""Falsch""-Screen",canvas.Screen,3_0_3_0_7_1_2,NA,NA,skipped,NA,659812.79999995,NA,NA,659807.926,659813,2023-07-10T16:03:13Z,659824.514,NULL,Verpackung,ufungaji,s,uhusiano,upimaji,uchunguzi,NA,qt,NA,3,NA,NA,NA,NA,NA,NA,NA,NA,NA,NA,NA,NA,NA,NA,NA,NA,NA,NA,NA
38b3c,shallow,flow.Sequence,3_0_3_0_7_1,NA,NA,completion,9957.345,649835.70000005,649833.782,649850.581,659807.926,659813.20000005,2023-07-10T16:03:13Z,659824.514,NULL,Verpackung,ufungaji,s,uhusiano,upimaji,uchunguzi,NA,qt,NA,3,NA,NA,NA,NA,NA,NA,NA,NA,NA,NA,NA,NA,NA,NA,NA,NA,NA,NA,NA
38b3c,task,flow.Sequence,3_0_3_0_7,NA,NA,completion,9957.345,649835.5,649833.782,649850.581,659807.926,659813.29999995,2023-07-10T16:03:13Z,659824.514,NULL,Verpackung,ufungaji,s,uhusiano,upimaji,uchunguzi,NA,qt,NA,3,NA,NA,NA,NA,NA,NA,NA,NA,NA,NA,NA,NA,NA,NA,NA,NA,NA,NA,NA
38b3c,block,flow.Loop,3_0_3_0,NA,NA,completion,100487.4,559331.0999999,559287.201,559320.526,659807.926,659813.5999999,2023-07-10T16:03:13Z,659824.514,NULL,NA,NA,NA,NA,NA,NA,NA,qt,NA,3,NA,NA,NA,NA,NA,NA,NA,NA,NA,NA,NA,NA,NA,NA,NA,NA,NA,NA,NA
38b3c,weiter,canvas.Screen,3_0_3_1,sdf,keypress(Space),response,1024.0859999047,659813.5999999,659807.926,659824.514,660848.5999999,660849.79999995,2023-07-10T16:03:14Z,660877.489,NULL,NA,NA,NA,NA,NA,NA,NA,qt,NA,3,NA,NA,NA,NA,NA,NA,NA,NA,NA,NA,NA,NA,NA,NA,NA,NA,NA,NA,NA
38b3c,check continue,flow.Sequence,3_0_3,NA,NA,completion,101528.0739999,559331.0999999,559287.201,559320.526,660848.5999999,660849.89999986,2023-07-10T16:03:14Z,660877.489,NULL,NA,NA,NA,NA,NA,NA,NA,qt,NA,3,NA,NA,NA,NA,NA,NA,NA,NA,NA,NA,NA,NA,NA,NA,NA,NA,NA,NA,NA
38b3c,deep,flow.Sequence,3_0_4_0_0_0,NA,NA,skipped,NA,660885.89999986,NA,NA,660848.5999999,660886,2023-07-10T16:03:14Z,660877.489,NULL,Hoffnung,matarajio,s,kutaalamika,uratibu,mvumbuzi,NA,sd,NA,4,NA,NA,NA,NA,NA,NA,NA,NA,NA,NA,NA,NA,NA,NA,NA,NA,NA,NA,NA
38b3c,Shallow Question,html.Page,3_0_4_0_0_1_0,NA,NA,form submission,8704.3109999524,660886,660841.047,660877.489,669581.79999995,669582.20000005,2023-07-10T16:03:23Z,669593.579,NULL,Hoffnung,matarajio,s,kutaalamika,uratibu,mvumbuzi,matarajio,NA,NA,4,NA,NA,NA,NA,NA,NA,NA,NA,NA,NA,NA,NA,NA,NA,NA,NA,NA,NA,NA
38b3c,"""Richtig""-Screen",canvas.Screen,3_0_4_0_0_1_1,NA,NA,timeout,5001.53,669585.70000005,669576.922,669593.579,674578.333,674579.39999986,2023-07-10T16:03:28Z,674595.109,NULL,Hoffnung,matarajio,s,kutaalamika,uratibu,mvumbuzi,NA,sd,1,4,NA,NA,NA,NA,NA,NA,NA,NA,NA,NA,NA,NA,NA,NA,NA,NA,NA,NA,NA
38b3c,"""Falsch""-Screen",canvas.Screen,3_0_4_0_0_1_2,NA,NA,skipped,NA,674583.0999999,NA,NA,674578.333,674583.29999995,2023-07-10T16:03:28Z,674595.109,NULL,Hoffnung,matarajio,s,kutaalamika,uratibu,mvumbuzi,NA,sd,NA,4,NA,NA,NA,NA,NA,NA,NA,NA,NA,NA,NA,NA,NA,NA,NA,NA,NA,NA,NA
38b3c,shallow,flow.Sequence,3_0_4_0_0_1,NA,NA,completion,13700.844,660886,660841.047,660877.489,674578.333,674583.5,2023-07-10T16:03:28Z,674595.109,NULL,Hoffnung,matarajio,s,kutaalamika,uratibu,mvumbuzi,NA,sd,NA,4,NA,NA,NA,NA,NA,NA,NA,NA,NA,NA,NA,NA,NA,NA,NA,NA,NA,NA,NA
38b3c,task,flow.Sequence,3_0_4_0_0,NA,NA,completion,13700.844,660885.89999986,660841.047,660877.489,674578.333,674583.5999999,2023-07-10T16:03:28Z,674595.109,NULL,Hoffnung,matarajio,s,kutaalamika,uratibu,mvumbuzi,NA,sd,NA,4,NA,NA,NA,NA,NA,NA,NA,NA,NA,NA,NA,NA,NA,NA,NA,NA,NA,NA,NA
38b3c,Deep Question,html.Page,3_0_4_0_1_0_0,NA,NA,form submission,17096.391,674583.70000005,674578.333,674595.109,691691.5,691691.89999986,2023-07-10T16:03:45Z,691699.293,NULL,Theorie,nadharia,d,NA,NA,NA,d,NA,NA,4,NA,NA,NA,NA,NA,NA,NA,NA,NA,NA,NA,NA,NA,NA,NA,NA,NA,NA,NA
38b3c,"""Richtig""-Screen",canvas.Screen,3_0_4_0_1_0_1,NA,NA,skipped,NA,691695.5,NA,NA,691691.5,691695.70000005,2023-07-10T16:03:45Z,691699.293,NULL,Theorie,nadharia,d,NA,NA,NA,NA,sd,NA,4,NA,NA,NA,NA,NA,NA,NA,NA,NA,NA,NA,NA,NA,NA,NA,NA,NA,NA,NA
38b3c,"""Falsch""-Screen",canvas.Screen,3_0_4_0_1_0_2,NA,NA,timeout,4995.299,691696.5999999,691682.765,691699.293,696678.188,696679.20000005,2023-07-10T16:03:50Z,696694.592,NULL,Theorie,nadharia,d,NA,NA,NA,NA,sd,0,4,NA,NA,NA,NA,NA,NA,NA,NA,NA,NA,NA,NA,NA,NA,NA,NA,NA,NA,NA
38b3c,deep,flow.Sequence,3_0_4_0_1_0,NA,NA,completion,22083.079,674583.70000005,674578.333,674595.109,696678.188,696679.5,2023-07-10T16:03:50Z,696694.592,NULL,Theorie,nadharia,d,NA,NA,NA,NA,sd,NA,4,NA,NA,NA,NA,NA,NA,NA,NA,NA,NA,NA,NA,NA,NA,NA,NA,NA,NA,NA
38b3c,shallow,flow.Sequence,3_0_4_0_1_1,NA,NA,skipped,NA,696679.5999999,NA,NA,696678.188,696679.79999995,2023-07-10T16:03:50Z,696694.592,NULL,Theorie,nadharia,d,NA,NA,NA,NA,sd,NA,4,NA,NA,NA,NA,NA,NA,NA,NA,NA,NA,NA,NA,NA,NA,NA,NA,NA,NA,NA
38b3c,task,flow.Sequence,3_0_4_0_1,NA,NA,completion,22083.079,674583.70000005,674578.333,674595.109,696678.188,696679.79999995,2023-07-10T16:03:50Z,696694.592,NULL,Theorie,nadharia,d,NA,NA,NA,NA,sd,NA,4,NA,NA,NA,NA,NA,NA,NA,NA,NA,NA,NA,NA,NA,NA,NA,NA,NA,NA,NA
38b3c,Deep Question,html.Page,3_0_4_0_2_0_0,NA,NA,form submission,16672.807999857,696680,696678.188,696694.592,713367.39999986,713367.79999995,2023-07-10T16:04:06Z,713377.399,NULL,Schock,mshtuko,d,NA,NA,NA,mshukja,NA,NA,4,NA,NA,NA,NA,NA,NA,NA,NA,NA,NA,NA,NA,NA,NA,NA,NA,NA,NA,NA
38b3c,"""Richtig""-Screen",canvas.Screen,3_0_4_0_2_0_1,NA,NA,skipped,NA,713371.5,NA,NA,713367.39999986,713371.70000005,2023-07-10T16:04:06Z,713377.399,NULL,Schock,mshtuko,d,NA,NA,NA,NA,sd,NA,4,NA,NA,NA,NA,NA,NA,NA,NA,NA,NA,NA,NA,NA,NA,NA,NA,NA,NA,NA
38b3c,"""Falsch""-Screen",canvas.Screen,3_0_4_0_2_0_2,NA,NA,timeout,5004.225,713372.70000005,713353.018,713377.399,718365.1,718366,2023-07-10T16:04:11Z,718381.624,NULL,Schock,mshtuko,d,NA,NA,NA,NA,sd,0,4,NA,NA,NA,NA,NA,NA,NA,NA,NA,NA,NA,NA,NA,NA,NA,NA,NA,NA,NA
38b3c,deep,flow.Sequence,3_0_4_0_2_0,NA,NA,completion,21670.508,696679.89999986,696678.188,696694.592,718365.1,718366.29999995,2023-07-10T16:04:11Z,718381.624,NULL,Schock,mshtuko,d,NA,NA,NA,NA,sd,NA,4,NA,NA,NA,NA,NA,NA,NA,NA,NA,NA,NA,NA,NA,NA,NA,NA,NA,NA,NA
38b3c,shallow,flow.Sequence,3_0_4_0_2_1,NA,NA,skipped,NA,718366.5,NA,NA,718365.1,718366.70000005,2023-07-10T16:04:11Z,718381.624,NULL,Schock,mshtuko,d,NA,NA,NA,NA,sd,NA,4,NA,NA,NA,NA,NA,NA,NA,NA,NA,NA,NA,NA,NA,NA,NA,NA,NA,NA,NA
38b3c,task,flow.Sequence,3_0_4_0_2,NA,NA,completion,21670.508,696679.89999986,696678.188,696694.592,718365.1,718366.70000005,2023-07-10T16:04:11Z,718381.624,NULL,Schock,mshtuko,d,NA,NA,NA,NA,sd,NA,4,NA,NA,NA,NA,NA,NA,NA,NA,NA,NA,NA,NA,NA,NA,NA,NA,NA,NA,NA
38b3c,deep,flow.Sequence,3_0_4_0_3_0,NA,NA,skipped,NA,718366.79999995,NA,NA,718365.1,718366.89999986,2023-07-10T16:04:11Z,718381.624,NULL,Verpackung,ufungaji,s,uhusiano,upimaji,uchunguzi,NA,sd,NA,4,NA,NA,NA,NA,NA,NA,NA,NA,NA,NA,NA,NA,NA,NA,NA,NA,NA,NA,NA
38b3c,Shallow Question,html.Page,3_0_4_0_3_1_0,NA,NA,form submission,4095.4759999047,718367,718365.1,718381.624,722477.0999999,722477.29999995,2023-07-10T16:04:15Z,722485.867,NULL,Verpackung,ufungaji,s,uhusiano,upimaji,uchunguzi,ufungaji,NA,NA,4,NA,NA,NA,NA,NA,NA,NA,NA,NA,NA,NA,NA,NA,NA,NA,NA,NA,NA,NA
38b3c,"""Richtig""-Screen",canvas.Screen,3_0_4_0_3_1_1,NA,NA,timeout,5001.535,722481,722469.422,722485.867,727470.798,727471.70000005,2023-07-10T16:04:20Z,727487.402,NULL,Verpackung,ufungaji,s,uhusiano,upimaji,uchunguzi,NA,sd,1,4,NA,NA,NA,NA,NA,NA,NA,NA,NA,NA,NA,NA,NA,NA,NA,NA,NA,NA,NA
38b3c,"""Falsch""-Screen",canvas.Screen,3_0_4_0_3_1_2,NA,NA,skipped,NA,727475.29999995,NA,NA,727470.798,727475.5,2023-07-10T16:04:20Z,727487.402,NULL,Verpackung,ufungaji,s,uhusiano,upimaji,uchunguzi,NA,sd,NA,4,NA,NA,NA,NA,NA,NA,NA,NA,NA,NA,NA,NA,NA,NA,NA,NA,NA,NA,NA
38b3c,shallow,flow.Sequence,3_0_4_0_3_1,NA,NA,completion,9089.174,718366.89999986,718365.1,718381.624,727470.798,727475.5999999,2023-07-10T16:04:20Z,727487.402,NULL,Verpackung,ufungaji,s,uhusiano,upimaji,uchunguzi,NA,sd,NA,4,NA,NA,NA,NA,NA,NA,NA,NA,NA,NA,NA,NA,NA,NA,NA,NA,NA,NA,NA
38b3c,task,flow.Sequence,3_0_4_0_3,NA,NA,completion,9089.174,718366.79999995,718365.1,718381.624,727470.798,727475.79999995,2023-07-10T16:04:20Z,727487.402,NULL,Verpackung,ufungaji,s,uhusiano,upimaji,uchunguzi,NA,sd,NA,4,NA,NA,NA,NA,NA,NA,NA,NA,NA,NA,NA,NA,NA,NA,NA,NA,NA,NA,NA
38b3c,deep,flow.Sequence,3_0_4_0_4_0,NA,NA,skipped,NA,727475.89999986,NA,NA,727470.798,727476,2023-07-10T16:04:20Z,727487.402,NULL,Wechsel,ugeuzaji,s,utambulisho,kujenga,wasiwasi,NA,sd,NA,4,NA,NA,NA,NA,NA,NA,NA,NA,NA,NA,NA,NA,NA,NA,NA,NA,NA,NA,NA
38b3c,Shallow Question,html.Page,3_0_4_0_4_1_0,NA,NA,form submission,8037.1979999046,727476.0999999,727470.798,727487.402,735524.5999999,735525,2023-07-10T16:04:28Z,735537.545,NULL,Wechsel,ugeuzaji,s,utambulisho,kujenga,wasiwasi,kujenga,NA,NA,4,NA,NA,NA,NA,NA,NA,NA,NA,NA,NA,NA,NA,NA,NA,NA,NA,NA,NA,NA
38b3c,"""Richtig""-Screen",canvas.Screen,3_0_4_0_4_1_1,NA,NA,skipped,NA,735528.70000005,NA,NA,735524.5999999,735528.89999986,2023-07-10T16:04:28Z,735537.545,NULL,Wechsel,ugeuzaji,s,utambulisho,kujenga,wasiwasi,NA,sd,NA,4,NA,NA,NA,NA,NA,NA,NA,NA,NA,NA,NA,NA,NA,NA,NA,NA,NA,NA,NA
38b3c,"""Falsch""-Screen",canvas.Screen,3_0_4_0_4_1_2,NA,NA,timeout,5002.9099999999,735529.79999995,735521.023,735537.545,740523.447,740524.29999995,2023-07-10T16:04:33Z,740540.455,NULL,Wechsel,ugeuzaji,s,utambulisho,kujenga,wasiwasi,NA,sd,0,4,NA,NA,NA,NA,NA,NA,NA,NA,NA,NA,NA,NA,NA,NA,NA,NA,NA,NA,NA
38b3c,shallow,flow.Sequence,3_0_4_0_4_1,NA,NA,completion,13036.045,727476.0999999,727470.798,727487.402,740523.447,740524.5999999,2023-07-10T16:04:33Z,740540.455,NULL,Wechsel,ugeuzaji,s,utambulisho,kujenga,wasiwasi,NA,sd,NA,4,NA,NA,NA,NA,NA,NA,NA,NA,NA,NA,NA,NA,NA,NA,NA,NA,NA,NA,NA
38b3c,task,flow.Sequence,3_0_4_0_4,NA,NA,completion,13036.045,727475.89999986,727470.798,727487.402,740523.447,740524.70000005,2023-07-10T16:04:33Z,740540.455,NULL,Wechsel,ugeuzaji,s,utambulisho,kujenga,wasiwasi,NA,sd,NA,4,NA,NA,NA,NA,NA,NA,NA,NA,NA,NA,NA,NA,NA,NA,NA,NA,NA,NA,NA
38b3c,Deep Question,html.Page,3_0_4_0_5_0_0,NA,NA,form submission,11555.444999857,740525,740523.447,740540.455,752095.89999986,752096.29999995,2023-07-10T16:04:45Z,752105.813,NULL,Flexibilität,kubadilika,d,NA,NA,NA,m,NA,NA,4,NA,NA,NA,NA,NA,NA,NA,NA,NA,NA,NA,NA,NA,NA,NA,NA,NA,NA,NA
38b3c,"""Richtig""-Screen",canvas.Screen,3_0_4_0_5_0_1,NA,NA,skipped,NA,752100.70000005,NA,NA,752095.89999986,752100.89999986,2023-07-10T16:04:45Z,752105.813,NULL,Flexibilität,kubadilika,d,NA,NA,NA,NA,sd,NA,4,NA,NA,NA,NA,NA,NA,NA,NA,NA,NA,NA,NA,NA,NA,NA,NA,NA,NA,NA
38b3c,"""Falsch""-Screen",canvas.Screen,3_0_4_0_5_0_2,NA,NA,timeout,5004.849,752102,752084.484,752105.813,757094.088,757095.0999999,2023-07-10T16:04:50Z,757110.662,NULL,Flexibilität,kubadilika,d,NA,NA,NA,NA,sd,0,4,NA,NA,NA,NA,NA,NA,NA,NA,NA,NA,NA,NA,NA,NA,NA,NA,NA,NA,NA
38b3c,deep,flow.Sequence,3_0_4_0_5_0,NA,NA,completion,16553.633,740524.89999986,740523.447,740540.455,757094.088,757095.39999986,2023-07-10T16:04:50Z,757110.662,NULL,Flexibilität,kubadilika,d,NA,NA,NA,NA,sd,NA,4,NA,NA,NA,NA,NA,NA,NA,NA,NA,NA,NA,NA,NA,NA,NA,NA,NA,NA,NA
38b3c,shallow,flow.Sequence,3_0_4_0_5_1,NA,NA,skipped,NA,757095.5,NA,NA,757094.088,757095.70000005,2023-07-10T16:04:50Z,757110.662,NULL,Flexibilität,kubadilika,d,NA,NA,NA,NA,sd,NA,4,NA,NA,NA,NA,NA,NA,NA,NA,NA,NA,NA,NA,NA,NA,NA,NA,NA,NA,NA
38b3c,task,flow.Sequence,3_0_4_0_5,NA,NA,completion,16553.633,740524.79999995,740523.447,740540.455,757094.088,757095.79999995,2023-07-10T16:04:50Z,757110.662,NULL,Flexibilität,kubadilika,d,NA,NA,NA,NA,sd,NA,4,NA,NA,NA,NA,NA,NA,NA,NA,NA,NA,NA,NA,NA,NA,NA,NA,NA,NA,NA
38b3c,Deep Question,html.Page,3_0_4_0_6_0_0,NA,NA,form submission,9580.4379999046,757095.89999986,757094.088,757110.662,766691.0999999,766691.39999986,2023-07-10T16:05:00Z,766701.181,NULL,Atmosphäre,angahewa,d,NA,NA,NA,s,NA,NA,4,NA,NA,NA,NA,NA,NA,NA,NA,NA,NA,NA,NA,NA,NA,NA,NA,NA,NA,NA
38b3c,"""Richtig""-Screen",canvas.Screen,3_0_4_0_6_0_1,NA,NA,skipped,NA,766695.39999986,NA,NA,766691.0999999,766695.5999999,2023-07-10T16:05:00Z,766701.181,NULL,Atmosphäre,angahewa,d,NA,NA,NA,NA,sd,NA,4,NA,NA,NA,NA,NA,NA,NA,NA,NA,NA,NA,NA,NA,NA,NA,NA,NA,NA,NA
38b3c,"""Falsch""-Screen",canvas.Screen,3_0_4_0_6_0_2,NA,NA,timeout,5001.179,766696.89999986,766684.741,766701.181,771685.868,771686.79999995,2023-07-10T16:05:05Z,771702.36,NULL,Atmosphäre,angahewa,d,NA,NA,NA,NA,sd,0,4,NA,NA,NA,NA,NA,NA,NA,NA,NA,NA,NA,NA,NA,NA,NA,NA,NA,NA,NA
38b3c,deep,flow.Sequence,3_0_4_0_6_0,NA,NA,completion,14575.206,757095.89999986,757094.088,757110.662,771685.868,771687.0999999,2023-07-10T16:05:05Z,771702.36,NULL,Atmosphäre,angahewa,d,NA,NA,NA,NA,sd,NA,4,NA,NA,NA,NA,NA,NA,NA,NA,NA,NA,NA,NA,NA,NA,NA,NA,NA,NA,NA
38b3c,shallow,flow.Sequence,3_0_4_0_6_1,NA,NA,skipped,NA,771687.20000005,NA,NA,771685.868,771687.29999995,2023-07-10T16:05:05Z,771702.36,NULL,Atmosphäre,angahewa,d,NA,NA,NA,NA,sd,NA,4,NA,NA,NA,NA,NA,NA,NA,NA,NA,NA,NA,NA,NA,NA,NA,NA,NA,NA,NA
38b3c,task,flow.Sequence,3_0_4_0_6,NA,NA,completion,14575.206,757095.89999986,757094.088,757110.662,771685.868,771687.39999986,2023-07-10T16:05:05Z,771702.36,NULL,Atmosphäre,angahewa,d,NA,NA,NA,NA,sd,NA,4,NA,NA,NA,NA,NA,NA,NA,NA,NA,NA,NA,NA,NA,NA,NA,NA,NA,NA,NA
38b3c,deep,flow.Sequence,3_0_4_0_7_0,NA,NA,skipped,NA,771687.5,NA,NA,771685.868,771687.70000005,2023-07-10T16:05:05Z,771702.36,NULL,Erneuerung,ukarabati,s,ushawishi,ukalifu,unyonyaji,NA,sd,NA,4,NA,NA,NA,NA,NA,NA,NA,NA,NA,NA,NA,NA,NA,NA,NA,NA,NA,NA,NA
38b3c,Shallow Question,html.Page,3_0_4_0_7_1_0,NA,NA,form submission,8430.8400000477,771687.70000005,771685.868,771702.36,780133.20000005,780133.5999999,2023-07-10T16:05:13Z,780137.18,NULL,Erneuerung,ukarabati,s,ushawishi,ukalifu,unyonyaji,ukarabati,NA,NA,4,NA,NA,NA,NA,NA,NA,NA,NA,NA,NA,NA,NA,NA,NA,NA,NA,NA,NA,NA
38b3c,"""Richtig""-Screen",canvas.Screen,3_0_4_0_7_1_1,NA,NA,timeout,5005.7139999999,780137.39999986,780120.522,780137.18,785126.287,785127.39999986,2023-07-10T16:05:18Z,785142.894,NULL,Erneuerung,ukarabati,s,ushawishi,ukalifu,unyonyaji,NA,sd,1,4,NA,NA,NA,NA,NA,NA,NA,NA,NA,NA,NA,NA,NA,NA,NA,NA,NA,NA,NA
38b3c,"""Falsch""-Screen",canvas.Screen,3_0_4_0_7_1_2,NA,NA,skipped,NA,785131.0999999,NA,NA,785126.287,785131.20000005,2023-07-10T16:05:18Z,785142.894,NULL,Erneuerung,ukarabati,s,ushawishi,ukalifu,unyonyaji,NA,sd,NA,4,NA,NA,NA,NA,NA,NA,NA,NA,NA,NA,NA,NA,NA,NA,NA,NA,NA,NA,NA
38b3c,shallow,flow.Sequence,3_0_4_0_7_1,NA,NA,completion,13423.927,771687.70000005,771685.868,771702.36,785126.287,785131.5,2023-07-10T16:05:18Z,785142.894,NULL,Erneuerung,ukarabati,s,ushawishi,ukalifu,unyonyaji,NA,sd,NA,4,NA,NA,NA,NA,NA,NA,NA,NA,NA,NA,NA,NA,NA,NA,NA,NA,NA,NA,NA
38b3c,task,flow.Sequence,3_0_4_0_7,NA,NA,completion,13423.927,771687.5,771685.868,771702.36,785126.287,785131.70000005,2023-07-10T16:05:18Z,785142.894,NULL,Erneuerung,ukarabati,s,ushawishi,ukalifu,unyonyaji,NA,sd,NA,4,NA,NA,NA,NA,NA,NA,NA,NA,NA,NA,NA,NA,NA,NA,NA,NA,NA,NA,NA
38b3c,block,flow.Loop,3_0_4_0,NA,NA,completion,124248.798,660885.89999986,660841.047,660877.489,785126.287,785131.89999986,2023-07-10T16:05:18Z,785142.894,NULL,NA,NA,NA,NA,NA,NA,NA,sd,NA,4,NA,NA,NA,NA,NA,NA,NA,NA,NA,NA,NA,NA,NA,NA,NA,NA,NA,NA,NA
38b3c,weiter,canvas.Screen,3_0_4_1,sdf,keypress(Space),response,831.40599995235,785132,785126.287,785142.894,785974.29999995,785975.89999986,2023-07-10T16:05:19Z,786003.059,NULL,NA,NA,NA,NA,NA,NA,NA,sd,NA,4,NA,NA,NA,NA,NA,NA,NA,NA,NA,NA,NA,NA,NA,NA,NA,NA,NA,NA,NA
38b3c,check continue,flow.Sequence,3_0_4,NA,NA,completion,125096.81099995,660885.89999986,660841.047,660877.489,785974.29999995,785976.0999999,2023-07-10T16:05:19Z,786003.059,NULL,NA,NA,NA,NA,NA,NA,NA,sd,NA,4,NA,NA,NA,NA,NA,NA,NA,NA,NA,NA,NA,NA,NA,NA,NA,NA,NA,NA,NA
38b3c,Deep Question,html.Page,3_0_5_0_0_0_0,NA,NA,form submission,15657.641000048,786003,785959.917,786003.059,801660.70000005,801661.0999999,2023-07-10T16:05:35Z,801670.409,NULL,Theorie,nadharia,d,NA,NA,NA,f,NA,NA,5,NA,NA,NA,NA,NA,NA,NA,NA,NA,NA,NA,NA,NA,NA,NA,NA,NA,NA,NA
38b3c,"""Richtig""-Screen",canvas.Screen,3_0_5_0_0_0_1,NA,NA,skipped,NA,801665,NA,NA,801660.70000005,801665.20000005,2023-07-10T16:05:35Z,801670.409,NULL,Theorie,nadharia,d,NA,NA,NA,NA,sdf,NA,5,NA,NA,NA,NA,NA,NA,NA,NA,NA,NA,NA,NA,NA,NA,NA,NA,NA,NA,NA
38b3c,"""Falsch""-Screen",canvas.Screen,3_0_5_0_0_0_2,NA,NA,timeout,4996.524,801666.20000005,801654.063,801670.409,806650.034,806651,2023-07-10T16:05:40Z,806666.933,NULL,Theorie,nadharia,d,NA,NA,NA,NA,sdf,0,5,NA,NA,NA,NA,NA,NA,NA,NA,NA,NA,NA,NA,NA,NA,NA,NA,NA,NA,NA
38b3c,deep,flow.Sequence,3_0_5_0_0_0,NA,NA,completion,20646.975,786003,785959.917,786003.059,806650.034,806651.29999995,2023-07-10T16:05:40Z,806666.933,NULL,Theorie,nadharia,d,NA,NA,NA,NA,sdf,NA,5,NA,NA,NA,NA,NA,NA,NA,NA,NA,NA,NA,NA,NA,NA,NA,NA,NA,NA,NA
38b3c,shallow,flow.Sequence,3_0_5_0_0_1,NA,NA,skipped,NA,806651.29999995,NA,NA,806650.034,806651.39999986,2023-07-10T16:05:40Z,806666.933,NULL,Theorie,nadharia,d,NA,NA,NA,NA,sdf,NA,5,NA,NA,NA,NA,NA,NA,NA,NA,NA,NA,NA,NA,NA,NA,NA,NA,NA,NA,NA
38b3c,task,flow.Sequence,3_0_5_0_0,NA,NA,completion,20646.975,786003,785959.917,786003.059,806650.034,806651.5999999,2023-07-10T16:05:40Z,806666.933,NULL,Theorie,nadharia,d,NA,NA,NA,NA,sdf,NA,5,NA,NA,NA,NA,NA,NA,NA,NA,NA,NA,NA,NA,NA,NA,NA,NA,NA,NA,NA
38b3c,Deep Question,html.Page,3_0_5_0_1_0_0,NA,NA,form submission,6650.7670000477,806651.70000005,806650.034,806666.933,813317.70000005,813318.0999999,2023-07-10T16:05:46Z,813329.892,NULL,Flexibilität,kubadilika,d,NA,NA,NA,f,NA,NA,5,NA,NA,NA,NA,NA,NA,NA,NA,NA,NA,NA,NA,NA,NA,NA,NA,NA,NA,NA
38b3c,"""Richtig""-Screen",canvas.Screen,3_0_5_0_1_0_1,NA,NA,skipped,NA,813322.0999999,NA,NA,813317.70000005,813322.29999995,2023-07-10T16:05:46Z,813329.892,NULL,Flexibilität,kubadilika,d,NA,NA,NA,NA,sdf,NA,5,NA,NA,NA,NA,NA,NA,NA,NA,NA,NA,NA,NA,NA,NA,NA,NA,NA,NA,NA
38b3c,"""Falsch""-Screen",canvas.Screen,3_0_5_0_1_0_2,NA,NA,timeout,5003.624,813323.39999986,813313.493,813329.892,818317.142,818318,2023-07-10T16:05:51Z,818333.516,NULL,Flexibilität,kubadilika,d,NA,NA,NA,NA,sdf,0,5,NA,NA,NA,NA,NA,NA,NA,NA,NA,NA,NA,NA,NA,NA,NA,NA,NA,NA,NA
38b3c,deep,flow.Sequence,3_0_5_0_1_0,NA,NA,completion,11650.209,806651.70000005,806650.034,806666.933,818317.142,818318.39999986,2023-07-10T16:05:51Z,818333.516,NULL,Flexibilität,kubadilika,d,NA,NA,NA,NA,sdf,NA,5,NA,NA,NA,NA,NA,NA,NA,NA,NA,NA,NA,NA,NA,NA,NA,NA,NA,NA,NA
38b3c,shallow,flow.Sequence,3_0_5_0_1_1,NA,NA,skipped,NA,818318.5,NA,NA,818317.142,818318.5999999,2023-07-10T16:05:51Z,818333.516,NULL,Flexibilität,kubadilika,d,NA,NA,NA,NA,sdf,NA,5,NA,NA,NA,NA,NA,NA,NA,NA,NA,NA,NA,NA,NA,NA,NA,NA,NA,NA,NA
38b3c,task,flow.Sequence,3_0_5_0_1,NA,NA,completion,11650.209,806651.5999999,806650.034,806666.933,818317.142,818318.70000005,2023-07-10T16:05:51Z,818333.516,NULL,Flexibilität,kubadilika,d,NA,NA,NA,NA,sdf,NA,5,NA,NA,NA,NA,NA,NA,NA,NA,NA,NA,NA,NA,NA,NA,NA,NA,NA,NA,NA
38b3c,Deep Question,html.Page,3_0_5_0_2_0_0,NA,NA,form submission,12617.583999905,818318.89999986,818317.142,818333.516,830951.0999999,830951.5999999,2023-07-10T16:06:04Z,830968.543,NULL,Atmosphäre,angahewa,d,NA,NA,NA,as,NA,NA,5,NA,NA,NA,NA,NA,NA,NA,NA,NA,NA,NA,NA,NA,NA,NA,NA,NA,NA,NA
38b3c,"""Richtig""-Screen",canvas.Screen,3_0_5_0_2_0_1,NA,NA,skipped,NA,830955.39999986,NA,NA,830951.0999999,830955.5,2023-07-10T16:06:04Z,830968.543,NULL,Atmosphäre,angahewa,d,NA,NA,NA,NA,sdf,NA,5,NA,NA,NA,NA,NA,NA,NA,NA,NA,NA,NA,NA,NA,NA,NA,NA,NA,NA,NA
38b3c,"""Falsch""-Screen",canvas.Screen,3_0_5_0_2_0_2,NA,NA,timeout,5006.645,830956.5999999,830934.392,830968.543,835958.572,835959.5,2023-07-10T16:06:09Z,835975.188,NULL,Atmosphäre,angahewa,d,NA,NA,NA,NA,sdf,0,5,NA,NA,NA,NA,NA,NA,NA,NA,NA,NA,NA,NA,NA,NA,NA,NA,NA,NA,NA
38b3c,deep,flow.Sequence,3_0_5_0_2_0,NA,NA,completion,17625.056,818318.79999995,818317.142,818333.516,835958.572,835959.79999995,2023-07-10T16:06:09Z,835975.188,NULL,Atmosphäre,angahewa,d,NA,NA,NA,NA,sdf,NA,5,NA,NA,NA,NA,NA,NA,NA,NA,NA,NA,NA,NA,NA,NA,NA,NA,NA,NA,NA
38b3c,shallow,flow.Sequence,3_0_5_0_2_1,NA,NA,skipped,NA,835959.89999986,NA,NA,835958.572,835960,2023-07-10T16:06:09Z,835975.188,NULL,Atmosphäre,angahewa,d,NA,NA,NA,NA,sdf,NA,5,NA,NA,NA,NA,NA,NA,NA,NA,NA,NA,NA,NA,NA,NA,NA,NA,NA,NA,NA
38b3c,task,flow.Sequence,3_0_5_0_2,NA,NA,completion,17625.056,818318.79999995,818317.142,818333.516,835958.572,835960.20000005,2023-07-10T16:06:09Z,835975.188,NULL,Atmosphäre,angahewa,d,NA,NA,NA,NA,sdf,NA,5,NA,NA,NA,NA,NA,NA,NA,NA,NA,NA,NA,NA,NA,NA,NA,NA,NA,NA,NA
38b3c,deep,flow.Sequence,3_0_5_0_3_0,NA,NA,skipped,NA,835960.29999995,NA,NA,835958.572,835960.39999986,2023-07-10T16:06:09Z,835975.188,NULL,Erneuerung,ukarabati,s,ushawishi,ukalifu,unyonyaji,NA,sdf,NA,5,NA,NA,NA,NA,NA,NA,NA,NA,NA,NA,NA,NA,NA,NA,NA,NA,NA,NA,NA
38b3c,Shallow Question,html.Page,3_0_5_0_3_1_0,NA,NA,form submission,7811.4119999047,835960.39999986,835958.572,835975.188,843786.5999999,843786.79999995,2023-07-10T16:06:17Z,843798.236,NULL,Erneuerung,ukarabati,s,ushawishi,ukalifu,unyonyaji,ukarabati,NA,NA,5,NA,NA,NA,NA,NA,NA,NA,NA,NA,NA,NA,NA,NA,NA,NA,NA,NA,NA,NA
38b3c,"""Richtig""-Screen",canvas.Screen,3_0_5_0_3_1_1,NA,NA,timeout,5001.002,843790.5999999,843781.619,843798.236,848782.67,848783.5,2023-07-10T16:06:22Z,848799.238,NULL,Erneuerung,ukarabati,s,ushawishi,ukalifu,unyonyaji,NA,sdf,1,5,NA,NA,NA,NA,NA,NA,NA,NA,NA,NA,NA,NA,NA,NA,NA,NA,NA,NA,NA
38b3c,"""Falsch""-Screen",canvas.Screen,3_0_5_0_3_1_2,NA,NA,skipped,NA,848787.20000005,NA,NA,848782.67,848787.29999995,2023-07-10T16:06:22Z,848799.238,NULL,Erneuerung,ukarabati,s,ushawishi,ukalifu,unyonyaji,NA,sdf,NA,5,NA,NA,NA,NA,NA,NA,NA,NA,NA,NA,NA,NA,NA,NA,NA,NA,NA,NA,NA
38b3c,shallow,flow.Sequence,3_0_5_0_3_1,NA,NA,completion,12807.482,835960.39999986,835958.572,835975.188,848782.67,848787.5,2023-07-10T16:06:22Z,848799.238,NULL,Erneuerung,ukarabati,s,ushawishi,ukalifu,unyonyaji,NA,sdf,NA,5,NA,NA,NA,NA,NA,NA,NA,NA,NA,NA,NA,NA,NA,NA,NA,NA,NA,NA,NA
38b3c,task,flow.Sequence,3_0_5_0_3,NA,NA,completion,12807.482,835960.29999995,835958.572,835975.188,848782.67,848787.5999999,2023-07-10T16:06:22Z,848799.238,NULL,Erneuerung,ukarabati,s,ushawishi,ukalifu,unyonyaji,NA,sdf,NA,5,NA,NA,NA,NA,NA,NA,NA,NA,NA,NA,NA,NA,NA,NA,NA,NA,NA,NA,NA
38b3c,Deep Question,html.Page,3_0_5_0_4_0_0,NA,NA,form submission,7488.8619999046,848787.79999995,848782.67,848799.238,856288.0999999,856288.20000005,2023-07-10T16:06:29Z,856299.127,NULL,Schock,mshtuko,d,NA,NA,NA,mshtuko,NA,NA,5,NA,NA,NA,NA,NA,NA,NA,NA,NA,NA,NA,NA,NA,NA,NA,NA,NA,NA,NA
38b3c,"""Richtig""-Screen",canvas.Screen,3_0_5_0_4_0_1,NA,NA,timeout,5001.7270000001,856289.79999995,856282.539,856299.127,861284.183,861285.0999999,2023-07-10T16:06:34Z,861300.854,NULL,Schock,mshtuko,d,NA,NA,NA,NA,sdf,1,5,NA,NA,NA,NA,NA,NA,NA,NA,NA,NA,NA,NA,NA,NA,NA,NA,NA,NA,NA
38b3c,"""Falsch""-Screen",canvas.Screen,3_0_5_0_4_0_2,NA,NA,skipped,NA,861288.70000005,NA,NA,861284.183,861288.89999986,2023-07-10T16:06:34Z,861300.854,NULL,Schock,mshtuko,d,NA,NA,NA,NA,sdf,NA,5,NA,NA,NA,NA,NA,NA,NA,NA,NA,NA,NA,NA,NA,NA,NA,NA,NA,NA,NA
38b3c,deep,flow.Sequence,3_0_5_0_4_0,NA,NA,completion,12484.945,848787.79999995,848782.67,848799.238,861284.183,861289.0999999,2023-07-10T16:06:34Z,861300.854,NULL,Schock,mshtuko,d,NA,NA,NA,NA,sdf,NA,5,NA,NA,NA,NA,NA,NA,NA,NA,NA,NA,NA,NA,NA,NA,NA,NA,NA,NA,NA
38b3c,shallow,flow.Sequence,3_0_5_0_4_1,NA,NA,skipped,NA,861289.20000005,NA,NA,861284.183,861289.20000005,2023-07-10T16:06:34Z,861300.854,NULL,Schock,mshtuko,d,NA,NA,NA,NA,sdf,NA,5,NA,NA,NA,NA,NA,NA,NA,NA,NA,NA,NA,NA,NA,NA,NA,NA,NA,NA,NA
38b3c,task,flow.Sequence,3_0_5_0_4,NA,NA,completion,12484.945,848787.70000005,848782.67,848799.238,861284.183,861289.39999986,2023-07-10T16:06:34Z,861300.854,NULL,Schock,mshtuko,d,NA,NA,NA,NA,sdf,NA,5,NA,NA,NA,NA,NA,NA,NA,NA,NA,NA,NA,NA,NA,NA,NA,NA,NA,NA,NA
38b3c,deep,flow.Sequence,3_0_5_0_5_0,NA,NA,skipped,NA,861289.39999986,NA,NA,861284.183,861289.5,2023-07-10T16:06:34Z,861300.854,NULL,Hoffnung,matarajio,s,kutaalamika,uratibu,mvumbuzi,NA,sdf,NA,5,NA,NA,NA,NA,NA,NA,NA,NA,NA,NA,NA,NA,NA,NA,NA,NA,NA,NA,NA
38b3c,Shallow Question,html.Page,3_0_5_0_5_1_0,NA,NA,form submission,5512.9459999523,861289.5999999,861284.183,861300.854,866813.79999995,866814.39999986,2023-07-10T16:06:40Z,866829.169,NULL,Hoffnung,matarajio,s,kutaalamika,uratibu,mvumbuzi,matarajio,NA,NA,5,NA,NA,NA,NA,NA,NA,NA,NA,NA,NA,NA,NA,NA,NA,NA,NA,NA,NA,NA
38b3c,"""Richtig""-Screen",canvas.Screen,3_0_5_0_5_1_1,NA,NA,timeout,5002.743,866818,866812.635,866829.169,871815.469,871816.39999986,2023-07-10T16:06:45Z,871831.912,NULL,Hoffnung,matarajio,s,kutaalamika,uratibu,mvumbuzi,NA,sdf,1,5,NA,NA,NA,NA,NA,NA,NA,NA,NA,NA,NA,NA,NA,NA,NA,NA,NA,NA,NA
38b3c,"""Falsch""-Screen",canvas.Screen,3_0_5_0_5_1_2,NA,NA,skipped,NA,871820.39999986,NA,NA,871815.469,871820.5,2023-07-10T16:06:45Z,871831.912,NULL,Hoffnung,matarajio,s,kutaalamika,uratibu,mvumbuzi,NA,sdf,NA,5,NA,NA,NA,NA,NA,NA,NA,NA,NA,NA,NA,NA,NA,NA,NA,NA,NA,NA,NA
38b3c,shallow,flow.Sequence,3_0_5_0_5_1,NA,NA,completion,10514.615,861289.5999999,861284.183,861300.854,871815.469,871820.70000005,2023-07-10T16:06:45Z,871831.912,NULL,Hoffnung,matarajio,s,kutaalamika,uratibu,mvumbuzi,NA,sdf,NA,5,NA,NA,NA,NA,NA,NA,NA,NA,NA,NA,NA,NA,NA,NA,NA,NA,NA,NA,NA
38b3c,task,flow.Sequence,3_0_5_0_5,NA,NA,completion,10514.615,861289.39999986,861284.183,861300.854,871815.469,871820.89999986,2023-07-10T16:06:45Z,871831.912,NULL,Hoffnung,matarajio,s,kutaalamika,uratibu,mvumbuzi,NA,sdf,NA,5,NA,NA,NA,NA,NA,NA,NA,NA,NA,NA,NA,NA,NA,NA,NA,NA,NA,NA,NA
38b3c,deep,flow.Sequence,3_0_5_0_6_0,NA,NA,skipped,NA,871821,NA,NA,871815.469,871821.0999999,2023-07-10T16:06:45Z,871831.912,NULL,Verpackung,ufungaji,s,uhusiano,upimaji,uchunguzi,NA,sdf,NA,5,NA,NA,NA,NA,NA,NA,NA,NA,NA,NA,NA,NA,NA,NA,NA,NA,NA,NA,NA
38b3c,Shallow Question,html.Page,3_0_5_0_6_1_0,NA,NA,form submission,5075.2880000477,871821.20000005,871815.469,871831.912,876907.20000005,876907.5,2023-07-10T16:06:50Z,876908.953,NULL,Verpackung,ufungaji,s,uhusiano,upimaji,uchunguzi,ufungaji,NA,NA,5,NA,NA,NA,NA,NA,NA,NA,NA,NA,NA,NA,NA,NA,NA,NA,NA,NA,NA,NA
38b3c,"""Richtig""-Screen",canvas.Screen,3_0_5_0_6_1_1,NA,NA,timeout,5006.167,876911.29999995,876892.431,876908.953,881898.477,881899.39999986,2023-07-10T16:06:55Z,881915.12,NULL,Verpackung,ufungaji,s,uhusiano,upimaji,uchunguzi,NA,sdf,1,5,NA,NA,NA,NA,NA,NA,NA,NA,NA,NA,NA,NA,NA,NA,NA,NA,NA,NA,NA
38b3c,"""Falsch""-Screen",canvas.Screen,3_0_5_0_6_1_2,NA,NA,skipped,NA,881903.0999999,NA,NA,881898.477,881903.39999986,2023-07-10T16:06:55Z,881915.12,NULL,Verpackung,ufungaji,s,uhusiano,upimaji,uchunguzi,NA,sdf,NA,5,NA,NA,NA,NA,NA,NA,NA,NA,NA,NA,NA,NA,NA,NA,NA,NA,NA,NA,NA
38b3c,shallow,flow.Sequence,3_0_5_0_6_1,NA,NA,completion,10066.565,871821.0999999,871815.469,871831.912,881898.477,881903.5,2023-07-10T16:06:55Z,881915.12,NULL,Verpackung,ufungaji,s,uhusiano,upimaji,uchunguzi,NA,sdf,NA,5,NA,NA,NA,NA,NA,NA,NA,NA,NA,NA,NA,NA,NA,NA,NA,NA,NA,NA,NA
38b3c,task,flow.Sequence,3_0_5_0_6,NA,NA,completion,10066.565,871821,871815.469,871831.912,881898.477,881903.5999999,2023-07-10T16:06:55Z,881915.12,NULL,Verpackung,ufungaji,s,uhusiano,upimaji,uchunguzi,NA,sdf,NA,5,NA,NA,NA,NA,NA,NA,NA,NA,NA,NA,NA,NA,NA,NA,NA,NA,NA,NA,NA
38b3c,deep,flow.Sequence,3_0_5_0_7_0,NA,NA,skipped,NA,881903.79999995,NA,NA,881898.477,881903.79999995,2023-07-10T16:06:55Z,881915.12,NULL,Wechsel,ugeuzaji,s,utambulisho,kujenga,wasiwasi,NA,sdf,NA,5,NA,NA,NA,NA,NA,NA,NA,NA,NA,NA,NA,NA,NA,NA,NA,NA,NA,NA,NA
38b3c,Shallow Question,html.Page,3_0_5_0_7_1_0,NA,NA,form submission,6218.5800000477,881904,881898.477,881915.12,888133.70000005,888133.89999986,2023-07-10T16:07:01Z,888151.128,NULL,Wechsel,ugeuzaji,s,utambulisho,kujenga,wasiwasi,kujenga,NA,NA,5,NA,NA,NA,NA,NA,NA,NA,NA,NA,NA,NA,NA,NA,NA,NA,NA,NA,NA,NA
38b3c,"""Richtig""-Screen",canvas.Screen,3_0_5_0_7_1_1,NA,NA,skipped,NA,888137.5,NA,NA,888133.70000005,888137.70000005,2023-07-10T16:07:01Z,888151.128,NULL,Wechsel,ugeuzaji,s,utambulisho,kujenga,wasiwasi,NA,sdf,NA,5,NA,NA,NA,NA,NA,NA,NA,NA,NA,NA,NA,NA,NA,NA,NA,NA,NA,NA,NA
38b3c,"""Falsch""-Screen",canvas.Screen,3_0_5_0_7_1_2,NA,NA,timeout,4998.677,888138.5999999,888116.824,888151.128,893132.963,893133.89999986,2023-07-10T16:07:06Z,893149.805,NULL,Wechsel,ugeuzaji,s,utambulisho,kujenga,wasiwasi,NA,sdf,0,5,NA,NA,NA,NA,NA,NA,NA,NA,NA,NA,NA,NA,NA,NA,NA,NA,NA,NA,NA
38b3c,shallow,flow.Sequence,3_0_5_0_7_1,NA,NA,completion,11217.843,881903.79999995,881898.477,881915.12,893132.963,893134.29999995,2023-07-10T16:07:06Z,893149.805,NULL,Wechsel,ugeuzaji,s,utambulisho,kujenga,wasiwasi,NA,sdf,NA,5,NA,NA,NA,NA,NA,NA,NA,NA,NA,NA,NA,NA,NA,NA,NA,NA,NA,NA,NA
38b3c,task,flow.Sequence,3_0_5_0_7,NA,NA,completion,11217.843,881903.70000005,881898.477,881915.12,893132.963,893134.29999995,2023-07-10T16:07:06Z,893149.805,NULL,Wechsel,ugeuzaji,s,utambulisho,kujenga,wasiwasi,NA,sdf,NA,5,NA,NA,NA,NA,NA,NA,NA,NA,NA,NA,NA,NA,NA,NA,NA,NA,NA,NA,NA
38b3c,block,flow.Loop,3_0_5_0,NA,NA,completion,107129.904,786003,785959.917,786003.059,893132.963,893134.5999999,2023-07-10T16:07:06Z,893149.805,NULL,NA,NA,NA,NA,NA,NA,NA,sdf,NA,5,NA,NA,NA,NA,NA,NA,NA,NA,NA,NA,NA,NA,NA,NA,NA,NA,NA,NA,NA
38b3c,weiter,canvas.Screen,3_0_5_1,sdf,keypress(Space),response,876.0949998569,893134.5999999,893132.963,893149.805,894025.89999986,894029.5999999,2023-07-10T16:07:07Z,894054.823,NULL,NA,NA,NA,NA,NA,NA,NA,sdf,NA,5,NA,NA,NA,NA,NA,NA,NA,NA,NA,NA,NA,NA,NA,NA,NA,NA,NA,NA,NA
38b3c,check continue,flow.Sequence,3_0_5,NA,NA,completion,108022.84099986,786003,785959.917,786003.059,894025.89999986,894029.79999995,2023-07-10T16:07:07Z,894054.823,NULL,NA,NA,NA,NA,NA,NA,NA,sdf,NA,5,NA,NA,NA,NA,NA,NA,NA,NA,NA,NA,NA,NA,NA,NA,NA,NA,NA,NA,NA
38b3c,deep,flow.Sequence,3_0_6_0_0_0,NA,NA,skipped,NA,894063.79999995,NA,NA,894025.89999986,894063.89999986,2023-07-10T16:07:07Z,894054.823,NULL,Verpackung,ufungaji,s,uhusiano,upimaji,uchunguzi,NA,dfs,NA,6,NA,NA,NA,NA,NA,NA,NA,NA,NA,NA,NA,NA,NA,NA,NA,NA,NA,NA,NA
38b3c,Shallow Question,html.Page,3_0_6_0_0_1_0,NA,NA,form submission,7737.8770000477,894064,894016.32,894054.823,901792.70000005,901793,2023-07-10T16:07:15Z,901803.415,NULL,Verpackung,ufungaji,s,uhusiano,upimaji,uchunguzi,ufungaji,NA,NA,6,NA,NA,NA,NA,NA,NA,NA,NA,NA,NA,NA,NA,NA,NA,NA,NA,NA,NA,NA
38b3c,"""Richtig""-Screen",canvas.Screen,3_0_6_0_0_1_1,NA,NA,timeout,4995.3339999999,901796.79999995,901786.645,901803.415,906782.337,906783.39999986,2023-07-10T16:07:20Z,906798.749,NULL,Verpackung,ufungaji,s,uhusiano,upimaji,uchunguzi,NA,dfs,1,6,NA,NA,NA,NA,NA,NA,NA,NA,NA,NA,NA,NA,NA,NA,NA,NA,NA,NA,NA
38b3c,"""Falsch""-Screen",canvas.Screen,3_0_6_0_0_1_2,NA,NA,skipped,NA,906787,NA,NA,906782.337,906787.20000005,2023-07-10T16:07:20Z,906798.749,NULL,Verpackung,ufungaji,s,uhusiano,upimaji,uchunguzi,NA,dfs,NA,6,NA,NA,NA,NA,NA,NA,NA,NA,NA,NA,NA,NA,NA,NA,NA,NA,NA,NA,NA
38b3c,shallow,flow.Sequence,3_0_6_0_0_1,NA,NA,completion,12727.514,894064,894016.32,894054.823,906782.337,906787.39999986,2023-07-10T16:07:20Z,906798.749,NULL,Verpackung,ufungaji,s,uhusiano,upimaji,uchunguzi,NA,dfs,NA,6,NA,NA,NA,NA,NA,NA,NA,NA,NA,NA,NA,NA,NA,NA,NA,NA,NA,NA,NA
38b3c,task,flow.Sequence,3_0_6_0_0,NA,NA,completion,12727.514,894063.79999995,894016.32,894054.823,906782.337,906787.5,2023-07-10T16:07:20Z,906798.749,NULL,Verpackung,ufungaji,s,uhusiano,upimaji,uchunguzi,NA,dfs,NA,6,NA,NA,NA,NA,NA,NA,NA,NA,NA,NA,NA,NA,NA,NA,NA,NA,NA,NA,NA
38b3c,Deep Question,html.Page,3_0_6_0_1_0_0,NA,NA,form submission,15687.850999905,906787.5999999,906782.337,906798.749,922486.5999999,922487.0999999,2023-07-10T16:07:35Z,922498.558,NULL,Flexibilität,kubadilika,d,NA,NA,NA,kk,NA,NA,6,NA,NA,NA,NA,NA,NA,NA,NA,NA,NA,NA,NA,NA,NA,NA,NA,NA,NA,NA
38b3c,"""Richtig""-Screen",canvas.Screen,3_0_6_0_1_0_1,NA,NA,skipped,NA,922490.89999986,NA,NA,922486.5999999,922491.20000005,2023-07-10T16:07:35Z,922498.558,NULL,Flexibilität,kubadilika,d,NA,NA,NA,NA,dfs,NA,6,NA,NA,NA,NA,NA,NA,NA,NA,NA,NA,NA,NA,NA,NA,NA,NA,NA,NA,NA
38b3c,"""Falsch""-Screen",canvas.Screen,3_0_6_0_1_0_2,NA,NA,timeout,4996.429,922492.0999999,922481.99,922498.558,927478.326,927479.39999986,2023-07-10T16:07:40Z,927494.987,NULL,Flexibilität,kubadilika,d,NA,NA,NA,NA,dfs,0,6,NA,NA,NA,NA,NA,NA,NA,NA,NA,NA,NA,NA,NA,NA,NA,NA,NA,NA,NA
38b3c,deep,flow.Sequence,3_0_6_0_1_0,NA,NA,completion,20679.577,906787.5999999,906782.337,906798.749,927478.326,927479.70000005,2023-07-10T16:07:40Z,927494.987,NULL,Flexibilität,kubadilika,d,NA,NA,NA,NA,dfs,NA,6,NA,NA,NA,NA,NA,NA,NA,NA,NA,NA,NA,NA,NA,NA,NA,NA,NA,NA,NA
38b3c,shallow,flow.Sequence,3_0_6_0_1_1,NA,NA,skipped,NA,927479.79999995,NA,NA,927478.326,927479.89999986,2023-07-10T16:07:40Z,927494.987,NULL,Flexibilität,kubadilika,d,NA,NA,NA,NA,dfs,NA,6,NA,NA,NA,NA,NA,NA,NA,NA,NA,NA,NA,NA,NA,NA,NA,NA,NA,NA,NA
38b3c,task,flow.Sequence,3_0_6_0_1,NA,NA,completion,20679.577,906787.5999999,906782.337,906798.749,927478.326,927480,2023-07-10T16:07:40Z,927494.987,NULL,Flexibilität,kubadilika,d,NA,NA,NA,NA,dfs,NA,6,NA,NA,NA,NA,NA,NA,NA,NA,NA,NA,NA,NA,NA,NA,NA,NA,NA,NA,NA
38b3c,deep,flow.Sequence,3_0_6_0_2_0,NA,NA,skipped,NA,927480.0999999,NA,NA,927478.326,927480.20000005,2023-07-10T16:07:40Z,927494.987,NULL,Hoffnung,matarajio,s,kutaalamika,uratibu,mvumbuzi,NA,dfs,NA,6,NA,NA,NA,NA,NA,NA,NA,NA,NA,NA,NA,NA,NA,NA,NA,NA,NA,NA,NA
