observation,sender,sender_type,sender_id,response,response_action,ended_on,duration,time_run,time_render,time_show,time_end,time_commit,timestamp,time_switch,distractors,german,swahili,enc,distractor1,distractor2,distractor3,response_2,x,correct,x_2,url_vp,url_sess,meta_labjs_version,meta_location,meta_user_agent,meta_platform,meta_language,meta_locale,meta_time_zone,meta_timezone_offset,meta_screen_width,meta_screen_height,meta_scroll_width,meta_scroll_height,meta_window_inner_width,meta_window_inner_height,meta_device_pixel_ratio,meta_labjs_build_flavor,meta_labjs_build_commit
3090d,Introduction general,canvas.Screen,0,weiter,keypress(q),response,2083724.733,1302,992.844,1342.467,2085067.2,2085077.2,2023-06-02T16:28:45Z,2085086.84,NULL,NA,NA,NA,NA,NA,NA,NA,NA,NA,NA,215,3,20.2.4,https://neurocog.fernuni.ch/studies/vweber/sfink/encoding_immediate/index.html?vp=215&sess=3,"Mozilla/5.0 (Windows NT 10.0; Win64; x64) AppleWebKit/537.36 (KHTML, like Gecko) Chrome/113.0.0.0 Safari/537.36",Win32,de-CH,de,Europe/Zurich,-120,1536,864,1536,706,1536,754,1.25,production,f5b4a49f956347addd546a832a3327688c2c0fef
3090d,Introduction practice,canvas.Screen,1_0,NA,keypress(Space),response,24302.260000143,2085078,2085053.038,2085086.84,2109389.1000001,2109390.2,2023-06-02T16:29:10Z,2109413.854,NULL,NA,NA,NA,NA,NA,NA,NA,NA,NA,NA,NA,NA,NA,NA,NA,NA,NA,NA,NA,NA,NA,NA,NA,NA,NA,NA,NA,NA,NA
3090d,Deep Question,html.Page,1_1_0_0_0,NA,NA,form submission,10003.646,2109390.7,2109387.761,2109413.854,2119417.5,2119417.8000002,2023-06-02T16:29:20Z,2119436.076,"c(""distractor1"", ""distractor2"", ""distractor3"")",Qualität,mtindo,d,NA,NA,NA,b,NA,NA,NA,NA,NA,NA,NA,NA,NA,NA,NA,NA,NA,NA,NA,NA,NA,NA,NA,NA,NA,NA
3090d,"""Richtig""-Screen",canvas.Screen,1_1_0_0_1,NA,NA,skipped,NA,2119418.9000001,NA,NA,2119417.5,2119419.1000001,2023-06-02T16:29:20Z,2119436.076,"c(""distractor1"", ""distractor2"", ""distractor3"")",Qualität,mtindo,d,NA,NA,NA,NA,NA,NA,NA,NA,NA,NA,NA,NA,NA,NA,NA,NA,NA,NA,NA,NA,NA,NA,NA,NA,NA,NA
3090d,"""Falsch""-Screen",canvas.Screen,1_1_0_0_2,NA,NA,timeout,4999.736,2119420.1000001,2119407.144,2119436.076,2124419.399,2124425.2,2023-06-02T16:29:25Z,2124435.812,"c(""distractor1"", ""distractor2"", ""distractor3"")",Qualität,mtindo,d,NA,NA,NA,NA,NA,0,NA,NA,NA,NA,NA,NA,NA,NA,NA,NA,NA,NA,NA,NA,NA,NA,NA,NA,NA,NA
3090d,deep,flow.Sequence,1_1_0_0,NA,NA,completion,15005.545,2109390.7,2109387.761,2109413.854,2124419.399,2124426.3000002,2023-06-02T16:29:25Z,2124435.812,"c(""distractor1"", ""distractor2"", ""distractor3"")",Qualität,mtindo,d,NA,NA,NA,NA,NA,NA,NA,NA,NA,NA,NA,NA,NA,NA,NA,NA,NA,NA,NA,NA,NA,NA,NA,NA,NA,NA
3090d,shallow,flow.Sequence,1_1_0_1,NA,NA,skipped,NA,2124426.7,NA,NA,2124419.399,2124426.9000001,2023-06-02T16:29:25Z,2124435.812,"c(""distractor1"", ""distractor2"", ""distractor3"")",Qualität,mtindo,d,NA,NA,NA,NA,NA,NA,NA,NA,NA,NA,NA,NA,NA,NA,NA,NA,NA,NA,NA,NA,NA,NA,NA,NA,NA,NA
3090d,task,flow.Sequence,1_1_0,NA,NA,completion,15005.545,2109390.6000001,2109387.761,2109413.854,2124419.399,2124427.3000002,2023-06-02T16:29:25Z,2124435.812,"c(""distractor1"", ""distractor2"", ""distractor3"")",Qualität,mtindo,d,NA,NA,NA,NA,NA,NA,NA,NA,NA,NA,NA,NA,NA,NA,NA,NA,NA,NA,NA,NA,NA,NA,NA,NA,NA,NA
3090d,Deep Question,html.Page,1_1_1_0_0,NA,NA,form submission,6210.0880000954,2124427.6000001,2124419.399,2124435.812,2130645.9000001,2130646.2,2023-06-02T16:29:31Z,2130666.249,"c(""distractor1"", ""distractor2"", ""distractor3"")",Gesundheit,salama,d,NA,NA,NA,n,NA,NA,NA,NA,NA,NA,NA,NA,NA,NA,NA,NA,NA,NA,NA,NA,NA,NA,NA,NA,NA,NA
3090d,"""Richtig""-Screen",canvas.Screen,1_1_1_0_1,NA,NA,skipped,NA,2130648.4000001,NA,NA,2130645.9000001,2130648.6000001,2023-06-02T16:29:31Z,2130666.249,"c(""distractor1"", ""distractor2"", ""distractor3"")",Gesundheit,salama,d,NA,NA,NA,NA,NA,NA,NA,NA,NA,NA,NA,NA,NA,NA,NA,NA,NA,NA,NA,NA,NA,NA,NA,NA,NA,NA
3090d,"""Falsch""-Screen",canvas.Screen,1_1_1_0_2,NA,NA,timeout,4995.5630000001,2130649.6000001,2130641.715,2130666.249,2135645.166,2135651.6000001,2023-06-02T16:29:36Z,2135661.812,"c(""distractor1"", ""distractor2"", ""distractor3"")",Gesundheit,salama,d,NA,NA,NA,NA,NA,0,NA,NA,NA,NA,NA,NA,NA,NA,NA,NA,NA,NA,NA,NA,NA,NA,NA,NA,NA,NA
3090d,deep,flow.Sequence,1_1_1_0,NA,NA,completion,11209.354,2124427.6000001,2124419.399,2124435.812,2135645.166,2135652.2,2023-06-02T16:29:36Z,2135661.812,"c(""distractor1"", ""distractor2"", ""distractor3"")",Gesundheit,salama,d,NA,NA,NA,NA,NA,NA,NA,NA,NA,NA,NA,NA,NA,NA,NA,NA,NA,NA,NA,NA,NA,NA,NA,NA,NA,NA
3090d,shallow,flow.Sequence,1_1_1_1,NA,NA,skipped,NA,2135652.5,NA,NA,2135645.166,2135652.7,2023-06-02T16:29:36Z,2135661.812,"c(""distractor1"", ""distractor2"", ""distractor3"")",Gesundheit,salama,d,NA,NA,NA,NA,NA,NA,NA,NA,NA,NA,NA,NA,NA,NA,NA,NA,NA,NA,NA,NA,NA,NA,NA,NA,NA,NA
3090d,task,flow.Sequence,1_1_1,NA,NA,completion,11209.354,2124427.5,2124419.399,2124435.812,2135645.166,2135653.1000001,2023-06-02T16:29:36Z,2135661.812,"c(""distractor1"", ""distractor2"", ""distractor3"")",Gesundheit,salama,d,NA,NA,NA,NA,NA,NA,NA,NA,NA,NA,NA,NA,NA,NA,NA,NA,NA,NA,NA,NA,NA,NA,NA,NA,NA,NA
3090d,Deep Question,html.Page,1_1_2_0_0,NA,NA,form submission,4618.2880001431,2135653.5,2135645.166,2135661.812,2140280.1000001,2140280.4000001,2023-06-02T16:29:40Z,2140281.938,"c(""distractor1"", ""distractor2"", ""distractor3"")",Schatten,kivuli,d,NA,NA,NA,j,NA,NA,NA,NA,NA,NA,NA,NA,NA,NA,NA,NA,NA,NA,NA,NA,NA,NA,NA,NA,NA,NA
3090d,"""Richtig""-Screen",canvas.Screen,1_1_2_0_1,NA,NA,skipped,NA,2140282.8000002,NA,NA,2140280.1000001,2140283.1000001,2023-06-02T16:29:40Z,2140281.938,"c(""distractor1"", ""distractor2"", ""distractor3"")",Schatten,kivuli,d,NA,NA,NA,NA,NA,NA,NA,NA,NA,NA,NA,NA,NA,NA,NA,NA,NA,NA,NA,NA,NA,NA,NA,NA,NA,NA
3090d,"""Falsch""-Screen",canvas.Screen,1_1_2_0_2,NA,NA,timeout,4999.5830000001,2140284.1000001,2140277.571,2140281.938,2145265.506,2145266.6000001,2023-06-02T16:29:45Z,2145281.521,"c(""distractor1"", ""distractor2"", ""distractor3"")",Schatten,kivuli,d,NA,NA,NA,NA,NA,0,NA,NA,NA,NA,NA,NA,NA,NA,NA,NA,NA,NA,NA,NA,NA,NA,NA,NA,NA,NA
3090d,deep,flow.Sequence,1_1_2_0,NA,NA,completion,9603.6940000001,2135653.4000001,2135645.166,2135661.812,2145265.506,2145267.2,2023-06-02T16:29:45Z,2145281.521,"c(""distractor1"", ""distractor2"", ""distractor3"")",Schatten,kivuli,d,NA,NA,NA,NA,NA,NA,NA,NA,NA,NA,NA,NA,NA,NA,NA,NA,NA,NA,NA,NA,NA,NA,NA,NA,NA,NA
3090d,shallow,flow.Sequence,1_1_2_1,NA,NA,skipped,NA,2145267.2,NA,NA,2145265.506,2145267.5,2023-06-02T16:29:45Z,2145281.521,"c(""distractor1"", ""distractor2"", ""distractor3"")",Schatten,kivuli,d,NA,NA,NA,NA,NA,NA,NA,NA,NA,NA,NA,NA,NA,NA,NA,NA,NA,NA,NA,NA,NA,NA,NA,NA,NA,NA
3090d,task,flow.Sequence,1_1_2,NA,NA,completion,9603.6940000001,2135653.4000001,2135645.166,2135661.812,2145265.506,2145267.7,2023-06-02T16:29:45Z,2145281.521,"c(""distractor1"", ""distractor2"", ""distractor3"")",Schatten,kivuli,d,NA,NA,NA,NA,NA,NA,NA,NA,NA,NA,NA,NA,NA,NA,NA,NA,NA,NA,NA,NA,NA,NA,NA,NA,NA,NA
3090d,deep,flow.Sequence,1_1_3_0,NA,NA,skipped,NA,2145268,NA,NA,2145265.506,2145268.2,2023-06-02T16:29:45Z,2145281.521,"c(""distractor1"", ""distractor2"", ""distractor3"")",Kritik,lawama,s,dereva,nafasi,mawazo,NA,NA,NA,NA,NA,NA,NA,NA,NA,NA,NA,NA,NA,NA,NA,NA,NA,NA,NA,NA,NA,NA,NA
3090d,Shallow Question,html.Page,1_1_3_1_0,NA,NA,form submission,8785.2790001906,2145268.4000001,2145265.506,2145281.521,2154066.8000002,2154066.9000001,2023-06-02T16:29:54Z,2154069.864,"c(""distractor1"", ""distractor2"", ""distractor3"")",Kritik,lawama,s,dereva,nafasi,mawazo,nafasi,NA,NA,NA,NA,NA,NA,NA,NA,NA,NA,NA,NA,NA,NA,NA,NA,NA,NA,NA,NA,NA,NA
3090d,"""Richtig""-Screen",canvas.Screen,1_1_3_1_1,NA,NA,skipped,NA,2154068.8000002,NA,NA,2154066.8000002,2154068.9000001,2023-06-02T16:29:54Z,2154069.864,"c(""distractor1"", ""distractor2"", ""distractor3"")",Kritik,lawama,s,dereva,nafasi,mawazo,NA,NA,NA,NA,NA,NA,NA,NA,NA,NA,NA,NA,NA,NA,NA,NA,NA,NA,NA,NA,NA,NA,NA
3090d,"""Falsch""-Screen",canvas.Screen,1_1_3_1_2,NA,NA,timeout,5003.8640000001,2154069.6000001,2154051.893,2154069.864,2159057.519,2159058.6000001,2023-06-02T16:29:59Z,2159073.728,"c(""distractor1"", ""distractor2"", ""distractor3"")",Kritik,lawama,s,dereva,nafasi,mawazo,NA,NA,0,NA,NA,NA,NA,NA,NA,NA,NA,NA,NA,NA,NA,NA,NA,NA,NA,NA,NA,NA,NA
3090d,shallow,flow.Sequence,1_1_3_1,NA,NA,completion,13775.998,2145268.2,2145265.506,2145281.521,2159057.519,2159059.1000001,2023-06-02T16:29:59Z,2159073.728,"c(""distractor1"", ""distractor2"", ""distractor3"")",Kritik,lawama,s,dereva,nafasi,mawazo,NA,NA,NA,NA,NA,NA,NA,NA,NA,NA,NA,NA,NA,NA,NA,NA,NA,NA,NA,NA,NA,NA,NA
3090d,task,flow.Sequence,1_1_3,NA,NA,completion,13775.998,2145267.9000001,2145265.506,2145281.521,2159057.519,2159059.5,2023-06-02T16:29:59Z,2159073.728,"c(""distractor1"", ""distractor2"", ""distractor3"")",Kritik,lawama,s,dereva,nafasi,mawazo,NA,NA,NA,NA,NA,NA,NA,NA,NA,NA,NA,NA,NA,NA,NA,NA,NA,NA,NA,NA,NA,NA,NA
3090d,deep,flow.Sequence,1_1_4_0,NA,NA,skipped,NA,2159059.7,NA,NA,2159057.519,2159059.8000002,2023-06-02T16:29:59Z,2159073.728,"c(""distractor1"", ""distractor2"", ""distractor3"")",Rückhalt,msaada,s,muhula,auwali,kiwimbe,NA,NA,NA,NA,NA,NA,NA,NA,NA,NA,NA,NA,NA,NA,NA,NA,NA,NA,NA,NA,NA,NA,NA
3090d,Shallow Question,html.Page,1_1_4_1_0,NA,NA,form submission,6539.6720000952,2159060,2159057.519,2159073.728,2165613.4000001,2165613.5,2023-06-02T16:30:06Z,2165625.119,"c(""distractor1"", ""distractor2"", ""distractor3"")",Rückhalt,msaada,s,muhula,auwali,kiwimbe,muhula,NA,NA,NA,NA,NA,NA,NA,NA,NA,NA,NA,NA,NA,NA,NA,NA,NA,NA,NA,NA,NA,NA
3090d,"""Richtig""-Screen",canvas.Screen,1_1_4_1_1,NA,NA,skipped,NA,2165615.6000001,NA,NA,2165613.4000001,2165615.7,2023-06-02T16:30:06Z,2165625.119,"c(""distractor1"", ""distractor2"", ""distractor3"")",Rückhalt,msaada,s,muhula,auwali,kiwimbe,NA,NA,NA,NA,NA,NA,NA,NA,NA,NA,NA,NA,NA,NA,NA,NA,NA,NA,NA,NA,NA,NA,NA
3090d,"""Falsch""-Screen",canvas.Screen,1_1_4_1_2,NA,NA,timeout,5003.7549999999,2165616.4000001,2165603.835,2165625.119,2170612.78,2170613.8000002,2023-06-02T16:30:11Z,2170628.874,"c(""distractor1"", ""distractor2"", ""distractor3"")",Rückhalt,msaada,s,muhula,auwali,kiwimbe,NA,NA,0,NA,NA,NA,NA,NA,NA,NA,NA,NA,NA,NA,NA,NA,NA,NA,NA,NA,NA,NA,NA
3090d,shallow,flow.Sequence,1_1_4_1,NA,NA,completion,11539.052,2159060,2159057.519,2159073.728,2170612.78,2170614.2,2023-06-02T16:30:11Z,2170628.874,"c(""distractor1"", ""distractor2"", ""distractor3"")",Rückhalt,msaada,s,muhula,auwali,kiwimbe,NA,NA,NA,NA,NA,NA,NA,NA,NA,NA,NA,NA,NA,NA,NA,NA,NA,NA,NA,NA,NA,NA,NA
3090d,task,flow.Sequence,1_1_4,NA,NA,completion,11539.052,2159059.5,2159057.519,2159073.728,2170612.78,2170614.4000001,2023-06-02T16:30:11Z,2170628.874,"c(""distractor1"", ""distractor2"", ""distractor3"")",Rückhalt,msaada,s,muhula,auwali,kiwimbe,NA,NA,NA,NA,NA,NA,NA,NA,NA,NA,NA,NA,NA,NA,NA,NA,NA,NA,NA,NA,NA,NA,NA
3090d,deep,flow.Sequence,1_1_5_0,NA,NA,skipped,NA,2170614.7,NA,NA,2170612.78,2170614.9000001,2023-06-02T16:30:11Z,2170628.874,"c(""distractor1"", ""distractor2"", ""distractor3"")",Gegenwart,hadhara,s,katiba,jokofu,mikopo,NA,NA,NA,NA,NA,NA,NA,NA,NA,NA,NA,NA,NA,NA,NA,NA,NA,NA,NA,NA,NA,NA,NA
3090d,Shallow Question,html.Page,1_1_5_1_0,NA,NA,form submission,8722.0260000955,2170615,2170612.78,2170628.874,2179350.9000001,2179351.1000001,2023-06-02T16:30:20Z,2179359.797,"c(""distractor1"", ""distractor2"", ""distractor3"")",Gegenwart,hadhara,s,katiba,jokofu,mikopo,katiba,NA,NA,NA,NA,NA,NA,NA,NA,NA,NA,NA,NA,NA,NA,NA,NA,NA,NA,NA,NA,NA,NA
3090d,"""Richtig""-Screen",canvas.Screen,1_1_5_1_1,NA,NA,skipped,NA,2179353.1000001,NA,NA,2179350.9000001,2179353.2,2023-06-02T16:30:20Z,2179359.797,"c(""distractor1"", ""distractor2"", ""distractor3"")",Gegenwart,hadhara,s,katiba,jokofu,mikopo,NA,NA,NA,NA,NA,NA,NA,NA,NA,NA,NA,NA,NA,NA,NA,NA,NA,NA,NA,NA,NA,NA,NA
3090d,"""Falsch""-Screen",canvas.Screen,1_1_5_1_2,NA,NA,timeout,4991.4620000003,2179353.8000002,2179338.744,2179359.797,2184335.087,2184336.2,2023-06-02T16:30:25Z,2184351.259,"c(""distractor1"", ""distractor2"", ""distractor3"")",Gegenwart,hadhara,s,katiba,jokofu,mikopo,NA,NA,0,NA,NA,NA,NA,NA,NA,NA,NA,NA,NA,NA,NA,NA,NA,NA,NA,NA,NA,NA,NA
3090d,shallow,flow.Sequence,1_1_5_1,NA,NA,completion,13706.213,2170615,2170612.78,2170628.874,2184335.087,2184336.6000001,2023-06-02T16:30:25Z,2184351.259,"c(""distractor1"", ""distractor2"", ""distractor3"")",Gegenwart,hadhara,s,katiba,jokofu,mikopo,NA,NA,NA,NA,NA,NA,NA,NA,NA,NA,NA,NA,NA,NA,NA,NA,NA,NA,NA,NA,NA,NA,NA
3090d,task,flow.Sequence,1_1_5,NA,NA,completion,13706.213,2170614.6000001,2170612.78,2170628.874,2184335.087,2184337,2023-06-02T16:30:25Z,2184351.259,"c(""distractor1"", ""distractor2"", ""distractor3"")",Gegenwart,hadhara,s,katiba,jokofu,mikopo,NA,NA,NA,NA,NA,NA,NA,NA,NA,NA,NA,NA,NA,NA,NA,NA,NA,NA,NA,NA,NA,NA,NA
3090d,block,flow.Loop,1_1,NA,NA,completion,74921.233,2109390.5,2109387.761,2109413.854,2184335.087,2184337.4000001,2023-06-02T16:30:25Z,2184351.259,"c(""distractor1"", ""distractor2"", ""distractor3"")",NA,NA,NA,NA,NA,NA,NA,NA,NA,NA,NA,NA,NA,NA,NA,NA,NA,NA,NA,NA,NA,NA,NA,NA,NA,NA,NA,NA,NA
3090d,Practice,flow.Sequence,1,NA,NA,completion,99248.247,2085077.9000001,2085053.038,2085086.84,2184335.087,2184337.7,2023-06-02T16:30:25Z,2184351.259,NULL,NA,NA,NA,NA,NA,NA,NA,NA,NA,NA,NA,NA,NA,NA,NA,NA,NA,NA,NA,NA,NA,NA,NA,NA,NA,NA,NA,NA,NA
3090d,Experiment start,canvas.Screen,2,weiter,keypress(q),response,19125.141000095,2184337.8000002,2184335.087,2184351.259,2203476.4000001,2203477.6000001,2023-06-02T16:30:44Z,2203677.262,NULL,NA,NA,NA,NA,NA,NA,NA,NA,NA,NA,NA,NA,NA,NA,NA,NA,NA,NA,NA,NA,NA,NA,NA,NA,NA,NA,NA,NA,NA
3090d,Deep Question,html.Page,3_0_0_0_0_0_0,NA,NA,form submission,9984.1380000953,2203673.5,2203665.548,2203677.262,2213661.4000001,2213661.6000001,2023-06-02T16:30:54Z,2213666.191,NULL,Erneuerung,ukarabati,d,NA,NA,NA,b,NA,NA,0,NA,NA,NA,NA,NA,NA,NA,NA,NA,NA,NA,NA,NA,NA,NA,NA,NA,NA,NA
3090d,"""Richtig""-Screen",canvas.Screen,3_0_0_0_0_0_1,NA,NA,skipped,NA,2213664.1000001,NA,NA,2213661.4000001,2213664.2,2023-06-02T16:30:54Z,2213666.191,NULL,Erneuerung,ukarabati,d,NA,NA,NA,NA,sdf,NA,0,NA,NA,NA,NA,NA,NA,NA,NA,NA,NA,NA,NA,NA,NA,NA,NA,NA,NA,NA
3090d,"""Falsch""-Screen",canvas.Screen,3_0_0_0_0_0_2,NA,NA,timeout,4991.0430000001,2213665.1000001,2213649.578,2213666.191,2218641.083,2218642.1000001,2023-06-02T16:30:59Z,2218657.234,NULL,Erneuerung,ukarabati,d,NA,NA,NA,NA,sdf,0,0,NA,NA,NA,NA,NA,NA,NA,NA,NA,NA,NA,NA,NA,NA,NA,NA,NA,NA,NA
3090d,deep,flow.Sequence,3_0_0_0_0_0,NA,NA,completion,14963.821,2203673.5,2203665.548,2203677.262,2218641.083,2218642.5,2023-06-02T16:30:59Z,2218657.234,NULL,Erneuerung,ukarabati,d,NA,NA,NA,NA,sdf,NA,0,NA,NA,NA,NA,NA,NA,NA,NA,NA,NA,NA,NA,NA,NA,NA,NA,NA,NA,NA
3090d,shallow,flow.Sequence,3_0_0_0_0_1,NA,NA,skipped,NA,2218642.6000001,NA,NA,2218641.083,2218642.8000002,2023-06-02T16:30:59Z,2218657.234,NULL,Erneuerung,ukarabati,d,NA,NA,NA,NA,sdf,NA,0,NA,NA,NA,NA,NA,NA,NA,NA,NA,NA,NA,NA,NA,NA,NA,NA,NA,NA,NA
3090d,task,flow.Sequence,3_0_0_0_0,NA,NA,completion,14963.821,2203673.5,2203665.548,2203677.262,2218641.083,2218643.1000001,2023-06-02T16:30:59Z,2218657.234,NULL,Erneuerung,ukarabati,d,NA,NA,NA,NA,sdf,NA,0,NA,NA,NA,NA,NA,NA,NA,NA,NA,NA,NA,NA,NA,NA,NA,NA,NA,NA,NA
3090d,Deep Question,html.Page,3_0_0_0_1_0_0,NA,NA,form submission,12317.666000095,2218643.5,2218641.083,2218657.234,2230974.9000001,2230975.2,2023-06-02T16:31:11Z,2230984.593,NULL,Hoffnung,matarajio,d,NA,NA,NA,i,NA,NA,0,NA,NA,NA,NA,NA,NA,NA,NA,NA,NA,NA,NA,NA,NA,NA,NA,NA,NA,NA
3090d,"""Richtig""-Screen",canvas.Screen,3_0_0_0_1_0_1,NA,NA,skipped,NA,2230977.7,NA,NA,2230974.9000001,2230977.8000002,2023-06-02T16:31:11Z,2230984.593,NULL,Hoffnung,matarajio,d,NA,NA,NA,NA,sdf,NA,0,NA,NA,NA,NA,NA,NA,NA,NA,NA,NA,NA,NA,NA,NA,NA,NA,NA,NA,NA
3090d,"""Falsch""-Screen",canvas.Screen,3_0_0_0_1_0_2,NA,NA,timeout,4995.557,2230978.4000001,2230964.131,2230984.593,2235964.112,2235965.1000001,2023-06-02T16:31:16Z,2235980.15,NULL,Hoffnung,matarajio,d,NA,NA,NA,NA,sdf,0,0,NA,NA,NA,NA,NA,NA,NA,NA,NA,NA,NA,NA,NA,NA,NA,NA,NA,NA,NA
3090d,deep,flow.Sequence,3_0_0_0_1_0,NA,NA,completion,17306.878,2218643.4000001,2218641.083,2218657.234,2235964.112,2235965.6000001,2023-06-02T16:31:16Z,2235980.15,NULL,Hoffnung,matarajio,d,NA,NA,NA,NA,sdf,NA,0,NA,NA,NA,NA,NA,NA,NA,NA,NA,NA,NA,NA,NA,NA,NA,NA,NA,NA,NA
3090d,shallow,flow.Sequence,3_0_0_0_1_1,NA,NA,skipped,NA,2235967.2,NA,NA,2235964.112,2235967.5,2023-06-02T16:31:16Z,2235980.15,NULL,Hoffnung,matarajio,d,NA,NA,NA,NA,sdf,NA,0,NA,NA,NA,NA,NA,NA,NA,NA,NA,NA,NA,NA,NA,NA,NA,NA,NA,NA,NA
3090d,task,flow.Sequence,3_0_0_0_1,NA,NA,completion,17306.878,2218643.3000002,2218641.083,2218657.234,2235964.112,2235967.8000002,2023-06-02T16:31:16Z,2235980.15,NULL,Hoffnung,matarajio,d,NA,NA,NA,NA,sdf,NA,0,NA,NA,NA,NA,NA,NA,NA,NA,NA,NA,NA,NA,NA,NA,NA,NA,NA,NA,NA
3090d,deep,flow.Sequence,3_0_0_0_2_0,NA,NA,skipped,NA,2235968,NA,NA,2235964.112,2235968.2,2023-06-02T16:31:16Z,2235980.15,NULL,Flexibilität,kubadilika,s,enjini,usikilivu,hesabu,NA,sdf,NA,0,NA,NA,NA,NA,NA,NA,NA,NA,NA,NA,NA,NA,NA,NA,NA,NA,NA,NA,NA
3090d,Shallow Question,html.Page,3_0_0_0_2_1_0,NA,NA,form submission,7918.8500000001,2235968.4000001,2235964.112,2235980.15,2243899,2243899.2,2023-06-02T16:31:24Z,2243911.137,NULL,Flexibilität,kubadilika,s,enjini,usikilivu,hesabu,usikilivu,NA,NA,0,NA,NA,NA,NA,NA,NA,NA,NA,NA,NA,NA,NA,NA,NA,NA,NA,NA,NA,NA
3090d,"""Richtig""-Screen",canvas.Screen,3_0_0_0_2_1_1,NA,NA,skipped,NA,2243901,NA,NA,2243899,2243901.1000001,2023-06-02T16:31:24Z,2243911.137,NULL,Flexibilität,kubadilika,s,enjini,usikilivu,hesabu,NA,sdf,NA,0,NA,NA,NA,NA,NA,NA,NA,NA,NA,NA,NA,NA,NA,NA,NA,NA,NA,NA,NA
3090d,"""Falsch""-Screen",canvas.Screen,3_0_0_0_2_1_2,NA,NA,timeout,5007.949,2243901.7,2243894.078,2243911.137,2248903.048,2248904.1000001,2023-06-02T16:31:29Z,2248919.086,NULL,Flexibilität,kubadilika,s,enjini,usikilivu,hesabu,NA,sdf,0,0,NA,NA,NA,NA,NA,NA,NA,NA,NA,NA,NA,NA,NA,NA,NA,NA,NA,NA,NA
3090d,shallow,flow.Sequence,3_0_0_0_2_1,NA,NA,completion,12922.898,2235968.3000002,2235964.112,2235980.15,2248903.048,2248904.6000001,2023-06-02T16:31:29Z,2248919.086,NULL,Flexibilität,kubadilika,s,enjini,usikilivu,hesabu,NA,sdf,NA,0,NA,NA,NA,NA,NA,NA,NA,NA,NA,NA,NA,NA,NA,NA,NA,NA,NA,NA,NA
3090d,task,flow.Sequence,3_0_0_0_2,NA,NA,completion,12922.898,2235968,2235964.112,2235980.15,2248903.048,2248904.8000002,2023-06-02T16:31:29Z,2248919.086,NULL,Flexibilität,kubadilika,s,enjini,usikilivu,hesabu,NA,sdf,NA,0,NA,NA,NA,NA,NA,NA,NA,NA,NA,NA,NA,NA,NA,NA,NA,NA,NA,NA,NA
3090d,deep,flow.Sequence,3_0_0_0_3_0,NA,NA,skipped,NA,2248905,NA,NA,2248903.048,2248905.2,2023-06-02T16:31:29Z,2248919.086,NULL,Schock,mshtuko,s,biashara,kukataza,vichekesho,NA,sdf,NA,0,NA,NA,NA,NA,NA,NA,NA,NA,NA,NA,NA,NA,NA,NA,NA,NA,NA,NA,NA
3090d,Shallow Question,html.Page,3_0_0_0_3_1_0,NA,NA,form submission,12769.514000143,2248905.3000002,2248903.048,2248919.086,2261688.6000001,2261688.7,2023-06-02T16:31:42Z,2261703.401,NULL,Schock,mshtuko,s,biashara,kukataza,vichekesho,vichekesho,NA,NA,0,NA,NA,NA,NA,NA,NA,NA,NA,NA,NA,NA,NA,NA,NA,NA,NA,NA,NA,NA
3090d,"""Richtig""-Screen",canvas.Screen,3_0_0_0_3_1_1,NA,NA,skipped,NA,2261690.7,NA,NA,2261688.6000001,2261690.8000002,2023-06-02T16:31:42Z,2261703.401,NULL,Schock,mshtuko,s,biashara,kukataza,vichekesho,NA,sdf,NA,0,NA,NA,NA,NA,NA,NA,NA,NA,NA,NA,NA,NA,NA,NA,NA,NA,NA,NA,NA
3090d,"""Falsch""-Screen",canvas.Screen,3_0_0_0_3_1_2,NA,NA,timeout,5003.7859999998,2261691.4000001,2261681.871,2261703.401,2266691.055,2266692.1000001,2023-06-02T16:31:47Z,2266707.187,NULL,Schock,mshtuko,s,biashara,kukataza,vichekesho,NA,sdf,0,0,NA,NA,NA,NA,NA,NA,NA,NA,NA,NA,NA,NA,NA,NA,NA,NA,NA,NA,NA
3090d,shallow,flow.Sequence,3_0_0_0_3_1,NA,NA,completion,17771.969,2248905.3000002,2248903.048,2248919.086,2266691.055,2266692.5,2023-06-02T16:31:47Z,2266707.187,NULL,Schock,mshtuko,s,biashara,kukataza,vichekesho,NA,sdf,NA,0,NA,NA,NA,NA,NA,NA,NA,NA,NA,NA,NA,NA,NA,NA,NA,NA,NA,NA,NA
3090d,task,flow.Sequence,3_0_0_0_3,NA,NA,completion,17771.969,2248905,2248903.048,2248919.086,2266691.055,2266692.8000002,2023-06-02T16:31:47Z,2266707.187,NULL,Schock,mshtuko,s,biashara,kukataza,vichekesho,NA,sdf,NA,0,NA,NA,NA,NA,NA,NA,NA,NA,NA,NA,NA,NA,NA,NA,NA,NA,NA,NA,NA
3090d,deep,flow.Sequence,3_0_0_0_4_0,NA,NA,skipped,NA,2266693,NA,NA,2266691.055,2266693.1000001,2023-06-02T16:31:47Z,2266707.187,NULL,Atmosphäre,angahewa,s,kuteseka,usahihi,kutoamini,NA,sdf,NA,0,NA,NA,NA,NA,NA,NA,NA,NA,NA,NA,NA,NA,NA,NA,NA,NA,NA,NA,NA
3090d,Shallow Question,html.Page,3_0_0_0_4_1_0,NA,NA,form submission,8880.4130001431,2266693.3000002,2266691.055,2266707.187,2275587.6000001,2275587.8000002,2023-06-02T16:31:56Z,2275612.619,NULL,Atmosphäre,angahewa,s,kuteseka,usahihi,kutoamini,angahewa,NA,NA,0,NA,NA,NA,NA,NA,NA,NA,NA,NA,NA,NA,NA,NA,NA,NA,NA,NA,NA,NA
3090d,"""Richtig""-Screen",canvas.Screen,3_0_0_0_4_1_1,NA,NA,timeout,5003.2220000001,2275589.7,2275595.532,2275612.619,2280599.691,2280600.9000001,2023-06-02T16:32:01Z,2280615.841,NULL,Atmosphäre,angahewa,s,kuteseka,usahihi,kutoamini,NA,sdf,1,0,NA,NA,NA,NA,NA,NA,NA,NA,NA,NA,NA,NA,NA,NA,NA,NA,NA,NA,NA
3090d,"""Falsch""-Screen",canvas.Screen,3_0_0_0_4_1_2,NA,NA,skipped,NA,2280606.3000002,NA,NA,2280599.691,2280606.6000001,2023-06-02T16:32:01Z,2280615.841,NULL,Atmosphäre,angahewa,s,kuteseka,usahihi,kutoamini,NA,sdf,NA,0,NA,NA,NA,NA,NA,NA,NA,NA,NA,NA,NA,NA,NA,NA,NA,NA,NA,NA,NA
3090d,shallow,flow.Sequence,3_0_0_0_4_1,NA,NA,completion,13892.504,2266693.3000002,2266691.055,2266707.187,2280599.691,2280607,2023-06-02T16:32:01Z,2280615.841,NULL,Atmosphäre,angahewa,s,kuteseka,usahihi,kutoamini,NA,sdf,NA,0,NA,NA,NA,NA,NA,NA,NA,NA,NA,NA,NA,NA,NA,NA,NA,NA,NA,NA,NA
3090d,task,flow.Sequence,3_0_0_0_4,NA,NA,completion,13892.504,2266692.9000001,2266691.055,2266707.187,2280599.691,2280607.2,2023-06-02T16:32:01Z,2280615.841,NULL,Atmosphäre,angahewa,s,kuteseka,usahihi,kutoamini,NA,sdf,NA,0,NA,NA,NA,NA,NA,NA,NA,NA,NA,NA,NA,NA,NA,NA,NA,NA,NA,NA,NA
3090d,Deep Question,html.Page,3_0_0_0_5_0_0,NA,NA,form submission,4545.759000143,2280607.5,2280599.691,2280615.841,2285161.6000001,2285161.8000002,2023-06-02T16:32:05Z,2285181.241,NULL,Wechsel,ugeuzaji,d,NA,NA,NA,h,NA,NA,0,NA,NA,NA,NA,NA,NA,NA,NA,NA,NA,NA,NA,NA,NA,NA,NA,NA,NA,NA
3090d,"""Richtig""-Screen",canvas.Screen,3_0_0_0_5_0_1,NA,NA,skipped,NA,2285163.5,NA,NA,2285161.6000001,2285163.6000001,2023-06-02T16:32:05Z,2285181.241,NULL,Wechsel,ugeuzaji,d,NA,NA,NA,NA,sdf,NA,0,NA,NA,NA,NA,NA,NA,NA,NA,NA,NA,NA,NA,NA,NA,NA,NA,NA,NA,NA
3090d,"""Falsch""-Screen",canvas.Screen,3_0_0_0_5_0_2,NA,NA,timeout,4999.6159999999,2285164.2,2285160.736,2285181.241,2290164.65,2290165.8000002,2023-06-02T16:32:10Z,2290180.857,NULL,Wechsel,ugeuzaji,d,NA,NA,NA,NA,sdf,0,0,NA,NA,NA,NA,NA,NA,NA,NA,NA,NA,NA,NA,NA,NA,NA,NA,NA,NA,NA
3090d,deep,flow.Sequence,3_0_0_0_5_0,NA,NA,completion,9548.8089999999,2280607.4000001,2280599.691,2280615.841,2290164.65,2290166.1000001,2023-06-02T16:32:10Z,2290180.857,NULL,Wechsel,ugeuzaji,d,NA,NA,NA,NA,sdf,NA,0,NA,NA,NA,NA,NA,NA,NA,NA,NA,NA,NA,NA,NA,NA,NA,NA,NA,NA,NA
3090d,shallow,flow.Sequence,3_0_0_0_5_1,NA,NA,skipped,NA,2290166.3000002,NA,NA,2290164.65,2290166.6000001,2023-06-02T16:32:10Z,2290180.857,NULL,Wechsel,ugeuzaji,d,NA,NA,NA,NA,sdf,NA,0,NA,NA,NA,NA,NA,NA,NA,NA,NA,NA,NA,NA,NA,NA,NA,NA,NA,NA,NA
3090d,task,flow.Sequence,3_0_0_0_5,NA,NA,completion,9548.8089999999,2280607.3000002,2280599.691,2280615.841,2290164.65,2290166.8000002,2023-06-02T16:32:10Z,2290180.857,NULL,Wechsel,ugeuzaji,d,NA,NA,NA,NA,sdf,NA,0,NA,NA,NA,NA,NA,NA,NA,NA,NA,NA,NA,NA,NA,NA,NA,NA,NA,NA,NA
3090d,Deep Question,html.Page,3_0_0_0_6_0_0,NA,NA,form submission,5134.8430000478,2290167,2290164.65,2290180.857,2295315.7,2295316,2023-06-02T16:32:16Z,2295321.433,NULL,Verpackung,ufungaji,d,NA,NA,NA,j,NA,NA,0,NA,NA,NA,NA,NA,NA,NA,NA,NA,NA,NA,NA,NA,NA,NA,NA,NA,NA,NA
3090d,"""Richtig""-Screen",canvas.Screen,3_0_0_0_6_0_1,NA,NA,skipped,NA,2295318.3000002,NA,NA,2295315.7,2295318.5,2023-06-02T16:32:16Z,2295321.433,NULL,Verpackung,ufungaji,d,NA,NA,NA,NA,sdf,NA,0,NA,NA,NA,NA,NA,NA,NA,NA,NA,NA,NA,NA,NA,NA,NA,NA,NA,NA,NA
3090d,"""Falsch""-Screen",canvas.Screen,3_0_0_0_6_0_2,NA,NA,timeout,4995.6209999998,2295319.1000001,2295305.078,2295321.433,2300300.921,2300301.9000001,2023-06-02T16:32:21Z,2300317.054,NULL,Verpackung,ufungaji,d,NA,NA,NA,NA,sdf,0,0,NA,NA,NA,NA,NA,NA,NA,NA,NA,NA,NA,NA,NA,NA,NA,NA,NA,NA,NA
3090d,deep,flow.Sequence,3_0_0_0_6_0,NA,NA,completion,10120.064,2290166.9000001,2290164.65,2290180.857,2300300.921,2300302.3000002,2023-06-02T16:32:21Z,2300317.054,NULL,Verpackung,ufungaji,d,NA,NA,NA,NA,sdf,NA,0,NA,NA,NA,NA,NA,NA,NA,NA,NA,NA,NA,NA,NA,NA,NA,NA,NA,NA,NA
3090d,shallow,flow.Sequence,3_0_0_0_6_1,NA,NA,skipped,NA,2300302.5,NA,NA,2300300.921,2300302.7,2023-06-02T16:32:21Z,2300317.054,NULL,Verpackung,ufungaji,d,NA,NA,NA,NA,sdf,NA,0,NA,NA,NA,NA,NA,NA,NA,NA,NA,NA,NA,NA,NA,NA,NA,NA,NA,NA,NA
3090d,task,flow.Sequence,3_0_0_0_6,NA,NA,completion,10120.064,2290166.9000001,2290164.65,2290180.857,2300300.921,2300302.9000001,2023-06-02T16:32:21Z,2300317.054,NULL,Verpackung,ufungaji,d,NA,NA,NA,NA,sdf,NA,0,NA,NA,NA,NA,NA,NA,NA,NA,NA,NA,NA,NA,NA,NA,NA,NA,NA,NA,NA
3090d,deep,flow.Sequence,3_0_0_0_7_0,NA,NA,skipped,NA,2300303.1000001,NA,NA,2300300.921,2300303.3000002,2023-06-02T16:32:21Z,2300317.054,NULL,Theorie,nadharia,s,ushungi,mkutano,uwakilishi,NA,sdf,NA,0,NA,NA,NA,NA,NA,NA,NA,NA,NA,NA,NA,NA,NA,NA,NA,NA,NA,NA,NA
3090d,Shallow Question,html.Page,3_0_0_0_7_1_0,NA,NA,form submission,8973.3460000954,2300303.4000001,2300300.921,2300317.054,2309290.4000001,2309290.6000001,2023-06-02T16:32:30Z,2309296.739,NULL,Theorie,nadharia,s,ushungi,mkutano,uwakilishi,ushungi,NA,NA,0,NA,NA,NA,NA,NA,NA,NA,NA,NA,NA,NA,NA,NA,NA,NA,NA,NA,NA,NA
3090d,"""Richtig""-Screen",canvas.Screen,3_0_0_0_7_1_1,NA,NA,skipped,NA,2309292.4000001,NA,NA,2309290.4000001,2309292.5,2023-06-02T16:32:30Z,2309296.739,NULL,Theorie,nadharia,s,ushungi,mkutano,uwakilishi,NA,sdf,NA,0,NA,NA,NA,NA,NA,NA,NA,NA,NA,NA,NA,NA,NA,NA,NA,NA,NA,NA,NA
3090d,"""Falsch""-Screen",canvas.Screen,3_0_0_0_7_1_2,NA,NA,timeout,4991.6659999997,2309293,2309278.925,2309296.739,2314272.175,2314273.3000002,2023-06-02T16:32:34Z,2314288.405,NULL,Theorie,nadharia,s,ushungi,mkutano,uwakilishi,NA,sdf,0,0,NA,NA,NA,NA,NA,NA,NA,NA,NA,NA,NA,NA,NA,NA,NA,NA,NA,NA,NA
3090d,shallow,flow.Sequence,3_0_0_0_7_1,NA,NA,completion,13955.121,2300303.3000002,2300300.921,2300317.054,2314272.175,2314273.7,2023-06-02T16:32:34Z,2314288.405,NULL,Theorie,nadharia,s,ushungi,mkutano,uwakilishi,NA,sdf,NA,0,NA,NA,NA,NA,NA,NA,NA,NA,NA,NA,NA,NA,NA,NA,NA,NA,NA,NA,NA
3090d,task,flow.Sequence,3_0_0_0_7,NA,NA,completion,13955.121,2300303.1000001,2300300.921,2300317.054,2314272.175,2314273.9000001,2023-06-02T16:32:34Z,2314288.405,NULL,Theorie,nadharia,s,ushungi,mkutano,uwakilishi,NA,sdf,NA,0,NA,NA,NA,NA,NA,NA,NA,NA,NA,NA,NA,NA,NA,NA,NA,NA,NA,NA,NA
3090d,block,flow.Loop,3_0_0_0,NA,NA,completion,110594.913,2203673.4000001,2203665.548,2203677.262,2314272.175,2314274.3000002,2023-06-02T16:32:34Z,2314288.405,NULL,NA,NA,NA,NA,NA,NA,NA,sdf,NA,0,NA,NA,NA,NA,NA,NA,NA,NA,NA,NA,NA,NA,NA,NA,NA,NA,NA,NA,NA
3090d,weiter,canvas.Screen,3_0_0_1,sdf,keypress(Space),response,2222.0950000002,2314274.5,2314272.175,2314288.405,2316510.5,2316511.6000001,2023-06-02T16:32:37Z,2316629.712,NULL,NA,NA,NA,NA,NA,NA,NA,sdf,NA,0,NA,NA,NA,NA,NA,NA,NA,NA,NA,NA,NA,NA,NA,NA,NA,NA,NA,NA,NA
3090d,check continue,flow.Sequence,3_0_0,NA,NA,completion,112833.238,2203673.2,2203665.548,2203677.262,2316510.5,2316512,2023-06-02T16:32:37Z,2316629.712,NULL,NA,NA,NA,NA,NA,NA,NA,sdf,NA,0,NA,NA,NA,NA,NA,NA,NA,NA,NA,NA,NA,NA,NA,NA,NA,NA,NA,NA,NA
3090d,deep,flow.Sequence,3_0_1_0_0_0,NA,NA,skipped,NA,2316606.8000002,NA,NA,2316510.5,2316607,2023-06-02T16:32:37Z,2316629.712,NULL,Flexibilität,kubadilika,s,enjini,usikilivu,hesabu,NA,sdfdsf,NA,1,NA,NA,NA,NA,NA,NA,NA,NA,NA,NA,NA,NA,NA,NA,NA,NA,NA,NA,NA
3090d,Shallow Question,html.Page,3_0_1_0_0_1_0,NA,NA,form submission,6485.6880000955,2316607.3000002,2316619.99,2316629.712,2323115.4000001,2323115.6000001,2023-06-02T16:32:43Z,2323122.95,NULL,Flexibilität,kubadilika,s,enjini,usikilivu,hesabu,kubadilika,NA,NA,1,NA,NA,NA,NA,NA,NA,NA,NA,NA,NA,NA,NA,NA,NA,NA,NA,NA,NA,NA
3090d,"""Richtig""-Screen",canvas.Screen,3_0_1_0_0_1_1,NA,NA,timeout,4995.6339999996,2323117.5,2323101.901,2323122.95,2328102.181,2328103.2,2023-06-02T16:32:48Z,2328118.584,NULL,Flexibilität,kubadilika,s,enjini,usikilivu,hesabu,NA,sdfdsf,1,1,NA,NA,NA,NA,NA,NA,NA,NA,NA,NA,NA,NA,NA,NA,NA,NA,NA,NA,NA
3090d,"""Falsch""-Screen",canvas.Screen,3_0_1_0_0_1_2,NA,NA,skipped,NA,2328108.5,NA,NA,2328102.181,2328108.8000002,2023-06-02T16:32:48Z,2328118.584,NULL,Flexibilität,kubadilika,s,enjini,usikilivu,hesabu,NA,sdfdsf,NA,1,NA,NA,NA,NA,NA,NA,NA,NA,NA,NA,NA,NA,NA,NA,NA,NA,NA,NA,NA
3090d,shallow,flow.Sequence,3_0_1_0_0_1,NA,NA,completion,11472.469,2316607.2,2316619.99,2316629.712,2328102.181,2328109.3000002,2023-06-02T16:32:48Z,2328118.584,NULL,Flexibilität,kubadilika,s,enjini,usikilivu,hesabu,NA,sdfdsf,NA,1,NA,NA,NA,NA,NA,NA,NA,NA,NA,NA,NA,NA,NA,NA,NA,NA,NA,NA,NA
3090d,task,flow.Sequence,3_0_1_0_0,NA,NA,completion,11472.469,2316606.8000002,2316619.99,2316629.712,2328102.181,2328109.5,2023-06-02T16:32:48Z,2328118.584,NULL,Flexibilität,kubadilika,s,enjini,usikilivu,hesabu,NA,sdfdsf,NA,1,NA,NA,NA,NA,NA,NA,NA,NA,NA,NA,NA,NA,NA,NA,NA,NA,NA,NA,NA
3090d,deep,flow.Sequence,3_0_1_0_1_0,NA,NA,skipped,NA,2328109.8000002,NA,NA,2328102.181,2328109.9000001,2023-06-02T16:32:48Z,2328118.584,NULL,Theorie,nadharia,s,ushungi,mkutano,uwakilishi,NA,sdfdsf,NA,1,NA,NA,NA,NA,NA,NA,NA,NA,NA,NA,NA,NA,NA,NA,NA,NA,NA,NA,NA
3090d,Shallow Question,html.Page,3_0_1_0_1_1_0,NA,NA,form submission,4766.1160000479,2328110.1000001,2328102.181,2328118.584,2332884.7,2332884.9000001,2023-06-02T16:32:53Z,2332903.977,NULL,Theorie,nadharia,s,ushungi,mkutano,uwakilishi,mkutano,NA,NA,1,NA,NA,NA,NA,NA,NA,NA,NA,NA,NA,NA,NA,NA,NA,NA,NA,NA,NA,NA
3090d,"""Richtig""-Screen",canvas.Screen,3_0_1_0_1_1_1,NA,NA,skipped,NA,2332886.7,NA,NA,2332884.7,2332886.8000002,2023-06-02T16:32:53Z,2332903.977,NULL,Theorie,nadharia,s,ushungi,mkutano,uwakilishi,NA,sdfdsf,NA,1,NA,NA,NA,NA,NA,NA,NA,NA,NA,NA,NA,NA,NA,NA,NA,NA,NA,NA,NA
3090d,"""Falsch""-Screen",canvas.Screen,3_0_1_0_1_1_2,NA,NA,timeout,4995.3539999998,2332887.4000001,2332874.864,2332903.977,2337883.2,2337884.3000002,2023-06-02T16:32:58Z,2337899.331,NULL,Theorie,nadharia,s,ushungi,mkutano,uwakilishi,NA,sdfdsf,0,1,NA,NA,NA,NA,NA,NA,NA,NA,NA,NA,NA,NA,NA,NA,NA,NA,NA,NA,NA
3090d,shallow,flow.Sequence,3_0_1_0_1_1,NA,NA,completion,9764.6160000004,2328110.1000001,2328102.181,2328118.584,2337883.2,2337884.7,2023-06-02T16:32:58Z,2337899.331,NULL,Theorie,nadharia,s,ushungi,mkutano,uwakilishi,NA,sdfdsf,NA,1,NA,NA,NA,NA,NA,NA,NA,NA,NA,NA,NA,NA,NA,NA,NA,NA,NA,NA,NA
3090d,task,flow.Sequence,3_0_1_0_1,NA,NA,completion,9764.6160000004,2328109.7,2328102.181,2328118.584,2337883.2,2337885,2023-06-02T16:32:58Z,2337899.331,NULL,Theorie,nadharia,s,ushungi,mkutano,uwakilishi,NA,sdfdsf,NA,1,NA,NA,NA,NA,NA,NA,NA,NA,NA,NA,NA,NA,NA,NA,NA,NA,NA,NA,NA
3090d,deep,flow.Sequence,3_0_1_0_2_0,NA,NA,skipped,NA,2337885.5,NA,NA,2337883.2,2337885.7,2023-06-02T16:32:58Z,2337899.331,NULL,Atmosphäre,angahewa,s,kuteseka,usahihi,kutoamini,NA,sdfdsf,NA,1,NA,NA,NA,NA,NA,NA,NA,NA,NA,NA,NA,NA,NA,NA,NA,NA,NA,NA,NA
3090d,Shallow Question,html.Page,3_0_1_0_2_1_0,NA,NA,form submission,8055.469000191,2337885.8000002,2337883.2,2337899.331,2345954.8000002,2345955,2023-06-02T16:33:06Z,2345964.374,NULL,Atmosphäre,angahewa,s,kuteseka,usahihi,kutoamini,angahewa,NA,NA,1,NA,NA,NA,NA,NA,NA,NA,NA,NA,NA,NA,NA,NA,NA,NA,NA,NA,NA,NA
3090d,"""Richtig""-Screen",canvas.Screen,3_0_1_0_2_1_1,NA,NA,timeout,4991.3000000003,2345956.9000001,2345938.965,2345964.374,2350939.531,2350940.6000001,2023-06-02T16:33:11Z,2350955.674,NULL,Atmosphäre,angahewa,s,kuteseka,usahihi,kutoamini,NA,sdfdsf,1,1,NA,NA,NA,NA,NA,NA,NA,NA,NA,NA,NA,NA,NA,NA,NA,NA,NA,NA,NA
3090d,"""Falsch""-Screen",canvas.Screen,3_0_1_0_2_1_2,NA,NA,skipped,NA,2350946.3000002,NA,NA,2350939.531,2350946.8000002,2023-06-02T16:33:11Z,2350955.674,NULL,Atmosphäre,angahewa,s,kuteseka,usahihi,kutoamini,NA,sdfdsf,NA,1,NA,NA,NA,NA,NA,NA,NA,NA,NA,NA,NA,NA,NA,NA,NA,NA,NA,NA,NA
3090d,shallow,flow.Sequence,3_0_1_0_2_1,NA,NA,completion,13040.2,2337885.8000002,2337883.2,2337899.331,2350939.531,2350947.3000002,2023-06-02T16:33:11Z,2350955.674,NULL,Atmosphäre,angahewa,s,kuteseka,usahihi,kutoamini,NA,sdfdsf,NA,1,NA,NA,NA,NA,NA,NA,NA,NA,NA,NA,NA,NA,NA,NA,NA,NA,NA,NA,NA
3090d,task,flow.Sequence,3_0_1_0_2,NA,NA,completion,13040.2,2337885.4000001,2337883.2,2337899.331,2350939.531,2350947.5,2023-06-02T16:33:11Z,2350955.674,NULL,Atmosphäre,angahewa,s,kuteseka,usahihi,kutoamini,NA,sdfdsf,NA,1,NA,NA,NA,NA,NA,NA,NA,NA,NA,NA,NA,NA,NA,NA,NA,NA,NA,NA,NA
3090d,Deep Question,html.Page,3_0_1_0_3_0_0,NA,NA,form submission,5670.3259999999,2350947.8000002,2350939.531,2350955.674,2356626,2356626.2,2023-06-02T16:33:17Z,2356645.703,NULL,Verpackung,ufungaji,d,NA,NA,NA,j,NA,NA,1,NA,NA,NA,NA,NA,NA,NA,NA,NA,NA,NA,NA,NA,NA,NA,NA,NA,NA,NA
3090d,"""Richtig""-Screen",canvas.Screen,3_0_1_0_3_0_1,NA,NA,skipped,NA,2356628,NA,NA,2356626,2356628.1000001,2023-06-02T16:33:17Z,2356645.703,NULL,Verpackung,ufungaji,d,NA,NA,NA,NA,sdfdsf,NA,1,NA,NA,NA,NA,NA,NA,NA,NA,NA,NA,NA,NA,NA,NA,NA,NA,NA,NA,NA
3090d,"""Falsch""-Screen",canvas.Screen,3_0_1_0_3_0_2,NA,NA,timeout,4994.966,2356628.6000001,2356625.054,2356645.703,2361624.474,2361625.4000001,2023-06-02T16:33:22Z,2361640.669,NULL,Verpackung,ufungaji,d,NA,NA,NA,NA,sdfdsf,0,1,NA,NA,NA,NA,NA,NA,NA,NA,NA,NA,NA,NA,NA,NA,NA,NA,NA,NA,NA
3090d,deep,flow.Sequence,3_0_1_0_3_0,NA,NA,completion,10668.8,2350947.7,2350939.531,2350955.674,2361624.474,2361625.9000001,2023-06-02T16:33:22Z,2361640.669,NULL,Verpackung,ufungaji,d,NA,NA,NA,NA,sdfdsf,NA,1,NA,NA,NA,NA,NA,NA,NA,NA,NA,NA,NA,NA,NA,NA,NA,NA,NA,NA,NA
3090d,shallow,flow.Sequence,3_0_1_0_3_1,NA,NA,skipped,NA,2361626,NA,NA,2361624.474,2361626.2,2023-06-02T16:33:22Z,2361640.669,NULL,Verpackung,ufungaji,d,NA,NA,NA,NA,sdfdsf,NA,1,NA,NA,NA,NA,NA,NA,NA,NA,NA,NA,NA,NA,NA,NA,NA,NA,NA,NA,NA
3090d,task,flow.Sequence,3_0_1_0_3,NA,NA,completion,10668.8,2350947.6000001,2350939.531,2350955.674,2361624.474,2361626.5,2023-06-02T16:33:22Z,2361640.669,NULL,Verpackung,ufungaji,d,NA,NA,NA,NA,sdfdsf,NA,1,NA,NA,NA,NA,NA,NA,NA,NA,NA,NA,NA,NA,NA,NA,NA,NA,NA,NA,NA
3090d,deep,flow.Sequence,3_0_1_0_4_0,NA,NA,skipped,NA,2361626.7,NA,NA,2361624.474,2361626.8000002,2023-06-02T16:33:22Z,2361640.669,NULL,Schock,mshtuko,s,biashara,kukataza,vichekesho,NA,sdfdsf,NA,1,NA,NA,NA,NA,NA,NA,NA,NA,NA,NA,NA,NA,NA,NA,NA,NA,NA,NA,NA
3090d,Shallow Question,html.Page,3_0_1_0_4_1_0,NA,NA,form submission,7266.0310000475,2361626.9000001,2361624.474,2361640.669,2368906.7,2368906.9000001,2023-06-02T16:33:29Z,2368912.799,NULL,Schock,mshtuko,s,biashara,kukataza,vichekesho,mshtuko,NA,NA,1,NA,NA,NA,NA,NA,NA,NA,NA,NA,NA,NA,NA,NA,NA,NA,NA,NA,NA,NA
3090d,"""Richtig""-Screen",canvas.Screen,3_0_1_0_4_1_1,NA,NA,timeout,4994.6910000001,2368908.7,2368895.7,2368912.799,2373891.365,2373892.4000001,2023-06-02T16:33:34Z,2373907.49,NULL,Schock,mshtuko,s,biashara,kukataza,vichekesho,NA,sdfdsf,1,1,NA,NA,NA,NA,NA,NA,NA,NA,NA,NA,NA,NA,NA,NA,NA,NA,NA,NA,NA
3090d,"""Falsch""-Screen",canvas.Screen,3_0_1_0_4_1_2,NA,NA,skipped,NA,2373897.4000001,NA,NA,2373891.365,2373897.8000002,2023-06-02T16:33:34Z,2373907.49,NULL,Schock,mshtuko,s,biashara,kukataza,vichekesho,NA,sdfdsf,NA,1,NA,NA,NA,NA,NA,NA,NA,NA,NA,NA,NA,NA,NA,NA,NA,NA,NA,NA,NA
3090d,shallow,flow.Sequence,3_0_1_0_4_1,NA,NA,completion,12250.696,2361626.9000001,2361624.474,2361640.669,2373891.365,2373898.2,2023-06-02T16:33:34Z,2373907.49,NULL,Schock,mshtuko,s,biashara,kukataza,vichekesho,NA,sdfdsf,NA,1,NA,NA,NA,NA,NA,NA,NA,NA,NA,NA,NA,NA,NA,NA,NA,NA,NA,NA,NA
3090d,task,flow.Sequence,3_0_1_0_4,NA,NA,completion,12250.696,2361626.6000001,2361624.474,2361640.669,2373891.365,2373898.5,2023-06-02T16:33:34Z,2373907.49,NULL,Schock,mshtuko,s,biashara,kukataza,vichekesho,NA,sdfdsf,NA,1,NA,NA,NA,NA,NA,NA,NA,NA,NA,NA,NA,NA,NA,NA,NA,NA,NA,NA,NA
3090d,Deep Question,html.Page,3_0_1_0_5_0_0,NA,NA,form submission,3648.3100001905,2373898.8000002,2373891.365,2373907.49,2377555.8000002,2377556,2023-06-02T16:33:38Z,2377568.886,NULL,Hoffnung,matarajio,d,NA,NA,NA,n,NA,NA,1,NA,NA,NA,NA,NA,NA,NA,NA,NA,NA,NA,NA,NA,NA,NA,NA,NA,NA,NA
3090d,"""Richtig""-Screen",canvas.Screen,3_0_1_0_5_0_1,NA,NA,skipped,NA,2377558.4000001,NA,NA,2377555.8000002,2377558.6000001,2023-06-02T16:33:38Z,2377568.886,NULL,Hoffnung,matarajio,d,NA,NA,NA,NA,sdfdsf,NA,1,NA,NA,NA,NA,NA,NA,NA,NA,NA,NA,NA,NA,NA,NA,NA,NA,NA,NA,NA
3090d,"""Falsch""-Screen",canvas.Screen,3_0_1_0_5_0_2,NA,NA,timeout,4991.3110000002,2377560.1000001,2377544.34,2377568.886,2382544.174,2382545.3000002,2023-06-02T16:33:43Z,2382560.197,NULL,Hoffnung,matarajio,d,NA,NA,NA,NA,sdfdsf,0,1,NA,NA,NA,NA,NA,NA,NA,NA,NA,NA,NA,NA,NA,NA,NA,NA,NA,NA,NA
3090d,deep,flow.Sequence,3_0_1_0_5_0,NA,NA,completion,8636.6839999999,2373898.7,2373891.365,2373907.49,2382544.174,2382545.7,2023-06-02T16:33:43Z,2382560.197,NULL,Hoffnung,matarajio,d,NA,NA,NA,NA,sdfdsf,NA,1,NA,NA,NA,NA,NA,NA,NA,NA,NA,NA,NA,NA,NA,NA,NA,NA,NA,NA,NA
3090d,shallow,flow.Sequence,3_0_1_0_5_1,NA,NA,skipped,NA,2382545.9000001,NA,NA,2382544.174,2382546,2023-06-02T16:33:43Z,2382560.197,NULL,Hoffnung,matarajio,d,NA,NA,NA,NA,sdfdsf,NA,1,NA,NA,NA,NA,NA,NA,NA,NA,NA,NA,NA,NA,NA,NA,NA,NA,NA,NA,NA
3090d,task,flow.Sequence,3_0_1_0_5,NA,NA,completion,8636.6839999999,2373898.7,2373891.365,2373907.49,2382544.174,2382546.3000002,2023-06-02T16:33:43Z,2382560.197,NULL,Hoffnung,matarajio,d,NA,NA,NA,NA,sdfdsf,NA,1,NA,NA,NA,NA,NA,NA,NA,NA,NA,NA,NA,NA,NA,NA,NA,NA,NA,NA,NA
3090d,Deep Question,html.Page,3_0_1_0_6_0_0,NA,NA,form submission,4352.6030001906,2382546.5,2382544.174,2382560.197,2386912.8000002,2386913,2023-06-02T16:33:47Z,2386938.773,NULL,Erneuerung,ukarabati,d,NA,NA,NA,h,NA,NA,1,NA,NA,NA,NA,NA,NA,NA,NA,NA,NA,NA,NA,NA,NA,NA,NA,NA,NA,NA
3090d,"""Richtig""-Screen",canvas.Screen,3_0_1_0_6_0_1,NA,NA,skipped,NA,2386915.7,NA,NA,2386912.8000002,2386915.9000001,2023-06-02T16:33:47Z,2386938.773,NULL,Erneuerung,ukarabati,d,NA,NA,NA,NA,sdfdsf,NA,1,NA,NA,NA,NA,NA,NA,NA,NA,NA,NA,NA,NA,NA,NA,NA,NA,NA,NA,NA
3090d,"""Falsch""-Screen",canvas.Screen,3_0_1_0_6_0_2,NA,NA,timeout,5003.1719999998,2386916.7,2386896.994,2386938.773,2391925.842,2391927.1000001,2023-06-02T16:33:52Z,2391941.945,NULL,Erneuerung,ukarabati,d,NA,NA,NA,NA,sdfdsf,0,1,NA,NA,NA,NA,NA,NA,NA,NA,NA,NA,NA,NA,NA,NA,NA,NA,NA,NA,NA
3090d,deep,flow.Sequence,3_0_1_0_6_0,NA,NA,completion,9365.645,2382546.5,2382544.174,2382560.197,2391925.842,2391927.7,2023-06-02T16:33:52Z,2391941.945,NULL,Erneuerung,ukarabati,d,NA,NA,NA,NA,sdfdsf,NA,1,NA,NA,NA,NA,NA,NA,NA,NA,NA,NA,NA,NA,NA,NA,NA,NA,NA,NA,NA
3090d,shallow,flow.Sequence,3_0_1_0_6_1,NA,NA,skipped,NA,2391927.9000001,NA,NA,2391925.842,2391928.1000001,2023-06-02T16:33:52Z,2391941.945,NULL,Erneuerung,ukarabati,d,NA,NA,NA,NA,sdfdsf,NA,1,NA,NA,NA,NA,NA,NA,NA,NA,NA,NA,NA,NA,NA,NA,NA,NA,NA,NA,NA
3090d,task,flow.Sequence,3_0_1_0_6,NA,NA,completion,9365.645,2382546.5,2382544.174,2382560.197,2391925.842,2391928.3000002,2023-06-02T16:33:52Z,2391941.945,NULL,Erneuerung,ukarabati,d,NA,NA,NA,NA,sdfdsf,NA,1,NA,NA,NA,NA,NA,NA,NA,NA,NA,NA,NA,NA,NA,NA,NA,NA,NA,NA,NA
3090d,Deep Question,html.Page,3_0_1_0_7_0_0,NA,NA,form submission,4772.9550000955,2391928.6000001,2391925.842,2391941.945,2396714.9000001,2396715.1000001,2023-06-02T16:33:57Z,2396741.519,NULL,Wechsel,ugeuzaji,d,NA,NA,NA,h,NA,NA,1,NA,NA,NA,NA,NA,NA,NA,NA,NA,NA,NA,NA,NA,NA,NA,NA,NA,NA,NA
3090d,"""Richtig""-Screen",canvas.Screen,3_0_1_0_7_0_1,NA,NA,skipped,NA,2396716.9000001,NA,NA,2396714.9000001,2396717.1000001,2023-06-02T16:33:57Z,2396741.519,NULL,Wechsel,ugeuzaji,d,NA,NA,NA,NA,sdfdsf,NA,1,NA,NA,NA,NA,NA,NA,NA,NA,NA,NA,NA,NA,NA,NA,NA,NA,NA,NA,NA
3090d,"""Falsch""-Screen",canvas.Screen,3_0_1_0_7_0_2,NA,NA,timeout,5003.2150000003,2396717.7,2396724.892,2396741.519,2401728.594,2401729.9000001,2023-06-02T16:34:02Z,2401744.734,NULL,Wechsel,ugeuzaji,d,NA,NA,NA,NA,sdfdsf,0,1,NA,NA,NA,NA,NA,NA,NA,NA,NA,NA,NA,NA,NA,NA,NA,NA,NA,NA,NA
3090d,deep,flow.Sequence,3_0_1_0_7_0,NA,NA,completion,9786.6490000002,2391928.5,2391925.842,2391941.945,2401728.594,2401730.3000002,2023-06-02T16:34:02Z,2401744.734,NULL,Wechsel,ugeuzaji,d,NA,NA,NA,NA,sdfdsf,NA,1,NA,NA,NA,NA,NA,NA,NA,NA,NA,NA,NA,NA,NA,NA,NA,NA,NA,NA,NA
3090d,shallow,flow.Sequence,3_0_1_0_7_1,NA,NA,skipped,NA,2401730.5,NA,NA,2401728.594,2401730.7,2023-06-02T16:34:02Z,2401744.734,NULL,Wechsel,ugeuzaji,d,NA,NA,NA,NA,sdfdsf,NA,1,NA,NA,NA,NA,NA,NA,NA,NA,NA,NA,NA,NA,NA,NA,NA,NA,NA,NA,NA
3090d,task,flow.Sequence,3_0_1_0_7,NA,NA,completion,9786.6490000002,2391928.5,2391925.842,2391941.945,2401728.594,2401730.9000001,2023-06-02T16:34:02Z,2401744.734,NULL,Wechsel,ugeuzaji,d,NA,NA,NA,NA,sdfdsf,NA,1,NA,NA,NA,NA,NA,NA,NA,NA,NA,NA,NA,NA,NA,NA,NA,NA,NA,NA,NA
3090d,block,flow.Loop,3_0_1_0,NA,NA,completion,85098.882,2316606.7,2316619.99,2316629.712,2401728.594,2401731.2,2023-06-02T16:34:02Z,2401744.734,NULL,NA,NA,NA,NA,NA,NA,NA,sdfdsf,NA,1,NA,NA,NA,NA,NA,NA,NA,NA,NA,NA,NA,NA,NA,NA,NA,NA,NA,NA,NA
3090d,weiter,canvas.Screen,3_0_1_1,sdf,keypress(Space),response,1704.7659999998,2401731.3000002,2401728.594,2401744.734,2403449.5,2403450.6000001,2023-06-02T16:34:04Z,2403548.779,NULL,NA,NA,NA,NA,NA,NA,NA,sdfdsf,NA,1,NA,NA,NA,NA,NA,NA,NA,NA,NA,NA,NA,NA,NA,NA,NA,NA,NA,NA,NA
3090d,check continue,flow.Sequence,3_0_1,NA,NA,completion,86819.788,2316606.6000001,2316619.99,2316629.712,2403449.5,2403450.9000001,2023-06-02T16:34:04Z,2403548.779,NULL,NA,NA,NA,NA,NA,NA,NA,sdfdsf,NA,1,NA,NA,NA,NA,NA,NA,NA,NA,NA,NA,NA,NA,NA,NA,NA,NA,NA,NA,NA
3090d,Deep Question,html.Page,3_0_2_0_0_0_0,NA,NA,form submission,17798.121000095,2403539.7,2403527.072,2403548.779,2421346.9000001,2421347.2,2023-06-02T16:34:22Z,2421352.952,NULL,Erneuerung,ukarabati,d,NA,NA,NA,ukarabati,NA,NA,2,NA,NA,NA,NA,NA,NA,NA,NA,NA,NA,NA,NA,NA,NA,NA,NA,NA,NA,NA
3090d,"""Richtig""-Screen",canvas.Screen,3_0_2_0_0_0_1,NA,NA,timeout,4995.6609999998,2421349.3000002,2421344.736,2421352.952,2426332.503,2426333.5,2023-06-02T16:34:27Z,2426348.613,NULL,Erneuerung,ukarabati,d,NA,NA,NA,NA,sdf,1,2,NA,NA,NA,NA,NA,NA,NA,NA,NA,NA,NA,NA,NA,NA,NA,NA,NA,NA,NA
3090d,"""Falsch""-Screen",canvas.Screen,3_0_2_0_0_0_2,NA,NA,skipped,NA,2426339.1000001,NA,NA,2426332.503,2426339.4000001,2023-06-02T16:34:27Z,2426348.613,NULL,Erneuerung,ukarabati,d,NA,NA,NA,NA,sdf,NA,2,NA,NA,NA,NA,NA,NA,NA,NA,NA,NA,NA,NA,NA,NA,NA,NA,NA,NA,NA
3090d,deep,flow.Sequence,3_0_2_0_0_0,NA,NA,completion,22783.724,2403539.7,2403527.072,2403548.779,2426332.503,2426339.9000001,2023-06-02T16:34:27Z,2426348.613,NULL,Erneuerung,ukarabati,d,NA,NA,NA,NA,sdf,NA,2,NA,NA,NA,NA,NA,NA,NA,NA,NA,NA,NA,NA,NA,NA,NA,NA,NA,NA,NA
3090d,shallow,flow.Sequence,3_0_2_0_0_1,NA,NA,skipped,NA,2426340.1000001,NA,NA,2426332.503,2426340.3000002,2023-06-02T16:34:27Z,2426348.613,NULL,Erneuerung,ukarabati,d,NA,NA,NA,NA,sdf,NA,2,NA,NA,NA,NA,NA,NA,NA,NA,NA,NA,NA,NA,NA,NA,NA,NA,NA,NA,NA
3090d,task,flow.Sequence,3_0_2_0_0,NA,NA,completion,22783.724,2403539.6000001,2403527.072,2403548.779,2426332.503,2426340.4000001,2023-06-02T16:34:27Z,2426348.613,NULL,Erneuerung,ukarabati,d,NA,NA,NA,NA,sdf,NA,2,NA,NA,NA,NA,NA,NA,NA,NA,NA,NA,NA,NA,NA,NA,NA,NA,NA,NA,NA
3090d,Deep Question,html.Page,3_0_2_0_1_0_0,NA,NA,form submission,10046.787000095,2426340.7,2426332.503,2426348.613,2436395.4000001,2436395.5,2023-06-02T16:34:37Z,2436399.977,NULL,Hoffnung,matarajio,d,NA,NA,NA,uguezaji,NA,NA,2,NA,NA,NA,NA,NA,NA,NA,NA,NA,NA,NA,NA,NA,NA,NA,NA,NA,NA,NA
3090d,"""Richtig""-Screen",canvas.Screen,3_0_2_0_1_0_1,NA,NA,skipped,NA,2436397.5,NA,NA,2436395.4000001,2436397.7,2023-06-02T16:34:37Z,2436399.977,NULL,Hoffnung,matarajio,d,NA,NA,NA,NA,sdf,NA,2,NA,NA,NA,NA,NA,NA,NA,NA,NA,NA,NA,NA,NA,NA,NA,NA,NA,NA,NA
3090d,"""Falsch""-Screen",canvas.Screen,3_0_2_0_1_0_2,NA,NA,timeout,5007.9590000003,2436398.3000002,2436383.879,2436399.977,2441391.896,2441393,2023-06-02T16:34:42Z,2441407.936,NULL,Hoffnung,matarajio,d,NA,NA,NA,NA,sdf,0,2,NA,NA,NA,NA,NA,NA,NA,NA,NA,NA,NA,NA,NA,NA,NA,NA,NA,NA,NA
3090d,deep,flow.Sequence,3_0_2_0_1_0,NA,NA,completion,15043.283,2426340.7,2426332.503,2426348.613,2441391.896,2441393.5,2023-06-02T16:34:42Z,2441407.936,NULL,Hoffnung,matarajio,d,NA,NA,NA,NA,sdf,NA,2,NA,NA,NA,NA,NA,NA,NA,NA,NA,NA,NA,NA,NA,NA,NA,NA,NA,NA,NA
3090d,shallow,flow.Sequence,3_0_2_0_1_1,NA,NA,skipped,NA,2441393.6000001,NA,NA,2441391.896,2441393.9000001,2023-06-02T16:34:42Z,2441407.936,NULL,Hoffnung,matarajio,d,NA,NA,NA,NA,sdf,NA,2,NA,NA,NA,NA,NA,NA,NA,NA,NA,NA,NA,NA,NA,NA,NA,NA,NA,NA,NA
3090d,task,flow.Sequence,3_0_2_0_1,NA,NA,completion,15043.283,2426340.6000001,2426332.503,2426348.613,2441391.896,2441394,2023-06-02T16:34:42Z,2441407.936,NULL,Hoffnung,matarajio,d,NA,NA,NA,NA,sdf,NA,2,NA,NA,NA,NA,NA,NA,NA,NA,NA,NA,NA,NA,NA,NA,NA,NA,NA,NA,NA
3090d,deep,flow.Sequence,3_0_2_0_2_0,NA,NA,skipped,NA,2441394.2,NA,NA,2441391.896,2441394.3000002,2023-06-02T16:34:42Z,2441407.936,NULL,Schock,mshtuko,s,biashara,kukataza,vichekesho,NA,sdf,NA,2,NA,NA,NA,NA,NA,NA,NA,NA,NA,NA,NA,NA,NA,NA,NA,NA,NA,NA,NA
3090d,Shallow Question,html.Page,3_0_2_0_2_1_0,NA,NA,form submission,11152.264000047,2441394.5,2441391.896,2441407.936,2452560.2,2452560.3000002,2023-06-02T16:34:53Z,2452562.621,NULL,Schock,mshtuko,s,biashara,kukataza,vichekesho,mshtuko,NA,NA,2,NA,NA,NA,NA,NA,NA,NA,NA,NA,NA,NA,NA,NA,NA,NA,NA,NA,NA,NA
3090d,"""Richtig""-Screen",canvas.Screen,3_0_2_0_2_1_1,NA,NA,timeout,5008.0270000002,2452562.1000001,2452545.478,2452562.621,2457554.049,2457555,2023-06-02T16:34:58Z,2457570.648,NULL,Schock,mshtuko,s,biashara,kukataza,vichekesho,NA,sdf,1,2,NA,NA,NA,NA,NA,NA,NA,NA,NA,NA,NA,NA,NA,NA,NA,NA,NA,NA,NA
3090d,"""Falsch""-Screen",canvas.Screen,3_0_2_0_2_1_2,NA,NA,skipped,NA,2457561.1000001,NA,NA,2457554.049,2457561.4000001,2023-06-02T16:34:58Z,2457570.648,NULL,Schock,mshtuko,s,biashara,kukataza,vichekesho,NA,sdf,NA,2,NA,NA,NA,NA,NA,NA,NA,NA,NA,NA,NA,NA,NA,NA,NA,NA,NA,NA,NA
3090d,shallow,flow.Sequence,3_0_2_0_2_1,NA,NA,completion,16146.113,2441394.4000001,2441391.896,2441407.936,2457554.049,2457561.9000001,2023-06-02T16:34:58Z,2457570.648,NULL,Schock,mshtuko,s,biashara,kukataza,vichekesho,NA,sdf,NA,2,NA,NA,NA,NA,NA,NA,NA,NA,NA,NA,NA,NA,NA,NA,NA,NA,NA,NA,NA
3090d,task,flow.Sequence,3_0_2_0_2,NA,NA,completion,16146.113,2441394.1000001,2441391.896,2441407.936,2457554.049,2457562.3000002,2023-06-02T16:34:58Z,2457570.648,NULL,Schock,mshtuko,s,biashara,kukataza,vichekesho,NA,sdf,NA,2,NA,NA,NA,NA,NA,NA,NA,NA,NA,NA,NA,NA,NA,NA,NA,NA,NA,NA,NA
3090d,Deep Question,html.Page,3_0_2_0_3_0_0,NA,NA,form submission,4023.7520000953,2457562.5,2457554.049,2457570.648,2461594.4000001,2461594.7,2023-06-02T16:35:02Z,2461598.199,NULL,Wechsel,ugeuzaji,d,NA,NA,NA,h,NA,NA,2,NA,NA,NA,NA,NA,NA,NA,NA,NA,NA,NA,NA,NA,NA,NA,NA,NA,NA,NA
3090d,"""Richtig""-Screen",canvas.Screen,3_0_2_0_3_0_1,NA,NA,skipped,NA,2461596.7,NA,NA,2461594.4000001,2461596.8000002,2023-06-02T16:35:02Z,2461598.199,NULL,Wechsel,ugeuzaji,d,NA,NA,NA,NA,sdf,NA,2,NA,NA,NA,NA,NA,NA,NA,NA,NA,NA,NA,NA,NA,NA,NA,NA,NA,NA,NA
3090d,"""Falsch""-Screen",canvas.Screen,3_0_2_0_3_0_2,NA,NA,timeout,4991.3590000002,2461597.4000001,2461590.337,2461598.199,2466573.383,2466574.4000001,2023-06-02T16:35:07Z,2466589.558,NULL,Wechsel,ugeuzaji,d,NA,NA,NA,NA,sdf,0,2,NA,NA,NA,NA,NA,NA,NA,NA,NA,NA,NA,NA,NA,NA,NA,NA,NA,NA,NA
3090d,deep,flow.Sequence,3_0_2_0_3_0,NA,NA,completion,9002.7349999999,2457562.5,2457554.049,2457570.648,2466573.383,2466574.7,2023-06-02T16:35:07Z,2466589.558,NULL,Wechsel,ugeuzaji,d,NA,NA,NA,NA,sdf,NA,2,NA,NA,NA,NA,NA,NA,NA,NA,NA,NA,NA,NA,NA,NA,NA,NA,NA,NA,NA
3090d,shallow,flow.Sequence,3_0_2_0_3_1,NA,NA,skipped,NA,2466574.9000001,NA,NA,2466573.383,2466575.2,2023-06-02T16:35:07Z,2466589.558,NULL,Wechsel,ugeuzaji,d,NA,NA,NA,NA,sdf,NA,2,NA,NA,NA,NA,NA,NA,NA,NA,NA,NA,NA,NA,NA,NA,NA,NA,NA,NA,NA
3090d,task,flow.Sequence,3_0_2_0_3,NA,NA,completion,9002.7349999999,2457562.4000001,2457554.049,2457570.648,2466573.383,2466575.3000002,2023-06-02T16:35:07Z,2466589.558,NULL,Wechsel,ugeuzaji,d,NA,NA,NA,NA,sdf,NA,2,NA,NA,NA,NA,NA,NA,NA,NA,NA,NA,NA,NA,NA,NA,NA,NA,NA,NA,NA
3090d,deep,flow.Sequence,3_0_2_0_4_0,NA,NA,skipped,NA,2466575.5,NA,NA,2466573.383,2466575.7,2023-06-02T16:35:07Z,2466589.558,NULL,Atmosphäre,angahewa,s,kuteseka,usahihi,kutoamini,NA,sdf,NA,2,NA,NA,NA,NA,NA,NA,NA,NA,NA,NA,NA,NA,NA,NA,NA,NA,NA,NA,NA
3090d,Shallow Question,html.Page,3_0_2_0_4_1_0,NA,NA,form submission,5261.7420001905,2466575.9000001,2466573.383,2466589.558,2471851.3000002,2471851.4000001,2023-06-02T16:35:12Z,2471858.925,NULL,Atmosphäre,angahewa,s,kuteseka,usahihi,kutoamini,angahewa,NA,NA,2,NA,NA,NA,NA,NA,NA,NA,NA,NA,NA,NA,NA,NA,NA,NA,NA,NA,NA,NA
3090d,"""Richtig""-Screen",canvas.Screen,3_0_2_0_4_1_1,NA,NA,timeout,4991.3930000002,2471853.2,2471842.079,2471858.925,2476834.323,2476835.4000001,2023-06-02T16:35:17Z,2476850.318,NULL,Atmosphäre,angahewa,s,kuteseka,usahihi,kutoamini,NA,sdf,1,2,NA,NA,NA,NA,NA,NA,NA,NA,NA,NA,NA,NA,NA,NA,NA,NA,NA,NA,NA
3090d,"""Falsch""-Screen",canvas.Screen,3_0_2_0_4_1_2,NA,NA,skipped,NA,2476840.5,NA,NA,2476834.323,2476840.8000002,2023-06-02T16:35:17Z,2476850.318,NULL,Atmosphäre,angahewa,s,kuteseka,usahihi,kutoamini,NA,sdf,NA,2,NA,NA,NA,NA,NA,NA,NA,NA,NA,NA,NA,NA,NA,NA,NA,NA,NA,NA,NA
3090d,shallow,flow.Sequence,3_0_2_0_4_1,NA,NA,completion,10244.765,2466575.8000002,2466573.383,2466589.558,2476834.323,2476841.3000002,2023-06-02T16:35:17Z,2476850.318,NULL,Atmosphäre,angahewa,s,kuteseka,usahihi,kutoamini,NA,sdf,NA,2,NA,NA,NA,NA,NA,NA,NA,NA,NA,NA,NA,NA,NA,NA,NA,NA,NA,NA,NA
3090d,task,flow.Sequence,3_0_2_0_4,NA,NA,completion,10244.765,2466575.5,2466573.383,2466589.558,2476834.323,2476841.5,2023-06-02T16:35:17Z,2476850.318,NULL,Atmosphäre,angahewa,s,kuteseka,usahihi,kutoamini,NA,sdf,NA,2,NA,NA,NA,NA,NA,NA,NA,NA,NA,NA,NA,NA,NA,NA,NA,NA,NA,NA,NA
3090d,deep,flow.Sequence,3_0_2_0_5_0,NA,NA,skipped,NA,2476841.7,NA,NA,2476834.323,2476841.8000002,2023-06-02T16:35:17Z,2476850.318,NULL,Theorie,nadharia,s,ushungi,mkutano,uwakilishi,NA,sdf,NA,2,NA,NA,NA,NA,NA,NA,NA,NA,NA,NA,NA,NA,NA,NA,NA,NA,NA,NA,NA
3090d,Shallow Question,html.Page,3_0_2_0_5_1_0,NA,NA,form submission,5457.182,2476842.1000001,2476834.323,2476850.318,2482307.5,2482307.6000001,2023-06-02T16:35:23Z,2482318.516,NULL,Theorie,nadharia,s,ushungi,mkutano,uwakilishi,nadharia,NA,NA,2,NA,NA,NA,NA,NA,NA,NA,NA,NA,NA,NA,NA,NA,NA,NA,NA,NA,NA,NA
3090d,"""Richtig""-Screen",canvas.Screen,3_0_2_0_5_1_1,NA,NA,timeout,4991.338,2482309.3000002,2482306.027,2482318.516,2487293.656,2487294.8000002,2023-06-02T16:35:28Z,2487309.854,NULL,Theorie,nadharia,s,ushungi,mkutano,uwakilishi,NA,sdf,1,2,NA,NA,NA,NA,NA,NA,NA,NA,NA,NA,NA,NA,NA,NA,NA,NA,NA,NA,NA
3090d,"""Falsch""-Screen",canvas.Screen,3_0_2_0_5_1_2,NA,NA,skipped,NA,2487300.3000002,NA,NA,2487293.656,2487300.7,2023-06-02T16:35:28Z,2487309.854,NULL,Theorie,nadharia,s,ushungi,mkutano,uwakilishi,NA,sdf,NA,2,NA,NA,NA,NA,NA,NA,NA,NA,NA,NA,NA,NA,NA,NA,NA,NA,NA,NA,NA
3090d,shallow,flow.Sequence,3_0_2_0_5_1,NA,NA,completion,10443.338,2476842,2476834.323,2476850.318,2487293.656,2487301,2023-06-02T16:35:28Z,2487309.854,NULL,Theorie,nadharia,s,ushungi,mkutano,uwakilishi,NA,sdf,NA,2,NA,NA,NA,NA,NA,NA,NA,NA,NA,NA,NA,NA,NA,NA,NA,NA,NA,NA,NA
3090d,task,flow.Sequence,3_0_2_0_5,NA,NA,completion,10443.338,2476841.6000001,2476834.323,2476850.318,2487293.656,2487301.2,2023-06-02T16:35:28Z,2487309.854,NULL,Theorie,nadharia,s,ushungi,mkutano,uwakilishi,NA,sdf,NA,2,NA,NA,NA,NA,NA,NA,NA,NA,NA,NA,NA,NA,NA,NA,NA,NA,NA,NA,NA
3090d,deep,flow.Sequence,3_0_2_0_6_0,NA,NA,skipped,NA,2487301.4000001,NA,NA,2487293.656,2487301.6000001,2023-06-02T16:35:28Z,2487309.854,NULL,Flexibilität,kubadilika,s,enjini,usikilivu,hesabu,NA,sdf,NA,2,NA,NA,NA,NA,NA,NA,NA,NA,NA,NA,NA,NA,NA,NA,NA,NA,NA,NA,NA
3090d,Shallow Question,html.Page,3_0_2_0_6_1_0,NA,NA,form submission,7717.3460000479,2487301.8000002,2487293.656,2487309.854,2495027.2,2495027.4000001,2023-06-02T16:35:35Z,2495035.619,NULL,Flexibilität,kubadilika,s,enjini,usikilivu,hesabu,hesabu,NA,NA,2,NA,NA,NA,NA,NA,NA,NA,NA,NA,NA,NA,NA,NA,NA,NA,NA,NA,NA,NA
3090d,"""Richtig""-Screen",canvas.Screen,3_0_2_0_6_1_1,NA,NA,skipped,NA,2495029.2,NA,NA,2495027.2,2495029.3000002,2023-06-02T16:35:35Z,2495035.619,NULL,Flexibilität,kubadilika,s,enjini,usikilivu,hesabu,NA,sdf,NA,2,NA,NA,NA,NA,NA,NA,NA,NA,NA,NA,NA,NA,NA,NA,NA,NA,NA,NA,NA
3090d,"""Falsch""-Screen",canvas.Screen,3_0_2_0_6_1_2,NA,NA,timeout,5003.9399999999,2495029.8000002,2495015.005,2495035.619,2500023.12,2500024.1000001,2023-06-02T16:35:40Z,2500039.559,NULL,Flexibilität,kubadilika,s,enjini,usikilivu,hesabu,NA,sdf,0,2,NA,NA,NA,NA,NA,NA,NA,NA,NA,NA,NA,NA,NA,NA,NA,NA,NA,NA,NA
3090d,shallow,flow.Sequence,3_0_2_0_6_1,NA,NA,completion,12713.266,2487301.7,2487293.656,2487309.854,2500023.12,2500024.5,2023-06-02T16:35:40Z,2500039.559,NULL,Flexibilität,kubadilika,s,enjini,usikilivu,hesabu,NA,sdf,NA,2,NA,NA,NA,NA,NA,NA,NA,NA,NA,NA,NA,NA,NA,NA,NA,NA,NA,NA,NA
3090d,task,flow.Sequence,3_0_2_0_6,NA,NA,completion,12713.266,2487301.4000001,2487293.656,2487309.854,2500023.12,2500024.7,2023-06-02T16:35:40Z,2500039.559,NULL,Flexibilität,kubadilika,s,enjini,usikilivu,hesabu,NA,sdf,NA,2,NA,NA,NA,NA,NA,NA,NA,NA,NA,NA,NA,NA,NA,NA,NA,NA,NA,NA,NA
3090d,Deep Question,html.Page,3_0_2_0_7_0_0,NA,NA,form submission,12912.341000095,2500025,2500023.12,2500039.559,2512951.9000001,2512952.1000001,2023-06-02T16:35:53Z,2512969.387,NULL,Verpackung,ufungaji,d,NA,NA,NA,ufungaji,NA,NA,2,NA,NA,NA,NA,NA,NA,NA,NA,NA,NA,NA,NA,NA,NA,NA,NA,NA,NA,NA
3090d,"""Richtig""-Screen",canvas.Screen,3_0_2_0_7_0_1,NA,NA,timeout,4998.8929999997,2512955.2,2512940.416,2512969.387,2517952.058,2517953.8000002,2023-06-02T16:35:58Z,2517968.28,NULL,Verpackung,ufungaji,d,NA,NA,NA,NA,sdf,1,2,NA,NA,NA,NA,NA,NA,NA,NA,NA,NA,NA,NA,NA,NA,NA,NA,NA,NA,NA
3090d,"""Falsch""-Screen",canvas.Screen,3_0_2_0_7_0_2,NA,NA,skipped,NA,2517959.3000002,NA,NA,2517952.058,2517960.1000001,2023-06-02T16:35:58Z,2517968.28,NULL,Verpackung,ufungaji,d,NA,NA,NA,NA,sdf,NA,2,NA,NA,NA,NA,NA,NA,NA,NA,NA,NA,NA,NA,NA,NA,NA,NA,NA,NA,NA
3090d,deep,flow.Sequence,3_0_2_0_7_0,NA,NA,completion,17912.499,2500024.9000001,2500023.12,2500039.559,2517952.058,2517961,2023-06-02T16:35:58Z,2517968.28,NULL,Verpackung,ufungaji,d,NA,NA,NA,NA,sdf,NA,2,NA,NA,NA,NA,NA,NA,NA,NA,NA,NA,NA,NA,NA,NA,NA,NA,NA,NA,NA
3090d,shallow,flow.Sequence,3_0_2_0_7_1,NA,NA,skipped,NA,2517961.2,NA,NA,2517952.058,2517961.6000001,2023-06-02T16:35:58Z,2517968.28,NULL,Verpackung,ufungaji,d,NA,NA,NA,NA,sdf,NA,2,NA,NA,NA,NA,NA,NA,NA,NA,NA,NA,NA,NA,NA,NA,NA,NA,NA,NA,NA
3090d,task,flow.Sequence,3_0_2_0_7,NA,NA,completion,17912.499,2500024.9000001,2500023.12,2500039.559,2517952.058,2517961.9000001,2023-06-02T16:35:58Z,2517968.28,NULL,Verpackung,ufungaji,d,NA,NA,NA,NA,sdf,NA,2,NA,NA,NA,NA,NA,NA,NA,NA,NA,NA,NA,NA,NA,NA,NA,NA,NA,NA,NA
3090d,block,flow.Loop,3_0_2_0,NA,NA,completion,114403.279,2403539.6000001,2403527.072,2403548.779,2517952.058,2517962.2,2023-06-02T16:35:58Z,2517968.28,NULL,NA,NA,NA,NA,NA,NA,NA,sdf,NA,2,NA,NA,NA,NA,NA,NA,NA,NA,NA,NA,NA,NA,NA,NA,NA,NA,NA,NA,NA
3090d,weiter,canvas.Screen,3_0_2_1,sdf,keypress(Space),response,1727.0200001909,2517962.4000001,2517952.058,2517968.28,2519695.3000002,2519696.9000001,2023-06-02T16:36:00Z,2519797.064,NULL,NA,NA,NA,NA,NA,NA,NA,sdf,NA,2,NA,NA,NA,NA,NA,NA,NA,NA,NA,NA,NA,NA,NA,NA,NA,NA,NA,NA,NA
3090d,check continue,flow.Sequence,3_0_2,NA,NA,completion,116146.52100019,2403539.5,2403527.072,2403548.779,2519695.3000002,2519697.5,2023-06-02T16:36:00Z,2519797.064,NULL,NA,NA,NA,NA,NA,NA,NA,sdf,NA,2,NA,NA,NA,NA,NA,NA,NA,NA,NA,NA,NA,NA,NA,NA,NA,NA,NA,NA,NA
3090d,Deep Question,html.Page,3_0_3_0_0_0_0,NA,NA,form submission,12546.036000143,2519795,2519783.392,2519797.064,2532343.1000001,2532343.3000002,2023-06-02T16:36:13Z,2532348.026,NULL,Erneuerung,ukarabati,d,NA,NA,NA,ukurabati,NA,NA,3,NA,NA,NA,NA,NA,NA,NA,NA,NA,NA,NA,NA,NA,NA,NA,NA,NA,NA,NA
3090d,"""Richtig""-Screen",canvas.Screen,3_0_3_0_0_0_1,NA,NA,skipped,NA,2532345.2,NA,NA,2532343.1000001,2532345.5,2023-06-02T16:36:13Z,2532348.026,NULL,Erneuerung,ukarabati,d,NA,NA,NA,NA,qt,NA,3,NA,NA,NA,NA,NA,NA,NA,NA,NA,NA,NA,NA,NA,NA,NA,NA,NA,NA,NA
3090d,"""Falsch""-Screen",canvas.Screen,3_0_3_0_0_0_2,NA,NA,timeout,4994.4539999999,2532346.4000001,2532331.468,2532348.026,2537326.229,2537327.2,2023-06-02T16:36:18Z,2537342.48,NULL,Erneuerung,ukarabati,d,NA,NA,NA,NA,qt,0,3,NA,NA,NA,NA,NA,NA,NA,NA,NA,NA,NA,NA,NA,NA,NA,NA,NA,NA,NA
3090d,deep,flow.Sequence,3_0_3_0_0_0,NA,NA,completion,17529.165,2519795,2519783.392,2519797.064,2537326.229,2537327.5,2023-06-02T16:36:18Z,2537342.48,NULL,Erneuerung,ukarabati,d,NA,NA,NA,NA,qt,NA,3,NA,NA,NA,NA,NA,NA,NA,NA,NA,NA,NA,NA,NA,NA,NA,NA,NA,NA,NA
3090d,shallow,flow.Sequence,3_0_3_0_0_1,NA,NA,skipped,NA,2537327.7,NA,NA,2537326.229,2537327.9000001,2023-06-02T16:36:18Z,2537342.48,NULL,Erneuerung,ukarabati,d,NA,NA,NA,NA,qt,NA,3,NA,NA,NA,NA,NA,NA,NA,NA,NA,NA,NA,NA,NA,NA,NA,NA,NA,NA,NA
3090d,task,flow.Sequence,3_0_3_0_0,NA,NA,completion,17529.165,2519794.9000001,2519783.392,2519797.064,2537326.229,2537328,2023-06-02T16:36:18Z,2537342.48,NULL,Erneuerung,ukarabati,d,NA,NA,NA,NA,qt,NA,3,NA,NA,NA,NA,NA,NA,NA,NA,NA,NA,NA,NA,NA,NA,NA,NA,NA,NA,NA
3090d,Deep Question,html.Page,3_0_3_0_1_0_0,NA,NA,form submission,10196.920000095,2537328.2,2537326.229,2537342.48,2547539.4000001,2547539.5,2023-06-02T16:36:28Z,2547548.111,NULL,Verpackung,ufungaji,d,NA,NA,NA,ufungaji,NA,NA,3,NA,NA,NA,NA,NA,NA,NA,NA,NA,NA,NA,NA,NA,NA,NA,NA,NA,NA,NA
3090d,"""Richtig""-Screen",canvas.Screen,3_0_3_0_1_0_1,NA,NA,timeout,4994.2599999998,2547541.5,2547536.126,2547548.111,2552526.269,2552527.2,2023-06-02T16:36:33Z,2552542.371,NULL,Verpackung,ufungaji,d,NA,NA,NA,NA,qt,1,3,NA,NA,NA,NA,NA,NA,NA,NA,NA,NA,NA,NA,NA,NA,NA,NA,NA,NA,NA
3090d,"""Falsch""-Screen",canvas.Screen,3_0_3_0_1_0_2,NA,NA,skipped,NA,2552532.2,NA,NA,2552526.269,2552532.6000001,2023-06-02T16:36:33Z,2552542.371,NULL,Verpackung,ufungaji,d,NA,NA,NA,NA,qt,NA,3,NA,NA,NA,NA,NA,NA,NA,NA,NA,NA,NA,NA,NA,NA,NA,NA,NA,NA,NA
3090d,deep,flow.Sequence,3_0_3_0_1_0,NA,NA,completion,15183.789,2537328.1000001,2537326.229,2537342.48,2552526.269,2552533,2023-06-02T16:36:33Z,2552542.371,NULL,Verpackung,ufungaji,d,NA,NA,NA,NA,qt,NA,3,NA,NA,NA,NA,NA,NA,NA,NA,NA,NA,NA,NA,NA,NA,NA,NA,NA,NA,NA
3090d,shallow,flow.Sequence,3_0_3_0_1_1,NA,NA,skipped,NA,2552533.1000001,NA,NA,2552526.269,2552533.3000002,2023-06-02T16:36:33Z,2552542.371,NULL,Verpackung,ufungaji,d,NA,NA,NA,NA,qt,NA,3,NA,NA,NA,NA,NA,NA,NA,NA,NA,NA,NA,NA,NA,NA,NA,NA,NA,NA,NA
3090d,task,flow.Sequence,3_0_3_0_1,NA,NA,completion,15183.789,2537328.1000001,2537326.229,2537342.48,2552526.269,2552533.4000001,2023-06-02T16:36:33Z,2552542.371,NULL,Verpackung,ufungaji,d,NA,NA,NA,NA,qt,NA,3,NA,NA,NA,NA,NA,NA,NA,NA,NA,NA,NA,NA,NA,NA,NA,NA,NA,NA,NA
3090d,deep,flow.Sequence,3_0_3_0_2_0,NA,NA,skipped,NA,2552533.6000001,NA,NA,2552526.269,2552533.7,2023-06-02T16:36:33Z,2552542.371,NULL,Atmosphäre,angahewa,s,kuteseka,usahihi,kutoamini,NA,qt,NA,3,NA,NA,NA,NA,NA,NA,NA,NA,NA,NA,NA,NA,NA,NA,NA,NA,NA,NA,NA
3090d,Shallow Question,html.Page,3_0_3_0_2_1_0,NA,NA,form submission,5537.4290001909,2552533.9000001,2552526.269,2552542.371,2558079.8000002,2558080.1000001,2023-06-02T16:36:38Z,2558085.145,NULL,Atmosphäre,angahewa,s,kuteseka,usahihi,kutoamini,angahewa,NA,NA,3,NA,NA,NA,NA,NA,NA,NA,NA,NA,NA,NA,NA,NA,NA,NA,NA,NA,NA,NA
3090d,"""Richtig""-Screen",canvas.Screen,3_0_3_0_2_1_1,NA,NA,timeout,5000.2009999999,2558081.8000002,2558072.628,2558085.145,2563068.05,2563069.3000002,2023-06-02T16:36:43Z,2563085.346,NULL,Atmosphäre,angahewa,s,kuteseka,usahihi,kutoamini,NA,qt,1,3,NA,NA,NA,NA,NA,NA,NA,NA,NA,NA,NA,NA,NA,NA,NA,NA,NA,NA,NA
3090d,"""Falsch""-Screen",canvas.Screen,3_0_3_0_2_1_2,NA,NA,skipped,NA,2563074.7,NA,NA,2563068.05,2563075.1000001,2023-06-02T16:36:43Z,2563085.346,NULL,Atmosphäre,angahewa,s,kuteseka,usahihi,kutoamini,NA,qt,NA,3,NA,NA,NA,NA,NA,NA,NA,NA,NA,NA,NA,NA,NA,NA,NA,NA,NA,NA,NA
3090d,shallow,flow.Sequence,3_0_3_0_2_1,NA,NA,completion,10525.679,2552533.8000002,2552526.269,2552542.371,2563068.05,2563075.4000001,2023-06-02T16:36:43Z,2563085.346,NULL,Atmosphäre,angahewa,s,kuteseka,usahihi,kutoamini,NA,qt,NA,3,NA,NA,NA,NA,NA,NA,NA,NA,NA,NA,NA,NA,NA,NA,NA,NA,NA,NA,NA
3090d,task,flow.Sequence,3_0_3_0_2,NA,NA,completion,10525.679,2552533.6000001,2552526.269,2552542.371,2563068.05,2563075.8000002,2023-06-02T16:36:43Z,2563085.346,NULL,Atmosphäre,angahewa,s,kuteseka,usahihi,kutoamini,NA,qt,NA,3,NA,NA,NA,NA,NA,NA,NA,NA,NA,NA,NA,NA,NA,NA,NA,NA,NA,NA,NA
3090d,deep,flow.Sequence,3_0_3_0_3_0,NA,NA,skipped,NA,2563075.8000002,NA,NA,2563068.05,2563076,2023-06-02T16:36:43Z,2563085.346,NULL,Theorie,nadharia,s,ushungi,mkutano,uwakilishi,NA,qt,NA,3,NA,NA,NA,NA,NA,NA,NA,NA,NA,NA,NA,NA,NA,NA,NA,NA,NA,NA,NA
3090d,Shallow Question,html.Page,3_0_3_0_3_1_0,NA,NA,form submission,5039.2540001431,2563076.2,2563068.05,2563085.346,2568124.6000001,2568124.8000002,2023-06-02T16:36:48Z,2568128.419,NULL,Theorie,nadharia,s,ushungi,mkutano,uwakilishi,nadharia,NA,NA,3,NA,NA,NA,NA,NA,NA,NA,NA,NA,NA,NA,NA,NA,NA,NA,NA,NA,NA,NA
3090d,"""Richtig""-Screen",canvas.Screen,3_0_3_0_3_1_1,NA,NA,timeout,5003.3769999999,2568126.6000001,2568115.339,2568128.419,2573115.696,2573116.7,2023-06-02T16:36:53Z,2573131.796,NULL,Theorie,nadharia,s,ushungi,mkutano,uwakilishi,NA,qt,1,3,NA,NA,NA,NA,NA,NA,NA,NA,NA,NA,NA,NA,NA,NA,NA,NA,NA,NA,NA
3090d,"""Falsch""-Screen",canvas.Screen,3_0_3_0_3_1_2,NA,NA,skipped,NA,2573121.9000001,NA,NA,2573115.696,2573122.2,2023-06-02T16:36:53Z,2573131.796,NULL,Theorie,nadharia,s,ushungi,mkutano,uwakilishi,NA,qt,NA,3,NA,NA,NA,NA,NA,NA,NA,NA,NA,NA,NA,NA,NA,NA,NA,NA,NA,NA,NA
3090d,shallow,flow.Sequence,3_0_3_0_3_1,NA,NA,completion,10030.35,2563076.2,2563068.05,2563085.346,2573115.696,2573122.7,2023-06-02T16:36:53Z,2573131.796,NULL,Theorie,nadharia,s,ushungi,mkutano,uwakilishi,NA,qt,NA,3,NA,NA,NA,NA,NA,NA,NA,NA,NA,NA,NA,NA,NA,NA,NA,NA,NA,NA,NA
3090d,task,flow.Sequence,3_0_3_0_3,NA,NA,completion,10030.35,2563075.8000002,2563068.05,2563085.346,2573115.696,2573123,2023-06-02T16:36:53Z,2573131.796,NULL,Theorie,nadharia,s,ushungi,mkutano,uwakilishi,NA,qt,NA,3,NA,NA,NA,NA,NA,NA,NA,NA,NA,NA,NA,NA,NA,NA,NA,NA,NA,NA,NA
3090d,deep,flow.Sequence,3_0_3_0_4_0,NA,NA,skipped,NA,2573123.2,NA,NA,2573115.696,2573123.3000002,2023-06-02T16:36:53Z,2573131.796,NULL,Schock,mshtuko,s,biashara,kukataza,vichekesho,NA,qt,NA,3,NA,NA,NA,NA,NA,NA,NA,NA,NA,NA,NA,NA,NA,NA,NA,NA,NA,NA,NA
3090d,Shallow Question,html.Page,3_0_3_0_4_1_0,NA,NA,form submission,4098.5040001906,2573123.5,2573115.696,2573131.796,2577230.3000002,2577230.5,2023-06-02T16:36:57Z,2577242.37,NULL,Schock,mshtuko,s,biashara,kukataza,vichekesho,mshtuko,NA,NA,3,NA,NA,NA,NA,NA,NA,NA,NA,NA,NA,NA,NA,NA,NA,NA,NA,NA,NA,NA
3090d,"""Richtig""-Screen",canvas.Screen,3_0_3_0_4_1_1,NA,NA,timeout,4999.4359999998,2577232.2,2577225.859,2577242.37,2582225.68,2582226.7,2023-06-02T16:37:02Z,2582241.806,NULL,Schock,mshtuko,s,biashara,kukataza,vichekesho,NA,qt,1,3,NA,NA,NA,NA,NA,NA,NA,NA,NA,NA,NA,NA,NA,NA,NA,NA,NA,NA,NA
3090d,"""Falsch""-Screen",canvas.Screen,3_0_3_0_4_1_2,NA,NA,skipped,NA,2582232.1000001,NA,NA,2582225.68,2582232.5,2023-06-02T16:37:02Z,2582241.806,NULL,Schock,mshtuko,s,biashara,kukataza,vichekesho,NA,qt,NA,3,NA,NA,NA,NA,NA,NA,NA,NA,NA,NA,NA,NA,NA,NA,NA,NA,NA,NA,NA
3090d,shallow,flow.Sequence,3_0_3_0_4_1,NA,NA,completion,9093.8840000001,2573123.4000001,2573115.696,2573131.796,2582225.68,2582233,2023-06-02T16:37:02Z,2582241.806,NULL,Schock,mshtuko,s,biashara,kukataza,vichekesho,NA,qt,NA,3,NA,NA,NA,NA,NA,NA,NA,NA,NA,NA,NA,NA,NA,NA,NA,NA,NA,NA,NA
3090d,task,flow.Sequence,3_0_3_0_4,NA,NA,completion,9093.8840000001,2573123.1000001,2573115.696,2573131.796,2582225.68,2582233.2,2023-06-02T16:37:02Z,2582241.806,NULL,Schock,mshtuko,s,biashara,kukataza,vichekesho,NA,qt,NA,3,NA,NA,NA,NA,NA,NA,NA,NA,NA,NA,NA,NA,NA,NA,NA,NA,NA,NA,NA
3090d,deep,flow.Sequence,3_0_3_0_5_0,NA,NA,skipped,NA,2582233.4000001,NA,NA,2582225.68,2582233.5,2023-06-02T16:37:02Z,2582241.806,NULL,Flexibilität,kubadilika,s,enjini,usikilivu,hesabu,NA,qt,NA,3,NA,NA,NA,NA,NA,NA,NA,NA,NA,NA,NA,NA,NA,NA,NA,NA,NA,NA,NA
3090d,Shallow Question,html.Page,3_0_3_0_5_1_0,NA,NA,form submission,3872.9940001909,2582233.8000002,2582225.68,2582241.806,2586114.8000002,2586114.9000001,2023-06-02T16:37:06Z,2586115.454,NULL,Flexibilität,kubadilika,s,enjini,usikilivu,hesabu,kubadilika,NA,NA,3,NA,NA,NA,NA,NA,NA,NA,NA,NA,NA,NA,NA,NA,NA,NA,NA,NA,NA,NA
3090d,"""Richtig""-Screen",canvas.Screen,3_0_3_0_5_1_1,NA,NA,timeout,5003.2039999999,2586116.7,2586111.372,2586115.454,2591102.491,2591103.5,2023-06-02T16:37:11Z,2591118.658,NULL,Flexibilität,kubadilika,s,enjini,usikilivu,hesabu,NA,qt,1,3,NA,NA,NA,NA,NA,NA,NA,NA,NA,NA,NA,NA,NA,NA,NA,NA,NA,NA,NA
3090d,"""Falsch""-Screen",canvas.Screen,3_0_3_0_5_1_2,NA,NA,skipped,NA,2591108.6000001,NA,NA,2591102.491,2591109,2023-06-02T16:37:11Z,2591118.658,NULL,Flexibilität,kubadilika,s,enjini,usikilivu,hesabu,NA,qt,NA,3,NA,NA,NA,NA,NA,NA,NA,NA,NA,NA,NA,NA,NA,NA,NA,NA,NA,NA,NA
3090d,shallow,flow.Sequence,3_0_3_0_5_1,NA,NA,completion,8860.6850000001,2582233.7,2582225.68,2582241.806,2591102.491,2591109.5,2023-06-02T16:37:11Z,2591118.658,NULL,Flexibilität,kubadilika,s,enjini,usikilivu,hesabu,NA,qt,NA,3,NA,NA,NA,NA,NA,NA,NA,NA,NA,NA,NA,NA,NA,NA,NA,NA,NA,NA,NA
3090d,task,flow.Sequence,3_0_3_0_5,NA,NA,completion,8860.6850000001,2582233.3000002,2582225.68,2582241.806,2591102.491,2591109.8000002,2023-06-02T16:37:11Z,2591118.658,NULL,Flexibilität,kubadilika,s,enjini,usikilivu,hesabu,NA,qt,NA,3,NA,NA,NA,NA,NA,NA,NA,NA,NA,NA,NA,NA,NA,NA,NA,NA,NA,NA,NA
3090d,Deep Question,html.Page,3_0_3_0_6_0_0,NA,NA,form submission,16446.742000096,2591110,2591102.491,2591118.658,2607565.4000001,2607565.7,2023-06-02T16:37:28Z,2607581.373,NULL,Wechsel,ugeuzaji,d,NA,NA,NA,uguezaji,NA,NA,3,NA,NA,NA,NA,NA,NA,NA,NA,NA,NA,NA,NA,NA,NA,NA,NA,NA,NA,NA
3090d,"""Richtig""-Screen",canvas.Screen,3_0_3_0_6_0_1,NA,NA,skipped,NA,2607568.4000001,NA,NA,2607565.4000001,2607568.6000001,2023-06-02T16:37:28Z,2607581.373,NULL,Wechsel,ugeuzaji,d,NA,NA,NA,NA,qt,NA,3,NA,NA,NA,NA,NA,NA,NA,NA,NA,NA,NA,NA,NA,NA,NA,NA,NA,NA,NA
3090d,"""Falsch""-Screen",canvas.Screen,3_0_3_0_6_0_2,NA,NA,timeout,4999.1859999998,2607569.3000002,2607560.507,2607581.373,2612564.537,2612565.6000001,2023-06-02T16:37:33Z,2612580.559,NULL,Wechsel,ugeuzaji,d,NA,NA,NA,NA,qt,0,3,NA,NA,NA,NA,NA,NA,NA,NA,NA,NA,NA,NA,NA,NA,NA,NA,NA,NA,NA
3090d,deep,flow.Sequence,3_0_3_0_6_0,NA,NA,completion,21445.879,2591109.9000001,2591102.491,2591118.658,2612564.537,2612566,2023-06-02T16:37:33Z,2612580.559,NULL,Wechsel,ugeuzaji,d,NA,NA,NA,NA,qt,NA,3,NA,NA,NA,NA,NA,NA,NA,NA,NA,NA,NA,NA,NA,NA,NA,NA,NA,NA,NA
3090d,shallow,flow.Sequence,3_0_3_0_6_1,NA,NA,skipped,NA,2612566.3000002,NA,NA,2612564.537,2612566.4000001,2023-06-02T16:37:33Z,2612580.559,NULL,Wechsel,ugeuzaji,d,NA,NA,NA,NA,qt,NA,3,NA,NA,NA,NA,NA,NA,NA,NA,NA,NA,NA,NA,NA,NA,NA,NA,NA,NA,NA
3090d,task,flow.Sequence,3_0_3_0_6,NA,NA,completion,21445.879,2591109.9000001,2591102.491,2591118.658,2612564.537,2612566.6000001,2023-06-02T16:37:33Z,2612580.559,NULL,Wechsel,ugeuzaji,d,NA,NA,NA,NA,qt,NA,3,NA,NA,NA,NA,NA,NA,NA,NA,NA,NA,NA,NA,NA,NA,NA,NA,NA,NA,NA
3090d,Deep Question,html.Page,3_0_3_0_7_0_0,NA,NA,form submission,7535.6410000478,2612566.9000001,2612564.537,2612580.559,2620116.2,2620116.4000001,2023-06-02T16:37:40Z,2620132.844,NULL,Hoffnung,matarajio,d,NA,NA,NA,j,NA,NA,3,NA,NA,NA,NA,NA,NA,NA,NA,NA,NA,NA,NA,NA,NA,NA,NA,NA,NA,NA
3090d,"""Richtig""-Screen",canvas.Screen,3_0_3_0_7_0_1,NA,NA,skipped,NA,2620118.4000001,NA,NA,2620116.2,2620118.4000001,2023-06-02T16:37:40Z,2620132.844,NULL,Hoffnung,matarajio,d,NA,NA,NA,NA,qt,NA,3,NA,NA,NA,NA,NA,NA,NA,NA,NA,NA,NA,NA,NA,NA,NA,NA,NA,NA,NA
3090d,"""Falsch""-Screen",canvas.Screen,3_0_3_0_7_0_2,NA,NA,timeout,4995.7749999999,2620119,2620099.867,2620132.844,2625112.043,2625113,2023-06-02T16:37:45Z,2625128.619,NULL,Hoffnung,matarajio,d,NA,NA,NA,NA,qt,0,3,NA,NA,NA,NA,NA,NA,NA,NA,NA,NA,NA,NA,NA,NA,NA,NA,NA,NA,NA
3090d,deep,flow.Sequence,3_0_3_0_7_0,NA,NA,completion,12531.484,2612566.8000002,2612564.537,2612580.559,2625112.043,2625113.4000001,2023-06-02T16:37:45Z,2625128.619,NULL,Hoffnung,matarajio,d,NA,NA,NA,NA,qt,NA,3,NA,NA,NA,NA,NA,NA,NA,NA,NA,NA,NA,NA,NA,NA,NA,NA,NA,NA,NA
3090d,shallow,flow.Sequence,3_0_3_0_7_1,NA,NA,skipped,NA,2625113.6000001,NA,NA,2625112.043,2625113.7,2023-06-02T16:37:45Z,2625128.619,NULL,Hoffnung,matarajio,d,NA,NA,NA,NA,qt,NA,3,NA,NA,NA,NA,NA,NA,NA,NA,NA,NA,NA,NA,NA,NA,NA,NA,NA,NA,NA
3090d,task,flow.Sequence,3_0_3_0_7,NA,NA,completion,12531.484,2612566.8000002,2612564.537,2612580.559,2625112.043,2625114,2023-06-02T16:37:45Z,2625128.619,NULL,Hoffnung,matarajio,d,NA,NA,NA,NA,qt,NA,3,NA,NA,NA,NA,NA,NA,NA,NA,NA,NA,NA,NA,NA,NA,NA,NA,NA,NA,NA
3090d,block,flow.Loop,3_0_3_0,NA,NA,completion,105314.979,2519794.9000001,2519783.392,2519797.064,2625112.043,2625114.2,2023-06-02T16:37:45Z,2625128.619,NULL,NA,NA,NA,NA,NA,NA,NA,qt,NA,3,NA,NA,NA,NA,NA,NA,NA,NA,NA,NA,NA,NA,NA,NA,NA,NA,NA,NA,NA
3090d,weiter,canvas.Screen,3_0_3_1,sdf,keypress(Space),response,1457.4810001431,2625114.4000001,2625112.043,2625128.619,2626586.1000001,2626587.4000001,2023-06-02T16:37:47Z,2627211.452,NULL,NA,NA,NA,NA,NA,NA,NA,qt,NA,3,NA,NA,NA,NA,NA,NA,NA,NA,NA,NA,NA,NA,NA,NA,NA,NA,NA,NA,NA
3090d,check continue,flow.Sequence,3_0_3,NA,NA,completion,106789.03600014,2519794.8000002,2519783.392,2519797.064,2626586.1000001,2626587.7,2023-06-02T16:37:47Z,2627211.452,NULL,NA,NA,NA,NA,NA,NA,NA,qt,NA,3,NA,NA,NA,NA,NA,NA,NA,NA,NA,NA,NA,NA,NA,NA,NA,NA,NA,NA,NA
3090d,check continue,flow.Sequence,3_0_4,NA,NA,skipped,NA,2626686.2,NA,NA,2626586.1000001,2626686.5,2023-06-02T16:37:47Z,2627211.452,NULL,NA,NA,NA,NA,NA,NA,NA,sd,NA,4,NA,NA,NA,NA,NA,NA,NA,NA,NA,NA,NA,NA,NA,NA,NA,NA,NA,NA,NA
3090d,check continue,flow.Sequence,3_0_5,NA,NA,skipped,NA,2626734.2,NA,NA,2626586.1000001,2626734.4000001,2023-06-02T16:37:47Z,2627211.452,NULL,NA,NA,NA,NA,NA,NA,NA,sdf,NA,5,NA,NA,NA,NA,NA,NA,NA,NA,NA,NA,NA,NA,NA,NA,NA,NA,NA,NA,NA
3090d,check continue,flow.Sequence,3_0_6,NA,NA,skipped,NA,2626756.9000001,NA,NA,2626586.1000001,2626757,2023-06-02T16:37:47Z,2627211.452,NULL,NA,NA,NA,NA,NA,NA,NA,dfs,NA,6,NA,NA,NA,NA,NA,NA,NA,NA,NA,NA,NA,NA,NA,NA,NA,NA,NA,NA,NA
3090d,check continue,flow.Sequence,3_0_7,NA,NA,skipped,NA,2626783.3000002,NA,NA,2626586.1000001,2626787.1000001,2023-06-02T16:37:47Z,2627211.452,NULL,NA,NA,NA,NA,NA,NA,NA,df,NA,7,NA,NA,NA,NA,NA,NA,NA,NA,NA,NA,NA,NA,NA,NA,NA,NA,NA,NA,NA
3090d,check continue,flow.Sequence,3_0_8,NA,NA,skipped,NA,2626810.1000001,NA,NA,2626586.1000001,2626810.2,2023-06-02T16:37:47Z,2627211.452,NULL,NA,NA,NA,NA,NA,NA,NA,dfs,NA,8,NA,NA,NA,NA,NA,NA,NA,NA,NA,NA,NA,NA,NA,NA,NA,NA,NA,NA,NA
3090d,check continue,flow.Sequence,3_0_9,NA,NA,skipped,NA,2626833.6000001,NA,NA,2626586.1000001,2626833.7,2023-06-02T16:37:47Z,2627211.452,NULL,NA,NA,NA,NA,NA,NA,NA,dsf,NA,9,NA,NA,NA,NA,NA,NA,NA,NA,NA,NA,NA,NA,NA,NA,NA,NA,NA,NA,NA
3090d,check continue,flow.Sequence,3_0_10,NA,NA,skipped,NA,2626852.8000002,NA,NA,2626586.1000001,2626852.8000002,2023-06-02T16:37:47Z,2627211.452,NULL,NA,NA,NA,NA,NA,NA,NA,df,NA,10,NA,NA,NA,NA,NA,NA,NA,NA,NA,NA,NA,NA,NA,NA,NA,NA,NA,NA,NA
3090d,check continue,flow.Sequence,3_0_11,NA,NA,skipped,NA,2626872.6000001,NA,NA,2626586.1000001,2626872.7,2023-06-02T16:37:47Z,2627211.452,NULL,NA,NA,NA,NA,NA,NA,NA,dfs,NA,11,NA,NA,NA,NA,NA,NA,NA,NA,NA,NA,NA,NA,NA,NA,NA,NA,NA,NA,NA
3090d,check continue,flow.Sequence,3_0_12,NA,NA,skipped,NA,2626897.6000001,NA,NA,2626586.1000001,2626897.8000002,2023-06-02T16:37:47Z,2627211.452,NULL,NA,NA,NA,NA,NA,NA,NA,dsf,NA,12,NA,NA,NA,NA,NA,NA,NA,NA,NA,NA,NA,NA,NA,NA,NA,NA,NA,NA,NA
3090d,check continue,flow.Sequence,3_0_13,NA,NA,skipped,NA,2626919.2,NA,NA,2626586.1000001,2626919.3000002,2023-06-02T16:37:47Z,2627211.452,NULL,NA,NA,NA,NA,NA,NA,NA,dsf,NA,13,NA,NA,NA,NA,NA,NA,NA,NA,NA,NA,NA,NA,NA,NA,NA,NA,NA,NA,NA
3090d,check continue,flow.Sequence,3_0_14,NA,NA,skipped,NA,2626938.9000001,NA,NA,2626586.1000001,2626939,2023-06-02T16:37:47Z,2627211.452,NULL,NA,NA,NA,NA,NA,NA,NA,NA,NA,14,NA,NA,NA,NA,NA,NA,NA,NA,NA,NA,NA,NA,NA,NA,NA,NA,NA,NA,NA
3090d,check continue,flow.Sequence,3_0_15,NA,NA,skipped,NA,2626961.8000002,NA,NA,2626586.1000001,2626962,2023-06-02T16:37:47Z,2627211.452,NULL,NA,NA,NA,NA,NA,NA,NA,NA,NA,15,NA,NA,NA,NA,NA,NA,NA,NA,NA,NA,NA,NA,NA,NA,NA,NA,NA,NA,NA
3090d,check continue,flow.Sequence,3_0_16,NA,NA,skipped,NA,2626982.2,NA,NA,2626586.1000001,2626982.3000002,2023-06-02T16:37:47Z,2627211.452,NULL,NA,NA,NA,NA,NA,NA,NA,NA,NA,16,NA,NA,NA,NA,NA,NA,NA,NA,NA,NA,NA,NA,NA,NA,NA,NA,NA,NA,NA
3090d,check continue,flow.Sequence,3_0_17,NA,NA,skipped,NA,2626997.6000001,NA,NA,2626586.1000001,2626997.7,2023-06-02T16:37:47Z,2627211.452,NULL,NA,NA,NA,NA,NA,NA,NA,NA,NA,17,NA,NA,NA,NA,NA,NA,NA,NA,NA,NA,NA,NA,NA,NA,NA,NA,NA,NA,NA
3090d,check continue,flow.Sequence,3_0_18,NA,NA,skipped,NA,2627013,NA,NA,2626586.1000001,2627013.1000001,2023-06-02T16:37:47Z,2627211.452,NULL,NA,NA,NA,NA,NA,NA,NA,NA,NA,18,NA,NA,NA,NA,NA,NA,NA,NA,NA,NA,NA,NA,NA,NA,NA,NA,NA,NA,NA
3090d,check continue,flow.Sequence,3_0_19,NA,NA,skipped,NA,2627027.9000001,NA,NA,2626586.1000001,2627028,2023-06-02T16:37:47Z,2627211.452,NULL,NA,NA,NA,NA,NA,NA,NA,NA,NA,19,NA,NA,NA,NA,NA,NA,NA,NA,NA,NA,NA,NA,NA,NA,NA,NA,NA,NA,NA
3090d,check continue,flow.Sequence,3_0_20,NA,NA,skipped,NA,2627045.3000002,NA,NA,2626586.1000001,2627045.4000001,2023-06-02T16:37:47Z,2627211.452,NULL,NA,NA,NA,NA,NA,NA,NA,NA,NA,20,NA,NA,NA,NA,NA,NA,NA,NA,NA,NA,NA,NA,NA,NA,NA,NA,NA,NA,NA
3090d,check continue,flow.Sequence,3_0_21,NA,NA,skipped,NA,2627060.5,NA,NA,2626586.1000001,2627060.7,2023-06-02T16:37:47Z,2627211.452,NULL,NA,NA,NA,NA,NA,NA,NA,NA,NA,21,NA,NA,NA,NA,NA,NA,NA,NA,NA,NA,NA,NA,NA,NA,NA,NA,NA,NA,NA
3090d,check continue,flow.Sequence,3_0_22,NA,NA,skipped,NA,2627076.9000001,NA,NA,2626586.1000001,2627077,2023-06-02T16:37:47Z,2627211.452,NULL,NA,NA,NA,NA,NA,NA,NA,NA,NA,22,NA,NA,NA,NA,NA,NA,NA,NA,NA,NA,NA,NA,NA,NA,NA,NA,NA,NA,NA
3090d,check continue,flow.Sequence,3_0_23,NA,NA,skipped,NA,2627093.5,NA,NA,2626586.1000001,2627093.6000001,2023-06-02T16:37:47Z,2627211.452,NULL,NA,NA,NA,NA,NA,NA,NA,NA,NA,23,NA,NA,NA,NA,NA,NA,NA,NA,NA,NA,NA,NA,NA,NA,NA,NA,NA,NA,NA
3090d,check continue,flow.Sequence,3_0_24,NA,NA,skipped,NA,2627109.1000001,NA,NA,2626586.1000001,2627109.2,2023-06-02T16:37:47Z,2627211.452,NULL,NA,NA,NA,NA,NA,NA,NA,NA,NA,24,NA,NA,NA,NA,NA,NA,NA,NA,NA,NA,NA,NA,NA,NA,NA,NA,NA,NA,NA
3090d,check continue,flow.Sequence,3_0_25,NA,NA,skipped,NA,2627125.4000001,NA,NA,2626586.1000001,2627125.5,2023-06-02T16:37:47Z,2627211.452,NULL,NA,NA,NA,NA,NA,NA,NA,NA,NA,25,NA,NA,NA,NA,NA,NA,NA,NA,NA,NA,NA,NA,NA,NA,NA,NA,NA,NA,NA
3090d,check continue,flow.Sequence,3_0_26,NA,NA,skipped,NA,2627145.3000002,NA,NA,2626586.1000001,2627145.4000001,2023-06-02T16:37:47Z,2627211.452,NULL,NA,NA,NA,NA,NA,NA,NA,NA,NA,26,NA,NA,NA,NA,NA,NA,NA,NA,NA,NA,NA,NA,NA,NA,NA,NA,NA,NA,NA
3090d,check continue,flow.Sequence,3_0_27,NA,NA,skipped,NA,2627165.4000001,NA,NA,2626586.1000001,2627165.6000001,2023-06-02T16:37:47Z,2627211.452,NULL,NA,NA,NA,NA,NA,NA,NA,NA,NA,27,NA,NA,NA,NA,NA,NA,NA,NA,NA,NA,NA,NA,NA,NA,NA,NA,NA,NA,NA
3090d,check continue,flow.Sequence,3_0_28,NA,NA,skipped,NA,2627182.8000002,NA,NA,2626586.1000001,2627182.9000001,2023-06-02T16:37:47Z,2627211.452,NULL,NA,NA,NA,NA,NA,NA,NA,NA,NA,28,NA,NA,NA,NA,NA,NA,NA,NA,NA,NA,NA,NA,NA,NA,NA,NA,NA,NA,NA
3090d,check continue,flow.Sequence,3_0_29,NA,NA,skipped,NA,2627201.3000002,NA,NA,2626586.1000001,2627201.4000001,2023-06-02T16:37:47Z,2627211.452,NULL,NA,NA,NA,NA,NA,NA,NA,NA,NA,29,NA,NA,NA,NA,NA,NA,NA,NA,NA,NA,NA,NA,NA,NA,NA,NA,NA,NA,NA
3090d,until continue,flow.Loop,3_0,NA,NA,completion,422908.83800014,2203624.6000001,2203665.548,2203677.262,2626586.1000001,2627201.5,2023-06-02T16:37:47Z,2627211.452,NULL,NA,NA,NA,NA,NA,NA,NA,NA,NA,NA,NA,NA,NA,NA,NA,NA,NA,NA,NA,NA,NA,NA,NA,NA,NA,NA,NA,NA,NA
3090d,block 1,flow.Sequence,3,NA,NA,completion,422908.83800014,2203624.5,2203665.548,2203677.262,2626586.1000001,2627201.6000001,2023-06-02T16:37:47Z,2627211.452,NULL,NA,NA,NA,NA,NA,NA,NA,NA,NA,NA,NA,NA,NA,NA,NA,NA,NA,NA,NA,NA,NA,NA,NA,NA,NA,NA,NA,NA,NA
3090d,1.Part Over,canvas.Screen,4,NA,keypress(Space),response,3333.048,2627201.6000001,2627193.266,2627211.452,2630544.5,2630545.7,2023-06-02T16:37:51Z,2630703.223,NULL,NA,NA,NA,NA,NA,NA,NA,NA,NA,NA,NA,NA,NA,NA,NA,NA,NA,NA,NA,NA,NA,NA,NA,NA,NA,NA,NA,NA,NA
3090d,deep,flow.Sequence,5_0_0_0_0_0,NA,NA,skipped,NA,2630682.1000001,NA,NA,2630544.5,2630682.2,2023-06-02T16:37:51Z,2630703.223,NULL,Ergänzung,kijalizo,s,ulaghai,mustarehe,matangazo,NA,sdf,NA,0,NA,NA,NA,NA,NA,NA,NA,NA,NA,NA,NA,NA,NA,NA,NA,NA,NA,NA,NA
3090d,Shallow Question,html.Page,5_0_0_0_0_1_0,NA,NA,form submission,7380.7769999998,2630682.3000002,2630675.173,2630703.223,2638084,2638084.2,2023-06-02T16:37:58Z,2638100.09,NULL,Ergänzung,kijalizo,s,ulaghai,mustarehe,matangazo,ulaghai,NA,NA,0,NA,NA,NA,NA,NA,NA,NA,NA,NA,NA,NA,NA,NA,NA,NA,NA,NA,NA,NA
3090d,"""Richtig""-Screen",canvas.Screen,5_0_0_0_0_1_1,NA,NA,skipped,NA,2638085.9000001,NA,NA,2638084,2638086,2023-06-02T16:37:58Z,2638100.09,NULL,Ergänzung,kijalizo,s,ulaghai,mustarehe,matangazo,NA,sdf,NA,0,NA,NA,NA,NA,NA,NA,NA,NA,NA,NA,NA,NA,NA,NA,NA,NA,NA,NA,NA
3090d,"""Falsch""-Screen",canvas.Screen,5_0_0_0_0_1_2,NA,NA,timeout,4999.5800000001,2638086.5,2638082.473,2638100.09,2643083.603,2643084.6000001,2023-06-02T16:38:03Z,2643099.67,NULL,Ergänzung,kijalizo,s,ulaghai,mustarehe,matangazo,NA,sdf,0,0,NA,NA,NA,NA,NA,NA,NA,NA,NA,NA,NA,NA,NA,NA,NA,NA,NA,NA,NA
3090d,shallow,flow.Sequence,5_0_0_0_0_1,NA,NA,completion,12380.38,2630682.2,2630675.173,2630703.223,2643083.603,2643085,2023-06-02T16:38:03Z,2643099.67,NULL,Ergänzung,kijalizo,s,ulaghai,mustarehe,matangazo,NA,sdf,NA,0,NA,NA,NA,NA,NA,NA,NA,NA,NA,NA,NA,NA,NA,NA,NA,NA,NA,NA,NA
3090d,task,flow.Sequence,5_0_0_0_0,NA,NA,completion,12380.38,2630682.1000001,2630675.173,2630703.223,2643083.603,2643085.3000002,2023-06-02T16:38:03Z,2643099.67,NULL,Ergänzung,kijalizo,s,ulaghai,mustarehe,matangazo,NA,sdf,NA,0,NA,NA,NA,NA,NA,NA,NA,NA,NA,NA,NA,NA,NA,NA,NA,NA,NA,NA,NA
3090d,deep,flow.Sequence,5_0_0_0_1_0,NA,NA,skipped,NA,2643085.4000001,NA,NA,2643083.603,2643085.6000001,2023-06-02T16:38:03Z,2643099.67,NULL,Stimmung,kinyongo,s,kilekile,kisambo,madhehebu,NA,sdf,NA,0,NA,NA,NA,NA,NA,NA,NA,NA,NA,NA,NA,NA,NA,NA,NA,NA,NA,NA,NA
3090d,Shallow Question,html.Page,5_0_0_0_1_1_0,NA,NA,form submission,6900.5300000478,2643085.7,2643083.603,2643099.67,2650000.2,2650000.5,2023-06-02T16:38:10Z,2650008.128,NULL,Stimmung,kinyongo,s,kilekile,kisambo,madhehebu,madhehebu,NA,NA,0,NA,NA,NA,NA,NA,NA,NA,NA,NA,NA,NA,NA,NA,NA,NA,NA,NA,NA,NA
3090d,"""Richtig""-Screen",canvas.Screen,5_0_0_0_1_1_1,NA,NA,skipped,NA,2650002.4000001,NA,NA,2650000.2,2650002.6000001,2023-06-02T16:38:10Z,2650008.128,NULL,Stimmung,kinyongo,s,kilekile,kisambo,madhehebu,NA,sdf,NA,0,NA,NA,NA,NA,NA,NA,NA,NA,NA,NA,NA,NA,NA,NA,NA,NA,NA,NA,NA
3090d,"""Falsch""-Screen",canvas.Screen,5_0_0_0_1_1_2,NA,NA,timeout,5003.8100000001,2650003.6000001,2649995.922,2650008.128,2654995.254,2655000.7,2023-06-02T16:38:15Z,2655011.938,NULL,Stimmung,kinyongo,s,kilekile,kisambo,madhehebu,NA,sdf,0,0,NA,NA,NA,NA,NA,NA,NA,NA,NA,NA,NA,NA,NA,NA,NA,NA,NA,NA,NA
3090d,shallow,flow.Sequence,5_0_0_0_1_1,NA,NA,completion,11895.584,2643085.7,2643083.603,2643099.67,2654995.254,2655001.1000001,2023-06-02T16:38:15Z,2655011.938,NULL,Stimmung,kinyongo,s,kilekile,kisambo,madhehebu,NA,sdf,NA,0,NA,NA,NA,NA,NA,NA,NA,NA,NA,NA,NA,NA,NA,NA,NA,NA,NA,NA,NA
3090d,task,flow.Sequence,5_0_0_0_1,NA,NA,completion,11895.584,2643085.4000001,2643083.603,2643099.67,2654995.254,2655001.4000001,2023-06-02T16:38:15Z,2655011.938,NULL,Stimmung,kinyongo,s,kilekile,kisambo,madhehebu,NA,sdf,NA,0,NA,NA,NA,NA,NA,NA,NA,NA,NA,NA,NA,NA,NA,NA,NA,NA,NA,NA,NA
3090d,Deep Question,html.Page,5_0_0_0_2_0_0,NA,NA,form submission,2612.662000143,2655001.7,2654995.254,2655011.938,2657624.6000001,2657624.9000001,2023-06-02T16:38:18Z,2657631.274,NULL,Notfall,dharura,d,NA,NA,NA,u,NA,NA,0,NA,NA,NA,NA,NA,NA,NA,NA,NA,NA,NA,NA,NA,NA,NA,NA,NA,NA,NA
3090d,"""Richtig""-Screen",canvas.Screen,5_0_0_0_2_0_1,NA,NA,skipped,NA,2657627.2,NA,NA,2657624.6000001,2657627.4000001,2023-06-02T16:38:18Z,2657631.274,NULL,Notfall,dharura,d,NA,NA,NA,NA,sdf,NA,0,NA,NA,NA,NA,NA,NA,NA,NA,NA,NA,NA,NA,NA,NA,NA,NA,NA,NA,NA
3090d,"""Falsch""-Screen",canvas.Screen,5_0_0_0_2_0_2,NA,NA,timeout,5008.0469999998,2657628,2657615.216,2657631.274,2662623.224,2662624.3000002,2023-06-02T16:38:23Z,2662639.321,NULL,Notfall,dharura,d,NA,NA,NA,NA,sdf,0,0,NA,NA,NA,NA,NA,NA,NA,NA,NA,NA,NA,NA,NA,NA,NA,NA,NA,NA,NA
3090d,deep,flow.Sequence,5_0_0_0_2_0,NA,NA,completion,7611.2859999998,2655001.7,2654995.254,2655011.938,2662623.224,2662624.9000001,2023-06-02T16:38:23Z,2662639.321,NULL,Notfall,dharura,d,NA,NA,NA,NA,sdf,NA,0,NA,NA,NA,NA,NA,NA,NA,NA,NA,NA,NA,NA,NA,NA,NA,NA,NA,NA,NA
3090d,shallow,flow.Sequence,5_0_0_0_2_1,NA,NA,skipped,NA,2662625.1000001,NA,NA,2662623.224,2662625.2,2023-06-02T16:38:23Z,2662639.321,NULL,Notfall,dharura,d,NA,NA,NA,NA,sdf,NA,0,NA,NA,NA,NA,NA,NA,NA,NA,NA,NA,NA,NA,NA,NA,NA,NA,NA,NA,NA
3090d,task,flow.Sequence,5_0_0_0_2,NA,NA,completion,7611.2859999998,2655001.6000001,2654995.254,2655011.938,2662623.224,2662625.4000001,2023-06-02T16:38:23Z,2662639.321,NULL,Notfall,dharura,d,NA,NA,NA,NA,sdf,NA,0,NA,NA,NA,NA,NA,NA,NA,NA,NA,NA,NA,NA,NA,NA,NA,NA,NA,NA,NA
3090d,Deep Question,html.Page,5_0_0_0_3_0_0,NA,NA,form submission,1958.4790001907,2662625.7,2662623.224,2662639.321,2664597.8000002,2664598,2023-06-02T16:38:25Z,2664605.521,NULL,Orientierung,urekebisho,d,NA,NA,NA,u,NA,NA,0,NA,NA,NA,NA,NA,NA,NA,NA,NA,NA,NA,NA,NA,NA,NA,NA,NA,NA,NA
3090d,"""Richtig""-Screen",canvas.Screen,5_0_0_0_3_0_1,NA,NA,skipped,NA,2664600.6000001,NA,NA,2664597.8000002,2664600.8000002,2023-06-02T16:38:25Z,2664605.521,NULL,Orientierung,urekebisho,d,NA,NA,NA,NA,sdf,NA,0,NA,NA,NA,NA,NA,NA,NA,NA,NA,NA,NA,NA,NA,NA,NA,NA,NA,NA,NA
3090d,"""Falsch""-Screen",canvas.Screen,5_0_0_0_3_0_2,NA,NA,timeout,5003.838,2664601.7,2664589.091,2664605.521,2669592.716,2669599.1000001,2023-06-02T16:38:30Z,2669609.359,NULL,Orientierung,urekebisho,d,NA,NA,NA,NA,sdf,0,0,NA,NA,NA,NA,NA,NA,NA,NA,NA,NA,NA,NA,NA,NA,NA,NA,NA,NA,NA
3090d,deep,flow.Sequence,5_0_0_0_3_0,NA,NA,completion,6953.395,2662625.7,2662623.224,2662639.321,2669592.716,2669599.6000001,2023-06-02T16:38:30Z,2669609.359,NULL,Orientierung,urekebisho,d,NA,NA,NA,NA,sdf,NA,0,NA,NA,NA,NA,NA,NA,NA,NA,NA,NA,NA,NA,NA,NA,NA,NA,NA,NA,NA
3090d,shallow,flow.Sequence,5_0_0_0_3_1,NA,NA,skipped,NA,2669599.9000001,NA,NA,2669592.716,2669600.4000001,2023-06-02T16:38:30Z,2669609.359,NULL,Orientierung,urekebisho,d,NA,NA,NA,NA,sdf,NA,0,NA,NA,NA,NA,NA,NA,NA,NA,NA,NA,NA,NA,NA,NA,NA,NA,NA,NA,NA
3090d,task,flow.Sequence,5_0_0_0_3,NA,NA,completion,6953.395,2662625.5,2662623.224,2662639.321,2669592.716,2669600.7,2023-06-02T16:38:30Z,2669609.359,NULL,Orientierung,urekebisho,d,NA,NA,NA,NA,sdf,NA,0,NA,NA,NA,NA,NA,NA,NA,NA,NA,NA,NA,NA,NA,NA,NA,NA,NA,NA,NA
3090d,deep,flow.Sequence,5_0_0_0_4_0,NA,NA,skipped,NA,2669600.9000001,NA,NA,2669592.716,2669601,2023-06-02T16:38:30Z,2669609.359,NULL,Wohlstand,mafanikio,s,chimbuko,kumbuko,mapwaji,NA,sdf,NA,0,NA,NA,NA,NA,NA,NA,NA,NA,NA,NA,NA,NA,NA,NA,NA,NA,NA,NA,NA
3090d,Shallow Question,html.Page,5_0_0_0_4_1_0,NA,NA,form submission,8312.3410000475,2669601.3000002,2669592.716,2669609.359,2677921.7,2677921.8000002,2023-06-02T16:38:38Z,2677931.459,NULL,Wohlstand,mafanikio,s,chimbuko,kumbuko,mapwaji,mapwaji,NA,NA,0,NA,NA,NA,NA,NA,NA,NA,NA,NA,NA,NA,NA,NA,NA,NA,NA,NA,NA,NA
3090d,"""Richtig""-Screen",canvas.Screen,5_0_0_0_4_1_1,NA,NA,skipped,NA,2677924,NA,NA,2677921.7,2677924.1000001,2023-06-02T16:38:38Z,2677931.459,NULL,Wohlstand,mafanikio,s,chimbuko,kumbuko,mapwaji,NA,sdf,NA,0,NA,NA,NA,NA,NA,NA,NA,NA,NA,NA,NA,NA,NA,NA,NA,NA,NA,NA,NA
3090d,"""Falsch""-Screen",canvas.Screen,5_0_0_0_4_1_2,NA,NA,timeout,5007.8970000003,2677924.6000001,2677919.146,2677931.459,2682923.37,2682924.5,2023-06-02T16:38:43Z,2682939.356,NULL,Wohlstand,mafanikio,s,chimbuko,kumbuko,mapwaji,NA,sdf,0,0,NA,NA,NA,NA,NA,NA,NA,NA,NA,NA,NA,NA,NA,NA,NA,NA,NA,NA,NA
3090d,shallow,flow.Sequence,5_0_0_0_4_1,NA,NA,completion,13314.011,2669601.2,2669592.716,2669609.359,2682923.37,2682925.1000001,2023-06-02T16:38:43Z,2682939.356,NULL,Wohlstand,mafanikio,s,chimbuko,kumbuko,mapwaji,NA,sdf,NA,0,NA,NA,NA,NA,NA,NA,NA,NA,NA,NA,NA,NA,NA,NA,NA,NA,NA,NA,NA
3090d,task,flow.Sequence,5_0_0_0_4,NA,NA,completion,13314.011,2669600.9000001,2669592.716,2669609.359,2682923.37,2682925.4000001,2023-06-02T16:38:43Z,2682939.356,NULL,Wohlstand,mafanikio,s,chimbuko,kumbuko,mapwaji,NA,sdf,NA,0,NA,NA,NA,NA,NA,NA,NA,NA,NA,NA,NA,NA,NA,NA,NA,NA,NA,NA,NA
3090d,Deep Question,html.Page,5_0_0_0_5_0_0,NA,NA,form submission,2596.9440001906,2682925.7,2682923.37,2682939.356,2685536.3000002,2685536.6000001,2023-06-02T16:38:46Z,2685538.351,NULL,Vergnügen,kichekesho,d,NA,NA,NA,r,NA,NA,0,NA,NA,NA,NA,NA,NA,NA,NA,NA,NA,NA,NA,NA,NA,NA,NA,NA,NA,NA
3090d,"""Richtig""-Screen",canvas.Screen,5_0_0_0_5_0_1,NA,NA,skipped,NA,2685538.7,NA,NA,2685536.3000002,2685538.8000002,2023-06-02T16:38:46Z,2685538.351,NULL,Vergnügen,kichekesho,d,NA,NA,NA,NA,sdf,NA,0,NA,NA,NA,NA,NA,NA,NA,NA,NA,NA,NA,NA,NA,NA,NA,NA,NA,NA,NA
3090d,"""Falsch""-Screen",canvas.Screen,5_0_0_0_5_0_2,NA,NA,timeout,4991.4180000001,2685539.5,2685530.298,2685538.351,2690513.777,2690514.9000001,2023-06-02T16:38:51Z,2690529.769,NULL,Vergnügen,kichekesho,d,NA,NA,NA,NA,sdf,0,0,NA,NA,NA,NA,NA,NA,NA,NA,NA,NA,NA,NA,NA,NA,NA,NA,NA,NA,NA
3090d,deep,flow.Sequence,5_0_0_0_5_0,NA,NA,completion,7574.4209999996,2682925.6000001,2682923.37,2682939.356,2690513.777,2690515.4000001,2023-06-02T16:38:51Z,2690529.769,NULL,Vergnügen,kichekesho,d,NA,NA,NA,NA,sdf,NA,0,NA,NA,NA,NA,NA,NA,NA,NA,NA,NA,NA,NA,NA,NA,NA,NA,NA,NA,NA
3090d,shallow,flow.Sequence,5_0_0_0_5_1,NA,NA,skipped,NA,2690515.6000001,NA,NA,2690513.777,2690515.8000002,2023-06-02T16:38:51Z,2690529.769,NULL,Vergnügen,kichekesho,d,NA,NA,NA,NA,sdf,NA,0,NA,NA,NA,NA,NA,NA,NA,NA,NA,NA,NA,NA,NA,NA,NA,NA,NA,NA,NA
3090d,task,flow.Sequence,5_0_0_0_5,NA,NA,completion,7574.4209999996,2682925.5,2682923.37,2682939.356,2690513.777,2690516,2023-06-02T16:38:51Z,2690529.769,NULL,Vergnügen,kichekesho,d,NA,NA,NA,NA,sdf,NA,0,NA,NA,NA,NA,NA,NA,NA,NA,NA,NA,NA,NA,NA,NA,NA,NA,NA,NA,NA
3090d,deep,flow.Sequence,5_0_0_0_6_0,NA,NA,skipped,NA,2690516.2,NA,NA,2690513.777,2690516.3000002,2023-06-02T16:38:51Z,2690529.769,NULL,Betrüger,mdanganyifu,s,mwanamuziki,wastani,mahakama,NA,sdf,NA,0,NA,NA,NA,NA,NA,NA,NA,NA,NA,NA,NA,NA,NA,NA,NA,NA,NA,NA,NA
3090d,Shallow Question,html.Page,5_0_0_0_6_1_0,NA,NA,form submission,6354.4310000478,2690516.5,2690513.777,2690529.769,2696884.2,2696884.3000002,2023-06-02T16:38:57Z,2696890.591,NULL,Betrüger,mdanganyifu,s,mwanamuziki,wastani,mahakama,wastani,NA,NA,0,NA,NA,NA,NA,NA,NA,NA,NA,NA,NA,NA,NA,NA,NA,NA,NA,NA,NA,NA
3090d,"""Richtig""-Screen",canvas.Screen,5_0_0_0_6_1_1,NA,NA,skipped,NA,2696886.5,NA,NA,2696884.2,2696886.6000001,2023-06-02T16:38:57Z,2696890.591,NULL,Betrüger,mdanganyifu,s,mwanamuziki,wastani,mahakama,NA,sdf,NA,0,NA,NA,NA,NA,NA,NA,NA,NA,NA,NA,NA,NA,NA,NA,NA,NA,NA,NA,NA
3090d,"""Falsch""-Screen",canvas.Screen,5_0_0_0_6_1_2,NA,NA,timeout,5003.9309999999,2696887.2,2696869.999,2696890.591,2701878.497,2701879.6000001,2023-06-02T16:39:02Z,2701894.522,NULL,Betrüger,mdanganyifu,s,mwanamuziki,wastani,mahakama,NA,sdf,0,0,NA,NA,NA,NA,NA,NA,NA,NA,NA,NA,NA,NA,NA,NA,NA,NA,NA,NA,NA
3090d,shallow,flow.Sequence,5_0_0_0_6_1,NA,NA,completion,11348.728,2690516.5,2690513.777,2690529.769,2701878.497,2701880.2,2023-06-02T16:39:02Z,2701894.522,NULL,Betrüger,mdanganyifu,s,mwanamuziki,wastani,mahakama,NA,sdf,NA,0,NA,NA,NA,NA,NA,NA,NA,NA,NA,NA,NA,NA,NA,NA,NA,NA,NA,NA,NA
3090d,task,flow.Sequence,5_0_0_0_6,NA,NA,completion,11348.728,2690516.2,2690513.777,2690529.769,2701878.497,2701880.4000001,2023-06-02T16:39:02Z,2701894.522,NULL,Betrüger,mdanganyifu,s,mwanamuziki,wastani,mahakama,NA,sdf,NA,0,NA,NA,NA,NA,NA,NA,NA,NA,NA,NA,NA,NA,NA,NA,NA,NA,NA,NA,NA
3090d,Deep Question,html.Page,5_0_0_0_7_0_0,NA,NA,form submission,1797.6780000478,2701880.8000002,2701878.497,2701894.522,2703692.2,2703692.5,2023-06-02T16:39:04Z,2703698.164,NULL,Respekt,heshima,d,NA,NA,NA,r,NA,NA,0,NA,NA,NA,NA,NA,NA,NA,NA,NA,NA,NA,NA,NA,NA,NA,NA,NA,NA,NA
3090d,"""Richtig""-Screen",canvas.Screen,5_0_0_0_7_0_1,NA,NA,skipped,NA,2703694.5,NA,NA,2703692.2,2703694.6000001,2023-06-02T16:39:04Z,2703698.164,NULL,Respekt,heshima,d,NA,NA,NA,NA,sdf,NA,0,NA,NA,NA,NA,NA,NA,NA,NA,NA,NA,NA,NA,NA,NA,NA,NA,NA,NA,NA
3090d,"""Falsch""-Screen",canvas.Screen,5_0_0_0_7_0_2,NA,NA,timeout,5007.727,2703695.3000002,2703677.643,2703698.164,2708689.824,2708691,2023-06-02T16:39:09Z,2708705.891,NULL,Respekt,heshima,d,NA,NA,NA,NA,sdf,0,0,NA,NA,NA,NA,NA,NA,NA,NA,NA,NA,NA,NA,NA,NA,NA,NA,NA,NA,NA
3090d,deep,flow.Sequence,5_0_0_0_7_0,NA,NA,completion,6795.3020000001,2701880.6000001,2701878.497,2701894.522,2708689.824,2708691.5,2023-06-02T16:39:09Z,2708705.891,NULL,Respekt,heshima,d,NA,NA,NA,NA,sdf,NA,0,NA,NA,NA,NA,NA,NA,NA,NA,NA,NA,NA,NA,NA,NA,NA,NA,NA,NA,NA
3090d,shallow,flow.Sequence,5_0_0_0_7_1,NA,NA,skipped,NA,2708691.7,NA,NA,2708689.824,2708691.9000001,2023-06-02T16:39:09Z,2708705.891,NULL,Respekt,heshima,d,NA,NA,NA,NA,sdf,NA,0,NA,NA,NA,NA,NA,NA,NA,NA,NA,NA,NA,NA,NA,NA,NA,NA,NA,NA,NA
3090d,task,flow.Sequence,5_0_0_0_7,NA,NA,completion,6795.3020000001,2701880.6000001,2701878.497,2701894.522,2708689.824,2708692.1000001,2023-06-02T16:39:09Z,2708705.891,NULL,Respekt,heshima,d,NA,NA,NA,NA,sdf,NA,0,NA,NA,NA,NA,NA,NA,NA,NA,NA,NA,NA,NA,NA,NA,NA,NA,NA,NA,NA
3090d,block,flow.Loop,5_0_0_0,NA,NA,completion,77986.601,2630682.1000001,2630675.173,2630703.223,2708689.824,2708692.3000002,2023-06-02T16:39:09Z,2708705.891,NULL,NA,NA,NA,NA,NA,NA,NA,sdf,NA,0,NA,NA,NA,NA,NA,NA,NA,NA,NA,NA,NA,NA,NA,NA,NA,NA,NA,NA,NA
3090d,weiter,canvas.Screen,5_0_0_1,sdf,keypress(Space),response,1445.1090000002,2708692.5,2708689.824,2708705.891,2710151,2710156,2023-06-02T16:39:10Z,2710268.204,NULL,NA,NA,NA,NA,NA,NA,NA,sdf,NA,0,NA,NA,NA,NA,NA,NA,NA,NA,NA,NA,NA,NA,NA,NA,NA,NA,NA,NA,NA
3090d,check continue,flow.Sequence,5_0_0,NA,NA,completion,79447.777,2630682,2630675.173,2630703.223,2710151,2710156.4000001,2023-06-02T16:39:10Z,2710268.204,NULL,NA,NA,NA,NA,NA,NA,NA,sdf,NA,0,NA,NA,NA,NA,NA,NA,NA,NA,NA,NA,NA,NA,NA,NA,NA,NA,NA,NA,NA
3090d,deep,flow.Sequence,5_0_1_0_0_0,NA,NA,skipped,NA,2710247.3000002,NA,NA,2710151,2710247.6000001,2023-06-02T16:39:10Z,2710268.204,NULL,Ergänzung,kijalizo,s,ulaghai,mustarehe,matangazo,NA,sdfdsf,NA,1,NA,NA,NA,NA,NA,NA,NA,NA,NA,NA,NA,NA,NA,NA,NA,NA,NA,NA,NA
3090d,Shallow Question,html.Page,5_0_1_0_0_1_0,NA,NA,form submission,6465.0960001908,2710247.9000001,2710237.874,2710268.204,2716733.3000002,2716733.6000001,2023-06-02T16:39:17Z,2716744.212,NULL,Ergänzung,kijalizo,s,ulaghai,mustarehe,matangazo,kijalizo,NA,NA,1,NA,NA,NA,NA,NA,NA,NA,NA,NA,NA,NA,NA,NA,NA,NA,NA,NA,NA,NA
3090d,"""Richtig""-Screen",canvas.Screen,5_0_1_0_0_1_1,NA,NA,timeout,4999.5590000004,2716735.4000001,2716719.46,2716744.212,2721727.233,2721728.3000002,2023-06-02T16:39:22Z,2721743.771,NULL,Ergänzung,kijalizo,s,ulaghai,mustarehe,matangazo,NA,sdfdsf,1,1,NA,NA,NA,NA,NA,NA,NA,NA,NA,NA,NA,NA,NA,NA,NA,NA,NA,NA,NA
3090d,"""Falsch""-Screen",canvas.Screen,5_0_1_0_0_1_2,NA,NA,skipped,NA,2721733.9000001,NA,NA,2721727.233,2721734.4000001,2023-06-02T16:39:22Z,2721743.771,NULL,Ergänzung,kijalizo,s,ulaghai,mustarehe,matangazo,NA,sdfdsf,NA,1,NA,NA,NA,NA,NA,NA,NA,NA,NA,NA,NA,NA,NA,NA,NA,NA,NA,NA,NA
3090d,shallow,flow.Sequence,5_0_1_0_0_1,NA,NA,completion,11459.029,2710247.8000002,2710237.874,2710268.204,2721727.233,2721734.6000001,2023-06-02T16:39:22Z,2721743.771,NULL,Ergänzung,kijalizo,s,ulaghai,mustarehe,matangazo,NA,sdfdsf,NA,1,NA,NA,NA,NA,NA,NA,NA,NA,NA,NA,NA,NA,NA,NA,NA,NA,NA,NA,NA
3090d,task,flow.Sequence,5_0_1_0_0,NA,NA,completion,11459.029,2710247.3000002,2710237.874,2710268.204,2721727.233,2721734.9000001,2023-06-02T16:39:22Z,2721743.771,NULL,Ergänzung,kijalizo,s,ulaghai,mustarehe,matangazo,NA,sdfdsf,NA,1,NA,NA,NA,NA,NA,NA,NA,NA,NA,NA,NA,NA,NA,NA,NA,NA,NA,NA,NA
3090d,Deep Question,html.Page,5_0_1_0_1_0_0,NA,NA,form submission,4091.6290000952,2721735.1000001,2721727.233,2721743.771,2725835.4000001,2725835.6000001,2023-06-02T16:39:26Z,2725842.253,NULL,Vergnügen,kichekesho,d,NA,NA,NA,r,NA,NA,1,NA,NA,NA,NA,NA,NA,NA,NA,NA,NA,NA,NA,NA,NA,NA,NA,NA,NA,NA
3090d,"""Richtig""-Screen",canvas.Screen,5_0_1_0_1_0_1,NA,NA,skipped,NA,2725837.4000001,NA,NA,2725835.4000001,2725837.6000001,2023-06-02T16:39:26Z,2725842.253,NULL,Vergnügen,kichekesho,d,NA,NA,NA,NA,sdfdsf,NA,1,NA,NA,NA,NA,NA,NA,NA,NA,NA,NA,NA,NA,NA,NA,NA,NA,NA,NA,NA
3090d,"""Falsch""-Screen",canvas.Screen,5_0_1_0_1_0_2,NA,NA,timeout,5003.8100000001,2725838.2,2725821.767,2725842.253,2730830.038,2730831,2023-06-02T16:39:31Z,2730846.063,NULL,Vergnügen,kichekesho,d,NA,NA,NA,NA,sdfdsf,0,1,NA,NA,NA,NA,NA,NA,NA,NA,NA,NA,NA,NA,NA,NA,NA,NA,NA,NA,NA
3090d,deep,flow.Sequence,5_0_1_0_1_0,NA,NA,completion,9086.267,2721735.1000001,2721727.233,2721743.771,2730830.038,2730831.4000001,2023-06-02T16:39:31Z,2730846.063,NULL,Vergnügen,kichekesho,d,NA,NA,NA,NA,sdfdsf,NA,1,NA,NA,NA,NA,NA,NA,NA,NA,NA,NA,NA,NA,NA,NA,NA,NA,NA,NA,NA
3090d,shallow,flow.Sequence,5_0_1_0_1_1,NA,NA,skipped,NA,2730831.6000001,NA,NA,2730830.038,2730831.8000002,2023-06-02T16:39:31Z,2730846.063,NULL,Vergnügen,kichekesho,d,NA,NA,NA,NA,sdfdsf,NA,1,NA,NA,NA,NA,NA,NA,NA,NA,NA,NA,NA,NA,NA,NA,NA,NA,NA,NA,NA
3090d,task,flow.Sequence,5_0_1_0_1,NA,NA,completion,9086.267,2721735,2721727.233,2721743.771,2730830.038,2730832,2023-06-02T16:39:31Z,2730846.063,NULL,Vergnügen,kichekesho,d,NA,NA,NA,NA,sdfdsf,NA,1,NA,NA,NA,NA,NA,NA,NA,NA,NA,NA,NA,NA,NA,NA,NA,NA,NA,NA,NA
3090d,deep,flow.Sequence,5_0_1_0_2_0,NA,NA,skipped,NA,2730832.2,NA,NA,2730830.038,2730832.3000002,2023-06-02T16:39:31Z,2730846.063,NULL,Stimmung,kinyongo,s,kilekile,kisambo,madhehebu,NA,sdfdsf,NA,1,NA,NA,NA,NA,NA,NA,NA,NA,NA,NA,NA,NA,NA,NA,NA,NA,NA,NA,NA
3090d,Shallow Question,html.Page,5_0_1_0_2_1_0,NA,NA,form submission,4532.8370000953,2730832.5,2730830.038,2730846.063,2735378.9000001,2735379.1000001,2023-06-02T16:39:36Z,2735393.698,NULL,Stimmung,kinyongo,s,kilekile,kisambo,madhehebu,kinyongo,NA,NA,1,NA,NA,NA,NA,NA,NA,NA,NA,NA,NA,NA,NA,NA,NA,NA,NA,NA,NA,NA
3090d,"""Richtig""-Screen",canvas.Screen,5_0_1_0_2_1_1,NA,NA,timeout,4995.46,2735381.1000001,2735377.138,2735393.698,2740372.965,2740374,2023-06-02T16:39:41Z,2740389.158,NULL,Stimmung,kinyongo,s,kilekile,kisambo,madhehebu,NA,sdfdsf,1,1,NA,NA,NA,NA,NA,NA,NA,NA,NA,NA,NA,NA,NA,NA,NA,NA,NA,NA,NA
3090d,"""Falsch""-Screen",canvas.Screen,5_0_1_0_2_1_2,NA,NA,skipped,NA,2740379.7,NA,NA,2740372.965,2740380.1000001,2023-06-02T16:39:41Z,2740389.158,NULL,Stimmung,kinyongo,s,kilekile,kisambo,madhehebu,NA,sdfdsf,NA,1,NA,NA,NA,NA,NA,NA,NA,NA,NA,NA,NA,NA,NA,NA,NA,NA,NA,NA,NA
3090d,shallow,flow.Sequence,5_0_1_0_2_1,NA,NA,completion,9526.9019999998,2730832.4000001,2730830.038,2730846.063,2740372.965,2740380.5,2023-06-02T16:39:41Z,2740389.158,NULL,Stimmung,kinyongo,s,kilekile,kisambo,madhehebu,NA,sdfdsf,NA,1,NA,NA,NA,NA,NA,NA,NA,NA,NA,NA,NA,NA,NA,NA,NA,NA,NA,NA,NA
3090d,task,flow.Sequence,5_0_1_0_2,NA,NA,completion,9526.9019999998,2730832.1000001,2730830.038,2730846.063,2740372.965,2740380.7,2023-06-02T16:39:41Z,2740389.158,NULL,Stimmung,kinyongo,s,kilekile,kisambo,madhehebu,NA,sdfdsf,NA,1,NA,NA,NA,NA,NA,NA,NA,NA,NA,NA,NA,NA,NA,NA,NA,NA,NA,NA,NA
3090d,Deep Question,html.Page,5_0_1_0_3_0_0,NA,NA,form submission,3417.7420000955,2740381,2740372.965,2740389.158,2743806.9000001,2743807.1000001,2023-06-02T16:39:44Z,2743817.208,NULL,Notfall,dharura,d,NA,NA,NA,r,NA,NA,1,NA,NA,NA,NA,NA,NA,NA,NA,NA,NA,NA,NA,NA,NA,NA,NA,NA,NA,NA
3090d,"""Richtig""-Screen",canvas.Screen,5_0_1_0_3_0_1,NA,NA,skipped,NA,2743809,NA,NA,2743806.9000001,2743809.1000001,2023-06-02T16:39:44Z,2743817.208,NULL,Notfall,dharura,d,NA,NA,NA,NA,sdfdsf,NA,1,NA,NA,NA,NA,NA,NA,NA,NA,NA,NA,NA,NA,NA,NA,NA,NA,NA,NA,NA
3090d,"""Falsch""-Screen",canvas.Screen,5_0_1_0_3_0_2,NA,NA,timeout,4991.3810000001,2743809.7,2743801.098,2743817.208,2748792.542,2748793.6000001,2023-06-02T16:39:49Z,2748808.589,NULL,Notfall,dharura,d,NA,NA,NA,NA,sdfdsf,0,1,NA,NA,NA,NA,NA,NA,NA,NA,NA,NA,NA,NA,NA,NA,NA,NA,NA,NA,NA
3090d,deep,flow.Sequence,5_0_1_0_3_0,NA,NA,completion,8403.3840000001,2740380.9000001,2740372.965,2740389.158,2748792.542,2748794.1000001,2023-06-02T16:39:49Z,2748808.589,NULL,Notfall,dharura,d,NA,NA,NA,NA,sdfdsf,NA,1,NA,NA,NA,NA,NA,NA,NA,NA,NA,NA,NA,NA,NA,NA,NA,NA,NA,NA,NA
3090d,shallow,flow.Sequence,5_0_1_0_3_1,NA,NA,skipped,NA,2748794.2,NA,NA,2748792.542,2748794.3000002,2023-06-02T16:39:49Z,2748808.589,NULL,Notfall,dharura,d,NA,NA,NA,NA,sdfdsf,NA,1,NA,NA,NA,NA,NA,NA,NA,NA,NA,NA,NA,NA,NA,NA,NA,NA,NA,NA,NA
3090d,task,flow.Sequence,5_0_1_0_3,NA,NA,completion,8403.3840000001,2740380.9000001,2740372.965,2740389.158,2748792.542,2748794.6000001,2023-06-02T16:39:49Z,2748808.589,NULL,Notfall,dharura,d,NA,NA,NA,NA,sdfdsf,NA,1,NA,NA,NA,NA,NA,NA,NA,NA,NA,NA,NA,NA,NA,NA,NA,NA,NA,NA,NA
3090d,Deep Question,html.Page,5_0_1_0_4_0_0,NA,NA,form submission,3193.4109999998,2748794.8000002,2748792.542,2748808.589,2752002,2752002.3000002,2023-06-02T16:39:52Z,2752007.799,NULL,Orientierung,urekebisho,d,NA,NA,NA,i,NA,NA,1,NA,NA,NA,NA,NA,NA,NA,NA,NA,NA,NA,NA,NA,NA,NA,NA,NA,NA,NA
3090d,"""Richtig""-Screen",canvas.Screen,5_0_1_0_4_0_1,NA,NA,skipped,NA,2752004.3000002,NA,NA,2752002,2752004.6000001,2023-06-02T16:39:52Z,2752007.799,NULL,Orientierung,urekebisho,d,NA,NA,NA,NA,sdfdsf,NA,1,NA,NA,NA,NA,NA,NA,NA,NA,NA,NA,NA,NA,NA,NA,NA,NA,NA,NA,NA
3090d,"""Falsch""-Screen",canvas.Screen,5_0_1_0_4_0_2,NA,NA,timeout,4991.3959999997,2752005.1000001,2751987.061,2752007.799,2756983.086,2756984.2,2023-06-02T16:39:57Z,2756999.195,NULL,Orientierung,urekebisho,d,NA,NA,NA,NA,sdfdsf,0,1,NA,NA,NA,NA,NA,NA,NA,NA,NA,NA,NA,NA,NA,NA,NA,NA,NA,NA,NA
3090d,deep,flow.Sequence,5_0_1_0_4_0,NA,NA,completion,8174.497,2748794.8000002,2748792.542,2748808.589,2756983.086,2756984.6000001,2023-06-02T16:39:57Z,2756999.195,NULL,Orientierung,urekebisho,d,NA,NA,NA,NA,sdfdsf,NA,1,NA,NA,NA,NA,NA,NA,NA,NA,NA,NA,NA,NA,NA,NA,NA,NA,NA,NA,NA
3090d,shallow,flow.Sequence,5_0_1_0_4_1,NA,NA,skipped,NA,2756984.7,NA,NA,2756983.086,2756985,2023-06-02T16:39:57Z,2756999.195,NULL,Orientierung,urekebisho,d,NA,NA,NA,NA,sdfdsf,NA,1,NA,NA,NA,NA,NA,NA,NA,NA,NA,NA,NA,NA,NA,NA,NA,NA,NA,NA,NA
3090d,task,flow.Sequence,5_0_1_0_4,NA,NA,completion,8174.497,2748794.7,2748792.542,2748808.589,2756983.086,2756985.2,2023-06-02T16:39:57Z,2756999.195,NULL,Orientierung,urekebisho,d,NA,NA,NA,NA,sdfdsf,NA,1,NA,NA,NA,NA,NA,NA,NA,NA,NA,NA,NA,NA,NA,NA,NA,NA,NA,NA,NA
3090d,deep,flow.Sequence,5_0_1_0_5_0,NA,NA,skipped,NA,2756985.4000001,NA,NA,2756983.086,2756985.6000001,2023-06-02T16:39:57Z,2756999.195,NULL,Wohlstand,mafanikio,s,chimbuko,kumbuko,mapwaji,NA,sdfdsf,NA,1,NA,NA,NA,NA,NA,NA,NA,NA,NA,NA,NA,NA,NA,NA,NA,NA,NA,NA,NA
3090d,Shallow Question,html.Page,5_0_1_0_5_1_0,NA,NA,form submission,8578.3050000002,2756985.7,2756983.086,2756999.195,2765577.5,2765577.6000001,2023-06-02T16:40:06Z,2765592.218,NULL,Wohlstand,mafanikio,s,chimbuko,kumbuko,mapwaji,mafanikio,NA,NA,1,NA,NA,NA,NA,NA,NA,NA,NA,NA,NA,NA,NA,NA,NA,NA,NA,NA,NA,NA
3090d,"""Richtig""-Screen",canvas.Screen,5_0_1_0_5_1_1,NA,NA,timeout,5007.9360000002,2765579.8000002,2765567.005,2765592.218,2770584.159,2770585.4000001,2023-06-02T16:40:11Z,2770600.154,NULL,Wohlstand,mafanikio,s,chimbuko,kumbuko,mapwaji,NA,sdfdsf,1,1,NA,NA,NA,NA,NA,NA,NA,NA,NA,NA,NA,NA,NA,NA,NA,NA,NA,NA,NA
3090d,"""Falsch""-Screen",canvas.Screen,5_0_1_0_5_1_2,NA,NA,skipped,NA,2770590.8000002,NA,NA,2770584.159,2770591.2,2023-06-02T16:40:11Z,2770600.154,NULL,Wohlstand,mafanikio,s,chimbuko,kumbuko,mapwaji,NA,sdfdsf,NA,1,NA,NA,NA,NA,NA,NA,NA,NA,NA,NA,NA,NA,NA,NA,NA,NA,NA,NA,NA
3090d,shallow,flow.Sequence,5_0_1_0_5_1,NA,NA,completion,13584.964,2756985.7,2756983.086,2756999.195,2770584.159,2770591.5,2023-06-02T16:40:11Z,2770600.154,NULL,Wohlstand,mafanikio,s,chimbuko,kumbuko,mapwaji,NA,sdfdsf,NA,1,NA,NA,NA,NA,NA,NA,NA,NA,NA,NA,NA,NA,NA,NA,NA,NA,NA,NA,NA
3090d,task,flow.Sequence,5_0_1_0_5,NA,NA,completion,13584.964,2756985.3000002,2756983.086,2756999.195,2770584.159,2770591.9000001,2023-06-02T16:40:11Z,2770600.154,NULL,Wohlstand,mafanikio,s,chimbuko,kumbuko,mapwaji,NA,sdfdsf,NA,1,NA,NA,NA,NA,NA,NA,NA,NA,NA,NA,NA,NA,NA,NA,NA,NA,NA,NA,NA
