observation,sender,sender_type,sender_id,response,response_action,ended_on,duration,time_run,time_render,time_show,time_end,time_commit,timestamp,time_switch,german,swahili,enc,distractor1,distractor2,distractor3,response_2,x,correct,distractors,url_vp,url_sess,meta_labjs_version,meta_location,meta_user_agent,meta_platform,meta_language,meta_locale,meta_time_zone,meta_timezone_offset,meta_screen_width,meta_screen_height,meta_scroll_width,meta_scroll_height,meta_window_inner_width,meta_window_inner_height,meta_device_pixel_ratio,meta_labjs_build_flavor,meta_labjs_build_commit
a99b1,Introduction delayed retrieval,canvas.Screen,0,weiter,keypress(Space),response,3615,629,641,662,4256,4317,2023-02-05T12:31:16Z,4362,NA,NA,NA,NA,NA,NA,NA,NA,NA,NULL,110,2,20.2.4,https://neurocog.fernuni.ch/studies/vweber/delayed/index.html?vp=110&sess=2,"Mozilla/5.0 (Macintosh; Intel Mac OS X 10_15_7) AppleWebKit/605.1.15 (KHTML, like Gecko) Version/16.3 Safari/605.1.15",MacIntel,de-DE,de-DE,Europe/Zurich,-60,1440,900,1037,752,1037,800,2,production,f5b4a49f956347addd546a832a3327688c2c0fef
a99b1,Deep Question,html.Page,1_0_0_0,NA,NA,form submission,43550,4317,4330,4362,47912,47912,2023-02-05T12:31:59Z,47944,Stimmung,kinyongo,d,kilekile,kisambo,madhehebu,idhini,NA,NA,NULL,NA,NA,NA,NA,NA,NA,NA,NA,NA,NA,NA,NA,NA,NA,NA,NA,NA,NA,NA
a99b1,Save data screen,canvas.Screen,1_0_0_1,NA,NA,timeout,500,47912,47927,47944,48427,48428,2023-02-05T12:32:00Z,48444,Stimmung,kinyongo,d,kilekile,kisambo,madhehebu,NA,NA,0,NULL,NA,NA,NA,NA,NA,NA,NA,NA,NA,NA,NA,NA,NA,NA,NA,NA,NA,NA,NA
a99b1,deep,flow.Sequence,1_0_0,NA,NA,completion,44065,4317,4330,4362,48427,48428,2023-02-05T12:32:00Z,48444,Stimmung,kinyongo,d,kilekile,kisambo,madhehebu,NA,NA,NA,NULL,NA,NA,NA,NA,NA,NA,NA,NA,NA,NA,NA,NA,NA,NA,NA,NA,NA,NA,NA
a99b1,task,flow.Sequence,1_0,NA,NA,completion,44065,4317,4330,4362,48427,48428,2023-02-05T12:32:00Z,48444,Stimmung,kinyongo,d,kilekile,kisambo,madhehebu,NA,NA,NA,NULL,NA,NA,NA,NA,NA,NA,NA,NA,NA,NA,NA,NA,NA,NA,NA,NA,NA,NA,NA
a99b1,Deep Question,html.Page,1_1_0_0,NA,NA,form submission,56955,48428,48427,48444,105399,105400,2023-02-05T12:32:57Z,105431,Niveau,kiwango,s,usimamizi,mwamali,mshairi,kiwango,NA,NA,NULL,NA,NA,NA,NA,NA,NA,NA,NA,NA,NA,NA,NA,NA,NA,NA,NA,NA,NA,NA
a99b1,Save data screen,canvas.Screen,1_1_0_1,NA,NA,timeout,500,105401,105414,105431,105914,105916,2023-02-05T12:32:57Z,105931,Niveau,kiwango,s,usimamizi,mwamali,mshairi,NA,NA,1,NULL,NA,NA,NA,NA,NA,NA,NA,NA,NA,NA,NA,NA,NA,NA,NA,NA,NA,NA,NA
a99b1,deep,flow.Sequence,1_1_0,NA,NA,completion,57470,48428,48427,48444,105914,105917,2023-02-05T12:32:57Z,105931,Niveau,kiwango,s,usimamizi,mwamali,mshairi,NA,NA,NA,NULL,NA,NA,NA,NA,NA,NA,NA,NA,NA,NA,NA,NA,NA,NA,NA,NA,NA,NA,NA
a99b1,task,flow.Sequence,1_1,NA,NA,completion,57470,48428,48427,48444,105914,105917,2023-02-05T12:32:57Z,105931,Niveau,kiwango,s,usimamizi,mwamali,mshairi,NA,NA,NA,NULL,NA,NA,NA,NA,NA,NA,NA,NA,NA,NA,NA,NA,NA,NA,NA,NA,NA,NA,NA
a99b1,Deep Question,html.Page,1_2_0_0,NA,NA,form submission,17337,105918,105914,105931,123268,123268,2023-02-05T12:33:15Z,123299,Papier,karatasi,s,uchambuzi,usalama,kukataliwa,karatasi,NA,NA,NULL,NA,NA,NA,NA,NA,NA,NA,NA,NA,NA,NA,NA,NA,NA,NA,NA,NA,NA,NA
a99b1,Save data screen,canvas.Screen,1_2_0_1,NA,NA,timeout,500,123269,123282,123299,123782,123783,2023-02-05T12:33:15Z,123799,Papier,karatasi,s,uchambuzi,usalama,kukataliwa,NA,NA,1,NULL,NA,NA,NA,NA,NA,NA,NA,NA,NA,NA,NA,NA,NA,NA,NA,NA,NA,NA,NA
a99b1,deep,flow.Sequence,1_2_0,NA,NA,completion,17851,105918,105914,105931,123782,123784,2023-02-05T12:33:15Z,123799,Papier,karatasi,s,uchambuzi,usalama,kukataliwa,NA,NA,NA,NULL,NA,NA,NA,NA,NA,NA,NA,NA,NA,NA,NA,NA,NA,NA,NA,NA,NA,NA,NA
a99b1,task,flow.Sequence,1_2,NA,NA,completion,17851,105917,105914,105931,123782,123784,2023-02-05T12:33:15Z,123799,Papier,karatasi,s,uchambuzi,usalama,kukataliwa,NA,NA,NA,NULL,NA,NA,NA,NA,NA,NA,NA,NA,NA,NA,NA,NA,NA,NA,NA,NA,NA,NA,NA
a99b1,Deep Question,html.Page,1_3_0_0,NA,NA,form submission,12994,123785,123782,123799,136793,136794,2023-02-05T12:33:28Z,136816,Integrität,uadilifu,s,muungano,mtiririko,upunguaji,mzimi,NA,NA,NULL,NA,NA,NA,NA,NA,NA,NA,NA,NA,NA,NA,NA,NA,NA,NA,NA,NA,NA,NA
a99b1,Save data screen,canvas.Screen,1_3_0_1,NA,NA,timeout,500,136795,136800,136816,137299,137300,2023-02-05T12:33:29Z,137316,Integrität,uadilifu,s,muungano,mtiririko,upunguaji,NA,NA,0,NULL,NA,NA,NA,NA,NA,NA,NA,NA,NA,NA,NA,NA,NA,NA,NA,NA,NA,NA,NA
a99b1,deep,flow.Sequence,1_3_0,NA,NA,completion,13500,123785,123782,123799,137299,137301,2023-02-05T12:33:29Z,137316,Integrität,uadilifu,s,muungano,mtiririko,upunguaji,NA,NA,NA,NULL,NA,NA,NA,NA,NA,NA,NA,NA,NA,NA,NA,NA,NA,NA,NA,NA,NA,NA,NA
a99b1,task,flow.Sequence,1_3,NA,NA,completion,13500,123785,123782,123799,137299,137302,2023-02-05T12:33:29Z,137316,Integrität,uadilifu,s,muungano,mtiririko,upunguaji,NA,NA,NA,NULL,NA,NA,NA,NA,NA,NA,NA,NA,NA,NA,NA,NA,NA,NA,NA,NA,NA,NA,NA
a99b1,Deep Question,html.Page,1_4_0_0,NA,NA,form submission,12453,137303,137299,137316,149769,149770,2023-02-05T12:33:41Z,149800,Entwicklung,maendeleo,d,uangavu,mshindwa,badiliko,maendeleo,NA,NA,NULL,NA,NA,NA,NA,NA,NA,NA,NA,NA,NA,NA,NA,NA,NA,NA,NA,NA,NA,NA
a99b1,Save data screen,canvas.Screen,1_4_0_1,NA,NA,timeout,501,149770,149784,149800,150284,150285,2023-02-05T12:33:42Z,150301,Entwicklung,maendeleo,d,uangavu,mshindwa,badiliko,NA,NA,1,NULL,NA,NA,NA,NA,NA,NA,NA,NA,NA,NA,NA,NA,NA,NA,NA,NA,NA,NA,NA
a99b1,deep,flow.Sequence,1_4_0,NA,NA,completion,12968,137303,137299,137316,150284,150285,2023-02-05T12:33:42Z,150301,Entwicklung,maendeleo,d,uangavu,mshindwa,badiliko,NA,NA,NA,NULL,NA,NA,NA,NA,NA,NA,NA,NA,NA,NA,NA,NA,NA,NA,NA,NA,NA,NA,NA
a99b1,task,flow.Sequence,1_4,NA,NA,completion,12968,137302,137299,137316,150284,150285,2023-02-05T12:33:42Z,150301,Entwicklung,maendeleo,d,uangavu,mshindwa,badiliko,NA,NA,NA,NULL,NA,NA,NA,NA,NA,NA,NA,NA,NA,NA,NA,NA,NA,NA,NA,NA,NA,NA,NA
a99b1,Deep Question,html.Page,1_5_0_0,NA,NA,form submission,7382,150285,150284,150301,157683,157684,2023-02-05T12:33:49Z,157718,Respekt,heshima,s,changamnao,upinzani,ufanisi,harasi,NA,NA,NULL,NA,NA,NA,NA,NA,NA,NA,NA,NA,NA,NA,NA,NA,NA,NA,NA,NA,NA,NA
a99b1,Save data screen,canvas.Screen,1_5_0_1,NA,NA,timeout,499,157684,157701,157718,158201,158203,2023-02-05T12:33:49Z,158217,Respekt,heshima,s,changamnao,upinzani,ufanisi,NA,NA,0,NULL,NA,NA,NA,NA,NA,NA,NA,NA,NA,NA,NA,NA,NA,NA,NA,NA,NA,NA,NA
a99b1,deep,flow.Sequence,1_5_0,NA,NA,completion,7900,150285,150284,150301,158201,158204,2023-02-05T12:33:49Z,158217,Respekt,heshima,s,changamnao,upinzani,ufanisi,NA,NA,NA,NULL,NA,NA,NA,NA,NA,NA,NA,NA,NA,NA,NA,NA,NA,NA,NA,NA,NA,NA,NA
a99b1,task,flow.Sequence,1_5,NA,NA,completion,7900,150285,150284,150301,158201,158204,2023-02-05T12:33:49Z,158217,Respekt,heshima,s,changamnao,upinzani,ufanisi,NA,NA,NA,NULL,NA,NA,NA,NA,NA,NA,NA,NA,NA,NA,NA,NA,NA,NA,NA,NA,NA,NA,NA
a99b1,Deep Question,html.Page,1_6_0_0,NA,NA,form submission,32496,158205,158201,158217,190713,190713,2023-02-05T12:34:22Z,190736,Flexibilität,kubadilika,d,enjini,usikilivu,hesabu,ugotari,NA,NA,NULL,NA,NA,NA,NA,NA,NA,NA,NA,NA,NA,NA,NA,NA,NA,NA,NA,NA,NA,NA
a99b1,Save data screen,canvas.Screen,1_6_0_1,NA,NA,timeout,500,190714,190719,190736,191220,191221,2023-02-05T12:34:22Z,191236,Flexibilität,kubadilika,d,enjini,usikilivu,hesabu,NA,NA,0,NULL,NA,NA,NA,NA,NA,NA,NA,NA,NA,NA,NA,NA,NA,NA,NA,NA,NA,NA,NA
a99b1,deep,flow.Sequence,1_6_0,NA,NA,completion,33003,158205,158201,158217,191220,191221,2023-02-05T12:34:22Z,191236,Flexibilität,kubadilika,d,enjini,usikilivu,hesabu,NA,NA,NA,NULL,NA,NA,NA,NA,NA,NA,NA,NA,NA,NA,NA,NA,NA,NA,NA,NA,NA,NA,NA
a99b1,task,flow.Sequence,1_6,NA,NA,completion,33003,158205,158201,158217,191220,191222,2023-02-05T12:34:22Z,191236,Flexibilität,kubadilika,d,enjini,usikilivu,hesabu,NA,NA,NA,NULL,NA,NA,NA,NA,NA,NA,NA,NA,NA,NA,NA,NA,NA,NA,NA,NA,NA,NA,NA
a99b1,Deep Question,html.Page,1_7_0_0,NA,NA,form submission,14370,191222,191220,191236,205606,205607,2023-02-05T12:34:37Z,205637,Orientierung,urekebisho,s,uelekeo,marekebisho,utunzaji,urekibi,NA,NA,NULL,NA,NA,NA,NA,NA,NA,NA,NA,NA,NA,NA,NA,NA,NA,NA,NA,NA,NA,NA
a99b1,Save data screen,canvas.Screen,1_7_0_1,NA,NA,timeout,500,205607,205621,205637,206121,206123,2023-02-05T12:34:37Z,206137,Orientierung,urekebisho,s,uelekeo,marekebisho,utunzaji,NA,NA,0,NULL,NA,NA,NA,NA,NA,NA,NA,NA,NA,NA,NA,NA,NA,NA,NA,NA,NA,NA,NA
a99b1,deep,flow.Sequence,1_7_0,NA,NA,completion,14885,191222,191220,191236,206121,206124,2023-02-05T12:34:37Z,206137,Orientierung,urekebisho,s,uelekeo,marekebisho,utunzaji,NA,NA,NA,NULL,NA,NA,NA,NA,NA,NA,NA,NA,NA,NA,NA,NA,NA,NA,NA,NA,NA,NA,NA
a99b1,task,flow.Sequence,1_7,NA,NA,completion,14885,191222,191220,191236,206121,206124,2023-02-05T12:34:37Z,206137,Orientierung,urekebisho,s,uelekeo,marekebisho,utunzaji,NA,NA,NA,NULL,NA,NA,NA,NA,NA,NA,NA,NA,NA,NA,NA,NA,NA,NA,NA,NA,NA,NA,NA
a99b1,Deep Question,html.Page,1_8_0_0,NA,NA,form submission,20635,206125,206121,206137,226772,226773,2023-02-05T12:34:58Z,226789,Begegnung,kukutana,d,mmasihiya,mpiganaji,husiano,mandao,NA,NA,NULL,NA,NA,NA,NA,NA,NA,NA,NA,NA,NA,NA,NA,NA,NA,NA,NA,NA,NA,NA
a99b1,Save data screen,canvas.Screen,1_8_0_1,NA,NA,timeout,500,226774,226776,226789,227272,227273,2023-02-05T12:34:59Z,227289,Begegnung,kukutana,d,mmasihiya,mpiganaji,husiano,NA,NA,0,NULL,NA,NA,NA,NA,NA,NA,NA,NA,NA,NA,NA,NA,NA,NA,NA,NA,NA,NA,NA
a99b1,deep,flow.Sequence,1_8_0,NA,NA,completion,21135,206125,206121,206137,227272,227274,2023-02-05T12:34:59Z,227289,Begegnung,kukutana,d,mmasihiya,mpiganaji,husiano,NA,NA,NA,NULL,NA,NA,NA,NA,NA,NA,NA,NA,NA,NA,NA,NA,NA,NA,NA,NA,NA,NA,NA
a99b1,task,flow.Sequence,1_8,NA,NA,completion,21135,206125,206121,206137,227272,227274,2023-02-05T12:34:59Z,227289,Begegnung,kukutana,d,mmasihiya,mpiganaji,husiano,NA,NA,NA,NULL,NA,NA,NA,NA,NA,NA,NA,NA,NA,NA,NA,NA,NA,NA,NA,NA,NA,NA,NA
a99b1,Deep Question,html.Page,1_9_0_0,NA,NA,form submission,20365,227274,227272,227289,247654,247655,2023-02-05T12:35:19Z,247673,Vorwurf,mashtaka,d,msukumo,mtangulizi,uenyekiti,mashtara,NA,NA,NULL,NA,NA,NA,NA,NA,NA,NA,NA,NA,NA,NA,NA,NA,NA,NA,NA,NA,NA,NA
a99b1,Save data screen,canvas.Screen,1_9_0_1,NA,NA,timeout,500,247655,247659,247673,248157,248158,2023-02-05T12:35:19Z,248173,Vorwurf,mashtaka,d,msukumo,mtangulizi,uenyekiti,NA,NA,0,NULL,NA,NA,NA,NA,NA,NA,NA,NA,NA,NA,NA,NA,NA,NA,NA,NA,NA,NA,NA
a99b1,deep,flow.Sequence,1_9_0,NA,NA,completion,20868,227274,227272,227289,248157,248160,2023-02-05T12:35:19Z,248173,Vorwurf,mashtaka,d,msukumo,mtangulizi,uenyekiti,NA,NA,NA,NULL,NA,NA,NA,NA,NA,NA,NA,NA,NA,NA,NA,NA,NA,NA,NA,NA,NA,NA,NA
a99b1,task,flow.Sequence,1_9,NA,NA,completion,20868,227274,227272,227289,248157,248160,2023-02-05T12:35:19Z,248173,Vorwurf,mashtaka,d,msukumo,mtangulizi,uenyekiti,NA,NA,NA,NULL,NA,NA,NA,NA,NA,NA,NA,NA,NA,NA,NA,NA,NA,NA,NA,NA,NA,NA,NA
a99b1,Deep Question,html.Page,1_10_0_0,NA,NA,form submission,6214,248161,248157,248173,254387,254387,2023-02-05T12:35:26Z,254407,Atmosphäre,angahewa,d,kuteseka,usahihi,kutoamini,angohara,NA,NA,NULL,NA,NA,NA,NA,NA,NA,NA,NA,NA,NA,NA,NA,NA,NA,NA,NA,NA,NA,NA
a99b1,Save data screen,canvas.Screen,1_10_0_1,NA,NA,timeout,500,254388,254390,254407,254890,254892,2023-02-05T12:35:26Z,254907,Atmosphäre,angahewa,d,kuteseka,usahihi,kutoamini,NA,NA,0,NULL,NA,NA,NA,NA,NA,NA,NA,NA,NA,NA,NA,NA,NA,NA,NA,NA,NA,NA,NA
a99b1,deep,flow.Sequence,1_10_0,NA,NA,completion,6717,248161,248157,248173,254890,254892,2023-02-05T12:35:26Z,254907,Atmosphäre,angahewa,d,kuteseka,usahihi,kutoamini,NA,NA,NA,NULL,NA,NA,NA,NA,NA,NA,NA,NA,NA,NA,NA,NA,NA,NA,NA,NA,NA,NA,NA
a99b1,task,flow.Sequence,1_10,NA,NA,completion,6717,248160,248157,248173,254890,254893,2023-02-05T12:35:26Z,254907,Atmosphäre,angahewa,d,kuteseka,usahihi,kutoamini,NA,NA,NA,NULL,NA,NA,NA,NA,NA,NA,NA,NA,NA,NA,NA,NA,NA,NA,NA,NA,NA,NA,NA
a99b1,Deep Question,html.Page,1_11_0_0,NA,NA,form submission,17468,254893,254890,254907,272375,272375,2023-02-05T12:35:44Z,272408,Fleisch,mshakiki,s,kizunguzungu,mshikamano,angusho,mshakiki,NA,NA,NULL,NA,NA,NA,NA,NA,NA,NA,NA,NA,NA,NA,NA,NA,NA,NA,NA,NA,NA,NA
a99b1,Save data screen,canvas.Screen,1_11_0_1,NA,NA,timeout,500,272376,272391,272408,272892,272893,2023-02-05T12:35:44Z,272908,Fleisch,mshakiki,s,kizunguzungu,mshikamano,angusho,NA,NA,1,NULL,NA,NA,NA,NA,NA,NA,NA,NA,NA,NA,NA,NA,NA,NA,NA,NA,NA,NA,NA
a99b1,deep,flow.Sequence,1_11_0,NA,NA,completion,17985,254893,254890,254907,272892,272895,2023-02-05T12:35:44Z,272908,Fleisch,mshakiki,s,kizunguzungu,mshikamano,angusho,NA,NA,NA,NULL,NA,NA,NA,NA,NA,NA,NA,NA,NA,NA,NA,NA,NA,NA,NA,NA,NA,NA,NA
a99b1,task,flow.Sequence,1_11,NA,NA,completion,17985,254893,254890,254907,272892,272896,2023-02-05T12:35:44Z,272908,Fleisch,mshakiki,s,kizunguzungu,mshikamano,angusho,NA,NA,NA,NULL,NA,NA,NA,NA,NA,NA,NA,NA,NA,NA,NA,NA,NA,NA,NA,NA,NA,NA,NA
a99b1,Deep Question,html.Page,1_12_0_0,NA,NA,form submission,13315,272896,272892,272908,286223,286223,2023-02-05T12:35:57Z,286242,Genehmigung,idhini,d,mwanamke,itikadi,fedheha,hadara,NA,NA,NULL,NA,NA,NA,NA,NA,NA,NA,NA,NA,NA,NA,NA,NA,NA,NA,NA,NA,NA,NA
a99b1,Save data screen,canvas.Screen,1_12_0_1,NA,NA,timeout,500,286225,286227,286242,286726,286727,2023-02-05T12:35:58Z,286742,Genehmigung,idhini,d,mwanamke,itikadi,fedheha,NA,NA,0,NULL,NA,NA,NA,NA,NA,NA,NA,NA,NA,NA,NA,NA,NA,NA,NA,NA,NA,NA,NA
a99b1,deep,flow.Sequence,1_12_0,NA,NA,completion,13818,272896,272892,272908,286726,286728,2023-02-05T12:35:58Z,286742,Genehmigung,idhini,d,mwanamke,itikadi,fedheha,NA,NA,NA,NULL,NA,NA,NA,NA,NA,NA,NA,NA,NA,NA,NA,NA,NA,NA,NA,NA,NA,NA,NA
a99b1,task,flow.Sequence,1_12,NA,NA,completion,13818,272896,272892,272908,286726,286728,2023-02-05T12:35:58Z,286742,Genehmigung,idhini,d,mwanamke,itikadi,fedheha,NA,NA,NA,NULL,NA,NA,NA,NA,NA,NA,NA,NA,NA,NA,NA,NA,NA,NA,NA,NA,NA,NA,NA
a99b1,Deep Question,html.Page,1_13_0_0,NA,NA,form submission,9559,286729,286726,286742,296301,296301,2023-02-05T12:36:08Z,296326,Betrüger,mdanganyifu,d,mwanamuziki,wastani,mahakama,adwani,NA,NA,NULL,NA,NA,NA,NA,NA,NA,NA,NA,NA,NA,NA,NA,NA,NA,NA,NA,NA,NA,NA
a99b1,Save data screen,canvas.Screen,1_13_0_1,NA,NA,timeout,500,296302,296309,296326,296810,296811,2023-02-05T12:36:08Z,296826,Betrüger,mdanganyifu,d,mwanamuziki,wastani,mahakama,NA,NA,0,NULL,NA,NA,NA,NA,NA,NA,NA,NA,NA,NA,NA,NA,NA,NA,NA,NA,NA,NA,NA
a99b1,deep,flow.Sequence,1_13_0,NA,NA,completion,10068,286729,286726,286742,296810,296812,2023-02-05T12:36:08Z,296826,Betrüger,mdanganyifu,d,mwanamuziki,wastani,mahakama,NA,NA,NA,NULL,NA,NA,NA,NA,NA,NA,NA,NA,NA,NA,NA,NA,NA,NA,NA,NA,NA,NA,NA
a99b1,task,flow.Sequence,1_13,NA,NA,completion,10068,286728,286726,286742,296810,296813,2023-02-05T12:36:08Z,296826,Betrüger,mdanganyifu,d,mwanamuziki,wastani,mahakama,NA,NA,NA,NULL,NA,NA,NA,NA,NA,NA,NA,NA,NA,NA,NA,NA,NA,NA,NA,NA,NA,NA,NA
a99b1,Deep Question,html.Page,1_14_0_0,NA,NA,form submission,5316,296814,296810,296826,302142,302143,2023-02-05T12:36:13Z,302177,Erneuerung,ukarabati,s,ushawishi,ukalifu,unyonyaji,redwani,NA,NA,NULL,NA,NA,NA,NA,NA,NA,NA,NA,NA,NA,NA,NA,NA,NA,NA,NA,NA,NA,NA
a99b1,Save data screen,canvas.Screen,1_14_0_1,NA,NA,timeout,500,302144,302160,302177,302660,302661,2023-02-05T12:36:14Z,302677,Erneuerung,ukarabati,s,ushawishi,ukalifu,unyonyaji,NA,NA,0,NULL,NA,NA,NA,NA,NA,NA,NA,NA,NA,NA,NA,NA,NA,NA,NA,NA,NA,NA,NA
a99b1,deep,flow.Sequence,1_14_0,NA,NA,completion,5834,296814,296810,296826,302660,302662,2023-02-05T12:36:14Z,302677,Erneuerung,ukarabati,s,ushawishi,ukalifu,unyonyaji,NA,NA,NA,NULL,NA,NA,NA,NA,NA,NA,NA,NA,NA,NA,NA,NA,NA,NA,NA,NA,NA,NA,NA
a99b1,task,flow.Sequence,1_14,NA,NA,completion,5834,296813,296810,296826,302660,302663,2023-02-05T12:36:14Z,302677,Erneuerung,ukarabati,s,ushawishi,ukalifu,unyonyaji,NA,NA,NA,NULL,NA,NA,NA,NA,NA,NA,NA,NA,NA,NA,NA,NA,NA,NA,NA,NA,NA,NA,NA
a99b1,Deep Question,html.Page,1_15_0_0,NA,NA,form submission,6719,302663,302660,302677,309396,309396,2023-02-05T12:36:21Z,309426,Wechsel,ugeuzaji,s,utambulisho,kujenga,wasiwasi,kirbati,NA,NA,NULL,NA,NA,NA,NA,NA,NA,NA,NA,NA,NA,NA,NA,NA,NA,NA,NA,NA,NA,NA
a99b1,Save data screen,canvas.Screen,1_15_0_1,NA,NA,timeout,502,309397,309410,309426,309911,309912,2023-02-05T12:36:21Z,309928,Wechsel,ugeuzaji,s,utambulisho,kujenga,wasiwasi,NA,NA,0,NULL,NA,NA,NA,NA,NA,NA,NA,NA,NA,NA,NA,NA,NA,NA,NA,NA,NA,NA,NA
a99b1,deep,flow.Sequence,1_15_0,NA,NA,completion,7234,302663,302660,302677,309911,309913,2023-02-05T12:36:21Z,309928,Wechsel,ugeuzaji,s,utambulisho,kujenga,wasiwasi,NA,NA,NA,NULL,NA,NA,NA,NA,NA,NA,NA,NA,NA,NA,NA,NA,NA,NA,NA,NA,NA,NA,NA
a99b1,task,flow.Sequence,1_15,NA,NA,completion,7234,302663,302660,302677,309911,309913,2023-02-05T12:36:21Z,309928,Wechsel,ugeuzaji,s,utambulisho,kujenga,wasiwasi,NA,NA,NA,NULL,NA,NA,NA,NA,NA,NA,NA,NA,NA,NA,NA,NA,NA,NA,NA,NA,NA,NA,NA
a99b1,retrieval block 1 (cued recall),flow.Loop,1,NA,NA,completion,305549,4317,4330,4362,309911,309914,2023-02-05T12:36:21Z,309928,NA,NA,NA,NA,NA,NA,NA,NA,NA,NULL,NA,NA,NA,NA,NA,NA,NA,NA,NA,NA,NA,NA,NA,NA,NA,NA,NA,NA,NA
a99b1,Shallow Question,html.Page,2_0_0_0,NA,NA,form submission,8642,309915,309911,309928,318570,318571,2023-02-05T12:36:30Z,318594,Integrität,uadilifu,s,muungano,mtiririko,upunguaji,uadilifu,NA,NA,"c(""distractor1"", ""distractor2"", ""distractor3"")",NA,NA,NA,NA,NA,NA,NA,NA,NA,NA,NA,NA,NA,NA,NA,NA,NA,NA,NA
a99b1,Save data screen,canvas.Screen,2_0_0_1,NA,NA,timeout,500,318572,318577,318594,319078,319079,2023-02-05T12:36:30Z,319094,Integrität,uadilifu,s,muungano,mtiririko,upunguaji,NA,NA,1,"c(""distractor1"", ""distractor2"", ""distractor3"")",NA,NA,NA,NA,NA,NA,NA,NA,NA,NA,NA,NA,NA,NA,NA,NA,NA,NA,NA
a99b1,shallow,flow.Sequence,2_0_0,NA,NA,completion,9150,309915,309911,309928,319078,319080,2023-02-05T12:36:30Z,319094,Integrität,uadilifu,s,muungano,mtiririko,upunguaji,NA,NA,NA,"c(""distractor1"", ""distractor2"", ""distractor3"")",NA,NA,NA,NA,NA,NA,NA,NA,NA,NA,NA,NA,NA,NA,NA,NA,NA,NA,NA
a99b1,task,flow.Sequence,2_0,NA,NA,completion,9150,309915,309911,309928,319078,319081,2023-02-05T12:36:30Z,319094,Integrität,uadilifu,s,muungano,mtiririko,upunguaji,NA,NA,NA,"c(""distractor1"", ""distractor2"", ""distractor3"")",NA,NA,NA,NA,NA,NA,NA,NA,NA,NA,NA,NA,NA,NA,NA,NA,NA,NA,NA
a99b1,Shallow Question,html.Page,2_1_0_0,NA,NA,form submission,5155,319081,319078,319094,324249,324249,2023-02-05T12:36:36Z,324278,Vorwurf,mashtaka,d,msukumo,mtangulizi,uenyekiti,mashtaka,NA,NA,"c(""distractor1"", ""distractor2"", ""distractor3"")",NA,NA,NA,NA,NA,NA,NA,NA,NA,NA,NA,NA,NA,NA,NA,NA,NA,NA,NA
a99b1,Save data screen,canvas.Screen,2_1_0_1,NA,NA,timeout,500,324250,324261,324278,324762,324762,2023-02-05T12:36:36Z,324778,Vorwurf,mashtaka,d,msukumo,mtangulizi,uenyekiti,NA,NA,1,"c(""distractor1"", ""distractor2"", ""distractor3"")",NA,NA,NA,NA,NA,NA,NA,NA,NA,NA,NA,NA,NA,NA,NA,NA,NA,NA,NA
a99b1,shallow,flow.Sequence,2_1_0,NA,NA,completion,5668,319081,319078,319094,324762,324763,2023-02-05T12:36:36Z,324778,Vorwurf,mashtaka,d,msukumo,mtangulizi,uenyekiti,NA,NA,NA,"c(""distractor1"", ""distractor2"", ""distractor3"")",NA,NA,NA,NA,NA,NA,NA,NA,NA,NA,NA,NA,NA,NA,NA,NA,NA,NA,NA
a99b1,task,flow.Sequence,2_1,NA,NA,completion,5668,319081,319078,319094,324762,324764,2023-02-05T12:36:36Z,324778,Vorwurf,mashtaka,d,msukumo,mtangulizi,uenyekiti,NA,NA,NA,"c(""distractor1"", ""distractor2"", ""distractor3"")",NA,NA,NA,NA,NA,NA,NA,NA,NA,NA,NA,NA,NA,NA,NA,NA,NA,NA,NA
a99b1,Shallow Question,html.Page,2_2_0_0,NA,NA,form submission,4815,324764,324762,324778,329593,329594,2023-02-05T12:36:41Z,329628,Niveau,kiwango,s,usimamizi,mwamali,mshairi,kiwango,NA,NA,"c(""distractor1"", ""distractor2"", ""distractor3"")",NA,NA,NA,NA,NA,NA,NA,NA,NA,NA,NA,NA,NA,NA,NA,NA,NA,NA,NA
a99b1,Save data screen,canvas.Screen,2_2_0_1,NA,NA,timeout,500,329595,329612,329628,330112,330113,2023-02-05T12:36:41Z,330128,Niveau,kiwango,s,usimamizi,mwamali,mshairi,NA,NA,1,"c(""distractor1"", ""distractor2"", ""distractor3"")",NA,NA,NA,NA,NA,NA,NA,NA,NA,NA,NA,NA,NA,NA,NA,NA,NA,NA,NA
a99b1,shallow,flow.Sequence,2_2_0,NA,NA,completion,5334,324764,324762,324778,330112,330113,2023-02-05T12:36:41Z,330128,Niveau,kiwango,s,usimamizi,mwamali,mshairi,NA,NA,NA,"c(""distractor1"", ""distractor2"", ""distractor3"")",NA,NA,NA,NA,NA,NA,NA,NA,NA,NA,NA,NA,NA,NA,NA,NA,NA,NA,NA
a99b1,task,flow.Sequence,2_2,NA,NA,completion,5334,324764,324762,324778,330112,330114,2023-02-05T12:36:41Z,330128,Niveau,kiwango,s,usimamizi,mwamali,mshairi,NA,NA,NA,"c(""distractor1"", ""distractor2"", ""distractor3"")",NA,NA,NA,NA,NA,NA,NA,NA,NA,NA,NA,NA,NA,NA,NA,NA,NA,NA,NA
a99b1,Shallow Question,html.Page,2_3_0_0,NA,NA,form submission,5158,330114,330112,330128,335286,335286,2023-02-05T12:36:47Z,335312,Flexibilität,kubadilika,d,enjini,usikilivu,hesabu,hesabu,NA,NA,"c(""distractor1"", ""distractor2"", ""distractor3"")",NA,NA,NA,NA,NA,NA,NA,NA,NA,NA,NA,NA,NA,NA,NA,NA,NA,NA,NA
a99b1,Save data screen,canvas.Screen,2_3_0_1,NA,NA,timeout,500,335287,335295,335312,335795,335796,2023-02-05T12:36:47Z,335812,Flexibilität,kubadilika,d,enjini,usikilivu,hesabu,NA,NA,0,"c(""distractor1"", ""distractor2"", ""distractor3"")",NA,NA,NA,NA,NA,NA,NA,NA,NA,NA,NA,NA,NA,NA,NA,NA,NA,NA,NA
a99b1,shallow,flow.Sequence,2_3_0,NA,NA,completion,5667,330114,330112,330128,335795,335797,2023-02-05T12:36:47Z,335812,Flexibilität,kubadilika,d,enjini,usikilivu,hesabu,NA,NA,NA,"c(""distractor1"", ""distractor2"", ""distractor3"")",NA,NA,NA,NA,NA,NA,NA,NA,NA,NA,NA,NA,NA,NA,NA,NA,NA,NA,NA
a99b1,task,flow.Sequence,2_3,NA,NA,completion,5667,330114,330112,330128,335795,335797,2023-02-05T12:36:47Z,335812,Flexibilität,kubadilika,d,enjini,usikilivu,hesabu,NA,NA,NA,"c(""distractor1"", ""distractor2"", ""distractor3"")",NA,NA,NA,NA,NA,NA,NA,NA,NA,NA,NA,NA,NA,NA,NA,NA,NA,NA,NA
a99b1,Shallow Question,html.Page,2_4_0_0,NA,NA,form submission,4514,335797,335795,335812,340326,340326,2023-02-05T12:36:52Z,340362,Genehmigung,idhini,d,mwanamke,itikadi,fedheha,idhini,NA,NA,"c(""distractor1"", ""distractor2"", ""distractor3"")",NA,NA,NA,NA,NA,NA,NA,NA,NA,NA,NA,NA,NA,NA,NA,NA,NA,NA,NA
a99b1,Save data screen,canvas.Screen,2_4_0_1,NA,NA,timeout,500,340328,340345,340362,340846,340848,2023-02-05T12:36:52Z,340862,Genehmigung,idhini,d,mwanamke,itikadi,fedheha,NA,NA,1,"c(""distractor1"", ""distractor2"", ""distractor3"")",NA,NA,NA,NA,NA,NA,NA,NA,NA,NA,NA,NA,NA,NA,NA,NA,NA,NA,NA
a99b1,shallow,flow.Sequence,2_4_0,NA,NA,completion,5034,335797,335795,335812,340846,340849,2023-02-05T12:36:52Z,340862,Genehmigung,idhini,d,mwanamke,itikadi,fedheha,NA,NA,NA,"c(""distractor1"", ""distractor2"", ""distractor3"")",NA,NA,NA,NA,NA,NA,NA,NA,NA,NA,NA,NA,NA,NA,NA,NA,NA,NA,NA
a99b1,task,flow.Sequence,2_4,NA,NA,completion,5034,335797,335795,335812,340846,340849,2023-02-05T12:36:52Z,340862,Genehmigung,idhini,d,mwanamke,itikadi,fedheha,NA,NA,NA,"c(""distractor1"", ""distractor2"", ""distractor3"")",NA,NA,NA,NA,NA,NA,NA,NA,NA,NA,NA,NA,NA,NA,NA,NA,NA,NA,NA
a99b1,Shallow Question,html.Page,2_5_0_0,NA,NA,form submission,4280,340850,340846,340862,345142,345142,2023-02-05T12:36:56Z,345162,Respekt,heshima,s,changamnao,upinzani,ufanisi,heshima,NA,NA,"c(""distractor1"", ""distractor2"", ""distractor3"")",NA,NA,NA,NA,NA,NA,NA,NA,NA,NA,NA,NA,NA,NA,NA,NA,NA,NA,NA
a99b1,Save data screen,canvas.Screen,2_5_0_1,NA,NA,timeout,500,345143,345146,345162,345646,345647,2023-02-05T12:36:57Z,345662,Respekt,heshima,s,changamnao,upinzani,ufanisi,NA,NA,1,"c(""distractor1"", ""distractor2"", ""distractor3"")",NA,NA,NA,NA,NA,NA,NA,NA,NA,NA,NA,NA,NA,NA,NA,NA,NA,NA,NA
a99b1,shallow,flow.Sequence,2_5_0,NA,NA,completion,4784,340850,340846,340862,345646,345648,2023-02-05T12:36:57Z,345662,Respekt,heshima,s,changamnao,upinzani,ufanisi,NA,NA,NA,"c(""distractor1"", ""distractor2"", ""distractor3"")",NA,NA,NA,NA,NA,NA,NA,NA,NA,NA,NA,NA,NA,NA,NA,NA,NA,NA,NA
a99b1,task,flow.Sequence,2_5,NA,NA,completion,4784,340850,340846,340862,345646,345648,2023-02-05T12:36:57Z,345662,Respekt,heshima,s,changamnao,upinzani,ufanisi,NA,NA,NA,"c(""distractor1"", ""distractor2"", ""distractor3"")",NA,NA,NA,NA,NA,NA,NA,NA,NA,NA,NA,NA,NA,NA,NA,NA,NA,NA,NA
a99b1,Shallow Question,html.Page,2_6_0_0,NA,NA,form submission,7298,345648,345646,345662,352960,352961,2023-02-05T12:37:04Z,352996,Betrüger,mdanganyifu,d,mwanamuziki,wastani,mahakama,mdanganyifu,NA,NA,"c(""distractor1"", ""distractor2"", ""distractor3"")",NA,NA,NA,NA,NA,NA,NA,NA,NA,NA,NA,NA,NA,NA,NA,NA,NA,NA,NA
a99b1,Save data screen,canvas.Screen,2_6_0_1,NA,NA,timeout,500,352962,352980,352996,353480,353481,2023-02-05T12:37:05Z,353496,Betrüger,mdanganyifu,d,mwanamuziki,wastani,mahakama,NA,NA,1,"c(""distractor1"", ""distractor2"", ""distractor3"")",NA,NA,NA,NA,NA,NA,NA,NA,NA,NA,NA,NA,NA,NA,NA,NA,NA,NA,NA
a99b1,shallow,flow.Sequence,2_6_0,NA,NA,completion,7818,345648,345646,345662,353480,353482,2023-02-05T12:37:05Z,353496,Betrüger,mdanganyifu,d,mwanamuziki,wastani,mahakama,NA,NA,NA,"c(""distractor1"", ""distractor2"", ""distractor3"")",NA,NA,NA,NA,NA,NA,NA,NA,NA,NA,NA,NA,NA,NA,NA,NA,NA,NA,NA
a99b1,task,flow.Sequence,2_6,NA,NA,completion,7818,345648,345646,345662,353480,353483,2023-02-05T12:37:05Z,353496,Betrüger,mdanganyifu,d,mwanamuziki,wastani,mahakama,NA,NA,NA,"c(""distractor1"", ""distractor2"", ""distractor3"")",NA,NA,NA,NA,NA,NA,NA,NA,NA,NA,NA,NA,NA,NA,NA,NA,NA,NA,NA
a99b1,Shallow Question,html.Page,2_7_0_0,NA,NA,form submission,4594.0000000001,353484,353480,353496,358090,358091,2023-02-05T12:37:09Z,358113,Atmosphäre,angahewa,d,kuteseka,usahihi,kutoamini,angahewa,NA,NA,"c(""distractor1"", ""distractor2"", ""distractor3"")",NA,NA,NA,NA,NA,NA,NA,NA,NA,NA,NA,NA,NA,NA,NA,NA,NA,NA,NA
a99b1,Save data screen,canvas.Screen,2_7_0_1,NA,NA,timeout,500,358092,358096,358113,358597,358598,2023-02-05T12:37:10Z,358613,Atmosphäre,angahewa,d,kuteseka,usahihi,kutoamini,NA,NA,1,"c(""distractor1"", ""distractor2"", ""distractor3"")",NA,NA,NA,NA,NA,NA,NA,NA,NA,NA,NA,NA,NA,NA,NA,NA,NA,NA,NA
a99b1,shallow,flow.Sequence,2_7_0,NA,NA,completion,5101,353484,353480,353496,358597,358599,2023-02-05T12:37:10Z,358613,Atmosphäre,angahewa,d,kuteseka,usahihi,kutoamini,NA,NA,NA,"c(""distractor1"", ""distractor2"", ""distractor3"")",NA,NA,NA,NA,NA,NA,NA,NA,NA,NA,NA,NA,NA,NA,NA,NA,NA,NA,NA
a99b1,task,flow.Sequence,2_7,NA,NA,completion,5101,353484,353480,353496,358597,358600,2023-02-05T12:37:10Z,358613,Atmosphäre,angahewa,d,kuteseka,usahihi,kutoamini,NA,NA,NA,"c(""distractor1"", ""distractor2"", ""distractor3"")",NA,NA,NA,NA,NA,NA,NA,NA,NA,NA,NA,NA,NA,NA,NA,NA,NA,NA,NA
a99b1,Shallow Question,html.Page,2_8_0_0,NA,NA,form submission,4089,358600,358597,358613,362702,362703,2023-02-05T12:37:14Z,362731,Entwicklung,maendeleo,d,uangavu,mshindwa,badiliko,maendeleo,NA,NA,"c(""distractor1"", ""distractor2"", ""distractor3"")",NA,NA,NA,NA,NA,NA,NA,NA,NA,NA,NA,NA,NA,NA,NA,NA,NA,NA,NA
a99b1,Save data screen,canvas.Screen,2_8_0_1,NA,NA,timeout,499,362703,362714,362731,363214,363215,2023-02-05T12:37:14Z,363230,Entwicklung,maendeleo,d,uangavu,mshindwa,badiliko,NA,NA,1,"c(""distractor1"", ""distractor2"", ""distractor3"")",NA,NA,NA,NA,NA,NA,NA,NA,NA,NA,NA,NA,NA,NA,NA,NA,NA,NA,NA
a99b1,shallow,flow.Sequence,2_8_0,NA,NA,completion,4601,358600,358597,358613,363214,363216,2023-02-05T12:37:14Z,363230,Entwicklung,maendeleo,d,uangavu,mshindwa,badiliko,NA,NA,NA,"c(""distractor1"", ""distractor2"", ""distractor3"")",NA,NA,NA,NA,NA,NA,NA,NA,NA,NA,NA,NA,NA,NA,NA,NA,NA,NA,NA
a99b1,task,flow.Sequence,2_8,NA,NA,completion,4601,358600,358597,358613,363214,363216,2023-02-05T12:37:14Z,363230,Entwicklung,maendeleo,d,uangavu,mshindwa,badiliko,NA,NA,NA,"c(""distractor1"", ""distractor2"", ""distractor3"")",NA,NA,NA,NA,NA,NA,NA,NA,NA,NA,NA,NA,NA,NA,NA,NA,NA,NA,NA
a99b1,Shallow Question,html.Page,2_9_0_0,NA,NA,form submission,3770,363217,363214,363230,367000,367000,2023-02-05T12:37:18Z,367031,Orientierung,urekebisho,s,uelekeo,marekebisho,utunzaji,urekebisho,NA,NA,"c(""distractor1"", ""distractor2"", ""distractor3"")",NA,NA,NA,NA,NA,NA,NA,NA,NA,NA,NA,NA,NA,NA,NA,NA,NA,NA,NA
a99b1,Save data screen,canvas.Screen,2_9_0_1,NA,NA,timeout,500,367001,367014,367031,367514,367516,2023-02-05T12:37:19Z,367531,Orientierung,urekebisho,s,uelekeo,marekebisho,utunzaji,NA,NA,1,"c(""distractor1"", ""distractor2"", ""distractor3"")",NA,NA,NA,NA,NA,NA,NA,NA,NA,NA,NA,NA,NA,NA,NA,NA,NA,NA,NA
a99b1,shallow,flow.Sequence,2_9_0,NA,NA,completion,4284,363217,363214,363230,367514,367516,2023-02-05T12:37:19Z,367531,Orientierung,urekebisho,s,uelekeo,marekebisho,utunzaji,NA,NA,NA,"c(""distractor1"", ""distractor2"", ""distractor3"")",NA,NA,NA,NA,NA,NA,NA,NA,NA,NA,NA,NA,NA,NA,NA,NA,NA,NA,NA
a99b1,task,flow.Sequence,2_9,NA,NA,completion,4284,363217,363214,363230,367514,367517,2023-02-05T12:37:19Z,367531,Orientierung,urekebisho,s,uelekeo,marekebisho,utunzaji,NA,NA,NA,"c(""distractor1"", ""distractor2"", ""distractor3"")",NA,NA,NA,NA,NA,NA,NA,NA,NA,NA,NA,NA,NA,NA,NA,NA,NA,NA,NA
a99b1,Shallow Question,html.Page,2_10_0_0,NA,NA,form submission,3698,367517,367514,367531,371229,371229,2023-02-05T12:37:22Z,371264,Papier,karatasi,s,uchambuzi,usalama,kukataliwa,karatasi,NA,NA,"c(""distractor1"", ""distractor2"", ""distractor3"")",NA,NA,NA,NA,NA,NA,NA,NA,NA,NA,NA,NA,NA,NA,NA,NA,NA,NA,NA
a99b1,Save data screen,canvas.Screen,2_10_0_1,NA,NA,timeout,500,371231,371248,371264,371748,371749,2023-02-05T12:37:23Z,371764,Papier,karatasi,s,uchambuzi,usalama,kukataliwa,NA,NA,1,"c(""distractor1"", ""distractor2"", ""distractor3"")",NA,NA,NA,NA,NA,NA,NA,NA,NA,NA,NA,NA,NA,NA,NA,NA,NA,NA,NA
a99b1,shallow,flow.Sequence,2_10_0,NA,NA,completion,4217,367517,367514,367531,371748,371749,2023-02-05T12:37:23Z,371764,Papier,karatasi,s,uchambuzi,usalama,kukataliwa,NA,NA,NA,"c(""distractor1"", ""distractor2"", ""distractor3"")",NA,NA,NA,NA,NA,NA,NA,NA,NA,NA,NA,NA,NA,NA,NA,NA,NA,NA,NA
a99b1,task,flow.Sequence,2_10,NA,NA,completion,4217,367517,367514,367531,371748,371750,2023-02-05T12:37:23Z,371764,Papier,karatasi,s,uchambuzi,usalama,kukataliwa,NA,NA,NA,"c(""distractor1"", ""distractor2"", ""distractor3"")",NA,NA,NA,NA,NA,NA,NA,NA,NA,NA,NA,NA,NA,NA,NA,NA,NA,NA,NA
a99b1,Shallow Question,html.Page,2_11_0_0,NA,NA,form submission,3919,371750,371748,371764,375683,375684,2023-02-05T12:37:27Z,375714,Begegnung,kukutana,d,mmasihiya,mpiganaji,husiano,kukutana,NA,NA,"c(""distractor1"", ""distractor2"", ""distractor3"")",NA,NA,NA,NA,NA,NA,NA,NA,NA,NA,NA,NA,NA,NA,NA,NA,NA,NA,NA
a99b1,Save data screen,canvas.Screen,2_11_0_1,NA,NA,timeout,501,375685,375698,375714,376198,376199,2023-02-05T12:37:27Z,376215,Begegnung,kukutana,d,mmasihiya,mpiganaji,husiano,NA,NA,1,"c(""distractor1"", ""distractor2"", ""distractor3"")",NA,NA,NA,NA,NA,NA,NA,NA,NA,NA,NA,NA,NA,NA,NA,NA,NA,NA,NA
a99b1,shallow,flow.Sequence,2_11_0,NA,NA,completion,4434,371750,371748,371764,376198,376199,2023-02-05T12:37:27Z,376215,Begegnung,kukutana,d,mmasihiya,mpiganaji,husiano,NA,NA,NA,"c(""distractor1"", ""distractor2"", ""distractor3"")",NA,NA,NA,NA,NA,NA,NA,NA,NA,NA,NA,NA,NA,NA,NA,NA,NA,NA,NA
a99b1,task,flow.Sequence,2_11,NA,NA,completion,4434,371750,371748,371764,376198,376200,2023-02-05T12:37:27Z,376215,Begegnung,kukutana,d,mmasihiya,mpiganaji,husiano,NA,NA,NA,"c(""distractor1"", ""distractor2"", ""distractor3"")",NA,NA,NA,NA,NA,NA,NA,NA,NA,NA,NA,NA,NA,NA,NA,NA,NA,NA,NA
a99b1,Shallow Question,html.Page,2_12_0_0,NA,NA,form submission,10266,376200,376198,376215,386481,386482,2023-02-05T12:37:38Z,386515,Wechsel,ugeuzaji,s,utambulisho,kujenga,wasiwasi,utambulisho,NA,NA,"c(""distractor1"", ""distractor2"", ""distractor3"")",NA,NA,NA,NA,NA,NA,NA,NA,NA,NA,NA,NA,NA,NA,NA,NA,NA,NA,NA
a99b1,Save data screen,canvas.Screen,2_12_0_1,NA,NA,timeout,500,386483,386498,386515,386999,387001,2023-02-05T12:37:38Z,387015,Wechsel,ugeuzaji,s,utambulisho,kujenga,wasiwasi,NA,NA,0,"c(""distractor1"", ""distractor2"", ""distractor3"")",NA,NA,NA,NA,NA,NA,NA,NA,NA,NA,NA,NA,NA,NA,NA,NA,NA,NA,NA
a99b1,shallow,flow.Sequence,2_12_0,NA,NA,completion,10784,376200,376198,376215,386999,387002,2023-02-05T12:37:38Z,387015,Wechsel,ugeuzaji,s,utambulisho,kujenga,wasiwasi,NA,NA,NA,"c(""distractor1"", ""distractor2"", ""distractor3"")",NA,NA,NA,NA,NA,NA,NA,NA,NA,NA,NA,NA,NA,NA,NA,NA,NA,NA,NA
a99b1,task,flow.Sequence,2_12,NA,NA,completion,10784,376200,376198,376215,386999,387003,2023-02-05T12:37:38Z,387015,Wechsel,ugeuzaji,s,utambulisho,kujenga,wasiwasi,NA,NA,NA,"c(""distractor1"", ""distractor2"", ""distractor3"")",NA,NA,NA,NA,NA,NA,NA,NA,NA,NA,NA,NA,NA,NA,NA,NA,NA,NA,NA
a99b1,Shallow Question,html.Page,2_13_0_0,NA,NA,form submission,6906,387003,386999,387015,393921,393922,2023-02-05T12:37:45Z,393949,Erneuerung,ukarabati,s,ushawishi,ukalifu,unyonyaji,ukarabati,NA,NA,"c(""distractor1"", ""distractor2"", ""distractor3"")",NA,NA,NA,NA,NA,NA,NA,NA,NA,NA,NA,NA,NA,NA,NA,NA,NA,NA,NA
a99b1,Save data screen,canvas.Screen,2_13_0_1,NA,NA,timeout,500,393923,393932,393949,394432,394434,2023-02-05T12:37:46Z,394449,Erneuerung,ukarabati,s,ushawishi,ukalifu,unyonyaji,NA,NA,1,"c(""distractor1"", ""distractor2"", ""distractor3"")",NA,NA,NA,NA,NA,NA,NA,NA,NA,NA,NA,NA,NA,NA,NA,NA,NA,NA,NA
a99b1,shallow,flow.Sequence,2_13_0,NA,NA,completion,7417,387003,386999,387015,394432,394434,2023-02-05T12:37:46Z,394449,Erneuerung,ukarabati,s,ushawishi,ukalifu,unyonyaji,NA,NA,NA,"c(""distractor1"", ""distractor2"", ""distractor3"")",NA,NA,NA,NA,NA,NA,NA,NA,NA,NA,NA,NA,NA,NA,NA,NA,NA,NA,NA
a99b1,task,flow.Sequence,2_13,NA,NA,completion,7417,387003,386999,387015,394432,394435,2023-02-05T12:37:46Z,394449,Erneuerung,ukarabati,s,ushawishi,ukalifu,unyonyaji,NA,NA,NA,"c(""distractor1"", ""distractor2"", ""distractor3"")",NA,NA,NA,NA,NA,NA,NA,NA,NA,NA,NA,NA,NA,NA,NA,NA,NA,NA,NA
a99b1,Shallow Question,html.Page,2_14_0_0,NA,NA,form submission,3916,394435,394432,394449,398365,398366,2023-02-05T12:37:50Z,398399,Stimmung,kinyongo,d,kilekile,kisambo,madhehebu,kinyongo,NA,NA,"c(""distractor1"", ""distractor2"", ""distractor3"")",NA,NA,NA,NA,NA,NA,NA,NA,NA,NA,NA,NA,NA,NA,NA,NA,NA,NA,NA
a99b1,Save data screen,canvas.Screen,2_14_0_1,NA,NA,timeout,500,398367,398383,398399,398883,398884,2023-02-05T12:37:50Z,398899,Stimmung,kinyongo,d,kilekile,kisambo,madhehebu,NA,NA,1,"c(""distractor1"", ""distractor2"", ""distractor3"")",NA,NA,NA,NA,NA,NA,NA,NA,NA,NA,NA,NA,NA,NA,NA,NA,NA,NA,NA
a99b1,shallow,flow.Sequence,2_14_0,NA,NA,completion,4434,394435,394432,394449,398883,398885,2023-02-05T12:37:50Z,398899,Stimmung,kinyongo,d,kilekile,kisambo,madhehebu,NA,NA,NA,"c(""distractor1"", ""distractor2"", ""distractor3"")",NA,NA,NA,NA,NA,NA,NA,NA,NA,NA,NA,NA,NA,NA,NA,NA,NA,NA,NA
a99b1,task,flow.Sequence,2_14,NA,NA,completion,4434,394435,394432,394449,398883,398886,2023-02-05T12:37:50Z,398899,Stimmung,kinyongo,d,kilekile,kisambo,madhehebu,NA,NA,NA,"c(""distractor1"", ""distractor2"", ""distractor3"")",NA,NA,NA,NA,NA,NA,NA,NA,NA,NA,NA,NA,NA,NA,NA,NA,NA,NA,NA
a99b1,Shallow Question,html.Page,2_15_0_0,NA,NA,form submission,3268.0000000001,398886,398883,398899,402167,402167,2023-02-05T12:37:53Z,402200,Fleisch,mshakiki,s,kizunguzungu,mshikamano,angusho,mshakiki,NA,NA,"c(""distractor1"", ""distractor2"", ""distractor3"")",NA,NA,NA,NA,NA,NA,NA,NA,NA,NA,NA,NA,NA,NA,NA,NA,NA,NA,NA
a99b1,Save data screen,canvas.Screen,2_15_0_1,NA,NA,timeout,499,402171,402183,402200,402683,402684,2023-02-05T12:37:54Z,402699,Fleisch,mshakiki,s,kizunguzungu,mshikamano,angusho,NA,NA,1,"c(""distractor1"", ""distractor2"", ""distractor3"")",NA,NA,NA,NA,NA,NA,NA,NA,NA,NA,NA,NA,NA,NA,NA,NA,NA,NA,NA
a99b1,shallow,flow.Sequence,2_15_0,NA,NA,completion,3784,398886,398883,398899,402683,402685,2023-02-05T12:37:54Z,402699,Fleisch,mshakiki,s,kizunguzungu,mshikamano,angusho,NA,NA,NA,"c(""distractor1"", ""distractor2"", ""distractor3"")",NA,NA,NA,NA,NA,NA,NA,NA,NA,NA,NA,NA,NA,NA,NA,NA,NA,NA,NA
a99b1,task,flow.Sequence,2_15,NA,NA,completion,3784,398886,398883,398899,402683,402686,2023-02-05T12:37:54Z,402699,Fleisch,mshakiki,s,kizunguzungu,mshikamano,angusho,NA,NA,NA,"c(""distractor1"", ""distractor2"", ""distractor3"")",NA,NA,NA,NA,NA,NA,NA,NA,NA,NA,NA,NA,NA,NA,NA,NA,NA,NA,NA
a99b1,retrieval block 2 (multiple choice),flow.Loop,2,NA,NA,completion,92755,309914,309911,309928,402683,402686,2023-02-05T12:37:54Z,402699,NA,NA,NA,NA,NA,NA,NA,NA,NA,"c(""distractor1"", ""distractor2"", ""distractor3"")",NA,NA,NA,NA,NA,NA,NA,NA,NA,NA,NA,NA,NA,NA,NA,NA,NA,NA,NA
a99b1,End,canvas.Screen,3,NA,keypress(Space),response,1723,402686,402683,402699,404406,404410,2023-02-05T12:37:56Z,404433,NA,NA,NA,NA,NA,NA,NA,NA,NA,NULL,NA,NA,NA,NA,NA,NA,NA,NA,NA,NA,NA,NA,NA,NA,NA,NA,NA,NA,NA
a99b1,root,flow.Sequence,NA,NA,NA,completion,403744,629,641,662,404406,404411,2023-02-05T12:37:56Z,404433,NA,NA,NA,NA,NA,NA,NA,NA,NA,NULL,NA,NA,NA,NA,NA,NA,NA,NA,NA,NA,NA,NA,NA,NA,NA,NA,NA,NA,NA
945bb,Introduction delayed retrieval,canvas.Screen,0,weiter,keypress(Space),response,1965,241,242,247,2207,2221,2023-02-05T12:38:30Z,2255,NA,NA,NA,NA,NA,NA,NA,NA,NA,NA,110,2,20.2.4,https://neurocog.fernuni.ch/studies/vweber/delayed/index.html?vp=110&sess=2,"Mozilla/5.0 (Macintosh; Intel Mac OS X 10_15_7) AppleWebKit/605.1.15 (KHTML, like Gecko) Version/16.3 Safari/605.1.15",MacIntel,de-DE,de-DE,Europe/Zurich,-60,1920,1080,1037,752,1037,800,2,production,f5b4a49f956347addd546a832a3327688c2c0fef
