observation,sender,sender_type,sender_id,response,response_action,ended_on,duration,time_run,time_render,time_show,time_end,time_commit,timestamp,time_switch,distractors,german,swahili,enc,distractor1,distractor2,distractor3,response_2,x,correct,x_2,url_vp,url_sess,meta_labjs_version,meta_location,meta_user_agent,meta_platform,meta_language,meta_locale,meta_time_zone,meta_timezone_offset,meta_screen_width,meta_screen_height,meta_scroll_width,meta_scroll_height,meta_window_inner_width,meta_window_inner_height,meta_device_pixel_ratio,meta_labjs_build_flavor,meta_labjs_build_commit
ff53f,Introduction general,canvas.Screen,0,weiter,keypress(q),response,72687.299999237,414.29999923706,230.5,430.5,73117.799999237,73119.799999237,2024-04-06T07:55:34Z,73130.5,NULL,NA,NA,NA,NA,NA,NA,NA,NA,NA,NA,155,3,20.2.4,https://neurocog.fernuni.ch/studies/vweber/jbaenninger/encoding_immediate/index.html?vp=155&sess=3,"Mozilla/5.0 (Windows NT 10.0; Win64; x64) AppleWebKit/537.36 (KHTML, like Gecko) Chrome/122.0.0.0 Safari/537.36 Edg/122.0.0.0",Win32,de,de-CH,Europe/Zurich,-120,1920,1080,1872,910,1872,958,1,production,f5b4a49f956347addd546a832a3327688c2c0fef
ff53f,Introduction practice,canvas.Screen,1_0,NA,keypress(Space),response,6733.1999998093,73120,73116.1,73130.5,79863.699999809,79864.5,2024-04-06T07:55:41Z,79880.5,NULL,NA,NA,NA,NA,NA,NA,NA,NA,NA,NA,NA,NA,NA,NA,NA,NA,NA,NA,NA,NA,NA,NA,NA,NA,NA,NA,NA,NA,NA
ff53f,Deep Question,html.Page,1_1_0_0_0,NA,NA,form submission,32092.5,79864.899999619,79864.25,79880.5,111973,111973.19999981,2024-04-06T07:56:13Z,111980.5,"c(""distractor1"", ""distractor2"", ""distractor3"")",Schatten,kivuli,d,NA,NA,NA,hadel,NA,NA,NA,NA,NA,NA,NA,NA,NA,NA,NA,NA,NA,NA,NA,NA,NA,NA,NA,NA,NA,NA
ff53f,"""Richtig""-Screen",canvas.Screen,1_1_0_0_1,NA,NA,skipped,NA,111974.59999943,NA,NA,111973,111974.79999924,2024-04-06T07:56:13Z,111980.5,"c(""distractor1"", ""distractor2"", ""distractor3"")",Schatten,kivuli,d,NA,NA,NA,NA,NA,NA,NA,NA,NA,NA,NA,NA,NA,NA,NA,NA,NA,NA,NA,NA,NA,NA,NA,NA,NA,NA
ff53f,"""Falsch""-Screen",canvas.Screen,1_1_0_0_2,NA,NA,timeout,5000,111975.5,111963.988,111980.5,116963.9,116967.69999981,2024-04-06T07:56:18Z,116980.5,"c(""distractor1"", ""distractor2"", ""distractor3"")",Schatten,kivuli,d,NA,NA,NA,NA,NA,0,NA,NA,NA,NA,NA,NA,NA,NA,NA,NA,NA,NA,NA,NA,NA,NA,NA,NA,NA,NA
ff53f,deep,flow.Sequence,1_1_0_0,NA,NA,completion,37083.4,79864.799999237,79864.25,79880.5,116963.9,116968.09999943,2024-04-06T07:56:18Z,116980.5,"c(""distractor1"", ""distractor2"", ""distractor3"")",Schatten,kivuli,d,NA,NA,NA,NA,NA,NA,NA,NA,NA,NA,NA,NA,NA,NA,NA,NA,NA,NA,NA,NA,NA,NA,NA,NA,NA,NA
ff53f,shallow,flow.Sequence,1_1_0_1,NA,NA,skipped,NA,116968.29999924,NA,NA,116963.9,116968.39999962,2024-04-06T07:56:18Z,116980.5,"c(""distractor1"", ""distractor2"", ""distractor3"")",Schatten,kivuli,d,NA,NA,NA,NA,NA,NA,NA,NA,NA,NA,NA,NA,NA,NA,NA,NA,NA,NA,NA,NA,NA,NA,NA,NA,NA,NA
ff53f,task,flow.Sequence,1_1_0,NA,NA,completion,37083.4,79864.799999237,79864.25,79880.5,116963.9,116968.59999943,2024-04-06T07:56:18Z,116980.5,"c(""distractor1"", ""distractor2"", ""distractor3"")",Schatten,kivuli,d,NA,NA,NA,NA,NA,NA,NA,NA,NA,NA,NA,NA,NA,NA,NA,NA,NA,NA,NA,NA,NA,NA,NA,NA,NA,NA
ff53f,deep,flow.Sequence,1_1_1_0,NA,NA,skipped,NA,116968.79999924,NA,NA,116963.9,116968.89999962,2024-04-06T07:56:18Z,116980.5,"c(""distractor1"", ""distractor2"", ""distractor3"")",Rückhalt,msaada,s,muhula,auwali,kiwimbe,NA,NA,NA,NA,NA,NA,NA,NA,NA,NA,NA,NA,NA,NA,NA,NA,NA,NA,NA,NA,NA,NA,NA
ff53f,Shallow Question,html.Page,1_1_1_1_0,NA,NA,form submission,62662.699999809,116969.09999943,116963.9,116980.5,179643.19999981,179643.39999962,2024-04-06T07:57:21Z,179647.442,"c(""distractor1"", ""distractor2"", ""distractor3"")",Rückhalt,msaada,s,muhula,auwali,kiwimbe,muhula,NA,NA,NA,NA,NA,NA,NA,NA,NA,NA,NA,NA,NA,NA,NA,NA,NA,NA,NA,NA,NA,NA
ff53f,"""Richtig""-Screen",canvas.Screen,1_1_1_1_1,NA,NA,skipped,NA,179645.39999962,NA,NA,179643.19999981,179645.5,2024-04-06T07:57:21Z,179647.442,"c(""distractor1"", ""distractor2"", ""distractor3"")",Rückhalt,msaada,s,muhula,auwali,kiwimbe,NA,NA,NA,NA,NA,NA,NA,NA,NA,NA,NA,NA,NA,NA,NA,NA,NA,NA,NA,NA,NA,NA,NA
ff53f,"""Falsch""-Screen",canvas.Screen,1_1_1_1_2,NA,NA,timeout,4999.758,179646.19999981,179647.442,179647.442,184630.5,184631.29999924,2024-04-06T07:57:26Z,184647.2,"c(""distractor1"", ""distractor2"", ""distractor3"")",Rückhalt,msaada,s,muhula,auwali,kiwimbe,NA,NA,0,NA,NA,NA,NA,NA,NA,NA,NA,NA,NA,NA,NA,NA,NA,NA,NA,NA,NA,NA,NA
ff53f,shallow,flow.Sequence,1_1_1_1,NA,NA,completion,67650,116969,116963.9,116980.5,184630.5,184631.69999981,2024-04-06T07:57:26Z,184647.2,"c(""distractor1"", ""distractor2"", ""distractor3"")",Rückhalt,msaada,s,muhula,auwali,kiwimbe,NA,NA,NA,NA,NA,NA,NA,NA,NA,NA,NA,NA,NA,NA,NA,NA,NA,NA,NA,NA,NA,NA,NA
ff53f,task,flow.Sequence,1_1_1,NA,NA,completion,67650,116968.69999981,116963.9,116980.5,184630.5,184631.79999924,2024-04-06T07:57:26Z,184647.2,"c(""distractor1"", ""distractor2"", ""distractor3"")",Rückhalt,msaada,s,muhula,auwali,kiwimbe,NA,NA,NA,NA,NA,NA,NA,NA,NA,NA,NA,NA,NA,NA,NA,NA,NA,NA,NA,NA,NA,NA,NA
ff53f,deep,flow.Sequence,1_1_2_0,NA,NA,skipped,NA,184632,NA,NA,184630.5,184632.09999943,2024-04-06T07:57:26Z,184647.2,"c(""distractor1"", ""distractor2"", ""distractor3"")",Gegenwart,hadhara,s,katiba,jokofu,mikopo,NA,NA,NA,NA,NA,NA,NA,NA,NA,NA,NA,NA,NA,NA,NA,NA,NA,NA,NA,NA,NA,NA,NA
ff53f,Shallow Question,html.Page,1_1_2_1_0,NA,NA,form submission,3855.1999996185,184632.19999981,184630.5,184647.2,188502.39999962,188502.59999943,2024-04-06T07:57:30Z,188513.7,"c(""distractor1"", ""distractor2"", ""distractor3"")",Gegenwart,hadhara,s,katiba,jokofu,mikopo,mikopo,NA,NA,NA,NA,NA,NA,NA,NA,NA,NA,NA,NA,NA,NA,NA,NA,NA,NA,NA,NA,NA,NA
ff53f,"""Richtig""-Screen",canvas.Screen,1_1_2_1_1,NA,NA,skipped,NA,188504.39999962,NA,NA,188502.39999962,188504.5,2024-04-06T07:57:30Z,188513.7,"c(""distractor1"", ""distractor2"", ""distractor3"")",Gegenwart,hadhara,s,katiba,jokofu,mikopo,NA,NA,NA,NA,NA,NA,NA,NA,NA,NA,NA,NA,NA,NA,NA,NA,NA,NA,NA,NA,NA,NA,NA
ff53f,"""Falsch""-Screen",canvas.Screen,1_1_2_1_2,NA,NA,timeout,5000.1,188505.19999981,188497.264,188513.7,193497.1,193498,2024-04-06T07:57:35Z,193513.8,"c(""distractor1"", ""distractor2"", ""distractor3"")",Gegenwart,hadhara,s,katiba,jokofu,mikopo,NA,NA,0,NA,NA,NA,NA,NA,NA,NA,NA,NA,NA,NA,NA,NA,NA,NA,NA,NA,NA,NA,NA
ff53f,shallow,flow.Sequence,1_1_2_1,NA,NA,completion,8849.9,184632.19999981,184630.5,184647.2,193497.1,193498.29999924,2024-04-06T07:57:35Z,193513.8,"c(""distractor1"", ""distractor2"", ""distractor3"")",Gegenwart,hadhara,s,katiba,jokofu,mikopo,NA,NA,NA,NA,NA,NA,NA,NA,NA,NA,NA,NA,NA,NA,NA,NA,NA,NA,NA,NA,NA,NA,NA
ff53f,task,flow.Sequence,1_1_2,NA,NA,completion,8849.9,184632,184630.5,184647.2,193497.1,193498.5,2024-04-06T07:57:35Z,193513.8,"c(""distractor1"", ""distractor2"", ""distractor3"")",Gegenwart,hadhara,s,katiba,jokofu,mikopo,NA,NA,NA,NA,NA,NA,NA,NA,NA,NA,NA,NA,NA,NA,NA,NA,NA,NA,NA,NA,NA,NA,NA
ff53f,Deep Question,html.Page,1_1_3_0_0,NA,NA,form submission,8397.2999994278,193498.69999981,193497.1,193513.8,201911.09999943,201911.29999924,2024-04-06T07:57:43Z,201914.516,"c(""distractor1"", ""distractor2"", ""distractor3"")",Gesundheit,salama,d,NA,NA,NA,gwane,NA,NA,NA,NA,NA,NA,NA,NA,NA,NA,NA,NA,NA,NA,NA,NA,NA,NA,NA,NA,NA,NA
ff53f,"""Richtig""-Screen",canvas.Screen,1_1_3_0_1,NA,NA,skipped,NA,201913.09999943,NA,NA,201911.09999943,201913.29999924,2024-04-06T07:57:43Z,201914.516,"c(""distractor1"", ""distractor2"", ""distractor3"")",Gesundheit,salama,d,NA,NA,NA,NA,NA,NA,NA,NA,NA,NA,NA,NA,NA,NA,NA,NA,NA,NA,NA,NA,NA,NA,NA,NA,NA,NA
ff53f,"""Falsch""-Screen",canvas.Screen,1_1_3_0_2,NA,NA,timeout,4999.384,201914,201914.516,201914.516,206897.1,206897.79999924,2024-04-06T07:57:48Z,206913.9,"c(""distractor1"", ""distractor2"", ""distractor3"")",Gesundheit,salama,d,NA,NA,NA,NA,NA,0,NA,NA,NA,NA,NA,NA,NA,NA,NA,NA,NA,NA,NA,NA,NA,NA,NA,NA,NA,NA
ff53f,deep,flow.Sequence,1_1_3_0,NA,NA,completion,13383.3,193498.69999981,193497.1,193513.8,206897.1,206898.09999943,2024-04-06T07:57:48Z,206913.9,"c(""distractor1"", ""distractor2"", ""distractor3"")",Gesundheit,salama,d,NA,NA,NA,NA,NA,NA,NA,NA,NA,NA,NA,NA,NA,NA,NA,NA,NA,NA,NA,NA,NA,NA,NA,NA,NA,NA
ff53f,shallow,flow.Sequence,1_1_3_1,NA,NA,skipped,NA,206898.09999943,NA,NA,206897.1,206898.19999981,2024-04-06T07:57:48Z,206913.9,"c(""distractor1"", ""distractor2"", ""distractor3"")",Gesundheit,salama,d,NA,NA,NA,NA,NA,NA,NA,NA,NA,NA,NA,NA,NA,NA,NA,NA,NA,NA,NA,NA,NA,NA,NA,NA,NA,NA
ff53f,task,flow.Sequence,1_1_3,NA,NA,completion,13383.3,193498.59999943,193497.1,193513.8,206897.1,206898.39999962,2024-04-06T07:57:48Z,206913.9,"c(""distractor1"", ""distractor2"", ""distractor3"")",Gesundheit,salama,d,NA,NA,NA,NA,NA,NA,NA,NA,NA,NA,NA,NA,NA,NA,NA,NA,NA,NA,NA,NA,NA,NA,NA,NA,NA,NA
ff53f,deep,flow.Sequence,1_1_4_0,NA,NA,skipped,NA,206898.5,NA,NA,206897.1,206898.59999943,2024-04-06T07:57:48Z,206913.9,"c(""distractor1"", ""distractor2"", ""distractor3"")",Kritik,lawama,s,dereva,nafasi,mawazo,NA,NA,NA,NA,NA,NA,NA,NA,NA,NA,NA,NA,NA,NA,NA,NA,NA,NA,NA,NA,NA,NA,NA
ff53f,Shallow Question,html.Page,1_1_4_1_0,NA,NA,form submission,15318.199999428,206898.69999981,206897.1,206913.9,222232.09999943,222232.29999924,2024-04-06T07:58:04Z,222247.1,"c(""distractor1"", ""distractor2"", ""distractor3"")",Kritik,lawama,s,dereva,nafasi,mawazo,dereva,NA,NA,NA,NA,NA,NA,NA,NA,NA,NA,NA,NA,NA,NA,NA,NA,NA,NA,NA,NA,NA,NA
ff53f,"""Richtig""-Screen",canvas.Screen,1_1_4_1_1,NA,NA,skipped,NA,222234,NA,NA,222232.09999943,222234.09999943,2024-04-06T07:58:04Z,222247.1,"c(""distractor1"", ""distractor2"", ""distractor3"")",Kritik,lawama,s,dereva,nafasi,mawazo,NA,NA,NA,NA,NA,NA,NA,NA,NA,NA,NA,NA,NA,NA,NA,NA,NA,NA,NA,NA,NA,NA,NA
ff53f,"""Falsch""-Screen",canvas.Screen,1_1_4_1_2,NA,NA,timeout,5000.1,222234.69999981,222230.64,222247.1,227230.5,227231.29999924,2024-04-06T07:58:09Z,227247.2,"c(""distractor1"", ""distractor2"", ""distractor3"")",Kritik,lawama,s,dereva,nafasi,mawazo,NA,NA,0,NA,NA,NA,NA,NA,NA,NA,NA,NA,NA,NA,NA,NA,NA,NA,NA,NA,NA,NA,NA
ff53f,shallow,flow.Sequence,1_1_4_1,NA,NA,completion,20316.6,206898.69999981,206897.1,206913.9,227230.5,227231.59999943,2024-04-06T07:58:09Z,227247.2,"c(""distractor1"", ""distractor2"", ""distractor3"")",Kritik,lawama,s,dereva,nafasi,mawazo,NA,NA,NA,NA,NA,NA,NA,NA,NA,NA,NA,NA,NA,NA,NA,NA,NA,NA,NA,NA,NA,NA,NA
ff53f,task,flow.Sequence,1_1_4,NA,NA,completion,20316.6,206898.39999962,206897.1,206913.9,227230.5,227231.79999924,2024-04-06T07:58:09Z,227247.2,"c(""distractor1"", ""distractor2"", ""distractor3"")",Kritik,lawama,s,dereva,nafasi,mawazo,NA,NA,NA,NA,NA,NA,NA,NA,NA,NA,NA,NA,NA,NA,NA,NA,NA,NA,NA,NA,NA,NA,NA
ff53f,Deep Question,html.Page,1_1_5_0_0,NA,NA,form submission,10699.899999428,227231.89999962,227230.5,227247.2,237947.09999943,237947.39999962,2024-04-06T07:58:19Z,237964.1,"c(""distractor1"", ""distractor2"", ""distractor3"")",Qualität,mtindo,d,NA,NA,NA,delai,NA,NA,NA,NA,NA,NA,NA,NA,NA,NA,NA,NA,NA,NA,NA,NA,NA,NA,NA,NA,NA,NA
ff53f,"""Richtig""-Screen",canvas.Screen,1_1_5_0_1,NA,NA,skipped,NA,237949.09999943,NA,NA,237947.09999943,237949.19999981,2024-04-06T07:58:19Z,237964.1,"c(""distractor1"", ""distractor2"", ""distractor3"")",Qualität,mtindo,d,NA,NA,NA,NA,NA,NA,NA,NA,NA,NA,NA,NA,NA,NA,NA,NA,NA,NA,NA,NA,NA,NA,NA,NA,NA,NA
ff53f,"""Falsch""-Screen",canvas.Screen,1_1_5_0_2,NA,NA,timeout,4999.6,237949.69999981,237947.43,237964.1,242947,242947.79999924,2024-04-06T07:58:24Z,242963.7,"c(""distractor1"", ""distractor2"", ""distractor3"")",Qualität,mtindo,d,NA,NA,NA,NA,NA,0,NA,NA,NA,NA,NA,NA,NA,NA,NA,NA,NA,NA,NA,NA,NA,NA,NA,NA,NA,NA
ff53f,deep,flow.Sequence,1_1_5_0,NA,NA,completion,15699.8,227231.79999924,227230.5,227247.2,242947,242948.09999943,2024-04-06T07:58:24Z,242963.7,"c(""distractor1"", ""distractor2"", ""distractor3"")",Qualität,mtindo,d,NA,NA,NA,NA,NA,NA,NA,NA,NA,NA,NA,NA,NA,NA,NA,NA,NA,NA,NA,NA,NA,NA,NA,NA,NA,NA
ff53f,shallow,flow.Sequence,1_1_5_1,NA,NA,skipped,NA,242948.19999981,NA,NA,242947,242948.29999924,2024-04-06T07:58:24Z,242963.7,"c(""distractor1"", ""distractor2"", ""distractor3"")",Qualität,mtindo,d,NA,NA,NA,NA,NA,NA,NA,NA,NA,NA,NA,NA,NA,NA,NA,NA,NA,NA,NA,NA,NA,NA,NA,NA,NA,NA
ff53f,task,flow.Sequence,1_1_5,NA,NA,completion,15699.8,227231.79999924,227230.5,227247.2,242947,242948.39999962,2024-04-06T07:58:24Z,242963.7,"c(""distractor1"", ""distractor2"", ""distractor3"")",Qualität,mtindo,d,NA,NA,NA,NA,NA,NA,NA,NA,NA,NA,NA,NA,NA,NA,NA,NA,NA,NA,NA,NA,NA,NA,NA,NA,NA,NA
ff53f,block,flow.Loop,1_1,NA,NA,completion,163066.5,79864.699999809,79864.25,79880.5,242947,242948.69999981,2024-04-06T07:58:24Z,242963.7,"c(""distractor1"", ""distractor2"", ""distractor3"")",NA,NA,NA,NA,NA,NA,NA,NA,NA,NA,NA,NA,NA,NA,NA,NA,NA,NA,NA,NA,NA,NA,NA,NA,NA,NA,NA,NA,NA
ff53f,Practice,flow.Sequence,1,NA,NA,completion,169816.5,73120,73116.1,73130.5,242947,242948.89999962,2024-04-06T07:58:24Z,242963.7,NULL,NA,NA,NA,NA,NA,NA,NA,NA,NA,NA,NA,NA,NA,NA,NA,NA,NA,NA,NA,NA,NA,NA,NA,NA,NA,NA,NA,NA,NA
ff53f,Experiment start,canvas.Screen,2,weiter,keypress(q),response,11286.3,242949,242947,242963.7,254250,254251,2024-04-06T07:58:36Z,254347,NULL,NA,NA,NA,NA,NA,NA,NA,NA,NA,NA,NA,NA,NA,NA,NA,NA,NA,NA,NA,NA,NA,NA,NA,NA,NA,NA,NA,NA,NA
ff53f,Deep Question,html.Page,3_0_0_0_0_0_0,NA,NA,form submission,10925.199999809,254335.39999962,254335.3,254347,265272.19999981,265272.29999924,2024-04-06T07:58:47Z,265280.3,NULL,Tester,wanaojaribu,d,NA,NA,NA,gewan,NA,NA,0,NA,NA,NA,NA,NA,NA,NA,NA,NA,NA,NA,NA,NA,NA,NA,NA,NA,NA,NA
ff53f,"""Richtig""-Screen",canvas.Screen,3_0_0_0_0_0_1,NA,NA,skipped,NA,265274.09999943,NA,NA,265272.19999981,265274.19999981,2024-04-06T07:58:47Z,265280.3,NULL,Tester,wanaojaribu,d,NA,NA,NA,NA,sdf,NA,0,NA,NA,NA,NA,NA,NA,NA,NA,NA,NA,NA,NA,NA,NA,NA,NA,NA,NA,NA
ff53f,"""Falsch""-Screen",canvas.Screen,3_0_0_0_0_0_2,NA,NA,timeout,5000.1,265274.69999981,265263.862,265280.3,270263.8,270264.59999943,2024-04-06T07:58:52Z,270280.4,NULL,Tester,wanaojaribu,d,NA,NA,NA,NA,sdf,0,0,NA,NA,NA,NA,NA,NA,NA,NA,NA,NA,NA,NA,NA,NA,NA,NA,NA,NA,NA
ff53f,deep,flow.Sequence,3_0_0_0_0_0,NA,NA,completion,15916.8,254335.39999962,254335.3,254347,270263.8,270264.89999962,2024-04-06T07:58:52Z,270280.4,NULL,Tester,wanaojaribu,d,NA,NA,NA,NA,sdf,NA,0,NA,NA,NA,NA,NA,NA,NA,NA,NA,NA,NA,NA,NA,NA,NA,NA,NA,NA,NA
ff53f,shallow,flow.Sequence,3_0_0_0_0_1,NA,NA,skipped,NA,270265,NA,NA,270263.8,270265.09999943,2024-04-06T07:58:52Z,270280.4,NULL,Tester,wanaojaribu,d,NA,NA,NA,NA,sdf,NA,0,NA,NA,NA,NA,NA,NA,NA,NA,NA,NA,NA,NA,NA,NA,NA,NA,NA,NA,NA
ff53f,task,flow.Sequence,3_0_0_0_0,NA,NA,completion,15916.8,254335.39999962,254335.3,254347,270263.8,270265.19999981,2024-04-06T07:58:52Z,270280.4,NULL,Tester,wanaojaribu,d,NA,NA,NA,NA,sdf,NA,0,NA,NA,NA,NA,NA,NA,NA,NA,NA,NA,NA,NA,NA,NA,NA,NA,NA,NA,NA
ff53f,deep,flow.Sequence,3_0_0_0_1_0,NA,NA,skipped,NA,270265.19999981,NA,NA,270263.8,270265.29999924,2024-04-06T07:58:52Z,270280.4,NULL,Entwicklung,maendeleo,s,uangavu,mshindwa,badiliko,NA,sdf,NA,0,NA,NA,NA,NA,NA,NA,NA,NA,NA,NA,NA,NA,NA,NA,NA,NA,NA,NA,NA
ff53f,Shallow Question,html.Page,3_0_0_0_1_1_0,NA,NA,form submission,4404.6999994278,270265.39999962,270263.8,270280.4,274685.09999943,274685.39999962,2024-04-06T07:58:56Z,274697.1,NULL,Entwicklung,maendeleo,s,uangavu,mshindwa,badiliko,uangavu,NA,NA,0,NA,NA,NA,NA,NA,NA,NA,NA,NA,NA,NA,NA,NA,NA,NA,NA,NA,NA,NA
ff53f,"""Richtig""-Screen",canvas.Screen,3_0_0_0_1_1_1,NA,NA,skipped,NA,274687.09999943,NA,NA,274685.09999943,274687.09999943,2024-04-06T07:58:56Z,274697.1,NULL,Entwicklung,maendeleo,s,uangavu,mshindwa,badiliko,NA,sdf,NA,0,NA,NA,NA,NA,NA,NA,NA,NA,NA,NA,NA,NA,NA,NA,NA,NA,NA,NA,NA
ff53f,"""Falsch""-Screen",canvas.Screen,3_0_0_0_1_1_2,NA,NA,timeout,5000.1,274687.69999981,274681,274697.1,279680.5,279681.29999924,2024-04-06T07:59:01Z,279697.2,NULL,Entwicklung,maendeleo,s,uangavu,mshindwa,badiliko,NA,sdf,0,0,NA,NA,NA,NA,NA,NA,NA,NA,NA,NA,NA,NA,NA,NA,NA,NA,NA,NA,NA
ff53f,shallow,flow.Sequence,3_0_0_0_1_1,NA,NA,completion,9400.1,270265.39999962,270263.8,270280.4,279680.5,279681.5,2024-04-06T07:59:01Z,279697.2,NULL,Entwicklung,maendeleo,s,uangavu,mshindwa,badiliko,NA,sdf,NA,0,NA,NA,NA,NA,NA,NA,NA,NA,NA,NA,NA,NA,NA,NA,NA,NA,NA,NA,NA
ff53f,task,flow.Sequence,3_0_0_0_1,NA,NA,completion,9400.1,270265.19999981,270263.8,270280.4,279680.5,279681.69999981,2024-04-06T07:59:01Z,279697.2,NULL,Entwicklung,maendeleo,s,uangavu,mshindwa,badiliko,NA,sdf,NA,0,NA,NA,NA,NA,NA,NA,NA,NA,NA,NA,NA,NA,NA,NA,NA,NA,NA,NA,NA
ff53f,Deep Question,html.Page,3_0_0_0_2_0_0,NA,NA,form submission,6156.9999998093,279681.79999924,279680.5,279697.2,285854.19999981,285854.29999924,2024-04-06T07:59:07Z,285863.5,NULL,Schüler,mwanafunzi,d,NA,NA,NA,usele,NA,NA,0,NA,NA,NA,NA,NA,NA,NA,NA,NA,NA,NA,NA,NA,NA,NA,NA,NA,NA,NA
ff53f,"""Richtig""-Screen",canvas.Screen,3_0_0_0_2_0_1,NA,NA,skipped,NA,285855.69999981,NA,NA,285854.19999981,285855.79999924,2024-04-06T07:59:07Z,285863.5,NULL,Schüler,mwanafunzi,d,NA,NA,NA,NA,sdf,NA,0,NA,NA,NA,NA,NA,NA,NA,NA,NA,NA,NA,NA,NA,NA,NA,NA,NA,NA,NA
ff53f,"""Falsch""-Screen",canvas.Screen,3_0_0_0_2_0_2,NA,NA,timeout,5000.4,285856.19999981,285847.264,285863.5,290847.1,290848,2024-04-06T07:59:12Z,290863.9,NULL,Schüler,mwanafunzi,d,NA,NA,NA,NA,sdf,0,0,NA,NA,NA,NA,NA,NA,NA,NA,NA,NA,NA,NA,NA,NA,NA,NA,NA,NA,NA
ff53f,deep,flow.Sequence,3_0_0_0_2_0,NA,NA,completion,11149.9,279681.79999924,279680.5,279697.2,290847.1,290848.29999924,2024-04-06T07:59:12Z,290863.9,NULL,Schüler,mwanafunzi,d,NA,NA,NA,NA,sdf,NA,0,NA,NA,NA,NA,NA,NA,NA,NA,NA,NA,NA,NA,NA,NA,NA,NA,NA,NA,NA
ff53f,shallow,flow.Sequence,3_0_0_0_2_1,NA,NA,skipped,NA,290848.39999962,NA,NA,290847.1,290848.5,2024-04-06T07:59:12Z,290863.9,NULL,Schüler,mwanafunzi,d,NA,NA,NA,NA,sdf,NA,0,NA,NA,NA,NA,NA,NA,NA,NA,NA,NA,NA,NA,NA,NA,NA,NA,NA,NA,NA
ff53f,task,flow.Sequence,3_0_0_0_2,NA,NA,completion,11149.9,279681.69999981,279680.5,279697.2,290847.1,290848.59999943,2024-04-06T07:59:12Z,290863.9,NULL,Schüler,mwanafunzi,d,NA,NA,NA,NA,sdf,NA,0,NA,NA,NA,NA,NA,NA,NA,NA,NA,NA,NA,NA,NA,NA,NA,NA,NA,NA,NA
ff53f,deep,flow.Sequence,3_0_0_0_3_0,NA,NA,skipped,NA,290848.69999981,NA,NA,290847.1,290848.79999924,2024-04-06T07:59:12Z,290863.9,NULL,Fenster,dirisha,s,walakini,tasawari,maarifa,NA,sdf,NA,0,NA,NA,NA,NA,NA,NA,NA,NA,NA,NA,NA,NA,NA,NA,NA,NA,NA,NA,NA
ff53f,Shallow Question,html.Page,3_0_0_0_3_1_0,NA,NA,form submission,14694.999999619,290848.79999924,290847.1,290863.9,305558.89999962,305559.09999943,2024-04-06T07:59:27Z,305566.4,NULL,Fenster,dirisha,s,walakini,tasawari,maarifa,maarifa,NA,NA,0,NA,NA,NA,NA,NA,NA,NA,NA,NA,NA,NA,NA,NA,NA,NA,NA,NA,NA,NA
ff53f,"""Richtig""-Screen",canvas.Screen,3_0_0_0_3_1_1,NA,NA,skipped,NA,305560.89999962,NA,NA,305558.89999962,305561.09999943,2024-04-06T07:59:27Z,305566.4,NULL,Fenster,dirisha,s,walakini,tasawari,maarifa,NA,sdf,NA,0,NA,NA,NA,NA,NA,NA,NA,NA,NA,NA,NA,NA,NA,NA,NA,NA,NA,NA,NA
ff53f,"""Falsch""-Screen",canvas.Screen,3_0_0_0_3_1_2,NA,NA,timeout,4997.5,305561.59999943,305563.77,305566.4,310547,310547.79999924,2024-04-06T07:59:32Z,310563.9,NULL,Fenster,dirisha,s,walakini,tasawari,maarifa,NA,sdf,0,0,NA,NA,NA,NA,NA,NA,NA,NA,NA,NA,NA,NA,NA,NA,NA,NA,NA,NA,NA
ff53f,shallow,flow.Sequence,3_0_0_0_3_1,NA,NA,completion,19683.1,290848.79999924,290847.1,290863.9,310547,310548.19999981,2024-04-06T07:59:32Z,310563.9,NULL,Fenster,dirisha,s,walakini,tasawari,maarifa,NA,sdf,NA,0,NA,NA,NA,NA,NA,NA,NA,NA,NA,NA,NA,NA,NA,NA,NA,NA,NA,NA,NA
ff53f,task,flow.Sequence,3_0_0_0_3,NA,NA,completion,19683.1,290848.59999943,290847.1,290863.9,310547,310548.29999924,2024-04-06T07:59:32Z,310563.9,NULL,Fenster,dirisha,s,walakini,tasawari,maarifa,NA,sdf,NA,0,NA,NA,NA,NA,NA,NA,NA,NA,NA,NA,NA,NA,NA,NA,NA,NA,NA,NA,NA
ff53f,deep,flow.Sequence,3_0_0_0_4_0,NA,NA,skipped,NA,310548.39999962,NA,NA,310547,310548.59999943,2024-04-06T07:59:32Z,310563.9,NULL,Vorwurf,mashtaka,s,msukumo,mtangulizi,uenyekiti,NA,sdf,NA,0,NA,NA,NA,NA,NA,NA,NA,NA,NA,NA,NA,NA,NA,NA,NA,NA,NA,NA,NA
ff53f,Shallow Question,html.Page,3_0_0_0_4_1_0,NA,NA,form submission,9950.399999237,310548.59999943,310547,310563.9,320514.29999924,320514.5,2024-04-06T07:59:42Z,320531.8,NULL,Vorwurf,mashtaka,s,msukumo,mtangulizi,uenyekiti,mtangulizi,NA,NA,0,NA,NA,NA,NA,NA,NA,NA,NA,NA,NA,NA,NA,NA,NA,NA,NA,NA,NA,NA
ff53f,"""Richtig""-Screen",canvas.Screen,3_0_0_0_4_1_1,NA,NA,skipped,NA,320516.29999924,NA,NA,320514.29999924,320516.39999962,2024-04-06T07:59:42Z,320531.8,NULL,Vorwurf,mashtaka,s,msukumo,mtangulizi,uenyekiti,NA,sdf,NA,0,NA,NA,NA,NA,NA,NA,NA,NA,NA,NA,NA,NA,NA,NA,NA,NA,NA,NA,NA
ff53f,"""Falsch""-Screen",canvas.Screen,3_0_0_0_4_1_2,NA,NA,timeout,4998.6,320517,320513.814,320531.8,325513.8,325515,2024-04-06T07:59:47Z,325530.4,NULL,Vorwurf,mashtaka,s,msukumo,mtangulizi,uenyekiti,NA,sdf,0,0,NA,NA,NA,NA,NA,NA,NA,NA,NA,NA,NA,NA,NA,NA,NA,NA,NA,NA,NA
ff53f,shallow,flow.Sequence,3_0_0_0_4_1,NA,NA,completion,14949.9,310548.59999943,310547,310563.9,325513.8,325515.09999943,2024-04-06T07:59:47Z,325530.4,NULL,Vorwurf,mashtaka,s,msukumo,mtangulizi,uenyekiti,NA,sdf,NA,0,NA,NA,NA,NA,NA,NA,NA,NA,NA,NA,NA,NA,NA,NA,NA,NA,NA,NA,NA
ff53f,task,flow.Sequence,3_0_0_0_4,NA,NA,completion,14949.9,310548.39999962,310547,310563.9,325513.8,325515.29999924,2024-04-06T07:59:47Z,325530.4,NULL,Vorwurf,mashtaka,s,msukumo,mtangulizi,uenyekiti,NA,sdf,NA,0,NA,NA,NA,NA,NA,NA,NA,NA,NA,NA,NA,NA,NA,NA,NA,NA,NA,NA,NA
ff53f,deep,flow.Sequence,3_0_0_0_5_0,NA,NA,skipped,NA,325515.39999962,NA,NA,325513.8,325515.59999943,2024-04-06T07:59:47Z,325530.4,NULL,Spionage,upelelezi,s,maslahi,utokazo,magangao,NA,sdf,NA,0,NA,NA,NA,NA,NA,NA,NA,NA,NA,NA,NA,NA,NA,NA,NA,NA,NA,NA,NA
ff53f,Shallow Question,html.Page,3_0_0_0_5_1_0,NA,NA,form submission,6501.6,325515.69999981,325513.8,325530.4,332032,332032.19999981,2024-04-06T07:59:53Z,332047.1,NULL,Spionage,upelelezi,s,maslahi,utokazo,magangao,upelelezi,NA,NA,0,NA,NA,NA,NA,NA,NA,NA,NA,NA,NA,NA,NA,NA,NA,NA,NA,NA,NA,NA
ff53f,"""Richtig""-Screen",canvas.Screen,3_0_0_0_5_1_1,NA,NA,timeout,5000,332034,332030.7,332047.1,337030.5,337031.19999981,2024-04-06T07:59:58Z,337047.1,NULL,Spionage,upelelezi,s,maslahi,utokazo,magangao,NA,sdf,1,0,NA,NA,NA,NA,NA,NA,NA,NA,NA,NA,NA,NA,NA,NA,NA,NA,NA,NA,NA
ff53f,"""Falsch""-Screen",canvas.Screen,3_0_0_0_5_1_2,NA,NA,skipped,NA,337035.09999943,NA,NA,337030.5,337035.29999924,2024-04-06T07:59:58Z,337047.1,NULL,Spionage,upelelezi,s,maslahi,utokazo,magangao,NA,sdf,NA,0,NA,NA,NA,NA,NA,NA,NA,NA,NA,NA,NA,NA,NA,NA,NA,NA,NA,NA,NA
ff53f,shallow,flow.Sequence,3_0_0_0_5_1,NA,NA,completion,11500.1,325515.59999943,325513.8,325530.4,337030.5,337035.59999943,2024-04-06T07:59:58Z,337047.1,NULL,Spionage,upelelezi,s,maslahi,utokazo,magangao,NA,sdf,NA,0,NA,NA,NA,NA,NA,NA,NA,NA,NA,NA,NA,NA,NA,NA,NA,NA,NA,NA,NA
ff53f,task,flow.Sequence,3_0_0_0_5,NA,NA,completion,11500.1,325515.39999962,325513.8,325530.4,337030.5,337035.69999981,2024-04-06T07:59:58Z,337047.1,NULL,Spionage,upelelezi,s,maslahi,utokazo,magangao,NA,sdf,NA,0,NA,NA,NA,NA,NA,NA,NA,NA,NA,NA,NA,NA,NA,NA,NA,NA,NA,NA,NA
ff53f,Deep Question,html.Page,3_0_0_0_6_0_0,NA,NA,form submission,8303.9,337035.79999924,337030.5,337047.1,345351,345351.19999981,2024-04-06T08:00:07Z,345363.8,NULL,Papier,karatasi,d,NA,NA,NA,bunad,NA,NA,0,NA,NA,NA,NA,NA,NA,NA,NA,NA,NA,NA,NA,NA,NA,NA,NA,NA,NA,NA
ff53f,"""Richtig""-Screen",canvas.Screen,3_0_0_0_6_0_1,NA,NA,skipped,NA,345352.89999962,NA,NA,345351,345353,2024-04-06T08:00:07Z,345363.8,NULL,Papier,karatasi,d,NA,NA,NA,NA,sdf,NA,0,NA,NA,NA,NA,NA,NA,NA,NA,NA,NA,NA,NA,NA,NA,NA,NA,NA,NA,NA
ff53f,"""Falsch""-Screen",canvas.Screen,3_0_0_0_6_0_2,NA,NA,timeout,5000,345353.59999943,345347.35,345363.8,350346.9,350347.69999981,2024-04-06T08:00:12Z,350363.8,NULL,Papier,karatasi,d,NA,NA,NA,NA,sdf,0,0,NA,NA,NA,NA,NA,NA,NA,NA,NA,NA,NA,NA,NA,NA,NA,NA,NA,NA,NA
ff53f,deep,flow.Sequence,3_0_0_0_6_0,NA,NA,completion,13299.8,337035.79999924,337030.5,337047.1,350346.9,350348,2024-04-06T08:00:12Z,350363.8,NULL,Papier,karatasi,d,NA,NA,NA,NA,sdf,NA,0,NA,NA,NA,NA,NA,NA,NA,NA,NA,NA,NA,NA,NA,NA,NA,NA,NA,NA,NA
ff53f,shallow,flow.Sequence,3_0_0_0_6_1,NA,NA,skipped,NA,350348.09999943,NA,NA,350346.9,350348.09999943,2024-04-06T08:00:12Z,350363.8,NULL,Papier,karatasi,d,NA,NA,NA,NA,sdf,NA,0,NA,NA,NA,NA,NA,NA,NA,NA,NA,NA,NA,NA,NA,NA,NA,NA,NA,NA,NA
ff53f,task,flow.Sequence,3_0_0_0_6,NA,NA,completion,13299.8,337035.69999981,337030.5,337047.1,350346.9,350348.29999924,2024-04-06T08:00:12Z,350363.8,NULL,Papier,karatasi,d,NA,NA,NA,NA,sdf,NA,0,NA,NA,NA,NA,NA,NA,NA,NA,NA,NA,NA,NA,NA,NA,NA,NA,NA,NA,NA
ff53f,Deep Question,html.Page,3_0_0_0_7_0_0,NA,NA,form submission,8102.2999994278,350348.29999924,350346.9,350363.8,358466.09999943,358466.19999981,2024-04-06T08:00:20Z,358480.3,NULL,Niveau,kiwango,d,NA,NA,NA,lewan,NA,NA,0,NA,NA,NA,NA,NA,NA,NA,NA,NA,NA,NA,NA,NA,NA,NA,NA,NA,NA,NA
ff53f,"""Richtig""-Screen",canvas.Screen,3_0_0_0_7_0_1,NA,NA,skipped,NA,358468,NA,NA,358466.09999943,358468.09999943,2024-04-06T08:00:20Z,358480.3,NULL,Niveau,kiwango,d,NA,NA,NA,NA,sdf,NA,0,NA,NA,NA,NA,NA,NA,NA,NA,NA,NA,NA,NA,NA,NA,NA,NA,NA,NA,NA
ff53f,"""Falsch""-Screen",canvas.Screen,3_0_0_0_7_0_2,NA,NA,timeout,5000.2,358468.59999943,358463.8,358480.3,363463.8,363464.5,2024-04-06T08:00:25Z,363480.5,NULL,Niveau,kiwango,d,NA,NA,NA,NA,sdf,0,0,NA,NA,NA,NA,NA,NA,NA,NA,NA,NA,NA,NA,NA,NA,NA,NA,NA,NA,NA
ff53f,deep,flow.Sequence,3_0_0_0_7_0,NA,NA,completion,13100,350348.29999924,350346.9,350363.8,363463.8,363464.79999924,2024-04-06T08:00:25Z,363480.5,NULL,Niveau,kiwango,d,NA,NA,NA,NA,sdf,NA,0,NA,NA,NA,NA,NA,NA,NA,NA,NA,NA,NA,NA,NA,NA,NA,NA,NA,NA,NA
ff53f,shallow,flow.Sequence,3_0_0_0_7_1,NA,NA,skipped,NA,363465,NA,NA,363463.8,363465.09999943,2024-04-06T08:00:25Z,363480.5,NULL,Niveau,kiwango,d,NA,NA,NA,NA,sdf,NA,0,NA,NA,NA,NA,NA,NA,NA,NA,NA,NA,NA,NA,NA,NA,NA,NA,NA,NA,NA
ff53f,task,flow.Sequence,3_0_0_0_7,NA,NA,completion,13100,350348.29999924,350346.9,350363.8,363463.8,363465.19999981,2024-04-06T08:00:25Z,363480.5,NULL,Niveau,kiwango,d,NA,NA,NA,NA,sdf,NA,0,NA,NA,NA,NA,NA,NA,NA,NA,NA,NA,NA,NA,NA,NA,NA,NA,NA,NA,NA
ff53f,block,flow.Loop,3_0_0_0,NA,NA,completion,109116.8,254335.39999962,254335.3,254347,363463.8,363465.29999924,2024-04-06T08:00:25Z,363480.5,NULL,NA,NA,NA,NA,NA,NA,NA,sdf,NA,0,NA,NA,NA,NA,NA,NA,NA,NA,NA,NA,NA,NA,NA,NA,NA,NA,NA,NA,NA
ff53f,weiter,canvas.Screen,3_0_0_1,sdf,keypress(Space),response,1655.7999992371,363465.39999962,363463.8,363480.5,365136.29999924,365137.19999981,2024-04-06T08:00:26Z,365197,NULL,NA,NA,NA,NA,NA,NA,NA,sdf,NA,0,NA,NA,NA,NA,NA,NA,NA,NA,NA,NA,NA,NA,NA,NA,NA,NA,NA,NA,NA
ff53f,check continue,flow.Sequence,3_0_0,NA,NA,completion,110789.29999924,254335.39999962,254335.3,254347,365136.29999924,365137.39999962,2024-04-06T08:00:26Z,365197,NULL,NA,NA,NA,NA,NA,NA,NA,sdf,NA,0,NA,NA,NA,NA,NA,NA,NA,NA,NA,NA,NA,NA,NA,NA,NA,NA,NA,NA,NA
ff53f,Deep Question,html.Page,3_0_1_0_0_0_0,NA,NA,form submission,32843.899999619,365183.89999962,365180.6,365197,398040.89999962,398041.19999981,2024-04-06T08:00:59Z,398046.9,NULL,Schüler,mwanafunzi,d,NA,NA,NA,hadep,NA,NA,1,NA,NA,NA,NA,NA,NA,NA,NA,NA,NA,NA,NA,NA,NA,NA,NA,NA,NA,NA
ff53f,"""Richtig""-Screen",canvas.Screen,3_0_1_0_0_0_1,NA,NA,skipped,NA,398042.89999962,NA,NA,398040.89999962,398043,2024-04-06T08:00:59Z,398046.9,NULL,Schüler,mwanafunzi,d,NA,NA,NA,NA,sdfdsf,NA,1,NA,NA,NA,NA,NA,NA,NA,NA,NA,NA,NA,NA,NA,NA,NA,NA,NA,NA,NA
ff53f,"""Falsch""-Screen",canvas.Screen,3_0_1_0_0_0_2,NA,NA,timeout,5000.2,398043.59999943,398030.224,398046.9,403030.2,403030.89999962,2024-04-06T08:01:04Z,403047.1,NULL,Schüler,mwanafunzi,d,NA,NA,NA,NA,sdfdsf,0,1,NA,NA,NA,NA,NA,NA,NA,NA,NA,NA,NA,NA,NA,NA,NA,NA,NA,NA,NA
ff53f,deep,flow.Sequence,3_0_1_0_0_0,NA,NA,completion,37833.2,365183.89999962,365180.6,365197,403030.2,403031.19999981,2024-04-06T08:01:04Z,403047.1,NULL,Schüler,mwanafunzi,d,NA,NA,NA,NA,sdfdsf,NA,1,NA,NA,NA,NA,NA,NA,NA,NA,NA,NA,NA,NA,NA,NA,NA,NA,NA,NA,NA
ff53f,shallow,flow.Sequence,3_0_1_0_0_1,NA,NA,skipped,NA,403031.39999962,NA,NA,403030.2,403031.5,2024-04-06T08:01:04Z,403047.1,NULL,Schüler,mwanafunzi,d,NA,NA,NA,NA,sdfdsf,NA,1,NA,NA,NA,NA,NA,NA,NA,NA,NA,NA,NA,NA,NA,NA,NA,NA,NA,NA,NA
ff53f,task,flow.Sequence,3_0_1_0_0,NA,NA,completion,37833.2,365183.89999962,365180.6,365197,403030.2,403031.59999943,2024-04-06T08:01:04Z,403047.1,NULL,Schüler,mwanafunzi,d,NA,NA,NA,NA,sdfdsf,NA,1,NA,NA,NA,NA,NA,NA,NA,NA,NA,NA,NA,NA,NA,NA,NA,NA,NA,NA,NA
ff53f,deep,flow.Sequence,3_0_1_0_1_0,NA,NA,skipped,NA,403031.69999981,NA,NA,403030.2,403031.79999924,2024-04-06T08:01:04Z,403047.1,NULL,Entwicklung,maendeleo,s,uangavu,mshindwa,badiliko,NA,sdfdsf,NA,1,NA,NA,NA,NA,NA,NA,NA,NA,NA,NA,NA,NA,NA,NA,NA,NA,NA,NA,NA
ff53f,Shallow Question,html.Page,3_0_1_0_1_1_0,NA,NA,form submission,24023.599999809,403031.89999962,403030.2,403047.1,427070.69999981,427071,2024-04-06T08:01:28Z,427080.2,NULL,Entwicklung,maendeleo,s,uangavu,mshindwa,badiliko,maendeleo,NA,NA,1,NA,NA,NA,NA,NA,NA,NA,NA,NA,NA,NA,NA,NA,NA,NA,NA,NA,NA,NA
ff53f,"""Richtig""-Screen",canvas.Screen,3_0_1_0_1_1_1,NA,NA,timeout,5000.1,427072.79999924,427063.8,427080.2,432063.7,432064.5,2024-04-06T08:01:33Z,432080.3,NULL,Entwicklung,maendeleo,s,uangavu,mshindwa,badiliko,NA,sdfdsf,1,1,NA,NA,NA,NA,NA,NA,NA,NA,NA,NA,NA,NA,NA,NA,NA,NA,NA,NA,NA
ff53f,"""Falsch""-Screen",canvas.Screen,3_0_1_0_1_1_2,NA,NA,skipped,NA,432068.59999943,NA,NA,432063.7,432068.79999924,2024-04-06T08:01:33Z,432080.3,NULL,Entwicklung,maendeleo,s,uangavu,mshindwa,badiliko,NA,sdfdsf,NA,1,NA,NA,NA,NA,NA,NA,NA,NA,NA,NA,NA,NA,NA,NA,NA,NA,NA,NA,NA
ff53f,shallow,flow.Sequence,3_0_1_0_1_1,NA,NA,completion,29016.6,403031.79999924,403030.2,403047.1,432063.7,432069,2024-04-06T08:01:33Z,432080.3,NULL,Entwicklung,maendeleo,s,uangavu,mshindwa,badiliko,NA,sdfdsf,NA,1,NA,NA,NA,NA,NA,NA,NA,NA,NA,NA,NA,NA,NA,NA,NA,NA,NA,NA,NA
ff53f,task,flow.Sequence,3_0_1_0_1,NA,NA,completion,29016.6,403031.59999943,403030.2,403047.1,432063.7,432069.19999981,2024-04-06T08:01:33Z,432080.3,NULL,Entwicklung,maendeleo,s,uangavu,mshindwa,badiliko,NA,sdfdsf,NA,1,NA,NA,NA,NA,NA,NA,NA,NA,NA,NA,NA,NA,NA,NA,NA,NA,NA,NA,NA
ff53f,deep,flow.Sequence,3_0_1_0_2_0,NA,NA,skipped,NA,432069.39999962,NA,NA,432063.7,432069.39999962,2024-04-06T08:01:33Z,432080.3,NULL,Fenster,dirisha,s,walakini,tasawari,maarifa,NA,sdfdsf,NA,1,NA,NA,NA,NA,NA,NA,NA,NA,NA,NA,NA,NA,NA,NA,NA,NA,NA,NA,NA
ff53f,Shallow Question,html.Page,3_0_1_0_2_1_0,NA,NA,form submission,8792.5999996185,432069.39999962,432063.7,432080.3,440872.89999962,440873.09999943,2024-04-06T08:01:42Z,440880.366,NULL,Fenster,dirisha,s,walakini,tasawari,maarifa,dirisha,NA,NA,1,NA,NA,NA,NA,NA,NA,NA,NA,NA,NA,NA,NA,NA,NA,NA,NA,NA,NA,NA
ff53f,"""Richtig""-Screen",canvas.Screen,3_0_1_0_2_1_1,NA,NA,timeout,4999.834,440874.79999924,440880.366,440880.366,445863.6,445864.19999981,2024-04-06T08:01:47Z,445880.2,NULL,Fenster,dirisha,s,walakini,tasawari,maarifa,NA,sdfdsf,1,1,NA,NA,NA,NA,NA,NA,NA,NA,NA,NA,NA,NA,NA,NA,NA,NA,NA,NA,NA
ff53f,"""Falsch""-Screen",canvas.Screen,3_0_1_0_2_1_2,NA,NA,skipped,NA,445868.59999943,NA,NA,445863.6,445868.79999924,2024-04-06T08:01:47Z,445880.2,NULL,Fenster,dirisha,s,walakini,tasawari,maarifa,NA,sdfdsf,NA,1,NA,NA,NA,NA,NA,NA,NA,NA,NA,NA,NA,NA,NA,NA,NA,NA,NA,NA,NA
ff53f,shallow,flow.Sequence,3_0_1_0_2_1,NA,NA,completion,13783.3,432069.39999962,432063.7,432080.3,445863.6,445869.09999943,2024-04-06T08:01:47Z,445880.2,NULL,Fenster,dirisha,s,walakini,tasawari,maarifa,NA,sdfdsf,NA,1,NA,NA,NA,NA,NA,NA,NA,NA,NA,NA,NA,NA,NA,NA,NA,NA,NA,NA,NA
ff53f,task,flow.Sequence,3_0_1_0_2,NA,NA,completion,13783.3,432069.29999924,432063.7,432080.3,445863.6,445869.39999962,2024-04-06T08:01:47Z,445880.2,NULL,Fenster,dirisha,s,walakini,tasawari,maarifa,NA,sdfdsf,NA,1,NA,NA,NA,NA,NA,NA,NA,NA,NA,NA,NA,NA,NA,NA,NA,NA,NA,NA,NA
ff53f,Deep Question,html.Page,3_0_1_0_3_0_0,NA,NA,form submission,39549.499999809,445869.59999943,445863.6,445880.2,485429.69999981,485429.89999962,2024-04-06T08:02:27Z,485448,NULL,Niveau,kiwango,d,NA,NA,NA,kiwango,NA,NA,1,NA,NA,NA,NA,NA,NA,NA,NA,NA,NA,NA,NA,NA,NA,NA,NA,NA,NA,NA
ff53f,"""Richtig""-Screen",canvas.Screen,3_0_1_0_3_0_1,NA,NA,timeout,4998.8,485431.69999981,485416.698,485448,490430.2,490431,2024-04-06T08:02:32Z,490446.8,NULL,Niveau,kiwango,d,NA,NA,NA,NA,sdfdsf,1,1,NA,NA,NA,NA,NA,NA,NA,NA,NA,NA,NA,NA,NA,NA,NA,NA,NA,NA,NA
ff53f,"""Falsch""-Screen",canvas.Screen,3_0_1_0_3_0_2,NA,NA,skipped,NA,490434.19999981,NA,NA,490430.2,490434.39999962,2024-04-06T08:02:32Z,490446.8,NULL,Niveau,kiwango,d,NA,NA,NA,NA,sdfdsf,NA,1,NA,NA,NA,NA,NA,NA,NA,NA,NA,NA,NA,NA,NA,NA,NA,NA,NA,NA,NA
ff53f,deep,flow.Sequence,3_0_1_0_3_0,NA,NA,completion,44550,445869.59999943,445863.6,445880.2,490430.2,490434.59999943,2024-04-06T08:02:32Z,490446.8,NULL,Niveau,kiwango,d,NA,NA,NA,NA,sdfdsf,NA,1,NA,NA,NA,NA,NA,NA,NA,NA,NA,NA,NA,NA,NA,NA,NA,NA,NA,NA,NA
ff53f,shallow,flow.Sequence,3_0_1_0_3_1,NA,NA,skipped,NA,490434.69999981,NA,NA,490430.2,490434.69999981,2024-04-06T08:02:32Z,490446.8,NULL,Niveau,kiwango,d,NA,NA,NA,NA,sdfdsf,NA,1,NA,NA,NA,NA,NA,NA,NA,NA,NA,NA,NA,NA,NA,NA,NA,NA,NA,NA,NA
ff53f,task,flow.Sequence,3_0_1_0_3,NA,NA,completion,44550,445869.5,445863.6,445880.2,490430.2,490434.79999924,2024-04-06T08:02:32Z,490446.8,NULL,Niveau,kiwango,d,NA,NA,NA,NA,sdfdsf,NA,1,NA,NA,NA,NA,NA,NA,NA,NA,NA,NA,NA,NA,NA,NA,NA,NA,NA,NA,NA
ff53f,Deep Question,html.Page,3_0_1_0_4_0_0,NA,NA,form submission,17717.799999428,490435,490430.2,490446.8,508164.59999943,508164.89999962,2024-04-06T08:02:49Z,508180.3,NULL,Tester,wanaojaribu,d,NA,NA,NA,wengae,NA,NA,1,NA,NA,NA,NA,NA,NA,NA,NA,NA,NA,NA,NA,NA,NA,NA,NA,NA,NA,NA
ff53f,"""Richtig""-Screen",canvas.Screen,3_0_1_0_4_0_1,NA,NA,skipped,NA,508166.59999943,NA,NA,508164.59999943,508166.69999981,2024-04-06T08:02:49Z,508180.3,NULL,Tester,wanaojaribu,d,NA,NA,NA,NA,sdfdsf,NA,1,NA,NA,NA,NA,NA,NA,NA,NA,NA,NA,NA,NA,NA,NA,NA,NA,NA,NA,NA
ff53f,"""Falsch""-Screen",canvas.Screen,3_0_1_0_4_0_2,NA,NA,timeout,5000,508167.29999924,508164.3,508180.3,513163.6,513164.39999962,2024-04-06T08:02:54Z,513180.3,NULL,Tester,wanaojaribu,d,NA,NA,NA,NA,sdfdsf,0,1,NA,NA,NA,NA,NA,NA,NA,NA,NA,NA,NA,NA,NA,NA,NA,NA,NA,NA,NA
ff53f,deep,flow.Sequence,3_0_1_0_4_0,NA,NA,completion,22716.8,490435,490430.2,490446.8,513163.6,513164.79999924,2024-04-06T08:02:54Z,513180.3,NULL,Tester,wanaojaribu,d,NA,NA,NA,NA,sdfdsf,NA,1,NA,NA,NA,NA,NA,NA,NA,NA,NA,NA,NA,NA,NA,NA,NA,NA,NA,NA,NA
ff53f,shallow,flow.Sequence,3_0_1_0_4_1,NA,NA,skipped,NA,513164.79999924,NA,NA,513163.6,513165,2024-04-06T08:02:54Z,513180.3,NULL,Tester,wanaojaribu,d,NA,NA,NA,NA,sdfdsf,NA,1,NA,NA,NA,NA,NA,NA,NA,NA,NA,NA,NA,NA,NA,NA,NA,NA,NA,NA,NA
ff53f,task,flow.Sequence,3_0_1_0_4,NA,NA,completion,22716.8,490434.89999962,490430.2,490446.8,513163.6,513165.09999943,2024-04-06T08:02:54Z,513180.3,NULL,Tester,wanaojaribu,d,NA,NA,NA,NA,sdfdsf,NA,1,NA,NA,NA,NA,NA,NA,NA,NA,NA,NA,NA,NA,NA,NA,NA,NA,NA,NA,NA
ff53f,deep,flow.Sequence,3_0_1_0_5_0,NA,NA,skipped,NA,513165.19999981,NA,NA,513163.6,513165.29999924,2024-04-06T08:02:54Z,513180.3,NULL,Vorwurf,mashtaka,s,msukumo,mtangulizi,uenyekiti,NA,sdfdsf,NA,1,NA,NA,NA,NA,NA,NA,NA,NA,NA,NA,NA,NA,NA,NA,NA,NA,NA,NA,NA
ff53f,Shallow Question,html.Page,3_0_1_0_5_1_0,NA,NA,form submission,25407.299999428,513165.39999962,513163.6,513180.3,538587.59999943,538587.79999924,2024-04-06T08:03:20Z,538596.9,NULL,Vorwurf,mashtaka,s,msukumo,mtangulizi,uenyekiti,mashtaka,NA,NA,1,NA,NA,NA,NA,NA,NA,NA,NA,NA,NA,NA,NA,NA,NA,NA,NA,NA,NA,NA
ff53f,"""Richtig""-Screen",canvas.Screen,3_0_1_0_5_1_1,NA,NA,timeout,5000,538589.69999981,538580.4,538596.9,543580.2,543581.09999943,2024-04-06T08:03:25Z,543596.9,NULL,Vorwurf,mashtaka,s,msukumo,mtangulizi,uenyekiti,NA,sdfdsf,1,1,NA,NA,NA,NA,NA,NA,NA,NA,NA,NA,NA,NA,NA,NA,NA,NA,NA,NA,NA
ff53f,"""Falsch""-Screen",canvas.Screen,3_0_1_0_5_1_2,NA,NA,skipped,NA,543585,NA,NA,543580.2,543585.19999981,2024-04-06T08:03:25Z,543596.9,NULL,Vorwurf,mashtaka,s,msukumo,mtangulizi,uenyekiti,NA,sdfdsf,NA,1,NA,NA,NA,NA,NA,NA,NA,NA,NA,NA,NA,NA,NA,NA,NA,NA,NA,NA,NA
ff53f,shallow,flow.Sequence,3_0_1_0_5_1,NA,NA,completion,30399.9,513165.29999924,513163.6,513180.3,543580.2,543585.39999962,2024-04-06T08:03:25Z,543596.9,NULL,Vorwurf,mashtaka,s,msukumo,mtangulizi,uenyekiti,NA,sdfdsf,NA,1,NA,NA,NA,NA,NA,NA,NA,NA,NA,NA,NA,NA,NA,NA,NA,NA,NA,NA,NA
ff53f,task,flow.Sequence,3_0_1_0_5,NA,NA,completion,30399.9,513165.19999981,513163.6,513180.3,543580.2,543585.5,2024-04-06T08:03:25Z,543596.9,NULL,Vorwurf,mashtaka,s,msukumo,mtangulizi,uenyekiti,NA,sdfdsf,NA,1,NA,NA,NA,NA,NA,NA,NA,NA,NA,NA,NA,NA,NA,NA,NA,NA,NA,NA,NA
ff53f,Deep Question,html.Page,3_0_1_0_6_0_0,NA,NA,form submission,18919.999999619,543585.69999981,543580.2,543596.9,562516.89999962,562517.09999943,2024-04-06T08:03:44Z,562530,NULL,Papier,karatasi,d,NA,NA,NA,karatasi,NA,NA,1,NA,NA,NA,NA,NA,NA,NA,NA,NA,NA,NA,NA,NA,NA,NA,NA,NA,NA,NA
ff53f,"""Richtig""-Screen",canvas.Screen,3_0_1_0_6_0_1,NA,NA,timeout,5000.1,562518.79999924,562514.1,562530,567513.6,567514.29999924,2024-04-06T08:03:49Z,567530.1,NULL,Papier,karatasi,d,NA,NA,NA,NA,sdfdsf,1,1,NA,NA,NA,NA,NA,NA,NA,NA,NA,NA,NA,NA,NA,NA,NA,NA,NA,NA,NA
ff53f,"""Falsch""-Screen",canvas.Screen,3_0_1_0_6_0_2,NA,NA,skipped,NA,567518.5,NA,NA,567513.6,567518.69999981,2024-04-06T08:03:49Z,567530.1,NULL,Papier,karatasi,d,NA,NA,NA,NA,sdfdsf,NA,1,NA,NA,NA,NA,NA,NA,NA,NA,NA,NA,NA,NA,NA,NA,NA,NA,NA,NA,NA
ff53f,deep,flow.Sequence,3_0_1_0_6_0,NA,NA,completion,23916.7,543585.59999943,543580.2,543596.9,567513.6,567519,2024-04-06T08:03:49Z,567530.1,NULL,Papier,karatasi,d,NA,NA,NA,NA,sdfdsf,NA,1,NA,NA,NA,NA,NA,NA,NA,NA,NA,NA,NA,NA,NA,NA,NA,NA,NA,NA,NA
ff53f,shallow,flow.Sequence,3_0_1_0_6_1,NA,NA,skipped,NA,567519.09999943,NA,NA,567513.6,567519.19999981,2024-04-06T08:03:49Z,567530.1,NULL,Papier,karatasi,d,NA,NA,NA,NA,sdfdsf,NA,1,NA,NA,NA,NA,NA,NA,NA,NA,NA,NA,NA,NA,NA,NA,NA,NA,NA,NA,NA
ff53f,task,flow.Sequence,3_0_1_0_6,NA,NA,completion,23916.7,543585.5,543580.2,543596.9,567513.6,567519.29999924,2024-04-06T08:03:49Z,567530.1,NULL,Papier,karatasi,d,NA,NA,NA,NA,sdfdsf,NA,1,NA,NA,NA,NA,NA,NA,NA,NA,NA,NA,NA,NA,NA,NA,NA,NA,NA,NA,NA
ff53f,deep,flow.Sequence,3_0_1_0_7_0,NA,NA,skipped,NA,567519.39999962,NA,NA,567513.6,567519.5,2024-04-06T08:03:49Z,567530.1,NULL,Spionage,upelelezi,s,maslahi,utokazo,magangao,NA,sdfdsf,NA,1,NA,NA,NA,NA,NA,NA,NA,NA,NA,NA,NA,NA,NA,NA,NA,NA,NA,NA,NA
ff53f,Shallow Question,html.Page,3_0_1_0_7_1_0,NA,NA,form submission,10719.999999428,567519.59999943,567513.6,567530.1,578250.09999943,578250.29999924,2024-04-06T08:04:00Z,578263.4,NULL,Spionage,upelelezi,s,maslahi,utokazo,magangao,upelelezi,NA,NA,1,NA,NA,NA,NA,NA,NA,NA,NA,NA,NA,NA,NA,NA,NA,NA,NA,NA,NA,NA
ff53f,"""Richtig""-Screen",canvas.Screen,3_0_1_0_7_1_1,NA,NA,timeout,5000.2,578251.89999962,578247,578263.4,583246.9,583247.59999943,2024-04-06T08:04:05Z,583263.6,NULL,Spionage,upelelezi,s,maslahi,utokazo,magangao,NA,sdfdsf,1,1,NA,NA,NA,NA,NA,NA,NA,NA,NA,NA,NA,NA,NA,NA,NA,NA,NA,NA,NA
ff53f,"""Falsch""-Screen",canvas.Screen,3_0_1_0_7_1_2,NA,NA,skipped,NA,583251.59999943,NA,NA,583246.9,583251.79999924,2024-04-06T08:04:05Z,583263.6,NULL,Spionage,upelelezi,s,maslahi,utokazo,magangao,NA,sdfdsf,NA,1,NA,NA,NA,NA,NA,NA,NA,NA,NA,NA,NA,NA,NA,NA,NA,NA,NA,NA,NA
ff53f,shallow,flow.Sequence,3_0_1_0_7_1,NA,NA,completion,15716.8,567519.59999943,567513.6,567530.1,583246.9,583252,2024-04-06T08:04:05Z,583263.6,NULL,Spionage,upelelezi,s,maslahi,utokazo,magangao,NA,sdfdsf,NA,1,NA,NA,NA,NA,NA,NA,NA,NA,NA,NA,NA,NA,NA,NA,NA,NA,NA,NA,NA
ff53f,task,flow.Sequence,3_0_1_0_7,NA,NA,completion,15716.8,567519.29999924,567513.6,567530.1,583246.9,583252.09999943,2024-04-06T08:04:05Z,583263.6,NULL,Spionage,upelelezi,s,maslahi,utokazo,magangao,NA,sdfdsf,NA,1,NA,NA,NA,NA,NA,NA,NA,NA,NA,NA,NA,NA,NA,NA,NA,NA,NA,NA,NA
ff53f,block,flow.Loop,3_0_1_0,NA,NA,completion,218049.9,365183.79999924,365180.6,365197,583246.9,583252.29999924,2024-04-06T08:04:05Z,583263.6,NULL,NA,NA,NA,NA,NA,NA,NA,sdfdsf,NA,1,NA,NA,NA,NA,NA,NA,NA,NA,NA,NA,NA,NA,NA,NA,NA,NA,NA,NA,NA
ff53f,weiter,canvas.Screen,3_0_1_1,sdf,keypress(Space),response,1575.9999994278,583252.29999924,583246.9,583263.6,584839.59999943,584840.5,2024-04-06T08:04:06Z,584880.1,NULL,NA,NA,NA,NA,NA,NA,NA,sdfdsf,NA,1,NA,NA,NA,NA,NA,NA,NA,NA,NA,NA,NA,NA,NA,NA,NA,NA,NA,NA,NA
ff53f,check continue,flow.Sequence,3_0_1,NA,NA,completion,219642.59999943,365183.79999924,365180.6,365197,584839.59999943,584840.69999981,2024-04-06T08:04:06Z,584880.1,NULL,NA,NA,NA,NA,NA,NA,NA,sdfdsf,NA,1,NA,NA,NA,NA,NA,NA,NA,NA,NA,NA,NA,NA,NA,NA,NA,NA,NA,NA,NA
ff53f,deep,flow.Sequence,3_0_2_0_0_0,NA,NA,skipped,NA,584876.5,NA,NA,584839.59999943,584876.5,2024-04-06T08:04:06Z,584880.1,NULL,Spionage,upelelezi,s,maslahi,utokazo,magangao,NA,sdf,NA,2,NA,NA,NA,NA,NA,NA,NA,NA,NA,NA,NA,NA,NA,NA,NA,NA,NA,NA,NA
ff53f,Shallow Question,html.Page,3_0_2_0_0_1_0,NA,NA,form submission,12151.599999809,584876.69999981,584863.8,584880.1,597031.69999981,597032,2024-04-06T08:04:18Z,597046.9,NULL,Spionage,upelelezi,s,maslahi,utokazo,magangao,upelelezi,NA,NA,2,NA,NA,NA,NA,NA,NA,NA,NA,NA,NA,NA,NA,NA,NA,NA,NA,NA,NA,NA
ff53f,"""Richtig""-Screen",canvas.Screen,3_0_2_0_0_1_1,NA,NA,timeout,5000,597033.69999981,597030.4,597046.9,602030.2,602031,2024-04-06T08:04:23Z,602046.9,NULL,Spionage,upelelezi,s,maslahi,utokazo,magangao,NA,sdf,1,2,NA,NA,NA,NA,NA,NA,NA,NA,NA,NA,NA,NA,NA,NA,NA,NA,NA,NA,NA
ff53f,"""Falsch""-Screen",canvas.Screen,3_0_2_0_0_1_2,NA,NA,skipped,NA,602035.09999943,NA,NA,602030.2,602035.29999924,2024-04-06T08:04:23Z,602046.9,NULL,Spionage,upelelezi,s,maslahi,utokazo,magangao,NA,sdf,NA,2,NA,NA,NA,NA,NA,NA,NA,NA,NA,NA,NA,NA,NA,NA,NA,NA,NA,NA,NA
ff53f,shallow,flow.Sequence,3_0_2_0_0_1,NA,NA,completion,17150.1,584876.69999981,584863.8,584880.1,602030.2,602035.59999943,2024-04-06T08:04:23Z,602046.9,NULL,Spionage,upelelezi,s,maslahi,utokazo,magangao,NA,sdf,NA,2,NA,NA,NA,NA,NA,NA,NA,NA,NA,NA,NA,NA,NA,NA,NA,NA,NA,NA,NA
ff53f,task,flow.Sequence,3_0_2_0_0,NA,NA,completion,17150.1,584876.5,584863.8,584880.1,602030.2,602035.59999943,2024-04-06T08:04:23Z,602046.9,NULL,Spionage,upelelezi,s,maslahi,utokazo,magangao,NA,sdf,NA,2,NA,NA,NA,NA,NA,NA,NA,NA,NA,NA,NA,NA,NA,NA,NA,NA,NA,NA,NA
ff53f,Deep Question,html.Page,3_0_2_0_1_0_0,NA,NA,form submission,27432.799999809,602035.79999924,602030.2,602046.9,629479.69999981,629479.89999962,2024-04-06T08:04:51Z,629497.2,NULL,Papier,karatasi,d,NA,NA,NA,karatasi,NA,NA,2,NA,NA,NA,NA,NA,NA,NA,NA,NA,NA,NA,NA,NA,NA,NA,NA,NA,NA,NA
ff53f,"""Richtig""-Screen",canvas.Screen,3_0_2_0_1_0_1,NA,NA,timeout,4999.6000000001,629481.59999943,629480.404,629497.2,634480.2,634480.89999962,2024-04-06T08:04:56Z,634496.8,NULL,Papier,karatasi,d,NA,NA,NA,NA,sdf,1,2,NA,NA,NA,NA,NA,NA,NA,NA,NA,NA,NA,NA,NA,NA,NA,NA,NA,NA,NA
ff53f,"""Falsch""-Screen",canvas.Screen,3_0_2_0_1_0_2,NA,NA,skipped,NA,634485,NA,NA,634480.2,634485.29999924,2024-04-06T08:04:56Z,634496.8,NULL,Papier,karatasi,d,NA,NA,NA,NA,sdf,NA,2,NA,NA,NA,NA,NA,NA,NA,NA,NA,NA,NA,NA,NA,NA,NA,NA,NA,NA,NA
ff53f,deep,flow.Sequence,3_0_2_0_1_0,NA,NA,completion,32433.3,602035.79999924,602030.2,602046.9,634480.2,634485.5,2024-04-06T08:04:56Z,634496.8,NULL,Papier,karatasi,d,NA,NA,NA,NA,sdf,NA,2,NA,NA,NA,NA,NA,NA,NA,NA,NA,NA,NA,NA,NA,NA,NA,NA,NA,NA,NA
ff53f,shallow,flow.Sequence,3_0_2_0_1_1,NA,NA,skipped,NA,634485.5,NA,NA,634480.2,634485.69999981,2024-04-06T08:04:56Z,634496.8,NULL,Papier,karatasi,d,NA,NA,NA,NA,sdf,NA,2,NA,NA,NA,NA,NA,NA,NA,NA,NA,NA,NA,NA,NA,NA,NA,NA,NA,NA,NA
ff53f,task,flow.Sequence,3_0_2_0_1,NA,NA,completion,32433.3,602035.69999981,602030.2,602046.9,634480.2,634485.79999924,2024-04-06T08:04:56Z,634496.8,NULL,Papier,karatasi,d,NA,NA,NA,NA,sdf,NA,2,NA,NA,NA,NA,NA,NA,NA,NA,NA,NA,NA,NA,NA,NA,NA,NA,NA,NA,NA
ff53f,Deep Question,html.Page,3_0_2_0_2_0_0,NA,NA,form submission,48380.7,634485.89999962,634480.2,634496.8,682877.5,682877.79999924,2024-04-06T08:05:44Z,682880,NULL,Schüler,mwanafunzi,d,NA,NA,NA,mwanafunzi,NA,NA,2,NA,NA,NA,NA,NA,NA,NA,NA,NA,NA,NA,NA,NA,NA,NA,NA,NA,NA,NA
ff53f,"""Richtig""-Screen",canvas.Screen,3_0_2_0_2_0_1,NA,NA,timeout,5000.1,682879.39999962,682866.084,682880,687863.5,687864.29999924,2024-04-06T08:05:49Z,687880.1,NULL,Schüler,mwanafunzi,d,NA,NA,NA,NA,sdf,1,2,NA,NA,NA,NA,NA,NA,NA,NA,NA,NA,NA,NA,NA,NA,NA,NA,NA,NA,NA
ff53f,"""Falsch""-Screen",canvas.Screen,3_0_2_0_2_0_2,NA,NA,skipped,NA,687868.19999981,NA,NA,687863.5,687868.39999962,2024-04-06T08:05:49Z,687880.1,NULL,Schüler,mwanafunzi,d,NA,NA,NA,NA,sdf,NA,2,NA,NA,NA,NA,NA,NA,NA,NA,NA,NA,NA,NA,NA,NA,NA,NA,NA,NA,NA
ff53f,deep,flow.Sequence,3_0_2_0_2_0,NA,NA,completion,53366.7,634485.79999924,634480.2,634496.8,687863.5,687868.59999943,2024-04-06T08:05:49Z,687880.1,NULL,Schüler,mwanafunzi,d,NA,NA,NA,NA,sdf,NA,2,NA,NA,NA,NA,NA,NA,NA,NA,NA,NA,NA,NA,NA,NA,NA,NA,NA,NA,NA
ff53f,shallow,flow.Sequence,3_0_2_0_2_1,NA,NA,skipped,NA,687868.69999981,NA,NA,687863.5,687868.79999924,2024-04-06T08:05:49Z,687880.1,NULL,Schüler,mwanafunzi,d,NA,NA,NA,NA,sdf,NA,2,NA,NA,NA,NA,NA,NA,NA,NA,NA,NA,NA,NA,NA,NA,NA,NA,NA,NA,NA
ff53f,task,flow.Sequence,3_0_2_0_2,NA,NA,completion,53366.7,634485.79999924,634480.2,634496.8,687863.5,687868.89999962,2024-04-06T08:05:49Z,687880.1,NULL,Schüler,mwanafunzi,d,NA,NA,NA,NA,sdf,NA,2,NA,NA,NA,NA,NA,NA,NA,NA,NA,NA,NA,NA,NA,NA,NA,NA,NA,NA,NA
ff53f,Deep Question,html.Page,3_0_2_0_3_0_0,NA,NA,form submission,10794.299999619,687869,687863.5,687880.1,698674.39999962,698674.5,2024-04-06T08:06:00Z,698680,NULL,Tester,wanaojaribu,d,NA,NA,NA,wenag,NA,NA,2,NA,NA,NA,NA,NA,NA,NA,NA,NA,NA,NA,NA,NA,NA,NA,NA,NA,NA,NA
ff53f,"""Richtig""-Screen",canvas.Screen,3_0_2_0_3_0_1,NA,NA,skipped,NA,698676.39999962,NA,NA,698674.39999962,698676.5,2024-04-06T08:06:00Z,698680,NULL,Tester,wanaojaribu,d,NA,NA,NA,NA,sdf,NA,2,NA,NA,NA,NA,NA,NA,NA,NA,NA,NA,NA,NA,NA,NA,NA,NA,NA,NA,NA
ff53f,"""Falsch""-Screen",canvas.Screen,3_0_2_0_3_0_2,NA,NA,timeout,5000.1,698677,698663.728,698680,703663.5,703664.19999981,2024-04-06T08:06:05Z,703680.1,NULL,Tester,wanaojaribu,d,NA,NA,NA,NA,sdf,0,2,NA,NA,NA,NA,NA,NA,NA,NA,NA,NA,NA,NA,NA,NA,NA,NA,NA,NA,NA
ff53f,deep,flow.Sequence,3_0_2_0_3_0,NA,NA,completion,15783.4,687869,687863.5,687880.1,703663.5,703664.5,2024-04-06T08:06:05Z,703680.1,NULL,Tester,wanaojaribu,d,NA,NA,NA,NA,sdf,NA,2,NA,NA,NA,NA,NA,NA,NA,NA,NA,NA,NA,NA,NA,NA,NA,NA,NA,NA,NA
ff53f,shallow,flow.Sequence,3_0_2_0_3_1,NA,NA,skipped,NA,703664.5,NA,NA,703663.5,703664.69999981,2024-04-06T08:06:05Z,703680.1,NULL,Tester,wanaojaribu,d,NA,NA,NA,NA,sdf,NA,2,NA,NA,NA,NA,NA,NA,NA,NA,NA,NA,NA,NA,NA,NA,NA,NA,NA,NA,NA
ff53f,task,flow.Sequence,3_0_2_0_3,NA,NA,completion,15783.4,687868.89999962,687863.5,687880.1,703663.5,703664.79999924,2024-04-06T08:06:05Z,703680.1,NULL,Tester,wanaojaribu,d,NA,NA,NA,NA,sdf,NA,2,NA,NA,NA,NA,NA,NA,NA,NA,NA,NA,NA,NA,NA,NA,NA,NA,NA,NA,NA
ff53f,Deep Question,html.Page,3_0_2_0_4_0_0,NA,NA,form submission,18569.299999619,703664.89999962,703663.5,703680.1,722249.39999962,722249.59999943,2024-04-06T08:06:24Z,722263.4,NULL,Niveau,kiwango,d,NA,NA,NA,kiwango,NA,NA,2,NA,NA,NA,NA,NA,NA,NA,NA,NA,NA,NA,NA,NA,NA,NA,NA,NA,NA,NA
ff53f,"""Richtig""-Screen",canvas.Screen,3_0_2_0_4_0_1,NA,NA,timeout,5000,722251.29999924,722247.4,722263.4,727246.7,727247.5,2024-04-06T08:06:29Z,727263.4,NULL,Niveau,kiwango,d,NA,NA,NA,NA,sdf,1,2,NA,NA,NA,NA,NA,NA,NA,NA,NA,NA,NA,NA,NA,NA,NA,NA,NA,NA,NA
ff53f,"""Falsch""-Screen",canvas.Screen,3_0_2_0_4_0_2,NA,NA,skipped,NA,727251.69999981,NA,NA,727246.7,727251.89999962,2024-04-06T08:06:29Z,727263.4,NULL,Niveau,kiwango,d,NA,NA,NA,NA,sdf,NA,2,NA,NA,NA,NA,NA,NA,NA,NA,NA,NA,NA,NA,NA,NA,NA,NA,NA,NA,NA
ff53f,deep,flow.Sequence,3_0_2_0_4_0,NA,NA,completion,23566.6,703664.89999962,703663.5,703680.1,727246.7,727252.09999943,2024-04-06T08:06:29Z,727263.4,NULL,Niveau,kiwango,d,NA,NA,NA,NA,sdf,NA,2,NA,NA,NA,NA,NA,NA,NA,NA,NA,NA,NA,NA,NA,NA,NA,NA,NA,NA,NA
ff53f,shallow,flow.Sequence,3_0_2_0_4_1,NA,NA,skipped,NA,727252.09999943,NA,NA,727246.7,727252.19999981,2024-04-06T08:06:29Z,727263.4,NULL,Niveau,kiwango,d,NA,NA,NA,NA,sdf,NA,2,NA,NA,NA,NA,NA,NA,NA,NA,NA,NA,NA,NA,NA,NA,NA,NA,NA,NA,NA
ff53f,task,flow.Sequence,3_0_2_0_4,NA,NA,completion,23566.6,703664.79999924,703663.5,703680.1,727246.7,727252.29999924,2024-04-06T08:06:29Z,727263.4,NULL,Niveau,kiwango,d,NA,NA,NA,NA,sdf,NA,2,NA,NA,NA,NA,NA,NA,NA,NA,NA,NA,NA,NA,NA,NA,NA,NA,NA,NA,NA
ff53f,deep,flow.Sequence,3_0_2_0_5_0,NA,NA,skipped,NA,727252.39999962,NA,NA,727246.7,727252.5,2024-04-06T08:06:29Z,727263.4,NULL,Entwicklung,maendeleo,s,uangavu,mshindwa,badiliko,NA,sdf,NA,2,NA,NA,NA,NA,NA,NA,NA,NA,NA,NA,NA,NA,NA,NA,NA,NA,NA,NA,NA
ff53f,Shallow Question,html.Page,3_0_2_0_5_1_0,NA,NA,form submission,10102.199999428,727252.59999943,727246.7,727263.4,737365.59999943,737365.69999981,2024-04-06T08:06:39Z,737380,NULL,Entwicklung,maendeleo,s,uangavu,mshindwa,badiliko,maendeleo,NA,NA,2,NA,NA,NA,NA,NA,NA,NA,NA,NA,NA,NA,NA,NA,NA,NA,NA,NA,NA,NA
ff53f,"""Richtig""-Screen",canvas.Screen,3_0_2_0_5_1_1,NA,NA,timeout,5000.1,737367.39999962,737364.41,737380,742363.5,742364.29999924,2024-04-06T08:06:44Z,742380.1,NULL,Entwicklung,maendeleo,s,uangavu,mshindwa,badiliko,NA,sdf,1,2,NA,NA,NA,NA,NA,NA,NA,NA,NA,NA,NA,NA,NA,NA,NA,NA,NA,NA,NA
ff53f,"""Falsch""-Screen",canvas.Screen,3_0_2_0_5_1_2,NA,NA,skipped,NA,742368.39999962,NA,NA,742363.5,742368.59999943,2024-04-06T08:06:44Z,742380.1,NULL,Entwicklung,maendeleo,s,uangavu,mshindwa,badiliko,NA,sdf,NA,2,NA,NA,NA,NA,NA,NA,NA,NA,NA,NA,NA,NA,NA,NA,NA,NA,NA,NA,NA
ff53f,shallow,flow.Sequence,3_0_2_0_5_1,NA,NA,completion,15100.1,727252.5,727246.7,727263.4,742363.5,742368.79999924,2024-04-06T08:06:44Z,742380.1,NULL,Entwicklung,maendeleo,s,uangavu,mshindwa,badiliko,NA,sdf,NA,2,NA,NA,NA,NA,NA,NA,NA,NA,NA,NA,NA,NA,NA,NA,NA,NA,NA,NA,NA
ff53f,task,flow.Sequence,3_0_2_0_5,NA,NA,completion,15100.1,727252.39999962,727246.7,727263.4,742363.5,742368.89999962,2024-04-06T08:06:44Z,742380.1,NULL,Entwicklung,maendeleo,s,uangavu,mshindwa,badiliko,NA,sdf,NA,2,NA,NA,NA,NA,NA,NA,NA,NA,NA,NA,NA,NA,NA,NA,NA,NA,NA,NA,NA
ff53f,deep,flow.Sequence,3_0_2_0_6_0,NA,NA,skipped,NA,742369,NA,NA,742363.5,742369.09999943,2024-04-06T08:06:44Z,742380.1,NULL,Vorwurf,mashtaka,s,msukumo,mtangulizi,uenyekiti,NA,sdf,NA,2,NA,NA,NA,NA,NA,NA,NA,NA,NA,NA,NA,NA,NA,NA,NA,NA,NA,NA,NA
ff53f,Shallow Question,html.Page,3_0_2_0_6_1_0,NA,NA,form submission,18441.099999809,742369.19999981,742363.5,742380.1,760821.19999981,760821.39999962,2024-04-06T08:07:02Z,760830,NULL,Vorwurf,mashtaka,s,msukumo,mtangulizi,uenyekiti,mashtaka,NA,NA,2,NA,NA,NA,NA,NA,NA,NA,NA,NA,NA,NA,NA,NA,NA,NA,NA,NA,NA,NA
ff53f,"""Richtig""-Screen",canvas.Screen,3_0_2_0_6_1_1,NA,NA,timeout,5000.1,760823.29999924,760813.51,760830,765813.5,765814.19999981,2024-04-06T08:07:07Z,765830.1,NULL,Vorwurf,mashtaka,s,msukumo,mtangulizi,uenyekiti,NA,sdf,1,2,NA,NA,NA,NA,NA,NA,NA,NA,NA,NA,NA,NA,NA,NA,NA,NA,NA,NA,NA
ff53f,"""Falsch""-Screen",canvas.Screen,3_0_2_0_6_1_2,NA,NA,skipped,NA,765818.29999924,NA,NA,765813.5,765818.5,2024-04-06T08:07:07Z,765830.1,NULL,Vorwurf,mashtaka,s,msukumo,mtangulizi,uenyekiti,NA,sdf,NA,2,NA,NA,NA,NA,NA,NA,NA,NA,NA,NA,NA,NA,NA,NA,NA,NA,NA,NA,NA
ff53f,shallow,flow.Sequence,3_0_2_0_6_1,NA,NA,completion,23433.4,742369.19999981,742363.5,742380.1,765813.5,765818.79999924,2024-04-06T08:07:07Z,765830.1,NULL,Vorwurf,mashtaka,s,msukumo,mtangulizi,uenyekiti,NA,sdf,NA,2,NA,NA,NA,NA,NA,NA,NA,NA,NA,NA,NA,NA,NA,NA,NA,NA,NA,NA,NA
ff53f,task,flow.Sequence,3_0_2_0_6,NA,NA,completion,23433.4,742369,742363.5,742380.1,765813.5,765818.89999962,2024-04-06T08:07:07Z,765830.1,NULL,Vorwurf,mashtaka,s,msukumo,mtangulizi,uenyekiti,NA,sdf,NA,2,NA,NA,NA,NA,NA,NA,NA,NA,NA,NA,NA,NA,NA,NA,NA,NA,NA,NA,NA
ff53f,deep,flow.Sequence,3_0_2_0_7_0,NA,NA,skipped,NA,765818.89999962,NA,NA,765813.5,765819.09999943,2024-04-06T08:07:07Z,765830.1,NULL,Fenster,dirisha,s,walakini,tasawari,maarifa,NA,sdf,NA,2,NA,NA,NA,NA,NA,NA,NA,NA,NA,NA,NA,NA,NA,NA,NA,NA,NA,NA,NA
ff53f,Shallow Question,html.Page,3_0_2_0_7_1_0,NA,NA,form submission,4534.5999998093,765819.09999943,765813.5,765830.1,770364.69999981,770364.89999962,2024-04-06T08:07:12Z,770380.1,NULL,Fenster,dirisha,s,walakini,tasawari,maarifa,dirisha,NA,NA,2,NA,NA,NA,NA,NA,NA,NA,NA,NA,NA,NA,NA,NA,NA,NA,NA,NA,NA,NA
ff53f,"""Richtig""-Screen",canvas.Screen,3_0_2_0_7_1_1,NA,NA,timeout,4999.9,770366.5,770364.412,770380.1,775363.4,775364.09999943,2024-04-06T08:07:17Z,775380,NULL,Fenster,dirisha,s,walakini,tasawari,maarifa,NA,sdf,1,2,NA,NA,NA,NA,NA,NA,NA,NA,NA,NA,NA,NA,NA,NA,NA,NA,NA,NA,NA
ff53f,"""Falsch""-Screen",canvas.Screen,3_0_2_0_7_1_2,NA,NA,skipped,NA,775368.09999943,NA,NA,775363.4,775368.19999981,2024-04-06T08:07:17Z,775380,NULL,Fenster,dirisha,s,walakini,tasawari,maarifa,NA,sdf,NA,2,NA,NA,NA,NA,NA,NA,NA,NA,NA,NA,NA,NA,NA,NA,NA,NA,NA,NA,NA
ff53f,shallow,flow.Sequence,3_0_2_0_7_1,NA,NA,completion,9533.3,765819.09999943,765813.5,765830.1,775363.4,775368.39999962,2024-04-06T08:07:17Z,775380,NULL,Fenster,dirisha,s,walakini,tasawari,maarifa,NA,sdf,NA,2,NA,NA,NA,NA,NA,NA,NA,NA,NA,NA,NA,NA,NA,NA,NA,NA,NA,NA,NA
ff53f,task,flow.Sequence,3_0_2_0_7,NA,NA,completion,9533.3,765818.89999962,765813.5,765830.1,775363.4,775368.59999943,2024-04-06T08:07:17Z,775380,NULL,Fenster,dirisha,s,walakini,tasawari,maarifa,NA,sdf,NA,2,NA,NA,NA,NA,NA,NA,NA,NA,NA,NA,NA,NA,NA,NA,NA,NA,NA,NA,NA
ff53f,block,flow.Loop,3_0_2_0,NA,NA,completion,190483.3,584876.39999962,584863.8,584880.1,775363.4,775368.69999981,2024-04-06T08:07:17Z,775380,NULL,NA,NA,NA,NA,NA,NA,NA,sdf,NA,2,NA,NA,NA,NA,NA,NA,NA,NA,NA,NA,NA,NA,NA,NA,NA,NA,NA,NA,NA
ff53f,weiter,canvas.Screen,3_0_2_1,sdf,keypress(Space),response,1247.3999996185,775368.89999962,775363.4,775380,776627.39999962,776628.29999924,2024-04-06T08:07:18Z,777019.1,NULL,NA,NA,NA,NA,NA,NA,NA,sdf,NA,2,NA,NA,NA,NA,NA,NA,NA,NA,NA,NA,NA,NA,NA,NA,NA,NA,NA,NA,NA
ff53f,check continue,flow.Sequence,3_0_2,NA,NA,completion,191747.29999962,584876.39999962,584863.8,584880.1,776627.39999962,776628.5,2024-04-06T08:07:18Z,777019.1,NULL,NA,NA,NA,NA,NA,NA,NA,sdf,NA,2,NA,NA,NA,NA,NA,NA,NA,NA,NA,NA,NA,NA,NA,NA,NA,NA,NA,NA,NA
ff53f,check continue,flow.Sequence,3_0_3,NA,NA,skipped,NA,776670.89999962,NA,NA,776627.39999962,776671.09999943,2024-04-06T08:07:18Z,777019.1,NULL,NA,NA,NA,NA,NA,NA,NA,qt,NA,3,NA,NA,NA,NA,NA,NA,NA,NA,NA,NA,NA,NA,NA,NA,NA,NA,NA,NA,NA
ff53f,check continue,flow.Sequence,3_0_4,NA,NA,skipped,NA,776686.5,NA,NA,776627.39999962,776686.59999943,2024-04-06T08:07:18Z,777019.1,NULL,NA,NA,NA,NA,NA,NA,NA,sd,NA,4,NA,NA,NA,NA,NA,NA,NA,NA,NA,NA,NA,NA,NA,NA,NA,NA,NA,NA,NA
ff53f,check continue,flow.Sequence,3_0_5,NA,NA,skipped,NA,776701.79999924,NA,NA,776627.39999962,776701.89999962,2024-04-06T08:07:18Z,777019.1,NULL,NA,NA,NA,NA,NA,NA,NA,sdf,NA,5,NA,NA,NA,NA,NA,NA,NA,NA,NA,NA,NA,NA,NA,NA,NA,NA,NA,NA,NA
ff53f,check continue,flow.Sequence,3_0_6,NA,NA,skipped,NA,776715.09999943,NA,NA,776627.39999962,776715.29999924,2024-04-06T08:07:18Z,777019.1,NULL,NA,NA,NA,NA,NA,NA,NA,dfs,NA,6,NA,NA,NA,NA,NA,NA,NA,NA,NA,NA,NA,NA,NA,NA,NA,NA,NA,NA,NA
ff53f,check continue,flow.Sequence,3_0_7,NA,NA,skipped,NA,776727.79999924,NA,NA,776627.39999962,776727.89999962,2024-04-06T08:07:18Z,777019.1,NULL,NA,NA,NA,NA,NA,NA,NA,df,NA,7,NA,NA,NA,NA,NA,NA,NA,NA,NA,NA,NA,NA,NA,NA,NA,NA,NA,NA,NA
ff53f,check continue,flow.Sequence,3_0_8,NA,NA,skipped,NA,776739.19999981,NA,NA,776627.39999962,776739.19999981,2024-04-06T08:07:18Z,777019.1,NULL,NA,NA,NA,NA,NA,NA,NA,dfs,NA,8,NA,NA,NA,NA,NA,NA,NA,NA,NA,NA,NA,NA,NA,NA,NA,NA,NA,NA,NA
ff53f,check continue,flow.Sequence,3_0_9,NA,NA,skipped,NA,776751.29999924,NA,NA,776627.39999962,776751.39999962,2024-04-06T08:07:18Z,777019.1,NULL,NA,NA,NA,NA,NA,NA,NA,dsf,NA,9,NA,NA,NA,NA,NA,NA,NA,NA,NA,NA,NA,NA,NA,NA,NA,NA,NA,NA,NA
ff53f,check continue,flow.Sequence,3_0_10,NA,NA,skipped,NA,776763.29999924,NA,NA,776627.39999962,776763.29999924,2024-04-06T08:07:18Z,777019.1,NULL,NA,NA,NA,NA,NA,NA,NA,df,NA,10,NA,NA,NA,NA,NA,NA,NA,NA,NA,NA,NA,NA,NA,NA,NA,NA,NA,NA,NA
ff53f,check continue,flow.Sequence,3_0_11,NA,NA,skipped,NA,776774.59999943,NA,NA,776627.39999962,776774.59999943,2024-04-06T08:07:18Z,777019.1,NULL,NA,NA,NA,NA,NA,NA,NA,dfs,NA,11,NA,NA,NA,NA,NA,NA,NA,NA,NA,NA,NA,NA,NA,NA,NA,NA,NA,NA,NA
ff53f,check continue,flow.Sequence,3_0_12,NA,NA,skipped,NA,776785.89999962,NA,NA,776627.39999962,776785.89999962,2024-04-06T08:07:18Z,777019.1,NULL,NA,NA,NA,NA,NA,NA,NA,dsf,NA,12,NA,NA,NA,NA,NA,NA,NA,NA,NA,NA,NA,NA,NA,NA,NA,NA,NA,NA,NA
ff53f,check continue,flow.Sequence,3_0_13,NA,NA,skipped,NA,776796.89999962,NA,NA,776627.39999962,776797,2024-04-06T08:07:18Z,777019.1,NULL,NA,NA,NA,NA,NA,NA,NA,dsf,NA,13,NA,NA,NA,NA,NA,NA,NA,NA,NA,NA,NA,NA,NA,NA,NA,NA,NA,NA,NA
ff53f,check continue,flow.Sequence,3_0_14,NA,NA,skipped,NA,776809.09999943,NA,NA,776627.39999962,776809.09999943,2024-04-06T08:07:18Z,777019.1,NULL,NA,NA,NA,NA,NA,NA,NA,NA,NA,14,NA,NA,NA,NA,NA,NA,NA,NA,NA,NA,NA,NA,NA,NA,NA,NA,NA,NA,NA
ff53f,check continue,flow.Sequence,3_0_15,NA,NA,skipped,NA,776821.89999962,NA,NA,776627.39999962,776822,2024-04-06T08:07:18Z,777019.1,NULL,NA,NA,NA,NA,NA,NA,NA,NA,NA,15,NA,NA,NA,NA,NA,NA,NA,NA,NA,NA,NA,NA,NA,NA,NA,NA,NA,NA,NA
ff53f,check continue,flow.Sequence,3_0_16,NA,NA,skipped,NA,776833.89999962,NA,NA,776627.39999962,776834,2024-04-06T08:07:18Z,777019.1,NULL,NA,NA,NA,NA,NA,NA,NA,NA,NA,16,NA,NA,NA,NA,NA,NA,NA,NA,NA,NA,NA,NA,NA,NA,NA,NA,NA,NA,NA
ff53f,check continue,flow.Sequence,3_0_17,NA,NA,skipped,NA,776846.29999924,NA,NA,776627.39999962,776846.39999962,2024-04-06T08:07:18Z,777019.1,NULL,NA,NA,NA,NA,NA,NA,NA,NA,NA,17,NA,NA,NA,NA,NA,NA,NA,NA,NA,NA,NA,NA,NA,NA,NA,NA,NA,NA,NA
ff53f,check continue,flow.Sequence,3_0_18,NA,NA,skipped,NA,776859,NA,NA,776627.39999962,776859,2024-04-06T08:07:18Z,777019.1,NULL,NA,NA,NA,NA,NA,NA,NA,NA,NA,18,NA,NA,NA,NA,NA,NA,NA,NA,NA,NA,NA,NA,NA,NA,NA,NA,NA,NA,NA
ff53f,check continue,flow.Sequence,3_0_19,NA,NA,skipped,NA,776870.79999924,NA,NA,776627.39999962,776870.89999962,2024-04-06T08:07:18Z,777019.1,NULL,NA,NA,NA,NA,NA,NA,NA,NA,NA,19,NA,NA,NA,NA,NA,NA,NA,NA,NA,NA,NA,NA,NA,NA,NA,NA,NA,NA,NA
ff53f,check continue,flow.Sequence,3_0_20,NA,NA,skipped,NA,776881.5,NA,NA,776627.39999962,776881.69999981,2024-04-06T08:07:18Z,777019.1,NULL,NA,NA,NA,NA,NA,NA,NA,NA,NA,20,NA,NA,NA,NA,NA,NA,NA,NA,NA,NA,NA,NA,NA,NA,NA,NA,NA,NA,NA
ff53f,check continue,flow.Sequence,3_0_21,NA,NA,skipped,NA,776893.59999943,NA,NA,776627.39999962,776893.69999981,2024-04-06T08:07:18Z,777019.1,NULL,NA,NA,NA,NA,NA,NA,NA,NA,NA,21,NA,NA,NA,NA,NA,NA,NA,NA,NA,NA,NA,NA,NA,NA,NA,NA,NA,NA,NA
ff53f,check continue,flow.Sequence,3_0_22,NA,NA,skipped,NA,776903.29999924,NA,NA,776627.39999962,776903.39999962,2024-04-06T08:07:18Z,777019.1,NULL,NA,NA,NA,NA,NA,NA,NA,NA,NA,22,NA,NA,NA,NA,NA,NA,NA,NA,NA,NA,NA,NA,NA,NA,NA,NA,NA,NA,NA
ff53f,check continue,flow.Sequence,3_0_23,NA,NA,skipped,NA,776920.79999924,NA,NA,776627.39999962,776920.89999962,2024-04-06T08:07:18Z,777019.1,NULL,NA,NA,NA,NA,NA,NA,NA,NA,NA,23,NA,NA,NA,NA,NA,NA,NA,NA,NA,NA,NA,NA,NA,NA,NA,NA,NA,NA,NA
ff53f,check continue,flow.Sequence,3_0_24,NA,NA,skipped,NA,776945.09999943,NA,NA,776627.39999962,776945.19999981,2024-04-06T08:07:18Z,777019.1,NULL,NA,NA,NA,NA,NA,NA,NA,NA,NA,24,NA,NA,NA,NA,NA,NA,NA,NA,NA,NA,NA,NA,NA,NA,NA,NA,NA,NA,NA
ff53f,check continue,flow.Sequence,3_0_25,NA,NA,skipped,NA,776959,NA,NA,776627.39999962,776959,2024-04-06T08:07:18Z,777019.1,NULL,NA,NA,NA,NA,NA,NA,NA,NA,NA,25,NA,NA,NA,NA,NA,NA,NA,NA,NA,NA,NA,NA,NA,NA,NA,NA,NA,NA,NA
ff53f,check continue,flow.Sequence,3_0_26,NA,NA,skipped,NA,776970.39999962,NA,NA,776627.39999962,776970.39999962,2024-04-06T08:07:18Z,777019.1,NULL,NA,NA,NA,NA,NA,NA,NA,NA,NA,26,NA,NA,NA,NA,NA,NA,NA,NA,NA,NA,NA,NA,NA,NA,NA,NA,NA,NA,NA
ff53f,check continue,flow.Sequence,3_0_27,NA,NA,skipped,NA,776981.79999924,NA,NA,776627.39999962,776981.89999962,2024-04-06T08:07:18Z,777019.1,NULL,NA,NA,NA,NA,NA,NA,NA,NA,NA,27,NA,NA,NA,NA,NA,NA,NA,NA,NA,NA,NA,NA,NA,NA,NA,NA,NA,NA,NA
ff53f,check continue,flow.Sequence,3_0_28,NA,NA,skipped,NA,776992.29999924,NA,NA,776627.39999962,776992.39999962,2024-04-06T08:07:18Z,777019.1,NULL,NA,NA,NA,NA,NA,NA,NA,NA,NA,28,NA,NA,NA,NA,NA,NA,NA,NA,NA,NA,NA,NA,NA,NA,NA,NA,NA,NA,NA
ff53f,check continue,flow.Sequence,3_0_29,NA,NA,skipped,NA,777002.89999962,NA,NA,776627.39999962,777003,2024-04-06T08:07:18Z,777019.1,NULL,NA,NA,NA,NA,NA,NA,NA,NA,NA,29,NA,NA,NA,NA,NA,NA,NA,NA,NA,NA,NA,NA,NA,NA,NA,NA,NA,NA,NA
ff53f,until continue,flow.Loop,3_0,NA,NA,completion,522280.39999962,254310.79999924,254335.3,254347,776627.39999962,777003.19999981,2024-04-06T08:07:18Z,777019.1,NULL,NA,NA,NA,NA,NA,NA,NA,NA,NA,NA,NA,NA,NA,NA,NA,NA,NA,NA,NA,NA,NA,NA,NA,NA,NA,NA,NA,NA,NA
ff53f,block 1,flow.Sequence,3,NA,NA,completion,522280.39999962,254310.59999943,254335.3,254347,776627.39999962,777003.19999981,2024-04-06T08:07:18Z,777019.1,NULL,NA,NA,NA,NA,NA,NA,NA,NA,NA,NA,NA,NA,NA,NA,NA,NA,NA,NA,NA,NA,NA,NA,NA,NA,NA,NA,NA,NA,NA
ff53f,1.Part Over,canvas.Screen,4,NA,keypress(Space),response,3318.2999996186,777003.19999981,776996.602,777019.1,780337.39999962,780338.29999924,2024-04-06T08:07:22Z,780413.3,NULL,NA,NA,NA,NA,NA,NA,NA,NA,NA,NA,NA,NA,NA,NA,NA,NA,NA,NA,NA,NA,NA,NA,NA,NA,NA,NA,NA,NA,NA
ff53f,deep,flow.Sequence,5_0_0_0_0_0,NA,NA,skipped,NA,780403,NA,NA,780337.39999962,780403.09999943,2024-04-06T08:07:22Z,780413.3,NULL,Genehmigung,idhini,s,mwanamke,itikadi,fedheha,NA,sdf,NA,0,NA,NA,NA,NA,NA,NA,NA,NA,NA,NA,NA,NA,NA,NA,NA,NA,NA,NA,NA
ff53f,Shallow Question,html.Page,5_0_0_0_0_1_0,NA,NA,form submission,11159.2,780403.19999981,780402.298,780413.3,791572.5,791572.69999981,2024-04-06T08:07:33Z,791579.9,NULL,Genehmigung,idhini,s,mwanamke,itikadi,fedheha,mwanamke,NA,NA,0,NA,NA,NA,NA,NA,NA,NA,NA,NA,NA,NA,NA,NA,NA,NA,NA,NA,NA,NA
ff53f,"""Richtig""-Screen",canvas.Screen,5_0_0_0_0_1_1,NA,NA,skipped,NA,791574.39999962,NA,NA,791572.5,791574.59999943,2024-04-06T08:07:33Z,791579.9,NULL,Genehmigung,idhini,s,mwanamke,itikadi,fedheha,NA,sdf,NA,0,NA,NA,NA,NA,NA,NA,NA,NA,NA,NA,NA,NA,NA,NA,NA,NA,NA,NA,NA
ff53f,"""Falsch""-Screen",canvas.Screen,5_0_0_0_0_1_2,NA,NA,timeout,5000.2,791575.09999943,791563.6,791579.9,796563.4,796564.09999943,2024-04-06T08:07:38Z,796580.1,NULL,Genehmigung,idhini,s,mwanamke,itikadi,fedheha,NA,sdf,0,0,NA,NA,NA,NA,NA,NA,NA,NA,NA,NA,NA,NA,NA,NA,NA,NA,NA,NA,NA
ff53f,shallow,flow.Sequence,5_0_0_0_0_1,NA,NA,completion,16150.1,780403.19999981,780402.298,780413.3,796563.4,796564.5,2024-04-06T08:07:38Z,796580.1,NULL,Genehmigung,idhini,s,mwanamke,itikadi,fedheha,NA,sdf,NA,0,NA,NA,NA,NA,NA,NA,NA,NA,NA,NA,NA,NA,NA,NA,NA,NA,NA,NA,NA
ff53f,task,flow.Sequence,5_0_0_0_0,NA,NA,completion,16150.1,780403,780402.298,780413.3,796563.4,796564.59999943,2024-04-06T08:07:38Z,796580.1,NULL,Genehmigung,idhini,s,mwanamke,itikadi,fedheha,NA,sdf,NA,0,NA,NA,NA,NA,NA,NA,NA,NA,NA,NA,NA,NA,NA,NA,NA,NA,NA,NA,NA
ff53f,deep,flow.Sequence,5_0_0_0_1_0,NA,NA,skipped,NA,796564.69999981,NA,NA,796563.4,796564.89999962,2024-04-06T08:07:38Z,796580.1,NULL,Toleranz,kuvumiliana,s,maombolezo,ujasusi,mchekeshaji,NA,sdf,NA,0,NA,NA,NA,NA,NA,NA,NA,NA,NA,NA,NA,NA,NA,NA,NA,NA,NA,NA,NA
ff53f,Shallow Question,html.Page,5_0_0_0_1_1_0,NA,NA,form submission,6269.0999998093,796564.89999962,796563.4,796580.1,802849.19999981,802849.5,2024-04-06T08:07:44Z,802863.5,NULL,Toleranz,kuvumiliana,s,maombolezo,ujasusi,mchekeshaji,kuvumiliana,NA,NA,0,NA,NA,NA,NA,NA,NA,NA,NA,NA,NA,NA,NA,NA,NA,NA,NA,NA,NA,NA
ff53f,"""Richtig""-Screen",canvas.Screen,5_0_0_0_1_1_1,NA,NA,timeout,4999.8,802851.39999962,802846.796,802863.5,807846.8,807847.5,2024-04-06T08:07:49Z,807863.3,NULL,Toleranz,kuvumiliana,s,maombolezo,ujasusi,mchekeshaji,NA,sdf,1,0,NA,NA,NA,NA,NA,NA,NA,NA,NA,NA,NA,NA,NA,NA,NA,NA,NA,NA,NA
ff53f,"""Falsch""-Screen",canvas.Screen,5_0_0_0_1_1_2,NA,NA,skipped,NA,807851.59999943,NA,NA,807846.8,807851.69999981,2024-04-06T08:07:49Z,807863.3,NULL,Toleranz,kuvumiliana,s,maombolezo,ujasusi,mchekeshaji,NA,sdf,NA,0,NA,NA,NA,NA,NA,NA,NA,NA,NA,NA,NA,NA,NA,NA,NA,NA,NA,NA,NA
ff53f,shallow,flow.Sequence,5_0_0_0_1_1,NA,NA,completion,11266.7,796564.89999962,796563.4,796580.1,807846.8,807852,2024-04-06T08:07:49Z,807863.3,NULL,Toleranz,kuvumiliana,s,maombolezo,ujasusi,mchekeshaji,NA,sdf,NA,0,NA,NA,NA,NA,NA,NA,NA,NA,NA,NA,NA,NA,NA,NA,NA,NA,NA,NA,NA
ff53f,task,flow.Sequence,5_0_0_0_1,NA,NA,completion,11266.7,796564.69999981,796563.4,796580.1,807846.8,807852.09999943,2024-04-06T08:07:49Z,807863.3,NULL,Toleranz,kuvumiliana,s,maombolezo,ujasusi,mchekeshaji,NA,sdf,NA,0,NA,NA,NA,NA,NA,NA,NA,NA,NA,NA,NA,NA,NA,NA,NA,NA,NA,NA,NA
ff53f,Deep Question,html.Page,5_0_0_0_2_0_0,NA,NA,form submission,4320.0999996185,807852.19999981,807846.8,807863.3,812183.39999962,812183.69999981,2024-04-06T08:07:54Z,812196.6,NULL,Inhalt,yaliyomo,d,NA,NA,NA,hande,NA,NA,0,NA,NA,NA,NA,NA,NA,NA,NA,NA,NA,NA,NA,NA,NA,NA,NA,NA,NA,NA
ff53f,"""Richtig""-Screen",canvas.Screen,5_0_0_0_2_0_1,NA,NA,skipped,NA,812185.5,NA,NA,812183.39999962,812185.59999943,2024-04-06T08:07:54Z,812196.6,NULL,Inhalt,yaliyomo,d,NA,NA,NA,NA,sdf,NA,0,NA,NA,NA,NA,NA,NA,NA,NA,NA,NA,NA,NA,NA,NA,NA,NA,NA,NA,NA
ff53f,"""Falsch""-Screen",canvas.Screen,5_0_0_0_2_0_2,NA,NA,timeout,5000,812186.19999981,812183.622,812196.6,817180.1,817180.89999962,2024-04-06T08:07:59Z,817196.6,NULL,Inhalt,yaliyomo,d,NA,NA,NA,NA,sdf,0,0,NA,NA,NA,NA,NA,NA,NA,NA,NA,NA,NA,NA,NA,NA,NA,NA,NA,NA,NA
ff53f,deep,flow.Sequence,5_0_0_0_2_0,NA,NA,completion,9316.7999999999,807852.19999981,807846.8,807863.3,817180.1,817181.09999943,2024-04-06T08:07:59Z,817196.6,NULL,Inhalt,yaliyomo,d,NA,NA,NA,NA,sdf,NA,0,NA,NA,NA,NA,NA,NA,NA,NA,NA,NA,NA,NA,NA,NA,NA,NA,NA,NA,NA
ff53f,shallow,flow.Sequence,5_0_0_0_2_1,NA,NA,skipped,NA,817181.19999981,NA,NA,817180.1,817181.39999962,2024-04-06T08:07:59Z,817196.6,NULL,Inhalt,yaliyomo,d,NA,NA,NA,NA,sdf,NA,0,NA,NA,NA,NA,NA,NA,NA,NA,NA,NA,NA,NA,NA,NA,NA,NA,NA,NA,NA
ff53f,task,flow.Sequence,5_0_0_0_2,NA,NA,completion,9316.7999999999,807852.19999981,807846.8,807863.3,817180.1,817181.5,2024-04-06T08:07:59Z,817196.6,NULL,Inhalt,yaliyomo,d,NA,NA,NA,NA,sdf,NA,0,NA,NA,NA,NA,NA,NA,NA,NA,NA,NA,NA,NA,NA,NA,NA,NA,NA,NA,NA
ff53f,deep,flow.Sequence,5_0_0_0_3_0,NA,NA,skipped,NA,817181.59999943,NA,NA,817180.1,817181.69999981,2024-04-06T08:07:59Z,817196.6,NULL,Schlange,foleni,s,uvumilivu,uteuzi,muuzaji,NA,sdf,NA,0,NA,NA,NA,NA,NA,NA,NA,NA,NA,NA,NA,NA,NA,NA,NA,NA,NA,NA,NA
ff53f,Shallow Question,html.Page,5_0_0_0_3_1_0,NA,NA,form submission,5438.5999998093,817181.79999924,817180.1,817196.6,822635.19999981,822635.5,2024-04-06T08:08:04Z,822652.7,NULL,Schlange,foleni,s,uvumilivu,uteuzi,muuzaji,muuzaji,NA,NA,0,NA,NA,NA,NA,NA,NA,NA,NA,NA,NA,NA,NA,NA,NA,NA,NA,NA,NA,NA
ff53f,"""Richtig""-Screen",canvas.Screen,5_0_0_0_3_1_1,NA,NA,skipped,NA,822637.29999924,NA,NA,822635.19999981,822637.39999962,2024-04-06T08:08:04Z,822652.7,NULL,Schlange,foleni,s,uvumilivu,uteuzi,muuzaji,NA,sdf,NA,0,NA,NA,NA,NA,NA,NA,NA,NA,NA,NA,NA,NA,NA,NA,NA,NA,NA,NA,NA
ff53f,"""Falsch""-Screen",canvas.Screen,5_0_0_0_3_1_2,NA,NA,timeout,4994.1000000001,822637.89999962,822630.13,822652.7,827630.1,827631,2024-04-06T08:08:09Z,827646.8,NULL,Schlange,foleni,s,uvumilivu,uteuzi,muuzaji,NA,sdf,0,0,NA,NA,NA,NA,NA,NA,NA,NA,NA,NA,NA,NA,NA,NA,NA,NA,NA,NA,NA
ff53f,shallow,flow.Sequence,5_0_0_0_3_1,NA,NA,completion,10433.5,817181.69999981,817180.1,817196.6,827630.1,827631.29999924,2024-04-06T08:08:09Z,827646.8,NULL,Schlange,foleni,s,uvumilivu,uteuzi,muuzaji,NA,sdf,NA,0,NA,NA,NA,NA,NA,NA,NA,NA,NA,NA,NA,NA,NA,NA,NA,NA,NA,NA,NA
ff53f,task,flow.Sequence,5_0_0_0_3,NA,NA,completion,10433.5,817181.59999943,817180.1,817196.6,827630.1,827631.5,2024-04-06T08:08:09Z,827646.8,NULL,Schlange,foleni,s,uvumilivu,uteuzi,muuzaji,NA,sdf,NA,0,NA,NA,NA,NA,NA,NA,NA,NA,NA,NA,NA,NA,NA,NA,NA,NA,NA,NA,NA
ff53f,deep,flow.Sequence,5_0_0_0_4_0,NA,NA,skipped,NA,827631.59999943,NA,NA,827630.1,827631.69999981,2024-04-06T08:08:09Z,827646.8,NULL,Begegnung,kukutana,s,mmasihiya,mpiganaji,husiano,NA,sdf,NA,0,NA,NA,NA,NA,NA,NA,NA,NA,NA,NA,NA,NA,NA,NA,NA,NA,NA,NA,NA
ff53f,Shallow Question,html.Page,5_0_0_0_4_1_0,NA,NA,form submission,4163.7,827631.79999924,827630.1,827646.8,831810.5,831810.69999981,2024-04-06T08:08:13Z,831813.2,NULL,Begegnung,kukutana,s,mmasihiya,mpiganaji,husiano,kukutana,NA,NA,0,NA,NA,NA,NA,NA,NA,NA,NA,NA,NA,NA,NA,NA,NA,NA,NA,NA,NA,NA
ff53f,"""Richtig""-Screen",canvas.Screen,5_0_0_0_4_1_1,NA,NA,timeout,5000.2000000001,831812.59999943,831797.1,831813.2,836796.7,836797.5,2024-04-06T08:08:18Z,836813.4,NULL,Begegnung,kukutana,s,mmasihiya,mpiganaji,husiano,NA,sdf,1,0,NA,NA,NA,NA,NA,NA,NA,NA,NA,NA,NA,NA,NA,NA,NA,NA,NA,NA,NA
ff53f,"""Falsch""-Screen",canvas.Screen,5_0_0_0_4_1_2,NA,NA,skipped,NA,836801.79999924,NA,NA,836796.7,836802,2024-04-06T08:08:18Z,836813.4,NULL,Begegnung,kukutana,s,mmasihiya,mpiganaji,husiano,NA,sdf,NA,0,NA,NA,NA,NA,NA,NA,NA,NA,NA,NA,NA,NA,NA,NA,NA,NA,NA,NA,NA
ff53f,shallow,flow.Sequence,5_0_0_0_4_1,NA,NA,completion,9149.8999999999,827631.79999924,827630.1,827646.8,836796.7,836802.19999981,2024-04-06T08:08:18Z,836813.4,NULL,Begegnung,kukutana,s,mmasihiya,mpiganaji,husiano,NA,sdf,NA,0,NA,NA,NA,NA,NA,NA,NA,NA,NA,NA,NA,NA,NA,NA,NA,NA,NA,NA,NA
ff53f,task,flow.Sequence,5_0_0_0_4,NA,NA,completion,9149.8999999999,827631.59999943,827630.1,827646.8,836796.7,836802.39999962,2024-04-06T08:08:18Z,836813.4,NULL,Begegnung,kukutana,s,mmasihiya,mpiganaji,husiano,NA,sdf,NA,0,NA,NA,NA,NA,NA,NA,NA,NA,NA,NA,NA,NA,NA,NA,NA,NA,NA,NA,NA
ff53f,Deep Question,html.Page,5_0_0_0_5_0_0,NA,NA,form submission,8419.899999237,836802.5,836796.7,836813.4,845233.29999924,845233.5,2024-04-06T08:08:27Z,845246.7,NULL,Fleisch,mshakiki,d,NA,NA,NA,hunade,NA,NA,0,NA,NA,NA,NA,NA,NA,NA,NA,NA,NA,NA,NA,NA,NA,NA,NA,NA,NA,NA
ff53f,"""Richtig""-Screen",canvas.Screen,5_0_0_0_5_0_1,NA,NA,skipped,NA,845235.19999981,NA,NA,845233.29999924,845235.39999962,2024-04-06T08:08:27Z,845246.7,NULL,Fleisch,mshakiki,d,NA,NA,NA,NA,sdf,NA,0,NA,NA,NA,NA,NA,NA,NA,NA,NA,NA,NA,NA,NA,NA,NA,NA,NA,NA,NA
ff53f,"""Falsch""-Screen",canvas.Screen,5_0_0_0_5_0_2,NA,NA,timeout,5000,845236.09999943,845230.352,845246.7,850230,850230.69999981,2024-04-06T08:08:32Z,850246.7,NULL,Fleisch,mshakiki,d,NA,NA,NA,NA,sdf,0,0,NA,NA,NA,NA,NA,NA,NA,NA,NA,NA,NA,NA,NA,NA,NA,NA,NA,NA,NA
ff53f,deep,flow.Sequence,5_0_0_0_5_0,NA,NA,completion,13416.6,836802.5,836796.7,836813.4,850230,850231.09999943,2024-04-06T08:08:32Z,850246.7,NULL,Fleisch,mshakiki,d,NA,NA,NA,NA,sdf,NA,0,NA,NA,NA,NA,NA,NA,NA,NA,NA,NA,NA,NA,NA,NA,NA,NA,NA,NA,NA
ff53f,shallow,flow.Sequence,5_0_0_0_5_1,NA,NA,skipped,NA,850231.19999981,NA,NA,850230,850231.29999924,2024-04-06T08:08:32Z,850246.7,NULL,Fleisch,mshakiki,d,NA,NA,NA,NA,sdf,NA,0,NA,NA,NA,NA,NA,NA,NA,NA,NA,NA,NA,NA,NA,NA,NA,NA,NA,NA,NA
ff53f,task,flow.Sequence,5_0_0_0_5,NA,NA,completion,13416.6,836802.39999962,836796.7,836813.4,850230,850231.39999962,2024-04-06T08:08:32Z,850246.7,NULL,Fleisch,mshakiki,d,NA,NA,NA,NA,sdf,NA,0,NA,NA,NA,NA,NA,NA,NA,NA,NA,NA,NA,NA,NA,NA,NA,NA,NA,NA,NA
ff53f,Deep Question,html.Page,5_0_0_0_6_0_0,NA,NA,form submission,4903.1999996186,850231.5,850230,850246.7,855149.89999962,855150.09999943,2024-04-06T08:08:36Z,855180.1,NULL,Integrität,uadilifu,d,NA,NA,NA,gesde,NA,NA,0,NA,NA,NA,NA,NA,NA,NA,NA,NA,NA,NA,NA,NA,NA,NA,NA,NA,NA,NA
ff53f,"""Richtig""-Screen",canvas.Screen,5_0_0_0_6_0_1,NA,NA,skipped,NA,855151.69999981,NA,NA,855149.89999962,855151.79999924,2024-04-06T08:08:36Z,855180.1,NULL,Integrität,uadilifu,d,NA,NA,NA,NA,sdf,NA,0,NA,NA,NA,NA,NA,NA,NA,NA,NA,NA,NA,NA,NA,NA,NA,NA,NA,NA,NA
ff53f,"""Falsch""-Screen",canvas.Screen,5_0_0_0_6_0_2,NA,NA,timeout,5000,855152.29999924,855163.596,855180.1,860163.4,860164.19999981,2024-04-06T08:08:41Z,860180.1,NULL,Integrität,uadilifu,d,NA,NA,NA,NA,sdf,0,0,NA,NA,NA,NA,NA,NA,NA,NA,NA,NA,NA,NA,NA,NA,NA,NA,NA,NA,NA
ff53f,deep,flow.Sequence,5_0_0_0_6_0,NA,NA,completion,9916.7000000001,850231.5,850230,850246.7,860163.4,860164.59999943,2024-04-06T08:08:41Z,860180.1,NULL,Integrität,uadilifu,d,NA,NA,NA,NA,sdf,NA,0,NA,NA,NA,NA,NA,NA,NA,NA,NA,NA,NA,NA,NA,NA,NA,NA,NA,NA,NA
ff53f,shallow,flow.Sequence,5_0_0_0_6_1,NA,NA,skipped,NA,860164.69999981,NA,NA,860163.4,860164.79999924,2024-04-06T08:08:41Z,860180.1,NULL,Integrität,uadilifu,d,NA,NA,NA,NA,sdf,NA,0,NA,NA,NA,NA,NA,NA,NA,NA,NA,NA,NA,NA,NA,NA,NA,NA,NA,NA,NA
ff53f,task,flow.Sequence,5_0_0_0_6,NA,NA,completion,9916.7000000001,850231.5,850230,850246.7,860163.4,860165,2024-04-06T08:08:41Z,860180.1,NULL,Integrität,uadilifu,d,NA,NA,NA,NA,sdf,NA,0,NA,NA,NA,NA,NA,NA,NA,NA,NA,NA,NA,NA,NA,NA,NA,NA,NA,NA,NA
ff53f,Deep Question,html.Page,5_0_0_0_7_0_0,NA,NA,form submission,5185.1999992371,860165.19999981,860163.4,860180.1,865365.29999924,865365.5,2024-04-06T08:08:47Z,865380,NULL,Vermutung,udhanifu,d,NA,NA,NA,begare,NA,NA,0,NA,NA,NA,NA,NA,NA,NA,NA,NA,NA,NA,NA,NA,NA,NA,NA,NA,NA,NA
ff53f,"""Richtig""-Screen",canvas.Screen,5_0_0_0_7_0_1,NA,NA,skipped,NA,865367.19999981,NA,NA,865365.29999924,865367.39999962,2024-04-06T08:08:47Z,865380,NULL,Vermutung,udhanifu,d,NA,NA,NA,NA,sdf,NA,0,NA,NA,NA,NA,NA,NA,NA,NA,NA,NA,NA,NA,NA,NA,NA,NA,NA,NA,NA
ff53f,"""Falsch""-Screen",canvas.Screen,5_0_0_0_7_0_2,NA,NA,timeout,5000.1,865367.79999924,865363.5,865380,870363.4,870364,2024-04-06T08:08:52Z,870380.1,NULL,Vermutung,udhanifu,d,NA,NA,NA,NA,sdf,0,0,NA,NA,NA,NA,NA,NA,NA,NA,NA,NA,NA,NA,NA,NA,NA,NA,NA,NA,NA
ff53f,deep,flow.Sequence,5_0_0_0_7_0,NA,NA,completion,10183.3,860165.09999943,860163.4,860180.1,870363.4,870364.39999962,2024-04-06T08:08:52Z,870380.1,NULL,Vermutung,udhanifu,d,NA,NA,NA,NA,sdf,NA,0,NA,NA,NA,NA,NA,NA,NA,NA,NA,NA,NA,NA,NA,NA,NA,NA,NA,NA,NA
ff53f,shallow,flow.Sequence,5_0_0_0_7_1,NA,NA,skipped,NA,870364.59999943,NA,NA,870363.4,870364.59999943,2024-04-06T08:08:52Z,870380.1,NULL,Vermutung,udhanifu,d,NA,NA,NA,NA,sdf,NA,0,NA,NA,NA,NA,NA,NA,NA,NA,NA,NA,NA,NA,NA,NA,NA,NA,NA,NA,NA
ff53f,task,flow.Sequence,5_0_0_0_7,NA,NA,completion,10183.3,860165.09999943,860163.4,860180.1,870363.4,870364.69999981,2024-04-06T08:08:52Z,870380.1,NULL,Vermutung,udhanifu,d,NA,NA,NA,NA,sdf,NA,0,NA,NA,NA,NA,NA,NA,NA,NA,NA,NA,NA,NA,NA,NA,NA,NA,NA,NA,NA
ff53f,block,flow.Loop,5_0_0_0,NA,NA,completion,89950.1,780403,780402.298,780413.3,870363.4,870364.89999962,2024-04-06T08:08:52Z,870380.1,NULL,NA,NA,NA,NA,NA,NA,NA,sdf,NA,0,NA,NA,NA,NA,NA,NA,NA,NA,NA,NA,NA,NA,NA,NA,NA,NA,NA,NA,NA
ff53f,weiter,canvas.Screen,5_0_0_1,sdf,keypress(Space),response,1068.0999998093,870364.89999962,870363.4,870380.1,871448.19999981,871452.59999943,2024-04-06T08:08:53Z,871513.3,NULL,NA,NA,NA,NA,NA,NA,NA,sdf,NA,0,NA,NA,NA,NA,NA,NA,NA,NA,NA,NA,NA,NA,NA,NA,NA,NA,NA,NA,NA
ff53f,check continue,flow.Sequence,5_0_0,NA,NA,completion,91034.899999809,780403,780402.298,780413.3,871448.19999981,871453,2024-04-06T08:08:53Z,871513.3,NULL,NA,NA,NA,NA,NA,NA,NA,sdf,NA,0,NA,NA,NA,NA,NA,NA,NA,NA,NA,NA,NA,NA,NA,NA,NA,NA,NA,NA,NA
ff53f,Deep Question,html.Page,5_0_1_0_0_0_0,NA,NA,form submission,33158.999999237,871501.29999924,871497,871513.3,904672.29999924,904672.59999943,2024-04-06T08:09:26Z,904688.8,NULL,Fleisch,mshakiki,d,NA,NA,NA,mshakiki,NA,NA,1,NA,NA,NA,NA,NA,NA,NA,NA,NA,NA,NA,NA,NA,NA,NA,NA,NA,NA,NA
ff53f,"""Richtig""-Screen",canvas.Screen,5_0_1_0_0_0_1,NA,NA,timeout,5007.7,904674.39999962,904669.568,904688.8,909680,909680.69999981,2024-04-06T08:09:31Z,909696.5,NULL,Fleisch,mshakiki,d,NA,NA,NA,NA,sdfdsf,1,1,NA,NA,NA,NA,NA,NA,NA,NA,NA,NA,NA,NA,NA,NA,NA,NA,NA,NA,NA
ff53f,"""Falsch""-Screen",canvas.Screen,5_0_1_0_0_0_2,NA,NA,skipped,NA,909685,NA,NA,909680,909685.19999981,2024-04-06T08:09:31Z,909696.5,NULL,Fleisch,mshakiki,d,NA,NA,NA,NA,sdfdsf,NA,1,NA,NA,NA,NA,NA,NA,NA,NA,NA,NA,NA,NA,NA,NA,NA,NA,NA,NA,NA
ff53f,deep,flow.Sequence,5_0_1_0_0_0,NA,NA,completion,38166.7,871501.29999924,871497,871513.3,909680,909685.5,2024-04-06T08:09:31Z,909696.5,NULL,Fleisch,mshakiki,d,NA,NA,NA,NA,sdfdsf,NA,1,NA,NA,NA,NA,NA,NA,NA,NA,NA,NA,NA,NA,NA,NA,NA,NA,NA,NA,NA
ff53f,shallow,flow.Sequence,5_0_1_0_0_1,NA,NA,skipped,NA,909685.59999943,NA,NA,909680,909685.69999981,2024-04-06T08:09:31Z,909696.5,NULL,Fleisch,mshakiki,d,NA,NA,NA,NA,sdfdsf,NA,1,NA,NA,NA,NA,NA,NA,NA,NA,NA,NA,NA,NA,NA,NA,NA,NA,NA,NA,NA
ff53f,task,flow.Sequence,5_0_1_0_0,NA,NA,completion,38166.7,871501.29999924,871497,871513.3,909680,909685.69999981,2024-04-06T08:09:31Z,909696.5,NULL,Fleisch,mshakiki,d,NA,NA,NA,NA,sdfdsf,NA,1,NA,NA,NA,NA,NA,NA,NA,NA,NA,NA,NA,NA,NA,NA,NA,NA,NA,NA,NA
ff53f,Deep Question,html.Page,5_0_1_0_1_0_0,NA,NA,form submission,26830.599999428,909685.89999962,909680,909696.5,936527.09999943,936527.29999924,2024-04-06T08:09:58Z,936529.95,NULL,Integrität,uadilifu,d,NA,NA,NA,udeö,NA,NA,1,NA,NA,NA,NA,NA,NA,NA,NA,NA,NA,NA,NA,NA,NA,NA,NA,NA,NA,NA
ff53f,"""Richtig""-Screen",canvas.Screen,5_0_1_0_1_0_1,NA,NA,skipped,NA,936529.09999943,NA,NA,936527.09999943,936529.29999924,2024-04-06T08:09:58Z,936529.95,NULL,Integrität,uadilifu,d,NA,NA,NA,NA,sdfdsf,NA,1,NA,NA,NA,NA,NA,NA,NA,NA,NA,NA,NA,NA,NA,NA,NA,NA,NA,NA,NA
ff53f,"""Falsch""-Screen",canvas.Screen,5_0_1_0_1_0_2,NA,NA,timeout,5001.4500000001,936529.79999924,936529.95,936529.95,941513.3,941514,2024-04-06T08:10:03Z,941531.4,NULL,Integrität,uadilifu,d,NA,NA,NA,NA,sdfdsf,0,1,NA,NA,NA,NA,NA,NA,NA,NA,NA,NA,NA,NA,NA,NA,NA,NA,NA,NA,NA
ff53f,deep,flow.Sequence,5_0_1_0_1_0,NA,NA,completion,31816.8,909685.89999962,909680,909696.5,941513.3,941514.29999924,2024-04-06T08:10:03Z,941531.4,NULL,Integrität,uadilifu,d,NA,NA,NA,NA,sdfdsf,NA,1,NA,NA,NA,NA,NA,NA,NA,NA,NA,NA,NA,NA,NA,NA,NA,NA,NA,NA,NA
ff53f,shallow,flow.Sequence,5_0_1_0_1_1,NA,NA,skipped,NA,941514.39999962,NA,NA,941513.3,941514.59999943,2024-04-06T08:10:03Z,941531.4,NULL,Integrität,uadilifu,d,NA,NA,NA,NA,sdfdsf,NA,1,NA,NA,NA,NA,NA,NA,NA,NA,NA,NA,NA,NA,NA,NA,NA,NA,NA,NA,NA
ff53f,task,flow.Sequence,5_0_1_0_1,NA,NA,completion,31816.8,909685.89999962,909680,909696.5,941513.3,941514.59999943,2024-04-06T08:10:03Z,941531.4,NULL,Integrität,uadilifu,d,NA,NA,NA,NA,sdfdsf,NA,1,NA,NA,NA,NA,NA,NA,NA,NA,NA,NA,NA,NA,NA,NA,NA,NA,NA,NA,NA
ff53f,deep,flow.Sequence,5_0_1_0_2_0,NA,NA,skipped,NA,941514.69999981,NA,NA,941513.3,941514.69999981,2024-04-06T08:10:03Z,941531.4,NULL,Schlange,foleni,s,uvumilivu,uteuzi,muuzaji,NA,sdfdsf,NA,1,NA,NA,NA,NA,NA,NA,NA,NA,NA,NA,NA,NA,NA,NA,NA,NA,NA,NA,NA
ff53f,Shallow Question,html.Page,5_0_1_0_2_1_0,NA,NA,form submission,23235.999999619,941514.79999924,941513.3,941531.4,964767.39999962,964767.59999943,2024-04-06T08:10:26Z,964779.8,NULL,Schlange,foleni,s,uvumilivu,uteuzi,muuzaji,foleni,NA,NA,1,NA,NA,NA,NA,NA,NA,NA,NA,NA,NA,NA,NA,NA,NA,NA,NA,NA,NA,NA
ff53f,"""Richtig""-Screen",canvas.Screen,5_0_1_0_2_1_1,NA,NA,timeout,5000.2,964769.29999924,964763.5,964779.8,969763.2,969764,2024-04-06T08:10:31Z,969780,NULL,Schlange,foleni,s,uvumilivu,uteuzi,muuzaji,NA,sdfdsf,1,1,NA,NA,NA,NA,NA,NA,NA,NA,NA,NA,NA,NA,NA,NA,NA,NA,NA,NA,NA
ff53f,"""Falsch""-Screen",canvas.Screen,5_0_1_0_2_1_2,NA,NA,skipped,NA,969768.39999962,NA,NA,969763.2,969768.69999981,2024-04-06T08:10:31Z,969780,NULL,Schlange,foleni,s,uvumilivu,uteuzi,muuzaji,NA,sdfdsf,NA,1,NA,NA,NA,NA,NA,NA,NA,NA,NA,NA,NA,NA,NA,NA,NA,NA,NA,NA,NA
ff53f,shallow,flow.Sequence,5_0_1_0_2_1,NA,NA,completion,28231.8,941514.79999924,941513.3,941531.4,969763.2,969768.79999924,2024-04-06T08:10:31Z,969780,NULL,Schlange,foleni,s,uvumilivu,uteuzi,muuzaji,NA,sdfdsf,NA,1,NA,NA,NA,NA,NA,NA,NA,NA,NA,NA,NA,NA,NA,NA,NA,NA,NA,NA,NA
ff53f,task,flow.Sequence,5_0_1_0_2,NA,NA,completion,28231.8,941514.69999981,941513.3,941531.4,969763.2,969769,2024-04-06T08:10:31Z,969780,NULL,Schlange,foleni,s,uvumilivu,uteuzi,muuzaji,NA,sdfdsf,NA,1,NA,NA,NA,NA,NA,NA,NA,NA,NA,NA,NA,NA,NA,NA,NA,NA,NA,NA,NA
ff53f,Deep Question,html.Page,5_0_1_0_3_0_0,NA,NA,form submission,25383.099999428,969769.09999943,969763.2,969780,995163.09999943,995163.39999962,2024-04-06T08:10:56Z,995180.1,NULL,Vermutung,udhanifu,d,NA,NA,NA,udhanifu,NA,NA,1,NA,NA,NA,NA,NA,NA,NA,NA,NA,NA,NA,NA,NA,NA,NA,NA,NA,NA,NA
ff53f,"""Richtig""-Screen",canvas.Screen,5_0_1_0_3_0_1,NA,NA,timeout,4999.8,995165.19999981,995165.082,995180.1,1000163.3,1000164,2024-04-06T08:11:01Z,1000179.9,NULL,Vermutung,udhanifu,d,NA,NA,NA,NA,sdfdsf,1,1,NA,NA,NA,NA,NA,NA,NA,NA,NA,NA,NA,NA,NA,NA,NA,NA,NA,NA,NA
ff53f,"""Falsch""-Screen",canvas.Screen,5_0_1_0_3_0_2,NA,NA,skipped,NA,1000168.1999998,NA,NA,1000163.3,1000168.3999996,2024-04-06T08:11:01Z,1000179.9,NULL,Vermutung,udhanifu,d,NA,NA,NA,NA,sdfdsf,NA,1,NA,NA,NA,NA,NA,NA,NA,NA,NA,NA,NA,NA,NA,NA,NA,NA,NA,NA,NA
ff53f,deep,flow.Sequence,5_0_1_0_3_0,NA,NA,completion,30383.3,969769.09999943,969763.2,969780,1000163.3,1000168.6999998,2024-04-06T08:11:01Z,1000179.9,NULL,Vermutung,udhanifu,d,NA,NA,NA,NA,sdfdsf,NA,1,NA,NA,NA,NA,NA,NA,NA,NA,NA,NA,NA,NA,NA,NA,NA,NA,NA,NA,NA
ff53f,shallow,flow.Sequence,5_0_1_0_3_1,NA,NA,skipped,NA,1000168.6999998,NA,NA,1000163.3,1000168.7999992,2024-04-06T08:11:01Z,1000179.9,NULL,Vermutung,udhanifu,d,NA,NA,NA,NA,sdfdsf,NA,1,NA,NA,NA,NA,NA,NA,NA,NA,NA,NA,NA,NA,NA,NA,NA,NA,NA,NA,NA
ff53f,task,flow.Sequence,5_0_1_0_3,NA,NA,completion,30383.3,969769.09999943,969763.2,969780,1000163.3,1000168.8999996,2024-04-06T08:11:01Z,1000179.9,NULL,Vermutung,udhanifu,d,NA,NA,NA,NA,sdfdsf,NA,1,NA,NA,NA,NA,NA,NA,NA,NA,NA,NA,NA,NA,NA,NA,NA,NA,NA,NA,NA
ff53f,deep,flow.Sequence,5_0_1_0_4_0,NA,NA,skipped,NA,1000169,NA,NA,1000163.3,1000169,2024-04-06T08:11:01Z,1000179.9,NULL,Begegnung,kukutana,s,mmasihiya,mpiganaji,husiano,NA,sdfdsf,NA,1,NA,NA,NA,NA,NA,NA,NA,NA,NA,NA,NA,NA,NA,NA,NA,NA,NA,NA,NA
ff53f,Shallow Question,html.Page,5_0_1_0_4_1_0,NA,NA,form submission,10481.199999428,1000169.1999998,1000163.3,1000179.9,1010661.0999994,1010661.3999996,2024-04-06T08:11:12Z,1010663.272,NULL,Begegnung,kukutana,s,mmasihiya,mpiganaji,husiano,kukutana,NA,NA,1,NA,NA,NA,NA,NA,NA,NA,NA,NA,NA,NA,NA,NA,NA,NA,NA,NA,NA,NA
ff53f,"""Richtig""-Screen",canvas.Screen,5_0_1_0_4_1_1,NA,NA,timeout,5001.728,1010663,1010663.272,1010663.272,1015646.6,1015647.1999998,2024-04-06T08:11:17Z,1015665,NULL,Begegnung,kukutana,s,mmasihiya,mpiganaji,husiano,NA,sdfdsf,1,1,NA,NA,NA,NA,NA,NA,NA,NA,NA,NA,NA,NA,NA,NA,NA,NA,NA,NA,NA
ff53f,"""Falsch""-Screen",canvas.Screen,5_0_1_0_4_1_2,NA,NA,skipped,NA,1015653.5,NA,NA,1015646.6,1015653.7999992,2024-04-06T08:11:17Z,1015665,NULL,Begegnung,kukutana,s,mmasihiya,mpiganaji,husiano,NA,sdfdsf,NA,1,NA,NA,NA,NA,NA,NA,NA,NA,NA,NA,NA,NA,NA,NA,NA,NA,NA,NA,NA
ff53f,shallow,flow.Sequence,5_0_1_0_4_1,NA,NA,completion,15466.7,1000169.0999994,1000163.3,1000179.9,1015646.6,1015654.2999992,2024-04-06T08:11:17Z,1015665,NULL,Begegnung,kukutana,s,mmasihiya,mpiganaji,husiano,NA,sdfdsf,NA,1,NA,NA,NA,NA,NA,NA,NA,NA,NA,NA,NA,NA,NA,NA,NA,NA,NA,NA,NA
ff53f,task,flow.Sequence,5_0_1_0_4,NA,NA,completion,15466.7,1000169,1000163.3,1000179.9,1015646.6,1015654.5,2024-04-06T08:11:17Z,1015665,NULL,Begegnung,kukutana,s,mmasihiya,mpiganaji,husiano,NA,sdfdsf,NA,1,NA,NA,NA,NA,NA,NA,NA,NA,NA,NA,NA,NA,NA,NA,NA,NA,NA,NA,NA
ff53f,deep,flow.Sequence,5_0_1_0_5_0,NA,NA,skipped,NA,1015654.6999998,NA,NA,1015646.6,1015654.8999996,2024-04-06T08:11:17Z,1015665,NULL,Toleranz,kuvumiliana,s,maombolezo,ujasusi,mchekeshaji,NA,sdfdsf,NA,1,NA,NA,NA,NA,NA,NA,NA,NA,NA,NA,NA,NA,NA,NA,NA,NA,NA,NA,NA
ff53f,Shallow Question,html.Page,5_0_1_0_5_1_0,NA,NA,form submission,26954.199999809,1015655,1015646.6,1015665,1042619.1999998,1042619.3999996,2024-04-06T08:11:44Z,1042629.8,NULL,Toleranz,kuvumiliana,s,maombolezo,ujasusi,mchekeshaji,kuvumiliana,NA,NA,1,NA,NA,NA,NA,NA,NA,NA,NA,NA,NA,NA,NA,NA,NA,NA,NA,NA,NA,NA
ff53f,"""Richtig""-Screen",canvas.Screen,5_0_1_0_5_1_1,NA,NA,timeout,5006.8999999999,1042621.0999994,1042613.268,1042629.8,1047613.3,1047613.8999996,2024-04-06T08:11:49Z,1047636.7,NULL,Toleranz,kuvumiliana,s,maombolezo,ujasusi,mchekeshaji,NA,sdfdsf,1,1,NA,NA,NA,NA,NA,NA,NA,NA,NA,NA,NA,NA,NA,NA,NA,NA,NA,NA,NA
ff53f,"""Falsch""-Screen",canvas.Screen,5_0_1_0_5_1_2,NA,NA,skipped,NA,1047617.8999996,NA,NA,1047613.3,1047618.0999994,2024-04-06T08:11:49Z,1047636.7,NULL,Toleranz,kuvumiliana,s,maombolezo,ujasusi,mchekeshaji,NA,sdfdsf,NA,1,NA,NA,NA,NA,NA,NA,NA,NA,NA,NA,NA,NA,NA,NA,NA,NA,NA,NA,NA
ff53f,shallow,flow.Sequence,5_0_1_0_5_1,NA,NA,completion,31948.3,1015654.8999996,1015646.6,1015665,1047613.3,1047618.2999992,2024-04-06T08:11:49Z,1047636.7,NULL,Toleranz,kuvumiliana,s,maombolezo,ujasusi,mchekeshaji,NA,sdfdsf,NA,1,NA,NA,NA,NA,NA,NA,NA,NA,NA,NA,NA,NA,NA,NA,NA,NA,NA,NA,NA
ff53f,task,flow.Sequence,5_0_1_0_5,NA,NA,completion,31948.3,1015654.5999994,1015646.6,1015665,1047613.3,1047618.5,2024-04-06T08:11:49Z,1047636.7,NULL,Toleranz,kuvumiliana,s,maombolezo,ujasusi,mchekeshaji,NA,sdfdsf,NA,1,NA,NA,NA,NA,NA,NA,NA,NA,NA,NA,NA,NA,NA,NA,NA,NA,NA,NA,NA
ff53f,deep,flow.Sequence,5_0_1_0_6_0,NA,NA,skipped,NA,1047618.5,NA,NA,1047613.3,1047618.5999994,2024-04-06T08:11:49Z,1047636.7,NULL,Genehmigung,idhini,s,mwanamke,itikadi,fedheha,NA,sdfdsf,NA,1,NA,NA,NA,NA,NA,NA,NA,NA,NA,NA,NA,NA,NA,NA,NA,NA,NA,NA,NA
ff53f,Shallow Question,html.Page,5_0_1_0_6_1_0,NA,NA,form submission,12241.3,1047618.6999998,1047613.3,1047636.7,1059878,1059878.0999994,2024-04-06T08:12:01Z,1059896.4,NULL,Genehmigung,idhini,s,mwanamke,itikadi,fedheha,idhini,NA,NA,1,NA,NA,NA,NA,NA,NA,NA,NA,NA,NA,NA,NA,NA,NA,NA,NA,NA,NA,NA
ff53f,"""Richtig""-Screen",canvas.Screen,5_0_1_0_6_1_1,NA,NA,timeout,5000.1000000001,1059879.8999996,1059880.232,1059896.4,1064879.9,1064880.6999998,2024-04-06T08:12:06Z,1064896.5,NULL,Genehmigung,idhini,s,mwanamke,itikadi,fedheha,NA,sdfdsf,1,1,NA,NA,NA,NA,NA,NA,NA,NA,NA,NA,NA,NA,NA,NA,NA,NA,NA,NA,NA
ff53f,"""Falsch""-Screen",canvas.Screen,5_0_1_0_6_1_2,NA,NA,skipped,NA,1064884.8999996,NA,NA,1064879.9,1064885.0999994,2024-04-06T08:12:06Z,1064896.5,NULL,Genehmigung,idhini,s,mwanamke,itikadi,fedheha,NA,sdfdsf,NA,1,NA,NA,NA,NA,NA,NA,NA,NA,NA,NA,NA,NA,NA,NA,NA,NA,NA,NA,NA
ff53f,shallow,flow.Sequence,5_0_1_0_6_1,NA,NA,completion,17243.2,1047618.6999998,1047613.3,1047636.7,1064879.9,1064885.3999996,2024-04-06T08:12:06Z,1064896.5,NULL,Genehmigung,idhini,s,mwanamke,itikadi,fedheha,NA,sdfdsf,NA,1,NA,NA,NA,NA,NA,NA,NA,NA,NA,NA,NA,NA,NA,NA,NA,NA,NA,NA,NA
ff53f,task,flow.Sequence,5_0_1_0_6,NA,NA,completion,17243.2,1047618.5,1047613.3,1047636.7,1064879.9,1064885.5,2024-04-06T08:12:06Z,1064896.5,NULL,Genehmigung,idhini,s,mwanamke,itikadi,fedheha,NA,sdfdsf,NA,1,NA,NA,NA,NA,NA,NA,NA,NA,NA,NA,NA,NA,NA,NA,NA,NA,NA,NA,NA
ff53f,Deep Question,html.Page,5_0_1_0_7_0_0,NA,NA,form submission,31003.5,1064885.5999994,1064879.9,1064896.5,1095900,1095900.1999998,2024-04-06T08:12:37Z,1095913,NULL,Inhalt,yaliyomo,d,NA,NA,NA,yaliyomo,NA,NA,1,NA,NA,NA,NA,NA,NA,NA,NA,NA,NA,NA,NA,NA,NA,NA,NA,NA,NA,NA
ff53f,"""Richtig""-Screen",canvas.Screen,5_0_1_0_7_0_1,NA,NA,timeout,5016.1000000001,1095902,1095898.34,1095913,1100896.6,1100897.1999998,2024-04-06T08:12:42Z,1100929.1,NULL,Inhalt,yaliyomo,d,NA,NA,NA,NA,sdfdsf,1,1,NA,NA,NA,NA,NA,NA,NA,NA,NA,NA,NA,NA,NA,NA,NA,NA,NA,NA,NA
ff53f,"""Falsch""-Screen",canvas.Screen,5_0_1_0_7_0_2,NA,NA,skipped,NA,1100901.1999998,NA,NA,1100896.6,1100901.3999996,2024-04-06T08:12:42Z,1100929.1,NULL,Inhalt,yaliyomo,d,NA,NA,NA,NA,sdfdsf,NA,1,NA,NA,NA,NA,NA,NA,NA,NA,NA,NA,NA,NA,NA,NA,NA,NA,NA,NA,NA
ff53f,deep,flow.Sequence,5_0_1_0_7_0,NA,NA,completion,36000.1,1064885.5999994,1064879.9,1064896.5,1100896.6,1100901.5999994,2024-04-06T08:12:42Z,1100929.1,NULL,Inhalt,yaliyomo,d,NA,NA,NA,NA,sdfdsf,NA,1,NA,NA,NA,NA,NA,NA,NA,NA,NA,NA,NA,NA,NA,NA,NA,NA,NA,NA,NA
ff53f,shallow,flow.Sequence,5_0_1_0_7_1,NA,NA,skipped,NA,1100901.6999998,NA,NA,1100896.6,1100901.6999998,2024-04-06T08:12:42Z,1100929.1,NULL,Inhalt,yaliyomo,d,NA,NA,NA,NA,sdfdsf,NA,1,NA,NA,NA,NA,NA,NA,NA,NA,NA,NA,NA,NA,NA,NA,NA,NA,NA,NA,NA
ff53f,task,flow.Sequence,5_0_1_0_7,NA,NA,completion,36000.1,1064885.5999994,1064879.9,1064896.5,1100896.6,1100901.8999996,2024-04-06T08:12:42Z,1100929.1,NULL,Inhalt,yaliyomo,d,NA,NA,NA,NA,sdfdsf,NA,1,NA,NA,NA,NA,NA,NA,NA,NA,NA,NA,NA,NA,NA,NA,NA,NA,NA,NA,NA
ff53f,block,flow.Loop,5_0_1_0,NA,NA,completion,229383.3,871501.29999924,871497,871513.3,1100896.6,1100902.5999994,2024-04-06T08:12:42Z,1100929.1,NULL,NA,NA,NA,NA,NA,NA,NA,sdfdsf,NA,1,NA,NA,NA,NA,NA,NA,NA,NA,NA,NA,NA,NA,NA,NA,NA,NA,NA,NA,NA
ff53f,weiter,canvas.Screen,5_0_1_1,sdf,keypress(Space),response,1536.2999996184,1100902.7999992,1100896.6,1100929.1,1102465.3999996,1102466.5,2024-04-06T08:12:44Z,1102939.9,NULL,NA,NA,NA,NA,NA,NA,NA,sdfdsf,NA,1,NA,NA,NA,NA,NA,NA,NA,NA,NA,NA,NA,NA,NA,NA,NA,NA,NA,NA,NA
ff53f,check continue,flow.Sequence,5_0_1,NA,NA,completion,230952.09999962,871501.29999924,871497,871513.3,1102465.3999996,1102466.6999998,2024-04-06T08:12:44Z,1102939.9,NULL,NA,NA,NA,NA,NA,NA,NA,sdfdsf,NA,1,NA,NA,NA,NA,NA,NA,NA,NA,NA,NA,NA,NA,NA,NA,NA,NA,NA,NA,NA
ff53f,check continue,flow.Sequence,5_0_2,NA,NA,skipped,NA,1102503.7999992,NA,NA,1102465.3999996,1102503.8999996,2024-04-06T08:12:44Z,1102939.9,NULL,NA,NA,NA,NA,NA,NA,NA,sdf,NA,2,NA,NA,NA,NA,NA,NA,NA,NA,NA,NA,NA,NA,NA,NA,NA,NA,NA,NA,NA
ff53f,check continue,flow.Sequence,5_0_3,NA,NA,skipped,NA,1102530.5,NA,NA,1102465.3999996,1102530.5999994,2024-04-06T08:12:44Z,1102939.9,NULL,NA,NA,NA,NA,NA,NA,NA,qt,NA,3,NA,NA,NA,NA,NA,NA,NA,NA,NA,NA,NA,NA,NA,NA,NA,NA,NA,NA,NA
ff53f,check continue,flow.Sequence,5_0_4,NA,NA,skipped,NA,1102545.2999992,NA,NA,1102465.3999996,1102545.3999996,2024-04-06T08:12:44Z,1102939.9,NULL,NA,NA,NA,NA,NA,NA,NA,sd,NA,4,NA,NA,NA,NA,NA,NA,NA,NA,NA,NA,NA,NA,NA,NA,NA,NA,NA,NA,NA
ff53f,check continue,flow.Sequence,5_0_5,NA,NA,skipped,NA,1102557.8999996,NA,NA,1102465.3999996,1102558,2024-04-06T08:12:44Z,1102939.9,NULL,NA,NA,NA,NA,NA,NA,NA,sdf,NA,5,NA,NA,NA,NA,NA,NA,NA,NA,NA,NA,NA,NA,NA,NA,NA,NA,NA,NA,NA
ff53f,check continue,flow.Sequence,5_0_6,NA,NA,skipped,NA,1102570,NA,NA,1102465.3999996,1102570,2024-04-06T08:12:44Z,1102939.9,NULL,NA,NA,NA,NA,NA,NA,NA,dfs,NA,6,NA,NA,NA,NA,NA,NA,NA,NA,NA,NA,NA,NA,NA,NA,NA,NA,NA,NA,NA
ff53f,check continue,flow.Sequence,5_0_7,NA,NA,skipped,NA,1102581.6999998,NA,NA,1102465.3999996,1102581.6999998,2024-04-06T08:12:44Z,1102939.9,NULL,NA,NA,NA,NA,NA,NA,NA,df,NA,7,NA,NA,NA,NA,NA,NA,NA,NA,NA,NA,NA,NA,NA,NA,NA,NA,NA,NA,NA
ff53f,check continue,flow.Sequence,5_0_8,NA,NA,skipped,NA,1102595.3999996,NA,NA,1102465.3999996,1102595.5,2024-04-06T08:12:44Z,1102939.9,NULL,NA,NA,NA,NA,NA,NA,NA,dfs,NA,8,NA,NA,NA,NA,NA,NA,NA,NA,NA,NA,NA,NA,NA,NA,NA,NA,NA,NA,NA
ff53f,check continue,flow.Sequence,5_0_9,NA,NA,skipped,NA,1102606.3999996,NA,NA,1102465.3999996,1102606.3999996,2024-04-06T08:12:44Z,1102939.9,NULL,NA,NA,NA,NA,NA,NA,NA,dsf,NA,9,NA,NA,NA,NA,NA,NA,NA,NA,NA,NA,NA,NA,NA,NA,NA,NA,NA,NA,NA
ff53f,check continue,flow.Sequence,5_0_10,NA,NA,skipped,NA,1102622.6999998,NA,NA,1102465.3999996,1102622.7999992,2024-04-06T08:12:44Z,1102939.9,NULL,NA,NA,NA,NA,NA,NA,NA,df,NA,10,NA,NA,NA,NA,NA,NA,NA,NA,NA,NA,NA,NA,NA,NA,NA,NA,NA,NA,NA
ff53f,check continue,flow.Sequence,5_0_11,NA,NA,skipped,NA,1102645.5,NA,NA,1102465.3999996,1102645.5999994,2024-04-06T08:12:44Z,1102939.9,NULL,NA,NA,NA,NA,NA,NA,NA,dfs,NA,11,NA,NA,NA,NA,NA,NA,NA,NA,NA,NA,NA,NA,NA,NA,NA,NA,NA,NA,NA
ff53f,check continue,flow.Sequence,5_0_12,NA,NA,skipped,NA,1102665.2999992,NA,NA,1102465.3999996,1102665.3999996,2024-04-06T08:12:44Z,1102939.9,NULL,NA,NA,NA,NA,NA,NA,NA,dsf,NA,12,NA,NA,NA,NA,NA,NA,NA,NA,NA,NA,NA,NA,NA,NA,NA,NA,NA,NA,NA
ff53f,check continue,flow.Sequence,5_0_13,NA,NA,skipped,NA,1102676.1999998,NA,NA,1102465.3999996,1102676.1999998,2024-04-06T08:12:44Z,1102939.9,NULL,NA,NA,NA,NA,NA,NA,NA,dsf,NA,13,NA,NA,NA,NA,NA,NA,NA,NA,NA,NA,NA,NA,NA,NA,NA,NA,NA,NA,NA
ff53f,check continue,flow.Sequence,5_0_14,NA,NA,skipped,NA,1102687.1999998,NA,NA,1102465.3999996,1102687.2999992,2024-04-06T08:12:44Z,1102939.9,NULL,NA,NA,NA,NA,NA,NA,NA,NA,NA,14,NA,NA,NA,NA,NA,NA,NA,NA,NA,NA,NA,NA,NA,NA,NA,NA,NA,NA,NA
ff53f,check continue,flow.Sequence,5_0_15,NA,NA,skipped,NA,1102698.2999992,NA,NA,1102465.3999996,1102698.2999992,2024-04-06T08:12:44Z,1102939.9,NULL,NA,NA,NA,NA,NA,NA,NA,NA,NA,15,NA,NA,NA,NA,NA,NA,NA,NA,NA,NA,NA,NA,NA,NA,NA,NA,NA,NA,NA
ff53f,check continue,flow.Sequence,5_0_16,NA,NA,skipped,NA,1102715.5999994,NA,NA,1102465.3999996,1102715.6999998,2024-04-06T08:12:44Z,1102939.9,NULL,NA,NA,NA,NA,NA,NA,NA,NA,NA,16,NA,NA,NA,NA,NA,NA,NA,NA,NA,NA,NA,NA,NA,NA,NA,NA,NA,NA,NA
ff53f,check continue,flow.Sequence,5_0_17,NA,NA,skipped,NA,1102741.0999994,NA,NA,1102465.3999996,1102741.1999998,2024-04-06T08:12:44Z,1102939.9,NULL,NA,NA,NA,NA,NA,NA,NA,NA,NA,17,NA,NA,NA,NA,NA,NA,NA,NA,NA,NA,NA,NA,NA,NA,NA,NA,NA,NA,NA
ff53f,check continue,flow.Sequence,5_0_18,NA,NA,skipped,NA,1102754.8999996,NA,NA,1102465.3999996,1102755,2024-04-06T08:12:44Z,1102939.9,NULL,NA,NA,NA,NA,NA,NA,NA,NA,NA,18,NA,NA,NA,NA,NA,NA,NA,NA,NA,NA,NA,NA,NA,NA,NA,NA,NA,NA,NA
ff53f,check continue,flow.Sequence,5_0_19,NA,NA,skipped,NA,1102765.2999992,NA,NA,1102465.3999996,1102765.2999992,2024-04-06T08:12:44Z,1102939.9,NULL,NA,NA,NA,NA,NA,NA,NA,NA,NA,19,NA,NA,NA,NA,NA,NA,NA,NA,NA,NA,NA,NA,NA,NA,NA,NA,NA,NA,NA
ff53f,check continue,flow.Sequence,5_0_20,NA,NA,skipped,NA,1102778.5,NA,NA,1102465.3999996,1102778.6999998,2024-04-06T08:12:44Z,1102939.9,NULL,NA,NA,NA,NA,NA,NA,NA,NA,NA,20,NA,NA,NA,NA,NA,NA,NA,NA,NA,NA,NA,NA,NA,NA,NA,NA,NA,NA,NA
ff53f,check continue,flow.Sequence,5_0_21,NA,NA,skipped,NA,1102794.5999994,NA,NA,1102465.3999996,1102794.6999998,2024-04-06T08:12:44Z,1102939.9,NULL,NA,NA,NA,NA,NA,NA,NA,NA,NA,21,NA,NA,NA,NA,NA,NA,NA,NA,NA,NA,NA,NA,NA,NA,NA,NA,NA,NA,NA
ff53f,check continue,flow.Sequence,5_0_22,NA,NA,skipped,NA,1102804.2999992,NA,NA,1102465.3999996,1102804.3999996,2024-04-06T08:12:44Z,1102939.9,NULL,NA,NA,NA,NA,NA,NA,NA,NA,NA,22,NA,NA,NA,NA,NA,NA,NA,NA,NA,NA,NA,NA,NA,NA,NA,NA,NA,NA,NA
ff53f,check continue,flow.Sequence,5_0_23,NA,NA,skipped,NA,1102815.7999992,NA,NA,1102465.3999996,1102815.7999992,2024-04-06T08:12:44Z,1102939.9,NULL,NA,NA,NA,NA,NA,NA,NA,NA,NA,23,NA,NA,NA,NA,NA,NA,NA,NA,NA,NA,NA,NA,NA,NA,NA,NA,NA,NA,NA
ff53f,check continue,flow.Sequence,5_0_24,NA,NA,skipped,NA,1102825.5999994,NA,NA,1102465.3999996,1102825.5999994,2024-04-06T08:12:44Z,1102939.9,NULL,NA,NA,NA,NA,NA,NA,NA,NA,NA,24,NA,NA,NA,NA,NA,NA,NA,NA,NA,NA,NA,NA,NA,NA,NA,NA,NA,NA,NA
ff53f,check continue,flow.Sequence,5_0_25,NA,NA,skipped,NA,1102839.6999998,NA,NA,1102465.3999996,1102839.6999998,2024-04-06T08:12:44Z,1102939.9,NULL,NA,NA,NA,NA,NA,NA,NA,NA,NA,25,NA,NA,NA,NA,NA,NA,NA,NA,NA,NA,NA,NA,NA,NA,NA,NA,NA,NA,NA
ff53f,check continue,flow.Sequence,5_0_26,NA,NA,skipped,NA,1102850.0999994,NA,NA,1102465.3999996,1102850.0999994,2024-04-06T08:12:44Z,1102939.9,NULL,NA,NA,NA,NA,NA,NA,NA,NA,NA,26,NA,NA,NA,NA,NA,NA,NA,NA,NA,NA,NA,NA,NA,NA,NA,NA,NA,NA,NA
ff53f,check continue,flow.Sequence,5_0_27,NA,NA,skipped,NA,1102870,NA,NA,1102465.3999996,1102870.1999998,2024-04-06T08:12:44Z,1102939.9,NULL,NA,NA,NA,NA,NA,NA,NA,NA,NA,27,NA,NA,NA,NA,NA,NA,NA,NA,NA,NA,NA,NA,NA,NA,NA,NA,NA,NA,NA
ff53f,check continue,flow.Sequence,5_0_28,NA,NA,skipped,NA,1102887.2999992,NA,NA,1102465.3999996,1102887.2999992,2024-04-06T08:12:44Z,1102939.9,NULL,NA,NA,NA,NA,NA,NA,NA,NA,NA,28,NA,NA,NA,NA,NA,NA,NA,NA,NA,NA,NA,NA,NA,NA,NA,NA,NA,NA,NA
ff53f,check continue,flow.Sequence,5_0_29,NA,NA,skipped,NA,1102923.5999994,NA,NA,1102465.3999996,1102923.6999998,2024-04-06T08:12:44Z,1102939.9,NULL,NA,NA,NA,NA,NA,NA,NA,NA,NA,29,NA,NA,NA,NA,NA,NA,NA,NA,NA,NA,NA,NA,NA,NA,NA,NA,NA,NA,NA
ff53f,until continue,flow.Loop,5_0,NA,NA,completion,322052.09999962,780390.39999962,780402.298,780413.3,1102465.3999996,1102923.7999992,2024-04-06T08:12:44Z,1102939.9,NULL,NA,NA,NA,NA,NA,NA,NA,NA,NA,NA,NA,NA,NA,NA,NA,NA,NA,NA,NA,NA,NA,NA,NA,NA,NA,NA,NA,NA,NA
ff53f,block 2,flow.Sequence,5,NA,NA,completion,322052.09999962,780390.39999962,780402.298,780413.3,1102465.3999996,1102923.8999996,2024-04-06T08:12:44Z,1102939.9,NULL,NA,NA,NA,NA,NA,NA,NA,NA,NA,NA,NA,NA,NA,NA,NA,NA,NA,NA,NA,NA,NA,NA,NA,NA,NA,NA,NA,NA,NA
ff53f,2.Part Over,canvas.Screen,6,NA,keypress(Space),response,2090.9999996186,1102923.8999996,1102913.2,1102939.9,1105030.8999996,1105031.8999996,2024-04-06T08:12:46Z,1105113.2,NULL,NA,NA,NA,NA,NA,NA,NA,NA,NA,NA,NA,NA,NA,NA,NA,NA,NA,NA,NA,NA,NA,NA,NA,NA,NA,NA,NA,NA,NA
ff53f,Deep Question,html.Page,7_0_0_0_0_0_0,NA,NA,form submission,6371.8,1105096.6999998,1105089.814,1105113.2,1111485,1111485.1999998,2024-04-06T08:12:53Z,1111496.4,NULL,Erneuerung,ukarabati,d,NA,NA,NA,bahe,NA,NA,0,NA,NA,NA,NA,NA,NA,NA,NA,NA,NA,NA,NA,NA,NA,NA,NA,NA,NA,NA
ff53f,"""Richtig""-Screen",canvas.Screen,7_0_0_0_0_0_1,NA,NA,skipped,NA,1111486.8999996,NA,NA,1111485,1111487.0999994,2024-04-06T08:12:53Z,1111496.4,NULL,Erneuerung,ukarabati,d,NA,NA,NA,NA,sdf,NA,0,NA,NA,NA,NA,NA,NA,NA,NA,NA,NA,NA,NA,NA,NA,NA,NA,NA,NA,NA
ff53f,"""Falsch""-Screen",canvas.Screen,7_0_0_0_0_0_2,NA,NA,timeout,5000.1000000001,1111487.5999994,1111479.758,1111496.4,1116479.8,1116480.5,2024-04-06T08:12:58Z,1116496.5,NULL,Erneuerung,ukarabati,d,NA,NA,NA,NA,sdf,0,0,NA,NA,NA,NA,NA,NA,NA,NA,NA,NA,NA,NA,NA,NA,NA,NA,NA,NA,NA
ff53f,deep,flow.Sequence,7_0_0_0_0_0,NA,NA,completion,11366.6,1105096.6999998,1105089.814,1105113.2,1116479.8,1116480.6999998,2024-04-06T08:12:58Z,1116496.5,NULL,Erneuerung,ukarabati,d,NA,NA,NA,NA,sdf,NA,0,NA,NA,NA,NA,NA,NA,NA,NA,NA,NA,NA,NA,NA,NA,NA,NA,NA,NA,NA
ff53f,shallow,flow.Sequence,7_0_0_0_0_1,NA,NA,skipped,NA,1116480.7999992,NA,NA,1116479.8,1116481,2024-04-06T08:12:58Z,1116496.5,NULL,Erneuerung,ukarabati,d,NA,NA,NA,NA,sdf,NA,0,NA,NA,NA,NA,NA,NA,NA,NA,NA,NA,NA,NA,NA,NA,NA,NA,NA,NA,NA
ff53f,task,flow.Sequence,7_0_0_0_0,NA,NA,completion,11366.6,1105096.6999998,1105089.814,1105113.2,1116479.8,1116481.0999994,2024-04-06T08:12:58Z,1116496.5,NULL,Erneuerung,ukarabati,d,NA,NA,NA,NA,sdf,NA,0,NA,NA,NA,NA,NA,NA,NA,NA,NA,NA,NA,NA,NA,NA,NA,NA,NA,NA,NA
ff53f,deep,flow.Sequence,7_0_0_0_1_0,NA,NA,skipped,NA,1116481.2999992,NA,NA,1116479.8,1116481.3999996,2024-04-06T08:12:58Z,1116496.5,NULL,Schock,mshtuko,s,biashara,kukataza,vichekesho,NA,sdf,NA,0,NA,NA,NA,NA,NA,NA,NA,NA,NA,NA,NA,NA,NA,NA,NA,NA,NA,NA,NA
ff53f,Shallow Question,html.Page,7_0_0_0_1_1_0,NA,NA,form submission,3590.3999996185,1116481.3999996,1116479.8,1116496.5,1120086.8999996,1120087.1999998,2024-04-06T08:13:01Z,1120096.3,NULL,Schock,mshtuko,s,biashara,kukataza,vichekesho,biashara,NA,NA,0,NA,NA,NA,NA,NA,NA,NA,NA,NA,NA,NA,NA,NA,NA,NA,NA,NA,NA,NA
ff53f,"""Richtig""-Screen",canvas.Screen,7_0_0_0_1_1_1,NA,NA,skipped,NA,1120089.0999994,NA,NA,1120086.8999996,1120089.1999998,2024-04-06T08:13:01Z,1120096.3,NULL,Schock,mshtuko,s,biashara,kukataza,vichekesho,NA,sdf,NA,0,NA,NA,NA,NA,NA,NA,NA,NA,NA,NA,NA,NA,NA,NA,NA,NA,NA,NA,NA
ff53f,"""Falsch""-Screen",canvas.Screen,7_0_0_0_1_1_2,NA,NA,timeout,5000.2,1120089.7999992,1120079.954,1120096.3,1125079.9,1125080.5999994,2024-04-06T08:13:06Z,1125096.5,NULL,Schock,mshtuko,s,biashara,kukataza,vichekesho,NA,sdf,0,0,NA,NA,NA,NA,NA,NA,NA,NA,NA,NA,NA,NA,NA,NA,NA,NA,NA,NA,NA
ff53f,shallow,flow.Sequence,7_0_0_0_1_1,NA,NA,completion,8583.3999999999,1116481.3999996,1116479.8,1116496.5,1125079.9,1125081,2024-04-06T08:13:06Z,1125096.5,NULL,Schock,mshtuko,s,biashara,kukataza,vichekesho,NA,sdf,NA,0,NA,NA,NA,NA,NA,NA,NA,NA,NA,NA,NA,NA,NA,NA,NA,NA,NA,NA,NA
ff53f,task,flow.Sequence,7_0_0_0_1,NA,NA,completion,8583.3999999999,1116481.1999998,1116479.8,1116496.5,1125079.9,1125081.0999994,2024-04-06T08:13:06Z,1125096.5,NULL,Schock,mshtuko,s,biashara,kukataza,vichekesho,NA,sdf,NA,0,NA,NA,NA,NA,NA,NA,NA,NA,NA,NA,NA,NA,NA,NA,NA,NA,NA,NA,NA
ff53f,Deep Question,html.Page,7_0_0_0_2_0_0,NA,NA,form submission,3237.5,1125081.3999996,1125079.9,1125096.5,1128334,1128334.1999998,2024-04-06T08:13:10Z,1128363.2,NULL,Wechsel,ugeuzaji,d,NA,NA,NA,gegd,NA,NA,0,NA,NA,NA,NA,NA,NA,NA,NA,NA,NA,NA,NA,NA,NA,NA,NA,NA,NA,NA
ff53f,"""Richtig""-Screen",canvas.Screen,7_0_0_0_2_0_1,NA,NA,skipped,NA,1128336,NA,NA,1128334,1128336.2999992,2024-04-06T08:13:10Z,1128363.2,NULL,Wechsel,ugeuzaji,d,NA,NA,NA,NA,sdf,NA,0,NA,NA,NA,NA,NA,NA,NA,NA,NA,NA,NA,NA,NA,NA,NA,NA,NA,NA,NA
ff53f,"""Falsch""-Screen",canvas.Screen,7_0_0_0_2_0_2,NA,NA,timeout,5000,1128336.6999998,1128346.5,1128363.2,1133346.4,1133347.1999998,2024-04-06T08:13:15Z,1133363.2,NULL,Wechsel,ugeuzaji,d,NA,NA,NA,NA,sdf,0,0,NA,NA,NA,NA,NA,NA,NA,NA,NA,NA,NA,NA,NA,NA,NA,NA,NA,NA,NA
ff53f,deep,flow.Sequence,7_0_0_0_2_0,NA,NA,completion,8249.8999999999,1125081.2999992,1125079.9,1125096.5,1133346.4,1133347.5999994,2024-04-06T08:13:15Z,1133363.2,NULL,Wechsel,ugeuzaji,d,NA,NA,NA,NA,sdf,NA,0,NA,NA,NA,NA,NA,NA,NA,NA,NA,NA,NA,NA,NA,NA,NA,NA,NA,NA,NA
ff53f,shallow,flow.Sequence,7_0_0_0_2_1,NA,NA,skipped,NA,1133347.7999992,NA,NA,1133346.4,1133347.7999992,2024-04-06T08:13:15Z,1133363.2,NULL,Wechsel,ugeuzaji,d,NA,NA,NA,NA,sdf,NA,0,NA,NA,NA,NA,NA,NA,NA,NA,NA,NA,NA,NA,NA,NA,NA,NA,NA,NA,NA
