observation,sender,sender_type,sender_id,response,response_action,ended_on,duration,time_run,time_render,time_show,time_end,time_commit,timestamp,time_switch,distractors,german,swahili,enc,distractor1,distractor2,distractor3,response_2,x,correct,x_2,url_vp,url_sess,meta_labjs_version,meta_location,meta_user_agent,meta_platform,meta_language,meta_locale,meta_time_zone,meta_timezone_offset,meta_screen_width,meta_screen_height,meta_scroll_width,meta_scroll_height,meta_window_inner_width,meta_window_inner_height,meta_device_pixel_ratio,meta_labjs_build_flavor,meta_labjs_build_commit
4a463,Introduction general,canvas.Screen,0,weiter,keypress(q),response,993884.396,296.90000000037,138.044,304.704,994189.1,994198.6,2023-03-09T12:30:19Z,994199.272,NULL,NA,NA,NA,NA,NA,NA,NA,NA,NA,NA,113,3,20.2.4,https://neurocog.fernuni.ch/studies/vweber/encoding_immediate/index.html?vp=113&sess=3,"Mozilla/5.0 (Macintosh; Intel Mac OS X 10_15_7) AppleWebKit/537.36 (KHTML, like Gecko) Chrome/110.0.0.0 Safari/537.36",MacIntel,de-DE,de,Europe/Zurich,-60,1440,900,1426,692,1426,740,2,production,f5b4a49f956347addd546a832a3327688c2c0fef
4a463,Introduction practice,canvas.Screen,1_0,NA,keypress(Space),response,582.52800000075,994198.9,994182.606,994199.272,994781.8,994790.2,2023-03-09T12:30:20Z,994799.825,NULL,NA,NA,NA,NA,NA,NA,NA,NA,NA,NA,NA,NA,NA,NA,NA,NA,NA,NA,NA,NA,NA,NA,NA,NA,NA,NA,NA,NA,NA
4a463,Deep Question,html.Page,1_1_0_0_0,NA,NA,form submission,2175.9750000008,994790.4,994783.159,994799.825,996975.8,996976.2,2023-03-09T12:30:22Z,996983.071,"c(""distractor1"", ""distractor2"", ""distractor3"")",Schatten,kivuli,d,NA,NA,NA,sdf,NA,NA,NA,NA,NA,NA,NA,NA,NA,NA,NA,NA,NA,NA,NA,NA,NA,NA,NA,NA,NA,NA
4a463,"""Richtig""-Screen",canvas.Screen,1_1_0_0_1,NA,NA,skipped,NA,996978.3,NA,NA,996975.8,996978.5,2023-03-09T12:30:22Z,996983.071,"c(""distractor1"", ""distractor2"", ""distractor3"")",Schatten,kivuli,d,NA,NA,NA,NA,NA,NA,NA,NA,NA,NA,NA,NA,NA,NA,NA,NA,NA,NA,NA,NA,NA,NA,NA,NA,NA,NA
4a463,"""Falsch""-Screen",canvas.Screen,1_1_0_0_2,NA,NA,timeout,4999.8,996979.6,996966.405,996983.071,1001966.205,1001970.4,2023-03-09T12:30:27Z,1001982.871,"c(""distractor1"", ""distractor2"", ""distractor3"")",Schatten,kivuli,d,NA,NA,NA,NA,NA,0,NA,NA,NA,NA,NA,NA,NA,NA,NA,NA,NA,NA,NA,NA,NA,NA,NA,NA,NA,NA
4a463,deep,flow.Sequence,1_1_0_0,NA,NA,completion,7166.38,994790.4,994783.159,994799.825,1001966.205,1001971,2023-03-09T12:30:27Z,1001982.871,"c(""distractor1"", ""distractor2"", ""distractor3"")",Schatten,kivuli,d,NA,NA,NA,NA,NA,NA,NA,NA,NA,NA,NA,NA,NA,NA,NA,NA,NA,NA,NA,NA,NA,NA,NA,NA,NA,NA
4a463,shallow,flow.Sequence,1_1_0_1,NA,NA,skipped,NA,1001971,NA,NA,1001966.205,1001971.1,2023-03-09T12:30:27Z,1001982.871,"c(""distractor1"", ""distractor2"", ""distractor3"")",Schatten,kivuli,d,NA,NA,NA,NA,NA,NA,NA,NA,NA,NA,NA,NA,NA,NA,NA,NA,NA,NA,NA,NA,NA,NA,NA,NA,NA,NA
4a463,task,flow.Sequence,1_1_0,NA,NA,completion,7166.38,994790.4,994783.159,994799.825,1001966.205,1001971.4,2023-03-09T12:30:27Z,1001982.871,"c(""distractor1"", ""distractor2"", ""distractor3"")",Schatten,kivuli,d,NA,NA,NA,NA,NA,NA,NA,NA,NA,NA,NA,NA,NA,NA,NA,NA,NA,NA,NA,NA,NA,NA,NA,NA,NA,NA
4a463,deep,flow.Sequence,1_1_1_0,NA,NA,skipped,NA,1001971.5,NA,NA,1001966.205,1001971.6,2023-03-09T12:30:27Z,1001982.871,"c(""distractor1"", ""distractor2"", ""distractor3"")",Gegenwart,hadhara,s,katiba,jokofu,mikopo,NA,NA,NA,NA,NA,NA,NA,NA,NA,NA,NA,NA,NA,NA,NA,NA,NA,NA,NA,NA,NA,NA,NA
4a463,Shallow Question,html.Page,1_1_1_1_0,NA,NA,form submission,1254.629,1001971.8,1001966.205,1001982.871,1003237.5,1003238.1,2023-03-09T12:30:28Z,1003249.487,"c(""distractor1"", ""distractor2"", ""distractor3"")",Gegenwart,hadhara,s,katiba,jokofu,mikopo,katiba,NA,NA,NA,NA,NA,NA,NA,NA,NA,NA,NA,NA,NA,NA,NA,NA,NA,NA,NA,NA,NA,NA
4a463,"""Richtig""-Screen",canvas.Screen,1_1_1_1_1,NA,NA,skipped,NA,1003239.8,NA,NA,1003237.5,1003239.9,2023-03-09T12:30:28Z,1003249.487,"c(""distractor1"", ""distractor2"", ""distractor3"")",Gegenwart,hadhara,s,katiba,jokofu,mikopo,NA,NA,NA,NA,NA,NA,NA,NA,NA,NA,NA,NA,NA,NA,NA,NA,NA,NA,NA,NA,NA,NA,NA
4a463,"""Falsch""-Screen",canvas.Screen,1_1_1_1_2,NA,NA,timeout,4999.8,1003240.7,1003232.821,1003249.487,1008232.621,1008234.9,2023-03-09T12:30:33Z,1008249.287,"c(""distractor1"", ""distractor2"", ""distractor3"")",Gegenwart,hadhara,s,katiba,jokofu,mikopo,NA,NA,0,NA,NA,NA,NA,NA,NA,NA,NA,NA,NA,NA,NA,NA,NA,NA,NA,NA,NA,NA,NA
4a463,shallow,flow.Sequence,1_1_1_1,NA,NA,completion,6249.75,1001971.8,1001966.205,1001982.871,1008232.621,1008235.3,2023-03-09T12:30:33Z,1008249.287,"c(""distractor1"", ""distractor2"", ""distractor3"")",Gegenwart,hadhara,s,katiba,jokofu,mikopo,NA,NA,NA,NA,NA,NA,NA,NA,NA,NA,NA,NA,NA,NA,NA,NA,NA,NA,NA,NA,NA,NA,NA
4a463,task,flow.Sequence,1_1_1,NA,NA,completion,6249.75,1001971.4,1001966.205,1001982.871,1008232.621,1008235.7,2023-03-09T12:30:33Z,1008249.287,"c(""distractor1"", ""distractor2"", ""distractor3"")",Gegenwart,hadhara,s,katiba,jokofu,mikopo,NA,NA,NA,NA,NA,NA,NA,NA,NA,NA,NA,NA,NA,NA,NA,NA,NA,NA,NA,NA,NA,NA,NA
4a463,Deep Question,html.Page,1_1_2_0_0,NA,NA,form submission,1542.3129999996,1008236.1,1008232.621,1008249.287,1009791.6,1009792.3,2023-03-09T12:30:35Z,1009799.841,"c(""distractor1"", ""distractor2"", ""distractor3"")",Gesundheit,salama,d,NA,NA,NA,asdf,NA,NA,NA,NA,NA,NA,NA,NA,NA,NA,NA,NA,NA,NA,NA,NA,NA,NA,NA,NA,NA,NA
4a463,"""Richtig""-Screen",canvas.Screen,1_1_2_0_1,NA,NA,skipped,NA,1009795.2,NA,NA,1009791.6,1009795.3,2023-03-09T12:30:35Z,1009799.841,"c(""distractor1"", ""distractor2"", ""distractor3"")",Gesundheit,salama,d,NA,NA,NA,NA,NA,NA,NA,NA,NA,NA,NA,NA,NA,NA,NA,NA,NA,NA,NA,NA,NA,NA,NA,NA,NA,NA
4a463,"""Falsch""-Screen",canvas.Screen,1_1_2_0_2,NA,NA,timeout,4999.7999999999,1009796.3,1009783.175,1009799.841,1014782.975,1014785.7,2023-03-09T12:30:40Z,1014799.641,"c(""distractor1"", ""distractor2"", ""distractor3"")",Gesundheit,salama,d,NA,NA,NA,NA,NA,0,NA,NA,NA,NA,NA,NA,NA,NA,NA,NA,NA,NA,NA,NA,NA,NA,NA,NA,NA,NA
4a463,deep,flow.Sequence,1_1_2_0,NA,NA,completion,6533.688,1008236,1008232.621,1008249.287,1014782.975,1014786.1,2023-03-09T12:30:40Z,1014799.641,"c(""distractor1"", ""distractor2"", ""distractor3"")",Gesundheit,salama,d,NA,NA,NA,NA,NA,NA,NA,NA,NA,NA,NA,NA,NA,NA,NA,NA,NA,NA,NA,NA,NA,NA,NA,NA,NA,NA
4a463,shallow,flow.Sequence,1_1_2_1,NA,NA,skipped,NA,1014786.3,NA,NA,1014782.975,1014786.4,2023-03-09T12:30:40Z,1014799.641,"c(""distractor1"", ""distractor2"", ""distractor3"")",Gesundheit,salama,d,NA,NA,NA,NA,NA,NA,NA,NA,NA,NA,NA,NA,NA,NA,NA,NA,NA,NA,NA,NA,NA,NA,NA,NA,NA,NA
4a463,task,flow.Sequence,1_1_2,NA,NA,completion,6533.688,1008235.8,1008232.621,1008249.287,1014782.975,1014786.6,2023-03-09T12:30:40Z,1014799.641,"c(""distractor1"", ""distractor2"", ""distractor3"")",Gesundheit,salama,d,NA,NA,NA,NA,NA,NA,NA,NA,NA,NA,NA,NA,NA,NA,NA,NA,NA,NA,NA,NA,NA,NA,NA,NA,NA,NA
4a463,Deep Question,html.Page,1_1_3_0_0,NA,NA,form submission,1546.6590000008,1014786.9,1014782.975,1014799.641,1016346.3,1016346.8,2023-03-09T12:30:41Z,1016349.579,"c(""distractor1"", ""distractor2"", ""distractor3"")",Qualität,mtindo,d,NA,NA,NA,sdf,NA,NA,NA,NA,NA,NA,NA,NA,NA,NA,NA,NA,NA,NA,NA,NA,NA,NA,NA,NA,NA,NA
4a463,"""Richtig""-Screen",canvas.Screen,1_1_3_0_1,NA,NA,skipped,NA,1016349.7,NA,NA,1016346.3,1016349.8,2023-03-09T12:30:41Z,1016349.579,"c(""distractor1"", ""distractor2"", ""distractor3"")",Qualität,mtindo,d,NA,NA,NA,NA,NA,NA,NA,NA,NA,NA,NA,NA,NA,NA,NA,NA,NA,NA,NA,NA,NA,NA,NA,NA,NA,NA
4a463,"""Falsch""-Screen",canvas.Screen,1_1_3_0_2,NA,NA,timeout,4999.7999999999,1016350.3,1016332.913,1016349.579,1021332.713,1021334.7,2023-03-09T12:30:46Z,1021349.379,"c(""distractor1"", ""distractor2"", ""distractor3"")",Qualität,mtindo,d,NA,NA,NA,NA,NA,0,NA,NA,NA,NA,NA,NA,NA,NA,NA,NA,NA,NA,NA,NA,NA,NA,NA,NA,NA,NA
4a463,deep,flow.Sequence,1_1_3_0,NA,NA,completion,6533.072,1014786.8,1014782.975,1014799.641,1021332.713,1021335,2023-03-09T12:30:46Z,1021349.379,"c(""distractor1"", ""distractor2"", ""distractor3"")",Qualität,mtindo,d,NA,NA,NA,NA,NA,NA,NA,NA,NA,NA,NA,NA,NA,NA,NA,NA,NA,NA,NA,NA,NA,NA,NA,NA,NA,NA
4a463,shallow,flow.Sequence,1_1_3_1,NA,NA,skipped,NA,1021335.2,NA,NA,1021332.713,1021335.4,2023-03-09T12:30:46Z,1021349.379,"c(""distractor1"", ""distractor2"", ""distractor3"")",Qualität,mtindo,d,NA,NA,NA,NA,NA,NA,NA,NA,NA,NA,NA,NA,NA,NA,NA,NA,NA,NA,NA,NA,NA,NA,NA,NA,NA,NA
4a463,task,flow.Sequence,1_1_3,NA,NA,completion,6533.072,1014786.8,1014782.975,1014799.641,1021332.713,1021335.5,2023-03-09T12:30:46Z,1021349.379,"c(""distractor1"", ""distractor2"", ""distractor3"")",Qualität,mtindo,d,NA,NA,NA,NA,NA,NA,NA,NA,NA,NA,NA,NA,NA,NA,NA,NA,NA,NA,NA,NA,NA,NA,NA,NA,NA,NA
4a463,deep,flow.Sequence,1_1_4_0,NA,NA,skipped,NA,1021335.7,NA,NA,1021332.713,1021335.8,2023-03-09T12:30:46Z,1021349.379,"c(""distractor1"", ""distractor2"", ""distractor3"")",Rückhalt,msaada,s,muhula,auwali,kiwimbe,NA,NA,NA,NA,NA,NA,NA,NA,NA,NA,NA,NA,NA,NA,NA,NA,NA,NA,NA,NA,NA,NA,NA
4a463,Shallow Question,html.Page,1_1_4_1_0,NA,NA,form submission,1576.7209999997,1021335.9,1021332.713,1021349.379,1022926.1,1022926.6,2023-03-09T12:30:48Z,1022933.311,"c(""distractor1"", ""distractor2"", ""distractor3"")",Rückhalt,msaada,s,muhula,auwali,kiwimbe,kiwimbe,NA,NA,NA,NA,NA,NA,NA,NA,NA,NA,NA,NA,NA,NA,NA,NA,NA,NA,NA,NA,NA,NA
4a463,"""Richtig""-Screen",canvas.Screen,1_1_4_1_1,NA,NA,skipped,NA,1022929.1,NA,NA,1022926.1,1022929.2,2023-03-09T12:30:48Z,1022933.311,"c(""distractor1"", ""distractor2"", ""distractor3"")",Rückhalt,msaada,s,muhula,auwali,kiwimbe,NA,NA,NA,NA,NA,NA,NA,NA,NA,NA,NA,NA,NA,NA,NA,NA,NA,NA,NA,NA,NA,NA,NA
4a463,"""Falsch""-Screen",canvas.Screen,1_1_4_1_2,NA,NA,timeout,4999.8,1022929.8,1022916.645,1022933.311,1027916.445,1027917.7,2023-03-09T12:30:53Z,1027933.111,"c(""distractor1"", ""distractor2"", ""distractor3"")",Rückhalt,msaada,s,muhula,auwali,kiwimbe,NA,NA,0,NA,NA,NA,NA,NA,NA,NA,NA,NA,NA,NA,NA,NA,NA,NA,NA,NA,NA,NA,NA
4a463,shallow,flow.Sequence,1_1_4_1,NA,NA,completion,6567.066,1021335.9,1021332.713,1021349.379,1027916.445,1027918.1,2023-03-09T12:30:53Z,1027933.111,"c(""distractor1"", ""distractor2"", ""distractor3"")",Rückhalt,msaada,s,muhula,auwali,kiwimbe,NA,NA,NA,NA,NA,NA,NA,NA,NA,NA,NA,NA,NA,NA,NA,NA,NA,NA,NA,NA,NA,NA,NA
4a463,task,flow.Sequence,1_1_4,NA,NA,completion,6567.066,1021335.6,1021332.713,1021349.379,1027916.445,1027918.3,2023-03-09T12:30:53Z,1027933.111,"c(""distractor1"", ""distractor2"", ""distractor3"")",Rückhalt,msaada,s,muhula,auwali,kiwimbe,NA,NA,NA,NA,NA,NA,NA,NA,NA,NA,NA,NA,NA,NA,NA,NA,NA,NA,NA,NA,NA,NA,NA
4a463,deep,flow.Sequence,1_1_5_0,NA,NA,skipped,NA,1027918.6,NA,NA,1027916.445,1027918.7,2023-03-09T12:30:53Z,1027933.111,"c(""distractor1"", ""distractor2"", ""distractor3"")",Kritik,lawama,s,dereva,nafasi,mawazo,NA,NA,NA,NA,NA,NA,NA,NA,NA,NA,NA,NA,NA,NA,NA,NA,NA,NA,NA,NA,NA,NA,NA
4a463,Shallow Question,html.Page,1_1_5_1_0,NA,NA,form submission,3231.4889999996,1027918.8,1027916.445,1027933.111,1031164.6,1031165.1,2023-03-09T12:30:56Z,1031166.315,"c(""distractor1"", ""distractor2"", ""distractor3"")",Kritik,lawama,s,dereva,nafasi,mawazo,lawama,NA,NA,NA,NA,NA,NA,NA,NA,NA,NA,NA,NA,NA,NA,NA,NA,NA,NA,NA,NA,NA,NA
4a463,"""Richtig""-Screen",canvas.Screen,1_1_5_1_1,NA,NA,timeout,4999.8,1031169.2,1031149.649,1031166.315,1036149.449,1036152,2023-03-09T12:31:01Z,1036166.115,"c(""distractor1"", ""distractor2"", ""distractor3"")",Kritik,lawama,s,dereva,nafasi,mawazo,NA,NA,1,NA,NA,NA,NA,NA,NA,NA,NA,NA,NA,NA,NA,NA,NA,NA,NA,NA,NA,NA,NA
4a463,"""Falsch""-Screen",canvas.Screen,1_1_5_1_2,NA,NA,skipped,NA,1036156.2,NA,NA,1036149.449,1036156.4,2023-03-09T12:31:01Z,1036166.115,"c(""distractor1"", ""distractor2"", ""distractor3"")",Kritik,lawama,s,dereva,nafasi,mawazo,NA,NA,NA,NA,NA,NA,NA,NA,NA,NA,NA,NA,NA,NA,NA,NA,NA,NA,NA,NA,NA,NA,NA
4a463,shallow,flow.Sequence,1_1_5_1,NA,NA,completion,8216.338,1027918.8,1027916.445,1027933.111,1036149.449,1036156.6,2023-03-09T12:31:01Z,1036166.115,"c(""distractor1"", ""distractor2"", ""distractor3"")",Kritik,lawama,s,dereva,nafasi,mawazo,NA,NA,NA,NA,NA,NA,NA,NA,NA,NA,NA,NA,NA,NA,NA,NA,NA,NA,NA,NA,NA,NA,NA
4a463,task,flow.Sequence,1_1_5,NA,NA,completion,8216.338,1027918.5,1027916.445,1027933.111,1036149.449,1036156.8,2023-03-09T12:31:01Z,1036166.115,"c(""distractor1"", ""distractor2"", ""distractor3"")",Kritik,lawama,s,dereva,nafasi,mawazo,NA,NA,NA,NA,NA,NA,NA,NA,NA,NA,NA,NA,NA,NA,NA,NA,NA,NA,NA,NA,NA,NA,NA
4a463,block,flow.Loop,1_1,NA,NA,completion,41349.624,994790.4,994783.159,994799.825,1036149.449,1036156.9,2023-03-09T12:31:01Z,1036166.115,"c(""distractor1"", ""distractor2"", ""distractor3"")",NA,NA,NA,NA,NA,NA,NA,NA,NA,NA,NA,NA,NA,NA,NA,NA,NA,NA,NA,NA,NA,NA,NA,NA,NA,NA,NA,NA,NA
4a463,Practice,flow.Sequence,1,NA,NA,completion,41950.177,994198.9,994182.606,994199.272,1036149.449,1036157.2,2023-03-09T12:31:01Z,1036166.115,NULL,NA,NA,NA,NA,NA,NA,NA,NA,NA,NA,NA,NA,NA,NA,NA,NA,NA,NA,NA,NA,NA,NA,NA,NA,NA,NA,NA,NA,NA
4a463,Experiment start,canvas.Screen,2,weiter,keypress(q),response,146464.085,1036157.3,1036149.449,1036166.115,1182630.2,1182633.6,2023-03-09T12:33:27Z,1182701.11,NULL,NA,NA,NA,NA,NA,NA,NA,NA,NA,NA,NA,NA,NA,NA,NA,NA,NA,NA,NA,NA,NA,NA,NA,NA,NA,NA,NA,NA,NA
4a463,Deep Question,html.Page,3_0_0_0_0_0_0,NA,NA,form submission,3822.2900000003,1182692.9,1182684.444,1182701.11,1186523.4,1186524,2023-03-09T12:33:31Z,1186534.984,NULL,Ergänzung,kijalizo,d,NA,NA,NA,f,NA,NA,0,NA,NA,NA,NA,NA,NA,NA,NA,NA,NA,NA,NA,NA,NA,NA,NA,NA,NA,NA
4a463,"""Richtig""-Screen",canvas.Screen,3_0_0_0_0_0_1,NA,NA,skipped,NA,1186527.3,NA,NA,1186523.4,1186527.4,2023-03-09T12:33:31Z,1186534.984,NULL,Ergänzung,kijalizo,d,NA,NA,NA,NA,sdf,NA,0,NA,NA,NA,NA,NA,NA,NA,NA,NA,NA,NA,NA,NA,NA,NA,NA,NA,NA,NA
4a463,"""Falsch""-Screen",canvas.Screen,3_0_0_0_0_0_2,NA,NA,timeout,4999.8,1186528,1186518.318,1186534.984,1191518.118,1191520.3,2023-03-09T12:33:36Z,1191534.784,NULL,Ergänzung,kijalizo,d,NA,NA,NA,NA,sdf,0,0,NA,NA,NA,NA,NA,NA,NA,NA,NA,NA,NA,NA,NA,NA,NA,NA,NA,NA,NA
4a463,deep,flow.Sequence,3_0_0_0_0_0,NA,NA,completion,8817.0079999999,1182692.9,1182684.444,1182701.11,1191518.118,1191520.7,2023-03-09T12:33:36Z,1191534.784,NULL,Ergänzung,kijalizo,d,NA,NA,NA,NA,sdf,NA,0,NA,NA,NA,NA,NA,NA,NA,NA,NA,NA,NA,NA,NA,NA,NA,NA,NA,NA,NA
4a463,shallow,flow.Sequence,3_0_0_0_0_1,NA,NA,skipped,NA,1191520.8,NA,NA,1191518.118,1191521,2023-03-09T12:33:36Z,1191534.784,NULL,Ergänzung,kijalizo,d,NA,NA,NA,NA,sdf,NA,0,NA,NA,NA,NA,NA,NA,NA,NA,NA,NA,NA,NA,NA,NA,NA,NA,NA,NA,NA
4a463,task,flow.Sequence,3_0_0_0_0,NA,NA,completion,8817.0079999999,1182692.9,1182684.444,1182701.11,1191518.118,1191521.1,2023-03-09T12:33:36Z,1191534.784,NULL,Ergänzung,kijalizo,d,NA,NA,NA,NA,sdf,NA,0,NA,NA,NA,NA,NA,NA,NA,NA,NA,NA,NA,NA,NA,NA,NA,NA,NA,NA,NA
4a463,deep,flow.Sequence,3_0_0_0_1_0,NA,NA,skipped,NA,1191521.3,NA,NA,1191518.118,1191521.4,2023-03-09T12:33:36Z,1191534.784,NULL,Ausschluss,kutengwa,s,ununuzi,taratibu,madeni,NA,sdf,NA,0,NA,NA,NA,NA,NA,NA,NA,NA,NA,NA,NA,NA,NA,NA,NA,NA,NA,NA,NA
4a463,Shallow Question,html.Page,3_0_0_0_1_1_0,NA,NA,form submission,5738.5160000008,1191521.5,1191518.118,1191534.784,1197273.3,1197273.9,2023-03-09T12:33:42Z,1197285.302,NULL,Ausschluss,kutengwa,s,ununuzi,taratibu,madeni,ununuzi,NA,NA,0,NA,NA,NA,NA,NA,NA,NA,NA,NA,NA,NA,NA,NA,NA,NA,NA,NA,NA,NA
4a463,"""Richtig""-Screen",canvas.Screen,3_0_0_0_1_1_1,NA,NA,skipped,NA,1197276.9,NA,NA,1197273.3,1197276.9,2023-03-09T12:33:42Z,1197285.302,NULL,Ausschluss,kutengwa,s,ununuzi,taratibu,madeni,NA,sdf,NA,0,NA,NA,NA,NA,NA,NA,NA,NA,NA,NA,NA,NA,NA,NA,NA,NA,NA,NA,NA
4a463,"""Falsch""-Screen",canvas.Screen,3_0_0_0_1_1_2,NA,NA,timeout,4999.8,1197277.5,1197268.636,1197285.302,1202268.436,1202270.3,2023-03-09T12:33:47Z,1202285.102,NULL,Ausschluss,kutengwa,s,ununuzi,taratibu,madeni,NA,sdf,0,0,NA,NA,NA,NA,NA,NA,NA,NA,NA,NA,NA,NA,NA,NA,NA,NA,NA,NA,NA
4a463,shallow,flow.Sequence,3_0_0_0_1_1,NA,NA,completion,10733.652,1191521.5,1191518.118,1191534.784,1202268.436,1202270.8,2023-03-09T12:33:47Z,1202285.102,NULL,Ausschluss,kutengwa,s,ununuzi,taratibu,madeni,NA,sdf,NA,0,NA,NA,NA,NA,NA,NA,NA,NA,NA,NA,NA,NA,NA,NA,NA,NA,NA,NA,NA
4a463,task,flow.Sequence,3_0_0_0_1,NA,NA,completion,10733.652,1191521.3,1191518.118,1191534.784,1202268.436,1202271,2023-03-09T12:33:47Z,1202285.102,NULL,Ausschluss,kutengwa,s,ununuzi,taratibu,madeni,NA,sdf,NA,0,NA,NA,NA,NA,NA,NA,NA,NA,NA,NA,NA,NA,NA,NA,NA,NA,NA,NA,NA
4a463,deep,flow.Sequence,3_0_0_0_2_0,NA,NA,skipped,NA,1202271.2,NA,NA,1202268.436,1202271.3,2023-03-09T12:33:47Z,1202285.102,NULL,Notfall,dharura,s,rairai,malalamiko,ahueni,NA,sdf,NA,0,NA,NA,NA,NA,NA,NA,NA,NA,NA,NA,NA,NA,NA,NA,NA,NA,NA,NA,NA
4a463,Shallow Question,html.Page,3_0_0_0_2_1_0,NA,NA,form submission,3372.4979999997,1202271.5,1202268.436,1202285.102,1205657.6,1205658.1,2023-03-09T12:33:50Z,1205668.3,NULL,Notfall,dharura,s,rairai,malalamiko,ahueni,rairai,NA,NA,0,NA,NA,NA,NA,NA,NA,NA,NA,NA,NA,NA,NA,NA,NA,NA,NA,NA,NA,NA
4a463,"""Richtig""-Screen",canvas.Screen,3_0_0_0_2_1_1,NA,NA,skipped,NA,1205661.1,NA,NA,1205657.6,1205661.2,2023-03-09T12:33:50Z,1205668.3,NULL,Notfall,dharura,s,rairai,malalamiko,ahueni,NA,sdf,NA,0,NA,NA,NA,NA,NA,NA,NA,NA,NA,NA,NA,NA,NA,NA,NA,NA,NA,NA,NA
4a463,"""Falsch""-Screen",canvas.Screen,3_0_0_0_2_1_2,NA,NA,timeout,5000.3119999999,1205661.8,1205651.634,1205668.3,1210651.946,1210654.5,2023-03-09T12:33:55Z,1210668.612,NULL,Notfall,dharura,s,rairai,malalamiko,ahueni,NA,sdf,0,0,NA,NA,NA,NA,NA,NA,NA,NA,NA,NA,NA,NA,NA,NA,NA,NA,NA,NA,NA
4a463,shallow,flow.Sequence,3_0_0_0_2_1,NA,NA,completion,8366.844,1202271.4,1202268.436,1202285.102,1210651.946,1210654.9,2023-03-09T12:33:55Z,1210668.612,NULL,Notfall,dharura,s,rairai,malalamiko,ahueni,NA,sdf,NA,0,NA,NA,NA,NA,NA,NA,NA,NA,NA,NA,NA,NA,NA,NA,NA,NA,NA,NA,NA
4a463,task,flow.Sequence,3_0_0_0_2,NA,NA,completion,8366.844,1202271.2,1202268.436,1202285.102,1210651.946,1210655.1,2023-03-09T12:33:55Z,1210668.612,NULL,Notfall,dharura,s,rairai,malalamiko,ahueni,NA,sdf,NA,0,NA,NA,NA,NA,NA,NA,NA,NA,NA,NA,NA,NA,NA,NA,NA,NA,NA,NA,NA
4a463,Deep Question,html.Page,3_0_0_0_3_0_0,NA,NA,form submission,4388.9879999997,1210655.3,1210651.946,1210668.612,1215057.6,1215058.1,2023-03-09T12:34:00Z,1215068.436,NULL,Widerstand,usulubu,d,NA,NA,NA,j,NA,NA,0,NA,NA,NA,NA,NA,NA,NA,NA,NA,NA,NA,NA,NA,NA,NA,NA,NA,NA,NA
4a463,"""Richtig""-Screen",canvas.Screen,3_0_0_0_3_0_1,NA,NA,skipped,NA,1215061.7,NA,NA,1215057.6,1215062,2023-03-09T12:34:00Z,1215068.436,NULL,Widerstand,usulubu,d,NA,NA,NA,NA,sdf,NA,0,NA,NA,NA,NA,NA,NA,NA,NA,NA,NA,NA,NA,NA,NA,NA,NA,NA,NA,NA
4a463,"""Falsch""-Screen",canvas.Screen,3_0_0_0_3_0_2,NA,NA,timeout,4999.8,1215062.8,1215051.77,1215068.436,1220051.57,1220053.5,2023-03-09T12:34:05Z,1220068.236,NULL,Widerstand,usulubu,d,NA,NA,NA,NA,sdf,0,0,NA,NA,NA,NA,NA,NA,NA,NA,NA,NA,NA,NA,NA,NA,NA,NA,NA,NA,NA
4a463,deep,flow.Sequence,3_0_0_0_3_0,NA,NA,completion,9382.9580000001,1210655.3,1210651.946,1210668.612,1220051.57,1220053.9,2023-03-09T12:34:05Z,1220068.236,NULL,Widerstand,usulubu,d,NA,NA,NA,NA,sdf,NA,0,NA,NA,NA,NA,NA,NA,NA,NA,NA,NA,NA,NA,NA,NA,NA,NA,NA,NA,NA
4a463,shallow,flow.Sequence,3_0_0_0_3_1,NA,NA,skipped,NA,1220054.1,NA,NA,1220051.57,1220054.3,2023-03-09T12:34:05Z,1220068.236,NULL,Widerstand,usulubu,d,NA,NA,NA,NA,sdf,NA,0,NA,NA,NA,NA,NA,NA,NA,NA,NA,NA,NA,NA,NA,NA,NA,NA,NA,NA,NA
4a463,task,flow.Sequence,3_0_0_0_3,NA,NA,completion,9382.9580000001,1210655.1,1210651.946,1210668.612,1220051.57,1220054.4,2023-03-09T12:34:05Z,1220068.236,NULL,Widerstand,usulubu,d,NA,NA,NA,NA,sdf,NA,0,NA,NA,NA,NA,NA,NA,NA,NA,NA,NA,NA,NA,NA,NA,NA,NA,NA,NA,NA
4a463,Deep Question,html.Page,3_0_0_0_4_0_0,NA,NA,form submission,3004.8639999996,1220054.6,1220051.57,1220068.236,1223073.1,1223073.4,2023-03-09T12:34:08Z,1223085.513,NULL,Verstand,ufahamivu,d,NA,NA,NA,f,NA,NA,0,NA,NA,NA,NA,NA,NA,NA,NA,NA,NA,NA,NA,NA,NA,NA,NA,NA,NA,NA
4a463,"""Richtig""-Screen",canvas.Screen,3_0_0_0_4_0_1,NA,NA,skipped,NA,1223076,NA,NA,1223073.1,1223076.1,2023-03-09T12:34:08Z,1223085.513,NULL,Verstand,ufahamivu,d,NA,NA,NA,NA,sdf,NA,0,NA,NA,NA,NA,NA,NA,NA,NA,NA,NA,NA,NA,NA,NA,NA,NA,NA,NA,NA
4a463,"""Falsch""-Screen",canvas.Screen,3_0_0_0_4_0_2,NA,NA,timeout,4999.8,1223076.7,1223068.847,1223085.513,1228068.647,1228071,2023-03-09T12:34:13Z,1228085.313,NULL,Verstand,ufahamivu,d,NA,NA,NA,NA,sdf,0,0,NA,NA,NA,NA,NA,NA,NA,NA,NA,NA,NA,NA,NA,NA,NA,NA,NA,NA,NA
4a463,deep,flow.Sequence,3_0_0_0_4_0,NA,NA,completion,8000.4110000001,1220054.6,1220051.57,1220068.236,1228068.647,1228071.5,2023-03-09T12:34:13Z,1228085.313,NULL,Verstand,ufahamivu,d,NA,NA,NA,NA,sdf,NA,0,NA,NA,NA,NA,NA,NA,NA,NA,NA,NA,NA,NA,NA,NA,NA,NA,NA,NA,NA
4a463,shallow,flow.Sequence,3_0_0_0_4_1,NA,NA,skipped,NA,1228071.6,NA,NA,1228068.647,1228071.8,2023-03-09T12:34:13Z,1228085.313,NULL,Verstand,ufahamivu,d,NA,NA,NA,NA,sdf,NA,0,NA,NA,NA,NA,NA,NA,NA,NA,NA,NA,NA,NA,NA,NA,NA,NA,NA,NA,NA
4a463,task,flow.Sequence,3_0_0_0_4,NA,NA,completion,8000.4110000001,1220054.5,1220051.57,1220068.236,1228068.647,1228072,2023-03-09T12:34:13Z,1228085.313,NULL,Verstand,ufahamivu,d,NA,NA,NA,NA,sdf,NA,0,NA,NA,NA,NA,NA,NA,NA,NA,NA,NA,NA,NA,NA,NA,NA,NA,NA,NA,NA
4a463,deep,flow.Sequence,3_0_0_0_5_0,NA,NA,skipped,NA,1228072.1,NA,NA,1228068.647,1228072.2,2023-03-09T12:34:13Z,1228085.313,NULL,Vergnügen,kichekesho,s,dubwana,mpanuko,mtesaji,NA,sdf,NA,0,NA,NA,NA,NA,NA,NA,NA,NA,NA,NA,NA,NA,NA,NA,NA,NA,NA,NA,NA
4a463,Shallow Question,html.Page,3_0_0_0_5_1_0,NA,NA,form submission,2949.5870000003,1228072.4,1228068.647,1228085.313,1231034.9,1231035.4,2023-03-09T12:34:16Z,1231035.693,NULL,Vergnügen,kichekesho,s,dubwana,mpanuko,mtesaji,kichekesho,NA,NA,0,NA,NA,NA,NA,NA,NA,NA,NA,NA,NA,NA,NA,NA,NA,NA,NA,NA,NA,NA
4a463,"""Richtig""-Screen",canvas.Screen,3_0_0_0_5_1_1,NA,NA,timeout,4999.8,1231038.9,1231019.027,1231035.693,1236018.827,1236021.3,2023-03-09T12:34:21Z,1236035.493,NULL,Vergnügen,kichekesho,s,dubwana,mpanuko,mtesaji,NA,sdf,1,0,NA,NA,NA,NA,NA,NA,NA,NA,NA,NA,NA,NA,NA,NA,NA,NA,NA,NA,NA
4a463,"""Falsch""-Screen",canvas.Screen,3_0_0_0_5_1_2,NA,NA,skipped,NA,1236025.3,NA,NA,1236018.827,1236025.4,2023-03-09T12:34:21Z,1236035.493,NULL,Vergnügen,kichekesho,s,dubwana,mpanuko,mtesaji,NA,sdf,NA,0,NA,NA,NA,NA,NA,NA,NA,NA,NA,NA,NA,NA,NA,NA,NA,NA,NA,NA,NA
4a463,shallow,flow.Sequence,3_0_0_0_5_1,NA,NA,completion,7933.514,1228072.4,1228068.647,1228085.313,1236018.827,1236025.6,2023-03-09T12:34:21Z,1236035.493,NULL,Vergnügen,kichekesho,s,dubwana,mpanuko,mtesaji,NA,sdf,NA,0,NA,NA,NA,NA,NA,NA,NA,NA,NA,NA,NA,NA,NA,NA,NA,NA,NA,NA,NA
4a463,task,flow.Sequence,3_0_0_0_5,NA,NA,completion,7933.514,1228072.1,1228068.647,1228085.313,1236018.827,1236025.7,2023-03-09T12:34:21Z,1236035.493,NULL,Vergnügen,kichekesho,s,dubwana,mpanuko,mtesaji,NA,sdf,NA,0,NA,NA,NA,NA,NA,NA,NA,NA,NA,NA,NA,NA,NA,NA,NA,NA,NA,NA,NA
4a463,deep,flow.Sequence,3_0_0_0_6_0,NA,NA,skipped,NA,1236025.8,NA,NA,1236018.827,1236026,2023-03-09T12:34:21Z,1236035.493,NULL,Gelegenheit,wakati,s,mchanganyiko,kipaumbele,kushuku,NA,sdf,NA,0,NA,NA,NA,NA,NA,NA,NA,NA,NA,NA,NA,NA,NA,NA,NA,NA,NA,NA,NA
4a463,Shallow Question,html.Page,3_0_0_0_6_1_0,NA,NA,form submission,7325.007,1236026.1,1236018.827,1236035.493,1243360.5,1243360.9,2023-03-09T12:34:28Z,1243369.107,NULL,Gelegenheit,wakati,s,mchanganyiko,kipaumbele,kushuku,mchanganyiko,NA,NA,0,NA,NA,NA,NA,NA,NA,NA,NA,NA,NA,NA,NA,NA,NA,NA,NA,NA,NA,NA
4a463,"""Richtig""-Screen",canvas.Screen,3_0_0_0_6_1_1,NA,NA,skipped,NA,1243363.6,NA,NA,1243360.5,1243363.7,2023-03-09T12:34:28Z,1243369.107,NULL,Gelegenheit,wakati,s,mchanganyiko,kipaumbele,kushuku,NA,sdf,NA,0,NA,NA,NA,NA,NA,NA,NA,NA,NA,NA,NA,NA,NA,NA,NA,NA,NA,NA,NA
4a463,"""Falsch""-Screen",canvas.Screen,3_0_0_0_6_1_2,NA,NA,timeout,4999.7999999998,1243364.2,1243352.441,1243369.107,1248352.241,1248355.1,2023-03-09T12:34:33Z,1248368.907,NULL,Gelegenheit,wakati,s,mchanganyiko,kipaumbele,kushuku,NA,sdf,0,0,NA,NA,NA,NA,NA,NA,NA,NA,NA,NA,NA,NA,NA,NA,NA,NA,NA,NA,NA
4a463,shallow,flow.Sequence,3_0_0_0_6_1,NA,NA,completion,12316.748,1236026,1236018.827,1236035.493,1248352.241,1248355.6,2023-03-09T12:34:33Z,1248368.907,NULL,Gelegenheit,wakati,s,mchanganyiko,kipaumbele,kushuku,NA,sdf,NA,0,NA,NA,NA,NA,NA,NA,NA,NA,NA,NA,NA,NA,NA,NA,NA,NA,NA,NA,NA
4a463,task,flow.Sequence,3_0_0_0_6,NA,NA,completion,12316.748,1236025.8,1236018.827,1236035.493,1248352.241,1248355.8,2023-03-09T12:34:33Z,1248368.907,NULL,Gelegenheit,wakati,s,mchanganyiko,kipaumbele,kushuku,NA,sdf,NA,0,NA,NA,NA,NA,NA,NA,NA,NA,NA,NA,NA,NA,NA,NA,NA,NA,NA,NA,NA
4a463,Deep Question,html.Page,3_0_0_0_7_0_0,NA,NA,form submission,6065.5930000001,1248356,1248352.241,1248368.907,1254434.5,1254435.1,2023-03-09T12:34:39Z,1254435.93,NULL,Wohlstand,mafanikio,d,NA,NA,NA,i,NA,NA,0,NA,NA,NA,NA,NA,NA,NA,NA,NA,NA,NA,NA,NA,NA,NA,NA,NA,NA,NA
4a463,"""Richtig""-Screen",canvas.Screen,3_0_0_0_7_0_1,NA,NA,skipped,NA,1254438,NA,NA,1254434.5,1254438.1,2023-03-09T12:34:39Z,1254435.93,NULL,Wohlstand,mafanikio,d,NA,NA,NA,NA,sdf,NA,0,NA,NA,NA,NA,NA,NA,NA,NA,NA,NA,NA,NA,NA,NA,NA,NA,NA,NA,NA
4a463,"""Falsch""-Screen",canvas.Screen,3_0_0_0_7_0_2,NA,NA,timeout,4999.8,1254439.2,1254419.264,1254435.93,1259419.064,1259421.5,2023-03-09T12:34:44Z,1259435.73,NULL,Wohlstand,mafanikio,d,NA,NA,NA,NA,sdf,0,0,NA,NA,NA,NA,NA,NA,NA,NA,NA,NA,NA,NA,NA,NA,NA,NA,NA,NA,NA
4a463,deep,flow.Sequence,3_0_0_0_7_0,NA,NA,completion,11050.157,1248356,1248352.241,1248368.907,1259419.064,1259421.9,2023-03-09T12:34:44Z,1259435.73,NULL,Wohlstand,mafanikio,d,NA,NA,NA,NA,sdf,NA,0,NA,NA,NA,NA,NA,NA,NA,NA,NA,NA,NA,NA,NA,NA,NA,NA,NA,NA,NA
4a463,shallow,flow.Sequence,3_0_0_0_7_1,NA,NA,skipped,NA,1259422,NA,NA,1259419.064,1259422.2,2023-03-09T12:34:44Z,1259435.73,NULL,Wohlstand,mafanikio,d,NA,NA,NA,NA,sdf,NA,0,NA,NA,NA,NA,NA,NA,NA,NA,NA,NA,NA,NA,NA,NA,NA,NA,NA,NA,NA
4a463,task,flow.Sequence,3_0_0_0_7,NA,NA,completion,11050.157,1248355.9,1248352.241,1248368.907,1259419.064,1259422.4,2023-03-09T12:34:44Z,1259435.73,NULL,Wohlstand,mafanikio,d,NA,NA,NA,NA,sdf,NA,0,NA,NA,NA,NA,NA,NA,NA,NA,NA,NA,NA,NA,NA,NA,NA,NA,NA,NA,NA
4a463,block,flow.Loop,3_0_0_0,NA,NA,completion,76717.954,1182692.9,1182684.444,1182701.11,1259419.064,1259422.5,2023-03-09T12:34:44Z,1259435.73,NULL,NA,NA,NA,NA,NA,NA,NA,sdf,NA,0,NA,NA,NA,NA,NA,NA,NA,NA,NA,NA,NA,NA,NA,NA,NA,NA,NA,NA,NA
4a463,weiter,canvas.Screen,3_0_0_1,sdf,keypress(Space),response,1722.27,1259422.7,1259419.064,1259435.73,1261158,1261163.5,2023-03-09T12:34:46Z,1261202.326,NULL,NA,NA,NA,NA,NA,NA,NA,sdf,NA,0,NA,NA,NA,NA,NA,NA,NA,NA,NA,NA,NA,NA,NA,NA,NA,NA,NA,NA,NA
4a463,check continue,flow.Sequence,3_0_0,NA,NA,completion,78456.89,1182692.8,1182684.444,1182701.11,1261158,1261163.8,2023-03-09T12:34:46Z,1261202.326,NULL,NA,NA,NA,NA,NA,NA,NA,sdf,NA,0,NA,NA,NA,NA,NA,NA,NA,NA,NA,NA,NA,NA,NA,NA,NA,NA,NA,NA,NA
4a463,Deep Question,html.Page,3_0_1_0_0_0_0,NA,NA,form submission,10894.574,1261190.9,1261185.66,1261202.326,1272096.9,1272097.4,2023-03-09T12:34:57Z,1272102.67,NULL,Widerstand,usulubu,d,NA,NA,NA,usubulu,NA,NA,1,NA,NA,NA,NA,NA,NA,NA,NA,NA,NA,NA,NA,NA,NA,NA,NA,NA,NA,NA
4a463,"""Richtig""-Screen",canvas.Screen,3_0_1_0_0_0_1,NA,NA,skipped,NA,1272101.4,NA,NA,1272096.9,1272101.7,2023-03-09T12:34:57Z,1272102.67,NULL,Widerstand,usulubu,d,NA,NA,NA,NA,sdfdsf,NA,1,NA,NA,NA,NA,NA,NA,NA,NA,NA,NA,NA,NA,NA,NA,NA,NA,NA,NA,NA
4a463,"""Falsch""-Screen",canvas.Screen,3_0_1_0_0_0_2,NA,NA,timeout,4999.8,1272102.7,1272086.004,1272102.67,1277085.804,1277088.8,2023-03-09T12:35:02Z,1277102.47,NULL,Widerstand,usulubu,d,NA,NA,NA,NA,sdfdsf,0,1,NA,NA,NA,NA,NA,NA,NA,NA,NA,NA,NA,NA,NA,NA,NA,NA,NA,NA,NA
4a463,deep,flow.Sequence,3_0_1_0_0_0,NA,NA,completion,15883.478,1261190.9,1261185.66,1261202.326,1277085.804,1277089.2,2023-03-09T12:35:02Z,1277102.47,NULL,Widerstand,usulubu,d,NA,NA,NA,NA,sdfdsf,NA,1,NA,NA,NA,NA,NA,NA,NA,NA,NA,NA,NA,NA,NA,NA,NA,NA,NA,NA,NA
4a463,shallow,flow.Sequence,3_0_1_0_0_1,NA,NA,skipped,NA,1277089.4,NA,NA,1277085.804,1277089.6,2023-03-09T12:35:02Z,1277102.47,NULL,Widerstand,usulubu,d,NA,NA,NA,NA,sdfdsf,NA,1,NA,NA,NA,NA,NA,NA,NA,NA,NA,NA,NA,NA,NA,NA,NA,NA,NA,NA,NA
4a463,task,flow.Sequence,3_0_1_0_0,NA,NA,completion,15883.478,1261190.9,1261185.66,1261202.326,1277085.804,1277089.7,2023-03-09T12:35:02Z,1277102.47,NULL,Widerstand,usulubu,d,NA,NA,NA,NA,sdfdsf,NA,1,NA,NA,NA,NA,NA,NA,NA,NA,NA,NA,NA,NA,NA,NA,NA,NA,NA,NA,NA
4a463,deep,flow.Sequence,3_0_1_0_1_0,NA,NA,skipped,NA,1277089.9,NA,NA,1277085.804,1277090,2023-03-09T12:35:02Z,1277102.47,NULL,Ausschluss,kutengwa,s,ununuzi,taratibu,madeni,NA,sdfdsf,NA,1,NA,NA,NA,NA,NA,NA,NA,NA,NA,NA,NA,NA,NA,NA,NA,NA,NA,NA,NA
4a463,Shallow Question,html.Page,3_0_1_0_1_1_0,NA,NA,form submission,5019.9300000004,1277090.2,1277085.804,1277102.47,1282122.4,1282122.9,2023-03-09T12:35:07Z,1282136.113,NULL,Ausschluss,kutengwa,s,ununuzi,taratibu,madeni,kutengwa,NA,NA,1,NA,NA,NA,NA,NA,NA,NA,NA,NA,NA,NA,NA,NA,NA,NA,NA,NA,NA,NA
4a463,"""Richtig""-Screen",canvas.Screen,3_0_1_0_1_1_1,NA,NA,timeout,4999.8,1282127.6,1282119.447,1282136.113,1287119.247,1287121.1,2023-03-09T12:35:12Z,1287135.913,NULL,Ausschluss,kutengwa,s,ununuzi,taratibu,madeni,NA,sdfdsf,1,1,NA,NA,NA,NA,NA,NA,NA,NA,NA,NA,NA,NA,NA,NA,NA,NA,NA,NA,NA
4a463,"""Falsch""-Screen",canvas.Screen,3_0_1_0_1_1_2,NA,NA,skipped,NA,1287125.5,NA,NA,1287119.247,1287125.7,2023-03-09T12:35:12Z,1287135.913,NULL,Ausschluss,kutengwa,s,ununuzi,taratibu,madeni,NA,sdfdsf,NA,1,NA,NA,NA,NA,NA,NA,NA,NA,NA,NA,NA,NA,NA,NA,NA,NA,NA,NA,NA
4a463,shallow,flow.Sequence,3_0_1_0_1_1,NA,NA,completion,10016.777,1277090.2,1277085.804,1277102.47,1287119.247,1287125.8,2023-03-09T12:35:12Z,1287135.913,NULL,Ausschluss,kutengwa,s,ununuzi,taratibu,madeni,NA,sdfdsf,NA,1,NA,NA,NA,NA,NA,NA,NA,NA,NA,NA,NA,NA,NA,NA,NA,NA,NA,NA,NA
4a463,task,flow.Sequence,3_0_1_0_1,NA,NA,completion,10016.777,1277089.8,1277085.804,1277102.47,1287119.247,1287126,2023-03-09T12:35:12Z,1287135.913,NULL,Ausschluss,kutengwa,s,ununuzi,taratibu,madeni,NA,sdfdsf,NA,1,NA,NA,NA,NA,NA,NA,NA,NA,NA,NA,NA,NA,NA,NA,NA,NA,NA,NA,NA
4a463,deep,flow.Sequence,3_0_1_0_2_0,NA,NA,skipped,NA,1287126.1,NA,NA,1287119.247,1287126.2,2023-03-09T12:35:12Z,1287135.913,NULL,Gelegenheit,wakati,s,mchanganyiko,kipaumbele,kushuku,NA,sdfdsf,NA,1,NA,NA,NA,NA,NA,NA,NA,NA,NA,NA,NA,NA,NA,NA,NA,NA,NA,NA,NA
4a463,Shallow Question,html.Page,3_0_1_0_2_1_0,NA,NA,form submission,5879.1869999997,1287126.3,1287119.247,1287135.913,1293015.1,1293015.8,2023-03-09T12:35:18Z,1293019.677,NULL,Gelegenheit,wakati,s,mchanganyiko,kipaumbele,kushuku,wakati,NA,NA,1,NA,NA,NA,NA,NA,NA,NA,NA,NA,NA,NA,NA,NA,NA,NA,NA,NA,NA,NA
4a463,"""Richtig""-Screen",canvas.Screen,3_0_1_0_2_1_1,NA,NA,timeout,4999.8,1293020.1,1293003.011,1293019.677,1298002.811,1298003.9,2023-03-09T12:35:23Z,1298019.477,NULL,Gelegenheit,wakati,s,mchanganyiko,kipaumbele,kushuku,NA,sdfdsf,1,1,NA,NA,NA,NA,NA,NA,NA,NA,NA,NA,NA,NA,NA,NA,NA,NA,NA,NA,NA
4a463,"""Falsch""-Screen",canvas.Screen,3_0_1_0_2_1_2,NA,NA,skipped,NA,1298007.7,NA,NA,1298002.811,1298007.8,2023-03-09T12:35:23Z,1298019.477,NULL,Gelegenheit,wakati,s,mchanganyiko,kipaumbele,kushuku,NA,sdfdsf,NA,1,NA,NA,NA,NA,NA,NA,NA,NA,NA,NA,NA,NA,NA,NA,NA,NA,NA,NA,NA
4a463,shallow,flow.Sequence,3_0_1_0_2_1,NA,NA,completion,10866.898,1287126.2,1287119.247,1287135.913,1298002.811,1298008,2023-03-09T12:35:23Z,1298019.477,NULL,Gelegenheit,wakati,s,mchanganyiko,kipaumbele,kushuku,NA,sdfdsf,NA,1,NA,NA,NA,NA,NA,NA,NA,NA,NA,NA,NA,NA,NA,NA,NA,NA,NA,NA,NA
4a463,task,flow.Sequence,3_0_1_0_2,NA,NA,completion,10866.898,1287126,1287119.247,1287135.913,1298002.811,1298008.1,2023-03-09T12:35:23Z,1298019.477,NULL,Gelegenheit,wakati,s,mchanganyiko,kipaumbele,kushuku,NA,sdfdsf,NA,1,NA,NA,NA,NA,NA,NA,NA,NA,NA,NA,NA,NA,NA,NA,NA,NA,NA,NA,NA
4a463,Deep Question,html.Page,3_0_1_0_3_0_0,NA,NA,form submission,8985.2229999993,1298008.2,1298002.811,1298019.477,1307004.7,1307005.2,2023-03-09T12:35:32Z,1307019.117,NULL,Wohlstand,mafanikio,d,NA,NA,NA,maninikio,NA,NA,1,NA,NA,NA,NA,NA,NA,NA,NA,NA,NA,NA,NA,NA,NA,NA,NA,NA,NA,NA
4a463,"""Richtig""-Screen",canvas.Screen,3_0_1_0_3_0_1,NA,NA,skipped,NA,1307008.7,NA,NA,1307004.7,1307009,2023-03-09T12:35:32Z,1307019.117,NULL,Wohlstand,mafanikio,d,NA,NA,NA,NA,sdfdsf,NA,1,NA,NA,NA,NA,NA,NA,NA,NA,NA,NA,NA,NA,NA,NA,NA,NA,NA,NA,NA
4a463,"""Falsch""-Screen",canvas.Screen,3_0_1_0_3_0_2,NA,NA,timeout,4999.7999999998,1307010.1,1307002.451,1307019.117,1312002.251,1312004.2,2023-03-09T12:35:37Z,1312018.917,NULL,Wohlstand,mafanikio,d,NA,NA,NA,NA,sdfdsf,0,1,NA,NA,NA,NA,NA,NA,NA,NA,NA,NA,NA,NA,NA,NA,NA,NA,NA,NA,NA
4a463,deep,flow.Sequence,3_0_1_0_3_0,NA,NA,completion,13982.774,1298008.2,1298002.811,1298019.477,1312002.251,1312004.6,2023-03-09T12:35:37Z,1312018.917,NULL,Wohlstand,mafanikio,d,NA,NA,NA,NA,sdfdsf,NA,1,NA,NA,NA,NA,NA,NA,NA,NA,NA,NA,NA,NA,NA,NA,NA,NA,NA,NA,NA
4a463,shallow,flow.Sequence,3_0_1_0_3_1,NA,NA,skipped,NA,1312004.7,NA,NA,1312002.251,1312004.8,2023-03-09T12:35:37Z,1312018.917,NULL,Wohlstand,mafanikio,d,NA,NA,NA,NA,sdfdsf,NA,1,NA,NA,NA,NA,NA,NA,NA,NA,NA,NA,NA,NA,NA,NA,NA,NA,NA,NA,NA
4a463,task,flow.Sequence,3_0_1_0_3,NA,NA,completion,13982.774,1298008.2,1298002.811,1298019.477,1312002.251,1312005,2023-03-09T12:35:37Z,1312018.917,NULL,Wohlstand,mafanikio,d,NA,NA,NA,NA,sdfdsf,NA,1,NA,NA,NA,NA,NA,NA,NA,NA,NA,NA,NA,NA,NA,NA,NA,NA,NA,NA,NA
4a463,deep,flow.Sequence,3_0_1_0_4_0,NA,NA,skipped,NA,1312005.1,NA,NA,1312002.251,1312005.3,2023-03-09T12:35:37Z,1312018.917,NULL,Vergnügen,kichekesho,s,dubwana,mpanuko,mtesaji,NA,sdfdsf,NA,1,NA,NA,NA,NA,NA,NA,NA,NA,NA,NA,NA,NA,NA,NA,NA,NA,NA,NA,NA
4a463,Shallow Question,html.Page,3_0_1_0_4_1_0,NA,NA,form submission,4388.0830000001,1312005.4,1312002.251,1312018.917,1316407,1316407.6,2023-03-09T12:35:41Z,1316419.83,NULL,Vergnügen,kichekesho,s,dubwana,mpanuko,mtesaji,kichekesho,NA,NA,1,NA,NA,NA,NA,NA,NA,NA,NA,NA,NA,NA,NA,NA,NA,NA,NA,NA,NA,NA
4a463,"""Richtig""-Screen",canvas.Screen,3_0_1_0_4_1_1,NA,NA,timeout,4999.7999999998,1316411.4,1316403.164,1316419.83,1321402.964,1321405.5,2023-03-09T12:35:46Z,1321419.63,NULL,Vergnügen,kichekesho,s,dubwana,mpanuko,mtesaji,NA,sdfdsf,1,1,NA,NA,NA,NA,NA,NA,NA,NA,NA,NA,NA,NA,NA,NA,NA,NA,NA,NA,NA
4a463,"""Falsch""-Screen",canvas.Screen,3_0_1_0_4_1_2,NA,NA,skipped,NA,1321410.1,NA,NA,1321402.964,1321410.2,2023-03-09T12:35:46Z,1321419.63,NULL,Vergnügen,kichekesho,s,dubwana,mpanuko,mtesaji,NA,sdfdsf,NA,1,NA,NA,NA,NA,NA,NA,NA,NA,NA,NA,NA,NA,NA,NA,NA,NA,NA,NA,NA
4a463,shallow,flow.Sequence,3_0_1_0_4_1,NA,NA,completion,9384.047,1312005.4,1312002.251,1312018.917,1321402.964,1321410.4,2023-03-09T12:35:46Z,1321419.63,NULL,Vergnügen,kichekesho,s,dubwana,mpanuko,mtesaji,NA,sdfdsf,NA,1,NA,NA,NA,NA,NA,NA,NA,NA,NA,NA,NA,NA,NA,NA,NA,NA,NA,NA,NA
4a463,task,flow.Sequence,3_0_1_0_4,NA,NA,completion,9384.047,1312005.1,1312002.251,1312018.917,1321402.964,1321410.6,2023-03-09T12:35:46Z,1321419.63,NULL,Vergnügen,kichekesho,s,dubwana,mpanuko,mtesaji,NA,sdfdsf,NA,1,NA,NA,NA,NA,NA,NA,NA,NA,NA,NA,NA,NA,NA,NA,NA,NA,NA,NA,NA
4a463,Deep Question,html.Page,3_0_1_0_5_0_0,NA,NA,form submission,2983.2700000005,1321410.7,1321402.964,1321419.63,1324402.9,1324403.4,2023-03-09T12:35:49Z,1324403.376,NULL,Verstand,ufahamivu,d,NA,NA,NA,i,NA,NA,1,NA,NA,NA,NA,NA,NA,NA,NA,NA,NA,NA,NA,NA,NA,NA,NA,NA,NA,NA
4a463,"""Richtig""-Screen",canvas.Screen,3_0_1_0_5_0_1,NA,NA,skipped,NA,1324404.8,NA,NA,1324402.9,1324404.9,2023-03-09T12:35:49Z,1324403.376,NULL,Verstand,ufahamivu,d,NA,NA,NA,NA,sdfdsf,NA,1,NA,NA,NA,NA,NA,NA,NA,NA,NA,NA,NA,NA,NA,NA,NA,NA,NA,NA,NA
4a463,"""Falsch""-Screen",canvas.Screen,3_0_1_0_5_0_2,NA,NA,timeout,4999.8,1324405.4,1324386.71,1324403.376,1329386.51,1329388.3,2023-03-09T12:35:54Z,1329403.176,NULL,Verstand,ufahamivu,d,NA,NA,NA,NA,sdfdsf,0,1,NA,NA,NA,NA,NA,NA,NA,NA,NA,NA,NA,NA,NA,NA,NA,NA,NA,NA,NA
4a463,deep,flow.Sequence,3_0_1_0_5_0,NA,NA,completion,7966.8800000001,1321410.6,1321402.964,1321419.63,1329386.51,1329388.3,2023-03-09T12:35:54Z,1329403.176,NULL,Verstand,ufahamivu,d,NA,NA,NA,NA,sdfdsf,NA,1,NA,NA,NA,NA,NA,NA,NA,NA,NA,NA,NA,NA,NA,NA,NA,NA,NA,NA,NA
4a463,shallow,flow.Sequence,3_0_1_0_5_1,NA,NA,skipped,NA,1329388.3,NA,NA,1329386.51,1329388.3,2023-03-09T12:35:54Z,1329403.176,NULL,Verstand,ufahamivu,d,NA,NA,NA,NA,sdfdsf,NA,1,NA,NA,NA,NA,NA,NA,NA,NA,NA,NA,NA,NA,NA,NA,NA,NA,NA,NA,NA
4a463,task,flow.Sequence,3_0_1_0_5,NA,NA,completion,7966.8800000001,1321410.6,1321402.964,1321419.63,1329386.51,1329388.4,2023-03-09T12:35:54Z,1329403.176,NULL,Verstand,ufahamivu,d,NA,NA,NA,NA,sdfdsf,NA,1,NA,NA,NA,NA,NA,NA,NA,NA,NA,NA,NA,NA,NA,NA,NA,NA,NA,NA,NA
4a463,deep,flow.Sequence,3_0_1_0_6_0,NA,NA,skipped,NA,1329388.4,NA,NA,1329386.51,1329388.6,2023-03-09T12:35:54Z,1329403.176,NULL,Notfall,dharura,s,rairai,malalamiko,ahueni,NA,sdfdsf,NA,1,NA,NA,NA,NA,NA,NA,NA,NA,NA,NA,NA,NA,NA,NA,NA,NA,NA,NA,NA
4a463,Shallow Question,html.Page,3_0_1_0_6_1_0,NA,NA,form submission,9503.1240000008,1329388.6,1329386.51,1329403.176,1338906.3,1338906.7,2023-03-09T12:36:04Z,1338919.462,NULL,Notfall,dharura,s,rairai,malalamiko,ahueni,dharura,NA,NA,1,NA,NA,NA,NA,NA,NA,NA,NA,NA,NA,NA,NA,NA,NA,NA,NA,NA,NA,NA
4a463,"""Richtig""-Screen",canvas.Screen,3_0_1_0_6_1_1,NA,NA,timeout,4999.8,1338909.5,1338902.796,1338919.462,1343902.596,1343904.7,2023-03-09T12:36:09Z,1343919.262,NULL,Notfall,dharura,s,rairai,malalamiko,ahueni,NA,sdfdsf,1,1,NA,NA,NA,NA,NA,NA,NA,NA,NA,NA,NA,NA,NA,NA,NA,NA,NA,NA,NA
4a463,"""Falsch""-Screen",canvas.Screen,3_0_1_0_6_1_2,NA,NA,skipped,NA,1343909.3,NA,NA,1343902.596,1343909.4,2023-03-09T12:36:09Z,1343919.262,NULL,Notfall,dharura,s,rairai,malalamiko,ahueni,NA,sdfdsf,NA,1,NA,NA,NA,NA,NA,NA,NA,NA,NA,NA,NA,NA,NA,NA,NA,NA,NA,NA,NA
4a463,shallow,flow.Sequence,3_0_1_0_6_1,NA,NA,completion,14499.42,1329388.6,1329386.51,1329403.176,1343902.596,1343909.6,2023-03-09T12:36:09Z,1343919.262,NULL,Notfall,dharura,s,rairai,malalamiko,ahueni,NA,sdfdsf,NA,1,NA,NA,NA,NA,NA,NA,NA,NA,NA,NA,NA,NA,NA,NA,NA,NA,NA,NA,NA
4a463,task,flow.Sequence,3_0_1_0_6,NA,NA,completion,14499.42,1329388.4,1329386.51,1329403.176,1343902.596,1343909.6,2023-03-09T12:36:09Z,1343919.262,NULL,Notfall,dharura,s,rairai,malalamiko,ahueni,NA,sdfdsf,NA,1,NA,NA,NA,NA,NA,NA,NA,NA,NA,NA,NA,NA,NA,NA,NA,NA,NA,NA,NA
4a463,Deep Question,html.Page,3_0_1_0_7_0_0,NA,NA,form submission,7196.4379999992,1343909.8,1343902.596,1343919.262,1351115.7,1351116.3,2023-03-09T12:36:16Z,1351120.048,NULL,Ergänzung,kijalizo,d,NA,NA,NA,f,NA,NA,1,NA,NA,NA,NA,NA,NA,NA,NA,NA,NA,NA,NA,NA,NA,NA,NA,NA,NA,NA
4a463,"""Richtig""-Screen",canvas.Screen,3_0_1_0_7_0_1,NA,NA,skipped,NA,1351120.1,NA,NA,1351115.7,1351120.4,2023-03-09T12:36:16Z,1351120.048,NULL,Ergänzung,kijalizo,d,NA,NA,NA,NA,sdfdsf,NA,1,NA,NA,NA,NA,NA,NA,NA,NA,NA,NA,NA,NA,NA,NA,NA,NA,NA,NA,NA
4a463,"""Falsch""-Screen",canvas.Screen,3_0_1_0_7_0_2,NA,NA,timeout,4999.8,1351121.6,1351103.382,1351120.048,1356103.182,1356105.3,2023-03-09T12:36:21Z,1356119.848,NULL,Ergänzung,kijalizo,d,NA,NA,NA,NA,sdfdsf,0,1,NA,NA,NA,NA,NA,NA,NA,NA,NA,NA,NA,NA,NA,NA,NA,NA,NA,NA,NA
4a463,deep,flow.Sequence,3_0_1_0_7_0,NA,NA,completion,12183.92,1343909.7,1343902.596,1343919.262,1356103.182,1356105.5,2023-03-09T12:36:21Z,1356119.848,NULL,Ergänzung,kijalizo,d,NA,NA,NA,NA,sdfdsf,NA,1,NA,NA,NA,NA,NA,NA,NA,NA,NA,NA,NA,NA,NA,NA,NA,NA,NA,NA,NA
4a463,shallow,flow.Sequence,3_0_1_0_7_1,NA,NA,skipped,NA,1356105.7,NA,NA,1356103.182,1356105.7,2023-03-09T12:36:21Z,1356119.848,NULL,Ergänzung,kijalizo,d,NA,NA,NA,NA,sdfdsf,NA,1,NA,NA,NA,NA,NA,NA,NA,NA,NA,NA,NA,NA,NA,NA,NA,NA,NA,NA,NA
4a463,task,flow.Sequence,3_0_1_0_7,NA,NA,completion,12183.92,1343909.7,1343902.596,1343919.262,1356103.182,1356105.9,2023-03-09T12:36:21Z,1356119.848,NULL,Ergänzung,kijalizo,d,NA,NA,NA,NA,sdfdsf,NA,1,NA,NA,NA,NA,NA,NA,NA,NA,NA,NA,NA,NA,NA,NA,NA,NA,NA,NA,NA
4a463,block,flow.Loop,3_0_1_0,NA,NA,completion,94900.856,1261190.9,1261185.66,1261202.326,1356103.182,1356106.1,2023-03-09T12:36:21Z,1356119.848,NULL,NA,NA,NA,NA,NA,NA,NA,sdfdsf,NA,1,NA,NA,NA,NA,NA,NA,NA,NA,NA,NA,NA,NA,NA,NA,NA,NA,NA,NA,NA
4a463,weiter,canvas.Screen,3_0_1_1,sdf,keypress(Space),response,1010.4520000007,1356106.2,1356103.182,1356119.848,1357130.3,1357138.3,2023-03-09T12:36:22Z,1357170.405,NULL,NA,NA,NA,NA,NA,NA,NA,sdfdsf,NA,1,NA,NA,NA,NA,NA,NA,NA,NA,NA,NA,NA,NA,NA,NA,NA,NA,NA,NA,NA
4a463,check continue,flow.Sequence,3_0_1,NA,NA,completion,95927.974000001,1261190.9,1261185.66,1261202.326,1357130.3,1357138.4,2023-03-09T12:36:22Z,1357170.405,NULL,NA,NA,NA,NA,NA,NA,NA,sdfdsf,NA,1,NA,NA,NA,NA,NA,NA,NA,NA,NA,NA,NA,NA,NA,NA,NA,NA,NA,NA,NA
4a463,Deep Question,html.Page,3_0_2_0_0_0_0,NA,NA,form submission,6247.3950000007,1357165.6,1357153.739,1357170.405,1363417.8,1363418.2,2023-03-09T12:36:28Z,1363420.155,NULL,Wohlstand,mafanikio,d,NA,NA,NA,mafanikio,NA,NA,2,NA,NA,NA,NA,NA,NA,NA,NA,NA,NA,NA,NA,NA,NA,NA,NA,NA,NA,NA
4a463,"""Richtig""-Screen",canvas.Screen,3_0_2_0_0_0_1,NA,NA,timeout,4999.8,1363421.1,1363403.489,1363420.155,1368403.289,1368406.1,2023-03-09T12:36:33Z,1368419.955,NULL,Wohlstand,mafanikio,d,NA,NA,NA,NA,sdf,1,2,NA,NA,NA,NA,NA,NA,NA,NA,NA,NA,NA,NA,NA,NA,NA,NA,NA,NA,NA
4a463,"""Falsch""-Screen",canvas.Screen,3_0_2_0_0_0_2,NA,NA,skipped,NA,1368409.6,NA,NA,1368403.289,1368409.7,2023-03-09T12:36:33Z,1368419.955,NULL,Wohlstand,mafanikio,d,NA,NA,NA,NA,sdf,NA,2,NA,NA,NA,NA,NA,NA,NA,NA,NA,NA,NA,NA,NA,NA,NA,NA,NA,NA,NA
4a463,deep,flow.Sequence,3_0_2_0_0_0,NA,NA,completion,11232.884,1357165.6,1357153.739,1357170.405,1368403.289,1368409.8,2023-03-09T12:36:33Z,1368419.955,NULL,Wohlstand,mafanikio,d,NA,NA,NA,NA,sdf,NA,2,NA,NA,NA,NA,NA,NA,NA,NA,NA,NA,NA,NA,NA,NA,NA,NA,NA,NA,NA
4a463,shallow,flow.Sequence,3_0_2_0_0_1,NA,NA,skipped,NA,1368409.9,NA,NA,1368403.289,1368409.9,2023-03-09T12:36:33Z,1368419.955,NULL,Wohlstand,mafanikio,d,NA,NA,NA,NA,sdf,NA,2,NA,NA,NA,NA,NA,NA,NA,NA,NA,NA,NA,NA,NA,NA,NA,NA,NA,NA,NA
4a463,task,flow.Sequence,3_0_2_0_0,NA,NA,completion,11232.884,1357165.6,1357153.739,1357170.405,1368403.289,1368410,2023-03-09T12:36:33Z,1368419.955,NULL,Wohlstand,mafanikio,d,NA,NA,NA,NA,sdf,NA,2,NA,NA,NA,NA,NA,NA,NA,NA,NA,NA,NA,NA,NA,NA,NA,NA,NA,NA,NA
4a463,deep,flow.Sequence,3_0_2_0_1_0,NA,NA,skipped,NA,1368410.1,NA,NA,1368403.289,1368410.1,2023-03-09T12:36:33Z,1368419.955,NULL,Ausschluss,kutengwa,s,ununuzi,taratibu,madeni,NA,sdf,NA,2,NA,NA,NA,NA,NA,NA,NA,NA,NA,NA,NA,NA,NA,NA,NA,NA,NA,NA,NA
4a463,Shallow Question,html.Page,3_0_2_0_1_1_0,NA,NA,form submission,3351.5449999999,1368410.2,1368403.289,1368419.955,1371771.5,1371772.4,2023-03-09T12:36:37Z,1371770.475,NULL,Ausschluss,kutengwa,s,ununuzi,taratibu,madeni,kutengwa,NA,NA,2,NA,NA,NA,NA,NA,NA,NA,NA,NA,NA,NA,NA,NA,NA,NA,NA,NA,NA,NA
4a463,"""Richtig""-Screen",canvas.Screen,3_0_2_0_1_1_1,NA,NA,timeout,4999.7999999998,1371775.4,1371753.809,1371770.475,1376753.609,1376755.5,2023-03-09T12:36:42Z,1376770.275,NULL,Ausschluss,kutengwa,s,ununuzi,taratibu,madeni,NA,sdf,1,2,NA,NA,NA,NA,NA,NA,NA,NA,NA,NA,NA,NA,NA,NA,NA,NA,NA,NA,NA
4a463,"""Falsch""-Screen",canvas.Screen,3_0_2_0_1_1_2,NA,NA,skipped,NA,1376756.8,NA,NA,1376753.609,1376756.9,2023-03-09T12:36:42Z,1376770.275,NULL,Ausschluss,kutengwa,s,ununuzi,taratibu,madeni,NA,sdf,NA,2,NA,NA,NA,NA,NA,NA,NA,NA,NA,NA,NA,NA,NA,NA,NA,NA,NA,NA,NA
4a463,shallow,flow.Sequence,3_0_2_0_1_1,NA,NA,completion,8333.6539999999,1368410.2,1368403.289,1368419.955,1376753.609,1376757.1,2023-03-09T12:36:42Z,1376770.275,NULL,Ausschluss,kutengwa,s,ununuzi,taratibu,madeni,NA,sdf,NA,2,NA,NA,NA,NA,NA,NA,NA,NA,NA,NA,NA,NA,NA,NA,NA,NA,NA,NA,NA
4a463,task,flow.Sequence,3_0_2_0_1,NA,NA,completion,8333.6539999999,1368410.1,1368403.289,1368419.955,1376753.609,1376757.1,2023-03-09T12:36:42Z,1376770.275,NULL,Ausschluss,kutengwa,s,ununuzi,taratibu,madeni,NA,sdf,NA,2,NA,NA,NA,NA,NA,NA,NA,NA,NA,NA,NA,NA,NA,NA,NA,NA,NA,NA,NA
4a463,Deep Question,html.Page,3_0_2_0_2_0_0,NA,NA,form submission,8516.1250000005,1376757.1,1376753.609,1376770.275,1385286.4,1385286.9,2023-03-09T12:36:50Z,1385286.601,NULL,Ergänzung,kijalizo,d,NA,NA,NA,jaz,NA,NA,2,NA,NA,NA,NA,NA,NA,NA,NA,NA,NA,NA,NA,NA,NA,NA,NA,NA,NA,NA
4a463,"""Richtig""-Screen",canvas.Screen,3_0_2_0_2_0_1,NA,NA,skipped,NA,1385290.4,NA,NA,1385286.4,1385290.6,2023-03-09T12:36:50Z,1385286.601,NULL,Ergänzung,kijalizo,d,NA,NA,NA,NA,sdf,NA,2,NA,NA,NA,NA,NA,NA,NA,NA,NA,NA,NA,NA,NA,NA,NA,NA,NA,NA,NA
4a463,"""Falsch""-Screen",canvas.Screen,3_0_2_0_2_0_2,NA,NA,timeout,4999.8,1385291.6,1385269.935,1385286.601,1390269.735,1390272,2023-03-09T12:36:55Z,1390286.401,NULL,Ergänzung,kijalizo,d,NA,NA,NA,NA,sdf,0,2,NA,NA,NA,NA,NA,NA,NA,NA,NA,NA,NA,NA,NA,NA,NA,NA,NA,NA,NA
4a463,deep,flow.Sequence,3_0_2_0_2_0,NA,NA,completion,13499.46,1376757.1,1376753.609,1376770.275,1390269.735,1390272.6,2023-03-09T12:36:55Z,1390286.401,NULL,Ergänzung,kijalizo,d,NA,NA,NA,NA,sdf,NA,2,NA,NA,NA,NA,NA,NA,NA,NA,NA,NA,NA,NA,NA,NA,NA,NA,NA,NA,NA
4a463,shallow,flow.Sequence,3_0_2_0_2_1,NA,NA,skipped,NA,1390272.7,NA,NA,1390269.735,1390272.9,2023-03-09T12:36:55Z,1390286.401,NULL,Ergänzung,kijalizo,d,NA,NA,NA,NA,sdf,NA,2,NA,NA,NA,NA,NA,NA,NA,NA,NA,NA,NA,NA,NA,NA,NA,NA,NA,NA,NA
4a463,task,flow.Sequence,3_0_2_0_2,NA,NA,completion,13499.46,1376757.1,1376753.609,1376770.275,1390269.735,1390273,2023-03-09T12:36:55Z,1390286.401,NULL,Ergänzung,kijalizo,d,NA,NA,NA,NA,sdf,NA,2,NA,NA,NA,NA,NA,NA,NA,NA,NA,NA,NA,NA,NA,NA,NA,NA,NA,NA,NA
4a463,Deep Question,html.Page,3_0_2_0_3_0_0,NA,NA,form submission,16195.298999999,1390273.2,1390269.735,1390286.401,1406481.7,1406482.2,2023-03-09T12:37:11Z,1406487.375,NULL,Widerstand,usulubu,d,NA,NA,NA,usubulu,NA,NA,2,NA,NA,NA,NA,NA,NA,NA,NA,NA,NA,NA,NA,NA,NA,NA,NA,NA,NA,NA
4a463,"""Richtig""-Screen",canvas.Screen,3_0_2_0_3_0_1,NA,NA,skipped,NA,1406485,NA,NA,1406481.7,1406485.1,2023-03-09T12:37:11Z,1406487.375,NULL,Widerstand,usulubu,d,NA,NA,NA,NA,sdf,NA,2,NA,NA,NA,NA,NA,NA,NA,NA,NA,NA,NA,NA,NA,NA,NA,NA,NA,NA,NA
4a463,"""Falsch""-Screen",canvas.Screen,3_0_2_0_3_0_2,NA,NA,timeout,4999.8,1406485.6,1406470.709,1406487.375,1411470.509,1411472.3,2023-03-09T12:37:16Z,1411487.175,NULL,Widerstand,usulubu,d,NA,NA,NA,NA,sdf,0,2,NA,NA,NA,NA,NA,NA,NA,NA,NA,NA,NA,NA,NA,NA,NA,NA,NA,NA,NA
4a463,deep,flow.Sequence,3_0_2_0_3_0,NA,NA,completion,21184.108,1390273.2,1390269.735,1390286.401,1411470.509,1411472.3,2023-03-09T12:37:16Z,1411487.175,NULL,Widerstand,usulubu,d,NA,NA,NA,NA,sdf,NA,2,NA,NA,NA,NA,NA,NA,NA,NA,NA,NA,NA,NA,NA,NA,NA,NA,NA,NA,NA
4a463,shallow,flow.Sequence,3_0_2_0_3_1,NA,NA,skipped,NA,1411472.4,NA,NA,1411470.509,1411472.4,2023-03-09T12:37:16Z,1411487.175,NULL,Widerstand,usulubu,d,NA,NA,NA,NA,sdf,NA,2,NA,NA,NA,NA,NA,NA,NA,NA,NA,NA,NA,NA,NA,NA,NA,NA,NA,NA,NA
4a463,task,flow.Sequence,3_0_2_0_3,NA,NA,completion,21184.108,1390273.1,1390269.735,1390286.401,1411470.509,1411472.4,2023-03-09T12:37:16Z,1411487.175,NULL,Widerstand,usulubu,d,NA,NA,NA,NA,sdf,NA,2,NA,NA,NA,NA,NA,NA,NA,NA,NA,NA,NA,NA,NA,NA,NA,NA,NA,NA,NA
4a463,deep,flow.Sequence,3_0_2_0_4_0,NA,NA,skipped,NA,1411472.4,NA,NA,1411470.509,1411472.4,2023-03-09T12:37:16Z,1411487.175,NULL,Gelegenheit,wakati,s,mchanganyiko,kipaumbele,kushuku,NA,sdf,NA,2,NA,NA,NA,NA,NA,NA,NA,NA,NA,NA,NA,NA,NA,NA,NA,NA,NA,NA,NA
4a463,Shallow Question,html.Page,3_0_2_0_4_1_0,NA,NA,form submission,3530.825,1411472.4,1411470.509,1411487.175,1415018,1415018.7,2023-03-09T12:37:20Z,1415020.858,NULL,Gelegenheit,wakati,s,mchanganyiko,kipaumbele,kushuku,wakati,NA,NA,2,NA,NA,NA,NA,NA,NA,NA,NA,NA,NA,NA,NA,NA,NA,NA,NA,NA,NA,NA
4a463,"""Richtig""-Screen",canvas.Screen,3_0_2_0_4_1_1,NA,NA,timeout,4999.8,1415022,1415004.192,1415020.858,1420003.992,1420007,2023-03-09T12:37:25Z,1420020.658,NULL,Gelegenheit,wakati,s,mchanganyiko,kipaumbele,kushuku,NA,sdf,1,2,NA,NA,NA,NA,NA,NA,NA,NA,NA,NA,NA,NA,NA,NA,NA,NA,NA,NA,NA
4a463,"""Falsch""-Screen",canvas.Screen,3_0_2_0_4_1_2,NA,NA,skipped,NA,1420011.7,NA,NA,1420003.992,1420011.9,2023-03-09T12:37:25Z,1420020.658,NULL,Gelegenheit,wakati,s,mchanganyiko,kipaumbele,kushuku,NA,sdf,NA,2,NA,NA,NA,NA,NA,NA,NA,NA,NA,NA,NA,NA,NA,NA,NA,NA,NA,NA,NA
4a463,shallow,flow.Sequence,3_0_2_0_4_1,NA,NA,completion,8516.817,1411472.4,1411470.509,1411487.175,1420003.992,1420012.2,2023-03-09T12:37:25Z,1420020.658,NULL,Gelegenheit,wakati,s,mchanganyiko,kipaumbele,kushuku,NA,sdf,NA,2,NA,NA,NA,NA,NA,NA,NA,NA,NA,NA,NA,NA,NA,NA,NA,NA,NA,NA,NA
4a463,task,flow.Sequence,3_0_2_0_4,NA,NA,completion,8516.817,1411472.4,1411470.509,1411487.175,1420003.992,1420012.3,2023-03-09T12:37:25Z,1420020.658,NULL,Gelegenheit,wakati,s,mchanganyiko,kipaumbele,kushuku,NA,sdf,NA,2,NA,NA,NA,NA,NA,NA,NA,NA,NA,NA,NA,NA,NA,NA,NA,NA,NA,NA,NA
4a463,Deep Question,html.Page,3_0_2_0_5_0_0,NA,NA,form submission,5247.2420000003,1420012.5,1420003.992,1420020.658,1425267.9,1425268,2023-03-09T12:37:30Z,1425287.698,NULL,Verstand,ufahamivu,d,NA,NA,NA,mafanikio,NA,NA,2,NA,NA,NA,NA,NA,NA,NA,NA,NA,NA,NA,NA,NA,NA,NA,NA,NA,NA,NA
4a463,"""Richtig""-Screen",canvas.Screen,3_0_2_0_5_0_1,NA,NA,skipped,NA,1425268.9,NA,NA,1425267.9,1425268.9,2023-03-09T12:37:30Z,1425287.698,NULL,Verstand,ufahamivu,d,NA,NA,NA,NA,sdf,NA,2,NA,NA,NA,NA,NA,NA,NA,NA,NA,NA,NA,NA,NA,NA,NA,NA,NA,NA,NA
4a463,"""Falsch""-Screen",canvas.Screen,3_0_2_0_5_0_2,NA,NA,timeout,4999.7999999998,1425269.1,1425271.032,1425287.698,1430270.832,1430273.1,2023-03-09T12:37:35Z,1430287.498,NULL,Verstand,ufahamivu,d,NA,NA,NA,NA,sdf,0,2,NA,NA,NA,NA,NA,NA,NA,NA,NA,NA,NA,NA,NA,NA,NA,NA,NA,NA,NA
4a463,deep,flow.Sequence,3_0_2_0_5_0,NA,NA,completion,10250.174,1420012.4,1420003.992,1420020.658,1430270.832,1430273.4,2023-03-09T12:37:35Z,1430287.498,NULL,Verstand,ufahamivu,d,NA,NA,NA,NA,sdf,NA,2,NA,NA,NA,NA,NA,NA,NA,NA,NA,NA,NA,NA,NA,NA,NA,NA,NA,NA,NA
4a463,shallow,flow.Sequence,3_0_2_0_5_1,NA,NA,skipped,NA,1430273.6,NA,NA,1430270.832,1430273.7,2023-03-09T12:37:35Z,1430287.498,NULL,Verstand,ufahamivu,d,NA,NA,NA,NA,sdf,NA,2,NA,NA,NA,NA,NA,NA,NA,NA,NA,NA,NA,NA,NA,NA,NA,NA,NA,NA,NA
4a463,task,flow.Sequence,3_0_2_0_5,NA,NA,completion,10250.174,1420012.4,1420003.992,1420020.658,1430270.832,1430273.9,2023-03-09T12:37:35Z,1430287.498,NULL,Verstand,ufahamivu,d,NA,NA,NA,NA,sdf,NA,2,NA,NA,NA,NA,NA,NA,NA,NA,NA,NA,NA,NA,NA,NA,NA,NA,NA,NA,NA
4a463,deep,flow.Sequence,3_0_2_0_6_0,NA,NA,skipped,NA,1430274.1,NA,NA,1430270.832,1430274.2,2023-03-09T12:37:35Z,1430287.498,NULL,Notfall,dharura,s,rairai,malalamiko,ahueni,NA,sdf,NA,2,NA,NA,NA,NA,NA,NA,NA,NA,NA,NA,NA,NA,NA,NA,NA,NA,NA,NA,NA
4a463,Shallow Question,html.Page,3_0_2_0_6_1_0,NA,NA,form submission,3382.2019999993,1430274.3,1430270.832,1430287.498,1433669.7,1433670.3,2023-03-09T12:37:38Z,1433670.696,NULL,Notfall,dharura,s,rairai,malalamiko,ahueni,dharura,NA,NA,2,NA,NA,NA,NA,NA,NA,NA,NA,NA,NA,NA,NA,NA,NA,NA,NA,NA,NA,NA
4a463,"""Richtig""-Screen",canvas.Screen,3_0_2_0_6_1_1,NA,NA,timeout,4999.8,1433673.9,1433654.03,1433670.696,1438653.83,1438656.5,2023-03-09T12:37:43Z,1438670.496,NULL,Notfall,dharura,s,rairai,malalamiko,ahueni,NA,sdf,1,2,NA,NA,NA,NA,NA,NA,NA,NA,NA,NA,NA,NA,NA,NA,NA,NA,NA,NA,NA
4a463,"""Falsch""-Screen",canvas.Screen,3_0_2_0_6_1_2,NA,NA,skipped,NA,1438660.9,NA,NA,1438653.83,1438661,2023-03-09T12:37:43Z,1438670.496,NULL,Notfall,dharura,s,rairai,malalamiko,ahueni,NA,sdf,NA,2,NA,NA,NA,NA,NA,NA,NA,NA,NA,NA,NA,NA,NA,NA,NA,NA,NA,NA,NA
4a463,shallow,flow.Sequence,3_0_2_0_6_1,NA,NA,completion,8366.3320000002,1430274.2,1430270.832,1430287.498,1438653.83,1438661.3,2023-03-09T12:37:43Z,1438670.496,NULL,Notfall,dharura,s,rairai,malalamiko,ahueni,NA,sdf,NA,2,NA,NA,NA,NA,NA,NA,NA,NA,NA,NA,NA,NA,NA,NA,NA,NA,NA,NA,NA
4a463,task,flow.Sequence,3_0_2_0_6,NA,NA,completion,8366.3320000002,1430274,1430270.832,1430287.498,1438653.83,1438661.3,2023-03-09T12:37:43Z,1438670.496,NULL,Notfall,dharura,s,rairai,malalamiko,ahueni,NA,sdf,NA,2,NA,NA,NA,NA,NA,NA,NA,NA,NA,NA,NA,NA,NA,NA,NA,NA,NA,NA,NA
4a463,deep,flow.Sequence,3_0_2_0_7_0,NA,NA,skipped,NA,1438661.4,NA,NA,1438653.83,1438661.5,2023-03-09T12:37:43Z,1438670.496,NULL,Vergnügen,kichekesho,s,dubwana,mpanuko,mtesaji,NA,sdf,NA,2,NA,NA,NA,NA,NA,NA,NA,NA,NA,NA,NA,NA,NA,NA,NA,NA,NA,NA,NA
4a463,Shallow Question,html.Page,3_0_2_0_7_1_0,NA,NA,form submission,4071.4040000003,1438661.7,1438653.83,1438670.496,1442741.9,1442742.5,2023-03-09T12:37:47Z,1442754.591,NULL,Vergnügen,kichekesho,s,dubwana,mpanuko,mtesaji,kichekesho,NA,NA,2,NA,NA,NA,NA,NA,NA,NA,NA,NA,NA,NA,NA,NA,NA,NA,NA,NA,NA,NA
4a463,"""Richtig""-Screen",canvas.Screen,3_0_2_0_7_1_1,NA,NA,timeout,4999.8,1442745.8,1442737.925,1442754.591,1447737.725,1447740.4,2023-03-09T12:37:52Z,1447754.391,NULL,Vergnügen,kichekesho,s,dubwana,mpanuko,mtesaji,NA,sdf,1,2,NA,NA,NA,NA,NA,NA,NA,NA,NA,NA,NA,NA,NA,NA,NA,NA,NA,NA,NA
4a463,"""Falsch""-Screen",canvas.Screen,3_0_2_0_7_1_2,NA,NA,skipped,NA,1447743.7,NA,NA,1447737.725,1447743.8,2023-03-09T12:37:53Z,1447754.391,NULL,Vergnügen,kichekesho,s,dubwana,mpanuko,mtesaji,NA,sdf,NA,2,NA,NA,NA,NA,NA,NA,NA,NA,NA,NA,NA,NA,NA,NA,NA,NA,NA,NA,NA
4a463,shallow,flow.Sequence,3_0_2_0_7_1,NA,NA,completion,9067.2290000001,1438661.6,1438653.83,1438670.496,1447737.725,1447744,2023-03-09T12:37:53Z,1447754.391,NULL,Vergnügen,kichekesho,s,dubwana,mpanuko,mtesaji,NA,sdf,NA,2,NA,NA,NA,NA,NA,NA,NA,NA,NA,NA,NA,NA,NA,NA,NA,NA,NA,NA,NA
4a463,task,flow.Sequence,3_0_2_0_7,NA,NA,completion,9067.2290000001,1438661.4,1438653.83,1438670.496,1447737.725,1447744.2,2023-03-09T12:37:53Z,1447754.391,NULL,Vergnügen,kichekesho,s,dubwana,mpanuko,mtesaji,NA,sdf,NA,2,NA,NA,NA,NA,NA,NA,NA,NA,NA,NA,NA,NA,NA,NA,NA,NA,NA,NA,NA
4a463,block,flow.Loop,3_0_2_0,NA,NA,completion,90567.32,1357165.5,1357153.739,1357170.405,1447737.725,1447744.3,2023-03-09T12:37:53Z,1447754.391,NULL,NA,NA,NA,NA,NA,NA,NA,sdf,NA,2,NA,NA,NA,NA,NA,NA,NA,NA,NA,NA,NA,NA,NA,NA,NA,NA,NA,NA,NA
4a463,weiter,canvas.Screen,3_0_2_1,sdf,keypress(Space),response,698.20899999957,1447744.4,1447737.725,1447754.391,1448452.6,1448456.4,2023-03-09T12:37:53Z,1448487.695,NULL,NA,NA,NA,NA,NA,NA,NA,sdf,NA,2,NA,NA,NA,NA,NA,NA,NA,NA,NA,NA,NA,NA,NA,NA,NA,NA,NA,NA,NA
4a463,check continue,flow.Sequence,3_0_2,NA,NA,completion,91282.195,1357165.4,1357153.739,1357170.405,1448452.6,1448456.6,2023-03-09T12:37:53Z,1448487.695,NULL,NA,NA,NA,NA,NA,NA,NA,sdf,NA,2,NA,NA,NA,NA,NA,NA,NA,NA,NA,NA,NA,NA,NA,NA,NA,NA,NA,NA,NA
4a463,deep,flow.Sequence,3_0_3_0_0_0,NA,NA,skipped,NA,1448482.7,NA,NA,1448452.6,1448482.7,2023-03-09T12:37:53Z,1448487.695,NULL,Gelegenheit,wakati,s,mchanganyiko,kipaumbele,kushuku,NA,qt,NA,3,NA,NA,NA,NA,NA,NA,NA,NA,NA,NA,NA,NA,NA,NA,NA,NA,NA,NA,NA
4a463,Shallow Question,html.Page,3_0_3_0_0_1_0,NA,NA,form submission,2430.7050000003,1448482.8,1448471.029,1448487.695,1450918.4,1450918.9,2023-03-09T12:37:56Z,1450920.931,NULL,Gelegenheit,wakati,s,mchanganyiko,kipaumbele,kushuku,wakati,NA,NA,3,NA,NA,NA,NA,NA,NA,NA,NA,NA,NA,NA,NA,NA,NA,NA,NA,NA,NA,NA
4a463,"""Richtig""-Screen",canvas.Screen,3_0_3_0_0_1_1,NA,NA,timeout,5000.5079999999,1450920.5,1450904.265,1450920.931,1455904.773,1455907.2,2023-03-09T12:38:01Z,1455921.439,NULL,Gelegenheit,wakati,s,mchanganyiko,kipaumbele,kushuku,NA,qt,1,3,NA,NA,NA,NA,NA,NA,NA,NA,NA,NA,NA,NA,NA,NA,NA,NA,NA,NA,NA
4a463,"""Falsch""-Screen",canvas.Screen,3_0_3_0_0_1_2,NA,NA,skipped,NA,1455908.6,NA,NA,1455904.773,1455908.8,2023-03-09T12:38:01Z,1455921.439,NULL,Gelegenheit,wakati,s,mchanganyiko,kipaumbele,kushuku,NA,qt,NA,3,NA,NA,NA,NA,NA,NA,NA,NA,NA,NA,NA,NA,NA,NA,NA,NA,NA,NA,NA
4a463,shallow,flow.Sequence,3_0_3_0_0_1,NA,NA,completion,7417.078,1448482.8,1448471.029,1448487.695,1455904.773,1455908.8,2023-03-09T12:38:01Z,1455921.439,NULL,Gelegenheit,wakati,s,mchanganyiko,kipaumbele,kushuku,NA,qt,NA,3,NA,NA,NA,NA,NA,NA,NA,NA,NA,NA,NA,NA,NA,NA,NA,NA,NA,NA,NA
4a463,task,flow.Sequence,3_0_3_0_0,NA,NA,completion,7417.078,1448482.6,1448471.029,1448487.695,1455904.773,1455908.9,2023-03-09T12:38:01Z,1455921.439,NULL,Gelegenheit,wakati,s,mchanganyiko,kipaumbele,kushuku,NA,qt,NA,3,NA,NA,NA,NA,NA,NA,NA,NA,NA,NA,NA,NA,NA,NA,NA,NA,NA,NA,NA
4a463,deep,flow.Sequence,3_0_3_0_1_0,NA,NA,skipped,NA,1455909,NA,NA,1455904.773,1455909,2023-03-09T12:38:01Z,1455921.439,NULL,Vergnügen,kichekesho,s,dubwana,mpanuko,mtesaji,NA,qt,NA,3,NA,NA,NA,NA,NA,NA,NA,NA,NA,NA,NA,NA,NA,NA,NA,NA,NA,NA,NA
4a463,Shallow Question,html.Page,3_0_3_0_1_1_0,NA,NA,form submission,3299.9610000004,1455909,1455904.773,1455921.439,1459221.4,1459221.4,2023-03-09T12:38:04Z,1459237.973,NULL,Vergnügen,kichekesho,s,dubwana,mpanuko,mtesaji,kichekesho,NA,NA,3,NA,NA,NA,NA,NA,NA,NA,NA,NA,NA,NA,NA,NA,NA,NA,NA,NA,NA,NA
4a463,"""Richtig""-Screen",canvas.Screen,3_0_3_0_1_1_1,NA,NA,timeout,4999.8,1459221.8,1459221.307,1459237.973,1464221.107,1464223.5,2023-03-09T12:38:09Z,1464237.773,NULL,Vergnügen,kichekesho,s,dubwana,mpanuko,mtesaji,NA,qt,1,3,NA,NA,NA,NA,NA,NA,NA,NA,NA,NA,NA,NA,NA,NA,NA,NA,NA,NA,NA
4a463,"""Falsch""-Screen",canvas.Screen,3_0_3_0_1_1_2,NA,NA,skipped,NA,1464227.2,NA,NA,1464221.107,1464227.2,2023-03-09T12:38:09Z,1464237.773,NULL,Vergnügen,kichekesho,s,dubwana,mpanuko,mtesaji,NA,qt,NA,3,NA,NA,NA,NA,NA,NA,NA,NA,NA,NA,NA,NA,NA,NA,NA,NA,NA,NA,NA
4a463,shallow,flow.Sequence,3_0_3_0_1_1,NA,NA,completion,8299.6680000001,1455909,1455904.773,1455921.439,1464221.107,1464227.4,2023-03-09T12:38:09Z,1464237.773,NULL,Vergnügen,kichekesho,s,dubwana,mpanuko,mtesaji,NA,qt,NA,3,NA,NA,NA,NA,NA,NA,NA,NA,NA,NA,NA,NA,NA,NA,NA,NA,NA,NA,NA
4a463,task,flow.Sequence,3_0_3_0_1,NA,NA,completion,8299.6680000001,1455909,1455904.773,1455921.439,1464221.107,1464227.5,2023-03-09T12:38:09Z,1464237.773,NULL,Vergnügen,kichekesho,s,dubwana,mpanuko,mtesaji,NA,qt,NA,3,NA,NA,NA,NA,NA,NA,NA,NA,NA,NA,NA,NA,NA,NA,NA,NA,NA,NA,NA
4a463,deep,flow.Sequence,3_0_3_0_2_0,NA,NA,skipped,NA,1464227.6,NA,NA,1464221.107,1464227.7,2023-03-09T12:38:09Z,1464237.773,NULL,Ausschluss,kutengwa,s,ununuzi,taratibu,madeni,NA,qt,NA,3,NA,NA,NA,NA,NA,NA,NA,NA,NA,NA,NA,NA,NA,NA,NA,NA,NA,NA,NA
4a463,Shallow Question,html.Page,3_0_3_0_2_1_0,NA,NA,form submission,2434.5270000007,1464227.8,1464221.107,1464237.773,1466672.3,1466672.8,2023-03-09T12:38:11Z,1466671.618,NULL,Ausschluss,kutengwa,s,ununuzi,taratibu,madeni,kutengwa,NA,NA,3,NA,NA,NA,NA,NA,NA,NA,NA,NA,NA,NA,NA,NA,NA,NA,NA,NA,NA,NA
4a463,"""Richtig""-Screen",canvas.Screen,3_0_3_0_2_1_1,NA,NA,timeout,4999.8,1466674.2,1466654.952,1466671.618,1471654.752,1471656.7,2023-03-09T12:38:16Z,1471671.418,NULL,Ausschluss,kutengwa,s,ununuzi,taratibu,madeni,NA,qt,1,3,NA,NA,NA,NA,NA,NA,NA,NA,NA,NA,NA,NA,NA,NA,NA,NA,NA,NA,NA
4a463,"""Falsch""-Screen",canvas.Screen,3_0_3_0_2_1_2,NA,NA,skipped,NA,1471660.8,NA,NA,1471654.752,1471660.9,2023-03-09T12:38:16Z,1471671.418,NULL,Ausschluss,kutengwa,s,ununuzi,taratibu,madeni,NA,qt,NA,3,NA,NA,NA,NA,NA,NA,NA,NA,NA,NA,NA,NA,NA,NA,NA,NA,NA,NA,NA
4a463,shallow,flow.Sequence,3_0_3_0_2_1,NA,NA,completion,7416.9790000001,1464227.8,1464221.107,1464237.773,1471654.752,1471661.1,2023-03-09T12:38:16Z,1471671.418,NULL,Ausschluss,kutengwa,s,ununuzi,taratibu,madeni,NA,qt,NA,3,NA,NA,NA,NA,NA,NA,NA,NA,NA,NA,NA,NA,NA,NA,NA,NA,NA,NA,NA
4a463,task,flow.Sequence,3_0_3_0_2,NA,NA,completion,7416.9790000001,1464227.6,1464221.107,1464237.773,1471654.752,1471661.2,2023-03-09T12:38:16Z,1471671.418,NULL,Ausschluss,kutengwa,s,ununuzi,taratibu,madeni,NA,qt,NA,3,NA,NA,NA,NA,NA,NA,NA,NA,NA,NA,NA,NA,NA,NA,NA,NA,NA,NA,NA
4a463,deep,flow.Sequence,3_0_3_0_3_0,NA,NA,skipped,NA,1471661.3,NA,NA,1471654.752,1471661.4,2023-03-09T12:38:16Z,1471671.418,NULL,Notfall,dharura,s,rairai,malalamiko,ahueni,NA,qt,NA,3,NA,NA,NA,NA,NA,NA,NA,NA,NA,NA,NA,NA,NA,NA,NA,NA,NA,NA,NA
4a463,Shallow Question,html.Page,3_0_3_0_3_1_0,NA,NA,form submission,2292.6819999996,1471661.6,1471654.752,1471671.418,1473964.1,1473964.6,2023-03-09T12:38:19Z,1473971.326,NULL,Notfall,dharura,s,rairai,malalamiko,ahueni,dharura,NA,NA,3,NA,NA,NA,NA,NA,NA,NA,NA,NA,NA,NA,NA,NA,NA,NA,NA,NA,NA,NA
4a463,"""Richtig""-Screen",canvas.Screen,3_0_3_0_3_1_1,NA,NA,timeout,4999.8,1473967.9,1473954.66,1473971.326,1478954.46,1478956.6,2023-03-09T12:38:24Z,1478971.126,NULL,Notfall,dharura,s,rairai,malalamiko,ahueni,NA,qt,1,3,NA,NA,NA,NA,NA,NA,NA,NA,NA,NA,NA,NA,NA,NA,NA,NA,NA,NA,NA
4a463,"""Falsch""-Screen",canvas.Screen,3_0_3_0_3_1_2,NA,NA,skipped,NA,1478961.5,NA,NA,1478954.46,1478961.8,2023-03-09T12:38:24Z,1478971.126,NULL,Notfall,dharura,s,rairai,malalamiko,ahueni,NA,qt,NA,3,NA,NA,NA,NA,NA,NA,NA,NA,NA,NA,NA,NA,NA,NA,NA,NA,NA,NA,NA
4a463,shallow,flow.Sequence,3_0_3_0_3_1,NA,NA,completion,7283.0419999999,1471661.5,1471654.752,1471671.418,1478954.46,1478962,2023-03-09T12:38:24Z,1478971.126,NULL,Notfall,dharura,s,rairai,malalamiko,ahueni,NA,qt,NA,3,NA,NA,NA,NA,NA,NA,NA,NA,NA,NA,NA,NA,NA,NA,NA,NA,NA,NA,NA
4a463,task,flow.Sequence,3_0_3_0_3,NA,NA,completion,7283.0419999999,1471661.3,1471654.752,1471671.418,1478954.46,1478962,2023-03-09T12:38:24Z,1478971.126,NULL,Notfall,dharura,s,rairai,malalamiko,ahueni,NA,qt,NA,3,NA,NA,NA,NA,NA,NA,NA,NA,NA,NA,NA,NA,NA,NA,NA,NA,NA,NA,NA
4a463,Deep Question,html.Page,3_0_3_0_4_0_0,NA,NA,form submission,4804.6740000008,1478962.2,1478954.46,1478971.126,1483775.8,1483776.3,2023-03-09T12:38:29Z,1483788.262,NULL,Widerstand,usulubu,d,NA,NA,NA,usulubu,NA,NA,3,NA,NA,NA,NA,NA,NA,NA,NA,NA,NA,NA,NA,NA,NA,NA,NA,NA,NA,NA
4a463,"""Richtig""-Screen",canvas.Screen,3_0_3_0_4_0_1,NA,NA,timeout,4999.7999999998,1483778.8,1483771.596,1483788.262,1488771.396,1488774,2023-03-09T12:38:34Z,1488788.062,NULL,Widerstand,usulubu,d,NA,NA,NA,NA,qt,1,3,NA,NA,NA,NA,NA,NA,NA,NA,NA,NA,NA,NA,NA,NA,NA,NA,NA,NA,NA
4a463,"""Falsch""-Screen",canvas.Screen,3_0_3_0_4_0_2,NA,NA,skipped,NA,1488778.1,NA,NA,1488771.396,1488778.2,2023-03-09T12:38:34Z,1488788.062,NULL,Widerstand,usulubu,d,NA,NA,NA,NA,qt,NA,3,NA,NA,NA,NA,NA,NA,NA,NA,NA,NA,NA,NA,NA,NA,NA,NA,NA,NA,NA
4a463,deep,flow.Sequence,3_0_3_0_4_0,NA,NA,completion,9800.27,1478962.2,1478954.46,1478971.126,1488771.396,1488778.2,2023-03-09T12:38:34Z,1488788.062,NULL,Widerstand,usulubu,d,NA,NA,NA,NA,qt,NA,3,NA,NA,NA,NA,NA,NA,NA,NA,NA,NA,NA,NA,NA,NA,NA,NA,NA,NA,NA
4a463,shallow,flow.Sequence,3_0_3_0_4_1,NA,NA,skipped,NA,1488778.3,NA,NA,1488771.396,1488778.4,2023-03-09T12:38:34Z,1488788.062,NULL,Widerstand,usulubu,d,NA,NA,NA,NA,qt,NA,3,NA,NA,NA,NA,NA,NA,NA,NA,NA,NA,NA,NA,NA,NA,NA,NA,NA,NA,NA
4a463,task,flow.Sequence,3_0_3_0_4,NA,NA,completion,9800.27,1478962.1,1478954.46,1478971.126,1488771.396,1488778.5,2023-03-09T12:38:34Z,1488788.062,NULL,Widerstand,usulubu,d,NA,NA,NA,NA,qt,NA,3,NA,NA,NA,NA,NA,NA,NA,NA,NA,NA,NA,NA,NA,NA,NA,NA,NA,NA,NA
4a463,Deep Question,html.Page,3_0_3_0_5_0_0,NA,NA,form submission,11817.038,1488778.6,1488771.396,1488788.062,1500605.1,1500605.4,2023-03-09T12:38:45Z,1500605.212,NULL,Verstand,ufahamivu,d,NA,NA,NA,ufalafa,NA,NA,3,NA,NA,NA,NA,NA,NA,NA,NA,NA,NA,NA,NA,NA,NA,NA,NA,NA,NA,NA
4a463,"""Richtig""-Screen",canvas.Screen,3_0_3_0_5_0_1,NA,NA,skipped,NA,1500608.4,NA,NA,1500605.1,1500608.5,2023-03-09T12:38:45Z,1500605.212,NULL,Verstand,ufahamivu,d,NA,NA,NA,NA,qt,NA,3,NA,NA,NA,NA,NA,NA,NA,NA,NA,NA,NA,NA,NA,NA,NA,NA,NA,NA,NA
4a463,"""Falsch""-Screen",canvas.Screen,3_0_3_0_5_0_2,NA,NA,timeout,4999.8,1500609.3,1500588.546,1500605.212,1505588.346,1505590.7,2023-03-09T12:38:50Z,1505605.012,NULL,Verstand,ufahamivu,d,NA,NA,NA,NA,qt,0,3,NA,NA,NA,NA,NA,NA,NA,NA,NA,NA,NA,NA,NA,NA,NA,NA,NA,NA,NA
4a463,deep,flow.Sequence,3_0_3_0_5_0,NA,NA,completion,16800.284,1488778.6,1488771.396,1488788.062,1505588.346,1505591.1,2023-03-09T12:38:50Z,1505605.012,NULL,Verstand,ufahamivu,d,NA,NA,NA,NA,qt,NA,3,NA,NA,NA,NA,NA,NA,NA,NA,NA,NA,NA,NA,NA,NA,NA,NA,NA,NA,NA
4a463,shallow,flow.Sequence,3_0_3_0_5_1,NA,NA,skipped,NA,1505591.2,NA,NA,1505588.346,1505591.4,2023-03-09T12:38:50Z,1505605.012,NULL,Verstand,ufahamivu,d,NA,NA,NA,NA,qt,NA,3,NA,NA,NA,NA,NA,NA,NA,NA,NA,NA,NA,NA,NA,NA,NA,NA,NA,NA,NA
4a463,task,flow.Sequence,3_0_3_0_5,NA,NA,completion,16800.284,1488778.6,1488771.396,1488788.062,1505588.346,1505591.6,2023-03-09T12:38:50Z,1505605.012,NULL,Verstand,ufahamivu,d,NA,NA,NA,NA,qt,NA,3,NA,NA,NA,NA,NA,NA,NA,NA,NA,NA,NA,NA,NA,NA,NA,NA,NA,NA,NA
4a463,Deep Question,html.Page,3_0_3_0_6_0_0,NA,NA,form submission,13090.588,1505591.8,1505588.346,1505605.012,1518695.6,1518696,2023-03-09T12:39:03Z,1518705.127,NULL,Ergänzung,kijalizo,d,NA,NA,NA,s,NA,NA,3,NA,NA,NA,NA,NA,NA,NA,NA,NA,NA,NA,NA,NA,NA,NA,NA,NA,NA,NA
4a463,"""Richtig""-Screen",canvas.Screen,3_0_3_0_6_0_1,NA,NA,skipped,NA,1518699.7,NA,NA,1518695.6,1518700,2023-03-09T12:39:03Z,1518705.127,NULL,Ergänzung,kijalizo,d,NA,NA,NA,NA,qt,NA,3,NA,NA,NA,NA,NA,NA,NA,NA,NA,NA,NA,NA,NA,NA,NA,NA,NA,NA,NA
4a463,"""Falsch""-Screen",canvas.Screen,3_0_3_0_6_0_2,NA,NA,timeout,4999.7999999998,1518700.9,1518688.461,1518705.127,1523688.261,1523690.3,2023-03-09T12:39:08Z,1523704.927,NULL,Ergänzung,kijalizo,d,NA,NA,NA,NA,qt,0,3,NA,NA,NA,NA,NA,NA,NA,NA,NA,NA,NA,NA,NA,NA,NA,NA,NA,NA,NA
4a463,deep,flow.Sequence,3_0_3_0_6_0,NA,NA,completion,18083.249,1505591.7,1505588.346,1505605.012,1523688.261,1523690.8,2023-03-09T12:39:08Z,1523704.927,NULL,Ergänzung,kijalizo,d,NA,NA,NA,NA,qt,NA,3,NA,NA,NA,NA,NA,NA,NA,NA,NA,NA,NA,NA,NA,NA,NA,NA,NA,NA,NA
4a463,shallow,flow.Sequence,3_0_3_0_6_1,NA,NA,skipped,NA,1523690.9,NA,NA,1523688.261,1523691.1,2023-03-09T12:39:08Z,1523704.927,NULL,Ergänzung,kijalizo,d,NA,NA,NA,NA,qt,NA,3,NA,NA,NA,NA,NA,NA,NA,NA,NA,NA,NA,NA,NA,NA,NA,NA,NA,NA,NA
4a463,task,flow.Sequence,3_0_3_0_6,NA,NA,completion,18083.249,1505591.7,1505588.346,1505605.012,1523688.261,1523691.3,2023-03-09T12:39:08Z,1523704.927,NULL,Ergänzung,kijalizo,d,NA,NA,NA,NA,qt,NA,3,NA,NA,NA,NA,NA,NA,NA,NA,NA,NA,NA,NA,NA,NA,NA,NA,NA,NA,NA
4a463,Deep Question,html.Page,3_0_3_0_7_0_0,NA,NA,form submission,4707.1729999997,1523691.4,1523688.261,1523704.927,1528412.1,1528412.8,2023-03-09T12:39:13Z,1528422.07,NULL,Wohlstand,mafanikio,d,NA,NA,NA,mafanikio,NA,NA,3,NA,NA,NA,NA,NA,NA,NA,NA,NA,NA,NA,NA,NA,NA,NA,NA,NA,NA,NA
4a463,"""Richtig""-Screen",canvas.Screen,3_0_3_0_7_0_1,NA,NA,timeout,4999.8,1528416.4,1528405.404,1528422.07,1533405.204,1533407.2,2023-03-09T12:39:18Z,1533421.87,NULL,Wohlstand,mafanikio,d,NA,NA,NA,NA,qt,1,3,NA,NA,NA,NA,NA,NA,NA,NA,NA,NA,NA,NA,NA,NA,NA,NA,NA,NA,NA
4a463,"""Falsch""-Screen",canvas.Screen,3_0_3_0_7_0_2,NA,NA,skipped,NA,1533411,NA,NA,1533405.204,1533411.1,2023-03-09T12:39:18Z,1533421.87,NULL,Wohlstand,mafanikio,d,NA,NA,NA,NA,qt,NA,3,NA,NA,NA,NA,NA,NA,NA,NA,NA,NA,NA,NA,NA,NA,NA,NA,NA,NA,NA
4a463,deep,flow.Sequence,3_0_3_0_7_0,NA,NA,completion,9700.277,1523691.4,1523688.261,1523704.927,1533405.204,1533411.3,2023-03-09T12:39:18Z,1533421.87,NULL,Wohlstand,mafanikio,d,NA,NA,NA,NA,qt,NA,3,NA,NA,NA,NA,NA,NA,NA,NA,NA,NA,NA,NA,NA,NA,NA,NA,NA,NA,NA
4a463,shallow,flow.Sequence,3_0_3_0_7_1,NA,NA,skipped,NA,1533411.3,NA,NA,1533405.204,1533411.4,2023-03-09T12:39:18Z,1533421.87,NULL,Wohlstand,mafanikio,d,NA,NA,NA,NA,qt,NA,3,NA,NA,NA,NA,NA,NA,NA,NA,NA,NA,NA,NA,NA,NA,NA,NA,NA,NA,NA
4a463,task,flow.Sequence,3_0_3_0_7,NA,NA,completion,9700.277,1523691.4,1523688.261,1523704.927,1533405.204,1533411.5,2023-03-09T12:39:18Z,1533421.87,NULL,Wohlstand,mafanikio,d,NA,NA,NA,NA,qt,NA,3,NA,NA,NA,NA,NA,NA,NA,NA,NA,NA,NA,NA,NA,NA,NA,NA,NA,NA,NA
4a463,block,flow.Loop,3_0_3_0,NA,NA,completion,84917.509,1448482.6,1448471.029,1448487.695,1533405.204,1533411.6,2023-03-09T12:39:18Z,1533421.87,NULL,NA,NA,NA,NA,NA,NA,NA,qt,NA,3,NA,NA,NA,NA,NA,NA,NA,NA,NA,NA,NA,NA,NA,NA,NA,NA,NA,NA,NA
4a463,weiter,canvas.Screen,3_0_3_1,sdf,keypress(Space),response,506.23000000138,1533411.6,1533405.204,1533421.87,1533928.1,1533931.7,2023-03-09T12:39:19Z,1534155.174,NULL,NA,NA,NA,NA,NA,NA,NA,qt,NA,3,NA,NA,NA,NA,NA,NA,NA,NA,NA,NA,NA,NA,NA,NA,NA,NA,NA,NA,NA
4a463,check continue,flow.Sequence,3_0_3,NA,NA,completion,85440.405000001,1448482.6,1448471.029,1448487.695,1533928.1,1533932,2023-03-09T12:39:19Z,1534155.174,NULL,NA,NA,NA,NA,NA,NA,NA,qt,NA,3,NA,NA,NA,NA,NA,NA,NA,NA,NA,NA,NA,NA,NA,NA,NA,NA,NA,NA,NA
4a463,check continue,flow.Sequence,3_0_4,NA,NA,skipped,NA,1533959.2,NA,NA,1533928.1,1533959.3,2023-03-09T12:39:19Z,1534155.174,NULL,NA,NA,NA,NA,NA,NA,NA,sd,NA,4,NA,NA,NA,NA,NA,NA,NA,NA,NA,NA,NA,NA,NA,NA,NA,NA,NA,NA,NA
4a463,check continue,flow.Sequence,3_0_5,NA,NA,skipped,NA,1533973.1,NA,NA,1533928.1,1533973.1,2023-03-09T12:39:19Z,1534155.174,NULL,NA,NA,NA,NA,NA,NA,NA,sdf,NA,5,NA,NA,NA,NA,NA,NA,NA,NA,NA,NA,NA,NA,NA,NA,NA,NA,NA,NA,NA
4a463,check continue,flow.Sequence,3_0_6,NA,NA,skipped,NA,1533984.6,NA,NA,1533928.1,1533984.7,2023-03-09T12:39:19Z,1534155.174,NULL,NA,NA,NA,NA,NA,NA,NA,dfs,NA,6,NA,NA,NA,NA,NA,NA,NA,NA,NA,NA,NA,NA,NA,NA,NA,NA,NA,NA,NA
4a463,check continue,flow.Sequence,3_0_7,NA,NA,skipped,NA,1533994.3,NA,NA,1533928.1,1533994.3,2023-03-09T12:39:19Z,1534155.174,NULL,NA,NA,NA,NA,NA,NA,NA,df,NA,7,NA,NA,NA,NA,NA,NA,NA,NA,NA,NA,NA,NA,NA,NA,NA,NA,NA,NA,NA
4a463,check continue,flow.Sequence,3_0_8,NA,NA,skipped,NA,1534002.7,NA,NA,1533928.1,1534002.7,2023-03-09T12:39:19Z,1534155.174,NULL,NA,NA,NA,NA,NA,NA,NA,dfs,NA,8,NA,NA,NA,NA,NA,NA,NA,NA,NA,NA,NA,NA,NA,NA,NA,NA,NA,NA,NA
4a463,check continue,flow.Sequence,3_0_9,NA,NA,skipped,NA,1534010.3,NA,NA,1533928.1,1534010.3,2023-03-09T12:39:19Z,1534155.174,NULL,NA,NA,NA,NA,NA,NA,NA,dsf,NA,9,NA,NA,NA,NA,NA,NA,NA,NA,NA,NA,NA,NA,NA,NA,NA,NA,NA,NA,NA
4a463,check continue,flow.Sequence,3_0_10,NA,NA,skipped,NA,1534018.1,NA,NA,1533928.1,1534018.1,2023-03-09T12:39:19Z,1534155.174,NULL,NA,NA,NA,NA,NA,NA,NA,df,NA,10,NA,NA,NA,NA,NA,NA,NA,NA,NA,NA,NA,NA,NA,NA,NA,NA,NA,NA,NA
4a463,check continue,flow.Sequence,3_0_11,NA,NA,skipped,NA,1534025.4,NA,NA,1533928.1,1534025.5,2023-03-09T12:39:19Z,1534155.174,NULL,NA,NA,NA,NA,NA,NA,NA,dfs,NA,11,NA,NA,NA,NA,NA,NA,NA,NA,NA,NA,NA,NA,NA,NA,NA,NA,NA,NA,NA
4a463,check continue,flow.Sequence,3_0_12,NA,NA,skipped,NA,1534032.3,NA,NA,1533928.1,1534032.3,2023-03-09T12:39:19Z,1534155.174,NULL,NA,NA,NA,NA,NA,NA,NA,dsf,NA,12,NA,NA,NA,NA,NA,NA,NA,NA,NA,NA,NA,NA,NA,NA,NA,NA,NA,NA,NA
4a463,check continue,flow.Sequence,3_0_13,NA,NA,skipped,NA,1534038.9,NA,NA,1533928.1,1534039,2023-03-09T12:39:19Z,1534155.174,NULL,NA,NA,NA,NA,NA,NA,NA,dsf,NA,13,NA,NA,NA,NA,NA,NA,NA,NA,NA,NA,NA,NA,NA,NA,NA,NA,NA,NA,NA
4a463,check continue,flow.Sequence,3_0_14,NA,NA,skipped,NA,1534045.4,NA,NA,1533928.1,1534045.5,2023-03-09T12:39:19Z,1534155.174,NULL,NA,NA,NA,NA,NA,NA,NA,NA,NA,14,NA,NA,NA,NA,NA,NA,NA,NA,NA,NA,NA,NA,NA,NA,NA,NA,NA,NA,NA
4a463,check continue,flow.Sequence,3_0_15,NA,NA,skipped,NA,1534052,NA,NA,1533928.1,1534052,2023-03-09T12:39:19Z,1534155.174,NULL,NA,NA,NA,NA,NA,NA,NA,NA,NA,15,NA,NA,NA,NA,NA,NA,NA,NA,NA,NA,NA,NA,NA,NA,NA,NA,NA,NA,NA
4a463,check continue,flow.Sequence,3_0_16,NA,NA,skipped,NA,1534058.3,NA,NA,1533928.1,1534058.3,2023-03-09T12:39:19Z,1534155.174,NULL,NA,NA,NA,NA,NA,NA,NA,NA,NA,16,NA,NA,NA,NA,NA,NA,NA,NA,NA,NA,NA,NA,NA,NA,NA,NA,NA,NA,NA
4a463,check continue,flow.Sequence,3_0_17,NA,NA,skipped,NA,1534064.2,NA,NA,1533928.1,1534064.2,2023-03-09T12:39:19Z,1534155.174,NULL,NA,NA,NA,NA,NA,NA,NA,NA,NA,17,NA,NA,NA,NA,NA,NA,NA,NA,NA,NA,NA,NA,NA,NA,NA,NA,NA,NA,NA
4a463,check continue,flow.Sequence,3_0_18,NA,NA,skipped,NA,1534070.8,NA,NA,1533928.1,1534070.9,2023-03-09T12:39:19Z,1534155.174,NULL,NA,NA,NA,NA,NA,NA,NA,NA,NA,18,NA,NA,NA,NA,NA,NA,NA,NA,NA,NA,NA,NA,NA,NA,NA,NA,NA,NA,NA
4a463,check continue,flow.Sequence,3_0_19,NA,NA,skipped,NA,1534076.8,NA,NA,1533928.1,1534076.8,2023-03-09T12:39:19Z,1534155.174,NULL,NA,NA,NA,NA,NA,NA,NA,NA,NA,19,NA,NA,NA,NA,NA,NA,NA,NA,NA,NA,NA,NA,NA,NA,NA,NA,NA,NA,NA
4a463,check continue,flow.Sequence,3_0_20,NA,NA,skipped,NA,1534083.4,NA,NA,1533928.1,1534083.4,2023-03-09T12:39:19Z,1534155.174,NULL,NA,NA,NA,NA,NA,NA,NA,NA,NA,20,NA,NA,NA,NA,NA,NA,NA,NA,NA,NA,NA,NA,NA,NA,NA,NA,NA,NA,NA
4a463,check continue,flow.Sequence,3_0_21,NA,NA,skipped,NA,1534089.3,NA,NA,1533928.1,1534089.3,2023-03-09T12:39:19Z,1534155.174,NULL,NA,NA,NA,NA,NA,NA,NA,NA,NA,21,NA,NA,NA,NA,NA,NA,NA,NA,NA,NA,NA,NA,NA,NA,NA,NA,NA,NA,NA
4a463,check continue,flow.Sequence,3_0_22,NA,NA,skipped,NA,1534095.8,NA,NA,1533928.1,1534095.8,2023-03-09T12:39:19Z,1534155.174,NULL,NA,NA,NA,NA,NA,NA,NA,NA,NA,22,NA,NA,NA,NA,NA,NA,NA,NA,NA,NA,NA,NA,NA,NA,NA,NA,NA,NA,NA
4a463,check continue,flow.Sequence,3_0_23,NA,NA,skipped,NA,1534101.6,NA,NA,1533928.1,1534101.6,2023-03-09T12:39:19Z,1534155.174,NULL,NA,NA,NA,NA,NA,NA,NA,NA,NA,23,NA,NA,NA,NA,NA,NA,NA,NA,NA,NA,NA,NA,NA,NA,NA,NA,NA,NA,NA
4a463,check continue,flow.Sequence,3_0_24,NA,NA,skipped,NA,1534108.1,NA,NA,1533928.1,1534108.2,2023-03-09T12:39:19Z,1534155.174,NULL,NA,NA,NA,NA,NA,NA,NA,NA,NA,24,NA,NA,NA,NA,NA,NA,NA,NA,NA,NA,NA,NA,NA,NA,NA,NA,NA,NA,NA
4a463,check continue,flow.Sequence,3_0_25,NA,NA,skipped,NA,1534113.8,NA,NA,1533928.1,1534113.9,2023-03-09T12:39:19Z,1534155.174,NULL,NA,NA,NA,NA,NA,NA,NA,NA,NA,25,NA,NA,NA,NA,NA,NA,NA,NA,NA,NA,NA,NA,NA,NA,NA,NA,NA,NA,NA
4a463,check continue,flow.Sequence,3_0_26,NA,NA,skipped,NA,1534125.4,NA,NA,1533928.1,1534125.5,2023-03-09T12:39:19Z,1534155.174,NULL,NA,NA,NA,NA,NA,NA,NA,NA,NA,26,NA,NA,NA,NA,NA,NA,NA,NA,NA,NA,NA,NA,NA,NA,NA,NA,NA,NA,NA
4a463,check continue,flow.Sequence,3_0_27,NA,NA,skipped,NA,1534131.7,NA,NA,1533928.1,1534131.7,2023-03-09T12:39:19Z,1534155.174,NULL,NA,NA,NA,NA,NA,NA,NA,NA,NA,27,NA,NA,NA,NA,NA,NA,NA,NA,NA,NA,NA,NA,NA,NA,NA,NA,NA,NA,NA
4a463,check continue,flow.Sequence,3_0_28,NA,NA,skipped,NA,1534138,NA,NA,1533928.1,1534138,2023-03-09T12:39:19Z,1534155.174,NULL,NA,NA,NA,NA,NA,NA,NA,NA,NA,28,NA,NA,NA,NA,NA,NA,NA,NA,NA,NA,NA,NA,NA,NA,NA,NA,NA,NA,NA
4a463,check continue,flow.Sequence,3_0_29,NA,NA,skipped,NA,1534143.9,NA,NA,1533928.1,1534143.9,2023-03-09T12:39:19Z,1534155.174,NULL,NA,NA,NA,NA,NA,NA,NA,NA,NA,29,NA,NA,NA,NA,NA,NA,NA,NA,NA,NA,NA,NA,NA,NA,NA,NA,NA,NA,NA
4a463,until continue,flow.Loop,3_0,NA,NA,completion,351226.99,1182678.9,1182684.444,1182701.11,1533928.1,1534144,2023-03-09T12:39:19Z,1534155.174,NULL,NA,NA,NA,NA,NA,NA,NA,NA,NA,NA,NA,NA,NA,NA,NA,NA,NA,NA,NA,NA,NA,NA,NA,NA,NA,NA,NA,NA,NA
4a463,block 1,flow.Sequence,3,NA,NA,completion,351226.99,1182678.9,1182684.444,1182701.11,1533928.1,1534144,2023-03-09T12:39:19Z,1534155.174,NULL,NA,NA,NA,NA,NA,NA,NA,NA,NA,NA,NA,NA,NA,NA,NA,NA,NA,NA,NA,NA,NA,NA,NA,NA,NA,NA,NA,NA,NA
4a463,1.Part Over,canvas.Screen,4,NA,keypress(Space),response,1087.4260000014,1534144,1534138.508,1534155.174,1535242.6,1535246.7,2023-03-09T12:39:20Z,1535305.663,NULL,NA,NA,NA,NA,NA,NA,NA,NA,NA,NA,NA,NA,NA,NA,NA,NA,NA,NA,NA,NA,NA,NA,NA,NA,NA,NA,NA,NA,NA
4a463,deep,flow.Sequence,5_0_0_0_0_0,NA,NA,skipped,NA,1535286.1,NA,NA,1535242.6,1535286.1,2023-03-09T12:39:20Z,1535305.663,NULL,Vorsorge,tahadhari,s,ufafanuzi,makini,mashambani,NA,sdf,NA,0,NA,NA,NA,NA,NA,NA,NA,NA,NA,NA,NA,NA,NA,NA,NA,NA,NA,NA,NA
4a463,Shallow Question,html.Page,5_0_0_0_0_1_0,NA,NA,form submission,3900.1370000008,1535286.1,1535288.997,1535305.663,1539205.8,1539206,2023-03-09T12:39:24Z,1539222.173,NULL,Vorsorge,tahadhari,s,ufafanuzi,makini,mashambani,tahadhari,NA,NA,0,NA,NA,NA,NA,NA,NA,NA,NA,NA,NA,NA,NA,NA,NA,NA,NA,NA,NA,NA
4a463,"""Richtig""-Screen",canvas.Screen,5_0_0_0_0_1_1,NA,NA,timeout,4999.8,1539207.1,1539205.507,1539222.173,1544205.307,1544207.5,2023-03-09T12:39:29Z,1544221.973,NULL,Vorsorge,tahadhari,s,ufafanuzi,makini,mashambani,NA,sdf,1,0,NA,NA,NA,NA,NA,NA,NA,NA,NA,NA,NA,NA,NA,NA,NA,NA,NA,NA,NA
4a463,"""Falsch""-Screen",canvas.Screen,5_0_0_0_0_1_2,NA,NA,skipped,NA,1544212.9,NA,NA,1544205.307,1544213.1,2023-03-09T12:39:29Z,1544221.973,NULL,Vorsorge,tahadhari,s,ufafanuzi,makini,mashambani,NA,sdf,NA,0,NA,NA,NA,NA,NA,NA,NA,NA,NA,NA,NA,NA,NA,NA,NA,NA,NA,NA,NA
4a463,shallow,flow.Sequence,5_0_0_0_0_1,NA,NA,completion,8899.6440000001,1535286.1,1535288.997,1535305.663,1544205.307,1544213.3,2023-03-09T12:39:29Z,1544221.973,NULL,Vorsorge,tahadhari,s,ufafanuzi,makini,mashambani,NA,sdf,NA,0,NA,NA,NA,NA,NA,NA,NA,NA,NA,NA,NA,NA,NA,NA,NA,NA,NA,NA,NA
4a463,task,flow.Sequence,5_0_0_0_0,NA,NA,completion,8899.6440000001,1535286.1,1535288.997,1535305.663,1544205.307,1544213.4,2023-03-09T12:39:29Z,1544221.973,NULL,Vorsorge,tahadhari,s,ufafanuzi,makini,mashambani,NA,sdf,NA,0,NA,NA,NA,NA,NA,NA,NA,NA,NA,NA,NA,NA,NA,NA,NA,NA,NA,NA,NA
4a463,deep,flow.Sequence,5_0_0_0_1_0,NA,NA,skipped,NA,1544213.6,NA,NA,1544205.307,1544213.6,2023-03-09T12:39:29Z,1544221.973,NULL,Schüler,mwanafunzi,s,mwekezaji,matumizi,uaminifu,NA,sdf,NA,0,NA,NA,NA,NA,NA,NA,NA,NA,NA,NA,NA,NA,NA,NA,NA,NA,NA,NA,NA
4a463,Shallow Question,html.Page,5_0_0_0_1_1_0,NA,NA,form submission,4362.2269999993,1544213.8,1544205.307,1544221.973,1548584.2,1548584.6,2023-03-09T12:39:33Z,1548588.949,NULL,Schüler,mwanafunzi,s,mwekezaji,matumizi,uaminifu,uaminifu,NA,NA,0,NA,NA,NA,NA,NA,NA,NA,NA,NA,NA,NA,NA,NA,NA,NA,NA,NA,NA,NA
4a463,"""Richtig""-Screen",canvas.Screen,5_0_0_0_1_1_1,NA,NA,skipped,NA,1548587.6,NA,NA,1548584.2,1548587.8,2023-03-09T12:39:33Z,1548588.949,NULL,Schüler,mwanafunzi,s,mwekezaji,matumizi,uaminifu,NA,sdf,NA,0,NA,NA,NA,NA,NA,NA,NA,NA,NA,NA,NA,NA,NA,NA,NA,NA,NA,NA,NA
4a463,"""Falsch""-Screen",canvas.Screen,5_0_0_0_1_1_2,NA,NA,timeout,4999.8,1548589.2,1548572.283,1548588.949,1553572.083,1553573.5,2023-03-09T12:39:38Z,1553588.749,NULL,Schüler,mwanafunzi,s,mwekezaji,matumizi,uaminifu,NA,sdf,0,0,NA,NA,NA,NA,NA,NA,NA,NA,NA,NA,NA,NA,NA,NA,NA,NA,NA,NA,NA
4a463,shallow,flow.Sequence,5_0_0_0_1_1,NA,NA,completion,9350.1100000001,1544213.7,1544205.307,1544221.973,1553572.083,1553573.9,2023-03-09T12:39:38Z,1553588.749,NULL,Schüler,mwanafunzi,s,mwekezaji,matumizi,uaminifu,NA,sdf,NA,0,NA,NA,NA,NA,NA,NA,NA,NA,NA,NA,NA,NA,NA,NA,NA,NA,NA,NA,NA
4a463,task,flow.Sequence,5_0_0_0_1,NA,NA,completion,9350.1100000001,1544213.5,1544205.307,1544221.973,1553572.083,1553574.1,2023-03-09T12:39:38Z,1553588.749,NULL,Schüler,mwanafunzi,s,mwekezaji,matumizi,uaminifu,NA,sdf,NA,0,NA,NA,NA,NA,NA,NA,NA,NA,NA,NA,NA,NA,NA,NA,NA,NA,NA,NA,NA
4a463,Deep Question,html.Page,5_0_0_0_2_0_0,NA,NA,form submission,1767.2509999999,1553574.3,1553572.083,1553588.749,1555356,1555356.1,2023-03-09T12:39:40Z,1555372.526,NULL,Spionage,upelelezi,d,NA,NA,NA,l,NA,NA,0,NA,NA,NA,NA,NA,NA,NA,NA,NA,NA,NA,NA,NA,NA,NA,NA,NA,NA,NA
4a463,"""Richtig""-Screen",canvas.Screen,5_0_0_0_2_0_1,NA,NA,skipped,NA,1555357.2,NA,NA,1555356,1555357.3,2023-03-09T12:39:40Z,1555372.526,NULL,Spionage,upelelezi,d,NA,NA,NA,NA,sdf,NA,0,NA,NA,NA,NA,NA,NA,NA,NA,NA,NA,NA,NA,NA,NA,NA,NA,NA,NA,NA
4a463,"""Falsch""-Screen",canvas.Screen,5_0_0_0_2_0_2,NA,NA,timeout,4999.7999999998,1555357.6,1555355.86,1555372.526,1560355.66,1560358.5,2023-03-09T12:39:45Z,1560372.326,NULL,Spionage,upelelezi,d,NA,NA,NA,NA,sdf,0,0,NA,NA,NA,NA,NA,NA,NA,NA,NA,NA,NA,NA,NA,NA,NA,NA,NA,NA,NA
4a463,deep,flow.Sequence,5_0_0_0_2_0,NA,NA,completion,6766.9109999998,1553574.3,1553572.083,1553588.749,1560355.66,1560358.9,2023-03-09T12:39:45Z,1560372.326,NULL,Spionage,upelelezi,d,NA,NA,NA,NA,sdf,NA,0,NA,NA,NA,NA,NA,NA,NA,NA,NA,NA,NA,NA,NA,NA,NA,NA,NA,NA,NA
4a463,shallow,flow.Sequence,5_0_0_0_2_1,NA,NA,skipped,NA,1560359.1,NA,NA,1560355.66,1560359.3,2023-03-09T12:39:45Z,1560372.326,NULL,Spionage,upelelezi,d,NA,NA,NA,NA,sdf,NA,0,NA,NA,NA,NA,NA,NA,NA,NA,NA,NA,NA,NA,NA,NA,NA,NA,NA,NA,NA
4a463,task,flow.Sequence,5_0_0_0_2,NA,NA,completion,6766.9109999998,1553574.2,1553572.083,1553588.749,1560355.66,1560359.5,2023-03-09T12:39:45Z,1560372.326,NULL,Spionage,upelelezi,d,NA,NA,NA,NA,sdf,NA,0,NA,NA,NA,NA,NA,NA,NA,NA,NA,NA,NA,NA,NA,NA,NA,NA,NA,NA,NA
4a463,deep,flow.Sequence,5_0_0_0_3_0,NA,NA,skipped,NA,1560359.5,NA,NA,1560355.66,1560359.7,2023-03-09T12:39:45Z,1560372.326,NULL,Konkurrent,mshindani,s,msemaji,mvutaji,kipukusa,NA,sdf,NA,0,NA,NA,NA,NA,NA,NA,NA,NA,NA,NA,NA,NA,NA,NA,NA,NA,NA,NA,NA
4a463,Shallow Question,html.Page,5_0_0_0_3_1_0,NA,NA,form submission,3306.1740000001,1560359.9,1560355.66,1560372.326,1563678.5,1563679,2023-03-09T12:39:48Z,1563688.86,NULL,Konkurrent,mshindani,s,msemaji,mvutaji,kipukusa,mvutaji,NA,NA,0,NA,NA,NA,NA,NA,NA,NA,NA,NA,NA,NA,NA,NA,NA,NA,NA,NA,NA,NA
4a463,"""Richtig""-Screen",canvas.Screen,5_0_0_0_3_1_1,NA,NA,skipped,NA,1563682.3,NA,NA,1563678.5,1563682.4,2023-03-09T12:39:48Z,1563688.86,NULL,Konkurrent,mshindani,s,msemaji,mvutaji,kipukusa,NA,sdf,NA,0,NA,NA,NA,NA,NA,NA,NA,NA,NA,NA,NA,NA,NA,NA,NA,NA,NA,NA,NA
4a463,"""Falsch""-Screen",canvas.Screen,5_0_0_0_3_1_2,NA,NA,timeout,4999.7999999998,1563682.9,1563672.194,1563688.86,1568671.994,1568674.5,2023-03-09T12:39:53Z,1568688.66,NULL,Konkurrent,mshindani,s,msemaji,mvutaji,kipukusa,NA,sdf,0,0,NA,NA,NA,NA,NA,NA,NA,NA,NA,NA,NA,NA,NA,NA,NA,NA,NA,NA,NA
4a463,shallow,flow.Sequence,5_0_0_0_3_1,NA,NA,completion,8299.6680000001,1560359.8,1560355.66,1560372.326,1568671.994,1568675.1,2023-03-09T12:39:53Z,1568688.66,NULL,Konkurrent,mshindani,s,msemaji,mvutaji,kipukusa,NA,sdf,NA,0,NA,NA,NA,NA,NA,NA,NA,NA,NA,NA,NA,NA,NA,NA,NA,NA,NA,NA,NA
4a463,task,flow.Sequence,5_0_0_0_3,NA,NA,completion,8299.6680000001,1560359.5,1560355.66,1560372.326,1568671.994,1568675.3,2023-03-09T12:39:53Z,1568688.66,NULL,Konkurrent,mshindani,s,msemaji,mvutaji,kipukusa,NA,sdf,NA,0,NA,NA,NA,NA,NA,NA,NA,NA,NA,NA,NA,NA,NA,NA,NA,NA,NA,NA,NA
4a463,deep,flow.Sequence,5_0_0_0_4_0,NA,NA,skipped,NA,1568675.4,NA,NA,1568671.994,1568675.5,2023-03-09T12:39:53Z,1568688.66,NULL,Tester,wanaojaribu,s,sherti,sihiri,mlipuko,NA,sdf,NA,0,NA,NA,NA,NA,NA,NA,NA,NA,NA,NA,NA,NA,NA,NA,NA,NA,NA,NA,NA
4a463,Shallow Question,html.Page,5_0_0_0_4_1_0,NA,NA,form submission,3091.8400000001,1568675.7,1568671.994,1568688.66,1571780.5,1571781,2023-03-09T12:39:57Z,1571789.255,NULL,Tester,wanaojaribu,s,sherti,sihiri,mlipuko,sherti,NA,NA,0,NA,NA,NA,NA,NA,NA,NA,NA,NA,NA,NA,NA,NA,NA,NA,NA,NA,NA,NA
4a463,"""Richtig""-Screen",canvas.Screen,5_0_0_0_4_1_1,NA,NA,skipped,NA,1571783.9,NA,NA,1571780.5,1571784,2023-03-09T12:39:57Z,1571789.255,NULL,Tester,wanaojaribu,s,sherti,sihiri,mlipuko,NA,sdf,NA,0,NA,NA,NA,NA,NA,NA,NA,NA,NA,NA,NA,NA,NA,NA,NA,NA,NA,NA,NA
4a463,"""Falsch""-Screen",canvas.Screen,5_0_0_0_4_1_2,NA,NA,timeout,4999.8,1571785.2,1571772.589,1571789.255,1576772.389,1576774.8,2023-03-09T12:40:02Z,1576789.055,NULL,Tester,wanaojaribu,s,sherti,sihiri,mlipuko,NA,sdf,0,0,NA,NA,NA,NA,NA,NA,NA,NA,NA,NA,NA,NA,NA,NA,NA,NA,NA,NA,NA
4a463,shallow,flow.Sequence,5_0_0_0_4_1,NA,NA,completion,8083.7290000001,1568675.7,1568671.994,1568688.66,1576772.389,1576775.3,2023-03-09T12:40:02Z,1576789.055,NULL,Tester,wanaojaribu,s,sherti,sihiri,mlipuko,NA,sdf,NA,0,NA,NA,NA,NA,NA,NA,NA,NA,NA,NA,NA,NA,NA,NA,NA,NA,NA,NA,NA
4a463,task,flow.Sequence,5_0_0_0_4,NA,NA,completion,8083.7290000001,1568675.3,1568671.994,1568688.66,1576772.389,1576775.4,2023-03-09T12:40:02Z,1576789.055,NULL,Tester,wanaojaribu,s,sherti,sihiri,mlipuko,NA,sdf,NA,0,NA,NA,NA,NA,NA,NA,NA,NA,NA,NA,NA,NA,NA,NA,NA,NA,NA,NA,NA
4a463,Deep Question,html.Page,5_0_0_0_5_0_0,NA,NA,form submission,2130.1449999993,1576775.7,1576772.389,1576789.055,1578919.2,1578919.7,2023-03-09T12:40:04Z,1578922.303,NULL,Symbol,kielezo,d,NA,NA,NA,l,NA,NA,0,NA,NA,NA,NA,NA,NA,NA,NA,NA,NA,NA,NA,NA,NA,NA,NA,NA,NA,NA
4a463,"""Richtig""-Screen",canvas.Screen,5_0_0_0_5_0_1,NA,NA,skipped,NA,1578922.5,NA,NA,1578919.2,1578922.6,2023-03-09T12:40:04Z,1578922.303,NULL,Symbol,kielezo,d,NA,NA,NA,NA,sdf,NA,0,NA,NA,NA,NA,NA,NA,NA,NA,NA,NA,NA,NA,NA,NA,NA,NA,NA,NA,NA
4a463,"""Falsch""-Screen",canvas.Screen,5_0_0_0_5_0_2,NA,NA,timeout,5000.3029999998,1578924,1578905.637,1578922.303,1583905.94,1583907.7,2023-03-09T12:40:09Z,1583922.606,NULL,Symbol,kielezo,d,NA,NA,NA,NA,sdf,0,0,NA,NA,NA,NA,NA,NA,NA,NA,NA,NA,NA,NA,NA,NA,NA,NA,NA,NA,NA
4a463,deep,flow.Sequence,5_0_0_0_5_0,NA,NA,completion,7116.885,1576775.7,1576772.389,1576789.055,1583905.94,1583908.2,2023-03-09T12:40:09Z,1583922.606,NULL,Symbol,kielezo,d,NA,NA,NA,NA,sdf,NA,0,NA,NA,NA,NA,NA,NA,NA,NA,NA,NA,NA,NA,NA,NA,NA,NA,NA,NA,NA
4a463,shallow,flow.Sequence,5_0_0_0_5_1,NA,NA,skipped,NA,1583908.3,NA,NA,1583905.94,1583908.5,2023-03-09T12:40:09Z,1583922.606,NULL,Symbol,kielezo,d,NA,NA,NA,NA,sdf,NA,0,NA,NA,NA,NA,NA,NA,NA,NA,NA,NA,NA,NA,NA,NA,NA,NA,NA,NA,NA
4a463,task,flow.Sequence,5_0_0_0_5,NA,NA,completion,7116.885,1576775.5,1576772.389,1576789.055,1583905.94,1583908.7,2023-03-09T12:40:09Z,1583922.606,NULL,Symbol,kielezo,d,NA,NA,NA,NA,sdf,NA,0,NA,NA,NA,NA,NA,NA,NA,NA,NA,NA,NA,NA,NA,NA,NA,NA,NA,NA,NA
4a463,Deep Question,html.Page,5_0_0_0_6_0_0,NA,NA,form submission,2383.4940000016,1583908.9,1583905.94,1583922.606,1586306.1,1586306.5,2023-03-09T12:40:11Z,1586305.844,NULL,Fenster,dirisha,d,NA,NA,NA,l,NA,NA,0,NA,NA,NA,NA,NA,NA,NA,NA,NA,NA,NA,NA,NA,NA,NA,NA,NA,NA,NA
4a463,"""Richtig""-Screen",canvas.Screen,5_0_0_0_6_0_1,NA,NA,skipped,NA,1586309.3,NA,NA,1586306.1,1586309.4,2023-03-09T12:40:11Z,1586305.844,NULL,Fenster,dirisha,d,NA,NA,NA,NA,sdf,NA,0,NA,NA,NA,NA,NA,NA,NA,NA,NA,NA,NA,NA,NA,NA,NA,NA,NA,NA,NA
4a463,"""Falsch""-Screen",canvas.Screen,5_0_0_0_6_0_2,NA,NA,timeout,4999.801,1586310,1586289.178,1586305.844,1591288.978,1591291.6,2023-03-09T12:40:16Z,1591305.645,NULL,Fenster,dirisha,d,NA,NA,NA,NA,sdf,0,0,NA,NA,NA,NA,NA,NA,NA,NA,NA,NA,NA,NA,NA,NA,NA,NA,NA,NA,NA
4a463,deep,flow.Sequence,5_0_0_0_6_0,NA,NA,completion,7366.372,1583908.9,1583905.94,1583922.606,1591288.978,1591291.9,2023-03-09T12:40:16Z,1591305.645,NULL,Fenster,dirisha,d,NA,NA,NA,NA,sdf,NA,0,NA,NA,NA,NA,NA,NA,NA,NA,NA,NA,NA,NA,NA,NA,NA,NA,NA,NA,NA
4a463,shallow,flow.Sequence,5_0_0_0_6_1,NA,NA,skipped,NA,1591292,NA,NA,1591288.978,1591292.2,2023-03-09T12:40:16Z,1591305.645,NULL,Fenster,dirisha,d,NA,NA,NA,NA,sdf,NA,0,NA,NA,NA,NA,NA,NA,NA,NA,NA,NA,NA,NA,NA,NA,NA,NA,NA,NA,NA
4a463,task,flow.Sequence,5_0_0_0_6,NA,NA,completion,7366.372,1583908.8,1583905.94,1583922.606,1591288.978,1591292.4,2023-03-09T12:40:16Z,1591305.645,NULL,Fenster,dirisha,d,NA,NA,NA,NA,sdf,NA,0,NA,NA,NA,NA,NA,NA,NA,NA,NA,NA,NA,NA,NA,NA,NA,NA,NA,NA,NA
4a463,Deep Question,html.Page,5_0_0_0_7_0_0,NA,NA,form submission,2448.6550000007,1591292.5,1591288.978,1591305.645,1593754.3,1593754.4,2023-03-09T12:40:19Z,1593772.842,NULL,Zuwachs,nyongeza,d,NA,NA,NA,p,NA,NA,0,NA,NA,NA,NA,NA,NA,NA,NA,NA,NA,NA,NA,NA,NA,NA,NA,NA,NA,NA
4a463,"""Richtig""-Screen",canvas.Screen,5_0_0_0_7_0_1,NA,NA,skipped,NA,1593755.3,NA,NA,1593754.3,1593755.4,2023-03-09T12:40:19Z,1593772.842,NULL,Zuwachs,nyongeza,d,NA,NA,NA,NA,sdf,NA,0,NA,NA,NA,NA,NA,NA,NA,NA,NA,NA,NA,NA,NA,NA,NA,NA,NA,NA,NA
4a463,"""Falsch""-Screen",canvas.Screen,5_0_0_0_7_0_2,NA,NA,timeout,4999.8,1593755.6,1593756.176,1593772.842,1598755.976,1598758.8,2023-03-09T12:40:24Z,1598772.642,NULL,Zuwachs,nyongeza,d,NA,NA,NA,NA,sdf,0,0,NA,NA,NA,NA,NA,NA,NA,NA,NA,NA,NA,NA,NA,NA,NA,NA,NA,NA,NA
4a463,deep,flow.Sequence,5_0_0_0_7_0,NA,NA,completion,7450.331,1591292.5,1591288.978,1591305.645,1598755.976,1598759.1,2023-03-09T12:40:24Z,1598772.642,NULL,Zuwachs,nyongeza,d,NA,NA,NA,NA,sdf,NA,0,NA,NA,NA,NA,NA,NA,NA,NA,NA,NA,NA,NA,NA,NA,NA,NA,NA,NA,NA
4a463,shallow,flow.Sequence,5_0_0_0_7_1,NA,NA,skipped,NA,1598759.2,NA,NA,1598755.976,1598759.4,2023-03-09T12:40:24Z,1598772.642,NULL,Zuwachs,nyongeza,d,NA,NA,NA,NA,sdf,NA,0,NA,NA,NA,NA,NA,NA,NA,NA,NA,NA,NA,NA,NA,NA,NA,NA,NA,NA,NA
4a463,task,flow.Sequence,5_0_0_0_7,NA,NA,completion,7450.331,1591292.5,1591288.978,1591305.645,1598755.976,1598759.5,2023-03-09T12:40:24Z,1598772.642,NULL,Zuwachs,nyongeza,d,NA,NA,NA,NA,sdf,NA,0,NA,NA,NA,NA,NA,NA,NA,NA,NA,NA,NA,NA,NA,NA,NA,NA,NA,NA,NA
4a463,block,flow.Loop,5_0_0_0,NA,NA,completion,63450.313,1535286.1,1535288.997,1535305.663,1598755.976,1598759.8,2023-03-09T12:40:24Z,1598772.642,NULL,NA,NA,NA,NA,NA,NA,NA,sdf,NA,0,NA,NA,NA,NA,NA,NA,NA,NA,NA,NA,NA,NA,NA,NA,NA,NA,NA,NA,NA
4a463,weiter,canvas.Screen,5_0_0_1,sdf,keypress(Space),response,1992.858,1598759.9,1598755.976,1598772.642,1600765.5,1600771.7,2023-03-09T12:40:26Z,1600805.894,NULL,NA,NA,NA,NA,NA,NA,NA,sdf,NA,0,NA,NA,NA,NA,NA,NA,NA,NA,NA,NA,NA,NA,NA,NA,NA,NA,NA,NA,NA
4a463,check continue,flow.Sequence,5_0_0,NA,NA,completion,65459.837,1535286,1535288.997,1535305.663,1600765.5,1600772.1,2023-03-09T12:40:26Z,1600805.894,NULL,NA,NA,NA,NA,NA,NA,NA,sdf,NA,0,NA,NA,NA,NA,NA,NA,NA,NA,NA,NA,NA,NA,NA,NA,NA,NA,NA,NA,NA
4a463,deep,flow.Sequence,5_0_1_0_0_0,NA,NA,skipped,NA,1600795.3,NA,NA,1600765.5,1600796.2,2023-03-09T12:40:26Z,1600805.894,NULL,Vorsorge,tahadhari,s,ufafanuzi,makini,mashambani,NA,sdfdsf,NA,1,NA,NA,NA,NA,NA,NA,NA,NA,NA,NA,NA,NA,NA,NA,NA,NA,NA,NA,NA
4a463,Shallow Question,html.Page,5_0_1_0_0_1_0,NA,NA,form submission,5096.6059999999,1600796.2,1600789.228,1600805.894,1605902.5,1605903.1,2023-03-09T12:40:31Z,1605906.188,NULL,Vorsorge,tahadhari,s,ufafanuzi,makini,mashambani,tahadhari,NA,NA,1,NA,NA,NA,NA,NA,NA,NA,NA,NA,NA,NA,NA,NA,NA,NA,NA,NA,NA,NA
4a463,"""Richtig""-Screen",canvas.Screen,5_0_1_0_0_1_1,NA,NA,timeout,4999.7999999998,1605907.1,1605889.522,1605906.188,1610889.322,1610891.4,2023-03-09T12:40:36Z,1610905.988,NULL,Vorsorge,tahadhari,s,ufafanuzi,makini,mashambani,NA,sdfdsf,1,1,NA,NA,NA,NA,NA,NA,NA,NA,NA,NA,NA,NA,NA,NA,NA,NA,NA,NA,NA
4a463,"""Falsch""-Screen",canvas.Screen,5_0_1_0_0_1_2,NA,NA,skipped,NA,1610895,NA,NA,1610889.322,1610895.1,2023-03-09T12:40:36Z,1610905.988,NULL,Vorsorge,tahadhari,s,ufafanuzi,makini,mashambani,NA,sdfdsf,NA,1,NA,NA,NA,NA,NA,NA,NA,NA,NA,NA,NA,NA,NA,NA,NA,NA,NA,NA,NA
4a463,shallow,flow.Sequence,5_0_1_0_0_1,NA,NA,completion,10083.428,1600796.2,1600789.228,1600805.894,1610889.322,1610895.2,2023-03-09T12:40:36Z,1610905.988,NULL,Vorsorge,tahadhari,s,ufafanuzi,makini,mashambani,NA,sdfdsf,NA,1,NA,NA,NA,NA,NA,NA,NA,NA,NA,NA,NA,NA,NA,NA,NA,NA,NA,NA,NA
4a463,task,flow.Sequence,5_0_1_0_0,NA,NA,completion,10083.428,1600795.2,1600789.228,1600805.894,1610889.322,1610895.4,2023-03-09T12:40:36Z,1610905.988,NULL,Vorsorge,tahadhari,s,ufafanuzi,makini,mashambani,NA,sdfdsf,NA,1,NA,NA,NA,NA,NA,NA,NA,NA,NA,NA,NA,NA,NA,NA,NA,NA,NA,NA,NA
4a463,Deep Question,html.Page,5_0_1_0_1_0_0,NA,NA,form submission,9938.2119999994,1610895.4,1610889.322,1610905.988,1620844.2,1620844.7,2023-03-09T12:40:46Z,1620856.16,NULL,Symbol,kielezo,d,NA,NA,NA,kiolezi,NA,NA,1,NA,NA,NA,NA,NA,NA,NA,NA,NA,NA,NA,NA,NA,NA,NA,NA,NA,NA,NA
4a463,"""Richtig""-Screen",canvas.Screen,5_0_1_0_1_0_1,NA,NA,skipped,NA,1620847.8,NA,NA,1620844.2,1620847.9,2023-03-09T12:40:46Z,1620856.16,NULL,Symbol,kielezo,d,NA,NA,NA,NA,sdfdsf,NA,1,NA,NA,NA,NA,NA,NA,NA,NA,NA,NA,NA,NA,NA,NA,NA,NA,NA,NA,NA
4a463,"""Falsch""-Screen",canvas.Screen,5_0_1_0_1_0_2,NA,NA,timeout,4999.8,1620848.6,1620839.494,1620856.16,1625839.294,1625841.8,2023-03-09T12:40:51Z,1625855.96,NULL,Symbol,kielezo,d,NA,NA,NA,NA,sdfdsf,0,1,NA,NA,NA,NA,NA,NA,NA,NA,NA,NA,NA,NA,NA,NA,NA,NA,NA,NA,NA
4a463,deep,flow.Sequence,5_0_1_0_1_0,NA,NA,completion,14933.306,1610895.4,1610889.322,1610905.988,1625839.294,1625842.1,2023-03-09T12:40:51Z,1625855.96,NULL,Symbol,kielezo,d,NA,NA,NA,NA,sdfdsf,NA,1,NA,NA,NA,NA,NA,NA,NA,NA,NA,NA,NA,NA,NA,NA,NA,NA,NA,NA,NA
4a463,shallow,flow.Sequence,5_0_1_0_1_1,NA,NA,skipped,NA,1625842.4,NA,NA,1625839.294,1625842.5,2023-03-09T12:40:51Z,1625855.96,NULL,Symbol,kielezo,d,NA,NA,NA,NA,sdfdsf,NA,1,NA,NA,NA,NA,NA,NA,NA,NA,NA,NA,NA,NA,NA,NA,NA,NA,NA,NA,NA
4a463,task,flow.Sequence,5_0_1_0_1,NA,NA,completion,14933.306,1610895.4,1610889.322,1610905.988,1625839.294,1625842.7,2023-03-09T12:40:51Z,1625855.96,NULL,Symbol,kielezo,d,NA,NA,NA,NA,sdfdsf,NA,1,NA,NA,NA,NA,NA,NA,NA,NA,NA,NA,NA,NA,NA,NA,NA,NA,NA,NA,NA
4a463,deep,flow.Sequence,5_0_1_0_2_0,NA,NA,skipped,NA,1625842.8,NA,NA,1625839.294,1625842.9,2023-03-09T12:40:51Z,1625855.96,NULL,Tester,wanaojaribu,s,sherti,sihiri,mlipuko,NA,sdfdsf,NA,1,NA,NA,NA,NA,NA,NA,NA,NA,NA,NA,NA,NA,NA,NA,NA,NA,NA,NA,NA
4a463,Shallow Question,html.Page,5_0_1_0_2_1_0,NA,NA,form submission,4194.6400000015,1625843.1,1625839.294,1625855.96,1630050.6,1630051.2,2023-03-09T12:40:55Z,1630056.451,NULL,Tester,wanaojaribu,s,sherti,sihiri,mlipuko,wanaojaribu,NA,NA,1,NA,NA,NA,NA,NA,NA,NA,NA,NA,NA,NA,NA,NA,NA,NA,NA,NA,NA,NA
4a463,"""Richtig""-Screen",canvas.Screen,5_0_1_0_2_1_1,NA,NA,timeout,4999.8,1630055.4,1630039.785,1630056.451,1635039.585,1635041.7,2023-03-09T12:41:00Z,1635056.251,NULL,Tester,wanaojaribu,s,sherti,sihiri,mlipuko,NA,sdfdsf,1,1,NA,NA,NA,NA,NA,NA,NA,NA,NA,NA,NA,NA,NA,NA,NA,NA,NA,NA,NA
4a463,"""Falsch""-Screen",canvas.Screen,5_0_1_0_2_1_2,NA,NA,skipped,NA,1635046,NA,NA,1635039.585,1635046.1,2023-03-09T12:41:00Z,1635056.251,NULL,Tester,wanaojaribu,s,sherti,sihiri,mlipuko,NA,sdfdsf,NA,1,NA,NA,NA,NA,NA,NA,NA,NA,NA,NA,NA,NA,NA,NA,NA,NA,NA,NA,NA
4a463,shallow,flow.Sequence,5_0_1_0_2_1,NA,NA,completion,9183.625,1625843.1,1625839.294,1625855.96,1635039.585,1635046.4,2023-03-09T12:41:00Z,1635056.251,NULL,Tester,wanaojaribu,s,sherti,sihiri,mlipuko,NA,sdfdsf,NA,1,NA,NA,NA,NA,NA,NA,NA,NA,NA,NA,NA,NA,NA,NA,NA,NA,NA,NA,NA
4a463,task,flow.Sequence,5_0_1_0_2,NA,NA,completion,9183.625,1625842.8,1625839.294,1625855.96,1635039.585,1635046.6,2023-03-09T12:41:00Z,1635056.251,NULL,Tester,wanaojaribu,s,sherti,sihiri,mlipuko,NA,sdfdsf,NA,1,NA,NA,NA,NA,NA,NA,NA,NA,NA,NA,NA,NA,NA,NA,NA,NA,NA,NA,NA
4a463,Deep Question,html.Page,5_0_1_0_3_0_0,NA,NA,form submission,5713.7490000001,1635046.8,1635039.585,1635056.251,1640770,1640770.6,2023-03-09T12:41:06Z,1640773.248,NULL,Zuwachs,nyongeza,d,NA,NA,NA,nyongzu,NA,NA,1,NA,NA,NA,NA,NA,NA,NA,NA,NA,NA,NA,NA,NA,NA,NA,NA,NA,NA,NA
4a463,"""Richtig""-Screen",canvas.Screen,5_0_1_0_3_0_1,NA,NA,skipped,NA,1640774.6,NA,NA,1640770,1640774.8,2023-03-09T12:41:06Z,1640773.248,NULL,Zuwachs,nyongeza,d,NA,NA,NA,NA,sdfdsf,NA,1,NA,NA,NA,NA,NA,NA,NA,NA,NA,NA,NA,NA,NA,NA,NA,NA,NA,NA,NA
4a463,"""Falsch""-Screen",canvas.Screen,5_0_1_0_3_0_2,NA,NA,timeout,4999.8,1640775.7,1640756.582,1640773.248,1645756.382,1645758.4,2023-03-09T12:41:11Z,1645773.048,NULL,Zuwachs,nyongeza,d,NA,NA,NA,NA,sdfdsf,0,1,NA,NA,NA,NA,NA,NA,NA,NA,NA,NA,NA,NA,NA,NA,NA,NA,NA,NA,NA
4a463,deep,flow.Sequence,5_0_1_0_3_0,NA,NA,completion,10700.131,1635046.8,1635039.585,1635056.251,1645756.382,1645759,2023-03-09T12:41:11Z,1645773.048,NULL,Zuwachs,nyongeza,d,NA,NA,NA,NA,sdfdsf,NA,1,NA,NA,NA,NA,NA,NA,NA,NA,NA,NA,NA,NA,NA,NA,NA,NA,NA,NA,NA
4a463,shallow,flow.Sequence,5_0_1_0_3_1,NA,NA,skipped,NA,1645759,NA,NA,1645756.382,1645759.2,2023-03-09T12:41:11Z,1645773.048,NULL,Zuwachs,nyongeza,d,NA,NA,NA,NA,sdfdsf,NA,1,NA,NA,NA,NA,NA,NA,NA,NA,NA,NA,NA,NA,NA,NA,NA,NA,NA,NA,NA
4a463,task,flow.Sequence,5_0_1_0_3,NA,NA,completion,10700.131,1635046.7,1635039.585,1635056.251,1645756.382,1645759.4,2023-03-09T12:41:11Z,1645773.048,NULL,Zuwachs,nyongeza,d,NA,NA,NA,NA,sdfdsf,NA,1,NA,NA,NA,NA,NA,NA,NA,NA,NA,NA,NA,NA,NA,NA,NA,NA,NA,NA,NA
4a463,deep,flow.Sequence,5_0_1_0_4_0,NA,NA,skipped,NA,1645759.6,NA,NA,1645756.382,1645759.6,2023-03-09T12:41:11Z,1645773.048,NULL,Konkurrent,mshindani,s,msemaji,mvutaji,kipukusa,NA,sdfdsf,NA,1,NA,NA,NA,NA,NA,NA,NA,NA,NA,NA,NA,NA,NA,NA,NA,NA,NA,NA,NA
4a463,Shallow Question,html.Page,5_0_1_0_4_1_0,NA,NA,form submission,2775.452,1645759.8,1645756.382,1645773.048,1648548.5,1648549,2023-03-09T12:41:13Z,1648556.733,NULL,Konkurrent,mshindani,s,msemaji,mvutaji,kipukusa,mshindani,NA,NA,1,NA,NA,NA,NA,NA,NA,NA,NA,NA,NA,NA,NA,NA,NA,NA,NA,NA,NA,NA
4a463,"""Richtig""-Screen",canvas.Screen,5_0_1_0_4_1_1,NA,NA,timeout,4999.8,1648551.9,1648540.067,1648556.733,1653539.867,1653542.1,2023-03-09T12:41:18Z,1653556.533,NULL,Konkurrent,mshindani,s,msemaji,mvutaji,kipukusa,NA,sdfdsf,1,1,NA,NA,NA,NA,NA,NA,NA,NA,NA,NA,NA,NA,NA,NA,NA,NA,NA,NA,NA
4a463,"""Falsch""-Screen",canvas.Screen,5_0_1_0_4_1_2,NA,NA,skipped,NA,1653546.3,NA,NA,1653539.867,1653546.5,2023-03-09T12:41:18Z,1653556.533,NULL,Konkurrent,mshindani,s,msemaji,mvutaji,kipukusa,NA,sdfdsf,NA,1,NA,NA,NA,NA,NA,NA,NA,NA,NA,NA,NA,NA,NA,NA,NA,NA,NA,NA,NA
4a463,shallow,flow.Sequence,5_0_1_0_4_1,NA,NA,completion,7766.8190000001,1645759.8,1645756.382,1645773.048,1653539.867,1653546.7,2023-03-09T12:41:18Z,1653556.533,NULL,Konkurrent,mshindani,s,msemaji,mvutaji,kipukusa,NA,sdfdsf,NA,1,NA,NA,NA,NA,NA,NA,NA,NA,NA,NA,NA,NA,NA,NA,NA,NA,NA,NA,NA
4a463,task,flow.Sequence,5_0_1_0_4,NA,NA,completion,7766.8190000001,1645759.5,1645756.382,1645773.048,1653539.867,1653546.9,2023-03-09T12:41:18Z,1653556.533,NULL,Konkurrent,mshindani,s,msemaji,mvutaji,kipukusa,NA,sdfdsf,NA,1,NA,NA,NA,NA,NA,NA,NA,NA,NA,NA,NA,NA,NA,NA,NA,NA,NA,NA,NA
4a463,deep,flow.Sequence,5_0_1_0_5_0,NA,NA,skipped,NA,1653547.1,NA,NA,1653539.867,1653547.1,2023-03-09T12:41:18Z,1653556.533,NULL,Schüler,mwanafunzi,s,mwekezaji,matumizi,uaminifu,NA,sdfdsf,NA,1,NA,NA,NA,NA,NA,NA,NA,NA,NA,NA,NA,NA,NA,NA,NA,NA,NA,NA,NA
4a463,Shallow Question,html.Page,5_0_1_0_5_1_0,NA,NA,form submission,3479.8669999985,1653547.2,1653539.867,1653556.533,1657036.4,1657036.9,2023-03-09T12:41:22Z,1657039.727,NULL,Schüler,mwanafunzi,s,mwekezaji,matumizi,uaminifu,mwanafunzi,NA,NA,1,NA,NA,NA,NA,NA,NA,NA,NA,NA,NA,NA,NA,NA,NA,NA,NA,NA,NA,NA
4a463,"""Richtig""-Screen",canvas.Screen,5_0_1_0_5_1_1,NA,NA,timeout,5000.4029999999,1657041.5,1657023.061,1657039.727,1662023.464,1662025.8,2023-03-09T12:41:27Z,1662040.13,NULL,Schüler,mwanafunzi,s,mwekezaji,matumizi,uaminifu,NA,sdfdsf,1,1,NA,NA,NA,NA,NA,NA,NA,NA,NA,NA,NA,NA,NA,NA,NA,NA,NA,NA,NA
4a463,"""Falsch""-Screen",canvas.Screen,5_0_1_0_5_1_2,NA,NA,skipped,NA,1662030,NA,NA,1662023.464,1662030.2,2023-03-09T12:41:27Z,1662040.13,NULL,Schüler,mwanafunzi,s,mwekezaji,matumizi,uaminifu,NA,sdfdsf,NA,1,NA,NA,NA,NA,NA,NA,NA,NA,NA,NA,NA,NA,NA,NA,NA,NA,NA,NA,NA
4a463,shallow,flow.Sequence,5_0_1_0_5_1,NA,NA,completion,8466.9309999999,1653547.2,1653539.867,1653556.533,1662023.464,1662030.2,2023-03-09T12:41:27Z,1662040.13,NULL,Schüler,mwanafunzi,s,mwekezaji,matumizi,uaminifu,NA,sdfdsf,NA,1,NA,NA,NA,NA,NA,NA,NA,NA,NA,NA,NA,NA,NA,NA,NA,NA,NA,NA,NA
4a463,task,flow.Sequence,5_0_1_0_5,NA,NA,completion,8466.9309999999,1653547,1653539.867,1653556.533,1662023.464,1662030.3,2023-03-09T12:41:27Z,1662040.13,NULL,Schüler,mwanafunzi,s,mwekezaji,matumizi,uaminifu,NA,sdfdsf,NA,1,NA,NA,NA,NA,NA,NA,NA,NA,NA,NA,NA,NA,NA,NA,NA,NA,NA,NA,NA
4a463,Deep Question,html.Page,5_0_1_0_6_0_0,NA,NA,form submission,2205.4700000016,1662030.4,1662023.464,1662040.13,1664245.6,1664246.1,2023-03-09T12:41:29Z,1664256.708,NULL,Fenster,dirisha,d,NA,NA,NA,l,NA,NA,1,NA,NA,NA,NA,NA,NA,NA,NA,NA,NA,NA,NA,NA,NA,NA,NA,NA,NA,NA
4a463,"""Richtig""-Screen",canvas.Screen,5_0_1_0_6_0_1,NA,NA,skipped,NA,1664247.3,NA,NA,1664245.6,1664247.5,2023-03-09T12:41:29Z,1664256.708,NULL,Fenster,dirisha,d,NA,NA,NA,NA,sdfdsf,NA,1,NA,NA,NA,NA,NA,NA,NA,NA,NA,NA,NA,NA,NA,NA,NA,NA,NA,NA,NA
4a463,"""Falsch""-Screen",canvas.Screen,5_0_1_0_6_0_2,NA,NA,timeout,4999.7999999998,1664248.4,1664240.042,1664256.708,1669239.842,1669241.4,2023-03-09T12:41:34Z,1669256.508,NULL,Fenster,dirisha,d,NA,NA,NA,NA,sdfdsf,0,1,NA,NA,NA,NA,NA,NA,NA,NA,NA,NA,NA,NA,NA,NA,NA,NA,NA,NA,NA
4a463,deep,flow.Sequence,5_0_1_0_6_0,NA,NA,completion,7199.7120000001,1662030.4,1662023.464,1662040.13,1669239.842,1669241.8,2023-03-09T12:41:34Z,1669256.508,NULL,Fenster,dirisha,d,NA,NA,NA,NA,sdfdsf,NA,1,NA,NA,NA,NA,NA,NA,NA,NA,NA,NA,NA,NA,NA,NA,NA,NA,NA,NA,NA
4a463,shallow,flow.Sequence,5_0_1_0_6_1,NA,NA,skipped,NA,1669241.9,NA,NA,1669239.842,1669242.1,2023-03-09T12:41:34Z,1669256.508,NULL,Fenster,dirisha,d,NA,NA,NA,NA,sdfdsf,NA,1,NA,NA,NA,NA,NA,NA,NA,NA,NA,NA,NA,NA,NA,NA,NA,NA,NA,NA,NA
4a463,task,flow.Sequence,5_0_1_0_6,NA,NA,completion,7199.7120000001,1662030.4,1662023.464,1662040.13,1669239.842,1669242.3,2023-03-09T12:41:34Z,1669256.508,NULL,Fenster,dirisha,d,NA,NA,NA,NA,sdfdsf,NA,1,NA,NA,NA,NA,NA,NA,NA,NA,NA,NA,NA,NA,NA,NA,NA,NA,NA,NA,NA
4a463,Deep Question,html.Page,5_0_1_0_7_0_0,NA,NA,form submission,10742.792000001,1669242.5,1669239.842,1669256.508,1679999.3,1680000,2023-03-09T12:41:45Z,1680007.22,NULL,Spionage,upelelezi,d,NA,NA,NA,uelelezo,NA,NA,1,NA,NA,NA,NA,NA,NA,NA,NA,NA,NA,NA,NA,NA,NA,NA,NA,NA,NA,NA
4a463,"""Richtig""-Screen",canvas.Screen,5_0_1_0_7_0_1,NA,NA,skipped,NA,1680003.3,NA,NA,1679999.3,1680003.5,2023-03-09T12:41:45Z,1680007.22,NULL,Spionage,upelelezi,d,NA,NA,NA,NA,sdfdsf,NA,1,NA,NA,NA,NA,NA,NA,NA,NA,NA,NA,NA,NA,NA,NA,NA,NA,NA,NA,NA
4a463,"""Falsch""-Screen",canvas.Screen,5_0_1_0_7_0_2,NA,NA,timeout,4999.8,1680004.1,1679990.554,1680007.22,1684990.354,1684993.1,2023-03-09T12:41:50Z,1685007.02,NULL,Spionage,upelelezi,d,NA,NA,NA,NA,sdfdsf,0,1,NA,NA,NA,NA,NA,NA,NA,NA,NA,NA,NA,NA,NA,NA,NA,NA,NA,NA,NA
4a463,deep,flow.Sequence,5_0_1_0_7_0,NA,NA,completion,15733.846,1669242.5,1669239.842,1669256.508,1684990.354,1684993.6,2023-03-09T12:41:50Z,1685007.02,NULL,Spionage,upelelezi,d,NA,NA,NA,NA,sdfdsf,NA,1,NA,NA,NA,NA,NA,NA,NA,NA,NA,NA,NA,NA,NA,NA,NA,NA,NA,NA,NA
4a463,shallow,flow.Sequence,5_0_1_0_7_1,NA,NA,skipped,NA,1684993.7,NA,NA,1684990.354,1684993.8,2023-03-09T12:41:50Z,1685007.02,NULL,Spionage,upelelezi,d,NA,NA,NA,NA,sdfdsf,NA,1,NA,NA,NA,NA,NA,NA,NA,NA,NA,NA,NA,NA,NA,NA,NA,NA,NA,NA,NA
4a463,task,flow.Sequence,5_0_1_0_7,NA,NA,completion,15733.846,1669242.4,1669239.842,1669256.508,1684990.354,1684994,2023-03-09T12:41:50Z,1685007.02,NULL,Spionage,upelelezi,d,NA,NA,NA,NA,sdfdsf,NA,1,NA,NA,NA,NA,NA,NA,NA,NA,NA,NA,NA,NA,NA,NA,NA,NA,NA,NA,NA
4a463,block,flow.Loop,5_0_1_0,NA,NA,completion,84184.46,1600795.2,1600789.228,1600805.894,1684990.354,1684994.2,2023-03-09T12:41:50Z,1685007.02,NULL,NA,NA,NA,NA,NA,NA,NA,sdfdsf,NA,1,NA,NA,NA,NA,NA,NA,NA,NA,NA,NA,NA,NA,NA,NA,NA,NA,NA,NA,NA
