observation,sender,sender_type,sender_id,response,response_action,ended_on,duration,time_run,time_render,time_show,time_end,time_commit,timestamp,time_switch,distractors,german,swahili,enc,distractor1,distractor2,distractor3,response_2,x,correct,x_2,url_vp,url_sess,meta_labjs_version,meta_location,meta_user_agent,meta_platform,meta_language,meta_locale,meta_time_zone,meta_timezone_offset,meta_screen_width,meta_screen_height,meta_scroll_width,meta_scroll_height,meta_window_inner_width,meta_window_inner_height,meta_device_pixel_ratio,meta_labjs_build_flavor,meta_labjs_build_commit
67443,Introduction general,canvas.Screen,0,weiter,keypress(q),response,225726.14,2165,2181.18,2197.86,227924,227973,2023-03-03T13:30:58Z,227987.2,NULL,NA,NA,NA,NA,NA,NA,NA,NA,NA,NA,116,1,20.2.4,https://neurocog.fernuni.ch/studies/vweber/encoding_immediate/index.html?vp=116&sess=1,Mozilla/5.0 (Windows NT 10.0; Win64; x64; rv:109.0) Gecko/20100101 Firefox/110.0,Win32,de,de-CH,Europe/Zurich,-60,1366,768,1366,595,1366,643,1,production,f5b4a49f956347addd546a832a3327688c2c0fef
67443,Introduction practice,canvas.Screen,1_0,NA,keypress(Space),response,12701.8,227979,227979.04,227987.2,240689,240701,2023-03-03T13:31:11Z,240719.82,NULL,NA,NA,NA,NA,NA,NA,NA,NA,NA,NA,NA,NA,NA,NA,NA,NA,NA,NA,NA,NA,NA,NA,NA,NA,NA,NA,NA,NA,NA
67443,deep,flow.Sequence,1_1_0_0,NA,NA,skipped,NA,240703,NA,NA,240689,240704,2023-03-03T13:31:11Z,240719.82,"c(""distractor1"", ""distractor2"", ""distractor3"")",Rückhalt,msaada,s,muhula,auwali,kiwimbe,NA,NA,NA,NA,NA,NA,NA,NA,NA,NA,NA,NA,NA,NA,NA,NA,NA,NA,NA,NA,NA,NA,NA
67443,Shallow Question,html.Page,1_1_0_1_0,NA,NA,form submission,9206.18,240706,240705.64,240719.82,249926,249927,2023-03-03T13:31:20Z,249969.32,"c(""distractor1"", ""distractor2"", ""distractor3"")",Rückhalt,msaada,s,muhula,auwali,kiwimbe,muhula,NA,NA,NA,NA,NA,NA,NA,NA,NA,NA,NA,NA,NA,NA,NA,NA,NA,NA,NA,NA,NA,NA
67443,"""Richtig""-Screen",canvas.Screen,1_1_0_1_1,NA,NA,skipped,NA,249942,NA,NA,249926,249942,2023-03-03T13:31:20Z,249969.32,"c(""distractor1"", ""distractor2"", ""distractor3"")",Rückhalt,msaada,s,muhula,auwali,kiwimbe,NA,NA,NA,NA,NA,NA,NA,NA,NA,NA,NA,NA,NA,NA,NA,NA,NA,NA,NA,NA,NA,NA,NA
67443,"""Falsch""-Screen",canvas.Screen,1_1_0_1_2,NA,NA,timeout,4999.86,249954,249880.64,249969.32,254952.54,254954,2023-03-03T13:31:25Z,254969.18,"c(""distractor1"", ""distractor2"", ""distractor3"")",Rückhalt,msaada,s,muhula,auwali,kiwimbe,NA,NA,0,NA,NA,NA,NA,NA,NA,NA,NA,NA,NA,NA,NA,NA,NA,NA,NA,NA,NA,NA,NA
67443,shallow,flow.Sequence,1_1_0_1,NA,NA,completion,14232.72,240705,240705.64,240719.82,254952.54,254956,2023-03-03T13:31:25Z,254969.18,"c(""distractor1"", ""distractor2"", ""distractor3"")",Rückhalt,msaada,s,muhula,auwali,kiwimbe,NA,NA,NA,NA,NA,NA,NA,NA,NA,NA,NA,NA,NA,NA,NA,NA,NA,NA,NA,NA,NA,NA,NA
67443,task,flow.Sequence,1_1_0,NA,NA,completion,14232.72,240702,240705.64,240719.82,254952.54,254957,2023-03-03T13:31:25Z,254969.18,"c(""distractor1"", ""distractor2"", ""distractor3"")",Rückhalt,msaada,s,muhula,auwali,kiwimbe,NA,NA,NA,NA,NA,NA,NA,NA,NA,NA,NA,NA,NA,NA,NA,NA,NA,NA,NA,NA,NA,NA,NA
67443,deep,flow.Sequence,1_1_1_0,NA,NA,skipped,NA,254959,NA,NA,254952.54,254959,2023-03-03T13:31:25Z,254969.18,"c(""distractor1"", ""distractor2"", ""distractor3"")",Kritik,lawama,s,dereva,nafasi,mawazo,NA,NA,NA,NA,NA,NA,NA,NA,NA,NA,NA,NA,NA,NA,NA,NA,NA,NA,NA,NA,NA,NA,NA
67443,Shallow Question,html.Page,1_1_1_1_0,NA,NA,form submission,8177.82,254960,254952.54,254969.18,263147,263147,2023-03-03T13:31:33Z,263185.42,"c(""distractor1"", ""distractor2"", ""distractor3"")",Kritik,lawama,s,dereva,nafasi,mawazo,mawazo,NA,NA,NA,NA,NA,NA,NA,NA,NA,NA,NA,NA,NA,NA,NA,NA,NA,NA,NA,NA,NA,NA
67443,"""Richtig""-Screen",canvas.Screen,1_1_1_1_1,NA,NA,skipped,NA,263157,NA,NA,263147,263160,2023-03-03T13:31:33Z,263185.42,"c(""distractor1"", ""distractor2"", ""distractor3"")",Kritik,lawama,s,dereva,nafasi,mawazo,NA,NA,NA,NA,NA,NA,NA,NA,NA,NA,NA,NA,NA,NA,NA,NA,NA,NA,NA,NA,NA,NA,NA
67443,"""Falsch""-Screen",canvas.Screen,1_1_1_1_2,NA,NA,timeout,4999.72,263174,263140.38,263185.42,268168.5,268170,2023-03-03T13:31:38Z,268185.14,"c(""distractor1"", ""distractor2"", ""distractor3"")",Kritik,lawama,s,dereva,nafasi,mawazo,NA,NA,0,NA,NA,NA,NA,NA,NA,NA,NA,NA,NA,NA,NA,NA,NA,NA,NA,NA,NA,NA,NA
67443,shallow,flow.Sequence,1_1_1_1,NA,NA,completion,13199.32,254960,254952.54,254969.18,268168.5,268172,2023-03-03T13:31:38Z,268185.14,"c(""distractor1"", ""distractor2"", ""distractor3"")",Kritik,lawama,s,dereva,nafasi,mawazo,NA,NA,NA,NA,NA,NA,NA,NA,NA,NA,NA,NA,NA,NA,NA,NA,NA,NA,NA,NA,NA,NA,NA
67443,task,flow.Sequence,1_1_1,NA,NA,completion,13199.32,254958,254952.54,254969.18,268168.5,268174,2023-03-03T13:31:38Z,268185.14,"c(""distractor1"", ""distractor2"", ""distractor3"")",Kritik,lawama,s,dereva,nafasi,mawazo,NA,NA,NA,NA,NA,NA,NA,NA,NA,NA,NA,NA,NA,NA,NA,NA,NA,NA,NA,NA,NA,NA,NA
67443,Deep Question,html.Page,1_1_2_0_0,NA,NA,form submission,9840.86,268175,268168.5,268185.14,278026,278027,2023-03-03T13:31:48Z,278051.3,"c(""distractor1"", ""distractor2"", ""distractor3"")",Qualität,mtindo,d,NA,NA,NA,mimba,NA,NA,NA,NA,NA,NA,NA,NA,NA,NA,NA,NA,NA,NA,NA,NA,NA,NA,NA,NA,NA,NA
67443,"""Richtig""-Screen",canvas.Screen,1_1_2_0_1,NA,NA,skipped,NA,278035,NA,NA,278026,278036,2023-03-03T13:31:48Z,278051.3,"c(""distractor1"", ""distractor2"", ""distractor3"")",Qualität,mtindo,d,NA,NA,NA,NA,NA,NA,NA,NA,NA,NA,NA,NA,NA,NA,NA,NA,NA,NA,NA,NA,NA,NA,NA,NA,NA,NA
67443,"""Falsch""-Screen",canvas.Screen,1_1_2_0_2,NA,NA,timeout,4999.82,278047,278020.58,278051.3,283034.46,283036,2023-03-03T13:31:53Z,283051.12,"c(""distractor1"", ""distractor2"", ""distractor3"")",Qualität,mtindo,d,NA,NA,NA,NA,NA,0,NA,NA,NA,NA,NA,NA,NA,NA,NA,NA,NA,NA,NA,NA,NA,NA,NA,NA,NA,NA
67443,deep,flow.Sequence,1_1_2_0,NA,NA,completion,14849.32,268175,268168.5,268185.14,283034.46,283038,2023-03-03T13:31:53Z,283051.12,"c(""distractor1"", ""distractor2"", ""distractor3"")",Qualität,mtindo,d,NA,NA,NA,NA,NA,NA,NA,NA,NA,NA,NA,NA,NA,NA,NA,NA,NA,NA,NA,NA,NA,NA,NA,NA,NA,NA
67443,shallow,flow.Sequence,1_1_2_1,NA,NA,skipped,NA,283041,NA,NA,283034.46,283042,2023-03-03T13:31:53Z,283051.12,"c(""distractor1"", ""distractor2"", ""distractor3"")",Qualität,mtindo,d,NA,NA,NA,NA,NA,NA,NA,NA,NA,NA,NA,NA,NA,NA,NA,NA,NA,NA,NA,NA,NA,NA,NA,NA,NA,NA
67443,task,flow.Sequence,1_1_2,NA,NA,completion,14849.32,268175,268168.5,268185.14,283034.46,283044,2023-03-03T13:31:53Z,283051.12,"c(""distractor1"", ""distractor2"", ""distractor3"")",Qualität,mtindo,d,NA,NA,NA,NA,NA,NA,NA,NA,NA,NA,NA,NA,NA,NA,NA,NA,NA,NA,NA,NA,NA,NA,NA,NA,NA,NA
67443,deep,flow.Sequence,1_1_3_0,NA,NA,skipped,NA,283046,NA,NA,283034.46,283046,2023-03-03T13:31:53Z,283051.12,"c(""distractor1"", ""distractor2"", ""distractor3"")",Gegenwart,hadhara,s,katiba,jokofu,mikopo,NA,NA,NA,NA,NA,NA,NA,NA,NA,NA,NA,NA,NA,NA,NA,NA,NA,NA,NA,NA,NA,NA,NA
67443,Shallow Question,html.Page,1_1_3_1_0,NA,NA,form submission,11198.88,283048,283034.46,283051.12,294250,294251,2023-03-03T13:32:04Z,294267.26,"c(""distractor1"", ""distractor2"", ""distractor3"")",Gegenwart,hadhara,s,katiba,jokofu,mikopo,mikopo,NA,NA,NA,NA,NA,NA,NA,NA,NA,NA,NA,NA,NA,NA,NA,NA,NA,NA,NA,NA,NA,NA
67443,"""Richtig""-Screen",canvas.Screen,1_1_3_1_1,NA,NA,skipped,NA,294260,NA,NA,294250,294261,2023-03-03T13:32:04Z,294267.26,"c(""distractor1"", ""distractor2"", ""distractor3"")",Gegenwart,hadhara,s,katiba,jokofu,mikopo,NA,NA,NA,NA,NA,NA,NA,NA,NA,NA,NA,NA,NA,NA,NA,NA,NA,NA,NA,NA,NA,NA,NA
67443,"""Falsch""-Screen",canvas.Screen,1_1_3_1_2,NA,NA,timeout,4999.76,294272,294245.36,294267.26,299250.34,299252,2023-03-03T13:32:09Z,299267.02,"c(""distractor1"", ""distractor2"", ""distractor3"")",Gegenwart,hadhara,s,katiba,jokofu,mikopo,NA,NA,0,NA,NA,NA,NA,NA,NA,NA,NA,NA,NA,NA,NA,NA,NA,NA,NA,NA,NA,NA,NA
67443,shallow,flow.Sequence,1_1_3_1,NA,NA,completion,16199.22,283047,283034.46,283051.12,299250.34,299252,2023-03-03T13:32:09Z,299267.02,"c(""distractor1"", ""distractor2"", ""distractor3"")",Gegenwart,hadhara,s,katiba,jokofu,mikopo,NA,NA,NA,NA,NA,NA,NA,NA,NA,NA,NA,NA,NA,NA,NA,NA,NA,NA,NA,NA,NA,NA,NA
67443,task,flow.Sequence,1_1_3,NA,NA,completion,16199.22,283045,283034.46,283051.12,299250.34,299254,2023-03-03T13:32:09Z,299267.02,"c(""distractor1"", ""distractor2"", ""distractor3"")",Gegenwart,hadhara,s,katiba,jokofu,mikopo,NA,NA,NA,NA,NA,NA,NA,NA,NA,NA,NA,NA,NA,NA,NA,NA,NA,NA,NA,NA,NA,NA,NA
67443,Deep Question,html.Page,1_1_4_0_0,NA,NA,form submission,11991.98,299255,299250.34,299267.02,311259,311260,2023-03-03T13:32:21Z,311283.08,"c(""distractor1"", ""distractor2"", ""distractor3"")",Gesundheit,salama,d,NA,NA,NA,mahalo,NA,NA,NA,NA,NA,NA,NA,NA,NA,NA,NA,NA,NA,NA,NA,NA,NA,NA,NA,NA,NA,NA
67443,"""Richtig""-Screen",canvas.Screen,1_1_4_0_1,NA,NA,skipped,NA,311269,NA,NA,311259,311270,2023-03-03T13:32:21Z,311283.08,"c(""distractor1"", ""distractor2"", ""distractor3"")",Gesundheit,salama,d,NA,NA,NA,NA,NA,NA,NA,NA,NA,NA,NA,NA,NA,NA,NA,NA,NA,NA,NA,NA,NA,NA,NA,NA,NA,NA
67443,"""Falsch""-Screen",canvas.Screen,1_1_4_0_2,NA,NA,timeout,4999.92,311282,311256.92,311283.08,316266.34,316268,2023-03-03T13:32:26Z,316283,"c(""distractor1"", ""distractor2"", ""distractor3"")",Gesundheit,salama,d,NA,NA,NA,NA,NA,0,NA,NA,NA,NA,NA,NA,NA,NA,NA,NA,NA,NA,NA,NA,NA,NA,NA,NA,NA,NA
67443,deep,flow.Sequence,1_1_4_0,NA,NA,completion,16999.32,299255,299250.34,299267.02,316266.34,316270,2023-03-03T13:32:26Z,316283,"c(""distractor1"", ""distractor2"", ""distractor3"")",Gesundheit,salama,d,NA,NA,NA,NA,NA,NA,NA,NA,NA,NA,NA,NA,NA,NA,NA,NA,NA,NA,NA,NA,NA,NA,NA,NA,NA,NA
67443,shallow,flow.Sequence,1_1_4_1,NA,NA,skipped,NA,316271,NA,NA,316266.34,316272,2023-03-03T13:32:26Z,316283,"c(""distractor1"", ""distractor2"", ""distractor3"")",Gesundheit,salama,d,NA,NA,NA,NA,NA,NA,NA,NA,NA,NA,NA,NA,NA,NA,NA,NA,NA,NA,NA,NA,NA,NA,NA,NA,NA,NA
67443,task,flow.Sequence,1_1_4,NA,NA,completion,16999.32,299254,299250.34,299267.02,316266.34,316274,2023-03-03T13:32:26Z,316283,"c(""distractor1"", ""distractor2"", ""distractor3"")",Gesundheit,salama,d,NA,NA,NA,NA,NA,NA,NA,NA,NA,NA,NA,NA,NA,NA,NA,NA,NA,NA,NA,NA,NA,NA,NA,NA,NA,NA
67443,Deep Question,html.Page,1_1_5_0_0,NA,NA,form submission,7930,316276,316266.34,316283,324213,324214,2023-03-03T13:32:34Z,324249.16,"c(""distractor1"", ""distractor2"", ""distractor3"")",Schatten,kivuli,d,NA,NA,NA,danko,NA,NA,NA,NA,NA,NA,NA,NA,NA,NA,NA,NA,NA,NA,NA,NA,NA,NA,NA,NA,NA,NA
67443,"""Richtig""-Screen",canvas.Screen,1_1_5_0_1,NA,NA,skipped,NA,324226,NA,NA,324213,324227,2023-03-03T13:32:34Z,324249.16,"c(""distractor1"", ""distractor2"", ""distractor3"")",Schatten,kivuli,d,NA,NA,NA,NA,NA,NA,NA,NA,NA,NA,NA,NA,NA,NA,NA,NA,NA,NA,NA,NA,NA,NA,NA,NA,NA,NA
67443,"""Falsch""-Screen",canvas.Screen,1_1_5_0_2,NA,NA,timeout,4999.76,324238,324209.82,324249.16,329232.26,329233,2023-03-03T13:32:39Z,329248.92,"c(""distractor1"", ""distractor2"", ""distractor3"")",Schatten,kivuli,d,NA,NA,NA,NA,NA,0,NA,NA,NA,NA,NA,NA,NA,NA,NA,NA,NA,NA,NA,NA,NA,NA,NA,NA,NA,NA
67443,deep,flow.Sequence,1_1_5_0,NA,NA,completion,12949.26,316275,316266.34,316283,329232.26,329234,2023-03-03T13:32:39Z,329248.92,"c(""distractor1"", ""distractor2"", ""distractor3"")",Schatten,kivuli,d,NA,NA,NA,NA,NA,NA,NA,NA,NA,NA,NA,NA,NA,NA,NA,NA,NA,NA,NA,NA,NA,NA,NA,NA,NA,NA
67443,shallow,flow.Sequence,1_1_5_1,NA,NA,skipped,NA,329234,NA,NA,329232.26,329234,2023-03-03T13:32:39Z,329248.92,"c(""distractor1"", ""distractor2"", ""distractor3"")",Schatten,kivuli,d,NA,NA,NA,NA,NA,NA,NA,NA,NA,NA,NA,NA,NA,NA,NA,NA,NA,NA,NA,NA,NA,NA,NA,NA,NA,NA
67443,task,flow.Sequence,1_1_5,NA,NA,completion,12949.26,316275,316266.34,316283,329232.26,329235,2023-03-03T13:32:39Z,329248.92,"c(""distractor1"", ""distractor2"", ""distractor3"")",Schatten,kivuli,d,NA,NA,NA,NA,NA,NA,NA,NA,NA,NA,NA,NA,NA,NA,NA,NA,NA,NA,NA,NA,NA,NA,NA,NA,NA,NA
67443,block,flow.Loop,1_1,NA,NA,completion,88512.44,240702,240705.64,240719.82,329232.26,329237,2023-03-03T13:32:39Z,329248.92,"c(""distractor1"", ""distractor2"", ""distractor3"")",NA,NA,NA,NA,NA,NA,NA,NA,NA,NA,NA,NA,NA,NA,NA,NA,NA,NA,NA,NA,NA,NA,NA,NA,NA,NA,NA,NA,NA
67443,Practice,flow.Sequence,1,NA,NA,completion,101245.06,227978,227979.04,227987.2,329232.26,329237,2023-03-03T13:32:39Z,329248.92,NULL,NA,NA,NA,NA,NA,NA,NA,NA,NA,NA,NA,NA,NA,NA,NA,NA,NA,NA,NA,NA,NA,NA,NA,NA,NA,NA,NA,NA,NA
67443,Experiment start,canvas.Screen,2,weiter,keypress(q),response,18267.08,329238,329232.26,329248.92,347516,347526,2023-03-03T13:32:58Z,347948.12,NULL,NA,NA,NA,NA,NA,NA,NA,NA,NA,NA,NA,NA,NA,NA,NA,NA,NA,NA,NA,NA,NA,NA,NA,NA,NA,NA,NA,NA,NA
67443,deep,flow.Sequence,3_0_0_0_0_0,NA,NA,skipped,NA,347940,NA,NA,347516,347940,2023-03-03T13:32:58Z,347948.12,NULL,Lawine,banguko,s,maambukizi,usuluhishi,chekechea,NA,sdf,NA,0,NA,NA,NA,NA,NA,NA,NA,NA,NA,NA,NA,NA,NA,NA,NA,NA,NA,NA,NA
67443,Shallow Question,html.Page,3_0_0_0_0_1_0,NA,NA,form submission,9851.88,347941,347941.3,347948.12,357800,357801,2023-03-03T13:33:08Z,357814.3,NULL,Lawine,banguko,s,maambukizi,usuluhishi,chekechea,usuluhishi,NA,NA,0,NA,NA,NA,NA,NA,NA,NA,NA,NA,NA,NA,NA,NA,NA,NA,NA,NA,NA,NA
67443,"""Richtig""-Screen",canvas.Screen,3_0_0_0_0_1_1,NA,NA,skipped,NA,357812,NA,NA,357800,357813,2023-03-03T13:33:08Z,357814.3,NULL,Lawine,banguko,s,maambukizi,usuluhishi,chekechea,NA,sdf,NA,0,NA,NA,NA,NA,NA,NA,NA,NA,NA,NA,NA,NA,NA,NA,NA,NA,NA,NA,NA
67443,"""Falsch""-Screen",canvas.Screen,3_0_0_0_0_1_2,NA,NA,timeout,4999.7,357822,357791.88,357814.3,362797.4,362799,2023-03-03T13:33:13Z,362814,NULL,Lawine,banguko,s,maambukizi,usuluhishi,chekechea,NA,sdf,0,0,NA,NA,NA,NA,NA,NA,NA,NA,NA,NA,NA,NA,NA,NA,NA,NA,NA,NA,NA
67443,shallow,flow.Sequence,3_0_0_0_0_1,NA,NA,completion,14849.28,347941,347941.3,347948.12,362797.4,362800,2023-03-03T13:33:13Z,362814,NULL,Lawine,banguko,s,maambukizi,usuluhishi,chekechea,NA,sdf,NA,0,NA,NA,NA,NA,NA,NA,NA,NA,NA,NA,NA,NA,NA,NA,NA,NA,NA,NA,NA
67443,task,flow.Sequence,3_0_0_0_0,NA,NA,completion,14849.28,347940,347941.3,347948.12,362797.4,362802,2023-03-03T13:33:13Z,362814,NULL,Lawine,banguko,s,maambukizi,usuluhishi,chekechea,NA,sdf,NA,0,NA,NA,NA,NA,NA,NA,NA,NA,NA,NA,NA,NA,NA,NA,NA,NA,NA,NA,NA
67443,Deep Question,html.Page,3_0_0_0_1_0_0,NA,NA,form submission,7884,362804,362797.4,362814,370698,370699,2023-03-03T13:33:21Z,370713.64,NULL,Übersicht,kilindo,d,NA,NA,NA,kamala,NA,NA,0,NA,NA,NA,NA,NA,NA,NA,NA,NA,NA,NA,NA,NA,NA,NA,NA,NA,NA,NA
67443,"""Richtig""-Screen",canvas.Screen,3_0_0_0_1_0_1,NA,NA,skipped,NA,370704,NA,NA,370698,370704,2023-03-03T13:33:21Z,370713.64,NULL,Übersicht,kilindo,d,NA,NA,NA,NA,sdf,NA,0,NA,NA,NA,NA,NA,NA,NA,NA,NA,NA,NA,NA,NA,NA,NA,NA,NA,NA,NA
67443,"""Falsch""-Screen",canvas.Screen,3_0_0_0_1_0_2,NA,NA,timeout,4999.74,370711,370693.28,370713.64,375696.72,375699,2023-03-03T13:33:26Z,375713.38,NULL,Übersicht,kilindo,d,NA,NA,NA,NA,sdf,0,0,NA,NA,NA,NA,NA,NA,NA,NA,NA,NA,NA,NA,NA,NA,NA,NA,NA,NA,NA
67443,deep,flow.Sequence,3_0_0_0_1_0,NA,NA,completion,12882.72,362804,362797.4,362814,375696.72,375700,2023-03-03T13:33:26Z,375713.38,NULL,Übersicht,kilindo,d,NA,NA,NA,NA,sdf,NA,0,NA,NA,NA,NA,NA,NA,NA,NA,NA,NA,NA,NA,NA,NA,NA,NA,NA,NA,NA
67443,shallow,flow.Sequence,3_0_0_0_1_1,NA,NA,skipped,NA,375701,NA,NA,375696.72,375702,2023-03-03T13:33:26Z,375713.38,NULL,Übersicht,kilindo,d,NA,NA,NA,NA,sdf,NA,0,NA,NA,NA,NA,NA,NA,NA,NA,NA,NA,NA,NA,NA,NA,NA,NA,NA,NA,NA
67443,task,flow.Sequence,3_0_0_0_1,NA,NA,completion,12882.72,362803,362797.4,362814,375696.72,375704,2023-03-03T13:33:26Z,375713.38,NULL,Übersicht,kilindo,d,NA,NA,NA,NA,sdf,NA,0,NA,NA,NA,NA,NA,NA,NA,NA,NA,NA,NA,NA,NA,NA,NA,NA,NA,NA,NA
67443,deep,flow.Sequence,3_0_0_0_2_0,NA,NA,skipped,NA,375705,NA,NA,375696.72,375705,2023-03-03T13:33:26Z,375713.38,NULL,System,maongozi,s,chokochoko,nuksani,mitaani,NA,sdf,NA,0,NA,NA,NA,NA,NA,NA,NA,NA,NA,NA,NA,NA,NA,NA,NA,NA,NA,NA,NA
67443,Shallow Question,html.Page,3_0_0_0_2_1_0,NA,NA,form submission,5637.62,375706,375696.72,375713.38,381351,381352,2023-03-03T13:33:31Z,381363.04,NULL,System,maongozi,s,chokochoko,nuksani,mitaani,maongozi,NA,NA,0,NA,NA,NA,NA,NA,NA,NA,NA,NA,NA,NA,NA,NA,NA,NA,NA,NA,NA,NA
67443,"""Richtig""-Screen",canvas.Screen,3_0_0_0_2_1_1,NA,NA,timeout,4999.94,381364,381343.04,381363.04,386346.32,386349,2023-03-03T13:33:36Z,386362.98,NULL,System,maongozi,s,chokochoko,nuksani,mitaani,NA,sdf,1,0,NA,NA,NA,NA,NA,NA,NA,NA,NA,NA,NA,NA,NA,NA,NA,NA,NA,NA,NA
67443,"""Falsch""-Screen",canvas.Screen,3_0_0_0_2_1_2,NA,NA,skipped,NA,386364,NA,NA,386346.32,386364,2023-03-03T13:33:36Z,386362.98,NULL,System,maongozi,s,chokochoko,nuksani,mitaani,NA,sdf,NA,0,NA,NA,NA,NA,NA,NA,NA,NA,NA,NA,NA,NA,NA,NA,NA,NA,NA,NA,NA
67443,shallow,flow.Sequence,3_0_0_0_2_1,NA,NA,completion,10632.94,375706,375696.72,375713.38,386346.32,386366,2023-03-03T13:33:36Z,386362.98,NULL,System,maongozi,s,chokochoko,nuksani,mitaani,NA,sdf,NA,0,NA,NA,NA,NA,NA,NA,NA,NA,NA,NA,NA,NA,NA,NA,NA,NA,NA,NA,NA
67443,task,flow.Sequence,3_0_0_0_2,NA,NA,completion,10632.94,375705,375696.72,375713.38,386346.32,386367,2023-03-03T13:33:36Z,386362.98,NULL,System,maongozi,s,chokochoko,nuksani,mitaani,NA,sdf,NA,0,NA,NA,NA,NA,NA,NA,NA,NA,NA,NA,NA,NA,NA,NA,NA,NA,NA,NA,NA
67443,Deep Question,html.Page,3_0_0_0_3_0_0,NA,NA,form submission,7767.02,386369,386346.32,386362.98,394130,394131,2023-03-03T13:33:44Z,394162.5,NULL,Vorwurf,mashtaka,d,NA,NA,NA,salari,NA,NA,0,NA,NA,NA,NA,NA,NA,NA,NA,NA,NA,NA,NA,NA,NA,NA,NA,NA,NA,NA
67443,"""Richtig""-Screen",canvas.Screen,3_0_0_0_3_0_1,NA,NA,skipped,NA,394142,NA,NA,394130,394143,2023-03-03T13:33:44Z,394162.5,NULL,Vorwurf,mashtaka,d,NA,NA,NA,NA,sdf,NA,0,NA,NA,NA,NA,NA,NA,NA,NA,NA,NA,NA,NA,NA,NA,NA,NA,NA,NA,NA
67443,"""Falsch""-Screen",canvas.Screen,3_0_0_0_3_0_2,NA,NA,timeout,4999.84,394157,394122.44,394162.5,399145.68,399148,2023-03-03T13:33:49Z,399162.34,NULL,Vorwurf,mashtaka,d,NA,NA,NA,NA,sdf,0,0,NA,NA,NA,NA,NA,NA,NA,NA,NA,NA,NA,NA,NA,NA,NA,NA,NA,NA,NA
67443,deep,flow.Sequence,3_0_0_0_3_0,NA,NA,completion,12782.7,386367,386346.32,386362.98,399145.68,399152,2023-03-03T13:33:49Z,399162.34,NULL,Vorwurf,mashtaka,d,NA,NA,NA,NA,sdf,NA,0,NA,NA,NA,NA,NA,NA,NA,NA,NA,NA,NA,NA,NA,NA,NA,NA,NA,NA,NA
67443,shallow,flow.Sequence,3_0_0_0_3_1,NA,NA,skipped,NA,399154,NA,NA,399145.68,399154,2023-03-03T13:33:49Z,399162.34,NULL,Vorwurf,mashtaka,d,NA,NA,NA,NA,sdf,NA,0,NA,NA,NA,NA,NA,NA,NA,NA,NA,NA,NA,NA,NA,NA,NA,NA,NA,NA,NA
67443,task,flow.Sequence,3_0_0_0_3,NA,NA,completion,12782.7,386367,386346.32,386362.98,399145.68,399156,2023-03-03T13:33:49Z,399162.34,NULL,Vorwurf,mashtaka,d,NA,NA,NA,NA,sdf,NA,0,NA,NA,NA,NA,NA,NA,NA,NA,NA,NA,NA,NA,NA,NA,NA,NA,NA,NA,NA
67443,deep,flow.Sequence,3_0_0_0_4_0,NA,NA,skipped,NA,399157,NA,NA,399145.68,399158,2023-03-03T13:33:49Z,399162.34,NULL,Niveau,kiwango,s,usimamizi,mwamali,mshairi,NA,sdf,NA,0,NA,NA,NA,NA,NA,NA,NA,NA,NA,NA,NA,NA,NA,NA,NA,NA,NA,NA,NA
67443,Shallow Question,html.Page,3_0_0_0_4_1_0,NA,NA,form submission,6626.66,399158,399145.68,399162.34,405789,405790,2023-03-03T13:33:56Z,405795.34,NULL,Niveau,kiwango,s,usimamizi,mwamali,mshairi,mwamali,NA,NA,0,NA,NA,NA,NA,NA,NA,NA,NA,NA,NA,NA,NA,NA,NA,NA,NA,NA,NA,NA
67443,"""Richtig""-Screen",canvas.Screen,3_0_0_0_4_1_1,NA,NA,skipped,NA,405797,NA,NA,405789,405797,2023-03-03T13:33:56Z,405795.34,NULL,Niveau,kiwango,s,usimamizi,mwamali,mshairi,NA,sdf,NA,0,NA,NA,NA,NA,NA,NA,NA,NA,NA,NA,NA,NA,NA,NA,NA,NA,NA,NA,NA
67443,"""Falsch""-Screen",canvas.Screen,3_0_0_0_4_1_2,NA,NA,timeout,4999.76,405805,405782.02,405795.34,410778.42,410781,2023-03-03T13:34:01Z,410795.1,NULL,Niveau,kiwango,s,usimamizi,mwamali,mshairi,NA,sdf,0,0,NA,NA,NA,NA,NA,NA,NA,NA,NA,NA,NA,NA,NA,NA,NA,NA,NA,NA,NA
67443,shallow,flow.Sequence,3_0_0_0_4_1,NA,NA,completion,11616.08,399158,399145.68,399162.34,410778.42,410782,2023-03-03T13:34:01Z,410795.1,NULL,Niveau,kiwango,s,usimamizi,mwamali,mshairi,NA,sdf,NA,0,NA,NA,NA,NA,NA,NA,NA,NA,NA,NA,NA,NA,NA,NA,NA,NA,NA,NA,NA
67443,task,flow.Sequence,3_0_0_0_4,NA,NA,completion,11616.08,399157,399145.68,399162.34,410778.42,410785,2023-03-03T13:34:01Z,410795.1,NULL,Niveau,kiwango,s,usimamizi,mwamali,mshairi,NA,sdf,NA,0,NA,NA,NA,NA,NA,NA,NA,NA,NA,NA,NA,NA,NA,NA,NA,NA,NA,NA,NA
67443,deep,flow.Sequence,3_0_0_0_5_0,NA,NA,skipped,NA,410787,NA,NA,410778.42,410788,2023-03-03T13:34:01Z,410795.1,NULL,Papier,karatasi,s,uchambuzi,usalama,kukataliwa,NA,sdf,NA,0,NA,NA,NA,NA,NA,NA,NA,NA,NA,NA,NA,NA,NA,NA,NA,NA,NA,NA,NA
67443,Shallow Question,html.Page,3_0_0_0_5_1_0,NA,NA,form submission,12914.9,410789,410778.42,410795.1,423710,423711,2023-03-03T13:34:14Z,423727.88,NULL,Papier,karatasi,s,uchambuzi,usalama,kukataliwa,karatasi,NA,NA,0,NA,NA,NA,NA,NA,NA,NA,NA,NA,NA,NA,NA,NA,NA,NA,NA,NA,NA,NA
67443,"""Richtig""-Screen",canvas.Screen,3_0_0_0_5_1_1,NA,NA,timeout,4999.6,423723,423702.14,423727.88,428710.8,428711,2023-03-03T13:34:19Z,428727.48,NULL,Papier,karatasi,s,uchambuzi,usalama,kukataliwa,NA,sdf,1,0,NA,NA,NA,NA,NA,NA,NA,NA,NA,NA,NA,NA,NA,NA,NA,NA,NA,NA,NA
67443,"""Falsch""-Screen",canvas.Screen,3_0_0_0_5_1_2,NA,NA,skipped,NA,428719,NA,NA,428710.8,428719,2023-03-03T13:34:19Z,428727.48,NULL,Papier,karatasi,s,uchambuzi,usalama,kukataliwa,NA,sdf,NA,0,NA,NA,NA,NA,NA,NA,NA,NA,NA,NA,NA,NA,NA,NA,NA,NA,NA,NA,NA
67443,shallow,flow.Sequence,3_0_0_0_5_1,NA,NA,completion,17915.7,410789,410778.42,410795.1,428710.8,428719,2023-03-03T13:34:19Z,428727.48,NULL,Papier,karatasi,s,uchambuzi,usalama,kukataliwa,NA,sdf,NA,0,NA,NA,NA,NA,NA,NA,NA,NA,NA,NA,NA,NA,NA,NA,NA,NA,NA,NA,NA
67443,task,flow.Sequence,3_0_0_0_5,NA,NA,completion,17915.7,410787,410778.42,410795.1,428710.8,428720,2023-03-03T13:34:19Z,428727.48,NULL,Papier,karatasi,s,uchambuzi,usalama,kukataliwa,NA,sdf,NA,0,NA,NA,NA,NA,NA,NA,NA,NA,NA,NA,NA,NA,NA,NA,NA,NA,NA,NA,NA
67443,Deep Question,html.Page,3_0_0_0_6_0_0,NA,NA,form submission,9245.52,428720,428710.8,428727.48,437973,437973,2023-03-03T13:34:28Z,437993.68,NULL,Körper,kiwiliwili,d,NA,NA,NA,mbambe,NA,NA,0,NA,NA,NA,NA,NA,NA,NA,NA,NA,NA,NA,NA,NA,NA,NA,NA,NA,NA,NA
67443,"""Richtig""-Screen",canvas.Screen,3_0_0_0_6_0_1,NA,NA,skipped,NA,437986,NA,NA,437973,437987,2023-03-03T13:34:28Z,437993.68,NULL,Körper,kiwiliwili,d,NA,NA,NA,NA,sdf,NA,0,NA,NA,NA,NA,NA,NA,NA,NA,NA,NA,NA,NA,NA,NA,NA,NA,NA,NA,NA
67443,"""Falsch""-Screen",canvas.Screen,3_0_0_0_6_0_2,NA,NA,timeout,4999.86,438002,437959.98,437993.68,442976.88,442980,2023-03-03T13:34:33Z,442993.54,NULL,Körper,kiwiliwili,d,NA,NA,NA,NA,sdf,0,0,NA,NA,NA,NA,NA,NA,NA,NA,NA,NA,NA,NA,NA,NA,NA,NA,NA,NA,NA
67443,deep,flow.Sequence,3_0_0_0_6_0,NA,NA,completion,14249.4,428720,428710.8,428727.48,442976.88,442981,2023-03-03T13:34:33Z,442993.54,NULL,Körper,kiwiliwili,d,NA,NA,NA,NA,sdf,NA,0,NA,NA,NA,NA,NA,NA,NA,NA,NA,NA,NA,NA,NA,NA,NA,NA,NA,NA,NA
67443,shallow,flow.Sequence,3_0_0_0_6_1,NA,NA,skipped,NA,442983,NA,NA,442976.88,442983,2023-03-03T13:34:33Z,442993.54,NULL,Körper,kiwiliwili,d,NA,NA,NA,NA,sdf,NA,0,NA,NA,NA,NA,NA,NA,NA,NA,NA,NA,NA,NA,NA,NA,NA,NA,NA,NA,NA
67443,task,flow.Sequence,3_0_0_0_6,NA,NA,completion,14249.4,428720,428710.8,428727.48,442976.88,442986,2023-03-03T13:34:33Z,442993.54,NULL,Körper,kiwiliwili,d,NA,NA,NA,NA,sdf,NA,0,NA,NA,NA,NA,NA,NA,NA,NA,NA,NA,NA,NA,NA,NA,NA,NA,NA,NA,NA
67443,Deep Question,html.Page,3_0_0_0_7_0_0,NA,NA,form submission,5923.46,442987,442976.88,442993.54,448917,448918,2023-03-03T13:34:39Z,448926.66,NULL,Entwicklung,maendeleo,d,NA,NA,NA,grow,NA,NA,0,NA,NA,NA,NA,NA,NA,NA,NA,NA,NA,NA,NA,NA,NA,NA,NA,NA,NA,NA
67443,"""Richtig""-Screen",canvas.Screen,3_0_0_0_7_0_1,NA,NA,skipped,NA,448926,NA,NA,448917,448927,2023-03-03T13:34:39Z,448926.66,NULL,Entwicklung,maendeleo,d,NA,NA,NA,NA,sdf,NA,0,NA,NA,NA,NA,NA,NA,NA,NA,NA,NA,NA,NA,NA,NA,NA,NA,NA,NA,NA
67443,"""Falsch""-Screen",canvas.Screen,3_0_0_0_7_0_2,NA,NA,timeout,4999.7,448934,448914.88,448926.66,453909.7,453912,2023-03-03T13:34:44Z,453926.36,NULL,Entwicklung,maendeleo,d,NA,NA,NA,NA,sdf,0,0,NA,NA,NA,NA,NA,NA,NA,NA,NA,NA,NA,NA,NA,NA,NA,NA,NA,NA,NA
67443,deep,flow.Sequence,3_0_0_0_7_0,NA,NA,completion,10916.16,442987,442976.88,442993.54,453909.7,453913,2023-03-03T13:34:44Z,453926.36,NULL,Entwicklung,maendeleo,d,NA,NA,NA,NA,sdf,NA,0,NA,NA,NA,NA,NA,NA,NA,NA,NA,NA,NA,NA,NA,NA,NA,NA,NA,NA,NA
67443,shallow,flow.Sequence,3_0_0_0_7_1,NA,NA,skipped,NA,453914,NA,NA,453909.7,453916,2023-03-03T13:34:44Z,453926.36,NULL,Entwicklung,maendeleo,d,NA,NA,NA,NA,sdf,NA,0,NA,NA,NA,NA,NA,NA,NA,NA,NA,NA,NA,NA,NA,NA,NA,NA,NA,NA,NA
67443,task,flow.Sequence,3_0_0_0_7,NA,NA,completion,10916.16,442987,442976.88,442993.54,453909.7,453918,2023-03-03T13:34:44Z,453926.36,NULL,Entwicklung,maendeleo,d,NA,NA,NA,NA,sdf,NA,0,NA,NA,NA,NA,NA,NA,NA,NA,NA,NA,NA,NA,NA,NA,NA,NA,NA,NA,NA
67443,block,flow.Loop,3_0_0_0,NA,NA,completion,105961.58,347940,347941.3,347948.12,453909.7,453919,2023-03-03T13:34:44Z,453926.36,NULL,NA,NA,NA,NA,NA,NA,NA,sdf,NA,0,NA,NA,NA,NA,NA,NA,NA,NA,NA,NA,NA,NA,NA,NA,NA,NA,NA,NA,NA
67443,weiter,canvas.Screen,3_0_0_1,sdf,keypress(Space),response,871.64000000001,453919,453909.7,453926.36,454798,454813,2023-03-03T13:34:45Z,455009.58,NULL,NA,NA,NA,NA,NA,NA,NA,sdf,NA,0,NA,NA,NA,NA,NA,NA,NA,NA,NA,NA,NA,NA,NA,NA,NA,NA,NA,NA,NA
67443,check continue,flow.Sequence,3_0_0,NA,NA,completion,106849.88,347939,347941.3,347948.12,454798,454814,2023-03-03T13:34:45Z,455009.58,NULL,NA,NA,NA,NA,NA,NA,NA,sdf,NA,0,NA,NA,NA,NA,NA,NA,NA,NA,NA,NA,NA,NA,NA,NA,NA,NA,NA,NA,NA
67443,Deep Question,html.Page,3_0_1_0_0_0_0,NA,NA,form submission,12792.42,455004,455004.64,455009.58,467802,467803,2023-03-03T13:34:58Z,467825.62,NULL,Entwicklung,maendeleo,d,NA,NA,NA,kiwalo,NA,NA,1,NA,NA,NA,NA,NA,NA,NA,NA,NA,NA,NA,NA,NA,NA,NA,NA,NA,NA,NA
67443,"""Richtig""-Screen",canvas.Screen,3_0_1_0_0_0_1,NA,NA,skipped,NA,467811,NA,NA,467802,467812,2023-03-03T13:34:58Z,467825.62,NULL,Entwicklung,maendeleo,d,NA,NA,NA,NA,sdfdsf,NA,1,NA,NA,NA,NA,NA,NA,NA,NA,NA,NA,NA,NA,NA,NA,NA,NA,NA,NA,NA
67443,"""Falsch""-Screen",canvas.Screen,3_0_1_0_0_0_2,NA,NA,timeout,5016.52,467821,467799.08,467825.62,472808.86,472815,2023-03-03T13:35:03Z,472842.14,NULL,Entwicklung,maendeleo,d,NA,NA,NA,NA,sdfdsf,0,1,NA,NA,NA,NA,NA,NA,NA,NA,NA,NA,NA,NA,NA,NA,NA,NA,NA,NA,NA
67443,deep,flow.Sequence,3_0_1_0_0_0,NA,NA,completion,17799.28,455004,455004.64,455009.58,472808.86,472821,2023-03-03T13:35:03Z,472842.14,NULL,Entwicklung,maendeleo,d,NA,NA,NA,NA,sdfdsf,NA,1,NA,NA,NA,NA,NA,NA,NA,NA,NA,NA,NA,NA,NA,NA,NA,NA,NA,NA,NA
67443,shallow,flow.Sequence,3_0_1_0_0_1,NA,NA,skipped,NA,472823,NA,NA,472808.86,472825,2023-03-03T13:35:03Z,472842.14,NULL,Entwicklung,maendeleo,d,NA,NA,NA,NA,sdfdsf,NA,1,NA,NA,NA,NA,NA,NA,NA,NA,NA,NA,NA,NA,NA,NA,NA,NA,NA,NA,NA
67443,task,flow.Sequence,3_0_1_0_0,NA,NA,completion,17799.28,455004,455004.64,455009.58,472808.86,472828,2023-03-03T13:35:03Z,472842.14,NULL,Entwicklung,maendeleo,d,NA,NA,NA,NA,sdfdsf,NA,1,NA,NA,NA,NA,NA,NA,NA,NA,NA,NA,NA,NA,NA,NA,NA,NA,NA,NA,NA
67443,deep,flow.Sequence,3_0_1_0_1_0,NA,NA,skipped,NA,472830,NA,NA,472808.86,472831,2023-03-03T13:35:03Z,472842.14,NULL,System,maongozi,s,chokochoko,nuksani,mitaani,NA,sdfdsf,NA,1,NA,NA,NA,NA,NA,NA,NA,NA,NA,NA,NA,NA,NA,NA,NA,NA,NA,NA,NA
67443,Shallow Question,html.Page,3_0_1_0_1_1_0,NA,NA,form submission,6469.86,472834,472808.86,472842.14,479312,479315,2023-03-03T13:35:09Z,479341.76,NULL,System,maongozi,s,chokochoko,nuksani,mitaani,maongozi,NA,NA,1,NA,NA,NA,NA,NA,NA,NA,NA,NA,NA,NA,NA,NA,NA,NA,NA,NA,NA,NA
67443,"""Richtig""-Screen",canvas.Screen,3_0_1_0_1_1_1,NA,NA,timeout,5016.48,479342,479303.92,479341.76,484324.96,484328,2023-03-03T13:35:14Z,484358.24,NULL,System,maongozi,s,chokochoko,nuksani,mitaani,NA,sdfdsf,1,1,NA,NA,NA,NA,NA,NA,NA,NA,NA,NA,NA,NA,NA,NA,NA,NA,NA,NA,NA
67443,"""Falsch""-Screen",canvas.Screen,3_0_1_0_1_1_2,NA,NA,skipped,NA,484351,NA,NA,484324.96,484352,2023-03-03T13:35:14Z,484358.24,NULL,System,maongozi,s,chokochoko,nuksani,mitaani,NA,sdfdsf,NA,1,NA,NA,NA,NA,NA,NA,NA,NA,NA,NA,NA,NA,NA,NA,NA,NA,NA,NA,NA
67443,shallow,flow.Sequence,3_0_1_0_1_1,NA,NA,completion,11482.82,472834,472808.86,472842.14,484324.96,484354,2023-03-03T13:35:14Z,484358.24,NULL,System,maongozi,s,chokochoko,nuksani,mitaani,NA,sdfdsf,NA,1,NA,NA,NA,NA,NA,NA,NA,NA,NA,NA,NA,NA,NA,NA,NA,NA,NA,NA,NA
67443,task,flow.Sequence,3_0_1_0_1,NA,NA,completion,11482.82,472830,472808.86,472842.14,484324.96,484356,2023-03-03T13:35:14Z,484358.24,NULL,System,maongozi,s,chokochoko,nuksani,mitaani,NA,sdfdsf,NA,1,NA,NA,NA,NA,NA,NA,NA,NA,NA,NA,NA,NA,NA,NA,NA,NA,NA,NA,NA
67443,Deep Question,html.Page,3_0_1_0_2_0_0,NA,NA,form submission,10519.76,484359,484324.96,484358.24,494878,494881,2023-03-03T13:35:25Z,494891.04,NULL,Körper,kiwiliwili,d,NA,NA,NA,kiwiliwili,NA,NA,1,NA,NA,NA,NA,NA,NA,NA,NA,NA,NA,NA,NA,NA,NA,NA,NA,NA,NA,NA
67443,"""Richtig""-Screen",canvas.Screen,3_0_1_0_2_0_1,NA,NA,timeout,5016.34,494892,494874.66,494891.04,499874.06,499877,2023-03-03T13:35:30Z,499907.38,NULL,Körper,kiwiliwili,d,NA,NA,NA,NA,sdfdsf,1,1,NA,NA,NA,NA,NA,NA,NA,NA,NA,NA,NA,NA,NA,NA,NA,NA,NA,NA,NA
67443,"""Falsch""-Screen",canvas.Screen,3_0_1_0_2_0_2,NA,NA,skipped,NA,499895,NA,NA,499874.06,499896,2023-03-03T13:35:30Z,499907.38,NULL,Körper,kiwiliwili,d,NA,NA,NA,NA,sdfdsf,NA,1,NA,NA,NA,NA,NA,NA,NA,NA,NA,NA,NA,NA,NA,NA,NA,NA,NA,NA,NA
67443,deep,flow.Sequence,3_0_1_0_2_0,NA,NA,completion,15515.82,484359,484324.96,484358.24,499874.06,499898,2023-03-03T13:35:30Z,499907.38,NULL,Körper,kiwiliwili,d,NA,NA,NA,NA,sdfdsf,NA,1,NA,NA,NA,NA,NA,NA,NA,NA,NA,NA,NA,NA,NA,NA,NA,NA,NA,NA,NA
67443,shallow,flow.Sequence,3_0_1_0_2_1,NA,NA,skipped,NA,499899,NA,NA,499874.06,499900,2023-03-03T13:35:30Z,499907.38,NULL,Körper,kiwiliwili,d,NA,NA,NA,NA,sdfdsf,NA,1,NA,NA,NA,NA,NA,NA,NA,NA,NA,NA,NA,NA,NA,NA,NA,NA,NA,NA,NA
67443,task,flow.Sequence,3_0_1_0_2,NA,NA,completion,15515.82,484357,484324.96,484358.24,499874.06,499901,2023-03-03T13:35:30Z,499907.38,NULL,Körper,kiwiliwili,d,NA,NA,NA,NA,sdfdsf,NA,1,NA,NA,NA,NA,NA,NA,NA,NA,NA,NA,NA,NA,NA,NA,NA,NA,NA,NA,NA
67443,deep,flow.Sequence,3_0_1_0_3_0,NA,NA,skipped,NA,499902,NA,NA,499874.06,499903,2023-03-03T13:35:30Z,499907.38,NULL,Lawine,banguko,s,maambukizi,usuluhishi,chekechea,NA,sdfdsf,NA,1,NA,NA,NA,NA,NA,NA,NA,NA,NA,NA,NA,NA,NA,NA,NA,NA,NA,NA,NA
67443,Shallow Question,html.Page,3_0_1_0_3_1_0,NA,NA,form submission,11321.62,499904,499874.06,499907.38,511229,511231,2023-03-03T13:35:41Z,511240.26,NULL,Lawine,banguko,s,maambukizi,usuluhishi,chekechea,banguko,NA,NA,1,NA,NA,NA,NA,NA,NA,NA,NA,NA,NA,NA,NA,NA,NA,NA,NA,NA,NA,NA
67443,"""Richtig""-Screen",canvas.Screen,3_0_1_0_3_1_1,NA,NA,timeout,4999.76,511243,511221.92,511240.26,516223.36,516226,2023-03-03T13:35:46Z,516240.02,NULL,Lawine,banguko,s,maambukizi,usuluhishi,chekechea,NA,sdfdsf,1,1,NA,NA,NA,NA,NA,NA,NA,NA,NA,NA,NA,NA,NA,NA,NA,NA,NA,NA,NA
67443,"""Falsch""-Screen",canvas.Screen,3_0_1_0_3_1_2,NA,NA,skipped,NA,516248,NA,NA,516223.36,516249,2023-03-03T13:35:46Z,516240.02,NULL,Lawine,banguko,s,maambukizi,usuluhishi,chekechea,NA,sdfdsf,NA,1,NA,NA,NA,NA,NA,NA,NA,NA,NA,NA,NA,NA,NA,NA,NA,NA,NA,NA,NA
67443,shallow,flow.Sequence,3_0_1_0_3_1,NA,NA,completion,16315.98,499904,499874.06,499907.38,516223.36,516250,2023-03-03T13:35:46Z,516240.02,NULL,Lawine,banguko,s,maambukizi,usuluhishi,chekechea,NA,sdfdsf,NA,1,NA,NA,NA,NA,NA,NA,NA,NA,NA,NA,NA,NA,NA,NA,NA,NA,NA,NA,NA
67443,task,flow.Sequence,3_0_1_0_3,NA,NA,completion,16315.98,499902,499874.06,499907.38,516223.36,516251,2023-03-03T13:35:46Z,516240.02,NULL,Lawine,banguko,s,maambukizi,usuluhishi,chekechea,NA,sdfdsf,NA,1,NA,NA,NA,NA,NA,NA,NA,NA,NA,NA,NA,NA,NA,NA,NA,NA,NA,NA,NA
67443,Deep Question,html.Page,3_0_1_0_4_0_0,NA,NA,form submission,9518.98,516251,516223.36,516240.02,525759,525760,2023-03-03T13:35:56Z,525772.72,NULL,Übersicht,kilindo,d,NA,NA,NA,ushenzi,NA,NA,1,NA,NA,NA,NA,NA,NA,NA,NA,NA,NA,NA,NA,NA,NA,NA,NA,NA,NA,NA
67443,"""Richtig""-Screen",canvas.Screen,3_0_1_0_4_0_1,NA,NA,skipped,NA,525766,NA,NA,525759,525766,2023-03-03T13:35:56Z,525772.72,NULL,Übersicht,kilindo,d,NA,NA,NA,NA,sdfdsf,NA,1,NA,NA,NA,NA,NA,NA,NA,NA,NA,NA,NA,NA,NA,NA,NA,NA,NA,NA,NA
67443,"""Falsch""-Screen",canvas.Screen,3_0_1_0_4_0_2,NA,NA,timeout,5016.6,525776,525751.84,525772.72,530755.98,530763,2023-03-03T13:36:01Z,530789.32,NULL,Übersicht,kilindo,d,NA,NA,NA,NA,sdfdsf,0,1,NA,NA,NA,NA,NA,NA,NA,NA,NA,NA,NA,NA,NA,NA,NA,NA,NA,NA,NA
67443,deep,flow.Sequence,3_0_1_0_4_0,NA,NA,completion,14515.96,516251,516223.36,516240.02,530755.98,530771,2023-03-03T13:36:01Z,530789.32,NULL,Übersicht,kilindo,d,NA,NA,NA,NA,sdfdsf,NA,1,NA,NA,NA,NA,NA,NA,NA,NA,NA,NA,NA,NA,NA,NA,NA,NA,NA,NA,NA
67443,shallow,flow.Sequence,3_0_1_0_4_1,NA,NA,skipped,NA,530774,NA,NA,530755.98,530776,2023-03-03T13:36:01Z,530789.32,NULL,Übersicht,kilindo,d,NA,NA,NA,NA,sdfdsf,NA,1,NA,NA,NA,NA,NA,NA,NA,NA,NA,NA,NA,NA,NA,NA,NA,NA,NA,NA,NA
67443,task,flow.Sequence,3_0_1_0_4,NA,NA,completion,14515.96,516251,516223.36,516240.02,530755.98,530779,2023-03-03T13:36:01Z,530789.32,NULL,Übersicht,kilindo,d,NA,NA,NA,NA,sdfdsf,NA,1,NA,NA,NA,NA,NA,NA,NA,NA,NA,NA,NA,NA,NA,NA,NA,NA,NA,NA,NA
67443,deep,flow.Sequence,3_0_1_0_5_0,NA,NA,skipped,NA,530782,NA,NA,530755.98,530783,2023-03-03T13:36:01Z,530789.32,NULL,Niveau,kiwango,s,usimamizi,mwamali,mshairi,NA,sdfdsf,NA,1,NA,NA,NA,NA,NA,NA,NA,NA,NA,NA,NA,NA,NA,NA,NA,NA,NA,NA,NA
67443,Shallow Question,html.Page,3_0_1_0_5_1_0,NA,NA,form submission,8628.6800000001,530786,530755.98,530789.32,539418,539423,2023-03-03T13:36:10Z,539455.48,NULL,Niveau,kiwango,s,usimamizi,mwamali,mshairi,usimamizi,NA,NA,1,NA,NA,NA,NA,NA,NA,NA,NA,NA,NA,NA,NA,NA,NA,NA,NA,NA,NA,NA
67443,"""Richtig""-Screen",canvas.Screen,3_0_1_0_5_1_1,NA,NA,skipped,NA,539448,NA,NA,539418,539449,2023-03-03T13:36:10Z,539455.48,NULL,Niveau,kiwango,s,usimamizi,mwamali,mshairi,NA,sdfdsf,NA,1,NA,NA,NA,NA,NA,NA,NA,NA,NA,NA,NA,NA,NA,NA,NA,NA,NA,NA,NA
67443,"""Falsch""-Screen",canvas.Screen,3_0_1_0_5_1_2,NA,NA,timeout,4999.92,539461,539402.64,539455.48,544438.74,544442,2023-03-03T13:36:15Z,544455.4,NULL,Niveau,kiwango,s,usimamizi,mwamali,mshairi,NA,sdfdsf,0,1,NA,NA,NA,NA,NA,NA,NA,NA,NA,NA,NA,NA,NA,NA,NA,NA,NA,NA,NA
67443,shallow,flow.Sequence,3_0_1_0_5_1,NA,NA,completion,13649.42,530785,530755.98,530789.32,544438.74,544446,2023-03-03T13:36:15Z,544455.4,NULL,Niveau,kiwango,s,usimamizi,mwamali,mshairi,NA,sdfdsf,NA,1,NA,NA,NA,NA,NA,NA,NA,NA,NA,NA,NA,NA,NA,NA,NA,NA,NA,NA,NA
67443,task,flow.Sequence,3_0_1_0_5,NA,NA,completion,13649.42,530781,530755.98,530789.32,544438.74,544450,2023-03-03T13:36:15Z,544455.4,NULL,Niveau,kiwango,s,usimamizi,mwamali,mshairi,NA,sdfdsf,NA,1,NA,NA,NA,NA,NA,NA,NA,NA,NA,NA,NA,NA,NA,NA,NA,NA,NA,NA,NA
67443,deep,flow.Sequence,3_0_1_0_6_0,NA,NA,skipped,NA,544453,NA,NA,544438.74,544456,2023-03-03T13:36:15Z,544455.4,NULL,Papier,karatasi,s,uchambuzi,usalama,kukataliwa,NA,sdfdsf,NA,1,NA,NA,NA,NA,NA,NA,NA,NA,NA,NA,NA,NA,NA,NA,NA,NA,NA,NA,NA
67443,Shallow Question,html.Page,3_0_1_0_6_1_0,NA,NA,form submission,6195.6,544460,544438.74,544455.4,550651,550653,2023-03-03T13:36:21Z,550671.7,NULL,Papier,karatasi,s,uchambuzi,usalama,kukataliwa,karatasi,NA,NA,1,NA,NA,NA,NA,NA,NA,NA,NA,NA,NA,NA,NA,NA,NA,NA,NA,NA,NA,NA
67443,"""Richtig""-Screen",canvas.Screen,3_0_1_0_6_1_1,NA,NA,timeout,5016.4800000001,550672,550641.68,550671.7,555654.92,555657,2023-03-03T13:36:26Z,555688.18,NULL,Papier,karatasi,s,uchambuzi,usalama,kukataliwa,NA,sdfdsf,1,1,NA,NA,NA,NA,NA,NA,NA,NA,NA,NA,NA,NA,NA,NA,NA,NA,NA,NA,NA
67443,"""Falsch""-Screen",canvas.Screen,3_0_1_0_6_1_2,NA,NA,skipped,NA,555676,NA,NA,555654.92,555677,2023-03-03T13:36:26Z,555688.18,NULL,Papier,karatasi,s,uchambuzi,usalama,kukataliwa,NA,sdfdsf,NA,1,NA,NA,NA,NA,NA,NA,NA,NA,NA,NA,NA,NA,NA,NA,NA,NA,NA,NA,NA
67443,shallow,flow.Sequence,3_0_1_0_6_1,NA,NA,completion,11199.52,544459,544438.74,544455.4,555654.92,555678,2023-03-03T13:36:26Z,555688.18,NULL,Papier,karatasi,s,uchambuzi,usalama,kukataliwa,NA,sdfdsf,NA,1,NA,NA,NA,NA,NA,NA,NA,NA,NA,NA,NA,NA,NA,NA,NA,NA,NA,NA,NA
67443,task,flow.Sequence,3_0_1_0_6,NA,NA,completion,11199.52,544452,544438.74,544455.4,555654.92,555680,2023-03-03T13:36:26Z,555688.18,NULL,Papier,karatasi,s,uchambuzi,usalama,kukataliwa,NA,sdfdsf,NA,1,NA,NA,NA,NA,NA,NA,NA,NA,NA,NA,NA,NA,NA,NA,NA,NA,NA,NA,NA
67443,Deep Question,html.Page,3_0_1_0_7_0_0,NA,NA,form submission,9578.8199999999,555681,555654.92,555688.18,565267,565268,2023-03-03T13:36:35Z,565304.3,NULL,Vorwurf,mashtaka,d,NA,NA,NA,ushezeli,NA,NA,1,NA,NA,NA,NA,NA,NA,NA,NA,NA,NA,NA,NA,NA,NA,NA,NA,NA,NA,NA
67443,"""Richtig""-Screen",canvas.Screen,3_0_1_0_7_0_1,NA,NA,skipped,NA,565281,NA,NA,565267,565282,2023-03-03T13:36:35Z,565304.3,NULL,Vorwurf,mashtaka,d,NA,NA,NA,NA,sdfdsf,NA,1,NA,NA,NA,NA,NA,NA,NA,NA,NA,NA,NA,NA,NA,NA,NA,NA,NA,NA,NA
67443,"""Falsch""-Screen",canvas.Screen,3_0_1_0_7_0_2,NA,NA,timeout,4999.7799999999,565300,565260.26,565304.3,570287.62,570290,2023-03-03T13:36:40Z,570304.08,NULL,Vorwurf,mashtaka,d,NA,NA,NA,NA,sdfdsf,0,1,NA,NA,NA,NA,NA,NA,NA,NA,NA,NA,NA,NA,NA,NA,NA,NA,NA,NA,NA
67443,deep,flow.Sequence,3_0_1_0_7_0,NA,NA,completion,14599.44,555681,555654.92,555688.18,570287.62,570291,2023-03-03T13:36:40Z,570304.08,NULL,Vorwurf,mashtaka,d,NA,NA,NA,NA,sdfdsf,NA,1,NA,NA,NA,NA,NA,NA,NA,NA,NA,NA,NA,NA,NA,NA,NA,NA,NA,NA,NA
67443,shallow,flow.Sequence,3_0_1_0_7_1,NA,NA,skipped,NA,570293,NA,NA,570287.62,570294,2023-03-03T13:36:40Z,570304.08,NULL,Vorwurf,mashtaka,d,NA,NA,NA,NA,sdfdsf,NA,1,NA,NA,NA,NA,NA,NA,NA,NA,NA,NA,NA,NA,NA,NA,NA,NA,NA,NA,NA
67443,task,flow.Sequence,3_0_1_0_7,NA,NA,completion,14599.44,555680,555654.92,555688.18,570287.62,570296,2023-03-03T13:36:40Z,570304.08,NULL,Vorwurf,mashtaka,d,NA,NA,NA,NA,sdfdsf,NA,1,NA,NA,NA,NA,NA,NA,NA,NA,NA,NA,NA,NA,NA,NA,NA,NA,NA,NA,NA
67443,block,flow.Loop,3_0_1_0,NA,NA,completion,115278.04,455004,455004.64,455009.58,570287.62,570297,2023-03-03T13:36:40Z,570304.08,NULL,NA,NA,NA,NA,NA,NA,NA,sdfdsf,NA,1,NA,NA,NA,NA,NA,NA,NA,NA,NA,NA,NA,NA,NA,NA,NA,NA,NA,NA,NA
67443,weiter,canvas.Screen,3_0_1_1,sdf,keypress(Space),response,1041.92,570298,570287.62,570304.08,571346,571370,2023-03-03T13:36:41Z,571608.32,NULL,NA,NA,NA,NA,NA,NA,NA,sdfdsf,NA,1,NA,NA,NA,NA,NA,NA,NA,NA,NA,NA,NA,NA,NA,NA,NA,NA,NA,NA,NA
67443,check continue,flow.Sequence,3_0_1,NA,NA,completion,116336.42,455004,455004.64,455009.58,571346,571372,2023-03-03T13:36:41Z,571608.32,NULL,NA,NA,NA,NA,NA,NA,NA,sdfdsf,NA,1,NA,NA,NA,NA,NA,NA,NA,NA,NA,NA,NA,NA,NA,NA,NA,NA,NA,NA,NA
67443,Deep Question,html.Page,3_0_2_0_0_0_0,NA,NA,form submission,6242.6800000001,571608,571607.78,571608.32,577851,577852,2023-03-03T13:36:48Z,577870.34,NULL,Vorwurf,mashtaka,d,NA,NA,NA,mashtaka,NA,NA,2,NA,NA,NA,NA,NA,NA,NA,NA,NA,NA,NA,NA,NA,NA,NA,NA,NA,NA,NA
67443,"""Richtig""-Screen",canvas.Screen,3_0_2_0_0_0_1,NA,NA,timeout,4999.8,577865,577842.26,577870.34,582853.48,582855,2023-03-03T13:36:53Z,582870.14,NULL,Vorwurf,mashtaka,d,NA,NA,NA,NA,sdf,1,2,NA,NA,NA,NA,NA,NA,NA,NA,NA,NA,NA,NA,NA,NA,NA,NA,NA,NA,NA
67443,"""Falsch""-Screen",canvas.Screen,3_0_2_0_0_0_2,NA,NA,skipped,NA,582870,NA,NA,582853.48,582871,2023-03-03T13:36:53Z,582870.14,NULL,Vorwurf,mashtaka,d,NA,NA,NA,NA,sdf,NA,2,NA,NA,NA,NA,NA,NA,NA,NA,NA,NA,NA,NA,NA,NA,NA,NA,NA,NA,NA
67443,deep,flow.Sequence,3_0_2_0_0_0,NA,NA,completion,11245.16,571608,571607.78,571608.32,582853.48,582872,2023-03-03T13:36:53Z,582870.14,NULL,Vorwurf,mashtaka,d,NA,NA,NA,NA,sdf,NA,2,NA,NA,NA,NA,NA,NA,NA,NA,NA,NA,NA,NA,NA,NA,NA,NA,NA,NA,NA
67443,shallow,flow.Sequence,3_0_2_0_0_1,NA,NA,skipped,NA,582873,NA,NA,582853.48,582873,2023-03-03T13:36:53Z,582870.14,NULL,Vorwurf,mashtaka,d,NA,NA,NA,NA,sdf,NA,2,NA,NA,NA,NA,NA,NA,NA,NA,NA,NA,NA,NA,NA,NA,NA,NA,NA,NA,NA
67443,task,flow.Sequence,3_0_2_0_0,NA,NA,completion,11245.16,571608,571607.78,571608.32,582853.48,582874,2023-03-03T13:36:53Z,582870.14,NULL,Vorwurf,mashtaka,d,NA,NA,NA,NA,sdf,NA,2,NA,NA,NA,NA,NA,NA,NA,NA,NA,NA,NA,NA,NA,NA,NA,NA,NA,NA,NA
67443,deep,flow.Sequence,3_0_2_0_1_0,NA,NA,skipped,NA,582875,NA,NA,582853.48,582875,2023-03-03T13:36:53Z,582870.14,NULL,Papier,karatasi,s,uchambuzi,usalama,kukataliwa,NA,sdf,NA,2,NA,NA,NA,NA,NA,NA,NA,NA,NA,NA,NA,NA,NA,NA,NA,NA,NA,NA,NA
67443,Shallow Question,html.Page,3_0_2_0_1_1_0,NA,NA,form submission,6552.86,582876,582853.48,582870.14,589423,589424,2023-03-03T13:37:00Z,589453.12,NULL,Papier,karatasi,s,uchambuzi,usalama,kukataliwa,karatasi,NA,NA,2,NA,NA,NA,NA,NA,NA,NA,NA,NA,NA,NA,NA,NA,NA,NA,NA,NA,NA,NA
67443,"""Richtig""-Screen",canvas.Screen,3_0_2_0_1_1_1,NA,NA,timeout,5016.4400000001,589439,589413.34,589453.12,594436.24,594445,2023-03-03T13:37:05Z,594469.56,NULL,Papier,karatasi,s,uchambuzi,usalama,kukataliwa,NA,sdf,1,2,NA,NA,NA,NA,NA,NA,NA,NA,NA,NA,NA,NA,NA,NA,NA,NA,NA,NA,NA
67443,"""Falsch""-Screen",canvas.Screen,3_0_2_0_1_1_2,NA,NA,skipped,NA,594471,NA,NA,594436.24,594472,2023-03-03T13:37:05Z,594469.56,NULL,Papier,karatasi,s,uchambuzi,usalama,kukataliwa,NA,sdf,NA,2,NA,NA,NA,NA,NA,NA,NA,NA,NA,NA,NA,NA,NA,NA,NA,NA,NA,NA,NA
67443,shallow,flow.Sequence,3_0_2_0_1_1,NA,NA,completion,11566.1,582876,582853.48,582870.14,594436.24,594473,2023-03-03T13:37:05Z,594469.56,NULL,Papier,karatasi,s,uchambuzi,usalama,kukataliwa,NA,sdf,NA,2,NA,NA,NA,NA,NA,NA,NA,NA,NA,NA,NA,NA,NA,NA,NA,NA,NA,NA,NA
67443,task,flow.Sequence,3_0_2_0_1,NA,NA,completion,11566.1,582875,582853.48,582870.14,594436.24,594475,2023-03-03T13:37:05Z,594469.56,NULL,Papier,karatasi,s,uchambuzi,usalama,kukataliwa,NA,sdf,NA,2,NA,NA,NA,NA,NA,NA,NA,NA,NA,NA,NA,NA,NA,NA,NA,NA,NA,NA,NA
67443,deep,flow.Sequence,3_0_2_0_2_0,NA,NA,skipped,NA,594476,NA,NA,594436.24,594476,2023-03-03T13:37:05Z,594469.56,NULL,System,maongozi,s,chokochoko,nuksani,mitaani,NA,sdf,NA,2,NA,NA,NA,NA,NA,NA,NA,NA,NA,NA,NA,NA,NA,NA,NA,NA,NA,NA,NA
67443,Shallow Question,html.Page,3_0_2_0_2_1_0,NA,NA,form submission,6822.4399999999,594479,594436.24,594469.56,601292,601294,2023-03-03T13:37:11Z,601302.58,NULL,System,maongozi,s,chokochoko,nuksani,mitaani,maongozi,NA,NA,2,NA,NA,NA,NA,NA,NA,NA,NA,NA,NA,NA,NA,NA,NA,NA,NA,NA,NA,NA
67443,"""Richtig""-Screen",canvas.Screen,3_0_2_0_2_1_1,NA,NA,timeout,4999.76,601307,601273.92,601302.58,606285.68,606287,2023-03-03T13:37:16Z,606302.34,NULL,System,maongozi,s,chokochoko,nuksani,mitaani,NA,sdf,1,2,NA,NA,NA,NA,NA,NA,NA,NA,NA,NA,NA,NA,NA,NA,NA,NA,NA,NA,NA
67443,"""Falsch""-Screen",canvas.Screen,3_0_2_0_2_1_2,NA,NA,skipped,NA,606305,NA,NA,606285.68,606306,2023-03-03T13:37:16Z,606302.34,NULL,System,maongozi,s,chokochoko,nuksani,mitaani,NA,sdf,NA,2,NA,NA,NA,NA,NA,NA,NA,NA,NA,NA,NA,NA,NA,NA,NA,NA,NA,NA,NA
67443,shallow,flow.Sequence,3_0_2_0_2_1,NA,NA,completion,11816.12,594477,594436.24,594469.56,606285.68,606308,2023-03-03T13:37:16Z,606302.34,NULL,System,maongozi,s,chokochoko,nuksani,mitaani,NA,sdf,NA,2,NA,NA,NA,NA,NA,NA,NA,NA,NA,NA,NA,NA,NA,NA,NA,NA,NA,NA,NA
67443,task,flow.Sequence,3_0_2_0_2,NA,NA,completion,11816.12,594475,594436.24,594469.56,606285.68,606309,2023-03-03T13:37:16Z,606302.34,NULL,System,maongozi,s,chokochoko,nuksani,mitaani,NA,sdf,NA,2,NA,NA,NA,NA,NA,NA,NA,NA,NA,NA,NA,NA,NA,NA,NA,NA,NA,NA,NA
67443,Deep Question,html.Page,3_0_2_0_3_0_0,NA,NA,form submission,12343.66,606310,606285.68,606302.34,618646,618647,2023-03-03T13:37:29Z,618668.34,NULL,Körper,kiwiliwili,d,NA,NA,NA,kiwiliwili,NA,NA,2,NA,NA,NA,NA,NA,NA,NA,NA,NA,NA,NA,NA,NA,NA,NA,NA,NA,NA,NA
67443,"""Richtig""-Screen",canvas.Screen,3_0_2_0_3_0_1,NA,NA,timeout,5016.6,618663,618633.82,618668.34,623651.68,623655,2023-03-03T13:37:34Z,623684.94,NULL,Körper,kiwiliwili,d,NA,NA,NA,NA,sdf,1,2,NA,NA,NA,NA,NA,NA,NA,NA,NA,NA,NA,NA,NA,NA,NA,NA,NA,NA,NA
67443,"""Falsch""-Screen",canvas.Screen,3_0_2_0_3_0_2,NA,NA,skipped,NA,623672,NA,NA,623651.68,623673,2023-03-03T13:37:34Z,623684.94,NULL,Körper,kiwiliwili,d,NA,NA,NA,NA,sdf,NA,2,NA,NA,NA,NA,NA,NA,NA,NA,NA,NA,NA,NA,NA,NA,NA,NA,NA,NA,NA
67443,deep,flow.Sequence,3_0_2_0_3_0,NA,NA,completion,17349.34,606310,606285.68,606302.34,623651.68,623675,2023-03-03T13:37:34Z,623684.94,NULL,Körper,kiwiliwili,d,NA,NA,NA,NA,sdf,NA,2,NA,NA,NA,NA,NA,NA,NA,NA,NA,NA,NA,NA,NA,NA,NA,NA,NA,NA,NA
67443,shallow,flow.Sequence,3_0_2_0_3_1,NA,NA,skipped,NA,623676,NA,NA,623651.68,623677,2023-03-03T13:37:34Z,623684.94,NULL,Körper,kiwiliwili,d,NA,NA,NA,NA,sdf,NA,2,NA,NA,NA,NA,NA,NA,NA,NA,NA,NA,NA,NA,NA,NA,NA,NA,NA,NA,NA
67443,task,flow.Sequence,3_0_2_0_3,NA,NA,completion,17349.34,606309,606285.68,606302.34,623651.68,623677,2023-03-03T13:37:34Z,623684.94,NULL,Körper,kiwiliwili,d,NA,NA,NA,NA,sdf,NA,2,NA,NA,NA,NA,NA,NA,NA,NA,NA,NA,NA,NA,NA,NA,NA,NA,NA,NA,NA
67443,deep,flow.Sequence,3_0_2_0_4_0,NA,NA,skipped,NA,623680,NA,NA,623651.68,623680,2023-03-03T13:37:34Z,623684.94,NULL,Niveau,kiwango,s,usimamizi,mwamali,mshairi,NA,sdf,NA,2,NA,NA,NA,NA,NA,NA,NA,NA,NA,NA,NA,NA,NA,NA,NA,NA,NA,NA,NA
67443,Shallow Question,html.Page,3_0_2_0_4_1_0,NA,NA,form submission,5208.0600000001,623682,623651.68,623684.94,628893,628895,2023-03-03T13:37:39Z,628917.88,NULL,Niveau,kiwango,s,usimamizi,mwamali,mshairi,kiwango,NA,NA,2,NA,NA,NA,NA,NA,NA,NA,NA,NA,NA,NA,NA,NA,NA,NA,NA,NA,NA,NA
67443,"""Richtig""-Screen",canvas.Screen,3_0_2_0_4_1_1,NA,NA,timeout,4999.86,628914,628883.26,628917.88,633901.08,633903,2023-03-03T13:37:44Z,633917.74,NULL,Niveau,kiwango,s,usimamizi,mwamali,mshairi,NA,sdf,1,2,NA,NA,NA,NA,NA,NA,NA,NA,NA,NA,NA,NA,NA,NA,NA,NA,NA,NA,NA
67443,"""Falsch""-Screen",canvas.Screen,3_0_2_0_4_1_2,NA,NA,skipped,NA,633920,NA,NA,633901.08,633921,2023-03-03T13:37:44Z,633917.74,NULL,Niveau,kiwango,s,usimamizi,mwamali,mshairi,NA,sdf,NA,2,NA,NA,NA,NA,NA,NA,NA,NA,NA,NA,NA,NA,NA,NA,NA,NA,NA,NA,NA
67443,shallow,flow.Sequence,3_0_2_0_4_1,NA,NA,completion,10216.14,623681,623651.68,623684.94,633901.08,633922,2023-03-03T13:37:44Z,633917.74,NULL,Niveau,kiwango,s,usimamizi,mwamali,mshairi,NA,sdf,NA,2,NA,NA,NA,NA,NA,NA,NA,NA,NA,NA,NA,NA,NA,NA,NA,NA,NA,NA,NA
67443,task,flow.Sequence,3_0_2_0_4,NA,NA,completion,10216.14,623679,623651.68,623684.94,633901.08,633923,2023-03-03T13:37:44Z,633917.74,NULL,Niveau,kiwango,s,usimamizi,mwamali,mshairi,NA,sdf,NA,2,NA,NA,NA,NA,NA,NA,NA,NA,NA,NA,NA,NA,NA,NA,NA,NA,NA,NA,NA
67443,Deep Question,html.Page,3_0_2_0_5_0_0,NA,NA,form submission,11623.26,633925,633901.08,633917.74,645541,645542,2023-03-03T13:37:56Z,645567.12,NULL,Übersicht,kilindo,d,NA,NA,NA,mashidi,NA,NA,2,NA,NA,NA,NA,NA,NA,NA,NA,NA,NA,NA,NA,NA,NA,NA,NA,NA,NA,NA
67443,"""Richtig""-Screen",canvas.Screen,3_0_2_0_5_0_1,NA,NA,skipped,NA,645554,NA,NA,645541,645556,2023-03-03T13:37:56Z,645567.12,NULL,Übersicht,kilindo,d,NA,NA,NA,NA,sdf,NA,2,NA,NA,NA,NA,NA,NA,NA,NA,NA,NA,NA,NA,NA,NA,NA,NA,NA,NA,NA
67443,"""Falsch""-Screen",canvas.Screen,3_0_2_0_5_0_2,NA,NA,timeout,5016.58,645572,645532.32,645567.12,650550.44,650559,2023-03-03T13:38:01Z,650583.7,NULL,Übersicht,kilindo,d,NA,NA,NA,NA,sdf,0,2,NA,NA,NA,NA,NA,NA,NA,NA,NA,NA,NA,NA,NA,NA,NA,NA,NA,NA,NA
67443,deep,flow.Sequence,3_0_2_0_5_0,NA,NA,completion,16632.7,633924,633901.08,633917.74,650550.44,650566,2023-03-03T13:38:01Z,650583.7,NULL,Übersicht,kilindo,d,NA,NA,NA,NA,sdf,NA,2,NA,NA,NA,NA,NA,NA,NA,NA,NA,NA,NA,NA,NA,NA,NA,NA,NA,NA,NA
67443,shallow,flow.Sequence,3_0_2_0_5_1,NA,NA,skipped,NA,650569,NA,NA,650550.44,650571,2023-03-03T13:38:01Z,650583.7,NULL,Übersicht,kilindo,d,NA,NA,NA,NA,sdf,NA,2,NA,NA,NA,NA,NA,NA,NA,NA,NA,NA,NA,NA,NA,NA,NA,NA,NA,NA,NA
67443,task,flow.Sequence,3_0_2_0_5,NA,NA,completion,16632.7,633924,633901.08,633917.74,650550.44,650574,2023-03-03T13:38:01Z,650583.7,NULL,Übersicht,kilindo,d,NA,NA,NA,NA,sdf,NA,2,NA,NA,NA,NA,NA,NA,NA,NA,NA,NA,NA,NA,NA,NA,NA,NA,NA,NA,NA
67443,deep,flow.Sequence,3_0_2_0_6_0,NA,NA,skipped,NA,650577,NA,NA,650550.44,650578,2023-03-03T13:38:01Z,650583.7,NULL,Lawine,banguko,s,maambukizi,usuluhishi,chekechea,NA,sdf,NA,2,NA,NA,NA,NA,NA,NA,NA,NA,NA,NA,NA,NA,NA,NA,NA,NA,NA,NA,NA
67443,Shallow Question,html.Page,3_0_2_0_6_1_0,NA,NA,form submission,7126.3,650581,650550.44,650583.7,657710,657711,2023-03-03T13:38:08Z,657749.74,NULL,Lawine,banguko,s,maambukizi,usuluhishi,chekechea,banguko,NA,NA,2,NA,NA,NA,NA,NA,NA,NA,NA,NA,NA,NA,NA,NA,NA,NA,NA,NA,NA,NA
67443,"""Richtig""-Screen",canvas.Screen,3_0_2_0_6_1_1,NA,NA,timeout,5016.6800000001,657739,657693.78,657749.74,662733.1,662736,2023-03-03T13:38:13Z,662766.42,NULL,Lawine,banguko,s,maambukizi,usuluhishi,chekechea,NA,sdf,1,2,NA,NA,NA,NA,NA,NA,NA,NA,NA,NA,NA,NA,NA,NA,NA,NA,NA,NA,NA
67443,"""Falsch""-Screen",canvas.Screen,3_0_2_0_6_1_2,NA,NA,skipped,NA,662763,NA,NA,662733.1,662764,2023-03-03T13:38:13Z,662766.42,NULL,Lawine,banguko,s,maambukizi,usuluhishi,chekechea,NA,sdf,NA,2,NA,NA,NA,NA,NA,NA,NA,NA,NA,NA,NA,NA,NA,NA,NA,NA,NA,NA,NA
67443,shallow,flow.Sequence,3_0_2_0_6_1,NA,NA,completion,12149.4,650580,650550.44,650583.7,662733.1,662765,2023-03-03T13:38:13Z,662766.42,NULL,Lawine,banguko,s,maambukizi,usuluhishi,chekechea,NA,sdf,NA,2,NA,NA,NA,NA,NA,NA,NA,NA,NA,NA,NA,NA,NA,NA,NA,NA,NA,NA,NA
67443,task,flow.Sequence,3_0_2_0_6,NA,NA,completion,12149.4,650575,650550.44,650583.7,662733.1,662768,2023-03-03T13:38:13Z,662766.42,NULL,Lawine,banguko,s,maambukizi,usuluhishi,chekechea,NA,sdf,NA,2,NA,NA,NA,NA,NA,NA,NA,NA,NA,NA,NA,NA,NA,NA,NA,NA,NA,NA,NA
67443,Deep Question,html.Page,3_0_2_0_7_0_0,NA,NA,form submission,21317.58,662769,662733.1,662766.42,684084,684086,2023-03-03T13:38:34Z,684115.26,NULL,Entwicklung,maendeleo,d,NA,NA,NA,julk,NA,NA,2,NA,NA,NA,NA,NA,NA,NA,NA,NA,NA,NA,NA,NA,NA,NA,NA,NA,NA,NA
67443,"""Richtig""-Screen",canvas.Screen,3_0_2_0_7_0_1,NA,NA,skipped,NA,684103,NA,NA,684084,684104,2023-03-03T13:38:34Z,684115.26,NULL,Entwicklung,maendeleo,d,NA,NA,NA,NA,sdf,NA,2,NA,NA,NA,NA,NA,NA,NA,NA,NA,NA,NA,NA,NA,NA,NA,NA,NA,NA,NA
67443,"""Falsch""-Screen",canvas.Screen,3_0_2_0_7_0_2,NA,NA,timeout,4999.84,684123,684072.08,684115.26,689098.52,689100,2023-03-03T13:38:39Z,689115.1,NULL,Entwicklung,maendeleo,d,NA,NA,NA,NA,sdf,0,2,NA,NA,NA,NA,NA,NA,NA,NA,NA,NA,NA,NA,NA,NA,NA,NA,NA,NA,NA
67443,deep,flow.Sequence,3_0_2_0_7_0,NA,NA,completion,26332.1,662769,662733.1,662766.42,689098.52,689102,2023-03-03T13:38:39Z,689115.1,NULL,Entwicklung,maendeleo,d,NA,NA,NA,NA,sdf,NA,2,NA,NA,NA,NA,NA,NA,NA,NA,NA,NA,NA,NA,NA,NA,NA,NA,NA,NA,NA
67443,shallow,flow.Sequence,3_0_2_0_7_1,NA,NA,skipped,NA,689104,NA,NA,689098.52,689105,2023-03-03T13:38:39Z,689115.1,NULL,Entwicklung,maendeleo,d,NA,NA,NA,NA,sdf,NA,2,NA,NA,NA,NA,NA,NA,NA,NA,NA,NA,NA,NA,NA,NA,NA,NA,NA,NA,NA
67443,task,flow.Sequence,3_0_2_0_7,NA,NA,completion,26332.1,662769,662733.1,662766.42,689098.52,689107,2023-03-03T13:38:39Z,689115.1,NULL,Entwicklung,maendeleo,d,NA,NA,NA,NA,sdf,NA,2,NA,NA,NA,NA,NA,NA,NA,NA,NA,NA,NA,NA,NA,NA,NA,NA,NA,NA,NA
67443,block,flow.Loop,3_0_2_0,NA,NA,completion,117490.2,571607,571607.78,571608.32,689098.52,689109,2023-03-03T13:38:39Z,689115.1,NULL,NA,NA,NA,NA,NA,NA,NA,sdf,NA,2,NA,NA,NA,NA,NA,NA,NA,NA,NA,NA,NA,NA,NA,NA,NA,NA,NA,NA,NA
67443,weiter,canvas.Screen,3_0_2_1,sdf,keypress(Space),response,151.90000000002,689110,689098.52,689115.1,689267,689280,2023-03-03T13:38:39Z,694348.1,NULL,NA,NA,NA,NA,NA,NA,NA,sdf,NA,2,NA,NA,NA,NA,NA,NA,NA,NA,NA,NA,NA,NA,NA,NA,NA,NA,NA,NA,NA
67443,check continue,flow.Sequence,3_0_2,NA,NA,completion,117658.68,571607,571607.78,571608.32,689267,689281,2023-03-03T13:38:39Z,694348.1,NULL,NA,NA,NA,NA,NA,NA,NA,sdf,NA,2,NA,NA,NA,NA,NA,NA,NA,NA,NA,NA,NA,NA,NA,NA,NA,NA,NA,NA,NA
67443,check continue,flow.Sequence,3_0_3,NA,NA,skipped,NA,689529,NA,NA,689267,689529,2023-03-03T13:38:40Z,694348.1,NULL,NA,NA,NA,NA,NA,NA,NA,qt,NA,3,NA,NA,NA,NA,NA,NA,NA,NA,NA,NA,NA,NA,NA,NA,NA,NA,NA,NA,NA
67443,check continue,flow.Sequence,3_0_4,NA,NA,skipped,NA,689710,NA,NA,689267,689710,2023-03-03T13:38:40Z,694348.1,NULL,NA,NA,NA,NA,NA,NA,NA,sd,NA,4,NA,NA,NA,NA,NA,NA,NA,NA,NA,NA,NA,NA,NA,NA,NA,NA,NA,NA,NA
67443,check continue,flow.Sequence,3_0_5,NA,NA,skipped,NA,689871,NA,NA,689267,689871,2023-03-03T13:38:40Z,694348.1,NULL,NA,NA,NA,NA,NA,NA,NA,sdf,NA,5,NA,NA,NA,NA,NA,NA,NA,NA,NA,NA,NA,NA,NA,NA,NA,NA,NA,NA,NA
67443,check continue,flow.Sequence,3_0_6,NA,NA,skipped,NA,690038,NA,NA,689267,690038,2023-03-03T13:38:40Z,694348.1,NULL,NA,NA,NA,NA,NA,NA,NA,dfs,NA,6,NA,NA,NA,NA,NA,NA,NA,NA,NA,NA,NA,NA,NA,NA,NA,NA,NA,NA,NA
67443,check continue,flow.Sequence,3_0_7,NA,NA,skipped,NA,690191,NA,NA,689267,690191,2023-03-03T13:38:40Z,694348.1,NULL,NA,NA,NA,NA,NA,NA,NA,df,NA,7,NA,NA,NA,NA,NA,NA,NA,NA,NA,NA,NA,NA,NA,NA,NA,NA,NA,NA,NA
67443,check continue,flow.Sequence,3_0_8,NA,NA,skipped,NA,690334,NA,NA,689267,690334,2023-03-03T13:38:40Z,694348.1,NULL,NA,NA,NA,NA,NA,NA,NA,dfs,NA,8,NA,NA,NA,NA,NA,NA,NA,NA,NA,NA,NA,NA,NA,NA,NA,NA,NA,NA,NA
67443,check continue,flow.Sequence,3_0_9,NA,NA,skipped,NA,690479,NA,NA,689267,690479,2023-03-03T13:38:41Z,694348.1,NULL,NA,NA,NA,NA,NA,NA,NA,dsf,NA,9,NA,NA,NA,NA,NA,NA,NA,NA,NA,NA,NA,NA,NA,NA,NA,NA,NA,NA,NA
67443,check continue,flow.Sequence,3_0_10,NA,NA,skipped,NA,690614,NA,NA,689267,690614,2023-03-03T13:38:41Z,694348.1,NULL,NA,NA,NA,NA,NA,NA,NA,df,NA,10,NA,NA,NA,NA,NA,NA,NA,NA,NA,NA,NA,NA,NA,NA,NA,NA,NA,NA,NA
67443,check continue,flow.Sequence,3_0_11,NA,NA,skipped,NA,690761,NA,NA,689267,690761,2023-03-03T13:38:41Z,694348.1,NULL,NA,NA,NA,NA,NA,NA,NA,dfs,NA,11,NA,NA,NA,NA,NA,NA,NA,NA,NA,NA,NA,NA,NA,NA,NA,NA,NA,NA,NA
67443,check continue,flow.Sequence,3_0_12,NA,NA,skipped,NA,690892,NA,NA,689267,690893,2023-03-03T13:38:41Z,694348.1,NULL,NA,NA,NA,NA,NA,NA,NA,dsf,NA,12,NA,NA,NA,NA,NA,NA,NA,NA,NA,NA,NA,NA,NA,NA,NA,NA,NA,NA,NA
67443,check continue,flow.Sequence,3_0_13,NA,NA,skipped,NA,691026,NA,NA,689267,691027,2023-03-03T13:38:41Z,694348.1,NULL,NA,NA,NA,NA,NA,NA,NA,dsf,NA,13,NA,NA,NA,NA,NA,NA,NA,NA,NA,NA,NA,NA,NA,NA,NA,NA,NA,NA,NA
67443,check continue,flow.Sequence,3_0_14,NA,NA,skipped,NA,691171,NA,NA,689267,691171,2023-03-03T13:38:41Z,694348.1,NULL,NA,NA,NA,NA,NA,NA,NA,NA,NA,14,NA,NA,NA,NA,NA,NA,NA,NA,NA,NA,NA,NA,NA,NA,NA,NA,NA,NA,NA
67443,check continue,flow.Sequence,3_0_15,NA,NA,skipped,NA,691315,NA,NA,689267,691316,2023-03-03T13:38:41Z,694348.1,NULL,NA,NA,NA,NA,NA,NA,NA,NA,NA,15,NA,NA,NA,NA,NA,NA,NA,NA,NA,NA,NA,NA,NA,NA,NA,NA,NA,NA,NA
67443,check continue,flow.Sequence,3_0_16,NA,NA,skipped,NA,691445,NA,NA,689267,691445,2023-03-03T13:38:42Z,694348.1,NULL,NA,NA,NA,NA,NA,NA,NA,NA,NA,16,NA,NA,NA,NA,NA,NA,NA,NA,NA,NA,NA,NA,NA,NA,NA,NA,NA,NA,NA
67443,check continue,flow.Sequence,3_0_17,NA,NA,skipped,NA,691579,NA,NA,689267,691580,2023-03-03T13:38:42Z,694348.1,NULL,NA,NA,NA,NA,NA,NA,NA,NA,NA,17,NA,NA,NA,NA,NA,NA,NA,NA,NA,NA,NA,NA,NA,NA,NA,NA,NA,NA,NA
67443,check continue,flow.Sequence,3_0_18,NA,NA,skipped,NA,691718,NA,NA,689267,691718,2023-03-03T13:38:42Z,694348.1,NULL,NA,NA,NA,NA,NA,NA,NA,NA,NA,18,NA,NA,NA,NA,NA,NA,NA,NA,NA,NA,NA,NA,NA,NA,NA,NA,NA,NA,NA
67443,check continue,flow.Sequence,3_0_19,NA,NA,skipped,NA,691864,NA,NA,689267,691864,2023-03-03T13:38:42Z,694348.1,NULL,NA,NA,NA,NA,NA,NA,NA,NA,NA,19,NA,NA,NA,NA,NA,NA,NA,NA,NA,NA,NA,NA,NA,NA,NA,NA,NA,NA,NA
67443,check continue,flow.Sequence,3_0_20,NA,NA,skipped,NA,691999,NA,NA,689267,692000,2023-03-03T13:38:42Z,694348.1,NULL,NA,NA,NA,NA,NA,NA,NA,NA,NA,20,NA,NA,NA,NA,NA,NA,NA,NA,NA,NA,NA,NA,NA,NA,NA,NA,NA,NA,NA
67443,check continue,flow.Sequence,3_0_21,NA,NA,skipped,NA,692129,NA,NA,689267,692129,2023-03-03T13:38:42Z,694348.1,NULL,NA,NA,NA,NA,NA,NA,NA,NA,NA,21,NA,NA,NA,NA,NA,NA,NA,NA,NA,NA,NA,NA,NA,NA,NA,NA,NA,NA,NA
67443,check continue,flow.Sequence,3_0_22,NA,NA,skipped,NA,692317,NA,NA,689267,692317,2023-03-03T13:38:42Z,694348.1,NULL,NA,NA,NA,NA,NA,NA,NA,NA,NA,22,NA,NA,NA,NA,NA,NA,NA,NA,NA,NA,NA,NA,NA,NA,NA,NA,NA,NA,NA
67443,check continue,flow.Sequence,3_0_23,NA,NA,skipped,NA,692627,NA,NA,689267,692627,2023-03-03T13:38:43Z,694348.1,NULL,NA,NA,NA,NA,NA,NA,NA,NA,NA,23,NA,NA,NA,NA,NA,NA,NA,NA,NA,NA,NA,NA,NA,NA,NA,NA,NA,NA,NA
67443,check continue,flow.Sequence,3_0_24,NA,NA,skipped,NA,692868,NA,NA,689267,692868,2023-03-03T13:38:43Z,694348.1,NULL,NA,NA,NA,NA,NA,NA,NA,NA,NA,24,NA,NA,NA,NA,NA,NA,NA,NA,NA,NA,NA,NA,NA,NA,NA,NA,NA,NA,NA
67443,check continue,flow.Sequence,3_0_25,NA,NA,skipped,NA,693085,NA,NA,689267,693085,2023-03-03T13:38:43Z,694348.1,NULL,NA,NA,NA,NA,NA,NA,NA,NA,NA,25,NA,NA,NA,NA,NA,NA,NA,NA,NA,NA,NA,NA,NA,NA,NA,NA,NA,NA,NA
67443,check continue,flow.Sequence,3_0_26,NA,NA,skipped,NA,693289,NA,NA,689267,693290,2023-03-03T13:38:43Z,694348.1,NULL,NA,NA,NA,NA,NA,NA,NA,NA,NA,26,NA,NA,NA,NA,NA,NA,NA,NA,NA,NA,NA,NA,NA,NA,NA,NA,NA,NA,NA
67443,check continue,flow.Sequence,3_0_27,NA,NA,skipped,NA,693492,NA,NA,689267,693492,2023-03-03T13:38:44Z,694348.1,NULL,NA,NA,NA,NA,NA,NA,NA,NA,NA,27,NA,NA,NA,NA,NA,NA,NA,NA,NA,NA,NA,NA,NA,NA,NA,NA,NA,NA,NA
67443,check continue,flow.Sequence,3_0_28,NA,NA,skipped,NA,693736,NA,NA,689267,693737,2023-03-03T13:38:44Z,694348.1,NULL,NA,NA,NA,NA,NA,NA,NA,NA,NA,28,NA,NA,NA,NA,NA,NA,NA,NA,NA,NA,NA,NA,NA,NA,NA,NA,NA,NA,NA
67443,check continue,flow.Sequence,3_0_29,NA,NA,skipped,NA,693960,NA,NA,689267,693960,2023-03-03T13:38:44Z,694348.1,NULL,NA,NA,NA,NA,NA,NA,NA,NA,NA,29,NA,NA,NA,NA,NA,NA,NA,NA,NA,NA,NA,NA,NA,NA,NA,NA,NA,NA,NA
67443,until continue,flow.Loop,3_0,NA,NA,completion,341318.88,347734,347941.3,347948.12,689267,693961,2023-03-03T13:38:44Z,694348.1,NULL,NA,NA,NA,NA,NA,NA,NA,NA,NA,NA,NA,NA,NA,NA,NA,NA,NA,NA,NA,NA,NA,NA,NA,NA,NA,NA,NA,NA,NA
67443,block 1,flow.Sequence,3,NA,NA,completion,341318.88,347734,347941.3,347948.12,689267,693962,2023-03-03T13:38:44Z,694348.1,NULL,NA,NA,NA,NA,NA,NA,NA,NA,NA,NA,NA,NA,NA,NA,NA,NA,NA,NA,NA,NA,NA,NA,NA,NA,NA,NA,NA,NA,NA
67443,1.Part Over,canvas.Screen,4,NA,keypress(Space),response,NA,693962,NA,NA,692486,693968,2023-03-03T13:38:44Z,694348.1,NULL,NA,NA,NA,NA,NA,NA,NA,NA,NA,NA,NA,NA,NA,NA,NA,NA,NA,NA,NA,NA,NA,NA,NA,NA,NA,NA,NA,NA,NA
67443,Deep Question,html.Page,5_0_0_0_0_0_0,NA,NA,form submission,10282.9,694351,693962.38,694348.1,704631,704631,2023-03-03T13:38:55Z,704647.6,NULL,Begegnung,kukutana,d,NA,NA,NA,wiwize,NA,NA,0,NA,NA,NA,NA,NA,NA,NA,NA,NA,NA,NA,NA,NA,NA,NA,NA,NA,NA,NA
67443,"""Richtig""-Screen",canvas.Screen,5_0_0_0_0_0_1,NA,NA,skipped,NA,704639,NA,NA,704631,704639,2023-03-03T13:38:55Z,704647.6,NULL,Begegnung,kukutana,d,NA,NA,NA,NA,sdf,NA,0,NA,NA,NA,NA,NA,NA,NA,NA,NA,NA,NA,NA,NA,NA,NA,NA,NA,NA,NA
67443,"""Falsch""-Screen",canvas.Screen,5_0_0_0_0_0_2,NA,NA,timeout,4999.8,704644,704627.7,704647.6,709630.74,709632,2023-03-03T13:39:00Z,709647.4,NULL,Begegnung,kukutana,d,NA,NA,NA,NA,sdf,0,0,NA,NA,NA,NA,NA,NA,NA,NA,NA,NA,NA,NA,NA,NA,NA,NA,NA,NA,NA
67443,deep,flow.Sequence,5_0_0_0_0_0,NA,NA,completion,15282.64,694351,693962.38,694348.1,709630.74,709634,2023-03-03T13:39:00Z,709647.4,NULL,Begegnung,kukutana,d,NA,NA,NA,NA,sdf,NA,0,NA,NA,NA,NA,NA,NA,NA,NA,NA,NA,NA,NA,NA,NA,NA,NA,NA,NA,NA
67443,shallow,flow.Sequence,5_0_0_0_0_1,NA,NA,skipped,NA,709634,NA,NA,709630.74,709635,2023-03-03T13:39:00Z,709647.4,NULL,Begegnung,kukutana,d,NA,NA,NA,NA,sdf,NA,0,NA,NA,NA,NA,NA,NA,NA,NA,NA,NA,NA,NA,NA,NA,NA,NA,NA,NA,NA
67443,task,flow.Sequence,5_0_0_0_0,NA,NA,completion,15282.64,694351,693962.38,694348.1,709630.74,709636,2023-03-03T13:39:00Z,709647.4,NULL,Begegnung,kukutana,d,NA,NA,NA,NA,sdf,NA,0,NA,NA,NA,NA,NA,NA,NA,NA,NA,NA,NA,NA,NA,NA,NA,NA,NA,NA,NA
67443,deep,flow.Sequence,5_0_0_0_1_0,NA,NA,skipped,NA,709637,NA,NA,709630.74,709638,2023-03-03T13:39:00Z,709647.4,NULL,Fleisch,mshakiki,s,kizunguzungu,mshikamano,angusho,NA,sdf,NA,0,NA,NA,NA,NA,NA,NA,NA,NA,NA,NA,NA,NA,NA,NA,NA,NA,NA,NA,NA
67443,Shallow Question,html.Page,5_0_0_0_1_1_0,NA,NA,form submission,5391.6,709639,709630.74,709647.4,715039,715041,2023-03-03T13:39:05Z,715080.42,NULL,Fleisch,mshakiki,s,kizunguzungu,mshikamano,angusho,angusho,NA,NA,0,NA,NA,NA,NA,NA,NA,NA,NA,NA,NA,NA,NA,NA,NA,NA,NA,NA,NA,NA
67443,"""Richtig""-Screen",canvas.Screen,5_0_0_0_1_1_1,NA,NA,skipped,NA,715066,NA,NA,715039,715067,2023-03-03T13:39:05Z,715080.42,NULL,Fleisch,mshakiki,s,kizunguzungu,mshikamano,angusho,NA,sdf,NA,0,NA,NA,NA,NA,NA,NA,NA,NA,NA,NA,NA,NA,NA,NA,NA,NA,NA,NA,NA
67443,"""Falsch""-Screen",canvas.Screen,5_0_0_0_1_1_2,NA,NA,timeout,4999.7799999999,715080,715029.36,715080.42,720063.52,720066,2023-03-03T13:39:10Z,720080.2,NULL,Fleisch,mshakiki,s,kizunguzungu,mshikamano,angusho,NA,sdf,0,0,NA,NA,NA,NA,NA,NA,NA,NA,NA,NA,NA,NA,NA,NA,NA,NA,NA,NA,NA
67443,shallow,flow.Sequence,5_0_0_0_1_1,NA,NA,completion,10416.12,709639,709630.74,709647.4,720063.52,720068,2023-03-03T13:39:10Z,720080.2,NULL,Fleisch,mshakiki,s,kizunguzungu,mshikamano,angusho,NA,sdf,NA,0,NA,NA,NA,NA,NA,NA,NA,NA,NA,NA,NA,NA,NA,NA,NA,NA,NA,NA,NA
67443,task,flow.Sequence,5_0_0_0_1,NA,NA,completion,10416.12,709636,709630.74,709647.4,720063.52,720070,2023-03-03T13:39:10Z,720080.2,NULL,Fleisch,mshakiki,s,kizunguzungu,mshikamano,angusho,NA,sdf,NA,0,NA,NA,NA,NA,NA,NA,NA,NA,NA,NA,NA,NA,NA,NA,NA,NA,NA,NA,NA
67443,deep,flow.Sequence,5_0_0_0_2_0,NA,NA,skipped,NA,720072,NA,NA,720063.52,720073,2023-03-03T13:39:10Z,720080.2,NULL,Aufstand,ugomaji,s,mazidio,msingi,kujieleza,NA,sdf,NA,0,NA,NA,NA,NA,NA,NA,NA,NA,NA,NA,NA,NA,NA,NA,NA,NA,NA,NA,NA
67443,Shallow Question,html.Page,5_0_0_0_2_1_0,NA,NA,form submission,6445.8,720074,720063.52,720080.2,726526,726528,2023-03-03T13:39:17Z,726529.9,NULL,Aufstand,ugomaji,s,mazidio,msingi,kujieleza,ugomaji,NA,NA,0,NA,NA,NA,NA,NA,NA,NA,NA,NA,NA,NA,NA,NA,NA,NA,NA,NA,NA,NA
67443,"""Richtig""-Screen",canvas.Screen,5_0_0_0_2_1_1,NA,NA,timeout,4999.78,726539,726520.32,726529.9,731513.02,731514,2023-03-03T13:39:22Z,731529.68,NULL,Aufstand,ugomaji,s,mazidio,msingi,kujieleza,NA,sdf,1,0,NA,NA,NA,NA,NA,NA,NA,NA,NA,NA,NA,NA,NA,NA,NA,NA,NA,NA,NA
67443,"""Falsch""-Screen",canvas.Screen,5_0_0_0_2_1_2,NA,NA,skipped,NA,731523,NA,NA,731513.02,731524,2023-03-03T13:39:22Z,731529.68,NULL,Aufstand,ugomaji,s,mazidio,msingi,kujieleza,NA,sdf,NA,0,NA,NA,NA,NA,NA,NA,NA,NA,NA,NA,NA,NA,NA,NA,NA,NA,NA,NA,NA
67443,shallow,flow.Sequence,5_0_0_0_2_1,NA,NA,completion,11432.82,720074,720063.52,720080.2,731513.02,731525,2023-03-03T13:39:22Z,731529.68,NULL,Aufstand,ugomaji,s,mazidio,msingi,kujieleza,NA,sdf,NA,0,NA,NA,NA,NA,NA,NA,NA,NA,NA,NA,NA,NA,NA,NA,NA,NA,NA,NA,NA
67443,task,flow.Sequence,5_0_0_0_2,NA,NA,completion,11432.82,720071,720063.52,720080.2,731513.02,731526,2023-03-03T13:39:22Z,731529.68,NULL,Aufstand,ugomaji,s,mazidio,msingi,kujieleza,NA,sdf,NA,0,NA,NA,NA,NA,NA,NA,NA,NA,NA,NA,NA,NA,NA,NA,NA,NA,NA,NA,NA
67443,deep,flow.Sequence,5_0_0_0_3_0,NA,NA,skipped,NA,731527,NA,NA,731513.02,731528,2023-03-03T13:39:22Z,731529.68,NULL,Prüfung,mtihani,s,mkulima,mtizamo,ufumbuzi,NA,sdf,NA,0,NA,NA,NA,NA,NA,NA,NA,NA,NA,NA,NA,NA,NA,NA,NA,NA,NA,NA,NA
67443,Shallow Question,html.Page,5_0_0_0_3_1_0,NA,NA,form submission,5399.3199999999,731529,731513.02,731529.68,736929,736931,2023-03-03T13:39:27Z,736946,NULL,Prüfung,mtihani,s,mkulima,mtizamo,ufumbuzi,ufumbuzi,NA,NA,0,NA,NA,NA,NA,NA,NA,NA,NA,NA,NA,NA,NA,NA,NA,NA,NA,NA,NA,NA
67443,"""Richtig""-Screen",canvas.Screen,5_0_0_0_3_1_1,NA,NA,skipped,NA,736937,NA,NA,736929,736938,2023-03-03T13:39:27Z,736946,NULL,Prüfung,mtihani,s,mkulima,mtizamo,ufumbuzi,NA,sdf,NA,0,NA,NA,NA,NA,NA,NA,NA,NA,NA,NA,NA,NA,NA,NA,NA,NA,NA,NA,NA
67443,"""Falsch""-Screen",canvas.Screen,5_0_0_0_3_1_2,NA,NA,timeout,4999.8199999999,736950,736922.06,736946,741929.16,741930,2023-03-03T13:39:32Z,741945.82,NULL,Prüfung,mtihani,s,mkulima,mtizamo,ufumbuzi,NA,sdf,0,0,NA,NA,NA,NA,NA,NA,NA,NA,NA,NA,NA,NA,NA,NA,NA,NA,NA,NA,NA
67443,shallow,flow.Sequence,5_0_0_0_3_1,NA,NA,completion,10399.48,731529,731513.02,731529.68,741929.16,741931,2023-03-03T13:39:32Z,741945.82,NULL,Prüfung,mtihani,s,mkulima,mtizamo,ufumbuzi,NA,sdf,NA,0,NA,NA,NA,NA,NA,NA,NA,NA,NA,NA,NA,NA,NA,NA,NA,NA,NA,NA,NA
67443,task,flow.Sequence,5_0_0_0_3,NA,NA,completion,10399.48,731527,731513.02,731529.68,741929.16,741933,2023-03-03T13:39:32Z,741945.82,NULL,Prüfung,mtihani,s,mkulima,mtizamo,ufumbuzi,NA,sdf,NA,0,NA,NA,NA,NA,NA,NA,NA,NA,NA,NA,NA,NA,NA,NA,NA,NA,NA,NA,NA
67443,deep,flow.Sequence,5_0_0_0_4_0,NA,NA,skipped,NA,741934,NA,NA,741929.16,741935,2023-03-03T13:39:32Z,741945.82,NULL,Integrität,uadilifu,s,muungano,mtiririko,upunguaji,NA,sdf,NA,0,NA,NA,NA,NA,NA,NA,NA,NA,NA,NA,NA,NA,NA,NA,NA,NA,NA,NA,NA
67443,Shallow Question,html.Page,5_0_0_0_4_1_0,NA,NA,form submission,6121.1800000001,741935,741929.16,741945.82,748067,748068,2023-03-03T13:39:38Z,748078.86,NULL,Integrität,uadilifu,s,muungano,mtiririko,upunguaji,mtiririko,NA,NA,0,NA,NA,NA,NA,NA,NA,NA,NA,NA,NA,NA,NA,NA,NA,NA,NA,NA,NA,NA
67443,"""Richtig""-Screen",canvas.Screen,5_0_0_0_4_1_1,NA,NA,skipped,NA,748075,NA,NA,748067,748075,2023-03-03T13:39:38Z,748078.86,NULL,Integrität,uadilifu,s,muungano,mtiririko,upunguaji,NA,sdf,NA,0,NA,NA,NA,NA,NA,NA,NA,NA,NA,NA,NA,NA,NA,NA,NA,NA,NA,NA,NA
67443,"""Falsch""-Screen",canvas.Screen,5_0_0_0_4_1_2,NA,NA,timeout,4999.8,748083,748061.82,748078.86,753062.02,753064,2023-03-03T13:39:43Z,753078.66,NULL,Integrität,uadilifu,s,muungano,mtiririko,upunguaji,NA,sdf,0,0,NA,NA,NA,NA,NA,NA,NA,NA,NA,NA,NA,NA,NA,NA,NA,NA,NA,NA,NA
67443,shallow,flow.Sequence,5_0_0_0_4_1,NA,NA,completion,11116.2,741935,741929.16,741945.82,753062.02,753065,2023-03-03T13:39:43Z,753078.66,NULL,Integrität,uadilifu,s,muungano,mtiririko,upunguaji,NA,sdf,NA,0,NA,NA,NA,NA,NA,NA,NA,NA,NA,NA,NA,NA,NA,NA,NA,NA,NA,NA,NA
67443,task,flow.Sequence,5_0_0_0_4,NA,NA,completion,11116.2,741933,741929.16,741945.82,753062.02,753068,2023-03-03T13:39:43Z,753078.66,NULL,Integrität,uadilifu,s,muungano,mtiririko,upunguaji,NA,sdf,NA,0,NA,NA,NA,NA,NA,NA,NA,NA,NA,NA,NA,NA,NA,NA,NA,NA,NA,NA,NA
67443,Deep Question,html.Page,5_0_0_0_5_0_0,NA,NA,form submission,6247.34,753071,753062.02,753078.66,759326,759327,2023-03-03T13:39:49Z,759361.62,NULL,Genehmigung,idhini,d,NA,NA,NA,kal,NA,NA,0,NA,NA,NA,NA,NA,NA,NA,NA,NA,NA,NA,NA,NA,NA,NA,NA,NA,NA,NA
67443,"""Richtig""-Screen",canvas.Screen,5_0_0_0_5_0_1,NA,NA,skipped,NA,759342,NA,NA,759326,759343,2023-03-03T13:39:49Z,759361.62,NULL,Genehmigung,idhini,d,NA,NA,NA,NA,sdf,NA,0,NA,NA,NA,NA,NA,NA,NA,NA,NA,NA,NA,NA,NA,NA,NA,NA,NA,NA,NA
67443,"""Falsch""-Screen",canvas.Screen,5_0_0_0_5_0_2,NA,NA,timeout,4999.8199999999,759358,759315.76,759361.62,764344.78,764346,2023-03-03T13:39:54Z,764361.44,NULL,Genehmigung,idhini,d,NA,NA,NA,NA,sdf,0,0,NA,NA,NA,NA,NA,NA,NA,NA,NA,NA,NA,NA,NA,NA,NA,NA,NA,NA,NA
67443,deep,flow.Sequence,5_0_0_0_5_0,NA,NA,completion,11266.12,753070,753062.02,753078.66,764344.78,764347,2023-03-03T13:39:54Z,764361.44,NULL,Genehmigung,idhini,d,NA,NA,NA,NA,sdf,NA,0,NA,NA,NA,NA,NA,NA,NA,NA,NA,NA,NA,NA,NA,NA,NA,NA,NA,NA,NA
67443,shallow,flow.Sequence,5_0_0_0_5_1,NA,NA,skipped,NA,764347,NA,NA,764344.78,764347,2023-03-03T13:39:54Z,764361.44,NULL,Genehmigung,idhini,d,NA,NA,NA,NA,sdf,NA,0,NA,NA,NA,NA,NA,NA,NA,NA,NA,NA,NA,NA,NA,NA,NA,NA,NA,NA,NA
67443,task,flow.Sequence,5_0_0_0_5,NA,NA,completion,11266.12,753070,753062.02,753078.66,764344.78,764349,2023-03-03T13:39:54Z,764361.44,NULL,Genehmigung,idhini,d,NA,NA,NA,NA,sdf,NA,0,NA,NA,NA,NA,NA,NA,NA,NA,NA,NA,NA,NA,NA,NA,NA,NA,NA,NA,NA
67443,Deep Question,html.Page,5_0_0_0_6_0_0,NA,NA,form submission,5171.5600000001,764350,764344.78,764361.44,769533,769534,2023-03-03T13:40:00Z,769561.3,NULL,Verzögerung,kuchelewa,d,NA,NA,NA,uszit,NA,NA,0,NA,NA,NA,NA,NA,NA,NA,NA,NA,NA,NA,NA,NA,NA,NA,NA,NA,NA,NA
67443,"""Richtig""-Screen",canvas.Screen,5_0_0_0_6_0_1,NA,NA,skipped,NA,769545,NA,NA,769533,769546,2023-03-03T13:40:00Z,769561.3,NULL,Verzögerung,kuchelewa,d,NA,NA,NA,NA,sdf,NA,0,NA,NA,NA,NA,NA,NA,NA,NA,NA,NA,NA,NA,NA,NA,NA,NA,NA,NA,NA
67443,"""Falsch""-Screen",canvas.Screen,5_0_0_0_6_0_2,NA,NA,timeout,4999.7799999999,769557,769529.32,769561.3,774544.42,774547,2023-03-03T13:40:05Z,774561.08,NULL,Verzögerung,kuchelewa,d,NA,NA,NA,NA,sdf,0,0,NA,NA,NA,NA,NA,NA,NA,NA,NA,NA,NA,NA,NA,NA,NA,NA,NA,NA,NA
67443,deep,flow.Sequence,5_0_0_0_6_0,NA,NA,completion,10182.98,764350,764344.78,764361.44,774544.42,774548,2023-03-03T13:40:05Z,774561.08,NULL,Verzögerung,kuchelewa,d,NA,NA,NA,NA,sdf,NA,0,NA,NA,NA,NA,NA,NA,NA,NA,NA,NA,NA,NA,NA,NA,NA,NA,NA,NA,NA
67443,shallow,flow.Sequence,5_0_0_0_6_1,NA,NA,skipped,NA,774549,NA,NA,774544.42,774552,2023-03-03T13:40:05Z,774561.08,NULL,Verzögerung,kuchelewa,d,NA,NA,NA,NA,sdf,NA,0,NA,NA,NA,NA,NA,NA,NA,NA,NA,NA,NA,NA,NA,NA,NA,NA,NA,NA,NA
67443,task,flow.Sequence,5_0_0_0_6,NA,NA,completion,10182.98,764349,764344.78,764361.44,774544.42,774553,2023-03-03T13:40:05Z,774561.08,NULL,Verzögerung,kuchelewa,d,NA,NA,NA,NA,sdf,NA,0,NA,NA,NA,NA,NA,NA,NA,NA,NA,NA,NA,NA,NA,NA,NA,NA,NA,NA,NA
67443,Deep Question,html.Page,5_0_0_0_7_0_0,NA,NA,form submission,11674.92,774555,774544.42,774561.08,786236,786237,2023-03-03T13:40:16Z,786243.66,NULL,Kultur,utamaduni,d,NA,NA,NA,gmbande,NA,NA,0,NA,NA,NA,NA,NA,NA,NA,NA,NA,NA,NA,NA,NA,NA,NA,NA,NA,NA,NA
67443,"""Richtig""-Screen",canvas.Screen,5_0_0_0_7_0_1,NA,NA,skipped,NA,786246,NA,NA,786236,786246,2023-03-03T13:40:16Z,786243.66,NULL,Kultur,utamaduni,d,NA,NA,NA,NA,sdf,NA,0,NA,NA,NA,NA,NA,NA,NA,NA,NA,NA,NA,NA,NA,NA,NA,NA,NA,NA,NA
67443,"""Falsch""-Screen",canvas.Screen,5_0_0_0_7_0_2,NA,NA,timeout,4999.84,786253,786229.46,786243.66,791227.04,791229,2023-03-03T13:40:21Z,791243.5,NULL,Kultur,utamaduni,d,NA,NA,NA,NA,sdf,0,0,NA,NA,NA,NA,NA,NA,NA,NA,NA,NA,NA,NA,NA,NA,NA,NA,NA,NA,NA
67443,deep,flow.Sequence,5_0_0_0_7_0,NA,NA,completion,16665.96,774555,774544.42,774561.08,791227.04,791231,2023-03-03T13:40:21Z,791243.5,NULL,Kultur,utamaduni,d,NA,NA,NA,NA,sdf,NA,0,NA,NA,NA,NA,NA,NA,NA,NA,NA,NA,NA,NA,NA,NA,NA,NA,NA,NA,NA
67443,shallow,flow.Sequence,5_0_0_0_7_1,NA,NA,skipped,NA,791233,NA,NA,791227.04,791233,2023-03-03T13:40:21Z,791243.5,NULL,Kultur,utamaduni,d,NA,NA,NA,NA,sdf,NA,0,NA,NA,NA,NA,NA,NA,NA,NA,NA,NA,NA,NA,NA,NA,NA,NA,NA,NA,NA
67443,task,flow.Sequence,5_0_0_0_7,NA,NA,completion,16665.96,774555,774544.42,774561.08,791227.04,791235,2023-03-03T13:40:21Z,791243.5,NULL,Kultur,utamaduni,d,NA,NA,NA,NA,sdf,NA,0,NA,NA,NA,NA,NA,NA,NA,NA,NA,NA,NA,NA,NA,NA,NA,NA,NA,NA,NA
67443,block,flow.Loop,5_0_0_0,NA,NA,completion,96878.94,694351,693962.38,694348.1,791227.04,791236,2023-03-03T13:40:21Z,791243.5,NULL,NA,NA,NA,NA,NA,NA,NA,sdf,NA,0,NA,NA,NA,NA,NA,NA,NA,NA,NA,NA,NA,NA,NA,NA,NA,NA,NA,NA,NA
67443,weiter,canvas.Screen,5_0_0_1,sdf,keypress(Space),response,1179.5,791237,791227.04,791243.5,792423,792437,2023-03-03T13:40:23Z,792677.24,NULL,NA,NA,NA,NA,NA,NA,NA,sdf,NA,0,NA,NA,NA,NA,NA,NA,NA,NA,NA,NA,NA,NA,NA,NA,NA,NA,NA,NA,NA
67443,check continue,flow.Sequence,5_0_0,NA,NA,completion,98074.9,694351,693962.38,694348.1,792423,792438,2023-03-03T13:40:23Z,792677.24,NULL,NA,NA,NA,NA,NA,NA,NA,sdf,NA,0,NA,NA,NA,NA,NA,NA,NA,NA,NA,NA,NA,NA,NA,NA,NA,NA,NA,NA,NA
67443,Deep Question,html.Page,5_0_1_0_0_0_0,NA,NA,form submission,10133.76,792677,792676.8,792677.24,802811,802811,2023-03-03T13:40:33Z,802826.2,NULL,Kultur,utamaduni,d,NA,NA,NA,utamandui,NA,NA,1,NA,NA,NA,NA,NA,NA,NA,NA,NA,NA,NA,NA,NA,NA,NA,NA,NA,NA,NA
67443,"""Richtig""-Screen",canvas.Screen,5_0_1_0_0_0_1,NA,NA,skipped,NA,802819,NA,NA,802811,802820,2023-03-03T13:40:33Z,802826.2,NULL,Kultur,utamaduni,d,NA,NA,NA,NA,sdfdsf,NA,1,NA,NA,NA,NA,NA,NA,NA,NA,NA,NA,NA,NA,NA,NA,NA,NA,NA,NA,NA
67443,"""Falsch""-Screen",canvas.Screen,5_0_1_0_0_0_2,NA,NA,timeout,4999.8,802830,802804.84,802826.2,807809.34,807811,2023-03-03T13:40:38Z,807826,NULL,Kultur,utamaduni,d,NA,NA,NA,NA,sdfdsf,0,1,NA,NA,NA,NA,NA,NA,NA,NA,NA,NA,NA,NA,NA,NA,NA,NA,NA,NA,NA
67443,deep,flow.Sequence,5_0_1_0_0_0,NA,NA,completion,15132.1,792677,792676.8,792677.24,807809.34,807812,2023-03-03T13:40:38Z,807826,NULL,Kultur,utamaduni,d,NA,NA,NA,NA,sdfdsf,NA,1,NA,NA,NA,NA,NA,NA,NA,NA,NA,NA,NA,NA,NA,NA,NA,NA,NA,NA,NA
67443,shallow,flow.Sequence,5_0_1_0_0_1,NA,NA,skipped,NA,807813,NA,NA,807809.34,807813,2023-03-03T13:40:38Z,807826,NULL,Kultur,utamaduni,d,NA,NA,NA,NA,sdfdsf,NA,1,NA,NA,NA,NA,NA,NA,NA,NA,NA,NA,NA,NA,NA,NA,NA,NA,NA,NA,NA
67443,task,flow.Sequence,5_0_1_0_0,NA,NA,completion,15132.1,792677,792676.8,792677.24,807809.34,807814,2023-03-03T13:40:38Z,807826,NULL,Kultur,utamaduni,d,NA,NA,NA,NA,sdfdsf,NA,1,NA,NA,NA,NA,NA,NA,NA,NA,NA,NA,NA,NA,NA,NA,NA,NA,NA,NA,NA
67443,deep,flow.Sequence,5_0_1_0_1_0,NA,NA,skipped,NA,807815,NA,NA,807809.34,807815,2023-03-03T13:40:38Z,807826,NULL,Prüfung,mtihani,s,mkulima,mtizamo,ufumbuzi,NA,sdfdsf,NA,1,NA,NA,NA,NA,NA,NA,NA,NA,NA,NA,NA,NA,NA,NA,NA,NA,NA,NA,NA
67443,Shallow Question,html.Page,5_0_1_0_1_1_0,NA,NA,form submission,7860,807816,807809.34,807826,815686,815687,2023-03-03T13:40:46Z,815692.36,NULL,Prüfung,mtihani,s,mkulima,mtizamo,ufumbuzi,mtihani,NA,NA,1,NA,NA,NA,NA,NA,NA,NA,NA,NA,NA,NA,NA,NA,NA,NA,NA,NA,NA,NA
67443,"""Richtig""-Screen",canvas.Screen,5_0_1_0_1_1_1,NA,NA,timeout,4999.84,815698,815679.32,815692.36,820675.54,820677,2023-03-03T13:40:51Z,820692.2,NULL,Prüfung,mtihani,s,mkulima,mtizamo,ufumbuzi,NA,sdfdsf,1,1,NA,NA,NA,NA,NA,NA,NA,NA,NA,NA,NA,NA,NA,NA,NA,NA,NA,NA,NA
67443,"""Falsch""-Screen",canvas.Screen,5_0_1_0_1_1_2,NA,NA,skipped,NA,820690,NA,NA,820675.54,820691,2023-03-03T13:40:51Z,820692.2,NULL,Prüfung,mtihani,s,mkulima,mtizamo,ufumbuzi,NA,sdfdsf,NA,1,NA,NA,NA,NA,NA,NA,NA,NA,NA,NA,NA,NA,NA,NA,NA,NA,NA,NA,NA
67443,shallow,flow.Sequence,5_0_1_0_1_1,NA,NA,completion,12849.54,807816,807809.34,807826,820675.54,820692,2023-03-03T13:40:51Z,820692.2,NULL,Prüfung,mtihani,s,mkulima,mtizamo,ufumbuzi,NA,sdfdsf,NA,1,NA,NA,NA,NA,NA,NA,NA,NA,NA,NA,NA,NA,NA,NA,NA,NA,NA,NA,NA
67443,task,flow.Sequence,5_0_1_0_1,NA,NA,completion,12849.54,807815,807809.34,807826,820675.54,820693,2023-03-03T13:40:51Z,820692.2,NULL,Prüfung,mtihani,s,mkulima,mtizamo,ufumbuzi,NA,sdfdsf,NA,1,NA,NA,NA,NA,NA,NA,NA,NA,NA,NA,NA,NA,NA,NA,NA,NA,NA,NA,NA
67443,Deep Question,html.Page,5_0_1_0_2_0_0,NA,NA,form submission,3691.8,820694,820675.54,820692.2,824384,824385,2023-03-03T13:40:54Z,824408.6,NULL,Genehmigung,idhini,d,NA,NA,NA,m,NA,NA,1,NA,NA,NA,NA,NA,NA,NA,NA,NA,NA,NA,NA,NA,NA,NA,NA,NA,NA,NA
67443,"""Richtig""-Screen",canvas.Screen,5_0_1_0_2_0_1,NA,NA,skipped,NA,824395,NA,NA,824384,824396,2023-03-03T13:40:54Z,824408.6,NULL,Genehmigung,idhini,d,NA,NA,NA,NA,sdfdsf,NA,1,NA,NA,NA,NA,NA,NA,NA,NA,NA,NA,NA,NA,NA,NA,NA,NA,NA,NA,NA
67443,"""Falsch""-Screen",canvas.Screen,5_0_1_0_2_0_2,NA,NA,timeout,4999.8,824405,824381.4,824408.6,829391.74,829393,2023-03-03T13:40:59Z,829408.4,NULL,Genehmigung,idhini,d,NA,NA,NA,NA,sdfdsf,0,1,NA,NA,NA,NA,NA,NA,NA,NA,NA,NA,NA,NA,NA,NA,NA,NA,NA,NA,NA
67443,deep,flow.Sequence,5_0_1_0_2_0,NA,NA,completion,8699.54,820694,820675.54,820692.2,829391.74,829394,2023-03-03T13:40:59Z,829408.4,NULL,Genehmigung,idhini,d,NA,NA,NA,NA,sdfdsf,NA,1,NA,NA,NA,NA,NA,NA,NA,NA,NA,NA,NA,NA,NA,NA,NA,NA,NA,NA,NA
67443,shallow,flow.Sequence,5_0_1_0_2_1,NA,NA,skipped,NA,829396,NA,NA,829391.74,829397,2023-03-03T13:40:59Z,829408.4,NULL,Genehmigung,idhini,d,NA,NA,NA,NA,sdfdsf,NA,1,NA,NA,NA,NA,NA,NA,NA,NA,NA,NA,NA,NA,NA,NA,NA,NA,NA,NA,NA
67443,task,flow.Sequence,5_0_1_0_2,NA,NA,completion,8699.54,820693,820675.54,820692.2,829391.74,829398,2023-03-03T13:40:59Z,829408.4,NULL,Genehmigung,idhini,d,NA,NA,NA,NA,sdfdsf,NA,1,NA,NA,NA,NA,NA,NA,NA,NA,NA,NA,NA,NA,NA,NA,NA,NA,NA,NA,NA
67443,deep,flow.Sequence,5_0_1_0_3_0,NA,NA,skipped,NA,829399,NA,NA,829391.74,829400,2023-03-03T13:40:59Z,829408.4,NULL,Fleisch,mshakiki,s,kizunguzungu,mshikamano,angusho,NA,sdfdsf,NA,1,NA,NA,NA,NA,NA,NA,NA,NA,NA,NA,NA,NA,NA,NA,NA,NA,NA,NA,NA
67443,Shallow Question,html.Page,5_0_1_0_3_1_0,NA,NA,form submission,5287.6,829402,829391.74,829408.4,834696,834701,2023-03-03T13:41:05Z,834724.76,NULL,Fleisch,mshakiki,s,kizunguzungu,mshikamano,angusho,mshakiki,NA,NA,1,NA,NA,NA,NA,NA,NA,NA,NA,NA,NA,NA,NA,NA,NA,NA,NA,NA,NA,NA
67443,"""Richtig""-Screen",canvas.Screen,5_0_1_0_3_1_1,NA,NA,timeout,5016.4399999999,834733,834680.9,834724.76,839707.86,839711,2023-03-03T13:41:10Z,839741.2,NULL,Fleisch,mshakiki,s,kizunguzungu,mshikamano,angusho,NA,sdfdsf,1,1,NA,NA,NA,NA,NA,NA,NA,NA,NA,NA,NA,NA,NA,NA,NA,NA,NA,NA,NA
67443,"""Falsch""-Screen",canvas.Screen,5_0_1_0_3_1_2,NA,NA,skipped,NA,839733,NA,NA,839707.86,839734,2023-03-03T13:41:10Z,839741.2,NULL,Fleisch,mshakiki,s,kizunguzungu,mshikamano,angusho,NA,sdfdsf,NA,1,NA,NA,NA,NA,NA,NA,NA,NA,NA,NA,NA,NA,NA,NA,NA,NA,NA,NA,NA
67443,shallow,flow.Sequence,5_0_1_0_3_1,NA,NA,completion,10299.46,829401,829391.74,829408.4,839707.86,839736,2023-03-03T13:41:10Z,839741.2,NULL,Fleisch,mshakiki,s,kizunguzungu,mshikamano,angusho,NA,sdfdsf,NA,1,NA,NA,NA,NA,NA,NA,NA,NA,NA,NA,NA,NA,NA,NA,NA,NA,NA,NA,NA
67443,task,flow.Sequence,5_0_1_0_3,NA,NA,completion,10299.46,829399,829391.74,829408.4,839707.86,839739,2023-03-03T13:41:10Z,839741.2,NULL,Fleisch,mshakiki,s,kizunguzungu,mshikamano,angusho,NA,sdfdsf,NA,1,NA,NA,NA,NA,NA,NA,NA,NA,NA,NA,NA,NA,NA,NA,NA,NA,NA,NA,NA
67443,deep,flow.Sequence,5_0_1_0_4_0,NA,NA,skipped,NA,839741,NA,NA,839707.86,839742,2023-03-03T13:41:10Z,839741.2,NULL,Integrität,uadilifu,s,muungano,mtiririko,upunguaji,NA,sdfdsf,NA,1,NA,NA,NA,NA,NA,NA,NA,NA,NA,NA,NA,NA,NA,NA,NA,NA,NA,NA,NA
67443,Shallow Question,html.Page,5_0_1_0_4_1_0,NA,NA,form submission,7140.8,839743,839707.86,839741.2,846882,846884,2023-03-03T13:41:17Z,846907.58,NULL,Integrität,uadilifu,s,muungano,mtiririko,upunguaji,uadilifu,NA,NA,1,NA,NA,NA,NA,NA,NA,NA,NA,NA,NA,NA,NA,NA,NA,NA,NA,NA,NA,NA
67443,"""Richtig""-Screen",canvas.Screen,5_0_1_0_4_1_1,NA,NA,timeout,4999.64,846900,846872.12,846907.58,851890.56,851892,2023-03-03T13:41:22Z,851907.22,NULL,Integrität,uadilifu,s,muungano,mtiririko,upunguaji,NA,sdfdsf,1,1,NA,NA,NA,NA,NA,NA,NA,NA,NA,NA,NA,NA,NA,NA,NA,NA,NA,NA,NA
67443,"""Falsch""-Screen",canvas.Screen,5_0_1_0_4_1_2,NA,NA,skipped,NA,851903,NA,NA,851890.56,851904,2023-03-03T13:41:22Z,851907.22,NULL,Integrität,uadilifu,s,muungano,mtiririko,upunguaji,NA,sdfdsf,NA,1,NA,NA,NA,NA,NA,NA,NA,NA,NA,NA,NA,NA,NA,NA,NA,NA,NA,NA,NA
67443,shallow,flow.Sequence,5_0_1_0_4_1,NA,NA,completion,12149.36,839743,839707.86,839741.2,851890.56,851905,2023-03-03T13:41:22Z,851907.22,NULL,Integrität,uadilifu,s,muungano,mtiririko,upunguaji,NA,sdfdsf,NA,1,NA,NA,NA,NA,NA,NA,NA,NA,NA,NA,NA,NA,NA,NA,NA,NA,NA,NA,NA
67443,task,flow.Sequence,5_0_1_0_4,NA,NA,completion,12149.36,839740,839707.86,839741.2,851890.56,851906,2023-03-03T13:41:22Z,851907.22,NULL,Integrität,uadilifu,s,muungano,mtiririko,upunguaji,NA,sdfdsf,NA,1,NA,NA,NA,NA,NA,NA,NA,NA,NA,NA,NA,NA,NA,NA,NA,NA,NA,NA,NA
67443,Deep Question,html.Page,5_0_1_0_5_0_0,NA,NA,form submission,3177.78,851909,851890.56,851907.22,855085,855086,2023-03-03T13:41:25Z,855107.06,NULL,Begegnung,kukutana,d,NA,NA,NA,m,NA,NA,1,NA,NA,NA,NA,NA,NA,NA,NA,NA,NA,NA,NA,NA,NA,NA,NA,NA,NA,NA
67443,"""Richtig""-Screen",canvas.Screen,5_0_1_0_5_0_1,NA,NA,skipped,NA,855093,NA,NA,855085,855094,2023-03-03T13:41:25Z,855107.06,NULL,Begegnung,kukutana,d,NA,NA,NA,NA,sdfdsf,NA,1,NA,NA,NA,NA,NA,NA,NA,NA,NA,NA,NA,NA,NA,NA,NA,NA,NA,NA,NA
67443,"""Falsch""-Screen",canvas.Screen,5_0_1_0_5_0_2,NA,NA,timeout,4999.9399999999,855105,855082.58,855107.06,860090.42,860093,2023-03-03T13:41:30Z,860107,NULL,Begegnung,kukutana,d,NA,NA,NA,NA,sdfdsf,0,1,NA,NA,NA,NA,NA,NA,NA,NA,NA,NA,NA,NA,NA,NA,NA,NA,NA,NA,NA
67443,deep,flow.Sequence,5_0_1_0_5_0,NA,NA,completion,8183.2000000001,851908,851890.56,851907.22,860090.42,860094,2023-03-03T13:41:30Z,860107,NULL,Begegnung,kukutana,d,NA,NA,NA,NA,sdfdsf,NA,1,NA,NA,NA,NA,NA,NA,NA,NA,NA,NA,NA,NA,NA,NA,NA,NA,NA,NA,NA
67443,shallow,flow.Sequence,5_0_1_0_5_1,NA,NA,skipped,NA,860095,NA,NA,860090.42,860097,2023-03-03T13:41:30Z,860107,NULL,Begegnung,kukutana,d,NA,NA,NA,NA,sdfdsf,NA,1,NA,NA,NA,NA,NA,NA,NA,NA,NA,NA,NA,NA,NA,NA,NA,NA,NA,NA,NA
67443,task,flow.Sequence,5_0_1_0_5,NA,NA,completion,8183.2000000001,851907,851890.56,851907.22,860090.42,860099,2023-03-03T13:41:30Z,860107,NULL,Begegnung,kukutana,d,NA,NA,NA,NA,sdfdsf,NA,1,NA,NA,NA,NA,NA,NA,NA,NA,NA,NA,NA,NA,NA,NA,NA,NA,NA,NA,NA
67443,Deep Question,html.Page,5_0_1_0_6_0_0,NA,NA,form submission,4928,860100,860090.42,860107,865035,865036,2023-03-03T13:41:35Z,865056.72,NULL,Verzögerung,kuchelewa,d,NA,NA,NA,l,NA,NA,1,NA,NA,NA,NA,NA,NA,NA,NA,NA,NA,NA,NA,NA,NA,NA,NA,NA,NA,NA
67443,"""Richtig""-Screen",canvas.Screen,5_0_1_0_6_0_1,NA,NA,skipped,NA,865047,NA,NA,865035,865048,2023-03-03T13:41:35Z,865056.72,NULL,Verzögerung,kuchelewa,d,NA,NA,NA,NA,sdfdsf,NA,1,NA,NA,NA,NA,NA,NA,NA,NA,NA,NA,NA,NA,NA,NA,NA,NA,NA,NA,NA
67443,"""Falsch""-Screen",canvas.Screen,5_0_1_0_6_0_2,NA,NA,timeout,4999.64,865058,865031.88,865056.72,870039.76,870042,2023-03-03T13:41:40Z,870056.36,NULL,Verzögerung,kuchelewa,d,NA,NA,NA,NA,sdfdsf,0,1,NA,NA,NA,NA,NA,NA,NA,NA,NA,NA,NA,NA,NA,NA,NA,NA,NA,NA,NA
67443,deep,flow.Sequence,5_0_1_0_6_0,NA,NA,completion,9932.76,860100,860090.42,860107,870039.76,870043,2023-03-03T13:41:40Z,870056.36,NULL,Verzögerung,kuchelewa,d,NA,NA,NA,NA,sdfdsf,NA,1,NA,NA,NA,NA,NA,NA,NA,NA,NA,NA,NA,NA,NA,NA,NA,NA,NA,NA,NA
67443,shallow,flow.Sequence,5_0_1_0_6_1,NA,NA,skipped,NA,870043,NA,NA,870039.76,870043,2023-03-03T13:41:40Z,870056.36,NULL,Verzögerung,kuchelewa,d,NA,NA,NA,NA,sdfdsf,NA,1,NA,NA,NA,NA,NA,NA,NA,NA,NA,NA,NA,NA,NA,NA,NA,NA,NA,NA,NA
67443,task,flow.Sequence,5_0_1_0_6,NA,NA,completion,9932.76,860100,860090.42,860107,870039.76,870045,2023-03-03T13:41:40Z,870056.36,NULL,Verzögerung,kuchelewa,d,NA,NA,NA,NA,sdfdsf,NA,1,NA,NA,NA,NA,NA,NA,NA,NA,NA,NA,NA,NA,NA,NA,NA,NA,NA,NA,NA
67443,deep,flow.Sequence,5_0_1_0_7_0,NA,NA,skipped,NA,870045,NA,NA,870039.76,870046,2023-03-03T13:41:40Z,870056.36,NULL,Aufstand,ugomaji,s,mazidio,msingi,kujieleza,NA,sdfdsf,NA,1,NA,NA,NA,NA,NA,NA,NA,NA,NA,NA,NA,NA,NA,NA,NA,NA,NA,NA,NA
67443,Shallow Question,html.Page,5_0_1_0_7_1_0,NA,NA,form submission,7035.64,870046,870039.76,870056.36,877092,877093,2023-03-03T13:41:47Z,877122.74,NULL,Aufstand,ugomaji,s,mazidio,msingi,kujieleza,mazidio,NA,NA,1,NA,NA,NA,NA,NA,NA,NA,NA,NA,NA,NA,NA,NA,NA,NA,NA,NA,NA,NA
67443,"""Richtig""-Screen",canvas.Screen,5_0_1_0_7_1_1,NA,NA,skipped,NA,877108,NA,NA,877092,877109,2023-03-03T13:41:47Z,877122.74,NULL,Aufstand,ugomaji,s,mazidio,msingi,kujieleza,NA,sdfdsf,NA,1,NA,NA,NA,NA,NA,NA,NA,NA,NA,NA,NA,NA,NA,NA,NA,NA,NA,NA,NA
67443,"""Falsch""-Screen",canvas.Screen,5_0_1_0_7_1_2,NA,NA,timeout,4999.74,877124,877082.92,877122.74,882105.82,882108,2023-03-03T13:41:52Z,882122.48,NULL,Aufstand,ugomaji,s,mazidio,msingi,kujieleza,NA,sdfdsf,0,1,NA,NA,NA,NA,NA,NA,NA,NA,NA,NA,NA,NA,NA,NA,NA,NA,NA,NA,NA
67443,shallow,flow.Sequence,5_0_1_0_7_1,NA,NA,completion,12049.46,870046,870039.76,870056.36,882105.82,882108,2023-03-03T13:41:52Z,882122.48,NULL,Aufstand,ugomaji,s,mazidio,msingi,kujieleza,NA,sdfdsf,NA,1,NA,NA,NA,NA,NA,NA,NA,NA,NA,NA,NA,NA,NA,NA,NA,NA,NA,NA,NA
67443,task,flow.Sequence,5_0_1_0_7,NA,NA,completion,12049.46,870045,870039.76,870056.36,882105.82,882109,2023-03-03T13:41:52Z,882122.48,NULL,Aufstand,ugomaji,s,mazidio,msingi,kujieleza,NA,sdfdsf,NA,1,NA,NA,NA,NA,NA,NA,NA,NA,NA,NA,NA,NA,NA,NA,NA,NA,NA,NA,NA
67443,block,flow.Loop,5_0_1_0,NA,NA,completion,89428.58,792677,792676.8,792677.24,882105.82,882110,2023-03-03T13:41:52Z,882122.48,NULL,NA,NA,NA,NA,NA,NA,NA,sdfdsf,NA,1,NA,NA,NA,NA,NA,NA,NA,NA,NA,NA,NA,NA,NA,NA,NA,NA,NA,NA,NA
67443,weiter,canvas.Screen,5_0_1_1,sdf,keypress(Space),response,7097.52,882111,882105.82,882122.48,889220,889228,2023-03-03T13:41:59Z,889472.16,NULL,NA,NA,NA,NA,NA,NA,NA,sdfdsf,NA,1,NA,NA,NA,NA,NA,NA,NA,NA,NA,NA,NA,NA,NA,NA,NA,NA,NA,NA,NA
67443,check continue,flow.Sequence,5_0_1,NA,NA,completion,96542.76,792677,792676.8,792677.24,889220,889229,2023-03-03T13:41:59Z,889472.16,NULL,NA,NA,NA,NA,NA,NA,NA,sdfdsf,NA,1,NA,NA,NA,NA,NA,NA,NA,NA,NA,NA,NA,NA,NA,NA,NA,NA,NA,NA,NA
67443,deep,flow.Sequence,5_0_2_0_0_0,NA,NA,skipped,NA,889466,NA,NA,889220,889466,2023-03-03T13:42:00Z,889472.16,NULL,Prüfung,mtihani,s,mkulima,mtizamo,ufumbuzi,NA,sdf,NA,2,NA,NA,NA,NA,NA,NA,NA,NA,NA,NA,NA,NA,NA,NA,NA,NA,NA,NA,NA
67443,Shallow Question,html.Page,5_0_2_0_0_1_0,NA,NA,form submission,5658.84,889466,889466.88,889472.16,895131,895136,2023-03-03T13:42:05Z,895155.16,NULL,Prüfung,mtihani,s,mkulima,mtizamo,ufumbuzi,mtihani,NA,NA,2,NA,NA,NA,NA,NA,NA,NA,NA,NA,NA,NA,NA,NA,NA,NA,NA,NA,NA,NA
67443,"""Richtig""-Screen",canvas.Screen,5_0_2_0_0_1_1,NA,NA,timeout,4999.86,895160,895111,895155.16,900138.36,900141,2023-03-03T13:42:10Z,900155.02,NULL,Prüfung,mtihani,s,mkulima,mtizamo,ufumbuzi,NA,sdf,1,2,NA,NA,NA,NA,NA,NA,NA,NA,NA,NA,NA,NA,NA,NA,NA,NA,NA,NA,NA
67443,"""Falsch""-Screen",canvas.Screen,5_0_2_0_0_1_2,NA,NA,skipped,NA,900161,NA,NA,900138.36,900162,2023-03-03T13:42:10Z,900155.02,NULL,Prüfung,mtihani,s,mkulima,mtizamo,ufumbuzi,NA,sdf,NA,2,NA,NA,NA,NA,NA,NA,NA,NA,NA,NA,NA,NA,NA,NA,NA,NA,NA,NA,NA
67443,shallow,flow.Sequence,5_0_2_0_0_1,NA,NA,completion,10666.2,889466,889466.88,889472.16,900138.36,900163,2023-03-03T13:42:10Z,900155.02,NULL,Prüfung,mtihani,s,mkulima,mtizamo,ufumbuzi,NA,sdf,NA,2,NA,NA,NA,NA,NA,NA,NA,NA,NA,NA,NA,NA,NA,NA,NA,NA,NA,NA,NA
67443,task,flow.Sequence,5_0_2_0_0,NA,NA,completion,10666.2,889466,889466.88,889472.16,900138.36,900164,2023-03-03T13:42:10Z,900155.02,NULL,Prüfung,mtihani,s,mkulima,mtizamo,ufumbuzi,NA,sdf,NA,2,NA,NA,NA,NA,NA,NA,NA,NA,NA,NA,NA,NA,NA,NA,NA,NA,NA,NA,NA
67443,Deep Question,html.Page,5_0_2_0_1_0_0,NA,NA,form submission,14101.98,900166,900138.36,900155.02,914257,914259,2023-03-03T13:42:24Z,914287.56,NULL,Genehmigung,idhini,d,NA,NA,NA,inhiti,NA,NA,2,NA,NA,NA,NA,NA,NA,NA,NA,NA,NA,NA,NA,NA,NA,NA,NA,NA,NA,NA
67443,"""Richtig""-Screen",canvas.Screen,5_0_2_0_1_0_1,NA,NA,skipped,NA,914270,NA,NA,914257,914272,2023-03-03T13:42:24Z,914287.56,NULL,Genehmigung,idhini,d,NA,NA,NA,NA,sdf,NA,2,NA,NA,NA,NA,NA,NA,NA,NA,NA,NA,NA,NA,NA,NA,NA,NA,NA,NA,NA
67443,"""Falsch""-Screen",canvas.Screen,5_0_2_0_1_0_2,NA,NA,timeout,4999.7599999999,914285,914253.44,914287.56,919270.66,919273,2023-03-03T13:42:29Z,919287.32,NULL,Genehmigung,idhini,d,NA,NA,NA,NA,sdf,0,2,NA,NA,NA,NA,NA,NA,NA,NA,NA,NA,NA,NA,NA,NA,NA,NA,NA,NA,NA
67443,deep,flow.Sequence,5_0_2_0_1_0,NA,NA,completion,19115.64,900165,900138.36,900155.02,919270.66,919275,2023-03-03T13:42:29Z,919287.32,NULL,Genehmigung,idhini,d,NA,NA,NA,NA,sdf,NA,2,NA,NA,NA,NA,NA,NA,NA,NA,NA,NA,NA,NA,NA,NA,NA,NA,NA,NA,NA
67443,shallow,flow.Sequence,5_0_2_0_1_1,NA,NA,skipped,NA,919277,NA,NA,919270.66,919279,2023-03-03T13:42:29Z,919287.32,NULL,Genehmigung,idhini,d,NA,NA,NA,NA,sdf,NA,2,NA,NA,NA,NA,NA,NA,NA,NA,NA,NA,NA,NA,NA,NA,NA,NA,NA,NA,NA
67443,task,flow.Sequence,5_0_2_0_1,NA,NA,completion,19115.64,900165,900138.36,900155.02,919270.66,919282,2023-03-03T13:42:29Z,919287.32,NULL,Genehmigung,idhini,d,NA,NA,NA,NA,sdf,NA,2,NA,NA,NA,NA,NA,NA,NA,NA,NA,NA,NA,NA,NA,NA,NA,NA,NA,NA,NA
67443,deep,flow.Sequence,5_0_2_0_2_0,NA,NA,skipped,NA,919284,NA,NA,919270.66,919285,2023-03-03T13:42:29Z,919287.32,NULL,Integrität,uadilifu,s,muungano,mtiririko,upunguaji,NA,sdf,NA,2,NA,NA,NA,NA,NA,NA,NA,NA,NA,NA,NA,NA,NA,NA,NA,NA,NA,NA,NA
67443,Shallow Question,html.Page,5_0_2_0_2_1_0,NA,NA,form submission,5092.6800000001,919287,919270.66,919287.32,924380,924381,2023-03-03T13:42:34Z,924387.08,NULL,Integrität,uadilifu,s,muungano,mtiririko,upunguaji,uadilifu,NA,NA,2,NA,NA,NA,NA,NA,NA,NA,NA,NA,NA,NA,NA,NA,NA,NA,NA,NA,NA,NA
67443,"""Richtig""-Screen",canvas.Screen,5_0_2_0_2_1_1,NA,NA,timeout,5016.5600000001,924394,924371.1,924387.08,929370.4,929372,2023-03-03T13:42:39Z,929403.64,NULL,Integrität,uadilifu,s,muungano,mtiririko,upunguaji,NA,sdf,1,2,NA,NA,NA,NA,NA,NA,NA,NA,NA,NA,NA,NA,NA,NA,NA,NA,NA,NA,NA
67443,"""Falsch""-Screen",canvas.Screen,5_0_2_0_2_1_2,NA,NA,skipped,NA,929396,NA,NA,929370.4,929397,2023-03-03T13:42:39Z,929403.64,NULL,Integrität,uadilifu,s,muungano,mtiririko,upunguaji,NA,sdf,NA,2,NA,NA,NA,NA,NA,NA,NA,NA,NA,NA,NA,NA,NA,NA,NA,NA,NA,NA,NA
67443,shallow,flow.Sequence,5_0_2_0_2_1,NA,NA,completion,10083.08,919287,919270.66,919287.32,929370.4,929398,2023-03-03T13:42:39Z,929403.64,NULL,Integrität,uadilifu,s,muungano,mtiririko,upunguaji,NA,sdf,NA,2,NA,NA,NA,NA,NA,NA,NA,NA,NA,NA,NA,NA,NA,NA,NA,NA,NA,NA,NA
67443,task,flow.Sequence,5_0_2_0_2,NA,NA,completion,10083.08,919284,919270.66,919287.32,929370.4,929400,2023-03-03T13:42:39Z,929403.64,NULL,Integrität,uadilifu,s,muungano,mtiririko,upunguaji,NA,sdf,NA,2,NA,NA,NA,NA,NA,NA,NA,NA,NA,NA,NA,NA,NA,NA,NA,NA,NA,NA,NA
67443,Deep Question,html.Page,5_0_2_0_3_0_0,NA,NA,form submission,15249.36,929402,929370.4,929403.64,944653,944653,2023-03-03T13:42:55Z,944686.12,NULL,Begegnung,kukutana,d,NA,NA,NA,kuchelewa,NA,NA,2,NA,NA,NA,NA,NA,NA,NA,NA,NA,NA,NA,NA,NA,NA,NA,NA,NA,NA,NA
67443,"""Richtig""-Screen",canvas.Screen,5_0_2_0_3_0_1,NA,NA,skipped,NA,944666,NA,NA,944653,944666,2023-03-03T13:42:55Z,944686.12,NULL,Begegnung,kukutana,d,NA,NA,NA,NA,sdf,NA,2,NA,NA,NA,NA,NA,NA,NA,NA,NA,NA,NA,NA,NA,NA,NA,NA,NA,NA,NA
67443,"""Falsch""-Screen",canvas.Screen,5_0_2_0_3_0_2,NA,NA,timeout,4999.84,944678,944649.56,944686.12,949669.28,949676,2023-03-03T13:43:00Z,949685.96,NULL,Begegnung,kukutana,d,NA,NA,NA,NA,sdf,0,2,NA,NA,NA,NA,NA,NA,NA,NA,NA,NA,NA,NA,NA,NA,NA,NA,NA,NA,NA
67443,deep,flow.Sequence,5_0_2_0_3_0,NA,NA,completion,20265.64,929402,929370.4,929403.64,949669.28,949683,2023-03-03T13:43:00Z,949685.96,NULL,Begegnung,kukutana,d,NA,NA,NA,NA,sdf,NA,2,NA,NA,NA,NA,NA,NA,NA,NA,NA,NA,NA,NA,NA,NA,NA,NA,NA,NA,NA
67443,shallow,flow.Sequence,5_0_2_0_3_1,NA,NA,skipped,NA,949684,NA,NA,949669.28,949687,2023-03-03T13:43:00Z,949685.96,NULL,Begegnung,kukutana,d,NA,NA,NA,NA,sdf,NA,2,NA,NA,NA,NA,NA,NA,NA,NA,NA,NA,NA,NA,NA,NA,NA,NA,NA,NA,NA
67443,task,flow.Sequence,5_0_2_0_3,NA,NA,completion,20265.64,929400,929370.4,929403.64,949669.28,949688,2023-03-03T13:43:00Z,949685.96,NULL,Begegnung,kukutana,d,NA,NA,NA,NA,sdf,NA,2,NA,NA,NA,NA,NA,NA,NA,NA,NA,NA,NA,NA,NA,NA,NA,NA,NA,NA,NA
67443,deep,flow.Sequence,5_0_2_0_4_0,NA,NA,skipped,NA,949689,NA,NA,949669.28,949690,2023-03-03T13:43:00Z,949685.96,NULL,Fleisch,mshakiki,s,kizunguzungu,mshikamano,angusho,NA,sdf,NA,2,NA,NA,NA,NA,NA,NA,NA,NA,NA,NA,NA,NA,NA,NA,NA,NA,NA,NA,NA
67443,Shallow Question,html.Page,5_0_2_0_4_1_0,NA,NA,form submission,4910.04,949691,949669.28,949685.96,954596,954598,2023-03-03T13:43:05Z,954635.68,NULL,Fleisch,mshakiki,s,kizunguzungu,mshikamano,angusho,mshakiki,NA,NA,2,NA,NA,NA,NA,NA,NA,NA,NA,NA,NA,NA,NA,NA,NA,NA,NA,NA,NA,NA
67443,"""Richtig""-Screen",canvas.Screen,5_0_2_0_4_1_1,NA,NA,timeout,5016.38,954627,954581.76,954635.68,959618.78,959621,2023-03-03T13:43:10Z,959652.06,NULL,Fleisch,mshakiki,s,kizunguzungu,mshikamano,angusho,NA,sdf,1,2,NA,NA,NA,NA,NA,NA,NA,NA,NA,NA,NA,NA,NA,NA,NA,NA,NA,NA,NA
67443,"""Falsch""-Screen",canvas.Screen,5_0_2_0_4_1_2,NA,NA,skipped,NA,959634,NA,NA,959618.78,959635,2023-03-03T13:43:10Z,959652.06,NULL,Fleisch,mshakiki,s,kizunguzungu,mshikamano,angusho,NA,sdf,NA,2,NA,NA,NA,NA,NA,NA,NA,NA,NA,NA,NA,NA,NA,NA,NA,NA,NA,NA,NA
67443,shallow,flow.Sequence,5_0_2_0_4_1,NA,NA,completion,9932.8200000001,949691,949669.28,949685.96,959618.78,959636,2023-03-03T13:43:10Z,959652.06,NULL,Fleisch,mshakiki,s,kizunguzungu,mshikamano,angusho,NA,sdf,NA,2,NA,NA,NA,NA,NA,NA,NA,NA,NA,NA,NA,NA,NA,NA,NA,NA,NA,NA,NA
67443,task,flow.Sequence,5_0_2_0_4,NA,NA,completion,9932.8200000001,949689,949669.28,949685.96,959618.78,959638,2023-03-03T13:43:10Z,959652.06,NULL,Fleisch,mshakiki,s,kizunguzungu,mshikamano,angusho,NA,sdf,NA,2,NA,NA,NA,NA,NA,NA,NA,NA,NA,NA,NA,NA,NA,NA,NA,NA,NA,NA,NA
67443,deep,flow.Sequence,5_0_2_0_5_0,NA,NA,skipped,NA,959640,NA,NA,959618.78,959641,2023-03-03T13:43:10Z,959652.06,NULL,Aufstand,ugomaji,s,mazidio,msingi,kujieleza,NA,sdf,NA,2,NA,NA,NA,NA,NA,NA,NA,NA,NA,NA,NA,NA,NA,NA,NA,NA,NA,NA,NA
67443,Shallow Question,html.Page,5_0_2_0_5_1_0,NA,NA,form submission,5660.9399999999,959645,959618.78,959652.06,965313,965315,2023-03-03T13:43:15Z,965351.68,NULL,Aufstand,ugomaji,s,mazidio,msingi,kujieleza,mazidio,NA,NA,2,NA,NA,NA,NA,NA,NA,NA,NA,NA,NA,NA,NA,NA,NA,NA,NA,NA,NA,NA
67443,"""Richtig""-Screen",canvas.Screen,5_0_2_0_5_1_1,NA,NA,skipped,NA,965333,NA,NA,965313,965334,2023-03-03T13:43:15Z,965351.68,NULL,Aufstand,ugomaji,s,mazidio,msingi,kujieleza,NA,sdf,NA,2,NA,NA,NA,NA,NA,NA,NA,NA,NA,NA,NA,NA,NA,NA,NA,NA,NA,NA,NA
67443,"""Falsch""-Screen",canvas.Screen,5_0_2_0_5_1_2,NA,NA,timeout,4999.9399999999,965349,965302.96,965351.68,970334.94,970338,2023-03-03T13:43:20Z,970351.62,NULL,Aufstand,ugomaji,s,mazidio,msingi,kujieleza,NA,sdf,0,2,NA,NA,NA,NA,NA,NA,NA,NA,NA,NA,NA,NA,NA,NA,NA,NA,NA,NA,NA
67443,shallow,flow.Sequence,5_0_2_0_5_1,NA,NA,completion,10682.88,959642,959618.78,959652.06,970334.94,970339,2023-03-03T13:43:20Z,970351.62,NULL,Aufstand,ugomaji,s,mazidio,msingi,kujieleza,NA,sdf,NA,2,NA,NA,NA,NA,NA,NA,NA,NA,NA,NA,NA,NA,NA,NA,NA,NA,NA,NA,NA
67443,task,flow.Sequence,5_0_2_0_5,NA,NA,completion,10682.88,959639,959618.78,959652.06,970334.94,970341,2023-03-03T13:43:20Z,970351.62,NULL,Aufstand,ugomaji,s,mazidio,msingi,kujieleza,NA,sdf,NA,2,NA,NA,NA,NA,NA,NA,NA,NA,NA,NA,NA,NA,NA,NA,NA,NA,NA,NA,NA
67443,Deep Question,html.Page,5_0_2_0_6_0_0,NA,NA,form submission,7939.38,970343,970334.94,970351.62,978291,978293,2023-03-03T13:43:28Z,978317.88,NULL,Kultur,utamaduni,d,NA,NA,NA,maendelo,NA,NA,2,NA,NA,NA,NA,NA,NA,NA,NA,NA,NA,NA,NA,NA,NA,NA,NA,NA,NA,NA
67443,"""Richtig""-Screen",canvas.Screen,5_0_2_0_6_0_1,NA,NA,skipped,NA,978303,NA,NA,978291,978304,2023-03-03T13:43:28Z,978317.88,NULL,Kultur,utamaduni,d,NA,NA,NA,NA,sdf,NA,2,NA,NA,NA,NA,NA,NA,NA,NA,NA,NA,NA,NA,NA,NA,NA,NA,NA,NA,NA
67443,"""Falsch""-Screen",canvas.Screen,5_0_2_0_6_0_2,NA,NA,timeout,4999.76,978317,978287.12,978317.88,983300.98,983303,2023-03-03T13:43:33Z,983317.64,NULL,Kultur,utamaduni,d,NA,NA,NA,NA,sdf,0,2,NA,NA,NA,NA,NA,NA,NA,NA,NA,NA,NA,NA,NA,NA,NA,NA,NA,NA,NA
67443,deep,flow.Sequence,5_0_2_0_6_0,NA,NA,completion,12949.36,970342,970334.94,970351.62,983300.98,983305,2023-03-03T13:43:33Z,983317.64,NULL,Kultur,utamaduni,d,NA,NA,NA,NA,sdf,NA,2,NA,NA,NA,NA,NA,NA,NA,NA,NA,NA,NA,NA,NA,NA,NA,NA,NA,NA,NA
67443,shallow,flow.Sequence,5_0_2_0_6_1,NA,NA,skipped,NA,983306,NA,NA,983300.98,983307,2023-03-03T13:43:33Z,983317.64,NULL,Kultur,utamaduni,d,NA,NA,NA,NA,sdf,NA,2,NA,NA,NA,NA,NA,NA,NA,NA,NA,NA,NA,NA,NA,NA,NA,NA,NA,NA,NA
67443,task,flow.Sequence,5_0_2_0_6,NA,NA,completion,12949.36,970342,970334.94,970351.62,983300.98,983308,2023-03-03T13:43:33Z,983317.64,NULL,Kultur,utamaduni,d,NA,NA,NA,NA,sdf,NA,2,NA,NA,NA,NA,NA,NA,NA,NA,NA,NA,NA,NA,NA,NA,NA,NA,NA,NA,NA
67443,Deep Question,html.Page,5_0_2_0_7_0_0,NA,NA,form submission,10262.36,983310,983300.98,983317.64,993580,993581,2023-03-03T13:43:44Z,993600.46,NULL,Verzögerung,kuchelewa,d,NA,NA,NA,kuchelewa,NA,NA,2,NA,NA,NA,NA,NA,NA,NA,NA,NA,NA,NA,NA,NA,NA,NA,NA,NA,NA,NA
67443,"""Richtig""-Screen",canvas.Screen,5_0_2_0_7_0_1,NA,NA,timeout,4999.88,993592,993576.88,993600.46,998583.68,998585,2023-03-03T13:43:49Z,998600.34,NULL,Verzögerung,kuchelewa,d,NA,NA,NA,NA,sdf,1,2,NA,NA,NA,NA,NA,NA,NA,NA,NA,NA,NA,NA,NA,NA,NA,NA,NA,NA,NA
67443,"""Falsch""-Screen",canvas.Screen,5_0_2_0_7_0_2,NA,NA,skipped,NA,998599,NA,NA,998583.68,998600,2023-03-03T13:43:49Z,998600.34,NULL,Verzögerung,kuchelewa,d,NA,NA,NA,NA,sdf,NA,2,NA,NA,NA,NA,NA,NA,NA,NA,NA,NA,NA,NA,NA,NA,NA,NA,NA,NA,NA
67443,deep,flow.Sequence,5_0_2_0_7_0,NA,NA,completion,15266.04,983309,983300.98,983317.64,998583.68,998601,2023-03-03T13:43:49Z,998600.34,NULL,Verzögerung,kuchelewa,d,NA,NA,NA,NA,sdf,NA,2,NA,NA,NA,NA,NA,NA,NA,NA,NA,NA,NA,NA,NA,NA,NA,NA,NA,NA,NA
67443,shallow,flow.Sequence,5_0_2_0_7_1,NA,NA,skipped,NA,998601,NA,NA,998583.68,998602,2023-03-03T13:43:49Z,998600.34,NULL,Verzögerung,kuchelewa,d,NA,NA,NA,NA,sdf,NA,2,NA,NA,NA,NA,NA,NA,NA,NA,NA,NA,NA,NA,NA,NA,NA,NA,NA,NA,NA
67443,task,flow.Sequence,5_0_2_0_7,NA,NA,completion,15266.04,983309,983300.98,983317.64,998583.68,998603,2023-03-03T13:43:49Z,998600.34,NULL,Verzögerung,kuchelewa,d,NA,NA,NA,NA,sdf,NA,2,NA,NA,NA,NA,NA,NA,NA,NA,NA,NA,NA,NA,NA,NA,NA,NA,NA,NA,NA
67443,block,flow.Loop,5_0_2_0,NA,NA,completion,109111.52,889465,889466.88,889472.16,998583.68,998605,2023-03-03T13:43:49Z,998600.34,NULL,NA,NA,NA,NA,NA,NA,NA,sdf,NA,2,NA,NA,NA,NA,NA,NA,NA,NA,NA,NA,NA,NA,NA,NA,NA,NA,NA,NA,NA
67443,weiter,canvas.Screen,5_0_2_1,sdf,keypress(Space),response,995.66000000003,998606,998583.68,998600.34,999596,999605,2023-03-03T13:43:50Z,999849.78,NULL,NA,NA,NA,NA,NA,NA,NA,sdf,NA,2,NA,NA,NA,NA,NA,NA,NA,NA,NA,NA,NA,NA,NA,NA,NA,NA,NA,NA,NA
67443,check continue,flow.Sequence,5_0_2,NA,NA,completion,110123.84,889465,889466.88,889472.16,999596,999607,2023-03-03T13:43:50Z,999849.78,NULL,NA,NA,NA,NA,NA,NA,NA,sdf,NA,2,NA,NA,NA,NA,NA,NA,NA,NA,NA,NA,NA,NA,NA,NA,NA,NA,NA,NA,NA
67443,Deep Question,html.Page,5_0_3_0_0_0_0,NA,NA,form submission,9536.22,999849,999849.28,999849.78,1009386,1009389,2023-03-03T13:43:59Z,1009416.32,NULL,Kultur,utamaduni,d,NA,NA,NA,ushendi,NA,NA,3,NA,NA,NA,NA,NA,NA,NA,NA,NA,NA,NA,NA,NA,NA,NA,NA,NA,NA,NA
67443,"""Richtig""-Screen",canvas.Screen,5_0_3_0_0_0_1,NA,NA,skipped,NA,1009408,NA,NA,1009386,1009409,2023-03-03T13:44:00Z,1009416.32,NULL,Kultur,utamaduni,d,NA,NA,NA,NA,qt,NA,3,NA,NA,NA,NA,NA,NA,NA,NA,NA,NA,NA,NA,NA,NA,NA,NA,NA,NA,NA
67443,"""Falsch""-Screen",canvas.Screen,5_0_3_0_0_0_2,NA,NA,timeout,4999.9400000001,1009421,1009381.84,1009416.32,1014399.6,1014402,2023-03-03T13:44:04Z,1014416.26,NULL,Kultur,utamaduni,d,NA,NA,NA,NA,qt,0,3,NA,NA,NA,NA,NA,NA,NA,NA,NA,NA,NA,NA,NA,NA,NA,NA,NA,NA,NA
67443,deep,flow.Sequence,5_0_3_0_0_0,NA,NA,completion,14549.82,999849,999849.28,999849.78,1014399.6,1014406,2023-03-03T13:44:04Z,1014416.26,NULL,Kultur,utamaduni,d,NA,NA,NA,NA,qt,NA,3,NA,NA,NA,NA,NA,NA,NA,NA,NA,NA,NA,NA,NA,NA,NA,NA,NA,NA,NA
67443,shallow,flow.Sequence,5_0_3_0_0_1,NA,NA,skipped,NA,1014408,NA,NA,1014399.6,1014410,2023-03-03T13:44:05Z,1014416.26,NULL,Kultur,utamaduni,d,NA,NA,NA,NA,qt,NA,3,NA,NA,NA,NA,NA,NA,NA,NA,NA,NA,NA,NA,NA,NA,NA,NA,NA,NA,NA
67443,task,flow.Sequence,5_0_3_0_0,NA,NA,completion,14549.82,999849,999849.28,999849.78,1014399.6,1014412,2023-03-03T13:44:05Z,1014416.26,NULL,Kultur,utamaduni,d,NA,NA,NA,NA,qt,NA,3,NA,NA,NA,NA,NA,NA,NA,NA,NA,NA,NA,NA,NA,NA,NA,NA,NA,NA,NA
67443,Deep Question,html.Page,5_0_3_0_1_0_0,NA,NA,form submission,17622.74,1014416,1014399.6,1014416.26,1032039,1032041,2023-03-03T13:44:22Z,1032065.32,NULL,Genehmigung,idhini,d,NA,NA,NA,indhui,NA,NA,3,NA,NA,NA,NA,NA,NA,NA,NA,NA,NA,NA,NA,NA,NA,NA,NA,NA,NA,NA
67443,"""Richtig""-Screen",canvas.Screen,5_0_3_0_1_0_1,NA,NA,skipped,NA,1032053,NA,NA,1032039,1032054,2023-03-03T13:44:22Z,1032065.32,NULL,Genehmigung,idhini,d,NA,NA,NA,NA,qt,NA,3,NA,NA,NA,NA,NA,NA,NA,NA,NA,NA,NA,NA,NA,NA,NA,NA,NA,NA,NA
67443,"""Falsch""-Screen",canvas.Screen,5_0_3_0_1_0_2,NA,NA,timeout,4999.8600000001,1032066,1032034.62,1032065.32,1037048.5,1037051,2023-03-03T13:44:27Z,1037065.18,NULL,Genehmigung,idhini,d,NA,NA,NA,NA,qt,0,3,NA,NA,NA,NA,NA,NA,NA,NA,NA,NA,NA,NA,NA,NA,NA,NA,NA,NA,NA
67443,deep,flow.Sequence,5_0_3_0_1_0,NA,NA,completion,22632.24,1014415,1014399.6,1014416.26,1037048.5,1037053,2023-03-03T13:44:27Z,1037065.18,NULL,Genehmigung,idhini,d,NA,NA,NA,NA,qt,NA,3,NA,NA,NA,NA,NA,NA,NA,NA,NA,NA,NA,NA,NA,NA,NA,NA,NA,NA,NA
67443,shallow,flow.Sequence,5_0_3_0_1_1,NA,NA,skipped,NA,1037056,NA,NA,1037048.5,1037058,2023-03-03T13:44:27Z,1037065.18,NULL,Genehmigung,idhini,d,NA,NA,NA,NA,qt,NA,3,NA,NA,NA,NA,NA,NA,NA,NA,NA,NA,NA,NA,NA,NA,NA,NA,NA,NA,NA
67443,task,flow.Sequence,5_0_3_0_1,NA,NA,completion,22632.24,1014415,1014399.6,1014416.26,1037048.5,1037060,2023-03-03T13:44:27Z,1037065.18,NULL,Genehmigung,idhini,d,NA,NA,NA,NA,qt,NA,3,NA,NA,NA,NA,NA,NA,NA,NA,NA,NA,NA,NA,NA,NA,NA,NA,NA,NA,NA
67443,Deep Question,html.Page,5_0_3_0_2_0_0,NA,NA,form submission,11937.82,1037062,1037048.5,1037065.18,1049003,1049005,2023-03-03T13:44:39Z,1049014.56,NULL,Verzögerung,kuchelewa,d,NA,NA,NA,kuchelewa,NA,NA,3,NA,NA,NA,NA,NA,NA,NA,NA,NA,NA,NA,NA,NA,NA,NA,NA,NA,NA,NA
67443,"""Richtig""-Screen",canvas.Screen,5_0_3_0_2_0_1,NA,NA,timeout,5016.4199999999,1049015,1048998.72,1049014.56,1053997.68,1053999,2023-03-03T13:44:44Z,1054030.98,NULL,Verzögerung,kuchelewa,d,NA,NA,NA,NA,qt,1,3,NA,NA,NA,NA,NA,NA,NA,NA,NA,NA,NA,NA,NA,NA,NA,NA,NA,NA,NA
67443,"""Falsch""-Screen",canvas.Screen,5_0_3_0_2_0_2,NA,NA,skipped,NA,1054022,NA,NA,1053997.68,1054022,2023-03-03T13:44:44Z,1054030.98,NULL,Verzögerung,kuchelewa,d,NA,NA,NA,NA,qt,NA,3,NA,NA,NA,NA,NA,NA,NA,NA,NA,NA,NA,NA,NA,NA,NA,NA,NA,NA,NA
67443,deep,flow.Sequence,5_0_3_0_2_0,NA,NA,completion,16932.5,1037062,1037048.5,1037065.18,1053997.68,1054024,2023-03-03T13:44:44Z,1054030.98,NULL,Verzögerung,kuchelewa,d,NA,NA,NA,NA,qt,NA,3,NA,NA,NA,NA,NA,NA,NA,NA,NA,NA,NA,NA,NA,NA,NA,NA,NA,NA,NA
67443,shallow,flow.Sequence,5_0_3_0_2_1,NA,NA,skipped,NA,1054025,NA,NA,1053997.68,1054025,2023-03-03T13:44:44Z,1054030.98,NULL,Verzögerung,kuchelewa,d,NA,NA,NA,NA,qt,NA,3,NA,NA,NA,NA,NA,NA,NA,NA,NA,NA,NA,NA,NA,NA,NA,NA,NA,NA,NA
67443,task,flow.Sequence,5_0_3_0_2,NA,NA,completion,16932.5,1037061,1037048.5,1037065.18,1053997.68,1054026,2023-03-03T13:44:44Z,1054030.98,NULL,Verzögerung,kuchelewa,d,NA,NA,NA,NA,qt,NA,3,NA,NA,NA,NA,NA,NA,NA,NA,NA,NA,NA,NA,NA,NA,NA,NA,NA,NA,NA
67443,deep,flow.Sequence,5_0_3_0_3_0,NA,NA,skipped,NA,1054027,NA,NA,1053997.68,1054028,2023-03-03T13:44:44Z,1054030.98,NULL,Integrität,uadilifu,s,muungano,mtiririko,upunguaji,NA,qt,NA,3,NA,NA,NA,NA,NA,NA,NA,NA,NA,NA,NA,NA,NA,NA,NA,NA,NA,NA,NA
67443,Shallow Question,html.Page,5_0_3_0_3_1_0,NA,NA,form submission,5309.02,1054029,1053997.68,1054030.98,1059340,1059341,2023-03-03T13:44:49Z,1059363.94,NULL,Integrität,uadilifu,s,muungano,mtiririko,upunguaji,uadilifu,NA,NA,3,NA,NA,NA,NA,NA,NA,NA,NA,NA,NA,NA,NA,NA,NA,NA,NA,NA,NA,NA
