observation,sender,sender_type,sender_id,response,response_action,ended_on,duration,time_run,time_render,time_show,time_end,time_commit,timestamp,time_switch,german,swahili,enc,distractor1,distractor2,distractor3,response_2,x,correct,distractors,url_vp,url_sess,meta_labjs_version,meta_location,meta_user_agent,meta_platform,meta_language,meta_locale,meta_time_zone,meta_timezone_offset,meta_screen_width,meta_screen_height,meta_scroll_width,meta_scroll_height,meta_window_inner_width,meta_window_inner_height,meta_device_pixel_ratio,meta_labjs_build_flavor,meta_labjs_build_commit
52000,Introduction delayed retrieval,canvas.Screen,0,weiter,keypress(Space),response,1587.6810000954,1081.1999998093,1078.515,1145.219,2732.9000000954,2735.5,2023-05-08T22:06:46Z,2745.214,NA,NA,NA,NA,NA,NA,NA,NA,NA,NULL,116,2,20.2.4,https://neurocog.fernuni.ch/studies/vweber/delayed/index.html?vp=116&sess=2,"Mozilla/5.0 (Windows NT 10.0; Win64; x64) AppleWebKit/537.36 (KHTML, like Gecko) Chrome/112.0.0.0 Safari/537.36",Win32,en-CH,en-US,Europe/Zurich,-120,1500,1000,1500,823,1500,871,2,production,f5b4a49f956347addd546a832a3327688c2c0fef
52000,Deep Question,html.Page,1_0_0_0,NA,NA,form submission,12368.686000095,2736.0999999046,2728.498,2745.214,15113.900000095,15114.199999809,2023-05-08T22:06:58Z,15126.355,Genehmigung,idhini,d,mwanamke,itikadi,fedheha,m,NA,NA,NULL,NA,NA,NA,NA,NA,NA,NA,NA,NA,NA,NA,NA,NA,NA,NA,NA,NA,NA,NA
52000,Save data screen,canvas.Screen,1_0_0_1,NA,NA,timeout,500.237,15115,15109.431,15126.355,15610.182,15611,2023-05-08T22:06:59Z,15626.592,Genehmigung,idhini,d,mwanamke,itikadi,fedheha,NA,NA,0,NULL,NA,NA,NA,NA,NA,NA,NA,NA,NA,NA,NA,NA,NA,NA,NA,NA,NA,NA,NA
52000,deep,flow.Sequence,1_0_0,NA,NA,completion,12864.968,2736,2728.498,2745.214,15610.182,15611.199999809,2023-05-08T22:06:59Z,15626.592,Genehmigung,idhini,d,mwanamke,itikadi,fedheha,NA,NA,NA,NULL,NA,NA,NA,NA,NA,NA,NA,NA,NA,NA,NA,NA,NA,NA,NA,NA,NA,NA,NA
52000,task,flow.Sequence,1_0,NA,NA,completion,12864.968,2736,2728.498,2745.214,15610.182,15611.300000191,2023-05-08T22:06:59Z,15626.592,Genehmigung,idhini,d,mwanamke,itikadi,fedheha,NA,NA,NA,NULL,NA,NA,NA,NA,NA,NA,NA,NA,NA,NA,NA,NA,NA,NA,NA,NA,NA,NA,NA
52000,Deep Question,html.Page,1_1_0_0,NA,NA,form submission,10638.308000095,15611.400000095,15610.182,15626.592,26264.900000095,26266,2023-05-08T22:07:09Z,26279.658,Vorwurf,mashtaka,d,msukumo,mtangulizi,uenyekiti,kiklawa,NA,NA,NULL,NA,NA,NA,NA,NA,NA,NA,NA,NA,NA,NA,NA,NA,NA,NA,NA,NA,NA,NA
52000,Save data screen,canvas.Screen,1_1_0_1,NA,NA,timeout,496.922,26267.900000095,26263.146,26279.658,26759.993,26761.099999905,2023-05-08T22:07:10Z,26776.58,Vorwurf,mashtaka,d,msukumo,mtangulizi,uenyekiti,NA,NA,0,NULL,NA,NA,NA,NA,NA,NA,NA,NA,NA,NA,NA,NA,NA,NA,NA,NA,NA,NA,NA
52000,deep,flow.Sequence,1_1_0,NA,NA,completion,11133.401,15611.400000095,15610.182,15626.592,26759.993,26761.699999809,2023-05-08T22:07:10Z,26776.58,Vorwurf,mashtaka,d,msukumo,mtangulizi,uenyekiti,NA,NA,NA,NULL,NA,NA,NA,NA,NA,NA,NA,NA,NA,NA,NA,NA,NA,NA,NA,NA,NA,NA,NA
52000,task,flow.Sequence,1_1,NA,NA,completion,11133.401,15611.400000095,15610.182,15626.592,26759.993,26762,2023-05-08T22:07:10Z,26776.58,Vorwurf,mashtaka,d,msukumo,mtangulizi,uenyekiti,NA,NA,NA,NULL,NA,NA,NA,NA,NA,NA,NA,NA,NA,NA,NA,NA,NA,NA,NA,NA,NA,NA,NA
52000,Deep Question,html.Page,1_2_0_0,NA,NA,form submission,11372.320000095,26762.599999905,26759.993,26776.58,38148.900000095004,38149.699999809,2023-05-08T22:07:21Z,38157.622,Stimmung,kinyongo,d,kilekile,kisambo,madhehebu,angahawe,NA,NA,NULL,NA,NA,NA,NA,NA,NA,NA,NA,NA,NA,NA,NA,NA,NA,NA,NA,NA,NA,NA
52000,Save data screen,canvas.Screen,1_2_0_1,NA,NA,timeout,498.053,38151.699999809,38140.977,38157.622,38639.065,38639.900000095004,2023-05-08T22:07:22Z,38655.675,Stimmung,kinyongo,d,kilekile,kisambo,madhehebu,NA,NA,0,NULL,NA,NA,NA,NA,NA,NA,NA,NA,NA,NA,NA,NA,NA,NA,NA,NA,NA,NA,NA
52000,deep,flow.Sequence,1_2_0,NA,NA,completion,11862.485,26762.400000095,26759.993,26776.58,38639.065,38640.300000191,2023-05-08T22:07:22Z,38655.675,Stimmung,kinyongo,d,kilekile,kisambo,madhehebu,NA,NA,NA,NULL,NA,NA,NA,NA,NA,NA,NA,NA,NA,NA,NA,NA,NA,NA,NA,NA,NA,NA,NA
52000,task,flow.Sequence,1_2,NA,NA,completion,11862.485,26762.300000191,26759.993,26776.58,38639.065,38640.5,2023-05-08T22:07:22Z,38655.675,Stimmung,kinyongo,d,kilekile,kisambo,madhehebu,NA,NA,NA,NULL,NA,NA,NA,NA,NA,NA,NA,NA,NA,NA,NA,NA,NA,NA,NA,NA,NA,NA,NA
52000,Deep Question,html.Page,1_3_0_0,NA,NA,form submission,7070.7250000954,38640.800000191,38639.065,38655.675,45726.400000095004,45727.199999809,2023-05-08T22:07:29Z,45741.261,Papier,karatasi,s,uchambuzi,usalama,kukataliwa,m,NA,NA,NULL,NA,NA,NA,NA,NA,NA,NA,NA,NA,NA,NA,NA,NA,NA,NA,NA,NA,NA,NA
52000,Save data screen,canvas.Screen,1_3_0_1,NA,NA,timeout,495.328,45728.900000095004,45712.433,45741.261,46219.997,46221.099999904996,2023-05-08T22:07:29Z,46236.589,Papier,karatasi,s,uchambuzi,usalama,kukataliwa,NA,NA,0,NULL,NA,NA,NA,NA,NA,NA,NA,NA,NA,NA,NA,NA,NA,NA,NA,NA,NA,NA,NA
52000,deep,flow.Sequence,1_3_0,NA,NA,completion,7564.322,38640.699999809,38639.065,38655.675,46219.997,46221.699999809,2023-05-08T22:07:29Z,46236.589,Papier,karatasi,s,uchambuzi,usalama,kukataliwa,NA,NA,NA,NULL,NA,NA,NA,NA,NA,NA,NA,NA,NA,NA,NA,NA,NA,NA,NA,NA,NA,NA,NA
52000,task,flow.Sequence,1_3,NA,NA,completion,7564.322,38640.599999904996,38639.065,38655.675,46219.997,46222,2023-05-08T22:07:29Z,46236.589,Papier,karatasi,s,uchambuzi,usalama,kukataliwa,NA,NA,NA,NULL,NA,NA,NA,NA,NA,NA,NA,NA,NA,NA,NA,NA,NA,NA,NA,NA,NA,NA,NA
52000,Deep Question,html.Page,1_4_0_0,NA,NA,form submission,6482.7110001907,46222.300000191,46219.997,46236.589,52719.300000191,52720.099999904996,2023-05-08T22:07:36Z,52733.793,Integrität,uadilifu,s,muungano,mtiririko,upunguaji,m,NA,NA,NULL,NA,NA,NA,NA,NA,NA,NA,NA,NA,NA,NA,NA,NA,NA,NA,NA,NA,NA,NA
52000,Save data screen,canvas.Screen,1_4_0_1,NA,NA,timeout,505.014,52722.099999904996,52716.037,52733.793,53222.172,53223.199999809,2023-05-08T22:07:36Z,53238.807,Integrität,uadilifu,s,muungano,mtiririko,upunguaji,NA,NA,0,NULL,NA,NA,NA,NA,NA,NA,NA,NA,NA,NA,NA,NA,NA,NA,NA,NA,NA,NA,NA
52000,deep,flow.Sequence,1_4_0,NA,NA,completion,6985.583,46222.199999809,46219.997,46236.589,53222.172,53223.599999904996,2023-05-08T22:07:36Z,53238.807,Integrität,uadilifu,s,muungano,mtiririko,upunguaji,NA,NA,NA,NULL,NA,NA,NA,NA,NA,NA,NA,NA,NA,NA,NA,NA,NA,NA,NA,NA,NA,NA,NA
52000,task,flow.Sequence,1_4,NA,NA,completion,6985.583,46222.199999809,46219.997,46236.589,53222.172,53223.900000095004,2023-05-08T22:07:36Z,53238.807,Integrität,uadilifu,s,muungano,mtiririko,upunguaji,NA,NA,NA,NULL,NA,NA,NA,NA,NA,NA,NA,NA,NA,NA,NA,NA,NA,NA,NA,NA,NA,NA,NA
52000,Deep Question,html.Page,1_5_0_0,NA,NA,form submission,5864.3929998093,53224.199999809,53222.172,53238.807,59103.199999809,59104.099999904996,2023-05-08T22:07:42Z,59117.632,Orientierung,urekebisho,s,uelekeo,marekebisho,utunzaji,m,NA,NA,NULL,NA,NA,NA,NA,NA,NA,NA,NA,NA,NA,NA,NA,NA,NA,NA,NA,NA,NA,NA
52000,Save data screen,canvas.Screen,1_5_0_1,NA,NA,timeout,504.379,59106.300000191,59091.549,59117.632,59605.35,59606.400000095004,2023-05-08T22:07:43Z,59622.011,Orientierung,urekebisho,s,uelekeo,marekebisho,utunzaji,NA,NA,0,NULL,NA,NA,NA,NA,NA,NA,NA,NA,NA,NA,NA,NA,NA,NA,NA,NA,NA,NA,NA
52000,deep,flow.Sequence,1_5_0,NA,NA,completion,6366.543,53224.199999809,53222.172,53238.807,59605.35,59606.900000095004,2023-05-08T22:07:43Z,59622.011,Orientierung,urekebisho,s,uelekeo,marekebisho,utunzaji,NA,NA,NA,NULL,NA,NA,NA,NA,NA,NA,NA,NA,NA,NA,NA,NA,NA,NA,NA,NA,NA,NA,NA
52000,task,flow.Sequence,1_5,NA,NA,completion,6366.543,53224.099999904996,53222.172,53238.807,59605.35,59607.199999809,2023-05-08T22:07:43Z,59622.011,Orientierung,urekebisho,s,uelekeo,marekebisho,utunzaji,NA,NA,NA,NULL,NA,NA,NA,NA,NA,NA,NA,NA,NA,NA,NA,NA,NA,NA,NA,NA,NA,NA,NA
52000,Deep Question,html.Page,1_6_0_0,NA,NA,form submission,9325.2890001907,59607.5,59605.35,59622.011,68947.300000191,68948.199999809,2023-05-08T22:07:52Z,68962.031,Begegnung,kukutana,d,mmasihiya,mpiganaji,husiano,kki,NA,NA,NULL,NA,NA,NA,NA,NA,NA,NA,NA,NA,NA,NA,NA,NA,NA,NA,NA,NA,NA,NA
52000,Save data screen,canvas.Screen,1_6_0_1,NA,NA,timeout,502.401,68954.800000191,68929.755,68962.031,69447.74,69448.400000095,2023-05-08T22:07:53Z,69464.432,Begegnung,kukutana,d,mmasihiya,mpiganaji,husiano,NA,NA,0,NULL,NA,NA,NA,NA,NA,NA,NA,NA,NA,NA,NA,NA,NA,NA,NA,NA,NA,NA,NA
52000,deep,flow.Sequence,1_6_0,NA,NA,completion,9825.729,59607.400000095004,59605.35,59622.011,69447.74,69448.699999809,2023-05-08T22:07:53Z,69464.432,Begegnung,kukutana,d,mmasihiya,mpiganaji,husiano,NA,NA,NA,NULL,NA,NA,NA,NA,NA,NA,NA,NA,NA,NA,NA,NA,NA,NA,NA,NA,NA,NA,NA
52000,task,flow.Sequence,1_6,NA,NA,completion,9825.729,59607.300000191,59605.35,59622.011,69447.74,69448.900000095,2023-05-08T22:07:53Z,69464.432,Begegnung,kukutana,d,mmasihiya,mpiganaji,husiano,NA,NA,NA,NULL,NA,NA,NA,NA,NA,NA,NA,NA,NA,NA,NA,NA,NA,NA,NA,NA,NA,NA,NA
52000,Deep Question,html.Page,1_7_0_0,NA,NA,form submission,5658.2679998093,69449.099999905,69447.74,69464.432,75122.699999809,75123.5,2023-05-08T22:07:58Z,75137.675,Erneuerung,ukarabati,s,ushawishi,ukalifu,unyonyaji,m,NA,NA,NULL,NA,NA,NA,NA,NA,NA,NA,NA,NA,NA,NA,NA,NA,NA,NA,NA,NA,NA,NA
52000,Save data screen,canvas.Screen,1_7_0_1,NA,NA,timeout,505.443,75129.599999905,75111.342,75137.675,75626.414,75627.400000095,2023-05-08T22:07:59Z,75643.118,Erneuerung,ukarabati,s,ushawishi,ukalifu,unyonyaji,NA,NA,0,NULL,NA,NA,NA,NA,NA,NA,NA,NA,NA,NA,NA,NA,NA,NA,NA,NA,NA,NA,NA
52000,deep,flow.Sequence,1_7_0,NA,NA,completion,6161.982,69449.099999905,69447.74,69464.432,75626.414,75627.900000095,2023-05-08T22:07:59Z,75643.118,Erneuerung,ukarabati,s,ushawishi,ukalifu,unyonyaji,NA,NA,NA,NULL,NA,NA,NA,NA,NA,NA,NA,NA,NA,NA,NA,NA,NA,NA,NA,NA,NA,NA,NA
52000,task,flow.Sequence,1_7,NA,NA,completion,6161.982,69449,69447.74,69464.432,75626.414,75628.199999809,2023-05-08T22:07:59Z,75643.118,Erneuerung,ukarabati,s,ushawishi,ukalifu,unyonyaji,NA,NA,NA,NULL,NA,NA,NA,NA,NA,NA,NA,NA,NA,NA,NA,NA,NA,NA,NA,NA,NA,NA,NA
52000,Deep Question,html.Page,1_8_0_0,NA,NA,form submission,18881.882,75628.5,75626.414,75643.118,94525,94525.699999809,2023-05-08T22:08:18Z,94539.997,Betrüger,mdanganyifu,d,mwanamuziki,wastani,mahakama,mdangayfu,NA,NA,NULL,NA,NA,NA,NA,NA,NA,NA,NA,NA,NA,NA,NA,NA,NA,NA,NA,NA,NA,NA
52000,Save data screen,canvas.Screen,1_8_0_1,NA,NA,timeout,501.61599999999,94531.300000191,94511.761,94539.997,95025.292,95026.300000191,2023-05-08T22:08:18Z,95041.613,Betrüger,mdanganyifu,d,mwanamuziki,wastani,mahakama,NA,NA,0,NULL,NA,NA,NA,NA,NA,NA,NA,NA,NA,NA,NA,NA,NA,NA,NA,NA,NA,NA,NA
52000,deep,flow.Sequence,1_8_0,NA,NA,completion,19382.174,75628.400000095,75626.414,75643.118,95025.292,95026.699999809,2023-05-08T22:08:18Z,95041.613,Betrüger,mdanganyifu,d,mwanamuziki,wastani,mahakama,NA,NA,NA,NULL,NA,NA,NA,NA,NA,NA,NA,NA,NA,NA,NA,NA,NA,NA,NA,NA,NA,NA,NA
52000,task,flow.Sequence,1_8,NA,NA,completion,19382.174,75628.300000191,75626.414,75643.118,95025.292,95027.099999905,2023-05-08T22:08:18Z,95041.613,Betrüger,mdanganyifu,d,mwanamuziki,wastani,mahakama,NA,NA,NA,NULL,NA,NA,NA,NA,NA,NA,NA,NA,NA,NA,NA,NA,NA,NA,NA,NA,NA,NA,NA
52000,Deep Question,html.Page,1_9_0_0,NA,NA,form submission,4923.5869998093,95027.300000191,95025.292,95041.613,99965.199999809,99965.900000095,2023-05-08T22:08:23Z,99980.078,Respekt,heshima,s,changamnao,upinzani,ufanisi,k,NA,NA,NULL,NA,NA,NA,NA,NA,NA,NA,NA,NA,NA,NA,NA,NA,NA,NA,NA,NA,NA,NA
52000,Save data screen,canvas.Screen,1_9_0_1,NA,NA,timeout,503.69900000001,99971.099999905,99957.031,99980.078,100467.172,100468.0999999,2023-05-08T22:08:24Z,100483.777,Respekt,heshima,s,changamnao,upinzani,ufanisi,NA,NA,0,NULL,NA,NA,NA,NA,NA,NA,NA,NA,NA,NA,NA,NA,NA,NA,NA,NA,NA,NA,NA
52000,deep,flow.Sequence,1_9_0,NA,NA,completion,5425.559,95027.300000191,95025.292,95041.613,100467.172,100468.69999980999,2023-05-08T22:08:24Z,100483.777,Respekt,heshima,s,changamnao,upinzani,ufanisi,NA,NA,NA,NULL,NA,NA,NA,NA,NA,NA,NA,NA,NA,NA,NA,NA,NA,NA,NA,NA,NA,NA,NA
52000,task,flow.Sequence,1_9,NA,NA,completion,5425.559,95027.300000191,95025.292,95041.613,100467.172,100469.0999999,2023-05-08T22:08:24Z,100483.777,Respekt,heshima,s,changamnao,upinzani,ufanisi,NA,NA,NA,NULL,NA,NA,NA,NA,NA,NA,NA,NA,NA,NA,NA,NA,NA,NA,NA,NA,NA,NA,NA
52000,Deep Question,html.Page,1_10_0_0,NA,NA,form submission,10101.623000095,100469.30000019001,100467.172,100483.777,110585.4000001,110586.19999980999,2023-05-08T22:08:34Z,110600.431,Wechsel,ugeuzaji,s,utambulisho,kujenga,wasiwasi,maendala,NA,NA,NULL,NA,NA,NA,NA,NA,NA,NA,NA,NA,NA,NA,NA,NA,NA,NA,NA,NA,NA,NA
52000,Save data screen,canvas.Screen,1_10_0_1,NA,NA,timeout,491.98700000001,110591.69999981,110581.442,110600.431,111076.074,111077.19999981,2023-05-08T22:08:34Z,111092.418,Wechsel,ugeuzaji,s,utambulisho,kujenga,wasiwasi,NA,NA,0,NULL,NA,NA,NA,NA,NA,NA,NA,NA,NA,NA,NA,NA,NA,NA,NA,NA,NA,NA,NA
52000,deep,flow.Sequence,1_10_0,NA,NA,completion,10592.297,100469.30000019001,100467.172,100483.777,111076.074,111077.5,2023-05-08T22:08:34Z,111092.418,Wechsel,ugeuzaji,s,utambulisho,kujenga,wasiwasi,NA,NA,NA,NULL,NA,NA,NA,NA,NA,NA,NA,NA,NA,NA,NA,NA,NA,NA,NA,NA,NA,NA,NA
52000,task,flow.Sequence,1_10,NA,NA,completion,10592.297,100469.19999981,100467.172,100483.777,111076.074,111077.80000019001,2023-05-08T22:08:34Z,111092.418,Wechsel,ugeuzaji,s,utambulisho,kujenga,wasiwasi,NA,NA,NA,NULL,NA,NA,NA,NA,NA,NA,NA,NA,NA,NA,NA,NA,NA,NA,NA,NA,NA,NA,NA
52000,Deep Question,html.Page,1_11_0_0,NA,NA,form submission,9376.4820000954,111078.0999999,111076.074,111092.418,120468.9000001,120469.5999999,2023-05-08T22:08:44Z,120484.004,Atmosphäre,angahewa,d,kuteseka,usahihi,kutoamini,angahawe,NA,NA,NULL,NA,NA,NA,NA,NA,NA,NA,NA,NA,NA,NA,NA,NA,NA,NA,NA,NA,NA,NA
52000,Save data screen,canvas.Screen,1_11_0_1,NA,NA,timeout,504.72899999999,120475.0999999,120467.176,120484.004,120972.099,120973.0999999,2023-05-08T22:08:44Z,120988.733,Atmosphäre,angahewa,d,kuteseka,usahihi,kutoamini,NA,NA,0,NULL,NA,NA,NA,NA,NA,NA,NA,NA,NA,NA,NA,NA,NA,NA,NA,NA,NA,NA,NA
52000,deep,flow.Sequence,1_11_0,NA,NA,completion,9879.681,111078.0999999,111076.074,111092.418,120972.099,120973.5,2023-05-08T22:08:44Z,120988.733,Atmosphäre,angahewa,d,kuteseka,usahihi,kutoamini,NA,NA,NA,NULL,NA,NA,NA,NA,NA,NA,NA,NA,NA,NA,NA,NA,NA,NA,NA,NA,NA,NA,NA
52000,task,flow.Sequence,1_11,NA,NA,completion,9879.681,111078,111076.074,111092.418,120972.099,120973.80000019001,2023-05-08T22:08:44Z,120988.733,Atmosphäre,angahewa,d,kuteseka,usahihi,kutoamini,NA,NA,NA,NULL,NA,NA,NA,NA,NA,NA,NA,NA,NA,NA,NA,NA,NA,NA,NA,NA,NA,NA,NA
52000,Deep Question,html.Page,1_12_0_0,NA,NA,form submission,7569.3669999046,120974.0999999,120972.099,120988.733,128558.0999999,128558.80000019001,2023-05-08T22:08:52Z,128569.438,Niveau,kiwango,s,usimamizi,mwamali,mshairi,m,NA,NA,NULL,NA,NA,NA,NA,NA,NA,NA,NA,NA,NA,NA,NA,NA,NA,NA,NA,NA,NA,NA
52000,Save data screen,canvas.Screen,1_12_0_1,NA,NA,timeout,497.795,128564,128547.971,128569.438,129050.598,129051.0999999,2023-05-08T22:08:52Z,129067.233,Niveau,kiwango,s,usimamizi,mwamali,mshairi,NA,NA,0,NULL,NA,NA,NA,NA,NA,NA,NA,NA,NA,NA,NA,NA,NA,NA,NA,NA,NA,NA,NA
52000,deep,flow.Sequence,1_12_0,NA,NA,completion,8061.865,120974.0999999,120972.099,120988.733,129050.598,129051.4000001,2023-05-08T22:08:52Z,129067.233,Niveau,kiwango,s,usimamizi,mwamali,mshairi,NA,NA,NA,NULL,NA,NA,NA,NA,NA,NA,NA,NA,NA,NA,NA,NA,NA,NA,NA,NA,NA,NA,NA
52000,task,flow.Sequence,1_12,NA,NA,completion,8061.865,120974,120972.099,120988.733,129050.598,129051.5999999,2023-05-08T22:08:52Z,129067.233,Niveau,kiwango,s,usimamizi,mwamali,mshairi,NA,NA,NA,NULL,NA,NA,NA,NA,NA,NA,NA,NA,NA,NA,NA,NA,NA,NA,NA,NA,NA,NA,NA
52000,Deep Question,html.Page,1_13_0_0,NA,NA,form submission,8821.1670000954,129051.69999981,129050.598,129067.233,137888.4000001,137889.19999981,2023-05-08T22:09:01Z,137902.641,Fleisch,mshakiki,s,kizunguzungu,mshikamano,angusho,mhanga,NA,NA,NULL,NA,NA,NA,NA,NA,NA,NA,NA,NA,NA,NA,NA,NA,NA,NA,NA,NA,NA,NA
52000,Save data screen,canvas.Screen,1_13_0_1,NA,NA,timeout,501.568,137895.30000019,137884.514,137902.641,138387.524,138388.30000019,2023-05-08T22:09:01Z,138404.209,Fleisch,mshakiki,s,kizunguzungu,mshikamano,angusho,NA,NA,0,NULL,NA,NA,NA,NA,NA,NA,NA,NA,NA,NA,NA,NA,NA,NA,NA,NA,NA,NA,NA
52000,deep,flow.Sequence,1_13_0,NA,NA,completion,9320.291,129051.69999981,129050.598,129067.233,138387.524,138388.5999999,2023-05-08T22:09:01Z,138404.209,Fleisch,mshakiki,s,kizunguzungu,mshikamano,angusho,NA,NA,NA,NULL,NA,NA,NA,NA,NA,NA,NA,NA,NA,NA,NA,NA,NA,NA,NA,NA,NA,NA,NA
52000,task,flow.Sequence,1_13,NA,NA,completion,9320.291,129051.69999981,129050.598,129067.233,138387.524,138388.9000001,2023-05-08T22:09:01Z,138404.209,Fleisch,mshakiki,s,kizunguzungu,mshikamano,angusho,NA,NA,NA,NULL,NA,NA,NA,NA,NA,NA,NA,NA,NA,NA,NA,NA,NA,NA,NA,NA,NA,NA,NA
52000,Deep Question,html.Page,1_14_0_0,NA,NA,form submission,5806.291,138389.0999999,138387.524,138404.209,144210.5,144211.19999981,2023-05-08T22:09:07Z,144225.53,Entwicklung,maendeleo,d,uangavu,mshindwa,badiliko,m,NA,NA,NULL,NA,NA,NA,NA,NA,NA,NA,NA,NA,NA,NA,NA,NA,NA,NA,NA,NA,NA,NA
52000,Save data screen,canvas.Screen,1_14_0_1,NA,NA,timeout,506.66899999999,144216.4000001,144200.177,144225.53,144715.887,144716.9000001,2023-05-08T22:09:08Z,144732.199,Entwicklung,maendeleo,d,uangavu,mshindwa,badiliko,NA,NA,0,NULL,NA,NA,NA,NA,NA,NA,NA,NA,NA,NA,NA,NA,NA,NA,NA,NA,NA,NA,NA
52000,deep,flow.Sequence,1_14_0,NA,NA,completion,6311.678,138389.0999999,138387.524,138404.209,144715.887,144717.30000019,2023-05-08T22:09:08Z,144732.199,Entwicklung,maendeleo,d,uangavu,mshindwa,badiliko,NA,NA,NA,NULL,NA,NA,NA,NA,NA,NA,NA,NA,NA,NA,NA,NA,NA,NA,NA,NA,NA,NA,NA
52000,task,flow.Sequence,1_14,NA,NA,completion,6311.678,138389,138387.524,138404.209,144715.887,144717.5999999,2023-05-08T22:09:08Z,144732.199,Entwicklung,maendeleo,d,uangavu,mshindwa,badiliko,NA,NA,NA,NULL,NA,NA,NA,NA,NA,NA,NA,NA,NA,NA,NA,NA,NA,NA,NA,NA,NA,NA,NA
52000,Deep Question,html.Page,1_15_0_0,NA,NA,form submission,9864.7010000954,144717.9000001,144715.887,144732.199,154596.9000001,154597.5999999,2023-05-08T22:09:18Z,154611.516,Flexibilität,kubadilika,d,enjini,usikilivu,hesabu,kubaliwa,NA,NA,NULL,NA,NA,NA,NA,NA,NA,NA,NA,NA,NA,NA,NA,NA,NA,NA,NA,NA,NA,NA
52000,Save data screen,canvas.Screen,1_15_0_1,NA,NA,timeout,502.538,154603,154593.398,154611.516,155097.431,155098.30000019,2023-05-08T22:09:18Z,155114.054,Flexibilität,kubadilika,d,enjini,usikilivu,hesabu,NA,NA,0,NULL,NA,NA,NA,NA,NA,NA,NA,NA,NA,NA,NA,NA,NA,NA,NA,NA,NA,NA,NA
52000,deep,flow.Sequence,1_15_0,NA,NA,completion,10365.232,144717.80000019,144715.887,144732.199,155097.431,155098.69999981,2023-05-08T22:09:18Z,155114.054,Flexibilität,kubadilika,d,enjini,usikilivu,hesabu,NA,NA,NA,NULL,NA,NA,NA,NA,NA,NA,NA,NA,NA,NA,NA,NA,NA,NA,NA,NA,NA,NA,NA
52000,task,flow.Sequence,1_15,NA,NA,completion,10365.232,144717.69999981,144715.887,144732.199,155097.431,155099,2023-05-08T22:09:18Z,155114.054,Flexibilität,kubadilika,d,enjini,usikilivu,hesabu,NA,NA,NA,NULL,NA,NA,NA,NA,NA,NA,NA,NA,NA,NA,NA,NA,NA,NA,NA,NA,NA,NA,NA
52000,retrieval block 1 (cued recall),flow.Loop,1,NA,NA,completion,152352.217,2735.9000000954,2728.498,2745.214,155097.431,155099.5,2023-05-08T22:09:18Z,155114.054,NA,NA,NA,NA,NA,NA,NA,NA,NA,NULL,NA,NA,NA,NA,NA,NA,NA,NA,NA,NA,NA,NA,NA,NA,NA,NA,NA,NA,NA
52000,Shallow Question,html.Page,2_0_0_0,NA,NA,form submission,5397.446,155099.80000019,155097.431,155114.054,160511.5,160512,2023-05-08T22:09:24Z,160526.92,Niveau,kiwango,s,usimamizi,mwamali,mshairi,usimamizi,NA,NA,"c(""distractor1"", ""distractor2"", ""distractor3"")",NA,NA,NA,NA,NA,NA,NA,NA,NA,NA,NA,NA,NA,NA,NA,NA,NA,NA,NA
52000,Save data screen,canvas.Screen,2_0_0_1,NA,NA,timeout,499.52599999998,160515.30000019,160508.603,160526.92,161009.946,161011,2023-05-08T22:09:24Z,161026.446,Niveau,kiwango,s,usimamizi,mwamali,mshairi,NA,NA,0,"c(""distractor1"", ""distractor2"", ""distractor3"")",NA,NA,NA,NA,NA,NA,NA,NA,NA,NA,NA,NA,NA,NA,NA,NA,NA,NA,NA
52000,shallow,flow.Sequence,2_0_0,NA,NA,completion,5895.892,155099.80000019,155097.431,155114.054,161009.946,161011.5,2023-05-08T22:09:24Z,161026.446,Niveau,kiwango,s,usimamizi,mwamali,mshairi,NA,NA,NA,"c(""distractor1"", ""distractor2"", ""distractor3"")",NA,NA,NA,NA,NA,NA,NA,NA,NA,NA,NA,NA,NA,NA,NA,NA,NA,NA,NA
52000,task,flow.Sequence,2_0,NA,NA,completion,5895.892,155099.80000019,155097.431,155114.054,161009.946,161011.80000019,2023-05-08T22:09:24Z,161026.446,Niveau,kiwango,s,usimamizi,mwamali,mshairi,NA,NA,NA,"c(""distractor1"", ""distractor2"", ""distractor3"")",NA,NA,NA,NA,NA,NA,NA,NA,NA,NA,NA,NA,NA,NA,NA,NA,NA,NA,NA
52000,Shallow Question,html.Page,2_1_0_0,NA,NA,form submission,6368.554,161012.19999981,161009.946,161026.446,167395,167395.4000001,2023-05-08T22:09:30Z,167410.942,Erneuerung,ukarabati,s,ushawishi,ukalifu,unyonyaji,ukalifu,NA,NA,"c(""distractor1"", ""distractor2"", ""distractor3"")",NA,NA,NA,NA,NA,NA,NA,NA,NA,NA,NA,NA,NA,NA,NA,NA,NA,NA,NA
52000,Save data screen,canvas.Screen,2_1_0_1,NA,NA,timeout,497.62999999998,167398.5999999,167384.994,167410.942,167892.186,167893.19999981,2023-05-08T22:09:31Z,167908.572,Erneuerung,ukarabati,s,ushawishi,ukalifu,unyonyaji,NA,NA,0,"c(""distractor1"", ""distractor2"", ""distractor3"")",NA,NA,NA,NA,NA,NA,NA,NA,NA,NA,NA,NA,NA,NA,NA,NA,NA,NA,NA
52000,shallow,flow.Sequence,2_1_0,NA,NA,completion,6865.74,161012.0999999,161009.946,161026.446,167892.186,167893.5999999,2023-05-08T22:09:31Z,167908.572,Erneuerung,ukarabati,s,ushawishi,ukalifu,unyonyaji,NA,NA,NA,"c(""distractor1"", ""distractor2"", ""distractor3"")",NA,NA,NA,NA,NA,NA,NA,NA,NA,NA,NA,NA,NA,NA,NA,NA,NA,NA,NA
52000,task,flow.Sequence,2_1,NA,NA,completion,6865.74,161012,161009.946,161026.446,167892.186,167893.80000019,2023-05-08T22:09:31Z,167908.572,Erneuerung,ukarabati,s,ushawishi,ukalifu,unyonyaji,NA,NA,NA,"c(""distractor1"", ""distractor2"", ""distractor3"")",NA,NA,NA,NA,NA,NA,NA,NA,NA,NA,NA,NA,NA,NA,NA,NA,NA,NA,NA
52000,Shallow Question,html.Page,2_2_0_0,NA,NA,form submission,6007.2280001907,167894.0999999,167892.186,167908.572,173915.80000019,173916.0999999,2023-05-08T22:09:37Z,173934.918,Papier,karatasi,s,uchambuzi,usalama,kukataliwa,karatasi,NA,NA,"c(""distractor1"", ""distractor2"", ""distractor3"")",NA,NA,NA,NA,NA,NA,NA,NA,NA,NA,NA,NA,NA,NA,NA,NA,NA,NA,NA
52000,Save data screen,canvas.Screen,2_2_0_1,NA,NA,timeout,506.66999999998,173917.80000019,173900.537,173934.918,174425.234,174426.19999981,2023-05-08T22:09:38Z,174441.588,Papier,karatasi,s,uchambuzi,usalama,kukataliwa,NA,NA,1,"c(""distractor1"", ""distractor2"", ""distractor3"")",NA,NA,NA,NA,NA,NA,NA,NA,NA,NA,NA,NA,NA,NA,NA,NA,NA,NA,NA
52000,shallow,flow.Sequence,2_2_0,NA,NA,completion,6516.662,167894,167892.186,167908.572,174425.234,174426.5999999,2023-05-08T22:09:38Z,174441.588,Papier,karatasi,s,uchambuzi,usalama,kukataliwa,NA,NA,NA,"c(""distractor1"", ""distractor2"", ""distractor3"")",NA,NA,NA,NA,NA,NA,NA,NA,NA,NA,NA,NA,NA,NA,NA,NA,NA,NA,NA
52000,task,flow.Sequence,2_2,NA,NA,completion,6516.662,167894,167892.186,167908.572,174425.234,174426.9000001,2023-05-08T22:09:38Z,174441.588,Papier,karatasi,s,uchambuzi,usalama,kukataliwa,NA,NA,NA,"c(""distractor1"", ""distractor2"", ""distractor3"")",NA,NA,NA,NA,NA,NA,NA,NA,NA,NA,NA,NA,NA,NA,NA,NA,NA,NA,NA
52000,Shallow Question,html.Page,2_3_0_0,NA,NA,form submission,6377.1119998093,174427.19999981,174425.234,174441.588,180818.69999981,180819.5,2023-05-08T22:09:44Z,180833.611,Vorwurf,mashtaka,d,msukumo,mtangulizi,uenyekiti,mashtaka,NA,NA,"c(""distractor1"", ""distractor2"", ""distractor3"")",NA,NA,NA,NA,NA,NA,NA,NA,NA,NA,NA,NA,NA,NA,NA,NA,NA,NA,NA
52000,Save data screen,canvas.Screen,2_3_0_1,NA,NA,timeout,505.32000000001,180824.69999981,180813.935,180833.611,181322.284,181323.30000019,2023-05-08T22:09:44Z,181338.931,Vorwurf,mashtaka,d,msukumo,mtangulizi,uenyekiti,NA,NA,1,"c(""distractor1"", ""distractor2"", ""distractor3"")",NA,NA,NA,NA,NA,NA,NA,NA,NA,NA,NA,NA,NA,NA,NA,NA,NA,NA,NA
52000,shallow,flow.Sequence,2_3_0,NA,NA,completion,6880.696,174427.19999981,174425.234,174441.588,181322.284,181323.69999981,2023-05-08T22:09:44Z,181338.931,Vorwurf,mashtaka,d,msukumo,mtangulizi,uenyekiti,NA,NA,NA,"c(""distractor1"", ""distractor2"", ""distractor3"")",NA,NA,NA,NA,NA,NA,NA,NA,NA,NA,NA,NA,NA,NA,NA,NA,NA,NA,NA
52000,task,flow.Sequence,2_3,NA,NA,completion,6880.696,174427.0999999,174425.234,174441.588,181322.284,181324,2023-05-08T22:09:44Z,181338.931,Vorwurf,mashtaka,d,msukumo,mtangulizi,uenyekiti,NA,NA,NA,"c(""distractor1"", ""distractor2"", ""distractor3"")",NA,NA,NA,NA,NA,NA,NA,NA,NA,NA,NA,NA,NA,NA,NA,NA,NA,NA,NA
52000,Shallow Question,html.Page,2_4_0_0,NA,NA,form submission,7082.6689999046,181324.30000019,181322.284,181338.931,188421.5999999,188422.30000019,2023-05-08T22:09:52Z,188436.404,Flexibilität,kubadilika,d,enjini,usikilivu,hesabu,kubadilika,NA,NA,"c(""distractor1"", ""distractor2"", ""distractor3"")",NA,NA,NA,NA,NA,NA,NA,NA,NA,NA,NA,NA,NA,NA,NA,NA,NA,NA,NA
52000,Save data screen,canvas.Screen,2_4_0_1,NA,NA,timeout,498.71599999999,188426.69999981,188414.676,188436.404,188918.527,188919.5999999,2023-05-08T22:09:52Z,188935.12,Flexibilität,kubadilika,d,enjini,usikilivu,hesabu,NA,NA,1,"c(""distractor1"", ""distractor2"", ""distractor3"")",NA,NA,NA,NA,NA,NA,NA,NA,NA,NA,NA,NA,NA,NA,NA,NA,NA,NA,NA
52000,shallow,flow.Sequence,2_4_0,NA,NA,completion,7579.596,181324.30000019,181322.284,181338.931,188918.527,188919.9000001,2023-05-08T22:09:52Z,188935.12,Flexibilität,kubadilika,d,enjini,usikilivu,hesabu,NA,NA,NA,"c(""distractor1"", ""distractor2"", ""distractor3"")",NA,NA,NA,NA,NA,NA,NA,NA,NA,NA,NA,NA,NA,NA,NA,NA,NA,NA,NA
52000,task,flow.Sequence,2_4,NA,NA,completion,7579.596,181324.19999981,181322.284,181338.931,188918.527,188920.19999981,2023-05-08T22:09:52Z,188935.12,Flexibilität,kubadilika,d,enjini,usikilivu,hesabu,NA,NA,NA,"c(""distractor1"", ""distractor2"", ""distractor3"")",NA,NA,NA,NA,NA,NA,NA,NA,NA,NA,NA,NA,NA,NA,NA,NA,NA,NA,NA
52000,Shallow Question,html.Page,2_5_0_0,NA,NA,form submission,7088.0799998093,188920.5,188918.527,188935.12,196023.19999981,196024,2023-05-08T22:09:59Z,196038.075,Orientierung,urekebisho,s,uelekeo,marekebisho,utunzaji,urekebisho,NA,NA,"c(""distractor1"", ""distractor2"", ""distractor3"")",NA,NA,NA,NA,NA,NA,NA,NA,NA,NA,NA,NA,NA,NA,NA,NA,NA,NA,NA
52000,Save data screen,canvas.Screen,2_5_0_1,NA,NA,timeout,505.277,196029.4000001,196018.156,196038.075,196526.752,196527.5999999,2023-05-08T22:10:00Z,196543.352,Orientierung,urekebisho,s,uelekeo,marekebisho,utunzaji,NA,NA,1,"c(""distractor1"", ""distractor2"", ""distractor3"")",NA,NA,NA,NA,NA,NA,NA,NA,NA,NA,NA,NA,NA,NA,NA,NA,NA,NA,NA
52000,shallow,flow.Sequence,2_5_0,NA,NA,completion,7591.632,188920.5,188918.527,188935.12,196526.752,196528,2023-05-08T22:10:00Z,196543.352,Orientierung,urekebisho,s,uelekeo,marekebisho,utunzaji,NA,NA,NA,"c(""distractor1"", ""distractor2"", ""distractor3"")",NA,NA,NA,NA,NA,NA,NA,NA,NA,NA,NA,NA,NA,NA,NA,NA,NA,NA,NA
52000,task,flow.Sequence,2_5,NA,NA,completion,7591.632,188920.4000001,188918.527,188935.12,196526.752,196528.30000019,2023-05-08T22:10:00Z,196543.352,Orientierung,urekebisho,s,uelekeo,marekebisho,utunzaji,NA,NA,NA,"c(""distractor1"", ""distractor2"", ""distractor3"")",NA,NA,NA,NA,NA,NA,NA,NA,NA,NA,NA,NA,NA,NA,NA,NA,NA,NA,NA
52000,Shallow Question,html.Page,2_6_0_0,NA,NA,form submission,7783.5480000954,196528.5999999,196526.752,196543.352,204326.9000001,204327.5999999,2023-05-08T22:10:07Z,204341.939,Betrüger,mdanganyifu,d,mwanamuziki,wastani,mahakama,mdanganyifu,NA,NA,"c(""distractor1"", ""distractor2"", ""distractor3"")",NA,NA,NA,NA,NA,NA,NA,NA,NA,NA,NA,NA,NA,NA,NA,NA,NA,NA,NA
52000,Save data screen,canvas.Screen,2_6_0_1,NA,NA,timeout,497.56499999997,204332.9000001,204309.57,204341.939,204822.869,204823.80000019,2023-05-08T22:10:08Z,204839.504,Betrüger,mdanganyifu,d,mwanamuziki,wastani,mahakama,NA,NA,1,"c(""distractor1"", ""distractor2"", ""distractor3"")",NA,NA,NA,NA,NA,NA,NA,NA,NA,NA,NA,NA,NA,NA,NA,NA,NA,NA,NA
52000,shallow,flow.Sequence,2_6_0,NA,NA,completion,8279.517,196528.5,196526.752,196543.352,204822.869,204824.19999981,2023-05-08T22:10:08Z,204839.504,Betrüger,mdanganyifu,d,mwanamuziki,wastani,mahakama,NA,NA,NA,"c(""distractor1"", ""distractor2"", ""distractor3"")",NA,NA,NA,NA,NA,NA,NA,NA,NA,NA,NA,NA,NA,NA,NA,NA,NA,NA,NA
52000,task,flow.Sequence,2_6,NA,NA,completion,8279.517,196528.5,196526.752,196543.352,204822.869,204824.5,2023-05-08T22:10:08Z,204839.504,Betrüger,mdanganyifu,d,mwanamuziki,wastani,mahakama,NA,NA,NA,"c(""distractor1"", ""distractor2"", ""distractor3"")",NA,NA,NA,NA,NA,NA,NA,NA,NA,NA,NA,NA,NA,NA,NA,NA,NA,NA,NA
52000,Shallow Question,html.Page,2_7_0_0,NA,NA,form submission,6008.6959998093,204824.9000001,204822.869,204839.504,210848.19999981,210848.9000001,2023-05-08T22:10:14Z,210863.231,Begegnung,kukutana,d,mmasihiya,mpiganaji,husiano,kukutana,NA,NA,"c(""distractor1"", ""distractor2"", ""distractor3"")",NA,NA,NA,NA,NA,NA,NA,NA,NA,NA,NA,NA,NA,NA,NA,NA,NA,NA,NA
52000,Save data screen,canvas.Screen,2_7_0_1,NA,NA,timeout,504.978,210854.19999981,210840.154,210863.231,211351.357,211352.30000019,2023-05-08T22:10:14Z,211368.209,Begegnung,kukutana,d,mmasihiya,mpiganaji,husiano,NA,NA,1,"c(""distractor1"", ""distractor2"", ""distractor3"")",NA,NA,NA,NA,NA,NA,NA,NA,NA,NA,NA,NA,NA,NA,NA,NA,NA,NA,NA
52000,shallow,flow.Sequence,2_7_0,NA,NA,completion,6511.853,204824.80000019,204822.869,204839.504,211351.357,211352.80000019,2023-05-08T22:10:14Z,211368.209,Begegnung,kukutana,d,mmasihiya,mpiganaji,husiano,NA,NA,NA,"c(""distractor1"", ""distractor2"", ""distractor3"")",NA,NA,NA,NA,NA,NA,NA,NA,NA,NA,NA,NA,NA,NA,NA,NA,NA,NA,NA
52000,task,flow.Sequence,2_7,NA,NA,completion,6511.853,204824.69999981,204822.869,204839.504,211351.357,211353.30000019,2023-05-08T22:10:14Z,211368.209,Begegnung,kukutana,d,mmasihiya,mpiganaji,husiano,NA,NA,NA,"c(""distractor1"", ""distractor2"", ""distractor3"")",NA,NA,NA,NA,NA,NA,NA,NA,NA,NA,NA,NA,NA,NA,NA,NA,NA,NA,NA
52000,Shallow Question,html.Page,2_8_0_0,NA,NA,form submission,5688.6910000954,211353.5,211351.357,211368.209,217056.9000001,217057.5,2023-05-08T22:10:20Z,217071.874,Entwicklung,maendeleo,d,uangavu,mshindwa,badiliko,maendeleo,NA,NA,"c(""distractor1"", ""distractor2"", ""distractor3"")",NA,NA,NA,NA,NA,NA,NA,NA,NA,NA,NA,NA,NA,NA,NA,NA,NA,NA,NA
52000,Save data screen,canvas.Screen,2_8_0_1,NA,NA,timeout,492.45499999999,217062.5,217048.208,217071.874,217547.969,217548.9000001,2023-05-08T22:10:21Z,217564.329,Entwicklung,maendeleo,d,uangavu,mshindwa,badiliko,NA,NA,1,"c(""distractor1"", ""distractor2"", ""distractor3"")",NA,NA,NA,NA,NA,NA,NA,NA,NA,NA,NA,NA,NA,NA,NA,NA,NA,NA,NA
52000,shallow,flow.Sequence,2_8_0,NA,NA,completion,6179.76,211353.4000001,211351.357,211368.209,217547.969,217549.30000019,2023-05-08T22:10:21Z,217564.329,Entwicklung,maendeleo,d,uangavu,mshindwa,badiliko,NA,NA,NA,"c(""distractor1"", ""distractor2"", ""distractor3"")",NA,NA,NA,NA,NA,NA,NA,NA,NA,NA,NA,NA,NA,NA,NA,NA,NA,NA,NA
52000,task,flow.Sequence,2_8,NA,NA,completion,6179.76,211353.4000001,211351.357,211368.209,217547.969,217549.69999981,2023-05-08T22:10:21Z,217564.329,Entwicklung,maendeleo,d,uangavu,mshindwa,badiliko,NA,NA,NA,"c(""distractor1"", ""distractor2"", ""distractor3"")",NA,NA,NA,NA,NA,NA,NA,NA,NA,NA,NA,NA,NA,NA,NA,NA,NA,NA,NA
52000,Shallow Question,html.Page,2_9_0_0,NA,NA,form submission,6038.0710000954,217550,217547.969,217564.329,223602.4000001,223603.30000019,2023-05-08T22:10:27Z,223616.962,Fleisch,mshakiki,s,kizunguzungu,mshikamano,angusho,mshakiki,NA,NA,"c(""distractor1"", ""distractor2"", ""distractor3"")",NA,NA,NA,NA,NA,NA,NA,NA,NA,NA,NA,NA,NA,NA,NA,NA,NA,NA,NA
52000,Save data screen,canvas.Screen,2_9_0_1,NA,NA,timeout,500.61499999999,223609.5,223596.845,223616.962,224100.926,224101.9000001,2023-05-08T22:10:27Z,224117.577,Fleisch,mshakiki,s,kizunguzungu,mshikamano,angusho,NA,NA,1,"c(""distractor1"", ""distractor2"", ""distractor3"")",NA,NA,NA,NA,NA,NA,NA,NA,NA,NA,NA,NA,NA,NA,NA,NA,NA,NA,NA
52000,shallow,flow.Sequence,2_9_0,NA,NA,completion,6536.597,217549.9000001,217547.969,217564.329,224100.926,224102.4000001,2023-05-08T22:10:27Z,224117.577,Fleisch,mshakiki,s,kizunguzungu,mshikamano,angusho,NA,NA,NA,"c(""distractor1"", ""distractor2"", ""distractor3"")",NA,NA,NA,NA,NA,NA,NA,NA,NA,NA,NA,NA,NA,NA,NA,NA,NA,NA,NA
52000,task,flow.Sequence,2_9,NA,NA,completion,6536.597,217549.69999981,217547.969,217564.329,224100.926,224102.69999981,2023-05-08T22:10:27Z,224117.577,Fleisch,mshakiki,s,kizunguzungu,mshikamano,angusho,NA,NA,NA,"c(""distractor1"", ""distractor2"", ""distractor3"")",NA,NA,NA,NA,NA,NA,NA,NA,NA,NA,NA,NA,NA,NA,NA,NA,NA,NA,NA
52000,Shallow Question,html.Page,2_10_0_0,NA,NA,form submission,3840.1229998093,224103,224100.926,224117.577,227957.69999981,227958.30000019,2023-05-08T22:10:31Z,227972.729,Stimmung,kinyongo,d,kilekile,kisambo,madhehebu,kinyongo,NA,NA,"c(""distractor1"", ""distractor2"", ""distractor3"")",NA,NA,NA,NA,NA,NA,NA,NA,NA,NA,NA,NA,NA,NA,NA,NA,NA,NA,NA
52000,Save data screen,canvas.Screen,2_10_0_1,NA,NA,timeout,496.40600000002,227962.5999999,227952.449,227972.729,228452.464,228453.4000001,2023-05-08T22:10:32Z,228469.135,Stimmung,kinyongo,d,kilekile,kisambo,madhehebu,NA,NA,1,"c(""distractor1"", ""distractor2"", ""distractor3"")",NA,NA,NA,NA,NA,NA,NA,NA,NA,NA,NA,NA,NA,NA,NA,NA,NA,NA,NA
52000,shallow,flow.Sequence,2_10_0,NA,NA,completion,4334.887,224102.9000001,224100.926,224117.577,228452.464,228453.80000019,2023-05-08T22:10:32Z,228469.135,Stimmung,kinyongo,d,kilekile,kisambo,madhehebu,NA,NA,NA,"c(""distractor1"", ""distractor2"", ""distractor3"")",NA,NA,NA,NA,NA,NA,NA,NA,NA,NA,NA,NA,NA,NA,NA,NA,NA,NA,NA
52000,task,flow.Sequence,2_10,NA,NA,completion,4334.887,224102.80000019,224100.926,224117.577,228452.464,228454.0999999,2023-05-08T22:10:32Z,228469.135,Stimmung,kinyongo,d,kilekile,kisambo,madhehebu,NA,NA,NA,"c(""distractor1"", ""distractor2"", ""distractor3"")",NA,NA,NA,NA,NA,NA,NA,NA,NA,NA,NA,NA,NA,NA,NA,NA,NA,NA,NA
52000,Shallow Question,html.Page,2_11_0_0,NA,NA,form submission,4201.5649998093,228454.4000001,228452.464,228469.135,232670.69999981,232671.4000001,2023-05-08T22:10:36Z,232685.403,Integrität,uadilifu,s,muungano,mtiririko,upunguaji,uadilifu,NA,NA,"c(""distractor1"", ""distractor2"", ""distractor3"")",NA,NA,NA,NA,NA,NA,NA,NA,NA,NA,NA,NA,NA,NA,NA,NA,NA,NA,NA
52000,Save data screen,canvas.Screen,2_11_0_1,NA,NA,timeout,507.83900000001,232675.69999981,232654.586,232685.403,233176.603,233177.5,2023-05-08T22:10:36Z,233193.242,Integrität,uadilifu,s,muungano,mtiririko,upunguaji,NA,NA,1,"c(""distractor1"", ""distractor2"", ""distractor3"")",NA,NA,NA,NA,NA,NA,NA,NA,NA,NA,NA,NA,NA,NA,NA,NA,NA,NA,NA
52000,shallow,flow.Sequence,2_11_0,NA,NA,completion,4707.468,228454.30000019,228452.464,228469.135,233176.603,233177.9000001,2023-05-08T22:10:36Z,233193.242,Integrität,uadilifu,s,muungano,mtiririko,upunguaji,NA,NA,NA,"c(""distractor1"", ""distractor2"", ""distractor3"")",NA,NA,NA,NA,NA,NA,NA,NA,NA,NA,NA,NA,NA,NA,NA,NA,NA,NA,NA
52000,task,flow.Sequence,2_11,NA,NA,completion,4707.468,228454.30000019,228452.464,228469.135,233176.603,233178.30000019,2023-05-08T22:10:36Z,233193.242,Integrität,uadilifu,s,muungano,mtiririko,upunguaji,NA,NA,NA,"c(""distractor1"", ""distractor2"", ""distractor3"")",NA,NA,NA,NA,NA,NA,NA,NA,NA,NA,NA,NA,NA,NA,NA,NA,NA,NA,NA
52000,Shallow Question,html.Page,2_12_0_0,NA,NA,form submission,8362.8579999046,233178.5999999,233176.603,233193.242,241556.0999999,241556.80000019,2023-05-08T22:10:45Z,241571.297,Genehmigung,idhini,d,mwanamke,itikadi,fedheha,idhini,NA,NA,"c(""distractor1"", ""distractor2"", ""distractor3"")",NA,NA,NA,NA,NA,NA,NA,NA,NA,NA,NA,NA,NA,NA,NA,NA,NA,NA,NA
52000,Save data screen,canvas.Screen,2_12_0_1,NA,NA,timeout,492.40100000001,241562,241550.472,241571.297,242047.389,242048.4000001,2023-05-08T22:10:45Z,242063.698,Genehmigung,idhini,d,mwanamke,itikadi,fedheha,NA,NA,1,"c(""distractor1"", ""distractor2"", ""distractor3"")",NA,NA,NA,NA,NA,NA,NA,NA,NA,NA,NA,NA,NA,NA,NA,NA,NA,NA,NA
52000,shallow,flow.Sequence,2_12_0,NA,NA,completion,8854.147,233178.5999999,233176.603,233193.242,242047.389,242048.9000001,2023-05-08T22:10:45Z,242063.698,Genehmigung,idhini,d,mwanamke,itikadi,fedheha,NA,NA,NA,"c(""distractor1"", ""distractor2"", ""distractor3"")",NA,NA,NA,NA,NA,NA,NA,NA,NA,NA,NA,NA,NA,NA,NA,NA,NA,NA,NA
52000,task,flow.Sequence,2_12,NA,NA,completion,8854.147,233178.5999999,233176.603,233193.242,242047.389,242049.19999981,2023-05-08T22:10:45Z,242063.698,Genehmigung,idhini,d,mwanamke,itikadi,fedheha,NA,NA,NA,"c(""distractor1"", ""distractor2"", ""distractor3"")",NA,NA,NA,NA,NA,NA,NA,NA,NA,NA,NA,NA,NA,NA,NA,NA,NA,NA,NA
52000,Shallow Question,html.Page,2_13_0_0,NA,NA,form submission,4019.2020000954,242049.4000001,242047.389,242063.698,246082.9000001,246083.5,2023-05-08T22:10:49Z,246097.871,Atmosphäre,angahewa,d,kuteseka,usahihi,kutoamini,angahewa,NA,NA,"c(""distractor1"", ""distractor2"", ""distractor3"")",NA,NA,NA,NA,NA,NA,NA,NA,NA,NA,NA,NA,NA,NA,NA,NA,NA,NA,NA
52000,Save data screen,canvas.Screen,2_13_0_1,NA,NA,timeout,501.42099999997,246088.4000001,246080.806,246097.871,246582.959,246583.9000001,2023-05-08T22:10:50Z,246599.292,Atmosphäre,angahewa,d,kuteseka,usahihi,kutoamini,NA,NA,1,"c(""distractor1"", ""distractor2"", ""distractor3"")",NA,NA,NA,NA,NA,NA,NA,NA,NA,NA,NA,NA,NA,NA,NA,NA,NA,NA,NA
52000,shallow,flow.Sequence,2_13_0,NA,NA,completion,4519.261,242049.4000001,242047.389,242063.698,246582.959,246584.30000019,2023-05-08T22:10:50Z,246599.292,Atmosphäre,angahewa,d,kuteseka,usahihi,kutoamini,NA,NA,NA,"c(""distractor1"", ""distractor2"", ""distractor3"")",NA,NA,NA,NA,NA,NA,NA,NA,NA,NA,NA,NA,NA,NA,NA,NA,NA,NA,NA
52000,task,flow.Sequence,2_13,NA,NA,completion,4519.261,242049.30000019,242047.389,242063.698,246582.959,246584.5999999,2023-05-08T22:10:50Z,246599.292,Atmosphäre,angahewa,d,kuteseka,usahihi,kutoamini,NA,NA,NA,"c(""distractor1"", ""distractor2"", ""distractor3"")",NA,NA,NA,NA,NA,NA,NA,NA,NA,NA,NA,NA,NA,NA,NA,NA,NA,NA,NA
52000,Shallow Question,html.Page,2_14_0_0,NA,NA,form submission,5590.4079998093,246584.9000001,246582.959,246599.292,252189.69999981,252190.4000001,2023-05-08T22:10:55Z,252204.506,Respekt,heshima,s,changamnao,upinzani,ufanisi,heshima,NA,NA,"c(""distractor1"", ""distractor2"", ""distractor3"")",NA,NA,NA,NA,NA,NA,NA,NA,NA,NA,NA,NA,NA,NA,NA,NA,NA,NA,NA
52000,Save data screen,canvas.Screen,2_14_0_1,NA,NA,timeout,503.28599999999,252195.4000001,252185.553,252204.506,252691.156,252692.30000019,2023-05-08T22:10:56Z,252707.792,Respekt,heshima,s,changamnao,upinzani,ufanisi,NA,NA,1,"c(""distractor1"", ""distractor2"", ""distractor3"")",NA,NA,NA,NA,NA,NA,NA,NA,NA,NA,NA,NA,NA,NA,NA,NA,NA,NA,NA
52000,shallow,flow.Sequence,2_14_0,NA,NA,completion,6091.864,246584.80000019,246582.959,246599.292,252691.156,252692.69999981,2023-05-08T22:10:56Z,252707.792,Respekt,heshima,s,changamnao,upinzani,ufanisi,NA,NA,NA,"c(""distractor1"", ""distractor2"", ""distractor3"")",NA,NA,NA,NA,NA,NA,NA,NA,NA,NA,NA,NA,NA,NA,NA,NA,NA,NA,NA
52000,task,flow.Sequence,2_14,NA,NA,completion,6091.864,246584.80000019,246582.959,246599.292,252691.156,252692.9000001,2023-05-08T22:10:56Z,252707.792,Respekt,heshima,s,changamnao,upinzani,ufanisi,NA,NA,NA,"c(""distractor1"", ""distractor2"", ""distractor3"")",NA,NA,NA,NA,NA,NA,NA,NA,NA,NA,NA,NA,NA,NA,NA,NA,NA,NA,NA
52000,Shallow Question,html.Page,2_15_0_0,NA,NA,form submission,5290.4079998093,252693.19999981,252691.156,252707.792,257998.19999981,257998.9000001,2023-05-08T22:11:01Z,258013.148,Wechsel,ugeuzaji,s,utambulisho,kujenga,wasiwasi,ugeuzaji,NA,NA,"c(""distractor1"", ""distractor2"", ""distractor3"")",NA,NA,NA,NA,NA,NA,NA,NA,NA,NA,NA,NA,NA,NA,NA,NA,NA,NA,NA
52000,Save data screen,canvas.Screen,2_15_0_1,NA,NA,timeout,504.24800000002,258003.19999981,257981.694,258013.148,258501,258501.9000001,2023-05-08T22:11:02Z,258517.396,Wechsel,ugeuzaji,s,utambulisho,kujenga,wasiwasi,NA,NA,1,"c(""distractor1"", ""distractor2"", ""distractor3"")",NA,NA,NA,NA,NA,NA,NA,NA,NA,NA,NA,NA,NA,NA,NA,NA,NA,NA,NA
52000,shallow,flow.Sequence,2_15_0,NA,NA,completion,5793.208,252693.19999981,252691.156,252707.792,258501,258502.30000019,2023-05-08T22:11:02Z,258517.396,Wechsel,ugeuzaji,s,utambulisho,kujenga,wasiwasi,NA,NA,NA,"c(""distractor1"", ""distractor2"", ""distractor3"")",NA,NA,NA,NA,NA,NA,NA,NA,NA,NA,NA,NA,NA,NA,NA,NA,NA,NA,NA
52000,task,flow.Sequence,2_15,NA,NA,completion,5793.208,252693.0999999,252691.156,252707.792,258501,258502.5999999,2023-05-08T22:11:02Z,258517.396,Wechsel,ugeuzaji,s,utambulisho,kujenga,wasiwasi,NA,NA,NA,"c(""distractor1"", ""distractor2"", ""distractor3"")",NA,NA,NA,NA,NA,NA,NA,NA,NA,NA,NA,NA,NA,NA,NA,NA,NA,NA,NA
52000,retrieval block 2 (multiple choice),flow.Loop,2,NA,NA,completion,103386.946,155099.69999981,155097.431,155114.054,258501,258502.9000001,2023-05-08T22:11:02Z,258517.396,NA,NA,NA,NA,NA,NA,NA,NA,NA,"c(""distractor1"", ""distractor2"", ""distractor3"")",NA,NA,NA,NA,NA,NA,NA,NA,NA,NA,NA,NA,NA,NA,NA,NA,NA,NA,NA
52000,End,canvas.Screen,3,NA,keypress(Space),response,2008.7039999046,258503.0999999,258501,258517.396,260526.0999999,260527.9000001,2023-05-08T22:11:04Z,260559.468,NA,NA,NA,NA,NA,NA,NA,NA,NA,NULL,NA,NA,NA,NA,NA,NA,NA,NA,NA,NA,NA,NA,NA,NA,NA,NA,NA,NA,NA
52000,root,flow.Sequence,NA,NA,NA,completion,259380.8809999,1080.9000000954,1078.515,1145.219,260526.0999999,260528.69999981,2023-05-08T22:11:04Z,260559.468,NA,NA,NA,NA,NA,NA,NA,NA,NA,NULL,NA,NA,NA,NA,NA,NA,NA,NA,NA,NA,NA,NA,NA,NA,NA,NA,NA,NA,NA
