observation,sender,sender_type,sender_id,response,response_action,ended_on,duration,time_run,time_render,time_show,time_end,time_commit,timestamp,time_switch,url_vp,url_sess,meta_labjs_version,meta_location,meta_user_agent,meta_platform,meta_language,meta_locale,meta_time_zone,meta_timezone_offset,meta_screen_width,meta_screen_height,meta_scroll_width,meta_scroll_height,meta_window_inner_width,meta_window_inner_height,meta_device_pixel_ratio,meta_labjs_build_flavor,meta_labjs_build_commit,distractors,german,swahili,enc,distractor1,distractor2,distractor3,x,correct,x_2,response_2
f619c,Introduction general,canvas.Screen,0,weiter,keypress(q),response,2966794.423,392.59999990463,221.996,388.577,2967183,2967187.5999999,2023-08-09T16:03:19Z,2967199.54,222,3,20.2.4,https://neurocog.fernuni.ch/studies/vweber/sfink/encoding_immediate/index.html?vp=222&sess=3,"Mozilla/5.0 (Windows NT 10.0; Win64; x64) AppleWebKit/537.36 (KHTML, like Gecko) Chrome/114.0.0.0 Safari/537.36",Win32,de-CH,de,Europe/Zurich,-120,1536,864,1536,706,1536,754,1.25,production,f5b4a49f956347addd546a832a3327688c2c0fef,NA,NA,NA,NA,NA,NA,NA,NA,NA,NA,NA
f619c,Introduction practice,canvas.Screen,1_0,NA,keypress(Space),response,11186.46,2967188.3000002,2967178.086,2967199.54,2978386,2978387,2023-08-09T16:03:30Z,2978407.047,NA,NA,NA,NA,NA,NA,NA,NA,NA,NA,NA,NA,NA,NA,NA,NA,NA,NA,NA,NULL,NA,NA,NA,NA,NA,NA,NA,NA,NA,NA
f619c,deep,flow.Sequence,1_1_0_0,NA,NA,skipped,NA,2978387.3000002,NA,NA,2978386,2978391,2023-08-09T16:03:30Z,2978407.047,NA,NA,NA,NA,NA,NA,NA,NA,NA,NA,NA,NA,NA,NA,NA,NA,NA,NA,NA,"c(""distractor1"", ""distractor2"", ""distractor3"")",Rückhalt,msaada,s,muhula,auwali,kiwimbe,NA,NA,NA,NA
f619c,Shallow Question,html.Page,1_1_0_1_0,msaada,NA,form submission,14234.853000096,2978391.3000002,2978389.78,2978407.047,2992641.9000001,2992642.0999999,2023-08-09T16:03:45Z,2992645.311,NA,NA,NA,NA,NA,NA,NA,NA,NA,NA,NA,NA,NA,NA,NA,NA,NA,NA,NA,"c(""distractor1"", ""distractor2"", ""distractor3"")",Rückhalt,msaada,s,muhula,auwali,kiwimbe,NA,NA,NA,NA
f619c,"""Richtig""-Screen",canvas.Screen,1_1_0_1_1,NA,NA,timeout,4995.9039999996,2992643.4000001,2992629.215,2992645.311,2997625.296,2997627,2023-08-09T16:03:50Z,2997641.215,NA,NA,NA,NA,NA,NA,NA,NA,NA,NA,NA,NA,NA,NA,NA,NA,NA,NA,NA,"c(""distractor1"", ""distractor2"", ""distractor3"")",Rückhalt,msaada,s,muhula,auwali,kiwimbe,NA,1,NA,NA
f619c,"""Falsch""-Screen",canvas.Screen,1_1_0_1_2,NA,NA,skipped,NA,2997627.9000001,NA,NA,2997625.296,2997628,2023-08-09T16:03:50Z,2997641.215,NA,NA,NA,NA,NA,NA,NA,NA,NA,NA,NA,NA,NA,NA,NA,NA,NA,NA,NA,"c(""distractor1"", ""distractor2"", ""distractor3"")",Rückhalt,msaada,s,muhula,auwali,kiwimbe,NA,NA,NA,NA
f619c,shallow,flow.Sequence,1_1_0_1,NA,NA,completion,19218.249,2978391.2000003,2978389.78,2978407.047,2997625.296,2997628.2000003,2023-08-09T16:03:50Z,2997641.215,NA,NA,NA,NA,NA,NA,NA,NA,NA,NA,NA,NA,NA,NA,NA,NA,NA,NA,NA,"c(""distractor1"", ""distractor2"", ""distractor3"")",Rückhalt,msaada,s,muhula,auwali,kiwimbe,NA,NA,NA,NA
f619c,task,flow.Sequence,1_1_0,NA,NA,completion,19218.249,2978387.3000002,2978389.78,2978407.047,2997625.296,2997628.4000001,2023-08-09T16:03:50Z,2997641.215,NA,NA,NA,NA,NA,NA,NA,NA,NA,NA,NA,NA,NA,NA,NA,NA,NA,NA,NA,"c(""distractor1"", ""distractor2"", ""distractor3"")",Rückhalt,msaada,s,muhula,auwali,kiwimbe,NA,NA,NA,NA
f619c,Deep Question,html.Page,1_1_1_0_0,habana,NA,form submission,6280.8849999048,2997628.4000001,2997625.296,2997641.215,3003922.0999999,3003922.3000002,2023-08-09T16:03:56Z,3003936.323,NA,NA,NA,NA,NA,NA,NA,NA,NA,NA,NA,NA,NA,NA,NA,NA,NA,NA,NA,"c(""distractor1"", ""distractor2"", ""distractor3"")",Qualität,mtindo,d,NA,NA,NA,NA,NA,NA,NA
f619c,"""Richtig""-Screen",canvas.Screen,1_1_1_0_1,NA,NA,skipped,NA,3003925.2000003,NA,NA,3003922.0999999,3003925.5,2023-08-09T16:03:56Z,3003936.323,NA,NA,NA,NA,NA,NA,NA,NA,NA,NA,NA,NA,NA,NA,NA,NA,NA,NA,NA,"c(""distractor1"", ""distractor2"", ""distractor3"")",Qualität,mtindo,d,NA,NA,NA,NA,NA,NA,NA
f619c,"""Falsch""-Screen",canvas.Screen,1_1_1_0_2,NA,NA,timeout,4995.5560000003,3003926.8000002,3003919.917,3003936.323,3008915.723,3008917,2023-08-09T16:04:01Z,3008931.879,NA,NA,NA,NA,NA,NA,NA,NA,NA,NA,NA,NA,NA,NA,NA,NA,NA,NA,NA,"c(""distractor1"", ""distractor2"", ""distractor3"")",Qualität,mtindo,d,NA,NA,NA,NA,0,NA,NA
f619c,deep,flow.Sequence,1_1_1_0,NA,NA,completion,11274.508,2997628.4000001,2997625.296,2997641.215,3008915.723,3008917.5,2023-08-09T16:04:01Z,3008931.879,NA,NA,NA,NA,NA,NA,NA,NA,NA,NA,NA,NA,NA,NA,NA,NA,NA,NA,NA,"c(""distractor1"", ""distractor2"", ""distractor3"")",Qualität,mtindo,d,NA,NA,NA,NA,NA,NA,NA
f619c,shallow,flow.Sequence,1_1_1_1,NA,NA,skipped,NA,3008917.8000002,NA,NA,3008915.723,3008918.0999999,2023-08-09T16:04:01Z,3008931.879,NA,NA,NA,NA,NA,NA,NA,NA,NA,NA,NA,NA,NA,NA,NA,NA,NA,NA,NA,"c(""distractor1"", ""distractor2"", ""distractor3"")",Qualität,mtindo,d,NA,NA,NA,NA,NA,NA,NA
f619c,task,flow.Sequence,1_1_1,NA,NA,completion,11274.508,2997628.4000001,2997625.296,2997641.215,3008915.723,3008918.5,2023-08-09T16:04:01Z,3008931.879,NA,NA,NA,NA,NA,NA,NA,NA,NA,NA,NA,NA,NA,NA,NA,NA,NA,NA,NA,"c(""distractor1"", ""distractor2"", ""distractor3"")",Qualität,mtindo,d,NA,NA,NA,NA,NA,NA,NA
f619c,deep,flow.Sequence,1_1_2_0,NA,NA,skipped,NA,3008918.8000002,NA,NA,3008915.723,3008918.9000001,2023-08-09T16:04:01Z,3008931.879,NA,NA,NA,NA,NA,NA,NA,NA,NA,NA,NA,NA,NA,NA,NA,NA,NA,NA,NA,"c(""distractor1"", ""distractor2"", ""distractor3"")",Gegenwart,hadhara,s,katiba,jokofu,mikopo,NA,NA,NA,NA
f619c,Shallow Question,html.Page,1_1_2_1_0,hadhara,NA,form submission,5756.9210001905,3008919.2000003,3008915.723,3008931.879,3014688.8000002,3014688.9000001,2023-08-09T16:04:07Z,3014693.804,NA,NA,NA,NA,NA,NA,NA,NA,NA,NA,NA,NA,NA,NA,NA,NA,NA,NA,NA,"c(""distractor1"", ""distractor2"", ""distractor3"")",Gegenwart,hadhara,s,katiba,jokofu,mikopo,NA,NA,NA,NA
f619c,"""Richtig""-Screen",canvas.Screen,1_1_2_1_1,NA,NA,timeout,4996.0750000002,3014690.9000001,3014677.729,3014693.804,3019673.51,3019674.5999999,2023-08-09T16:04:12Z,3019689.879,NA,NA,NA,NA,NA,NA,NA,NA,NA,NA,NA,NA,NA,NA,NA,NA,NA,NA,NA,"c(""distractor1"", ""distractor2"", ""distractor3"")",Gegenwart,hadhara,s,katiba,jokofu,mikopo,NA,1,NA,NA
f619c,"""Falsch""-Screen",canvas.Screen,1_1_2_1_2,NA,NA,skipped,NA,3019680.2000003,NA,NA,3019673.51,3019680.5999999,2023-08-09T16:04:12Z,3019689.879,NA,NA,NA,NA,NA,NA,NA,NA,NA,NA,NA,NA,NA,NA,NA,NA,NA,NA,NA,"c(""distractor1"", ""distractor2"", ""distractor3"")",Gegenwart,hadhara,s,katiba,jokofu,mikopo,NA,NA,NA,NA
f619c,shallow,flow.Sequence,1_1_2_1,NA,NA,completion,10741.631,3008919.0999999,3008915.723,3008931.879,3019673.51,3019681,2023-08-09T16:04:12Z,3019689.879,NA,NA,NA,NA,NA,NA,NA,NA,NA,NA,NA,NA,NA,NA,NA,NA,NA,NA,NA,"c(""distractor1"", ""distractor2"", ""distractor3"")",Gegenwart,hadhara,s,katiba,jokofu,mikopo,NA,NA,NA,NA
f619c,task,flow.Sequence,1_1_2,NA,NA,completion,10741.631,3008918.7000003,3008915.723,3008931.879,3019673.51,3019681.3000002,2023-08-09T16:04:12Z,3019689.879,NA,NA,NA,NA,NA,NA,NA,NA,NA,NA,NA,NA,NA,NA,NA,NA,NA,NA,NA,"c(""distractor1"", ""distractor2"", ""distractor3"")",Gegenwart,hadhara,s,katiba,jokofu,mikopo,NA,NA,NA,NA
f619c,deep,flow.Sequence,1_1_3_0,NA,NA,skipped,NA,3019681.5999999,NA,NA,3019673.51,3019681.8000002,2023-08-09T16:04:12Z,3019689.879,NA,NA,NA,NA,NA,NA,NA,NA,NA,NA,NA,NA,NA,NA,NA,NA,NA,NA,NA,"c(""distractor1"", ""distractor2"", ""distractor3"")",Kritik,lawama,s,dereva,nafasi,mawazo,NA,NA,NA,NA
f619c,Shallow Question,html.Page,1_1_3_1_0,mawazo,NA,form submission,4961.5210000952,3019681.9000001,3019673.51,3019689.879,3024651.4000001,3024652.0999999,2023-08-09T16:04:17Z,3024652.335,NA,NA,NA,NA,NA,NA,NA,NA,NA,NA,NA,NA,NA,NA,NA,NA,NA,NA,NA,"c(""distractor1"", ""distractor2"", ""distractor3"")",Kritik,lawama,s,dereva,nafasi,mawazo,NA,NA,NA,NA
f619c,"""Richtig""-Screen",canvas.Screen,1_1_3_1_1,NA,NA,skipped,NA,3024653.9000001,NA,NA,3024651.4000001,3024654,2023-08-09T16:04:17Z,3024652.335,NA,NA,NA,NA,NA,NA,NA,NA,NA,NA,NA,NA,NA,NA,NA,NA,NA,NA,NA,"c(""distractor1"", ""distractor2"", ""distractor3"")",Kritik,lawama,s,dereva,nafasi,mawazo,NA,NA,NA,NA
f619c,"""Falsch""-Screen",canvas.Screen,1_1_3_1_2,NA,NA,timeout,4996.2060000002,3024654.5999999,3024636.229,3024652.335,3029631.69,3029632.8000002,2023-08-09T16:04:22Z,3029648.541,NA,NA,NA,NA,NA,NA,NA,NA,NA,NA,NA,NA,NA,NA,NA,NA,NA,NA,NA,"c(""distractor1"", ""distractor2"", ""distractor3"")",Kritik,lawama,s,dereva,nafasi,mawazo,NA,0,NA,NA
f619c,shallow,flow.Sequence,1_1_3_1,NA,NA,completion,9941.8109999998,3019681.9000001,3019673.51,3019689.879,3029631.69,3029633.2000003,2023-08-09T16:04:22Z,3029648.541,NA,NA,NA,NA,NA,NA,NA,NA,NA,NA,NA,NA,NA,NA,NA,NA,NA,NA,NA,"c(""distractor1"", ""distractor2"", ""distractor3"")",Kritik,lawama,s,dereva,nafasi,mawazo,NA,NA,NA,NA
f619c,task,flow.Sequence,1_1_3,NA,NA,completion,9941.8109999998,3019681.5,3019673.51,3019689.879,3029631.69,3029633.5,2023-08-09T16:04:22Z,3029648.541,NA,NA,NA,NA,NA,NA,NA,NA,NA,NA,NA,NA,NA,NA,NA,NA,NA,NA,NA,"c(""distractor1"", ""distractor2"", ""distractor3"")",Kritik,lawama,s,dereva,nafasi,mawazo,NA,NA,NA,NA
f619c,Deep Question,html.Page,1_1_4_0_0,batuni,NA,form submission,5654.4589999998,3029633.7000003,3029631.69,3029648.541,3035303,3035303.2000003,2023-08-09T16:04:27Z,3035310.203,NA,NA,NA,NA,NA,NA,NA,NA,NA,NA,NA,NA,NA,NA,NA,NA,NA,NA,NA,"c(""distractor1"", ""distractor2"", ""distractor3"")",Schatten,kivuli,d,NA,NA,NA,NA,NA,NA,NA
f619c,"""Richtig""-Screen",canvas.Screen,1_1_4_0_1,NA,NA,skipped,NA,3035305.5,NA,NA,3035303,3035305.7000003,2023-08-09T16:04:27Z,3035310.203,NA,NA,NA,NA,NA,NA,NA,NA,NA,NA,NA,NA,NA,NA,NA,NA,NA,NA,NA,"c(""distractor1"", ""distractor2"", ""distractor3"")",Schatten,kivuli,d,NA,NA,NA,NA,NA,NA,NA
f619c,"""Falsch""-Screen",canvas.Screen,1_1_4_0_2,NA,NA,timeout,4996.5,3035306.8000002,3035294.205,3035310.203,3040289.95,3040291.0999999,2023-08-09T16:04:32Z,3040306.703,NA,NA,NA,NA,NA,NA,NA,NA,NA,NA,NA,NA,NA,NA,NA,NA,NA,NA,NA,"c(""distractor1"", ""distractor2"", ""distractor3"")",Schatten,kivuli,d,NA,NA,NA,NA,0,NA,NA
f619c,deep,flow.Sequence,1_1_4_0,NA,NA,completion,10641.409,3029633.7000003,3029631.69,3029648.541,3040289.95,3040291.5,2023-08-09T16:04:32Z,3040306.703,NA,NA,NA,NA,NA,NA,NA,NA,NA,NA,NA,NA,NA,NA,NA,NA,NA,NA,NA,"c(""distractor1"", ""distractor2"", ""distractor3"")",Schatten,kivuli,d,NA,NA,NA,NA,NA,NA,NA
f619c,shallow,flow.Sequence,1_1_4_1,NA,NA,skipped,NA,3040291.7000003,NA,NA,3040289.95,3040291.9000001,2023-08-09T16:04:32Z,3040306.703,NA,NA,NA,NA,NA,NA,NA,NA,NA,NA,NA,NA,NA,NA,NA,NA,NA,NA,NA,"c(""distractor1"", ""distractor2"", ""distractor3"")",Schatten,kivuli,d,NA,NA,NA,NA,NA,NA,NA
f619c,task,flow.Sequence,1_1_4,NA,NA,completion,10641.409,3029633.5999999,3029631.69,3029648.541,3040289.95,3040292.3000002,2023-08-09T16:04:32Z,3040306.703,NA,NA,NA,NA,NA,NA,NA,NA,NA,NA,NA,NA,NA,NA,NA,NA,NA,NA,NA,"c(""distractor1"", ""distractor2"", ""distractor3"")",Schatten,kivuli,d,NA,NA,NA,NA,NA,NA,NA
f619c,Deep Question,html.Page,1_1_5_0_0,sangina,NA,form submission,5082.7969999998,3040292.5999999,3040289.95,3040306.703,3045389.5,3045389.8000002,2023-08-09T16:04:37Z,3045402.116,NA,NA,NA,NA,NA,NA,NA,NA,NA,NA,NA,NA,NA,NA,NA,NA,NA,NA,NA,"c(""distractor1"", ""distractor2"", ""distractor3"")",Gesundheit,salama,d,NA,NA,NA,NA,NA,NA,NA
f619c,"""Richtig""-Screen",canvas.Screen,1_1_5_0_1,NA,NA,skipped,NA,3045392.5,NA,NA,3045389.5,3045392.7000003,2023-08-09T16:04:37Z,3045402.116,NA,NA,NA,NA,NA,NA,NA,NA,NA,NA,NA,NA,NA,NA,NA,NA,NA,NA,NA,"c(""distractor1"", ""distractor2"", ""distractor3"")",Gesundheit,salama,d,NA,NA,NA,NA,NA,NA,NA
f619c,"""Falsch""-Screen",canvas.Screen,1_1_5_0_2,NA,NA,timeout,4995.7260000003,3045393.5999999,3045385.84,3045402.116,3050381.689,3050382.7000003,2023-08-09T16:04:42Z,3050397.842,NA,NA,NA,NA,NA,NA,NA,NA,NA,NA,NA,NA,NA,NA,NA,NA,NA,NA,NA,"c(""distractor1"", ""distractor2"", ""distractor3"")",Gesundheit,salama,d,NA,NA,NA,NA,0,NA,NA
f619c,deep,flow.Sequence,1_1_5_0,NA,NA,completion,10074.986,3040292.5,3040289.95,3040306.703,3050381.689,3050383.0999999,2023-08-09T16:04:42Z,3050397.842,NA,NA,NA,NA,NA,NA,NA,NA,NA,NA,NA,NA,NA,NA,NA,NA,NA,NA,NA,"c(""distractor1"", ""distractor2"", ""distractor3"")",Gesundheit,salama,d,NA,NA,NA,NA,NA,NA,NA
f619c,shallow,flow.Sequence,1_1_5_1,NA,NA,skipped,NA,3050383.2000003,NA,NA,3050381.689,3050383.3000002,2023-08-09T16:04:42Z,3050397.842,NA,NA,NA,NA,NA,NA,NA,NA,NA,NA,NA,NA,NA,NA,NA,NA,NA,NA,NA,"c(""distractor1"", ""distractor2"", ""distractor3"")",Gesundheit,salama,d,NA,NA,NA,NA,NA,NA,NA
f619c,task,flow.Sequence,1_1_5,NA,NA,completion,10074.986,3040292.4000001,3040289.95,3040306.703,3050381.689,3050383.5999999,2023-08-09T16:04:42Z,3050397.842,NA,NA,NA,NA,NA,NA,NA,NA,NA,NA,NA,NA,NA,NA,NA,NA,NA,NA,NA,"c(""distractor1"", ""distractor2"", ""distractor3"")",Gesundheit,salama,d,NA,NA,NA,NA,NA,NA,NA
f619c,block,flow.Loop,1_1,NA,NA,completion,71974.642,2978387.2000003,2978389.78,2978407.047,3050381.689,3050383.9000001,2023-08-09T16:04:42Z,3050397.842,NA,NA,NA,NA,NA,NA,NA,NA,NA,NA,NA,NA,NA,NA,NA,NA,NA,NA,NA,"c(""distractor1"", ""distractor2"", ""distractor3"")",NA,NA,NA,NA,NA,NA,NA,NA,NA,NA
f619c,Practice,flow.Sequence,1,NA,NA,completion,83182.149,2967188.2000003,2967178.086,2967199.54,3050381.689,3050384.2000003,2023-08-09T16:04:42Z,3050397.842,NA,NA,NA,NA,NA,NA,NA,NA,NA,NA,NA,NA,NA,NA,NA,NA,NA,NA,NA,NULL,NA,NA,NA,NA,NA,NA,NA,NA,NA,NA
f619c,Experiment start,canvas.Screen,2,weiter,keypress(q),response,9035.6579999998,3050384.3000002,3050381.689,3050397.842,3059433.5,3059434.5999999,2023-08-09T16:04:52Z,3059524.34,NA,NA,NA,NA,NA,NA,NA,NA,NA,NA,NA,NA,NA,NA,NA,NA,NA,NA,NA,NA,NA,NA,NA,NA,NA,NA,NA,NA,NA,NA
f619c,deep,flow.Sequence,3_0_0_0_0_0,NA,NA,skipped,NA,3059509.4000001,NA,NA,3059433.5,3059509.5,2023-08-09T16:04:52Z,3059524.34,NA,NA,NA,NA,NA,NA,NA,NA,NA,NA,NA,NA,NA,NA,NA,NA,NA,NA,NA,NA,Inhalt,yaliyomo,s,kishawishi,hifadhi,kutembea,sdf,NA,0,NA
f619c,Shallow Question,html.Page,3_0_0_0_0_1_0,kutembea,NA,form submission,6004.5600000955,3059509.5,3059506.506,3059524.34,3065528.9000001,3065529.0999999,2023-08-09T16:04:58Z,3065535.353,NA,NA,NA,NA,NA,NA,NA,NA,NA,NA,NA,NA,NA,NA,NA,NA,NA,NA,NA,NA,Inhalt,yaliyomo,s,kishawishi,hifadhi,kutembea,NA,NA,0,NA
f619c,"""Richtig""-Screen",canvas.Screen,3_0_0_0_0_1_1,NA,NA,skipped,NA,3065530.8000002,NA,NA,3065528.9000001,3065530.9000001,2023-08-09T16:04:58Z,3065535.353,NA,NA,NA,NA,NA,NA,NA,NA,NA,NA,NA,NA,NA,NA,NA,NA,NA,NA,NA,NA,Inhalt,yaliyomo,s,kishawishi,hifadhi,kutembea,sdf,NA,0,NA
f619c,"""Falsch""-Screen",canvas.Screen,3_0_0_0_0_1_2,NA,NA,timeout,4996.3989999997,3065531.5,3065519.235,3065535.353,3070515.014,3070516.0999999,2023-08-09T16:05:03Z,3070531.752,NA,NA,NA,NA,NA,NA,NA,NA,NA,NA,NA,NA,NA,NA,NA,NA,NA,NA,NA,NA,Inhalt,yaliyomo,s,kishawishi,hifadhi,kutembea,sdf,0,0,NA
f619c,shallow,flow.Sequence,3_0_0_0_0_1,NA,NA,completion,10990.674,3059509.5,3059506.506,3059524.34,3070515.014,3070516.5,2023-08-09T16:05:03Z,3070531.752,NA,NA,NA,NA,NA,NA,NA,NA,NA,NA,NA,NA,NA,NA,NA,NA,NA,NA,NA,NA,Inhalt,yaliyomo,s,kishawishi,hifadhi,kutembea,sdf,NA,0,NA
f619c,task,flow.Sequence,3_0_0_0_0,NA,NA,completion,10990.674,3059509.3000002,3059506.506,3059524.34,3070515.014,3070516.8000002,2023-08-09T16:05:03Z,3070531.752,NA,NA,NA,NA,NA,NA,NA,NA,NA,NA,NA,NA,NA,NA,NA,NA,NA,NA,NA,NA,Inhalt,yaliyomo,s,kishawishi,hifadhi,kutembea,sdf,NA,0,NA
f619c,Deep Question,html.Page,3_0_0_0_1_0_0,tanuai,NA,form submission,4668.1480000955,3070517,3070515.014,3070531.752,3075199.9000001,3075200.0999999,2023-08-09T16:05:07Z,3075210.837,NA,NA,NA,NA,NA,NA,NA,NA,NA,NA,NA,NA,NA,NA,NA,NA,NA,NA,NA,NA,Toleranz,kuvumiliana,d,NA,NA,NA,NA,NA,0,NA
f619c,"""Richtig""-Screen",canvas.Screen,3_0_0_0_1_0_1,NA,NA,skipped,NA,3075202.5999999,NA,NA,3075199.9000001,3075202.8000002,2023-08-09T16:05:07Z,3075210.837,NA,NA,NA,NA,NA,NA,NA,NA,NA,NA,NA,NA,NA,NA,NA,NA,NA,NA,NA,NA,Toleranz,kuvumiliana,d,NA,NA,NA,sdf,NA,0,NA
f619c,"""Falsch""-Screen",canvas.Screen,3_0_0_0_1_0_2,NA,NA,timeout,4996.1710000001,3075204.5999999,3075194.645,3075210.837,3080190.563,3080191.4000001,2023-08-09T16:05:12Z,3080207.008,NA,NA,NA,NA,NA,NA,NA,NA,NA,NA,NA,NA,NA,NA,NA,NA,NA,NA,NA,NA,Toleranz,kuvumiliana,d,NA,NA,NA,sdf,0,0,NA
f619c,deep,flow.Sequence,3_0_0_0_1_0,NA,NA,completion,9658.8110000002,3070516.9000001,3070515.014,3070531.752,3080190.563,3080191.9000001,2023-08-09T16:05:12Z,3080207.008,NA,NA,NA,NA,NA,NA,NA,NA,NA,NA,NA,NA,NA,NA,NA,NA,NA,NA,NA,NA,Toleranz,kuvumiliana,d,NA,NA,NA,sdf,NA,0,NA
f619c,shallow,flow.Sequence,3_0_0_0_1_1,NA,NA,skipped,NA,3080192.0999999,NA,NA,3080190.563,3080192.2000003,2023-08-09T16:05:12Z,3080207.008,NA,NA,NA,NA,NA,NA,NA,NA,NA,NA,NA,NA,NA,NA,NA,NA,NA,NA,NA,NA,Toleranz,kuvumiliana,d,NA,NA,NA,sdf,NA,0,NA
f619c,task,flow.Sequence,3_0_0_0_1,NA,NA,completion,9658.8110000002,3070516.9000001,3070515.014,3070531.752,3080190.563,3080192.4000001,2023-08-09T16:05:12Z,3080207.008,NA,NA,NA,NA,NA,NA,NA,NA,NA,NA,NA,NA,NA,NA,NA,NA,NA,NA,NA,NA,Toleranz,kuvumiliana,d,NA,NA,NA,sdf,NA,0,NA
f619c,deep,flow.Sequence,3_0_0_0_2_0,NA,NA,skipped,NA,3080192.7000003,NA,NA,3080190.563,3080192.9000001,2023-08-09T16:05:12Z,3080207.008,NA,NA,NA,NA,NA,NA,NA,NA,NA,NA,NA,NA,NA,NA,NA,NA,NA,NA,NA,NA,Integrität,uadilifu,s,muungano,mtiririko,upunguaji,sdf,NA,0,NA
f619c,Shallow Question,html.Page,3_0_0_0_2_1_0,uadilifu,NA,form submission,5311.4920000001,3080193.0999999,3080190.563,3080207.008,3085518.5,3085518.7000003,2023-08-09T16:05:18Z,3085518.959,NA,NA,NA,NA,NA,NA,NA,NA,NA,NA,NA,NA,NA,NA,NA,NA,NA,NA,NA,NA,Integrität,uadilifu,s,muungano,mtiririko,upunguaji,NA,NA,0,NA
f619c,"""Richtig""-Screen",canvas.Screen,3_0_0_0_2_1_1,NA,NA,timeout,4996.3880000003,3085520.5999999,3085503.041,3085518.959,3090498.359,3090499.4000001,2023-08-09T16:05:23Z,3090515.347,NA,NA,NA,NA,NA,NA,NA,NA,NA,NA,NA,NA,NA,NA,NA,NA,NA,NA,NA,NA,Integrität,uadilifu,s,muungano,mtiririko,upunguaji,sdf,1,0,NA
f619c,"""Falsch""-Screen",canvas.Screen,3_0_0_0_2_1_2,NA,NA,skipped,NA,3090504.5,NA,NA,3090498.359,3090504.7000003,2023-08-09T16:05:23Z,3090515.347,NA,NA,NA,NA,NA,NA,NA,NA,NA,NA,NA,NA,NA,NA,NA,NA,NA,NA,NA,NA,Integrität,uadilifu,s,muungano,mtiririko,upunguaji,sdf,NA,0,NA
f619c,shallow,flow.Sequence,3_0_0_0_2_1,NA,NA,completion,10291.351,3080193.0999999,3080190.563,3080207.008,3090498.359,3090504.8000002,2023-08-09T16:05:23Z,3090515.347,NA,NA,NA,NA,NA,NA,NA,NA,NA,NA,NA,NA,NA,NA,NA,NA,NA,NA,NA,NA,Integrität,uadilifu,s,muungano,mtiririko,upunguaji,sdf,NA,0,NA
f619c,task,flow.Sequence,3_0_0_0_2,NA,NA,completion,10291.351,3080192.5999999,3080190.563,3080207.008,3090498.359,3090504.9000001,2023-08-09T16:05:23Z,3090515.347,NA,NA,NA,NA,NA,NA,NA,NA,NA,NA,NA,NA,NA,NA,NA,NA,NA,NA,NA,NA,Integrität,uadilifu,s,muungano,mtiririko,upunguaji,sdf,NA,0,NA
f619c,deep,flow.Sequence,3_0_0_0_3_0,NA,NA,skipped,NA,3090505,NA,NA,3090498.359,3090505,2023-08-09T16:05:23Z,3090515.347,NA,NA,NA,NA,NA,NA,NA,NA,NA,NA,NA,NA,NA,NA,NA,NA,NA,NA,NA,NA,Vermutung,udhanifu,s,haramia,tikisho,itifaki,sdf,NA,0,NA
f619c,Shallow Question,html.Page,3_0_0_0_3_1_0,haramia,NA,form submission,4629.5530000953,3090505,3090498.359,3090515.347,3095144.9000001,3095145.0999999,2023-08-09T16:05:27Z,3095161.607,NA,NA,NA,NA,NA,NA,NA,NA,NA,NA,NA,NA,NA,NA,NA,NA,NA,NA,NA,NA,Vermutung,udhanifu,s,haramia,tikisho,itifaki,NA,NA,0,NA
f619c,"""Richtig""-Screen",canvas.Screen,3_0_0_0_3_1_1,NA,NA,skipped,NA,3095146.8000002,NA,NA,3095144.9000001,3095147,2023-08-09T16:05:27Z,3095161.607,NA,NA,NA,NA,NA,NA,NA,NA,NA,NA,NA,NA,NA,NA,NA,NA,NA,NA,NA,NA,Vermutung,udhanifu,s,haramia,tikisho,itifaki,sdf,NA,0,NA
f619c,"""Falsch""-Screen",canvas.Screen,3_0_0_0_3_1_2,NA,NA,timeout,4996.0520000001,3095147.7000003,3095128.225,3095161.607,3100140.849,3100141.7000003,2023-08-09T16:05:32Z,3100157.659,NA,NA,NA,NA,NA,NA,NA,NA,NA,NA,NA,NA,NA,NA,NA,NA,NA,NA,NA,NA,Vermutung,udhanifu,s,haramia,tikisho,itifaki,sdf,0,0,NA
f619c,shallow,flow.Sequence,3_0_0_0_3_1,NA,NA,completion,9625.5019999999,3090505,3090498.359,3090515.347,3100140.849,3100142.2000003,2023-08-09T16:05:32Z,3100157.659,NA,NA,NA,NA,NA,NA,NA,NA,NA,NA,NA,NA,NA,NA,NA,NA,NA,NA,NA,NA,Vermutung,udhanifu,s,haramia,tikisho,itifaki,sdf,NA,0,NA
f619c,task,flow.Sequence,3_0_0_0_3,NA,NA,completion,9625.5019999999,3090505,3090498.359,3090515.347,3100140.849,3100142.4000001,2023-08-09T16:05:32Z,3100157.659,NA,NA,NA,NA,NA,NA,NA,NA,NA,NA,NA,NA,NA,NA,NA,NA,NA,NA,NA,NA,Vermutung,udhanifu,s,haramia,tikisho,itifaki,sdf,NA,0,NA
f619c,Deep Question,html.Page,3_0_0_0_4_0_0,serpenta,NA,form submission,4325.341,3100142.7000003,3100140.849,3100157.659,3104483,3104483.0999999,2023-08-09T16:05:37Z,3104486.69,NA,NA,NA,NA,NA,NA,NA,NA,NA,NA,NA,NA,NA,NA,NA,NA,NA,NA,NA,NA,Schlange,foleni,d,NA,NA,NA,NA,NA,0,NA
f619c,"""Richtig""-Screen",canvas.Screen,3_0_0_0_4_0_1,NA,NA,skipped,NA,3104485.7000003,NA,NA,3104483,3104485.8000002,2023-08-09T16:05:37Z,3104486.69,NA,NA,NA,NA,NA,NA,NA,NA,NA,NA,NA,NA,NA,NA,NA,NA,NA,NA,NA,NA,Schlange,foleni,d,NA,NA,NA,sdf,NA,0,NA
f619c,"""Falsch""-Screen",canvas.Screen,3_0_0_0_4_0_2,NA,NA,timeout,4995.9420000003,3104486.8000002,3104470.585,3104486.69,3109466.338,3109467.5,2023-08-09T16:05:42Z,3109482.632,NA,NA,NA,NA,NA,NA,NA,NA,NA,NA,NA,NA,NA,NA,NA,NA,NA,NA,NA,NA,Schlange,foleni,d,NA,NA,NA,sdf,0,0,NA
f619c,deep,flow.Sequence,3_0_0_0_4_0,NA,NA,completion,9308.679,3100142.7000003,3100140.849,3100157.659,3109466.338,3109468.0999999,2023-08-09T16:05:42Z,3109482.632,NA,NA,NA,NA,NA,NA,NA,NA,NA,NA,NA,NA,NA,NA,NA,NA,NA,NA,NA,NA,Schlange,foleni,d,NA,NA,NA,sdf,NA,0,NA
f619c,shallow,flow.Sequence,3_0_0_0_4_1,NA,NA,skipped,NA,3109468.3000002,NA,NA,3109466.338,3109468.5999999,2023-08-09T16:05:42Z,3109482.632,NA,NA,NA,NA,NA,NA,NA,NA,NA,NA,NA,NA,NA,NA,NA,NA,NA,NA,NA,NA,Schlange,foleni,d,NA,NA,NA,sdf,NA,0,NA
f619c,task,flow.Sequence,3_0_0_0_4,NA,NA,completion,9308.679,3100142.5999999,3100140.849,3100157.659,3109466.338,3109469,2023-08-09T16:05:42Z,3109482.632,NA,NA,NA,NA,NA,NA,NA,NA,NA,NA,NA,NA,NA,NA,NA,NA,NA,NA,NA,NA,Schlange,foleni,d,NA,NA,NA,sdf,NA,0,NA
f619c,deep,flow.Sequence,3_0_0_0_5_0,NA,NA,skipped,NA,3109469.4000001,NA,NA,3109466.338,3109469.5999999,2023-08-09T16:05:42Z,3109482.632,NA,NA,NA,NA,NA,NA,NA,NA,NA,NA,NA,NA,NA,NA,NA,NA,NA,NA,NA,NA,Fleisch,mshakiki,s,kizunguzungu,mshikamano,angusho,sdf,NA,0,NA
f619c,Shallow Question,html.Page,3_0_0_0_5_1_0,angusho,NA,form submission,4470.3679999998,3109470,3109466.338,3109482.632,3113953,3113953.0999999,2023-08-09T16:05:46Z,3113962.302,NA,NA,NA,NA,NA,NA,NA,NA,NA,NA,NA,NA,NA,NA,NA,NA,NA,NA,NA,NA,Fleisch,mshakiki,s,kizunguzungu,mshikamano,angusho,NA,NA,0,NA
f619c,"""Richtig""-Screen",canvas.Screen,3_0_0_0_5_1_1,NA,NA,skipped,NA,3113954.9000001,NA,NA,3113953,3113955.0999999,2023-08-09T16:05:46Z,3113962.302,NA,NA,NA,NA,NA,NA,NA,NA,NA,NA,NA,NA,NA,NA,NA,NA,NA,NA,NA,NA,Fleisch,mshakiki,s,kizunguzungu,mshikamano,angusho,sdf,NA,0,NA
f619c,"""Falsch""-Screen",canvas.Screen,3_0_0_0_5_1_2,NA,NA,timeout,4996.0689999997,3113955.7000003,3113945.614,3113962.302,3118941.688,3118942.9000001,2023-08-09T16:05:51Z,3118958.371,NA,NA,NA,NA,NA,NA,NA,NA,NA,NA,NA,NA,NA,NA,NA,NA,NA,NA,NA,NA,Fleisch,mshakiki,s,kizunguzungu,mshikamano,angusho,sdf,0,0,NA
f619c,shallow,flow.Sequence,3_0_0_0_5_1,NA,NA,completion,9459.0559999999,3109469.9000001,3109466.338,3109482.632,3118941.688,3118943.3000002,2023-08-09T16:05:51Z,3118958.371,NA,NA,NA,NA,NA,NA,NA,NA,NA,NA,NA,NA,NA,NA,NA,NA,NA,NA,NA,NA,Fleisch,mshakiki,s,kizunguzungu,mshikamano,angusho,sdf,NA,0,NA
f619c,task,flow.Sequence,3_0_0_0_5,NA,NA,completion,9459.0559999999,3109469.3000002,3109466.338,3109482.632,3118941.688,3118943.5,2023-08-09T16:05:51Z,3118958.371,NA,NA,NA,NA,NA,NA,NA,NA,NA,NA,NA,NA,NA,NA,NA,NA,NA,NA,NA,NA,Fleisch,mshakiki,s,kizunguzungu,mshikamano,angusho,sdf,NA,0,NA
f619c,Deep Question,html.Page,3_0_0_0_6_0_0,murtina,NA,form submission,4654.4290001909,3118943.8000002,3118941.688,3118958.371,3123612.8000002,3123613.0999999,2023-08-09T16:05:56Z,3123620.955,NA,NA,NA,NA,NA,NA,NA,NA,NA,NA,NA,NA,NA,NA,NA,NA,NA,NA,NA,NA,Begegnung,kukutana,d,NA,NA,NA,NA,NA,0,NA
f619c,"""Richtig""-Screen",canvas.Screen,3_0_0_0_6_0_1,NA,NA,skipped,NA,3123615.5,NA,NA,3123612.8000002,3123615.7000003,2023-08-09T16:05:56Z,3123620.955,NA,NA,NA,NA,NA,NA,NA,NA,NA,NA,NA,NA,NA,NA,NA,NA,NA,NA,NA,NA,Begegnung,kukutana,d,NA,NA,NA,sdf,NA,0,NA
f619c,"""Falsch""-Screen",canvas.Screen,3_0_0_0_6_0_2,NA,NA,timeout,4996.4619999998,3123616.5999999,3123604.976,3123620.955,3128600.785,3128601.8000002,2023-08-09T16:06:01Z,3128617.417,NA,NA,NA,NA,NA,NA,NA,NA,NA,NA,NA,NA,NA,NA,NA,NA,NA,NA,NA,NA,Begegnung,kukutana,d,NA,NA,NA,sdf,0,0,NA
f619c,deep,flow.Sequence,3_0_0_0_6_0,NA,NA,completion,9642.4140000003,3118943.7000003,3118941.688,3118958.371,3128600.785,3128602.3000002,2023-08-09T16:06:01Z,3128617.417,NA,NA,NA,NA,NA,NA,NA,NA,NA,NA,NA,NA,NA,NA,NA,NA,NA,NA,NA,NA,Begegnung,kukutana,d,NA,NA,NA,sdf,NA,0,NA
f619c,shallow,flow.Sequence,3_0_0_0_6_1,NA,NA,skipped,NA,3128602.4000001,NA,NA,3128600.785,3128602.5999999,2023-08-09T16:06:01Z,3128617.417,NA,NA,NA,NA,NA,NA,NA,NA,NA,NA,NA,NA,NA,NA,NA,NA,NA,NA,NA,NA,Begegnung,kukutana,d,NA,NA,NA,sdf,NA,0,NA
f619c,task,flow.Sequence,3_0_0_0_6,NA,NA,completion,9642.4140000003,3118943.7000003,3118941.688,3118958.371,3128600.785,3128602.8000002,2023-08-09T16:06:01Z,3128617.417,NA,NA,NA,NA,NA,NA,NA,NA,NA,NA,NA,NA,NA,NA,NA,NA,NA,NA,NA,NA,Begegnung,kukutana,d,NA,NA,NA,sdf,NA,0,NA
f619c,Deep Question,html.Page,3_0_0_0_7_0_0,ubna,NA,form submission,3112.2830002862,3128603.2000003,3128600.785,3128617.417,3131729.7000003,3131729.9000001,2023-08-09T16:06:04Z,3131730.959,NA,NA,NA,NA,NA,NA,NA,NA,NA,NA,NA,NA,NA,NA,NA,NA,NA,NA,NA,NA,Genehmigung,idhini,d,NA,NA,NA,NA,NA,0,NA
f619c,"""Richtig""-Screen",canvas.Screen,3_0_0_0_7_0_1,NA,NA,skipped,NA,3131732.2000003,NA,NA,3131729.7000003,3131732.4000001,2023-08-09T16:06:04Z,3131730.959,NA,NA,NA,NA,NA,NA,NA,NA,NA,NA,NA,NA,NA,NA,NA,NA,NA,NA,NA,NA,Genehmigung,idhini,d,NA,NA,NA,sdf,NA,0,NA
f619c,"""Falsch""-Screen",canvas.Screen,3_0_0_0_7_0_2,NA,NA,timeout,4996.6170000001,3131733,3131714.936,3131730.959,3136710.165,3136711.7000003,2023-08-09T16:06:09Z,3136727.576,NA,NA,NA,NA,NA,NA,NA,NA,NA,NA,NA,NA,NA,NA,NA,NA,NA,NA,NA,NA,Genehmigung,idhini,d,NA,NA,NA,sdf,0,0,NA
f619c,deep,flow.Sequence,3_0_0_0_7_0,NA,NA,completion,8092.7480000001,3128603.0999999,3128600.785,3128617.417,3136710.165,3136711.9000001,2023-08-09T16:06:09Z,3136727.576,NA,NA,NA,NA,NA,NA,NA,NA,NA,NA,NA,NA,NA,NA,NA,NA,NA,NA,NA,NA,Genehmigung,idhini,d,NA,NA,NA,sdf,NA,0,NA
f619c,shallow,flow.Sequence,3_0_0_0_7_1,NA,NA,skipped,NA,3136712,NA,NA,3136710.165,3136712.0999999,2023-08-09T16:06:09Z,3136727.576,NA,NA,NA,NA,NA,NA,NA,NA,NA,NA,NA,NA,NA,NA,NA,NA,NA,NA,NA,NA,Genehmigung,idhini,d,NA,NA,NA,sdf,NA,0,NA
f619c,task,flow.Sequence,3_0_0_0_7,NA,NA,completion,8092.7480000001,3128603,3128600.785,3128617.417,3136710.165,3136712.0999999,2023-08-09T16:06:09Z,3136727.576,NA,NA,NA,NA,NA,NA,NA,NA,NA,NA,NA,NA,NA,NA,NA,NA,NA,NA,NA,NA,Genehmigung,idhini,d,NA,NA,NA,sdf,NA,0,NA
f619c,block,flow.Loop,3_0_0_0,NA,NA,completion,77185.825,3059509.2000003,3059506.506,3059524.34,3136710.165,3136712.2000003,2023-08-09T16:06:09Z,3136727.576,NA,NA,NA,NA,NA,NA,NA,NA,NA,NA,NA,NA,NA,NA,NA,NA,NA,NA,NA,NA,NA,NA,NA,NA,NA,NA,sdf,NA,0,NA
f619c,weiter,canvas.Screen,3_0_0_1,sdf,keypress(Space),response,1004.7240001909,3136712.2000003,3136710.165,3136727.576,3137732.3000002,3137733.4000001,2023-08-09T16:06:10Z,3137775.966,NA,NA,NA,NA,NA,NA,NA,NA,NA,NA,NA,NA,NA,NA,NA,NA,NA,NA,NA,NA,NA,NA,NA,NA,NA,NA,sdf,NA,0,NA
f619c,check continue,flow.Sequence,3_0_0,NA,NA,completion,78207.960000191,3059509.2000003,3059506.506,3059524.34,3137732.3000002,3137733.7000003,2023-08-09T16:06:10Z,3137775.966,NA,NA,NA,NA,NA,NA,NA,NA,NA,NA,NA,NA,NA,NA,NA,NA,NA,NA,NA,NA,NA,NA,NA,NA,NA,NA,sdf,NA,0,NA
f619c,deep,flow.Sequence,3_0_1_0_0_0,NA,NA,skipped,NA,3137772.8000002,NA,NA,3137732.3000002,3137772.9000001,2023-08-09T16:06:10Z,3137775.966,NA,NA,NA,NA,NA,NA,NA,NA,NA,NA,NA,NA,NA,NA,NA,NA,NA,NA,NA,NA,Inhalt,yaliyomo,s,kishawishi,hifadhi,kutembea,sdfdsf,NA,1,NA
f619c,Shallow Question,html.Page,3_0_1_0_0_1_0,yaliyomo,NA,form submission,7196.034,3137773,3137759.879,3137775.966,3144972,3144972.3000002,2023-08-09T16:06:17Z,3144987.481,NA,NA,NA,NA,NA,NA,NA,NA,NA,NA,NA,NA,NA,NA,NA,NA,NA,NA,NA,NA,Inhalt,yaliyomo,s,kishawishi,hifadhi,kutembea,NA,NA,1,NA
f619c,"""Richtig""-Screen",canvas.Screen,3_0_1_0_0_1_1,NA,NA,timeout,4995.2209999999,3144974.3000002,3144970.053,3144987.481,3149966.438,3149967.5,2023-08-09T16:06:22Z,3149982.702,NA,NA,NA,NA,NA,NA,NA,NA,NA,NA,NA,NA,NA,NA,NA,NA,NA,NA,NA,NA,Inhalt,yaliyomo,s,kishawishi,hifadhi,kutembea,sdfdsf,1,1,NA
f619c,"""Falsch""-Screen",canvas.Screen,3_0_1_0_0_1_2,NA,NA,skipped,NA,3149972.9000001,NA,NA,3149966.438,3149973.2000003,2023-08-09T16:06:22Z,3149982.702,NA,NA,NA,NA,NA,NA,NA,NA,NA,NA,NA,NA,NA,NA,NA,NA,NA,NA,NA,NA,Inhalt,yaliyomo,s,kishawishi,hifadhi,kutembea,sdfdsf,NA,1,NA
f619c,shallow,flow.Sequence,3_0_1_0_0_1,NA,NA,completion,12190.472,3137773,3137759.879,3137775.966,3149966.438,3149973.7000003,2023-08-09T16:06:22Z,3149982.702,NA,NA,NA,NA,NA,NA,NA,NA,NA,NA,NA,NA,NA,NA,NA,NA,NA,NA,NA,NA,Inhalt,yaliyomo,s,kishawishi,hifadhi,kutembea,sdfdsf,NA,1,NA
f619c,task,flow.Sequence,3_0_1_0_0,NA,NA,completion,12190.472,3137772.7000003,3137759.879,3137775.966,3149966.438,3149973.9000001,2023-08-09T16:06:22Z,3149982.702,NA,NA,NA,NA,NA,NA,NA,NA,NA,NA,NA,NA,NA,NA,NA,NA,NA,NA,NA,NA,Inhalt,yaliyomo,s,kishawishi,hifadhi,kutembea,sdfdsf,NA,1,NA
f619c,deep,flow.Sequence,3_0_1_0_1_0,NA,NA,skipped,NA,3149974.2000003,NA,NA,3149966.438,3149974.3000002,2023-08-09T16:06:22Z,3149982.702,NA,NA,NA,NA,NA,NA,NA,NA,NA,NA,NA,NA,NA,NA,NA,NA,NA,NA,NA,NA,Integrität,uadilifu,s,muungano,mtiririko,upunguaji,sdfdsf,NA,1,NA
f619c,Shallow Question,html.Page,3_0_1_0_1_1_0,uadilifu,NA,form submission,10242.397999905,3149974.5999999,3149966.438,3149982.702,3160225.0999999,3160225.3000002,2023-08-09T16:06:32Z,3160241.272,NA,NA,NA,NA,NA,NA,NA,NA,NA,NA,NA,NA,NA,NA,NA,NA,NA,NA,NA,NA,Integrität,uadilifu,s,muungano,mtiririko,upunguaji,NA,NA,1,NA
f619c,"""Richtig""-Screen",canvas.Screen,3_0_1_0_1_1_1,NA,NA,timeout,4995.4440000001,3160227.3000002,3160208.161,3160241.272,3165220.676,3165221.8000002,2023-08-09T16:06:37Z,3165236.716,NA,NA,NA,NA,NA,NA,NA,NA,NA,NA,NA,NA,NA,NA,NA,NA,NA,NA,NA,NA,Integrität,uadilifu,s,muungano,mtiririko,upunguaji,sdfdsf,1,1,NA
f619c,"""Falsch""-Screen",canvas.Screen,3_0_1_0_1_1_2,NA,NA,skipped,NA,3165227,NA,NA,3165220.676,3165227.2000003,2023-08-09T16:06:37Z,3165236.716,NA,NA,NA,NA,NA,NA,NA,NA,NA,NA,NA,NA,NA,NA,NA,NA,NA,NA,NA,NA,Integrität,uadilifu,s,muungano,mtiririko,upunguaji,sdfdsf,NA,1,NA
f619c,shallow,flow.Sequence,3_0_1_0_1_1,NA,NA,completion,15237.974,3149974.5,3149966.438,3149982.702,3165220.676,3165227.3000002,2023-08-09T16:06:37Z,3165236.716,NA,NA,NA,NA,NA,NA,NA,NA,NA,NA,NA,NA,NA,NA,NA,NA,NA,NA,NA,NA,Integrität,uadilifu,s,muungano,mtiririko,upunguaji,sdfdsf,NA,1,NA
f619c,task,flow.Sequence,3_0_1_0_1,NA,NA,completion,15237.974,3149974.0999999,3149966.438,3149982.702,3165220.676,3165227.4000001,2023-08-09T16:06:37Z,3165236.716,NA,NA,NA,NA,NA,NA,NA,NA,NA,NA,NA,NA,NA,NA,NA,NA,NA,NA,NA,NA,Integrität,uadilifu,s,muungano,mtiririko,upunguaji,sdfdsf,NA,1,NA
f619c,deep,flow.Sequence,3_0_1_0_2_0,NA,NA,skipped,NA,3165227.5,NA,NA,3165220.676,3165227.5,2023-08-09T16:06:37Z,3165236.716,NA,NA,NA,NA,NA,NA,NA,NA,NA,NA,NA,NA,NA,NA,NA,NA,NA,NA,NA,NA,Fleisch,mshakiki,s,kizunguzungu,mshikamano,angusho,sdfdsf,NA,1,NA
f619c,Shallow Question,html.Page,3_0_1_0_2_1_0,mshakiki,NA,form submission,4320.3839999046,3165227.5999999,3165220.676,3165236.716,3169557.0999999,3169557.3000002,2023-08-09T16:06:42Z,3169566.726,NA,NA,NA,NA,NA,NA,NA,NA,NA,NA,NA,NA,NA,NA,NA,NA,NA,NA,NA,NA,Fleisch,mshakiki,s,kizunguzungu,mshikamano,angusho,NA,NA,1,NA
f619c,"""Richtig""-Screen",canvas.Screen,3_0_1_0_2_1_1,NA,NA,timeout,4995.7550000004,3169559.0999999,3169550.139,3169566.726,3174546.36,3174547.5,2023-08-09T16:06:47Z,3174562.481,NA,NA,NA,NA,NA,NA,NA,NA,NA,NA,NA,NA,NA,NA,NA,NA,NA,NA,NA,NA,Fleisch,mshakiki,s,kizunguzungu,mshikamano,angusho,sdfdsf,1,1,NA
f619c,"""Falsch""-Screen",canvas.Screen,3_0_1_0_2_1_2,NA,NA,skipped,NA,3174553.0999999,NA,NA,3174546.36,3174553.5,2023-08-09T16:06:47Z,3174562.481,NA,NA,NA,NA,NA,NA,NA,NA,NA,NA,NA,NA,NA,NA,NA,NA,NA,NA,NA,NA,Fleisch,mshakiki,s,kizunguzungu,mshikamano,angusho,sdfdsf,NA,1,NA
f619c,shallow,flow.Sequence,3_0_1_0_2_1,NA,NA,completion,9309.6439999999,3165227.5,3165220.676,3165236.716,3174546.36,3174553.9000001,2023-08-09T16:06:47Z,3174562.481,NA,NA,NA,NA,NA,NA,NA,NA,NA,NA,NA,NA,NA,NA,NA,NA,NA,NA,NA,NA,Fleisch,mshakiki,s,kizunguzungu,mshikamano,angusho,sdfdsf,NA,1,NA
f619c,task,flow.Sequence,3_0_1_0_2,NA,NA,completion,9309.6439999999,3165227.4000001,3165220.676,3165236.716,3174546.36,3174554.2000003,2023-08-09T16:06:47Z,3174562.481,NA,NA,NA,NA,NA,NA,NA,NA,NA,NA,NA,NA,NA,NA,NA,NA,NA,NA,NA,NA,Fleisch,mshakiki,s,kizunguzungu,mshikamano,angusho,sdfdsf,NA,1,NA
f619c,Deep Question,html.Page,3_0_1_0_3_0_0,kukutana,NA,form submission,9942.719000286,3174554.5,3174546.36,3174562.481,3184505.2000003,3184505.5,2023-08-09T16:06:57Z,3184520.918,NA,NA,NA,NA,NA,NA,NA,NA,NA,NA,NA,NA,NA,NA,NA,NA,NA,NA,NA,NA,Begegnung,kukutana,d,NA,NA,NA,NA,NA,1,NA
f619c,"""Richtig""-Screen",canvas.Screen,3_0_1_0_3_0_1,NA,NA,timeout,4996.6039999998,3184508,3184504.838,3184520.918,3189500.688,3189501.8000002,2023-08-09T16:07:02Z,3189517.522,NA,NA,NA,NA,NA,NA,NA,NA,NA,NA,NA,NA,NA,NA,NA,NA,NA,NA,NA,NA,Begegnung,kukutana,d,NA,NA,NA,sdfdsf,1,1,NA
f619c,"""Falsch""-Screen",canvas.Screen,3_0_1_0_3_0_2,NA,NA,skipped,NA,3189506.2000003,NA,NA,3189500.688,3189506.4000001,2023-08-09T16:07:02Z,3189517.522,NA,NA,NA,NA,NA,NA,NA,NA,NA,NA,NA,NA,NA,NA,NA,NA,NA,NA,NA,NA,Begegnung,kukutana,d,NA,NA,NA,sdfdsf,NA,1,NA
f619c,deep,flow.Sequence,3_0_1_0_3_0,NA,NA,completion,14938.207,3174554.4000001,3174546.36,3174562.481,3189500.688,3189506.5,2023-08-09T16:07:02Z,3189517.522,NA,NA,NA,NA,NA,NA,NA,NA,NA,NA,NA,NA,NA,NA,NA,NA,NA,NA,NA,NA,Begegnung,kukutana,d,NA,NA,NA,sdfdsf,NA,1,NA
f619c,shallow,flow.Sequence,3_0_1_0_3_1,NA,NA,skipped,NA,3189506.5999999,NA,NA,3189500.688,3189506.5999999,2023-08-09T16:07:02Z,3189517.522,NA,NA,NA,NA,NA,NA,NA,NA,NA,NA,NA,NA,NA,NA,NA,NA,NA,NA,NA,NA,Begegnung,kukutana,d,NA,NA,NA,sdfdsf,NA,1,NA
f619c,task,flow.Sequence,3_0_1_0_3,NA,NA,completion,14938.207,3174554.3000002,3174546.36,3174562.481,3189500.688,3189506.7000003,2023-08-09T16:07:02Z,3189517.522,NA,NA,NA,NA,NA,NA,NA,NA,NA,NA,NA,NA,NA,NA,NA,NA,NA,NA,NA,NA,Begegnung,kukutana,d,NA,NA,NA,sdfdsf,NA,1,NA
f619c,Deep Question,html.Page,3_0_1_0_4_0_0,foleni,NA,form submission,3662.0779999048,3189506.7000003,3189500.688,3189517.522,3193179.5999999,3193179.7000003,2023-08-09T16:07:05Z,3193180.413,NA,NA,NA,NA,NA,NA,NA,NA,NA,NA,NA,NA,NA,NA,NA,NA,NA,NA,NA,NA,Schlange,foleni,d,NA,NA,NA,NA,NA,1,NA
f619c,"""Richtig""-Screen",canvas.Screen,3_0_1_0_4_0_1,NA,NA,timeout,4995.912,3193181.5,3193164.357,3193180.413,3198160.256,3198161.3000002,2023-08-09T16:07:10Z,3198176.325,NA,NA,NA,NA,NA,NA,NA,NA,NA,NA,NA,NA,NA,NA,NA,NA,NA,NA,NA,NA,Schlange,foleni,d,NA,NA,NA,sdfdsf,1,1,NA
f619c,"""Falsch""-Screen",canvas.Screen,3_0_1_0_4_0_2,NA,NA,skipped,NA,3198167,NA,NA,3198160.256,3198167.5,2023-08-09T16:07:10Z,3198176.325,NA,NA,NA,NA,NA,NA,NA,NA,NA,NA,NA,NA,NA,NA,NA,NA,NA,NA,NA,NA,Schlange,foleni,d,NA,NA,NA,sdfdsf,NA,1,NA
f619c,deep,flow.Sequence,3_0_1_0_4_0,NA,NA,completion,8642.7340000002,3189506.7000003,3189500.688,3189517.522,3198160.256,3198167.8000002,2023-08-09T16:07:10Z,3198176.325,NA,NA,NA,NA,NA,NA,NA,NA,NA,NA,NA,NA,NA,NA,NA,NA,NA,NA,NA,NA,Schlange,foleni,d,NA,NA,NA,sdfdsf,NA,1,NA
f619c,shallow,flow.Sequence,3_0_1_0_4_1,NA,NA,skipped,NA,3198168,NA,NA,3198160.256,3198168.2000003,2023-08-09T16:07:10Z,3198176.325,NA,NA,NA,NA,NA,NA,NA,NA,NA,NA,NA,NA,NA,NA,NA,NA,NA,NA,NA,NA,Schlange,foleni,d,NA,NA,NA,sdfdsf,NA,1,NA
f619c,task,flow.Sequence,3_0_1_0_4,NA,NA,completion,8642.7340000002,3189506.7000003,3189500.688,3189517.522,3198160.256,3198168.4000001,2023-08-09T16:07:10Z,3198176.325,NA,NA,NA,NA,NA,NA,NA,NA,NA,NA,NA,NA,NA,NA,NA,NA,NA,NA,NA,NA,Schlange,foleni,d,NA,NA,NA,sdfdsf,NA,1,NA
f619c,Deep Question,html.Page,3_0_1_0_5_0_0,intermiliana,NA,form submission,31049.175,3198168.8000002,3198160.256,3198176.325,3229225.5,3229225.7000003,2023-08-09T16:07:41Z,3229234.138,NA,NA,NA,NA,NA,NA,NA,NA,NA,NA,NA,NA,NA,NA,NA,NA,NA,NA,NA,NA,Toleranz,kuvumiliana,d,NA,NA,NA,NA,NA,1,NA
f619c,"""Richtig""-Screen",canvas.Screen,3_0_1_0_5_0_1,NA,NA,skipped,NA,3229228.0999999,NA,NA,3229225.5,3229228.3000002,2023-08-09T16:07:41Z,3229234.138,NA,NA,NA,NA,NA,NA,NA,NA,NA,NA,NA,NA,NA,NA,NA,NA,NA,NA,NA,NA,Toleranz,kuvumiliana,d,NA,NA,NA,sdfdsf,NA,1,NA
f619c,"""Falsch""-Screen",canvas.Screen,3_0_1_0_5_0_2,NA,NA,timeout,4996.628,3229229.0999999,3229218.227,3229234.138,3234213.811,3234214.8000002,2023-08-09T16:07:46Z,3234230.766,NA,NA,NA,NA,NA,NA,NA,NA,NA,NA,NA,NA,NA,NA,NA,NA,NA,NA,NA,NA,Toleranz,kuvumiliana,d,NA,NA,NA,sdfdsf,0,1,NA
f619c,deep,flow.Sequence,3_0_1_0_5_0,NA,NA,completion,36037.486,3198168.7000003,3198160.256,3198176.325,3234213.811,3234215.3000002,2023-08-09T16:07:46Z,3234230.766,NA,NA,NA,NA,NA,NA,NA,NA,NA,NA,NA,NA,NA,NA,NA,NA,NA,NA,NA,NA,Toleranz,kuvumiliana,d,NA,NA,NA,sdfdsf,NA,1,NA
f619c,shallow,flow.Sequence,3_0_1_0_5_1,NA,NA,skipped,NA,3234215.5,NA,NA,3234213.811,3234215.7000003,2023-08-09T16:07:46Z,3234230.766,NA,NA,NA,NA,NA,NA,NA,NA,NA,NA,NA,NA,NA,NA,NA,NA,NA,NA,NA,NA,Toleranz,kuvumiliana,d,NA,NA,NA,sdfdsf,NA,1,NA
f619c,task,flow.Sequence,3_0_1_0_5,NA,NA,completion,36037.486,3198168.5999999,3198160.256,3198176.325,3234213.811,3234215.9000001,2023-08-09T16:07:46Z,3234230.766,NA,NA,NA,NA,NA,NA,NA,NA,NA,NA,NA,NA,NA,NA,NA,NA,NA,NA,NA,NA,Toleranz,kuvumiliana,d,NA,NA,NA,sdfdsf,NA,1,NA
f619c,Deep Question,html.Page,3_0_1_0_6_0_0,idhabini,NA,form submission,11416.434000286,3234216.2000003,3234213.811,3234230.766,3245647.2000003,3245647.5,2023-08-09T16:07:58Z,3245653.939,NA,NA,NA,NA,NA,NA,NA,NA,NA,NA,NA,NA,NA,NA,NA,NA,NA,NA,NA,NA,Genehmigung,idhini,d,NA,NA,NA,NA,NA,1,NA
f619c,"""Richtig""-Screen",canvas.Screen,3_0_1_0_6_0_1,NA,NA,skipped,NA,3245649.7000003,NA,NA,3245647.2000003,3245649.9000001,2023-08-09T16:07:58Z,3245653.939,NA,NA,NA,NA,NA,NA,NA,NA,NA,NA,NA,NA,NA,NA,NA,NA,NA,NA,NA,NA,Genehmigung,idhini,d,NA,NA,NA,sdfdsf,NA,1,NA
f619c,"""Falsch""-Screen",canvas.Screen,3_0_1_0_6_0_2,NA,NA,timeout,4996.6120000002,3245650.4000001,3245637.556,3245653.939,3250633.781,3250634.8000002,2023-08-09T16:08:03Z,3250650.551,NA,NA,NA,NA,NA,NA,NA,NA,NA,NA,NA,NA,NA,NA,NA,NA,NA,NA,NA,NA,Genehmigung,idhini,d,NA,NA,NA,sdfdsf,0,1,NA
f619c,deep,flow.Sequence,3_0_1_0_6_0,NA,NA,completion,16403.015,3234216.2000003,3234213.811,3234230.766,3250633.781,3250635.2000003,2023-08-09T16:08:03Z,3250650.551,NA,NA,NA,NA,NA,NA,NA,NA,NA,NA,NA,NA,NA,NA,NA,NA,NA,NA,NA,NA,Genehmigung,idhini,d,NA,NA,NA,sdfdsf,NA,1,NA
f619c,shallow,flow.Sequence,3_0_1_0_6_1,NA,NA,skipped,NA,3250635.4000001,NA,NA,3250633.781,3250635.5999999,2023-08-09T16:08:03Z,3250650.551,NA,NA,NA,NA,NA,NA,NA,NA,NA,NA,NA,NA,NA,NA,NA,NA,NA,NA,NA,NA,Genehmigung,idhini,d,NA,NA,NA,sdfdsf,NA,1,NA
f619c,task,flow.Sequence,3_0_1_0_6,NA,NA,completion,16403.015,3234216,3234213.811,3234230.766,3250633.781,3250635.8000002,2023-08-09T16:08:03Z,3250650.551,NA,NA,NA,NA,NA,NA,NA,NA,NA,NA,NA,NA,NA,NA,NA,NA,NA,NA,NA,NA,Genehmigung,idhini,d,NA,NA,NA,sdfdsf,NA,1,NA
f619c,deep,flow.Sequence,3_0_1_0_7_0,NA,NA,skipped,NA,3250636,NA,NA,3250633.781,3250636.0999999,2023-08-09T16:08:03Z,3250650.551,NA,NA,NA,NA,NA,NA,NA,NA,NA,NA,NA,NA,NA,NA,NA,NA,NA,NA,NA,NA,Vermutung,udhanifu,s,haramia,tikisho,itifaki,sdfdsf,NA,1,NA
f619c,Shallow Question,html.Page,3_0_1_0_7_1_0,udhanifu,NA,form submission,4193.949,3250636.4000001,3250633.781,3250650.551,3254844.5,3254844.5999999,2023-08-09T16:08:07Z,3254846.438,NA,NA,NA,NA,NA,NA,NA,NA,NA,NA,NA,NA,NA,NA,NA,NA,NA,NA,NA,NA,Vermutung,udhanifu,s,haramia,tikisho,itifaki,NA,NA,1,NA
f619c,"""Richtig""-Screen",canvas.Screen,3_0_1_0_7_1_1,NA,NA,timeout,4995.861,3254846.4000001,3254830.319,3254846.438,3259826.211,3259827.3000002,2023-08-09T16:08:12Z,3259842.299,NA,NA,NA,NA,NA,NA,NA,NA,NA,NA,NA,NA,NA,NA,NA,NA,NA,NA,NA,NA,Vermutung,udhanifu,s,haramia,tikisho,itifaki,sdfdsf,1,1,NA
f619c,"""Falsch""-Screen",canvas.Screen,3_0_1_0_7_1_2,NA,NA,skipped,NA,3259832.5999999,NA,NA,3259826.211,3259833,2023-08-09T16:08:12Z,3259842.299,NA,NA,NA,NA,NA,NA,NA,NA,NA,NA,NA,NA,NA,NA,NA,NA,NA,NA,NA,NA,Vermutung,udhanifu,s,haramia,tikisho,itifaki,sdfdsf,NA,1,NA
f619c,shallow,flow.Sequence,3_0_1_0_7_1,NA,NA,completion,9175.6600000001,3250636.3000002,3250633.781,3250650.551,3259826.211,3259833.3000002,2023-08-09T16:08:12Z,3259842.299,NA,NA,NA,NA,NA,NA,NA,NA,NA,NA,NA,NA,NA,NA,NA,NA,NA,NA,NA,NA,Vermutung,udhanifu,s,haramia,tikisho,itifaki,sdfdsf,NA,1,NA
f619c,task,flow.Sequence,3_0_1_0_7,NA,NA,completion,9175.6600000001,3250635.9000001,3250633.781,3250650.551,3259826.211,3259833.5999999,2023-08-09T16:08:12Z,3259842.299,NA,NA,NA,NA,NA,NA,NA,NA,NA,NA,NA,NA,NA,NA,NA,NA,NA,NA,NA,NA,Vermutung,udhanifu,s,haramia,tikisho,itifaki,sdfdsf,NA,1,NA
f619c,block,flow.Loop,3_0_1_0,NA,NA,completion,122050.245,3137772.7000003,3137759.879,3137775.966,3259826.211,3259833.9000001,2023-08-09T16:08:12Z,3259842.299,NA,NA,NA,NA,NA,NA,NA,NA,NA,NA,NA,NA,NA,NA,NA,NA,NA,NA,NA,NA,NA,NA,NA,NA,NA,NA,sdfdsf,NA,1,NA
f619c,weiter,canvas.Screen,3_0_1_1,sdf,keypress(Space),response,1215.5010001906,3259834,3259826.211,3259842.299,3261057.8000002,3261059.0999999,2023-08-09T16:08:13Z,3261108.24,NA,NA,NA,NA,NA,NA,NA,NA,NA,NA,NA,NA,NA,NA,NA,NA,NA,NA,NA,NA,NA,NA,NA,NA,NA,NA,sdfdsf,NA,1,NA
f619c,check continue,flow.Sequence,3_0_1,NA,NA,completion,123281.83400019,3137772.7000003,3137759.879,3137775.966,3261057.8000002,3261059.5,2023-08-09T16:08:13Z,3261108.24,NA,NA,NA,NA,NA,NA,NA,NA,NA,NA,NA,NA,NA,NA,NA,NA,NA,NA,NA,NA,NA,NA,NA,NA,NA,NA,sdfdsf,NA,1,NA
f619c,Deep Question,html.Page,3_0_2_0_0_0_0,idhini,NA,form submission,7419.6600000951,3261094.0999999,3261091.962,3261108.24,3268527.9000001,3268528.0999999,2023-08-09T16:08:21Z,3268535.159,NA,NA,NA,NA,NA,NA,NA,NA,NA,NA,NA,NA,NA,NA,NA,NA,NA,NA,NA,NA,Genehmigung,idhini,d,NA,NA,NA,NA,NA,2,NA
f619c,"""Richtig""-Screen",canvas.Screen,3_0_2_0_0_0_1,NA,NA,timeout,4996.497,3268530.5,3268519.084,3268535.159,3273514.989,3273516.0999999,2023-08-09T16:08:26Z,3273531.656,NA,NA,NA,NA,NA,NA,NA,NA,NA,NA,NA,NA,NA,NA,NA,NA,NA,NA,NA,NA,Genehmigung,idhini,d,NA,NA,NA,sdf,1,2,NA
f619c,"""Falsch""-Screen",canvas.Screen,3_0_2_0_0_0_2,NA,NA,skipped,NA,3273521,NA,NA,3273514.989,3273521.2000003,2023-08-09T16:08:26Z,3273531.656,NA,NA,NA,NA,NA,NA,NA,NA,NA,NA,NA,NA,NA,NA,NA,NA,NA,NA,NA,NA,Genehmigung,idhini,d,NA,NA,NA,sdf,NA,2,NA
f619c,deep,flow.Sequence,3_0_2_0_0_0,NA,NA,completion,12406.749,3261094,3261091.962,3261108.24,3273514.989,3273521.3000002,2023-08-09T16:08:26Z,3273531.656,NA,NA,NA,NA,NA,NA,NA,NA,NA,NA,NA,NA,NA,NA,NA,NA,NA,NA,NA,NA,Genehmigung,idhini,d,NA,NA,NA,sdf,NA,2,NA
f619c,shallow,flow.Sequence,3_0_2_0_0_1,NA,NA,skipped,NA,3273521.3000002,NA,NA,3273514.989,3273521.4000001,2023-08-09T16:08:26Z,3273531.656,NA,NA,NA,NA,NA,NA,NA,NA,NA,NA,NA,NA,NA,NA,NA,NA,NA,NA,NA,NA,Genehmigung,idhini,d,NA,NA,NA,sdf,NA,2,NA
f619c,task,flow.Sequence,3_0_2_0_0,NA,NA,completion,12406.749,3261094,3261091.962,3261108.24,3273514.989,3273521.4000001,2023-08-09T16:08:26Z,3273531.656,NA,NA,NA,NA,NA,NA,NA,NA,NA,NA,NA,NA,NA,NA,NA,NA,NA,NA,NA,NA,Genehmigung,idhini,d,NA,NA,NA,sdf,NA,2,NA
f619c,deep,flow.Sequence,3_0_2_0_1_0,NA,NA,skipped,NA,3273521.5,NA,NA,3273514.989,3273521.5,2023-08-09T16:08:26Z,3273531.656,NA,NA,NA,NA,NA,NA,NA,NA,NA,NA,NA,NA,NA,NA,NA,NA,NA,NA,NA,NA,Inhalt,yaliyomo,s,kishawishi,hifadhi,kutembea,sdf,NA,2,NA
f619c,Shallow Question,html.Page,3_0_2_0_1_1_0,yaliyomo,NA,form submission,3449.7440000954,3273521.5999999,3273514.989,3273531.656,3276981.4000001,3276981.7000003,2023-08-09T16:08:29Z,3276994.862,NA,NA,NA,NA,NA,NA,NA,NA,NA,NA,NA,NA,NA,NA,NA,NA,NA,NA,NA,NA,Inhalt,yaliyomo,s,kishawishi,hifadhi,kutembea,NA,NA,2,NA
f619c,"""Richtig""-Screen",canvas.Screen,3_0_2_0_1_1_1,NA,NA,timeout,4996.5209999997,3276983.5999999,3276978.571,3276994.862,3281974.726,3281975.3000002,2023-08-09T16:08:34Z,3281991.383,NA,NA,NA,NA,NA,NA,NA,NA,NA,NA,NA,NA,NA,NA,NA,NA,NA,NA,NA,NA,Inhalt,yaliyomo,s,kishawishi,hifadhi,kutembea,sdf,1,2,NA
f619c,"""Falsch""-Screen",canvas.Screen,3_0_2_0_1_1_2,NA,NA,skipped,NA,3281977.8000002,NA,NA,3281974.726,3281978,2023-08-09T16:08:34Z,3281991.383,NA,NA,NA,NA,NA,NA,NA,NA,NA,NA,NA,NA,NA,NA,NA,NA,NA,NA,NA,NA,Inhalt,yaliyomo,s,kishawishi,hifadhi,kutembea,sdf,NA,2,NA
f619c,shallow,flow.Sequence,3_0_2_0_1_1,NA,NA,completion,8443.0699999998,3273521.5,3273514.989,3273531.656,3281974.726,3281978.2000003,2023-08-09T16:08:34Z,3281991.383,NA,NA,NA,NA,NA,NA,NA,NA,NA,NA,NA,NA,NA,NA,NA,NA,NA,NA,NA,NA,Inhalt,yaliyomo,s,kishawishi,hifadhi,kutembea,sdf,NA,2,NA
f619c,task,flow.Sequence,3_0_2_0_1,NA,NA,completion,8443.0699999998,3273521.5,3273514.989,3273531.656,3281974.726,3281978.3000002,2023-08-09T16:08:34Z,3281991.383,NA,NA,NA,NA,NA,NA,NA,NA,NA,NA,NA,NA,NA,NA,NA,NA,NA,NA,NA,NA,Inhalt,yaliyomo,s,kishawishi,hifadhi,kutembea,sdf,NA,2,NA
f619c,deep,flow.Sequence,3_0_2_0_2_0,NA,NA,skipped,NA,3281978.4000001,NA,NA,3281974.726,3281978.5,2023-08-09T16:08:34Z,3281991.383,NA,NA,NA,NA,NA,NA,NA,NA,NA,NA,NA,NA,NA,NA,NA,NA,NA,NA,NA,NA,Fleisch,mshakiki,s,kizunguzungu,mshikamano,angusho,sdf,NA,2,NA
f619c,Shallow Question,html.Page,3_0_2_0_2_1_0,mshakiki,NA,form submission,5776.5170000955,3281978.5,3281974.726,3281991.383,3287767.9000001,3287768.0999999,2023-08-09T16:08:40Z,3287769.359,NA,NA,NA,NA,NA,NA,NA,NA,NA,NA,NA,NA,NA,NA,NA,NA,NA,NA,NA,NA,Fleisch,mshakiki,s,kizunguzungu,mshikamano,angusho,NA,NA,2,NA
f619c,"""Richtig""-Screen",canvas.Screen,3_0_2_0_2_1_1,NA,NA,timeout,4995.9249999998,3287769.9000001,3287753.246,3287769.359,3292749.161,3292750.0999999,2023-08-09T16:08:45Z,3292765.284,NA,NA,NA,NA,NA,NA,NA,NA,NA,NA,NA,NA,NA,NA,NA,NA,NA,NA,NA,NA,Fleisch,mshakiki,s,kizunguzungu,mshikamano,angusho,sdf,1,2,NA
f619c,"""Falsch""-Screen",canvas.Screen,3_0_2_0_2_1_2,NA,NA,skipped,NA,3292755.4000001,NA,NA,3292749.161,3292755.7000003,2023-08-09T16:08:45Z,3292765.284,NA,NA,NA,NA,NA,NA,NA,NA,NA,NA,NA,NA,NA,NA,NA,NA,NA,NA,NA,NA,Fleisch,mshakiki,s,kizunguzungu,mshikamano,angusho,sdf,NA,2,NA
f619c,shallow,flow.Sequence,3_0_2_0_2_1,NA,NA,completion,10757.778,3281978.5,3281974.726,3281991.383,3292749.161,3292756.0999999,2023-08-09T16:08:45Z,3292765.284,NA,NA,NA,NA,NA,NA,NA,NA,NA,NA,NA,NA,NA,NA,NA,NA,NA,NA,NA,NA,Fleisch,mshakiki,s,kizunguzungu,mshikamano,angusho,sdf,NA,2,NA
f619c,task,flow.Sequence,3_0_2_0_2,NA,NA,completion,10757.778,3281978.4000001,3281974.726,3281991.383,3292749.161,3292756.4000001,2023-08-09T16:08:45Z,3292765.284,NA,NA,NA,NA,NA,NA,NA,NA,NA,NA,NA,NA,NA,NA,NA,NA,NA,NA,NA,NA,Fleisch,mshakiki,s,kizunguzungu,mshikamano,angusho,sdf,NA,2,NA
f619c,deep,flow.Sequence,3_0_2_0_3_0,NA,NA,skipped,NA,3292756.5999999,NA,NA,3292749.161,3292756.7000003,2023-08-09T16:08:45Z,3292765.284,NA,NA,NA,NA,NA,NA,NA,NA,NA,NA,NA,NA,NA,NA,NA,NA,NA,NA,NA,NA,Integrität,uadilifu,s,muungano,mtiririko,upunguaji,sdf,NA,2,NA
f619c,Shallow Question,html.Page,3_0_2_0_3_1_0,uadilifu,NA,form submission,4553.9160002861,3292756.9000001,3292749.161,3292765.284,3297319.2000003,3297319.4000001,2023-08-09T16:08:49Z,3297328.145,NA,NA,NA,NA,NA,NA,NA,NA,NA,NA,NA,NA,NA,NA,NA,NA,NA,NA,NA,NA,Integrität,uadilifu,s,muungano,mtiririko,upunguaji,NA,NA,2,NA
f619c,"""Richtig""-Screen",canvas.Screen,3_0_2_0_3_1_1,NA,NA,timeout,4995.9270000001,3297321.2000003,3297312.103,3297328.145,3302308.013,3302309.2000003,2023-08-09T16:08:54Z,3302324.072,NA,NA,NA,NA,NA,NA,NA,NA,NA,NA,NA,NA,NA,NA,NA,NA,NA,NA,NA,NA,Integrität,uadilifu,s,muungano,mtiririko,upunguaji,sdf,1,2,NA
f619c,"""Falsch""-Screen",canvas.Screen,3_0_2_0_3_1_2,NA,NA,skipped,NA,3302315,NA,NA,3302308.013,3302315.3000002,2023-08-09T16:08:54Z,3302324.072,NA,NA,NA,NA,NA,NA,NA,NA,NA,NA,NA,NA,NA,NA,NA,NA,NA,NA,NA,NA,Integrität,uadilifu,s,muungano,mtiririko,upunguaji,sdf,NA,2,NA
f619c,shallow,flow.Sequence,3_0_2_0_3_1,NA,NA,completion,9542.7289999998,3292756.8000002,3292749.161,3292765.284,3302308.013,3302315.7000003,2023-08-09T16:08:54Z,3302324.072,NA,NA,NA,NA,NA,NA,NA,NA,NA,NA,NA,NA,NA,NA,NA,NA,NA,NA,NA,NA,Integrität,uadilifu,s,muungano,mtiririko,upunguaji,sdf,NA,2,NA
f619c,task,flow.Sequence,3_0_2_0_3,NA,NA,completion,9542.7289999998,3292756.5,3292749.161,3292765.284,3302308.013,3302316,2023-08-09T16:08:54Z,3302324.072,NA,NA,NA,NA,NA,NA,NA,NA,NA,NA,NA,NA,NA,NA,NA,NA,NA,NA,NA,NA,Integrität,uadilifu,s,muungano,mtiririko,upunguaji,sdf,NA,2,NA
f619c,Deep Question,html.Page,3_0_2_0_4_0_0,kuvumiliana,NA,form submission,9490.4279999998,3302316.2000003,3302308.013,3302324.072,3311814.5,3311814.7000003,2023-08-09T16:09:04Z,3311816.217,NA,NA,NA,NA,NA,NA,NA,NA,NA,NA,NA,NA,NA,NA,NA,NA,NA,NA,NA,NA,Toleranz,kuvumiliana,d,NA,NA,NA,NA,NA,2,NA
f619c,"""Richtig""-Screen",canvas.Screen,3_0_2_0_4_0_1,NA,NA,timeout,4995.9669999997,3311816.8000002,3311800.149,3311816.217,3316796.037,3316797,2023-08-09T16:09:09Z,3316812.184,NA,NA,NA,NA,NA,NA,NA,NA,NA,NA,NA,NA,NA,NA,NA,NA,NA,NA,NA,NA,Toleranz,kuvumiliana,d,NA,NA,NA,sdf,1,2,NA
f619c,"""Falsch""-Screen",canvas.Screen,3_0_2_0_4_0_2,NA,NA,skipped,NA,3316802.3000002,NA,NA,3316796.037,3316802.7000003,2023-08-09T16:09:09Z,3316812.184,NA,NA,NA,NA,NA,NA,NA,NA,NA,NA,NA,NA,NA,NA,NA,NA,NA,NA,NA,NA,Toleranz,kuvumiliana,d,NA,NA,NA,sdf,NA,2,NA
f619c,deep,flow.Sequence,3_0_2_0_4_0,NA,NA,completion,14471.965,3302316.2000003,3302308.013,3302324.072,3316796.037,3316803,2023-08-09T16:09:09Z,3316812.184,NA,NA,NA,NA,NA,NA,NA,NA,NA,NA,NA,NA,NA,NA,NA,NA,NA,NA,NA,NA,Toleranz,kuvumiliana,d,NA,NA,NA,sdf,NA,2,NA
f619c,shallow,flow.Sequence,3_0_2_0_4_1,NA,NA,skipped,NA,3316803.0999999,NA,NA,3316796.037,3316803.2000003,2023-08-09T16:09:09Z,3316812.184,NA,NA,NA,NA,NA,NA,NA,NA,NA,NA,NA,NA,NA,NA,NA,NA,NA,NA,NA,NA,Toleranz,kuvumiliana,d,NA,NA,NA,sdf,NA,2,NA
f619c,task,flow.Sequence,3_0_2_0_4,NA,NA,completion,14471.965,3302316.0999999,3302308.013,3302324.072,3316796.037,3316803.5,2023-08-09T16:09:09Z,3316812.184,NA,NA,NA,NA,NA,NA,NA,NA,NA,NA,NA,NA,NA,NA,NA,NA,NA,NA,NA,NA,Toleranz,kuvumiliana,d,NA,NA,NA,sdf,NA,2,NA
f619c,deep,flow.Sequence,3_0_2_0_5_0,NA,NA,skipped,NA,3316803.5999999,NA,NA,3316796.037,3316803.8000002,2023-08-09T16:09:09Z,3316812.184,NA,NA,NA,NA,NA,NA,NA,NA,NA,NA,NA,NA,NA,NA,NA,NA,NA,NA,NA,NA,Vermutung,udhanifu,s,haramia,tikisho,itifaki,sdf,NA,2,NA
f619c,Shallow Question,html.Page,3_0_2_0_5_1_0,udhanifu,NA,form submission,4034.0160002862,3316803.9000001,3316796.037,3316812.184,3320846.2000003,3320846.4000001,2023-08-09T16:09:13Z,3320858.777,NA,NA,NA,NA,NA,NA,NA,NA,NA,NA,NA,NA,NA,NA,NA,NA,NA,NA,NA,NA,Vermutung,udhanifu,s,haramia,tikisho,itifaki,NA,NA,2,NA
f619c,"""Richtig""-Screen",canvas.Screen,3_0_2_0_5_1_1,NA,NA,timeout,4996.577,3320848.4000001,3320842.649,3320858.777,3325838.743,3325839.8000002,2023-08-09T16:09:18Z,3325855.354,NA,NA,NA,NA,NA,NA,NA,NA,NA,NA,NA,NA,NA,NA,NA,NA,NA,NA,NA,NA,Vermutung,udhanifu,s,haramia,tikisho,itifaki,sdf,1,2,NA
f619c,"""Falsch""-Screen",canvas.Screen,3_0_2_0_5_1_2,NA,NA,skipped,NA,3325844.5,NA,NA,3325838.743,3325844.7000003,2023-08-09T16:09:18Z,3325855.354,NA,NA,NA,NA,NA,NA,NA,NA,NA,NA,NA,NA,NA,NA,NA,NA,NA,NA,NA,NA,Vermutung,udhanifu,s,haramia,tikisho,itifaki,sdf,NA,2,NA
f619c,shallow,flow.Sequence,3_0_2_0_5_1,NA,NA,completion,9026.5589999999,3316803.9000001,3316796.037,3316812.184,3325838.743,3325844.7000003,2023-08-09T16:09:18Z,3325855.354,NA,NA,NA,NA,NA,NA,NA,NA,NA,NA,NA,NA,NA,NA,NA,NA,NA,NA,NA,NA,Vermutung,udhanifu,s,haramia,tikisho,itifaki,sdf,NA,2,NA
f619c,task,flow.Sequence,3_0_2_0_5,NA,NA,completion,9026.5589999999,3316803.5999999,3316796.037,3316812.184,3325838.743,3325844.9000001,2023-08-09T16:09:18Z,3325855.354,NA,NA,NA,NA,NA,NA,NA,NA,NA,NA,NA,NA,NA,NA,NA,NA,NA,NA,NA,NA,Vermutung,udhanifu,s,haramia,tikisho,itifaki,sdf,NA,2,NA
f619c,Deep Question,html.Page,3_0_2_0_6_0_0,kakatada,NA,form submission,20868.146,3325844.9000001,3325838.743,3325855.354,3346723.5,3346723.7000003,2023-08-09T16:09:39Z,3346737.598,NA,NA,NA,NA,NA,NA,NA,NA,NA,NA,NA,NA,NA,NA,NA,NA,NA,NA,NA,NA,Begegnung,kukutana,d,NA,NA,NA,NA,NA,2,NA
f619c,"""Richtig""-Screen",canvas.Screen,3_0_2_0_6_0_1,NA,NA,skipped,NA,3346725.5,NA,NA,3346723.5,3346725.7000003,2023-08-09T16:09:39Z,3346737.598,NA,NA,NA,NA,NA,NA,NA,NA,NA,NA,NA,NA,NA,NA,NA,NA,NA,NA,NA,NA,Begegnung,kukutana,d,NA,NA,NA,sdf,NA,2,NA
f619c,"""Falsch""-Screen",canvas.Screen,3_0_2_0_6_0_2,NA,NA,timeout,4996.4859999996,3346726.2000003,3346721.481,3346737.598,3351717.341,3351718.3000002,2023-08-09T16:09:44Z,3351734.084,NA,NA,NA,NA,NA,NA,NA,NA,NA,NA,NA,NA,NA,NA,NA,NA,NA,NA,NA,NA,Begegnung,kukutana,d,NA,NA,NA,sdf,0,2,NA
f619c,deep,flow.Sequence,3_0_2_0_6_0,NA,NA,completion,25861.987,3325844.9000001,3325838.743,3325855.354,3351717.341,3351718.7000003,2023-08-09T16:09:44Z,3351734.084,NA,NA,NA,NA,NA,NA,NA,NA,NA,NA,NA,NA,NA,NA,NA,NA,NA,NA,NA,NA,Begegnung,kukutana,d,NA,NA,NA,sdf,NA,2,NA
f619c,shallow,flow.Sequence,3_0_2_0_6_1,NA,NA,skipped,NA,3351718.9000001,NA,NA,3351717.341,3351719.0999999,2023-08-09T16:09:44Z,3351734.084,NA,NA,NA,NA,NA,NA,NA,NA,NA,NA,NA,NA,NA,NA,NA,NA,NA,NA,NA,NA,Begegnung,kukutana,d,NA,NA,NA,sdf,NA,2,NA
f619c,task,flow.Sequence,3_0_2_0_6,NA,NA,completion,25861.987,3325844.9000001,3325838.743,3325855.354,3351717.341,3351719.5,2023-08-09T16:09:44Z,3351734.084,NA,NA,NA,NA,NA,NA,NA,NA,NA,NA,NA,NA,NA,NA,NA,NA,NA,NA,NA,NA,Begegnung,kukutana,d,NA,NA,NA,sdf,NA,2,NA
f619c,Deep Question,html.Page,3_0_2_0_7_0_0,foleni,NA,form submission,6161.5159999048,3351719.7000003,3351717.341,3351734.084,3357895.5999999,3357895.8000002,2023-08-09T16:09:50Z,3357911.733,NA,NA,NA,NA,NA,NA,NA,NA,NA,NA,NA,NA,NA,NA,NA,NA,NA,NA,NA,NA,Schlange,foleni,d,NA,NA,NA,NA,NA,2,NA
f619c,"""Richtig""-Screen",canvas.Screen,3_0_2_0_7_0_1,NA,NA,timeout,4995.9180000001,3357898.5999999,3357878.703,3357911.733,3362891.485,3362892.5,2023-08-09T16:09:55Z,3362907.651,NA,NA,NA,NA,NA,NA,NA,NA,NA,NA,NA,NA,NA,NA,NA,NA,NA,NA,NA,NA,Schlange,foleni,d,NA,NA,NA,sdf,1,2,NA
f619c,"""Falsch""-Screen",canvas.Screen,3_0_2_0_7_0_2,NA,NA,skipped,NA,3362897.0999999,NA,NA,3362891.485,3362897.2000003,2023-08-09T16:09:55Z,3362907.651,NA,NA,NA,NA,NA,NA,NA,NA,NA,NA,NA,NA,NA,NA,NA,NA,NA,NA,NA,NA,Schlange,foleni,d,NA,NA,NA,sdf,NA,2,NA
f619c,deep,flow.Sequence,3_0_2_0_7_0,NA,NA,completion,11157.401,3351719.7000003,3351717.341,3351734.084,3362891.485,3362897.3000002,2023-08-09T16:09:55Z,3362907.651,NA,NA,NA,NA,NA,NA,NA,NA,NA,NA,NA,NA,NA,NA,NA,NA,NA,NA,NA,NA,Schlange,foleni,d,NA,NA,NA,sdf,NA,2,NA
f619c,shallow,flow.Sequence,3_0_2_0_7_1,NA,NA,skipped,NA,3362897.4000001,NA,NA,3362891.485,3362897.4000001,2023-08-09T16:09:55Z,3362907.651,NA,NA,NA,NA,NA,NA,NA,NA,NA,NA,NA,NA,NA,NA,NA,NA,NA,NA,NA,NA,Schlange,foleni,d,NA,NA,NA,sdf,NA,2,NA
f619c,task,flow.Sequence,3_0_2_0_7,NA,NA,completion,11157.401,3351719.5999999,3351717.341,3351734.084,3362891.485,3362897.4000001,2023-08-09T16:09:55Z,3362907.651,NA,NA,NA,NA,NA,NA,NA,NA,NA,NA,NA,NA,NA,NA,NA,NA,NA,NA,NA,NA,Schlange,foleni,d,NA,NA,NA,sdf,NA,2,NA
f619c,block,flow.Loop,3_0_2_0,NA,NA,completion,101783.245,3261093.9000001,3261091.962,3261108.24,3362891.485,3362897.5,2023-08-09T16:09:55Z,3362907.651,NA,NA,NA,NA,NA,NA,NA,NA,NA,NA,NA,NA,NA,NA,NA,NA,NA,NA,NA,NA,NA,NA,NA,NA,NA,NA,sdf,NA,2,NA
f619c,weiter,canvas.Screen,3_0_2_1,sdf,keypress(Space),response,699.64900019066,3362897.5999999,3362891.485,3362907.651,3363607.3000002,3363607.9000001,2023-08-09T16:09:56Z,3364106.564,NA,NA,NA,NA,NA,NA,NA,NA,NA,NA,NA,NA,NA,NA,NA,NA,NA,NA,NA,NA,NA,NA,NA,NA,NA,NA,sdf,NA,2,NA
f619c,check continue,flow.Sequence,3_0_2,NA,NA,completion,102499.06000019,3261093.9000001,3261091.962,3261108.24,3363607.3000002,3363608.0999999,2023-08-09T16:09:56Z,3364106.564,NA,NA,NA,NA,NA,NA,NA,NA,NA,NA,NA,NA,NA,NA,NA,NA,NA,NA,NA,NA,NA,NA,NA,NA,NA,NA,sdf,NA,2,NA
f619c,check continue,flow.Sequence,3_0_3,NA,NA,skipped,NA,3363647.2000003,NA,NA,3363607.3000002,3363647.4000001,2023-08-09T16:09:56Z,3364106.564,NA,NA,NA,NA,NA,NA,NA,NA,NA,NA,NA,NA,NA,NA,NA,NA,NA,NA,NA,NA,NA,NA,NA,NA,NA,NA,qt,NA,3,NA
f619c,check continue,flow.Sequence,3_0_4,NA,NA,skipped,NA,3363673.5,NA,NA,3363607.3000002,3363673.5999999,2023-08-09T16:09:56Z,3364106.564,NA,NA,NA,NA,NA,NA,NA,NA,NA,NA,NA,NA,NA,NA,NA,NA,NA,NA,NA,NA,NA,NA,NA,NA,NA,NA,sd,NA,4,NA
f619c,check continue,flow.Sequence,3_0_5,NA,NA,skipped,NA,3363694.0999999,NA,NA,3363607.3000002,3363694.4000001,2023-08-09T16:09:56Z,3364106.564,NA,NA,NA,NA,NA,NA,NA,NA,NA,NA,NA,NA,NA,NA,NA,NA,NA,NA,NA,NA,NA,NA,NA,NA,NA,NA,sdf,NA,5,NA
f619c,check continue,flow.Sequence,3_0_6,NA,NA,skipped,NA,3363710.5999999,NA,NA,3363607.3000002,3363710.7000003,2023-08-09T16:09:56Z,3364106.564,NA,NA,NA,NA,NA,NA,NA,NA,NA,NA,NA,NA,NA,NA,NA,NA,NA,NA,NA,NA,NA,NA,NA,NA,NA,NA,dfs,NA,6,NA
f619c,check continue,flow.Sequence,3_0_7,NA,NA,skipped,NA,3363727.2000003,NA,NA,3363607.3000002,3363727.3000002,2023-08-09T16:09:56Z,3364106.564,NA,NA,NA,NA,NA,NA,NA,NA,NA,NA,NA,NA,NA,NA,NA,NA,NA,NA,NA,NA,NA,NA,NA,NA,NA,NA,df,NA,7,NA
f619c,check continue,flow.Sequence,3_0_8,NA,NA,skipped,NA,3363743.5999999,NA,NA,3363607.3000002,3363743.8000002,2023-08-09T16:09:56Z,3364106.564,NA,NA,NA,NA,NA,NA,NA,NA,NA,NA,NA,NA,NA,NA,NA,NA,NA,NA,NA,NA,NA,NA,NA,NA,NA,NA,dfs,NA,8,NA
f619c,check continue,flow.Sequence,3_0_9,NA,NA,skipped,NA,3363760.5999999,NA,NA,3363607.3000002,3363760.7000003,2023-08-09T16:09:56Z,3364106.564,NA,NA,NA,NA,NA,NA,NA,NA,NA,NA,NA,NA,NA,NA,NA,NA,NA,NA,NA,NA,NA,NA,NA,NA,NA,NA,dsf,NA,9,NA
f619c,check continue,flow.Sequence,3_0_10,NA,NA,skipped,NA,3363778.0999999,NA,NA,3363607.3000002,3363778.3000002,2023-08-09T16:09:56Z,3364106.564,NA,NA,NA,NA,NA,NA,NA,NA,NA,NA,NA,NA,NA,NA,NA,NA,NA,NA,NA,NA,NA,NA,NA,NA,NA,NA,df,NA,10,NA
f619c,check continue,flow.Sequence,3_0_11,NA,NA,skipped,NA,3363795.3000002,NA,NA,3363607.3000002,3363795.3000002,2023-08-09T16:09:56Z,3364106.564,NA,NA,NA,NA,NA,NA,NA,NA,NA,NA,NA,NA,NA,NA,NA,NA,NA,NA,NA,NA,NA,NA,NA,NA,NA,NA,dfs,NA,11,NA
f619c,check continue,flow.Sequence,3_0_12,NA,NA,skipped,NA,3363811.9000001,NA,NA,3363607.3000002,3363812,2023-08-09T16:09:56Z,3364106.564,NA,NA,NA,NA,NA,NA,NA,NA,NA,NA,NA,NA,NA,NA,NA,NA,NA,NA,NA,NA,NA,NA,NA,NA,NA,NA,dsf,NA,12,NA
f619c,check continue,flow.Sequence,3_0_13,NA,NA,skipped,NA,3363827.4000001,NA,NA,3363607.3000002,3363827.4000001,2023-08-09T16:09:56Z,3364106.564,NA,NA,NA,NA,NA,NA,NA,NA,NA,NA,NA,NA,NA,NA,NA,NA,NA,NA,NA,NA,NA,NA,NA,NA,NA,NA,dsf,NA,13,NA
f619c,check continue,flow.Sequence,3_0_14,NA,NA,skipped,NA,3363843,NA,NA,3363607.3000002,3363843.0999999,2023-08-09T16:09:56Z,3364106.564,NA,NA,NA,NA,NA,NA,NA,NA,NA,NA,NA,NA,NA,NA,NA,NA,NA,NA,NA,NA,NA,NA,NA,NA,NA,NA,NA,NA,14,NA
f619c,check continue,flow.Sequence,3_0_15,NA,NA,skipped,NA,3363858.8000002,NA,NA,3363607.3000002,3363859,2023-08-09T16:09:56Z,3364106.564,NA,NA,NA,NA,NA,NA,NA,NA,NA,NA,NA,NA,NA,NA,NA,NA,NA,NA,NA,NA,NA,NA,NA,NA,NA,NA,NA,NA,15,NA
f619c,check continue,flow.Sequence,3_0_16,NA,NA,skipped,NA,3363877.0999999,NA,NA,3363607.3000002,3363877.2000003,2023-08-09T16:09:56Z,3364106.564,NA,NA,NA,NA,NA,NA,NA,NA,NA,NA,NA,NA,NA,NA,NA,NA,NA,NA,NA,NA,NA,NA,NA,NA,NA,NA,NA,NA,16,NA
f619c,check continue,flow.Sequence,3_0_17,NA,NA,skipped,NA,3363892.8000002,NA,NA,3363607.3000002,3363892.9000001,2023-08-09T16:09:56Z,3364106.564,NA,NA,NA,NA,NA,NA,NA,NA,NA,NA,NA,NA,NA,NA,NA,NA,NA,NA,NA,NA,NA,NA,NA,NA,NA,NA,NA,NA,17,NA
f619c,check continue,flow.Sequence,3_0_18,NA,NA,skipped,NA,3363908.5,NA,NA,3363607.3000002,3363908.7000003,2023-08-09T16:09:56Z,3364106.564,NA,NA,NA,NA,NA,NA,NA,NA,NA,NA,NA,NA,NA,NA,NA,NA,NA,NA,NA,NA,NA,NA,NA,NA,NA,NA,NA,NA,18,NA
f619c,check continue,flow.Sequence,3_0_19,NA,NA,skipped,NA,3363927.4000001,NA,NA,3363607.3000002,3363927.5999999,2023-08-09T16:09:56Z,3364106.564,NA,NA,NA,NA,NA,NA,NA,NA,NA,NA,NA,NA,NA,NA,NA,NA,NA,NA,NA,NA,NA,NA,NA,NA,NA,NA,NA,NA,19,NA
f619c,check continue,flow.Sequence,3_0_20,NA,NA,skipped,NA,3363944.4000001,NA,NA,3363607.3000002,3363944.5999999,2023-08-09T16:09:56Z,3364106.564,NA,NA,NA,NA,NA,NA,NA,NA,NA,NA,NA,NA,NA,NA,NA,NA,NA,NA,NA,NA,NA,NA,NA,NA,NA,NA,NA,NA,20,NA
f619c,check continue,flow.Sequence,3_0_21,NA,NA,skipped,NA,3363964.2000003,NA,NA,3363607.3000002,3363964.4000001,2023-08-09T16:09:56Z,3364106.564,NA,NA,NA,NA,NA,NA,NA,NA,NA,NA,NA,NA,NA,NA,NA,NA,NA,NA,NA,NA,NA,NA,NA,NA,NA,NA,NA,NA,21,NA
f619c,check continue,flow.Sequence,3_0_22,NA,NA,skipped,NA,3363980,NA,NA,3363607.3000002,3363980,2023-08-09T16:09:56Z,3364106.564,NA,NA,NA,NA,NA,NA,NA,NA,NA,NA,NA,NA,NA,NA,NA,NA,NA,NA,NA,NA,NA,NA,NA,NA,NA,NA,NA,NA,22,NA
f619c,check continue,flow.Sequence,3_0_23,NA,NA,skipped,NA,3363994.9000001,NA,NA,3363607.3000002,3363994.9000001,2023-08-09T16:09:56Z,3364106.564,NA,NA,NA,NA,NA,NA,NA,NA,NA,NA,NA,NA,NA,NA,NA,NA,NA,NA,NA,NA,NA,NA,NA,NA,NA,NA,NA,NA,23,NA
f619c,check continue,flow.Sequence,3_0_24,NA,NA,skipped,NA,3364018.5,NA,NA,3363607.3000002,3364018.5999999,2023-08-09T16:09:56Z,3364106.564,NA,NA,NA,NA,NA,NA,NA,NA,NA,NA,NA,NA,NA,NA,NA,NA,NA,NA,NA,NA,NA,NA,NA,NA,NA,NA,NA,NA,24,NA
f619c,check continue,flow.Sequence,3_0_25,NA,NA,skipped,NA,3364040.5,NA,NA,3363607.3000002,3364040.7000003,2023-08-09T16:09:56Z,3364106.564,NA,NA,NA,NA,NA,NA,NA,NA,NA,NA,NA,NA,NA,NA,NA,NA,NA,NA,NA,NA,NA,NA,NA,NA,NA,NA,NA,NA,25,NA
f619c,check continue,flow.Sequence,3_0_26,NA,NA,skipped,NA,3364059.5,NA,NA,3363607.3000002,3364059.5999999,2023-08-09T16:09:56Z,3364106.564,NA,NA,NA,NA,NA,NA,NA,NA,NA,NA,NA,NA,NA,NA,NA,NA,NA,NA,NA,NA,NA,NA,NA,NA,NA,NA,NA,NA,26,NA
f619c,check continue,flow.Sequence,3_0_27,NA,NA,skipped,NA,3364073.7000003,NA,NA,3363607.3000002,3364073.8000002,2023-08-09T16:09:56Z,3364106.564,NA,NA,NA,NA,NA,NA,NA,NA,NA,NA,NA,NA,NA,NA,NA,NA,NA,NA,NA,NA,NA,NA,NA,NA,NA,NA,NA,NA,27,NA
f619c,check continue,flow.Sequence,3_0_28,NA,NA,skipped,NA,3364089.2000003,NA,NA,3363607.3000002,3364089.3000002,2023-08-09T16:09:56Z,3364106.564,NA,NA,NA,NA,NA,NA,NA,NA,NA,NA,NA,NA,NA,NA,NA,NA,NA,NA,NA,NA,NA,NA,NA,NA,NA,NA,NA,NA,28,NA
f619c,check continue,flow.Sequence,3_0_29,NA,NA,skipped,NA,3364103.4000001,NA,NA,3363607.3000002,3364103.5,2023-08-09T16:09:56Z,3364106.564,NA,NA,NA,NA,NA,NA,NA,NA,NA,NA,NA,NA,NA,NA,NA,NA,NA,NA,NA,NA,NA,NA,NA,NA,NA,NA,NA,NA,29,NA
f619c,until continue,flow.Loop,3_0,NA,NA,completion,304082.96000019,3059487.5999999,3059506.506,3059524.34,3363607.3000002,3364103.5999999,2023-08-09T16:09:56Z,3364106.564,NA,NA,NA,NA,NA,NA,NA,NA,NA,NA,NA,NA,NA,NA,NA,NA,NA,NA,NA,NA,NA,NA,NA,NA,NA,NA,NA,NA,NA,NA
f619c,block 1,flow.Sequence,3,NA,NA,completion,304082.96000019,3059487.5,3059506.506,3059524.34,3363607.3000002,3364103.7000003,2023-08-09T16:09:56Z,3364106.564,NA,NA,NA,NA,NA,NA,NA,NA,NA,NA,NA,NA,NA,NA,NA,NA,NA,NA,NA,NA,NA,NA,NA,NA,NA,NA,NA,NA,NA,NA
f619c,1.Part Over,canvas.Screen,4,NA,keypress(Space),response,1921.0359999049,3364103.8000002,3364090.301,3364106.564,3366027.5999999,3366028.9000001,2023-08-09T16:09:58Z,3366121.677,NA,NA,NA,NA,NA,NA,NA,NA,NA,NA,NA,NA,NA,NA,NA,NA,NA,NA,NA,NA,NA,NA,NA,NA,NA,NA,NA,NA,NA,NA
f619c,Deep Question,html.Page,5_0_0_0_0_0_0,bubua,NA,form submission,3994.1230001906,3366107.3000002,3366104.923,3366121.677,3370115.8000002,3370115.9000001,2023-08-09T16:10:02Z,3370118.321,NA,NA,NA,NA,NA,NA,NA,NA,NA,NA,NA,NA,NA,NA,NA,NA,NA,NA,NA,NA,Flexibilität,kubadilika,d,NA,NA,NA,NA,NA,0,NA
f619c,"""Richtig""-Screen",canvas.Screen,5_0_0_0_0_0_1,NA,NA,skipped,NA,3370118.3000002,NA,NA,3370115.8000002,3370118.5,2023-08-09T16:10:02Z,3370118.321,NA,NA,NA,NA,NA,NA,NA,NA,NA,NA,NA,NA,NA,NA,NA,NA,NA,NA,NA,NA,Flexibilität,kubadilika,d,NA,NA,NA,sdf,NA,0,NA
f619c,"""Falsch""-Screen",canvas.Screen,5_0_0_0_0_0_2,NA,NA,timeout,4995.8689999999,3370119,3370102.252,3370118.321,3375098.112,3375099.0999999,2023-08-09T16:10:07Z,3375114.19,NA,NA,NA,NA,NA,NA,NA,NA,NA,NA,NA,NA,NA,NA,NA,NA,NA,NA,NA,NA,Flexibilität,kubadilika,d,NA,NA,NA,sdf,0,0,NA
f619c,deep,flow.Sequence,5_0_0_0_0_0,NA,NA,completion,8976.4350000001,3366107.2000003,3366104.923,3366121.677,3375098.112,3375099.5,2023-08-09T16:10:07Z,3375114.19,NA,NA,NA,NA,NA,NA,NA,NA,NA,NA,NA,NA,NA,NA,NA,NA,NA,NA,NA,NA,Flexibilität,kubadilika,d,NA,NA,NA,sdf,NA,0,NA
f619c,shallow,flow.Sequence,5_0_0_0_0_1,NA,NA,skipped,NA,3375099.7000003,NA,NA,3375098.112,3375099.8000002,2023-08-09T16:10:07Z,3375114.19,NA,NA,NA,NA,NA,NA,NA,NA,NA,NA,NA,NA,NA,NA,NA,NA,NA,NA,NA,NA,Flexibilität,kubadilika,d,NA,NA,NA,sdf,NA,0,NA
f619c,task,flow.Sequence,5_0_0_0_0,NA,NA,completion,8976.4350000001,3366107.2000003,3366104.923,3366121.677,3375098.112,3375100.8000002,2023-08-09T16:10:07Z,3375114.19,NA,NA,NA,NA,NA,NA,NA,NA,NA,NA,NA,NA,NA,NA,NA,NA,NA,NA,NA,NA,Flexibilität,kubadilika,d,NA,NA,NA,sdf,NA,0,NA
f619c,deep,flow.Sequence,5_0_0_0_1_0,NA,NA,skipped,NA,3375101.0999999,NA,NA,3375098.112,3375101.4000001,2023-08-09T16:10:07Z,3375114.19,NA,NA,NA,NA,NA,NA,NA,NA,NA,NA,NA,NA,NA,NA,NA,NA,NA,NA,NA,NA,Wechsel,ugeuzaji,s,utambulisho,kujenga,wasiwasi,sdf,NA,0,NA
f619c,Shallow Question,html.Page,5_0_0_0_1_1_0,kujenga,NA,form submission,3960.9099999047,3375101.7000003,3375098.112,3375114.19,3379075.0999999,3379075.2000003,2023-08-09T16:10:11Z,3379077.617,NA,NA,NA,NA,NA,NA,NA,NA,NA,NA,NA,NA,NA,NA,NA,NA,NA,NA,NA,NA,Wechsel,ugeuzaji,s,utambulisho,kujenga,wasiwasi,NA,NA,0,NA
f619c,"""Richtig""-Screen",canvas.Screen,5_0_0_0_1_1_1,NA,NA,skipped,NA,3379077.0999999,NA,NA,3379075.0999999,3379077.2000003,2023-08-09T16:10:11Z,3379077.617,NA,NA,NA,NA,NA,NA,NA,NA,NA,NA,NA,NA,NA,NA,NA,NA,NA,NA,NA,NA,Wechsel,ugeuzaji,s,utambulisho,kujenga,wasiwasi,sdf,NA,0,NA
f619c,"""Falsch""-Screen",canvas.Screen,5_0_0_0_1_1_2,NA,NA,timeout,4996.4339999999,3379077.9000001,3379061.092,3379077.617,3384057.439,3384058.4000001,2023-08-09T16:10:16Z,3384074.051,NA,NA,NA,NA,NA,NA,NA,NA,NA,NA,NA,NA,NA,NA,NA,NA,NA,NA,NA,NA,Wechsel,ugeuzaji,s,utambulisho,kujenga,wasiwasi,sdf,0,0,NA
f619c,shallow,flow.Sequence,5_0_0_0_1_1,NA,NA,completion,8943.2489999998,3375101.7000003,3375098.112,3375114.19,3384057.439,3384058.9000001,2023-08-09T16:10:16Z,3384074.051,NA,NA,NA,NA,NA,NA,NA,NA,NA,NA,NA,NA,NA,NA,NA,NA,NA,NA,NA,NA,Wechsel,ugeuzaji,s,utambulisho,kujenga,wasiwasi,sdf,NA,0,NA
f619c,task,flow.Sequence,5_0_0_0_1,NA,NA,completion,8943.2489999998,3375101.0999999,3375098.112,3375114.19,3384057.439,3384059.2000003,2023-08-09T16:10:16Z,3384074.051,NA,NA,NA,NA,NA,NA,NA,NA,NA,NA,NA,NA,NA,NA,NA,NA,NA,NA,NA,NA,Wechsel,ugeuzaji,s,utambulisho,kujenga,wasiwasi,sdf,NA,0,NA
f619c,Deep Question,html.Page,5_0_0_0_2_0_0,baba,NA,form submission,3231.6490002861,3384059.4000001,3384057.439,3384074.051,3387305.7000003,3387305.9000001,2023-08-09T16:10:19Z,3387320.811,NA,NA,NA,NA,NA,NA,NA,NA,NA,NA,NA,NA,NA,NA,NA,NA,NA,NA,NA,NA,Schock,mshtuko,d,NA,NA,NA,NA,NA,0,NA
f619c,"""Richtig""-Screen",canvas.Screen,5_0_0_0_2_0_1,NA,NA,skipped,NA,3387307.8000002,NA,NA,3387305.7000003,3387307.9000001,2023-08-09T16:10:19Z,3387320.811,NA,NA,NA,NA,NA,NA,NA,NA,NA,NA,NA,NA,NA,NA,NA,NA,NA,NA,NA,NA,Schock,mshtuko,d,NA,NA,NA,sdf,NA,0,NA
f619c,"""Falsch""-Screen",canvas.Screen,5_0_0_0_2_0_2,NA,NA,timeout,4996.1429999997,3387308.5,3387304.216,3387320.811,3392300.713,3392301.8000002,2023-08-09T16:10:24Z,3392316.954,NA,NA,NA,NA,NA,NA,NA,NA,NA,NA,NA,NA,NA,NA,NA,NA,NA,NA,NA,NA,Schock,mshtuko,d,NA,NA,NA,sdf,0,0,NA
f619c,deep,flow.Sequence,5_0_0_0_2_0,NA,NA,completion,8226.662,3384059.3000002,3384057.439,3384074.051,3392300.713,3392302.4000001,2023-08-09T16:10:24Z,3392316.954,NA,NA,NA,NA,NA,NA,NA,NA,NA,NA,NA,NA,NA,NA,NA,NA,NA,NA,NA,NA,Schock,mshtuko,d,NA,NA,NA,sdf,NA,0,NA
f619c,shallow,flow.Sequence,5_0_0_0_2_1,NA,NA,skipped,NA,3392302.5,NA,NA,3392300.713,3392302.8000002,2023-08-09T16:10:24Z,3392316.954,NA,NA,NA,NA,NA,NA,NA,NA,NA,NA,NA,NA,NA,NA,NA,NA,NA,NA,NA,NA,Schock,mshtuko,d,NA,NA,NA,sdf,NA,0,NA
f619c,task,flow.Sequence,5_0_0_0_2,NA,NA,completion,8226.662,3384059.3000002,3384057.439,3384074.051,3392300.713,3392303,2023-08-09T16:10:24Z,3392316.954,NA,NA,NA,NA,NA,NA,NA,NA,NA,NA,NA,NA,NA,NA,NA,NA,NA,NA,NA,NA,Schock,mshtuko,d,NA,NA,NA,sdf,NA,0,NA
f619c,deep,flow.Sequence,5_0_0_0_3_0,NA,NA,skipped,NA,3392303.2000003,NA,NA,3392300.713,3392303.3000002,2023-08-09T16:10:24Z,3392316.954,NA,NA,NA,NA,NA,NA,NA,NA,NA,NA,NA,NA,NA,NA,NA,NA,NA,NA,NA,NA,Erneuerung,ukarabati,s,ushawishi,ukalifu,unyonyaji,sdf,NA,0,NA
f619c,Shallow Question,html.Page,5_0_0_0_3_1_0,ukarabati,NA,form submission,4962.4460000955,3392303.5,3392300.713,3392316.954,3397279.4000001,3397279.5999999,2023-08-09T16:10:29Z,3397296.627,NA,NA,NA,NA,NA,NA,NA,NA,NA,NA,NA,NA,NA,NA,NA,NA,NA,NA,NA,NA,Erneuerung,ukarabati,s,ushawishi,ukalifu,unyonyaji,NA,NA,0,NA
f619c,"""Richtig""-Screen",canvas.Screen,5_0_0_0_3_1_1,NA,NA,timeout,4995.2910000002,3397281.7000003,3397263.236,3397296.627,3402275.687,3402276.7000003,2023-08-09T16:10:34Z,3402291.918,NA,NA,NA,NA,NA,NA,NA,NA,NA,NA,NA,NA,NA,NA,NA,NA,NA,NA,NA,NA,Erneuerung,ukarabati,s,ushawishi,ukalifu,unyonyaji,sdf,1,0,NA
f619c,"""Falsch""-Screen",canvas.Screen,5_0_0_0_3_1_2,NA,NA,skipped,NA,3402282.2000003,NA,NA,3402275.687,3402282.5999999,2023-08-09T16:10:34Z,3402291.918,NA,NA,NA,NA,NA,NA,NA,NA,NA,NA,NA,NA,NA,NA,NA,NA,NA,NA,NA,NA,Erneuerung,ukarabati,s,ushawishi,ukalifu,unyonyaji,sdf,NA,0,NA
f619c,shallow,flow.Sequence,5_0_0_0_3_1,NA,NA,completion,9958.733,3392303.4000001,3392300.713,3392316.954,3402275.687,3402282.9000001,2023-08-09T16:10:34Z,3402291.918,NA,NA,NA,NA,NA,NA,NA,NA,NA,NA,NA,NA,NA,NA,NA,NA,NA,NA,NA,NA,Erneuerung,ukarabati,s,ushawishi,ukalifu,unyonyaji,sdf,NA,0,NA
f619c,task,flow.Sequence,5_0_0_0_3,NA,NA,completion,9958.733,3392303,3392300.713,3392316.954,3402275.687,3402283.0999999,2023-08-09T16:10:34Z,3402291.918,NA,NA,NA,NA,NA,NA,NA,NA,NA,NA,NA,NA,NA,NA,NA,NA,NA,NA,NA,NA,Erneuerung,ukarabati,s,ushawishi,ukalifu,unyonyaji,sdf,NA,0,NA
f619c,deep,flow.Sequence,5_0_0_0_4_0,NA,NA,skipped,NA,3402283.4000001,NA,NA,3402275.687,3402283.5,2023-08-09T16:10:34Z,3402291.918,NA,NA,NA,NA,NA,NA,NA,NA,NA,NA,NA,NA,NA,NA,NA,NA,NA,NA,NA,NA,Verpackung,ufungaji,s,uhusiano,upimaji,uchunguzi,sdf,NA,0,NA
f619c,Shallow Question,html.Page,5_0_0_0_4_1_0,uhusiano,NA,form submission,4949.0819999999,3402283.7000003,3402275.687,3402291.918,3407241,3407241.0999999,2023-08-09T16:10:39Z,3407254.433,NA,NA,NA,NA,NA,NA,NA,NA,NA,NA,NA,NA,NA,NA,NA,NA,NA,NA,NA,NA,Verpackung,ufungaji,s,uhusiano,upimaji,uchunguzi,NA,NA,0,NA
f619c,"""Richtig""-Screen",canvas.Screen,5_0_0_0_4_1_1,NA,NA,skipped,NA,3407243,NA,NA,3407241,3407243.2000003,2023-08-09T16:10:39Z,3407254.433,NA,NA,NA,NA,NA,NA,NA,NA,NA,NA,NA,NA,NA,NA,NA,NA,NA,NA,NA,NA,Verpackung,ufungaji,s,uhusiano,upimaji,uchunguzi,sdf,NA,0,NA
f619c,"""Falsch""-Screen",canvas.Screen,5_0_0_0_4_1_2,NA,NA,timeout,4996.6629999997,3407243.7000003,3407237.916,3407254.433,3412234.274,3412235.3000002,2023-08-09T16:10:44Z,3412251.096,NA,NA,NA,NA,NA,NA,NA,NA,NA,NA,NA,NA,NA,NA,NA,NA,NA,NA,NA,NA,Verpackung,ufungaji,s,uhusiano,upimaji,uchunguzi,sdf,0,0,NA
f619c,shallow,flow.Sequence,5_0_0_0_4_1,NA,NA,completion,9942.3560000001,3402283.5999999,3402275.687,3402291.918,3412234.274,3412235.7000003,2023-08-09T16:10:44Z,3412251.096,NA,NA,NA,NA,NA,NA,NA,NA,NA,NA,NA,NA,NA,NA,NA,NA,NA,NA,NA,NA,Verpackung,ufungaji,s,uhusiano,upimaji,uchunguzi,sdf,NA,0,NA
f619c,task,flow.Sequence,5_0_0_0_4,NA,NA,completion,9942.3560000001,3402283.3000002,3402275.687,3402291.918,3412234.274,3412236,2023-08-09T16:10:44Z,3412251.096,NA,NA,NA,NA,NA,NA,NA,NA,NA,NA,NA,NA,NA,NA,NA,NA,NA,NA,NA,NA,Verpackung,ufungaji,s,uhusiano,upimaji,uchunguzi,sdf,NA,0,NA
f619c,Deep Question,html.Page,5_0_0_0_5_0_0,huna,NA,form submission,3455.2040001908,3412236.3000002,3412234.274,3412251.096,3415706.3000002,3415706.5,2023-08-09T16:10:48Z,3415731.482,NA,NA,NA,NA,NA,NA,NA,NA,NA,NA,NA,NA,NA,NA,NA,NA,NA,NA,NA,NA,Atmosphäre,angahewa,d,NA,NA,NA,NA,NA,0,NA
f619c,"""Richtig""-Screen",canvas.Screen,5_0_0_0_5_0_1,NA,NA,skipped,NA,3415709.2000003,NA,NA,3415706.3000002,3415709.2000003,2023-08-09T16:10:48Z,3415731.482,NA,NA,NA,NA,NA,NA,NA,NA,NA,NA,NA,NA,NA,NA,NA,NA,NA,NA,NA,NA,Atmosphäre,angahewa,d,NA,NA,NA,sdf,NA,0,NA
f619c,"""Falsch""-Screen",canvas.Screen,5_0_0_0_5_0_2,NA,NA,timeout,4995.2110000001,3415710.2000003,3415714.188,3415731.482,3420710.635,3420711.5999999,2023-08-09T16:10:53Z,3420726.693,NA,NA,NA,NA,NA,NA,NA,NA,NA,NA,NA,NA,NA,NA,NA,NA,NA,NA,NA,NA,Atmosphäre,angahewa,d,NA,NA,NA,sdf,0,0,NA
f619c,deep,flow.Sequence,5_0_0_0_5_0,NA,NA,completion,8459.5389999999,3412236.2000003,3412234.274,3412251.096,3420710.635,3420711.9000001,2023-08-09T16:10:53Z,3420726.693,NA,NA,NA,NA,NA,NA,NA,NA,NA,NA,NA,NA,NA,NA,NA,NA,NA,NA,NA,NA,Atmosphäre,angahewa,d,NA,NA,NA,sdf,NA,0,NA
f619c,shallow,flow.Sequence,5_0_0_0_5_1,NA,NA,skipped,NA,3420712.2000003,NA,NA,3420710.635,3420712.4000001,2023-08-09T16:10:53Z,3420726.693,NA,NA,NA,NA,NA,NA,NA,NA,NA,NA,NA,NA,NA,NA,NA,NA,NA,NA,NA,NA,Atmosphäre,angahewa,d,NA,NA,NA,sdf,NA,0,NA
f619c,task,flow.Sequence,5_0_0_0_5,NA,NA,completion,8459.5389999999,3412236.2000003,3412234.274,3412251.096,3420710.635,3420712.5999999,2023-08-09T16:10:53Z,3420726.693,NA,NA,NA,NA,NA,NA,NA,NA,NA,NA,NA,NA,NA,NA,NA,NA,NA,NA,NA,NA,Atmosphäre,angahewa,d,NA,NA,NA,sdf,NA,0,NA
f619c,deep,flow.Sequence,5_0_0_0_6_0,NA,NA,skipped,NA,3420712.8000002,NA,NA,3420710.635,3420713,2023-08-09T16:10:53Z,3420726.693,NA,NA,NA,NA,NA,NA,NA,NA,NA,NA,NA,NA,NA,NA,NA,NA,NA,NA,NA,NA,Hoffnung,matarajio,s,kutaalamika,uratibu,mvumbuzi,sdf,NA,0,NA
f619c,Shallow Question,html.Page,5_0_0_0_6_1_0,uratibu,NA,form submission,3891.0070002861,3420713.2000003,3420710.635,3420726.693,3424617.7000003,3424617.9000001,2023-08-09T16:10:57Z,3424623.521,NA,NA,NA,NA,NA,NA,NA,NA,NA,NA,NA,NA,NA,NA,NA,NA,NA,NA,NA,NA,Hoffnung,matarajio,s,kutaalamika,uratibu,mvumbuzi,NA,NA,0,NA
f619c,"""Richtig""-Screen",canvas.Screen,5_0_0_0_6_1_1,NA,NA,skipped,NA,3424619.9000001,NA,NA,3424617.7000003,3424620,2023-08-09T16:10:57Z,3424623.521,NA,NA,NA,NA,NA,NA,NA,NA,NA,NA,NA,NA,NA,NA,NA,NA,NA,NA,NA,NA,Hoffnung,matarajio,s,kutaalamika,uratibu,mvumbuzi,sdf,NA,0,NA
f619c,"""Falsch""-Screen",canvas.Screen,5_0_0_0_6_1_2,NA,NA,timeout,4996.4009999996,3424620.5,3424607.453,3424623.521,3429603.279,3429604.4000001,2023-08-09T16:11:02Z,3429619.922,NA,NA,NA,NA,NA,NA,NA,NA,NA,NA,NA,NA,NA,NA,NA,NA,NA,NA,NA,NA,Hoffnung,matarajio,s,kutaalamika,uratibu,mvumbuzi,sdf,0,0,NA
f619c,shallow,flow.Sequence,5_0_0_0_6_1,NA,NA,completion,8876.5860000001,3420713.2000003,3420710.635,3420726.693,3429603.279,3429604.9000001,2023-08-09T16:11:02Z,3429619.922,NA,NA,NA,NA,NA,NA,NA,NA,NA,NA,NA,NA,NA,NA,NA,NA,NA,NA,NA,NA,Hoffnung,matarajio,s,kutaalamika,uratibu,mvumbuzi,sdf,NA,0,NA
f619c,task,flow.Sequence,5_0_0_0_6,NA,NA,completion,8876.5860000001,3420712.8000002,3420710.635,3420726.693,3429603.279,3429605.0999999,2023-08-09T16:11:02Z,3429619.922,NA,NA,NA,NA,NA,NA,NA,NA,NA,NA,NA,NA,NA,NA,NA,NA,NA,NA,NA,NA,Hoffnung,matarajio,s,kutaalamika,uratibu,mvumbuzi,sdf,NA,0,NA
f619c,Deep Question,html.Page,5_0_0_0_7_0_0,huna,NA,form submission,3251.9780000956,3429605.3000002,3429603.279,3429619.922,3432871.9000001,3432872.0999999,2023-08-09T16:11:05Z,3432883.657,NA,NA,NA,NA,NA,NA,NA,NA,NA,NA,NA,NA,NA,NA,NA,NA,NA,NA,NA,NA,Theorie,nadharia,d,NA,NA,NA,NA,NA,0,NA
f619c,"""Richtig""-Screen",canvas.Screen,5_0_0_0_7_0_1,NA,NA,skipped,NA,3432874.2000003,NA,NA,3432871.9000001,3432874.4000001,2023-08-09T16:11:05Z,3432883.657,NA,NA,NA,NA,NA,NA,NA,NA,NA,NA,NA,NA,NA,NA,NA,NA,NA,NA,NA,NA,Theorie,nadharia,d,NA,NA,NA,sdf,NA,0,NA
f619c,"""Falsch""-Screen",canvas.Screen,5_0_0_0_7_0_2,NA,NA,timeout,4995.6629999997,3432875.0999999,3432866.814,3432883.657,3437863.054,3437864,2023-08-09T16:11:10Z,3437879.32,NA,NA,NA,NA,NA,NA,NA,NA,NA,NA,NA,NA,NA,NA,NA,NA,NA,NA,NA,NA,Theorie,nadharia,d,NA,NA,NA,sdf,0,0,NA
f619c,deep,flow.Sequence,5_0_0_0_7_0,NA,NA,completion,8243.1320000002,3429605.3000002,3429603.279,3429619.922,3437863.054,3437864.4000001,2023-08-09T16:11:10Z,3437879.32,NA,NA,NA,NA,NA,NA,NA,NA,NA,NA,NA,NA,NA,NA,NA,NA,NA,NA,NA,NA,Theorie,nadharia,d,NA,NA,NA,sdf,NA,0,NA
f619c,shallow,flow.Sequence,5_0_0_0_7_1,NA,NA,skipped,NA,3437864.5,NA,NA,3437863.054,3437864.7000003,2023-08-09T16:11:10Z,3437879.32,NA,NA,NA,NA,NA,NA,NA,NA,NA,NA,NA,NA,NA,NA,NA,NA,NA,NA,NA,NA,Theorie,nadharia,d,NA,NA,NA,sdf,NA,0,NA
f619c,task,flow.Sequence,5_0_0_0_7,NA,NA,completion,8243.1320000002,3429605.3000002,3429603.279,3429619.922,3437863.054,3437864.9000001,2023-08-09T16:11:10Z,3437879.32,NA,NA,NA,NA,NA,NA,NA,NA,NA,NA,NA,NA,NA,NA,NA,NA,NA,NA,NA,NA,Theorie,nadharia,d,NA,NA,NA,sdf,NA,0,NA
f619c,block,flow.Loop,5_0_0_0,NA,NA,completion,71741.377,3366107.2000003,3366104.923,3366121.677,3437863.054,3437865.2000003,2023-08-09T16:11:10Z,3437879.32,NA,NA,NA,NA,NA,NA,NA,NA,NA,NA,NA,NA,NA,NA,NA,NA,NA,NA,NA,NA,NA,NA,NA,NA,NA,NA,sdf,NA,0,NA
f619c,weiter,canvas.Screen,5_0_0_1,sdf,keypress(Space),response,1059.0800000955,3437865.5,3437863.054,3437879.32,3438938.4000001,3438940.5999999,2023-08-09T16:11:11Z,3439011.656,NA,NA,NA,NA,NA,NA,NA,NA,NA,NA,NA,NA,NA,NA,NA,NA,NA,NA,NA,NA,NA,NA,NA,NA,NA,NA,sdf,NA,0,NA
f619c,check continue,flow.Sequence,5_0_0,NA,NA,completion,72816.723000095,3366107.2000003,3366104.923,3366121.677,3438938.4000001,3438941.0999999,2023-08-09T16:11:11Z,3439011.656,NA,NA,NA,NA,NA,NA,NA,NA,NA,NA,NA,NA,NA,NA,NA,NA,NA,NA,NA,NA,NA,NA,NA,NA,NA,NA,sdf,NA,0,NA
f619c,Deep Question,html.Page,5_0_1_0_0_0_0,angahewa,NA,form submission,6219.1440001908,3439004.5999999,3438995.25,3439011.656,3445230.8000002,3445230.9000001,2023-08-09T16:11:17Z,3445239.872,NA,NA,NA,NA,NA,NA,NA,NA,NA,NA,NA,NA,NA,NA,NA,NA,NA,NA,NA,NA,Atmosphäre,angahewa,d,NA,NA,NA,NA,NA,1,NA
f619c,"""Richtig""-Screen",canvas.Screen,5_0_1_0_0_0_1,NA,NA,timeout,4996.6710000001,3445233.5,3445223.972,3445239.872,3450219.329,3450220.4000001,2023-08-09T16:11:22Z,3450236.543,NA,NA,NA,NA,NA,NA,NA,NA,NA,NA,NA,NA,NA,NA,NA,NA,NA,NA,NA,NA,Atmosphäre,angahewa,d,NA,NA,NA,sdfdsf,1,1,NA
f619c,"""Falsch""-Screen",canvas.Screen,5_0_1_0_0_0_2,NA,NA,skipped,NA,3450226,NA,NA,3450219.329,3450226.0999999,2023-08-09T16:11:22Z,3450236.543,NA,NA,NA,NA,NA,NA,NA,NA,NA,NA,NA,NA,NA,NA,NA,NA,NA,NA,NA,NA,Atmosphäre,angahewa,d,NA,NA,NA,sdfdsf,NA,1,NA
f619c,deep,flow.Sequence,5_0_1_0_0_0,NA,NA,completion,11207.673,3439004.5,3438995.25,3439011.656,3450219.329,3450226.2000003,2023-08-09T16:11:22Z,3450236.543,NA,NA,NA,NA,NA,NA,NA,NA,NA,NA,NA,NA,NA,NA,NA,NA,NA,NA,NA,NA,Atmosphäre,angahewa,d,NA,NA,NA,sdfdsf,NA,1,NA
f619c,shallow,flow.Sequence,5_0_1_0_0_1,NA,NA,skipped,NA,3450226.3000002,NA,NA,3450219.329,3450226.3000002,2023-08-09T16:11:22Z,3450236.543,NA,NA,NA,NA,NA,NA,NA,NA,NA,NA,NA,NA,NA,NA,NA,NA,NA,NA,NA,NA,Atmosphäre,angahewa,d,NA,NA,NA,sdfdsf,NA,1,NA
f619c,task,flow.Sequence,5_0_1_0_0,NA,NA,completion,11207.673,3439004.5,3438995.25,3439011.656,3450219.329,3450226.4000001,2023-08-09T16:11:22Z,3450236.543,NA,NA,NA,NA,NA,NA,NA,NA,NA,NA,NA,NA,NA,NA,NA,NA,NA,NA,NA,NA,Atmosphäre,angahewa,d,NA,NA,NA,sdfdsf,NA,1,NA
f619c,deep,flow.Sequence,5_0_1_0_1_0,NA,NA,skipped,NA,3450226.4000001,NA,NA,3450219.329,3450226.4000001,2023-08-09T16:11:22Z,3450236.543,NA,NA,NA,NA,NA,NA,NA,NA,NA,NA,NA,NA,NA,NA,NA,NA,NA,NA,NA,NA,Hoffnung,matarajio,s,kutaalamika,uratibu,mvumbuzi,sdfdsf,NA,1,NA
f619c,Shallow Question,html.Page,5_0_1_0_1_1_0,matarajio,NA,form submission,5242.157000286,3450226.5,3450219.329,3450236.543,3455478.7000003,3455478.9000001,2023-08-09T16:11:28Z,3455481.446,NA,NA,NA,NA,NA,NA,NA,NA,NA,NA,NA,NA,NA,NA,NA,NA,NA,NA,NA,NA,Hoffnung,matarajio,s,kutaalamika,uratibu,mvumbuzi,NA,NA,1,NA
f619c,"""Richtig""-Screen",canvas.Screen,5_0_1_0_1_1_1,NA,NA,timeout,4996.6740000001,3455480.8000002,3455465.091,3455481.446,3460461.012,3460462.0999999,2023-08-09T16:11:33Z,3460478.12,NA,NA,NA,NA,NA,NA,NA,NA,NA,NA,NA,NA,NA,NA,NA,NA,NA,NA,NA,NA,Hoffnung,matarajio,s,kutaalamika,uratibu,mvumbuzi,sdfdsf,1,1,NA
f619c,"""Falsch""-Screen",canvas.Screen,5_0_1_0_1_1_2,NA,NA,skipped,NA,3460467.2000003,NA,NA,3460461.012,3460467.3000002,2023-08-09T16:11:33Z,3460478.12,NA,NA,NA,NA,NA,NA,NA,NA,NA,NA,NA,NA,NA,NA,NA,NA,NA,NA,NA,NA,Hoffnung,matarajio,s,kutaalamika,uratibu,mvumbuzi,sdfdsf,NA,1,NA
f619c,shallow,flow.Sequence,5_0_1_0_1_1,NA,NA,completion,10224.469,3450226.5,3450219.329,3450236.543,3460461.012,3460467.4000001,2023-08-09T16:11:33Z,3460478.12,NA,NA,NA,NA,NA,NA,NA,NA,NA,NA,NA,NA,NA,NA,NA,NA,NA,NA,NA,NA,Hoffnung,matarajio,s,kutaalamika,uratibu,mvumbuzi,sdfdsf,NA,1,NA
f619c,task,flow.Sequence,5_0_1_0_1,NA,NA,completion,10224.469,3450226.4000001,3450219.329,3450236.543,3460461.012,3460467.5,2023-08-09T16:11:33Z,3460478.12,NA,NA,NA,NA,NA,NA,NA,NA,NA,NA,NA,NA,NA,NA,NA,NA,NA,NA,NA,NA,Hoffnung,matarajio,s,kutaalamika,uratibu,mvumbuzi,sdfdsf,NA,1,NA
f619c,deep,flow.Sequence,5_0_1_0_2_0,NA,NA,skipped,NA,3460467.5,NA,NA,3460461.012,3460467.5999999,2023-08-09T16:11:33Z,3460478.12,NA,NA,NA,NA,NA,NA,NA,NA,NA,NA,NA,NA,NA,NA,NA,NA,NA,NA,NA,NA,Verpackung,ufungaji,s,uhusiano,upimaji,uchunguzi,sdfdsf,NA,1,NA
f619c,Shallow Question,html.Page,5_0_1_0_2_1_0,ufungaji,NA,form submission,5089.3799999999,3460467.5999999,3460461.012,3460478.12,3465567.5,3465567.5999999,2023-08-09T16:11:38Z,3465573.176,NA,NA,NA,NA,NA,NA,NA,NA,NA,NA,NA,NA,NA,NA,NA,NA,NA,NA,NA,NA,Verpackung,ufungaji,s,uhusiano,upimaji,uchunguzi,NA,NA,1,NA
f619c,"""Richtig""-Screen",canvas.Screen,5_0_1_0_2_1_1,NA,NA,timeout,4996.3939999999,3465569.4000001,3465556.647,3465573.176,3470552.66,3470554.8000002,2023-08-09T16:11:43Z,3470569.57,NA,NA,NA,NA,NA,NA,NA,NA,NA,NA,NA,NA,NA,NA,NA,NA,NA,NA,NA,NA,Verpackung,ufungaji,s,uhusiano,upimaji,uchunguzi,sdfdsf,1,1,NA
f619c,"""Falsch""-Screen",canvas.Screen,5_0_1_0_2_1_2,NA,NA,skipped,NA,3470559.5,NA,NA,3470552.66,3470559.7000003,2023-08-09T16:11:43Z,3470569.57,NA,NA,NA,NA,NA,NA,NA,NA,NA,NA,NA,NA,NA,NA,NA,NA,NA,NA,NA,NA,Verpackung,ufungaji,s,uhusiano,upimaji,uchunguzi,sdfdsf,NA,1,NA
f619c,shallow,flow.Sequence,5_0_1_0_2_1,NA,NA,completion,10074.54,3460467.5999999,3460461.012,3460478.12,3470552.66,3470559.8000002,2023-08-09T16:11:43Z,3470569.57,NA,NA,NA,NA,NA,NA,NA,NA,NA,NA,NA,NA,NA,NA,NA,NA,NA,NA,NA,NA,Verpackung,ufungaji,s,uhusiano,upimaji,uchunguzi,sdfdsf,NA,1,NA
f619c,task,flow.Sequence,5_0_1_0_2,NA,NA,completion,10074.54,3460467.5,3460461.012,3460478.12,3470552.66,3470559.9000001,2023-08-09T16:11:43Z,3470569.57,NA,NA,NA,NA,NA,NA,NA,NA,NA,NA,NA,NA,NA,NA,NA,NA,NA,NA,NA,NA,Verpackung,ufungaji,s,uhusiano,upimaji,uchunguzi,sdfdsf,NA,1,NA
f619c,Deep Question,html.Page,5_0_1_0_3_0_0,mshtuko,NA,form submission,6280.1300002863,3470559.9000001,3470552.66,3470569.57,3476849.7000003,3476849.9000001,2023-08-09T16:11:49Z,3476863.874,NA,NA,NA,NA,NA,NA,NA,NA,NA,NA,NA,NA,NA,NA,NA,NA,NA,NA,NA,NA,Schock,mshtuko,d,NA,NA,NA,NA,NA,1,NA
f619c,"""Richtig""-Screen",canvas.Screen,5_0_1_0_3_0_1,NA,NA,timeout,4995.9590000003,3476851.8000002,3476847.851,3476863.874,3481843.412,3481844.7000003,2023-08-09T16:11:54Z,3481859.833,NA,NA,NA,NA,NA,NA,NA,NA,NA,NA,NA,NA,NA,NA,NA,NA,NA,NA,NA,NA,Schock,mshtuko,d,NA,NA,NA,sdfdsf,1,1,NA
f619c,"""Falsch""-Screen",canvas.Screen,5_0_1_0_3_0_2,NA,NA,skipped,NA,3481850,NA,NA,3481843.412,3481850.3000002,2023-08-09T16:11:54Z,3481859.833,NA,NA,NA,NA,NA,NA,NA,NA,NA,NA,NA,NA,NA,NA,NA,NA,NA,NA,NA,NA,Schock,mshtuko,d,NA,NA,NA,sdfdsf,NA,1,NA
f619c,deep,flow.Sequence,5_0_1_0_3_0,NA,NA,completion,11273.842,3470559.9000001,3470552.66,3470569.57,3481843.412,3481850.5999999,2023-08-09T16:11:54Z,3481859.833,NA,NA,NA,NA,NA,NA,NA,NA,NA,NA,NA,NA,NA,NA,NA,NA,NA,NA,NA,NA,Schock,mshtuko,d,NA,NA,NA,sdfdsf,NA,1,NA
f619c,shallow,flow.Sequence,5_0_1_0_3_1,NA,NA,skipped,NA,3481850.7000003,NA,NA,3481843.412,3481850.9000001,2023-08-09T16:11:54Z,3481859.833,NA,NA,NA,NA,NA,NA,NA,NA,NA,NA,NA,NA,NA,NA,NA,NA,NA,NA,NA,NA,Schock,mshtuko,d,NA,NA,NA,sdfdsf,NA,1,NA
f619c,task,flow.Sequence,5_0_1_0_3,NA,NA,completion,11273.842,3470559.9000001,3470552.66,3470569.57,3481843.412,3481851.0999999,2023-08-09T16:11:54Z,3481859.833,NA,NA,NA,NA,NA,NA,NA,NA,NA,NA,NA,NA,NA,NA,NA,NA,NA,NA,NA,NA,Schock,mshtuko,d,NA,NA,NA,sdfdsf,NA,1,NA
f619c,Deep Question,html.Page,5_0_1_0_4_0_0,hud,NA,form submission,9744.6669999999,3481851.4000001,3481843.412,3481859.833,3491604.5,3491604.7000003,2023-08-09T16:12:04Z,3491618.683,NA,NA,NA,NA,NA,NA,NA,NA,NA,NA,NA,NA,NA,NA,NA,NA,NA,NA,NA,NA,Flexibilität,kubadilika,d,NA,NA,NA,NA,NA,1,NA
f619c,"""Richtig""-Screen",canvas.Screen,5_0_1_0_4_0_1,NA,NA,skipped,NA,3491607.2000003,NA,NA,3491604.5,3491607.3000002,2023-08-09T16:12:04Z,3491618.683,NA,NA,NA,NA,NA,NA,NA,NA,NA,NA,NA,NA,NA,NA,NA,NA,NA,NA,NA,NA,Flexibilität,kubadilika,d,NA,NA,NA,sdfdsf,NA,1,NA
f619c,"""Falsch""-Screen",canvas.Screen,5_0_1_0_4_0_2,NA,NA,timeout,4996.3979999996,3491608,3491602.496,3491618.683,3496598.147,3496599.2000003,2023-08-09T16:12:09Z,3496615.081,NA,NA,NA,NA,NA,NA,NA,NA,NA,NA,NA,NA,NA,NA,NA,NA,NA,NA,NA,NA,Flexibilität,kubadilika,d,NA,NA,NA,sdfdsf,0,1,NA
f619c,deep,flow.Sequence,5_0_1_0_4_0,NA,NA,completion,14738.314,3481851.3000002,3481843.412,3481859.833,3496598.147,3496599.7000003,2023-08-09T16:12:09Z,3496615.081,NA,NA,NA,NA,NA,NA,NA,NA,NA,NA,NA,NA,NA,NA,NA,NA,NA,NA,NA,NA,Flexibilität,kubadilika,d,NA,NA,NA,sdfdsf,NA,1,NA
f619c,shallow,flow.Sequence,5_0_1_0_4_1,NA,NA,skipped,NA,3496599.9000001,NA,NA,3496598.147,3496600,2023-08-09T16:12:09Z,3496615.081,NA,NA,NA,NA,NA,NA,NA,NA,NA,NA,NA,NA,NA,NA,NA,NA,NA,NA,NA,NA,Flexibilität,kubadilika,d,NA,NA,NA,sdfdsf,NA,1,NA
f619c,task,flow.Sequence,5_0_1_0_4,NA,NA,completion,14738.314,3481851.2000003,3481843.412,3481859.833,3496598.147,3496600.3000002,2023-08-09T16:12:09Z,3496615.081,NA,NA,NA,NA,NA,NA,NA,NA,NA,NA,NA,NA,NA,NA,NA,NA,NA,NA,NA,NA,Flexibilität,kubadilika,d,NA,NA,NA,sdfdsf,NA,1,NA
f619c,deep,flow.Sequence,5_0_1_0_5_0,NA,NA,skipped,NA,3496600.5,NA,NA,3496598.147,3496600.7000003,2023-08-09T16:12:09Z,3496615.081,NA,NA,NA,NA,NA,NA,NA,NA,NA,NA,NA,NA,NA,NA,NA,NA,NA,NA,NA,NA,Erneuerung,ukarabati,s,ushawishi,ukalifu,unyonyaji,sdfdsf,NA,1,NA
f619c,Shallow Question,html.Page,5_0_1_0_5_1_0,ukarabati,NA,form submission,5257.9190000002,3496600.9000001,3496598.147,3496615.081,3501873,3501873.2000003,2023-08-09T16:12:14Z,3501876.683,NA,NA,NA,NA,NA,NA,NA,NA,NA,NA,NA,NA,NA,NA,NA,NA,NA,NA,NA,NA,Erneuerung,ukarabati,s,ushawishi,ukalifu,unyonyaji,NA,NA,1,NA
f619c,"""Richtig""-Screen",canvas.Screen,5_0_1_0_5_1_1,NA,NA,timeout,4995.9919999996,3501875.2000003,3501860.706,3501876.683,3506856.381,3506857.5,2023-08-09T16:12:19Z,3506872.675,NA,NA,NA,NA,NA,NA,NA,NA,NA,NA,NA,NA,NA,NA,NA,NA,NA,NA,NA,NA,Erneuerung,ukarabati,s,ushawishi,ukalifu,unyonyaji,sdfdsf,1,1,NA
f619c,"""Falsch""-Screen",canvas.Screen,5_0_1_0_5_1_2,NA,NA,skipped,NA,3506862.7000003,NA,NA,3506856.381,3506863,2023-08-09T16:12:19Z,3506872.675,NA,NA,NA,NA,NA,NA,NA,NA,NA,NA,NA,NA,NA,NA,NA,NA,NA,NA,NA,NA,Erneuerung,ukarabati,s,ushawishi,ukalifu,unyonyaji,sdfdsf,NA,1,NA
f619c,shallow,flow.Sequence,5_0_1_0_5_1,NA,NA,completion,10241.3,3496600.8000002,3496598.147,3496615.081,3506856.381,3506863.3000002,2023-08-09T16:12:19Z,3506872.675,NA,NA,NA,NA,NA,NA,NA,NA,NA,NA,NA,NA,NA,NA,NA,NA,NA,NA,NA,NA,Erneuerung,ukarabati,s,ushawishi,ukalifu,unyonyaji,sdfdsf,NA,1,NA
f619c,task,flow.Sequence,5_0_1_0_5,NA,NA,completion,10241.3,3496600.4000001,3496598.147,3496615.081,3506856.381,3506863.5999999,2023-08-09T16:12:19Z,3506872.675,NA,NA,NA,NA,NA,NA,NA,NA,NA,NA,NA,NA,NA,NA,NA,NA,NA,NA,NA,NA,Erneuerung,ukarabati,s,ushawishi,ukalifu,unyonyaji,sdfdsf,NA,1,NA
f619c,Deep Question,html.Page,5_0_1_0_6_0_0,babaa,NA,form submission,5489.1250001909,3506863.8000002,3506856.381,3506872.675,3512361.8000002,3512362.0999999,2023-08-09T16:12:24Z,3512368.016,NA,NA,NA,NA,NA,NA,NA,NA,NA,NA,NA,NA,NA,NA,NA,NA,NA,NA,NA,NA,Theorie,nadharia,d,NA,NA,NA,NA,NA,1,NA
f619c,"""Richtig""-Screen",canvas.Screen,5_0_1_0_6_0_1,NA,NA,skipped,NA,3512364.5999999,NA,NA,3512361.8000002,3512364.8000002,2023-08-09T16:12:24Z,3512368.016,NA,NA,NA,NA,NA,NA,NA,NA,NA,NA,NA,NA,NA,NA,NA,NA,NA,NA,NA,NA,Theorie,nadharia,d,NA,NA,NA,sdfdsf,NA,1,NA
f619c,"""Falsch""-Screen",canvas.Screen,5_0_1_0_6_0_2,NA,NA,timeout,4996.6010000003,3512365.5999999,3512351.395,3512368.016,3517348.009,3517348.5999999,2023-08-09T16:12:29Z,3517364.617,NA,NA,NA,NA,NA,NA,NA,NA,NA,NA,NA,NA,NA,NA,NA,NA,NA,NA,NA,NA,Theorie,nadharia,d,NA,NA,NA,sdfdsf,0,1,NA
f619c,deep,flow.Sequence,5_0_1_0_6_0,NA,NA,completion,10475.334,3506863.8000002,3506856.381,3506872.675,3517348.009,3517348.7000003,2023-08-09T16:12:29Z,3517364.617,NA,NA,NA,NA,NA,NA,NA,NA,NA,NA,NA,NA,NA,NA,NA,NA,NA,NA,NA,NA,Theorie,nadharia,d,NA,NA,NA,sdfdsf,NA,1,NA
f619c,shallow,flow.Sequence,5_0_1_0_6_1,NA,NA,skipped,NA,3517348.8000002,NA,NA,3517348.009,3517348.8000002,2023-08-09T16:12:29Z,3517364.617,NA,NA,NA,NA,NA,NA,NA,NA,NA,NA,NA,NA,NA,NA,NA,NA,NA,NA,NA,NA,Theorie,nadharia,d,NA,NA,NA,sdfdsf,NA,1,NA
f619c,task,flow.Sequence,5_0_1_0_6,NA,NA,completion,10475.334,3506863.7000003,3506856.381,3506872.675,3517348.009,3517348.9000001,2023-08-09T16:12:29Z,3517364.617,NA,NA,NA,NA,NA,NA,NA,NA,NA,NA,NA,NA,NA,NA,NA,NA,NA,NA,NA,NA,Theorie,nadharia,d,NA,NA,NA,sdfdsf,NA,1,NA
f619c,deep,flow.Sequence,5_0_1_0_7_0,NA,NA,skipped,NA,3517349,NA,NA,3517348.009,3517349,2023-08-09T16:12:29Z,3517364.617,NA,NA,NA,NA,NA,NA,NA,NA,NA,NA,NA,NA,NA,NA,NA,NA,NA,NA,NA,NA,Wechsel,ugeuzaji,s,utambulisho,kujenga,wasiwasi,sdfdsf,NA,1,NA
f619c,Shallow Question,html.Page,5_0_1_0_7_1_0,ugeuzaji,NA,form submission,3917.3829999999,3517349.0999999,3517348.009,3517364.617,3521282,3521282.2000003,2023-08-09T16:12:33Z,3521294.682,NA,NA,NA,NA,NA,NA,NA,NA,NA,NA,NA,NA,NA,NA,NA,NA,NA,NA,NA,NA,Wechsel,ugeuzaji,s,utambulisho,kujenga,wasiwasi,NA,NA,1,NA
f619c,"""Richtig""-Screen",canvas.Screen,5_0_1_0_7_1_1,NA,NA,timeout,4995.2069999999,3521284.0999999,3521277.908,3521294.682,3526273.734,3526275,2023-08-09T16:12:38Z,3526289.889,NA,NA,NA,NA,NA,NA,NA,NA,NA,NA,NA,NA,NA,NA,NA,NA,NA,NA,NA,NA,Wechsel,ugeuzaji,s,utambulisho,kujenga,wasiwasi,sdfdsf,1,1,NA
f619c,"""Falsch""-Screen",canvas.Screen,5_0_1_0_7_1_2,NA,NA,skipped,NA,3526280.2000003,NA,NA,3526273.734,3526280.3000002,2023-08-09T16:12:38Z,3526289.889,NA,NA,NA,NA,NA,NA,NA,NA,NA,NA,NA,NA,NA,NA,NA,NA,NA,NA,NA,NA,Wechsel,ugeuzaji,s,utambulisho,kujenga,wasiwasi,sdfdsf,NA,1,NA
f619c,shallow,flow.Sequence,5_0_1_0_7_1,NA,NA,completion,8909.1170000001,3517349.0999999,3517348.009,3517364.617,3526273.734,3526280.5,2023-08-09T16:12:38Z,3526289.889,NA,NA,NA,NA,NA,NA,NA,NA,NA,NA,NA,NA,NA,NA,NA,NA,NA,NA,NA,NA,Wechsel,ugeuzaji,s,utambulisho,kujenga,wasiwasi,sdfdsf,NA,1,NA
f619c,task,flow.Sequence,5_0_1_0_7,NA,NA,completion,8909.1170000001,3517348.9000001,3517348.009,3517364.617,3526273.734,3526280.5999999,2023-08-09T16:12:38Z,3526289.889,NA,NA,NA,NA,NA,NA,NA,NA,NA,NA,NA,NA,NA,NA,NA,NA,NA,NA,NA,NA,Wechsel,ugeuzaji,s,utambulisho,kujenga,wasiwasi,sdfdsf,NA,1,NA
f619c,block,flow.Loop,5_0_1_0,NA,NA,completion,87262.078,3439004.5,3438995.25,3439011.656,3526273.734,3526280.5999999,2023-08-09T16:12:38Z,3526289.889,NA,NA,NA,NA,NA,NA,NA,NA,NA,NA,NA,NA,NA,NA,NA,NA,NA,NA,NA,NA,NA,NA,NA,NA,NA,NA,sdfdsf,NA,1,NA
f619c,weiter,canvas.Screen,5_0_1_1,sdf,keypress(Space),response,780.71099990467,3526280.7000003,3526273.734,3526289.889,3527070.5999999,3527073.4000001,2023-08-09T16:12:39Z,3527122.557,NA,NA,NA,NA,NA,NA,NA,NA,NA,NA,NA,NA,NA,NA,NA,NA,NA,NA,NA,NA,NA,NA,NA,NA,NA,NA,sdfdsf,NA,1,NA
f619c,check continue,flow.Sequence,5_0_1,NA,NA,completion,88058.943999905,3439004.5,3438995.25,3439011.656,3527070.5999999,3527073.9000001,2023-08-09T16:12:39Z,3527122.557,NA,NA,NA,NA,NA,NA,NA,NA,NA,NA,NA,NA,NA,NA,NA,NA,NA,NA,NA,NA,NA,NA,NA,NA,NA,NA,sdfdsf,NA,1,NA
f619c,deep,flow.Sequence,5_0_2_0_0_0,NA,NA,skipped,NA,3527120.2000003,NA,NA,3527070.5999999,3527120.3000002,2023-08-09T16:12:39Z,3527122.557,NA,NA,NA,NA,NA,NA,NA,NA,NA,NA,NA,NA,NA,NA,NA,NA,NA,NA,NA,NA,Wechsel,ugeuzaji,s,utambulisho,kujenga,wasiwasi,sdf,NA,2,NA
f619c,Shallow Question,html.Page,5_0_2_0_0_1_0,ugeuzaji,NA,form submission,4257.1430002861,3527120.4000001,3527106.516,3527122.557,3531379.7000003,3531379.9000001,2023-08-09T16:12:43Z,3531385.711,NA,NA,NA,NA,NA,NA,NA,NA,NA,NA,NA,NA,NA,NA,NA,NA,NA,NA,NA,NA,Wechsel,ugeuzaji,s,utambulisho,kujenga,wasiwasi,NA,NA,2,NA
f619c,"""Richtig""-Screen",canvas.Screen,5_0_2_0_0_1_1,NA,NA,timeout,4995.9539999999,3531381.7000003,3531369.655,3531385.711,3536365.582,3536366.8000002,2023-08-09T16:12:48Z,3536381.665,NA,NA,NA,NA,NA,NA,NA,NA,NA,NA,NA,NA,NA,NA,NA,NA,NA,NA,NA,NA,Wechsel,ugeuzaji,s,utambulisho,kujenga,wasiwasi,sdf,1,2,NA
f619c,"""Falsch""-Screen",canvas.Screen,5_0_2_0_0_1_2,NA,NA,skipped,NA,3536372.5,NA,NA,3536365.582,3536372.8000002,2023-08-09T16:12:48Z,3536381.665,NA,NA,NA,NA,NA,NA,NA,NA,NA,NA,NA,NA,NA,NA,NA,NA,NA,NA,NA,NA,Wechsel,ugeuzaji,s,utambulisho,kujenga,wasiwasi,sdf,NA,2,NA
f619c,shallow,flow.Sequence,5_0_2_0_0_1,NA,NA,completion,9243.0249999999,3527120.3000002,3527106.516,3527122.557,3536365.582,3536373.2000003,2023-08-09T16:12:48Z,3536381.665,NA,NA,NA,NA,NA,NA,NA,NA,NA,NA,NA,NA,NA,NA,NA,NA,NA,NA,NA,NA,Wechsel,ugeuzaji,s,utambulisho,kujenga,wasiwasi,sdf,NA,2,NA
f619c,task,flow.Sequence,5_0_2_0_0,NA,NA,completion,9243.0249999999,3527120.2000003,3527106.516,3527122.557,3536365.582,3536373.4000001,2023-08-09T16:12:48Z,3536381.665,NA,NA,NA,NA,NA,NA,NA,NA,NA,NA,NA,NA,NA,NA,NA,NA,NA,NA,NA,NA,Wechsel,ugeuzaji,s,utambulisho,kujenga,wasiwasi,sdf,NA,2,NA
f619c,deep,flow.Sequence,5_0_2_0_1_0,NA,NA,skipped,NA,3536373.7000003,NA,NA,3536365.582,3536373.8000002,2023-08-09T16:12:48Z,3536381.665,NA,NA,NA,NA,NA,NA,NA,NA,NA,NA,NA,NA,NA,NA,NA,NA,NA,NA,NA,NA,Hoffnung,matarajio,s,kutaalamika,uratibu,mvumbuzi,sdf,NA,2,NA
f619c,Shallow Question,html.Page,5_0_2_0_1_1_0,matarajio,NA,form submission,4407.0350002861,3536374,3536365.582,3536381.665,3540788.7000003,3540788.9000001,2023-08-09T16:12:53Z,3540794.642,NA,NA,NA,NA,NA,NA,NA,NA,NA,NA,NA,NA,NA,NA,NA,NA,NA,NA,NA,NA,Hoffnung,matarajio,s,kutaalamika,uratibu,mvumbuzi,NA,NA,2,NA
f619c,"""Richtig""-Screen",canvas.Screen,5_0_2_0_1_1_1,NA,NA,timeout,4995.9670000002,3540790.5,3540778.585,3540794.642,3545774.498,3545775.5,2023-08-09T16:12:58Z,3545790.609,NA,NA,NA,NA,NA,NA,NA,NA,NA,NA,NA,NA,NA,NA,NA,NA,NA,NA,NA,NA,Hoffnung,matarajio,s,kutaalamika,uratibu,mvumbuzi,sdf,1,2,NA
f619c,"""Falsch""-Screen",canvas.Screen,5_0_2_0_1_1_2,NA,NA,skipped,NA,3545781.2000003,NA,NA,3545774.498,3545781.5999999,2023-08-09T16:12:58Z,3545790.609,NA,NA,NA,NA,NA,NA,NA,NA,NA,NA,NA,NA,NA,NA,NA,NA,NA,NA,NA,NA,Hoffnung,matarajio,s,kutaalamika,uratibu,mvumbuzi,sdf,NA,2,NA
f619c,shallow,flow.Sequence,5_0_2_0_1_1,NA,NA,completion,9392.8330000001,3536373.9000001,3536365.582,3536381.665,3545774.498,3545782,2023-08-09T16:12:58Z,3545790.609,NA,NA,NA,NA,NA,NA,NA,NA,NA,NA,NA,NA,NA,NA,NA,NA,NA,NA,NA,NA,Hoffnung,matarajio,s,kutaalamika,uratibu,mvumbuzi,sdf,NA,2,NA
f619c,task,flow.Sequence,5_0_2_0_1,NA,NA,completion,9392.8330000001,3536373.5,3536365.582,3536381.665,3545774.498,3545782.3000002,2023-08-09T16:12:58Z,3545790.609,NA,NA,NA,NA,NA,NA,NA,NA,NA,NA,NA,NA,NA,NA,NA,NA,NA,NA,NA,NA,Hoffnung,matarajio,s,kutaalamika,uratibu,mvumbuzi,sdf,NA,2,NA
f619c,Deep Question,html.Page,5_0_2_0_2_0_0,mshtuko,NA,form submission,4304.3909999998,3545782.5,3545774.498,3545790.609,3550095,3550095.3000002,2023-08-09T16:13:02Z,3550103.746,NA,NA,NA,NA,NA,NA,NA,NA,NA,NA,NA,NA,NA,NA,NA,NA,NA,NA,NA,NA,Schock,mshtuko,d,NA,NA,NA,NA,NA,2,NA
f619c,"""Richtig""-Screen",canvas.Screen,5_0_2_0_2_0_1,NA,NA,timeout,4995.8650000002,3550097.9000001,3550087.64,3550103.746,3555083.426,3555084.4000001,2023-08-09T16:13:07Z,3555099.611,NA,NA,NA,NA,NA,NA,NA,NA,NA,NA,NA,NA,NA,NA,NA,NA,NA,NA,NA,NA,Schock,mshtuko,d,NA,NA,NA,sdf,1,2,NA
f619c,"""Falsch""-Screen",canvas.Screen,5_0_2_0_2_0_2,NA,NA,skipped,NA,3555089.9000001,NA,NA,3555083.426,3555090.3000002,2023-08-09T16:13:07Z,3555099.611,NA,NA,NA,NA,NA,NA,NA,NA,NA,NA,NA,NA,NA,NA,NA,NA,NA,NA,NA,NA,Schock,mshtuko,d,NA,NA,NA,sdf,NA,2,NA
f619c,deep,flow.Sequence,5_0_2_0_2_0,NA,NA,completion,9292.8169999998,3545782.4000001,3545774.498,3545790.609,3555083.426,3555090.5999999,2023-08-09T16:13:07Z,3555099.611,NA,NA,NA,NA,NA,NA,NA,NA,NA,NA,NA,NA,NA,NA,NA,NA,NA,NA,NA,NA,Schock,mshtuko,d,NA,NA,NA,sdf,NA,2,NA
f619c,shallow,flow.Sequence,5_0_2_0_2_1,NA,NA,skipped,NA,3555090.8000002,NA,NA,3555083.426,3555090.9000001,2023-08-09T16:13:07Z,3555099.611,NA,NA,NA,NA,NA,NA,NA,NA,NA,NA,NA,NA,NA,NA,NA,NA,NA,NA,NA,NA,Schock,mshtuko,d,NA,NA,NA,sdf,NA,2,NA
f619c,task,flow.Sequence,5_0_2_0_2,NA,NA,completion,9292.8169999998,3545782.4000001,3545774.498,3545790.609,3555083.426,3555091.2000003,2023-08-09T16:13:07Z,3555099.611,NA,NA,NA,NA,NA,NA,NA,NA,NA,NA,NA,NA,NA,NA,NA,NA,NA,NA,NA,NA,Schock,mshtuko,d,NA,NA,NA,sdf,NA,2,NA
f619c,deep,flow.Sequence,5_0_2_0_3_0,NA,NA,skipped,NA,3555091.5,NA,NA,3555083.426,3555091.5,2023-08-09T16:13:07Z,3555099.611,NA,NA,NA,NA,NA,NA,NA,NA,NA,NA,NA,NA,NA,NA,NA,NA,NA,NA,NA,NA,Erneuerung,ukarabati,s,ushawishi,ukalifu,unyonyaji,sdf,NA,2,NA
f619c,Shallow Question,html.Page,5_0_2_0_3_1_0,ukarabati,NA,form submission,2659.389,3555091.7000003,3555083.426,3555099.611,3557759,3557759.3000002,2023-08-09T16:13:10Z,3557764.029,NA,NA,NA,NA,NA,NA,NA,NA,NA,NA,NA,NA,NA,NA,NA,NA,NA,NA,NA,NA,Erneuerung,ukarabati,s,ushawishi,ukalifu,unyonyaji,NA,NA,2,NA
f619c,"""Richtig""-Screen",canvas.Screen,5_0_2_0_3_1_1,NA,NA,timeout,4996.0069999998,3557761.2000003,3557747.647,3557764.029,3562743.73,3562744.8000002,2023-08-09T16:13:15Z,3562760.036,NA,NA,NA,NA,NA,NA,NA,NA,NA,NA,NA,NA,NA,NA,NA,NA,NA,NA,NA,NA,Erneuerung,ukarabati,s,ushawishi,ukalifu,unyonyaji,sdf,1,2,NA
f619c,"""Falsch""-Screen",canvas.Screen,5_0_2_0_3_1_2,NA,NA,skipped,NA,3562750.5999999,NA,NA,3562743.73,3562750.9000001,2023-08-09T16:13:15Z,3562760.036,NA,NA,NA,NA,NA,NA,NA,NA,NA,NA,NA,NA,NA,NA,NA,NA,NA,NA,NA,NA,Erneuerung,ukarabati,s,ushawishi,ukalifu,unyonyaji,sdf,NA,2,NA
f619c,shallow,flow.Sequence,5_0_2_0_3_1,NA,NA,completion,7644.1189999999,3555091.7000003,3555083.426,3555099.611,3562743.73,3562751.3000002,2023-08-09T16:13:15Z,3562760.036,NA,NA,NA,NA,NA,NA,NA,NA,NA,NA,NA,NA,NA,NA,NA,NA,NA,NA,NA,NA,Erneuerung,ukarabati,s,ushawishi,ukalifu,unyonyaji,sdf,NA,2,NA
f619c,task,flow.Sequence,5_0_2_0_3,NA,NA,completion,7644.1189999999,3555091.3000002,3555083.426,3555099.611,3562743.73,3562751.5999999,2023-08-09T16:13:15Z,3562760.036,NA,NA,NA,NA,NA,NA,NA,NA,NA,NA,NA,NA,NA,NA,NA,NA,NA,NA,NA,NA,Erneuerung,ukarabati,s,ushawishi,ukalifu,unyonyaji,sdf,NA,2,NA
f619c,Deep Question,html.Page,5_0_2_0_4_0_0,kubadilika,NA,form submission,11283.864000096,3562751.8000002,3562743.73,3562760.036,3574043.9000001,3574044.2000003,2023-08-09T16:13:26Z,3574050.635,NA,NA,NA,NA,NA,NA,NA,NA,NA,NA,NA,NA,NA,NA,NA,NA,NA,NA,NA,NA,Flexibilität,kubadilika,d,NA,NA,NA,NA,NA,2,NA
f619c,"""Richtig""-Screen",canvas.Screen,5_0_2_0_4_0_1,NA,NA,timeout,4996.608,3574046.5,3574034.578,3574050.635,3579030.146,3579031.7000003,2023-08-09T16:13:31Z,3579047.243,NA,NA,NA,NA,NA,NA,NA,NA,NA,NA,NA,NA,NA,NA,NA,NA,NA,NA,NA,NA,Flexibilität,kubadilika,d,NA,NA,NA,sdf,1,2,NA
f619c,"""Falsch""-Screen",canvas.Screen,5_0_2_0_4_0_2,NA,NA,skipped,NA,3579033.4000001,NA,NA,3579030.146,3579033.5,2023-08-09T16:13:31Z,3579047.243,NA,NA,NA,NA,NA,NA,NA,NA,NA,NA,NA,NA,NA,NA,NA,NA,NA,NA,NA,NA,Flexibilität,kubadilika,d,NA,NA,NA,sdf,NA,2,NA
f619c,deep,flow.Sequence,5_0_2_0_4_0,NA,NA,completion,16270.11,3562751.8000002,3562743.73,3562760.036,3579030.146,3579033.7000003,2023-08-09T16:13:31Z,3579047.243,NA,NA,NA,NA,NA,NA,NA,NA,NA,NA,NA,NA,NA,NA,NA,NA,NA,NA,NA,NA,Flexibilität,kubadilika,d,NA,NA,NA,sdf,NA,2,NA
f619c,shallow,flow.Sequence,5_0_2_0_4_1,NA,NA,skipped,NA,3579033.7000003,NA,NA,3579030.146,3579033.7000003,2023-08-09T16:13:31Z,3579047.243,NA,NA,NA,NA,NA,NA,NA,NA,NA,NA,NA,NA,NA,NA,NA,NA,NA,NA,NA,NA,Flexibilität,kubadilika,d,NA,NA,NA,sdf,NA,2,NA
f619c,task,flow.Sequence,5_0_2_0_4,NA,NA,completion,16270.11,3562751.7000003,3562743.73,3562760.036,3579030.146,3579033.8000002,2023-08-09T16:13:31Z,3579047.243,NA,NA,NA,NA,NA,NA,NA,NA,NA,NA,NA,NA,NA,NA,NA,NA,NA,NA,NA,NA,Flexibilität,kubadilika,d,NA,NA,NA,sdf,NA,2,NA
f619c,Deep Question,html.Page,5_0_2_0_5_0_0,angahewa,NA,form submission,5126.8569999048,3579033.9000001,3579030.146,3579047.243,3584174.0999999,3584174.3000002,2023-08-09T16:13:36Z,3584192.798,NA,NA,NA,NA,NA,NA,NA,NA,NA,NA,NA,NA,NA,NA,NA,NA,NA,NA,NA,NA,Atmosphäre,angahewa,d,NA,NA,NA,NA,NA,2,NA
f619c,"""Richtig""-Screen",canvas.Screen,5_0_2_0_5_0_1,NA,NA,timeout,4995.466,3584176.8000002,3584175.681,3584192.798,3589171.808,3589173.9000001,2023-08-09T16:13:41Z,3589188.264,NA,NA,NA,NA,NA,NA,NA,NA,NA,NA,NA,NA,NA,NA,NA,NA,NA,NA,NA,NA,Atmosphäre,angahewa,d,NA,NA,NA,sdf,1,2,NA
