observation,sender,sender_type,sender_id,response,response_action,ended_on,duration,time_run,time_render,time_show,time_end,time_commit,timestamp,time_switch,german,swahili,enc,distractor1,distractor2,distractor3,response_2,x,correct,distractors,url_vp,url_sess,meta_labjs_version,meta_location,meta_user_agent,meta_platform,meta_language,meta_locale,meta_time_zone,meta_timezone_offset,meta_screen_width,meta_screen_height,meta_scroll_width,meta_scroll_height,meta_window_inner_width,meta_window_inner_height,meta_device_pixel_ratio,meta_labjs_build_flavor,meta_labjs_build_commit
937a8,Introduction delayed retrieval,canvas.Screen,0,weiter,keypress(Space),response,15595.526,1070.3000001907,789.562,1106.474,16702,16706.900000095,2023-04-01T12:43:55Z,16709.171,NA,NA,NA,NA,NA,NA,NA,NA,NA,NULL,119,4,20.2.4,https://neurocog.fernuni.ch/studies/vweber/delayed/index.html?vp=119&sess=4,"Mozilla/5.0 (Windows NT 10.0; Win64; x64) AppleWebKit/537.36 (KHTML, like Gecko) Chrome/110.0.0.0 Safari/537.36",Win32,de-DE,de,Europe/Zurich,-120,1368,912,1368,713,1368,761,2,production,f5b4a49f956347addd546a832a3327688c2c0fef
937a8,Deep Question,html.Page,1_0_0_0,NA,NA,form submission,32825.229000095,16707.700000286,16693.92,16709.171,49534.400000095000,49535.200000286,2023-04-01T12:44:27Z,49557.227,Prüfung,mtihani,d,mkulima,mtizamo,ufumbuzi,mtahini,NA,NA,NULL,NA,NA,NA,NA,NA,NA,NA,NA,NA,NA,NA,NA,NA,NA,NA,NA,NA,NA,NA
937a8,Save data screen,canvas.Screen,1_0_0_1,NA,NA,timeout,497.998,49538.200000286,49524.08,49557.227,50038.729,50040.5,2023-04-01T12:44:28Z,50055.225,Prüfung,mtihani,d,mkulima,mtizamo,ufumbuzi,NA,NA,0,NULL,NA,NA,NA,NA,NA,NA,NA,NA,NA,NA,NA,NA,NA,NA,NA,NA,NA,NA,NA
937a8,deep,flow.Sequence,1_0_0,NA,NA,completion,33329.558,16707.700000286,16693.92,16709.171,50038.729,50041.300000191,2023-04-01T12:44:28Z,50055.225,Prüfung,mtihani,d,mkulima,mtizamo,ufumbuzi,NA,NA,NA,NULL,NA,NA,NA,NA,NA,NA,NA,NA,NA,NA,NA,NA,NA,NA,NA,NA,NA,NA,NA
937a8,task,flow.Sequence,1_0,NA,NA,completion,33329.558,16707.600000381,16693.92,16709.171,50038.729,50041.700000286,2023-04-01T12:44:28Z,50055.225,Prüfung,mtihani,d,mkulima,mtizamo,ufumbuzi,NA,NA,NA,NULL,NA,NA,NA,NA,NA,NA,NA,NA,NA,NA,NA,NA,NA,NA,NA,NA,NA,NA,NA
937a8,Deep Question,html.Page,1_1_0_0,NA,NA,form submission,21635.275,50042.200000286,50038.729,50055.225,71690.5,71691.200000286,2023-04-01T12:44:50Z,71691.637,Aufstand,ugomaji,d,mazidio,msingi,kujieleza,uagazaji,NA,NA,NULL,NA,NA,NA,NA,NA,NA,NA,NA,NA,NA,NA,NA,NA,NA,NA,NA,NA,NA,NA
937a8,Save data screen,canvas.Screen,1_1_0_1,NA,NA,timeout,505.648,71698.800000191,71683.793,71691.637,72180.861,72182.200000286,2023-04-01T12:44:50Z,72197.285,Aufstand,ugomaji,d,mazidio,msingi,kujieleza,NA,NA,0,NULL,NA,NA,NA,NA,NA,NA,NA,NA,NA,NA,NA,NA,NA,NA,NA,NA,NA,NA,NA
937a8,deep,flow.Sequence,1_1_0,NA,NA,completion,22125.636,50042.100000381,50038.729,50055.225,72180.861,72182.800000191,2023-04-01T12:44:50Z,72197.285,Aufstand,ugomaji,d,mazidio,msingi,kujieleza,NA,NA,NA,NULL,NA,NA,NA,NA,NA,NA,NA,NA,NA,NA,NA,NA,NA,NA,NA,NA,NA,NA,NA
937a8,task,flow.Sequence,1_1,NA,NA,completion,22125.636,50042,50038.729,50055.225,72180.861,72183.300000191,2023-04-01T12:44:50Z,72197.285,Aufstand,ugomaji,d,mazidio,msingi,kujieleza,NA,NA,NA,NULL,NA,NA,NA,NA,NA,NA,NA,NA,NA,NA,NA,NA,NA,NA,NA,NA,NA,NA,NA
937a8,Deep Question,html.Page,1_2_0_0,NA,NA,form submission,34949.915000286,72183.900000095,72180.861,72197.285,107147.20000029,107148,2023-04-01T12:45:25Z,107149.432,Angreifer,mshambulizi,d,kitengo,tasinia,usafirishaji,mshdani,NA,NA,NULL,NA,NA,NA,NA,NA,NA,NA,NA,NA,NA,NA,NA,NA,NA,NA,NA,NA,NA,NA
937a8,Save data screen,canvas.Screen,1_2_0_1,NA,NA,timeout,500.09,107154.80000019000,107133.374,107149.432,107632.881,107634.10000038,2023-04-01T12:45:25Z,107649.522,Angreifer,mshambulizi,d,kitengo,tasinia,usafirishaji,NA,NA,0,NULL,NA,NA,NA,NA,NA,NA,NA,NA,NA,NA,NA,NA,NA,NA,NA,NA,NA,NA,NA
937a8,deep,flow.Sequence,1_2_0,NA,NA,completion,35435.596,72183.700000286,72180.861,72197.285,107632.881,107634.70000029,2023-04-01T12:45:25Z,107649.522,Angreifer,mshambulizi,d,kitengo,tasinia,usafirishaji,NA,NA,NA,NULL,NA,NA,NA,NA,NA,NA,NA,NA,NA,NA,NA,NA,NA,NA,NA,NA,NA,NA,NA
937a8,task,flow.Sequence,1_2,NA,NA,completion,35435.596,72183.600000381,72180.861,72197.285,107632.881,107635.20000029,2023-04-01T12:45:25Z,107649.522,Angreifer,mshambulizi,d,kitengo,tasinia,usafirishaji,NA,NA,NA,NULL,NA,NA,NA,NA,NA,NA,NA,NA,NA,NA,NA,NA,NA,NA,NA,NA,NA,NA,NA
937a8,Deep Question,html.Page,1_3_0_0,NA,NA,form submission,7947.1780002861,107635.70000029,107632.881,107649.522,115596.70000029,115597.5,2023-04-01T12:45:33Z,115598.374,Abrechnung,uhasibu,s,kusahihisha,mpambano,mashambulizi,u,NA,NA,NULL,NA,NA,NA,NA,NA,NA,NA,NA,NA,NA,NA,NA,NA,NA,NA,NA,NA,NA,NA
937a8,Save data screen,canvas.Screen,1_3_0_1,NA,NA,timeout,500.757,115604,115587.322,115598.374,116082.728,116084.20000029,2023-04-01T12:45:34Z,116099.131,Abrechnung,uhasibu,s,kusahihisha,mpambano,mashambulizi,NA,NA,0,NULL,NA,NA,NA,NA,NA,NA,NA,NA,NA,NA,NA,NA,NA,NA,NA,NA,NA,NA,NA
937a8,deep,flow.Sequence,1_3_0,NA,NA,completion,8433.206,107635.60000038,107632.881,107649.522,116082.728,116084.70000029,2023-04-01T12:45:34Z,116099.131,Abrechnung,uhasibu,s,kusahihisha,mpambano,mashambulizi,NA,NA,NA,NULL,NA,NA,NA,NA,NA,NA,NA,NA,NA,NA,NA,NA,NA,NA,NA,NA,NA,NA,NA
937a8,task,flow.Sequence,1_3,NA,NA,completion,8433.206,107635.4000001,107632.881,107649.522,116082.728,116085.20000029,2023-04-01T12:45:34Z,116099.131,Abrechnung,uhasibu,s,kusahihisha,mpambano,mashambulizi,NA,NA,NA,NULL,NA,NA,NA,NA,NA,NA,NA,NA,NA,NA,NA,NA,NA,NA,NA,NA,NA,NA,NA
937a8,Deep Question,html.Page,1_4_0_0,NA,NA,form submission,5715.0690002861,116085.60000038,116082.728,116099.131,121814.20000029,121814.80000019000,2023-04-01T12:45:40Z,121832.664,Gefährdung,kuhatarisha,s,uchokozi,udhaifu,makorowezo,u,NA,NA,NULL,NA,NA,NA,NA,NA,NA,NA,NA,NA,NA,NA,NA,NA,NA,NA,NA,NA,NA,NA
937a8,Save data screen,canvas.Screen,1_4_0_1,NA,NA,timeout,500.33,121821.20000029,121803.382,121832.664,122316.56,122317.9000001,2023-04-01T12:45:40Z,122332.994,Gefährdung,kuhatarisha,s,uchokozi,udhaifu,makorowezo,NA,NA,0,NULL,NA,NA,NA,NA,NA,NA,NA,NA,NA,NA,NA,NA,NA,NA,NA,NA,NA,NA,NA
937a8,deep,flow.Sequence,1_4_0,NA,NA,completion,6217.429,116085.5,116082.728,116099.131,122316.56,122318.4000001,2023-04-01T12:45:40Z,122332.994,Gefährdung,kuhatarisha,s,uchokozi,udhaifu,makorowezo,NA,NA,NA,NULL,NA,NA,NA,NA,NA,NA,NA,NA,NA,NA,NA,NA,NA,NA,NA,NA,NA,NA,NA
937a8,task,flow.Sequence,1_4,NA,NA,completion,6217.429,116085.4000001,116082.728,116099.131,122316.56,122318.9000001,2023-04-01T12:45:40Z,122332.994,Gefährdung,kuhatarisha,s,uchokozi,udhaifu,makorowezo,NA,NA,NA,NULL,NA,NA,NA,NA,NA,NA,NA,NA,NA,NA,NA,NA,NA,NA,NA,NA,NA,NA,NA
937a8,Deep Question,html.Page,1_5_0_0,NA,NA,form submission,5583.506,122319.30000019000,122316.56,122332.994,127916.5,127916.9000001,2023-04-01T12:45:46Z,127922.458,Verzögerung,kuchelewa,s,mwakilishi,mwanauchumi,jaribio,n,NA,NA,NULL,NA,NA,NA,NA,NA,NA,NA,NA,NA,NA,NA,NA,NA,NA,NA,NA,NA,NA,NA
937a8,Save data screen,canvas.Screen,1_5_0_1,NA,NA,timeout,492.88400000001,127924.30000019000,127906.032,127922.458,128398.658,128400,2023-04-01T12:45:46Z,128415.342,Verzögerung,kuchelewa,s,mwakilishi,mwanauchumi,jaribio,NA,NA,0,NULL,NA,NA,NA,NA,NA,NA,NA,NA,NA,NA,NA,NA,NA,NA,NA,NA,NA,NA,NA
937a8,deep,flow.Sequence,1_5_0,NA,NA,completion,6065.664,122319.10000038,122316.56,122332.994,128398.658,128400.5,2023-04-01T12:45:46Z,128415.342,Verzögerung,kuchelewa,s,mwakilishi,mwanauchumi,jaribio,NA,NA,NA,NULL,NA,NA,NA,NA,NA,NA,NA,NA,NA,NA,NA,NA,NA,NA,NA,NA,NA,NA,NA
937a8,task,flow.Sequence,1_5,NA,NA,completion,6065.664,122319,122316.56,122332.994,128398.658,128400.9000001,2023-04-01T12:45:46Z,128415.342,Verzögerung,kuchelewa,s,mwakilishi,mwanauchumi,jaribio,NA,NA,NA,NULL,NA,NA,NA,NA,NA,NA,NA,NA,NA,NA,NA,NA,NA,NA,NA,NA,NA,NA,NA
937a8,Deep Question,html.Page,1_6_0_0,NA,NA,form submission,7104.8580002861,128401.30000019000,128398.658,128415.342,135520.20000029,135520.80000019,2023-04-01T12:45:53Z,135538.806,Können,unaweza,d,kiongozi,bustani,mienendo,wakati,NA,NA,NULL,NA,NA,NA,NA,NA,NA,NA,NA,NA,NA,NA,NA,NA,NA,NA,NA,NA,NA,NA
937a8,Save data screen,canvas.Screen,1_6_0_1,NA,NA,timeout,492.916,135527.80000019,135511.612,135538.806,136015.043,136016.4000001,2023-04-01T12:45:54Z,136031.722,Können,unaweza,d,kiongozi,bustani,mienendo,NA,NA,0,NULL,NA,NA,NA,NA,NA,NA,NA,NA,NA,NA,NA,NA,NA,NA,NA,NA,NA,NA,NA
937a8,deep,flow.Sequence,1_6_0,NA,NA,completion,7599.701,128401.10000038,128398.658,128415.342,136015.043,136016.9000001,2023-04-01T12:45:54Z,136031.722,Können,unaweza,d,kiongozi,bustani,mienendo,NA,NA,NA,NULL,NA,NA,NA,NA,NA,NA,NA,NA,NA,NA,NA,NA,NA,NA,NA,NA,NA,NA,NA
937a8,task,flow.Sequence,1_6,NA,NA,completion,7599.701,128401.10000038,128398.658,128415.342,136015.043,136017.30000019,2023-04-01T12:45:54Z,136031.722,Können,unaweza,d,kiongozi,bustani,mienendo,NA,NA,NA,NULL,NA,NA,NA,NA,NA,NA,NA,NA,NA,NA,NA,NA,NA,NA,NA,NA,NA,NA,NA
937a8,Deep Question,html.Page,1_7_0_0,NA,NA,form submission,20070.678000095,136017.60000038000,136015.043,136031.722,156102.4000001,156102.9000001,2023-04-01T12:46:14Z,156106.307,Sänger,mwimbaji,d,msichana,shughuli,mshirika,mwimbaji,NA,NA,NULL,NA,NA,NA,NA,NA,NA,NA,NA,NA,NA,NA,NA,NA,NA,NA,NA,NA,NA,NA
937a8,Save data screen,canvas.Screen,1_7_0_1,NA,NA,timeout,506.978,156109.70000029,156089.965,156106.307,156596.832,156598.20000029,2023-04-01T12:46:14Z,156613.285,Sänger,mwimbaji,d,msichana,shughuli,mshirika,NA,NA,1,NULL,NA,NA,NA,NA,NA,NA,NA,NA,NA,NA,NA,NA,NA,NA,NA,NA,NA,NA,NA
937a8,deep,flow.Sequence,1_7_0,NA,NA,completion,20565.11,136017.60000038000,136015.043,136031.722,156596.832,156598.80000019,2023-04-01T12:46:14Z,156613.285,Sänger,mwimbaji,d,msichana,shughuli,mshirika,NA,NA,NA,NULL,NA,NA,NA,NA,NA,NA,NA,NA,NA,NA,NA,NA,NA,NA,NA,NA,NA,NA,NA
937a8,task,flow.Sequence,1_7,NA,NA,completion,20565.11,136017.5,136015.043,136031.722,156596.832,156599.10000038000,2023-04-01T12:46:14Z,156613.285,Sänger,mwimbaji,d,msichana,shughuli,mshirika,NA,NA,NA,NULL,NA,NA,NA,NA,NA,NA,NA,NA,NA,NA,NA,NA,NA,NA,NA,NA,NA,NA,NA
937a8,Deep Question,html.Page,1_8_0_0,NA,NA,form submission,17062.215,156599.5,156596.832,156613.285,173675.5,173676.20000029,2023-04-01T12:46:32Z,173676.684,Lawine,banguko,d,maambukizi,usuluhishi,chekechea,bangora,NA,NA,NULL,NA,NA,NA,NA,NA,NA,NA,NA,NA,NA,NA,NA,NA,NA,NA,NA,NA,NA,NA
937a8,Save data screen,canvas.Screen,1_8_0_1,NA,NA,timeout,503.22500000001,173683.20000029,173668.924,173676.684,174163.484,174164.9000001,2023-04-01T12:46:32Z,174179.909,Lawine,banguko,d,maambukizi,usuluhishi,chekechea,NA,NA,0,NULL,NA,NA,NA,NA,NA,NA,NA,NA,NA,NA,NA,NA,NA,NA,NA,NA,NA,NA,NA
937a8,deep,flow.Sequence,1_8_0,NA,NA,completion,17550.199,156599.4000001,156596.832,156613.285,174163.484,174165.4000001,2023-04-01T12:46:32Z,174179.909,Lawine,banguko,d,maambukizi,usuluhishi,chekechea,NA,NA,NA,NULL,NA,NA,NA,NA,NA,NA,NA,NA,NA,NA,NA,NA,NA,NA,NA,NA,NA,NA,NA
937a8,task,flow.Sequence,1_8,NA,NA,completion,17550.199,156599.4000001,156596.832,156613.285,174163.484,174165.80000019,2023-04-01T12:46:32Z,174179.909,Lawine,banguko,d,maambukizi,usuluhishi,chekechea,NA,NA,NA,NULL,NA,NA,NA,NA,NA,NA,NA,NA,NA,NA,NA,NA,NA,NA,NA,NA,NA,NA,NA
937a8,Deep Question,html.Page,1_9_0_0,NA,NA,form submission,41785.191000381,174166.20000029,174163.484,174179.909,215965.10000038000,215965.70000029,2023-04-01T12:47:14Z,215966.693,Kreativität,ubunifu,d,mratibu,mwendelezo,makubaliano,unifuni,NA,NA,NULL,NA,NA,NA,NA,NA,NA,NA,NA,NA,NA,NA,NA,NA,NA,NA,NA,NA,NA,NA
937a8,Save data screen,canvas.Screen,1_9_0_1,NA,NA,timeout,494.94,215972.80000019,215953.125,215966.693,216445.033,216446.4000001,2023-04-01T12:47:14Z,216461.633,Kreativität,ubunifu,d,mratibu,mwendelezo,makubaliano,NA,NA,0,NULL,NA,NA,NA,NA,NA,NA,NA,NA,NA,NA,NA,NA,NA,NA,NA,NA,NA,NA,NA
937a8,deep,flow.Sequence,1_9_0,NA,NA,completion,42265.124,174166.10000038000,174163.484,174179.909,216445.033,216447.10000038000,2023-04-01T12:47:14Z,216461.633,Kreativität,ubunifu,d,mratibu,mwendelezo,makubaliano,NA,NA,NA,NULL,NA,NA,NA,NA,NA,NA,NA,NA,NA,NA,NA,NA,NA,NA,NA,NA,NA,NA,NA
937a8,task,flow.Sequence,1_9,NA,NA,completion,42265.124,174166,174163.484,174179.909,216445.033,216447.5,2023-04-01T12:47:14Z,216461.633,Kreativität,ubunifu,d,mratibu,mwendelezo,makubaliano,NA,NA,NA,NULL,NA,NA,NA,NA,NA,NA,NA,NA,NA,NA,NA,NA,NA,NA,NA,NA,NA,NA,NA
937a8,Deep Question,html.Page,1_10_0_0,NA,NA,form submission,14732.367,216447.9000001,216445.033,216461.633,231194,231194.70000029,2023-04-01T12:47:29Z,231195.89,System,maongozi,d,chokochoko,nuksani,mitaani,nyogony,NA,NA,NULL,NA,NA,NA,NA,NA,NA,NA,NA,NA,NA,NA,NA,NA,NA,NA,NA,NA,NA,NA
937a8,Save data screen,canvas.Screen,1_10_0_1,NA,NA,timeout,492.64299999998,231201.60000038000,231187.385,231195.89,231671.988,231673.30000019,2023-04-01T12:47:29Z,231688.533,System,maongozi,d,chokochoko,nuksani,mitaani,NA,NA,0,NULL,NA,NA,NA,NA,NA,NA,NA,NA,NA,NA,NA,NA,NA,NA,NA,NA,NA,NA,NA
937a8,deep,flow.Sequence,1_10_0,NA,NA,completion,15210.355,216447.80000019,216445.033,216461.633,231671.988,231673.70000029,2023-04-01T12:47:29Z,231688.533,System,maongozi,d,chokochoko,nuksani,mitaani,NA,NA,NA,NULL,NA,NA,NA,NA,NA,NA,NA,NA,NA,NA,NA,NA,NA,NA,NA,NA,NA,NA,NA
937a8,task,flow.Sequence,1_10,NA,NA,completion,15210.355,216447.70000029,216445.033,216461.633,231671.988,231674.10000038000,2023-04-01T12:47:29Z,231688.533,System,maongozi,d,chokochoko,nuksani,mitaani,NA,NA,NA,NULL,NA,NA,NA,NA,NA,NA,NA,NA,NA,NA,NA,NA,NA,NA,NA,NA,NA,NA,NA
937a8,Deep Question,html.Page,1_11_0_0,NA,NA,form submission,29188.967,231674.5,231671.988,231688.533,260877.5,260878.10000038000,2023-04-01T12:47:59Z,260879.356,Kontrolle,kudhibiti,s,mbinguni,kufunga,utegemezi,unibuvi,NA,NA,NULL,NA,NA,NA,NA,NA,NA,NA,NA,NA,NA,NA,NA,NA,NA,NA,NA,NA,NA,NA
937a8,Save data screen,canvas.Screen,1_11_0_1,NA,NA,timeout,494.742,260885.20000029,260876.071,260879.356,261357.41,261358.80000019,2023-04-01T12:47:59Z,261374.098,Kontrolle,kudhibiti,s,mbinguni,kufunga,utegemezi,NA,NA,0,NULL,NA,NA,NA,NA,NA,NA,NA,NA,NA,NA,NA,NA,NA,NA,NA,NA,NA,NA,NA
937a8,deep,flow.Sequence,1_11_0,NA,NA,completion,29668.877,231674.4000001,231671.988,231688.533,261357.41,261359.30000019,2023-04-01T12:47:59Z,261374.098,Kontrolle,kudhibiti,s,mbinguni,kufunga,utegemezi,NA,NA,NA,NULL,NA,NA,NA,NA,NA,NA,NA,NA,NA,NA,NA,NA,NA,NA,NA,NA,NA,NA,NA
937a8,task,flow.Sequence,1_11,NA,NA,completion,29668.877,231674.30000019,231671.988,231688.533,261357.41,261359.70000029,2023-04-01T12:47:59Z,261374.098,Kontrolle,kudhibiti,s,mbinguni,kufunga,utegemezi,NA,NA,NA,NULL,NA,NA,NA,NA,NA,NA,NA,NA,NA,NA,NA,NA,NA,NA,NA,NA,NA,NA,NA
937a8,Deep Question,html.Page,1_12_0_0,NA,NA,form submission,30029.202000191,261360,261357.41,261374.098,291403.30000019,291404,2023-04-01T12:48:29Z,291404.896,Körper,kiwiliwili,s,mapambano,mpatanishi,kiolezo,mangosho,NA,NA,NULL,NA,NA,NA,NA,NA,NA,NA,NA,NA,NA,NA,NA,NA,NA,NA,NA,NA,NA,NA
937a8,Save data screen,canvas.Screen,1_12_0_1,NA,NA,timeout,505.72100000002,291410.80000019,291393.119,291404.896,291894.19,291895.5,2023-04-01T12:48:30Z,291910.617,Körper,kiwiliwili,s,mapambano,mpatanishi,kiolezo,NA,NA,0,NULL,NA,NA,NA,NA,NA,NA,NA,NA,NA,NA,NA,NA,NA,NA,NA,NA,NA,NA,NA
937a8,deep,flow.Sequence,1_12_0,NA,NA,completion,30520.092,261360,261357.41,261374.098,291894.19,291896.10000038,2023-04-01T12:48:30Z,291910.617,Körper,kiwiliwili,s,mapambano,mpatanishi,kiolezo,NA,NA,NA,NULL,NA,NA,NA,NA,NA,NA,NA,NA,NA,NA,NA,NA,NA,NA,NA,NA,NA,NA,NA
937a8,task,flow.Sequence,1_12,NA,NA,completion,30520.092,261359.9000001,261357.41,261374.098,291894.19,291896.5,2023-04-01T12:48:30Z,291910.617,Körper,kiwiliwili,s,mapambano,mpatanishi,kiolezo,NA,NA,NA,NULL,NA,NA,NA,NA,NA,NA,NA,NA,NA,NA,NA,NA,NA,NA,NA,NA,NA,NA,NA
937a8,Deep Question,html.Page,1_13_0_0,NA,NA,form submission,18387.183000191,291896.80000019,291894.19,291910.617,310297.80000019,310298.30000019,2023-04-01T12:48:48Z,310318.959,Kultur,utamaduni,s,shetani,gerezani,mazingira,uluvu,NA,NA,NULL,NA,NA,NA,NA,NA,NA,NA,NA,NA,NA,NA,NA,NA,NA,NA,NA,NA,NA,NA
937a8,Save data screen,canvas.Screen,1_13_0_1,NA,NA,timeout,507.86600000004,310305.20000029,310291.9,310318.959,310810.404,310811.9000001,2023-04-01T12:48:49Z,310826.825,Kultur,utamaduni,s,shetani,gerezani,mazingira,NA,NA,0,NULL,NA,NA,NA,NA,NA,NA,NA,NA,NA,NA,NA,NA,NA,NA,NA,NA,NA,NA,NA
937a8,deep,flow.Sequence,1_13_0,NA,NA,completion,18899.787,291896.70000029,291894.19,291910.617,310810.404,310812.4000001,2023-04-01T12:48:49Z,310826.825,Kultur,utamaduni,s,shetani,gerezani,mazingira,NA,NA,NA,NULL,NA,NA,NA,NA,NA,NA,NA,NA,NA,NA,NA,NA,NA,NA,NA,NA,NA,NA,NA
937a8,task,flow.Sequence,1_13,NA,NA,completion,18899.787,291896.70000029,291894.19,291910.617,310810.404,310812.80000019,2023-04-01T12:48:49Z,310826.825,Kultur,utamaduni,s,shetani,gerezani,mazingira,NA,NA,NA,NULL,NA,NA,NA,NA,NA,NA,NA,NA,NA,NA,NA,NA,NA,NA,NA,NA,NA,NA,NA
937a8,Deep Question,html.Page,1_14_0_0,NA,NA,form submission,4621.5750000954,310813.10000038,310810.404,310826.825,315448.4000001,315448.9000001,2023-04-01T12:48:53Z,315449.426,Übersicht,kilindo,s,mgusano,chipukizi,kulinganisha,m,NA,NA,NULL,NA,NA,NA,NA,NA,NA,NA,NA,NA,NA,NA,NA,NA,NA,NA,NA,NA,NA,NA
937a8,Save data screen,canvas.Screen,1_14_0_1,NA,NA,timeout,493.103,315456.4000001,315434.558,315449.426,315926.074,315927.5,2023-04-01T12:48:54Z,315942.529,Übersicht,kilindo,s,mgusano,chipukizi,kulinganisha,NA,NA,0,NULL,NA,NA,NA,NA,NA,NA,NA,NA,NA,NA,NA,NA,NA,NA,NA,NA,NA,NA,NA
937a8,deep,flow.Sequence,1_14_0,NA,NA,completion,5099.249,310813.10000038,310810.404,310826.825,315926.074,315928,2023-04-01T12:48:54Z,315942.529,Übersicht,kilindo,s,mgusano,chipukizi,kulinganisha,NA,NA,NA,NULL,NA,NA,NA,NA,NA,NA,NA,NA,NA,NA,NA,NA,NA,NA,NA,NA,NA,NA,NA
937a8,task,flow.Sequence,1_14,NA,NA,completion,5099.249,310812.9000001,310810.404,310826.825,315926.074,315928.4000001,2023-04-01T12:48:54Z,315942.529,Übersicht,kilindo,s,mgusano,chipukizi,kulinganisha,NA,NA,NA,NULL,NA,NA,NA,NA,NA,NA,NA,NA,NA,NA,NA,NA,NA,NA,NA,NA,NA,NA,NA
937a8,Deep Question,html.Page,1_15_0_0,NA,NA,form submission,10930.671000286,315928.70000029,315926.074,315942.529,326873.20000029,326873.70000029,2023-04-01T12:49:05Z,326874.879,Kanzler,diwani,s,rasilmali,mahitaji,maabudu,u,NA,NA,NULL,NA,NA,NA,NA,NA,NA,NA,NA,NA,NA,NA,NA,NA,NA,NA,NA,NA,NA,NA
937a8,Save data screen,canvas.Screen,1_15_0_1,NA,NA,timeout,495.05799999996,326880.30000019,326869.664,326874.879,327353.472,327354.80000019,2023-04-01T12:49:05Z,327369.937,Kanzler,diwani,s,rasilmali,mahitaji,maabudu,NA,NA,0,NULL,NA,NA,NA,NA,NA,NA,NA,NA,NA,NA,NA,NA,NA,NA,NA,NA,NA,NA,NA
937a8,deep,flow.Sequence,1_15_0,NA,NA,completion,11410.943,315928.70000029,315926.074,315942.529,327353.472,327355.30000019,2023-04-01T12:49:05Z,327369.937,Kanzler,diwani,s,rasilmali,mahitaji,maabudu,NA,NA,NA,NULL,NA,NA,NA,NA,NA,NA,NA,NA,NA,NA,NA,NA,NA,NA,NA,NA,NA,NA,NA
937a8,task,flow.Sequence,1_15,NA,NA,completion,11410.943,315928.60000038,315926.074,315942.529,327353.472,327355.70000029,2023-04-01T12:49:05Z,327369.937,Kanzler,diwani,s,rasilmali,mahitaji,maabudu,NA,NA,NA,NULL,NA,NA,NA,NA,NA,NA,NA,NA,NA,NA,NA,NA,NA,NA,NA,NA,NA,NA,NA
937a8,retrieval block 1 (cued recall),flow.Loop,1,NA,NA,completion,310644.301,16707.5,16693.92,16709.171,327353.472,327356.10000038,2023-04-01T12:49:05Z,327369.937,NA,NA,NA,NA,NA,NA,NA,NA,NA,NULL,NA,NA,NA,NA,NA,NA,NA,NA,NA,NA,NA,NA,NA,NA,NA,NA,NA,NA,NA
937a8,Shallow Question,html.Page,2_0_0_0,NA,NA,form submission,6264.1630003815,327356.60000038,327353.472,327369.937,333634.10000038,333634.80000019,2023-04-01T12:49:11Z,333653.243,Gefährdung,kuhatarisha,s,uchokozi,udhaifu,makorowezo,kuhatarisha,NA,NA,"c(""distractor1"", ""distractor2"", ""distractor3"")",NA,NA,NA,NA,NA,NA,NA,NA,NA,NA,NA,NA,NA,NA,NA,NA,NA,NA,NA
937a8,Save data screen,canvas.Screen,2_0_0_1,NA,NA,timeout,498.71599999996,333641,333623.72,333653.243,334135.337,334136.9000001,2023-04-01T12:49:12Z,334151.959,Gefährdung,kuhatarisha,s,uchokozi,udhaifu,makorowezo,NA,NA,1,"c(""distractor1"", ""distractor2"", ""distractor3"")",NA,NA,NA,NA,NA,NA,NA,NA,NA,NA,NA,NA,NA,NA,NA,NA,NA,NA,NA
937a8,shallow,flow.Sequence,2_0_0,NA,NA,completion,6765.4,327356.5,327353.472,327369.937,334135.337,334137.70000029,2023-04-01T12:49:12Z,334151.959,Gefährdung,kuhatarisha,s,uchokozi,udhaifu,makorowezo,NA,NA,NA,"c(""distractor1"", ""distractor2"", ""distractor3"")",NA,NA,NA,NA,NA,NA,NA,NA,NA,NA,NA,NA,NA,NA,NA,NA,NA,NA,NA
937a8,task,flow.Sequence,2_0,NA,NA,completion,6765.4,327356.4000001,327353.472,327369.937,334135.337,334138,2023-04-01T12:49:12Z,334151.959,Gefährdung,kuhatarisha,s,uchokozi,udhaifu,makorowezo,NA,NA,NA,"c(""distractor1"", ""distractor2"", ""distractor3"")",NA,NA,NA,NA,NA,NA,NA,NA,NA,NA,NA,NA,NA,NA,NA,NA,NA,NA,NA
937a8,Shallow Question,html.Page,2_1_0_0,NA,NA,form submission,6365.3410001908,334138.4000001,334135.337,334151.959,340517.30000019,340517.80000019,2023-04-01T12:49:18Z,340519.502,Verzögerung,kuchelewa,s,mwakilishi,mwanauchumi,jaribio,kuchelewa,NA,NA,"c(""distractor1"", ""distractor2"", ""distractor3"")",NA,NA,NA,NA,NA,NA,NA,NA,NA,NA,NA,NA,NA,NA,NA,NA,NA,NA,NA
937a8,Save data screen,canvas.Screen,2_1_0_1,NA,NA,timeout,493.005,340524.10000038,340505.151,340519.502,340996.083,340997.5,2023-04-01T12:49:19Z,341012.507,Verzögerung,kuchelewa,s,mwakilishi,mwanauchumi,jaribio,NA,NA,1,"c(""distractor1"", ""distractor2"", ""distractor3"")",NA,NA,NA,NA,NA,NA,NA,NA,NA,NA,NA,NA,NA,NA,NA,NA,NA,NA,NA
937a8,shallow,flow.Sequence,2_1_0,NA,NA,completion,6844.124,334138.4000001,334135.337,334151.959,340996.083,340998,2023-04-01T12:49:19Z,341012.507,Verzögerung,kuchelewa,s,mwakilishi,mwanauchumi,jaribio,NA,NA,NA,"c(""distractor1"", ""distractor2"", ""distractor3"")",NA,NA,NA,NA,NA,NA,NA,NA,NA,NA,NA,NA,NA,NA,NA,NA,NA,NA,NA
937a8,task,flow.Sequence,2_1,NA,NA,completion,6844.124,334138.30000019,334135.337,334151.959,340996.083,340998.30000019,2023-04-01T12:49:19Z,341012.507,Verzögerung,kuchelewa,s,mwakilishi,mwanauchumi,jaribio,NA,NA,NA,"c(""distractor1"", ""distractor2"", ""distractor3"")",NA,NA,NA,NA,NA,NA,NA,NA,NA,NA,NA,NA,NA,NA,NA,NA,NA,NA,NA
937a8,Shallow Question,html.Page,2_2_0_0,NA,NA,form submission,6313.5930003815,340998.70000029,340996.083,341012.507,347326.10000038,347326.80000019,2023-04-01T12:49:25Z,347327.966,Kontrolle,kudhibiti,s,mbinguni,kufunga,utegemezi,kudhibiti,NA,NA,"c(""distractor1"", ""distractor2"", ""distractor3"")",NA,NA,NA,NA,NA,NA,NA,NA,NA,NA,NA,NA,NA,NA,NA,NA,NA,NA,NA
937a8,Save data screen,canvas.Screen,2_2_0_1,NA,NA,timeout,493.53599999996,347333.20000029,347317.888,347327.966,347804.876,347806.20000029,2023-04-01T12:49:26Z,347821.502,Kontrolle,kudhibiti,s,mbinguni,kufunga,utegemezi,NA,NA,1,"c(""distractor1"", ""distractor2"", ""distractor3"")",NA,NA,NA,NA,NA,NA,NA,NA,NA,NA,NA,NA,NA,NA,NA,NA,NA,NA,NA
937a8,shallow,flow.Sequence,2_2_0,NA,NA,completion,6792.369,340998.70000029,340996.083,341012.507,347804.876,347806.70000029,2023-04-01T12:49:26Z,347821.502,Kontrolle,kudhibiti,s,mbinguni,kufunga,utegemezi,NA,NA,NA,"c(""distractor1"", ""distractor2"", ""distractor3"")",NA,NA,NA,NA,NA,NA,NA,NA,NA,NA,NA,NA,NA,NA,NA,NA,NA,NA,NA
937a8,task,flow.Sequence,2_2,NA,NA,completion,6792.369,340998.60000038,340996.083,341012.507,347804.876,347807.10000038,2023-04-01T12:49:26Z,347821.502,Kontrolle,kudhibiti,s,mbinguni,kufunga,utegemezi,NA,NA,NA,"c(""distractor1"", ""distractor2"", ""distractor3"")",NA,NA,NA,NA,NA,NA,NA,NA,NA,NA,NA,NA,NA,NA,NA,NA,NA,NA,NA
937a8,Shallow Question,html.Page,2_3_0_0,NA,NA,form submission,5719.1980002861,347807.4000001,347804.876,347821.502,353540.70000029,353541.4000001,2023-04-01T12:49:31Z,353543.111,Können,unaweza,d,kiongozi,bustani,mienendo,unaweza,NA,NA,"c(""distractor1"", ""distractor2"", ""distractor3"")",NA,NA,NA,NA,NA,NA,NA,NA,NA,NA,NA,NA,NA,NA,NA,NA,NA,NA,NA
937a8,Save data screen,canvas.Screen,2_3_0_1,NA,NA,timeout,501.58000000002,353547.5,353531.994,353543.111,354028.253,354029.60000038,2023-04-01T12:49:32Z,354044.691,Können,unaweza,d,kiongozi,bustani,mienendo,NA,NA,1,"c(""distractor1"", ""distractor2"", ""distractor3"")",NA,NA,NA,NA,NA,NA,NA,NA,NA,NA,NA,NA,NA,NA,NA,NA,NA,NA,NA
937a8,shallow,flow.Sequence,2_3_0,NA,NA,completion,6206.751,347807.4000001,347804.876,347821.502,354028.253,354030.10000038,2023-04-01T12:49:32Z,354044.691,Können,unaweza,d,kiongozi,bustani,mienendo,NA,NA,NA,"c(""distractor1"", ""distractor2"", ""distractor3"")",NA,NA,NA,NA,NA,NA,NA,NA,NA,NA,NA,NA,NA,NA,NA,NA,NA,NA,NA
937a8,task,flow.Sequence,2_3,NA,NA,completion,6206.751,347807.30000019,347804.876,347821.502,354028.253,354030.4000001,2023-04-01T12:49:32Z,354044.691,Können,unaweza,d,kiongozi,bustani,mienendo,NA,NA,NA,"c(""distractor1"", ""distractor2"", ""distractor3"")",NA,NA,NA,NA,NA,NA,NA,NA,NA,NA,NA,NA,NA,NA,NA,NA,NA,NA,NA
937a8,Shallow Question,html.Page,2_4_0_0,NA,NA,form submission,5906.0090002861,354030.80000019,354028.253,354044.691,359950.70000029,359951.30000019,2023-04-01T12:49:38Z,359963.202,System,maongozi,d,chokochoko,nuksani,mitaani,maongozi,NA,NA,"c(""distractor1"", ""distractor2"", ""distractor3"")",NA,NA,NA,NA,NA,NA,NA,NA,NA,NA,NA,NA,NA,NA,NA,NA,NA,NA,NA
937a8,Save data screen,canvas.Screen,2_4_0_1,NA,NA,timeout,491.538,359957.4000001,359946.807,359963.202,360438.343,360439.60000038,2023-04-01T12:49:38Z,360454.74,System,maongozi,d,chokochoko,nuksani,mitaani,NA,NA,1,"c(""distractor1"", ""distractor2"", ""distractor3"")",NA,NA,NA,NA,NA,NA,NA,NA,NA,NA,NA,NA,NA,NA,NA,NA,NA,NA,NA
937a8,shallow,flow.Sequence,2_4_0,NA,NA,completion,6393.652,354030.80000019,354028.253,354044.691,360438.343,360440.20000029,2023-04-01T12:49:38Z,360454.74,System,maongozi,d,chokochoko,nuksani,mitaani,NA,NA,NA,"c(""distractor1"", ""distractor2"", ""distractor3"")",NA,NA,NA,NA,NA,NA,NA,NA,NA,NA,NA,NA,NA,NA,NA,NA,NA,NA,NA
937a8,task,flow.Sequence,2_4,NA,NA,completion,6393.652,354030.60000038,354028.253,354044.691,360438.343,360440.60000038,2023-04-01T12:49:38Z,360454.74,System,maongozi,d,chokochoko,nuksani,mitaani,NA,NA,NA,"c(""distractor1"", ""distractor2"", ""distractor3"")",NA,NA,NA,NA,NA,NA,NA,NA,NA,NA,NA,NA,NA,NA,NA,NA,NA,NA,NA
937a8,Shallow Question,html.Page,2_5_0_0,NA,NA,form submission,9173.4600002861,360440.9000001,360438.343,360454.74,369628.20000029,369628.9000001,2023-04-01T12:49:47Z,369631.012,Kanzler,diwani,s,rasilmali,mahitaji,maabudu,diwani,NA,NA,"c(""distractor1"", ""distractor2"", ""distractor3"")",NA,NA,NA,NA,NA,NA,NA,NA,NA,NA,NA,NA,NA,NA,NA,NA,NA,NA,NA
937a8,Save data screen,canvas.Screen,2_5_0_1,NA,NA,timeout,500.326,369635.5,369613.189,369631.012,370114.893,370116.20000029,2023-04-01T12:49:48Z,370131.338,Kanzler,diwani,s,rasilmali,mahitaji,maabudu,NA,NA,1,"c(""distractor1"", ""distractor2"", ""distractor3"")",NA,NA,NA,NA,NA,NA,NA,NA,NA,NA,NA,NA,NA,NA,NA,NA,NA,NA,NA
937a8,shallow,flow.Sequence,2_5_0,NA,NA,completion,9660.153,360440.9000001,360438.343,360454.74,370114.893,370116.70000029,2023-04-01T12:49:48Z,370131.338,Kanzler,diwani,s,rasilmali,mahitaji,maabudu,NA,NA,NA,"c(""distractor1"", ""distractor2"", ""distractor3"")",NA,NA,NA,NA,NA,NA,NA,NA,NA,NA,NA,NA,NA,NA,NA,NA,NA,NA,NA
937a8,task,flow.Sequence,2_5,NA,NA,completion,9660.153,360440.70000029,360438.343,360454.74,370114.893,370117.10000038,2023-04-01T12:49:48Z,370131.338,Kanzler,diwani,s,rasilmali,mahitaji,maabudu,NA,NA,NA,"c(""distractor1"", ""distractor2"", ""distractor3"")",NA,NA,NA,NA,NA,NA,NA,NA,NA,NA,NA,NA,NA,NA,NA,NA,NA,NA,NA
937a8,Shallow Question,html.Page,2_6_0_0,NA,NA,form submission,10145.062000095,370117.4000001,370114.893,370131.338,380276.4000001,380277.10000038,2023-04-01T12:49:58Z,380279.289,Kultur,utamaduni,s,shetani,gerezani,mazingira,utamaduni,NA,NA,"c(""distractor1"", ""distractor2"", ""distractor3"")",NA,NA,NA,NA,NA,NA,NA,NA,NA,NA,NA,NA,NA,NA,NA,NA,NA,NA,NA
937a8,Save data screen,canvas.Screen,2_6_0_1,NA,NA,timeout,494.00699999998,380283.70000029,380274.124,380279.289,380756.702,380758.4000001,2023-04-01T12:49:59Z,380773.296,Kultur,utamaduni,s,shetani,gerezani,mazingira,NA,NA,1,"c(""distractor1"", ""distractor2"", ""distractor3"")",NA,NA,NA,NA,NA,NA,NA,NA,NA,NA,NA,NA,NA,NA,NA,NA,NA,NA,NA
937a8,shallow,flow.Sequence,2_6_0,NA,NA,completion,10625.364,370117.4000001,370114.893,370131.338,380756.702,380758.9000001,2023-04-01T12:49:59Z,380773.296,Kultur,utamaduni,s,shetani,gerezani,mazingira,NA,NA,NA,"c(""distractor1"", ""distractor2"", ""distractor3"")",NA,NA,NA,NA,NA,NA,NA,NA,NA,NA,NA,NA,NA,NA,NA,NA,NA,NA,NA
937a8,task,flow.Sequence,2_6,NA,NA,completion,10625.364,370117.30000019,370114.893,370131.338,380756.702,380759.30000019,2023-04-01T12:49:59Z,380773.296,Kultur,utamaduni,s,shetani,gerezani,mazingira,NA,NA,NA,"c(""distractor1"", ""distractor2"", ""distractor3"")",NA,NA,NA,NA,NA,NA,NA,NA,NA,NA,NA,NA,NA,NA,NA,NA,NA,NA,NA
937a8,Shallow Question,html.Page,2_7_0_0,NA,NA,form submission,11856.804000381,380759.70000029,380756.702,380773.296,392630.10000038,392630.70000029,2023-04-01T12:50:10Z,392649.492,Abrechnung,uhasibu,s,kusahihisha,mpambano,mashambulizi,uhasibu,NA,NA,"c(""distractor1"", ""distractor2"", ""distractor3"")",NA,NA,NA,NA,NA,NA,NA,NA,NA,NA,NA,NA,NA,NA,NA,NA,NA,NA,NA
937a8,Save data screen,canvas.Screen,2_7_0_1,NA,NA,timeout,498.34399999998,392637.20000029,392624.128,392649.492,393131.422,393132.9000001,2023-04-01T12:50:11Z,393147.836,Abrechnung,uhasibu,s,kusahihisha,mpambano,mashambulizi,NA,NA,1,"c(""distractor1"", ""distractor2"", ""distractor3"")",NA,NA,NA,NA,NA,NA,NA,NA,NA,NA,NA,NA,NA,NA,NA,NA,NA,NA,NA
937a8,shallow,flow.Sequence,2_7_0,NA,NA,completion,12358.126,380759.60000038,380756.702,380773.296,393131.422,393133.5,2023-04-01T12:50:11Z,393147.836,Abrechnung,uhasibu,s,kusahihisha,mpambano,mashambulizi,NA,NA,NA,"c(""distractor1"", ""distractor2"", ""distractor3"")",NA,NA,NA,NA,NA,NA,NA,NA,NA,NA,NA,NA,NA,NA,NA,NA,NA,NA,NA
937a8,task,flow.Sequence,2_7,NA,NA,completion,12358.126,380759.5,380756.702,380773.296,393131.422,393134,2023-04-01T12:50:11Z,393147.836,Abrechnung,uhasibu,s,kusahihisha,mpambano,mashambulizi,NA,NA,NA,"c(""distractor1"", ""distractor2"", ""distractor3"")",NA,NA,NA,NA,NA,NA,NA,NA,NA,NA,NA,NA,NA,NA,NA,NA,NA,NA,NA
937a8,Shallow Question,html.Page,2_8_0_0,NA,NA,form submission,5659.0640000954,393134.4000001,393131.422,393147.836,398806.9000001,398807.5,2023-04-01T12:50:17Z,398810.002,Übersicht,kilindo,s,mgusano,chipukizi,kulinganisha,kilindo,NA,NA,"c(""distractor1"", ""distractor2"", ""distractor3"")",NA,NA,NA,NA,NA,NA,NA,NA,NA,NA,NA,NA,NA,NA,NA,NA,NA,NA,NA
937a8,Save data screen,canvas.Screen,2_8_0_1,NA,NA,timeout,505.77400000003,398813.70000029,398795.607,398810.002,399299.327,399300.60000038,2023-04-01T12:50:17Z,399315.776,Übersicht,kilindo,s,mgusano,chipukizi,kulinganisha,NA,NA,1,"c(""distractor1"", ""distractor2"", ""distractor3"")",NA,NA,NA,NA,NA,NA,NA,NA,NA,NA,NA,NA,NA,NA,NA,NA,NA,NA,NA
937a8,shallow,flow.Sequence,2_8_0,NA,NA,completion,6151.491,393134.30000019,393131.422,393147.836,399299.327,399301.10000038,2023-04-01T12:50:17Z,399315.776,Übersicht,kilindo,s,mgusano,chipukizi,kulinganisha,NA,NA,NA,"c(""distractor1"", ""distractor2"", ""distractor3"")",NA,NA,NA,NA,NA,NA,NA,NA,NA,NA,NA,NA,NA,NA,NA,NA,NA,NA,NA
937a8,task,flow.Sequence,2_8,NA,NA,completion,6151.491,393134.20000029,393131.422,393147.836,399299.327,399301.4000001,2023-04-01T12:50:17Z,399315.776,Übersicht,kilindo,s,mgusano,chipukizi,kulinganisha,NA,NA,NA,"c(""distractor1"", ""distractor2"", ""distractor3"")",NA,NA,NA,NA,NA,NA,NA,NA,NA,NA,NA,NA,NA,NA,NA,NA,NA,NA,NA
937a8,Shallow Question,html.Page,2_9_0_0,NA,NA,form submission,5982.5240001907,399301.9000001,399299.327,399315.776,405298.30000019,405298.9000001,2023-04-01T12:50:23Z,405316.954,Körper,kiwiliwili,s,mapambano,mpatanishi,kiolezo,kiwiliwili,NA,NA,"c(""distractor1"", ""distractor2"", ""distractor3"")",NA,NA,NA,NA,NA,NA,NA,NA,NA,NA,NA,NA,NA,NA,NA,NA,NA,NA,NA
937a8,Save data screen,canvas.Screen,2_9_0_1,NA,NA,timeout,491.92599999998,405305.20000029,405291.046,405316.954,405792.431,405793.70000029,2023-04-01T12:50:24Z,405808.88,Körper,kiwiliwili,s,mapambano,mpatanishi,kiolezo,NA,NA,1,"c(""distractor1"", ""distractor2"", ""distractor3"")",NA,NA,NA,NA,NA,NA,NA,NA,NA,NA,NA,NA,NA,NA,NA,NA,NA,NA,NA
937a8,shallow,flow.Sequence,2_9_0,NA,NA,completion,6476.655,399301.80000019,399299.327,399315.776,405792.431,405794.30000019,2023-04-01T12:50:24Z,405808.88,Körper,kiwiliwili,s,mapambano,mpatanishi,kiolezo,NA,NA,NA,"c(""distractor1"", ""distractor2"", ""distractor3"")",NA,NA,NA,NA,NA,NA,NA,NA,NA,NA,NA,NA,NA,NA,NA,NA,NA,NA,NA
937a8,task,flow.Sequence,2_9,NA,NA,completion,6476.655,399301.60000038,399299.327,399315.776,405792.431,405794.70000029,2023-04-01T12:50:24Z,405808.88,Körper,kiwiliwili,s,mapambano,mpatanishi,kiolezo,NA,NA,NA,"c(""distractor1"", ""distractor2"", ""distractor3"")",NA,NA,NA,NA,NA,NA,NA,NA,NA,NA,NA,NA,NA,NA,NA,NA,NA,NA,NA
937a8,Shallow Question,html.Page,2_10_0_0,NA,NA,form submission,7146.5200000954,405795,405792.431,405808.88,412955.4000001,412955.9000001,2023-04-01T12:50:31Z,412957.789,Prüfung,mtihani,d,mkulima,mtizamo,ufumbuzi,mtihani,NA,NA,"c(""distractor1"", ""distractor2"", ""distractor3"")",NA,NA,NA,NA,NA,NA,NA,NA,NA,NA,NA,NA,NA,NA,NA,NA,NA,NA,NA
937a8,Save data screen,canvas.Screen,2_10_0_1,NA,NA,timeout,505.68400000001,412962.5,412944.8,412957.789,413447.067,413448.4000001,2023-04-01T12:50:31Z,413463.473,Prüfung,mtihani,d,mkulima,mtizamo,ufumbuzi,NA,NA,1,"c(""distractor1"", ""distractor2"", ""distractor3"")",NA,NA,NA,NA,NA,NA,NA,NA,NA,NA,NA,NA,NA,NA,NA,NA,NA,NA,NA
937a8,shallow,flow.Sequence,2_10_0,NA,NA,completion,7638.187,405794.9000001,405792.431,405808.88,413447.067,413448.80000019,2023-04-01T12:50:31Z,413463.473,Prüfung,mtihani,d,mkulima,mtizamo,ufumbuzi,NA,NA,NA,"c(""distractor1"", ""distractor2"", ""distractor3"")",NA,NA,NA,NA,NA,NA,NA,NA,NA,NA,NA,NA,NA,NA,NA,NA,NA,NA,NA
937a8,task,flow.Sequence,2_10,NA,NA,completion,7638.187,405794.80000019,405792.431,405808.88,413447.067,413449.20000029,2023-04-01T12:50:31Z,413463.473,Prüfung,mtihani,d,mkulima,mtizamo,ufumbuzi,NA,NA,NA,"c(""distractor1"", ""distractor2"", ""distractor3"")",NA,NA,NA,NA,NA,NA,NA,NA,NA,NA,NA,NA,NA,NA,NA,NA,NA,NA,NA
937a8,Shallow Question,html.Page,2_11_0_0,NA,NA,form submission,5988.4270000954,413449.5,413447.067,413463.473,419451.9000001,419452.5,2023-04-01T12:50:37Z,419462.436,Lawine,banguko,d,maambukizi,usuluhishi,chekechea,banguko,NA,NA,"c(""distractor1"", ""distractor2"", ""distractor3"")",NA,NA,NA,NA,NA,NA,NA,NA,NA,NA,NA,NA,NA,NA,NA,NA,NA,NA,NA
937a8,Save data screen,canvas.Screen,2_11_0_1,NA,NA,timeout,497.79800000001,419458.60000038,419440.691,419462.436,419943.821,419945.30000019,2023-04-01T12:50:38Z,419960.234,Lawine,banguko,d,maambukizi,usuluhishi,chekechea,NA,NA,1,"c(""distractor1"", ""distractor2"", ""distractor3"")",NA,NA,NA,NA,NA,NA,NA,NA,NA,NA,NA,NA,NA,NA,NA,NA,NA,NA,NA
937a8,shallow,flow.Sequence,2_11_0,NA,NA,completion,6480.348,413449.5,413447.067,413463.473,419943.821,419945.9000001,2023-04-01T12:50:38Z,419960.234,Lawine,banguko,d,maambukizi,usuluhishi,chekechea,NA,NA,NA,"c(""distractor1"", ""distractor2"", ""distractor3"")",NA,NA,NA,NA,NA,NA,NA,NA,NA,NA,NA,NA,NA,NA,NA,NA,NA,NA,NA
937a8,task,flow.Sequence,2_11,NA,NA,completion,6480.348,413449.4000001,413447.067,413463.473,419943.821,419946.20000029,2023-04-01T12:50:38Z,419960.234,Lawine,banguko,d,maambukizi,usuluhishi,chekechea,NA,NA,NA,"c(""distractor1"", ""distractor2"", ""distractor3"")",NA,NA,NA,NA,NA,NA,NA,NA,NA,NA,NA,NA,NA,NA,NA,NA,NA,NA,NA
937a8,Shallow Question,html.Page,2_12_0_0,NA,NA,form submission,6572.6660000954,419946.60000038,419943.821,419960.234,426532.9000001,426533.5,2023-04-01T12:50:44Z,426535.531,Kreativität,ubunifu,d,mratibu,mwendelezo,makubaliano,ubunifu,NA,NA,"c(""distractor1"", ""distractor2"", ""distractor3"")",NA,NA,NA,NA,NA,NA,NA,NA,NA,NA,NA,NA,NA,NA,NA,NA,NA,NA,NA
937a8,Save data screen,canvas.Screen,2_12_0_1,NA,NA,timeout,498.56699999998,426540.4000001,426525.962,426535.531,427017.715,427019,2023-04-01T12:50:45Z,427034.098,Kreativität,ubunifu,d,mratibu,mwendelezo,makubaliano,NA,NA,1,"c(""distractor1"", ""distractor2"", ""distractor3"")",NA,NA,NA,NA,NA,NA,NA,NA,NA,NA,NA,NA,NA,NA,NA,NA,NA,NA,NA
937a8,shallow,flow.Sequence,2_12_0,NA,NA,completion,7057.481,419946.60000038,419943.821,419960.234,427017.715,427019.5,2023-04-01T12:50:45Z,427034.098,Kreativität,ubunifu,d,mratibu,mwendelezo,makubaliano,NA,NA,NA,"c(""distractor1"", ""distractor2"", ""distractor3"")",NA,NA,NA,NA,NA,NA,NA,NA,NA,NA,NA,NA,NA,NA,NA,NA,NA,NA,NA
937a8,task,flow.Sequence,2_12,NA,NA,completion,7057.481,419946.5,419943.821,419960.234,427017.715,427019.80000019,2023-04-01T12:50:45Z,427034.098,Kreativität,ubunifu,d,mratibu,mwendelezo,makubaliano,NA,NA,NA,"c(""distractor1"", ""distractor2"", ""distractor3"")",NA,NA,NA,NA,NA,NA,NA,NA,NA,NA,NA,NA,NA,NA,NA,NA,NA,NA,NA
937a8,Shallow Question,html.Page,2_13_0_0,NA,NA,form submission,6813.402,427020.20000029,427017.715,427034.098,433847.5,433848.10000038,2023-04-01T12:50:52Z,433850.242,Angreifer,mshambulizi,d,kitengo,tasinia,usafirishaji,mshambulizi,NA,NA,"c(""distractor1"", ""distractor2"", ""distractor3"")",NA,NA,NA,NA,NA,NA,NA,NA,NA,NA,NA,NA,NA,NA,NA,NA,NA,NA,NA
937a8,Save data screen,canvas.Screen,2_13_0_1,NA,NA,timeout,493.13199999998,433854.5,433834.571,433850.242,434326.909,434328.30000019,2023-04-01T12:50:52Z,434343.374,Angreifer,mshambulizi,d,kitengo,tasinia,usafirishaji,NA,NA,1,"c(""distractor1"", ""distractor2"", ""distractor3"")",NA,NA,NA,NA,NA,NA,NA,NA,NA,NA,NA,NA,NA,NA,NA,NA,NA,NA,NA
937a8,shallow,flow.Sequence,2_13_0,NA,NA,completion,7292.811,427020.10000038,427017.715,427034.098,434326.909,434328.80000019,2023-04-01T12:50:52Z,434343.374,Angreifer,mshambulizi,d,kitengo,tasinia,usafirishaji,NA,NA,NA,"c(""distractor1"", ""distractor2"", ""distractor3"")",NA,NA,NA,NA,NA,NA,NA,NA,NA,NA,NA,NA,NA,NA,NA,NA,NA,NA,NA
937a8,task,flow.Sequence,2_13,NA,NA,completion,7292.811,427020,427017.715,427034.098,434326.909,434329.20000029,2023-04-01T12:50:52Z,434343.374,Angreifer,mshambulizi,d,kitengo,tasinia,usafirishaji,NA,NA,NA,"c(""distractor1"", ""distractor2"", ""distractor3"")",NA,NA,NA,NA,NA,NA,NA,NA,NA,NA,NA,NA,NA,NA,NA,NA,NA,NA,NA
937a8,Shallow Question,html.Page,2_14_0_0,NA,NA,form submission,8219.626,434329.60000038,434326.909,434343.374,442563,442563.60000038,2023-04-01T12:51:00Z,442565.058,Sänger,mwimbaji,d,msichana,shughuli,mshirika,mwimbaji,NA,NA,"c(""distractor1"", ""distractor2"", ""distractor3"")",NA,NA,NA,NA,NA,NA,NA,NA,NA,NA,NA,NA,NA,NA,NA,NA,NA,NA,NA
937a8,Save data screen,canvas.Screen,2_14_0_1,NA,NA,timeout,496.69699999999,442569.9000001,442560.771,442565.058,443045.274,443046.60000038,2023-04-01T12:51:01Z,443061.755,Sänger,mwimbaji,d,msichana,shughuli,mshirika,NA,NA,1,"c(""distractor1"", ""distractor2"", ""distractor3"")",NA,NA,NA,NA,NA,NA,NA,NA,NA,NA,NA,NA,NA,NA,NA,NA,NA,NA,NA
937a8,shallow,flow.Sequence,2_14_0,NA,NA,completion,8701.9,434329.5,434326.909,434343.374,443045.274,443047.10000038,2023-04-01T12:51:01Z,443061.755,Sänger,mwimbaji,d,msichana,shughuli,mshirika,NA,NA,NA,"c(""distractor1"", ""distractor2"", ""distractor3"")",NA,NA,NA,NA,NA,NA,NA,NA,NA,NA,NA,NA,NA,NA,NA,NA,NA,NA,NA
937a8,task,flow.Sequence,2_14,NA,NA,completion,8701.9,434329.4000001,434326.909,434343.374,443045.274,443047.5,2023-04-01T12:51:01Z,443061.755,Sänger,mwimbaji,d,msichana,shughuli,mshirika,NA,NA,NA,"c(""distractor1"", ""distractor2"", ""distractor3"")",NA,NA,NA,NA,NA,NA,NA,NA,NA,NA,NA,NA,NA,NA,NA,NA,NA,NA,NA
937a8,Shallow Question,html.Page,2_15_0_0,NA,NA,form submission,14940.645000095,443047.80000019,443045.274,443061.755,458002.4000001,458003.10000038,2023-04-01T12:51:16Z,458016.235,Aufstand,ugomaji,d,mazidio,msingi,kujieleza,ugomaji,NA,NA,"c(""distractor1"", ""distractor2"", ""distractor3"")",NA,NA,NA,NA,NA,NA,NA,NA,NA,NA,NA,NA,NA,NA,NA,NA,NA,NA,NA
937a8,Save data screen,canvas.Screen,2_15_0_1,NA,NA,timeout,518.283,458009.4000001,457994.468,458016.235,458501.302,458502.60000038,2023-04-01T12:51:16Z,458534.518,Aufstand,ugomaji,d,mazidio,msingi,kujieleza,NA,NA,1,"c(""distractor1"", ""distractor2"", ""distractor3"")",NA,NA,NA,NA,NA,NA,NA,NA,NA,NA,NA,NA,NA,NA,NA,NA,NA,NA,NA
937a8,shallow,flow.Sequence,2_15_0,NA,NA,completion,15439.547,443047.70000029,443045.274,443061.755,458501.302,458503.10000038,2023-04-01T12:51:16Z,458534.518,Aufstand,ugomaji,d,mazidio,msingi,kujieleza,NA,NA,NA,"c(""distractor1"", ""distractor2"", ""distractor3"")",NA,NA,NA,NA,NA,NA,NA,NA,NA,NA,NA,NA,NA,NA,NA,NA,NA,NA,NA
937a8,task,flow.Sequence,2_15,NA,NA,completion,15439.547,443047.70000029,443045.274,443061.755,458501.302,458503.5,2023-04-01T12:51:16Z,458534.518,Aufstand,ugomaji,d,mazidio,msingi,kujieleza,NA,NA,NA,"c(""distractor1"", ""distractor2"", ""distractor3"")",NA,NA,NA,NA,NA,NA,NA,NA,NA,NA,NA,NA,NA,NA,NA,NA,NA,NA,NA
937a8,retrieval block 2 (multiple choice),flow.Loop,2,NA,NA,completion,131131.365,327356.30000019,327353.472,327369.937,458501.302,458503.80000019,2023-04-01T12:51:16Z,458534.518,NA,NA,NA,NA,NA,NA,NA,NA,NA,"c(""distractor1"", ""distractor2"", ""distractor3"")",NA,NA,NA,NA,NA,NA,NA,NA,NA,NA,NA,NA,NA,NA,NA,NA,NA,NA,NA
937a8,End,canvas.Screen,3,NA,keypress(Space),response,3283.5820003815,458504,458501.302,458534.518,461818.10000038,461820.30000019,2023-04-01T12:51:20Z,461824.796,NA,NA,NA,NA,NA,NA,NA,NA,NA,NULL,NA,NA,NA,NA,NA,NA,NA,NA,NA,NA,NA,NA,NA,NA,NA,NA,NA,NA,NA
937a8,root,flow.Sequence,NA,NA,NA,completion,460711.62600038,1070.1000003815,789.562,1106.474,461818.10000038,461821.20000029,2023-04-01T12:51:20Z,461824.796,NA,NA,NA,NA,NA,NA,NA,NA,NA,NULL,NA,NA,NA,NA,NA,NA,NA,NA,NA,NA,NA,NA,NA,NA,NA,NA,NA,NA,NA