observation,sender,sender_type,sender_id,response,response_action,ended_on,duration,time_run,time_render,time_show,time_end,time_commit,timestamp,time_switch,distractors,german,swahili,enc,distractor1,distractor2,distractor3,response_2,x,correct,x_2,url_vp,url_sess,meta_labjs_version,meta_location,meta_user_agent,meta_platform,meta_language,meta_locale,meta_time_zone,meta_timezone_offset,meta_screen_width,meta_screen_height,meta_scroll_width,meta_scroll_height,meta_window_inner_width,meta_window_inner_height,meta_device_pixel_ratio,meta_labjs_build_flavor,meta_labjs_build_commit
2c9a3,Introduction general,canvas.Screen,0,weiter,keypress(q),response,477797.455,1552.2999997139,954.162,1604.545,479402,479412.5999999,2023-03-09T13:55:43Z,479432.917,NULL,NA,NA,NA,NA,NA,NA,NA,NA,NA,NA,119,1,20.2.4,https://neurocog.fernuni.ch/studies/vweber/encoding_immediate/index.html?vp=119&sess=1,"Mozilla/5.0 (Windows NT 10.0; Win64; x64) AppleWebKit/537.36 (KHTML, like Gecko) Chrome/110.0.0.0 Safari/537.36",Win32,de-DE,de,Europe/Zurich,-60,1368,912,1368,713,1368,761,2,production,f5b4a49f956347addd546a832a3327688c2c0fef
2c9a3,Introduction practice,canvas.Screen,1_0,NA,keypress(Space),response,10649.583,479413.5,479402.314,479432.917,490082.5,490084.19999981,2023-03-09T13:55:54Z,490106.945,NULL,NA,NA,NA,NA,NA,NA,NA,NA,NA,NA,NA,NA,NA,NA,NA,NA,NA,NA,NA,NA,NA,NA,NA,NA,NA,NA,NA,NA,NA
2c9a3,deep,flow.Sequence,1_1_0_0,NA,NA,skipped,NA,490084.69999981,NA,NA,490082.5,490089.79999971,2023-03-09T13:55:54Z,490106.945,"c(""distractor1"", ""distractor2"", ""distractor3"")",Gegenwart,hadhara,s,katiba,jokofu,mikopo,NA,NA,NA,NA,NA,NA,NA,NA,NA,NA,NA,NA,NA,NA,NA,NA,NA,NA,NA,NA,NA,NA,NA
2c9a3,Shallow Question,html.Page,1_1_0_1_0,NA,NA,form submission,19059.354999714,490090.29999971,490091.966,490106.945,509166.29999971,509166.9000001,2023-03-09T13:56:13Z,509203.369,"c(""distractor1"", ""distractor2"", ""distractor3"")",Gegenwart,hadhara,s,katiba,jokofu,mikopo,hadhara,NA,NA,NA,NA,NA,NA,NA,NA,NA,NA,NA,NA,NA,NA,NA,NA,NA,NA,NA,NA,NA,NA
2c9a3,"""Richtig""-Screen",canvas.Screen,1_1_0_1_1,NA,NA,timeout,5020.099,509171.0999999,509153.626,509203.369,514190.081,514195.29999971,2023-03-09T13:56:18Z,514223.468,"c(""distractor1"", ""distractor2"", ""distractor3"")",Gegenwart,hadhara,s,katiba,jokofu,mikopo,NA,NA,1,NA,NA,NA,NA,NA,NA,NA,NA,NA,NA,NA,NA,NA,NA,NA,NA,NA,NA,NA,NA
2c9a3,"""Falsch""-Screen",canvas.Screen,1_1_0_1_2,NA,NA,skipped,NA,514198.5999999,NA,NA,514190.081,514199,2023-03-09T13:56:18Z,514223.468,"c(""distractor1"", ""distractor2"", ""distractor3"")",Gegenwart,hadhara,s,katiba,jokofu,mikopo,NA,NA,NA,NA,NA,NA,NA,NA,NA,NA,NA,NA,NA,NA,NA,NA,NA,NA,NA,NA,NA,NA,NA
2c9a3,shallow,flow.Sequence,1_1_0_1,NA,NA,completion,24083.136,490090.19999981,490091.966,490106.945,514190.081,514199.4000001,2023-03-09T13:56:18Z,514223.468,"c(""distractor1"", ""distractor2"", ""distractor3"")",Gegenwart,hadhara,s,katiba,jokofu,mikopo,NA,NA,NA,NA,NA,NA,NA,NA,NA,NA,NA,NA,NA,NA,NA,NA,NA,NA,NA,NA,NA,NA,NA
2c9a3,task,flow.Sequence,1_1_0,NA,NA,completion,24083.136,490084.69999981,490091.966,490106.945,514190.081,514199.79999971,2023-03-09T13:56:18Z,514223.468,"c(""distractor1"", ""distractor2"", ""distractor3"")",Gegenwart,hadhara,s,katiba,jokofu,mikopo,NA,NA,NA,NA,NA,NA,NA,NA,NA,NA,NA,NA,NA,NA,NA,NA,NA,NA,NA,NA,NA,NA,NA
2c9a3,deep,flow.Sequence,1_1_1_0,NA,NA,skipped,NA,514200.19999981,NA,NA,514190.081,514200.29999971,2023-03-09T13:56:18Z,514223.468,"c(""distractor1"", ""distractor2"", ""distractor3"")",Rückhalt,msaada,s,muhula,auwali,kiwimbe,NA,NA,NA,NA,NA,NA,NA,NA,NA,NA,NA,NA,NA,NA,NA,NA,NA,NA,NA,NA,NA,NA,NA
2c9a3,Shallow Question,html.Page,1_1_1_1_0,NA,NA,form submission,9491.2319998093,514200.79999971,514190.081,514223.468,523714.69999981,523715.5,2023-03-09T13:56:28Z,523746.755,"c(""distractor1"", ""distractor2"", ""distractor3"")",Rückhalt,msaada,s,muhula,auwali,kiwimbe,kiwimbe,NA,NA,NA,NA,NA,NA,NA,NA,NA,NA,NA,NA,NA,NA,NA,NA,NA,NA,NA,NA,NA,NA
2c9a3,"""Richtig""-Screen",canvas.Screen,1_1_1_1_1,NA,NA,skipped,NA,523723.0999999,NA,NA,523714.69999981,523723.5,2023-03-09T13:56:28Z,523746.755,"c(""distractor1"", ""distractor2"", ""distractor3"")",Rückhalt,msaada,s,muhula,auwali,kiwimbe,NA,NA,NA,NA,NA,NA,NA,NA,NA,NA,NA,NA,NA,NA,NA,NA,NA,NA,NA,NA,NA,NA,NA
2c9a3,"""Falsch""-Screen",canvas.Screen,1_1_1_1_2,NA,NA,timeout,5003.554,523726.5,523696.907,523746.755,528733.733,528735.29999971,2023-03-09T13:56:33Z,528750.309,"c(""distractor1"", ""distractor2"", ""distractor3"")",Rückhalt,msaada,s,muhula,auwali,kiwimbe,NA,NA,0,NA,NA,NA,NA,NA,NA,NA,NA,NA,NA,NA,NA,NA,NA,NA,NA,NA,NA,NA,NA
2c9a3,shallow,flow.Sequence,1_1_1_1,NA,NA,completion,14510.265,514200.5999999,514190.081,514223.468,528733.733,528736,2023-03-09T13:56:33Z,528750.309,"c(""distractor1"", ""distractor2"", ""distractor3"")",Rückhalt,msaada,s,muhula,auwali,kiwimbe,NA,NA,NA,NA,NA,NA,NA,NA,NA,NA,NA,NA,NA,NA,NA,NA,NA,NA,NA,NA,NA,NA,NA
2c9a3,task,flow.Sequence,1_1_1,NA,NA,completion,14510.265,514200,514190.081,514223.468,528733.733,528736.5,2023-03-09T13:56:33Z,528750.309,"c(""distractor1"", ""distractor2"", ""distractor3"")",Rückhalt,msaada,s,muhula,auwali,kiwimbe,NA,NA,NA,NA,NA,NA,NA,NA,NA,NA,NA,NA,NA,NA,NA,NA,NA,NA,NA,NA,NA,NA,NA
2c9a3,Deep Question,html.Page,1_1_2_0_0,NA,NA,form submission,13805.890999809,528736.9000001,528733.733,528750.309,542556.19999981,542556.9000001,2023-03-09T13:56:47Z,542576.522,"c(""distractor1"", ""distractor2"", ""distractor3"")",Qualität,mtindo,d,NA,NA,NA,a,NA,NA,NA,NA,NA,NA,NA,NA,NA,NA,NA,NA,NA,NA,NA,NA,NA,NA,NA,NA,NA,NA
2c9a3,"""Richtig""-Screen",canvas.Screen,1_1_2_0_1,NA,NA,skipped,NA,542564.19999981,NA,NA,542556.19999981,542564.79999971,2023-03-09T13:56:47Z,542576.522,"c(""distractor1"", ""distractor2"", ""distractor3"")",Qualität,mtindo,d,NA,NA,NA,NA,NA,NA,NA,NA,NA,NA,NA,NA,NA,NA,NA,NA,NA,NA,NA,NA,NA,NA,NA,NA,NA,NA
2c9a3,"""Falsch""-Screen",canvas.Screen,1_1_2_0_2,NA,NA,timeout,5003.208,542567.69999981,542543.296,542576.522,547563.314,547564.79999971,2023-03-09T13:56:52Z,547579.73,"c(""distractor1"", ""distractor2"", ""distractor3"")",Qualität,mtindo,d,NA,NA,NA,NA,NA,0,NA,NA,NA,NA,NA,NA,NA,NA,NA,NA,NA,NA,NA,NA,NA,NA,NA,NA,NA,NA
2c9a3,deep,flow.Sequence,1_1_2_0,NA,NA,completion,18813.005,528736.79999971,528733.733,528750.309,547563.314,547565.4000001,2023-03-09T13:56:52Z,547579.73,"c(""distractor1"", ""distractor2"", ""distractor3"")",Qualität,mtindo,d,NA,NA,NA,NA,NA,NA,NA,NA,NA,NA,NA,NA,NA,NA,NA,NA,NA,NA,NA,NA,NA,NA,NA,NA,NA,NA
2c9a3,shallow,flow.Sequence,1_1_2_1,NA,NA,skipped,NA,547565.5999999,NA,NA,547563.314,547565.9000001,2023-03-09T13:56:52Z,547579.73,"c(""distractor1"", ""distractor2"", ""distractor3"")",Qualität,mtindo,d,NA,NA,NA,NA,NA,NA,NA,NA,NA,NA,NA,NA,NA,NA,NA,NA,NA,NA,NA,NA,NA,NA,NA,NA,NA,NA
2c9a3,task,flow.Sequence,1_1_2,NA,NA,completion,18813.005,528736.69999981,528733.733,528750.309,547563.314,547566.19999981,2023-03-09T13:56:52Z,547579.73,"c(""distractor1"", ""distractor2"", ""distractor3"")",Qualität,mtindo,d,NA,NA,NA,NA,NA,NA,NA,NA,NA,NA,NA,NA,NA,NA,NA,NA,NA,NA,NA,NA,NA,NA,NA,NA,NA,NA
2c9a3,Deep Question,html.Page,1_1_3_0_0,NA,NA,form submission,6428.0699997139,547566.5,547563.314,547579.73,554007.79999971,554008.29999971,2023-03-09T13:56:58Z,554034.51,"c(""distractor1"", ""distractor2"", ""distractor3"")",Schatten,kivuli,d,NA,NA,NA,a,NA,NA,NA,NA,NA,NA,NA,NA,NA,NA,NA,NA,NA,NA,NA,NA,NA,NA,NA,NA,NA,NA
2c9a3,"""Richtig""-Screen",canvas.Screen,1_1_3_0_1,NA,NA,skipped,NA,554015.69999981,NA,NA,554007.79999971,554016.0999999,2023-03-09T13:56:58Z,554034.51,"c(""distractor1"", ""distractor2"", ""distractor3"")",Schatten,kivuli,d,NA,NA,NA,NA,NA,NA,NA,NA,NA,NA,NA,NA,NA,NA,NA,NA,NA,NA,NA,NA,NA,NA,NA,NA,NA,NA
2c9a3,"""Falsch""-Screen",canvas.Screen,1_1_3_0_2,NA,NA,timeout,5003.1899999999,554019.19999981,554001.046,554034.51,559020.995,559022.29999971,2023-03-09T13:57:03Z,559037.7,"c(""distractor1"", ""distractor2"", ""distractor3"")",Schatten,kivuli,d,NA,NA,NA,NA,NA,0,NA,NA,NA,NA,NA,NA,NA,NA,NA,NA,NA,NA,NA,NA,NA,NA,NA,NA,NA,NA
2c9a3,deep,flow.Sequence,1_1_3_0,NA,NA,completion,11441.265,547566.5,547563.314,547579.73,559020.995,559022.9000001,2023-03-09T13:57:03Z,559037.7,"c(""distractor1"", ""distractor2"", ""distractor3"")",Schatten,kivuli,d,NA,NA,NA,NA,NA,NA,NA,NA,NA,NA,NA,NA,NA,NA,NA,NA,NA,NA,NA,NA,NA,NA,NA,NA,NA,NA
2c9a3,shallow,flow.Sequence,1_1_3_1,NA,NA,skipped,NA,559023.19999981,NA,NA,559020.995,559023.4000001,2023-03-09T13:57:03Z,559037.7,"c(""distractor1"", ""distractor2"", ""distractor3"")",Schatten,kivuli,d,NA,NA,NA,NA,NA,NA,NA,NA,NA,NA,NA,NA,NA,NA,NA,NA,NA,NA,NA,NA,NA,NA,NA,NA,NA,NA
2c9a3,task,flow.Sequence,1_1_3,NA,NA,completion,11441.265,547566.5,547563.314,547579.73,559020.995,559023.69999981,2023-03-09T13:57:03Z,559037.7,"c(""distractor1"", ""distractor2"", ""distractor3"")",Schatten,kivuli,d,NA,NA,NA,NA,NA,NA,NA,NA,NA,NA,NA,NA,NA,NA,NA,NA,NA,NA,NA,NA,NA,NA,NA,NA,NA,NA
2c9a3,deep,flow.Sequence,1_1_4_0,NA,NA,skipped,NA,559024,NA,NA,559020.995,559024.19999981,2023-03-09T13:57:03Z,559037.7,"c(""distractor1"", ""distractor2"", ""distractor3"")",Kritik,lawama,s,dereva,nafasi,mawazo,NA,NA,NA,NA,NA,NA,NA,NA,NA,NA,NA,NA,NA,NA,NA,NA,NA,NA,NA,NA,NA,NA,NA
2c9a3,Shallow Question,html.Page,1_1_4_1_0,NA,NA,form submission,7916.2000000954,559024.5,559020.995,559037.7,566953.9000001,566954.4000001,2023-03-09T13:57:11Z,566959.766,"c(""distractor1"", ""distractor2"", ""distractor3"")",Kritik,lawama,s,dereva,nafasi,mawazo,nafasi,NA,NA,NA,NA,NA,NA,NA,NA,NA,NA,NA,NA,NA,NA,NA,NA,NA,NA,NA,NA,NA,NA
2c9a3,"""Richtig""-Screen",canvas.Screen,1_1_4_1_1,NA,NA,skipped,NA,566961.69999981,NA,NA,566953.9000001,566962.0999999,2023-03-09T13:57:11Z,566959.766,"c(""distractor1"", ""distractor2"", ""distractor3"")",Kritik,lawama,s,dereva,nafasi,mawazo,NA,NA,NA,NA,NA,NA,NA,NA,NA,NA,NA,NA,NA,NA,NA,NA,NA,NA,NA,NA,NA,NA,NA
2c9a3,"""Falsch""-Screen",canvas.Screen,1_1_4_1_2,NA,NA,timeout,5003.572,566964.29999971,566943.272,566959.766,571946.856,571948.19999981,2023-03-09T13:57:16Z,571963.338,"c(""distractor1"", ""distractor2"", ""distractor3"")",Kritik,lawama,s,dereva,nafasi,mawazo,NA,NA,0,NA,NA,NA,NA,NA,NA,NA,NA,NA,NA,NA,NA,NA,NA,NA,NA,NA,NA,NA,NA
2c9a3,shallow,flow.Sequence,1_1_4_1,NA,NA,completion,12909.156,559024.4000001,559020.995,559037.7,571946.856,571948.69999981,2023-03-09T13:57:16Z,571963.338,"c(""distractor1"", ""distractor2"", ""distractor3"")",Kritik,lawama,s,dereva,nafasi,mawazo,NA,NA,NA,NA,NA,NA,NA,NA,NA,NA,NA,NA,NA,NA,NA,NA,NA,NA,NA,NA,NA,NA,NA
2c9a3,task,flow.Sequence,1_1_4,NA,NA,completion,12909.156,559023.9000001,559020.995,559037.7,571946.856,571949,2023-03-09T13:57:16Z,571963.338,"c(""distractor1"", ""distractor2"", ""distractor3"")",Kritik,lawama,s,dereva,nafasi,mawazo,NA,NA,NA,NA,NA,NA,NA,NA,NA,NA,NA,NA,NA,NA,NA,NA,NA,NA,NA,NA,NA,NA,NA
2c9a3,Deep Question,html.Page,1_1_5_0_0,NA,NA,form submission,5238.3619998093,571949.4000001,571946.856,571963.338,577201.69999981,577202.19999981,2023-03-09T13:57:21Z,577216.803,"c(""distractor1"", ""distractor2"", ""distractor3"")",Gesundheit,salama,d,NA,NA,NA,a,NA,NA,NA,NA,NA,NA,NA,NA,NA,NA,NA,NA,NA,NA,NA,NA,NA,NA,NA,NA,NA,NA
2c9a3,"""Richtig""-Screen",canvas.Screen,1_1_5_0_1,NA,NA,skipped,NA,577209.79999971,NA,NA,577201.69999981,577210.19999981,2023-03-09T13:57:21Z,577216.803,"c(""distractor1"", ""distractor2"", ""distractor3"")",Gesundheit,salama,d,NA,NA,NA,NA,NA,NA,NA,NA,NA,NA,NA,NA,NA,NA,NA,NA,NA,NA,NA,NA,NA,NA,NA,NA,NA,NA
2c9a3,"""Falsch""-Screen",canvas.Screen,1_1_5_0_2,NA,NA,timeout,5003.414,577212.4000001,577183.749,577216.803,582203.789,582205.0999999,2023-03-09T13:57:26Z,582220.217,"c(""distractor1"", ""distractor2"", ""distractor3"")",Gesundheit,salama,d,NA,NA,NA,NA,NA,0,NA,NA,NA,NA,NA,NA,NA,NA,NA,NA,NA,NA,NA,NA,NA,NA,NA,NA,NA,NA
2c9a3,deep,flow.Sequence,1_1_5_0,NA,NA,completion,10240.451,571949.29999971,571946.856,571963.338,582203.789,582205.5999999,2023-03-09T13:57:26Z,582220.217,"c(""distractor1"", ""distractor2"", ""distractor3"")",Gesundheit,salama,d,NA,NA,NA,NA,NA,NA,NA,NA,NA,NA,NA,NA,NA,NA,NA,NA,NA,NA,NA,NA,NA,NA,NA,NA,NA,NA
2c9a3,shallow,flow.Sequence,1_1_5_1,NA,NA,skipped,NA,582205.79999971,NA,NA,582203.789,582206,2023-03-09T13:57:26Z,582220.217,"c(""distractor1"", ""distractor2"", ""distractor3"")",Gesundheit,salama,d,NA,NA,NA,NA,NA,NA,NA,NA,NA,NA,NA,NA,NA,NA,NA,NA,NA,NA,NA,NA,NA,NA,NA,NA,NA,NA
2c9a3,task,flow.Sequence,1_1_5,NA,NA,completion,10240.451,571949.19999981,571946.856,571963.338,582203.789,582206.5,2023-03-09T13:57:26Z,582220.217,"c(""distractor1"", ""distractor2"", ""distractor3"")",Gesundheit,salama,d,NA,NA,NA,NA,NA,NA,NA,NA,NA,NA,NA,NA,NA,NA,NA,NA,NA,NA,NA,NA,NA,NA,NA,NA,NA,NA
2c9a3,block,flow.Loop,1_1,NA,NA,completion,92096.844,490084.5,490091.966,490106.945,582203.789,582206.9000001,2023-03-09T13:57:26Z,582220.217,"c(""distractor1"", ""distractor2"", ""distractor3"")",NA,NA,NA,NA,NA,NA,NA,NA,NA,NA,NA,NA,NA,NA,NA,NA,NA,NA,NA,NA,NA,NA,NA,NA,NA,NA,NA,NA,NA
2c9a3,Practice,flow.Sequence,1,NA,NA,completion,102770.872,479413.4000001,479402.314,479432.917,582203.789,582207.29999971,2023-03-09T13:57:26Z,582220.217,NULL,NA,NA,NA,NA,NA,NA,NA,NA,NA,NA,NA,NA,NA,NA,NA,NA,NA,NA,NA,NA,NA,NA,NA,NA,NA,NA,NA,NA,NA
2c9a3,Experiment start,canvas.Screen,2,weiter,keypress(q),response,35081.482999809,582207.5,582203.789,582220.217,617301.69999981,617308,2023-03-09T13:58:01Z,617611.199,NULL,NA,NA,NA,NA,NA,NA,NA,NA,NA,NA,NA,NA,NA,NA,NA,NA,NA,NA,NA,NA,NA,NA,NA,NA,NA,NA,NA,NA,NA
2c9a3,Deep Question,html.Page,3_0_0_0_0_0_0,NA,NA,form submission,5784.801,617605.29999971,617290.255,617611.199,623396,623396.4000001,2023-03-09T13:58:07Z,623398.472,NULL,Hoffnung,matarajio,d,NA,NA,NA,a,NA,NA,0,NA,NA,NA,NA,NA,NA,NA,NA,NA,NA,NA,NA,NA,NA,NA,NA,NA,NA,NA
2c9a3,"""Richtig""-Screen",canvas.Screen,3_0_0_0_0_0_1,NA,NA,skipped,NA,623400.19999981,NA,NA,623396,623400.5999999,2023-03-09T13:58:07Z,623398.472,NULL,Hoffnung,matarajio,d,NA,NA,NA,NA,sdf,NA,0,NA,NA,NA,NA,NA,NA,NA,NA,NA,NA,NA,NA,NA,NA,NA,NA,NA,NA,NA
2c9a3,"""Falsch""-Screen",canvas.Screen,3_0_0_0_0_0_2,NA,NA,timeout,5003.481,623401.5999999,623381.947,623398.472,628385.576,628386.69999981,2023-03-09T13:58:12Z,628401.953,NULL,Hoffnung,matarajio,d,NA,NA,NA,NA,sdf,0,0,NA,NA,NA,NA,NA,NA,NA,NA,NA,NA,NA,NA,NA,NA,NA,NA,NA,NA,NA
2c9a3,deep,flow.Sequence,3_0_0_0_0_0,NA,NA,completion,10774.377,617605.29999971,617290.255,617611.199,628385.576,628387.29999971,2023-03-09T13:58:12Z,628401.953,NULL,Hoffnung,matarajio,d,NA,NA,NA,NA,sdf,NA,0,NA,NA,NA,NA,NA,NA,NA,NA,NA,NA,NA,NA,NA,NA,NA,NA,NA,NA,NA
2c9a3,shallow,flow.Sequence,3_0_0_0_0_1,NA,NA,skipped,NA,628387.5,NA,NA,628385.576,628387.69999981,2023-03-09T13:58:12Z,628401.953,NULL,Hoffnung,matarajio,d,NA,NA,NA,NA,sdf,NA,0,NA,NA,NA,NA,NA,NA,NA,NA,NA,NA,NA,NA,NA,NA,NA,NA,NA,NA,NA
2c9a3,task,flow.Sequence,3_0_0_0_0,NA,NA,completion,10774.377,617605.29999971,617290.255,617611.199,628385.576,628387.9000001,2023-03-09T13:58:12Z,628401.953,NULL,Hoffnung,matarajio,d,NA,NA,NA,NA,sdf,NA,0,NA,NA,NA,NA,NA,NA,NA,NA,NA,NA,NA,NA,NA,NA,NA,NA,NA,NA,NA
2c9a3,deep,flow.Sequence,3_0_0_0_1_0,NA,NA,skipped,NA,628388.0999999,NA,NA,628385.576,628388.19999981,2023-03-09T13:58:12Z,628401.953,NULL,Schock,mshtuko,s,biashara,kukataza,vichekesho,NA,sdf,NA,0,NA,NA,NA,NA,NA,NA,NA,NA,NA,NA,NA,NA,NA,NA,NA,NA,NA,NA,NA
2c9a3,Shallow Question,html.Page,3_0_0_0_1_1_0,NA,NA,form submission,6396.3469997139,628388.4000001,628385.576,628401.953,634798.29999971,634799,2023-03-09T13:58:19Z,634823.023,NULL,Schock,mshtuko,s,biashara,kukataza,vichekesho,kukataza,NA,NA,0,NA,NA,NA,NA,NA,NA,NA,NA,NA,NA,NA,NA,NA,NA,NA,NA,NA,NA,NA
2c9a3,"""Richtig""-Screen",canvas.Screen,3_0_0_0_1_1_1,NA,NA,skipped,NA,634806,NA,NA,634798.29999971,634806.19999981,2023-03-09T13:58:19Z,634823.023,NULL,Schock,mshtuko,s,biashara,kukataza,vichekesho,NA,sdf,NA,0,NA,NA,NA,NA,NA,NA,NA,NA,NA,NA,NA,NA,NA,NA,NA,NA,NA,NA,NA
2c9a3,"""Falsch""-Screen",canvas.Screen,3_0_0_0_1_1_2,NA,NA,timeout,5003.514,634808.0999999,634789.668,634823.023,639809.932,639811.4000001,2023-03-09T13:58:24Z,639826.537,NULL,Schock,mshtuko,s,biashara,kukataza,vichekesho,NA,sdf,0,0,NA,NA,NA,NA,NA,NA,NA,NA,NA,NA,NA,NA,NA,NA,NA,NA,NA,NA,NA
2c9a3,shallow,flow.Sequence,3_0_0_0_1_1,NA,NA,completion,11407.979,628388.4000001,628385.576,628401.953,639809.932,639812,2023-03-09T13:58:24Z,639826.537,NULL,Schock,mshtuko,s,biashara,kukataza,vichekesho,NA,sdf,NA,0,NA,NA,NA,NA,NA,NA,NA,NA,NA,NA,NA,NA,NA,NA,NA,NA,NA,NA,NA
2c9a3,task,flow.Sequence,3_0_0_0_1,NA,NA,completion,11407.979,628388,628385.576,628401.953,639809.932,639812.29999971,2023-03-09T13:58:24Z,639826.537,NULL,Schock,mshtuko,s,biashara,kukataza,vichekesho,NA,sdf,NA,0,NA,NA,NA,NA,NA,NA,NA,NA,NA,NA,NA,NA,NA,NA,NA,NA,NA,NA,NA
2c9a3,deep,flow.Sequence,3_0_0_0_2_0,NA,NA,skipped,NA,639812.5999999,NA,NA,639809.932,639812.79999971,2023-03-09T13:58:24Z,639826.537,NULL,Theorie,nadharia,s,ushungi,mkutano,uwakilishi,NA,sdf,NA,0,NA,NA,NA,NA,NA,NA,NA,NA,NA,NA,NA,NA,NA,NA,NA,NA,NA,NA,NA
2c9a3,Shallow Question,html.Page,3_0_0_0_2_1_0,NA,NA,form submission,8409.1629998093,639813,639809.932,639826.537,648235.69999981,648236.29999971,2023-03-09T13:58:32Z,648248.985,NULL,Theorie,nadharia,s,ushungi,mkutano,uwakilishi,nadharia,NA,NA,0,NA,NA,NA,NA,NA,NA,NA,NA,NA,NA,NA,NA,NA,NA,NA,NA,NA,NA,NA
2c9a3,"""Richtig""-Screen",canvas.Screen,3_0_0_0_2_1_1,NA,NA,timeout,5020.058,648243.19999981,648232.338,648248.985,653235.912,653237.19999981,2023-03-09T13:58:37Z,653269.043,NULL,Theorie,nadharia,s,ushungi,mkutano,uwakilishi,NA,sdf,1,0,NA,NA,NA,NA,NA,NA,NA,NA,NA,NA,NA,NA,NA,NA,NA,NA,NA,NA,NA
2c9a3,"""Falsch""-Screen",canvas.Screen,3_0_0_0_2_1_2,NA,NA,skipped,NA,653243.9000001,NA,NA,653235.912,653244.19999981,2023-03-09T13:58:37Z,653269.043,NULL,Theorie,nadharia,s,ushungi,mkutano,uwakilishi,NA,sdf,NA,0,NA,NA,NA,NA,NA,NA,NA,NA,NA,NA,NA,NA,NA,NA,NA,NA,NA,NA,NA
2c9a3,shallow,flow.Sequence,3_0_0_0_2_1,NA,NA,completion,13409.375,639813,639809.932,639826.537,653235.912,653244.69999981,2023-03-09T13:58:37Z,653269.043,NULL,Theorie,nadharia,s,ushungi,mkutano,uwakilishi,NA,sdf,NA,0,NA,NA,NA,NA,NA,NA,NA,NA,NA,NA,NA,NA,NA,NA,NA,NA,NA,NA,NA
2c9a3,task,flow.Sequence,3_0_0_0_2,NA,NA,completion,13409.375,639812.5999999,639809.932,639826.537,653235.912,653245,2023-03-09T13:58:37Z,653269.043,NULL,Theorie,nadharia,s,ushungi,mkutano,uwakilishi,NA,sdf,NA,0,NA,NA,NA,NA,NA,NA,NA,NA,NA,NA,NA,NA,NA,NA,NA,NA,NA,NA,NA
2c9a3,deep,flow.Sequence,3_0_0_0_3_0,NA,NA,skipped,NA,653245.29999971,NA,NA,653235.912,653245.4000001,2023-03-09T13:58:37Z,653269.043,NULL,Atmosphäre,angahewa,s,kuteseka,usahihi,kutoamini,NA,sdf,NA,0,NA,NA,NA,NA,NA,NA,NA,NA,NA,NA,NA,NA,NA,NA,NA,NA,NA,NA,NA
2c9a3,Shallow Question,html.Page,3_0_0_0_3_1_0,NA,NA,form submission,7562.3570000954,653245.5999999,653235.912,653269.043,660831.4000001,660832.0999999,2023-03-09T13:58:45Z,660857.751,NULL,Atmosphäre,angahewa,s,kuteseka,usahihi,kutoamini,angahewa,NA,NA,0,NA,NA,NA,NA,NA,NA,NA,NA,NA,NA,NA,NA,NA,NA,NA,NA,NA,NA,NA
2c9a3,"""Richtig""-Screen",canvas.Screen,3_0_0_0_3_1_1,NA,NA,timeout,5003.267,660838.79999971,660824.552,660857.751,665844.578,665845.79999971,2023-03-09T13:58:50Z,665861.018,NULL,Atmosphäre,angahewa,s,kuteseka,usahihi,kutoamini,NA,sdf,1,0,NA,NA,NA,NA,NA,NA,NA,NA,NA,NA,NA,NA,NA,NA,NA,NA,NA,NA,NA
2c9a3,"""Falsch""-Screen",canvas.Screen,3_0_0_0_3_1_2,NA,NA,skipped,NA,665852.69999981,NA,NA,665844.578,665853,2023-03-09T13:58:50Z,665861.018,NULL,Atmosphäre,angahewa,s,kuteseka,usahihi,kutoamini,NA,sdf,NA,0,NA,NA,NA,NA,NA,NA,NA,NA,NA,NA,NA,NA,NA,NA,NA,NA,NA,NA,NA
2c9a3,shallow,flow.Sequence,3_0_0_0_3_1,NA,NA,completion,12575.535,653245.5999999,653235.912,653269.043,665844.578,665853.4000001,2023-03-09T13:58:50Z,665861.018,NULL,Atmosphäre,angahewa,s,kuteseka,usahihi,kutoamini,NA,sdf,NA,0,NA,NA,NA,NA,NA,NA,NA,NA,NA,NA,NA,NA,NA,NA,NA,NA,NA,NA,NA
2c9a3,task,flow.Sequence,3_0_0_0_3,NA,NA,completion,12575.535,653245.0999999,653235.912,653269.043,665844.578,665853.69999981,2023-03-09T13:58:50Z,665861.018,NULL,Atmosphäre,angahewa,s,kuteseka,usahihi,kutoamini,NA,sdf,NA,0,NA,NA,NA,NA,NA,NA,NA,NA,NA,NA,NA,NA,NA,NA,NA,NA,NA,NA,NA
2c9a3,Deep Question,html.Page,3_0_0_0_4_0_0,NA,NA,form submission,5547.3820000953,665854,665844.578,665861.018,671408.4000001,671409,2023-03-09T13:58:55Z,671414.873,NULL,Verpackung,ufungaji,d,NA,NA,NA,a,NA,NA,0,NA,NA,NA,NA,NA,NA,NA,NA,NA,NA,NA,NA,NA,NA,NA,NA,NA,NA,NA
2c9a3,"""Richtig""-Screen",canvas.Screen,3_0_0_0_4_0_1,NA,NA,skipped,NA,671415.4000001,NA,NA,671408.4000001,671415.9000001,2023-03-09T13:58:55Z,671414.873,NULL,Verpackung,ufungaji,d,NA,NA,NA,NA,sdf,NA,0,NA,NA,NA,NA,NA,NA,NA,NA,NA,NA,NA,NA,NA,NA,NA,NA,NA,NA,NA
2c9a3,"""Falsch""-Screen",canvas.Screen,3_0_0_0_4_0_2,NA,NA,timeout,5003.421,671418.69999981,671398.438,671414.873,676401.804,676403,2023-03-09T13:59:00Z,676418.294,NULL,Verpackung,ufungaji,d,NA,NA,NA,NA,sdf,0,0,NA,NA,NA,NA,NA,NA,NA,NA,NA,NA,NA,NA,NA,NA,NA,NA,NA,NA,NA
2c9a3,deep,flow.Sequence,3_0_0_0_4_0,NA,NA,completion,10540.786,665854,665844.578,665861.018,676401.804,676403.5,2023-03-09T13:59:00Z,676418.294,NULL,Verpackung,ufungaji,d,NA,NA,NA,NA,sdf,NA,0,NA,NA,NA,NA,NA,NA,NA,NA,NA,NA,NA,NA,NA,NA,NA,NA,NA,NA,NA
2c9a3,shallow,flow.Sequence,3_0_0_0_4_1,NA,NA,skipped,NA,676403.69999981,NA,NA,676401.804,676404,2023-03-09T13:59:00Z,676418.294,NULL,Verpackung,ufungaji,d,NA,NA,NA,NA,sdf,NA,0,NA,NA,NA,NA,NA,NA,NA,NA,NA,NA,NA,NA,NA,NA,NA,NA,NA,NA,NA
2c9a3,task,flow.Sequence,3_0_0_0_4,NA,NA,completion,10540.786,665853.9000001,665844.578,665861.018,676401.804,676404.29999971,2023-03-09T13:59:00Z,676418.294,NULL,Verpackung,ufungaji,d,NA,NA,NA,NA,sdf,NA,0,NA,NA,NA,NA,NA,NA,NA,NA,NA,NA,NA,NA,NA,NA,NA,NA,NA,NA,NA
2c9a3,deep,flow.Sequence,3_0_0_0_5_0,NA,NA,skipped,NA,676404.4000001,NA,NA,676401.804,676404.69999981,2023-03-09T13:59:00Z,676418.294,NULL,Flexibilität,kubadilika,s,enjini,usikilivu,hesabu,NA,sdf,NA,0,NA,NA,NA,NA,NA,NA,NA,NA,NA,NA,NA,NA,NA,NA,NA,NA,NA,NA,NA
2c9a3,Shallow Question,html.Page,3_0_0_0_5_1_0,NA,NA,form submission,8359.0059997139,676404.9000001,676401.804,676418.294,684777.29999971,684777.9000001,2023-03-09T13:59:09Z,684807.376,NULL,Flexibilität,kubadilika,s,enjini,usikilivu,hesabu,kubadilika,NA,NA,0,NA,NA,NA,NA,NA,NA,NA,NA,NA,NA,NA,NA,NA,NA,NA,NA,NA,NA,NA
2c9a3,"""Richtig""-Screen",canvas.Screen,3_0_0_0_5_1_1,NA,NA,timeout,5003.436,684785,684774.161,684807.376,689794.179,689795.5999999,2023-03-09T13:59:14Z,689810.812,NULL,Flexibilität,kubadilika,s,enjini,usikilivu,hesabu,NA,sdf,1,0,NA,NA,NA,NA,NA,NA,NA,NA,NA,NA,NA,NA,NA,NA,NA,NA,NA,NA,NA
2c9a3,"""Falsch""-Screen",canvas.Screen,3_0_0_0_5_1_2,NA,NA,skipped,NA,689802.5,NA,NA,689794.179,689802.9000001,2023-03-09T13:59:14Z,689810.812,NULL,Flexibilität,kubadilika,s,enjini,usikilivu,hesabu,NA,sdf,NA,0,NA,NA,NA,NA,NA,NA,NA,NA,NA,NA,NA,NA,NA,NA,NA,NA,NA,NA,NA
2c9a3,shallow,flow.Sequence,3_0_0_0_5_1,NA,NA,completion,13375.885,676404.9000001,676401.804,676418.294,689794.179,689803.29999971,2023-03-09T13:59:14Z,689810.812,NULL,Flexibilität,kubadilika,s,enjini,usikilivu,hesabu,NA,sdf,NA,0,NA,NA,NA,NA,NA,NA,NA,NA,NA,NA,NA,NA,NA,NA,NA,NA,NA,NA,NA
2c9a3,task,flow.Sequence,3_0_0_0_5,NA,NA,completion,13375.885,676404.4000001,676401.804,676418.294,689794.179,689803.5999999,2023-03-09T13:59:14Z,689810.812,NULL,Flexibilität,kubadilika,s,enjini,usikilivu,hesabu,NA,sdf,NA,0,NA,NA,NA,NA,NA,NA,NA,NA,NA,NA,NA,NA,NA,NA,NA,NA,NA,NA,NA
2c9a3,Deep Question,html.Page,3_0_0_0_6_0_0,NA,NA,form submission,4725.8879998092,689803.9000001,689794.179,689810.812,694536.69999981,694537.29999971,2023-03-09T13:59:19Z,694547.508,NULL,Wechsel,ugeuzaji,d,NA,NA,NA,a,NA,NA,0,NA,NA,NA,NA,NA,NA,NA,NA,NA,NA,NA,NA,NA,NA,NA,NA,NA,NA,NA
2c9a3,"""Richtig""-Screen",canvas.Screen,3_0_0_0_6_0_1,NA,NA,skipped,NA,694543.69999981,NA,NA,694536.69999981,694544,2023-03-09T13:59:19Z,694547.508,NULL,Wechsel,ugeuzaji,d,NA,NA,NA,NA,sdf,NA,0,NA,NA,NA,NA,NA,NA,NA,NA,NA,NA,NA,NA,NA,NA,NA,NA,NA,NA,NA
2c9a3,"""Falsch""-Screen",canvas.Screen,3_0_0_0_6_0_2,NA,NA,timeout,5003.336,694546,694530.971,694547.508,699534.389,699535.5,2023-03-09T13:59:24Z,699550.844,NULL,Wechsel,ugeuzaji,d,NA,NA,NA,NA,sdf,0,0,NA,NA,NA,NA,NA,NA,NA,NA,NA,NA,NA,NA,NA,NA,NA,NA,NA,NA,NA
2c9a3,deep,flow.Sequence,3_0_0_0_6_0,NA,NA,completion,9723.5769999999,689803.79999971,689794.179,689810.812,699534.389,699536,2023-03-09T13:59:24Z,699550.844,NULL,Wechsel,ugeuzaji,d,NA,NA,NA,NA,sdf,NA,0,NA,NA,NA,NA,NA,NA,NA,NA,NA,NA,NA,NA,NA,NA,NA,NA,NA,NA,NA
2c9a3,shallow,flow.Sequence,3_0_0_0_6_1,NA,NA,skipped,NA,699536.29999971,NA,NA,699534.389,699536.5,2023-03-09T13:59:24Z,699550.844,NULL,Wechsel,ugeuzaji,d,NA,NA,NA,NA,sdf,NA,0,NA,NA,NA,NA,NA,NA,NA,NA,NA,NA,NA,NA,NA,NA,NA,NA,NA,NA,NA
2c9a3,task,flow.Sequence,3_0_0_0_6,NA,NA,completion,9723.5769999999,689803.69999981,689794.179,689810.812,699534.389,699536.79999971,2023-03-09T13:59:24Z,699550.844,NULL,Wechsel,ugeuzaji,d,NA,NA,NA,NA,sdf,NA,0,NA,NA,NA,NA,NA,NA,NA,NA,NA,NA,NA,NA,NA,NA,NA,NA,NA,NA,NA
2c9a3,Deep Question,html.Page,3_0_0_0_7_0_0,NA,NA,form submission,5033.9559997139,699537,699534.389,699550.844,704584.79999971,704585.4000001,2023-03-09T13:59:29Z,704587.711,NULL,Erneuerung,ukarabati,d,NA,NA,NA,a,NA,NA,0,NA,NA,NA,NA,NA,NA,NA,NA,NA,NA,NA,NA,NA,NA,NA,NA,NA,NA,NA
2c9a3,"""Richtig""-Screen",canvas.Screen,3_0_0_0_7_0_1,NA,NA,skipped,NA,704592.79999971,NA,NA,704584.79999971,704593.19999981,2023-03-09T13:59:29Z,704587.711,NULL,Erneuerung,ukarabati,d,NA,NA,NA,NA,sdf,NA,0,NA,NA,NA,NA,NA,NA,NA,NA,NA,NA,NA,NA,NA,NA,NA,NA,NA,NA,NA
2c9a3,"""Falsch""-Screen",canvas.Screen,3_0_0_0_7_0_2,NA,NA,timeout,5003.325,704595.29999971,704571.325,704587.711,709574.65,709576.0999999,2023-03-09T13:59:34Z,709591.036,NULL,Erneuerung,ukarabati,d,NA,NA,NA,NA,sdf,0,0,NA,NA,NA,NA,NA,NA,NA,NA,NA,NA,NA,NA,NA,NA,NA,NA,NA,NA,NA
2c9a3,deep,flow.Sequence,3_0_0_0_7_0,NA,NA,completion,10023.806,699537,699534.389,699550.844,709574.65,709576.5999999,2023-03-09T13:59:34Z,709591.036,NULL,Erneuerung,ukarabati,d,NA,NA,NA,NA,sdf,NA,0,NA,NA,NA,NA,NA,NA,NA,NA,NA,NA,NA,NA,NA,NA,NA,NA,NA,NA,NA
2c9a3,shallow,flow.Sequence,3_0_0_0_7_1,NA,NA,skipped,NA,709576.9000001,NA,NA,709574.65,709577.0999999,2023-03-09T13:59:34Z,709591.036,NULL,Erneuerung,ukarabati,d,NA,NA,NA,NA,sdf,NA,0,NA,NA,NA,NA,NA,NA,NA,NA,NA,NA,NA,NA,NA,NA,NA,NA,NA,NA,NA
2c9a3,task,flow.Sequence,3_0_0_0_7,NA,NA,completion,10023.806,699536.9000001,699534.389,699550.844,709574.65,709577.4000001,2023-03-09T13:59:34Z,709591.036,NULL,Erneuerung,ukarabati,d,NA,NA,NA,NA,sdf,NA,0,NA,NA,NA,NA,NA,NA,NA,NA,NA,NA,NA,NA,NA,NA,NA,NA,NA,NA,NA
2c9a3,block,flow.Loop,3_0_0_0,NA,NA,completion,91963.451,617605.19999981,617290.255,617611.199,709574.65,709577.69999981,2023-03-09T13:59:34Z,709591.036,NULL,NA,NA,NA,NA,NA,NA,NA,sdf,NA,0,NA,NA,NA,NA,NA,NA,NA,NA,NA,NA,NA,NA,NA,NA,NA,NA,NA,NA,NA
2c9a3,weiter,canvas.Screen,3_0_0_1,sdf,keypress(Space),response,2060.5639999047,709577.9000001,709574.65,709591.036,711651.5999999,711657.5999999,2023-03-09T13:59:36Z,711709.182,NULL,NA,NA,NA,NA,NA,NA,NA,sdf,NA,0,NA,NA,NA,NA,NA,NA,NA,NA,NA,NA,NA,NA,NA,NA,NA,NA,NA,NA,NA
2c9a3,check continue,flow.Sequence,3_0_0,NA,NA,completion,94040.400999905,617605.0999999,617290.255,617611.199,711651.5999999,711658.0999999,2023-03-09T13:59:36Z,711709.182,NULL,NA,NA,NA,NA,NA,NA,NA,sdf,NA,0,NA,NA,NA,NA,NA,NA,NA,NA,NA,NA,NA,NA,NA,NA,NA,NA,NA,NA,NA
2c9a3,Deep Question,html.Page,3_0_1_0_0_0_0,NA,NA,form submission,8156.7180000953,711715.19999981,711643.409,711709.182,719865.9000001,719866.5,2023-03-09T13:59:44Z,719890.619,NULL,Verpackung,ufungaji,d,NA,NA,NA,ukarabati,NA,NA,1,NA,NA,NA,NA,NA,NA,NA,NA,NA,NA,NA,NA,NA,NA,NA,NA,NA,NA,NA
2c9a3,"""Richtig""-Screen",canvas.Screen,3_0_1_0_0_0_1,NA,NA,skipped,NA,719872.69999981,NA,NA,719865.9000001,719873.19999981,2023-03-09T13:59:44Z,719890.619,NULL,Verpackung,ufungaji,d,NA,NA,NA,NA,sdfdsf,NA,1,NA,NA,NA,NA,NA,NA,NA,NA,NA,NA,NA,NA,NA,NA,NA,NA,NA,NA,NA
2c9a3,"""Falsch""-Screen",canvas.Screen,3_0_1_0_0_0_2,NA,NA,timeout,4994.255,719875.5,719848.166,719890.619,724868.628,724869.9000001,2023-03-09T13:59:49Z,724884.874,NULL,Verpackung,ufungaji,d,NA,NA,NA,NA,sdfdsf,0,1,NA,NA,NA,NA,NA,NA,NA,NA,NA,NA,NA,NA,NA,NA,NA,NA,NA,NA,NA
2c9a3,deep,flow.Sequence,3_0_1_0_0_0,NA,NA,completion,13159.446,711715.19999981,711643.409,711709.182,724868.628,724870.29999971,2023-03-09T13:59:49Z,724884.874,NULL,Verpackung,ufungaji,d,NA,NA,NA,NA,sdfdsf,NA,1,NA,NA,NA,NA,NA,NA,NA,NA,NA,NA,NA,NA,NA,NA,NA,NA,NA,NA,NA
2c9a3,shallow,flow.Sequence,3_0_1_0_0_1,NA,NA,skipped,NA,724870.5999999,NA,NA,724868.628,724870.79999971,2023-03-09T13:59:49Z,724884.874,NULL,Verpackung,ufungaji,d,NA,NA,NA,NA,sdfdsf,NA,1,NA,NA,NA,NA,NA,NA,NA,NA,NA,NA,NA,NA,NA,NA,NA,NA,NA,NA,NA
2c9a3,task,flow.Sequence,3_0_1_0_0,NA,NA,completion,13159.446,711715.0999999,711643.409,711709.182,724868.628,724871.0999999,2023-03-09T13:59:49Z,724884.874,NULL,Verpackung,ufungaji,d,NA,NA,NA,NA,sdfdsf,NA,1,NA,NA,NA,NA,NA,NA,NA,NA,NA,NA,NA,NA,NA,NA,NA,NA,NA,NA,NA
2c9a3,Deep Question,html.Page,3_0_1_0_1_0_0,NA,NA,form submission,7940.2259999047,724871.29999971,724868.628,724884.874,732825.0999999,732826,2023-03-09T13:59:57Z,732840.486,NULL,Erneuerung,ukarabati,d,NA,NA,NA,ukarabati,NA,NA,1,NA,NA,NA,NA,NA,NA,NA,NA,NA,NA,NA,NA,NA,NA,NA,NA,NA,NA,NA
2c9a3,"""Richtig""-Screen",canvas.Screen,3_0_1_0_1_0_1,NA,NA,timeout,5003.3779999999,732833.5,732807.331,732840.486,737827.479,737828.79999971,2023-03-09T14:00:02Z,737843.864,NULL,Erneuerung,ukarabati,d,NA,NA,NA,NA,sdfdsf,1,1,NA,NA,NA,NA,NA,NA,NA,NA,NA,NA,NA,NA,NA,NA,NA,NA,NA,NA,NA
2c9a3,"""Falsch""-Screen",canvas.Screen,3_0_1_0_1_0_2,NA,NA,skipped,NA,737835.69999981,NA,NA,737827.479,737836,2023-03-09T14:00:02Z,737843.864,NULL,Erneuerung,ukarabati,d,NA,NA,NA,NA,sdfdsf,NA,1,NA,NA,NA,NA,NA,NA,NA,NA,NA,NA,NA,NA,NA,NA,NA,NA,NA,NA,NA
2c9a3,deep,flow.Sequence,3_0_1_0_1_0,NA,NA,completion,12942.605,724871.29999971,724868.628,724884.874,737827.479,737836.5,2023-03-09T14:00:02Z,737843.864,NULL,Erneuerung,ukarabati,d,NA,NA,NA,NA,sdfdsf,NA,1,NA,NA,NA,NA,NA,NA,NA,NA,NA,NA,NA,NA,NA,NA,NA,NA,NA,NA,NA
2c9a3,shallow,flow.Sequence,3_0_1_0_1_1,NA,NA,skipped,NA,737836.69999981,NA,NA,737827.479,737836.79999971,2023-03-09T14:00:02Z,737843.864,NULL,Erneuerung,ukarabati,d,NA,NA,NA,NA,sdfdsf,NA,1,NA,NA,NA,NA,NA,NA,NA,NA,NA,NA,NA,NA,NA,NA,NA,NA,NA,NA,NA
2c9a3,task,flow.Sequence,3_0_1_0_1,NA,NA,completion,12942.605,724871.19999981,724868.628,724884.874,737827.479,737837.0999999,2023-03-09T14:00:02Z,737843.864,NULL,Erneuerung,ukarabati,d,NA,NA,NA,NA,sdfdsf,NA,1,NA,NA,NA,NA,NA,NA,NA,NA,NA,NA,NA,NA,NA,NA,NA,NA,NA,NA,NA
2c9a3,Deep Question,html.Page,3_0_1_0_2_0_0,NA,NA,form submission,13721.235999905,737837.4000001,737827.479,737843.864,751565.0999999,751565.5999999,2023-03-09T14:00:16Z,751569.952,NULL,Hoffnung,matarajio,d,NA,NA,NA,m,NA,NA,1,NA,NA,NA,NA,NA,NA,NA,NA,NA,NA,NA,NA,NA,NA,NA,NA,NA,NA,NA
2c9a3,"""Richtig""-Screen",canvas.Screen,3_0_1_0_2_0_1,NA,NA,skipped,NA,751572.5,NA,NA,751565.0999999,751572.9000001,2023-03-09T14:00:16Z,751569.952,NULL,Hoffnung,matarajio,d,NA,NA,NA,NA,sdfdsf,NA,1,NA,NA,NA,NA,NA,NA,NA,NA,NA,NA,NA,NA,NA,NA,NA,NA,NA,NA,NA
2c9a3,"""Falsch""-Screen",canvas.Screen,3_0_1_0_2_0_2,NA,NA,timeout,5003.375,751574.9000001,751553.289,751569.952,756556.866,756558,2023-03-09T14:00:21Z,756573.327,NULL,Hoffnung,matarajio,d,NA,NA,NA,NA,sdfdsf,0,1,NA,NA,NA,NA,NA,NA,NA,NA,NA,NA,NA,NA,NA,NA,NA,NA,NA,NA,NA
2c9a3,deep,flow.Sequence,3_0_1_0_2_0,NA,NA,completion,18713.002,737837.4000001,737827.479,737843.864,756556.866,756558.5999999,2023-03-09T14:00:21Z,756573.327,NULL,Hoffnung,matarajio,d,NA,NA,NA,NA,sdfdsf,NA,1,NA,NA,NA,NA,NA,NA,NA,NA,NA,NA,NA,NA,NA,NA,NA,NA,NA,NA,NA
2c9a3,shallow,flow.Sequence,3_0_1_0_2_1,NA,NA,skipped,NA,756558.69999981,NA,NA,756556.866,756558.9000001,2023-03-09T14:00:21Z,756573.327,NULL,Hoffnung,matarajio,d,NA,NA,NA,NA,sdfdsf,NA,1,NA,NA,NA,NA,NA,NA,NA,NA,NA,NA,NA,NA,NA,NA,NA,NA,NA,NA,NA
2c9a3,task,flow.Sequence,3_0_1_0_2,NA,NA,completion,18713.002,737837.29999971,737827.479,737843.864,756556.866,756559.19999981,2023-03-09T14:00:21Z,756573.327,NULL,Hoffnung,matarajio,d,NA,NA,NA,NA,sdfdsf,NA,1,NA,NA,NA,NA,NA,NA,NA,NA,NA,NA,NA,NA,NA,NA,NA,NA,NA,NA,NA
2c9a3,deep,flow.Sequence,3_0_1_0_3_0,NA,NA,skipped,NA,756559.4000001,NA,NA,756556.866,756559.5,2023-03-09T14:00:21Z,756573.327,NULL,Schock,mshtuko,s,biashara,kukataza,vichekesho,NA,sdfdsf,NA,1,NA,NA,NA,NA,NA,NA,NA,NA,NA,NA,NA,NA,NA,NA,NA,NA,NA,NA,NA
2c9a3,Shallow Question,html.Page,3_0_1_0_3_1_0,NA,NA,form submission,7042.173,756559.69999981,756556.866,756573.327,763615.5,763616.29999971,2023-03-09T14:00:28Z,763628.204,NULL,Schock,mshtuko,s,biashara,kukataza,vichekesho,mshtuko,NA,NA,1,NA,NA,NA,NA,NA,NA,NA,NA,NA,NA,NA,NA,NA,NA,NA,NA,NA,NA,NA
2c9a3,"""Richtig""-Screen",canvas.Screen,3_0_1_0_3_1_1,NA,NA,timeout,5003.4149999999,763623.19999981,763611.954,763628.204,768615.252,768616.5,2023-03-09T14:00:33Z,768631.619,NULL,Schock,mshtuko,s,biashara,kukataza,vichekesho,NA,sdfdsf,1,1,NA,NA,NA,NA,NA,NA,NA,NA,NA,NA,NA,NA,NA,NA,NA,NA,NA,NA,NA
2c9a3,"""Falsch""-Screen",canvas.Screen,3_0_1_0_3_1_2,NA,NA,skipped,NA,768623.9000001,NA,NA,768615.252,768624.29999971,2023-03-09T14:00:33Z,768631.619,NULL,Schock,mshtuko,s,biashara,kukataza,vichekesho,NA,sdfdsf,NA,1,NA,NA,NA,NA,NA,NA,NA,NA,NA,NA,NA,NA,NA,NA,NA,NA,NA,NA,NA
2c9a3,shallow,flow.Sequence,3_0_1_0_3_1,NA,NA,completion,12041.925,756559.69999981,756556.866,756573.327,768615.252,768624.69999981,2023-03-09T14:00:33Z,768631.619,NULL,Schock,mshtuko,s,biashara,kukataza,vichekesho,NA,sdfdsf,NA,1,NA,NA,NA,NA,NA,NA,NA,NA,NA,NA,NA,NA,NA,NA,NA,NA,NA,NA,NA
2c9a3,task,flow.Sequence,3_0_1_0_3,NA,NA,completion,12041.925,756559.4000001,756556.866,756573.327,768615.252,768625,2023-03-09T14:00:33Z,768631.619,NULL,Schock,mshtuko,s,biashara,kukataza,vichekesho,NA,sdfdsf,NA,1,NA,NA,NA,NA,NA,NA,NA,NA,NA,NA,NA,NA,NA,NA,NA,NA,NA,NA,NA
2c9a3,deep,flow.Sequence,3_0_1_0_4_0,NA,NA,skipped,NA,768625.19999981,NA,NA,768615.252,768625.5,2023-03-09T14:00:33Z,768631.619,NULL,Theorie,nadharia,s,ushungi,mkutano,uwakilishi,NA,sdfdsf,NA,1,NA,NA,NA,NA,NA,NA,NA,NA,NA,NA,NA,NA,NA,NA,NA,NA,NA,NA,NA
2c9a3,Shallow Question,html.Page,3_0_1_0_4_1_0,NA,NA,form submission,5339.6809997139,768625.5999999,768615.252,768631.619,773971.29999971,773971.9000001,2023-03-09T14:00:38Z,773985.35,NULL,Theorie,nadharia,s,ushungi,mkutano,uwakilishi,nadharia,NA,NA,1,NA,NA,NA,NA,NA,NA,NA,NA,NA,NA,NA,NA,NA,NA,NA,NA,NA,NA,NA
2c9a3,"""Richtig""-Screen",canvas.Screen,3_0_1_0_4_1_1,NA,NA,timeout,5003.409,773978.4000001,773968.831,773985.35,778972.127,778973.4000001,2023-03-09T14:00:43Z,778988.759,NULL,Theorie,nadharia,s,ushungi,mkutano,uwakilishi,NA,sdfdsf,1,1,NA,NA,NA,NA,NA,NA,NA,NA,NA,NA,NA,NA,NA,NA,NA,NA,NA,NA,NA
2c9a3,"""Falsch""-Screen",canvas.Screen,3_0_1_0_4_1_2,NA,NA,skipped,NA,778979.9000001,NA,NA,778972.127,778980.19999981,2023-03-09T14:00:43Z,778988.759,NULL,Theorie,nadharia,s,ushungi,mkutano,uwakilishi,NA,sdfdsf,NA,1,NA,NA,NA,NA,NA,NA,NA,NA,NA,NA,NA,NA,NA,NA,NA,NA,NA,NA,NA
2c9a3,shallow,flow.Sequence,3_0_1_0_4_1,NA,NA,completion,10340.508,768625.5999999,768615.252,768631.619,778972.127,778980.5,2023-03-09T14:00:43Z,778988.759,NULL,Theorie,nadharia,s,ushungi,mkutano,uwakilishi,NA,sdfdsf,NA,1,NA,NA,NA,NA,NA,NA,NA,NA,NA,NA,NA,NA,NA,NA,NA,NA,NA,NA,NA
2c9a3,task,flow.Sequence,3_0_1_0_4,NA,NA,completion,10340.508,768625.19999981,768615.252,768631.619,778972.127,778980.9000001,2023-03-09T14:00:43Z,778988.759,NULL,Theorie,nadharia,s,ushungi,mkutano,uwakilishi,NA,sdfdsf,NA,1,NA,NA,NA,NA,NA,NA,NA,NA,NA,NA,NA,NA,NA,NA,NA,NA,NA,NA,NA
2c9a3,deep,flow.Sequence,3_0_1_0_5_0,NA,NA,skipped,NA,778981.0999999,NA,NA,778972.127,778981.19999981,2023-03-09T14:00:43Z,778988.759,NULL,Atmosphäre,angahewa,s,kuteseka,usahihi,kutoamini,NA,sdfdsf,NA,1,NA,NA,NA,NA,NA,NA,NA,NA,NA,NA,NA,NA,NA,NA,NA,NA,NA,NA,NA
2c9a3,Shallow Question,html.Page,3_0_1_0_5_1_0,NA,NA,form submission,7547.8409999047,778981.4000001,778972.127,778988.759,786536.5999999,786537.19999981,2023-03-09T14:00:51Z,786543.974,NULL,Atmosphäre,angahewa,s,kuteseka,usahihi,kutoamini,angahewa,NA,NA,1,NA,NA,NA,NA,NA,NA,NA,NA,NA,NA,NA,NA,NA,NA,NA,NA,NA,NA,NA
2c9a3,"""Richtig""-Screen",canvas.Screen,3_0_1_0_5_1_1,NA,NA,timeout,5003.4689999999,786544.0999999,786527.739,786543.974,791530.912,791532.29999971,2023-03-09T14:00:56Z,791547.443,NULL,Atmosphäre,angahewa,s,kuteseka,usahihi,kutoamini,NA,sdfdsf,1,1,NA,NA,NA,NA,NA,NA,NA,NA,NA,NA,NA,NA,NA,NA,NA,NA,NA,NA,NA
2c9a3,"""Falsch""-Screen",canvas.Screen,3_0_1_0_5_1_2,NA,NA,skipped,NA,791539.19999981,NA,NA,791530.912,791539.5999999,2023-03-09T14:00:56Z,791547.443,NULL,Atmosphäre,angahewa,s,kuteseka,usahihi,kutoamini,NA,sdfdsf,NA,1,NA,NA,NA,NA,NA,NA,NA,NA,NA,NA,NA,NA,NA,NA,NA,NA,NA,NA,NA
2c9a3,shallow,flow.Sequence,3_0_1_0_5_1,NA,NA,completion,12542.153,778981.29999971,778972.127,778988.759,791530.912,791540,2023-03-09T14:00:56Z,791547.443,NULL,Atmosphäre,angahewa,s,kuteseka,usahihi,kutoamini,NA,sdfdsf,NA,1,NA,NA,NA,NA,NA,NA,NA,NA,NA,NA,NA,NA,NA,NA,NA,NA,NA,NA,NA
2c9a3,task,flow.Sequence,3_0_1_0_5,NA,NA,completion,12542.153,778980.9000001,778972.127,778988.759,791530.912,791540.29999971,2023-03-09T14:00:56Z,791547.443,NULL,Atmosphäre,angahewa,s,kuteseka,usahihi,kutoamini,NA,sdfdsf,NA,1,NA,NA,NA,NA,NA,NA,NA,NA,NA,NA,NA,NA,NA,NA,NA,NA,NA,NA,NA
2c9a3,Deep Question,html.Page,3_0_1_0_6_0_0,NA,NA,form submission,8250.4570000954,791540.5999999,791530.912,791547.443,799797.9000001,799798.4000001,2023-03-09T14:01:04Z,799803.099,NULL,Wechsel,ugeuzaji,d,NA,NA,NA,u,NA,NA,1,NA,NA,NA,NA,NA,NA,NA,NA,NA,NA,NA,NA,NA,NA,NA,NA,NA,NA,NA
2c9a3,"""Richtig""-Screen",canvas.Screen,3_0_1_0_6_0_1,NA,NA,skipped,NA,799805.5999999,NA,NA,799797.9000001,799806.0999999,2023-03-09T14:01:04Z,799803.099,NULL,Wechsel,ugeuzaji,d,NA,NA,NA,NA,sdfdsf,NA,1,NA,NA,NA,NA,NA,NA,NA,NA,NA,NA,NA,NA,NA,NA,NA,NA,NA,NA,NA
2c9a3,"""Falsch""-Screen",canvas.Screen,3_0_1_0_6_0_2,NA,NA,timeout,5003.436,799808.29999971,799786.766,799803.099,804790.027,804791.29999971,2023-03-09T14:01:09Z,804806.535,NULL,Wechsel,ugeuzaji,d,NA,NA,NA,NA,sdfdsf,0,1,NA,NA,NA,NA,NA,NA,NA,NA,NA,NA,NA,NA,NA,NA,NA,NA,NA,NA,NA
2c9a3,deep,flow.Sequence,3_0_1_0_6_0,NA,NA,completion,13242.584,791540.5,791530.912,791547.443,804790.027,804791.79999971,2023-03-09T14:01:09Z,804806.535,NULL,Wechsel,ugeuzaji,d,NA,NA,NA,NA,sdfdsf,NA,1,NA,NA,NA,NA,NA,NA,NA,NA,NA,NA,NA,NA,NA,NA,NA,NA,NA,NA,NA
2c9a3,shallow,flow.Sequence,3_0_1_0_6_1,NA,NA,skipped,NA,804792,NA,NA,804790.027,804792.29999971,2023-03-09T14:01:09Z,804806.535,NULL,Wechsel,ugeuzaji,d,NA,NA,NA,NA,sdfdsf,NA,1,NA,NA,NA,NA,NA,NA,NA,NA,NA,NA,NA,NA,NA,NA,NA,NA,NA,NA,NA
2c9a3,task,flow.Sequence,3_0_1_0_6,NA,NA,completion,13242.584,791540.4000001,791530.912,791547.443,804790.027,804792.5999999,2023-03-09T14:01:09Z,804806.535,NULL,Wechsel,ugeuzaji,d,NA,NA,NA,NA,sdfdsf,NA,1,NA,NA,NA,NA,NA,NA,NA,NA,NA,NA,NA,NA,NA,NA,NA,NA,NA,NA,NA
2c9a3,deep,flow.Sequence,3_0_1_0_7_0,NA,NA,skipped,NA,804792.79999971,NA,NA,804790.027,804792.9000001,2023-03-09T14:01:09Z,804806.535,NULL,Flexibilität,kubadilika,s,enjini,usikilivu,hesabu,NA,sdfdsf,NA,1,NA,NA,NA,NA,NA,NA,NA,NA,NA,NA,NA,NA,NA,NA,NA,NA,NA,NA,NA
2c9a3,Shallow Question,html.Page,3_0_1_0_7_1_0,NA,NA,form submission,8211.6649998092,804793.19999981,804790.027,804806.535,813018.19999981,813018.79999971,2023-03-09T14:01:17Z,813028.864,NULL,Flexibilität,kubadilika,s,enjini,usikilivu,hesabu,kubadilika,NA,NA,1,NA,NA,NA,NA,NA,NA,NA,NA,NA,NA,NA,NA,NA,NA,NA,NA,NA,NA,NA
2c9a3,"""Richtig""-Screen",canvas.Screen,3_0_1_0_7_1_1,NA,NA,timeout,5003.378,813025.69999981,813012.4,813028.864,818015.621,818016.5999999,2023-03-09T14:01:22Z,818032.242,NULL,Flexibilität,kubadilika,s,enjini,usikilivu,hesabu,NA,sdfdsf,1,1,NA,NA,NA,NA,NA,NA,NA,NA,NA,NA,NA,NA,NA,NA,NA,NA,NA,NA,NA
2c9a3,"""Falsch""-Screen",canvas.Screen,3_0_1_0_7_1_2,NA,NA,skipped,NA,818023,NA,NA,818015.621,818023.29999971,2023-03-09T14:01:22Z,818032.242,NULL,Flexibilität,kubadilika,s,enjini,usikilivu,hesabu,NA,sdfdsf,NA,1,NA,NA,NA,NA,NA,NA,NA,NA,NA,NA,NA,NA,NA,NA,NA,NA,NA,NA,NA
2c9a3,shallow,flow.Sequence,3_0_1_0_7_1,NA,NA,completion,13209.086,804793.0999999,804790.027,804806.535,818015.621,818023.69999981,2023-03-09T14:01:22Z,818032.242,NULL,Flexibilität,kubadilika,s,enjini,usikilivu,hesabu,NA,sdfdsf,NA,1,NA,NA,NA,NA,NA,NA,NA,NA,NA,NA,NA,NA,NA,NA,NA,NA,NA,NA,NA
2c9a3,task,flow.Sequence,3_0_1_0_7,NA,NA,completion,13209.086,804792.69999981,804790.027,804806.535,818015.621,818024.0999999,2023-03-09T14:01:22Z,818032.242,NULL,Flexibilität,kubadilika,s,enjini,usikilivu,hesabu,NA,sdfdsf,NA,1,NA,NA,NA,NA,NA,NA,NA,NA,NA,NA,NA,NA,NA,NA,NA,NA,NA,NA,NA
2c9a3,block,flow.Loop,3_0_1_0,NA,NA,completion,106306.439,711715.0999999,711643.409,711709.182,818015.621,818024.29999971,2023-03-09T14:01:22Z,818032.242,NULL,NA,NA,NA,NA,NA,NA,NA,sdfdsf,NA,1,NA,NA,NA,NA,NA,NA,NA,NA,NA,NA,NA,NA,NA,NA,NA,NA,NA,NA,NA
2c9a3,weiter,canvas.Screen,3_0_1_1,sdf,keypress(Space),response,1660.6580000954,818024.5,818015.621,818032.242,819692.9000001,819694.5999999,2023-03-09T14:01:24Z,819783.469,NULL,NA,NA,NA,NA,NA,NA,NA,sdfdsf,NA,1,NA,NA,NA,NA,NA,NA,NA,NA,NA,NA,NA,NA,NA,NA,NA,NA,NA,NA,NA
2c9a3,check continue,flow.Sequence,3_0_1,NA,NA,completion,107983.7180001,711715.0999999,711643.409,711709.182,819692.9000001,819695.0999999,2023-03-09T14:01:24Z,819783.469,NULL,NA,NA,NA,NA,NA,NA,NA,sdfdsf,NA,1,NA,NA,NA,NA,NA,NA,NA,NA,NA,NA,NA,NA,NA,NA,NA,NA,NA,NA,NA
2c9a3,deep,flow.Sequence,3_0_2_0_0_0,NA,NA,skipped,NA,819792.4000001,NA,NA,819692.9000001,819792.5999999,2023-03-09T14:01:24Z,819783.469,NULL,Atmosphäre,angahewa,s,kuteseka,usahihi,kutoamini,NA,sdf,NA,2,NA,NA,NA,NA,NA,NA,NA,NA,NA,NA,NA,NA,NA,NA,NA,NA,NA,NA,NA
2c9a3,Shallow Question,html.Page,3_0_2_0_0_1_0,NA,NA,form submission,6831.9310000953,819792.79999971,819683.779,819783.469,826615.4000001,826616,2023-03-09T14:01:31Z,826621.521,NULL,Atmosphäre,angahewa,s,kuteseka,usahihi,kutoamini,angahewa,NA,NA,2,NA,NA,NA,NA,NA,NA,NA,NA,NA,NA,NA,NA,NA,NA,NA,NA,NA,NA,NA
2c9a3,"""Richtig""-Screen",canvas.Screen,3_0_2_0_0_1_1,NA,NA,timeout,5020.0830000001,826622.5999999,826604.898,826621.521,831608.478,831609.69999981,2023-03-09T14:01:36Z,831641.604,NULL,Atmosphäre,angahewa,s,kuteseka,usahihi,kutoamini,NA,sdf,1,2,NA,NA,NA,NA,NA,NA,NA,NA,NA,NA,NA,NA,NA,NA,NA,NA,NA,NA,NA
2c9a3,"""Falsch""-Screen",canvas.Screen,3_0_2_0_0_1_2,NA,NA,skipped,NA,831616.4000001,NA,NA,831608.478,831616.69999981,2023-03-09T14:01:36Z,831641.604,NULL,Atmosphäre,angahewa,s,kuteseka,usahihi,kutoamini,NA,sdf,NA,2,NA,NA,NA,NA,NA,NA,NA,NA,NA,NA,NA,NA,NA,NA,NA,NA,NA,NA,NA
2c9a3,shallow,flow.Sequence,3_0_2_0_0_1,NA,NA,completion,11825.009,819792.79999971,819683.779,819783.469,831608.478,831617.19999981,2023-03-09T14:01:36Z,831641.604,NULL,Atmosphäre,angahewa,s,kuteseka,usahihi,kutoamini,NA,sdf,NA,2,NA,NA,NA,NA,NA,NA,NA,NA,NA,NA,NA,NA,NA,NA,NA,NA,NA,NA,NA
2c9a3,task,flow.Sequence,3_0_2_0_0,NA,NA,completion,11825.009,819792.29999971,819683.779,819783.469,831608.478,831617.5,2023-03-09T14:01:36Z,831641.604,NULL,Atmosphäre,angahewa,s,kuteseka,usahihi,kutoamini,NA,sdf,NA,2,NA,NA,NA,NA,NA,NA,NA,NA,NA,NA,NA,NA,NA,NA,NA,NA,NA,NA,NA
2c9a3,deep,flow.Sequence,3_0_2_0_1_0,NA,NA,skipped,NA,831617.5999999,NA,NA,831608.478,831617.79999971,2023-03-09T14:01:36Z,831641.604,NULL,Schock,mshtuko,s,biashara,kukataza,vichekesho,NA,sdf,NA,2,NA,NA,NA,NA,NA,NA,NA,NA,NA,NA,NA,NA,NA,NA,NA,NA,NA,NA,NA
2c9a3,Shallow Question,html.Page,3_0_2_0_1_1_0,NA,NA,form submission,4827.5959998092,831618.0999999,831608.478,831641.604,836469.19999981,836470,2023-03-09T14:01:41Z,836478.321,NULL,Schock,mshtuko,s,biashara,kukataza,vichekesho,mshtuko,NA,NA,2,NA,NA,NA,NA,NA,NA,NA,NA,NA,NA,NA,NA,NA,NA,NA,NA,NA,NA,NA
2c9a3,"""Richtig""-Screen",canvas.Screen,3_0_2_0_1_1_1,NA,NA,timeout,5003.417,836476.69999981,836461.863,836478.321,841465.213,841466.5999999,2023-03-09T14:01:46Z,841481.738,NULL,Schock,mshtuko,s,biashara,kukataza,vichekesho,NA,sdf,1,2,NA,NA,NA,NA,NA,NA,NA,NA,NA,NA,NA,NA,NA,NA,NA,NA,NA,NA,NA
2c9a3,"""Falsch""-Screen",canvas.Screen,3_0_2_0_1_1_2,NA,NA,skipped,NA,841473.5999999,NA,NA,841465.213,841473.9000001,2023-03-09T14:01:46Z,841481.738,NULL,Schock,mshtuko,s,biashara,kukataza,vichekesho,NA,sdf,NA,2,NA,NA,NA,NA,NA,NA,NA,NA,NA,NA,NA,NA,NA,NA,NA,NA,NA,NA,NA
2c9a3,shallow,flow.Sequence,3_0_2_0_1_1,NA,NA,completion,9823.6089999999,831617.9000001,831608.478,831641.604,841465.213,841474.29999971,2023-03-09T14:01:46Z,841481.738,NULL,Schock,mshtuko,s,biashara,kukataza,vichekesho,NA,sdf,NA,2,NA,NA,NA,NA,NA,NA,NA,NA,NA,NA,NA,NA,NA,NA,NA,NA,NA,NA,NA
2c9a3,task,flow.Sequence,3_0_2_0_1,NA,NA,completion,9823.6089999999,831617.5999999,831608.478,831641.604,841465.213,841474.5,2023-03-09T14:01:46Z,841481.738,NULL,Schock,mshtuko,s,biashara,kukataza,vichekesho,NA,sdf,NA,2,NA,NA,NA,NA,NA,NA,NA,NA,NA,NA,NA,NA,NA,NA,NA,NA,NA,NA,NA
2c9a3,Deep Question,html.Page,3_0_2_0_2_0_0,NA,NA,form submission,10604.461999809,841474.9000001,841465.213,841481.738,852086.19999981,852086.5999999,2023-03-09T14:01:56Z,852088.993,NULL,Hoffnung,matarajio,d,NA,NA,NA,matarajia,NA,NA,2,NA,NA,NA,NA,NA,NA,NA,NA,NA,NA,NA,NA,NA,NA,NA,NA,NA,NA,NA
2c9a3,"""Richtig""-Screen",canvas.Screen,3_0_2_0_2_0_1,NA,NA,skipped,NA,852093.5,NA,NA,852086.19999981,852093.79999971,2023-03-09T14:01:56Z,852088.993,NULL,Hoffnung,matarajio,d,NA,NA,NA,NA,sdf,NA,2,NA,NA,NA,NA,NA,NA,NA,NA,NA,NA,NA,NA,NA,NA,NA,NA,NA,NA,NA
2c9a3,"""Falsch""-Screen",canvas.Screen,3_0_2_0_2_0_2,NA,NA,timeout,5003.475,852096,852072.488,852088.993,857075.992,857077.19999981,2023-03-09T14:02:01Z,857092.468,NULL,Hoffnung,matarajio,d,NA,NA,NA,NA,sdf,0,2,NA,NA,NA,NA,NA,NA,NA,NA,NA,NA,NA,NA,NA,NA,NA,NA,NA,NA,NA
2c9a3,deep,flow.Sequence,3_0_2_0_2_0,NA,NA,completion,15594.254,841474.79999971,841465.213,841481.738,857075.992,857077.69999981,2023-03-09T14:02:01Z,857092.468,NULL,Hoffnung,matarajio,d,NA,NA,NA,NA,sdf,NA,2,NA,NA,NA,NA,NA,NA,NA,NA,NA,NA,NA,NA,NA,NA,NA,NA,NA,NA,NA
2c9a3,shallow,flow.Sequence,3_0_2_0_2_1,NA,NA,skipped,NA,857078,NA,NA,857075.992,857078.0999999,2023-03-09T14:02:01Z,857092.468,NULL,Hoffnung,matarajio,d,NA,NA,NA,NA,sdf,NA,2,NA,NA,NA,NA,NA,NA,NA,NA,NA,NA,NA,NA,NA,NA,NA,NA,NA,NA,NA
2c9a3,task,flow.Sequence,3_0_2_0_2,NA,NA,completion,15594.254,841474.69999981,841465.213,841481.738,857075.992,857078.4000001,2023-03-09T14:02:01Z,857092.468,NULL,Hoffnung,matarajio,d,NA,NA,NA,NA,sdf,NA,2,NA,NA,NA,NA,NA,NA,NA,NA,NA,NA,NA,NA,NA,NA,NA,NA,NA,NA,NA
2c9a3,deep,flow.Sequence,3_0_2_0_3_0,NA,NA,skipped,NA,857078.5999999,NA,NA,857075.992,857078.79999971,2023-03-09T14:02:01Z,857092.468,NULL,Flexibilität,kubadilika,s,enjini,usikilivu,hesabu,NA,sdf,NA,2,NA,NA,NA,NA,NA,NA,NA,NA,NA,NA,NA,NA,NA,NA,NA,NA,NA,NA,NA
2c9a3,Shallow Question,html.Page,3_0_2_0_3_1_0,NA,NA,form submission,6923.2319998093,857079,857075.992,857092.468,864015.69999981,864016.29999971,2023-03-09T14:02:08Z,864047.244,NULL,Flexibilität,kubadilika,s,enjini,usikilivu,hesabu,kubadilika,NA,NA,2,NA,NA,NA,NA,NA,NA,NA,NA,NA,NA,NA,NA,NA,NA,NA,NA,NA,NA,NA
2c9a3,"""Richtig""-Screen",canvas.Screen,3_0_2_0_3_1_1,NA,NA,timeout,5020.0920000001,864023.5999999,864030.646,864047.244,869034.221,869035.5999999,2023-03-09T14:02:13Z,869067.336,NULL,Flexibilität,kubadilika,s,enjini,usikilivu,hesabu,NA,sdf,1,2,NA,NA,NA,NA,NA,NA,NA,NA,NA,NA,NA,NA,NA,NA,NA,NA,NA,NA,NA
2c9a3,"""Falsch""-Screen",canvas.Screen,3_0_2_0_3_1_2,NA,NA,skipped,NA,869042.5,NA,NA,869034.221,869042.9000001,2023-03-09T14:02:13Z,869067.336,NULL,Flexibilität,kubadilika,s,enjini,usikilivu,hesabu,NA,sdf,NA,2,NA,NA,NA,NA,NA,NA,NA,NA,NA,NA,NA,NA,NA,NA,NA,NA,NA,NA,NA
2c9a3,shallow,flow.Sequence,3_0_2_0_3_1,NA,NA,completion,11941.753,857079,857075.992,857092.468,869034.221,869043.4000001,2023-03-09T14:02:13Z,869067.336,NULL,Flexibilität,kubadilika,s,enjini,usikilivu,hesabu,NA,sdf,NA,2,NA,NA,NA,NA,NA,NA,NA,NA,NA,NA,NA,NA,NA,NA,NA,NA,NA,NA,NA
2c9a3,task,flow.Sequence,3_0_2_0_3,NA,NA,completion,11941.753,857078.5999999,857075.992,857092.468,869034.221,869043.69999981,2023-03-09T14:02:13Z,869067.336,NULL,Flexibilität,kubadilika,s,enjini,usikilivu,hesabu,NA,sdf,NA,2,NA,NA,NA,NA,NA,NA,NA,NA,NA,NA,NA,NA,NA,NA,NA,NA,NA,NA,NA
2c9a3,deep,flow.Sequence,3_0_2_0_4_0,NA,NA,skipped,NA,869044,NA,NA,869034.221,869044.19999981,2023-03-09T14:02:13Z,869067.336,NULL,Theorie,nadharia,s,ushungi,mkutano,uwakilishi,NA,sdf,NA,2,NA,NA,NA,NA,NA,NA,NA,NA,NA,NA,NA,NA,NA,NA,NA,NA,NA,NA,NA
2c9a3,Shallow Question,html.Page,3_0_2_0_4_1_0,NA,NA,form submission,5271.9639997139,869044.4000001,869034.221,869067.336,874339.29999971,874339.9000001,2023-03-09T14:02:18Z,874354.288,NULL,Theorie,nadharia,s,ushungi,mkutano,uwakilishi,nadharia,NA,NA,2,NA,NA,NA,NA,NA,NA,NA,NA,NA,NA,NA,NA,NA,NA,NA,NA,NA,NA,NA
2c9a3,"""Richtig""-Screen",canvas.Screen,3_0_2_0_4_1_1,NA,NA,timeout,5003.4600000001,874345.79999971,874337.648,874354.288,879341.067,879342.29999971,2023-03-09T14:02:23Z,879357.748,NULL,Theorie,nadharia,s,ushungi,mkutano,uwakilishi,NA,sdf,1,2,NA,NA,NA,NA,NA,NA,NA,NA,NA,NA,NA,NA,NA,NA,NA,NA,NA,NA,NA
2c9a3,"""Falsch""-Screen",canvas.Screen,3_0_2_0_4_1_2,NA,NA,skipped,NA,879349.0999999,NA,NA,879341.067,879349.4000001,2023-03-09T14:02:23Z,879357.748,NULL,Theorie,nadharia,s,ushungi,mkutano,uwakilishi,NA,sdf,NA,2,NA,NA,NA,NA,NA,NA,NA,NA,NA,NA,NA,NA,NA,NA,NA,NA,NA,NA,NA
2c9a3,shallow,flow.Sequence,3_0_2_0_4_1,NA,NA,completion,10273.731,869044.29999971,869034.221,869067.336,879341.067,879349.9000001,2023-03-09T14:02:23Z,879357.748,NULL,Theorie,nadharia,s,ushungi,mkutano,uwakilishi,NA,sdf,NA,2,NA,NA,NA,NA,NA,NA,NA,NA,NA,NA,NA,NA,NA,NA,NA,NA,NA,NA,NA
2c9a3,task,flow.Sequence,3_0_2_0_4,NA,NA,completion,10273.731,869043.9000001,869034.221,869067.336,879341.067,879350.19999981,2023-03-09T14:02:23Z,879357.748,NULL,Theorie,nadharia,s,ushungi,mkutano,uwakilishi,NA,sdf,NA,2,NA,NA,NA,NA,NA,NA,NA,NA,NA,NA,NA,NA,NA,NA,NA,NA,NA,NA,NA
2c9a3,Deep Question,html.Page,3_0_2_0_5_0_0,NA,NA,form submission,11516.951999809,879350.4000001,879341.067,879357.748,890874.69999981,890875.29999971,2023-03-09T14:02:35Z,890882.391,NULL,Erneuerung,ukarabati,d,NA,NA,NA,u,NA,NA,2,NA,NA,NA,NA,NA,NA,NA,NA,NA,NA,NA,NA,NA,NA,NA,NA,NA,NA,NA
2c9a3,"""Richtig""-Screen",canvas.Screen,3_0_2_0_5_0_1,NA,NA,skipped,NA,890882.29999971,NA,NA,890874.69999981,890882.9000001,2023-03-09T14:02:35Z,890882.391,NULL,Erneuerung,ukarabati,d,NA,NA,NA,NA,sdf,NA,2,NA,NA,NA,NA,NA,NA,NA,NA,NA,NA,NA,NA,NA,NA,NA,NA,NA,NA,NA
2c9a3,"""Falsch""-Screen",canvas.Screen,3_0_2_0_5_0_2,NA,NA,timeout,5003.3960000001,890885.19999981,890866.018,890882.391,895869.091,895870.29999971,2023-03-09T14:02:40Z,895885.787,NULL,Erneuerung,ukarabati,d,NA,NA,NA,NA,sdf,0,2,NA,NA,NA,NA,NA,NA,NA,NA,NA,NA,NA,NA,NA,NA,NA,NA,NA,NA,NA
2c9a3,deep,flow.Sequence,3_0_2_0_5_0,NA,NA,completion,16511.343,879350.4000001,879341.067,879357.748,895869.091,895870.69999981,2023-03-09T14:02:40Z,895885.787,NULL,Erneuerung,ukarabati,d,NA,NA,NA,NA,sdf,NA,2,NA,NA,NA,NA,NA,NA,NA,NA,NA,NA,NA,NA,NA,NA,NA,NA,NA,NA,NA
2c9a3,shallow,flow.Sequence,3_0_2_0_5_1,NA,NA,skipped,NA,895871,NA,NA,895869.091,895871.0999999,2023-03-09T14:02:40Z,895885.787,NULL,Erneuerung,ukarabati,d,NA,NA,NA,NA,sdf,NA,2,NA,NA,NA,NA,NA,NA,NA,NA,NA,NA,NA,NA,NA,NA,NA,NA,NA,NA,NA
2c9a3,task,flow.Sequence,3_0_2_0_5,NA,NA,completion,16511.343,879350.4000001,879341.067,879357.748,895869.091,895871.4000001,2023-03-09T14:02:40Z,895885.787,NULL,Erneuerung,ukarabati,d,NA,NA,NA,NA,sdf,NA,2,NA,NA,NA,NA,NA,NA,NA,NA,NA,NA,NA,NA,NA,NA,NA,NA,NA,NA,NA
2c9a3,Deep Question,html.Page,3_0_2_0_6_0_0,NA,NA,form submission,11338.113000095,895871.69999981,895869.091,895885.787,907223.9000001,907224.5999999,2023-03-09T14:02:51Z,907226.916,NULL,Wechsel,ugeuzaji,d,NA,NA,NA,u,NA,NA,2,NA,NA,NA,NA,NA,NA,NA,NA,NA,NA,NA,NA,NA,NA,NA,NA,NA,NA,NA
2c9a3,"""Richtig""-Screen",canvas.Screen,3_0_2_0_6_0_1,NA,NA,skipped,NA,907233.0999999,NA,NA,907223.9000001,907233.69999981,2023-03-09T14:02:51Z,907226.916,NULL,Wechsel,ugeuzaji,d,NA,NA,NA,NA,sdf,NA,2,NA,NA,NA,NA,NA,NA,NA,NA,NA,NA,NA,NA,NA,NA,NA,NA,NA,NA,NA
2c9a3,"""Falsch""-Screen",canvas.Screen,3_0_2_0_6_0_2,NA,NA,timeout,5003.5140000001,907236.9000001,907210.357,907226.916,912213.927,912215.0999999,2023-03-09T14:02:56Z,912230.43,NULL,Wechsel,ugeuzaji,d,NA,NA,NA,NA,sdf,0,2,NA,NA,NA,NA,NA,NA,NA,NA,NA,NA,NA,NA,NA,NA,NA,NA,NA,NA,NA
2c9a3,deep,flow.Sequence,3_0_2_0_6_0,NA,NA,completion,16328.14,895871.69999981,895869.091,895885.787,912213.927,912215.5999999,2023-03-09T14:02:56Z,912230.43,NULL,Wechsel,ugeuzaji,d,NA,NA,NA,NA,sdf,NA,2,NA,NA,NA,NA,NA,NA,NA,NA,NA,NA,NA,NA,NA,NA,NA,NA,NA,NA,NA
2c9a3,shallow,flow.Sequence,3_0_2_0_6_1,NA,NA,skipped,NA,912215.9000001,NA,NA,912213.927,912216.0999999,2023-03-09T14:02:56Z,912230.43,NULL,Wechsel,ugeuzaji,d,NA,NA,NA,NA,sdf,NA,2,NA,NA,NA,NA,NA,NA,NA,NA,NA,NA,NA,NA,NA,NA,NA,NA,NA,NA,NA
2c9a3,task,flow.Sequence,3_0_2_0_6,NA,NA,completion,16328.14,895871.69999981,895869.091,895885.787,912213.927,912216.4000001,2023-03-09T14:02:56Z,912230.43,NULL,Wechsel,ugeuzaji,d,NA,NA,NA,NA,sdf,NA,2,NA,NA,NA,NA,NA,NA,NA,NA,NA,NA,NA,NA,NA,NA,NA,NA,NA,NA,NA
2c9a3,Deep Question,html.Page,3_0_2_0_7_0_0,NA,NA,form submission,7223.5699999999,912216.69999981,912213.927,912230.43,919454,919454.5999999,2023-03-09T14:03:03Z,919468.667,NULL,Verpackung,ufungaji,d,NA,NA,NA,m,NA,NA,2,NA,NA,NA,NA,NA,NA,NA,NA,NA,NA,NA,NA,NA,NA,NA,NA,NA,NA,NA
2c9a3,"""Richtig""-Screen",canvas.Screen,3_0_2_0_7_0_1,NA,NA,skipped,NA,919462.19999981,NA,NA,919454,919462.5,2023-03-09T14:03:04Z,919468.667,NULL,Verpackung,ufungaji,d,NA,NA,NA,NA,sdf,NA,2,NA,NA,NA,NA,NA,NA,NA,NA,NA,NA,NA,NA,NA,NA,NA,NA,NA,NA,NA
2c9a3,"""Falsch""-Screen",canvas.Screen,3_0_2_0_7_0_2,NA,NA,timeout,5003.412,919464.4000001,919452.151,919468.667,924455.666,924456.79999971,2023-03-09T14:03:08Z,924472.079,NULL,Verpackung,ufungaji,d,NA,NA,NA,NA,sdf,0,2,NA,NA,NA,NA,NA,NA,NA,NA,NA,NA,NA,NA,NA,NA,NA,NA,NA,NA,NA
2c9a3,deep,flow.Sequence,3_0_2_0_7_0,NA,NA,completion,12225.236,912216.5999999,912213.927,912230.43,924455.666,924457.29999971,2023-03-09T14:03:08Z,924472.079,NULL,Verpackung,ufungaji,d,NA,NA,NA,NA,sdf,NA,2,NA,NA,NA,NA,NA,NA,NA,NA,NA,NA,NA,NA,NA,NA,NA,NA,NA,NA,NA
2c9a3,shallow,flow.Sequence,3_0_2_0_7_1,NA,NA,skipped,NA,924457.5999999,NA,NA,924455.666,924457.69999981,2023-03-09T14:03:08Z,924472.079,NULL,Verpackung,ufungaji,d,NA,NA,NA,NA,sdf,NA,2,NA,NA,NA,NA,NA,NA,NA,NA,NA,NA,NA,NA,NA,NA,NA,NA,NA,NA,NA
2c9a3,task,flow.Sequence,3_0_2_0_7,NA,NA,completion,12225.236,912216.5,912213.927,912230.43,924455.666,924458.0999999,2023-03-09T14:03:08Z,924472.079,NULL,Verpackung,ufungaji,d,NA,NA,NA,NA,sdf,NA,2,NA,NA,NA,NA,NA,NA,NA,NA,NA,NA,NA,NA,NA,NA,NA,NA,NA,NA,NA
2c9a3,block,flow.Loop,3_0_2_0,NA,NA,completion,104672.197,819792.29999971,819683.779,819783.469,924455.666,924458.29999971,2023-03-09T14:03:08Z,924472.079,NULL,NA,NA,NA,NA,NA,NA,NA,sdf,NA,2,NA,NA,NA,NA,NA,NA,NA,NA,NA,NA,NA,NA,NA,NA,NA,NA,NA,NA,NA
2c9a3,weiter,canvas.Screen,3_0_2_1,sdf,keypress(Space),response,2453.0209999046,924458.4000001,924455.666,924472.079,926925.0999999,926930.79999971,2023-03-09T14:03:11Z,926973.761,NULL,NA,NA,NA,NA,NA,NA,NA,sdf,NA,2,NA,NA,NA,NA,NA,NA,NA,NA,NA,NA,NA,NA,NA,NA,NA,NA,NA,NA,NA
2c9a3,check continue,flow.Sequence,3_0_2,NA,NA,completion,107141.6309999,819792.19999981,819683.779,819783.469,926925.0999999,926931.0999999,2023-03-09T14:03:11Z,926973.761,NULL,NA,NA,NA,NA,NA,NA,NA,sdf,NA,2,NA,NA,NA,NA,NA,NA,NA,NA,NA,NA,NA,NA,NA,NA,NA,NA,NA,NA,NA
2c9a3,Deep Question,html.Page,3_0_3_0_0_0_0,NA,NA,form submission,17843.838999905,926982.29999971,926925.294,926973.761,944817.5999999,944818.29999971,2023-03-09T14:03:29Z,944819.499,NULL,Wechsel,ugeuzaji,d,NA,NA,NA,u,NA,NA,3,NA,NA,NA,NA,NA,NA,NA,NA,NA,NA,NA,NA,NA,NA,NA,NA,NA,NA,NA
2c9a3,"""Richtig""-Screen",canvas.Screen,3_0_3_0_0_0_1,NA,NA,skipped,NA,944825.79999971,NA,NA,944817.5999999,944826.19999981,2023-03-09T14:03:29Z,944819.499,NULL,Wechsel,ugeuzaji,d,NA,NA,NA,NA,qt,NA,3,NA,NA,NA,NA,NA,NA,NA,NA,NA,NA,NA,NA,NA,NA,NA,NA,NA,NA,NA
2c9a3,"""Falsch""-Screen",canvas.Screen,3_0_3_0_0_0_2,NA,NA,timeout,5003.319,944828.29999971,944802.883,944819.499,949806.516,949807.79999971,2023-03-09T14:03:34Z,949822.818,NULL,Wechsel,ugeuzaji,d,NA,NA,NA,NA,qt,0,3,NA,NA,NA,NA,NA,NA,NA,NA,NA,NA,NA,NA,NA,NA,NA,NA,NA,NA,NA
2c9a3,deep,flow.Sequence,3_0_3_0_0_0,NA,NA,completion,22832.755,926982.29999971,926925.294,926973.761,949806.516,949808.29999971,2023-03-09T14:03:34Z,949822.818,NULL,Wechsel,ugeuzaji,d,NA,NA,NA,NA,qt,NA,3,NA,NA,NA,NA,NA,NA,NA,NA,NA,NA,NA,NA,NA,NA,NA,NA,NA,NA,NA
2c9a3,shallow,flow.Sequence,3_0_3_0_0_1,NA,NA,skipped,NA,949808.5,NA,NA,949806.516,949808.69999981,2023-03-09T14:03:34Z,949822.818,NULL,Wechsel,ugeuzaji,d,NA,NA,NA,NA,qt,NA,3,NA,NA,NA,NA,NA,NA,NA,NA,NA,NA,NA,NA,NA,NA,NA,NA,NA,NA,NA
2c9a3,task,flow.Sequence,3_0_3_0_0,NA,NA,completion,22832.755,926982.29999971,926925.294,926973.761,949806.516,949809,2023-03-09T14:03:34Z,949822.818,NULL,Wechsel,ugeuzaji,d,NA,NA,NA,NA,qt,NA,3,NA,NA,NA,NA,NA,NA,NA,NA,NA,NA,NA,NA,NA,NA,NA,NA,NA,NA,NA
2c9a3,deep,flow.Sequence,3_0_3_0_1_0,NA,NA,skipped,NA,949809.0999999,NA,NA,949806.516,949809.29999971,2023-03-09T14:03:34Z,949822.818,NULL,Atmosphäre,angahewa,s,kuteseka,usahihi,kutoamini,NA,qt,NA,3,NA,NA,NA,NA,NA,NA,NA,NA,NA,NA,NA,NA,NA,NA,NA,NA,NA,NA,NA
2c9a3,Shallow Question,html.Page,3_0_3_0_1_1_0,NA,NA,form submission,5669.0820000954,949809.5,949806.516,949822.818,955491.9000001,955492.5999999,2023-03-09T14:03:40Z,955493.409,NULL,Atmosphäre,angahewa,s,kuteseka,usahihi,kutoamini,angahewa,NA,NA,3,NA,NA,NA,NA,NA,NA,NA,NA,NA,NA,NA,NA,NA,NA,NA,NA,NA,NA,NA
2c9a3,"""Richtig""-Screen",canvas.Screen,3_0_3_0_1_1_1,NA,NA,timeout,5003.417,955499.9000001,955477.06,955493.409,960480.254,960481.4000001,2023-03-09T14:03:45Z,960496.826,NULL,Atmosphäre,angahewa,s,kuteseka,usahihi,kutoamini,NA,qt,1,3,NA,NA,NA,NA,NA,NA,NA,NA,NA,NA,NA,NA,NA,NA,NA,NA,NA,NA,NA
2c9a3,"""Falsch""-Screen",canvas.Screen,3_0_3_0_1_1_2,NA,NA,skipped,NA,960488.4000001,NA,NA,960480.254,960488.69999981,2023-03-09T14:03:45Z,960496.826,NULL,Atmosphäre,angahewa,s,kuteseka,usahihi,kutoamini,NA,qt,NA,3,NA,NA,NA,NA,NA,NA,NA,NA,NA,NA,NA,NA,NA,NA,NA,NA,NA,NA,NA
2c9a3,shallow,flow.Sequence,3_0_3_0_1_1,NA,NA,completion,10657.436,949809.5,949806.516,949822.818,960480.254,960489.0999999,2023-03-09T14:03:45Z,960496.826,NULL,Atmosphäre,angahewa,s,kuteseka,usahihi,kutoamini,NA,qt,NA,3,NA,NA,NA,NA,NA,NA,NA,NA,NA,NA,NA,NA,NA,NA,NA,NA,NA,NA,NA
2c9a3,task,flow.Sequence,3_0_3_0_1,NA,NA,completion,10657.436,949809.0999999,949806.516,949822.818,960480.254,960489.4000001,2023-03-09T14:03:45Z,960496.826,NULL,Atmosphäre,angahewa,s,kuteseka,usahihi,kutoamini,NA,qt,NA,3,NA,NA,NA,NA,NA,NA,NA,NA,NA,NA,NA,NA,NA,NA,NA,NA,NA,NA,NA
2c9a3,Deep Question,html.Page,3_0_3_0_2_0_0,NA,NA,form submission,9284.674,960489.69999981,960480.254,960496.826,969781.5,969782.19999981,2023-03-09T14:03:54Z,969803.211,NULL,Hoffnung,matarajio,d,NA,NA,NA,matarajio,NA,NA,3,NA,NA,NA,NA,NA,NA,NA,NA,NA,NA,NA,NA,NA,NA,NA,NA,NA,NA,NA
2c9a3,"""Richtig""-Screen",canvas.Screen,3_0_3_0_2_0_1,NA,NA,timeout,5003.492,969789.4000001,969770.192,969803.211,974790.239,974791.69999981,2023-03-09T14:03:59Z,974806.703,NULL,Hoffnung,matarajio,d,NA,NA,NA,NA,qt,1,3,NA,NA,NA,NA,NA,NA,NA,NA,NA,NA,NA,NA,NA,NA,NA,NA,NA,NA,NA
2c9a3,"""Falsch""-Screen",canvas.Screen,3_0_3_0_2_0_2,NA,NA,skipped,NA,974798.5,NA,NA,974790.239,974798.79999971,2023-03-09T14:03:59Z,974806.703,NULL,Hoffnung,matarajio,d,NA,NA,NA,NA,qt,NA,3,NA,NA,NA,NA,NA,NA,NA,NA,NA,NA,NA,NA,NA,NA,NA,NA,NA,NA,NA
2c9a3,deep,flow.Sequence,3_0_3_0_2_0,NA,NA,completion,14293.413,960489.69999981,960480.254,960496.826,974790.239,974799.19999981,2023-03-09T14:03:59Z,974806.703,NULL,Hoffnung,matarajio,d,NA,NA,NA,NA,qt,NA,3,NA,NA,NA,NA,NA,NA,NA,NA,NA,NA,NA,NA,NA,NA,NA,NA,NA,NA,NA
2c9a3,shallow,flow.Sequence,3_0_3_0_2_1,NA,NA,skipped,NA,974799.29999971,NA,NA,974790.239,974799.5,2023-03-09T14:03:59Z,974806.703,NULL,Hoffnung,matarajio,d,NA,NA,NA,NA,qt,NA,3,NA,NA,NA,NA,NA,NA,NA,NA,NA,NA,NA,NA,NA,NA,NA,NA,NA,NA,NA
2c9a3,task,flow.Sequence,3_0_3_0_2,NA,NA,completion,14293.413,960489.5999999,960480.254,960496.826,974790.239,974799.9000001,2023-03-09T14:03:59Z,974806.703,NULL,Hoffnung,matarajio,d,NA,NA,NA,NA,qt,NA,3,NA,NA,NA,NA,NA,NA,NA,NA,NA,NA,NA,NA,NA,NA,NA,NA,NA,NA,NA
2c9a3,deep,flow.Sequence,3_0_3_0_3_0,NA,NA,skipped,NA,974800.0999999,NA,NA,974790.239,974800.29999971,2023-03-09T14:03:59Z,974806.703,NULL,Schock,mshtuko,s,biashara,kukataza,vichekesho,NA,qt,NA,3,NA,NA,NA,NA,NA,NA,NA,NA,NA,NA,NA,NA,NA,NA,NA,NA,NA,NA,NA
2c9a3,Shallow Question,html.Page,3_0_3_0_3_1_0,NA,NA,form submission,4837.8969999047,974800.4000001,974790.239,974806.703,979644.5999999,979644.69999981,2023-03-09T14:04:04Z,979659.91,NULL,Schock,mshtuko,s,biashara,kukataza,vichekesho,mshtuko,NA,NA,3,NA,NA,NA,NA,NA,NA,NA,NA,NA,NA,NA,NA,NA,NA,NA,NA,NA,NA,NA
2c9a3,"""Richtig""-Screen",canvas.Screen,3_0_3_0_3_1_1,NA,NA,timeout,5003.5819999999,979646.9000001,979643.283,979659.91,984647.021,984648.19999981,2023-03-09T14:04:09Z,984663.492,NULL,Schock,mshtuko,s,biashara,kukataza,vichekesho,NA,qt,1,3,NA,NA,NA,NA,NA,NA,NA,NA,NA,NA,NA,NA,NA,NA,NA,NA,NA,NA,NA
2c9a3,"""Falsch""-Screen",canvas.Screen,3_0_3_0_3_1_2,NA,NA,skipped,NA,984654.79999971,NA,NA,984647.021,984655.19999981,2023-03-09T14:04:09Z,984663.492,NULL,Schock,mshtuko,s,biashara,kukataza,vichekesho,NA,qt,NA,3,NA,NA,NA,NA,NA,NA,NA,NA,NA,NA,NA,NA,NA,NA,NA,NA,NA,NA,NA
2c9a3,shallow,flow.Sequence,3_0_3_0_3_1,NA,NA,completion,9840.318,974800.4000001,974790.239,974806.703,984647.021,984655.5999999,2023-03-09T14:04:09Z,984663.492,NULL,Schock,mshtuko,s,biashara,kukataza,vichekesho,NA,qt,NA,3,NA,NA,NA,NA,NA,NA,NA,NA,NA,NA,NA,NA,NA,NA,NA,NA,NA,NA,NA
2c9a3,task,flow.Sequence,3_0_3_0_3,NA,NA,completion,9840.318,974800,974790.239,974806.703,984647.021,984655.9000001,2023-03-09T14:04:09Z,984663.492,NULL,Schock,mshtuko,s,biashara,kukataza,vichekesho,NA,qt,NA,3,NA,NA,NA,NA,NA,NA,NA,NA,NA,NA,NA,NA,NA,NA,NA,NA,NA,NA,NA
2c9a3,Deep Question,html.Page,3_0_3_0_4_0_0,NA,NA,form submission,14533.307999714,984656.19999981,984647.021,984663.492,999196.79999971,999197.4000001,2023-03-09T14:04:23Z,999206.794,NULL,Erneuerung,ukarabati,d,NA,NA,NA,ukarabati,NA,NA,3,NA,NA,NA,NA,NA,NA,NA,NA,NA,NA,NA,NA,NA,NA,NA,NA,NA,NA,NA
2c9a3,"""Richtig""-Screen",canvas.Screen,3_0_3_0_4_0_1,NA,NA,timeout,5003.4130000001,999204.5,999190.263,999206.794,1004193.707,1004195.0999999,2023-03-09T14:04:28Z,1004210.207,NULL,Erneuerung,ukarabati,d,NA,NA,NA,NA,qt,1,3,NA,NA,NA,NA,NA,NA,NA,NA,NA,NA,NA,NA,NA,NA,NA,NA,NA,NA,NA
2c9a3,"""Falsch""-Screen",canvas.Screen,3_0_3_0_4_0_2,NA,NA,skipped,NA,1004201.5999999,NA,NA,1004193.707,1004202,2023-03-09T14:04:28Z,1004210.207,NULL,Erneuerung,ukarabati,d,NA,NA,NA,NA,qt,NA,3,NA,NA,NA,NA,NA,NA,NA,NA,NA,NA,NA,NA,NA,NA,NA,NA,NA,NA,NA
2c9a3,deep,flow.Sequence,3_0_3_0_4_0,NA,NA,completion,19530.215,984656.19999981,984647.021,984663.492,1004193.707,1004202.4000001,2023-03-09T14:04:28Z,1004210.207,NULL,Erneuerung,ukarabati,d,NA,NA,NA,NA,qt,NA,3,NA,NA,NA,NA,NA,NA,NA,NA,NA,NA,NA,NA,NA,NA,NA,NA,NA,NA,NA
2c9a3,shallow,flow.Sequence,3_0_3_0_4_1,NA,NA,skipped,NA,1004202.5,NA,NA,1004193.707,1004202.6999998,2023-03-09T14:04:28Z,1004210.207,NULL,Erneuerung,ukarabati,d,NA,NA,NA,NA,qt,NA,3,NA,NA,NA,NA,NA,NA,NA,NA,NA,NA,NA,NA,NA,NA,NA,NA,NA,NA,NA
2c9a3,task,flow.Sequence,3_0_3_0_4,NA,NA,completion,19530.215,984656,984647.021,984663.492,1004193.707,1004203.1999998,2023-03-09T14:04:28Z,1004210.207,NULL,Erneuerung,ukarabati,d,NA,NA,NA,NA,qt,NA,3,NA,NA,NA,NA,NA,NA,NA,NA,NA,NA,NA,NA,NA,NA,NA,NA,NA,NA,NA
2c9a3,deep,flow.Sequence,3_0_3_0_5_0,NA,NA,skipped,NA,1004203.5,NA,NA,1004193.707,1004203.5999999,2023-03-09T14:04:28Z,1004210.207,NULL,Flexibilität,kubadilika,s,enjini,usikilivu,hesabu,NA,qt,NA,3,NA,NA,NA,NA,NA,NA,NA,NA,NA,NA,NA,NA,NA,NA,NA,NA,NA,NA,NA
2c9a3,Shallow Question,html.Page,3_0_3_0_5_1_0,NA,NA,form submission,7057.3929999046,1004203.7999997,1004193.707,1004210.207,1011267.5999999,1011268.1999998,2023-03-09T14:04:35Z,1011281.744,NULL,Flexibilität,kubadilika,s,enjini,usikilivu,hesabu,kubadilika,NA,NA,3,NA,NA,NA,NA,NA,NA,NA,NA,NA,NA,NA,NA,NA,NA,NA,NA,NA,NA,NA
2c9a3,"""Richtig""-Screen",canvas.Screen,3_0_3_0_5_1_1,NA,NA,timeout,5003.417,1011275.4000001,1011265.132,1011281.744,1016268.697,1016270,2023-03-09T14:04:40Z,1016285.161,NULL,Flexibilität,kubadilika,s,enjini,usikilivu,hesabu,NA,qt,1,3,NA,NA,NA,NA,NA,NA,NA,NA,NA,NA,NA,NA,NA,NA,NA,NA,NA,NA,NA
2c9a3,"""Falsch""-Screen",canvas.Screen,3_0_3_0_5_1_2,NA,NA,skipped,NA,1016276.6999998,NA,NA,1016268.697,1016277,2023-03-09T14:04:40Z,1016285.161,NULL,Flexibilität,kubadilika,s,enjini,usikilivu,hesabu,NA,qt,NA,3,NA,NA,NA,NA,NA,NA,NA,NA,NA,NA,NA,NA,NA,NA,NA,NA,NA,NA,NA
2c9a3,shallow,flow.Sequence,3_0_3_0_5_1,NA,NA,completion,12058.49,1004203.6999998,1004193.707,1004210.207,1016268.697,1016277.4000001,2023-03-09T14:04:40Z,1016285.161,NULL,Flexibilität,kubadilika,s,enjini,usikilivu,hesabu,NA,qt,NA,3,NA,NA,NA,NA,NA,NA,NA,NA,NA,NA,NA,NA,NA,NA,NA,NA,NA,NA,NA
2c9a3,task,flow.Sequence,3_0_3_0_5,NA,NA,completion,12058.49,1004203.2999997,1004193.707,1004210.207,1016268.697,1016277.6999998,2023-03-09T14:04:40Z,1016285.161,NULL,Flexibilität,kubadilika,s,enjini,usikilivu,hesabu,NA,qt,NA,3,NA,NA,NA,NA,NA,NA,NA,NA,NA,NA,NA,NA,NA,NA,NA,NA,NA,NA,NA
2c9a3,Deep Question,html.Page,3_0_3_0_6_0_0,NA,NA,form submission,47499.239000095,1016278,1016268.697,1016285.161,1063784.4000001,1063785.2999997,2023-03-09T14:05:28Z,1063784.462,NULL,Verpackung,ufungaji,d,NA,NA,NA,unfungjio,NA,NA,3,NA,NA,NA,NA,NA,NA,NA,NA,NA,NA,NA,NA,NA,NA,NA,NA,NA,NA,NA
2c9a3,"""Richtig""-Screen",canvas.Screen,3_0_3_0_6_0_1,NA,NA,skipped,NA,1063792.9000001,NA,NA,1063784.4000001,1063793.1999998,2023-03-09T14:05:28Z,1063784.462,NULL,Verpackung,ufungaji,d,NA,NA,NA,NA,qt,NA,3,NA,NA,NA,NA,NA,NA,NA,NA,NA,NA,NA,NA,NA,NA,NA,NA,NA,NA,NA
2c9a3,"""Falsch""-Screen",canvas.Screen,3_0_3_0_6_0_2,NA,NA,timeout,5003.4889999998,1063795,1063767.922,1063784.462,1068771.495,1068772.9000001,2023-03-09T14:05:33Z,1068787.951,NULL,Verpackung,ufungaji,d,NA,NA,NA,NA,qt,0,3,NA,NA,NA,NA,NA,NA,NA,NA,NA,NA,NA,NA,NA,NA,NA,NA,NA,NA,NA
2c9a3,deep,flow.Sequence,3_0_3_0_6_0,NA,NA,completion,52486.334,1016278,1016268.697,1016285.161,1068771.495,1068773.5,2023-03-09T14:05:33Z,1068787.951,NULL,Verpackung,ufungaji,d,NA,NA,NA,NA,qt,NA,3,NA,NA,NA,NA,NA,NA,NA,NA,NA,NA,NA,NA,NA,NA,NA,NA,NA,NA,NA
2c9a3,shallow,flow.Sequence,3_0_3_0_6_1,NA,NA,skipped,NA,1068773.6999998,NA,NA,1068771.495,1068774,2023-03-09T14:05:33Z,1068787.951,NULL,Verpackung,ufungaji,d,NA,NA,NA,NA,qt,NA,3,NA,NA,NA,NA,NA,NA,NA,NA,NA,NA,NA,NA,NA,NA,NA,NA,NA,NA,NA
2c9a3,task,flow.Sequence,3_0_3_0_6,NA,NA,completion,52486.334,1016277.9000001,1016268.697,1016285.161,1068771.495,1068774.2999997,2023-03-09T14:05:33Z,1068787.951,NULL,Verpackung,ufungaji,d,NA,NA,NA,NA,qt,NA,3,NA,NA,NA,NA,NA,NA,NA,NA,NA,NA,NA,NA,NA,NA,NA,NA,NA,NA,NA
2c9a3,deep,flow.Sequence,3_0_3_0_7_0,NA,NA,skipped,NA,1068774.5,NA,NA,1068771.495,1068774.6999998,2023-03-09T14:05:33Z,1068787.951,NULL,Theorie,nadharia,s,ushungi,mkutano,uwakilishi,NA,qt,NA,3,NA,NA,NA,NA,NA,NA,NA,NA,NA,NA,NA,NA,NA,NA,NA,NA,NA,NA,NA
2c9a3,Shallow Question,html.Page,3_0_3_0_7_1_0,NA,NA,form submission,6152.4490000955,1068774.7999997,1068771.495,1068787.951,1074940.4000001,1074941,2023-03-09T14:05:39Z,1074942.158,NULL,Theorie,nadharia,s,ushungi,mkutano,uwakilishi,uwakilishi,NA,NA,3,NA,NA,NA,NA,NA,NA,NA,NA,NA,NA,NA,NA,NA,NA,NA,NA,NA,NA,NA
2c9a3,"""Richtig""-Screen",canvas.Screen,3_0_3_0_7_1_1,NA,NA,skipped,NA,1074948.0999999,NA,NA,1074940.4000001,1074948.5,2023-03-09T14:05:39Z,1074942.158,NULL,Theorie,nadharia,s,ushungi,mkutano,uwakilishi,NA,qt,NA,3,NA,NA,NA,NA,NA,NA,NA,NA,NA,NA,NA,NA,NA,NA,NA,NA,NA,NA,NA
2c9a3,"""Falsch""-Screen",canvas.Screen,3_0_3_0_7_1_2,NA,NA,timeout,5020.0999999999,1074950.5,1074925.697,1074942.158,1079929.048,1079939.6999998,2023-03-09T14:05:44Z,1079962.258,NULL,Theorie,nadharia,s,ushungi,mkutano,uwakilishi,NA,qt,0,3,NA,NA,NA,NA,NA,NA,NA,NA,NA,NA,NA,NA,NA,NA,NA,NA,NA,NA,NA
2c9a3,shallow,flow.Sequence,3_0_3_0_7_1,NA,NA,completion,11141.097,1068774.7999997,1068771.495,1068787.951,1079929.048,1079940.1999998,2023-03-09T14:05:44Z,1079962.258,NULL,Theorie,nadharia,s,ushungi,mkutano,uwakilishi,NA,qt,NA,3,NA,NA,NA,NA,NA,NA,NA,NA,NA,NA,NA,NA,NA,NA,NA,NA,NA,NA,NA
2c9a3,task,flow.Sequence,3_0_3_0_7,NA,NA,completion,11141.097,1068774.4000001,1068771.495,1068787.951,1079929.048,1079940.5,2023-03-09T14:05:44Z,1079962.258,NULL,Theorie,nadharia,s,ushungi,mkutano,uwakilishi,NA,qt,NA,3,NA,NA,NA,NA,NA,NA,NA,NA,NA,NA,NA,NA,NA,NA,NA,NA,NA,NA,NA
2c9a3,block,flow.Loop,3_0_3_0,NA,NA,completion,152955.287,926982.29999971,926925.294,926973.761,1079929.048,1079940.7999997,2023-03-09T14:05:44Z,1079962.258,NULL,NA,NA,NA,NA,NA,NA,NA,qt,NA,3,NA,NA,NA,NA,NA,NA,NA,NA,NA,NA,NA,NA,NA,NA,NA,NA,NA,NA,NA
2c9a3,weiter,canvas.Screen,3_0_3_1,sdf,keypress(Space),response,1734.541999714,1079941,1079929.048,1079962.258,1081696.7999997,1081703,2023-03-09T14:05:46Z,1082797.469,NULL,NA,NA,NA,NA,NA,NA,NA,qt,NA,3,NA,NA,NA,NA,NA,NA,NA,NA,NA,NA,NA,NA,NA,NA,NA,NA,NA,NA,NA
2c9a3,check continue,flow.Sequence,3_0_3,NA,NA,completion,154723.03899971,926982.19999981,926925.294,926973.761,1081696.7999997,1081703.5,2023-03-09T14:05:46Z,1082797.469,NULL,NA,NA,NA,NA,NA,NA,NA,qt,NA,3,NA,NA,NA,NA,NA,NA,NA,NA,NA,NA,NA,NA,NA,NA,NA,NA,NA,NA,NA
2c9a3,check continue,flow.Sequence,3_0_4,NA,NA,skipped,NA,1081793.4000001,NA,NA,1081696.7999997,1081793.7999997,2023-03-09T14:05:46Z,1082797.469,NULL,NA,NA,NA,NA,NA,NA,NA,sd,NA,4,NA,NA,NA,NA,NA,NA,NA,NA,NA,NA,NA,NA,NA,NA,NA,NA,NA,NA,NA
2c9a3,check continue,flow.Sequence,3_0_5,NA,NA,skipped,NA,1081866.5999999,NA,NA,1081696.7999997,1081868,2023-03-09T14:05:46Z,1082797.469,NULL,NA,NA,NA,NA,NA,NA,NA,sdf,NA,5,NA,NA,NA,NA,NA,NA,NA,NA,NA,NA,NA,NA,NA,NA,NA,NA,NA,NA,NA
2c9a3,check continue,flow.Sequence,3_0_6,NA,NA,skipped,NA,1081920.0999999,NA,NA,1081696.7999997,1081920.1999998,2023-03-09T14:05:46Z,1082797.469,NULL,NA,NA,NA,NA,NA,NA,NA,dfs,NA,6,NA,NA,NA,NA,NA,NA,NA,NA,NA,NA,NA,NA,NA,NA,NA,NA,NA,NA,NA
2c9a3,check continue,flow.Sequence,3_0_7,NA,NA,skipped,NA,1081958.5999999,NA,NA,1081696.7999997,1081958.6999998,2023-03-09T14:05:46Z,1082797.469,NULL,NA,NA,NA,NA,NA,NA,NA,df,NA,7,NA,NA,NA,NA,NA,NA,NA,NA,NA,NA,NA,NA,NA,NA,NA,NA,NA,NA,NA
2c9a3,check continue,flow.Sequence,3_0_8,NA,NA,skipped,NA,1082022.9000001,NA,NA,1081696.7999997,1082023.0999999,2023-03-09T14:05:46Z,1082797.469,NULL,NA,NA,NA,NA,NA,NA,NA,dfs,NA,8,NA,NA,NA,NA,NA,NA,NA,NA,NA,NA,NA,NA,NA,NA,NA,NA,NA,NA,NA
2c9a3,check continue,flow.Sequence,3_0_9,NA,NA,skipped,NA,1082089.5,NA,NA,1081696.7999997,1082089.7999997,2023-03-09T14:05:46Z,1082797.469,NULL,NA,NA,NA,NA,NA,NA,NA,dsf,NA,9,NA,NA,NA,NA,NA,NA,NA,NA,NA,NA,NA,NA,NA,NA,NA,NA,NA,NA,NA
2c9a3,check continue,flow.Sequence,3_0_10,NA,NA,skipped,NA,1082155.0999999,NA,NA,1081696.7999997,1082155.4000001,2023-03-09T14:05:46Z,1082797.469,NULL,NA,NA,NA,NA,NA,NA,NA,df,NA,10,NA,NA,NA,NA,NA,NA,NA,NA,NA,NA,NA,NA,NA,NA,NA,NA,NA,NA,NA
2c9a3,check continue,flow.Sequence,3_0_11,NA,NA,skipped,NA,1082200.0999999,NA,NA,1081696.7999997,1082200.2999997,2023-03-09T14:05:46Z,1082797.469,NULL,NA,NA,NA,NA,NA,NA,NA,dfs,NA,11,NA,NA,NA,NA,NA,NA,NA,NA,NA,NA,NA,NA,NA,NA,NA,NA,NA,NA,NA
2c9a3,check continue,flow.Sequence,3_0_12,NA,NA,skipped,NA,1082245.0999999,NA,NA,1081696.7999997,1082245.2999997,2023-03-09T14:05:46Z,1082797.469,NULL,NA,NA,NA,NA,NA,NA,NA,dsf,NA,12,NA,NA,NA,NA,NA,NA,NA,NA,NA,NA,NA,NA,NA,NA,NA,NA,NA,NA,NA
2c9a3,check continue,flow.Sequence,3_0_13,NA,NA,skipped,NA,1082277.2999997,NA,NA,1081696.7999997,1082277.2999997,2023-03-09T14:05:46Z,1082797.469,NULL,NA,NA,NA,NA,NA,NA,NA,dsf,NA,13,NA,NA,NA,NA,NA,NA,NA,NA,NA,NA,NA,NA,NA,NA,NA,NA,NA,NA,NA
2c9a3,check continue,flow.Sequence,3_0_14,NA,NA,skipped,NA,1082299.7999997,NA,NA,1081696.7999997,1082299.9000001,2023-03-09T14:05:46Z,1082797.469,NULL,NA,NA,NA,NA,NA,NA,NA,NA,NA,14,NA,NA,NA,NA,NA,NA,NA,NA,NA,NA,NA,NA,NA,NA,NA,NA,NA,NA,NA
2c9a3,check continue,flow.Sequence,3_0_15,NA,NA,skipped,NA,1082322.4000001,NA,NA,1081696.7999997,1082322.5,2023-03-09T14:05:46Z,1082797.469,NULL,NA,NA,NA,NA,NA,NA,NA,NA,NA,15,NA,NA,NA,NA,NA,NA,NA,NA,NA,NA,NA,NA,NA,NA,NA,NA,NA,NA,NA
2c9a3,check continue,flow.Sequence,3_0_16,NA,NA,skipped,NA,1082344.0999999,NA,NA,1081696.7999997,1082344.0999999,2023-03-09T14:05:46Z,1082797.469,NULL,NA,NA,NA,NA,NA,NA,NA,NA,NA,16,NA,NA,NA,NA,NA,NA,NA,NA,NA,NA,NA,NA,NA,NA,NA,NA,NA,NA,NA
2c9a3,check continue,flow.Sequence,3_0_17,NA,NA,skipped,NA,1082365.2999997,NA,NA,1081696.7999997,1082365.4000001,2023-03-09T14:05:46Z,1082797.469,NULL,NA,NA,NA,NA,NA,NA,NA,NA,NA,17,NA,NA,NA,NA,NA,NA,NA,NA,NA,NA,NA,NA,NA,NA,NA,NA,NA,NA,NA
2c9a3,check continue,flow.Sequence,3_0_18,NA,NA,skipped,NA,1082386.5,NA,NA,1081696.7999997,1082386.5999999,2023-03-09T14:05:46Z,1082797.469,NULL,NA,NA,NA,NA,NA,NA,NA,NA,NA,18,NA,NA,NA,NA,NA,NA,NA,NA,NA,NA,NA,NA,NA,NA,NA,NA,NA,NA,NA
2c9a3,check continue,flow.Sequence,3_0_19,NA,NA,skipped,NA,1082415.4000001,NA,NA,1081696.7999997,1082415.5999999,2023-03-09T14:05:46Z,1082797.469,NULL,NA,NA,NA,NA,NA,NA,NA,NA,NA,19,NA,NA,NA,NA,NA,NA,NA,NA,NA,NA,NA,NA,NA,NA,NA,NA,NA,NA,NA
2c9a3,check continue,flow.Sequence,3_0_20,NA,NA,skipped,NA,1082450.1999998,NA,NA,1081696.7999997,1082450.4000001,2023-03-09T14:05:46Z,1082797.469,NULL,NA,NA,NA,NA,NA,NA,NA,NA,NA,20,NA,NA,NA,NA,NA,NA,NA,NA,NA,NA,NA,NA,NA,NA,NA,NA,NA,NA,NA
2c9a3,check continue,flow.Sequence,3_0_21,NA,NA,skipped,NA,1082488.2999997,NA,NA,1081696.7999997,1082488.5999999,2023-03-09T14:05:47Z,1082797.469,NULL,NA,NA,NA,NA,NA,NA,NA,NA,NA,21,NA,NA,NA,NA,NA,NA,NA,NA,NA,NA,NA,NA,NA,NA,NA,NA,NA,NA,NA
2c9a3,check continue,flow.Sequence,3_0_22,NA,NA,skipped,NA,1082523.9000001,NA,NA,1081696.7999997,1082524.0999999,2023-03-09T14:05:47Z,1082797.469,NULL,NA,NA,NA,NA,NA,NA,NA,NA,NA,22,NA,NA,NA,NA,NA,NA,NA,NA,NA,NA,NA,NA,NA,NA,NA,NA,NA,NA,NA
2c9a3,check continue,flow.Sequence,3_0_23,NA,NA,skipped,NA,1082562.5999999,NA,NA,1081696.7999997,1082562.6999998,2023-03-09T14:05:47Z,1082797.469,NULL,NA,NA,NA,NA,NA,NA,NA,NA,NA,23,NA,NA,NA,NA,NA,NA,NA,NA,NA,NA,NA,NA,NA,NA,NA,NA,NA,NA,NA
2c9a3,check continue,flow.Sequence,3_0_24,NA,NA,skipped,NA,1082593.5,NA,NA,1081696.7999997,1082593.5999999,2023-03-09T14:05:47Z,1082797.469,NULL,NA,NA,NA,NA,NA,NA,NA,NA,NA,24,NA,NA,NA,NA,NA,NA,NA,NA,NA,NA,NA,NA,NA,NA,NA,NA,NA,NA,NA
2c9a3,check continue,flow.Sequence,3_0_25,NA,NA,skipped,NA,1082626.0999999,NA,NA,1081696.7999997,1082626.1999998,2023-03-09T14:05:47Z,1082797.469,NULL,NA,NA,NA,NA,NA,NA,NA,NA,NA,25,NA,NA,NA,NA,NA,NA,NA,NA,NA,NA,NA,NA,NA,NA,NA,NA,NA,NA,NA
2c9a3,check continue,flow.Sequence,3_0_26,NA,NA,skipped,NA,1082663.7999997,NA,NA,1081696.7999997,1082664.0999999,2023-03-09T14:05:47Z,1082797.469,NULL,NA,NA,NA,NA,NA,NA,NA,NA,NA,26,NA,NA,NA,NA,NA,NA,NA,NA,NA,NA,NA,NA,NA,NA,NA,NA,NA,NA,NA
2c9a3,check continue,flow.Sequence,3_0_27,NA,NA,skipped,NA,1082737.1999998,NA,NA,1081696.7999997,1082737.5,2023-03-09T14:05:47Z,1082797.469,NULL,NA,NA,NA,NA,NA,NA,NA,NA,NA,27,NA,NA,NA,NA,NA,NA,NA,NA,NA,NA,NA,NA,NA,NA,NA,NA,NA,NA,NA
2c9a3,check continue,flow.Sequence,3_0_28,NA,NA,skipped,NA,1082773.1999998,NA,NA,1081696.7999997,1082773.4000001,2023-03-09T14:05:47Z,1082797.469,NULL,NA,NA,NA,NA,NA,NA,NA,NA,NA,28,NA,NA,NA,NA,NA,NA,NA,NA,NA,NA,NA,NA,NA,NA,NA,NA,NA,NA,NA
2c9a3,check continue,flow.Sequence,3_0_29,NA,NA,skipped,NA,1082795.9000001,NA,NA,1081696.7999997,1082796,2023-03-09T14:05:47Z,1082797.469,NULL,NA,NA,NA,NA,NA,NA,NA,NA,NA,29,NA,NA,NA,NA,NA,NA,NA,NA,NA,NA,NA,NA,NA,NA,NA,NA,NA,NA,NA
2c9a3,until continue,flow.Loop,3_0,NA,NA,completion,464085.60099971,617514.5,617290.255,617611.199,1081696.7999997,1082796.0999999,2023-03-09T14:05:47Z,1082797.469,NULL,NA,NA,NA,NA,NA,NA,NA,NA,NA,NA,NA,NA,NA,NA,NA,NA,NA,NA,NA,NA,NA,NA,NA,NA,NA,NA,NA,NA,NA
2c9a3,block 1,flow.Sequence,3,NA,NA,completion,464085.60099971,617514.4000001,617290.255,617611.199,1081696.7999997,1082796.1999998,2023-03-09T14:05:47Z,1082797.469,NULL,NA,NA,NA,NA,NA,NA,NA,NA,NA,NA,NA,NA,NA,NA,NA,NA,NA,NA,NA,NA,NA,NA,NA,NA,NA,NA,NA,NA,NA
2c9a3,1.Part Over,canvas.Screen,4,NA,keypress(Space),response,4440.8309997139,1082796.1999998,1081696.22,1082797.469,1087238.2999997,1087239.4000001,2023-03-09T14:05:51Z,1087417.385,NULL,NA,NA,NA,NA,NA,NA,NA,NA,NA,NA,NA,NA,NA,NA,NA,NA,NA,NA,NA,NA,NA,NA,NA,NA,NA,NA,NA,NA,NA
2c9a3,deep,flow.Sequence,5_0_0_0_0_0,NA,NA,skipped,NA,1087400.2999997,NA,NA,1087238.2999997,1087400.4000001,2023-03-09T14:05:51Z,1087417.385,NULL,Betrüger,mdanganyifu,s,mwanamuziki,wastani,mahakama,NA,sdf,NA,0,NA,NA,NA,NA,NA,NA,NA,NA,NA,NA,NA,NA,NA,NA,NA,NA,NA,NA,NA
2c9a3,Shallow Question,html.Page,5_0_0_0_0_1_0,NA,NA,form submission,9070.4149997139,1087400.5999999,1087386.73,1087417.385,1096487.7999997,1096488.2999997,2023-03-09T14:06:01Z,1096490.367,NULL,Betrüger,mdanganyifu,s,mwanamuziki,wastani,mahakama,wastani,NA,NA,0,NA,NA,NA,NA,NA,NA,NA,NA,NA,NA,NA,NA,NA,NA,NA,NA,NA,NA,NA
2c9a3,"""Richtig""-Screen",canvas.Screen,5_0_0_0_0_1_1,NA,NA,skipped,NA,1096495,NA,NA,1096487.7999997,1096495.2999997,2023-03-09T14:06:01Z,1096490.367,NULL,Betrüger,mdanganyifu,s,mwanamuziki,wastani,mahakama,NA,sdf,NA,0,NA,NA,NA,NA,NA,NA,NA,NA,NA,NA,NA,NA,NA,NA,NA,NA,NA,NA,NA
2c9a3,"""Falsch""-Screen",canvas.Screen,5_0_0_0_0_1_2,NA,NA,timeout,5003.53,1096497.4000001,1096473.988,1096490.367,1101477.101,1101478.4000001,2023-03-09T14:06:06Z,1101493.897,NULL,Betrüger,mdanganyifu,s,mwanamuziki,wastani,mahakama,NA,sdf,0,0,NA,NA,NA,NA,NA,NA,NA,NA,NA,NA,NA,NA,NA,NA,NA,NA,NA,NA,NA
2c9a3,shallow,flow.Sequence,5_0_0_0_0_1,NA,NA,completion,14059.716,1087400.5,1087386.73,1087417.385,1101477.101,1101479.0999999,2023-03-09T14:06:06Z,1101493.897,NULL,Betrüger,mdanganyifu,s,mwanamuziki,wastani,mahakama,NA,sdf,NA,0,NA,NA,NA,NA,NA,NA,NA,NA,NA,NA,NA,NA,NA,NA,NA,NA,NA,NA,NA
2c9a3,task,flow.Sequence,5_0_0_0_0,NA,NA,completion,14059.716,1087400.2999997,1087386.73,1087417.385,1101477.101,1101479.2999997,2023-03-09T14:06:06Z,1101493.897,NULL,Betrüger,mdanganyifu,s,mwanamuziki,wastani,mahakama,NA,sdf,NA,0,NA,NA,NA,NA,NA,NA,NA,NA,NA,NA,NA,NA,NA,NA,NA,NA,NA,NA,NA
2c9a3,Deep Question,html.Page,5_0_0_0_1_0_0,NA,NA,form submission,5115.1029999999,1101479.6999998,1101477.101,1101493.897,1106609,1106609.5,2023-03-09T14:06:11Z,1106613.905,NULL,Respekt,heshima,d,NA,NA,NA,a,NA,NA,0,NA,NA,NA,NA,NA,NA,NA,NA,NA,NA,NA,NA,NA,NA,NA,NA,NA,NA,NA
2c9a3,"""Richtig""-Screen",canvas.Screen,5_0_0_0_1_0_1,NA,NA,skipped,NA,1106616.1999998,NA,NA,1106609,1106616.5999999,2023-03-09T14:06:11Z,1106613.905,NULL,Respekt,heshima,d,NA,NA,NA,NA,sdf,NA,0,NA,NA,NA,NA,NA,NA,NA,NA,NA,NA,NA,NA,NA,NA,NA,NA,NA,NA,NA
2c9a3,"""Falsch""-Screen",canvas.Screen,5_0_0_0_1_0_2,NA,NA,timeout,5003.5630000001,1106618.5999999,1106597.199,1106613.905,1111600.897,1111602.0999999,2023-03-09T14:06:16Z,1111617.468,NULL,Respekt,heshima,d,NA,NA,NA,NA,sdf,0,0,NA,NA,NA,NA,NA,NA,NA,NA,NA,NA,NA,NA,NA,NA,NA,NA,NA,NA,NA
2c9a3,deep,flow.Sequence,5_0_0_0_1_0,NA,NA,completion,10107,1101479.6999998,1101477.101,1101493.897,1111600.897,1111602.6999998,2023-03-09T14:06:16Z,1111617.468,NULL,Respekt,heshima,d,NA,NA,NA,NA,sdf,NA,0,NA,NA,NA,NA,NA,NA,NA,NA,NA,NA,NA,NA,NA,NA,NA,NA,NA,NA,NA
2c9a3,shallow,flow.Sequence,5_0_0_0_1_1,NA,NA,skipped,NA,1111602.9000001,NA,NA,1111600.897,1111603,2023-03-09T14:06:16Z,1111617.468,NULL,Respekt,heshima,d,NA,NA,NA,NA,sdf,NA,0,NA,NA,NA,NA,NA,NA,NA,NA,NA,NA,NA,NA,NA,NA,NA,NA,NA,NA,NA
2c9a3,task,flow.Sequence,5_0_0_0_1,NA,NA,completion,10107,1101479.5999999,1101477.101,1101493.897,1111600.897,1111603.2999997,2023-03-09T14:06:16Z,1111617.468,NULL,Respekt,heshima,d,NA,NA,NA,NA,sdf,NA,0,NA,NA,NA,NA,NA,NA,NA,NA,NA,NA,NA,NA,NA,NA,NA,NA,NA,NA,NA
2c9a3,Deep Question,html.Page,5_0_0_0_2_0_0,NA,NA,form submission,4916.2319998092,1111603.5999999,1111600.897,1111617.468,1116533.6999998,1116534.2999997,2023-03-09T14:06:21Z,1116537.416,NULL,Notfall,dharura,d,NA,NA,NA,a,NA,NA,0,NA,NA,NA,NA,NA,NA,NA,NA,NA,NA,NA,NA,NA,NA,NA,NA,NA,NA,NA
2c9a3,"""Richtig""-Screen",canvas.Screen,5_0_0_0_2_0_1,NA,NA,skipped,NA,1116542.5,NA,NA,1116533.6999998,1116543,2023-03-09T14:06:21Z,1116537.416,NULL,Notfall,dharura,d,NA,NA,NA,NA,sdf,NA,0,NA,NA,NA,NA,NA,NA,NA,NA,NA,NA,NA,NA,NA,NA,NA,NA,NA,NA,NA
2c9a3,"""Falsch""-Screen",canvas.Screen,5_0_0_0_2_0_2,NA,NA,timeout,5020.0690000001,1116545.2999997,1116521.065,1116537.416,1121524.154,1121525.2999997,2023-03-09T14:06:26Z,1121557.485,NULL,Notfall,dharura,d,NA,NA,NA,NA,sdf,0,0,NA,NA,NA,NA,NA,NA,NA,NA,NA,NA,NA,NA,NA,NA,NA,NA,NA,NA,NA
2c9a3,deep,flow.Sequence,5_0_0_0_2_0,NA,NA,completion,9906.686,1111603.5999999,1111600.897,1111617.468,1121524.154,1121525.6999998,2023-03-09T14:06:26Z,1121557.485,NULL,Notfall,dharura,d,NA,NA,NA,NA,sdf,NA,0,NA,NA,NA,NA,NA,NA,NA,NA,NA,NA,NA,NA,NA,NA,NA,NA,NA,NA,NA
2c9a3,shallow,flow.Sequence,5_0_0_0_2_1,NA,NA,skipped,NA,1121525.9000001,NA,NA,1121524.154,1121526.0999999,2023-03-09T14:06:26Z,1121557.485,NULL,Notfall,dharura,d,NA,NA,NA,NA,sdf,NA,0,NA,NA,NA,NA,NA,NA,NA,NA,NA,NA,NA,NA,NA,NA,NA,NA,NA,NA,NA
2c9a3,task,flow.Sequence,5_0_0_0_2,NA,NA,completion,9906.686,1111603.5999999,1111600.897,1111617.468,1121524.154,1121526.2999997,2023-03-09T14:06:26Z,1121557.485,NULL,Notfall,dharura,d,NA,NA,NA,NA,sdf,NA,0,NA,NA,NA,NA,NA,NA,NA,NA,NA,NA,NA,NA,NA,NA,NA,NA,NA,NA,NA
2c9a3,Deep Question,html.Page,5_0_0_0_3_0_0,NA,NA,form submission,4652.2149998092,1121526.6999998,1121524.154,1121557.485,1126209.6999998,1126210.2999997,2023-03-09T14:06:30Z,1126227.39,NULL,Orientierung,urekebisho,d,NA,NA,NA,a,NA,NA,0,NA,NA,NA,NA,NA,NA,NA,NA,NA,NA,NA,NA,NA,NA,NA,NA,NA,NA,NA
2c9a3,"""Richtig""-Screen",canvas.Screen,5_0_0_0_3_0_1,NA,NA,skipped,NA,1126221.5999999,NA,NA,1126209.6999998,1126222.1999998,2023-03-09T14:06:30Z,1126227.39,NULL,Orientierung,urekebisho,d,NA,NA,NA,NA,sdf,NA,0,NA,NA,NA,NA,NA,NA,NA,NA,NA,NA,NA,NA,NA,NA,NA,NA,NA,NA,NA
2c9a3,"""Falsch""-Screen",canvas.Screen,5_0_0_0_3_0_2,NA,NA,timeout,5003.4430000002,1126224.1999998,1126193.994,1126227.39,1131214.137,1131215.0999999,2023-03-09T14:06:35Z,1131230.833,NULL,Orientierung,urekebisho,d,NA,NA,NA,NA,sdf,0,0,NA,NA,NA,NA,NA,NA,NA,NA,NA,NA,NA,NA,NA,NA,NA,NA,NA,NA,NA
2c9a3,deep,flow.Sequence,5_0_0_0_3_0,NA,NA,completion,9656.652,1121526.5999999,1121524.154,1121557.485,1131214.137,1131215.5,2023-03-09T14:06:35Z,1131230.833,NULL,Orientierung,urekebisho,d,NA,NA,NA,NA,sdf,NA,0,NA,NA,NA,NA,NA,NA,NA,NA,NA,NA,NA,NA,NA,NA,NA,NA,NA,NA,NA
2c9a3,shallow,flow.Sequence,5_0_0_0_3_1,NA,NA,skipped,NA,1131215.6999998,NA,NA,1131214.137,1131215.7999997,2023-03-09T14:06:35Z,1131230.833,NULL,Orientierung,urekebisho,d,NA,NA,NA,NA,sdf,NA,0,NA,NA,NA,NA,NA,NA,NA,NA,NA,NA,NA,NA,NA,NA,NA,NA,NA,NA,NA
2c9a3,task,flow.Sequence,5_0_0_0_3,NA,NA,completion,9656.652,1121526.5,1121524.154,1121557.485,1131214.137,1131216.1999998,2023-03-09T14:06:35Z,1131230.833,NULL,Orientierung,urekebisho,d,NA,NA,NA,NA,sdf,NA,0,NA,NA,NA,NA,NA,NA,NA,NA,NA,NA,NA,NA,NA,NA,NA,NA,NA,NA,NA
2c9a3,deep,flow.Sequence,5_0_0_0_4_0,NA,NA,skipped,NA,1131216.2999997,NA,NA,1131214.137,1131216.4000001,2023-03-09T14:06:35Z,1131230.833,NULL,Wohlstand,mafanikio,s,chimbuko,kumbuko,mapwaji,NA,sdf,NA,0,NA,NA,NA,NA,NA,NA,NA,NA,NA,NA,NA,NA,NA,NA,NA,NA,NA,NA,NA
2c9a3,Shallow Question,html.Page,5_0_0_0_4_1_0,NA,NA,form submission,9200.7669999045,1131216.5999999,1131214.137,1131230.833,1140431.5999999,1140432.0999999,2023-03-09T14:06:44Z,1140453.789,NULL,Wohlstand,mafanikio,s,chimbuko,kumbuko,mapwaji,mafanikio,NA,NA,0,NA,NA,NA,NA,NA,NA,NA,NA,NA,NA,NA,NA,NA,NA,NA,NA,NA,NA,NA
2c9a3,"""Richtig""-Screen",canvas.Screen,5_0_0_0_4_1_1,NA,NA,timeout,5003.4929999998,1140437.7999997,1140420.513,1140453.789,1145440.55,1145441.5,2023-03-09T14:06:49Z,1145457.282,NULL,Wohlstand,mafanikio,s,chimbuko,kumbuko,mapwaji,NA,sdf,1,0,NA,NA,NA,NA,NA,NA,NA,NA,NA,NA,NA,NA,NA,NA,NA,NA,NA,NA,NA
2c9a3,"""Falsch""-Screen",canvas.Screen,5_0_0_0_4_1_2,NA,NA,skipped,NA,1145448.1999998,NA,NA,1145440.55,1145448.5,2023-03-09T14:06:49Z,1145457.282,NULL,Wohlstand,mafanikio,s,chimbuko,kumbuko,mapwaji,NA,sdf,NA,0,NA,NA,NA,NA,NA,NA,NA,NA,NA,NA,NA,NA,NA,NA,NA,NA,NA,NA,NA
2c9a3,shallow,flow.Sequence,5_0_0_0_4_1,NA,NA,completion,14209.717,1131216.5999999,1131214.137,1131230.833,1145440.55,1145448.9000001,2023-03-09T14:06:49Z,1145457.282,NULL,Wohlstand,mafanikio,s,chimbuko,kumbuko,mapwaji,NA,sdf,NA,0,NA,NA,NA,NA,NA,NA,NA,NA,NA,NA,NA,NA,NA,NA,NA,NA,NA,NA,NA
2c9a3,task,flow.Sequence,5_0_0_0_4,NA,NA,completion,14209.717,1131216.2999997,1131214.137,1131230.833,1145440.55,1145449.1999998,2023-03-09T14:06:49Z,1145457.282,NULL,Wohlstand,mafanikio,s,chimbuko,kumbuko,mapwaji,NA,sdf,NA,0,NA,NA,NA,NA,NA,NA,NA,NA,NA,NA,NA,NA,NA,NA,NA,NA,NA,NA,NA
2c9a3,Deep Question,html.Page,5_0_0_0_5_0_0,NA,NA,form submission,4548.4179998094,1145449.4000001,1145440.55,1145457.282,1150005.6999998,1150006,2023-03-09T14:06:54Z,1150010.309,NULL,Vergnügen,kichekesho,d,NA,NA,NA,a,NA,NA,0,NA,NA,NA,NA,NA,NA,NA,NA,NA,NA,NA,NA,NA,NA,NA,NA,NA,NA,NA
2c9a3,"""Richtig""-Screen",canvas.Screen,5_0_0_0_5_0_1,NA,NA,skipped,NA,1150010.5999999,NA,NA,1150005.6999998,1150010.6999998,2023-03-09T14:06:54Z,1150010.309,NULL,Vergnügen,kichekesho,d,NA,NA,NA,NA,sdf,NA,0,NA,NA,NA,NA,NA,NA,NA,NA,NA,NA,NA,NA,NA,NA,NA,NA,NA,NA,NA
2c9a3,"""Falsch""-Screen",canvas.Screen,5_0_0_0_5_0_2,NA,NA,timeout,5003.4640000002,1150011.5,1149993.717,1150010.309,1154997.311,1154998.2999997,2023-03-09T14:06:59Z,1155013.773,NULL,Vergnügen,kichekesho,d,NA,NA,NA,NA,sdf,0,0,NA,NA,NA,NA,NA,NA,NA,NA,NA,NA,NA,NA,NA,NA,NA,NA,NA,NA,NA
2c9a3,deep,flow.Sequence,5_0_0_0_5_0,NA,NA,completion,9540.0290000001,1145449.4000001,1145440.55,1145457.282,1154997.311,1154998.5999999,2023-03-09T14:06:59Z,1155013.773,NULL,Vergnügen,kichekesho,d,NA,NA,NA,NA,sdf,NA,0,NA,NA,NA,NA,NA,NA,NA,NA,NA,NA,NA,NA,NA,NA,NA,NA,NA,NA,NA
2c9a3,shallow,flow.Sequence,5_0_0_0_5_1,NA,NA,skipped,NA,1154998.6999998,NA,NA,1154997.311,1154998.9000001,2023-03-09T14:06:59Z,1155013.773,NULL,Vergnügen,kichekesho,d,NA,NA,NA,NA,sdf,NA,0,NA,NA,NA,NA,NA,NA,NA,NA,NA,NA,NA,NA,NA,NA,NA,NA,NA,NA,NA
2c9a3,task,flow.Sequence,5_0_0_0_5,NA,NA,completion,9540.0290000001,1145449.2999997,1145440.55,1145457.282,1154997.311,1154999,2023-03-09T14:06:59Z,1155013.773,NULL,Vergnügen,kichekesho,d,NA,NA,NA,NA,sdf,NA,0,NA,NA,NA,NA,NA,NA,NA,NA,NA,NA,NA,NA,NA,NA,NA,NA,NA,NA,NA
2c9a3,deep,flow.Sequence,5_0_0_0_6_0,NA,NA,skipped,NA,1154999.1999998,NA,NA,1154997.311,1154999.1999998,2023-03-09T14:06:59Z,1155013.773,NULL,Ergänzung,kijalizo,s,ulaghai,mustarehe,matangazo,NA,sdf,NA,0,NA,NA,NA,NA,NA,NA,NA,NA,NA,NA,NA,NA,NA,NA,NA,NA,NA,NA,NA
2c9a3,Shallow Question,html.Page,5_0_0_0_6_1_0,NA,NA,form submission,8333.227,1154999.2999997,1154997.311,1155013.773,1163347,1163347.5999999,2023-03-09T14:07:07Z,1163386.238,NULL,Ergänzung,kijalizo,s,ulaghai,mustarehe,matangazo,matangazo,NA,NA,0,NA,NA,NA,NA,NA,NA,NA,NA,NA,NA,NA,NA,NA,NA,NA,NA,NA,NA,NA
2c9a3,"""Richtig""-Screen",canvas.Screen,5_0_0_0_6_1_1,NA,NA,skipped,NA,1163355.5999999,NA,NA,1163347,1163356,2023-03-09T14:07:07Z,1163386.238,NULL,Ergänzung,kijalizo,s,ulaghai,mustarehe,matangazo,NA,sdf,NA,0,NA,NA,NA,NA,NA,NA,NA,NA,NA,NA,NA,NA,NA,NA,NA,NA,NA,NA,NA
2c9a3,"""Falsch""-Screen",canvas.Screen,5_0_0_0_6_1_2,NA,NA,timeout,5003.577,1163358.5,1163336.563,1163386.238,1168373.038,1168374.5,2023-03-09T14:07:12Z,1168389.815,NULL,Ergänzung,kijalizo,s,ulaghai,mustarehe,matangazo,NA,sdf,0,0,NA,NA,NA,NA,NA,NA,NA,NA,NA,NA,NA,NA,NA,NA,NA,NA,NA,NA,NA
2c9a3,shallow,flow.Sequence,5_0_0_0_6_1,NA,NA,completion,13359.265,1154999.2999997,1154997.311,1155013.773,1168373.038,1168375.2999997,2023-03-09T14:07:12Z,1168389.815,NULL,Ergänzung,kijalizo,s,ulaghai,mustarehe,matangazo,NA,sdf,NA,0,NA,NA,NA,NA,NA,NA,NA,NA,NA,NA,NA,NA,NA,NA,NA,NA,NA,NA,NA
2c9a3,task,flow.Sequence,5_0_0_0_6,NA,NA,completion,13359.265,1154999.0999999,1154997.311,1155013.773,1168373.038,1168375.7999997,2023-03-09T14:07:12Z,1168389.815,NULL,Ergänzung,kijalizo,s,ulaghai,mustarehe,matangazo,NA,sdf,NA,0,NA,NA,NA,NA,NA,NA,NA,NA,NA,NA,NA,NA,NA,NA,NA,NA,NA,NA,NA
2c9a3,deep,flow.Sequence,5_0_0_0_7_0,NA,NA,skipped,NA,1168376,NA,NA,1168373.038,1168376.2999997,2023-03-09T14:07:12Z,1168389.815,NULL,Stimmung,kinyongo,s,kilekile,kisambo,madhehebu,NA,sdf,NA,0,NA,NA,NA,NA,NA,NA,NA,NA,NA,NA,NA,NA,NA,NA,NA,NA,NA,NA,NA
2c9a3,Shallow Question,html.Page,5_0_0_0_7_1_0,NA,NA,form submission,8283.5850000954,1168376.4000001,1168373.038,1168389.815,1176673.4000001,1176674,2023-03-09T14:07:21Z,1176712.101,NULL,Stimmung,kinyongo,s,kilekile,kisambo,madhehebu,madhehebu,NA,NA,0,NA,NA,NA,NA,NA,NA,NA,NA,NA,NA,NA,NA,NA,NA,NA,NA,NA,NA,NA
2c9a3,"""Richtig""-Screen",canvas.Screen,5_0_0_0_7_1_1,NA,NA,skipped,NA,1176681.5,NA,NA,1176673.4000001,1176681.9000001,2023-03-09T14:07:21Z,1176712.101,NULL,Stimmung,kinyongo,s,kilekile,kisambo,madhehebu,NA,sdf,NA,0,NA,NA,NA,NA,NA,NA,NA,NA,NA,NA,NA,NA,NA,NA,NA,NA,NA,NA,NA
2c9a3,"""Falsch""-Screen",canvas.Screen,5_0_0_0_7_1_2,NA,NA,timeout,5020.0659999999,1176683.9000001,1176662.119,1176712.101,1181698.901,1181700.0999999,2023-03-09T14:07:26Z,1181732.167,NULL,Stimmung,kinyongo,s,kilekile,kisambo,madhehebu,NA,sdf,0,0,NA,NA,NA,NA,NA,NA,NA,NA,NA,NA,NA,NA,NA,NA,NA,NA,NA,NA,NA
2c9a3,shallow,flow.Sequence,5_0_0_0_7_1,NA,NA,completion,13309.086,1168376.4000001,1168373.038,1168389.815,1181698.901,1181700.6999998,2023-03-09T14:07:26Z,1181732.167,NULL,Stimmung,kinyongo,s,kilekile,kisambo,madhehebu,NA,sdf,NA,0,NA,NA,NA,NA,NA,NA,NA,NA,NA,NA,NA,NA,NA,NA,NA,NA,NA,NA,NA
2c9a3,task,flow.Sequence,5_0_0_0_7,NA,NA,completion,13309.086,1168376,1168373.038,1168389.815,1181698.901,1181701,2023-03-09T14:07:26Z,1181732.167,NULL,Stimmung,kinyongo,s,kilekile,kisambo,madhehebu,NA,sdf,NA,0,NA,NA,NA,NA,NA,NA,NA,NA,NA,NA,NA,NA,NA,NA,NA,NA,NA,NA,NA
2c9a3,block,flow.Loop,5_0_0_0,NA,NA,completion,94281.516,1087400.1999998,1087386.73,1087417.385,1181698.901,1181701.4000001,2023-03-09T14:07:26Z,1181732.167,NULL,NA,NA,NA,NA,NA,NA,NA,sdf,NA,0,NA,NA,NA,NA,NA,NA,NA,NA,NA,NA,NA,NA,NA,NA,NA,NA,NA,NA,NA
2c9a3,weiter,canvas.Screen,5_0_0_1,sdf,keypress(Space),response,6957.0329998094,1181701.7999997,1181698.901,1181732.167,1188689.1999998,1188695.5,2023-03-09T14:07:33Z,1188736.961,NULL,NA,NA,NA,NA,NA,NA,NA,sdf,NA,0,NA,NA,NA,NA,NA,NA,NA,NA,NA,NA,NA,NA,NA,NA,NA,NA,NA,NA,NA
2c9a3,check continue,flow.Sequence,5_0_0,NA,NA,completion,101271.81499981,1087400.1999998,1087386.73,1087417.385,1188689.1999998,1188695.9000001,2023-03-09T14:07:33Z,1188736.961,NULL,NA,NA,NA,NA,NA,NA,NA,sdf,NA,0,NA,NA,NA,NA,NA,NA,NA,NA,NA,NA,NA,NA,NA,NA,NA,NA,NA,NA,NA
2c9a3,Deep Question,html.Page,5_0_1_0_0_0_0,NA,NA,form submission,11142.338999714,1188750.5,1188689.107,1188736.961,1199879.2999997,1199879.5,2023-03-09T14:07:44Z,1199894.578,NULL,Vergnügen,kichekesho,d,NA,NA,NA,k,NA,NA,1,NA,NA,NA,NA,NA,NA,NA,NA,NA,NA,NA,NA,NA,NA,NA,NA,NA,NA,NA
2c9a3,"""Richtig""-Screen",canvas.Screen,5_0_1_0_0_0_1,NA,NA,skipped,NA,1199882,NA,NA,1199879.2999997,1199882.1999998,2023-03-09T14:07:44Z,1199894.578,NULL,Vergnügen,kichekesho,d,NA,NA,NA,NA,sdfdsf,NA,1,NA,NA,NA,NA,NA,NA,NA,NA,NA,NA,NA,NA,NA,NA,NA,NA,NA,NA,NA
2c9a3,"""Falsch""-Screen",canvas.Screen,5_0_1_0_0_0_2,NA,NA,timeout,5003.47,1199883,1199878.084,1199894.578,1204881.378,1204882.1999998,2023-03-09T14:07:49Z,1204898.048,NULL,Vergnügen,kichekesho,d,NA,NA,NA,NA,sdfdsf,0,1,NA,NA,NA,NA,NA,NA,NA,NA,NA,NA,NA,NA,NA,NA,NA,NA,NA,NA,NA
2c9a3,deep,flow.Sequence,5_0_1_0_0_0,NA,NA,completion,16144.417,1188750.5,1188689.107,1188736.961,1204881.378,1204882.5,2023-03-09T14:07:49Z,1204898.048,NULL,Vergnügen,kichekesho,d,NA,NA,NA,NA,sdfdsf,NA,1,NA,NA,NA,NA,NA,NA,NA,NA,NA,NA,NA,NA,NA,NA,NA,NA,NA,NA,NA
2c9a3,shallow,flow.Sequence,5_0_1_0_0_1,NA,NA,skipped,NA,1204882.6999998,NA,NA,1204881.378,1204882.9000001,2023-03-09T14:07:49Z,1204898.048,NULL,Vergnügen,kichekesho,d,NA,NA,NA,NA,sdfdsf,NA,1,NA,NA,NA,NA,NA,NA,NA,NA,NA,NA,NA,NA,NA,NA,NA,NA,NA,NA,NA
2c9a3,task,flow.Sequence,5_0_1_0_0,NA,NA,completion,16144.417,1188750.4000001,1188689.107,1188736.961,1204881.378,1204883.0999999,2023-03-09T14:07:49Z,1204898.048,NULL,Vergnügen,kichekesho,d,NA,NA,NA,NA,sdfdsf,NA,1,NA,NA,NA,NA,NA,NA,NA,NA,NA,NA,NA,NA,NA,NA,NA,NA,NA,NA,NA
2c9a3,deep,flow.Sequence,5_0_1_0_1_0,NA,NA,skipped,NA,1204883.1999998,NA,NA,1204881.378,1204883.2999997,2023-03-09T14:07:49Z,1204898.048,NULL,Ergänzung,kijalizo,s,ulaghai,mustarehe,matangazo,NA,sdfdsf,NA,1,NA,NA,NA,NA,NA,NA,NA,NA,NA,NA,NA,NA,NA,NA,NA,NA,NA,NA,NA
2c9a3,Shallow Question,html.Page,5_0_1_0_1_1_0,NA,NA,form submission,8853.3520000954,1204883.4000001,1204881.378,1204898.048,1213751.4000001,1213751.6999998,2023-03-09T14:07:58Z,1213754.144,NULL,Ergänzung,kijalizo,s,ulaghai,mustarehe,matangazo,matangazo,NA,NA,1,NA,NA,NA,NA,NA,NA,NA,NA,NA,NA,NA,NA,NA,NA,NA,NA,NA,NA,NA
2c9a3,"""Richtig""-Screen",canvas.Screen,5_0_1_0_1_1_1,NA,NA,skipped,NA,1213755.6999998,NA,NA,1213751.4000001,1213756,2023-03-09T14:07:58Z,1213754.144,NULL,Ergänzung,kijalizo,s,ulaghai,mustarehe,matangazo,NA,sdfdsf,NA,1,NA,NA,NA,NA,NA,NA,NA,NA,NA,NA,NA,NA,NA,NA,NA,NA,NA,NA,NA
2c9a3,"""Falsch""-Screen",canvas.Screen,5_0_1_0_1_1_2,NA,NA,timeout,5003.5869999998,1213757.0999999,1213737.433,1213754.144,1218741.186,1218742.2999997,2023-03-09T14:08:03Z,1218757.731,NULL,Ergänzung,kijalizo,s,ulaghai,mustarehe,matangazo,NA,sdfdsf,0,1,NA,NA,NA,NA,NA,NA,NA,NA,NA,NA,NA,NA,NA,NA,NA,NA,NA,NA,NA
2c9a3,shallow,flow.Sequence,5_0_1_0_1_1,NA,NA,completion,13843.138,1204883.4000001,1204881.378,1204898.048,1218741.186,1218742.7999997,2023-03-09T14:08:03Z,1218757.731,NULL,Ergänzung,kijalizo,s,ulaghai,mustarehe,matangazo,NA,sdfdsf,NA,1,NA,NA,NA,NA,NA,NA,NA,NA,NA,NA,NA,NA,NA,NA,NA,NA,NA,NA,NA
2c9a3,task,flow.Sequence,5_0_1_0_1,NA,NA,completion,13843.138,1204883.0999999,1204881.378,1204898.048,1218741.186,1218743.0999999,2023-03-09T14:08:03Z,1218757.731,NULL,Ergänzung,kijalizo,s,ulaghai,mustarehe,matangazo,NA,sdfdsf,NA,1,NA,NA,NA,NA,NA,NA,NA,NA,NA,NA,NA,NA,NA,NA,NA,NA,NA,NA,NA
2c9a3,Deep Question,html.Page,5_0_1_0_2_0_0,NA,NA,form submission,13685.468999809,1218743.4000001,1218741.186,1218757.731,1232443.1999998,1232443.9000001,2023-03-09T14:08:16Z,1232450.395,NULL,Respekt,heshima,d,NA,NA,NA,m,NA,NA,1,NA,NA,NA,NA,NA,NA,NA,NA,NA,NA,NA,NA,NA,NA,NA,NA,NA,NA,NA
2c9a3,"""Richtig""-Screen",canvas.Screen,5_0_1_0_2_0_1,NA,NA,skipped,NA,1232451.5,NA,NA,1232443.1999998,1232451.9000001,2023-03-09T14:08:16Z,1232450.395,NULL,Respekt,heshima,d,NA,NA,NA,NA,sdfdsf,NA,1,NA,NA,NA,NA,NA,NA,NA,NA,NA,NA,NA,NA,NA,NA,NA,NA,NA,NA,NA
2c9a3,"""Falsch""-Screen",canvas.Screen,5_0_1_0_2_0_2,NA,NA,timeout,5003.4029999999,1232454.1999998,1232433.715,1232450.395,1237437.125,1237438.4000001,2023-03-09T14:08:21Z,1237453.798,NULL,Respekt,heshima,d,NA,NA,NA,NA,sdfdsf,0,1,NA,NA,NA,NA,NA,NA,NA,NA,NA,NA,NA,NA,NA,NA,NA,NA,NA,NA,NA
2c9a3,deep,flow.Sequence,5_0_1_0_2_0,NA,NA,completion,18679.394,1218743.4000001,1218741.186,1218757.731,1237437.125,1237439,2023-03-09T14:08:21Z,1237453.798,NULL,Respekt,heshima,d,NA,NA,NA,NA,sdfdsf,NA,1,NA,NA,NA,NA,NA,NA,NA,NA,NA,NA,NA,NA,NA,NA,NA,NA,NA,NA,NA
2c9a3,shallow,flow.Sequence,5_0_1_0_2_1,NA,NA,skipped,NA,1237439.1999998,NA,NA,1237437.125,1237439.4000001,2023-03-09T14:08:21Z,1237453.798,NULL,Respekt,heshima,d,NA,NA,NA,NA,sdfdsf,NA,1,NA,NA,NA,NA,NA,NA,NA,NA,NA,NA,NA,NA,NA,NA,NA,NA,NA,NA,NA
2c9a3,task,flow.Sequence,5_0_1_0_2,NA,NA,completion,18679.394,1218743.2999997,1218741.186,1218757.731,1237437.125,1237439.6999998,2023-03-09T14:08:21Z,1237453.798,NULL,Respekt,heshima,d,NA,NA,NA,NA,sdfdsf,NA,1,NA,NA,NA,NA,NA,NA,NA,NA,NA,NA,NA,NA,NA,NA,NA,NA,NA,NA,NA
2c9a3,Deep Question,html.Page,5_0_1_0_3_0_0,NA,NA,form submission,8303.9019998093,1237440,1237437.125,1237453.798,1245757.6999998,1245758.2999997,2023-03-09T14:08:30Z,1245759.606,NULL,Orientierung,urekebisho,d,NA,NA,NA,m,NA,NA,1,NA,NA,NA,NA,NA,NA,NA,NA,NA,NA,NA,NA,NA,NA,NA,NA,NA,NA,NA
2c9a3,"""Richtig""-Screen",canvas.Screen,5_0_1_0_3_0_1,NA,NA,skipped,NA,1245766,NA,NA,1245757.6999998,1245766.2999997,2023-03-09T14:08:30Z,1245759.606,NULL,Orientierung,urekebisho,d,NA,NA,NA,NA,sdfdsf,NA,1,NA,NA,NA,NA,NA,NA,NA,NA,NA,NA,NA,NA,NA,NA,NA,NA,NA,NA,NA
2c9a3,"""Falsch""-Screen",canvas.Screen,5_0_1_0_3_0_2,NA,NA,timeout,5020.0110000002,1245768.5,1245742.874,1245759.606,1250746.49,1250747.5,2023-03-09T14:08:35Z,1250779.617,NULL,Orientierung,urekebisho,d,NA,NA,NA,NA,sdfdsf,0,1,NA,NA,NA,NA,NA,NA,NA,NA,NA,NA,NA,NA,NA,NA,NA,NA,NA,NA,NA
2c9a3,deep,flow.Sequence,5_0_1_0_3_0,NA,NA,completion,13292.692,1237439.9000001,1237437.125,1237453.798,1250746.49,1250748.1999998,2023-03-09T14:08:35Z,1250779.617,NULL,Orientierung,urekebisho,d,NA,NA,NA,NA,sdfdsf,NA,1,NA,NA,NA,NA,NA,NA,NA,NA,NA,NA,NA,NA,NA,NA,NA,NA,NA,NA,NA
2c9a3,shallow,flow.Sequence,5_0_1_0_3_1,NA,NA,skipped,NA,1250748.2999997,NA,NA,1250746.49,1250748.5,2023-03-09T14:08:35Z,1250779.617,NULL,Orientierung,urekebisho,d,NA,NA,NA,NA,sdfdsf,NA,1,NA,NA,NA,NA,NA,NA,NA,NA,NA,NA,NA,NA,NA,NA,NA,NA,NA,NA,NA
2c9a3,task,flow.Sequence,5_0_1_0_3,NA,NA,completion,13292.692,1237439.9000001,1237437.125,1237453.798,1250746.49,1250748.7999997,2023-03-09T14:08:35Z,1250779.617,NULL,Orientierung,urekebisho,d,NA,NA,NA,NA,sdfdsf,NA,1,NA,NA,NA,NA,NA,NA,NA,NA,NA,NA,NA,NA,NA,NA,NA,NA,NA,NA,NA
2c9a3,deep,flow.Sequence,5_0_1_0_4_0,NA,NA,skipped,NA,1250749.0999999,NA,NA,1250746.49,1250749.1999998,2023-03-09T14:08:35Z,1250779.617,NULL,Wohlstand,mafanikio,s,chimbuko,kumbuko,mapwaji,NA,sdfdsf,NA,1,NA,NA,NA,NA,NA,NA,NA,NA,NA,NA,NA,NA,NA,NA,NA,NA,NA,NA,NA
2c9a3,Shallow Question,html.Page,5_0_1_0_4_1_0,NA,NA,form submission,5268.2830000953,1250749.4000001,1250746.49,1250779.617,1256047.9000001,1256048.4000001,2023-03-09T14:08:40Z,1256049.926,NULL,Wohlstand,mafanikio,s,chimbuko,kumbuko,mapwaji,mafanikio,NA,NA,1,NA,NA,NA,NA,NA,NA,NA,NA,NA,NA,NA,NA,NA,NA,NA,NA,NA,NA,NA
2c9a3,"""Richtig""-Screen",canvas.Screen,5_0_1_0_4_1_1,NA,NA,timeout,5036.787,1256055.0999999,1256033.399,1256049.926,1261036.893,1261038.2999997,2023-03-09T14:08:45Z,1261086.713,NULL,Wohlstand,mafanikio,s,chimbuko,kumbuko,mapwaji,NA,sdfdsf,1,1,NA,NA,NA,NA,NA,NA,NA,NA,NA,NA,NA,NA,NA,NA,NA,NA,NA,NA,NA
2c9a3,"""Falsch""-Screen",canvas.Screen,5_0_1_0_4_1_2,NA,NA,skipped,NA,1261044.9000001,NA,NA,1261036.893,1261045.0999999,2023-03-09T14:08:45Z,1261086.713,NULL,Wohlstand,mafanikio,s,chimbuko,kumbuko,mapwaji,NA,sdfdsf,NA,1,NA,NA,NA,NA,NA,NA,NA,NA,NA,NA,NA,NA,NA,NA,NA,NA,NA,NA,NA
2c9a3,shallow,flow.Sequence,5_0_1_0_4_1,NA,NA,completion,10257.276,1250749.4000001,1250746.49,1250779.617,1261036.893,1261045.5999999,2023-03-09T14:08:45Z,1261086.713,NULL,Wohlstand,mafanikio,s,chimbuko,kumbuko,mapwaji,NA,sdfdsf,NA,1,NA,NA,NA,NA,NA,NA,NA,NA,NA,NA,NA,NA,NA,NA,NA,NA,NA,NA,NA
2c9a3,task,flow.Sequence,5_0_1_0_4,NA,NA,completion,10257.276,1250749,1250746.49,1250779.617,1261036.893,1261045.7999997,2023-03-09T14:08:45Z,1261086.713,NULL,Wohlstand,mafanikio,s,chimbuko,kumbuko,mapwaji,NA,sdfdsf,NA,1,NA,NA,NA,NA,NA,NA,NA,NA,NA,NA,NA,NA,NA,NA,NA,NA,NA,NA,NA
2c9a3,deep,flow.Sequence,5_0_1_0_5_0,NA,NA,skipped,NA,1261046.0999999,NA,NA,1261036.893,1261046.1999998,2023-03-09T14:08:45Z,1261086.713,NULL,Stimmung,kinyongo,s,kilekile,kisambo,madhehebu,NA,sdfdsf,NA,1,NA,NA,NA,NA,NA,NA,NA,NA,NA,NA,NA,NA,NA,NA,NA,NA,NA,NA,NA
2c9a3,Shallow Question,html.Page,5_0_1_0_5_1_0,NA,NA,form submission,5255.3869999046,1261046.4000001,1261036.893,1261086.713,1266342.0999999,1266342.7999997,2023-03-09T14:08:50Z,1266373.726,NULL,Stimmung,kinyongo,s,kilekile,kisambo,madhehebu,kinyongo,NA,NA,1,NA,NA,NA,NA,NA,NA,NA,NA,NA,NA,NA,NA,NA,NA,NA,NA,NA,NA,NA
2c9a3,"""Richtig""-Screen",canvas.Screen,5_0_1_0_5_1_1,NA,NA,timeout,5003.3940000001,1266350.0999999,1266357.249,1266373.726,1271360.702,1271362.0999999,2023-03-09T14:08:55Z,1271377.12,NULL,Stimmung,kinyongo,s,kilekile,kisambo,madhehebu,NA,sdfdsf,1,1,NA,NA,NA,NA,NA,NA,NA,NA,NA,NA,NA,NA,NA,NA,NA,NA,NA,NA,NA
2c9a3,"""Falsch""-Screen",canvas.Screen,5_0_1_0_5_1_2,NA,NA,skipped,NA,1271368.5999999,NA,NA,1271360.702,1271368.9000001,2023-03-09T14:08:55Z,1271377.12,NULL,Stimmung,kinyongo,s,kilekile,kisambo,madhehebu,NA,sdfdsf,NA,1,NA,NA,NA,NA,NA,NA,NA,NA,NA,NA,NA,NA,NA,NA,NA,NA,NA,NA,NA
2c9a3,shallow,flow.Sequence,5_0_1_0_5_1,NA,NA,completion,10273.989,1261046.4000001,1261036.893,1261086.713,1271360.702,1271369.1999998,2023-03-09T14:08:55Z,1271377.12,NULL,Stimmung,kinyongo,s,kilekile,kisambo,madhehebu,NA,sdfdsf,NA,1,NA,NA,NA,NA,NA,NA,NA,NA,NA,NA,NA,NA,NA,NA,NA,NA,NA,NA,NA
2c9a3,task,flow.Sequence,5_0_1_0_5,NA,NA,completion,10273.989,1261046,1261036.893,1261086.713,1271360.702,1271369.5999999,2023-03-09T14:08:55Z,1271377.12,NULL,Stimmung,kinyongo,s,kilekile,kisambo,madhehebu,NA,sdfdsf,NA,1,NA,NA,NA,NA,NA,NA,NA,NA,NA,NA,NA,NA,NA,NA,NA,NA,NA,NA,NA
