observation,sender,sender_type,sender_id,response,response_action,ended_on,duration,time_run,time_render,time_show,time_end,time_commit,timestamp,time_switch,german,swahili,enc,distractor1,distractor2,distractor3,response_2,x,correct,distractors,url_vp,url_sess,meta_labjs_version,meta_location,meta_user_agent,meta_platform,meta_language,meta_locale,meta_time_zone,meta_timezone_offset,meta_screen_width,meta_screen_height,meta_scroll_width,meta_scroll_height,meta_window_inner_width,meta_window_inner_height,meta_device_pixel_ratio,meta_labjs_build_flavor,meta_labjs_build_commit
6ecd0,Introduction delayed retrieval,canvas.Screen,0,weiter,keypress(Space),response,17416.7,989,1030.7,1097.3,18514,18526,2023-03-27T10:06:07Z,18528.5,NA,NA,NA,NA,NA,NA,NA,NA,NA,NULL,121,2,20.2.4,https://neurocog.fernuni.ch/studies/vweber/delayed/index.html?vp=121&sess=2,Mozilla/5.0 (Macintosh; Intel Mac OS X 10.15; rv:109.0) Gecko/20100101 Firefox/111.0,MacIntel,de,de,Europe/Zurich,-120,1440,900,1440,714,1440,762,2,production,f5b4a49f956347addd546a832a3327688c2c0fef
6ecd0,Deep Question,html.Page,1_0_0_0,NA,NA,form submission,11189.5,18528,18528.14,18528.5,29718,29718,2023-03-27T10:06:19Z,29716.76,Verpackung,ufungaji,d,uhusiano,upimaji,uchunguzi,abhini,NA,NA,NULL,NA,NA,NA,NA,NA,NA,NA,NA,NA,NA,NA,NA,NA,NA,NA,NA,NA,NA,NA
6ecd0,Save data screen,canvas.Screen,1_0_0_1,NA,NA,timeout,497.12,29722,29716.38,29716.76,30196.92,30197,2023-03-27T10:06:19Z,30213.88,Verpackung,ufungaji,d,uhusiano,upimaji,uchunguzi,NA,NA,0,NULL,NA,NA,NA,NA,NA,NA,NA,NA,NA,NA,NA,NA,NA,NA,NA,NA,NA,NA,NA
6ecd0,deep,flow.Sequence,1_0_0,NA,NA,completion,11668.42,18528,18528.14,18528.5,30196.92,30198,2023-03-27T10:06:19Z,30213.88,Verpackung,ufungaji,d,uhusiano,upimaji,uchunguzi,NA,NA,NA,NULL,NA,NA,NA,NA,NA,NA,NA,NA,NA,NA,NA,NA,NA,NA,NA,NA,NA,NA,NA
6ecd0,task,flow.Sequence,1_0,NA,NA,completion,11668.42,18527,18528.14,18528.5,30196.92,30199,2023-03-27T10:06:19Z,30213.88,Verpackung,ufungaji,d,uhusiano,upimaji,uchunguzi,NA,NA,NA,NULL,NA,NA,NA,NA,NA,NA,NA,NA,NA,NA,NA,NA,NA,NA,NA,NA,NA,NA,NA
6ecd0,Deep Question,html.Page,1_1_0_0,NA,NA,form submission,13635.12,30199,30196.92,30213.88,43849,43850,2023-03-27T10:06:33Z,43849.22,Ergänzung,kijalizo,s,ulaghai,mustarehe,matangazo,makatashi,NA,NA,NULL,NA,NA,NA,NA,NA,NA,NA,NA,NA,NA,NA,NA,NA,NA,NA,NA,NA,NA,NA
6ecd0,Save data screen,canvas.Screen,1_1_0_1,NA,NA,timeout,497.72,43852,43848.94,43849.22,44330.36,44331,2023-03-27T10:06:33Z,44346.94,Ergänzung,kijalizo,s,ulaghai,mustarehe,matangazo,NA,NA,0,NULL,NA,NA,NA,NA,NA,NA,NA,NA,NA,NA,NA,NA,NA,NA,NA,NA,NA,NA,NA
6ecd0,deep,flow.Sequence,1_1_0,NA,NA,completion,14116.48,30199,30196.92,30213.88,44330.36,44332,2023-03-27T10:06:33Z,44346.94,Ergänzung,kijalizo,s,ulaghai,mustarehe,matangazo,NA,NA,NA,NULL,NA,NA,NA,NA,NA,NA,NA,NA,NA,NA,NA,NA,NA,NA,NA,NA,NA,NA,NA
6ecd0,task,flow.Sequence,1_1,NA,NA,completion,14116.48,30199,30196.92,30213.88,44330.36,44332,2023-03-27T10:06:33Z,44346.94,Ergänzung,kijalizo,s,ulaghai,mustarehe,matangazo,NA,NA,NA,NULL,NA,NA,NA,NA,NA,NA,NA,NA,NA,NA,NA,NA,NA,NA,NA,NA,NA,NA,NA
6ecd0,Deep Question,html.Page,1_2_0_0,NA,NA,form submission,3309.06,44333,44330.36,44346.94,47656,47656,2023-03-27T10:06:37Z,47658.58,Schüler,mwanafunzi,d,mwekezaji,matumizi,uaminifu,makatashi,NA,NA,NULL,NA,NA,NA,NA,NA,NA,NA,NA,NA,NA,NA,NA,NA,NA,NA,NA,NA,NA,NA
6ecd0,Save data screen,canvas.Screen,1_2_0_1,NA,NA,timeout,505.2,47658,47655.56,47658.58,48147.42,48150,2023-03-27T10:06:37Z,48163.78,Schüler,mwanafunzi,d,mwekezaji,matumizi,uaminifu,NA,NA,0,NULL,NA,NA,NA,NA,NA,NA,NA,NA,NA,NA,NA,NA,NA,NA,NA,NA,NA,NA,NA
6ecd0,deep,flow.Sequence,1_2_0,NA,NA,completion,3800.48,44332,44330.36,44346.94,48147.42,48150,2023-03-27T10:06:37Z,48163.78,Schüler,mwanafunzi,d,mwekezaji,matumizi,uaminifu,NA,NA,NA,NULL,NA,NA,NA,NA,NA,NA,NA,NA,NA,NA,NA,NA,NA,NA,NA,NA,NA,NA,NA
6ecd0,task,flow.Sequence,1_2,NA,NA,completion,3800.48,44332,44330.36,44346.94,48147.42,48151,2023-03-27T10:06:37Z,48163.78,Schüler,mwanafunzi,d,mwekezaji,matumizi,uaminifu,NA,NA,NA,NULL,NA,NA,NA,NA,NA,NA,NA,NA,NA,NA,NA,NA,NA,NA,NA,NA,NA,NA,NA
6ecd0,Deep Question,html.Page,1_3_0_0,NA,NA,form submission,22920.22,48151,48147.42,48163.78,71084,71084,2023-03-27T10:07:00Z,71096.5,Fenster,dirisha,s,walakini,tasawari,maarifa,adhini,NA,NA,NULL,NA,NA,NA,NA,NA,NA,NA,NA,NA,NA,NA,NA,NA,NA,NA,NA,NA,NA,NA
6ecd0,Save data screen,canvas.Screen,1_3_0_1,NA,NA,timeout,500.67999999999,71088,71082.8,71096.5,71579.98,71580,2023-03-27T10:07:01Z,71597.18,Fenster,dirisha,s,walakini,tasawari,maarifa,NA,NA,0,NULL,NA,NA,NA,NA,NA,NA,NA,NA,NA,NA,NA,NA,NA,NA,NA,NA,NA,NA,NA
6ecd0,deep,flow.Sequence,1_3_0,NA,NA,completion,23416.2,48151,48147.42,48163.78,71579.98,71580,2023-03-27T10:07:01Z,71597.18,Fenster,dirisha,s,walakini,tasawari,maarifa,NA,NA,NA,NULL,NA,NA,NA,NA,NA,NA,NA,NA,NA,NA,NA,NA,NA,NA,NA,NA,NA,NA,NA
6ecd0,task,flow.Sequence,1_3,NA,NA,completion,23416.2,48151,48147.42,48163.78,71579.98,71581,2023-03-27T10:07:01Z,71597.18,Fenster,dirisha,s,walakini,tasawari,maarifa,NA,NA,NA,NULL,NA,NA,NA,NA,NA,NA,NA,NA,NA,NA,NA,NA,NA,NA,NA,NA,NA,NA,NA
6ecd0,Deep Question,html.Page,1_4_0_0,NA,NA,form submission,15987.82,71581,71579.98,71597.18,87585,87586,2023-03-27T10:07:17Z,87584.68,Schock,mshtuko,s,biashara,kukataza,vichekesho,shtokasi,NA,NA,NULL,NA,NA,NA,NA,NA,NA,NA,NA,NA,NA,NA,NA,NA,NA,NA,NA,NA,NA,NA
6ecd0,Save data screen,canvas.Screen,1_4_0_1,NA,NA,timeout,495.96000000001,87591,87584.3,87584.68,88063.66,88065,2023-03-27T10:07:17Z,88080.64,Schock,mshtuko,s,biashara,kukataza,vichekesho,NA,NA,0,NULL,NA,NA,NA,NA,NA,NA,NA,NA,NA,NA,NA,NA,NA,NA,NA,NA,NA,NA,NA
6ecd0,deep,flow.Sequence,1_4_0,NA,NA,completion,16466.48,71581,71579.98,71597.18,88063.66,88065,2023-03-27T10:07:17Z,88080.64,Schock,mshtuko,s,biashara,kukataza,vichekesho,NA,NA,NA,NULL,NA,NA,NA,NA,NA,NA,NA,NA,NA,NA,NA,NA,NA,NA,NA,NA,NA,NA,NA
6ecd0,task,flow.Sequence,1_4,NA,NA,completion,16466.48,71581,71579.98,71597.18,88063.66,88065,2023-03-27T10:07:17Z,88080.64,Schock,mshtuko,s,biashara,kukataza,vichekesho,NA,NA,NA,NULL,NA,NA,NA,NA,NA,NA,NA,NA,NA,NA,NA,NA,NA,NA,NA,NA,NA,NA,NA
6ecd0,Deep Question,html.Page,1_5_0_0,NA,NA,form submission,27915.36,88066,88063.66,88080.64,115996,115997,2023-03-27T10:07:45Z,115996.58,Notfall,dharura,d,rairai,malalamiko,ahueni,wmakanashi,NA,NA,NULL,NA,NA,NA,NA,NA,NA,NA,NA,NA,NA,NA,NA,NA,NA,NA,NA,NA,NA,NA
6ecd0,Save data screen,canvas.Screen,1_5_0_1,NA,NA,timeout,499.92,116000,115996.28,115996.58,116479.04,116480,2023-03-27T10:07:45Z,116496.5,Notfall,dharura,d,rairai,malalamiko,ahueni,NA,NA,0,NULL,NA,NA,NA,NA,NA,NA,NA,NA,NA,NA,NA,NA,NA,NA,NA,NA,NA,NA,NA
6ecd0,deep,flow.Sequence,1_5_0,NA,NA,completion,28398.4,88066,88063.66,88080.64,116479.04,116481,2023-03-27T10:07:45Z,116496.5,Notfall,dharura,d,rairai,malalamiko,ahueni,NA,NA,NA,NULL,NA,NA,NA,NA,NA,NA,NA,NA,NA,NA,NA,NA,NA,NA,NA,NA,NA,NA,NA
6ecd0,task,flow.Sequence,1_5,NA,NA,completion,28398.4,88066,88063.66,88080.64,116479.04,116481,2023-03-27T10:07:45Z,116496.5,Notfall,dharura,d,rairai,malalamiko,ahueni,NA,NA,NA,NULL,NA,NA,NA,NA,NA,NA,NA,NA,NA,NA,NA,NA,NA,NA,NA,NA,NA,NA,NA
6ecd0,Deep Question,html.Page,1_6_0_0,NA,NA,form submission,6044.5,116481,116479.04,116496.5,122541,122542,2023-03-27T10:07:52Z,122546.62,Vermutung,udhanifu,d,haramia,tikisho,itifaki,adhini,NA,NA,NULL,NA,NA,NA,NA,NA,NA,NA,NA,NA,NA,NA,NA,NA,NA,NA,NA,NA,NA,NA
6ecd0,Save data screen,canvas.Screen,1_6_0_1,NA,NA,timeout,500.04000000001,122544,122540.82,122546.62,123030,123030,2023-03-27T10:07:52Z,123046.66,Vermutung,udhanifu,d,haramia,tikisho,itifaki,NA,NA,0,NULL,NA,NA,NA,NA,NA,NA,NA,NA,NA,NA,NA,NA,NA,NA,NA,NA,NA,NA,NA
6ecd0,deep,flow.Sequence,1_6_0,NA,NA,completion,6533.5,116481,116479.04,116496.5,123030,123031,2023-03-27T10:07:52Z,123046.66,Vermutung,udhanifu,d,haramia,tikisho,itifaki,NA,NA,NA,NULL,NA,NA,NA,NA,NA,NA,NA,NA,NA,NA,NA,NA,NA,NA,NA,NA,NA,NA,NA
6ecd0,task,flow.Sequence,1_6,NA,NA,completion,6533.5,116481,116479.04,116496.5,123030,123031,2023-03-27T10:07:52Z,123046.66,Vermutung,udhanifu,d,haramia,tikisho,itifaki,NA,NA,NA,NULL,NA,NA,NA,NA,NA,NA,NA,NA,NA,NA,NA,NA,NA,NA,NA,NA,NA,NA,NA
6ecd0,Deep Question,html.Page,1_7_0_0,NA,NA,form submission,3613.34,123031,123030,123046.66,126660,126661,2023-03-27T10:07:56Z,126660.18,Tester,wanaojaribu,d,sherti,sihiri,mlipuko,adhini,NA,NA,NULL,NA,NA,NA,NA,NA,NA,NA,NA,NA,NA,NA,NA,NA,NA,NA,NA,NA,NA,NA
6ecd0,Save data screen,canvas.Screen,1_7_0_1,NA,NA,timeout,502.96000000001,126662,126659.88,126660.18,127145.56,127147,2023-03-27T10:07:56Z,127163.14,Tester,wanaojaribu,d,sherti,sihiri,mlipuko,NA,NA,0,NULL,NA,NA,NA,NA,NA,NA,NA,NA,NA,NA,NA,NA,NA,NA,NA,NA,NA,NA,NA
6ecd0,deep,flow.Sequence,1_7_0,NA,NA,completion,4098.9,123031,123030,123046.66,127145.56,127150,2023-03-27T10:07:56Z,127163.14,Tester,wanaojaribu,d,sherti,sihiri,mlipuko,NA,NA,NA,NULL,NA,NA,NA,NA,NA,NA,NA,NA,NA,NA,NA,NA,NA,NA,NA,NA,NA,NA,NA
6ecd0,task,flow.Sequence,1_7,NA,NA,completion,4098.9,123031,123030,123046.66,127145.56,127150,2023-03-27T10:07:56Z,127163.14,Tester,wanaojaribu,d,sherti,sihiri,mlipuko,NA,NA,NA,NULL,NA,NA,NA,NA,NA,NA,NA,NA,NA,NA,NA,NA,NA,NA,NA,NA,NA,NA,NA
6ecd0,Deep Question,html.Page,1_8_0_0,NA,NA,form submission,6729.86,127151,127145.56,127163.14,133893,133894,2023-03-27T10:08:03Z,133896.5,Schlange,foleni,s,uvumilivu,uteuzi,muuzaji,suelamani,NA,NA,NULL,NA,NA,NA,NA,NA,NA,NA,NA,NA,NA,NA,NA,NA,NA,NA,NA,NA,NA,NA
6ecd0,Save data screen,canvas.Screen,1_8_0_1,NA,NA,timeout,499.39999999999,133897,133892.68,133896.5,134379.04,134379,2023-03-27T10:08:03Z,134395.9,Schlange,foleni,s,uvumilivu,uteuzi,muuzaji,NA,NA,0,NULL,NA,NA,NA,NA,NA,NA,NA,NA,NA,NA,NA,NA,NA,NA,NA,NA,NA,NA,NA
6ecd0,deep,flow.Sequence,1_8_0,NA,NA,completion,7215.9,127151,127145.56,127163.14,134379.04,134380,2023-03-27T10:08:03Z,134395.9,Schlange,foleni,s,uvumilivu,uteuzi,muuzaji,NA,NA,NA,NULL,NA,NA,NA,NA,NA,NA,NA,NA,NA,NA,NA,NA,NA,NA,NA,NA,NA,NA,NA
6ecd0,task,flow.Sequence,1_8,NA,NA,completion,7215.9,127151,127145.56,127163.14,134379.04,134380,2023-03-27T10:08:03Z,134395.9,Schlange,foleni,s,uvumilivu,uteuzi,muuzaji,NA,NA,NA,NULL,NA,NA,NA,NA,NA,NA,NA,NA,NA,NA,NA,NA,NA,NA,NA,NA,NA,NA,NA
6ecd0,Deep Question,html.Page,1_9_0_0,NA,NA,form submission,6977.1,134380,134379.04,134395.9,141373,141373,2023-03-27T10:08:10Z,141371.92,Vergnügen,kichekesho,d,dubwana,mpanuko,mtesaji,makatashi,NA,NA,NULL,NA,NA,NA,NA,NA,NA,NA,NA,NA,NA,NA,NA,NA,NA,NA,NA,NA,NA,NA
6ecd0,Save data screen,canvas.Screen,1_9_0_1,NA,NA,timeout,490.09999999998,141375,141371.64,141371.92,141846.56,141847,2023-03-27T10:08:11Z,141862.02,Vergnügen,kichekesho,d,dubwana,mpanuko,mtesaji,NA,NA,0,NULL,NA,NA,NA,NA,NA,NA,NA,NA,NA,NA,NA,NA,NA,NA,NA,NA,NA,NA,NA
6ecd0,deep,flow.Sequence,1_9_0,NA,NA,completion,7450.66,134380,134379.04,134395.9,141846.56,141848,2023-03-27T10:08:11Z,141862.02,Vergnügen,kichekesho,d,dubwana,mpanuko,mtesaji,NA,NA,NA,NULL,NA,NA,NA,NA,NA,NA,NA,NA,NA,NA,NA,NA,NA,NA,NA,NA,NA,NA,NA
6ecd0,task,flow.Sequence,1_9,NA,NA,completion,7450.66,134380,134379.04,134395.9,141846.56,141848,2023-03-27T10:08:11Z,141862.02,Vergnügen,kichekesho,d,dubwana,mpanuko,mtesaji,NA,NA,NA,NULL,NA,NA,NA,NA,NA,NA,NA,NA,NA,NA,NA,NA,NA,NA,NA,NA,NA,NA,NA
6ecd0,Deep Question,html.Page,1_10_0_0,NA,NA,form submission,7301.98,141849,141846.56,141862.02,149164,149164,2023-03-27T10:08:18Z,149163.24,Spionage,upelelezi,s,maslahi,utokazo,magangao,makatashi,NA,NA,NULL,NA,NA,NA,NA,NA,NA,NA,NA,NA,NA,NA,NA,NA,NA,NA,NA,NA,NA,NA
6ecd0,Save data screen,canvas.Screen,1_10_0_1,NA,NA,timeout,499.88,149166,149162.96,149163.24,149645.9,149646,2023-03-27T10:08:19Z,149663.12,Spionage,upelelezi,s,maslahi,utokazo,magangao,NA,NA,0,NULL,NA,NA,NA,NA,NA,NA,NA,NA,NA,NA,NA,NA,NA,NA,NA,NA,NA,NA,NA
6ecd0,deep,flow.Sequence,1_10_0,NA,NA,completion,7783.88,141849,141846.56,141862.02,149645.9,149647,2023-03-27T10:08:19Z,149663.12,Spionage,upelelezi,s,maslahi,utokazo,magangao,NA,NA,NA,NULL,NA,NA,NA,NA,NA,NA,NA,NA,NA,NA,NA,NA,NA,NA,NA,NA,NA,NA,NA
6ecd0,task,flow.Sequence,1_10,NA,NA,completion,7783.88,141849,141846.56,141862.02,149645.9,149647,2023-03-27T10:08:19Z,149663.12,Spionage,upelelezi,s,maslahi,utokazo,magangao,NA,NA,NA,NULL,NA,NA,NA,NA,NA,NA,NA,NA,NA,NA,NA,NA,NA,NA,NA,NA,NA,NA,NA
6ecd0,Deep Question,html.Page,1_11_0_0,NA,NA,form submission,4118.88,149647,149645.9,149663.12,153782,153783,2023-03-27T10:08:23Z,153782.18,Inhalt,yaliyomo,d,kishawishi,hifadhi,kutembea,adhini,NA,NA,NULL,NA,NA,NA,NA,NA,NA,NA,NA,NA,NA,NA,NA,NA,NA,NA,NA,NA,NA,NA
6ecd0,Save data screen,canvas.Screen,1_11_0_1,NA,NA,timeout,497.38,153784,153781.8,153782.18,154263.04,154263,2023-03-27T10:08:23Z,154279.56,Inhalt,yaliyomo,d,kishawishi,hifadhi,kutembea,NA,NA,0,NULL,NA,NA,NA,NA,NA,NA,NA,NA,NA,NA,NA,NA,NA,NA,NA,NA,NA,NA,NA
6ecd0,deep,flow.Sequence,1_11_0,NA,NA,completion,4599.92,149647,149645.9,149663.12,154263.04,154264,2023-03-27T10:08:23Z,154279.56,Inhalt,yaliyomo,d,kishawishi,hifadhi,kutembea,NA,NA,NA,NULL,NA,NA,NA,NA,NA,NA,NA,NA,NA,NA,NA,NA,NA,NA,NA,NA,NA,NA,NA
6ecd0,task,flow.Sequence,1_11,NA,NA,completion,4599.92,149647,149645.9,149663.12,154263.04,154265,2023-03-27T10:08:23Z,154279.56,Inhalt,yaliyomo,d,kishawishi,hifadhi,kutembea,NA,NA,NA,NULL,NA,NA,NA,NA,NA,NA,NA,NA,NA,NA,NA,NA,NA,NA,NA,NA,NA,NA,NA
6ecd0,Deep Question,html.Page,1_12_0_0,NA,NA,form submission,13612.44,154265,154263.04,154279.56,167892,167892,2023-03-27T10:08:37Z,167895.04,Toleranz,kuvumiliana,s,maombolezo,ujasusi,mchekeshaji,mwanambesi,NA,NA,NULL,NA,NA,NA,NA,NA,NA,NA,NA,NA,NA,NA,NA,NA,NA,NA,NA,NA,NA,NA
6ecd0,Save data screen,canvas.Screen,1_12_0_1,NA,NA,timeout,500.69999999998,167893,167891.5,167895.04,168378.54,168379,2023-03-27T10:08:37Z,168395.74,Toleranz,kuvumiliana,s,maombolezo,ujasusi,mchekeshaji,NA,NA,0,NULL,NA,NA,NA,NA,NA,NA,NA,NA,NA,NA,NA,NA,NA,NA,NA,NA,NA,NA,NA
6ecd0,deep,flow.Sequence,1_12_0,NA,NA,completion,14098.98,154265,154263.04,154279.56,168378.54,168379,2023-03-27T10:08:37Z,168395.74,Toleranz,kuvumiliana,s,maombolezo,ujasusi,mchekeshaji,NA,NA,NA,NULL,NA,NA,NA,NA,NA,NA,NA,NA,NA,NA,NA,NA,NA,NA,NA,NA,NA,NA,NA
6ecd0,task,flow.Sequence,1_12,NA,NA,completion,14098.98,154265,154263.04,154279.56,168378.54,168380,2023-03-27T10:08:37Z,168395.74,Toleranz,kuvumiliana,s,maombolezo,ujasusi,mchekeshaji,NA,NA,NA,NULL,NA,NA,NA,NA,NA,NA,NA,NA,NA,NA,NA,NA,NA,NA,NA,NA,NA,NA,NA
6ecd0,Deep Question,html.Page,1_13_0_0,NA,NA,form submission,27566.26,168380,168378.54,168395.74,195962,195963,2023-03-27T10:09:05Z,195960.72,Hoffnung,matarajio,d,kutaalamika,uratibu,mvumbuzi,makatashi,NA,NA,NULL,NA,NA,NA,NA,NA,NA,NA,NA,NA,NA,NA,NA,NA,NA,NA,NA,NA,NA,NA
6ecd0,Save data screen,canvas.Screen,1_13_0_1,NA,NA,timeout,501.72,195968,195960.42,195960.72,196445.54,196446,2023-03-27T10:09:05Z,196462.44,Hoffnung,matarajio,d,kutaalamika,uratibu,mvumbuzi,NA,NA,0,NULL,NA,NA,NA,NA,NA,NA,NA,NA,NA,NA,NA,NA,NA,NA,NA,NA,NA,NA,NA
6ecd0,deep,flow.Sequence,1_13_0,NA,NA,completion,28049.8,168380,168378.54,168395.74,196445.54,196447,2023-03-27T10:09:05Z,196462.44,Hoffnung,matarajio,d,kutaalamika,uratibu,mvumbuzi,NA,NA,NA,NULL,NA,NA,NA,NA,NA,NA,NA,NA,NA,NA,NA,NA,NA,NA,NA,NA,NA,NA,NA
6ecd0,task,flow.Sequence,1_13,NA,NA,completion,28049.8,168380,168378.54,168395.74,196445.54,196447,2023-03-27T10:09:05Z,196462.44,Hoffnung,matarajio,d,kutaalamika,uratibu,mvumbuzi,NA,NA,NA,NULL,NA,NA,NA,NA,NA,NA,NA,NA,NA,NA,NA,NA,NA,NA,NA,NA,NA,NA,NA
6ecd0,Deep Question,html.Page,1_14_0_0,NA,NA,form submission,13602.56,196448,196445.54,196462.44,210065,210065,2023-03-27T10:09:19Z,210063.64,Theorie,nadharia,s,ushungi,mkutano,uwakilishi,makatashi,NA,NA,NULL,NA,NA,NA,NA,NA,NA,NA,NA,NA,NA,NA,NA,NA,NA,NA,NA,NA,NA,NA
6ecd0,Save data screen,canvas.Screen,1_14_0_1,NA,NA,timeout,498.53999999998,210066,210063.34,210063.64,210544.44,210545,2023-03-27T10:09:20Z,210562.18,Theorie,nadharia,s,ushungi,mkutano,uwakilishi,NA,NA,0,NULL,NA,NA,NA,NA,NA,NA,NA,NA,NA,NA,NA,NA,NA,NA,NA,NA,NA,NA,NA
6ecd0,deep,flow.Sequence,1_14_0,NA,NA,completion,14082,196447,196445.54,196462.44,210544.44,210546,2023-03-27T10:09:20Z,210562.18,Theorie,nadharia,s,ushungi,mkutano,uwakilishi,NA,NA,NA,NULL,NA,NA,NA,NA,NA,NA,NA,NA,NA,NA,NA,NA,NA,NA,NA,NA,NA,NA,NA
6ecd0,task,flow.Sequence,1_14,NA,NA,completion,14082,196447,196445.54,196462.44,210544.44,210547,2023-03-27T10:09:20Z,210562.18,Theorie,nadharia,s,ushungi,mkutano,uwakilishi,NA,NA,NA,NULL,NA,NA,NA,NA,NA,NA,NA,NA,NA,NA,NA,NA,NA,NA,NA,NA,NA,NA,NA
6ecd0,Deep Question,html.Page,1_15_0_0,NA,NA,form submission,2761.82,210547,210544.44,210562.18,213324,213324,2023-03-27T10:09:22Z,213327.8,Wohlstand,mafanikio,s,chimbuko,kumbuko,mapwaji,adhini,NA,NA,NULL,NA,NA,NA,NA,NA,NA,NA,NA,NA,NA,NA,NA,NA,NA,NA,NA,NA,NA,NA
6ecd0,Save data screen,canvas.Screen,1_15_0_1,NA,NA,timeout,501.08000000002,213326,213323.68,213327.8,213811.32,213812,2023-03-27T10:09:23Z,213828.88,Wohlstand,mafanikio,s,chimbuko,kumbuko,mapwaji,NA,NA,0,NULL,NA,NA,NA,NA,NA,NA,NA,NA,NA,NA,NA,NA,NA,NA,NA,NA,NA,NA,NA
6ecd0,deep,flow.Sequence,1_15_0,NA,NA,completion,3249.14,210547,210544.44,210562.18,213811.32,213812,2023-03-27T10:09:23Z,213828.88,Wohlstand,mafanikio,s,chimbuko,kumbuko,mapwaji,NA,NA,NA,NULL,NA,NA,NA,NA,NA,NA,NA,NA,NA,NA,NA,NA,NA,NA,NA,NA,NA,NA,NA
6ecd0,task,flow.Sequence,1_15,NA,NA,completion,3249.14,210547,210544.44,210562.18,213811.32,213813,2023-03-27T10:09:23Z,213828.88,Wohlstand,mafanikio,s,chimbuko,kumbuko,mapwaji,NA,NA,NA,NULL,NA,NA,NA,NA,NA,NA,NA,NA,NA,NA,NA,NA,NA,NA,NA,NA,NA,NA,NA
6ecd0,retrieval block 1 (cued recall),flow.Loop,1,NA,NA,completion,195282.82,18527,18528.14,18528.5,213811.32,213813,2023-03-27T10:09:23Z,213828.88,NA,NA,NA,NA,NA,NA,NA,NA,NA,NULL,NA,NA,NA,NA,NA,NA,NA,NA,NA,NA,NA,NA,NA,NA,NA,NA,NA,NA,NA
6ecd0,Shallow Question,html.Page,2_0_0_0,NA,NA,form submission,7427.12,213813,213811.32,213828.88,221256,221256,2023-03-27T10:09:30Z,221260.98,Fenster,dirisha,s,walakini,tasawari,maarifa,dirisha,NA,NA,"c(""distractor1"", ""distractor2"", ""distractor3"")",NA,NA,NA,NA,NA,NA,NA,NA,NA,NA,NA,NA,NA,NA,NA,NA,NA,NA,NA
6ecd0,Save data screen,canvas.Screen,2_0_0_1,NA,NA,timeout,500.31999999998,221258,221254.34,221260.98,221745.42,221746,2023-03-27T10:09:31Z,221761.3,Fenster,dirisha,s,walakini,tasawari,maarifa,NA,NA,1,"c(""distractor1"", ""distractor2"", ""distractor3"")",NA,NA,NA,NA,NA,NA,NA,NA,NA,NA,NA,NA,NA,NA,NA,NA,NA,NA,NA
6ecd0,shallow,flow.Sequence,2_0_0,NA,NA,completion,7916.54,213813,213811.32,213828.88,221745.42,221747,2023-03-27T10:09:31Z,221761.3,Fenster,dirisha,s,walakini,tasawari,maarifa,NA,NA,NA,"c(""distractor1"", ""distractor2"", ""distractor3"")",NA,NA,NA,NA,NA,NA,NA,NA,NA,NA,NA,NA,NA,NA,NA,NA,NA,NA,NA
6ecd0,task,flow.Sequence,2_0,NA,NA,completion,7916.54,213813,213811.32,213828.88,221745.42,221747,2023-03-27T10:09:31Z,221761.3,Fenster,dirisha,s,walakini,tasawari,maarifa,NA,NA,NA,"c(""distractor1"", ""distractor2"", ""distractor3"")",NA,NA,NA,NA,NA,NA,NA,NA,NA,NA,NA,NA,NA,NA,NA,NA,NA,NA,NA
6ecd0,Shallow Question,html.Page,2_1_0_0,NA,NA,form submission,6701.7,221747,221745.42,221761.3,228463,228464,2023-03-27T10:09:37Z,228460.82,Wohlstand,mafanikio,s,chimbuko,kumbuko,mapwaji,mafanikio,NA,NA,"c(""distractor1"", ""distractor2"", ""distractor3"")",NA,NA,NA,NA,NA,NA,NA,NA,NA,NA,NA,NA,NA,NA,NA,NA,NA,NA,NA
6ecd0,Save data screen,canvas.Screen,2_1_0_1,NA,NA,timeout,501.01999999999,228467,228459.86,228460.82,228944.98,228946,2023-03-27T10:09:38Z,228961.84,Wohlstand,mafanikio,s,chimbuko,kumbuko,mapwaji,NA,NA,1,"c(""distractor1"", ""distractor2"", ""distractor3"")",NA,NA,NA,NA,NA,NA,NA,NA,NA,NA,NA,NA,NA,NA,NA,NA,NA,NA,NA
6ecd0,shallow,flow.Sequence,2_1_0,NA,NA,completion,7183.68,221747,221745.42,221761.3,228944.98,228947,2023-03-27T10:09:38Z,228961.84,Wohlstand,mafanikio,s,chimbuko,kumbuko,mapwaji,NA,NA,NA,"c(""distractor1"", ""distractor2"", ""distractor3"")",NA,NA,NA,NA,NA,NA,NA,NA,NA,NA,NA,NA,NA,NA,NA,NA,NA,NA,NA
6ecd0,task,flow.Sequence,2_1,NA,NA,completion,7183.68,221747,221745.42,221761.3,228944.98,228947,2023-03-27T10:09:38Z,228961.84,Wohlstand,mafanikio,s,chimbuko,kumbuko,mapwaji,NA,NA,NA,"c(""distractor1"", ""distractor2"", ""distractor3"")",NA,NA,NA,NA,NA,NA,NA,NA,NA,NA,NA,NA,NA,NA,NA,NA,NA,NA,NA
6ecd0,Shallow Question,html.Page,2_2_0_0,NA,NA,form submission,4558.16,228947,228944.98,228961.84,233520,233520,2023-03-27T10:09:42Z,233527.48,Vermutung,udhanifu,d,haramia,tikisho,itifaki,udhanifu,NA,NA,"c(""distractor1"", ""distractor2"", ""distractor3"")",NA,NA,NA,NA,NA,NA,NA,NA,NA,NA,NA,NA,NA,NA,NA,NA,NA,NA,NA
6ecd0,Save data screen,canvas.Screen,2_2_0_1,NA,NA,timeout,500,233522,233517.96,233527.48,234011.92,234013,2023-03-27T10:09:43Z,234027.48,Vermutung,udhanifu,d,haramia,tikisho,itifaki,NA,NA,1,"c(""distractor1"", ""distractor2"", ""distractor3"")",NA,NA,NA,NA,NA,NA,NA,NA,NA,NA,NA,NA,NA,NA,NA,NA,NA,NA,NA
6ecd0,shallow,flow.Sequence,2_2_0,NA,NA,completion,5050.08,228947,228944.98,228961.84,234011.92,234014,2023-03-27T10:09:43Z,234027.48,Vermutung,udhanifu,d,haramia,tikisho,itifaki,NA,NA,NA,"c(""distractor1"", ""distractor2"", ""distractor3"")",NA,NA,NA,NA,NA,NA,NA,NA,NA,NA,NA,NA,NA,NA,NA,NA,NA,NA,NA
6ecd0,task,flow.Sequence,2_2,NA,NA,completion,5050.08,228947,228944.98,228961.84,234011.92,234014,2023-03-27T10:09:43Z,234027.48,Vermutung,udhanifu,d,haramia,tikisho,itifaki,NA,NA,NA,"c(""distractor1"", ""distractor2"", ""distractor3"")",NA,NA,NA,NA,NA,NA,NA,NA,NA,NA,NA,NA,NA,NA,NA,NA,NA,NA,NA
6ecd0,Shallow Question,html.Page,2_3_0_0,NA,NA,form submission,4642.52,234014,234011.92,234027.48,238670,238671,2023-03-27T10:09:48Z,238677.4,Notfall,dharura,d,rairai,malalamiko,ahueni,malalamiko,NA,NA,"c(""distractor1"", ""distractor2"", ""distractor3"")",NA,NA,NA,NA,NA,NA,NA,NA,NA,NA,NA,NA,NA,NA,NA,NA,NA,NA,NA
6ecd0,Save data screen,canvas.Screen,2_3_0_1,NA,NA,timeout,501.14000000001,238672,238668.34,238677.4,239161.72,239163,2023-03-27T10:09:48Z,239178.54,Notfall,dharura,d,rairai,malalamiko,ahueni,NA,NA,0,"c(""distractor1"", ""distractor2"", ""distractor3"")",NA,NA,NA,NA,NA,NA,NA,NA,NA,NA,NA,NA,NA,NA,NA,NA,NA,NA,NA
6ecd0,shallow,flow.Sequence,2_3_0,NA,NA,completion,5134.24,234014,234011.92,234027.48,239161.72,239163,2023-03-27T10:09:48Z,239178.54,Notfall,dharura,d,rairai,malalamiko,ahueni,NA,NA,NA,"c(""distractor1"", ""distractor2"", ""distractor3"")",NA,NA,NA,NA,NA,NA,NA,NA,NA,NA,NA,NA,NA,NA,NA,NA,NA,NA,NA
6ecd0,task,flow.Sequence,2_3,NA,NA,completion,5134.24,234014,234011.92,234027.48,239161.72,239164,2023-03-27T10:09:48Z,239178.54,Notfall,dharura,d,rairai,malalamiko,ahueni,NA,NA,NA,"c(""distractor1"", ""distractor2"", ""distractor3"")",NA,NA,NA,NA,NA,NA,NA,NA,NA,NA,NA,NA,NA,NA,NA,NA,NA,NA,NA
6ecd0,Shallow Question,html.Page,2_4_0_0,NA,NA,form submission,5929.46,239164,239161.72,239178.54,245108,245109,2023-03-27T10:09:54Z,245111.1,Inhalt,yaliyomo,d,kishawishi,hifadhi,kutembea,yaliyomo,NA,NA,"c(""distractor1"", ""distractor2"", ""distractor3"")",NA,NA,NA,NA,NA,NA,NA,NA,NA,NA,NA,NA,NA,NA,NA,NA,NA,NA,NA
6ecd0,Save data screen,canvas.Screen,2_4_0_1,NA,NA,timeout,499.89999999999,245110,245106.78,245111.1,245595.1,245596,2023-03-27T10:09:55Z,245611,Inhalt,yaliyomo,d,kishawishi,hifadhi,kutembea,NA,NA,1,"c(""distractor1"", ""distractor2"", ""distractor3"")",NA,NA,NA,NA,NA,NA,NA,NA,NA,NA,NA,NA,NA,NA,NA,NA,NA,NA,NA
6ecd0,shallow,flow.Sequence,2_4_0,NA,NA,completion,6416.56,239164,239161.72,239178.54,245595.1,245596,2023-03-27T10:09:55Z,245611,Inhalt,yaliyomo,d,kishawishi,hifadhi,kutembea,NA,NA,NA,"c(""distractor1"", ""distractor2"", ""distractor3"")",NA,NA,NA,NA,NA,NA,NA,NA,NA,NA,NA,NA,NA,NA,NA,NA,NA,NA,NA
6ecd0,task,flow.Sequence,2_4,NA,NA,completion,6416.56,239164,239161.72,239178.54,245595.1,245597,2023-03-27T10:09:55Z,245611,Inhalt,yaliyomo,d,kishawishi,hifadhi,kutembea,NA,NA,NA,"c(""distractor1"", ""distractor2"", ""distractor3"")",NA,NA,NA,NA,NA,NA,NA,NA,NA,NA,NA,NA,NA,NA,NA,NA,NA,NA,NA
6ecd0,Shallow Question,html.Page,2_5_0_0,NA,NA,form submission,5610,245597,245595.1,245611,251221,251221,2023-03-27T10:10:00Z,251227.22,Theorie,nadharia,s,ushungi,mkutano,uwakilishi,nadharia,NA,NA,"c(""distractor1"", ""distractor2"", ""distractor3"")",NA,NA,NA,NA,NA,NA,NA,NA,NA,NA,NA,NA,NA,NA,NA,NA,NA,NA,NA
6ecd0,Save data screen,canvas.Screen,2_5_0_1,NA,NA,timeout,500,251223,251218.96,251227.22,251710.96,251711,2023-03-27T10:10:01Z,251727.22,Theorie,nadharia,s,ushungi,mkutano,uwakilishi,NA,NA,1,"c(""distractor1"", ""distractor2"", ""distractor3"")",NA,NA,NA,NA,NA,NA,NA,NA,NA,NA,NA,NA,NA,NA,NA,NA,NA,NA,NA
6ecd0,shallow,flow.Sequence,2_5_0,NA,NA,completion,6099.96,245597,245595.1,245611,251710.96,251711,2023-03-27T10:10:01Z,251727.22,Theorie,nadharia,s,ushungi,mkutano,uwakilishi,NA,NA,NA,"c(""distractor1"", ""distractor2"", ""distractor3"")",NA,NA,NA,NA,NA,NA,NA,NA,NA,NA,NA,NA,NA,NA,NA,NA,NA,NA,NA
6ecd0,task,flow.Sequence,2_5,NA,NA,completion,6099.96,245597,245595.1,245611,251710.96,251711,2023-03-27T10:10:01Z,251727.22,Theorie,nadharia,s,ushungi,mkutano,uwakilishi,NA,NA,NA,"c(""distractor1"", ""distractor2"", ""distractor3"")",NA,NA,NA,NA,NA,NA,NA,NA,NA,NA,NA,NA,NA,NA,NA,NA,NA,NA,NA
6ecd0,Shallow Question,html.Page,2_6_0_0,NA,NA,form submission,3940.78,251712,251710.96,251727.22,255668,255669,2023-03-27T10:10:05Z,255677.6,Tester,wanaojaribu,d,sherti,sihiri,mlipuko,wanaojaribu,NA,NA,"c(""distractor1"", ""distractor2"", ""distractor3"")",NA,NA,NA,NA,NA,NA,NA,NA,NA,NA,NA,NA,NA,NA,NA,NA,NA,NA,NA
6ecd0,Save data screen,canvas.Screen,2_6_0_1,NA,NA,timeout,500.69999999998,255670,255666.6,255677.6,256161.56,256162,2023-03-27T10:10:05Z,256178.3,Tester,wanaojaribu,d,sherti,sihiri,mlipuko,NA,NA,1,"c(""distractor1"", ""distractor2"", ""distractor3"")",NA,NA,NA,NA,NA,NA,NA,NA,NA,NA,NA,NA,NA,NA,NA,NA,NA,NA,NA
6ecd0,shallow,flow.Sequence,2_6_0,NA,NA,completion,4434.34,251712,251710.96,251727.22,256161.56,256163,2023-03-27T10:10:05Z,256178.3,Tester,wanaojaribu,d,sherti,sihiri,mlipuko,NA,NA,NA,"c(""distractor1"", ""distractor2"", ""distractor3"")",NA,NA,NA,NA,NA,NA,NA,NA,NA,NA,NA,NA,NA,NA,NA,NA,NA,NA,NA
6ecd0,task,flow.Sequence,2_6,NA,NA,completion,4434.34,251712,251710.96,251727.22,256161.56,256163,2023-03-27T10:10:05Z,256178.3,Tester,wanaojaribu,d,sherti,sihiri,mlipuko,NA,NA,NA,"c(""distractor1"", ""distractor2"", ""distractor3"")",NA,NA,NA,NA,NA,NA,NA,NA,NA,NA,NA,NA,NA,NA,NA,NA,NA,NA,NA
6ecd0,Shallow Question,html.Page,2_7_0_0,NA,NA,form submission,5794.7,256163,256161.56,256178.3,261973,261973,2023-03-27T10:10:11Z,261977.98,Toleranz,kuvumiliana,s,maombolezo,ujasusi,mchekeshaji,kuvumiliana,NA,NA,"c(""distractor1"", ""distractor2"", ""distractor3"")",NA,NA,NA,NA,NA,NA,NA,NA,NA,NA,NA,NA,NA,NA,NA,NA,NA,NA,NA
6ecd0,Save data screen,canvas.Screen,2_7_0_1,NA,NA,timeout,499.30000000002,261975,261970.74,261977.98,262461.54,262462,2023-03-27T10:10:11Z,262477.28,Toleranz,kuvumiliana,s,maombolezo,ujasusi,mchekeshaji,NA,NA,1,"c(""distractor1"", ""distractor2"", ""distractor3"")",NA,NA,NA,NA,NA,NA,NA,NA,NA,NA,NA,NA,NA,NA,NA,NA,NA,NA,NA
6ecd0,shallow,flow.Sequence,2_7_0,NA,NA,completion,6283.24,256163,256161.56,256178.3,262461.54,262462,2023-03-27T10:10:11Z,262477.28,Toleranz,kuvumiliana,s,maombolezo,ujasusi,mchekeshaji,NA,NA,NA,"c(""distractor1"", ""distractor2"", ""distractor3"")",NA,NA,NA,NA,NA,NA,NA,NA,NA,NA,NA,NA,NA,NA,NA,NA,NA,NA,NA
6ecd0,task,flow.Sequence,2_7,NA,NA,completion,6283.24,256163,256161.56,256178.3,262461.54,262463,2023-03-27T10:10:11Z,262477.28,Toleranz,kuvumiliana,s,maombolezo,ujasusi,mchekeshaji,NA,NA,NA,"c(""distractor1"", ""distractor2"", ""distractor3"")",NA,NA,NA,NA,NA,NA,NA,NA,NA,NA,NA,NA,NA,NA,NA,NA,NA,NA,NA
6ecd0,Shallow Question,html.Page,2_8_0_0,NA,NA,form submission,3895.72,262463,262461.54,262477.28,266373,266373,2023-03-27T10:10:15Z,266377.9,Schlange,foleni,s,uvumilivu,uteuzi,muuzaji,foleni,NA,NA,"c(""distractor1"", ""distractor2"", ""distractor3"")",NA,NA,NA,NA,NA,NA,NA,NA,NA,NA,NA,NA,NA,NA,NA,NA,NA,NA,NA
6ecd0,Save data screen,canvas.Screen,2_8_0_1,NA,NA,timeout,499.59999999998,266374,266371.48,266377.9,266860.36,266861,2023-03-27T10:10:16Z,266877.5,Schlange,foleni,s,uvumilivu,uteuzi,muuzaji,NA,NA,1,"c(""distractor1"", ""distractor2"", ""distractor3"")",NA,NA,NA,NA,NA,NA,NA,NA,NA,NA,NA,NA,NA,NA,NA,NA,NA,NA,NA
6ecd0,shallow,flow.Sequence,2_8_0,NA,NA,completion,4383.08,262463,262461.54,262477.28,266860.36,266861,2023-03-27T10:10:16Z,266877.5,Schlange,foleni,s,uvumilivu,uteuzi,muuzaji,NA,NA,NA,"c(""distractor1"", ""distractor2"", ""distractor3"")",NA,NA,NA,NA,NA,NA,NA,NA,NA,NA,NA,NA,NA,NA,NA,NA,NA,NA,NA
6ecd0,task,flow.Sequence,2_8,NA,NA,completion,4383.08,262463,262461.54,262477.28,266860.36,266862,2023-03-27T10:10:16Z,266877.5,Schlange,foleni,s,uvumilivu,uteuzi,muuzaji,NA,NA,NA,"c(""distractor1"", ""distractor2"", ""distractor3"")",NA,NA,NA,NA,NA,NA,NA,NA,NA,NA,NA,NA,NA,NA,NA,NA,NA,NA,NA
6ecd0,Shallow Question,html.Page,2_9_0_0,NA,NA,form submission,8339.5,266862,266860.36,266877.5,275217,275217,2023-03-27T10:10:24Z,275227.92,Hoffnung,matarajio,d,kutaalamika,uratibu,mvumbuzi,uratibu,NA,NA,"c(""distractor1"", ""distractor2"", ""distractor3"")",NA,NA,NA,NA,NA,NA,NA,NA,NA,NA,NA,NA,NA,NA,NA,NA,NA,NA,NA
6ecd0,Save data screen,canvas.Screen,2_9_0_1,NA,NA,timeout,499.26000000001,275218,275215.2,275227.92,275710.2,275710,2023-03-27T10:10:25Z,275727.18,Hoffnung,matarajio,d,kutaalamika,uratibu,mvumbuzi,NA,NA,0,"c(""distractor1"", ""distractor2"", ""distractor3"")",NA,NA,NA,NA,NA,NA,NA,NA,NA,NA,NA,NA,NA,NA,NA,NA,NA,NA,NA
6ecd0,shallow,flow.Sequence,2_9_0,NA,NA,completion,8832.7,266862,266860.36,266877.5,275710.2,275711,2023-03-27T10:10:25Z,275727.18,Hoffnung,matarajio,d,kutaalamika,uratibu,mvumbuzi,NA,NA,NA,"c(""distractor1"", ""distractor2"", ""distractor3"")",NA,NA,NA,NA,NA,NA,NA,NA,NA,NA,NA,NA,NA,NA,NA,NA,NA,NA,NA
6ecd0,task,flow.Sequence,2_9,NA,NA,completion,8832.7,266862,266860.36,266877.5,275710.2,275711,2023-03-27T10:10:25Z,275727.18,Hoffnung,matarajio,d,kutaalamika,uratibu,mvumbuzi,NA,NA,NA,"c(""distractor1"", ""distractor2"", ""distractor3"")",NA,NA,NA,NA,NA,NA,NA,NA,NA,NA,NA,NA,NA,NA,NA,NA,NA,NA,NA
6ecd0,Shallow Question,html.Page,2_10_0_0,NA,NA,form submission,5694.82,275711,275710.2,275727.18,281422,281422,2023-03-27T10:10:30Z,281427.04,Ergänzung,kijalizo,s,ulaghai,mustarehe,matangazo,mustarehe,NA,NA,"c(""distractor1"", ""distractor2"", ""distractor3"")",NA,NA,NA,NA,NA,NA,NA,NA,NA,NA,NA,NA,NA,NA,NA,NA,NA,NA,NA
6ecd0,Save data screen,canvas.Screen,2_10_0_1,NA,NA,timeout,500.24000000005,281423,281420.8,281427.04,281911.26,281912,2023-03-27T10:10:31Z,281927.28,Ergänzung,kijalizo,s,ulaghai,mustarehe,matangazo,NA,NA,0,"c(""distractor1"", ""distractor2"", ""distractor3"")",NA,NA,NA,NA,NA,NA,NA,NA,NA,NA,NA,NA,NA,NA,NA,NA,NA,NA,NA
6ecd0,shallow,flow.Sequence,2_10_0,NA,NA,completion,6184.08,275711,275710.2,275727.18,281911.26,281912,2023-03-27T10:10:31Z,281927.28,Ergänzung,kijalizo,s,ulaghai,mustarehe,matangazo,NA,NA,NA,"c(""distractor1"", ""distractor2"", ""distractor3"")",NA,NA,NA,NA,NA,NA,NA,NA,NA,NA,NA,NA,NA,NA,NA,NA,NA,NA,NA
6ecd0,task,flow.Sequence,2_10,NA,NA,completion,6184.08,275711,275710.2,275727.18,281911.26,281912,2023-03-27T10:10:31Z,281927.28,Ergänzung,kijalizo,s,ulaghai,mustarehe,matangazo,NA,NA,NA,"c(""distractor1"", ""distractor2"", ""distractor3"")",NA,NA,NA,NA,NA,NA,NA,NA,NA,NA,NA,NA,NA,NA,NA,NA,NA,NA,NA
6ecd0,Shallow Question,html.Page,2_11_0_0,NA,NA,form submission,4241.72,281913,281911.26,281927.28,286169,286169,2023-03-27T10:10:35Z,286177.52,Verpackung,ufungaji,d,uhusiano,upimaji,uchunguzi,ufungaji,NA,NA,"c(""distractor1"", ""distractor2"", ""distractor3"")",NA,NA,NA,NA,NA,NA,NA,NA,NA,NA,NA,NA,NA,NA,NA,NA,NA,NA,NA
6ecd0,Save data screen,canvas.Screen,2_11_0_1,NA,NA,timeout,499.5,286173,286165.62,286177.52,286660.1,286661,2023-03-27T10:10:36Z,286677.02,Verpackung,ufungaji,d,uhusiano,upimaji,uchunguzi,NA,NA,1,"c(""distractor1"", ""distractor2"", ""distractor3"")",NA,NA,NA,NA,NA,NA,NA,NA,NA,NA,NA,NA,NA,NA,NA,NA,NA,NA,NA
6ecd0,shallow,flow.Sequence,2_11_0,NA,NA,completion,4732.8199999999,281913,281911.26,281927.28,286660.1,286662,2023-03-27T10:10:36Z,286677.02,Verpackung,ufungaji,d,uhusiano,upimaji,uchunguzi,NA,NA,NA,"c(""distractor1"", ""distractor2"", ""distractor3"")",NA,NA,NA,NA,NA,NA,NA,NA,NA,NA,NA,NA,NA,NA,NA,NA,NA,NA,NA
6ecd0,task,flow.Sequence,2_11,NA,NA,completion,4732.8199999999,281913,281911.26,281927.28,286660.1,286662,2023-03-27T10:10:36Z,286677.02,Verpackung,ufungaji,d,uhusiano,upimaji,uchunguzi,NA,NA,NA,"c(""distractor1"", ""distractor2"", ""distractor3"")",NA,NA,NA,NA,NA,NA,NA,NA,NA,NA,NA,NA,NA,NA,NA,NA,NA,NA,NA
6ecd0,Shallow Question,html.Page,2_12_0_0,NA,NA,form submission,5016.98,286663,286660.1,286677.02,291694,291694,2023-03-27T10:10:41Z,291693.76,Schüler,mwanafunzi,d,mwekezaji,matumizi,uaminifu,mwanafunzi,NA,NA,"c(""distractor1"", ""distractor2"", ""distractor3"")",NA,NA,NA,NA,NA,NA,NA,NA,NA,NA,NA,NA,NA,NA,NA,NA,NA,NA,NA
6ecd0,Save data screen,canvas.Screen,2_12_0_1,NA,NA,timeout,499.76000000001,291696,291691.14,291693.76,292177.7,292180,2023-03-27T10:10:41Z,292193.52,Schüler,mwanafunzi,d,mwekezaji,matumizi,uaminifu,NA,NA,1,"c(""distractor1"", ""distractor2"", ""distractor3"")",NA,NA,NA,NA,NA,NA,NA,NA,NA,NA,NA,NA,NA,NA,NA,NA,NA,NA,NA
6ecd0,shallow,flow.Sequence,2_12_0,NA,NA,completion,5500.68,286663,286660.1,286677.02,292177.7,292181,2023-03-27T10:10:41Z,292193.52,Schüler,mwanafunzi,d,mwekezaji,matumizi,uaminifu,NA,NA,NA,"c(""distractor1"", ""distractor2"", ""distractor3"")",NA,NA,NA,NA,NA,NA,NA,NA,NA,NA,NA,NA,NA,NA,NA,NA,NA,NA,NA
6ecd0,task,flow.Sequence,2_12,NA,NA,completion,5500.68,286662,286660.1,286677.02,292177.7,292181,2023-03-27T10:10:41Z,292193.52,Schüler,mwanafunzi,d,mwekezaji,matumizi,uaminifu,NA,NA,NA,"c(""distractor1"", ""distractor2"", ""distractor3"")",NA,NA,NA,NA,NA,NA,NA,NA,NA,NA,NA,NA,NA,NA,NA,NA,NA,NA,NA
6ecd0,Shallow Question,html.Page,2_13_0_0,NA,NA,form submission,4525.48,292181,292177.7,292193.52,296719,296720,2023-03-27T10:10:46Z,296726.76,Spionage,upelelezi,s,maslahi,utokazo,magangao,upelelezi,NA,NA,"c(""distractor1"", ""distractor2"", ""distractor3"")",NA,NA,NA,NA,NA,NA,NA,NA,NA,NA,NA,NA,NA,NA,NA,NA,NA,NA,NA
6ecd0,Save data screen,canvas.Screen,2_13_0_1,NA,NA,timeout,500.95999999996,296721,296717.18,296726.76,297210.86,297212,2023-03-27T10:10:46Z,297227.72,Spionage,upelelezi,s,maslahi,utokazo,magangao,NA,NA,1,"c(""distractor1"", ""distractor2"", ""distractor3"")",NA,NA,NA,NA,NA,NA,NA,NA,NA,NA,NA,NA,NA,NA,NA,NA,NA,NA,NA
6ecd0,shallow,flow.Sequence,2_13_0,NA,NA,completion,5017.34,292181,292177.7,292193.52,297210.86,297213,2023-03-27T10:10:46Z,297227.72,Spionage,upelelezi,s,maslahi,utokazo,magangao,NA,NA,NA,"c(""distractor1"", ""distractor2"", ""distractor3"")",NA,NA,NA,NA,NA,NA,NA,NA,NA,NA,NA,NA,NA,NA,NA,NA,NA,NA,NA
6ecd0,task,flow.Sequence,2_13,NA,NA,completion,5017.34,292181,292177.7,292193.52,297210.86,297213,2023-03-27T10:10:46Z,297227.72,Spionage,upelelezi,s,maslahi,utokazo,magangao,NA,NA,NA,"c(""distractor1"", ""distractor2"", ""distractor3"")",NA,NA,NA,NA,NA,NA,NA,NA,NA,NA,NA,NA,NA,NA,NA,NA,NA,NA,NA
6ecd0,Shallow Question,html.Page,2_14_0_0,NA,NA,form submission,6209.28,297213,297210.86,297227.72,303437,303438,2023-03-27T10:10:52Z,303443.14,Vergnügen,kichekesho,d,dubwana,mpanuko,mtesaji,kichekesho,NA,NA,"c(""distractor1"", ""distractor2"", ""distractor3"")",NA,NA,NA,NA,NA,NA,NA,NA,NA,NA,NA,NA,NA,NA,NA,NA,NA,NA,NA
6ecd0,Save data screen,canvas.Screen,2_14_0_1,NA,NA,timeout,501.15999999997,303439,303436.1,303443.14,303926.76,303928,2023-03-27T10:10:53Z,303944.3,Vergnügen,kichekesho,d,dubwana,mpanuko,mtesaji,NA,NA,1,"c(""distractor1"", ""distractor2"", ""distractor3"")",NA,NA,NA,NA,NA,NA,NA,NA,NA,NA,NA,NA,NA,NA,NA,NA,NA,NA,NA
6ecd0,shallow,flow.Sequence,2_14_0,NA,NA,completion,6699.04,297213,297210.86,297227.72,303926.76,303928,2023-03-27T10:10:53Z,303944.3,Vergnügen,kichekesho,d,dubwana,mpanuko,mtesaji,NA,NA,NA,"c(""distractor1"", ""distractor2"", ""distractor3"")",NA,NA,NA,NA,NA,NA,NA,NA,NA,NA,NA,NA,NA,NA,NA,NA,NA,NA,NA
6ecd0,task,flow.Sequence,2_14,NA,NA,completion,6699.04,297213,297210.86,297227.72,303926.76,303929,2023-03-27T10:10:53Z,303944.3,Vergnügen,kichekesho,d,dubwana,mpanuko,mtesaji,NA,NA,NA,"c(""distractor1"", ""distractor2"", ""distractor3"")",NA,NA,NA,NA,NA,NA,NA,NA,NA,NA,NA,NA,NA,NA,NA,NA,NA,NA,NA
6ecd0,Shallow Question,html.Page,2_15_0_0,NA,NA,form submission,4870.7,303930,303926.76,303944.3,308815,308816,2023-03-27T10:10:58Z,308827.36,Schock,mshtuko,s,biashara,kukataza,vichekesho,mshtuko,NA,NA,"c(""distractor1"", ""distractor2"", ""distractor3"")",NA,NA,NA,NA,NA,NA,NA,NA,NA,NA,NA,NA,NA,NA,NA,NA,NA,NA,NA
6ecd0,Save data screen,canvas.Screen,2_15_0_1,NA,NA,timeout,499.20000000001,308817,308814.12,308827.36,309310.52,309311,2023-03-27T10:10:58Z,309326.56,Schock,mshtuko,s,biashara,kukataza,vichekesho,NA,NA,1,"c(""distractor1"", ""distractor2"", ""distractor3"")",NA,NA,NA,NA,NA,NA,NA,NA,NA,NA,NA,NA,NA,NA,NA,NA,NA,NA,NA
6ecd0,shallow,flow.Sequence,2_15_0,NA,NA,completion,5366.22,303929,303926.76,303944.3,309310.52,309312,2023-03-27T10:10:58Z,309326.56,Schock,mshtuko,s,biashara,kukataza,vichekesho,NA,NA,NA,"c(""distractor1"", ""distractor2"", ""distractor3"")",NA,NA,NA,NA,NA,NA,NA,NA,NA,NA,NA,NA,NA,NA,NA,NA,NA,NA,NA
6ecd0,task,flow.Sequence,2_15,NA,NA,completion,5366.22,303929,303926.76,303944.3,309310.52,309312,2023-03-27T10:10:58Z,309326.56,Schock,mshtuko,s,biashara,kukataza,vichekesho,NA,NA,NA,"c(""distractor1"", ""distractor2"", ""distractor3"")",NA,NA,NA,NA,NA,NA,NA,NA,NA,NA,NA,NA,NA,NA,NA,NA,NA,NA,NA
6ecd0,retrieval block 2 (multiple choice),flow.Loop,2,NA,NA,completion,95481.64,213813,213811.32,213828.88,309310.52,309313,2023-03-27T10:10:58Z,309326.56,NA,NA,NA,NA,NA,NA,NA,NA,NA,"c(""distractor1"", ""distractor2"", ""distractor3"")",NA,NA,NA,NA,NA,NA,NA,NA,NA,NA,NA,NA,NA,NA,NA,NA,NA,NA,NA
6ecd0,End,canvas.Screen,3,NA,keypress(Space),response,1777.44,309313,309310.52,309326.56,311104,311109,2023-03-27T10:11:00Z,311110.56,NA,NA,NA,NA,NA,NA,NA,NA,NA,NULL,NA,NA,NA,NA,NA,NA,NA,NA,NA,NA,NA,NA,NA,NA,NA,NA,NA,NA,NA
6ecd0,root,flow.Sequence,NA,NA,NA,completion,310006.7,989,1030.7,1097.3,311104,311110,2023-03-27T10:11:00Z,311110.56,NA,NA,NA,NA,NA,NA,NA,NA,NA,NULL,NA,NA,NA,NA,NA,NA,NA,NA,NA,NA,NA,NA,NA,NA,NA,NA,NA,NA,NA