observation,sender,sender_type,sender_id,response,response_action,ended_on,duration,time_run,time_render,time_show,time_end,time_commit,timestamp,time_switch,distractors,german,swahili,enc,distractor1,distractor2,distractor3,response_2,x,correct,x_2,url_vp,url_sess,meta_labjs_version,meta_location,meta_user_agent,meta_platform,meta_language,meta_locale,meta_time_zone,meta_timezone_offset,meta_screen_width,meta_screen_height,meta_scroll_width,meta_scroll_height,meta_window_inner_width,meta_window_inner_height,meta_device_pixel_ratio,meta_labjs_build_flavor,meta_labjs_build_commit
868000000000,Introduction general,canvas.Screen,0,weiter,keypress(q),response,48492.16,315,315.28,331.84,48824,48834,2023-03-24T15:50:28Z,48836.22,NULL,NA,NA,NA,NA,NA,NA,NA,NA,NA,NA,121,1,20.2.4,https://neurocog.fernuni.ch/studies/vweber/encoding_immediate/index.html?vp=121&sess=1,Mozilla/5.0 (Macintosh; Intel Mac OS X 10.15; rv:109.0) Gecko/20100101 Firefox/111.0,MacIntel,de,de,Europe/Zurich,-60,1440,900,1440,714,1440,762,2,production,f5b4a49f956347addd546a832a3327688c2c0fef
868000000000,Introduction practice,canvas.Screen,1_0,NA,keypress(Space),response,8411.78,48836,48835.9,48836.22,57248,57253,2023-03-24T15:50:36Z,57254.46,NULL,NA,NA,NA,NA,NA,NA,NA,NA,NA,NA,NA,NA,NA,NA,NA,NA,NA,NA,NA,NA,NA,NA,NA,NA,NA,NA,NA,NA,NA
868000000000,deep,flow.Sequence,1_1_0_0,NA,NA,skipped,NA,57253,NA,NA,57248,57253,2023-03-24T15:50:36Z,57254.46,"c(""distractor1"", ""distractor2"", ""distractor3"")",Gegenwart,hadhara,s,katiba,jokofu,mikopo,NA,NA,NA,NA,NA,NA,NA,NA,NA,NA,NA,NA,NA,NA,NA,NA,NA,NA,NA,NA,NA,NA,NA
868000000000,Shallow Question,html.Page,1_1_0_1_0,NA,NA,form submission,13405.54,57254,57254.18,57254.46,70660,70661,2023-03-24T15:50:50Z,70655.72,"c(""distractor1"", ""distractor2"", ""distractor3"")",Gegenwart,hadhara,s,katiba,jokofu,mikopo,hadhara,NA,NA,NA,NA,NA,NA,NA,NA,NA,NA,NA,NA,NA,NA,NA,NA,NA,NA,NA,NA,NA,NA
868000000000,"""Richtig""-Screen",canvas.Screen,1_1_0_1_1,NA,NA,timeout,5007.94,70667,70655.66,70655.72,75646.52,75649,2023-03-24T15:50:55Z,75663.66,"c(""distractor1"", ""distractor2"", ""distractor3"")",Gegenwart,hadhara,s,katiba,jokofu,mikopo,NA,NA,1,NA,NA,NA,NA,NA,NA,NA,NA,NA,NA,NA,NA,NA,NA,NA,NA,NA,NA,NA,NA
868000000000,"""Falsch""-Screen",canvas.Screen,1_1_0_1_2,NA,NA,skipped,NA,75652,NA,NA,75646.52,75653,2023-03-24T15:50:55Z,75663.66,"c(""distractor1"", ""distractor2"", ""distractor3"")",Gegenwart,hadhara,s,katiba,jokofu,mikopo,NA,NA,NA,NA,NA,NA,NA,NA,NA,NA,NA,NA,NA,NA,NA,NA,NA,NA,NA,NA,NA,NA,NA
868000000000,shallow,flow.Sequence,1_1_0_1,NA,NA,completion,18392.06,57254,57254.18,57254.46,75646.52,75653,2023-03-24T15:50:55Z,75663.66,"c(""distractor1"", ""distractor2"", ""distractor3"")",Gegenwart,hadhara,s,katiba,jokofu,mikopo,NA,NA,NA,NA,NA,NA,NA,NA,NA,NA,NA,NA,NA,NA,NA,NA,NA,NA,NA,NA,NA,NA,NA
868000000000,task,flow.Sequence,1_1_0,NA,NA,completion,18392.06,57253,57254.18,57254.46,75646.52,75653,2023-03-24T15:50:55Z,75663.66,"c(""distractor1"", ""distractor2"", ""distractor3"")",Gegenwart,hadhara,s,katiba,jokofu,mikopo,NA,NA,NA,NA,NA,NA,NA,NA,NA,NA,NA,NA,NA,NA,NA,NA,NA,NA,NA,NA,NA,NA,NA
868000000000,deep,flow.Sequence,1_1_1_0,NA,NA,skipped,NA,75654,NA,NA,75646.52,75654,2023-03-24T15:50:55Z,75663.66,"c(""distractor1"", ""distractor2"", ""distractor3"")",Kritik,lawama,s,dereva,nafasi,mawazo,NA,NA,NA,NA,NA,NA,NA,NA,NA,NA,NA,NA,NA,NA,NA,NA,NA,NA,NA,NA,NA,NA,NA
868000000000,Shallow Question,html.Page,1_1_1_1_0,NA,NA,form submission,6817.34,75654,75646.52,75663.66,82481,82482,2023-03-24T15:51:01Z,82486.76,"c(""distractor1"", ""distractor2"", ""distractor3"")",Kritik,lawama,s,dereva,nafasi,mawazo,mawazo,NA,NA,NA,NA,NA,NA,NA,NA,NA,NA,NA,NA,NA,NA,NA,NA,NA,NA,NA,NA,NA,NA
868000000000,"""Richtig""-Screen",canvas.Screen,1_1_1_1_1,NA,NA,skipped,NA,82484,NA,NA,82481,82484,2023-03-24T15:51:01Z,82486.76,"c(""distractor1"", ""distractor2"", ""distractor3"")",Kritik,lawama,s,dereva,nafasi,mawazo,NA,NA,NA,NA,NA,NA,NA,NA,NA,NA,NA,NA,NA,NA,NA,NA,NA,NA,NA,NA,NA,NA,NA
868000000000,"""Falsch""-Screen",canvas.Screen,1_1_1_1_2,NA,NA,timeout,5001.36,82486,82479.38,82486.76,87471.2,87471,2023-03-24T15:51:06Z,87488.12,"c(""distractor1"", ""distractor2"", ""distractor3"")",Kritik,lawama,s,dereva,nafasi,mawazo,NA,NA,0,NA,NA,NA,NA,NA,NA,NA,NA,NA,NA,NA,NA,NA,NA,NA,NA,NA,NA,NA,NA
868000000000,shallow,flow.Sequence,1_1_1_1,NA,NA,completion,11807.54,75654,75646.52,75663.66,87471.2,87472,2023-03-24T15:51:06Z,87488.12,"c(""distractor1"", ""distractor2"", ""distractor3"")",Kritik,lawama,s,dereva,nafasi,mawazo,NA,NA,NA,NA,NA,NA,NA,NA,NA,NA,NA,NA,NA,NA,NA,NA,NA,NA,NA,NA,NA,NA,NA
868000000000,task,flow.Sequence,1_1_1,NA,NA,completion,11807.54,75654,75646.52,75663.66,87471.2,87472,2023-03-24T15:51:06Z,87488.12,"c(""distractor1"", ""distractor2"", ""distractor3"")",Kritik,lawama,s,dereva,nafasi,mawazo,NA,NA,NA,NA,NA,NA,NA,NA,NA,NA,NA,NA,NA,NA,NA,NA,NA,NA,NA,NA,NA,NA,NA
868000000000,deep,flow.Sequence,1_1_2_0,NA,NA,skipped,NA,87472,NA,NA,87471.2,87472,2023-03-24T15:51:06Z,87488.12,"c(""distractor1"", ""distractor2"", ""distractor3"")",Rückhalt,msaada,s,muhula,auwali,kiwimbe,NA,NA,NA,NA,NA,NA,NA,NA,NA,NA,NA,NA,NA,NA,NA,NA,NA,NA,NA,NA,NA,NA,NA
868000000000,Shallow Question,html.Page,1_1_2_1_0,NA,NA,form submission,5564.88,87472,87471.2,87488.12,93053,93053,2023-03-24T15:51:12Z,93058.26,"c(""distractor1"", ""distractor2"", ""distractor3"")",Rückhalt,msaada,s,muhula,auwali,kiwimbe,muhula,NA,NA,NA,NA,NA,NA,NA,NA,NA,NA,NA,NA,NA,NA,NA,NA,NA,NA,NA,NA,NA,NA
868000000000,"""Richtig""-Screen",canvas.Screen,1_1_2_1_1,NA,NA,skipped,NA,93055,NA,NA,93053,93055,2023-03-24T15:51:12Z,93058.26,"c(""distractor1"", ""distractor2"", ""distractor3"")",Rückhalt,msaada,s,muhula,auwali,kiwimbe,NA,NA,NA,NA,NA,NA,NA,NA,NA,NA,NA,NA,NA,NA,NA,NA,NA,NA,NA,NA,NA,NA,NA
868000000000,"""Falsch""-Screen",canvas.Screen,1_1_2_1_2,NA,NA,timeout,5003.1,93058,93050.48,93058.26,98044.66,98046,2023-03-24T15:51:17Z,98061.36,"c(""distractor1"", ""distractor2"", ""distractor3"")",Rückhalt,msaada,s,muhula,auwali,kiwimbe,NA,NA,0,NA,NA,NA,NA,NA,NA,NA,NA,NA,NA,NA,NA,NA,NA,NA,NA,NA,NA,NA,NA
868000000000,shallow,flow.Sequence,1_1_2_1,NA,NA,completion,10556.54,87472,87471.2,87488.12,98044.66,98046,2023-03-24T15:51:17Z,98061.36,"c(""distractor1"", ""distractor2"", ""distractor3"")",Rückhalt,msaada,s,muhula,auwali,kiwimbe,NA,NA,NA,NA,NA,NA,NA,NA,NA,NA,NA,NA,NA,NA,NA,NA,NA,NA,NA,NA,NA,NA,NA
868000000000,task,flow.Sequence,1_1_2,NA,NA,completion,10556.54,87472,87471.2,87488.12,98044.66,98046,2023-03-24T15:51:17Z,98061.36,"c(""distractor1"", ""distractor2"", ""distractor3"")",Rückhalt,msaada,s,muhula,auwali,kiwimbe,NA,NA,NA,NA,NA,NA,NA,NA,NA,NA,NA,NA,NA,NA,NA,NA,NA,NA,NA,NA,NA,NA,NA
868000000000,Deep Question,html.Page,1_1_3_0_0,NA,NA,form submission,11279.64,98046,98044.66,98061.36,109341,109342,2023-03-24T15:51:28Z,109352.48,"c(""distractor1"", ""distractor2"", ""distractor3"")",Gesundheit,salama,d,NA,NA,NA,mwahala,NA,NA,NA,NA,NA,NA,NA,NA,NA,NA,NA,NA,NA,NA,NA,NA,NA,NA,NA,NA,NA,NA
868000000000,"""Richtig""-Screen",canvas.Screen,1_1_3_0_1,NA,NA,skipped,NA,109344,NA,NA,109341,109344,2023-03-24T15:51:28Z,109352.48,"c(""distractor1"", ""distractor2"", ""distractor3"")",Gesundheit,salama,d,NA,NA,NA,NA,NA,NA,NA,NA,NA,NA,NA,NA,NA,NA,NA,NA,NA,NA,NA,NA,NA,NA,NA,NA,NA,NA
868000000000,"""Falsch""-Screen",canvas.Screen,1_1_3_0_2,NA,NA,timeout,4990.16,109346,109338.96,109352.48,114327.12,114328,2023-03-24T15:51:33Z,114342.64,"c(""distractor1"", ""distractor2"", ""distractor3"")",Gesundheit,salama,d,NA,NA,NA,NA,NA,0,NA,NA,NA,NA,NA,NA,NA,NA,NA,NA,NA,NA,NA,NA,NA,NA,NA,NA,NA,NA
868000000000,deep,flow.Sequence,1_1_3_0,NA,NA,completion,16265.76,98046,98044.66,98061.36,114327.12,114330,2023-03-24T15:51:33Z,114342.64,"c(""distractor1"", ""distractor2"", ""distractor3"")",Gesundheit,salama,d,NA,NA,NA,NA,NA,NA,NA,NA,NA,NA,NA,NA,NA,NA,NA,NA,NA,NA,NA,NA,NA,NA,NA,NA,NA,NA
868000000000,shallow,flow.Sequence,1_1_3_1,NA,NA,skipped,NA,114330,NA,NA,114327.12,114330,2023-03-24T15:51:33Z,114342.64,"c(""distractor1"", ""distractor2"", ""distractor3"")",Gesundheit,salama,d,NA,NA,NA,NA,NA,NA,NA,NA,NA,NA,NA,NA,NA,NA,NA,NA,NA,NA,NA,NA,NA,NA,NA,NA,NA,NA
868000000000,task,flow.Sequence,1_1_3,NA,NA,completion,16265.76,98046,98044.66,98061.36,114327.12,114331,2023-03-24T15:51:33Z,114342.64,"c(""distractor1"", ""distractor2"", ""distractor3"")",Gesundheit,salama,d,NA,NA,NA,NA,NA,NA,NA,NA,NA,NA,NA,NA,NA,NA,NA,NA,NA,NA,NA,NA,NA,NA,NA,NA,NA,NA
868000000000,Deep Question,html.Page,1_1_4_0_0,NA,NA,form submission,5107.36,114331,114327.12,114342.64,119450,119450,2023-03-24T15:51:38Z,119460.46,"c(""distractor1"", ""distractor2"", ""distractor3"")",Schatten,kivuli,d,NA,NA,NA,salama,NA,NA,NA,NA,NA,NA,NA,NA,NA,NA,NA,NA,NA,NA,NA,NA,NA,NA,NA,NA,NA,NA
868000000000,"""Richtig""-Screen",canvas.Screen,1_1_4_0_1,NA,NA,skipped,NA,119454,NA,NA,119450,119454,2023-03-24T15:51:38Z,119460.46,"c(""distractor1"", ""distractor2"", ""distractor3"")",Schatten,kivuli,d,NA,NA,NA,NA,NA,NA,NA,NA,NA,NA,NA,NA,NA,NA,NA,NA,NA,NA,NA,NA,NA,NA,NA,NA,NA,NA
868000000000,"""Falsch""-Screen",canvas.Screen,1_1_4_0_2,NA,NA,timeout,4994.94,119457,119446.76,119460.46,124439.76,124440,2023-03-24T15:51:43Z,124455.4,"c(""distractor1"", ""distractor2"", ""distractor3"")",Schatten,kivuli,d,NA,NA,NA,NA,NA,0,NA,NA,NA,NA,NA,NA,NA,NA,NA,NA,NA,NA,NA,NA,NA,NA,NA,NA,NA,NA
868000000000,deep,flow.Sequence,1_1_4_0,NA,NA,completion,10097.12,114331,114327.12,114342.64,124439.76,124441,2023-03-24T15:51:43Z,124455.4,"c(""distractor1"", ""distractor2"", ""distractor3"")",Schatten,kivuli,d,NA,NA,NA,NA,NA,NA,NA,NA,NA,NA,NA,NA,NA,NA,NA,NA,NA,NA,NA,NA,NA,NA,NA,NA,NA,NA
868000000000,shallow,flow.Sequence,1_1_4_1,NA,NA,skipped,NA,124441,NA,NA,124439.76,124442,2023-03-24T15:51:43Z,124455.4,"c(""distractor1"", ""distractor2"", ""distractor3"")",Schatten,kivuli,d,NA,NA,NA,NA,NA,NA,NA,NA,NA,NA,NA,NA,NA,NA,NA,NA,NA,NA,NA,NA,NA,NA,NA,NA,NA,NA
868000000000,task,flow.Sequence,1_1_4,NA,NA,completion,10097.12,114331,114327.12,114342.64,124439.76,124442,2023-03-24T15:51:43Z,124455.4,"c(""distractor1"", ""distractor2"", ""distractor3"")",Schatten,kivuli,d,NA,NA,NA,NA,NA,NA,NA,NA,NA,NA,NA,NA,NA,NA,NA,NA,NA,NA,NA,NA,NA,NA,NA,NA,NA,NA
868000000000,Deep Question,html.Page,1_1_5_0_0,NA,NA,form submission,4360.6,124442,124439.76,124455.4,128816,128817,2023-03-24T15:51:48Z,128828.88,"c(""distractor1"", ""distractor2"", ""distractor3"")",Qualität,mtindo,d,NA,NA,NA,kivuli,NA,NA,NA,NA,NA,NA,NA,NA,NA,NA,NA,NA,NA,NA,NA,NA,NA,NA,NA,NA,NA,NA
868000000000,"""Richtig""-Screen",canvas.Screen,1_1_5_0_1,NA,NA,skipped,NA,128819,NA,NA,128816,128819,2023-03-24T15:51:48Z,128828.88,"c(""distractor1"", ""distractor2"", ""distractor3"")",Qualität,mtindo,d,NA,NA,NA,NA,NA,NA,NA,NA,NA,NA,NA,NA,NA,NA,NA,NA,NA,NA,NA,NA,NA,NA,NA,NA,NA,NA
868000000000,"""Falsch""-Screen",canvas.Screen,1_1_5_0_2,NA,NA,timeout,4992.06,128821,128813.78,128828.88,133805.24,133806,2023-03-24T15:51:53Z,133820.94,"c(""distractor1"", ""distractor2"", ""distractor3"")",Qualität,mtindo,d,NA,NA,NA,NA,NA,0,NA,NA,NA,NA,NA,NA,NA,NA,NA,NA,NA,NA,NA,NA,NA,NA,NA,NA,NA,NA
868000000000,deep,flow.Sequence,1_1_5_0,NA,NA,completion,9349.84,124442,124439.76,124455.4,133805.24,133806,2023-03-24T15:51:53Z,133820.94,"c(""distractor1"", ""distractor2"", ""distractor3"")",Qualität,mtindo,d,NA,NA,NA,NA,NA,NA,NA,NA,NA,NA,NA,NA,NA,NA,NA,NA,NA,NA,NA,NA,NA,NA,NA,NA,NA,NA
868000000000,shallow,flow.Sequence,1_1_5_1,NA,NA,skipped,NA,133806,NA,NA,133805.24,133806,2023-03-24T15:51:53Z,133820.94,"c(""distractor1"", ""distractor2"", ""distractor3"")",Qualität,mtindo,d,NA,NA,NA,NA,NA,NA,NA,NA,NA,NA,NA,NA,NA,NA,NA,NA,NA,NA,NA,NA,NA,NA,NA,NA,NA,NA
868000000000,task,flow.Sequence,1_1_5,NA,NA,completion,9349.84,124442,124439.76,124455.4,133805.24,133806,2023-03-24T15:51:53Z,133820.94,"c(""distractor1"", ""distractor2"", ""distractor3"")",Qualität,mtindo,d,NA,NA,NA,NA,NA,NA,NA,NA,NA,NA,NA,NA,NA,NA,NA,NA,NA,NA,NA,NA,NA,NA,NA,NA,NA,NA
868000000000,block,flow.Loop,1_1,NA,NA,completion,76550.78,57253,57254.18,57254.46,133805.24,133806,2023-03-24T15:51:53Z,133820.94,"c(""distractor1"", ""distractor2"", ""distractor3"")",NA,NA,NA,NA,NA,NA,NA,NA,NA,NA,NA,NA,NA,NA,NA,NA,NA,NA,NA,NA,NA,NA,NA,NA,NA,NA,NA,NA,NA
868000000000,Practice,flow.Sequence,1,NA,NA,completion,84969.02,48836,48835.9,48836.22,133805.24,133806,2023-03-24T15:51:53Z,133820.94,NULL,NA,NA,NA,NA,NA,NA,NA,NA,NA,NA,NA,NA,NA,NA,NA,NA,NA,NA,NA,NA,NA,NA,NA,NA,NA,NA,NA,NA,NA
868000000000,Experiment start,canvas.Screen,2,weiter,keypress(q),response,13346.06,133807,133805.24,133820.94,147167,147174,2023-03-24T15:52:06Z,147277.28,NULL,NA,NA,NA,NA,NA,NA,NA,NA,NA,NA,NA,NA,NA,NA,NA,NA,NA,NA,NA,NA,NA,NA,NA,NA,NA,NA,NA,NA,NA
868000000000,deep,flow.Sequence,3_0_0_0_0_0,NA,NA,skipped,NA,147277,NA,NA,147167,147277,2023-03-24T15:52:06Z,147277.28,NULL,Wohlstand,mafanikio,s,chimbuko,kumbuko,mapwaji,NA,sdf,NA,0,NA,NA,NA,NA,NA,NA,NA,NA,NA,NA,NA,NA,NA,NA,NA,NA,NA,NA,NA
868000000000,Shallow Question,html.Page,3_0_0_0_0_1_0,NA,NA,form submission,12258.72,147277,147277,147277.28,159536,159537,2023-03-24T15:52:19Z,159539.2,NULL,Wohlstand,mafanikio,s,chimbuko,kumbuko,mapwaji,kumbuko,NA,NA,0,NA,NA,NA,NA,NA,NA,NA,NA,NA,NA,NA,NA,NA,NA,NA,NA,NA,NA,NA
868000000000,"""Richtig""-Screen",canvas.Screen,3_0_0_0_0_1_1,NA,NA,skipped,NA,159539,NA,NA,159536,159540,2023-03-24T15:52:19Z,159539.2,NULL,Wohlstand,mafanikio,s,chimbuko,kumbuko,mapwaji,NA,sdf,NA,0,NA,NA,NA,NA,NA,NA,NA,NA,NA,NA,NA,NA,NA,NA,NA,NA,NA,NA,NA
868000000000,"""Falsch""-Screen",canvas.Screen,3_0_0_0_0_1_2,NA,NA,timeout,5004.68,159542,159533.82,159539.2,164526.94,164527,2023-03-24T15:52:23Z,164543.88,NULL,Wohlstand,mafanikio,s,chimbuko,kumbuko,mapwaji,NA,sdf,0,0,NA,NA,NA,NA,NA,NA,NA,NA,NA,NA,NA,NA,NA,NA,NA,NA,NA,NA,NA
868000000000,shallow,flow.Sequence,3_0_0_0_0_1,NA,NA,completion,17249.66,147277,147277,147277.28,164526.94,164528,2023-03-24T15:52:23Z,164543.88,NULL,Wohlstand,mafanikio,s,chimbuko,kumbuko,mapwaji,NA,sdf,NA,0,NA,NA,NA,NA,NA,NA,NA,NA,NA,NA,NA,NA,NA,NA,NA,NA,NA,NA,NA
868000000000,task,flow.Sequence,3_0_0_0_0,NA,NA,completion,17249.66,147277,147277,147277.28,164526.94,164528,2023-03-24T15:52:23Z,164543.88,NULL,Wohlstand,mafanikio,s,chimbuko,kumbuko,mapwaji,NA,sdf,NA,0,NA,NA,NA,NA,NA,NA,NA,NA,NA,NA,NA,NA,NA,NA,NA,NA,NA,NA,NA
868000000000,Deep Question,html.Page,3_0_0_0_1_0_0,NA,NA,form submission,11006.12,164528,164526.94,164543.88,175550,175552,2023-03-24T15:52:35Z,175556.78,NULL,Orientierung,urekebisho,d,NA,NA,NA,samala,NA,NA,0,NA,NA,NA,NA,NA,NA,NA,NA,NA,NA,NA,NA,NA,NA,NA,NA,NA,NA,NA
868000000000,"""Richtig""-Screen",canvas.Screen,3_0_0_0_1_0_1,NA,NA,skipped,NA,175559,NA,NA,175550,175560,2023-03-24T15:52:35Z,175556.78,NULL,Orientierung,urekebisho,d,NA,NA,NA,NA,sdf,NA,0,NA,NA,NA,NA,NA,NA,NA,NA,NA,NA,NA,NA,NA,NA,NA,NA,NA,NA,NA
868000000000,"""Falsch""-Screen",canvas.Screen,3_0_0_0_1_0_2,NA,NA,timeout,4992.62,175564,175545.58,175556.78,180533.5,180535,2023-03-24T15:52:39Z,180549.4,NULL,Orientierung,urekebisho,d,NA,NA,NA,NA,sdf,0,0,NA,NA,NA,NA,NA,NA,NA,NA,NA,NA,NA,NA,NA,NA,NA,NA,NA,NA,NA
868000000000,deep,flow.Sequence,3_0_0_0_1_0,NA,NA,completion,15989.62,164528,164526.94,164543.88,180533.5,180535,2023-03-24T15:52:39Z,180549.4,NULL,Orientierung,urekebisho,d,NA,NA,NA,NA,sdf,NA,0,NA,NA,NA,NA,NA,NA,NA,NA,NA,NA,NA,NA,NA,NA,NA,NA,NA,NA,NA
868000000000,shallow,flow.Sequence,3_0_0_0_1_1,NA,NA,skipped,NA,180535,NA,NA,180533.5,180535,2023-03-24T15:52:40Z,180549.4,NULL,Orientierung,urekebisho,d,NA,NA,NA,NA,sdf,NA,0,NA,NA,NA,NA,NA,NA,NA,NA,NA,NA,NA,NA,NA,NA,NA,NA,NA,NA,NA
868000000000,task,flow.Sequence,3_0_0_0_1,NA,NA,completion,15989.62,164528,164526.94,164543.88,180533.5,180536,2023-03-24T15:52:40Z,180549.4,NULL,Orientierung,urekebisho,d,NA,NA,NA,NA,sdf,NA,0,NA,NA,NA,NA,NA,NA,NA,NA,NA,NA,NA,NA,NA,NA,NA,NA,NA,NA,NA
868000000000,Deep Question,html.Page,3_0_0_0_2_0_0,NA,NA,form submission,7735.6,180536,180533.5,180549.4,188285,188285,2023-03-24T15:52:47Z,188310.94,NULL,Notfall,dharura,d,NA,NA,NA,salama,NA,NA,0,NA,NA,NA,NA,NA,NA,NA,NA,NA,NA,NA,NA,NA,NA,NA,NA,NA,NA,NA
868000000000,"""Richtig""-Screen",canvas.Screen,3_0_0_0_2_0_1,NA,NA,skipped,NA,188287,NA,NA,188285,188287,2023-03-24T15:52:47Z,188310.94,NULL,Notfall,dharura,d,NA,NA,NA,NA,sdf,NA,0,NA,NA,NA,NA,NA,NA,NA,NA,NA,NA,NA,NA,NA,NA,NA,NA,NA,NA,NA
868000000000,"""Falsch""-Screen",canvas.Screen,3_0_0_0_2_0_2,NA,NA,timeout,4996.14,188289,188280.92,188310.94,193290.38,193291,2023-03-24T15:52:52Z,193307.08,NULL,Notfall,dharura,d,NA,NA,NA,NA,sdf,0,0,NA,NA,NA,NA,NA,NA,NA,NA,NA,NA,NA,NA,NA,NA,NA,NA,NA,NA,NA
868000000000,deep,flow.Sequence,3_0_0_0_2_0,NA,NA,completion,12740.98,180536,180533.5,180549.4,193290.38,193291,2023-03-24T15:52:52Z,193307.08,NULL,Notfall,dharura,d,NA,NA,NA,NA,sdf,NA,0,NA,NA,NA,NA,NA,NA,NA,NA,NA,NA,NA,NA,NA,NA,NA,NA,NA,NA,NA
868000000000,shallow,flow.Sequence,3_0_0_0_2_1,NA,NA,skipped,NA,193291,NA,NA,193290.38,193292,2023-03-24T15:52:52Z,193307.08,NULL,Notfall,dharura,d,NA,NA,NA,NA,sdf,NA,0,NA,NA,NA,NA,NA,NA,NA,NA,NA,NA,NA,NA,NA,NA,NA,NA,NA,NA,NA
868000000000,task,flow.Sequence,3_0_0_0_2,NA,NA,completion,12740.98,180536,180533.5,180549.4,193290.38,193292,2023-03-24T15:52:52Z,193307.08,NULL,Notfall,dharura,d,NA,NA,NA,NA,sdf,NA,0,NA,NA,NA,NA,NA,NA,NA,NA,NA,NA,NA,NA,NA,NA,NA,NA,NA,NA,NA
868000000000,Deep Question,html.Page,3_0_0_0_3_0_0,NA,NA,form submission,4579.92,193292,193290.38,193307.08,197887,197887,2023-03-24T15:52:57Z,197885.98,NULL,Vergnügen,kichekesho,d,NA,NA,NA,dharau,NA,NA,0,NA,NA,NA,NA,NA,NA,NA,NA,NA,NA,NA,NA,NA,NA,NA,NA,NA,NA,NA
868000000000,"""Richtig""-Screen",canvas.Screen,3_0_0_0_3_0_1,NA,NA,skipped,NA,197888,NA,NA,197887,197888,2023-03-24T15:52:57Z,197885.98,NULL,Vergnügen,kichekesho,d,NA,NA,NA,NA,sdf,NA,0,NA,NA,NA,NA,NA,NA,NA,NA,NA,NA,NA,NA,NA,NA,NA,NA,NA,NA,NA
868000000000,"""Falsch""-Screen",canvas.Screen,3_0_0_0_3_0_2,NA,NA,timeout,5002.9,197891,197885.7,197885.98,202871.56,202872,2023-03-24T15:53:02Z,202888.88,NULL,Vergnügen,kichekesho,d,NA,NA,NA,NA,sdf,0,0,NA,NA,NA,NA,NA,NA,NA,NA,NA,NA,NA,NA,NA,NA,NA,NA,NA,NA,NA
868000000000,deep,flow.Sequence,3_0_0_0_3_0,NA,NA,completion,9564.48,193292,193290.38,193307.08,202871.56,202872,2023-03-24T15:53:02Z,202888.88,NULL,Vergnügen,kichekesho,d,NA,NA,NA,NA,sdf,NA,0,NA,NA,NA,NA,NA,NA,NA,NA,NA,NA,NA,NA,NA,NA,NA,NA,NA,NA,NA
868000000000,shallow,flow.Sequence,3_0_0_0_3_1,NA,NA,skipped,NA,202872,NA,NA,202871.56,202872,2023-03-24T15:53:02Z,202888.88,NULL,Vergnügen,kichekesho,d,NA,NA,NA,NA,sdf,NA,0,NA,NA,NA,NA,NA,NA,NA,NA,NA,NA,NA,NA,NA,NA,NA,NA,NA,NA,NA
868000000000,task,flow.Sequence,3_0_0_0_3,NA,NA,completion,9564.48,193292,193290.38,193307.08,202871.56,202872,2023-03-24T15:53:02Z,202888.88,NULL,Vergnügen,kichekesho,d,NA,NA,NA,NA,sdf,NA,0,NA,NA,NA,NA,NA,NA,NA,NA,NA,NA,NA,NA,NA,NA,NA,NA,NA,NA,NA
868000000000,deep,flow.Sequence,3_0_0_0_4_0,NA,NA,skipped,NA,202872,NA,NA,202871.56,202873,2023-03-24T15:53:02Z,202888.88,NULL,Betrüger,mdanganyifu,s,mwanamuziki,wastani,mahakama,NA,sdf,NA,0,NA,NA,NA,NA,NA,NA,NA,NA,NA,NA,NA,NA,NA,NA,NA,NA,NA,NA,NA
868000000000,Shallow Question,html.Page,3_0_0_0_4_1_0,NA,NA,form submission,6405.12,202873,202871.56,202888.88,209294,209295,2023-03-24T15:53:08Z,209300.92,NULL,Betrüger,mdanganyifu,s,mwanamuziki,wastani,mahakama,wastani,NA,NA,0,NA,NA,NA,NA,NA,NA,NA,NA,NA,NA,NA,NA,NA,NA,NA,NA,NA,NA,NA
868000000000,"""Richtig""-Screen",canvas.Screen,3_0_0_0_4_1_1,NA,NA,skipped,NA,209296,NA,NA,209294,209296,2023-03-24T15:53:08Z,209300.92,NULL,Betrüger,mdanganyifu,s,mwanamuziki,wastani,mahakama,NA,sdf,NA,0,NA,NA,NA,NA,NA,NA,NA,NA,NA,NA,NA,NA,NA,NA,NA,NA,NA,NA,NA
868000000000,"""Falsch""-Screen",canvas.Screen,3_0_0_0_4_1_2,NA,NA,timeout,4997.56,209299,209291.28,209300.92,214282.68,214284,2023-03-24T15:53:13Z,214298.48,NULL,Betrüger,mdanganyifu,s,mwanamuziki,wastani,mahakama,NA,sdf,0,0,NA,NA,NA,NA,NA,NA,NA,NA,NA,NA,NA,NA,NA,NA,NA,NA,NA,NA,NA
868000000000,shallow,flow.Sequence,3_0_0_0_4_1,NA,NA,completion,11393.8,202873,202871.56,202888.88,214282.68,214285,2023-03-24T15:53:13Z,214298.48,NULL,Betrüger,mdanganyifu,s,mwanamuziki,wastani,mahakama,NA,sdf,NA,0,NA,NA,NA,NA,NA,NA,NA,NA,NA,NA,NA,NA,NA,NA,NA,NA,NA,NA,NA
868000000000,task,flow.Sequence,3_0_0_0_4,NA,NA,completion,11393.8,202872,202871.56,202888.88,214282.68,214286,2023-03-24T15:53:13Z,214298.48,NULL,Betrüger,mdanganyifu,s,mwanamuziki,wastani,mahakama,NA,sdf,NA,0,NA,NA,NA,NA,NA,NA,NA,NA,NA,NA,NA,NA,NA,NA,NA,NA,NA,NA,NA
868000000000,Deep Question,html.Page,3_0_0_0_5_0_0,NA,NA,form submission,3944.52,214286,214282.68,214298.48,218243,218244,2023-03-24T15:53:17Z,218242.08,NULL,Respekt,heshima,d,NA,NA,NA,salama,NA,NA,0,NA,NA,NA,NA,NA,NA,NA,NA,NA,NA,NA,NA,NA,NA,NA,NA,NA,NA,NA
868000000000,"""Richtig""-Screen",canvas.Screen,3_0_0_0_5_0_1,NA,NA,skipped,NA,218248,NA,NA,218243,218248,2023-03-24T15:53:17Z,218242.08,NULL,Respekt,heshima,d,NA,NA,NA,NA,sdf,NA,0,NA,NA,NA,NA,NA,NA,NA,NA,NA,NA,NA,NA,NA,NA,NA,NA,NA,NA,NA
868000000000,"""Falsch""-Screen",canvas.Screen,3_0_0_0_5_0_2,NA,NA,timeout,4993.08,218250,218241.84,218242.08,223217.94,223219,2023-03-24T15:53:22Z,223235.16,NULL,Respekt,heshima,d,NA,NA,NA,NA,sdf,0,0,NA,NA,NA,NA,NA,NA,NA,NA,NA,NA,NA,NA,NA,NA,NA,NA,NA,NA,NA
868000000000,deep,flow.Sequence,3_0_0_0_5_0,NA,NA,completion,8919.46,214286,214282.68,214298.48,223217.94,223220,2023-03-24T15:53:22Z,223235.16,NULL,Respekt,heshima,d,NA,NA,NA,NA,sdf,NA,0,NA,NA,NA,NA,NA,NA,NA,NA,NA,NA,NA,NA,NA,NA,NA,NA,NA,NA,NA
868000000000,shallow,flow.Sequence,3_0_0_0_5_1,NA,NA,skipped,NA,223220,NA,NA,223217.94,223220,2023-03-24T15:53:22Z,223235.16,NULL,Respekt,heshima,d,NA,NA,NA,NA,sdf,NA,0,NA,NA,NA,NA,NA,NA,NA,NA,NA,NA,NA,NA,NA,NA,NA,NA,NA,NA,NA
868000000000,task,flow.Sequence,3_0_0_0_5,NA,NA,completion,8919.46,214286,214282.68,214298.48,223217.94,223220,2023-03-24T15:53:22Z,223235.16,NULL,Respekt,heshima,d,NA,NA,NA,NA,sdf,NA,0,NA,NA,NA,NA,NA,NA,NA,NA,NA,NA,NA,NA,NA,NA,NA,NA,NA,NA,NA
868000000000,deep,flow.Sequence,3_0_0_0_6_0,NA,NA,skipped,NA,223220,NA,NA,223217.94,223220,2023-03-24T15:53:22Z,223235.16,NULL,Stimmung,kinyongo,s,kilekile,kisambo,madhehebu,NA,sdf,NA,0,NA,NA,NA,NA,NA,NA,NA,NA,NA,NA,NA,NA,NA,NA,NA,NA,NA,NA,NA
868000000000,Shallow Question,html.Page,3_0_0_0_6_1_0,NA,NA,form submission,4997.84,223220,223217.94,223235.16,228233,228233,2023-03-24T15:53:27Z,228231.88,NULL,Stimmung,kinyongo,s,kilekile,kisambo,madhehebu,kinyongo,NA,NA,0,NA,NA,NA,NA,NA,NA,NA,NA,NA,NA,NA,NA,NA,NA,NA,NA,NA,NA,NA
868000000000,"""Richtig""-Screen",canvas.Screen,3_0_0_0_6_1_1,NA,NA,timeout,5002.64,228236,228229.72,228231.88,233217.2,233218,2023-03-24T15:53:32Z,233234.52,NULL,Stimmung,kinyongo,s,kilekile,kisambo,madhehebu,NA,sdf,1,0,NA,NA,NA,NA,NA,NA,NA,NA,NA,NA,NA,NA,NA,NA,NA,NA,NA,NA,NA
868000000000,"""Falsch""-Screen",canvas.Screen,3_0_0_0_6_1_2,NA,NA,skipped,NA,233220,NA,NA,233217.2,233220,2023-03-24T15:53:32Z,233234.52,NULL,Stimmung,kinyongo,s,kilekile,kisambo,madhehebu,NA,sdf,NA,0,NA,NA,NA,NA,NA,NA,NA,NA,NA,NA,NA,NA,NA,NA,NA,NA,NA,NA,NA
868000000000,shallow,flow.Sequence,3_0_0_0_6_1,NA,NA,completion,9982.04,223220,223217.94,223235.16,233217.2,233220,2023-03-24T15:53:32Z,233234.52,NULL,Stimmung,kinyongo,s,kilekile,kisambo,madhehebu,NA,sdf,NA,0,NA,NA,NA,NA,NA,NA,NA,NA,NA,NA,NA,NA,NA,NA,NA,NA,NA,NA,NA
868000000000,task,flow.Sequence,3_0_0_0_6,NA,NA,completion,9982.04,223220,223217.94,223235.16,233217.2,233220,2023-03-24T15:53:32Z,233234.52,NULL,Stimmung,kinyongo,s,kilekile,kisambo,madhehebu,NA,sdf,NA,0,NA,NA,NA,NA,NA,NA,NA,NA,NA,NA,NA,NA,NA,NA,NA,NA,NA,NA,NA
868000000000,deep,flow.Sequence,3_0_0_0_7_0,NA,NA,skipped,NA,233220,NA,NA,233217.2,233221,2023-03-24T15:53:32Z,233234.52,NULL,Ergänzung,kijalizo,s,ulaghai,mustarehe,matangazo,NA,sdf,NA,0,NA,NA,NA,NA,NA,NA,NA,NA,NA,NA,NA,NA,NA,NA,NA,NA,NA,NA,NA
868000000000,Shallow Question,html.Page,3_0_0_0_7_1_0,NA,NA,form submission,7711.48,233221,233217.2,233234.52,240946,240946,2023-03-24T15:53:40Z,240955,NULL,Ergänzung,kijalizo,s,ulaghai,mustarehe,matangazo,kijalizo,NA,NA,0,NA,NA,NA,NA,NA,NA,NA,NA,NA,NA,NA,NA,NA,NA,NA,NA,NA,NA,NA
868000000000,"""Richtig""-Screen",canvas.Screen,3_0_0_0_7_1_1,NA,NA,timeout,5009.8,240948,240943.64,240955,245947.42,245948,2023-03-24T15:53:45Z,245964.8,NULL,Ergänzung,kijalizo,s,ulaghai,mustarehe,matangazo,NA,sdf,1,0,NA,NA,NA,NA,NA,NA,NA,NA,NA,NA,NA,NA,NA,NA,NA,NA,NA,NA,NA
868000000000,"""Falsch""-Screen",canvas.Screen,3_0_0_0_7_1_2,NA,NA,skipped,NA,245951,NA,NA,245947.42,245951,2023-03-24T15:53:45Z,245964.8,NULL,Ergänzung,kijalizo,s,ulaghai,mustarehe,matangazo,NA,sdf,NA,0,NA,NA,NA,NA,NA,NA,NA,NA,NA,NA,NA,NA,NA,NA,NA,NA,NA,NA,NA
868000000000,shallow,flow.Sequence,3_0_0_0_7_1,NA,NA,completion,12712.9,233221,233217.2,233234.52,245947.42,245952,2023-03-24T15:53:45Z,245964.8,NULL,Ergänzung,kijalizo,s,ulaghai,mustarehe,matangazo,NA,sdf,NA,0,NA,NA,NA,NA,NA,NA,NA,NA,NA,NA,NA,NA,NA,NA,NA,NA,NA,NA,NA
868000000000,task,flow.Sequence,3_0_0_0_7,NA,NA,completion,12712.9,233220,233217.2,233234.52,245947.42,245952,2023-03-24T15:53:45Z,245964.8,NULL,Ergänzung,kijalizo,s,ulaghai,mustarehe,matangazo,NA,sdf,NA,0,NA,NA,NA,NA,NA,NA,NA,NA,NA,NA,NA,NA,NA,NA,NA,NA,NA,NA,NA
868000000000,block,flow.Loop,3_0_0_0,NA,NA,completion,98670.14,147277,147277,147277.28,245947.42,245952,2023-03-24T15:53:45Z,245964.8,NULL,NA,NA,NA,NA,NA,NA,NA,sdf,NA,0,NA,NA,NA,NA,NA,NA,NA,NA,NA,NA,NA,NA,NA,NA,NA,NA,NA,NA,NA
868000000000,weiter,canvas.Screen,3_0_0_1,sdf,keypress(Space),response,1684.2,245952,245947.42,245964.8,247649,247655,2023-03-24T15:53:47Z,247712.94,NULL,NA,NA,NA,NA,NA,NA,NA,sdf,NA,0,NA,NA,NA,NA,NA,NA,NA,NA,NA,NA,NA,NA,NA,NA,NA,NA,NA,NA,NA
868000000000,check continue,flow.Sequence,3_0_0,NA,NA,completion,100371.72,147276,147277,147277.28,247649,247655,2023-03-24T15:53:47Z,247712.94,NULL,NA,NA,NA,NA,NA,NA,NA,sdf,NA,0,NA,NA,NA,NA,NA,NA,NA,NA,NA,NA,NA,NA,NA,NA,NA,NA,NA,NA,NA
868000000000,deep,flow.Sequence,3_0_1_0_0_0,NA,NA,skipped,NA,247713,NA,NA,247649,247713,2023-03-24T15:53:47Z,247712.94,NULL,Betrüger,mdanganyifu,s,mwanamuziki,wastani,mahakama,NA,sdfdsf,NA,1,NA,NA,NA,NA,NA,NA,NA,NA,NA,NA,NA,NA,NA,NA,NA,NA,NA,NA,NA
868000000000,Shallow Question,html.Page,3_0_1_0_0_1_0,NA,NA,form submission,6275.06,247713,247712.64,247712.94,253988,253988,2023-03-24T15:53:53Z,254000.86,NULL,Betrüger,mdanganyifu,s,mwanamuziki,wastani,mahakama,mdanganyifu,NA,NA,1,NA,NA,NA,NA,NA,NA,NA,NA,NA,NA,NA,NA,NA,NA,NA,NA,NA,NA,NA
868000000000,"""Richtig""-Screen",canvas.Screen,3_0_1_0_0_1_1,NA,NA,timeout,4994.86,253990,253985.9,254000.86,258979.04,258979,2023-03-24T15:53:58Z,258995.72,NULL,Betrüger,mdanganyifu,s,mwanamuziki,wastani,mahakama,NA,sdfdsf,1,1,NA,NA,NA,NA,NA,NA,NA,NA,NA,NA,NA,NA,NA,NA,NA,NA,NA,NA,NA
868000000000,"""Falsch""-Screen",canvas.Screen,3_0_1_0_0_1_2,NA,NA,skipped,NA,258981,NA,NA,258979.04,258982,2023-03-24T15:53:58Z,258995.72,NULL,Betrüger,mdanganyifu,s,mwanamuziki,wastani,mahakama,NA,sdfdsf,NA,1,NA,NA,NA,NA,NA,NA,NA,NA,NA,NA,NA,NA,NA,NA,NA,NA,NA,NA,NA
868000000000,shallow,flow.Sequence,3_0_1_0_0_1,NA,NA,completion,11266.1,247713,247712.64,247712.94,258979.04,258982,2023-03-24T15:53:58Z,258995.72,NULL,Betrüger,mdanganyifu,s,mwanamuziki,wastani,mahakama,NA,sdfdsf,NA,1,NA,NA,NA,NA,NA,NA,NA,NA,NA,NA,NA,NA,NA,NA,NA,NA,NA,NA,NA
868000000000,task,flow.Sequence,3_0_1_0_0,NA,NA,completion,11266.1,247713,247712.64,247712.94,258979.04,258982,2023-03-24T15:53:58Z,258995.72,NULL,Betrüger,mdanganyifu,s,mwanamuziki,wastani,mahakama,NA,sdfdsf,NA,1,NA,NA,NA,NA,NA,NA,NA,NA,NA,NA,NA,NA,NA,NA,NA,NA,NA,NA,NA
868000000000,deep,flow.Sequence,3_0_1_0_1_0,NA,NA,skipped,NA,258982,NA,NA,258979.04,258982,2023-03-24T15:53:58Z,258995.72,NULL,Stimmung,kinyongo,s,kilekile,kisambo,madhehebu,NA,sdfdsf,NA,1,NA,NA,NA,NA,NA,NA,NA,NA,NA,NA,NA,NA,NA,NA,NA,NA,NA,NA,NA
868000000000,Shallow Question,html.Page,3_0_1_0_1_1_0,NA,NA,form submission,5257.28,258982,258979.04,258995.72,264253,264253,2023-03-24T15:54:03Z,264264.82,NULL,Stimmung,kinyongo,s,kilekile,kisambo,madhehebu,kinyongo,NA,NA,1,NA,NA,NA,NA,NA,NA,NA,NA,NA,NA,NA,NA,NA,NA,NA,NA,NA,NA,NA
868000000000,"""Richtig""-Screen",canvas.Screen,3_0_1_0_1_1_1,NA,NA,timeout,4995.4,264254,264250.6,264264.82,269242.8,269244,2023-03-24T15:54:08Z,269260.22,NULL,Stimmung,kinyongo,s,kilekile,kisambo,madhehebu,NA,sdfdsf,1,1,NA,NA,NA,NA,NA,NA,NA,NA,NA,NA,NA,NA,NA,NA,NA,NA,NA,NA,NA
868000000000,"""Falsch""-Screen",canvas.Screen,3_0_1_0_1_1_2,NA,NA,skipped,NA,269246,NA,NA,269242.8,269246,2023-03-24T15:54:08Z,269260.22,NULL,Stimmung,kinyongo,s,kilekile,kisambo,madhehebu,NA,sdfdsf,NA,1,NA,NA,NA,NA,NA,NA,NA,NA,NA,NA,NA,NA,NA,NA,NA,NA,NA,NA,NA
868000000000,shallow,flow.Sequence,3_0_1_0_1_1,NA,NA,completion,10247.08,258982,258979.04,258995.72,269242.8,269246,2023-03-24T15:54:08Z,269260.22,NULL,Stimmung,kinyongo,s,kilekile,kisambo,madhehebu,NA,sdfdsf,NA,1,NA,NA,NA,NA,NA,NA,NA,NA,NA,NA,NA,NA,NA,NA,NA,NA,NA,NA,NA
868000000000,task,flow.Sequence,3_0_1_0_1,NA,NA,completion,10247.08,258982,258979.04,258995.72,269242.8,269246,2023-03-24T15:54:08Z,269260.22,NULL,Stimmung,kinyongo,s,kilekile,kisambo,madhehebu,NA,sdfdsf,NA,1,NA,NA,NA,NA,NA,NA,NA,NA,NA,NA,NA,NA,NA,NA,NA,NA,NA,NA,NA
868000000000,Deep Question,html.Page,3_0_1_0_2_0_0,NA,NA,form submission,8583.78,269246,269242.8,269260.22,277844,277844,2023-03-24T15:54:17Z,277848.5,NULL,Vergnügen,kichekesho,d,NA,NA,NA,kinyongo,NA,NA,1,NA,NA,NA,NA,NA,NA,NA,NA,NA,NA,NA,NA,NA,NA,NA,NA,NA,NA,NA
868000000000,"""Richtig""-Screen",canvas.Screen,3_0_1_0_2_0_1,NA,NA,skipped,NA,277850,NA,NA,277844,277850,2023-03-24T15:54:17Z,277848.5,NULL,Vergnügen,kichekesho,d,NA,NA,NA,NA,sdfdsf,NA,1,NA,NA,NA,NA,NA,NA,NA,NA,NA,NA,NA,NA,NA,NA,NA,NA,NA,NA,NA
868000000000,"""Falsch""-Screen",canvas.Screen,3_0_1_0_2_0_2,NA,NA,timeout,5001.18,277854,277840.6,277848.5,282832.56,282833,2023-03-24T15:54:22Z,282849.68,NULL,Vergnügen,kichekesho,d,NA,NA,NA,NA,sdfdsf,0,1,NA,NA,NA,NA,NA,NA,NA,NA,NA,NA,NA,NA,NA,NA,NA,NA,NA,NA,NA
868000000000,deep,flow.Sequence,3_0_1_0_2_0,NA,NA,completion,13572.34,269246,269242.8,269260.22,282832.56,282834,2023-03-24T15:54:22Z,282849.68,NULL,Vergnügen,kichekesho,d,NA,NA,NA,NA,sdfdsf,NA,1,NA,NA,NA,NA,NA,NA,NA,NA,NA,NA,NA,NA,NA,NA,NA,NA,NA,NA,NA
868000000000,shallow,flow.Sequence,3_0_1_0_2_1,NA,NA,skipped,NA,282834,NA,NA,282832.56,282834,2023-03-24T15:54:22Z,282849.68,NULL,Vergnügen,kichekesho,d,NA,NA,NA,NA,sdfdsf,NA,1,NA,NA,NA,NA,NA,NA,NA,NA,NA,NA,NA,NA,NA,NA,NA,NA,NA,NA,NA
868000000000,task,flow.Sequence,3_0_1_0_2,NA,NA,completion,13572.34,269246,269242.8,269260.22,282832.56,282834,2023-03-24T15:54:22Z,282849.68,NULL,Vergnügen,kichekesho,d,NA,NA,NA,NA,sdfdsf,NA,1,NA,NA,NA,NA,NA,NA,NA,NA,NA,NA,NA,NA,NA,NA,NA,NA,NA,NA,NA
868000000000,deep,flow.Sequence,3_0_1_0_3_0,NA,NA,skipped,NA,282835,NA,NA,282832.56,282835,2023-03-24T15:54:22Z,282849.68,NULL,Wohlstand,mafanikio,s,chimbuko,kumbuko,mapwaji,NA,sdfdsf,NA,1,NA,NA,NA,NA,NA,NA,NA,NA,NA,NA,NA,NA,NA,NA,NA,NA,NA,NA,NA
868000000000,Shallow Question,html.Page,3_0_1_0_3_1_0,NA,NA,form submission,6559.32,282835,282832.56,282849.68,289409,289409,2023-03-24T15:54:28Z,289413.66,NULL,Wohlstand,mafanikio,s,chimbuko,kumbuko,mapwaji,mafanikio,NA,NA,1,NA,NA,NA,NA,NA,NA,NA,NA,NA,NA,NA,NA,NA,NA,NA,NA,NA,NA,NA
868000000000,"""Richtig""-Screen",canvas.Screen,3_0_1_0_3_1_1,NA,NA,timeout,4999.86,289411,289406.76,289413.66,294398,294399,2023-03-24T15:54:33Z,294413.52,NULL,Wohlstand,mafanikio,s,chimbuko,kumbuko,mapwaji,NA,sdfdsf,1,1,NA,NA,NA,NA,NA,NA,NA,NA,NA,NA,NA,NA,NA,NA,NA,NA,NA,NA,NA
868000000000,"""Falsch""-Screen",canvas.Screen,3_0_1_0_3_1_2,NA,NA,skipped,NA,294402,NA,NA,294398,294402,2023-03-24T15:54:33Z,294413.52,NULL,Wohlstand,mafanikio,s,chimbuko,kumbuko,mapwaji,NA,sdfdsf,NA,1,NA,NA,NA,NA,NA,NA,NA,NA,NA,NA,NA,NA,NA,NA,NA,NA,NA,NA,NA
868000000000,shallow,flow.Sequence,3_0_1_0_3_1,NA,NA,completion,11548.32,282835,282832.56,282849.68,294398,294402,2023-03-24T15:54:33Z,294413.52,NULL,Wohlstand,mafanikio,s,chimbuko,kumbuko,mapwaji,NA,sdfdsf,NA,1,NA,NA,NA,NA,NA,NA,NA,NA,NA,NA,NA,NA,NA,NA,NA,NA,NA,NA,NA
868000000000,task,flow.Sequence,3_0_1_0_3,NA,NA,completion,11548.32,282835,282832.56,282849.68,294398,294403,2023-03-24T15:54:33Z,294413.52,NULL,Wohlstand,mafanikio,s,chimbuko,kumbuko,mapwaji,NA,sdfdsf,NA,1,NA,NA,NA,NA,NA,NA,NA,NA,NA,NA,NA,NA,NA,NA,NA,NA,NA,NA,NA
868000000000,deep,flow.Sequence,3_0_1_0_4_0,NA,NA,skipped,NA,294403,NA,NA,294398,294403,2023-03-24T15:54:33Z,294413.52,NULL,Ergänzung,kijalizo,s,ulaghai,mustarehe,matangazo,NA,sdfdsf,NA,1,NA,NA,NA,NA,NA,NA,NA,NA,NA,NA,NA,NA,NA,NA,NA,NA,NA,NA,NA
868000000000,Shallow Question,html.Page,3_0_1_0_4_1_0,NA,NA,form submission,9173.48,294403,294398,294413.52,303587,303587,2023-03-24T15:54:43Z,303596.16,NULL,Ergänzung,kijalizo,s,ulaghai,mustarehe,matangazo,matangazo,NA,NA,1,NA,NA,NA,NA,NA,NA,NA,NA,NA,NA,NA,NA,NA,NA,NA,NA,NA,NA,NA
868000000000,"""Richtig""-Screen",canvas.Screen,3_0_1_0_4_1_1,NA,NA,skipped,NA,303589,NA,NA,303587,303589,2023-03-24T15:54:43Z,303596.16,NULL,Ergänzung,kijalizo,s,ulaghai,mustarehe,matangazo,NA,sdfdsf,NA,1,NA,NA,NA,NA,NA,NA,NA,NA,NA,NA,NA,NA,NA,NA,NA,NA,NA,NA,NA
868000000000,"""Falsch""-Screen",canvas.Screen,3_0_1_0_4_1_2,NA,NA,timeout,5000.6,303592,303583.84,303596.16,308580.28,308581,2023-03-24T15:54:48Z,308596.76,NULL,Ergänzung,kijalizo,s,ulaghai,mustarehe,matangazo,NA,sdfdsf,0,1,NA,NA,NA,NA,NA,NA,NA,NA,NA,NA,NA,NA,NA,NA,NA,NA,NA,NA,NA
868000000000,shallow,flow.Sequence,3_0_1_0_4_1,NA,NA,completion,14166.76,294403,294398,294413.52,308580.28,308581,2023-03-24T15:54:48Z,308596.76,NULL,Ergänzung,kijalizo,s,ulaghai,mustarehe,matangazo,NA,sdfdsf,NA,1,NA,NA,NA,NA,NA,NA,NA,NA,NA,NA,NA,NA,NA,NA,NA,NA,NA,NA,NA
868000000000,task,flow.Sequence,3_0_1_0_4,NA,NA,completion,14166.76,294403,294398,294413.52,308580.28,308582,2023-03-24T15:54:48Z,308596.76,NULL,Ergänzung,kijalizo,s,ulaghai,mustarehe,matangazo,NA,sdfdsf,NA,1,NA,NA,NA,NA,NA,NA,NA,NA,NA,NA,NA,NA,NA,NA,NA,NA,NA,NA,NA
868000000000,Deep Question,html.Page,3_0_1_0_5_0_0,NA,NA,form submission,4220.24,308582,308580.28,308596.76,312817,312818,2023-03-24T15:54:52Z,312816.94,NULL,Notfall,dharura,d,NA,NA,NA,kijalizo,NA,NA,1,NA,NA,NA,NA,NA,NA,NA,NA,NA,NA,NA,NA,NA,NA,NA,NA,NA,NA,NA
868000000000,"""Richtig""-Screen",canvas.Screen,3_0_1_0_5_0_1,NA,NA,skipped,NA,312820,NA,NA,312817,312820,2023-03-24T15:54:52Z,312816.94,NULL,Notfall,dharura,d,NA,NA,NA,NA,sdfdsf,NA,1,NA,NA,NA,NA,NA,NA,NA,NA,NA,NA,NA,NA,NA,NA,NA,NA,NA,NA,NA
868000000000,"""Falsch""-Screen",canvas.Screen,3_0_1_0_5_0_2,NA,NA,timeout,4993.26,312822,312816.68,312816.94,317792.76,317794,2023-03-24T15:54:57Z,317810.2,NULL,Notfall,dharura,d,NA,NA,NA,NA,sdfdsf,0,1,NA,NA,NA,NA,NA,NA,NA,NA,NA,NA,NA,NA,NA,NA,NA,NA,NA,NA,NA
868000000000,deep,flow.Sequence,3_0_1_0_5_0,NA,NA,completion,9196,308582,308580.28,308596.76,317792.76,317795,2023-03-24T15:54:57Z,317810.2,NULL,Notfall,dharura,d,NA,NA,NA,NA,sdfdsf,NA,1,NA,NA,NA,NA,NA,NA,NA,NA,NA,NA,NA,NA,NA,NA,NA,NA,NA,NA,NA
868000000000,shallow,flow.Sequence,3_0_1_0_5_1,NA,NA,skipped,NA,317796,NA,NA,317792.76,317796,2023-03-24T15:54:57Z,317810.2,NULL,Notfall,dharura,d,NA,NA,NA,NA,sdfdsf,NA,1,NA,NA,NA,NA,NA,NA,NA,NA,NA,NA,NA,NA,NA,NA,NA,NA,NA,NA,NA
868000000000,task,flow.Sequence,3_0_1_0_5,NA,NA,completion,9196,308582,308580.28,308596.76,317792.76,317796,2023-03-24T15:54:57Z,317810.2,NULL,Notfall,dharura,d,NA,NA,NA,NA,sdfdsf,NA,1,NA,NA,NA,NA,NA,NA,NA,NA,NA,NA,NA,NA,NA,NA,NA,NA,NA,NA,NA
868000000000,Deep Question,html.Page,3_0_1_0_6_0_0,NA,NA,form submission,3502.8,317797,317792.76,317810.2,321313,321313,2023-03-24T15:55:00Z,321326.5,NULL,Respekt,heshima,d,NA,NA,NA,dharura,NA,NA,1,NA,NA,NA,NA,NA,NA,NA,NA,NA,NA,NA,NA,NA,NA,NA,NA,NA,NA,NA
868000000000,"""Richtig""-Screen",canvas.Screen,3_0_1_0_6_0_1,NA,NA,skipped,NA,321317,NA,NA,321313,321317,2023-03-24T15:55:00Z,321326.5,NULL,Respekt,heshima,d,NA,NA,NA,NA,sdfdsf,NA,1,NA,NA,NA,NA,NA,NA,NA,NA,NA,NA,NA,NA,NA,NA,NA,NA,NA,NA,NA
868000000000,"""Falsch""-Screen",canvas.Screen,3_0_1_0_6_0_2,NA,NA,timeout,4992.64,321320,321311.52,321326.5,326302.5,326303,2023-03-24T15:55:05Z,326319.14,NULL,Respekt,heshima,d,NA,NA,NA,NA,sdfdsf,0,1,NA,NA,NA,NA,NA,NA,NA,NA,NA,NA,NA,NA,NA,NA,NA,NA,NA,NA,NA
868000000000,deep,flow.Sequence,3_0_1_0_6_0,NA,NA,completion,8492.3,317797,317792.76,317810.2,326302.5,326303,2023-03-24T15:55:05Z,326319.14,NULL,Respekt,heshima,d,NA,NA,NA,NA,sdfdsf,NA,1,NA,NA,NA,NA,NA,NA,NA,NA,NA,NA,NA,NA,NA,NA,NA,NA,NA,NA,NA
868000000000,shallow,flow.Sequence,3_0_1_0_6_1,NA,NA,skipped,NA,326303,NA,NA,326302.5,326303,2023-03-24T15:55:05Z,326319.14,NULL,Respekt,heshima,d,NA,NA,NA,NA,sdfdsf,NA,1,NA,NA,NA,NA,NA,NA,NA,NA,NA,NA,NA,NA,NA,NA,NA,NA,NA,NA,NA
868000000000,task,flow.Sequence,3_0_1_0_6,NA,NA,completion,8492.3,317797,317792.76,317810.2,326302.5,326305,2023-03-24T15:55:05Z,326319.14,NULL,Respekt,heshima,d,NA,NA,NA,NA,sdfdsf,NA,1,NA,NA,NA,NA,NA,NA,NA,NA,NA,NA,NA,NA,NA,NA,NA,NA,NA,NA,NA
868000000000,Deep Question,html.Page,3_0_1_0_7_0_0,NA,NA,form submission,5530.86,326305,326302.5,326319.14,331850,331850,2023-03-24T15:55:11Z,331848.78,NULL,Orientierung,urekebisho,d,NA,NA,NA,heshimo,NA,NA,1,NA,NA,NA,NA,NA,NA,NA,NA,NA,NA,NA,NA,NA,NA,NA,NA,NA,NA,NA
868000000000,"""Richtig""-Screen",canvas.Screen,3_0_1_0_7_0_1,NA,NA,skipped,NA,331853,NA,NA,331850,331853,2023-03-24T15:55:11Z,331848.78,NULL,Orientierung,urekebisho,d,NA,NA,NA,NA,sdfdsf,NA,1,NA,NA,NA,NA,NA,NA,NA,NA,NA,NA,NA,NA,NA,NA,NA,NA,NA,NA,NA
868000000000,"""Falsch""-Screen",canvas.Screen,3_0_1_0_7_0_2,NA,NA,timeout,5007.2,331855,331848.5,331848.78,336839,336840,2023-03-24T15:55:16Z,336855.98,NULL,Orientierung,urekebisho,d,NA,NA,NA,NA,sdfdsf,0,1,NA,NA,NA,NA,NA,NA,NA,NA,NA,NA,NA,NA,NA,NA,NA,NA,NA,NA,NA
868000000000,deep,flow.Sequence,3_0_1_0_7_0,NA,NA,completion,10519.86,326305,326302.5,326319.14,336839,336840,2023-03-24T15:55:16Z,336855.98,NULL,Orientierung,urekebisho,d,NA,NA,NA,NA,sdfdsf,NA,1,NA,NA,NA,NA,NA,NA,NA,NA,NA,NA,NA,NA,NA,NA,NA,NA,NA,NA,NA
868000000000,shallow,flow.Sequence,3_0_1_0_7_1,NA,NA,skipped,NA,336840,NA,NA,336839,336840,2023-03-24T15:55:16Z,336855.98,NULL,Orientierung,urekebisho,d,NA,NA,NA,NA,sdfdsf,NA,1,NA,NA,NA,NA,NA,NA,NA,NA,NA,NA,NA,NA,NA,NA,NA,NA,NA,NA,NA
868000000000,task,flow.Sequence,3_0_1_0_7,NA,NA,completion,10519.86,326305,326302.5,326319.14,336839,336840,2023-03-24T15:55:16Z,336855.98,NULL,Orientierung,urekebisho,d,NA,NA,NA,NA,sdfdsf,NA,1,NA,NA,NA,NA,NA,NA,NA,NA,NA,NA,NA,NA,NA,NA,NA,NA,NA,NA,NA
868000000000,block,flow.Loop,3_0_1_0,NA,NA,completion,89126.06,247713,247712.64,247712.94,336839,336840,2023-03-24T15:55:16Z,336855.98,NULL,NA,NA,NA,NA,NA,NA,NA,sdfdsf,NA,1,NA,NA,NA,NA,NA,NA,NA,NA,NA,NA,NA,NA,NA,NA,NA,NA,NA,NA,NA
868000000000,weiter,canvas.Screen,3_0_1_1,sdf,keypress(Space),response,1116.02,336841,336839,336855.98,337972,337977,2023-03-24T15:55:17Z,338048.26,NULL,NA,NA,NA,NA,NA,NA,NA,sdfdsf,NA,1,NA,NA,NA,NA,NA,NA,NA,NA,NA,NA,NA,NA,NA,NA,NA,NA,NA,NA,NA
868000000000,check continue,flow.Sequence,3_0_1,NA,NA,completion,90259.06,247712,247712.64,247712.94,337972,337977,2023-03-24T15:55:17Z,338048.26,NULL,NA,NA,NA,NA,NA,NA,NA,sdfdsf,NA,1,NA,NA,NA,NA,NA,NA,NA,NA,NA,NA,NA,NA,NA,NA,NA,NA,NA,NA,NA
868000000000,Deep Question,html.Page,3_0_2_0_0_0_0,NA,NA,form submission,3761.74,338044,338031.78,338048.26,341810,341810,2023-03-24T15:55:21Z,341809.08,NULL,Respekt,heshima,d,NA,NA,NA,urekebisho,NA,NA,2,NA,NA,NA,NA,NA,NA,NA,NA,NA,NA,NA,NA,NA,NA,NA,NA,NA,NA,NA
868000000000,"""Richtig""-Screen",canvas.Screen,3_0_2_0_0_0_1,NA,NA,skipped,NA,341812,NA,NA,341810,341813,2023-03-24T15:55:21Z,341809.08,NULL,Respekt,heshima,d,NA,NA,NA,NA,sdf,NA,2,NA,NA,NA,NA,NA,NA,NA,NA,NA,NA,NA,NA,NA,NA,NA,NA,NA,NA,NA
868000000000,"""Falsch""-Screen",canvas.Screen,3_0_2_0_0_0_2,NA,NA,timeout,4994.22,341814,341808.82,341809.08,346785.88,346786,2023-03-24T15:55:26Z,346803.3,NULL,Respekt,heshima,d,NA,NA,NA,NA,sdf,0,2,NA,NA,NA,NA,NA,NA,NA,NA,NA,NA,NA,NA,NA,NA,NA,NA,NA,NA,NA
868000000000,deep,flow.Sequence,3_0_2_0_0_0,NA,NA,completion,8737.62,338044,338031.78,338048.26,346785.88,346787,2023-03-24T15:55:26Z,346803.3,NULL,Respekt,heshima,d,NA,NA,NA,NA,sdf,NA,2,NA,NA,NA,NA,NA,NA,NA,NA,NA,NA,NA,NA,NA,NA,NA,NA,NA,NA,NA
868000000000,shallow,flow.Sequence,3_0_2_0_0_1,NA,NA,skipped,NA,346787,NA,NA,346785.88,346787,2023-03-24T15:55:26Z,346803.3,NULL,Respekt,heshima,d,NA,NA,NA,NA,sdf,NA,2,NA,NA,NA,NA,NA,NA,NA,NA,NA,NA,NA,NA,NA,NA,NA,NA,NA,NA,NA
868000000000,task,flow.Sequence,3_0_2_0_0,NA,NA,completion,8737.62,338044,338031.78,338048.26,346785.88,346787,2023-03-24T15:55:26Z,346803.3,NULL,Respekt,heshima,d,NA,NA,NA,NA,sdf,NA,2,NA,NA,NA,NA,NA,NA,NA,NA,NA,NA,NA,NA,NA,NA,NA,NA,NA,NA,NA
868000000000,Deep Question,html.Page,3_0_2_0_1_0_0,NA,NA,form submission,9204.7,346787,346785.88,346803.3,356008,356008,2023-03-24T15:55:35Z,356007.84,NULL,Notfall,dharura,d,NA,NA,NA,kinyoko,NA,NA,2,NA,NA,NA,NA,NA,NA,NA,NA,NA,NA,NA,NA,NA,NA,NA,NA,NA,NA,NA
868000000000,"""Richtig""-Screen",canvas.Screen,3_0_2_0_1_0_1,NA,NA,skipped,NA,356010,NA,NA,356008,356010,2023-03-24T15:55:35Z,356007.84,NULL,Notfall,dharura,d,NA,NA,NA,NA,sdf,NA,2,NA,NA,NA,NA,NA,NA,NA,NA,NA,NA,NA,NA,NA,NA,NA,NA,NA,NA,NA
868000000000,"""Falsch""-Screen",canvas.Screen,3_0_2_0_1_0_2,NA,NA,timeout,5003.18,356013,356007.58,356007.84,360995.4,360997,2023-03-24T15:55:40Z,361011.02,NULL,Notfall,dharura,d,NA,NA,NA,NA,sdf,0,2,NA,NA,NA,NA,NA,NA,NA,NA,NA,NA,NA,NA,NA,NA,NA,NA,NA,NA,NA
868000000000,deep,flow.Sequence,3_0_2_0_1_0,NA,NA,completion,14192.1,346787,346785.88,346803.3,360995.4,360998,2023-03-24T15:55:40Z,361011.02,NULL,Notfall,dharura,d,NA,NA,NA,NA,sdf,NA,2,NA,NA,NA,NA,NA,NA,NA,NA,NA,NA,NA,NA,NA,NA,NA,NA,NA,NA,NA
868000000000,shallow,flow.Sequence,3_0_2_0_1_1,NA,NA,skipped,NA,360998,NA,NA,360995.4,360998,2023-03-24T15:55:40Z,361011.02,NULL,Notfall,dharura,d,NA,NA,NA,NA,sdf,NA,2,NA,NA,NA,NA,NA,NA,NA,NA,NA,NA,NA,NA,NA,NA,NA,NA,NA,NA,NA
868000000000,task,flow.Sequence,3_0_2_0_1,NA,NA,completion,14192.1,346787,346785.88,346803.3,360995.4,360999,2023-03-24T15:55:40Z,361011.02,NULL,Notfall,dharura,d,NA,NA,NA,NA,sdf,NA,2,NA,NA,NA,NA,NA,NA,NA,NA,NA,NA,NA,NA,NA,NA,NA,NA,NA,NA,NA
868000000000,deep,flow.Sequence,3_0_2_0_2_0,NA,NA,skipped,NA,360999,NA,NA,360995.4,360999,2023-03-24T15:55:40Z,361011.02,NULL,Wohlstand,mafanikio,s,chimbuko,kumbuko,mapwaji,NA,sdf,NA,2,NA,NA,NA,NA,NA,NA,NA,NA,NA,NA,NA,NA,NA,NA,NA,NA,NA,NA,NA
868000000000,Shallow Question,html.Page,3_0_2_0_2_1_0,NA,NA,form submission,5789.98,361000,360995.4,361011.02,366801,366802,2023-03-24T15:55:46Z,366806.18,NULL,Wohlstand,mafanikio,s,chimbuko,kumbuko,mapwaji,mafanikio,NA,NA,2,NA,NA,NA,NA,NA,NA,NA,NA,NA,NA,NA,NA,NA,NA,NA,NA,NA,NA,NA
868000000000,"""Richtig""-Screen",canvas.Screen,3_0_2_0_2_1_1,NA,NA,timeout,5007.84,366806,366797.96,366806.18,371796.66,371798,2023-03-24T15:55:51Z,371814.02,NULL,Wohlstand,mafanikio,s,chimbuko,kumbuko,mapwaji,NA,sdf,1,2,NA,NA,NA,NA,NA,NA,NA,NA,NA,NA,NA,NA,NA,NA,NA,NA,NA,NA,NA
868000000000,"""Falsch""-Screen",canvas.Screen,3_0_2_0_2_1_2,NA,NA,skipped,NA,371800,NA,NA,371796.66,371800,2023-03-24T15:55:51Z,371814.02,NULL,Wohlstand,mafanikio,s,chimbuko,kumbuko,mapwaji,NA,sdf,NA,2,NA,NA,NA,NA,NA,NA,NA,NA,NA,NA,NA,NA,NA,NA,NA,NA,NA,NA,NA
868000000000,shallow,flow.Sequence,3_0_2_0_2_1,NA,NA,completion,10785.64,361000,360995.4,361011.02,371796.66,371800,2023-03-24T15:55:51Z,371814.02,NULL,Wohlstand,mafanikio,s,chimbuko,kumbuko,mapwaji,NA,sdf,NA,2,NA,NA,NA,NA,NA,NA,NA,NA,NA,NA,NA,NA,NA,NA,NA,NA,NA,NA,NA
868000000000,task,flow.Sequence,3_0_2_0_2,NA,NA,completion,10785.64,360999,360995.4,361011.02,371796.66,371801,2023-03-24T15:55:51Z,371814.02,NULL,Wohlstand,mafanikio,s,chimbuko,kumbuko,mapwaji,NA,sdf,NA,2,NA,NA,NA,NA,NA,NA,NA,NA,NA,NA,NA,NA,NA,NA,NA,NA,NA,NA,NA
868000000000,deep,flow.Sequence,3_0_2_0_3_0,NA,NA,skipped,NA,371801,NA,NA,371796.66,371801,2023-03-24T15:55:51Z,371814.02,NULL,Betrüger,mdanganyifu,s,mwanamuziki,wastani,mahakama,NA,sdf,NA,2,NA,NA,NA,NA,NA,NA,NA,NA,NA,NA,NA,NA,NA,NA,NA,NA,NA,NA,NA
868000000000,Shallow Question,html.Page,3_0_2_0_3_1_0,NA,NA,form submission,4914.98,371802,371796.66,371814.02,376729,376729,2023-03-24T15:55:56Z,376739.44,NULL,Betrüger,mdanganyifu,s,mwanamuziki,wastani,mahakama,mdanganyifu,NA,NA,2,NA,NA,NA,NA,NA,NA,NA,NA,NA,NA,NA,NA,NA,NA,NA,NA,NA,NA,NA
868000000000,"""Richtig""-Screen",canvas.Screen,3_0_2_0_3_1_1,NA,NA,timeout,4997.44,376734,376725.58,376739.44,381720.22,381721,2023-03-24T15:56:01Z,381736.88,NULL,Betrüger,mdanganyifu,s,mwanamuziki,wastani,mahakama,NA,sdf,1,2,NA,NA,NA,NA,NA,NA,NA,NA,NA,NA,NA,NA,NA,NA,NA,NA,NA,NA,NA
868000000000,"""Falsch""-Screen",canvas.Screen,3_0_2_0_3_1_2,NA,NA,skipped,NA,381725,NA,NA,381720.22,381725,2023-03-24T15:56:01Z,381736.88,NULL,Betrüger,mdanganyifu,s,mwanamuziki,wastani,mahakama,NA,sdf,NA,2,NA,NA,NA,NA,NA,NA,NA,NA,NA,NA,NA,NA,NA,NA,NA,NA,NA,NA,NA
868000000000,shallow,flow.Sequence,3_0_2_0_3_1,NA,NA,completion,9906.2,371802,371796.66,371814.02,381720.22,381725,2023-03-24T15:56:01Z,381736.88,NULL,Betrüger,mdanganyifu,s,mwanamuziki,wastani,mahakama,NA,sdf,NA,2,NA,NA,NA,NA,NA,NA,NA,NA,NA,NA,NA,NA,NA,NA,NA,NA,NA,NA,NA
868000000000,task,flow.Sequence,3_0_2_0_3,NA,NA,completion,9906.2,371801,371796.66,371814.02,381720.22,381725,2023-03-24T15:56:01Z,381736.88,NULL,Betrüger,mdanganyifu,s,mwanamuziki,wastani,mahakama,NA,sdf,NA,2,NA,NA,NA,NA,NA,NA,NA,NA,NA,NA,NA,NA,NA,NA,NA,NA,NA,NA,NA
868000000000,Deep Question,html.Page,3_0_2_0_4_0_0,NA,NA,form submission,4926.12,381725,381720.22,381736.88,386663,386664,2023-03-24T15:56:06Z,386662.42,NULL,Orientierung,urekebisho,d,NA,NA,NA,dharura,NA,NA,2,NA,NA,NA,NA,NA,NA,NA,NA,NA,NA,NA,NA,NA,NA,NA,NA,NA,NA,NA
868000000000,"""Richtig""-Screen",canvas.Screen,3_0_2_0_4_0_1,NA,NA,skipped,NA,386665,NA,NA,386663,386666,2023-03-24T15:56:06Z,386662.42,NULL,Orientierung,urekebisho,d,NA,NA,NA,NA,sdf,NA,2,NA,NA,NA,NA,NA,NA,NA,NA,NA,NA,NA,NA,NA,NA,NA,NA,NA,NA,NA
868000000000,"""Falsch""-Screen",canvas.Screen,3_0_2_0_4_0_2,NA,NA,timeout,5003.84,386668,386662.16,386662.42,391649.68,391651,2023-03-24T15:56:11Z,391666.26,NULL,Orientierung,urekebisho,d,NA,NA,NA,NA,sdf,0,2,NA,NA,NA,NA,NA,NA,NA,NA,NA,NA,NA,NA,NA,NA,NA,NA,NA,NA,NA
868000000000,deep,flow.Sequence,3_0_2_0_4_0,NA,NA,completion,9912.8,381725,381720.22,381736.88,391649.68,391651,2023-03-24T15:56:11Z,391666.26,NULL,Orientierung,urekebisho,d,NA,NA,NA,NA,sdf,NA,2,NA,NA,NA,NA,NA,NA,NA,NA,NA,NA,NA,NA,NA,NA,NA,NA,NA,NA,NA
868000000000,shallow,flow.Sequence,3_0_2_0_4_1,NA,NA,skipped,NA,391651,NA,NA,391649.68,391651,2023-03-24T15:56:11Z,391666.26,NULL,Orientierung,urekebisho,d,NA,NA,NA,NA,sdf,NA,2,NA,NA,NA,NA,NA,NA,NA,NA,NA,NA,NA,NA,NA,NA,NA,NA,NA,NA,NA
868000000000,task,flow.Sequence,3_0_2_0_4,NA,NA,completion,9912.8,381725,381720.22,381736.88,391649.68,391652,2023-03-24T15:56:11Z,391666.26,NULL,Orientierung,urekebisho,d,NA,NA,NA,NA,sdf,NA,2,NA,NA,NA,NA,NA,NA,NA,NA,NA,NA,NA,NA,NA,NA,NA,NA,NA,NA,NA
868000000000,deep,flow.Sequence,3_0_2_0_5_0,NA,NA,skipped,NA,391652,NA,NA,391649.68,391652,2023-03-24T15:56:11Z,391666.26,NULL,Ergänzung,kijalizo,s,ulaghai,mustarehe,matangazo,NA,sdf,NA,2,NA,NA,NA,NA,NA,NA,NA,NA,NA,NA,NA,NA,NA,NA,NA,NA,NA,NA,NA
868000000000,Shallow Question,html.Page,3_0_2_0_5_1_0,NA,NA,form submission,12823.74,391652,391649.68,391666.26,404490,404490,2023-03-24T15:56:23Z,404501.86,NULL,Ergänzung,kijalizo,s,ulaghai,mustarehe,matangazo,kijalizo,NA,NA,2,NA,NA,NA,NA,NA,NA,NA,NA,NA,NA,NA,NA,NA,NA,NA,NA,NA,NA,NA
868000000000,"""Richtig""-Screen",canvas.Screen,3_0_2_0_5_1_1,NA,NA,timeout,4995.18,404491,404487.6,404501.86,409481.42,409482,2023-03-24T15:56:28Z,409497.04,NULL,Ergänzung,kijalizo,s,ulaghai,mustarehe,matangazo,NA,sdf,1,2,NA,NA,NA,NA,NA,NA,NA,NA,NA,NA,NA,NA,NA,NA,NA,NA,NA,NA,NA
868000000000,"""Falsch""-Screen",canvas.Screen,3_0_2_0_5_1_2,NA,NA,skipped,NA,409487,NA,NA,409481.42,409487,2023-03-24T15:56:28Z,409497.04,NULL,Ergänzung,kijalizo,s,ulaghai,mustarehe,matangazo,NA,sdf,NA,2,NA,NA,NA,NA,NA,NA,NA,NA,NA,NA,NA,NA,NA,NA,NA,NA,NA,NA,NA
868000000000,shallow,flow.Sequence,3_0_2_0_5_1,NA,NA,completion,17815.16,391652,391649.68,391666.26,409481.42,409487,2023-03-24T15:56:28Z,409497.04,NULL,Ergänzung,kijalizo,s,ulaghai,mustarehe,matangazo,NA,sdf,NA,2,NA,NA,NA,NA,NA,NA,NA,NA,NA,NA,NA,NA,NA,NA,NA,NA,NA,NA,NA
868000000000,task,flow.Sequence,3_0_2_0_5,NA,NA,completion,17815.16,391652,391649.68,391666.26,409481.42,409487,2023-03-24T15:56:28Z,409497.04,NULL,Ergänzung,kijalizo,s,ulaghai,mustarehe,matangazo,NA,sdf,NA,2,NA,NA,NA,NA,NA,NA,NA,NA,NA,NA,NA,NA,NA,NA,NA,NA,NA,NA,NA
868000000000,deep,flow.Sequence,3_0_2_0_6_0,NA,NA,skipped,NA,409487,NA,NA,409481.42,409487,2023-03-24T15:56:28Z,409497.04,NULL,Stimmung,kinyongo,s,kilekile,kisambo,madhehebu,NA,sdf,NA,2,NA,NA,NA,NA,NA,NA,NA,NA,NA,NA,NA,NA,NA,NA,NA,NA,NA,NA,NA
868000000000,Shallow Question,html.Page,3_0_2_0_6_1_0,NA,NA,form submission,5340.96,409488,409481.42,409497.04,414838,414838,2023-03-24T15:56:34Z,414838.56,NULL,Stimmung,kinyongo,s,kilekile,kisambo,madhehebu,kinyongo,NA,NA,2,NA,NA,NA,NA,NA,NA,NA,NA,NA,NA,NA,NA,NA,NA,NA,NA,NA,NA,NA
868000000000,"""Richtig""-Screen",canvas.Screen,3_0_2_0_6_1_1,NA,NA,timeout,4991.8,414840,414836.32,414838.56,419814.9,419817,2023-03-24T15:56:39Z,419830.36,NULL,Stimmung,kinyongo,s,kilekile,kisambo,madhehebu,NA,sdf,1,2,NA,NA,NA,NA,NA,NA,NA,NA,NA,NA,NA,NA,NA,NA,NA,NA,NA,NA,NA
868000000000,"""Falsch""-Screen",canvas.Screen,3_0_2_0_6_1_2,NA,NA,skipped,NA,419822,NA,NA,419814.9,419823,2023-03-24T15:56:39Z,419830.36,NULL,Stimmung,kinyongo,s,kilekile,kisambo,madhehebu,NA,sdf,NA,2,NA,NA,NA,NA,NA,NA,NA,NA,NA,NA,NA,NA,NA,NA,NA,NA,NA,NA,NA
868000000000,shallow,flow.Sequence,3_0_2_0_6_1,NA,NA,completion,10317.86,409488,409481.42,409497.04,419814.9,419823,2023-03-24T15:56:39Z,419830.36,NULL,Stimmung,kinyongo,s,kilekile,kisambo,madhehebu,NA,sdf,NA,2,NA,NA,NA,NA,NA,NA,NA,NA,NA,NA,NA,NA,NA,NA,NA,NA,NA,NA,NA
868000000000,task,flow.Sequence,3_0_2_0_6,NA,NA,completion,10317.86,409487,409481.42,409497.04,419814.9,419823,2023-03-24T15:56:39Z,419830.36,NULL,Stimmung,kinyongo,s,kilekile,kisambo,madhehebu,NA,sdf,NA,2,NA,NA,NA,NA,NA,NA,NA,NA,NA,NA,NA,NA,NA,NA,NA,NA,NA,NA,NA
868000000000,Deep Question,html.Page,3_0_2_0_7_0_0,NA,NA,form submission,8025.64,419824,419814.9,419830.36,427856,427856,2023-03-24T15:56:47Z,427854.18,NULL,Vergnügen,kichekesho,d,NA,NA,NA,dharura,NA,NA,2,NA,NA,NA,NA,NA,NA,NA,NA,NA,NA,NA,NA,NA,NA,NA,NA,NA,NA,NA
868000000000,"""Richtig""-Screen",canvas.Screen,3_0_2_0_7_0_1,NA,NA,skipped,NA,427860,NA,NA,427856,427860,2023-03-24T15:56:47Z,427854.18,NULL,Vergnügen,kichekesho,d,NA,NA,NA,NA,sdf,NA,2,NA,NA,NA,NA,NA,NA,NA,NA,NA,NA,NA,NA,NA,NA,NA,NA,NA,NA,NA
868000000000,"""Falsch""-Screen",canvas.Screen,3_0_2_0_7_0_2,NA,NA,timeout,5007.38,427862,427853.88,427854.18,432844.8,432845,2023-03-24T15:56:52Z,432861.56,NULL,Vergnügen,kichekesho,d,NA,NA,NA,NA,sdf,0,2,NA,NA,NA,NA,NA,NA,NA,NA,NA,NA,NA,NA,NA,NA,NA,NA,NA,NA,NA
868000000000,deep,flow.Sequence,3_0_2_0_7_0,NA,NA,completion,13014.44,419824,419814.9,419830.36,432844.8,432846,2023-03-24T15:56:52Z,432861.56,NULL,Vergnügen,kichekesho,d,NA,NA,NA,NA,sdf,NA,2,NA,NA,NA,NA,NA,NA,NA,NA,NA,NA,NA,NA,NA,NA,NA,NA,NA,NA,NA
868000000000,shallow,flow.Sequence,3_0_2_0_7_1,NA,NA,skipped,NA,432846,NA,NA,432844.8,432846,2023-03-24T15:56:52Z,432861.56,NULL,Vergnügen,kichekesho,d,NA,NA,NA,NA,sdf,NA,2,NA,NA,NA,NA,NA,NA,NA,NA,NA,NA,NA,NA,NA,NA,NA,NA,NA,NA,NA
868000000000,task,flow.Sequence,3_0_2_0_7,NA,NA,completion,13014.44,419824,419814.9,419830.36,432844.8,432846,2023-03-24T15:56:52Z,432861.56,NULL,Vergnügen,kichekesho,d,NA,NA,NA,NA,sdf,NA,2,NA,NA,NA,NA,NA,NA,NA,NA,NA,NA,NA,NA,NA,NA,NA,NA,NA,NA,NA
868000000000,block,flow.Loop,3_0_2_0,NA,NA,completion,94796.54,338044,338031.78,338048.26,432844.8,432847,2023-03-24T15:56:52Z,432861.56,NULL,NA,NA,NA,NA,NA,NA,NA,sdf,NA,2,NA,NA,NA,NA,NA,NA,NA,NA,NA,NA,NA,NA,NA,NA,NA,NA,NA,NA,NA
868000000000,weiter,canvas.Screen,3_0_2_1,sdf,keypress(Space),response,1786.44,432847,432844.8,432861.56,434648,434653,2023-03-24T15:56:54Z,434718.04,NULL,NA,NA,NA,NA,NA,NA,NA,sdf,NA,2,NA,NA,NA,NA,NA,NA,NA,NA,NA,NA,NA,NA,NA,NA,NA,NA,NA,NA,NA
868000000000,check continue,flow.Sequence,3_0_2,NA,NA,completion,96599.74,338044,338031.78,338048.26,434648,434654,2023-03-24T15:56:54Z,434718.04,NULL,NA,NA,NA,NA,NA,NA,NA,sdf,NA,2,NA,NA,NA,NA,NA,NA,NA,NA,NA,NA,NA,NA,NA,NA,NA,NA,NA,NA,NA
868000000000,Deep Question,html.Page,3_0_3_0_0_0_0,NA,NA,form submission,6046.96,434718,434717.74,434718.04,440765,440766,2023-03-24T15:57:00Z,440766.24,NULL,Orientierung,urekebisho,d,NA,NA,NA,dharura,NA,NA,3,NA,NA,NA,NA,NA,NA,NA,NA,NA,NA,NA,NA,NA,NA,NA,NA,NA,NA,NA
868000000000,"""Richtig""-Screen",canvas.Screen,3_0_3_0_0_0_1,NA,NA,skipped,NA,440768,NA,NA,440765,440768,2023-03-24T15:57:00Z,440766.24,NULL,Orientierung,urekebisho,d,NA,NA,NA,NA,qt,NA,3,NA,NA,NA,NA,NA,NA,NA,NA,NA,NA,NA,NA,NA,NA,NA,NA,NA,NA,NA
868000000000,"""Falsch""-Screen",canvas.Screen,3_0_3_0_0_0_2,NA,NA,timeout,5005.48,440770,440764.3,440766.24,445755.06,445755,2023-03-24T15:57:05Z,445771.72,NULL,Orientierung,urekebisho,d,NA,NA,NA,NA,qt,0,3,NA,NA,NA,NA,NA,NA,NA,NA,NA,NA,NA,NA,NA,NA,NA,NA,NA,NA,NA
868000000000,deep,flow.Sequence,3_0_3_0_0_0,NA,NA,completion,11037.02,434718,434717.74,434718.04,445755.06,445756,2023-03-24T15:57:05Z,445771.72,NULL,Orientierung,urekebisho,d,NA,NA,NA,NA,qt,NA,3,NA,NA,NA,NA,NA,NA,NA,NA,NA,NA,NA,NA,NA,NA,NA,NA,NA,NA,NA
868000000000,shallow,flow.Sequence,3_0_3_0_0_1,NA,NA,skipped,NA,445757,NA,NA,445755.06,445757,2023-03-24T15:57:05Z,445771.72,NULL,Orientierung,urekebisho,d,NA,NA,NA,NA,qt,NA,3,NA,NA,NA,NA,NA,NA,NA,NA,NA,NA,NA,NA,NA,NA,NA,NA,NA,NA,NA
868000000000,task,flow.Sequence,3_0_3_0_0,NA,NA,completion,11037.02,434718,434717.74,434718.04,445755.06,445757,2023-03-24T15:57:05Z,445771.72,NULL,Orientierung,urekebisho,d,NA,NA,NA,NA,qt,NA,3,NA,NA,NA,NA,NA,NA,NA,NA,NA,NA,NA,NA,NA,NA,NA,NA,NA,NA,NA
868000000000,deep,flow.Sequence,3_0_3_0_1_0,NA,NA,skipped,NA,445757,NA,NA,445755.06,445757,2023-03-24T15:57:05Z,445771.72,NULL,Stimmung,kinyongo,s,kilekile,kisambo,madhehebu,NA,qt,NA,3,NA,NA,NA,NA,NA,NA,NA,NA,NA,NA,NA,NA,NA,NA,NA,NA,NA,NA,NA
868000000000,Shallow Question,html.Page,3_0_3_0_1_1_0,NA,NA,form submission,4270.28,445757,445755.06,445771.72,450042,450042,2023-03-24T15:57:09Z,450053.38,NULL,Stimmung,kinyongo,s,kilekile,kisambo,madhehebu,kinyongo,NA,NA,3,NA,NA,NA,NA,NA,NA,NA,NA,NA,NA,NA,NA,NA,NA,NA,NA,NA,NA,NA
868000000000,"""Richtig""-Screen",canvas.Screen,3_0_3_0_1_1_1,NA,NA,timeout,5002.06,450044,450039.58,450053.38,455039.9,455041,2023-03-24T15:57:14Z,455055.44,NULL,Stimmung,kinyongo,s,kilekile,kisambo,madhehebu,NA,qt,1,3,NA,NA,NA,NA,NA,NA,NA,NA,NA,NA,NA,NA,NA,NA,NA,NA,NA,NA,NA
868000000000,"""Falsch""-Screen",canvas.Screen,3_0_3_0_1_1_2,NA,NA,skipped,NA,455044,NA,NA,455039.9,455044,2023-03-24T15:57:14Z,455055.44,NULL,Stimmung,kinyongo,s,kilekile,kisambo,madhehebu,NA,qt,NA,3,NA,NA,NA,NA,NA,NA,NA,NA,NA,NA,NA,NA,NA,NA,NA,NA,NA,NA,NA
868000000000,shallow,flow.Sequence,3_0_3_0_1_1,NA,NA,completion,9268.1800000001,445757,445755.06,445771.72,455039.9,455044,2023-03-24T15:57:14Z,455055.44,NULL,Stimmung,kinyongo,s,kilekile,kisambo,madhehebu,NA,qt,NA,3,NA,NA,NA,NA,NA,NA,NA,NA,NA,NA,NA,NA,NA,NA,NA,NA,NA,NA,NA
868000000000,task,flow.Sequence,3_0_3_0_1,NA,NA,completion,9268.1800000001,445757,445755.06,445771.72,455039.9,455045,2023-03-24T15:57:14Z,455055.44,NULL,Stimmung,kinyongo,s,kilekile,kisambo,madhehebu,NA,qt,NA,3,NA,NA,NA,NA,NA,NA,NA,NA,NA,NA,NA,NA,NA,NA,NA,NA,NA,NA,NA
868000000000,deep,flow.Sequence,3_0_3_0_2_0,NA,NA,skipped,NA,455045,NA,NA,455039.9,455045,2023-03-24T15:57:14Z,455055.44,NULL,Wohlstand,mafanikio,s,chimbuko,kumbuko,mapwaji,NA,qt,NA,3,NA,NA,NA,NA,NA,NA,NA,NA,NA,NA,NA,NA,NA,NA,NA,NA,NA,NA,NA
868000000000,Shallow Question,html.Page,3_0_3_0_2_1_0,NA,NA,form submission,5710.56,455045,455039.9,455055.44,460766,460766,2023-03-24T15:57:20Z,460766.74,NULL,Wohlstand,mafanikio,s,chimbuko,kumbuko,mapwaji,mafanikio,NA,NA,3,NA,NA,NA,NA,NA,NA,NA,NA,NA,NA,NA,NA,NA,NA,NA,NA,NA,NA,NA
868000000000,"""Richtig""-Screen",canvas.Screen,3_0_3_0_2_1_1,NA,NA,timeout,4995.26,460768,460764.08,460766.74,465746.22,465746,2023-03-24T15:57:25Z,465762,NULL,Wohlstand,mafanikio,s,chimbuko,kumbuko,mapwaji,NA,qt,1,3,NA,NA,NA,NA,NA,NA,NA,NA,NA,NA,NA,NA,NA,NA,NA,NA,NA,NA,NA
868000000000,"""Falsch""-Screen",canvas.Screen,3_0_3_0_2_1_2,NA,NA,skipped,NA,465749,NA,NA,465746.22,465749,2023-03-24T15:57:25Z,465762,NULL,Wohlstand,mafanikio,s,chimbuko,kumbuko,mapwaji,NA,qt,NA,3,NA,NA,NA,NA,NA,NA,NA,NA,NA,NA,NA,NA,NA,NA,NA,NA,NA,NA,NA
868000000000,shallow,flow.Sequence,3_0_3_0_2_1,NA,NA,completion,10690.78,455045,455039.9,455055.44,465746.22,465749,2023-03-24T15:57:25Z,465762,NULL,Wohlstand,mafanikio,s,chimbuko,kumbuko,mapwaji,NA,qt,NA,3,NA,NA,NA,NA,NA,NA,NA,NA,NA,NA,NA,NA,NA,NA,NA,NA,NA,NA,NA
868000000000,task,flow.Sequence,3_0_3_0_2,NA,NA,completion,10690.78,455045,455039.9,455055.44,465746.22,465749,2023-03-24T15:57:25Z,465762,NULL,Wohlstand,mafanikio,s,chimbuko,kumbuko,mapwaji,NA,qt,NA,3,NA,NA,NA,NA,NA,NA,NA,NA,NA,NA,NA,NA,NA,NA,NA,NA,NA,NA,NA
868000000000,Deep Question,html.Page,3_0_3_0_3_0_0,NA,NA,form submission,2981,465749,465746.22,465762,468743,468744,2023-03-24T15:57:28Z,468746,NULL,Respekt,heshima,d,NA,NA,NA,dharura,NA,NA,3,NA,NA,NA,NA,NA,NA,NA,NA,NA,NA,NA,NA,NA,NA,NA,NA,NA,NA,NA
868000000000,"""Richtig""-Screen",canvas.Screen,3_0_3_0_3_0_1,NA,NA,skipped,NA,468745,NA,NA,468743,468745,2023-03-24T15:57:28Z,468746,NULL,Respekt,heshima,d,NA,NA,NA,NA,qt,NA,3,NA,NA,NA,NA,NA,NA,NA,NA,NA,NA,NA,NA,NA,NA,NA,NA,NA,NA,NA
868000000000,"""Falsch""-Screen",canvas.Screen,3_0_3_0_3_0_2,NA,NA,timeout,4999.9,468747,468742.28,468746,473729.38,473731,2023-03-24T15:57:33Z,473745.9,NULL,Respekt,heshima,d,NA,NA,NA,NA,qt,0,3,NA,NA,NA,NA,NA,NA,NA,NA,NA,NA,NA,NA,NA,NA,NA,NA,NA,NA,NA
868000000000,deep,flow.Sequence,3_0_3_0_3_0,NA,NA,completion,7967.38,465749,465746.22,465762,473729.38,473732,2023-03-24T15:57:33Z,473745.9,NULL,Respekt,heshima,d,NA,NA,NA,NA,qt,NA,3,NA,NA,NA,NA,NA,NA,NA,NA,NA,NA,NA,NA,NA,NA,NA,NA,NA,NA,NA
868000000000,shallow,flow.Sequence,3_0_3_0_3_1,NA,NA,skipped,NA,473732,NA,NA,473729.38,473733,2023-03-24T15:57:33Z,473745.9,NULL,Respekt,heshima,d,NA,NA,NA,NA,qt,NA,3,NA,NA,NA,NA,NA,NA,NA,NA,NA,NA,NA,NA,NA,NA,NA,NA,NA,NA,NA
868000000000,task,flow.Sequence,3_0_3_0_3,NA,NA,completion,7967.38,465749,465746.22,465762,473729.38,473733,2023-03-24T15:57:33Z,473745.9,NULL,Respekt,heshima,d,NA,NA,NA,NA,qt,NA,3,NA,NA,NA,NA,NA,NA,NA,NA,NA,NA,NA,NA,NA,NA,NA,NA,NA,NA,NA
868000000000,Deep Question,html.Page,3_0_3_0_4_0_0,NA,NA,form submission,8186.1,473733,473729.38,473745.9,481932,481933,2023-03-24T15:57:41Z,481939.54,NULL,Vergnügen,kichekesho,d,NA,NA,NA,kinyongo,NA,NA,3,NA,NA,NA,NA,NA,NA,NA,NA,NA,NA,NA,NA,NA,NA,NA,NA,NA,NA,NA
868000000000,"""Richtig""-Screen",canvas.Screen,3_0_3_0_4_0_1,NA,NA,skipped,NA,481939,NA,NA,481932,481939,2023-03-24T15:57:41Z,481939.54,NULL,Vergnügen,kichekesho,d,NA,NA,NA,NA,qt,NA,3,NA,NA,NA,NA,NA,NA,NA,NA,NA,NA,NA,NA,NA,NA,NA,NA,NA,NA,NA
868000000000,"""Falsch""-Screen",canvas.Screen,3_0_3_0_4_0_2,NA,NA,timeout,4996.16,481942,481931.18,481939.54,486920.22,486921,2023-03-24T15:57:46Z,486935.7,NULL,Vergnügen,kichekesho,d,NA,NA,NA,NA,qt,0,3,NA,NA,NA,NA,NA,NA,NA,NA,NA,NA,NA,NA,NA,NA,NA,NA,NA,NA,NA
868000000000,deep,flow.Sequence,3_0_3_0_4_0,NA,NA,completion,13174.32,473733,473729.38,473745.9,486920.22,486921,2023-03-24T15:57:46Z,486935.7,NULL,Vergnügen,kichekesho,d,NA,NA,NA,NA,qt,NA,3,NA,NA,NA,NA,NA,NA,NA,NA,NA,NA,NA,NA,NA,NA,NA,NA,NA,NA,NA
868000000000,shallow,flow.Sequence,3_0_3_0_4_1,NA,NA,skipped,NA,486922,NA,NA,486920.22,486922,2023-03-24T15:57:46Z,486935.7,NULL,Vergnügen,kichekesho,d,NA,NA,NA,NA,qt,NA,3,NA,NA,NA,NA,NA,NA,NA,NA,NA,NA,NA,NA,NA,NA,NA,NA,NA,NA,NA
868000000000,task,flow.Sequence,3_0_3_0_4,NA,NA,completion,13174.32,473733,473729.38,473745.9,486920.22,486922,2023-03-24T15:57:46Z,486935.7,NULL,Vergnügen,kichekesho,d,NA,NA,NA,NA,qt,NA,3,NA,NA,NA,NA,NA,NA,NA,NA,NA,NA,NA,NA,NA,NA,NA,NA,NA,NA,NA
868000000000,Deep Question,html.Page,3_0_3_0_5_0_0,NA,NA,form submission,5187.3,486924,486920.22,486935.7,492123,492123,2023-03-24T15:57:51Z,492121.84,NULL,Notfall,dharura,d,NA,NA,NA,salama,NA,NA,3,NA,NA,NA,NA,NA,NA,NA,NA,NA,NA,NA,NA,NA,NA,NA,NA,NA,NA,NA
868000000000,"""Richtig""-Screen",canvas.Screen,3_0_3_0_5_0_1,NA,NA,skipped,NA,492125,NA,NA,492123,492126,2023-03-24T15:57:51Z,492121.84,NULL,Notfall,dharura,d,NA,NA,NA,NA,qt,NA,3,NA,NA,NA,NA,NA,NA,NA,NA,NA,NA,NA,NA,NA,NA,NA,NA,NA,NA,NA
868000000000,"""Falsch""-Screen",canvas.Screen,3_0_3_0_5_0_2,NA,NA,timeout,5007,492127,492121.58,492121.84,497111.84,497113,2023-03-24T15:57:56Z,497128.84,NULL,Notfall,dharura,d,NA,NA,NA,NA,qt,0,3,NA,NA,NA,NA,NA,NA,NA,NA,NA,NA,NA,NA,NA,NA,NA,NA,NA,NA,NA
868000000000,deep,flow.Sequence,3_0_3_0_5_0,NA,NA,completion,10176.14,486924,486920.22,486935.7,497111.84,497113,2023-03-24T15:57:56Z,497128.84,NULL,Notfall,dharura,d,NA,NA,NA,NA,qt,NA,3,NA,NA,NA,NA,NA,NA,NA,NA,NA,NA,NA,NA,NA,NA,NA,NA,NA,NA,NA
868000000000,shallow,flow.Sequence,3_0_3_0_5_1,NA,NA,skipped,NA,497113,NA,NA,497111.84,497113,2023-03-24T15:57:56Z,497128.84,NULL,Notfall,dharura,d,NA,NA,NA,NA,qt,NA,3,NA,NA,NA,NA,NA,NA,NA,NA,NA,NA,NA,NA,NA,NA,NA,NA,NA,NA,NA
868000000000,task,flow.Sequence,3_0_3_0_5,NA,NA,completion,10176.14,486923,486920.22,486935.7,497111.84,497113,2023-03-24T15:57:56Z,497128.84,NULL,Notfall,dharura,d,NA,NA,NA,NA,qt,NA,3,NA,NA,NA,NA,NA,NA,NA,NA,NA,NA,NA,NA,NA,NA,NA,NA,NA,NA,NA
868000000000,deep,flow.Sequence,3_0_3_0_6_0,NA,NA,skipped,NA,497114,NA,NA,497111.84,497114,2023-03-24T15:57:56Z,497128.84,NULL,Betrüger,mdanganyifu,s,mwanamuziki,wastani,mahakama,NA,qt,NA,3,NA,NA,NA,NA,NA,NA,NA,NA,NA,NA,NA,NA,NA,NA,NA,NA,NA,NA,NA
868000000000,Shallow Question,html.Page,3_0_3_0_6_1_0,NA,NA,form submission,4405.16,497114,497111.84,497128.84,501534,501535,2023-03-24T15:58:01Z,501561.88,NULL,Betrüger,mdanganyifu,s,mwanamuziki,wastani,mahakama,mdanganyifu,NA,NA,3,NA,NA,NA,NA,NA,NA,NA,NA,NA,NA,NA,NA,NA,NA,NA,NA,NA,NA,NA
868000000000,"""Richtig""-Screen",canvas.Screen,3_0_3_0_6_1_1,NA,NA,timeout,4991.8,501537,501532.84,501561.88,506537.94,506538,2023-03-24T15:58:06Z,506553.68,NULL,Betrüger,mdanganyifu,s,mwanamuziki,wastani,mahakama,NA,qt,1,3,NA,NA,NA,NA,NA,NA,NA,NA,NA,NA,NA,NA,NA,NA,NA,NA,NA,NA,NA
868000000000,"""Falsch""-Screen",canvas.Screen,3_0_3_0_6_1_2,NA,NA,skipped,NA,506542,NA,NA,506537.94,506542,2023-03-24T15:58:06Z,506553.68,NULL,Betrüger,mdanganyifu,s,mwanamuziki,wastani,mahakama,NA,qt,NA,3,NA,NA,NA,NA,NA,NA,NA,NA,NA,NA,NA,NA,NA,NA,NA,NA,NA,NA,NA
868000000000,shallow,flow.Sequence,3_0_3_0_6_1,NA,NA,completion,9409.1,497114,497111.84,497128.84,506537.94,506542,2023-03-24T15:58:06Z,506553.68,NULL,Betrüger,mdanganyifu,s,mwanamuziki,wastani,mahakama,NA,qt,NA,3,NA,NA,NA,NA,NA,NA,NA,NA,NA,NA,NA,NA,NA,NA,NA,NA,NA,NA,NA
868000000000,task,flow.Sequence,3_0_3_0_6,NA,NA,completion,9409.1,497113,497111.84,497128.84,506537.94,506543,2023-03-24T15:58:06Z,506553.68,NULL,Betrüger,mdanganyifu,s,mwanamuziki,wastani,mahakama,NA,qt,NA,3,NA,NA,NA,NA,NA,NA,NA,NA,NA,NA,NA,NA,NA,NA,NA,NA,NA,NA,NA
868000000000,deep,flow.Sequence,3_0_3_0_7_0,NA,NA,skipped,NA,506543,NA,NA,506537.94,506543,2023-03-24T15:58:06Z,506553.68,NULL,Ergänzung,kijalizo,s,ulaghai,mustarehe,matangazo,NA,qt,NA,3,NA,NA,NA,NA,NA,NA,NA,NA,NA,NA,NA,NA,NA,NA,NA,NA,NA,NA,NA
868000000000,Shallow Question,html.Page,3_0_3_0_7_1_0,NA,NA,form submission,5823.32,506543,506537.94,506553.68,512377,512378,2023-03-24T15:58:11Z,512382.12,NULL,Ergänzung,kijalizo,s,ulaghai,mustarehe,matangazo,mustarehe,NA,NA,3,NA,NA,NA,NA,NA,NA,NA,NA,NA,NA,NA,NA,NA,NA,NA,NA,NA,NA,NA
868000000000,"""Richtig""-Screen",canvas.Screen,3_0_3_0_7_1_1,NA,NA,skipped,NA,512380,NA,NA,512377,512380,2023-03-24T15:58:11Z,512382.12,NULL,Ergänzung,kijalizo,s,ulaghai,mustarehe,matangazo,NA,qt,NA,3,NA,NA,NA,NA,NA,NA,NA,NA,NA,NA,NA,NA,NA,NA,NA,NA,NA,NA,NA
868000000000,"""Falsch""-Screen",canvas.Screen,3_0_3_0_7_1_2,NA,NA,timeout,5000.72,512381,512375.54,512382.12,517365.42,517366,2023-03-24T15:58:16Z,517382.84,NULL,Ergänzung,kijalizo,s,ulaghai,mustarehe,matangazo,NA,qt,0,3,NA,NA,NA,NA,NA,NA,NA,NA,NA,NA,NA,NA,NA,NA,NA,NA,NA,NA,NA
868000000000,shallow,flow.Sequence,3_0_3_0_7_1,NA,NA,completion,10811.74,506543,506537.94,506553.68,517365.42,517367,2023-03-24T15:58:16Z,517382.84,NULL,Ergänzung,kijalizo,s,ulaghai,mustarehe,matangazo,NA,qt,NA,3,NA,NA,NA,NA,NA,NA,NA,NA,NA,NA,NA,NA,NA,NA,NA,NA,NA,NA,NA
868000000000,task,flow.Sequence,3_0_3_0_7,NA,NA,completion,10811.74,506543,506537.94,506553.68,517365.42,517367,2023-03-24T15:58:16Z,517382.84,NULL,Ergänzung,kijalizo,s,ulaghai,mustarehe,matangazo,NA,qt,NA,3,NA,NA,NA,NA,NA,NA,NA,NA,NA,NA,NA,NA,NA,NA,NA,NA,NA,NA,NA
868000000000,block,flow.Loop,3_0_3_0,NA,NA,completion,82647.38,434718,434717.74,434718.04,517365.42,517368,2023-03-24T15:58:16Z,517382.84,NULL,NA,NA,NA,NA,NA,NA,NA,qt,NA,3,NA,NA,NA,NA,NA,NA,NA,NA,NA,NA,NA,NA,NA,NA,NA,NA,NA,NA,NA
868000000000,weiter,canvas.Screen,3_0_3_1,sdf,keypress(Space),response,944.15999999997,517368,517365.42,517382.84,518327,518333,2023-03-24T15:58:17Z,518394.54,NULL,NA,NA,NA,NA,NA,NA,NA,qt,NA,3,NA,NA,NA,NA,NA,NA,NA,NA,NA,NA,NA,NA,NA,NA,NA,NA,NA,NA,NA
868000000000,check continue,flow.Sequence,3_0_3,NA,NA,completion,83608.96,434718,434717.74,434718.04,518327,518333,2023-03-24T15:58:17Z,518394.54,NULL,NA,NA,NA,NA,NA,NA,NA,qt,NA,3,NA,NA,NA,NA,NA,NA,NA,NA,NA,NA,NA,NA,NA,NA,NA,NA,NA,NA,NA
868000000000,Deep Question,html.Page,3_0_4_0_0_0_0,NA,NA,form submission,9791.46,518394,518394.24,518394.54,528186,528186,2023-03-24T15:58:27Z,528184.58,NULL,Vergnügen,kichekesho,d,NA,NA,NA,kichekesho,NA,NA,4,NA,NA,NA,NA,NA,NA,NA,NA,NA,NA,NA,NA,NA,NA,NA,NA,NA,NA,NA
868000000000,"""Richtig""-Screen",canvas.Screen,3_0_4_0_0_0_1,NA,NA,timeout,4998.78,528188,528184.48,528184.58,533166.54,533167,2023-03-24T15:58:32Z,533183.36,NULL,Vergnügen,kichekesho,d,NA,NA,NA,NA,sd,1,4,NA,NA,NA,NA,NA,NA,NA,NA,NA,NA,NA,NA,NA,NA,NA,NA,NA,NA,NA
868000000000,"""Falsch""-Screen",canvas.Screen,3_0_4_0_0_0_2,NA,NA,skipped,NA,533169,NA,NA,533166.54,533170,2023-03-24T15:58:32Z,533183.36,NULL,Vergnügen,kichekesho,d,NA,NA,NA,NA,sd,NA,4,NA,NA,NA,NA,NA,NA,NA,NA,NA,NA,NA,NA,NA,NA,NA,NA,NA,NA,NA
868000000000,deep,flow.Sequence,3_0_4_0_0_0,NA,NA,completion,14772,518394,518394.24,518394.54,533166.54,533170,2023-03-24T15:58:32Z,533183.36,NULL,Vergnügen,kichekesho,d,NA,NA,NA,NA,sd,NA,4,NA,NA,NA,NA,NA,NA,NA,NA,NA,NA,NA,NA,NA,NA,NA,NA,NA,NA,NA
868000000000,shallow,flow.Sequence,3_0_4_0_0_1,NA,NA,skipped,NA,533170,NA,NA,533166.54,533170,2023-03-24T15:58:32Z,533183.36,NULL,Vergnügen,kichekesho,d,NA,NA,NA,NA,sd,NA,4,NA,NA,NA,NA,NA,NA,NA,NA,NA,NA,NA,NA,NA,NA,NA,NA,NA,NA,NA
868000000000,task,flow.Sequence,3_0_4_0_0,NA,NA,completion,14772,518394,518394.24,518394.54,533166.54,533170,2023-03-24T15:58:32Z,533183.36,NULL,Vergnügen,kichekesho,d,NA,NA,NA,NA,sd,NA,4,NA,NA,NA,NA,NA,NA,NA,NA,NA,NA,NA,NA,NA,NA,NA,NA,NA,NA,NA
868000000000,deep,flow.Sequence,3_0_4_0_1_0,NA,NA,skipped,NA,533170,NA,NA,533166.54,533171,2023-03-24T15:58:32Z,533183.36,NULL,Stimmung,kinyongo,s,kilekile,kisambo,madhehebu,NA,sd,NA,4,NA,NA,NA,NA,NA,NA,NA,NA,NA,NA,NA,NA,NA,NA,NA,NA,NA,NA,NA
868000000000,Shallow Question,html.Page,3_0_4_0_1_1_0,NA,NA,form submission,5470.64,533171,533166.54,533183.36,538654,538655,2023-03-24T15:58:38Z,538661.84,NULL,Stimmung,kinyongo,s,kilekile,kisambo,madhehebu,kinyongo,NA,NA,4,NA,NA,NA,NA,NA,NA,NA,NA,NA,NA,NA,NA,NA,NA,NA,NA,NA,NA,NA
868000000000,"""Richtig""-Screen",canvas.Screen,3_0_4_0_1_1_1,NA,NA,timeout,4992.9400000001,538656,538651.8,538661.84,543638.14,543639,2023-03-24T15:58:43Z,543654.78,NULL,Stimmung,kinyongo,s,kilekile,kisambo,madhehebu,NA,sd,1,4,NA,NA,NA,NA,NA,NA,NA,NA,NA,NA,NA,NA,NA,NA,NA,NA,NA,NA,NA
868000000000,"""Falsch""-Screen",canvas.Screen,3_0_4_0_1_1_2,NA,NA,skipped,NA,543641,NA,NA,543638.14,543641,2023-03-24T15:58:43Z,543654.78,NULL,Stimmung,kinyongo,s,kilekile,kisambo,madhehebu,NA,sd,NA,4,NA,NA,NA,NA,NA,NA,NA,NA,NA,NA,NA,NA,NA,NA,NA,NA,NA,NA,NA
868000000000,shallow,flow.Sequence,3_0_4_0_1_1,NA,NA,completion,10454.78,533171,533166.54,533183.36,543638.14,543641,2023-03-24T15:58:43Z,543654.78,NULL,Stimmung,kinyongo,s,kilekile,kisambo,madhehebu,NA,sd,NA,4,NA,NA,NA,NA,NA,NA,NA,NA,NA,NA,NA,NA,NA,NA,NA,NA,NA,NA,NA
868000000000,task,flow.Sequence,3_0_4_0_1,NA,NA,completion,10454.78,533170,533166.54,533183.36,543638.14,543641,2023-03-24T15:58:43Z,543654.78,NULL,Stimmung,kinyongo,s,kilekile,kisambo,madhehebu,NA,sd,NA,4,NA,NA,NA,NA,NA,NA,NA,NA,NA,NA,NA,NA,NA,NA,NA,NA,NA,NA,NA
868000000000,deep,flow.Sequence,3_0_4_0_2_0,NA,NA,skipped,NA,543641,NA,NA,543638.14,543641,2023-03-24T15:58:43Z,543654.78,NULL,Wohlstand,mafanikio,s,chimbuko,kumbuko,mapwaji,NA,sd,NA,4,NA,NA,NA,NA,NA,NA,NA,NA,NA,NA,NA,NA,NA,NA,NA,NA,NA,NA,NA
868000000000,Shallow Question,html.Page,3_0_4_0_2_1_0,NA,NA,form submission,6245.22,543641,543638.14,543654.78,549900,549900,2023-03-24T15:58:49Z,549908.22,NULL,Wohlstand,mafanikio,s,chimbuko,kumbuko,mapwaji,mafanikio,NA,NA,4,NA,NA,NA,NA,NA,NA,NA,NA,NA,NA,NA,NA,NA,NA,NA,NA,NA,NA,NA
868000000000,"""Richtig""-Screen",canvas.Screen,3_0_4_0_2_1_1,NA,NA,timeout,4997.9,549902,549898.1,549908.22,554890.2,554890,2023-03-24T15:58:54Z,554906.12,NULL,Wohlstand,mafanikio,s,chimbuko,kumbuko,mapwaji,NA,sd,1,4,NA,NA,NA,NA,NA,NA,NA,NA,NA,NA,NA,NA,NA,NA,NA,NA,NA,NA,NA
868000000000,"""Falsch""-Screen",canvas.Screen,3_0_4_0_2_1_2,NA,NA,skipped,NA,554893,NA,NA,554890.2,554893,2023-03-24T15:58:54Z,554906.12,NULL,Wohlstand,mafanikio,s,chimbuko,kumbuko,mapwaji,NA,sd,NA,4,NA,NA,NA,NA,NA,NA,NA,NA,NA,NA,NA,NA,NA,NA,NA,NA,NA,NA,NA
868000000000,shallow,flow.Sequence,3_0_4_0_2_1,NA,NA,completion,11235.42,543641,543638.14,543654.78,554890.2,554893,2023-03-24T15:58:54Z,554906.12,NULL,Wohlstand,mafanikio,s,chimbuko,kumbuko,mapwaji,NA,sd,NA,4,NA,NA,NA,NA,NA,NA,NA,NA,NA,NA,NA,NA,NA,NA,NA,NA,NA,NA,NA
868000000000,task,flow.Sequence,3_0_4_0_2,NA,NA,completion,11235.42,543641,543638.14,543654.78,554890.2,554893,2023-03-24T15:58:54Z,554906.12,NULL,Wohlstand,mafanikio,s,chimbuko,kumbuko,mapwaji,NA,sd,NA,4,NA,NA,NA,NA,NA,NA,NA,NA,NA,NA,NA,NA,NA,NA,NA,NA,NA,NA,NA
868000000000,deep,flow.Sequence,3_0_4_0_3_0,NA,NA,skipped,NA,554893,NA,NA,554890.2,554893,2023-03-24T15:58:54Z,554906.12,NULL,Ergänzung,kijalizo,s,ulaghai,mustarehe,matangazo,NA,sd,NA,4,NA,NA,NA,NA,NA,NA,NA,NA,NA,NA,NA,NA,NA,NA,NA,NA,NA,NA,NA
868000000000,Shallow Question,html.Page,3_0_4_0_3_1_0,NA,NA,form submission,6813.88,554893,554890.2,554906.12,561720,561720,2023-03-24T15:59:01Z,561723.24,NULL,Ergänzung,kijalizo,s,ulaghai,mustarehe,matangazo,mustarehe,NA,NA,4,NA,NA,NA,NA,NA,NA,NA,NA,NA,NA,NA,NA,NA,NA,NA,NA,NA,NA,NA
868000000000,"""Richtig""-Screen",canvas.Screen,3_0_4_0_3_1_1,NA,NA,skipped,NA,561722,NA,NA,561720,561722,2023-03-24T15:59:01Z,561723.24,NULL,Ergänzung,kijalizo,s,ulaghai,mustarehe,matangazo,NA,sd,NA,4,NA,NA,NA,NA,NA,NA,NA,NA,NA,NA,NA,NA,NA,NA,NA,NA,NA,NA,NA
868000000000,"""Falsch""-Screen",canvas.Screen,3_0_4_0_3_1_2,NA,NA,timeout,4995.8,561725,561718.68,561723.24,566702.04,566703,2023-03-24T15:59:06Z,566719.04,NULL,Ergänzung,kijalizo,s,ulaghai,mustarehe,matangazo,NA,sd,0,4,NA,NA,NA,NA,NA,NA,NA,NA,NA,NA,NA,NA,NA,NA,NA,NA,NA,NA,NA
868000000000,shallow,flow.Sequence,3_0_4_0_3_1,NA,NA,completion,11795.92,554893,554890.2,554906.12,566702.04,566703,2023-03-24T15:59:06Z,566719.04,NULL,Ergänzung,kijalizo,s,ulaghai,mustarehe,matangazo,NA,sd,NA,4,NA,NA,NA,NA,NA,NA,NA,NA,NA,NA,NA,NA,NA,NA,NA,NA,NA,NA,NA
868000000000,task,flow.Sequence,3_0_4_0_3,NA,NA,completion,11795.92,554893,554890.2,554906.12,566702.04,566703,2023-03-24T15:59:06Z,566719.04,NULL,Ergänzung,kijalizo,s,ulaghai,mustarehe,matangazo,NA,sd,NA,4,NA,NA,NA,NA,NA,NA,NA,NA,NA,NA,NA,NA,NA,NA,NA,NA,NA,NA,NA
868000000000,Deep Question,html.Page,3_0_4_0_4_0_0,NA,NA,form submission,6436.96,566703,566702.04,566719.04,573156,573157,2023-03-24T15:59:12Z,573155.56,NULL,Notfall,dharura,d,NA,NA,NA,dharura,NA,NA,4,NA,NA,NA,NA,NA,NA,NA,NA,NA,NA,NA,NA,NA,NA,NA,NA,NA,NA,NA
868000000000,"""Richtig""-Screen",canvas.Screen,3_0_4_0_4_0_1,NA,NA,timeout,4999.48,573163,573155.3,573155.56,578137.84,578140,2023-03-24T15:59:17Z,578155.04,NULL,Notfall,dharura,d,NA,NA,NA,NA,sd,1,4,NA,NA,NA,NA,NA,NA,NA,NA,NA,NA,NA,NA,NA,NA,NA,NA,NA,NA,NA
868000000000,"""Falsch""-Screen",canvas.Screen,3_0_4_0_4_0_2,NA,NA,skipped,NA,578145,NA,NA,578137.84,578146,2023-03-24T15:59:17Z,578155.04,NULL,Notfall,dharura,d,NA,NA,NA,NA,sd,NA,4,NA,NA,NA,NA,NA,NA,NA,NA,NA,NA,NA,NA,NA,NA,NA,NA,NA,NA,NA
868000000000,deep,flow.Sequence,3_0_4_0_4_0,NA,NA,completion,11418.8,566703,566702.04,566719.04,578137.84,578146,2023-03-24T15:59:17Z,578155.04,NULL,Notfall,dharura,d,NA,NA,NA,NA,sd,NA,4,NA,NA,NA,NA,NA,NA,NA,NA,NA,NA,NA,NA,NA,NA,NA,NA,NA,NA,NA
868000000000,shallow,flow.Sequence,3_0_4_0_4_1,NA,NA,skipped,NA,578146,NA,NA,578137.84,578146,2023-03-24T15:59:17Z,578155.04,NULL,Notfall,dharura,d,NA,NA,NA,NA,sd,NA,4,NA,NA,NA,NA,NA,NA,NA,NA,NA,NA,NA,NA,NA,NA,NA,NA,NA,NA,NA
868000000000,task,flow.Sequence,3_0_4_0_4,NA,NA,completion,11418.8,566703,566702.04,566719.04,578137.84,578147,2023-03-24T15:59:17Z,578155.04,NULL,Notfall,dharura,d,NA,NA,NA,NA,sd,NA,4,NA,NA,NA,NA,NA,NA,NA,NA,NA,NA,NA,NA,NA,NA,NA,NA,NA,NA,NA
868000000000,Deep Question,html.Page,3_0_4_0_5_0_0,NA,NA,form submission,4690.96,578147,578137.84,578155.04,582846,582846,2023-03-24T15:59:22Z,582848.24,NULL,Respekt,heshima,d,NA,NA,NA,salama,NA,NA,4,NA,NA,NA,NA,NA,NA,NA,NA,NA,NA,NA,NA,NA,NA,NA,NA,NA,NA,NA
868000000000,"""Richtig""-Screen",canvas.Screen,3_0_4_0_5_0_1,NA,NA,skipped,NA,582850,NA,NA,582846,582850,2023-03-24T15:59:22Z,582848.24,NULL,Respekt,heshima,d,NA,NA,NA,NA,sd,NA,4,NA,NA,NA,NA,NA,NA,NA,NA,NA,NA,NA,NA,NA,NA,NA,NA,NA,NA,NA
868000000000,"""Falsch""-Screen",canvas.Screen,3_0_4_0_5_0_2,NA,NA,timeout,5006.22,582852,582845.06,582848.24,587837.82,587838,2023-03-24T15:59:27Z,587854.46,NULL,Respekt,heshima,d,NA,NA,NA,NA,sd,0,4,NA,NA,NA,NA,NA,NA,NA,NA,NA,NA,NA,NA,NA,NA,NA,NA,NA,NA,NA
868000000000,deep,flow.Sequence,3_0_4_0_5_0,NA,NA,completion,9682.7799999999,578147,578137.84,578155.04,587837.82,587838,2023-03-24T15:59:27Z,587854.46,NULL,Respekt,heshima,d,NA,NA,NA,NA,sd,NA,4,NA,NA,NA,NA,NA,NA,NA,NA,NA,NA,NA,NA,NA,NA,NA,NA,NA,NA,NA
868000000000,shallow,flow.Sequence,3_0_4_0_5_1,NA,NA,skipped,NA,587839,NA,NA,587837.82,587839,2023-03-24T15:59:27Z,587854.46,NULL,Respekt,heshima,d,NA,NA,NA,NA,sd,NA,4,NA,NA,NA,NA,NA,NA,NA,NA,NA,NA,NA,NA,NA,NA,NA,NA,NA,NA,NA
868000000000,task,flow.Sequence,3_0_4_0_5,NA,NA,completion,9682.7799999999,578147,578137.84,578155.04,587837.82,587839,2023-03-24T15:59:27Z,587854.46,NULL,Respekt,heshima,d,NA,NA,NA,NA,sd,NA,4,NA,NA,NA,NA,NA,NA,NA,NA,NA,NA,NA,NA,NA,NA,NA,NA,NA,NA,NA
868000000000,deep,flow.Sequence,3_0_4_0_6_0,NA,NA,skipped,NA,587839,NA,NA,587837.82,587839,2023-03-24T15:59:27Z,587854.46,NULL,Betrüger,mdanganyifu,s,mwanamuziki,wastani,mahakama,NA,sd,NA,4,NA,NA,NA,NA,NA,NA,NA,NA,NA,NA,NA,NA,NA,NA,NA,NA,NA,NA,NA
868000000000,Shallow Question,html.Page,3_0_4_0_6_1_0,NA,NA,form submission,3914.54,587840,587837.82,587854.46,591769,591770,2023-03-24T15:59:31Z,591779.52,NULL,Betrüger,mdanganyifu,s,mwanamuziki,wastani,mahakama,mdanganyifu,NA,NA,4,NA,NA,NA,NA,NA,NA,NA,NA,NA,NA,NA,NA,NA,NA,NA,NA,NA,NA,NA
868000000000,"""Richtig""-Screen",canvas.Screen,3_0_4_0_6_1_1,NA,NA,timeout,4996.66,591771,591767.06,591779.52,596759.54,596760,2023-03-24T15:59:36Z,596776.18,NULL,Betrüger,mdanganyifu,s,mwanamuziki,wastani,mahakama,NA,sd,1,4,NA,NA,NA,NA,NA,NA,NA,NA,NA,NA,NA,NA,NA,NA,NA,NA,NA,NA,NA
868000000000,"""Falsch""-Screen",canvas.Screen,3_0_4_0_6_1_2,NA,NA,skipped,NA,596763,NA,NA,596759.54,596763,2023-03-24T15:59:36Z,596776.18,NULL,Betrüger,mdanganyifu,s,mwanamuziki,wastani,mahakama,NA,sd,NA,4,NA,NA,NA,NA,NA,NA,NA,NA,NA,NA,NA,NA,NA,NA,NA,NA,NA,NA,NA
868000000000,shallow,flow.Sequence,3_0_4_0_6_1,NA,NA,completion,8905.0800000001,587840,587837.82,587854.46,596759.54,596763,2023-03-24T15:59:36Z,596776.18,NULL,Betrüger,mdanganyifu,s,mwanamuziki,wastani,mahakama,NA,sd,NA,4,NA,NA,NA,NA,NA,NA,NA,NA,NA,NA,NA,NA,NA,NA,NA,NA,NA,NA,NA
868000000000,task,flow.Sequence,3_0_4_0_6,NA,NA,completion,8905.0800000001,587839,587837.82,587854.46,596759.54,596763,2023-03-24T15:59:36Z,596776.18,NULL,Betrüger,mdanganyifu,s,mwanamuziki,wastani,mahakama,NA,sd,NA,4,NA,NA,NA,NA,NA,NA,NA,NA,NA,NA,NA,NA,NA,NA,NA,NA,NA,NA,NA
868000000000,Deep Question,html.Page,3_0_4_0_7_0_0,NA,NA,form submission,7605.8199999999,596764,596759.54,596776.18,604382,604382,2023-03-24T15:59:43Z,604394.9,NULL,Orientierung,urekebisho,d,NA,NA,NA,salama,NA,NA,4,NA,NA,NA,NA,NA,NA,NA,NA,NA,NA,NA,NA,NA,NA,NA,NA,NA,NA,NA
868000000000,"""Richtig""-Screen",canvas.Screen,3_0_4_0_7_0_1,NA,NA,skipped,NA,604385,NA,NA,604382,604385,2023-03-24T15:59:43Z,604394.9,NULL,Orientierung,urekebisho,d,NA,NA,NA,NA,sd,NA,4,NA,NA,NA,NA,NA,NA,NA,NA,NA,NA,NA,NA,NA,NA,NA,NA,NA,NA,NA
868000000000,"""Falsch""-Screen",canvas.Screen,3_0_4_0_7_0_2,NA,NA,timeout,4997.02,604388,604381.48,604394.9,609375.88,609376,2023-03-24T15:59:48Z,609391.92,NULL,Orientierung,urekebisho,d,NA,NA,NA,NA,sd,0,4,NA,NA,NA,NA,NA,NA,NA,NA,NA,NA,NA,NA,NA,NA,NA,NA,NA,NA,NA
868000000000,deep,flow.Sequence,3_0_4_0_7_0,NA,NA,completion,12599.7,596764,596759.54,596776.18,609375.88,609376,2023-03-24T15:59:48Z,609391.92,NULL,Orientierung,urekebisho,d,NA,NA,NA,NA,sd,NA,4,NA,NA,NA,NA,NA,NA,NA,NA,NA,NA,NA,NA,NA,NA,NA,NA,NA,NA,NA
868000000000,shallow,flow.Sequence,3_0_4_0_7_1,NA,NA,skipped,NA,609377,NA,NA,609375.88,609377,2023-03-24T15:59:48Z,609391.92,NULL,Orientierung,urekebisho,d,NA,NA,NA,NA,sd,NA,4,NA,NA,NA,NA,NA,NA,NA,NA,NA,NA,NA,NA,NA,NA,NA,NA,NA,NA,NA
868000000000,task,flow.Sequence,3_0_4_0_7,NA,NA,completion,12599.7,596764,596759.54,596776.18,609375.88,609378,2023-03-24T15:59:48Z,609391.92,NULL,Orientierung,urekebisho,d,NA,NA,NA,NA,sd,NA,4,NA,NA,NA,NA,NA,NA,NA,NA,NA,NA,NA,NA,NA,NA,NA,NA,NA,NA,NA
868000000000,block,flow.Loop,3_0_4_0,NA,NA,completion,90981.34,518394,518394.24,518394.54,609375.88,609378,2023-03-24T15:59:48Z,609391.92,NULL,NA,NA,NA,NA,NA,NA,NA,sd,NA,4,NA,NA,NA,NA,NA,NA,NA,NA,NA,NA,NA,NA,NA,NA,NA,NA,NA,NA,NA
868000000000,weiter,canvas.Screen,3_0_4_1,sdf,keypress(Space),response,961.07999999996,609378,609375.88,609391.92,610353,610359,2023-03-24T15:59:49Z,610413.98,NULL,NA,NA,NA,NA,NA,NA,NA,sd,NA,4,NA,NA,NA,NA,NA,NA,NA,NA,NA,NA,NA,NA,NA,NA,NA,NA,NA,NA,NA
868000000000,check continue,flow.Sequence,3_0_4,NA,NA,completion,91958.46,518394,518394.24,518394.54,610353,610360,2023-03-24T15:59:49Z,610413.98,NULL,NA,NA,NA,NA,NA,NA,NA,sd,NA,4,NA,NA,NA,NA,NA,NA,NA,NA,NA,NA,NA,NA,NA,NA,NA,NA,NA,NA,NA
868000000000,deep,flow.Sequence,3_0_5_0_0_0,NA,NA,skipped,NA,610413,NA,NA,610353,610413,2023-03-24T15:59:49Z,610413.98,NULL,Betrüger,mdanganyifu,s,mwanamuziki,wastani,mahakama,NA,sdf,NA,5,NA,NA,NA,NA,NA,NA,NA,NA,NA,NA,NA,NA,NA,NA,NA,NA,NA,NA,NA
868000000000,Shallow Question,html.Page,3_0_5_0_0_1_0,NA,NA,form submission,3901.02,610413,610413.68,610413.98,614315,614315,2023-03-24T15:59:53Z,614319.06,NULL,Betrüger,mdanganyifu,s,mwanamuziki,wastani,mahakama,mdanganyifu,NA,NA,5,NA,NA,NA,NA,NA,NA,NA,NA,NA,NA,NA,NA,NA,NA,NA,NA,NA,NA,NA
868000000000,"""Richtig""-Screen",canvas.Screen,3_0_5_0_0_1_1,NA,NA,timeout,4999.4199999999,614317,614312.82,614319.06,619302.76,619304,2023-03-24T15:59:58Z,619318.48,NULL,Betrüger,mdanganyifu,s,mwanamuziki,wastani,mahakama,NA,sdf,1,5,NA,NA,NA,NA,NA,NA,NA,NA,NA,NA,NA,NA,NA,NA,NA,NA,NA,NA,NA
868000000000,"""Falsch""-Screen",canvas.Screen,3_0_5_0_0_1_2,NA,NA,skipped,NA,619306,NA,NA,619302.76,619306,2023-03-24T15:59:58Z,619318.48,NULL,Betrüger,mdanganyifu,s,mwanamuziki,wastani,mahakama,NA,sdf,NA,5,NA,NA,NA,NA,NA,NA,NA,NA,NA,NA,NA,NA,NA,NA,NA,NA,NA,NA,NA
868000000000,shallow,flow.Sequence,3_0_5_0_0_1,NA,NA,completion,8888.78,610413,610413.68,610413.98,619302.76,619306,2023-03-24T15:59:58Z,619318.48,NULL,Betrüger,mdanganyifu,s,mwanamuziki,wastani,mahakama,NA,sdf,NA,5,NA,NA,NA,NA,NA,NA,NA,NA,NA,NA,NA,NA,NA,NA,NA,NA,NA,NA,NA
868000000000,task,flow.Sequence,3_0_5_0_0,NA,NA,completion,8888.78,610413,610413.68,610413.98,619302.76,619306,2023-03-24T15:59:58Z,619318.48,NULL,Betrüger,mdanganyifu,s,mwanamuziki,wastani,mahakama,NA,sdf,NA,5,NA,NA,NA,NA,NA,NA,NA,NA,NA,NA,NA,NA,NA,NA,NA,NA,NA,NA,NA
868000000000,Deep Question,html.Page,3_0_5_0_1_0_0,NA,NA,form submission,12546.52,619306,619302.76,619318.48,631865,631865,2023-03-24T16:00:11Z,631863.72,NULL,Respekt,heshima,d,NA,NA,NA,salama,NA,NA,5,NA,NA,NA,NA,NA,NA,NA,NA,NA,NA,NA,NA,NA,NA,NA,NA,NA,NA,NA
868000000000,"""Richtig""-Screen",canvas.Screen,3_0_5_0_1_0_1,NA,NA,skipped,NA,631866,NA,NA,631865,631867,2023-03-24T16:00:11Z,631863.72,NULL,Respekt,heshima,d,NA,NA,NA,NA,sdf,NA,5,NA,NA,NA,NA,NA,NA,NA,NA,NA,NA,NA,NA,NA,NA,NA,NA,NA,NA,NA
868000000000,"""Falsch""-Screen",canvas.Screen,3_0_5_0_1_0_2,NA,NA,timeout,4991.62,631868,631863.42,631863.72,636839.5,636840,2023-03-24T16:00:16Z,636855.34,NULL,Respekt,heshima,d,NA,NA,NA,NA,sdf,0,5,NA,NA,NA,NA,NA,NA,NA,NA,NA,NA,NA,NA,NA,NA,NA,NA,NA,NA,NA
868000000000,deep,flow.Sequence,3_0_5_0_1_0,NA,NA,completion,17521.02,619306,619302.76,619318.48,636839.5,636840,2023-03-24T16:00:16Z,636855.34,NULL,Respekt,heshima,d,NA,NA,NA,NA,sdf,NA,5,NA,NA,NA,NA,NA,NA,NA,NA,NA,NA,NA,NA,NA,NA,NA,NA,NA,NA,NA
868000000000,shallow,flow.Sequence,3_0_5_0_1_1,NA,NA,skipped,NA,636840,NA,NA,636839.5,636840,2023-03-24T16:00:16Z,636855.34,NULL,Respekt,heshima,d,NA,NA,NA,NA,sdf,NA,5,NA,NA,NA,NA,NA,NA,NA,NA,NA,NA,NA,NA,NA,NA,NA,NA,NA,NA,NA
868000000000,task,flow.Sequence,3_0_5_0_1,NA,NA,completion,17521.02,619306,619302.76,619318.48,636839.5,636840,2023-03-24T16:00:16Z,636855.34,NULL,Respekt,heshima,d,NA,NA,NA,NA,sdf,NA,5,NA,NA,NA,NA,NA,NA,NA,NA,NA,NA,NA,NA,NA,NA,NA,NA,NA,NA,NA
868000000000,Deep Question,html.Page,3_0_5_0_2_0_0,NA,NA,form submission,8158.66,636840,636839.5,636855.34,645014,645014,2023-03-24T16:00:24Z,645025.08,NULL,Vergnügen,kichekesho,d,NA,NA,NA,kebisho,NA,NA,5,NA,NA,NA,NA,NA,NA,NA,NA,NA,NA,NA,NA,NA,NA,NA,NA,NA,NA,NA
868000000000,"""Richtig""-Screen",canvas.Screen,3_0_5_0_2_0_1,NA,NA,skipped,NA,645020,NA,NA,645014,645020,2023-03-24T16:00:24Z,645025.08,NULL,Vergnügen,kichekesho,d,NA,NA,NA,NA,sdf,NA,5,NA,NA,NA,NA,NA,NA,NA,NA,NA,NA,NA,NA,NA,NA,NA,NA,NA,NA,NA
868000000000,"""Falsch""-Screen",canvas.Screen,3_0_5_0_2_0_2,NA,NA,timeout,5006.7000000001,645023,645011.64,645025.08,650015.24,650016,2023-03-24T16:00:29Z,650031.78,NULL,Vergnügen,kichekesho,d,NA,NA,NA,NA,sdf,0,5,NA,NA,NA,NA,NA,NA,NA,NA,NA,NA,NA,NA,NA,NA,NA,NA,NA,NA,NA
868000000000,deep,flow.Sequence,3_0_5_0_2_0,NA,NA,completion,13159.9,636840,636839.5,636855.34,650015.24,650017,2023-03-24T16:00:29Z,650031.78,NULL,Vergnügen,kichekesho,d,NA,NA,NA,NA,sdf,NA,5,NA,NA,NA,NA,NA,NA,NA,NA,NA,NA,NA,NA,NA,NA,NA,NA,NA,NA,NA
868000000000,shallow,flow.Sequence,3_0_5_0_2_1,NA,NA,skipped,NA,650017,NA,NA,650015.24,650017,2023-03-24T16:00:29Z,650031.78,NULL,Vergnügen,kichekesho,d,NA,NA,NA,NA,sdf,NA,5,NA,NA,NA,NA,NA,NA,NA,NA,NA,NA,NA,NA,NA,NA,NA,NA,NA,NA,NA
868000000000,task,flow.Sequence,3_0_5_0_2,NA,NA,completion,13159.9,636840,636839.5,636855.34,650015.24,650017,2023-03-24T16:00:29Z,650031.78,NULL,Vergnügen,kichekesho,d,NA,NA,NA,NA,sdf,NA,5,NA,NA,NA,NA,NA,NA,NA,NA,NA,NA,NA,NA,NA,NA,NA,NA,NA,NA,NA
868000000000,Deep Question,html.Page,3_0_5_0_3_0_0,NA,NA,form submission,2972.22,650018,650015.24,650031.78,653004,653005,2023-03-24T16:00:32Z,653006.98,NULL,Notfall,dharura,d,NA,NA,NA,dharura,NA,NA,5,NA,NA,NA,NA,NA,NA,NA,NA,NA,NA,NA,NA,NA,NA,NA,NA,NA,NA,NA
868000000000,"""Richtig""-Screen",canvas.Screen,3_0_5_0_3_0_1,NA,NA,timeout,4994.1800000001,653006,653003.3,653006.98,657985.5,657986,2023-03-24T16:00:37Z,658001.16,NULL,Notfall,dharura,d,NA,NA,NA,NA,sdf,1,5,NA,NA,NA,NA,NA,NA,NA,NA,NA,NA,NA,NA,NA,NA,NA,NA,NA,NA,NA
868000000000,"""Falsch""-Screen",canvas.Screen,3_0_5_0_3_0_2,NA,NA,skipped,NA,657989,NA,NA,657985.5,657989,2023-03-24T16:00:37Z,658001.16,NULL,Notfall,dharura,d,NA,NA,NA,NA,sdf,NA,5,NA,NA,NA,NA,NA,NA,NA,NA,NA,NA,NA,NA,NA,NA,NA,NA,NA,NA,NA
868000000000,deep,flow.Sequence,3_0_5_0_3_0,NA,NA,completion,7953.72,650018,650015.24,650031.78,657985.5,657989,2023-03-24T16:00:37Z,658001.16,NULL,Notfall,dharura,d,NA,NA,NA,NA,sdf,NA,5,NA,NA,NA,NA,NA,NA,NA,NA,NA,NA,NA,NA,NA,NA,NA,NA,NA,NA,NA
868000000000,shallow,flow.Sequence,3_0_5_0_3_1,NA,NA,skipped,NA,657989,NA,NA,657985.5,657989,2023-03-24T16:00:37Z,658001.16,NULL,Notfall,dharura,d,NA,NA,NA,NA,sdf,NA,5,NA,NA,NA,NA,NA,NA,NA,NA,NA,NA,NA,NA,NA,NA,NA,NA,NA,NA,NA
868000000000,task,flow.Sequence,3_0_5_0_3,NA,NA,completion,7953.72,650018,650015.24,650031.78,657985.5,657990,2023-03-24T16:00:37Z,658001.16,NULL,Notfall,dharura,d,NA,NA,NA,NA,sdf,NA,5,NA,NA,NA,NA,NA,NA,NA,NA,NA,NA,NA,NA,NA,NA,NA,NA,NA,NA,NA
868000000000,deep,flow.Sequence,3_0_5_0_4_0,NA,NA,skipped,NA,657990,NA,NA,657985.5,657990,2023-03-24T16:00:37Z,658001.16,NULL,Ergänzung,kijalizo,s,ulaghai,mustarehe,matangazo,NA,sdf,NA,5,NA,NA,NA,NA,NA,NA,NA,NA,NA,NA,NA,NA,NA,NA,NA,NA,NA,NA,NA
868000000000,Shallow Question,html.Page,3_0_5_0_4_1_0,NA,NA,form submission,4985.84,657990,657985.5,658001.16,662987,662988,2023-03-24T16:00:42Z,662998.12,NULL,Ergänzung,kijalizo,s,ulaghai,mustarehe,matangazo,kijalizo,NA,NA,5,NA,NA,NA,NA,NA,NA,NA,NA,NA,NA,NA,NA,NA,NA,NA,NA,NA,NA,NA
868000000000,"""Richtig""-Screen",canvas.Screen,3_0_5_0_4_1_1,NA,NA,timeout,5006.4,662990,662984.8,662998.12,667987.54,667988,2023-03-24T16:00:47Z,668004.52,NULL,Ergänzung,kijalizo,s,ulaghai,mustarehe,matangazo,NA,sdf,1,5,NA,NA,NA,NA,NA,NA,NA,NA,NA,NA,NA,NA,NA,NA,NA,NA,NA,NA,NA
868000000000,"""Falsch""-Screen",canvas.Screen,3_0_5_0_4_1_2,NA,NA,skipped,NA,667991,NA,NA,667987.54,667991,2023-03-24T16:00:47Z,668004.52,NULL,Ergänzung,kijalizo,s,ulaghai,mustarehe,matangazo,NA,sdf,NA,5,NA,NA,NA,NA,NA,NA,NA,NA,NA,NA,NA,NA,NA,NA,NA,NA,NA,NA,NA
868000000000,shallow,flow.Sequence,3_0_5_0_4_1,NA,NA,completion,9986.38,657990,657985.5,658001.16,667987.54,667992,2023-03-24T16:00:47Z,668004.52,NULL,Ergänzung,kijalizo,s,ulaghai,mustarehe,matangazo,NA,sdf,NA,5,NA,NA,NA,NA,NA,NA,NA,NA,NA,NA,NA,NA,NA,NA,NA,NA,NA,NA,NA
868000000000,task,flow.Sequence,3_0_5_0_4,NA,NA,completion,9986.38,657990,657985.5,658001.16,667987.54,667992,2023-03-24T16:00:47Z,668004.52,NULL,Ergänzung,kijalizo,s,ulaghai,mustarehe,matangazo,NA,sdf,NA,5,NA,NA,NA,NA,NA,NA,NA,NA,NA,NA,NA,NA,NA,NA,NA,NA,NA,NA,NA
868000000000,Deep Question,html.Page,3_0_5_0_5_0_0,NA,NA,form submission,14333.48,667992,667987.54,668004.52,682338,682339,2023-03-24T16:01:01Z,682351.9,NULL,Orientierung,urekebisho,d,NA,NA,NA,salama,NA,NA,5,NA,NA,NA,NA,NA,NA,NA,NA,NA,NA,NA,NA,NA,NA,NA,NA,NA,NA,NA
868000000000,"""Richtig""-Screen",canvas.Screen,3_0_5_0_5_0_1,NA,NA,skipped,NA,682341,NA,NA,682338,682341,2023-03-24T16:01:01Z,682351.9,NULL,Orientierung,urekebisho,d,NA,NA,NA,NA,sdf,NA,5,NA,NA,NA,NA,NA,NA,NA,NA,NA,NA,NA,NA,NA,NA,NA,NA,NA,NA,NA
868000000000,"""Falsch""-Screen",canvas.Screen,3_0_5_0_5_0_2,NA,NA,timeout,4999.84,682343,682337.82,682351.9,687335.06,687337,2023-03-24T16:01:06Z,687351.74,NULL,Orientierung,urekebisho,d,NA,NA,NA,NA,sdf,0,5,NA,NA,NA,NA,NA,NA,NA,NA,NA,NA,NA,NA,NA,NA,NA,NA,NA,NA,NA
868000000000,deep,flow.Sequence,3_0_5_0_5_0,NA,NA,completion,19330.54,667992,667987.54,668004.52,687335.06,687337,2023-03-24T16:01:06Z,687351.74,NULL,Orientierung,urekebisho,d,NA,NA,NA,NA,sdf,NA,5,NA,NA,NA,NA,NA,NA,NA,NA,NA,NA,NA,NA,NA,NA,NA,NA,NA,NA,NA
868000000000,shallow,flow.Sequence,3_0_5_0_5_1,NA,NA,skipped,NA,687338,NA,NA,687335.06,687338,2023-03-24T16:01:06Z,687351.74,NULL,Orientierung,urekebisho,d,NA,NA,NA,NA,sdf,NA,5,NA,NA,NA,NA,NA,NA,NA,NA,NA,NA,NA,NA,NA,NA,NA,NA,NA,NA,NA
868000000000,task,flow.Sequence,3_0_5_0_5,NA,NA,completion,19330.54,667992,667987.54,668004.52,687335.06,687338,2023-03-24T16:01:06Z,687351.74,NULL,Orientierung,urekebisho,d,NA,NA,NA,NA,sdf,NA,5,NA,NA,NA,NA,NA,NA,NA,NA,NA,NA,NA,NA,NA,NA,NA,NA,NA,NA,NA
868000000000,deep,flow.Sequence,3_0_5_0_6_0,NA,NA,skipped,NA,687338,NA,NA,687335.06,687339,2023-03-24T16:01:06Z,687351.74,NULL,Stimmung,kinyongo,s,kilekile,kisambo,madhehebu,NA,sdf,NA,5,NA,NA,NA,NA,NA,NA,NA,NA,NA,NA,NA,NA,NA,NA,NA,NA,NA,NA,NA
868000000000,Shallow Question,html.Page,3_0_5_0_6_1_0,NA,NA,form submission,3460.26,687340,687335.06,687351.74,690812,690813,2023-03-24T16:01:10Z,690817.68,NULL,Stimmung,kinyongo,s,kilekile,kisambo,madhehebu,kinyongo,NA,NA,5,NA,NA,NA,NA,NA,NA,NA,NA,NA,NA,NA,NA,NA,NA,NA,NA,NA,NA,NA
868000000000,"""Richtig""-Screen",canvas.Screen,3_0_5_0_6_1_1,NA,NA,timeout,4992.1,690817,690808.88,690817.68,695793.12,695794,2023-03-24T16:01:15Z,695809.78,NULL,Stimmung,kinyongo,s,kilekile,kisambo,madhehebu,NA,sdf,1,5,NA,NA,NA,NA,NA,NA,NA,NA,NA,NA,NA,NA,NA,NA,NA,NA,NA,NA,NA
868000000000,"""Falsch""-Screen",canvas.Screen,3_0_5_0_6_1_2,NA,NA,skipped,NA,695797,NA,NA,695793.12,695798,2023-03-24T16:01:15Z,695809.78,NULL,Stimmung,kinyongo,s,kilekile,kisambo,madhehebu,NA,sdf,NA,5,NA,NA,NA,NA,NA,NA,NA,NA,NA,NA,NA,NA,NA,NA,NA,NA,NA,NA,NA
868000000000,shallow,flow.Sequence,3_0_5_0_6_1,NA,NA,completion,8441.38,687340,687335.06,687351.74,695793.12,695798,2023-03-24T16:01:15Z,695809.78,NULL,Stimmung,kinyongo,s,kilekile,kisambo,madhehebu,NA,sdf,NA,5,NA,NA,NA,NA,NA,NA,NA,NA,NA,NA,NA,NA,NA,NA,NA,NA,NA,NA,NA
868000000000,task,flow.Sequence,3_0_5_0_6,NA,NA,completion,8441.38,687338,687335.06,687351.74,695793.12,695798,2023-03-24T16:01:15Z,695809.78,NULL,Stimmung,kinyongo,s,kilekile,kisambo,madhehebu,NA,sdf,NA,5,NA,NA,NA,NA,NA,NA,NA,NA,NA,NA,NA,NA,NA,NA,NA,NA,NA,NA,NA
868000000000,deep,flow.Sequence,3_0_5_0_7_0,NA,NA,skipped,NA,695798,NA,NA,695793.12,695798,2023-03-24T16:01:15Z,695809.78,NULL,Wohlstand,mafanikio,s,chimbuko,kumbuko,mapwaji,NA,sdf,NA,5,NA,NA,NA,NA,NA,NA,NA,NA,NA,NA,NA,NA,NA,NA,NA,NA,NA,NA,NA
868000000000,Shallow Question,html.Page,3_0_5_0_7_1_0,NA,NA,form submission,5891.22,695799,695793.12,695809.78,701701,701702,2023-03-24T16:01:21Z,701711.6,NULL,Wohlstand,mafanikio,s,chimbuko,kumbuko,mapwaji,mafanikio,NA,NA,5,NA,NA,NA,NA,NA,NA,NA,NA,NA,NA,NA,NA,NA,NA,NA,NA,NA,NA,NA
868000000000,"""Richtig""-Screen",canvas.Screen,3_0_5_0_7_1_1,NA,NA,timeout,5001.3,701705,701698.68,701711.6,706697.4,706698,2023-03-24T16:01:26Z,706712.9,NULL,Wohlstand,mafanikio,s,chimbuko,kumbuko,mapwaji,NA,sdf,1,5,NA,NA,NA,NA,NA,NA,NA,NA,NA,NA,NA,NA,NA,NA,NA,NA,NA,NA,NA
868000000000,"""Falsch""-Screen",canvas.Screen,3_0_5_0_7_1_2,NA,NA,skipped,NA,706701,NA,NA,706697.4,706701,2023-03-24T16:01:26Z,706712.9,NULL,Wohlstand,mafanikio,s,chimbuko,kumbuko,mapwaji,NA,sdf,NA,5,NA,NA,NA,NA,NA,NA,NA,NA,NA,NA,NA,NA,NA,NA,NA,NA,NA,NA,NA
868000000000,shallow,flow.Sequence,3_0_5_0_7_1,NA,NA,completion,10887.62,695799,695793.12,695809.78,706697.4,706701,2023-03-24T16:01:26Z,706712.9,NULL,Wohlstand,mafanikio,s,chimbuko,kumbuko,mapwaji,NA,sdf,NA,5,NA,NA,NA,NA,NA,NA,NA,NA,NA,NA,NA,NA,NA,NA,NA,NA,NA,NA,NA
868000000000,task,flow.Sequence,3_0_5_0_7,NA,NA,completion,10887.62,695798,695793.12,695809.78,706697.4,706701,2023-03-24T16:01:26Z,706712.9,NULL,Wohlstand,mafanikio,s,chimbuko,kumbuko,mapwaji,NA,sdf,NA,5,NA,NA,NA,NA,NA,NA,NA,NA,NA,NA,NA,NA,NA,NA,NA,NA,NA,NA,NA
868000000000,block,flow.Loop,3_0_5_0,NA,NA,completion,96283.42,610413,610413.68,610413.98,706697.4,706701,2023-03-24T16:01:26Z,706712.9,NULL,NA,NA,NA,NA,NA,NA,NA,sdf,NA,5,NA,NA,NA,NA,NA,NA,NA,NA,NA,NA,NA,NA,NA,NA,NA,NA,NA,NA,NA
868000000000,weiter,canvas.Screen,3_0_5_1,sdf,keypress(Space),response,1356.1,706701,706697.4,706712.9,708069,708074,2023-03-24T16:01:27Z,708891.04,NULL,NA,NA,NA,NA,NA,NA,NA,sdf,NA,5,NA,NA,NA,NA,NA,NA,NA,NA,NA,NA,NA,NA,NA,NA,NA,NA,NA,NA,NA
868000000000,check continue,flow.Sequence,3_0_5,NA,NA,completion,97655.02,610413,610413.68,610413.98,708069,708074,2023-03-24T16:01:27Z,708891.04,NULL,NA,NA,NA,NA,NA,NA,NA,sdf,NA,5,NA,NA,NA,NA,NA,NA,NA,NA,NA,NA,NA,NA,NA,NA,NA,NA,NA,NA,NA
868000000000,check continue,flow.Sequence,3_0_6,NA,NA,skipped,NA,708135,NA,NA,708069,708135,2023-03-24T16:01:27Z,708891.04,NULL,NA,NA,NA,NA,NA,NA,NA,dfs,NA,6,NA,NA,NA,NA,NA,NA,NA,NA,NA,NA,NA,NA,NA,NA,NA,NA,NA,NA,NA
868000000000,check continue,flow.Sequence,3_0_7,NA,NA,skipped,NA,708179,NA,NA,708069,708179,2023-03-24T16:01:27Z,708891.04,NULL,NA,NA,NA,NA,NA,NA,NA,df,NA,7,NA,NA,NA,NA,NA,NA,NA,NA,NA,NA,NA,NA,NA,NA,NA,NA,NA,NA,NA
868000000000,check continue,flow.Sequence,3_0_8,NA,NA,skipped,NA,708215,NA,NA,708069,708216,2023-03-24T16:01:27Z,708891.04,NULL,NA,NA,NA,NA,NA,NA,NA,dfs,NA,8,NA,NA,NA,NA,NA,NA,NA,NA,NA,NA,NA,NA,NA,NA,NA,NA,NA,NA,NA
868000000000,check continue,flow.Sequence,3_0_9,NA,NA,skipped,NA,708253,NA,NA,708069,708253,2023-03-24T16:01:27Z,708891.04,NULL,NA,NA,NA,NA,NA,NA,NA,dsf,NA,9,NA,NA,NA,NA,NA,NA,NA,NA,NA,NA,NA,NA,NA,NA,NA,NA,NA,NA,NA
868000000000,check continue,flow.Sequence,3_0_10,NA,NA,skipped,NA,708286,NA,NA,708069,708286,2023-03-24T16:01:27Z,708891.04,NULL,NA,NA,NA,NA,NA,NA,NA,df,NA,10,NA,NA,NA,NA,NA,NA,NA,NA,NA,NA,NA,NA,NA,NA,NA,NA,NA,NA,NA
868000000000,check continue,flow.Sequence,3_0_11,NA,NA,skipped,NA,708320,NA,NA,708069,708320,2023-03-24T16:01:27Z,708891.04,NULL,NA,NA,NA,NA,NA,NA,NA,dfs,NA,11,NA,NA,NA,NA,NA,NA,NA,NA,NA,NA,NA,NA,NA,NA,NA,NA,NA,NA,NA
868000000000,check continue,flow.Sequence,3_0_12,NA,NA,skipped,NA,708352,NA,NA,708069,708352,2023-03-24T16:01:27Z,708891.04,NULL,NA,NA,NA,NA,NA,NA,NA,dsf,NA,12,NA,NA,NA,NA,NA,NA,NA,NA,NA,NA,NA,NA,NA,NA,NA,NA,NA,NA,NA
868000000000,check continue,flow.Sequence,3_0_13,NA,NA,skipped,NA,708387,NA,NA,708069,708387,2023-03-24T16:01:27Z,708891.04,NULL,NA,NA,NA,NA,NA,NA,NA,dsf,NA,13,NA,NA,NA,NA,NA,NA,NA,NA,NA,NA,NA,NA,NA,NA,NA,NA,NA,NA,NA
868000000000,check continue,flow.Sequence,3_0_14,NA,NA,skipped,NA,708421,NA,NA,708069,708421,2023-03-24T16:01:27Z,708891.04,NULL,NA,NA,NA,NA,NA,NA,NA,NA,NA,14,NA,NA,NA,NA,NA,NA,NA,NA,NA,NA,NA,NA,NA,NA,NA,NA,NA,NA,NA
868000000000,check continue,flow.Sequence,3_0_15,NA,NA,skipped,NA,708449,NA,NA,708069,708449,2023-03-24T16:01:27Z,708891.04,NULL,NA,NA,NA,NA,NA,NA,NA,NA,NA,15,NA,NA,NA,NA,NA,NA,NA,NA,NA,NA,NA,NA,NA,NA,NA,NA,NA,NA,NA
868000000000,check continue,flow.Sequence,3_0_16,NA,NA,skipped,NA,708482,NA,NA,708069,708483,2023-03-24T16:01:27Z,708891.04,NULL,NA,NA,NA,NA,NA,NA,NA,NA,NA,16,NA,NA,NA,NA,NA,NA,NA,NA,NA,NA,NA,NA,NA,NA,NA,NA,NA,NA,NA
868000000000,check continue,flow.Sequence,3_0_17,NA,NA,skipped,NA,708514,NA,NA,708069,708514,2023-03-24T16:01:27Z,708891.04,NULL,NA,NA,NA,NA,NA,NA,NA,NA,NA,17,NA,NA,NA,NA,NA,NA,NA,NA,NA,NA,NA,NA,NA,NA,NA,NA,NA,NA,NA
868000000000,check continue,flow.Sequence,3_0_18,NA,NA,skipped,NA,708550,NA,NA,708069,708550,2023-03-24T16:01:28Z,708891.04,NULL,NA,NA,NA,NA,NA,NA,NA,NA,NA,18,NA,NA,NA,NA,NA,NA,NA,NA,NA,NA,NA,NA,NA,NA,NA,NA,NA,NA,NA
868000000000,check continue,flow.Sequence,3_0_19,NA,NA,skipped,NA,708583,NA,NA,708069,708583,2023-03-24T16:01:28Z,708891.04,NULL,NA,NA,NA,NA,NA,NA,NA,NA,NA,19,NA,NA,NA,NA,NA,NA,NA,NA,NA,NA,NA,NA,NA,NA,NA,NA,NA,NA,NA
868000000000,check continue,flow.Sequence,3_0_20,NA,NA,skipped,NA,708612,NA,NA,708069,708613,2023-03-24T16:01:28Z,708891.04,NULL,NA,NA,NA,NA,NA,NA,NA,NA,NA,20,NA,NA,NA,NA,NA,NA,NA,NA,NA,NA,NA,NA,NA,NA,NA,NA,NA,NA,NA
868000000000,check continue,flow.Sequence,3_0_21,NA,NA,skipped,NA,708646,NA,NA,708069,708647,2023-03-24T16:01:28Z,708891.04,NULL,NA,NA,NA,NA,NA,NA,NA,NA,NA,21,NA,NA,NA,NA,NA,NA,NA,NA,NA,NA,NA,NA,NA,NA,NA,NA,NA,NA,NA
868000000000,check continue,flow.Sequence,3_0_22,NA,NA,skipped,NA,708676,NA,NA,708069,708676,2023-03-24T16:01:28Z,708891.04,NULL,NA,NA,NA,NA,NA,NA,NA,NA,NA,22,NA,NA,NA,NA,NA,NA,NA,NA,NA,NA,NA,NA,NA,NA,NA,NA,NA,NA,NA
868000000000,check continue,flow.Sequence,3_0_23,NA,NA,skipped,NA,708705,NA,NA,708069,708705,2023-03-24T16:01:28Z,708891.04,NULL,NA,NA,NA,NA,NA,NA,NA,NA,NA,23,NA,NA,NA,NA,NA,NA,NA,NA,NA,NA,NA,NA,NA,NA,NA,NA,NA,NA,NA
868000000000,check continue,flow.Sequence,3_0_24,NA,NA,skipped,NA,708737,NA,NA,708069,708737,2023-03-24T16:01:28Z,708891.04,NULL,NA,NA,NA,NA,NA,NA,NA,NA,NA,24,NA,NA,NA,NA,NA,NA,NA,NA,NA,NA,NA,NA,NA,NA,NA,NA,NA,NA,NA
868000000000,check continue,flow.Sequence,3_0_25,NA,NA,skipped,NA,708768,NA,NA,708069,708768,2023-03-24T16:01:28Z,708891.04,NULL,NA,NA,NA,NA,NA,NA,NA,NA,NA,25,NA,NA,NA,NA,NA,NA,NA,NA,NA,NA,NA,NA,NA,NA,NA,NA,NA,NA,NA
868000000000,check continue,flow.Sequence,3_0_26,NA,NA,skipped,NA,708801,NA,NA,708069,708801,2023-03-24T16:01:28Z,708891.04,NULL,NA,NA,NA,NA,NA,NA,NA,NA,NA,26,NA,NA,NA,NA,NA,NA,NA,NA,NA,NA,NA,NA,NA,NA,NA,NA,NA,NA,NA
868000000000,check continue,flow.Sequence,3_0_27,NA,NA,skipped,NA,708830,NA,NA,708069,708830,2023-03-24T16:01:28Z,708891.04,NULL,NA,NA,NA,NA,NA,NA,NA,NA,NA,27,NA,NA,NA,NA,NA,NA,NA,NA,NA,NA,NA,NA,NA,NA,NA,NA,NA,NA,NA
868000000000,check continue,flow.Sequence,3_0_28,NA,NA,skipped,NA,708858,NA,NA,708069,708858,2023-03-24T16:01:28Z,708891.04,NULL,NA,NA,NA,NA,NA,NA,NA,NA,NA,28,NA,NA,NA,NA,NA,NA,NA,NA,NA,NA,NA,NA,NA,NA,NA,NA,NA,NA,NA
868000000000,check continue,flow.Sequence,3_0_29,NA,NA,skipped,NA,708890,NA,NA,708069,708891,2023-03-24T16:01:28Z,708891.04,NULL,NA,NA,NA,NA,NA,NA,NA,NA,NA,29,NA,NA,NA,NA,NA,NA,NA,NA,NA,NA,NA,NA,NA,NA,NA,NA,NA,NA,NA
868000000000,until continue,flow.Loop,3_0,NA,NA,completion,560791.72,147231,147277,147277.28,708069,708891,2023-03-24T16:01:28Z,708891.04,NULL,NA,NA,NA,NA,NA,NA,NA,NA,NA,NA,NA,NA,NA,NA,NA,NA,NA,NA,NA,NA,NA,NA,NA,NA,NA,NA,NA,NA,NA
868000000000,block 1,flow.Sequence,3,NA,NA,completion,560791.72,147231,147277,147277.28,708069,708891,2023-03-24T16:01:28Z,708891.04,NULL,NA,NA,NA,NA,NA,NA,NA,NA,NA,NA,NA,NA,NA,NA,NA,NA,NA,NA,NA,NA,NA,NA,NA,NA,NA,NA,NA,NA,NA
868000000000,1.Part Over,canvas.Screen,4,NA,keypress(Space),response,4321.96,708891,708890.64,708891.04,713213,713219,2023-03-24T16:01:32Z,713283.66,NULL,NA,NA,NA,NA,NA,NA,NA,NA,NA,NA,NA,NA,NA,NA,NA,NA,NA,NA,NA,NA,NA,NA,NA,NA,NA,NA,NA,NA,NA
868000000000,deep,flow.Sequence,5_0_0_0_0_0,NA,NA,skipped,NA,713283,NA,NA,713213,713283,2023-03-24T16:01:32Z,713283.66,NULL,Vorwurf,mashtaka,s,msukumo,mtangulizi,uenyekiti,NA,sdf,NA,0,NA,NA,NA,NA,NA,NA,NA,NA,NA,NA,NA,NA,NA,NA,NA,NA,NA,NA,NA
868000000000,Shallow Question,html.Page,5_0_0_0_0_1_0,NA,NA,form submission,11800.34,713284,713283.3,713283.66,725084,725084,2023-03-24T16:01:44Z,725094.02,NULL,Vorwurf,mashtaka,s,msukumo,mtangulizi,uenyekiti,uenyekiti,NA,NA,0,NA,NA,NA,NA,NA,NA,NA,NA,NA,NA,NA,NA,NA,NA,NA,NA,NA,NA,NA
868000000000,"""Richtig""-Screen",canvas.Screen,5_0_0_0_0_1_1,NA,NA,skipped,NA,725084,NA,NA,725084,725085,2023-03-24T16:01:44Z,725094.02,NULL,Vorwurf,mashtaka,s,msukumo,mtangulizi,uenyekiti,NA,sdf,NA,0,NA,NA,NA,NA,NA,NA,NA,NA,NA,NA,NA,NA,NA,NA,NA,NA,NA,NA,NA
868000000000,"""Falsch""-Screen",canvas.Screen,5_0_0_0_0_1_2,NA,NA,timeout,4991.46,725087,725081.02,725094.02,730068.84,730069,2023-03-24T16:01:49Z,730085.48,NULL,Vorwurf,mashtaka,s,msukumo,mtangulizi,uenyekiti,NA,sdf,0,0,NA,NA,NA,NA,NA,NA,NA,NA,NA,NA,NA,NA,NA,NA,NA,NA,NA,NA,NA
868000000000,shallow,flow.Sequence,5_0_0_0_0_1,NA,NA,completion,16785.18,713284,713283.3,713283.66,730068.84,730069,2023-03-24T16:01:49Z,730085.48,NULL,Vorwurf,mashtaka,s,msukumo,mtangulizi,uenyekiti,NA,sdf,NA,0,NA,NA,NA,NA,NA,NA,NA,NA,NA,NA,NA,NA,NA,NA,NA,NA,NA,NA,NA
868000000000,task,flow.Sequence,5_0_0_0_0,NA,NA,completion,16785.18,713283,713283.3,713283.66,730068.84,730070,2023-03-24T16:01:49Z,730085.48,NULL,Vorwurf,mashtaka,s,msukumo,mtangulizi,uenyekiti,NA,sdf,NA,0,NA,NA,NA,NA,NA,NA,NA,NA,NA,NA,NA,NA,NA,NA,NA,NA,NA,NA,NA
868000000000,Deep Question,html.Page,5_0_0_0_1_0_0,NA,NA,form submission,6475.52,730070,730068.84,730085.48,736561,736562,2023-03-24T16:01:56Z,736560.98,NULL,Papier,karatasi,d,NA,NA,NA,mashtaka,NA,NA,0,NA,NA,NA,NA,NA,NA,NA,NA,NA,NA,NA,NA,NA,NA,NA,NA,NA,NA,NA
868000000000,"""Richtig""-Screen",canvas.Screen,5_0_0_0_1_0_1,NA,NA,skipped,NA,736563,NA,NA,736561,736563,2023-03-24T16:01:56Z,736560.98,NULL,Papier,karatasi,d,NA,NA,NA,NA,sdf,NA,0,NA,NA,NA,NA,NA,NA,NA,NA,NA,NA,NA,NA,NA,NA,NA,NA,NA,NA,NA
868000000000,"""Falsch""-Screen",canvas.Screen,5_0_0_0_1_0_2,NA,NA,timeout,4993.1800000001,736564,736560.54,736560.98,741538.36,741539,2023-03-24T16:02:01Z,741554.16,NULL,Papier,karatasi,d,NA,NA,NA,NA,sdf,0,0,NA,NA,NA,NA,NA,NA,NA,NA,NA,NA,NA,NA,NA,NA,NA,NA,NA,NA,NA
868000000000,deep,flow.Sequence,5_0_0_0_1_0,NA,NA,completion,11452.88,730070,730068.84,730085.48,741538.36,741539,2023-03-24T16:02:01Z,741554.16,NULL,Papier,karatasi,d,NA,NA,NA,NA,sdf,NA,0,NA,NA,NA,NA,NA,NA,NA,NA,NA,NA,NA,NA,NA,NA,NA,NA,NA,NA,NA
868000000000,shallow,flow.Sequence,5_0_0_0_1_1,NA,NA,skipped,NA,741539,NA,NA,741538.36,741539,2023-03-24T16:02:01Z,741554.16,NULL,Papier,karatasi,d,NA,NA,NA,NA,sdf,NA,0,NA,NA,NA,NA,NA,NA,NA,NA,NA,NA,NA,NA,NA,NA,NA,NA,NA,NA,NA
