observation,sender,sender_type,sender_id,response,response_action,ended_on,duration,time_run,time_render,time_show,time_end,time_commit,timestamp,time_switch,distractors,german,swahili,enc,distractor1,distractor2,distractor3,response_2,x,correct,x_2,url_vp,url_sess,meta_labjs_version,meta_location,meta_user_agent,meta_platform,meta_language,meta_locale,meta_time_zone,meta_timezone_offset,meta_screen_width,meta_screen_height,meta_scroll_width,meta_scroll_height,meta_window_inner_width,meta_window_inner_height,meta_device_pixel_ratio,meta_labjs_build_flavor,meta_labjs_build_commit
91f6c,Introduction general,canvas.Screen,0,weiter,keypress(q),response,46574.499999999,697,1424.2,1440.7,48015.199999999,48019.5,2024-02-21T09:40:10Z,48029.1,NULL,NA,NA,NA,NA,NA,NA,NA,NA,NA,NA,139,1,20.2.4,https://neurocog.fernuni.ch/studies/vweber/aberisha/encoding_immediate/index.html?vp=139&sess=1,"Mozilla/5.0 (Windows NT 10.0; Win64; x64) AppleWebKit/537.36 (KHTML, like Gecko) Chrome/121.0.0.0 Safari/537.36",Win32,de-DE,de,Europe/Zurich,-60,1739,979,1740,763,1740,811,1.1041666269302,production,f5b4a49f956347addd546a832a3327688c2c0fef
91f6c,Introduction practice,canvas.Screen,1_0,NA,keypress(Space),response,7648.5999999993,48020.199999999,48010.9,48029.1,55677.699999999,55678.199999999,2024-02-21T09:40:17Z,55691.2,NULL,NA,NA,NA,NA,NA,NA,NA,NA,NA,NA,NA,NA,NA,NA,NA,NA,NA,NA,NA,NA,NA,NA,NA,NA,NA,NA,NA,NA,NA
91f6c,deep,flow.Sequence,1_1_0_0,NA,NA,skipped,NA,55678.300000001,NA,NA,55677.699999999,55678.4,2024-02-21T09:40:17Z,55691.2,"c(""distractor1"", ""distractor2"", ""distractor3"")",Gegenwart,hadhara,s,katiba,jokofu,mikopo,NA,NA,NA,NA,NA,NA,NA,NA,NA,NA,NA,NA,NA,NA,NA,NA,NA,NA,NA,NA,NA,NA,NA
91f6c,Shallow Question,html.Page,1_1_0_1_0,NA,NA,form submission,9991.6000000007,55678.5,55677.994,55691.2,65682.800000001,65682.9,2024-02-21T09:40:27Z,65685.67,"c(""distractor1"", ""distractor2"", ""distractor3"")",Gegenwart,hadhara,s,katiba,jokofu,mikopo,jokofu,NA,NA,NA,NA,NA,NA,NA,NA,NA,NA,NA,NA,NA,NA,NA,NA,NA,NA,NA,NA,NA,NA
91f6c,"""Richtig""-Screen",canvas.Screen,1_1_0_1_1,NA,NA,skipped,NA,65689.199999999,NA,NA,65682.800000001,65689.4,2024-02-21T09:40:27Z,65685.67,"c(""distractor1"", ""distractor2"", ""distractor3"")",Gegenwart,hadhara,s,katiba,jokofu,mikopo,NA,NA,NA,NA,NA,NA,NA,NA,NA,NA,NA,NA,NA,NA,NA,NA,NA,NA,NA,NA,NA,NA,NA
91f6c,"""Falsch""-Screen",canvas.Screen,1_1_0_1_2,NA,NA,timeout,4996.43,65690.5,65685.67,65685.67,70665.4,70670.4,2024-02-21T09:40:32Z,70682.1,"c(""distractor1"", ""distractor2"", ""distractor3"")",Gegenwart,hadhara,s,katiba,jokofu,mikopo,NA,NA,0,NA,NA,NA,NA,NA,NA,NA,NA,NA,NA,NA,NA,NA,NA,NA,NA,NA,NA,NA,NA
91f6c,shallow,flow.Sequence,1_1_0_1,NA,NA,completion,14974.2,55678.5,55677.994,55691.2,70665.4,70670.9,2024-02-21T09:40:32Z,70682.1,"c(""distractor1"", ""distractor2"", ""distractor3"")",Gegenwart,hadhara,s,katiba,jokofu,mikopo,NA,NA,NA,NA,NA,NA,NA,NA,NA,NA,NA,NA,NA,NA,NA,NA,NA,NA,NA,NA,NA,NA,NA
91f6c,task,flow.Sequence,1_1_0,NA,NA,completion,14974.2,55678.300000001,55677.994,55691.2,70665.4,70671.199999999,2024-02-21T09:40:32Z,70682.1,"c(""distractor1"", ""distractor2"", ""distractor3"")",Gegenwart,hadhara,s,katiba,jokofu,mikopo,NA,NA,NA,NA,NA,NA,NA,NA,NA,NA,NA,NA,NA,NA,NA,NA,NA,NA,NA,NA,NA,NA,NA
91f6c,Deep Question,html.Page,1_1_1_0_0,NA,NA,form submission,8316.0999999992,70671.4,70665.4,70682.1,78998.199999999,78998.5,2024-02-21T09:40:41Z,79010,"c(""distractor1"", ""distractor2"", ""distractor3"")",Qualität,mtindo,d,NA,NA,NA,ktara,NA,NA,NA,NA,NA,NA,NA,NA,NA,NA,NA,NA,NA,NA,NA,NA,NA,NA,NA,NA,NA,NA
91f6c,"""Richtig""-Screen",canvas.Screen,1_1_1_0_1,NA,NA,skipped,NA,79002,NA,NA,78998.199999999,79002.199999999,2024-02-21T09:40:41Z,79010,"c(""distractor1"", ""distractor2"", ""distractor3"")",Qualität,mtindo,d,NA,NA,NA,NA,NA,NA,NA,NA,NA,NA,NA,NA,NA,NA,NA,NA,NA,NA,NA,NA,NA,NA,NA,NA,NA,NA
91f6c,"""Falsch""-Screen",canvas.Screen,1_1_1_0_2,NA,NA,timeout,4997,79003,78993.978,79010,83990.7,83992,2024-02-21T09:40:46Z,84007,"c(""distractor1"", ""distractor2"", ""distractor3"")",Qualität,mtindo,d,NA,NA,NA,NA,NA,0,NA,NA,NA,NA,NA,NA,NA,NA,NA,NA,NA,NA,NA,NA,NA,NA,NA,NA,NA,NA
91f6c,deep,flow.Sequence,1_1_1_0,NA,NA,completion,13308.6,70671.4,70665.4,70682.1,83990.7,83992.4,2024-02-21T09:40:46Z,84007,"c(""distractor1"", ""distractor2"", ""distractor3"")",Qualität,mtindo,d,NA,NA,NA,NA,NA,NA,NA,NA,NA,NA,NA,NA,NA,NA,NA,NA,NA,NA,NA,NA,NA,NA,NA,NA,NA,NA
91f6c,shallow,flow.Sequence,1_1_1_1,NA,NA,skipped,NA,83992.6,NA,NA,83990.7,83992.800000001,2024-02-21T09:40:46Z,84007,"c(""distractor1"", ""distractor2"", ""distractor3"")",Qualität,mtindo,d,NA,NA,NA,NA,NA,NA,NA,NA,NA,NA,NA,NA,NA,NA,NA,NA,NA,NA,NA,NA,NA,NA,NA,NA,NA,NA
91f6c,task,flow.Sequence,1_1_1,NA,NA,completion,13308.6,70671.4,70665.4,70682.1,83990.7,83993.199999999,2024-02-21T09:40:46Z,84007,"c(""distractor1"", ""distractor2"", ""distractor3"")",Qualität,mtindo,d,NA,NA,NA,NA,NA,NA,NA,NA,NA,NA,NA,NA,NA,NA,NA,NA,NA,NA,NA,NA,NA,NA,NA,NA,NA,NA
91f6c,deep,flow.Sequence,1_1_2_0,NA,NA,skipped,NA,83993.5,NA,NA,83990.7,83993.6,2024-02-21T09:40:46Z,84007,"c(""distractor1"", ""distractor2"", ""distractor3"")",Kritik,lawama,s,dereva,nafasi,mawazo,NA,NA,NA,NA,NA,NA,NA,NA,NA,NA,NA,NA,NA,NA,NA,NA,NA,NA,NA,NA,NA,NA,NA
91f6c,Shallow Question,html.Page,1_1_2_1_0,NA,NA,form submission,7800.5,83993.9,83990.7,84007,91807.5,91807.699999999,2024-02-21T09:40:54Z,91819.1,"c(""distractor1"", ""distractor2"", ""distractor3"")",Kritik,lawama,s,dereva,nafasi,mawazo,nafasi,NA,NA,NA,NA,NA,NA,NA,NA,NA,NA,NA,NA,NA,NA,NA,NA,NA,NA,NA,NA,NA,NA
91f6c,"""Richtig""-Screen",canvas.Screen,1_1_2_1_1,NA,NA,skipped,NA,91811,NA,NA,91807.5,91811.199999999,2024-02-21T09:40:54Z,91819.1,"c(""distractor1"", ""distractor2"", ""distractor3"")",Kritik,lawama,s,dereva,nafasi,mawazo,NA,NA,NA,NA,NA,NA,NA,NA,NA,NA,NA,NA,NA,NA,NA,NA,NA,NA,NA,NA,NA,NA,NA
91f6c,"""Falsch""-Screen",canvas.Screen,1_1_2_1_2,NA,NA,timeout,4996.8,91812.1,91802.778,91819.1,96799.4,96800.800000001,2024-02-21T09:40:59Z,96815.9,"c(""distractor1"", ""distractor2"", ""distractor3"")",Kritik,lawama,s,dereva,nafasi,mawazo,NA,NA,0,NA,NA,NA,NA,NA,NA,NA,NA,NA,NA,NA,NA,NA,NA,NA,NA,NA,NA,NA,NA
91f6c,shallow,flow.Sequence,1_1_2_1,NA,NA,completion,12792.4,83993.800000001,83990.7,84007,96799.4,96801.1,2024-02-21T09:40:59Z,96815.9,"c(""distractor1"", ""distractor2"", ""distractor3"")",Kritik,lawama,s,dereva,nafasi,mawazo,NA,NA,NA,NA,NA,NA,NA,NA,NA,NA,NA,NA,NA,NA,NA,NA,NA,NA,NA,NA,NA,NA,NA
91f6c,task,flow.Sequence,1_1_2,NA,NA,completion,12792.4,83993.300000001,83990.7,84007,96799.4,96801.5,2024-02-21T09:40:59Z,96815.9,"c(""distractor1"", ""distractor2"", ""distractor3"")",Kritik,lawama,s,dereva,nafasi,mawazo,NA,NA,NA,NA,NA,NA,NA,NA,NA,NA,NA,NA,NA,NA,NA,NA,NA,NA,NA,NA,NA,NA,NA
91f6c,Deep Question,html.Page,1_1_3_0_0,NA,NA,form submission,7421.2999999993,96801.699999999,96799.4,96815.9,104237.2,104237.4,2024-02-21T09:41:06Z,104245.538,"c(""distractor1"", ""distractor2"", ""distractor3"")",Schatten,kivuli,d,NA,NA,NA,jukara,NA,NA,NA,NA,NA,NA,NA,NA,NA,NA,NA,NA,NA,NA,NA,NA,NA,NA,NA,NA,NA,NA
91f6c,"""Richtig""-Screen",canvas.Screen,1_1_3_0_1,NA,NA,skipped,NA,104240.6,NA,NA,104237.2,104240.7,2024-02-21T09:41:06Z,104245.538,"c(""distractor1"", ""distractor2"", ""distractor3"")",Schatten,kivuli,d,NA,NA,NA,NA,NA,NA,NA,NA,NA,NA,NA,NA,NA,NA,NA,NA,NA,NA,NA,NA,NA,NA,NA,NA,NA,NA
91f6c,"""Falsch""-Screen",canvas.Screen,1_1_3_0_2,NA,NA,timeout,4996.562,104241.6,104245.538,104245.538,109225.2,109226.4,2024-02-21T09:41:11Z,109242.1,"c(""distractor1"", ""distractor2"", ""distractor3"")",Schatten,kivuli,d,NA,NA,NA,NA,NA,0,NA,NA,NA,NA,NA,NA,NA,NA,NA,NA,NA,NA,NA,NA,NA,NA,NA,NA,NA,NA
91f6c,deep,flow.Sequence,1_1_3_0,NA,NA,completion,12409.3,96801.699999999,96799.4,96815.9,109225.2,109226.7,2024-02-21T09:41:11Z,109242.1,"c(""distractor1"", ""distractor2"", ""distractor3"")",Schatten,kivuli,d,NA,NA,NA,NA,NA,NA,NA,NA,NA,NA,NA,NA,NA,NA,NA,NA,NA,NA,NA,NA,NA,NA,NA,NA,NA,NA
91f6c,shallow,flow.Sequence,1_1_3_1,NA,NA,skipped,NA,109227,NA,NA,109225.2,109227.2,2024-02-21T09:41:11Z,109242.1,"c(""distractor1"", ""distractor2"", ""distractor3"")",Schatten,kivuli,d,NA,NA,NA,NA,NA,NA,NA,NA,NA,NA,NA,NA,NA,NA,NA,NA,NA,NA,NA,NA,NA,NA,NA,NA,NA,NA
91f6c,task,flow.Sequence,1_1_3,NA,NA,completion,12409.3,96801.6,96799.4,96815.9,109225.2,109227.4,2024-02-21T09:41:11Z,109242.1,"c(""distractor1"", ""distractor2"", ""distractor3"")",Schatten,kivuli,d,NA,NA,NA,NA,NA,NA,NA,NA,NA,NA,NA,NA,NA,NA,NA,NA,NA,NA,NA,NA,NA,NA,NA,NA,NA,NA
91f6c,Deep Question,html.Page,1_1_4_0_0,NA,NA,form submission,10267.700000001,109227.7,109225.2,109242.1,119509.8,119510.1,2024-02-21T09:41:21Z,119518.6,"c(""distractor1"", ""distractor2"", ""distractor3"")",Gesundheit,salama,d,NA,NA,NA,malani,NA,NA,NA,NA,NA,NA,NA,NA,NA,NA,NA,NA,NA,NA,NA,NA,NA,NA,NA,NA,NA,NA
91f6c,"""Richtig""-Screen",canvas.Screen,1_1_4_0_1,NA,NA,skipped,NA,119513.5,NA,NA,119509.8,119513.7,2024-02-21T09:41:21Z,119518.6,"c(""distractor1"", ""distractor2"", ""distractor3"")",Gesundheit,salama,d,NA,NA,NA,NA,NA,NA,NA,NA,NA,NA,NA,NA,NA,NA,NA,NA,NA,NA,NA,NA,NA,NA,NA,NA,NA,NA
91f6c,"""Falsch""-Screen",canvas.Screen,1_1_4_0_2,NA,NA,timeout,4996.9,119514.2,119504.958,119518.6,124498.9,124500,2024-02-21T09:41:26Z,124515.5,"c(""distractor1"", ""distractor2"", ""distractor3"")",Gesundheit,salama,d,NA,NA,NA,NA,NA,0,NA,NA,NA,NA,NA,NA,NA,NA,NA,NA,NA,NA,NA,NA,NA,NA,NA,NA,NA,NA
91f6c,deep,flow.Sequence,1_1_4_0,NA,NA,completion,15256.8,109227.6,109225.2,109242.1,124498.9,124500.5,2024-02-21T09:41:26Z,124515.5,"c(""distractor1"", ""distractor2"", ""distractor3"")",Gesundheit,salama,d,NA,NA,NA,NA,NA,NA,NA,NA,NA,NA,NA,NA,NA,NA,NA,NA,NA,NA,NA,NA,NA,NA,NA,NA,NA,NA
91f6c,shallow,flow.Sequence,1_1_4_1,NA,NA,skipped,NA,124500.5,NA,NA,124498.9,124500.8,2024-02-21T09:41:26Z,124515.5,"c(""distractor1"", ""distractor2"", ""distractor3"")",Gesundheit,salama,d,NA,NA,NA,NA,NA,NA,NA,NA,NA,NA,NA,NA,NA,NA,NA,NA,NA,NA,NA,NA,NA,NA,NA,NA,NA,NA
91f6c,task,flow.Sequence,1_1_4,NA,NA,completion,15256.8,109227.6,109225.2,109242.1,124498.9,124501,2024-02-21T09:41:26Z,124515.5,"c(""distractor1"", ""distractor2"", ""distractor3"")",Gesundheit,salama,d,NA,NA,NA,NA,NA,NA,NA,NA,NA,NA,NA,NA,NA,NA,NA,NA,NA,NA,NA,NA,NA,NA,NA,NA,NA,NA
91f6c,deep,flow.Sequence,1_1_5_0,NA,NA,skipped,NA,124501.3,NA,NA,124498.9,124501.4,2024-02-21T09:41:26Z,124515.5,"c(""distractor1"", ""distractor2"", ""distractor3"")",Rückhalt,msaada,s,muhula,auwali,kiwimbe,NA,NA,NA,NA,NA,NA,NA,NA,NA,NA,NA,NA,NA,NA,NA,NA,NA,NA,NA,NA,NA,NA,NA
91f6c,Shallow Question,html.Page,1_1_5_1_0,NA,NA,form submission,5786.3000000007,124501.6,124498.9,124515.5,130301.8,130302.1,2024-02-21T09:41:32Z,130311.9,"c(""distractor1"", ""distractor2"", ""distractor3"")",Rückhalt,msaada,s,muhula,auwali,kiwimbe,kiwimbe,NA,NA,NA,NA,NA,NA,NA,NA,NA,NA,NA,NA,NA,NA,NA,NA,NA,NA,NA,NA,NA,NA
91f6c,"""Richtig""-Screen",canvas.Screen,1_1_5_1_1,NA,NA,skipped,NA,130305.2,NA,NA,130301.8,130305.3,2024-02-21T09:41:32Z,130311.9,"c(""distractor1"", ""distractor2"", ""distractor3"")",Rückhalt,msaada,s,muhula,auwali,kiwimbe,NA,NA,NA,NA,NA,NA,NA,NA,NA,NA,NA,NA,NA,NA,NA,NA,NA,NA,NA,NA,NA,NA,NA
91f6c,"""Falsch""-Screen",canvas.Screen,1_1_5_1_2,NA,NA,timeout,4997,130306.1,130295.76,130311.9,135292.3,135293.7,2024-02-21T09:41:37Z,135308.9,"c(""distractor1"", ""distractor2"", ""distractor3"")",Rückhalt,msaada,s,muhula,auwali,kiwimbe,NA,NA,0,NA,NA,NA,NA,NA,NA,NA,NA,NA,NA,NA,NA,NA,NA,NA,NA,NA,NA,NA,NA
91f6c,shallow,flow.Sequence,1_1_5_1,NA,NA,completion,10776.8,124501.5,124498.9,124515.5,135292.3,135294.1,2024-02-21T09:41:37Z,135308.9,"c(""distractor1"", ""distractor2"", ""distractor3"")",Rückhalt,msaada,s,muhula,auwali,kiwimbe,NA,NA,NA,NA,NA,NA,NA,NA,NA,NA,NA,NA,NA,NA,NA,NA,NA,NA,NA,NA,NA,NA,NA
91f6c,task,flow.Sequence,1_1_5,NA,NA,completion,10776.8,124501.2,124498.9,124515.5,135292.3,135294.4,2024-02-21T09:41:37Z,135308.9,"c(""distractor1"", ""distractor2"", ""distractor3"")",Rückhalt,msaada,s,muhula,auwali,kiwimbe,NA,NA,NA,NA,NA,NA,NA,NA,NA,NA,NA,NA,NA,NA,NA,NA,NA,NA,NA,NA,NA,NA,NA
91f6c,block,flow.Loop,1_1,NA,NA,completion,79601.1,55678.300000001,55677.994,55691.2,135292.3,135294.7,2024-02-21T09:41:37Z,135308.9,"c(""distractor1"", ""distractor2"", ""distractor3"")",NA,NA,NA,NA,NA,NA,NA,NA,NA,NA,NA,NA,NA,NA,NA,NA,NA,NA,NA,NA,NA,NA,NA,NA,NA,NA,NA,NA,NA
91f6c,Practice,flow.Sequence,1,NA,NA,completion,87263.2,48020.1,48010.9,48029.1,135292.3,135295,2024-02-21T09:41:37Z,135308.9,NULL,NA,NA,NA,NA,NA,NA,NA,NA,NA,NA,NA,NA,NA,NA,NA,NA,NA,NA,NA,NA,NA,NA,NA,NA,NA,NA,NA,NA,NA
91f6c,Experiment start,canvas.Screen,2,weiter,keypress(q),response,37682,135295.1,135292.3,135308.9,172990.9,172992,2024-02-21T09:42:15Z,173054.762,NULL,NA,NA,NA,NA,NA,NA,NA,NA,NA,NA,NA,NA,NA,NA,NA,NA,NA,NA,NA,NA,NA,NA,NA,NA,NA,NA,NA,NA,NA
91f6c,deep,flow.Sequence,3_0_0_0_0_0,NA,NA,skipped,NA,173059.4,NA,NA,172990.9,173059.6,2024-02-21T09:42:15Z,173054.762,NULL,Fenster,dirisha,s,walakini,tasawari,maarifa,NA,sdf,NA,0,NA,NA,NA,NA,NA,NA,NA,NA,NA,NA,NA,NA,NA,NA,NA,NA,NA,NA,NA
91f6c,Shallow Question,html.Page,3_0_0_0_0_1_0,NA,NA,form submission,6302.738,173059.6,173054.762,173054.762,179357.5,179357.8,2024-02-21T09:42:21Z,179365.3,NULL,Fenster,dirisha,s,walakini,tasawari,maarifa,dirisha,NA,NA,0,NA,NA,NA,NA,NA,NA,NA,NA,NA,NA,NA,NA,NA,NA,NA,NA,NA,NA,NA
91f6c,"""Richtig""-Screen",canvas.Screen,3_0_0_0_0_1_1,NA,NA,timeout,4996.9,179360.8,179349.468,179365.3,184345.6,184346.3,2024-02-21T09:42:26Z,184362.2,NULL,Fenster,dirisha,s,walakini,tasawari,maarifa,NA,sdf,1,0,NA,NA,NA,NA,NA,NA,NA,NA,NA,NA,NA,NA,NA,NA,NA,NA,NA,NA,NA
91f6c,"""Falsch""-Screen",canvas.Screen,3_0_0_0_0_1_2,NA,NA,skipped,NA,184347.9,NA,NA,184345.6,184348,2024-02-21T09:42:26Z,184362.2,NULL,Fenster,dirisha,s,walakini,tasawari,maarifa,NA,sdf,NA,0,NA,NA,NA,NA,NA,NA,NA,NA,NA,NA,NA,NA,NA,NA,NA,NA,NA,NA,NA
91f6c,shallow,flow.Sequence,3_0_0_0_0_1,NA,NA,completion,11290.838,173059.6,173054.762,173054.762,184345.6,184348.1,2024-02-21T09:42:26Z,184362.2,NULL,Fenster,dirisha,s,walakini,tasawari,maarifa,NA,sdf,NA,0,NA,NA,NA,NA,NA,NA,NA,NA,NA,NA,NA,NA,NA,NA,NA,NA,NA,NA,NA
91f6c,task,flow.Sequence,3_0_0_0_0,NA,NA,completion,11290.838,173059.4,173054.762,173054.762,184345.6,184348.2,2024-02-21T09:42:26Z,184362.2,NULL,Fenster,dirisha,s,walakini,tasawari,maarifa,NA,sdf,NA,0,NA,NA,NA,NA,NA,NA,NA,NA,NA,NA,NA,NA,NA,NA,NA,NA,NA,NA,NA
91f6c,deep,flow.Sequence,3_0_0_0_1_0,NA,NA,skipped,NA,184348.2,NA,NA,184345.6,184348.2,2024-02-21T09:42:26Z,184362.2,NULL,Zuwachs,nyongeza,s,matilaba,udhibiti,hudhurio,NA,sdf,NA,0,NA,NA,NA,NA,NA,NA,NA,NA,NA,NA,NA,NA,NA,NA,NA,NA,NA,NA,NA
91f6c,Shallow Question,html.Page,3_0_0_0_1_1_0,NA,NA,form submission,6218.4999999992,184348.3,184345.6,184362.2,190580.7,190580.9,2024-02-21T09:42:32Z,190608.9,NULL,Zuwachs,nyongeza,s,matilaba,udhibiti,hudhurio,udhibiti,NA,NA,0,NA,NA,NA,NA,NA,NA,NA,NA,NA,NA,NA,NA,NA,NA,NA,NA,NA,NA,NA
91f6c,"""Richtig""-Screen",canvas.Screen,3_0_0_0_1_1_1,NA,NA,skipped,NA,190584,NA,NA,190580.7,190584.1,2024-02-21T09:42:32Z,190608.9,NULL,Zuwachs,nyongeza,s,matilaba,udhibiti,hudhurio,NA,sdf,NA,0,NA,NA,NA,NA,NA,NA,NA,NA,NA,NA,NA,NA,NA,NA,NA,NA,NA,NA,NA
91f6c,"""Falsch""-Screen",canvas.Screen,3_0_0_0_1_1_2,NA,NA,timeout,4996.7,190584.5,190592.4,190608.9,195589.1,195590.1,2024-02-21T09:42:37Z,195605.6,NULL,Zuwachs,nyongeza,s,matilaba,udhibiti,hudhurio,NA,sdf,0,0,NA,NA,NA,NA,NA,NA,NA,NA,NA,NA,NA,NA,NA,NA,NA,NA,NA,NA,NA
91f6c,shallow,flow.Sequence,3_0_0_0_1_1,NA,NA,completion,11226.9,184348.3,184345.6,184362.2,195589.1,195590.5,2024-02-21T09:42:37Z,195605.6,NULL,Zuwachs,nyongeza,s,matilaba,udhibiti,hudhurio,NA,sdf,NA,0,NA,NA,NA,NA,NA,NA,NA,NA,NA,NA,NA,NA,NA,NA,NA,NA,NA,NA,NA
91f6c,task,flow.Sequence,3_0_0_0_1,NA,NA,completion,11226.9,184348.2,184345.6,184362.2,195589.1,195590.7,2024-02-21T09:42:37Z,195605.6,NULL,Zuwachs,nyongeza,s,matilaba,udhibiti,hudhurio,NA,sdf,NA,0,NA,NA,NA,NA,NA,NA,NA,NA,NA,NA,NA,NA,NA,NA,NA,NA,NA,NA,NA
91f6c,Deep Question,html.Page,3_0_0_0_2_0_0,NA,NA,form submission,10128.099999999,195590.9,195589.1,195605.6,205733.7,205733.8,2024-02-21T09:42:48Z,205749.1,NULL,Tester,wanaojaribu,d,NA,NA,NA,manesa,NA,NA,0,NA,NA,NA,NA,NA,NA,NA,NA,NA,NA,NA,NA,NA,NA,NA,NA,NA,NA,NA
91f6c,"""Richtig""-Screen",canvas.Screen,3_0_0_0_2_0_1,NA,NA,skipped,NA,205735.3,NA,NA,205733.7,205735.4,2024-02-21T09:42:48Z,205749.1,NULL,Tester,wanaojaribu,d,NA,NA,NA,NA,sdf,NA,0,NA,NA,NA,NA,NA,NA,NA,NA,NA,NA,NA,NA,NA,NA,NA,NA,NA,NA,NA
91f6c,"""Falsch""-Screen",canvas.Screen,3_0_0_0_2_0_2,NA,NA,timeout,4997.3,205735.9,205732.6,205749.1,210729.9,210730.7,2024-02-21T09:42:53Z,210746.4,NULL,Tester,wanaojaribu,d,NA,NA,NA,NA,sdf,0,0,NA,NA,NA,NA,NA,NA,NA,NA,NA,NA,NA,NA,NA,NA,NA,NA,NA,NA,NA
91f6c,deep,flow.Sequence,3_0_0_0_2_0,NA,NA,completion,15124.3,195590.9,195589.1,195605.6,210729.9,210731,2024-02-21T09:42:53Z,210746.4,NULL,Tester,wanaojaribu,d,NA,NA,NA,NA,sdf,NA,0,NA,NA,NA,NA,NA,NA,NA,NA,NA,NA,NA,NA,NA,NA,NA,NA,NA,NA,NA
91f6c,shallow,flow.Sequence,3_0_0_0_2_1,NA,NA,skipped,NA,210731.1,NA,NA,210729.9,210731.2,2024-02-21T09:42:53Z,210746.4,NULL,Tester,wanaojaribu,d,NA,NA,NA,NA,sdf,NA,0,NA,NA,NA,NA,NA,NA,NA,NA,NA,NA,NA,NA,NA,NA,NA,NA,NA,NA,NA
91f6c,task,flow.Sequence,3_0_0_0_2,NA,NA,completion,15124.3,195590.8,195589.1,195605.6,210729.9,210731.4,2024-02-21T09:42:53Z,210746.4,NULL,Tester,wanaojaribu,d,NA,NA,NA,NA,sdf,NA,0,NA,NA,NA,NA,NA,NA,NA,NA,NA,NA,NA,NA,NA,NA,NA,NA,NA,NA,NA
91f6c,Deep Question,html.Page,3_0_0_0_3_0_0,NA,NA,form submission,7266.1,210731.6,210729.9,210746.4,218012.5,218012.7,2024-02-21T09:43:00Z,218024.9,NULL,Konkurrent,mshindani,d,NA,NA,NA,sajja,NA,NA,0,NA,NA,NA,NA,NA,NA,NA,NA,NA,NA,NA,NA,NA,NA,NA,NA,NA,NA,NA
91f6c,"""Richtig""-Screen",canvas.Screen,3_0_0_0_3_0_1,NA,NA,skipped,NA,218015.6,NA,NA,218012.5,218015.7,2024-02-21T09:43:00Z,218024.9,NULL,Konkurrent,mshindani,d,NA,NA,NA,NA,sdf,NA,0,NA,NA,NA,NA,NA,NA,NA,NA,NA,NA,NA,NA,NA,NA,NA,NA,NA,NA,NA
91f6c,"""Falsch""-Screen",canvas.Screen,3_0_0_0_3_0_2,NA,NA,timeout,4997,218016.2,218007.9,218024.9,223005.6,223006.5,2024-02-21T09:43:05Z,223021.9,NULL,Konkurrent,mshindani,d,NA,NA,NA,NA,sdf,0,0,NA,NA,NA,NA,NA,NA,NA,NA,NA,NA,NA,NA,NA,NA,NA,NA,NA,NA,NA
91f6c,deep,flow.Sequence,3_0_0_0_3_0,NA,NA,completion,12259.2,210731.5,210729.9,210746.4,223005.6,223006.9,2024-02-21T09:43:05Z,223021.9,NULL,Konkurrent,mshindani,d,NA,NA,NA,NA,sdf,NA,0,NA,NA,NA,NA,NA,NA,NA,NA,NA,NA,NA,NA,NA,NA,NA,NA,NA,NA,NA
91f6c,shallow,flow.Sequence,3_0_0_0_3_1,NA,NA,skipped,NA,223007,NA,NA,223005.6,223007.3,2024-02-21T09:43:05Z,223021.9,NULL,Konkurrent,mshindani,d,NA,NA,NA,NA,sdf,NA,0,NA,NA,NA,NA,NA,NA,NA,NA,NA,NA,NA,NA,NA,NA,NA,NA,NA,NA,NA
91f6c,task,flow.Sequence,3_0_0_0_3,NA,NA,completion,12259.2,210731.5,210729.9,210746.4,223005.6,223007.5,2024-02-21T09:43:05Z,223021.9,NULL,Konkurrent,mshindani,d,NA,NA,NA,NA,sdf,NA,0,NA,NA,NA,NA,NA,NA,NA,NA,NA,NA,NA,NA,NA,NA,NA,NA,NA,NA,NA
91f6c,Deep Question,html.Page,3_0_0_0_4_0_0,NA,NA,form submission,4075.6,223007.8,223005.6,223021.9,227097.5,227097.7,2024-02-21T09:43:09Z,227102.7,NULL,Schüler,mwanafunzi,d,NA,NA,NA,sla,NA,NA,0,NA,NA,NA,NA,NA,NA,NA,NA,NA,NA,NA,NA,NA,NA,NA,NA,NA,NA,NA
91f6c,"""Richtig""-Screen",canvas.Screen,3_0_0_0_4_0_1,NA,NA,skipped,NA,227100.8,NA,NA,227097.5,227100.9,2024-02-21T09:43:09Z,227102.7,NULL,Schüler,mwanafunzi,d,NA,NA,NA,NA,sdf,NA,0,NA,NA,NA,NA,NA,NA,NA,NA,NA,NA,NA,NA,NA,NA,NA,NA,NA,NA,NA
91f6c,"""Falsch""-Screen",canvas.Screen,3_0_0_0_4_0_2,NA,NA,timeout,4997.4,227101.8,227086.51,227102.7,232083,232084.1,2024-02-21T09:43:14Z,232100.1,NULL,Schüler,mwanafunzi,d,NA,NA,NA,NA,sdf,0,0,NA,NA,NA,NA,NA,NA,NA,NA,NA,NA,NA,NA,NA,NA,NA,NA,NA,NA,NA
91f6c,deep,flow.Sequence,3_0_0_0_4_0,NA,NA,completion,9061.1,223007.7,223005.6,223021.9,232083,232084.5,2024-02-21T09:43:14Z,232100.1,NULL,Schüler,mwanafunzi,d,NA,NA,NA,NA,sdf,NA,0,NA,NA,NA,NA,NA,NA,NA,NA,NA,NA,NA,NA,NA,NA,NA,NA,NA,NA,NA
91f6c,shallow,flow.Sequence,3_0_0_0_4_1,NA,NA,skipped,NA,232084.7,NA,NA,232083,232084.8,2024-02-21T09:43:14Z,232100.1,NULL,Schüler,mwanafunzi,d,NA,NA,NA,NA,sdf,NA,0,NA,NA,NA,NA,NA,NA,NA,NA,NA,NA,NA,NA,NA,NA,NA,NA,NA,NA,NA
91f6c,task,flow.Sequence,3_0_0_0_4,NA,NA,completion,9061.1,223007.7,223005.6,223021.9,232083,232085.1,2024-02-21T09:43:14Z,232100.1,NULL,Schüler,mwanafunzi,d,NA,NA,NA,NA,sdf,NA,0,NA,NA,NA,NA,NA,NA,NA,NA,NA,NA,NA,NA,NA,NA,NA,NA,NA,NA,NA
91f6c,Deep Question,html.Page,3_0_0_0_5_0_0,NA,NA,form submission,5765.7000000007,232085.3,232083,232100.1,237865.8,237865.9,2024-02-21T09:43:20Z,237879.7,NULL,Vorsorge,tahadhari,d,NA,NA,NA,la,NA,NA,0,NA,NA,NA,NA,NA,NA,NA,NA,NA,NA,NA,NA,NA,NA,NA,NA,NA,NA,NA
91f6c,"""Richtig""-Screen",canvas.Screen,3_0_0_0_5_0_1,NA,NA,skipped,NA,237867.4,NA,NA,237865.8,237867.5,2024-02-21T09:43:20Z,237879.7,NULL,Vorsorge,tahadhari,d,NA,NA,NA,NA,sdf,NA,0,NA,NA,NA,NA,NA,NA,NA,NA,NA,NA,NA,NA,NA,NA,NA,NA,NA,NA,NA
91f6c,"""Falsch""-Screen",canvas.Screen,3_0_0_0_5_0_2,NA,NA,timeout,4997.1,237867.9,237865.354,237879.7,242860.1,242861.2,2024-02-21T09:43:25Z,242876.8,NULL,Vorsorge,tahadhari,d,NA,NA,NA,NA,sdf,0,0,NA,NA,NA,NA,NA,NA,NA,NA,NA,NA,NA,NA,NA,NA,NA,NA,NA,NA,NA
91f6c,deep,flow.Sequence,3_0_0_0_5_0,NA,NA,completion,10760,232085.2,232083,232100.1,242860.1,242861.6,2024-02-21T09:43:25Z,242876.8,NULL,Vorsorge,tahadhari,d,NA,NA,NA,NA,sdf,NA,0,NA,NA,NA,NA,NA,NA,NA,NA,NA,NA,NA,NA,NA,NA,NA,NA,NA,NA,NA
91f6c,shallow,flow.Sequence,3_0_0_0_5_1,NA,NA,skipped,NA,242861.8,NA,NA,242860.1,242861.9,2024-02-21T09:43:25Z,242876.8,NULL,Vorsorge,tahadhari,d,NA,NA,NA,NA,sdf,NA,0,NA,NA,NA,NA,NA,NA,NA,NA,NA,NA,NA,NA,NA,NA,NA,NA,NA,NA,NA
91f6c,task,flow.Sequence,3_0_0_0_5,NA,NA,completion,10760,232085.2,232083,232100.1,242860.1,242862.1,2024-02-21T09:43:25Z,242876.8,NULL,Vorsorge,tahadhari,d,NA,NA,NA,NA,sdf,NA,0,NA,NA,NA,NA,NA,NA,NA,NA,NA,NA,NA,NA,NA,NA,NA,NA,NA,NA,NA
91f6c,deep,flow.Sequence,3_0_0_0_6_0,NA,NA,skipped,NA,242862.3,NA,NA,242860.1,242862.5,2024-02-21T09:43:25Z,242876.8,NULL,Symbol,kielezo,s,kinyume,nderemo,utayari,NA,sdf,NA,0,NA,NA,NA,NA,NA,NA,NA,NA,NA,NA,NA,NA,NA,NA,NA,NA,NA,NA,NA
91f6c,Shallow Question,html.Page,3_0_0_0_6_1_0,NA,NA,form submission,6892.2999999996,242862.6,242860.1,242876.8,249769.1,249769.4,2024-02-21T09:43:32Z,249772.496,NULL,Symbol,kielezo,s,kinyume,nderemo,utayari,nderemo,NA,NA,0,NA,NA,NA,NA,NA,NA,NA,NA,NA,NA,NA,NA,NA,NA,NA,NA,NA,NA,NA
91f6c,"""Richtig""-Screen",canvas.Screen,3_0_0_0_6_1_1,NA,NA,skipped,NA,249772.5,NA,NA,249769.1,249772.7,2024-02-21T09:43:32Z,249772.496,NULL,Symbol,kielezo,s,kinyume,nderemo,utayari,NA,sdf,NA,0,NA,NA,NA,NA,NA,NA,NA,NA,NA,NA,NA,NA,NA,NA,NA,NA,NA,NA,NA
91f6c,"""Falsch""-Screen",canvas.Screen,3_0_0_0_6_1_2,NA,NA,timeout,4996.904,249773.5,249772.496,249772.496,254752.5,254752.9,2024-02-21T09:43:37Z,254769.4,NULL,Symbol,kielezo,s,kinyume,nderemo,utayari,NA,sdf,0,0,NA,NA,NA,NA,NA,NA,NA,NA,NA,NA,NA,NA,NA,NA,NA,NA,NA,NA,NA
91f6c,shallow,flow.Sequence,3_0_0_0_6_1,NA,NA,completion,11875.7,242862.6,242860.1,242876.8,254752.5,254753,2024-02-21T09:43:37Z,254769.4,NULL,Symbol,kielezo,s,kinyume,nderemo,utayari,NA,sdf,NA,0,NA,NA,NA,NA,NA,NA,NA,NA,NA,NA,NA,NA,NA,NA,NA,NA,NA,NA,NA
91f6c,task,flow.Sequence,3_0_0_0_6,NA,NA,completion,11875.7,242862.2,242860.1,242876.8,254752.5,254753.2,2024-02-21T09:43:37Z,254769.4,NULL,Symbol,kielezo,s,kinyume,nderemo,utayari,NA,sdf,NA,0,NA,NA,NA,NA,NA,NA,NA,NA,NA,NA,NA,NA,NA,NA,NA,NA,NA,NA,NA
91f6c,deep,flow.Sequence,3_0_0_0_7_0,NA,NA,skipped,NA,254753.2,NA,NA,254752.5,254753.3,2024-02-21T09:43:37Z,254769.4,NULL,Spionage,upelelezi,s,maslahi,utokazo,magangao,NA,sdf,NA,0,NA,NA,NA,NA,NA,NA,NA,NA,NA,NA,NA,NA,NA,NA,NA,NA,NA,NA,NA
91f6c,Shallow Question,html.Page,3_0_0_0_7_1_0,NA,NA,form submission,7040.1999999996,254753.3,254752.5,254769.4,261809.6,261809.9,2024-02-21T09:43:44Z,261814.8,NULL,Spionage,upelelezi,s,maslahi,utokazo,magangao,magangao,NA,NA,0,NA,NA,NA,NA,NA,NA,NA,NA,NA,NA,NA,NA,NA,NA,NA,NA,NA,NA,NA
91f6c,"""Richtig""-Screen",canvas.Screen,3_0_0_0_7_1_1,NA,NA,skipped,NA,261813.1,NA,NA,261809.6,261813.2,2024-02-21T09:43:44Z,261814.8,NULL,Spionage,upelelezi,s,maslahi,utokazo,magangao,NA,sdf,NA,0,NA,NA,NA,NA,NA,NA,NA,NA,NA,NA,NA,NA,NA,NA,NA,NA,NA,NA,NA
91f6c,"""Falsch""-Screen",canvas.Screen,3_0_0_0_7_1_2,NA,NA,timeout,4997.3,261813.9,261798.694,261814.8,266795.6,266796.6,2024-02-21T09:43:49Z,266812.1,NULL,Spionage,upelelezi,s,maslahi,utokazo,magangao,NA,sdf,0,0,NA,NA,NA,NA,NA,NA,NA,NA,NA,NA,NA,NA,NA,NA,NA,NA,NA,NA,NA
91f6c,shallow,flow.Sequence,3_0_0_0_7_1,NA,NA,completion,12026.2,254753.3,254752.5,254769.4,266795.6,266797,2024-02-21T09:43:49Z,266812.1,NULL,Spionage,upelelezi,s,maslahi,utokazo,magangao,NA,sdf,NA,0,NA,NA,NA,NA,NA,NA,NA,NA,NA,NA,NA,NA,NA,NA,NA,NA,NA,NA,NA
91f6c,task,flow.Sequence,3_0_0_0_7,NA,NA,completion,12026.2,254753.2,254752.5,254769.4,266795.6,266797.3,2024-02-21T09:43:49Z,266812.1,NULL,Spionage,upelelezi,s,maslahi,utokazo,magangao,NA,sdf,NA,0,NA,NA,NA,NA,NA,NA,NA,NA,NA,NA,NA,NA,NA,NA,NA,NA,NA,NA,NA
91f6c,block,flow.Loop,3_0_0_0,NA,NA,completion,93740.838,173059.4,173054.762,173054.762,266795.6,266797.5,2024-02-21T09:43:49Z,266812.1,NULL,NA,NA,NA,NA,NA,NA,NA,sdf,NA,0,NA,NA,NA,NA,NA,NA,NA,NA,NA,NA,NA,NA,NA,NA,NA,NA,NA,NA,NA
91f6c,weiter,canvas.Screen,3_0_0_1,sdf,keypress(Space),response,3578.9,266797.8,266795.6,266812.1,270391,270391.6,2024-02-21T09:43:52Z,270426.3,NULL,NA,NA,NA,NA,NA,NA,NA,sdf,NA,0,NA,NA,NA,NA,NA,NA,NA,NA,NA,NA,NA,NA,NA,NA,NA,NA,NA,NA,NA
91f6c,check continue,flow.Sequence,3_0_0,NA,NA,completion,97336.238,173059.4,173054.762,173054.762,270391,270391.8,2024-02-21T09:43:52Z,270426.3,NULL,NA,NA,NA,NA,NA,NA,NA,sdf,NA,0,NA,NA,NA,NA,NA,NA,NA,NA,NA,NA,NA,NA,NA,NA,NA,NA,NA,NA,NA
91f6c,Deep Question,html.Page,3_0_1_0_0_0_0,NA,NA,form submission,7217.3999999993,270422.3,270411.956,270426.3,277643.7,277644,2024-02-21T09:43:59Z,277655.3,NULL,Tester,wanaojaribu,d,NA,NA,NA,upelele,NA,NA,1,NA,NA,NA,NA,NA,NA,NA,NA,NA,NA,NA,NA,NA,NA,NA,NA,NA,NA,NA
91f6c,"""Richtig""-Screen",canvas.Screen,3_0_1_0_0_0_1,NA,NA,skipped,NA,277647,NA,NA,277643.7,277647.2,2024-02-21T09:43:59Z,277655.3,NULL,Tester,wanaojaribu,d,NA,NA,NA,NA,sdfdsf,NA,1,NA,NA,NA,NA,NA,NA,NA,NA,NA,NA,NA,NA,NA,NA,NA,NA,NA,NA,NA
91f6c,"""Falsch""-Screen",canvas.Screen,3_0_1_0_0_0_2,NA,NA,timeout,4997.1,277648.1,277639.676,277655.3,282635.8,282637.2,2024-02-21T09:44:04Z,282652.4,NULL,Tester,wanaojaribu,d,NA,NA,NA,NA,sdfdsf,0,1,NA,NA,NA,NA,NA,NA,NA,NA,NA,NA,NA,NA,NA,NA,NA,NA,NA,NA,NA
91f6c,deep,flow.Sequence,3_0_1_0_0_0,NA,NA,completion,12209.5,270422.2,270411.956,270426.3,282635.8,282637.5,2024-02-21T09:44:04Z,282652.4,NULL,Tester,wanaojaribu,d,NA,NA,NA,NA,sdfdsf,NA,1,NA,NA,NA,NA,NA,NA,NA,NA,NA,NA,NA,NA,NA,NA,NA,NA,NA,NA,NA
91f6c,shallow,flow.Sequence,3_0_1_0_0_1,NA,NA,skipped,NA,282637.7,NA,NA,282635.8,282637.8,2024-02-21T09:44:04Z,282652.4,NULL,Tester,wanaojaribu,d,NA,NA,NA,NA,sdfdsf,NA,1,NA,NA,NA,NA,NA,NA,NA,NA,NA,NA,NA,NA,NA,NA,NA,NA,NA,NA,NA
91f6c,task,flow.Sequence,3_0_1_0_0,NA,NA,completion,12209.5,270422.2,270411.956,270426.3,282635.8,282638.1,2024-02-21T09:44:04Z,282652.4,NULL,Tester,wanaojaribu,d,NA,NA,NA,NA,sdfdsf,NA,1,NA,NA,NA,NA,NA,NA,NA,NA,NA,NA,NA,NA,NA,NA,NA,NA,NA,NA,NA
91f6c,Deep Question,html.Page,3_0_1_0_1_0_0,NA,NA,form submission,6552.6999999996,282638.3,282635.8,282652.4,289205.1,289205.4,2024-02-21T09:44:11Z,289214.7,NULL,Konkurrent,mshindani,d,NA,NA,NA,sj,NA,NA,1,NA,NA,NA,NA,NA,NA,NA,NA,NA,NA,NA,NA,NA,NA,NA,NA,NA,NA,NA
91f6c,"""Richtig""-Screen",canvas.Screen,3_0_1_0_1_0_1,NA,NA,skipped,NA,289208.5,NA,NA,289205.1,289208.6,2024-02-21T09:44:11Z,289214.7,NULL,Konkurrent,mshindani,d,NA,NA,NA,NA,sdfdsf,NA,1,NA,NA,NA,NA,NA,NA,NA,NA,NA,NA,NA,NA,NA,NA,NA,NA,NA,NA,NA
91f6c,"""Falsch""-Screen",canvas.Screen,3_0_1_0_1_0_2,NA,NA,timeout,4997.4,289209.2,289199.98,289214.7,294195.4,294196.1,2024-02-21T09:44:16Z,294212.1,NULL,Konkurrent,mshindani,d,NA,NA,NA,NA,sdfdsf,0,1,NA,NA,NA,NA,NA,NA,NA,NA,NA,NA,NA,NA,NA,NA,NA,NA,NA,NA,NA
91f6c,deep,flow.Sequence,3_0_1_0_1_0,NA,NA,completion,11543,282638.3,282635.8,282652.4,294195.4,294196.3,2024-02-21T09:44:16Z,294212.1,NULL,Konkurrent,mshindani,d,NA,NA,NA,NA,sdfdsf,NA,1,NA,NA,NA,NA,NA,NA,NA,NA,NA,NA,NA,NA,NA,NA,NA,NA,NA,NA,NA
91f6c,shallow,flow.Sequence,3_0_1_0_1_1,NA,NA,skipped,NA,294196.3,NA,NA,294195.4,294196.4,2024-02-21T09:44:16Z,294212.1,NULL,Konkurrent,mshindani,d,NA,NA,NA,NA,sdfdsf,NA,1,NA,NA,NA,NA,NA,NA,NA,NA,NA,NA,NA,NA,NA,NA,NA,NA,NA,NA,NA
91f6c,task,flow.Sequence,3_0_1_0_1,NA,NA,completion,11543,282638.2,282635.8,282652.4,294195.4,294196.5,2024-02-21T09:44:16Z,294212.1,NULL,Konkurrent,mshindani,d,NA,NA,NA,NA,sdfdsf,NA,1,NA,NA,NA,NA,NA,NA,NA,NA,NA,NA,NA,NA,NA,NA,NA,NA,NA,NA,NA
91f6c,deep,flow.Sequence,3_0_1_0_2_0,NA,NA,skipped,NA,294196.5,NA,NA,294195.4,294196.6,2024-02-21T09:44:16Z,294212.1,NULL,Zuwachs,nyongeza,s,matilaba,udhibiti,hudhurio,NA,sdfdsf,NA,1,NA,NA,NA,NA,NA,NA,NA,NA,NA,NA,NA,NA,NA,NA,NA,NA,NA,NA,NA
91f6c,Shallow Question,html.Page,3_0_1_0_2_1_0,NA,NA,form submission,7589.7000000008,294196.7,294195.4,294212.1,301801.8,301802.2,2024-02-21T09:44:24Z,301807.1,NULL,Zuwachs,nyongeza,s,matilaba,udhibiti,hudhurio,nyongeza,NA,NA,1,NA,NA,NA,NA,NA,NA,NA,NA,NA,NA,NA,NA,NA,NA,NA,NA,NA,NA,NA
91f6c,"""Richtig""-Screen",canvas.Screen,3_0_1_0_2_1_1,NA,NA,timeout,4997.2,301805.4,301790.796,301807.1,306787.3,306787.8,2024-02-21T09:44:29Z,306804.3,NULL,Zuwachs,nyongeza,s,matilaba,udhibiti,hudhurio,NA,sdfdsf,1,1,NA,NA,NA,NA,NA,NA,NA,NA,NA,NA,NA,NA,NA,NA,NA,NA,NA,NA,NA
91f6c,"""Falsch""-Screen",canvas.Screen,3_0_1_0_2_1_2,NA,NA,skipped,NA,306789.1,NA,NA,306787.3,306789.2,2024-02-21T09:44:29Z,306804.3,NULL,Zuwachs,nyongeza,s,matilaba,udhibiti,hudhurio,NA,sdfdsf,NA,1,NA,NA,NA,NA,NA,NA,NA,NA,NA,NA,NA,NA,NA,NA,NA,NA,NA,NA,NA
91f6c,shallow,flow.Sequence,3_0_1_0_2_1,NA,NA,completion,12575.2,294196.7,294195.4,294212.1,306787.3,306789.2,2024-02-21T09:44:29Z,306804.3,NULL,Zuwachs,nyongeza,s,matilaba,udhibiti,hudhurio,NA,sdfdsf,NA,1,NA,NA,NA,NA,NA,NA,NA,NA,NA,NA,NA,NA,NA,NA,NA,NA,NA,NA,NA
91f6c,task,flow.Sequence,3_0_1_0_2,NA,NA,completion,12575.2,294196.5,294195.4,294212.1,306787.3,306789.4,2024-02-21T09:44:29Z,306804.3,NULL,Zuwachs,nyongeza,s,matilaba,udhibiti,hudhurio,NA,sdfdsf,NA,1,NA,NA,NA,NA,NA,NA,NA,NA,NA,NA,NA,NA,NA,NA,NA,NA,NA,NA,NA
91f6c,Deep Question,html.Page,3_0_1_0_3_0_0,NA,NA,form submission,5537.5000000008,306789.4,306787.3,306804.3,312341.8,312342,2024-02-21T09:44:34Z,312350.5,NULL,Vorsorge,tahadhari,d,NA,NA,NA,ss,NA,NA,1,NA,NA,NA,NA,NA,NA,NA,NA,NA,NA,NA,NA,NA,NA,NA,NA,NA,NA,NA
91f6c,"""Richtig""-Screen",canvas.Screen,3_0_1_0_3_0_1,NA,NA,skipped,NA,312344.9,NA,NA,312341.8,312345.1,2024-02-21T09:44:34Z,312350.5,NULL,Vorsorge,tahadhari,d,NA,NA,NA,NA,sdfdsf,NA,1,NA,NA,NA,NA,NA,NA,NA,NA,NA,NA,NA,NA,NA,NA,NA,NA,NA,NA,NA
91f6c,"""Falsch""-Screen",canvas.Screen,3_0_1_0_3_0_2,NA,NA,timeout,4997.3,312346,312334.546,312350.5,317330.9,317332,2024-02-21T09:44:39Z,317347.8,NULL,Vorsorge,tahadhari,d,NA,NA,NA,NA,sdfdsf,0,1,NA,NA,NA,NA,NA,NA,NA,NA,NA,NA,NA,NA,NA,NA,NA,NA,NA,NA,NA
91f6c,deep,flow.Sequence,3_0_1_0_3_0,NA,NA,completion,10526.6,306789.4,306787.3,306804.3,317330.9,317332.3,2024-02-21T09:44:39Z,317347.8,NULL,Vorsorge,tahadhari,d,NA,NA,NA,NA,sdfdsf,NA,1,NA,NA,NA,NA,NA,NA,NA,NA,NA,NA,NA,NA,NA,NA,NA,NA,NA,NA,NA
91f6c,shallow,flow.Sequence,3_0_1_0_3_1,NA,NA,skipped,NA,317332.6,NA,NA,317330.9,317332.7,2024-02-21T09:44:39Z,317347.8,NULL,Vorsorge,tahadhari,d,NA,NA,NA,NA,sdfdsf,NA,1,NA,NA,NA,NA,NA,NA,NA,NA,NA,NA,NA,NA,NA,NA,NA,NA,NA,NA,NA
91f6c,task,flow.Sequence,3_0_1_0_3,NA,NA,completion,10526.6,306789.4,306787.3,306804.3,317330.9,317332.9,2024-02-21T09:44:39Z,317347.8,NULL,Vorsorge,tahadhari,d,NA,NA,NA,NA,sdfdsf,NA,1,NA,NA,NA,NA,NA,NA,NA,NA,NA,NA,NA,NA,NA,NA,NA,NA,NA,NA,NA
91f6c,Deep Question,html.Page,3_0_1_0_4_0_0,NA,NA,form submission,6921.8999999993,317333.2,317330.9,317347.8,324269.7,324270,2024-02-21T09:44:46Z,324276.5,NULL,Schüler,mwanafunzi,d,NA,NA,NA,luleleli,NA,NA,1,NA,NA,NA,NA,NA,NA,NA,NA,NA,NA,NA,NA,NA,NA,NA,NA,NA,NA,NA
91f6c,"""Richtig""-Screen",canvas.Screen,3_0_1_0_4_0_1,NA,NA,skipped,NA,324273.2,NA,NA,324269.7,324273.3,2024-02-21T09:44:46Z,324276.5,NULL,Schüler,mwanafunzi,d,NA,NA,NA,NA,sdfdsf,NA,1,NA,NA,NA,NA,NA,NA,NA,NA,NA,NA,NA,NA,NA,NA,NA,NA,NA,NA,NA
91f6c,"""Falsch""-Screen",canvas.Screen,3_0_1_0_4_0_2,NA,NA,timeout,4997.4,324274.2,324261.608,324276.5,329256.9,329258,2024-02-21T09:44:51Z,329273.9,NULL,Schüler,mwanafunzi,d,NA,NA,NA,NA,sdfdsf,0,1,NA,NA,NA,NA,NA,NA,NA,NA,NA,NA,NA,NA,NA,NA,NA,NA,NA,NA,NA
91f6c,deep,flow.Sequence,3_0_1_0_4_0,NA,NA,completion,11909.1,317333.2,317330.9,317347.8,329256.9,329258.4,2024-02-21T09:44:51Z,329273.9,NULL,Schüler,mwanafunzi,d,NA,NA,NA,NA,sdfdsf,NA,1,NA,NA,NA,NA,NA,NA,NA,NA,NA,NA,NA,NA,NA,NA,NA,NA,NA,NA,NA
91f6c,shallow,flow.Sequence,3_0_1_0_4_1,NA,NA,skipped,NA,329258.6,NA,NA,329256.9,329258.8,2024-02-21T09:44:51Z,329273.9,NULL,Schüler,mwanafunzi,d,NA,NA,NA,NA,sdfdsf,NA,1,NA,NA,NA,NA,NA,NA,NA,NA,NA,NA,NA,NA,NA,NA,NA,NA,NA,NA,NA
91f6c,task,flow.Sequence,3_0_1_0_4,NA,NA,completion,11909.1,317333.1,317330.9,317347.8,329256.9,329259.1,2024-02-21T09:44:51Z,329273.9,NULL,Schüler,mwanafunzi,d,NA,NA,NA,NA,sdfdsf,NA,1,NA,NA,NA,NA,NA,NA,NA,NA,NA,NA,NA,NA,NA,NA,NA,NA,NA,NA,NA
91f6c,deep,flow.Sequence,3_0_1_0_5_0,NA,NA,skipped,NA,329259.3,NA,NA,329256.9,329259.4,2024-02-21T09:44:51Z,329273.9,NULL,Fenster,dirisha,s,walakini,tasawari,maarifa,NA,sdfdsf,NA,1,NA,NA,NA,NA,NA,NA,NA,NA,NA,NA,NA,NA,NA,NA,NA,NA,NA,NA,NA
91f6c,Shallow Question,html.Page,3_0_1_0_5_1_0,NA,NA,form submission,4969.6999999996,329259.6,329256.9,329273.9,334243.6,334243.8,2024-02-21T09:44:56Z,334253.8,NULL,Fenster,dirisha,s,walakini,tasawari,maarifa,dirisha,NA,NA,1,NA,NA,NA,NA,NA,NA,NA,NA,NA,NA,NA,NA,NA,NA,NA,NA,NA,NA,NA
91f6c,"""Richtig""-Screen",canvas.Screen,3_0_1_0_5_1_1,NA,NA,timeout,4997,334247.1,334238.5,334253.8,339234.5,339235.9,2024-02-21T09:45:01Z,339250.8,NULL,Fenster,dirisha,s,walakini,tasawari,maarifa,NA,sdfdsf,1,1,NA,NA,NA,NA,NA,NA,NA,NA,NA,NA,NA,NA,NA,NA,NA,NA,NA,NA,NA
91f6c,"""Falsch""-Screen",canvas.Screen,3_0_1_0_5_1_2,NA,NA,skipped,NA,339242.5,NA,NA,339234.5,339243,2024-02-21T09:45:01Z,339250.8,NULL,Fenster,dirisha,s,walakini,tasawari,maarifa,NA,sdfdsf,NA,1,NA,NA,NA,NA,NA,NA,NA,NA,NA,NA,NA,NA,NA,NA,NA,NA,NA,NA,NA
91f6c,shallow,flow.Sequence,3_0_1_0_5_1,NA,NA,completion,9960.6,329259.6,329256.9,329273.9,339234.5,339243.3,2024-02-21T09:45:01Z,339250.8,NULL,Fenster,dirisha,s,walakini,tasawari,maarifa,NA,sdfdsf,NA,1,NA,NA,NA,NA,NA,NA,NA,NA,NA,NA,NA,NA,NA,NA,NA,NA,NA,NA,NA
91f6c,task,flow.Sequence,3_0_1_0_5,NA,NA,completion,9960.6,329259.3,329256.9,329273.9,339234.5,339243.5,2024-02-21T09:45:01Z,339250.8,NULL,Fenster,dirisha,s,walakini,tasawari,maarifa,NA,sdfdsf,NA,1,NA,NA,NA,NA,NA,NA,NA,NA,NA,NA,NA,NA,NA,NA,NA,NA,NA,NA,NA
91f6c,deep,flow.Sequence,3_0_1_0_6_0,NA,NA,skipped,NA,339243.8,NA,NA,339234.5,339243.9,2024-02-21T09:45:01Z,339250.8,NULL,Spionage,upelelezi,s,maslahi,utokazo,magangao,NA,sdfdsf,NA,1,NA,NA,NA,NA,NA,NA,NA,NA,NA,NA,NA,NA,NA,NA,NA,NA,NA,NA,NA
91f6c,Shallow Question,html.Page,3_0_1_0_6_1_0,NA,NA,form submission,5060.8999999993,339244.1,339234.5,339250.8,344311.7,344311.9,2024-02-21T09:45:06Z,344314.958,NULL,Spionage,upelelezi,s,maslahi,utokazo,magangao,upelelezi,NA,NA,1,NA,NA,NA,NA,NA,NA,NA,NA,NA,NA,NA,NA,NA,NA,NA,NA,NA,NA,NA
91f6c,"""Richtig""-Screen",canvas.Screen,3_0_1_0_6_1_1,NA,NA,timeout,4996.342,344315,344314.958,344314.958,349294.7,349296.1,2024-02-21T09:45:11Z,349311.3,NULL,Spionage,upelelezi,s,maslahi,utokazo,magangao,NA,sdfdsf,1,1,NA,NA,NA,NA,NA,NA,NA,NA,NA,NA,NA,NA,NA,NA,NA,NA,NA,NA,NA
91f6c,"""Falsch""-Screen",canvas.Screen,3_0_1_0_6_1_2,NA,NA,skipped,NA,349302.1,NA,NA,349294.7,349302.4,2024-02-21T09:45:11Z,349311.3,NULL,Spionage,upelelezi,s,maslahi,utokazo,magangao,NA,sdfdsf,NA,1,NA,NA,NA,NA,NA,NA,NA,NA,NA,NA,NA,NA,NA,NA,NA,NA,NA,NA,NA
91f6c,shallow,flow.Sequence,3_0_1_0_6_1,NA,NA,completion,10043.9,339244.1,339234.5,339250.8,349294.7,349302.7,2024-02-21T09:45:11Z,349311.3,NULL,Spionage,upelelezi,s,maslahi,utokazo,magangao,NA,sdfdsf,NA,1,NA,NA,NA,NA,NA,NA,NA,NA,NA,NA,NA,NA,NA,NA,NA,NA,NA,NA,NA
91f6c,task,flow.Sequence,3_0_1_0_6,NA,NA,completion,10043.9,339243.7,339234.5,339250.8,349294.7,349303.1,2024-02-21T09:45:11Z,349311.3,NULL,Spionage,upelelezi,s,maslahi,utokazo,magangao,NA,sdfdsf,NA,1,NA,NA,NA,NA,NA,NA,NA,NA,NA,NA,NA,NA,NA,NA,NA,NA,NA,NA,NA
91f6c,deep,flow.Sequence,3_0_1_0_7_0,NA,NA,skipped,NA,349303.2,NA,NA,349294.7,349303.4,2024-02-21T09:45:11Z,349311.3,NULL,Symbol,kielezo,s,kinyume,nderemo,utayari,NA,sdfdsf,NA,1,NA,NA,NA,NA,NA,NA,NA,NA,NA,NA,NA,NA,NA,NA,NA,NA,NA,NA,NA
91f6c,Shallow Question,html.Page,3_0_1_0_7_1_0,NA,NA,form submission,8196.2999999996,349303.5,349294.7,349311.3,357507.6,357507.8,2024-02-21T09:45:19Z,357523.2,NULL,Symbol,kielezo,s,kinyume,nderemo,utayari,kielezo,NA,NA,1,NA,NA,NA,NA,NA,NA,NA,NA,NA,NA,NA,NA,NA,NA,NA,NA,NA,NA,NA
91f6c,"""Richtig""-Screen",canvas.Screen,3_0_1_0_7_1_1,NA,NA,timeout,4997.2,357510.9,357506.692,357523.2,362503.4,362504.4,2024-02-21T09:45:24Z,362520.4,NULL,Symbol,kielezo,s,kinyume,nderemo,utayari,NA,sdfdsf,1,1,NA,NA,NA,NA,NA,NA,NA,NA,NA,NA,NA,NA,NA,NA,NA,NA,NA,NA,NA
91f6c,"""Falsch""-Screen",canvas.Screen,3_0_1_0_7_1_2,NA,NA,skipped,NA,362509.1,NA,NA,362503.4,362509.1,2024-02-21T09:45:24Z,362520.4,NULL,Symbol,kielezo,s,kinyume,nderemo,utayari,NA,sdfdsf,NA,1,NA,NA,NA,NA,NA,NA,NA,NA,NA,NA,NA,NA,NA,NA,NA,NA,NA,NA,NA
91f6c,shallow,flow.Sequence,3_0_1_0_7_1,NA,NA,completion,13192.1,349303.5,349294.7,349311.3,362503.4,362509.2,2024-02-21T09:45:24Z,362520.4,NULL,Symbol,kielezo,s,kinyume,nderemo,utayari,NA,sdfdsf,NA,1,NA,NA,NA,NA,NA,NA,NA,NA,NA,NA,NA,NA,NA,NA,NA,NA,NA,NA,NA
91f6c,task,flow.Sequence,3_0_1_0_7,NA,NA,completion,13192.1,349303.2,349294.7,349311.3,362503.4,362509.3,2024-02-21T09:45:24Z,362520.4,NULL,Symbol,kielezo,s,kinyume,nderemo,utayari,NA,sdfdsf,NA,1,NA,NA,NA,NA,NA,NA,NA,NA,NA,NA,NA,NA,NA,NA,NA,NA,NA,NA,NA
91f6c,block,flow.Loop,3_0_1_0,NA,NA,completion,92077.1,270422.2,270411.956,270426.3,362503.4,362509.4,2024-02-21T09:45:24Z,362520.4,NULL,NA,NA,NA,NA,NA,NA,NA,sdfdsf,NA,1,NA,NA,NA,NA,NA,NA,NA,NA,NA,NA,NA,NA,NA,NA,NA,NA,NA,NA,NA
91f6c,weiter,canvas.Screen,3_0_1_1,sdf,keypress(Space),response,1443.6,362509.5,362503.4,362520.4,363964,363965,2024-02-21T09:45:26Z,363987.008,NULL,NA,NA,NA,NA,NA,NA,NA,sdfdsf,NA,1,NA,NA,NA,NA,NA,NA,NA,NA,NA,NA,NA,NA,NA,NA,NA,NA,NA,NA,NA
91f6c,check continue,flow.Sequence,3_0_1,NA,NA,completion,93537.7,270422.1,270411.956,270426.3,363964,363965.3,2024-02-21T09:45:26Z,363987.008,NULL,NA,NA,NA,NA,NA,NA,NA,sdfdsf,NA,1,NA,NA,NA,NA,NA,NA,NA,NA,NA,NA,NA,NA,NA,NA,NA,NA,NA,NA,NA
91f6c,deep,flow.Sequence,3_0_2_0_0_0,NA,NA,skipped,NA,363994.2,NA,NA,363964,363994.2,2024-02-21T09:45:26Z,363987.008,NULL,Fenster,dirisha,s,walakini,tasawari,maarifa,NA,sdf,NA,2,NA,NA,NA,NA,NA,NA,NA,NA,NA,NA,NA,NA,NA,NA,NA,NA,NA,NA,NA
91f6c,Shallow Question,html.Page,3_0_2_0_0_1_0,NA,NA,form submission,4826.8920000004,363994.3,363987.008,363987.008,368813.9,368814.1,2024-02-21T09:45:31Z,368816.52,NULL,Fenster,dirisha,s,walakini,tasawari,maarifa,dirisha,NA,NA,2,NA,NA,NA,NA,NA,NA,NA,NA,NA,NA,NA,NA,NA,NA,NA,NA,NA,NA,NA
91f6c,"""Richtig""-Screen",canvas.Screen,3_0_2_0_0_1_1,NA,NA,timeout,4996.78,368817.3,368816.52,368816.52,373796.4,373797.4,2024-02-21T09:45:36Z,373813.3,NULL,Fenster,dirisha,s,walakini,tasawari,maarifa,NA,sdf,1,2,NA,NA,NA,NA,NA,NA,NA,NA,NA,NA,NA,NA,NA,NA,NA,NA,NA,NA,NA
91f6c,"""Falsch""-Screen",canvas.Screen,3_0_2_0_0_1_2,NA,NA,skipped,NA,373802.5,NA,NA,373796.4,373802.7,2024-02-21T09:45:36Z,373813.3,NULL,Fenster,dirisha,s,walakini,tasawari,maarifa,NA,sdf,NA,2,NA,NA,NA,NA,NA,NA,NA,NA,NA,NA,NA,NA,NA,NA,NA,NA,NA,NA,NA
91f6c,shallow,flow.Sequence,3_0_2_0_0_1,NA,NA,completion,9809.3920000001,363994.3,363987.008,363987.008,373796.4,373802.8,2024-02-21T09:45:36Z,373813.3,NULL,Fenster,dirisha,s,walakini,tasawari,maarifa,NA,sdf,NA,2,NA,NA,NA,NA,NA,NA,NA,NA,NA,NA,NA,NA,NA,NA,NA,NA,NA,NA,NA
91f6c,task,flow.Sequence,3_0_2_0_0,NA,NA,completion,9809.3920000001,363994.2,363987.008,363987.008,373796.4,373802.9,2024-02-21T09:45:36Z,373813.3,NULL,Fenster,dirisha,s,walakini,tasawari,maarifa,NA,sdf,NA,2,NA,NA,NA,NA,NA,NA,NA,NA,NA,NA,NA,NA,NA,NA,NA,NA,NA,NA,NA
91f6c,Deep Question,html.Page,3_0_2_0_1_0_0,NA,NA,form submission,13488.8,373802.9,373796.4,373813.3,387302.1,387302.3,2024-02-21T09:45:49Z,387321.4,NULL,Schüler,mwanafunzi,d,NA,NA,NA,em,NA,NA,2,NA,NA,NA,NA,NA,NA,NA,NA,NA,NA,NA,NA,NA,NA,NA,NA,NA,NA,NA
91f6c,"""Richtig""-Screen",canvas.Screen,3_0_2_0_1_0_1,NA,NA,skipped,NA,387305.9,NA,NA,387302.1,387306.2,2024-02-21T09:45:49Z,387321.4,NULL,Schüler,mwanafunzi,d,NA,NA,NA,NA,sdf,NA,2,NA,NA,NA,NA,NA,NA,NA,NA,NA,NA,NA,NA,NA,NA,NA,NA,NA,NA,NA
91f6c,"""Falsch""-Screen",canvas.Screen,3_0_2_0_1_0_2,NA,NA,timeout,4997.2,387307.2,387304.7,387321.4,392301.9,392302.9,2024-02-21T09:45:54Z,392318.6,NULL,Schüler,mwanafunzi,d,NA,NA,NA,NA,sdf,0,2,NA,NA,NA,NA,NA,NA,NA,NA,NA,NA,NA,NA,NA,NA,NA,NA,NA,NA,NA
91f6c,deep,flow.Sequence,3_0_2_0_1_0,NA,NA,completion,18488.6,373802.9,373796.4,373813.3,392301.9,392303.3,2024-02-21T09:45:54Z,392318.6,NULL,Schüler,mwanafunzi,d,NA,NA,NA,NA,sdf,NA,2,NA,NA,NA,NA,NA,NA,NA,NA,NA,NA,NA,NA,NA,NA,NA,NA,NA,NA,NA
91f6c,shallow,flow.Sequence,3_0_2_0_1_1,NA,NA,skipped,NA,392303.4,NA,NA,392301.9,392303.6,2024-02-21T09:45:54Z,392318.6,NULL,Schüler,mwanafunzi,d,NA,NA,NA,NA,sdf,NA,2,NA,NA,NA,NA,NA,NA,NA,NA,NA,NA,NA,NA,NA,NA,NA,NA,NA,NA,NA
91f6c,task,flow.Sequence,3_0_2_0_1,NA,NA,completion,18488.6,373802.9,373796.4,373813.3,392301.9,392303.8,2024-02-21T09:45:54Z,392318.6,NULL,Schüler,mwanafunzi,d,NA,NA,NA,NA,sdf,NA,2,NA,NA,NA,NA,NA,NA,NA,NA,NA,NA,NA,NA,NA,NA,NA,NA,NA,NA,NA
91f6c,Deep Question,html.Page,3_0_2_0_2_0_0,NA,NA,form submission,4162.0999999993,392304.1,392301.9,392318.6,396480.7,396481,2024-02-21T09:45:58Z,396482.966,NULL,Tester,wanaojaribu,d,NA,NA,NA,jm,NA,NA,2,NA,NA,NA,NA,NA,NA,NA,NA,NA,NA,NA,NA,NA,NA,NA,NA,NA,NA,NA
91f6c,"""Richtig""-Screen",canvas.Screen,3_0_2_0_2_0_1,NA,NA,skipped,NA,396484.1,NA,NA,396480.7,396484.2,2024-02-21T09:45:58Z,396482.966,NULL,Tester,wanaojaribu,d,NA,NA,NA,NA,sdf,NA,2,NA,NA,NA,NA,NA,NA,NA,NA,NA,NA,NA,NA,NA,NA,NA,NA,NA,NA,NA
91f6c,"""Falsch""-Screen",canvas.Screen,3_0_2_0_2_0_2,NA,NA,timeout,4996.734,396485,396482.966,396482.966,401462.9,401464,2024-02-21T09:46:03Z,401479.7,NULL,Tester,wanaojaribu,d,NA,NA,NA,NA,sdf,0,2,NA,NA,NA,NA,NA,NA,NA,NA,NA,NA,NA,NA,NA,NA,NA,NA,NA,NA,NA
91f6c,deep,flow.Sequence,3_0_2_0_2_0,NA,NA,completion,9144.3,392304.1,392301.9,392318.6,401462.9,401464.4,2024-02-21T09:46:03Z,401479.7,NULL,Tester,wanaojaribu,d,NA,NA,NA,NA,sdf,NA,2,NA,NA,NA,NA,NA,NA,NA,NA,NA,NA,NA,NA,NA,NA,NA,NA,NA,NA,NA
91f6c,shallow,flow.Sequence,3_0_2_0_2_1,NA,NA,skipped,NA,401464.5,NA,NA,401462.9,401464.6,2024-02-21T09:46:03Z,401479.7,NULL,Tester,wanaojaribu,d,NA,NA,NA,NA,sdf,NA,2,NA,NA,NA,NA,NA,NA,NA,NA,NA,NA,NA,NA,NA,NA,NA,NA,NA,NA,NA
91f6c,task,flow.Sequence,3_0_2_0_2,NA,NA,completion,9144.3,392303.9,392301.9,392318.6,401462.9,401464.9,2024-02-21T09:46:03Z,401479.7,NULL,Tester,wanaojaribu,d,NA,NA,NA,NA,sdf,NA,2,NA,NA,NA,NA,NA,NA,NA,NA,NA,NA,NA,NA,NA,NA,NA,NA,NA,NA,NA
91f6c,deep,flow.Sequence,3_0_2_0_3_0,NA,NA,skipped,NA,401465,NA,NA,401462.9,401465.2,2024-02-21T09:46:03Z,401479.7,NULL,Symbol,kielezo,s,kinyume,nderemo,utayari,NA,sdf,NA,2,NA,NA,NA,NA,NA,NA,NA,NA,NA,NA,NA,NA,NA,NA,NA,NA,NA,NA,NA
91f6c,Shallow Question,html.Page,3_0_2_0_3_1_0,NA,NA,form submission,6177.9999999992,401465.3,401462.9,401479.7,407657.7,407658,2024-02-21T09:46:09Z,407659.39,NULL,Symbol,kielezo,s,kinyume,nderemo,utayari,kielezo,NA,NA,2,NA,NA,NA,NA,NA,NA,NA,NA,NA,NA,NA,NA,NA,NA,NA,NA,NA,NA,NA
91f6c,"""Richtig""-Screen",canvas.Screen,3_0_2_0_3_1_1,NA,NA,timeout,4996.71,407661,407659.39,407659.39,412639.5,412640.9,2024-02-21T09:46:14Z,412656.1,NULL,Symbol,kielezo,s,kinyume,nderemo,utayari,NA,sdf,1,2,NA,NA,NA,NA,NA,NA,NA,NA,NA,NA,NA,NA,NA,NA,NA,NA,NA,NA,NA
91f6c,"""Falsch""-Screen",canvas.Screen,3_0_2_0_3_1_2,NA,NA,skipped,NA,412645.8,NA,NA,412639.5,412646,2024-02-21T09:46:14Z,412656.1,NULL,Symbol,kielezo,s,kinyume,nderemo,utayari,NA,sdf,NA,2,NA,NA,NA,NA,NA,NA,NA,NA,NA,NA,NA,NA,NA,NA,NA,NA,NA,NA,NA
91f6c,shallow,flow.Sequence,3_0_2_0_3_1,NA,NA,completion,11159.8,401465.3,401462.9,401479.7,412639.5,412646,2024-02-21T09:46:14Z,412656.1,NULL,Symbol,kielezo,s,kinyume,nderemo,utayari,NA,sdf,NA,2,NA,NA,NA,NA,NA,NA,NA,NA,NA,NA,NA,NA,NA,NA,NA,NA,NA,NA,NA
91f6c,task,flow.Sequence,3_0_2_0_3,NA,NA,completion,11159.8,401464.9,401462.9,401479.7,412639.5,412646.1,2024-02-21T09:46:14Z,412656.1,NULL,Symbol,kielezo,s,kinyume,nderemo,utayari,NA,sdf,NA,2,NA,NA,NA,NA,NA,NA,NA,NA,NA,NA,NA,NA,NA,NA,NA,NA,NA,NA,NA
91f6c,Deep Question,html.Page,3_0_2_0_4_0_0,NA,NA,form submission,4107.4999999997,412646.2,412639.5,412656.1,416763.6,416763.8,2024-02-21T09:46:19Z,416769.9,NULL,Konkurrent,mshindani,d,NA,NA,NA,j,NA,NA,2,NA,NA,NA,NA,NA,NA,NA,NA,NA,NA,NA,NA,NA,NA,NA,NA,NA,NA,NA
91f6c,"""Richtig""-Screen",canvas.Screen,3_0_2_0_4_0_1,NA,NA,skipped,NA,416766.8,NA,NA,416763.6,416767,2024-02-21T09:46:19Z,416769.9,NULL,Konkurrent,mshindani,d,NA,NA,NA,NA,sdf,NA,2,NA,NA,NA,NA,NA,NA,NA,NA,NA,NA,NA,NA,NA,NA,NA,NA,NA,NA,NA
91f6c,"""Falsch""-Screen",canvas.Screen,3_0_2_0_4_0_2,NA,NA,timeout,4997.4,416767.9,416755.824,416769.9,421750.8,421751.8,2024-02-21T09:46:24Z,421767.3,NULL,Konkurrent,mshindani,d,NA,NA,NA,NA,sdf,0,2,NA,NA,NA,NA,NA,NA,NA,NA,NA,NA,NA,NA,NA,NA,NA,NA,NA,NA,NA
91f6c,deep,flow.Sequence,3_0_2_0_4_0,NA,NA,completion,9094.7,412646.2,412639.5,412656.1,421750.8,421752.2,2024-02-21T09:46:24Z,421767.3,NULL,Konkurrent,mshindani,d,NA,NA,NA,NA,sdf,NA,2,NA,NA,NA,NA,NA,NA,NA,NA,NA,NA,NA,NA,NA,NA,NA,NA,NA,NA,NA
91f6c,shallow,flow.Sequence,3_0_2_0_4_1,NA,NA,skipped,NA,421752.3,NA,NA,421750.8,421752.5,2024-02-21T09:46:24Z,421767.3,NULL,Konkurrent,mshindani,d,NA,NA,NA,NA,sdf,NA,2,NA,NA,NA,NA,NA,NA,NA,NA,NA,NA,NA,NA,NA,NA,NA,NA,NA,NA,NA
91f6c,task,flow.Sequence,3_0_2_0_4,NA,NA,completion,9094.7,412646.1,412639.5,412656.1,421750.8,421752.7,2024-02-21T09:46:24Z,421767.3,NULL,Konkurrent,mshindani,d,NA,NA,NA,NA,sdf,NA,2,NA,NA,NA,NA,NA,NA,NA,NA,NA,NA,NA,NA,NA,NA,NA,NA,NA,NA,NA
91f6c,deep,flow.Sequence,3_0_2_0_5_0,NA,NA,skipped,NA,421753,NA,NA,421750.8,421753.1,2024-02-21T09:46:24Z,421767.3,NULL,Zuwachs,nyongeza,s,matilaba,udhibiti,hudhurio,NA,sdf,NA,2,NA,NA,NA,NA,NA,NA,NA,NA,NA,NA,NA,NA,NA,NA,NA,NA,NA,NA,NA
91f6c,Shallow Question,html.Page,3_0_2_0_5_1_0,NA,NA,form submission,14391.899999999,421753.3,421750.8,421767.3,436159.2,436159.5,2024-02-21T09:46:38Z,436192,NULL,Zuwachs,nyongeza,s,matilaba,udhibiti,hudhurio,nyongeza,NA,NA,2,NA,NA,NA,NA,NA,NA,NA,NA,NA,NA,NA,NA,NA,NA,NA,NA,NA,NA,NA
91f6c,"""Richtig""-Screen",canvas.Screen,3_0_2_0_5_1_1,NA,NA,timeout,4996.8,436162.6,436175.324,436192,441171.8,441172.8,2024-02-21T09:46:43Z,441188.8,NULL,Zuwachs,nyongeza,s,matilaba,udhibiti,hudhurio,NA,sdf,1,2,NA,NA,NA,NA,NA,NA,NA,NA,NA,NA,NA,NA,NA,NA,NA,NA,NA,NA,NA
91f6c,"""Falsch""-Screen",canvas.Screen,3_0_2_0_5_1_2,NA,NA,skipped,NA,441178.1,NA,NA,441171.8,441178.2,2024-02-21T09:46:43Z,441188.8,NULL,Zuwachs,nyongeza,s,matilaba,udhibiti,hudhurio,NA,sdf,NA,2,NA,NA,NA,NA,NA,NA,NA,NA,NA,NA,NA,NA,NA,NA,NA,NA,NA,NA,NA
91f6c,shallow,flow.Sequence,3_0_2_0_5_1,NA,NA,completion,19404.5,421753.2,421750.8,421767.3,441171.8,441178.3,2024-02-21T09:46:43Z,441188.8,NULL,Zuwachs,nyongeza,s,matilaba,udhibiti,hudhurio,NA,sdf,NA,2,NA,NA,NA,NA,NA,NA,NA,NA,NA,NA,NA,NA,NA,NA,NA,NA,NA,NA,NA
91f6c,task,flow.Sequence,3_0_2_0_5,NA,NA,completion,19404.5,421752.9,421750.8,421767.3,441171.8,441178.4,2024-02-21T09:46:43Z,441188.8,NULL,Zuwachs,nyongeza,s,matilaba,udhibiti,hudhurio,NA,sdf,NA,2,NA,NA,NA,NA,NA,NA,NA,NA,NA,NA,NA,NA,NA,NA,NA,NA,NA,NA,NA
91f6c,deep,flow.Sequence,3_0_2_0_6_0,NA,NA,skipped,NA,441178.5,NA,NA,441171.8,441178.5,2024-02-21T09:46:43Z,441188.8,NULL,Spionage,upelelezi,s,maslahi,utokazo,magangao,NA,sdf,NA,2,NA,NA,NA,NA,NA,NA,NA,NA,NA,NA,NA,NA,NA,NA,NA,NA,NA,NA,NA
91f6c,Shallow Question,html.Page,3_0_2_0_6_1_0,NA,NA,form submission,4080.0000000008,441178.5,441171.8,441188.8,445268.8,445269.1,2024-02-21T09:46:47Z,445285.8,NULL,Spionage,upelelezi,s,maslahi,utokazo,magangao,upelelezi,NA,NA,2,NA,NA,NA,NA,NA,NA,NA,NA,NA,NA,NA,NA,NA,NA,NA,NA,NA,NA,NA
91f6c,"""Richtig""-Screen",canvas.Screen,3_0_2_0_6_1_1,NA,NA,timeout,4997.3,445271.9,445269.596,445285.8,450266.4,450266.9,2024-02-21T09:46:52Z,450283.1,NULL,Spionage,upelelezi,s,maslahi,utokazo,magangao,NA,sdf,1,2,NA,NA,NA,NA,NA,NA,NA,NA,NA,NA,NA,NA,NA,NA,NA,NA,NA,NA,NA
91f6c,"""Falsch""-Screen",canvas.Screen,3_0_2_0_6_1_2,NA,NA,skipped,NA,450268.7,NA,NA,450266.4,450268.8,2024-02-21T09:46:52Z,450283.1,NULL,Spionage,upelelezi,s,maslahi,utokazo,magangao,NA,sdf,NA,2,NA,NA,NA,NA,NA,NA,NA,NA,NA,NA,NA,NA,NA,NA,NA,NA,NA,NA,NA
91f6c,shallow,flow.Sequence,3_0_2_0_6_1,NA,NA,completion,9077.6,441178.5,441171.8,441188.8,450266.4,450268.9,2024-02-21T09:46:52Z,450283.1,NULL,Spionage,upelelezi,s,maslahi,utokazo,magangao,NA,sdf,NA,2,NA,NA,NA,NA,NA,NA,NA,NA,NA,NA,NA,NA,NA,NA,NA,NA,NA,NA,NA
91f6c,task,flow.Sequence,3_0_2_0_6,NA,NA,completion,9077.6,441178.4,441171.8,441188.8,450266.4,450269,2024-02-21T09:46:52Z,450283.1,NULL,Spionage,upelelezi,s,maslahi,utokazo,magangao,NA,sdf,NA,2,NA,NA,NA,NA,NA,NA,NA,NA,NA,NA,NA,NA,NA,NA,NA,NA,NA,NA,NA
91f6c,Deep Question,html.Page,3_0_2_0_7_0_0,NA,NA,form submission,15817.4,450269.1,450266.4,450283.1,466100.5,466100.7,2024-02-21T09:47:08Z,466106.4,NULL,Vorsorge,tahadhari,d,NA,NA,NA,sja,NA,NA,2,NA,NA,NA,NA,NA,NA,NA,NA,NA,NA,NA,NA,NA,NA,NA,NA,NA,NA,NA
91f6c,"""Richtig""-Screen",canvas.Screen,3_0_2_0_7_0_1,NA,NA,skipped,NA,466102.5,NA,NA,466100.5,466102.6,2024-02-21T09:47:08Z,466106.4,NULL,Vorsorge,tahadhari,d,NA,NA,NA,NA,sdf,NA,2,NA,NA,NA,NA,NA,NA,NA,NA,NA,NA,NA,NA,NA,NA,NA,NA,NA,NA,NA
91f6c,"""Falsch""-Screen",canvas.Screen,3_0_2_0_7_0_2,NA,NA,timeout,4997.2,466103.1,466090.618,466106.4,471086.9,471087.5,2024-02-21T09:47:13Z,471103.6,NULL,Vorsorge,tahadhari,d,NA,NA,NA,NA,sdf,0,2,NA,NA,NA,NA,NA,NA,NA,NA,NA,NA,NA,NA,NA,NA,NA,NA,NA,NA,NA
91f6c,deep,flow.Sequence,3_0_2_0_7_0,NA,NA,completion,20803.8,450269.1,450266.4,450283.1,471086.9,471087.8,2024-02-21T09:47:13Z,471103.6,NULL,Vorsorge,tahadhari,d,NA,NA,NA,NA,sdf,NA,2,NA,NA,NA,NA,NA,NA,NA,NA,NA,NA,NA,NA,NA,NA,NA,NA,NA,NA,NA
91f6c,shallow,flow.Sequence,3_0_2_0_7_1,NA,NA,skipped,NA,471087.9,NA,NA,471086.9,471088,2024-02-21T09:47:13Z,471103.6,NULL,Vorsorge,tahadhari,d,NA,NA,NA,NA,sdf,NA,2,NA,NA,NA,NA,NA,NA,NA,NA,NA,NA,NA,NA,NA,NA,NA,NA,NA,NA,NA
91f6c,task,flow.Sequence,3_0_2_0_7,NA,NA,completion,20803.8,450269,450266.4,450283.1,471086.9,471088.1,2024-02-21T09:47:13Z,471103.6,NULL,Vorsorge,tahadhari,d,NA,NA,NA,NA,sdf,NA,2,NA,NA,NA,NA,NA,NA,NA,NA,NA,NA,NA,NA,NA,NA,NA,NA,NA,NA,NA
91f6c,block,flow.Loop,3_0_2_0,NA,NA,completion,107099.892,363994.2,363987.008,363987.008,471086.9,471088.3,2024-02-21T09:47:13Z,471103.6,NULL,NA,NA,NA,NA,NA,NA,NA,sdf,NA,2,NA,NA,NA,NA,NA,NA,NA,NA,NA,NA,NA,NA,NA,NA,NA,NA,NA,NA,NA
91f6c,weiter,canvas.Screen,3_0_2_1,sdf,keypress(Space),response,1413.2000000008,471088.3,471086.9,471103.6,472516.8,472517.8,2024-02-21T09:47:14Z,472569.2,NULL,NA,NA,NA,NA,NA,NA,NA,sdf,NA,2,NA,NA,NA,NA,NA,NA,NA,NA,NA,NA,NA,NA,NA,NA,NA,NA,NA,NA,NA
91f6c,check continue,flow.Sequence,3_0_2,NA,NA,completion,108529.792,363994.2,363987.008,363987.008,472516.8,472518.1,2024-02-21T09:47:14Z,472569.2,NULL,NA,NA,NA,NA,NA,NA,NA,sdf,NA,2,NA,NA,NA,NA,NA,NA,NA,NA,NA,NA,NA,NA,NA,NA,NA,NA,NA,NA,NA
91f6c,deep,flow.Sequence,3_0_3_0_0_0,NA,NA,skipped,NA,472560.4,NA,NA,472516.8,472560.4,2024-02-21T09:47:14Z,472569.2,NULL,Symbol,kielezo,s,kinyume,nderemo,utayari,NA,qt,NA,3,NA,NA,NA,NA,NA,NA,NA,NA,NA,NA,NA,NA,NA,NA,NA,NA,NA,NA,NA
91f6c,Shallow Question,html.Page,3_0_3_0_0_1_0,NA,NA,form submission,3858.1000000007,472560.5,472553.542,472569.2,476427.3,476427.6,2024-02-21T09:47:18Z,476433.5,NULL,Symbol,kielezo,s,kinyume,nderemo,utayari,kielezo,NA,NA,3,NA,NA,NA,NA,NA,NA,NA,NA,NA,NA,NA,NA,NA,NA,NA,NA,NA,NA,NA
91f6c,"""Richtig""-Screen",canvas.Screen,3_0_3_0_0_1_1,NA,NA,timeout,4997.3,476430.5,476417.096,476433.5,481414.1,481414.8,2024-02-21T09:47:23Z,481430.8,NULL,Symbol,kielezo,s,kinyume,nderemo,utayari,NA,qt,1,3,NA,NA,NA,NA,NA,NA,NA,NA,NA,NA,NA,NA,NA,NA,NA,NA,NA,NA,NA
91f6c,"""Falsch""-Screen",canvas.Screen,3_0_3_0_0_1_2,NA,NA,skipped,NA,481416.3,NA,NA,481414.1,481416.4,2024-02-21T09:47:23Z,481430.8,NULL,Symbol,kielezo,s,kinyume,nderemo,utayari,NA,qt,NA,3,NA,NA,NA,NA,NA,NA,NA,NA,NA,NA,NA,NA,NA,NA,NA,NA,NA,NA,NA
91f6c,shallow,flow.Sequence,3_0_3_0_0_1,NA,NA,completion,8844.9,472560.5,472553.542,472569.2,481414.1,481416.5,2024-02-21T09:47:23Z,481430.8,NULL,Symbol,kielezo,s,kinyume,nderemo,utayari,NA,qt,NA,3,NA,NA,NA,NA,NA,NA,NA,NA,NA,NA,NA,NA,NA,NA,NA,NA,NA,NA,NA
91f6c,task,flow.Sequence,3_0_3_0_0,NA,NA,completion,8844.9,472560.4,472553.542,472569.2,481414.1,481416.6,2024-02-21T09:47:23Z,481430.8,NULL,Symbol,kielezo,s,kinyume,nderemo,utayari,NA,qt,NA,3,NA,NA,NA,NA,NA,NA,NA,NA,NA,NA,NA,NA,NA,NA,NA,NA,NA,NA,NA
91f6c,deep,flow.Sequence,3_0_3_0_1_0,NA,NA,skipped,NA,481416.6,NA,NA,481414.1,481416.7,2024-02-21T09:47:23Z,481430.8,NULL,Spionage,upelelezi,s,maslahi,utokazo,magangao,NA,qt,NA,3,NA,NA,NA,NA,NA,NA,NA,NA,NA,NA,NA,NA,NA,NA,NA,NA,NA,NA,NA
91f6c,Shallow Question,html.Page,3_0_3_0_1_1_0,NA,NA,form submission,10088.000000001,481416.8,481414.1,481430.8,491518.8,491519,2024-02-21T09:47:33Z,491525.204,NULL,Spionage,upelelezi,s,maslahi,utokazo,magangao,upelelezi,NA,NA,3,NA,NA,NA,NA,NA,NA,NA,NA,NA,NA,NA,NA,NA,NA,NA,NA,NA,NA,NA
91f6c,"""Richtig""-Screen",canvas.Screen,3_0_3_0_1_1_1,NA,NA,timeout,4996.496,491522.3,491525.204,491525.204,496504.9,496506,2024-02-21T09:47:38Z,496521.7,NULL,Spionage,upelelezi,s,maslahi,utokazo,magangao,NA,qt,1,3,NA,NA,NA,NA,NA,NA,NA,NA,NA,NA,NA,NA,NA,NA,NA,NA,NA,NA,NA
91f6c,"""Falsch""-Screen",canvas.Screen,3_0_3_0_1_1_2,NA,NA,skipped,NA,496511.3,NA,NA,496504.9,496511.4,2024-02-21T09:47:38Z,496521.7,NULL,Spionage,upelelezi,s,maslahi,utokazo,magangao,NA,qt,NA,3,NA,NA,NA,NA,NA,NA,NA,NA,NA,NA,NA,NA,NA,NA,NA,NA,NA,NA,NA
91f6c,shallow,flow.Sequence,3_0_3_0_1_1,NA,NA,completion,15074.1,481416.7,481414.1,481430.8,496504.9,496511.5,2024-02-21T09:47:38Z,496521.7,NULL,Spionage,upelelezi,s,maslahi,utokazo,magangao,NA,qt,NA,3,NA,NA,NA,NA,NA,NA,NA,NA,NA,NA,NA,NA,NA,NA,NA,NA,NA,NA,NA
91f6c,task,flow.Sequence,3_0_3_0_1,NA,NA,completion,15074.1,481416.6,481414.1,481430.8,496504.9,496511.5,2024-02-21T09:47:38Z,496521.7,NULL,Spionage,upelelezi,s,maslahi,utokazo,magangao,NA,qt,NA,3,NA,NA,NA,NA,NA,NA,NA,NA,NA,NA,NA,NA,NA,NA,NA,NA,NA,NA,NA
91f6c,Deep Question,html.Page,3_0_3_0_2_0_0,NA,NA,form submission,7006.3,496511.6,496504.9,496521.7,503528,503528.2,2024-02-21T09:47:45Z,503533.5,NULL,Schüler,mwanafunzi,d,NA,NA,NA,thahadari,NA,NA,3,NA,NA,NA,NA,NA,NA,NA,NA,NA,NA,NA,NA,NA,NA,NA,NA,NA,NA,NA
91f6c,"""Richtig""-Screen",canvas.Screen,3_0_3_0_2_0_1,NA,NA,skipped,NA,503531.1,NA,NA,503528,503531.3,2024-02-21T09:47:45Z,503533.5,NULL,Schüler,mwanafunzi,d,NA,NA,NA,NA,qt,NA,3,NA,NA,NA,NA,NA,NA,NA,NA,NA,NA,NA,NA,NA,NA,NA,NA,NA,NA,NA
91f6c,"""Falsch""-Screen",canvas.Screen,3_0_3_0_2_0_2,NA,NA,timeout,4997.4,503532,503519.5,503533.5,508514.2,508515.2,2024-02-21T09:47:50Z,508530.9,NULL,Schüler,mwanafunzi,d,NA,NA,NA,NA,qt,0,3,NA,NA,NA,NA,NA,NA,NA,NA,NA,NA,NA,NA,NA,NA,NA,NA,NA,NA,NA
91f6c,deep,flow.Sequence,3_0_3_0_2_0,NA,NA,completion,11992.5,496511.6,496504.9,496521.7,508514.2,508515.6,2024-02-21T09:47:50Z,508530.9,NULL,Schüler,mwanafunzi,d,NA,NA,NA,NA,qt,NA,3,NA,NA,NA,NA,NA,NA,NA,NA,NA,NA,NA,NA,NA,NA,NA,NA,NA,NA,NA
91f6c,shallow,flow.Sequence,3_0_3_0_2_1,NA,NA,skipped,NA,508515.7,NA,NA,508514.2,508515.9,2024-02-21T09:47:50Z,508530.9,NULL,Schüler,mwanafunzi,d,NA,NA,NA,NA,qt,NA,3,NA,NA,NA,NA,NA,NA,NA,NA,NA,NA,NA,NA,NA,NA,NA,NA,NA,NA,NA
91f6c,task,flow.Sequence,3_0_3_0_2,NA,NA,completion,11992.5,496511.5,496504.9,496521.7,508514.2,508516.1,2024-02-21T09:47:50Z,508530.9,NULL,Schüler,mwanafunzi,d,NA,NA,NA,NA,qt,NA,3,NA,NA,NA,NA,NA,NA,NA,NA,NA,NA,NA,NA,NA,NA,NA,NA,NA,NA,NA
91f6c,Deep Question,html.Page,3_0_3_0_3_0_0,NA,NA,form submission,5340.4999999985,508516.3,508514.2,508530.9,513871.4,513871.5,2024-02-21T09:47:56Z,513877.1,NULL,Vorsorge,tahadhari,d,NA,NA,NA,tahadari,NA,NA,3,NA,NA,NA,NA,NA,NA,NA,NA,NA,NA,NA,NA,NA,NA,NA,NA,NA,NA,NA
91f6c,"""Richtig""-Screen",canvas.Screen,3_0_3_0_3_0_1,NA,NA,skipped,NA,513873.8,NA,NA,513871.4,513874,2024-02-21T09:47:56Z,513877.1,NULL,Vorsorge,tahadhari,d,NA,NA,NA,NA,qt,NA,3,NA,NA,NA,NA,NA,NA,NA,NA,NA,NA,NA,NA,NA,NA,NA,NA,NA,NA,NA
91f6c,"""Falsch""-Screen",canvas.Screen,3_0_3_0_3_0_2,NA,NA,timeout,4997.4,513874.5,513864.1,513877.1,518857.5,518858.4,2024-02-21T09:48:01Z,518874.5,NULL,Vorsorge,tahadhari,d,NA,NA,NA,NA,qt,0,3,NA,NA,NA,NA,NA,NA,NA,NA,NA,NA,NA,NA,NA,NA,NA,NA,NA,NA,NA
91f6c,deep,flow.Sequence,3_0_3_0_3_0,NA,NA,completion,10326.6,508516.3,508514.2,508530.9,518857.5,518858.8,2024-02-21T09:48:01Z,518874.5,NULL,Vorsorge,tahadhari,d,NA,NA,NA,NA,qt,NA,3,NA,NA,NA,NA,NA,NA,NA,NA,NA,NA,NA,NA,NA,NA,NA,NA,NA,NA,NA
91f6c,shallow,flow.Sequence,3_0_3_0_3_1,NA,NA,skipped,NA,518859,NA,NA,518857.5,518859.1,2024-02-21T09:48:01Z,518874.5,NULL,Vorsorge,tahadhari,d,NA,NA,NA,NA,qt,NA,3,NA,NA,NA,NA,NA,NA,NA,NA,NA,NA,NA,NA,NA,NA,NA,NA,NA,NA,NA
91f6c,task,flow.Sequence,3_0_3_0_3,NA,NA,completion,10326.6,508516.2,508514.2,508530.9,518857.5,518859.3,2024-02-21T09:48:01Z,518874.5,NULL,Vorsorge,tahadhari,d,NA,NA,NA,NA,qt,NA,3,NA,NA,NA,NA,NA,NA,NA,NA,NA,NA,NA,NA,NA,NA,NA,NA,NA,NA,NA
91f6c,Deep Question,html.Page,3_0_3_0_4_0_0,NA,NA,form submission,8174.3000000007,518859.6,518857.5,518874.5,527048.8,527049.1,2024-02-21T09:48:09Z,527053.43,NULL,Tester,wanaojaribu,d,NA,NA,NA,manajunfoncit,NA,NA,3,NA,NA,NA,NA,NA,NA,NA,NA,NA,NA,NA,NA,NA,NA,NA,NA,NA,NA,NA
91f6c,"""Richtig""-Screen",canvas.Screen,3_0_3_0_4_0_1,NA,NA,skipped,NA,527052.2,NA,NA,527048.8,527052.4,2024-02-21T09:48:09Z,527053.43,NULL,Tester,wanaojaribu,d,NA,NA,NA,NA,qt,NA,3,NA,NA,NA,NA,NA,NA,NA,NA,NA,NA,NA,NA,NA,NA,NA,NA,NA,NA,NA
91f6c,"""Falsch""-Screen",canvas.Screen,3_0_3_0_4_0_2,NA,NA,timeout,4996.47,527053.2,527053.43,527053.43,532032.8,532033.6,2024-02-21T09:48:14Z,532049.9,NULL,Tester,wanaojaribu,d,NA,NA,NA,NA,qt,0,3,NA,NA,NA,NA,NA,NA,NA,NA,NA,NA,NA,NA,NA,NA,NA,NA,NA,NA,NA
91f6c,deep,flow.Sequence,3_0_3_0_4_0,NA,NA,completion,13158.3,518859.5,518857.5,518874.5,532032.8,532033.9,2024-02-21T09:48:14Z,532049.9,NULL,Tester,wanaojaribu,d,NA,NA,NA,NA,qt,NA,3,NA,NA,NA,NA,NA,NA,NA,NA,NA,NA,NA,NA,NA,NA,NA,NA,NA,NA,NA
91f6c,shallow,flow.Sequence,3_0_3_0_4_1,NA,NA,skipped,NA,532034,NA,NA,532032.8,532034.2,2024-02-21T09:48:14Z,532049.9,NULL,Tester,wanaojaribu,d,NA,NA,NA,NA,qt,NA,3,NA,NA,NA,NA,NA,NA,NA,NA,NA,NA,NA,NA,NA,NA,NA,NA,NA,NA,NA
91f6c,task,flow.Sequence,3_0_3_0_4,NA,NA,completion,13158.3,518859.5,518857.5,518874.5,532032.8,532034.3,2024-02-21T09:48:14Z,532049.9,NULL,Tester,wanaojaribu,d,NA,NA,NA,NA,qt,NA,3,NA,NA,NA,NA,NA,NA,NA,NA,NA,NA,NA,NA,NA,NA,NA,NA,NA,NA,NA
91f6c,deep,flow.Sequence,3_0_3_0_5_0,NA,NA,skipped,NA,532034.5,NA,NA,532032.8,532034.6,2024-02-21T09:48:14Z,532049.9,NULL,Fenster,dirisha,s,walakini,tasawari,maarifa,NA,qt,NA,3,NA,NA,NA,NA,NA,NA,NA,NA,NA,NA,NA,NA,NA,NA,NA,NA,NA,NA,NA
91f6c,Shallow Question,html.Page,3_0_3_0_5_1_0,NA,NA,form submission,3853.2999999992,532034.7,532032.8,532049.9,535903.2,535903.4,2024-02-21T09:48:18Z,535913.7,NULL,Fenster,dirisha,s,walakini,tasawari,maarifa,dirisha,NA,NA,3,NA,NA,NA,NA,NA,NA,NA,NA,NA,NA,NA,NA,NA,NA,NA,NA,NA,NA,NA
91f6c,"""Richtig""-Screen",canvas.Screen,3_0_3_0_5_1_1,NA,NA,timeout,4997.4,535906.4,535897.662,535913.7,540894.3,540895.4,2024-02-21T09:48:23Z,540911.1,NULL,Fenster,dirisha,s,walakini,tasawari,maarifa,NA,qt,1,3,NA,NA,NA,NA,NA,NA,NA,NA,NA,NA,NA,NA,NA,NA,NA,NA,NA,NA,NA
91f6c,"""Falsch""-Screen",canvas.Screen,3_0_3_0_5_1_2,NA,NA,skipped,NA,540900.4,NA,NA,540894.3,540900.4,2024-02-21T09:48:23Z,540911.1,NULL,Fenster,dirisha,s,walakini,tasawari,maarifa,NA,qt,NA,3,NA,NA,NA,NA,NA,NA,NA,NA,NA,NA,NA,NA,NA,NA,NA,NA,NA,NA,NA
91f6c,shallow,flow.Sequence,3_0_3_0_5_1,NA,NA,completion,8844.4,532034.7,532032.8,532049.9,540894.3,540900.5,2024-02-21T09:48:23Z,540911.1,NULL,Fenster,dirisha,s,walakini,tasawari,maarifa,NA,qt,NA,3,NA,NA,NA,NA,NA,NA,NA,NA,NA,NA,NA,NA,NA,NA,NA,NA,NA,NA,NA
91f6c,task,flow.Sequence,3_0_3_0_5,NA,NA,completion,8844.4,532034.4,532032.8,532049.9,540894.3,540900.6,2024-02-21T09:48:23Z,540911.1,NULL,Fenster,dirisha,s,walakini,tasawari,maarifa,NA,qt,NA,3,NA,NA,NA,NA,NA,NA,NA,NA,NA,NA,NA,NA,NA,NA,NA,NA,NA,NA,NA
91f6c,deep,flow.Sequence,3_0_3_0_6_0,NA,NA,skipped,NA,540900.7,NA,NA,540894.3,540900.8,2024-02-21T09:48:23Z,540911.1,NULL,Zuwachs,nyongeza,s,matilaba,udhibiti,hudhurio,NA,qt,NA,3,NA,NA,NA,NA,NA,NA,NA,NA,NA,NA,NA,NA,NA,NA,NA,NA,NA,NA,NA
91f6c,Shallow Question,html.Page,3_0_3_0_6_1_0,NA,NA,form submission,8340.2000000008,540900.8,540894.3,540911.1,549251.3,549251.5,2024-02-21T09:48:31Z,549255.5,NULL,Zuwachs,nyongeza,s,matilaba,udhibiti,hudhurio,nyongeza,NA,NA,3,NA,NA,NA,NA,NA,NA,NA,NA,NA,NA,NA,NA,NA,NA,NA,NA,NA,NA,NA
91f6c,"""Richtig""-Screen",canvas.Screen,3_0_3_0_6_1_1,NA,NA,timeout,4997.4,549254.6,549239.456,549255.5,554236,554237.1,2024-02-21T09:48:36Z,554252.9,NULL,Zuwachs,nyongeza,s,matilaba,udhibiti,hudhurio,NA,qt,1,3,NA,NA,NA,NA,NA,NA,NA,NA,NA,NA,NA,NA,NA,NA,NA,NA,NA,NA,NA
91f6c,"""Falsch""-Screen",canvas.Screen,3_0_3_0_6_1_2,NA,NA,skipped,NA,554242.3,NA,NA,554236,554242.4,2024-02-21T09:48:36Z,554252.9,NULL,Zuwachs,nyongeza,s,matilaba,udhibiti,hudhurio,NA,qt,NA,3,NA,NA,NA,NA,NA,NA,NA,NA,NA,NA,NA,NA,NA,NA,NA,NA,NA,NA,NA
91f6c,shallow,flow.Sequence,3_0_3_0_6_1,NA,NA,completion,13324.9,540900.8,540894.3,540911.1,554236,554242.5,2024-02-21T09:48:36Z,554252.9,NULL,Zuwachs,nyongeza,s,matilaba,udhibiti,hudhurio,NA,qt,NA,3,NA,NA,NA,NA,NA,NA,NA,NA,NA,NA,NA,NA,NA,NA,NA,NA,NA,NA,NA
91f6c,task,flow.Sequence,3_0_3_0_6,NA,NA,completion,13324.9,540900.6,540894.3,540911.1,554236,554242.6,2024-02-21T09:48:36Z,554252.9,NULL,Zuwachs,nyongeza,s,matilaba,udhibiti,hudhurio,NA,qt,NA,3,NA,NA,NA,NA,NA,NA,NA,NA,NA,NA,NA,NA,NA,NA,NA,NA,NA,NA,NA
91f6c,Deep Question,html.Page,3_0_3_0_7_0_0,NA,NA,form submission,22137.1,554242.7,554236,554252.9,576390,576390.1,2024-02-21T09:48:58Z,576405.7,NULL,Konkurrent,mshindani,d,NA,NA,NA,mwanafunzi,NA,NA,3,NA,NA,NA,NA,NA,NA,NA,NA,NA,NA,NA,NA,NA,NA,NA,NA,NA,NA,NA
91f6c,"""Richtig""-Screen",canvas.Screen,3_0_3_0_7_0_1,NA,NA,skipped,NA,576393.4,NA,NA,576390,576393.5,2024-02-21T09:48:58Z,576405.7,NULL,Konkurrent,mshindani,d,NA,NA,NA,NA,qt,NA,3,NA,NA,NA,NA,NA,NA,NA,NA,NA,NA,NA,NA,NA,NA,NA,NA,NA,NA,NA
91f6c,"""Falsch""-Screen",canvas.Screen,3_0_3_0_7_0_2,NA,NA,timeout,4997,576394.3,576389.906,576405.7,581386,581387,2024-02-21T09:49:03Z,581402.7,NULL,Konkurrent,mshindani,d,NA,NA,NA,NA,qt,0,3,NA,NA,NA,NA,NA,NA,NA,NA,NA,NA,NA,NA,NA,NA,NA,NA,NA,NA,NA
91f6c,deep,flow.Sequence,3_0_3_0_7_0,NA,NA,completion,27133.1,554242.7,554236,554252.9,581386,581387.4,2024-02-21T09:49:03Z,581402.7,NULL,Konkurrent,mshindani,d,NA,NA,NA,NA,qt,NA,3,NA,NA,NA,NA,NA,NA,NA,NA,NA,NA,NA,NA,NA,NA,NA,NA,NA,NA,NA
91f6c,shallow,flow.Sequence,3_0_3_0_7_1,NA,NA,skipped,NA,581387.5,NA,NA,581386,581387.7,2024-02-21T09:49:03Z,581402.7,NULL,Konkurrent,mshindani,d,NA,NA,NA,NA,qt,NA,3,NA,NA,NA,NA,NA,NA,NA,NA,NA,NA,NA,NA,NA,NA,NA,NA,NA,NA,NA
91f6c,task,flow.Sequence,3_0_3_0_7,NA,NA,completion,27133.1,554242.7,554236,554252.9,581386,581387.9,2024-02-21T09:49:03Z,581402.7,NULL,Konkurrent,mshindani,d,NA,NA,NA,NA,qt,NA,3,NA,NA,NA,NA,NA,NA,NA,NA,NA,NA,NA,NA,NA,NA,NA,NA,NA,NA,NA
91f6c,block,flow.Loop,3_0_3_0,NA,NA,completion,108816.8,472560.4,472553.542,472569.2,581386,581388.2,2024-02-21T09:49:03Z,581402.7,NULL,NA,NA,NA,NA,NA,NA,NA,qt,NA,3,NA,NA,NA,NA,NA,NA,NA,NA,NA,NA,NA,NA,NA,NA,NA,NA,NA,NA,NA
91f6c,weiter,canvas.Screen,3_0_3_1,sdf,keypress(Space),response,1424.1000000008,581388.3,581386,581402.7,582826.8,582827.8,2024-02-21T09:49:05Z,582885.3,NULL,NA,NA,NA,NA,NA,NA,NA,qt,NA,3,NA,NA,NA,NA,NA,NA,NA,NA,NA,NA,NA,NA,NA,NA,NA,NA,NA,NA,NA
91f6c,check continue,flow.Sequence,3_0_3,NA,NA,completion,110257.6,472560.4,472553.542,472569.2,582826.8,582828.1,2024-02-21T09:49:05Z,582885.3,NULL,NA,NA,NA,NA,NA,NA,NA,qt,NA,3,NA,NA,NA,NA,NA,NA,NA,NA,NA,NA,NA,NA,NA,NA,NA,NA,NA,NA,NA
91f6c,deep,flow.Sequence,3_0_4_0_0_0,NA,NA,skipped,NA,582875.1,NA,NA,582826.8,582875.1,2024-02-21T09:49:05Z,582885.3,NULL,Spionage,upelelezi,s,maslahi,utokazo,magangao,NA,sd,NA,4,NA,NA,NA,NA,NA,NA,NA,NA,NA,NA,NA,NA,NA,NA,NA,NA,NA,NA,NA
91f6c,Shallow Question,html.Page,3_0_4_0_0_1_0,NA,NA,form submission,6437.5000000007,582875.2,582869.308,582885.3,589322.8,589323.1,2024-02-21T09:49:11Z,589348.1,NULL,Spionage,upelelezi,s,maslahi,utokazo,magangao,upelelezi,NA,NA,4,NA,NA,NA,NA,NA,NA,NA,NA,NA,NA,NA,NA,NA,NA,NA,NA,NA,NA,NA
91f6c,"""Richtig""-Screen",canvas.Screen,3_0_4_0_0_1_1,NA,NA,timeout,4996.6,589326.2,589331.6,589348.1,594328.4,594329.9,2024-02-21T09:49:16Z,594344.7,NULL,Spionage,upelelezi,s,maslahi,utokazo,magangao,NA,sd,1,4,NA,NA,NA,NA,NA,NA,NA,NA,NA,NA,NA,NA,NA,NA,NA,NA,NA,NA,NA
91f6c,"""Falsch""-Screen",canvas.Screen,3_0_4_0_0_1_2,NA,NA,skipped,NA,594335.9,NA,NA,594328.4,594336.2,2024-02-21T09:49:16Z,594344.7,NULL,Spionage,upelelezi,s,maslahi,utokazo,magangao,NA,sd,NA,4,NA,NA,NA,NA,NA,NA,NA,NA,NA,NA,NA,NA,NA,NA,NA,NA,NA,NA,NA
91f6c,shallow,flow.Sequence,3_0_4_0_0_1,NA,NA,completion,11443.1,582875.2,582869.308,582885.3,594328.4,594336.5,2024-02-21T09:49:16Z,594344.7,NULL,Spionage,upelelezi,s,maslahi,utokazo,magangao,NA,sd,NA,4,NA,NA,NA,NA,NA,NA,NA,NA,NA,NA,NA,NA,NA,NA,NA,NA,NA,NA,NA
91f6c,task,flow.Sequence,3_0_4_0_0,NA,NA,completion,11443.1,582875.1,582869.308,582885.3,594328.4,594336.8,2024-02-21T09:49:16Z,594344.7,NULL,Spionage,upelelezi,s,maslahi,utokazo,magangao,NA,sd,NA,4,NA,NA,NA,NA,NA,NA,NA,NA,NA,NA,NA,NA,NA,NA,NA,NA,NA,NA,NA
91f6c,Deep Question,html.Page,3_0_4_0_1_0_0,NA,NA,form submission,15321.100000001,594337,594328.4,594344.7,609665.8,609666,2024-02-21T09:49:31Z,609670.432,NULL,Tester,wanaojaribu,d,NA,NA,NA,mwanafunzi,NA,NA,4,NA,NA,NA,NA,NA,NA,NA,NA,NA,NA,NA,NA,NA,NA,NA,NA,NA,NA,NA
91f6c,"""Richtig""-Screen",canvas.Screen,3_0_4_0_1_0_1,NA,NA,skipped,NA,609669.2,NA,NA,609665.8,609669.4,2024-02-21T09:49:31Z,609670.432,NULL,Tester,wanaojaribu,d,NA,NA,NA,NA,sd,NA,4,NA,NA,NA,NA,NA,NA,NA,NA,NA,NA,NA,NA,NA,NA,NA,NA,NA,NA,NA
91f6c,"""Falsch""-Screen",canvas.Screen,3_0_4_0_1_0_2,NA,NA,timeout,4995.468,609670.2,609670.432,609670.432,614649.3,614650.3,2024-02-21T09:49:36Z,614665.9,NULL,Tester,wanaojaribu,d,NA,NA,NA,NA,sd,0,4,NA,NA,NA,NA,NA,NA,NA,NA,NA,NA,NA,NA,NA,NA,NA,NA,NA,NA,NA
91f6c,deep,flow.Sequence,3_0_4_0_1_0,NA,NA,completion,20304.6,594337,594328.4,594344.7,614649.3,614650.7,2024-02-21T09:49:36Z,614665.9,NULL,Tester,wanaojaribu,d,NA,NA,NA,NA,sd,NA,4,NA,NA,NA,NA,NA,NA,NA,NA,NA,NA,NA,NA,NA,NA,NA,NA,NA,NA,NA
91f6c,shallow,flow.Sequence,3_0_4_0_1_1,NA,NA,skipped,NA,614650.9,NA,NA,614649.3,614651,2024-02-21T09:49:36Z,614665.9,NULL,Tester,wanaojaribu,d,NA,NA,NA,NA,sd,NA,4,NA,NA,NA,NA,NA,NA,NA,NA,NA,NA,NA,NA,NA,NA,NA,NA,NA,NA,NA
91f6c,task,flow.Sequence,3_0_4_0_1,NA,NA,completion,20304.6,594337,594328.4,594344.7,614649.3,614651.3,2024-02-21T09:49:36Z,614665.9,NULL,Tester,wanaojaribu,d,NA,NA,NA,NA,sd,NA,4,NA,NA,NA,NA,NA,NA,NA,NA,NA,NA,NA,NA,NA,NA,NA,NA,NA,NA,NA
91f6c,deep,flow.Sequence,3_0_4_0_2_0,NA,NA,skipped,NA,614651.4,NA,NA,614649.3,614651.6,2024-02-21T09:49:36Z,614665.9,NULL,Zuwachs,nyongeza,s,matilaba,udhibiti,hudhurio,NA,sd,NA,4,NA,NA,NA,NA,NA,NA,NA,NA,NA,NA,NA,NA,NA,NA,NA,NA,NA,NA,NA
91f6c,Shallow Question,html.Page,3_0_4_0_2_1_0,NA,NA,form submission,3163.4000000007,614651.7,614649.3,614665.9,617829.3,617829.6,2024-02-21T09:49:40Z,617830.796,NULL,Zuwachs,nyongeza,s,matilaba,udhibiti,hudhurio,nyongeza,NA,NA,4,NA,NA,NA,NA,NA,NA,NA,NA,NA,NA,NA,NA,NA,NA,NA,NA,NA,NA,NA
91f6c,"""Richtig""-Screen",canvas.Screen,3_0_4_0_2_1_1,NA,NA,timeout,4996.804,617832.7,617830.796,617830.796,622811.1,622811.6,2024-02-21T09:49:45Z,622827.6,NULL,Zuwachs,nyongeza,s,matilaba,udhibiti,hudhurio,NA,sd,1,4,NA,NA,NA,NA,NA,NA,NA,NA,NA,NA,NA,NA,NA,NA,NA,NA,NA,NA,NA
91f6c,"""Falsch""-Screen",canvas.Screen,3_0_4_0_2_1_2,NA,NA,skipped,NA,622813.5,NA,NA,622811.1,622813.5,2024-02-21T09:49:45Z,622827.6,NULL,Zuwachs,nyongeza,s,matilaba,udhibiti,hudhurio,NA,sd,NA,4,NA,NA,NA,NA,NA,NA,NA,NA,NA,NA,NA,NA,NA,NA,NA,NA,NA,NA,NA
91f6c,shallow,flow.Sequence,3_0_4_0_2_1,NA,NA,completion,8145.2,614651.7,614649.3,614665.9,622811.1,622813.7,2024-02-21T09:49:45Z,622827.6,NULL,Zuwachs,nyongeza,s,matilaba,udhibiti,hudhurio,NA,sd,NA,4,NA,NA,NA,NA,NA,NA,NA,NA,NA,NA,NA,NA,NA,NA,NA,NA,NA,NA,NA
91f6c,task,flow.Sequence,3_0_4_0_2,NA,NA,completion,8145.2,614651.4,614649.3,614665.9,622811.1,622813.7,2024-02-21T09:49:45Z,622827.6,NULL,Zuwachs,nyongeza,s,matilaba,udhibiti,hudhurio,NA,sd,NA,4,NA,NA,NA,NA,NA,NA,NA,NA,NA,NA,NA,NA,NA,NA,NA,NA,NA,NA,NA
91f6c,Deep Question,html.Page,3_0_4_0_3_0_0,NA,NA,form submission,11362.9,622813.8,622811.1,622827.6,634190.5,634190.7,2024-02-21T09:49:56Z,634203.6,NULL,Schüler,mwanafunzi,d,NA,NA,NA,mwanafunzi,NA,NA,4,NA,NA,NA,NA,NA,NA,NA,NA,NA,NA,NA,NA,NA,NA,NA,NA,NA,NA,NA
91f6c,"""Richtig""-Screen",canvas.Screen,3_0_4_0_3_0_1,NA,NA,timeout,4997,634193.9,634188.756,634203.6,639183.9,639185.3,2024-02-21T09:50:01Z,639200.6,NULL,Schüler,mwanafunzi,d,NA,NA,NA,NA,sd,1,4,NA,NA,NA,NA,NA,NA,NA,NA,NA,NA,NA,NA,NA,NA,NA,NA,NA,NA,NA
91f6c,"""Falsch""-Screen",canvas.Screen,3_0_4_0_3_0_2,NA,NA,skipped,NA,639191,NA,NA,639183.9,639191.3,2024-02-21T09:50:01Z,639200.6,NULL,Schüler,mwanafunzi,d,NA,NA,NA,NA,sd,NA,4,NA,NA,NA,NA,NA,NA,NA,NA,NA,NA,NA,NA,NA,NA,NA,NA,NA,NA,NA
91f6c,deep,flow.Sequence,3_0_4_0_3_0,NA,NA,completion,16356.3,622813.8,622811.1,622827.6,639183.9,639191.6,2024-02-21T09:50:01Z,639200.6,NULL,Schüler,mwanafunzi,d,NA,NA,NA,NA,sd,NA,4,NA,NA,NA,NA,NA,NA,NA,NA,NA,NA,NA,NA,NA,NA,NA,NA,NA,NA,NA
91f6c,shallow,flow.Sequence,3_0_4_0_3_1,NA,NA,skipped,NA,639191.8,NA,NA,639183.9,639192,2024-02-21T09:50:01Z,639200.6,NULL,Schüler,mwanafunzi,d,NA,NA,NA,NA,sd,NA,4,NA,NA,NA,NA,NA,NA,NA,NA,NA,NA,NA,NA,NA,NA,NA,NA,NA,NA,NA
91f6c,task,flow.Sequence,3_0_4_0_3,NA,NA,completion,16356.3,622813.8,622811.1,622827.6,639183.9,639192.3,2024-02-21T09:50:01Z,639200.6,NULL,Schüler,mwanafunzi,d,NA,NA,NA,NA,sd,NA,4,NA,NA,NA,NA,NA,NA,NA,NA,NA,NA,NA,NA,NA,NA,NA,NA,NA,NA,NA
91f6c,deep,flow.Sequence,3_0_4_0_4_0,NA,NA,skipped,NA,639192.4,NA,NA,639183.9,639192.6,2024-02-21T09:50:01Z,639200.6,NULL,Symbol,kielezo,s,kinyume,nderemo,utayari,NA,sd,NA,4,NA,NA,NA,NA,NA,NA,NA,NA,NA,NA,NA,NA,NA,NA,NA,NA,NA,NA,NA
91f6c,Shallow Question,html.Page,3_0_4_0_4_1_0,NA,NA,form submission,4620.7999999985,639192.8,639183.9,639200.6,643821.4,643821.6,2024-02-21T09:50:06Z,643831.1,NULL,Symbol,kielezo,s,kinyume,nderemo,utayari,kielezo,NA,NA,4,NA,NA,NA,NA,NA,NA,NA,NA,NA,NA,NA,NA,NA,NA,NA,NA,NA,NA,NA
91f6c,"""Richtig""-Screen",canvas.Screen,3_0_4_0_4_1_1,NA,NA,timeout,4997.1,643824.6,643815.022,643831.1,648811.8,648813.2,2024-02-21T09:50:11Z,648828.2,NULL,Symbol,kielezo,s,kinyume,nderemo,utayari,NA,sd,1,4,NA,NA,NA,NA,NA,NA,NA,NA,NA,NA,NA,NA,NA,NA,NA,NA,NA,NA,NA
91f6c,"""Falsch""-Screen",canvas.Screen,3_0_4_0_4_1_2,NA,NA,skipped,NA,648818.3,NA,NA,648811.8,648818.3,2024-02-21T09:50:11Z,648828.2,NULL,Symbol,kielezo,s,kinyume,nderemo,utayari,NA,sd,NA,4,NA,NA,NA,NA,NA,NA,NA,NA,NA,NA,NA,NA,NA,NA,NA,NA,NA,NA,NA
91f6c,shallow,flow.Sequence,3_0_4_0_4_1,NA,NA,completion,9611.2000000001,639192.7,639183.9,639200.6,648811.8,648818.5,2024-02-21T09:50:11Z,648828.2,NULL,Symbol,kielezo,s,kinyume,nderemo,utayari,NA,sd,NA,4,NA,NA,NA,NA,NA,NA,NA,NA,NA,NA,NA,NA,NA,NA,NA,NA,NA,NA,NA
91f6c,task,flow.Sequence,3_0_4_0_4,NA,NA,completion,9611.2000000001,639192.4,639183.9,639200.6,648811.8,648818.6,2024-02-21T09:50:11Z,648828.2,NULL,Symbol,kielezo,s,kinyume,nderemo,utayari,NA,sd,NA,4,NA,NA,NA,NA,NA,NA,NA,NA,NA,NA,NA,NA,NA,NA,NA,NA,NA,NA,NA
91f6c,Deep Question,html.Page,3_0_4_0_5_0_0,NA,NA,form submission,17441.400000002,648818.6,648811.8,648828.2,666269.6,666269.8,2024-02-21T09:50:28Z,666284,NULL,Vorsorge,tahadhari,d,NA,NA,NA,tahadhari,NA,NA,4,NA,NA,NA,NA,NA,NA,NA,NA,NA,NA,NA,NA,NA,NA,NA,NA,NA,NA,NA
91f6c,"""Richtig""-Screen",canvas.Screen,3_0_4_0_5_0_1,NA,NA,timeout,4997.1,666273,666269.312,666284,671264.7,671265.4,2024-02-21T09:50:33Z,671281.1,NULL,Vorsorge,tahadhari,d,NA,NA,NA,NA,sd,1,4,NA,NA,NA,NA,NA,NA,NA,NA,NA,NA,NA,NA,NA,NA,NA,NA,NA,NA,NA
91f6c,"""Falsch""-Screen",canvas.Screen,3_0_4_0_5_0_2,NA,NA,skipped,NA,671267.3,NA,NA,671264.7,671267.4,2024-02-21T09:50:33Z,671281.1,NULL,Vorsorge,tahadhari,d,NA,NA,NA,NA,sd,NA,4,NA,NA,NA,NA,NA,NA,NA,NA,NA,NA,NA,NA,NA,NA,NA,NA,NA,NA,NA
91f6c,deep,flow.Sequence,3_0_4_0_5_0,NA,NA,completion,22436.5,648818.6,648811.8,648828.2,671264.7,671267.5,2024-02-21T09:50:33Z,671281.1,NULL,Vorsorge,tahadhari,d,NA,NA,NA,NA,sd,NA,4,NA,NA,NA,NA,NA,NA,NA,NA,NA,NA,NA,NA,NA,NA,NA,NA,NA,NA,NA
91f6c,shallow,flow.Sequence,3_0_4_0_5_1,NA,NA,skipped,NA,671267.5,NA,NA,671264.7,671267.5,2024-02-21T09:50:33Z,671281.1,NULL,Vorsorge,tahadhari,d,NA,NA,NA,NA,sd,NA,4,NA,NA,NA,NA,NA,NA,NA,NA,NA,NA,NA,NA,NA,NA,NA,NA,NA,NA,NA
91f6c,task,flow.Sequence,3_0_4_0_5,NA,NA,completion,22436.5,648818.6,648811.8,648828.2,671264.7,671267.6,2024-02-21T09:50:33Z,671281.1,NULL,Vorsorge,tahadhari,d,NA,NA,NA,NA,sd,NA,4,NA,NA,NA,NA,NA,NA,NA,NA,NA,NA,NA,NA,NA,NA,NA,NA,NA,NA,NA
91f6c,deep,flow.Sequence,3_0_4_0_6_0,NA,NA,skipped,NA,671267.6,NA,NA,671264.7,671267.6,2024-02-21T09:50:33Z,671281.1,NULL,Fenster,dirisha,s,walakini,tasawari,maarifa,NA,sd,NA,4,NA,NA,NA,NA,NA,NA,NA,NA,NA,NA,NA,NA,NA,NA,NA,NA,NA,NA,NA
91f6c,Shallow Question,html.Page,3_0_4_0_6_1_0,NA,NA,form submission,4057.5000000015,671267.8,671264.7,671281.1,675338.6,675338.9,2024-02-21T09:50:37Z,675345.1,NULL,Fenster,dirisha,s,walakini,tasawari,maarifa,dirisha,NA,NA,4,NA,NA,NA,NA,NA,NA,NA,NA,NA,NA,NA,NA,NA,NA,NA,NA,NA,NA,NA
91f6c,"""Richtig""-Screen",canvas.Screen,3_0_4_0_6_1_1,NA,NA,timeout,4997.4,675341.8,675329.116,675345.1,680325.5,680326.8,2024-02-21T09:50:42Z,680342.5,NULL,Fenster,dirisha,s,walakini,tasawari,maarifa,NA,sd,1,4,NA,NA,NA,NA,NA,NA,NA,NA,NA,NA,NA,NA,NA,NA,NA,NA,NA,NA,NA
91f6c,"""Falsch""-Screen",canvas.Screen,3_0_4_0_6_1_2,NA,NA,skipped,NA,680331.6,NA,NA,680325.5,680331.8,2024-02-21T09:50:42Z,680342.5,NULL,Fenster,dirisha,s,walakini,tasawari,maarifa,NA,sd,NA,4,NA,NA,NA,NA,NA,NA,NA,NA,NA,NA,NA,NA,NA,NA,NA,NA,NA,NA,NA
91f6c,shallow,flow.Sequence,3_0_4_0_6_1,NA,NA,completion,9044.4,671267.7,671264.7,671281.1,680325.5,680331.8,2024-02-21T09:50:42Z,680342.5,NULL,Fenster,dirisha,s,walakini,tasawari,maarifa,NA,sd,NA,4,NA,NA,NA,NA,NA,NA,NA,NA,NA,NA,NA,NA,NA,NA,NA,NA,NA,NA,NA
91f6c,task,flow.Sequence,3_0_4_0_6,NA,NA,completion,9044.4,671267.6,671264.7,671281.1,680325.5,680331.9,2024-02-21T09:50:42Z,680342.5,NULL,Fenster,dirisha,s,walakini,tasawari,maarifa,NA,sd,NA,4,NA,NA,NA,NA,NA,NA,NA,NA,NA,NA,NA,NA,NA,NA,NA,NA,NA,NA,NA
91f6c,Deep Question,html.Page,3_0_4_0_7_0_0,NA,NA,form submission,11963.5,680332,680325.5,680342.5,692306,692306.1,2024-02-21T09:50:54Z,692335,NULL,Konkurrent,mshindani,d,NA,NA,NA,mshindani,NA,NA,4,NA,NA,NA,NA,NA,NA,NA,NA,NA,NA,NA,NA,NA,NA,NA,NA,NA,NA,NA
91f6c,"""Richtig""-Screen",canvas.Screen,3_0_4_0_7_0_1,NA,NA,timeout,4997,692307.7,692318.1,692335,697315.2,697316.3,2024-02-21T09:50:59Z,697332,NULL,Konkurrent,mshindani,d,NA,NA,NA,NA,sd,1,4,NA,NA,NA,NA,NA,NA,NA,NA,NA,NA,NA,NA,NA,NA,NA,NA,NA,NA,NA
91f6c,"""Falsch""-Screen",canvas.Screen,3_0_4_0_7_0_2,NA,NA,skipped,NA,697321.7,NA,NA,697315.2,697321.8,2024-02-21T09:50:59Z,697332,NULL,Konkurrent,mshindani,d,NA,NA,NA,NA,sd,NA,4,NA,NA,NA,NA,NA,NA,NA,NA,NA,NA,NA,NA,NA,NA,NA,NA,NA,NA,NA
91f6c,deep,flow.Sequence,3_0_4_0_7_0,NA,NA,completion,16972.7,680332,680325.5,680342.5,697315.2,697321.9,2024-02-21T09:50:59Z,697332,NULL,Konkurrent,mshindani,d,NA,NA,NA,NA,sd,NA,4,NA,NA,NA,NA,NA,NA,NA,NA,NA,NA,NA,NA,NA,NA,NA,NA,NA,NA,NA
91f6c,shallow,flow.Sequence,3_0_4_0_7_1,NA,NA,skipped,NA,697322,NA,NA,697315.2,697322,2024-02-21T09:50:59Z,697332,NULL,Konkurrent,mshindani,d,NA,NA,NA,NA,sd,NA,4,NA,NA,NA,NA,NA,NA,NA,NA,NA,NA,NA,NA,NA,NA,NA,NA,NA,NA,NA
91f6c,task,flow.Sequence,3_0_4_0_7,NA,NA,completion,16972.7,680332,680325.5,680342.5,697315.2,697322,2024-02-21T09:50:59Z,697332,NULL,Konkurrent,mshindani,d,NA,NA,NA,NA,sd,NA,4,NA,NA,NA,NA,NA,NA,NA,NA,NA,NA,NA,NA,NA,NA,NA,NA,NA,NA,NA
91f6c,block,flow.Loop,3_0_4_0,NA,NA,completion,114429.9,582875.1,582869.308,582885.3,697315.2,697322.1,2024-02-21T09:50:59Z,697332,NULL,NA,NA,NA,NA,NA,NA,NA,sd,NA,4,NA,NA,NA,NA,NA,NA,NA,NA,NA,NA,NA,NA,NA,NA,NA,NA,NA,NA,NA
91f6c,weiter,canvas.Screen,3_0_4_1,sdf,keypress(Space),response,1145.3999999985,697322.2,697315.2,697332,698477.4,698478.4,2024-02-21T09:51:00Z,698863.9,NULL,NA,NA,NA,NA,NA,NA,NA,sd,NA,4,NA,NA,NA,NA,NA,NA,NA,NA,NA,NA,NA,NA,NA,NA,NA,NA,NA,NA,NA
91f6c,check continue,flow.Sequence,3_0_4,NA,NA,completion,115592.1,582875,582869.308,582885.3,698477.4,698478.8,2024-02-21T09:51:00Z,698863.9,NULL,NA,NA,NA,NA,NA,NA,NA,sd,NA,4,NA,NA,NA,NA,NA,NA,NA,NA,NA,NA,NA,NA,NA,NA,NA,NA,NA,NA,NA
91f6c,check continue,flow.Sequence,3_0_5,NA,NA,skipped,NA,698517.1,NA,NA,698477.4,698517.3,2024-02-21T09:51:00Z,698863.9,NULL,NA,NA,NA,NA,NA,NA,NA,sdf,NA,5,NA,NA,NA,NA,NA,NA,NA,NA,NA,NA,NA,NA,NA,NA,NA,NA,NA,NA,NA
91f6c,check continue,flow.Sequence,3_0_6,NA,NA,skipped,NA,698544.6,NA,NA,698477.4,698544.7,2024-02-21T09:51:00Z,698863.9,NULL,NA,NA,NA,NA,NA,NA,NA,dfs,NA,6,NA,NA,NA,NA,NA,NA,NA,NA,NA,NA,NA,NA,NA,NA,NA,NA,NA,NA,NA
91f6c,check continue,flow.Sequence,3_0_7,NA,NA,skipped,NA,698568.2,NA,NA,698477.4,698568.4,2024-02-21T09:51:00Z,698863.9,NULL,NA,NA,NA,NA,NA,NA,NA,df,NA,7,NA,NA,NA,NA,NA,NA,NA,NA,NA,NA,NA,NA,NA,NA,NA,NA,NA,NA,NA
91f6c,check continue,flow.Sequence,3_0_8,NA,NA,skipped,NA,698583.3,NA,NA,698477.4,698583.4,2024-02-21T09:51:00Z,698863.9,NULL,NA,NA,NA,NA,NA,NA,NA,dfs,NA,8,NA,NA,NA,NA,NA,NA,NA,NA,NA,NA,NA,NA,NA,NA,NA,NA,NA,NA,NA
91f6c,check continue,flow.Sequence,3_0_9,NA,NA,skipped,NA,698597.4,NA,NA,698477.4,698597.4,2024-02-21T09:51:00Z,698863.9,NULL,NA,NA,NA,NA,NA,NA,NA,dsf,NA,9,NA,NA,NA,NA,NA,NA,NA,NA,NA,NA,NA,NA,NA,NA,NA,NA,NA,NA,NA
91f6c,check continue,flow.Sequence,3_0_10,NA,NA,skipped,NA,698609.8,NA,NA,698477.4,698609.8,2024-02-21T09:51:00Z,698863.9,NULL,NA,NA,NA,NA,NA,NA,NA,df,NA,10,NA,NA,NA,NA,NA,NA,NA,NA,NA,NA,NA,NA,NA,NA,NA,NA,NA,NA,NA
91f6c,check continue,flow.Sequence,3_0_11,NA,NA,skipped,NA,698623.7,NA,NA,698477.4,698623.8,2024-02-21T09:51:00Z,698863.9,NULL,NA,NA,NA,NA,NA,NA,NA,dfs,NA,11,NA,NA,NA,NA,NA,NA,NA,NA,NA,NA,NA,NA,NA,NA,NA,NA,NA,NA,NA
91f6c,check continue,flow.Sequence,3_0_12,NA,NA,skipped,NA,698637.3,NA,NA,698477.4,698637.4,2024-02-21T09:51:00Z,698863.9,NULL,NA,NA,NA,NA,NA,NA,NA,dsf,NA,12,NA,NA,NA,NA,NA,NA,NA,NA,NA,NA,NA,NA,NA,NA,NA,NA,NA,NA,NA
91f6c,check continue,flow.Sequence,3_0_13,NA,NA,skipped,NA,698650.3,NA,NA,698477.4,698650.5,2024-02-21T09:51:00Z,698863.9,NULL,NA,NA,NA,NA,NA,NA,NA,dsf,NA,13,NA,NA,NA,NA,NA,NA,NA,NA,NA,NA,NA,NA,NA,NA,NA,NA,NA,NA,NA
91f6c,check continue,flow.Sequence,3_0_14,NA,NA,skipped,NA,698663.2,NA,NA,698477.4,698663.2,2024-02-21T09:51:00Z,698863.9,NULL,NA,NA,NA,NA,NA,NA,NA,NA,NA,14,NA,NA,NA,NA,NA,NA,NA,NA,NA,NA,NA,NA,NA,NA,NA,NA,NA,NA,NA
91f6c,check continue,flow.Sequence,3_0_15,NA,NA,skipped,NA,698677,NA,NA,698477.4,698677,2024-02-21T09:51:00Z,698863.9,NULL,NA,NA,NA,NA,NA,NA,NA,NA,NA,15,NA,NA,NA,NA,NA,NA,NA,NA,NA,NA,NA,NA,NA,NA,NA,NA,NA,NA,NA
91f6c,check continue,flow.Sequence,3_0_16,NA,NA,skipped,NA,698690,NA,NA,698477.4,698690.1,2024-02-21T09:51:00Z,698863.9,NULL,NA,NA,NA,NA,NA,NA,NA,NA,NA,16,NA,NA,NA,NA,NA,NA,NA,NA,NA,NA,NA,NA,NA,NA,NA,NA,NA,NA,NA
91f6c,check continue,flow.Sequence,3_0_17,NA,NA,skipped,NA,698702.9,NA,NA,698477.4,698702.9,2024-02-21T09:51:00Z,698863.9,NULL,NA,NA,NA,NA,NA,NA,NA,NA,NA,17,NA,NA,NA,NA,NA,NA,NA,NA,NA,NA,NA,NA,NA,NA,NA,NA,NA,NA,NA
91f6c,check continue,flow.Sequence,3_0_18,NA,NA,skipped,NA,698715,NA,NA,698477.4,698715.1,2024-02-21T09:51:00Z,698863.9,NULL,NA,NA,NA,NA,NA,NA,NA,NA,NA,18,NA,NA,NA,NA,NA,NA,NA,NA,NA,NA,NA,NA,NA,NA,NA,NA,NA,NA,NA
91f6c,check continue,flow.Sequence,3_0_19,NA,NA,skipped,NA,698728.8,NA,NA,698477.4,698728.8,2024-02-21T09:51:01Z,698863.9,NULL,NA,NA,NA,NA,NA,NA,NA,NA,NA,19,NA,NA,NA,NA,NA,NA,NA,NA,NA,NA,NA,NA,NA,NA,NA,NA,NA,NA,NA
91f6c,check continue,flow.Sequence,3_0_20,NA,NA,skipped,NA,698741.4,NA,NA,698477.4,698741.5,2024-02-21T09:51:01Z,698863.9,NULL,NA,NA,NA,NA,NA,NA,NA,NA,NA,20,NA,NA,NA,NA,NA,NA,NA,NA,NA,NA,NA,NA,NA,NA,NA,NA,NA,NA,NA
91f6c,check continue,flow.Sequence,3_0_21,NA,NA,skipped,NA,698755.8,NA,NA,698477.4,698755.8,2024-02-21T09:51:01Z,698863.9,NULL,NA,NA,NA,NA,NA,NA,NA,NA,NA,21,NA,NA,NA,NA,NA,NA,NA,NA,NA,NA,NA,NA,NA,NA,NA,NA,NA,NA,NA
91f6c,check continue,flow.Sequence,3_0_22,NA,NA,skipped,NA,698767.2,NA,NA,698477.4,698767.2,2024-02-21T09:51:01Z,698863.9,NULL,NA,NA,NA,NA,NA,NA,NA,NA,NA,22,NA,NA,NA,NA,NA,NA,NA,NA,NA,NA,NA,NA,NA,NA,NA,NA,NA,NA,NA
91f6c,check continue,flow.Sequence,3_0_23,NA,NA,skipped,NA,698779.7,NA,NA,698477.4,698779.7,2024-02-21T09:51:01Z,698863.9,NULL,NA,NA,NA,NA,NA,NA,NA,NA,NA,23,NA,NA,NA,NA,NA,NA,NA,NA,NA,NA,NA,NA,NA,NA,NA,NA,NA,NA,NA
91f6c,check continue,flow.Sequence,3_0_24,NA,NA,skipped,NA,698791.1,NA,NA,698477.4,698791.2,2024-02-21T09:51:01Z,698863.9,NULL,NA,NA,NA,NA,NA,NA,NA,NA,NA,24,NA,NA,NA,NA,NA,NA,NA,NA,NA,NA,NA,NA,NA,NA,NA,NA,NA,NA,NA
91f6c,check continue,flow.Sequence,3_0_25,NA,NA,skipped,NA,698804.3,NA,NA,698477.4,698804.4,2024-02-21T09:51:01Z,698863.9,NULL,NA,NA,NA,NA,NA,NA,NA,NA,NA,25,NA,NA,NA,NA,NA,NA,NA,NA,NA,NA,NA,NA,NA,NA,NA,NA,NA,NA,NA
91f6c,check continue,flow.Sequence,3_0_26,NA,NA,skipped,NA,698815.7,NA,NA,698477.4,698815.7,2024-02-21T09:51:01Z,698863.9,NULL,NA,NA,NA,NA,NA,NA,NA,NA,NA,26,NA,NA,NA,NA,NA,NA,NA,NA,NA,NA,NA,NA,NA,NA,NA,NA,NA,NA,NA
91f6c,check continue,flow.Sequence,3_0_27,NA,NA,skipped,NA,698827.5,NA,NA,698477.4,698827.7,2024-02-21T09:51:01Z,698863.9,NULL,NA,NA,NA,NA,NA,NA,NA,NA,NA,27,NA,NA,NA,NA,NA,NA,NA,NA,NA,NA,NA,NA,NA,NA,NA,NA,NA,NA,NA
91f6c,check continue,flow.Sequence,3_0_28,NA,NA,skipped,NA,698840.6,NA,NA,698477.4,698840.7,2024-02-21T09:51:01Z,698863.9,NULL,NA,NA,NA,NA,NA,NA,NA,NA,NA,28,NA,NA,NA,NA,NA,NA,NA,NA,NA,NA,NA,NA,NA,NA,NA,NA,NA,NA,NA
91f6c,check continue,flow.Sequence,3_0_29,NA,NA,skipped,NA,698852.2,NA,NA,698477.4,698852.4,2024-02-21T09:51:01Z,698863.9,NULL,NA,NA,NA,NA,NA,NA,NA,NA,NA,29,NA,NA,NA,NA,NA,NA,NA,NA,NA,NA,NA,NA,NA,NA,NA,NA,NA,NA,NA
91f6c,until continue,flow.Loop,3_0,NA,NA,completion,525422.638,173041.5,173054.762,173054.762,698477.4,698852.5,2024-02-21T09:51:01Z,698863.9,NULL,NA,NA,NA,NA,NA,NA,NA,NA,NA,NA,NA,NA,NA,NA,NA,NA,NA,NA,NA,NA,NA,NA,NA,NA,NA,NA,NA,NA,NA
91f6c,block 1,flow.Sequence,3,NA,NA,completion,525422.638,173041.5,173054.762,173054.762,698477.4,698852.6,2024-02-21T09:51:01Z,698863.9,NULL,NA,NA,NA,NA,NA,NA,NA,NA,NA,NA,NA,NA,NA,NA,NA,NA,NA,NA,NA,NA,NA,NA,NA,NA,NA,NA,NA,NA,NA
91f6c,1.Part Over,canvas.Screen,4,NA,keypress(Space),response,2979.9000000007,698852.7,698849.6,698863.9,701843.8,701845,2024-02-21T09:51:04Z,701912.1,NULL,NA,NA,NA,NA,NA,NA,NA,NA,NA,NA,NA,NA,NA,NA,NA,NA,NA,NA,NA,NA,NA,NA,NA,NA,NA,NA,NA,NA,NA
91f6c,deep,flow.Sequence,5_0_0_0_0_0,NA,NA,skipped,NA,701910.5,NA,NA,701843.8,701910.6,2024-02-21T09:51:04Z,701912.1,NULL,Toleranz,kuvumiliana,s,maombolezo,ujasusi,mchekeshaji,NA,sdf,NA,0,NA,NA,NA,NA,NA,NA,NA,NA,NA,NA,NA,NA,NA,NA,NA,NA,NA,NA,NA
91f6c,Shallow Question,html.Page,5_0_0_0_0_1_0,NA,NA,form submission,12178.500000002,701910.7,701901.3,701912.1,714090.6,714090.8,2024-02-21T09:51:16Z,714104.7,NULL,Toleranz,kuvumiliana,s,maombolezo,ujasusi,mchekeshaji,maombolezo,NA,NA,0,NA,NA,NA,NA,NA,NA,NA,NA,NA,NA,NA,NA,NA,NA,NA,NA,NA,NA,NA
91f6c,"""Richtig""-Screen",canvas.Screen,5_0_0_0_0_1_1,NA,NA,skipped,NA,714094.6,NA,NA,714090.6,714094.8,2024-02-21T09:51:16Z,714104.7,NULL,Toleranz,kuvumiliana,s,maombolezo,ujasusi,mchekeshaji,NA,sdf,NA,0,NA,NA,NA,NA,NA,NA,NA,NA,NA,NA,NA,NA,NA,NA,NA,NA,NA,NA,NA
91f6c,"""Falsch""-Screen",canvas.Screen,5_0_0_0_0_1_2,NA,NA,timeout,4997.5,714095.6,714090.564,714104.7,719085.4,719086.4,2024-02-21T09:51:21Z,719102.2,NULL,Toleranz,kuvumiliana,s,maombolezo,ujasusi,mchekeshaji,NA,sdf,0,0,NA,NA,NA,NA,NA,NA,NA,NA,NA,NA,NA,NA,NA,NA,NA,NA,NA,NA,NA
91f6c,shallow,flow.Sequence,5_0_0_0_0_1,NA,NA,completion,17173.3,701910.7,701901.3,701912.1,719085.4,719086.9,2024-02-21T09:51:21Z,719102.2,NULL,Toleranz,kuvumiliana,s,maombolezo,ujasusi,mchekeshaji,NA,sdf,NA,0,NA,NA,NA,NA,NA,NA,NA,NA,NA,NA,NA,NA,NA,NA,NA,NA,NA,NA,NA
91f6c,task,flow.Sequence,5_0_0_0_0,NA,NA,completion,17173.3,701910.5,701901.3,701912.1,719085.4,719087.2,2024-02-21T09:51:21Z,719102.2,NULL,Toleranz,kuvumiliana,s,maombolezo,ujasusi,mchekeshaji,NA,sdf,NA,0,NA,NA,NA,NA,NA,NA,NA,NA,NA,NA,NA,NA,NA,NA,NA,NA,NA,NA,NA
91f6c,Deep Question,html.Page,5_0_0_0_1_0_0,NA,NA,form submission,6274.1999999986,719087.4,719085.4,719102.2,725376.4,725376.6,2024-02-21T09:51:27Z,725381.72,NULL,Inhalt,yaliyomo,d,NA,NA,NA,jsjaj,NA,NA,0,NA,NA,NA,NA,NA,NA,NA,NA,NA,NA,NA,NA,NA,NA,NA,NA,NA,NA,NA
91f6c,"""Richtig""-Screen",canvas.Screen,5_0_0_0_1_0_1,NA,NA,skipped,NA,725379.8,NA,NA,725376.4,725380,2024-02-21T09:51:27Z,725381.72,NULL,Inhalt,yaliyomo,d,NA,NA,NA,NA,sdf,NA,0,NA,NA,NA,NA,NA,NA,NA,NA,NA,NA,NA,NA,NA,NA,NA,NA,NA,NA,NA
91f6c,"""Falsch""-Screen",canvas.Screen,5_0_0_0_1_0_2,NA,NA,timeout,4996.28,725381,725381.72,725381.72,730361.9,730362.9,2024-02-21T09:51:32Z,730378,NULL,Inhalt,yaliyomo,d,NA,NA,NA,NA,sdf,0,0,NA,NA,NA,NA,NA,NA,NA,NA,NA,NA,NA,NA,NA,NA,NA,NA,NA,NA,NA
91f6c,deep,flow.Sequence,5_0_0_0_1_0,NA,NA,completion,11259.7,719087.4,719085.4,719102.2,730361.9,730363.3,2024-02-21T09:51:32Z,730378,NULL,Inhalt,yaliyomo,d,NA,NA,NA,NA,sdf,NA,0,NA,NA,NA,NA,NA,NA,NA,NA,NA,NA,NA,NA,NA,NA,NA,NA,NA,NA,NA
91f6c,shallow,flow.Sequence,5_0_0_0_1_1,NA,NA,skipped,NA,730363.6,NA,NA,730361.9,730363.7,2024-02-21T09:51:32Z,730378,NULL,Inhalt,yaliyomo,d,NA,NA,NA,NA,sdf,NA,0,NA,NA,NA,NA,NA,NA,NA,NA,NA,NA,NA,NA,NA,NA,NA,NA,NA,NA,NA
91f6c,task,flow.Sequence,5_0_0_0_1,NA,NA,completion,11259.7,719087.3,719085.4,719102.2,730361.9,730364,2024-02-21T09:51:32Z,730378,NULL,Inhalt,yaliyomo,d,NA,NA,NA,NA,sdf,NA,0,NA,NA,NA,NA,NA,NA,NA,NA,NA,NA,NA,NA,NA,NA,NA,NA,NA,NA,NA
91f6c,Deep Question,html.Page,5_0_0_0_2_0_0,NA,NA,form submission,3641.6000000015,730364.2,730361.9,730378,734019.6,734019.7,2024-02-21T09:51:36Z,734025.8,NULL,Beweis,ushahidi,d,NA,NA,NA,jaja,NA,NA,0,NA,NA,NA,NA,NA,NA,NA,NA,NA,NA,NA,NA,NA,NA,NA,NA,NA,NA,NA
91f6c,"""Richtig""-Screen",canvas.Screen,5_0_0_0_2_0_1,NA,NA,skipped,NA,734023,NA,NA,734019.6,734023.1,2024-02-21T09:51:36Z,734025.8,NULL,Beweis,ushahidi,d,NA,NA,NA,NA,sdf,NA,0,NA,NA,NA,NA,NA,NA,NA,NA,NA,NA,NA,NA,NA,NA,NA,NA,NA,NA,NA
91f6c,"""Falsch""-Screen",canvas.Screen,5_0_0_0_2_0_2,NA,NA,timeout,4997.1,734024,734009.582,734025.8,739006.5,739007.6,2024-02-21T09:51:41Z,739022.9,NULL,Beweis,ushahidi,d,NA,NA,NA,NA,sdf,0,0,NA,NA,NA,NA,NA,NA,NA,NA,NA,NA,NA,NA,NA,NA,NA,NA,NA,NA,NA
91f6c,deep,flow.Sequence,5_0_0_0_2_0,NA,NA,completion,8628.5,730364.1,730361.9,730378,739006.5,739008,2024-02-21T09:51:41Z,739022.9,NULL,Beweis,ushahidi,d,NA,NA,NA,NA,sdf,NA,0,NA,NA,NA,NA,NA,NA,NA,NA,NA,NA,NA,NA,NA,NA,NA,NA,NA,NA,NA
91f6c,shallow,flow.Sequence,5_0_0_0_2_1,NA,NA,skipped,NA,739008.2,NA,NA,739006.5,739008.4,2024-02-21T09:51:41Z,739022.9,NULL,Beweis,ushahidi,d,NA,NA,NA,NA,sdf,NA,0,NA,NA,NA,NA,NA,NA,NA,NA,NA,NA,NA,NA,NA,NA,NA,NA,NA,NA,NA
91f6c,task,flow.Sequence,5_0_0_0_2,NA,NA,completion,8628.5,730364,730361.9,730378,739006.5,739008.6,2024-02-21T09:51:41Z,739022.9,NULL,Beweis,ushahidi,d,NA,NA,NA,NA,sdf,NA,0,NA,NA,NA,NA,NA,NA,NA,NA,NA,NA,NA,NA,NA,NA,NA,NA,NA,NA,NA
91f6c,deep,flow.Sequence,5_0_0_0_3_0,NA,NA,skipped,NA,739008.8,NA,NA,739006.5,739009,2024-02-21T09:51:41Z,739022.9,NULL,Schlange,foleni,s,uvumilivu,uteuzi,muuzaji,NA,sdf,NA,0,NA,NA,NA,NA,NA,NA,NA,NA,NA,NA,NA,NA,NA,NA,NA,NA,NA,NA,NA
91f6c,Shallow Question,html.Page,5_0_0_0_3_1_0,NA,NA,form submission,8967.7999999992,739009.1,739006.5,739022.9,747990.7,747991,2024-02-21T09:51:50Z,748000.6,NULL,Schlange,foleni,s,uvumilivu,uteuzi,muuzaji,foleni,NA,NA,0,NA,NA,NA,NA,NA,NA,NA,NA,NA,NA,NA,NA,NA,NA,NA,NA,NA,NA,NA
91f6c,"""Richtig""-Screen",canvas.Screen,5_0_0_0_3_1_1,NA,NA,timeout,4997.4,747992.9,747984.4,748000.6,752981.4,752982.4,2024-02-21T09:51:55Z,752998,NULL,Schlange,foleni,s,uvumilivu,uteuzi,muuzaji,NA,sdf,1,0,NA,NA,NA,NA,NA,NA,NA,NA,NA,NA,NA,NA,NA,NA,NA,NA,NA,NA,NA
91f6c,"""Falsch""-Screen",canvas.Screen,5_0_0_0_3_1_2,NA,NA,skipped,NA,752987.2,NA,NA,752981.4,752987.3,2024-02-21T09:51:55Z,752998,NULL,Schlange,foleni,s,uvumilivu,uteuzi,muuzaji,NA,sdf,NA,0,NA,NA,NA,NA,NA,NA,NA,NA,NA,NA,NA,NA,NA,NA,NA,NA,NA,NA,NA
91f6c,shallow,flow.Sequence,5_0_0_0_3_1,NA,NA,completion,13958.5,739009,739006.5,739022.9,752981.4,752987.3,2024-02-21T09:51:55Z,752998,NULL,Schlange,foleni,s,uvumilivu,uteuzi,muuzaji,NA,sdf,NA,0,NA,NA,NA,NA,NA,NA,NA,NA,NA,NA,NA,NA,NA,NA,NA,NA,NA,NA,NA
91f6c,task,flow.Sequence,5_0_0_0_3,NA,NA,completion,13958.5,739008.8,739006.5,739022.9,752981.4,752987.4,2024-02-21T09:51:55Z,752998,NULL,Schlange,foleni,s,uvumilivu,uteuzi,muuzaji,NA,sdf,NA,0,NA,NA,NA,NA,NA,NA,NA,NA,NA,NA,NA,NA,NA,NA,NA,NA,NA,NA,NA
91f6c,Deep Question,html.Page,5_0_0_0_4_0_0,NA,NA,form submission,3765.8000000007,752987.5,752981.4,752998,756763.8,756763.9,2024-02-21T09:51:59Z,756778.8,NULL,Polizist,msongora,d,NA,NA,NA,jajaa,NA,NA,0,NA,NA,NA,NA,NA,NA,NA,NA,NA,NA,NA,NA,NA,NA,NA,NA,NA,NA,NA
91f6c,"""Richtig""-Screen",canvas.Screen,5_0_0_0_4_0_1,NA,NA,skipped,NA,756767,NA,NA,756763.8,756767.1,2024-02-21T09:51:59Z,756778.8,NULL,Polizist,msongora,d,NA,NA,NA,NA,sdf,NA,0,NA,NA,NA,NA,NA,NA,NA,NA,NA,NA,NA,NA,NA,NA,NA,NA,NA,NA,NA
91f6c,"""Falsch""-Screen",canvas.Screen,5_0_0_0_4_0_2,NA,NA,timeout,4997.1,756767.9,756763.832,756778.8,761758.8,761760,2024-02-21T09:52:04Z,761775.9,NULL,Polizist,msongora,d,NA,NA,NA,NA,sdf,0,0,NA,NA,NA,NA,NA,NA,NA,NA,NA,NA,NA,NA,NA,NA,NA,NA,NA,NA,NA
91f6c,deep,flow.Sequence,5_0_0_0_4_0,NA,NA,completion,8760.8,752987.4,752981.4,752998,761758.8,761760.5,2024-02-21T09:52:04Z,761775.9,NULL,Polizist,msongora,d,NA,NA,NA,NA,sdf,NA,0,NA,NA,NA,NA,NA,NA,NA,NA,NA,NA,NA,NA,NA,NA,NA,NA,NA,NA,NA
91f6c,shallow,flow.Sequence,5_0_0_0_4_1,NA,NA,skipped,NA,761760.7,NA,NA,761758.8,761760.9,2024-02-21T09:52:04Z,761775.9,NULL,Polizist,msongora,d,NA,NA,NA,NA,sdf,NA,0,NA,NA,NA,NA,NA,NA,NA,NA,NA,NA,NA,NA,NA,NA,NA,NA,NA,NA,NA
91f6c,task,flow.Sequence,5_0_0_0_4,NA,NA,completion,8760.8,752987.4,752981.4,752998,761758.8,761761.2,2024-02-21T09:52:04Z,761775.9,NULL,Polizist,msongora,d,NA,NA,NA,NA,sdf,NA,0,NA,NA,NA,NA,NA,NA,NA,NA,NA,NA,NA,NA,NA,NA,NA,NA,NA,NA,NA
91f6c,deep,flow.Sequence,5_0_0_0_5_0,NA,NA,skipped,NA,761761.3,NA,NA,761758.8,761761.5,2024-02-21T09:52:04Z,761775.9,NULL,Annäherung,maegesho,s,madahili,kujiamini,mapendekezo,NA,sdf,NA,0,NA,NA,NA,NA,NA,NA,NA,NA,NA,NA,NA,NA,NA,NA,NA,NA,NA,NA,NA
91f6c,Shallow Question,html.Page,5_0_0_0_5_1_0,NA,NA,form submission,8455.1,761761.6,761758.8,761775.9,770231,770231.1,2024-02-21T09:52:12Z,770237,NULL,Annäherung,maegesho,s,madahili,kujiamini,mapendekezo,madahili,NA,NA,0,NA,NA,NA,NA,NA,NA,NA,NA,NA,NA,NA,NA,NA,NA,NA,NA,NA,NA,NA
91f6c,"""Richtig""-Screen",canvas.Screen,5_0_0_0_5_1_1,NA,NA,skipped,NA,770234.5,NA,NA,770231,770234.5,2024-02-21T09:52:12Z,770237,NULL,Annäherung,maegesho,s,madahili,kujiamini,mapendekezo,NA,sdf,NA,0,NA,NA,NA,NA,NA,NA,NA,NA,NA,NA,NA,NA,NA,NA,NA,NA,NA,NA,NA
91f6c,"""Falsch""-Screen",canvas.Screen,5_0_0_0_5_1_2,NA,NA,timeout,4997,770235.2,770220.886,770237,775217.4,775218.8,2024-02-21T09:52:17Z,775234,NULL,Annäherung,maegesho,s,madahili,kujiamini,mapendekezo,NA,sdf,0,0,NA,NA,NA,NA,NA,NA,NA,NA,NA,NA,NA,NA,NA,NA,NA,NA,NA,NA,NA
91f6c,shallow,flow.Sequence,5_0_0_0_5_1,NA,NA,completion,13441.5,761761.6,761758.8,761775.9,775217.4,775219.3,2024-02-21T09:52:17Z,775234,NULL,Annäherung,maegesho,s,madahili,kujiamini,mapendekezo,NA,sdf,NA,0,NA,NA,NA,NA,NA,NA,NA,NA,NA,NA,NA,NA,NA,NA,NA,NA,NA,NA,NA
91f6c,task,flow.Sequence,5_0_0_0_5,NA,NA,completion,13441.5,761761.3,761758.8,761775.9,775217.4,775219.5,2024-02-21T09:52:17Z,775234,NULL,Annäherung,maegesho,s,madahili,kujiamini,mapendekezo,NA,sdf,NA,0,NA,NA,NA,NA,NA,NA,NA,NA,NA,NA,NA,NA,NA,NA,NA,NA,NA,NA,NA
91f6c,Deep Question,html.Page,5_0_0_0_6_0_0,NA,NA,form submission,2575.6000000015,775219.9,775217.4,775234,777809.6,777809.9,2024-02-21T09:52:20Z,777815.7,NULL,Vermutung,udhanifu,d,NA,NA,NA,jajaa,NA,NA,0,NA,NA,NA,NA,NA,NA,NA,NA,NA,NA,NA,NA,NA,NA,NA,NA,NA,NA,NA
91f6c,"""Richtig""-Screen",canvas.Screen,5_0_0_0_6_0_1,NA,NA,skipped,NA,777813.1,NA,NA,777809.6,777813.2,2024-02-21T09:52:20Z,777815.7,NULL,Vermutung,udhanifu,d,NA,NA,NA,NA,sdf,NA,0,NA,NA,NA,NA,NA,NA,NA,NA,NA,NA,NA,NA,NA,NA,NA,NA,NA,NA,NA
91f6c,"""Falsch""-Screen",canvas.Screen,5_0_0_0_6_0_2,NA,NA,timeout,4997,777814.2,777799.644,777815.7,782796.1,782797.2,2024-02-21T09:52:25Z,782812.7,NULL,Vermutung,udhanifu,d,NA,NA,NA,NA,sdf,0,0,NA,NA,NA,NA,NA,NA,NA,NA,NA,NA,NA,NA,NA,NA,NA,NA,NA,NA,NA
91f6c,deep,flow.Sequence,5_0_0_0_6_0,NA,NA,completion,7562.1,775219.8,775217.4,775234,782796.1,782797.8,2024-02-21T09:52:25Z,782812.7,NULL,Vermutung,udhanifu,d,NA,NA,NA,NA,sdf,NA,0,NA,NA,NA,NA,NA,NA,NA,NA,NA,NA,NA,NA,NA,NA,NA,NA,NA,NA,NA
91f6c,shallow,flow.Sequence,5_0_0_0_6_1,NA,NA,skipped,NA,782797.9,NA,NA,782796.1,782798.1,2024-02-21T09:52:25Z,782812.7,NULL,Vermutung,udhanifu,d,NA,NA,NA,NA,sdf,NA,0,NA,NA,NA,NA,NA,NA,NA,NA,NA,NA,NA,NA,NA,NA,NA,NA,NA,NA,NA
91f6c,task,flow.Sequence,5_0_0_0_6,NA,NA,completion,7562.1,775219.7,775217.4,775234,782796.1,782798.4,2024-02-21T09:52:25Z,782812.7,NULL,Vermutung,udhanifu,d,NA,NA,NA,NA,sdf,NA,0,NA,NA,NA,NA,NA,NA,NA,NA,NA,NA,NA,NA,NA,NA,NA,NA,NA,NA,NA
91f6c,deep,flow.Sequence,5_0_0_0_7_0,NA,NA,skipped,NA,782798.5,NA,NA,782796.1,782798.7,2024-02-21T09:52:25Z,782812.7,NULL,Sympathie,mapendano,s,dhamiria,fungamano,maazimio,NA,sdf,NA,0,NA,NA,NA,NA,NA,NA,NA,NA,NA,NA,NA,NA,NA,NA,NA,NA,NA,NA,NA
91f6c,Shallow Question,html.Page,5_0_0_0_7_1_0,NA,NA,form submission,4252.1000000008,782798.9,782796.1,782812.7,787064.8,787065,2024-02-21T09:52:29Z,787077,NULL,Sympathie,mapendano,s,dhamiria,fungamano,maazimio,dhamiria,NA,NA,0,NA,NA,NA,NA,NA,NA,NA,NA,NA,NA,NA,NA,NA,NA,NA,NA,NA,NA,NA
91f6c,"""Richtig""-Screen",canvas.Screen,5_0_0_0_7_1_1,NA,NA,skipped,NA,787068.2,NA,NA,787064.8,787068.3,2024-02-21T09:52:29Z,787077,NULL,Sympathie,mapendano,s,dhamiria,fungamano,maazimio,NA,sdf,NA,0,NA,NA,NA,NA,NA,NA,NA,NA,NA,NA,NA,NA,NA,NA,NA,NA,NA,NA,NA
91f6c,"""Falsch""-Screen",canvas.Screen,5_0_0_0_7_1_2,NA,NA,timeout,4997,787069.3,787060.684,787077,792057.3,792057.8,2024-02-21T09:52:34Z,792074,NULL,Sympathie,mapendano,s,dhamiria,fungamano,maazimio,NA,sdf,0,0,NA,NA,NA,NA,NA,NA,NA,NA,NA,NA,NA,NA,NA,NA,NA,NA,NA,NA,NA
91f6c,shallow,flow.Sequence,5_0_0_0_7_1,NA,NA,completion,9244.6000000001,782798.8,782796.1,782812.7,792057.3,792058,2024-02-21T09:52:34Z,792074,NULL,Sympathie,mapendano,s,dhamiria,fungamano,maazimio,NA,sdf,NA,0,NA,NA,NA,NA,NA,NA,NA,NA,NA,NA,NA,NA,NA,NA,NA,NA,NA,NA,NA
91f6c,task,flow.Sequence,5_0_0_0_7,NA,NA,completion,9244.6000000001,782798.5,782796.1,782812.7,792057.3,792058,2024-02-21T09:52:34Z,792074,NULL,Sympathie,mapendano,s,dhamiria,fungamano,maazimio,NA,sdf,NA,0,NA,NA,NA,NA,NA,NA,NA,NA,NA,NA,NA,NA,NA,NA,NA,NA,NA,NA,NA
91f6c,block,flow.Loop,5_0_0_0,NA,NA,completion,90145.2,701910.5,701901.3,701912.1,792057.3,792058.1,2024-02-21T09:52:34Z,792074,NULL,NA,NA,NA,NA,NA,NA,NA,sdf,NA,0,NA,NA,NA,NA,NA,NA,NA,NA,NA,NA,NA,NA,NA,NA,NA,NA,NA,NA,NA
91f6c,weiter,canvas.Screen,5_0_0_1,sdf,keypress(Space),response,1019.5,792058.1,792057.3,792074,793093.5,793095.1,2024-02-21T09:52:35Z,793106.688,NULL,NA,NA,NA,NA,NA,NA,NA,sdf,NA,0,NA,NA,NA,NA,NA,NA,NA,NA,NA,NA,NA,NA,NA,NA,NA,NA,NA,NA,NA
91f6c,check continue,flow.Sequence,5_0_0,NA,NA,completion,91181.4,701910.5,701901.3,701912.1,793093.5,793095.3,2024-02-21T09:52:35Z,793106.688,NULL,NA,NA,NA,NA,NA,NA,NA,sdf,NA,0,NA,NA,NA,NA,NA,NA,NA,NA,NA,NA,NA,NA,NA,NA,NA,NA,NA,NA,NA
91f6c,Deep Question,html.Page,5_0_1_0_0_0_0,NA,NA,form submission,10381.511999999,793115.3,793106.688,793106.688,803488.2,803488.6,2024-02-21T09:52:45Z,803500,NULL,Beweis,ushahidi,d,NA,NA,NA,mifentushi,NA,NA,1,NA,NA,NA,NA,NA,NA,NA,NA,NA,NA,NA,NA,NA,NA,NA,NA,NA,NA,NA
91f6c,"""Richtig""-Screen",canvas.Screen,5_0_1_0_0_0_1,NA,NA,skipped,NA,803491.8,NA,NA,803488.2,803492,2024-02-21T09:52:45Z,803500,NULL,Beweis,ushahidi,d,NA,NA,NA,NA,sdfdsf,NA,1,NA,NA,NA,NA,NA,NA,NA,NA,NA,NA,NA,NA,NA,NA,NA,NA,NA,NA,NA
91f6c,"""Falsch""-Screen",canvas.Screen,5_0_1_0_0_0_2,NA,NA,timeout,4997.1,803492.9,803485.732,803500,808480.6,808481.6,2024-02-21T09:52:50Z,808497.1,NULL,Beweis,ushahidi,d,NA,NA,NA,NA,sdfdsf,0,1,NA,NA,NA,NA,NA,NA,NA,NA,NA,NA,NA,NA,NA,NA,NA,NA,NA,NA,NA
91f6c,deep,flow.Sequence,5_0_1_0_0_0,NA,NA,completion,15373.912,793115.3,793106.688,793106.688,808480.6,808482,2024-02-21T09:52:50Z,808497.1,NULL,Beweis,ushahidi,d,NA,NA,NA,NA,sdfdsf,NA,1,NA,NA,NA,NA,NA,NA,NA,NA,NA,NA,NA,NA,NA,NA,NA,NA,NA,NA,NA
91f6c,shallow,flow.Sequence,5_0_1_0_0_1,NA,NA,skipped,NA,808482.2,NA,NA,808480.6,808482.4,2024-02-21T09:52:50Z,808497.1,NULL,Beweis,ushahidi,d,NA,NA,NA,NA,sdfdsf,NA,1,NA,NA,NA,NA,NA,NA,NA,NA,NA,NA,NA,NA,NA,NA,NA,NA,NA,NA,NA
91f6c,task,flow.Sequence,5_0_1_0_0,NA,NA,completion,15373.912,793115.3,793106.688,793106.688,808480.6,808482.5,2024-02-21T09:52:50Z,808497.1,NULL,Beweis,ushahidi,d,NA,NA,NA,NA,sdfdsf,NA,1,NA,NA,NA,NA,NA,NA,NA,NA,NA,NA,NA,NA,NA,NA,NA,NA,NA,NA,NA
91f6c,Deep Question,html.Page,5_0_1_0_1_0_0,NA,NA,form submission,9458.7999999985,808482.7,808480.6,808497.1,817955.9,817956.1,2024-02-21T09:53:00Z,817958.388,NULL,Inhalt,yaliyomo,d,NA,NA,NA,jajaj,NA,NA,1,NA,NA,NA,NA,NA,NA,NA,NA,NA,NA,NA,NA,NA,NA,NA,NA,NA,NA,NA
91f6c,"""Richtig""-Screen",canvas.Screen,5_0_1_0_1_0_1,NA,NA,skipped,NA,817959.4,NA,NA,817955.9,817959.5,2024-02-21T09:53:00Z,817958.388,NULL,Inhalt,yaliyomo,d,NA,NA,NA,NA,sdfdsf,NA,1,NA,NA,NA,NA,NA,NA,NA,NA,NA,NA,NA,NA,NA,NA,NA,NA,NA,NA,NA
91f6c,"""Falsch""-Screen",canvas.Screen,5_0_1_0_1_0_2,NA,NA,timeout,4996.8119999999,817960.4,817958.388,817958.388,822938.4,822939.6,2024-02-21T09:53:05Z,822955.2,NULL,Inhalt,yaliyomo,d,NA,NA,NA,NA,sdfdsf,0,1,NA,NA,NA,NA,NA,NA,NA,NA,NA,NA,NA,NA,NA,NA,NA,NA,NA,NA,NA
91f6c,deep,flow.Sequence,5_0_1_0_1_0,NA,NA,completion,14441.3,808482.7,808480.6,808497.1,822938.4,822940.1,2024-02-21T09:53:05Z,822955.2,NULL,Inhalt,yaliyomo,d,NA,NA,NA,NA,sdfdsf,NA,1,NA,NA,NA,NA,NA,NA,NA,NA,NA,NA,NA,NA,NA,NA,NA,NA,NA,NA,NA
91f6c,shallow,flow.Sequence,5_0_1_0_1_1,NA,NA,skipped,NA,822940.3,NA,NA,822938.4,822940.4,2024-02-21T09:53:05Z,822955.2,NULL,Inhalt,yaliyomo,d,NA,NA,NA,NA,sdfdsf,NA,1,NA,NA,NA,NA,NA,NA,NA,NA,NA,NA,NA,NA,NA,NA,NA,NA,NA,NA,NA
91f6c,task,flow.Sequence,5_0_1_0_1,NA,NA,completion,14441.3,808482.7,808480.6,808497.1,822938.4,822940.7,2024-02-21T09:53:05Z,822955.2,NULL,Inhalt,yaliyomo,d,NA,NA,NA,NA,sdfdsf,NA,1,NA,NA,NA,NA,NA,NA,NA,NA,NA,NA,NA,NA,NA,NA,NA,NA,NA,NA,NA
91f6c,deep,flow.Sequence,5_0_1_0_2_0,NA,NA,skipped,NA,822940.9,NA,NA,822938.4,822941,2024-02-21T09:53:05Z,822955.2,NULL,Toleranz,kuvumiliana,s,maombolezo,ujasusi,mchekeshaji,NA,sdfdsf,NA,1,NA,NA,NA,NA,NA,NA,NA,NA,NA,NA,NA,NA,NA,NA,NA,NA,NA,NA,NA
91f6c,Shallow Question,html.Page,5_0_1_0_2_1_0,NA,NA,form submission,4617.4999999993,822941.3,822938.4,822955.2,827572.7,827573,2024-02-21T09:53:09Z,827585.7,NULL,Toleranz,kuvumiliana,s,maombolezo,ujasusi,mchekeshaji,kuvumiliana,NA,NA,1,NA,NA,NA,NA,NA,NA,NA,NA,NA,NA,NA,NA,NA,NA,NA,NA,NA,NA,NA
91f6c,"""Richtig""-Screen",canvas.Screen,5_0_1_0_2_1_1,NA,NA,timeout,4996.6000000001,827576.3,827569.128,827585.7,832565.7,832566.8,2024-02-21T09:53:14Z,832582.3,NULL,Toleranz,kuvumiliana,s,maombolezo,ujasusi,mchekeshaji,NA,sdfdsf,1,1,NA,NA,NA,NA,NA,NA,NA,NA,NA,NA,NA,NA,NA,NA,NA,NA,NA,NA,NA
91f6c,"""Falsch""-Screen",canvas.Screen,5_0_1_0_2_1_2,NA,NA,skipped,NA,832571.4,NA,NA,832565.7,832571.6,2024-02-21T09:53:14Z,832582.3,NULL,Toleranz,kuvumiliana,s,maombolezo,ujasusi,mchekeshaji,NA,sdfdsf,NA,1,NA,NA,NA,NA,NA,NA,NA,NA,NA,NA,NA,NA,NA,NA,NA,NA,NA,NA,NA
91f6c,shallow,flow.Sequence,5_0_1_0_2_1,NA,NA,completion,9610.5,822941.2,822938.4,822955.2,832565.7,832571.6,2024-02-21T09:53:14Z,832582.3,NULL,Toleranz,kuvumiliana,s,maombolezo,ujasusi,mchekeshaji,NA,sdfdsf,NA,1,NA,NA,NA,NA,NA,NA,NA,NA,NA,NA,NA,NA,NA,NA,NA,NA,NA,NA,NA
91f6c,task,flow.Sequence,5_0_1_0_2,NA,NA,completion,9610.5,822940.8,822938.4,822955.2,832565.7,832571.7,2024-02-21T09:53:14Z,832582.3,NULL,Toleranz,kuvumiliana,s,maombolezo,ujasusi,mchekeshaji,NA,sdfdsf,NA,1,NA,NA,NA,NA,NA,NA,NA,NA,NA,NA,NA,NA,NA,NA,NA,NA,NA,NA,NA
