observation,sender,sender_type,sender_id,response,response_action,ended_on,duration,time_run,time_render,time_show,time_end,time_commit,timestamp,time_switch,german,swahili,enc,distractor1,distractor2,distractor3,response_2,x,correct,distractors,url_vp,url_sess,meta_labjs_version,meta_location,meta_user_agent,meta_platform,meta_language,meta_locale,meta_time_zone,meta_timezone_offset,meta_screen_width,meta_screen_height,meta_scroll_width,meta_scroll_height,meta_window_inner_width,meta_window_inner_height,meta_device_pixel_ratio,meta_labjs_build_flavor,meta_labjs_build_commit
a9552,Introduction delayed retrieval,canvas.Screen,0,weiter,keypress(Space),response,1834.8999999762,183.5,117.9,184.5,2019.3999999762,2022.2000000477,2024-02-23T08:13:59Z,2034.4,NA,NA,NA,NA,NA,NA,NA,NA,NA,NULL,139,2,20.2.4,https://neurocog.fernuni.ch/studies/vweber/aberisha/delayed/index.html?vp=139&sess=2,"Mozilla/5.0 (Windows NT 10.0; Win64; x64) AppleWebKit/537.36 (KHTML, like Gecko) Chrome/121.0.0.0 Safari/537.36 Edg/121.0.0.0",Win32,de,de-CH,Europe/Zurich,-60,1920,1080,1026,699,1026,747,1,production,f5b4a49f956347addd546a832a3327688c2c0fef
a9552,Deep Question,html.Page,1_0_0_0,NA,NA,form submission,26465.800000048,2022.8999999762,2018.046,2034.4,28500.200000048,28500.399999976,2024-02-23T08:14:26Z,28518.8,Symbol,kielezo,s,kinyume,nderemo,utayari,yaliyomo,NA,NA,NULL,NA,NA,NA,NA,NA,NA,NA,NA,NA,NA,NA,NA,NA,NA,NA,NA,NA,NA,NA
a9552,Save data screen,canvas.Screen,1_0_0_1,NA,NA,timeout,499.2,28500.899999976,28501.616,28518.8,29001.2,29002.5,2024-02-23T08:14:26Z,29018,Symbol,kielezo,s,kinyume,nderemo,utayari,NA,NA,0,NULL,NA,NA,NA,NA,NA,NA,NA,NA,NA,NA,NA,NA,NA,NA,NA,NA,NA,NA,NA
a9552,deep,flow.Sequence,1_0_0,NA,NA,completion,26966.8,2022.7999999523,2018.046,2034.4,29001.2,29002.799999952,2024-02-23T08:14:26Z,29018,Symbol,kielezo,s,kinyume,nderemo,utayari,NA,NA,NA,NULL,NA,NA,NA,NA,NA,NA,NA,NA,NA,NA,NA,NA,NA,NA,NA,NA,NA,NA,NA
a9552,task,flow.Sequence,1_0,NA,NA,completion,26966.8,2022.7999999523,2018.046,2034.4,29001.2,29003,2024-02-23T08:14:26Z,29018,Symbol,kielezo,s,kinyume,nderemo,utayari,NA,NA,NA,NULL,NA,NA,NA,NA,NA,NA,NA,NA,NA,NA,NA,NA,NA,NA,NA,NA,NA,NA,NA
a9552,Deep Question,html.Page,1_1_0_0,NA,NA,form submission,18857.200000048,29003.200000048,29001.2,29018,47875.200000048,47875.399999976,2024-02-23T08:14:45Z,47884.4,Zufall,kikuti,s,kukosekana,uchoraji,leseni,ufungaj,NA,NA,NULL,NA,NA,NA,NA,NA,NA,NA,NA,NA,NA,NA,NA,NA,NA,NA,NA,NA,NA,NA
a9552,Save data screen,canvas.Screen,1_1_0_1,NA,NA,timeout,500.2,47876.100000024,47868,47884.4,48367.9,48368.899999976,2024-02-23T08:14:46Z,48384.6,Zufall,kikuti,s,kukosekana,uchoraji,leseni,NA,NA,0,NULL,NA,NA,NA,NA,NA,NA,NA,NA,NA,NA,NA,NA,NA,NA,NA,NA,NA,NA,NA
a9552,deep,flow.Sequence,1_1_0,NA,NA,completion,19349.9,29003.200000048,29001.2,29018,48367.9,48369.200000048,2024-02-23T08:14:46Z,48384.6,Zufall,kikuti,s,kukosekana,uchoraji,leseni,NA,NA,NA,NULL,NA,NA,NA,NA,NA,NA,NA,NA,NA,NA,NA,NA,NA,NA,NA,NA,NA,NA,NA
a9552,task,flow.Sequence,1_1,NA,NA,completion,19349.9,29003.100000024,29001.2,29018,48367.9,48369.399999976,2024-02-23T08:14:46Z,48384.6,Zufall,kikuti,s,kukosekana,uchoraji,leseni,NA,NA,NA,NULL,NA,NA,NA,NA,NA,NA,NA,NA,NA,NA,NA,NA,NA,NA,NA,NA,NA,NA,NA
a9552,Deep Question,html.Page,1_2_0_0,NA,NA,form submission,10851.699999952,48369.700000048,48367.9,48384.6,59236.299999952,59236.5,2024-02-23T08:14:56Z,59251.2,Gelegenheit,wakati,d,mchanganyiko,kipaumbele,kushuku,tahadari,NA,NA,NULL,NA,NA,NA,NA,NA,NA,NA,NA,NA,NA,NA,NA,NA,NA,NA,NA,NA,NA,NA
a9552,Save data screen,canvas.Screen,1_2_0_1,NA,NA,timeout,500.2,59237,59234.612,59251.2,59734.6,59735.899999976,2024-02-23T08:14:57Z,59751.4,Gelegenheit,wakati,d,mchanganyiko,kipaumbele,kushuku,NA,NA,0,NULL,NA,NA,NA,NA,NA,NA,NA,NA,NA,NA,NA,NA,NA,NA,NA,NA,NA,NA,NA
a9552,deep,flow.Sequence,1_2_0,NA,NA,completion,11350,48369.600000024,48367.9,48384.6,59734.6,59736.100000024,2024-02-23T08:14:57Z,59751.4,Gelegenheit,wakati,d,mchanganyiko,kipaumbele,kushuku,NA,NA,NA,NULL,NA,NA,NA,NA,NA,NA,NA,NA,NA,NA,NA,NA,NA,NA,NA,NA,NA,NA,NA
a9552,task,flow.Sequence,1_2,NA,NA,completion,11350,48369.5,48367.9,48384.6,59734.6,59736.399999976,2024-02-23T08:14:57Z,59751.4,Gelegenheit,wakati,d,mchanganyiko,kipaumbele,kushuku,NA,NA,NA,NULL,NA,NA,NA,NA,NA,NA,NA,NA,NA,NA,NA,NA,NA,NA,NA,NA,NA,NA,NA
a9552,Deep Question,html.Page,1_3_0_0,NA,NA,form submission,13406.499999976,59736.5,59734.6,59751.4,73157.899999976,73158,2024-02-23T08:15:10Z,73167.8,Zuwachs,nyongeza,s,matilaba,udhibiti,hudhurio,mosono,NA,NA,NULL,NA,NA,NA,NA,NA,NA,NA,NA,NA,NA,NA,NA,NA,NA,NA,NA,NA,NA,NA
a9552,Save data screen,canvas.Screen,1_3_0_1,NA,NA,timeout,500.09999999999,73159,73151.284,73167.8,73651.2,73652.100000024,2024-02-23T08:15:11Z,73667.9,Zuwachs,nyongeza,s,matilaba,udhibiti,hudhurio,NA,NA,0,NULL,NA,NA,NA,NA,NA,NA,NA,NA,NA,NA,NA,NA,NA,NA,NA,NA,NA,NA,NA
a9552,deep,flow.Sequence,1_3_0,NA,NA,completion,13899.8,59736.5,59734.6,59751.4,73651.2,73652.399999976,2024-02-23T08:15:11Z,73667.9,Zuwachs,nyongeza,s,matilaba,udhibiti,hudhurio,NA,NA,NA,NULL,NA,NA,NA,NA,NA,NA,NA,NA,NA,NA,NA,NA,NA,NA,NA,NA,NA,NA,NA
a9552,task,flow.Sequence,1_3,NA,NA,completion,13899.8,59736.5,59734.6,59751.4,73651.2,73652.5,2024-02-23T08:15:11Z,73667.9,Zuwachs,nyongeza,s,matilaba,udhibiti,hudhurio,NA,NA,NA,NULL,NA,NA,NA,NA,NA,NA,NA,NA,NA,NA,NA,NA,NA,NA,NA,NA,NA,NA,NA
a9552,Deep Question,html.Page,1_4_0_0,NA,NA,form submission,19663.499999976,73652.700000048,73651.2,73667.9,93331.399999976,93331.600000024,2024-02-23T08:15:31Z,93334.4,Konkurrent,mshindani,d,msemaji,mvutaji,kipukusa,udhanifu,NA,NA,NULL,NA,NA,NA,NA,NA,NA,NA,NA,NA,NA,NA,NA,NA,NA,NA,NA,NA,NA,NA
a9552,Save data screen,canvas.Screen,1_4_0_1,NA,NA,timeout,500.20000000001,93333,93317.914,93334.4,93817.9,93818.799999952,2024-02-23T08:15:31Z,93834.6,Konkurrent,mshindani,d,msemaji,mvutaji,kipukusa,NA,NA,0,NULL,NA,NA,NA,NA,NA,NA,NA,NA,NA,NA,NA,NA,NA,NA,NA,NA,NA,NA,NA
a9552,deep,flow.Sequence,1_4_0,NA,NA,completion,20150,73652.600000024,73651.2,73667.9,93817.9,93819,2024-02-23T08:15:31Z,93834.6,Konkurrent,mshindani,d,msemaji,mvutaji,kipukusa,NA,NA,NA,NULL,NA,NA,NA,NA,NA,NA,NA,NA,NA,NA,NA,NA,NA,NA,NA,NA,NA,NA,NA
a9552,task,flow.Sequence,1_4,NA,NA,completion,20150,73652.600000024,73651.2,73667.9,93817.9,93819.100000024,2024-02-23T08:15:31Z,93834.6,Konkurrent,mshindani,d,msemaji,mvutaji,kipukusa,NA,NA,NA,NULL,NA,NA,NA,NA,NA,NA,NA,NA,NA,NA,NA,NA,NA,NA,NA,NA,NA,NA,NA
a9552,Deep Question,html.Page,1_5_0_0,NA,NA,form submission,12441.000000024,93819.299999952,93817.9,93834.6,106275.60000002,106275.79999995,2024-02-23T08:15:43Z,106284.4,Auftrag,uagizaji,d,ghanima,kuzingatia,msukani,waka,NA,NA,NULL,NA,NA,NA,NA,NA,NA,NA,NA,NA,NA,NA,NA,NA,NA,NA,NA,NA,NA,NA
a9552,Save data screen,canvas.Screen,1_5_0_1,NA,NA,timeout,500.10000000001,106276.89999998,106267.994,106284.4,106767.8,106768.89999998,2024-02-23T08:15:44Z,106784.5,Auftrag,uagizaji,d,ghanima,kuzingatia,msukani,NA,NA,0,NULL,NA,NA,NA,NA,NA,NA,NA,NA,NA,NA,NA,NA,NA,NA,NA,NA,NA,NA,NA
a9552,deep,flow.Sequence,1_5_0,NA,NA,completion,12933.2,93819.299999952,93817.9,93834.6,106767.8,106769.10000002,2024-02-23T08:15:44Z,106784.5,Auftrag,uagizaji,d,ghanima,kuzingatia,msukani,NA,NA,NA,NULL,NA,NA,NA,NA,NA,NA,NA,NA,NA,NA,NA,NA,NA,NA,NA,NA,NA,NA,NA
a9552,task,flow.Sequence,1_5,NA,NA,completion,12933.2,93819.200000048,93817.9,93834.6,106767.8,106769.29999995,2024-02-23T08:15:44Z,106784.5,Auftrag,uagizaji,d,ghanima,kuzingatia,msukani,NA,NA,NA,NULL,NA,NA,NA,NA,NA,NA,NA,NA,NA,NA,NA,NA,NA,NA,NA,NA,NA,NA,NA
a9552,Deep Question,html.Page,1_6_0_0,NA,NA,form submission,11603.799999952,106769.39999998,106767.8,106784.5,118388.29999995,118388.39999998,2024-02-23T08:15:56Z,118401.1,Vorsorge,tahadhari,d,ufafanuzi,makini,mashambani,tahadhari,NA,NA,NULL,NA,NA,NA,NA,NA,NA,NA,NA,NA,NA,NA,NA,NA,NA,NA,NA,NA,NA,NA
a9552,Save data screen,canvas.Screen,1_6_0_1,NA,NA,timeout,500.09999999999,118389.29999995,118384.582,118401.1,118884.5,118885.60000002,2024-02-23T08:15:56Z,118901.2,Vorsorge,tahadhari,d,ufafanuzi,makini,mashambani,NA,NA,1,NULL,NA,NA,NA,NA,NA,NA,NA,NA,NA,NA,NA,NA,NA,NA,NA,NA,NA,NA,NA
a9552,deep,flow.Sequence,1_6_0,NA,NA,completion,12100,106769.39999998,106767.8,106784.5,118884.5,118885.89999998,2024-02-23T08:15:56Z,118901.2,Vorsorge,tahadhari,d,ufafanuzi,makini,mashambani,NA,NA,NA,NULL,NA,NA,NA,NA,NA,NA,NA,NA,NA,NA,NA,NA,NA,NA,NA,NA,NA,NA,NA
a9552,task,flow.Sequence,1_6,NA,NA,completion,12100,106769.29999995,106767.8,106784.5,118884.5,118886.10000002,2024-02-23T08:15:56Z,118901.2,Vorsorge,tahadhari,d,ufafanuzi,makini,mashambani,NA,NA,NA,NULL,NA,NA,NA,NA,NA,NA,NA,NA,NA,NA,NA,NA,NA,NA,NA,NA,NA,NA,NA
a9552,Deep Question,html.Page,1_7_0_0,NA,NA,form submission,17278.099999952,118886.29999995,118884.5,118901.2,136179.29999995,136179.39999998,2024-02-23T08:16:13Z,136184.4,Polizist,msongora,d,simanzi,mandhari,nidhamu,msongora,NA,NA,NULL,NA,NA,NA,NA,NA,NA,NA,NA,NA,NA,NA,NA,NA,NA,NA,NA,NA,NA,NA
a9552,Save data screen,canvas.Screen,1_7_0_1,NA,NA,timeout,500.20000000001,136181,136167.884,136184.4,136667.9,136669.10000002,2024-02-23T08:16:14Z,136684.6,Polizist,msongora,d,simanzi,mandhari,nidhamu,NA,NA,1,NULL,NA,NA,NA,NA,NA,NA,NA,NA,NA,NA,NA,NA,NA,NA,NA,NA,NA,NA,NA
a9552,deep,flow.Sequence,1_7_0,NA,NA,completion,17766.7,118886.29999995,118884.5,118901.2,136667.9,136669.39999998,2024-02-23T08:16:14Z,136684.6,Polizist,msongora,d,simanzi,mandhari,nidhamu,NA,NA,NA,NULL,NA,NA,NA,NA,NA,NA,NA,NA,NA,NA,NA,NA,NA,NA,NA,NA,NA,NA,NA
a9552,task,flow.Sequence,1_7,NA,NA,completion,17766.7,118886.20000005,118884.5,118901.2,136667.9,136669.5,2024-02-23T08:16:14Z,136684.6,Polizist,msongora,d,simanzi,mandhari,nidhamu,NA,NA,NA,NULL,NA,NA,NA,NA,NA,NA,NA,NA,NA,NA,NA,NA,NA,NA,NA,NA,NA,NA,NA
a9552,Deep Question,html.Page,1_8_0_0,NA,NA,form submission,10583.100000048,136669.70000005,136667.9,136684.6,147267.70000005,147267.79999995,2024-02-23T08:16:24Z,147284.5,Annäherung,maegesho,s,madahili,kujiamini,mapendekezo,uagizaj,NA,NA,NULL,NA,NA,NA,NA,NA,NA,NA,NA,NA,NA,NA,NA,NA,NA,NA,NA,NA,NA,NA
a9552,Save data screen,canvas.Screen,1_8_0_1,NA,NA,timeout,500.10000000001,147269.20000005,147267.966,147284.5,147767.9,147768.5,2024-02-23T08:16:25Z,147784.6,Annäherung,maegesho,s,madahili,kujiamini,mapendekezo,NA,NA,0,NULL,NA,NA,NA,NA,NA,NA,NA,NA,NA,NA,NA,NA,NA,NA,NA,NA,NA,NA,NA
a9552,deep,flow.Sequence,1_8_0,NA,NA,completion,11083.3,136669.60000002,136667.9,136684.6,147767.9,147768.70000005,2024-02-23T08:16:25Z,147784.6,Annäherung,maegesho,s,madahili,kujiamini,mapendekezo,NA,NA,NA,NULL,NA,NA,NA,NA,NA,NA,NA,NA,NA,NA,NA,NA,NA,NA,NA,NA,NA,NA,NA
a9552,task,flow.Sequence,1_8,NA,NA,completion,11083.3,136669.60000002,136667.9,136684.6,147767.9,147768.89999998,2024-02-23T08:16:25Z,147784.6,Annäherung,maegesho,s,madahili,kujiamini,mapendekezo,NA,NA,NA,NULL,NA,NA,NA,NA,NA,NA,NA,NA,NA,NA,NA,NA,NA,NA,NA,NA,NA,NA,NA
a9552,Deep Question,html.Page,1_9_0_0,NA,NA,form submission,9146.6000000477,147768.89999998,147767.9,147784.6,156931.20000005,156931.39999998,2024-02-23T08:16:34Z,156934.3,Widerstand,usulubu,s,kusababisha,mwalimu,mwenendo,mata,NA,NA,NULL,NA,NA,NA,NA,NA,NA,NA,NA,NA,NA,NA,NA,NA,NA,NA,NA,NA,NA,NA
a9552,Save data screen,canvas.Screen,1_9_0_1,NA,NA,timeout,500.20000000001,156932.5,156917.96,156934.3,157418,157418.70000005,2024-02-23T08:16:35Z,157434.5,Widerstand,usulubu,s,kusababisha,mwalimu,mwenendo,NA,NA,0,NULL,NA,NA,NA,NA,NA,NA,NA,NA,NA,NA,NA,NA,NA,NA,NA,NA,NA,NA,NA
a9552,deep,flow.Sequence,1_9_0,NA,NA,completion,9633.4,147768.89999998,147767.9,147784.6,157418,157418.89999998,2024-02-23T08:16:35Z,157434.5,Widerstand,usulubu,s,kusababisha,mwalimu,mwenendo,NA,NA,NA,NULL,NA,NA,NA,NA,NA,NA,NA,NA,NA,NA,NA,NA,NA,NA,NA,NA,NA,NA,NA
a9552,task,flow.Sequence,1_9,NA,NA,completion,9633.4,147768.89999998,147767.9,147784.6,157418,157419.10000002,2024-02-23T08:16:35Z,157434.5,Widerstand,usulubu,s,kusababisha,mwalimu,mwenendo,NA,NA,NA,NULL,NA,NA,NA,NA,NA,NA,NA,NA,NA,NA,NA,NA,NA,NA,NA,NA,NA,NA,NA
a9552,Deep Question,html.Page,1_10_0_0,NA,NA,form submission,7288.7000000477,157419.29999995,157418,157434.5,164723.20000005,164723.29999995,2024-02-23T08:16:42Z,164734.4,Verstand,ufahamivu,s,shakawa,hadhari,mhandisi,wakati,NA,NA,NULL,NA,NA,NA,NA,NA,NA,NA,NA,NA,NA,NA,NA,NA,NA,NA,NA,NA,NA,NA
a9552,Save data screen,canvas.Screen,1_10_0_1,NA,NA,timeout,500.20000000001,164724.79999995,164718.002,164734.4,165217.9,165219.10000002,2024-02-23T08:16:42Z,165234.6,Verstand,ufahamivu,s,shakawa,hadhari,mhandisi,NA,NA,0,NULL,NA,NA,NA,NA,NA,NA,NA,NA,NA,NA,NA,NA,NA,NA,NA,NA,NA,NA,NA
a9552,deep,flow.Sequence,1_10_0,NA,NA,completion,7783.4,157419.29999995,157418,157434.5,165217.9,165219.29999995,2024-02-23T08:16:42Z,165234.6,Verstand,ufahamivu,s,shakawa,hadhari,mhandisi,NA,NA,NA,NULL,NA,NA,NA,NA,NA,NA,NA,NA,NA,NA,NA,NA,NA,NA,NA,NA,NA,NA,NA
a9552,task,flow.Sequence,1_10,NA,NA,completion,7783.4,157419.20000005,157418,157434.5,165217.9,165219.39999998,2024-02-23T08:16:42Z,165234.6,Verstand,ufahamivu,s,shakawa,hadhari,mhandisi,NA,NA,NA,NULL,NA,NA,NA,NA,NA,NA,NA,NA,NA,NA,NA,NA,NA,NA,NA,NA,NA,NA,NA
a9552,Deep Question,html.Page,1_11_0_0,NA,NA,form submission,13488.500000024,165219.60000002,165217.9,165234.6,178723.10000002,178723.20000005,2024-02-23T08:16:56Z,178734.4,Wettbewerb,ushindani,d,mapendezi,kichocheo,ubaguzi,mwanafunzi,NA,NA,NULL,NA,NA,NA,NA,NA,NA,NA,NA,NA,NA,NA,NA,NA,NA,NA,NA,NA,NA,NA
a9552,Save data screen,canvas.Screen,1_11_0_1,NA,NA,timeout,500.20000000001,178724.70000005,178717.922,178734.4,179217.8,179218.79999995,2024-02-23T08:16:56Z,179234.6,Wettbewerb,ushindani,d,mapendezi,kichocheo,ubaguzi,NA,NA,0,NULL,NA,NA,NA,NA,NA,NA,NA,NA,NA,NA,NA,NA,NA,NA,NA,NA,NA,NA,NA
a9552,deep,flow.Sequence,1_11_0,NA,NA,completion,13983.2,165219.60000002,165217.9,165234.6,179217.8,179219,2024-02-23T08:16:56Z,179234.6,Wettbewerb,ushindani,d,mapendezi,kichocheo,ubaguzi,NA,NA,NA,NULL,NA,NA,NA,NA,NA,NA,NA,NA,NA,NA,NA,NA,NA,NA,NA,NA,NA,NA,NA
a9552,task,flow.Sequence,1_11,NA,NA,completion,13983.2,165219.5,165217.9,165234.6,179217.8,179219.20000005,2024-02-23T08:16:56Z,179234.6,Wettbewerb,ushindani,d,mapendezi,kichocheo,ubaguzi,NA,NA,NA,NULL,NA,NA,NA,NA,NA,NA,NA,NA,NA,NA,NA,NA,NA,NA,NA,NA,NA,NA,NA
a9552,Deep Question,html.Page,1_12_0_0,NA,NA,form submission,3920.9,179219.29999995,179217.8,179234.6,183155.5,183155.60000002,2024-02-23T08:17:00Z,183167.7,Ausschluss,kutengwa,d,ununuzi,taratibu,madeni,ka,NA,NA,NULL,NA,NA,NA,NA,NA,NA,NA,NA,NA,NA,NA,NA,NA,NA,NA,NA,NA,NA,NA
a9552,Save data screen,canvas.Screen,1_12_0_1,NA,NA,timeout,500.09999999998,183157,183151.256,183167.7,183651.2,183651.89999998,2024-02-23T08:17:01Z,183667.8,Ausschluss,kutengwa,d,ununuzi,taratibu,madeni,NA,NA,0,NULL,NA,NA,NA,NA,NA,NA,NA,NA,NA,NA,NA,NA,NA,NA,NA,NA,NA,NA,NA
a9552,deep,flow.Sequence,1_12_0,NA,NA,completion,4416.6,179219.29999995,179217.8,179234.6,183651.2,183652.20000005,2024-02-23T08:17:01Z,183667.8,Ausschluss,kutengwa,d,ununuzi,taratibu,madeni,NA,NA,NA,NULL,NA,NA,NA,NA,NA,NA,NA,NA,NA,NA,NA,NA,NA,NA,NA,NA,NA,NA,NA
a9552,task,flow.Sequence,1_12,NA,NA,completion,4416.6,179219.20000005,179217.8,179234.6,183651.2,183652.29999995,2024-02-23T08:17:01Z,183667.8,Ausschluss,kutengwa,d,ununuzi,taratibu,madeni,NA,NA,NA,NULL,NA,NA,NA,NA,NA,NA,NA,NA,NA,NA,NA,NA,NA,NA,NA,NA,NA,NA,NA
a9552,Deep Question,html.Page,1_13_0_0,NA,NA,form submission,6623.4000000477,183652.5,183651.2,183667.8,190291.20000005,190291.29999995,2024-02-23T08:17:08Z,190301.1,Sympathie,mapendano,s,dhamiria,fungamano,maazimio,longi,NA,NA,NULL,NA,NA,NA,NA,NA,NA,NA,NA,NA,NA,NA,NA,NA,NA,NA,NA,NA,NA,NA
a9552,Save data screen,canvas.Screen,1_13_0_1,NA,NA,timeout,500.19999999998,190292.79999995,190284.668,190301.1,190784.5,190785.5,2024-02-23T08:17:08Z,190801.3,Sympathie,mapendano,s,dhamiria,fungamano,maazimio,NA,NA,0,NULL,NA,NA,NA,NA,NA,NA,NA,NA,NA,NA,NA,NA,NA,NA,NA,NA,NA,NA,NA
a9552,deep,flow.Sequence,1_13_0,NA,NA,completion,7116.7,183652.5,183651.2,183667.8,190784.5,190785.79999995,2024-02-23T08:17:08Z,190801.3,Sympathie,mapendano,s,dhamiria,fungamano,maazimio,NA,NA,NA,NULL,NA,NA,NA,NA,NA,NA,NA,NA,NA,NA,NA,NA,NA,NA,NA,NA,NA,NA,NA
a9552,task,flow.Sequence,1_13,NA,NA,completion,7116.7,183652.39999998,183651.2,183667.8,190784.5,190785.89999998,2024-02-23T08:17:08Z,190801.3,Sympathie,mapendano,s,dhamiria,fungamano,maazimio,NA,NA,NA,NULL,NA,NA,NA,NA,NA,NA,NA,NA,NA,NA,NA,NA,NA,NA,NA,NA,NA,NA,NA
a9552,Deep Question,html.Page,1_14_0_0,NA,NA,form submission,10322.300000024,190786.10000002,190784.5,190801.3,201123.60000002,201123.79999995,2024-02-23T08:17:18Z,201134.4,Beweis,ushahidi,d,marudio,kizuizi,mtendaji,yaliyomo,NA,NA,NULL,NA,NA,NA,NA,NA,NA,NA,NA,NA,NA,NA,NA,NA,NA,NA,NA,NA,NA,NA
a9552,Save data screen,canvas.Screen,1_14_0_1,NA,NA,timeout,500.20000000001,201125.20000005,201117.9,201134.4,201617.8,201618.89999998,2024-02-23T08:17:19Z,201634.6,Beweis,ushahidi,d,marudio,kizuizi,mtendaji,NA,NA,0,NULL,NA,NA,NA,NA,NA,NA,NA,NA,NA,NA,NA,NA,NA,NA,NA,NA,NA,NA,NA
a9552,deep,flow.Sequence,1_14_0,NA,NA,completion,10816.5,190786.10000002,190784.5,190801.3,201617.8,201619.10000002,2024-02-23T08:17:19Z,201634.6,Beweis,ushahidi,d,marudio,kizuizi,mtendaji,NA,NA,NA,NULL,NA,NA,NA,NA,NA,NA,NA,NA,NA,NA,NA,NA,NA,NA,NA,NA,NA,NA,NA
a9552,task,flow.Sequence,1_14,NA,NA,completion,10816.5,190786.10000002,190784.5,190801.3,201617.8,201619.20000005,2024-02-23T08:17:19Z,201634.6,Beweis,ushahidi,d,marudio,kizuizi,mtendaji,NA,NA,NA,NULL,NA,NA,NA,NA,NA,NA,NA,NA,NA,NA,NA,NA,NA,NA,NA,NA,NA,NA,NA
a9552,Deep Question,html.Page,1_15_0_0,NA,NA,form submission,23185.100000048,201619.5,201617.8,201634.6,224819.70000005,224819.79999995,2024-02-23T08:17:42Z,224834.5,Schönheit,kirembo,s,mahojiano,msisimko,jitihadi,tenedero,NA,NA,NULL,NA,NA,NA,NA,NA,NA,NA,NA,NA,NA,NA,NA,NA,NA,NA,NA,NA,NA,NA
a9552,Save data screen,canvas.Screen,1_15_0_1,NA,NA,timeout,500,224821.20000005,224817.884,224834.5,225317.7,225318.60000002,2024-02-23T08:17:43Z,225334.5,Schönheit,kirembo,s,mahojiano,msisimko,jitihadi,NA,NA,0,NULL,NA,NA,NA,NA,NA,NA,NA,NA,NA,NA,NA,NA,NA,NA,NA,NA,NA,NA,NA
a9552,deep,flow.Sequence,1_15_0,NA,NA,completion,23683.1,201619.39999998,201617.8,201634.6,225317.7,225318.79999995,2024-02-23T08:17:43Z,225334.5,Schönheit,kirembo,s,mahojiano,msisimko,jitihadi,NA,NA,NA,NULL,NA,NA,NA,NA,NA,NA,NA,NA,NA,NA,NA,NA,NA,NA,NA,NA,NA,NA,NA
a9552,task,flow.Sequence,1_15,NA,NA,completion,23683.1,201619.39999998,201617.8,201634.6,225317.7,225318.89999998,2024-02-23T08:17:43Z,225334.5,Schönheit,kirembo,s,mahojiano,msisimko,jitihadi,NA,NA,NA,NULL,NA,NA,NA,NA,NA,NA,NA,NA,NA,NA,NA,NA,NA,NA,NA,NA,NA,NA,NA
a9552,retrieval block 1 (cued recall),flow.Loop,1,NA,NA,completion,223283.3,2022.7000000477,2018.046,2034.4,225317.7,225319.10000002,2024-02-23T08:17:43Z,225334.5,NA,NA,NA,NA,NA,NA,NA,NA,NA,NULL,NA,NA,NA,NA,NA,NA,NA,NA,NA,NA,NA,NA,NA,NA,NA,NA,NA,NA,NA
a9552,Shallow Question,html.Page,2_0_0_0,NA,NA,form submission,5004.7000000477,225319.20000005,225317.7,225334.5,230339.20000005,230339.29999995,2024-02-23T08:17:48Z,230351.2,Schönheit,kirembo,s,mahojiano,msisimko,jitihadi,kirembo,NA,NA,"c(""distractor1"", ""distractor2"", ""distractor3"")",NA,NA,NA,NA,NA,NA,NA,NA,NA,NA,NA,NA,NA,NA,NA,NA,NA,NA,NA
a9552,Save data screen,canvas.Screen,2_0_0_1,NA,NA,timeout,500,230340.79999995,230334.618,230351.2,230834.5,230836.20000005,2024-02-23T08:17:48Z,230851.2,Schönheit,kirembo,s,mahojiano,msisimko,jitihadi,NA,NA,1,"c(""distractor1"", ""distractor2"", ""distractor3"")",NA,NA,NA,NA,NA,NA,NA,NA,NA,NA,NA,NA,NA,NA,NA,NA,NA,NA,NA
a9552,shallow,flow.Sequence,2_0_0,NA,NA,completion,5500,225319.20000005,225317.7,225334.5,230834.5,230836.39999998,2024-02-23T08:17:48Z,230851.2,Schönheit,kirembo,s,mahojiano,msisimko,jitihadi,NA,NA,NA,"c(""distractor1"", ""distractor2"", ""distractor3"")",NA,NA,NA,NA,NA,NA,NA,NA,NA,NA,NA,NA,NA,NA,NA,NA,NA,NA,NA
a9552,task,flow.Sequence,2_0,NA,NA,completion,5500,225319.10000002,225317.7,225334.5,230834.5,230836.5,2024-02-23T08:17:48Z,230851.2,Schönheit,kirembo,s,mahojiano,msisimko,jitihadi,NA,NA,NA,"c(""distractor1"", ""distractor2"", ""distractor3"")",NA,NA,NA,NA,NA,NA,NA,NA,NA,NA,NA,NA,NA,NA,NA,NA,NA,NA,NA
a9552,Shallow Question,html.Page,2_1_0_0,NA,NA,form submission,4305.9000000238,230836.5,230834.5,230851.2,235157.10000002,235157.20000005,2024-02-23T08:17:52Z,235167.8,Auftrag,uagizaji,d,ghanima,kuzingatia,msukani,uagizaji,NA,NA,"c(""distractor1"", ""distractor2"", ""distractor3"")",NA,NA,NA,NA,NA,NA,NA,NA,NA,NA,NA,NA,NA,NA,NA,NA,NA,NA,NA
a9552,Save data screen,canvas.Screen,2_1_0_1,NA,NA,timeout,500,235158,235151.31,235167.8,235651.1,235652.29999995,2024-02-23T08:17:53Z,235667.8,Auftrag,uagizaji,d,ghanima,kuzingatia,msukani,NA,NA,1,"c(""distractor1"", ""distractor2"", ""distractor3"")",NA,NA,NA,NA,NA,NA,NA,NA,NA,NA,NA,NA,NA,NA,NA,NA,NA,NA,NA
a9552,shallow,flow.Sequence,2_1_0,NA,NA,completion,4799.9,230836.5,230834.5,230851.2,235651.1,235652.39999998,2024-02-23T08:17:53Z,235667.8,Auftrag,uagizaji,d,ghanima,kuzingatia,msukani,NA,NA,NA,"c(""distractor1"", ""distractor2"", ""distractor3"")",NA,NA,NA,NA,NA,NA,NA,NA,NA,NA,NA,NA,NA,NA,NA,NA,NA,NA,NA
a9552,task,flow.Sequence,2_1,NA,NA,completion,4799.9,230836.5,230834.5,230851.2,235651.1,235652.60000002,2024-02-23T08:17:53Z,235667.8,Auftrag,uagizaji,d,ghanima,kuzingatia,msukani,NA,NA,NA,"c(""distractor1"", ""distractor2"", ""distractor3"")",NA,NA,NA,NA,NA,NA,NA,NA,NA,NA,NA,NA,NA,NA,NA,NA,NA,NA,NA
a9552,Shallow Question,html.Page,2_2_0_0,NA,NA,form submission,6271.3000000239,235652.79999995,235651.1,235667.8,241939.10000002,241939.20000005,2024-02-23T08:17:59Z,241951.1,Konkurrent,mshindani,d,msemaji,mvutaji,kipukusa,mshindani,NA,NA,"c(""distractor1"", ""distractor2"", ""distractor3"")",NA,NA,NA,NA,NA,NA,NA,NA,NA,NA,NA,NA,NA,NA,NA,NA,NA,NA,NA
a9552,Save data screen,canvas.Screen,2_2_0_1,NA,NA,timeout,500.10000000001,241940.5,241934.562,241951.1,242434.4,242436.5,2024-02-23T08:18:00Z,242451.2,Konkurrent,mshindani,d,msemaji,mvutaji,kipukusa,NA,NA,1,"c(""distractor1"", ""distractor2"", ""distractor3"")",NA,NA,NA,NA,NA,NA,NA,NA,NA,NA,NA,NA,NA,NA,NA,NA,NA,NA,NA
a9552,shallow,flow.Sequence,2_2_0,NA,NA,completion,6766.6,235652.70000005,235651.1,235667.8,242434.4,242436.79999995,2024-02-23T08:18:00Z,242451.2,Konkurrent,mshindani,d,msemaji,mvutaji,kipukusa,NA,NA,NA,"c(""distractor1"", ""distractor2"", ""distractor3"")",NA,NA,NA,NA,NA,NA,NA,NA,NA,NA,NA,NA,NA,NA,NA,NA,NA,NA,NA
a9552,task,flow.Sequence,2_2,NA,NA,completion,6766.6,235652.70000005,235651.1,235667.8,242434.4,242437,2024-02-23T08:18:00Z,242451.2,Konkurrent,mshindani,d,msemaji,mvutaji,kipukusa,NA,NA,NA,"c(""distractor1"", ""distractor2"", ""distractor3"")",NA,NA,NA,NA,NA,NA,NA,NA,NA,NA,NA,NA,NA,NA,NA,NA,NA,NA,NA
a9552,Shallow Question,html.Page,2_3_0_0,NA,NA,form submission,5255.9000000238,242437.10000002,242434.4,242451.2,247707.10000002,247707.20000005,2024-02-23T08:18:05Z,247717.9,Annäherung,maegesho,s,madahili,kujiamini,mapendekezo,maegesho,NA,NA,"c(""distractor1"", ""distractor2"", ""distractor3"")",NA,NA,NA,NA,NA,NA,NA,NA,NA,NA,NA,NA,NA,NA,NA,NA,NA,NA,NA
a9552,Save data screen,canvas.Screen,2_3_0_1,NA,NA,timeout,499.80000000002,247708.60000002,247701.336,247717.9,248201.2,248202.89999998,2024-02-23T08:18:05Z,248217.7,Annäherung,maegesho,s,madahili,kujiamini,mapendekezo,NA,NA,1,"c(""distractor1"", ""distractor2"", ""distractor3"")",NA,NA,NA,NA,NA,NA,NA,NA,NA,NA,NA,NA,NA,NA,NA,NA,NA,NA,NA
a9552,shallow,flow.Sequence,2_3_0,NA,NA,completion,5750,242437,242434.4,242451.2,248201.2,248203.10000002,2024-02-23T08:18:05Z,248217.7,Annäherung,maegesho,s,madahili,kujiamini,mapendekezo,NA,NA,NA,"c(""distractor1"", ""distractor2"", ""distractor3"")",NA,NA,NA,NA,NA,NA,NA,NA,NA,NA,NA,NA,NA,NA,NA,NA,NA,NA,NA
a9552,task,flow.Sequence,2_3,NA,NA,completion,5750,242437,242434.4,242451.2,248201.2,248203.20000005,2024-02-23T08:18:05Z,248217.7,Annäherung,maegesho,s,madahili,kujiamini,mapendekezo,NA,NA,NA,"c(""distractor1"", ""distractor2"", ""distractor3"")",NA,NA,NA,NA,NA,NA,NA,NA,NA,NA,NA,NA,NA,NA,NA,NA,NA,NA,NA
a9552,Shallow Question,html.Page,2_4_0_0,NA,NA,form submission,10113.400000024,248203.39999998,248201.2,248217.7,258331.10000002,258331.10000002,2024-02-23T08:18:16Z,258334.4,Ausschluss,kutengwa,d,ununuzi,taratibu,madeni,ununuzi,NA,NA,"c(""distractor1"", ""distractor2"", ""distractor3"")",NA,NA,NA,NA,NA,NA,NA,NA,NA,NA,NA,NA,NA,NA,NA,NA,NA,NA,NA
a9552,Save data screen,canvas.Screen,2_4_0_1,NA,NA,timeout,500.10000000001,258332.5,258317.916,258334.4,258817.9,258818.89999998,2024-02-23T08:18:16Z,258834.5,Ausschluss,kutengwa,d,ununuzi,taratibu,madeni,NA,NA,0,"c(""distractor1"", ""distractor2"", ""distractor3"")",NA,NA,NA,NA,NA,NA,NA,NA,NA,NA,NA,NA,NA,NA,NA,NA,NA,NA,NA
a9552,shallow,flow.Sequence,2_4_0,NA,NA,completion,10600.2,248203.29999995,248201.2,248217.7,258817.9,258819.20000005,2024-02-23T08:18:16Z,258834.5,Ausschluss,kutengwa,d,ununuzi,taratibu,madeni,NA,NA,NA,"c(""distractor1"", ""distractor2"", ""distractor3"")",NA,NA,NA,NA,NA,NA,NA,NA,NA,NA,NA,NA,NA,NA,NA,NA,NA,NA,NA
a9552,task,flow.Sequence,2_4,NA,NA,completion,10600.2,248203.20000005,248201.2,248217.7,258817.9,258819.29999995,2024-02-23T08:18:16Z,258834.5,Ausschluss,kutengwa,d,ununuzi,taratibu,madeni,NA,NA,NA,"c(""distractor1"", ""distractor2"", ""distractor3"")",NA,NA,NA,NA,NA,NA,NA,NA,NA,NA,NA,NA,NA,NA,NA,NA,NA,NA,NA
a9552,Shallow Question,html.Page,2_5_0_0,NA,NA,form submission,3016.2000000477,258819.39999998,258817.9,258834.5,261850.70000005,261850.79999995,2024-02-23T08:18:19Z,261851.23,Polizist,msongora,d,simanzi,mandhari,nidhamu,msongora,NA,NA,"c(""distractor1"", ""distractor2"", ""distractor3"")",NA,NA,NA,NA,NA,NA,NA,NA,NA,NA,NA,NA,NA,NA,NA,NA,NA,NA,NA
a9552,Save data screen,canvas.Screen,2_5_0_1,NA,NA,timeout,499.86999999997,261851.10000002,261851.23,261851.23,262334.4,262335.5,2024-02-23T08:18:20Z,262351.1,Polizist,msongora,d,simanzi,mandhari,nidhamu,NA,NA,1,"c(""distractor1"", ""distractor2"", ""distractor3"")",NA,NA,NA,NA,NA,NA,NA,NA,NA,NA,NA,NA,NA,NA,NA,NA,NA,NA,NA
a9552,shallow,flow.Sequence,2_5_0,NA,NA,completion,3499.9,258819.29999995,258817.9,258834.5,262334.4,262335.70000005,2024-02-23T08:18:20Z,262351.1,Polizist,msongora,d,simanzi,mandhari,nidhamu,NA,NA,NA,"c(""distractor1"", ""distractor2"", ""distractor3"")",NA,NA,NA,NA,NA,NA,NA,NA,NA,NA,NA,NA,NA,NA,NA,NA,NA,NA,NA
a9552,task,flow.Sequence,2_5,NA,NA,completion,3499.9,258819.29999995,258817.9,258834.5,262334.4,262335.70000005,2024-02-23T08:18:20Z,262351.1,Polizist,msongora,d,simanzi,mandhari,nidhamu,NA,NA,NA,"c(""distractor1"", ""distractor2"", ""distractor3"")",NA,NA,NA,NA,NA,NA,NA,NA,NA,NA,NA,NA,NA,NA,NA,NA,NA,NA,NA
a9552,Shallow Question,html.Page,2_6_0_0,NA,NA,form submission,6580.1000000477,262335.79999995,262334.4,262351.1,268931.20000005,268931.29999995,2024-02-23T08:18:26Z,268934.3,Beweis,ushahidi,d,marudio,kizuizi,mtendaji,ushahidi,NA,NA,"c(""distractor1"", ""distractor2"", ""distractor3"")",NA,NA,NA,NA,NA,NA,NA,NA,NA,NA,NA,NA,NA,NA,NA,NA,NA,NA,NA
a9552,Save data screen,canvas.Screen,2_6_0_1,NA,NA,timeout,500.29999999999,268932.79999995,268917.934,268934.3,269417.8,269418.70000005,2024-02-23T08:18:27Z,269434.6,Beweis,ushahidi,d,marudio,kizuizi,mtendaji,NA,NA,1,"c(""distractor1"", ""distractor2"", ""distractor3"")",NA,NA,NA,NA,NA,NA,NA,NA,NA,NA,NA,NA,NA,NA,NA,NA,NA,NA,NA
a9552,shallow,flow.Sequence,2_6_0,NA,NA,completion,7066.7,262335.79999995,262334.4,262351.1,269417.8,269418.89999998,2024-02-23T08:18:27Z,269434.6,Beweis,ushahidi,d,marudio,kizuizi,mtendaji,NA,NA,NA,"c(""distractor1"", ""distractor2"", ""distractor3"")",NA,NA,NA,NA,NA,NA,NA,NA,NA,NA,NA,NA,NA,NA,NA,NA,NA,NA,NA
a9552,task,flow.Sequence,2_6,NA,NA,completion,7066.7,262335.79999995,262334.4,262351.1,269417.8,269419.10000002,2024-02-23T08:18:27Z,269434.6,Beweis,ushahidi,d,marudio,kizuizi,mtendaji,NA,NA,NA,"c(""distractor1"", ""distractor2"", ""distractor3"")",NA,NA,NA,NA,NA,NA,NA,NA,NA,NA,NA,NA,NA,NA,NA,NA,NA,NA,NA
a9552,Shallow Question,html.Page,2_7_0_0,NA,NA,form submission,5360.2999999762,269419.20000005,269417.8,269434.6,274794.89999998,274795,2024-02-23T08:18:32Z,274801.3,Symbol,kielezo,s,kinyume,nderemo,utayari,kielezo,NA,NA,"c(""distractor1"", ""distractor2"", ""distractor3"")",NA,NA,NA,NA,NA,NA,NA,NA,NA,NA,NA,NA,NA,NA,NA,NA,NA,NA,NA
a9552,Save data screen,canvas.Screen,2_7_0_1,NA,NA,timeout,499.90000000002,274796.5,274784.6,274801.3,275284.5,275285.39999998,2024-02-23T08:18:33Z,275301.2,Symbol,kielezo,s,kinyume,nderemo,utayari,NA,NA,1,"c(""distractor1"", ""distractor2"", ""distractor3"")",NA,NA,NA,NA,NA,NA,NA,NA,NA,NA,NA,NA,NA,NA,NA,NA,NA,NA,NA
a9552,shallow,flow.Sequence,2_7_0,NA,NA,completion,5849.9,269419.20000005,269417.8,269434.6,275284.5,275285.70000005,2024-02-23T08:18:33Z,275301.2,Symbol,kielezo,s,kinyume,nderemo,utayari,NA,NA,NA,"c(""distractor1"", ""distractor2"", ""distractor3"")",NA,NA,NA,NA,NA,NA,NA,NA,NA,NA,NA,NA,NA,NA,NA,NA,NA,NA,NA
a9552,task,flow.Sequence,2_7,NA,NA,completion,5849.9,269419.20000005,269417.8,269434.6,275284.5,275285.89999998,2024-02-23T08:18:33Z,275301.2,Symbol,kielezo,s,kinyume,nderemo,utayari,NA,NA,NA,"c(""distractor1"", ""distractor2"", ""distractor3"")",NA,NA,NA,NA,NA,NA,NA,NA,NA,NA,NA,NA,NA,NA,NA,NA,NA,NA,NA
a9552,Shallow Question,html.Page,2_8_0_0,NA,NA,form submission,7381.8,275286,275284.5,275301.2,282683,282683.10000002,2024-02-23T08:18:40Z,282684.606,Sympathie,mapendano,s,dhamiria,fungamano,maazimio,mapendano,NA,NA,"c(""distractor1"", ""distractor2"", ""distractor3"")",NA,NA,NA,NA,NA,NA,NA,NA,NA,NA,NA,NA,NA,NA,NA,NA,NA,NA,NA
a9552,Save data screen,canvas.Screen,2_8_0_1,NA,NA,timeout,499.89399999997,282684.60000002,282684.606,282684.606,283167.8,283168.60000002,2024-02-23T08:18:40Z,283184.5,Sympathie,mapendano,s,dhamiria,fungamano,maazimio,NA,NA,1,"c(""distractor1"", ""distractor2"", ""distractor3"")",NA,NA,NA,NA,NA,NA,NA,NA,NA,NA,NA,NA,NA,NA,NA,NA,NA,NA,NA
a9552,shallow,flow.Sequence,2_8_0,NA,NA,completion,7866.6,275285.89999998,275284.5,275301.2,283167.8,283168.79999995,2024-02-23T08:18:40Z,283184.5,Sympathie,mapendano,s,dhamiria,fungamano,maazimio,NA,NA,NA,"c(""distractor1"", ""distractor2"", ""distractor3"")",NA,NA,NA,NA,NA,NA,NA,NA,NA,NA,NA,NA,NA,NA,NA,NA,NA,NA,NA
a9552,task,flow.Sequence,2_8,NA,NA,completion,7866.6,275285.89999998,275284.5,275301.2,283167.8,283168.79999995,2024-02-23T08:18:40Z,283184.5,Sympathie,mapendano,s,dhamiria,fungamano,maazimio,NA,NA,NA,"c(""distractor1"", ""distractor2"", ""distractor3"")",NA,NA,NA,NA,NA,NA,NA,NA,NA,NA,NA,NA,NA,NA,NA,NA,NA,NA,NA
a9552,Shallow Question,html.Page,2_9_0_0,NA,NA,form submission,6402.6000000238,283168.89999998,283167.8,283184.5,289587.10000002,289587.29999995,2024-02-23T08:18:47Z,289601.2,Widerstand,usulubu,s,kusababisha,mwalimu,mwenendo,usulubu,NA,NA,"c(""distractor1"", ""distractor2"", ""distractor3"")",NA,NA,NA,NA,NA,NA,NA,NA,NA,NA,NA,NA,NA,NA,NA,NA,NA,NA,NA
a9552,Save data screen,canvas.Screen,2_9_0_1,NA,NA,timeout,500.09999999998,289588.79999995,289584.58,289601.2,290084.5,290085.5,2024-02-23T08:18:47Z,290101.3,Widerstand,usulubu,s,kusababisha,mwalimu,mwenendo,NA,NA,1,"c(""distractor1"", ""distractor2"", ""distractor3"")",NA,NA,NA,NA,NA,NA,NA,NA,NA,NA,NA,NA,NA,NA,NA,NA,NA,NA,NA
a9552,shallow,flow.Sequence,2_9_0,NA,NA,completion,6900,283168.89999998,283167.8,283184.5,290084.5,290085.79999995,2024-02-23T08:18:47Z,290101.3,Widerstand,usulubu,s,kusababisha,mwalimu,mwenendo,NA,NA,NA,"c(""distractor1"", ""distractor2"", ""distractor3"")",NA,NA,NA,NA,NA,NA,NA,NA,NA,NA,NA,NA,NA,NA,NA,NA,NA,NA,NA
a9552,task,flow.Sequence,2_9,NA,NA,completion,6900,283168.79999995,283167.8,283184.5,290084.5,290085.89999998,2024-02-23T08:18:47Z,290101.3,Widerstand,usulubu,s,kusababisha,mwalimu,mwenendo,NA,NA,NA,"c(""distractor1"", ""distractor2"", ""distractor3"")",NA,NA,NA,NA,NA,NA,NA,NA,NA,NA,NA,NA,NA,NA,NA,NA,NA,NA,NA
a9552,Shallow Question,html.Page,2_10_0_0,NA,NA,form submission,6661.4999999523,290086.10000002,290084.5,290101.3,296762.79999995,296763,2024-02-23T08:18:54Z,296767.8,Zufall,kikuti,s,kukosekana,uchoraji,leseni,leseni,NA,NA,"c(""distractor1"", ""distractor2"", ""distractor3"")",NA,NA,NA,NA,NA,NA,NA,NA,NA,NA,NA,NA,NA,NA,NA,NA,NA,NA,NA
a9552,Save data screen,canvas.Screen,2_10_0_1,NA,NA,timeout,500,296764.20000005,296751.3,296767.8,297251.2,297252,2024-02-23T08:18:54Z,297267.8,Zufall,kikuti,s,kukosekana,uchoraji,leseni,NA,NA,0,"c(""distractor1"", ""distractor2"", ""distractor3"")",NA,NA,NA,NA,NA,NA,NA,NA,NA,NA,NA,NA,NA,NA,NA,NA,NA,NA,NA
a9552,shallow,flow.Sequence,2_10_0,NA,NA,completion,7149.9,290086,290084.5,290101.3,297251.2,297252.20000005,2024-02-23T08:18:54Z,297267.8,Zufall,kikuti,s,kukosekana,uchoraji,leseni,NA,NA,NA,"c(""distractor1"", ""distractor2"", ""distractor3"")",NA,NA,NA,NA,NA,NA,NA,NA,NA,NA,NA,NA,NA,NA,NA,NA,NA,NA,NA
a9552,task,flow.Sequence,2_10,NA,NA,completion,7149.9,290086,290084.5,290101.3,297251.2,297252.39999998,2024-02-23T08:18:54Z,297267.8,Zufall,kikuti,s,kukosekana,uchoraji,leseni,NA,NA,NA,"c(""distractor1"", ""distractor2"", ""distractor3"")",NA,NA,NA,NA,NA,NA,NA,NA,NA,NA,NA,NA,NA,NA,NA,NA,NA,NA,NA
a9552,Shallow Question,html.Page,2_11_0_0,NA,NA,form submission,8998.9000000477,297252.5,297251.2,297267.8,306266.70000005,306266.89999998,2024-02-23T08:19:03Z,306267.76,Wettbewerb,ushindani,d,mapendezi,kichocheo,ubaguzi,ushindani,NA,NA,"c(""distractor1"", ""distractor2"", ""distractor3"")",NA,NA,NA,NA,NA,NA,NA,NA,NA,NA,NA,NA,NA,NA,NA,NA,NA,NA,NA
a9552,Save data screen,canvas.Screen,2_11_0_1,NA,NA,timeout,499.94,306268,306267.76,306267.76,306751.2,306752.29999995,2024-02-23T08:19:04Z,306767.7,Wettbewerb,ushindani,d,mapendezi,kichocheo,ubaguzi,NA,NA,1,"c(""distractor1"", ""distractor2"", ""distractor3"")",NA,NA,NA,NA,NA,NA,NA,NA,NA,NA,NA,NA,NA,NA,NA,NA,NA,NA,NA
a9552,shallow,flow.Sequence,2_11_0,NA,NA,completion,9483.4,297252.39999998,297251.2,297267.8,306751.2,306752.60000002,2024-02-23T08:19:04Z,306767.7,Wettbewerb,ushindani,d,mapendezi,kichocheo,ubaguzi,NA,NA,NA,"c(""distractor1"", ""distractor2"", ""distractor3"")",NA,NA,NA,NA,NA,NA,NA,NA,NA,NA,NA,NA,NA,NA,NA,NA,NA,NA,NA
a9552,task,flow.Sequence,2_11,NA,NA,completion,9483.4,297252.39999998,297251.2,297267.8,306751.2,306752.70000005,2024-02-23T08:19:04Z,306767.7,Wettbewerb,ushindani,d,mapendezi,kichocheo,ubaguzi,NA,NA,NA,"c(""distractor1"", ""distractor2"", ""distractor3"")",NA,NA,NA,NA,NA,NA,NA,NA,NA,NA,NA,NA,NA,NA,NA,NA,NA,NA,NA
a9552,Shallow Question,html.Page,2_12_0_0,NA,NA,form submission,14507.199999976,306752.79999995,306751.2,306767.7,321274.89999998,321275.10000002,2024-02-23T08:19:18Z,321284.6,Vorsorge,tahadhari,d,ufafanuzi,makini,mashambani,tahadhari,NA,NA,"c(""distractor1"", ""distractor2"", ""distractor3"")",NA,NA,NA,NA,NA,NA,NA,NA,NA,NA,NA,NA,NA,NA,NA,NA,NA,NA,NA
a9552,Save data screen,canvas.Screen,2_12_0_1,NA,NA,timeout,500.40000000002,321276.5,321267.976,321284.6,321767.8,321768.79999995,2024-02-23T08:19:19Z,321785,Vorsorge,tahadhari,d,ufafanuzi,makini,mashambani,NA,NA,1,"c(""distractor1"", ""distractor2"", ""distractor3"")",NA,NA,NA,NA,NA,NA,NA,NA,NA,NA,NA,NA,NA,NA,NA,NA,NA,NA,NA
a9552,shallow,flow.Sequence,2_12_0,NA,NA,completion,15000.1,306752.79999995,306751.2,306767.7,321767.8,321769,2024-02-23T08:19:19Z,321785,Vorsorge,tahadhari,d,ufafanuzi,makini,mashambani,NA,NA,NA,"c(""distractor1"", ""distractor2"", ""distractor3"")",NA,NA,NA,NA,NA,NA,NA,NA,NA,NA,NA,NA,NA,NA,NA,NA,NA,NA,NA
a9552,task,flow.Sequence,2_12,NA,NA,completion,15000.1,306752.70000005,306751.2,306767.7,321767.8,321769.29999995,2024-02-23T08:19:19Z,321785,Vorsorge,tahadhari,d,ufafanuzi,makini,mashambani,NA,NA,NA,"c(""distractor1"", ""distractor2"", ""distractor3"")",NA,NA,NA,NA,NA,NA,NA,NA,NA,NA,NA,NA,NA,NA,NA,NA,NA,NA,NA
a9552,Shallow Question,html.Page,2_13_0_0,NA,NA,form submission,8906,321769.29999995,321767.8,321785,330691,330691.20000005,2024-02-23T08:19:28Z,330701.1,Verstand,ufahamivu,s,shakawa,hadhari,mhandisi,ufahamivu,NA,NA,"c(""distractor1"", ""distractor2"", ""distractor3"")",NA,NA,NA,NA,NA,NA,NA,NA,NA,NA,NA,NA,NA,NA,NA,NA,NA,NA,NA
a9552,Save data screen,canvas.Screen,2_13_0_1,NA,NA,timeout,500,330692.60000002,330684.596,330701.1,331184.3,331185,2024-02-23T08:19:28Z,331201.1,Verstand,ufahamivu,s,shakawa,hadhari,mhandisi,NA,NA,1,"c(""distractor1"", ""distractor2"", ""distractor3"")",NA,NA,NA,NA,NA,NA,NA,NA,NA,NA,NA,NA,NA,NA,NA,NA,NA,NA,NA
a9552,shallow,flow.Sequence,2_13_0,NA,NA,completion,9399.3,321769.29999995,321767.8,321785,331184.3,331185.10000002,2024-02-23T08:19:28Z,331201.1,Verstand,ufahamivu,s,shakawa,hadhari,mhandisi,NA,NA,NA,"c(""distractor1"", ""distractor2"", ""distractor3"")",NA,NA,NA,NA,NA,NA,NA,NA,NA,NA,NA,NA,NA,NA,NA,NA,NA,NA,NA
a9552,task,flow.Sequence,2_13,NA,NA,completion,9399.3,321769.29999995,321767.8,321785,331184.3,331185.29999995,2024-02-23T08:19:28Z,331201.1,Verstand,ufahamivu,s,shakawa,hadhari,mhandisi,NA,NA,NA,"c(""distractor1"", ""distractor2"", ""distractor3"")",NA,NA,NA,NA,NA,NA,NA,NA,NA,NA,NA,NA,NA,NA,NA,NA,NA,NA,NA
a9552,Shallow Question,html.Page,2_14_0_0,NA,NA,form submission,5450.0000000239,331185.39999998,331184.3,331201.1,336651.10000002,336651.20000005,2024-02-23T08:19:34Z,336668.7,Gelegenheit,wakati,d,mchanganyiko,kipaumbele,kushuku,wakati,NA,NA,"c(""distractor1"", ""distractor2"", ""distractor3"")",NA,NA,NA,NA,NA,NA,NA,NA,NA,NA,NA,NA,NA,NA,NA,NA,NA,NA,NA
a9552,Save data screen,canvas.Screen,2_14_0_1,NA,NA,timeout,499.09999999998,336652.70000005,336651.256,336668.7,337151.2,337152.29999995,2024-02-23T08:19:34Z,337167.8,Gelegenheit,wakati,d,mchanganyiko,kipaumbele,kushuku,NA,NA,1,"c(""distractor1"", ""distractor2"", ""distractor3"")",NA,NA,NA,NA,NA,NA,NA,NA,NA,NA,NA,NA,NA,NA,NA,NA,NA,NA,NA
a9552,shallow,flow.Sequence,2_14_0,NA,NA,completion,5950.1,331185.39999998,331184.3,331201.1,337151.2,337152.39999998,2024-02-23T08:19:34Z,337167.8,Gelegenheit,wakati,d,mchanganyiko,kipaumbele,kushuku,NA,NA,NA,"c(""distractor1"", ""distractor2"", ""distractor3"")",NA,NA,NA,NA,NA,NA,NA,NA,NA,NA,NA,NA,NA,NA,NA,NA,NA,NA,NA
a9552,task,flow.Sequence,2_14,NA,NA,completion,5950.1,331185.39999998,331184.3,331201.1,337151.2,337152.5,2024-02-23T08:19:34Z,337167.8,Gelegenheit,wakati,d,mchanganyiko,kipaumbele,kushuku,NA,NA,NA,"c(""distractor1"", ""distractor2"", ""distractor3"")",NA,NA,NA,NA,NA,NA,NA,NA,NA,NA,NA,NA,NA,NA,NA,NA,NA,NA,NA
a9552,Shallow Question,html.Page,2_15_0_0,NA,NA,form submission,5876.0999999762,337152.60000002,337151.2,337167.8,343043.89999998,343044,2024-02-23T08:19:40Z,343067.9,Zuwachs,nyongeza,s,matilaba,udhibiti,hudhurio,nyongeza,NA,NA,"c(""distractor1"", ""distractor2"", ""distractor3"")",NA,NA,NA,NA,NA,NA,NA,NA,NA,NA,NA,NA,NA,NA,NA,NA,NA,NA,NA
a9552,Save data screen,canvas.Screen,2_15_0_1,NA,NA,timeout,499.89999999997,343045,343051.256,343067.9,343551.1,343551.60000002,2024-02-23T08:19:41Z,343567.8,Zuwachs,nyongeza,s,matilaba,udhibiti,hudhurio,NA,NA,1,"c(""distractor1"", ""distractor2"", ""distractor3"")",NA,NA,NA,NA,NA,NA,NA,NA,NA,NA,NA,NA,NA,NA,NA,NA,NA,NA,NA
a9552,shallow,flow.Sequence,2_15_0,NA,NA,completion,6383.3,337152.5,337151.2,337167.8,343551.1,343551.60000002,2024-02-23T08:19:41Z,343567.8,Zuwachs,nyongeza,s,matilaba,udhibiti,hudhurio,NA,NA,NA,"c(""distractor1"", ""distractor2"", ""distractor3"")",NA,NA,NA,NA,NA,NA,NA,NA,NA,NA,NA,NA,NA,NA,NA,NA,NA,NA,NA
a9552,task,flow.Sequence,2_15,NA,NA,completion,6383.3,337152.5,337151.2,337167.8,343551.1,343551.70000005,2024-02-23T08:19:41Z,343567.8,Zuwachs,nyongeza,s,matilaba,udhibiti,hudhurio,NA,NA,NA,"c(""distractor1"", ""distractor2"", ""distractor3"")",NA,NA,NA,NA,NA,NA,NA,NA,NA,NA,NA,NA,NA,NA,NA,NA,NA,NA,NA
a9552,retrieval block 2 (multiple choice),flow.Loop,2,NA,NA,completion,118216.6,225319.10000002,225317.7,225334.5,343551.1,343551.70000005,2024-02-23T08:19:41Z,343567.8,NA,NA,NA,NA,NA,NA,NA,NA,NA,"c(""distractor1"", ""distractor2"", ""distractor3"")",NA,NA,NA,NA,NA,NA,NA,NA,NA,NA,NA,NA,NA,NA,NA,NA,NA,NA,NA
a9552,End,canvas.Screen,3,NA,keypress(Space),response,1907.0999999762,343551.79999995,343551.1,343567.8,345474.89999998,345476.10000002,2024-02-23T08:19:43Z,345484.6,NA,NA,NA,NA,NA,NA,NA,NA,NA,NULL,NA,NA,NA,NA,NA,NA,NA,NA,NA,NA,NA,NA,NA,NA,NA,NA,NA,NA,NA
a9552,root,flow.Sequence,NA,NA,NA,completion,345290.39999998,183.39999997616,117.9,184.5,345474.89999998,345476.70000005,2024-02-23T08:19:43Z,345484.6,NA,NA,NA,NA,NA,NA,NA,NA,NA,NULL,NA,NA,NA,NA,NA,NA,NA,NA,NA,NA,NA,NA,NA,NA,NA,NA,NA,NA,NA
