observation,sender,sender_type,sender_id,response,response_action,ended_on,duration,time_run,time_render,time_show,time_end,time_commit,timestamp,time_switch,url_vp,url_sess,meta_labjs_version,meta_location,meta_user_agent,meta_platform,meta_language,meta_locale,meta_time_zone,meta_timezone_offset,meta_screen_width,meta_screen_height,meta_scroll_width,meta_scroll_height,meta_window_inner_width,meta_window_inner_height,meta_device_pixel_ratio,meta_labjs_build_flavor,meta_labjs_build_commit,distractors,german,swahili,enc,distractor1,distractor2,distractor3,x,correct,x_2
5e5e9,Introduction general,canvas.Screen,0,weiter,keypress(q),response,22322.100000048,1184.7000000477,1874.4,1891.1,24213.200000048,24217.900000095,2024-04-01T09:30:05Z,24227.4,139,3,20.2.4,https://neurocog.fernuni.ch/studies/vweber/aberisha/encoding_immediate/index.html?vp=139&sess=3,"Mozilla/5.0 (Windows NT 10.0; Win64; x64) AppleWebKit/537.36 (KHTML, like Gecko) Chrome/123.0.0.0 Safari/537.36",Win32,de-DE,de,Europe/Zurich,-120,1739,979,1740,763,1740,811,1.1041666269302,production,f5b4a49f956347addd546a832a3327688c2c0fef,NA,NA,NA,NA,NA,NA,NA,NA,NA,NA
5e5e9,Introduction practice,canvas.Screen,1_0,NA,keypress(Space),response,8198.4000000715,24218.600000024,24206.808,24227.4,32425.800000072,32426.400000095,2024-04-01T09:30:13Z,32439.2,NA,NA,NA,NA,NA,NA,NA,NA,NA,NA,NA,NA,NA,NA,NA,NA,NA,NA,NA,NULL,NA,NA,NA,NA,NA,NA,NA,NA,NA
5e5e9,deep,flow.Sequence,1_1_0_0,NA,NA,skipped,NA,32426.700000048,NA,NA,32425.800000072,32426.900000095,2024-04-01T09:30:13Z,32439.2,NA,NA,NA,NA,NA,NA,NA,NA,NA,NA,NA,NA,NA,NA,NA,NA,NA,NA,NA,"c(""distractor1"", ""distractor2"", ""distractor3"")",Kritik,lawama,s,dereva,nafasi,mawazo,NA,NA,NA
5e5e9,Shallow Question,html.Page,1_1_0_1_0,lawama,NA,form submission,7283.1000000715,32427,32427.2,32439.2,39722.300000072,39722.600000024,2024-04-01T09:30:20Z,39734.6,NA,NA,NA,NA,NA,NA,NA,NA,NA,NA,NA,NA,NA,NA,NA,NA,NA,NA,NA,"c(""distractor1"", ""distractor2"", ""distractor3"")",Kritik,lawama,s,dereva,nafasi,mawazo,NA,NA,NA
5e5e9,"""Richtig""-Screen",canvas.Screen,1_1_0_1_1,NA,NA,timeout,4996.9,39724.5,39718.064,39734.6,44714.9,44716.400000095004,2024-04-01T09:30:25Z,44731.5,NA,NA,NA,NA,NA,NA,NA,NA,NA,NA,NA,NA,NA,NA,NA,NA,NA,NA,NA,"c(""distractor1"", ""distractor2"", ""distractor3"")",Kritik,lawama,s,dereva,nafasi,mawazo,NA,1,NA
5e5e9,"""Falsch""-Screen",canvas.Screen,1_1_0_1_2,NA,NA,skipped,NA,44719.800000072,NA,NA,44714.9,44720.100000024,2024-04-01T09:30:25Z,44731.5,NA,NA,NA,NA,NA,NA,NA,NA,NA,NA,NA,NA,NA,NA,NA,NA,NA,NA,NA,"c(""distractor1"", ""distractor2"", ""distractor3"")",Kritik,lawama,s,dereva,nafasi,mawazo,NA,NA,NA
5e5e9,shallow,flow.Sequence,1_1_0_1,NA,NA,completion,12275.7,32427,32427.2,32439.2,44714.9,44720.5,2024-04-01T09:30:25Z,44731.5,NA,NA,NA,NA,NA,NA,NA,NA,NA,NA,NA,NA,NA,NA,NA,NA,NA,NA,NA,"c(""distractor1"", ""distractor2"", ""distractor3"")",Kritik,lawama,s,dereva,nafasi,mawazo,NA,NA,NA
5e5e9,task,flow.Sequence,1_1_0,NA,NA,completion,12275.7,32426.700000048,32427.2,32439.2,44714.9,44720.900000095004,2024-04-01T09:30:25Z,44731.5,NA,NA,NA,NA,NA,NA,NA,NA,NA,NA,NA,NA,NA,NA,NA,NA,NA,NA,NA,"c(""distractor1"", ""distractor2"", ""distractor3"")",Kritik,lawama,s,dereva,nafasi,mawazo,NA,NA,NA
5e5e9,Deep Question,html.Page,1_1_1_0_0,kakama,NA,form submission,5062.9000000954,44721.200000048,44714.9,44731.5,49794.400000095004,49794.600000024,2024-04-01T09:30:30Z,49813,NA,NA,NA,NA,NA,NA,NA,NA,NA,NA,NA,NA,NA,NA,NA,NA,NA,NA,NA,"c(""distractor1"", ""distractor2"", ""distractor3"")",Schatten,kivuli,d,NA,NA,NA,NA,NA,NA
5e5e9,"""Richtig""-Screen",canvas.Screen,1_1_1_0_1,NA,NA,skipped,NA,49795.900000095004,NA,NA,49794.400000095004,49796.200000048,2024-04-01T09:30:30Z,49813,NA,NA,NA,NA,NA,NA,NA,NA,NA,NA,NA,NA,NA,NA,NA,NA,NA,NA,NA,"c(""distractor1"", ""distractor2"", ""distractor3"")",Schatten,kivuli,d,NA,NA,NA,NA,NA,NA
5e5e9,"""Falsch""-Screen",canvas.Screen,1_1_1_0_2,NA,NA,timeout,4995.7,49797.300000072,49797.48,49813,54792,54793.200000048,2024-04-01T09:30:35Z,54808.7,NA,NA,NA,NA,NA,NA,NA,NA,NA,NA,NA,NA,NA,NA,NA,NA,NA,NA,NA,"c(""distractor1"", ""distractor2"", ""distractor3"")",Schatten,kivuli,d,NA,NA,NA,NA,0,NA
5e5e9,deep,flow.Sequence,1_1_1_0,NA,NA,completion,10060.5,44721.200000048,44714.9,44731.5,54792,54793.700000048,2024-04-01T09:30:35Z,54808.7,NA,NA,NA,NA,NA,NA,NA,NA,NA,NA,NA,NA,NA,NA,NA,NA,NA,NA,NA,"c(""distractor1"", ""distractor2"", ""distractor3"")",Schatten,kivuli,d,NA,NA,NA,NA,NA,NA
5e5e9,shallow,flow.Sequence,1_1_1_1,NA,NA,skipped,NA,54793.800000072,NA,NA,54792,54794.100000024,2024-04-01T09:30:35Z,54808.7,NA,NA,NA,NA,NA,NA,NA,NA,NA,NA,NA,NA,NA,NA,NA,NA,NA,NA,NA,"c(""distractor1"", ""distractor2"", ""distractor3"")",Schatten,kivuli,d,NA,NA,NA,NA,NA,NA
5e5e9,task,flow.Sequence,1_1_1,NA,NA,completion,10060.5,44721.100000024,44714.9,44731.5,54792,54794.300000072,2024-04-01T09:30:35Z,54808.7,NA,NA,NA,NA,NA,NA,NA,NA,NA,NA,NA,NA,NA,NA,NA,NA,NA,NA,NA,"c(""distractor1"", ""distractor2"", ""distractor3"")",Schatten,kivuli,d,NA,NA,NA,NA,NA,NA
5e5e9,Deep Question,html.Page,1_1_2_0_0,multi,NA,form submission,9071.5000000477,54794.5,54792,54808.7,63880.200000048,63880.5,2024-04-01T09:30:44Z,63886.4,NA,NA,NA,NA,NA,NA,NA,NA,NA,NA,NA,NA,NA,NA,NA,NA,NA,NA,NA,"c(""distractor1"", ""distractor2"", ""distractor3"")",Qualität,mtindo,d,NA,NA,NA,NA,NA,NA
5e5e9,"""Richtig""-Screen",canvas.Screen,1_1_2_0_1,NA,NA,skipped,NA,63883.700000048,NA,NA,63880.200000048,63883.900000095004,2024-04-01T09:30:44Z,63886.4,NA,NA,NA,NA,NA,NA,NA,NA,NA,NA,NA,NA,NA,NA,NA,NA,NA,NA,NA,"c(""distractor1"", ""distractor2"", ""distractor3"")",Qualität,mtindo,d,NA,NA,NA,NA,NA,NA
5e5e9,"""Falsch""-Screen",canvas.Screen,1_1_2_0_2,NA,NA,timeout,4997.3,63885.300000072,63874.79,63886.4,68866.8,68867.800000072,2024-04-01T09:30:49Z,68883.7,NA,NA,NA,NA,NA,NA,NA,NA,NA,NA,NA,NA,NA,NA,NA,NA,NA,NA,NA,"c(""distractor1"", ""distractor2"", ""distractor3"")",Qualität,mtindo,d,NA,NA,NA,NA,0,NA
5e5e9,deep,flow.Sequence,1_1_2_0,NA,NA,completion,14058.1,54794.5,54792,54808.7,68866.8,68868.100000024,2024-04-01T09:30:49Z,68883.7,NA,NA,NA,NA,NA,NA,NA,NA,NA,NA,NA,NA,NA,NA,NA,NA,NA,NA,NA,"c(""distractor1"", ""distractor2"", ""distractor3"")",Qualität,mtindo,d,NA,NA,NA,NA,NA,NA
5e5e9,shallow,flow.Sequence,1_1_2_1,NA,NA,skipped,NA,68868.300000072,NA,NA,68866.8,68868.5,2024-04-01T09:30:49Z,68883.7,NA,NA,NA,NA,NA,NA,NA,NA,NA,NA,NA,NA,NA,NA,NA,NA,NA,NA,NA,"c(""distractor1"", ""distractor2"", ""distractor3"")",Qualität,mtindo,d,NA,NA,NA,NA,NA,NA
5e5e9,task,flow.Sequence,1_1_2,NA,NA,completion,14058.1,54794.400000095004,54792,54808.7,68866.8,68868.700000048,2024-04-01T09:30:49Z,68883.7,NA,NA,NA,NA,NA,NA,NA,NA,NA,NA,NA,NA,NA,NA,NA,NA,NA,NA,NA,"c(""distractor1"", ""distractor2"", ""distractor3"")",Qualität,mtindo,d,NA,NA,NA,NA,NA,NA
5e5e9,Deep Question,html.Page,1_1_3_0_0,keisfsh,NA,form submission,9599.6000000715,68869,68866.8,68883.7,78483.300000072,78483.600000024,2024-04-01T09:30:59Z,78494.2,NA,NA,NA,NA,NA,NA,NA,NA,NA,NA,NA,NA,NA,NA,NA,NA,NA,NA,NA,"c(""distractor1"", ""distractor2"", ""distractor3"")",Gesundheit,salama,d,NA,NA,NA,NA,NA,NA
5e5e9,"""Richtig""-Screen",canvas.Screen,1_1_3_0_1,NA,NA,skipped,NA,78486.900000095,NA,NA,78483.300000072,78487,2024-04-01T09:30:59Z,78494.2,NA,NA,NA,NA,NA,NA,NA,NA,NA,NA,NA,NA,NA,NA,NA,NA,NA,NA,NA,"c(""distractor1"", ""distractor2"", ""distractor3"")",Gesundheit,salama,d,NA,NA,NA,NA,NA,NA
5e5e9,"""Falsch""-Screen",canvas.Screen,1_1_3_0_2,NA,NA,timeout,4996.9,78487.800000072,78478.454,78494.2,83474.5,83475.5,2024-04-01T09:31:04Z,83491.1,NA,NA,NA,NA,NA,NA,NA,NA,NA,NA,NA,NA,NA,NA,NA,NA,NA,NA,NA,"c(""distractor1"", ""distractor2"", ""distractor3"")",Gesundheit,salama,d,NA,NA,NA,NA,0,NA
5e5e9,deep,flow.Sequence,1_1_3_0,NA,NA,completion,14590.8,68868.900000095,68866.8,68883.7,83474.5,83476,2024-04-01T09:31:04Z,83491.1,NA,NA,NA,NA,NA,NA,NA,NA,NA,NA,NA,NA,NA,NA,NA,NA,NA,NA,NA,"c(""distractor1"", ""distractor2"", ""distractor3"")",Gesundheit,salama,d,NA,NA,NA,NA,NA,NA
5e5e9,shallow,flow.Sequence,1_1_3_1,NA,NA,skipped,NA,83476.100000024,NA,NA,83474.5,83476.200000048,2024-04-01T09:31:04Z,83491.1,NA,NA,NA,NA,NA,NA,NA,NA,NA,NA,NA,NA,NA,NA,NA,NA,NA,NA,NA,"c(""distractor1"", ""distractor2"", ""distractor3"")",Gesundheit,salama,d,NA,NA,NA,NA,NA,NA
5e5e9,task,flow.Sequence,1_1_3,NA,NA,completion,14590.8,68868.900000095,68866.8,68883.7,83474.5,83476.5,2024-04-01T09:31:04Z,83491.1,NA,NA,NA,NA,NA,NA,NA,NA,NA,NA,NA,NA,NA,NA,NA,NA,NA,NA,NA,"c(""distractor1"", ""distractor2"", ""distractor3"")",Gesundheit,salama,d,NA,NA,NA,NA,NA,NA
5e5e9,deep,flow.Sequence,1_1_4_0,NA,NA,skipped,NA,83476.700000048,NA,NA,83474.5,83476.800000072,2024-04-01T09:31:04Z,83491.1,NA,NA,NA,NA,NA,NA,NA,NA,NA,NA,NA,NA,NA,NA,NA,NA,NA,NA,NA,"c(""distractor1"", ""distractor2"", ""distractor3"")",Gegenwart,hadhara,s,katiba,jokofu,mikopo,NA,NA,NA
5e5e9,Shallow Question,html.Page,1_1_4_1_0,mikopo,NA,form submission,6512.7000000715,83477,83474.5,83491.1,90003.800000072,90003.900000095,2024-04-01T09:31:10Z,90020.5,NA,NA,NA,NA,NA,NA,NA,NA,NA,NA,NA,NA,NA,NA,NA,NA,NA,NA,NA,"c(""distractor1"", ""distractor2"", ""distractor3"")",Gegenwart,hadhara,s,katiba,jokofu,mikopo,NA,NA,NA
5e5e9,"""Richtig""-Screen",canvas.Screen,1_1_4_1_1,NA,NA,skipped,NA,90005.400000095,NA,NA,90003.800000072,90005.5,2024-04-01T09:31:10Z,90020.5,NA,NA,NA,NA,NA,NA,NA,NA,NA,NA,NA,NA,NA,NA,NA,NA,NA,NA,NA,"c(""distractor1"", ""distractor2"", ""distractor3"")",Gegenwart,hadhara,s,katiba,jokofu,mikopo,NA,NA,NA
5e5e9,"""Falsch""-Screen",canvas.Screen,1_1_4_1_2,NA,NA,timeout,4997.1,90006,90003.964,90020.5,95001,95002,2024-04-01T09:31:15Z,95017.6,NA,NA,NA,NA,NA,NA,NA,NA,NA,NA,NA,NA,NA,NA,NA,NA,NA,NA,NA,"c(""distractor1"", ""distractor2"", ""distractor3"")",Gegenwart,hadhara,s,katiba,jokofu,mikopo,NA,0,NA
5e5e9,shallow,flow.Sequence,1_1_4_1,NA,NA,completion,11509.9,83477,83474.5,83491.1,95001,95002.400000095,2024-04-01T09:31:15Z,95017.6,NA,NA,NA,NA,NA,NA,NA,NA,NA,NA,NA,NA,NA,NA,NA,NA,NA,NA,NA,"c(""distractor1"", ""distractor2"", ""distractor3"")",Gegenwart,hadhara,s,katiba,jokofu,mikopo,NA,NA,NA
5e5e9,task,flow.Sequence,1_1_4,NA,NA,completion,11509.9,83476.600000024,83474.5,83491.1,95001,95002.700000048,2024-04-01T09:31:15Z,95017.6,NA,NA,NA,NA,NA,NA,NA,NA,NA,NA,NA,NA,NA,NA,NA,NA,NA,NA,NA,"c(""distractor1"", ""distractor2"", ""distractor3"")",Gegenwart,hadhara,s,katiba,jokofu,mikopo,NA,NA,NA
5e5e9,deep,flow.Sequence,1_1_5_0,NA,NA,skipped,NA,95002.900000095,NA,NA,95001,95003,2024-04-01T09:31:15Z,95017.6,NA,NA,NA,NA,NA,NA,NA,NA,NA,NA,NA,NA,NA,NA,NA,NA,NA,NA,NA,"c(""distractor1"", ""distractor2"", ""distractor3"")",Rückhalt,msaada,s,muhula,auwali,kiwimbe,NA,NA,NA
5e5e9,Shallow Question,html.Page,1_1_5_1_0,auwali,NA,form submission,7129.9,95003.300000072,95001,95017.6,102147.5,102147.80000007,2024-04-01T09:31:23Z,102163.4,NA,NA,NA,NA,NA,NA,NA,NA,NA,NA,NA,NA,NA,NA,NA,NA,NA,NA,NA,"c(""distractor1"", ""distractor2"", ""distractor3"")",Rückhalt,msaada,s,muhula,auwali,kiwimbe,NA,NA,NA
5e5e9,"""Richtig""-Screen",canvas.Screen,1_1_5_1_1,NA,NA,skipped,NA,102151,NA,NA,102147.5,102151.10000002,2024-04-01T09:31:23Z,102163.4,NA,NA,NA,NA,NA,NA,NA,NA,NA,NA,NA,NA,NA,NA,NA,NA,NA,NA,NA,"c(""distractor1"", ""distractor2"", ""distractor3"")",Rückhalt,msaada,s,muhula,auwali,kiwimbe,NA,NA,NA
5e5e9,"""Falsch""-Screen",canvas.Screen,1_1_5_1_2,NA,NA,timeout,4997.1,102151.9000001,102147.008,102163.4,107143.3,107144.4000001,2024-04-01T09:31:28Z,107160.5,NA,NA,NA,NA,NA,NA,NA,NA,NA,NA,NA,NA,NA,NA,NA,NA,NA,NA,NA,"c(""distractor1"", ""distractor2"", ""distractor3"")",Rückhalt,msaada,s,muhula,auwali,kiwimbe,NA,0,NA
5e5e9,shallow,flow.Sequence,1_1_5_1,NA,NA,completion,12125.7,95003.100000024,95001,95017.6,107143.3,107144.70000005,2024-04-01T09:31:28Z,107160.5,NA,NA,NA,NA,NA,NA,NA,NA,NA,NA,NA,NA,NA,NA,NA,NA,NA,NA,NA,"c(""distractor1"", ""distractor2"", ""distractor3"")",Rückhalt,msaada,s,muhula,auwali,kiwimbe,NA,NA,NA
5e5e9,task,flow.Sequence,1_1_5,NA,NA,completion,12125.7,95002.800000072,95001,95017.6,107143.3,107144.9000001,2024-04-01T09:31:28Z,107160.5,NA,NA,NA,NA,NA,NA,NA,NA,NA,NA,NA,NA,NA,NA,NA,NA,NA,NA,NA,"c(""distractor1"", ""distractor2"", ""distractor3"")",Rückhalt,msaada,s,muhula,auwali,kiwimbe,NA,NA,NA
5e5e9,block,flow.Loop,1_1,NA,NA,completion,74704.1,32426.600000024,32427.2,32439.2,107143.3,107145.30000007,2024-04-01T09:31:28Z,107160.5,NA,NA,NA,NA,NA,NA,NA,NA,NA,NA,NA,NA,NA,NA,NA,NA,NA,NA,NA,"c(""distractor1"", ""distractor2"", ""distractor3"")",NA,NA,NA,NA,NA,NA,NA,NA,NA
5e5e9,Practice,flow.Sequence,1,NA,NA,completion,82915.9,24218.5,24206.808,24227.4,107143.3,107145.60000002,2024-04-01T09:31:28Z,107160.5,NA,NA,NA,NA,NA,NA,NA,NA,NA,NA,NA,NA,NA,NA,NA,NA,NA,NA,NA,NULL,NA,NA,NA,NA,NA,NA,NA,NA,NA
5e5e9,Experiment start,canvas.Screen,2,weiter,keypress(q),response,11465.600000024,107145.70000005,107143.3,107160.5,118626.10000002,118627.4000001,2024-04-01T09:31:39Z,118703.23,NA,NA,NA,NA,NA,NA,NA,NA,NA,NA,NA,NA,NA,NA,NA,NA,NA,NA,NA,NA,NA,NA,NA,NA,NA,NA,NA,NA,NA
5e5e9,deep,flow.Sequence,3_0_0_0_0_0,NA,NA,skipped,NA,118705.80000007,NA,NA,118626.10000002,118705.9000001,2024-04-01T09:31:39Z,118703.23,NA,NA,NA,NA,NA,NA,NA,NA,NA,NA,NA,NA,NA,NA,NA,NA,NA,NA,NA,NA,Entwicklung,maendeleo,s,uangavu,mshindwa,badiliko,sdf,NA,0
5e5e9,Shallow Question,html.Page,3_0_0_0_0_1_0,badiliko,NA,form submission,7514.6700000954,118706,118703.23,118703.23,126217.9000001,126218.20000005,2024-04-01T09:31:47Z,126231.6,NA,NA,NA,NA,NA,NA,NA,NA,NA,NA,NA,NA,NA,NA,NA,NA,NA,NA,NA,NA,Entwicklung,maendeleo,s,uangavu,mshindwa,badiliko,NA,NA,0
5e5e9,"""Richtig""-Screen",canvas.Screen,3_0_0_0_0_1_1,NA,NA,skipped,NA,126221.10000002,NA,NA,126217.9000001,126221.30000007,2024-04-01T09:31:47Z,126231.6,NA,NA,NA,NA,NA,NA,NA,NA,NA,NA,NA,NA,NA,NA,NA,NA,NA,NA,NA,NA,Entwicklung,maendeleo,s,uangavu,mshindwa,badiliko,sdf,NA,0
5e5e9,"""Falsch""-Screen",canvas.Screen,3_0_0_0_0_1_2,NA,NA,timeout,4997.2,126222,126215.428,126231.6,131211.9,131213,2024-04-01T09:31:52Z,131228.8,NA,NA,NA,NA,NA,NA,NA,NA,NA,NA,NA,NA,NA,NA,NA,NA,NA,NA,NA,NA,Entwicklung,maendeleo,s,uangavu,mshindwa,badiliko,sdf,0,0
5e5e9,shallow,flow.Sequence,3_0_0_0_0_1,NA,NA,completion,12508.67,118706,118703.23,118703.23,131211.9,131213.4000001,2024-04-01T09:31:52Z,131228.8,NA,NA,NA,NA,NA,NA,NA,NA,NA,NA,NA,NA,NA,NA,NA,NA,NA,NA,NA,NA,Entwicklung,maendeleo,s,uangavu,mshindwa,badiliko,sdf,NA,0
5e5e9,task,flow.Sequence,3_0_0_0_0,NA,NA,completion,12508.67,118705.80000007,118703.23,118703.23,131211.9,131213.60000002,2024-04-01T09:31:52Z,131228.8,NA,NA,NA,NA,NA,NA,NA,NA,NA,NA,NA,NA,NA,NA,NA,NA,NA,NA,NA,NA,Entwicklung,maendeleo,s,uangavu,mshindwa,badiliko,sdf,NA,0
5e5e9,deep,flow.Sequence,3_0_0_0_1_0,NA,NA,skipped,NA,131213.80000007,NA,NA,131211.9,131213.9000001,2024-04-01T09:31:52Z,131228.8,NA,NA,NA,NA,NA,NA,NA,NA,NA,NA,NA,NA,NA,NA,NA,NA,NA,NA,NA,NA,Übersicht,kilindo,s,mgusano,chipukizi,kulinganisha,sdf,NA,0
5e5e9,Shallow Question,html.Page,3_0_0_0_1_1_0,mgusano,NA,form submission,8768.7,131214.10000002,131211.9,131228.8,139997.5,139997.70000005,2024-04-01T09:32:00Z,140006.6,NA,NA,NA,NA,NA,NA,NA,NA,NA,NA,NA,NA,NA,NA,NA,NA,NA,NA,NA,NA,Übersicht,kilindo,s,mgusano,chipukizi,kulinganisha,NA,NA,0
5e5e9,"""Richtig""-Screen",canvas.Screen,3_0_0_0_1_1_1,NA,NA,skipped,NA,140000.9000001,NA,NA,139997.5,140001.10000002,2024-04-01T09:32:00Z,140006.6,NA,NA,NA,NA,NA,NA,NA,NA,NA,NA,NA,NA,NA,NA,NA,NA,NA,NA,NA,NA,Übersicht,kilindo,s,mgusano,chipukizi,kulinganisha,sdf,NA,0
5e5e9,"""Falsch""-Screen",canvas.Screen,3_0_0_0_1_1_2,NA,NA,timeout,4997.2,140002,139991.1,140006.6,144986.9,144988,2024-04-01T09:32:05Z,145003.8,NA,NA,NA,NA,NA,NA,NA,NA,NA,NA,NA,NA,NA,NA,NA,NA,NA,NA,NA,NA,Übersicht,kilindo,s,mgusano,chipukizi,kulinganisha,sdf,0,0
5e5e9,shallow,flow.Sequence,3_0_0_0_1_1,NA,NA,completion,13758.1,131214.10000002,131211.9,131228.8,144986.9,144988.30000007,2024-04-01T09:32:05Z,145003.8,NA,NA,NA,NA,NA,NA,NA,NA,NA,NA,NA,NA,NA,NA,NA,NA,NA,NA,NA,NA,Übersicht,kilindo,s,mgusano,chipukizi,kulinganisha,sdf,NA,0
5e5e9,task,flow.Sequence,3_0_0_0_1,NA,NA,completion,13758.1,131213.70000005,131211.9,131228.8,144986.9,144988.5,2024-04-01T09:32:05Z,145003.8,NA,NA,NA,NA,NA,NA,NA,NA,NA,NA,NA,NA,NA,NA,NA,NA,NA,NA,NA,NA,Übersicht,kilindo,s,mgusano,chipukizi,kulinganisha,sdf,NA,0
5e5e9,Deep Question,html.Page,3_0_0_0_2_0_0,palama,NA,form submission,6000.6000000954,144988.70000005,144986.9,145003.8,151004.4000001,151004.5,2024-04-01T09:32:11Z,151016.6,NA,NA,NA,NA,NA,NA,NA,NA,NA,NA,NA,NA,NA,NA,NA,NA,NA,NA,NA,NA,Papier,karatasi,d,NA,NA,NA,NA,NA,0
5e5e9,"""Richtig""-Screen",canvas.Screen,3_0_0_0_2_0_1,NA,NA,skipped,NA,151007.20000005,NA,NA,151004.4000001,151007.4000001,2024-04-01T09:32:11Z,151016.6,NA,NA,NA,NA,NA,NA,NA,NA,NA,NA,NA,NA,NA,NA,NA,NA,NA,NA,NA,NA,Papier,karatasi,d,NA,NA,NA,sdf,NA,0
5e5e9,"""Falsch""-Screen",canvas.Screen,3_0_0_0_2_0_2,NA,NA,timeout,4997,151008.20000005,151003.34,151016.6,155996.8,155997.70000005,2024-04-01T09:32:16Z,156013.6,NA,NA,NA,NA,NA,NA,NA,NA,NA,NA,NA,NA,NA,NA,NA,NA,NA,NA,NA,NA,Papier,karatasi,d,NA,NA,NA,sdf,0,0
5e5e9,deep,flow.Sequence,3_0_0_0_2_0,NA,NA,completion,10993,144988.70000005,144986.9,145003.8,155996.8,155998.10000002,2024-04-01T09:32:16Z,156013.6,NA,NA,NA,NA,NA,NA,NA,NA,NA,NA,NA,NA,NA,NA,NA,NA,NA,NA,NA,NA,Papier,karatasi,d,NA,NA,NA,sdf,NA,0
5e5e9,shallow,flow.Sequence,3_0_0_0_2_1,NA,NA,skipped,NA,155998.30000007,NA,NA,155996.8,155998.4000001,2024-04-01T09:32:16Z,156013.6,NA,NA,NA,NA,NA,NA,NA,NA,NA,NA,NA,NA,NA,NA,NA,NA,NA,NA,NA,NA,Papier,karatasi,d,NA,NA,NA,sdf,NA,0
5e5e9,task,flow.Sequence,3_0_0_0_2,NA,NA,completion,10993,144988.70000005,144986.9,145003.8,155996.8,155998.60000002,2024-04-01T09:32:16Z,156013.6,NA,NA,NA,NA,NA,NA,NA,NA,NA,NA,NA,NA,NA,NA,NA,NA,NA,NA,NA,NA,Papier,karatasi,d,NA,NA,NA,sdf,NA,0
5e5e9,deep,flow.Sequence,3_0_0_0_3_0,NA,NA,skipped,NA,155998.70000005,NA,NA,155996.8,155998.9000001,2024-04-01T09:32:16Z,156013.6,NA,NA,NA,NA,NA,NA,NA,NA,NA,NA,NA,NA,NA,NA,NA,NA,NA,NA,NA,NA,Vorwurf,mashtaka,s,msukumo,mtangulizi,uenyekiti,sdf,NA,0
5e5e9,Shallow Question,html.Page,3_0_0_0_3_1_0,uenyekiti,NA,form submission,11783.800000095,155999,155996.8,156013.6,167797.4000001,167797.60000002,2024-04-01T09:32:28Z,167806.1,NA,NA,NA,NA,NA,NA,NA,NA,NA,NA,NA,NA,NA,NA,NA,NA,NA,NA,NA,NA,Vorwurf,mashtaka,s,msukumo,mtangulizi,uenyekiti,NA,NA,0
5e5e9,"""Richtig""-Screen",canvas.Screen,3_0_0_0_3_1_1,NA,NA,skipped,NA,167801,NA,NA,167797.4000001,167801.20000005,2024-04-01T09:32:28Z,167806.1,NA,NA,NA,NA,NA,NA,NA,NA,NA,NA,NA,NA,NA,NA,NA,NA,NA,NA,NA,NA,Vorwurf,mashtaka,s,msukumo,mtangulizi,uenyekiti,sdf,NA,0
5e5e9,"""Falsch""-Screen",canvas.Screen,3_0_0_0_3_1_2,NA,NA,timeout,4997.3,167802.10000002,167790.1,167806.1,172786.5,172788.10000002,2024-04-01T09:32:33Z,172803.4,NA,NA,NA,NA,NA,NA,NA,NA,NA,NA,NA,NA,NA,NA,NA,NA,NA,NA,NA,NA,Vorwurf,mashtaka,s,msukumo,mtangulizi,uenyekiti,sdf,0,0
5e5e9,shallow,flow.Sequence,3_0_0_0_3_1,NA,NA,completion,16772.9,155999,155996.8,156013.6,172786.5,172788.5,2024-04-01T09:32:33Z,172803.4,NA,NA,NA,NA,NA,NA,NA,NA,NA,NA,NA,NA,NA,NA,NA,NA,NA,NA,NA,NA,Vorwurf,mashtaka,s,msukumo,mtangulizi,uenyekiti,sdf,NA,0
5e5e9,task,flow.Sequence,3_0_0_0_3,NA,NA,completion,16772.9,155998.70000005,155996.8,156013.6,172786.5,172788.9000001,2024-04-01T09:32:33Z,172803.4,NA,NA,NA,NA,NA,NA,NA,NA,NA,NA,NA,NA,NA,NA,NA,NA,NA,NA,NA,NA,Vorwurf,mashtaka,s,msukumo,mtangulizi,uenyekiti,sdf,NA,0
5e5e9,Deep Question,html.Page,3_0_0_0_4_0_0,makaa,NA,form submission,5717.3000000477,172789.10000002,172786.5,172803.4,178520.70000005,178521,2024-04-01T09:32:39Z,178533,NA,NA,NA,NA,NA,NA,NA,NA,NA,NA,NA,NA,NA,NA,NA,NA,NA,NA,NA,NA,System,maongozi,d,NA,NA,NA,NA,NA,0
5e5e9,"""Richtig""-Screen",canvas.Screen,3_0_0_0_4_0_1,NA,NA,skipped,NA,178524.10000002,NA,NA,178520.70000005,178524.30000007,2024-04-01T09:32:39Z,178533,NA,NA,NA,NA,NA,NA,NA,NA,NA,NA,NA,NA,NA,NA,NA,NA,NA,NA,NA,NA,System,maongozi,d,NA,NA,NA,sdf,NA,0
5e5e9,"""Falsch""-Screen",canvas.Screen,3_0_0_0_4_0_2,NA,NA,timeout,4997.2,178525.10000002,178516.4,178533,183513.3,183514.20000005,2024-04-01T09:32:44Z,183530.2,NA,NA,NA,NA,NA,NA,NA,NA,NA,NA,NA,NA,NA,NA,NA,NA,NA,NA,NA,NA,System,maongozi,d,NA,NA,NA,sdf,0,0
5e5e9,deep,flow.Sequence,3_0_0_0_4_0,NA,NA,completion,10709.9,172789,172786.5,172803.4,183513.3,183514.60000002,2024-04-01T09:32:44Z,183530.2,NA,NA,NA,NA,NA,NA,NA,NA,NA,NA,NA,NA,NA,NA,NA,NA,NA,NA,NA,NA,System,maongozi,d,NA,NA,NA,sdf,NA,0
5e5e9,shallow,flow.Sequence,3_0_0_0_4_1,NA,NA,skipped,NA,183514.80000007,NA,NA,183513.3,183514.9000001,2024-04-01T09:32:44Z,183530.2,NA,NA,NA,NA,NA,NA,NA,NA,NA,NA,NA,NA,NA,NA,NA,NA,NA,NA,NA,NA,System,maongozi,d,NA,NA,NA,sdf,NA,0
5e5e9,task,flow.Sequence,3_0_0_0_4,NA,NA,completion,10709.9,172789,172786.5,172803.4,183513.3,183515.20000005,2024-04-01T09:32:44Z,183530.2,NA,NA,NA,NA,NA,NA,NA,NA,NA,NA,NA,NA,NA,NA,NA,NA,NA,NA,NA,NA,System,maongozi,d,NA,NA,NA,sdf,NA,0
5e5e9,Deep Question,html.Page,3_0_0_0_5_0_0,sdjsj,NA,form submission,8673.4000000238,183515.30000007,183513.3,183530.2,192203.60000002,192203.80000007,2024-04-01T09:32:53Z,192208.1,NA,NA,NA,NA,NA,NA,NA,NA,NA,NA,NA,NA,NA,NA,NA,NA,NA,NA,NA,NA,Lawine,banguko,d,NA,NA,NA,NA,NA,0
5e5e9,"""Richtig""-Screen",canvas.Screen,3_0_0_0_5_0_1,NA,NA,skipped,NA,192206.9000001,NA,NA,192203.60000002,192207.10000002,2024-04-01T09:32:53Z,192208.1,NA,NA,NA,NA,NA,NA,NA,NA,NA,NA,NA,NA,NA,NA,NA,NA,NA,NA,NA,NA,Lawine,banguko,d,NA,NA,NA,sdf,NA,0
5e5e9,"""Falsch""-Screen",canvas.Screen,3_0_0_0_5_0_2,NA,NA,timeout,4997.4,192207.80000007,192194.294,192208.1,197188.6,197189.5,2024-04-01T09:32:58Z,197205.5,NA,NA,NA,NA,NA,NA,NA,NA,NA,NA,NA,NA,NA,NA,NA,NA,NA,NA,NA,NA,Lawine,banguko,d,NA,NA,NA,sdf,0,0
5e5e9,deep,flow.Sequence,3_0_0_0_5_0,NA,NA,completion,13658.4,183515.30000007,183513.3,183530.2,197188.6,197189.80000007,2024-04-01T09:32:58Z,197205.5,NA,NA,NA,NA,NA,NA,NA,NA,NA,NA,NA,NA,NA,NA,NA,NA,NA,NA,NA,NA,Lawine,banguko,d,NA,NA,NA,sdf,NA,0
5e5e9,shallow,flow.Sequence,3_0_0_0_5_1,NA,NA,skipped,NA,197189.80000007,NA,NA,197188.6,197190,2024-04-01T09:32:58Z,197205.5,NA,NA,NA,NA,NA,NA,NA,NA,NA,NA,NA,NA,NA,NA,NA,NA,NA,NA,NA,NA,Lawine,banguko,d,NA,NA,NA,sdf,NA,0
5e5e9,task,flow.Sequence,3_0_0_0_5,NA,NA,completion,13658.4,183515.20000005,183513.3,183530.2,197188.6,197190.20000005,2024-04-01T09:32:58Z,197205.5,NA,NA,NA,NA,NA,NA,NA,NA,NA,NA,NA,NA,NA,NA,NA,NA,NA,NA,NA,NA,Lawine,banguko,d,NA,NA,NA,sdf,NA,0
5e5e9,Deep Question,html.Page,3_0_0_0_6_0_0,perasi,NA,form submission,9187.8000000715,197190.4000001,197188.6,197205.5,206393.30000007,206393.5,2024-04-01T09:33:07Z,206399.2,NA,NA,NA,NA,NA,NA,NA,NA,NA,NA,NA,NA,NA,NA,NA,NA,NA,NA,NA,NA,Niveau,kiwango,d,NA,NA,NA,NA,NA,0
5e5e9,"""Richtig""-Screen",canvas.Screen,3_0_0_0_6_0_1,NA,NA,skipped,NA,206396.60000002,NA,NA,206393.30000007,206396.70000005,2024-04-01T09:33:07Z,206399.2,NA,NA,NA,NA,NA,NA,NA,NA,NA,NA,NA,NA,NA,NA,NA,NA,NA,NA,NA,NA,Niveau,kiwango,d,NA,NA,NA,sdf,NA,0
5e5e9,"""Falsch""-Screen",canvas.Screen,3_0_0_0_6_0_2,NA,NA,timeout,4997.2,206397.60000002,206385.532,206399.2,211379.7,211380.80000007,2024-04-01T09:33:12Z,211396.4,NA,NA,NA,NA,NA,NA,NA,NA,NA,NA,NA,NA,NA,NA,NA,NA,NA,NA,NA,NA,Niveau,kiwango,d,NA,NA,NA,sdf,0,0
5e5e9,deep,flow.Sequence,3_0_0_0_6_0,NA,NA,completion,14174.2,197190.30000007,197188.6,197205.5,211379.7,211381.20000005,2024-04-01T09:33:12Z,211396.4,NA,NA,NA,NA,NA,NA,NA,NA,NA,NA,NA,NA,NA,NA,NA,NA,NA,NA,NA,NA,Niveau,kiwango,d,NA,NA,NA,sdf,NA,0
5e5e9,shallow,flow.Sequence,3_0_0_0_6_1,NA,NA,skipped,NA,211381.30000007,NA,NA,211379.7,211381.60000002,2024-04-01T09:33:12Z,211396.4,NA,NA,NA,NA,NA,NA,NA,NA,NA,NA,NA,NA,NA,NA,NA,NA,NA,NA,NA,NA,Niveau,kiwango,d,NA,NA,NA,sdf,NA,0
5e5e9,task,flow.Sequence,3_0_0_0_6,NA,NA,completion,14174.2,197190.30000007,197188.6,197205.5,211379.7,211381.80000007,2024-04-01T09:33:12Z,211396.4,NA,NA,NA,NA,NA,NA,NA,NA,NA,NA,NA,NA,NA,NA,NA,NA,NA,NA,NA,NA,Niveau,kiwango,d,NA,NA,NA,sdf,NA,0
5e5e9,deep,flow.Sequence,3_0_0_0_7_0,NA,NA,skipped,NA,211381.9000001,NA,NA,211379.7,211382,2024-04-01T09:33:12Z,211396.4,NA,NA,NA,NA,NA,NA,NA,NA,NA,NA,NA,NA,NA,NA,NA,NA,NA,NA,NA,NA,Körper,kiwiliwili,s,mapambano,mpatanishi,kiolezo,sdf,NA,0
5e5e9,Shallow Question,html.Page,3_0_0_0_7_1_0,mpatanishi,NA,form submission,7703.4000000715,211382.10000002,211379.7,211396.4,219099.80000007,219100,2024-04-01T09:33:19Z,219124.8,NA,NA,NA,NA,NA,NA,NA,NA,NA,NA,NA,NA,NA,NA,NA,NA,NA,NA,NA,NA,Körper,kiwiliwili,s,mapambano,mpatanishi,kiolezo,NA,NA,0
5e5e9,"""Richtig""-Screen",canvas.Screen,3_0_0_0_7_1_1,NA,NA,skipped,NA,219103.30000007,NA,NA,219099.80000007,219103.5,2024-04-01T09:33:19Z,219124.8,NA,NA,NA,NA,NA,NA,NA,NA,NA,NA,NA,NA,NA,NA,NA,NA,NA,NA,NA,NA,Körper,kiwiliwili,s,mapambano,mpatanishi,kiolezo,sdf,NA,0
5e5e9,"""Falsch""-Screen",canvas.Screen,3_0_0_0_7_1_2,NA,NA,timeout,4997.3,219104.4000001,219108.4,219124.8,224105.1,224106.20000005,2024-04-01T09:33:24Z,224122.1,NA,NA,NA,NA,NA,NA,NA,NA,NA,NA,NA,NA,NA,NA,NA,NA,NA,NA,NA,NA,Körper,kiwiliwili,s,mapambano,mpatanishi,kiolezo,sdf,0,0
5e5e9,shallow,flow.Sequence,3_0_0_0_7_1,NA,NA,completion,12708.7,211382,211379.7,211396.4,224105.1,224106.5,2024-04-01T09:33:24Z,224122.1,NA,NA,NA,NA,NA,NA,NA,NA,NA,NA,NA,NA,NA,NA,NA,NA,NA,NA,NA,NA,Körper,kiwiliwili,s,mapambano,mpatanishi,kiolezo,sdf,NA,0
5e5e9,task,flow.Sequence,3_0_0_0_7,NA,NA,completion,12708.7,211381.80000007,211379.7,211396.4,224105.1,224106.70000005,2024-04-01T09:33:24Z,224122.1,NA,NA,NA,NA,NA,NA,NA,NA,NA,NA,NA,NA,NA,NA,NA,NA,NA,NA,NA,NA,Körper,kiwiliwili,s,mapambano,mpatanishi,kiolezo,sdf,NA,0
5e5e9,block,flow.Loop,3_0_0_0,NA,NA,completion,105401.87,118705.80000007,118703.23,118703.23,224105.1,224107,2024-04-01T09:33:24Z,224122.1,NA,NA,NA,NA,NA,NA,NA,NA,NA,NA,NA,NA,NA,NA,NA,NA,NA,NA,NA,NA,NA,NA,NA,NA,NA,NA,sdf,NA,0
5e5e9,weiter,canvas.Screen,3_0_0_1,sdf,keypress(Space),response,1744.7000000715,224107.10000002,224105.1,224122.1,225866.80000007,225867.30000007,2024-04-01T09:33:26Z,225871.398,NA,NA,NA,NA,NA,NA,NA,NA,NA,NA,NA,NA,NA,NA,NA,NA,NA,NA,NA,NA,NA,NA,NA,NA,NA,NA,sdf,NA,0
5e5e9,check continue,flow.Sequence,3_0_0,NA,NA,completion,107163.57000007,118705.80000007,118703.23,118703.23,225866.80000007,225867.4000001,2024-04-01T09:33:26Z,225871.398,NA,NA,NA,NA,NA,NA,NA,NA,NA,NA,NA,NA,NA,NA,NA,NA,NA,NA,NA,NA,NA,NA,NA,NA,NA,NA,sdf,NA,0
5e5e9,deep,flow.Sequence,3_0_1_0_0_0,NA,NA,skipped,NA,225883.4000001,NA,NA,225866.80000007,225883.4000001,2024-04-01T09:33:26Z,225871.398,NA,NA,NA,NA,NA,NA,NA,NA,NA,NA,NA,NA,NA,NA,NA,NA,NA,NA,NA,NA,Entwicklung,maendeleo,s,uangavu,mshindwa,badiliko,sdfdsf,NA,1
5e5e9,Shallow Question,html.Page,3_0_1_0_0_1_0,mshindwa,NA,form submission,8531.9020000715,225883.5,225871.398,225871.398,234403.30000007,234403.60000002,2024-04-01T09:33:35Z,234415.4,NA,NA,NA,NA,NA,NA,NA,NA,NA,NA,NA,NA,NA,NA,NA,NA,NA,NA,NA,NA,Entwicklung,maendeleo,s,uangavu,mshindwa,badiliko,NA,NA,1
5e5e9,"""Richtig""-Screen",canvas.Screen,3_0_1_0_0_1_1,NA,NA,skipped,NA,234406.70000005,NA,NA,234403.30000007,234406.80000007,2024-04-01T09:33:35Z,234415.4,NA,NA,NA,NA,NA,NA,NA,NA,NA,NA,NA,NA,NA,NA,NA,NA,NA,NA,NA,NA,Entwicklung,maendeleo,s,uangavu,mshindwa,badiliko,sdfdsf,NA,1
5e5e9,"""Falsch""-Screen",canvas.Screen,3_0_1_0_0_1_2,NA,NA,timeout,4997.3,234407.70000005,234399.4,234415.4,239396,239396.9000001,2024-04-01T09:33:40Z,239412.7,NA,NA,NA,NA,NA,NA,NA,NA,NA,NA,NA,NA,NA,NA,NA,NA,NA,NA,NA,NA,Entwicklung,maendeleo,s,uangavu,mshindwa,badiliko,sdfdsf,0,1
5e5e9,shallow,flow.Sequence,3_0_1_0_0_1,NA,NA,completion,13524.602,225883.4000001,225871.398,225871.398,239396,239397.30000007,2024-04-01T09:33:40Z,239412.7,NA,NA,NA,NA,NA,NA,NA,NA,NA,NA,NA,NA,NA,NA,NA,NA,NA,NA,NA,NA,Entwicklung,maendeleo,s,uangavu,mshindwa,badiliko,sdfdsf,NA,1
5e5e9,task,flow.Sequence,3_0_1_0_0,NA,NA,completion,13524.602,225883.4000001,225871.398,225871.398,239396,239397.5,2024-04-01T09:33:40Z,239412.7,NA,NA,NA,NA,NA,NA,NA,NA,NA,NA,NA,NA,NA,NA,NA,NA,NA,NA,NA,NA,Entwicklung,maendeleo,s,uangavu,mshindwa,badiliko,sdfdsf,NA,1
5e5e9,Deep Question,html.Page,3_0_1_0_1_0_0,kililinvu$,NA,form submission,17616.400000024,239397.60000002,239396,239412.7,257029.10000002,257029.4000001,2024-04-01T09:33:57Z,257052,NA,NA,NA,NA,NA,NA,NA,NA,NA,NA,NA,NA,NA,NA,NA,NA,NA,NA,NA,NA,Niveau,kiwango,d,NA,NA,NA,NA,NA,1
5e5e9,"""Richtig""-Screen",canvas.Screen,3_0_1_0_1_0_1,NA,NA,skipped,NA,257031.30000007,NA,NA,257029.10000002,257031.4000001,2024-04-01T09:33:57Z,257052,NA,NA,NA,NA,NA,NA,NA,NA,NA,NA,NA,NA,NA,NA,NA,NA,NA,NA,NA,NA,Niveau,kiwango,d,NA,NA,NA,sdfdsf,NA,1
5e5e9,"""Falsch""-Screen",canvas.Screen,3_0_1_0_1_0_2,NA,NA,timeout,4996.7,257031.70000005,257036.828,257052,262032.2,262033.30000007,2024-04-01T09:34:02Z,262048.7,NA,NA,NA,NA,NA,NA,NA,NA,NA,NA,NA,NA,NA,NA,NA,NA,NA,NA,NA,NA,Niveau,kiwango,d,NA,NA,NA,sdfdsf,0,1
5e5e9,deep,flow.Sequence,3_0_1_0_1_0,NA,NA,completion,22619.5,239397.60000002,239396,239412.7,262032.2,262033.80000007,2024-04-01T09:34:02Z,262048.7,NA,NA,NA,NA,NA,NA,NA,NA,NA,NA,NA,NA,NA,NA,NA,NA,NA,NA,NA,NA,Niveau,kiwango,d,NA,NA,NA,sdfdsf,NA,1
5e5e9,shallow,flow.Sequence,3_0_1_0_1_1,NA,NA,skipped,NA,262033.9000001,NA,NA,262032.2,262034,2024-04-01T09:34:02Z,262048.7,NA,NA,NA,NA,NA,NA,NA,NA,NA,NA,NA,NA,NA,NA,NA,NA,NA,NA,NA,NA,Niveau,kiwango,d,NA,NA,NA,sdfdsf,NA,1
5e5e9,task,flow.Sequence,3_0_1_0_1,NA,NA,completion,22619.5,239397.60000002,239396,239412.7,262032.2,262034.30000007,2024-04-01T09:34:02Z,262048.7,NA,NA,NA,NA,NA,NA,NA,NA,NA,NA,NA,NA,NA,NA,NA,NA,NA,NA,NA,NA,Niveau,kiwango,d,NA,NA,NA,sdfdsf,NA,1
5e5e9,Deep Question,html.Page,3_0_1_0_2_0_0,asf,NA,form submission,3098.8,262034.4000001,262032.2,262048.7,265147.5,265147.80000007,2024-04-01T09:34:06Z,265163.2,NA,NA,NA,NA,NA,NA,NA,NA,NA,NA,NA,NA,NA,NA,NA,NA,NA,NA,NA,NA,Lawine,banguko,d,NA,NA,NA,NA,NA,1
5e5e9,"""Richtig""-Screen",canvas.Screen,3_0_1_0_2_0_1,NA,NA,skipped,NA,265150.9000001,NA,NA,265147.5,265151.10000002,2024-04-01T09:34:06Z,265163.2,NA,NA,NA,NA,NA,NA,NA,NA,NA,NA,NA,NA,NA,NA,NA,NA,NA,NA,NA,NA,Lawine,banguko,d,NA,NA,NA,sdfdsf,NA,1
5e5e9,"""Falsch""-Screen",canvas.Screen,3_0_1_0_2_0_2,NA,NA,timeout,4997.4,265151.9000001,265147.806,265163.2,270144,270144.9000001,2024-04-01T09:34:11Z,270160.6,NA,NA,NA,NA,NA,NA,NA,NA,NA,NA,NA,NA,NA,NA,NA,NA,NA,NA,NA,NA,Lawine,banguko,d,NA,NA,NA,sdfdsf,0,1
5e5e9,deep,flow.Sequence,3_0_1_0_2_0,NA,NA,completion,8095.3,262034.4000001,262032.2,262048.7,270144,270145.30000007,2024-04-01T09:34:11Z,270160.6,NA,NA,NA,NA,NA,NA,NA,NA,NA,NA,NA,NA,NA,NA,NA,NA,NA,NA,NA,NA,Lawine,banguko,d,NA,NA,NA,sdfdsf,NA,1
5e5e9,shallow,flow.Sequence,3_0_1_0_2_1,NA,NA,skipped,NA,270145.4000001,NA,NA,270144,270145.60000002,2024-04-01T09:34:11Z,270160.6,NA,NA,NA,NA,NA,NA,NA,NA,NA,NA,NA,NA,NA,NA,NA,NA,NA,NA,NA,NA,Lawine,banguko,d,NA,NA,NA,sdfdsf,NA,1
5e5e9,task,flow.Sequence,3_0_1_0_2,NA,NA,completion,8095.3,262034.4000001,262032.2,262048.7,270144,270145.70000005,2024-04-01T09:34:11Z,270160.6,NA,NA,NA,NA,NA,NA,NA,NA,NA,NA,NA,NA,NA,NA,NA,NA,NA,NA,NA,NA,Lawine,banguko,d,NA,NA,NA,sdfdsf,NA,1
5e5e9,Deep Question,html.Page,3_0_1_0_3_0_0,j,NA,form submission,3825.2000000715,270146,270144,270160.6,273985.80000007,273986,2024-04-01T09:34:14Z,273991.1,NA,NA,NA,NA,NA,NA,NA,NA,NA,NA,NA,NA,NA,NA,NA,NA,NA,NA,NA,NA,Papier,karatasi,d,NA,NA,NA,NA,NA,1
5e5e9,"""Richtig""-Screen",canvas.Screen,3_0_1_0_3_0_1,NA,NA,skipped,NA,273990.10000002,NA,NA,273985.80000007,273990.30000007,2024-04-01T09:34:14Z,273991.1,NA,NA,NA,NA,NA,NA,NA,NA,NA,NA,NA,NA,NA,NA,NA,NA,NA,NA,NA,NA,Papier,karatasi,d,NA,NA,NA,sdfdsf,NA,1
5e5e9,"""Falsch""-Screen",canvas.Screen,3_0_1_0_3_0_2,NA,NA,timeout,4997.4,273990.60000002,273976.4,273991.1,278972,278972.9000001,2024-04-01T09:34:19Z,278988.5,NA,NA,NA,NA,NA,NA,NA,NA,NA,NA,NA,NA,NA,NA,NA,NA,NA,NA,NA,NA,Papier,karatasi,d,NA,NA,NA,sdfdsf,0,1
5e5e9,deep,flow.Sequence,3_0_1_0_3_0,NA,NA,completion,8811.4,270146,270144,270160.6,278972,278973.30000007,2024-04-01T09:34:19Z,278988.5,NA,NA,NA,NA,NA,NA,NA,NA,NA,NA,NA,NA,NA,NA,NA,NA,NA,NA,NA,NA,Papier,karatasi,d,NA,NA,NA,sdfdsf,NA,1
5e5e9,shallow,flow.Sequence,3_0_1_0_3_1,NA,NA,skipped,NA,278973.4000001,NA,NA,278972,278973.60000002,2024-04-01T09:34:19Z,278988.5,NA,NA,NA,NA,NA,NA,NA,NA,NA,NA,NA,NA,NA,NA,NA,NA,NA,NA,NA,NA,Papier,karatasi,d,NA,NA,NA,sdfdsf,NA,1
5e5e9,task,flow.Sequence,3_0_1_0_3,NA,NA,completion,8811.4,270145.9000001,270144,270160.6,278972,278973.80000007,2024-04-01T09:34:19Z,278988.5,NA,NA,NA,NA,NA,NA,NA,NA,NA,NA,NA,NA,NA,NA,NA,NA,NA,NA,NA,NA,Papier,karatasi,d,NA,NA,NA,sdfdsf,NA,1
5e5e9,Deep Question,html.Page,3_0_1_0_4_0_0,jaj,NA,form submission,6948.6000000238,278974,278972,278988.5,285937.10000002,285937.4000001,2024-04-01T09:34:26Z,285950.5,NA,NA,NA,NA,NA,NA,NA,NA,NA,NA,NA,NA,NA,NA,NA,NA,NA,NA,NA,NA,System,maongozi,d,NA,NA,NA,NA,NA,1
5e5e9,"""Richtig""-Screen",canvas.Screen,3_0_1_0_4_0_1,NA,NA,skipped,NA,285940.60000002,NA,NA,285937.10000002,285940.70000005,2024-04-01T09:34:26Z,285950.5,NA,NA,NA,NA,NA,NA,NA,NA,NA,NA,NA,NA,NA,NA,NA,NA,NA,NA,NA,NA,System,maongozi,d,NA,NA,NA,sdfdsf,NA,1
5e5e9,"""Falsch""-Screen",canvas.Screen,3_0_1_0_4_0_2,NA,NA,timeout,4997,285941.5,285934.296,285950.5,290930.8,290931.20000005,2024-04-01T09:34:31Z,290947.5,NA,NA,NA,NA,NA,NA,NA,NA,NA,NA,NA,NA,NA,NA,NA,NA,NA,NA,NA,NA,System,maongozi,d,NA,NA,NA,sdfdsf,0,1
5e5e9,deep,flow.Sequence,3_0_1_0_4_0,NA,NA,completion,11942.3,278974,278972,278988.5,290930.8,290931.4000001,2024-04-01T09:34:31Z,290947.5,NA,NA,NA,NA,NA,NA,NA,NA,NA,NA,NA,NA,NA,NA,NA,NA,NA,NA,NA,NA,System,maongozi,d,NA,NA,NA,sdfdsf,NA,1
5e5e9,shallow,flow.Sequence,3_0_1_0_4_1,NA,NA,skipped,NA,290931.4000001,NA,NA,290930.8,290931.5,2024-04-01T09:34:31Z,290947.5,NA,NA,NA,NA,NA,NA,NA,NA,NA,NA,NA,NA,NA,NA,NA,NA,NA,NA,NA,NA,System,maongozi,d,NA,NA,NA,sdfdsf,NA,1
5e5e9,task,flow.Sequence,3_0_1_0_4,NA,NA,completion,11942.3,278973.9000001,278972,278988.5,290930.8,290931.60000002,2024-04-01T09:34:31Z,290947.5,NA,NA,NA,NA,NA,NA,NA,NA,NA,NA,NA,NA,NA,NA,NA,NA,NA,NA,NA,NA,System,maongozi,d,NA,NA,NA,sdfdsf,NA,1
5e5e9,deep,flow.Sequence,3_0_1_0_5_0,NA,NA,skipped,NA,290931.60000002,NA,NA,290930.8,290931.60000002,2024-04-01T09:34:31Z,290947.5,NA,NA,NA,NA,NA,NA,NA,NA,NA,NA,NA,NA,NA,NA,NA,NA,NA,NA,NA,NA,Körper,kiwiliwili,s,mapambano,mpatanishi,kiolezo,sdfdsf,NA,1
5e5e9,Shallow Question,html.Page,3_0_1_0_5_1_0,kiwiliwili,NA,form submission,6026.5,290931.60000002,290930.8,290947.5,296974,296974,2024-04-01T09:34:37Z,296977.384,NA,NA,NA,NA,NA,NA,NA,NA,NA,NA,NA,NA,NA,NA,NA,NA,NA,NA,NA,NA,Körper,kiwiliwili,s,mapambano,mpatanishi,kiolezo,NA,NA,1
5e5e9,"""Richtig""-Screen",canvas.Screen,3_0_1_0_5_1_1,NA,NA,timeout,4996.616,296975.60000002,296977.384,296977.384,301957.3,301957.70000005,2024-04-01T09:34:42Z,301974,NA,NA,NA,NA,NA,NA,NA,NA,NA,NA,NA,NA,NA,NA,NA,NA,NA,NA,NA,NA,Körper,kiwiliwili,s,mapambano,mpatanishi,kiolezo,sdfdsf,1,1
5e5e9,"""Falsch""-Screen",canvas.Screen,3_0_1_0_5_1_2,NA,NA,skipped,NA,301959.30000007,NA,NA,301957.3,301959.30000007,2024-04-01T09:34:42Z,301974,NA,NA,NA,NA,NA,NA,NA,NA,NA,NA,NA,NA,NA,NA,NA,NA,NA,NA,NA,NA,Körper,kiwiliwili,s,mapambano,mpatanishi,kiolezo,sdfdsf,NA,1
5e5e9,shallow,flow.Sequence,3_0_1_0_5_1,NA,NA,completion,11009.8,290931.60000002,290930.8,290947.5,301957.3,301959.4000001,2024-04-01T09:34:42Z,301974,NA,NA,NA,NA,NA,NA,NA,NA,NA,NA,NA,NA,NA,NA,NA,NA,NA,NA,NA,NA,Körper,kiwiliwili,s,mapambano,mpatanishi,kiolezo,sdfdsf,NA,1
5e5e9,task,flow.Sequence,3_0_1_0_5,NA,NA,completion,11009.8,290931.60000002,290930.8,290947.5,301957.3,301959.4000001,2024-04-01T09:34:42Z,301974,NA,NA,NA,NA,NA,NA,NA,NA,NA,NA,NA,NA,NA,NA,NA,NA,NA,NA,NA,NA,Körper,kiwiliwili,s,mapambano,mpatanishi,kiolezo,sdfdsf,NA,1
5e5e9,deep,flow.Sequence,3_0_1_0_6_0,NA,NA,skipped,NA,301959.5,NA,NA,301957.3,301959.5,2024-04-01T09:34:42Z,301974,NA,NA,NA,NA,NA,NA,NA,NA,NA,NA,NA,NA,NA,NA,NA,NA,NA,NA,NA,NA,Vorwurf,mashtaka,s,msukumo,mtangulizi,uenyekiti,sdfdsf,NA,1
5e5e9,Shallow Question,html.Page,3_0_1_0_6_1_0,mashtaka,NA,form submission,7481.2000000477,301959.60000002,301957.3,301974,309455.20000005,309455.5,2024-04-01T09:34:50Z,309486.1,NA,NA,NA,NA,NA,NA,NA,NA,NA,NA,NA,NA,NA,NA,NA,NA,NA,NA,NA,NA,Vorwurf,mashtaka,s,msukumo,mtangulizi,uenyekiti,NA,NA,1
5e5e9,"""Richtig""-Screen",canvas.Screen,3_0_1_0_6_1_1,NA,NA,timeout,4997,309458.60000002,309470,309486.1,314466.8,314468.20000005,2024-04-01T09:34:55Z,314483.1,NA,NA,NA,NA,NA,NA,NA,NA,NA,NA,NA,NA,NA,NA,NA,NA,NA,NA,NA,NA,Vorwurf,mashtaka,s,msukumo,mtangulizi,uenyekiti,sdfdsf,1,1
5e5e9,"""Falsch""-Screen",canvas.Screen,3_0_1_0_6_1_2,NA,NA,skipped,NA,314474,NA,NA,314466.8,314474.4000001,2024-04-01T09:34:55Z,314483.1,NA,NA,NA,NA,NA,NA,NA,NA,NA,NA,NA,NA,NA,NA,NA,NA,NA,NA,NA,NA,Vorwurf,mashtaka,s,msukumo,mtangulizi,uenyekiti,sdfdsf,NA,1
5e5e9,shallow,flow.Sequence,3_0_1_0_6_1,NA,NA,completion,12492.8,301959.60000002,301957.3,301974,314466.8,314474.80000007,2024-04-01T09:34:55Z,314483.1,NA,NA,NA,NA,NA,NA,NA,NA,NA,NA,NA,NA,NA,NA,NA,NA,NA,NA,NA,NA,Vorwurf,mashtaka,s,msukumo,mtangulizi,uenyekiti,sdfdsf,NA,1
5e5e9,task,flow.Sequence,3_0_1_0_6,NA,NA,completion,12492.8,301959.5,301957.3,301974,314466.8,314475,2024-04-01T09:34:55Z,314483.1,NA,NA,NA,NA,NA,NA,NA,NA,NA,NA,NA,NA,NA,NA,NA,NA,NA,NA,NA,NA,Vorwurf,mashtaka,s,msukumo,mtangulizi,uenyekiti,sdfdsf,NA,1
5e5e9,deep,flow.Sequence,3_0_1_0_7_0,NA,NA,skipped,NA,314475.20000005,NA,NA,314466.8,314475.30000007,2024-04-01T09:34:55Z,314483.1,NA,NA,NA,NA,NA,NA,NA,NA,NA,NA,NA,NA,NA,NA,NA,NA,NA,NA,NA,NA,Übersicht,kilindo,s,mgusano,chipukizi,kulinganisha,sdfdsf,NA,1
5e5e9,Shallow Question,html.Page,3_0_1_0_7_1_0,mgusano,NA,form submission,7436.2000000715,314475.4000001,314466.8,314483.1,321919.30000007,321919.60000002,2024-04-01T09:35:02Z,321928.7,NA,NA,NA,NA,NA,NA,NA,NA,NA,NA,NA,NA,NA,NA,NA,NA,NA,NA,NA,NA,Übersicht,kilindo,s,mgusano,chipukizi,kulinganisha,NA,NA,1
5e5e9,"""Richtig""-Screen",canvas.Screen,3_0_1_0_7_1_1,NA,NA,skipped,NA,321922.5,NA,NA,321919.30000007,321922.70000005,2024-04-01T09:35:02Z,321928.7,NA,NA,NA,NA,NA,NA,NA,NA,NA,NA,NA,NA,NA,NA,NA,NA,NA,NA,NA,NA,Übersicht,kilindo,s,mgusano,chipukizi,kulinganisha,sdfdsf,NA,1
5e5e9,"""Falsch""-Screen",canvas.Screen,3_0_1_0_7_1_2,NA,NA,timeout,4997,321923.5,321912.496,321928.7,326909,326910.10000002,2024-04-01T09:35:07Z,326925.7,NA,NA,NA,NA,NA,NA,NA,NA,NA,NA,NA,NA,NA,NA,NA,NA,NA,NA,NA,NA,Übersicht,kilindo,s,mgusano,chipukizi,kulinganisha,sdfdsf,0,1
5e5e9,shallow,flow.Sequence,3_0_1_0_7_1,NA,NA,completion,12425.9,314475.4000001,314466.8,314483.1,326909,326910.4000001,2024-04-01T09:35:07Z,326925.7,NA,NA,NA,NA,NA,NA,NA,NA,NA,NA,NA,NA,NA,NA,NA,NA,NA,NA,NA,NA,Übersicht,kilindo,s,mgusano,chipukizi,kulinganisha,sdfdsf,NA,1
5e5e9,task,flow.Sequence,3_0_1_0_7,NA,NA,completion,12425.9,314475.20000005,314466.8,314483.1,326909,326910.60000002,2024-04-01T09:35:07Z,326925.7,NA,NA,NA,NA,NA,NA,NA,NA,NA,NA,NA,NA,NA,NA,NA,NA,NA,NA,NA,NA,Übersicht,kilindo,s,mgusano,chipukizi,kulinganisha,sdfdsf,NA,1
5e5e9,block,flow.Loop,3_0_1_0,NA,NA,completion,101037.602,225883.4000001,225871.398,225871.398,326909,326910.9000001,2024-04-01T09:35:07Z,326925.7,NA,NA,NA,NA,NA,NA,NA,NA,NA,NA,NA,NA,NA,NA,NA,NA,NA,NA,NA,NA,NA,NA,NA,NA,NA,NA,sdfdsf,NA,1
5e5e9,weiter,canvas.Screen,3_0_1_1,sdf,keypress(Space),response,1406.1000000715,326911,326909,326925.7,328331.80000007,328332.9000001,2024-04-01T09:35:09Z,328358.64,NA,NA,NA,NA,NA,NA,NA,NA,NA,NA,NA,NA,NA,NA,NA,NA,NA,NA,NA,NA,NA,NA,NA,NA,NA,NA,sdfdsf,NA,1
5e5e9,check continue,flow.Sequence,3_0_1,NA,NA,completion,102460.40200007,225883.30000007,225871.398,225871.398,328331.80000007,328333.30000007,2024-04-01T09:35:09Z,328358.64,NA,NA,NA,NA,NA,NA,NA,NA,NA,NA,NA,NA,NA,NA,NA,NA,NA,NA,NA,NA,NA,NA,NA,NA,NA,NA,sdfdsf,NA,1
5e5e9,deep,flow.Sequence,3_0_2_0_0_0,NA,NA,skipped,NA,328365.9000001,NA,NA,328331.80000007,328366,2024-04-01T09:35:09Z,328358.64,NA,NA,NA,NA,NA,NA,NA,NA,NA,NA,NA,NA,NA,NA,NA,NA,NA,NA,NA,NA,Körper,kiwiliwili,s,mapambano,mpatanishi,kiolezo,sdf,NA,2
5e5e9,Shallow Question,html.Page,3_0_2_0_0_1_0,kiwiliwili,NA,form submission,4828.6600000715,328366.10000002,328358.64,328358.64,333187.30000007,333187.5,2024-04-01T09:35:14Z,333188.694,NA,NA,NA,NA,NA,NA,NA,NA,NA,NA,NA,NA,NA,NA,NA,NA,NA,NA,NA,NA,Körper,kiwiliwili,s,mapambano,mpatanishi,kiolezo,NA,NA,2
5e5e9,"""Richtig""-Screen",canvas.Screen,3_0_2_0_0_1_1,NA,NA,timeout,4996.606,333190.60000002,333188.694,333188.694,338169,338169.5,2024-04-01T09:35:19Z,338185.3,NA,NA,NA,NA,NA,NA,NA,NA,NA,NA,NA,NA,NA,NA,NA,NA,NA,NA,NA,NA,Körper,kiwiliwili,s,mapambano,mpatanishi,kiolezo,sdf,1,2
5e5e9,"""Falsch""-Screen",canvas.Screen,3_0_2_0_0_1_2,NA,NA,skipped,NA,338171.70000005,NA,NA,338169,338171.70000005,2024-04-01T09:35:19Z,338185.3,NA,NA,NA,NA,NA,NA,NA,NA,NA,NA,NA,NA,NA,NA,NA,NA,NA,NA,NA,NA,Körper,kiwiliwili,s,mapambano,mpatanishi,kiolezo,sdf,NA,2
5e5e9,shallow,flow.Sequence,3_0_2_0_0_1,NA,NA,completion,9810.36,328366.10000002,328358.64,328358.64,338169,338171.80000007,2024-04-01T09:35:19Z,338185.3,NA,NA,NA,NA,NA,NA,NA,NA,NA,NA,NA,NA,NA,NA,NA,NA,NA,NA,NA,NA,Körper,kiwiliwili,s,mapambano,mpatanishi,kiolezo,sdf,NA,2
5e5e9,task,flow.Sequence,3_0_2_0_0,NA,NA,completion,9810.36,328365.9000001,328358.64,328358.64,338169,338172,2024-04-01T09:35:19Z,338185.3,NA,NA,NA,NA,NA,NA,NA,NA,NA,NA,NA,NA,NA,NA,NA,NA,NA,NA,NA,NA,Körper,kiwiliwili,s,mapambano,mpatanishi,kiolezo,sdf,NA,2
5e5e9,deep,flow.Sequence,3_0_2_0_1_0,NA,NA,skipped,NA,338172,NA,NA,338169,338172,2024-04-01T09:35:19Z,338185.3,NA,NA,NA,NA,NA,NA,NA,NA,NA,NA,NA,NA,NA,NA,NA,NA,NA,NA,NA,NA,Entwicklung,maendeleo,s,uangavu,mshindwa,badiliko,sdf,NA,2
5e5e9,Shallow Question,html.Page,3_0_2_0_1_1_0,maendeleo,NA,form submission,5869.8000000239,338172.10000002,338169,338185.3,344055.10000002,344055.4000001,2024-04-01T09:35:24Z,344065.1,NA,NA,NA,NA,NA,NA,NA,NA,NA,NA,NA,NA,NA,NA,NA,NA,NA,NA,NA,NA,Entwicklung,maendeleo,s,uangavu,mshindwa,badiliko,NA,NA,2
5e5e9,"""Richtig""-Screen",canvas.Screen,3_0_2_0_1_1_1,NA,NA,timeout,4996.8,344058.30000007,344048.888,344065.1,349045.3,349046.30000007,2024-04-01T09:35:29Z,349061.9,NA,NA,NA,NA,NA,NA,NA,NA,NA,NA,NA,NA,NA,NA,NA,NA,NA,NA,NA,NA,Entwicklung,maendeleo,s,uangavu,mshindwa,badiliko,sdf,1,2
5e5e9,"""Falsch""-Screen",canvas.Screen,3_0_2_0_1_1_2,NA,NA,skipped,NA,349051.60000002,NA,NA,349045.3,349051.80000007,2024-04-01T09:35:29Z,349061.9,NA,NA,NA,NA,NA,NA,NA,NA,NA,NA,NA,NA,NA,NA,NA,NA,NA,NA,NA,NA,Entwicklung,maendeleo,s,uangavu,mshindwa,badiliko,sdf,NA,2
5e5e9,shallow,flow.Sequence,3_0_2_0_1_1,NA,NA,completion,10860,338172.10000002,338169,338185.3,349045.3,349052.30000007,2024-04-01T09:35:29Z,349061.9,NA,NA,NA,NA,NA,NA,NA,NA,NA,NA,NA,NA,NA,NA,NA,NA,NA,NA,NA,NA,Entwicklung,maendeleo,s,uangavu,mshindwa,badiliko,sdf,NA,2
5e5e9,task,flow.Sequence,3_0_2_0_1,NA,NA,completion,10860,338172,338169,338185.3,349045.3,349052.60000002,2024-04-01T09:35:29Z,349061.9,NA,NA,NA,NA,NA,NA,NA,NA,NA,NA,NA,NA,NA,NA,NA,NA,NA,NA,NA,NA,Entwicklung,maendeleo,s,uangavu,mshindwa,badiliko,sdf,NA,2
5e5e9,Deep Question,html.Page,3_0_2_0_2_0_0,kinwando,NA,form submission,13987.200000024,349052.80000007,349045.3,349061.9,363049.10000002,363049.30000007,2024-04-01T09:35:43Z,363053.5,NA,NA,NA,NA,NA,NA,NA,NA,NA,NA,NA,NA,NA,NA,NA,NA,NA,NA,NA,NA,System,maongozi,d,NA,NA,NA,NA,NA,2
5e5e9,"""Richtig""-Screen",canvas.Screen,3_0_2_0_2_0_1,NA,NA,skipped,NA,363052.4000001,NA,NA,363049.10000002,363052.60000002,2024-04-01T09:35:43Z,363053.5,NA,NA,NA,NA,NA,NA,NA,NA,NA,NA,NA,NA,NA,NA,NA,NA,NA,NA,NA,NA,System,maongozi,d,NA,NA,NA,sdf,NA,2
5e5e9,"""Falsch""-Screen",canvas.Screen,3_0_2_0_2_0_2,NA,NA,timeout,4997,363053.4000001,363039.226,363053.5,368033.9,368034.80000007,2024-04-01T09:35:48Z,368050.5,NA,NA,NA,NA,NA,NA,NA,NA,NA,NA,NA,NA,NA,NA,NA,NA,NA,NA,NA,NA,System,maongozi,d,NA,NA,NA,sdf,0,2
5e5e9,deep,flow.Sequence,3_0_2_0_2_0,NA,NA,completion,18972,349052.80000007,349045.3,349061.9,368033.9,368035.20000005,2024-04-01T09:35:48Z,368050.5,NA,NA,NA,NA,NA,NA,NA,NA,NA,NA,NA,NA,NA,NA,NA,NA,NA,NA,NA,NA,System,maongozi,d,NA,NA,NA,sdf,NA,2
5e5e9,shallow,flow.Sequence,3_0_2_0_2_1,NA,NA,skipped,NA,368035.30000007,NA,NA,368033.9,368035.5,2024-04-01T09:35:48Z,368050.5,NA,NA,NA,NA,NA,NA,NA,NA,NA,NA,NA,NA,NA,NA,NA,NA,NA,NA,NA,NA,System,maongozi,d,NA,NA,NA,sdf,NA,2
5e5e9,task,flow.Sequence,3_0_2_0_2,NA,NA,completion,18972,349052.70000005,349045.3,349061.9,368033.9,368035.70000005,2024-04-01T09:35:48Z,368050.5,NA,NA,NA,NA,NA,NA,NA,NA,NA,NA,NA,NA,NA,NA,NA,NA,NA,NA,NA,NA,System,maongozi,d,NA,NA,NA,sdf,NA,2
5e5e9,Deep Question,html.Page,3_0_2_0_3_0_0,sa,NA,form submission,12245.900000095,368035.9000001,368033.9,368050.5,380296.4000001,380296.60000002,2024-04-01T09:36:01Z,380309.4,NA,NA,NA,NA,NA,NA,NA,NA,NA,NA,NA,NA,NA,NA,NA,NA,NA,NA,NA,NA,Lawine,banguko,d,NA,NA,NA,NA,NA,2
5e5e9,"""Richtig""-Screen",canvas.Screen,3_0_2_0_3_0_1,NA,NA,skipped,NA,380299.60000002,NA,NA,380296.4000001,380299.80000007,2024-04-01T09:36:01Z,380309.4,NA,NA,NA,NA,NA,NA,NA,NA,NA,NA,NA,NA,NA,NA,NA,NA,NA,NA,NA,NA,Lawine,banguko,d,NA,NA,NA,sdf,NA,2
5e5e9,"""Falsch""-Screen",canvas.Screen,3_0_2_0_3_0_2,NA,NA,timeout,4997.1,380300.5,380293.09,380309.4,385289.8,385290.80000007,2024-04-01T09:36:06Z,385306.5,NA,NA,NA,NA,NA,NA,NA,NA,NA,NA,NA,NA,NA,NA,NA,NA,NA,NA,NA,NA,Lawine,banguko,d,NA,NA,NA,sdf,0,2
5e5e9,deep,flow.Sequence,3_0_2_0_3_0,NA,NA,completion,17239.3,368035.9000001,368033.9,368050.5,385289.8,385291.30000007,2024-04-01T09:36:06Z,385306.5,NA,NA,NA,NA,NA,NA,NA,NA,NA,NA,NA,NA,NA,NA,NA,NA,NA,NA,NA,NA,Lawine,banguko,d,NA,NA,NA,sdf,NA,2
5e5e9,shallow,flow.Sequence,3_0_2_0_3_1,NA,NA,skipped,NA,385291.4000001,NA,NA,385289.8,385291.60000002,2024-04-01T09:36:06Z,385306.5,NA,NA,NA,NA,NA,NA,NA,NA,NA,NA,NA,NA,NA,NA,NA,NA,NA,NA,NA,NA,Lawine,banguko,d,NA,NA,NA,sdf,NA,2
5e5e9,task,flow.Sequence,3_0_2_0_3,NA,NA,completion,17239.3,368035.80000007,368033.9,368050.5,385289.8,385291.80000007,2024-04-01T09:36:06Z,385306.5,NA,NA,NA,NA,NA,NA,NA,NA,NA,NA,NA,NA,NA,NA,NA,NA,NA,NA,NA,NA,Lawine,banguko,d,NA,NA,NA,sdf,NA,2
5e5e9,deep,flow.Sequence,3_0_2_0_4_0,NA,NA,skipped,NA,385292,NA,NA,385289.8,385292.10000002,2024-04-01T09:36:06Z,385306.5,NA,NA,NA,NA,NA,NA,NA,NA,NA,NA,NA,NA,NA,NA,NA,NA,NA,NA,NA,NA,Vorwurf,mashtaka,s,msukumo,mtangulizi,uenyekiti,sdf,NA,2
5e5e9,Shallow Question,html.Page,3_0_2_0_4_1_0,mashtaka,NA,form submission,14846.800000072,385292.30000007,385289.8,385306.5,400153.30000007,400153.60000002,2024-04-01T09:36:21Z,400180.9,NA,NA,NA,NA,NA,NA,NA,NA,NA,NA,NA,NA,NA,NA,NA,NA,NA,NA,NA,NA,Vorwurf,mashtaka,s,msukumo,mtangulizi,uenyekiti,NA,NA,2
5e5e9,"""Richtig""-Screen",canvas.Screen,3_0_2_0_4_1_1,NA,NA,timeout,4996.7,400156.20000005,400164.5,400180.9,405161.3,405162.10000002,2024-04-01T09:36:26Z,405177.6,NA,NA,NA,NA,NA,NA,NA,NA,NA,NA,NA,NA,NA,NA,NA,NA,NA,NA,NA,NA,Vorwurf,mashtaka,s,msukumo,mtangulizi,uenyekiti,sdf,1,2
5e5e9,"""Falsch""-Screen",canvas.Screen,3_0_2_0_4_1_2,NA,NA,skipped,NA,405167.9000001,NA,NA,405161.3,405168.20000005,2024-04-01T09:36:26Z,405177.6,NA,NA,NA,NA,NA,NA,NA,NA,NA,NA,NA,NA,NA,NA,NA,NA,NA,NA,NA,NA,Vorwurf,mashtaka,s,msukumo,mtangulizi,uenyekiti,sdf,NA,2
5e5e9,shallow,flow.Sequence,3_0_2_0_4_1,NA,NA,completion,19854.8,385292.20000005,385289.8,385306.5,405161.3,405168.60000002,2024-04-01T09:36:26Z,405177.6,NA,NA,NA,NA,NA,NA,NA,NA,NA,NA,NA,NA,NA,NA,NA,NA,NA,NA,NA,NA,Vorwurf,mashtaka,s,msukumo,mtangulizi,uenyekiti,sdf,NA,2
5e5e9,task,flow.Sequence,3_0_2_0_4,NA,NA,completion,19854.8,385292,385289.8,385306.5,405161.3,405168.70000005,2024-04-01T09:36:26Z,405177.6,NA,NA,NA,NA,NA,NA,NA,NA,NA,NA,NA,NA,NA,NA,NA,NA,NA,NA,NA,NA,Vorwurf,mashtaka,s,msukumo,mtangulizi,uenyekiti,sdf,NA,2
5e5e9,Deep Question,html.Page,3_0_2_0_5_0_0,kaka,NA,form submission,7291.8000000954,405168.9000001,405161.3,405177.6,412469.4000001,412469.70000005,2024-04-01T09:36:33Z,412473.528,NA,NA,NA,NA,NA,NA,NA,NA,NA,NA,NA,NA,NA,NA,NA,NA,NA,NA,NA,NA,Papier,karatasi,d,NA,NA,NA,NA,NA,2
5e5e9,"""Richtig""-Screen",canvas.Screen,3_0_2_0_5_0_1,NA,NA,skipped,NA,412472.60000002,NA,NA,412469.4000001,412472.80000007,2024-04-01T09:36:33Z,412473.528,NA,NA,NA,NA,NA,NA,NA,NA,NA,NA,NA,NA,NA,NA,NA,NA,NA,NA,NA,NA,Papier,karatasi,d,NA,NA,NA,sdf,NA,2
5e5e9,"""Falsch""-Screen",canvas.Screen,3_0_2_0_5_0_2,NA,NA,timeout,4996.772,412473.70000005,412473.528,412473.528,417453.5,417454.5,2024-04-01T09:36:38Z,417470.3,NA,NA,NA,NA,NA,NA,NA,NA,NA,NA,NA,NA,NA,NA,NA,NA,NA,NA,NA,NA,Papier,karatasi,d,NA,NA,NA,sdf,0,2
5e5e9,deep,flow.Sequence,3_0_2_0_5_0,NA,NA,completion,12275.9,405168.9000001,405161.3,405177.6,417453.5,417454.9000001,2024-04-01T09:36:38Z,417470.3,NA,NA,NA,NA,NA,NA,NA,NA,NA,NA,NA,NA,NA,NA,NA,NA,NA,NA,NA,NA,Papier,karatasi,d,NA,NA,NA,sdf,NA,2
5e5e9,shallow,flow.Sequence,3_0_2_0_5_1,NA,NA,skipped,NA,417455,NA,NA,417453.5,417455.20000005,2024-04-01T09:36:38Z,417470.3,NA,NA,NA,NA,NA,NA,NA,NA,NA,NA,NA,NA,NA,NA,NA,NA,NA,NA,NA,NA,Papier,karatasi,d,NA,NA,NA,sdf,NA,2
5e5e9,task,flow.Sequence,3_0_2_0_5,NA,NA,completion,12275.9,405168.80000007,405161.3,405177.6,417453.5,417455.4000001,2024-04-01T09:36:38Z,417470.3,NA,NA,NA,NA,NA,NA,NA,NA,NA,NA,NA,NA,NA,NA,NA,NA,NA,NA,NA,NA,Papier,karatasi,d,NA,NA,NA,sdf,NA,2
5e5e9,Deep Question,html.Page,3_0_2_0_6_0_0,afjaj,NA,form submission,12730.400000048,417455.60000002,417453.5,417470.3,430200.70000005,430200.9000001,2024-04-01T09:36:51Z,430212.3,NA,NA,NA,NA,NA,NA,NA,NA,NA,NA,NA,NA,NA,NA,NA,NA,NA,NA,NA,NA,Niveau,kiwango,d,NA,NA,NA,NA,NA,2
5e5e9,"""Richtig""-Screen",canvas.Screen,3_0_2_0_6_0_1,NA,NA,skipped,NA,430204,NA,NA,430200.70000005,430204.10000002,2024-04-01T09:36:51Z,430212.3,NA,NA,NA,NA,NA,NA,NA,NA,NA,NA,NA,NA,NA,NA,NA,NA,NA,NA,NA,NA,Niveau,kiwango,d,NA,NA,NA,sdf,NA,2
5e5e9,"""Falsch""-Screen",canvas.Screen,3_0_2_0_6_0_2,NA,NA,timeout,4997.4,430204.5,430197.256,430212.3,435193,435193.80000007,2024-04-01T09:36:56Z,435209.7,NA,NA,NA,NA,NA,NA,NA,NA,NA,NA,NA,NA,NA,NA,NA,NA,NA,NA,NA,NA,Niveau,kiwango,d,NA,NA,NA,sdf,0,2
5e5e9,deep,flow.Sequence,3_0_2_0_6_0,NA,NA,completion,17722.7,417455.60000002,417453.5,417470.3,435193,435194.20000005,2024-04-01T09:36:56Z,435209.7,NA,NA,NA,NA,NA,NA,NA,NA,NA,NA,NA,NA,NA,NA,NA,NA,NA,NA,NA,NA,Niveau,kiwango,d,NA,NA,NA,sdf,NA,2
5e5e9,shallow,flow.Sequence,3_0_2_0_6_1,NA,NA,skipped,NA,435194.30000007,NA,NA,435193,435194.4000001,2024-04-01T09:36:56Z,435209.7,NA,NA,NA,NA,NA,NA,NA,NA,NA,NA,NA,NA,NA,NA,NA,NA,NA,NA,NA,NA,Niveau,kiwango,d,NA,NA,NA,sdf,NA,2
5e5e9,task,flow.Sequence,3_0_2_0_6,NA,NA,completion,17722.7,417455.4000001,417453.5,417470.3,435193,435194.60000002,2024-04-01T09:36:56Z,435209.7,NA,NA,NA,NA,NA,NA,NA,NA,NA,NA,NA,NA,NA,NA,NA,NA,NA,NA,NA,NA,Niveau,kiwango,d,NA,NA,NA,sdf,NA,2
5e5e9,deep,flow.Sequence,3_0_2_0_7_0,NA,NA,skipped,NA,435194.80000007,NA,NA,435193,435194.9000001,2024-04-01T09:36:56Z,435209.7,NA,NA,NA,NA,NA,NA,NA,NA,NA,NA,NA,NA,NA,NA,NA,NA,NA,NA,NA,NA,Übersicht,kilindo,s,mgusano,chipukizi,kulinganisha,sdf,NA,2
5e5e9,Shallow Question,html.Page,3_0_2_0_7_1_0,mgusano,NA,form submission,22660.200000095,435195,435193,435209.7,457869.9000001,457870.20000005,2024-04-01T09:37:18Z,457895.5,NA,NA,NA,NA,NA,NA,NA,NA,NA,NA,NA,NA,NA,NA,NA,NA,NA,NA,NA,NA,Übersicht,kilindo,s,mgusano,chipukizi,kulinganisha,NA,NA,2
5e5e9,"""Richtig""-Screen",canvas.Screen,3_0_2_0_7_1_1,NA,NA,skipped,NA,457873.4000001,NA,NA,457869.9000001,457873.5,2024-04-01T09:37:18Z,457895.5,NA,NA,NA,NA,NA,NA,NA,NA,NA,NA,NA,NA,NA,NA,NA,NA,NA,NA,NA,NA,Übersicht,kilindo,s,mgusano,chipukizi,kulinganisha,sdf,NA,2
5e5e9,"""Falsch""-Screen",canvas.Screen,3_0_2_0_7_1_2,NA,NA,timeout,4997.2,457874.20000005,457879.284,457895.5,462875.6,462876.60000002,2024-04-01T09:37:23Z,462892.7,NA,NA,NA,NA,NA,NA,NA,NA,NA,NA,NA,NA,NA,NA,NA,NA,NA,NA,NA,NA,Übersicht,kilindo,s,mgusano,chipukizi,kulinganisha,sdf,0,2
5e5e9,shallow,flow.Sequence,3_0_2_0_7_1,NA,NA,completion,27665.9,435195,435193,435209.7,462875.6,462876.9000001,2024-04-01T09:37:23Z,462892.7,NA,NA,NA,NA,NA,NA,NA,NA,NA,NA,NA,NA,NA,NA,NA,NA,NA,NA,NA,NA,Übersicht,kilindo,s,mgusano,chipukizi,kulinganisha,sdf,NA,2
5e5e9,task,flow.Sequence,3_0_2_0_7,NA,NA,completion,27665.9,435194.80000007,435193,435209.7,462875.6,462877.20000005,2024-04-01T09:37:23Z,462892.7,NA,NA,NA,NA,NA,NA,NA,NA,NA,NA,NA,NA,NA,NA,NA,NA,NA,NA,NA,NA,Übersicht,kilindo,s,mgusano,chipukizi,kulinganisha,sdf,NA,2
5e5e9,block,flow.Loop,3_0_2_0,NA,NA,completion,134516.96,328365.9000001,328358.64,328358.64,462875.6,462877.5,2024-04-01T09:37:23Z,462892.7,NA,NA,NA,NA,NA,NA,NA,NA,NA,NA,NA,NA,NA,NA,NA,NA,NA,NA,NA,NA,NA,NA,NA,NA,NA,NA,sdf,NA,2
5e5e9,weiter,canvas.Screen,3_0_2_1,sdf,keypress(Space),response,1879.2000000954,462877.60000002,462875.6,462892.7,464771.9000001,464773.10000002,2024-04-01T09:37:25Z,464807.8,NA,NA,NA,NA,NA,NA,NA,NA,NA,NA,NA,NA,NA,NA,NA,NA,NA,NA,NA,NA,NA,NA,NA,NA,NA,NA,sdf,NA,2
5e5e9,check continue,flow.Sequence,3_0_2,NA,NA,completion,136413.2600001,328365.80000007,328358.64,328358.64,464771.9000001,464773.4000001,2024-04-01T09:37:25Z,464807.8,NA,NA,NA,NA,NA,NA,NA,NA,NA,NA,NA,NA,NA,NA,NA,NA,NA,NA,NA,NA,NA,NA,NA,NA,NA,NA,sdf,NA,2
5e5e9,deep,flow.Sequence,3_0_3_0_0_0,NA,NA,skipped,NA,464807.10000002,NA,NA,464771.9000001,464807.10000002,2024-04-01T09:37:25Z,464807.8,NA,NA,NA,NA,NA,NA,NA,NA,NA,NA,NA,NA,NA,NA,NA,NA,NA,NA,NA,NA,Vorwurf,mashtaka,s,msukumo,mtangulizi,uenyekiti,qt,NA,3
5e5e9,Shallow Question,html.Page,3_0_3_0_0_1_0,mashtaka,NA,form submission,7521.4000000477,464807.20000005,464792.124,464807.8,472329.20000005,472329.5,2024-04-01T09:37:33Z,472336.4,NA,NA,NA,NA,NA,NA,NA,NA,NA,NA,NA,NA,NA,NA,NA,NA,NA,NA,NA,NA,Vorwurf,mashtaka,s,msukumo,mtangulizi,uenyekiti,NA,NA,3
5e5e9,"""Richtig""-Screen",canvas.Screen,3_0_3_0_0_1_1,NA,NA,timeout,4997,472332.4000001,472320.392,472336.4,477316.7,477317.70000005,2024-04-01T09:37:38Z,477333.4,NA,NA,NA,NA,NA,NA,NA,NA,NA,NA,NA,NA,NA,NA,NA,NA,NA,NA,NA,NA,Vorwurf,mashtaka,s,msukumo,mtangulizi,uenyekiti,qt,1,3
5e5e9,"""Falsch""-Screen",canvas.Screen,3_0_3_0_0_1_2,NA,NA,skipped,NA,477323.30000007,NA,NA,477316.7,477323.60000002,2024-04-01T09:37:38Z,477333.4,NA,NA,NA,NA,NA,NA,NA,NA,NA,NA,NA,NA,NA,NA,NA,NA,NA,NA,NA,NA,Vorwurf,mashtaka,s,msukumo,mtangulizi,uenyekiti,qt,NA,3
5e5e9,shallow,flow.Sequence,3_0_3_0_0_1,NA,NA,completion,12508.9,464807.20000005,464792.124,464807.8,477316.7,477323.9000001,2024-04-01T09:37:38Z,477333.4,NA,NA,NA,NA,NA,NA,NA,NA,NA,NA,NA,NA,NA,NA,NA,NA,NA,NA,NA,NA,Vorwurf,mashtaka,s,msukumo,mtangulizi,uenyekiti,qt,NA,3
5e5e9,task,flow.Sequence,3_0_3_0_0,NA,NA,completion,12508.9,464807.10000002,464792.124,464807.8,477316.7,477324,2024-04-01T09:37:38Z,477333.4,NA,NA,NA,NA,NA,NA,NA,NA,NA,NA,NA,NA,NA,NA,NA,NA,NA,NA,NA,NA,Vorwurf,mashtaka,s,msukumo,mtangulizi,uenyekiti,qt,NA,3
5e5e9,deep,flow.Sequence,3_0_3_0_1_0,NA,NA,skipped,NA,477324.20000005,NA,NA,477316.7,477324.4000001,2024-04-01T09:37:38Z,477333.4,NA,NA,NA,NA,NA,NA,NA,NA,NA,NA,NA,NA,NA,NA,NA,NA,NA,NA,NA,NA,Entwicklung,maendeleo,s,uangavu,mshindwa,badiliko,qt,NA,3
5e5e9,Shallow Question,html.Page,3_0_3_0_1_1_0,maendeleo,NA,form submission,4533.3000000477,477324.4000001,477316.7,477333.4,481866.70000005,481866.9000001,2024-04-01T09:37:42Z,481897.7,NA,NA,NA,NA,NA,NA,NA,NA,NA,NA,NA,NA,NA,NA,NA,NA,NA,NA,NA,NA,Entwicklung,maendeleo,s,uangavu,mshindwa,badiliko,NA,NA,3
5e5e9,"""Richtig""-Screen",canvas.Screen,3_0_3_0_1_1_1,NA,NA,timeout,4996.6,481869.70000005,481881.278,481897.7,486877.9,486878.9000001,2024-04-01T09:37:47Z,486894.3,NA,NA,NA,NA,NA,NA,NA,NA,NA,NA,NA,NA,NA,NA,NA,NA,NA,NA,NA,NA,Entwicklung,maendeleo,s,uangavu,mshindwa,badiliko,qt,1,3
5e5e9,"""Falsch""-Screen",canvas.Screen,3_0_3_0_1_1_2,NA,NA,skipped,NA,486884.5,NA,NA,486877.9,486884.70000005,2024-04-01T09:37:47Z,486894.3,NA,NA,NA,NA,NA,NA,NA,NA,NA,NA,NA,NA,NA,NA,NA,NA,NA,NA,NA,NA,Entwicklung,maendeleo,s,uangavu,mshindwa,badiliko,qt,NA,3
5e5e9,shallow,flow.Sequence,3_0_3_0_1_1,NA,NA,completion,9544.5,477324.4000001,477316.7,477333.4,486877.9,486885,2024-04-01T09:37:47Z,486894.3,NA,NA,NA,NA,NA,NA,NA,NA,NA,NA,NA,NA,NA,NA,NA,NA,NA,NA,NA,NA,Entwicklung,maendeleo,s,uangavu,mshindwa,badiliko,qt,NA,3
5e5e9,task,flow.Sequence,3_0_3_0_1,NA,NA,completion,9544.5,477324.20000005,477316.7,477333.4,486877.9,486885.30000007,2024-04-01T09:37:47Z,486894.3,NA,NA,NA,NA,NA,NA,NA,NA,NA,NA,NA,NA,NA,NA,NA,NA,NA,NA,NA,NA,Entwicklung,maendeleo,s,uangavu,mshindwa,badiliko,qt,NA,3
5e5e9,deep,flow.Sequence,3_0_3_0_2_0,NA,NA,skipped,NA,486885.4000001,NA,NA,486877.9,486885.5,2024-04-01T09:37:47Z,486894.3,NA,NA,NA,NA,NA,NA,NA,NA,NA,NA,NA,NA,NA,NA,NA,NA,NA,NA,NA,NA,Übersicht,kilindo,s,mgusano,chipukizi,kulinganisha,qt,NA,3
5e5e9,Shallow Question,html.Page,3_0_3_0_2_1_0,kilindo,NA,form submission,4456.4000000477,486885.70000005,486877.9,486894.3,491350.70000005,491350.9000001,2024-04-01T09:37:52Z,491375.3,NA,NA,NA,NA,NA,NA,NA,NA,NA,NA,NA,NA,NA,NA,NA,NA,NA,NA,NA,NA,Übersicht,kilindo,s,mgusano,chipukizi,kulinganisha,NA,NA,3
5e5e9,"""Richtig""-Screen",canvas.Screen,3_0_3_0_2_1_1,NA,NA,timeout,4996.8,491353.70000005,491358.5,491375.3,496355.1,496356,2024-04-01T09:37:57Z,496372.1,NA,NA,NA,NA,NA,NA,NA,NA,NA,NA,NA,NA,NA,NA,NA,NA,NA,NA,NA,NA,Übersicht,kilindo,s,mgusano,chipukizi,kulinganisha,qt,1,3
5e5e9,"""Falsch""-Screen",canvas.Screen,3_0_3_0_2_1_2,NA,NA,skipped,NA,496360.9000001,NA,NA,496355.1,496361.20000005,2024-04-01T09:37:57Z,496372.1,NA,NA,NA,NA,NA,NA,NA,NA,NA,NA,NA,NA,NA,NA,NA,NA,NA,NA,NA,NA,Übersicht,kilindo,s,mgusano,chipukizi,kulinganisha,qt,NA,3
5e5e9,shallow,flow.Sequence,3_0_3_0_2_1,NA,NA,completion,9460.8,486885.70000005,486877.9,486894.3,496355.1,496361.20000005,2024-04-01T09:37:57Z,496372.1,NA,NA,NA,NA,NA,NA,NA,NA,NA,NA,NA,NA,NA,NA,NA,NA,NA,NA,NA,NA,Übersicht,kilindo,s,mgusano,chipukizi,kulinganisha,qt,NA,3
5e5e9,task,flow.Sequence,3_0_3_0_2,NA,NA,completion,9460.8,486885.4000001,486877.9,486894.3,496355.1,496361.30000007,2024-04-01T09:37:57Z,496372.1,NA,NA,NA,NA,NA,NA,NA,NA,NA,NA,NA,NA,NA,NA,NA,NA,NA,NA,NA,NA,Übersicht,kilindo,s,mgusano,chipukizi,kulinganisha,qt,NA,3
5e5e9,Deep Question,html.Page,3_0_3_0_3_0_0,menguzi,NA,form submission,16775.000000024,496361.4000001,496355.1,496372.1,513147.10000002,513147.30000007,2024-04-01T09:38:14Z,513161.5,NA,NA,NA,NA,NA,NA,NA,NA,NA,NA,NA,NA,NA,NA,NA,NA,NA,NA,NA,NA,System,maongozi,d,NA,NA,NA,NA,NA,3
5e5e9,"""Richtig""-Screen",canvas.Screen,3_0_3_0_3_0_1,NA,NA,skipped,NA,513150.4000001,NA,NA,513147.10000002,513150.5,2024-04-01T09:38:14Z,513161.5,NA,NA,NA,NA,NA,NA,NA,NA,NA,NA,NA,NA,NA,NA,NA,NA,NA,NA,NA,NA,System,maongozi,d,NA,NA,NA,qt,NA,3
5e5e9,"""Falsch""-Screen",canvas.Screen,3_0_3_0_3_0_2,NA,NA,timeout,4997.2,513151.30000007,513145.598,513161.5,518142.3,518143.30000007,2024-04-01T09:38:19Z,518158.7,NA,NA,NA,NA,NA,NA,NA,NA,NA,NA,NA,NA,NA,NA,NA,NA,NA,NA,NA,NA,System,maongozi,d,NA,NA,NA,qt,0,3
5e5e9,deep,flow.Sequence,3_0_3_0_3_0,NA,NA,completion,21770.2,496361.4000001,496355.1,496372.1,518142.3,518143.70000005,2024-04-01T09:38:19Z,518158.7,NA,NA,NA,NA,NA,NA,NA,NA,NA,NA,NA,NA,NA,NA,NA,NA,NA,NA,NA,NA,System,maongozi,d,NA,NA,NA,qt,NA,3
5e5e9,shallow,flow.Sequence,3_0_3_0_3_1,NA,NA,skipped,NA,518143.80000007,NA,NA,518142.3,518143.9000001,2024-04-01T09:38:19Z,518158.7,NA,NA,NA,NA,NA,NA,NA,NA,NA,NA,NA,NA,NA,NA,NA,NA,NA,NA,NA,NA,System,maongozi,d,NA,NA,NA,qt,NA,3
5e5e9,task,flow.Sequence,3_0_3_0_3,NA,NA,completion,21770.2,496361.30000007,496355.1,496372.1,518142.3,518144.10000002,2024-04-01T09:38:19Z,518158.7,NA,NA,NA,NA,NA,NA,NA,NA,NA,NA,NA,NA,NA,NA,NA,NA,NA,NA,NA,NA,System,maongozi,d,NA,NA,NA,qt,NA,3
5e5e9,Deep Question,html.Page,3_0_3_0_4_0_0,sksk,NA,form submission,12910.100000072,518144.4000001,518142.3,518158.7,531068.80000007,531069,2024-04-01T09:38:31Z,531083.8,NA,NA,NA,NA,NA,NA,NA,NA,NA,NA,NA,NA,NA,NA,NA,NA,NA,NA,NA,NA,Papier,karatasi,d,NA,NA,NA,NA,NA,3
5e5e9,"""Richtig""-Screen",canvas.Screen,3_0_3_0_4_0_1,NA,NA,skipped,NA,531072.30000007,NA,NA,531068.80000007,531072.5,2024-04-01T09:38:31Z,531083.8,NA,NA,NA,NA,NA,NA,NA,NA,NA,NA,NA,NA,NA,NA,NA,NA,NA,NA,NA,NA,Papier,karatasi,d,NA,NA,NA,qt,NA,3
5e5e9,"""Falsch""-Screen",canvas.Screen,3_0_3_0_4_0_2,NA,NA,timeout,4997,531073.30000007,531068.994,531083.8,536064.2,536065.20000005,2024-04-01T09:38:36Z,536080.8,NA,NA,NA,NA,NA,NA,NA,NA,NA,NA,NA,NA,NA,NA,NA,NA,NA,NA,NA,NA,Papier,karatasi,d,NA,NA,NA,qt,0,3
5e5e9,deep,flow.Sequence,3_0_3_0_4_0,NA,NA,completion,17905.5,518144.30000007,518142.3,518158.7,536064.2,536065.70000005,2024-04-01T09:38:36Z,536080.8,NA,NA,NA,NA,NA,NA,NA,NA,NA,NA,NA,NA,NA,NA,NA,NA,NA,NA,NA,NA,Papier,karatasi,d,NA,NA,NA,qt,NA,3
5e5e9,shallow,flow.Sequence,3_0_3_0_4_1,NA,NA,skipped,NA,536065.80000007,NA,NA,536064.2,536065.9000001,2024-04-01T09:38:36Z,536080.8,NA,NA,NA,NA,NA,NA,NA,NA,NA,NA,NA,NA,NA,NA,NA,NA,NA,NA,NA,NA,Papier,karatasi,d,NA,NA,NA,qt,NA,3
5e5e9,task,flow.Sequence,3_0_3_0_4,NA,NA,completion,17905.5,518144.20000005,518142.3,518158.7,536064.2,536066.10000002,2024-04-01T09:38:36Z,536080.8,NA,NA,NA,NA,NA,NA,NA,NA,NA,NA,NA,NA,NA,NA,NA,NA,NA,NA,NA,NA,Papier,karatasi,d,NA,NA,NA,qt,NA,3
5e5e9,deep,flow.Sequence,3_0_3_0_5_0,NA,NA,skipped,NA,536066.30000007,NA,NA,536064.2,536066.4000001,2024-04-01T09:38:36Z,536080.8,NA,NA,NA,NA,NA,NA,NA,NA,NA,NA,NA,NA,NA,NA,NA,NA,NA,NA,NA,NA,Körper,kiwiliwili,s,mapambano,mpatanishi,kiolezo,qt,NA,3
5e5e9,Shallow Question,html.Page,3_0_3_0_5_1_0,kiwiliwili,NA,form submission,7064.2,536066.5,536064.2,536080.8,543145,543145.30000007,2024-04-01T09:38:44Z,543176.4,NA,NA,NA,NA,NA,NA,NA,NA,NA,NA,NA,NA,NA,NA,NA,NA,NA,NA,NA,NA,Körper,kiwiliwili,s,mapambano,mpatanishi,kiolezo,NA,NA,3
5e5e9,"""Richtig""-Screen",canvas.Screen,3_0_3_0_5_1_1,NA,NA,timeout,4997,543148.5,543159.766,543176.4,548156.8,548157.80000007,2024-04-01T09:38:49Z,548173.4,NA,NA,NA,NA,NA,NA,NA,NA,NA,NA,NA,NA,NA,NA,NA,NA,NA,NA,NA,NA,Körper,kiwiliwili,s,mapambano,mpatanishi,kiolezo,qt,1,3
5e5e9,"""Falsch""-Screen",canvas.Screen,3_0_3_0_5_1_2,NA,NA,skipped,NA,548163.30000007,NA,NA,548156.8,548163.60000002,2024-04-01T09:38:49Z,548173.4,NA,NA,NA,NA,NA,NA,NA,NA,NA,NA,NA,NA,NA,NA,NA,NA,NA,NA,NA,NA,Körper,kiwiliwili,s,mapambano,mpatanishi,kiolezo,qt,NA,3
5e5e9,shallow,flow.Sequence,3_0_3_0_5_1,NA,NA,completion,12076,536066.5,536064.2,536080.8,548156.8,548163.80000007,2024-04-01T09:38:49Z,548173.4,NA,NA,NA,NA,NA,NA,NA,NA,NA,NA,NA,NA,NA,NA,NA,NA,NA,NA,NA,NA,Körper,kiwiliwili,s,mapambano,mpatanishi,kiolezo,qt,NA,3
5e5e9,task,flow.Sequence,3_0_3_0_5,NA,NA,completion,12076,536066.30000007,536064.2,536080.8,548156.8,548164,2024-04-01T09:38:49Z,548173.4,NA,NA,NA,NA,NA,NA,NA,NA,NA,NA,NA,NA,NA,NA,NA,NA,NA,NA,NA,NA,Körper,kiwiliwili,s,mapambano,mpatanishi,kiolezo,qt,NA,3
5e5e9,Deep Question,html.Page,3_0_3_0_6_0_0,kelendo,NA,form submission,16468.700000024,548164.30000007,548156.8,548173.4,564642.10000002,564642.30000007,2024-04-01T09:39:05Z,564646.888,NA,NA,NA,NA,NA,NA,NA,NA,NA,NA,NA,NA,NA,NA,NA,NA,NA,NA,NA,NA,Lawine,banguko,d,NA,NA,NA,NA,NA,3
5e5e9,"""Richtig""-Screen",canvas.Screen,3_0_3_0_6_0_1,NA,NA,skipped,NA,564645.4000001,NA,NA,564642.10000002,564645.5,2024-04-01T09:39:05Z,564646.888,NA,NA,NA,NA,NA,NA,NA,NA,NA,NA,NA,NA,NA,NA,NA,NA,NA,NA,NA,NA,Lawine,banguko,d,NA,NA,NA,qt,NA,3
5e5e9,"""Falsch""-Screen",canvas.Screen,3_0_3_0_6_0_2,NA,NA,timeout,4996.612,564646.30000007,564646.888,564646.888,569626.9,569627.9000001,2024-04-01T09:39:10Z,569643.5,NA,NA,NA,NA,NA,NA,NA,NA,NA,NA,NA,NA,NA,NA,NA,NA,NA,NA,NA,NA,Lawine,banguko,d,NA,NA,NA,qt,0,3
5e5e9,deep,flow.Sequence,3_0_3_0_6_0,NA,NA,completion,21453.5,548164.20000005,548156.8,548173.4,569626.9,569628.4000001,2024-04-01T09:39:10Z,569643.5,NA,NA,NA,NA,NA,NA,NA,NA,NA,NA,NA,NA,NA,NA,NA,NA,NA,NA,NA,NA,Lawine,banguko,d,NA,NA,NA,qt,NA,3
5e5e9,shallow,flow.Sequence,3_0_3_0_6_1,NA,NA,skipped,NA,569628.5,NA,NA,569626.9,569628.60000002,2024-04-01T09:39:10Z,569643.5,NA,NA,NA,NA,NA,NA,NA,NA,NA,NA,NA,NA,NA,NA,NA,NA,NA,NA,NA,NA,Lawine,banguko,d,NA,NA,NA,qt,NA,3
5e5e9,task,flow.Sequence,3_0_3_0_6,NA,NA,completion,21453.5,548164.10000002,548156.8,548173.4,569626.9,569628.80000007,2024-04-01T09:39:10Z,569643.5,NA,NA,NA,NA,NA,NA,NA,NA,NA,NA,NA,NA,NA,NA,NA,NA,NA,NA,NA,NA,Lawine,banguko,d,NA,NA,NA,qt,NA,3
5e5e9,Deep Question,html.Page,3_0_3_0_7_0_0,saa,NA,form submission,9642.9000000954,569629,569626.9,569643.5,579286.4000001,579286.60000002,2024-04-01T09:39:20Z,579289.11,NA,NA,NA,NA,NA,NA,NA,NA,NA,NA,NA,NA,NA,NA,NA,NA,NA,NA,NA,NA,Niveau,kiwango,d,NA,NA,NA,NA,NA,3
5e5e9,"""Richtig""-Screen",canvas.Screen,3_0_3_0_7_0_1,NA,NA,skipped,NA,579290.30000007,NA,NA,579286.4000001,579290.5,2024-04-01T09:39:20Z,579289.11,NA,NA,NA,NA,NA,NA,NA,NA,NA,NA,NA,NA,NA,NA,NA,NA,NA,NA,NA,NA,Niveau,kiwango,d,NA,NA,NA,qt,NA,3
5e5e9,"""Falsch""-Screen",canvas.Screen,3_0_3_0_7_0_2,NA,NA,timeout,4995.79,579291.30000007,579289.11,579289.11,584268.1,584269,2024-04-01T09:39:25Z,584284.9,NA,NA,NA,NA,NA,NA,NA,NA,NA,NA,NA,NA,NA,NA,NA,NA,NA,NA,NA,NA,Niveau,kiwango,d,NA,NA,NA,qt,0,3
5e5e9,deep,flow.Sequence,3_0_3_0_7_0,NA,NA,completion,14624.6,569628.9000001,569626.9,569643.5,584268.1,584269.30000007,2024-04-01T09:39:25Z,584284.9,NA,NA,NA,NA,NA,NA,NA,NA,NA,NA,NA,NA,NA,NA,NA,NA,NA,NA,NA,NA,Niveau,kiwango,d,NA,NA,NA,qt,NA,3
5e5e9,shallow,flow.Sequence,3_0_3_0_7_1,NA,NA,skipped,NA,584269.5,NA,NA,584268.1,584269.60000002,2024-04-01T09:39:25Z,584284.9,NA,NA,NA,NA,NA,NA,NA,NA,NA,NA,NA,NA,NA,NA,NA,NA,NA,NA,NA,NA,Niveau,kiwango,d,NA,NA,NA,qt,NA,3
5e5e9,task,flow.Sequence,3_0_3_0_7,NA,NA,completion,14624.6,569628.9000001,569626.9,569643.5,584268.1,584269.80000007,2024-04-01T09:39:25Z,584284.9,NA,NA,NA,NA,NA,NA,NA,NA,NA,NA,NA,NA,NA,NA,NA,NA,NA,NA,NA,NA,Niveau,kiwango,d,NA,NA,NA,qt,NA,3
5e5e9,block,flow.Loop,3_0_3_0,NA,NA,completion,119460.3,464807.10000002,464792.124,464807.8,584268.1,584270.10000002,2024-04-01T09:39:25Z,584284.9,NA,NA,NA,NA,NA,NA,NA,NA,NA,NA,NA,NA,NA,NA,NA,NA,NA,NA,NA,NA,NA,NA,NA,NA,NA,NA,qt,NA,3
5e5e9,weiter,canvas.Screen,3_0_3_1,sdf,keypress(Space),response,942.30000004766,584270.20000005,584268.1,584284.9,585227.20000005,585228.20000005,2024-04-01T09:39:26Z,585250.6,NA,NA,NA,NA,NA,NA,NA,NA,NA,NA,NA,NA,NA,NA,NA,NA,NA,NA,NA,NA,NA,NA,NA,NA,NA,NA,qt,NA,3
5e5e9,check continue,flow.Sequence,3_0_3,NA,NA,completion,120419.40000005,464807.10000002,464792.124,464807.8,585227.20000005,585228.60000002,2024-04-01T09:39:26Z,585250.6,NA,NA,NA,NA,NA,NA,NA,NA,NA,NA,NA,NA,NA,NA,NA,NA,NA,NA,NA,NA,NA,NA,NA,NA,NA,NA,qt,NA,3
5e5e9,deep,flow.Sequence,3_0_4_0_0_0,NA,NA,skipped,NA,585246.9000001,NA,NA,585227.20000005,585246.9000001,2024-04-01T09:39:26Z,585250.6,NA,NA,NA,NA,NA,NA,NA,NA,NA,NA,NA,NA,NA,NA,NA,NA,NA,NA,NA,NA,Vorwurf,mashtaka,s,msukumo,mtangulizi,uenyekiti,sd,NA,4
5e5e9,Shallow Question,html.Page,3_0_4_0_0_1_0,mashtaka,NA,form submission,6594.4,585247,585234.862,585250.6,591845,591845.4000001,2024-04-01T09:39:32Z,591847.082,NA,NA,NA,NA,NA,NA,NA,NA,NA,NA,NA,NA,NA,NA,NA,NA,NA,NA,NA,NA,Vorwurf,mashtaka,s,msukumo,mtangulizi,uenyekiti,NA,NA,4
5e5e9,"""Richtig""-Screen",canvas.Screen,3_0_4_0_0_1_1,NA,NA,timeout,4996.6179999999,591848.5,591847.082,591847.082,596827,596828,2024-04-01T09:39:37Z,596843.7,NA,NA,NA,NA,NA,NA,NA,NA,NA,NA,NA,NA,NA,NA,NA,NA,NA,NA,NA,NA,Vorwurf,mashtaka,s,msukumo,mtangulizi,uenyekiti,sd,1,4
5e5e9,"""Falsch""-Screen",canvas.Screen,3_0_4_0_0_1_2,NA,NA,skipped,NA,596833.4000001,NA,NA,596827,596833.5,2024-04-01T09:39:37Z,596843.7,NA,NA,NA,NA,NA,NA,NA,NA,NA,NA,NA,NA,NA,NA,NA,NA,NA,NA,NA,NA,Vorwurf,mashtaka,s,msukumo,mtangulizi,uenyekiti,sd,NA,4
5e5e9,shallow,flow.Sequence,3_0_4_0_0_1,NA,NA,completion,11576.4,585247,585234.862,585250.6,596827,596833.80000007,2024-04-01T09:39:37Z,596843.7,NA,NA,NA,NA,NA,NA,NA,NA,NA,NA,NA,NA,NA,NA,NA,NA,NA,NA,NA,NA,Vorwurf,mashtaka,s,msukumo,mtangulizi,uenyekiti,sd,NA,4
5e5e9,task,flow.Sequence,3_0_4_0_0,NA,NA,completion,11576.4,585246.9000001,585234.862,585250.6,596827,596834,2024-04-01T09:39:37Z,596843.7,NA,NA,NA,NA,NA,NA,NA,NA,NA,NA,NA,NA,NA,NA,NA,NA,NA,NA,NA,NA,Vorwurf,mashtaka,s,msukumo,mtangulizi,uenyekiti,sd,NA,4
5e5e9,Deep Question,html.Page,3_0_4_0_1_0_0,kelendozi,NA,form submission,50929.100000072,596834.20000005,596827,596843.7,647772.80000007,647773,2024-04-01T09:40:28Z,647779,NA,NA,NA,NA,NA,NA,NA,NA,NA,NA,NA,NA,NA,NA,NA,NA,NA,NA,NA,NA,System,maongozi,d,NA,NA,NA,NA,NA,4
5e5e9,"""Richtig""-Screen",canvas.Screen,3_0_4_0_1_0_1,NA,NA,skipped,NA,647776.10000002,NA,NA,647772.80000007,647776.4000001,2024-04-01T09:40:28Z,647779,NA,NA,NA,NA,NA,NA,NA,NA,NA,NA,NA,NA,NA,NA,NA,NA,NA,NA,NA,NA,System,maongozi,d,NA,NA,NA,sd,NA,4
5e5e9,"""Falsch""-Screen",canvas.Screen,3_0_4_0_1_0_2,NA,NA,timeout,4997,647777.20000005,647763.026,647779,652759.3,652760.30000007,2024-04-01T09:40:33Z,652776,NA,NA,NA,NA,NA,NA,NA,NA,NA,NA,NA,NA,NA,NA,NA,NA,NA,NA,NA,NA,System,maongozi,d,NA,NA,NA,sd,0,4
5e5e9,deep,flow.Sequence,3_0_4_0_1_0,NA,NA,completion,55915.6,596834.20000005,596827,596843.7,652759.3,652760.70000005,2024-04-01T09:40:33Z,652776,NA,NA,NA,NA,NA,NA,NA,NA,NA,NA,NA,NA,NA,NA,NA,NA,NA,NA,NA,NA,System,maongozi,d,NA,NA,NA,sd,NA,4
5e5e9,shallow,flow.Sequence,3_0_4_0_1_1,NA,NA,skipped,NA,652760.80000007,NA,NA,652759.3,652761,2024-04-01T09:40:33Z,652776,NA,NA,NA,NA,NA,NA,NA,NA,NA,NA,NA,NA,NA,NA,NA,NA,NA,NA,NA,NA,System,maongozi,d,NA,NA,NA,sd,NA,4
5e5e9,task,flow.Sequence,3_0_4_0_1,NA,NA,completion,55915.6,596834.10000002,596827,596843.7,652759.3,652761.20000005,2024-04-01T09:40:33Z,652776,NA,NA,NA,NA,NA,NA,NA,NA,NA,NA,NA,NA,NA,NA,NA,NA,NA,NA,NA,NA,System,maongozi,d,NA,NA,NA,sd,NA,4
5e5e9,deep,flow.Sequence,3_0_4_0_2_0,NA,NA,skipped,NA,652761.4000001,NA,NA,652759.3,652761.4000001,2024-04-01T09:40:33Z,652776,NA,NA,NA,NA,NA,NA,NA,NA,NA,NA,NA,NA,NA,NA,NA,NA,NA,NA,NA,NA,Übersicht,kilindo,s,mgusano,chipukizi,kulinganisha,sd,NA,4
5e5e9,Shallow Question,html.Page,3_0_4_0_2_1_0,kilindo,NA,form submission,14278.700000048,652761.5,652759.3,652776,667054.70000005,667054.9000001,2024-04-01T09:40:47Z,667084.2,NA,NA,NA,NA,NA,NA,NA,NA,NA,NA,NA,NA,NA,NA,NA,NA,NA,NA,NA,NA,Übersicht,kilindo,s,mgusano,chipukizi,kulinganisha,NA,NA,4
5e5e9,"""Richtig""-Screen",canvas.Screen,3_0_4_0_2_1_1,NA,NA,timeout,4996.6000000001,667058,667067.786,667084.2,672064.5,672065.4000001,2024-04-01T09:40:52Z,672080.8,NA,NA,NA,NA,NA,NA,NA,NA,NA,NA,NA,NA,NA,NA,NA,NA,NA,NA,NA,NA,Übersicht,kilindo,s,mgusano,chipukizi,kulinganisha,sd,1,4
5e5e9,"""Falsch""-Screen",canvas.Screen,3_0_4_0_2_1_2,NA,NA,skipped,NA,672070.70000005,NA,NA,672064.5,672070.9000001,2024-04-01T09:40:52Z,672080.8,NA,NA,NA,NA,NA,NA,NA,NA,NA,NA,NA,NA,NA,NA,NA,NA,NA,NA,NA,NA,Übersicht,kilindo,s,mgusano,chipukizi,kulinganisha,sd,NA,4
5e5e9,shallow,flow.Sequence,3_0_4_0_2_1,NA,NA,completion,19288.5,652761.5,652759.3,652776,672064.5,672071.20000005,2024-04-01T09:40:52Z,672080.8,NA,NA,NA,NA,NA,NA,NA,NA,NA,NA,NA,NA,NA,NA,NA,NA,NA,NA,NA,NA,Übersicht,kilindo,s,mgusano,chipukizi,kulinganisha,sd,NA,4
5e5e9,task,flow.Sequence,3_0_4_0_2,NA,NA,completion,19288.5,652761.30000007,652759.3,652776,672064.5,672071.4000001,2024-04-01T09:40:52Z,672080.8,NA,NA,NA,NA,NA,NA,NA,NA,NA,NA,NA,NA,NA,NA,NA,NA,NA,NA,NA,NA,Übersicht,kilindo,s,mgusano,chipukizi,kulinganisha,sd,NA,4
5e5e9,Deep Question,html.Page,3_0_4_0_3_0_0,kelendo,NA,form submission,16799.600000095,672071.60000002,672064.5,672080.8,688880.4000001,688880.70000005,2024-04-01T09:41:09Z,688888.364,NA,NA,NA,NA,NA,NA,NA,NA,NA,NA,NA,NA,NA,NA,NA,NA,NA,NA,NA,NA,Papier,karatasi,d,NA,NA,NA,NA,NA,4
5e5e9,"""Richtig""-Screen",canvas.Screen,3_0_4_0_3_0_1,NA,NA,skipped,NA,688885.10000002,NA,NA,688880.4000001,688885.30000007,2024-04-01T09:41:09Z,688888.364,NA,NA,NA,NA,NA,NA,NA,NA,NA,NA,NA,NA,NA,NA,NA,NA,NA,NA,NA,NA,Papier,karatasi,d,NA,NA,NA,sd,NA,4
5e5e9,"""Falsch""-Screen",canvas.Screen,3_0_4_0_3_0_2,NA,NA,timeout,4996.236,688886.60000002,688888.364,688888.364,693867.7,693868.70000005,2024-04-01T09:41:14Z,693884.6,NA,NA,NA,NA,NA,NA,NA,NA,NA,NA,NA,NA,NA,NA,NA,NA,NA,NA,NA,NA,Papier,karatasi,d,NA,NA,NA,sd,0,4
5e5e9,deep,flow.Sequence,3_0_4_0_3_0,NA,NA,completion,21786.9,672071.60000002,672064.5,672080.8,693867.7,693869.10000002,2024-04-01T09:41:14Z,693884.6,NA,NA,NA,NA,NA,NA,NA,NA,NA,NA,NA,NA,NA,NA,NA,NA,NA,NA,NA,NA,Papier,karatasi,d,NA,NA,NA,sd,NA,4
5e5e9,shallow,flow.Sequence,3_0_4_0_3_1,NA,NA,skipped,NA,693869.30000007,NA,NA,693867.7,693869.4000001,2024-04-01T09:41:14Z,693884.6,NA,NA,NA,NA,NA,NA,NA,NA,NA,NA,NA,NA,NA,NA,NA,NA,NA,NA,NA,NA,Papier,karatasi,d,NA,NA,NA,sd,NA,4
5e5e9,task,flow.Sequence,3_0_4_0_3,NA,NA,completion,21786.9,672071.5,672064.5,672080.8,693867.7,693869.60000002,2024-04-01T09:41:14Z,693884.6,NA,NA,NA,NA,NA,NA,NA,NA,NA,NA,NA,NA,NA,NA,NA,NA,NA,NA,NA,NA,Papier,karatasi,d,NA,NA,NA,sd,NA,4
5e5e9,deep,flow.Sequence,3_0_4_0_4_0,NA,NA,skipped,NA,693869.80000007,NA,NA,693867.7,693869.9000001,2024-04-01T09:41:14Z,693884.6,NA,NA,NA,NA,NA,NA,NA,NA,NA,NA,NA,NA,NA,NA,NA,NA,NA,NA,NA,NA,Entwicklung,maendeleo,s,uangavu,mshindwa,badiliko,sd,NA,4
5e5e9,Shallow Question,html.Page,3_0_4_0_4_1_0,maendeleo,NA,form submission,17089.700000072,693870,693867.7,693884.6,710974.30000007,710974.60000002,2024-04-01T09:41:31Z,710991.6,NA,NA,NA,NA,NA,NA,NA,NA,NA,NA,NA,NA,NA,NA,NA,NA,NA,NA,NA,NA,Entwicklung,maendeleo,s,uangavu,mshindwa,badiliko,NA,NA,4
5e5e9,"""Richtig""-Screen",canvas.Screen,3_0_4_0_4_1_1,NA,NA,timeout,4995.7000000001,710977.70000005,710974.094,710991.6,715970.9,715972,2024-04-01T09:41:36Z,715987.3,NA,NA,NA,NA,NA,NA,NA,NA,NA,NA,NA,NA,NA,NA,NA,NA,NA,NA,NA,NA,Entwicklung,maendeleo,s,uangavu,mshindwa,badiliko,sd,1,4
5e5e9,"""Falsch""-Screen",canvas.Screen,3_0_4_0_4_1_2,NA,NA,skipped,NA,715977.20000005,NA,NA,715970.9,715977.4000001,2024-04-01T09:41:36Z,715987.3,NA,NA,NA,NA,NA,NA,NA,NA,NA,NA,NA,NA,NA,NA,NA,NA,NA,NA,NA,NA,Entwicklung,maendeleo,s,uangavu,mshindwa,badiliko,sd,NA,4
5e5e9,shallow,flow.Sequence,3_0_4_0_4_1,NA,NA,completion,22086.3,693869.9000001,693867.7,693884.6,715970.9,715977.70000005,2024-04-01T09:41:36Z,715987.3,NA,NA,NA,NA,NA,NA,NA,NA,NA,NA,NA,NA,NA,NA,NA,NA,NA,NA,NA,NA,Entwicklung,maendeleo,s,uangavu,mshindwa,badiliko,sd,NA,4
5e5e9,task,flow.Sequence,3_0_4_0_4,NA,NA,completion,22086.3,693869.70000005,693867.7,693884.6,715970.9,715977.9000001,2024-04-01T09:41:36Z,715987.3,NA,NA,NA,NA,NA,NA,NA,NA,NA,NA,NA,NA,NA,NA,NA,NA,NA,NA,NA,NA,Entwicklung,maendeleo,s,uangavu,mshindwa,badiliko,sd,NA,4
5e5e9,deep,flow.Sequence,3_0_4_0_5_0,NA,NA,skipped,NA,715978,NA,NA,715970.9,715978.10000002,2024-04-01T09:41:36Z,715987.3,NA,NA,NA,NA,NA,NA,NA,NA,NA,NA,NA,NA,NA,NA,NA,NA,NA,NA,NA,NA,Körper,kiwiliwili,s,mapambano,mpatanishi,kiolezo,sd,NA,4
5e5e9,Shallow Question,html.Page,3_0_4_0_5_1_0,kiwiliwili,NA,form submission,3933.0000000715,715978.30000007,715970.9,715987.3,719920.30000007,719920.60000002,2024-04-01T09:41:40Z,719935.3,NA,NA,NA,NA,NA,NA,NA,NA,NA,NA,NA,NA,NA,NA,NA,NA,NA,NA,NA,NA,Körper,kiwiliwili,s,mapambano,mpatanishi,kiolezo,NA,NA,4
5e5e9,"""Richtig""-Screen",canvas.Screen,3_0_4_0_5_1_1,NA,NA,timeout,4996.5,719923.5,719918.816,719935.3,724915.5,724916.4000001,2024-04-01T09:41:45Z,724931.8,NA,NA,NA,NA,NA,NA,NA,NA,NA,NA,NA,NA,NA,NA,NA,NA,NA,NA,NA,NA,Körper,kiwiliwili,s,mapambano,mpatanishi,kiolezo,sd,1,4
5e5e9,"""Falsch""-Screen",canvas.Screen,3_0_4_0_5_1_2,NA,NA,skipped,NA,724921.70000005,NA,NA,724915.5,724922,2024-04-01T09:41:45Z,724931.8,NA,NA,NA,NA,NA,NA,NA,NA,NA,NA,NA,NA,NA,NA,NA,NA,NA,NA,NA,NA,Körper,kiwiliwili,s,mapambano,mpatanishi,kiolezo,sd,NA,4
5e5e9,shallow,flow.Sequence,3_0_4_0_5_1,NA,NA,completion,8928.2,715978.10000002,715970.9,715987.3,724915.5,724922.20000005,2024-04-01T09:41:45Z,724931.8,NA,NA,NA,NA,NA,NA,NA,NA,NA,NA,NA,NA,NA,NA,NA,NA,NA,NA,NA,NA,Körper,kiwiliwili,s,mapambano,mpatanishi,kiolezo,sd,NA,4
5e5e9,task,flow.Sequence,3_0_4_0_5,NA,NA,completion,8928.2,715978,715970.9,715987.3,724915.5,724922.4000001,2024-04-01T09:41:45Z,724931.8,NA,NA,NA,NA,NA,NA,NA,NA,NA,NA,NA,NA,NA,NA,NA,NA,NA,NA,NA,NA,Körper,kiwiliwili,s,mapambano,mpatanishi,kiolezo,sd,NA,4
5e5e9,Deep Question,html.Page,3_0_4_0_6_0_0,keledi,NA,form submission,17985.7,724922.60000002,724915.5,724931.8,742917.5,742917.70000005,2024-04-01T09:42:03Z,742921.052,NA,NA,NA,NA,NA,NA,NA,NA,NA,NA,NA,NA,NA,NA,NA,NA,NA,NA,NA,NA,Niveau,kiwango,d,NA,NA,NA,NA,NA,4
5e5e9,"""Richtig""-Screen",canvas.Screen,3_0_4_0_6_0_1,NA,NA,skipped,NA,742921.10000002,NA,NA,742917.5,742921.20000005,2024-04-01T09:42:03Z,742921.052,NA,NA,NA,NA,NA,NA,NA,NA,NA,NA,NA,NA,NA,NA,NA,NA,NA,NA,NA,NA,Niveau,kiwango,d,NA,NA,NA,sd,NA,4
5e5e9,"""Falsch""-Screen",canvas.Screen,3_0_4_0_6_0_2,NA,NA,timeout,4996.848,742922,742921.052,742921.052,747901.5,747902.30000007,2024-04-01T09:42:08Z,747917.9,NA,NA,NA,NA,NA,NA,NA,NA,NA,NA,NA,NA,NA,NA,NA,NA,NA,NA,NA,NA,Niveau,kiwango,d,NA,NA,NA,sd,0,4
5e5e9,deep,flow.Sequence,3_0_4_0_6_0,NA,NA,completion,22969.7,724922.60000002,724915.5,724931.8,747901.5,747902.70000005,2024-04-01T09:42:08Z,747917.9,NA,NA,NA,NA,NA,NA,NA,NA,NA,NA,NA,NA,NA,NA,NA,NA,NA,NA,NA,NA,Niveau,kiwango,d,NA,NA,NA,sd,NA,4
5e5e9,shallow,flow.Sequence,3_0_4_0_6_1,NA,NA,skipped,NA,747902.9000001,NA,NA,747901.5,747903,2024-04-01T09:42:08Z,747917.9,NA,NA,NA,NA,NA,NA,NA,NA,NA,NA,NA,NA,NA,NA,NA,NA,NA,NA,NA,NA,Niveau,kiwango,d,NA,NA,NA,sd,NA,4
5e5e9,task,flow.Sequence,3_0_4_0_6,NA,NA,completion,22969.7,724922.60000002,724915.5,724931.8,747901.5,747903.20000005,2024-04-01T09:42:08Z,747917.9,NA,NA,NA,NA,NA,NA,NA,NA,NA,NA,NA,NA,NA,NA,NA,NA,NA,NA,NA,NA,Niveau,kiwango,d,NA,NA,NA,sd,NA,4
5e5e9,Deep Question,html.Page,3_0_4_0_7_0_0,ksks,NA,form submission,17441.200000024,747903.4000001,747901.5,747917.9,765359.10000002,765359.30000007,2024-04-01T09:42:26Z,765373.7,NA,NA,NA,NA,NA,NA,NA,NA,NA,NA,NA,NA,NA,NA,NA,NA,NA,NA,NA,NA,Lawine,banguko,d,NA,NA,NA,NA,NA,4
5e5e9,"""Richtig""-Screen",canvas.Screen,3_0_4_0_7_0_1,NA,NA,skipped,NA,765362.4000001,NA,NA,765359.10000002,765362.60000002,2024-04-01T09:42:26Z,765373.7,NA,NA,NA,NA,NA,NA,NA,NA,NA,NA,NA,NA,NA,NA,NA,NA,NA,NA,NA,NA,Lawine,banguko,d,NA,NA,NA,sd,NA,4
5e5e9,"""Falsch""-Screen",canvas.Screen,3_0_4_0_7_0_2,NA,NA,timeout,4997.3,765363.30000007,765357.998,765373.7,770354.2,770355.20000005,2024-04-01T09:42:31Z,770371,NA,NA,NA,NA,NA,NA,NA,NA,NA,NA,NA,NA,NA,NA,NA,NA,NA,NA,NA,NA,Lawine,banguko,d,NA,NA,NA,sd,0,4
5e5e9,deep,flow.Sequence,3_0_4_0_7_0,NA,NA,completion,22436.3,747903.4000001,747901.5,747917.9,770354.2,770355.70000005,2024-04-01T09:42:31Z,770371,NA,NA,NA,NA,NA,NA,NA,NA,NA,NA,NA,NA,NA,NA,NA,NA,NA,NA,NA,NA,Lawine,banguko,d,NA,NA,NA,sd,NA,4
5e5e9,shallow,flow.Sequence,3_0_4_0_7_1,NA,NA,skipped,NA,770355.80000007,NA,NA,770354.2,770356,2024-04-01T09:42:31Z,770371,NA,NA,NA,NA,NA,NA,NA,NA,NA,NA,NA,NA,NA,NA,NA,NA,NA,NA,NA,NA,Lawine,banguko,d,NA,NA,NA,sd,NA,4
5e5e9,task,flow.Sequence,3_0_4_0_7,NA,NA,completion,22436.3,747903.30000007,747901.5,747917.9,770354.2,770356.30000007,2024-04-01T09:42:31Z,770371,NA,NA,NA,NA,NA,NA,NA,NA,NA,NA,NA,NA,NA,NA,NA,NA,NA,NA,NA,NA,Lawine,banguko,d,NA,NA,NA,sd,NA,4
5e5e9,block,flow.Loop,3_0_4_0,NA,NA,completion,185103.6,585246.80000007,585234.862,585250.6,770354.2,770356.4000001,2024-04-01T09:42:31Z,770371,NA,NA,NA,NA,NA,NA,NA,NA,NA,NA,NA,NA,NA,NA,NA,NA,NA,NA,NA,NA,NA,NA,NA,NA,NA,NA,sd,NA,4
5e5e9,weiter,canvas.Screen,3_0_4_1,sdf,keypress(Space),response,6346.9000000954,770356.60000002,770354.2,770371,776717.9000001,776718.9000001,2024-04-01T09:42:37Z,776750.3,NA,NA,NA,NA,NA,NA,NA,NA,NA,NA,NA,NA,NA,NA,NA,NA,NA,NA,NA,NA,NA,NA,NA,NA,NA,NA,sd,NA,4
5e5e9,check continue,flow.Sequence,3_0_4,NA,NA,completion,191467.3000001,585246.80000007,585234.862,585250.6,776717.9000001,776719.10000002,2024-04-01T09:42:37Z,776750.3,NA,NA,NA,NA,NA,NA,NA,NA,NA,NA,NA,NA,NA,NA,NA,NA,NA,NA,NA,NA,NA,NA,NA,NA,NA,NA,sd,NA,4
5e5e9,Deep Question,html.Page,3_0_5_0_0_0_0,kiwango,NA,form submission,6627.0000000715,776738.30000007,776734.5,776750.3,783377.30000007,783377.60000002,2024-04-01T09:42:44Z,783379.4,NA,NA,NA,NA,NA,NA,NA,NA,NA,NA,NA,NA,NA,NA,NA,NA,NA,NA,NA,NA,Niveau,kiwango,d,NA,NA,NA,NA,NA,5
5e5e9,"""Richtig""-Screen",canvas.Screen,3_0_5_0_0_0_1,NA,NA,timeout,4996.9,783380.5,783366.024,783379.4,788359.9,788361.30000007,2024-04-01T09:42:49Z,788376.3,NA,NA,NA,NA,NA,NA,NA,NA,NA,NA,NA,NA,NA,NA,NA,NA,NA,NA,NA,NA,Niveau,kiwango,d,NA,NA,NA,sdf,1,5
5e5e9,"""Falsch""-Screen",canvas.Screen,3_0_5_0_0_0_2,NA,NA,skipped,NA,788366.20000005,NA,NA,788359.9,788366.5,2024-04-01T09:42:49Z,788376.3,NA,NA,NA,NA,NA,NA,NA,NA,NA,NA,NA,NA,NA,NA,NA,NA,NA,NA,NA,NA,Niveau,kiwango,d,NA,NA,NA,sdf,NA,5
5e5e9,deep,flow.Sequence,3_0_5_0_0_0,NA,NA,completion,11609.6,776738.30000007,776734.5,776750.3,788359.9,788366.9000001,2024-04-01T09:42:49Z,788376.3,NA,NA,NA,NA,NA,NA,NA,NA,NA,NA,NA,NA,NA,NA,NA,NA,NA,NA,NA,NA,Niveau,kiwango,d,NA,NA,NA,sdf,NA,5
5e5e9,shallow,flow.Sequence,3_0_5_0_0_1,NA,NA,skipped,NA,788367,NA,NA,788359.9,788367.10000002,2024-04-01T09:42:49Z,788376.3,NA,NA,NA,NA,NA,NA,NA,NA,NA,NA,NA,NA,NA,NA,NA,NA,NA,NA,NA,NA,Niveau,kiwango,d,NA,NA,NA,sdf,NA,5
5e5e9,task,flow.Sequence,3_0_5_0_0,NA,NA,completion,11609.6,776738.30000007,776734.5,776750.3,788359.9,788367.20000005,2024-04-01T09:42:49Z,788376.3,NA,NA,NA,NA,NA,NA,NA,NA,NA,NA,NA,NA,NA,NA,NA,NA,NA,NA,NA,NA,Niveau,kiwango,d,NA,NA,NA,sdf,NA,5
5e5e9,Deep Question,html.Page,3_0_5_0_1_0_0,maongozi,NA,form submission,6778.2,788367.4000001,788359.9,788376.3,795154.5,795154.60000002,2024-04-01T09:42:56Z,795155.4,NA,NA,NA,NA,NA,NA,NA,NA,NA,NA,NA,NA,NA,NA,NA,NA,NA,NA,NA,NA,System,maongozi,d,NA,NA,NA,NA,NA,5
5e5e9,"""Richtig""-Screen",canvas.Screen,3_0_5_0_1_0_1,NA,NA,timeout,4997.4,795156.10000002,795155.196,795155.4,800136.1,800136.5,2024-04-01T09:43:01Z,800152.8,NA,NA,NA,NA,NA,NA,NA,NA,NA,NA,NA,NA,NA,NA,NA,NA,NA,NA,NA,NA,System,maongozi,d,NA,NA,NA,sdf,1,5
5e5e9,"""Falsch""-Screen",canvas.Screen,3_0_5_0_1_0_2,NA,NA,skipped,NA,800138.10000002,NA,NA,800136.1,800138.30000007,2024-04-01T09:43:01Z,800152.8,NA,NA,NA,NA,NA,NA,NA,NA,NA,NA,NA,NA,NA,NA,NA,NA,NA,NA,NA,NA,System,maongozi,d,NA,NA,NA,sdf,NA,5
5e5e9,deep,flow.Sequence,3_0_5_0_1_0,NA,NA,completion,11759.8,788367.4000001,788359.9,788376.3,800136.1,800138.30000007,2024-04-01T09:43:01Z,800152.8,NA,NA,NA,NA,NA,NA,NA,NA,NA,NA,NA,NA,NA,NA,NA,NA,NA,NA,NA,NA,System,maongozi,d,NA,NA,NA,sdf,NA,5
5e5e9,shallow,flow.Sequence,3_0_5_0_1_1,NA,NA,skipped,NA,800138.30000007,NA,NA,800136.1,800138.4000001,2024-04-01T09:43:01Z,800152.8,NA,NA,NA,NA,NA,NA,NA,NA,NA,NA,NA,NA,NA,NA,NA,NA,NA,NA,NA,NA,System,maongozi,d,NA,NA,NA,sdf,NA,5
5e5e9,task,flow.Sequence,3_0_5_0_1,NA,NA,completion,11759.8,788367.30000007,788359.9,788376.3,800136.1,800138.5,2024-04-01T09:43:01Z,800152.8,NA,NA,NA,NA,NA,NA,NA,NA,NA,NA,NA,NA,NA,NA,NA,NA,NA,NA,NA,NA,System,maongozi,d,NA,NA,NA,sdf,NA,5
5e5e9,deep,flow.Sequence,3_0_5_0_2_0,NA,NA,skipped,NA,800138.5,NA,NA,800136.1,800138.60000002,2024-04-01T09:43:01Z,800152.8,NA,NA,NA,NA,NA,NA,NA,NA,NA,NA,NA,NA,NA,NA,NA,NA,NA,NA,NA,NA,Körper,kiwiliwili,s,mapambano,mpatanishi,kiolezo,sdf,NA,5
5e5e9,Shallow Question,html.Page,3_0_5_0_2_1_0,kiwiliwili,NA,form submission,4586.1000000953,800138.60000002,800136.1,800152.8,804738.9000001,804739.20000005,2024-04-01T09:43:05Z,804750.192,NA,NA,NA,NA,NA,NA,NA,NA,NA,NA,NA,NA,NA,NA,NA,NA,NA,NA,NA,NA,Körper,kiwiliwili,s,mapambano,mpatanishi,kiolezo,NA,NA,5
5e5e9,"""Richtig""-Screen",canvas.Screen,3_0_5_0_2_1_1,NA,NA,timeout,4996.4079999999,804742,804750.192,804750.192,809730.3,809731.60000002,2024-04-01T09:43:10Z,809746.6,NA,NA,NA,NA,NA,NA,NA,NA,NA,NA,NA,NA,NA,NA,NA,NA,NA,NA,NA,NA,Körper,kiwiliwili,s,mapambano,mpatanishi,kiolezo,sdf,1,5
5e5e9,"""Falsch""-Screen",canvas.Screen,3_0_5_0_2_1_2,NA,NA,skipped,NA,809737.20000005,NA,NA,809730.3,809737.5,2024-04-01T09:43:10Z,809746.6,NA,NA,NA,NA,NA,NA,NA,NA,NA,NA,NA,NA,NA,NA,NA,NA,NA,NA,NA,NA,Körper,kiwiliwili,s,mapambano,mpatanishi,kiolezo,sdf,NA,5
5e5e9,shallow,flow.Sequence,3_0_5_0_2_1,NA,NA,completion,9577.5,800138.60000002,800136.1,800152.8,809730.3,809737.70000005,2024-04-01T09:43:10Z,809746.6,NA,NA,NA,NA,NA,NA,NA,NA,NA,NA,NA,NA,NA,NA,NA,NA,NA,NA,NA,NA,Körper,kiwiliwili,s,mapambano,mpatanishi,kiolezo,sdf,NA,5
5e5e9,task,flow.Sequence,3_0_5_0_2,NA,NA,completion,9577.5,800138.5,800136.1,800152.8,809730.3,809738,2024-04-01T09:43:10Z,809746.6,NA,NA,NA,NA,NA,NA,NA,NA,NA,NA,NA,NA,NA,NA,NA,NA,NA,NA,NA,NA,Körper,kiwiliwili,s,mapambano,mpatanishi,kiolezo,sdf,NA,5
5e5e9,Deep Question,html.Page,3_0_5_0_3_0_0,karatasi,NA,form submission,6358.0000000239,809738.20000005,809730.3,809746.6,816104.60000002,816104.80000007,2024-04-01T09:43:16Z,816109.3,NA,NA,NA,NA,NA,NA,NA,NA,NA,NA,NA,NA,NA,NA,NA,NA,NA,NA,NA,NA,Papier,karatasi,d,NA,NA,NA,NA,NA,5
5e5e9,"""Richtig""-Screen",canvas.Screen,3_0_5_0_3_0_1,NA,NA,timeout,4997,816107.70000005,816095.97,816109.3,821090,821090.9000001,2024-04-01T09:43:21Z,821106.3,NA,NA,NA,NA,NA,NA,NA,NA,NA,NA,NA,NA,NA,NA,NA,NA,NA,NA,NA,NA,Papier,karatasi,d,NA,NA,NA,sdf,1,5
5e5e9,"""Falsch""-Screen",canvas.Screen,3_0_5_0_3_0_2,NA,NA,skipped,NA,821096.5,NA,NA,821090,821096.70000005,2024-04-01T09:43:21Z,821106.3,NA,NA,NA,NA,NA,NA,NA,NA,NA,NA,NA,NA,NA,NA,NA,NA,NA,NA,NA,NA,Papier,karatasi,d,NA,NA,NA,sdf,NA,5
5e5e9,deep,flow.Sequence,3_0_5_0_3_0,NA,NA,completion,11343.4,809738.20000005,809730.3,809746.6,821090,821097.10000002,2024-04-01T09:43:21Z,821106.3,NA,NA,NA,NA,NA,NA,NA,NA,NA,NA,NA,NA,NA,NA,NA,NA,NA,NA,NA,NA,Papier,karatasi,d,NA,NA,NA,sdf,NA,5
5e5e9,shallow,flow.Sequence,3_0_5_0_3_1,NA,NA,skipped,NA,821097.20000005,NA,NA,821090,821097.30000007,2024-04-01T09:43:21Z,821106.3,NA,NA,NA,NA,NA,NA,NA,NA,NA,NA,NA,NA,NA,NA,NA,NA,NA,NA,NA,NA,Papier,karatasi,d,NA,NA,NA,sdf,NA,5
5e5e9,task,flow.Sequence,3_0_5_0_3,NA,NA,completion,11343.4,809738.10000002,809730.3,809746.6,821090,821097.5,2024-04-01T09:43:21Z,821106.3,NA,NA,NA,NA,NA,NA,NA,NA,NA,NA,NA,NA,NA,NA,NA,NA,NA,NA,NA,NA,Papier,karatasi,d,NA,NA,NA,sdf,NA,5
5e5e9,Deep Question,html.Page,3_0_5_0_4_0_0,bankugo,NA,form submission,9551.3000000238,821097.60000002,821090,821106.3,830657.60000002,830657.9000001,2024-04-01T09:43:31Z,830667.1,NA,NA,NA,NA,NA,NA,NA,NA,NA,NA,NA,NA,NA,NA,NA,NA,NA,NA,NA,NA,Lawine,banguko,d,NA,NA,NA,NA,NA,5
5e5e9,"""Richtig""-Screen",canvas.Screen,3_0_5_0_4_0_1,NA,NA,skipped,NA,830661.10000002,NA,NA,830657.60000002,830661.4000001,2024-04-01T09:43:31Z,830667.1,NA,NA,NA,NA,NA,NA,NA,NA,NA,NA,NA,NA,NA,NA,NA,NA,NA,NA,NA,NA,Lawine,banguko,d,NA,NA,NA,sdf,NA,5
5e5e9,"""Falsch""-Screen",canvas.Screen,3_0_5_0_4_0_2,NA,NA,timeout,4997.4,830662.5,830651.24,830667.1,835647.7,835648.60000002,2024-04-01T09:43:36Z,835664.5,NA,NA,NA,NA,NA,NA,NA,NA,NA,NA,NA,NA,NA,NA,NA,NA,NA,NA,NA,NA,Lawine,banguko,d,NA,NA,NA,sdf,0,5
5e5e9,deep,flow.Sequence,3_0_5_0_4_0,NA,NA,completion,14541.4,821097.60000002,821090,821106.3,835647.7,835649,2024-04-01T09:43:36Z,835664.5,NA,NA,NA,NA,NA,NA,NA,NA,NA,NA,NA,NA,NA,NA,NA,NA,NA,NA,NA,NA,Lawine,banguko,d,NA,NA,NA,sdf,NA,5
5e5e9,shallow,flow.Sequence,3_0_5_0_4_1,NA,NA,skipped,NA,835649.10000002,NA,NA,835647.7,835649.30000007,2024-04-01T09:43:36Z,835664.5,NA,NA,NA,NA,NA,NA,NA,NA,NA,NA,NA,NA,NA,NA,NA,NA,NA,NA,NA,NA,Lawine,banguko,d,NA,NA,NA,sdf,NA,5
5e5e9,task,flow.Sequence,3_0_5_0_4,NA,NA,completion,14541.4,821097.5,821090,821106.3,835647.7,835649.4000001,2024-04-01T09:43:36Z,835664.5,NA,NA,NA,NA,NA,NA,NA,NA,NA,NA,NA,NA,NA,NA,NA,NA,NA,NA,NA,NA,Lawine,banguko,d,NA,NA,NA,sdf,NA,5
5e5e9,deep,flow.Sequence,3_0_5_0_5_0,NA,NA,skipped,NA,835649.60000002,NA,NA,835647.7,835649.70000005,2024-04-01T09:43:36Z,835664.5,NA,NA,NA,NA,NA,NA,NA,NA,NA,NA,NA,NA,NA,NA,NA,NA,NA,NA,NA,NA,Übersicht,kilindo,s,mgusano,chipukizi,kulinganisha,sdf,NA,5
5e5e9,Shallow Question,html.Page,3_0_5_0_5_1_0,kilindo,NA,form submission,5523.8000000715,835649.80000007,835647.7,835664.5,841188.30000007,841188.60000002,2024-04-01T09:43:42Z,841194,NA,NA,NA,NA,NA,NA,NA,NA,NA,NA,NA,NA,NA,NA,NA,NA,NA,NA,NA,NA,Übersicht,kilindo,s,mgusano,chipukizi,kulinganisha,NA,NA,5
5e5e9,"""Richtig""-Screen",canvas.Screen,3_0_5_0_5_1_1,NA,NA,timeout,4997,841191.60000002,841177.864,841194,846174.3,846175.30000007,2024-04-01T09:43:47Z,846191,NA,NA,NA,NA,NA,NA,NA,NA,NA,NA,NA,NA,NA,NA,NA,NA,NA,NA,NA,NA,Übersicht,kilindo,s,mgusano,chipukizi,kulinganisha,sdf,1,5
5e5e9,"""Falsch""-Screen",canvas.Screen,3_0_5_0_5_1_2,NA,NA,skipped,NA,846180.60000002,NA,NA,846174.3,846180.9000001,2024-04-01T09:43:47Z,846191,NA,NA,NA,NA,NA,NA,NA,NA,NA,NA,NA,NA,NA,NA,NA,NA,NA,NA,NA,NA,Übersicht,kilindo,s,mgusano,chipukizi,kulinganisha,sdf,NA,5
5e5e9,shallow,flow.Sequence,3_0_5_0_5_1,NA,NA,completion,10509.8,835649.70000005,835647.7,835664.5,846174.3,846181.20000005,2024-04-01T09:43:47Z,846191,NA,NA,NA,NA,NA,NA,NA,NA,NA,NA,NA,NA,NA,NA,NA,NA,NA,NA,NA,NA,Übersicht,kilindo,s,mgusano,chipukizi,kulinganisha,sdf,NA,5
5e5e9,task,flow.Sequence,3_0_5_0_5,NA,NA,completion,10509.8,835649.60000002,835647.7,835664.5,846174.3,846181.4000001,2024-04-01T09:43:47Z,846191,NA,NA,NA,NA,NA,NA,NA,NA,NA,NA,NA,NA,NA,NA,NA,NA,NA,NA,NA,NA,Übersicht,kilindo,s,mgusano,chipukizi,kulinganisha,sdf,NA,5
5e5e9,deep,flow.Sequence,3_0_5_0_6_0,NA,NA,skipped,NA,846181.5,NA,NA,846174.3,846181.70000005,2024-04-01T09:43:47Z,846191,NA,NA,NA,NA,NA,NA,NA,NA,NA,NA,NA,NA,NA,NA,NA,NA,NA,NA,NA,NA,Vorwurf,mashtaka,s,msukumo,mtangulizi,uenyekiti,sdf,NA,5
5e5e9,Shallow Question,html.Page,3_0_5_0_6_1_0,mashtaka,NA,form submission,5971.1000000238,846181.80000007,846174.3,846191,852162.10000002,852162.30000007,2024-04-01T09:43:53Z,852187.2,NA,NA,NA,NA,NA,NA,NA,NA,NA,NA,NA,NA,NA,NA,NA,NA,NA,NA,NA,NA,Vorwurf,mashtaka,s,msukumo,mtangulizi,uenyekiti,NA,NA,5
5e5e9,"""Richtig""-Screen",canvas.Screen,3_0_5_0_6_1_1,NA,NA,timeout,4997.1000000001,852165.30000007,852170.866,852187.2,857167.8,857169,2024-04-01T09:43:58Z,857184.3,NA,NA,NA,NA,NA,NA,NA,NA,NA,NA,NA,NA,NA,NA,NA,NA,NA,NA,NA,NA,Vorwurf,mashtaka,s,msukumo,mtangulizi,uenyekiti,sdf,1,5
5e5e9,"""Falsch""-Screen",canvas.Screen,3_0_5_0_6_1_2,NA,NA,skipped,NA,857173.5,NA,NA,857167.8,857173.80000007,2024-04-01T09:43:58Z,857184.3,NA,NA,NA,NA,NA,NA,NA,NA,NA,NA,NA,NA,NA,NA,NA,NA,NA,NA,NA,NA,Vorwurf,mashtaka,s,msukumo,mtangulizi,uenyekiti,sdf,NA,5
5e5e9,shallow,flow.Sequence,3_0_5_0_6_1,NA,NA,completion,10976.8,846181.80000007,846174.3,846191,857167.8,857174,2024-04-01T09:43:58Z,857184.3,NA,NA,NA,NA,NA,NA,NA,NA,NA,NA,NA,NA,NA,NA,NA,NA,NA,NA,NA,NA,Vorwurf,mashtaka,s,msukumo,mtangulizi,uenyekiti,sdf,NA,5
5e5e9,task,flow.Sequence,3_0_5_0_6,NA,NA,completion,10976.8,846181.5,846174.3,846191,857167.8,857174.20000005,2024-04-01T09:43:58Z,857184.3,NA,NA,NA,NA,NA,NA,NA,NA,NA,NA,NA,NA,NA,NA,NA,NA,NA,NA,NA,NA,Vorwurf,mashtaka,s,msukumo,mtangulizi,uenyekiti,sdf,NA,5
5e5e9,deep,flow.Sequence,3_0_5_0_7_0,NA,NA,skipped,NA,857174.30000007,NA,NA,857167.8,857174.4000001,2024-04-01T09:43:58Z,857184.3,NA,NA,NA,NA,NA,NA,NA,NA,NA,NA,NA,NA,NA,NA,NA,NA,NA,NA,NA,NA,Entwicklung,maendeleo,s,uangavu,mshindwa,badiliko,sdf,NA,5
5e5e9,Shallow Question,html.Page,3_0_5_0_7_1_0,maendeleo,NA,form submission,4720.3000000238,857174.5,857167.8,857184.3,861904.60000002,861904.80000007,2024-04-01T09:44:02Z,861914.7,NA,NA,NA,NA,NA,NA,NA,NA,NA,NA,NA,NA,NA,NA,NA,NA,NA,NA,NA,NA,Entwicklung,maendeleo,s,uangavu,mshindwa,badiliko,NA,NA,5
5e5e9,"""Richtig""-Screen",canvas.Screen,3_0_5_0_7_1_1,NA,NA,timeout,4997,861907.70000005,861898.682,861914.7,866895,866895.9000001,2024-04-01T09:44:07Z,866911.7,NA,NA,NA,NA,NA,NA,NA,NA,NA,NA,NA,NA,NA,NA,NA,NA,NA,NA,NA,NA,Entwicklung,maendeleo,s,uangavu,mshindwa,badiliko,sdf,1,5
5e5e9,"""Falsch""-Screen",canvas.Screen,3_0_5_0_7_1_2,NA,NA,skipped,NA,866901.4000001,NA,NA,866895,866901.60000002,2024-04-01T09:44:07Z,866911.7,NA,NA,NA,NA,NA,NA,NA,NA,NA,NA,NA,NA,NA,NA,NA,NA,NA,NA,NA,NA,Entwicklung,maendeleo,s,uangavu,mshindwa,badiliko,sdf,NA,5
5e5e9,shallow,flow.Sequence,3_0_5_0_7_1,NA,NA,completion,9710.7,857174.5,857167.8,857184.3,866895,866901.9000001,2024-04-01T09:44:07Z,866911.7,NA,NA,NA,NA,NA,NA,NA,NA,NA,NA,NA,NA,NA,NA,NA,NA,NA,NA,NA,NA,Entwicklung,maendeleo,s,uangavu,mshindwa,badiliko,sdf,NA,5
5e5e9,task,flow.Sequence,3_0_5_0_7,NA,NA,completion,9710.7,857174.30000007,857167.8,857184.3,866895,866902.10000002,2024-04-01T09:44:07Z,866911.7,NA,NA,NA,NA,NA,NA,NA,NA,NA,NA,NA,NA,NA,NA,NA,NA,NA,NA,NA,NA,Entwicklung,maendeleo,s,uangavu,mshindwa,badiliko,sdf,NA,5
5e5e9,block,flow.Loop,3_0_5_0,NA,NA,completion,90144.7,776738.20000005,776734.5,776750.3,866895,866902.30000007,2024-04-01T09:44:07Z,866911.7,NA,NA,NA,NA,NA,NA,NA,NA,NA,NA,NA,NA,NA,NA,NA,NA,NA,NA,NA,NA,NA,NA,NA,NA,NA,NA,sdf,NA,5
5e5e9,weiter,canvas.Screen,3_0_5_1,sdf,keypress(Space),response,1208.1000000716,866902.5,866895,866911.7,868119.80000007,868121.20000005,2024-04-01T09:44:08Z,868427.92,NA,NA,NA,NA,NA,NA,NA,NA,NA,NA,NA,NA,NA,NA,NA,NA,NA,NA,NA,NA,NA,NA,NA,NA,NA,NA,sdf,NA,5
5e5e9,check continue,flow.Sequence,3_0_5,NA,NA,completion,91369.500000071,776738.20000005,776734.5,776750.3,868119.80000007,868121.5,2024-04-01T09:44:08Z,868427.92,NA,NA,NA,NA,NA,NA,NA,NA,NA,NA,NA,NA,NA,NA,NA,NA,NA,NA,NA,NA,NA,NA,NA,NA,NA,NA,sdf,NA,5
5e5e9,check continue,flow.Sequence,3_0_6,NA,NA,skipped,NA,868146,NA,NA,868119.80000007,868146,2024-04-01T09:44:09Z,868427.92,NA,NA,NA,NA,NA,NA,NA,NA,NA,NA,NA,NA,NA,NA,NA,NA,NA,NA,NA,NA,NA,NA,NA,NA,NA,NA,dfs,NA,6
5e5e9,check continue,flow.Sequence,3_0_7,NA,NA,skipped,NA,868161.20000005,NA,NA,868119.80000007,868161.30000007,2024-04-01T09:44:09Z,868427.92,NA,NA,NA,NA,NA,NA,NA,NA,NA,NA,NA,NA,NA,NA,NA,NA,NA,NA,NA,NA,NA,NA,NA,NA,NA,NA,df,NA,7
5e5e9,check continue,flow.Sequence,3_0_8,NA,NA,skipped,NA,868175.10000002,NA,NA,868119.80000007,868175.20000005,2024-04-01T09:44:09Z,868427.92,NA,NA,NA,NA,NA,NA,NA,NA,NA,NA,NA,NA,NA,NA,NA,NA,NA,NA,NA,NA,NA,NA,NA,NA,NA,NA,dfs,NA,8
5e5e9,check continue,flow.Sequence,3_0_9,NA,NA,skipped,NA,868188.60000002,NA,NA,868119.80000007,868188.70000005,2024-04-01T09:44:09Z,868427.92,NA,NA,NA,NA,NA,NA,NA,NA,NA,NA,NA,NA,NA,NA,NA,NA,NA,NA,NA,NA,NA,NA,NA,NA,NA,NA,dsf,NA,9
5e5e9,check continue,flow.Sequence,3_0_10,NA,NA,skipped,NA,868205.80000007,NA,NA,868119.80000007,868205.9000001,2024-04-01T09:44:09Z,868427.92,NA,NA,NA,NA,NA,NA,NA,NA,NA,NA,NA,NA,NA,NA,NA,NA,NA,NA,NA,NA,NA,NA,NA,NA,NA,NA,df,NA,10
5e5e9,check continue,flow.Sequence,3_0_11,NA,NA,skipped,NA,868217.9000001,NA,NA,868119.80000007,868217.9000001,2024-04-01T09:44:09Z,868427.92,NA,NA,NA,NA,NA,NA,NA,NA,NA,NA,NA,NA,NA,NA,NA,NA,NA,NA,NA,NA,NA,NA,NA,NA,NA,NA,dfs,NA,11
5e5e9,check continue,flow.Sequence,3_0_12,NA,NA,skipped,NA,868231.30000007,NA,NA,868119.80000007,868231.5,2024-04-01T09:44:09Z,868427.92,NA,NA,NA,NA,NA,NA,NA,NA,NA,NA,NA,NA,NA,NA,NA,NA,NA,NA,NA,NA,NA,NA,NA,NA,NA,NA,dsf,NA,12
5e5e9,check continue,flow.Sequence,3_0_13,NA,NA,skipped,NA,868243.5,NA,NA,868119.80000007,868243.5,2024-04-01T09:44:09Z,868427.92,NA,NA,NA,NA,NA,NA,NA,NA,NA,NA,NA,NA,NA,NA,NA,NA,NA,NA,NA,NA,NA,NA,NA,NA,NA,NA,dsf,NA,13
5e5e9,check continue,flow.Sequence,3_0_14,NA,NA,skipped,NA,868257,NA,NA,868119.80000007,868257.10000002,2024-04-01T09:44:09Z,868427.92,NA,NA,NA,NA,NA,NA,NA,NA,NA,NA,NA,NA,NA,NA,NA,NA,NA,NA,NA,NA,NA,NA,NA,NA,NA,NA,NA,NA,14
5e5e9,check continue,flow.Sequence,3_0_15,NA,NA,skipped,NA,868268.80000007,NA,NA,868119.80000007,868268.80000007,2024-04-01T09:44:09Z,868427.92,NA,NA,NA,NA,NA,NA,NA,NA,NA,NA,NA,NA,NA,NA,NA,NA,NA,NA,NA,NA,NA,NA,NA,NA,NA,NA,NA,NA,15
5e5e9,check continue,flow.Sequence,3_0_16,NA,NA,skipped,NA,868280.20000005,NA,NA,868119.80000007,868280.30000007,2024-04-01T09:44:09Z,868427.92,NA,NA,NA,NA,NA,NA,NA,NA,NA,NA,NA,NA,NA,NA,NA,NA,NA,NA,NA,NA,NA,NA,NA,NA,NA,NA,NA,NA,16
5e5e9,check continue,flow.Sequence,3_0_17,NA,NA,skipped,NA,868291.60000002,NA,NA,868119.80000007,868291.60000002,2024-04-01T09:44:09Z,868427.92,NA,NA,NA,NA,NA,NA,NA,NA,NA,NA,NA,NA,NA,NA,NA,NA,NA,NA,NA,NA,NA,NA,NA,NA,NA,NA,NA,NA,17
5e5e9,check continue,flow.Sequence,3_0_18,NA,NA,skipped,NA,868303.20000005,NA,NA,868119.80000007,868303.30000007,2024-04-01T09:44:09Z,868427.92,NA,NA,NA,NA,NA,NA,NA,NA,NA,NA,NA,NA,NA,NA,NA,NA,NA,NA,NA,NA,NA,NA,NA,NA,NA,NA,NA,NA,18
5e5e9,check continue,flow.Sequence,3_0_19,NA,NA,skipped,NA,868314.5,NA,NA,868119.80000007,868314.5,2024-04-01T09:44:09Z,868427.92,NA,NA,NA,NA,NA,NA,NA,NA,NA,NA,NA,NA,NA,NA,NA,NA,NA,NA,NA,NA,NA,NA,NA,NA,NA,NA,NA,NA,19
5e5e9,check continue,flow.Sequence,3_0_20,NA,NA,skipped,NA,868325.70000005,NA,NA,868119.80000007,868325.80000007,2024-04-01T09:44:09Z,868427.92,NA,NA,NA,NA,NA,NA,NA,NA,NA,NA,NA,NA,NA,NA,NA,NA,NA,NA,NA,NA,NA,NA,NA,NA,NA,NA,NA,NA,20
5e5e9,check continue,flow.Sequence,3_0_21,NA,NA,skipped,NA,868336.9000001,NA,NA,868119.80000007,868337,2024-04-01T09:44:09Z,868427.92,NA,NA,NA,NA,NA,NA,NA,NA,NA,NA,NA,NA,NA,NA,NA,NA,NA,NA,NA,NA,NA,NA,NA,NA,NA,NA,NA,NA,21
5e5e9,check continue,flow.Sequence,3_0_22,NA,NA,skipped,NA,868349.60000002,NA,NA,868119.80000007,868349.80000007,2024-04-01T09:44:09Z,868427.92,NA,NA,NA,NA,NA,NA,NA,NA,NA,NA,NA,NA,NA,NA,NA,NA,NA,NA,NA,NA,NA,NA,NA,NA,NA,NA,NA,NA,22
5e5e9,check continue,flow.Sequence,3_0_23,NA,NA,skipped,NA,868360.70000005,NA,NA,868119.80000007,868360.9000001,2024-04-01T09:44:09Z,868427.92,NA,NA,NA,NA,NA,NA,NA,NA,NA,NA,NA,NA,NA,NA,NA,NA,NA,NA,NA,NA,NA,NA,NA,NA,NA,NA,NA,NA,23
5e5e9,check continue,flow.Sequence,3_0_24,NA,NA,skipped,NA,868373.70000005,NA,NA,868119.80000007,868373.70000005,2024-04-01T09:44:09Z,868427.92,NA,NA,NA,NA,NA,NA,NA,NA,NA,NA,NA,NA,NA,NA,NA,NA,NA,NA,NA,NA,NA,NA,NA,NA,NA,NA,NA,NA,24
5e5e9,check continue,flow.Sequence,3_0_25,NA,NA,skipped,NA,868383.9000001,NA,NA,868119.80000007,868384,2024-04-01T09:44:09Z,868427.92,NA,NA,NA,NA,NA,NA,NA,NA,NA,NA,NA,NA,NA,NA,NA,NA,NA,NA,NA,NA,NA,NA,NA,NA,NA,NA,NA,NA,25
5e5e9,check continue,flow.Sequence,3_0_26,NA,NA,skipped,NA,868394.5,NA,NA,868119.80000007,868394.60000002,2024-04-01T09:44:09Z,868427.92,NA,NA,NA,NA,NA,NA,NA,NA,NA,NA,NA,NA,NA,NA,NA,NA,NA,NA,NA,NA,NA,NA,NA,NA,NA,NA,NA,NA,26
5e5e9,check continue,flow.Sequence,3_0_27,NA,NA,skipped,NA,868406.80000007,NA,NA,868119.80000007,868406.9000001,2024-04-01T09:44:09Z,868427.92,NA,NA,NA,NA,NA,NA,NA,NA,NA,NA,NA,NA,NA,NA,NA,NA,NA,NA,NA,NA,NA,NA,NA,NA,NA,NA,NA,NA,27
5e5e9,check continue,flow.Sequence,3_0_28,NA,NA,skipped,NA,868417.20000005,NA,NA,868119.80000007,868417.30000007,2024-04-01T09:44:09Z,868427.92,NA,NA,NA,NA,NA,NA,NA,NA,NA,NA,NA,NA,NA,NA,NA,NA,NA,NA,NA,NA,NA,NA,NA,NA,NA,NA,NA,NA,28
5e5e9,check continue,flow.Sequence,3_0_29,NA,NA,skipped,NA,868429.4000001,NA,NA,868119.80000007,868429.60000002,2024-04-01T09:44:09Z,868427.92,NA,NA,NA,NA,NA,NA,NA,NA,NA,NA,NA,NA,NA,NA,NA,NA,NA,NA,NA,NA,NA,NA,NA,NA,NA,NA,NA,NA,29
5e5e9,until continue,flow.Loop,3_0,NA,NA,completion,749416.57000007,118689.4000001,118703.23,118703.23,868119.80000007,868429.60000002,2024-04-01T09:44:09Z,868427.92,NA,NA,NA,NA,NA,NA,NA,NA,NA,NA,NA,NA,NA,NA,NA,NA,NA,NA,NA,NA,NA,NA,NA,NA,NA,NA,NA,NA,NA
5e5e9,block 1,flow.Sequence,3,NA,NA,completion,749416.57000007,118689.30000007,118703.23,118703.23,868119.80000007,868429.60000002,2024-04-01T09:44:09Z,868427.92,NA,NA,NA,NA,NA,NA,NA,NA,NA,NA,NA,NA,NA,NA,NA,NA,NA,NA,NA,NA,NA,NA,NA,NA,NA,NA,NA,NA,NA
5e5e9,1.Part Over,canvas.Screen,4,NA,keypress(Space),response,2092.08,868429.70000005,868427.92,868427.92,870520,870520.9000001,2024-04-01T09:44:11Z,870593.2,NA,NA,NA,NA,NA,NA,NA,NA,NA,NA,NA,NA,NA,NA,NA,NA,NA,NA,NA,NA,NA,NA,NA,NA,NA,NA,NA,NA,NA
5e5e9,deep,flow.Sequence,5_0_0_0_0_0,NA,NA,skipped,NA,870575,NA,NA,870520,870575.20000005,2024-04-01T09:44:11Z,870593.2,NA,NA,NA,NA,NA,NA,NA,NA,NA,NA,NA,NA,NA,NA,NA,NA,NA,NA,NA,NA,Verzögerung,kuchelewa,s,mwakilishi,mwanauchumi,jaribio,sdf,NA,0
5e5e9,Shallow Question,html.Page,5_0_0_0_0_1_0,mwakilishi,NA,form submission,9835.5000000477,870575.20000005,870560.1,870593.2,880428.70000005,880429,2024-04-01T09:44:21Z,880436.6,NA,NA,NA,NA,NA,NA,NA,NA,NA,NA,NA,NA,NA,NA,NA,NA,NA,NA,NA,NA,Verzögerung,kuchelewa,s,mwakilishi,mwanauchumi,jaribio,NA,NA,0
5e5e9,"""Richtig""-Screen",canvas.Screen,5_0_0_0_0_1_1,NA,NA,skipped,NA,880431.5,NA,NA,880428.70000005,880431.70000005,2024-04-01T09:44:21Z,880436.6,NA,NA,NA,NA,NA,NA,NA,NA,NA,NA,NA,NA,NA,NA,NA,NA,NA,NA,NA,NA,Verzögerung,kuchelewa,s,mwakilishi,mwanauchumi,jaribio,sdf,NA,0
5e5e9,"""Falsch""-Screen",canvas.Screen,5_0_0_0_0_1_2,NA,NA,timeout,4997,880432.10000002,880420.592,880436.6,885416.9,885417.4000001,2024-04-01T09:44:26Z,885433.6,NA,NA,NA,NA,NA,NA,NA,NA,NA,NA,NA,NA,NA,NA,NA,NA,NA,NA,NA,NA,Verzögerung,kuchelewa,s,mwakilishi,mwanauchumi,jaribio,sdf,0,0
5e5e9,shallow,flow.Sequence,5_0_0_0_0_1,NA,NA,completion,14823.7,870575.20000005,870560.1,870593.2,885416.9,885417.60000002,2024-04-01T09:44:26Z,885433.6,NA,NA,NA,NA,NA,NA,NA,NA,NA,NA,NA,NA,NA,NA,NA,NA,NA,NA,NA,NA,Verzögerung,kuchelewa,s,mwakilishi,mwanauchumi,jaribio,sdf,NA,0
5e5e9,task,flow.Sequence,5_0_0_0_0,NA,NA,completion,14823.7,870575,870560.1,870593.2,885416.9,885417.70000005,2024-04-01T09:44:26Z,885433.6,NA,NA,NA,NA,NA,NA,NA,NA,NA,NA,NA,NA,NA,NA,NA,NA,NA,NA,NA,NA,Verzögerung,kuchelewa,s,mwakilishi,mwanauchumi,jaribio,sdf,NA,0
5e5e9,Deep Question,html.Page,5_0_0_0_1_0_0,keksk,NA,form submission,17338.300000095,885417.9000001,885416.9,885433.6,902771.9000001,902772,2024-04-01T09:44:43Z,902773.48,NA,NA,NA,NA,NA,NA,NA,NA,NA,NA,NA,NA,NA,NA,NA,NA,NA,NA,NA,NA,Fleisch,mshakiki,d,NA,NA,NA,NA,NA,0
