observation,sender,sender_type,sender_id,response,response_action,ended_on,duration,time_run,time_render,time_show,time_end,time_commit,timestamp,time_switch,distractors,german,swahili,enc,distractor1,distractor2,distractor3,response_2,x,correct,x_2,url_vp,url_sess,meta_labjs_version,meta_location,meta_user_agent,meta_platform,meta_language,meta_locale,meta_time_zone,meta_timezone_offset,meta_screen_width,meta_screen_height,meta_scroll_width,meta_scroll_height,meta_window_inner_width,meta_window_inner_height,meta_device_pixel_ratio,meta_labjs_build_flavor,meta_labjs_build_commit
a1006,Introduction general,canvas.Screen,0,weiter,keypress(q),response,8818.54,313,315.64,336.46,9155,9173,2023-10-02T11:45:49Z,9190.48,NULL,NA,NA,NA,NA,NA,NA,NA,NA,NA,NA,180,3,20.2.4,https://neurocog.fernuni.ch/studies/vweber/sliechti/encoding_immediate/index.html?vp=180&sess=3,Mozilla/5.0 (Windows NT 10.0; Win64; x64; rv:109.0) Gecko/20100101 Firefox/118.0,Win32,de,de-CH,Europe/Zurich,-120,1280,720,1280,587,1280,587,1.5,production,f5b4a49f956347addd546a832a3327688c2c0fef
a1006,Introduction practice,canvas.Screen,1_0,NA,keypress(Space),response,3402.52,9174,9174.38,9190.48,12593,12608,2023-10-02T11:45:52Z,12627.58,NULL,NA,NA,NA,NA,NA,NA,NA,NA,NA,NA,NA,NA,NA,NA,NA,NA,NA,NA,NA,NA,NA,NA,NA,NA,NA,NA,NA,NA,NA
a1006,Deep Question,html.Page,1_1_0_0_0,NA,NA,form submission,8673.42,12608,12608.04,12627.58,21301,21302,2023-10-02T11:46:01Z,21314.88,"c(""distractor1"", ""distractor2"", ""distractor3"")",Schatten,kivuli,d,NA,NA,NA,suheli,NA,NA,NA,NA,NA,NA,NA,NA,NA,NA,NA,NA,NA,NA,NA,NA,NA,NA,NA,NA,NA,NA
a1006,"""Richtig""-Screen",canvas.Screen,1_1_0_0_1,NA,NA,skipped,NA,21310,NA,NA,21301,21310,2023-10-02T11:46:01Z,21314.88,"c(""distractor1"", ""distractor2"", ""distractor3"")",Schatten,kivuli,d,NA,NA,NA,NA,NA,NA,NA,NA,NA,NA,NA,NA,NA,NA,NA,NA,NA,NA,NA,NA,NA,NA,NA,NA,NA,NA
a1006,"""Falsch""-Screen",canvas.Screen,1_1_0_0_2,NA,NA,timeout,4999.74,21313,21294.58,21314.88,26293.8,26297,2023-10-02T11:46:06Z,26314.62,"c(""distractor1"", ""distractor2"", ""distractor3"")",Schatten,kivuli,d,NA,NA,NA,NA,NA,0,NA,NA,NA,NA,NA,NA,NA,NA,NA,NA,NA,NA,NA,NA,NA,NA,NA,NA,NA,NA
a1006,deep,flow.Sequence,1_1_0_0,NA,NA,completion,13666.22,12608,12608.04,12627.58,26293.8,26298,2023-10-02T11:46:06Z,26314.62,"c(""distractor1"", ""distractor2"", ""distractor3"")",Schatten,kivuli,d,NA,NA,NA,NA,NA,NA,NA,NA,NA,NA,NA,NA,NA,NA,NA,NA,NA,NA,NA,NA,NA,NA,NA,NA,NA,NA
a1006,shallow,flow.Sequence,1_1_0_1,NA,NA,skipped,NA,26299,NA,NA,26293.8,26300,2023-10-02T11:46:06Z,26314.62,"c(""distractor1"", ""distractor2"", ""distractor3"")",Schatten,kivuli,d,NA,NA,NA,NA,NA,NA,NA,NA,NA,NA,NA,NA,NA,NA,NA,NA,NA,NA,NA,NA,NA,NA,NA,NA,NA,NA
a1006,task,flow.Sequence,1_1_0,NA,NA,completion,13666.22,12608,12608.04,12627.58,26293.8,26301,2023-10-02T11:46:06Z,26314.62,"c(""distractor1"", ""distractor2"", ""distractor3"")",Schatten,kivuli,d,NA,NA,NA,NA,NA,NA,NA,NA,NA,NA,NA,NA,NA,NA,NA,NA,NA,NA,NA,NA,NA,NA,NA,NA,NA,NA
a1006,deep,flow.Sequence,1_1_1_0,NA,NA,skipped,NA,26301,NA,NA,26293.8,26302,2023-10-02T11:46:06Z,26314.62,"c(""distractor1"", ""distractor2"", ""distractor3"")",Kritik,lawama,s,dereva,nafasi,mawazo,NA,NA,NA,NA,NA,NA,NA,NA,NA,NA,NA,NA,NA,NA,NA,NA,NA,NA,NA,NA,NA,NA,NA
a1006,Shallow Question,html.Page,1_1_1_1_0,NA,NA,form submission,5245.38,26302,26293.8,26314.62,31560,31560,2023-10-02T11:46:11Z,31565.26,"c(""distractor1"", ""distractor2"", ""distractor3"")",Kritik,lawama,s,dereva,nafasi,mawazo,dereva,NA,NA,NA,NA,NA,NA,NA,NA,NA,NA,NA,NA,NA,NA,NA,NA,NA,NA,NA,NA,NA,NA
a1006,"""Richtig""-Screen",canvas.Screen,1_1_1_1_1,NA,NA,skipped,NA,31567,NA,NA,31560,31568,2023-10-02T11:46:11Z,31565.26,"c(""distractor1"", ""distractor2"", ""distractor3"")",Kritik,lawama,s,dereva,nafasi,mawazo,NA,NA,NA,NA,NA,NA,NA,NA,NA,NA,NA,NA,NA,NA,NA,NA,NA,NA,NA,NA,NA,NA,NA
a1006,"""Falsch""-Screen",canvas.Screen,1_1_1_1_2,NA,NA,timeout,5000.7,31574,31553.62,31565.26,36545.14,36547,2023-10-02T11:46:16Z,36565.96,"c(""distractor1"", ""distractor2"", ""distractor3"")",Kritik,lawama,s,dereva,nafasi,mawazo,NA,NA,0,NA,NA,NA,NA,NA,NA,NA,NA,NA,NA,NA,NA,NA,NA,NA,NA,NA,NA,NA,NA
a1006,shallow,flow.Sequence,1_1_1_1,NA,NA,completion,10230.52,26302,26293.8,26314.62,36545.14,36547,2023-10-02T11:46:16Z,36565.96,"c(""distractor1"", ""distractor2"", ""distractor3"")",Kritik,lawama,s,dereva,nafasi,mawazo,NA,NA,NA,NA,NA,NA,NA,NA,NA,NA,NA,NA,NA,NA,NA,NA,NA,NA,NA,NA,NA,NA,NA
a1006,task,flow.Sequence,1_1_1,NA,NA,completion,10230.52,26301,26293.8,26314.62,36545.14,36548,2023-10-02T11:46:16Z,36565.96,"c(""distractor1"", ""distractor2"", ""distractor3"")",Kritik,lawama,s,dereva,nafasi,mawazo,NA,NA,NA,NA,NA,NA,NA,NA,NA,NA,NA,NA,NA,NA,NA,NA,NA,NA,NA,NA,NA,NA,NA
a1006,Deep Question,html.Page,1_1_2_0_0,NA,NA,form submission,6746.04,36548,36545.14,36565.96,43312,43313,2023-10-02T11:46:23Z,43315.66,"c(""distractor1"", ""distractor2"", ""distractor3"")",Qualität,mtindo,d,NA,NA,NA,laweli,NA,NA,NA,NA,NA,NA,NA,NA,NA,NA,NA,NA,NA,NA,NA,NA,NA,NA,NA,NA,NA,NA
a1006,"""Richtig""-Screen",canvas.Screen,1_1_2_0_1,NA,NA,skipped,NA,43318,NA,NA,43312,43319,2023-10-02T11:46:23Z,43315.66,"c(""distractor1"", ""distractor2"", ""distractor3"")",Qualität,mtindo,d,NA,NA,NA,NA,NA,NA,NA,NA,NA,NA,NA,NA,NA,NA,NA,NA,NA,NA,NA,NA,NA,NA,NA,NA,NA,NA
a1006,"""Falsch""-Screen",canvas.Screen,1_1_2_0_2,NA,NA,timeout,4999.7,43326,43307.26,43315.66,48294.54,48296,2023-10-02T11:46:28Z,48315.36,"c(""distractor1"", ""distractor2"", ""distractor3"")",Qualität,mtindo,d,NA,NA,NA,NA,NA,0,NA,NA,NA,NA,NA,NA,NA,NA,NA,NA,NA,NA,NA,NA,NA,NA,NA,NA,NA,NA
a1006,deep,flow.Sequence,1_1_2_0,NA,NA,completion,11728.58,36548,36545.14,36565.96,48294.54,48296,2023-10-02T11:46:28Z,48315.36,"c(""distractor1"", ""distractor2"", ""distractor3"")",Qualität,mtindo,d,NA,NA,NA,NA,NA,NA,NA,NA,NA,NA,NA,NA,NA,NA,NA,NA,NA,NA,NA,NA,NA,NA,NA,NA,NA,NA
a1006,shallow,flow.Sequence,1_1_2_1,NA,NA,skipped,NA,48296,NA,NA,48294.54,48296,2023-10-02T11:46:28Z,48315.36,"c(""distractor1"", ""distractor2"", ""distractor3"")",Qualität,mtindo,d,NA,NA,NA,NA,NA,NA,NA,NA,NA,NA,NA,NA,NA,NA,NA,NA,NA,NA,NA,NA,NA,NA,NA,NA,NA,NA
a1006,task,flow.Sequence,1_1_2,NA,NA,completion,11728.58,36548,36545.14,36565.96,48294.54,48297,2023-10-02T11:46:28Z,48315.36,"c(""distractor1"", ""distractor2"", ""distractor3"")",Qualität,mtindo,d,NA,NA,NA,NA,NA,NA,NA,NA,NA,NA,NA,NA,NA,NA,NA,NA,NA,NA,NA,NA,NA,NA,NA,NA,NA,NA
a1006,Deep Question,html.Page,1_1_3_0_0,NA,NA,form submission,10181.64,48297,48294.54,48315.36,58497,58497,2023-10-02T11:46:38Z,58502.28,"c(""distractor1"", ""distractor2"", ""distractor3"")",Gesundheit,salama,d,NA,NA,NA,menti,NA,NA,NA,NA,NA,NA,NA,NA,NA,NA,NA,NA,NA,NA,NA,NA,NA,NA,NA,NA,NA,NA
a1006,"""Richtig""-Screen",canvas.Screen,1_1_3_0_1,NA,NA,skipped,NA,58503,NA,NA,58497,58504,2023-10-02T11:46:38Z,58502.28,"c(""distractor1"", ""distractor2"", ""distractor3"")",Gesundheit,salama,d,NA,NA,NA,NA,NA,NA,NA,NA,NA,NA,NA,NA,NA,NA,NA,NA,NA,NA,NA,NA,NA,NA,NA,NA,NA,NA
a1006,"""Falsch""-Screen",canvas.Screen,1_1_3_0_2,NA,NA,timeout,5001.1,58509,58490.62,58502.28,63482.56,63485,2023-10-02T11:46:43Z,63503.38,"c(""distractor1"", ""distractor2"", ""distractor3"")",Gesundheit,salama,d,NA,NA,NA,NA,NA,0,NA,NA,NA,NA,NA,NA,NA,NA,NA,NA,NA,NA,NA,NA,NA,NA,NA,NA,NA,NA
a1006,deep,flow.Sequence,1_1_3_0,NA,NA,completion,15167.2,48297,48294.54,48315.36,63482.56,63486,2023-10-02T11:46:43Z,63503.38,"c(""distractor1"", ""distractor2"", ""distractor3"")",Gesundheit,salama,d,NA,NA,NA,NA,NA,NA,NA,NA,NA,NA,NA,NA,NA,NA,NA,NA,NA,NA,NA,NA,NA,NA,NA,NA,NA,NA
a1006,shallow,flow.Sequence,1_1_3_1,NA,NA,skipped,NA,63486,NA,NA,63482.56,63486,2023-10-02T11:46:43Z,63503.38,"c(""distractor1"", ""distractor2"", ""distractor3"")",Gesundheit,salama,d,NA,NA,NA,NA,NA,NA,NA,NA,NA,NA,NA,NA,NA,NA,NA,NA,NA,NA,NA,NA,NA,NA,NA,NA,NA,NA
a1006,task,flow.Sequence,1_1_3,NA,NA,completion,15167.2,48297,48294.54,48315.36,63482.56,63487,2023-10-02T11:46:43Z,63503.38,"c(""distractor1"", ""distractor2"", ""distractor3"")",Gesundheit,salama,d,NA,NA,NA,NA,NA,NA,NA,NA,NA,NA,NA,NA,NA,NA,NA,NA,NA,NA,NA,NA,NA,NA,NA,NA,NA,NA
a1006,deep,flow.Sequence,1_1_4_0,NA,NA,skipped,NA,63488,NA,NA,63482.56,63488,2023-10-02T11:46:43Z,63503.38,"c(""distractor1"", ""distractor2"", ""distractor3"")",Rückhalt,msaada,s,muhula,auwali,kiwimbe,NA,NA,NA,NA,NA,NA,NA,NA,NA,NA,NA,NA,NA,NA,NA,NA,NA,NA,NA,NA,NA,NA,NA
a1006,Shallow Question,html.Page,1_1_4_1_0,NA,NA,form submission,5257.62,63488,63482.56,63503.38,68761,68762,2023-10-02T11:46:48Z,68773.78,"c(""distractor1"", ""distractor2"", ""distractor3"")",Rückhalt,msaada,s,muhula,auwali,kiwimbe,msaada,NA,NA,NA,NA,NA,NA,NA,NA,NA,NA,NA,NA,NA,NA,NA,NA,NA,NA,NA,NA,NA,NA
a1006,"""Richtig""-Screen",canvas.Screen,1_1_4_1_1,NA,NA,timeout,4999.92,68768,68757.2,68773.78,73752.88,73756,2023-10-02T11:46:53Z,73773.7,"c(""distractor1"", ""distractor2"", ""distractor3"")",Rückhalt,msaada,s,muhula,auwali,kiwimbe,NA,NA,1,NA,NA,NA,NA,NA,NA,NA,NA,NA,NA,NA,NA,NA,NA,NA,NA,NA,NA,NA,NA
a1006,"""Falsch""-Screen",canvas.Screen,1_1_4_1_2,NA,NA,skipped,NA,73765,NA,NA,73752.88,73765,2023-10-02T11:46:53Z,73773.7,"c(""distractor1"", ""distractor2"", ""distractor3"")",Rückhalt,msaada,s,muhula,auwali,kiwimbe,NA,NA,NA,NA,NA,NA,NA,NA,NA,NA,NA,NA,NA,NA,NA,NA,NA,NA,NA,NA,NA,NA,NA
a1006,shallow,flow.Sequence,1_1_4_1,NA,NA,completion,10249.5,63488,63482.56,63503.38,73752.88,73766,2023-10-02T11:46:53Z,73773.7,"c(""distractor1"", ""distractor2"", ""distractor3"")",Rückhalt,msaada,s,muhula,auwali,kiwimbe,NA,NA,NA,NA,NA,NA,NA,NA,NA,NA,NA,NA,NA,NA,NA,NA,NA,NA,NA,NA,NA,NA,NA
a1006,task,flow.Sequence,1_1_4,NA,NA,completion,10249.5,63487,63482.56,63503.38,73752.88,73767,2023-10-02T11:46:53Z,73773.7,"c(""distractor1"", ""distractor2"", ""distractor3"")",Rückhalt,msaada,s,muhula,auwali,kiwimbe,NA,NA,NA,NA,NA,NA,NA,NA,NA,NA,NA,NA,NA,NA,NA,NA,NA,NA,NA,NA,NA,NA,NA
a1006,deep,flow.Sequence,1_1_5_0,NA,NA,skipped,NA,73768,NA,NA,73752.88,73768,2023-10-02T11:46:53Z,73773.7,"c(""distractor1"", ""distractor2"", ""distractor3"")",Gegenwart,hadhara,s,katiba,jokofu,mikopo,NA,NA,NA,NA,NA,NA,NA,NA,NA,NA,NA,NA,NA,NA,NA,NA,NA,NA,NA,NA,NA,NA,NA
a1006,Shallow Question,html.Page,1_1_5_1_0,NA,NA,form submission,4210.3,73769,73752.88,73773.7,77984,77985,2023-10-02T11:46:57Z,77982,"c(""distractor1"", ""distractor2"", ""distractor3"")",Gegenwart,hadhara,s,katiba,jokofu,mikopo,jokofu,NA,NA,NA,NA,NA,NA,NA,NA,NA,NA,NA,NA,NA,NA,NA,NA,NA,NA,NA,NA,NA,NA
a1006,"""Richtig""-Screen",canvas.Screen,1_1_5_1_1,NA,NA,skipped,NA,77991,NA,NA,77984,77991,2023-10-02T11:46:57Z,77982,"c(""distractor1"", ""distractor2"", ""distractor3"")",Gegenwart,hadhara,s,katiba,jokofu,mikopo,NA,NA,NA,NA,NA,NA,NA,NA,NA,NA,NA,NA,NA,NA,NA,NA,NA,NA,NA,NA,NA,NA,NA
a1006,"""Falsch""-Screen",canvas.Screen,1_1_5_1_2,NA,NA,timeout,4999.64,77997,77976.6,77982,82960.82,82963,2023-10-02T11:47:02Z,82981.64,"c(""distractor1"", ""distractor2"", ""distractor3"")",Gegenwart,hadhara,s,katiba,jokofu,mikopo,NA,NA,0,NA,NA,NA,NA,NA,NA,NA,NA,NA,NA,NA,NA,NA,NA,NA,NA,NA,NA,NA,NA
a1006,shallow,flow.Sequence,1_1_5_1,NA,NA,completion,9187.12,73768,73752.88,73773.7,82960.82,82964,2023-10-02T11:47:02Z,82981.64,"c(""distractor1"", ""distractor2"", ""distractor3"")",Gegenwart,hadhara,s,katiba,jokofu,mikopo,NA,NA,NA,NA,NA,NA,NA,NA,NA,NA,NA,NA,NA,NA,NA,NA,NA,NA,NA,NA,NA,NA,NA
a1006,task,flow.Sequence,1_1_5,NA,NA,completion,9187.12,73767,73752.88,73773.7,82960.82,82965,2023-10-02T11:47:02Z,82981.64,"c(""distractor1"", ""distractor2"", ""distractor3"")",Gegenwart,hadhara,s,katiba,jokofu,mikopo,NA,NA,NA,NA,NA,NA,NA,NA,NA,NA,NA,NA,NA,NA,NA,NA,NA,NA,NA,NA,NA,NA,NA
a1006,block,flow.Loop,1_1,NA,NA,completion,70333.24,12608,12608.04,12627.58,82960.82,82966,2023-10-02T11:47:02Z,82981.64,"c(""distractor1"", ""distractor2"", ""distractor3"")",NA,NA,NA,NA,NA,NA,NA,NA,NA,NA,NA,NA,NA,NA,NA,NA,NA,NA,NA,NA,NA,NA,NA,NA,NA,NA,NA,NA,NA
a1006,Practice,flow.Sequence,1,NA,NA,completion,73770.34,9174,9174.38,9190.48,82960.82,82967,2023-10-02T11:47:02Z,82981.64,NULL,NA,NA,NA,NA,NA,NA,NA,NA,NA,NA,NA,NA,NA,NA,NA,NA,NA,NA,NA,NA,NA,NA,NA,NA,NA,NA,NA,NA,NA
a1006,Experiment start,canvas.Screen,2,weiter,keypress(q),response,25658.36,82967,82960.82,82981.64,108640,108655,2023-10-02T11:47:28Z,108752.3,NULL,NA,NA,NA,NA,NA,NA,NA,NA,NA,NA,NA,NA,NA,NA,NA,NA,NA,NA,NA,NA,NA,NA,NA,NA,NA,NA,NA,NA,NA
a1006,deep,flow.Sequence,3_0_0_0_0_0,NA,NA,skipped,NA,108747,NA,NA,108640,108747,2023-10-02T11:47:28Z,108752.3,NULL,Tester,wanaojaribu,s,sherti,sihiri,mlipuko,NA,sdf,NA,0,NA,NA,NA,NA,NA,NA,NA,NA,NA,NA,NA,NA,NA,NA,NA,NA,NA,NA,NA
a1006,Shallow Question,html.Page,3_0_0_0_0_1_0,NA,NA,form submission,8800.7,108747,108746.9,108752.3,117553,117554,2023-10-02T11:47:37Z,117565.98,NULL,Tester,wanaojaribu,s,sherti,sihiri,mlipuko,sherti,NA,NA,0,NA,NA,NA,NA,NA,NA,NA,NA,NA,NA,NA,NA,NA,NA,NA,NA,NA,NA,NA
a1006,"""Richtig""-Screen",canvas.Screen,3_0_0_0_0_1_1,NA,NA,skipped,NA,117558,NA,NA,117553,117558,2023-10-02T11:47:37Z,117565.98,NULL,Tester,wanaojaribu,s,sherti,sihiri,mlipuko,NA,sdf,NA,0,NA,NA,NA,NA,NA,NA,NA,NA,NA,NA,NA,NA,NA,NA,NA,NA,NA,NA,NA
a1006,"""Falsch""-Screen",canvas.Screen,3_0_0_0_0_1_2,NA,NA,timeout,4999.66,117561,117547.04,117565.98,122544.82,122551,2023-10-02T11:47:42Z,122565.64,NULL,Tester,wanaojaribu,s,sherti,sihiri,mlipuko,NA,sdf,0,0,NA,NA,NA,NA,NA,NA,NA,NA,NA,NA,NA,NA,NA,NA,NA,NA,NA,NA,NA
a1006,shallow,flow.Sequence,3_0_0_0_0_1,NA,NA,completion,13792.52,108747,108746.9,108752.3,122544.82,122551,2023-10-02T11:47:42Z,122565.64,NULL,Tester,wanaojaribu,s,sherti,sihiri,mlipuko,NA,sdf,NA,0,NA,NA,NA,NA,NA,NA,NA,NA,NA,NA,NA,NA,NA,NA,NA,NA,NA,NA,NA
a1006,task,flow.Sequence,3_0_0_0_0,NA,NA,completion,13792.52,108747,108746.9,108752.3,122544.82,122551,2023-10-02T11:47:42Z,122565.64,NULL,Tester,wanaojaribu,s,sherti,sihiri,mlipuko,NA,sdf,NA,0,NA,NA,NA,NA,NA,NA,NA,NA,NA,NA,NA,NA,NA,NA,NA,NA,NA,NA,NA
a1006,deep,flow.Sequence,3_0_0_0_1_0,NA,NA,skipped,NA,122551,NA,NA,122544.82,122551,2023-10-02T11:47:42Z,122565.64,NULL,Vorsorge,tahadhari,s,ufafanuzi,makini,mashambani,NA,sdf,NA,0,NA,NA,NA,NA,NA,NA,NA,NA,NA,NA,NA,NA,NA,NA,NA,NA,NA,NA,NA
a1006,Shallow Question,html.Page,3_0_0_0_1_1_0,NA,NA,form submission,6898.36,122551,122544.82,122565.64,129464,129466,2023-10-02T11:47:49Z,129461.94,NULL,Vorsorge,tahadhari,s,ufafanuzi,makini,mashambani,makini,NA,NA,0,NA,NA,NA,NA,NA,NA,NA,NA,NA,NA,NA,NA,NA,NA,NA,NA,NA,NA,NA
a1006,"""Richtig""-Screen",canvas.Screen,3_0_0_0_1_1_1,NA,NA,skipped,NA,129472,NA,NA,129464,129473,2023-10-02T11:47:49Z,129461.94,NULL,Vorsorge,tahadhari,s,ufafanuzi,makini,mashambani,NA,sdf,NA,0,NA,NA,NA,NA,NA,NA,NA,NA,NA,NA,NA,NA,NA,NA,NA,NA,NA,NA,NA
a1006,"""Falsch""-Screen",canvas.Screen,3_0_0_0_1_1_2,NA,NA,timeout,4999.64,129474,129458.78,129461.94,134440.74,134443,2023-10-02T11:47:54Z,134461.58,NULL,Vorsorge,tahadhari,s,ufafanuzi,makini,mashambani,NA,sdf,0,0,NA,NA,NA,NA,NA,NA,NA,NA,NA,NA,NA,NA,NA,NA,NA,NA,NA,NA,NA
a1006,shallow,flow.Sequence,3_0_0_0_1_1,NA,NA,completion,11875.1,122551,122544.82,122565.64,134440.74,134444,2023-10-02T11:47:54Z,134461.58,NULL,Vorsorge,tahadhari,s,ufafanuzi,makini,mashambani,NA,sdf,NA,0,NA,NA,NA,NA,NA,NA,NA,NA,NA,NA,NA,NA,NA,NA,NA,NA,NA,NA,NA
a1006,task,flow.Sequence,3_0_0_0_1,NA,NA,completion,11875.1,122551,122544.82,122565.64,134440.74,134445,2023-10-02T11:47:54Z,134461.58,NULL,Vorsorge,tahadhari,s,ufafanuzi,makini,mashambani,NA,sdf,NA,0,NA,NA,NA,NA,NA,NA,NA,NA,NA,NA,NA,NA,NA,NA,NA,NA,NA,NA,NA
a1006,Deep Question,html.Page,3_0_0_0_2_0_0,NA,NA,form submission,7259.42,134445,134440.74,134461.58,141721,141721,2023-10-02T11:48:01Z,141732.82,NULL,Fenster,dirisha,d,NA,NA,NA,felibu,NA,NA,0,NA,NA,NA,NA,NA,NA,NA,NA,NA,NA,NA,NA,NA,NA,NA,NA,NA,NA,NA
a1006,"""Richtig""-Screen",canvas.Screen,3_0_0_0_2_0_1,NA,NA,skipped,NA,141722,NA,NA,141721,141723,2023-10-02T11:48:01Z,141732.82,NULL,Fenster,dirisha,d,NA,NA,NA,NA,sdf,NA,0,NA,NA,NA,NA,NA,NA,NA,NA,NA,NA,NA,NA,NA,NA,NA,NA,NA,NA,NA
a1006,"""Falsch""-Screen",canvas.Screen,3_0_0_0_2_0_2,NA,NA,timeout,4999.42,141725,141718.28,141732.82,146711.42,146714,2023-10-02T11:48:06Z,146732.24,NULL,Fenster,dirisha,d,NA,NA,NA,NA,sdf,0,0,NA,NA,NA,NA,NA,NA,NA,NA,NA,NA,NA,NA,NA,NA,NA,NA,NA,NA,NA
a1006,deep,flow.Sequence,3_0_0_0_2_0,NA,NA,completion,12249.84,134445,134440.74,134461.58,146711.42,146714,2023-10-02T11:48:06Z,146732.24,NULL,Fenster,dirisha,d,NA,NA,NA,NA,sdf,NA,0,NA,NA,NA,NA,NA,NA,NA,NA,NA,NA,NA,NA,NA,NA,NA,NA,NA,NA,NA
a1006,shallow,flow.Sequence,3_0_0_0_2_1,NA,NA,skipped,NA,146715,NA,NA,146711.42,146715,2023-10-02T11:48:06Z,146732.24,NULL,Fenster,dirisha,d,NA,NA,NA,NA,sdf,NA,0,NA,NA,NA,NA,NA,NA,NA,NA,NA,NA,NA,NA,NA,NA,NA,NA,NA,NA,NA
a1006,task,flow.Sequence,3_0_0_0_2,NA,NA,completion,12249.84,134445,134440.74,134461.58,146711.42,146716,2023-10-02T11:48:06Z,146732.24,NULL,Fenster,dirisha,d,NA,NA,NA,NA,sdf,NA,0,NA,NA,NA,NA,NA,NA,NA,NA,NA,NA,NA,NA,NA,NA,NA,NA,NA,NA,NA
a1006,Deep Question,html.Page,3_0_0_0_3_0_0,NA,NA,form submission,5360.76,146717,146711.42,146732.24,152093,152094,2023-10-02T11:48:11Z,152106.72,NULL,Spionage,upelelezi,d,NA,NA,NA,bulugu,NA,NA,0,NA,NA,NA,NA,NA,NA,NA,NA,NA,NA,NA,NA,NA,NA,NA,NA,NA,NA,NA
a1006,"""Richtig""-Screen",canvas.Screen,3_0_0_0_3_0_1,NA,NA,skipped,NA,152097,NA,NA,152093,152098,2023-10-02T11:48:11Z,152106.72,NULL,Spionage,upelelezi,d,NA,NA,NA,NA,sdf,NA,0,NA,NA,NA,NA,NA,NA,NA,NA,NA,NA,NA,NA,NA,NA,NA,NA,NA,NA,NA
a1006,"""Falsch""-Screen",canvas.Screen,3_0_0_0_3_0_2,NA,NA,timeout,5001.24,152101,152090.98,152106.72,157090.84,157093,2023-10-02T11:48:16Z,157107.96,NULL,Spionage,upelelezi,d,NA,NA,NA,NA,sdf,0,0,NA,NA,NA,NA,NA,NA,NA,NA,NA,NA,NA,NA,NA,NA,NA,NA,NA,NA,NA
a1006,deep,flow.Sequence,3_0_0_0_3_0,NA,NA,completion,10358.6,146717,146711.42,146732.24,157090.84,157093,2023-10-02T11:48:16Z,157107.96,NULL,Spionage,upelelezi,d,NA,NA,NA,NA,sdf,NA,0,NA,NA,NA,NA,NA,NA,NA,NA,NA,NA,NA,NA,NA,NA,NA,NA,NA,NA,NA
a1006,shallow,flow.Sequence,3_0_0_0_3_1,NA,NA,skipped,NA,157094,NA,NA,157090.84,157094,2023-10-02T11:48:16Z,157107.96,NULL,Spionage,upelelezi,d,NA,NA,NA,NA,sdf,NA,0,NA,NA,NA,NA,NA,NA,NA,NA,NA,NA,NA,NA,NA,NA,NA,NA,NA,NA,NA
a1006,task,flow.Sequence,3_0_0_0_3,NA,NA,completion,10358.6,146717,146711.42,146732.24,157090.84,157094,2023-10-02T11:48:16Z,157107.96,NULL,Spionage,upelelezi,d,NA,NA,NA,NA,sdf,NA,0,NA,NA,NA,NA,NA,NA,NA,NA,NA,NA,NA,NA,NA,NA,NA,NA,NA,NA,NA
a1006,deep,flow.Sequence,3_0_0_0_4_0,NA,NA,skipped,NA,157095,NA,NA,157090.84,157095,2023-10-02T11:48:16Z,157107.96,NULL,Schüler,mwanafunzi,s,mwekezaji,matumizi,uaminifu,NA,sdf,NA,0,NA,NA,NA,NA,NA,NA,NA,NA,NA,NA,NA,NA,NA,NA,NA,NA,NA,NA,NA
a1006,Shallow Question,html.Page,3_0_0_0_4_1_0,NA,NA,form submission,12626.04,157095,157090.84,157107.96,169734,169734,2023-10-02T11:48:29Z,169732.92,NULL,Schüler,mwanafunzi,s,mwekezaji,matumizi,uaminifu,matumizi,NA,NA,0,NA,NA,NA,NA,NA,NA,NA,NA,NA,NA,NA,NA,NA,NA,NA,NA,NA,NA,NA
a1006,"""Richtig""-Screen",canvas.Screen,3_0_0_0_4_1_1,NA,NA,skipped,NA,169735,NA,NA,169734,169735,2023-10-02T11:48:29Z,169732.92,NULL,Schüler,mwanafunzi,s,mwekezaji,matumizi,uaminifu,NA,sdf,NA,0,NA,NA,NA,NA,NA,NA,NA,NA,NA,NA,NA,NA,NA,NA,NA,NA,NA,NA,NA
a1006,"""Falsch""-Screen",canvas.Screen,3_0_0_0_4_1_2,NA,NA,timeout,4999.46,169737,169732.8,169732.92,174711.56,174714,2023-10-02T11:48:34Z,174732.38,NULL,Schüler,mwanafunzi,s,mwekezaji,matumizi,uaminifu,NA,sdf,0,0,NA,NA,NA,NA,NA,NA,NA,NA,NA,NA,NA,NA,NA,NA,NA,NA,NA,NA,NA
a1006,shallow,flow.Sequence,3_0_0_0_4_1,NA,NA,completion,17603.6,157095,157090.84,157107.96,174711.56,174715,2023-10-02T11:48:34Z,174732.38,NULL,Schüler,mwanafunzi,s,mwekezaji,matumizi,uaminifu,NA,sdf,NA,0,NA,NA,NA,NA,NA,NA,NA,NA,NA,NA,NA,NA,NA,NA,NA,NA,NA,NA,NA
a1006,task,flow.Sequence,3_0_0_0_4,NA,NA,completion,17603.6,157094,157090.84,157107.96,174711.56,174715,2023-10-02T11:48:34Z,174732.38,NULL,Schüler,mwanafunzi,s,mwekezaji,matumizi,uaminifu,NA,sdf,NA,0,NA,NA,NA,NA,NA,NA,NA,NA,NA,NA,NA,NA,NA,NA,NA,NA,NA,NA,NA
a1006,Deep Question,html.Page,3_0_0_0_5_0_0,NA,NA,form submission,8954.62,174715,174711.56,174732.38,183687,183688,2023-10-02T11:48:43Z,183691.16,NULL,Symbol,kielezo,d,NA,NA,NA,folu,NA,NA,0,NA,NA,NA,NA,NA,NA,NA,NA,NA,NA,NA,NA,NA,NA,NA,NA,NA,NA,NA
a1006,"""Richtig""-Screen",canvas.Screen,3_0_0_0_5_0_1,NA,NA,skipped,NA,183694,NA,NA,183687,183694,2023-10-02T11:48:43Z,183691.16,NULL,Symbol,kielezo,d,NA,NA,NA,NA,sdf,NA,0,NA,NA,NA,NA,NA,NA,NA,NA,NA,NA,NA,NA,NA,NA,NA,NA,NA,NA,NA
a1006,"""Falsch""-Screen",canvas.Screen,3_0_0_0_5_0_2,NA,NA,timeout,4999.6,183699,183681.14,183691.16,188669.92,188672,2023-10-02T11:48:48Z,188690.76,NULL,Symbol,kielezo,d,NA,NA,NA,NA,sdf,0,0,NA,NA,NA,NA,NA,NA,NA,NA,NA,NA,NA,NA,NA,NA,NA,NA,NA,NA,NA
a1006,deep,flow.Sequence,3_0_0_0_5_0,NA,NA,completion,13937.54,174715,174711.56,174732.38,188669.92,188672,2023-10-02T11:48:48Z,188690.76,NULL,Symbol,kielezo,d,NA,NA,NA,NA,sdf,NA,0,NA,NA,NA,NA,NA,NA,NA,NA,NA,NA,NA,NA,NA,NA,NA,NA,NA,NA,NA
a1006,shallow,flow.Sequence,3_0_0_0_5_1,NA,NA,skipped,NA,188672,NA,NA,188669.92,188673,2023-10-02T11:48:48Z,188690.76,NULL,Symbol,kielezo,d,NA,NA,NA,NA,sdf,NA,0,NA,NA,NA,NA,NA,NA,NA,NA,NA,NA,NA,NA,NA,NA,NA,NA,NA,NA,NA
a1006,task,flow.Sequence,3_0_0_0_5,NA,NA,completion,13937.54,174715,174711.56,174732.38,188669.92,188674,2023-10-02T11:48:48Z,188690.76,NULL,Symbol,kielezo,d,NA,NA,NA,NA,sdf,NA,0,NA,NA,NA,NA,NA,NA,NA,NA,NA,NA,NA,NA,NA,NA,NA,NA,NA,NA,NA
a1006,deep,flow.Sequence,3_0_0_0_6_0,NA,NA,skipped,NA,188675,NA,NA,188669.92,188675,2023-10-02T11:48:48Z,188690.76,NULL,Konkurrent,mshindani,s,msemaji,mvutaji,kipukusa,NA,sdf,NA,0,NA,NA,NA,NA,NA,NA,NA,NA,NA,NA,NA,NA,NA,NA,NA,NA,NA,NA,NA
a1006,Shallow Question,html.Page,3_0_0_0_6_1_0,NA,NA,form submission,7181.24,188675,188669.92,188690.76,195872,195873,2023-10-02T11:48:55Z,195878.52,NULL,Konkurrent,mshindani,s,msemaji,mvutaji,kipukusa,msemaji,NA,NA,0,NA,NA,NA,NA,NA,NA,NA,NA,NA,NA,NA,NA,NA,NA,NA,NA,NA,NA,NA
a1006,"""Richtig""-Screen",canvas.Screen,3_0_0_0_6_1_1,NA,NA,skipped,NA,195877,NA,NA,195872,195877,2023-10-02T11:48:55Z,195878.52,NULL,Konkurrent,mshindani,s,msemaji,mvutaji,kipukusa,NA,sdf,NA,0,NA,NA,NA,NA,NA,NA,NA,NA,NA,NA,NA,NA,NA,NA,NA,NA,NA,NA,NA
a1006,"""Falsch""-Screen",canvas.Screen,3_0_0_0_6_1_2,NA,NA,timeout,4999.88,195881,195867.42,195878.52,200857.58,200859,2023-10-02T11:49:00Z,200878.4,NULL,Konkurrent,mshindani,s,msemaji,mvutaji,kipukusa,NA,sdf,0,0,NA,NA,NA,NA,NA,NA,NA,NA,NA,NA,NA,NA,NA,NA,NA,NA,NA,NA,NA
a1006,shallow,flow.Sequence,3_0_0_0_6_1,NA,NA,completion,12166.82,188675,188669.92,188690.76,200857.58,200860,2023-10-02T11:49:00Z,200878.4,NULL,Konkurrent,mshindani,s,msemaji,mvutaji,kipukusa,NA,sdf,NA,0,NA,NA,NA,NA,NA,NA,NA,NA,NA,NA,NA,NA,NA,NA,NA,NA,NA,NA,NA
a1006,task,flow.Sequence,3_0_0_0_6,NA,NA,completion,12166.82,188674,188669.92,188690.76,200857.58,200861,2023-10-02T11:49:00Z,200878.4,NULL,Konkurrent,mshindani,s,msemaji,mvutaji,kipukusa,NA,sdf,NA,0,NA,NA,NA,NA,NA,NA,NA,NA,NA,NA,NA,NA,NA,NA,NA,NA,NA,NA,NA
a1006,Deep Question,html.Page,3_0_0_0_7_0_0,NA,NA,form submission,10854.6,200861,200857.58,200878.4,211733,211733,2023-10-02T11:49:11Z,211732.84,NULL,Zuwachs,nyongeza,d,NA,NA,NA,seli,NA,NA,0,NA,NA,NA,NA,NA,NA,NA,NA,NA,NA,NA,NA,NA,NA,NA,NA,NA,NA,NA
a1006,"""Richtig""-Screen",canvas.Screen,3_0_0_0_7_0_1,NA,NA,skipped,NA,211734,NA,NA,211733,211734,2023-10-02T11:49:11Z,211732.84,NULL,Zuwachs,nyongeza,d,NA,NA,NA,NA,sdf,NA,0,NA,NA,NA,NA,NA,NA,NA,NA,NA,NA,NA,NA,NA,NA,NA,NA,NA,NA,NA
a1006,"""Falsch""-Screen",canvas.Screen,3_0_0_0_7_0_2,NA,NA,timeout,4999.14,211736,211731.28,211732.84,216711.16,216714,2023-10-02T11:49:16Z,216731.98,NULL,Zuwachs,nyongeza,d,NA,NA,NA,NA,sdf,0,0,NA,NA,NA,NA,NA,NA,NA,NA,NA,NA,NA,NA,NA,NA,NA,NA,NA,NA,NA
a1006,deep,flow.Sequence,3_0_0_0_7_0,NA,NA,completion,15832.76,200861,200857.58,200878.4,216711.16,216714,2023-10-02T11:49:16Z,216731.98,NULL,Zuwachs,nyongeza,d,NA,NA,NA,NA,sdf,NA,0,NA,NA,NA,NA,NA,NA,NA,NA,NA,NA,NA,NA,NA,NA,NA,NA,NA,NA,NA
a1006,shallow,flow.Sequence,3_0_0_0_7_1,NA,NA,skipped,NA,216715,NA,NA,216711.16,216715,2023-10-02T11:49:16Z,216731.98,NULL,Zuwachs,nyongeza,d,NA,NA,NA,NA,sdf,NA,0,NA,NA,NA,NA,NA,NA,NA,NA,NA,NA,NA,NA,NA,NA,NA,NA,NA,NA,NA
a1006,task,flow.Sequence,3_0_0_0_7,NA,NA,completion,15832.76,200861,200857.58,200878.4,216711.16,216715,2023-10-02T11:49:16Z,216731.98,NULL,Zuwachs,nyongeza,d,NA,NA,NA,NA,sdf,NA,0,NA,NA,NA,NA,NA,NA,NA,NA,NA,NA,NA,NA,NA,NA,NA,NA,NA,NA,NA
a1006,block,flow.Loop,3_0_0_0,NA,NA,completion,107958.86,108747,108746.9,108752.3,216711.16,216716,2023-10-02T11:49:16Z,216731.98,NULL,NA,NA,NA,NA,NA,NA,NA,sdf,NA,0,NA,NA,NA,NA,NA,NA,NA,NA,NA,NA,NA,NA,NA,NA,NA,NA,NA,NA,NA
a1006,weiter,canvas.Screen,3_0_0_1,sdf,keypress(Space),response,3393.02,216716,216711.16,216731.98,220125,220142,2023-10-02T11:49:19Z,220211.46,NULL,NA,NA,NA,NA,NA,NA,NA,sdf,NA,0,NA,NA,NA,NA,NA,NA,NA,NA,NA,NA,NA,NA,NA,NA,NA,NA,NA,NA,NA
a1006,check continue,flow.Sequence,3_0_0,NA,NA,completion,111372.7,108747,108746.9,108752.3,220125,220143,2023-10-02T11:49:19Z,220211.46,NULL,NA,NA,NA,NA,NA,NA,NA,sdf,NA,0,NA,NA,NA,NA,NA,NA,NA,NA,NA,NA,NA,NA,NA,NA,NA,NA,NA,NA,NA
a1006,deep,flow.Sequence,3_0_1_0_0_0,NA,NA,skipped,NA,220198,NA,NA,220125,220198,2023-10-02T11:49:20Z,220211.46,NULL,Tester,wanaojaribu,s,sherti,sihiri,mlipuko,NA,sdfdsf,NA,1,NA,NA,NA,NA,NA,NA,NA,NA,NA,NA,NA,NA,NA,NA,NA,NA,NA,NA,NA
a1006,Shallow Question,html.Page,3_0_1_0_0_1_0,NA,NA,form submission,4667.54,220198,220198.08,220211.46,224879,224879,2023-10-02T11:49:24Z,224877.8,NULL,Tester,wanaojaribu,s,sherti,sihiri,mlipuko,wanaojaribu,NA,NA,1,NA,NA,NA,NA,NA,NA,NA,NA,NA,NA,NA,NA,NA,NA,NA,NA,NA,NA,NA
a1006,"""Richtig""-Screen",canvas.Screen,3_0_1_0_0_1_1,NA,NA,timeout,5000.92,224882,224875.1,224877.8,229857.88,229864,2023-10-02T11:49:29Z,229878.72,NULL,Tester,wanaojaribu,s,sherti,sihiri,mlipuko,NA,sdfdsf,1,1,NA,NA,NA,NA,NA,NA,NA,NA,NA,NA,NA,NA,NA,NA,NA,NA,NA,NA,NA
a1006,"""Falsch""-Screen",canvas.Screen,3_0_1_0_0_1_2,NA,NA,skipped,NA,229878,NA,NA,229857.88,229879,2023-10-02T11:49:29Z,229878.72,NULL,Tester,wanaojaribu,s,sherti,sihiri,mlipuko,NA,sdfdsf,NA,1,NA,NA,NA,NA,NA,NA,NA,NA,NA,NA,NA,NA,NA,NA,NA,NA,NA,NA,NA
a1006,shallow,flow.Sequence,3_0_1_0_0_1,NA,NA,completion,9646.42,220198,220198.08,220211.46,229857.88,229879,2023-10-02T11:49:29Z,229878.72,NULL,Tester,wanaojaribu,s,sherti,sihiri,mlipuko,NA,sdfdsf,NA,1,NA,NA,NA,NA,NA,NA,NA,NA,NA,NA,NA,NA,NA,NA,NA,NA,NA,NA,NA
a1006,task,flow.Sequence,3_0_1_0_0,NA,NA,completion,9646.42,220198,220198.08,220211.46,229857.88,229880,2023-10-02T11:49:29Z,229878.72,NULL,Tester,wanaojaribu,s,sherti,sihiri,mlipuko,NA,sdfdsf,NA,1,NA,NA,NA,NA,NA,NA,NA,NA,NA,NA,NA,NA,NA,NA,NA,NA,NA,NA,NA
a1006,deep,flow.Sequence,3_0_1_0_1_0,NA,NA,skipped,NA,229880,NA,NA,229857.88,229880,2023-10-02T11:49:29Z,229878.72,NULL,Vorsorge,tahadhari,s,ufafanuzi,makini,mashambani,NA,sdfdsf,NA,1,NA,NA,NA,NA,NA,NA,NA,NA,NA,NA,NA,NA,NA,NA,NA,NA,NA,NA,NA
a1006,Shallow Question,html.Page,3_0_1_0_1_1_0,NA,NA,form submission,6949.28,229880,229857.88,229878.72,236828,236829,2023-10-02T11:49:36Z,236837.2,NULL,Vorsorge,tahadhari,s,ufafanuzi,makini,mashambani,tahadhari,NA,NA,1,NA,NA,NA,NA,NA,NA,NA,NA,NA,NA,NA,NA,NA,NA,NA,NA,NA,NA,NA
a1006,"""Richtig""-Screen",canvas.Screen,3_0_1_0_1_1_1,NA,NA,timeout,5000.18,236835,236820.16,236837.2,241816.56,241818,2023-10-02T11:49:41Z,241837.38,NULL,Vorsorge,tahadhari,s,ufafanuzi,makini,mashambani,NA,sdfdsf,1,1,NA,NA,NA,NA,NA,NA,NA,NA,NA,NA,NA,NA,NA,NA,NA,NA,NA,NA,NA
a1006,"""Falsch""-Screen",canvas.Screen,3_0_1_0_1_1_2,NA,NA,skipped,NA,241825,NA,NA,241816.56,241826,2023-10-02T11:49:41Z,241837.38,NULL,Vorsorge,tahadhari,s,ufafanuzi,makini,mashambani,NA,sdfdsf,NA,1,NA,NA,NA,NA,NA,NA,NA,NA,NA,NA,NA,NA,NA,NA,NA,NA,NA,NA,NA
a1006,shallow,flow.Sequence,3_0_1_0_1_1,NA,NA,completion,11937.84,229880,229857.88,229878.72,241816.56,241827,2023-10-02T11:49:41Z,241837.38,NULL,Vorsorge,tahadhari,s,ufafanuzi,makini,mashambani,NA,sdfdsf,NA,1,NA,NA,NA,NA,NA,NA,NA,NA,NA,NA,NA,NA,NA,NA,NA,NA,NA,NA,NA
a1006,task,flow.Sequence,3_0_1_0_1,NA,NA,completion,11937.84,229880,229857.88,229878.72,241816.56,241828,2023-10-02T11:49:41Z,241837.38,NULL,Vorsorge,tahadhari,s,ufafanuzi,makini,mashambani,NA,sdfdsf,NA,1,NA,NA,NA,NA,NA,NA,NA,NA,NA,NA,NA,NA,NA,NA,NA,NA,NA,NA,NA
a1006,Deep Question,html.Page,3_0_1_0_2_0_0,NA,NA,form submission,6741.62,241829,241816.56,241837.38,248579,248580,2023-10-02T11:49:48Z,248587,NULL,Zuwachs,nyongeza,d,NA,NA,NA,nyongeza,NA,NA,1,NA,NA,NA,NA,NA,NA,NA,NA,NA,NA,NA,NA,NA,NA,NA,NA,NA,NA,NA
a1006,"""Richtig""-Screen",canvas.Screen,3_0_1_0_2_0_1,NA,NA,timeout,5000.14,248581,248577.34,248587,253566.32,253568,2023-10-02T11:49:53Z,253587.14,NULL,Zuwachs,nyongeza,d,NA,NA,NA,NA,sdfdsf,1,1,NA,NA,NA,NA,NA,NA,NA,NA,NA,NA,NA,NA,NA,NA,NA,NA,NA,NA,NA
a1006,"""Falsch""-Screen",canvas.Screen,3_0_1_0_2_0_2,NA,NA,skipped,NA,253572,NA,NA,253566.32,253573,2023-10-02T11:49:53Z,253587.14,NULL,Zuwachs,nyongeza,d,NA,NA,NA,NA,sdfdsf,NA,1,NA,NA,NA,NA,NA,NA,NA,NA,NA,NA,NA,NA,NA,NA,NA,NA,NA,NA,NA
a1006,deep,flow.Sequence,3_0_1_0_2_0,NA,NA,completion,11728.94,241829,241816.56,241837.38,253566.32,253573,2023-10-02T11:49:53Z,253587.14,NULL,Zuwachs,nyongeza,d,NA,NA,NA,NA,sdfdsf,NA,1,NA,NA,NA,NA,NA,NA,NA,NA,NA,NA,NA,NA,NA,NA,NA,NA,NA,NA,NA
a1006,shallow,flow.Sequence,3_0_1_0_2_1,NA,NA,skipped,NA,253573,NA,NA,253566.32,253574,2023-10-02T11:49:53Z,253587.14,NULL,Zuwachs,nyongeza,d,NA,NA,NA,NA,sdfdsf,NA,1,NA,NA,NA,NA,NA,NA,NA,NA,NA,NA,NA,NA,NA,NA,NA,NA,NA,NA,NA
a1006,task,flow.Sequence,3_0_1_0_2,NA,NA,completion,11728.94,241829,241816.56,241837.38,253566.32,253574,2023-10-02T11:49:53Z,253587.14,NULL,Zuwachs,nyongeza,d,NA,NA,NA,NA,sdfdsf,NA,1,NA,NA,NA,NA,NA,NA,NA,NA,NA,NA,NA,NA,NA,NA,NA,NA,NA,NA,NA
a1006,deep,flow.Sequence,3_0_1_0_3_0,NA,NA,skipped,NA,253575,NA,NA,253566.32,253575,2023-10-02T11:49:53Z,253587.14,NULL,Schüler,mwanafunzi,s,mwekezaji,matumizi,uaminifu,NA,sdfdsf,NA,1,NA,NA,NA,NA,NA,NA,NA,NA,NA,NA,NA,NA,NA,NA,NA,NA,NA,NA,NA
a1006,Shallow Question,html.Page,3_0_1_0_3_1_0,NA,NA,form submission,5455.86,253575,253566.32,253587.14,259043,259044,2023-10-02T11:49:58Z,259045,NULL,Schüler,mwanafunzi,s,mwekezaji,matumizi,uaminifu,mwanafunzi,NA,NA,1,NA,NA,NA,NA,NA,NA,NA,NA,NA,NA,NA,NA,NA,NA,NA,NA,NA,NA,NA
a1006,"""Richtig""-Screen",canvas.Screen,3_0_1_0_3_1_1,NA,NA,timeout,5000.52,259050,259037.46,259045,264024.7,264026,2023-10-02T11:50:03Z,264045.52,NULL,Schüler,mwanafunzi,s,mwekezaji,matumizi,uaminifu,NA,sdfdsf,1,1,NA,NA,NA,NA,NA,NA,NA,NA,NA,NA,NA,NA,NA,NA,NA,NA,NA,NA,NA
a1006,"""Falsch""-Screen",canvas.Screen,3_0_1_0_3_1_2,NA,NA,skipped,NA,264035,NA,NA,264024.7,264035,2023-10-02T11:50:03Z,264045.52,NULL,Schüler,mwanafunzi,s,mwekezaji,matumizi,uaminifu,NA,sdfdsf,NA,1,NA,NA,NA,NA,NA,NA,NA,NA,NA,NA,NA,NA,NA,NA,NA,NA,NA,NA,NA
a1006,shallow,flow.Sequence,3_0_1_0_3_1,NA,NA,completion,10437.56,253575,253566.32,253587.14,264024.7,264036,2023-10-02T11:50:03Z,264045.52,NULL,Schüler,mwanafunzi,s,mwekezaji,matumizi,uaminifu,NA,sdfdsf,NA,1,NA,NA,NA,NA,NA,NA,NA,NA,NA,NA,NA,NA,NA,NA,NA,NA,NA,NA,NA
a1006,task,flow.Sequence,3_0_1_0_3,NA,NA,completion,10437.56,253575,253566.32,253587.14,264024.7,264036,2023-10-02T11:50:03Z,264045.52,NULL,Schüler,mwanafunzi,s,mwekezaji,matumizi,uaminifu,NA,sdfdsf,NA,1,NA,NA,NA,NA,NA,NA,NA,NA,NA,NA,NA,NA,NA,NA,NA,NA,NA,NA,NA
a1006,Deep Question,html.Page,3_0_1_0_4_0_0,NA,NA,form submission,7749.48,264037,264024.7,264045.52,271795,271795,2023-10-02T11:50:11Z,271794.62,NULL,Fenster,dirisha,d,NA,NA,NA,dilenzo,NA,NA,1,NA,NA,NA,NA,NA,NA,NA,NA,NA,NA,NA,NA,NA,NA,NA,NA,NA,NA,NA
a1006,"""Richtig""-Screen",canvas.Screen,3_0_1_0_4_0_1,NA,NA,skipped,NA,271797,NA,NA,271795,271797,2023-10-02T11:50:11Z,271794.62,NULL,Fenster,dirisha,d,NA,NA,NA,NA,sdfdsf,NA,1,NA,NA,NA,NA,NA,NA,NA,NA,NA,NA,NA,NA,NA,NA,NA,NA,NA,NA,NA
a1006,"""Falsch""-Screen",canvas.Screen,3_0_1_0_4_0_2,NA,NA,timeout,5000.98,271798,271793.5,271794.62,276774.78,276776,2023-10-02T11:50:16Z,276795.6,NULL,Fenster,dirisha,d,NA,NA,NA,NA,sdfdsf,0,1,NA,NA,NA,NA,NA,NA,NA,NA,NA,NA,NA,NA,NA,NA,NA,NA,NA,NA,NA
a1006,deep,flow.Sequence,3_0_1_0_4_0,NA,NA,completion,12729.26,264037,264024.7,264045.52,276774.78,276777,2023-10-02T11:50:16Z,276795.6,NULL,Fenster,dirisha,d,NA,NA,NA,NA,sdfdsf,NA,1,NA,NA,NA,NA,NA,NA,NA,NA,NA,NA,NA,NA,NA,NA,NA,NA,NA,NA,NA
a1006,shallow,flow.Sequence,3_0_1_0_4_1,NA,NA,skipped,NA,276778,NA,NA,276774.78,276778,2023-10-02T11:50:16Z,276795.6,NULL,Fenster,dirisha,d,NA,NA,NA,NA,sdfdsf,NA,1,NA,NA,NA,NA,NA,NA,NA,NA,NA,NA,NA,NA,NA,NA,NA,NA,NA,NA,NA
a1006,task,flow.Sequence,3_0_1_0_4,NA,NA,completion,12729.26,264036,264024.7,264045.52,276774.78,276778,2023-10-02T11:50:16Z,276795.6,NULL,Fenster,dirisha,d,NA,NA,NA,NA,sdfdsf,NA,1,NA,NA,NA,NA,NA,NA,NA,NA,NA,NA,NA,NA,NA,NA,NA,NA,NA,NA,NA
a1006,Deep Question,html.Page,3_0_1_0_5_0_0,NA,NA,form submission,11211.4,276779,276774.78,276795.6,288007,288010,2023-10-02T11:50:27Z,288024.62,NULL,Spionage,upelelezi,d,NA,NA,NA,ngelelezi,NA,NA,1,NA,NA,NA,NA,NA,NA,NA,NA,NA,NA,NA,NA,NA,NA,NA,NA,NA,NA,NA
a1006,"""Richtig""-Screen",canvas.Screen,3_0_1_0_5_0_1,NA,NA,skipped,NA,288022,NA,NA,288007,288022,2023-10-02T11:50:27Z,288024.62,NULL,Spionage,upelelezi,d,NA,NA,NA,NA,sdfdsf,NA,1,NA,NA,NA,NA,NA,NA,NA,NA,NA,NA,NA,NA,NA,NA,NA,NA,NA,NA,NA
a1006,"""Falsch""-Screen",canvas.Screen,3_0_1_0_5_0_2,NA,NA,timeout,4999.66,288025,287997.18,288024.62,293003.46,293006,2023-10-02T11:50:32Z,293024.28,NULL,Spionage,upelelezi,d,NA,NA,NA,NA,sdfdsf,0,1,NA,NA,NA,NA,NA,NA,NA,NA,NA,NA,NA,NA,NA,NA,NA,NA,NA,NA,NA
a1006,deep,flow.Sequence,3_0_1_0_5_0,NA,NA,completion,16207.86,276779,276774.78,276795.6,293003.46,293007,2023-10-02T11:50:32Z,293024.28,NULL,Spionage,upelelezi,d,NA,NA,NA,NA,sdfdsf,NA,1,NA,NA,NA,NA,NA,NA,NA,NA,NA,NA,NA,NA,NA,NA,NA,NA,NA,NA,NA
a1006,shallow,flow.Sequence,3_0_1_0_5_1,NA,NA,skipped,NA,293007,NA,NA,293003.46,293008,2023-10-02T11:50:32Z,293024.28,NULL,Spionage,upelelezi,d,NA,NA,NA,NA,sdfdsf,NA,1,NA,NA,NA,NA,NA,NA,NA,NA,NA,NA,NA,NA,NA,NA,NA,NA,NA,NA,NA
a1006,task,flow.Sequence,3_0_1_0_5,NA,NA,completion,16207.86,276778,276774.78,276795.6,293003.46,293009,2023-10-02T11:50:32Z,293024.28,NULL,Spionage,upelelezi,d,NA,NA,NA,NA,sdfdsf,NA,1,NA,NA,NA,NA,NA,NA,NA,NA,NA,NA,NA,NA,NA,NA,NA,NA,NA,NA,NA
a1006,deep,flow.Sequence,3_0_1_0_6_0,NA,NA,skipped,NA,293009,NA,NA,293003.46,293010,2023-10-02T11:50:32Z,293024.28,NULL,Konkurrent,mshindani,s,msemaji,mvutaji,kipukusa,NA,sdfdsf,NA,1,NA,NA,NA,NA,NA,NA,NA,NA,NA,NA,NA,NA,NA,NA,NA,NA,NA,NA,NA
a1006,Shallow Question,html.Page,3_0_1_0_6_1_0,NA,NA,form submission,7935.72,293010,293003.46,293024.28,300960,300961,2023-10-02T11:50:40Z,300961.6,NULL,Konkurrent,mshindani,s,msemaji,mvutaji,kipukusa,mshindani,NA,NA,1,NA,NA,NA,NA,NA,NA,NA,NA,NA,NA,NA,NA,NA,NA,NA,NA,NA,NA,NA
a1006,"""Richtig""-Screen",canvas.Screen,3_0_1_0_6_1_1,NA,NA,timeout,5000.16,300964,300953.2,300961.6,305940.92,305943,2023-10-02T11:50:45Z,305961.76,NULL,Konkurrent,mshindani,s,msemaji,mvutaji,kipukusa,NA,sdfdsf,1,1,NA,NA,NA,NA,NA,NA,NA,NA,NA,NA,NA,NA,NA,NA,NA,NA,NA,NA,NA
a1006,"""Falsch""-Screen",canvas.Screen,3_0_1_0_6_1_2,NA,NA,skipped,NA,305950,NA,NA,305940.92,305951,2023-10-02T11:50:45Z,305961.76,NULL,Konkurrent,mshindani,s,msemaji,mvutaji,kipukusa,NA,sdfdsf,NA,1,NA,NA,NA,NA,NA,NA,NA,NA,NA,NA,NA,NA,NA,NA,NA,NA,NA,NA,NA
a1006,shallow,flow.Sequence,3_0_1_0_6_1,NA,NA,completion,12916.64,293010,293003.46,293024.28,305940.92,305952,2023-10-02T11:50:45Z,305961.76,NULL,Konkurrent,mshindani,s,msemaji,mvutaji,kipukusa,NA,sdfdsf,NA,1,NA,NA,NA,NA,NA,NA,NA,NA,NA,NA,NA,NA,NA,NA,NA,NA,NA,NA,NA
a1006,task,flow.Sequence,3_0_1_0_6,NA,NA,completion,12916.64,293009,293003.46,293024.28,305940.92,305952,2023-10-02T11:50:45Z,305961.76,NULL,Konkurrent,mshindani,s,msemaji,mvutaji,kipukusa,NA,sdfdsf,NA,1,NA,NA,NA,NA,NA,NA,NA,NA,NA,NA,NA,NA,NA,NA,NA,NA,NA,NA,NA
a1006,Deep Question,html.Page,3_0_1_0_7_0_0,NA,NA,form submission,21459.24,305954,305940.92,305961.76,327421,327421,2023-10-02T11:51:07Z,327440.34,NULL,Symbol,kielezo,d,NA,NA,NA,mylezi,NA,NA,1,NA,NA,NA,NA,NA,NA,NA,NA,NA,NA,NA,NA,NA,NA,NA,NA,NA,NA,NA
a1006,"""Richtig""-Screen",canvas.Screen,3_0_1_0_7_0_1,NA,NA,skipped,NA,327423,NA,NA,327421,327423,2023-10-02T11:51:07Z,327440.34,NULL,Symbol,kielezo,d,NA,NA,NA,NA,sdfdsf,NA,1,NA,NA,NA,NA,NA,NA,NA,NA,NA,NA,NA,NA,NA,NA,NA,NA,NA,NA,NA
a1006,"""Falsch""-Screen",canvas.Screen,3_0_1_0_7_0_2,NA,NA,timeout,5001.14,327424,327420,327440.34,332420.66,332423,2023-10-02T11:51:12Z,332441.48,NULL,Symbol,kielezo,d,NA,NA,NA,NA,sdfdsf,0,1,NA,NA,NA,NA,NA,NA,NA,NA,NA,NA,NA,NA,NA,NA,NA,NA,NA,NA,NA
a1006,deep,flow.Sequence,3_0_1_0_7_0,NA,NA,completion,26458.9,305954,305940.92,305961.76,332420.66,332424,2023-10-02T11:51:12Z,332441.48,NULL,Symbol,kielezo,d,NA,NA,NA,NA,sdfdsf,NA,1,NA,NA,NA,NA,NA,NA,NA,NA,NA,NA,NA,NA,NA,NA,NA,NA,NA,NA,NA
a1006,shallow,flow.Sequence,3_0_1_0_7_1,NA,NA,skipped,NA,332424,NA,NA,332420.66,332424,2023-10-02T11:51:12Z,332441.48,NULL,Symbol,kielezo,d,NA,NA,NA,NA,sdfdsf,NA,1,NA,NA,NA,NA,NA,NA,NA,NA,NA,NA,NA,NA,NA,NA,NA,NA,NA,NA,NA
a1006,task,flow.Sequence,3_0_1_0_7,NA,NA,completion,26458.9,305953,305940.92,305961.76,332420.66,332424,2023-10-02T11:51:12Z,332441.48,NULL,Symbol,kielezo,d,NA,NA,NA,NA,sdfdsf,NA,1,NA,NA,NA,NA,NA,NA,NA,NA,NA,NA,NA,NA,NA,NA,NA,NA,NA,NA,NA
a1006,block,flow.Loop,3_0_1_0,NA,NA,completion,112209.2,220198,220198.08,220211.46,332420.66,332425,2023-10-02T11:51:12Z,332441.48,NULL,NA,NA,NA,NA,NA,NA,NA,sdfdsf,NA,1,NA,NA,NA,NA,NA,NA,NA,NA,NA,NA,NA,NA,NA,NA,NA,NA,NA,NA,NA
a1006,weiter,canvas.Screen,3_0_1_1,sdf,keypress(Space),response,1323.52,332425,332420.66,332441.48,333765,333783,2023-10-02T11:51:13Z,333857.6,NULL,NA,NA,NA,NA,NA,NA,NA,sdfdsf,NA,1,NA,NA,NA,NA,NA,NA,NA,NA,NA,NA,NA,NA,NA,NA,NA,NA,NA,NA,NA
a1006,check continue,flow.Sequence,3_0_1,NA,NA,completion,113553.54,220198,220198.08,220211.46,333765,333784,2023-10-02T11:51:13Z,333857.6,NULL,NA,NA,NA,NA,NA,NA,NA,sdfdsf,NA,1,NA,NA,NA,NA,NA,NA,NA,NA,NA,NA,NA,NA,NA,NA,NA,NA,NA,NA,NA
a1006,Deep Question,html.Page,3_0_2_0_0_0_0,NA,NA,form submission,9583.4,333841,333841.32,333857.6,343441,343441,2023-10-02T11:51:23Z,343441.64,NULL,Spionage,upelelezi,d,NA,NA,NA,upelelezi,NA,NA,2,NA,NA,NA,NA,NA,NA,NA,NA,NA,NA,NA,NA,NA,NA,NA,NA,NA,NA,NA
a1006,"""Richtig""-Screen",canvas.Screen,3_0_2_0_0_0_1,NA,NA,timeout,4999.38,343444,343439.64,343441.64,348420.2,348423,2023-10-02T11:51:28Z,348441.02,NULL,Spionage,upelelezi,d,NA,NA,NA,NA,sdf,1,2,NA,NA,NA,NA,NA,NA,NA,NA,NA,NA,NA,NA,NA,NA,NA,NA,NA,NA,NA
a1006,"""Falsch""-Screen",canvas.Screen,3_0_2_0_0_0_2,NA,NA,skipped,NA,348426,NA,NA,348420.2,348426,2023-10-02T11:51:28Z,348441.02,NULL,Spionage,upelelezi,d,NA,NA,NA,NA,sdf,NA,2,NA,NA,NA,NA,NA,NA,NA,NA,NA,NA,NA,NA,NA,NA,NA,NA,NA,NA,NA
a1006,deep,flow.Sequence,3_0_2_0_0_0,NA,NA,completion,14562.6,333841,333841.32,333857.6,348420.2,348426,2023-10-02T11:51:28Z,348441.02,NULL,Spionage,upelelezi,d,NA,NA,NA,NA,sdf,NA,2,NA,NA,NA,NA,NA,NA,NA,NA,NA,NA,NA,NA,NA,NA,NA,NA,NA,NA,NA
a1006,shallow,flow.Sequence,3_0_2_0_0_1,NA,NA,skipped,NA,348427,NA,NA,348420.2,348427,2023-10-02T11:51:28Z,348441.02,NULL,Spionage,upelelezi,d,NA,NA,NA,NA,sdf,NA,2,NA,NA,NA,NA,NA,NA,NA,NA,NA,NA,NA,NA,NA,NA,NA,NA,NA,NA,NA
a1006,task,flow.Sequence,3_0_2_0_0,NA,NA,completion,14562.6,333841,333841.32,333857.6,348420.2,348427,2023-10-02T11:51:28Z,348441.02,NULL,Spionage,upelelezi,d,NA,NA,NA,NA,sdf,NA,2,NA,NA,NA,NA,NA,NA,NA,NA,NA,NA,NA,NA,NA,NA,NA,NA,NA,NA,NA
a1006,deep,flow.Sequence,3_0_2_0_1_0,NA,NA,skipped,NA,348427,NA,NA,348420.2,348427,2023-10-02T11:51:28Z,348441.02,NULL,Tester,wanaojaribu,s,sherti,sihiri,mlipuko,NA,sdf,NA,2,NA,NA,NA,NA,NA,NA,NA,NA,NA,NA,NA,NA,NA,NA,NA,NA,NA,NA,NA
a1006,Shallow Question,html.Page,3_0_2_0_1_1_0,NA,NA,form submission,4077.98,348427,348420.2,348441.02,352519,352520,2023-10-02T11:51:32Z,352524.96,NULL,Tester,wanaojaribu,s,sherti,sihiri,mlipuko,wanaojaribu,NA,NA,2,NA,NA,NA,NA,NA,NA,NA,NA,NA,NA,NA,NA,NA,NA,NA,NA,NA,NA,NA
a1006,"""Richtig""-Screen",canvas.Screen,3_0_2_0_1_1_1,NA,NA,timeout,4999.58,352525,352514.66,352524.96,357503.72,357506,2023-10-02T11:51:37Z,357524.54,NULL,Tester,wanaojaribu,s,sherti,sihiri,mlipuko,NA,sdf,1,2,NA,NA,NA,NA,NA,NA,NA,NA,NA,NA,NA,NA,NA,NA,NA,NA,NA,NA,NA
a1006,"""Falsch""-Screen",canvas.Screen,3_0_2_0_1_1_2,NA,NA,skipped,NA,357512,NA,NA,357503.72,357512,2023-10-02T11:51:37Z,357524.54,NULL,Tester,wanaojaribu,s,sherti,sihiri,mlipuko,NA,sdf,NA,2,NA,NA,NA,NA,NA,NA,NA,NA,NA,NA,NA,NA,NA,NA,NA,NA,NA,NA,NA
a1006,shallow,flow.Sequence,3_0_2_0_1_1,NA,NA,completion,9062.7,348427,348420.2,348441.02,357503.72,357512,2023-10-02T11:51:37Z,357524.54,NULL,Tester,wanaojaribu,s,sherti,sihiri,mlipuko,NA,sdf,NA,2,NA,NA,NA,NA,NA,NA,NA,NA,NA,NA,NA,NA,NA,NA,NA,NA,NA,NA,NA
a1006,task,flow.Sequence,3_0_2_0_1,NA,NA,completion,9062.7,348427,348420.2,348441.02,357503.72,357513,2023-10-02T11:51:37Z,357524.54,NULL,Tester,wanaojaribu,s,sherti,sihiri,mlipuko,NA,sdf,NA,2,NA,NA,NA,NA,NA,NA,NA,NA,NA,NA,NA,NA,NA,NA,NA,NA,NA,NA,NA
a1006,Deep Question,html.Page,3_0_2_0_2_0_0,NA,NA,form submission,12394.46,357513,357503.72,357524.54,369919,369919,2023-10-02T11:51:49Z,369920.84,NULL,Zuwachs,nyongeza,d,NA,NA,NA,nyongeza,NA,NA,2,NA,NA,NA,NA,NA,NA,NA,NA,NA,NA,NA,NA,NA,NA,NA,NA,NA,NA,NA
a1006,"""Richtig""-Screen",canvas.Screen,3_0_2_0_2_0_1,NA,NA,timeout,4999.6,369921,369916.36,369920.84,374899.62,374902,2023-10-02T11:51:54Z,374920.44,NULL,Zuwachs,nyongeza,d,NA,NA,NA,NA,sdf,1,2,NA,NA,NA,NA,NA,NA,NA,NA,NA,NA,NA,NA,NA,NA,NA,NA,NA,NA,NA
a1006,"""Falsch""-Screen",canvas.Screen,3_0_2_0_2_0_2,NA,NA,skipped,NA,374908,NA,NA,374899.62,374908,2023-10-02T11:51:54Z,374920.44,NULL,Zuwachs,nyongeza,d,NA,NA,NA,NA,sdf,NA,2,NA,NA,NA,NA,NA,NA,NA,NA,NA,NA,NA,NA,NA,NA,NA,NA,NA,NA,NA
a1006,deep,flow.Sequence,3_0_2_0_2_0,NA,NA,completion,17375.08,357513,357503.72,357524.54,374899.62,374908,2023-10-02T11:51:54Z,374920.44,NULL,Zuwachs,nyongeza,d,NA,NA,NA,NA,sdf,NA,2,NA,NA,NA,NA,NA,NA,NA,NA,NA,NA,NA,NA,NA,NA,NA,NA,NA,NA,NA
a1006,shallow,flow.Sequence,3_0_2_0_2_1,NA,NA,skipped,NA,374908,NA,NA,374899.62,374909,2023-10-02T11:51:54Z,374920.44,NULL,Zuwachs,nyongeza,d,NA,NA,NA,NA,sdf,NA,2,NA,NA,NA,NA,NA,NA,NA,NA,NA,NA,NA,NA,NA,NA,NA,NA,NA,NA,NA
a1006,task,flow.Sequence,3_0_2_0_2,NA,NA,completion,17375.08,357513,357503.72,357524.54,374899.62,374909,2023-10-02T11:51:54Z,374920.44,NULL,Zuwachs,nyongeza,d,NA,NA,NA,NA,sdf,NA,2,NA,NA,NA,NA,NA,NA,NA,NA,NA,NA,NA,NA,NA,NA,NA,NA,NA,NA,NA
a1006,deep,flow.Sequence,3_0_2_0_3_0,NA,NA,skipped,NA,374909,NA,NA,374899.62,374909,2023-10-02T11:51:54Z,374920.44,NULL,Schüler,mwanafunzi,s,mwekezaji,matumizi,uaminifu,NA,sdf,NA,2,NA,NA,NA,NA,NA,NA,NA,NA,NA,NA,NA,NA,NA,NA,NA,NA,NA,NA,NA
a1006,Shallow Question,html.Page,3_0_2_0_3_1_0,NA,NA,form submission,5135.56,374909,374899.62,374920.44,380056,380056,2023-10-02T11:51:59Z,380066.5,NULL,Schüler,mwanafunzi,s,mwekezaji,matumizi,uaminifu,mwanafunzi,NA,NA,2,NA,NA,NA,NA,NA,NA,NA,NA,NA,NA,NA,NA,NA,NA,NA,NA,NA,NA,NA
a1006,"""Richtig""-Screen",canvas.Screen,3_0_2_0_3_1_1,NA,NA,timeout,4999.66,380059,380051.66,380066.5,385045.34,385047,2023-10-02T11:52:04Z,385066.16,NULL,Schüler,mwanafunzi,s,mwekezaji,matumizi,uaminifu,NA,sdf,1,2,NA,NA,NA,NA,NA,NA,NA,NA,NA,NA,NA,NA,NA,NA,NA,NA,NA,NA,NA
a1006,"""Falsch""-Screen",canvas.Screen,3_0_2_0_3_1_2,NA,NA,skipped,NA,385052,NA,NA,385045.34,385052,2023-10-02T11:52:04Z,385066.16,NULL,Schüler,mwanafunzi,s,mwekezaji,matumizi,uaminifu,NA,sdf,NA,2,NA,NA,NA,NA,NA,NA,NA,NA,NA,NA,NA,NA,NA,NA,NA,NA,NA,NA,NA
a1006,shallow,flow.Sequence,3_0_2_0_3_1,NA,NA,completion,10124.9,374909,374899.62,374920.44,385045.34,385054,2023-10-02T11:52:04Z,385066.16,NULL,Schüler,mwanafunzi,s,mwekezaji,matumizi,uaminifu,NA,sdf,NA,2,NA,NA,NA,NA,NA,NA,NA,NA,NA,NA,NA,NA,NA,NA,NA,NA,NA,NA,NA
a1006,task,flow.Sequence,3_0_2_0_3,NA,NA,completion,10124.9,374909,374899.62,374920.44,385045.34,385055,2023-10-02T11:52:04Z,385066.16,NULL,Schüler,mwanafunzi,s,mwekezaji,matumizi,uaminifu,NA,sdf,NA,2,NA,NA,NA,NA,NA,NA,NA,NA,NA,NA,NA,NA,NA,NA,NA,NA,NA,NA,NA
a1006,deep,flow.Sequence,3_0_2_0_4_0,NA,NA,skipped,NA,385055,NA,NA,385045.34,385055,2023-10-02T11:52:04Z,385066.16,NULL,Konkurrent,mshindani,s,msemaji,mvutaji,kipukusa,NA,sdf,NA,2,NA,NA,NA,NA,NA,NA,NA,NA,NA,NA,NA,NA,NA,NA,NA,NA,NA,NA,NA
a1006,Shallow Question,html.Page,3_0_2_0_4_1_0,NA,NA,form submission,5789.84,385056,385045.34,385066.16,390856,390857,2023-10-02T11:52:10Z,390857.52,NULL,Konkurrent,mshindani,s,msemaji,mvutaji,kipukusa,mshindani,NA,NA,2,NA,NA,NA,NA,NA,NA,NA,NA,NA,NA,NA,NA,NA,NA,NA,NA,NA,NA,NA
a1006,"""Richtig""-Screen",canvas.Screen,3_0_2_0_4_1_1,NA,NA,timeout,5000.96,390862,390852.12,390857.52,395837.64,395843,2023-10-02T11:52:15Z,395858.48,NULL,Konkurrent,mshindani,s,msemaji,mvutaji,kipukusa,NA,sdf,1,2,NA,NA,NA,NA,NA,NA,NA,NA,NA,NA,NA,NA,NA,NA,NA,NA,NA,NA,NA
a1006,"""Falsch""-Screen",canvas.Screen,3_0_2_0_4_1_2,NA,NA,skipped,NA,395854,NA,NA,395837.64,395855,2023-10-02T11:52:15Z,395858.48,NULL,Konkurrent,mshindani,s,msemaji,mvutaji,kipukusa,NA,sdf,NA,2,NA,NA,NA,NA,NA,NA,NA,NA,NA,NA,NA,NA,NA,NA,NA,NA,NA,NA,NA
a1006,shallow,flow.Sequence,3_0_2_0_4_1,NA,NA,completion,10771.48,385056,385045.34,385066.16,395837.64,395855,2023-10-02T11:52:15Z,395858.48,NULL,Konkurrent,mshindani,s,msemaji,mvutaji,kipukusa,NA,sdf,NA,2,NA,NA,NA,NA,NA,NA,NA,NA,NA,NA,NA,NA,NA,NA,NA,NA,NA,NA,NA
a1006,task,flow.Sequence,3_0_2_0_4,NA,NA,completion,10771.48,385055,385045.34,385066.16,395837.64,395855,2023-10-02T11:52:15Z,395858.48,NULL,Konkurrent,mshindani,s,msemaji,mvutaji,kipukusa,NA,sdf,NA,2,NA,NA,NA,NA,NA,NA,NA,NA,NA,NA,NA,NA,NA,NA,NA,NA,NA,NA,NA
a1006,Deep Question,html.Page,3_0_2_0_5_0_0,NA,NA,form submission,11735.52,395856,395837.64,395858.48,407594,407595,2023-10-02T11:52:27Z,407586.16,NULL,Fenster,dirisha,d,NA,NA,NA,diliezo,NA,NA,2,NA,NA,NA,NA,NA,NA,NA,NA,NA,NA,NA,NA,NA,NA,NA,NA,NA,NA,NA
a1006,"""Richtig""-Screen",canvas.Screen,3_0_2_0_5_0_1,NA,NA,skipped,NA,407600,NA,NA,407594,407600,2023-10-02T11:52:27Z,407586.16,NULL,Fenster,dirisha,d,NA,NA,NA,NA,sdf,NA,2,NA,NA,NA,NA,NA,NA,NA,NA,NA,NA,NA,NA,NA,NA,NA,NA,NA,NA,NA
a1006,"""Falsch""-Screen",canvas.Screen,3_0_2_0_5_0_2,NA,NA,timeout,5001.32,407605,407586,407586.16,412566.66,412569,2023-10-02T11:52:32Z,412587.48,NULL,Fenster,dirisha,d,NA,NA,NA,NA,sdf,0,2,NA,NA,NA,NA,NA,NA,NA,NA,NA,NA,NA,NA,NA,NA,NA,NA,NA,NA,NA
a1006,deep,flow.Sequence,3_0_2_0_5_0,NA,NA,completion,16708.18,395856,395837.64,395858.48,412566.66,412569,2023-10-02T11:52:32Z,412587.48,NULL,Fenster,dirisha,d,NA,NA,NA,NA,sdf,NA,2,NA,NA,NA,NA,NA,NA,NA,NA,NA,NA,NA,NA,NA,NA,NA,NA,NA,NA,NA
a1006,shallow,flow.Sequence,3_0_2_0_5_1,NA,NA,skipped,NA,412569,NA,NA,412566.66,412571,2023-10-02T11:52:32Z,412587.48,NULL,Fenster,dirisha,d,NA,NA,NA,NA,sdf,NA,2,NA,NA,NA,NA,NA,NA,NA,NA,NA,NA,NA,NA,NA,NA,NA,NA,NA,NA,NA
a1006,task,flow.Sequence,3_0_2_0_5,NA,NA,completion,16708.18,395856,395837.64,395858.48,412566.66,412571,2023-10-02T11:52:32Z,412587.48,NULL,Fenster,dirisha,d,NA,NA,NA,NA,sdf,NA,2,NA,NA,NA,NA,NA,NA,NA,NA,NA,NA,NA,NA,NA,NA,NA,NA,NA,NA,NA
a1006,Deep Question,html.Page,3_0_2_0_6_0_0,NA,NA,form submission,22973.52,412572,412566.66,412587.48,435561,435561,2023-10-02T11:52:55Z,435566,NULL,Symbol,kielezo,d,NA,NA,NA,dilezo,NA,NA,2,NA,NA,NA,NA,NA,NA,NA,NA,NA,NA,NA,NA,NA,NA,NA,NA,NA,NA,NA
a1006,"""Richtig""-Screen",canvas.Screen,3_0_2_0_6_0_1,NA,NA,skipped,NA,435562,NA,NA,435561,435562,2023-10-02T11:52:55Z,435566,NULL,Symbol,kielezo,d,NA,NA,NA,NA,sdf,NA,2,NA,NA,NA,NA,NA,NA,NA,NA,NA,NA,NA,NA,NA,NA,NA,NA,NA,NA,NA
a1006,"""Falsch""-Screen",canvas.Screen,3_0_2_0_6_0_2,NA,NA,timeout,4999.62,435564,435558.5,435566,440544.78,440548,2023-10-02T11:53:00Z,440565.62,NULL,Symbol,kielezo,d,NA,NA,NA,NA,sdf,0,2,NA,NA,NA,NA,NA,NA,NA,NA,NA,NA,NA,NA,NA,NA,NA,NA,NA,NA,NA
a1006,deep,flow.Sequence,3_0_2_0_6_0,NA,NA,completion,27957.3,412572,412566.66,412587.48,440544.78,440549,2023-10-02T11:53:00Z,440565.62,NULL,Symbol,kielezo,d,NA,NA,NA,NA,sdf,NA,2,NA,NA,NA,NA,NA,NA,NA,NA,NA,NA,NA,NA,NA,NA,NA,NA,NA,NA,NA
a1006,shallow,flow.Sequence,3_0_2_0_6_1,NA,NA,skipped,NA,440549,NA,NA,440544.78,440549,2023-10-02T11:53:00Z,440565.62,NULL,Symbol,kielezo,d,NA,NA,NA,NA,sdf,NA,2,NA,NA,NA,NA,NA,NA,NA,NA,NA,NA,NA,NA,NA,NA,NA,NA,NA,NA,NA
a1006,task,flow.Sequence,3_0_2_0_6,NA,NA,completion,27957.3,412571,412566.66,412587.48,440544.78,440550,2023-10-02T11:53:00Z,440565.62,NULL,Symbol,kielezo,d,NA,NA,NA,NA,sdf,NA,2,NA,NA,NA,NA,NA,NA,NA,NA,NA,NA,NA,NA,NA,NA,NA,NA,NA,NA,NA
a1006,deep,flow.Sequence,3_0_2_0_7_0,NA,NA,skipped,NA,440550,NA,NA,440544.78,440551,2023-10-02T11:53:00Z,440565.62,NULL,Vorsorge,tahadhari,s,ufafanuzi,makini,mashambani,NA,sdf,NA,2,NA,NA,NA,NA,NA,NA,NA,NA,NA,NA,NA,NA,NA,NA,NA,NA,NA,NA,NA
a1006,Shallow Question,html.Page,3_0_2_0_7_1_0,NA,NA,form submission,7242.38,440551,440544.78,440565.62,447808,447808,2023-10-02T11:53:07Z,447815.76,NULL,Vorsorge,tahadhari,s,ufafanuzi,makini,mashambani,mashambani,NA,NA,2,NA,NA,NA,NA,NA,NA,NA,NA,NA,NA,NA,NA,NA,NA,NA,NA,NA,NA,NA
a1006,"""Richtig""-Screen",canvas.Screen,3_0_2_0_7_1_1,NA,NA,skipped,NA,447811,NA,NA,447808,447811,2023-10-02T11:53:07Z,447815.76,NULL,Vorsorge,tahadhari,s,ufafanuzi,makini,mashambani,NA,sdf,NA,2,NA,NA,NA,NA,NA,NA,NA,NA,NA,NA,NA,NA,NA,NA,NA,NA,NA,NA,NA
a1006,"""Falsch""-Screen",canvas.Screen,3_0_2_0_7_1_2,NA,NA,timeout,5001.12,447813,447806.52,447815.76,452796.06,452803,2023-10-02T11:53:12Z,452816.88,NULL,Vorsorge,tahadhari,s,ufafanuzi,makini,mashambani,NA,sdf,0,2,NA,NA,NA,NA,NA,NA,NA,NA,NA,NA,NA,NA,NA,NA,NA,NA,NA,NA,NA
a1006,shallow,flow.Sequence,3_0_2_0_7_1,NA,NA,completion,12230.44,440551,440544.78,440565.62,452796.06,452805,2023-10-02T11:53:12Z,452816.88,NULL,Vorsorge,tahadhari,s,ufafanuzi,makini,mashambani,NA,sdf,NA,2,NA,NA,NA,NA,NA,NA,NA,NA,NA,NA,NA,NA,NA,NA,NA,NA,NA,NA,NA
a1006,task,flow.Sequence,3_0_2_0_7,NA,NA,completion,12230.44,440550,440544.78,440565.62,452796.06,452807,2023-10-02T11:53:12Z,452816.88,NULL,Vorsorge,tahadhari,s,ufafanuzi,makini,mashambani,NA,sdf,NA,2,NA,NA,NA,NA,NA,NA,NA,NA,NA,NA,NA,NA,NA,NA,NA,NA,NA,NA,NA
a1006,block,flow.Loop,3_0_2_0,NA,NA,completion,118938.46,333841,333841.32,333857.6,452796.06,452808,2023-10-02T11:53:12Z,452816.88,NULL,NA,NA,NA,NA,NA,NA,NA,sdf,NA,2,NA,NA,NA,NA,NA,NA,NA,NA,NA,NA,NA,NA,NA,NA,NA,NA,NA,NA,NA
a1006,weiter,canvas.Screen,3_0_2_1,sdf,keypress(Space),response,1105.12,452808,452796.06,452816.88,453922,453926,2023-10-02T11:53:13Z,454711.98,NULL,NA,NA,NA,NA,NA,NA,NA,sdf,NA,2,NA,NA,NA,NA,NA,NA,NA,NA,NA,NA,NA,NA,NA,NA,NA,NA,NA,NA,NA
a1006,check continue,flow.Sequence,3_0_2,NA,NA,completion,120064.4,333841,333841.32,333857.6,453922,453926,2023-10-02T11:53:13Z,454711.98,NULL,NA,NA,NA,NA,NA,NA,NA,sdf,NA,2,NA,NA,NA,NA,NA,NA,NA,NA,NA,NA,NA,NA,NA,NA,NA,NA,NA,NA,NA
a1006,check continue,flow.Sequence,3_0_3,NA,NA,skipped,NA,453982,NA,NA,453922,453982,2023-10-02T11:53:13Z,454711.98,NULL,NA,NA,NA,NA,NA,NA,NA,qt,NA,3,NA,NA,NA,NA,NA,NA,NA,NA,NA,NA,NA,NA,NA,NA,NA,NA,NA,NA,NA
a1006,check continue,flow.Sequence,3_0_4,NA,NA,skipped,NA,454012,NA,NA,453922,454012,2023-10-02T11:53:13Z,454711.98,NULL,NA,NA,NA,NA,NA,NA,NA,sd,NA,4,NA,NA,NA,NA,NA,NA,NA,NA,NA,NA,NA,NA,NA,NA,NA,NA,NA,NA,NA
a1006,check continue,flow.Sequence,3_0_5,NA,NA,skipped,NA,454042,NA,NA,453922,454042,2023-10-02T11:53:13Z,454711.98,NULL,NA,NA,NA,NA,NA,NA,NA,sdf,NA,5,NA,NA,NA,NA,NA,NA,NA,NA,NA,NA,NA,NA,NA,NA,NA,NA,NA,NA,NA
a1006,check continue,flow.Sequence,3_0_6,NA,NA,skipped,NA,454073,NA,NA,453922,454073,2023-10-02T11:53:13Z,454711.98,NULL,NA,NA,NA,NA,NA,NA,NA,dfs,NA,6,NA,NA,NA,NA,NA,NA,NA,NA,NA,NA,NA,NA,NA,NA,NA,NA,NA,NA,NA
a1006,check continue,flow.Sequence,3_0_7,NA,NA,skipped,NA,454104,NA,NA,453922,454105,2023-10-02T11:53:13Z,454711.98,NULL,NA,NA,NA,NA,NA,NA,NA,df,NA,7,NA,NA,NA,NA,NA,NA,NA,NA,NA,NA,NA,NA,NA,NA,NA,NA,NA,NA,NA
a1006,check continue,flow.Sequence,3_0_8,NA,NA,skipped,NA,454133,NA,NA,453922,454133,2023-10-02T11:53:13Z,454711.98,NULL,NA,NA,NA,NA,NA,NA,NA,dfs,NA,8,NA,NA,NA,NA,NA,NA,NA,NA,NA,NA,NA,NA,NA,NA,NA,NA,NA,NA,NA
a1006,check continue,flow.Sequence,3_0_9,NA,NA,skipped,NA,454161,NA,NA,453922,454162,2023-10-02T11:53:13Z,454711.98,NULL,NA,NA,NA,NA,NA,NA,NA,dsf,NA,9,NA,NA,NA,NA,NA,NA,NA,NA,NA,NA,NA,NA,NA,NA,NA,NA,NA,NA,NA
a1006,check continue,flow.Sequence,3_0_10,NA,NA,skipped,NA,454189,NA,NA,453922,454189,2023-10-02T11:53:14Z,454711.98,NULL,NA,NA,NA,NA,NA,NA,NA,df,NA,10,NA,NA,NA,NA,NA,NA,NA,NA,NA,NA,NA,NA,NA,NA,NA,NA,NA,NA,NA
a1006,check continue,flow.Sequence,3_0_11,NA,NA,skipped,NA,454219,NA,NA,453922,454219,2023-10-02T11:53:14Z,454711.98,NULL,NA,NA,NA,NA,NA,NA,NA,dfs,NA,11,NA,NA,NA,NA,NA,NA,NA,NA,NA,NA,NA,NA,NA,NA,NA,NA,NA,NA,NA
a1006,check continue,flow.Sequence,3_0_12,NA,NA,skipped,NA,454248,NA,NA,453922,454248,2023-10-02T11:53:14Z,454711.98,NULL,NA,NA,NA,NA,NA,NA,NA,dsf,NA,12,NA,NA,NA,NA,NA,NA,NA,NA,NA,NA,NA,NA,NA,NA,NA,NA,NA,NA,NA
a1006,check continue,flow.Sequence,3_0_13,NA,NA,skipped,NA,454274,NA,NA,453922,454274,2023-10-02T11:53:14Z,454711.98,NULL,NA,NA,NA,NA,NA,NA,NA,dsf,NA,13,NA,NA,NA,NA,NA,NA,NA,NA,NA,NA,NA,NA,NA,NA,NA,NA,NA,NA,NA
a1006,check continue,flow.Sequence,3_0_14,NA,NA,skipped,NA,454303,NA,NA,453922,454303,2023-10-02T11:53:14Z,454711.98,NULL,NA,NA,NA,NA,NA,NA,NA,NA,NA,14,NA,NA,NA,NA,NA,NA,NA,NA,NA,NA,NA,NA,NA,NA,NA,NA,NA,NA,NA
a1006,check continue,flow.Sequence,3_0_15,NA,NA,skipped,NA,454328,NA,NA,453922,454328,2023-10-02T11:53:14Z,454711.98,NULL,NA,NA,NA,NA,NA,NA,NA,NA,NA,15,NA,NA,NA,NA,NA,NA,NA,NA,NA,NA,NA,NA,NA,NA,NA,NA,NA,NA,NA
a1006,check continue,flow.Sequence,3_0_16,NA,NA,skipped,NA,454352,NA,NA,453922,454352,2023-10-02T11:53:14Z,454711.98,NULL,NA,NA,NA,NA,NA,NA,NA,NA,NA,16,NA,NA,NA,NA,NA,NA,NA,NA,NA,NA,NA,NA,NA,NA,NA,NA,NA,NA,NA
a1006,check continue,flow.Sequence,3_0_17,NA,NA,skipped,NA,454381,NA,NA,453922,454381,2023-10-02T11:53:14Z,454711.98,NULL,NA,NA,NA,NA,NA,NA,NA,NA,NA,17,NA,NA,NA,NA,NA,NA,NA,NA,NA,NA,NA,NA,NA,NA,NA,NA,NA,NA,NA
a1006,check continue,flow.Sequence,3_0_18,NA,NA,skipped,NA,454410,NA,NA,453922,454410,2023-10-02T11:53:14Z,454711.98,NULL,NA,NA,NA,NA,NA,NA,NA,NA,NA,18,NA,NA,NA,NA,NA,NA,NA,NA,NA,NA,NA,NA,NA,NA,NA,NA,NA,NA,NA
a1006,check continue,flow.Sequence,3_0_19,NA,NA,skipped,NA,454437,NA,NA,453922,454437,2023-10-02T11:53:14Z,454711.98,NULL,NA,NA,NA,NA,NA,NA,NA,NA,NA,19,NA,NA,NA,NA,NA,NA,NA,NA,NA,NA,NA,NA,NA,NA,NA,NA,NA,NA,NA
a1006,check continue,flow.Sequence,3_0_20,NA,NA,skipped,NA,454464,NA,NA,453922,454464,2023-10-02T11:53:14Z,454711.98,NULL,NA,NA,NA,NA,NA,NA,NA,NA,NA,20,NA,NA,NA,NA,NA,NA,NA,NA,NA,NA,NA,NA,NA,NA,NA,NA,NA,NA,NA
a1006,check continue,flow.Sequence,3_0_21,NA,NA,skipped,NA,454489,NA,NA,453922,454490,2023-10-02T11:53:14Z,454711.98,NULL,NA,NA,NA,NA,NA,NA,NA,NA,NA,21,NA,NA,NA,NA,NA,NA,NA,NA,NA,NA,NA,NA,NA,NA,NA,NA,NA,NA,NA
a1006,check continue,flow.Sequence,3_0_22,NA,NA,skipped,NA,454515,NA,NA,453922,454515,2023-10-02T11:53:14Z,454711.98,NULL,NA,NA,NA,NA,NA,NA,NA,NA,NA,22,NA,NA,NA,NA,NA,NA,NA,NA,NA,NA,NA,NA,NA,NA,NA,NA,NA,NA,NA
a1006,check continue,flow.Sequence,3_0_23,NA,NA,skipped,NA,454542,NA,NA,453922,454542,2023-10-02T11:53:14Z,454711.98,NULL,NA,NA,NA,NA,NA,NA,NA,NA,NA,23,NA,NA,NA,NA,NA,NA,NA,NA,NA,NA,NA,NA,NA,NA,NA,NA,NA,NA,NA
a1006,check continue,flow.Sequence,3_0_24,NA,NA,skipped,NA,454567,NA,NA,453922,454567,2023-10-02T11:53:14Z,454711.98,NULL,NA,NA,NA,NA,NA,NA,NA,NA,NA,24,NA,NA,NA,NA,NA,NA,NA,NA,NA,NA,NA,NA,NA,NA,NA,NA,NA,NA,NA
a1006,check continue,flow.Sequence,3_0_25,NA,NA,skipped,NA,454599,NA,NA,453922,454599,2023-10-02T11:53:14Z,454711.98,NULL,NA,NA,NA,NA,NA,NA,NA,NA,NA,25,NA,NA,NA,NA,NA,NA,NA,NA,NA,NA,NA,NA,NA,NA,NA,NA,NA,NA,NA
a1006,check continue,flow.Sequence,3_0_26,NA,NA,skipped,NA,454626,NA,NA,453922,454626,2023-10-02T11:53:14Z,454711.98,NULL,NA,NA,NA,NA,NA,NA,NA,NA,NA,26,NA,NA,NA,NA,NA,NA,NA,NA,NA,NA,NA,NA,NA,NA,NA,NA,NA,NA,NA
a1006,check continue,flow.Sequence,3_0_27,NA,NA,skipped,NA,454649,NA,NA,453922,454649,2023-10-02T11:53:14Z,454711.98,NULL,NA,NA,NA,NA,NA,NA,NA,NA,NA,27,NA,NA,NA,NA,NA,NA,NA,NA,NA,NA,NA,NA,NA,NA,NA,NA,NA,NA,NA
a1006,check continue,flow.Sequence,3_0_28,NA,NA,skipped,NA,454677,NA,NA,453922,454677,2023-10-02T11:53:14Z,454711.98,NULL,NA,NA,NA,NA,NA,NA,NA,NA,NA,28,NA,NA,NA,NA,NA,NA,NA,NA,NA,NA,NA,NA,NA,NA,NA,NA,NA,NA,NA
a1006,check continue,flow.Sequence,3_0_29,NA,NA,skipped,NA,454705,NA,NA,453922,454705,2023-10-02T11:53:14Z,454711.98,NULL,NA,NA,NA,NA,NA,NA,NA,NA,NA,29,NA,NA,NA,NA,NA,NA,NA,NA,NA,NA,NA,NA,NA,NA,NA,NA,NA,NA,NA
a1006,until continue,flow.Loop,3_0,NA,NA,completion,345169.7,108713,108746.9,108752.3,453922,454705,2023-10-02T11:53:14Z,454711.98,NULL,NA,NA,NA,NA,NA,NA,NA,NA,NA,NA,NA,NA,NA,NA,NA,NA,NA,NA,NA,NA,NA,NA,NA,NA,NA,NA,NA,NA,NA
a1006,block 1,flow.Sequence,3,NA,NA,completion,345169.7,108713,108746.9,108752.3,453922,454705,2023-10-02T11:53:14Z,454711.98,NULL,NA,NA,NA,NA,NA,NA,NA,NA,NA,NA,NA,NA,NA,NA,NA,NA,NA,NA,NA,NA,NA,NA,NA,NA,NA,NA,NA,NA,NA
a1006,1.Part Over,canvas.Screen,4,NA,keypress(Space),response,2085.02,454705,454705.44,454711.98,456797,456811,2023-10-02T11:53:16Z,456879.26,NULL,NA,NA,NA,NA,NA,NA,NA,NA,NA,NA,NA,NA,NA,NA,NA,NA,NA,NA,NA,NA,NA,NA,NA,NA,NA,NA,NA,NA,NA
a1006,Deep Question,html.Page,5_0_0_0_0_0_0,NA,NA,form submission,7968.74,456877,456877.22,456879.26,464848,464848,2023-10-02T11:53:24Z,464857.34,NULL,Sympathie,mapendano,d,NA,NA,NA,liheni,NA,NA,0,NA,NA,NA,NA,NA,NA,NA,NA,NA,NA,NA,NA,NA,NA,NA,NA,NA,NA,NA
a1006,"""Richtig""-Screen",canvas.Screen,5_0_0_0_0_0_1,NA,NA,skipped,NA,464849,NA,NA,464848,464849,2023-10-02T11:53:24Z,464857.34,NULL,Sympathie,mapendano,d,NA,NA,NA,NA,sdf,NA,0,NA,NA,NA,NA,NA,NA,NA,NA,NA,NA,NA,NA,NA,NA,NA,NA,NA,NA,NA
a1006,"""Falsch""-Screen",canvas.Screen,5_0_0_0_0_0_2,NA,NA,timeout,5001.22,464850,464845.42,464857.34,469837.74,469839,2023-10-02T11:53:29Z,469858.56,NULL,Sympathie,mapendano,d,NA,NA,NA,NA,sdf,0,0,NA,NA,NA,NA,NA,NA,NA,NA,NA,NA,NA,NA,NA,NA,NA,NA,NA,NA,NA
a1006,deep,flow.Sequence,5_0_0_0_0_0,NA,NA,completion,12958.48,456877,456877.22,456879.26,469837.74,469839,2023-10-02T11:53:29Z,469858.56,NULL,Sympathie,mapendano,d,NA,NA,NA,NA,sdf,NA,0,NA,NA,NA,NA,NA,NA,NA,NA,NA,NA,NA,NA,NA,NA,NA,NA,NA,NA,NA
a1006,shallow,flow.Sequence,5_0_0_0_0_1,NA,NA,skipped,NA,469839,NA,NA,469837.74,469839,2023-10-02T11:53:29Z,469858.56,NULL,Sympathie,mapendano,d,NA,NA,NA,NA,sdf,NA,0,NA,NA,NA,NA,NA,NA,NA,NA,NA,NA,NA,NA,NA,NA,NA,NA,NA,NA,NA
a1006,task,flow.Sequence,5_0_0_0_0,NA,NA,completion,12958.48,456877,456877.22,456879.26,469837.74,469839,2023-10-02T11:53:29Z,469858.56,NULL,Sympathie,mapendano,d,NA,NA,NA,NA,sdf,NA,0,NA,NA,NA,NA,NA,NA,NA,NA,NA,NA,NA,NA,NA,NA,NA,NA,NA,NA,NA
a1006,Deep Question,html.Page,5_0_0_0_1_0_0,NA,NA,form submission,10731.44,469839,469837.74,469858.56,480590,480591,2023-10-02T11:53:40Z,480607.46,NULL,Schlange,foleni,d,NA,NA,NA,flesi,NA,NA,0,NA,NA,NA,NA,NA,NA,NA,NA,NA,NA,NA,NA,NA,NA,NA,NA,NA,NA,NA
a1006,"""Richtig""-Screen",canvas.Screen,5_0_0_0_1_0_1,NA,NA,skipped,NA,480593,NA,NA,480590,480593,2023-10-02T11:53:40Z,480607.46,NULL,Schlange,foleni,d,NA,NA,NA,NA,sdf,NA,0,NA,NA,NA,NA,NA,NA,NA,NA,NA,NA,NA,NA,NA,NA,NA,NA,NA,NA,NA
a1006,"""Falsch""-Screen",canvas.Screen,5_0_0_0_1_0_2,NA,NA,timeout,5001.02,480594,480588.9,480607.46,485587.66,485589,2023-10-02T11:53:45Z,485608.48,NULL,Schlange,foleni,d,NA,NA,NA,NA,sdf,0,0,NA,NA,NA,NA,NA,NA,NA,NA,NA,NA,NA,NA,NA,NA,NA,NA,NA,NA,NA
a1006,deep,flow.Sequence,5_0_0_0_1_0,NA,NA,completion,15729.1,469839,469837.74,469858.56,485587.66,485589,2023-10-02T11:53:45Z,485608.48,NULL,Schlange,foleni,d,NA,NA,NA,NA,sdf,NA,0,NA,NA,NA,NA,NA,NA,NA,NA,NA,NA,NA,NA,NA,NA,NA,NA,NA,NA,NA
a1006,shallow,flow.Sequence,5_0_0_0_1_1,NA,NA,skipped,NA,485590,NA,NA,485587.66,485590,2023-10-02T11:53:45Z,485608.48,NULL,Schlange,foleni,d,NA,NA,NA,NA,sdf,NA,0,NA,NA,NA,NA,NA,NA,NA,NA,NA,NA,NA,NA,NA,NA,NA,NA,NA,NA,NA
a1006,task,flow.Sequence,5_0_0_0_1,NA,NA,completion,15729.1,469839,469837.74,469858.56,485587.66,485591,2023-10-02T11:53:45Z,485608.48,NULL,Schlange,foleni,d,NA,NA,NA,NA,sdf,NA,0,NA,NA,NA,NA,NA,NA,NA,NA,NA,NA,NA,NA,NA,NA,NA,NA,NA,NA,NA
a1006,deep,flow.Sequence,5_0_0_0_2_0,NA,NA,skipped,NA,485591,NA,NA,485587.66,485591,2023-10-02T11:53:45Z,485608.48,NULL,Polizist,msongora,s,simanzi,mandhari,nidhamu,NA,sdf,NA,0,NA,NA,NA,NA,NA,NA,NA,NA,NA,NA,NA,NA,NA,NA,NA,NA,NA,NA,NA
a1006,Shallow Question,html.Page,5_0_0_0_2_1_0,NA,NA,form submission,17511.52,485592,485587.66,485608.48,503120,503120,2023-10-02T11:54:02Z,503128.54,NULL,Polizist,msongora,s,simanzi,mandhari,nidhamu,msongora,NA,NA,0,NA,NA,NA,NA,NA,NA,NA,NA,NA,NA,NA,NA,NA,NA,NA,NA,NA,NA,NA
a1006,"""Richtig""-Screen",canvas.Screen,5_0_0_0_2_1_1,NA,NA,timeout,5000.96,503124,503116.72,503128.54,508109.14,508110,2023-10-02T11:54:07Z,508129.5,NULL,Polizist,msongora,s,simanzi,mandhari,nidhamu,NA,sdf,1,0,NA,NA,NA,NA,NA,NA,NA,NA,NA,NA,NA,NA,NA,NA,NA,NA,NA,NA,NA
a1006,"""Falsch""-Screen",canvas.Screen,5_0_0_0_2_1_2,NA,NA,skipped,NA,508116,NA,NA,508109.14,508116,2023-10-02T11:54:07Z,508129.5,NULL,Polizist,msongora,s,simanzi,mandhari,nidhamu,NA,sdf,NA,0,NA,NA,NA,NA,NA,NA,NA,NA,NA,NA,NA,NA,NA,NA,NA,NA,NA,NA,NA
a1006,shallow,flow.Sequence,5_0_0_0_2_1,NA,NA,completion,22500.66,485592,485587.66,485608.48,508109.14,508117,2023-10-02T11:54:07Z,508129.5,NULL,Polizist,msongora,s,simanzi,mandhari,nidhamu,NA,sdf,NA,0,NA,NA,NA,NA,NA,NA,NA,NA,NA,NA,NA,NA,NA,NA,NA,NA,NA,NA,NA
a1006,task,flow.Sequence,5_0_0_0_2,NA,NA,completion,22500.66,485591,485587.66,485608.48,508109.14,508117,2023-10-02T11:54:07Z,508129.5,NULL,Polizist,msongora,s,simanzi,mandhari,nidhamu,NA,sdf,NA,0,NA,NA,NA,NA,NA,NA,NA,NA,NA,NA,NA,NA,NA,NA,NA,NA,NA,NA,NA
a1006,Deep Question,html.Page,5_0_0_0_3_0_0,NA,NA,form submission,9639.5,508118,508109.14,508129.5,517769,517769,2023-10-02T11:54:17Z,517775.26,NULL,Toleranz,kuvumiliana,d,NA,NA,NA,mgadezi,NA,NA,0,NA,NA,NA,NA,NA,NA,NA,NA,NA,NA,NA,NA,NA,NA,NA,NA,NA,NA,NA
a1006,"""Richtig""-Screen",canvas.Screen,5_0_0_0_3_0_1,NA,NA,skipped,NA,517770,NA,NA,517769,517770,2023-10-02T11:54:17Z,517775.26,NULL,Toleranz,kuvumiliana,d,NA,NA,NA,NA,sdf,NA,0,NA,NA,NA,NA,NA,NA,NA,NA,NA,NA,NA,NA,NA,NA,NA,NA,NA,NA,NA
a1006,"""Falsch""-Screen",canvas.Screen,5_0_0_0_3_0_2,NA,NA,timeout,4999.74,517771,517764.06,517775.26,522754.18,522756,2023-10-02T11:54:22Z,522775,NULL,Toleranz,kuvumiliana,d,NA,NA,NA,NA,sdf,0,0,NA,NA,NA,NA,NA,NA,NA,NA,NA,NA,NA,NA,NA,NA,NA,NA,NA,NA,NA
a1006,deep,flow.Sequence,5_0_0_0_3_0,NA,NA,completion,14624.68,508118,508109.14,508129.5,522754.18,522756,2023-10-02T11:54:22Z,522775,NULL,Toleranz,kuvumiliana,d,NA,NA,NA,NA,sdf,NA,0,NA,NA,NA,NA,NA,NA,NA,NA,NA,NA,NA,NA,NA,NA,NA,NA,NA,NA,NA
a1006,shallow,flow.Sequence,5_0_0_0_3_1,NA,NA,skipped,NA,522756,NA,NA,522754.18,522757,2023-10-02T11:54:22Z,522775,NULL,Toleranz,kuvumiliana,d,NA,NA,NA,NA,sdf,NA,0,NA,NA,NA,NA,NA,NA,NA,NA,NA,NA,NA,NA,NA,NA,NA,NA,NA,NA,NA
a1006,task,flow.Sequence,5_0_0_0_3,NA,NA,completion,14624.68,508118,508109.14,508129.5,522754.18,522757,2023-10-02T11:54:22Z,522775,NULL,Toleranz,kuvumiliana,d,NA,NA,NA,NA,sdf,NA,0,NA,NA,NA,NA,NA,NA,NA,NA,NA,NA,NA,NA,NA,NA,NA,NA,NA,NA,NA
a1006,deep,flow.Sequence,5_0_0_0_4_0,NA,NA,skipped,NA,522758,NA,NA,522754.18,522758,2023-10-02T11:54:22Z,522775,NULL,Beweis,ushahidi,s,marudio,kizuizi,mtendaji,NA,sdf,NA,0,NA,NA,NA,NA,NA,NA,NA,NA,NA,NA,NA,NA,NA,NA,NA,NA,NA,NA,NA
a1006,Shallow Question,html.Page,5_0_0_0_4_1_0,NA,NA,form submission,9347,522759,522754.18,522775,532122,532122,2023-10-02T11:54:31Z,532128.38,NULL,Beweis,ushahidi,s,marudio,kizuizi,mtendaji,marudio,NA,NA,0,NA,NA,NA,NA,NA,NA,NA,NA,NA,NA,NA,NA,NA,NA,NA,NA,NA,NA,NA
a1006,"""Richtig""-Screen",canvas.Screen,5_0_0_0_4_1_1,NA,NA,skipped,NA,532125,NA,NA,532122,532125,2023-10-02T11:54:31Z,532128.38,NULL,Beweis,ushahidi,s,marudio,kizuizi,mtendaji,NA,sdf,NA,0,NA,NA,NA,NA,NA,NA,NA,NA,NA,NA,NA,NA,NA,NA,NA,NA,NA,NA,NA
a1006,"""Falsch""-Screen",canvas.Screen,5_0_0_0_4_1_2,NA,NA,timeout,5001.1800000001,532128,532119.18,532128.38,537108.74,537112,2023-10-02T11:54:36Z,537129.56,NULL,Beweis,ushahidi,s,marudio,kizuizi,mtendaji,NA,sdf,0,0,NA,NA,NA,NA,NA,NA,NA,NA,NA,NA,NA,NA,NA,NA,NA,NA,NA,NA,NA
a1006,shallow,flow.Sequence,5_0_0_0_4_1,NA,NA,completion,14333.74,522759,522754.18,522775,537108.74,537114,2023-10-02T11:54:36Z,537129.56,NULL,Beweis,ushahidi,s,marudio,kizuizi,mtendaji,NA,sdf,NA,0,NA,NA,NA,NA,NA,NA,NA,NA,NA,NA,NA,NA,NA,NA,NA,NA,NA,NA,NA
a1006,task,flow.Sequence,5_0_0_0_4,NA,NA,completion,14333.74,522758,522754.18,522775,537108.74,537116,2023-10-02T11:54:36Z,537129.56,NULL,Beweis,ushahidi,s,marudio,kizuizi,mtendaji,NA,sdf,NA,0,NA,NA,NA,NA,NA,NA,NA,NA,NA,NA,NA,NA,NA,NA,NA,NA,NA,NA,NA
a1006,Deep Question,html.Page,5_0_0_0_5_0_0,NA,NA,form submission,9796.4399999999,537117,537108.74,537129.56,546926,546927,2023-10-02T11:54:46Z,546941.38,NULL,Annäherung,maegesho,d,NA,NA,NA,sezeni,NA,NA,0,NA,NA,NA,NA,NA,NA,NA,NA,NA,NA,NA,NA,NA,NA,NA,NA,NA,NA,NA
a1006,"""Richtig""-Screen",canvas.Screen,5_0_0_0_5_0_1,NA,NA,skipped,NA,546939,NA,NA,546926,546939,2023-10-02T11:54:46Z,546941.38,NULL,Annäherung,maegesho,d,NA,NA,NA,NA,sdf,NA,0,NA,NA,NA,NA,NA,NA,NA,NA,NA,NA,NA,NA,NA,NA,NA,NA,NA,NA,NA
a1006,"""Falsch""-Screen",canvas.Screen,5_0_0_0_5_0_2,NA,NA,timeout,4999.5,546943,546919.36,546941.38,551920.04,551922,2023-10-02T11:54:51Z,551940.88,NULL,Annäherung,maegesho,d,NA,NA,NA,NA,sdf,0,0,NA,NA,NA,NA,NA,NA,NA,NA,NA,NA,NA,NA,NA,NA,NA,NA,NA,NA,NA
a1006,deep,flow.Sequence,5_0_0_0_5_0,NA,NA,completion,14790.48,537117,537108.74,537129.56,551920.04,551923,2023-10-02T11:54:51Z,551940.88,NULL,Annäherung,maegesho,d,NA,NA,NA,NA,sdf,NA,0,NA,NA,NA,NA,NA,NA,NA,NA,NA,NA,NA,NA,NA,NA,NA,NA,NA,NA,NA
a1006,shallow,flow.Sequence,5_0_0_0_5_1,NA,NA,skipped,NA,551923,NA,NA,551920.04,551924,2023-10-02T11:54:51Z,551940.88,NULL,Annäherung,maegesho,d,NA,NA,NA,NA,sdf,NA,0,NA,NA,NA,NA,NA,NA,NA,NA,NA,NA,NA,NA,NA,NA,NA,NA,NA,NA,NA
a1006,task,flow.Sequence,5_0_0_0_5,NA,NA,completion,14790.48,537117,537108.74,537129.56,551920.04,551925,2023-10-02T11:54:51Z,551940.88,NULL,Annäherung,maegesho,d,NA,NA,NA,NA,sdf,NA,0,NA,NA,NA,NA,NA,NA,NA,NA,NA,NA,NA,NA,NA,NA,NA,NA,NA,NA,NA
a1006,deep,flow.Sequence,5_0_0_0_6_0,NA,NA,skipped,NA,551926,NA,NA,551920.04,551928,2023-10-02T11:54:51Z,551940.88,NULL,Inhalt,yaliyomo,s,kishawishi,hifadhi,kutembea,NA,sdf,NA,0,NA,NA,NA,NA,NA,NA,NA,NA,NA,NA,NA,NA,NA,NA,NA,NA,NA,NA,NA
a1006,Shallow Question,html.Page,5_0_0_0_6_1_0,NA,NA,form submission,10346.12,551929,551920.04,551940.88,562287,562288,2023-10-02T11:55:02Z,562294.96,NULL,Inhalt,yaliyomo,s,kishawishi,hifadhi,kutembea,kutembea,NA,NA,0,NA,NA,NA,NA,NA,NA,NA,NA,NA,NA,NA,NA,NA,NA,NA,NA,NA,NA,NA
a1006,"""Richtig""-Screen",canvas.Screen,5_0_0_0_6_1_1,NA,NA,skipped,NA,562292,NA,NA,562287,562292,2023-10-02T11:55:02Z,562294.96,NULL,Inhalt,yaliyomo,s,kishawishi,hifadhi,kutembea,NA,sdf,NA,0,NA,NA,NA,NA,NA,NA,NA,NA,NA,NA,NA,NA,NA,NA,NA,NA,NA,NA,NA
a1006,"""Falsch""-Screen",canvas.Screen,5_0_0_0_6_1_2,NA,NA,timeout,4999.98,562297,562283.2,562294.96,567274.1,567277,2023-10-02T11:55:07Z,567294.94,NULL,Inhalt,yaliyomo,s,kishawishi,hifadhi,kutembea,NA,sdf,0,0,NA,NA,NA,NA,NA,NA,NA,NA,NA,NA,NA,NA,NA,NA,NA,NA,NA,NA,NA
a1006,shallow,flow.Sequence,5_0_0_0_6_1,NA,NA,completion,15333.22,551929,551920.04,551940.88,567274.1,567278,2023-10-02T11:55:07Z,567294.94,NULL,Inhalt,yaliyomo,s,kishawishi,hifadhi,kutembea,NA,sdf,NA,0,NA,NA,NA,NA,NA,NA,NA,NA,NA,NA,NA,NA,NA,NA,NA,NA,NA,NA,NA
a1006,task,flow.Sequence,5_0_0_0_6,NA,NA,completion,15333.22,551925,551920.04,551940.88,567274.1,567278,2023-10-02T11:55:07Z,567294.94,NULL,Inhalt,yaliyomo,s,kishawishi,hifadhi,kutembea,NA,sdf,NA,0,NA,NA,NA,NA,NA,NA,NA,NA,NA,NA,NA,NA,NA,NA,NA,NA,NA,NA,NA
a1006,deep,flow.Sequence,5_0_0_0_7_0,NA,NA,skipped,NA,567279,NA,NA,567274.1,567279,2023-10-02T11:55:07Z,567294.94,NULL,Vermutung,udhanifu,s,haramia,tikisho,itifaki,NA,sdf,NA,0,NA,NA,NA,NA,NA,NA,NA,NA,NA,NA,NA,NA,NA,NA,NA,NA,NA,NA,NA
a1006,Shallow Question,html.Page,5_0_0_0_7_1_0,NA,NA,form submission,5964.0600000001,567280,567274.1,567294.94,573259,573260,2023-10-02T11:55:13Z,573274.18,NULL,Vermutung,udhanifu,s,haramia,tikisho,itifaki,itifaki,NA,NA,0,NA,NA,NA,NA,NA,NA,NA,NA,NA,NA,NA,NA,NA,NA,NA,NA,NA,NA,NA
a1006,"""Richtig""-Screen",canvas.Screen,5_0_0_0_7_1_1,NA,NA,skipped,NA,573263,NA,NA,573259,573263,2023-10-02T11:55:13Z,573274.18,NULL,Vermutung,udhanifu,s,haramia,tikisho,itifaki,NA,sdf,NA,0,NA,NA,NA,NA,NA,NA,NA,NA,NA,NA,NA,NA,NA,NA,NA,NA,NA,NA,NA
a1006,"""Falsch""-Screen",canvas.Screen,5_0_0_0_7_1_2,NA,NA,timeout,5000.0199999999,573266,573255.98,573274.18,578253.38,578256,2023-10-02T11:55:18Z,578274.2,NULL,Vermutung,udhanifu,s,haramia,tikisho,itifaki,NA,sdf,0,0,NA,NA,NA,NA,NA,NA,NA,NA,NA,NA,NA,NA,NA,NA,NA,NA,NA,NA,NA
a1006,shallow,flow.Sequence,5_0_0_0_7_1,NA,NA,completion,10958.44,567280,567274.1,567294.94,578253.38,578257,2023-10-02T11:55:18Z,578274.2,NULL,Vermutung,udhanifu,s,haramia,tikisho,itifaki,NA,sdf,NA,0,NA,NA,NA,NA,NA,NA,NA,NA,NA,NA,NA,NA,NA,NA,NA,NA,NA,NA,NA
a1006,task,flow.Sequence,5_0_0_0_7,NA,NA,completion,10958.44,567279,567274.1,567294.94,578253.38,578258,2023-10-02T11:55:18Z,578274.2,NULL,Vermutung,udhanifu,s,haramia,tikisho,itifaki,NA,sdf,NA,0,NA,NA,NA,NA,NA,NA,NA,NA,NA,NA,NA,NA,NA,NA,NA,NA,NA,NA,NA
a1006,block,flow.Loop,5_0_0_0,NA,NA,completion,121374.12,456877,456877.22,456879.26,578253.38,578260,2023-10-02T11:55:18Z,578274.2,NULL,NA,NA,NA,NA,NA,NA,NA,sdf,NA,0,NA,NA,NA,NA,NA,NA,NA,NA,NA,NA,NA,NA,NA,NA,NA,NA,NA,NA,NA
a1006,weiter,canvas.Screen,5_0_0_1,sdf,keypress(Space),response,1303.8,578260,578253.38,578274.2,579578,579583,2023-10-02T11:55:19Z,579650.28,NULL,NA,NA,NA,NA,NA,NA,NA,sdf,NA,0,NA,NA,NA,NA,NA,NA,NA,NA,NA,NA,NA,NA,NA,NA,NA,NA,NA,NA,NA
a1006,check continue,flow.Sequence,5_0_0,NA,NA,completion,122698.74,456877,456877.22,456879.26,579578,579584,2023-10-02T11:55:19Z,579650.28,NULL,NA,NA,NA,NA,NA,NA,NA,sdf,NA,0,NA,NA,NA,NA,NA,NA,NA,NA,NA,NA,NA,NA,NA,NA,NA,NA,NA,NA,NA
a1006,deep,flow.Sequence,5_0_1_0_0_0,NA,NA,skipped,NA,579647,NA,NA,579578,579647,2023-10-02T11:55:19Z,579650.28,NULL,Vermutung,udhanifu,s,haramia,tikisho,itifaki,NA,sdfdsf,NA,1,NA,NA,NA,NA,NA,NA,NA,NA,NA,NA,NA,NA,NA,NA,NA,NA,NA,NA,NA
a1006,Shallow Question,html.Page,5_0_1_0_0_1_0,NA,NA,form submission,9190.72,579648,579647.28,579650.28,588841,588842,2023-10-02T11:55:28Z,588858.28,NULL,Vermutung,udhanifu,s,haramia,tikisho,itifaki,udhanifu,NA,NA,1,NA,NA,NA,NA,NA,NA,NA,NA,NA,NA,NA,NA,NA,NA,NA,NA,NA,NA,NA
a1006,"""Richtig""-Screen",canvas.Screen,5_0_1_0_0_1_1,NA,NA,timeout,4999.5399999999,588843,588838.46,588858.28,593837,593844,2023-10-02T11:55:33Z,593857.82,NULL,Vermutung,udhanifu,s,haramia,tikisho,itifaki,NA,sdfdsf,1,1,NA,NA,NA,NA,NA,NA,NA,NA,NA,NA,NA,NA,NA,NA,NA,NA,NA,NA,NA
a1006,"""Falsch""-Screen",canvas.Screen,5_0_1_0_0_1_2,NA,NA,skipped,NA,593850,NA,NA,593837,593850,2023-10-02T11:55:33Z,593857.82,NULL,Vermutung,udhanifu,s,haramia,tikisho,itifaki,NA,sdfdsf,NA,1,NA,NA,NA,NA,NA,NA,NA,NA,NA,NA,NA,NA,NA,NA,NA,NA,NA,NA,NA
a1006,shallow,flow.Sequence,5_0_1_0_0_1,NA,NA,completion,14186.72,579648,579647.28,579650.28,593837,593850,2023-10-02T11:55:33Z,593857.82,NULL,Vermutung,udhanifu,s,haramia,tikisho,itifaki,NA,sdfdsf,NA,1,NA,NA,NA,NA,NA,NA,NA,NA,NA,NA,NA,NA,NA,NA,NA,NA,NA,NA,NA
a1006,task,flow.Sequence,5_0_1_0_0,NA,NA,completion,14186.72,579647,579647.28,579650.28,593837,593850,2023-10-02T11:55:33Z,593857.82,NULL,Vermutung,udhanifu,s,haramia,tikisho,itifaki,NA,sdfdsf,NA,1,NA,NA,NA,NA,NA,NA,NA,NA,NA,NA,NA,NA,NA,NA,NA,NA,NA,NA,NA
a1006,Deep Question,html.Page,5_0_1_0_1_0_0,NA,NA,form submission,8351.1800000001,593851,593837,593857.82,602209,602209,2023-10-02T11:55:42Z,602212.46,NULL,Schlange,foleni,d,NA,NA,NA,foleni,NA,NA,1,NA,NA,NA,NA,NA,NA,NA,NA,NA,NA,NA,NA,NA,NA,NA,NA,NA,NA,NA
a1006,"""Richtig""-Screen",canvas.Screen,5_0_1_0_1_0_1,NA,NA,timeout,5000.54,602211,602206.9,602212.46,607192.58,607195,2023-10-02T11:55:47Z,607213,NULL,Schlange,foleni,d,NA,NA,NA,NA,sdfdsf,1,1,NA,NA,NA,NA,NA,NA,NA,NA,NA,NA,NA,NA,NA,NA,NA,NA,NA,NA,NA
a1006,"""Falsch""-Screen",canvas.Screen,5_0_1_0_1_0_2,NA,NA,skipped,NA,607202,NA,NA,607192.58,607203,2023-10-02T11:55:47Z,607213,NULL,Schlange,foleni,d,NA,NA,NA,NA,sdfdsf,NA,1,NA,NA,NA,NA,NA,NA,NA,NA,NA,NA,NA,NA,NA,NA,NA,NA,NA,NA,NA
a1006,deep,flow.Sequence,5_0_1_0_1_0,NA,NA,completion,13334.76,593851,593837,593857.82,607192.58,607204,2023-10-02T11:55:47Z,607213,NULL,Schlange,foleni,d,NA,NA,NA,NA,sdfdsf,NA,1,NA,NA,NA,NA,NA,NA,NA,NA,NA,NA,NA,NA,NA,NA,NA,NA,NA,NA,NA
a1006,shallow,flow.Sequence,5_0_1_0_1_1,NA,NA,skipped,NA,607205,NA,NA,607192.58,607205,2023-10-02T11:55:47Z,607213,NULL,Schlange,foleni,d,NA,NA,NA,NA,sdfdsf,NA,1,NA,NA,NA,NA,NA,NA,NA,NA,NA,NA,NA,NA,NA,NA,NA,NA,NA,NA,NA
a1006,task,flow.Sequence,5_0_1_0_1,NA,NA,completion,13334.76,593850,593837,593857.82,607192.58,607207,2023-10-02T11:55:47Z,607213,NULL,Schlange,foleni,d,NA,NA,NA,NA,sdfdsf,NA,1,NA,NA,NA,NA,NA,NA,NA,NA,NA,NA,NA,NA,NA,NA,NA,NA,NA,NA,NA
a1006,deep,flow.Sequence,5_0_1_0_2_0,NA,NA,skipped,NA,607207,NA,NA,607192.58,607208,2023-10-02T11:55:47Z,607213,NULL,Polizist,msongora,s,simanzi,mandhari,nidhamu,NA,sdfdsf,NA,1,NA,NA,NA,NA,NA,NA,NA,NA,NA,NA,NA,NA,NA,NA,NA,NA,NA,NA,NA
a1006,Shallow Question,html.Page,5_0_1_0_2_1_0,NA,NA,form submission,3559,607208,607192.58,607213,610772,610772,2023-10-02T11:55:50Z,610774.08,NULL,Polizist,msongora,s,simanzi,mandhari,nidhamu,msongora,NA,NA,1,NA,NA,NA,NA,NA,NA,NA,NA,NA,NA,NA,NA,NA,NA,NA,NA,NA,NA,NA
a1006,"""Richtig""-Screen",canvas.Screen,5_0_1_0_2_1_1,NA,NA,timeout,5001.3200000001,610776,610765.74,610774.08,615754.58,615757,2023-10-02T11:55:55Z,615775.4,NULL,Polizist,msongora,s,simanzi,mandhari,nidhamu,NA,sdfdsf,1,1,NA,NA,NA,NA,NA,NA,NA,NA,NA,NA,NA,NA,NA,NA,NA,NA,NA,NA,NA
a1006,"""Falsch""-Screen",canvas.Screen,5_0_1_0_2_1_2,NA,NA,skipped,NA,615763,NA,NA,615754.58,615763,2023-10-02T11:55:55Z,615775.4,NULL,Polizist,msongora,s,simanzi,mandhari,nidhamu,NA,sdfdsf,NA,1,NA,NA,NA,NA,NA,NA,NA,NA,NA,NA,NA,NA,NA,NA,NA,NA,NA,NA,NA
a1006,shallow,flow.Sequence,5_0_1_0_2_1,NA,NA,completion,8541.58,607208,607192.58,607213,615754.58,615763,2023-10-02T11:55:55Z,615775.4,NULL,Polizist,msongora,s,simanzi,mandhari,nidhamu,NA,sdfdsf,NA,1,NA,NA,NA,NA,NA,NA,NA,NA,NA,NA,NA,NA,NA,NA,NA,NA,NA,NA,NA
a1006,task,flow.Sequence,5_0_1_0_2,NA,NA,completion,8541.58,607207,607192.58,607213,615754.58,615763,2023-10-02T11:55:55Z,615775.4,NULL,Polizist,msongora,s,simanzi,mandhari,nidhamu,NA,sdfdsf,NA,1,NA,NA,NA,NA,NA,NA,NA,NA,NA,NA,NA,NA,NA,NA,NA,NA,NA,NA,NA
a1006,deep,flow.Sequence,5_0_1_0_3_0,NA,NA,skipped,NA,615763,NA,NA,615754.58,615764,2023-10-02T11:55:55Z,615775.4,NULL,Beweis,ushahidi,s,marudio,kizuizi,mtendaji,NA,sdfdsf,NA,1,NA,NA,NA,NA,NA,NA,NA,NA,NA,NA,NA,NA,NA,NA,NA,NA,NA,NA,NA
a1006,Shallow Question,html.Page,5_0_1_0_3_1_0,NA,NA,form submission,6931.6,615764,615754.58,615775.4,622707,622708,2023-10-02T11:56:02Z,622712.3,NULL,Beweis,ushahidi,s,marudio,kizuizi,mtendaji,ushahidi,NA,NA,1,NA,NA,NA,NA,NA,NA,NA,NA,NA,NA,NA,NA,NA,NA,NA,NA,NA,NA,NA
a1006,"""Richtig""-Screen",canvas.Screen,5_0_1_0_3_1_1,NA,NA,timeout,5000.7,622713,622701.56,622712.3,627692.18,627693,2023-10-02T11:56:07Z,627713,NULL,Beweis,ushahidi,s,marudio,kizuizi,mtendaji,NA,sdfdsf,1,1,NA,NA,NA,NA,NA,NA,NA,NA,NA,NA,NA,NA,NA,NA,NA,NA,NA,NA,NA
a1006,"""Falsch""-Screen",canvas.Screen,5_0_1_0_3_1_2,NA,NA,skipped,NA,627702,NA,NA,627692.18,627702,2023-10-02T11:56:07Z,627713,NULL,Beweis,ushahidi,s,marudio,kizuizi,mtendaji,NA,sdfdsf,NA,1,NA,NA,NA,NA,NA,NA,NA,NA,NA,NA,NA,NA,NA,NA,NA,NA,NA,NA,NA
a1006,shallow,flow.Sequence,5_0_1_0_3_1,NA,NA,completion,11916.78,615764,615754.58,615775.4,627692.18,627703,2023-10-02T11:56:07Z,627713,NULL,Beweis,ushahidi,s,marudio,kizuizi,mtendaji,NA,sdfdsf,NA,1,NA,NA,NA,NA,NA,NA,NA,NA,NA,NA,NA,NA,NA,NA,NA,NA,NA,NA,NA
a1006,task,flow.Sequence,5_0_1_0_3,NA,NA,completion,11916.78,615763,615754.58,615775.4,627692.18,627703,2023-10-02T11:56:07Z,627713,NULL,Beweis,ushahidi,s,marudio,kizuizi,mtendaji,NA,sdfdsf,NA,1,NA,NA,NA,NA,NA,NA,NA,NA,NA,NA,NA,NA,NA,NA,NA,NA,NA,NA,NA
a1006,Deep Question,html.Page,5_0_1_0_4_0_0,NA,NA,form submission,8085,627704,627692.18,627713,635798,635799,2023-10-02T11:56:15Z,635816.26,NULL,Annäherung,maegesho,d,NA,NA,NA,maengesho,NA,NA,1,NA,NA,NA,NA,NA,NA,NA,NA,NA,NA,NA,NA,NA,NA,NA,NA,NA,NA,NA
a1006,"""Richtig""-Screen",canvas.Screen,5_0_1_0_4_0_1,NA,NA,skipped,NA,635801,NA,NA,635798,635801,2023-10-02T11:56:15Z,635816.26,NULL,Annäherung,maegesho,d,NA,NA,NA,NA,sdfdsf,NA,1,NA,NA,NA,NA,NA,NA,NA,NA,NA,NA,NA,NA,NA,NA,NA,NA,NA,NA,NA
a1006,"""Falsch""-Screen",canvas.Screen,5_0_1_0_4_0_2,NA,NA,timeout,4999.72,635805,635796.28,635816.26,640795.16,640797,2023-10-02T11:56:20Z,640815.98,NULL,Annäherung,maegesho,d,NA,NA,NA,NA,sdfdsf,0,1,NA,NA,NA,NA,NA,NA,NA,NA,NA,NA,NA,NA,NA,NA,NA,NA,NA,NA,NA
a1006,deep,flow.Sequence,5_0_1_0_4_0,NA,NA,completion,13082.16,627704,627692.18,627713,640795.16,640798,2023-10-02T11:56:20Z,640815.98,NULL,Annäherung,maegesho,d,NA,NA,NA,NA,sdfdsf,NA,1,NA,NA,NA,NA,NA,NA,NA,NA,NA,NA,NA,NA,NA,NA,NA,NA,NA,NA,NA
a1006,shallow,flow.Sequence,5_0_1_0_4_1,NA,NA,skipped,NA,640798,NA,NA,640795.16,640799,2023-10-02T11:56:20Z,640815.98,NULL,Annäherung,maegesho,d,NA,NA,NA,NA,sdfdsf,NA,1,NA,NA,NA,NA,NA,NA,NA,NA,NA,NA,NA,NA,NA,NA,NA,NA,NA,NA,NA
a1006,task,flow.Sequence,5_0_1_0_4,NA,NA,completion,13082.16,627703,627692.18,627713,640795.16,640799,2023-10-02T11:56:20Z,640815.98,NULL,Annäherung,maegesho,d,NA,NA,NA,NA,sdfdsf,NA,1,NA,NA,NA,NA,NA,NA,NA,NA,NA,NA,NA,NA,NA,NA,NA,NA,NA,NA,NA
a1006,Deep Question,html.Page,5_0_1_0_5_0_0,NA,NA,form submission,18082.02,640800,640795.16,640815.98,658898,658899,2023-10-02T11:56:38Z,658900.22,NULL,Toleranz,kuvumiliana,d,NA,NA,NA,kuvamilina,NA,NA,1,NA,NA,NA,NA,NA,NA,NA,NA,NA,NA,NA,NA,NA,NA,NA,NA,NA,NA,NA
a1006,"""Richtig""-Screen",canvas.Screen,5_0_1_0_5_0_1,NA,NA,skipped,NA,658901,NA,NA,658898,658901,2023-10-02T11:56:38Z,658900.22,NULL,Toleranz,kuvumiliana,d,NA,NA,NA,NA,sdfdsf,NA,1,NA,NA,NA,NA,NA,NA,NA,NA,NA,NA,NA,NA,NA,NA,NA,NA,NA,NA,NA
a1006,"""Falsch""-Screen",canvas.Screen,5_0_1_0_5_0_2,NA,NA,timeout,4999.1,658902,658896.48,658900.22,663878.5,663881,2023-10-02T11:56:43Z,663899.32,NULL,Toleranz,kuvumiliana,d,NA,NA,NA,NA,sdfdsf,0,1,NA,NA,NA,NA,NA,NA,NA,NA,NA,NA,NA,NA,NA,NA,NA,NA,NA,NA,NA
a1006,deep,flow.Sequence,5_0_1_0_5_0,NA,NA,completion,23062.52,640799,640795.16,640815.98,663878.5,663882,2023-10-02T11:56:43Z,663899.32,NULL,Toleranz,kuvumiliana,d,NA,NA,NA,NA,sdfdsf,NA,1,NA,NA,NA,NA,NA,NA,NA,NA,NA,NA,NA,NA,NA,NA,NA,NA,NA,NA,NA
a1006,shallow,flow.Sequence,5_0_1_0_5_1,NA,NA,skipped,NA,663882,NA,NA,663878.5,663883,2023-10-02T11:56:43Z,663899.32,NULL,Toleranz,kuvumiliana,d,NA,NA,NA,NA,sdfdsf,NA,1,NA,NA,NA,NA,NA,NA,NA,NA,NA,NA,NA,NA,NA,NA,NA,NA,NA,NA,NA
a1006,task,flow.Sequence,5_0_1_0_5,NA,NA,completion,23062.52,640799,640795.16,640815.98,663878.5,663883,2023-10-02T11:56:43Z,663899.32,NULL,Toleranz,kuvumiliana,d,NA,NA,NA,NA,sdfdsf,NA,1,NA,NA,NA,NA,NA,NA,NA,NA,NA,NA,NA,NA,NA,NA,NA,NA,NA,NA,NA
a1006,deep,flow.Sequence,5_0_1_0_6_0,NA,NA,skipped,NA,663884,NA,NA,663878.5,663884,2023-10-02T11:56:43Z,663899.32,NULL,Inhalt,yaliyomo,s,kishawishi,hifadhi,kutembea,NA,sdfdsf,NA,1,NA,NA,NA,NA,NA,NA,NA,NA,NA,NA,NA,NA,NA,NA,NA,NA,NA,NA,NA
a1006,Shallow Question,html.Page,5_0_1_0_6_1_0,NA,NA,form submission,8158.6800000001,663884,663878.5,663899.32,672058,672058,2023-10-02T11:56:51Z,672066.42,NULL,Inhalt,yaliyomo,s,kishawishi,hifadhi,kutembea,yaliyomo,NA,NA,1,NA,NA,NA,NA,NA,NA,NA,NA,NA,NA,NA,NA,NA,NA,NA,NA,NA,NA,NA
a1006,"""Richtig""-Screen",canvas.Screen,5_0_1_0_6_1_1,NA,NA,timeout,4999.6599999999,672063,672053.12,672066.42,677045.26,677048,2023-10-02T11:56:56Z,677066.08,NULL,Inhalt,yaliyomo,s,kishawishi,hifadhi,kutembea,NA,sdfdsf,1,1,NA,NA,NA,NA,NA,NA,NA,NA,NA,NA,NA,NA,NA,NA,NA,NA,NA,NA,NA
a1006,"""Falsch""-Screen",canvas.Screen,5_0_1_0_6_1_2,NA,NA,skipped,NA,677054,NA,NA,677045.26,677055,2023-10-02T11:56:56Z,677066.08,NULL,Inhalt,yaliyomo,s,kishawishi,hifadhi,kutembea,NA,sdfdsf,NA,1,NA,NA,NA,NA,NA,NA,NA,NA,NA,NA,NA,NA,NA,NA,NA,NA,NA,NA,NA
a1006,shallow,flow.Sequence,5_0_1_0_6_1,NA,NA,completion,13145.94,663884,663878.5,663899.32,677045.26,677055,2023-10-02T11:56:56Z,677066.08,NULL,Inhalt,yaliyomo,s,kishawishi,hifadhi,kutembea,NA,sdfdsf,NA,1,NA,NA,NA,NA,NA,NA,NA,NA,NA,NA,NA,NA,NA,NA,NA,NA,NA,NA,NA
a1006,task,flow.Sequence,5_0_1_0_6,NA,NA,completion,13145.94,663884,663878.5,663899.32,677045.26,677056,2023-10-02T11:56:56Z,677066.08,NULL,Inhalt,yaliyomo,s,kishawishi,hifadhi,kutembea,NA,sdfdsf,NA,1,NA,NA,NA,NA,NA,NA,NA,NA,NA,NA,NA,NA,NA,NA,NA,NA,NA,NA,NA
a1006,Deep Question,html.Page,5_0_1_0_7_0_0,NA,NA,form submission,26006.92,677056,677045.26,677066.08,703073,703073,2023-10-02T11:57:22Z,703088,NULL,Sympathie,mapendano,d,NA,NA,NA,mangheo,NA,NA,1,NA,NA,NA,NA,NA,NA,NA,NA,NA,NA,NA,NA,NA,NA,NA,NA,NA,NA,NA
a1006,"""Richtig""-Screen",canvas.Screen,5_0_1_0_7_0_1,NA,NA,skipped,NA,703080,NA,NA,703073,703080,2023-10-02T11:57:22Z,703088,NULL,Sympathie,mapendano,d,NA,NA,NA,NA,sdfdsf,NA,1,NA,NA,NA,NA,NA,NA,NA,NA,NA,NA,NA,NA,NA,NA,NA,NA,NA,NA,NA
a1006,"""Falsch""-Screen",canvas.Screen,5_0_1_0_7_0_2,NA,NA,timeout,4999.76,703084,703067.52,703088,708066.94,708072,2023-10-02T11:57:27Z,708087.76,NULL,Sympathie,mapendano,d,NA,NA,NA,NA,sdfdsf,0,1,NA,NA,NA,NA,NA,NA,NA,NA,NA,NA,NA,NA,NA,NA,NA,NA,NA,NA,NA
a1006,deep,flow.Sequence,5_0_1_0_7_0,NA,NA,completion,31000.86,677056,677045.26,677066.08,708066.94,708074,2023-10-02T11:57:27Z,708087.76,NULL,Sympathie,mapendano,d,NA,NA,NA,NA,sdfdsf,NA,1,NA,NA,NA,NA,NA,NA,NA,NA,NA,NA,NA,NA,NA,NA,NA,NA,NA,NA,NA
a1006,shallow,flow.Sequence,5_0_1_0_7_1,NA,NA,skipped,NA,708075,NA,NA,708066.94,708076,2023-10-02T11:57:27Z,708087.76,NULL,Sympathie,mapendano,d,NA,NA,NA,NA,sdfdsf,NA,1,NA,NA,NA,NA,NA,NA,NA,NA,NA,NA,NA,NA,NA,NA,NA,NA,NA,NA,NA
a1006,task,flow.Sequence,5_0_1_0_7,NA,NA,completion,31000.86,677056,677045.26,677066.08,708066.94,708077,2023-10-02T11:57:27Z,708087.76,NULL,Sympathie,mapendano,d,NA,NA,NA,NA,sdfdsf,NA,1,NA,NA,NA,NA,NA,NA,NA,NA,NA,NA,NA,NA,NA,NA,NA,NA,NA,NA,NA
a1006,block,flow.Loop,5_0_1_0,NA,NA,completion,128416.66,579647,579647.28,579650.28,708066.94,708077,2023-10-02T11:57:27Z,708087.76,NULL,NA,NA,NA,NA,NA,NA,NA,sdfdsf,NA,1,NA,NA,NA,NA,NA,NA,NA,NA,NA,NA,NA,NA,NA,NA,NA,NA,NA,NA,NA
a1006,weiter,canvas.Screen,5_0_1_1,sdf,keypress(Space),response,3459.24,708077,708066.94,708087.76,711547,711561,2023-10-02T11:57:31Z,711629.68,NULL,NA,NA,NA,NA,NA,NA,NA,sdfdsf,NA,1,NA,NA,NA,NA,NA,NA,NA,NA,NA,NA,NA,NA,NA,NA,NA,NA,NA,NA,NA
a1006,check continue,flow.Sequence,5_0_1,NA,NA,completion,131896.72,579647,579647.28,579650.28,711547,711563,2023-10-02T11:57:31Z,711629.68,NULL,NA,NA,NA,NA,NA,NA,NA,sdfdsf,NA,1,NA,NA,NA,NA,NA,NA,NA,NA,NA,NA,NA,NA,NA,NA,NA,NA,NA,NA,NA
a1006,deep,flow.Sequence,5_0_2_0_0_0,NA,NA,skipped,NA,711628,NA,NA,711547,711628,2023-10-02T11:57:31Z,711629.68,NULL,Polizist,msongora,s,simanzi,mandhari,nidhamu,NA,sdf,NA,2,NA,NA,NA,NA,NA,NA,NA,NA,NA,NA,NA,NA,NA,NA,NA,NA,NA,NA,NA
a1006,Shallow Question,html.Page,5_0_2_0_0_1_0,NA,NA,form submission,5025.3199999999,711628,711628.22,711629.68,716655,716655,2023-10-02T11:57:36Z,716650.08,NULL,Polizist,msongora,s,simanzi,mandhari,nidhamu,msongora,NA,NA,2,NA,NA,NA,NA,NA,NA,NA,NA,NA,NA,NA,NA,NA,NA,NA,NA,NA,NA,NA
a1006,"""Richtig""-Screen",canvas.Screen,5_0_2_0_0_1_1,NA,NA,timeout,4999.4,716658,716649.76,716650.08,721628.66,721632,2023-10-02T11:57:41Z,721649.48,NULL,Polizist,msongora,s,simanzi,mandhari,nidhamu,NA,sdf,1,2,NA,NA,NA,NA,NA,NA,NA,NA,NA,NA,NA,NA,NA,NA,NA,NA,NA,NA,NA
a1006,"""Falsch""-Screen",canvas.Screen,5_0_2_0_0_1_2,NA,NA,skipped,NA,721639,NA,NA,721628.66,721639,2023-10-02T11:57:41Z,721649.48,NULL,Polizist,msongora,s,simanzi,mandhari,nidhamu,NA,sdf,NA,2,NA,NA,NA,NA,NA,NA,NA,NA,NA,NA,NA,NA,NA,NA,NA,NA,NA,NA,NA
a1006,shallow,flow.Sequence,5_0_2_0_0_1,NA,NA,completion,9998.98,711628,711628.22,711629.68,721628.66,721639,2023-10-02T11:57:41Z,721649.48,NULL,Polizist,msongora,s,simanzi,mandhari,nidhamu,NA,sdf,NA,2,NA,NA,NA,NA,NA,NA,NA,NA,NA,NA,NA,NA,NA,NA,NA,NA,NA,NA,NA
a1006,task,flow.Sequence,5_0_2_0_0,NA,NA,completion,9998.98,711628,711628.22,711629.68,721628.66,721640,2023-10-02T11:57:41Z,721649.48,NULL,Polizist,msongora,s,simanzi,mandhari,nidhamu,NA,sdf,NA,2,NA,NA,NA,NA,NA,NA,NA,NA,NA,NA,NA,NA,NA,NA,NA,NA,NA,NA,NA
a1006,deep,flow.Sequence,5_0_2_0_1_0,NA,NA,skipped,NA,721640,NA,NA,721628.66,721641,2023-10-02T11:57:41Z,721649.48,NULL,Vermutung,udhanifu,s,haramia,tikisho,itifaki,NA,sdf,NA,2,NA,NA,NA,NA,NA,NA,NA,NA,NA,NA,NA,NA,NA,NA,NA,NA,NA,NA,NA
a1006,Shallow Question,html.Page,5_0_2_0_1_1_0,NA,NA,form submission,4584.52,721641,721628.66,721649.48,726234,726234,2023-10-02T11:57:46Z,726234.08,NULL,Vermutung,udhanifu,s,haramia,tikisho,itifaki,udhanifu,NA,NA,2,NA,NA,NA,NA,NA,NA,NA,NA,NA,NA,NA,NA,NA,NA,NA,NA,NA,NA,NA
a1006,"""Richtig""-Screen",canvas.Screen,5_0_2_0_1_1_1,NA,NA,timeout,4999.6000000001,726236,726231.1,726234.08,731212.84,731215,2023-10-02T11:57:51Z,731233.68,NULL,Vermutung,udhanifu,s,haramia,tikisho,itifaki,NA,sdf,1,2,NA,NA,NA,NA,NA,NA,NA,NA,NA,NA,NA,NA,NA,NA,NA,NA,NA,NA,NA
a1006,"""Falsch""-Screen",canvas.Screen,5_0_2_0_1_1_2,NA,NA,skipped,NA,731222,NA,NA,731212.84,731222,2023-10-02T11:57:51Z,731233.68,NULL,Vermutung,udhanifu,s,haramia,tikisho,itifaki,NA,sdf,NA,2,NA,NA,NA,NA,NA,NA,NA,NA,NA,NA,NA,NA,NA,NA,NA,NA,NA,NA,NA
a1006,shallow,flow.Sequence,5_0_2_0_1_1,NA,NA,completion,9563.36,721641,721628.66,721649.48,731212.84,731223,2023-10-02T11:57:51Z,731233.68,NULL,Vermutung,udhanifu,s,haramia,tikisho,itifaki,NA,sdf,NA,2,NA,NA,NA,NA,NA,NA,NA,NA,NA,NA,NA,NA,NA,NA,NA,NA,NA,NA,NA
a1006,task,flow.Sequence,5_0_2_0_1,NA,NA,completion,9563.36,721640,721628.66,721649.48,731212.84,731223,2023-10-02T11:57:51Z,731233.68,NULL,Vermutung,udhanifu,s,haramia,tikisho,itifaki,NA,sdf,NA,2,NA,NA,NA,NA,NA,NA,NA,NA,NA,NA,NA,NA,NA,NA,NA,NA,NA,NA,NA
a1006,deep,flow.Sequence,5_0_2_0_2_0,NA,NA,skipped,NA,731223,NA,NA,731212.84,731224,2023-10-02T11:57:51Z,731233.68,NULL,Beweis,ushahidi,s,marudio,kizuizi,mtendaji,NA,sdf,NA,2,NA,NA,NA,NA,NA,NA,NA,NA,NA,NA,NA,NA,NA,NA,NA,NA,NA,NA,NA
a1006,Shallow Question,html.Page,5_0_2_0_2_1_0,NA,NA,form submission,6229.3199999999,731224,731212.84,731233.68,737463,737463,2023-10-02T11:57:57Z,737463.06,NULL,Beweis,ushahidi,s,marudio,kizuizi,mtendaji,ushahidi,NA,NA,2,NA,NA,NA,NA,NA,NA,NA,NA,NA,NA,NA,NA,NA,NA,NA,NA,NA,NA,NA
a1006,"""Richtig""-Screen",canvas.Screen,5_0_2_0_2_1_1,NA,NA,timeout,4999.6399999999,737467,737459.18,737463.06,742441.88,742445,2023-10-02T11:58:02Z,742462.7,NULL,Beweis,ushahidi,s,marudio,kizuizi,mtendaji,NA,sdf,1,2,NA,NA,NA,NA,NA,NA,NA,NA,NA,NA,NA,NA,NA,NA,NA,NA,NA,NA,NA
a1006,"""Falsch""-Screen",canvas.Screen,5_0_2_0_2_1_2,NA,NA,skipped,NA,742451,NA,NA,742441.88,742452,2023-10-02T11:58:02Z,742462.7,NULL,Beweis,ushahidi,s,marudio,kizuizi,mtendaji,NA,sdf,NA,2,NA,NA,NA,NA,NA,NA,NA,NA,NA,NA,NA,NA,NA,NA,NA,NA,NA,NA,NA
a1006,shallow,flow.Sequence,5_0_2_0_2_1,NA,NA,completion,11208.2,731224,731212.84,731233.68,742441.88,742452,2023-10-02T11:58:02Z,742462.7,NULL,Beweis,ushahidi,s,marudio,kizuizi,mtendaji,NA,sdf,NA,2,NA,NA,NA,NA,NA,NA,NA,NA,NA,NA,NA,NA,NA,NA,NA,NA,NA,NA,NA
a1006,task,flow.Sequence,5_0_2_0_2,NA,NA,completion,11208.2,731223,731212.84,731233.68,742441.88,742452,2023-10-02T11:58:02Z,742462.7,NULL,Beweis,ushahidi,s,marudio,kizuizi,mtendaji,NA,sdf,NA,2,NA,NA,NA,NA,NA,NA,NA,NA,NA,NA,NA,NA,NA,NA,NA,NA,NA,NA,NA
a1006,Deep Question,html.Page,5_0_2_0_3_0_0,NA,NA,form submission,14644.3,742453,742441.88,742462.7,757107,757107,2023-10-02T11:58:16Z,757109.08,NULL,Toleranz,kuvumiliana,d,NA,NA,NA,kuvumiliana,NA,NA,2,NA,NA,NA,NA,NA,NA,NA,NA,NA,NA,NA,NA,NA,NA,NA,NA,NA,NA,NA
a1006,"""Richtig""-Screen",canvas.Screen,5_0_2_0_3_0_1,NA,NA,timeout,4999.7200000001,757109,757105.8,757109.08,762087.96,762089,2023-10-02T11:58:21Z,762108.8,NULL,Toleranz,kuvumiliana,d,NA,NA,NA,NA,sdf,1,2,NA,NA,NA,NA,NA,NA,NA,NA,NA,NA,NA,NA,NA,NA,NA,NA,NA,NA,NA
a1006,"""Falsch""-Screen",canvas.Screen,5_0_2_0_3_0_2,NA,NA,skipped,NA,762091,NA,NA,762087.96,762091,2023-10-02T11:58:21Z,762108.8,NULL,Toleranz,kuvumiliana,d,NA,NA,NA,NA,sdf,NA,2,NA,NA,NA,NA,NA,NA,NA,NA,NA,NA,NA,NA,NA,NA,NA,NA,NA,NA,NA
a1006,deep,flow.Sequence,5_0_2_0_3_0,NA,NA,completion,19625.26,742453,742441.88,742462.7,762087.96,762092,2023-10-02T11:58:21Z,762108.8,NULL,Toleranz,kuvumiliana,d,NA,NA,NA,NA,sdf,NA,2,NA,NA,NA,NA,NA,NA,NA,NA,NA,NA,NA,NA,NA,NA,NA,NA,NA,NA,NA
a1006,shallow,flow.Sequence,5_0_2_0_3_1,NA,NA,skipped,NA,762092,NA,NA,762087.96,762092,2023-10-02T11:58:21Z,762108.8,NULL,Toleranz,kuvumiliana,d,NA,NA,NA,NA,sdf,NA,2,NA,NA,NA,NA,NA,NA,NA,NA,NA,NA,NA,NA,NA,NA,NA,NA,NA,NA,NA
a1006,task,flow.Sequence,5_0_2_0_3,NA,NA,completion,19625.26,742453,742441.88,742462.7,762087.96,762092,2023-10-02T11:58:21Z,762108.8,NULL,Toleranz,kuvumiliana,d,NA,NA,NA,NA,sdf,NA,2,NA,NA,NA,NA,NA,NA,NA,NA,NA,NA,NA,NA,NA,NA,NA,NA,NA,NA,NA
a1006,Deep Question,html.Page,5_0_2_0_4_0_0,NA,NA,form submission,4070.2,762092,762087.96,762108.8,766179,766179,2023-10-02T11:58:26Z,766192.12,NULL,Schlange,foleni,d,NA,NA,NA,foleni,NA,NA,2,NA,NA,NA,NA,NA,NA,NA,NA,NA,NA,NA,NA,NA,NA,NA,NA,NA,NA,NA
a1006,"""Richtig""-Screen",canvas.Screen,5_0_2_0_4_0_1,NA,NA,timeout,4999.16,766183,766174.8,766192.12,771170.46,771173,2023-10-02T11:58:31Z,771191.28,NULL,Schlange,foleni,d,NA,NA,NA,NA,sdf,1,2,NA,NA,NA,NA,NA,NA,NA,NA,NA,NA,NA,NA,NA,NA,NA,NA,NA,NA,NA
a1006,"""Falsch""-Screen",canvas.Screen,5_0_2_0_4_0_2,NA,NA,skipped,NA,771179,NA,NA,771170.46,771179,2023-10-02T11:58:31Z,771191.28,NULL,Schlange,foleni,d,NA,NA,NA,NA,sdf,NA,2,NA,NA,NA,NA,NA,NA,NA,NA,NA,NA,NA,NA,NA,NA,NA,NA,NA,NA,NA
a1006,deep,flow.Sequence,5_0_2_0_4_0,NA,NA,completion,9061.6599999999,762092,762087.96,762108.8,771170.46,771180,2023-10-02T11:58:31Z,771191.28,NULL,Schlange,foleni,d,NA,NA,NA,NA,sdf,NA,2,NA,NA,NA,NA,NA,NA,NA,NA,NA,NA,NA,NA,NA,NA,NA,NA,NA,NA,NA
a1006,shallow,flow.Sequence,5_0_2_0_4_1,NA,NA,skipped,NA,771180,NA,NA,771170.46,771180,2023-10-02T11:58:31Z,771191.28,NULL,Schlange,foleni,d,NA,NA,NA,NA,sdf,NA,2,NA,NA,NA,NA,NA,NA,NA,NA,NA,NA,NA,NA,NA,NA,NA,NA,NA,NA,NA
a1006,task,flow.Sequence,5_0_2_0_4,NA,NA,completion,9061.6599999999,762092,762087.96,762108.8,771170.46,771181,2023-10-02T11:58:31Z,771191.28,NULL,Schlange,foleni,d,NA,NA,NA,NA,sdf,NA,2,NA,NA,NA,NA,NA,NA,NA,NA,NA,NA,NA,NA,NA,NA,NA,NA,NA,NA,NA
a1006,deep,flow.Sequence,5_0_2_0_5_0,NA,NA,skipped,NA,771181,NA,NA,771170.46,771181,2023-10-02T11:58:31Z,771191.28,NULL,Inhalt,yaliyomo,s,kishawishi,hifadhi,kutembea,NA,sdf,NA,2,NA,NA,NA,NA,NA,NA,NA,NA,NA,NA,NA,NA,NA,NA,NA,NA,NA,NA,NA
a1006,Shallow Question,html.Page,5_0_2_0_5_1_0,NA,NA,form submission,6272.72,771181,771170.46,771191.28,777464,777464,2023-10-02T11:58:37Z,777462.46,NULL,Inhalt,yaliyomo,s,kishawishi,hifadhi,kutembea,yaliyomo,NA,NA,2,NA,NA,NA,NA,NA,NA,NA,NA,NA,NA,NA,NA,NA,NA,NA,NA,NA,NA,NA
a1006,"""Richtig""-Screen",canvas.Screen,5_0_2_0_5_1_1,NA,NA,timeout,5000.5600000001,777467,777460.22,777462.46,782442.18,782445,2023-10-02T11:58:42Z,782463.02,NULL,Inhalt,yaliyomo,s,kishawishi,hifadhi,kutembea,NA,sdf,1,2,NA,NA,NA,NA,NA,NA,NA,NA,NA,NA,NA,NA,NA,NA,NA,NA,NA,NA,NA
a1006,"""Falsch""-Screen",canvas.Screen,5_0_2_0_5_1_2,NA,NA,skipped,NA,782451,NA,NA,782442.18,782452,2023-10-02T11:58:42Z,782463.02,NULL,Inhalt,yaliyomo,s,kishawishi,hifadhi,kutembea,NA,sdf,NA,2,NA,NA,NA,NA,NA,NA,NA,NA,NA,NA,NA,NA,NA,NA,NA,NA,NA,NA,NA
a1006,shallow,flow.Sequence,5_0_2_0_5_1,NA,NA,completion,11250.9,771181,771170.46,771191.28,782442.18,782453,2023-10-02T11:58:42Z,782463.02,NULL,Inhalt,yaliyomo,s,kishawishi,hifadhi,kutembea,NA,sdf,NA,2,NA,NA,NA,NA,NA,NA,NA,NA,NA,NA,NA,NA,NA,NA,NA,NA,NA,NA,NA
a1006,task,flow.Sequence,5_0_2_0_5,NA,NA,completion,11250.9,771181,771170.46,771191.28,782442.18,782453,2023-10-02T11:58:42Z,782463.02,NULL,Inhalt,yaliyomo,s,kishawishi,hifadhi,kutembea,NA,sdf,NA,2,NA,NA,NA,NA,NA,NA,NA,NA,NA,NA,NA,NA,NA,NA,NA,NA,NA,NA,NA
a1006,Deep Question,html.Page,5_0_2_0_6_0_0,NA,NA,form submission,23784.98,782454,782442.18,782463.02,806248,806249,2023-10-02T11:59:06Z,806254.96,NULL,Sympathie,mapendano,d,NA,NA,NA,mapendano,NA,NA,2,NA,NA,NA,NA,NA,NA,NA,NA,NA,NA,NA,NA,NA,NA,NA,NA,NA,NA,NA
a1006,"""Richtig""-Screen",canvas.Screen,5_0_2_0_6_0_1,NA,NA,timeout,4999.64,806254,806241.64,806254.96,811233.78,811237,2023-10-02T11:59:11Z,811254.6,NULL,Sympathie,mapendano,d,NA,NA,NA,NA,sdf,1,2,NA,NA,NA,NA,NA,NA,NA,NA,NA,NA,NA,NA,NA,NA,NA,NA,NA,NA,NA
a1006,"""Falsch""-Screen",canvas.Screen,5_0_2_0_6_0_2,NA,NA,skipped,NA,811244,NA,NA,811233.78,811245,2023-10-02T11:59:11Z,811254.6,NULL,Sympathie,mapendano,d,NA,NA,NA,NA,sdf,NA,2,NA,NA,NA,NA,NA,NA,NA,NA,NA,NA,NA,NA,NA,NA,NA,NA,NA,NA,NA
a1006,deep,flow.Sequence,5_0_2_0_6_0,NA,NA,completion,28770.76,782454,782442.18,782463.02,811233.78,811246,2023-10-02T11:59:11Z,811254.6,NULL,Sympathie,mapendano,d,NA,NA,NA,NA,sdf,NA,2,NA,NA,NA,NA,NA,NA,NA,NA,NA,NA,NA,NA,NA,NA,NA,NA,NA,NA,NA
a1006,shallow,flow.Sequence,5_0_2_0_6_1,NA,NA,skipped,NA,811246,NA,NA,811233.78,811247,2023-10-02T11:59:11Z,811254.6,NULL,Sympathie,mapendano,d,NA,NA,NA,NA,sdf,NA,2,NA,NA,NA,NA,NA,NA,NA,NA,NA,NA,NA,NA,NA,NA,NA,NA,NA,NA,NA
a1006,task,flow.Sequence,5_0_2_0_6,NA,NA,completion,28770.76,782454,782442.18,782463.02,811233.78,811247,2023-10-02T11:59:11Z,811254.6,NULL,Sympathie,mapendano,d,NA,NA,NA,NA,sdf,NA,2,NA,NA,NA,NA,NA,NA,NA,NA,NA,NA,NA,NA,NA,NA,NA,NA,NA,NA,NA
a1006,Deep Question,html.Page,5_0_2_0_7_0_0,NA,NA,form submission,20939.4,811248,811233.78,811254.6,832194,832194,2023-10-02T11:59:32Z,832212.48,NULL,Annäherung,maegesho,d,NA,NA,NA,maengdano,NA,NA,2,NA,NA,NA,NA,NA,NA,NA,NA,NA,NA,NA,NA,NA,NA,NA,NA,NA,NA,NA
a1006,"""Richtig""-Screen",canvas.Screen,5_0_2_0_7_0_1,NA,NA,skipped,NA,832196,NA,NA,832194,832196,2023-10-02T11:59:32Z,832212.48,NULL,Annäherung,maegesho,d,NA,NA,NA,NA,sdf,NA,2,NA,NA,NA,NA,NA,NA,NA,NA,NA,NA,NA,NA,NA,NA,NA,NA,NA,NA,NA
a1006,"""Falsch""-Screen",canvas.Screen,5_0_2_0_7_0_2,NA,NA,timeout,4999.5800000001,832198,832191.9,832212.48,837191.24,837194,2023-10-02T11:59:37Z,837212.06,NULL,Annäherung,maegesho,d,NA,NA,NA,NA,sdf,0,2,NA,NA,NA,NA,NA,NA,NA,NA,NA,NA,NA,NA,NA,NA,NA,NA,NA,NA,NA
a1006,deep,flow.Sequence,5_0_2_0_7_0,NA,NA,completion,25936.64,811248,811233.78,811254.6,837191.24,837195,2023-10-02T11:59:37Z,837212.06,NULL,Annäherung,maegesho,d,NA,NA,NA,NA,sdf,NA,2,NA,NA,NA,NA,NA,NA,NA,NA,NA,NA,NA,NA,NA,NA,NA,NA,NA,NA,NA
a1006,shallow,flow.Sequence,5_0_2_0_7_1,NA,NA,skipped,NA,837196,NA,NA,837191.24,837196,2023-10-02T11:59:37Z,837212.06,NULL,Annäherung,maegesho,d,NA,NA,NA,NA,sdf,NA,2,NA,NA,NA,NA,NA,NA,NA,NA,NA,NA,NA,NA,NA,NA,NA,NA,NA,NA,NA
a1006,task,flow.Sequence,5_0_2_0_7,NA,NA,completion,25936.64,811248,811233.78,811254.6,837191.24,837197,2023-10-02T11:59:37Z,837212.06,NULL,Annäherung,maegesho,d,NA,NA,NA,NA,sdf,NA,2,NA,NA,NA,NA,NA,NA,NA,NA,NA,NA,NA,NA,NA,NA,NA,NA,NA,NA,NA
a1006,block,flow.Loop,5_0_2_0,NA,NA,completion,125561.56,711628,711628.22,711629.68,837191.24,837198,2023-10-02T11:59:37Z,837212.06,NULL,NA,NA,NA,NA,NA,NA,NA,sdf,NA,2,NA,NA,NA,NA,NA,NA,NA,NA,NA,NA,NA,NA,NA,NA,NA,NA,NA,NA,NA
a1006,weiter,canvas.Screen,5_0_2_1,sdf,keypress(Space),response,1193.9399999999,837198,837191.24,837212.06,838406,838412,2023-10-02T11:59:38Z,839171.22,NULL,NA,NA,NA,NA,NA,NA,NA,sdf,NA,2,NA,NA,NA,NA,NA,NA,NA,NA,NA,NA,NA,NA,NA,NA,NA,NA,NA,NA,NA
a1006,check continue,flow.Sequence,5_0_2,NA,NA,completion,126776.32,711628,711628.22,711629.68,838406,838413,2023-10-02T11:59:38Z,839171.22,NULL,NA,NA,NA,NA,NA,NA,NA,sdf,NA,2,NA,NA,NA,NA,NA,NA,NA,NA,NA,NA,NA,NA,NA,NA,NA,NA,NA,NA,NA
a1006,check continue,flow.Sequence,5_0_3,NA,NA,skipped,NA,838468,NA,NA,838406,838469,2023-10-02T11:59:38Z,839171.22,NULL,NA,NA,NA,NA,NA,NA,NA,qt,NA,3,NA,NA,NA,NA,NA,NA,NA,NA,NA,NA,NA,NA,NA,NA,NA,NA,NA,NA,NA
a1006,check continue,flow.Sequence,5_0_4,NA,NA,skipped,NA,838497,NA,NA,838406,838497,2023-10-02T11:59:38Z,839171.22,NULL,NA,NA,NA,NA,NA,NA,NA,sd,NA,4,NA,NA,NA,NA,NA,NA,NA,NA,NA,NA,NA,NA,NA,NA,NA,NA,NA,NA,NA
a1006,check continue,flow.Sequence,5_0_5,NA,NA,skipped,NA,838525,NA,NA,838406,838525,2023-10-02T11:59:38Z,839171.22,NULL,NA,NA,NA,NA,NA,NA,NA,sdf,NA,5,NA,NA,NA,NA,NA,NA,NA,NA,NA,NA,NA,NA,NA,NA,NA,NA,NA,NA,NA
a1006,check continue,flow.Sequence,5_0_6,NA,NA,skipped,NA,838554,NA,NA,838406,838554,2023-10-02T11:59:38Z,839171.22,NULL,NA,NA,NA,NA,NA,NA,NA,dfs,NA,6,NA,NA,NA,NA,NA,NA,NA,NA,NA,NA,NA,NA,NA,NA,NA,NA,NA,NA,NA
a1006,check continue,flow.Sequence,5_0_7,NA,NA,skipped,NA,838581,NA,NA,838406,838581,2023-10-02T11:59:38Z,839171.22,NULL,NA,NA,NA,NA,NA,NA,NA,df,NA,7,NA,NA,NA,NA,NA,NA,NA,NA,NA,NA,NA,NA,NA,NA,NA,NA,NA,NA,NA
a1006,check continue,flow.Sequence,5_0_8,NA,NA,skipped,NA,838607,NA,NA,838406,838607,2023-10-02T11:59:38Z,839171.22,NULL,NA,NA,NA,NA,NA,NA,NA,dfs,NA,8,NA,NA,NA,NA,NA,NA,NA,NA,NA,NA,NA,NA,NA,NA,NA,NA,NA,NA,NA
a1006,check continue,flow.Sequence,5_0_9,NA,NA,skipped,NA,838634,NA,NA,838406,838634,2023-10-02T11:59:38Z,839171.22,NULL,NA,NA,NA,NA,NA,NA,NA,dsf,NA,9,NA,NA,NA,NA,NA,NA,NA,NA,NA,NA,NA,NA,NA,NA,NA,NA,NA,NA,NA
a1006,check continue,flow.Sequence,5_0_10,NA,NA,skipped,NA,838661,NA,NA,838406,838661,2023-10-02T11:59:38Z,839171.22,NULL,NA,NA,NA,NA,NA,NA,NA,df,NA,10,NA,NA,NA,NA,NA,NA,NA,NA,NA,NA,NA,NA,NA,NA,NA,NA,NA,NA,NA
a1006,check continue,flow.Sequence,5_0_11,NA,NA,skipped,NA,838690,NA,NA,838406,838690,2023-10-02T11:59:38Z,839171.22,NULL,NA,NA,NA,NA,NA,NA,NA,dfs,NA,11,NA,NA,NA,NA,NA,NA,NA,NA,NA,NA,NA,NA,NA,NA,NA,NA,NA,NA,NA
a1006,check continue,flow.Sequence,5_0_12,NA,NA,skipped,NA,838716,NA,NA,838406,838716,2023-10-02T11:59:38Z,839171.22,NULL,NA,NA,NA,NA,NA,NA,NA,dsf,NA,12,NA,NA,NA,NA,NA,NA,NA,NA,NA,NA,NA,NA,NA,NA,NA,NA,NA,NA,NA
a1006,check continue,flow.Sequence,5_0_13,NA,NA,skipped,NA,838739,NA,NA,838406,838739,2023-10-02T11:59:38Z,839171.22,NULL,NA,NA,NA,NA,NA,NA,NA,dsf,NA,13,NA,NA,NA,NA,NA,NA,NA,NA,NA,NA,NA,NA,NA,NA,NA,NA,NA,NA,NA
a1006,check continue,flow.Sequence,5_0_14,NA,NA,skipped,NA,838767,NA,NA,838406,838767,2023-10-02T11:59:38Z,839171.22,NULL,NA,NA,NA,NA,NA,NA,NA,NA,NA,14,NA,NA,NA,NA,NA,NA,NA,NA,NA,NA,NA,NA,NA,NA,NA,NA,NA,NA,NA
a1006,check continue,flow.Sequence,5_0_15,NA,NA,skipped,NA,838790,NA,NA,838406,838790,2023-10-02T11:59:38Z,839171.22,NULL,NA,NA,NA,NA,NA,NA,NA,NA,NA,15,NA,NA,NA,NA,NA,NA,NA,NA,NA,NA,NA,NA,NA,NA,NA,NA,NA,NA,NA
a1006,check continue,flow.Sequence,5_0_16,NA,NA,skipped,NA,838815,NA,NA,838406,838815,2023-10-02T11:59:38Z,839171.22,NULL,NA,NA,NA,NA,NA,NA,NA,NA,NA,16,NA,NA,NA,NA,NA,NA,NA,NA,NA,NA,NA,NA,NA,NA,NA,NA,NA,NA,NA
a1006,check continue,flow.Sequence,5_0_17,NA,NA,skipped,NA,838842,NA,NA,838406,838842,2023-10-02T11:59:38Z,839171.22,NULL,NA,NA,NA,NA,NA,NA,NA,NA,NA,17,NA,NA,NA,NA,NA,NA,NA,NA,NA,NA,NA,NA,NA,NA,NA,NA,NA,NA,NA
a1006,check continue,flow.Sequence,5_0_18,NA,NA,skipped,NA,838865,NA,NA,838406,838865,2023-10-02T11:59:38Z,839171.22,NULL,NA,NA,NA,NA,NA,NA,NA,NA,NA,18,NA,NA,NA,NA,NA,NA,NA,NA,NA,NA,NA,NA,NA,NA,NA,NA,NA,NA,NA
a1006,check continue,flow.Sequence,5_0_19,NA,NA,skipped,NA,838894,NA,NA,838406,838894,2023-10-02T11:59:38Z,839171.22,NULL,NA,NA,NA,NA,NA,NA,NA,NA,NA,19,NA,NA,NA,NA,NA,NA,NA,NA,NA,NA,NA,NA,NA,NA,NA,NA,NA,NA,NA
a1006,check continue,flow.Sequence,5_0_20,NA,NA,skipped,NA,838922,NA,NA,838406,838922,2023-10-02T11:59:38Z,839171.22,NULL,NA,NA,NA,NA,NA,NA,NA,NA,NA,20,NA,NA,NA,NA,NA,NA,NA,NA,NA,NA,NA,NA,NA,NA,NA,NA,NA,NA,NA
a1006,check continue,flow.Sequence,5_0_21,NA,NA,skipped,NA,838946,NA,NA,838406,838946,2023-10-02T11:59:38Z,839171.22,NULL,NA,NA,NA,NA,NA,NA,NA,NA,NA,21,NA,NA,NA,NA,NA,NA,NA,NA,NA,NA,NA,NA,NA,NA,NA,NA,NA,NA,NA
a1006,check continue,flow.Sequence,5_0_22,NA,NA,skipped,NA,838972,NA,NA,838406,838972,2023-10-02T11:59:38Z,839171.22,NULL,NA,NA,NA,NA,NA,NA,NA,NA,NA,22,NA,NA,NA,NA,NA,NA,NA,NA,NA,NA,NA,NA,NA,NA,NA,NA,NA,NA,NA
a1006,check continue,flow.Sequence,5_0_23,NA,NA,skipped,NA,838997,NA,NA,838406,838997,2023-10-02T11:59:38Z,839171.22,NULL,NA,NA,NA,NA,NA,NA,NA,NA,NA,23,NA,NA,NA,NA,NA,NA,NA,NA,NA,NA,NA,NA,NA,NA,NA,NA,NA,NA,NA
a1006,check continue,flow.Sequence,5_0_24,NA,NA,skipped,NA,839020,NA,NA,838406,839020,2023-10-02T11:59:38Z,839171.22,NULL,NA,NA,NA,NA,NA,NA,NA,NA,NA,24,NA,NA,NA,NA,NA,NA,NA,NA,NA,NA,NA,NA,NA,NA,NA,NA,NA,NA,NA
a1006,check continue,flow.Sequence,5_0_25,NA,NA,skipped,NA,839047,NA,NA,838406,839047,2023-10-02T11:59:38Z,839171.22,NULL,NA,NA,NA,NA,NA,NA,NA,NA,NA,25,NA,NA,NA,NA,NA,NA,NA,NA,NA,NA,NA,NA,NA,NA,NA,NA,NA,NA,NA
a1006,check continue,flow.Sequence,5_0_26,NA,NA,skipped,NA,839074,NA,NA,838406,839074,2023-10-02T11:59:38Z,839171.22,NULL,NA,NA,NA,NA,NA,NA,NA,NA,NA,26,NA,NA,NA,NA,NA,NA,NA,NA,NA,NA,NA,NA,NA,NA,NA,NA,NA,NA,NA
a1006,check continue,flow.Sequence,5_0_27,NA,NA,skipped,NA,839100,NA,NA,838406,839100,2023-10-02T11:59:38Z,839171.22,NULL,NA,NA,NA,NA,NA,NA,NA,NA,NA,27,NA,NA,NA,NA,NA,NA,NA,NA,NA,NA,NA,NA,NA,NA,NA,NA,NA,NA,NA
a1006,check continue,flow.Sequence,5_0_28,NA,NA,skipped,NA,839126,NA,NA,838406,839126,2023-10-02T11:59:38Z,839171.22,NULL,NA,NA,NA,NA,NA,NA,NA,NA,NA,28,NA,NA,NA,NA,NA,NA,NA,NA,NA,NA,NA,NA,NA,NA,NA,NA,NA,NA,NA
