observation,sender,sender_type,sender_id,response,response_action,ended_on,duration,time_run,time_render,time_show,time_end,time_commit,timestamp,time_switch,distractors,german,swahili,enc,distractor1,distractor2,distractor3,response_2,x,correct,x_2,url_vp,url_sess,meta_labjs_version,meta_location,meta_user_agent,meta_platform,meta_language,meta_locale,meta_time_zone,meta_timezone_offset,meta_screen_width,meta_screen_height,meta_scroll_width,meta_scroll_height,meta_window_inner_width,meta_window_inner_height,meta_device_pixel_ratio,meta_labjs_build_flavor,meta_labjs_build_commit
a346f,Introduction general,canvas.Screen,0,weiter,keypress(q),response,173025.322,1983.2999999523,1997.991,2048.178,175073.5,175076.5,2023-01-20T17:08:41Z,175090.601,NULL,NA,NA,NA,NA,NA,NA,NA,NA,NA,NA,108,1,20.2.4,https://neurocog.fernuni.ch/studies/vweber/encoding_immediate/index.html?vp=108&sess=1,"Mozilla/5.0 (Windows NT 10.0; Win64; x64) AppleWebKit/537.36 (KHTML, like Gecko) Chrome/109.0.0.0 Safari/537.36",Win32,en-US,en-US,Europe/Berlin,-60,1536,864,1536,674,1536,722,1.25,production,f5b4a49f956347addd546a832a3327688c2c0fef
a346f,Introduction practice,canvas.Screen,1_0,NA,keypress(Space),response,21759.798999976,175076.89999998,175067.475,175090.601,196850.39999998,196851,2023-01-20T17:09:02Z,196883.095,NULL,NA,NA,NA,NA,NA,NA,NA,NA,NA,NA,NA,NA,NA,NA,NA,NA,NA,NA,NA,NA,NA,NA,NA,NA,NA,NA,NA,NA,NA
a346f,Deep Question,html.Page,1_1_0_0_0,NA,NA,form submission,14260.604999928,196851.89999998,196839.753,196883.095,211143.69999993,211144,2023-01-20T17:09:17Z,211168.895,"c(""distractor1"", ""distractor2"", ""distractor3"")",Gesundheit,salama,d,NA,NA,NA,k,NA,NA,NA,NA,NA,NA,NA,NA,NA,NA,NA,NA,NA,NA,NA,NA,NA,NA,NA,NA,NA,NA
a346f,"""Richtig""-Screen",canvas.Screen,1_1_0_0_1,NA,NA,skipped,NA,211145.69999993,NA,NA,211143.69999993,211145.89999998,2023-01-20T17:09:17Z,211168.895,"c(""distractor1"", ""distractor2"", ""distractor3"")",Gesundheit,salama,d,NA,NA,NA,NA,NA,NA,NA,NA,NA,NA,NA,NA,NA,NA,NA,NA,NA,NA,NA,NA,NA,NA,NA,NA,NA,NA
a346f,"""Falsch""-Screen",canvas.Screen,1_1_0_0_2,NA,NA,timeout,4999.351,211147.39999998,211135.7,211168.895,216151.611,216154,2023-01-20T17:09:22Z,216168.246,"c(""distractor1"", ""distractor2"", ""distractor3"")",Gesundheit,salama,d,NA,NA,NA,NA,NA,0,NA,NA,NA,NA,NA,NA,NA,NA,NA,NA,NA,NA,NA,NA,NA,NA,NA,NA,NA,NA
a346f,deep,flow.Sequence,1_1_0_0,NA,NA,completion,19268.516,196851.89999998,196839.753,196883.095,216151.611,216154.19999993,2023-01-20T17:09:22Z,216168.246,"c(""distractor1"", ""distractor2"", ""distractor3"")",Gesundheit,salama,d,NA,NA,NA,NA,NA,NA,NA,NA,NA,NA,NA,NA,NA,NA,NA,NA,NA,NA,NA,NA,NA,NA,NA,NA,NA,NA
a346f,shallow,flow.Sequence,1_1_0_1,NA,NA,skipped,NA,216154.39999998,NA,NA,216151.611,216154.39999998,2023-01-20T17:09:22Z,216168.246,"c(""distractor1"", ""distractor2"", ""distractor3"")",Gesundheit,salama,d,NA,NA,NA,NA,NA,NA,NA,NA,NA,NA,NA,NA,NA,NA,NA,NA,NA,NA,NA,NA,NA,NA,NA,NA,NA,NA
a346f,task,flow.Sequence,1_1_0,NA,NA,completion,19268.516,196851.89999998,196839.753,196883.095,216151.611,216154.60000002,2023-01-20T17:09:22Z,216168.246,"c(""distractor1"", ""distractor2"", ""distractor3"")",Gesundheit,salama,d,NA,NA,NA,NA,NA,NA,NA,NA,NA,NA,NA,NA,NA,NA,NA,NA,NA,NA,NA,NA,NA,NA,NA,NA,NA,NA
a346f,Deep Question,html.Page,1_1_1_0_0,NA,NA,form submission,10426.653999976,216154.79999995,216151.611,216168.246,226594.89999998,226595.19999993,2023-01-20T17:09:32Z,226600.06,"c(""distractor1"", ""distractor2"", ""distractor3"")",Schatten,kivuli,d,NA,NA,NA,salamaa,NA,NA,NA,NA,NA,NA,NA,NA,NA,NA,NA,NA,NA,NA,NA,NA,NA,NA,NA,NA,NA,NA
a346f,"""Richtig""-Screen",canvas.Screen,1_1_1_0_1,NA,NA,skipped,NA,226598,NA,NA,226594.89999998,226598.19999993,2023-01-20T17:09:32Z,226600.06,"c(""distractor1"", ""distractor2"", ""distractor3"")",Schatten,kivuli,d,NA,NA,NA,NA,NA,NA,NA,NA,NA,NA,NA,NA,NA,NA,NA,NA,NA,NA,NA,NA,NA,NA,NA,NA,NA,NA
a346f,"""Falsch""-Screen",canvas.Screen,1_1_1_0_2,NA,NA,timeout,4999.391,226599.19999993,226583.542,226600.06,231582.81,231583.60000002,2023-01-20T17:09:37Z,231599.451,"c(""distractor1"", ""distractor2"", ""distractor3"")",Schatten,kivuli,d,NA,NA,NA,NA,NA,0,NA,NA,NA,NA,NA,NA,NA,NA,NA,NA,NA,NA,NA,NA,NA,NA,NA,NA,NA,NA
a346f,deep,flow.Sequence,1_1_1_0,NA,NA,completion,15414.564,216154.69999993,216151.611,216168.246,231582.81,231583.89999998,2023-01-20T17:09:37Z,231599.451,"c(""distractor1"", ""distractor2"", ""distractor3"")",Schatten,kivuli,d,NA,NA,NA,NA,NA,NA,NA,NA,NA,NA,NA,NA,NA,NA,NA,NA,NA,NA,NA,NA,NA,NA,NA,NA,NA,NA
a346f,shallow,flow.Sequence,1_1_1_1,NA,NA,skipped,NA,231584.10000002,NA,NA,231582.81,231584.29999995,2023-01-20T17:09:37Z,231599.451,"c(""distractor1"", ""distractor2"", ""distractor3"")",Schatten,kivuli,d,NA,NA,NA,NA,NA,NA,NA,NA,NA,NA,NA,NA,NA,NA,NA,NA,NA,NA,NA,NA,NA,NA,NA,NA,NA,NA
a346f,task,flow.Sequence,1_1_1,NA,NA,completion,15414.564,216154.60000002,216151.611,216168.246,231582.81,231584.39999998,2023-01-20T17:09:37Z,231599.451,"c(""distractor1"", ""distractor2"", ""distractor3"")",Schatten,kivuli,d,NA,NA,NA,NA,NA,NA,NA,NA,NA,NA,NA,NA,NA,NA,NA,NA,NA,NA,NA,NA,NA,NA,NA,NA,NA,NA
a346f,Deep Question,html.Page,1_1_2_0_0,NA,NA,form submission,8678.9489999762,231584.69999993,231582.81,231599.451,240278.39999998,240278.69999993,2023-01-20T17:09:46Z,240281.497,"c(""distractor1"", ""distractor2"", ""distractor3"")",Qualität,mtindo,d,NA,NA,NA,kivuilii,NA,NA,NA,NA,NA,NA,NA,NA,NA,NA,NA,NA,NA,NA,NA,NA,NA,NA,NA,NA,NA,NA
a346f,"""Richtig""-Screen",canvas.Screen,1_1_2_0_1,NA,NA,skipped,NA,240281,NA,NA,240278.39999998,240281.19999993,2023-01-20T17:09:46Z,240281.497,"c(""distractor1"", ""distractor2"", ""distractor3"")",Qualität,mtindo,d,NA,NA,NA,NA,NA,NA,NA,NA,NA,NA,NA,NA,NA,NA,NA,NA,NA,NA,NA,NA,NA,NA,NA,NA,NA,NA
a346f,"""Falsch""-Screen",canvas.Screen,1_1_2_0_2,NA,NA,timeout,4999.366,240282.19999993,240264.846,240281.497,245264.252,245265,2023-01-20T17:09:51Z,245280.863,"c(""distractor1"", ""distractor2"", ""distractor3"")",Qualität,mtindo,d,NA,NA,NA,NA,NA,0,NA,NA,NA,NA,NA,NA,NA,NA,NA,NA,NA,NA,NA,NA,NA,NA,NA,NA,NA,NA
a346f,deep,flow.Sequence,1_1_2_0,NA,NA,completion,13664.801,231584.69999993,231582.81,231599.451,245264.252,245265.19999993,2023-01-20T17:09:51Z,245280.863,"c(""distractor1"", ""distractor2"", ""distractor3"")",Qualität,mtindo,d,NA,NA,NA,NA,NA,NA,NA,NA,NA,NA,NA,NA,NA,NA,NA,NA,NA,NA,NA,NA,NA,NA,NA,NA,NA,NA
a346f,shallow,flow.Sequence,1_1_2_1,NA,NA,skipped,NA,245265.29999995,NA,NA,245264.252,245265.39999998,2023-01-20T17:09:51Z,245280.863,"c(""distractor1"", ""distractor2"", ""distractor3"")",Qualität,mtindo,d,NA,NA,NA,NA,NA,NA,NA,NA,NA,NA,NA,NA,NA,NA,NA,NA,NA,NA,NA,NA,NA,NA,NA,NA,NA,NA
a346f,task,flow.Sequence,1_1_2,NA,NA,completion,13664.801,231584.60000002,231582.81,231599.451,245264.252,245265.60000002,2023-01-20T17:09:51Z,245280.863,"c(""distractor1"", ""distractor2"", ""distractor3"")",Qualität,mtindo,d,NA,NA,NA,NA,NA,NA,NA,NA,NA,NA,NA,NA,NA,NA,NA,NA,NA,NA,NA,NA,NA,NA,NA,NA,NA,NA
a346f,deep,flow.Sequence,1_1_3_0,NA,NA,skipped,NA,245265.69999993,NA,NA,245264.252,245265.79999995,2023-01-20T17:09:51Z,245280.863,"c(""distractor1"", ""distractor2"", ""distractor3"")",Rückhalt,msaada,s,muhula,auwali,kiwimbe,NA,NA,NA,NA,NA,NA,NA,NA,NA,NA,NA,NA,NA,NA,NA,NA,NA,NA,NA,NA,NA,NA,NA
a346f,Shallow Question,html.Page,1_1_3_1_0,NA,NA,form submission,4733.137,245266,245264.252,245280.863,250014,250014.29999995,2023-01-20T17:09:56Z,250042.989,"c(""distractor1"", ""distractor2"", ""distractor3"")",Rückhalt,msaada,s,muhula,auwali,kiwimbe,msaada,NA,NA,NA,NA,NA,NA,NA,NA,NA,NA,NA,NA,NA,NA,NA,NA,NA,NA,NA,NA,NA,NA
a346f,"""Richtig""-Screen",canvas.Screen,1_1_3_1_1,NA,NA,timeout,5003.118,250016.89999998,249997.006,250042.989,255029.536,255030.29999995,2023-01-20T17:10:01Z,255046.107,"c(""distractor1"", ""distractor2"", ""distractor3"")",Rückhalt,msaada,s,muhula,auwali,kiwimbe,NA,NA,1,NA,NA,NA,NA,NA,NA,NA,NA,NA,NA,NA,NA,NA,NA,NA,NA,NA,NA,NA,NA
a346f,"""Falsch""-Screen",canvas.Screen,1_1_3_1_2,NA,NA,skipped,NA,255033,NA,NA,255029.536,255033.10000002,2023-01-20T17:10:01Z,255046.107,"c(""distractor1"", ""distractor2"", ""distractor3"")",Rückhalt,msaada,s,muhula,auwali,kiwimbe,NA,NA,NA,NA,NA,NA,NA,NA,NA,NA,NA,NA,NA,NA,NA,NA,NA,NA,NA,NA,NA,NA,NA
a346f,shallow,flow.Sequence,1_1_3_1,NA,NA,completion,9748.673,245266,245264.252,245280.863,255029.536,255033.29999995,2023-01-20T17:10:01Z,255046.107,"c(""distractor1"", ""distractor2"", ""distractor3"")",Rückhalt,msaada,s,muhula,auwali,kiwimbe,NA,NA,NA,NA,NA,NA,NA,NA,NA,NA,NA,NA,NA,NA,NA,NA,NA,NA,NA,NA,NA,NA,NA
a346f,task,flow.Sequence,1_1_3,NA,NA,completion,9748.673,245265.69999993,245264.252,245280.863,255029.536,255033.39999998,2023-01-20T17:10:01Z,255046.107,"c(""distractor1"", ""distractor2"", ""distractor3"")",Rückhalt,msaada,s,muhula,auwali,kiwimbe,NA,NA,NA,NA,NA,NA,NA,NA,NA,NA,NA,NA,NA,NA,NA,NA,NA,NA,NA,NA,NA,NA,NA
a346f,deep,flow.Sequence,1_1_4_0,NA,NA,skipped,NA,255033.5,NA,NA,255029.536,255033.60000002,2023-01-20T17:10:01Z,255046.107,"c(""distractor1"", ""distractor2"", ""distractor3"")",Gegenwart,hadhara,s,katiba,jokofu,mikopo,NA,NA,NA,NA,NA,NA,NA,NA,NA,NA,NA,NA,NA,NA,NA,NA,NA,NA,NA,NA,NA,NA,NA
a346f,Shallow Question,html.Page,1_1_4_1_0,NA,NA,form submission,10041.092999928,255033.69999993,255029.536,255046.107,265087.19999993,265087.39999998,2023-01-20T17:10:11Z,265094.703,"c(""distractor1"", ""distractor2"", ""distractor3"")",Gegenwart,hadhara,s,katiba,jokofu,mikopo,jokofu,NA,NA,NA,NA,NA,NA,NA,NA,NA,NA,NA,NA,NA,NA,NA,NA,NA,NA,NA,NA,NA,NA
a346f,"""Richtig""-Screen",canvas.Screen,1_1_4_1_1,NA,NA,skipped,NA,265089.69999993,NA,NA,265087.19999993,265089.79999995,2023-01-20T17:10:11Z,265094.703,"c(""distractor1"", ""distractor2"", ""distractor3"")",Gegenwart,hadhara,s,katiba,jokofu,mikopo,NA,NA,NA,NA,NA,NA,NA,NA,NA,NA,NA,NA,NA,NA,NA,NA,NA,NA,NA,NA,NA,NA,NA
a346f,"""Falsch""-Screen",canvas.Screen,1_1_4_1_2,NA,NA,timeout,4999.363,265090.79999995,265078.162,265094.703,270077.422,270078.10000002,2023-01-20T17:10:16Z,270094.066,"c(""distractor1"", ""distractor2"", ""distractor3"")",Gegenwart,hadhara,s,katiba,jokofu,mikopo,NA,NA,0,NA,NA,NA,NA,NA,NA,NA,NA,NA,NA,NA,NA,NA,NA,NA,NA,NA,NA,NA,NA
a346f,shallow,flow.Sequence,1_1_4_1,NA,NA,completion,15031.315,255033.69999993,255029.536,255046.107,270077.422,270078.39999998,2023-01-20T17:10:16Z,270094.066,"c(""distractor1"", ""distractor2"", ""distractor3"")",Gegenwart,hadhara,s,katiba,jokofu,mikopo,NA,NA,NA,NA,NA,NA,NA,NA,NA,NA,NA,NA,NA,NA,NA,NA,NA,NA,NA,NA,NA,NA,NA
a346f,task,flow.Sequence,1_1_4,NA,NA,completion,15031.315,255033.5,255029.536,255046.107,270077.422,270078.5,2023-01-20T17:10:16Z,270094.066,"c(""distractor1"", ""distractor2"", ""distractor3"")",Gegenwart,hadhara,s,katiba,jokofu,mikopo,NA,NA,NA,NA,NA,NA,NA,NA,NA,NA,NA,NA,NA,NA,NA,NA,NA,NA,NA,NA,NA,NA,NA
a346f,deep,flow.Sequence,1_1_5_0,NA,NA,skipped,NA,270078.69999993,NA,NA,270077.422,270078.69999993,2023-01-20T17:10:16Z,270094.066,"c(""distractor1"", ""distractor2"", ""distractor3"")",Kritik,lawama,s,dereva,nafasi,mawazo,NA,NA,NA,NA,NA,NA,NA,NA,NA,NA,NA,NA,NA,NA,NA,NA,NA,NA,NA,NA,NA,NA,NA
a346f,Shallow Question,html.Page,1_1_5_1_0,NA,NA,form submission,7012.7339999523,270078.79999995,270077.422,270094.066,277106.79999995,277107.19999993,2023-01-20T17:10:23Z,277109.687,"c(""distractor1"", ""distractor2"", ""distractor3"")",Kritik,lawama,s,dereva,nafasi,mawazo,dereva,NA,NA,NA,NA,NA,NA,NA,NA,NA,NA,NA,NA,NA,NA,NA,NA,NA,NA,NA,NA,NA,NA
a346f,"""Richtig""-Screen",canvas.Screen,1_1_5_1_1,NA,NA,skipped,NA,277109.29999995,NA,NA,277106.79999995,277109.5,2023-01-20T17:10:23Z,277109.687,"c(""distractor1"", ""distractor2"", ""distractor3"")",Kritik,lawama,s,dereva,nafasi,mawazo,NA,NA,NA,NA,NA,NA,NA,NA,NA,NA,NA,NA,NA,NA,NA,NA,NA,NA,NA,NA,NA,NA,NA
a346f,"""Falsch""-Screen",canvas.Screen,1_1_5_1_2,NA,NA,timeout,4999.496,277110.60000002,277093.146,277109.687,282092.42,282093.10000002,2023-01-20T17:10:28Z,282109.183,"c(""distractor1"", ""distractor2"", ""distractor3"")",Kritik,lawama,s,dereva,nafasi,mawazo,NA,NA,0,NA,NA,NA,NA,NA,NA,NA,NA,NA,NA,NA,NA,NA,NA,NA,NA,NA,NA,NA,NA
a346f,shallow,flow.Sequence,1_1_5_1,NA,NA,completion,11998.354,270078.79999995,270077.422,270094.066,282092.42,282093.29999995,2023-01-20T17:10:28Z,282109.183,"c(""distractor1"", ""distractor2"", ""distractor3"")",Kritik,lawama,s,dereva,nafasi,mawazo,NA,NA,NA,NA,NA,NA,NA,NA,NA,NA,NA,NA,NA,NA,NA,NA,NA,NA,NA,NA,NA,NA,NA
a346f,task,flow.Sequence,1_1_5,NA,NA,completion,11998.354,270078.60000002,270077.422,270094.066,282092.42,282093.5,2023-01-20T17:10:28Z,282109.183,"c(""distractor1"", ""distractor2"", ""distractor3"")",Kritik,lawama,s,dereva,nafasi,mawazo,NA,NA,NA,NA,NA,NA,NA,NA,NA,NA,NA,NA,NA,NA,NA,NA,NA,NA,NA,NA,NA,NA,NA
a346f,block,flow.Loop,1_1,NA,NA,completion,85209.325,196851.89999998,196839.753,196883.095,282092.42,282093.79999995,2023-01-20T17:10:28Z,282109.183,"c(""distractor1"", ""distractor2"", ""distractor3"")",NA,NA,NA,NA,NA,NA,NA,NA,NA,NA,NA,NA,NA,NA,NA,NA,NA,NA,NA,NA,NA,NA,NA,NA,NA,NA,NA,NA,NA
a346f,Practice,flow.Sequence,1,NA,NA,completion,107001.819,175076.89999998,175067.475,175090.601,282092.42,282094,2023-01-20T17:10:28Z,282109.183,NULL,NA,NA,NA,NA,NA,NA,NA,NA,NA,NA,NA,NA,NA,NA,NA,NA,NA,NA,NA,NA,NA,NA,NA,NA,NA,NA,NA,NA,NA
a346f,Experiment start,canvas.Screen,2,weiter,keypress(q),response,7452.4170000238,282094.10000002,282092.42,282109.183,289561.60000002,289564.29999995,2023-01-20T17:10:35Z,289674.532,NULL,NA,NA,NA,NA,NA,NA,NA,NA,NA,NA,NA,NA,NA,NA,NA,NA,NA,NA,NA,NA,NA,NA,NA,NA,NA,NA,NA,NA,NA
a346f,deep,flow.Sequence,3_0_0_0_0_0,NA,NA,skipped,NA,289681.29999995,NA,NA,289561.60000002,289681.60000002,2023-01-20T17:10:35Z,289674.532,NULL,Körper,kiwiliwili,s,mapambano,mpatanishi,kiolezo,NA,sdf,NA,0,NA,NA,NA,NA,NA,NA,NA,NA,NA,NA,NA,NA,NA,NA,NA,NA,NA,NA,NA
a346f,Shallow Question,html.Page,3_0_0_0_0_1_0,NA,NA,form submission,9348.8679999762,289681.79999995,289558.53,289674.532,299023.39999998,299023.89999998,2023-01-20T17:10:45Z,299041.806,NULL,Körper,kiwiliwili,s,mapambano,mpatanishi,kiolezo,kiolezo,NA,NA,0,NA,NA,NA,NA,NA,NA,NA,NA,NA,NA,NA,NA,NA,NA,NA,NA,NA,NA,NA
a346f,"""Richtig""-Screen",canvas.Screen,3_0_0_0_0_1_1,NA,NA,skipped,NA,299026.29999995,NA,NA,299023.39999998,299026.5,2023-01-20T17:10:45Z,299041.806,NULL,Körper,kiwiliwili,s,mapambano,mpatanishi,kiolezo,NA,sdf,NA,0,NA,NA,NA,NA,NA,NA,NA,NA,NA,NA,NA,NA,NA,NA,NA,NA,NA,NA,NA
a346f,"""Falsch""-Screen",canvas.Screen,3_0_0_0_0_1_2,NA,NA,timeout,4997.41,299027.39999998,299006.669,299041.806,304022.524,304023.39999998,2023-01-20T17:10:50Z,304039.216,NULL,Körper,kiwiliwili,s,mapambano,mpatanishi,kiolezo,NA,sdf,0,0,NA,NA,NA,NA,NA,NA,NA,NA,NA,NA,NA,NA,NA,NA,NA,NA,NA,NA,NA
a346f,shallow,flow.Sequence,3_0_0_0_0_1,NA,NA,completion,14347.992,289681.69999993,289558.53,289674.532,304022.524,304023.69999993,2023-01-20T17:10:50Z,304039.216,NULL,Körper,kiwiliwili,s,mapambano,mpatanishi,kiolezo,NA,sdf,NA,0,NA,NA,NA,NA,NA,NA,NA,NA,NA,NA,NA,NA,NA,NA,NA,NA,NA,NA,NA
a346f,task,flow.Sequence,3_0_0_0_0,NA,NA,completion,14347.992,289681.29999995,289558.53,289674.532,304022.524,304023.79999995,2023-01-20T17:10:50Z,304039.216,NULL,Körper,kiwiliwili,s,mapambano,mpatanishi,kiolezo,NA,sdf,NA,0,NA,NA,NA,NA,NA,NA,NA,NA,NA,NA,NA,NA,NA,NA,NA,NA,NA,NA,NA
a346f,deep,flow.Sequence,3_0_0_0_1_0,NA,NA,skipped,NA,304023.89999998,NA,NA,304022.524,304024,2023-01-20T17:10:50Z,304039.216,NULL,Übersicht,kilindo,s,mgusano,chipukizi,kulinganisha,NA,sdf,NA,0,NA,NA,NA,NA,NA,NA,NA,NA,NA,NA,NA,NA,NA,NA,NA,NA,NA,NA,NA
a346f,Shallow Question,html.Page,3_0_0_0_1_1_0,NA,NA,form submission,7522.1839999761,304024.10000002,304022.524,304039.216,311561.39999998,311561.69999993,2023-01-20T17:10:57Z,311571.512,NULL,Übersicht,kilindo,s,mgusano,chipukizi,kulinganisha,mgusano,NA,NA,0,NA,NA,NA,NA,NA,NA,NA,NA,NA,NA,NA,NA,NA,NA,NA,NA,NA,NA,NA
a346f,"""Richtig""-Screen",canvas.Screen,3_0_0_0_1_1_1,NA,NA,skipped,NA,311564.19999993,NA,NA,311561.39999998,311564.29999995,2023-01-20T17:10:57Z,311571.512,NULL,Übersicht,kilindo,s,mgusano,chipukizi,kulinganisha,NA,sdf,NA,0,NA,NA,NA,NA,NA,NA,NA,NA,NA,NA,NA,NA,NA,NA,NA,NA,NA,NA,NA
a346f,"""Falsch""-Screen",canvas.Screen,3_0_0_0_1_1_2,NA,NA,timeout,4999.219,311565,311554.928,311571.512,316554.216,316554.89999998,2023-01-20T17:11:02Z,316570.731,NULL,Übersicht,kilindo,s,mgusano,chipukizi,kulinganisha,NA,sdf,0,0,NA,NA,NA,NA,NA,NA,NA,NA,NA,NA,NA,NA,NA,NA,NA,NA,NA,NA,NA
a346f,shallow,flow.Sequence,3_0_0_0_1_1,NA,NA,completion,12515,304024,304022.524,304039.216,316554.216,316555.10000002,2023-01-20T17:11:02Z,316570.731,NULL,Übersicht,kilindo,s,mgusano,chipukizi,kulinganisha,NA,sdf,NA,0,NA,NA,NA,NA,NA,NA,NA,NA,NA,NA,NA,NA,NA,NA,NA,NA,NA,NA,NA
a346f,task,flow.Sequence,3_0_0_0_1,NA,NA,completion,12515,304023.89999998,304022.524,304039.216,316554.216,316555.29999995,2023-01-20T17:11:02Z,316570.731,NULL,Übersicht,kilindo,s,mgusano,chipukizi,kulinganisha,NA,sdf,NA,0,NA,NA,NA,NA,NA,NA,NA,NA,NA,NA,NA,NA,NA,NA,NA,NA,NA,NA,NA
a346f,deep,flow.Sequence,3_0_0_0_2_0,NA,NA,skipped,NA,316555.5,NA,NA,316554.216,316555.60000002,2023-01-20T17:11:02Z,316570.731,NULL,Entwicklung,maendeleo,s,uangavu,mshindwa,badiliko,NA,sdf,NA,0,NA,NA,NA,NA,NA,NA,NA,NA,NA,NA,NA,NA,NA,NA,NA,NA,NA,NA,NA
a346f,Shallow Question,html.Page,3_0_0_0_2_1_0,NA,NA,form submission,9508.9689999284,316555.79999995,316554.216,316570.731,326079.69999993,326080,2023-01-20T17:11:12Z,326086.08,NULL,Entwicklung,maendeleo,s,uangavu,mshindwa,badiliko,uangavu,NA,NA,0,NA,NA,NA,NA,NA,NA,NA,NA,NA,NA,NA,NA,NA,NA,NA,NA,NA,NA,NA
a346f,"""Richtig""-Screen",canvas.Screen,3_0_0_0_2_1_1,NA,NA,skipped,NA,326082.29999995,NA,NA,326079.69999993,326082.39999998,2023-01-20T17:11:12Z,326086.08,NULL,Entwicklung,maendeleo,s,uangavu,mshindwa,badiliko,NA,sdf,NA,0,NA,NA,NA,NA,NA,NA,NA,NA,NA,NA,NA,NA,NA,NA,NA,NA,NA,NA,NA
a346f,"""Falsch""-Screen",canvas.Screen,3_0_0_0_2_1_2,NA,NA,timeout,4999.375,326083.19999993,326069.523,326086.08,331068.795,331069.79999995,2023-01-20T17:11:17Z,331085.455,NULL,Entwicklung,maendeleo,s,uangavu,mshindwa,badiliko,NA,sdf,0,0,NA,NA,NA,NA,NA,NA,NA,NA,NA,NA,NA,NA,NA,NA,NA,NA,NA,NA,NA
a346f,shallow,flow.Sequence,3_0_0_0_2_1,NA,NA,completion,14498.064,316555.69999993,316554.216,316570.731,331068.795,331070.10000002,2023-01-20T17:11:17Z,331085.455,NULL,Entwicklung,maendeleo,s,uangavu,mshindwa,badiliko,NA,sdf,NA,0,NA,NA,NA,NA,NA,NA,NA,NA,NA,NA,NA,NA,NA,NA,NA,NA,NA,NA,NA
a346f,task,flow.Sequence,3_0_0_0_2,NA,NA,completion,14498.064,316555.5,316554.216,316570.731,331068.795,331070.29999995,2023-01-20T17:11:17Z,331085.455,NULL,Entwicklung,maendeleo,s,uangavu,mshindwa,badiliko,NA,sdf,NA,0,NA,NA,NA,NA,NA,NA,NA,NA,NA,NA,NA,NA,NA,NA,NA,NA,NA,NA,NA
a346f,Deep Question,html.Page,3_0_0_0_3_0_0,NA,NA,form submission,6680.3449999523,331070.39999998,331068.795,331085.455,337765.79999995,337766.10000002,2023-01-20T17:11:23Z,337767.807,NULL,Papier,karatasi,d,NA,NA,NA,k,NA,NA,0,NA,NA,NA,NA,NA,NA,NA,NA,NA,NA,NA,NA,NA,NA,NA,NA,NA,NA,NA
a346f,"""Richtig""-Screen",canvas.Screen,3_0_0_0_3_0_1,NA,NA,skipped,NA,337768.89999998,NA,NA,337765.79999995,337769,2023-01-20T17:11:23Z,337767.807,NULL,Papier,karatasi,d,NA,NA,NA,NA,sdf,NA,0,NA,NA,NA,NA,NA,NA,NA,NA,NA,NA,NA,NA,NA,NA,NA,NA,NA,NA,NA
a346f,"""Falsch""-Screen",canvas.Screen,3_0_0_0_3_0_2,NA,NA,timeout,4999.387,337769.89999998,337751.236,337767.807,342750.529,342751.19999993,2023-01-20T17:11:28Z,342767.194,NULL,Papier,karatasi,d,NA,NA,NA,NA,sdf,0,0,NA,NA,NA,NA,NA,NA,NA,NA,NA,NA,NA,NA,NA,NA,NA,NA,NA,NA,NA
a346f,deep,flow.Sequence,3_0_0_0_3_0,NA,NA,completion,11665.074,331070.39999998,331068.795,331085.455,342750.529,342751.5,2023-01-20T17:11:28Z,342767.194,NULL,Papier,karatasi,d,NA,NA,NA,NA,sdf,NA,0,NA,NA,NA,NA,NA,NA,NA,NA,NA,NA,NA,NA,NA,NA,NA,NA,NA,NA,NA
a346f,shallow,flow.Sequence,3_0_0_0_3_1,NA,NA,skipped,NA,342751.60000002,NA,NA,342750.529,342751.69999993,2023-01-20T17:11:28Z,342767.194,NULL,Papier,karatasi,d,NA,NA,NA,NA,sdf,NA,0,NA,NA,NA,NA,NA,NA,NA,NA,NA,NA,NA,NA,NA,NA,NA,NA,NA,NA,NA
a346f,task,flow.Sequence,3_0_0_0_3,NA,NA,completion,11665.074,331070.39999998,331068.795,331085.455,342750.529,342751.79999995,2023-01-20T17:11:28Z,342767.194,NULL,Papier,karatasi,d,NA,NA,NA,NA,sdf,NA,0,NA,NA,NA,NA,NA,NA,NA,NA,NA,NA,NA,NA,NA,NA,NA,NA,NA,NA,NA
a346f,Deep Question,html.Page,3_0_0_0_4_0_0,NA,NA,form submission,8809.1059999523,342752,342750.529,342767.194,351576.29999995,351576.60000002,2023-01-20T17:11:37Z,351599.271,NULL,System,maongozi,d,NA,NA,NA,l,NA,NA,0,NA,NA,NA,NA,NA,NA,NA,NA,NA,NA,NA,NA,NA,NA,NA,NA,NA,NA,NA
a346f,"""Richtig""-Screen",canvas.Screen,3_0_0_0_4_0_1,NA,NA,skipped,NA,351579,NA,NA,351576.29999995,351579.19999993,2023-01-20T17:11:37Z,351599.271,NULL,System,maongozi,d,NA,NA,NA,NA,sdf,NA,0,NA,NA,NA,NA,NA,NA,NA,NA,NA,NA,NA,NA,NA,NA,NA,NA,NA,NA,NA
a346f,"""Falsch""-Screen",canvas.Screen,3_0_0_0_4_0_2,NA,NA,timeout,4999.219,351580,351582.565,351599.271,356581.908,356582.5,2023-01-20T17:11:42Z,356598.49,NULL,System,maongozi,d,NA,NA,NA,NA,sdf,0,0,NA,NA,NA,NA,NA,NA,NA,NA,NA,NA,NA,NA,NA,NA,NA,NA,NA,NA,NA
a346f,deep,flow.Sequence,3_0_0_0_4_0,NA,NA,completion,13814.714,342752,342750.529,342767.194,356581.908,356582.79999995,2023-01-20T17:11:42Z,356598.49,NULL,System,maongozi,d,NA,NA,NA,NA,sdf,NA,0,NA,NA,NA,NA,NA,NA,NA,NA,NA,NA,NA,NA,NA,NA,NA,NA,NA,NA,NA
a346f,shallow,flow.Sequence,3_0_0_0_4_1,NA,NA,skipped,NA,356583,NA,NA,356581.908,356583.10000002,2023-01-20T17:11:42Z,356598.49,NULL,System,maongozi,d,NA,NA,NA,NA,sdf,NA,0,NA,NA,NA,NA,NA,NA,NA,NA,NA,NA,NA,NA,NA,NA,NA,NA,NA,NA,NA
a346f,task,flow.Sequence,3_0_0_0_4,NA,NA,completion,13814.714,342751.89999998,342750.529,342767.194,356581.908,356583.19999993,2023-01-20T17:11:42Z,356598.49,NULL,System,maongozi,d,NA,NA,NA,NA,sdf,NA,0,NA,NA,NA,NA,NA,NA,NA,NA,NA,NA,NA,NA,NA,NA,NA,NA,NA,NA,NA
a346f,Deep Question,html.Page,3_0_0_0_5_0_0,NA,NA,form submission,7855.51,356583.29999995,356581.908,356598.49,364454,364454.19999993,2023-01-20T17:11:50Z,364464.107,NULL,Niveau,kiwango,d,NA,NA,NA,k,NA,NA,0,NA,NA,NA,NA,NA,NA,NA,NA,NA,NA,NA,NA,NA,NA,NA,NA,NA,NA,NA
a346f,"""Richtig""-Screen",canvas.Screen,3_0_0_0_5_0_1,NA,NA,skipped,NA,364456.60000002,NA,NA,364454,364456.79999995,2023-01-20T17:11:50Z,364464.107,NULL,Niveau,kiwango,d,NA,NA,NA,NA,sdf,NA,0,NA,NA,NA,NA,NA,NA,NA,NA,NA,NA,NA,NA,NA,NA,NA,NA,NA,NA,NA
a346f,"""Falsch""-Screen",canvas.Screen,3_0_0_0_5_0_2,NA,NA,timeout,4999.32,364457.60000002,364447.521,364464.107,369446.785,369447.39999998,2023-01-20T17:11:55Z,369463.427,NULL,Niveau,kiwango,d,NA,NA,NA,NA,sdf,0,0,NA,NA,NA,NA,NA,NA,NA,NA,NA,NA,NA,NA,NA,NA,NA,NA,NA,NA,NA
a346f,deep,flow.Sequence,3_0_0_0_5_0,NA,NA,completion,12848.295,356583.29999995,356581.908,356598.49,369446.785,369447.69999993,2023-01-20T17:11:55Z,369463.427,NULL,Niveau,kiwango,d,NA,NA,NA,NA,sdf,NA,0,NA,NA,NA,NA,NA,NA,NA,NA,NA,NA,NA,NA,NA,NA,NA,NA,NA,NA,NA
a346f,shallow,flow.Sequence,3_0_0_0_5_1,NA,NA,skipped,NA,369447.69999993,NA,NA,369446.785,369447.89999998,2023-01-20T17:11:55Z,369463.427,NULL,Niveau,kiwango,d,NA,NA,NA,NA,sdf,NA,0,NA,NA,NA,NA,NA,NA,NA,NA,NA,NA,NA,NA,NA,NA,NA,NA,NA,NA,NA
a346f,task,flow.Sequence,3_0_0_0_5,NA,NA,completion,12848.295,356583.29999995,356581.908,356598.49,369446.785,369448.10000002,2023-01-20T17:11:55Z,369463.427,NULL,Niveau,kiwango,d,NA,NA,NA,NA,sdf,NA,0,NA,NA,NA,NA,NA,NA,NA,NA,NA,NA,NA,NA,NA,NA,NA,NA,NA,NA,NA
a346f,deep,flow.Sequence,3_0_0_0_6_0,NA,NA,skipped,NA,369448.19999993,NA,NA,369446.785,369448.29999995,2023-01-20T17:11:55Z,369463.427,NULL,Vorwurf,mashtaka,s,msukumo,mtangulizi,uenyekiti,NA,sdf,NA,0,NA,NA,NA,NA,NA,NA,NA,NA,NA,NA,NA,NA,NA,NA,NA,NA,NA,NA,NA
a346f,Shallow Question,html.Page,3_0_0_0_6_1_0,NA,NA,form submission,10818.772999928,369448.39999998,369446.785,369463.427,380282.19999993,380282.60000002,2023-01-20T17:12:06Z,380295.309,NULL,Vorwurf,mashtaka,s,msukumo,mtangulizi,uenyekiti,mtangulizi,NA,NA,0,NA,NA,NA,NA,NA,NA,NA,NA,NA,NA,NA,NA,NA,NA,NA,NA,NA,NA,NA
a346f,"""Richtig""-Screen",canvas.Screen,3_0_0_0_6_1_1,NA,NA,skipped,NA,380285,NA,NA,380282.19999993,380285.19999993,2023-01-20T17:12:06Z,380295.309,NULL,Vorwurf,mashtaka,s,msukumo,mtangulizi,uenyekiti,NA,sdf,NA,0,NA,NA,NA,NA,NA,NA,NA,NA,NA,NA,NA,NA,NA,NA,NA,NA,NA,NA,NA
a346f,"""Falsch""-Screen",canvas.Screen,3_0_0_0_6_1_2,NA,NA,timeout,4999.228,380285.89999998,380278.614,380295.309,385277.901,385278.60000002,2023-01-20T17:12:11Z,385294.537,NULL,Vorwurf,mashtaka,s,msukumo,mtangulizi,uenyekiti,NA,sdf,0,0,NA,NA,NA,NA,NA,NA,NA,NA,NA,NA,NA,NA,NA,NA,NA,NA,NA,NA,NA
a346f,shallow,flow.Sequence,3_0_0_0_6_1,NA,NA,completion,15814.474,369448.29999995,369446.785,369463.427,385277.901,385278.89999998,2023-01-20T17:12:11Z,385294.537,NULL,Vorwurf,mashtaka,s,msukumo,mtangulizi,uenyekiti,NA,sdf,NA,0,NA,NA,NA,NA,NA,NA,NA,NA,NA,NA,NA,NA,NA,NA,NA,NA,NA,NA,NA
a346f,task,flow.Sequence,3_0_0_0_6,NA,NA,completion,15814.474,369448.10000002,369446.785,369463.427,385277.901,385279,2023-01-20T17:12:11Z,385294.537,NULL,Vorwurf,mashtaka,s,msukumo,mtangulizi,uenyekiti,NA,sdf,NA,0,NA,NA,NA,NA,NA,NA,NA,NA,NA,NA,NA,NA,NA,NA,NA,NA,NA,NA,NA
a346f,Deep Question,html.Page,3_0_0_0_7_0_0,NA,NA,form submission,7391.7629999523,385279.29999995,385277.901,385294.537,392686.29999995,392686.69999993,2023-01-20T17:12:18Z,392693.372,NULL,Lawine,banguko,d,NA,NA,NA,mashtaka,NA,NA,0,NA,NA,NA,NA,NA,NA,NA,NA,NA,NA,NA,NA,NA,NA,NA,NA,NA,NA,NA
a346f,"""Richtig""-Screen",canvas.Screen,3_0_0_0_7_0_1,NA,NA,skipped,NA,392690.39999998,NA,NA,392686.29999995,392690.69999993,2023-01-20T17:12:18Z,392693.372,NULL,Lawine,banguko,d,NA,NA,NA,NA,sdf,NA,0,NA,NA,NA,NA,NA,NA,NA,NA,NA,NA,NA,NA,NA,NA,NA,NA,NA,NA,NA
a346f,"""Falsch""-Screen",canvas.Screen,3_0_0_0_7_0_2,NA,NA,timeout,4999.226,392692.79999995,392676.707,392693.372,397675.906,397676.5,2023-01-20T17:12:23Z,397692.598,NULL,Lawine,banguko,d,NA,NA,NA,NA,sdf,0,0,NA,NA,NA,NA,NA,NA,NA,NA,NA,NA,NA,NA,NA,NA,NA,NA,NA,NA,NA
a346f,deep,flow.Sequence,3_0_0_0_7_0,NA,NA,completion,12381.369,385279.19999993,385277.901,385294.537,397675.906,397676.89999998,2023-01-20T17:12:23Z,397692.598,NULL,Lawine,banguko,d,NA,NA,NA,NA,sdf,NA,0,NA,NA,NA,NA,NA,NA,NA,NA,NA,NA,NA,NA,NA,NA,NA,NA,NA,NA,NA
a346f,shallow,flow.Sequence,3_0_0_0_7_1,NA,NA,skipped,NA,397677,NA,NA,397675.906,397677.10000002,2023-01-20T17:12:23Z,397692.598,NULL,Lawine,banguko,d,NA,NA,NA,NA,sdf,NA,0,NA,NA,NA,NA,NA,NA,NA,NA,NA,NA,NA,NA,NA,NA,NA,NA,NA,NA,NA
a346f,task,flow.Sequence,3_0_0_0_7,NA,NA,completion,12381.369,385279.19999993,385277.901,385294.537,397675.906,397677.29999995,2023-01-20T17:12:23Z,397692.598,NULL,Lawine,banguko,d,NA,NA,NA,NA,sdf,NA,0,NA,NA,NA,NA,NA,NA,NA,NA,NA,NA,NA,NA,NA,NA,NA,NA,NA,NA,NA
a346f,block,flow.Loop,3_0_0_0,NA,NA,completion,108001.374,289681.29999995,289558.53,289674.532,397675.906,397677.5,2023-01-20T17:12:23Z,397692.598,NULL,NA,NA,NA,NA,NA,NA,NA,sdf,NA,0,NA,NA,NA,NA,NA,NA,NA,NA,NA,NA,NA,NA,NA,NA,NA,NA,NA,NA,NA
a346f,weiter,canvas.Screen,3_0_0_1,sdf,keypress(Space),response,1724.1019999285,397677.60000002,397675.906,397692.598,399416.69999993,399419,2023-01-20T17:12:25Z,399442.331,NULL,NA,NA,NA,NA,NA,NA,NA,sdf,NA,0,NA,NA,NA,NA,NA,NA,NA,NA,NA,NA,NA,NA,NA,NA,NA,NA,NA,NA,NA
a346f,check continue,flow.Sequence,3_0_0,NA,NA,completion,109742.16799993,289681.19999993,289558.53,289674.532,399416.69999993,399419.19999993,2023-01-20T17:12:25Z,399442.331,NULL,NA,NA,NA,NA,NA,NA,NA,sdf,NA,0,NA,NA,NA,NA,NA,NA,NA,NA,NA,NA,NA,NA,NA,NA,NA,NA,NA,NA,NA
a346f,deep,flow.Sequence,3_0_1_0_0_0,NA,NA,skipped,NA,399455.19999993,NA,NA,399416.69999993,399455.29999995,2023-01-20T17:12:25Z,399442.331,NULL,Vorwurf,mashtaka,s,msukumo,mtangulizi,uenyekiti,NA,sdfdsf,NA,1,NA,NA,NA,NA,NA,NA,NA,NA,NA,NA,NA,NA,NA,NA,NA,NA,NA,NA,NA
a346f,Shallow Question,html.Page,3_0_1_0_0_1_0,NA,NA,form submission,5671.5689999762,399455.39999998,399409.102,399442.331,405113.89999998,405114.29999995,2023-01-20T17:12:31Z,405141.801,NULL,Vorwurf,mashtaka,s,msukumo,mtangulizi,uenyekiti,mashtaka,NA,NA,1,NA,NA,NA,NA,NA,NA,NA,NA,NA,NA,NA,NA,NA,NA,NA,NA,NA,NA,NA
a346f,"""Richtig""-Screen",canvas.Screen,3_0_1_0_0_1_1,NA,NA,timeout,4998.971,405116.60000002,405129.633,405141.801,410124.111,410124.89999998,2023-01-20T17:12:36Z,410140.772,NULL,Vorwurf,mashtaka,s,msukumo,mtangulizi,uenyekiti,NA,sdfdsf,1,1,NA,NA,NA,NA,NA,NA,NA,NA,NA,NA,NA,NA,NA,NA,NA,NA,NA,NA,NA
a346f,"""Falsch""-Screen",canvas.Screen,3_0_1_0_0_1_2,NA,NA,skipped,NA,410128,NA,NA,410124.111,410128.19999993,2023-01-20T17:12:36Z,410140.772,NULL,Vorwurf,mashtaka,s,msukumo,mtangulizi,uenyekiti,NA,sdfdsf,NA,1,NA,NA,NA,NA,NA,NA,NA,NA,NA,NA,NA,NA,NA,NA,NA,NA,NA,NA,NA
a346f,shallow,flow.Sequence,3_0_1_0_0_1,NA,NA,completion,10681.78,399455.39999998,399409.102,399442.331,410124.111,410128.5,2023-01-20T17:12:36Z,410140.772,NULL,Vorwurf,mashtaka,s,msukumo,mtangulizi,uenyekiti,NA,sdfdsf,NA,1,NA,NA,NA,NA,NA,NA,NA,NA,NA,NA,NA,NA,NA,NA,NA,NA,NA,NA,NA
a346f,task,flow.Sequence,3_0_1_0_0,NA,NA,completion,10681.78,399455.10000002,399409.102,399442.331,410124.111,410128.69999993,2023-01-20T17:12:36Z,410140.772,NULL,Vorwurf,mashtaka,s,msukumo,mtangulizi,uenyekiti,NA,sdfdsf,NA,1,NA,NA,NA,NA,NA,NA,NA,NA,NA,NA,NA,NA,NA,NA,NA,NA,NA,NA,NA
a346f,deep,flow.Sequence,3_0_1_0_1_0,NA,NA,skipped,NA,410128.89999998,NA,NA,410124.111,410129,2023-01-20T17:12:36Z,410140.772,NULL,Übersicht,kilindo,s,mgusano,chipukizi,kulinganisha,NA,sdfdsf,NA,1,NA,NA,NA,NA,NA,NA,NA,NA,NA,NA,NA,NA,NA,NA,NA,NA,NA,NA,NA
a346f,Shallow Question,html.Page,3_0_1_0_1_1_0,NA,NA,form submission,5021.5279999523,410129.10000002,410124.111,410140.772,415162.29999995,415162.5,2023-01-20T17:12:41Z,415173.548,NULL,Übersicht,kilindo,s,mgusano,chipukizi,kulinganisha,kilindo,NA,NA,1,NA,NA,NA,NA,NA,NA,NA,NA,NA,NA,NA,NA,NA,NA,NA,NA,NA,NA,NA
a346f,"""Richtig""-Screen",canvas.Screen,3_0_1_0_1_1_1,NA,NA,timeout,4999.227,415164.60000002,415156.838,415173.548,420156.077,420156.69999993,2023-01-20T17:12:46Z,420172.775,NULL,Übersicht,kilindo,s,mgusano,chipukizi,kulinganisha,NA,sdfdsf,1,1,NA,NA,NA,NA,NA,NA,NA,NA,NA,NA,NA,NA,NA,NA,NA,NA,NA,NA,NA
a346f,"""Falsch""-Screen",canvas.Screen,3_0_1_0_1_1_2,NA,NA,skipped,NA,420159.29999995,NA,NA,420156.077,420159.39999998,2023-01-20T17:12:46Z,420172.775,NULL,Übersicht,kilindo,s,mgusano,chipukizi,kulinganisha,NA,sdfdsf,NA,1,NA,NA,NA,NA,NA,NA,NA,NA,NA,NA,NA,NA,NA,NA,NA,NA,NA,NA,NA
a346f,shallow,flow.Sequence,3_0_1_0_1_1,NA,NA,completion,10015.305,410129.10000002,410124.111,410140.772,420156.077,420159.60000002,2023-01-20T17:12:46Z,420172.775,NULL,Übersicht,kilindo,s,mgusano,chipukizi,kulinganisha,NA,sdfdsf,NA,1,NA,NA,NA,NA,NA,NA,NA,NA,NA,NA,NA,NA,NA,NA,NA,NA,NA,NA,NA
a346f,task,flow.Sequence,3_0_1_0_1,NA,NA,completion,10015.305,410128.79999995,410124.111,410140.772,420156.077,420159.79999995,2023-01-20T17:12:46Z,420172.775,NULL,Übersicht,kilindo,s,mgusano,chipukizi,kulinganisha,NA,sdfdsf,NA,1,NA,NA,NA,NA,NA,NA,NA,NA,NA,NA,NA,NA,NA,NA,NA,NA,NA,NA,NA
a346f,deep,flow.Sequence,3_0_1_0_2_0,NA,NA,skipped,NA,420159.79999995,NA,NA,420156.077,420159.79999995,2023-01-20T17:12:46Z,420172.775,NULL,Entwicklung,maendeleo,s,uangavu,mshindwa,badiliko,NA,sdfdsf,NA,1,NA,NA,NA,NA,NA,NA,NA,NA,NA,NA,NA,NA,NA,NA,NA,NA,NA,NA,NA
a346f,Shallow Question,html.Page,3_0_1_0_2_1_0,NA,NA,form submission,6959.725,420160,420156.077,420172.775,427132.5,427132.79999995,2023-01-20T17:12:53Z,427138.396,NULL,Entwicklung,maendeleo,s,uangavu,mshindwa,badiliko,maendeleo,NA,NA,1,NA,NA,NA,NA,NA,NA,NA,NA,NA,NA,NA,NA,NA,NA,NA,NA,NA,NA,NA
a346f,"""Richtig""-Screen",canvas.Screen,3_0_1_0_2_1_1,NA,NA,timeout,4999.383,427134.79999995,427121.868,427138.396,432121.159,432121.79999995,2023-01-20T17:12:58Z,432137.779,NULL,Entwicklung,maendeleo,s,uangavu,mshindwa,badiliko,NA,sdfdsf,1,1,NA,NA,NA,NA,NA,NA,NA,NA,NA,NA,NA,NA,NA,NA,NA,NA,NA,NA,NA
a346f,"""Falsch""-Screen",canvas.Screen,3_0_1_0_2_1_2,NA,NA,skipped,NA,432124.19999993,NA,NA,432121.159,432124.29999995,2023-01-20T17:12:58Z,432137.779,NULL,Entwicklung,maendeleo,s,uangavu,mshindwa,badiliko,NA,sdfdsf,NA,1,NA,NA,NA,NA,NA,NA,NA,NA,NA,NA,NA,NA,NA,NA,NA,NA,NA,NA,NA
a346f,shallow,flow.Sequence,3_0_1_0_2_1,NA,NA,completion,11948.384,420160,420156.077,420172.775,432121.159,432124.5,2023-01-20T17:12:58Z,432137.779,NULL,Entwicklung,maendeleo,s,uangavu,mshindwa,badiliko,NA,sdfdsf,NA,1,NA,NA,NA,NA,NA,NA,NA,NA,NA,NA,NA,NA,NA,NA,NA,NA,NA,NA,NA
a346f,task,flow.Sequence,3_0_1_0_2,NA,NA,completion,11948.384,420159.79999995,420156.077,420172.775,432121.159,432124.60000002,2023-01-20T17:12:58Z,432137.779,NULL,Entwicklung,maendeleo,s,uangavu,mshindwa,badiliko,NA,sdfdsf,NA,1,NA,NA,NA,NA,NA,NA,NA,NA,NA,NA,NA,NA,NA,NA,NA,NA,NA,NA,NA
a346f,Deep Question,html.Page,3_0_1_0_3_0_0,NA,NA,form submission,8588.9209999285,432124.60000002,432121.159,432137.779,440726.69999993,440727,2023-01-20T17:13:06Z,440736.585,NULL,System,maongozi,d,NA,NA,NA,mashinko,NA,NA,1,NA,NA,NA,NA,NA,NA,NA,NA,NA,NA,NA,NA,NA,NA,NA,NA,NA,NA,NA
a346f,"""Richtig""-Screen",canvas.Screen,3_0_1_0_3_0_1,NA,NA,skipped,NA,440729.5,NA,NA,440726.69999993,440729.60000002,2023-01-20T17:13:06Z,440736.585,NULL,System,maongozi,d,NA,NA,NA,NA,sdfdsf,NA,1,NA,NA,NA,NA,NA,NA,NA,NA,NA,NA,NA,NA,NA,NA,NA,NA,NA,NA,NA
a346f,"""Falsch""-Screen",canvas.Screen,3_0_1_0_3_0_2,NA,NA,timeout,4999.358,440730.39999998,440719.846,440736.585,445719.243,445719.89999998,2023-01-20T17:13:11Z,445735.943,NULL,System,maongozi,d,NA,NA,NA,NA,sdfdsf,0,1,NA,NA,NA,NA,NA,NA,NA,NA,NA,NA,NA,NA,NA,NA,NA,NA,NA,NA,NA
a346f,deep,flow.Sequence,3_0_1_0_3_0,NA,NA,completion,13581.464,432124.60000002,432121.159,432137.779,445719.243,445720.19999993,2023-01-20T17:13:11Z,445735.943,NULL,System,maongozi,d,NA,NA,NA,NA,sdfdsf,NA,1,NA,NA,NA,NA,NA,NA,NA,NA,NA,NA,NA,NA,NA,NA,NA,NA,NA,NA,NA
a346f,shallow,flow.Sequence,3_0_1_0_3_1,NA,NA,skipped,NA,445720.29999995,NA,NA,445719.243,445720.39999998,2023-01-20T17:13:11Z,445735.943,NULL,System,maongozi,d,NA,NA,NA,NA,sdfdsf,NA,1,NA,NA,NA,NA,NA,NA,NA,NA,NA,NA,NA,NA,NA,NA,NA,NA,NA,NA,NA
a346f,task,flow.Sequence,3_0_1_0_3,NA,NA,completion,13581.464,432124.60000002,432121.159,432137.779,445719.243,445720.60000002,2023-01-20T17:13:11Z,445735.943,NULL,System,maongozi,d,NA,NA,NA,NA,sdfdsf,NA,1,NA,NA,NA,NA,NA,NA,NA,NA,NA,NA,NA,NA,NA,NA,NA,NA,NA,NA,NA
a346f,Deep Question,html.Page,3_0_1_0_4_0_0,NA,NA,form submission,8143.057,445720.69999993,445719.243,445735.943,453879,453879.19999993,2023-01-20T17:13:19Z,453884.67,NULL,Niveau,kiwango,d,NA,NA,NA,kilinii,NA,NA,1,NA,NA,NA,NA,NA,NA,NA,NA,NA,NA,NA,NA,NA,NA,NA,NA,NA,NA,NA
a346f,"""Richtig""-Screen",canvas.Screen,3_0_1_0_4_0_1,NA,NA,skipped,NA,453881.69999993,NA,NA,453879,453881.89999998,2023-01-20T17:13:19Z,453884.67,NULL,Niveau,kiwango,d,NA,NA,NA,NA,sdfdsf,NA,1,NA,NA,NA,NA,NA,NA,NA,NA,NA,NA,NA,NA,NA,NA,NA,NA,NA,NA,NA
a346f,"""Falsch""-Screen",canvas.Screen,3_0_1_0_4_0_2,NA,NA,timeout,4999.683,453882.60000002,453868.136,453884.67,458867.313,458868.10000002,2023-01-20T17:13:24Z,458884.353,NULL,Niveau,kiwango,d,NA,NA,NA,NA,sdfdsf,0,1,NA,NA,NA,NA,NA,NA,NA,NA,NA,NA,NA,NA,NA,NA,NA,NA,NA,NA,NA
a346f,deep,flow.Sequence,3_0_1_0_4_0,NA,NA,completion,13131.37,445720.69999993,445719.243,445735.943,458867.313,458868.39999998,2023-01-20T17:13:24Z,458884.353,NULL,Niveau,kiwango,d,NA,NA,NA,NA,sdfdsf,NA,1,NA,NA,NA,NA,NA,NA,NA,NA,NA,NA,NA,NA,NA,NA,NA,NA,NA,NA,NA
a346f,shallow,flow.Sequence,3_0_1_0_4_1,NA,NA,skipped,NA,458868.39999998,NA,NA,458867.313,458868.60000002,2023-01-20T17:13:24Z,458884.353,NULL,Niveau,kiwango,d,NA,NA,NA,NA,sdfdsf,NA,1,NA,NA,NA,NA,NA,NA,NA,NA,NA,NA,NA,NA,NA,NA,NA,NA,NA,NA,NA
a346f,task,flow.Sequence,3_0_1_0_4,NA,NA,completion,13131.37,445720.60000002,445719.243,445735.943,458867.313,458868.69999993,2023-01-20T17:13:24Z,458884.353,NULL,Niveau,kiwango,d,NA,NA,NA,NA,sdfdsf,NA,1,NA,NA,NA,NA,NA,NA,NA,NA,NA,NA,NA,NA,NA,NA,NA,NA,NA,NA,NA
a346f,deep,flow.Sequence,3_0_1_0_5_0,NA,NA,skipped,NA,458868.79999995,NA,NA,458867.313,458868.79999995,2023-01-20T17:13:24Z,458884.353,NULL,Körper,kiwiliwili,s,mapambano,mpatanishi,kiolezo,NA,sdfdsf,NA,1,NA,NA,NA,NA,NA,NA,NA,NA,NA,NA,NA,NA,NA,NA,NA,NA,NA,NA,NA
a346f,Shallow Question,html.Page,3_0_1_0_5_1_0,NA,NA,form submission,3360.4469999523,458868.89999998,458867.313,458884.353,462244.79999995,462245.10000002,2023-01-20T17:13:28Z,462250.129,NULL,Körper,kiwiliwili,s,mapambano,mpatanishi,kiolezo,kiwiliwili,NA,NA,1,NA,NA,NA,NA,NA,NA,NA,NA,NA,NA,NA,NA,NA,NA,NA,NA,NA,NA,NA
a346f,"""Richtig""-Screen",canvas.Screen,3_0_1_0_5_1_1,NA,NA,timeout,4999.413,462247.5,462233.61,462250.129,467232.906,467233.5,2023-01-20T17:13:33Z,467249.542,NULL,Körper,kiwiliwili,s,mapambano,mpatanishi,kiolezo,NA,sdfdsf,1,1,NA,NA,NA,NA,NA,NA,NA,NA,NA,NA,NA,NA,NA,NA,NA,NA,NA,NA,NA
a346f,"""Falsch""-Screen",canvas.Screen,3_0_1_0_5_1_2,NA,NA,skipped,NA,467236,NA,NA,467232.906,467236.10000002,2023-01-20T17:13:33Z,467249.542,NULL,Körper,kiwiliwili,s,mapambano,mpatanishi,kiolezo,NA,sdfdsf,NA,1,NA,NA,NA,NA,NA,NA,NA,NA,NA,NA,NA,NA,NA,NA,NA,NA,NA,NA,NA
a346f,shallow,flow.Sequence,3_0_1_0_5_1,NA,NA,completion,8348.553,458868.89999998,458867.313,458884.353,467232.906,467236.29999995,2023-01-20T17:13:33Z,467249.542,NULL,Körper,kiwiliwili,s,mapambano,mpatanishi,kiolezo,NA,sdfdsf,NA,1,NA,NA,NA,NA,NA,NA,NA,NA,NA,NA,NA,NA,NA,NA,NA,NA,NA,NA,NA
a346f,task,flow.Sequence,3_0_1_0_5,NA,NA,completion,8348.553,458868.79999995,458867.313,458884.353,467232.906,467236.39999998,2023-01-20T17:13:33Z,467249.542,NULL,Körper,kiwiliwili,s,mapambano,mpatanishi,kiolezo,NA,sdfdsf,NA,1,NA,NA,NA,NA,NA,NA,NA,NA,NA,NA,NA,NA,NA,NA,NA,NA,NA,NA,NA
a346f,Deep Question,html.Page,3_0_1_0_6_0_0,NA,NA,form submission,7697.5580000238,467236.60000002,467232.906,467249.542,474947.10000002,474947.39999998,2023-01-20T17:13:41Z,474948.39,NULL,Papier,karatasi,d,NA,NA,NA,nuguluu,NA,NA,1,NA,NA,NA,NA,NA,NA,NA,NA,NA,NA,NA,NA,NA,NA,NA,NA,NA,NA,NA
a346f,"""Richtig""-Screen",canvas.Screen,3_0_1_0_6_0_1,NA,NA,skipped,NA,474949.79999995,NA,NA,474947.10000002,474950,2023-01-20T17:13:41Z,474948.39,NULL,Papier,karatasi,d,NA,NA,NA,NA,sdfdsf,NA,1,NA,NA,NA,NA,NA,NA,NA,NA,NA,NA,NA,NA,NA,NA,NA,NA,NA,NA,NA
a346f,"""Falsch""-Screen",canvas.Screen,3_0_1_0_6_0_2,NA,NA,timeout,4999.379,474950.69999993,474931.828,474948.39,479931.125,479931.79999995,2023-01-20T17:13:46Z,479947.769,NULL,Papier,karatasi,d,NA,NA,NA,NA,sdfdsf,0,1,NA,NA,NA,NA,NA,NA,NA,NA,NA,NA,NA,NA,NA,NA,NA,NA,NA,NA,NA
a346f,deep,flow.Sequence,3_0_1_0_6_0,NA,NA,completion,12681.583,467236.60000002,467232.906,467249.542,479931.125,479932.10000002,2023-01-20T17:13:46Z,479947.769,NULL,Papier,karatasi,d,NA,NA,NA,NA,sdfdsf,NA,1,NA,NA,NA,NA,NA,NA,NA,NA,NA,NA,NA,NA,NA,NA,NA,NA,NA,NA,NA
a346f,shallow,flow.Sequence,3_0_1_0_6_1,NA,NA,skipped,NA,479932.10000002,NA,NA,479931.125,479932.29999995,2023-01-20T17:13:46Z,479947.769,NULL,Papier,karatasi,d,NA,NA,NA,NA,sdfdsf,NA,1,NA,NA,NA,NA,NA,NA,NA,NA,NA,NA,NA,NA,NA,NA,NA,NA,NA,NA,NA
a346f,task,flow.Sequence,3_0_1_0_6,NA,NA,completion,12681.583,467236.60000002,467232.906,467249.542,479931.125,479932.29999995,2023-01-20T17:13:46Z,479947.769,NULL,Papier,karatasi,d,NA,NA,NA,NA,sdfdsf,NA,1,NA,NA,NA,NA,NA,NA,NA,NA,NA,NA,NA,NA,NA,NA,NA,NA,NA,NA,NA
a346f,Deep Question,html.Page,3_0_1_0_7_0_0,NA,NA,form submission,15241.630999976,479932.5,479931.125,479947.769,495189.39999998,495189.69999993,2023-01-20T17:14:01Z,495195.545,NULL,Lawine,banguko,d,NA,NA,NA,kantasi,NA,NA,1,NA,NA,NA,NA,NA,NA,NA,NA,NA,NA,NA,NA,NA,NA,NA,NA,NA,NA,NA
a346f,"""Richtig""-Screen",canvas.Screen,3_0_1_0_7_0_1,NA,NA,skipped,NA,495192.19999993,NA,NA,495189.39999998,495192.29999995,2023-01-20T17:14:01Z,495195.545,NULL,Lawine,banguko,d,NA,NA,NA,NA,sdfdsf,NA,1,NA,NA,NA,NA,NA,NA,NA,NA,NA,NA,NA,NA,NA,NA,NA,NA,NA,NA,NA
a346f,"""Falsch""-Screen",canvas.Screen,3_0_1_0_7_0_2,NA,NA,timeout,4999.284,495193,495179.011,495195.545,500178.283,500178.89999998,2023-01-20T17:14:06Z,500194.829,NULL,Lawine,banguko,d,NA,NA,NA,NA,sdfdsf,0,1,NA,NA,NA,NA,NA,NA,NA,NA,NA,NA,NA,NA,NA,NA,NA,NA,NA,NA,NA
a346f,deep,flow.Sequence,3_0_1_0_7_0,NA,NA,completion,20230.514,479932.5,479931.125,479947.769,500178.283,500179.19999993,2023-01-20T17:14:06Z,500194.829,NULL,Lawine,banguko,d,NA,NA,NA,NA,sdfdsf,NA,1,NA,NA,NA,NA,NA,NA,NA,NA,NA,NA,NA,NA,NA,NA,NA,NA,NA,NA,NA
a346f,shallow,flow.Sequence,3_0_1_0_7_1,NA,NA,skipped,NA,500179.29999995,NA,NA,500178.283,500179.39999998,2023-01-20T17:14:06Z,500194.829,NULL,Lawine,banguko,d,NA,NA,NA,NA,sdfdsf,NA,1,NA,NA,NA,NA,NA,NA,NA,NA,NA,NA,NA,NA,NA,NA,NA,NA,NA,NA,NA
a346f,task,flow.Sequence,3_0_1_0_7,NA,NA,completion,20230.514,479932.5,479931.125,479947.769,500178.283,500179.60000002,2023-01-20T17:14:06Z,500194.829,NULL,Lawine,banguko,d,NA,NA,NA,NA,sdfdsf,NA,1,NA,NA,NA,NA,NA,NA,NA,NA,NA,NA,NA,NA,NA,NA,NA,NA,NA,NA,NA
a346f,block,flow.Loop,3_0_1_0,NA,NA,completion,100735.952,399455.10000002,399409.102,399442.331,500178.283,500179.69999993,2023-01-20T17:14:06Z,500194.829,NULL,NA,NA,NA,NA,NA,NA,NA,sdfdsf,NA,1,NA,NA,NA,NA,NA,NA,NA,NA,NA,NA,NA,NA,NA,NA,NA,NA,NA,NA,NA
a346f,weiter,canvas.Screen,3_0_1_1,sdf,keypress(Space),response,790.47099995229,500179.79999995,500178.283,500194.829,500985.29999995,500987.60000002,2023-01-20T17:14:07Z,501011.386,NULL,NA,NA,NA,NA,NA,NA,NA,sdfdsf,NA,1,NA,NA,NA,NA,NA,NA,NA,NA,NA,NA,NA,NA,NA,NA,NA,NA,NA,NA,NA
a346f,check continue,flow.Sequence,3_0_1,NA,NA,completion,101542.96899995,399455.10000002,399409.102,399442.331,500985.29999995,500987.79999995,2023-01-20T17:14:07Z,501011.386,NULL,NA,NA,NA,NA,NA,NA,NA,sdfdsf,NA,1,NA,NA,NA,NA,NA,NA,NA,NA,NA,NA,NA,NA,NA,NA,NA,NA,NA,NA,NA
a346f,deep,flow.Sequence,3_0_2_0_0_0,NA,NA,skipped,NA,501024.79999995,NA,NA,500985.29999995,501025,2023-01-20T17:14:07Z,501011.386,NULL,Körper,kiwiliwili,s,mapambano,mpatanishi,kiolezo,NA,sdf,NA,2,NA,NA,NA,NA,NA,NA,NA,NA,NA,NA,NA,NA,NA,NA,NA,NA,NA,NA,NA
a346f,Shallow Question,html.Page,3_0_2_0_0_1_0,NA,NA,form submission,4450.3139999285,501025.10000002,500978.178,501011.386,505461.69999993,505461.89999998,2023-01-20T17:14:11Z,505494.12,NULL,Körper,kiwiliwili,s,mapambano,mpatanishi,kiolezo,kiwiliwili,NA,NA,2,NA,NA,NA,NA,NA,NA,NA,NA,NA,NA,NA,NA,NA,NA,NA,NA,NA,NA,NA
a346f,"""Richtig""-Screen",canvas.Screen,3_0_2_0_0_1_1,NA,NA,timeout,4999.274,505463.79999995,505477.517,505494.12,510476.764,510477.5,2023-01-20T17:14:16Z,510493.394,NULL,Körper,kiwiliwili,s,mapambano,mpatanishi,kiolezo,NA,sdf,1,2,NA,NA,NA,NA,NA,NA,NA,NA,NA,NA,NA,NA,NA,NA,NA,NA,NA,NA,NA
a346f,"""Falsch""-Screen",canvas.Screen,3_0_2_0_0_1_2,NA,NA,skipped,NA,510479.79999995,NA,NA,510476.764,510480.10000002,2023-01-20T17:14:16Z,510493.394,NULL,Körper,kiwiliwili,s,mapambano,mpatanishi,kiolezo,NA,sdf,NA,2,NA,NA,NA,NA,NA,NA,NA,NA,NA,NA,NA,NA,NA,NA,NA,NA,NA,NA,NA
a346f,shallow,flow.Sequence,3_0_2_0_0_1,NA,NA,completion,9465.378,501025.10000002,500978.178,501011.386,510476.764,510480.29999995,2023-01-20T17:14:16Z,510493.394,NULL,Körper,kiwiliwili,s,mapambano,mpatanishi,kiolezo,NA,sdf,NA,2,NA,NA,NA,NA,NA,NA,NA,NA,NA,NA,NA,NA,NA,NA,NA,NA,NA,NA,NA
a346f,task,flow.Sequence,3_0_2_0_0,NA,NA,completion,9465.378,501024.79999995,500978.178,501011.386,510476.764,510480.29999995,2023-01-20T17:14:16Z,510493.394,NULL,Körper,kiwiliwili,s,mapambano,mpatanishi,kiolezo,NA,sdf,NA,2,NA,NA,NA,NA,NA,NA,NA,NA,NA,NA,NA,NA,NA,NA,NA,NA,NA,NA,NA
a346f,deep,flow.Sequence,3_0_2_0_1_0,NA,NA,skipped,NA,510480.39999998,NA,NA,510476.764,510480.5,2023-01-20T17:14:16Z,510493.394,NULL,Vorwurf,mashtaka,s,msukumo,mtangulizi,uenyekiti,NA,sdf,NA,2,NA,NA,NA,NA,NA,NA,NA,NA,NA,NA,NA,NA,NA,NA,NA,NA,NA,NA,NA
a346f,Shallow Question,html.Page,3_0_2_0_1_1_0,NA,NA,form submission,6660.106,510480.5,510476.764,510493.394,517153.5,517153.89999998,2023-01-20T17:14:23Z,517159.126,NULL,Vorwurf,mashtaka,s,msukumo,mtangulizi,uenyekiti,mashtaka,NA,NA,2,NA,NA,NA,NA,NA,NA,NA,NA,NA,NA,NA,NA,NA,NA,NA,NA,NA,NA,NA
a346f,"""Richtig""-Screen",canvas.Screen,3_0_2_0_1_1_1,NA,NA,timeout,4999.416,517155.89999998,517142.57,517159.126,522141.869,522142.5,2023-01-20T17:14:28Z,522158.542,NULL,Vorwurf,mashtaka,s,msukumo,mtangulizi,uenyekiti,NA,sdf,1,2,NA,NA,NA,NA,NA,NA,NA,NA,NA,NA,NA,NA,NA,NA,NA,NA,NA,NA,NA
a346f,"""Falsch""-Screen",canvas.Screen,3_0_2_0_1_1_2,NA,NA,skipped,NA,522145.89999998,NA,NA,522141.869,522146.10000002,2023-01-20T17:14:28Z,522158.542,NULL,Vorwurf,mashtaka,s,msukumo,mtangulizi,uenyekiti,NA,sdf,NA,2,NA,NA,NA,NA,NA,NA,NA,NA,NA,NA,NA,NA,NA,NA,NA,NA,NA,NA,NA
a346f,shallow,flow.Sequence,3_0_2_0_1_1,NA,NA,completion,11648.475,510480.5,510476.764,510493.394,522141.869,522146.29999995,2023-01-20T17:14:28Z,522158.542,NULL,Vorwurf,mashtaka,s,msukumo,mtangulizi,uenyekiti,NA,sdf,NA,2,NA,NA,NA,NA,NA,NA,NA,NA,NA,NA,NA,NA,NA,NA,NA,NA,NA,NA,NA
a346f,task,flow.Sequence,3_0_2_0_1,NA,NA,completion,11648.475,510480.39999998,510476.764,510493.394,522141.869,522146.39999998,2023-01-20T17:14:28Z,522158.542,NULL,Vorwurf,mashtaka,s,msukumo,mtangulizi,uenyekiti,NA,sdf,NA,2,NA,NA,NA,NA,NA,NA,NA,NA,NA,NA,NA,NA,NA,NA,NA,NA,NA,NA,NA
a346f,Deep Question,html.Page,3_0_2_0_2_0_0,NA,NA,form submission,14427.257999952,522146.5,522141.869,522158.542,536585.79999995,536586,2023-01-20T17:14:42Z,536589.734,NULL,System,maongozi,d,NA,NA,NA,kuwuli,NA,NA,2,NA,NA,NA,NA,NA,NA,NA,NA,NA,NA,NA,NA,NA,NA,NA,NA,NA,NA,NA
a346f,"""Richtig""-Screen",canvas.Screen,3_0_2_0_2_0_1,NA,NA,skipped,NA,536588.10000002,NA,NA,536585.79999995,536588.29999995,2023-01-20T17:14:42Z,536589.734,NULL,System,maongozi,d,NA,NA,NA,NA,sdf,NA,2,NA,NA,NA,NA,NA,NA,NA,NA,NA,NA,NA,NA,NA,NA,NA,NA,NA,NA,NA
a346f,"""Falsch""-Screen",canvas.Screen,3_0_2_0_2_0_2,NA,NA,timeout,4999.37,536589,536573.177,536589.734,541572.456,541573.10000002,2023-01-20T17:14:47Z,541589.104,NULL,System,maongozi,d,NA,NA,NA,NA,sdf,0,2,NA,NA,NA,NA,NA,NA,NA,NA,NA,NA,NA,NA,NA,NA,NA,NA,NA,NA,NA
a346f,deep,flow.Sequence,3_0_2_0_2_0,NA,NA,completion,19413.914,522146.5,522141.869,522158.542,541572.456,541573.39999998,2023-01-20T17:14:47Z,541589.104,NULL,System,maongozi,d,NA,NA,NA,NA,sdf,NA,2,NA,NA,NA,NA,NA,NA,NA,NA,NA,NA,NA,NA,NA,NA,NA,NA,NA,NA,NA
a346f,shallow,flow.Sequence,3_0_2_0_2_1,NA,NA,skipped,NA,541573.5,NA,NA,541572.456,541573.60000002,2023-01-20T17:14:47Z,541589.104,NULL,System,maongozi,d,NA,NA,NA,NA,sdf,NA,2,NA,NA,NA,NA,NA,NA,NA,NA,NA,NA,NA,NA,NA,NA,NA,NA,NA,NA,NA
a346f,task,flow.Sequence,3_0_2_0_2,NA,NA,completion,19413.914,522146.5,522141.869,522158.542,541572.456,541573.79999995,2023-01-20T17:14:47Z,541589.104,NULL,System,maongozi,d,NA,NA,NA,NA,sdf,NA,2,NA,NA,NA,NA,NA,NA,NA,NA,NA,NA,NA,NA,NA,NA,NA,NA,NA,NA,NA
a346f,Deep Question,html.Page,3_0_2_0_3_0_0,NA,NA,form submission,15122.795999976,541573.89999998,541572.456,541589.104,556711.89999998,556712.10000002,2023-01-20T17:15:02Z,556720.309,NULL,Lawine,banguko,d,NA,NA,NA,muengo,NA,NA,2,NA,NA,NA,NA,NA,NA,NA,NA,NA,NA,NA,NA,NA,NA,NA,NA,NA,NA,NA
a346f,"""Richtig""-Screen",canvas.Screen,3_0_2_0_3_0_1,NA,NA,skipped,NA,556714.29999995,NA,NA,556711.89999998,556714.5,2023-01-20T17:15:02Z,556720.309,NULL,Lawine,banguko,d,NA,NA,NA,NA,sdf,NA,2,NA,NA,NA,NA,NA,NA,NA,NA,NA,NA,NA,NA,NA,NA,NA,NA,NA,NA,NA
a346f,"""Falsch""-Screen",canvas.Screen,3_0_2_0_3_0_2,NA,NA,timeout,4999.309,556715.29999995,556703.662,556720.309,561702.905,561703.60000002,2023-01-20T17:15:07Z,561719.618,NULL,Lawine,banguko,d,NA,NA,NA,NA,sdf,0,2,NA,NA,NA,NA,NA,NA,NA,NA,NA,NA,NA,NA,NA,NA,NA,NA,NA,NA,NA
a346f,deep,flow.Sequence,3_0_2_0_3_0,NA,NA,completion,20113.801,541573.79999995,541572.456,541589.104,561702.905,561703.79999995,2023-01-20T17:15:07Z,561719.618,NULL,Lawine,banguko,d,NA,NA,NA,NA,sdf,NA,2,NA,NA,NA,NA,NA,NA,NA,NA,NA,NA,NA,NA,NA,NA,NA,NA,NA,NA,NA
a346f,shallow,flow.Sequence,3_0_2_0_3_1,NA,NA,skipped,NA,561703.89999998,NA,NA,561702.905,561704.10000002,2023-01-20T17:15:07Z,561719.618,NULL,Lawine,banguko,d,NA,NA,NA,NA,sdf,NA,2,NA,NA,NA,NA,NA,NA,NA,NA,NA,NA,NA,NA,NA,NA,NA,NA,NA,NA,NA
a346f,task,flow.Sequence,3_0_2_0_3,NA,NA,completion,20113.801,541573.79999995,541572.456,541589.104,561702.905,561704.10000002,2023-01-20T17:15:07Z,561719.618,NULL,Lawine,banguko,d,NA,NA,NA,NA,sdf,NA,2,NA,NA,NA,NA,NA,NA,NA,NA,NA,NA,NA,NA,NA,NA,NA,NA,NA,NA,NA
a346f,deep,flow.Sequence,3_0_2_0_4_0,NA,NA,skipped,NA,561704.19999993,NA,NA,561702.905,561704.29999995,2023-01-20T17:15:07Z,561719.618,NULL,Entwicklung,maendeleo,s,uangavu,mshindwa,badiliko,NA,sdf,NA,2,NA,NA,NA,NA,NA,NA,NA,NA,NA,NA,NA,NA,NA,NA,NA,NA,NA,NA,NA
a346f,Shallow Question,html.Page,3_0_2_0_4_1_0,NA,NA,form submission,6424.7819999761,561704.39999998,561702.905,561719.618,568144.39999998,568144.69999993,2023-01-20T17:15:14Z,568152.048,NULL,Entwicklung,maendeleo,s,uangavu,mshindwa,badiliko,maendeleo,NA,NA,2,NA,NA,NA,NA,NA,NA,NA,NA,NA,NA,NA,NA,NA,NA,NA,NA,NA,NA,NA
a346f,"""Richtig""-Screen",canvas.Screen,3_0_2_0_4_1_1,NA,NA,timeout,4999.3400000001,568147,568135.479,568152.048,573134.747,573135.39999998,2023-01-20T17:15:19Z,573151.388,NULL,Entwicklung,maendeleo,s,uangavu,mshindwa,badiliko,NA,sdf,1,2,NA,NA,NA,NA,NA,NA,NA,NA,NA,NA,NA,NA,NA,NA,NA,NA,NA,NA,NA
a346f,"""Falsch""-Screen",canvas.Screen,3_0_2_0_4_1_2,NA,NA,skipped,NA,573138,NA,NA,573134.747,573138.10000002,2023-01-20T17:15:19Z,573151.388,NULL,Entwicklung,maendeleo,s,uangavu,mshindwa,badiliko,NA,sdf,NA,2,NA,NA,NA,NA,NA,NA,NA,NA,NA,NA,NA,NA,NA,NA,NA,NA,NA,NA,NA
a346f,shallow,flow.Sequence,3_0_2_0_4_1,NA,NA,completion,11415.129,561704.39999998,561702.905,561719.618,573134.747,573138.29999995,2023-01-20T17:15:19Z,573151.388,NULL,Entwicklung,maendeleo,s,uangavu,mshindwa,badiliko,NA,sdf,NA,2,NA,NA,NA,NA,NA,NA,NA,NA,NA,NA,NA,NA,NA,NA,NA,NA,NA,NA,NA
a346f,task,flow.Sequence,3_0_2_0_4,NA,NA,completion,11415.129,561704.19999993,561702.905,561719.618,573134.747,573138.39999998,2023-01-20T17:15:19Z,573151.388,NULL,Entwicklung,maendeleo,s,uangavu,mshindwa,badiliko,NA,sdf,NA,2,NA,NA,NA,NA,NA,NA,NA,NA,NA,NA,NA,NA,NA,NA,NA,NA,NA,NA,NA
a346f,Deep Question,html.Page,3_0_2_0_5_0_0,NA,NA,form submission,7655.0119999761,573138.5,573134.747,573151.388,580806.39999998,580806.69999993,2023-01-20T17:15:26Z,580817.115,NULL,Niveau,kiwango,d,NA,NA,NA,banguko,NA,NA,2,NA,NA,NA,NA,NA,NA,NA,NA,NA,NA,NA,NA,NA,NA,NA,NA,NA,NA,NA
a346f,"""Richtig""-Screen",canvas.Screen,3_0_2_0_5_0_1,NA,NA,skipped,NA,580808.69999993,NA,NA,580806.39999998,580808.89999998,2023-01-20T17:15:26Z,580817.115,NULL,Niveau,kiwango,d,NA,NA,NA,NA,sdf,NA,2,NA,NA,NA,NA,NA,NA,NA,NA,NA,NA,NA,NA,NA,NA,NA,NA,NA,NA,NA
a346f,"""Falsch""-Screen",canvas.Screen,3_0_2_0_5_0_2,NA,NA,timeout,4999.138,580809.60000002,580800.239,580817.115,585799.61,585800.39999998,2023-01-20T17:15:31Z,585816.253,NULL,Niveau,kiwango,d,NA,NA,NA,NA,sdf,0,2,NA,NA,NA,NA,NA,NA,NA,NA,NA,NA,NA,NA,NA,NA,NA,NA,NA,NA,NA
a346f,deep,flow.Sequence,3_0_2_0_5_0,NA,NA,completion,12648.222,573138.5,573134.747,573151.388,585799.61,585800.69999993,2023-01-20T17:15:31Z,585816.253,NULL,Niveau,kiwango,d,NA,NA,NA,NA,sdf,NA,2,NA,NA,NA,NA,NA,NA,NA,NA,NA,NA,NA,NA,NA,NA,NA,NA,NA,NA,NA
a346f,shallow,flow.Sequence,3_0_2_0_5_1,NA,NA,skipped,NA,585800.69999993,NA,NA,585799.61,585800.79999995,2023-01-20T17:15:31Z,585816.253,NULL,Niveau,kiwango,d,NA,NA,NA,NA,sdf,NA,2,NA,NA,NA,NA,NA,NA,NA,NA,NA,NA,NA,NA,NA,NA,NA,NA,NA,NA,NA
a346f,task,flow.Sequence,3_0_2_0_5,NA,NA,completion,12648.222,573138.39999998,573134.747,573151.388,585799.61,585801,2023-01-20T17:15:31Z,585816.253,NULL,Niveau,kiwango,d,NA,NA,NA,NA,sdf,NA,2,NA,NA,NA,NA,NA,NA,NA,NA,NA,NA,NA,NA,NA,NA,NA,NA,NA,NA,NA
a346f,deep,flow.Sequence,3_0_2_0_6_0,NA,NA,skipped,NA,585801,NA,NA,585799.61,585801.10000002,2023-01-20T17:15:31Z,585816.253,NULL,Übersicht,kilindo,s,mgusano,chipukizi,kulinganisha,NA,sdf,NA,2,NA,NA,NA,NA,NA,NA,NA,NA,NA,NA,NA,NA,NA,NA,NA,NA,NA,NA,NA
a346f,Shallow Question,html.Page,3_0_2_0_6_1_0,NA,NA,form submission,10094.847000024,585801.19999993,585799.61,585816.253,595911.10000002,595911.39999998,2023-01-20T17:15:41Z,595914.789,NULL,Übersicht,kilindo,s,mgusano,chipukizi,kulinganisha,kilindo,NA,NA,2,NA,NA,NA,NA,NA,NA,NA,NA,NA,NA,NA,NA,NA,NA,NA,NA,NA,NA,NA
a346f,"""Richtig""-Screen",canvas.Screen,3_0_2_0_6_1_1,NA,NA,timeout,4999.377,595915.5,595898.141,595914.789,600897.524,600898.10000002,2023-01-20T17:15:46Z,600914.166,NULL,Übersicht,kilindo,s,mgusano,chipukizi,kulinganisha,NA,sdf,1,2,NA,NA,NA,NA,NA,NA,NA,NA,NA,NA,NA,NA,NA,NA,NA,NA,NA,NA,NA
a346f,"""Falsch""-Screen",canvas.Screen,3_0_2_0_6_1_2,NA,NA,skipped,NA,600900.39999998,NA,NA,600897.524,600900.5,2023-01-20T17:15:46Z,600914.166,NULL,Übersicht,kilindo,s,mgusano,chipukizi,kulinganisha,NA,sdf,NA,2,NA,NA,NA,NA,NA,NA,NA,NA,NA,NA,NA,NA,NA,NA,NA,NA,NA,NA,NA
a346f,shallow,flow.Sequence,3_0_2_0_6_1,NA,NA,completion,15081.271,585801.19999993,585799.61,585816.253,600897.524,600900.60000002,2023-01-20T17:15:46Z,600914.166,NULL,Übersicht,kilindo,s,mgusano,chipukizi,kulinganisha,NA,sdf,NA,2,NA,NA,NA,NA,NA,NA,NA,NA,NA,NA,NA,NA,NA,NA,NA,NA,NA,NA,NA
a346f,task,flow.Sequence,3_0_2_0_6,NA,NA,completion,15081.271,585801,585799.61,585816.253,600897.524,600900.79999995,2023-01-20T17:15:46Z,600914.166,NULL,Übersicht,kilindo,s,mgusano,chipukizi,kulinganisha,NA,sdf,NA,2,NA,NA,NA,NA,NA,NA,NA,NA,NA,NA,NA,NA,NA,NA,NA,NA,NA,NA,NA
a346f,Deep Question,html.Page,3_0_2_0_7_0_0,NA,NA,form submission,4914.5339999285,600900.89999998,600897.524,600914.166,605828.69999993,605828.89999998,2023-01-20T17:15:51Z,605830.096,NULL,Papier,karatasi,d,NA,NA,NA,manguko,NA,NA,2,NA,NA,NA,NA,NA,NA,NA,NA,NA,NA,NA,NA,NA,NA,NA,NA,NA,NA,NA
a346f,"""Richtig""-Screen",canvas.Screen,3_0_2_0_7_0_1,NA,NA,skipped,NA,605831.39999998,NA,NA,605828.69999993,605831.60000002,2023-01-20T17:15:51Z,605830.096,NULL,Papier,karatasi,d,NA,NA,NA,NA,sdf,NA,2,NA,NA,NA,NA,NA,NA,NA,NA,NA,NA,NA,NA,NA,NA,NA,NA,NA,NA,NA
a346f,"""Falsch""-Screen",canvas.Screen,3_0_2_0_7_0_2,NA,NA,timeout,4999.257,605832.29999995,605813.503,605830.096,610812.714,610813.29999995,2023-01-20T17:15:56Z,610829.353,NULL,Papier,karatasi,d,NA,NA,NA,NA,sdf,0,2,NA,NA,NA,NA,NA,NA,NA,NA,NA,NA,NA,NA,NA,NA,NA,NA,NA,NA,NA
a346f,deep,flow.Sequence,3_0_2_0_7_0,NA,NA,completion,9898.5480000001,600900.89999998,600897.524,600914.166,610812.714,610813.60000002,2023-01-20T17:15:56Z,610829.353,NULL,Papier,karatasi,d,NA,NA,NA,NA,sdf,NA,2,NA,NA,NA,NA,NA,NA,NA,NA,NA,NA,NA,NA,NA,NA,NA,NA,NA,NA,NA
a346f,shallow,flow.Sequence,3_0_2_0_7_1,NA,NA,skipped,NA,610813.69999993,NA,NA,610812.714,610813.79999995,2023-01-20T17:15:56Z,610829.353,NULL,Papier,karatasi,d,NA,NA,NA,NA,sdf,NA,2,NA,NA,NA,NA,NA,NA,NA,NA,NA,NA,NA,NA,NA,NA,NA,NA,NA,NA,NA
a346f,task,flow.Sequence,3_0_2_0_7,NA,NA,completion,9898.5480000001,600900.79999995,600897.524,600914.166,610812.714,610814,2023-01-20T17:15:56Z,610829.353,NULL,Papier,karatasi,d,NA,NA,NA,NA,sdf,NA,2,NA,NA,NA,NA,NA,NA,NA,NA,NA,NA,NA,NA,NA,NA,NA,NA,NA,NA,NA
a346f,block,flow.Loop,3_0_2_0,NA,NA,completion,109801.328,501024.79999995,500978.178,501011.386,610812.714,610814.10000002,2023-01-20T17:15:56Z,610829.353,NULL,NA,NA,NA,NA,NA,NA,NA,sdf,NA,2,NA,NA,NA,NA,NA,NA,NA,NA,NA,NA,NA,NA,NA,NA,NA,NA,NA,NA,NA
a346f,weiter,canvas.Screen,3_0_2_1,sdf,keypress(Space),response,1192.5469999762,610814.10000002,610812.714,610829.353,612021.89999998,612024.29999995,2023-01-20T17:15:58Z,612062.522,NULL,NA,NA,NA,NA,NA,NA,NA,sdf,NA,2,NA,NA,NA,NA,NA,NA,NA,NA,NA,NA,NA,NA,NA,NA,NA,NA,NA,NA,NA
a346f,check continue,flow.Sequence,3_0_2,NA,NA,completion,111010.51399998,501024.69999993,500978.178,501011.386,612021.89999998,612024.39999998,2023-01-20T17:15:58Z,612062.522,NULL,NA,NA,NA,NA,NA,NA,NA,sdf,NA,2,NA,NA,NA,NA,NA,NA,NA,NA,NA,NA,NA,NA,NA,NA,NA,NA,NA,NA,NA
a346f,Deep Question,html.Page,3_0_3_0_0_0_0,NA,NA,form submission,11892.277999952,612063.60000002,612012.645,612062.522,623954.79999995,623955.10000002,2023-01-20T17:16:10Z,623977.645,NULL,Niveau,kiwango,d,NA,NA,NA,manguko,NA,NA,3,NA,NA,NA,NA,NA,NA,NA,NA,NA,NA,NA,NA,NA,NA,NA,NA,NA,NA,NA
a346f,"""Richtig""-Screen",canvas.Screen,3_0_3_0_0_0_1,NA,NA,skipped,NA,623957.5,NA,NA,623954.79999995,623957.69999993,2023-01-20T17:16:10Z,623977.645,NULL,Niveau,kiwango,d,NA,NA,NA,NA,qt,NA,3,NA,NA,NA,NA,NA,NA,NA,NA,NA,NA,NA,NA,NA,NA,NA,NA,NA,NA,NA
a346f,"""Falsch""-Screen",canvas.Screen,3_0_3_0_0_0_2,NA,NA,timeout,4999.225,623958.60000002,623960.909,623977.645,628960.281,628960.79999995,2023-01-20T17:16:15Z,628976.87,NULL,Niveau,kiwango,d,NA,NA,NA,NA,qt,0,3,NA,NA,NA,NA,NA,NA,NA,NA,NA,NA,NA,NA,NA,NA,NA,NA,NA,NA,NA
a346f,deep,flow.Sequence,3_0_3_0_0_0,NA,NA,completion,16897.759,612063.5,612012.645,612062.522,628960.281,628961.19999993,2023-01-20T17:16:15Z,628976.87,NULL,Niveau,kiwango,d,NA,NA,NA,NA,qt,NA,3,NA,NA,NA,NA,NA,NA,NA,NA,NA,NA,NA,NA,NA,NA,NA,NA,NA,NA,NA
a346f,shallow,flow.Sequence,3_0_3_0_0_1,NA,NA,skipped,NA,628961.19999993,NA,NA,628960.281,628961.29999995,2023-01-20T17:16:15Z,628976.87,NULL,Niveau,kiwango,d,NA,NA,NA,NA,qt,NA,3,NA,NA,NA,NA,NA,NA,NA,NA,NA,NA,NA,NA,NA,NA,NA,NA,NA,NA,NA
a346f,task,flow.Sequence,3_0_3_0_0,NA,NA,completion,16897.759,612063.5,612012.645,612062.522,628960.281,628961.39999998,2023-01-20T17:16:15Z,628976.87,NULL,Niveau,kiwango,d,NA,NA,NA,NA,qt,NA,3,NA,NA,NA,NA,NA,NA,NA,NA,NA,NA,NA,NA,NA,NA,NA,NA,NA,NA,NA
a346f,deep,flow.Sequence,3_0_3_0_1_0,NA,NA,skipped,NA,628961.5,NA,NA,628960.281,628961.60000002,2023-01-20T17:16:15Z,628976.87,NULL,Entwicklung,maendeleo,s,uangavu,mshindwa,badiliko,NA,qt,NA,3,NA,NA,NA,NA,NA,NA,NA,NA,NA,NA,NA,NA,NA,NA,NA,NA,NA,NA,NA
a346f,Shallow Question,html.Page,3_0_3_0_1_1_0,NA,NA,form submission,5952.5299999762,628961.60000002,628960.281,628976.87,634929.39999998,634929.69999993,2023-01-20T17:16:20Z,634942.714,NULL,Entwicklung,maendeleo,s,uangavu,mshindwa,badiliko,maendeleo,NA,NA,3,NA,NA,NA,NA,NA,NA,NA,NA,NA,NA,NA,NA,NA,NA,NA,NA,NA,NA,NA
a346f,"""Richtig""-Screen",canvas.Screen,3_0_3_0_1_1_1,NA,NA,timeout,4999.526,634932.10000002,634926.125,634942.714,639925.336,639925.89999998,2023-01-20T17:16:25Z,639942.24,NULL,Entwicklung,maendeleo,s,uangavu,mshindwa,badiliko,NA,qt,1,3,NA,NA,NA,NA,NA,NA,NA,NA,NA,NA,NA,NA,NA,NA,NA,NA,NA,NA,NA
a346f,"""Falsch""-Screen",canvas.Screen,3_0_3_0_1_1_2,NA,NA,skipped,NA,639928.69999993,NA,NA,639925.336,639928.79999995,2023-01-20T17:16:25Z,639942.24,NULL,Entwicklung,maendeleo,s,uangavu,mshindwa,badiliko,NA,qt,NA,3,NA,NA,NA,NA,NA,NA,NA,NA,NA,NA,NA,NA,NA,NA,NA,NA,NA,NA,NA
a346f,shallow,flow.Sequence,3_0_3_0_1_1,NA,NA,completion,10948.466,628961.60000002,628960.281,628976.87,639925.336,639929.10000002,2023-01-20T17:16:25Z,639942.24,NULL,Entwicklung,maendeleo,s,uangavu,mshindwa,badiliko,NA,qt,NA,3,NA,NA,NA,NA,NA,NA,NA,NA,NA,NA,NA,NA,NA,NA,NA,NA,NA,NA,NA
a346f,task,flow.Sequence,3_0_3_0_1,NA,NA,completion,10948.466,628961.5,628960.281,628976.87,639925.336,639929.29999995,2023-01-20T17:16:25Z,639942.24,NULL,Entwicklung,maendeleo,s,uangavu,mshindwa,badiliko,NA,qt,NA,3,NA,NA,NA,NA,NA,NA,NA,NA,NA,NA,NA,NA,NA,NA,NA,NA,NA,NA,NA
a346f,Deep Question,html.Page,3_0_3_0_2_0_0,NA,NA,form submission,4171.5599999523,639929.5,639925.336,639942.24,644113.79999995,644114.10000002,2023-01-20T17:16:30Z,644124.742,NULL,System,maongozi,d,NA,NA,NA,manguko,NA,NA,3,NA,NA,NA,NA,NA,NA,NA,NA,NA,NA,NA,NA,NA,NA,NA,NA,NA,NA,NA
a346f,"""Richtig""-Screen",canvas.Screen,3_0_3_0_2_0_1,NA,NA,skipped,NA,644115.79999995,NA,NA,644113.79999995,644115.79999995,2023-01-20T17:16:30Z,644124.742,NULL,System,maongozi,d,NA,NA,NA,NA,qt,NA,3,NA,NA,NA,NA,NA,NA,NA,NA,NA,NA,NA,NA,NA,NA,NA,NA,NA,NA,NA
a346f,"""Falsch""-Screen",canvas.Screen,3_0_3_0_2_0_2,NA,NA,timeout,4999.272,644116.60000002,644108.158,644124.742,649107.45,649108.10000002,2023-01-20T17:16:35Z,649124.014,NULL,System,maongozi,d,NA,NA,NA,NA,qt,0,3,NA,NA,NA,NA,NA,NA,NA,NA,NA,NA,NA,NA,NA,NA,NA,NA,NA,NA,NA
a346f,deep,flow.Sequence,3_0_3_0_2_0,NA,NA,completion,9165.21,639929.5,639925.336,639942.24,649107.45,649108.39999998,2023-01-20T17:16:35Z,649124.014,NULL,System,maongozi,d,NA,NA,NA,NA,qt,NA,3,NA,NA,NA,NA,NA,NA,NA,NA,NA,NA,NA,NA,NA,NA,NA,NA,NA,NA,NA
a346f,shallow,flow.Sequence,3_0_3_0_2_1,NA,NA,skipped,NA,649108.5,NA,NA,649107.45,649108.60000002,2023-01-20T17:16:35Z,649124.014,NULL,System,maongozi,d,NA,NA,NA,NA,qt,NA,3,NA,NA,NA,NA,NA,NA,NA,NA,NA,NA,NA,NA,NA,NA,NA,NA,NA,NA,NA
a346f,task,flow.Sequence,3_0_3_0_2,NA,NA,completion,9165.21,639929.29999995,639925.336,639942.24,649107.45,649108.69999993,2023-01-20T17:16:35Z,649124.014,NULL,System,maongozi,d,NA,NA,NA,NA,qt,NA,3,NA,NA,NA,NA,NA,NA,NA,NA,NA,NA,NA,NA,NA,NA,NA,NA,NA,NA,NA
a346f,Deep Question,html.Page,3_0_3_0_3_0_0,NA,NA,form submission,4907.2859999523,649108.89999998,649107.45,649124.014,654031.29999995,654031.60000002,2023-01-20T17:16:40Z,654040.041,NULL,Lawine,banguko,d,NA,NA,NA,manguko,NA,NA,3,NA,NA,NA,NA,NA,NA,NA,NA,NA,NA,NA,NA,NA,NA,NA,NA,NA,NA,NA
a346f,"""Richtig""-Screen",canvas.Screen,3_0_3_0_3_0_1,NA,NA,skipped,NA,654033.89999998,NA,NA,654031.29999995,654034.10000002,2023-01-20T17:16:40Z,654040.041,NULL,Lawine,banguko,d,NA,NA,NA,NA,qt,NA,3,NA,NA,NA,NA,NA,NA,NA,NA,NA,NA,NA,NA,NA,NA,NA,NA,NA,NA,NA
a346f,"""Falsch""-Screen",canvas.Screen,3_0_3_0_3_0_2,NA,NA,timeout,4999.322,654034.79999995,654023.418,654040.041,659022.635,659024.29999995,2023-01-20T17:16:45Z,659039.363,NULL,Lawine,banguko,d,NA,NA,NA,NA,qt,0,3,NA,NA,NA,NA,NA,NA,NA,NA,NA,NA,NA,NA,NA,NA,NA,NA,NA,NA,NA
a346f,deep,flow.Sequence,3_0_3_0_3_0,NA,NA,completion,9898.621,649108.79999995,649107.45,649124.014,659022.635,659024.5,2023-01-20T17:16:45Z,659039.363,NULL,Lawine,banguko,d,NA,NA,NA,NA,qt,NA,3,NA,NA,NA,NA,NA,NA,NA,NA,NA,NA,NA,NA,NA,NA,NA,NA,NA,NA,NA
a346f,shallow,flow.Sequence,3_0_3_0_3_1,NA,NA,skipped,NA,659024.60000002,NA,NA,659022.635,659024.69999993,2023-01-20T17:16:45Z,659039.363,NULL,Lawine,banguko,d,NA,NA,NA,NA,qt,NA,3,NA,NA,NA,NA,NA,NA,NA,NA,NA,NA,NA,NA,NA,NA,NA,NA,NA,NA,NA
a346f,task,flow.Sequence,3_0_3_0_3,NA,NA,completion,9898.621,649108.79999995,649107.45,649124.014,659022.635,659024.79999995,2023-01-20T17:16:45Z,659039.363,NULL,Lawine,banguko,d,NA,NA,NA,NA,qt,NA,3,NA,NA,NA,NA,NA,NA,NA,NA,NA,NA,NA,NA,NA,NA,NA,NA,NA,NA,NA
a346f,Deep Question,html.Page,3_0_3_0_4_0_0,NA,NA,form submission,10388.137,659025,659022.635,659039.363,669427.5,669427.89999998,2023-01-20T17:16:55Z,669437.992,NULL,Papier,karatasi,d,NA,NA,NA,banguko,NA,NA,3,NA,NA,NA,NA,NA,NA,NA,NA,NA,NA,NA,NA,NA,NA,NA,NA,NA,NA,NA
a346f,"""Richtig""-Screen",canvas.Screen,3_0_3_0_4_0_1,NA,NA,skipped,NA,669430.10000002,NA,NA,669427.5,669430.29999995,2023-01-20T17:16:55Z,669437.992,NULL,Papier,karatasi,d,NA,NA,NA,NA,qt,NA,3,NA,NA,NA,NA,NA,NA,NA,NA,NA,NA,NA,NA,NA,NA,NA,NA,NA,NA,NA
a346f,"""Falsch""-Screen",canvas.Screen,3_0_3_0_4_0_2,NA,NA,timeout,4999.171,669431.19999993,669421.297,669437.992,674420.593,674421.19999993,2023-01-20T17:17:00Z,674437.163,NULL,Papier,karatasi,d,NA,NA,NA,NA,qt,0,3,NA,NA,NA,NA,NA,NA,NA,NA,NA,NA,NA,NA,NA,NA,NA,NA,NA,NA,NA
a346f,deep,flow.Sequence,3_0_3_0_4_0,NA,NA,completion,15381.23,659024.89999998,659022.635,659039.363,674420.593,674421.5,2023-01-20T17:17:00Z,674437.163,NULL,Papier,karatasi,d,NA,NA,NA,NA,qt,NA,3,NA,NA,NA,NA,NA,NA,NA,NA,NA,NA,NA,NA,NA,NA,NA,NA,NA,NA,NA
a346f,shallow,flow.Sequence,3_0_3_0_4_1,NA,NA,skipped,NA,674421.60000002,NA,NA,674420.593,674421.79999995,2023-01-20T17:17:00Z,674437.163,NULL,Papier,karatasi,d,NA,NA,NA,NA,qt,NA,3,NA,NA,NA,NA,NA,NA,NA,NA,NA,NA,NA,NA,NA,NA,NA,NA,NA,NA,NA
a346f,task,flow.Sequence,3_0_3_0_4,NA,NA,completion,15381.23,659024.89999998,659022.635,659039.363,674420.593,674421.89999998,2023-01-20T17:17:00Z,674437.163,NULL,Papier,karatasi,d,NA,NA,NA,NA,qt,NA,3,NA,NA,NA,NA,NA,NA,NA,NA,NA,NA,NA,NA,NA,NA,NA,NA,NA,NA,NA
a346f,deep,flow.Sequence,3_0_3_0_5_0,NA,NA,skipped,NA,674422,NA,NA,674420.593,674422.10000002,2023-01-20T17:17:00Z,674437.163,NULL,Vorwurf,mashtaka,s,msukumo,mtangulizi,uenyekiti,NA,qt,NA,3,NA,NA,NA,NA,NA,NA,NA,NA,NA,NA,NA,NA,NA,NA,NA,NA,NA,NA,NA
a346f,Shallow Question,html.Page,3_0_3_0_5_1_0,NA,NA,form submission,5544.4370000239,674422.19999993,674420.593,674437.163,679981.60000002,679981.89999998,2023-01-20T17:17:06Z,679986.363,NULL,Vorwurf,mashtaka,s,msukumo,mtangulizi,uenyekiti,mashtaka,NA,NA,3,NA,NA,NA,NA,NA,NA,NA,NA,NA,NA,NA,NA,NA,NA,NA,NA,NA,NA,NA
a346f,"""Richtig""-Screen",canvas.Screen,3_0_3_0_5_1_1,NA,NA,timeout,4999.328,679984.39999998,679969.815,679986.363,684968.993,684969.89999998,2023-01-20T17:17:11Z,684985.691,NULL,Vorwurf,mashtaka,s,msukumo,mtangulizi,uenyekiti,NA,qt,1,3,NA,NA,NA,NA,NA,NA,NA,NA,NA,NA,NA,NA,NA,NA,NA,NA,NA,NA,NA
a346f,"""Falsch""-Screen",canvas.Screen,3_0_3_0_5_1_2,NA,NA,skipped,NA,684972.29999995,NA,NA,684968.993,684972.5,2023-01-20T17:17:11Z,684985.691,NULL,Vorwurf,mashtaka,s,msukumo,mtangulizi,uenyekiti,NA,qt,NA,3,NA,NA,NA,NA,NA,NA,NA,NA,NA,NA,NA,NA,NA,NA,NA,NA,NA,NA,NA
a346f,shallow,flow.Sequence,3_0_3_0_5_1,NA,NA,completion,10531.83,674422.19999993,674420.593,674437.163,684968.993,684972.69999993,2023-01-20T17:17:11Z,684985.691,NULL,Vorwurf,mashtaka,s,msukumo,mtangulizi,uenyekiti,NA,qt,NA,3,NA,NA,NA,NA,NA,NA,NA,NA,NA,NA,NA,NA,NA,NA,NA,NA,NA,NA,NA
a346f,task,flow.Sequence,3_0_3_0_5,NA,NA,completion,10531.83,674422,674420.593,674437.163,684968.993,684972.79999995,2023-01-20T17:17:11Z,684985.691,NULL,Vorwurf,mashtaka,s,msukumo,mtangulizi,uenyekiti,NA,qt,NA,3,NA,NA,NA,NA,NA,NA,NA,NA,NA,NA,NA,NA,NA,NA,NA,NA,NA,NA,NA
a346f,deep,flow.Sequence,3_0_3_0_6_0,NA,NA,skipped,NA,684972.79999995,NA,NA,684968.993,684972.89999998,2023-01-20T17:17:11Z,684985.691,NULL,Körper,kiwiliwili,s,mapambano,mpatanishi,kiolezo,NA,qt,NA,3,NA,NA,NA,NA,NA,NA,NA,NA,NA,NA,NA,NA,NA,NA,NA,NA,NA,NA,NA
a346f,Shallow Question,html.Page,3_0_3_0_6_1_0,NA,NA,form submission,2728.309,684973,684968.993,684985.691,687714,687714.29999995,2023-01-20T17:17:13Z,687718.612,NULL,Körper,kiwiliwili,s,mapambano,mpatanishi,kiolezo,kiwiliwili,NA,NA,3,NA,NA,NA,NA,NA,NA,NA,NA,NA,NA,NA,NA,NA,NA,NA,NA,NA,NA,NA
a346f,"""Richtig""-Screen",canvas.Screen,3_0_3_0_6_1_1,NA,NA,timeout,4999.392,687715.10000002,687702.072,687718.612,692701.387,692702.10000002,2023-01-20T17:17:18Z,692718.004,NULL,Körper,kiwiliwili,s,mapambano,mpatanishi,kiolezo,NA,qt,1,3,NA,NA,NA,NA,NA,NA,NA,NA,NA,NA,NA,NA,NA,NA,NA,NA,NA,NA,NA
a346f,"""Falsch""-Screen",canvas.Screen,3_0_3_0_6_1_2,NA,NA,skipped,NA,692704.60000002,NA,NA,692701.387,692704.79999995,2023-01-20T17:17:18Z,692718.004,NULL,Körper,kiwiliwili,s,mapambano,mpatanishi,kiolezo,NA,qt,NA,3,NA,NA,NA,NA,NA,NA,NA,NA,NA,NA,NA,NA,NA,NA,NA,NA,NA,NA,NA
a346f,shallow,flow.Sequence,3_0_3_0_6_1,NA,NA,completion,7715.696,684973,684968.993,684985.691,692701.387,692704.89999998,2023-01-20T17:17:18Z,692718.004,NULL,Körper,kiwiliwili,s,mapambano,mpatanishi,kiolezo,NA,qt,NA,3,NA,NA,NA,NA,NA,NA,NA,NA,NA,NA,NA,NA,NA,NA,NA,NA,NA,NA,NA
a346f,task,flow.Sequence,3_0_3_0_6,NA,NA,completion,7715.696,684972.79999995,684968.993,684985.691,692701.387,692705.10000002,2023-01-20T17:17:18Z,692718.004,NULL,Körper,kiwiliwili,s,mapambano,mpatanishi,kiolezo,NA,qt,NA,3,NA,NA,NA,NA,NA,NA,NA,NA,NA,NA,NA,NA,NA,NA,NA,NA,NA,NA,NA
a346f,deep,flow.Sequence,3_0_3_0_7_0,NA,NA,skipped,NA,692705.19999993,NA,NA,692701.387,692705.19999993,2023-01-20T17:17:18Z,692718.004,NULL,Übersicht,kilindo,s,mgusano,chipukizi,kulinganisha,NA,qt,NA,3,NA,NA,NA,NA,NA,NA,NA,NA,NA,NA,NA,NA,NA,NA,NA,NA,NA,NA,NA
a346f,Shallow Question,html.Page,3_0_3_0_7_1_0,NA,NA,form submission,7385.996,692705.19999993,692701.387,692718.004,700104,700104.39999998,2023-01-20T17:17:26Z,700117.026,NULL,Übersicht,kilindo,s,mgusano,chipukizi,kulinganisha,mgusano,NA,NA,3,NA,NA,NA,NA,NA,NA,NA,NA,NA,NA,NA,NA,NA,NA,NA,NA,NA,NA,NA
a346f,"""Richtig""-Screen",canvas.Screen,3_0_3_0_7_1_1,NA,NA,skipped,NA,700106.60000002,NA,NA,700104,700106.69999993,2023-01-20T17:17:26Z,700117.026,NULL,Übersicht,kilindo,s,mgusano,chipukizi,kulinganisha,NA,qt,NA,3,NA,NA,NA,NA,NA,NA,NA,NA,NA,NA,NA,NA,NA,NA,NA,NA,NA,NA,NA
a346f,"""Falsch""-Screen",canvas.Screen,3_0_3_0_7_1_2,NA,NA,timeout,4999.165,700107.39999998,700100.344,700117.026,705099.643,705100.19999993,2023-01-20T17:17:31Z,705116.191,NULL,Übersicht,kilindo,s,mgusano,chipukizi,kulinganisha,NA,qt,0,3,NA,NA,NA,NA,NA,NA,NA,NA,NA,NA,NA,NA,NA,NA,NA,NA,NA,NA,NA
a346f,shallow,flow.Sequence,3_0_3_0_7_1,NA,NA,completion,12381.639,692705.19999993,692701.387,692718.004,705099.643,705100.5,2023-01-20T17:17:31Z,705116.191,NULL,Übersicht,kilindo,s,mgusano,chipukizi,kulinganisha,NA,qt,NA,3,NA,NA,NA,NA,NA,NA,NA,NA,NA,NA,NA,NA,NA,NA,NA,NA,NA,NA,NA
a346f,task,flow.Sequence,3_0_3_0_7,NA,NA,completion,12381.639,692705.10000002,692701.387,692718.004,705099.643,705100.60000002,2023-01-20T17:17:31Z,705116.191,NULL,Übersicht,kilindo,s,mgusano,chipukizi,kulinganisha,NA,qt,NA,3,NA,NA,NA,NA,NA,NA,NA,NA,NA,NA,NA,NA,NA,NA,NA,NA,NA,NA,NA
a346f,block,flow.Loop,3_0_3_0,NA,NA,completion,93037.121,612063.5,612012.645,612062.522,705099.643,705100.89999998,2023-01-20T17:17:31Z,705116.191,NULL,NA,NA,NA,NA,NA,NA,NA,qt,NA,3,NA,NA,NA,NA,NA,NA,NA,NA,NA,NA,NA,NA,NA,NA,NA,NA,NA,NA,NA
a346f,weiter,canvas.Screen,3_0_3_1,sdf,keypress(Space),response,1281.309,705100.89999998,705099.643,705116.191,706397.5,706399.69999993,2023-01-20T17:17:32Z,706432.663,NULL,NA,NA,NA,NA,NA,NA,NA,qt,NA,3,NA,NA,NA,NA,NA,NA,NA,NA,NA,NA,NA,NA,NA,NA,NA,NA,NA,NA,NA
a346f,check continue,flow.Sequence,3_0_3,NA,NA,completion,94334.978,612063.39999998,612012.645,612062.522,706397.5,706399.89999998,2023-01-20T17:17:32Z,706432.663,NULL,NA,NA,NA,NA,NA,NA,NA,qt,NA,3,NA,NA,NA,NA,NA,NA,NA,NA,NA,NA,NA,NA,NA,NA,NA,NA,NA,NA,NA
a346f,Deep Question,html.Page,3_0_4_0_0_0_0,NA,NA,form submission,7631.5369999285,706435.19999993,706382.774,706432.663,714064.19999993,714064.39999998,2023-01-20T17:17:40Z,714064.946,NULL,Papier,karatasi,d,NA,NA,NA,banguko,NA,NA,4,NA,NA,NA,NA,NA,NA,NA,NA,NA,NA,NA,NA,NA,NA,NA,NA,NA,NA,NA
a346f,"""Richtig""-Screen",canvas.Screen,3_0_4_0_0_0_1,NA,NA,skipped,NA,714067,NA,NA,714064.19999993,714067.19999993,2023-01-20T17:17:40Z,714064.946,NULL,Papier,karatasi,d,NA,NA,NA,NA,sd,NA,4,NA,NA,NA,NA,NA,NA,NA,NA,NA,NA,NA,NA,NA,NA,NA,NA,NA,NA,NA
a346f,"""Falsch""-Screen",canvas.Screen,3_0_4_0_0_0_2,NA,NA,timeout,4999.423,714067.89999998,714048.4,714064.946,719047.696,719048.29999995,2023-01-20T17:17:45Z,719064.369,NULL,Papier,karatasi,d,NA,NA,NA,NA,sd,0,4,NA,NA,NA,NA,NA,NA,NA,NA,NA,NA,NA,NA,NA,NA,NA,NA,NA,NA,NA
a346f,deep,flow.Sequence,3_0_4_0_0_0,NA,NA,completion,12615.033,706435.19999993,706382.774,706432.663,719047.696,719048.60000002,2023-01-20T17:17:45Z,719064.369,NULL,Papier,karatasi,d,NA,NA,NA,NA,sd,NA,4,NA,NA,NA,NA,NA,NA,NA,NA,NA,NA,NA,NA,NA,NA,NA,NA,NA,NA,NA
a346f,shallow,flow.Sequence,3_0_4_0_0_1,NA,NA,skipped,NA,719048.60000002,NA,NA,719047.696,719048.79999995,2023-01-20T17:17:45Z,719064.369,NULL,Papier,karatasi,d,NA,NA,NA,NA,sd,NA,4,NA,NA,NA,NA,NA,NA,NA,NA,NA,NA,NA,NA,NA,NA,NA,NA,NA,NA,NA
a346f,task,flow.Sequence,3_0_4_0_0,NA,NA,completion,12615.033,706435.19999993,706382.774,706432.663,719047.696,719049,2023-01-20T17:17:45Z,719064.369,NULL,Papier,karatasi,d,NA,NA,NA,NA,sd,NA,4,NA,NA,NA,NA,NA,NA,NA,NA,NA,NA,NA,NA,NA,NA,NA,NA,NA,NA,NA
a346f,Deep Question,html.Page,3_0_4_0_1_0_0,NA,NA,form submission,5791.9309999524,719049,719047.696,719064.369,724856.29999995,724856.60000002,2023-01-20T17:17:50Z,724863.451,NULL,Lawine,banguko,d,NA,NA,NA,banguko,NA,NA,4,NA,NA,NA,NA,NA,NA,NA,NA,NA,NA,NA,NA,NA,NA,NA,NA,NA,NA,NA
a346f,"""Richtig""-Screen",canvas.Screen,3_0_4_0_1_0_1,NA,NA,timeout,4999.378,724859.10000002,724846.907,724863.451,729846.174,729846.79999995,2023-01-20T17:17:55Z,729862.829,NULL,Lawine,banguko,d,NA,NA,NA,NA,sd,1,4,NA,NA,NA,NA,NA,NA,NA,NA,NA,NA,NA,NA,NA,NA,NA,NA,NA,NA,NA
a346f,"""Falsch""-Screen",canvas.Screen,3_0_4_0_1_0_2,NA,NA,skipped,NA,729849.29999995,NA,NA,729846.174,729849.39999998,2023-01-20T17:17:55Z,729862.829,NULL,Lawine,banguko,d,NA,NA,NA,NA,sd,NA,4,NA,NA,NA,NA,NA,NA,NA,NA,NA,NA,NA,NA,NA,NA,NA,NA,NA,NA,NA
a346f,deep,flow.Sequence,3_0_4_0_1_0,NA,NA,completion,10781.805,719049,719047.696,719064.369,729846.174,729849.60000002,2023-01-20T17:17:55Z,729862.829,NULL,Lawine,banguko,d,NA,NA,NA,NA,sd,NA,4,NA,NA,NA,NA,NA,NA,NA,NA,NA,NA,NA,NA,NA,NA,NA,NA,NA,NA,NA
a346f,shallow,flow.Sequence,3_0_4_0_1_1,NA,NA,skipped,NA,729849.69999993,NA,NA,729846.174,729849.69999993,2023-01-20T17:17:55Z,729862.829,NULL,Lawine,banguko,d,NA,NA,NA,NA,sd,NA,4,NA,NA,NA,NA,NA,NA,NA,NA,NA,NA,NA,NA,NA,NA,NA,NA,NA,NA,NA
a346f,task,flow.Sequence,3_0_4_0_1,NA,NA,completion,10781.805,719049,719047.696,719064.369,729846.174,729849.79999995,2023-01-20T17:17:55Z,729862.829,NULL,Lawine,banguko,d,NA,NA,NA,NA,sd,NA,4,NA,NA,NA,NA,NA,NA,NA,NA,NA,NA,NA,NA,NA,NA,NA,NA,NA,NA,NA
a346f,deep,flow.Sequence,3_0_4_0_2_0,NA,NA,skipped,NA,729849.89999998,NA,NA,729846.174,729849.89999998,2023-01-20T17:17:55Z,729862.829,NULL,Übersicht,kilindo,s,mgusano,chipukizi,kulinganisha,NA,sd,NA,4,NA,NA,NA,NA,NA,NA,NA,NA,NA,NA,NA,NA,NA,NA,NA,NA,NA,NA,NA
a346f,Shallow Question,html.Page,3_0_4_0_2_1_0,NA,NA,form submission,6817.4709999523,729850,729846.174,729862.829,736680.29999995,736680.60000002,2023-01-20T17:18:02Z,736695.179,NULL,Übersicht,kilindo,s,mgusano,chipukizi,kulinganisha,kilindo,NA,NA,4,NA,NA,NA,NA,NA,NA,NA,NA,NA,NA,NA,NA,NA,NA,NA,NA,NA,NA,NA
a346f,"""Richtig""-Screen",canvas.Screen,3_0_4_0_2_1_1,NA,NA,timeout,4999.307,736682.5,736678.547,736695.179,741677.875,741678.5,2023-01-20T17:18:07Z,741694.486,NULL,Übersicht,kilindo,s,mgusano,chipukizi,kulinganisha,NA,sd,1,4,NA,NA,NA,NA,NA,NA,NA,NA,NA,NA,NA,NA,NA,NA,NA,NA,NA,NA,NA
a346f,"""Falsch""-Screen",canvas.Screen,3_0_4_0_2_1_2,NA,NA,skipped,NA,741681.19999993,NA,NA,741677.875,741681.29999995,2023-01-20T17:18:07Z,741694.486,NULL,Übersicht,kilindo,s,mgusano,chipukizi,kulinganisha,NA,sd,NA,4,NA,NA,NA,NA,NA,NA,NA,NA,NA,NA,NA,NA,NA,NA,NA,NA,NA,NA,NA
a346f,shallow,flow.Sequence,3_0_4_0_2_1,NA,NA,completion,11815.046,729850,729846.174,729862.829,741677.875,741681.5,2023-01-20T17:18:07Z,741694.486,NULL,Übersicht,kilindo,s,mgusano,chipukizi,kulinganisha,NA,sd,NA,4,NA,NA,NA,NA,NA,NA,NA,NA,NA,NA,NA,NA,NA,NA,NA,NA,NA,NA,NA
a346f,task,flow.Sequence,3_0_4_0_2,NA,NA,completion,11815.046,729849.89999998,729846.174,729862.829,741677.875,741681.60000002,2023-01-20T17:18:07Z,741694.486,NULL,Übersicht,kilindo,s,mgusano,chipukizi,kulinganisha,NA,sd,NA,4,NA,NA,NA,NA,NA,NA,NA,NA,NA,NA,NA,NA,NA,NA,NA,NA,NA,NA,NA
a346f,deep,flow.Sequence,3_0_4_0_3_0,NA,NA,skipped,NA,741681.79999995,NA,NA,741677.875,741681.79999995,2023-01-20T17:18:07Z,741694.486,NULL,Entwicklung,maendeleo,s,uangavu,mshindwa,badiliko,NA,sd,NA,4,NA,NA,NA,NA,NA,NA,NA,NA,NA,NA,NA,NA,NA,NA,NA,NA,NA,NA,NA
a346f,Shallow Question,html.Page,3_0_4_0_3_1_0,NA,NA,form submission,6194.1140000238,741681.89999998,741677.875,741694.486,747888.60000002,747888.89999998,2023-01-20T17:18:13Z,747893.548,NULL,Entwicklung,maendeleo,s,uangavu,mshindwa,badiliko,maendeleo,NA,NA,4,NA,NA,NA,NA,NA,NA,NA,NA,NA,NA,NA,NA,NA,NA,NA,NA,NA,NA,NA
a346f,"""Richtig""-Screen",canvas.Screen,3_0_4_0_3_1_1,NA,NA,timeout,4999.363,747890.5,747877.031,747893.548,752876.28,752877.10000002,2023-01-20T17:18:18Z,752892.911,NULL,Entwicklung,maendeleo,s,uangavu,mshindwa,badiliko,NA,sd,1,4,NA,NA,NA,NA,NA,NA,NA,NA,NA,NA,NA,NA,NA,NA,NA,NA,NA,NA,NA
a346f,"""Falsch""-Screen",canvas.Screen,3_0_4_0_3_1_2,NA,NA,skipped,NA,752879.39999998,NA,NA,752876.28,752879.5,2023-01-20T17:18:18Z,752892.911,NULL,Entwicklung,maendeleo,s,uangavu,mshindwa,badiliko,NA,sd,NA,4,NA,NA,NA,NA,NA,NA,NA,NA,NA,NA,NA,NA,NA,NA,NA,NA,NA,NA,NA
a346f,shallow,flow.Sequence,3_0_4_0_3_1,NA,NA,completion,11181.794,741681.89999998,741677.875,741694.486,752876.28,752879.60000002,2023-01-20T17:18:18Z,752892.911,NULL,Entwicklung,maendeleo,s,uangavu,mshindwa,badiliko,NA,sd,NA,4,NA,NA,NA,NA,NA,NA,NA,NA,NA,NA,NA,NA,NA,NA,NA,NA,NA,NA,NA
a346f,task,flow.Sequence,3_0_4_0_3,NA,NA,completion,11181.794,741681.69999993,741677.875,741694.486,752876.28,752879.79999995,2023-01-20T17:18:18Z,752892.911,NULL,Entwicklung,maendeleo,s,uangavu,mshindwa,badiliko,NA,sd,NA,4,NA,NA,NA,NA,NA,NA,NA,NA,NA,NA,NA,NA,NA,NA,NA,NA,NA,NA,NA
a346f,deep,flow.Sequence,3_0_4_0_4_0,NA,NA,skipped,NA,752879.79999995,NA,NA,752876.28,752879.89999998,2023-01-20T17:18:18Z,752892.911,NULL,Körper,kiwiliwili,s,mapambano,mpatanishi,kiolezo,NA,sd,NA,4,NA,NA,NA,NA,NA,NA,NA,NA,NA,NA,NA,NA,NA,NA,NA,NA,NA,NA,NA
a346f,Shallow Question,html.Page,3_0_4_0_4_1_0,NA,NA,form submission,2712.3889999524,752880,752876.28,752892.911,755605.29999995,755605.60000002,2023-01-20T17:18:21Z,755609.168,NULL,Körper,kiwiliwili,s,mapambano,mpatanishi,kiolezo,kiwiliwili,NA,NA,4,NA,NA,NA,NA,NA,NA,NA,NA,NA,NA,NA,NA,NA,NA,NA,NA,NA,NA,NA
a346f,"""Richtig""-Screen",canvas.Screen,3_0_4_0_4_1_1,NA,NA,timeout,4999.385,755607.69999993,755592.551,755609.168,760591.794,760592.60000002,2023-01-20T17:18:26Z,760608.553,NULL,Körper,kiwiliwili,s,mapambano,mpatanishi,kiolezo,NA,sd,1,4,NA,NA,NA,NA,NA,NA,NA,NA,NA,NA,NA,NA,NA,NA,NA,NA,NA,NA,NA
a346f,"""Falsch""-Screen",canvas.Screen,3_0_4_0_4_1_2,NA,NA,skipped,NA,760595,NA,NA,760591.794,760595.29999995,2023-01-20T17:18:26Z,760608.553,NULL,Körper,kiwiliwili,s,mapambano,mpatanishi,kiolezo,NA,sd,NA,4,NA,NA,NA,NA,NA,NA,NA,NA,NA,NA,NA,NA,NA,NA,NA,NA,NA,NA,NA
a346f,shallow,flow.Sequence,3_0_4_0_4_1,NA,NA,completion,7698.883,752880,752876.28,752892.911,760591.794,760595.5,2023-01-20T17:18:26Z,760608.553,NULL,Körper,kiwiliwili,s,mapambano,mpatanishi,kiolezo,NA,sd,NA,4,NA,NA,NA,NA,NA,NA,NA,NA,NA,NA,NA,NA,NA,NA,NA,NA,NA,NA,NA
a346f,task,flow.Sequence,3_0_4_0_4,NA,NA,completion,7698.883,752879.79999995,752876.28,752892.911,760591.794,760595.79999995,2023-01-20T17:18:26Z,760608.553,NULL,Körper,kiwiliwili,s,mapambano,mpatanishi,kiolezo,NA,sd,NA,4,NA,NA,NA,NA,NA,NA,NA,NA,NA,NA,NA,NA,NA,NA,NA,NA,NA,NA,NA
a346f,deep,flow.Sequence,3_0_4_0_5_0,NA,NA,skipped,NA,760595.89999998,NA,NA,760591.794,760596.10000002,2023-01-20T17:18:26Z,760608.553,NULL,Vorwurf,mashtaka,s,msukumo,mtangulizi,uenyekiti,NA,sd,NA,4,NA,NA,NA,NA,NA,NA,NA,NA,NA,NA,NA,NA,NA,NA,NA,NA,NA,NA,NA
a346f,Shallow Question,html.Page,3_0_4_0_5_1_0,NA,NA,form submission,4998.2469999524,760596.19999993,760591.794,760608.553,765606.79999995,765607,2023-01-20T17:18:31Z,765607.773,NULL,Vorwurf,mashtaka,s,msukumo,mtangulizi,uenyekiti,msukumo,NA,NA,4,NA,NA,NA,NA,NA,NA,NA,NA,NA,NA,NA,NA,NA,NA,NA,NA,NA,NA,NA
a346f,"""Richtig""-Screen",canvas.Screen,3_0_4_0_5_1_1,NA,NA,skipped,NA,765609.39999998,NA,NA,765606.79999995,765609.60000002,2023-01-20T17:18:31Z,765607.773,NULL,Vorwurf,mashtaka,s,msukumo,mtangulizi,uenyekiti,NA,sd,NA,4,NA,NA,NA,NA,NA,NA,NA,NA,NA,NA,NA,NA,NA,NA,NA,NA,NA,NA,NA
a346f,"""Falsch""-Screen",canvas.Screen,3_0_4_0_5_1_2,NA,NA,timeout,4999.2729999999,765610.5,765591.211,765607.773,770590.38,770590.89999998,2023-01-20T17:18:36Z,770607.046,NULL,Vorwurf,mashtaka,s,msukumo,mtangulizi,uenyekiti,NA,sd,0,4,NA,NA,NA,NA,NA,NA,NA,NA,NA,NA,NA,NA,NA,NA,NA,NA,NA,NA,NA
a346f,shallow,flow.Sequence,3_0_4_0_5_1,NA,NA,completion,9981.827,760596.10000002,760591.794,760608.553,770590.38,770591.10000002,2023-01-20T17:18:36Z,770607.046,NULL,Vorwurf,mashtaka,s,msukumo,mtangulizi,uenyekiti,NA,sd,NA,4,NA,NA,NA,NA,NA,NA,NA,NA,NA,NA,NA,NA,NA,NA,NA,NA,NA,NA,NA
a346f,task,flow.Sequence,3_0_4_0_5,NA,NA,completion,9981.827,760595.79999995,760591.794,760608.553,770590.38,770591.19999993,2023-01-20T17:18:36Z,770607.046,NULL,Vorwurf,mashtaka,s,msukumo,mtangulizi,uenyekiti,NA,sd,NA,4,NA,NA,NA,NA,NA,NA,NA,NA,NA,NA,NA,NA,NA,NA,NA,NA,NA,NA,NA
a346f,Deep Question,html.Page,3_0_4_0_6_0_0,NA,NA,form submission,5365.954,770591.29999995,770590.38,770607.046,775973,775973.60000002,2023-01-20T17:18:42Z,775993.859,NULL,System,maongozi,d,NA,NA,NA,karatasi,NA,NA,4,NA,NA,NA,NA,NA,NA,NA,NA,NA,NA,NA,NA,NA,NA,NA,NA,NA,NA,NA
a346f,"""Richtig""-Screen",canvas.Screen,3_0_4_0_6_0_1,NA,NA,skipped,NA,775976.10000002,NA,NA,775973,775976.19999993,2023-01-20T17:18:42Z,775993.859,NULL,System,maongozi,d,NA,NA,NA,NA,sd,NA,4,NA,NA,NA,NA,NA,NA,NA,NA,NA,NA,NA,NA,NA,NA,NA,NA,NA,NA,NA
a346f,"""Falsch""-Screen",canvas.Screen,3_0_4_0_6_0_2,NA,NA,timeout,4995.1749999999,775977,775956.368,775993.859,780972.364,780973,2023-01-20T17:18:47Z,780989.034,NULL,System,maongozi,d,NA,NA,NA,NA,sd,0,4,NA,NA,NA,NA,NA,NA,NA,NA,NA,NA,NA,NA,NA,NA,NA,NA,NA,NA,NA
a346f,deep,flow.Sequence,3_0_4_0_6_0,NA,NA,completion,10365.318,770591.29999995,770590.38,770607.046,780972.364,780973.29999995,2023-01-20T17:18:47Z,780989.034,NULL,System,maongozi,d,NA,NA,NA,NA,sd,NA,4,NA,NA,NA,NA,NA,NA,NA,NA,NA,NA,NA,NA,NA,NA,NA,NA,NA,NA,NA
a346f,shallow,flow.Sequence,3_0_4_0_6_1,NA,NA,skipped,NA,780973.39999998,NA,NA,780972.364,780973.5,2023-01-20T17:18:47Z,780989.034,NULL,System,maongozi,d,NA,NA,NA,NA,sd,NA,4,NA,NA,NA,NA,NA,NA,NA,NA,NA,NA,NA,NA,NA,NA,NA,NA,NA,NA,NA
a346f,task,flow.Sequence,3_0_4_0_6,NA,NA,completion,10365.318,770591.29999995,770590.38,770607.046,780972.364,780973.69999993,2023-01-20T17:18:47Z,780989.034,NULL,System,maongozi,d,NA,NA,NA,NA,sd,NA,4,NA,NA,NA,NA,NA,NA,NA,NA,NA,NA,NA,NA,NA,NA,NA,NA,NA,NA,NA
a346f,Deep Question,html.Page,3_0_4_0_7_0_0,NA,NA,form submission,7437.966,780973.79999995,780972.364,780989.034,788427,788427.19999993,2023-01-20T17:18:54Z,788437.973,NULL,Niveau,kiwango,d,NA,NA,NA,karatasi,NA,NA,4,NA,NA,NA,NA,NA,NA,NA,NA,NA,NA,NA,NA,NA,NA,NA,NA,NA,NA,NA
a346f,"""Richtig""-Screen",canvas.Screen,3_0_4_0_7_0_1,NA,NA,skipped,NA,788429.60000002,NA,NA,788427,788429.79999995,2023-01-20T17:18:54Z,788437.973,NULL,Niveau,kiwango,d,NA,NA,NA,NA,sd,NA,4,NA,NA,NA,NA,NA,NA,NA,NA,NA,NA,NA,NA,NA,NA,NA,NA,NA,NA,NA
a346f,"""Falsch""-Screen",canvas.Screen,3_0_4_0_7_0_2,NA,NA,timeout,4999.352,788430.5,788421.379,788437.973,793420.663,793421.29999995,2023-01-20T17:18:59Z,793437.325,NULL,Niveau,kiwango,d,NA,NA,NA,NA,sd,0,4,NA,NA,NA,NA,NA,NA,NA,NA,NA,NA,NA,NA,NA,NA,NA,NA,NA,NA,NA
a346f,deep,flow.Sequence,3_0_4_0_7_0,NA,NA,completion,12431.629,780973.69999993,780972.364,780989.034,793420.663,793421.39999998,2023-01-20T17:18:59Z,793437.325,NULL,Niveau,kiwango,d,NA,NA,NA,NA,sd,NA,4,NA,NA,NA,NA,NA,NA,NA,NA,NA,NA,NA,NA,NA,NA,NA,NA,NA,NA,NA
a346f,shallow,flow.Sequence,3_0_4_0_7_1,NA,NA,skipped,NA,793421.60000002,NA,NA,793420.663,793421.69999993,2023-01-20T17:18:59Z,793437.325,NULL,Niveau,kiwango,d,NA,NA,NA,NA,sd,NA,4,NA,NA,NA,NA,NA,NA,NA,NA,NA,NA,NA,NA,NA,NA,NA,NA,NA,NA,NA
a346f,task,flow.Sequence,3_0_4_0_7,NA,NA,completion,12431.629,780973.69999993,780972.364,780989.034,793420.663,793421.79999995,2023-01-20T17:18:59Z,793437.325,NULL,Niveau,kiwango,d,NA,NA,NA,NA,sd,NA,4,NA,NA,NA,NA,NA,NA,NA,NA,NA,NA,NA,NA,NA,NA,NA,NA,NA,NA,NA
a346f,block,flow.Loop,3_0_4_0,NA,NA,completion,86988,706435.19999993,706382.774,706432.663,793420.663,793422,2023-01-20T17:18:59Z,793437.325,NULL,NA,NA,NA,NA,NA,NA,NA,sd,NA,4,NA,NA,NA,NA,NA,NA,NA,NA,NA,NA,NA,NA,NA,NA,NA,NA,NA,NA,NA
a346f,weiter,canvas.Screen,3_0_4_1,sdf,keypress(Space),response,1053.0749999762,793422.10000002,793420.663,793437.325,794490.39999998,794514.10000002,2023-01-20T17:19:00Z,794553.733,NULL,NA,NA,NA,NA,NA,NA,NA,sd,NA,4,NA,NA,NA,NA,NA,NA,NA,NA,NA,NA,NA,NA,NA,NA,NA,NA,NA,NA,NA
a346f,check continue,flow.Sequence,3_0_4,NA,NA,completion,88057.736999976,706435.10000002,706382.774,706432.663,794490.39999998,794514.29999995,2023-01-20T17:19:00Z,794553.733,NULL,NA,NA,NA,NA,NA,NA,NA,sd,NA,4,NA,NA,NA,NA,NA,NA,NA,NA,NA,NA,NA,NA,NA,NA,NA,NA,NA,NA,NA
a346f,deep,flow.Sequence,3_0_5_0_0_0,NA,NA,skipped,NA,794562.19999993,NA,NA,794490.39999998,794562.39999998,2023-01-20T17:19:00Z,794553.733,NULL,Körper,kiwiliwili,s,mapambano,mpatanishi,kiolezo,NA,sdf,NA,5,NA,NA,NA,NA,NA,NA,NA,NA,NA,NA,NA,NA,NA,NA,NA,NA,NA,NA,NA
a346f,Shallow Question,html.Page,3_0_5_0_0_1_0,NA,NA,form submission,2379.6669999762,794562.5,794503.735,794553.733,796933.39999998,796933.60000002,2023-01-20T17:19:03Z,796936.716,NULL,Körper,kiwiliwili,s,mapambano,mpatanishi,kiolezo,kiwiliwili,NA,NA,5,NA,NA,NA,NA,NA,NA,NA,NA,NA,NA,NA,NA,NA,NA,NA,NA,NA,NA,NA
a346f,"""Richtig""-Screen",canvas.Screen,3_0_5_0_0_1_1,NA,NA,timeout,4999.2929999999,796934.5,796920.163,796936.716,801919.491,801920.10000002,2023-01-20T17:19:07Z,801936.009,NULL,Körper,kiwiliwili,s,mapambano,mpatanishi,kiolezo,NA,sdf,1,5,NA,NA,NA,NA,NA,NA,NA,NA,NA,NA,NA,NA,NA,NA,NA,NA,NA,NA,NA
a346f,"""Falsch""-Screen",canvas.Screen,3_0_5_0_0_1_2,NA,NA,skipped,NA,801922.39999998,NA,NA,801919.491,801922.5,2023-01-20T17:19:07Z,801936.009,NULL,Körper,kiwiliwili,s,mapambano,mpatanishi,kiolezo,NA,sdf,NA,5,NA,NA,NA,NA,NA,NA,NA,NA,NA,NA,NA,NA,NA,NA,NA,NA,NA,NA,NA
a346f,shallow,flow.Sequence,3_0_5_0_0_1,NA,NA,completion,7365.758,794562.39999998,794503.735,794553.733,801919.491,801922.69999993,2023-01-20T17:19:07Z,801936.009,NULL,Körper,kiwiliwili,s,mapambano,mpatanishi,kiolezo,NA,sdf,NA,5,NA,NA,NA,NA,NA,NA,NA,NA,NA,NA,NA,NA,NA,NA,NA,NA,NA,NA,NA
a346f,task,flow.Sequence,3_0_5_0_0,NA,NA,completion,7365.758,794562.19999993,794503.735,794553.733,801919.491,801922.89999998,2023-01-20T17:19:07Z,801936.009,NULL,Körper,kiwiliwili,s,mapambano,mpatanishi,kiolezo,NA,sdf,NA,5,NA,NA,NA,NA,NA,NA,NA,NA,NA,NA,NA,NA,NA,NA,NA,NA,NA,NA,NA
a346f,deep,flow.Sequence,3_0_5_0_1_0,NA,NA,skipped,NA,801922.89999998,NA,NA,801919.491,801922.89999998,2023-01-20T17:19:07Z,801936.009,NULL,Entwicklung,maendeleo,s,uangavu,mshindwa,badiliko,NA,sdf,NA,5,NA,NA,NA,NA,NA,NA,NA,NA,NA,NA,NA,NA,NA,NA,NA,NA,NA,NA,NA
a346f,Shallow Question,html.Page,3_0_5_0_1_1_0,NA,NA,form submission,6631.3909999762,801923,801919.491,801936.009,808567.39999998,808567.69999993,2023-01-20T17:19:14Z,808568.447,NULL,Entwicklung,maendeleo,s,uangavu,mshindwa,badiliko,maendeleo,NA,NA,5,NA,NA,NA,NA,NA,NA,NA,NA,NA,NA,NA,NA,NA,NA,NA,NA,NA,NA,NA
a346f,"""Richtig""-Screen",canvas.Screen,3_0_5_0_1_1_1,NA,NA,timeout,4999.375,808570.39999998,808551.907,808568.447,813551.19,813551.79999995,2023-01-20T17:19:19Z,813567.822,NULL,Entwicklung,maendeleo,s,uangavu,mshindwa,badiliko,NA,sdf,1,5,NA,NA,NA,NA,NA,NA,NA,NA,NA,NA,NA,NA,NA,NA,NA,NA,NA,NA,NA
a346f,"""Falsch""-Screen",canvas.Screen,3_0_5_0_1_1_2,NA,NA,skipped,NA,813554.39999998,NA,NA,813551.19,813554.5,2023-01-20T17:19:19Z,813567.822,NULL,Entwicklung,maendeleo,s,uangavu,mshindwa,badiliko,NA,sdf,NA,5,NA,NA,NA,NA,NA,NA,NA,NA,NA,NA,NA,NA,NA,NA,NA,NA,NA,NA,NA
a346f,shallow,flow.Sequence,3_0_5_0_1_1,NA,NA,completion,11615.181,801923,801919.491,801936.009,813551.19,813554.60000002,2023-01-20T17:19:19Z,813567.822,NULL,Entwicklung,maendeleo,s,uangavu,mshindwa,badiliko,NA,sdf,NA,5,NA,NA,NA,NA,NA,NA,NA,NA,NA,NA,NA,NA,NA,NA,NA,NA,NA,NA,NA
a346f,task,flow.Sequence,3_0_5_0_1,NA,NA,completion,11615.181,801922.89999998,801919.491,801936.009,813551.19,813554.69999993,2023-01-20T17:19:19Z,813567.822,NULL,Entwicklung,maendeleo,s,uangavu,mshindwa,badiliko,NA,sdf,NA,5,NA,NA,NA,NA,NA,NA,NA,NA,NA,NA,NA,NA,NA,NA,NA,NA,NA,NA,NA
a346f,Deep Question,html.Page,3_0_5_0_2_0_0,NA,NA,form submission,6767.8779999284,813554.89999998,813551.19,813567.822,820335.69999993,820335.89999998,2023-01-20T17:19:26Z,820366.899,NULL,System,maongozi,d,NA,NA,NA,muengo,NA,NA,5,NA,NA,NA,NA,NA,NA,NA,NA,NA,NA,NA,NA,NA,NA,NA,NA,NA,NA,NA
a346f,"""Richtig""-Screen",canvas.Screen,3_0_5_0_2_0_1,NA,NA,skipped,NA,820337.89999998,NA,NA,820335.69999993,820338,2023-01-20T17:19:26Z,820366.899,NULL,System,maongozi,d,NA,NA,NA,NA,sdf,NA,5,NA,NA,NA,NA,NA,NA,NA,NA,NA,NA,NA,NA,NA,NA,NA,NA,NA,NA,NA
a346f,"""Falsch""-Screen",canvas.Screen,3_0_5_0_2_0_2,NA,NA,timeout,4999.299,820338.69999993,820350.143,820366.899,825349.52,825350.29999995,2023-01-20T17:19:31Z,825366.198,NULL,System,maongozi,d,NA,NA,NA,NA,sdf,0,5,NA,NA,NA,NA,NA,NA,NA,NA,NA,NA,NA,NA,NA,NA,NA,NA,NA,NA,NA
a346f,deep,flow.Sequence,3_0_5_0_2_0,NA,NA,completion,11781.698,813554.89999998,813551.19,813567.822,825349.52,825350.60000002,2023-01-20T17:19:31Z,825366.198,NULL,System,maongozi,d,NA,NA,NA,NA,sdf,NA,5,NA,NA,NA,NA,NA,NA,NA,NA,NA,NA,NA,NA,NA,NA,NA,NA,NA,NA,NA
a346f,shallow,flow.Sequence,3_0_5_0_2_1,NA,NA,skipped,NA,825350.69999993,NA,NA,825349.52,825350.79999995,2023-01-20T17:19:31Z,825366.198,NULL,System,maongozi,d,NA,NA,NA,NA,sdf,NA,5,NA,NA,NA,NA,NA,NA,NA,NA,NA,NA,NA,NA,NA,NA,NA,NA,NA,NA,NA
a346f,task,flow.Sequence,3_0_5_0_2,NA,NA,completion,11781.698,813554.79999995,813551.19,813567.822,825349.52,825350.89999998,2023-01-20T17:19:31Z,825366.198,NULL,System,maongozi,d,NA,NA,NA,NA,sdf,NA,5,NA,NA,NA,NA,NA,NA,NA,NA,NA,NA,NA,NA,NA,NA,NA,NA,NA,NA,NA
a346f,Deep Question,html.Page,3_0_5_0_3_0_0,NA,NA,form submission,24383.601999952,825351,825349.52,825366.198,849749.79999995,849750,2023-01-20T17:19:55Z,849762.776,NULL,Niveau,kiwango,d,NA,NA,NA,mangazari,NA,NA,5,NA,NA,NA,NA,NA,NA,NA,NA,NA,NA,NA,NA,NA,NA,NA,NA,NA,NA,NA
a346f,"""Richtig""-Screen",canvas.Screen,3_0_5_0_3_0_1,NA,NA,skipped,NA,849752.29999995,NA,NA,849749.79999995,849752.39999998,2023-01-20T17:19:55Z,849762.776,NULL,Niveau,kiwango,d,NA,NA,NA,NA,sdf,NA,5,NA,NA,NA,NA,NA,NA,NA,NA,NA,NA,NA,NA,NA,NA,NA,NA,NA,NA,NA
a346f,"""Falsch""-Screen",canvas.Screen,3_0_5_0_3_0_2,NA,NA,timeout,4999.326,849753.19999993,849746.197,849762.776,854745.433,854746.19999993,2023-01-20T17:20:00Z,854762.102,NULL,Niveau,kiwango,d,NA,NA,NA,NA,sdf,0,5,NA,NA,NA,NA,NA,NA,NA,NA,NA,NA,NA,NA,NA,NA,NA,NA,NA,NA,NA
a346f,deep,flow.Sequence,3_0_5_0_3_0,NA,NA,completion,29379.235,825350.89999998,825349.52,825366.198,854745.433,854746.5,2023-01-20T17:20:00Z,854762.102,NULL,Niveau,kiwango,d,NA,NA,NA,NA,sdf,NA,5,NA,NA,NA,NA,NA,NA,NA,NA,NA,NA,NA,NA,NA,NA,NA,NA,NA,NA,NA
a346f,shallow,flow.Sequence,3_0_5_0_3_1,NA,NA,skipped,NA,854746.60000002,NA,NA,854745.433,854746.69999993,2023-01-20T17:20:00Z,854762.102,NULL,Niveau,kiwango,d,NA,NA,NA,NA,sdf,NA,5,NA,NA,NA,NA,NA,NA,NA,NA,NA,NA,NA,NA,NA,NA,NA,NA,NA,NA,NA
a346f,task,flow.Sequence,3_0_5_0_3,NA,NA,completion,29379.235,825350.89999998,825349.52,825366.198,854745.433,854747,2023-01-20T17:20:00Z,854762.102,NULL,Niveau,kiwango,d,NA,NA,NA,NA,sdf,NA,5,NA,NA,NA,NA,NA,NA,NA,NA,NA,NA,NA,NA,NA,NA,NA,NA,NA,NA,NA
a346f,deep,flow.Sequence,3_0_5_0_4_0,NA,NA,skipped,NA,854747.10000002,NA,NA,854745.433,854747.19999993,2023-01-20T17:20:00Z,854762.102,NULL,Übersicht,kilindo,s,mgusano,chipukizi,kulinganisha,NA,sdf,NA,5,NA,NA,NA,NA,NA,NA,NA,NA,NA,NA,NA,NA,NA,NA,NA,NA,NA,NA,NA
a346f,Shallow Question,html.Page,3_0_5_0_4_1_0,NA,NA,form submission,5232.0979999285,854747.29999995,854745.433,854762.102,859994.19999993,859994.39999998,2023-01-20T17:20:06Z,859994.651,NULL,Übersicht,kilindo,s,mgusano,chipukizi,kulinganisha,mgusano,NA,NA,5,NA,NA,NA,NA,NA,NA,NA,NA,NA,NA,NA,NA,NA,NA,NA,NA,NA,NA,NA
a346f,"""Richtig""-Screen",canvas.Screen,3_0_5_0_4_1_1,NA,NA,skipped,NA,859996.89999998,NA,NA,859994.19999993,859997.19999993,2023-01-20T17:20:06Z,859994.651,NULL,Übersicht,kilindo,s,mgusano,chipukizi,kulinganisha,NA,sdf,NA,5,NA,NA,NA,NA,NA,NA,NA,NA,NA,NA,NA,NA,NA,NA,NA,NA,NA,NA,NA
a346f,"""Falsch""-Screen",canvas.Screen,3_0_5_0_4_1_2,NA,NA,timeout,4999.3370000001,859998,859978.112,859994.651,864977.403,864978.10000002,2023-01-20T17:20:11Z,864993.988,NULL,Übersicht,kilindo,s,mgusano,chipukizi,kulinganisha,NA,sdf,0,5,NA,NA,NA,NA,NA,NA,NA,NA,NA,NA,NA,NA,NA,NA,NA,NA,NA,NA,NA
a346f,shallow,flow.Sequence,3_0_5_0_4_1,NA,NA,completion,10215.301,854747.29999995,854745.433,854762.102,864977.403,864978.39999998,2023-01-20T17:20:11Z,864993.988,NULL,Übersicht,kilindo,s,mgusano,chipukizi,kulinganisha,NA,sdf,NA,5,NA,NA,NA,NA,NA,NA,NA,NA,NA,NA,NA,NA,NA,NA,NA,NA,NA,NA,NA
a346f,task,flow.Sequence,3_0_5_0_4,NA,NA,completion,10215.301,854747.10000002,854745.433,854762.102,864977.403,864978.69999993,2023-01-20T17:20:11Z,864993.988,NULL,Übersicht,kilindo,s,mgusano,chipukizi,kulinganisha,NA,sdf,NA,5,NA,NA,NA,NA,NA,NA,NA,NA,NA,NA,NA,NA,NA,NA,NA,NA,NA,NA,NA
a346f,Deep Question,html.Page,3_0_5_0_5_0_0,NA,NA,form submission,3936.3119999523,864978.79999995,864977.403,864993.988,868930.29999995,868930.5,2023-01-20T17:20:15Z,868943.484,NULL,Papier,karatasi,d,NA,NA,NA,karatasi,NA,NA,5,NA,NA,NA,NA,NA,NA,NA,NA,NA,NA,NA,NA,NA,NA,NA,NA,NA,NA,NA
a346f,"""Richtig""-Screen",canvas.Screen,3_0_5_0_5_0_1,NA,NA,timeout,4999.264,868932.89999998,868926.848,868943.484,873926.085,873927,2023-01-20T17:20:19Z,873942.748,NULL,Papier,karatasi,d,NA,NA,NA,NA,sdf,1,5,NA,NA,NA,NA,NA,NA,NA,NA,NA,NA,NA,NA,NA,NA,NA,NA,NA,NA,NA
a346f,"""Falsch""-Screen",canvas.Screen,3_0_5_0_5_0_2,NA,NA,skipped,NA,873929.19999993,NA,NA,873926.085,873929.39999998,2023-01-20T17:20:19Z,873942.748,NULL,Papier,karatasi,d,NA,NA,NA,NA,sdf,NA,5,NA,NA,NA,NA,NA,NA,NA,NA,NA,NA,NA,NA,NA,NA,NA,NA,NA,NA,NA
a346f,deep,flow.Sequence,3_0_5_0_5_0,NA,NA,completion,8932.097,864978.79999995,864977.403,864993.988,873926.085,873929.60000002,2023-01-20T17:20:19Z,873942.748,NULL,Papier,karatasi,d,NA,NA,NA,NA,sdf,NA,5,NA,NA,NA,NA,NA,NA,NA,NA,NA,NA,NA,NA,NA,NA,NA,NA,NA,NA,NA
a346f,shallow,flow.Sequence,3_0_5_0_5_1,NA,NA,skipped,NA,873929.60000002,NA,NA,873926.085,873929.60000002,2023-01-20T17:20:19Z,873942.748,NULL,Papier,karatasi,d,NA,NA,NA,NA,sdf,NA,5,NA,NA,NA,NA,NA,NA,NA,NA,NA,NA,NA,NA,NA,NA,NA,NA,NA,NA,NA
a346f,task,flow.Sequence,3_0_5_0_5,NA,NA,completion,8932.097,864978.69999993,864977.403,864993.988,873926.085,873929.69999993,2023-01-20T17:20:19Z,873942.748,NULL,Papier,karatasi,d,NA,NA,NA,NA,sdf,NA,5,NA,NA,NA,NA,NA,NA,NA,NA,NA,NA,NA,NA,NA,NA,NA,NA,NA,NA,NA
a346f,Deep Question,html.Page,3_0_5_0_6_0_0,NA,NA,form submission,37896.352000024,873929.79999995,873926.085,873942.748,911839.10000002,911839.29999995,2023-01-20T17:20:57Z,911870.787,NULL,Lawine,banguko,d,NA,NA,NA,bungano,NA,NA,5,NA,NA,NA,NA,NA,NA,NA,NA,NA,NA,NA,NA,NA,NA,NA,NA,NA,NA,NA
a346f,"""Richtig""-Screen",canvas.Screen,3_0_5_0_6_0_1,NA,NA,skipped,NA,911841.29999995,NA,NA,911839.10000002,911841.5,2023-01-20T17:20:57Z,911870.787,NULL,Lawine,banguko,d,NA,NA,NA,NA,sdf,NA,5,NA,NA,NA,NA,NA,NA,NA,NA,NA,NA,NA,NA,NA,NA,NA,NA,NA,NA,NA
a346f,"""Falsch""-Screen",canvas.Screen,3_0_5_0_6_0_2,NA,NA,timeout,4999.343,911842.19999993,911854.147,911870.787,916853.513,916854.19999993,2023-01-20T17:21:02Z,916870.13,NULL,Lawine,banguko,d,NA,NA,NA,NA,sdf,0,5,NA,NA,NA,NA,NA,NA,NA,NA,NA,NA,NA,NA,NA,NA,NA,NA,NA,NA,NA
a346f,deep,flow.Sequence,3_0_5_0_6_0,NA,NA,completion,42910.765,873929.79999995,873926.085,873942.748,916853.513,916854.39999998,2023-01-20T17:21:02Z,916870.13,NULL,Lawine,banguko,d,NA,NA,NA,NA,sdf,NA,5,NA,NA,NA,NA,NA,NA,NA,NA,NA,NA,NA,NA,NA,NA,NA,NA,NA,NA,NA
a346f,shallow,flow.Sequence,3_0_5_0_6_1,NA,NA,skipped,NA,916854.5,NA,NA,916853.513,916854.60000002,2023-01-20T17:21:02Z,916870.13,NULL,Lawine,banguko,d,NA,NA,NA,NA,sdf,NA,5,NA,NA,NA,NA,NA,NA,NA,NA,NA,NA,NA,NA,NA,NA,NA,NA,NA,NA,NA
a346f,task,flow.Sequence,3_0_5_0_6,NA,NA,completion,42910.765,873929.79999995,873926.085,873942.748,916853.513,916854.79999995,2023-01-20T17:21:02Z,916870.13,NULL,Lawine,banguko,d,NA,NA,NA,NA,sdf,NA,5,NA,NA,NA,NA,NA,NA,NA,NA,NA,NA,NA,NA,NA,NA,NA,NA,NA,NA,NA
a346f,deep,flow.Sequence,3_0_5_0_7_0,NA,NA,skipped,NA,916854.89999998,NA,NA,916853.513,916854.89999998,2023-01-20T17:21:02Z,916870.13,NULL,Vorwurf,mashtaka,s,msukumo,mtangulizi,uenyekiti,NA,sdf,NA,5,NA,NA,NA,NA,NA,NA,NA,NA,NA,NA,NA,NA,NA,NA,NA,NA,NA,NA,NA
a346f,Shallow Question,html.Page,3_0_5_0_7_1_0,NA,NA,form submission,4338.7699999762,916855.10000002,916853.513,916870.13,921208.89999998,921209.10000002,2023-01-20T17:21:07Z,921219.592,NULL,Vorwurf,mashtaka,s,msukumo,mtangulizi,uenyekiti,mashtaka,NA,NA,5,NA,NA,NA,NA,NA,NA,NA,NA,NA,NA,NA,NA,NA,NA,NA,NA,NA,NA,NA
a346f,"""Richtig""-Screen",canvas.Screen,3_0_5_0_7_1_1,NA,NA,timeout,4999.2120000001,921211.39999998,921202.854,921219.592,926202.101,926202.69999993,2023-01-20T17:21:12Z,926218.804,NULL,Vorwurf,mashtaka,s,msukumo,mtangulizi,uenyekiti,NA,sdf,1,5,NA,NA,NA,NA,NA,NA,NA,NA,NA,NA,NA,NA,NA,NA,NA,NA,NA,NA,NA
a346f,"""Falsch""-Screen",canvas.Screen,3_0_5_0_7_1_2,NA,NA,skipped,NA,926205.10000002,NA,NA,926202.101,926205.29999995,2023-01-20T17:21:12Z,926218.804,NULL,Vorwurf,mashtaka,s,msukumo,mtangulizi,uenyekiti,NA,sdf,NA,5,NA,NA,NA,NA,NA,NA,NA,NA,NA,NA,NA,NA,NA,NA,NA,NA,NA,NA,NA
a346f,shallow,flow.Sequence,3_0_5_0_7_1,NA,NA,completion,9331.971,916855,916853.513,916870.13,926202.101,926205.39999998,2023-01-20T17:21:12Z,926218.804,NULL,Vorwurf,mashtaka,s,msukumo,mtangulizi,uenyekiti,NA,sdf,NA,5,NA,NA,NA,NA,NA,NA,NA,NA,NA,NA,NA,NA,NA,NA,NA,NA,NA,NA,NA
a346f,task,flow.Sequence,3_0_5_0_7,NA,NA,completion,9331.971,916854.89999998,916853.513,916870.13,926202.101,926205.5,2023-01-20T17:21:12Z,926218.804,NULL,Vorwurf,mashtaka,s,msukumo,mtangulizi,uenyekiti,NA,sdf,NA,5,NA,NA,NA,NA,NA,NA,NA,NA,NA,NA,NA,NA,NA,NA,NA,NA,NA,NA,NA
a346f,block,flow.Loop,3_0_5_0,NA,NA,completion,131648.368,794562.19999993,794503.735,794553.733,926202.101,926205.69999993,2023-01-20T17:21:12Z,926218.804,NULL,NA,NA,NA,NA,NA,NA,NA,sdf,NA,5,NA,NA,NA,NA,NA,NA,NA,NA,NA,NA,NA,NA,NA,NA,NA,NA,NA,NA,NA
a346f,weiter,canvas.Screen,3_0_5_1,sdf,keypress(Space),response,693.696,926205.69999993,926202.101,926218.804,926912.5,926913.5,2023-01-20T17:21:12Z,926935.331,NULL,NA,NA,NA,NA,NA,NA,NA,sdf,NA,5,NA,NA,NA,NA,NA,NA,NA,NA,NA,NA,NA,NA,NA,NA,NA,NA,NA,NA,NA
a346f,check continue,flow.Sequence,3_0_5,NA,NA,completion,132358.767,794562.19999993,794503.735,794553.733,926912.5,926913.69999993,2023-01-20T17:21:12Z,926935.331,NULL,NA,NA,NA,NA,NA,NA,NA,sdf,NA,5,NA,NA,NA,NA,NA,NA,NA,NA,NA,NA,NA,NA,NA,NA,NA,NA,NA,NA,NA
a346f,deep,flow.Sequence,3_0_6_0_0_0,NA,NA,skipped,NA,926947.69999993,NA,NA,926912.5,926948.39999998,2023-01-20T17:21:13Z,926935.331,NULL,Entwicklung,maendeleo,s,uangavu,mshindwa,badiliko,NA,dfs,NA,6,NA,NA,NA,NA,NA,NA,NA,NA,NA,NA,NA,NA,NA,NA,NA,NA,NA,NA,NA
a346f,Shallow Question,html.Page,3_0_6_0_0_1_0,NA,NA,form submission,3497.669,926948.60000002,926902.007,926935.331,930433,930433.29999995,2023-01-20T17:21:16Z,930434.824,NULL,Entwicklung,maendeleo,s,uangavu,mshindwa,badiliko,maendeleo,NA,NA,6,NA,NA,NA,NA,NA,NA,NA,NA,NA,NA,NA,NA,NA,NA,NA,NA,NA,NA,NA
a346f,"""Richtig""-Screen",canvas.Screen,3_0_6_0_0_1_1,NA,NA,timeout,4999.3759999999,930435.5,930418.295,930434.824,935417.574,935418.19999993,2023-01-20T17:21:21Z,935434.2,NULL,Entwicklung,maendeleo,s,uangavu,mshindwa,badiliko,NA,dfs,1,6,NA,NA,NA,NA,NA,NA,NA,NA,NA,NA,NA,NA,NA,NA,NA,NA,NA,NA,NA
a346f,"""Falsch""-Screen",canvas.Screen,3_0_6_0_0_1_2,NA,NA,skipped,NA,935420.69999993,NA,NA,935417.574,935420.89999998,2023-01-20T17:21:21Z,935434.2,NULL,Entwicklung,maendeleo,s,uangavu,mshindwa,badiliko,NA,dfs,NA,6,NA,NA,NA,NA,NA,NA,NA,NA,NA,NA,NA,NA,NA,NA,NA,NA,NA,NA,NA
a346f,shallow,flow.Sequence,3_0_6_0_0_1,NA,NA,completion,8482.243,926948.60000002,926902.007,926935.331,935417.574,935421,2023-01-20T17:21:21Z,935434.2,NULL,Entwicklung,maendeleo,s,uangavu,mshindwa,badiliko,NA,dfs,NA,6,NA,NA,NA,NA,NA,NA,NA,NA,NA,NA,NA,NA,NA,NA,NA,NA,NA,NA,NA
a346f,task,flow.Sequence,3_0_6_0_0,NA,NA,completion,8482.243,926947.69999993,926902.007,926935.331,935417.574,935421.19999993,2023-01-20T17:21:21Z,935434.2,NULL,Entwicklung,maendeleo,s,uangavu,mshindwa,badiliko,NA,dfs,NA,6,NA,NA,NA,NA,NA,NA,NA,NA,NA,NA,NA,NA,NA,NA,NA,NA,NA,NA,NA
a346f,deep,flow.Sequence,3_0_6_0_1_0,NA,NA,skipped,NA,935421.29999995,NA,NA,935417.574,935421.39999998,2023-01-20T17:21:21Z,935434.2,NULL,Vorwurf,mashtaka,s,msukumo,mtangulizi,uenyekiti,NA,dfs,NA,6,NA,NA,NA,NA,NA,NA,NA,NA,NA,NA,NA,NA,NA,NA,NA,NA,NA,NA,NA
a346f,Shallow Question,html.Page,3_0_6_0_1_1_0,NA,NA,form submission,4172.8,935421.39999998,935417.574,935434.2,939607,939607.29999995,2023-01-20T17:21:25Z,939616.965,NULL,Vorwurf,mashtaka,s,msukumo,mtangulizi,uenyekiti,mashtaka,NA,NA,6,NA,NA,NA,NA,NA,NA,NA,NA,NA,NA,NA,NA,NA,NA,NA,NA,NA,NA,NA
a346f,"""Richtig""-Screen",canvas.Screen,3_0_6_0_1_1_1,NA,NA,timeout,4999.224,939609.39999998,939600.298,939616.965,944599.559,944600.19999993,2023-01-20T17:21:30Z,944616.189,NULL,Vorwurf,mashtaka,s,msukumo,mtangulizi,uenyekiti,NA,dfs,1,6,NA,NA,NA,NA,NA,NA,NA,NA,NA,NA,NA,NA,NA,NA,NA,NA,NA,NA,NA
a346f,"""Falsch""-Screen",canvas.Screen,3_0_6_0_1_1_2,NA,NA,skipped,NA,944602.69999993,NA,NA,944599.559,944602.79999995,2023-01-20T17:21:30Z,944616.189,NULL,Vorwurf,mashtaka,s,msukumo,mtangulizi,uenyekiti,NA,dfs,NA,6,NA,NA,NA,NA,NA,NA,NA,NA,NA,NA,NA,NA,NA,NA,NA,NA,NA,NA,NA
a346f,shallow,flow.Sequence,3_0_6_0_1_1,NA,NA,completion,9165.3590000001,935421.39999998,935417.574,935434.2,944599.559,944603,2023-01-20T17:21:30Z,944616.189,NULL,Vorwurf,mashtaka,s,msukumo,mtangulizi,uenyekiti,NA,dfs,NA,6,NA,NA,NA,NA,NA,NA,NA,NA,NA,NA,NA,NA,NA,NA,NA,NA,NA,NA,NA
a346f,task,flow.Sequence,3_0_6_0_1,NA,NA,completion,9165.3590000001,935421.29999995,935417.574,935434.2,944599.559,944603,2023-01-20T17:21:30Z,944616.189,NULL,Vorwurf,mashtaka,s,msukumo,mtangulizi,uenyekiti,NA,dfs,NA,6,NA,NA,NA,NA,NA,NA,NA,NA,NA,NA,NA,NA,NA,NA,NA,NA,NA,NA,NA
a346f,Deep Question,html.Page,3_0_6_0_2_0_0,NA,NA,form submission,14006.911000024,944603.19999993,944599.559,944616.189,958623.10000002,958623.39999998,2023-01-20T17:21:44Z,958630.819,NULL,Papier,karatasi,d,NA,NA,NA,katalini,NA,NA,6,NA,NA,NA,NA,NA,NA,NA,NA,NA,NA,NA,NA,NA,NA,NA,NA,NA,NA,NA
