observation,sender,sender_type,sender_id,response,response_action,ended_on,duration,time_run,time_render,time_show,time_end,time_commit,timestamp,time_switch,german,swahili,enc,distractor1,distractor2,distractor3,response_2,x,correct,distractors,url_vp,url_sess,meta_labjs_version,meta_location,meta_user_agent,meta_platform,meta_language,meta_locale,meta_time_zone,meta_timezone_offset,meta_screen_width,meta_screen_height,meta_scroll_width,meta_scroll_height,meta_window_inner_width,meta_window_inner_height,meta_device_pixel_ratio,meta_labjs_build_flavor,meta_labjs_build_commit
d0b08,Introduction delayed retrieval,canvas.Screen,0,weiter,keypress(Space),response,1385.64,2977,2986.7,3053.36,4439,4454,2023-03-11T15:51:58Z,4455.6,NA,NA,NA,NA,NA,NA,NA,NA,NA,NULL,113,4,20.2.4,https://neurocog.fernuni.ch/studies/vweber/delayed%202/index.html?vp=113&sess=4,Mozilla/5.0 (Windows NT 10.0; Win64; x64; rv:109.0) Gecko/20100101 Firefox/109.0,Win32,de,de-CH,Europe/Zurich,-60,1280,720,1280,554,1280,554,1.5,production,f5b4a49f956347addd546a832a3327688c2c0fef
d0b08,Deep Question,html.Page,1_0_0_0,NA,NA,form submission,8267.4,4455,4455.34,4455.6,12723,12725,2023-03-11T15:52:06Z,12725.68,Sympathie,mapendano,d,dhamiria,fungamano,maazimio,k,NA,NA,NULL,NA,NA,NA,NA,NA,NA,NA,NA,NA,NA,NA,NA,NA,NA,NA,NA,NA,NA,NA
d0b08,Save data screen,canvas.Screen,1_0_0_1,NA,NA,timeout,500,12733,12720.26,12725.68,13209,13210,2023-03-11T15:52:07Z,13225.68,Sympathie,mapendano,d,dhamiria,fungamano,maazimio,NA,NA,0,NULL,NA,NA,NA,NA,NA,NA,NA,NA,NA,NA,NA,NA,NA,NA,NA,NA,NA,NA,NA
d0b08,deep,flow.Sequence,1_0_0,NA,NA,completion,8753.4,4455,4455.34,4455.6,13209,13210,2023-03-11T15:52:07Z,13225.68,Sympathie,mapendano,d,dhamiria,fungamano,maazimio,NA,NA,NA,NULL,NA,NA,NA,NA,NA,NA,NA,NA,NA,NA,NA,NA,NA,NA,NA,NA,NA,NA,NA
d0b08,task,flow.Sequence,1_0,NA,NA,completion,8753.4,4455,4455.34,4455.6,13209,13212,2023-03-11T15:52:07Z,13225.68,Sympathie,mapendano,d,dhamiria,fungamano,maazimio,NA,NA,NA,NULL,NA,NA,NA,NA,NA,NA,NA,NA,NA,NA,NA,NA,NA,NA,NA,NA,NA,NA,NA
d0b08,Deep Question,html.Page,1_1_0_0,NA,NA,form submission,2820.32,13212,13209,13225.68,16046,16046,2023-03-11T15:52:10Z,16050.44,Gelegenheit,wakati,s,mchanganyiko,kipaumbele,kushuku,k,NA,NA,NULL,NA,NA,NA,NA,NA,NA,NA,NA,NA,NA,NA,NA,NA,NA,NA,NA,NA,NA,NA
d0b08,Save data screen,canvas.Screen,1_1_0_1,NA,NA,timeout,505.38,16051,16044.52,16050.44,16539.16,16540,2023-03-11T15:52:10Z,16555.82,Gelegenheit,wakati,s,mchanganyiko,kipaumbele,kushuku,NA,NA,0,NULL,NA,NA,NA,NA,NA,NA,NA,NA,NA,NA,NA,NA,NA,NA,NA,NA,NA,NA,NA
d0b08,deep,flow.Sequence,1_1_0,NA,NA,completion,3313.48,13212,13209,13225.68,16539.16,16540,2023-03-11T15:52:10Z,16555.82,Gelegenheit,wakati,s,mchanganyiko,kipaumbele,kushuku,NA,NA,NA,NULL,NA,NA,NA,NA,NA,NA,NA,NA,NA,NA,NA,NA,NA,NA,NA,NA,NA,NA,NA
d0b08,task,flow.Sequence,1_1,NA,NA,completion,3313.48,13212,13209,13225.68,16539.16,16541,2023-03-11T15:52:10Z,16555.82,Gelegenheit,wakati,s,mchanganyiko,kipaumbele,kushuku,NA,NA,NA,NULL,NA,NA,NA,NA,NA,NA,NA,NA,NA,NA,NA,NA,NA,NA,NA,NA,NA,NA,NA
d0b08,Deep Question,html.Page,1_2_0_0,NA,NA,form submission,6277.18,16541,16539.16,16555.82,22833,22834,2023-03-11T15:52:16Z,22841.42,Vorsorge,tahadhari,s,ufafanuzi,makini,mashambani,k,NA,NA,NULL,NA,NA,NA,NA,NA,NA,NA,NA,NA,NA,NA,NA,NA,NA,NA,NA,NA,NA,NA
d0b08,Save data screen,canvas.Screen,1_2_0_1,NA,NA,timeout,499.08,22838,22832.04,22841.42,23323.84,23325,2023-03-11T15:52:17Z,23340.5,Vorsorge,tahadhari,s,ufafanuzi,makini,mashambani,NA,NA,0,NULL,NA,NA,NA,NA,NA,NA,NA,NA,NA,NA,NA,NA,NA,NA,NA,NA,NA,NA,NA
d0b08,deep,flow.Sequence,1_2_0,NA,NA,completion,6768.02,16541,16539.16,16555.82,23323.84,23326,2023-03-11T15:52:17Z,23340.5,Vorsorge,tahadhari,s,ufafanuzi,makini,mashambani,NA,NA,NA,NULL,NA,NA,NA,NA,NA,NA,NA,NA,NA,NA,NA,NA,NA,NA,NA,NA,NA,NA,NA
d0b08,task,flow.Sequence,1_2,NA,NA,completion,6768.02,16541,16539.16,16555.82,23323.84,23326,2023-03-11T15:52:17Z,23340.5,Vorsorge,tahadhari,s,ufafanuzi,makini,mashambani,NA,NA,NA,NULL,NA,NA,NA,NA,NA,NA,NA,NA,NA,NA,NA,NA,NA,NA,NA,NA,NA,NA,NA
d0b08,Deep Question,html.Page,1_3_0_0,NA,NA,form submission,2981.5,23327,23323.84,23340.5,26322,26323,2023-03-11T15:52:20Z,26325.48,Wettbewerb,ushindani,s,mapendezi,kichocheo,ubaguzi,k,NA,NA,NULL,NA,NA,NA,NA,NA,NA,NA,NA,NA,NA,NA,NA,NA,NA,NA,NA,NA,NA,NA
d0b08,Save data screen,canvas.Screen,1_3_0_1,NA,NA,timeout,500,26326,26321.46,26325.48,26808.82,26809,2023-03-11T15:52:20Z,26825.48,Wettbewerb,ushindani,s,mapendezi,kichocheo,ubaguzi,NA,NA,0,NULL,NA,NA,NA,NA,NA,NA,NA,NA,NA,NA,NA,NA,NA,NA,NA,NA,NA,NA,NA
d0b08,deep,flow.Sequence,1_3_0,NA,NA,completion,3468.32,23327,23323.84,23340.5,26808.82,26810,2023-03-11T15:52:20Z,26825.48,Wettbewerb,ushindani,s,mapendezi,kichocheo,ubaguzi,NA,NA,NA,NULL,NA,NA,NA,NA,NA,NA,NA,NA,NA,NA,NA,NA,NA,NA,NA,NA,NA,NA,NA
d0b08,task,flow.Sequence,1_3,NA,NA,completion,3468.32,23327,23323.84,23340.5,26808.82,26810,2023-03-11T15:52:20Z,26825.48,Wettbewerb,ushindani,s,mapendezi,kichocheo,ubaguzi,NA,NA,NA,NULL,NA,NA,NA,NA,NA,NA,NA,NA,NA,NA,NA,NA,NA,NA,NA,NA,NA,NA,NA
d0b08,Deep Question,html.Page,1_4_0_0,NA,NA,form submission,11705.52,26811,26808.82,26825.48,38531,38531,2023-03-11T15:52:32Z,38535.58,Annäherung,maegesho,d,madahili,kujiamini,mapendekezo,mao,NA,NA,NULL,NA,NA,NA,NA,NA,NA,NA,NA,NA,NA,NA,NA,NA,NA,NA,NA,NA,NA,NA
d0b08,Save data screen,canvas.Screen,1_4_0_1,NA,NA,timeout,500,38534,38529.7,38535.58,39018.92,39021,2023-03-11T15:52:33Z,39035.58,Annäherung,maegesho,d,madahili,kujiamini,mapendekezo,NA,NA,0,NULL,NA,NA,NA,NA,NA,NA,NA,NA,NA,NA,NA,NA,NA,NA,NA,NA,NA,NA,NA
d0b08,deep,flow.Sequence,1_4_0,NA,NA,completion,12193.44,26811,26808.82,26825.48,39018.92,39021,2023-03-11T15:52:33Z,39035.58,Annäherung,maegesho,d,madahili,kujiamini,mapendekezo,NA,NA,NA,NULL,NA,NA,NA,NA,NA,NA,NA,NA,NA,NA,NA,NA,NA,NA,NA,NA,NA,NA,NA
d0b08,task,flow.Sequence,1_4,NA,NA,completion,12193.44,26811,26808.82,26825.48,39018.92,39021,2023-03-11T15:52:33Z,39035.58,Annäherung,maegesho,d,madahili,kujiamini,mapendekezo,NA,NA,NA,NULL,NA,NA,NA,NA,NA,NA,NA,NA,NA,NA,NA,NA,NA,NA,NA,NA,NA,NA,NA
d0b08,Deep Question,html.Page,1_5_0_0,NA,NA,form submission,2992.42,39021,39018.92,39035.58,42028,42028,2023-03-11T15:52:36Z,42039.52,Ausschluss,kutengwa,s,ununuzi,taratibu,madeni,k,NA,NA,NULL,NA,NA,NA,NA,NA,NA,NA,NA,NA,NA,NA,NA,NA,NA,NA,NA,NA,NA,NA
d0b08,Save data screen,canvas.Screen,1_5_0_1,NA,NA,timeout,500.02,42032,42027.42,42039.52,42522.88,42525,2023-03-11T15:52:36Z,42539.54,Ausschluss,kutengwa,s,ununuzi,taratibu,madeni,NA,NA,0,NULL,NA,NA,NA,NA,NA,NA,NA,NA,NA,NA,NA,NA,NA,NA,NA,NA,NA,NA,NA
d0b08,deep,flow.Sequence,1_5_0,NA,NA,completion,3487.3,39021,39018.92,39035.58,42522.88,42525,2023-03-11T15:52:36Z,42539.54,Ausschluss,kutengwa,s,ununuzi,taratibu,madeni,NA,NA,NA,NULL,NA,NA,NA,NA,NA,NA,NA,NA,NA,NA,NA,NA,NA,NA,NA,NA,NA,NA,NA
d0b08,task,flow.Sequence,1_5,NA,NA,completion,3487.3,39021,39018.92,39035.58,42522.88,42526,2023-03-11T15:52:36Z,42539.54,Ausschluss,kutengwa,s,ununuzi,taratibu,madeni,NA,NA,NA,NULL,NA,NA,NA,NA,NA,NA,NA,NA,NA,NA,NA,NA,NA,NA,NA,NA,NA,NA,NA
d0b08,Deep Question,html.Page,1_6_0_0,NA,NA,form submission,3641.46,42526,42522.88,42539.54,46181,46181,2023-03-11T15:52:40Z,46190.46,Zuwachs,nyongeza,d,matilaba,udhibiti,hudhurio,k,NA,NA,NULL,NA,NA,NA,NA,NA,NA,NA,NA,NA,NA,NA,NA,NA,NA,NA,NA,NA,NA,NA
d0b08,Save data screen,canvas.Screen,1_6_0_1,NA,NA,timeout,500,46184,46180.18,46190.46,46673.8,46674,2023-03-11T15:52:40Z,46690.46,Zuwachs,nyongeza,d,matilaba,udhibiti,hudhurio,NA,NA,0,NULL,NA,NA,NA,NA,NA,NA,NA,NA,NA,NA,NA,NA,NA,NA,NA,NA,NA,NA,NA
d0b08,deep,flow.Sequence,1_6_0,NA,NA,completion,4134.26,42526,42522.88,42539.54,46673.8,46674,2023-03-11T15:52:40Z,46690.46,Zuwachs,nyongeza,d,matilaba,udhibiti,hudhurio,NA,NA,NA,NULL,NA,NA,NA,NA,NA,NA,NA,NA,NA,NA,NA,NA,NA,NA,NA,NA,NA,NA,NA
d0b08,task,flow.Sequence,1_6,NA,NA,completion,4134.26,42526,42522.88,42539.54,46673.8,46676,2023-03-11T15:52:40Z,46690.46,Zuwachs,nyongeza,d,matilaba,udhibiti,hudhurio,NA,NA,NA,NULL,NA,NA,NA,NA,NA,NA,NA,NA,NA,NA,NA,NA,NA,NA,NA,NA,NA,NA,NA
d0b08,Deep Question,html.Page,1_7_0_0,NA,NA,form submission,2546.54,46676,46673.8,46690.46,49237,49237,2023-03-11T15:52:43Z,49241.72,Zufall,kikuti,d,kukosekana,uchoraji,leseni,k,NA,NA,NULL,NA,NA,NA,NA,NA,NA,NA,NA,NA,NA,NA,NA,NA,NA,NA,NA,NA,NA,NA
d0b08,Save data screen,canvas.Screen,1_7_0_1,NA,NA,timeout,499.94,49240,49235.78,49241.72,49724.98,49726,2023-03-11T15:52:43Z,49741.66,Zufall,kikuti,d,kukosekana,uchoraji,leseni,NA,NA,0,NULL,NA,NA,NA,NA,NA,NA,NA,NA,NA,NA,NA,NA,NA,NA,NA,NA,NA,NA,NA
d0b08,deep,flow.Sequence,1_7_0,NA,NA,completion,3034.52,46676,46673.8,46690.46,49724.98,49726,2023-03-11T15:52:43Z,49741.66,Zufall,kikuti,d,kukosekana,uchoraji,leseni,NA,NA,NA,NULL,NA,NA,NA,NA,NA,NA,NA,NA,NA,NA,NA,NA,NA,NA,NA,NA,NA,NA,NA
d0b08,task,flow.Sequence,1_7,NA,NA,completion,3034.52,46676,46673.8,46690.46,49724.98,49726,2023-03-11T15:52:43Z,49741.66,Zufall,kikuti,d,kukosekana,uchoraji,leseni,NA,NA,NA,NULL,NA,NA,NA,NA,NA,NA,NA,NA,NA,NA,NA,NA,NA,NA,NA,NA,NA,NA,NA
d0b08,Deep Question,html.Page,1_8_0_0,NA,NA,form submission,1852.34,49726,49724.98,49741.66,51594,51594,2023-03-11T15:52:45Z,51598.94,Beweis,ushahidi,s,marudio,kizuizi,mtendaji,k,NA,NA,NULL,NA,NA,NA,NA,NA,NA,NA,NA,NA,NA,NA,NA,NA,NA,NA,NA,NA,NA,NA
d0b08,Save data screen,canvas.Screen,1_8_0_1,NA,NA,timeout,499.98,51597,51593.08,51598.94,52082.26,52083,2023-03-11T15:52:46Z,52098.92,Beweis,ushahidi,s,marudio,kizuizi,mtendaji,NA,NA,0,NULL,NA,NA,NA,NA,NA,NA,NA,NA,NA,NA,NA,NA,NA,NA,NA,NA,NA,NA,NA
d0b08,deep,flow.Sequence,1_8_0,NA,NA,completion,2340.6,49726,49724.98,49741.66,52082.26,52083,2023-03-11T15:52:46Z,52098.92,Beweis,ushahidi,s,marudio,kizuizi,mtendaji,NA,NA,NA,NULL,NA,NA,NA,NA,NA,NA,NA,NA,NA,NA,NA,NA,NA,NA,NA,NA,NA,NA,NA
d0b08,task,flow.Sequence,1_8,NA,NA,completion,2340.6,49726,49724.98,49741.66,52082.26,52083,2023-03-11T15:52:46Z,52098.92,Beweis,ushahidi,s,marudio,kizuizi,mtendaji,NA,NA,NA,NULL,NA,NA,NA,NA,NA,NA,NA,NA,NA,NA,NA,NA,NA,NA,NA,NA,NA,NA,NA
d0b08,Deep Question,html.Page,1_9_0_0,NA,NA,form submission,5992.08,52083,52082.26,52098.92,58091,58091,2023-03-11T15:52:52Z,58096.7,Symbol,kielezo,d,kinyume,nderemo,utayari,k,NA,NA,NULL,NA,NA,NA,NA,NA,NA,NA,NA,NA,NA,NA,NA,NA,NA,NA,NA,NA,NA,NA
d0b08,Save data screen,canvas.Screen,1_9_0_1,NA,NA,timeout,501.58,58093,58089.84,58096.7,58581.62,58582,2023-03-11T15:52:52Z,58598.28,Symbol,kielezo,d,kinyume,nderemo,utayari,NA,NA,0,NULL,NA,NA,NA,NA,NA,NA,NA,NA,NA,NA,NA,NA,NA,NA,NA,NA,NA,NA,NA
d0b08,deep,flow.Sequence,1_9_0,NA,NA,completion,6482.7,52083,52082.26,52098.92,58581.62,58582,2023-03-11T15:52:52Z,58598.28,Symbol,kielezo,d,kinyume,nderemo,utayari,NA,NA,NA,NULL,NA,NA,NA,NA,NA,NA,NA,NA,NA,NA,NA,NA,NA,NA,NA,NA,NA,NA,NA
d0b08,task,flow.Sequence,1_9,NA,NA,completion,6482.7,52083,52082.26,52098.92,58581.62,58583,2023-03-11T15:52:52Z,58598.28,Symbol,kielezo,d,kinyume,nderemo,utayari,NA,NA,NA,NULL,NA,NA,NA,NA,NA,NA,NA,NA,NA,NA,NA,NA,NA,NA,NA,NA,NA,NA,NA
d0b08,Deep Question,html.Page,1_10_0_0,NA,NA,form submission,8909.72,58583,58581.62,58598.28,67508,67508,2023-03-11T15:53:01Z,67507.72,Polizist,msongora,s,simanzi,mandhari,nidhamu,k,NA,NA,NULL,NA,NA,NA,NA,NA,NA,NA,NA,NA,NA,NA,NA,NA,NA,NA,NA,NA,NA,NA
d0b08,Save data screen,canvas.Screen,1_10_0_1,NA,NA,timeout,495.58,67511,67507.5,67507.72,67986.64,67989,2023-03-11T15:53:02Z,68003.3,Polizist,msongora,s,simanzi,mandhari,nidhamu,NA,NA,0,NULL,NA,NA,NA,NA,NA,NA,NA,NA,NA,NA,NA,NA,NA,NA,NA,NA,NA,NA,NA
d0b08,deep,flow.Sequence,1_10_0,NA,NA,completion,9388.36,58583,58581.62,58598.28,67986.64,67991,2023-03-11T15:53:02Z,68003.3,Polizist,msongora,s,simanzi,mandhari,nidhamu,NA,NA,NA,NULL,NA,NA,NA,NA,NA,NA,NA,NA,NA,NA,NA,NA,NA,NA,NA,NA,NA,NA,NA
d0b08,task,flow.Sequence,1_10,NA,NA,completion,9388.36,58583,58581.62,58598.28,67986.64,67992,2023-03-11T15:53:02Z,68003.3,Polizist,msongora,s,simanzi,mandhari,nidhamu,NA,NA,NA,NULL,NA,NA,NA,NA,NA,NA,NA,NA,NA,NA,NA,NA,NA,NA,NA,NA,NA,NA,NA
d0b08,Deep Question,html.Page,1_11_0_0,NA,NA,form submission,1822.7,67992,67986.64,68003.3,69826,69827,2023-03-11T15:53:03Z,69830.72,Widerstand,usulubu,d,kusababisha,mwalimu,mwenendo,k,NA,NA,NULL,NA,NA,NA,NA,NA,NA,NA,NA,NA,NA,NA,NA,NA,NA,NA,NA,NA,NA,NA
d0b08,Save data screen,canvas.Screen,1_11_0_1,NA,NA,timeout,505.39999999999,69831,69824.78,69830.72,70319.44,70320,2023-03-11T15:53:04Z,70336.12,Widerstand,usulubu,d,kusababisha,mwalimu,mwenendo,NA,NA,0,NULL,NA,NA,NA,NA,NA,NA,NA,NA,NA,NA,NA,NA,NA,NA,NA,NA,NA,NA,NA
d0b08,deep,flow.Sequence,1_11_0,NA,NA,completion,2316.14,67992,67986.64,68003.3,70319.44,70321,2023-03-11T15:53:04Z,70336.12,Widerstand,usulubu,d,kusababisha,mwalimu,mwenendo,NA,NA,NA,NULL,NA,NA,NA,NA,NA,NA,NA,NA,NA,NA,NA,NA,NA,NA,NA,NA,NA,NA,NA
d0b08,task,flow.Sequence,1_11,NA,NA,completion,2316.14,67992,67986.64,68003.3,70319.44,70322,2023-03-11T15:53:04Z,70336.12,Widerstand,usulubu,d,kusababisha,mwalimu,mwenendo,NA,NA,NA,NULL,NA,NA,NA,NA,NA,NA,NA,NA,NA,NA,NA,NA,NA,NA,NA,NA,NA,NA,NA
d0b08,Deep Question,html.Page,1_12_0_0,NA,NA,form submission,2545.88,70323,70319.44,70336.12,72882,72882,2023-03-11T15:53:06Z,72881,Verstand,ufahamivu,d,shakawa,hadhari,mhandisi,k,NA,NA,NULL,NA,NA,NA,NA,NA,NA,NA,NA,NA,NA,NA,NA,NA,NA,NA,NA,NA,NA,NA
d0b08,Save data screen,canvas.Screen,1_12_0_1,NA,NA,timeout,491.67999999999,72885,72880.66,72881,73356.02,73356,2023-03-11T15:53:07Z,73372.68,Verstand,ufahamivu,d,shakawa,hadhari,mhandisi,NA,NA,0,NULL,NA,NA,NA,NA,NA,NA,NA,NA,NA,NA,NA,NA,NA,NA,NA,NA,NA,NA,NA
d0b08,deep,flow.Sequence,1_12_0,NA,NA,completion,3019.9,70323,70319.44,70336.12,73356.02,73357,2023-03-11T15:53:07Z,73372.68,Verstand,ufahamivu,d,shakawa,hadhari,mhandisi,NA,NA,NA,NULL,NA,NA,NA,NA,NA,NA,NA,NA,NA,NA,NA,NA,NA,NA,NA,NA,NA,NA,NA
d0b08,task,flow.Sequence,1_12,NA,NA,completion,3019.9,70323,70319.44,70336.12,73356.02,73358,2023-03-11T15:53:07Z,73372.68,Verstand,ufahamivu,d,shakawa,hadhari,mhandisi,NA,NA,NA,NULL,NA,NA,NA,NA,NA,NA,NA,NA,NA,NA,NA,NA,NA,NA,NA,NA,NA,NA,NA
d0b08,Deep Question,html.Page,1_13_0_0,NA,NA,form submission,8605.32,73358,73356.02,73372.68,81978,81979,2023-03-11T15:53:16Z,81976.78,Auftrag,uagizaji,s,ghanima,kuzingatia,msukani,k,NA,NA,NULL,NA,NA,NA,NA,NA,NA,NA,NA,NA,NA,NA,NA,NA,NA,NA,NA,NA,NA,NA
d0b08,Save data screen,canvas.Screen,1_13_0_1,NA,NA,timeout,498.64,81981,81976.48,81976.78,82458.74,82460,2023-03-11T15:53:16Z,82475.42,Auftrag,uagizaji,s,ghanima,kuzingatia,msukani,NA,NA,0,NULL,NA,NA,NA,NA,NA,NA,NA,NA,NA,NA,NA,NA,NA,NA,NA,NA,NA,NA,NA
d0b08,deep,flow.Sequence,1_13_0,NA,NA,completion,9086.06,73358,73356.02,73372.68,82458.74,82460,2023-03-11T15:53:16Z,82475.42,Auftrag,uagizaji,s,ghanima,kuzingatia,msukani,NA,NA,NA,NULL,NA,NA,NA,NA,NA,NA,NA,NA,NA,NA,NA,NA,NA,NA,NA,NA,NA,NA,NA
d0b08,task,flow.Sequence,1_13,NA,NA,completion,9086.06,73358,73356.02,73372.68,82458.74,82461,2023-03-11T15:53:16Z,82475.42,Auftrag,uagizaji,s,ghanima,kuzingatia,msukani,NA,NA,NA,NULL,NA,NA,NA,NA,NA,NA,NA,NA,NA,NA,NA,NA,NA,NA,NA,NA,NA,NA,NA
d0b08,Deep Question,html.Page,1_14_0_0,NA,NA,form submission,5859.58,82461,82458.74,82475.42,88335,88335,2023-03-11T15:53:22Z,88334.5,Konkurrent,mshindani,s,msemaji,mvutaji,kipukusa,dani,NA,NA,NULL,NA,NA,NA,NA,NA,NA,NA,NA,NA,NA,NA,NA,NA,NA,NA,NA,NA,NA,NA
d0b08,Save data screen,canvas.Screen,1_14_0_1,NA,NA,timeout,505.67999999999,88337,88334.26,88334.5,88823.5,88824,2023-03-11T15:53:22Z,88840.18,Konkurrent,mshindani,s,msemaji,mvutaji,kipukusa,NA,NA,0,NULL,NA,NA,NA,NA,NA,NA,NA,NA,NA,NA,NA,NA,NA,NA,NA,NA,NA,NA,NA
d0b08,deep,flow.Sequence,1_14_0,NA,NA,completion,6348.08,82461,82458.74,82475.42,88823.5,88825,2023-03-11T15:53:22Z,88840.18,Konkurrent,mshindani,s,msemaji,mvutaji,kipukusa,NA,NA,NA,NULL,NA,NA,NA,NA,NA,NA,NA,NA,NA,NA,NA,NA,NA,NA,NA,NA,NA,NA,NA
d0b08,task,flow.Sequence,1_14,NA,NA,completion,6348.08,82461,82458.74,82475.42,88823.5,88825,2023-03-11T15:53:22Z,88840.18,Konkurrent,mshindani,s,msemaji,mvutaji,kipukusa,NA,NA,NA,NULL,NA,NA,NA,NA,NA,NA,NA,NA,NA,NA,NA,NA,NA,NA,NA,NA,NA,NA,NA
d0b08,Deep Question,html.Page,1_15_0_0,NA,NA,form submission,2555.82,88825,88823.5,88840.18,91396,91396,2023-03-11T15:53:25Z,91395.3,Schönheit,kirembo,d,mahojiano,msisimko,jitihadi,k,NA,NA,NULL,NA,NA,NA,NA,NA,NA,NA,NA,NA,NA,NA,NA,NA,NA,NA,NA,NA,NA,NA
d0b08,Save data screen,canvas.Screen,1_15_0_1,NA,NA,timeout,498.62,91398,91395.1,91395.3,91877.26,91878,2023-03-11T15:53:25Z,91893.92,Schönheit,kirembo,d,mahojiano,msisimko,jitihadi,NA,NA,0,NULL,NA,NA,NA,NA,NA,NA,NA,NA,NA,NA,NA,NA,NA,NA,NA,NA,NA,NA,NA
d0b08,deep,flow.Sequence,1_15_0,NA,NA,completion,3037.08,88825,88823.5,88840.18,91877.26,91878,2023-03-11T15:53:25Z,91893.92,Schönheit,kirembo,d,mahojiano,msisimko,jitihadi,NA,NA,NA,NULL,NA,NA,NA,NA,NA,NA,NA,NA,NA,NA,NA,NA,NA,NA,NA,NA,NA,NA,NA
d0b08,task,flow.Sequence,1_15,NA,NA,completion,3037.08,88825,88823.5,88840.18,91877.26,91878,2023-03-11T15:53:25Z,91893.92,Schönheit,kirembo,d,mahojiano,msisimko,jitihadi,NA,NA,NA,NULL,NA,NA,NA,NA,NA,NA,NA,NA,NA,NA,NA,NA,NA,NA,NA,NA,NA,NA,NA
d0b08,retrieval block 1 (cued recall),flow.Loop,1,NA,NA,completion,87421.66,4455,4455.34,4455.6,91877.26,91878,2023-03-11T15:53:25Z,91893.92,NA,NA,NA,NA,NA,NA,NA,NA,NA,NULL,NA,NA,NA,NA,NA,NA,NA,NA,NA,NA,NA,NA,NA,NA,NA,NA,NA,NA,NA
d0b08,Shallow Question,html.Page,2_0_0_0,NA,NA,form submission,6326.08,91879,91877.26,91893.92,98220,98220,2023-03-11T15:53:32Z,98230.96,Vorsorge,tahadhari,s,ufafanuzi,makini,mashambani,tahadhari,NA,NA,"c(""distractor1"", ""distractor2"", ""distractor3"")",NA,NA,NA,NA,NA,NA,NA,NA,NA,NA,NA,NA,NA,NA,NA,NA,NA,NA,NA
d0b08,Save data screen,canvas.Screen,2_0_0_1,NA,NA,timeout,500,98224,98217.72,98230.96,98714.3,98715,2023-03-11T15:53:32Z,98730.96,Vorsorge,tahadhari,s,ufafanuzi,makini,mashambani,NA,NA,1,"c(""distractor1"", ""distractor2"", ""distractor3"")",NA,NA,NA,NA,NA,NA,NA,NA,NA,NA,NA,NA,NA,NA,NA,NA,NA,NA,NA
d0b08,shallow,flow.Sequence,2_0_0,NA,NA,completion,6820.38,91879,91877.26,91893.92,98714.3,98715,2023-03-11T15:53:32Z,98730.96,Vorsorge,tahadhari,s,ufafanuzi,makini,mashambani,NA,NA,NA,"c(""distractor1"", ""distractor2"", ""distractor3"")",NA,NA,NA,NA,NA,NA,NA,NA,NA,NA,NA,NA,NA,NA,NA,NA,NA,NA,NA
d0b08,task,flow.Sequence,2_0,NA,NA,completion,6820.38,91879,91877.26,91893.92,98714.3,98715,2023-03-11T15:53:32Z,98730.96,Vorsorge,tahadhari,s,ufafanuzi,makini,mashambani,NA,NA,NA,"c(""distractor1"", ""distractor2"", ""distractor3"")",NA,NA,NA,NA,NA,NA,NA,NA,NA,NA,NA,NA,NA,NA,NA,NA,NA,NA,NA
d0b08,Shallow Question,html.Page,2_1_0_0,NA,NA,form submission,3903.04,98716,98714.3,98730.96,102634,102634,2023-03-11T15:53:36Z,102633.84,Ausschluss,kutengwa,s,ununuzi,taratibu,madeni,kutengwa,NA,NA,"c(""distractor1"", ""distractor2"", ""distractor3"")",NA,NA,NA,NA,NA,NA,NA,NA,NA,NA,NA,NA,NA,NA,NA,NA,NA,NA,NA
d0b08,Save data screen,canvas.Screen,2_1_0_1,NA,NA,timeout,494.48000000001,102636,102633.68,102633.84,103111.64,103112,2023-03-11T15:53:37Z,103128.32,Ausschluss,kutengwa,s,ununuzi,taratibu,madeni,NA,NA,1,"c(""distractor1"", ""distractor2"", ""distractor3"")",NA,NA,NA,NA,NA,NA,NA,NA,NA,NA,NA,NA,NA,NA,NA,NA,NA,NA,NA
d0b08,shallow,flow.Sequence,2_1_0,NA,NA,completion,4380.68,98716,98714.3,98730.96,103111.64,103113,2023-03-11T15:53:37Z,103128.32,Ausschluss,kutengwa,s,ununuzi,taratibu,madeni,NA,NA,NA,"c(""distractor1"", ""distractor2"", ""distractor3"")",NA,NA,NA,NA,NA,NA,NA,NA,NA,NA,NA,NA,NA,NA,NA,NA,NA,NA,NA
d0b08,task,flow.Sequence,2_1,NA,NA,completion,4380.68,98716,98714.3,98730.96,103111.64,103113,2023-03-11T15:53:37Z,103128.32,Ausschluss,kutengwa,s,ununuzi,taratibu,madeni,NA,NA,NA,"c(""distractor1"", ""distractor2"", ""distractor3"")",NA,NA,NA,NA,NA,NA,NA,NA,NA,NA,NA,NA,NA,NA,NA,NA,NA,NA,NA
d0b08,Shallow Question,html.Page,2_2_0_0,NA,NA,form submission,3421.68,103114,103111.64,103128.32,106550,106550,2023-03-11T15:53:40Z,106548.94,Zufall,kikuti,d,kukosekana,uchoraji,leseni,kikuti,NA,NA,"c(""distractor1"", ""distractor2"", ""distractor3"")",NA,NA,NA,NA,NA,NA,NA,NA,NA,NA,NA,NA,NA,NA,NA,NA,NA,NA,NA
d0b08,Save data screen,canvas.Screen,2_2_0_1,NA,NA,timeout,505.7,106551,106548.6,106548.94,107037.96,107039,2023-03-11T15:53:41Z,107054.64,Zufall,kikuti,d,kukosekana,uchoraji,leseni,NA,NA,1,"c(""distractor1"", ""distractor2"", ""distractor3"")",NA,NA,NA,NA,NA,NA,NA,NA,NA,NA,NA,NA,NA,NA,NA,NA,NA,NA,NA
d0b08,shallow,flow.Sequence,2_2_0,NA,NA,completion,3909.64,103113,103111.64,103128.32,107037.96,107040,2023-03-11T15:53:41Z,107054.64,Zufall,kikuti,d,kukosekana,uchoraji,leseni,NA,NA,NA,"c(""distractor1"", ""distractor2"", ""distractor3"")",NA,NA,NA,NA,NA,NA,NA,NA,NA,NA,NA,NA,NA,NA,NA,NA,NA,NA,NA
d0b08,task,flow.Sequence,2_2,NA,NA,completion,3909.64,103113,103111.64,103128.32,107037.96,107040,2023-03-11T15:53:41Z,107054.64,Zufall,kikuti,d,kukosekana,uchoraji,leseni,NA,NA,NA,"c(""distractor1"", ""distractor2"", ""distractor3"")",NA,NA,NA,NA,NA,NA,NA,NA,NA,NA,NA,NA,NA,NA,NA,NA,NA,NA,NA
d0b08,Shallow Question,html.Page,2_3_0_0,NA,NA,form submission,6368.36,107040,107037.96,107054.64,113423,113423,2023-03-11T15:53:47Z,113422.24,Annäherung,maegesho,d,madahili,kujiamini,mapendekezo,maegesho,NA,NA,"c(""distractor1"", ""distractor2"", ""distractor3"")",NA,NA,NA,NA,NA,NA,NA,NA,NA,NA,NA,NA,NA,NA,NA,NA,NA,NA,NA
d0b08,Save data screen,canvas.Screen,2_3_0_1,NA,NA,timeout,494.08,113424,113422.02,113422.24,113899.66,113901,2023-03-11T15:53:47Z,113916.32,Annäherung,maegesho,d,madahili,kujiamini,mapendekezo,NA,NA,1,"c(""distractor1"", ""distractor2"", ""distractor3"")",NA,NA,NA,NA,NA,NA,NA,NA,NA,NA,NA,NA,NA,NA,NA,NA,NA,NA,NA
d0b08,shallow,flow.Sequence,2_3_0,NA,NA,completion,6845.02,107040,107037.96,107054.64,113899.66,113901,2023-03-11T15:53:47Z,113916.32,Annäherung,maegesho,d,madahili,kujiamini,mapendekezo,NA,NA,NA,"c(""distractor1"", ""distractor2"", ""distractor3"")",NA,NA,NA,NA,NA,NA,NA,NA,NA,NA,NA,NA,NA,NA,NA,NA,NA,NA,NA
d0b08,task,flow.Sequence,2_3,NA,NA,completion,6845.02,107040,107037.96,107054.64,113899.66,113901,2023-03-11T15:53:47Z,113916.32,Annäherung,maegesho,d,madahili,kujiamini,mapendekezo,NA,NA,NA,"c(""distractor1"", ""distractor2"", ""distractor3"")",NA,NA,NA,NA,NA,NA,NA,NA,NA,NA,NA,NA,NA,NA,NA,NA,NA,NA,NA
d0b08,Shallow Question,html.Page,2_4_0_0,NA,NA,form submission,3378.68,113901,113899.66,113916.32,117295,117295,2023-03-11T15:53:51Z,117297.74,Konkurrent,mshindani,s,msemaji,mvutaji,kipukusa,mshindani,NA,NA,"c(""distractor1"", ""distractor2"", ""distractor3"")",NA,NA,NA,NA,NA,NA,NA,NA,NA,NA,NA,NA,NA,NA,NA,NA,NA,NA,NA
d0b08,Save data screen,canvas.Screen,2_4_0_1,NA,NA,timeout,500,117297,117293.92,117297.74,117781.06,117781,2023-03-11T15:53:51Z,117797.74,Konkurrent,mshindani,s,msemaji,mvutaji,kipukusa,NA,NA,1,"c(""distractor1"", ""distractor2"", ""distractor3"")",NA,NA,NA,NA,NA,NA,NA,NA,NA,NA,NA,NA,NA,NA,NA,NA,NA,NA,NA
d0b08,shallow,flow.Sequence,2_4_0,NA,NA,completion,3864.74,113901,113899.66,113916.32,117781.06,117782,2023-03-11T15:53:51Z,117797.74,Konkurrent,mshindani,s,msemaji,mvutaji,kipukusa,NA,NA,NA,"c(""distractor1"", ""distractor2"", ""distractor3"")",NA,NA,NA,NA,NA,NA,NA,NA,NA,NA,NA,NA,NA,NA,NA,NA,NA,NA,NA
d0b08,task,flow.Sequence,2_4,NA,NA,completion,3864.74,113901,113899.66,113916.32,117781.06,117782,2023-03-11T15:53:51Z,117797.74,Konkurrent,mshindani,s,msemaji,mvutaji,kipukusa,NA,NA,NA,"c(""distractor1"", ""distractor2"", ""distractor3"")",NA,NA,NA,NA,NA,NA,NA,NA,NA,NA,NA,NA,NA,NA,NA,NA,NA,NA,NA
d0b08,Shallow Question,html.Page,2_5_0_0,NA,NA,form submission,2803.26,117783,117781.06,117797.74,120601,120601,2023-03-11T15:53:54Z,120599.88,Auftrag,uagizaji,s,ghanima,kuzingatia,msukani,uagizaji,NA,NA,"c(""distractor1"", ""distractor2"", ""distractor3"")",NA,NA,NA,NA,NA,NA,NA,NA,NA,NA,NA,NA,NA,NA,NA,NA,NA,NA,NA
d0b08,Save data screen,canvas.Screen,2_5_0_1,NA,NA,timeout,497.87999999999,120604,120599.74,120599.88,121081.1,121084,2023-03-11T15:53:55Z,121097.76,Auftrag,uagizaji,s,ghanima,kuzingatia,msukani,NA,NA,1,"c(""distractor1"", ""distractor2"", ""distractor3"")",NA,NA,NA,NA,NA,NA,NA,NA,NA,NA,NA,NA,NA,NA,NA,NA,NA,NA,NA
d0b08,shallow,flow.Sequence,2_5_0,NA,NA,completion,3283.36,117783,117781.06,117797.74,121081.1,121086,2023-03-11T15:53:55Z,121097.76,Auftrag,uagizaji,s,ghanima,kuzingatia,msukani,NA,NA,NA,"c(""distractor1"", ""distractor2"", ""distractor3"")",NA,NA,NA,NA,NA,NA,NA,NA,NA,NA,NA,NA,NA,NA,NA,NA,NA,NA,NA
d0b08,task,flow.Sequence,2_5,NA,NA,completion,3283.36,117782,117781.06,117797.74,121081.1,121087,2023-03-11T15:53:55Z,121097.76,Auftrag,uagizaji,s,ghanima,kuzingatia,msukani,NA,NA,NA,"c(""distractor1"", ""distractor2"", ""distractor3"")",NA,NA,NA,NA,NA,NA,NA,NA,NA,NA,NA,NA,NA,NA,NA,NA,NA,NA,NA
d0b08,Shallow Question,html.Page,2_6_0_0,NA,NA,form submission,5300.24,121088,121081.1,121097.76,126398,126400,2023-03-11T15:54:00Z,126403.28,Gelegenheit,wakati,s,mchanganyiko,kipaumbele,kushuku,wakati,NA,NA,"c(""distractor1"", ""distractor2"", ""distractor3"")",NA,NA,NA,NA,NA,NA,NA,NA,NA,NA,NA,NA,NA,NA,NA,NA,NA,NA,NA
d0b08,Save data screen,canvas.Screen,2_6_0_1,NA,NA,timeout,500,126407,126395.66,126403.28,126886.62,126888,2023-03-11T15:54:00Z,126903.28,Gelegenheit,wakati,s,mchanganyiko,kipaumbele,kushuku,NA,NA,1,"c(""distractor1"", ""distractor2"", ""distractor3"")",NA,NA,NA,NA,NA,NA,NA,NA,NA,NA,NA,NA,NA,NA,NA,NA,NA,NA,NA
d0b08,shallow,flow.Sequence,2_6_0,NA,NA,completion,5788.86,121088,121081.1,121097.76,126886.62,126889,2023-03-11T15:54:00Z,126903.28,Gelegenheit,wakati,s,mchanganyiko,kipaumbele,kushuku,NA,NA,NA,"c(""distractor1"", ""distractor2"", ""distractor3"")",NA,NA,NA,NA,NA,NA,NA,NA,NA,NA,NA,NA,NA,NA,NA,NA,NA,NA,NA
d0b08,task,flow.Sequence,2_6,NA,NA,completion,5788.86,121087,121081.1,121097.76,126886.62,126890,2023-03-11T15:54:00Z,126903.28,Gelegenheit,wakati,s,mchanganyiko,kipaumbele,kushuku,NA,NA,NA,"c(""distractor1"", ""distractor2"", ""distractor3"")",NA,NA,NA,NA,NA,NA,NA,NA,NA,NA,NA,NA,NA,NA,NA,NA,NA,NA,NA
d0b08,Shallow Question,html.Page,2_7_0_0,NA,NA,form submission,6333.72,126892,126886.62,126903.28,133237,133238,2023-03-11T15:54:07Z,133242.4,Symbol,kielezo,d,kinyume,nderemo,utayari,kielezo,NA,NA,"c(""distractor1"", ""distractor2"", ""distractor3"")",NA,NA,NA,NA,NA,NA,NA,NA,NA,NA,NA,NA,NA,NA,NA,NA,NA,NA,NA
d0b08,Save data screen,canvas.Screen,2_7_0_1,NA,NA,timeout,499.98000000001,133242,133236.5,133242.4,133725.72,133727,2023-03-11T15:54:07Z,133742.38,Symbol,kielezo,d,kinyume,nderemo,utayari,NA,NA,1,"c(""distractor1"", ""distractor2"", ""distractor3"")",NA,NA,NA,NA,NA,NA,NA,NA,NA,NA,NA,NA,NA,NA,NA,NA,NA,NA,NA
d0b08,shallow,flow.Sequence,2_7_0,NA,NA,completion,6822.44,126892,126886.62,126903.28,133725.72,133727,2023-03-11T15:54:07Z,133742.38,Symbol,kielezo,d,kinyume,nderemo,utayari,NA,NA,NA,"c(""distractor1"", ""distractor2"", ""distractor3"")",NA,NA,NA,NA,NA,NA,NA,NA,NA,NA,NA,NA,NA,NA,NA,NA,NA,NA,NA
d0b08,task,flow.Sequence,2_7,NA,NA,completion,6822.44,126892,126886.62,126903.28,133725.72,133728,2023-03-11T15:54:07Z,133742.38,Symbol,kielezo,d,kinyume,nderemo,utayari,NA,NA,NA,"c(""distractor1"", ""distractor2"", ""distractor3"")",NA,NA,NA,NA,NA,NA,NA,NA,NA,NA,NA,NA,NA,NA,NA,NA,NA,NA,NA
d0b08,Shallow Question,html.Page,2_8_0_0,NA,NA,form submission,3618.62,133729,133725.72,133742.38,137361,137362,2023-03-11T15:54:11Z,137364.96,Widerstand,usulubu,d,kusababisha,mwalimu,mwenendo,usulubu,NA,NA,"c(""distractor1"", ""distractor2"", ""distractor3"")",NA,NA,NA,NA,NA,NA,NA,NA,NA,NA,NA,NA,NA,NA,NA,NA,NA,NA,NA
d0b08,Save data screen,canvas.Screen,2_8_0_1,NA,NA,timeout,499.98000000001,137364,137359.06,137364.96,137848.28,137849,2023-03-11T15:54:11Z,137864.94,Widerstand,usulubu,d,kusababisha,mwalimu,mwenendo,NA,NA,1,"c(""distractor1"", ""distractor2"", ""distractor3"")",NA,NA,NA,NA,NA,NA,NA,NA,NA,NA,NA,NA,NA,NA,NA,NA,NA,NA,NA
d0b08,shallow,flow.Sequence,2_8_0,NA,NA,completion,4105.9,133729,133725.72,133742.38,137848.28,137850,2023-03-11T15:54:11Z,137864.94,Widerstand,usulubu,d,kusababisha,mwalimu,mwenendo,NA,NA,NA,"c(""distractor1"", ""distractor2"", ""distractor3"")",NA,NA,NA,NA,NA,NA,NA,NA,NA,NA,NA,NA,NA,NA,NA,NA,NA,NA,NA
d0b08,task,flow.Sequence,2_8,NA,NA,completion,4105.9,133729,133725.72,133742.38,137848.28,137850,2023-03-11T15:54:11Z,137864.94,Widerstand,usulubu,d,kusababisha,mwalimu,mwenendo,NA,NA,NA,"c(""distractor1"", ""distractor2"", ""distractor3"")",NA,NA,NA,NA,NA,NA,NA,NA,NA,NA,NA,NA,NA,NA,NA,NA,NA,NA,NA
d0b08,Shallow Question,html.Page,2_9_0_0,NA,NA,form submission,10015.06,137851,137848.28,137864.94,147880,147881,2023-03-11T15:54:21Z,147879.88,Sympathie,mapendano,d,dhamiria,fungamano,maazimio,dhamiria,NA,NA,"c(""distractor1"", ""distractor2"", ""distractor3"")",NA,NA,NA,NA,NA,NA,NA,NA,NA,NA,NA,NA,NA,NA,NA,NA,NA,NA,NA
d0b08,Save data screen,canvas.Screen,2_9_0_1,NA,NA,timeout,493.07999999999,147883,147879.72,147879.88,148356.28,148358,2023-03-11T15:54:22Z,148372.96,Sympathie,mapendano,d,dhamiria,fungamano,maazimio,NA,NA,0,"c(""distractor1"", ""distractor2"", ""distractor3"")",NA,NA,NA,NA,NA,NA,NA,NA,NA,NA,NA,NA,NA,NA,NA,NA,NA,NA,NA
d0b08,shallow,flow.Sequence,2_9_0,NA,NA,completion,10491.34,137851,137848.28,137864.94,148356.28,148358,2023-03-11T15:54:22Z,148372.96,Sympathie,mapendano,d,dhamiria,fungamano,maazimio,NA,NA,NA,"c(""distractor1"", ""distractor2"", ""distractor3"")",NA,NA,NA,NA,NA,NA,NA,NA,NA,NA,NA,NA,NA,NA,NA,NA,NA,NA,NA
d0b08,task,flow.Sequence,2_9,NA,NA,completion,10491.34,137850,137848.28,137864.94,148356.28,148358,2023-03-11T15:54:22Z,148372.96,Sympathie,mapendano,d,dhamiria,fungamano,maazimio,NA,NA,NA,"c(""distractor1"", ""distractor2"", ""distractor3"")",NA,NA,NA,NA,NA,NA,NA,NA,NA,NA,NA,NA,NA,NA,NA,NA,NA,NA,NA
d0b08,Shallow Question,html.Page,2_10_0_0,NA,NA,form submission,5970.04,148360,148356.28,148372.96,154343,154344,2023-03-11T15:54:28Z,154342.2,Polizist,msongora,s,simanzi,mandhari,nidhamu,msongora,NA,NA,"c(""distractor1"", ""distractor2"", ""distractor3"")",NA,NA,NA,NA,NA,NA,NA,NA,NA,NA,NA,NA,NA,NA,NA,NA,NA,NA,NA
d0b08,Save data screen,canvas.Screen,2_10_0_1,NA,NA,timeout,505.67999999999,154346,154342.02,154342.2,154831.22,154832,2023-03-11T15:54:28Z,154847.88,Polizist,msongora,s,simanzi,mandhari,nidhamu,NA,NA,1,"c(""distractor1"", ""distractor2"", ""distractor3"")",NA,NA,NA,NA,NA,NA,NA,NA,NA,NA,NA,NA,NA,NA,NA,NA,NA,NA,NA
d0b08,shallow,flow.Sequence,2_10_0,NA,NA,completion,6458.26,148360,148356.28,148372.96,154831.22,154832,2023-03-11T15:54:28Z,154847.88,Polizist,msongora,s,simanzi,mandhari,nidhamu,NA,NA,NA,"c(""distractor1"", ""distractor2"", ""distractor3"")",NA,NA,NA,NA,NA,NA,NA,NA,NA,NA,NA,NA,NA,NA,NA,NA,NA,NA,NA
d0b08,task,flow.Sequence,2_10,NA,NA,completion,6458.26,148360,148356.28,148372.96,154831.22,154833,2023-03-11T15:54:28Z,154847.88,Polizist,msongora,s,simanzi,mandhari,nidhamu,NA,NA,NA,"c(""distractor1"", ""distractor2"", ""distractor3"")",NA,NA,NA,NA,NA,NA,NA,NA,NA,NA,NA,NA,NA,NA,NA,NA,NA,NA,NA
d0b08,Shallow Question,html.Page,2_11_0_0,NA,NA,form submission,7692.12,154833,154831.22,154847.88,162540,162540,2023-03-11T15:54:36Z,162539.18,Beweis,ushahidi,s,marudio,kizuizi,mtendaji,ushahidi,NA,NA,"c(""distractor1"", ""distractor2"", ""distractor3"")",NA,NA,NA,NA,NA,NA,NA,NA,NA,NA,NA,NA,NA,NA,NA,NA,NA,NA,NA
d0b08,Save data screen,canvas.Screen,2_11_0_1,NA,NA,timeout,494.44,162542,162538.98,162539.18,163016.96,163018,2023-03-11T15:54:37Z,163033.62,Beweis,ushahidi,s,marudio,kizuizi,mtendaji,NA,NA,1,"c(""distractor1"", ""distractor2"", ""distractor3"")",NA,NA,NA,NA,NA,NA,NA,NA,NA,NA,NA,NA,NA,NA,NA,NA,NA,NA,NA
d0b08,shallow,flow.Sequence,2_11_0,NA,NA,completion,8169.08,154833,154831.22,154847.88,163016.96,163018,2023-03-11T15:54:37Z,163033.62,Beweis,ushahidi,s,marudio,kizuizi,mtendaji,NA,NA,NA,"c(""distractor1"", ""distractor2"", ""distractor3"")",NA,NA,NA,NA,NA,NA,NA,NA,NA,NA,NA,NA,NA,NA,NA,NA,NA,NA,NA
d0b08,task,flow.Sequence,2_11,NA,NA,completion,8169.08,154833,154831.22,154847.88,163016.96,163019,2023-03-11T15:54:37Z,163033.62,Beweis,ushahidi,s,marudio,kizuizi,mtendaji,NA,NA,NA,"c(""distractor1"", ""distractor2"", ""distractor3"")",NA,NA,NA,NA,NA,NA,NA,NA,NA,NA,NA,NA,NA,NA,NA,NA,NA,NA,NA
d0b08,Shallow Question,html.Page,2_12_0_0,NA,NA,form submission,4698.38,163019,163016.96,163033.62,167732,167733,2023-03-11T15:54:41Z,167731.68,Wettbewerb,ushindani,s,mapendezi,kichocheo,ubaguzi,ushindani,NA,NA,"c(""distractor1"", ""distractor2"", ""distractor3"")",NA,NA,NA,NA,NA,NA,NA,NA,NA,NA,NA,NA,NA,NA,NA,NA,NA,NA,NA
d0b08,Save data screen,canvas.Screen,2_12_0_1,NA,NA,timeout,497.54000000001,167735,167731.5,167731.68,168212.54,168213,2023-03-11T15:54:42Z,168229.22,Wettbewerb,ushindani,s,mapendezi,kichocheo,ubaguzi,NA,NA,1,"c(""distractor1"", ""distractor2"", ""distractor3"")",NA,NA,NA,NA,NA,NA,NA,NA,NA,NA,NA,NA,NA,NA,NA,NA,NA,NA,NA
d0b08,shallow,flow.Sequence,2_12_0,NA,NA,completion,5178.92,163019,163016.96,163033.62,168212.54,168214,2023-03-11T15:54:42Z,168229.22,Wettbewerb,ushindani,s,mapendezi,kichocheo,ubaguzi,NA,NA,NA,"c(""distractor1"", ""distractor2"", ""distractor3"")",NA,NA,NA,NA,NA,NA,NA,NA,NA,NA,NA,NA,NA,NA,NA,NA,NA,NA,NA
d0b08,task,flow.Sequence,2_12,NA,NA,completion,5178.92,163019,163016.96,163033.62,168212.54,168214,2023-03-11T15:54:42Z,168229.22,Wettbewerb,ushindani,s,mapendezi,kichocheo,ubaguzi,NA,NA,NA,"c(""distractor1"", ""distractor2"", ""distractor3"")",NA,NA,NA,NA,NA,NA,NA,NA,NA,NA,NA,NA,NA,NA,NA,NA,NA,NA,NA
d0b08,Shallow Question,html.Page,2_13_0_0,NA,NA,form submission,5958.78,168214,168212.54,168229.22,174188,174188,2023-03-11T15:54:48Z,174192.98,Zuwachs,nyongeza,d,matilaba,udhibiti,hudhurio,udhibiti,NA,NA,"c(""distractor1"", ""distractor2"", ""distractor3"")",NA,NA,NA,NA,NA,NA,NA,NA,NA,NA,NA,NA,NA,NA,NA,NA,NA,NA,NA
d0b08,Save data screen,canvas.Screen,2_13_0_1,NA,NA,timeout,505.39999999999,174191,174187.1,174192.98,174681.72,174682,2023-03-11T15:54:48Z,174698.38,Zuwachs,nyongeza,d,matilaba,udhibiti,hudhurio,NA,NA,0,"c(""distractor1"", ""distractor2"", ""distractor3"")",NA,NA,NA,NA,NA,NA,NA,NA,NA,NA,NA,NA,NA,NA,NA,NA,NA,NA,NA
d0b08,shallow,flow.Sequence,2_13_0,NA,NA,completion,6452.5,168214,168212.54,168229.22,174681.72,174682,2023-03-11T15:54:48Z,174698.38,Zuwachs,nyongeza,d,matilaba,udhibiti,hudhurio,NA,NA,NA,"c(""distractor1"", ""distractor2"", ""distractor3"")",NA,NA,NA,NA,NA,NA,NA,NA,NA,NA,NA,NA,NA,NA,NA,NA,NA,NA,NA
d0b08,task,flow.Sequence,2_13,NA,NA,completion,6452.5,168214,168212.54,168229.22,174681.72,174684,2023-03-11T15:54:48Z,174698.38,Zuwachs,nyongeza,d,matilaba,udhibiti,hudhurio,NA,NA,NA,"c(""distractor1"", ""distractor2"", ""distractor3"")",NA,NA,NA,NA,NA,NA,NA,NA,NA,NA,NA,NA,NA,NA,NA,NA,NA,NA,NA
d0b08,Shallow Question,html.Page,2_14_0_0,NA,NA,form submission,3257.62,174684,174681.72,174698.38,177956,177957,2023-03-11T15:54:51Z,177961.22,Verstand,ufahamivu,d,shakawa,hadhari,mhandisi,ufahamivu,NA,NA,"c(""distractor1"", ""distractor2"", ""distractor3"")",NA,NA,NA,NA,NA,NA,NA,NA,NA,NA,NA,NA,NA,NA,NA,NA,NA,NA,NA
d0b08,Save data screen,canvas.Screen,2_14_0_1,NA,NA,timeout,505.42000000001,177959,177955.34,177961.22,178449.98,178451,2023-03-11T15:54:52Z,178466.64,Verstand,ufahamivu,d,shakawa,hadhari,mhandisi,NA,NA,1,"c(""distractor1"", ""distractor2"", ""distractor3"")",NA,NA,NA,NA,NA,NA,NA,NA,NA,NA,NA,NA,NA,NA,NA,NA,NA,NA,NA
d0b08,shallow,flow.Sequence,2_14_0,NA,NA,completion,3751.6,174684,174681.72,174698.38,178449.98,178452,2023-03-11T15:54:52Z,178466.64,Verstand,ufahamivu,d,shakawa,hadhari,mhandisi,NA,NA,NA,"c(""distractor1"", ""distractor2"", ""distractor3"")",NA,NA,NA,NA,NA,NA,NA,NA,NA,NA,NA,NA,NA,NA,NA,NA,NA,NA,NA
d0b08,task,flow.Sequence,2_14,NA,NA,completion,3751.6,174684,174681.72,174698.38,178449.98,178452,2023-03-11T15:54:52Z,178466.64,Verstand,ufahamivu,d,shakawa,hadhari,mhandisi,NA,NA,NA,"c(""distractor1"", ""distractor2"", ""distractor3"")",NA,NA,NA,NA,NA,NA,NA,NA,NA,NA,NA,NA,NA,NA,NA,NA,NA,NA,NA
d0b08,Shallow Question,html.Page,2_15_0_0,NA,NA,form submission,4919.36,178452,178449.98,178466.64,183386,183388,2023-03-11T15:54:57Z,183390.32,Schönheit,kirembo,d,mahojiano,msisimko,jitihadi,kirembo,NA,NA,"c(""distractor1"", ""distractor2"", ""distractor3"")",NA,NA,NA,NA,NA,NA,NA,NA,NA,NA,NA,NA,NA,NA,NA,NA,NA,NA,NA
d0b08,Save data screen,canvas.Screen,2_15_0_1,NA,NA,timeout,500,183395,183384.44,183390.32,183873.64,183875,2023-03-11T15:54:57Z,183890.32,Schönheit,kirembo,d,mahojiano,msisimko,jitihadi,NA,NA,1,"c(""distractor1"", ""distractor2"", ""distractor3"")",NA,NA,NA,NA,NA,NA,NA,NA,NA,NA,NA,NA,NA,NA,NA,NA,NA,NA,NA
d0b08,shallow,flow.Sequence,2_15_0,NA,NA,completion,5407,178452,178449.98,178466.64,183873.64,183875,2023-03-11T15:54:57Z,183890.32,Schönheit,kirembo,d,mahojiano,msisimko,jitihadi,NA,NA,NA,"c(""distractor1"", ""distractor2"", ""distractor3"")",NA,NA,NA,NA,NA,NA,NA,NA,NA,NA,NA,NA,NA,NA,NA,NA,NA,NA,NA
d0b08,task,flow.Sequence,2_15,NA,NA,completion,5407,178452,178449.98,178466.64,183873.64,183876,2023-03-11T15:54:57Z,183890.32,Schönheit,kirembo,d,mahojiano,msisimko,jitihadi,NA,NA,NA,"c(""distractor1"", ""distractor2"", ""distractor3"")",NA,NA,NA,NA,NA,NA,NA,NA,NA,NA,NA,NA,NA,NA,NA,NA,NA,NA,NA
d0b08,retrieval block 2 (multiple choice),flow.Loop,2,NA,NA,completion,91979.72,91878,91877.26,91893.92,183873.64,183877,2023-03-11T15:54:57Z,183890.32,NA,NA,NA,NA,NA,NA,NA,NA,NA,"c(""distractor1"", ""distractor2"", ""distractor3"")",NA,NA,NA,NA,NA,NA,NA,NA,NA,NA,NA,NA,NA,NA,NA,NA,NA,NA,NA
d0b08,End,canvas.Screen,3,NA,keypress(Space),response,1220.68,183878,183873.64,183890.32,185111,185127,2023-03-11T15:54:59Z,185134.64,NA,NA,NA,NA,NA,NA,NA,NA,NA,NULL,NA,NA,NA,NA,NA,NA,NA,NA,NA,NA,NA,NA,NA,NA,NA,NA,NA,NA,NA
d0b08,root,flow.Sequence,NA,NA,NA,completion,182057.64,2977,2986.7,3053.36,185111,185131,2023-03-11T15:54:59Z,185134.64,NA,NA,NA,NA,NA,NA,NA,NA,NA,NULL,NA,NA,NA,NA,NA,NA,NA,NA,NA,NA,NA,NA,NA,NA,NA,NA,NA,NA,NA
