observation,sender,sender_type,sender_id,response,response_action,ended_on,duration,time_run,time_render,time_show,time_end,time_commit,timestamp,time_switch,distractors,german,swahili,enc,distractor1,distractor2,distractor3,response_2,x,correct,x_2,url_vp,url_sess,meta_labjs_version,meta_location,meta_user_agent,meta_platform,meta_language,meta_locale,meta_time_zone,meta_timezone_offset,meta_screen_width,meta_screen_height,meta_scroll_width,meta_scroll_height,meta_window_inner_width,meta_window_inner_height,meta_device_pixel_ratio,meta_labjs_build_flavor,meta_labjs_build_commit
80029,Introduction general,canvas.Screen,0,weiter,keypress(q),response,661569.386,210.80000000075,60.12,210.114,661779.5,661788.7,2023-02-02T14:13:40Z,661805.106,NULL,NA,NA,NA,NA,NA,NA,NA,NA,NA,NA,110,1,20.2.4,https://neurocog.fernuni.ch/studies/vweber/encoding_immediate/index.html?vp=110&sess=1,"Mozilla/5.0 (Macintosh; Intel Mac OS X 10_15_7) AppleWebKit/537.36 (KHTML, like Gecko) Chrome/109.0.0.0 Safari/537.36",MacIntel,de-DE,de,Europe/Zurich,-60,1440,900,1440,690,1440,738,2,production,f5b4a49f956347addd546a832a3327688c2c0fef
80029,Introduction practice,canvas.Screen,1_0,NA,keypress(Space),response,1306.4940000015,661789.2,661771.774,661805.106,663111.6,663115,2023-02-02T14:13:42Z,663144.506,NULL,NA,NA,NA,NA,NA,NA,NA,NA,NA,NA,NA,NA,NA,NA,NA,NA,NA,NA,NA,NA,NA,NA,NA,NA,NA,NA,NA,NA,NA
80029,deep,flow.Sequence,1_1_0_0,NA,NA,skipped,NA,663115.4,NA,NA,663111.6,663115.7,2023-02-02T14:13:42Z,663144.506,"c(""distractor1"", ""distractor2"", ""distractor3"")",Gegenwart,hadhara,s,katiba,jokofu,mikopo,NA,NA,NA,NA,NA,NA,NA,NA,NA,NA,NA,NA,NA,NA,NA,NA,NA,NA,NA,NA,NA,NA,NA
80029,Shallow Question,html.Page,1_1_0_1_0,NA,NA,form submission,6414.4939999999,663116,663111.174,663144.506,669559,669559.4,2023-02-02T14:13:48Z,669577.582,"c(""distractor1"", ""distractor2"", ""distractor3"")",Gegenwart,hadhara,s,katiba,jokofu,mikopo,katiba,NA,NA,NA,NA,NA,NA,NA,NA,NA,NA,NA,NA,NA,NA,NA,NA,NA,NA,NA,NA,NA,NA
80029,"""Richtig""-Screen",canvas.Screen,1_1_0_1_1,NA,NA,skipped,NA,669561.5,NA,NA,669559,669561.7,2023-02-02T14:13:48Z,669577.582,"c(""distractor1"", ""distractor2"", ""distractor3"")",Gegenwart,hadhara,s,katiba,jokofu,mikopo,NA,NA,NA,NA,NA,NA,NA,NA,NA,NA,NA,NA,NA,NA,NA,NA,NA,NA,NA,NA,NA,NA,NA
80029,"""Falsch""-Screen",canvas.Screen,1_1_0_1_2,NA,NA,timeout,5000.4349999999,669562.7,669544.25,669577.582,674544.05,674549.8,2023-02-02T14:13:53Z,674578.017,"c(""distractor1"", ""distractor2"", ""distractor3"")",Gegenwart,hadhara,s,katiba,jokofu,mikopo,NA,NA,0,NA,NA,NA,NA,NA,NA,NA,NA,NA,NA,NA,NA,NA,NA,NA,NA,NA,NA,NA,NA
80029,shallow,flow.Sequence,1_1_0_1,NA,NA,completion,11399.544,663115.9,663111.174,663144.506,674544.05,674550.3,2023-02-02T14:13:53Z,674578.017,"c(""distractor1"", ""distractor2"", ""distractor3"")",Gegenwart,hadhara,s,katiba,jokofu,mikopo,NA,NA,NA,NA,NA,NA,NA,NA,NA,NA,NA,NA,NA,NA,NA,NA,NA,NA,NA,NA,NA,NA,NA
80029,task,flow.Sequence,1_1_0,NA,NA,completion,11399.544,663115.4,663111.174,663144.506,674544.05,674550.6,2023-02-02T14:13:53Z,674578.017,"c(""distractor1"", ""distractor2"", ""distractor3"")",Gegenwart,hadhara,s,katiba,jokofu,mikopo,NA,NA,NA,NA,NA,NA,NA,NA,NA,NA,NA,NA,NA,NA,NA,NA,NA,NA,NA,NA,NA,NA,NA
80029,Deep Question,html.Page,1_1_1_0_0,NA,NA,form submission,6257.5830000015,674550.9,674544.05,674578.017,680835.6,680836.2,2023-02-02T14:13:59Z,680861.099,"c(""distractor1"", ""distractor2"", ""distractor3"")",Qualität,mtindo,d,NA,NA,NA,kitba,NA,NA,NA,NA,NA,NA,NA,NA,NA,NA,NA,NA,NA,NA,NA,NA,NA,NA,NA,NA,NA,NA
80029,"""Richtig""-Screen",canvas.Screen,1_1_1_0_1,NA,NA,skipped,NA,680839.2,NA,NA,680835.6,680839.3,2023-02-02T14:13:59Z,680861.099,"c(""distractor1"", ""distractor2"", ""distractor3"")",Qualität,mtindo,d,NA,NA,NA,NA,NA,NA,NA,NA,NA,NA,NA,NA,NA,NA,NA,NA,NA,NA,NA,NA,NA,NA,NA,NA,NA,NA
80029,"""Falsch""-Screen",canvas.Screen,1_1_1_0_2,NA,NA,timeout,5000.375,680840.2,680827.767,680861.099,685827.567,685829.8,2023-02-02T14:14:04Z,685861.474,"c(""distractor1"", ""distractor2"", ""distractor3"")",Qualität,mtindo,d,NA,NA,NA,NA,NA,0,NA,NA,NA,NA,NA,NA,NA,NA,NA,NA,NA,NA,NA,NA,NA,NA,NA,NA,NA,NA
80029,deep,flow.Sequence,1_1_1_0,NA,NA,completion,11249.55,674550.9,674544.05,674578.017,685827.567,685830.4,2023-02-02T14:14:04Z,685861.474,"c(""distractor1"", ""distractor2"", ""distractor3"")",Qualität,mtindo,d,NA,NA,NA,NA,NA,NA,NA,NA,NA,NA,NA,NA,NA,NA,NA,NA,NA,NA,NA,NA,NA,NA,NA,NA,NA,NA
80029,shallow,flow.Sequence,1_1_1_1,NA,NA,skipped,NA,685830.5,NA,NA,685827.567,685830.8,2023-02-02T14:14:04Z,685861.474,"c(""distractor1"", ""distractor2"", ""distractor3"")",Qualität,mtindo,d,NA,NA,NA,NA,NA,NA,NA,NA,NA,NA,NA,NA,NA,NA,NA,NA,NA,NA,NA,NA,NA,NA,NA,NA,NA,NA
80029,task,flow.Sequence,1_1_1,NA,NA,completion,11249.55,674550.7,674544.05,674578.017,685827.567,685831,2023-02-02T14:14:04Z,685861.474,"c(""distractor1"", ""distractor2"", ""distractor3"")",Qualität,mtindo,d,NA,NA,NA,NA,NA,NA,NA,NA,NA,NA,NA,NA,NA,NA,NA,NA,NA,NA,NA,NA,NA,NA,NA,NA,NA,NA
80029,Deep Question,html.Page,1_1_2_0_0,NA,NA,form submission,3610.9260000022,685831.2,685827.567,685861.474,689472.4,689472.9,2023-02-02T14:14:08Z,689494.662,"c(""distractor1"", ""distractor2"", ""distractor3"")",Gesundheit,salama,d,NA,NA,NA,santa,NA,NA,NA,NA,NA,NA,NA,NA,NA,NA,NA,NA,NA,NA,NA,NA,NA,NA,NA,NA,NA,NA
80029,"""Richtig""-Screen",canvas.Screen,1_1_2_0_1,NA,NA,skipped,NA,689475.7,NA,NA,689472.4,689475.9,2023-02-02T14:14:08Z,689494.662,"c(""distractor1"", ""distractor2"", ""distractor3"")",Gesundheit,salama,d,NA,NA,NA,NA,NA,NA,NA,NA,NA,NA,NA,NA,NA,NA,NA,NA,NA,NA,NA,NA,NA,NA,NA,NA,NA,NA
80029,"""Falsch""-Screen",canvas.Screen,1_1_2_0_2,NA,NA,timeout,4999.8,689476.8,689461.33,689494.662,694461.13,694463.4,2023-02-02T14:14:13Z,694494.462,"c(""distractor1"", ""distractor2"", ""distractor3"")",Gesundheit,salama,d,NA,NA,NA,NA,NA,0,NA,NA,NA,NA,NA,NA,NA,NA,NA,NA,NA,NA,NA,NA,NA,NA,NA,NA,NA,NA
80029,deep,flow.Sequence,1_1_2_0,NA,NA,completion,8599.656,685831.1,685827.567,685861.474,694461.13,694463.9,2023-02-02T14:14:13Z,694494.462,"c(""distractor1"", ""distractor2"", ""distractor3"")",Gesundheit,salama,d,NA,NA,NA,NA,NA,NA,NA,NA,NA,NA,NA,NA,NA,NA,NA,NA,NA,NA,NA,NA,NA,NA,NA,NA,NA,NA
80029,shallow,flow.Sequence,1_1_2_1,NA,NA,skipped,NA,694464,NA,NA,694461.13,694464.2,2023-02-02T14:14:13Z,694494.462,"c(""distractor1"", ""distractor2"", ""distractor3"")",Gesundheit,salama,d,NA,NA,NA,NA,NA,NA,NA,NA,NA,NA,NA,NA,NA,NA,NA,NA,NA,NA,NA,NA,NA,NA,NA,NA,NA,NA
80029,task,flow.Sequence,1_1_2,NA,NA,completion,8599.656,685831.1,685827.567,685861.474,694461.13,694464.4,2023-02-02T14:14:13Z,694494.462,"c(""distractor1"", ""distractor2"", ""distractor3"")",Gesundheit,salama,d,NA,NA,NA,NA,NA,NA,NA,NA,NA,NA,NA,NA,NA,NA,NA,NA,NA,NA,NA,NA,NA,NA,NA,NA,NA,NA
80029,deep,flow.Sequence,1_1_3_0,NA,NA,skipped,NA,694464.6,NA,NA,694461.13,694464.7,2023-02-02T14:14:13Z,694494.462,"c(""distractor1"", ""distractor2"", ""distractor3"")",Rückhalt,msaada,s,muhula,auwali,kiwimbe,NA,NA,NA,NA,NA,NA,NA,NA,NA,NA,NA,NA,NA,NA,NA,NA,NA,NA,NA,NA,NA,NA,NA
80029,Shallow Question,html.Page,1_1_3_1_0,NA,NA,form submission,5365.1380000014,694464.8,694461.13,694494.462,699859.6,699860.1,2023-02-02T14:14:19Z,699878.092,"c(""distractor1"", ""distractor2"", ""distractor3"")",Rückhalt,msaada,s,muhula,auwali,kiwimbe,msaada,NA,NA,NA,NA,NA,NA,NA,NA,NA,NA,NA,NA,NA,NA,NA,NA,NA,NA,NA,NA,NA,NA
80029,"""Richtig""-Screen",canvas.Screen,1_1_3_1_1,NA,NA,timeout,5016.466,699862.7,699844.76,699878.092,704861.226,704862.6,2023-02-02T14:14:24Z,704894.558,"c(""distractor1"", ""distractor2"", ""distractor3"")",Rückhalt,msaada,s,muhula,auwali,kiwimbe,NA,NA,1,NA,NA,NA,NA,NA,NA,NA,NA,NA,NA,NA,NA,NA,NA,NA,NA,NA,NA,NA,NA
80029,"""Falsch""-Screen",canvas.Screen,1_1_3_1_2,NA,NA,skipped,NA,704867.3,NA,NA,704861.226,704867.5,2023-02-02T14:14:24Z,704894.558,"c(""distractor1"", ""distractor2"", ""distractor3"")",Rückhalt,msaada,s,muhula,auwali,kiwimbe,NA,NA,NA,NA,NA,NA,NA,NA,NA,NA,NA,NA,NA,NA,NA,NA,NA,NA,NA,NA,NA,NA,NA
80029,shallow,flow.Sequence,1_1_3_1,NA,NA,completion,10366.764,694464.8,694461.13,694494.462,704861.226,704867.6,2023-02-02T14:14:24Z,704894.558,"c(""distractor1"", ""distractor2"", ""distractor3"")",Rückhalt,msaada,s,muhula,auwali,kiwimbe,NA,NA,NA,NA,NA,NA,NA,NA,NA,NA,NA,NA,NA,NA,NA,NA,NA,NA,NA,NA,NA,NA,NA
80029,task,flow.Sequence,1_1_3,NA,NA,completion,10366.764,694464.5,694461.13,694494.462,704861.226,704867.8,2023-02-02T14:14:24Z,704894.558,"c(""distractor1"", ""distractor2"", ""distractor3"")",Rückhalt,msaada,s,muhula,auwali,kiwimbe,NA,NA,NA,NA,NA,NA,NA,NA,NA,NA,NA,NA,NA,NA,NA,NA,NA,NA,NA,NA,NA,NA,NA
80029,Deep Question,html.Page,1_1_4_0_0,NA,NA,form submission,3462.6419999993,704868,704861.226,704894.558,708357.2,708357.7,2023-02-02T14:14:27Z,708378.27,"c(""distractor1"", ""distractor2"", ""distractor3"")",Schatten,kivuli,d,NA,NA,NA,mbawe,NA,NA,NA,NA,NA,NA,NA,NA,NA,NA,NA,NA,NA,NA,NA,NA,NA,NA,NA,NA,NA,NA
80029,"""Richtig""-Screen",canvas.Screen,1_1_4_0_1,NA,NA,skipped,NA,708360.2,NA,NA,708357.2,708360.3,2023-02-02T14:14:27Z,708378.27,"c(""distractor1"", ""distractor2"", ""distractor3"")",Schatten,kivuli,d,NA,NA,NA,NA,NA,NA,NA,NA,NA,NA,NA,NA,NA,NA,NA,NA,NA,NA,NA,NA,NA,NA,NA,NA,NA,NA
80029,"""Falsch""-Screen",canvas.Screen,1_1_4_0_2,NA,NA,timeout,4999.7999999999,708360.8,708344.938,708378.27,713344.738,713347.5,2023-02-02T14:14:32Z,713378.07,"c(""distractor1"", ""distractor2"", ""distractor3"")",Schatten,kivuli,d,NA,NA,NA,NA,NA,0,NA,NA,NA,NA,NA,NA,NA,NA,NA,NA,NA,NA,NA,NA,NA,NA,NA,NA,NA,NA
80029,deep,flow.Sequence,1_1_4_0,NA,NA,completion,8450.1800000001,704868,704861.226,704894.558,713344.738,713348,2023-02-02T14:14:32Z,713378.07,"c(""distractor1"", ""distractor2"", ""distractor3"")",Schatten,kivuli,d,NA,NA,NA,NA,NA,NA,NA,NA,NA,NA,NA,NA,NA,NA,NA,NA,NA,NA,NA,NA,NA,NA,NA,NA,NA,NA
80029,shallow,flow.Sequence,1_1_4_1,NA,NA,skipped,NA,713348.2,NA,NA,713344.738,713348.3,2023-02-02T14:14:32Z,713378.07,"c(""distractor1"", ""distractor2"", ""distractor3"")",Schatten,kivuli,d,NA,NA,NA,NA,NA,NA,NA,NA,NA,NA,NA,NA,NA,NA,NA,NA,NA,NA,NA,NA,NA,NA,NA,NA,NA,NA
80029,task,flow.Sequence,1_1_4,NA,NA,completion,8450.1800000001,704867.9,704861.226,704894.558,713344.738,713348.5,2023-02-02T14:14:32Z,713378.07,"c(""distractor1"", ""distractor2"", ""distractor3"")",Schatten,kivuli,d,NA,NA,NA,NA,NA,NA,NA,NA,NA,NA,NA,NA,NA,NA,NA,NA,NA,NA,NA,NA,NA,NA,NA,NA,NA,NA
80029,deep,flow.Sequence,1_1_5_0,NA,NA,skipped,NA,713348.7,NA,NA,713344.738,713348.8,2023-02-02T14:14:32Z,713378.07,"c(""distractor1"", ""distractor2"", ""distractor3"")",Kritik,lawama,s,dereva,nafasi,mawazo,NA,NA,NA,NA,NA,NA,NA,NA,NA,NA,NA,NA,NA,NA,NA,NA,NA,NA,NA,NA,NA,NA,NA
80029,Shallow Question,html.Page,1_1_5_1_0,NA,NA,form submission,5740.4300000001,713349,713344.738,713378.07,719118.5,719118.9,2023-02-02T14:14:38Z,719145.163,"c(""distractor1"", ""distractor2"", ""distractor3"")",Kritik,lawama,s,dereva,nafasi,mawazo,dereva,NA,NA,NA,NA,NA,NA,NA,NA,NA,NA,NA,NA,NA,NA,NA,NA,NA,NA,NA,NA,NA,NA
80029,"""Richtig""-Screen",canvas.Screen,1_1_5_1_1,NA,NA,skipped,NA,719122.9,NA,NA,719118.5,719123.2,2023-02-02T14:14:38Z,719145.163,"c(""distractor1"", ""distractor2"", ""distractor3"")",Kritik,lawama,s,dereva,nafasi,mawazo,NA,NA,NA,NA,NA,NA,NA,NA,NA,NA,NA,NA,NA,NA,NA,NA,NA,NA,NA,NA,NA,NA,NA
80029,"""Falsch""-Screen",canvas.Screen,1_1_5_1_2,NA,NA,timeout,4999.8,719124.3,719111.831,719145.163,724111.631,724114.3,2023-02-02T14:14:43Z,724144.963,"c(""distractor1"", ""distractor2"", ""distractor3"")",Kritik,lawama,s,dereva,nafasi,mawazo,NA,NA,0,NA,NA,NA,NA,NA,NA,NA,NA,NA,NA,NA,NA,NA,NA,NA,NA,NA,NA,NA,NA
80029,shallow,flow.Sequence,1_1_5_1,NA,NA,completion,10733.561,713349,713344.738,713378.07,724111.631,724114.7,2023-02-02T14:14:43Z,724144.963,"c(""distractor1"", ""distractor2"", ""distractor3"")",Kritik,lawama,s,dereva,nafasi,mawazo,NA,NA,NA,NA,NA,NA,NA,NA,NA,NA,NA,NA,NA,NA,NA,NA,NA,NA,NA,NA,NA,NA,NA
80029,task,flow.Sequence,1_1_5,NA,NA,completion,10733.561,713348.6,713344.738,713378.07,724111.631,724115.2,2023-02-02T14:14:43Z,724144.963,"c(""distractor1"", ""distractor2"", ""distractor3"")",Kritik,lawama,s,dereva,nafasi,mawazo,NA,NA,NA,NA,NA,NA,NA,NA,NA,NA,NA,NA,NA,NA,NA,NA,NA,NA,NA,NA,NA,NA,NA
80029,block,flow.Loop,1_1,NA,NA,completion,60967.125,663115.3,663111.174,663144.506,724111.631,724115.3,2023-02-02T14:14:43Z,724144.963,"c(""distractor1"", ""distractor2"", ""distractor3"")",NA,NA,NA,NA,NA,NA,NA,NA,NA,NA,NA,NA,NA,NA,NA,NA,NA,NA,NA,NA,NA,NA,NA,NA,NA,NA,NA,NA,NA
80029,Practice,flow.Sequence,1,NA,NA,completion,62306.525,661789.1,661771.774,661805.106,724111.631,724115.6,2023-02-02T14:14:43Z,724144.963,NULL,NA,NA,NA,NA,NA,NA,NA,NA,NA,NA,NA,NA,NA,NA,NA,NA,NA,NA,NA,NA,NA,NA,NA,NA,NA,NA,NA,NA,NA
80029,Experiment start,canvas.Screen,2,weiter,keypress(q),response,8317.9370000022,724115.7,724111.631,724144.963,732462.9,732469.4,2023-02-02T14:14:51Z,732545.416,NULL,NA,NA,NA,NA,NA,NA,NA,NA,NA,NA,NA,NA,NA,NA,NA,NA,NA,NA,NA,NA,NA,NA,NA,NA,NA,NA,NA,NA,NA
80029,Deep Question,html.Page,3_0_0_0_0_0_0,NA,NA,form submission,4581.7839999993,732522.3,732511.295,732545.416,737127.2,737127.8,2023-02-02T14:14:56Z,737145.232,NULL,Genehmigung,idhini,d,NA,NA,NA,d,NA,NA,0,NA,NA,NA,NA,NA,NA,NA,NA,NA,NA,NA,NA,NA,NA,NA,NA,NA,NA,NA
80029,"""Richtig""-Screen",canvas.Screen,3_0_0_0_0_0_1,NA,NA,skipped,NA,737130.9,NA,NA,737127.2,737131.1,2023-02-02T14:14:56Z,737145.232,NULL,Genehmigung,idhini,d,NA,NA,NA,NA,sdf,NA,0,NA,NA,NA,NA,NA,NA,NA,NA,NA,NA,NA,NA,NA,NA,NA,NA,NA,NA,NA
80029,"""Falsch""-Screen",canvas.Screen,3_0_0_0_0_0_2,NA,NA,timeout,4999.8,737131.6,737111.9,737145.232,742111.7,742114.3,2023-02-02T14:15:01Z,742145.032,NULL,Genehmigung,idhini,d,NA,NA,NA,NA,sdf,0,0,NA,NA,NA,NA,NA,NA,NA,NA,NA,NA,NA,NA,NA,NA,NA,NA,NA,NA,NA
80029,deep,flow.Sequence,3_0_0_0_0_0,NA,NA,completion,9566.284,732522.3,732511.295,732545.416,742111.7,742114.7,2023-02-02T14:15:01Z,742145.032,NULL,Genehmigung,idhini,d,NA,NA,NA,NA,sdf,NA,0,NA,NA,NA,NA,NA,NA,NA,NA,NA,NA,NA,NA,NA,NA,NA,NA,NA,NA,NA
80029,shallow,flow.Sequence,3_0_0_0_0_1,NA,NA,skipped,NA,742114.9,NA,NA,742111.7,742115,2023-02-02T14:15:01Z,742145.032,NULL,Genehmigung,idhini,d,NA,NA,NA,NA,sdf,NA,0,NA,NA,NA,NA,NA,NA,NA,NA,NA,NA,NA,NA,NA,NA,NA,NA,NA,NA,NA
80029,task,flow.Sequence,3_0_0_0_0,NA,NA,completion,9566.284,732522.3,732511.295,732545.416,742111.7,742115.2,2023-02-02T14:15:01Z,742145.032,NULL,Genehmigung,idhini,d,NA,NA,NA,NA,sdf,NA,0,NA,NA,NA,NA,NA,NA,NA,NA,NA,NA,NA,NA,NA,NA,NA,NA,NA,NA,NA
80029,deep,flow.Sequence,3_0_0_0_1_0,NA,NA,skipped,NA,742115.2,NA,NA,742111.7,742115.4,2023-02-02T14:15:01Z,742145.032,NULL,Integrität,uadilifu,s,muungano,mtiririko,upunguaji,NA,sdf,NA,0,NA,NA,NA,NA,NA,NA,NA,NA,NA,NA,NA,NA,NA,NA,NA,NA,NA,NA,NA
80029,Shallow Question,html.Page,3_0_0_0_1_1_0,NA,NA,form submission,4347.6679999992,742115.5,742111.7,742145.032,746492.7,746493.3,2023-02-02T14:15:05Z,746512.064,NULL,Integrität,uadilifu,s,muungano,mtiririko,upunguaji,upunguaji,NA,NA,0,NA,NA,NA,NA,NA,NA,NA,NA,NA,NA,NA,NA,NA,NA,NA,NA,NA,NA,NA
80029,"""Richtig""-Screen",canvas.Screen,3_0_0_0_1_1_1,NA,NA,skipped,NA,746496.5,NA,NA,746492.7,746496.5,2023-02-02T14:15:05Z,746512.064,NULL,Integrität,uadilifu,s,muungano,mtiririko,upunguaji,NA,sdf,NA,0,NA,NA,NA,NA,NA,NA,NA,NA,NA,NA,NA,NA,NA,NA,NA,NA,NA,NA,NA
80029,"""Falsch""-Screen",canvas.Screen,3_0_0_0_1_1_2,NA,NA,timeout,4999.7999999999,746497.1,746478.732,746512.064,751478.532,751480.4,2023-02-02T14:15:10Z,751511.864,NULL,Integrität,uadilifu,s,muungano,mtiririko,upunguaji,NA,sdf,0,0,NA,NA,NA,NA,NA,NA,NA,NA,NA,NA,NA,NA,NA,NA,NA,NA,NA,NA,NA
80029,shallow,flow.Sequence,3_0_0_0_1_1,NA,NA,completion,9333.5,742115.5,742111.7,742145.032,751478.532,751480.9,2023-02-02T14:15:10Z,751511.864,NULL,Integrität,uadilifu,s,muungano,mtiririko,upunguaji,NA,sdf,NA,0,NA,NA,NA,NA,NA,NA,NA,NA,NA,NA,NA,NA,NA,NA,NA,NA,NA,NA,NA
80029,task,flow.Sequence,3_0_0_0_1,NA,NA,completion,9333.5,742115.2,742111.7,742145.032,751478.532,751481.1,2023-02-02T14:15:10Z,751511.864,NULL,Integrität,uadilifu,s,muungano,mtiririko,upunguaji,NA,sdf,NA,0,NA,NA,NA,NA,NA,NA,NA,NA,NA,NA,NA,NA,NA,NA,NA,NA,NA,NA,NA
80029,deep,flow.Sequence,3_0_0_0_2_0,NA,NA,skipped,NA,751481.4,NA,NA,751478.532,751481.5,2023-02-02T14:15:10Z,751511.864,NULL,Aufstand,ugomaji,s,mazidio,msingi,kujieleza,NA,sdf,NA,0,NA,NA,NA,NA,NA,NA,NA,NA,NA,NA,NA,NA,NA,NA,NA,NA,NA,NA,NA
80029,Shallow Question,html.Page,3_0_0_0_2_1_0,NA,NA,form submission,9704.9360000008,751481.7,751478.532,751511.864,761216.8,761217.3,2023-02-02T14:15:20Z,761245.329,NULL,Aufstand,ugomaji,s,mazidio,msingi,kujieleza,mazidio,NA,NA,0,NA,NA,NA,NA,NA,NA,NA,NA,NA,NA,NA,NA,NA,NA,NA,NA,NA,NA,NA
80029,"""Richtig""-Screen",canvas.Screen,3_0_0_0_2_1_1,NA,NA,skipped,NA,761220.3,NA,NA,761216.8,761220.4,2023-02-02T14:15:20Z,761245.329,NULL,Aufstand,ugomaji,s,mazidio,msingi,kujieleza,NA,sdf,NA,0,NA,NA,NA,NA,NA,NA,NA,NA,NA,NA,NA,NA,NA,NA,NA,NA,NA,NA,NA
80029,"""Falsch""-Screen",canvas.Screen,3_0_0_0_2_1_2,NA,NA,timeout,5017.172,761221,761211.997,761245.329,766228.463,766231.1,2023-02-02T14:15:25Z,766262.501,NULL,Aufstand,ugomaji,s,mazidio,msingi,kujieleza,NA,sdf,0,0,NA,NA,NA,NA,NA,NA,NA,NA,NA,NA,NA,NA,NA,NA,NA,NA,NA,NA,NA
80029,shallow,flow.Sequence,3_0_0_0_2_1,NA,NA,completion,14716.599,751481.6,751478.532,751511.864,766228.463,766231.6,2023-02-02T14:15:25Z,766262.501,NULL,Aufstand,ugomaji,s,mazidio,msingi,kujieleza,NA,sdf,NA,0,NA,NA,NA,NA,NA,NA,NA,NA,NA,NA,NA,NA,NA,NA,NA,NA,NA,NA,NA
80029,task,flow.Sequence,3_0_0_0_2,NA,NA,completion,14716.599,751481.3,751478.532,751511.864,766228.463,766231.8,2023-02-02T14:15:25Z,766262.501,NULL,Aufstand,ugomaji,s,mazidio,msingi,kujieleza,NA,sdf,NA,0,NA,NA,NA,NA,NA,NA,NA,NA,NA,NA,NA,NA,NA,NA,NA,NA,NA,NA,NA
80029,Deep Question,html.Page,3_0_0_0_3_0_0,NA,NA,form submission,1922.7990000007,766232.1,766228.463,766262.501,768185.3,768185.8,2023-02-02T14:15:27Z,768229.089,NULL,Begegnung,kukutana,d,NA,NA,NA,d,NA,NA,0,NA,NA,NA,NA,NA,NA,NA,NA,NA,NA,NA,NA,NA,NA,NA,NA,NA,NA,NA
80029,"""Richtig""-Screen",canvas.Screen,3_0_0_0_3_0_1,NA,NA,skipped,NA,768188.4,NA,NA,768185.3,768188.6,2023-02-02T14:15:27Z,768229.089,NULL,Begegnung,kukutana,d,NA,NA,NA,NA,sdf,NA,0,NA,NA,NA,NA,NA,NA,NA,NA,NA,NA,NA,NA,NA,NA,NA,NA,NA,NA,NA
80029,"""Falsch""-Screen",canvas.Screen,3_0_0_0_3_0_2,NA,NA,timeout,4999.7999999999,768189.1,768195.757,768229.089,773195.557,773197.6,2023-02-02T14:15:32Z,773228.889,NULL,Begegnung,kukutana,d,NA,NA,NA,NA,sdf,0,0,NA,NA,NA,NA,NA,NA,NA,NA,NA,NA,NA,NA,NA,NA,NA,NA,NA,NA,NA
80029,deep,flow.Sequence,3_0_0_0_3_0,NA,NA,completion,6933.056,766232.1,766228.463,766262.501,773195.557,773198,2023-02-02T14:15:32Z,773228.889,NULL,Begegnung,kukutana,d,NA,NA,NA,NA,sdf,NA,0,NA,NA,NA,NA,NA,NA,NA,NA,NA,NA,NA,NA,NA,NA,NA,NA,NA,NA,NA
80029,shallow,flow.Sequence,3_0_0_0_3_1,NA,NA,skipped,NA,773198.1,NA,NA,773195.557,773198.3,2023-02-02T14:15:32Z,773228.889,NULL,Begegnung,kukutana,d,NA,NA,NA,NA,sdf,NA,0,NA,NA,NA,NA,NA,NA,NA,NA,NA,NA,NA,NA,NA,NA,NA,NA,NA,NA,NA
80029,task,flow.Sequence,3_0_0_0_3,NA,NA,completion,6933.056,766232,766228.463,766262.501,773195.557,773198.5,2023-02-02T14:15:32Z,773228.889,NULL,Begegnung,kukutana,d,NA,NA,NA,NA,sdf,NA,0,NA,NA,NA,NA,NA,NA,NA,NA,NA,NA,NA,NA,NA,NA,NA,NA,NA,NA,NA
80029,deep,flow.Sequence,3_0_0_0_4_0,NA,NA,skipped,NA,773198.7,NA,NA,773195.557,773198.8,2023-02-02T14:15:32Z,773228.889,NULL,Prüfung,mtihani,s,mkulima,mtizamo,ufumbuzi,NA,sdf,NA,0,NA,NA,NA,NA,NA,NA,NA,NA,NA,NA,NA,NA,NA,NA,NA,NA,NA,NA,NA
80029,Shallow Question,html.Page,3_0_0_0_4_1_0,NA,NA,form submission,5123.0110000023,773199,773195.557,773228.889,778351.9,778352.4,2023-02-02T14:15:37Z,778379.109,NULL,Prüfung,mtihani,s,mkulima,mtizamo,ufumbuzi,mtizamo,NA,NA,0,NA,NA,NA,NA,NA,NA,NA,NA,NA,NA,NA,NA,NA,NA,NA,NA,NA,NA,NA
80029,"""Richtig""-Screen",canvas.Screen,3_0_0_0_4_1_1,NA,NA,skipped,NA,778355,NA,NA,778351.9,778355.4,2023-02-02T14:15:37Z,778379.109,NULL,Prüfung,mtihani,s,mkulima,mtizamo,ufumbuzi,NA,sdf,NA,0,NA,NA,NA,NA,NA,NA,NA,NA,NA,NA,NA,NA,NA,NA,NA,NA,NA,NA,NA
80029,"""Falsch""-Screen",canvas.Screen,3_0_0_0_4_1_2,NA,NA,timeout,4999.7999999999,778356.6,778345.777,778379.109,783345.577,783348.3,2023-02-02T14:15:42Z,783378.909,NULL,Prüfung,mtihani,s,mkulima,mtizamo,ufumbuzi,NA,sdf,0,0,NA,NA,NA,NA,NA,NA,NA,NA,NA,NA,NA,NA,NA,NA,NA,NA,NA,NA,NA
80029,shallow,flow.Sequence,3_0_0_0_4_1,NA,NA,completion,10116.688,773198.9,773195.557,773228.889,783345.577,783348.8,2023-02-02T14:15:42Z,783378.909,NULL,Prüfung,mtihani,s,mkulima,mtizamo,ufumbuzi,NA,sdf,NA,0,NA,NA,NA,NA,NA,NA,NA,NA,NA,NA,NA,NA,NA,NA,NA,NA,NA,NA,NA
80029,task,flow.Sequence,3_0_0_0_4,NA,NA,completion,10116.688,773198.6,773195.557,773228.889,783345.577,783349.1,2023-02-02T14:15:42Z,783378.909,NULL,Prüfung,mtihani,s,mkulima,mtizamo,ufumbuzi,NA,sdf,NA,0,NA,NA,NA,NA,NA,NA,NA,NA,NA,NA,NA,NA,NA,NA,NA,NA,NA,NA,NA
80029,Deep Question,html.Page,3_0_0_0_5_0_0,NA,NA,form submission,1617.9910000023,783349.3,783345.577,783378.909,784996.9,784997.5,2023-02-02T14:15:44Z,785028.843,NULL,Kultur,utamaduni,d,NA,NA,NA,d,NA,NA,0,NA,NA,NA,NA,NA,NA,NA,NA,NA,NA,NA,NA,NA,NA,NA,NA,NA,NA,NA
80029,"""Richtig""-Screen",canvas.Screen,3_0_0_0_5_0_1,NA,NA,skipped,NA,785000.2,NA,NA,784996.9,785000.3,2023-02-02T14:15:44Z,785028.843,NULL,Kultur,utamaduni,d,NA,NA,NA,NA,sdf,NA,0,NA,NA,NA,NA,NA,NA,NA,NA,NA,NA,NA,NA,NA,NA,NA,NA,NA,NA,NA
80029,"""Falsch""-Screen",canvas.Screen,3_0_0_0_5_0_2,NA,NA,timeout,4999.8,785001,784995.511,785028.843,789995.311,789997.6,2023-02-02T14:15:49Z,790028.643,NULL,Kultur,utamaduni,d,NA,NA,NA,NA,sdf,0,0,NA,NA,NA,NA,NA,NA,NA,NA,NA,NA,NA,NA,NA,NA,NA,NA,NA,NA,NA
80029,deep,flow.Sequence,3_0_0_0_5_0,NA,NA,completion,6616.402,783349.2,783345.577,783378.909,789995.311,789997.9,2023-02-02T14:15:49Z,790028.643,NULL,Kultur,utamaduni,d,NA,NA,NA,NA,sdf,NA,0,NA,NA,NA,NA,NA,NA,NA,NA,NA,NA,NA,NA,NA,NA,NA,NA,NA,NA,NA
80029,shallow,flow.Sequence,3_0_0_0_5_1,NA,NA,skipped,NA,789998,NA,NA,789995.311,789998.2,2023-02-02T14:15:49Z,790028.643,NULL,Kultur,utamaduni,d,NA,NA,NA,NA,sdf,NA,0,NA,NA,NA,NA,NA,NA,NA,NA,NA,NA,NA,NA,NA,NA,NA,NA,NA,NA,NA
80029,task,flow.Sequence,3_0_0_0_5,NA,NA,completion,6616.402,783349.1,783345.577,783378.909,789995.311,789998.4,2023-02-02T14:15:49Z,790028.643,NULL,Kultur,utamaduni,d,NA,NA,NA,NA,sdf,NA,0,NA,NA,NA,NA,NA,NA,NA,NA,NA,NA,NA,NA,NA,NA,NA,NA,NA,NA,NA
80029,deep,flow.Sequence,3_0_0_0_6_0,NA,NA,skipped,NA,789998.5,NA,NA,789995.311,789998.7,2023-02-02T14:15:49Z,790028.643,NULL,Fleisch,mshakiki,s,kizunguzungu,mshikamano,angusho,NA,sdf,NA,0,NA,NA,NA,NA,NA,NA,NA,NA,NA,NA,NA,NA,NA,NA,NA,NA,NA,NA,NA
80029,Shallow Question,html.Page,3_0_0_0_6_1_0,NA,NA,form submission,4248.0569999992,789998.7,789995.311,790028.643,794276.7,794277.2,2023-02-02T14:15:53Z,794295.952,NULL,Fleisch,mshakiki,s,kizunguzungu,mshikamano,angusho,angusho,NA,NA,0,NA,NA,NA,NA,NA,NA,NA,NA,NA,NA,NA,NA,NA,NA,NA,NA,NA,NA,NA
80029,"""Richtig""-Screen",canvas.Screen,3_0_0_0_6_1_1,NA,NA,skipped,NA,794280.3,NA,NA,794276.7,794280.5,2023-02-02T14:15:53Z,794295.952,NULL,Fleisch,mshakiki,s,kizunguzungu,mshikamano,angusho,NA,sdf,NA,0,NA,NA,NA,NA,NA,NA,NA,NA,NA,NA,NA,NA,NA,NA,NA,NA,NA,NA,NA
80029,"""Falsch""-Screen",canvas.Screen,3_0_0_0_6_1_2,NA,NA,timeout,4999.7999999999,794281.4,794262.62,794295.952,799262.42,799263.8,2023-02-02T14:15:58Z,799295.752,NULL,Fleisch,mshakiki,s,kizunguzungu,mshikamano,angusho,NA,sdf,0,0,NA,NA,NA,NA,NA,NA,NA,NA,NA,NA,NA,NA,NA,NA,NA,NA,NA,NA,NA
80029,shallow,flow.Sequence,3_0_0_0_6_1,NA,NA,completion,9233.777,789998.7,789995.311,790028.643,799262.42,799264.1,2023-02-02T14:15:58Z,799295.752,NULL,Fleisch,mshakiki,s,kizunguzungu,mshikamano,angusho,NA,sdf,NA,0,NA,NA,NA,NA,NA,NA,NA,NA,NA,NA,NA,NA,NA,NA,NA,NA,NA,NA,NA
80029,task,flow.Sequence,3_0_0_0_6,NA,NA,completion,9233.777,789998.5,789995.311,790028.643,799262.42,799264.3,2023-02-02T14:15:58Z,799295.752,NULL,Fleisch,mshakiki,s,kizunguzungu,mshikamano,angusho,NA,sdf,NA,0,NA,NA,NA,NA,NA,NA,NA,NA,NA,NA,NA,NA,NA,NA,NA,NA,NA,NA,NA
80029,Deep Question,html.Page,3_0_0_0_7_0_0,NA,NA,form submission,4841.248,799264.6,799262.42,799295.752,804137,804137.7,2023-02-02T14:16:03Z,804162.819,NULL,Verzögerung,kuchelewa,d,NA,NA,NA,kiba,NA,NA,0,NA,NA,NA,NA,NA,NA,NA,NA,NA,NA,NA,NA,NA,NA,NA,NA,NA,NA,NA
80029,"""Richtig""-Screen",canvas.Screen,3_0_0_0_7_0_1,NA,NA,skipped,NA,804142.2,NA,NA,804137,804142.4,2023-02-02T14:16:03Z,804162.819,NULL,Verzögerung,kuchelewa,d,NA,NA,NA,NA,sdf,NA,0,NA,NA,NA,NA,NA,NA,NA,NA,NA,NA,NA,NA,NA,NA,NA,NA,NA,NA,NA
80029,"""Falsch""-Screen",canvas.Screen,3_0_0_0_7_0_2,NA,NA,timeout,5016.466,804143.3,804129.487,804162.819,809145.953,809148.2,2023-02-02T14:16:08Z,809179.285,NULL,Verzögerung,kuchelewa,d,NA,NA,NA,NA,sdf,0,0,NA,NA,NA,NA,NA,NA,NA,NA,NA,NA,NA,NA,NA,NA,NA,NA,NA,NA,NA
80029,deep,flow.Sequence,3_0_0_0_7_0,NA,NA,completion,9850.201,799264.6,799262.42,799295.752,809145.953,809148.7,2023-02-02T14:16:08Z,809179.285,NULL,Verzögerung,kuchelewa,d,NA,NA,NA,NA,sdf,NA,0,NA,NA,NA,NA,NA,NA,NA,NA,NA,NA,NA,NA,NA,NA,NA,NA,NA,NA,NA
80029,shallow,flow.Sequence,3_0_0_0_7_1,NA,NA,skipped,NA,809148.9,NA,NA,809145.953,809149,2023-02-02T14:16:08Z,809179.285,NULL,Verzögerung,kuchelewa,d,NA,NA,NA,NA,sdf,NA,0,NA,NA,NA,NA,NA,NA,NA,NA,NA,NA,NA,NA,NA,NA,NA,NA,NA,NA,NA
80029,task,flow.Sequence,3_0_0_0_7,NA,NA,completion,9850.201,799264.5,799262.42,799295.752,809145.953,809149.1,2023-02-02T14:16:08Z,809179.285,NULL,Verzögerung,kuchelewa,d,NA,NA,NA,NA,sdf,NA,0,NA,NA,NA,NA,NA,NA,NA,NA,NA,NA,NA,NA,NA,NA,NA,NA,NA,NA,NA
80029,block,flow.Loop,3_0_0_0,NA,NA,completion,76600.537,732522.3,732511.295,732545.416,809145.953,809149.5,2023-02-02T14:16:08Z,809179.285,NULL,NA,NA,NA,NA,NA,NA,NA,sdf,NA,0,NA,NA,NA,NA,NA,NA,NA,NA,NA,NA,NA,NA,NA,NA,NA,NA,NA,NA,NA
80029,weiter,canvas.Screen,3_0_0_1,sdf,keypress(Space),response,1054.8150000015,809149.5,809145.953,809179.285,810234.1,810239.7,2023-02-02T14:16:09Z,810295.907,NULL,NA,NA,NA,NA,NA,NA,NA,sdf,NA,0,NA,NA,NA,NA,NA,NA,NA,NA,NA,NA,NA,NA,NA,NA,NA,NA,NA,NA,NA
80029,check continue,flow.Sequence,3_0_0,NA,NA,completion,77688.684000002,732522.3,732511.295,732545.416,810234.1,810240,2023-02-02T14:16:09Z,810295.907,NULL,NA,NA,NA,NA,NA,NA,NA,sdf,NA,0,NA,NA,NA,NA,NA,NA,NA,NA,NA,NA,NA,NA,NA,NA,NA,NA,NA,NA,NA
80029,Deep Question,html.Page,3_0_1_0_0_0_0,NA,NA,form submission,2632.4930000022,810267.4,810262.575,810295.907,812928.4,812929,2023-02-02T14:16:12Z,812946.301,NULL,Kultur,utamaduni,d,NA,NA,NA,d,NA,NA,1,NA,NA,NA,NA,NA,NA,NA,NA,NA,NA,NA,NA,NA,NA,NA,NA,NA,NA,NA
80029,"""Richtig""-Screen",canvas.Screen,3_0_1_0_0_0_1,NA,NA,skipped,NA,812931,NA,NA,812928.4,812931.2,2023-02-02T14:16:12Z,812946.301,NULL,Kultur,utamaduni,d,NA,NA,NA,NA,sdfdsf,NA,1,NA,NA,NA,NA,NA,NA,NA,NA,NA,NA,NA,NA,NA,NA,NA,NA,NA,NA,NA
80029,"""Falsch""-Screen",canvas.Screen,3_0_1_0_0_0_2,NA,NA,timeout,5016.466,812932.1,812912.969,812946.301,817929.435,817931.7,2023-02-02T14:16:17Z,817962.767,NULL,Kultur,utamaduni,d,NA,NA,NA,NA,sdfdsf,0,1,NA,NA,NA,NA,NA,NA,NA,NA,NA,NA,NA,NA,NA,NA,NA,NA,NA,NA,NA
80029,deep,flow.Sequence,3_0_1_0_0_0,NA,NA,completion,7633.528,810267.4,810262.575,810295.907,817929.435,817932.3,2023-02-02T14:16:17Z,817962.767,NULL,Kultur,utamaduni,d,NA,NA,NA,NA,sdfdsf,NA,1,NA,NA,NA,NA,NA,NA,NA,NA,NA,NA,NA,NA,NA,NA,NA,NA,NA,NA,NA
80029,shallow,flow.Sequence,3_0_1_0_0_1,NA,NA,skipped,NA,817932.4,NA,NA,817929.435,817932.6,2023-02-02T14:16:17Z,817962.767,NULL,Kultur,utamaduni,d,NA,NA,NA,NA,sdfdsf,NA,1,NA,NA,NA,NA,NA,NA,NA,NA,NA,NA,NA,NA,NA,NA,NA,NA,NA,NA,NA
80029,task,flow.Sequence,3_0_1_0_0,NA,NA,completion,7633.528,810267.4,810262.575,810295.907,817929.435,817932.7,2023-02-02T14:16:17Z,817962.767,NULL,Kultur,utamaduni,d,NA,NA,NA,NA,sdfdsf,NA,1,NA,NA,NA,NA,NA,NA,NA,NA,NA,NA,NA,NA,NA,NA,NA,NA,NA,NA,NA
80029,Deep Question,html.Page,3_0_1_0_1_0_0,NA,NA,form submission,2027.3330000015,817933,817929.435,817962.767,819990.1,819990.5,2023-02-02T14:16:19Z,820012.685,NULL,Genehmigung,idhini,d,NA,NA,NA,d,NA,NA,1,NA,NA,NA,NA,NA,NA,NA,NA,NA,NA,NA,NA,NA,NA,NA,NA,NA,NA,NA
80029,"""Richtig""-Screen",canvas.Screen,3_0_1_0_1_0_1,NA,NA,skipped,NA,819993.8,NA,NA,819990.1,819994.1,2023-02-02T14:16:19Z,820012.685,NULL,Genehmigung,idhini,d,NA,NA,NA,NA,sdfdsf,NA,1,NA,NA,NA,NA,NA,NA,NA,NA,NA,NA,NA,NA,NA,NA,NA,NA,NA,NA,NA
80029,"""Falsch""-Screen",canvas.Screen,3_0_1_0_1_0_2,NA,NA,timeout,5017.201,819995.2,819979.353,820012.685,824995.819,824997.9,2023-02-02T14:16:24Z,825029.886,NULL,Genehmigung,idhini,d,NA,NA,NA,NA,sdfdsf,0,1,NA,NA,NA,NA,NA,NA,NA,NA,NA,NA,NA,NA,NA,NA,NA,NA,NA,NA,NA
80029,deep,flow.Sequence,3_0_1_0_1_0,NA,NA,completion,7033.052,817933,817929.435,817962.767,824995.819,824998.4,2023-02-02T14:16:24Z,825029.886,NULL,Genehmigung,idhini,d,NA,NA,NA,NA,sdfdsf,NA,1,NA,NA,NA,NA,NA,NA,NA,NA,NA,NA,NA,NA,NA,NA,NA,NA,NA,NA,NA
80029,shallow,flow.Sequence,3_0_1_0_1_1,NA,NA,skipped,NA,824998.5,NA,NA,824995.819,824998.7,2023-02-02T14:16:24Z,825029.886,NULL,Genehmigung,idhini,d,NA,NA,NA,NA,sdfdsf,NA,1,NA,NA,NA,NA,NA,NA,NA,NA,NA,NA,NA,NA,NA,NA,NA,NA,NA,NA,NA
80029,task,flow.Sequence,3_0_1_0_1,NA,NA,completion,7033.052,817932.9,817929.435,817962.767,824995.819,824998.9,2023-02-02T14:16:24Z,825029.886,NULL,Genehmigung,idhini,d,NA,NA,NA,NA,sdfdsf,NA,1,NA,NA,NA,NA,NA,NA,NA,NA,NA,NA,NA,NA,NA,NA,NA,NA,NA,NA,NA
80029,deep,flow.Sequence,3_0_1_0_2_0,NA,NA,skipped,NA,824999,NA,NA,824995.819,824999.1,2023-02-02T14:16:24Z,825029.886,NULL,Aufstand,ugomaji,s,mazidio,msingi,kujieleza,NA,sdfdsf,NA,1,NA,NA,NA,NA,NA,NA,NA,NA,NA,NA,NA,NA,NA,NA,NA,NA,NA,NA,NA
80029,Shallow Question,html.Page,3_0_1_0_2_1_0,NA,NA,form submission,5720.3139999992,824999.5,824995.819,825029.886,830750.2,830750.9,2023-02-02T14:16:29Z,830779.656,NULL,Aufstand,ugomaji,s,mazidio,msingi,kujieleza,ugomaji,NA,NA,1,NA,NA,NA,NA,NA,NA,NA,NA,NA,NA,NA,NA,NA,NA,NA,NA,NA,NA,NA
80029,"""Richtig""-Screen",canvas.Screen,3_0_1_0_2_1_1,NA,NA,timeout,5017.028,830754.5,830746.324,830779.656,835762.79,835765.6,2023-02-02T14:16:34Z,835796.684,NULL,Aufstand,ugomaji,s,mazidio,msingi,kujieleza,NA,sdfdsf,1,1,NA,NA,NA,NA,NA,NA,NA,NA,NA,NA,NA,NA,NA,NA,NA,NA,NA,NA,NA
80029,"""Falsch""-Screen",canvas.Screen,3_0_1_0_2_1_2,NA,NA,skipped,NA,835770.1,NA,NA,835762.79,835770.3,2023-02-02T14:16:34Z,835796.684,NULL,Aufstand,ugomaji,s,mazidio,msingi,kujieleza,NA,sdfdsf,NA,1,NA,NA,NA,NA,NA,NA,NA,NA,NA,NA,NA,NA,NA,NA,NA,NA,NA,NA,NA
80029,shallow,flow.Sequence,3_0_1_0_2_1,NA,NA,completion,10732.904,824999.3,824995.819,825029.886,835762.79,835770.5,2023-02-02T14:16:34Z,835796.684,NULL,Aufstand,ugomaji,s,mazidio,msingi,kujieleza,NA,sdfdsf,NA,1,NA,NA,NA,NA,NA,NA,NA,NA,NA,NA,NA,NA,NA,NA,NA,NA,NA,NA,NA
80029,task,flow.Sequence,3_0_1_0_2,NA,NA,completion,10732.904,824999,824995.819,825029.886,835762.79,835770.7,2023-02-02T14:16:34Z,835796.684,NULL,Aufstand,ugomaji,s,mazidio,msingi,kujieleza,NA,sdfdsf,NA,1,NA,NA,NA,NA,NA,NA,NA,NA,NA,NA,NA,NA,NA,NA,NA,NA,NA,NA,NA
80029,Deep Question,html.Page,3_0_1_0_3_0_0,NA,NA,form submission,3643.0159999992,835770.8,835762.79,835796.684,839439.7,839440.4,2023-02-02T14:16:38Z,839463.204,NULL,Begegnung,kukutana,d,NA,NA,NA,idhini,NA,NA,1,NA,NA,NA,NA,NA,NA,NA,NA,NA,NA,NA,NA,NA,NA,NA,NA,NA,NA,NA
80029,"""Richtig""-Screen",canvas.Screen,3_0_1_0_3_0_1,NA,NA,skipped,NA,839443.4,NA,NA,839439.7,839443.7,2023-02-02T14:16:38Z,839463.204,NULL,Begegnung,kukutana,d,NA,NA,NA,NA,sdfdsf,NA,1,NA,NA,NA,NA,NA,NA,NA,NA,NA,NA,NA,NA,NA,NA,NA,NA,NA,NA,NA
80029,"""Falsch""-Screen",canvas.Screen,3_0_1_0_3_0_2,NA,NA,timeout,4999.7999999999,839444.8,839429.872,839463.204,844429.672,844432.1,2023-02-02T14:16:43Z,844463.004,NULL,Begegnung,kukutana,d,NA,NA,NA,NA,sdfdsf,0,1,NA,NA,NA,NA,NA,NA,NA,NA,NA,NA,NA,NA,NA,NA,NA,NA,NA,NA,NA
80029,deep,flow.Sequence,3_0_1_0_3_0,NA,NA,completion,8632.988,835770.8,835762.79,835796.684,844429.672,844432.5,2023-02-02T14:16:43Z,844463.004,NULL,Begegnung,kukutana,d,NA,NA,NA,NA,sdfdsf,NA,1,NA,NA,NA,NA,NA,NA,NA,NA,NA,NA,NA,NA,NA,NA,NA,NA,NA,NA,NA
80029,shallow,flow.Sequence,3_0_1_0_3_1,NA,NA,skipped,NA,844432.7,NA,NA,844429.672,844432.9,2023-02-02T14:16:43Z,844463.004,NULL,Begegnung,kukutana,d,NA,NA,NA,NA,sdfdsf,NA,1,NA,NA,NA,NA,NA,NA,NA,NA,NA,NA,NA,NA,NA,NA,NA,NA,NA,NA,NA
80029,task,flow.Sequence,3_0_1_0_3,NA,NA,completion,8632.988,835770.7,835762.79,835796.684,844429.672,844433,2023-02-02T14:16:43Z,844463.004,NULL,Begegnung,kukutana,d,NA,NA,NA,NA,sdfdsf,NA,1,NA,NA,NA,NA,NA,NA,NA,NA,NA,NA,NA,NA,NA,NA,NA,NA,NA,NA,NA
80029,deep,flow.Sequence,3_0_1_0_4_0,NA,NA,skipped,NA,844433.3,NA,NA,844429.672,844433.3,2023-02-02T14:16:43Z,844463.004,NULL,Prüfung,mtihani,s,mkulima,mtizamo,ufumbuzi,NA,sdfdsf,NA,1,NA,NA,NA,NA,NA,NA,NA,NA,NA,NA,NA,NA,NA,NA,NA,NA,NA,NA,NA
80029,Shallow Question,html.Page,3_0_1_0_4_1_0,NA,NA,form submission,3371.3960000023,844433.5,844429.672,844463.004,847834.4,847835,2023-02-02T14:16:46Z,847863.428,NULL,Prüfung,mtihani,s,mkulima,mtizamo,ufumbuzi,mtizamo,NA,NA,1,NA,NA,NA,NA,NA,NA,NA,NA,NA,NA,NA,NA,NA,NA,NA,NA,NA,NA,NA
80029,"""Richtig""-Screen",canvas.Screen,3_0_1_0_4_1_1,NA,NA,skipped,NA,847838,NA,NA,847834.4,847838.2,2023-02-02T14:16:46Z,847863.428,NULL,Prüfung,mtihani,s,mkulima,mtizamo,ufumbuzi,NA,sdfdsf,NA,1,NA,NA,NA,NA,NA,NA,NA,NA,NA,NA,NA,NA,NA,NA,NA,NA,NA,NA,NA
80029,"""Falsch""-Screen",canvas.Screen,3_0_1_0_4_1_2,NA,NA,timeout,4999.8,847838.8,847830.096,847863.428,852829.896,852832.2,2023-02-02T14:16:51Z,852863.228,NULL,Prüfung,mtihani,s,mkulima,mtizamo,ufumbuzi,NA,sdfdsf,0,1,NA,NA,NA,NA,NA,NA,NA,NA,NA,NA,NA,NA,NA,NA,NA,NA,NA,NA,NA
80029,shallow,flow.Sequence,3_0_1_0_4_1,NA,NA,completion,8366.892,844433.5,844429.672,844463.004,852829.896,852832.6,2023-02-02T14:16:51Z,852863.228,NULL,Prüfung,mtihani,s,mkulima,mtizamo,ufumbuzi,NA,sdfdsf,NA,1,NA,NA,NA,NA,NA,NA,NA,NA,NA,NA,NA,NA,NA,NA,NA,NA,NA,NA,NA
80029,task,flow.Sequence,3_0_1_0_4,NA,NA,completion,8366.892,844433.2,844429.672,844463.004,852829.896,852833,2023-02-02T14:16:51Z,852863.228,NULL,Prüfung,mtihani,s,mkulima,mtizamo,ufumbuzi,NA,sdfdsf,NA,1,NA,NA,NA,NA,NA,NA,NA,NA,NA,NA,NA,NA,NA,NA,NA,NA,NA,NA,NA
80029,Deep Question,html.Page,3_0_1_0_5_0_0,NA,NA,form submission,3612.8720000015,852833.2,852829.896,852863.228,856476.1,856476.7,2023-02-02T14:16:55Z,856496.416,NULL,Verzögerung,kuchelewa,d,NA,NA,NA,midhini,NA,NA,1,NA,NA,NA,NA,NA,NA,NA,NA,NA,NA,NA,NA,NA,NA,NA,NA,NA,NA,NA
80029,"""Richtig""-Screen",canvas.Screen,3_0_1_0_5_0_1,NA,NA,skipped,NA,856479.7,NA,NA,856476.1,856479.8,2023-02-02T14:16:55Z,856496.416,NULL,Verzögerung,kuchelewa,d,NA,NA,NA,NA,sdfdsf,NA,1,NA,NA,NA,NA,NA,NA,NA,NA,NA,NA,NA,NA,NA,NA,NA,NA,NA,NA,NA
80029,"""Falsch""-Screen",canvas.Screen,3_0_1_0_5_0_2,NA,NA,timeout,5000.583,856480.9,856463.084,856496.416,861462.884,861465.4,2023-02-02T14:17:00Z,861496.999,NULL,Verzögerung,kuchelewa,d,NA,NA,NA,NA,sdfdsf,0,1,NA,NA,NA,NA,NA,NA,NA,NA,NA,NA,NA,NA,NA,NA,NA,NA,NA,NA,NA
80029,deep,flow.Sequence,3_0_1_0_5_0,NA,NA,completion,8599.656,852833.1,852829.896,852863.228,861462.884,861465.8,2023-02-02T14:17:00Z,861496.999,NULL,Verzögerung,kuchelewa,d,NA,NA,NA,NA,sdfdsf,NA,1,NA,NA,NA,NA,NA,NA,NA,NA,NA,NA,NA,NA,NA,NA,NA,NA,NA,NA,NA
80029,shallow,flow.Sequence,3_0_1_0_5_1,NA,NA,skipped,NA,861466,NA,NA,861462.884,861466.1,2023-02-02T14:17:00Z,861496.999,NULL,Verzögerung,kuchelewa,d,NA,NA,NA,NA,sdfdsf,NA,1,NA,NA,NA,NA,NA,NA,NA,NA,NA,NA,NA,NA,NA,NA,NA,NA,NA,NA,NA
80029,task,flow.Sequence,3_0_1_0_5,NA,NA,completion,8599.656,852833.1,852829.896,852863.228,861462.884,861466.3,2023-02-02T14:17:00Z,861496.999,NULL,Verzögerung,kuchelewa,d,NA,NA,NA,NA,sdfdsf,NA,1,NA,NA,NA,NA,NA,NA,NA,NA,NA,NA,NA,NA,NA,NA,NA,NA,NA,NA,NA
80029,deep,flow.Sequence,3_0_1_0_6_0,NA,NA,skipped,NA,861466.5,NA,NA,861462.884,861466.5,2023-02-02T14:17:00Z,861496.999,NULL,Integrität,uadilifu,s,muungano,mtiririko,upunguaji,NA,sdfdsf,NA,1,NA,NA,NA,NA,NA,NA,NA,NA,NA,NA,NA,NA,NA,NA,NA,NA,NA,NA,NA
80029,Shallow Question,html.Page,3_0_1_0_6_1_0,NA,NA,form submission,5239.4010000023,861466.8,861462.884,861496.999,866736.4,866737.1,2023-02-02T14:17:05Z,866763.455,NULL,Integrität,uadilifu,s,muungano,mtiririko,upunguaji,uadilifu,NA,NA,1,NA,NA,NA,NA,NA,NA,NA,NA,NA,NA,NA,NA,NA,NA,NA,NA,NA,NA,NA
80029,"""Richtig""-Screen",canvas.Screen,3_0_1_0_6_1_1,NA,NA,timeout,4999.8,866740.6,866730.123,866763.455,871729.923,871732.4,2023-02-02T14:17:10Z,871763.255,NULL,Integrität,uadilifu,s,muungano,mtiririko,upunguaji,NA,sdfdsf,1,1,NA,NA,NA,NA,NA,NA,NA,NA,NA,NA,NA,NA,NA,NA,NA,NA,NA,NA,NA
80029,"""Falsch""-Screen",canvas.Screen,3_0_1_0_6_1_2,NA,NA,skipped,NA,871736.9,NA,NA,871729.923,871737.1,2023-02-02T14:17:10Z,871763.255,NULL,Integrität,uadilifu,s,muungano,mtiririko,upunguaji,NA,sdfdsf,NA,1,NA,NA,NA,NA,NA,NA,NA,NA,NA,NA,NA,NA,NA,NA,NA,NA,NA,NA,NA
80029,shallow,flow.Sequence,3_0_1_0_6_1,NA,NA,completion,10232.924,861466.7,861462.884,861496.999,871729.923,871737.3,2023-02-02T14:17:10Z,871763.255,NULL,Integrität,uadilifu,s,muungano,mtiririko,upunguaji,NA,sdfdsf,NA,1,NA,NA,NA,NA,NA,NA,NA,NA,NA,NA,NA,NA,NA,NA,NA,NA,NA,NA,NA
80029,task,flow.Sequence,3_0_1_0_6,NA,NA,completion,10232.924,861466.4,861462.884,861496.999,871729.923,871737.5,2023-02-02T14:17:10Z,871763.255,NULL,Integrität,uadilifu,s,muungano,mtiririko,upunguaji,NA,sdfdsf,NA,1,NA,NA,NA,NA,NA,NA,NA,NA,NA,NA,NA,NA,NA,NA,NA,NA,NA,NA,NA
80029,deep,flow.Sequence,3_0_1_0_7_0,NA,NA,skipped,NA,871737.7,NA,NA,871729.923,871737.8,2023-02-02T14:17:10Z,871763.255,NULL,Fleisch,mshakiki,s,kizunguzungu,mshikamano,angusho,NA,sdfdsf,NA,1,NA,NA,NA,NA,NA,NA,NA,NA,NA,NA,NA,NA,NA,NA,NA,NA,NA,NA,NA
80029,Shallow Question,html.Page,3_0_1_0_7_1_0,NA,NA,form submission,4615.3450000015,871738,871729.923,871763.255,876378.6,876379.2,2023-02-02T14:17:15Z,876396.941,NULL,Fleisch,mshakiki,s,kizunguzungu,mshikamano,angusho,mshakiki,NA,NA,1,NA,NA,NA,NA,NA,NA,NA,NA,NA,NA,NA,NA,NA,NA,NA,NA,NA,NA,NA
80029,"""Richtig""-Screen",canvas.Screen,3_0_1_0_7_1_1,NA,NA,timeout,4999.8,876383.1,876363.609,876396.941,881363.409,881365.9,2023-02-02T14:17:20Z,881396.741,NULL,Fleisch,mshakiki,s,kizunguzungu,mshikamano,angusho,NA,sdfdsf,1,1,NA,NA,NA,NA,NA,NA,NA,NA,NA,NA,NA,NA,NA,NA,NA,NA,NA,NA,NA
80029,"""Falsch""-Screen",canvas.Screen,3_0_1_0_7_1_2,NA,NA,skipped,NA,881369.2,NA,NA,881363.409,881369.3,2023-02-02T14:17:20Z,881396.741,NULL,Fleisch,mshakiki,s,kizunguzungu,mshikamano,angusho,NA,sdfdsf,NA,1,NA,NA,NA,NA,NA,NA,NA,NA,NA,NA,NA,NA,NA,NA,NA,NA,NA,NA,NA
80029,shallow,flow.Sequence,3_0_1_0_7_1,NA,NA,completion,9600.154,871737.9,871729.923,871763.255,881363.409,881369.5,2023-02-02T14:17:20Z,881396.741,NULL,Fleisch,mshakiki,s,kizunguzungu,mshikamano,angusho,NA,sdfdsf,NA,1,NA,NA,NA,NA,NA,NA,NA,NA,NA,NA,NA,NA,NA,NA,NA,NA,NA,NA,NA
80029,task,flow.Sequence,3_0_1_0_7,NA,NA,completion,9600.154,871737.7,871729.923,871763.255,881363.409,881369.6,2023-02-02T14:17:20Z,881396.741,NULL,Fleisch,mshakiki,s,kizunguzungu,mshikamano,angusho,NA,sdfdsf,NA,1,NA,NA,NA,NA,NA,NA,NA,NA,NA,NA,NA,NA,NA,NA,NA,NA,NA,NA,NA
80029,block,flow.Loop,3_0_1_0,NA,NA,completion,71067.502,810267.4,810262.575,810295.907,881363.409,881369.7,2023-02-02T14:17:20Z,881396.741,NULL,NA,NA,NA,NA,NA,NA,NA,sdfdsf,NA,1,NA,NA,NA,NA,NA,NA,NA,NA,NA,NA,NA,NA,NA,NA,NA,NA,NA,NA,NA
80029,weiter,canvas.Screen,3_0_1_1,sdf,keypress(Space),response,853.6590000022,881369.8,881363.409,881396.741,882250.4,882253.8,2023-02-02T14:17:21Z,882313.909,NULL,NA,NA,NA,NA,NA,NA,NA,sdfdsf,NA,1,NA,NA,NA,NA,NA,NA,NA,NA,NA,NA,NA,NA,NA,NA,NA,NA,NA,NA,NA
80029,check continue,flow.Sequence,3_0_1,NA,NA,completion,71954.493000002,810267.4,810262.575,810295.907,882250.4,882254.1,2023-02-02T14:17:21Z,882313.909,NULL,NA,NA,NA,NA,NA,NA,NA,sdfdsf,NA,1,NA,NA,NA,NA,NA,NA,NA,NA,NA,NA,NA,NA,NA,NA,NA,NA,NA,NA,NA
80029,deep,flow.Sequence,3_0_2_0_0_0,NA,NA,skipped,NA,882281.4,NA,NA,882250.4,882281.5,2023-02-02T14:17:21Z,882313.909,NULL,Fleisch,mshakiki,s,kizunguzungu,mshikamano,angusho,NA,sdf,NA,2,NA,NA,NA,NA,NA,NA,NA,NA,NA,NA,NA,NA,NA,NA,NA,NA,NA,NA,NA
80029,Shallow Question,html.Page,3_0_2_0_0_1_0,NA,NA,form submission,4250.4910000023,882281.6,882280.039,882313.909,886564.4,886564.9,2023-02-02T14:17:25Z,886580.405,NULL,Fleisch,mshakiki,s,kizunguzungu,mshikamano,angusho,mshakiki,NA,NA,2,NA,NA,NA,NA,NA,NA,NA,NA,NA,NA,NA,NA,NA,NA,NA,NA,NA,NA,NA
80029,"""Richtig""-Screen",canvas.Screen,3_0_2_0_0_1_1,NA,NA,timeout,4999.7999999999,886568.1,886547.073,886580.405,891546.873,891549.9,2023-02-02T14:17:30Z,891580.205,NULL,Fleisch,mshakiki,s,kizunguzungu,mshikamano,angusho,NA,sdf,1,2,NA,NA,NA,NA,NA,NA,NA,NA,NA,NA,NA,NA,NA,NA,NA,NA,NA,NA,NA
80029,"""Falsch""-Screen",canvas.Screen,3_0_2_0_0_1_2,NA,NA,skipped,NA,891554.3,NA,NA,891546.873,891554.5,2023-02-02T14:17:30Z,891580.205,NULL,Fleisch,mshakiki,s,kizunguzungu,mshikamano,angusho,NA,sdf,NA,2,NA,NA,NA,NA,NA,NA,NA,NA,NA,NA,NA,NA,NA,NA,NA,NA,NA,NA,NA
80029,shallow,flow.Sequence,3_0_2_0_0_1,NA,NA,completion,9232.964,882281.6,882280.039,882313.909,891546.873,891554.7,2023-02-02T14:17:30Z,891580.205,NULL,Fleisch,mshakiki,s,kizunguzungu,mshikamano,angusho,NA,sdf,NA,2,NA,NA,NA,NA,NA,NA,NA,NA,NA,NA,NA,NA,NA,NA,NA,NA,NA,NA,NA
80029,task,flow.Sequence,3_0_2_0_0,NA,NA,completion,9232.964,882281.4,882280.039,882313.909,891546.873,891554.8,2023-02-02T14:17:30Z,891580.205,NULL,Fleisch,mshakiki,s,kizunguzungu,mshikamano,angusho,NA,sdf,NA,2,NA,NA,NA,NA,NA,NA,NA,NA,NA,NA,NA,NA,NA,NA,NA,NA,NA,NA,NA
80029,deep,flow.Sequence,3_0_2_0_1_0,NA,NA,skipped,NA,891554.9,NA,NA,891546.873,891554.9,2023-02-02T14:17:30Z,891580.205,NULL,Prüfung,mtihani,s,mkulima,mtizamo,ufumbuzi,NA,sdf,NA,2,NA,NA,NA,NA,NA,NA,NA,NA,NA,NA,NA,NA,NA,NA,NA,NA,NA,NA,NA
80029,Shallow Question,html.Page,3_0_2_0_1_1_0,NA,NA,form submission,5435.3950000015,891555,891546.873,891580.205,897015.6,897016.3,2023-02-02T14:17:36Z,897047.087,NULL,Prüfung,mtihani,s,mkulima,mtizamo,ufumbuzi,mtihani,NA,NA,2,NA,NA,NA,NA,NA,NA,NA,NA,NA,NA,NA,NA,NA,NA,NA,NA,NA,NA,NA
80029,"""Richtig""-Screen",canvas.Screen,3_0_2_0_1_1_1,NA,NA,timeout,4999.7999999999,897019.1,897013.755,897047.087,902013.555,902016.3,2023-02-02T14:17:41Z,902046.887,NULL,Prüfung,mtihani,s,mkulima,mtizamo,ufumbuzi,NA,sdf,1,2,NA,NA,NA,NA,NA,NA,NA,NA,NA,NA,NA,NA,NA,NA,NA,NA,NA,NA,NA
80029,"""Falsch""-Screen",canvas.Screen,3_0_2_0_1_1_2,NA,NA,skipped,NA,902019.9,NA,NA,902013.555,902020,2023-02-02T14:17:41Z,902046.887,NULL,Prüfung,mtihani,s,mkulima,mtizamo,ufumbuzi,NA,sdf,NA,2,NA,NA,NA,NA,NA,NA,NA,NA,NA,NA,NA,NA,NA,NA,NA,NA,NA,NA,NA
80029,shallow,flow.Sequence,3_0_2_0_1_1,NA,NA,completion,10433.35,891555,891546.873,891580.205,902013.555,902020.1,2023-02-02T14:17:41Z,902046.887,NULL,Prüfung,mtihani,s,mkulima,mtizamo,ufumbuzi,NA,sdf,NA,2,NA,NA,NA,NA,NA,NA,NA,NA,NA,NA,NA,NA,NA,NA,NA,NA,NA,NA,NA
80029,task,flow.Sequence,3_0_2_0_1,NA,NA,completion,10433.35,891554.8,891546.873,891580.205,902013.555,902020.3,2023-02-02T14:17:41Z,902046.887,NULL,Prüfung,mtihani,s,mkulima,mtizamo,ufumbuzi,NA,sdf,NA,2,NA,NA,NA,NA,NA,NA,NA,NA,NA,NA,NA,NA,NA,NA,NA,NA,NA,NA,NA
80029,Deep Question,html.Page,3_0_2_0_2_0_0,NA,NA,form submission,3519.7130000015,902020.4,902013.555,902046.887,905566.6,905567.1,2023-02-02T14:17:44Z,905597.296,NULL,Genehmigung,idhini,d,NA,NA,NA,idhini,NA,NA,2,NA,NA,NA,NA,NA,NA,NA,NA,NA,NA,NA,NA,NA,NA,NA,NA,NA,NA,NA
80029,"""Richtig""-Screen",canvas.Screen,3_0_2_0_2_0_1,NA,NA,timeout,4999.8,905571.1,905563.964,905597.296,910563.764,910566.4,2023-02-02T14:17:49Z,910597.096,NULL,Genehmigung,idhini,d,NA,NA,NA,NA,sdf,1,2,NA,NA,NA,NA,NA,NA,NA,NA,NA,NA,NA,NA,NA,NA,NA,NA,NA,NA,NA
80029,"""Falsch""-Screen",canvas.Screen,3_0_2_0_2_0_2,NA,NA,skipped,NA,910570.1,NA,NA,910563.764,910570.2,2023-02-02T14:17:49Z,910597.096,NULL,Genehmigung,idhini,d,NA,NA,NA,NA,sdf,NA,2,NA,NA,NA,NA,NA,NA,NA,NA,NA,NA,NA,NA,NA,NA,NA,NA,NA,NA,NA
80029,deep,flow.Sequence,3_0_2_0_2_0,NA,NA,completion,8516.877,902020.4,902013.555,902046.887,910563.764,910570.3,2023-02-02T14:17:49Z,910597.096,NULL,Genehmigung,idhini,d,NA,NA,NA,NA,sdf,NA,2,NA,NA,NA,NA,NA,NA,NA,NA,NA,NA,NA,NA,NA,NA,NA,NA,NA,NA,NA
80029,shallow,flow.Sequence,3_0_2_0_2_1,NA,NA,skipped,NA,910570.4,NA,NA,910563.764,910570.5,2023-02-02T14:17:49Z,910597.096,NULL,Genehmigung,idhini,d,NA,NA,NA,NA,sdf,NA,2,NA,NA,NA,NA,NA,NA,NA,NA,NA,NA,NA,NA,NA,NA,NA,NA,NA,NA,NA
80029,task,flow.Sequence,3_0_2_0_2,NA,NA,completion,8516.877,902020.4,902013.555,902046.887,910563.764,910570.6,2023-02-02T14:17:49Z,910597.096,NULL,Genehmigung,idhini,d,NA,NA,NA,NA,sdf,NA,2,NA,NA,NA,NA,NA,NA,NA,NA,NA,NA,NA,NA,NA,NA,NA,NA,NA,NA,NA
80029,Deep Question,html.Page,3_0_2_0_3_0_0,NA,NA,form submission,10719.504000001,910570.6,910563.764,910597.096,921316.6,921317.1,2023-02-02T14:18:00Z,921347.315,NULL,Begegnung,kukutana,d,NA,NA,NA,kechelewa,NA,NA,2,NA,NA,NA,NA,NA,NA,NA,NA,NA,NA,NA,NA,NA,NA,NA,NA,NA,NA,NA
80029,"""Richtig""-Screen",canvas.Screen,3_0_2_0_3_0_1,NA,NA,skipped,NA,921319.8,NA,NA,921316.6,921319.9,2023-02-02T14:18:00Z,921347.315,NULL,Begegnung,kukutana,d,NA,NA,NA,NA,sdf,NA,2,NA,NA,NA,NA,NA,NA,NA,NA,NA,NA,NA,NA,NA,NA,NA,NA,NA,NA,NA
80029,"""Falsch""-Screen",canvas.Screen,3_0_2_0_3_0_2,NA,NA,timeout,5017.106,921320.5,921313.983,921347.315,926330.449,926332.5,2023-02-02T14:18:05Z,926364.421,NULL,Begegnung,kukutana,d,NA,NA,NA,NA,sdf,0,2,NA,NA,NA,NA,NA,NA,NA,NA,NA,NA,NA,NA,NA,NA,NA,NA,NA,NA,NA
80029,deep,flow.Sequence,3_0_2_0_3_0,NA,NA,completion,15733.353,910570.6,910563.764,910597.096,926330.449,926333,2023-02-02T14:18:05Z,926364.421,NULL,Begegnung,kukutana,d,NA,NA,NA,NA,sdf,NA,2,NA,NA,NA,NA,NA,NA,NA,NA,NA,NA,NA,NA,NA,NA,NA,NA,NA,NA,NA
80029,shallow,flow.Sequence,3_0_2_0_3_1,NA,NA,skipped,NA,926333.1,NA,NA,926330.449,926333.3,2023-02-02T14:18:05Z,926364.421,NULL,Begegnung,kukutana,d,NA,NA,NA,NA,sdf,NA,2,NA,NA,NA,NA,NA,NA,NA,NA,NA,NA,NA,NA,NA,NA,NA,NA,NA,NA,NA
80029,task,flow.Sequence,3_0_2_0_3,NA,NA,completion,15733.353,910570.6,910563.764,910597.096,926330.449,926333.5,2023-02-02T14:18:05Z,926364.421,NULL,Begegnung,kukutana,d,NA,NA,NA,NA,sdf,NA,2,NA,NA,NA,NA,NA,NA,NA,NA,NA,NA,NA,NA,NA,NA,NA,NA,NA,NA,NA
80029,deep,flow.Sequence,3_0_2_0_4_0,NA,NA,skipped,NA,926333.7,NA,NA,926330.449,926333.7,2023-02-02T14:18:05Z,926364.421,NULL,Integrität,uadilifu,s,muungano,mtiririko,upunguaji,NA,sdf,NA,2,NA,NA,NA,NA,NA,NA,NA,NA,NA,NA,NA,NA,NA,NA,NA,NA,NA,NA,NA
80029,Shallow Question,html.Page,3_0_2_0_4_1_0,NA,NA,form submission,3621.2789999993,926333.9,926330.449,926364.421,929985.7,929986.3,2023-02-02T14:18:09Z,930014.275,NULL,Integrität,uadilifu,s,muungano,mtiririko,upunguaji,upunguaji,NA,NA,2,NA,NA,NA,NA,NA,NA,NA,NA,NA,NA,NA,NA,NA,NA,NA,NA,NA,NA,NA
80029,"""Richtig""-Screen",canvas.Screen,3_0_2_0_4_1_1,NA,NA,skipped,NA,929989.3,NA,NA,929985.7,929989.5,2023-02-02T14:18:09Z,930014.275,NULL,Integrität,uadilifu,s,muungano,mtiririko,upunguaji,NA,sdf,NA,2,NA,NA,NA,NA,NA,NA,NA,NA,NA,NA,NA,NA,NA,NA,NA,NA,NA,NA,NA
80029,"""Falsch""-Screen",canvas.Screen,3_0_2_0_4_1_2,NA,NA,timeout,5016.466,929990.1,929980.943,930014.275,934997.409,935000,2023-02-02T14:18:14Z,935030.741,NULL,Integrität,uadilifu,s,muungano,mtiririko,upunguaji,NA,sdf,0,2,NA,NA,NA,NA,NA,NA,NA,NA,NA,NA,NA,NA,NA,NA,NA,NA,NA,NA,NA
80029,shallow,flow.Sequence,3_0_2_0_4_1,NA,NA,completion,8632.988,926333.9,926330.449,926364.421,934997.409,935000.4,2023-02-02T14:18:14Z,935030.741,NULL,Integrität,uadilifu,s,muungano,mtiririko,upunguaji,NA,sdf,NA,2,NA,NA,NA,NA,NA,NA,NA,NA,NA,NA,NA,NA,NA,NA,NA,NA,NA,NA,NA
80029,task,flow.Sequence,3_0_2_0_4,NA,NA,completion,8632.988,926333.6,926330.449,926364.421,934997.409,935000.7,2023-02-02T14:18:14Z,935030.741,NULL,Integrität,uadilifu,s,muungano,mtiririko,upunguaji,NA,sdf,NA,2,NA,NA,NA,NA,NA,NA,NA,NA,NA,NA,NA,NA,NA,NA,NA,NA,NA,NA,NA
80029,Deep Question,html.Page,3_0_2_0_5_0_0,NA,NA,form submission,4982.6590000022,935000.9,934997.409,935030.741,940013.4,940014,2023-02-02T14:18:19Z,940014.364,NULL,Kultur,utamaduni,d,NA,NA,NA,mziano,NA,NA,2,NA,NA,NA,NA,NA,NA,NA,NA,NA,NA,NA,NA,NA,NA,NA,NA,NA,NA,NA
80029,"""Richtig""-Screen",canvas.Screen,3_0_2_0_5_0_1,NA,NA,skipped,NA,940016.7,NA,NA,940013.4,940016.9,2023-02-02T14:18:19Z,940014.364,NULL,Kultur,utamaduni,d,NA,NA,NA,NA,sdf,NA,2,NA,NA,NA,NA,NA,NA,NA,NA,NA,NA,NA,NA,NA,NA,NA,NA,NA,NA,NA
80029,"""Falsch""-Screen",canvas.Screen,3_0_2_0_5_0_2,NA,NA,timeout,4999.8,940017.5,939997.698,940014.364,944997.498,944999.4,2023-02-02T14:18:24Z,945014.164,NULL,Kultur,utamaduni,d,NA,NA,NA,NA,sdf,0,2,NA,NA,NA,NA,NA,NA,NA,NA,NA,NA,NA,NA,NA,NA,NA,NA,NA,NA,NA
80029,deep,flow.Sequence,3_0_2_0_5_0,NA,NA,completion,9966.757,935000.9,934997.409,935030.741,944997.498,944999.8,2023-02-02T14:18:24Z,945014.164,NULL,Kultur,utamaduni,d,NA,NA,NA,NA,sdf,NA,2,NA,NA,NA,NA,NA,NA,NA,NA,NA,NA,NA,NA,NA,NA,NA,NA,NA,NA,NA
80029,shallow,flow.Sequence,3_0_2_0_5_1,NA,NA,skipped,NA,945000.1,NA,NA,944997.498,945000.1,2023-02-02T14:18:24Z,945014.164,NULL,Kultur,utamaduni,d,NA,NA,NA,NA,sdf,NA,2,NA,NA,NA,NA,NA,NA,NA,NA,NA,NA,NA,NA,NA,NA,NA,NA,NA,NA,NA
80029,task,flow.Sequence,3_0_2_0_5,NA,NA,completion,9966.757,935000.8,934997.409,935030.741,944997.498,945000.4,2023-02-02T14:18:24Z,945014.164,NULL,Kultur,utamaduni,d,NA,NA,NA,NA,sdf,NA,2,NA,NA,NA,NA,NA,NA,NA,NA,NA,NA,NA,NA,NA,NA,NA,NA,NA,NA,NA
80029,Deep Question,html.Page,3_0_2_0_6_0_0,NA,NA,form submission,6670.5359999993,945000.5,944997.498,945014.164,951684.7,951685.3,2023-02-02T14:18:30Z,951697.889,NULL,Verzögerung,kuchelewa,d,NA,NA,NA,mzaino,NA,NA,2,NA,NA,NA,NA,NA,NA,NA,NA,NA,NA,NA,NA,NA,NA,NA,NA,NA,NA,NA
80029,"""Richtig""-Screen",canvas.Screen,3_0_2_0_6_0_1,NA,NA,skipped,NA,951689.2,NA,NA,951684.7,951689.4,2023-02-02T14:18:30Z,951697.889,NULL,Verzögerung,kuchelewa,d,NA,NA,NA,NA,sdf,NA,2,NA,NA,NA,NA,NA,NA,NA,NA,NA,NA,NA,NA,NA,NA,NA,NA,NA,NA,NA
80029,"""Falsch""-Screen",canvas.Screen,3_0_2_0_6_0_2,NA,NA,timeout,4999.8,951690.4,951681.223,951697.889,956681.023,956682.4,2023-02-02T14:18:35Z,956697.689,NULL,Verzögerung,kuchelewa,d,NA,NA,NA,NA,sdf,0,2,NA,NA,NA,NA,NA,NA,NA,NA,NA,NA,NA,NA,NA,NA,NA,NA,NA,NA,NA
80029,deep,flow.Sequence,3_0_2_0_6_0,NA,NA,completion,11666.859,945000.5,944997.498,945014.164,956681.023,956682.9,2023-02-02T14:18:35Z,956697.689,NULL,Verzögerung,kuchelewa,d,NA,NA,NA,NA,sdf,NA,2,NA,NA,NA,NA,NA,NA,NA,NA,NA,NA,NA,NA,NA,NA,NA,NA,NA,NA,NA
80029,shallow,flow.Sequence,3_0_2_0_6_1,NA,NA,skipped,NA,956683.1,NA,NA,956681.023,956683.2,2023-02-02T14:18:35Z,956697.689,NULL,Verzögerung,kuchelewa,d,NA,NA,NA,NA,sdf,NA,2,NA,NA,NA,NA,NA,NA,NA,NA,NA,NA,NA,NA,NA,NA,NA,NA,NA,NA,NA
80029,task,flow.Sequence,3_0_2_0_6,NA,NA,completion,11666.859,945000.5,944997.498,945014.164,956681.023,956683.4,2023-02-02T14:18:35Z,956697.689,NULL,Verzögerung,kuchelewa,d,NA,NA,NA,NA,sdf,NA,2,NA,NA,NA,NA,NA,NA,NA,NA,NA,NA,NA,NA,NA,NA,NA,NA,NA,NA,NA
80029,deep,flow.Sequence,3_0_2_0_7_0,NA,NA,skipped,NA,956683.5,NA,NA,956681.023,956683.6,2023-02-02T14:18:35Z,956697.689,NULL,Aufstand,ugomaji,s,mazidio,msingi,kujieleza,NA,sdf,NA,2,NA,NA,NA,NA,NA,NA,NA,NA,NA,NA,NA,NA,NA,NA,NA,NA,NA,NA,NA
80029,Shallow Question,html.Page,3_0_2_0_7_1_0,NA,NA,form submission,4043.2110000022,956683.8,956681.023,956697.689,960740.9,960741.6,2023-02-02T14:18:39Z,960748.033,NULL,Aufstand,ugomaji,s,mazidio,msingi,kujieleza,mazidio,NA,NA,2,NA,NA,NA,NA,NA,NA,NA,NA,NA,NA,NA,NA,NA,NA,NA,NA,NA,NA,NA
80029,"""Richtig""-Screen",canvas.Screen,3_0_2_0_7_1_1,NA,NA,skipped,NA,960744.9,NA,NA,960740.9,960745,2023-02-02T14:18:39Z,960748.033,NULL,Aufstand,ugomaji,s,mazidio,msingi,kujieleza,NA,sdf,NA,2,NA,NA,NA,NA,NA,NA,NA,NA,NA,NA,NA,NA,NA,NA,NA,NA,NA,NA,NA
80029,"""Falsch""-Screen",canvas.Screen,3_0_2_0_7_1_2,NA,NA,timeout,4999.7999999999,960745.6,960731.367,960748.033,965731.167,965733.4,2023-02-02T14:18:44Z,965747.833,NULL,Aufstand,ugomaji,s,mazidio,msingi,kujieleza,NA,sdf,0,2,NA,NA,NA,NA,NA,NA,NA,NA,NA,NA,NA,NA,NA,NA,NA,NA,NA,NA,NA
80029,shallow,flow.Sequence,3_0_2_0_7_1,NA,NA,completion,9033.478,956683.7,956681.023,956697.689,965731.167,965734,2023-02-02T14:18:44Z,965747.833,NULL,Aufstand,ugomaji,s,mazidio,msingi,kujieleza,NA,sdf,NA,2,NA,NA,NA,NA,NA,NA,NA,NA,NA,NA,NA,NA,NA,NA,NA,NA,NA,NA,NA
80029,task,flow.Sequence,3_0_2_0_7,NA,NA,completion,9033.478,956683.5,956681.023,956697.689,965731.167,965734.2,2023-02-02T14:18:44Z,965747.833,NULL,Aufstand,ugomaji,s,mazidio,msingi,kujieleza,NA,sdf,NA,2,NA,NA,NA,NA,NA,NA,NA,NA,NA,NA,NA,NA,NA,NA,NA,NA,NA,NA,NA
80029,block,flow.Loop,3_0_2_0,NA,NA,completion,83417.258,882281.4,882280.039,882313.909,965731.167,965734.4,2023-02-02T14:18:44Z,965747.833,NULL,NA,NA,NA,NA,NA,NA,NA,sdf,NA,2,NA,NA,NA,NA,NA,NA,NA,NA,NA,NA,NA,NA,NA,NA,NA,NA,NA,NA,NA
80029,weiter,canvas.Screen,3_0_2_1,sdf,keypress(Space),response,1421.9670000008,965734.6,965731.167,965747.833,967169.8,967173.4,2023-02-02T14:18:46Z,967214.441,NULL,NA,NA,NA,NA,NA,NA,NA,sdf,NA,2,NA,NA,NA,NA,NA,NA,NA,NA,NA,NA,NA,NA,NA,NA,NA,NA,NA,NA,NA
80029,check continue,flow.Sequence,3_0_2,NA,NA,completion,84855.891000001,882281.4,882280.039,882313.909,967169.8,967173.7,2023-02-02T14:18:46Z,967214.441,NULL,NA,NA,NA,NA,NA,NA,NA,sdf,NA,2,NA,NA,NA,NA,NA,NA,NA,NA,NA,NA,NA,NA,NA,NA,NA,NA,NA,NA,NA
80029,Deep Question,html.Page,3_0_3_0_0_0_0,NA,NA,form submission,3217.059,967203.2,967197.775,967214.441,970431.5,970431.9,2023-02-02T14:18:49Z,970431.641,NULL,Verzögerung,kuchelewa,d,NA,NA,NA,idhini,NA,NA,3,NA,NA,NA,NA,NA,NA,NA,NA,NA,NA,NA,NA,NA,NA,NA,NA,NA,NA,NA
80029,"""Richtig""-Screen",canvas.Screen,3_0_3_0_0_0_1,NA,NA,skipped,NA,970433.1,NA,NA,970431.5,970433.3,2023-02-02T14:18:49Z,970431.641,NULL,Verzögerung,kuchelewa,d,NA,NA,NA,NA,qt,NA,3,NA,NA,NA,NA,NA,NA,NA,NA,NA,NA,NA,NA,NA,NA,NA,NA,NA,NA,NA
80029,"""Falsch""-Screen",canvas.Screen,3_0_3_0_0_0_2,NA,NA,timeout,4999.8,970433.9,970414.975,970431.641,975414.775,975416.8,2023-02-02T14:18:54Z,975431.441,NULL,Verzögerung,kuchelewa,d,NA,NA,NA,NA,qt,0,3,NA,NA,NA,NA,NA,NA,NA,NA,NA,NA,NA,NA,NA,NA,NA,NA,NA,NA,NA
80029,deep,flow.Sequence,3_0_3_0_0_0,NA,NA,completion,8200.334,967203.2,967197.775,967214.441,975414.775,975417.3,2023-02-02T14:18:54Z,975431.441,NULL,Verzögerung,kuchelewa,d,NA,NA,NA,NA,qt,NA,3,NA,NA,NA,NA,NA,NA,NA,NA,NA,NA,NA,NA,NA,NA,NA,NA,NA,NA,NA
80029,shallow,flow.Sequence,3_0_3_0_0_1,NA,NA,skipped,NA,975417.5,NA,NA,975414.775,975417.6,2023-02-02T14:18:54Z,975431.441,NULL,Verzögerung,kuchelewa,d,NA,NA,NA,NA,qt,NA,3,NA,NA,NA,NA,NA,NA,NA,NA,NA,NA,NA,NA,NA,NA,NA,NA,NA,NA,NA
80029,task,flow.Sequence,3_0_3_0_0,NA,NA,completion,8200.334,967203.2,967197.775,967214.441,975414.775,975417.8,2023-02-02T14:18:54Z,975431.441,NULL,Verzögerung,kuchelewa,d,NA,NA,NA,NA,qt,NA,3,NA,NA,NA,NA,NA,NA,NA,NA,NA,NA,NA,NA,NA,NA,NA,NA,NA,NA,NA
80029,Deep Question,html.Page,3_0_3_0_1_0_0,NA,NA,form submission,2934.559,975418,975414.775,975431.441,978366,978366.5,2023-02-02T14:18:57Z,978381.323,NULL,Genehmigung,idhini,d,NA,NA,NA,idhini,NA,NA,3,NA,NA,NA,NA,NA,NA,NA,NA,NA,NA,NA,NA,NA,NA,NA,NA,NA,NA,NA
80029,"""Richtig""-Screen",canvas.Screen,3_0_3_0_1_0_1,NA,NA,timeout,4999.8,978369.7,978364.657,978381.323,983364.457,983367.1,2023-02-02T14:19:02Z,983381.123,NULL,Genehmigung,idhini,d,NA,NA,NA,NA,qt,1,3,NA,NA,NA,NA,NA,NA,NA,NA,NA,NA,NA,NA,NA,NA,NA,NA,NA,NA,NA
80029,"""Falsch""-Screen",canvas.Screen,3_0_3_0_1_0_2,NA,NA,skipped,NA,983371.5,NA,NA,983364.457,983371.8,2023-02-02T14:19:02Z,983381.123,NULL,Genehmigung,idhini,d,NA,NA,NA,NA,qt,NA,3,NA,NA,NA,NA,NA,NA,NA,NA,NA,NA,NA,NA,NA,NA,NA,NA,NA,NA,NA
80029,deep,flow.Sequence,3_0_3_0_1_0,NA,NA,completion,7933.0160000001,975418,975414.775,975431.441,983364.457,983372,2023-02-02T14:19:02Z,983381.123,NULL,Genehmigung,idhini,d,NA,NA,NA,NA,qt,NA,3,NA,NA,NA,NA,NA,NA,NA,NA,NA,NA,NA,NA,NA,NA,NA,NA,NA,NA,NA
80029,shallow,flow.Sequence,3_0_3_0_1_1,NA,NA,skipped,NA,983372.1,NA,NA,983364.457,983372.1,2023-02-02T14:19:02Z,983381.123,NULL,Genehmigung,idhini,d,NA,NA,NA,NA,qt,NA,3,NA,NA,NA,NA,NA,NA,NA,NA,NA,NA,NA,NA,NA,NA,NA,NA,NA,NA,NA
80029,task,flow.Sequence,3_0_3_0_1,NA,NA,completion,7933.0160000001,975417.9,975414.775,975431.441,983364.457,983372.3,2023-02-02T14:19:02Z,983381.123,NULL,Genehmigung,idhini,d,NA,NA,NA,NA,qt,NA,3,NA,NA,NA,NA,NA,NA,NA,NA,NA,NA,NA,NA,NA,NA,NA,NA,NA,NA,NA
80029,deep,flow.Sequence,3_0_3_0_2_0,NA,NA,skipped,NA,983372.4,NA,NA,983364.457,983372.5,2023-02-02T14:19:02Z,983381.123,NULL,Fleisch,mshakiki,s,kizunguzungu,mshikamano,angusho,NA,qt,NA,3,NA,NA,NA,NA,NA,NA,NA,NA,NA,NA,NA,NA,NA,NA,NA,NA,NA,NA,NA
80029,Shallow Question,html.Page,3_0_3_0_2_1_0,NA,NA,form submission,3851.6770000007,983372.6,983364.457,983381.123,987232.8,987233.3,2023-02-02T14:19:06Z,987231.68,NULL,Fleisch,mshakiki,s,kizunguzungu,mshikamano,angusho,mshakiki,NA,NA,3,NA,NA,NA,NA,NA,NA,NA,NA,NA,NA,NA,NA,NA,NA,NA,NA,NA,NA,NA
80029,"""Richtig""-Screen",canvas.Screen,3_0_3_0_2_1_1,NA,NA,timeout,4999.7999999999,987235.9,987215.014,987231.68,992214.814,992217.6,2023-02-02T14:19:11Z,992231.48,NULL,Fleisch,mshakiki,s,kizunguzungu,mshikamano,angusho,NA,qt,1,3,NA,NA,NA,NA,NA,NA,NA,NA,NA,NA,NA,NA,NA,NA,NA,NA,NA,NA,NA
80029,"""Falsch""-Screen",canvas.Screen,3_0_3_0_2_1_2,NA,NA,skipped,NA,992222.1,NA,NA,992214.814,992222.3,2023-02-02T14:19:11Z,992231.48,NULL,Fleisch,mshakiki,s,kizunguzungu,mshikamano,angusho,NA,qt,NA,3,NA,NA,NA,NA,NA,NA,NA,NA,NA,NA,NA,NA,NA,NA,NA,NA,NA,NA,NA
80029,shallow,flow.Sequence,3_0_3_0_2_1,NA,NA,completion,8833.691,983372.5,983364.457,983381.123,992214.814,992222.5,2023-02-02T14:19:11Z,992231.48,NULL,Fleisch,mshakiki,s,kizunguzungu,mshikamano,angusho,NA,qt,NA,3,NA,NA,NA,NA,NA,NA,NA,NA,NA,NA,NA,NA,NA,NA,NA,NA,NA,NA,NA
80029,task,flow.Sequence,3_0_3_0_2,NA,NA,completion,8833.691,983372.4,983364.457,983381.123,992214.814,992222.6,2023-02-02T14:19:11Z,992231.48,NULL,Fleisch,mshakiki,s,kizunguzungu,mshikamano,angusho,NA,qt,NA,3,NA,NA,NA,NA,NA,NA,NA,NA,NA,NA,NA,NA,NA,NA,NA,NA,NA,NA,NA
80029,deep,flow.Sequence,3_0_3_0_3_0,NA,NA,skipped,NA,992222.8,NA,NA,992214.814,992222.9,2023-02-02T14:19:11Z,992231.48,NULL,Integrität,uadilifu,s,muungano,mtiririko,upunguaji,NA,qt,NA,3,NA,NA,NA,NA,NA,NA,NA,NA,NA,NA,NA,NA,NA,NA,NA,NA,NA,NA,NA
80029,Shallow Question,html.Page,3_0_3_0_3_1_0,NA,NA,form submission,4132.52,992223,992214.814,992231.48,996364,996364.6,2023-02-02T14:19:15Z,996365.239,NULL,Integrität,uadilifu,s,muungano,mtiririko,upunguaji,uadilifu,NA,NA,3,NA,NA,NA,NA,NA,NA,NA,NA,NA,NA,NA,NA,NA,NA,NA,NA,NA,NA,NA
80029,"""Richtig""-Screen",canvas.Screen,3_0_3_0_3_1_1,NA,NA,timeout,4999.8,996367.3,996348.573,996365.239,1001348.373,1001350.5,2023-02-02T14:19:20Z,1001365.039,NULL,Integrität,uadilifu,s,muungano,mtiririko,upunguaji,NA,qt,1,3,NA,NA,NA,NA,NA,NA,NA,NA,NA,NA,NA,NA,NA,NA,NA,NA,NA,NA,NA
80029,"""Falsch""-Screen",canvas.Screen,3_0_3_0_3_1_2,NA,NA,skipped,NA,1001355.1,NA,NA,1001348.373,1001355.2,2023-02-02T14:19:20Z,1001365.039,NULL,Integrität,uadilifu,s,muungano,mtiririko,upunguaji,NA,qt,NA,3,NA,NA,NA,NA,NA,NA,NA,NA,NA,NA,NA,NA,NA,NA,NA,NA,NA,NA,NA
80029,shallow,flow.Sequence,3_0_3_0_3_1,NA,NA,completion,9116.893,992223,992214.814,992231.48,1001348.373,1001355.3,2023-02-02T14:19:20Z,1001365.039,NULL,Integrität,uadilifu,s,muungano,mtiririko,upunguaji,NA,qt,NA,3,NA,NA,NA,NA,NA,NA,NA,NA,NA,NA,NA,NA,NA,NA,NA,NA,NA,NA,NA
80029,task,flow.Sequence,3_0_3_0_3,NA,NA,completion,9116.893,992222.8,992214.814,992231.48,1001348.373,1001355.4,2023-02-02T14:19:20Z,1001365.039,NULL,Integrität,uadilifu,s,muungano,mtiririko,upunguaji,NA,qt,NA,3,NA,NA,NA,NA,NA,NA,NA,NA,NA,NA,NA,NA,NA,NA,NA,NA,NA,NA,NA
80029,deep,flow.Sequence,3_0_3_0_4_0,NA,NA,skipped,NA,1001355.6,NA,NA,1001348.373,1001355.6,2023-02-02T14:19:20Z,1001365.039,NULL,Prüfung,mtihani,s,mkulima,mtizamo,ufumbuzi,NA,qt,NA,3,NA,NA,NA,NA,NA,NA,NA,NA,NA,NA,NA,NA,NA,NA,NA,NA,NA,NA,NA
80029,Shallow Question,html.Page,3_0_3_0_4_1_0,NA,NA,form submission,5424.961,1001355.7,1001348.373,1001365.039,1006790,1006790.5,2023-02-02T14:19:25Z,1006798.705,NULL,Prüfung,mtihani,s,mkulima,mtizamo,ufumbuzi,mtihani,NA,NA,3,NA,NA,NA,NA,NA,NA,NA,NA,NA,NA,NA,NA,NA,NA,NA,NA,NA,NA,NA
80029,"""Richtig""-Screen",canvas.Screen,3_0_3_0_4_1_1,NA,NA,timeout,4999.8,1006793.8,1006782.039,1006798.705,1011781.839,1011784.1,2023-02-02T14:19:30Z,1011798.505,NULL,Prüfung,mtihani,s,mkulima,mtizamo,ufumbuzi,NA,qt,1,3,NA,NA,NA,NA,NA,NA,NA,NA,NA,NA,NA,NA,NA,NA,NA,NA,NA,NA,NA
80029,"""Falsch""-Screen",canvas.Screen,3_0_3_0_4_1_2,NA,NA,skipped,NA,1011788.4,NA,NA,1011781.839,1011788.6,2023-02-02T14:19:30Z,1011798.505,NULL,Prüfung,mtihani,s,mkulima,mtizamo,ufumbuzi,NA,qt,NA,3,NA,NA,NA,NA,NA,NA,NA,NA,NA,NA,NA,NA,NA,NA,NA,NA,NA,NA,NA
80029,shallow,flow.Sequence,3_0_3_0_4_1,NA,NA,completion,10416.8,1001355.6,1001348.373,1001365.039,1011781.839,1011788.7,2023-02-02T14:19:30Z,1011798.505,NULL,Prüfung,mtihani,s,mkulima,mtizamo,ufumbuzi,NA,qt,NA,3,NA,NA,NA,NA,NA,NA,NA,NA,NA,NA,NA,NA,NA,NA,NA,NA,NA,NA,NA
80029,task,flow.Sequence,3_0_3_0_4,NA,NA,completion,10416.8,1001355.5,1001348.373,1001365.039,1011781.839,1011788.7,2023-02-02T14:19:30Z,1011798.505,NULL,Prüfung,mtihani,s,mkulima,mtizamo,ufumbuzi,NA,qt,NA,3,NA,NA,NA,NA,NA,NA,NA,NA,NA,NA,NA,NA,NA,NA,NA,NA,NA,NA,NA
80029,Deep Question,html.Page,3_0_3_0_5_0_0,NA,NA,form submission,4570.495,1011788.8,1011781.839,1011798.505,1016369,1016369.6,2023-02-02T14:19:35Z,1016382.199,NULL,Begegnung,kukutana,d,NA,NA,NA,kechelewa,NA,NA,3,NA,NA,NA,NA,NA,NA,NA,NA,NA,NA,NA,NA,NA,NA,NA,NA,NA,NA,NA
80029,"""Richtig""-Screen",canvas.Screen,3_0_3_0_5_0_1,NA,NA,skipped,NA,1016372.9,NA,NA,1016369,1016373.2,2023-02-02T14:19:35Z,1016382.199,NULL,Begegnung,kukutana,d,NA,NA,NA,NA,qt,NA,3,NA,NA,NA,NA,NA,NA,NA,NA,NA,NA,NA,NA,NA,NA,NA,NA,NA,NA,NA
80029,"""Falsch""-Screen",canvas.Screen,3_0_3_0_5_0_2,NA,NA,timeout,4999.7999999999,1016374.3,1016365.533,1016382.199,1021365.333,1021367.8,2023-02-02T14:19:40Z,1021381.999,NULL,Begegnung,kukutana,d,NA,NA,NA,NA,qt,0,3,NA,NA,NA,NA,NA,NA,NA,NA,NA,NA,NA,NA,NA,NA,NA,NA,NA,NA,NA
80029,deep,flow.Sequence,3_0_3_0_5_0,NA,NA,completion,9566.828,1011788.8,1011781.839,1011798.505,1021365.333,1021368.3,2023-02-02T14:19:40Z,1021381.999,NULL,Begegnung,kukutana,d,NA,NA,NA,NA,qt,NA,3,NA,NA,NA,NA,NA,NA,NA,NA,NA,NA,NA,NA,NA,NA,NA,NA,NA,NA,NA
80029,shallow,flow.Sequence,3_0_3_0_5_1,NA,NA,skipped,NA,1021368.4,NA,NA,1021365.333,1021368.6,2023-02-02T14:19:40Z,1021381.999,NULL,Begegnung,kukutana,d,NA,NA,NA,NA,qt,NA,3,NA,NA,NA,NA,NA,NA,NA,NA,NA,NA,NA,NA,NA,NA,NA,NA,NA,NA,NA
80029,task,flow.Sequence,3_0_3_0_5,NA,NA,completion,9566.828,1011788.7,1011781.839,1011798.505,1021365.333,1021368.7,2023-02-02T14:19:40Z,1021381.999,NULL,Begegnung,kukutana,d,NA,NA,NA,NA,qt,NA,3,NA,NA,NA,NA,NA,NA,NA,NA,NA,NA,NA,NA,NA,NA,NA,NA,NA,NA,NA
80029,Deep Question,html.Page,3_0_3_0_6_0_0,NA,NA,form submission,8192.001,1021369,1021365.333,1021381.999,1029574,1029574.5,2023-02-02T14:19:48Z,1029582.202,NULL,Kultur,utamaduni,d,NA,NA,NA,kuchelewa,NA,NA,3,NA,NA,NA,NA,NA,NA,NA,NA,NA,NA,NA,NA,NA,NA,NA,NA,NA,NA,NA
80029,"""Richtig""-Screen",canvas.Screen,3_0_3_0_6_0_1,NA,NA,skipped,NA,1029577.2,NA,NA,1029574,1029577.4,2023-02-02T14:19:48Z,1029582.202,NULL,Kultur,utamaduni,d,NA,NA,NA,NA,qt,NA,3,NA,NA,NA,NA,NA,NA,NA,NA,NA,NA,NA,NA,NA,NA,NA,NA,NA,NA,NA
80029,"""Falsch""-Screen",canvas.Screen,3_0_3_0_6_0_2,NA,NA,timeout,4999.7999999999,1029578,1029565.536,1029582.202,1034565.336,1034567.2,2023-02-02T14:19:53Z,1034582.002,NULL,Kultur,utamaduni,d,NA,NA,NA,NA,qt,0,3,NA,NA,NA,NA,NA,NA,NA,NA,NA,NA,NA,NA,NA,NA,NA,NA,NA,NA,NA
80029,deep,flow.Sequence,3_0_3_0_6_0,NA,NA,completion,13183.337,1021368.9,1021365.333,1021381.999,1034565.336,1034567.7,2023-02-02T14:19:53Z,1034582.002,NULL,Kultur,utamaduni,d,NA,NA,NA,NA,qt,NA,3,NA,NA,NA,NA,NA,NA,NA,NA,NA,NA,NA,NA,NA,NA,NA,NA,NA,NA,NA
80029,shallow,flow.Sequence,3_0_3_0_6_1,NA,NA,skipped,NA,1034567.9,NA,NA,1034565.336,1034568,2023-02-02T14:19:53Z,1034582.002,NULL,Kultur,utamaduni,d,NA,NA,NA,NA,qt,NA,3,NA,NA,NA,NA,NA,NA,NA,NA,NA,NA,NA,NA,NA,NA,NA,NA,NA,NA,NA
80029,task,flow.Sequence,3_0_3_0_6,NA,NA,completion,13183.337,1021368.9,1021365.333,1021381.999,1034565.336,1034568.2,2023-02-02T14:19:53Z,1034582.002,NULL,Kultur,utamaduni,d,NA,NA,NA,NA,qt,NA,3,NA,NA,NA,NA,NA,NA,NA,NA,NA,NA,NA,NA,NA,NA,NA,NA,NA,NA,NA
80029,deep,flow.Sequence,3_0_3_0_7_0,NA,NA,skipped,NA,1034568.4,NA,NA,1034565.336,1034568.5,2023-02-02T14:19:53Z,1034582.002,NULL,Aufstand,ugomaji,s,mazidio,msingi,kujieleza,NA,qt,NA,3,NA,NA,NA,NA,NA,NA,NA,NA,NA,NA,NA,NA,NA,NA,NA,NA,NA,NA,NA
80029,Shallow Question,html.Page,3_0_3_0_7_1_0,NA,NA,form submission,3687.998,1034568.7,1034565.336,1034582.002,1038270,1038270.5,2023-02-02T14:19:57Z,1038282.465,NULL,Aufstand,ugomaji,s,mazidio,msingi,kujieleza,ugomaji,NA,NA,3,NA,NA,NA,NA,NA,NA,NA,NA,NA,NA,NA,NA,NA,NA,NA,NA,NA,NA,NA
80029,"""Richtig""-Screen",canvas.Screen,3_0_3_0_7_1_1,NA,NA,timeout,4999.8,1038274.3,1038265.799,1038282.465,1043265.599,1043268.1,2023-02-02T14:20:02Z,1043282.265,NULL,Aufstand,ugomaji,s,mazidio,msingi,kujieleza,NA,qt,1,3,NA,NA,NA,NA,NA,NA,NA,NA,NA,NA,NA,NA,NA,NA,NA,NA,NA,NA,NA
80029,"""Falsch""-Screen",canvas.Screen,3_0_3_0_7_1_2,NA,NA,skipped,NA,1043273,NA,NA,1043265.599,1043273.1,2023-02-02T14:20:02Z,1043282.265,NULL,Aufstand,ugomaji,s,mazidio,msingi,kujieleza,NA,qt,NA,3,NA,NA,NA,NA,NA,NA,NA,NA,NA,NA,NA,NA,NA,NA,NA,NA,NA,NA,NA
80029,shallow,flow.Sequence,3_0_3_0_7_1,NA,NA,completion,8683.5970000001,1034568.6,1034565.336,1034582.002,1043265.599,1043273.4,2023-02-02T14:20:02Z,1043282.265,NULL,Aufstand,ugomaji,s,mazidio,msingi,kujieleza,NA,qt,NA,3,NA,NA,NA,NA,NA,NA,NA,NA,NA,NA,NA,NA,NA,NA,NA,NA,NA,NA,NA
80029,task,flow.Sequence,3_0_3_0_7,NA,NA,completion,8683.5970000001,1034568.4,1034565.336,1034582.002,1043265.599,1043273.5,2023-02-02T14:20:02Z,1043282.265,NULL,Aufstand,ugomaji,s,mazidio,msingi,kujieleza,NA,qt,NA,3,NA,NA,NA,NA,NA,NA,NA,NA,NA,NA,NA,NA,NA,NA,NA,NA,NA,NA,NA
80029,block,flow.Loop,3_0_3_0,NA,NA,completion,76051.158,967203.2,967197.775,967214.441,1043265.599,1043273.6,2023-02-02T14:20:02Z,1043282.265,NULL,NA,NA,NA,NA,NA,NA,NA,qt,NA,3,NA,NA,NA,NA,NA,NA,NA,NA,NA,NA,NA,NA,NA,NA,NA,NA,NA,NA,NA
80029,weiter,canvas.Screen,3_0_3_1,sdf,keypress(Space),response,885.03500000073,1043273.7,1043265.599,1043282.265,1044167.3,1044170.9,2023-02-02T14:20:03Z,1044215.561,NULL,NA,NA,NA,NA,NA,NA,NA,qt,NA,3,NA,NA,NA,NA,NA,NA,NA,NA,NA,NA,NA,NA,NA,NA,NA,NA,NA,NA,NA
80029,check continue,flow.Sequence,3_0_3,NA,NA,completion,76952.859000001,967203.2,967197.775,967214.441,1044167.3,1044171.3,2023-02-02T14:20:03Z,1044215.561,NULL,NA,NA,NA,NA,NA,NA,NA,qt,NA,3,NA,NA,NA,NA,NA,NA,NA,NA,NA,NA,NA,NA,NA,NA,NA,NA,NA,NA,NA
80029,deep,flow.Sequence,3_0_4_0_0_0,NA,NA,skipped,NA,1044198.8,NA,NA,1044167.3,1044199,2023-02-02T14:20:03Z,1044215.561,NULL,Prüfung,mtihani,s,mkulima,mtizamo,ufumbuzi,NA,sd,NA,4,NA,NA,NA,NA,NA,NA,NA,NA,NA,NA,NA,NA,NA,NA,NA,NA,NA,NA,NA
80029,Shallow Question,html.Page,3_0_4_0_0_1_0,NA,NA,form submission,4175.8390000022,1044199.1,1044198.895,1044215.561,1048391.4,1048391.9,2023-02-02T14:20:07Z,1048399.263,NULL,Prüfung,mtihani,s,mkulima,mtizamo,ufumbuzi,mtihani,NA,NA,4,NA,NA,NA,NA,NA,NA,NA,NA,NA,NA,NA,NA,NA,NA,NA,NA,NA,NA,NA
80029,"""Richtig""-Screen",canvas.Screen,3_0_4_0_0_1_1,NA,NA,timeout,4999.8,1048395.1,1048382.597,1048399.263,1053382.397,1053384.5,2023-02-02T14:20:12Z,1053399.063,NULL,Prüfung,mtihani,s,mkulima,mtizamo,ufumbuzi,NA,sd,1,4,NA,NA,NA,NA,NA,NA,NA,NA,NA,NA,NA,NA,NA,NA,NA,NA,NA,NA,NA
80029,"""Falsch""-Screen",canvas.Screen,3_0_4_0_0_1_2,NA,NA,skipped,NA,1053388.3,NA,NA,1053382.397,1053388.4,2023-02-02T14:20:12Z,1053399.063,NULL,Prüfung,mtihani,s,mkulima,mtizamo,ufumbuzi,NA,sd,NA,4,NA,NA,NA,NA,NA,NA,NA,NA,NA,NA,NA,NA,NA,NA,NA,NA,NA,NA,NA
80029,shallow,flow.Sequence,3_0_4_0_0_1,NA,NA,completion,9166.8360000001,1044199.1,1044198.895,1044215.561,1053382.397,1053388.6,2023-02-02T14:20:12Z,1053399.063,NULL,Prüfung,mtihani,s,mkulima,mtizamo,ufumbuzi,NA,sd,NA,4,NA,NA,NA,NA,NA,NA,NA,NA,NA,NA,NA,NA,NA,NA,NA,NA,NA,NA,NA
80029,task,flow.Sequence,3_0_4_0_0,NA,NA,completion,9166.8360000001,1044198.8,1044198.895,1044215.561,1053382.397,1053388.6,2023-02-02T14:20:12Z,1053399.063,NULL,Prüfung,mtihani,s,mkulima,mtizamo,ufumbuzi,NA,sd,NA,4,NA,NA,NA,NA,NA,NA,NA,NA,NA,NA,NA,NA,NA,NA,NA,NA,NA,NA,NA
80029,deep,flow.Sequence,3_0_4_0_1_0,NA,NA,skipped,NA,1053388.8,NA,NA,1053382.397,1053388.8,2023-02-02T14:20:12Z,1053399.063,NULL,Fleisch,mshakiki,s,kizunguzungu,mshikamano,angusho,NA,sd,NA,4,NA,NA,NA,NA,NA,NA,NA,NA,NA,NA,NA,NA,NA,NA,NA,NA,NA,NA,NA
80029,Shallow Question,html.Page,3_0_4_0_1_1_0,NA,NA,form submission,3017.6369999992,1053388.8,1053382.397,1053399.063,1056416.7,1056417.4,2023-02-02T14:20:15Z,1056415.609,NULL,Fleisch,mshakiki,s,kizunguzungu,mshikamano,angusho,mshakiki,NA,NA,4,NA,NA,NA,NA,NA,NA,NA,NA,NA,NA,NA,NA,NA,NA,NA,NA,NA,NA,NA
80029,"""Richtig""-Screen",canvas.Screen,3_0_4_0_1_1_1,NA,NA,timeout,4999.8,1056421.1,1056398.943,1056415.609,1061398.743,1061400.6,2023-02-02T14:20:20Z,1061415.409,NULL,Fleisch,mshakiki,s,kizunguzungu,mshikamano,angusho,NA,sd,1,4,NA,NA,NA,NA,NA,NA,NA,NA,NA,NA,NA,NA,NA,NA,NA,NA,NA,NA,NA
80029,"""Falsch""-Screen",canvas.Screen,3_0_4_0_1_1_2,NA,NA,skipped,NA,1061404.3,NA,NA,1061398.743,1061404.4,2023-02-02T14:20:20Z,1061415.409,NULL,Fleisch,mshakiki,s,kizunguzungu,mshikamano,angusho,NA,sd,NA,4,NA,NA,NA,NA,NA,NA,NA,NA,NA,NA,NA,NA,NA,NA,NA,NA,NA,NA,NA
80029,shallow,flow.Sequence,3_0_4_0_1_1,NA,NA,completion,7999.6799999999,1053388.8,1053382.397,1053399.063,1061398.743,1061404.6,2023-02-02T14:20:20Z,1061415.409,NULL,Fleisch,mshakiki,s,kizunguzungu,mshikamano,angusho,NA,sd,NA,4,NA,NA,NA,NA,NA,NA,NA,NA,NA,NA,NA,NA,NA,NA,NA,NA,NA,NA,NA
80029,task,flow.Sequence,3_0_4_0_1,NA,NA,completion,7999.6799999999,1053388.7,1053382.397,1053399.063,1061398.743,1061404.6,2023-02-02T14:20:20Z,1061415.409,NULL,Fleisch,mshakiki,s,kizunguzungu,mshikamano,angusho,NA,sd,NA,4,NA,NA,NA,NA,NA,NA,NA,NA,NA,NA,NA,NA,NA,NA,NA,NA,NA,NA,NA
80029,Deep Question,html.Page,3_0_4_0_2_0_0,NA,NA,form submission,3786.8910000008,1061404.8,1061398.743,1061415.409,1065202.3,1065202.9,2023-02-02T14:20:24Z,1065216.002,NULL,Begegnung,kukutana,d,NA,NA,NA,kukutana,NA,NA,4,NA,NA,NA,NA,NA,NA,NA,NA,NA,NA,NA,NA,NA,NA,NA,NA,NA,NA,NA
80029,"""Richtig""-Screen",canvas.Screen,3_0_4_0_2_0_1,NA,NA,timeout,4999.7999999998,1065206.2,1065199.336,1065216.002,1070199.136,1070201.4,2023-02-02T14:20:29Z,1070215.802,NULL,Begegnung,kukutana,d,NA,NA,NA,NA,sd,1,4,NA,NA,NA,NA,NA,NA,NA,NA,NA,NA,NA,NA,NA,NA,NA,NA,NA,NA,NA
80029,"""Falsch""-Screen",canvas.Screen,3_0_4_0_2_0_2,NA,NA,skipped,NA,1070206.1,NA,NA,1070199.136,1070206.3,2023-02-02T14:20:29Z,1070215.802,NULL,Begegnung,kukutana,d,NA,NA,NA,NA,sd,NA,4,NA,NA,NA,NA,NA,NA,NA,NA,NA,NA,NA,NA,NA,NA,NA,NA,NA,NA,NA
80029,deep,flow.Sequence,3_0_4_0_2_0,NA,NA,completion,8783.727,1061404.8,1061398.743,1061415.409,1070199.136,1070206.5,2023-02-02T14:20:29Z,1070215.802,NULL,Begegnung,kukutana,d,NA,NA,NA,NA,sd,NA,4,NA,NA,NA,NA,NA,NA,NA,NA,NA,NA,NA,NA,NA,NA,NA,NA,NA,NA,NA
80029,shallow,flow.Sequence,3_0_4_0_2_1,NA,NA,skipped,NA,1070206.6,NA,NA,1070199.136,1070206.7,2023-02-02T14:20:29Z,1070215.802,NULL,Begegnung,kukutana,d,NA,NA,NA,NA,sd,NA,4,NA,NA,NA,NA,NA,NA,NA,NA,NA,NA,NA,NA,NA,NA,NA,NA,NA,NA,NA
80029,task,flow.Sequence,3_0_4_0_2,NA,NA,completion,8783.727,1061404.8,1061398.743,1061415.409,1070199.136,1070206.9,2023-02-02T14:20:29Z,1070215.802,NULL,Begegnung,kukutana,d,NA,NA,NA,NA,sd,NA,4,NA,NA,NA,NA,NA,NA,NA,NA,NA,NA,NA,NA,NA,NA,NA,NA,NA,NA,NA
80029,Deep Question,html.Page,3_0_4_0_3_0_0,NA,NA,form submission,3019.8979999993,1070207.2,1070199.136,1070215.802,1073235.7,1073236.2,2023-02-02T14:20:32Z,1073249.539,NULL,Genehmigung,idhini,d,NA,NA,NA,idhani,NA,NA,4,NA,NA,NA,NA,NA,NA,NA,NA,NA,NA,NA,NA,NA,NA,NA,NA,NA,NA,NA
80029,"""Richtig""-Screen",canvas.Screen,3_0_4_0_3_0_1,NA,NA,skipped,NA,1073239.5,NA,NA,1073235.7,1073239.8,2023-02-02T14:20:32Z,1073249.539,NULL,Genehmigung,idhini,d,NA,NA,NA,NA,sd,NA,4,NA,NA,NA,NA,NA,NA,NA,NA,NA,NA,NA,NA,NA,NA,NA,NA,NA,NA,NA
80029,"""Falsch""-Screen",canvas.Screen,3_0_4_0_3_0_2,NA,NA,timeout,4999.7999999998,1073241.1,1073232.873,1073249.539,1078232.673,1078234.8,2023-02-02T14:20:37Z,1078249.339,NULL,Genehmigung,idhini,d,NA,NA,NA,NA,sd,0,4,NA,NA,NA,NA,NA,NA,NA,NA,NA,NA,NA,NA,NA,NA,NA,NA,NA,NA,NA
80029,deep,flow.Sequence,3_0_4_0_3_0,NA,NA,completion,8016.871,1070207.1,1070199.136,1070215.802,1078232.673,1078235.2,2023-02-02T14:20:37Z,1078249.339,NULL,Genehmigung,idhini,d,NA,NA,NA,NA,sd,NA,4,NA,NA,NA,NA,NA,NA,NA,NA,NA,NA,NA,NA,NA,NA,NA,NA,NA,NA,NA
80029,shallow,flow.Sequence,3_0_4_0_3_1,NA,NA,skipped,NA,1078235.3,NA,NA,1078232.673,1078235.5,2023-02-02T14:20:37Z,1078249.339,NULL,Genehmigung,idhini,d,NA,NA,NA,NA,sd,NA,4,NA,NA,NA,NA,NA,NA,NA,NA,NA,NA,NA,NA,NA,NA,NA,NA,NA,NA,NA
80029,task,flow.Sequence,3_0_4_0_3,NA,NA,completion,8016.871,1070207.1,1070199.136,1070215.802,1078232.673,1078235.7,2023-02-02T14:20:37Z,1078249.339,NULL,Genehmigung,idhini,d,NA,NA,NA,NA,sd,NA,4,NA,NA,NA,NA,NA,NA,NA,NA,NA,NA,NA,NA,NA,NA,NA,NA,NA,NA,NA
80029,Deep Question,html.Page,3_0_4_0_4_0_0,NA,NA,form submission,8775.6610000001,1078235.8,1078232.673,1078249.339,1087025,1087025.6,2023-02-02T14:20:46Z,1087032.859,NULL,Kultur,utamaduni,d,NA,NA,NA,kuchelewa,NA,NA,4,NA,NA,NA,NA,NA,NA,NA,NA,NA,NA,NA,NA,NA,NA,NA,NA,NA,NA,NA
80029,"""Richtig""-Screen",canvas.Screen,3_0_4_0_4_0_1,NA,NA,skipped,NA,1087028.4,NA,NA,1087025,1087028.5,2023-02-02T14:20:46Z,1087032.859,NULL,Kultur,utamaduni,d,NA,NA,NA,NA,sd,NA,4,NA,NA,NA,NA,NA,NA,NA,NA,NA,NA,NA,NA,NA,NA,NA,NA,NA,NA,NA
80029,"""Falsch""-Screen",canvas.Screen,3_0_4_0_4_0_2,NA,NA,timeout,4999.8,1087029.2,1087016.193,1087032.859,1092015.993,1092017.9,2023-02-02T14:20:51Z,1092032.659,NULL,Kultur,utamaduni,d,NA,NA,NA,NA,sd,0,4,NA,NA,NA,NA,NA,NA,NA,NA,NA,NA,NA,NA,NA,NA,NA,NA,NA,NA,NA
80029,deep,flow.Sequence,3_0_4_0_4_0,NA,NA,completion,13766.654,1078235.8,1078232.673,1078249.339,1092015.993,1092018.3,2023-02-02T14:20:51Z,1092032.659,NULL,Kultur,utamaduni,d,NA,NA,NA,NA,sd,NA,4,NA,NA,NA,NA,NA,NA,NA,NA,NA,NA,NA,NA,NA,NA,NA,NA,NA,NA,NA
80029,shallow,flow.Sequence,3_0_4_0_4_1,NA,NA,skipped,NA,1092018.5,NA,NA,1092015.993,1092018.6,2023-02-02T14:20:51Z,1092032.659,NULL,Kultur,utamaduni,d,NA,NA,NA,NA,sd,NA,4,NA,NA,NA,NA,NA,NA,NA,NA,NA,NA,NA,NA,NA,NA,NA,NA,NA,NA,NA
80029,task,flow.Sequence,3_0_4_0_4,NA,NA,completion,13766.654,1078235.7,1078232.673,1078249.339,1092015.993,1092018.8,2023-02-02T14:20:51Z,1092032.659,NULL,Kultur,utamaduni,d,NA,NA,NA,NA,sd,NA,4,NA,NA,NA,NA,NA,NA,NA,NA,NA,NA,NA,NA,NA,NA,NA,NA,NA,NA,NA
80029,Deep Question,html.Page,3_0_4_0_5_0_0,NA,NA,form submission,7009.1410000008,1092019,1092015.993,1092032.659,1099041.8,1099042.1,2023-02-02T14:20:58Z,1099049.582,NULL,Verzögerung,kuchelewa,d,NA,NA,NA,mziano,NA,NA,4,NA,NA,NA,NA,NA,NA,NA,NA,NA,NA,NA,NA,NA,NA,NA,NA,NA,NA,NA
80029,"""Richtig""-Screen",canvas.Screen,3_0_4_0_5_0_1,NA,NA,skipped,NA,1099044.5,NA,NA,1099041.8,1099044.7,2023-02-02T14:20:58Z,1099049.582,NULL,Verzögerung,kuchelewa,d,NA,NA,NA,NA,sd,NA,4,NA,NA,NA,NA,NA,NA,NA,NA,NA,NA,NA,NA,NA,NA,NA,NA,NA,NA,NA
80029,"""Falsch""-Screen",canvas.Screen,3_0_4_0_5_0_2,NA,NA,timeout,4999.8,1099045.7,1099032.916,1099049.582,1104032.716,1104035,2023-02-02T14:21:03Z,1104049.382,NULL,Verzögerung,kuchelewa,d,NA,NA,NA,NA,sd,0,4,NA,NA,NA,NA,NA,NA,NA,NA,NA,NA,NA,NA,NA,NA,NA,NA,NA,NA,NA
80029,deep,flow.Sequence,3_0_4_0_5_0,NA,NA,completion,12000.057,1092019,1092015.993,1092032.659,1104032.716,1104035.3,2023-02-02T14:21:03Z,1104049.382,NULL,Verzögerung,kuchelewa,d,NA,NA,NA,NA,sd,NA,4,NA,NA,NA,NA,NA,NA,NA,NA,NA,NA,NA,NA,NA,NA,NA,NA,NA,NA,NA
80029,shallow,flow.Sequence,3_0_4_0_5_1,NA,NA,skipped,NA,1104035.5,NA,NA,1104032.716,1104035.6,2023-02-02T14:21:03Z,1104049.382,NULL,Verzögerung,kuchelewa,d,NA,NA,NA,NA,sd,NA,4,NA,NA,NA,NA,NA,NA,NA,NA,NA,NA,NA,NA,NA,NA,NA,NA,NA,NA,NA
80029,task,flow.Sequence,3_0_4_0_5,NA,NA,completion,12000.057,1092018.8,1092015.993,1092032.659,1104032.716,1104035.6,2023-02-02T14:21:03Z,1104049.382,NULL,Verzögerung,kuchelewa,d,NA,NA,NA,NA,sd,NA,4,NA,NA,NA,NA,NA,NA,NA,NA,NA,NA,NA,NA,NA,NA,NA,NA,NA,NA,NA
80029,deep,flow.Sequence,3_0_4_0_6_0,NA,NA,skipped,NA,1104035.8,NA,NA,1104032.716,1104035.9,2023-02-02T14:21:03Z,1104049.382,NULL,Aufstand,ugomaji,s,mazidio,msingi,kujieleza,NA,sd,NA,4,NA,NA,NA,NA,NA,NA,NA,NA,NA,NA,NA,NA,NA,NA,NA,NA,NA,NA,NA
80029,Shallow Question,html.Page,3_0_4_0_6_1_0,NA,NA,form submission,2680.8179999993,1104036,1104032.716,1104049.382,1106730.2,1106731,2023-02-02T14:21:05Z,1106733.237,NULL,Aufstand,ugomaji,s,mazidio,msingi,kujieleza,ugomaji,NA,NA,4,NA,NA,NA,NA,NA,NA,NA,NA,NA,NA,NA,NA,NA,NA,NA,NA,NA,NA,NA
80029,"""Richtig""-Screen",canvas.Screen,3_0_4_0_6_1_1,NA,NA,timeout,4999.8,1106734.1,1106716.571,1106733.237,1111716.371,1111718.3,2023-02-02T14:21:10Z,1111733.037,NULL,Aufstand,ugomaji,s,mazidio,msingi,kujieleza,NA,sd,1,4,NA,NA,NA,NA,NA,NA,NA,NA,NA,NA,NA,NA,NA,NA,NA,NA,NA,NA,NA
80029,"""Falsch""-Screen",canvas.Screen,3_0_4_0_6_1_2,NA,NA,skipped,NA,1111723.2,NA,NA,1111716.371,1111723.3,2023-02-02T14:21:10Z,1111733.037,NULL,Aufstand,ugomaji,s,mazidio,msingi,kujieleza,NA,sd,NA,4,NA,NA,NA,NA,NA,NA,NA,NA,NA,NA,NA,NA,NA,NA,NA,NA,NA,NA,NA
80029,shallow,flow.Sequence,3_0_4_0_6_1,NA,NA,completion,7666.9890000001,1104035.9,1104032.716,1104049.382,1111716.371,1111723.5,2023-02-02T14:21:10Z,1111733.037,NULL,Aufstand,ugomaji,s,mazidio,msingi,kujieleza,NA,sd,NA,4,NA,NA,NA,NA,NA,NA,NA,NA,NA,NA,NA,NA,NA,NA,NA,NA,NA,NA,NA
80029,task,flow.Sequence,3_0_4_0_6,NA,NA,completion,7666.9890000001,1104035.8,1104032.716,1104049.382,1111716.371,1111723.6,2023-02-02T14:21:10Z,1111733.037,NULL,Aufstand,ugomaji,s,mazidio,msingi,kujieleza,NA,sd,NA,4,NA,NA,NA,NA,NA,NA,NA,NA,NA,NA,NA,NA,NA,NA,NA,NA,NA,NA,NA
80029,deep,flow.Sequence,3_0_4_0_7_0,NA,NA,skipped,NA,1111723.6,NA,NA,1111716.371,1111723.7,2023-02-02T14:21:10Z,1111733.037,NULL,Integrität,uadilifu,s,muungano,mtiririko,upunguaji,NA,sd,NA,4,NA,NA,NA,NA,NA,NA,NA,NA,NA,NA,NA,NA,NA,NA,NA,NA,NA,NA,NA
80029,Shallow Question,html.Page,3_0_4_0_7_1_0,NA,NA,form submission,5187.7630000007,1111723.8,1111716.371,1111733.037,1116920.8,1116921.4,2023-02-02T14:21:16Z,1116933.367,NULL,Integrität,uadilifu,s,muungano,mtiririko,upunguaji,uadilifu,NA,NA,4,NA,NA,NA,NA,NA,NA,NA,NA,NA,NA,NA,NA,NA,NA,NA,NA,NA,NA,NA
80029,"""Richtig""-Screen",canvas.Screen,3_0_4_0_7_1_1,NA,NA,timeout,4999.7999999998,1116924.5,1116916.701,1116933.367,1121916.501,1121918.7,2023-02-02T14:21:21Z,1121933.167,NULL,Integrität,uadilifu,s,muungano,mtiririko,upunguaji,NA,sd,1,4,NA,NA,NA,NA,NA,NA,NA,NA,NA,NA,NA,NA,NA,NA,NA,NA,NA,NA,NA
80029,"""Falsch""-Screen",canvas.Screen,3_0_4_0_7_1_2,NA,NA,skipped,NA,1121923.2,NA,NA,1121916.501,1121923.5,2023-02-02T14:21:21Z,1121933.167,NULL,Integrität,uadilifu,s,muungano,mtiririko,upunguaji,NA,sd,NA,4,NA,NA,NA,NA,NA,NA,NA,NA,NA,NA,NA,NA,NA,NA,NA,NA,NA,NA,NA
80029,shallow,flow.Sequence,3_0_4_0_7_1,NA,NA,completion,10183.464,1111723.7,1111716.371,1111733.037,1121916.501,1121923.6,2023-02-02T14:21:21Z,1121933.167,NULL,Integrität,uadilifu,s,muungano,mtiririko,upunguaji,NA,sd,NA,4,NA,NA,NA,NA,NA,NA,NA,NA,NA,NA,NA,NA,NA,NA,NA,NA,NA,NA,NA
80029,task,flow.Sequence,3_0_4_0_7,NA,NA,completion,10183.464,1111723.6,1111716.371,1111733.037,1121916.501,1121923.8,2023-02-02T14:21:21Z,1121933.167,NULL,Integrität,uadilifu,s,muungano,mtiririko,upunguaji,NA,sd,NA,4,NA,NA,NA,NA,NA,NA,NA,NA,NA,NA,NA,NA,NA,NA,NA,NA,NA,NA,NA
80029,block,flow.Loop,3_0_4_0,NA,NA,completion,77700.94,1044198.8,1044198.895,1044215.561,1121916.501,1121924.1,2023-02-02T14:21:21Z,1121933.167,NULL,NA,NA,NA,NA,NA,NA,NA,sd,NA,4,NA,NA,NA,NA,NA,NA,NA,NA,NA,NA,NA,NA,NA,NA,NA,NA,NA,NA,NA
80029,weiter,canvas.Screen,3_0_4_1,sdf,keypress(Space),response,885.63300000085,1121924.3,1121916.501,1121933.167,1122818.8,1122822.4,2023-02-02T14:21:21Z,1123049.789,NULL,NA,NA,NA,NA,NA,NA,NA,sd,NA,4,NA,NA,NA,NA,NA,NA,NA,NA,NA,NA,NA,NA,NA,NA,NA,NA,NA,NA,NA
80029,check continue,flow.Sequence,3_0_4,NA,NA,completion,78603.239000001,1044198.7,1044198.895,1044215.561,1122818.8,1122822.6,2023-02-02T14:21:21Z,1123049.789,NULL,NA,NA,NA,NA,NA,NA,NA,sd,NA,4,NA,NA,NA,NA,NA,NA,NA,NA,NA,NA,NA,NA,NA,NA,NA,NA,NA,NA,NA
80029,check continue,flow.Sequence,3_0_5,NA,NA,skipped,NA,1122850.9,NA,NA,1122818.8,1122851,2023-02-02T14:21:22Z,1123049.789,NULL,NA,NA,NA,NA,NA,NA,NA,sdf,NA,5,NA,NA,NA,NA,NA,NA,NA,NA,NA,NA,NA,NA,NA,NA,NA,NA,NA,NA,NA
80029,check continue,flow.Sequence,3_0_6,NA,NA,skipped,NA,1122865.1,NA,NA,1122818.8,1122865.2,2023-02-02T14:21:22Z,1123049.789,NULL,NA,NA,NA,NA,NA,NA,NA,dfs,NA,6,NA,NA,NA,NA,NA,NA,NA,NA,NA,NA,NA,NA,NA,NA,NA,NA,NA,NA,NA
80029,check continue,flow.Sequence,3_0_7,NA,NA,skipped,NA,1122877.8,NA,NA,1122818.8,1122877.8,2023-02-02T14:21:22Z,1123049.789,NULL,NA,NA,NA,NA,NA,NA,NA,df,NA,7,NA,NA,NA,NA,NA,NA,NA,NA,NA,NA,NA,NA,NA,NA,NA,NA,NA,NA,NA
80029,check continue,flow.Sequence,3_0_8,NA,NA,skipped,NA,1122887.8,NA,NA,1122818.8,1122888,2023-02-02T14:21:22Z,1123049.789,NULL,NA,NA,NA,NA,NA,NA,NA,dfs,NA,8,NA,NA,NA,NA,NA,NA,NA,NA,NA,NA,NA,NA,NA,NA,NA,NA,NA,NA,NA
80029,check continue,flow.Sequence,3_0_9,NA,NA,skipped,NA,1122896.8,NA,NA,1122818.8,1122896.8,2023-02-02T14:21:22Z,1123049.789,NULL,NA,NA,NA,NA,NA,NA,NA,dsf,NA,9,NA,NA,NA,NA,NA,NA,NA,NA,NA,NA,NA,NA,NA,NA,NA,NA,NA,NA,NA
80029,check continue,flow.Sequence,3_0_10,NA,NA,skipped,NA,1122905.4,NA,NA,1122818.8,1122905.5,2023-02-02T14:21:22Z,1123049.789,NULL,NA,NA,NA,NA,NA,NA,NA,df,NA,10,NA,NA,NA,NA,NA,NA,NA,NA,NA,NA,NA,NA,NA,NA,NA,NA,NA,NA,NA
80029,check continue,flow.Sequence,3_0_11,NA,NA,skipped,NA,1122913,NA,NA,1122818.8,1122913.1,2023-02-02T14:21:22Z,1123049.789,NULL,NA,NA,NA,NA,NA,NA,NA,dfs,NA,11,NA,NA,NA,NA,NA,NA,NA,NA,NA,NA,NA,NA,NA,NA,NA,NA,NA,NA,NA
80029,check continue,flow.Sequence,3_0_12,NA,NA,skipped,NA,1122920.5,NA,NA,1122818.8,1122920.5,2023-02-02T14:21:22Z,1123049.789,NULL,NA,NA,NA,NA,NA,NA,NA,dsf,NA,12,NA,NA,NA,NA,NA,NA,NA,NA,NA,NA,NA,NA,NA,NA,NA,NA,NA,NA,NA
80029,check continue,flow.Sequence,3_0_13,NA,NA,skipped,NA,1122927.7,NA,NA,1122818.8,1122927.8,2023-02-02T14:21:22Z,1123049.789,NULL,NA,NA,NA,NA,NA,NA,NA,dsf,NA,13,NA,NA,NA,NA,NA,NA,NA,NA,NA,NA,NA,NA,NA,NA,NA,NA,NA,NA,NA
80029,check continue,flow.Sequence,3_0_14,NA,NA,skipped,NA,1122934.1,NA,NA,1122818.8,1122934.1,2023-02-02T14:21:22Z,1123049.789,NULL,NA,NA,NA,NA,NA,NA,NA,NA,NA,14,NA,NA,NA,NA,NA,NA,NA,NA,NA,NA,NA,NA,NA,NA,NA,NA,NA,NA,NA
80029,check continue,flow.Sequence,3_0_15,NA,NA,skipped,NA,1122940.6,NA,NA,1122818.8,1122940.6,2023-02-02T14:21:22Z,1123049.789,NULL,NA,NA,NA,NA,NA,NA,NA,NA,NA,15,NA,NA,NA,NA,NA,NA,NA,NA,NA,NA,NA,NA,NA,NA,NA,NA,NA,NA,NA
80029,check continue,flow.Sequence,3_0_16,NA,NA,skipped,NA,1122947,NA,NA,1122818.8,1122947,2023-02-02T14:21:22Z,1123049.789,NULL,NA,NA,NA,NA,NA,NA,NA,NA,NA,16,NA,NA,NA,NA,NA,NA,NA,NA,NA,NA,NA,NA,NA,NA,NA,NA,NA,NA,NA
80029,check continue,flow.Sequence,3_0_17,NA,NA,skipped,NA,1122953.4,NA,NA,1122818.8,1122953.4,2023-02-02T14:21:22Z,1123049.789,NULL,NA,NA,NA,NA,NA,NA,NA,NA,NA,17,NA,NA,NA,NA,NA,NA,NA,NA,NA,NA,NA,NA,NA,NA,NA,NA,NA,NA,NA
80029,check continue,flow.Sequence,3_0_18,NA,NA,skipped,NA,1122960.2,NA,NA,1122818.8,1122960.3,2023-02-02T14:21:22Z,1123049.789,NULL,NA,NA,NA,NA,NA,NA,NA,NA,NA,18,NA,NA,NA,NA,NA,NA,NA,NA,NA,NA,NA,NA,NA,NA,NA,NA,NA,NA,NA
80029,check continue,flow.Sequence,3_0_19,NA,NA,skipped,NA,1122966.3,NA,NA,1122818.8,1122966.3,2023-02-02T14:21:22Z,1123049.789,NULL,NA,NA,NA,NA,NA,NA,NA,NA,NA,19,NA,NA,NA,NA,NA,NA,NA,NA,NA,NA,NA,NA,NA,NA,NA,NA,NA,NA,NA
80029,check continue,flow.Sequence,3_0_20,NA,NA,skipped,NA,1122972.7,NA,NA,1122818.8,1122972.7,2023-02-02T14:21:22Z,1123049.789,NULL,NA,NA,NA,NA,NA,NA,NA,NA,NA,20,NA,NA,NA,NA,NA,NA,NA,NA,NA,NA,NA,NA,NA,NA,NA,NA,NA,NA,NA
80029,check continue,flow.Sequence,3_0_21,NA,NA,skipped,NA,1122979.1,NA,NA,1122818.8,1122979.2,2023-02-02T14:21:22Z,1123049.789,NULL,NA,NA,NA,NA,NA,NA,NA,NA,NA,21,NA,NA,NA,NA,NA,NA,NA,NA,NA,NA,NA,NA,NA,NA,NA,NA,NA,NA,NA
80029,check continue,flow.Sequence,3_0_22,NA,NA,skipped,NA,1122985.6,NA,NA,1122818.8,1122985.6,2023-02-02T14:21:22Z,1123049.789,NULL,NA,NA,NA,NA,NA,NA,NA,NA,NA,22,NA,NA,NA,NA,NA,NA,NA,NA,NA,NA,NA,NA,NA,NA,NA,NA,NA,NA,NA
80029,check continue,flow.Sequence,3_0_23,NA,NA,skipped,NA,1122991.9,NA,NA,1122818.8,1122991.9,2023-02-02T14:21:22Z,1123049.789,NULL,NA,NA,NA,NA,NA,NA,NA,NA,NA,23,NA,NA,NA,NA,NA,NA,NA,NA,NA,NA,NA,NA,NA,NA,NA,NA,NA,NA,NA
80029,check continue,flow.Sequence,3_0_24,NA,NA,skipped,NA,1122997.6,NA,NA,1122818.8,1122997.6,2023-02-02T14:21:22Z,1123049.789,NULL,NA,NA,NA,NA,NA,NA,NA,NA,NA,24,NA,NA,NA,NA,NA,NA,NA,NA,NA,NA,NA,NA,NA,NA,NA,NA,NA,NA,NA
80029,check continue,flow.Sequence,3_0_25,NA,NA,skipped,NA,1123004,NA,NA,1122818.8,1123004.1,2023-02-02T14:21:22Z,1123049.789,NULL,NA,NA,NA,NA,NA,NA,NA,NA,NA,25,NA,NA,NA,NA,NA,NA,NA,NA,NA,NA,NA,NA,NA,NA,NA,NA,NA,NA,NA
80029,check continue,flow.Sequence,3_0_26,NA,NA,skipped,NA,1123010.2,NA,NA,1122818.8,1123010.2,2023-02-02T14:21:22Z,1123049.789,NULL,NA,NA,NA,NA,NA,NA,NA,NA,NA,26,NA,NA,NA,NA,NA,NA,NA,NA,NA,NA,NA,NA,NA,NA,NA,NA,NA,NA,NA
80029,check continue,flow.Sequence,3_0_27,NA,NA,skipped,NA,1123023.4,NA,NA,1122818.8,1123023.4,2023-02-02T14:21:22Z,1123049.789,NULL,NA,NA,NA,NA,NA,NA,NA,NA,NA,27,NA,NA,NA,NA,NA,NA,NA,NA,NA,NA,NA,NA,NA,NA,NA,NA,NA,NA,NA
80029,check continue,flow.Sequence,3_0_28,NA,NA,skipped,NA,1123029.7,NA,NA,1122818.8,1123029.7,2023-02-02T14:21:22Z,1123049.789,NULL,NA,NA,NA,NA,NA,NA,NA,NA,NA,28,NA,NA,NA,NA,NA,NA,NA,NA,NA,NA,NA,NA,NA,NA,NA,NA,NA,NA,NA
80029,check continue,flow.Sequence,3_0_29,NA,NA,skipped,NA,1123036.4,NA,NA,1122818.8,1123036.4,2023-02-02T14:21:22Z,1123049.789,NULL,NA,NA,NA,NA,NA,NA,NA,NA,NA,29,NA,NA,NA,NA,NA,NA,NA,NA,NA,NA,NA,NA,NA,NA,NA,NA,NA,NA,NA
80029,until continue,flow.Loop,3_0,NA,NA,completion,390273.384,732509.7,732511.295,732545.416,1122818.8,1123036.4,2023-02-02T14:21:22Z,1123049.789,NULL,NA,NA,NA,NA,NA,NA,NA,NA,NA,NA,NA,NA,NA,NA,NA,NA,NA,NA,NA,NA,NA,NA,NA,NA,NA,NA,NA,NA,NA
80029,block 1,flow.Sequence,3,NA,NA,completion,390273.384,732509.6,732511.295,732545.416,1122818.8,1123036.5,2023-02-02T14:21:22Z,1123049.789,NULL,NA,NA,NA,NA,NA,NA,NA,NA,NA,NA,NA,NA,NA,NA,NA,NA,NA,NA,NA,NA,NA,NA,NA,NA,NA,NA,NA,NA,NA
80029,1.Part Over,canvas.Screen,4,NA,keypress(Space),response,24085.410999999,1123036.5,1123033.123,1123049.789,1147135.2,1147138.8,2023-02-02T14:21:46Z,1147198.823,NULL,NA,NA,NA,NA,NA,NA,NA,NA,NA,NA,NA,NA,NA,NA,NA,NA,NA,NA,NA,NA,NA,NA,NA,NA,NA,NA,NA,NA,NA
80029,Deep Question,html.Page,5_0_0_0_0_0_0,NA,NA,form submission,4419.7770000014,1147195.7,1147182.157,1147198.823,1151618.6,1151619.2,2023-02-02T14:21:50Z,1151633.673,NULL,Kanzler,diwani,d,NA,NA,NA,k,NA,NA,0,NA,NA,NA,NA,NA,NA,NA,NA,NA,NA,NA,NA,NA,NA,NA,NA,NA,NA,NA
80029,"""Richtig""-Screen",canvas.Screen,5_0_0_0_0_0_1,NA,NA,skipped,NA,1151622.6,NA,NA,1151618.6,1151622.9,2023-02-02T14:21:50Z,1151633.673,NULL,Kanzler,diwani,d,NA,NA,NA,NA,sdf,NA,0,NA,NA,NA,NA,NA,NA,NA,NA,NA,NA,NA,NA,NA,NA,NA,NA,NA,NA,NA
80029,"""Falsch""-Screen",canvas.Screen,5_0_0_0_0_0_2,NA,NA,timeout,4999.8,1151624.2,1151617.007,1151633.673,1156616.807,1156619.2,2023-02-02T14:21:55Z,1156633.473,NULL,Kanzler,diwani,d,NA,NA,NA,NA,sdf,0,0,NA,NA,NA,NA,NA,NA,NA,NA,NA,NA,NA,NA,NA,NA,NA,NA,NA,NA,NA
80029,deep,flow.Sequence,5_0_0_0_0_0,NA,NA,completion,9417.9839999999,1147195.7,1147182.157,1147198.823,1156616.807,1156619.6,2023-02-02T14:21:55Z,1156633.473,NULL,Kanzler,diwani,d,NA,NA,NA,NA,sdf,NA,0,NA,NA,NA,NA,NA,NA,NA,NA,NA,NA,NA,NA,NA,NA,NA,NA,NA,NA,NA
80029,shallow,flow.Sequence,5_0_0_0_0_1,NA,NA,skipped,NA,1156619.7,NA,NA,1156616.807,1156619.7,2023-02-02T14:21:55Z,1156633.473,NULL,Kanzler,diwani,d,NA,NA,NA,NA,sdf,NA,0,NA,NA,NA,NA,NA,NA,NA,NA,NA,NA,NA,NA,NA,NA,NA,NA,NA,NA,NA
80029,task,flow.Sequence,5_0_0_0_0,NA,NA,completion,9417.9839999999,1147195.7,1147182.157,1147198.823,1156616.807,1156619.9,2023-02-02T14:21:55Z,1156633.473,NULL,Kanzler,diwani,d,NA,NA,NA,NA,sdf,NA,0,NA,NA,NA,NA,NA,NA,NA,NA,NA,NA,NA,NA,NA,NA,NA,NA,NA,NA,NA
80029,deep,flow.Sequence,5_0_0_0_1_0,NA,NA,skipped,NA,1156620.1,NA,NA,1156616.807,1156620.2,2023-02-02T14:21:55Z,1156633.473,NULL,Wechsel,ugeuzaji,s,utambulisho,kujenga,wasiwasi,NA,sdf,NA,0,NA,NA,NA,NA,NA,NA,NA,NA,NA,NA,NA,NA,NA,NA,NA,NA,NA,NA,NA
80029,Shallow Question,html.Page,5_0_0_0_1_1_0,NA,NA,form submission,6820.2269999993,1156620.4,1156616.807,1156633.473,1163453.7,1163454.4,2023-02-02T14:22:02Z,1163467.208,NULL,Wechsel,ugeuzaji,s,utambulisho,kujenga,wasiwasi,ugeuzaji,NA,NA,0,NA,NA,NA,NA,NA,NA,NA,NA,NA,NA,NA,NA,NA,NA,NA,NA,NA,NA,NA
80029,"""Richtig""-Screen",canvas.Screen,5_0_0_0_1_1_1,NA,NA,timeout,4999.7999999998,1163457.8,1163450.542,1163467.208,1168450.342,1168452.6,2023-02-02T14:22:07Z,1168467.008,NULL,Wechsel,ugeuzaji,s,utambulisho,kujenga,wasiwasi,NA,sdf,1,0,NA,NA,NA,NA,NA,NA,NA,NA,NA,NA,NA,NA,NA,NA,NA,NA,NA,NA,NA
80029,"""Falsch""-Screen",canvas.Screen,5_0_0_0_1_1_2,NA,NA,skipped,NA,1168457.7,NA,NA,1168450.342,1168457.8,2023-02-02T14:22:07Z,1168467.008,NULL,Wechsel,ugeuzaji,s,utambulisho,kujenga,wasiwasi,NA,sdf,NA,0,NA,NA,NA,NA,NA,NA,NA,NA,NA,NA,NA,NA,NA,NA,NA,NA,NA,NA,NA
80029,shallow,flow.Sequence,5_0_0_0_1_1,NA,NA,completion,11816.869,1156620.3,1156616.807,1156633.473,1168450.342,1168458,2023-02-02T14:22:07Z,1168467.008,NULL,Wechsel,ugeuzaji,s,utambulisho,kujenga,wasiwasi,NA,sdf,NA,0,NA,NA,NA,NA,NA,NA,NA,NA,NA,NA,NA,NA,NA,NA,NA,NA,NA,NA,NA
80029,task,flow.Sequence,5_0_0_0_1,NA,NA,completion,11816.869,1156620,1156616.807,1156633.473,1168450.342,1168458,2023-02-02T14:22:07Z,1168467.008,NULL,Wechsel,ugeuzaji,s,utambulisho,kujenga,wasiwasi,NA,sdf,NA,0,NA,NA,NA,NA,NA,NA,NA,NA,NA,NA,NA,NA,NA,NA,NA,NA,NA,NA,NA
80029,deep,flow.Sequence,5_0_0_0_2_0,NA,NA,skipped,NA,1168458.1,NA,NA,1168450.342,1168458.2,2023-02-02T14:22:07Z,1168467.008,NULL,Erneuerung,ukarabati,s,ushawishi,ukalifu,unyonyaji,NA,sdf,NA,0,NA,NA,NA,NA,NA,NA,NA,NA,NA,NA,NA,NA,NA,NA,NA,NA,NA,NA,NA
80029,Shallow Question,html.Page,5_0_0_0_2_1_0,NA,NA,form submission,3943.9920000001,1168458.3,1168450.342,1168467.008,1172411,1172411.6,2023-02-02T14:22:11Z,1172417.468,NULL,Erneuerung,ukarabati,s,ushawishi,ukalifu,unyonyaji,unyonyaji,NA,NA,0,NA,NA,NA,NA,NA,NA,NA,NA,NA,NA,NA,NA,NA,NA,NA,NA,NA,NA,NA
80029,"""Richtig""-Screen",canvas.Screen,5_0_0_0_2_1_1,NA,NA,skipped,NA,1172414.7,NA,NA,1172411,1172414.8,2023-02-02T14:22:11Z,1172417.468,NULL,Erneuerung,ukarabati,s,ushawishi,ukalifu,unyonyaji,NA,sdf,NA,0,NA,NA,NA,NA,NA,NA,NA,NA,NA,NA,NA,NA,NA,NA,NA,NA,NA,NA,NA
80029,"""Falsch""-Screen",canvas.Screen,5_0_0_0_2_1_2,NA,NA,timeout,4999.7999999998,1172416.2,1172400.802,1172417.468,1177400.602,1177402.4,2023-02-02T14:22:16Z,1177417.268,NULL,Erneuerung,ukarabati,s,ushawishi,ukalifu,unyonyaji,NA,sdf,0,0,NA,NA,NA,NA,NA,NA,NA,NA,NA,NA,NA,NA,NA,NA,NA,NA,NA,NA,NA
80029,shallow,flow.Sequence,5_0_0_0_2_1,NA,NA,completion,8933.594,1168458.3,1168450.342,1168467.008,1177400.602,1177402.8,2023-02-02T14:22:16Z,1177417.268,NULL,Erneuerung,ukarabati,s,ushawishi,ukalifu,unyonyaji,NA,sdf,NA,0,NA,NA,NA,NA,NA,NA,NA,NA,NA,NA,NA,NA,NA,NA,NA,NA,NA,NA,NA
80029,task,flow.Sequence,5_0_0_0_2,NA,NA,completion,8933.594,1168458.1,1168450.342,1168467.008,1177400.602,1177403,2023-02-02T14:22:16Z,1177417.268,NULL,Erneuerung,ukarabati,s,ushawishi,ukalifu,unyonyaji,NA,sdf,NA,0,NA,NA,NA,NA,NA,NA,NA,NA,NA,NA,NA,NA,NA,NA,NA,NA,NA,NA,NA
80029,deep,flow.Sequence,5_0_0_0_3_0,NA,NA,skipped,NA,1177403.2,NA,NA,1177400.602,1177403.3,2023-02-02T14:22:16Z,1177417.268,NULL,Sänger,mwimbaji,s,msichana,shughuli,mshirika,NA,sdf,NA,0,NA,NA,NA,NA,NA,NA,NA,NA,NA,NA,NA,NA,NA,NA,NA,NA,NA,NA,NA
80029,Shallow Question,html.Page,5_0_0_0_3_1_0,NA,NA,form submission,5591.8320000016,1177403.5,1177400.602,1177417.268,1183009.1,1183009.8,2023-02-02T14:22:22Z,1183017.592,NULL,Sänger,mwimbaji,s,msichana,shughuli,mshirika,msichana,NA,NA,0,NA,NA,NA,NA,NA,NA,NA,NA,NA,NA,NA,NA,NA,NA,NA,NA,NA,NA,NA
80029,"""Richtig""-Screen",canvas.Screen,5_0_0_0_3_1_1,NA,NA,skipped,NA,1183012.9,NA,NA,1183009.1,1183013.1,2023-02-02T14:22:22Z,1183017.592,NULL,Sänger,mwimbaji,s,msichana,shughuli,mshirika,NA,sdf,NA,0,NA,NA,NA,NA,NA,NA,NA,NA,NA,NA,NA,NA,NA,NA,NA,NA,NA,NA,NA
80029,"""Falsch""-Screen",canvas.Screen,5_0_0_0_3_1_2,NA,NA,timeout,4999.8,1183013.6,1183000.926,1183017.592,1188000.726,1188002.8,2023-02-02T14:22:27Z,1188017.392,NULL,Sänger,mwimbaji,s,msichana,shughuli,mshirika,NA,sdf,0,0,NA,NA,NA,NA,NA,NA,NA,NA,NA,NA,NA,NA,NA,NA,NA,NA,NA,NA,NA
80029,shallow,flow.Sequence,5_0_0_0_3_1,NA,NA,completion,10583.458,1177403.5,1177400.602,1177417.268,1188000.726,1188003.3,2023-02-02T14:22:27Z,1188017.392,NULL,Sänger,mwimbaji,s,msichana,shughuli,mshirika,NA,sdf,NA,0,NA,NA,NA,NA,NA,NA,NA,NA,NA,NA,NA,NA,NA,NA,NA,NA,NA,NA,NA
80029,task,flow.Sequence,5_0_0_0_3,NA,NA,completion,10583.458,1177403.2,1177400.602,1177417.268,1188000.726,1188003.5,2023-02-02T14:22:27Z,1188017.392,NULL,Sänger,mwimbaji,s,msichana,shughuli,mshirika,NA,sdf,NA,0,NA,NA,NA,NA,NA,NA,NA,NA,NA,NA,NA,NA,NA,NA,NA,NA,NA,NA,NA
80029,Deep Question,html.Page,5_0_0_0_4_0_0,NA,NA,form submission,2805.3079999993,1188003.8,1188000.726,1188017.392,1190822.7,1190823.3,2023-02-02T14:22:29Z,1190833.946,NULL,Flexibilität,kubadilika,d,NA,NA,NA,k,NA,NA,0,NA,NA,NA,NA,NA,NA,NA,NA,NA,NA,NA,NA,NA,NA,NA,NA,NA,NA,NA
80029,"""Richtig""-Screen",canvas.Screen,5_0_0_0_4_0_1,NA,NA,skipped,NA,1190827.8,NA,NA,1190822.7,1190828.1,2023-02-02T14:22:29Z,1190833.946,NULL,Flexibilität,kubadilika,d,NA,NA,NA,NA,sdf,NA,0,NA,NA,NA,NA,NA,NA,NA,NA,NA,NA,NA,NA,NA,NA,NA,NA,NA,NA,NA
80029,"""Falsch""-Screen",canvas.Screen,5_0_0_0_4_0_2,NA,NA,timeout,4999.8,1190829.1,1190817.28,1190833.946,1195817.08,1195819.6,2023-02-02T14:22:34Z,1195833.746,NULL,Flexibilität,kubadilika,d,NA,NA,NA,NA,sdf,0,0,NA,NA,NA,NA,NA,NA,NA,NA,NA,NA,NA,NA,NA,NA,NA,NA,NA,NA,NA
80029,deep,flow.Sequence,5_0_0_0_4_0,NA,NA,completion,7799.6880000001,1188003.7,1188000.726,1188017.392,1195817.08,1195820,2023-02-02T14:22:34Z,1195833.746,NULL,Flexibilität,kubadilika,d,NA,NA,NA,NA,sdf,NA,0,NA,NA,NA,NA,NA,NA,NA,NA,NA,NA,NA,NA,NA,NA,NA,NA,NA,NA,NA
80029,shallow,flow.Sequence,5_0_0_0_4_1,NA,NA,skipped,NA,1195820.1,NA,NA,1195817.08,1195820.2,2023-02-02T14:22:34Z,1195833.746,NULL,Flexibilität,kubadilika,d,NA,NA,NA,NA,sdf,NA,0,NA,NA,NA,NA,NA,NA,NA,NA,NA,NA,NA,NA,NA,NA,NA,NA,NA,NA,NA
80029,task,flow.Sequence,5_0_0_0_4,NA,NA,completion,7799.6880000001,1188003.7,1188000.726,1188017.392,1195817.08,1195820.4,2023-02-02T14:22:34Z,1195833.746,NULL,Flexibilität,kubadilika,d,NA,NA,NA,NA,sdf,NA,0,NA,NA,NA,NA,NA,NA,NA,NA,NA,NA,NA,NA,NA,NA,NA,NA,NA,NA,NA
80029,deep,flow.Sequence,5_0_0_0_5_0,NA,NA,skipped,NA,1195820.6,NA,NA,1195817.08,1195820.7,2023-02-02T14:22:34Z,1195833.746,NULL,Angreifer,mshambulizi,s,kitengo,tasinia,usafirishaji,NA,sdf,NA,0,NA,NA,NA,NA,NA,NA,NA,NA,NA,NA,NA,NA,NA,NA,NA,NA,NA,NA,NA
80029,Shallow Question,html.Page,5_0_0_0_5_1_0,NA,NA,form submission,3470.8540000014,1195820.9,1195817.08,1195833.746,1199304.6,1199305.1,2023-02-02T14:22:38Z,1199317.687,NULL,Angreifer,mshambulizi,s,kitengo,tasinia,usafirishaji,kitengo,NA,NA,0,NA,NA,NA,NA,NA,NA,NA,NA,NA,NA,NA,NA,NA,NA,NA,NA,NA,NA,NA
80029,"""Richtig""-Screen",canvas.Screen,5_0_0_0_5_1_1,NA,NA,skipped,NA,1199308.1,NA,NA,1199304.6,1199308.3,2023-02-02T14:22:38Z,1199317.687,NULL,Angreifer,mshambulizi,s,kitengo,tasinia,usafirishaji,NA,sdf,NA,0,NA,NA,NA,NA,NA,NA,NA,NA,NA,NA,NA,NA,NA,NA,NA,NA,NA,NA,NA
80029,"""Falsch""-Screen",canvas.Screen,5_0_0_0_5_1_2,NA,NA,timeout,4999.8,1199308.9,1199301.021,1199317.687,1204300.821,1204303.1,2023-02-02T14:22:43Z,1204317.487,NULL,Angreifer,mshambulizi,s,kitengo,tasinia,usafirishaji,NA,sdf,0,0,NA,NA,NA,NA,NA,NA,NA,NA,NA,NA,NA,NA,NA,NA,NA,NA,NA,NA,NA
80029,shallow,flow.Sequence,5_0_0_0_5_1,NA,NA,completion,8467.075,1195820.8,1195817.08,1195833.746,1204300.821,1204303.5,2023-02-02T14:22:43Z,1204317.487,NULL,Angreifer,mshambulizi,s,kitengo,tasinia,usafirishaji,NA,sdf,NA,0,NA,NA,NA,NA,NA,NA,NA,NA,NA,NA,NA,NA,NA,NA,NA,NA,NA,NA,NA
80029,task,flow.Sequence,5_0_0_0_5,NA,NA,completion,8467.075,1195820.5,1195817.08,1195833.746,1204300.821,1204303.8,2023-02-02T14:22:43Z,1204317.487,NULL,Angreifer,mshambulizi,s,kitengo,tasinia,usafirishaji,NA,sdf,NA,0,NA,NA,NA,NA,NA,NA,NA,NA,NA,NA,NA,NA,NA,NA,NA,NA,NA,NA,NA
80029,Deep Question,html.Page,5_0_0_0_6_0_0,NA,NA,form submission,2527.013,1204304,1204300.821,1204317.487,1206844.5,1206844.9,2023-02-02T14:22:45Z,1206851.255,NULL,Atmosphäre,angahewa,d,NA,NA,NA,k,NA,NA,0,NA,NA,NA,NA,NA,NA,NA,NA,NA,NA,NA,NA,NA,NA,NA,NA,NA,NA,NA
80029,"""Richtig""-Screen",canvas.Screen,5_0_0_0_6_0_1,NA,NA,skipped,NA,1206848.5,NA,NA,1206844.5,1206848.7,2023-02-02T14:22:45Z,1206851.255,NULL,Atmosphäre,angahewa,d,NA,NA,NA,NA,sdf,NA,0,NA,NA,NA,NA,NA,NA,NA,NA,NA,NA,NA,NA,NA,NA,NA,NA,NA,NA,NA
80029,"""Falsch""-Screen",canvas.Screen,5_0_0_0_6_0_2,NA,NA,timeout,4999.8,1206849.4,1206834.589,1206851.255,1211834.389,1211836.2,2023-02-02T14:22:50Z,1211851.055,NULL,Atmosphäre,angahewa,d,NA,NA,NA,NA,sdf,0,0,NA,NA,NA,NA,NA,NA,NA,NA,NA,NA,NA,NA,NA,NA,NA,NA,NA,NA,NA
80029,deep,flow.Sequence,5_0_0_0_6_0,NA,NA,completion,7516.902,1204304,1204300.821,1204317.487,1211834.389,1211836.6,2023-02-02T14:22:50Z,1211851.055,NULL,Atmosphäre,angahewa,d,NA,NA,NA,NA,sdf,NA,0,NA,NA,NA,NA,NA,NA,NA,NA,NA,NA,NA,NA,NA,NA,NA,NA,NA,NA,NA
80029,shallow,flow.Sequence,5_0_0_0_6_1,NA,NA,skipped,NA,1211836.8,NA,NA,1211834.389,1211836.9,2023-02-02T14:22:50Z,1211851.055,NULL,Atmosphäre,angahewa,d,NA,NA,NA,NA,sdf,NA,0,NA,NA,NA,NA,NA,NA,NA,NA,NA,NA,NA,NA,NA,NA,NA,NA,NA,NA,NA
80029,task,flow.Sequence,5_0_0_0_6,NA,NA,completion,7516.902,1204303.9,1204300.821,1204317.487,1211834.389,1211837,2023-02-02T14:22:50Z,1211851.055,NULL,Atmosphäre,angahewa,d,NA,NA,NA,NA,sdf,NA,0,NA,NA,NA,NA,NA,NA,NA,NA,NA,NA,NA,NA,NA,NA,NA,NA,NA,NA,NA
80029,Deep Question,html.Page,5_0_0_0_7_0_0,NA,NA,form submission,3443.7450000008,1211837.3,1211834.389,1211851.055,1215294.8,1215295.5,2023-02-02T14:22:54Z,1215300.917,NULL,Abrechnung,uhasibu,d,NA,NA,NA,k,NA,NA,0,NA,NA,NA,NA,NA,NA,NA,NA,NA,NA,NA,NA,NA,NA,NA,NA,NA,NA,NA
80029,"""Richtig""-Screen",canvas.Screen,5_0_0_0_7_0_1,NA,NA,skipped,NA,1215299.7,NA,NA,1215294.8,1215300,2023-02-02T14:22:54Z,1215300.917,NULL,Abrechnung,uhasibu,d,NA,NA,NA,NA,sdf,NA,0,NA,NA,NA,NA,NA,NA,NA,NA,NA,NA,NA,NA,NA,NA,NA,NA,NA,NA,NA
80029,"""Falsch""-Screen",canvas.Screen,5_0_0_0_7_0_2,NA,NA,timeout,4999.8,1215301,1215284.251,1215300.917,1220284.051,1220287,2023-02-02T14:22:59Z,1220300.717,NULL,Abrechnung,uhasibu,d,NA,NA,NA,NA,sdf,0,0,NA,NA,NA,NA,NA,NA,NA,NA,NA,NA,NA,NA,NA,NA,NA,NA,NA,NA,NA
80029,deep,flow.Sequence,5_0_0_0_7_0,NA,NA,completion,8432.996,1211837.3,1211834.389,1211851.055,1220284.051,1220287.5,2023-02-02T14:22:59Z,1220300.717,NULL,Abrechnung,uhasibu,d,NA,NA,NA,NA,sdf,NA,0,NA,NA,NA,NA,NA,NA,NA,NA,NA,NA,NA,NA,NA,NA,NA,NA,NA,NA,NA
80029,shallow,flow.Sequence,5_0_0_0_7_1,NA,NA,skipped,NA,1220287.7,NA,NA,1220284.051,1220287.8,2023-02-02T14:22:59Z,1220300.717,NULL,Abrechnung,uhasibu,d,NA,NA,NA,NA,sdf,NA,0,NA,NA,NA,NA,NA,NA,NA,NA,NA,NA,NA,NA,NA,NA,NA,NA,NA,NA,NA
80029,task,flow.Sequence,5_0_0_0_7,NA,NA,completion,8432.996,1211837.2,1211834.389,1211851.055,1220284.051,1220287.9,2023-02-02T14:22:59Z,1220300.717,NULL,Abrechnung,uhasibu,d,NA,NA,NA,NA,sdf,NA,0,NA,NA,NA,NA,NA,NA,NA,NA,NA,NA,NA,NA,NA,NA,NA,NA,NA,NA,NA
80029,block,flow.Loop,5_0_0_0,NA,NA,completion,73085.228,1147195.7,1147182.157,1147198.823,1220284.051,1220288.2,2023-02-02T14:22:59Z,1220300.717,NULL,NA,NA,NA,NA,NA,NA,NA,sdf,NA,0,NA,NA,NA,NA,NA,NA,NA,NA,NA,NA,NA,NA,NA,NA,NA,NA,NA,NA,NA
80029,weiter,canvas.Screen,5_0_0_1,sdf,keypress(Space),response,1106.7830000001,1220288.3,1220284.051,1220300.717,1221407.5,1221413.1,2023-02-02T14:23:00Z,1221451.421,NULL,NA,NA,NA,NA,NA,NA,NA,sdf,NA,0,NA,NA,NA,NA,NA,NA,NA,NA,NA,NA,NA,NA,NA,NA,NA,NA,NA,NA,NA
80029,check continue,flow.Sequence,5_0_0,NA,NA,completion,74208.677,1147195.7,1147182.157,1147198.823,1221407.5,1221413.4,2023-02-02T14:23:00Z,1221451.421,NULL,NA,NA,NA,NA,NA,NA,NA,sdf,NA,0,NA,NA,NA,NA,NA,NA,NA,NA,NA,NA,NA,NA,NA,NA,NA,NA,NA,NA,NA
80029,Deep Question,html.Page,5_0_1_0_0_0_0,NA,NA,form submission,4320.0789999999,1221438.7,1221434.755,1221451.421,1225771.5,1225772.1,2023-02-02T14:23:04Z,1225784.581,NULL,Flexibilität,kubadilika,d,NA,NA,NA,d,NA,NA,1,NA,NA,NA,NA,NA,NA,NA,NA,NA,NA,NA,NA,NA,NA,NA,NA,NA,NA,NA
80029,"""Richtig""-Screen",canvas.Screen,5_0_1_0_0_0_1,NA,NA,skipped,NA,1225775.7,NA,NA,1225771.5,1225775.8,2023-02-02T14:23:04Z,1225784.581,NULL,Flexibilität,kubadilika,d,NA,NA,NA,NA,sdfdsf,NA,1,NA,NA,NA,NA,NA,NA,NA,NA,NA,NA,NA,NA,NA,NA,NA,NA,NA,NA,NA
80029,"""Falsch""-Screen",canvas.Screen,5_0_1_0_0_0_2,NA,NA,timeout,4999.8,1225776.4,1225767.915,1225784.581,1230767.715,1230770.4,2023-02-02T14:23:09Z,1230784.381,NULL,Flexibilität,kubadilika,d,NA,NA,NA,NA,sdfdsf,0,1,NA,NA,NA,NA,NA,NA,NA,NA,NA,NA,NA,NA,NA,NA,NA,NA,NA,NA,NA
80029,deep,flow.Sequence,5_0_1_0_0_0,NA,NA,completion,9316.294,1221438.7,1221434.755,1221451.421,1230767.715,1230770.8,2023-02-02T14:23:09Z,1230784.381,NULL,Flexibilität,kubadilika,d,NA,NA,NA,NA,sdfdsf,NA,1,NA,NA,NA,NA,NA,NA,NA,NA,NA,NA,NA,NA,NA,NA,NA,NA,NA,NA,NA
