observation,sender,sender_type,sender_id,response,response_action,ended_on,duration,time_run,time_render,time_show,time_end,time_commit,timestamp,time_switch,german,swahili,enc,distractor1,distractor2,distractor3,response_2,x,correct,distractors,url_vp,url_sess,meta_labjs_version,meta_location,meta_user_agent,meta_platform,meta_language,meta_locale,meta_time_zone,meta_timezone_offset,meta_screen_width,meta_screen_height,meta_scroll_width,meta_scroll_height,meta_window_inner_width,meta_window_inner_height,meta_device_pixel_ratio,meta_labjs_build_flavor,meta_labjs_build_commit
33891,Introduction delayed retrieval,canvas.Screen,0,weiter,keypress(Space),response,4572,358,394,422,4966,4980,2023-03-04T23:45:39Z,5011,NA,NA,NA,NA,NA,NA,NA,NA,NA,NULL,110,4,20.2.4,https://neurocog.fernuni.ch/studies/vweber/delayed/index.html?vp=110&sess=4,"Mozilla/5.0 (Macintosh; Intel Mac OS X 10_15_7) AppleWebKit/605.1.15 (KHTML, like Gecko) Version/16.3 Safari/605.1.15",MacIntel,de-DE,de-DE,Europe/Zurich,-60,1440,900,1037,752,1037,800,2,production,f5b4a49f956347addd546a832a3327688c2c0fef
33891,Deep Question,html.Page,1_0_0_0,NA,NA,form submission,6981,4980,4995,5011,11992,11992,2023-03-04T23:45:46Z,12011,Polizist,msongora,s,simanzi,mandhari,nidhamu,harami,NA,NA,NULL,NA,NA,NA,NA,NA,NA,NA,NA,NA,NA,NA,NA,NA,NA,NA,NA,NA,NA,NA
33891,Save data screen,canvas.Screen,1_0_0_1,NA,NA,timeout,500,11993,11995,12011,12495,12496,2023-03-04T23:45:46Z,12511,Polizist,msongora,s,simanzi,mandhari,nidhamu,NA,NA,0,NULL,NA,NA,NA,NA,NA,NA,NA,NA,NA,NA,NA,NA,NA,NA,NA,NA,NA,NA,NA
33891,deep,flow.Sequence,1_0_0,NA,NA,completion,7484,4980,4995,5011,12495,12497,2023-03-04T23:45:46Z,12511,Polizist,msongora,s,simanzi,mandhari,nidhamu,NA,NA,NA,NULL,NA,NA,NA,NA,NA,NA,NA,NA,NA,NA,NA,NA,NA,NA,NA,NA,NA,NA,NA
33891,task,flow.Sequence,1_0,NA,NA,completion,7484,4980,4995,5011,12495,12497,2023-03-04T23:45:46Z,12511,Polizist,msongora,s,simanzi,mandhari,nidhamu,NA,NA,NA,NULL,NA,NA,NA,NA,NA,NA,NA,NA,NA,NA,NA,NA,NA,NA,NA,NA,NA,NA,NA
33891,Deep Question,html.Page,1_1_0_0,NA,NA,form submission,8542,12497,12495,12511,21053,21054,2023-03-04T23:45:55Z,21078,Konkurrent,mshindani,s,msemaji,mvutaji,kipukusa,kechiokori,NA,NA,NULL,NA,NA,NA,NA,NA,NA,NA,NA,NA,NA,NA,NA,NA,NA,NA,NA,NA,NA,NA
33891,Save data screen,canvas.Screen,1_1_0_1,NA,NA,timeout,499,21054,21061,21078,21561,21563,2023-03-04T23:45:56Z,21577,Konkurrent,mshindani,s,msemaji,mvutaji,kipukusa,NA,NA,0,NULL,NA,NA,NA,NA,NA,NA,NA,NA,NA,NA,NA,NA,NA,NA,NA,NA,NA,NA,NA
33891,deep,flow.Sequence,1_1_0,NA,NA,completion,9050,12497,12495,12511,21561,21564,2023-03-04T23:45:56Z,21577,Konkurrent,mshindani,s,msemaji,mvutaji,kipukusa,NA,NA,NA,NULL,NA,NA,NA,NA,NA,NA,NA,NA,NA,NA,NA,NA,NA,NA,NA,NA,NA,NA,NA
33891,task,flow.Sequence,1_1,NA,NA,completion,9050,12497,12495,12511,21561,21564,2023-03-04T23:45:56Z,21577,Konkurrent,mshindani,s,msemaji,mvutaji,kipukusa,NA,NA,NA,NULL,NA,NA,NA,NA,NA,NA,NA,NA,NA,NA,NA,NA,NA,NA,NA,NA,NA,NA,NA
33891,Deep Question,html.Page,1_2_0_0,NA,NA,form submission,18282,21565,21561,21577,39859,39860,2023-03-04T23:46:14Z,39895,Sympathie,mapendano,d,dhamiria,fungamano,maazimio,ufuhavi,NA,NA,NULL,NA,NA,NA,NA,NA,NA,NA,NA,NA,NA,NA,NA,NA,NA,NA,NA,NA,NA,NA
33891,Save data screen,canvas.Screen,1_2_0_1,NA,NA,timeout,500,39861,39878,39895,40378,40379,2023-03-04T23:46:14Z,40395,Sympathie,mapendano,d,dhamiria,fungamano,maazimio,NA,NA,0,NULL,NA,NA,NA,NA,NA,NA,NA,NA,NA,NA,NA,NA,NA,NA,NA,NA,NA,NA,NA
33891,deep,flow.Sequence,1_2_0,NA,NA,completion,18801,21565,21561,21577,40378,40380,2023-03-04T23:46:14Z,40395,Sympathie,mapendano,d,dhamiria,fungamano,maazimio,NA,NA,NA,NULL,NA,NA,NA,NA,NA,NA,NA,NA,NA,NA,NA,NA,NA,NA,NA,NA,NA,NA,NA
33891,task,flow.Sequence,1_2,NA,NA,completion,18801,21565,21561,21577,40378,40380,2023-03-04T23:46:14Z,40395,Sympathie,mapendano,d,dhamiria,fungamano,maazimio,NA,NA,NA,NULL,NA,NA,NA,NA,NA,NA,NA,NA,NA,NA,NA,NA,NA,NA,NA,NA,NA,NA,NA
33891,Deep Question,html.Page,1_3_0_0,NA,NA,form submission,3979,40381,40378,40395,44374,44375,2023-03-04T23:46:18Z,44395,Ausschluss,kutengwa,s,ununuzi,taratibu,madeni,ugomai,NA,NA,NULL,NA,NA,NA,NA,NA,NA,NA,NA,NA,NA,NA,NA,NA,NA,NA,NA,NA,NA,NA
33891,Save data screen,canvas.Screen,1_3_0_1,NA,NA,timeout,500,44376,44380,44395,44878,44880,2023-03-04T23:46:19Z,44895,Ausschluss,kutengwa,s,ununuzi,taratibu,madeni,NA,NA,0,NULL,NA,NA,NA,NA,NA,NA,NA,NA,NA,NA,NA,NA,NA,NA,NA,NA,NA,NA,NA
33891,deep,flow.Sequence,1_3_0,NA,NA,completion,4483,40381,40378,40395,44878,44881,2023-03-04T23:46:19Z,44895,Ausschluss,kutengwa,s,ununuzi,taratibu,madeni,NA,NA,NA,NULL,NA,NA,NA,NA,NA,NA,NA,NA,NA,NA,NA,NA,NA,NA,NA,NA,NA,NA,NA
33891,task,flow.Sequence,1_3,NA,NA,completion,4483,40381,40378,40395,44878,44882,2023-03-04T23:46:19Z,44895,Ausschluss,kutengwa,s,ununuzi,taratibu,madeni,NA,NA,NA,NULL,NA,NA,NA,NA,NA,NA,NA,NA,NA,NA,NA,NA,NA,NA,NA,NA,NA,NA,NA
33891,Deep Question,html.Page,1_4_0_0,NA,NA,form submission,7326,44882,44878,44895,52221,52221,2023-03-04T23:46:26Z,52245,Zufall,kikuti,d,kukosekana,uchoraji,leseni,timbre,NA,NA,NULL,NA,NA,NA,NA,NA,NA,NA,NA,NA,NA,NA,NA,NA,NA,NA,NA,NA,NA,NA
33891,Save data screen,canvas.Screen,1_4_0_1,NA,NA,timeout,499,52222,52228,52245,52728,52729,2023-03-04T23:46:27Z,52744,Zufall,kikuti,d,kukosekana,uchoraji,leseni,NA,NA,0,NULL,NA,NA,NA,NA,NA,NA,NA,NA,NA,NA,NA,NA,NA,NA,NA,NA,NA,NA,NA
33891,deep,flow.Sequence,1_4_0,NA,NA,completion,7833,44882,44878,44895,52728,52730,2023-03-04T23:46:27Z,52744,Zufall,kikuti,d,kukosekana,uchoraji,leseni,NA,NA,NA,NULL,NA,NA,NA,NA,NA,NA,NA,NA,NA,NA,NA,NA,NA,NA,NA,NA,NA,NA,NA
33891,task,flow.Sequence,1_4,NA,NA,completion,7833,44882,44878,44895,52728,52730,2023-03-04T23:46:27Z,52744,Zufall,kikuti,d,kukosekana,uchoraji,leseni,NA,NA,NA,NULL,NA,NA,NA,NA,NA,NA,NA,NA,NA,NA,NA,NA,NA,NA,NA,NA,NA,NA,NA
33891,Deep Question,html.Page,1_5_0_0,NA,NA,form submission,8581,52731,52728,52744,61325,61325,2023-03-04T23:46:35Z,61345,Widerstand,usulubu,d,kusababisha,mwalimu,mwenendo,mastinia,NA,NA,NULL,NA,NA,NA,NA,NA,NA,NA,NA,NA,NA,NA,NA,NA,NA,NA,NA,NA,NA,NA
33891,Save data screen,canvas.Screen,1_5_0_1,NA,NA,timeout,500,61326,61329,61345,61828,61830,2023-03-04T23:46:36Z,61845,Widerstand,usulubu,d,kusababisha,mwalimu,mwenendo,NA,NA,0,NULL,NA,NA,NA,NA,NA,NA,NA,NA,NA,NA,NA,NA,NA,NA,NA,NA,NA,NA,NA
33891,deep,flow.Sequence,1_5_0,NA,NA,completion,9084,52731,52728,52744,61828,61831,2023-03-04T23:46:36Z,61845,Widerstand,usulubu,d,kusababisha,mwalimu,mwenendo,NA,NA,NA,NULL,NA,NA,NA,NA,NA,NA,NA,NA,NA,NA,NA,NA,NA,NA,NA,NA,NA,NA,NA
33891,task,flow.Sequence,1_5,NA,NA,completion,9084,52731,52728,52744,61828,61832,2023-03-04T23:46:36Z,61845,Widerstand,usulubu,d,kusababisha,mwalimu,mwenendo,NA,NA,NA,NULL,NA,NA,NA,NA,NA,NA,NA,NA,NA,NA,NA,NA,NA,NA,NA,NA,NA,NA,NA
33891,Deep Question,html.Page,1_6_0_0,NA,NA,form submission,6383,61832,61828,61845,68228,68229,2023-03-04T23:46:42Z,68261,Wettbewerb,ushindani,s,mapendezi,kichocheo,ubaguzi,kocherij,NA,NA,NULL,NA,NA,NA,NA,NA,NA,NA,NA,NA,NA,NA,NA,NA,NA,NA,NA,NA,NA,NA
33891,Save data screen,canvas.Screen,1_6_0_1,NA,NA,timeout,500,68229,68245,68261,68745,68746,2023-03-04T23:46:43Z,68761,Wettbewerb,ushindani,s,mapendezi,kichocheo,ubaguzi,NA,NA,0,NULL,NA,NA,NA,NA,NA,NA,NA,NA,NA,NA,NA,NA,NA,NA,NA,NA,NA,NA,NA
33891,deep,flow.Sequence,1_6_0,NA,NA,completion,6900,61832,61828,61845,68745,68747,2023-03-04T23:46:43Z,68761,Wettbewerb,ushindani,s,mapendezi,kichocheo,ubaguzi,NA,NA,NA,NULL,NA,NA,NA,NA,NA,NA,NA,NA,NA,NA,NA,NA,NA,NA,NA,NA,NA,NA,NA
33891,task,flow.Sequence,1_6,NA,NA,completion,6900,61832,61828,61845,68745,68747,2023-03-04T23:46:43Z,68761,Wettbewerb,ushindani,s,mapendezi,kichocheo,ubaguzi,NA,NA,NA,NULL,NA,NA,NA,NA,NA,NA,NA,NA,NA,NA,NA,NA,NA,NA,NA,NA,NA,NA,NA
33891,Deep Question,html.Page,1_7_0_0,NA,NA,form submission,7988,68748,68745,68761,76749,76749,2023-03-04T23:46:51Z,76778,Verstand,ufahamivu,d,shakawa,hadhari,mhandisi,adhara,NA,NA,NULL,NA,NA,NA,NA,NA,NA,NA,NA,NA,NA,NA,NA,NA,NA,NA,NA,NA,NA,NA
33891,Save data screen,canvas.Screen,1_7_0_1,NA,NA,timeout,500,76750,76761,76778,77261,77262,2023-03-04T23:46:51Z,77278,Verstand,ufahamivu,d,shakawa,hadhari,mhandisi,NA,NA,0,NULL,NA,NA,NA,NA,NA,NA,NA,NA,NA,NA,NA,NA,NA,NA,NA,NA,NA,NA,NA
33891,deep,flow.Sequence,1_7_0,NA,NA,completion,8500,68747,68745,68761,77261,77263,2023-03-04T23:46:51Z,77278,Verstand,ufahamivu,d,shakawa,hadhari,mhandisi,NA,NA,NA,NULL,NA,NA,NA,NA,NA,NA,NA,NA,NA,NA,NA,NA,NA,NA,NA,NA,NA,NA,NA
33891,task,flow.Sequence,1_7,NA,NA,completion,8500,68747,68745,68761,77261,77264,2023-03-04T23:46:51Z,77278,Verstand,ufahamivu,d,shakawa,hadhari,mhandisi,NA,NA,NA,NULL,NA,NA,NA,NA,NA,NA,NA,NA,NA,NA,NA,NA,NA,NA,NA,NA,NA,NA,NA
33891,Deep Question,html.Page,1_8_0_0,NA,NA,form submission,2663,77265,77261,77278,79941,79942,2023-03-04T23:46:54Z,79961,Auftrag,uagizaji,s,ghanima,kuzingatia,msukani,ugo,NA,NA,NULL,NA,NA,NA,NA,NA,NA,NA,NA,NA,NA,NA,NA,NA,NA,NA,NA,NA,NA,NA
33891,Save data screen,canvas.Screen,1_8_0_1,NA,NA,timeout,500,79943,79944,79961,80444,80446,2023-03-04T23:46:54Z,80461,Auftrag,uagizaji,s,ghanima,kuzingatia,msukani,NA,NA,0,NULL,NA,NA,NA,NA,NA,NA,NA,NA,NA,NA,NA,NA,NA,NA,NA,NA,NA,NA,NA
33891,deep,flow.Sequence,1_8_0,NA,NA,completion,3166,77265,77261,77278,80444,80446,2023-03-04T23:46:54Z,80461,Auftrag,uagizaji,s,ghanima,kuzingatia,msukani,NA,NA,NA,NULL,NA,NA,NA,NA,NA,NA,NA,NA,NA,NA,NA,NA,NA,NA,NA,NA,NA,NA,NA
33891,task,flow.Sequence,1_8,NA,NA,completion,3166,77264,77261,77278,80444,80447,2023-03-04T23:46:54Z,80461,Auftrag,uagizaji,s,ghanima,kuzingatia,msukani,NA,NA,NA,NULL,NA,NA,NA,NA,NA,NA,NA,NA,NA,NA,NA,NA,NA,NA,NA,NA,NA,NA,NA
33891,Deep Question,html.Page,1_9_0_0,NA,NA,form submission,10673,80447,80444,80461,91134,91135,2023-03-04T23:47:05Z,91161,Zuwachs,nyongeza,d,matilaba,udhibiti,hudhurio,eyongezi,NA,NA,NULL,NA,NA,NA,NA,NA,NA,NA,NA,NA,NA,NA,NA,NA,NA,NA,NA,NA,NA,NA
33891,Save data screen,canvas.Screen,1_9_0_1,NA,NA,timeout,500,91136,91145,91161,91645,91646,2023-03-04T23:47:06Z,91661,Zuwachs,nyongeza,d,matilaba,udhibiti,hudhurio,NA,NA,0,NULL,NA,NA,NA,NA,NA,NA,NA,NA,NA,NA,NA,NA,NA,NA,NA,NA,NA,NA,NA
33891,deep,flow.Sequence,1_9_0,NA,NA,completion,11184,80447,80444,80461,91645,91647,2023-03-04T23:47:06Z,91661,Zuwachs,nyongeza,d,matilaba,udhibiti,hudhurio,NA,NA,NA,NULL,NA,NA,NA,NA,NA,NA,NA,NA,NA,NA,NA,NA,NA,NA,NA,NA,NA,NA,NA
33891,task,flow.Sequence,1_9,NA,NA,completion,11184,80447,80444,80461,91645,91647,2023-03-04T23:47:06Z,91661,Zuwachs,nyongeza,d,matilaba,udhibiti,hudhurio,NA,NA,NA,NULL,NA,NA,NA,NA,NA,NA,NA,NA,NA,NA,NA,NA,NA,NA,NA,NA,NA,NA,NA
33891,Deep Question,html.Page,1_10_0_0,NA,NA,form submission,3688,91648,91645,91661,95349,95350,2023-03-04T23:47:09Z,95378,Schönheit,kirembo,d,mahojiano,msisimko,jitihadi,timbre,NA,NA,NULL,NA,NA,NA,NA,NA,NA,NA,NA,NA,NA,NA,NA,NA,NA,NA,NA,NA,NA,NA
33891,Save data screen,canvas.Screen,1_10_0_1,NA,NA,timeout,500,95351,95361,95378,95861,95863,2023-03-04T23:47:10Z,95878,Schönheit,kirembo,d,mahojiano,msisimko,jitihadi,NA,NA,0,NULL,NA,NA,NA,NA,NA,NA,NA,NA,NA,NA,NA,NA,NA,NA,NA,NA,NA,NA,NA
33891,deep,flow.Sequence,1_10_0,NA,NA,completion,4200,91648,91645,91661,95861,95863,2023-03-04T23:47:10Z,95878,Schönheit,kirembo,d,mahojiano,msisimko,jitihadi,NA,NA,NA,NULL,NA,NA,NA,NA,NA,NA,NA,NA,NA,NA,NA,NA,NA,NA,NA,NA,NA,NA,NA
33891,task,flow.Sequence,1_10,NA,NA,completion,4200,91648,91645,91661,95861,95864,2023-03-04T23:47:10Z,95878,Schönheit,kirembo,d,mahojiano,msisimko,jitihadi,NA,NA,NA,NULL,NA,NA,NA,NA,NA,NA,NA,NA,NA,NA,NA,NA,NA,NA,NA,NA,NA,NA,NA
33891,Deep Question,html.Page,1_11_0_0,NA,NA,form submission,5441,95864,95861,95878,101319,101319,2023-03-04T23:47:15Z,101345,Vorsorge,tahadhari,s,ufafanuzi,makini,mashambani,hara,NA,NA,NULL,NA,NA,NA,NA,NA,NA,NA,NA,NA,NA,NA,NA,NA,NA,NA,NA,NA,NA,NA
33891,Save data screen,canvas.Screen,1_11_0_1,NA,NA,timeout,500,101320,101327,101345,101828,101830,2023-03-04T23:47:16Z,101845,Vorsorge,tahadhari,s,ufafanuzi,makini,mashambani,NA,NA,0,NULL,NA,NA,NA,NA,NA,NA,NA,NA,NA,NA,NA,NA,NA,NA,NA,NA,NA,NA,NA
33891,deep,flow.Sequence,1_11_0,NA,NA,completion,5950,95864,95861,95878,101828,101831,2023-03-04T23:47:16Z,101845,Vorsorge,tahadhari,s,ufafanuzi,makini,mashambani,NA,NA,NA,NULL,NA,NA,NA,NA,NA,NA,NA,NA,NA,NA,NA,NA,NA,NA,NA,NA,NA,NA,NA
33891,task,flow.Sequence,1_11,NA,NA,completion,5950,95864,95861,95878,101828,101832,2023-03-04T23:47:16Z,101845,Vorsorge,tahadhari,s,ufafanuzi,makini,mashambani,NA,NA,NA,NULL,NA,NA,NA,NA,NA,NA,NA,NA,NA,NA,NA,NA,NA,NA,NA,NA,NA,NA,NA
33891,Deep Question,html.Page,1_12_0_0,NA,NA,form submission,6213,101832,101828,101845,108058,108059,2023-03-04T23:47:22Z,108078,Gelegenheit,wakati,s,mchanganyiko,kipaumbele,kushuku,masara,NA,NA,NULL,NA,NA,NA,NA,NA,NA,NA,NA,NA,NA,NA,NA,NA,NA,NA,NA,NA,NA,NA
33891,Save data screen,canvas.Screen,1_12_0_1,NA,NA,timeout,500,108059,108061,108078,108561,108563,2023-03-04T23:47:23Z,108578,Gelegenheit,wakati,s,mchanganyiko,kipaumbele,kushuku,NA,NA,0,NULL,NA,NA,NA,NA,NA,NA,NA,NA,NA,NA,NA,NA,NA,NA,NA,NA,NA,NA,NA
33891,deep,flow.Sequence,1_12_0,NA,NA,completion,6716,101832,101828,101845,108561,108564,2023-03-04T23:47:23Z,108578,Gelegenheit,wakati,s,mchanganyiko,kipaumbele,kushuku,NA,NA,NA,NULL,NA,NA,NA,NA,NA,NA,NA,NA,NA,NA,NA,NA,NA,NA,NA,NA,NA,NA,NA
33891,task,flow.Sequence,1_12,NA,NA,completion,6716,101832,101828,101845,108561,108564,2023-03-04T23:47:23Z,108578,Gelegenheit,wakati,s,mchanganyiko,kipaumbele,kushuku,NA,NA,NA,NULL,NA,NA,NA,NA,NA,NA,NA,NA,NA,NA,NA,NA,NA,NA,NA,NA,NA,NA,NA
33891,Deep Question,html.Page,1_13_0_0,NA,NA,form submission,3764,108565,108561,108578,112342,112342,2023-03-04T23:47:26Z,112361,Beweis,ushahidi,s,marudio,kizuizi,mtendaji,jk,NA,NA,NULL,NA,NA,NA,NA,NA,NA,NA,NA,NA,NA,NA,NA,NA,NA,NA,NA,NA,NA,NA
33891,Save data screen,canvas.Screen,1_13_0_1,NA,NA,timeout,500,112343,112345,112361,112845,112850,2023-03-04T23:47:27Z,112861,Beweis,ushahidi,s,marudio,kizuizi,mtendaji,NA,NA,0,NULL,NA,NA,NA,NA,NA,NA,NA,NA,NA,NA,NA,NA,NA,NA,NA,NA,NA,NA,NA
33891,deep,flow.Sequence,1_13_0,NA,NA,completion,4267,108565,108561,108578,112845,112851,2023-03-04T23:47:27Z,112861,Beweis,ushahidi,s,marudio,kizuizi,mtendaji,NA,NA,NA,NULL,NA,NA,NA,NA,NA,NA,NA,NA,NA,NA,NA,NA,NA,NA,NA,NA,NA,NA,NA
33891,task,flow.Sequence,1_13,NA,NA,completion,4267,108564,108561,108578,112845,112851,2023-03-04T23:47:27Z,112861,Beweis,ushahidi,s,marudio,kizuizi,mtendaji,NA,NA,NA,NULL,NA,NA,NA,NA,NA,NA,NA,NA,NA,NA,NA,NA,NA,NA,NA,NA,NA,NA,NA
33891,Deep Question,html.Page,1_14_0_0,NA,NA,form submission,5261,112852,112845,112861,118122,118122,2023-03-04T23:47:32Z,118145,Annäherung,maegesho,d,madahili,kujiamini,mapendekezo,emeno,NA,NA,NULL,NA,NA,NA,NA,NA,NA,NA,NA,NA,NA,NA,NA,NA,NA,NA,NA,NA,NA,NA
33891,Save data screen,canvas.Screen,1_14_0_1,NA,NA,timeout,500,118123,118127,118145,118628,118629,2023-03-04T23:47:33Z,118645,Annäherung,maegesho,d,madahili,kujiamini,mapendekezo,NA,NA,0,NULL,NA,NA,NA,NA,NA,NA,NA,NA,NA,NA,NA,NA,NA,NA,NA,NA,NA,NA,NA
33891,deep,flow.Sequence,1_14_0,NA,NA,completion,5767,112852,112845,112861,118628,118629,2023-03-04T23:47:33Z,118645,Annäherung,maegesho,d,madahili,kujiamini,mapendekezo,NA,NA,NA,NULL,NA,NA,NA,NA,NA,NA,NA,NA,NA,NA,NA,NA,NA,NA,NA,NA,NA,NA,NA
33891,task,flow.Sequence,1_14,NA,NA,completion,5767,112852,112845,112861,118628,118629,2023-03-04T23:47:33Z,118645,Annäherung,maegesho,d,madahili,kujiamini,mapendekezo,NA,NA,NA,NULL,NA,NA,NA,NA,NA,NA,NA,NA,NA,NA,NA,NA,NA,NA,NA,NA,NA,NA,NA
33891,Deep Question,html.Page,1_15_0_0,NA,NA,form submission,9499,118630,118628,118645,128144,128145,2023-03-04T23:47:42Z,128178,Symbol,kielezo,d,kinyume,nderemo,utayari,nadhara,NA,NA,NULL,NA,NA,NA,NA,NA,NA,NA,NA,NA,NA,NA,NA,NA,NA,NA,NA,NA,NA,NA
33891,Save data screen,canvas.Screen,1_15_0_1,NA,NA,timeout,502,128146,128161,128178,128662,128663,2023-03-04T23:47:43Z,128680,Symbol,kielezo,d,kinyume,nderemo,utayari,NA,NA,0,NULL,NA,NA,NA,NA,NA,NA,NA,NA,NA,NA,NA,NA,NA,NA,NA,NA,NA,NA,NA
33891,deep,flow.Sequence,1_15_0,NA,NA,completion,10017,118630,118628,118645,128662,128664,2023-03-04T23:47:43Z,128680,Symbol,kielezo,d,kinyume,nderemo,utayari,NA,NA,NA,NULL,NA,NA,NA,NA,NA,NA,NA,NA,NA,NA,NA,NA,NA,NA,NA,NA,NA,NA,NA
33891,task,flow.Sequence,1_15,NA,NA,completion,10017,118629,118628,118645,128662,128664,2023-03-04T23:47:43Z,128680,Symbol,kielezo,d,kinyume,nderemo,utayari,NA,NA,NA,NULL,NA,NA,NA,NA,NA,NA,NA,NA,NA,NA,NA,NA,NA,NA,NA,NA,NA,NA,NA
33891,retrieval block 1 (cued recall),flow.Loop,1,NA,NA,completion,123651,4980,4995,5011,128662,128665,2023-03-04T23:47:43Z,128680,NA,NA,NA,NA,NA,NA,NA,NA,NA,NULL,NA,NA,NA,NA,NA,NA,NA,NA,NA,NA,NA,NA,NA,NA,NA,NA,NA,NA,NA
33891,Shallow Question,html.Page,2_0_0_0,NA,NA,form submission,10056,128665,128662,128680,138736,138737,2023-03-04T23:47:53Z,138761,Symbol,kielezo,d,kinyume,nderemo,utayari,kielezo,NA,NA,"c(""distractor1"", ""distractor2"", ""distractor3"")",NA,NA,NA,NA,NA,NA,NA,NA,NA,NA,NA,NA,NA,NA,NA,NA,NA,NA,NA
33891,Save data screen,canvas.Screen,2_0_0_1,NA,NA,timeout,500,138738,138744,138761,139245,139246,2023-03-04T23:47:53Z,139261,Symbol,kielezo,d,kinyume,nderemo,utayari,NA,NA,1,"c(""distractor1"", ""distractor2"", ""distractor3"")",NA,NA,NA,NA,NA,NA,NA,NA,NA,NA,NA,NA,NA,NA,NA,NA,NA,NA,NA
33891,shallow,flow.Sequence,2_0_0,NA,NA,completion,10565,128665,128662,128680,139245,139246,2023-03-04T23:47:53Z,139261,Symbol,kielezo,d,kinyume,nderemo,utayari,NA,NA,NA,"c(""distractor1"", ""distractor2"", ""distractor3"")",NA,NA,NA,NA,NA,NA,NA,NA,NA,NA,NA,NA,NA,NA,NA,NA,NA,NA,NA
33891,task,flow.Sequence,2_0,NA,NA,completion,10565,128665,128662,128680,139245,139247,2023-03-04T23:47:53Z,139261,Symbol,kielezo,d,kinyume,nderemo,utayari,NA,NA,NA,"c(""distractor1"", ""distractor2"", ""distractor3"")",NA,NA,NA,NA,NA,NA,NA,NA,NA,NA,NA,NA,NA,NA,NA,NA,NA,NA,NA
33891,Shallow Question,html.Page,2_1_0_0,NA,NA,form submission,4680,139247,139245,139261,143941,143942,2023-03-04T23:47:58Z,143978,Zufall,kikuti,d,kukosekana,uchoraji,leseni,kikuti,NA,NA,"c(""distractor1"", ""distractor2"", ""distractor3"")",NA,NA,NA,NA,NA,NA,NA,NA,NA,NA,NA,NA,NA,NA,NA,NA,NA,NA,NA
33891,Save data screen,canvas.Screen,2_1_0_1,NA,NA,timeout,500,143943,143962,143978,144462,144463,2023-03-04T23:47:58Z,144478,Zufall,kikuti,d,kukosekana,uchoraji,leseni,NA,NA,1,"c(""distractor1"", ""distractor2"", ""distractor3"")",NA,NA,NA,NA,NA,NA,NA,NA,NA,NA,NA,NA,NA,NA,NA,NA,NA,NA,NA
33891,shallow,flow.Sequence,2_1_0,NA,NA,completion,5201,139247,139245,139261,144462,144464,2023-03-04T23:47:58Z,144478,Zufall,kikuti,d,kukosekana,uchoraji,leseni,NA,NA,NA,"c(""distractor1"", ""distractor2"", ""distractor3"")",NA,NA,NA,NA,NA,NA,NA,NA,NA,NA,NA,NA,NA,NA,NA,NA,NA,NA,NA
33891,task,flow.Sequence,2_1,NA,NA,completion,5201,139247,139245,139261,144462,144464,2023-03-04T23:47:58Z,144478,Zufall,kikuti,d,kukosekana,uchoraji,leseni,NA,NA,NA,"c(""distractor1"", ""distractor2"", ""distractor3"")",NA,NA,NA,NA,NA,NA,NA,NA,NA,NA,NA,NA,NA,NA,NA,NA,NA,NA,NA
33891,Shallow Question,html.Page,2_2_0_0,NA,NA,form submission,7878,144465,144462,144478,152356,152357,2023-03-04T23:48:06Z,152395,Beweis,ushahidi,s,marudio,kizuizi,mtendaji,ushahidi,NA,NA,"c(""distractor1"", ""distractor2"", ""distractor3"")",NA,NA,NA,NA,NA,NA,NA,NA,NA,NA,NA,NA,NA,NA,NA,NA,NA,NA,NA
33891,Save data screen,canvas.Screen,2_2_0_1,NA,NA,timeout,500,152358,152378,152395,152878,152879,2023-03-04T23:48:07Z,152895,Beweis,ushahidi,s,marudio,kizuizi,mtendaji,NA,NA,1,"c(""distractor1"", ""distractor2"", ""distractor3"")",NA,NA,NA,NA,NA,NA,NA,NA,NA,NA,NA,NA,NA,NA,NA,NA,NA,NA,NA
33891,shallow,flow.Sequence,2_2_0,NA,NA,completion,8400,144465,144462,144478,152878,152880,2023-03-04T23:48:07Z,152895,Beweis,ushahidi,s,marudio,kizuizi,mtendaji,NA,NA,NA,"c(""distractor1"", ""distractor2"", ""distractor3"")",NA,NA,NA,NA,NA,NA,NA,NA,NA,NA,NA,NA,NA,NA,NA,NA,NA,NA,NA
33891,task,flow.Sequence,2_2,NA,NA,completion,8400,144465,144462,144478,152878,152880,2023-03-04T23:48:07Z,152895,Beweis,ushahidi,s,marudio,kizuizi,mtendaji,NA,NA,NA,"c(""distractor1"", ""distractor2"", ""distractor3"")",NA,NA,NA,NA,NA,NA,NA,NA,NA,NA,NA,NA,NA,NA,NA,NA,NA,NA,NA
33891,Shallow Question,html.Page,2_3_0_0,NA,NA,form submission,5431,152880,152878,152895,158326,158326,2023-03-04T23:48:12Z,158361,Vorsorge,tahadhari,s,ufafanuzi,makini,mashambani,tahadhari,NA,NA,"c(""distractor1"", ""distractor2"", ""distractor3"")",NA,NA,NA,NA,NA,NA,NA,NA,NA,NA,NA,NA,NA,NA,NA,NA,NA,NA,NA
33891,Save data screen,canvas.Screen,2_3_0_1,NA,NA,timeout,500,158328,158345,158361,158845,158846,2023-03-04T23:48:13Z,158861,Vorsorge,tahadhari,s,ufafanuzi,makini,mashambani,NA,NA,1,"c(""distractor1"", ""distractor2"", ""distractor3"")",NA,NA,NA,NA,NA,NA,NA,NA,NA,NA,NA,NA,NA,NA,NA,NA,NA,NA,NA
33891,shallow,flow.Sequence,2_3_0,NA,NA,completion,5950,152880,152878,152895,158845,158847,2023-03-04T23:48:13Z,158861,Vorsorge,tahadhari,s,ufafanuzi,makini,mashambani,NA,NA,NA,"c(""distractor1"", ""distractor2"", ""distractor3"")",NA,NA,NA,NA,NA,NA,NA,NA,NA,NA,NA,NA,NA,NA,NA,NA,NA,NA,NA
33891,task,flow.Sequence,2_3,NA,NA,completion,5950,152880,152878,152895,158845,158848,2023-03-04T23:48:13Z,158861,Vorsorge,tahadhari,s,ufafanuzi,makini,mashambani,NA,NA,NA,"c(""distractor1"", ""distractor2"", ""distractor3"")",NA,NA,NA,NA,NA,NA,NA,NA,NA,NA,NA,NA,NA,NA,NA,NA,NA,NA,NA
33891,Shallow Question,html.Page,2_4_0_0,NA,NA,form submission,4011,158848,158845,158861,162872,162872,2023-03-04T23:48:17Z,162895,Ausschluss,kutengwa,s,ununuzi,taratibu,madeni,kutengwa,NA,NA,"c(""distractor1"", ""distractor2"", ""distractor3"")",NA,NA,NA,NA,NA,NA,NA,NA,NA,NA,NA,NA,NA,NA,NA,NA,NA,NA,NA
33891,Save data screen,canvas.Screen,2_4_0_1,NA,NA,timeout,500,162873,162878,162895,163378,163379,2023-03-04T23:48:17Z,163395,Ausschluss,kutengwa,s,ununuzi,taratibu,madeni,NA,NA,1,"c(""distractor1"", ""distractor2"", ""distractor3"")",NA,NA,NA,NA,NA,NA,NA,NA,NA,NA,NA,NA,NA,NA,NA,NA,NA,NA,NA
33891,shallow,flow.Sequence,2_4_0,NA,NA,completion,4517,158848,158845,158861,163378,163380,2023-03-04T23:48:17Z,163395,Ausschluss,kutengwa,s,ununuzi,taratibu,madeni,NA,NA,NA,"c(""distractor1"", ""distractor2"", ""distractor3"")",NA,NA,NA,NA,NA,NA,NA,NA,NA,NA,NA,NA,NA,NA,NA,NA,NA,NA,NA
33891,task,flow.Sequence,2_4,NA,NA,completion,4517,158848,158845,158861,163378,163380,2023-03-04T23:48:17Z,163395,Ausschluss,kutengwa,s,ununuzi,taratibu,madeni,NA,NA,NA,"c(""distractor1"", ""distractor2"", ""distractor3"")",NA,NA,NA,NA,NA,NA,NA,NA,NA,NA,NA,NA,NA,NA,NA,NA,NA,NA,NA
33891,Shallow Question,html.Page,2_5_0_0,NA,NA,form submission,5164,163381,163378,163395,168559,168560,2023-03-04T23:48:23Z,168594,Gelegenheit,wakati,s,mchanganyiko,kipaumbele,kushuku,wakati,NA,NA,"c(""distractor1"", ""distractor2"", ""distractor3"")",NA,NA,NA,NA,NA,NA,NA,NA,NA,NA,NA,NA,NA,NA,NA,NA,NA,NA,NA
33891,Save data screen,canvas.Screen,2_5_0_1,NA,NA,timeout,501,168561,168578,168594,169078,169079,2023-03-04T23:48:23Z,169095,Gelegenheit,wakati,s,mchanganyiko,kipaumbele,kushuku,NA,NA,1,"c(""distractor1"", ""distractor2"", ""distractor3"")",NA,NA,NA,NA,NA,NA,NA,NA,NA,NA,NA,NA,NA,NA,NA,NA,NA,NA,NA
33891,shallow,flow.Sequence,2_5_0,NA,NA,completion,5683,163381,163378,163395,169078,169080,2023-03-04T23:48:23Z,169095,Gelegenheit,wakati,s,mchanganyiko,kipaumbele,kushuku,NA,NA,NA,"c(""distractor1"", ""distractor2"", ""distractor3"")",NA,NA,NA,NA,NA,NA,NA,NA,NA,NA,NA,NA,NA,NA,NA,NA,NA,NA,NA
33891,task,flow.Sequence,2_5,NA,NA,completion,5683,163381,163378,163395,169078,169080,2023-03-04T23:48:23Z,169095,Gelegenheit,wakati,s,mchanganyiko,kipaumbele,kushuku,NA,NA,NA,"c(""distractor1"", ""distractor2"", ""distractor3"")",NA,NA,NA,NA,NA,NA,NA,NA,NA,NA,NA,NA,NA,NA,NA,NA,NA,NA,NA
33891,Shallow Question,html.Page,2_6_0_0,NA,NA,form submission,6621,169081,169078,169095,175716,175716,2023-03-04T23:48:30Z,175745,Annäherung,maegesho,d,madahili,kujiamini,mapendekezo,maegesho,NA,NA,"c(""distractor1"", ""distractor2"", ""distractor3"")",NA,NA,NA,NA,NA,NA,NA,NA,NA,NA,NA,NA,NA,NA,NA,NA,NA,NA,NA
33891,Save data screen,canvas.Screen,2_6_0_1,NA,NA,timeout,500,175717,175727,175745,176228,176229,2023-03-04T23:48:30Z,176245,Annäherung,maegesho,d,madahili,kujiamini,mapendekezo,NA,NA,1,"c(""distractor1"", ""distractor2"", ""distractor3"")",NA,NA,NA,NA,NA,NA,NA,NA,NA,NA,NA,NA,NA,NA,NA,NA,NA,NA,NA
33891,shallow,flow.Sequence,2_6_0,NA,NA,completion,7133,169080,169078,169095,176228,176230,2023-03-04T23:48:30Z,176245,Annäherung,maegesho,d,madahili,kujiamini,mapendekezo,NA,NA,NA,"c(""distractor1"", ""distractor2"", ""distractor3"")",NA,NA,NA,NA,NA,NA,NA,NA,NA,NA,NA,NA,NA,NA,NA,NA,NA,NA,NA
33891,task,flow.Sequence,2_6,NA,NA,completion,7133,169080,169078,169095,176228,176230,2023-03-04T23:48:30Z,176245,Annäherung,maegesho,d,madahili,kujiamini,mapendekezo,NA,NA,NA,"c(""distractor1"", ""distractor2"", ""distractor3"")",NA,NA,NA,NA,NA,NA,NA,NA,NA,NA,NA,NA,NA,NA,NA,NA,NA,NA,NA
33891,Shallow Question,html.Page,2_7_0_0,NA,NA,form submission,5434,176231,176228,176245,181679,181680,2023-03-04T23:48:36Z,181711,Konkurrent,mshindani,s,msemaji,mvutaji,kipukusa,mshindani,NA,NA,"c(""distractor1"", ""distractor2"", ""distractor3"")",NA,NA,NA,NA,NA,NA,NA,NA,NA,NA,NA,NA,NA,NA,NA,NA,NA,NA,NA
33891,Save data screen,canvas.Screen,2_7_0_1,NA,NA,timeout,499,181682,181695,181711,182195,182196,2023-03-04T23:48:36Z,182210,Konkurrent,mshindani,s,msemaji,mvutaji,kipukusa,NA,NA,1,"c(""distractor1"", ""distractor2"", ""distractor3"")",NA,NA,NA,NA,NA,NA,NA,NA,NA,NA,NA,NA,NA,NA,NA,NA,NA,NA,NA
33891,shallow,flow.Sequence,2_7_0,NA,NA,completion,5950,176231,176228,176245,182195,182197,2023-03-04T23:48:36Z,182210,Konkurrent,mshindani,s,msemaji,mvutaji,kipukusa,NA,NA,NA,"c(""distractor1"", ""distractor2"", ""distractor3"")",NA,NA,NA,NA,NA,NA,NA,NA,NA,NA,NA,NA,NA,NA,NA,NA,NA,NA,NA
33891,task,flow.Sequence,2_7,NA,NA,completion,5950,176231,176228,176245,182195,182198,2023-03-04T23:48:36Z,182210,Konkurrent,mshindani,s,msemaji,mvutaji,kipukusa,NA,NA,NA,"c(""distractor1"", ""distractor2"", ""distractor3"")",NA,NA,NA,NA,NA,NA,NA,NA,NA,NA,NA,NA,NA,NA,NA,NA,NA,NA,NA
33891,Shallow Question,html.Page,2_8_0_0,NA,NA,form submission,4709,182198,182195,182210,186919,186919,2023-03-04T23:48:41Z,186945,Verstand,ufahamivu,d,shakawa,hadhari,mhandisi,ufahamivu,NA,NA,"c(""distractor1"", ""distractor2"", ""distractor3"")",NA,NA,NA,NA,NA,NA,NA,NA,NA,NA,NA,NA,NA,NA,NA,NA,NA,NA,NA
33891,Save data screen,canvas.Screen,2_8_0_1,NA,NA,timeout,500,186920,186928,186945,187428,187429,2023-03-04T23:48:41Z,187445,Verstand,ufahamivu,d,shakawa,hadhari,mhandisi,NA,NA,1,"c(""distractor1"", ""distractor2"", ""distractor3"")",NA,NA,NA,NA,NA,NA,NA,NA,NA,NA,NA,NA,NA,NA,NA,NA,NA,NA,NA
33891,shallow,flow.Sequence,2_8_0,NA,NA,completion,5218,182198,182195,182210,187428,187430,2023-03-04T23:48:41Z,187445,Verstand,ufahamivu,d,shakawa,hadhari,mhandisi,NA,NA,NA,"c(""distractor1"", ""distractor2"", ""distractor3"")",NA,NA,NA,NA,NA,NA,NA,NA,NA,NA,NA,NA,NA,NA,NA,NA,NA,NA,NA
33891,task,flow.Sequence,2_8,NA,NA,completion,5218,182198,182195,182210,187428,187431,2023-03-04T23:48:41Z,187445,Verstand,ufahamivu,d,shakawa,hadhari,mhandisi,NA,NA,NA,"c(""distractor1"", ""distractor2"", ""distractor3"")",NA,NA,NA,NA,NA,NA,NA,NA,NA,NA,NA,NA,NA,NA,NA,NA,NA,NA,NA
33891,Shallow Question,html.Page,2_9_0_0,NA,NA,form submission,6125,187431,187428,187445,193570,193570,2023-03-04T23:48:48Z,193595,Zuwachs,nyongeza,d,matilaba,udhibiti,hudhurio,nyongeza,NA,NA,"c(""distractor1"", ""distractor2"", ""distractor3"")",NA,NA,NA,NA,NA,NA,NA,NA,NA,NA,NA,NA,NA,NA,NA,NA,NA,NA,NA
33891,Save data screen,canvas.Screen,2_9_0_1,NA,NA,timeout,500,193572,193578,193595,194078,194080,2023-03-04T23:48:48Z,194095,Zuwachs,nyongeza,d,matilaba,udhibiti,hudhurio,NA,NA,1,"c(""distractor1"", ""distractor2"", ""distractor3"")",NA,NA,NA,NA,NA,NA,NA,NA,NA,NA,NA,NA,NA,NA,NA,NA,NA,NA,NA
33891,shallow,flow.Sequence,2_9_0,NA,NA,completion,6633,187431,187428,187445,194078,194080,2023-03-04T23:48:48Z,194095,Zuwachs,nyongeza,d,matilaba,udhibiti,hudhurio,NA,NA,NA,"c(""distractor1"", ""distractor2"", ""distractor3"")",NA,NA,NA,NA,NA,NA,NA,NA,NA,NA,NA,NA,NA,NA,NA,NA,NA,NA,NA
33891,task,flow.Sequence,2_9,NA,NA,completion,6633,187431,187428,187445,194078,194081,2023-03-04T23:48:48Z,194095,Zuwachs,nyongeza,d,matilaba,udhibiti,hudhurio,NA,NA,NA,"c(""distractor1"", ""distractor2"", ""distractor3"")",NA,NA,NA,NA,NA,NA,NA,NA,NA,NA,NA,NA,NA,NA,NA,NA,NA,NA,NA
33891,Shallow Question,html.Page,2_10_0_0,NA,NA,form submission,4762,194082,194078,194095,198857,198858,2023-03-04T23:48:53Z,198878,Polizist,msongora,s,simanzi,mandhari,nidhamu,msongora,NA,NA,"c(""distractor1"", ""distractor2"", ""distractor3"")",NA,NA,NA,NA,NA,NA,NA,NA,NA,NA,NA,NA,NA,NA,NA,NA,NA,NA,NA
33891,Save data screen,canvas.Screen,2_10_0_1,NA,NA,timeout,500,198859,198861,198878,199361,199362,2023-03-04T23:48:53Z,199378,Polizist,msongora,s,simanzi,mandhari,nidhamu,NA,NA,1,"c(""distractor1"", ""distractor2"", ""distractor3"")",NA,NA,NA,NA,NA,NA,NA,NA,NA,NA,NA,NA,NA,NA,NA,NA,NA,NA,NA
33891,shallow,flow.Sequence,2_10_0,NA,NA,completion,5266,194082,194078,194095,199361,199363,2023-03-04T23:48:53Z,199378,Polizist,msongora,s,simanzi,mandhari,nidhamu,NA,NA,NA,"c(""distractor1"", ""distractor2"", ""distractor3"")",NA,NA,NA,NA,NA,NA,NA,NA,NA,NA,NA,NA,NA,NA,NA,NA,NA,NA,NA
33891,task,flow.Sequence,2_10,NA,NA,completion,5266,194081,194078,194095,199361,199363,2023-03-04T23:48:53Z,199378,Polizist,msongora,s,simanzi,mandhari,nidhamu,NA,NA,NA,"c(""distractor1"", ""distractor2"", ""distractor3"")",NA,NA,NA,NA,NA,NA,NA,NA,NA,NA,NA,NA,NA,NA,NA,NA,NA,NA,NA
33891,Shallow Question,html.Page,2_11_0_0,NA,NA,form submission,4485,199364,199361,199378,203863,203864,2023-03-04T23:48:58Z,203895,Schönheit,kirembo,d,mahojiano,msisimko,jitihadi,kirembo,NA,NA,"c(""distractor1"", ""distractor2"", ""distractor3"")",NA,NA,NA,NA,NA,NA,NA,NA,NA,NA,NA,NA,NA,NA,NA,NA,NA,NA,NA
33891,Save data screen,canvas.Screen,2_11_0_1,NA,NA,timeout,500,203866,203878,203895,204378,204379,2023-03-04T23:48:58Z,204395,Schönheit,kirembo,d,mahojiano,msisimko,jitihadi,NA,NA,1,"c(""distractor1"", ""distractor2"", ""distractor3"")",NA,NA,NA,NA,NA,NA,NA,NA,NA,NA,NA,NA,NA,NA,NA,NA,NA,NA,NA
33891,shallow,flow.Sequence,2_11_0,NA,NA,completion,5000,199363,199361,199378,204378,204379,2023-03-04T23:48:58Z,204395,Schönheit,kirembo,d,mahojiano,msisimko,jitihadi,NA,NA,NA,"c(""distractor1"", ""distractor2"", ""distractor3"")",NA,NA,NA,NA,NA,NA,NA,NA,NA,NA,NA,NA,NA,NA,NA,NA,NA,NA,NA
33891,task,flow.Sequence,2_11,NA,NA,completion,5000,199363,199361,199378,204378,204380,2023-03-04T23:48:58Z,204395,Schönheit,kirembo,d,mahojiano,msisimko,jitihadi,NA,NA,NA,"c(""distractor1"", ""distractor2"", ""distractor3"")",NA,NA,NA,NA,NA,NA,NA,NA,NA,NA,NA,NA,NA,NA,NA,NA,NA,NA,NA
33891,Shallow Question,html.Page,2_12_0_0,NA,NA,form submission,8951,204380,204378,204395,213346,213346,2023-03-04T23:49:07Z,213378,Wettbewerb,ushindani,s,mapendezi,kichocheo,ubaguzi,ushindani,NA,NA,"c(""distractor1"", ""distractor2"", ""distractor3"")",NA,NA,NA,NA,NA,NA,NA,NA,NA,NA,NA,NA,NA,NA,NA,NA,NA,NA,NA
33891,Save data screen,canvas.Screen,2_12_0_1,NA,NA,timeout,500,213348,213361,213378,213861,213863,2023-03-04T23:49:08Z,213878,Wettbewerb,ushindani,s,mapendezi,kichocheo,ubaguzi,NA,NA,1,"c(""distractor1"", ""distractor2"", ""distractor3"")",NA,NA,NA,NA,NA,NA,NA,NA,NA,NA,NA,NA,NA,NA,NA,NA,NA,NA,NA
33891,shallow,flow.Sequence,2_12_0,NA,NA,completion,9466,204380,204378,204395,213861,213864,2023-03-04T23:49:08Z,213878,Wettbewerb,ushindani,s,mapendezi,kichocheo,ubaguzi,NA,NA,NA,"c(""distractor1"", ""distractor2"", ""distractor3"")",NA,NA,NA,NA,NA,NA,NA,NA,NA,NA,NA,NA,NA,NA,NA,NA,NA,NA,NA
33891,task,flow.Sequence,2_12,NA,NA,completion,9466,204380,204378,204395,213861,213864,2023-03-04T23:49:08Z,213878,Wettbewerb,ushindani,s,mapendezi,kichocheo,ubaguzi,NA,NA,NA,"c(""distractor1"", ""distractor2"", ""distractor3"")",NA,NA,NA,NA,NA,NA,NA,NA,NA,NA,NA,NA,NA,NA,NA,NA,NA,NA,NA
33891,Shallow Question,html.Page,2_13_0_0,NA,NA,form submission,6331,213865,213861,213878,220209,220209,2023-03-04T23:49:14Z,220244,Sympathie,mapendano,d,dhamiria,fungamano,maazimio,dhamiria,NA,NA,"c(""distractor1"", ""distractor2"", ""distractor3"")",NA,NA,NA,NA,NA,NA,NA,NA,NA,NA,NA,NA,NA,NA,NA,NA,NA,NA,NA
33891,Save data screen,canvas.Screen,2_13_0_1,NA,NA,timeout,501,220210,220228,220244,220728,220730,2023-03-04T23:49:15Z,220745,Sympathie,mapendano,d,dhamiria,fungamano,maazimio,NA,NA,0,"c(""distractor1"", ""distractor2"", ""distractor3"")",NA,NA,NA,NA,NA,NA,NA,NA,NA,NA,NA,NA,NA,NA,NA,NA,NA,NA,NA
33891,shallow,flow.Sequence,2_13_0,NA,NA,completion,6850,213865,213861,213878,220728,220730,2023-03-04T23:49:15Z,220745,Sympathie,mapendano,d,dhamiria,fungamano,maazimio,NA,NA,NA,"c(""distractor1"", ""distractor2"", ""distractor3"")",NA,NA,NA,NA,NA,NA,NA,NA,NA,NA,NA,NA,NA,NA,NA,NA,NA,NA,NA
33891,task,flow.Sequence,2_13,NA,NA,completion,6850,213864,213861,213878,220728,220731,2023-03-04T23:49:15Z,220745,Sympathie,mapendano,d,dhamiria,fungamano,maazimio,NA,NA,NA,"c(""distractor1"", ""distractor2"", ""distractor3"")",NA,NA,NA,NA,NA,NA,NA,NA,NA,NA,NA,NA,NA,NA,NA,NA,NA,NA,NA
33891,Shallow Question,html.Page,2_14_0_0,NA,NA,form submission,9398,220732,220728,220745,230143,230143,2023-03-04T23:49:24Z,230178,Auftrag,uagizaji,s,ghanima,kuzingatia,msukani,ghanima,NA,NA,"c(""distractor1"", ""distractor2"", ""distractor3"")",NA,NA,NA,NA,NA,NA,NA,NA,NA,NA,NA,NA,NA,NA,NA,NA,NA,NA,NA
33891,Save data screen,canvas.Screen,2_14_0_1,NA,NA,timeout,500,230144,230162,230178,230662,230663,2023-03-04T23:49:25Z,230678,Auftrag,uagizaji,s,ghanima,kuzingatia,msukani,NA,NA,0,"c(""distractor1"", ""distractor2"", ""distractor3"")",NA,NA,NA,NA,NA,NA,NA,NA,NA,NA,NA,NA,NA,NA,NA,NA,NA,NA,NA
33891,shallow,flow.Sequence,2_14_0,NA,NA,completion,9917,220731,220728,220745,230662,230663,2023-03-04T23:49:25Z,230678,Auftrag,uagizaji,s,ghanima,kuzingatia,msukani,NA,NA,NA,"c(""distractor1"", ""distractor2"", ""distractor3"")",NA,NA,NA,NA,NA,NA,NA,NA,NA,NA,NA,NA,NA,NA,NA,NA,NA,NA,NA
33891,task,flow.Sequence,2_14,NA,NA,completion,9917,220731,220728,220745,230662,230664,2023-03-04T23:49:25Z,230678,Auftrag,uagizaji,s,ghanima,kuzingatia,msukani,NA,NA,NA,"c(""distractor1"", ""distractor2"", ""distractor3"")",NA,NA,NA,NA,NA,NA,NA,NA,NA,NA,NA,NA,NA,NA,NA,NA,NA,NA,NA
33891,Shallow Question,html.Page,2_15_0_0,NA,NA,form submission,6427,230664,230662,230678,237105,237106,2023-03-04T23:49:31Z,237128,Widerstand,usulubu,d,kusababisha,mwalimu,mwenendo,usulubu,NA,NA,"c(""distractor1"", ""distractor2"", ""distractor3"")",NA,NA,NA,NA,NA,NA,NA,NA,NA,NA,NA,NA,NA,NA,NA,NA,NA,NA,NA
33891,Save data screen,canvas.Screen,2_15_0_1,NA,NA,timeout,500,237107,237111,237128,237612,237612,2023-03-04T23:49:32Z,237628,Widerstand,usulubu,d,kusababisha,mwalimu,mwenendo,NA,NA,1,"c(""distractor1"", ""distractor2"", ""distractor3"")",NA,NA,NA,NA,NA,NA,NA,NA,NA,NA,NA,NA,NA,NA,NA,NA,NA,NA,NA
33891,shallow,flow.Sequence,2_15_0,NA,NA,completion,6934,230664,230662,230678,237612,237613,2023-03-04T23:49:32Z,237628,Widerstand,usulubu,d,kusababisha,mwalimu,mwenendo,NA,NA,NA,"c(""distractor1"", ""distractor2"", ""distractor3"")",NA,NA,NA,NA,NA,NA,NA,NA,NA,NA,NA,NA,NA,NA,NA,NA,NA,NA,NA
33891,task,flow.Sequence,2_15,NA,NA,completion,6934,230664,230662,230678,237612,237613,2023-03-04T23:49:32Z,237628,Widerstand,usulubu,d,kusababisha,mwalimu,mwenendo,NA,NA,NA,"c(""distractor1"", ""distractor2"", ""distractor3"")",NA,NA,NA,NA,NA,NA,NA,NA,NA,NA,NA,NA,NA,NA,NA,NA,NA,NA,NA
33891,retrieval block 2 (multiple choice),flow.Loop,2,NA,NA,completion,108932,128665,128662,128680,237612,237613,2023-03-04T23:49:32Z,237628,NA,NA,NA,NA,NA,NA,NA,NA,NA,"c(""distractor1"", ""distractor2"", ""distractor3"")",NA,NA,NA,NA,NA,NA,NA,NA,NA,NA,NA,NA,NA,NA,NA,NA,NA,NA,NA
33891,End,canvas.Screen,3,NA,keypress(Space),response,1474,237613,237612,237628,239086,239092,2023-03-04T23:49:33Z,239128,NA,NA,NA,NA,NA,NA,NA,NA,NA,NULL,NA,NA,NA,NA,NA,NA,NA,NA,NA,NA,NA,NA,NA,NA,NA,NA,NA,NA,NA
33891,root,flow.Sequence,NA,NA,NA,completion,238664,357,394,422,239086,239093,2023-03-04T23:49:33Z,239128,NA,NA,NA,NA,NA,NA,NA,NA,NA,NULL,NA,NA,NA,NA,NA,NA,NA,NA,NA,NA,NA,NA,NA,NA,NA,NA,NA,NA,NA
