observation,sender,sender_type,sender_id,response,response_action,ended_on,duration,time_run,time_render,time_show,time_end,time_commit,timestamp,time_switch,german,swahili,enc,distractor1,distractor2,distractor3,response_2,x,correct,distractors,url_vp,url_sess,meta_labjs_version,meta_location,meta_user_agent,meta_platform,meta_language,meta_locale,meta_time_zone,meta_timezone_offset,meta_screen_width,meta_screen_height,meta_scroll_width,meta_scroll_height,meta_window_inner_width,meta_window_inner_height,meta_device_pixel_ratio,meta_labjs_build_flavor,meta_labjs_build_commit
1d6a3,Introduction delayed retrieval,canvas.Screen,0,weiter,keypress(Space),response,22744.28,818,895,1011.72,23756,23774,2023-03-21T17:08:39Z,23777.8,NA,NA,NA,NA,NA,NA,NA,NA,NA,NULL,112,4,20.2.4,https://neurocog.fernuni.ch/studies/vweber/delayed/index.html?vp=112&sess=4,Mozilla/5.0 (Macintosh; Intel Mac OS X 10.15; rv:109.0) Gecko/20100101 Firefox/111.0,MacIntel,en-US,en-US,Europe/Zurich,-60,1440,900,1440,692,1440,740,2,production,f5b4a49f956347addd546a832a3327688c2c0fef
1d6a3,Deep Question,html.Page,1_0_0_0,NA,NA,form submission,4347.2,23777,23777.36,23777.8,28125,28126,2023-03-21T17:08:43Z,28134.54,Gelegenheit,wakati,s,mchanganyiko,kipaumbele,kushuku,d,NA,NA,NULL,NA,NA,NA,NA,NA,NA,NA,NA,NA,NA,NA,NA,NA,NA,NA,NA,NA,NA,NA
1d6a3,Save data screen,canvas.Screen,1_0_0_1,NA,NA,timeout,503.12,28130,28118.36,28134.54,28621.9,28623,2023-03-21T17:08:44Z,28637.66,Gelegenheit,wakati,s,mchanganyiko,kipaumbele,kushuku,NA,NA,0,NULL,NA,NA,NA,NA,NA,NA,NA,NA,NA,NA,NA,NA,NA,NA,NA,NA,NA,NA,NA
1d6a3,deep,flow.Sequence,1_0_0,NA,NA,completion,4844.1,23777,23777.36,23777.8,28621.9,28623,2023-03-21T17:08:44Z,28637.66,Gelegenheit,wakati,s,mchanganyiko,kipaumbele,kushuku,NA,NA,NA,NULL,NA,NA,NA,NA,NA,NA,NA,NA,NA,NA,NA,NA,NA,NA,NA,NA,NA,NA,NA
1d6a3,task,flow.Sequence,1_0,NA,NA,completion,4844.1,23777,23777.36,23777.8,28621.9,28623,2023-03-21T17:08:44Z,28637.66,Gelegenheit,wakati,s,mchanganyiko,kipaumbele,kushuku,NA,NA,NA,NULL,NA,NA,NA,NA,NA,NA,NA,NA,NA,NA,NA,NA,NA,NA,NA,NA,NA,NA,NA
1d6a3,Deep Question,html.Page,1_1_0_0,NA,NA,form submission,7681.34,28624,28621.9,28637.66,36319,36321,2023-03-21T17:08:51Z,36319.36,Konkurrent,mshindani,s,msemaji,mvutaji,kipukusa,a,NA,NA,NULL,NA,NA,NA,NA,NA,NA,NA,NA,NA,NA,NA,NA,NA,NA,NA,NA,NA,NA,NA
1d6a3,Save data screen,canvas.Screen,1_1_0_1,NA,NA,timeout,508.18,36323,36319.08,36319.36,36810.56,36811,2023-03-21T17:08:52Z,36827.54,Konkurrent,mshindani,s,msemaji,mvutaji,kipukusa,NA,NA,0,NULL,NA,NA,NA,NA,NA,NA,NA,NA,NA,NA,NA,NA,NA,NA,NA,NA,NA,NA,NA
1d6a3,deep,flow.Sequence,1_1_0,NA,NA,completion,8172.9,28624,28621.9,28637.66,36810.56,36812,2023-03-21T17:08:52Z,36827.54,Konkurrent,mshindani,s,msemaji,mvutaji,kipukusa,NA,NA,NA,NULL,NA,NA,NA,NA,NA,NA,NA,NA,NA,NA,NA,NA,NA,NA,NA,NA,NA,NA,NA
1d6a3,task,flow.Sequence,1_1,NA,NA,completion,8172.9,28624,28621.9,28637.66,36810.56,36812,2023-03-21T17:08:52Z,36827.54,Konkurrent,mshindani,s,msemaji,mvutaji,kipukusa,NA,NA,NA,NULL,NA,NA,NA,NA,NA,NA,NA,NA,NA,NA,NA,NA,NA,NA,NA,NA,NA,NA,NA
1d6a3,Deep Question,html.Page,1_2_0_0,NA,NA,form submission,2104.46,36812,36810.56,36827.54,38932,38932,2023-03-21T17:08:54Z,38931.24,Zufall,kikuti,d,kukosekana,uchoraji,leseni,a,NA,NA,NULL,NA,NA,NA,NA,NA,NA,NA,NA,NA,NA,NA,NA,NA,NA,NA,NA,NA,NA,NA
1d6a3,Save data screen,canvas.Screen,1_2_0_1,NA,NA,timeout,497.32,38933,38931.02,38931.24,39411.26,39413,2023-03-21T17:08:54Z,39428.56,Zufall,kikuti,d,kukosekana,uchoraji,leseni,NA,NA,0,NULL,NA,NA,NA,NA,NA,NA,NA,NA,NA,NA,NA,NA,NA,NA,NA,NA,NA,NA,NA
1d6a3,deep,flow.Sequence,1_2_0,NA,NA,completion,2583.72,36812,36810.56,36827.54,39411.26,39414,2023-03-21T17:08:54Z,39428.56,Zufall,kikuti,d,kukosekana,uchoraji,leseni,NA,NA,NA,NULL,NA,NA,NA,NA,NA,NA,NA,NA,NA,NA,NA,NA,NA,NA,NA,NA,NA,NA,NA
1d6a3,task,flow.Sequence,1_2,NA,NA,completion,2583.72,36812,36810.56,36827.54,39411.26,39415,2023-03-21T17:08:54Z,39428.56,Zufall,kikuti,d,kukosekana,uchoraji,leseni,NA,NA,NA,NULL,NA,NA,NA,NA,NA,NA,NA,NA,NA,NA,NA,NA,NA,NA,NA,NA,NA,NA,NA
1d6a3,Deep Question,html.Page,1_3_0_0,NA,NA,form submission,3990.44,39415,39411.26,39428.56,43419,43419,2023-03-21T17:08:59Z,43418.42,Polizist,msongora,s,simanzi,mandhari,nidhamu,a,NA,NA,NULL,NA,NA,NA,NA,NA,NA,NA,NA,NA,NA,NA,NA,NA,NA,NA,NA,NA,NA,NA
1d6a3,Save data screen,canvas.Screen,1_3_0_1,NA,NA,timeout,494.6,43422,43418.18,43418.42,43897.08,43898,2023-03-21T17:08:59Z,43913.02,Polizist,msongora,s,simanzi,mandhari,nidhamu,NA,NA,0,NULL,NA,NA,NA,NA,NA,NA,NA,NA,NA,NA,NA,NA,NA,NA,NA,NA,NA,NA,NA
1d6a3,deep,flow.Sequence,1_3_0,NA,NA,completion,4468.52,39415,39411.26,39428.56,43897.08,43898,2023-03-21T17:08:59Z,43913.02,Polizist,msongora,s,simanzi,mandhari,nidhamu,NA,NA,NA,NULL,NA,NA,NA,NA,NA,NA,NA,NA,NA,NA,NA,NA,NA,NA,NA,NA,NA,NA,NA
1d6a3,task,flow.Sequence,1_3,NA,NA,completion,4468.52,39415,39411.26,39428.56,43897.08,43899,2023-03-21T17:08:59Z,43913.02,Polizist,msongora,s,simanzi,mandhari,nidhamu,NA,NA,NA,NULL,NA,NA,NA,NA,NA,NA,NA,NA,NA,NA,NA,NA,NA,NA,NA,NA,NA,NA,NA
1d6a3,Deep Question,html.Page,1_4_0_0,NA,NA,form submission,2106.98,43899,43897.08,43913.02,46020,46020,2023-03-21T17:09:01Z,46019.3,Widerstand,usulubu,d,kusababisha,mwalimu,mwenendo,a,NA,NA,NULL,NA,NA,NA,NA,NA,NA,NA,NA,NA,NA,NA,NA,NA,NA,NA,NA,NA,NA,NA
1d6a3,Save data screen,canvas.Screen,1_4_0_1,NA,NA,timeout,502.89999999999,46023,46019.06,46019.3,46506.68,46507,2023-03-21T17:09:02Z,46522.2,Widerstand,usulubu,d,kusababisha,mwalimu,mwenendo,NA,NA,0,NULL,NA,NA,NA,NA,NA,NA,NA,NA,NA,NA,NA,NA,NA,NA,NA,NA,NA,NA,NA
1d6a3,deep,flow.Sequence,1_4_0,NA,NA,completion,2593.66,43899,43897.08,43913.02,46506.68,46507,2023-03-21T17:09:02Z,46522.2,Widerstand,usulubu,d,kusababisha,mwalimu,mwenendo,NA,NA,NA,NULL,NA,NA,NA,NA,NA,NA,NA,NA,NA,NA,NA,NA,NA,NA,NA,NA,NA,NA,NA
1d6a3,task,flow.Sequence,1_4,NA,NA,completion,2593.66,43899,43897.08,43913.02,46506.68,46507,2023-03-21T17:09:02Z,46522.2,Widerstand,usulubu,d,kusababisha,mwalimu,mwenendo,NA,NA,NA,NULL,NA,NA,NA,NA,NA,NA,NA,NA,NA,NA,NA,NA,NA,NA,NA,NA,NA,NA,NA
1d6a3,Deep Question,html.Page,1_5_0_0,NA,NA,form submission,3062.8,46508,46506.68,46522.2,49585,49585,2023-03-21T17:09:05Z,49599.14,Verstand,ufahamivu,d,shakawa,hadhari,mhandisi,a,NA,NA,NULL,NA,NA,NA,NA,NA,NA,NA,NA,NA,NA,NA,NA,NA,NA,NA,NA,NA,NA,NA
1d6a3,Save data screen,canvas.Screen,1_5_0_1,NA,NA,timeout,500.3,49587,49584.14,49599.14,50083.74,50084,2023-03-21T17:09:05Z,50099.44,Verstand,ufahamivu,d,shakawa,hadhari,mhandisi,NA,NA,0,NULL,NA,NA,NA,NA,NA,NA,NA,NA,NA,NA,NA,NA,NA,NA,NA,NA,NA,NA,NA
1d6a3,deep,flow.Sequence,1_5_0,NA,NA,completion,3561.54,46508,46506.68,46522.2,50083.74,50085,2023-03-21T17:09:05Z,50099.44,Verstand,ufahamivu,d,shakawa,hadhari,mhandisi,NA,NA,NA,NULL,NA,NA,NA,NA,NA,NA,NA,NA,NA,NA,NA,NA,NA,NA,NA,NA,NA,NA,NA
1d6a3,task,flow.Sequence,1_5,NA,NA,completion,3561.54,46508,46506.68,46522.2,50083.74,50085,2023-03-21T17:09:05Z,50099.44,Verstand,ufahamivu,d,shakawa,hadhari,mhandisi,NA,NA,NA,NULL,NA,NA,NA,NA,NA,NA,NA,NA,NA,NA,NA,NA,NA,NA,NA,NA,NA,NA,NA
1d6a3,Deep Question,html.Page,1_6_0_0,NA,NA,form submission,6354.56,50085,50083.74,50099.44,56454,56455,2023-03-21T17:09:12Z,56464.68,Beweis,ushahidi,s,marudio,kizuizi,mtendaji,a,NA,NA,NULL,NA,NA,NA,NA,NA,NA,NA,NA,NA,NA,NA,NA,NA,NA,NA,NA,NA,NA,NA
1d6a3,Save data screen,canvas.Screen,1_6_0_1,NA,NA,timeout,506.64,56456,56453.64,56464.68,56955.68,56956,2023-03-21T17:09:12Z,56971.32,Beweis,ushahidi,s,marudio,kizuizi,mtendaji,NA,NA,0,NULL,NA,NA,NA,NA,NA,NA,NA,NA,NA,NA,NA,NA,NA,NA,NA,NA,NA,NA,NA
1d6a3,deep,flow.Sequence,1_6_0,NA,NA,completion,6856.24,50085,50083.74,50099.44,56955.68,56956,2023-03-21T17:09:12Z,56971.32,Beweis,ushahidi,s,marudio,kizuizi,mtendaji,NA,NA,NA,NULL,NA,NA,NA,NA,NA,NA,NA,NA,NA,NA,NA,NA,NA,NA,NA,NA,NA,NA,NA
1d6a3,task,flow.Sequence,1_6,NA,NA,completion,6856.24,50085,50083.74,50099.44,56955.68,56956,2023-03-21T17:09:12Z,56971.32,Beweis,ushahidi,s,marudio,kizuizi,mtendaji,NA,NA,NA,NULL,NA,NA,NA,NA,NA,NA,NA,NA,NA,NA,NA,NA,NA,NA,NA,NA,NA,NA,NA
1d6a3,Deep Question,html.Page,1_7_0_0,NA,NA,form submission,1519.68,56957,56955.68,56971.32,58491,58491,2023-03-21T17:09:14Z,58506.06,Wettbewerb,ushindani,s,mapendezi,kichocheo,ubaguzi,a,NA,NA,NULL,NA,NA,NA,NA,NA,NA,NA,NA,NA,NA,NA,NA,NA,NA,NA,NA,NA,NA,NA
1d6a3,Save data screen,canvas.Screen,1_7_0_1,NA,NA,timeout,496.52,58493,58490.72,58506.06,58985.66,58987,2023-03-21T17:09:14Z,59002.58,Wettbewerb,ushindani,s,mapendezi,kichocheo,ubaguzi,NA,NA,0,NULL,NA,NA,NA,NA,NA,NA,NA,NA,NA,NA,NA,NA,NA,NA,NA,NA,NA,NA,NA
1d6a3,deep,flow.Sequence,1_7_0,NA,NA,completion,2014.34,56957,56955.68,56971.32,58985.66,58987,2023-03-21T17:09:14Z,59002.58,Wettbewerb,ushindani,s,mapendezi,kichocheo,ubaguzi,NA,NA,NA,NULL,NA,NA,NA,NA,NA,NA,NA,NA,NA,NA,NA,NA,NA,NA,NA,NA,NA,NA,NA
1d6a3,task,flow.Sequence,1_7,NA,NA,completion,2014.34,56956,56955.68,56971.32,58985.66,58987,2023-03-21T17:09:14Z,59002.58,Wettbewerb,ushindani,s,mapendezi,kichocheo,ubaguzi,NA,NA,NA,NULL,NA,NA,NA,NA,NA,NA,NA,NA,NA,NA,NA,NA,NA,NA,NA,NA,NA,NA,NA
1d6a3,Deep Question,html.Page,1_8_0_0,NA,NA,form submission,7724.42,58987,58985.66,59002.58,66727,66728,2023-03-21T17:09:22Z,66726.56,Vorsorge,tahadhari,s,ufafanuzi,makini,mashambani,a,NA,NA,NULL,NA,NA,NA,NA,NA,NA,NA,NA,NA,NA,NA,NA,NA,NA,NA,NA,NA,NA,NA
1d6a3,Save data screen,canvas.Screen,1_8_0_1,NA,NA,timeout,502.10000000001,66729,66726.22,66726.56,67211.3,67211,2023-03-21T17:09:22Z,67228.66,Vorsorge,tahadhari,s,ufafanuzi,makini,mashambani,NA,NA,0,NULL,NA,NA,NA,NA,NA,NA,NA,NA,NA,NA,NA,NA,NA,NA,NA,NA,NA,NA,NA
1d6a3,deep,flow.Sequence,1_8_0,NA,NA,completion,8208.72,58987,58985.66,59002.58,67211.3,67212,2023-03-21T17:09:22Z,67228.66,Vorsorge,tahadhari,s,ufafanuzi,makini,mashambani,NA,NA,NA,NULL,NA,NA,NA,NA,NA,NA,NA,NA,NA,NA,NA,NA,NA,NA,NA,NA,NA,NA,NA
1d6a3,task,flow.Sequence,1_8,NA,NA,completion,8208.72,58987,58985.66,59002.58,67211.3,67213,2023-03-21T17:09:22Z,67228.66,Vorsorge,tahadhari,s,ufafanuzi,makini,mashambani,NA,NA,NA,NULL,NA,NA,NA,NA,NA,NA,NA,NA,NA,NA,NA,NA,NA,NA,NA,NA,NA,NA,NA
1d6a3,Deep Question,html.Page,1_9_0_0,NA,NA,form submission,23169.34,67213,67211.3,67228.66,90398,90399,2023-03-21T17:09:45Z,90403.44,Schönheit,kirembo,d,mahojiano,msisimko,jitihadi,a,NA,NA,NULL,NA,NA,NA,NA,NA,NA,NA,NA,NA,NA,NA,NA,NA,NA,NA,NA,NA,NA,NA
1d6a3,Save data screen,canvas.Screen,1_9_0_1,NA,NA,timeout,490.89999999999,90403,90396.76,90403.44,90878.32,90879,2023-03-21T17:09:46Z,90894.34,Schönheit,kirembo,d,mahojiano,msisimko,jitihadi,NA,NA,0,NULL,NA,NA,NA,NA,NA,NA,NA,NA,NA,NA,NA,NA,NA,NA,NA,NA,NA,NA,NA
1d6a3,deep,flow.Sequence,1_9_0,NA,NA,completion,23649.66,67213,67211.3,67228.66,90878.32,90879,2023-03-21T17:09:46Z,90894.34,Schönheit,kirembo,d,mahojiano,msisimko,jitihadi,NA,NA,NA,NULL,NA,NA,NA,NA,NA,NA,NA,NA,NA,NA,NA,NA,NA,NA,NA,NA,NA,NA,NA
1d6a3,task,flow.Sequence,1_9,NA,NA,completion,23649.66,67213,67211.3,67228.66,90878.32,90879,2023-03-21T17:09:46Z,90894.34,Schönheit,kirembo,d,mahojiano,msisimko,jitihadi,NA,NA,NA,NULL,NA,NA,NA,NA,NA,NA,NA,NA,NA,NA,NA,NA,NA,NA,NA,NA,NA,NA,NA
1d6a3,Deep Question,html.Page,1_10_0_0,NA,NA,form submission,2164.66,90880,90878.32,90894.34,93059,93059,2023-03-21T17:09:48Z,93058.46,Ausschluss,kutengwa,s,ununuzi,taratibu,madeni,a,NA,NA,NULL,NA,NA,NA,NA,NA,NA,NA,NA,NA,NA,NA,NA,NA,NA,NA,NA,NA,NA,NA
1d6a3,Save data screen,canvas.Screen,1_10_0_1,NA,NA,timeout,500.65999999999,93062,93058.22,93058.46,93542.46,93544,2023-03-21T17:09:49Z,93559.12,Ausschluss,kutengwa,s,ununuzi,taratibu,madeni,NA,NA,0,NULL,NA,NA,NA,NA,NA,NA,NA,NA,NA,NA,NA,NA,NA,NA,NA,NA,NA,NA,NA
1d6a3,deep,flow.Sequence,1_10_0,NA,NA,completion,2648.12,90880,90878.32,90894.34,93542.46,93544,2023-03-21T17:09:49Z,93559.12,Ausschluss,kutengwa,s,ununuzi,taratibu,madeni,NA,NA,NA,NULL,NA,NA,NA,NA,NA,NA,NA,NA,NA,NA,NA,NA,NA,NA,NA,NA,NA,NA,NA
1d6a3,task,flow.Sequence,1_10,NA,NA,completion,2648.12,90880,90878.32,90894.34,93542.46,93544,2023-03-21T17:09:49Z,93559.12,Ausschluss,kutengwa,s,ununuzi,taratibu,madeni,NA,NA,NA,NULL,NA,NA,NA,NA,NA,NA,NA,NA,NA,NA,NA,NA,NA,NA,NA,NA,NA,NA,NA
1d6a3,Deep Question,html.Page,1_11_0_0,NA,NA,form submission,1520.88,93545,93542.46,93559.12,95080,95081,2023-03-21T17:09:50Z,95079.38,Auftrag,uagizaji,s,ghanima,kuzingatia,msukani,a,NA,NA,NULL,NA,NA,NA,NA,NA,NA,NA,NA,NA,NA,NA,NA,NA,NA,NA,NA,NA,NA,NA
1d6a3,Save data screen,canvas.Screen,1_11_0_1,NA,NA,timeout,503.67999999999,95082,95079.14,95079.38,95567.52,95568,2023-03-21T17:09:51Z,95583.06,Auftrag,uagizaji,s,ghanima,kuzingatia,msukani,NA,NA,0,NULL,NA,NA,NA,NA,NA,NA,NA,NA,NA,NA,NA,NA,NA,NA,NA,NA,NA,NA,NA
1d6a3,deep,flow.Sequence,1_11_0,NA,NA,completion,2008.4,93545,93542.46,93559.12,95567.52,95569,2023-03-21T17:09:51Z,95583.06,Auftrag,uagizaji,s,ghanima,kuzingatia,msukani,NA,NA,NA,NULL,NA,NA,NA,NA,NA,NA,NA,NA,NA,NA,NA,NA,NA,NA,NA,NA,NA,NA,NA
1d6a3,task,flow.Sequence,1_11,NA,NA,completion,2008.4,93544,93542.46,93559.12,95567.52,95569,2023-03-21T17:09:51Z,95583.06,Auftrag,uagizaji,s,ghanima,kuzingatia,msukani,NA,NA,NA,NULL,NA,NA,NA,NA,NA,NA,NA,NA,NA,NA,NA,NA,NA,NA,NA,NA,NA,NA,NA
1d6a3,Deep Question,html.Page,1_12_0_0,NA,NA,form submission,6736.94,95569,95567.52,95583.06,102320,102320,2023-03-21T17:09:57Z,102328.62,Sympathie,mapendano,d,dhamiria,fungamano,maazimio,a,NA,NA,NULL,NA,NA,NA,NA,NA,NA,NA,NA,NA,NA,NA,NA,NA,NA,NA,NA,NA,NA,NA
1d6a3,Save data screen,canvas.Screen,1_12_0_1,NA,NA,timeout,504.82000000001,102322,102318.98,102328.62,102816.22,102817,2023-03-21T17:09:58Z,102833.44,Sympathie,mapendano,d,dhamiria,fungamano,maazimio,NA,NA,0,NULL,NA,NA,NA,NA,NA,NA,NA,NA,NA,NA,NA,NA,NA,NA,NA,NA,NA,NA,NA
1d6a3,deep,flow.Sequence,1_12_0,NA,NA,completion,7233.16,95569,95567.52,95583.06,102816.22,102817,2023-03-21T17:09:58Z,102833.44,Sympathie,mapendano,d,dhamiria,fungamano,maazimio,NA,NA,NA,NULL,NA,NA,NA,NA,NA,NA,NA,NA,NA,NA,NA,NA,NA,NA,NA,NA,NA,NA,NA
1d6a3,task,flow.Sequence,1_12,NA,NA,completion,7233.16,95569,95567.52,95583.06,102816.22,102817,2023-03-21T17:09:58Z,102833.44,Sympathie,mapendano,d,dhamiria,fungamano,maazimio,NA,NA,NA,NULL,NA,NA,NA,NA,NA,NA,NA,NA,NA,NA,NA,NA,NA,NA,NA,NA,NA,NA,NA
1d6a3,Deep Question,html.Page,1_13_0_0,NA,NA,form submission,1103.56,102817,102816.22,102833.44,103937,103937,2023-03-21T17:09:59Z,103943.98,Zuwachs,nyongeza,d,matilaba,udhibiti,hudhurio,a,NA,NA,NULL,NA,NA,NA,NA,NA,NA,NA,NA,NA,NA,NA,NA,NA,NA,NA,NA,NA,NA,NA
1d6a3,Save data screen,canvas.Screen,1_13_0_1,NA,NA,timeout,490.2,103938,103936.02,103943.98,104418.38,104419,2023-03-21T17:10:00Z,104434.18,Zuwachs,nyongeza,d,matilaba,udhibiti,hudhurio,NA,NA,0,NULL,NA,NA,NA,NA,NA,NA,NA,NA,NA,NA,NA,NA,NA,NA,NA,NA,NA,NA,NA
1d6a3,deep,flow.Sequence,1_13_0,NA,NA,completion,1584.94,102817,102816.22,102833.44,104418.38,104419,2023-03-21T17:10:00Z,104434.18,Zuwachs,nyongeza,d,matilaba,udhibiti,hudhurio,NA,NA,NA,NULL,NA,NA,NA,NA,NA,NA,NA,NA,NA,NA,NA,NA,NA,NA,NA,NA,NA,NA,NA
1d6a3,task,flow.Sequence,1_13,NA,NA,completion,1584.94,102817,102816.22,102833.44,104418.38,104419,2023-03-21T17:10:00Z,104434.18,Zuwachs,nyongeza,d,matilaba,udhibiti,hudhurio,NA,NA,NA,NULL,NA,NA,NA,NA,NA,NA,NA,NA,NA,NA,NA,NA,NA,NA,NA,NA,NA,NA,NA
1d6a3,Deep Question,html.Page,1_14_0_0,NA,NA,form submission,3976.82,104419,104418.38,104434.18,108411,108411,2023-03-21T17:10:03Z,108411.02,Annäherung,maegesho,d,madahili,kujiamini,mapendekezo,a,NA,NA,NULL,NA,NA,NA,NA,NA,NA,NA,NA,NA,NA,NA,NA,NA,NA,NA,NA,NA,NA,NA
1d6a3,Save data screen,canvas.Screen,1_14_0_1,NA,NA,timeout,508.25999999999,108413,108410.78,108411.02,108902.78,108903,2023-03-21T17:10:04Z,108919.28,Annäherung,maegesho,d,madahili,kujiamini,mapendekezo,NA,NA,0,NULL,NA,NA,NA,NA,NA,NA,NA,NA,NA,NA,NA,NA,NA,NA,NA,NA,NA,NA,NA
1d6a3,deep,flow.Sequence,1_14_0,NA,NA,completion,4468.6,104419,104418.38,104434.18,108902.78,108903,2023-03-21T17:10:04Z,108919.28,Annäherung,maegesho,d,madahili,kujiamini,mapendekezo,NA,NA,NA,NULL,NA,NA,NA,NA,NA,NA,NA,NA,NA,NA,NA,NA,NA,NA,NA,NA,NA,NA,NA
1d6a3,task,flow.Sequence,1_14,NA,NA,completion,4468.6,104419,104418.38,104434.18,108902.78,108904,2023-03-21T17:10:04Z,108919.28,Annäherung,maegesho,d,madahili,kujiamini,mapendekezo,NA,NA,NA,NULL,NA,NA,NA,NA,NA,NA,NA,NA,NA,NA,NA,NA,NA,NA,NA,NA,NA,NA,NA
1d6a3,Deep Question,html.Page,1_15_0_0,NA,NA,form submission,5681.72,108904,108902.78,108919.28,114601,114601,2023-03-21T17:10:10Z,114600.22,Symbol,kielezo,d,kinyume,nderemo,utayari,a,NA,NA,NULL,NA,NA,NA,NA,NA,NA,NA,NA,NA,NA,NA,NA,NA,NA,NA,NA,NA,NA,NA
1d6a3,Save data screen,canvas.Screen,1_15_0_1,NA,NA,timeout,493.60000000001,114602,114599.94,114600.22,115078.32,115079,2023-03-21T17:10:10Z,115093.82,Symbol,kielezo,d,kinyume,nderemo,utayari,NA,NA,0,NULL,NA,NA,NA,NA,NA,NA,NA,NA,NA,NA,NA,NA,NA,NA,NA,NA,NA,NA,NA
1d6a3,deep,flow.Sequence,1_15_0,NA,NA,completion,6159.04,108904,108902.78,108919.28,115078.32,115079,2023-03-21T17:10:10Z,115093.82,Symbol,kielezo,d,kinyume,nderemo,utayari,NA,NA,NA,NULL,NA,NA,NA,NA,NA,NA,NA,NA,NA,NA,NA,NA,NA,NA,NA,NA,NA,NA,NA
1d6a3,task,flow.Sequence,1_15,NA,NA,completion,6159.04,108904,108902.78,108919.28,115078.32,115080,2023-03-21T17:10:10Z,115093.82,Symbol,kielezo,d,kinyume,nderemo,utayari,NA,NA,NA,NULL,NA,NA,NA,NA,NA,NA,NA,NA,NA,NA,NA,NA,NA,NA,NA,NA,NA,NA,NA
1d6a3,retrieval block 1 (cued recall),flow.Loop,1,NA,NA,completion,91300.52,23776,23777.36,23777.8,115078.32,115080,2023-03-21T17:10:10Z,115093.82,NA,NA,NA,NA,NA,NA,NA,NA,NA,NULL,NA,NA,NA,NA,NA,NA,NA,NA,NA,NA,NA,NA,NA,NA,NA,NA,NA,NA,NA
1d6a3,Shallow Question,html.Page,2_0_0_0,NA,NA,form submission,7547.18,115080,115078.32,115093.82,122641,122641,2023-03-21T17:10:18Z,122639.92,Ausschluss,kutengwa,s,ununuzi,taratibu,madeni,kutengwa,NA,NA,"c(""distractor1"", ""distractor2"", ""distractor3"")",NA,NA,NA,NA,NA,NA,NA,NA,NA,NA,NA,NA,NA,NA,NA,NA,NA,NA,NA
1d6a3,Save data screen,canvas.Screen,2_0_0_1,NA,NA,timeout,501.22,122642,122639.56,122639.92,123124.74,123126,2023-03-21T17:10:18Z,123141.14,Ausschluss,kutengwa,s,ununuzi,taratibu,madeni,NA,NA,1,"c(""distractor1"", ""distractor2"", ""distractor3"")",NA,NA,NA,NA,NA,NA,NA,NA,NA,NA,NA,NA,NA,NA,NA,NA,NA,NA,NA
1d6a3,shallow,flow.Sequence,2_0_0,NA,NA,completion,8030.92,115080,115078.32,115093.82,123124.74,123126,2023-03-21T17:10:18Z,123141.14,Ausschluss,kutengwa,s,ununuzi,taratibu,madeni,NA,NA,NA,"c(""distractor1"", ""distractor2"", ""distractor3"")",NA,NA,NA,NA,NA,NA,NA,NA,NA,NA,NA,NA,NA,NA,NA,NA,NA,NA,NA
1d6a3,task,flow.Sequence,2_0,NA,NA,completion,8030.92,115080,115078.32,115093.82,123124.74,123126,2023-03-21T17:10:18Z,123141.14,Ausschluss,kutengwa,s,ununuzi,taratibu,madeni,NA,NA,NA,"c(""distractor1"", ""distractor2"", ""distractor3"")",NA,NA,NA,NA,NA,NA,NA,NA,NA,NA,NA,NA,NA,NA,NA,NA,NA,NA,NA
1d6a3,Shallow Question,html.Page,2_1_0_0,NA,NA,form submission,3661.86,123126,123124.74,123141.14,126803,126804,2023-03-21T17:10:22Z,126802.72,Widerstand,usulubu,d,kusababisha,mwalimu,mwenendo,usulubu,NA,NA,"c(""distractor1"", ""distractor2"", ""distractor3"")",NA,NA,NA,NA,NA,NA,NA,NA,NA,NA,NA,NA,NA,NA,NA,NA,NA,NA,NA
1d6a3,Save data screen,canvas.Screen,2_1_0_1,NA,NA,timeout,506,126804,126802.48,126802.72,127291.94,127293,2023-03-21T17:10:22Z,127308.72,Widerstand,usulubu,d,kusababisha,mwalimu,mwenendo,NA,NA,1,"c(""distractor1"", ""distractor2"", ""distractor3"")",NA,NA,NA,NA,NA,NA,NA,NA,NA,NA,NA,NA,NA,NA,NA,NA,NA,NA,NA
1d6a3,shallow,flow.Sequence,2_1_0,NA,NA,completion,4150.8,123126,123124.74,123141.14,127291.94,127293,2023-03-21T17:10:22Z,127308.72,Widerstand,usulubu,d,kusababisha,mwalimu,mwenendo,NA,NA,NA,"c(""distractor1"", ""distractor2"", ""distractor3"")",NA,NA,NA,NA,NA,NA,NA,NA,NA,NA,NA,NA,NA,NA,NA,NA,NA,NA,NA
1d6a3,task,flow.Sequence,2_1,NA,NA,completion,4150.8,123126,123124.74,123141.14,127291.94,127293,2023-03-21T17:10:22Z,127308.72,Widerstand,usulubu,d,kusababisha,mwalimu,mwenendo,NA,NA,NA,"c(""distractor1"", ""distractor2"", ""distractor3"")",NA,NA,NA,NA,NA,NA,NA,NA,NA,NA,NA,NA,NA,NA,NA,NA,NA,NA,NA
1d6a3,Shallow Question,html.Page,2_2_0_0,NA,NA,form submission,4890.28,127293,127291.94,127308.72,132199,132199,2023-03-21T17:10:27Z,132198.88,Symbol,kielezo,d,kinyume,nderemo,utayari,utayari,NA,NA,"c(""distractor1"", ""distractor2"", ""distractor3"")",NA,NA,NA,NA,NA,NA,NA,NA,NA,NA,NA,NA,NA,NA,NA,NA,NA,NA,NA
1d6a3,Save data screen,canvas.Screen,2_2_0_1,NA,NA,timeout,500.19999999998,132200,132198.64,132198.88,132682.9,132684,2023-03-21T17:10:28Z,132699.08,Symbol,kielezo,d,kinyume,nderemo,utayari,NA,NA,0,"c(""distractor1"", ""distractor2"", ""distractor3"")",NA,NA,NA,NA,NA,NA,NA,NA,NA,NA,NA,NA,NA,NA,NA,NA,NA,NA,NA
1d6a3,shallow,flow.Sequence,2_2_0,NA,NA,completion,5374.18,127293,127291.94,127308.72,132682.9,132684,2023-03-21T17:10:28Z,132699.08,Symbol,kielezo,d,kinyume,nderemo,utayari,NA,NA,NA,"c(""distractor1"", ""distractor2"", ""distractor3"")",NA,NA,NA,NA,NA,NA,NA,NA,NA,NA,NA,NA,NA,NA,NA,NA,NA,NA,NA
1d6a3,task,flow.Sequence,2_2,NA,NA,completion,5374.18,127293,127291.94,127308.72,132682.9,132684,2023-03-21T17:10:28Z,132699.08,Symbol,kielezo,d,kinyume,nderemo,utayari,NA,NA,NA,"c(""distractor1"", ""distractor2"", ""distractor3"")",NA,NA,NA,NA,NA,NA,NA,NA,NA,NA,NA,NA,NA,NA,NA,NA,NA,NA,NA
1d6a3,Shallow Question,html.Page,2_3_0_0,NA,NA,form submission,12027.92,132684,132682.9,132699.08,144727,144728,2023-03-21T17:10:40Z,144725.4,Vorsorge,tahadhari,s,ufafanuzi,makini,mashambani,tahadhari,NA,NA,"c(""distractor1"", ""distractor2"", ""distractor3"")",NA,NA,NA,NA,NA,NA,NA,NA,NA,NA,NA,NA,NA,NA,NA,NA,NA,NA,NA
1d6a3,Save data screen,canvas.Screen,2_3_0_1,NA,NA,timeout,504.86000000002,144732,144725,144725.4,145212.94,145214,2023-03-21T17:10:40Z,145230.26,Vorsorge,tahadhari,s,ufafanuzi,makini,mashambani,NA,NA,1,"c(""distractor1"", ""distractor2"", ""distractor3"")",NA,NA,NA,NA,NA,NA,NA,NA,NA,NA,NA,NA,NA,NA,NA,NA,NA,NA,NA
1d6a3,shallow,flow.Sequence,2_3_0,NA,NA,completion,12513.86,132684,132682.9,132699.08,145212.94,145214,2023-03-21T17:10:40Z,145230.26,Vorsorge,tahadhari,s,ufafanuzi,makini,mashambani,NA,NA,NA,"c(""distractor1"", ""distractor2"", ""distractor3"")",NA,NA,NA,NA,NA,NA,NA,NA,NA,NA,NA,NA,NA,NA,NA,NA,NA,NA,NA
1d6a3,task,flow.Sequence,2_3,NA,NA,completion,12513.86,132684,132682.9,132699.08,145212.94,145215,2023-03-21T17:10:40Z,145230.26,Vorsorge,tahadhari,s,ufafanuzi,makini,mashambani,NA,NA,NA,"c(""distractor1"", ""distractor2"", ""distractor3"")",NA,NA,NA,NA,NA,NA,NA,NA,NA,NA,NA,NA,NA,NA,NA,NA,NA,NA,NA
1d6a3,Shallow Question,html.Page,2_4_0_0,NA,NA,form submission,4623.74,145215,145212.94,145230.26,149854,149855,2023-03-21T17:10:45Z,149853.58,Wettbewerb,ushindani,s,mapendezi,kichocheo,ubaguzi,ushindani,NA,NA,"c(""distractor1"", ""distractor2"", ""distractor3"")",NA,NA,NA,NA,NA,NA,NA,NA,NA,NA,NA,NA,NA,NA,NA,NA,NA,NA,NA
1d6a3,Save data screen,canvas.Screen,2_4_0_1,NA,NA,timeout,496.64000000001,149856,149853.32,149853.58,150333,150334,2023-03-21T17:10:45Z,150350.22,Wettbewerb,ushindani,s,mapendezi,kichocheo,ubaguzi,NA,NA,1,"c(""distractor1"", ""distractor2"", ""distractor3"")",NA,NA,NA,NA,NA,NA,NA,NA,NA,NA,NA,NA,NA,NA,NA,NA,NA,NA,NA
1d6a3,shallow,flow.Sequence,2_4_0,NA,NA,completion,5102.74,145215,145212.94,145230.26,150333,150334,2023-03-21T17:10:45Z,150350.22,Wettbewerb,ushindani,s,mapendezi,kichocheo,ubaguzi,NA,NA,NA,"c(""distractor1"", ""distractor2"", ""distractor3"")",NA,NA,NA,NA,NA,NA,NA,NA,NA,NA,NA,NA,NA,NA,NA,NA,NA,NA,NA
1d6a3,task,flow.Sequence,2_4,NA,NA,completion,5102.74,145215,145212.94,145230.26,150333,150334,2023-03-21T17:10:45Z,150350.22,Wettbewerb,ushindani,s,mapendezi,kichocheo,ubaguzi,NA,NA,NA,"c(""distractor1"", ""distractor2"", ""distractor3"")",NA,NA,NA,NA,NA,NA,NA,NA,NA,NA,NA,NA,NA,NA,NA,NA,NA,NA,NA
1d6a3,Shallow Question,html.Page,2_5_0_0,NA,NA,form submission,7185.78,150335,150333,150350.22,157536,157536,2023-03-21T17:10:53Z,157535.22,Annäherung,maegesho,d,madahili,kujiamini,mapendekezo,maegesho,NA,NA,"c(""distractor1"", ""distractor2"", ""distractor3"")",NA,NA,NA,NA,NA,NA,NA,NA,NA,NA,NA,NA,NA,NA,NA,NA,NA,NA,NA
1d6a3,Save data screen,canvas.Screen,2_5_0_1,NA,NA,timeout,502.28,157538,157535,157535.22,158021.6,158022,2023-03-21T17:10:53Z,158037.5,Annäherung,maegesho,d,madahili,kujiamini,mapendekezo,NA,NA,1,"c(""distractor1"", ""distractor2"", ""distractor3"")",NA,NA,NA,NA,NA,NA,NA,NA,NA,NA,NA,NA,NA,NA,NA,NA,NA,NA,NA
1d6a3,shallow,flow.Sequence,2_5_0,NA,NA,completion,7671.38,150335,150333,150350.22,158021.6,158023,2023-03-21T17:10:53Z,158037.5,Annäherung,maegesho,d,madahili,kujiamini,mapendekezo,NA,NA,NA,"c(""distractor1"", ""distractor2"", ""distractor3"")",NA,NA,NA,NA,NA,NA,NA,NA,NA,NA,NA,NA,NA,NA,NA,NA,NA,NA,NA
1d6a3,task,flow.Sequence,2_5,NA,NA,completion,7671.38,150335,150333,150350.22,158021.6,158023,2023-03-21T17:10:53Z,158037.5,Annäherung,maegesho,d,madahili,kujiamini,mapendekezo,NA,NA,NA,"c(""distractor1"", ""distractor2"", ""distractor3"")",NA,NA,NA,NA,NA,NA,NA,NA,NA,NA,NA,NA,NA,NA,NA,NA,NA,NA,NA
1d6a3,Shallow Question,html.Page,2_6_0_0,NA,NA,form submission,6122.5,158023,158021.6,158037.5,164160,164160,2023-03-21T17:10:59Z,164159.2,Konkurrent,mshindani,s,msemaji,mvutaji,kipukusa,mshindani,NA,NA,"c(""distractor1"", ""distractor2"", ""distractor3"")",NA,NA,NA,NA,NA,NA,NA,NA,NA,NA,NA,NA,NA,NA,NA,NA,NA,NA,NA
1d6a3,Save data screen,canvas.Screen,2_6_0_1,NA,NA,timeout,503.07999999999,164161,164158.92,164159.2,164645.24,164645,2023-03-21T17:11:00Z,164662.28,Konkurrent,mshindani,s,msemaji,mvutaji,kipukusa,NA,NA,1,"c(""distractor1"", ""distractor2"", ""distractor3"")",NA,NA,NA,NA,NA,NA,NA,NA,NA,NA,NA,NA,NA,NA,NA,NA,NA,NA,NA
1d6a3,shallow,flow.Sequence,2_6_0,NA,NA,completion,6607.74,158023,158021.6,158037.5,164645.24,164646,2023-03-21T17:11:00Z,164662.28,Konkurrent,mshindani,s,msemaji,mvutaji,kipukusa,NA,NA,NA,"c(""distractor1"", ""distractor2"", ""distractor3"")",NA,NA,NA,NA,NA,NA,NA,NA,NA,NA,NA,NA,NA,NA,NA,NA,NA,NA,NA
1d6a3,task,flow.Sequence,2_6,NA,NA,completion,6607.74,158023,158021.6,158037.5,164645.24,164646,2023-03-21T17:11:00Z,164662.28,Konkurrent,mshindani,s,msemaji,mvutaji,kipukusa,NA,NA,NA,"c(""distractor1"", ""distractor2"", ""distractor3"")",NA,NA,NA,NA,NA,NA,NA,NA,NA,NA,NA,NA,NA,NA,NA,NA,NA,NA,NA
1d6a3,Shallow Question,html.Page,2_7_0_0,NA,NA,form submission,4085.72,164646,164645.24,164662.28,168748,168748,2023-03-21T17:11:04Z,168747.36,Sympathie,mapendano,d,dhamiria,fungamano,maazimio,mapendano,NA,NA,"c(""distractor1"", ""distractor2"", ""distractor3"")",NA,NA,NA,NA,NA,NA,NA,NA,NA,NA,NA,NA,NA,NA,NA,NA,NA,NA,NA
1d6a3,Save data screen,canvas.Screen,2_7_0_1,NA,NA,timeout,501.06000000003,168750,168747.06,168747.36,169232.56,169233,2023-03-21T17:11:04Z,169248.42,Sympathie,mapendano,d,dhamiria,fungamano,maazimio,NA,NA,1,"c(""distractor1"", ""distractor2"", ""distractor3"")",NA,NA,NA,NA,NA,NA,NA,NA,NA,NA,NA,NA,NA,NA,NA,NA,NA,NA,NA
1d6a3,shallow,flow.Sequence,2_7_0,NA,NA,completion,4570.28,164646,164645.24,164662.28,169232.56,169233,2023-03-21T17:11:04Z,169248.42,Sympathie,mapendano,d,dhamiria,fungamano,maazimio,NA,NA,NA,"c(""distractor1"", ""distractor2"", ""distractor3"")",NA,NA,NA,NA,NA,NA,NA,NA,NA,NA,NA,NA,NA,NA,NA,NA,NA,NA,NA
1d6a3,task,flow.Sequence,2_7,NA,NA,completion,4570.28,164646,164645.24,164662.28,169232.56,169233,2023-03-21T17:11:04Z,169248.42,Sympathie,mapendano,d,dhamiria,fungamano,maazimio,NA,NA,NA,"c(""distractor1"", ""distractor2"", ""distractor3"")",NA,NA,NA,NA,NA,NA,NA,NA,NA,NA,NA,NA,NA,NA,NA,NA,NA,NA,NA
1d6a3,Shallow Question,html.Page,2_8_0_0,NA,NA,form submission,11377.58,169233,169232.56,169248.42,180626,180626,2023-03-21T17:11:16Z,180625.92,Gelegenheit,wakati,s,mchanganyiko,kipaumbele,kushuku,wakati,NA,NA,"c(""distractor1"", ""distractor2"", ""distractor3"")",NA,NA,NA,NA,NA,NA,NA,NA,NA,NA,NA,NA,NA,NA,NA,NA,NA,NA,NA
1d6a3,Save data screen,canvas.Screen,2_8_0_1,NA,NA,timeout,498.65999999997,180628,180625.64,180625.92,181107.96,181108,2023-03-21T17:11:16Z,181124.58,Gelegenheit,wakati,s,mchanganyiko,kipaumbele,kushuku,NA,NA,1,"c(""distractor1"", ""distractor2"", ""distractor3"")",NA,NA,NA,NA,NA,NA,NA,NA,NA,NA,NA,NA,NA,NA,NA,NA,NA,NA,NA
1d6a3,shallow,flow.Sequence,2_8_0,NA,NA,completion,11859.54,169233,169232.56,169248.42,181107.96,181109,2023-03-21T17:11:16Z,181124.58,Gelegenheit,wakati,s,mchanganyiko,kipaumbele,kushuku,NA,NA,NA,"c(""distractor1"", ""distractor2"", ""distractor3"")",NA,NA,NA,NA,NA,NA,NA,NA,NA,NA,NA,NA,NA,NA,NA,NA,NA,NA,NA
1d6a3,task,flow.Sequence,2_8,NA,NA,completion,11859.54,169233,169232.56,169248.42,181107.96,181109,2023-03-21T17:11:16Z,181124.58,Gelegenheit,wakati,s,mchanganyiko,kipaumbele,kushuku,NA,NA,NA,"c(""distractor1"", ""distractor2"", ""distractor3"")",NA,NA,NA,NA,NA,NA,NA,NA,NA,NA,NA,NA,NA,NA,NA,NA,NA,NA,NA
1d6a3,Shallow Question,html.Page,2_9_0_0,NA,NA,form submission,3822.42,181109,181107.96,181124.58,184947,184948,2023-03-21T17:11:20Z,184946.74,Zuwachs,nyongeza,d,matilaba,udhibiti,hudhurio,udhibiti,NA,NA,"c(""distractor1"", ""distractor2"", ""distractor3"")",NA,NA,NA,NA,NA,NA,NA,NA,NA,NA,NA,NA,NA,NA,NA,NA,NA,NA,NA
1d6a3,Save data screen,canvas.Screen,2_9_0_1,NA,NA,timeout,502.06,184949,184946.5,184946.74,185432.82,185433,2023-03-21T17:11:21Z,185448.8,Zuwachs,nyongeza,d,matilaba,udhibiti,hudhurio,NA,NA,0,"c(""distractor1"", ""distractor2"", ""distractor3"")",NA,NA,NA,NA,NA,NA,NA,NA,NA,NA,NA,NA,NA,NA,NA,NA,NA,NA,NA
1d6a3,shallow,flow.Sequence,2_9_0,NA,NA,completion,4308.24,181109,181107.96,181124.58,185432.82,185434,2023-03-21T17:11:21Z,185448.8,Zuwachs,nyongeza,d,matilaba,udhibiti,hudhurio,NA,NA,NA,"c(""distractor1"", ""distractor2"", ""distractor3"")",NA,NA,NA,NA,NA,NA,NA,NA,NA,NA,NA,NA,NA,NA,NA,NA,NA,NA,NA
1d6a3,task,flow.Sequence,2_9,NA,NA,completion,4308.24,181109,181107.96,181124.58,185432.82,185434,2023-03-21T17:11:21Z,185448.8,Zuwachs,nyongeza,d,matilaba,udhibiti,hudhurio,NA,NA,NA,"c(""distractor1"", ""distractor2"", ""distractor3"")",NA,NA,NA,NA,NA,NA,NA,NA,NA,NA,NA,NA,NA,NA,NA,NA,NA,NA,NA
1d6a3,Shallow Question,html.Page,2_10_0_0,NA,NA,form submission,13041.2,185434,185432.82,185448.8,198490,198490,2023-03-21T17:11:34Z,198489.88,Auftrag,uagizaji,s,ghanima,kuzingatia,msukani,uagizaji,NA,NA,"c(""distractor1"", ""distractor2"", ""distractor3"")",NA,NA,NA,NA,NA,NA,NA,NA,NA,NA,NA,NA,NA,NA,NA,NA,NA,NA,NA
1d6a3,Save data screen,canvas.Screen,2_10_0_1,NA,NA,timeout,504.76000000001,198492,198489.64,198489.88,198978.12,198978,2023-03-21T17:11:34Z,198994.64,Auftrag,uagizaji,s,ghanima,kuzingatia,msukani,NA,NA,1,"c(""distractor1"", ""distractor2"", ""distractor3"")",NA,NA,NA,NA,NA,NA,NA,NA,NA,NA,NA,NA,NA,NA,NA,NA,NA,NA,NA
1d6a3,shallow,flow.Sequence,2_10_0,NA,NA,completion,13529.32,185434,185432.82,185448.8,198978.12,198979,2023-03-21T17:11:34Z,198994.64,Auftrag,uagizaji,s,ghanima,kuzingatia,msukani,NA,NA,NA,"c(""distractor1"", ""distractor2"", ""distractor3"")",NA,NA,NA,NA,NA,NA,NA,NA,NA,NA,NA,NA,NA,NA,NA,NA,NA,NA,NA
1d6a3,task,flow.Sequence,2_10,NA,NA,completion,13529.32,185434,185432.82,185448.8,198978.12,198979,2023-03-21T17:11:34Z,198994.64,Auftrag,uagizaji,s,ghanima,kuzingatia,msukani,NA,NA,NA,"c(""distractor1"", ""distractor2"", ""distractor3"")",NA,NA,NA,NA,NA,NA,NA,NA,NA,NA,NA,NA,NA,NA,NA,NA,NA,NA,NA
1d6a3,Shallow Question,html.Page,2_11_0_0,NA,NA,form submission,2685.36,198979,198978.12,198994.64,201680,201680,2023-03-21T17:11:37Z,201679.74,Polizist,msongora,s,simanzi,mandhari,nidhamu,msongora,NA,NA,"c(""distractor1"", ""distractor2"", ""distractor3"")",NA,NA,NA,NA,NA,NA,NA,NA,NA,NA,NA,NA,NA,NA,NA,NA,NA,NA,NA
1d6a3,Save data screen,canvas.Screen,2_11_0_1,NA,NA,timeout,497.44,201682,201679.5,201679.74,202159.9,202161,2023-03-21T17:11:37Z,202177.18,Polizist,msongora,s,simanzi,mandhari,nidhamu,NA,NA,1,"c(""distractor1"", ""distractor2"", ""distractor3"")",NA,NA,NA,NA,NA,NA,NA,NA,NA,NA,NA,NA,NA,NA,NA,NA,NA,NA,NA
1d6a3,shallow,flow.Sequence,2_11_0,NA,NA,completion,3165.26,198979,198978.12,198994.64,202159.9,202161,2023-03-21T17:11:37Z,202177.18,Polizist,msongora,s,simanzi,mandhari,nidhamu,NA,NA,NA,"c(""distractor1"", ""distractor2"", ""distractor3"")",NA,NA,NA,NA,NA,NA,NA,NA,NA,NA,NA,NA,NA,NA,NA,NA,NA,NA,NA
1d6a3,task,flow.Sequence,2_11,NA,NA,completion,3165.26,198979,198978.12,198994.64,202159.9,202162,2023-03-21T17:11:37Z,202177.18,Polizist,msongora,s,simanzi,mandhari,nidhamu,NA,NA,NA,"c(""distractor1"", ""distractor2"", ""distractor3"")",NA,NA,NA,NA,NA,NA,NA,NA,NA,NA,NA,NA,NA,NA,NA,NA,NA,NA,NA
1d6a3,Shallow Question,html.Page,2_12_0_0,NA,NA,form submission,7503.82,202162,202159.9,202177.18,209681,209681,2023-03-21T17:11:45Z,209680,Verstand,ufahamivu,d,shakawa,hadhari,mhandisi,ufahamivu,NA,NA,"c(""distractor1"", ""distractor2"", ""distractor3"")",NA,NA,NA,NA,NA,NA,NA,NA,NA,NA,NA,NA,NA,NA,NA,NA,NA,NA,NA
1d6a3,Save data screen,canvas.Screen,2_12_0_1,NA,NA,timeout,499.84,209681,209679.76,209680,210162.2,210163,2023-03-21T17:11:45Z,210179.84,Verstand,ufahamivu,d,shakawa,hadhari,mhandisi,NA,NA,1,"c(""distractor1"", ""distractor2"", ""distractor3"")",NA,NA,NA,NA,NA,NA,NA,NA,NA,NA,NA,NA,NA,NA,NA,NA,NA,NA,NA
1d6a3,shallow,flow.Sequence,2_12_0,NA,NA,completion,7985.02,202162,202159.9,202177.18,210162.2,210163,2023-03-21T17:11:45Z,210179.84,Verstand,ufahamivu,d,shakawa,hadhari,mhandisi,NA,NA,NA,"c(""distractor1"", ""distractor2"", ""distractor3"")",NA,NA,NA,NA,NA,NA,NA,NA,NA,NA,NA,NA,NA,NA,NA,NA,NA,NA,NA
1d6a3,task,flow.Sequence,2_12,NA,NA,completion,7985.02,202162,202159.9,202177.18,210162.2,210163,2023-03-21T17:11:45Z,210179.84,Verstand,ufahamivu,d,shakawa,hadhari,mhandisi,NA,NA,NA,"c(""distractor1"", ""distractor2"", ""distractor3"")",NA,NA,NA,NA,NA,NA,NA,NA,NA,NA,NA,NA,NA,NA,NA,NA,NA,NA,NA
1d6a3,Shallow Question,html.Page,2_13_0_0,NA,NA,form submission,8826.16,210163,210162.2,210179.84,219006,219006,2023-03-21T17:11:54Z,219005.32,Beweis,ushahidi,s,marudio,kizuizi,mtendaji,mtendaji,NA,NA,"c(""distractor1"", ""distractor2"", ""distractor3"")",NA,NA,NA,NA,NA,NA,NA,NA,NA,NA,NA,NA,NA,NA,NA,NA,NA,NA,NA
1d6a3,Save data screen,canvas.Screen,2_13_0_1,NA,NA,timeout,502.82000000001,219008,219005.06,219005.32,219492.26,219494,2023-03-21T17:11:55Z,219508.14,Beweis,ushahidi,s,marudio,kizuizi,mtendaji,NA,NA,0,"c(""distractor1"", ""distractor2"", ""distractor3"")",NA,NA,NA,NA,NA,NA,NA,NA,NA,NA,NA,NA,NA,NA,NA,NA,NA,NA,NA
1d6a3,shallow,flow.Sequence,2_13_0,NA,NA,completion,9312.42,210163,210162.2,210179.84,219492.26,219495,2023-03-21T17:11:55Z,219508.14,Beweis,ushahidi,s,marudio,kizuizi,mtendaji,NA,NA,NA,"c(""distractor1"", ""distractor2"", ""distractor3"")",NA,NA,NA,NA,NA,NA,NA,NA,NA,NA,NA,NA,NA,NA,NA,NA,NA,NA,NA
1d6a3,task,flow.Sequence,2_13,NA,NA,completion,9312.42,210163,210162.2,210179.84,219492.26,219495,2023-03-21T17:11:55Z,219508.14,Beweis,ushahidi,s,marudio,kizuizi,mtendaji,NA,NA,NA,"c(""distractor1"", ""distractor2"", ""distractor3"")",NA,NA,NA,NA,NA,NA,NA,NA,NA,NA,NA,NA,NA,NA,NA,NA,NA,NA,NA
1d6a3,Shallow Question,html.Page,2_14_0_0,NA,NA,form submission,2056.86,219495,219492.26,219508.14,221565,221565,2023-03-21T17:11:57Z,221563.92,Schönheit,kirembo,d,mahojiano,msisimko,jitihadi,kirembo,NA,NA,"c(""distractor1"", ""distractor2"", ""distractor3"")",NA,NA,NA,NA,NA,NA,NA,NA,NA,NA,NA,NA,NA,NA,NA,NA,NA,NA,NA
1d6a3,Save data screen,canvas.Screen,2_14_0_1,NA,NA,timeout,490.91999999998,221568,221563.64,221563.92,222038.18,222039,2023-03-21T17:11:57Z,222054.84,Schönheit,kirembo,d,mahojiano,msisimko,jitihadi,NA,NA,1,"c(""distractor1"", ""distractor2"", ""distractor3"")",NA,NA,NA,NA,NA,NA,NA,NA,NA,NA,NA,NA,NA,NA,NA,NA,NA,NA,NA
1d6a3,shallow,flow.Sequence,2_14_0,NA,NA,completion,2530.04,219495,219492.26,219508.14,222038.18,222040,2023-03-21T17:11:57Z,222054.84,Schönheit,kirembo,d,mahojiano,msisimko,jitihadi,NA,NA,NA,"c(""distractor1"", ""distractor2"", ""distractor3"")",NA,NA,NA,NA,NA,NA,NA,NA,NA,NA,NA,NA,NA,NA,NA,NA,NA,NA,NA
1d6a3,task,flow.Sequence,2_14,NA,NA,completion,2530.04,219495,219492.26,219508.14,222038.18,222040,2023-03-21T17:11:57Z,222054.84,Schönheit,kirembo,d,mahojiano,msisimko,jitihadi,NA,NA,NA,"c(""distractor1"", ""distractor2"", ""distractor3"")",NA,NA,NA,NA,NA,NA,NA,NA,NA,NA,NA,NA,NA,NA,NA,NA,NA,NA,NA
1d6a3,Shallow Question,html.Page,2_15_0_0,NA,NA,form submission,9798.16,222040,222038.18,222054.84,231853,231854,2023-03-21T17:12:07Z,231851.76,Zufall,kikuti,d,kukosekana,uchoraji,leseni,kikuti,NA,NA,"c(""distractor1"", ""distractor2"", ""distractor3"")",NA,NA,NA,NA,NA,NA,NA,NA,NA,NA,NA,NA,NA,NA,NA,NA,NA,NA,NA
1d6a3,Save data screen,canvas.Screen,2_15_0_1,NA,NA,timeout,494.39999999999,231857,231851.46,231851.76,232330.54,232331,2023-03-21T17:12:07Z,232346.16,Zufall,kikuti,d,kukosekana,uchoraji,leseni,NA,NA,1,"c(""distractor1"", ""distractor2"", ""distractor3"")",NA,NA,NA,NA,NA,NA,NA,NA,NA,NA,NA,NA,NA,NA,NA,NA,NA,NA,NA
1d6a3,shallow,flow.Sequence,2_15_0,NA,NA,completion,10275.7,222040,222038.18,222054.84,232330.54,232332,2023-03-21T17:12:07Z,232346.16,Zufall,kikuti,d,kukosekana,uchoraji,leseni,NA,NA,NA,"c(""distractor1"", ""distractor2"", ""distractor3"")",NA,NA,NA,NA,NA,NA,NA,NA,NA,NA,NA,NA,NA,NA,NA,NA,NA,NA,NA
1d6a3,task,flow.Sequence,2_15,NA,NA,completion,10275.7,222040,222038.18,222054.84,232330.54,232333,2023-03-21T17:12:07Z,232346.16,Zufall,kikuti,d,kukosekana,uchoraji,leseni,NA,NA,NA,"c(""distractor1"", ""distractor2"", ""distractor3"")",NA,NA,NA,NA,NA,NA,NA,NA,NA,NA,NA,NA,NA,NA,NA,NA,NA,NA,NA
1d6a3,retrieval block 2 (multiple choice),flow.Loop,2,NA,NA,completion,117236.72,115080,115078.32,115093.82,232330.54,232333,2023-03-21T17:12:07Z,232346.16,NA,NA,NA,NA,NA,NA,NA,NA,NA,"c(""distractor1"", ""distractor2"", ""distractor3"")",NA,NA,NA,NA,NA,NA,NA,NA,NA,NA,NA,NA,NA,NA,NA,NA,NA,NA,NA
1d6a3,End,canvas.Screen,3,NA,keypress(Space),response,1389.84,232333,232330.54,232346.16,233736,233742,2023-03-21T17:12:09Z,233742.94,NA,NA,NA,NA,NA,NA,NA,NA,NA,NULL,NA,NA,NA,NA,NA,NA,NA,NA,NA,NA,NA,NA,NA,NA,NA,NA,NA,NA,NA
1d6a3,root,flow.Sequence,NA,NA,NA,completion,232724.28,818,895,1011.72,233736,233743,2023-03-21T17:12:09Z,233742.94,NA,NA,NA,NA,NA,NA,NA,NA,NA,NULL,NA,NA,NA,NA,NA,NA,NA,NA,NA,NA,NA,NA,NA,NA,NA,NA,NA,NA,NA
