observation,sender,sender_type,sender_id,response,response_action,ended_on,duration,time_run,time_render,time_show,time_end,time_commit,timestamp,time_switch,german,swahili,enc,distractor1,distractor2,distractor3,response_2,x,correct,distractors,url_vp,url_sess,meta_labjs_version,meta_location,meta_user_agent,meta_platform,meta_language,meta_locale,meta_time_zone,meta_timezone_offset,meta_screen_width,meta_screen_height,meta_scroll_width,meta_scroll_height,meta_window_inner_width,meta_window_inner_height,meta_device_pixel_ratio,meta_labjs_build_flavor,meta_labjs_build_commit
8c7c2,Introduction delayed retrieval,canvas.Screen,0,weiter,keypress(Space),response,5947.0999994278,418.39999961853,406.792,423.5,6370.5999994278,6373.1999998093,2024-04-15T13:14:38Z,6373.6,NA,NA,NA,NA,NA,NA,NA,NA,NA,NULL,156,4,20.2.4,https://neurocog.fernuni.ch/studies/vweber/jbaenninger/delayed/index.html?vp=156&sess=4,"Mozilla/5.0 (Windows NT 10.0; Win64; x64) AppleWebKit/537.36 (KHTML, like Gecko) Chrome/123.0.0.0 Safari/537.36 Edg/123.0.0.0",Win32,de,de-CH,Europe/Zurich,-120,1920,1080,1872,910,1872,958,1,production,f5b4a49f956347addd546a832a3327688c2c0fef
8c7c2,Deep Question,html.Page,1_0_0_0,NA,NA,form submission,31809.099999809,6373.6999998093,6357.2,6373.6,38182.699999809,38183,2024-04-15T13:15:10Z,38190.2,Fenster,dirisha,s,walakini,tasawari,maarifa,gend,NA,NA,NULL,NA,NA,NA,NA,NA,NA,NA,NA,NA,NA,NA,NA,NA,NA,NA,NA,NA,NA,NA
8c7c2,Save data screen,canvas.Screen,1_0_0_1,NA,NA,timeout,500.2,38184.299999237,38173.948,38190.2,38673.7,38674.899999619,2024-04-15T13:15:11Z,38690.4,Fenster,dirisha,s,walakini,tasawari,maarifa,NA,NA,0,NULL,NA,NA,NA,NA,NA,NA,NA,NA,NA,NA,NA,NA,NA,NA,NA,NA,NA,NA,NA
8c7c2,deep,flow.Sequence,1_0_0,NA,NA,completion,32300.1,6373.6999998093,6357.2,6373.6,38673.7,38675.399999619,2024-04-15T13:15:11Z,38690.4,Fenster,dirisha,s,walakini,tasawari,maarifa,NA,NA,NA,NULL,NA,NA,NA,NA,NA,NA,NA,NA,NA,NA,NA,NA,NA,NA,NA,NA,NA,NA,NA
8c7c2,task,flow.Sequence,1_0,NA,NA,completion,32300.1,6373.5999994278,6357.2,6373.6,38673.7,38675.599999428,2024-04-15T13:15:11Z,38690.4,Fenster,dirisha,s,walakini,tasawari,maarifa,NA,NA,NA,NULL,NA,NA,NA,NA,NA,NA,NA,NA,NA,NA,NA,NA,NA,NA,NA,NA,NA,NA,NA
8c7c2,Deep Question,html.Page,1_1_0_0,NA,NA,form submission,13387.799999809,38675.899999619,38673.7,38690.4,52078.199999809,52078.399999619,2024-04-15T13:15:24Z,52090.4,Wohlstand,mafanikio,s,chimbuko,kumbuko,mapwaji,uwand,NA,NA,NULL,NA,NA,NA,NA,NA,NA,NA,NA,NA,NA,NA,NA,NA,NA,NA,NA,NA,NA,NA
8c7c2,Save data screen,canvas.Screen,1_1_0_1,NA,NA,timeout,499.9,52079.099999428,52073.798,52090.4,52573.7,52574.599999428,2024-04-15T13:15:24Z,52590.3,Wohlstand,mafanikio,s,chimbuko,kumbuko,mapwaji,NA,NA,0,NULL,NA,NA,NA,NA,NA,NA,NA,NA,NA,NA,NA,NA,NA,NA,NA,NA,NA,NA,NA
8c7c2,deep,flow.Sequence,1_1_0,NA,NA,completion,13883.3,38675.899999619,38673.7,38690.4,52573.7,52574.899999619,2024-04-15T13:15:24Z,52590.3,Wohlstand,mafanikio,s,chimbuko,kumbuko,mapwaji,NA,NA,NA,NULL,NA,NA,NA,NA,NA,NA,NA,NA,NA,NA,NA,NA,NA,NA,NA,NA,NA,NA,NA
8c7c2,task,flow.Sequence,1_1,NA,NA,completion,13883.3,38675.799999237,38673.7,38690.4,52573.7,52575.199999809,2024-04-15T13:15:24Z,52590.3,Wohlstand,mafanikio,s,chimbuko,kumbuko,mapwaji,NA,NA,NA,NULL,NA,NA,NA,NA,NA,NA,NA,NA,NA,NA,NA,NA,NA,NA,NA,NA,NA,NA,NA
8c7c2,Deep Question,html.Page,1_2_0_0,NA,NA,form submission,10942.2,52575.399999619,52573.7,52590.3,63532.5,63532.699999809,2024-04-15T13:15:35Z,63540.3,Toleranz,kuvumiliana,s,maombolezo,ujasusi,mchekeshaji,ushima,NA,NA,NULL,NA,NA,NA,NA,NA,NA,NA,NA,NA,NA,NA,NA,NA,NA,NA,NA,NA,NA,NA
8c7c2,Save data screen,canvas.Screen,1_2_0_1,NA,NA,timeout,500.1,63534.399999619,63523.784,63540.3,64023.8,64024.699999809,2024-04-15T13:15:36Z,64040.4,Toleranz,kuvumiliana,s,maombolezo,ujasusi,mchekeshaji,NA,NA,0,NULL,NA,NA,NA,NA,NA,NA,NA,NA,NA,NA,NA,NA,NA,NA,NA,NA,NA,NA,NA
8c7c2,deep,flow.Sequence,1_2_0,NA,NA,completion,11433.5,52575.299999237,52573.7,52590.3,64023.8,64025,2024-04-15T13:15:36Z,64040.4,Toleranz,kuvumiliana,s,maombolezo,ujasusi,mchekeshaji,NA,NA,NA,NULL,NA,NA,NA,NA,NA,NA,NA,NA,NA,NA,NA,NA,NA,NA,NA,NA,NA,NA,NA
8c7c2,task,flow.Sequence,1_2,NA,NA,completion,11433.5,52575.299999237,52573.7,52590.3,64023.8,64025.199999809,2024-04-15T13:15:36Z,64040.4,Toleranz,kuvumiliana,s,maombolezo,ujasusi,mchekeshaji,NA,NA,NA,NULL,NA,NA,NA,NA,NA,NA,NA,NA,NA,NA,NA,NA,NA,NA,NA,NA,NA,NA,NA
8c7c2,Deep Question,html.Page,1_3_0_0,NA,NA,form submission,10235.199999428,64025.399999619,64023.8,64040.4,74275.599999428,74275.799999237,2024-04-15T13:15:46Z,74290.3,Ergänzung,kijalizo,s,ulaghai,mustarehe,matangazo,wzande,NA,NA,NULL,NA,NA,NA,NA,NA,NA,NA,NA,NA,NA,NA,NA,NA,NA,NA,NA,NA,NA,NA
8c7c2,Save data screen,canvas.Screen,1_3_0_1,NA,NA,timeout,500.2,74277.599999428,74273.956,74290.3,74773.8,74774.5,2024-04-15T13:15:47Z,74790.5,Ergänzung,kijalizo,s,ulaghai,mustarehe,matangazo,NA,NA,0,NULL,NA,NA,NA,NA,NA,NA,NA,NA,NA,NA,NA,NA,NA,NA,NA,NA,NA,NA,NA
8c7c2,deep,flow.Sequence,1_3_0,NA,NA,completion,10733.4,64025.399999619,64023.8,64040.4,74773.8,74774.799999237,2024-04-15T13:15:47Z,74790.5,Ergänzung,kijalizo,s,ulaghai,mustarehe,matangazo,NA,NA,NA,NULL,NA,NA,NA,NA,NA,NA,NA,NA,NA,NA,NA,NA,NA,NA,NA,NA,NA,NA,NA
8c7c2,task,flow.Sequence,1_3,NA,NA,completion,10733.4,64025.399999619,64023.8,64040.4,74773.8,74775.099999428,2024-04-15T13:15:47Z,74790.5,Ergänzung,kijalizo,s,ulaghai,mustarehe,matangazo,NA,NA,NA,NULL,NA,NA,NA,NA,NA,NA,NA,NA,NA,NA,NA,NA,NA,NA,NA,NA,NA,NA,NA
8c7c2,Deep Question,html.Page,1_4_0_0,NA,NA,form submission,5546.3999996185,74775.199999809,74773.8,74790.5,80336.899999619,80337.199999809,2024-04-15T13:15:52Z,80340.2,Notfall,dharura,d,rairai,malalamiko,ahueni,ogande,NA,NA,NULL,NA,NA,NA,NA,NA,NA,NA,NA,NA,NA,NA,NA,NA,NA,NA,NA,NA,NA,NA
8c7c2,Save data screen,canvas.Screen,1_4_0_1,NA,NA,timeout,500.10000000001,80338.599999428,80323.804,80340.2,80823.6,80824.399999619,2024-04-15T13:15:53Z,80840.3,Notfall,dharura,d,rairai,malalamiko,ahueni,NA,NA,0,NULL,NA,NA,NA,NA,NA,NA,NA,NA,NA,NA,NA,NA,NA,NA,NA,NA,NA,NA,NA
8c7c2,deep,flow.Sequence,1_4_0,NA,NA,completion,6033.1,74775.199999809,74773.8,74790.5,80823.6,80824.699999809,2024-04-15T13:15:53Z,80840.3,Notfall,dharura,d,rairai,malalamiko,ahueni,NA,NA,NA,NULL,NA,NA,NA,NA,NA,NA,NA,NA,NA,NA,NA,NA,NA,NA,NA,NA,NA,NA,NA
8c7c2,task,flow.Sequence,1_4,NA,NA,completion,6033.1,74775.099999428,74773.8,74790.5,80823.6,80824.899999619,2024-04-15T13:15:53Z,80840.3,Notfall,dharura,d,rairai,malalamiko,ahueni,NA,NA,NA,NULL,NA,NA,NA,NA,NA,NA,NA,NA,NA,NA,NA,NA,NA,NA,NA,NA,NA,NA,NA
8c7c2,Deep Question,html.Page,1_5_0_0,NA,NA,form submission,8370.3999998093,80825,80823.6,80840.3,89210.699999809,89210.899999619,2024-04-15T13:16:01Z,89223.6,Tester,wanaojaribu,d,sherti,sihiri,mlipuko,negane,NA,NA,NULL,NA,NA,NA,NA,NA,NA,NA,NA,NA,NA,NA,NA,NA,NA,NA,NA,NA,NA,NA
8c7c2,Save data screen,canvas.Screen,1_5_0_1,NA,NA,timeout,500.2,89212.699999809,89207.176,89223.6,89707,89707.799999237,2024-04-15T13:16:02Z,89723.8,Tester,wanaojaribu,d,sherti,sihiri,mlipuko,NA,NA,0,NULL,NA,NA,NA,NA,NA,NA,NA,NA,NA,NA,NA,NA,NA,NA,NA,NA,NA,NA,NA
8c7c2,deep,flow.Sequence,1_5_0,NA,NA,completion,8866.7,80825,80823.6,80840.3,89707,89708.199999809,2024-04-15T13:16:02Z,89723.8,Tester,wanaojaribu,d,sherti,sihiri,mlipuko,NA,NA,NA,NULL,NA,NA,NA,NA,NA,NA,NA,NA,NA,NA,NA,NA,NA,NA,NA,NA,NA,NA,NA
8c7c2,task,flow.Sequence,1_5,NA,NA,completion,8866.7,80825,80823.6,80840.3,89707,89708.299999237,2024-04-15T13:16:02Z,89723.8,Tester,wanaojaribu,d,sherti,sihiri,mlipuko,NA,NA,NA,NULL,NA,NA,NA,NA,NA,NA,NA,NA,NA,NA,NA,NA,NA,NA,NA,NA,NA,NA,NA
8c7c2,Deep Question,html.Page,1_6_0_0,NA,NA,form submission,6254.7,89708.5,89707,89723.8,95978.5,95978.699999809,2024-04-15T13:16:08Z,95990.3,Schüler,mwanafunzi,d,mwekezaji,matumizi,uaminifu,hedlar,NA,NA,NULL,NA,NA,NA,NA,NA,NA,NA,NA,NA,NA,NA,NA,NA,NA,NA,NA,NA,NA,NA
8c7c2,Save data screen,canvas.Screen,1_6_0_1,NA,NA,timeout,500,95980.299999237,95973.9,95990.3,96473.6,96476.399999619,2024-04-15T13:16:08Z,96490.3,Schüler,mwanafunzi,d,mwekezaji,matumizi,uaminifu,NA,NA,0,NULL,NA,NA,NA,NA,NA,NA,NA,NA,NA,NA,NA,NA,NA,NA,NA,NA,NA,NA,NA
8c7c2,deep,flow.Sequence,1_6_0,NA,NA,completion,6749.8,89708.399999619,89707,89723.8,96473.6,96476.599999428,2024-04-15T13:16:08Z,96490.3,Schüler,mwanafunzi,d,mwekezaji,matumizi,uaminifu,NA,NA,NA,NULL,NA,NA,NA,NA,NA,NA,NA,NA,NA,NA,NA,NA,NA,NA,NA,NA,NA,NA,NA
8c7c2,task,flow.Sequence,1_6,NA,NA,completion,6749.8,89708.399999619,89707,89723.8,96473.6,96476.799999237,2024-04-15T13:16:08Z,96490.3,Schüler,mwanafunzi,d,mwekezaji,matumizi,uaminifu,NA,NA,NA,NULL,NA,NA,NA,NA,NA,NA,NA,NA,NA,NA,NA,NA,NA,NA,NA,NA,NA,NA,NA
8c7c2,Deep Question,html.Page,1_7_0_0,NA,NA,form submission,8913.2999994278,96477,96473.6,96490.3,105403.59999943,105403.79999924,2024-04-15T13:16:17Z,105406.9,Inhalt,yaliyomo,d,kishawishi,hifadhi,kutembea,heshadi,NA,NA,NULL,NA,NA,NA,NA,NA,NA,NA,NA,NA,NA,NA,NA,NA,NA,NA,NA,NA,NA,NA
8c7c2,Save data screen,canvas.Screen,1_7_0_1,NA,NA,timeout,500.20000000001,105405.5,105390.512,105406.9,105890.3,105891,2024-04-15T13:16:18Z,105907.1,Inhalt,yaliyomo,d,kishawishi,hifadhi,kutembea,NA,NA,0,NULL,NA,NA,NA,NA,NA,NA,NA,NA,NA,NA,NA,NA,NA,NA,NA,NA,NA,NA,NA
8c7c2,deep,flow.Sequence,1_7_0,NA,NA,completion,9400,96476.899999619,96473.6,96490.3,105890.3,105891.29999924,2024-04-15T13:16:18Z,105907.1,Inhalt,yaliyomo,d,kishawishi,hifadhi,kutembea,NA,NA,NA,NULL,NA,NA,NA,NA,NA,NA,NA,NA,NA,NA,NA,NA,NA,NA,NA,NA,NA,NA,NA
8c7c2,task,flow.Sequence,1_7,NA,NA,completion,9400,96476.899999619,96473.6,96490.3,105890.3,105891.39999962,2024-04-15T13:16:18Z,105907.1,Inhalt,yaliyomo,d,kishawishi,hifadhi,kutembea,NA,NA,NA,NULL,NA,NA,NA,NA,NA,NA,NA,NA,NA,NA,NA,NA,NA,NA,NA,NA,NA,NA,NA
8c7c2,Deep Question,html.Page,1_8_0_0,NA,NA,form submission,5520.5999998093,105891.59999943,105890.3,105907.1,111427.69999980999,111427.79999924,2024-04-15T13:16:23Z,111440.4,Hoffnung,matarajio,d,kutaalamika,uratibu,mvumbuzi,ushima,NA,NA,NULL,NA,NA,NA,NA,NA,NA,NA,NA,NA,NA,NA,NA,NA,NA,NA,NA,NA,NA,NA
8c7c2,Save data screen,canvas.Screen,1_8_0_1,NA,NA,timeout,500.10000000001,111429.5,111423.76,111440.4,111923.8,111925.39999962,2024-04-15T13:16:24Z,111940.5,Hoffnung,matarajio,d,kutaalamika,uratibu,mvumbuzi,NA,NA,0,NULL,NA,NA,NA,NA,NA,NA,NA,NA,NA,NA,NA,NA,NA,NA,NA,NA,NA,NA,NA
8c7c2,deep,flow.Sequence,1_8_0,NA,NA,completion,6016.7,105891.59999943,105890.3,105907.1,111923.8,111925.69999981,2024-04-15T13:16:24Z,111940.5,Hoffnung,matarajio,d,kutaalamika,uratibu,mvumbuzi,NA,NA,NA,NULL,NA,NA,NA,NA,NA,NA,NA,NA,NA,NA,NA,NA,NA,NA,NA,NA,NA,NA,NA
8c7c2,task,flow.Sequence,1_8,NA,NA,completion,6016.7,105891.5,105890.3,105907.1,111923.8,111925.89999962,2024-04-15T13:16:24Z,111940.5,Hoffnung,matarajio,d,kutaalamika,uratibu,mvumbuzi,NA,NA,NA,NULL,NA,NA,NA,NA,NA,NA,NA,NA,NA,NA,NA,NA,NA,NA,NA,NA,NA,NA,NA
8c7c2,Deep Question,html.Page,1_9_0_0,NA,NA,form submission,13975.099999428,111926.09999943,111923.8,111940.5,125915.59999943,125915.79999924,2024-04-15T13:16:38Z,125923.6,Theorie,nadharia,s,ushungi,mkutano,uwakilishi,hegne,NA,NA,NULL,NA,NA,NA,NA,NA,NA,NA,NA,NA,NA,NA,NA,NA,NA,NA,NA,NA,NA,NA
8c7c2,Save data screen,canvas.Screen,1_9_0_1,NA,NA,timeout,499.89999999999,125917.5,125907.126,125923.6,126407,126409.09999943,2024-04-15T13:16:38Z,126423.5,Theorie,nadharia,s,ushungi,mkutano,uwakilishi,NA,NA,0,NULL,NA,NA,NA,NA,NA,NA,NA,NA,NA,NA,NA,NA,NA,NA,NA,NA,NA,NA,NA
8c7c2,deep,flow.Sequence,1_9_0,NA,NA,completion,14466.5,111926,111923.8,111940.5,126407,126409.5,2024-04-15T13:16:38Z,126423.5,Theorie,nadharia,s,ushungi,mkutano,uwakilishi,NA,NA,NA,NULL,NA,NA,NA,NA,NA,NA,NA,NA,NA,NA,NA,NA,NA,NA,NA,NA,NA,NA,NA
8c7c2,task,flow.Sequence,1_9,NA,NA,completion,14466.5,111926,111923.8,111940.5,126407,126409.59999943,2024-04-15T13:16:38Z,126423.5,Theorie,nadharia,s,ushungi,mkutano,uwakilishi,NA,NA,NA,NULL,NA,NA,NA,NA,NA,NA,NA,NA,NA,NA,NA,NA,NA,NA,NA,NA,NA,NA,NA
8c7c2,Deep Question,html.Page,1_10_0_0,NA,NA,form submission,7585.2999992371,126409.89999962,126407,126423.5,134008.79999924,134008.89999962,2024-04-15T13:16:46Z,134023.8,Vergnügen,kichekesho,d,dubwana,mpanuko,mtesaji,ufende,NA,NA,NULL,NA,NA,NA,NA,NA,NA,NA,NA,NA,NA,NA,NA,NA,NA,NA,NA,NA,NA,NA
8c7c2,Save data screen,canvas.Screen,1_10_0_1,NA,NA,timeout,500,134010.69999981,134007.146,134023.8,134507.1,134507.79999924,2024-04-15T13:16:46Z,134523.8,Vergnügen,kichekesho,d,dubwana,mpanuko,mtesaji,NA,NA,0,NULL,NA,NA,NA,NA,NA,NA,NA,NA,NA,NA,NA,NA,NA,NA,NA,NA,NA,NA,NA
8c7c2,deep,flow.Sequence,1_10_0,NA,NA,completion,8083.6,126409.89999962,126407,126423.5,134507.1,134508.09999943,2024-04-15T13:16:46Z,134523.8,Vergnügen,kichekesho,d,dubwana,mpanuko,mtesaji,NA,NA,NA,NULL,NA,NA,NA,NA,NA,NA,NA,NA,NA,NA,NA,NA,NA,NA,NA,NA,NA,NA,NA
8c7c2,task,flow.Sequence,1_10,NA,NA,completion,8083.6,126409.79999924,126407,126423.5,134507.1,134508.29999924,2024-04-15T13:16:46Z,134523.8,Vergnügen,kichekesho,d,dubwana,mpanuko,mtesaji,NA,NA,NA,NULL,NA,NA,NA,NA,NA,NA,NA,NA,NA,NA,NA,NA,NA,NA,NA,NA,NA,NA,NA
8c7c2,Deep Question,html.Page,1_11_0_0,NA,NA,form submission,5006.7,134508.39999962,134507.1,134523.8,139530.5,139530.69999981,2024-04-15T13:16:51Z,139540.3,Schock,mshtuko,s,biashara,kukataza,vichekesho,hanze,NA,NA,NULL,NA,NA,NA,NA,NA,NA,NA,NA,NA,NA,NA,NA,NA,NA,NA,NA,NA,NA,NA
8c7c2,Save data screen,canvas.Screen,1_11_0_1,NA,NA,timeout,500.10000000001,139532.39999961999,139523.96,139540.3,140023.7,140024.39999962,2024-04-15T13:16:52Z,140040.4,Schock,mshtuko,s,biashara,kukataza,vichekesho,NA,NA,0,NULL,NA,NA,NA,NA,NA,NA,NA,NA,NA,NA,NA,NA,NA,NA,NA,NA,NA,NA,NA
8c7c2,deep,flow.Sequence,1_11_0,NA,NA,completion,5499.9,134508.39999962,134507.1,134523.8,140023.7,140024.59999943,2024-04-15T13:16:52Z,140040.4,Schock,mshtuko,s,biashara,kukataza,vichekesho,NA,NA,NA,NULL,NA,NA,NA,NA,NA,NA,NA,NA,NA,NA,NA,NA,NA,NA,NA,NA,NA,NA,NA
8c7c2,task,flow.Sequence,1_11,NA,NA,completion,5499.9,134508.39999962,134507.1,134523.8,140023.7,140024.89999962,2024-04-15T13:16:52Z,140040.4,Schock,mshtuko,s,biashara,kukataza,vichekesho,NA,NA,NA,NULL,NA,NA,NA,NA,NA,NA,NA,NA,NA,NA,NA,NA,NA,NA,NA,NA,NA,NA,NA
8c7c2,Deep Question,html.Page,1_12_0_0,NA,NA,form submission,5294.1999994278,140025,140023.7,140040.4,145334.59999943,145334.69999981,2024-04-15T13:16:57Z,145340.3,Vermutung,udhanifu,d,haramia,tikisho,itifaki,abende,NA,NA,NULL,NA,NA,NA,NA,NA,NA,NA,NA,NA,NA,NA,NA,NA,NA,NA,NA,NA,NA,NA
8c7c2,Save data screen,canvas.Screen,1_12_0_1,NA,NA,timeout,500,145336.29999924,145323.912,145340.3,145823.8,145824.59999943,2024-04-15T13:16:58Z,145840.3,Vermutung,udhanifu,d,haramia,tikisho,itifaki,NA,NA,0,NULL,NA,NA,NA,NA,NA,NA,NA,NA,NA,NA,NA,NA,NA,NA,NA,NA,NA,NA,NA
8c7c2,deep,flow.Sequence,1_12_0,NA,NA,completion,5783.4,140024.89999962,140023.7,140040.4,145823.8,145824.79999924,2024-04-15T13:16:58Z,145840.3,Vermutung,udhanifu,d,haramia,tikisho,itifaki,NA,NA,NA,NULL,NA,NA,NA,NA,NA,NA,NA,NA,NA,NA,NA,NA,NA,NA,NA,NA,NA,NA,NA
8c7c2,task,flow.Sequence,1_12,NA,NA,completion,5783.4,140024.89999962,140023.7,140040.4,145823.8,145825,2024-04-15T13:16:58Z,145840.3,Vermutung,udhanifu,d,haramia,tikisho,itifaki,NA,NA,NA,NULL,NA,NA,NA,NA,NA,NA,NA,NA,NA,NA,NA,NA,NA,NA,NA,NA,NA,NA,NA
8c7c2,Deep Question,html.Page,1_13_0_0,NA,NA,form submission,5191.2,145825.19999981,145823.8,145840.3,151031.5,151031.59999943,2024-04-15T13:17:03Z,151040.3,Verpackung,ufungaji,d,uhusiano,upimaji,uchunguzi,uzerbe,NA,NA,NULL,NA,NA,NA,NA,NA,NA,NA,NA,NA,NA,NA,NA,NA,NA,NA,NA,NA,NA,NA
8c7c2,Save data screen,canvas.Screen,1_13_0_1,NA,NA,timeout,500.30000000002,151033.39999962,151023.772,151040.3,151523.8,151525.5,2024-04-15T13:17:03Z,151540.6,Verpackung,ufungaji,d,uhusiano,upimaji,uchunguzi,NA,NA,0,NULL,NA,NA,NA,NA,NA,NA,NA,NA,NA,NA,NA,NA,NA,NA,NA,NA,NA,NA,NA
8c7c2,deep,flow.Sequence,1_13_0,NA,NA,completion,5683.5,145825.19999981,145823.8,145840.3,151523.8,151525.69999981,2024-04-15T13:17:03Z,151540.6,Verpackung,ufungaji,d,uhusiano,upimaji,uchunguzi,NA,NA,NA,NULL,NA,NA,NA,NA,NA,NA,NA,NA,NA,NA,NA,NA,NA,NA,NA,NA,NA,NA,NA
8c7c2,task,flow.Sequence,1_13,NA,NA,completion,5683.5,145825,145823.8,145840.3,151523.8,151525.89999962,2024-04-15T13:17:03Z,151540.6,Verpackung,ufungaji,d,uhusiano,upimaji,uchunguzi,NA,NA,NA,NULL,NA,NA,NA,NA,NA,NA,NA,NA,NA,NA,NA,NA,NA,NA,NA,NA,NA,NA,NA
8c7c2,Deep Question,html.Page,1_14_0_0,NA,NA,form submission,5953.7999996185,151526.09999943,151523.8,151540.6,157494.39999961999,157494.59999943,2024-04-15T13:17:09Z,157507,Spionage,upelelezi,s,maslahi,utokazo,magangao,soine,NA,NA,NULL,NA,NA,NA,NA,NA,NA,NA,NA,NA,NA,NA,NA,NA,NA,NA,NA,NA,NA,NA
8c7c2,Save data screen,canvas.Screen,1_14_0_1,NA,NA,timeout,500.10000000001,157496.19999981,157490.606,157507,157990.4,157991.09999943,2024-04-15T13:17:10Z,158007.1,Spionage,upelelezi,s,maslahi,utokazo,magangao,NA,NA,0,NULL,NA,NA,NA,NA,NA,NA,NA,NA,NA,NA,NA,NA,NA,NA,NA,NA,NA,NA,NA
8c7c2,deep,flow.Sequence,1_14_0,NA,NA,completion,6449.8,151526,151523.8,151540.6,157990.4,157991.39999962,2024-04-15T13:17:10Z,158007.1,Spionage,upelelezi,s,maslahi,utokazo,magangao,NA,NA,NA,NULL,NA,NA,NA,NA,NA,NA,NA,NA,NA,NA,NA,NA,NA,NA,NA,NA,NA,NA,NA
8c7c2,task,flow.Sequence,1_14,NA,NA,completion,6449.8,151526,151523.8,151540.6,157990.4,157991.5,2024-04-15T13:17:10Z,158007.1,Spionage,upelelezi,s,maslahi,utokazo,magangao,NA,NA,NA,NULL,NA,NA,NA,NA,NA,NA,NA,NA,NA,NA,NA,NA,NA,NA,NA,NA,NA,NA,NA
8c7c2,Deep Question,html.Page,1_15_0_0,NA,NA,form submission,11301.199999237,157991.69999981,157990.4,158007.1,169308.29999924,169308.5,2024-04-15T13:17:21Z,169323.7,Schlange,foleni,s,uvumilivu,uteuzi,muuzaji,swande,NA,NA,NULL,NA,NA,NA,NA,NA,NA,NA,NA,NA,NA,NA,NA,NA,NA,NA,NA,NA,NA,NA
8c7c2,Save data screen,canvas.Screen,1_15_0_1,NA,NA,timeout,500.09999999998,169310.19999981,169307.16,169323.7,169807.1,169807.89999961999,2024-04-15T13:17:22Z,169823.8,Schlange,foleni,s,uvumilivu,uteuzi,muuzaji,NA,NA,0,NULL,NA,NA,NA,NA,NA,NA,NA,NA,NA,NA,NA,NA,NA,NA,NA,NA,NA,NA,NA
8c7c2,deep,flow.Sequence,1_15_0,NA,NA,completion,11800,157991.59999943,157990.4,158007.1,169807.1,169808.19999981,2024-04-15T13:17:22Z,169823.8,Schlange,foleni,s,uvumilivu,uteuzi,muuzaji,NA,NA,NA,NULL,NA,NA,NA,NA,NA,NA,NA,NA,NA,NA,NA,NA,NA,NA,NA,NA,NA,NA,NA
8c7c2,task,flow.Sequence,1_15,NA,NA,completion,11800,157991.59999943,157990.4,158007.1,169807.1,169808.29999924,2024-04-15T13:17:22Z,169823.8,Schlange,foleni,s,uvumilivu,uteuzi,muuzaji,NA,NA,NA,NULL,NA,NA,NA,NA,NA,NA,NA,NA,NA,NA,NA,NA,NA,NA,NA,NA,NA,NA,NA
8c7c2,retrieval block 1 (cued recall),flow.Loop,1,NA,NA,completion,163433.5,6373.5999994278,6357.2,6373.6,169807.1,169808.59999943,2024-04-15T13:17:22Z,169823.8,NA,NA,NA,NA,NA,NA,NA,NA,NA,NULL,NA,NA,NA,NA,NA,NA,NA,NA,NA,NA,NA,NA,NA,NA,NA,NA,NA,NA,NA
8c7c2,Shallow Question,html.Page,2_0_0_0,NA,NA,form submission,8572.7999994278,169808.79999924,169807.1,169823.8,178396.59999943,178396.69999981,2024-04-15T13:17:30Z,178406.9,Spionage,upelelezi,s,maslahi,utokazo,magangao,upelelezi,NA,NA,"c(""distractor1"", ""distractor2"", ""distractor3"")",NA,NA,NA,NA,NA,NA,NA,NA,NA,NA,NA,NA,NA,NA,NA,NA,NA,NA,NA
8c7c2,Save data screen,canvas.Screen,2_0_0_1,NA,NA,timeout,500.10000000001,178398.29999924,178390.724,178406.9,178890.4,178891.19999981,2024-04-15T13:17:31Z,178907,Spionage,upelelezi,s,maslahi,utokazo,magangao,NA,NA,1,"c(""distractor1"", ""distractor2"", ""distractor3"")",NA,NA,NA,NA,NA,NA,NA,NA,NA,NA,NA,NA,NA,NA,NA,NA,NA,NA,NA
8c7c2,shallow,flow.Sequence,2_0_0,NA,NA,completion,9066.6,169808.79999924,169807.1,169823.8,178890.4,178891.69999981,2024-04-15T13:17:31Z,178907,Spionage,upelelezi,s,maslahi,utokazo,magangao,NA,NA,NA,"c(""distractor1"", ""distractor2"", ""distractor3"")",NA,NA,NA,NA,NA,NA,NA,NA,NA,NA,NA,NA,NA,NA,NA,NA,NA,NA,NA
8c7c2,task,flow.Sequence,2_0,NA,NA,completion,9066.6,169808.69999981,169807.1,169823.8,178890.4,178891.89999962,2024-04-15T13:17:31Z,178907,Spionage,upelelezi,s,maslahi,utokazo,magangao,NA,NA,NA,"c(""distractor1"", ""distractor2"", ""distractor3"")",NA,NA,NA,NA,NA,NA,NA,NA,NA,NA,NA,NA,NA,NA,NA,NA,NA,NA,NA
8c7c2,Shallow Question,html.Page,2_1_0_0,NA,NA,form submission,6447.3999996185,178891.89999962,178890.4,178907,185354.39999962,185354.59999943,2024-04-15T13:17:37Z,185357,Schock,mshtuko,s,biashara,kukataza,vichekesho,kukataza,NA,NA,"c(""distractor1"", ""distractor2"", ""distractor3"")",NA,NA,NA,NA,NA,NA,NA,NA,NA,NA,NA,NA,NA,NA,NA,NA,NA,NA,NA
8c7c2,Save data screen,canvas.Screen,2_1_0_1,NA,NA,timeout,500.10000000001,185356,185340.502,185357,185840.5,185841.29999924,2024-04-15T13:17:38Z,185857.1,Schock,mshtuko,s,biashara,kukataza,vichekesho,NA,NA,0,"c(""distractor1"", ""distractor2"", ""distractor3"")",NA,NA,NA,NA,NA,NA,NA,NA,NA,NA,NA,NA,NA,NA,NA,NA,NA,NA,NA
8c7c2,shallow,flow.Sequence,2_1_0,NA,NA,completion,6933.5,178891.89999962,178890.4,178907,185840.5,185841.69999981,2024-04-15T13:17:38Z,185857.1,Schock,mshtuko,s,biashara,kukataza,vichekesho,NA,NA,NA,"c(""distractor1"", ""distractor2"", ""distractor3"")",NA,NA,NA,NA,NA,NA,NA,NA,NA,NA,NA,NA,NA,NA,NA,NA,NA,NA,NA
8c7c2,task,flow.Sequence,2_1,NA,NA,completion,6933.5,178891.89999962,178890.4,178907,185840.5,185841.89999962,2024-04-15T13:17:38Z,185857.1,Schock,mshtuko,s,biashara,kukataza,vichekesho,NA,NA,NA,"c(""distractor1"", ""distractor2"", ""distractor3"")",NA,NA,NA,NA,NA,NA,NA,NA,NA,NA,NA,NA,NA,NA,NA,NA,NA,NA,NA
8c7c2,Shallow Question,html.Page,2_2_0_0,NA,NA,form submission,4394.2999996185,185842,185840.5,185857.1,190251.39999962,190251.59999943,2024-04-15T13:17:42Z,190257,Notfall,dharura,d,rairai,malalamiko,ahueni,dharura,NA,NA,"c(""distractor1"", ""distractor2"", ""distractor3"")",NA,NA,NA,NA,NA,NA,NA,NA,NA,NA,NA,NA,NA,NA,NA,NA,NA,NA,NA
8c7c2,Save data screen,canvas.Screen,2_2_0_1,NA,NA,timeout,500.10000000001,190253.19999981,190243.6,190257,190740.5,190741.19999981,2024-04-15T13:17:43Z,190757.1,Notfall,dharura,d,rairai,malalamiko,ahueni,NA,NA,1,"c(""distractor1"", ""distractor2"", ""distractor3"")",NA,NA,NA,NA,NA,NA,NA,NA,NA,NA,NA,NA,NA,NA,NA,NA,NA,NA,NA
8c7c2,shallow,flow.Sequence,2_2_0,NA,NA,completion,4883.4,185842,185840.5,185857.1,190740.5,190741.5,2024-04-15T13:17:43Z,190757.1,Notfall,dharura,d,rairai,malalamiko,ahueni,NA,NA,NA,"c(""distractor1"", ""distractor2"", ""distractor3"")",NA,NA,NA,NA,NA,NA,NA,NA,NA,NA,NA,NA,NA,NA,NA,NA,NA,NA,NA
8c7c2,task,flow.Sequence,2_2,NA,NA,completion,4883.4,185841.89999962,185840.5,185857.1,190740.5,190741.69999981,2024-04-15T13:17:43Z,190757.1,Notfall,dharura,d,rairai,malalamiko,ahueni,NA,NA,NA,"c(""distractor1"", ""distractor2"", ""distractor3"")",NA,NA,NA,NA,NA,NA,NA,NA,NA,NA,NA,NA,NA,NA,NA,NA,NA,NA,NA
8c7c2,Shallow Question,html.Page,2_3_0_0,NA,NA,form submission,3808.4,190741.79999924,190740.5,190757.1,194565.5,194565.69999981,2024-04-15T13:17:46Z,194573.6,Ergänzung,kijalizo,s,ulaghai,mustarehe,matangazo,kijalizo,NA,NA,"c(""distractor1"", ""distractor2"", ""distractor3"")",NA,NA,NA,NA,NA,NA,NA,NA,NA,NA,NA,NA,NA,NA,NA,NA,NA,NA,NA
8c7c2,Save data screen,canvas.Screen,2_3_0_1,NA,NA,timeout,500.19999999998,194567.19999981,194557.158,194573.6,195057.1,195057.79999924,2024-04-15T13:17:47Z,195073.8,Ergänzung,kijalizo,s,ulaghai,mustarehe,matangazo,NA,NA,1,"c(""distractor1"", ""distractor2"", ""distractor3"")",NA,NA,NA,NA,NA,NA,NA,NA,NA,NA,NA,NA,NA,NA,NA,NA,NA,NA,NA
8c7c2,shallow,flow.Sequence,2_3_0,NA,NA,completion,4300,190741.79999924,190740.5,190757.1,195057.1,195058.09999943,2024-04-15T13:17:47Z,195073.8,Ergänzung,kijalizo,s,ulaghai,mustarehe,matangazo,NA,NA,NA,"c(""distractor1"", ""distractor2"", ""distractor3"")",NA,NA,NA,NA,NA,NA,NA,NA,NA,NA,NA,NA,NA,NA,NA,NA,NA,NA,NA
8c7c2,task,flow.Sequence,2_3,NA,NA,completion,4300,190741.69999981,190740.5,190757.1,195057.1,195058.29999924,2024-04-15T13:17:47Z,195073.8,Ergänzung,kijalizo,s,ulaghai,mustarehe,matangazo,NA,NA,NA,"c(""distractor1"", ""distractor2"", ""distractor3"")",NA,NA,NA,NA,NA,NA,NA,NA,NA,NA,NA,NA,NA,NA,NA,NA,NA,NA,NA
8c7c2,Shallow Question,html.Page,2_4_0_0,NA,NA,form submission,5030.7,195058.39999962,195057.1,195073.8,200104.5,200104.59999943,2024-04-15T13:17:52Z,200107.1,Inhalt,yaliyomo,d,kishawishi,hifadhi,kutembea,kishawishi,NA,NA,"c(""distractor1"", ""distractor2"", ""distractor3"")",NA,NA,NA,NA,NA,NA,NA,NA,NA,NA,NA,NA,NA,NA,NA,NA,NA,NA,NA
8c7c2,Save data screen,canvas.Screen,2_4_0_1,NA,NA,timeout,499.89999999999,200106.19999981,200090.442,200107.1,200590.5,200591.19999981,2024-04-15T13:17:52Z,200607,Inhalt,yaliyomo,d,kishawishi,hifadhi,kutembea,NA,NA,0,"c(""distractor1"", ""distractor2"", ""distractor3"")",NA,NA,NA,NA,NA,NA,NA,NA,NA,NA,NA,NA,NA,NA,NA,NA,NA,NA,NA
8c7c2,shallow,flow.Sequence,2_4_0,NA,NA,completion,5516.7,195058.39999962,195057.1,195073.8,200590.5,200591.5,2024-04-15T13:17:52Z,200607,Inhalt,yaliyomo,d,kishawishi,hifadhi,kutembea,NA,NA,NA,"c(""distractor1"", ""distractor2"", ""distractor3"")",NA,NA,NA,NA,NA,NA,NA,NA,NA,NA,NA,NA,NA,NA,NA,NA,NA,NA,NA
8c7c2,task,flow.Sequence,2_4,NA,NA,completion,5516.7,195058.29999924,195057.1,195073.8,200590.5,200591.69999981,2024-04-15T13:17:52Z,200607,Inhalt,yaliyomo,d,kishawishi,hifadhi,kutembea,NA,NA,NA,"c(""distractor1"", ""distractor2"", ""distractor3"")",NA,NA,NA,NA,NA,NA,NA,NA,NA,NA,NA,NA,NA,NA,NA,NA,NA,NA,NA
8c7c2,Shallow Question,html.Page,2_5_0_0,NA,NA,form submission,4082.3999996185,200591.79999924,200590.5,200607,204689.39999962,204689.59999943,2024-04-15T13:17:57Z,204690.446,Hoffnung,matarajio,d,kutaalamika,uratibu,mvumbuzi,matarajio,NA,NA,"c(""distractor1"", ""distractor2"", ""distractor3"")",NA,NA,NA,NA,NA,NA,NA,NA,NA,NA,NA,NA,NA,NA,NA,NA,NA,NA,NA
8c7c2,Save data screen,canvas.Screen,2_5_0_1,NA,NA,timeout,500.054,204691.09999943,204690.446,204690.446,205173.8,205174.69999981,2024-04-15T13:17:57Z,205190.5,Hoffnung,matarajio,d,kutaalamika,uratibu,mvumbuzi,NA,NA,1,"c(""distractor1"", ""distractor2"", ""distractor3"")",NA,NA,NA,NA,NA,NA,NA,NA,NA,NA,NA,NA,NA,NA,NA,NA,NA,NA,NA
8c7c2,shallow,flow.Sequence,2_5_0,NA,NA,completion,4566.8,200591.79999924,200590.5,200607,205173.8,205174.89999961999,2024-04-15T13:17:57Z,205190.5,Hoffnung,matarajio,d,kutaalamika,uratibu,mvumbuzi,NA,NA,NA,"c(""distractor1"", ""distractor2"", ""distractor3"")",NA,NA,NA,NA,NA,NA,NA,NA,NA,NA,NA,NA,NA,NA,NA,NA,NA,NA,NA
8c7c2,task,flow.Sequence,2_5,NA,NA,completion,4566.8,200591.79999924,200590.5,200607,205173.8,205175.09999943,2024-04-15T13:17:57Z,205190.5,Hoffnung,matarajio,d,kutaalamika,uratibu,mvumbuzi,NA,NA,NA,"c(""distractor1"", ""distractor2"", ""distractor3"")",NA,NA,NA,NA,NA,NA,NA,NA,NA,NA,NA,NA,NA,NA,NA,NA,NA,NA,NA
8c7c2,Shallow Question,html.Page,2_6_0_0,NA,NA,form submission,4362,205175.29999924,205173.8,205190.5,209552.5,209552.69999981,2024-04-15T13:18:01Z,209556.9,Toleranz,kuvumiliana,s,maombolezo,ujasusi,mchekeshaji,kuvumiliana,NA,NA,"c(""distractor1"", ""distractor2"", ""distractor3"")",NA,NA,NA,NA,NA,NA,NA,NA,NA,NA,NA,NA,NA,NA,NA,NA,NA,NA,NA
8c7c2,Save data screen,canvas.Screen,2_6_0_1,NA,NA,timeout,500.20000000001,209554.29999924,209540.448,209556.9,210040.5,210041.39999962,2024-04-15T13:18:02Z,210057.1,Toleranz,kuvumiliana,s,maombolezo,ujasusi,mchekeshaji,NA,NA,1,"c(""distractor1"", ""distractor2"", ""distractor3"")",NA,NA,NA,NA,NA,NA,NA,NA,NA,NA,NA,NA,NA,NA,NA,NA,NA,NA,NA
8c7c2,shallow,flow.Sequence,2_6_0,NA,NA,completion,4850,205175.19999981,205173.8,205190.5,210040.5,210041.69999981,2024-04-15T13:18:02Z,210057.1,Toleranz,kuvumiliana,s,maombolezo,ujasusi,mchekeshaji,NA,NA,NA,"c(""distractor1"", ""distractor2"", ""distractor3"")",NA,NA,NA,NA,NA,NA,NA,NA,NA,NA,NA,NA,NA,NA,NA,NA,NA,NA,NA
8c7c2,task,flow.Sequence,2_6,NA,NA,completion,4850,205175.19999981,205173.8,205190.5,210040.5,210041.69999981,2024-04-15T13:18:02Z,210057.1,Toleranz,kuvumiliana,s,maombolezo,ujasusi,mchekeshaji,NA,NA,NA,"c(""distractor1"", ""distractor2"", ""distractor3"")",NA,NA,NA,NA,NA,NA,NA,NA,NA,NA,NA,NA,NA,NA,NA,NA,NA,NA,NA
8c7c2,Shallow Question,html.Page,2_7_0_0,NA,NA,form submission,9114.4,210042,210040.5,210057.1,219171.5,219171.59999943,2024-04-15T13:18:11Z,219173.91,Schlange,foleni,s,uvumilivu,uteuzi,muuzaji,uteuzi,NA,NA,"c(""distractor1"", ""distractor2"", ""distractor3"")",NA,NA,NA,NA,NA,NA,NA,NA,NA,NA,NA,NA,NA,NA,NA,NA,NA,NA,NA
8c7c2,Save data screen,canvas.Screen,2_7_0_1,NA,NA,timeout,499.88999999998,219173.29999924,219173.91,219173.91,219657.1,219658,2024-04-15T13:18:12Z,219673.8,Schlange,foleni,s,uvumilivu,uteuzi,muuzaji,NA,NA,0,"c(""distractor1"", ""distractor2"", ""distractor3"")",NA,NA,NA,NA,NA,NA,NA,NA,NA,NA,NA,NA,NA,NA,NA,NA,NA,NA,NA
8c7c2,shallow,flow.Sequence,2_7_0,NA,NA,completion,9600,210041.89999962,210040.5,210057.1,219657.1,219658.09999943,2024-04-15T13:18:12Z,219673.8,Schlange,foleni,s,uvumilivu,uteuzi,muuzaji,NA,NA,NA,"c(""distractor1"", ""distractor2"", ""distractor3"")",NA,NA,NA,NA,NA,NA,NA,NA,NA,NA,NA,NA,NA,NA,NA,NA,NA,NA,NA
8c7c2,task,flow.Sequence,2_7,NA,NA,completion,9600,210041.89999962,210040.5,210057.1,219657.1,219658.29999924,2024-04-15T13:18:12Z,219673.8,Schlange,foleni,s,uvumilivu,uteuzi,muuzaji,NA,NA,NA,"c(""distractor1"", ""distractor2"", ""distractor3"")",NA,NA,NA,NA,NA,NA,NA,NA,NA,NA,NA,NA,NA,NA,NA,NA,NA,NA,NA
8c7c2,Shallow Question,html.Page,2_8_0_0,NA,NA,form submission,5557.4999992371,219658.5,219657.1,219673.8,225231.29999924,225231.5,2024-04-15T13:18:17Z,225240.4,Tester,wanaojaribu,d,sherti,sihiri,mlipuko,sihiri,NA,NA,"c(""distractor1"", ""distractor2"", ""distractor3"")",NA,NA,NA,NA,NA,NA,NA,NA,NA,NA,NA,NA,NA,NA,NA,NA,NA,NA,NA
8c7c2,Save data screen,canvas.Screen,2_8_0_1,NA,NA,timeout,500,225233.09999943,225223.862,225240.4,225723.8,225724.59999943,2024-04-15T13:18:18Z,225740.4,Tester,wanaojaribu,d,sherti,sihiri,mlipuko,NA,NA,0,"c(""distractor1"", ""distractor2"", ""distractor3"")",NA,NA,NA,NA,NA,NA,NA,NA,NA,NA,NA,NA,NA,NA,NA,NA,NA,NA,NA
8c7c2,shallow,flow.Sequence,2_8_0,NA,NA,completion,6050,219658.5,219657.1,219673.8,225723.8,225724.79999924,2024-04-15T13:18:18Z,225740.4,Tester,wanaojaribu,d,sherti,sihiri,mlipuko,NA,NA,NA,"c(""distractor1"", ""distractor2"", ""distractor3"")",NA,NA,NA,NA,NA,NA,NA,NA,NA,NA,NA,NA,NA,NA,NA,NA,NA,NA,NA
8c7c2,task,flow.Sequence,2_8,NA,NA,completion,6050,219658.39999961999,219657.1,219673.8,225723.8,225724.89999961999,2024-04-15T13:18:18Z,225740.4,Tester,wanaojaribu,d,sherti,sihiri,mlipuko,NA,NA,NA,"c(""distractor1"", ""distractor2"", ""distractor3"")",NA,NA,NA,NA,NA,NA,NA,NA,NA,NA,NA,NA,NA,NA,NA,NA,NA,NA,NA
8c7c2,Shallow Question,html.Page,2_9_0_0,NA,NA,form submission,4605.8999992371,225725.19999981,225723.8,225740.4,230346.29999924,230346.59999943,2024-04-15T13:18:22Z,230357,Schüler,mwanafunzi,d,mwekezaji,matumizi,uaminifu,mwekezaji,NA,NA,"c(""distractor1"", ""distractor2"", ""distractor3"")",NA,NA,NA,NA,NA,NA,NA,NA,NA,NA,NA,NA,NA,NA,NA,NA,NA,NA,NA
8c7c2,Save data screen,canvas.Screen,2_9_0_1,NA,NA,timeout,500.20000000001,230348.09999943,230340.522,230357,230840.4,230841.09999943,2024-04-15T13:18:23Z,230857.2,Schüler,mwanafunzi,d,mwekezaji,matumizi,uaminifu,NA,NA,0,"c(""distractor1"", ""distractor2"", ""distractor3"")",NA,NA,NA,NA,NA,NA,NA,NA,NA,NA,NA,NA,NA,NA,NA,NA,NA,NA,NA
8c7c2,shallow,flow.Sequence,2_9_0,NA,NA,completion,5100,225725.19999981,225723.8,225740.4,230840.4,230841.39999962,2024-04-15T13:18:23Z,230857.2,Schüler,mwanafunzi,d,mwekezaji,matumizi,uaminifu,NA,NA,NA,"c(""distractor1"", ""distractor2"", ""distractor3"")",NA,NA,NA,NA,NA,NA,NA,NA,NA,NA,NA,NA,NA,NA,NA,NA,NA,NA,NA
8c7c2,task,flow.Sequence,2_9,NA,NA,completion,5100,225725.09999943,225723.8,225740.4,230840.4,230841.59999943,2024-04-15T13:18:23Z,230857.2,Schüler,mwanafunzi,d,mwekezaji,matumizi,uaminifu,NA,NA,NA,"c(""distractor1"", ""distractor2"", ""distractor3"")",NA,NA,NA,NA,NA,NA,NA,NA,NA,NA,NA,NA,NA,NA,NA,NA,NA,NA,NA
8c7c2,Shallow Question,html.Page,2_10_0_0,NA,NA,form submission,3912.3,230841.69999981,230840.4,230857.2,234769.5,234769.69999981,2024-04-15T13:18:27Z,234773.7,Vergnügen,kichekesho,d,dubwana,mpanuko,mtesaji,kichekesho,NA,NA,"c(""distractor1"", ""distractor2"", ""distractor3"")",NA,NA,NA,NA,NA,NA,NA,NA,NA,NA,NA,NA,NA,NA,NA,NA,NA,NA,NA
8c7c2,Save data screen,canvas.Screen,2_10_0_1,NA,NA,timeout,500.19999999998,234771.29999924,234757.75,234773.7,235257.1,235258,2024-04-15T13:18:27Z,235273.9,Vergnügen,kichekesho,d,dubwana,mpanuko,mtesaji,NA,NA,1,"c(""distractor1"", ""distractor2"", ""distractor3"")",NA,NA,NA,NA,NA,NA,NA,NA,NA,NA,NA,NA,NA,NA,NA,NA,NA,NA,NA
8c7c2,shallow,flow.Sequence,2_10_0,NA,NA,completion,4399.9,230841.69999981,230840.4,230857.2,235257.1,235258.29999924,2024-04-15T13:18:27Z,235273.9,Vergnügen,kichekesho,d,dubwana,mpanuko,mtesaji,NA,NA,NA,"c(""distractor1"", ""distractor2"", ""distractor3"")",NA,NA,NA,NA,NA,NA,NA,NA,NA,NA,NA,NA,NA,NA,NA,NA,NA,NA,NA
8c7c2,task,flow.Sequence,2_10,NA,NA,completion,4399.9,230841.69999981,230840.4,230857.2,235257.1,235258.39999961999,2024-04-15T13:18:27Z,235273.9,Vergnügen,kichekesho,d,dubwana,mpanuko,mtesaji,NA,NA,NA,"c(""distractor1"", ""distractor2"", ""distractor3"")",NA,NA,NA,NA,NA,NA,NA,NA,NA,NA,NA,NA,NA,NA,NA,NA,NA,NA,NA
8c7c2,Shallow Question,html.Page,2_11_0_0,NA,NA,form submission,6095.4999996185,235258.59999943,235257.1,235273.9,241369.39999962,241369.59999943,2024-04-15T13:18:33Z,241373.6,Wohlstand,mafanikio,s,chimbuko,kumbuko,mapwaji,mafanikio,NA,NA,"c(""distractor1"", ""distractor2"", ""distractor3"")",NA,NA,NA,NA,NA,NA,NA,NA,NA,NA,NA,NA,NA,NA,NA,NA,NA,NA,NA
8c7c2,Save data screen,canvas.Screen,2_11_0_1,NA,NA,timeout,500.19999999998,241371.19999981,241357.12,241373.6,241857.1,241857.89999961999,2024-04-15T13:18:34Z,241873.8,Wohlstand,mafanikio,s,chimbuko,kumbuko,mapwaji,NA,NA,1,"c(""distractor1"", ""distractor2"", ""distractor3"")",NA,NA,NA,NA,NA,NA,NA,NA,NA,NA,NA,NA,NA,NA,NA,NA,NA,NA,NA
8c7c2,shallow,flow.Sequence,2_11_0,NA,NA,completion,6583.2,235258.59999943,235257.1,235273.9,241857.1,241858.09999943,2024-04-15T13:18:34Z,241873.8,Wohlstand,mafanikio,s,chimbuko,kumbuko,mapwaji,NA,NA,NA,"c(""distractor1"", ""distractor2"", ""distractor3"")",NA,NA,NA,NA,NA,NA,NA,NA,NA,NA,NA,NA,NA,NA,NA,NA,NA,NA,NA
8c7c2,task,flow.Sequence,2_11,NA,NA,completion,6583.2,235258.5,235257.1,235273.9,241857.1,241858.29999924,2024-04-15T13:18:34Z,241873.8,Wohlstand,mafanikio,s,chimbuko,kumbuko,mapwaji,NA,NA,NA,"c(""distractor1"", ""distractor2"", ""distractor3"")",NA,NA,NA,NA,NA,NA,NA,NA,NA,NA,NA,NA,NA,NA,NA,NA,NA,NA,NA
8c7c2,Shallow Question,html.Page,2_12_0_0,NA,NA,form submission,4336.7,241858.5,241857.1,241873.8,246210.5,246210.59999943,2024-04-15T13:18:38Z,246223.8,Verpackung,ufungaji,d,uhusiano,upimaji,uchunguzi,uhusiano,NA,NA,"c(""distractor1"", ""distractor2"", ""distractor3"")",NA,NA,NA,NA,NA,NA,NA,NA,NA,NA,NA,NA,NA,NA,NA,NA,NA,NA,NA
8c7c2,Save data screen,canvas.Screen,2_12_0_1,NA,NA,timeout,500.10000000001,246212.09999943,246207.224,246223.8,246707.2,246708,2024-04-15T13:18:39Z,246723.9,Verpackung,ufungaji,d,uhusiano,upimaji,uchunguzi,NA,NA,0,"c(""distractor1"", ""distractor2"", ""distractor3"")",NA,NA,NA,NA,NA,NA,NA,NA,NA,NA,NA,NA,NA,NA,NA,NA,NA,NA,NA
8c7c2,shallow,flow.Sequence,2_12_0,NA,NA,completion,4833.4,241858.39999962,241857.1,241873.8,246707.2,246708.19999981,2024-04-15T13:18:39Z,246723.9,Verpackung,ufungaji,d,uhusiano,upimaji,uchunguzi,NA,NA,NA,"c(""distractor1"", ""distractor2"", ""distractor3"")",NA,NA,NA,NA,NA,NA,NA,NA,NA,NA,NA,NA,NA,NA,NA,NA,NA,NA,NA
8c7c2,task,flow.Sequence,2_12,NA,NA,completion,4833.4,241858.39999962,241857.1,241873.8,246707.2,246708.39999961999,2024-04-15T13:18:39Z,246723.9,Verpackung,ufungaji,d,uhusiano,upimaji,uchunguzi,NA,NA,NA,"c(""distractor1"", ""distractor2"", ""distractor3"")",NA,NA,NA,NA,NA,NA,NA,NA,NA,NA,NA,NA,NA,NA,NA,NA,NA,NA,NA
8c7c2,Shallow Question,html.Page,2_13_0_0,NA,NA,form submission,5723.6999994278,246708.59999943,246707.2,246723.9,252447.59999943,252447.69999981,2024-04-15T13:18:44Z,252456.9,Vermutung,udhanifu,d,haramia,tikisho,itifaki,tikisho,NA,NA,"c(""distractor1"", ""distractor2"", ""distractor3"")",NA,NA,NA,NA,NA,NA,NA,NA,NA,NA,NA,NA,NA,NA,NA,NA,NA,NA,NA
8c7c2,Save data screen,canvas.Screen,2_13_0_1,NA,NA,timeout,500.30000000002,252449.19999981,252440.516,252456.9,252940.4,252941.29999924,2024-04-15T13:18:45Z,252957.2,Vermutung,udhanifu,d,haramia,tikisho,itifaki,NA,NA,0,"c(""distractor1"", ""distractor2"", ""distractor3"")",NA,NA,NA,NA,NA,NA,NA,NA,NA,NA,NA,NA,NA,NA,NA,NA,NA,NA,NA
8c7c2,shallow,flow.Sequence,2_13_0,NA,NA,completion,6216.5,246708.5,246707.2,246723.9,252940.4,252941.69999981,2024-04-15T13:18:45Z,252957.2,Vermutung,udhanifu,d,haramia,tikisho,itifaki,NA,NA,NA,"c(""distractor1"", ""distractor2"", ""distractor3"")",NA,NA,NA,NA,NA,NA,NA,NA,NA,NA,NA,NA,NA,NA,NA,NA,NA,NA,NA
8c7c2,task,flow.Sequence,2_13,NA,NA,completion,6216.5,246708.5,246707.2,246723.9,252940.4,252941.69999981,2024-04-15T13:18:45Z,252957.2,Vermutung,udhanifu,d,haramia,tikisho,itifaki,NA,NA,NA,"c(""distractor1"", ""distractor2"", ""distractor3"")",NA,NA,NA,NA,NA,NA,NA,NA,NA,NA,NA,NA,NA,NA,NA,NA,NA,NA,NA
8c7c2,Shallow Question,html.Page,2_14_0_0,NA,NA,form submission,2984.1999996185,252941.89999961999,252940.4,252957.2,255941.39999962,255941.59999943,2024-04-15T13:18:48Z,255957.1,Fenster,dirisha,s,walakini,tasawari,maarifa,dirisha,NA,NA,"c(""distractor1"", ""distractor2"", ""distractor3"")",NA,NA,NA,NA,NA,NA,NA,NA,NA,NA,NA,NA,NA,NA,NA,NA,NA,NA,NA
8c7c2,Save data screen,canvas.Screen,2_14_0_1,NA,NA,timeout,500,255943.09999943,255940.548,255957.1,256440.5,256441.29999924,2024-04-15T13:18:48Z,256457.1,Fenster,dirisha,s,walakini,tasawari,maarifa,NA,NA,1,"c(""distractor1"", ""distractor2"", ""distractor3"")",NA,NA,NA,NA,NA,NA,NA,NA,NA,NA,NA,NA,NA,NA,NA,NA,NA,NA,NA
8c7c2,shallow,flow.Sequence,2_14_0,NA,NA,completion,3483.3,252941.89999961999,252940.4,252957.2,256440.5,256441.5,2024-04-15T13:18:48Z,256457.1,Fenster,dirisha,s,walakini,tasawari,maarifa,NA,NA,NA,"c(""distractor1"", ""distractor2"", ""distractor3"")",NA,NA,NA,NA,NA,NA,NA,NA,NA,NA,NA,NA,NA,NA,NA,NA,NA,NA,NA
8c7c2,task,flow.Sequence,2_14,NA,NA,completion,3483.3,252941.89999961999,252940.4,252957.2,256440.5,256441.59999943,2024-04-15T13:18:48Z,256457.1,Fenster,dirisha,s,walakini,tasawari,maarifa,NA,NA,NA,"c(""distractor1"", ""distractor2"", ""distractor3"")",NA,NA,NA,NA,NA,NA,NA,NA,NA,NA,NA,NA,NA,NA,NA,NA,NA,NA,NA
8c7c2,Shallow Question,html.Page,2_15_0_0,NA,NA,form submission,5311.1999992371,256441.79999924,256440.5,256457.1,261768.29999924,261768.5,2024-04-15T13:18:54Z,261773.6,Theorie,nadharia,s,ushungi,mkutano,uwakilishi,ushungi,NA,NA,"c(""distractor1"", ""distractor2"", ""distractor3"")",NA,NA,NA,NA,NA,NA,NA,NA,NA,NA,NA,NA,NA,NA,NA,NA,NA,NA,NA
8c7c2,Save data screen,canvas.Screen,2_15_0_1,NA,NA,timeout,500.19999999998,261770.09999943,261757.116,261773.6,262257.1,262257.89999962,2024-04-15T13:18:54Z,262273.8,Theorie,nadharia,s,ushungi,mkutano,uwakilishi,NA,NA,0,"c(""distractor1"", ""distractor2"", ""distractor3"")",NA,NA,NA,NA,NA,NA,NA,NA,NA,NA,NA,NA,NA,NA,NA,NA,NA,NA,NA
8c7c2,shallow,flow.Sequence,2_15_0,NA,NA,completion,5800,256441.79999924,256440.5,256457.1,262257.1,262258.09999943,2024-04-15T13:18:54Z,262273.8,Theorie,nadharia,s,ushungi,mkutano,uwakilishi,NA,NA,NA,"c(""distractor1"", ""distractor2"", ""distractor3"")",NA,NA,NA,NA,NA,NA,NA,NA,NA,NA,NA,NA,NA,NA,NA,NA,NA,NA,NA
8c7c2,task,flow.Sequence,2_15,NA,NA,completion,5800,256441.69999981,256440.5,256457.1,262257.1,262258.19999981,2024-04-15T13:18:54Z,262273.8,Theorie,nadharia,s,ushungi,mkutano,uwakilishi,NA,NA,NA,"c(""distractor1"", ""distractor2"", ""distractor3"")",NA,NA,NA,NA,NA,NA,NA,NA,NA,NA,NA,NA,NA,NA,NA,NA,NA,NA,NA
8c7c2,retrieval block 2 (multiple choice),flow.Loop,2,NA,NA,completion,92433.3,169808.69999981,169807.1,169823.8,262257.1,262258.39999962,2024-04-15T13:18:54Z,262273.8,NA,NA,NA,NA,NA,NA,NA,NA,NA,"c(""distractor1"", ""distractor2"", ""distractor3"")",NA,NA,NA,NA,NA,NA,NA,NA,NA,NA,NA,NA,NA,NA,NA,NA,NA,NA,NA
8c7c2,End,canvas.Screen,3,NA,keypress(Space),response,1757.8999998093,262258.5,262257.1,262273.8,264031.69999981,264032.89999962,2024-04-15T13:18:56Z,264040.5,NA,NA,NA,NA,NA,NA,NA,NA,NA,NULL,NA,NA,NA,NA,NA,NA,NA,NA,NA,NA,NA,NA,NA,NA,NA,NA,NA,NA,NA
8c7c2,root,flow.Sequence,NA,NA,NA,completion,263608.19999981,418.19999980927,406.792,423.5,264031.69999981,264033.5,2024-04-15T13:18:56Z,264040.5,NA,NA,NA,NA,NA,NA,NA,NA,NA,NULL,NA,NA,NA,NA,NA,NA,NA,NA,NA,NA,NA,NA,NA,NA,NA,NA,NA,NA,NA
