observation,sender,sender_type,sender_id,response,response_action,ended_on,duration,time_run,time_render,time_show,time_end,time_commit,timestamp,time_switch,distractors,german,swahili,enc,distractor1,distractor2,distractor3,response_2,x,correct,x_2,url_vp,url_sess,meta_labjs_version,meta_location,meta_user_agent,meta_platform,meta_language,meta_locale,meta_time_zone,meta_timezone_offset,meta_screen_width,meta_screen_height,meta_scroll_width,meta_scroll_height,meta_window_inner_width,meta_window_inner_height,meta_device_pixel_ratio,meta_labjs_build_flavor,meta_labjs_build_commit
be13c,Introduction general,canvas.Screen,0,weiter,keypress(q),response,113068.8000001,499.7999997139,239.5,506.1,113574.9000001,113576.69999980999,2024-03-02T09:14:56Z,113589.6,NULL,NA,NA,NA,NA,NA,NA,NA,NA,NA,NA,155,1,20.2.4,https://neurocog.fernuni.ch/studies/vweber/jbaenninger/encoding_immediate/index.html?vp=155&sess=1,"Mozilla/5.0 (Windows NT 10.0; Win64; x64) AppleWebKit/537.36 (KHTML, like Gecko) Chrome/122.0.0.0 Safari/537.36 Edg/122.0.0.0",Win32,de,de-CH,Europe/Zurich,-60,1920,1080,1872,910,1872,958,1,production,f5b4a49f956347addd546a832a3327688c2c0fef
be13c,Introduction practice,canvas.Screen,1_0,NA,keypress(Space),response,45299.9,113577.19999981,113573.5,113589.6,158889.5,158890.4000001,2024-03-02T09:15:41Z,158906.2,NULL,NA,NA,NA,NA,NA,NA,NA,NA,NA,NA,NA,NA,NA,NA,NA,NA,NA,NA,NA,NA,NA,NA,NA,NA,NA,NA,NA,NA,NA
be13c,deep,flow.Sequence,1_1_0_0,NA,NA,skipped,NA,158890.69999981,NA,NA,158889.5,158893.79999971,2024-03-02T09:15:41Z,158906.2,"c(""distractor1"", ""distractor2"", ""distractor3"")",Kritik,lawama,s,dereva,nafasi,mawazo,NA,NA,NA,NA,NA,NA,NA,NA,NA,NA,NA,NA,NA,NA,NA,NA,NA,NA,NA,NA,NA,NA,NA
be13c,Shallow Question,html.Page,1_1_0_1_0,NA,NA,form submission,19988.499999809,158894.0999999,158890.2,158906.2,178894.69999981,178895,2024-03-02T09:16:01Z,178906.1,"c(""distractor1"", ""distractor2"", ""distractor3"")",Kritik,lawama,s,dereva,nafasi,mawazo,mawazo,NA,NA,NA,NA,NA,NA,NA,NA,NA,NA,NA,NA,NA,NA,NA,NA,NA,NA,NA,NA,NA,NA
be13c,"""Richtig""-Screen",canvas.Screen,1_1_0_1_1,NA,NA,skipped,NA,178896,NA,NA,178894.69999981,178896.19999981,2024-03-02T09:16:01Z,178906.1,"c(""distractor1"", ""distractor2"", ""distractor3"")",Kritik,lawama,s,dereva,nafasi,mawazo,NA,NA,NA,NA,NA,NA,NA,NA,NA,NA,NA,NA,NA,NA,NA,NA,NA,NA,NA,NA,NA,NA,NA
be13c,"""Falsch""-Screen",canvas.Screen,1_1_0_1_2,NA,NA,timeout,4999.9,178897.0999999,178889.698,178906.1,183889.4,183893,2024-03-02T09:16:06Z,183906,"c(""distractor1"", ""distractor2"", ""distractor3"")",Kritik,lawama,s,dereva,nafasi,mawazo,NA,NA,0,NA,NA,NA,NA,NA,NA,NA,NA,NA,NA,NA,NA,NA,NA,NA,NA,NA,NA,NA,NA
be13c,shallow,flow.Sequence,1_1_0_1,NA,NA,completion,24983.2,158894,158890.2,158906.2,183889.4,183893.4000001,2024-03-02T09:16:06Z,183906,"c(""distractor1"", ""distractor2"", ""distractor3"")",Kritik,lawama,s,dereva,nafasi,mawazo,NA,NA,NA,NA,NA,NA,NA,NA,NA,NA,NA,NA,NA,NA,NA,NA,NA,NA,NA,NA,NA,NA,NA
be13c,task,flow.Sequence,1_1_0,NA,NA,completion,24983.2,158890.69999981,158890.2,158906.2,183889.4,183893.5999999,2024-03-02T09:16:06Z,183906,"c(""distractor1"", ""distractor2"", ""distractor3"")",Kritik,lawama,s,dereva,nafasi,mawazo,NA,NA,NA,NA,NA,NA,NA,NA,NA,NA,NA,NA,NA,NA,NA,NA,NA,NA,NA,NA,NA,NA,NA
be13c,Deep Question,html.Page,1_1_1_0_0,NA,NA,form submission,24125.199999809,183893.79999971,183889.4,183906,208031.19999981,208031.5,2024-03-02T09:16:30Z,208039.4,"c(""distractor1"", ""distractor2"", ""distractor3"")",Schatten,kivuli,d,NA,NA,NA,hawana,NA,NA,NA,NA,NA,NA,NA,NA,NA,NA,NA,NA,NA,NA,NA,NA,NA,NA,NA,NA,NA,NA
be13c,"""Richtig""-Screen",canvas.Screen,1_1_1_0_1,NA,NA,skipped,NA,208034.0999999,NA,NA,208031.19999981,208034.29999971,2024-03-02T09:16:30Z,208039.4,"c(""distractor1"", ""distractor2"", ""distractor3"")",Schatten,kivuli,d,NA,NA,NA,NA,NA,NA,NA,NA,NA,NA,NA,NA,NA,NA,NA,NA,NA,NA,NA,NA,NA,NA,NA,NA,NA,NA
be13c,"""Falsch""-Screen",canvas.Screen,1_1_1_0_2,NA,NA,timeout,5000.1,208035.29999971,208022.724,208039.4,213022.8,213023.5,2024-03-02T09:16:35Z,213039.5,"c(""distractor1"", ""distractor2"", ""distractor3"")",Schatten,kivuli,d,NA,NA,NA,NA,NA,0,NA,NA,NA,NA,NA,NA,NA,NA,NA,NA,NA,NA,NA,NA,NA,NA,NA,NA,NA,NA
be13c,deep,flow.Sequence,1_1_1_0,NA,NA,completion,29116.8,183893.69999981,183889.4,183906,213022.8,213023.9000001,2024-03-02T09:16:35Z,213039.5,"c(""distractor1"", ""distractor2"", ""distractor3"")",Schatten,kivuli,d,NA,NA,NA,NA,NA,NA,NA,NA,NA,NA,NA,NA,NA,NA,NA,NA,NA,NA,NA,NA,NA,NA,NA,NA,NA,NA
be13c,shallow,flow.Sequence,1_1_1_1,NA,NA,skipped,NA,213024,NA,NA,213022.8,213024.0999999,2024-03-02T09:16:35Z,213039.5,"c(""distractor1"", ""distractor2"", ""distractor3"")",Schatten,kivuli,d,NA,NA,NA,NA,NA,NA,NA,NA,NA,NA,NA,NA,NA,NA,NA,NA,NA,NA,NA,NA,NA,NA,NA,NA,NA,NA
be13c,task,flow.Sequence,1_1_1,NA,NA,completion,29116.8,183893.69999981,183889.4,183906,213022.8,213024.29999971,2024-03-02T09:16:35Z,213039.5,"c(""distractor1"", ""distractor2"", ""distractor3"")",Schatten,kivuli,d,NA,NA,NA,NA,NA,NA,NA,NA,NA,NA,NA,NA,NA,NA,NA,NA,NA,NA,NA,NA,NA,NA,NA,NA,NA,NA
be13c,deep,flow.Sequence,1_1_2_0,NA,NA,skipped,NA,213024.5,NA,NA,213022.8,213024.5,2024-03-02T09:16:35Z,213039.5,"c(""distractor1"", ""distractor2"", ""distractor3"")",Gegenwart,hadhara,s,katiba,jokofu,mikopo,NA,NA,NA,NA,NA,NA,NA,NA,NA,NA,NA,NA,NA,NA,NA,NA,NA,NA,NA,NA,NA,NA,NA
be13c,Shallow Question,html.Page,1_1_2_1_0,NA,NA,form submission,9861.6999998093,213024.5999999,213022.8,213039.5,222901.19999981,222901.4000001,2024-03-02T09:16:45Z,222907,"c(""distractor1"", ""distractor2"", ""distractor3"")",Gegenwart,hadhara,s,katiba,jokofu,mikopo,hadhara,NA,NA,NA,NA,NA,NA,NA,NA,NA,NA,NA,NA,NA,NA,NA,NA,NA,NA,NA,NA,NA,NA
be13c,"""Richtig""-Screen",canvas.Screen,1_1_2_1_1,NA,NA,timeout,4999.1,222903.0999999,222906.254,222907,227889.5,227890.0999999,2024-03-02T09:16:50Z,227906.1,"c(""distractor1"", ""distractor2"", ""distractor3"")",Gegenwart,hadhara,s,katiba,jokofu,mikopo,NA,NA,1,NA,NA,NA,NA,NA,NA,NA,NA,NA,NA,NA,NA,NA,NA,NA,NA,NA,NA,NA,NA
be13c,"""Falsch""-Screen",canvas.Screen,1_1_2_1_2,NA,NA,skipped,NA,227894.4000001,NA,NA,227889.5,227894.69999981,2024-03-02T09:16:50Z,227906.1,"c(""distractor1"", ""distractor2"", ""distractor3"")",Gegenwart,hadhara,s,katiba,jokofu,mikopo,NA,NA,NA,NA,NA,NA,NA,NA,NA,NA,NA,NA,NA,NA,NA,NA,NA,NA,NA,NA,NA,NA,NA
be13c,shallow,flow.Sequence,1_1_2_1,NA,NA,completion,14850,213024.5999999,213022.8,213039.5,227889.5,227894.9000001,2024-03-02T09:16:50Z,227906.1,"c(""distractor1"", ""distractor2"", ""distractor3"")",Gegenwart,hadhara,s,katiba,jokofu,mikopo,NA,NA,NA,NA,NA,NA,NA,NA,NA,NA,NA,NA,NA,NA,NA,NA,NA,NA,NA,NA,NA,NA,NA
be13c,task,flow.Sequence,1_1_2,NA,NA,completion,14850,213024.4000001,213022.8,213039.5,227889.5,227895,2024-03-02T09:16:50Z,227906.1,"c(""distractor1"", ""distractor2"", ""distractor3"")",Gegenwart,hadhara,s,katiba,jokofu,mikopo,NA,NA,NA,NA,NA,NA,NA,NA,NA,NA,NA,NA,NA,NA,NA,NA,NA,NA,NA,NA,NA,NA,NA
be13c,Deep Question,html.Page,1_1_3_0_0,NA,NA,form submission,12592.699999714,227895.19999981,227889.5,227906.1,240498.79999971,240499,2024-03-02T09:17:03Z,240505.9,"c(""distractor1"", ""distractor2"", ""distractor3"")",Gesundheit,salama,d,NA,NA,NA,edura,NA,NA,NA,NA,NA,NA,NA,NA,NA,NA,NA,NA,NA,NA,NA,NA,NA,NA,NA,NA,NA,NA
be13c,"""Richtig""-Screen",canvas.Screen,1_1_3_0_1,NA,NA,skipped,NA,240500.69999981,NA,NA,240498.79999971,240500.9000001,2024-03-02T09:17:03Z,240505.9,"c(""distractor1"", ""distractor2"", ""distractor3"")",Gesundheit,salama,d,NA,NA,NA,NA,NA,NA,NA,NA,NA,NA,NA,NA,NA,NA,NA,NA,NA,NA,NA,NA,NA,NA,NA,NA,NA,NA
be13c,"""Falsch""-Screen",canvas.Screen,1_1_3_0_2,NA,NA,timeout,5000.2,240501.5,240490.324,240505.9,245489.5,245490.19999981,2024-03-02T09:17:08Z,245506.1,"c(""distractor1"", ""distractor2"", ""distractor3"")",Gesundheit,salama,d,NA,NA,NA,NA,NA,0,NA,NA,NA,NA,NA,NA,NA,NA,NA,NA,NA,NA,NA,NA,NA,NA,NA,NA,NA,NA
be13c,deep,flow.Sequence,1_1_3_0,NA,NA,completion,17583.4,227895.19999981,227889.5,227906.1,245489.5,245490.5,2024-03-02T09:17:08Z,245506.1,"c(""distractor1"", ""distractor2"", ""distractor3"")",Gesundheit,salama,d,NA,NA,NA,NA,NA,NA,NA,NA,NA,NA,NA,NA,NA,NA,NA,NA,NA,NA,NA,NA,NA,NA,NA,NA,NA,NA
be13c,shallow,flow.Sequence,1_1_3_1,NA,NA,skipped,NA,245490.5999999,NA,NA,245489.5,245490.5999999,2024-03-02T09:17:08Z,245506.1,"c(""distractor1"", ""distractor2"", ""distractor3"")",Gesundheit,salama,d,NA,NA,NA,NA,NA,NA,NA,NA,NA,NA,NA,NA,NA,NA,NA,NA,NA,NA,NA,NA,NA,NA,NA,NA,NA,NA
be13c,task,flow.Sequence,1_1_3,NA,NA,completion,17583.4,227895.19999981,227889.5,227906.1,245489.5,245490.69999981,2024-03-02T09:17:08Z,245506.1,"c(""distractor1"", ""distractor2"", ""distractor3"")",Gesundheit,salama,d,NA,NA,NA,NA,NA,NA,NA,NA,NA,NA,NA,NA,NA,NA,NA,NA,NA,NA,NA,NA,NA,NA,NA,NA,NA,NA
be13c,Deep Question,html.Page,1_1_4_0_0,NA,NA,form submission,7594.8000000954,245490.9000001,245489.5,245506.1,253100.9000001,253101.0999999,2024-03-02T09:17:15Z,253106,"c(""distractor1"", ""distractor2"", ""distractor3"")",Qualität,mtindo,d,NA,NA,NA,uana,NA,NA,NA,NA,NA,NA,NA,NA,NA,NA,NA,NA,NA,NA,NA,NA,NA,NA,NA,NA,NA,NA
be13c,"""Richtig""-Screen",canvas.Screen,1_1_4_0_1,NA,NA,skipped,NA,253102.79999971,NA,NA,253100.9000001,253103,2024-03-02T09:17:15Z,253106,"c(""distractor1"", ""distractor2"", ""distractor3"")",Qualität,mtindo,d,NA,NA,NA,NA,NA,NA,NA,NA,NA,NA,NA,NA,NA,NA,NA,NA,NA,NA,NA,NA,NA,NA,NA,NA,NA,NA
be13c,"""Falsch""-Screen",canvas.Screen,1_1_4_0_2,NA,NA,timeout,5000.1,253103.4000001,253089.66,253106,258089.5,258090.0999999,2024-03-02T09:17:20Z,258106.1,"c(""distractor1"", ""distractor2"", ""distractor3"")",Qualität,mtindo,d,NA,NA,NA,NA,NA,0,NA,NA,NA,NA,NA,NA,NA,NA,NA,NA,NA,NA,NA,NA,NA,NA,NA,NA,NA,NA
be13c,deep,flow.Sequence,1_1_4_0,NA,NA,completion,12583.4,245490.9000001,245489.5,245506.1,258089.5,258090.4000001,2024-03-02T09:17:20Z,258106.1,"c(""distractor1"", ""distractor2"", ""distractor3"")",Qualität,mtindo,d,NA,NA,NA,NA,NA,NA,NA,NA,NA,NA,NA,NA,NA,NA,NA,NA,NA,NA,NA,NA,NA,NA,NA,NA,NA,NA
be13c,shallow,flow.Sequence,1_1_4_1,NA,NA,skipped,NA,258090.5,NA,NA,258089.5,258090.5999999,2024-03-02T09:17:20Z,258106.1,"c(""distractor1"", ""distractor2"", ""distractor3"")",Qualität,mtindo,d,NA,NA,NA,NA,NA,NA,NA,NA,NA,NA,NA,NA,NA,NA,NA,NA,NA,NA,NA,NA,NA,NA,NA,NA,NA,NA
be13c,task,flow.Sequence,1_1_4,NA,NA,completion,12583.4,245490.79999971,245489.5,245506.1,258089.5,258090.69999981,2024-03-02T09:17:20Z,258106.1,"c(""distractor1"", ""distractor2"", ""distractor3"")",Qualität,mtindo,d,NA,NA,NA,NA,NA,NA,NA,NA,NA,NA,NA,NA,NA,NA,NA,NA,NA,NA,NA,NA,NA,NA,NA,NA,NA,NA
be13c,deep,flow.Sequence,1_1_5_0,NA,NA,skipped,NA,258090.9000001,NA,NA,258089.5,258090.9000001,2024-03-02T09:17:20Z,258106.1,"c(""distractor1"", ""distractor2"", ""distractor3"")",Rückhalt,msaada,s,muhula,auwali,kiwimbe,NA,NA,NA,NA,NA,NA,NA,NA,NA,NA,NA,NA,NA,NA,NA,NA,NA,NA,NA,NA,NA,NA,NA
be13c,Shallow Question,html.Page,1_1_5_1_0,NA,NA,form submission,6627.4999999046,258091,258089.5,258106.1,264733.5999999,264733.69999981,2024-03-02T09:17:27Z,264756,"c(""distractor1"", ""distractor2"", ""distractor3"")",Rückhalt,msaada,s,muhula,auwali,kiwimbe,msaada,NA,NA,NA,NA,NA,NA,NA,NA,NA,NA,NA,NA,NA,NA,NA,NA,NA,NA,NA,NA,NA,NA
be13c,"""Richtig""-Screen",canvas.Screen,1_1_5_1_1,NA,NA,timeout,5000,264735.4000001,264739.5,264756,269739.4,269740.19999981,2024-03-02T09:17:32Z,269756,"c(""distractor1"", ""distractor2"", ""distractor3"")",Rückhalt,msaada,s,muhula,auwali,kiwimbe,NA,NA,1,NA,NA,NA,NA,NA,NA,NA,NA,NA,NA,NA,NA,NA,NA,NA,NA,NA,NA,NA,NA
be13c,"""Falsch""-Screen",canvas.Screen,1_1_5_1_2,NA,NA,skipped,NA,269744,NA,NA,269739.4,269744.19999981,2024-03-02T09:17:32Z,269756,"c(""distractor1"", ""distractor2"", ""distractor3"")",Rückhalt,msaada,s,muhula,auwali,kiwimbe,NA,NA,NA,NA,NA,NA,NA,NA,NA,NA,NA,NA,NA,NA,NA,NA,NA,NA,NA,NA,NA,NA,NA
be13c,shallow,flow.Sequence,1_1_5_1,NA,NA,completion,11633.3,258091,258089.5,258106.1,269739.4,269744.5,2024-03-02T09:17:32Z,269756,"c(""distractor1"", ""distractor2"", ""distractor3"")",Rückhalt,msaada,s,muhula,auwali,kiwimbe,NA,NA,NA,NA,NA,NA,NA,NA,NA,NA,NA,NA,NA,NA,NA,NA,NA,NA,NA,NA,NA,NA,NA
be13c,task,flow.Sequence,1_1_5,NA,NA,completion,11633.3,258090.69999981,258089.5,258106.1,269739.4,269744.5999999,2024-03-02T09:17:32Z,269756,"c(""distractor1"", ""distractor2"", ""distractor3"")",Rückhalt,msaada,s,muhula,auwali,kiwimbe,NA,NA,NA,NA,NA,NA,NA,NA,NA,NA,NA,NA,NA,NA,NA,NA,NA,NA,NA,NA,NA,NA,NA
be13c,block,flow.Loop,1_1,NA,NA,completion,110833.2,158890.5999999,158890.2,158906.2,269739.4,269744.9000001,2024-03-02T09:17:32Z,269756,"c(""distractor1"", ""distractor2"", ""distractor3"")",NA,NA,NA,NA,NA,NA,NA,NA,NA,NA,NA,NA,NA,NA,NA,NA,NA,NA,NA,NA,NA,NA,NA,NA,NA,NA,NA,NA,NA
be13c,Practice,flow.Sequence,1,NA,NA,completion,156149.8,113577.19999981,113573.5,113589.6,269739.4,269745.0999999,2024-03-02T09:17:32Z,269756,NULL,NA,NA,NA,NA,NA,NA,NA,NA,NA,NA,NA,NA,NA,NA,NA,NA,NA,NA,NA,NA,NA,NA,NA,NA,NA,NA,NA,NA,NA
be13c,Experiment start,canvas.Screen,2,weiter,keypress(q),response,95105.199999809,269745.0999999,269739.4,269756,364861.19999981,364862.0999999,2024-03-02T09:19:07Z,364972.5,NULL,NA,NA,NA,NA,NA,NA,NA,NA,NA,NA,NA,NA,NA,NA,NA,NA,NA,NA,NA,NA,NA,NA,NA,NA,NA,NA,NA,NA,NA
be13c,deep,flow.Sequence,3_0_0_0_0_0,NA,NA,skipped,NA,364965.79999971,NA,NA,364861.19999981,364965.9000001,2024-03-02T09:19:07Z,364972.5,NULL,Zuwachs,nyongeza,s,matilaba,udhibiti,hudhurio,NA,sdf,NA,0,NA,NA,NA,NA,NA,NA,NA,NA,NA,NA,NA,NA,NA,NA,NA,NA,NA,NA,NA
be13c,Shallow Question,html.Page,3_0_0_0_0_1_0,NA,NA,form submission,20865.299999714,364966,364958,364972.5,385837.79999971,385838,2024-03-02T09:19:28Z,385839.336,NULL,Zuwachs,nyongeza,s,matilaba,udhibiti,hudhurio,matilaba,NA,NA,0,NA,NA,NA,NA,NA,NA,NA,NA,NA,NA,NA,NA,NA,NA,NA,NA,NA,NA,NA
be13c,"""Richtig""-Screen",canvas.Screen,3_0_0_0_0_1_1,NA,NA,skipped,NA,385839.69999981,NA,NA,385837.79999971,385839.79999971,2024-03-02T09:19:28Z,385839.336,NULL,Zuwachs,nyongeza,s,matilaba,udhibiti,hudhurio,NA,sdf,NA,0,NA,NA,NA,NA,NA,NA,NA,NA,NA,NA,NA,NA,NA,NA,NA,NA,NA,NA,NA
be13c,"""Falsch""-Screen",canvas.Screen,3_0_0_0_0_1_2,NA,NA,timeout,4999.964,385840.19999981,385839.336,385839.336,390822.6,390823.29999971,2024-03-02T09:19:33Z,390839.3,NULL,Zuwachs,nyongeza,s,matilaba,udhibiti,hudhurio,NA,sdf,0,0,NA,NA,NA,NA,NA,NA,NA,NA,NA,NA,NA,NA,NA,NA,NA,NA,NA,NA,NA
be13c,shallow,flow.Sequence,3_0_0_0_0_1,NA,NA,completion,25850.1,364965.9000001,364958,364972.5,390822.6,390823.5999999,2024-03-02T09:19:33Z,390839.3,NULL,Zuwachs,nyongeza,s,matilaba,udhibiti,hudhurio,NA,sdf,NA,0,NA,NA,NA,NA,NA,NA,NA,NA,NA,NA,NA,NA,NA,NA,NA,NA,NA,NA,NA
be13c,task,flow.Sequence,3_0_0_0_0,NA,NA,completion,25850.1,364965.79999971,364958,364972.5,390822.6,390823.79999971,2024-03-02T09:19:33Z,390839.3,NULL,Zuwachs,nyongeza,s,matilaba,udhibiti,hudhurio,NA,sdf,NA,0,NA,NA,NA,NA,NA,NA,NA,NA,NA,NA,NA,NA,NA,NA,NA,NA,NA,NA,NA
be13c,Deep Question,html.Page,3_0_0_0_1_0_0,NA,NA,form submission,10016.499999714,390823.9000001,390822.6,390839.3,400855.79999971,400856.0999999,2024-03-02T09:19:43Z,400872.7,NULL,System,maongozi,d,NA,NA,NA,huda,NA,NA,0,NA,NA,NA,NA,NA,NA,NA,NA,NA,NA,NA,NA,NA,NA,NA,NA,NA,NA,NA
be13c,"""Richtig""-Screen",canvas.Screen,3_0_0_0_1_0_1,NA,NA,skipped,NA,400857.69999981,NA,NA,400855.79999971,400857.79999971,2024-03-02T09:19:43Z,400872.7,NULL,System,maongozi,d,NA,NA,NA,NA,sdf,NA,0,NA,NA,NA,NA,NA,NA,NA,NA,NA,NA,NA,NA,NA,NA,NA,NA,NA,NA,NA
be13c,"""Falsch""-Screen",canvas.Screen,3_0_0_0_1_0_2,NA,NA,timeout,5000,400858.29999971,400856.032,400872.7,405856,405856.5999999,2024-03-02T09:19:48Z,405872.7,NULL,System,maongozi,d,NA,NA,NA,NA,sdf,0,0,NA,NA,NA,NA,NA,NA,NA,NA,NA,NA,NA,NA,NA,NA,NA,NA,NA,NA,NA
be13c,deep,flow.Sequence,3_0_0_0_1_0,NA,NA,completion,15016.7,390823.9000001,390822.6,390839.3,405856,405856.79999971,2024-03-02T09:19:48Z,405872.7,NULL,System,maongozi,d,NA,NA,NA,NA,sdf,NA,0,NA,NA,NA,NA,NA,NA,NA,NA,NA,NA,NA,NA,NA,NA,NA,NA,NA,NA,NA
be13c,shallow,flow.Sequence,3_0_0_0_1_1,NA,NA,skipped,NA,405857,NA,NA,405856,405857.0999999,2024-03-02T09:19:48Z,405872.7,NULL,System,maongozi,d,NA,NA,NA,NA,sdf,NA,0,NA,NA,NA,NA,NA,NA,NA,NA,NA,NA,NA,NA,NA,NA,NA,NA,NA,NA,NA
be13c,task,flow.Sequence,3_0_0_0_1,NA,NA,completion,15016.7,390823.9000001,390822.6,390839.3,405856,405857.19999981,2024-03-02T09:19:48Z,405872.7,NULL,System,maongozi,d,NA,NA,NA,NA,sdf,NA,0,NA,NA,NA,NA,NA,NA,NA,NA,NA,NA,NA,NA,NA,NA,NA,NA,NA,NA,NA
be13c,Deep Question,html.Page,3_0_0_0_2_0_0,NA,NA,form submission,10326.200000095,405857.19999981,405856,405872.7,416198.9000001,416199.19999981,2024-03-02T09:19:58Z,416205.8,NULL,Lawine,banguko,d,NA,NA,NA,lowan,NA,NA,0,NA,NA,NA,NA,NA,NA,NA,NA,NA,NA,NA,NA,NA,NA,NA,NA,NA,NA,NA
be13c,"""Richtig""-Screen",canvas.Screen,3_0_0_0_2_0_1,NA,NA,skipped,NA,416200.79999971,NA,NA,416198.9000001,416200.9000001,2024-03-02T09:19:58Z,416205.8,NULL,Lawine,banguko,d,NA,NA,NA,NA,sdf,NA,0,NA,NA,NA,NA,NA,NA,NA,NA,NA,NA,NA,NA,NA,NA,NA,NA,NA,NA,NA
be13c,"""Falsch""-Screen",canvas.Screen,3_0_0_0_2_0_2,NA,NA,timeout,5000.1,416201.5,416189.3,416205.8,421189.3,421190.19999981,2024-03-02T09:20:03Z,421205.9,NULL,Lawine,banguko,d,NA,NA,NA,NA,sdf,0,0,NA,NA,NA,NA,NA,NA,NA,NA,NA,NA,NA,NA,NA,NA,NA,NA,NA,NA,NA
be13c,deep,flow.Sequence,3_0_0_0_2_0,NA,NA,completion,15316.6,405857.19999981,405856,405872.7,421189.3,421190.4000001,2024-03-02T09:20:03Z,421205.9,NULL,Lawine,banguko,d,NA,NA,NA,NA,sdf,NA,0,NA,NA,NA,NA,NA,NA,NA,NA,NA,NA,NA,NA,NA,NA,NA,NA,NA,NA,NA
be13c,shallow,flow.Sequence,3_0_0_0_2_1,NA,NA,skipped,NA,421190.5999999,NA,NA,421189.3,421190.5999999,2024-03-02T09:20:03Z,421205.9,NULL,Lawine,banguko,d,NA,NA,NA,NA,sdf,NA,0,NA,NA,NA,NA,NA,NA,NA,NA,NA,NA,NA,NA,NA,NA,NA,NA,NA,NA,NA
be13c,task,flow.Sequence,3_0_0_0_2,NA,NA,completion,15316.6,405857.19999981,405856,405872.7,421189.3,421190.79999971,2024-03-02T09:20:03Z,421205.9,NULL,Lawine,banguko,d,NA,NA,NA,NA,sdf,NA,0,NA,NA,NA,NA,NA,NA,NA,NA,NA,NA,NA,NA,NA,NA,NA,NA,NA,NA,NA
be13c,deep,flow.Sequence,3_0_0_0_3_0,NA,NA,skipped,NA,421190.79999971,NA,NA,421189.3,421191,2024-03-02T09:20:03Z,421205.9,NULL,Körper,kiwiliwili,s,mapambano,mpatanishi,kiolezo,NA,sdf,NA,0,NA,NA,NA,NA,NA,NA,NA,NA,NA,NA,NA,NA,NA,NA,NA,NA,NA,NA,NA
be13c,Shallow Question,html.Page,3_0_0_0_3_1_0,NA,NA,form submission,4529.6,421191,421189.3,421205.9,425735.5,425735.69999981,2024-03-02T09:20:08Z,425739.2,NULL,Körper,kiwiliwili,s,mapambano,mpatanishi,kiolezo,kiolezo,NA,NA,0,NA,NA,NA,NA,NA,NA,NA,NA,NA,NA,NA,NA,NA,NA,NA,NA,NA,NA,NA
be13c,"""Richtig""-Screen",canvas.Screen,3_0_0_0_3_1_1,NA,NA,skipped,NA,425737.5999999,NA,NA,425735.5,425737.69999981,2024-03-02T09:20:08Z,425739.2,NULL,Körper,kiwiliwili,s,mapambano,mpatanishi,kiolezo,NA,sdf,NA,0,NA,NA,NA,NA,NA,NA,NA,NA,NA,NA,NA,NA,NA,NA,NA,NA,NA,NA,NA
be13c,"""Falsch""-Screen",canvas.Screen,3_0_0_0_3_1_2,NA,NA,timeout,5000.1,425738.19999981,425722.67,425739.2,430722.6,430723.29999971,2024-03-02T09:20:13Z,430739.3,NULL,Körper,kiwiliwili,s,mapambano,mpatanishi,kiolezo,NA,sdf,0,0,NA,NA,NA,NA,NA,NA,NA,NA,NA,NA,NA,NA,NA,NA,NA,NA,NA,NA,NA
be13c,shallow,flow.Sequence,3_0_0_0_3_1,NA,NA,completion,9516.7,421191,421189.3,421205.9,430722.6,430723.5,2024-03-02T09:20:13Z,430739.3,NULL,Körper,kiwiliwili,s,mapambano,mpatanishi,kiolezo,NA,sdf,NA,0,NA,NA,NA,NA,NA,NA,NA,NA,NA,NA,NA,NA,NA,NA,NA,NA,NA,NA,NA
be13c,task,flow.Sequence,3_0_0_0_3,NA,NA,completion,9516.7,421190.79999971,421189.3,421205.9,430722.6,430723.69999981,2024-03-02T09:20:13Z,430739.3,NULL,Körper,kiwiliwili,s,mapambano,mpatanishi,kiolezo,NA,sdf,NA,0,NA,NA,NA,NA,NA,NA,NA,NA,NA,NA,NA,NA,NA,NA,NA,NA,NA,NA,NA
be13c,Deep Question,html.Page,3_0_0_0_4_0_0,NA,NA,form submission,10173.299999905,430723.79999971,430722.6,430739.3,440912.5999999,440912.9000001,2024-03-02T09:20:23Z,440922.5,NULL,Vorsorge,tahadhari,d,NA,NA,NA,gungo,NA,NA,0,NA,NA,NA,NA,NA,NA,NA,NA,NA,NA,NA,NA,NA,NA,NA,NA,NA,NA,NA
be13c,"""Richtig""-Screen",canvas.Screen,3_0_0_0_4_0_1,NA,NA,skipped,NA,440914.4000001,NA,NA,440912.5999999,440914.5,2024-03-02T09:20:23Z,440922.5,NULL,Vorsorge,tahadhari,d,NA,NA,NA,NA,sdf,NA,0,NA,NA,NA,NA,NA,NA,NA,NA,NA,NA,NA,NA,NA,NA,NA,NA,NA,NA,NA
be13c,"""Falsch""-Screen",canvas.Screen,3_0_0_0_4_0_2,NA,NA,timeout,5000.1,440915,440905.9,440922.5,445905.9,445906.5999999,2024-03-02T09:20:28Z,445922.6,NULL,Vorsorge,tahadhari,d,NA,NA,NA,NA,sdf,0,0,NA,NA,NA,NA,NA,NA,NA,NA,NA,NA,NA,NA,NA,NA,NA,NA,NA,NA,NA
be13c,deep,flow.Sequence,3_0_0_0_4_0,NA,NA,completion,15166.6,430723.79999971,430722.6,430739.3,445905.9,445906.9000001,2024-03-02T09:20:28Z,445922.6,NULL,Vorsorge,tahadhari,d,NA,NA,NA,NA,sdf,NA,0,NA,NA,NA,NA,NA,NA,NA,NA,NA,NA,NA,NA,NA,NA,NA,NA,NA,NA,NA
be13c,shallow,flow.Sequence,3_0_0_0_4_1,NA,NA,skipped,NA,445907,NA,NA,445905.9,445907.0999999,2024-03-02T09:20:28Z,445922.6,NULL,Vorsorge,tahadhari,d,NA,NA,NA,NA,sdf,NA,0,NA,NA,NA,NA,NA,NA,NA,NA,NA,NA,NA,NA,NA,NA,NA,NA,NA,NA,NA
be13c,task,flow.Sequence,3_0_0_0_4,NA,NA,completion,15166.6,430723.79999971,430722.6,430739.3,445905.9,445907.29999971,2024-03-02T09:20:28Z,445922.6,NULL,Vorsorge,tahadhari,d,NA,NA,NA,NA,sdf,NA,0,NA,NA,NA,NA,NA,NA,NA,NA,NA,NA,NA,NA,NA,NA,NA,NA,NA,NA,NA
be13c,Deep Question,html.Page,3_0_0_0_5_0_0,NA,NA,form submission,10199.699999714,445907.29999971,445905.9,445922.6,456122.29999971,456122.5999999,2024-03-02T09:20:38Z,456139.6,NULL,Konkurrent,mshindani,d,NA,NA,NA,esute,NA,NA,0,NA,NA,NA,NA,NA,NA,NA,NA,NA,NA,NA,NA,NA,NA,NA,NA,NA,NA,NA
be13c,"""Richtig""-Screen",canvas.Screen,3_0_0_0_5_0_1,NA,NA,skipped,NA,456124.19999981,NA,NA,456122.29999971,456124.29999971,2024-03-02T09:20:38Z,456139.6,NULL,Konkurrent,mshindani,d,NA,NA,NA,NA,sdf,NA,0,NA,NA,NA,NA,NA,NA,NA,NA,NA,NA,NA,NA,NA,NA,NA,NA,NA,NA,NA
be13c,"""Falsch""-Screen",canvas.Screen,3_0_0_0_5_0_2,NA,NA,timeout,4999.6,456124.79999971,456123.636,456139.6,461122.6,461123.29999971,2024-03-02T09:20:43Z,461139.2,NULL,Konkurrent,mshindani,d,NA,NA,NA,NA,sdf,0,0,NA,NA,NA,NA,NA,NA,NA,NA,NA,NA,NA,NA,NA,NA,NA,NA,NA,NA,NA
be13c,deep,flow.Sequence,3_0_0_0_5_0,NA,NA,completion,15200,445907.29999971,445905.9,445922.6,461122.6,461123.5999999,2024-03-02T09:20:43Z,461139.2,NULL,Konkurrent,mshindani,d,NA,NA,NA,NA,sdf,NA,0,NA,NA,NA,NA,NA,NA,NA,NA,NA,NA,NA,NA,NA,NA,NA,NA,NA,NA,NA
be13c,shallow,flow.Sequence,3_0_0_0_5_1,NA,NA,skipped,NA,461123.69999981,NA,NA,461122.6,461123.79999971,2024-03-02T09:20:43Z,461139.2,NULL,Konkurrent,mshindani,d,NA,NA,NA,NA,sdf,NA,0,NA,NA,NA,NA,NA,NA,NA,NA,NA,NA,NA,NA,NA,NA,NA,NA,NA,NA,NA
be13c,task,flow.Sequence,3_0_0_0_5,NA,NA,completion,15200,445907.29999971,445905.9,445922.6,461122.6,461123.9000001,2024-03-02T09:20:43Z,461139.2,NULL,Konkurrent,mshindani,d,NA,NA,NA,NA,sdf,NA,0,NA,NA,NA,NA,NA,NA,NA,NA,NA,NA,NA,NA,NA,NA,NA,NA,NA,NA,NA
be13c,deep,flow.Sequence,3_0_0_0_6_0,NA,NA,skipped,NA,461123.9000001,NA,NA,461122.6,461124.0999999,2024-03-02T09:20:43Z,461139.2,NULL,Symbol,kielezo,s,kinyume,nderemo,utayari,NA,sdf,NA,0,NA,NA,NA,NA,NA,NA,NA,NA,NA,NA,NA,NA,NA,NA,NA,NA,NA,NA,NA
be13c,Shallow Question,html.Page,3_0_0_0_6_1_0,NA,NA,form submission,4724.2000000954,461124.0999999,461122.6,461139.2,465863.4000001,465863.5,2024-03-02T09:20:48Z,465872.5,NULL,Symbol,kielezo,s,kinyume,nderemo,utayari,nderemo,NA,NA,0,NA,NA,NA,NA,NA,NA,NA,NA,NA,NA,NA,NA,NA,NA,NA,NA,NA,NA,NA
be13c,"""Richtig""-Screen",canvas.Screen,3_0_0_0_6_1_1,NA,NA,skipped,NA,465865.29999971,NA,NA,465863.4000001,465865.4000001,2024-03-02T09:20:48Z,465872.5,NULL,Symbol,kielezo,s,kinyume,nderemo,utayari,NA,sdf,NA,0,NA,NA,NA,NA,NA,NA,NA,NA,NA,NA,NA,NA,NA,NA,NA,NA,NA,NA,NA
be13c,"""Falsch""-Screen",canvas.Screen,3_0_0_0_6_1_2,NA,NA,timeout,5000.1,465865.79999971,465855.996,465872.5,470855.9,470856.5999999,2024-03-02T09:20:53Z,470872.6,NULL,Symbol,kielezo,s,kinyume,nderemo,utayari,NA,sdf,0,0,NA,NA,NA,NA,NA,NA,NA,NA,NA,NA,NA,NA,NA,NA,NA,NA,NA,NA,NA
be13c,shallow,flow.Sequence,3_0_0_0_6_1,NA,NA,completion,9716.7,461124.0999999,461122.6,461139.2,470855.9,470856.9000001,2024-03-02T09:20:53Z,470872.6,NULL,Symbol,kielezo,s,kinyume,nderemo,utayari,NA,sdf,NA,0,NA,NA,NA,NA,NA,NA,NA,NA,NA,NA,NA,NA,NA,NA,NA,NA,NA,NA,NA
be13c,task,flow.Sequence,3_0_0_0_6,NA,NA,completion,9716.7,461123.9000001,461122.6,461139.2,470855.9,470857.0999999,2024-03-02T09:20:53Z,470872.6,NULL,Symbol,kielezo,s,kinyume,nderemo,utayari,NA,sdf,NA,0,NA,NA,NA,NA,NA,NA,NA,NA,NA,NA,NA,NA,NA,NA,NA,NA,NA,NA,NA
be13c,deep,flow.Sequence,3_0_0_0_7_0,NA,NA,skipped,NA,470857.0999999,NA,NA,470855.9,470857.19999981,2024-03-02T09:20:53Z,470872.6,NULL,Übersicht,kilindo,s,mgusano,chipukizi,kulinganisha,NA,sdf,NA,0,NA,NA,NA,NA,NA,NA,NA,NA,NA,NA,NA,NA,NA,NA,NA,NA,NA,NA,NA
be13c,Shallow Question,html.Page,3_0_0_0_7_1_0,NA,NA,form submission,6411.8000000954,470857.29999971,470855.9,470872.6,477284.4000001,477284.5999999,2024-03-02T09:20:59Z,477289.1,NULL,Übersicht,kilindo,s,mgusano,chipukizi,kulinganisha,kulinganisha,NA,NA,0,NA,NA,NA,NA,NA,NA,NA,NA,NA,NA,NA,NA,NA,NA,NA,NA,NA,NA,NA
be13c,"""Richtig""-Screen",canvas.Screen,3_0_0_0_7_1_1,NA,NA,skipped,NA,477286.29999971,NA,NA,477284.4000001,477286.4000001,2024-03-02T09:20:59Z,477289.1,NULL,Übersicht,kilindo,s,mgusano,chipukizi,kulinganisha,NA,sdf,NA,0,NA,NA,NA,NA,NA,NA,NA,NA,NA,NA,NA,NA,NA,NA,NA,NA,NA,NA,NA
be13c,"""Falsch""-Screen",canvas.Screen,3_0_0_0_7_1_2,NA,NA,timeout,5000.2,477286.9000001,477272.896,477289.1,482272.6,482273.29999971,2024-03-02T09:21:04Z,482289.3,NULL,Übersicht,kilindo,s,mgusano,chipukizi,kulinganisha,NA,sdf,0,0,NA,NA,NA,NA,NA,NA,NA,NA,NA,NA,NA,NA,NA,NA,NA,NA,NA,NA,NA
be13c,shallow,flow.Sequence,3_0_0_0_7_1,NA,NA,completion,11400,470857.29999971,470855.9,470872.6,482272.6,482273.5999999,2024-03-02T09:21:04Z,482289.3,NULL,Übersicht,kilindo,s,mgusano,chipukizi,kulinganisha,NA,sdf,NA,0,NA,NA,NA,NA,NA,NA,NA,NA,NA,NA,NA,NA,NA,NA,NA,NA,NA,NA,NA
be13c,task,flow.Sequence,3_0_0_0_7,NA,NA,completion,11400,470857.0999999,470855.9,470872.6,482272.6,482273.69999981,2024-03-02T09:21:04Z,482289.3,NULL,Übersicht,kilindo,s,mgusano,chipukizi,kulinganisha,NA,sdf,NA,0,NA,NA,NA,NA,NA,NA,NA,NA,NA,NA,NA,NA,NA,NA,NA,NA,NA,NA,NA
be13c,block,flow.Loop,3_0_0_0,NA,NA,completion,117300.1,364965.79999971,364958,364972.5,482272.6,482273.9000001,2024-03-02T09:21:04Z,482289.3,NULL,NA,NA,NA,NA,NA,NA,NA,sdf,NA,0,NA,NA,NA,NA,NA,NA,NA,NA,NA,NA,NA,NA,NA,NA,NA,NA,NA,NA,NA
be13c,weiter,canvas.Screen,3_0_0_1,sdf,keypress(Space),response,2723.3999998093,482273.9000001,482272.6,482289.3,485012.69999981,485013.5,2024-03-02T09:21:07Z,485055.988,NULL,NA,NA,NA,NA,NA,NA,NA,sdf,NA,0,NA,NA,NA,NA,NA,NA,NA,NA,NA,NA,NA,NA,NA,NA,NA,NA,NA,NA,NA
be13c,check continue,flow.Sequence,3_0_0,NA,NA,completion,120040.19999980999,364965.79999971,364958,364972.5,485012.69999981,485013.69999981,2024-03-02T09:21:07Z,485055.988,NULL,NA,NA,NA,NA,NA,NA,NA,sdf,NA,0,NA,NA,NA,NA,NA,NA,NA,NA,NA,NA,NA,NA,NA,NA,NA,NA,NA,NA,NA
be13c,Deep Question,html.Page,3_0_1_0_0_0_0,NA,NA,form submission,6731.512,485057.69999981,485055.988,485055.988,491787.5,491787.69999981,2024-03-02T09:21:14Z,491789.332,NULL,Lawine,banguko,d,NA,NA,NA,gfhg,NA,NA,1,NA,NA,NA,NA,NA,NA,NA,NA,NA,NA,NA,NA,NA,NA,NA,NA,NA,NA,NA
be13c,"""Richtig""-Screen",canvas.Screen,3_0_1_0_0_0_1,NA,NA,skipped,NA,491789.4000001,NA,NA,491787.5,491789.5,2024-03-02T09:21:14Z,491789.332,NULL,Lawine,banguko,d,NA,NA,NA,NA,sdfdsf,NA,1,NA,NA,NA,NA,NA,NA,NA,NA,NA,NA,NA,NA,NA,NA,NA,NA,NA,NA,NA
be13c,"""Falsch""-Screen",canvas.Screen,3_0_1_0_0_0_2,NA,NA,timeout,4999.868,491790.19999981,491789.332,491789.332,496772.5,496773.29999971,2024-03-02T09:21:19Z,496789.2,NULL,Lawine,banguko,d,NA,NA,NA,NA,sdfdsf,0,1,NA,NA,NA,NA,NA,NA,NA,NA,NA,NA,NA,NA,NA,NA,NA,NA,NA,NA,NA
be13c,deep,flow.Sequence,3_0_1_0_0_0,NA,NA,completion,11716.512,485057.69999981,485055.988,485055.988,496772.5,496773.5,2024-03-02T09:21:19Z,496789.2,NULL,Lawine,banguko,d,NA,NA,NA,NA,sdfdsf,NA,1,NA,NA,NA,NA,NA,NA,NA,NA,NA,NA,NA,NA,NA,NA,NA,NA,NA,NA,NA
be13c,shallow,flow.Sequence,3_0_1_0_0_1,NA,NA,skipped,NA,496773.5999999,NA,NA,496772.5,496773.79999971,2024-03-02T09:21:19Z,496789.2,NULL,Lawine,banguko,d,NA,NA,NA,NA,sdfdsf,NA,1,NA,NA,NA,NA,NA,NA,NA,NA,NA,NA,NA,NA,NA,NA,NA,NA,NA,NA,NA
be13c,task,flow.Sequence,3_0_1_0_0,NA,NA,completion,11716.512,485057.69999981,485055.988,485055.988,496772.5,496773.9000001,2024-03-02T09:21:19Z,496789.2,NULL,Lawine,banguko,d,NA,NA,NA,NA,sdfdsf,NA,1,NA,NA,NA,NA,NA,NA,NA,NA,NA,NA,NA,NA,NA,NA,NA,NA,NA,NA,NA
be13c,deep,flow.Sequence,3_0_1_0_1_0,NA,NA,skipped,NA,496773.9000001,NA,NA,496772.5,496774,2024-03-02T09:21:19Z,496789.2,NULL,Körper,kiwiliwili,s,mapambano,mpatanishi,kiolezo,NA,sdfdsf,NA,1,NA,NA,NA,NA,NA,NA,NA,NA,NA,NA,NA,NA,NA,NA,NA,NA,NA,NA,NA
be13c,Shallow Question,html.Page,3_0_1_0_1_1_0,NA,NA,form submission,4312.0999997139,496774.0999999,496772.5,496789.2,501101.29999971,501101.5,2024-03-02T09:21:23Z,501105.7,NULL,Körper,kiwiliwili,s,mapambano,mpatanishi,kiolezo,kiwiliwili,NA,NA,1,NA,NA,NA,NA,NA,NA,NA,NA,NA,NA,NA,NA,NA,NA,NA,NA,NA,NA,NA
be13c,"""Richtig""-Screen",canvas.Screen,3_0_1_0_1_1_1,NA,NA,timeout,5000.1,501103.0999999,501094.496,501105.7,506089.2,506089.9000001,2024-03-02T09:21:28Z,506105.8,NULL,Körper,kiwiliwili,s,mapambano,mpatanishi,kiolezo,NA,sdfdsf,1,1,NA,NA,NA,NA,NA,NA,NA,NA,NA,NA,NA,NA,NA,NA,NA,NA,NA,NA,NA
be13c,"""Falsch""-Screen",canvas.Screen,3_0_1_0_1_1_2,NA,NA,skipped,NA,506093.79999971,NA,NA,506089.2,506094,2024-03-02T09:21:28Z,506105.8,NULL,Körper,kiwiliwili,s,mapambano,mpatanishi,kiolezo,NA,sdfdsf,NA,1,NA,NA,NA,NA,NA,NA,NA,NA,NA,NA,NA,NA,NA,NA,NA,NA,NA,NA,NA
be13c,shallow,flow.Sequence,3_0_1_0_1_1,NA,NA,completion,9300,496774.0999999,496772.5,496789.2,506089.2,506094.19999981,2024-03-02T09:21:28Z,506105.8,NULL,Körper,kiwiliwili,s,mapambano,mpatanishi,kiolezo,NA,sdfdsf,NA,1,NA,NA,NA,NA,NA,NA,NA,NA,NA,NA,NA,NA,NA,NA,NA,NA,NA,NA,NA
be13c,task,flow.Sequence,3_0_1_0_1,NA,NA,completion,9300,496773.9000001,496772.5,496789.2,506089.2,506094.29999971,2024-03-02T09:21:28Z,506105.8,NULL,Körper,kiwiliwili,s,mapambano,mpatanishi,kiolezo,NA,sdfdsf,NA,1,NA,NA,NA,NA,NA,NA,NA,NA,NA,NA,NA,NA,NA,NA,NA,NA,NA,NA,NA
be13c,deep,flow.Sequence,3_0_1_0_2_0,NA,NA,skipped,NA,506094.5,NA,NA,506089.2,506094.5999999,2024-03-02T09:21:28Z,506105.8,NULL,Symbol,kielezo,s,kinyume,nderemo,utayari,NA,sdfdsf,NA,1,NA,NA,NA,NA,NA,NA,NA,NA,NA,NA,NA,NA,NA,NA,NA,NA,NA,NA,NA
be13c,Shallow Question,html.Page,3_0_1_0_2_1_0,NA,NA,form submission,10555.499999714,506094.5999999,506089.2,506105.8,516661.29999971,516661.5999999,2024-03-02T09:21:39Z,516689.2,NULL,Symbol,kielezo,s,kinyume,nderemo,utayari,kielezo,NA,NA,1,NA,NA,NA,NA,NA,NA,NA,NA,NA,NA,NA,NA,NA,NA,NA,NA,NA,NA,NA
be13c,"""Richtig""-Screen",canvas.Screen,3_0_1_0_2_1_1,NA,NA,timeout,5000,516663.19999981,516672.5,516689.2,521672.5,521673.19999981,2024-03-02T09:21:44Z,521689.2,NULL,Symbol,kielezo,s,kinyume,nderemo,utayari,NA,sdfdsf,1,1,NA,NA,NA,NA,NA,NA,NA,NA,NA,NA,NA,NA,NA,NA,NA,NA,NA,NA,NA
be13c,"""Falsch""-Screen",canvas.Screen,3_0_1_0_2_1_2,NA,NA,skipped,NA,521677,NA,NA,521672.5,521677.19999981,2024-03-02T09:21:44Z,521689.2,NULL,Symbol,kielezo,s,kinyume,nderemo,utayari,NA,sdfdsf,NA,1,NA,NA,NA,NA,NA,NA,NA,NA,NA,NA,NA,NA,NA,NA,NA,NA,NA,NA,NA
be13c,shallow,flow.Sequence,3_0_1_0_2_1,NA,NA,completion,15566.7,506094.5999999,506089.2,506105.8,521672.5,521677.4000001,2024-03-02T09:21:44Z,521689.2,NULL,Symbol,kielezo,s,kinyume,nderemo,utayari,NA,sdfdsf,NA,1,NA,NA,NA,NA,NA,NA,NA,NA,NA,NA,NA,NA,NA,NA,NA,NA,NA,NA,NA
be13c,task,flow.Sequence,3_0_1_0_2,NA,NA,completion,15566.7,506094.4000001,506089.2,506105.8,521672.5,521677.5,2024-03-02T09:21:44Z,521689.2,NULL,Symbol,kielezo,s,kinyume,nderemo,utayari,NA,sdfdsf,NA,1,NA,NA,NA,NA,NA,NA,NA,NA,NA,NA,NA,NA,NA,NA,NA,NA,NA,NA,NA
be13c,Deep Question,html.Page,3_0_1_0_3_0_0,NA,NA,form submission,4208.3999999046,521677.5999999,521672.5,521689.2,525897.5999999,525897.69999981,2024-03-02T09:21:48Z,525905.7,NULL,Vorsorge,tahadhari,d,NA,NA,NA,hh,NA,NA,1,NA,NA,NA,NA,NA,NA,NA,NA,NA,NA,NA,NA,NA,NA,NA,NA,NA,NA,NA
be13c,"""Richtig""-Screen",canvas.Screen,3_0_1_0_3_0_1,NA,NA,skipped,NA,525899.29999971,NA,NA,525897.5999999,525899.4000001,2024-03-02T09:21:48Z,525905.7,NULL,Vorsorge,tahadhari,d,NA,NA,NA,NA,sdfdsf,NA,1,NA,NA,NA,NA,NA,NA,NA,NA,NA,NA,NA,NA,NA,NA,NA,NA,NA,NA,NA
be13c,"""Falsch""-Screen",canvas.Screen,3_0_1_0_3_0_2,NA,NA,timeout,5000.2000000001,525900,525889.6,525905.7,530889.2,530889.79999971,2024-03-02T09:21:53Z,530905.9,NULL,Vorsorge,tahadhari,d,NA,NA,NA,NA,sdfdsf,0,1,NA,NA,NA,NA,NA,NA,NA,NA,NA,NA,NA,NA,NA,NA,NA,NA,NA,NA,NA
be13c,deep,flow.Sequence,3_0_1_0_3_0,NA,NA,completion,9199.9999999999,521677.5999999,521672.5,521689.2,530889.2,530890.19999981,2024-03-02T09:21:53Z,530905.9,NULL,Vorsorge,tahadhari,d,NA,NA,NA,NA,sdfdsf,NA,1,NA,NA,NA,NA,NA,NA,NA,NA,NA,NA,NA,NA,NA,NA,NA,NA,NA,NA,NA
be13c,shallow,flow.Sequence,3_0_1_0_3_1,NA,NA,skipped,NA,530890.29999971,NA,NA,530889.2,530890.5,2024-03-02T09:21:53Z,530905.9,NULL,Vorsorge,tahadhari,d,NA,NA,NA,NA,sdfdsf,NA,1,NA,NA,NA,NA,NA,NA,NA,NA,NA,NA,NA,NA,NA,NA,NA,NA,NA,NA,NA
be13c,task,flow.Sequence,3_0_1_0_3,NA,NA,completion,9199.9999999999,521677.5999999,521672.5,521689.2,530889.2,530890.5,2024-03-02T09:21:53Z,530905.9,NULL,Vorsorge,tahadhari,d,NA,NA,NA,NA,sdfdsf,NA,1,NA,NA,NA,NA,NA,NA,NA,NA,NA,NA,NA,NA,NA,NA,NA,NA,NA,NA,NA
be13c,Deep Question,html.Page,3_0_1_0_4_0_0,NA,NA,form submission,5512.5000000953,530890.69999981,530889.2,530905.9,536418.4000001,536418.5999999,2024-03-02T09:21:58Z,536422.3,NULL,System,maongozi,d,NA,NA,NA,tgh,NA,NA,1,NA,NA,NA,NA,NA,NA,NA,NA,NA,NA,NA,NA,NA,NA,NA,NA,NA,NA,NA
be13c,"""Richtig""-Screen",canvas.Screen,3_0_1_0_4_0_1,NA,NA,skipped,NA,536420.29999971,NA,NA,536418.4000001,536420.4000001,2024-03-02T09:21:58Z,536422.3,NULL,System,maongozi,d,NA,NA,NA,NA,sdfdsf,NA,1,NA,NA,NA,NA,NA,NA,NA,NA,NA,NA,NA,NA,NA,NA,NA,NA,NA,NA,NA
be13c,"""Falsch""-Screen",canvas.Screen,3_0_1_0_4_0_2,NA,NA,timeout,5000.2,536421,536405.942,536422.3,541405.9,541406.5,2024-03-02T09:22:03Z,541422.5,NULL,System,maongozi,d,NA,NA,NA,NA,sdfdsf,0,1,NA,NA,NA,NA,NA,NA,NA,NA,NA,NA,NA,NA,NA,NA,NA,NA,NA,NA,NA
be13c,deep,flow.Sequence,3_0_1_0_4_0,NA,NA,completion,10500,530890.69999981,530889.2,530905.9,541405.9,541406.9000001,2024-03-02T09:22:03Z,541422.5,NULL,System,maongozi,d,NA,NA,NA,NA,sdfdsf,NA,1,NA,NA,NA,NA,NA,NA,NA,NA,NA,NA,NA,NA,NA,NA,NA,NA,NA,NA,NA
be13c,shallow,flow.Sequence,3_0_1_0_4_1,NA,NA,skipped,NA,541407,NA,NA,541405.9,541407.0999999,2024-03-02T09:22:03Z,541422.5,NULL,System,maongozi,d,NA,NA,NA,NA,sdfdsf,NA,1,NA,NA,NA,NA,NA,NA,NA,NA,NA,NA,NA,NA,NA,NA,NA,NA,NA,NA,NA
be13c,task,flow.Sequence,3_0_1_0_4,NA,NA,completion,10500,530890.69999981,530889.2,530905.9,541405.9,541407.19999981,2024-03-02T09:22:03Z,541422.5,NULL,System,maongozi,d,NA,NA,NA,NA,sdfdsf,NA,1,NA,NA,NA,NA,NA,NA,NA,NA,NA,NA,NA,NA,NA,NA,NA,NA,NA,NA,NA
be13c,Deep Question,html.Page,3_0_1_0_5_0_0,NA,NA,form submission,4934.9000000954,541407.4000001,541405.9,541422.5,546357.4000001,546357.5999999,2024-03-02T09:22:08Z,546372.4,NULL,Konkurrent,mshindani,d,NA,NA,NA,kl,NA,NA,1,NA,NA,NA,NA,NA,NA,NA,NA,NA,NA,NA,NA,NA,NA,NA,NA,NA,NA,NA
be13c,"""Richtig""-Screen",canvas.Screen,3_0_1_0_5_0_1,NA,NA,skipped,NA,546359.79999971,NA,NA,546357.4000001,546359.9000001,2024-03-02T09:22:08Z,546372.4,NULL,Konkurrent,mshindani,d,NA,NA,NA,NA,sdfdsf,NA,1,NA,NA,NA,NA,NA,NA,NA,NA,NA,NA,NA,NA,NA,NA,NA,NA,NA,NA,NA
be13c,"""Falsch""-Screen",canvas.Screen,3_0_1_0_5_0_2,NA,NA,timeout,5000.1,546360.4000001,546356.046,546372.4,551355.8,551356.4000001,2024-03-02T09:22:13Z,551372.5,NULL,Konkurrent,mshindani,d,NA,NA,NA,NA,sdfdsf,0,1,NA,NA,NA,NA,NA,NA,NA,NA,NA,NA,NA,NA,NA,NA,NA,NA,NA,NA,NA
be13c,deep,flow.Sequence,3_0_1_0_5_0,NA,NA,completion,9933.3,541407.29999971,541405.9,541422.5,551355.8,551356.69999981,2024-03-02T09:22:13Z,551372.5,NULL,Konkurrent,mshindani,d,NA,NA,NA,NA,sdfdsf,NA,1,NA,NA,NA,NA,NA,NA,NA,NA,NA,NA,NA,NA,NA,NA,NA,NA,NA,NA,NA
be13c,shallow,flow.Sequence,3_0_1_0_5_1,NA,NA,skipped,NA,551356.79999971,NA,NA,551355.8,551356.79999971,2024-03-02T09:22:13Z,551372.5,NULL,Konkurrent,mshindani,d,NA,NA,NA,NA,sdfdsf,NA,1,NA,NA,NA,NA,NA,NA,NA,NA,NA,NA,NA,NA,NA,NA,NA,NA,NA,NA,NA
be13c,task,flow.Sequence,3_0_1_0_5,NA,NA,completion,9933.3,541407.29999971,541405.9,541422.5,551355.8,551357,2024-03-02T09:22:13Z,551372.5,NULL,Konkurrent,mshindani,d,NA,NA,NA,NA,sdfdsf,NA,1,NA,NA,NA,NA,NA,NA,NA,NA,NA,NA,NA,NA,NA,NA,NA,NA,NA,NA,NA
be13c,deep,flow.Sequence,3_0_1_0_6_0,NA,NA,skipped,NA,551357.0999999,NA,NA,551355.8,551357.0999999,2024-03-02T09:22:13Z,551372.5,NULL,Übersicht,kilindo,s,mgusano,chipukizi,kulinganisha,NA,sdfdsf,NA,1,NA,NA,NA,NA,NA,NA,NA,NA,NA,NA,NA,NA,NA,NA,NA,NA,NA,NA,NA
be13c,Shallow Question,html.Page,3_0_1_0_6_1_0,NA,NA,form submission,6981.7999997139,551357.29999971,551355.8,551372.5,558354.29999971,558354.5,2024-03-02T09:22:20Z,558355.854,NULL,Übersicht,kilindo,s,mgusano,chipukizi,kulinganisha,kilindo,NA,NA,1,NA,NA,NA,NA,NA,NA,NA,NA,NA,NA,NA,NA,NA,NA,NA,NA,NA,NA,NA
be13c,"""Richtig""-Screen",canvas.Screen,3_0_1_0_6_1_1,NA,NA,timeout,4999.8459999999,558356.19999981,558355.854,558355.854,563339.1,563339.69999981,2024-03-02T09:22:25Z,563355.7,NULL,Übersicht,kilindo,s,mgusano,chipukizi,kulinganisha,NA,sdfdsf,1,1,NA,NA,NA,NA,NA,NA,NA,NA,NA,NA,NA,NA,NA,NA,NA,NA,NA,NA,NA
be13c,"""Falsch""-Screen",canvas.Screen,3_0_1_0_6_1_2,NA,NA,skipped,NA,563343.5999999,NA,NA,563339.1,563343.69999981,2024-03-02T09:22:25Z,563355.7,NULL,Übersicht,kilindo,s,mgusano,chipukizi,kulinganisha,NA,sdfdsf,NA,1,NA,NA,NA,NA,NA,NA,NA,NA,NA,NA,NA,NA,NA,NA,NA,NA,NA,NA,NA
be13c,shallow,flow.Sequence,3_0_1_0_6_1,NA,NA,completion,11966.6,551357.19999981,551355.8,551372.5,563339.1,563343.9000001,2024-03-02T09:22:25Z,563355.7,NULL,Übersicht,kilindo,s,mgusano,chipukizi,kulinganisha,NA,sdfdsf,NA,1,NA,NA,NA,NA,NA,NA,NA,NA,NA,NA,NA,NA,NA,NA,NA,NA,NA,NA,NA
be13c,task,flow.Sequence,3_0_1_0_6,NA,NA,completion,11966.6,551357.0999999,551355.8,551372.5,563339.1,563344.0999999,2024-03-02T09:22:25Z,563355.7,NULL,Übersicht,kilindo,s,mgusano,chipukizi,kulinganisha,NA,sdfdsf,NA,1,NA,NA,NA,NA,NA,NA,NA,NA,NA,NA,NA,NA,NA,NA,NA,NA,NA,NA,NA
be13c,deep,flow.Sequence,3_0_1_0_7_0,NA,NA,skipped,NA,563344.19999981,NA,NA,563339.1,563344.19999981,2024-03-02T09:22:25Z,563355.7,NULL,Zuwachs,nyongeza,s,matilaba,udhibiti,hudhurio,NA,sdfdsf,NA,1,NA,NA,NA,NA,NA,NA,NA,NA,NA,NA,NA,NA,NA,NA,NA,NA,NA,NA,NA
be13c,Shallow Question,html.Page,3_0_1_0_7_1_0,NA,NA,form submission,9041.5999997139,563344.29999971,563339.1,563355.7,572397.29999971,572397.4000001,2024-03-02T09:22:34Z,572405.6,NULL,Zuwachs,nyongeza,s,matilaba,udhibiti,hudhurio,matilaba,NA,NA,1,NA,NA,NA,NA,NA,NA,NA,NA,NA,NA,NA,NA,NA,NA,NA,NA,NA,NA,NA
be13c,"""Richtig""-Screen",canvas.Screen,3_0_1_0_7_1_1,NA,NA,skipped,NA,572399.0999999,NA,NA,572397.29999971,572399.19999981,2024-03-02T09:22:34Z,572405.6,NULL,Zuwachs,nyongeza,s,matilaba,udhibiti,hudhurio,NA,sdfdsf,NA,1,NA,NA,NA,NA,NA,NA,NA,NA,NA,NA,NA,NA,NA,NA,NA,NA,NA,NA,NA
be13c,"""Falsch""-Screen",canvas.Screen,3_0_1_0_7_1_2,NA,NA,timeout,5000.3,572399.69999981,572390.628,572405.6,577389.1,577389.9000001,2024-03-02T09:22:39Z,577405.9,NULL,Zuwachs,nyongeza,s,matilaba,udhibiti,hudhurio,NA,sdfdsf,0,1,NA,NA,NA,NA,NA,NA,NA,NA,NA,NA,NA,NA,NA,NA,NA,NA,NA,NA,NA
be13c,shallow,flow.Sequence,3_0_1_0_7_1,NA,NA,completion,14033.4,563344.29999971,563339.1,563355.7,577389.1,577390.19999981,2024-03-02T09:22:39Z,577405.9,NULL,Zuwachs,nyongeza,s,matilaba,udhibiti,hudhurio,NA,sdfdsf,NA,1,NA,NA,NA,NA,NA,NA,NA,NA,NA,NA,NA,NA,NA,NA,NA,NA,NA,NA,NA
be13c,task,flow.Sequence,3_0_1_0_7,NA,NA,completion,14033.4,563344.19999981,563339.1,563355.7,577389.1,577390.29999971,2024-03-02T09:22:39Z,577405.9,NULL,Zuwachs,nyongeza,s,matilaba,udhibiti,hudhurio,NA,sdfdsf,NA,1,NA,NA,NA,NA,NA,NA,NA,NA,NA,NA,NA,NA,NA,NA,NA,NA,NA,NA,NA
be13c,block,flow.Loop,3_0_1_0,NA,NA,completion,92333.112,485057.69999981,485055.988,485055.988,577389.1,577390.5,2024-03-02T09:22:39Z,577405.9,NULL,NA,NA,NA,NA,NA,NA,NA,sdfdsf,NA,1,NA,NA,NA,NA,NA,NA,NA,NA,NA,NA,NA,NA,NA,NA,NA,NA,NA,NA,NA
be13c,weiter,canvas.Screen,3_0_1_1,sdf,keypress(Space),response,1760.6,577390.5,577389.1,577405.9,579166.5,579167.29999971,2024-03-02T09:22:41Z,579205.828,NULL,NA,NA,NA,NA,NA,NA,NA,sdfdsf,NA,1,NA,NA,NA,NA,NA,NA,NA,NA,NA,NA,NA,NA,NA,NA,NA,NA,NA,NA,NA
be13c,check continue,flow.Sequence,3_0_1,NA,NA,completion,94110.512,485057.69999981,485055.988,485055.988,579166.5,579167.5999999,2024-03-02T09:22:41Z,579205.828,NULL,NA,NA,NA,NA,NA,NA,NA,sdfdsf,NA,1,NA,NA,NA,NA,NA,NA,NA,NA,NA,NA,NA,NA,NA,NA,NA,NA,NA,NA,NA
be13c,Deep Question,html.Page,3_0_2_0_0_0_0,NA,NA,form submission,2865.672,579206,579205.828,579205.828,582071.5,582071.79999971,2024-03-02T09:22:44Z,582072.562,NULL,System,maongozi,d,NA,NA,NA,gz,NA,NA,2,NA,NA,NA,NA,NA,NA,NA,NA,NA,NA,NA,NA,NA,NA,NA,NA,NA,NA,NA
be13c,"""Richtig""-Screen",canvas.Screen,3_0_2_0_0_0_1,NA,NA,skipped,NA,582072.4000001,NA,NA,582071.5,582072.5999999,2024-03-02T09:22:44Z,582072.562,NULL,System,maongozi,d,NA,NA,NA,NA,sdf,NA,2,NA,NA,NA,NA,NA,NA,NA,NA,NA,NA,NA,NA,NA,NA,NA,NA,NA,NA,NA
be13c,"""Falsch""-Screen",canvas.Screen,3_0_2_0_0_0_2,NA,NA,timeout,4999.838,582073.0999999,582072.562,582072.562,587055.8,587056.4000001,2024-03-02T09:22:49Z,587072.4,NULL,System,maongozi,d,NA,NA,NA,NA,sdf,0,2,NA,NA,NA,NA,NA,NA,NA,NA,NA,NA,NA,NA,NA,NA,NA,NA,NA,NA,NA
be13c,deep,flow.Sequence,3_0_2_0_0_0,NA,NA,completion,7849.9720000001,579206,579205.828,579205.828,587055.8,587056.5999999,2024-03-02T09:22:49Z,587072.4,NULL,System,maongozi,d,NA,NA,NA,NA,sdf,NA,2,NA,NA,NA,NA,NA,NA,NA,NA,NA,NA,NA,NA,NA,NA,NA,NA,NA,NA,NA
be13c,shallow,flow.Sequence,3_0_2_0_0_1,NA,NA,skipped,NA,587056.79999971,NA,NA,587055.8,587056.79999971,2024-03-02T09:22:49Z,587072.4,NULL,System,maongozi,d,NA,NA,NA,NA,sdf,NA,2,NA,NA,NA,NA,NA,NA,NA,NA,NA,NA,NA,NA,NA,NA,NA,NA,NA,NA,NA
be13c,task,flow.Sequence,3_0_2_0_0,NA,NA,completion,7849.9720000001,579206,579205.828,579205.828,587055.8,587056.9000001,2024-03-02T09:22:49Z,587072.4,NULL,System,maongozi,d,NA,NA,NA,NA,sdf,NA,2,NA,NA,NA,NA,NA,NA,NA,NA,NA,NA,NA,NA,NA,NA,NA,NA,NA,NA,NA
be13c,deep,flow.Sequence,3_0_2_0_1_0,NA,NA,skipped,NA,587057,NA,NA,587055.8,587057.0999999,2024-03-02T09:22:49Z,587072.4,NULL,Körper,kiwiliwili,s,mapambano,mpatanishi,kiolezo,NA,sdf,NA,2,NA,NA,NA,NA,NA,NA,NA,NA,NA,NA,NA,NA,NA,NA,NA,NA,NA,NA,NA
be13c,Shallow Question,html.Page,3_0_2_0_1_1_0,NA,NA,form submission,3791.0000000953,587057.19999981,587055.8,587072.4,590863.4000001,590863.5999999,2024-03-02T09:22:53Z,590872.2,NULL,Körper,kiwiliwili,s,mapambano,mpatanishi,kiolezo,kiwiliwili,NA,NA,2,NA,NA,NA,NA,NA,NA,NA,NA,NA,NA,NA,NA,NA,NA,NA,NA,NA,NA,NA
be13c,"""Richtig""-Screen",canvas.Screen,3_0_2_0_1_1_1,NA,NA,timeout,5000.3,590865.19999981,590855.888,590872.2,595855.8,595856.4000001,2024-03-02T09:22:58Z,595872.5,NULL,Körper,kiwiliwili,s,mapambano,mpatanishi,kiolezo,NA,sdf,1,2,NA,NA,NA,NA,NA,NA,NA,NA,NA,NA,NA,NA,NA,NA,NA,NA,NA,NA,NA
be13c,"""Falsch""-Screen",canvas.Screen,3_0_2_0_1_1_2,NA,NA,skipped,NA,595860.29999971,NA,NA,595855.8,595860.5,2024-03-02T09:22:58Z,595872.5,NULL,Körper,kiwiliwili,s,mapambano,mpatanishi,kiolezo,NA,sdf,NA,2,NA,NA,NA,NA,NA,NA,NA,NA,NA,NA,NA,NA,NA,NA,NA,NA,NA,NA,NA
be13c,shallow,flow.Sequence,3_0_2_0_1_1,NA,NA,completion,8783.4,587057.19999981,587055.8,587072.4,595855.8,595860.69999981,2024-03-02T09:22:58Z,595872.5,NULL,Körper,kiwiliwili,s,mapambano,mpatanishi,kiolezo,NA,sdf,NA,2,NA,NA,NA,NA,NA,NA,NA,NA,NA,NA,NA,NA,NA,NA,NA,NA,NA,NA,NA
be13c,task,flow.Sequence,3_0_2_0_1,NA,NA,completion,8783.4,587057,587055.8,587072.4,595855.8,595860.79999971,2024-03-02T09:22:58Z,595872.5,NULL,Körper,kiwiliwili,s,mapambano,mpatanishi,kiolezo,NA,sdf,NA,2,NA,NA,NA,NA,NA,NA,NA,NA,NA,NA,NA,NA,NA,NA,NA,NA,NA,NA,NA
be13c,deep,flow.Sequence,3_0_2_0_2_0,NA,NA,skipped,NA,595861,NA,NA,595855.8,595861,2024-03-02T09:22:58Z,595872.5,NULL,Übersicht,kilindo,s,mgusano,chipukizi,kulinganisha,NA,sdf,NA,2,NA,NA,NA,NA,NA,NA,NA,NA,NA,NA,NA,NA,NA,NA,NA,NA,NA,NA,NA
be13c,Shallow Question,html.Page,3_0_2_0_2_1_0,NA,NA,form submission,7904.5999999046,595861.0999999,595855.8,595872.5,603777.0999999,603777.29999971,2024-03-02T09:23:06Z,603788.9,NULL,Übersicht,kilindo,s,mgusano,chipukizi,kulinganisha,mgusano,NA,NA,2,NA,NA,NA,NA,NA,NA,NA,NA,NA,NA,NA,NA,NA,NA,NA,NA,NA,NA,NA
be13c,"""Richtig""-Screen",canvas.Screen,3_0_2_0_2_1_1,NA,NA,skipped,NA,603778.9000001,NA,NA,603777.0999999,603779.0999999,2024-03-02T09:23:06Z,603788.9,NULL,Übersicht,kilindo,s,mgusano,chipukizi,kulinganisha,NA,sdf,NA,2,NA,NA,NA,NA,NA,NA,NA,NA,NA,NA,NA,NA,NA,NA,NA,NA,NA,NA,NA
be13c,"""Falsch""-Screen",canvas.Screen,3_0_2_0_2_1_2,NA,NA,timeout,5000.2,603779.5999999,603772.502,603788.9,608772.4,608773.0999999,2024-03-02T09:23:11Z,608789.1,NULL,Übersicht,kilindo,s,mgusano,chipukizi,kulinganisha,NA,sdf,0,2,NA,NA,NA,NA,NA,NA,NA,NA,NA,NA,NA,NA,NA,NA,NA,NA,NA,NA,NA
be13c,shallow,flow.Sequence,3_0_2_0_2_1,NA,NA,completion,12899.9,595861.0999999,595855.8,595872.5,608772.4,608773.5,2024-03-02T09:23:11Z,608789.1,NULL,Übersicht,kilindo,s,mgusano,chipukizi,kulinganisha,NA,sdf,NA,2,NA,NA,NA,NA,NA,NA,NA,NA,NA,NA,NA,NA,NA,NA,NA,NA,NA,NA,NA
be13c,task,flow.Sequence,3_0_2_0_2,NA,NA,completion,12899.9,595860.9000001,595855.8,595872.5,608772.4,608773.5999999,2024-03-02T09:23:11Z,608789.1,NULL,Übersicht,kilindo,s,mgusano,chipukizi,kulinganisha,NA,sdf,NA,2,NA,NA,NA,NA,NA,NA,NA,NA,NA,NA,NA,NA,NA,NA,NA,NA,NA,NA,NA
be13c,Deep Question,html.Page,3_0_2_0_3_0_0,NA,NA,form submission,3124.0999998093,608773.79999971,608772.4,608789.1,611913.19999981,611913.5,2024-03-02T09:23:14Z,611922.4,NULL,Lawine,banguko,d,NA,NA,NA,hu,NA,NA,2,NA,NA,NA,NA,NA,NA,NA,NA,NA,NA,NA,NA,NA,NA,NA,NA,NA,NA,NA
be13c,"""Richtig""-Screen",canvas.Screen,3_0_2_0_3_0_1,NA,NA,skipped,NA,611915.0999999,NA,NA,611913.19999981,611915.29999971,2024-03-02T09:23:14Z,611922.4,NULL,Lawine,banguko,d,NA,NA,NA,NA,sdf,NA,2,NA,NA,NA,NA,NA,NA,NA,NA,NA,NA,NA,NA,NA,NA,NA,NA,NA,NA,NA
be13c,"""Falsch""-Screen",canvas.Screen,3_0_2_0_3_0_2,NA,NA,timeout,5000,611916,611906.26,611922.4,616905.7,616906.4000001,2024-03-02T09:23:19Z,616922.4,NULL,Lawine,banguko,d,NA,NA,NA,NA,sdf,0,2,NA,NA,NA,NA,NA,NA,NA,NA,NA,NA,NA,NA,NA,NA,NA,NA,NA,NA,NA
be13c,deep,flow.Sequence,3_0_2_0_3_0,NA,NA,completion,8116.6,608773.69999981,608772.4,608789.1,616905.7,616906.69999981,2024-03-02T09:23:19Z,616922.4,NULL,Lawine,banguko,d,NA,NA,NA,NA,sdf,NA,2,NA,NA,NA,NA,NA,NA,NA,NA,NA,NA,NA,NA,NA,NA,NA,NA,NA,NA,NA
be13c,shallow,flow.Sequence,3_0_2_0_3_1,NA,NA,skipped,NA,616906.79999971,NA,NA,616905.7,616906.9000001,2024-03-02T09:23:19Z,616922.4,NULL,Lawine,banguko,d,NA,NA,NA,NA,sdf,NA,2,NA,NA,NA,NA,NA,NA,NA,NA,NA,NA,NA,NA,NA,NA,NA,NA,NA,NA,NA
be13c,task,flow.Sequence,3_0_2_0_3,NA,NA,completion,8116.6,608773.69999981,608772.4,608789.1,616905.7,616907,2024-03-02T09:23:19Z,616922.4,NULL,Lawine,banguko,d,NA,NA,NA,NA,sdf,NA,2,NA,NA,NA,NA,NA,NA,NA,NA,NA,NA,NA,NA,NA,NA,NA,NA,NA,NA,NA
be13c,deep,flow.Sequence,3_0_2_0_4_0,NA,NA,skipped,NA,616907.19999981,NA,NA,616905.7,616907.19999981,2024-03-02T09:23:19Z,616922.4,NULL,Zuwachs,nyongeza,s,matilaba,udhibiti,hudhurio,NA,sdf,NA,2,NA,NA,NA,NA,NA,NA,NA,NA,NA,NA,NA,NA,NA,NA,NA,NA,NA,NA,NA
be13c,Shallow Question,html.Page,3_0_2_0_4_1_0,NA,NA,form submission,4917.6999999046,616907.19999981,616905.7,616922.4,621840.0999999,621840.29999971,2024-03-02T09:23:24Z,621855.8,NULL,Zuwachs,nyongeza,s,matilaba,udhibiti,hudhurio,nyongeza,NA,NA,2,NA,NA,NA,NA,NA,NA,NA,NA,NA,NA,NA,NA,NA,NA,NA,NA,NA,NA,NA
be13c,"""Richtig""-Screen",canvas.Screen,3_0_2_0_4_1_1,NA,NA,timeout,5000,621842.0999999,621839.152,621855.8,626839.1,626839.79999971,2024-03-02T09:23:29Z,626855.8,NULL,Zuwachs,nyongeza,s,matilaba,udhibiti,hudhurio,NA,sdf,1,2,NA,NA,NA,NA,NA,NA,NA,NA,NA,NA,NA,NA,NA,NA,NA,NA,NA,NA,NA
be13c,"""Falsch""-Screen",canvas.Screen,3_0_2_0_4_1_2,NA,NA,skipped,NA,626843.79999971,NA,NA,626839.1,626844.0999999,2024-03-02T09:23:29Z,626855.8,NULL,Zuwachs,nyongeza,s,matilaba,udhibiti,hudhurio,NA,sdf,NA,2,NA,NA,NA,NA,NA,NA,NA,NA,NA,NA,NA,NA,NA,NA,NA,NA,NA,NA,NA
be13c,shallow,flow.Sequence,3_0_2_0_4_1,NA,NA,completion,9916.7,616907.19999981,616905.7,616922.4,626839.1,626844.4000001,2024-03-02T09:23:29Z,626855.8,NULL,Zuwachs,nyongeza,s,matilaba,udhibiti,hudhurio,NA,sdf,NA,2,NA,NA,NA,NA,NA,NA,NA,NA,NA,NA,NA,NA,NA,NA,NA,NA,NA,NA,NA
be13c,task,flow.Sequence,3_0_2_0_4,NA,NA,completion,9916.7,616907.0999999,616905.7,616922.4,626839.1,626844.5,2024-03-02T09:23:29Z,626855.8,NULL,Zuwachs,nyongeza,s,matilaba,udhibiti,hudhurio,NA,sdf,NA,2,NA,NA,NA,NA,NA,NA,NA,NA,NA,NA,NA,NA,NA,NA,NA,NA,NA,NA,NA
be13c,Deep Question,html.Page,3_0_2_0_5_0_0,NA,NA,form submission,8505.7999999046,626844.5,626839.1,626855.8,635361.5999999,635361.79999971,2024-03-02T09:23:37Z,635372.4,NULL,Vorsorge,tahadhari,d,NA,NA,NA,b,NA,NA,2,NA,NA,NA,NA,NA,NA,NA,NA,NA,NA,NA,NA,NA,NA,NA,NA,NA,NA,NA
be13c,"""Richtig""-Screen",canvas.Screen,3_0_2_0_5_0_1,NA,NA,skipped,NA,635363.5,NA,NA,635361.5999999,635363.5999999,2024-03-02T09:23:37Z,635372.4,NULL,Vorsorge,tahadhari,d,NA,NA,NA,NA,sdf,NA,2,NA,NA,NA,NA,NA,NA,NA,NA,NA,NA,NA,NA,NA,NA,NA,NA,NA,NA,NA
be13c,"""Falsch""-Screen",canvas.Screen,3_0_2_0_5_0_2,NA,NA,timeout,4999.9,635364.0999999,635356.222,635372.4,640355.7,640356.4000001,2024-03-02T09:23:42Z,640372.3,NULL,Vorsorge,tahadhari,d,NA,NA,NA,NA,sdf,0,2,NA,NA,NA,NA,NA,NA,NA,NA,NA,NA,NA,NA,NA,NA,NA,NA,NA,NA,NA
be13c,deep,flow.Sequence,3_0_2_0_5_0,NA,NA,completion,13499.9,626844.5,626839.1,626855.8,640355.7,640356.5999999,2024-03-02T09:23:42Z,640372.3,NULL,Vorsorge,tahadhari,d,NA,NA,NA,NA,sdf,NA,2,NA,NA,NA,NA,NA,NA,NA,NA,NA,NA,NA,NA,NA,NA,NA,NA,NA,NA,NA
be13c,shallow,flow.Sequence,3_0_2_0_5_1,NA,NA,skipped,NA,640356.79999971,NA,NA,640355.7,640356.79999971,2024-03-02T09:23:42Z,640372.3,NULL,Vorsorge,tahadhari,d,NA,NA,NA,NA,sdf,NA,2,NA,NA,NA,NA,NA,NA,NA,NA,NA,NA,NA,NA,NA,NA,NA,NA,NA,NA,NA
be13c,task,flow.Sequence,3_0_2_0_5,NA,NA,completion,13499.9,626844.5,626839.1,626855.8,640355.7,640357,2024-03-02T09:23:42Z,640372.3,NULL,Vorsorge,tahadhari,d,NA,NA,NA,NA,sdf,NA,2,NA,NA,NA,NA,NA,NA,NA,NA,NA,NA,NA,NA,NA,NA,NA,NA,NA,NA,NA
be13c,deep,flow.Sequence,3_0_2_0_6_0,NA,NA,skipped,NA,640357,NA,NA,640355.7,640357.0999999,2024-03-02T09:23:42Z,640372.3,NULL,Symbol,kielezo,s,kinyume,nderemo,utayari,NA,sdf,NA,2,NA,NA,NA,NA,NA,NA,NA,NA,NA,NA,NA,NA,NA,NA,NA,NA,NA,NA,NA
be13c,Shallow Question,html.Page,3_0_2_0_6_1_0,NA,NA,form submission,7292.8999998092,640357.19999981,640355.7,640372.3,647665.19999981,647665.29999971,2024-03-02T09:23:50Z,647672.472,NULL,Symbol,kielezo,s,kinyume,nderemo,utayari,kielezo,NA,NA,2,NA,NA,NA,NA,NA,NA,NA,NA,NA,NA,NA,NA,NA,NA,NA,NA,NA,NA,NA
be13c,"""Richtig""-Screen",canvas.Screen,3_0_2_0_6_1_1,NA,NA,timeout,4999.9280000001,647666.9000001,647672.472,647672.472,652655.7,652656.4000001,2024-03-02T09:23:55Z,652672.4,NULL,Symbol,kielezo,s,kinyume,nderemo,utayari,NA,sdf,1,2,NA,NA,NA,NA,NA,NA,NA,NA,NA,NA,NA,NA,NA,NA,NA,NA,NA,NA,NA
be13c,"""Falsch""-Screen",canvas.Screen,3_0_2_0_6_1_2,NA,NA,skipped,NA,652660.29999971,NA,NA,652655.7,652660.5999999,2024-03-02T09:23:55Z,652672.4,NULL,Symbol,kielezo,s,kinyume,nderemo,utayari,NA,sdf,NA,2,NA,NA,NA,NA,NA,NA,NA,NA,NA,NA,NA,NA,NA,NA,NA,NA,NA,NA,NA
be13c,shallow,flow.Sequence,3_0_2_0_6_1,NA,NA,completion,12283.4,640357.0999999,640355.7,640372.3,652655.7,652660.79999971,2024-03-02T09:23:55Z,652672.4,NULL,Symbol,kielezo,s,kinyume,nderemo,utayari,NA,sdf,NA,2,NA,NA,NA,NA,NA,NA,NA,NA,NA,NA,NA,NA,NA,NA,NA,NA,NA,NA,NA
be13c,task,flow.Sequence,3_0_2_0_6,NA,NA,completion,12283.4,640357,640355.7,640372.3,652655.7,652660.9000001,2024-03-02T09:23:55Z,652672.4,NULL,Symbol,kielezo,s,kinyume,nderemo,utayari,NA,sdf,NA,2,NA,NA,NA,NA,NA,NA,NA,NA,NA,NA,NA,NA,NA,NA,NA,NA,NA,NA,NA
be13c,Deep Question,html.Page,3_0_2_0_7_0_0,NA,NA,form submission,4379.1,652661.0999999,652655.7,652672.4,657051.5,657051.69999981,2024-03-02T09:23:59Z,657055.6,NULL,Konkurrent,mshindani,d,NA,NA,NA,lki,NA,NA,2,NA,NA,NA,NA,NA,NA,NA,NA,NA,NA,NA,NA,NA,NA,NA,NA,NA,NA,NA
be13c,"""Richtig""-Screen",canvas.Screen,3_0_2_0_7_0_1,NA,NA,skipped,NA,657053.19999981,NA,NA,657051.5,657053.4000001,2024-03-02T09:23:59Z,657055.6,NULL,Konkurrent,mshindani,d,NA,NA,NA,NA,sdf,NA,2,NA,NA,NA,NA,NA,NA,NA,NA,NA,NA,NA,NA,NA,NA,NA,NA,NA,NA,NA
be13c,"""Falsch""-Screen",canvas.Screen,3_0_2_0_7_0_2,NA,NA,timeout,5000.2000000001,657053.79999971,657039.194,657055.6,662039.1,662039.69999981,2024-03-02T09:24:04Z,662055.8,NULL,Konkurrent,mshindani,d,NA,NA,NA,NA,sdf,0,2,NA,NA,NA,NA,NA,NA,NA,NA,NA,NA,NA,NA,NA,NA,NA,NA,NA,NA,NA
be13c,deep,flow.Sequence,3_0_2_0_7_0,NA,NA,completion,9366.7,652661,652655.7,652672.4,662039.1,662040,2024-03-02T09:24:04Z,662055.8,NULL,Konkurrent,mshindani,d,NA,NA,NA,NA,sdf,NA,2,NA,NA,NA,NA,NA,NA,NA,NA,NA,NA,NA,NA,NA,NA,NA,NA,NA,NA,NA
be13c,shallow,flow.Sequence,3_0_2_0_7_1,NA,NA,skipped,NA,662040.0999999,NA,NA,662039.1,662040.0999999,2024-03-02T09:24:04Z,662055.8,NULL,Konkurrent,mshindani,d,NA,NA,NA,NA,sdf,NA,2,NA,NA,NA,NA,NA,NA,NA,NA,NA,NA,NA,NA,NA,NA,NA,NA,NA,NA,NA
be13c,task,flow.Sequence,3_0_2_0_7,NA,NA,completion,9366.7,652661,652655.7,652672.4,662039.1,662040.19999981,2024-03-02T09:24:04Z,662055.8,NULL,Konkurrent,mshindani,d,NA,NA,NA,NA,sdf,NA,2,NA,NA,NA,NA,NA,NA,NA,NA,NA,NA,NA,NA,NA,NA,NA,NA,NA,NA,NA
be13c,block,flow.Loop,3_0_2_0,NA,NA,completion,82833.272,579205.9000001,579205.828,579205.828,662039.1,662040.4000001,2024-03-02T09:24:04Z,662055.8,NULL,NA,NA,NA,NA,NA,NA,NA,sdf,NA,2,NA,NA,NA,NA,NA,NA,NA,NA,NA,NA,NA,NA,NA,NA,NA,NA,NA,NA,NA
be13c,weiter,canvas.Screen,3_0_2_1,sdf,keypress(Space),response,1656.4999997139,662040.5,662039.1,662055.8,663712.29999971,663713.19999981,2024-03-02T09:24:06Z,663755.6,NULL,NA,NA,NA,NA,NA,NA,NA,sdf,NA,2,NA,NA,NA,NA,NA,NA,NA,NA,NA,NA,NA,NA,NA,NA,NA,NA,NA,NA,NA
be13c,check continue,flow.Sequence,3_0_2,NA,NA,completion,84506.471999714,579205.9000001,579205.828,579205.828,663712.29999971,663713.5,2024-03-02T09:24:06Z,663755.6,NULL,NA,NA,NA,NA,NA,NA,NA,sdf,NA,2,NA,NA,NA,NA,NA,NA,NA,NA,NA,NA,NA,NA,NA,NA,NA,NA,NA,NA,NA
be13c,Deep Question,html.Page,3_0_3_0_0_0_0,NA,NA,form submission,3990.6999997139,663750.9000001,663739.124,663755.6,667746.29999971,667746.5,2024-03-02T09:24:10Z,667772.4,NULL,Vorsorge,tahadhari,d,NA,NA,NA,fr,NA,NA,3,NA,NA,NA,NA,NA,NA,NA,NA,NA,NA,NA,NA,NA,NA,NA,NA,NA,NA,NA
be13c,"""Richtig""-Screen",canvas.Screen,3_0_3_0_0_0_1,NA,NA,skipped,NA,667747.0999999,NA,NA,667746.29999971,667747.0999999,2024-03-02T09:24:10Z,667772.4,NULL,Vorsorge,tahadhari,d,NA,NA,NA,NA,qt,NA,3,NA,NA,NA,NA,NA,NA,NA,NA,NA,NA,NA,NA,NA,NA,NA,NA,NA,NA,NA
be13c,"""Falsch""-Screen",canvas.Screen,3_0_3_0_0_0_2,NA,NA,timeout,5000,667747.5999999,667755.9,667772.4,672755.8,672756.4000001,2024-03-02T09:24:15Z,672772.4,NULL,Vorsorge,tahadhari,d,NA,NA,NA,NA,qt,0,3,NA,NA,NA,NA,NA,NA,NA,NA,NA,NA,NA,NA,NA,NA,NA,NA,NA,NA,NA
be13c,deep,flow.Sequence,3_0_3_0_0_0,NA,NA,completion,9000.2000000001,663750.9000001,663739.124,663755.6,672755.8,672756.69999981,2024-03-02T09:24:15Z,672772.4,NULL,Vorsorge,tahadhari,d,NA,NA,NA,NA,qt,NA,3,NA,NA,NA,NA,NA,NA,NA,NA,NA,NA,NA,NA,NA,NA,NA,NA,NA,NA,NA
be13c,shallow,flow.Sequence,3_0_3_0_0_1,NA,NA,skipped,NA,672756.79999971,NA,NA,672755.8,672756.9000001,2024-03-02T09:24:15Z,672772.4,NULL,Vorsorge,tahadhari,d,NA,NA,NA,NA,qt,NA,3,NA,NA,NA,NA,NA,NA,NA,NA,NA,NA,NA,NA,NA,NA,NA,NA,NA,NA,NA
be13c,task,flow.Sequence,3_0_3_0_0,NA,NA,completion,9000.2000000001,663750.9000001,663739.124,663755.6,672755.8,672757,2024-03-02T09:24:15Z,672772.4,NULL,Vorsorge,tahadhari,d,NA,NA,NA,NA,qt,NA,3,NA,NA,NA,NA,NA,NA,NA,NA,NA,NA,NA,NA,NA,NA,NA,NA,NA,NA,NA
be13c,deep,flow.Sequence,3_0_3_0_1_0,NA,NA,skipped,NA,672757.0999999,NA,NA,672755.8,672757.0999999,2024-03-02T09:24:15Z,672772.4,NULL,Symbol,kielezo,s,kinyume,nderemo,utayari,NA,qt,NA,3,NA,NA,NA,NA,NA,NA,NA,NA,NA,NA,NA,NA,NA,NA,NA,NA,NA,NA,NA
be13c,Shallow Question,html.Page,3_0_3_0_1_1_0,NA,NA,form submission,4826.0000000953,672757.29999971,672755.8,672772.4,677598.4000001,677598.5999999,2024-03-02T09:24:20Z,677605.762,NULL,Symbol,kielezo,s,kinyume,nderemo,utayari,kielezo,NA,NA,3,NA,NA,NA,NA,NA,NA,NA,NA,NA,NA,NA,NA,NA,NA,NA,NA,NA,NA,NA
be13c,"""Richtig""-Screen",canvas.Screen,3_0_3_0_1_1_1,NA,NA,timeout,5000.0380000001,677600.19999981,677605.762,677605.762,682589,682590,2024-03-02T09:24:25Z,682605.8,NULL,Symbol,kielezo,s,kinyume,nderemo,utayari,NA,qt,1,3,NA,NA,NA,NA,NA,NA,NA,NA,NA,NA,NA,NA,NA,NA,NA,NA,NA,NA,NA
be13c,"""Falsch""-Screen",canvas.Screen,3_0_3_0_1_1_2,NA,NA,skipped,NA,682594,NA,NA,682589,682594.0999999,2024-03-02T09:24:25Z,682605.8,NULL,Symbol,kielezo,s,kinyume,nderemo,utayari,NA,qt,NA,3,NA,NA,NA,NA,NA,NA,NA,NA,NA,NA,NA,NA,NA,NA,NA,NA,NA,NA,NA
be13c,shallow,flow.Sequence,3_0_3_0_1_1,NA,NA,completion,9816.6,672757.19999981,672755.8,672772.4,682589,682594.4000001,2024-03-02T09:24:25Z,682605.8,NULL,Symbol,kielezo,s,kinyume,nderemo,utayari,NA,qt,NA,3,NA,NA,NA,NA,NA,NA,NA,NA,NA,NA,NA,NA,NA,NA,NA,NA,NA,NA,NA
be13c,task,flow.Sequence,3_0_3_0_1,NA,NA,completion,9816.6,672757.0999999,672755.8,672772.4,682589,682594.5,2024-03-02T09:24:25Z,682605.8,NULL,Symbol,kielezo,s,kinyume,nderemo,utayari,NA,qt,NA,3,NA,NA,NA,NA,NA,NA,NA,NA,NA,NA,NA,NA,NA,NA,NA,NA,NA,NA,NA
be13c,Deep Question,html.Page,3_0_3_0_2_0_0,NA,NA,form submission,4222.3999998092,682594.69999981,682589,682605.8,686828.19999981,686828.4000001,2024-03-02T09:24:29Z,686838.9,NULL,Konkurrent,mshindani,d,NA,NA,NA,h,NA,NA,3,NA,NA,NA,NA,NA,NA,NA,NA,NA,NA,NA,NA,NA,NA,NA,NA,NA,NA,NA
be13c,"""Richtig""-Screen",canvas.Screen,3_0_3_0_2_0_1,NA,NA,skipped,NA,686829.9000001,NA,NA,686828.19999981,686830.0999999,2024-03-02T09:24:29Z,686838.9,NULL,Konkurrent,mshindani,d,NA,NA,NA,NA,qt,NA,3,NA,NA,NA,NA,NA,NA,NA,NA,NA,NA,NA,NA,NA,NA,NA,NA,NA,NA,NA
be13c,"""Falsch""-Screen",canvas.Screen,3_0_3_0_2_0_2,NA,NA,timeout,5000.2,686830.5999999,686822.446,686838.9,691822.4,691823,2024-03-02T09:24:34Z,691839.1,NULL,Konkurrent,mshindani,d,NA,NA,NA,NA,qt,0,3,NA,NA,NA,NA,NA,NA,NA,NA,NA,NA,NA,NA,NA,NA,NA,NA,NA,NA,NA
be13c,deep,flow.Sequence,3_0_3_0_2_0,NA,NA,completion,9216.6,682594.69999981,682589,682605.8,691822.4,691823.4000001,2024-03-02T09:24:34Z,691839.1,NULL,Konkurrent,mshindani,d,NA,NA,NA,NA,qt,NA,3,NA,NA,NA,NA,NA,NA,NA,NA,NA,NA,NA,NA,NA,NA,NA,NA,NA,NA,NA
be13c,shallow,flow.Sequence,3_0_3_0_2_1,NA,NA,skipped,NA,691823.4000001,NA,NA,691822.4,691823.5999999,2024-03-02T09:24:34Z,691839.1,NULL,Konkurrent,mshindani,d,NA,NA,NA,NA,qt,NA,3,NA,NA,NA,NA,NA,NA,NA,NA,NA,NA,NA,NA,NA,NA,NA,NA,NA,NA,NA
be13c,task,flow.Sequence,3_0_3_0_2,NA,NA,completion,9216.6,682594.5999999,682589,682605.8,691822.4,691823.69999981,2024-03-02T09:24:34Z,691839.1,NULL,Konkurrent,mshindani,d,NA,NA,NA,NA,qt,NA,3,NA,NA,NA,NA,NA,NA,NA,NA,NA,NA,NA,NA,NA,NA,NA,NA,NA,NA,NA
be13c,Deep Question,html.Page,3_0_3_0_3_0_0,NA,NA,form submission,4665.0999998093,691823.79999971,691822.4,691839.1,696504.19999981,696504.5,2024-03-02T09:24:39Z,696505.758,NULL,Lawine,banguko,d,NA,NA,NA,hz,NA,NA,3,NA,NA,NA,NA,NA,NA,NA,NA,NA,NA,NA,NA,NA,NA,NA,NA,NA,NA,NA
be13c,"""Richtig""-Screen",canvas.Screen,3_0_3_0_3_0_1,NA,NA,skipped,NA,696506.0999999,NA,NA,696504.19999981,696506.29999971,2024-03-02T09:24:39Z,696505.758,NULL,Lawine,banguko,d,NA,NA,NA,NA,qt,NA,3,NA,NA,NA,NA,NA,NA,NA,NA,NA,NA,NA,NA,NA,NA,NA,NA,NA,NA,NA
be13c,"""Falsch""-Screen",canvas.Screen,3_0_3_0_3_0_2,NA,NA,timeout,5000.042,696506.69999981,696505.758,696505.758,701489,701489.5999999,2024-03-02T09:24:44Z,701505.8,NULL,Lawine,banguko,d,NA,NA,NA,NA,qt,0,3,NA,NA,NA,NA,NA,NA,NA,NA,NA,NA,NA,NA,NA,NA,NA,NA,NA,NA,NA
be13c,deep,flow.Sequence,3_0_3_0_3_0,NA,NA,completion,9649.9,691823.79999971,691822.4,691839.1,701489,701489.9000001,2024-03-02T09:24:44Z,701505.8,NULL,Lawine,banguko,d,NA,NA,NA,NA,qt,NA,3,NA,NA,NA,NA,NA,NA,NA,NA,NA,NA,NA,NA,NA,NA,NA,NA,NA,NA,NA
be13c,shallow,flow.Sequence,3_0_3_0_3_1,NA,NA,skipped,NA,701490,NA,NA,701489,701490.0999999,2024-03-02T09:24:44Z,701505.8,NULL,Lawine,banguko,d,NA,NA,NA,NA,qt,NA,3,NA,NA,NA,NA,NA,NA,NA,NA,NA,NA,NA,NA,NA,NA,NA,NA,NA,NA,NA
be13c,task,flow.Sequence,3_0_3_0_3,NA,NA,completion,9649.9,691823.79999971,691822.4,691839.1,701489,701490.19999981,2024-03-02T09:24:44Z,701505.8,NULL,Lawine,banguko,d,NA,NA,NA,NA,qt,NA,3,NA,NA,NA,NA,NA,NA,NA,NA,NA,NA,NA,NA,NA,NA,NA,NA,NA,NA,NA
be13c,deep,flow.Sequence,3_0_3_0_4_0,NA,NA,skipped,NA,701490.4000001,NA,NA,701489,701490.4000001,2024-03-02T09:24:44Z,701505.8,NULL,Körper,kiwiliwili,s,mapambano,mpatanishi,kiolezo,NA,qt,NA,3,NA,NA,NA,NA,NA,NA,NA,NA,NA,NA,NA,NA,NA,NA,NA,NA,NA,NA,NA
be13c,Shallow Question,html.Page,3_0_3_0_4_1_0,NA,NA,form submission,4017.2999999046,701490.4000001,701489,701505.8,705523.0999999,705523.4000001,2024-03-02T09:24:48Z,705555.7,NULL,Körper,kiwiliwili,s,mapambano,mpatanishi,kiolezo,kiwiliwili,NA,NA,3,NA,NA,NA,NA,NA,NA,NA,NA,NA,NA,NA,NA,NA,NA,NA,NA,NA,NA,NA
be13c,"""Richtig""-Screen",canvas.Screen,3_0_3_0_4_1_1,NA,NA,timeout,4999.9,705525,705539.096,705555.7,710539,710539.5999999,2024-03-02T09:24:53Z,710555.6,NULL,Körper,kiwiliwili,s,mapambano,mpatanishi,kiolezo,NA,qt,1,3,NA,NA,NA,NA,NA,NA,NA,NA,NA,NA,NA,NA,NA,NA,NA,NA,NA,NA,NA
be13c,"""Falsch""-Screen",canvas.Screen,3_0_3_0_4_1_2,NA,NA,skipped,NA,710543.4000001,NA,NA,710539,710543.69999981,2024-03-02T09:24:53Z,710555.6,NULL,Körper,kiwiliwili,s,mapambano,mpatanishi,kiolezo,NA,qt,NA,3,NA,NA,NA,NA,NA,NA,NA,NA,NA,NA,NA,NA,NA,NA,NA,NA,NA,NA,NA
be13c,shallow,flow.Sequence,3_0_3_0_4_1,NA,NA,completion,9033.2,701490.4000001,701489,701505.8,710539,710543.79999971,2024-03-02T09:24:53Z,710555.6,NULL,Körper,kiwiliwili,s,mapambano,mpatanishi,kiolezo,NA,qt,NA,3,NA,NA,NA,NA,NA,NA,NA,NA,NA,NA,NA,NA,NA,NA,NA,NA,NA,NA,NA
be13c,task,flow.Sequence,3_0_3_0_4,NA,NA,completion,9033.2,701490.29999971,701489,701505.8,710539,710544,2024-03-02T09:24:53Z,710555.6,NULL,Körper,kiwiliwili,s,mapambano,mpatanishi,kiolezo,NA,qt,NA,3,NA,NA,NA,NA,NA,NA,NA,NA,NA,NA,NA,NA,NA,NA,NA,NA,NA,NA,NA
be13c,deep,flow.Sequence,3_0_3_0_5_0,NA,NA,skipped,NA,710544.0999999,NA,NA,710539,710544.19999981,2024-03-02T09:24:53Z,710555.6,NULL,Übersicht,kilindo,s,mgusano,chipukizi,kulinganisha,NA,qt,NA,3,NA,NA,NA,NA,NA,NA,NA,NA,NA,NA,NA,NA,NA,NA,NA,NA,NA,NA,NA
be13c,Shallow Question,html.Page,3_0_3_0_5_1_0,NA,NA,form submission,6809.4999999047,710544.29999971,710539,710555.6,717365.0999999,717365.4000001,2024-03-02T09:24:59Z,717372.2,NULL,Übersicht,kilindo,s,mgusano,chipukizi,kulinganisha,kilindo,NA,NA,3,NA,NA,NA,NA,NA,NA,NA,NA,NA,NA,NA,NA,NA,NA,NA,NA,NA,NA,NA
be13c,"""Richtig""-Screen",canvas.Screen,3_0_3_0_5_1_1,NA,NA,timeout,5000.1000000001,717366.9000001,717356.6,717372.2,722355.7,722356.5,2024-03-02T09:25:04Z,722372.3,NULL,Übersicht,kilindo,s,mgusano,chipukizi,kulinganisha,NA,qt,1,3,NA,NA,NA,NA,NA,NA,NA,NA,NA,NA,NA,NA,NA,NA,NA,NA,NA,NA,NA
be13c,"""Falsch""-Screen",canvas.Screen,3_0_3_0_5_1_2,NA,NA,skipped,NA,722360.5,NA,NA,722355.7,722360.69999981,2024-03-02T09:25:04Z,722372.3,NULL,Übersicht,kilindo,s,mgusano,chipukizi,kulinganisha,NA,qt,NA,3,NA,NA,NA,NA,NA,NA,NA,NA,NA,NA,NA,NA,NA,NA,NA,NA,NA,NA,NA
be13c,shallow,flow.Sequence,3_0_3_0_5_1,NA,NA,completion,11800.1,710544.19999981,710539,710555.6,722355.7,722360.9000001,2024-03-02T09:25:04Z,722372.3,NULL,Übersicht,kilindo,s,mgusano,chipukizi,kulinganisha,NA,qt,NA,3,NA,NA,NA,NA,NA,NA,NA,NA,NA,NA,NA,NA,NA,NA,NA,NA,NA,NA,NA
be13c,task,flow.Sequence,3_0_3_0_5,NA,NA,completion,11800.1,710544.0999999,710539,710555.6,722355.7,722361.0999999,2024-03-02T09:25:04Z,722372.3,NULL,Übersicht,kilindo,s,mgusano,chipukizi,kulinganisha,NA,qt,NA,3,NA,NA,NA,NA,NA,NA,NA,NA,NA,NA,NA,NA,NA,NA,NA,NA,NA,NA,NA
be13c,Deep Question,html.Page,3_0_3_0_6_0_0,NA,NA,form submission,3124.8999998092,722361.19999981,722355.7,722372.3,725497.19999981,725497.4000001,2024-03-02T09:25:08Z,725505.5,NULL,System,maongozi,d,NA,NA,NA,hz,NA,NA,3,NA,NA,NA,NA,NA,NA,NA,NA,NA,NA,NA,NA,NA,NA,NA,NA,NA,NA,NA
be13c,"""Richtig""-Screen",canvas.Screen,3_0_3_0_6_0_1,NA,NA,skipped,NA,725498,NA,NA,725497.19999981,725498.0999999,2024-03-02T09:25:08Z,725505.5,NULL,System,maongozi,d,NA,NA,NA,NA,qt,NA,3,NA,NA,NA,NA,NA,NA,NA,NA,NA,NA,NA,NA,NA,NA,NA,NA,NA,NA,NA
be13c,"""Falsch""-Screen",canvas.Screen,3_0_3_0_6_0_2,NA,NA,timeout,5000,725498.5,725495.1,725505.5,730489,730490,2024-03-02T09:25:13Z,730505.5,NULL,System,maongozi,d,NA,NA,NA,NA,qt,0,3,NA,NA,NA,NA,NA,NA,NA,NA,NA,NA,NA,NA,NA,NA,NA,NA,NA,NA,NA
be13c,deep,flow.Sequence,3_0_3_0_6_0,NA,NA,completion,8116.7,722361.0999999,722355.7,722372.3,730489,730490.19999981,2024-03-02T09:25:13Z,730505.5,NULL,System,maongozi,d,NA,NA,NA,NA,qt,NA,3,NA,NA,NA,NA,NA,NA,NA,NA,NA,NA,NA,NA,NA,NA,NA,NA,NA,NA,NA
be13c,shallow,flow.Sequence,3_0_3_0_6_1,NA,NA,skipped,NA,730490.4000001,NA,NA,730489,730490.4000001,2024-03-02T09:25:13Z,730505.5,NULL,System,maongozi,d,NA,NA,NA,NA,qt,NA,3,NA,NA,NA,NA,NA,NA,NA,NA,NA,NA,NA,NA,NA,NA,NA,NA,NA,NA,NA
be13c,task,flow.Sequence,3_0_3_0_6,NA,NA,completion,8116.7,722361.0999999,722355.7,722372.3,730489,730490.5,2024-03-02T09:25:13Z,730505.5,NULL,System,maongozi,d,NA,NA,NA,NA,qt,NA,3,NA,NA,NA,NA,NA,NA,NA,NA,NA,NA,NA,NA,NA,NA,NA,NA,NA,NA,NA
be13c,deep,flow.Sequence,3_0_3_0_7_0,NA,NA,skipped,NA,730490.69999981,NA,NA,730489,730490.69999981,2024-03-02T09:25:13Z,730505.5,NULL,Zuwachs,nyongeza,s,matilaba,udhibiti,hudhurio,NA,qt,NA,3,NA,NA,NA,NA,NA,NA,NA,NA,NA,NA,NA,NA,NA,NA,NA,NA,NA,NA,NA
be13c,Shallow Question,html.Page,3_0_3_0_7_1_0,NA,NA,form submission,5839.5,730490.79999971,730489,730505.5,736345,736345.19999981,2024-03-02T09:25:18Z,736355.6,NULL,Zuwachs,nyongeza,s,matilaba,udhibiti,hudhurio,nyongeza,NA,NA,3,NA,NA,NA,NA,NA,NA,NA,NA,NA,NA,NA,NA,NA,NA,NA,NA,NA,NA,NA
be13c,"""Richtig""-Screen",canvas.Screen,3_0_3_0_7_1_1,NA,NA,timeout,5000,736346.79999971,736339.054,736355.6,741339,741339.5999999,2024-03-02T09:25:23Z,741355.6,NULL,Zuwachs,nyongeza,s,matilaba,udhibiti,hudhurio,NA,qt,1,3,NA,NA,NA,NA,NA,NA,NA,NA,NA,NA,NA,NA,NA,NA,NA,NA,NA,NA,NA
be13c,"""Falsch""-Screen",canvas.Screen,3_0_3_0_7_1_2,NA,NA,skipped,NA,741343.29999971,NA,NA,741339,741343.5,2024-03-02T09:25:23Z,741355.6,NULL,Zuwachs,nyongeza,s,matilaba,udhibiti,hudhurio,NA,qt,NA,3,NA,NA,NA,NA,NA,NA,NA,NA,NA,NA,NA,NA,NA,NA,NA,NA,NA,NA,NA
be13c,shallow,flow.Sequence,3_0_3_0_7_1,NA,NA,completion,10833.5,730490.69999981,730489,730505.5,741339,741343.69999981,2024-03-02T09:25:23Z,741355.6,NULL,Zuwachs,nyongeza,s,matilaba,udhibiti,hudhurio,NA,qt,NA,3,NA,NA,NA,NA,NA,NA,NA,NA,NA,NA,NA,NA,NA,NA,NA,NA,NA,NA,NA
be13c,task,flow.Sequence,3_0_3_0_7,NA,NA,completion,10833.5,730490.5,730489,730505.5,741339,741343.9000001,2024-03-02T09:25:23Z,741355.6,NULL,Zuwachs,nyongeza,s,matilaba,udhibiti,hudhurio,NA,qt,NA,3,NA,NA,NA,NA,NA,NA,NA,NA,NA,NA,NA,NA,NA,NA,NA,NA,NA,NA,NA
be13c,block,flow.Loop,3_0_3_0,NA,NA,completion,77583.4,663750.9000001,663739.124,663755.6,741339,741344,2024-03-02T09:25:23Z,741355.6,NULL,NA,NA,NA,NA,NA,NA,NA,qt,NA,3,NA,NA,NA,NA,NA,NA,NA,NA,NA,NA,NA,NA,NA,NA,NA,NA,NA,NA,NA
be13c,weiter,canvas.Screen,3_0_3_1,sdf,keypress(Space),response,1244.6999997139,741344.0999999,741339,741355.6,742600.29999971,742601,2024-03-02T09:25:25Z,742622.3,NULL,NA,NA,NA,NA,NA,NA,NA,qt,NA,3,NA,NA,NA,NA,NA,NA,NA,NA,NA,NA,NA,NA,NA,NA,NA,NA,NA,NA,NA
be13c,check continue,flow.Sequence,3_0_3,NA,NA,completion,78844.699999714,663750.9000001,663739.124,663755.6,742600.29999971,742601.29999971,2024-03-02T09:25:25Z,742622.3,NULL,NA,NA,NA,NA,NA,NA,NA,qt,NA,3,NA,NA,NA,NA,NA,NA,NA,NA,NA,NA,NA,NA,NA,NA,NA,NA,NA,NA,NA
be13c,deep,flow.Sequence,3_0_4_0_0_0,NA,NA,skipped,NA,742636.5,NA,NA,742600.29999971,742636.5999999,2024-03-02T09:25:25Z,742622.3,NULL,Übersicht,kilindo,s,mgusano,chipukizi,kulinganisha,NA,sd,NA,4,NA,NA,NA,NA,NA,NA,NA,NA,NA,NA,NA,NA,NA,NA,NA,NA,NA,NA,NA
be13c,Shallow Question,html.Page,3_0_4_0_0_1_0,NA,NA,form submission,4087.7999999046,742636.69999981,742622.216,742622.3,746710.0999999,746710.29999971,2024-03-02T09:25:29Z,746722.2,NULL,Übersicht,kilindo,s,mgusano,chipukizi,kulinganisha,kilindo,NA,NA,4,NA,NA,NA,NA,NA,NA,NA,NA,NA,NA,NA,NA,NA,NA,NA,NA,NA,NA,NA
be13c,"""Richtig""-Screen",canvas.Screen,3_0_4_0_0_1_1,NA,NA,timeout,5000.2000000001,746711.79999971,746705.744,746722.2,751705.7,751706.4000001,2024-03-02T09:25:34Z,751722.4,NULL,Übersicht,kilindo,s,mgusano,chipukizi,kulinganisha,NA,sd,1,4,NA,NA,NA,NA,NA,NA,NA,NA,NA,NA,NA,NA,NA,NA,NA,NA,NA,NA,NA
be13c,"""Falsch""-Screen",canvas.Screen,3_0_4_0_0_1_2,NA,NA,skipped,NA,751710.4000001,NA,NA,751705.7,751710.5999999,2024-03-02T09:25:34Z,751722.4,NULL,Übersicht,kilindo,s,mgusano,chipukizi,kulinganisha,NA,sd,NA,4,NA,NA,NA,NA,NA,NA,NA,NA,NA,NA,NA,NA,NA,NA,NA,NA,NA,NA,NA
be13c,shallow,flow.Sequence,3_0_4_0_0_1,NA,NA,completion,9083.3999999999,742636.69999981,742622.216,742622.3,751705.7,751710.9000001,2024-03-02T09:25:34Z,751722.4,NULL,Übersicht,kilindo,s,mgusano,chipukizi,kulinganisha,NA,sd,NA,4,NA,NA,NA,NA,NA,NA,NA,NA,NA,NA,NA,NA,NA,NA,NA,NA,NA,NA,NA
be13c,task,flow.Sequence,3_0_4_0_0,NA,NA,completion,9083.3999999999,742636.5,742622.216,742622.3,751705.7,751711,2024-03-02T09:25:34Z,751722.4,NULL,Übersicht,kilindo,s,mgusano,chipukizi,kulinganisha,NA,sd,NA,4,NA,NA,NA,NA,NA,NA,NA,NA,NA,NA,NA,NA,NA,NA,NA,NA,NA,NA,NA
be13c,Deep Question,html.Page,3_0_4_0_1_0_0,NA,NA,form submission,2639.6,751711.0999999,751705.7,751722.4,754362,754362.29999971,2024-03-02T09:25:36Z,754372.1,NULL,Vorsorge,tahadhari,d,NA,NA,NA,gt,NA,NA,4,NA,NA,NA,NA,NA,NA,NA,NA,NA,NA,NA,NA,NA,NA,NA,NA,NA,NA,NA
be13c,"""Richtig""-Screen",canvas.Screen,3_0_4_0_1_0_1,NA,NA,skipped,NA,754363.79999971,NA,NA,754362,754363.9000001,2024-03-02T09:25:36Z,754372.1,NULL,Vorsorge,tahadhari,d,NA,NA,NA,NA,sd,NA,4,NA,NA,NA,NA,NA,NA,NA,NA,NA,NA,NA,NA,NA,NA,NA,NA,NA,NA,NA
be13c,"""Falsch""-Screen",canvas.Screen,3_0_4_0_1_0_2,NA,NA,timeout,5000.1,754364.4000001,754355.68,754372.1,759355.4,759356.29999971,2024-03-02T09:25:41Z,759372.2,NULL,Vorsorge,tahadhari,d,NA,NA,NA,NA,sd,0,4,NA,NA,NA,NA,NA,NA,NA,NA,NA,NA,NA,NA,NA,NA,NA,NA,NA,NA,NA
be13c,deep,flow.Sequence,3_0_4_0_1_0,NA,NA,completion,7633,751711.0999999,751705.7,751722.4,759355.4,759356.5999999,2024-03-02T09:25:41Z,759372.2,NULL,Vorsorge,tahadhari,d,NA,NA,NA,NA,sd,NA,4,NA,NA,NA,NA,NA,NA,NA,NA,NA,NA,NA,NA,NA,NA,NA,NA,NA,NA,NA
be13c,shallow,flow.Sequence,3_0_4_0_1_1,NA,NA,skipped,NA,759356.69999981,NA,NA,759355.4,759356.79999971,2024-03-02T09:25:41Z,759372.2,NULL,Vorsorge,tahadhari,d,NA,NA,NA,NA,sd,NA,4,NA,NA,NA,NA,NA,NA,NA,NA,NA,NA,NA,NA,NA,NA,NA,NA,NA,NA,NA
be13c,task,flow.Sequence,3_0_4_0_1,NA,NA,completion,7633,751711.0999999,751705.7,751722.4,759355.4,759356.9000001,2024-03-02T09:25:41Z,759372.2,NULL,Vorsorge,tahadhari,d,NA,NA,NA,NA,sd,NA,4,NA,NA,NA,NA,NA,NA,NA,NA,NA,NA,NA,NA,NA,NA,NA,NA,NA,NA,NA
be13c,Deep Question,html.Page,3_0_4_0_2_0_0,NA,NA,form submission,2169.8999999047,759357,759355.4,759372.2,761542.0999999,761542.19999981,2024-03-02T09:25:44Z,761555.5,NULL,Konkurrent,mshindani,d,NA,NA,NA,ko,NA,NA,4,NA,NA,NA,NA,NA,NA,NA,NA,NA,NA,NA,NA,NA,NA,NA,NA,NA,NA,NA
be13c,"""Richtig""-Screen",canvas.Screen,3_0_4_0_2_0_1,NA,NA,skipped,NA,761543.69999981,NA,NA,761542.0999999,761543.9000001,2024-03-02T09:25:44Z,761555.5,NULL,Konkurrent,mshindani,d,NA,NA,NA,NA,sd,NA,4,NA,NA,NA,NA,NA,NA,NA,NA,NA,NA,NA,NA,NA,NA,NA,NA,NA,NA,NA
be13c,"""Falsch""-Screen",canvas.Screen,3_0_4_0_2_0_2,NA,NA,timeout,5000,761544.4000001,761539.118,761555.5,766538.9,766539.9000001,2024-03-02T09:25:49Z,766555.5,NULL,Konkurrent,mshindani,d,NA,NA,NA,NA,sd,0,4,NA,NA,NA,NA,NA,NA,NA,NA,NA,NA,NA,NA,NA,NA,NA,NA,NA,NA,NA
be13c,deep,flow.Sequence,3_0_4_0_2_0,NA,NA,completion,7166.7000000001,759357,759355.4,759372.2,766538.9,766540.0999999,2024-03-02T09:25:49Z,766555.5,NULL,Konkurrent,mshindani,d,NA,NA,NA,NA,sd,NA,4,NA,NA,NA,NA,NA,NA,NA,NA,NA,NA,NA,NA,NA,NA,NA,NA,NA,NA,NA
be13c,shallow,flow.Sequence,3_0_4_0_2_1,NA,NA,skipped,NA,766540.0999999,NA,NA,766538.9,766540.19999981,2024-03-02T09:25:49Z,766555.5,NULL,Konkurrent,mshindani,d,NA,NA,NA,NA,sd,NA,4,NA,NA,NA,NA,NA,NA,NA,NA,NA,NA,NA,NA,NA,NA,NA,NA,NA,NA,NA
be13c,task,flow.Sequence,3_0_4_0_2,NA,NA,completion,7166.7000000001,759357,759355.4,759372.2,766538.9,766540.29999971,2024-03-02T09:25:49Z,766555.5,NULL,Konkurrent,mshindani,d,NA,NA,NA,NA,sd,NA,4,NA,NA,NA,NA,NA,NA,NA,NA,NA,NA,NA,NA,NA,NA,NA,NA,NA,NA,NA
be13c,deep,flow.Sequence,3_0_4_0_3_0,NA,NA,skipped,NA,766540.4000001,NA,NA,766538.9,766540.5,2024-03-02T09:25:49Z,766555.5,NULL,Symbol,kielezo,s,kinyume,nderemo,utayari,NA,sd,NA,4,NA,NA,NA,NA,NA,NA,NA,NA,NA,NA,NA,NA,NA,NA,NA,NA,NA,NA,NA
be13c,Shallow Question,html.Page,3_0_4_0_3_1_0,NA,NA,form submission,3732.5,766540.69999981,766538.9,766555.5,770288,770288.29999971,2024-03-02T09:25:52Z,770289.024,NULL,Symbol,kielezo,s,kinyume,nderemo,utayari,kielezo,NA,NA,4,NA,NA,NA,NA,NA,NA,NA,NA,NA,NA,NA,NA,NA,NA,NA,NA,NA,NA,NA
be13c,"""Richtig""-Screen",canvas.Screen,3_0_4_0_3_1_1,NA,NA,timeout,4999.876,770290,770289.024,770289.024,775272.3,775273.0999999,2024-03-02T09:25:57Z,775288.9,NULL,Symbol,kielezo,s,kinyume,nderemo,utayari,NA,sd,1,4,NA,NA,NA,NA,NA,NA,NA,NA,NA,NA,NA,NA,NA,NA,NA,NA,NA,NA,NA
be13c,"""Falsch""-Screen",canvas.Screen,3_0_4_0_3_1_2,NA,NA,skipped,NA,775276.79999971,NA,NA,775272.3,775277,2024-03-02T09:25:57Z,775288.9,NULL,Symbol,kielezo,s,kinyume,nderemo,utayari,NA,sd,NA,4,NA,NA,NA,NA,NA,NA,NA,NA,NA,NA,NA,NA,NA,NA,NA,NA,NA,NA,NA
be13c,shallow,flow.Sequence,3_0_4_0_3_1,NA,NA,completion,8716.8,766540.5999999,766538.9,766555.5,775272.3,775277.19999981,2024-03-02T09:25:57Z,775288.9,NULL,Symbol,kielezo,s,kinyume,nderemo,utayari,NA,sd,NA,4,NA,NA,NA,NA,NA,NA,NA,NA,NA,NA,NA,NA,NA,NA,NA,NA,NA,NA,NA
be13c,task,flow.Sequence,3_0_4_0_3,NA,NA,completion,8716.8,766540.4000001,766538.9,766555.5,775272.3,775277.4000001,2024-03-02T09:25:57Z,775288.9,NULL,Symbol,kielezo,s,kinyume,nderemo,utayari,NA,sd,NA,4,NA,NA,NA,NA,NA,NA,NA,NA,NA,NA,NA,NA,NA,NA,NA,NA,NA,NA,NA
be13c,deep,flow.Sequence,3_0_4_0_4_0,NA,NA,skipped,NA,775277.4000001,NA,NA,775272.3,775277.5,2024-03-02T09:25:57Z,775288.9,NULL,Körper,kiwiliwili,s,mapambano,mpatanishi,kiolezo,NA,sd,NA,4,NA,NA,NA,NA,NA,NA,NA,NA,NA,NA,NA,NA,NA,NA,NA,NA,NA,NA,NA
be13c,Shallow Question,html.Page,3_0_4_0_4_1_0,NA,NA,form submission,3102.0000000953,775277.5999999,775272.3,775288.9,778390.9000001,778391.0999999,2024-03-02T09:26:00Z,778405.7,NULL,Körper,kiwiliwili,s,mapambano,mpatanishi,kiolezo,kiwiliwili,NA,NA,4,NA,NA,NA,NA,NA,NA,NA,NA,NA,NA,NA,NA,NA,NA,NA,NA,NA,NA,NA
be13c,"""Richtig""-Screen",canvas.Screen,3_0_4_0_4_1_1,NA,NA,timeout,4999.8,778392.5999999,778389.01,778405.7,783389,783389.5999999,2024-03-02T09:26:05Z,783405.5,NULL,Körper,kiwiliwili,s,mapambano,mpatanishi,kiolezo,NA,sd,1,4,NA,NA,NA,NA,NA,NA,NA,NA,NA,NA,NA,NA,NA,NA,NA,NA,NA,NA,NA
be13c,"""Falsch""-Screen",canvas.Screen,3_0_4_0_4_1_2,NA,NA,skipped,NA,783393.5999999,NA,NA,783389,783393.79999971,2024-03-02T09:26:05Z,783405.5,NULL,Körper,kiwiliwili,s,mapambano,mpatanishi,kiolezo,NA,sd,NA,4,NA,NA,NA,NA,NA,NA,NA,NA,NA,NA,NA,NA,NA,NA,NA,NA,NA,NA,NA
be13c,shallow,flow.Sequence,3_0_4_0_4_1,NA,NA,completion,8100.1,775277.5999999,775272.3,775288.9,783389,783394,2024-03-02T09:26:05Z,783405.5,NULL,Körper,kiwiliwili,s,mapambano,mpatanishi,kiolezo,NA,sd,NA,4,NA,NA,NA,NA,NA,NA,NA,NA,NA,NA,NA,NA,NA,NA,NA,NA,NA,NA,NA
be13c,task,flow.Sequence,3_0_4_0_4,NA,NA,completion,8100.1,775277.4000001,775272.3,775288.9,783389,783394.0999999,2024-03-02T09:26:05Z,783405.5,NULL,Körper,kiwiliwili,s,mapambano,mpatanishi,kiolezo,NA,sd,NA,4,NA,NA,NA,NA,NA,NA,NA,NA,NA,NA,NA,NA,NA,NA,NA,NA,NA,NA,NA
be13c,deep,flow.Sequence,3_0_4_0_5_0,NA,NA,skipped,NA,783394.19999981,NA,NA,783389,783394.29999971,2024-03-02T09:26:05Z,783405.5,NULL,Zuwachs,nyongeza,s,matilaba,udhibiti,hudhurio,NA,sd,NA,4,NA,NA,NA,NA,NA,NA,NA,NA,NA,NA,NA,NA,NA,NA,NA,NA,NA,NA,NA
be13c,Shallow Question,html.Page,3_0_4_0_5_1_0,NA,NA,form submission,4091.4000000954,783394.4000001,783389,783405.5,787496.9000001,787497.0999999,2024-03-02T09:26:10Z,787505.5,NULL,Zuwachs,nyongeza,s,matilaba,udhibiti,hudhurio,nyongeza,NA,NA,4,NA,NA,NA,NA,NA,NA,NA,NA,NA,NA,NA,NA,NA,NA,NA,NA,NA,NA,NA
be13c,"""Richtig""-Screen",canvas.Screen,3_0_4_0_5_1_1,NA,NA,timeout,5000.2,787498.5999999,787489.122,787505.5,792489,792489.5999999,2024-03-02T09:26:15Z,792505.7,NULL,Zuwachs,nyongeza,s,matilaba,udhibiti,hudhurio,NA,sd,1,4,NA,NA,NA,NA,NA,NA,NA,NA,NA,NA,NA,NA,NA,NA,NA,NA,NA,NA,NA
be13c,"""Falsch""-Screen",canvas.Screen,3_0_4_0_5_1_2,NA,NA,skipped,NA,792493.4000001,NA,NA,792489,792493.5999999,2024-03-02T09:26:15Z,792505.7,NULL,Zuwachs,nyongeza,s,matilaba,udhibiti,hudhurio,NA,sd,NA,4,NA,NA,NA,NA,NA,NA,NA,NA,NA,NA,NA,NA,NA,NA,NA,NA,NA,NA,NA
be13c,shallow,flow.Sequence,3_0_4_0_5_1,NA,NA,completion,9083.5,783394.4000001,783389,783405.5,792489,792493.79999971,2024-03-02T09:26:15Z,792505.7,NULL,Zuwachs,nyongeza,s,matilaba,udhibiti,hudhurio,NA,sd,NA,4,NA,NA,NA,NA,NA,NA,NA,NA,NA,NA,NA,NA,NA,NA,NA,NA,NA,NA,NA
be13c,task,flow.Sequence,3_0_4_0_5,NA,NA,completion,9083.5,783394.19999981,783389,783405.5,792489,792493.9000001,2024-03-02T09:26:15Z,792505.7,NULL,Zuwachs,nyongeza,s,matilaba,udhibiti,hudhurio,NA,sd,NA,4,NA,NA,NA,NA,NA,NA,NA,NA,NA,NA,NA,NA,NA,NA,NA,NA,NA,NA,NA
be13c,Deep Question,html.Page,3_0_4_0_6_0_0,NA,NA,form submission,9762.4999998093,792494,792489,792505.7,802268.19999981,802268.5,2024-03-02T09:26:24Z,802272.1,NULL,System,maongozi,d,NA,NA,NA,bangkuko,NA,NA,4,NA,NA,NA,NA,NA,NA,NA,NA,NA,NA,NA,NA,NA,NA,NA,NA,NA,NA,NA
be13c,"""Richtig""-Screen",canvas.Screen,3_0_4_0_6_0_1,NA,NA,skipped,NA,802270.0999999,NA,NA,802268.19999981,802270.19999981,2024-03-02T09:26:24Z,802272.1,NULL,System,maongozi,d,NA,NA,NA,NA,sd,NA,4,NA,NA,NA,NA,NA,NA,NA,NA,NA,NA,NA,NA,NA,NA,NA,NA,NA,NA,NA
be13c,"""Falsch""-Screen",canvas.Screen,3_0_4_0_6_0_2,NA,NA,timeout,5000.2000000001,802270.79999971,802255.53,802272.1,807255.5,807256.19999981,2024-03-02T09:26:29Z,807272.3,NULL,System,maongozi,d,NA,NA,NA,NA,sd,0,4,NA,NA,NA,NA,NA,NA,NA,NA,NA,NA,NA,NA,NA,NA,NA,NA,NA,NA,NA
be13c,deep,flow.Sequence,3_0_4_0_6_0,NA,NA,completion,14749.8,792494,792489,792505.7,807255.5,807256.4000001,2024-03-02T09:26:29Z,807272.3,NULL,System,maongozi,d,NA,NA,NA,NA,sd,NA,4,NA,NA,NA,NA,NA,NA,NA,NA,NA,NA,NA,NA,NA,NA,NA,NA,NA,NA,NA
be13c,shallow,flow.Sequence,3_0_4_0_6_1,NA,NA,skipped,NA,807256.5999999,NA,NA,807255.5,807256.69999981,2024-03-02T09:26:29Z,807272.3,NULL,System,maongozi,d,NA,NA,NA,NA,sd,NA,4,NA,NA,NA,NA,NA,NA,NA,NA,NA,NA,NA,NA,NA,NA,NA,NA,NA,NA,NA
be13c,task,flow.Sequence,3_0_4_0_6,NA,NA,completion,14749.8,792494,792489,792505.7,807255.5,807256.79999971,2024-03-02T09:26:29Z,807272.3,NULL,System,maongozi,d,NA,NA,NA,NA,sd,NA,4,NA,NA,NA,NA,NA,NA,NA,NA,NA,NA,NA,NA,NA,NA,NA,NA,NA,NA,NA
be13c,Deep Question,html.Page,3_0_4_0_7_0_0,NA,NA,form submission,8412.2999999046,807256.9000001,807255.5,807272.3,815684.5999999,815684.69999981,2024-03-02T09:26:38Z,815705.5,NULL,Lawine,banguko,d,NA,NA,NA,banguko,NA,NA,4,NA,NA,NA,NA,NA,NA,NA,NA,NA,NA,NA,NA,NA,NA,NA,NA,NA,NA,NA
be13c,"""Richtig""-Screen",canvas.Screen,3_0_4_0_7_0_1,NA,NA,timeout,5000,815686.19999981,815688.832,815705.5,820688.9,820689.5999999,2024-03-02T09:26:43Z,820705.5,NULL,Lawine,banguko,d,NA,NA,NA,NA,sd,1,4,NA,NA,NA,NA,NA,NA,NA,NA,NA,NA,NA,NA,NA,NA,NA,NA,NA,NA,NA
be13c,"""Falsch""-Screen",canvas.Screen,3_0_4_0_7_0_2,NA,NA,skipped,NA,820693.4000001,NA,NA,820688.9,820693.5,2024-03-02T09:26:43Z,820705.5,NULL,Lawine,banguko,d,NA,NA,NA,NA,sd,NA,4,NA,NA,NA,NA,NA,NA,NA,NA,NA,NA,NA,NA,NA,NA,NA,NA,NA,NA,NA
be13c,deep,flow.Sequence,3_0_4_0_7_0,NA,NA,completion,13416.6,807256.9000001,807255.5,807272.3,820688.9,820693.69999981,2024-03-02T09:26:43Z,820705.5,NULL,Lawine,banguko,d,NA,NA,NA,NA,sd,NA,4,NA,NA,NA,NA,NA,NA,NA,NA,NA,NA,NA,NA,NA,NA,NA,NA,NA,NA,NA
be13c,shallow,flow.Sequence,3_0_4_0_7_1,NA,NA,skipped,NA,820693.9000001,NA,NA,820688.9,820693.9000001,2024-03-02T09:26:43Z,820705.5,NULL,Lawine,banguko,d,NA,NA,NA,NA,sd,NA,4,NA,NA,NA,NA,NA,NA,NA,NA,NA,NA,NA,NA,NA,NA,NA,NA,NA,NA,NA
be13c,task,flow.Sequence,3_0_4_0_7,NA,NA,completion,13416.6,807256.9000001,807255.5,807272.3,820688.9,820694.0999999,2024-03-02T09:26:43Z,820705.5,NULL,Lawine,banguko,d,NA,NA,NA,NA,sd,NA,4,NA,NA,NA,NA,NA,NA,NA,NA,NA,NA,NA,NA,NA,NA,NA,NA,NA,NA,NA
be13c,block,flow.Loop,3_0_4_0,NA,NA,completion,78066.6,742636.5,742622.216,742622.3,820688.9,820694.19999981,2024-03-02T09:26:43Z,820705.5,NULL,NA,NA,NA,NA,NA,NA,NA,sd,NA,4,NA,NA,NA,NA,NA,NA,NA,NA,NA,NA,NA,NA,NA,NA,NA,NA,NA,NA,NA
be13c,weiter,canvas.Screen,3_0_4_1,sdf,keypress(Space),response,1062.0999999046,820694.19999981,820688.9,820705.5,821767.5999999,821768.5,2024-03-02T09:26:44Z,821822.1,NULL,NA,NA,NA,NA,NA,NA,NA,sd,NA,4,NA,NA,NA,NA,NA,NA,NA,NA,NA,NA,NA,NA,NA,NA,NA,NA,NA,NA,NA
be13c,check continue,flow.Sequence,3_0_4,NA,NA,completion,79145.299999905,742636.4000001,742622.216,742622.3,821767.5999999,821768.69999981,2024-03-02T09:26:44Z,821822.1,NULL,NA,NA,NA,NA,NA,NA,NA,sd,NA,4,NA,NA,NA,NA,NA,NA,NA,NA,NA,NA,NA,NA,NA,NA,NA,NA,NA,NA,NA
be13c,deep,flow.Sequence,3_0_5_0_0_0,NA,NA,skipped,NA,821808.0999999,NA,NA,821767.5999999,821808.29999971,2024-03-02T09:26:44Z,821822.1,NULL,Zuwachs,nyongeza,s,matilaba,udhibiti,hudhurio,NA,sdf,NA,5,NA,NA,NA,NA,NA,NA,NA,NA,NA,NA,NA,NA,NA,NA,NA,NA,NA,NA,NA
be13c,Shallow Question,html.Page,3_0_5_0_0_1_0,NA,NA,form submission,3288.8000000954,821808.5,821805.6,821822.1,825110.9000001,825111.0999999,2024-03-02T09:26:47Z,825122.2,NULL,Zuwachs,nyongeza,s,matilaba,udhibiti,hudhurio,nyongeza,NA,NA,5,NA,NA,NA,NA,NA,NA,NA,NA,NA,NA,NA,NA,NA,NA,NA,NA,NA,NA,NA
be13c,"""Richtig""-Screen",canvas.Screen,3_0_5_0_0_1_1,NA,NA,timeout,5000,825111.5999999,825105.67,825122.2,830105.6,830106.5,2024-03-02T09:26:52Z,830122.2,NULL,Zuwachs,nyongeza,s,matilaba,udhibiti,hudhurio,NA,sdf,1,5,NA,NA,NA,NA,NA,NA,NA,NA,NA,NA,NA,NA,NA,NA,NA,NA,NA,NA,NA
be13c,"""Falsch""-Screen",canvas.Screen,3_0_5_0_0_1_2,NA,NA,skipped,NA,830110.29999971,NA,NA,830105.6,830110.5999999,2024-03-02T09:26:52Z,830122.2,NULL,Zuwachs,nyongeza,s,matilaba,udhibiti,hudhurio,NA,sdf,NA,5,NA,NA,NA,NA,NA,NA,NA,NA,NA,NA,NA,NA,NA,NA,NA,NA,NA,NA,NA
be13c,shallow,flow.Sequence,3_0_5_0_0_1,NA,NA,completion,8283.5,821808.4000001,821805.6,821822.1,830105.6,830110.79999971,2024-03-02T09:26:52Z,830122.2,NULL,Zuwachs,nyongeza,s,matilaba,udhibiti,hudhurio,NA,sdf,NA,5,NA,NA,NA,NA,NA,NA,NA,NA,NA,NA,NA,NA,NA,NA,NA,NA,NA,NA,NA
be13c,task,flow.Sequence,3_0_5_0_0,NA,NA,completion,8283.5,821808.0999999,821805.6,821822.1,830105.6,830110.79999971,2024-03-02T09:26:52Z,830122.2,NULL,Zuwachs,nyongeza,s,matilaba,udhibiti,hudhurio,NA,sdf,NA,5,NA,NA,NA,NA,NA,NA,NA,NA,NA,NA,NA,NA,NA,NA,NA,NA,NA,NA,NA
be13c,Deep Question,html.Page,3_0_5_0_1_0_0,NA,NA,form submission,2131.7000000954,830111,830105.6,830122.2,832253.9000001,832254.19999981,2024-03-02T09:26:54Z,832255.628,NULL,Konkurrent,mshindani,d,NA,NA,NA,ff,NA,NA,5,NA,NA,NA,NA,NA,NA,NA,NA,NA,NA,NA,NA,NA,NA,NA,NA,NA,NA,NA
be13c,"""Richtig""-Screen",canvas.Screen,3_0_5_0_1_0_1,NA,NA,skipped,NA,832254.79999971,NA,NA,832253.9000001,832254.9000001,2024-03-02T09:26:54Z,832255.628,NULL,Konkurrent,mshindani,d,NA,NA,NA,NA,sdf,NA,5,NA,NA,NA,NA,NA,NA,NA,NA,NA,NA,NA,NA,NA,NA,NA,NA,NA,NA,NA
be13c,"""Falsch""-Screen",canvas.Screen,3_0_5_0_1_0_2,NA,NA,timeout,4999.972,832255.19999981,832255.628,832255.628,837238.7,837239.4000001,2024-03-02T09:26:59Z,837255.6,NULL,Konkurrent,mshindani,d,NA,NA,NA,NA,sdf,0,5,NA,NA,NA,NA,NA,NA,NA,NA,NA,NA,NA,NA,NA,NA,NA,NA,NA,NA,NA
be13c,deep,flow.Sequence,3_0_5_0_1_0,NA,NA,completion,7116.5,830111,830105.6,830122.2,837238.7,837239.69999981,2024-03-02T09:26:59Z,837255.6,NULL,Konkurrent,mshindani,d,NA,NA,NA,NA,sdf,NA,5,NA,NA,NA,NA,NA,NA,NA,NA,NA,NA,NA,NA,NA,NA,NA,NA,NA,NA,NA
be13c,shallow,flow.Sequence,3_0_5_0_1_1,NA,NA,skipped,NA,837239.69999981,NA,NA,837238.7,837239.79999971,2024-03-02T09:26:59Z,837255.6,NULL,Konkurrent,mshindani,d,NA,NA,NA,NA,sdf,NA,5,NA,NA,NA,NA,NA,NA,NA,NA,NA,NA,NA,NA,NA,NA,NA,NA,NA,NA,NA
be13c,task,flow.Sequence,3_0_5_0_1,NA,NA,completion,7116.5,830110.9000001,830105.6,830122.2,837238.7,837240,2024-03-02T09:26:59Z,837255.6,NULL,Konkurrent,mshindani,d,NA,NA,NA,NA,sdf,NA,5,NA,NA,NA,NA,NA,NA,NA,NA,NA,NA,NA,NA,NA,NA,NA,NA,NA,NA,NA
be13c,Deep Question,html.Page,3_0_5_0_2_0_0,NA,NA,form submission,9519.5999998093,837240.0999999,837238.7,837255.6,846775.19999981,846775.29999971,2024-03-02T09:27:09Z,846788.9,NULL,System,maongozi,d,NA,NA,NA,maogozi,NA,NA,5,NA,NA,NA,NA,NA,NA,NA,NA,NA,NA,NA,NA,NA,NA,NA,NA,NA,NA,NA
be13c,"""Richtig""-Screen",canvas.Screen,3_0_5_0_2_0_1,NA,NA,skipped,NA,846777.0999999,NA,NA,846775.19999981,846777.0999999,2024-03-02T09:27:09Z,846788.9,NULL,System,maongozi,d,NA,NA,NA,NA,sdf,NA,5,NA,NA,NA,NA,NA,NA,NA,NA,NA,NA,NA,NA,NA,NA,NA,NA,NA,NA,NA
be13c,"""Falsch""-Screen",canvas.Screen,3_0_5_0_2_0_2,NA,NA,timeout,5000,846777.5999999,846776.646,846788.9,851772.2,851773,2024-03-02T09:27:14Z,851788.9,NULL,System,maongozi,d,NA,NA,NA,NA,sdf,0,5,NA,NA,NA,NA,NA,NA,NA,NA,NA,NA,NA,NA,NA,NA,NA,NA,NA,NA,NA
be13c,deep,flow.Sequence,3_0_5_0_2_0,NA,NA,completion,14516.6,837240,837238.7,837255.6,851772.2,851773.29999971,2024-03-02T09:27:14Z,851788.9,NULL,System,maongozi,d,NA,NA,NA,NA,sdf,NA,5,NA,NA,NA,NA,NA,NA,NA,NA,NA,NA,NA,NA,NA,NA,NA,NA,NA,NA,NA
be13c,shallow,flow.Sequence,3_0_5_0_2_1,NA,NA,skipped,NA,851773.29999971,NA,NA,851772.2,851773.4000001,2024-03-02T09:27:14Z,851788.9,NULL,System,maongozi,d,NA,NA,NA,NA,sdf,NA,5,NA,NA,NA,NA,NA,NA,NA,NA,NA,NA,NA,NA,NA,NA,NA,NA,NA,NA,NA
be13c,task,flow.Sequence,3_0_5_0_2,NA,NA,completion,14516.6,837240,837238.7,837255.6,851772.2,851773.5999999,2024-03-02T09:27:14Z,851788.9,NULL,System,maongozi,d,NA,NA,NA,NA,sdf,NA,5,NA,NA,NA,NA,NA,NA,NA,NA,NA,NA,NA,NA,NA,NA,NA,NA,NA,NA,NA
be13c,deep,flow.Sequence,3_0_5_0_3_0,NA,NA,skipped,NA,851773.69999981,NA,NA,851772.2,851773.69999981,2024-03-02T09:27:14Z,851788.9,NULL,Übersicht,kilindo,s,mgusano,chipukizi,kulinganisha,NA,sdf,NA,5,NA,NA,NA,NA,NA,NA,NA,NA,NA,NA,NA,NA,NA,NA,NA,NA,NA,NA,NA
be13c,Shallow Question,html.Page,3_0_5_0_3_1_0,NA,NA,form submission,3500.8999997139,851773.9000001,851772.2,851788.9,855289.79999971,855290,2024-03-02T09:27:17Z,855305.4,NULL,Übersicht,kilindo,s,mgusano,chipukizi,kulinganisha,kilindo,NA,NA,5,NA,NA,NA,NA,NA,NA,NA,NA,NA,NA,NA,NA,NA,NA,NA,NA,NA,NA,NA
be13c,"""Richtig""-Screen",canvas.Screen,3_0_5_0_3_1_1,NA,NA,timeout,5000.2,855291.69999981,855289.026,855305.4,860288.8,860289.5999999,2024-03-02T09:27:22Z,860305.6,NULL,Übersicht,kilindo,s,mgusano,chipukizi,kulinganisha,NA,sdf,1,5,NA,NA,NA,NA,NA,NA,NA,NA,NA,NA,NA,NA,NA,NA,NA,NA,NA,NA,NA
be13c,"""Falsch""-Screen",canvas.Screen,3_0_5_0_3_1_2,NA,NA,skipped,NA,860293.69999981,NA,NA,860288.8,860293.9000001,2024-03-02T09:27:22Z,860305.6,NULL,Übersicht,kilindo,s,mgusano,chipukizi,kulinganisha,NA,sdf,NA,5,NA,NA,NA,NA,NA,NA,NA,NA,NA,NA,NA,NA,NA,NA,NA,NA,NA,NA,NA
be13c,shallow,flow.Sequence,3_0_5_0_3_1,NA,NA,completion,8499.9,851773.69999981,851772.2,851788.9,860288.8,860294.0999999,2024-03-02T09:27:22Z,860305.6,NULL,Übersicht,kilindo,s,mgusano,chipukizi,kulinganisha,NA,sdf,NA,5,NA,NA,NA,NA,NA,NA,NA,NA,NA,NA,NA,NA,NA,NA,NA,NA,NA,NA,NA
be13c,task,flow.Sequence,3_0_5_0_3,NA,NA,completion,8499.9,851773.69999981,851772.2,851788.9,860288.8,860294.29999971,2024-03-02T09:27:22Z,860305.6,NULL,Übersicht,kilindo,s,mgusano,chipukizi,kulinganisha,NA,sdf,NA,5,NA,NA,NA,NA,NA,NA,NA,NA,NA,NA,NA,NA,NA,NA,NA,NA,NA,NA,NA
be13c,Deep Question,html.Page,3_0_5_0_4_0_0,NA,NA,form submission,2924.4,860294.4000001,860288.8,860305.6,863230,863230.19999981,2024-03-02T09:27:25Z,863238.7,NULL,Vorsorge,tahadhari,d,NA,NA,NA,h,NA,NA,5,NA,NA,NA,NA,NA,NA,NA,NA,NA,NA,NA,NA,NA,NA,NA,NA,NA,NA,NA
be13c,"""Richtig""-Screen",canvas.Screen,3_0_5_0_4_0_1,NA,NA,skipped,NA,863230.9000001,NA,NA,863230,863231,2024-03-02T09:27:25Z,863238.7,NULL,Vorsorge,tahadhari,d,NA,NA,NA,NA,sdf,NA,5,NA,NA,NA,NA,NA,NA,NA,NA,NA,NA,NA,NA,NA,NA,NA,NA,NA,NA,NA
be13c,"""Falsch""-Screen",canvas.Screen,3_0_5_0_4_0_2,NA,NA,timeout,5000.2000000001,863231.4000001,863222.284,863238.7,868222.2,868223,2024-03-02T09:27:30Z,868238.9,NULL,Vorsorge,tahadhari,d,NA,NA,NA,NA,sdf,0,5,NA,NA,NA,NA,NA,NA,NA,NA,NA,NA,NA,NA,NA,NA,NA,NA,NA,NA,NA
be13c,deep,flow.Sequence,3_0_5_0_4_0,NA,NA,completion,7916.6,860294.29999971,860288.8,860305.6,868222.2,868223.29999971,2024-03-02T09:27:30Z,868238.9,NULL,Vorsorge,tahadhari,d,NA,NA,NA,NA,sdf,NA,5,NA,NA,NA,NA,NA,NA,NA,NA,NA,NA,NA,NA,NA,NA,NA,NA,NA,NA,NA
be13c,shallow,flow.Sequence,3_0_5_0_4_1,NA,NA,skipped,NA,868223.29999971,NA,NA,868222.2,868223.4000001,2024-03-02T09:27:30Z,868238.9,NULL,Vorsorge,tahadhari,d,NA,NA,NA,NA,sdf,NA,5,NA,NA,NA,NA,NA,NA,NA,NA,NA,NA,NA,NA,NA,NA,NA,NA,NA,NA,NA
be13c,task,flow.Sequence,3_0_5_0_4,NA,NA,completion,7916.6,860294.29999971,860288.8,860305.6,868222.2,868223.5999999,2024-03-02T09:27:30Z,868238.9,NULL,Vorsorge,tahadhari,d,NA,NA,NA,NA,sdf,NA,5,NA,NA,NA,NA,NA,NA,NA,NA,NA,NA,NA,NA,NA,NA,NA,NA,NA,NA,NA
be13c,Deep Question,html.Page,3_0_5_0_5_0_0,NA,NA,form submission,5719.8999997139,868223.5999999,868222.2,868238.9,873958.79999971,873959.0999999,2024-03-02T09:27:36Z,873972,NULL,Lawine,banguko,d,NA,NA,NA,banguko,NA,NA,5,NA,NA,NA,NA,NA,NA,NA,NA,NA,NA,NA,NA,NA,NA,NA,NA,NA,NA,NA
be13c,"""Richtig""-Screen",canvas.Screen,3_0_5_0_5_0_1,NA,NA,timeout,5000.2,873960.69999981,873955.946,873972,878955.5,878956.4000001,2024-03-02T09:27:41Z,878972.2,NULL,Lawine,banguko,d,NA,NA,NA,NA,sdf,1,5,NA,NA,NA,NA,NA,NA,NA,NA,NA,NA,NA,NA,NA,NA,NA,NA,NA,NA,NA
be13c,"""Falsch""-Screen",canvas.Screen,3_0_5_0_5_0_2,NA,NA,skipped,NA,878960.0999999,NA,NA,878955.5,878960.4000001,2024-03-02T09:27:41Z,878972.2,NULL,Lawine,banguko,d,NA,NA,NA,NA,sdf,NA,5,NA,NA,NA,NA,NA,NA,NA,NA,NA,NA,NA,NA,NA,NA,NA,NA,NA,NA,NA
be13c,deep,flow.Sequence,3_0_5_0_5_0,NA,NA,completion,10716.6,868223.5999999,868222.2,868238.9,878955.5,878960.5999999,2024-03-02T09:27:41Z,878972.2,NULL,Lawine,banguko,d,NA,NA,NA,NA,sdf,NA,5,NA,NA,NA,NA,NA,NA,NA,NA,NA,NA,NA,NA,NA,NA,NA,NA,NA,NA,NA
be13c,shallow,flow.Sequence,3_0_5_0_5_1,NA,NA,skipped,NA,878960.5999999,NA,NA,878955.5,878960.69999981,2024-03-02T09:27:41Z,878972.2,NULL,Lawine,banguko,d,NA,NA,NA,NA,sdf,NA,5,NA,NA,NA,NA,NA,NA,NA,NA,NA,NA,NA,NA,NA,NA,NA,NA,NA,NA,NA
be13c,task,flow.Sequence,3_0_5_0_5,NA,NA,completion,10716.6,868223.5999999,868222.2,868238.9,878955.5,878960.79999971,2024-03-02T09:27:41Z,878972.2,NULL,Lawine,banguko,d,NA,NA,NA,NA,sdf,NA,5,NA,NA,NA,NA,NA,NA,NA,NA,NA,NA,NA,NA,NA,NA,NA,NA,NA,NA,NA
be13c,deep,flow.Sequence,3_0_5_0_6_0,NA,NA,skipped,NA,878960.9000001,NA,NA,878955.5,878960.9000001,2024-03-02T09:27:41Z,878972.2,NULL,Körper,kiwiliwili,s,mapambano,mpatanishi,kiolezo,NA,sdf,NA,5,NA,NA,NA,NA,NA,NA,NA,NA,NA,NA,NA,NA,NA,NA,NA,NA,NA,NA,NA
be13c,Shallow Question,html.Page,3_0_5_0_6_1_0,NA,NA,form submission,2630.8,878961.0999999,878955.5,878972.2,881603,881603.19999981,2024-03-02T09:27:44Z,881605.4,NULL,Körper,kiwiliwili,s,mapambano,mpatanishi,kiolezo,kiwiliwili,NA,NA,5,NA,NA,NA,NA,NA,NA,NA,NA,NA,NA,NA,NA,NA,NA,NA,NA,NA,NA,NA
be13c,"""Richtig""-Screen",canvas.Screen,3_0_5_0_6_1_1,NA,NA,timeout,5000,881603.69999981,881588.91,881605.4,886588.9,886589.5999999,2024-03-02T09:27:49Z,886605.4,NULL,Körper,kiwiliwili,s,mapambano,mpatanishi,kiolezo,NA,sdf,1,5,NA,NA,NA,NA,NA,NA,NA,NA,NA,NA,NA,NA,NA,NA,NA,NA,NA,NA,NA
be13c,"""Falsch""-Screen",canvas.Screen,3_0_5_0_6_1_2,NA,NA,skipped,NA,886593.4000001,NA,NA,886588.9,886593.5,2024-03-02T09:27:49Z,886605.4,NULL,Körper,kiwiliwili,s,mapambano,mpatanishi,kiolezo,NA,sdf,NA,5,NA,NA,NA,NA,NA,NA,NA,NA,NA,NA,NA,NA,NA,NA,NA,NA,NA,NA,NA
be13c,shallow,flow.Sequence,3_0_5_0_6_1,NA,NA,completion,7616.7000000001,878961,878955.5,878972.2,886588.9,886593.79999971,2024-03-02T09:27:49Z,886605.4,NULL,Körper,kiwiliwili,s,mapambano,mpatanishi,kiolezo,NA,sdf,NA,5,NA,NA,NA,NA,NA,NA,NA,NA,NA,NA,NA,NA,NA,NA,NA,NA,NA,NA,NA
be13c,task,flow.Sequence,3_0_5_0_6,NA,NA,completion,7616.7000000001,878960.9000001,878955.5,878972.2,886588.9,886593.79999971,2024-03-02T09:27:49Z,886605.4,NULL,Körper,kiwiliwili,s,mapambano,mpatanishi,kiolezo,NA,sdf,NA,5,NA,NA,NA,NA,NA,NA,NA,NA,NA,NA,NA,NA,NA,NA,NA,NA,NA,NA,NA
be13c,deep,flow.Sequence,3_0_5_0_7_0,NA,NA,skipped,NA,886594,NA,NA,886588.9,886594,2024-03-02T09:27:49Z,886605.4,NULL,Symbol,kielezo,s,kinyume,nderemo,utayari,NA,sdf,NA,5,NA,NA,NA,NA,NA,NA,NA,NA,NA,NA,NA,NA,NA,NA,NA,NA,NA,NA,NA
be13c,Shallow Question,html.Page,3_0_5_0_7_1_0,NA,NA,form submission,7212.5000000953,886594.0999999,886588.9,886605.4,893817.9000001,893818.0999999,2024-03-02T09:27:56Z,893822.25,NULL,Symbol,kielezo,s,kinyume,nderemo,utayari,kielezo,NA,NA,5,NA,NA,NA,NA,NA,NA,NA,NA,NA,NA,NA,NA,NA,NA,NA,NA,NA,NA,NA
be13c,"""Richtig""-Screen",canvas.Screen,3_0_5_0_7_1_1,NA,NA,timeout,4999.85,893819.5999999,893822.25,893822.25,898805.5,898806.19999981,2024-03-02T09:28:01Z,898822.1,NULL,Symbol,kielezo,s,kinyume,nderemo,utayari,NA,sdf,1,5,NA,NA,NA,NA,NA,NA,NA,NA,NA,NA,NA,NA,NA,NA,NA,NA,NA,NA,NA
be13c,"""Falsch""-Screen",canvas.Screen,3_0_5_0_7_1_2,NA,NA,skipped,NA,898810.4000001,NA,NA,898805.5,898810.5,2024-03-02T09:28:01Z,898822.1,NULL,Symbol,kielezo,s,kinyume,nderemo,utayari,NA,sdf,NA,5,NA,NA,NA,NA,NA,NA,NA,NA,NA,NA,NA,NA,NA,NA,NA,NA,NA,NA,NA
be13c,shallow,flow.Sequence,3_0_5_0_7_1,NA,NA,completion,12200.1,886594.0999999,886588.9,886605.4,898805.5,898810.79999971,2024-03-02T09:28:01Z,898822.1,NULL,Symbol,kielezo,s,kinyume,nderemo,utayari,NA,sdf,NA,5,NA,NA,NA,NA,NA,NA,NA,NA,NA,NA,NA,NA,NA,NA,NA,NA,NA,NA,NA
be13c,task,flow.Sequence,3_0_5_0_7,NA,NA,completion,12200.1,886594,886588.9,886605.4,898805.5,898811,2024-03-02T09:28:01Z,898822.1,NULL,Symbol,kielezo,s,kinyume,nderemo,utayari,NA,sdf,NA,5,NA,NA,NA,NA,NA,NA,NA,NA,NA,NA,NA,NA,NA,NA,NA,NA,NA,NA,NA
be13c,block,flow.Loop,3_0_5_0,NA,NA,completion,76983.4,821808.0999999,821805.6,821822.1,898805.5,898811.0999999,2024-03-02T09:28:01Z,898822.1,NULL,NA,NA,NA,NA,NA,NA,NA,sdf,NA,5,NA,NA,NA,NA,NA,NA,NA,NA,NA,NA,NA,NA,NA,NA,NA,NA,NA,NA,NA
be13c,weiter,canvas.Screen,3_0_5_1,sdf,keypress(Space),response,1280.9,898811.19999981,898805.5,898822.1,900103,900103.9000001,2024-03-02T09:28:02Z,900138.84,NULL,NA,NA,NA,NA,NA,NA,NA,sdf,NA,5,NA,NA,NA,NA,NA,NA,NA,NA,NA,NA,NA,NA,NA,NA,NA,NA,NA,NA,NA
be13c,check continue,flow.Sequence,3_0_5,NA,NA,completion,78280.9,821808,821805.6,821822.1,900103,900104.0999999,2024-03-02T09:28:02Z,900138.84,NULL,NA,NA,NA,NA,NA,NA,NA,sdf,NA,5,NA,NA,NA,NA,NA,NA,NA,NA,NA,NA,NA,NA,NA,NA,NA,NA,NA,NA,NA
be13c,Deep Question,html.Page,3_0_6_0_0_0_0,NA,NA,form submission,2113.16,900140.9000001,900138.84,900138.84,902252,902252.19999981,2024-03-02T09:28:04Z,902255.4,NULL,Vorsorge,tahadhari,d,NA,NA,NA,gg,NA,NA,6,NA,NA,NA,NA,NA,NA,NA,NA,NA,NA,NA,NA,NA,NA,NA,NA,NA,NA,NA
be13c,"""Richtig""-Screen",canvas.Screen,3_0_6_0_0_0_1,NA,NA,skipped,NA,902252.9000001,NA,NA,902252,902253,2024-03-02T09:28:04Z,902255.4,NULL,Vorsorge,tahadhari,d,NA,NA,NA,NA,dfs,NA,6,NA,NA,NA,NA,NA,NA,NA,NA,NA,NA,NA,NA,NA,NA,NA,NA,NA,NA,NA
be13c,"""Falsch""-Screen",canvas.Screen,3_0_6_0_0_0_2,NA,NA,timeout,5000.1,902253.5,902238.9,902255.4,907238.8,907239.5999999,2024-03-02T09:28:09Z,907255.5,NULL,Vorsorge,tahadhari,d,NA,NA,NA,NA,dfs,0,6,NA,NA,NA,NA,NA,NA,NA,NA,NA,NA,NA,NA,NA,NA,NA,NA,NA,NA,NA
be13c,deep,flow.Sequence,3_0_6_0_0_0,NA,NA,completion,7099.9600000001,900140.9000001,900138.84,900138.84,907238.8,907239.9000001,2024-03-02T09:28:09Z,907255.5,NULL,Vorsorge,tahadhari,d,NA,NA,NA,NA,dfs,NA,6,NA,NA,NA,NA,NA,NA,NA,NA,NA,NA,NA,NA,NA,NA,NA,NA,NA,NA,NA
be13c,shallow,flow.Sequence,3_0_6_0_0_1,NA,NA,skipped,NA,907239.9000001,NA,NA,907238.8,907240,2024-03-02T09:28:09Z,907255.5,NULL,Vorsorge,tahadhari,d,NA,NA,NA,NA,dfs,NA,6,NA,NA,NA,NA,NA,NA,NA,NA,NA,NA,NA,NA,NA,NA,NA,NA,NA,NA,NA
be13c,task,flow.Sequence,3_0_6_0_0,NA,NA,completion,7099.9600000001,900140.9000001,900138.84,900138.84,907238.8,907240.0999999,2024-03-02T09:28:09Z,907255.5,NULL,Vorsorge,tahadhari,d,NA,NA,NA,NA,dfs,NA,6,NA,NA,NA,NA,NA,NA,NA,NA,NA,NA,NA,NA,NA,NA,NA,NA,NA,NA,NA
be13c,deep,flow.Sequence,3_0_6_0_1_0,NA,NA,skipped,NA,907240.19999981,NA,NA,907238.8,907240.29999971,2024-03-02T09:28:09Z,907255.5,NULL,Symbol,kielezo,s,kinyume,nderemo,utayari,NA,dfs,NA,6,NA,NA,NA,NA,NA,NA,NA,NA,NA,NA,NA,NA,NA,NA,NA,NA,NA,NA,NA
be13c,Shallow Question,html.Page,3_0_6_0_1_1_0,NA,NA,form submission,2534.2999997139,907240.5,907238.8,907255.5,909789.79999971,909790,2024-03-02T09:28:12Z,909805.6,NULL,Symbol,kielezo,s,kinyume,nderemo,utayari,kielezo,NA,NA,6,NA,NA,NA,NA,NA,NA,NA,NA,NA,NA,NA,NA,NA,NA,NA,NA,NA,NA,NA
be13c,"""Richtig""-Screen",canvas.Screen,3_0_6_0_1_1_1,NA,NA,timeout,4999.9,909791.5999999,909788.912,909805.6,914788.8,914789.79999971,2024-03-02T09:28:17Z,914805.5,NULL,Symbol,kielezo,s,kinyume,nderemo,utayari,NA,dfs,1,6,NA,NA,NA,NA,NA,NA,NA,NA,NA,NA,NA,NA,NA,NA,NA,NA,NA,NA,NA
be13c,"""Falsch""-Screen",canvas.Screen,3_0_6_0_1_1_2,NA,NA,skipped,NA,914793.5,NA,NA,914788.8,914793.69999981,2024-03-02T09:28:17Z,914805.5,NULL,Symbol,kielezo,s,kinyume,nderemo,utayari,NA,dfs,NA,6,NA,NA,NA,NA,NA,NA,NA,NA,NA,NA,NA,NA,NA,NA,NA,NA,NA,NA,NA
be13c,shallow,flow.Sequence,3_0_6_0_1_1,NA,NA,completion,7533.3,907240.5,907238.8,907255.5,914788.8,914793.9000001,2024-03-02T09:28:17Z,914805.5,NULL,Symbol,kielezo,s,kinyume,nderemo,utayari,NA,dfs,NA,6,NA,NA,NA,NA,NA,NA,NA,NA,NA,NA,NA,NA,NA,NA,NA,NA,NA,NA,NA
be13c,task,flow.Sequence,3_0_6_0_1,NA,NA,completion,7533.3,907240.19999981,907238.8,907255.5,914788.8,914794.0999999,2024-03-02T09:28:17Z,914805.5,NULL,Symbol,kielezo,s,kinyume,nderemo,utayari,NA,dfs,NA,6,NA,NA,NA,NA,NA,NA,NA,NA,NA,NA,NA,NA,NA,NA,NA,NA,NA,NA,NA
be13c,Deep Question,html.Page,3_0_6_0_2_0_0,NA,NA,form submission,11465.599999905,914794.19999981,914788.8,914805.5,926271.0999999,926271.29999971,2024-03-02T09:28:28Z,926272.174,NULL,System,maongozi,d,NA,NA,NA,maonguzi,NA,NA,6,NA,NA,NA,NA,NA,NA,NA,NA,NA,NA,NA,NA,NA,NA,NA,NA,NA,NA,NA
be13c,"""Richtig""-Screen",canvas.Screen,3_0_6_0_2_0_1,NA,NA,skipped,NA,926272.9000001,NA,NA,926271.0999999,926273.0999999,2024-03-02T09:28:28Z,926272.174,NULL,System,maongozi,d,NA,NA,NA,NA,dfs,NA,6,NA,NA,NA,NA,NA,NA,NA,NA,NA,NA,NA,NA,NA,NA,NA,NA,NA,NA,NA
be13c,"""Falsch""-Screen",canvas.Screen,3_0_6_0_2_0_2,NA,NA,timeout,5000.026,926273.5999999,926272.174,926272.174,931255.3,931256,2024-03-02T09:28:33Z,931272.2,NULL,System,maongozi,d,NA,NA,NA,NA,dfs,0,6,NA,NA,NA,NA,NA,NA,NA,NA,NA,NA,NA,NA,NA,NA,NA,NA,NA,NA,NA
be13c,deep,flow.Sequence,3_0_6_0_2_0,NA,NA,completion,16449.8,914794.19999981,914788.8,914805.5,931255.3,931256.4000001,2024-03-02T09:28:33Z,931272.2,NULL,System,maongozi,d,NA,NA,NA,NA,dfs,NA,6,NA,NA,NA,NA,NA,NA,NA,NA,NA,NA,NA,NA,NA,NA,NA,NA,NA,NA,NA
be13c,shallow,flow.Sequence,3_0_6_0_2_1,NA,NA,skipped,NA,931256.5,NA,NA,931255.3,931256.69999981,2024-03-02T09:28:33Z,931272.2,NULL,System,maongozi,d,NA,NA,NA,NA,dfs,NA,6,NA,NA,NA,NA,NA,NA,NA,NA,NA,NA,NA,NA,NA,NA,NA,NA,NA,NA,NA
be13c,task,flow.Sequence,3_0_6_0_2,NA,NA,completion,16449.8,914794.19999981,914788.8,914805.5,931255.3,931256.79999971,2024-03-02T09:28:33Z,931272.2,NULL,System,maongozi,d,NA,NA,NA,NA,dfs,NA,6,NA,NA,NA,NA,NA,NA,NA,NA,NA,NA,NA,NA,NA,NA,NA,NA,NA,NA,NA
be13c,Deep Question,html.Page,3_0_6_0_3_0_0,NA,NA,form submission,6275.4999998093,931257,931255.3,931272.2,937547.69999981,937547.9000001,2024-03-02T09:28:40Z,937555.3,NULL,Lawine,banguko,d,NA,NA,NA,banguko,NA,NA,6,NA,NA,NA,NA,NA,NA,NA,NA,NA,NA,NA,NA,NA,NA,NA,NA,NA,NA,NA
be13c,"""Richtig""-Screen",canvas.Screen,3_0_6_0_3_0_1,NA,NA,timeout,5000.1,937549.69999981,937538.848,937555.3,942538.8,942539.5,2024-03-02T09:28:45Z,942555.4,NULL,Lawine,banguko,d,NA,NA,NA,NA,dfs,1,6,NA,NA,NA,NA,NA,NA,NA,NA,NA,NA,NA,NA,NA,NA,NA,NA,NA,NA,NA
be13c,"""Falsch""-Screen",canvas.Screen,3_0_6_0_3_0_2,NA,NA,skipped,NA,942543.29999971,NA,NA,942538.8,942543.5,2024-03-02T09:28:45Z,942555.4,NULL,Lawine,banguko,d,NA,NA,NA,NA,dfs,NA,6,NA,NA,NA,NA,NA,NA,NA,NA,NA,NA,NA,NA,NA,NA,NA,NA,NA,NA,NA
be13c,deep,flow.Sequence,3_0_6_0_3_0,NA,NA,completion,11266.6,931257,931255.3,931272.2,942538.8,942543.69999981,2024-03-02T09:28:45Z,942555.4,NULL,Lawine,banguko,d,NA,NA,NA,NA,dfs,NA,6,NA,NA,NA,NA,NA,NA,NA,NA,NA,NA,NA,NA,NA,NA,NA,NA,NA,NA,NA
be13c,shallow,flow.Sequence,3_0_6_0_3_1,NA,NA,skipped,NA,942543.9000001,NA,NA,942538.8,942543.9000001,2024-03-02T09:28:45Z,942555.4,NULL,Lawine,banguko,d,NA,NA,NA,NA,dfs,NA,6,NA,NA,NA,NA,NA,NA,NA,NA,NA,NA,NA,NA,NA,NA,NA,NA,NA,NA,NA
be13c,task,flow.Sequence,3_0_6_0_3,NA,NA,completion,11266.6,931256.9000001,931255.3,931272.2,942538.8,942544,2024-03-02T09:28:45Z,942555.4,NULL,Lawine,banguko,d,NA,NA,NA,NA,dfs,NA,6,NA,NA,NA,NA,NA,NA,NA,NA,NA,NA,NA,NA,NA,NA,NA,NA,NA,NA,NA
be13c,deep,flow.Sequence,3_0_6_0_4_0,NA,NA,skipped,NA,942544.0999999,NA,NA,942538.8,942544.0999999,2024-03-02T09:28:45Z,942555.4,NULL,Zuwachs,nyongeza,s,matilaba,udhibiti,hudhurio,NA,dfs,NA,6,NA,NA,NA,NA,NA,NA,NA,NA,NA,NA,NA,NA,NA,NA,NA,NA,NA,NA,NA
