observation,sender,sender_type,sender_id,response,response_action,ended_on,duration,time_run,time_render,time_show,time_end,time_commit,timestamp,time_switch,distractors,german,swahili,enc,distractor1,distractor2,distractor3,response_2,x,correct,x_2,url_vp,url_sess,meta_labjs_version,meta_location,meta_user_agent,meta_platform,meta_language,meta_locale,meta_time_zone,meta_timezone_offset,meta_screen_width,meta_screen_height,meta_scroll_width,meta_scroll_height,meta_window_inner_width,meta_window_inner_height,meta_device_pixel_ratio,meta_labjs_build_flavor,meta_labjs_build_commit
8404d,Introduction general,canvas.Screen,0,weiter,keypress(q),response,4253.065,296,171.273,287.935,4541,4546.3000000007,2023-06-01T12:07:46Z,4554.431,NULL,NA,NA,NA,NA,NA,NA,NA,NA,NA,NA,121,3,20.2.4,https://neurocog.fernuni.ch/studies/vweber/encoding_immediate/index.html?vp=121&sess=3,"Mozilla/5.0 (Macintosh; Intel Mac OS X 10_15_7) AppleWebKit/537.36 (KHTML, like Gecko) Chrome/113.0.0.0 Safari/537.36",MacIntel,de-DE,de,Europe/Zurich,-120,1440,900,1440,660,1440,708,2,production,f5b4a49f956347addd546a832a3327688c2c0fef
8404d,Introduction practice,canvas.Screen,1_0,NA,keypress(Space),response,856.76899999926,4546.6000000015,4537.765,4554.431,5411.1999999993,5414.4000000022,2023-06-01T12:07:47Z,5421.063,NULL,NA,NA,NA,NA,NA,NA,NA,NA,NA,NA,NA,NA,NA,NA,NA,NA,NA,NA,NA,NA,NA,NA,NA,NA,NA,NA,NA,NA,NA
8404d,deep,flow.Sequence,1_1_0_0,NA,NA,skipped,NA,5414.8000000007,NA,NA,5411.1999999993,5415.1999999993,2023-06-01T12:07:47Z,5421.063,"c(""distractor1"", ""distractor2"", ""distractor3"")",Kritik,lawama,s,dereva,nafasi,mawazo,NA,NA,NA,NA,NA,NA,NA,NA,NA,NA,NA,NA,NA,NA,NA,NA,NA,NA,NA,NA,NA,NA,NA
8404d,Shallow Question,html.Page,1_1_0_1_0,NA,NA,form submission,22256.937,5415.4000000022,5404.397,5421.063,27678,27678.400000002,2023-06-01T12:08:09Z,27688.265,"c(""distractor1"", ""distractor2"", ""distractor3"")",Kritik,lawama,s,dereva,nafasi,mawazo,dereva,NA,NA,NA,NA,NA,NA,NA,NA,NA,NA,NA,NA,NA,NA,NA,NA,NA,NA,NA,NA,NA,NA
8404d,"""Richtig""-Screen",canvas.Screen,1_1_0_1_1,NA,NA,skipped,NA,27680.199999999,NA,NA,27678,27680.300000001,2023-06-01T12:08:09Z,27688.265,"c(""distractor1"", ""distractor2"", ""distractor3"")",Kritik,lawama,s,dereva,nafasi,mawazo,NA,NA,NA,NA,NA,NA,NA,NA,NA,NA,NA,NA,NA,NA,NA,NA,NA,NA,NA,NA,NA,NA,NA
8404d,"""Falsch""-Screen",canvas.Screen,1_1_0_1_2,NA,NA,timeout,4999.8,27681.199999999,27671.599,27688.265,32671.399,32677.400000002,2023-06-01T12:08:14Z,32688.065,"c(""distractor1"", ""distractor2"", ""distractor3"")",Kritik,lawama,s,dereva,nafasi,mawazo,NA,NA,0,NA,NA,NA,NA,NA,NA,NA,NA,NA,NA,NA,NA,NA,NA,NA,NA,NA,NA,NA,NA
8404d,shallow,flow.Sequence,1_1_0_1,NA,NA,completion,27250.336,5415.3000000007,5404.397,5421.063,32671.399,32677.900000002,2023-06-01T12:08:14Z,32688.065,"c(""distractor1"", ""distractor2"", ""distractor3"")",Kritik,lawama,s,dereva,nafasi,mawazo,NA,NA,NA,NA,NA,NA,NA,NA,NA,NA,NA,NA,NA,NA,NA,NA,NA,NA,NA,NA,NA,NA,NA
8404d,task,flow.Sequence,1_1_0,NA,NA,completion,27250.336,5414.8000000007,5404.397,5421.063,32671.399,32678.199999999,2023-06-01T12:08:14Z,32688.065,"c(""distractor1"", ""distractor2"", ""distractor3"")",Kritik,lawama,s,dereva,nafasi,mawazo,NA,NA,NA,NA,NA,NA,NA,NA,NA,NA,NA,NA,NA,NA,NA,NA,NA,NA,NA,NA,NA,NA,NA
8404d,deep,flow.Sequence,1_1_1_0,NA,NA,skipped,NA,32678.400000002,NA,NA,32671.399,32678.5,2023-06-01T12:08:14Z,32688.065,"c(""distractor1"", ""distractor2"", ""distractor3"")",Rückhalt,msaada,s,muhula,auwali,kiwimbe,NA,NA,NA,NA,NA,NA,NA,NA,NA,NA,NA,NA,NA,NA,NA,NA,NA,NA,NA,NA,NA,NA,NA
8404d,Shallow Question,html.Page,1_1_1_1_0,NA,NA,form submission,7688.1349999993,32678.699999999,32671.399,32688.065,40376.199999999,40376.900000002,2023-06-01T12:08:22Z,40388.34,"c(""distractor1"", ""distractor2"", ""distractor3"")",Rückhalt,msaada,s,muhula,auwali,kiwimbe,muhula,NA,NA,NA,NA,NA,NA,NA,NA,NA,NA,NA,NA,NA,NA,NA,NA,NA,NA,NA,NA,NA,NA
8404d,"""Richtig""-Screen",canvas.Screen,1_1_1_1_1,NA,NA,skipped,NA,40378.800000001,NA,NA,40376.199999999,40379,2023-06-01T12:08:22Z,40388.34,"c(""distractor1"", ""distractor2"", ""distractor3"")",Rückhalt,msaada,s,muhula,auwali,kiwimbe,NA,NA,NA,NA,NA,NA,NA,NA,NA,NA,NA,NA,NA,NA,NA,NA,NA,NA,NA,NA,NA,NA,NA
8404d,"""Falsch""-Screen",canvas.Screen,1_1_1_1_2,NA,NA,timeout,4999.8,40379.800000001,40371.674,40388.34,45371.474,45376,2023-06-01T12:08:27Z,45388.14,"c(""distractor1"", ""distractor2"", ""distractor3"")",Rückhalt,msaada,s,muhula,auwali,kiwimbe,NA,NA,0,NA,NA,NA,NA,NA,NA,NA,NA,NA,NA,NA,NA,NA,NA,NA,NA,NA,NA,NA,NA
8404d,shallow,flow.Sequence,1_1_1_1,NA,NA,completion,12683.409,32678.699999999,32671.399,32688.065,45371.474,45376.5,2023-06-01T12:08:27Z,45388.14,"c(""distractor1"", ""distractor2"", ""distractor3"")",Rückhalt,msaada,s,muhula,auwali,kiwimbe,NA,NA,NA,NA,NA,NA,NA,NA,NA,NA,NA,NA,NA,NA,NA,NA,NA,NA,NA,NA,NA,NA,NA
8404d,task,flow.Sequence,1_1_1,NA,NA,completion,12683.409,32678.300000001,32671.399,32688.065,45371.474,45376.800000001,2023-06-01T12:08:27Z,45388.14,"c(""distractor1"", ""distractor2"", ""distractor3"")",Rückhalt,msaada,s,muhula,auwali,kiwimbe,NA,NA,NA,NA,NA,NA,NA,NA,NA,NA,NA,NA,NA,NA,NA,NA,NA,NA,NA,NA,NA,NA,NA
8404d,Deep Question,html.Page,1_1_2_0_0,NA,NA,form submission,6112.0599999993,45377.100000001,45371.474,45388.14,51500.199999999,51500.600000001,2023-06-01T12:08:33Z,51505.113,"c(""distractor1"", ""distractor2"", ""distractor3"")",Gesundheit,salama,d,NA,NA,NA,mfokana,NA,NA,NA,NA,NA,NA,NA,NA,NA,NA,NA,NA,NA,NA,NA,NA,NA,NA,NA,NA,NA,NA
8404d,"""Richtig""-Screen",canvas.Screen,1_1_2_0_1,NA,NA,skipped,NA,51501.5,NA,NA,51500.199999999,51501.699999999,2023-06-01T12:08:33Z,51505.113,"c(""distractor1"", ""distractor2"", ""distractor3"")",Gesundheit,salama,d,NA,NA,NA,NA,NA,NA,NA,NA,NA,NA,NA,NA,NA,NA,NA,NA,NA,NA,NA,NA,NA,NA,NA,NA,NA,NA
8404d,"""Falsch""-Screen",canvas.Screen,1_1_2_0_2,NA,NA,timeout,4999.8,51502.5,51488.447,51505.113,56488.247,56490.199999999,2023-06-01T12:08:38Z,56504.913,"c(""distractor1"", ""distractor2"", ""distractor3"")",Gesundheit,salama,d,NA,NA,NA,NA,NA,0,NA,NA,NA,NA,NA,NA,NA,NA,NA,NA,NA,NA,NA,NA,NA,NA,NA,NA,NA,NA
8404d,deep,flow.Sequence,1_1_2_0,NA,NA,completion,11100.107,45377.100000001,45371.474,45388.14,56488.247,56490.699999999,2023-06-01T12:08:38Z,56504.913,"c(""distractor1"", ""distractor2"", ""distractor3"")",Gesundheit,salama,d,NA,NA,NA,NA,NA,NA,NA,NA,NA,NA,NA,NA,NA,NA,NA,NA,NA,NA,NA,NA,NA,NA,NA,NA,NA,NA
8404d,shallow,flow.Sequence,1_1_2_1,NA,NA,skipped,NA,56490.900000002,NA,NA,56488.247,56491,2023-06-01T12:08:38Z,56504.913,"c(""distractor1"", ""distractor2"", ""distractor3"")",Gesundheit,salama,d,NA,NA,NA,NA,NA,NA,NA,NA,NA,NA,NA,NA,NA,NA,NA,NA,NA,NA,NA,NA,NA,NA,NA,NA,NA,NA
8404d,task,flow.Sequence,1_1_2,NA,NA,completion,11100.107,45377,45371.474,45388.14,56488.247,56491.199999999,2023-06-01T12:08:38Z,56504.913,"c(""distractor1"", ""distractor2"", ""distractor3"")",Gesundheit,salama,d,NA,NA,NA,NA,NA,NA,NA,NA,NA,NA,NA,NA,NA,NA,NA,NA,NA,NA,NA,NA,NA,NA,NA,NA,NA,NA
8404d,Deep Question,html.Page,1_1_3_0_0,NA,NA,form submission,7388.3870000007,56491.300000001,56488.247,56504.913,63893.300000001,63893.699999999,2023-06-01T12:08:45Z,63905.218,"c(""distractor1"", ""distractor2"", ""distractor3"")",Qualität,mtindo,d,NA,NA,NA,mwakana,NA,NA,NA,NA,NA,NA,NA,NA,NA,NA,NA,NA,NA,NA,NA,NA,NA,NA,NA,NA,NA,NA
8404d,"""Richtig""-Screen",canvas.Screen,1_1_3_0_1,NA,NA,skipped,NA,63896.300000001,NA,NA,63893.300000001,63896.5,2023-06-01T12:08:45Z,63905.218,"c(""distractor1"", ""distractor2"", ""distractor3"")",Qualität,mtindo,d,NA,NA,NA,NA,NA,NA,NA,NA,NA,NA,NA,NA,NA,NA,NA,NA,NA,NA,NA,NA,NA,NA,NA,NA,NA,NA
8404d,"""Falsch""-Screen",canvas.Screen,1_1_3_0_2,NA,NA,timeout,4999.8,63897.300000001,63888.552,63905.218,68888.352,68889.699999999,2023-06-01T12:08:50Z,68905.018,"c(""distractor1"", ""distractor2"", ""distractor3"")",Qualität,mtindo,d,NA,NA,NA,NA,NA,0,NA,NA,NA,NA,NA,NA,NA,NA,NA,NA,NA,NA,NA,NA,NA,NA,NA,NA,NA,NA
8404d,deep,flow.Sequence,1_1_3_0,NA,NA,completion,12383.439,56491.300000001,56488.247,56504.913,68888.352,68889.900000002,2023-06-01T12:08:50Z,68905.018,"c(""distractor1"", ""distractor2"", ""distractor3"")",Qualität,mtindo,d,NA,NA,NA,NA,NA,NA,NA,NA,NA,NA,NA,NA,NA,NA,NA,NA,NA,NA,NA,NA,NA,NA,NA,NA,NA,NA
8404d,shallow,flow.Sequence,1_1_3_1,NA,NA,skipped,NA,68890,NA,NA,68888.352,68890,2023-06-01T12:08:50Z,68905.018,"c(""distractor1"", ""distractor2"", ""distractor3"")",Qualität,mtindo,d,NA,NA,NA,NA,NA,NA,NA,NA,NA,NA,NA,NA,NA,NA,NA,NA,NA,NA,NA,NA,NA,NA,NA,NA,NA,NA
8404d,task,flow.Sequence,1_1_3,NA,NA,completion,12383.439,56491.300000001,56488.247,56504.913,68888.352,68890.199999999,2023-06-01T12:08:50Z,68905.018,"c(""distractor1"", ""distractor2"", ""distractor3"")",Qualität,mtindo,d,NA,NA,NA,NA,NA,NA,NA,NA,NA,NA,NA,NA,NA,NA,NA,NA,NA,NA,NA,NA,NA,NA,NA,NA,NA,NA
8404d,deep,flow.Sequence,1_1_4_0,NA,NA,skipped,NA,68890.300000001,NA,NA,68888.352,68890.300000001,2023-06-01T12:08:50Z,68905.018,"c(""distractor1"", ""distractor2"", ""distractor3"")",Gegenwart,hadhara,s,katiba,jokofu,mikopo,NA,NA,NA,NA,NA,NA,NA,NA,NA,NA,NA,NA,NA,NA,NA,NA,NA,NA,NA,NA,NA,NA,NA
8404d,Shallow Question,html.Page,1_1_4_1_0,NA,NA,form submission,6389.1819999993,68890.400000002,68888.352,68905.018,75294.199999999,75294.900000002,2023-06-01T12:08:57Z,75305.3,"c(""distractor1"", ""distractor2"", ""distractor3"")",Gegenwart,hadhara,s,katiba,jokofu,mikopo,mikopo,NA,NA,NA,NA,NA,NA,NA,NA,NA,NA,NA,NA,NA,NA,NA,NA,NA,NA,NA,NA,NA,NA
8404d,"""Richtig""-Screen",canvas.Screen,1_1_4_1_1,NA,NA,skipped,NA,75297.699999999,NA,NA,75294.199999999,75297.800000001,2023-06-01T12:08:57Z,75305.3,"c(""distractor1"", ""distractor2"", ""distractor3"")",Gegenwart,hadhara,s,katiba,jokofu,mikopo,NA,NA,NA,NA,NA,NA,NA,NA,NA,NA,NA,NA,NA,NA,NA,NA,NA,NA,NA,NA,NA,NA,NA
8404d,"""Falsch""-Screen",canvas.Screen,1_1_4_1_2,NA,NA,timeout,4999.8,75298.300000001,75288.634,75305.3,80288.434,80293,2023-06-01T12:09:02Z,80305.1,"c(""distractor1"", ""distractor2"", ""distractor3"")",Gegenwart,hadhara,s,katiba,jokofu,mikopo,NA,NA,0,NA,NA,NA,NA,NA,NA,NA,NA,NA,NA,NA,NA,NA,NA,NA,NA,NA,NA,NA,NA
8404d,shallow,flow.Sequence,1_1_4_1,NA,NA,completion,11383.416,68890.400000002,68888.352,68905.018,80288.434,80293.400000002,2023-06-01T12:09:02Z,80305.1,"c(""distractor1"", ""distractor2"", ""distractor3"")",Gegenwart,hadhara,s,katiba,jokofu,mikopo,NA,NA,NA,NA,NA,NA,NA,NA,NA,NA,NA,NA,NA,NA,NA,NA,NA,NA,NA,NA,NA,NA,NA
8404d,task,flow.Sequence,1_1_4,NA,NA,completion,11383.416,68890.199999999,68888.352,68905.018,80288.434,80293.600000001,2023-06-01T12:09:02Z,80305.1,"c(""distractor1"", ""distractor2"", ""distractor3"")",Gegenwart,hadhara,s,katiba,jokofu,mikopo,NA,NA,NA,NA,NA,NA,NA,NA,NA,NA,NA,NA,NA,NA,NA,NA,NA,NA,NA,NA,NA,NA,NA
8404d,Deep Question,html.Page,1_1_5_0_0,NA,NA,form submission,6354.5999999992,80293.900000002,80288.434,80305.1,86659.699999999,86660.300000001,2023-06-01T12:09:08Z,86672.11,"c(""distractor1"", ""distractor2"", ""distractor3"")",Schatten,kivuli,d,NA,NA,NA,mofanda,NA,NA,NA,NA,NA,NA,NA,NA,NA,NA,NA,NA,NA,NA,NA,NA,NA,NA,NA,NA,NA,NA
8404d,"""Richtig""-Screen",canvas.Screen,1_1_5_0_1,NA,NA,skipped,NA,86663.800000001,NA,NA,86659.699999999,86664.100000001,2023-06-01T12:09:08Z,86672.11,"c(""distractor1"", ""distractor2"", ""distractor3"")",Schatten,kivuli,d,NA,NA,NA,NA,NA,NA,NA,NA,NA,NA,NA,NA,NA,NA,NA,NA,NA,NA,NA,NA,NA,NA,NA,NA,NA,NA
8404d,"""Falsch""-Screen",canvas.Screen,1_1_5_0_2,NA,NA,timeout,4999.8,86665.199999999,86655.444,86672.11,91655.244,91658.699999999,2023-06-01T12:09:13Z,91671.91,"c(""distractor1"", ""distractor2"", ""distractor3"")",Schatten,kivuli,d,NA,NA,NA,NA,NA,0,NA,NA,NA,NA,NA,NA,NA,NA,NA,NA,NA,NA,NA,NA,NA,NA,NA,NA,NA,NA
8404d,deep,flow.Sequence,1_1_5_0,NA,NA,completion,11350.144,80293.900000002,80288.434,80305.1,91655.244,91659,2023-06-01T12:09:13Z,91671.91,"c(""distractor1"", ""distractor2"", ""distractor3"")",Schatten,kivuli,d,NA,NA,NA,NA,NA,NA,NA,NA,NA,NA,NA,NA,NA,NA,NA,NA,NA,NA,NA,NA,NA,NA,NA,NA,NA,NA
8404d,shallow,flow.Sequence,1_1_5_1,NA,NA,skipped,NA,91659.199999999,NA,NA,91655.244,91659.400000002,2023-06-01T12:09:13Z,91671.91,"c(""distractor1"", ""distractor2"", ""distractor3"")",Schatten,kivuli,d,NA,NA,NA,NA,NA,NA,NA,NA,NA,NA,NA,NA,NA,NA,NA,NA,NA,NA,NA,NA,NA,NA,NA,NA,NA,NA
8404d,task,flow.Sequence,1_1_5,NA,NA,completion,11350.144,80293.800000001,80288.434,80305.1,91655.244,91659.5,2023-06-01T12:09:13Z,91671.91,"c(""distractor1"", ""distractor2"", ""distractor3"")",Schatten,kivuli,d,NA,NA,NA,NA,NA,NA,NA,NA,NA,NA,NA,NA,NA,NA,NA,NA,NA,NA,NA,NA,NA,NA,NA,NA,NA,NA
8404d,block,flow.Loop,1_1,NA,NA,completion,86234.181,5414.6999999993,5404.397,5421.063,91655.244,91659.900000002,2023-06-01T12:09:13Z,91671.91,"c(""distractor1"", ""distractor2"", ""distractor3"")",NA,NA,NA,NA,NA,NA,NA,NA,NA,NA,NA,NA,NA,NA,NA,NA,NA,NA,NA,NA,NA,NA,NA,NA,NA,NA,NA,NA,NA
8404d,Practice,flow.Sequence,1,NA,NA,completion,87100.813,4546.6000000015,4537.765,4554.431,91655.244,91660.100000001,2023-06-01T12:09:13Z,91671.91,NULL,NA,NA,NA,NA,NA,NA,NA,NA,NA,NA,NA,NA,NA,NA,NA,NA,NA,NA,NA,NA,NA,NA,NA,NA,NA,NA,NA,NA,NA
8404d,Experiment start,canvas.Screen,2,weiter,keypress(q),response,15813.190000001,91660.199999999,91655.244,91671.91,107485.1,107491,2023-06-01T12:09:29Z,107555.206,NULL,NA,NA,NA,NA,NA,NA,NA,NA,NA,NA,NA,NA,NA,NA,NA,NA,NA,NA,NA,NA,NA,NA,NA,NA,NA,NA,NA,NA,NA
8404d,Deep Question,html.Page,3_0_0_0_0_0_0,NA,NA,form submission,12603.894000001,107546,107538.54,107555.206,120159.1,120159.7,2023-06-01T12:09:41Z,120172.747,NULL,Gelegenheit,wakati,d,NA,NA,NA,wakanda,NA,NA,0,NA,NA,NA,NA,NA,NA,NA,NA,NA,NA,NA,NA,NA,NA,NA,NA,NA,NA,NA
8404d,"""Richtig""-Screen",canvas.Screen,3_0_0_0_0_0_1,NA,NA,skipped,NA,120162.8,NA,NA,120159.1,120162.9,2023-06-01T12:09:41Z,120172.747,NULL,Gelegenheit,wakati,d,NA,NA,NA,NA,sdf,NA,0,NA,NA,NA,NA,NA,NA,NA,NA,NA,NA,NA,NA,NA,NA,NA,NA,NA,NA,NA
8404d,"""Falsch""-Screen",canvas.Screen,3_0_0_0_0_0_2,NA,NA,timeout,4999.8,120163.5,120156.081,120172.747,125155.881,125160.8,2023-06-01T12:09:46Z,125172.547,NULL,Gelegenheit,wakati,d,NA,NA,NA,NA,sdf,0,0,NA,NA,NA,NA,NA,NA,NA,NA,NA,NA,NA,NA,NA,NA,NA,NA,NA,NA,NA
8404d,deep,flow.Sequence,3_0_0_0_0_0,NA,NA,completion,17600.675,107545.9,107538.54,107555.206,125155.881,125161.2,2023-06-01T12:09:46Z,125172.547,NULL,Gelegenheit,wakati,d,NA,NA,NA,NA,sdf,NA,0,NA,NA,NA,NA,NA,NA,NA,NA,NA,NA,NA,NA,NA,NA,NA,NA,NA,NA,NA
8404d,shallow,flow.Sequence,3_0_0_0_0_1,NA,NA,skipped,NA,125161.3,NA,NA,125155.881,125161.3,2023-06-01T12:09:46Z,125172.547,NULL,Gelegenheit,wakati,d,NA,NA,NA,NA,sdf,NA,0,NA,NA,NA,NA,NA,NA,NA,NA,NA,NA,NA,NA,NA,NA,NA,NA,NA,NA,NA
8404d,task,flow.Sequence,3_0_0_0_0,NA,NA,completion,17600.675,107545.9,107538.54,107555.206,125155.881,125161.6,2023-06-01T12:09:46Z,125172.547,NULL,Gelegenheit,wakati,d,NA,NA,NA,NA,sdf,NA,0,NA,NA,NA,NA,NA,NA,NA,NA,NA,NA,NA,NA,NA,NA,NA,NA,NA,NA,NA
8404d,Deep Question,html.Page,3_0_0_0_1_0_0,NA,NA,form submission,6139.8530000022,125161.7,125155.881,125172.547,131312.4,131313,2023-06-01T12:09:53Z,131322.844,NULL,Ausschluss,kutengwa,d,NA,NA,NA,mofana,NA,NA,0,NA,NA,NA,NA,NA,NA,NA,NA,NA,NA,NA,NA,NA,NA,NA,NA,NA,NA,NA
8404d,"""Richtig""-Screen",canvas.Screen,3_0_0_0_1_0_1,NA,NA,skipped,NA,131316.4,NA,NA,131312.4,131316.7,2023-06-01T12:09:53Z,131322.844,NULL,Ausschluss,kutengwa,d,NA,NA,NA,NA,sdf,NA,0,NA,NA,NA,NA,NA,NA,NA,NA,NA,NA,NA,NA,NA,NA,NA,NA,NA,NA,NA
8404d,"""Falsch""-Screen",canvas.Screen,3_0_0_0_1_0_2,NA,NA,timeout,4999.8,131317.7,131306.178,131322.844,136305.978,136310,2023-06-01T12:09:58Z,136322.644,NULL,Ausschluss,kutengwa,d,NA,NA,NA,NA,sdf,0,0,NA,NA,NA,NA,NA,NA,NA,NA,NA,NA,NA,NA,NA,NA,NA,NA,NA,NA,NA
8404d,deep,flow.Sequence,3_0_0_0_1_0,NA,NA,completion,11133.431,125161.6,125155.881,125172.547,136305.978,136310.4,2023-06-01T12:09:58Z,136322.644,NULL,Ausschluss,kutengwa,d,NA,NA,NA,NA,sdf,NA,0,NA,NA,NA,NA,NA,NA,NA,NA,NA,NA,NA,NA,NA,NA,NA,NA,NA,NA,NA
8404d,shallow,flow.Sequence,3_0_0_0_1_1,NA,NA,skipped,NA,136310.6,NA,NA,136305.978,136310.7,2023-06-01T12:09:58Z,136322.644,NULL,Ausschluss,kutengwa,d,NA,NA,NA,NA,sdf,NA,0,NA,NA,NA,NA,NA,NA,NA,NA,NA,NA,NA,NA,NA,NA,NA,NA,NA,NA,NA
8404d,task,flow.Sequence,3_0_0_0_1,NA,NA,completion,11133.431,125161.6,125155.881,125172.547,136305.978,136310.9,2023-06-01T12:09:58Z,136322.644,NULL,Ausschluss,kutengwa,d,NA,NA,NA,NA,sdf,NA,0,NA,NA,NA,NA,NA,NA,NA,NA,NA,NA,NA,NA,NA,NA,NA,NA,NA,NA,NA
8404d,Deep Question,html.Page,3_0_0_0_2_0_0,NA,NA,form submission,8644.356,136311.1,136305.978,136322.644,144967,144967.6,2023-06-01T12:10:06Z,144972.936,NULL,Kreativität,ubunifu,d,NA,NA,NA,kutengwa,NA,NA,0,NA,NA,NA,NA,NA,NA,NA,NA,NA,NA,NA,NA,NA,NA,NA,NA,NA,NA,NA
8404d,"""Richtig""-Screen",canvas.Screen,3_0_0_0_2_0_1,NA,NA,skipped,NA,144971.4,NA,NA,144967,144971.6,2023-06-01T12:10:06Z,144972.936,NULL,Kreativität,ubunifu,d,NA,NA,NA,NA,sdf,NA,0,NA,NA,NA,NA,NA,NA,NA,NA,NA,NA,NA,NA,NA,NA,NA,NA,NA,NA,NA
8404d,"""Falsch""-Screen",canvas.Screen,3_0_0_0_2_0_2,NA,NA,timeout,4999.8,144972.4,144956.27,144972.936,149956.07,149960,2023-06-01T12:10:11Z,149972.736,NULL,Kreativität,ubunifu,d,NA,NA,NA,NA,sdf,0,0,NA,NA,NA,NA,NA,NA,NA,NA,NA,NA,NA,NA,NA,NA,NA,NA,NA,NA,NA
8404d,deep,flow.Sequence,3_0_0_0_2_0,NA,NA,completion,13633.426,136311,136305.978,136322.644,149956.07,149960.2,2023-06-01T12:10:11Z,149972.736,NULL,Kreativität,ubunifu,d,NA,NA,NA,NA,sdf,NA,0,NA,NA,NA,NA,NA,NA,NA,NA,NA,NA,NA,NA,NA,NA,NA,NA,NA,NA,NA
8404d,shallow,flow.Sequence,3_0_0_0_2_1,NA,NA,skipped,NA,149960.3,NA,NA,149956.07,149960.4,2023-06-01T12:10:11Z,149972.736,NULL,Kreativität,ubunifu,d,NA,NA,NA,NA,sdf,NA,0,NA,NA,NA,NA,NA,NA,NA,NA,NA,NA,NA,NA,NA,NA,NA,NA,NA,NA,NA
8404d,task,flow.Sequence,3_0_0_0_2,NA,NA,completion,13633.426,136311,136305.978,136322.644,149956.07,149960.5,2023-06-01T12:10:11Z,149972.736,NULL,Kreativität,ubunifu,d,NA,NA,NA,NA,sdf,NA,0,NA,NA,NA,NA,NA,NA,NA,NA,NA,NA,NA,NA,NA,NA,NA,NA,NA,NA,NA
8404d,deep,flow.Sequence,3_0_0_0_3_0,NA,NA,skipped,NA,149960.6,NA,NA,149956.07,149960.6,2023-06-01T12:10:11Z,149972.736,NULL,Kontrolle,kudhibiti,s,mbinguni,kufunga,utegemezi,NA,sdf,NA,0,NA,NA,NA,NA,NA,NA,NA,NA,NA,NA,NA,NA,NA,NA,NA,NA,NA,NA,NA
8404d,Shallow Question,html.Page,3_0_0_0_3_1_0,NA,NA,form submission,6888.264,149960.7,149956.07,149972.736,156861,156861.4,2023-06-01T12:10:18Z,156873.028,NULL,Kontrolle,kudhibiti,s,mbinguni,kufunga,utegemezi,utegemezi,NA,NA,0,NA,NA,NA,NA,NA,NA,NA,NA,NA,NA,NA,NA,NA,NA,NA,NA,NA,NA,NA
8404d,"""Richtig""-Screen",canvas.Screen,3_0_0_0_3_1_1,NA,NA,skipped,NA,156863.4,NA,NA,156861,156863.7,2023-06-01T12:10:18Z,156873.028,NULL,Kontrolle,kudhibiti,s,mbinguni,kufunga,utegemezi,NA,sdf,NA,0,NA,NA,NA,NA,NA,NA,NA,NA,NA,NA,NA,NA,NA,NA,NA,NA,NA,NA,NA
8404d,"""Falsch""-Screen",canvas.Screen,3_0_0_0_3_1_2,NA,NA,timeout,4999.8,156864.5,156856.362,156873.028,161856.162,161861.5,2023-06-01T12:10:23Z,161872.828,NULL,Kontrolle,kudhibiti,s,mbinguni,kufunga,utegemezi,NA,sdf,0,0,NA,NA,NA,NA,NA,NA,NA,NA,NA,NA,NA,NA,NA,NA,NA,NA,NA,NA,NA
8404d,shallow,flow.Sequence,3_0_0_0_3_1,NA,NA,completion,11883.426,149960.6,149956.07,149972.736,161856.162,161861.9,2023-06-01T12:10:23Z,161872.828,NULL,Kontrolle,kudhibiti,s,mbinguni,kufunga,utegemezi,NA,sdf,NA,0,NA,NA,NA,NA,NA,NA,NA,NA,NA,NA,NA,NA,NA,NA,NA,NA,NA,NA,NA
8404d,task,flow.Sequence,3_0_0_0_3,NA,NA,completion,11883.426,149960.5,149956.07,149972.736,161856.162,161862.1,2023-06-01T12:10:23Z,161872.828,NULL,Kontrolle,kudhibiti,s,mbinguni,kufunga,utegemezi,NA,sdf,NA,0,NA,NA,NA,NA,NA,NA,NA,NA,NA,NA,NA,NA,NA,NA,NA,NA,NA,NA,NA
8404d,Deep Question,html.Page,3_0_0_0_4_0_0,NA,NA,form submission,2570.5720000022,161862.4,161856.162,161872.828,164443.4,164443.8,2023-06-01T12:10:26Z,164456.617,NULL,Können,unaweza,d,NA,NA,NA,afdas,NA,NA,0,NA,NA,NA,NA,NA,NA,NA,NA,NA,NA,NA,NA,NA,NA,NA,NA,NA,NA,NA
8404d,"""Richtig""-Screen",canvas.Screen,3_0_0_0_4_0_1,NA,NA,skipped,NA,164446.4,NA,NA,164443.4,164446.5,2023-06-01T12:10:26Z,164456.617,NULL,Können,unaweza,d,NA,NA,NA,NA,sdf,NA,0,NA,NA,NA,NA,NA,NA,NA,NA,NA,NA,NA,NA,NA,NA,NA,NA,NA,NA,NA
8404d,"""Falsch""-Screen",canvas.Screen,3_0_0_0_4_0_2,NA,NA,timeout,4999.8,164447.1,164439.951,164456.617,169439.751,169443.8,2023-06-01T12:10:31Z,169456.417,NULL,Können,unaweza,d,NA,NA,NA,NA,sdf,0,0,NA,NA,NA,NA,NA,NA,NA,NA,NA,NA,NA,NA,NA,NA,NA,NA,NA,NA,NA
8404d,deep,flow.Sequence,3_0_0_0_4_0,NA,NA,completion,7566.923,161862.3,161856.162,161872.828,169439.751,169444.2,2023-06-01T12:10:31Z,169456.417,NULL,Können,unaweza,d,NA,NA,NA,NA,sdf,NA,0,NA,NA,NA,NA,NA,NA,NA,NA,NA,NA,NA,NA,NA,NA,NA,NA,NA,NA,NA
8404d,shallow,flow.Sequence,3_0_0_0_4_1,NA,NA,skipped,NA,169444.3,NA,NA,169439.751,169444.4,2023-06-01T12:10:31Z,169456.417,NULL,Können,unaweza,d,NA,NA,NA,NA,sdf,NA,0,NA,NA,NA,NA,NA,NA,NA,NA,NA,NA,NA,NA,NA,NA,NA,NA,NA,NA,NA
8404d,task,flow.Sequence,3_0_0_0_4,NA,NA,completion,7566.923,161862.2,161856.162,161872.828,169439.751,169444.6,2023-06-01T12:10:31Z,169456.417,NULL,Können,unaweza,d,NA,NA,NA,NA,sdf,NA,0,NA,NA,NA,NA,NA,NA,NA,NA,NA,NA,NA,NA,NA,NA,NA,NA,NA,NA,NA
8404d,deep,flow.Sequence,3_0_0_0_5_0,NA,NA,skipped,NA,169444.8,NA,NA,169439.751,169444.9,2023-06-01T12:10:31Z,169456.417,NULL,Widerstand,usulubu,s,kusababisha,mwalimu,mwenendo,NA,sdf,NA,0,NA,NA,NA,NA,NA,NA,NA,NA,NA,NA,NA,NA,NA,NA,NA,NA,NA,NA,NA
8404d,Shallow Question,html.Page,3_0_0_0_5_1_0,NA,NA,form submission,9522.9830000022,169444.9,169439.751,169456.417,178979.4,178979.9,2023-06-01T12:10:40Z,178989.955,NULL,Widerstand,usulubu,s,kusababisha,mwalimu,mwenendo,mwenendo,NA,NA,0,NA,NA,NA,NA,NA,NA,NA,NA,NA,NA,NA,NA,NA,NA,NA,NA,NA,NA,NA
8404d,"""Richtig""-Screen",canvas.Screen,3_0_0_0_5_1_1,NA,NA,skipped,NA,178982.5,NA,NA,178979.4,178982.7,2023-06-01T12:10:40Z,178989.955,NULL,Widerstand,usulubu,s,kusababisha,mwalimu,mwenendo,NA,sdf,NA,0,NA,NA,NA,NA,NA,NA,NA,NA,NA,NA,NA,NA,NA,NA,NA,NA,NA,NA,NA
8404d,"""Falsch""-Screen",canvas.Screen,3_0_0_0_5_1_2,NA,NA,timeout,4999.8,178983.7,178973.289,178989.955,183973.089,183978.2,2023-06-01T12:10:45Z,183989.755,NULL,Widerstand,usulubu,s,kusababisha,mwalimu,mwenendo,NA,sdf,0,0,NA,NA,NA,NA,NA,NA,NA,NA,NA,NA,NA,NA,NA,NA,NA,NA,NA,NA,NA
8404d,shallow,flow.Sequence,3_0_0_0_5_1,NA,NA,completion,14516.672,169444.9,169439.751,169456.417,183973.089,183978.6,2023-06-01T12:10:45Z,183989.755,NULL,Widerstand,usulubu,s,kusababisha,mwalimu,mwenendo,NA,sdf,NA,0,NA,NA,NA,NA,NA,NA,NA,NA,NA,NA,NA,NA,NA,NA,NA,NA,NA,NA,NA
8404d,task,flow.Sequence,3_0_0_0_5,NA,NA,completion,14516.672,169444.7,169439.751,169456.417,183973.089,183978.9,2023-06-01T12:10:45Z,183989.755,NULL,Widerstand,usulubu,s,kusababisha,mwalimu,mwenendo,NA,sdf,NA,0,NA,NA,NA,NA,NA,NA,NA,NA,NA,NA,NA,NA,NA,NA,NA,NA,NA,NA,NA
8404d,deep,flow.Sequence,3_0_0_0_6_0,NA,NA,skipped,NA,183979,NA,NA,183973.089,183979.2,2023-06-01T12:10:45Z,183989.755,NULL,Gefährdung,kuhatarisha,s,uchokozi,udhaifu,makorowezo,NA,sdf,NA,0,NA,NA,NA,NA,NA,NA,NA,NA,NA,NA,NA,NA,NA,NA,NA,NA,NA,NA,NA
8404d,Shallow Question,html.Page,3_0_0_0_6_1_0,NA,NA,form submission,7505.745,183979.3,183973.089,183989.755,191495.5,191495.9,2023-06-01T12:10:53Z,191506.693,NULL,Gefährdung,kuhatarisha,s,uchokozi,udhaifu,makorowezo,makorowezo,NA,NA,0,NA,NA,NA,NA,NA,NA,NA,NA,NA,NA,NA,NA,NA,NA,NA,NA,NA,NA,NA
8404d,"""Richtig""-Screen",canvas.Screen,3_0_0_0_6_1_1,NA,NA,skipped,NA,191498.5,NA,NA,191495.5,191498.7,2023-06-01T12:10:53Z,191506.693,NULL,Gefährdung,kuhatarisha,s,uchokozi,udhaifu,makorowezo,NA,sdf,NA,0,NA,NA,NA,NA,NA,NA,NA,NA,NA,NA,NA,NA,NA,NA,NA,NA,NA,NA,NA
8404d,"""Falsch""-Screen",canvas.Screen,3_0_0_0_6_1_2,NA,NA,timeout,4999.8,191499.2,191490.027,191506.693,196489.827,196494.4,2023-06-01T12:10:58Z,196506.493,NULL,Gefährdung,kuhatarisha,s,uchokozi,udhaifu,makorowezo,NA,sdf,0,0,NA,NA,NA,NA,NA,NA,NA,NA,NA,NA,NA,NA,NA,NA,NA,NA,NA,NA,NA
8404d,shallow,flow.Sequence,3_0_0_0_6_1,NA,NA,completion,12500.072,183979.2,183973.089,183989.755,196489.827,196494.8,2023-06-01T12:10:58Z,196506.493,NULL,Gefährdung,kuhatarisha,s,uchokozi,udhaifu,makorowezo,NA,sdf,NA,0,NA,NA,NA,NA,NA,NA,NA,NA,NA,NA,NA,NA,NA,NA,NA,NA,NA,NA,NA
8404d,task,flow.Sequence,3_0_0_0_6,NA,NA,completion,12500.072,183979,183973.089,183989.755,196489.827,196494.9,2023-06-01T12:10:58Z,196506.493,NULL,Gefährdung,kuhatarisha,s,uchokozi,udhaifu,makorowezo,NA,sdf,NA,0,NA,NA,NA,NA,NA,NA,NA,NA,NA,NA,NA,NA,NA,NA,NA,NA,NA,NA,NA
8404d,deep,flow.Sequence,3_0_0_0_7_0,NA,NA,skipped,NA,196495,NA,NA,196489.827,196495.1,2023-06-01T12:10:58Z,196506.493,NULL,Verstand,ufahamivu,s,shakawa,hadhari,mhandisi,NA,sdf,NA,0,NA,NA,NA,NA,NA,NA,NA,NA,NA,NA,NA,NA,NA,NA,NA,NA,NA,NA,NA
8404d,Shallow Question,html.Page,3_0_0_0_7_1_0,NA,NA,form submission,6739.007,196495.2,196489.827,196506.493,203245.5,203246.1,2023-06-01T12:11:05Z,203256.881,NULL,Verstand,ufahamivu,s,shakawa,hadhari,mhandisi,hadhari,NA,NA,0,NA,NA,NA,NA,NA,NA,NA,NA,NA,NA,NA,NA,NA,NA,NA,NA,NA,NA,NA
8404d,"""Richtig""-Screen",canvas.Screen,3_0_0_0_7_1_1,NA,NA,skipped,NA,203248.7,NA,NA,203245.5,203248.8,2023-06-01T12:11:05Z,203256.881,NULL,Verstand,ufahamivu,s,shakawa,hadhari,mhandisi,NA,sdf,NA,0,NA,NA,NA,NA,NA,NA,NA,NA,NA,NA,NA,NA,NA,NA,NA,NA,NA,NA,NA
8404d,"""Falsch""-Screen",canvas.Screen,3_0_0_0_7_1_2,NA,NA,timeout,4999.8,203249.3,203240.215,203256.881,208240.015,208244.5,2023-06-01T12:11:10Z,208256.681,NULL,Verstand,ufahamivu,s,shakawa,hadhari,mhandisi,NA,sdf,0,0,NA,NA,NA,NA,NA,NA,NA,NA,NA,NA,NA,NA,NA,NA,NA,NA,NA,NA,NA
8404d,shallow,flow.Sequence,3_0_0_0_7_1,NA,NA,completion,11733.522,196495.1,196489.827,196506.493,208240.015,208245,2023-06-01T12:11:10Z,208256.681,NULL,Verstand,ufahamivu,s,shakawa,hadhari,mhandisi,NA,sdf,NA,0,NA,NA,NA,NA,NA,NA,NA,NA,NA,NA,NA,NA,NA,NA,NA,NA,NA,NA,NA
8404d,task,flow.Sequence,3_0_0_0_7,NA,NA,completion,11733.522,196495,196489.827,196506.493,208240.015,208245.3,2023-06-01T12:11:10Z,208256.681,NULL,Verstand,ufahamivu,s,shakawa,hadhari,mhandisi,NA,sdf,NA,0,NA,NA,NA,NA,NA,NA,NA,NA,NA,NA,NA,NA,NA,NA,NA,NA,NA,NA,NA
8404d,block,flow.Loop,3_0_0_0,NA,NA,completion,100684.809,107545.9,107538.54,107555.206,208240.015,208245.4,2023-06-01T12:11:10Z,208256.681,NULL,NA,NA,NA,NA,NA,NA,NA,sdf,NA,0,NA,NA,NA,NA,NA,NA,NA,NA,NA,NA,NA,NA,NA,NA,NA,NA,NA,NA,NA
8404d,weiter,canvas.Screen,3_0_0_1,sdf,keypress(Space),response,1287.7190000022,208245.5,208240.015,208256.681,209544.4,209549.8,2023-06-01T12:11:11Z,209573.912,NULL,NA,NA,NA,NA,NA,NA,NA,sdf,NA,0,NA,NA,NA,NA,NA,NA,NA,NA,NA,NA,NA,NA,NA,NA,NA,NA,NA,NA,NA
8404d,check continue,flow.Sequence,3_0_0,NA,NA,completion,101989.194,107545.9,107538.54,107555.206,209544.4,209550,2023-06-01T12:11:11Z,209573.912,NULL,NA,NA,NA,NA,NA,NA,NA,sdf,NA,0,NA,NA,NA,NA,NA,NA,NA,NA,NA,NA,NA,NA,NA,NA,NA,NA,NA,NA,NA
8404d,deep,flow.Sequence,3_0_1_0_0_0,NA,NA,skipped,NA,209576.4,NA,NA,209544.4,209576.5,2023-06-01T12:11:11Z,209573.912,NULL,Verstand,ufahamivu,s,shakawa,hadhari,mhandisi,NA,sdfdsf,NA,1,NA,NA,NA,NA,NA,NA,NA,NA,NA,NA,NA,NA,NA,NA,NA,NA,NA,NA,NA
8404d,Shallow Question,html.Page,3_0_1_0_0_1_0,NA,NA,form submission,4872.2879999992,209576.6,209540.58,209573.912,214446.2,214446.9,2023-06-01T12:11:16Z,214457.05,NULL,Verstand,ufahamivu,s,shakawa,hadhari,mhandisi,ufahamivu,NA,NA,1,NA,NA,NA,NA,NA,NA,NA,NA,NA,NA,NA,NA,NA,NA,NA,NA,NA,NA,NA
8404d,"""Richtig""-Screen",canvas.Screen,3_0_1_0_0_1_1,NA,NA,timeout,4999.8,214450.3,214440.384,214457.05,219440.184,219444.4,2023-06-01T12:11:21Z,219456.85,NULL,Verstand,ufahamivu,s,shakawa,hadhari,mhandisi,NA,sdfdsf,1,1,NA,NA,NA,NA,NA,NA,NA,NA,NA,NA,NA,NA,NA,NA,NA,NA,NA,NA,NA
8404d,"""Falsch""-Screen",canvas.Screen,3_0_1_0_0_1_2,NA,NA,skipped,NA,219448.6,NA,NA,219440.184,219448.7,2023-06-01T12:11:21Z,219456.85,NULL,Verstand,ufahamivu,s,shakawa,hadhari,mhandisi,NA,sdfdsf,NA,1,NA,NA,NA,NA,NA,NA,NA,NA,NA,NA,NA,NA,NA,NA,NA,NA,NA,NA,NA
8404d,shallow,flow.Sequence,3_0_1_0_0_1,NA,NA,completion,9866.272,209576.5,209540.58,209573.912,219440.184,219448.9,2023-06-01T12:11:21Z,219456.85,NULL,Verstand,ufahamivu,s,shakawa,hadhari,mhandisi,NA,sdfdsf,NA,1,NA,NA,NA,NA,NA,NA,NA,NA,NA,NA,NA,NA,NA,NA,NA,NA,NA,NA,NA
8404d,task,flow.Sequence,3_0_1_0_0,NA,NA,completion,9866.272,209576.4,209540.58,209573.912,219440.184,219449.2,2023-06-01T12:11:21Z,219456.85,NULL,Verstand,ufahamivu,s,shakawa,hadhari,mhandisi,NA,sdfdsf,NA,1,NA,NA,NA,NA,NA,NA,NA,NA,NA,NA,NA,NA,NA,NA,NA,NA,NA,NA,NA
8404d,Deep Question,html.Page,3_0_1_0_1_0_0,NA,NA,form submission,8221.4500000007,219449.4,219440.184,219456.85,227678.3,227678.9,2023-06-01T12:11:29Z,227690.421,NULL,Kreativität,ubunifu,d,NA,NA,NA,knada,NA,NA,1,NA,NA,NA,NA,NA,NA,NA,NA,NA,NA,NA,NA,NA,NA,NA,NA,NA,NA,NA
8404d,"""Richtig""-Screen",canvas.Screen,3_0_1_0_1_0_1,NA,NA,skipped,NA,227681.9,NA,NA,227678.3,227682.3,2023-06-01T12:11:29Z,227690.421,NULL,Kreativität,ubunifu,d,NA,NA,NA,NA,sdfdsf,NA,1,NA,NA,NA,NA,NA,NA,NA,NA,NA,NA,NA,NA,NA,NA,NA,NA,NA,NA,NA
8404d,"""Falsch""-Screen",canvas.Screen,3_0_1_0_1_0_2,NA,NA,timeout,4999.8,227683.5,227673.755,227690.421,232673.555,232678.2,2023-06-01T12:11:34Z,232690.221,NULL,Kreativität,ubunifu,d,NA,NA,NA,NA,sdfdsf,0,1,NA,NA,NA,NA,NA,NA,NA,NA,NA,NA,NA,NA,NA,NA,NA,NA,NA,NA,NA
8404d,deep,flow.Sequence,3_0_1_0_1_0,NA,NA,completion,13216.705,219449.3,219440.184,219456.85,232673.555,232678.6,2023-06-01T12:11:34Z,232690.221,NULL,Kreativität,ubunifu,d,NA,NA,NA,NA,sdfdsf,NA,1,NA,NA,NA,NA,NA,NA,NA,NA,NA,NA,NA,NA,NA,NA,NA,NA,NA,NA,NA
8404d,shallow,flow.Sequence,3_0_1_0_1_1,NA,NA,skipped,NA,232678.7,NA,NA,232673.555,232678.8,2023-06-01T12:11:34Z,232690.221,NULL,Kreativität,ubunifu,d,NA,NA,NA,NA,sdfdsf,NA,1,NA,NA,NA,NA,NA,NA,NA,NA,NA,NA,NA,NA,NA,NA,NA,NA,NA,NA,NA
8404d,task,flow.Sequence,3_0_1_0_1,NA,NA,completion,13216.705,219449.2,219440.184,219456.85,232673.555,232679,2023-06-01T12:11:34Z,232690.221,NULL,Kreativität,ubunifu,d,NA,NA,NA,NA,sdfdsf,NA,1,NA,NA,NA,NA,NA,NA,NA,NA,NA,NA,NA,NA,NA,NA,NA,NA,NA,NA,NA
8404d,deep,flow.Sequence,3_0_1_0_2_0,NA,NA,skipped,NA,232679.1,NA,NA,232673.555,232679.2,2023-06-01T12:11:34Z,232690.221,NULL,Gefährdung,kuhatarisha,s,uchokozi,udhaifu,makorowezo,NA,sdfdsf,NA,1,NA,NA,NA,NA,NA,NA,NA,NA,NA,NA,NA,NA,NA,NA,NA,NA,NA,NA,NA
8404d,Shallow Question,html.Page,3_0_1_0_2_1_0,NA,NA,form submission,10922.478999999,232679.5,232673.555,232690.221,243612.7,243613.3,2023-06-01T12:11:45Z,243624.391,NULL,Gefährdung,kuhatarisha,s,uchokozi,udhaifu,makorowezo,udhaifu,NA,NA,1,NA,NA,NA,NA,NA,NA,NA,NA,NA,NA,NA,NA,NA,NA,NA,NA,NA,NA,NA
8404d,"""Richtig""-Screen",canvas.Screen,3_0_1_0_2_1_1,NA,NA,skipped,NA,243616,NA,NA,243612.7,243616.1,2023-06-01T12:11:45Z,243624.391,NULL,Gefährdung,kuhatarisha,s,uchokozi,udhaifu,makorowezo,NA,sdfdsf,NA,1,NA,NA,NA,NA,NA,NA,NA,NA,NA,NA,NA,NA,NA,NA,NA,NA,NA,NA,NA
8404d,"""Falsch""-Screen",canvas.Screen,3_0_1_0_2_1_2,NA,NA,timeout,4999.8,243616.7,243607.725,243624.391,248607.525,248611.9,2023-06-01T12:11:50Z,248624.191,NULL,Gefährdung,kuhatarisha,s,uchokozi,udhaifu,makorowezo,NA,sdfdsf,0,1,NA,NA,NA,NA,NA,NA,NA,NA,NA,NA,NA,NA,NA,NA,NA,NA,NA,NA,NA
8404d,shallow,flow.Sequence,3_0_1_0_2_1,NA,NA,completion,15917.304,232679.4,232673.555,232690.221,248607.525,248612.3,2023-06-01T12:11:50Z,248624.191,NULL,Gefährdung,kuhatarisha,s,uchokozi,udhaifu,makorowezo,NA,sdfdsf,NA,1,NA,NA,NA,NA,NA,NA,NA,NA,NA,NA,NA,NA,NA,NA,NA,NA,NA,NA,NA
8404d,task,flow.Sequence,3_0_1_0_2,NA,NA,completion,15917.304,232679,232673.555,232690.221,248607.525,248612.5,2023-06-01T12:11:50Z,248624.191,NULL,Gefährdung,kuhatarisha,s,uchokozi,udhaifu,makorowezo,NA,sdfdsf,NA,1,NA,NA,NA,NA,NA,NA,NA,NA,NA,NA,NA,NA,NA,NA,NA,NA,NA,NA,NA
8404d,Deep Question,html.Page,3_0_1_0_3_0_0,NA,NA,form submission,2425.0089999993,248612.8,248607.525,248624.191,251049.2,251049.7,2023-06-01T12:11:52Z,251057.427,NULL,Gelegenheit,wakati,d,NA,NA,NA,kaha,NA,NA,1,NA,NA,NA,NA,NA,NA,NA,NA,NA,NA,NA,NA,NA,NA,NA,NA,NA,NA,NA
8404d,"""Richtig""-Screen",canvas.Screen,3_0_1_0_3_0_1,NA,NA,skipped,NA,251052.5,NA,NA,251049.2,251052.7,2023-06-01T12:11:52Z,251057.427,NULL,Gelegenheit,wakati,d,NA,NA,NA,NA,sdfdsf,NA,1,NA,NA,NA,NA,NA,NA,NA,NA,NA,NA,NA,NA,NA,NA,NA,NA,NA,NA,NA
8404d,"""Falsch""-Screen",canvas.Screen,3_0_1_0_3_0_2,NA,NA,timeout,4999.8,251053.9,251040.761,251057.427,256040.561,256044.8,2023-06-01T12:11:57Z,256057.227,NULL,Gelegenheit,wakati,d,NA,NA,NA,NA,sdfdsf,0,1,NA,NA,NA,NA,NA,NA,NA,NA,NA,NA,NA,NA,NA,NA,NA,NA,NA,NA,NA
8404d,deep,flow.Sequence,3_0_1_0_3_0,NA,NA,completion,7416.37,248612.7,248607.525,248624.191,256040.561,256045.1,2023-06-01T12:11:57Z,256057.227,NULL,Gelegenheit,wakati,d,NA,NA,NA,NA,sdfdsf,NA,1,NA,NA,NA,NA,NA,NA,NA,NA,NA,NA,NA,NA,NA,NA,NA,NA,NA,NA,NA
8404d,shallow,flow.Sequence,3_0_1_0_3_1,NA,NA,skipped,NA,256045.2,NA,NA,256040.561,256045.4,2023-06-01T12:11:57Z,256057.227,NULL,Gelegenheit,wakati,d,NA,NA,NA,NA,sdfdsf,NA,1,NA,NA,NA,NA,NA,NA,NA,NA,NA,NA,NA,NA,NA,NA,NA,NA,NA,NA,NA
8404d,task,flow.Sequence,3_0_1_0_3,NA,NA,completion,7416.37,248612.6,248607.525,248624.191,256040.561,256045.6,2023-06-01T12:11:57Z,256057.227,NULL,Gelegenheit,wakati,d,NA,NA,NA,NA,sdfdsf,NA,1,NA,NA,NA,NA,NA,NA,NA,NA,NA,NA,NA,NA,NA,NA,NA,NA,NA,NA,NA
8404d,Deep Question,html.Page,3_0_1_0_4_0_0,NA,NA,form submission,2511.0730000007,256045.8,256040.561,256057.227,258568.3,258568.7,2023-06-01T12:12:00Z,258574.461,NULL,Können,unaweza,d,NA,NA,NA,kaha,NA,NA,1,NA,NA,NA,NA,NA,NA,NA,NA,NA,NA,NA,NA,NA,NA,NA,NA,NA,NA,NA
8404d,"""Richtig""-Screen",canvas.Screen,3_0_1_0_4_0_1,NA,NA,skipped,NA,258571.1,NA,NA,258568.3,258571.2,2023-06-01T12:12:00Z,258574.461,NULL,Können,unaweza,d,NA,NA,NA,NA,sdfdsf,NA,1,NA,NA,NA,NA,NA,NA,NA,NA,NA,NA,NA,NA,NA,NA,NA,NA,NA,NA,NA
8404d,"""Falsch""-Screen",canvas.Screen,3_0_1_0_4_0_2,NA,NA,timeout,4999.8,258572.5,258557.795,258574.461,263557.595,263562.5,2023-06-01T12:12:05Z,263574.261,NULL,Können,unaweza,d,NA,NA,NA,NA,sdfdsf,0,1,NA,NA,NA,NA,NA,NA,NA,NA,NA,NA,NA,NA,NA,NA,NA,NA,NA,NA,NA
8404d,deep,flow.Sequence,3_0_1_0_4_0,NA,NA,completion,7500.368,256045.7,256040.561,256057.227,263557.595,263562.9,2023-06-01T12:12:05Z,263574.261,NULL,Können,unaweza,d,NA,NA,NA,NA,sdfdsf,NA,1,NA,NA,NA,NA,NA,NA,NA,NA,NA,NA,NA,NA,NA,NA,NA,NA,NA,NA,NA
8404d,shallow,flow.Sequence,3_0_1_0_4_1,NA,NA,skipped,NA,263563.1,NA,NA,263557.595,263563.1,2023-06-01T12:12:05Z,263574.261,NULL,Können,unaweza,d,NA,NA,NA,NA,sdfdsf,NA,1,NA,NA,NA,NA,NA,NA,NA,NA,NA,NA,NA,NA,NA,NA,NA,NA,NA,NA,NA
8404d,task,flow.Sequence,3_0_1_0_4,NA,NA,completion,7500.368,256045.7,256040.561,256057.227,263557.595,263563.3,2023-06-01T12:12:05Z,263574.261,NULL,Können,unaweza,d,NA,NA,NA,NA,sdfdsf,NA,1,NA,NA,NA,NA,NA,NA,NA,NA,NA,NA,NA,NA,NA,NA,NA,NA,NA,NA,NA
8404d,deep,flow.Sequence,3_0_1_0_5_0,NA,NA,skipped,NA,263563.5,NA,NA,263557.595,263563.6,2023-06-01T12:12:05Z,263574.261,NULL,Widerstand,usulubu,s,kusababisha,mwalimu,mwenendo,NA,sdfdsf,NA,1,NA,NA,NA,NA,NA,NA,NA,NA,NA,NA,NA,NA,NA,NA,NA,NA,NA,NA,NA
8404d,Shallow Question,html.Page,3_0_1_0_5_1_0,NA,NA,form submission,8787.9389999993,263563.7,263557.595,263574.261,272362.2,272362.7,2023-06-01T12:12:14Z,272374.652,NULL,Widerstand,usulubu,s,kusababisha,mwalimu,mwenendo,kusababisha,NA,NA,1,NA,NA,NA,NA,NA,NA,NA,NA,NA,NA,NA,NA,NA,NA,NA,NA,NA,NA,NA
8404d,"""Richtig""-Screen",canvas.Screen,3_0_1_0_5_1_1,NA,NA,skipped,NA,272365.4,NA,NA,272362.2,272365.5,2023-06-01T12:12:14Z,272374.652,NULL,Widerstand,usulubu,s,kusababisha,mwalimu,mwenendo,NA,sdfdsf,NA,1,NA,NA,NA,NA,NA,NA,NA,NA,NA,NA,NA,NA,NA,NA,NA,NA,NA,NA,NA
8404d,"""Falsch""-Screen",canvas.Screen,3_0_1_0_5_1_2,NA,NA,timeout,4999.8,272366.4,272357.986,272374.652,277357.786,277362,2023-06-01T12:12:19Z,277374.452,NULL,Widerstand,usulubu,s,kusababisha,mwalimu,mwenendo,NA,sdfdsf,0,1,NA,NA,NA,NA,NA,NA,NA,NA,NA,NA,NA,NA,NA,NA,NA,NA,NA,NA,NA
8404d,shallow,flow.Sequence,3_0_1_0_5_1,NA,NA,completion,13783.525,263563.7,263557.595,263574.261,277357.786,277362.5,2023-06-01T12:12:19Z,277374.452,NULL,Widerstand,usulubu,s,kusababisha,mwalimu,mwenendo,NA,sdfdsf,NA,1,NA,NA,NA,NA,NA,NA,NA,NA,NA,NA,NA,NA,NA,NA,NA,NA,NA,NA,NA
8404d,task,flow.Sequence,3_0_1_0_5,NA,NA,completion,13783.525,263563.4,263557.595,263574.261,277357.786,277362.6,2023-06-01T12:12:19Z,277374.452,NULL,Widerstand,usulubu,s,kusababisha,mwalimu,mwenendo,NA,sdfdsf,NA,1,NA,NA,NA,NA,NA,NA,NA,NA,NA,NA,NA,NA,NA,NA,NA,NA,NA,NA,NA
8404d,Deep Question,html.Page,3_0_1_0_6_0_0,NA,NA,form submission,2773.4480000022,277362.8,277357.786,277374.452,280147.9,280148.4,2023-06-01T12:12:21Z,280157.674,NULL,Ausschluss,kutengwa,d,NA,NA,NA,usu,NA,NA,1,NA,NA,NA,NA,NA,NA,NA,NA,NA,NA,NA,NA,NA,NA,NA,NA,NA,NA,NA
8404d,"""Richtig""-Screen",canvas.Screen,3_0_1_0_6_0_1,NA,NA,skipped,NA,280151,NA,NA,280147.9,280151.1,2023-06-01T12:12:21Z,280157.674,NULL,Ausschluss,kutengwa,d,NA,NA,NA,NA,sdfdsf,NA,1,NA,NA,NA,NA,NA,NA,NA,NA,NA,NA,NA,NA,NA,NA,NA,NA,NA,NA,NA
8404d,"""Falsch""-Screen",canvas.Screen,3_0_1_0_6_0_2,NA,NA,timeout,4999.8,280151.7,280141.008,280157.674,285140.808,285144.6,2023-06-01T12:12:26Z,285157.474,NULL,Ausschluss,kutengwa,d,NA,NA,NA,NA,sdfdsf,0,1,NA,NA,NA,NA,NA,NA,NA,NA,NA,NA,NA,NA,NA,NA,NA,NA,NA,NA,NA
8404d,deep,flow.Sequence,3_0_1_0_6_0,NA,NA,completion,7766.356,277362.8,277357.786,277374.452,285140.808,285144.9,2023-06-01T12:12:26Z,285157.474,NULL,Ausschluss,kutengwa,d,NA,NA,NA,NA,sdfdsf,NA,1,NA,NA,NA,NA,NA,NA,NA,NA,NA,NA,NA,NA,NA,NA,NA,NA,NA,NA,NA
8404d,shallow,flow.Sequence,3_0_1_0_6_1,NA,NA,skipped,NA,285145.1,NA,NA,285140.808,285145.2,2023-06-01T12:12:26Z,285157.474,NULL,Ausschluss,kutengwa,d,NA,NA,NA,NA,sdfdsf,NA,1,NA,NA,NA,NA,NA,NA,NA,NA,NA,NA,NA,NA,NA,NA,NA,NA,NA,NA,NA
8404d,task,flow.Sequence,3_0_1_0_6,NA,NA,completion,7766.356,277362.8,277357.786,277374.452,285140.808,285145.4,2023-06-01T12:12:26Z,285157.474,NULL,Ausschluss,kutengwa,d,NA,NA,NA,NA,sdfdsf,NA,1,NA,NA,NA,NA,NA,NA,NA,NA,NA,NA,NA,NA,NA,NA,NA,NA,NA,NA,NA
8404d,deep,flow.Sequence,3_0_1_0_7_0,NA,NA,skipped,NA,285145.5,NA,NA,285140.808,285145.6,2023-06-01T12:12:26Z,285157.474,NULL,Kontrolle,kudhibiti,s,mbinguni,kufunga,utegemezi,NA,sdfdsf,NA,1,NA,NA,NA,NA,NA,NA,NA,NA,NA,NA,NA,NA,NA,NA,NA,NA,NA,NA,NA
8404d,Shallow Question,html.Page,3_0_1_0_7_1_0,NA,NA,form submission,6737.7259999993,285145.7,285140.808,285157.474,291895.2,291895.8,2023-06-01T12:12:33Z,291907.99,NULL,Kontrolle,kudhibiti,s,mbinguni,kufunga,utegemezi,kudhibiti,NA,NA,1,NA,NA,NA,NA,NA,NA,NA,NA,NA,NA,NA,NA,NA,NA,NA,NA,NA,NA,NA
8404d,"""Richtig""-Screen",canvas.Screen,3_0_1_0_7_1_1,NA,NA,timeout,4999.8,291898.2,291891.324,291907.99,296891.124,296895.9,2023-06-01T12:12:38Z,296907.79,NULL,Kontrolle,kudhibiti,s,mbinguni,kufunga,utegemezi,NA,sdfdsf,1,1,NA,NA,NA,NA,NA,NA,NA,NA,NA,NA,NA,NA,NA,NA,NA,NA,NA,NA,NA
8404d,"""Falsch""-Screen",canvas.Screen,3_0_1_0_7_1_2,NA,NA,skipped,NA,296898.6,NA,NA,296891.124,296898.8,2023-06-01T12:12:38Z,296907.79,NULL,Kontrolle,kudhibiti,s,mbinguni,kufunga,utegemezi,NA,sdfdsf,NA,1,NA,NA,NA,NA,NA,NA,NA,NA,NA,NA,NA,NA,NA,NA,NA,NA,NA,NA,NA
8404d,shallow,flow.Sequence,3_0_1_0_7_1,NA,NA,completion,11733.65,285145.7,285140.808,285157.474,296891.124,296898.9,2023-06-01T12:12:38Z,296907.79,NULL,Kontrolle,kudhibiti,s,mbinguni,kufunga,utegemezi,NA,sdfdsf,NA,1,NA,NA,NA,NA,NA,NA,NA,NA,NA,NA,NA,NA,NA,NA,NA,NA,NA,NA,NA
8404d,task,flow.Sequence,3_0_1_0_7,NA,NA,completion,11733.65,285145.5,285140.808,285157.474,296891.124,296899,2023-06-01T12:12:38Z,296907.79,NULL,Kontrolle,kudhibiti,s,mbinguni,kufunga,utegemezi,NA,sdfdsf,NA,1,NA,NA,NA,NA,NA,NA,NA,NA,NA,NA,NA,NA,NA,NA,NA,NA,NA,NA,NA
8404d,block,flow.Loop,3_0_1_0,NA,NA,completion,87317.212,209576.4,209540.58,209573.912,296891.124,296899.1,2023-06-01T12:12:38Z,296907.79,NULL,NA,NA,NA,NA,NA,NA,NA,sdfdsf,NA,1,NA,NA,NA,NA,NA,NA,NA,NA,NA,NA,NA,NA,NA,NA,NA,NA,NA,NA,NA
8404d,weiter,canvas.Screen,3_0_1_1,sdf,keypress(Space),response,929.21000000002,296899.1,296891.124,296907.79,297837,297840.2,2023-06-01T12:12:39Z,297858.368,NULL,NA,NA,NA,NA,NA,NA,NA,sdfdsf,NA,1,NA,NA,NA,NA,NA,NA,NA,NA,NA,NA,NA,NA,NA,NA,NA,NA,NA,NA,NA
8404d,check continue,flow.Sequence,3_0_1,NA,NA,completion,88263.088,209576.4,209540.58,209573.912,297837,297840.6,2023-06-01T12:12:39Z,297858.368,NULL,NA,NA,NA,NA,NA,NA,NA,sdfdsf,NA,1,NA,NA,NA,NA,NA,NA,NA,NA,NA,NA,NA,NA,NA,NA,NA,NA,NA,NA,NA
8404d,deep,flow.Sequence,3_0_2_0_0_0,NA,NA,skipped,NA,297866.5,NA,NA,297837,297866.7,2023-06-01T12:12:39Z,297858.368,NULL,Verstand,ufahamivu,s,shakawa,hadhari,mhandisi,NA,sdf,NA,2,NA,NA,NA,NA,NA,NA,NA,NA,NA,NA,NA,NA,NA,NA,NA,NA,NA,NA,NA
8404d,Shallow Question,html.Page,3_0_2_0_0_1_0,NA,NA,form submission,6270.9320000007,297866.7,297825.036,297858.368,304129.3,304129.8,2023-06-01T12:12:45Z,304141.45,NULL,Verstand,ufahamivu,s,shakawa,hadhari,mhandisi,ufahamivu,NA,NA,2,NA,NA,NA,NA,NA,NA,NA,NA,NA,NA,NA,NA,NA,NA,NA,NA,NA,NA,NA
8404d,"""Richtig""-Screen",canvas.Screen,3_0_2_0_0_1_1,NA,NA,timeout,4999.8,304133.5,304124.784,304141.45,309124.584,309129.6,2023-06-01T12:12:50Z,309141.25,NULL,Verstand,ufahamivu,s,shakawa,hadhari,mhandisi,NA,sdf,1,2,NA,NA,NA,NA,NA,NA,NA,NA,NA,NA,NA,NA,NA,NA,NA,NA,NA,NA,NA
8404d,"""Falsch""-Screen",canvas.Screen,3_0_2_0_0_1_2,NA,NA,skipped,NA,309132.7,NA,NA,309124.584,309132.9,2023-06-01T12:12:50Z,309141.25,NULL,Verstand,ufahamivu,s,shakawa,hadhari,mhandisi,NA,sdf,NA,2,NA,NA,NA,NA,NA,NA,NA,NA,NA,NA,NA,NA,NA,NA,NA,NA,NA,NA,NA
8404d,shallow,flow.Sequence,3_0_2_0_0_1,NA,NA,completion,11266.216,297866.7,297825.036,297858.368,309124.584,309133,2023-06-01T12:12:50Z,309141.25,NULL,Verstand,ufahamivu,s,shakawa,hadhari,mhandisi,NA,sdf,NA,2,NA,NA,NA,NA,NA,NA,NA,NA,NA,NA,NA,NA,NA,NA,NA,NA,NA,NA,NA
8404d,task,flow.Sequence,3_0_2_0_0,NA,NA,completion,11266.216,297866.5,297825.036,297858.368,309124.584,309133.1,2023-06-01T12:12:50Z,309141.25,NULL,Verstand,ufahamivu,s,shakawa,hadhari,mhandisi,NA,sdf,NA,2,NA,NA,NA,NA,NA,NA,NA,NA,NA,NA,NA,NA,NA,NA,NA,NA,NA,NA,NA
8404d,deep,flow.Sequence,3_0_2_0_1_0,NA,NA,skipped,NA,309133.2,NA,NA,309124.584,309133.3,2023-06-01T12:12:50Z,309141.25,NULL,Gefährdung,kuhatarisha,s,uchokozi,udhaifu,makorowezo,NA,sdf,NA,2,NA,NA,NA,NA,NA,NA,NA,NA,NA,NA,NA,NA,NA,NA,NA,NA,NA,NA,NA
8404d,Shallow Question,html.Page,3_0_2_0_1_1_0,NA,NA,form submission,6721.25,309133.4,309124.584,309141.25,315862.5,315862.9,2023-06-01T12:12:57Z,315874.818,NULL,Gefährdung,kuhatarisha,s,uchokozi,udhaifu,makorowezo,kuhatarisha,NA,NA,2,NA,NA,NA,NA,NA,NA,NA,NA,NA,NA,NA,NA,NA,NA,NA,NA,NA,NA,NA
8404d,"""Richtig""-Screen",canvas.Screen,3_0_2_0_1_1_1,NA,NA,timeout,4999.8,315865.4,315858.152,315874.818,320857.952,320862.7,2023-06-01T12:13:02Z,320874.618,NULL,Gefährdung,kuhatarisha,s,uchokozi,udhaifu,makorowezo,NA,sdf,1,2,NA,NA,NA,NA,NA,NA,NA,NA,NA,NA,NA,NA,NA,NA,NA,NA,NA,NA,NA
8404d,"""Falsch""-Screen",canvas.Screen,3_0_2_0_1_1_2,NA,NA,skipped,NA,320865.8,NA,NA,320857.952,320865.9,2023-06-01T12:13:02Z,320874.618,NULL,Gefährdung,kuhatarisha,s,uchokozi,udhaifu,makorowezo,NA,sdf,NA,2,NA,NA,NA,NA,NA,NA,NA,NA,NA,NA,NA,NA,NA,NA,NA,NA,NA,NA,NA
8404d,shallow,flow.Sequence,3_0_2_0_1_1,NA,NA,completion,11716.702,309133.4,309124.584,309141.25,320857.952,320866.1,2023-06-01T12:13:02Z,320874.618,NULL,Gefährdung,kuhatarisha,s,uchokozi,udhaifu,makorowezo,NA,sdf,NA,2,NA,NA,NA,NA,NA,NA,NA,NA,NA,NA,NA,NA,NA,NA,NA,NA,NA,NA,NA
8404d,task,flow.Sequence,3_0_2_0_1,NA,NA,completion,11716.702,309133.2,309124.584,309141.25,320857.952,320866.3,2023-06-01T12:13:02Z,320874.618,NULL,Gefährdung,kuhatarisha,s,uchokozi,udhaifu,makorowezo,NA,sdf,NA,2,NA,NA,NA,NA,NA,NA,NA,NA,NA,NA,NA,NA,NA,NA,NA,NA,NA,NA,NA
8404d,Deep Question,html.Page,3_0_2_0_2_0_0,NA,NA,form submission,6417.9820000015,320866.4,320857.952,320874.618,327292.6,327293.3,2023-06-01T12:13:09Z,327308.27,NULL,Kreativität,ubunifu,d,NA,NA,NA,makanda,NA,NA,2,NA,NA,NA,NA,NA,NA,NA,NA,NA,NA,NA,NA,NA,NA,NA,NA,NA,NA,NA
8404d,"""Richtig""-Screen",canvas.Screen,3_0_2_0_2_0_1,NA,NA,skipped,NA,327296.4,NA,NA,327292.6,327296.5,2023-06-01T12:13:09Z,327308.27,NULL,Kreativität,ubunifu,d,NA,NA,NA,NA,sdf,NA,2,NA,NA,NA,NA,NA,NA,NA,NA,NA,NA,NA,NA,NA,NA,NA,NA,NA,NA,NA
8404d,"""Falsch""-Screen",canvas.Screen,3_0_2_0_2_0_2,NA,NA,timeout,4999.8,327297.1,327291.604,327308.27,332291.404,332296.4,2023-06-01T12:13:14Z,332308.07,NULL,Kreativität,ubunifu,d,NA,NA,NA,NA,sdf,0,2,NA,NA,NA,NA,NA,NA,NA,NA,NA,NA,NA,NA,NA,NA,NA,NA,NA,NA,NA
8404d,deep,flow.Sequence,3_0_2_0_2_0,NA,NA,completion,11416.786,320866.4,320857.952,320874.618,332291.404,332296.9,2023-06-01T12:13:14Z,332308.07,NULL,Kreativität,ubunifu,d,NA,NA,NA,NA,sdf,NA,2,NA,NA,NA,NA,NA,NA,NA,NA,NA,NA,NA,NA,NA,NA,NA,NA,NA,NA,NA
8404d,shallow,flow.Sequence,3_0_2_0_2_1,NA,NA,skipped,NA,332297,NA,NA,332291.404,332297.1,2023-06-01T12:13:14Z,332308.07,NULL,Kreativität,ubunifu,d,NA,NA,NA,NA,sdf,NA,2,NA,NA,NA,NA,NA,NA,NA,NA,NA,NA,NA,NA,NA,NA,NA,NA,NA,NA,NA
8404d,task,flow.Sequence,3_0_2_0_2,NA,NA,completion,11416.786,320866.3,320857.952,320874.618,332291.404,332297.3,2023-06-01T12:13:14Z,332308.07,NULL,Kreativität,ubunifu,d,NA,NA,NA,NA,sdf,NA,2,NA,NA,NA,NA,NA,NA,NA,NA,NA,NA,NA,NA,NA,NA,NA,NA,NA,NA,NA
8404d,Deep Question,html.Page,3_0_2_0_3_0_0,NA,NA,form submission,5189.1299999992,332297.6,332291.404,332308.07,337497.2,337497.8,2023-06-01T12:13:19Z,337508.427,NULL,Ausschluss,kutengwa,d,NA,NA,NA,ubunifu,NA,NA,2,NA,NA,NA,NA,NA,NA,NA,NA,NA,NA,NA,NA,NA,NA,NA,NA,NA,NA,NA
8404d,"""Richtig""-Screen",canvas.Screen,3_0_2_0_3_0_1,NA,NA,skipped,NA,337501.2,NA,NA,337497.2,337501.4,2023-06-01T12:13:19Z,337508.427,NULL,Ausschluss,kutengwa,d,NA,NA,NA,NA,sdf,NA,2,NA,NA,NA,NA,NA,NA,NA,NA,NA,NA,NA,NA,NA,NA,NA,NA,NA,NA,NA
8404d,"""Falsch""-Screen",canvas.Screen,3_0_2_0_3_0_2,NA,NA,timeout,4999.8,337502.5,337491.761,337508.427,342491.561,342496.1,2023-06-01T12:13:24Z,342508.227,NULL,Ausschluss,kutengwa,d,NA,NA,NA,NA,sdf,0,2,NA,NA,NA,NA,NA,NA,NA,NA,NA,NA,NA,NA,NA,NA,NA,NA,NA,NA,NA
8404d,deep,flow.Sequence,3_0_2_0_3_0,NA,NA,completion,10183.491,332297.5,332291.404,332308.07,342491.561,342496.6,2023-06-01T12:13:24Z,342508.227,NULL,Ausschluss,kutengwa,d,NA,NA,NA,NA,sdf,NA,2,NA,NA,NA,NA,NA,NA,NA,NA,NA,NA,NA,NA,NA,NA,NA,NA,NA,NA,NA
8404d,shallow,flow.Sequence,3_0_2_0_3_1,NA,NA,skipped,NA,342496.8,NA,NA,342491.561,342496.9,2023-06-01T12:13:24Z,342508.227,NULL,Ausschluss,kutengwa,d,NA,NA,NA,NA,sdf,NA,2,NA,NA,NA,NA,NA,NA,NA,NA,NA,NA,NA,NA,NA,NA,NA,NA,NA,NA,NA
8404d,task,flow.Sequence,3_0_2_0_3,NA,NA,completion,10183.491,332297.5,332291.404,332308.07,342491.561,342497.1,2023-06-01T12:13:24Z,342508.227,NULL,Ausschluss,kutengwa,d,NA,NA,NA,NA,sdf,NA,2,NA,NA,NA,NA,NA,NA,NA,NA,NA,NA,NA,NA,NA,NA,NA,NA,NA,NA,NA
8404d,Deep Question,html.Page,3_0_2_0_4_0_0,NA,NA,form submission,7231.4729999992,342497.2,342491.561,342508.227,349739.7,349740.2,2023-06-01T12:13:31Z,349741.787,NULL,Gelegenheit,wakati,d,NA,NA,NA,kutengwan,NA,NA,2,NA,NA,NA,NA,NA,NA,NA,NA,NA,NA,NA,NA,NA,NA,NA,NA,NA,NA,NA
8404d,"""Richtig""-Screen",canvas.Screen,3_0_2_0_4_0_1,NA,NA,skipped,NA,349742.7,NA,NA,349739.7,349742.8,2023-06-01T12:13:31Z,349741.787,NULL,Gelegenheit,wakati,d,NA,NA,NA,NA,sdf,NA,2,NA,NA,NA,NA,NA,NA,NA,NA,NA,NA,NA,NA,NA,NA,NA,NA,NA,NA,NA
8404d,"""Falsch""-Screen",canvas.Screen,3_0_2_0_4_0_2,NA,NA,timeout,4999.8,349743.5,349725.121,349741.787,354724.921,354729.8,2023-06-01T12:13:36Z,354741.587,NULL,Gelegenheit,wakati,d,NA,NA,NA,NA,sdf,0,2,NA,NA,NA,NA,NA,NA,NA,NA,NA,NA,NA,NA,NA,NA,NA,NA,NA,NA,NA
8404d,deep,flow.Sequence,3_0_2_0_4_0,NA,NA,completion,12216.694,342497.2,342491.561,342508.227,354724.921,354730.2,2023-06-01T12:13:36Z,354741.587,NULL,Gelegenheit,wakati,d,NA,NA,NA,NA,sdf,NA,2,NA,NA,NA,NA,NA,NA,NA,NA,NA,NA,NA,NA,NA,NA,NA,NA,NA,NA,NA
8404d,shallow,flow.Sequence,3_0_2_0_4_1,NA,NA,skipped,NA,354730.4,NA,NA,354724.921,354730.5,2023-06-01T12:13:36Z,354741.587,NULL,Gelegenheit,wakati,d,NA,NA,NA,NA,sdf,NA,2,NA,NA,NA,NA,NA,NA,NA,NA,NA,NA,NA,NA,NA,NA,NA,NA,NA,NA,NA
8404d,task,flow.Sequence,3_0_2_0_4,NA,NA,completion,12216.694,342497.1,342491.561,342508.227,354724.921,354730.6,2023-06-01T12:13:36Z,354741.587,NULL,Gelegenheit,wakati,d,NA,NA,NA,NA,sdf,NA,2,NA,NA,NA,NA,NA,NA,NA,NA,NA,NA,NA,NA,NA,NA,NA,NA,NA,NA,NA
8404d,Deep Question,html.Page,3_0_2_0_5_0_0,NA,NA,form submission,3943.8130000022,354730.8,354724.921,354741.587,358685.4,358685.9,2023-06-01T12:13:40Z,358692.046,NULL,Können,unaweza,d,NA,NA,NA,ubunifu,NA,NA,2,NA,NA,NA,NA,NA,NA,NA,NA,NA,NA,NA,NA,NA,NA,NA,NA,NA,NA,NA
8404d,"""Richtig""-Screen",canvas.Screen,3_0_2_0_5_0_1,NA,NA,skipped,NA,358688.8,NA,NA,358685.4,358688.9,2023-06-01T12:13:40Z,358692.046,NULL,Können,unaweza,d,NA,NA,NA,NA,sdf,NA,2,NA,NA,NA,NA,NA,NA,NA,NA,NA,NA,NA,NA,NA,NA,NA,NA,NA,NA,NA
8404d,"""Falsch""-Screen",canvas.Screen,3_0_2_0_5_0_2,NA,NA,timeout,4999.8,358689.5,358675.38,358692.046,363675.18,363679.8,2023-06-01T12:13:45Z,363691.846,NULL,Können,unaweza,d,NA,NA,NA,NA,sdf,0,2,NA,NA,NA,NA,NA,NA,NA,NA,NA,NA,NA,NA,NA,NA,NA,NA,NA,NA,NA
8404d,deep,flow.Sequence,3_0_2_0_5_0,NA,NA,completion,8933.593,354730.8,354724.921,354741.587,363675.18,363680.1,2023-06-01T12:13:45Z,363691.846,NULL,Können,unaweza,d,NA,NA,NA,NA,sdf,NA,2,NA,NA,NA,NA,NA,NA,NA,NA,NA,NA,NA,NA,NA,NA,NA,NA,NA,NA,NA
8404d,shallow,flow.Sequence,3_0_2_0_5_1,NA,NA,skipped,NA,363680.1,NA,NA,363675.18,363680.3,2023-06-01T12:13:45Z,363691.846,NULL,Können,unaweza,d,NA,NA,NA,NA,sdf,NA,2,NA,NA,NA,NA,NA,NA,NA,NA,NA,NA,NA,NA,NA,NA,NA,NA,NA,NA,NA
8404d,task,flow.Sequence,3_0_2_0_5,NA,NA,completion,8933.593,354730.7,354724.921,354741.587,363675.18,363680.4,2023-06-01T12:13:45Z,363691.846,NULL,Können,unaweza,d,NA,NA,NA,NA,sdf,NA,2,NA,NA,NA,NA,NA,NA,NA,NA,NA,NA,NA,NA,NA,NA,NA,NA,NA,NA,NA
8404d,deep,flow.Sequence,3_0_2_0_6_0,NA,NA,skipped,NA,363680.5,NA,NA,363675.18,363680.5,2023-06-01T12:13:45Z,363691.846,NULL,Widerstand,usulubu,s,kusababisha,mwalimu,mwenendo,NA,sdf,NA,2,NA,NA,NA,NA,NA,NA,NA,NA,NA,NA,NA,NA,NA,NA,NA,NA,NA,NA,NA
8404d,Shallow Question,html.Page,3_0_2_0_6_1_0,NA,NA,form submission,5139.2540000015,363680.7,363675.18,363691.846,368831.1,368831.6,2023-06-01T12:13:50Z,368842.192,NULL,Widerstand,usulubu,s,kusababisha,mwalimu,mwenendo,kusababisha,NA,NA,2,NA,NA,NA,NA,NA,NA,NA,NA,NA,NA,NA,NA,NA,NA,NA,NA,NA,NA,NA
8404d,"""Richtig""-Screen",canvas.Screen,3_0_2_0_6_1_1,NA,NA,skipped,NA,368834.4,NA,NA,368831.1,368834.6,2023-06-01T12:13:50Z,368842.192,NULL,Widerstand,usulubu,s,kusababisha,mwalimu,mwenendo,NA,sdf,NA,2,NA,NA,NA,NA,NA,NA,NA,NA,NA,NA,NA,NA,NA,NA,NA,NA,NA,NA,NA
8404d,"""Falsch""-Screen",canvas.Screen,3_0_2_0_6_1_2,NA,NA,timeout,4999.8,368835.2,368825.526,368842.192,373825.326,373829.3,2023-06-01T12:13:55Z,373841.992,NULL,Widerstand,usulubu,s,kusababisha,mwalimu,mwenendo,NA,sdf,0,2,NA,NA,NA,NA,NA,NA,NA,NA,NA,NA,NA,NA,NA,NA,NA,NA,NA,NA,NA
8404d,shallow,flow.Sequence,3_0_2_0_6_1,NA,NA,completion,10133.48,363680.6,363675.18,363691.846,373825.326,373829.8,2023-06-01T12:13:55Z,373841.992,NULL,Widerstand,usulubu,s,kusababisha,mwalimu,mwenendo,NA,sdf,NA,2,NA,NA,NA,NA,NA,NA,NA,NA,NA,NA,NA,NA,NA,NA,NA,NA,NA,NA,NA
8404d,task,flow.Sequence,3_0_2_0_6,NA,NA,completion,10133.48,363680.4,363675.18,363691.846,373825.326,373830,2023-06-01T12:13:55Z,373841.992,NULL,Widerstand,usulubu,s,kusababisha,mwalimu,mwenendo,NA,sdf,NA,2,NA,NA,NA,NA,NA,NA,NA,NA,NA,NA,NA,NA,NA,NA,NA,NA,NA,NA,NA
8404d,deep,flow.Sequence,3_0_2_0_7_0,NA,NA,skipped,NA,373830.1,NA,NA,373825.326,373830.3,2023-06-01T12:13:55Z,373841.992,NULL,Kontrolle,kudhibiti,s,mbinguni,kufunga,utegemezi,NA,sdf,NA,2,NA,NA,NA,NA,NA,NA,NA,NA,NA,NA,NA,NA,NA,NA,NA,NA,NA,NA,NA
8404d,Shallow Question,html.Page,3_0_2_0_7_1_0,NA,NA,form submission,4971.2079999992,373830.5,373825.326,373841.992,378813.2,378813.8,2023-06-01T12:14:00Z,378825.676,NULL,Kontrolle,kudhibiti,s,mbinguni,kufunga,utegemezi,kudhibiti,NA,NA,2,NA,NA,NA,NA,NA,NA,NA,NA,NA,NA,NA,NA,NA,NA,NA,NA,NA,NA,NA
8404d,"""Richtig""-Screen",canvas.Screen,3_0_2_0_7_1_1,NA,NA,timeout,4999.8,378816.6,378809.01,378825.676,383808.81,383813.7,2023-06-01T12:14:05Z,383825.476,NULL,Kontrolle,kudhibiti,s,mbinguni,kufunga,utegemezi,NA,sdf,1,2,NA,NA,NA,NA,NA,NA,NA,NA,NA,NA,NA,NA,NA,NA,NA,NA,NA,NA,NA
8404d,"""Falsch""-Screen",canvas.Screen,3_0_2_0_7_1_2,NA,NA,skipped,NA,383818.1,NA,NA,383808.81,383818.2,2023-06-01T12:14:05Z,383825.476,NULL,Kontrolle,kudhibiti,s,mbinguni,kufunga,utegemezi,NA,sdf,NA,2,NA,NA,NA,NA,NA,NA,NA,NA,NA,NA,NA,NA,NA,NA,NA,NA,NA,NA,NA
8404d,shallow,flow.Sequence,3_0_2_0_7_1,NA,NA,completion,9966.818,373830.4,373825.326,373841.992,383808.81,383818.4,2023-06-01T12:14:05Z,383825.476,NULL,Kontrolle,kudhibiti,s,mbinguni,kufunga,utegemezi,NA,sdf,NA,2,NA,NA,NA,NA,NA,NA,NA,NA,NA,NA,NA,NA,NA,NA,NA,NA,NA,NA,NA
8404d,task,flow.Sequence,3_0_2_0_7,NA,NA,completion,9966.818,373830.1,373825.326,373841.992,383808.81,383818.6,2023-06-01T12:14:05Z,383825.476,NULL,Kontrolle,kudhibiti,s,mbinguni,kufunga,utegemezi,NA,sdf,NA,2,NA,NA,NA,NA,NA,NA,NA,NA,NA,NA,NA,NA,NA,NA,NA,NA,NA,NA,NA
8404d,block,flow.Loop,3_0_2_0,NA,NA,completion,85950.442,297866.5,297825.036,297858.368,383808.81,383818.8,2023-06-01T12:14:05Z,383825.476,NULL,NA,NA,NA,NA,NA,NA,NA,sdf,NA,2,NA,NA,NA,NA,NA,NA,NA,NA,NA,NA,NA,NA,NA,NA,NA,NA,NA,NA,NA
8404d,weiter,canvas.Screen,3_0_2_1,sdf,keypress(Space),response,1002.1240000015,383818.9,383808.81,383825.476,384827.6,384831.3,2023-06-01T12:14:06Z,384842.102,NULL,NA,NA,NA,NA,NA,NA,NA,sdf,NA,2,NA,NA,NA,NA,NA,NA,NA,NA,NA,NA,NA,NA,NA,NA,NA,NA,NA,NA,NA
8404d,check continue,flow.Sequence,3_0_2,NA,NA,completion,86969.232000001,297866.5,297825.036,297858.368,384827.6,384831.5,2023-06-01T12:14:06Z,384842.102,NULL,NA,NA,NA,NA,NA,NA,NA,sdf,NA,2,NA,NA,NA,NA,NA,NA,NA,NA,NA,NA,NA,NA,NA,NA,NA,NA,NA,NA,NA
8404d,deep,flow.Sequence,3_0_3_0_0_0,NA,NA,skipped,NA,384856.9,NA,NA,384827.6,384857,2023-06-01T12:14:06Z,384842.102,NULL,Kontrolle,kudhibiti,s,mbinguni,kufunga,utegemezi,NA,qt,NA,3,NA,NA,NA,NA,NA,NA,NA,NA,NA,NA,NA,NA,NA,NA,NA,NA,NA,NA,NA
8404d,Shallow Question,html.Page,3_0_3_0_0_1_0,NA,NA,form submission,5171.398,384857.1,384825.436,384842.102,390013.5,390013.9,2023-06-01T12:14:11Z,390025.813,NULL,Kontrolle,kudhibiti,s,mbinguni,kufunga,utegemezi,kudhibiti,NA,NA,3,NA,NA,NA,NA,NA,NA,NA,NA,NA,NA,NA,NA,NA,NA,NA,NA,NA,NA,NA
8404d,"""Richtig""-Screen",canvas.Screen,3_0_3_0_0_1_1,NA,NA,timeout,4999.8,390017.5,390009.147,390025.813,395008.947,395013.9,2023-06-01T12:14:16Z,395025.613,NULL,Kontrolle,kudhibiti,s,mbinguni,kufunga,utegemezi,NA,qt,1,3,NA,NA,NA,NA,NA,NA,NA,NA,NA,NA,NA,NA,NA,NA,NA,NA,NA,NA,NA
8404d,"""Falsch""-Screen",canvas.Screen,3_0_3_0_0_1_2,NA,NA,skipped,NA,395017.3,NA,NA,395008.947,395017.5,2023-06-01T12:14:16Z,395025.613,NULL,Kontrolle,kudhibiti,s,mbinguni,kufunga,utegemezi,NA,qt,NA,3,NA,NA,NA,NA,NA,NA,NA,NA,NA,NA,NA,NA,NA,NA,NA,NA,NA,NA,NA
8404d,shallow,flow.Sequence,3_0_3_0_0_1,NA,NA,completion,10166.845,384857.1,384825.436,384842.102,395008.947,395017.6,2023-06-01T12:14:16Z,395025.613,NULL,Kontrolle,kudhibiti,s,mbinguni,kufunga,utegemezi,NA,qt,NA,3,NA,NA,NA,NA,NA,NA,NA,NA,NA,NA,NA,NA,NA,NA,NA,NA,NA,NA,NA
8404d,task,flow.Sequence,3_0_3_0_0,NA,NA,completion,10166.845,384856.9,384825.436,384842.102,395008.947,395017.7,2023-06-01T12:14:16Z,395025.613,NULL,Kontrolle,kudhibiti,s,mbinguni,kufunga,utegemezi,NA,qt,NA,3,NA,NA,NA,NA,NA,NA,NA,NA,NA,NA,NA,NA,NA,NA,NA,NA,NA,NA,NA
8404d,Deep Question,html.Page,3_0_3_0_1_0_0,NA,NA,form submission,12837.387,395017.8,395008.947,395025.613,407863,407863.5,2023-06-01T12:14:29Z,407876.116,NULL,Ausschluss,kutengwa,d,NA,NA,NA,kutanigwa,NA,NA,3,NA,NA,NA,NA,NA,NA,NA,NA,NA,NA,NA,NA,NA,NA,NA,NA,NA,NA,NA
8404d,"""Richtig""-Screen",canvas.Screen,3_0_3_0_1_0_1,NA,NA,skipped,NA,407867,NA,NA,407863,407867.2,2023-06-01T12:14:29Z,407876.116,NULL,Ausschluss,kutengwa,d,NA,NA,NA,NA,qt,NA,3,NA,NA,NA,NA,NA,NA,NA,NA,NA,NA,NA,NA,NA,NA,NA,NA,NA,NA,NA
8404d,"""Falsch""-Screen",canvas.Screen,3_0_3_0_1_0_2,NA,NA,timeout,4999.8,407868,407859.45,407876.116,412859.25,412870.3,2023-06-01T12:14:34Z,412875.916,NULL,Ausschluss,kutengwa,d,NA,NA,NA,NA,qt,0,3,NA,NA,NA,NA,NA,NA,NA,NA,NA,NA,NA,NA,NA,NA,NA,NA,NA,NA,NA
8404d,deep,flow.Sequence,3_0_3_0_1_0,NA,NA,completion,17833.637,395017.7,395008.947,395025.613,412859.25,412870.6,2023-06-01T12:14:34Z,412875.916,NULL,Ausschluss,kutengwa,d,NA,NA,NA,NA,qt,NA,3,NA,NA,NA,NA,NA,NA,NA,NA,NA,NA,NA,NA,NA,NA,NA,NA,NA,NA,NA
8404d,shallow,flow.Sequence,3_0_3_0_1_1,NA,NA,skipped,NA,412870.6,NA,NA,412859.25,412870.7,2023-06-01T12:14:34Z,412875.916,NULL,Ausschluss,kutengwa,d,NA,NA,NA,NA,qt,NA,3,NA,NA,NA,NA,NA,NA,NA,NA,NA,NA,NA,NA,NA,NA,NA,NA,NA,NA,NA
8404d,task,flow.Sequence,3_0_3_0_1,NA,NA,completion,17833.637,395017.7,395008.947,395025.613,412859.25,412870.7,2023-06-01T12:14:34Z,412875.916,NULL,Ausschluss,kutengwa,d,NA,NA,NA,NA,qt,NA,3,NA,NA,NA,NA,NA,NA,NA,NA,NA,NA,NA,NA,NA,NA,NA,NA,NA,NA,NA
8404d,deep,flow.Sequence,3_0_3_0_2_0,NA,NA,skipped,NA,412870.8,NA,NA,412859.25,412870.9,2023-06-01T12:14:34Z,412875.916,NULL,Gefährdung,kuhatarisha,s,uchokozi,udhaifu,makorowezo,NA,qt,NA,3,NA,NA,NA,NA,NA,NA,NA,NA,NA,NA,NA,NA,NA,NA,NA,NA,NA,NA,NA
8404d,Shallow Question,html.Page,3_0_3_0_2_1_0,NA,NA,form submission,7337.584,412870.9,412859.25,412875.916,420213.5,420214,2023-06-01T12:14:42Z,420226.067,NULL,Gefährdung,kuhatarisha,s,uchokozi,udhaifu,makorowezo,kuhatarisha,NA,NA,3,NA,NA,NA,NA,NA,NA,NA,NA,NA,NA,NA,NA,NA,NA,NA,NA,NA,NA,NA
8404d,"""Richtig""-Screen",canvas.Screen,3_0_3_0_2_1_1,NA,NA,timeout,4999.8,420217,420209.401,420226.067,425209.201,425214.3,2023-06-01T12:14:47Z,425225.867,NULL,Gefährdung,kuhatarisha,s,uchokozi,udhaifu,makorowezo,NA,qt,1,3,NA,NA,NA,NA,NA,NA,NA,NA,NA,NA,NA,NA,NA,NA,NA,NA,NA,NA,NA
8404d,"""Falsch""-Screen",canvas.Screen,3_0_3_0_2_1_2,NA,NA,skipped,NA,425218,NA,NA,425209.201,425218.1,2023-06-01T12:14:47Z,425225.867,NULL,Gefährdung,kuhatarisha,s,uchokozi,udhaifu,makorowezo,NA,qt,NA,3,NA,NA,NA,NA,NA,NA,NA,NA,NA,NA,NA,NA,NA,NA,NA,NA,NA,NA,NA
8404d,shallow,flow.Sequence,3_0_3_0_2_1,NA,NA,completion,12333.285,412870.9,412859.25,412875.916,425209.201,425218.3,2023-06-01T12:14:47Z,425225.867,NULL,Gefährdung,kuhatarisha,s,uchokozi,udhaifu,makorowezo,NA,qt,NA,3,NA,NA,NA,NA,NA,NA,NA,NA,NA,NA,NA,NA,NA,NA,NA,NA,NA,NA,NA
8404d,task,flow.Sequence,3_0_3_0_2,NA,NA,completion,12333.285,412870.7,412859.25,412875.916,425209.201,425218.4,2023-06-01T12:14:47Z,425225.867,NULL,Gefährdung,kuhatarisha,s,uchokozi,udhaifu,makorowezo,NA,qt,NA,3,NA,NA,NA,NA,NA,NA,NA,NA,NA,NA,NA,NA,NA,NA,NA,NA,NA,NA,NA
8404d,Deep Question,html.Page,3_0_3_0_3_0_0,NA,NA,form submission,9089.5330000022,425218.6,425209.201,425225.867,434315.4,434315.9,2023-06-01T12:14:56Z,434326.08,NULL,Gelegenheit,wakati,d,NA,NA,NA,kuhutengwa,NA,NA,3,NA,NA,NA,NA,NA,NA,NA,NA,NA,NA,NA,NA,NA,NA,NA,NA,NA,NA,NA
8404d,"""Richtig""-Screen",canvas.Screen,3_0_3_0_3_0_1,NA,NA,skipped,NA,434318.6,NA,NA,434315.4,434318.7,2023-06-01T12:14:56Z,434326.08,NULL,Gelegenheit,wakati,d,NA,NA,NA,NA,qt,NA,3,NA,NA,NA,NA,NA,NA,NA,NA,NA,NA,NA,NA,NA,NA,NA,NA,NA,NA,NA
8404d,"""Falsch""-Screen",canvas.Screen,3_0_3_0_3_0_2,NA,NA,timeout,4999.8,434319.3,434309.414,434326.08,439309.214,439313.6,2023-06-01T12:15:01Z,439325.88,NULL,Gelegenheit,wakati,d,NA,NA,NA,NA,qt,0,3,NA,NA,NA,NA,NA,NA,NA,NA,NA,NA,NA,NA,NA,NA,NA,NA,NA,NA,NA
8404d,deep,flow.Sequence,3_0_3_0_3_0,NA,NA,completion,14083.347,425218.5,425209.201,425225.867,439309.214,439314,2023-06-01T12:15:01Z,439325.88,NULL,Gelegenheit,wakati,d,NA,NA,NA,NA,qt,NA,3,NA,NA,NA,NA,NA,NA,NA,NA,NA,NA,NA,NA,NA,NA,NA,NA,NA,NA,NA
8404d,shallow,flow.Sequence,3_0_3_0_3_1,NA,NA,skipped,NA,439314.1,NA,NA,439309.214,439314.3,2023-06-01T12:15:01Z,439325.88,NULL,Gelegenheit,wakati,d,NA,NA,NA,NA,qt,NA,3,NA,NA,NA,NA,NA,NA,NA,NA,NA,NA,NA,NA,NA,NA,NA,NA,NA,NA,NA
8404d,task,flow.Sequence,3_0_3_0_3,NA,NA,completion,14083.347,425218.5,425209.201,425225.867,439309.214,439314.4,2023-06-01T12:15:01Z,439325.88,NULL,Gelegenheit,wakati,d,NA,NA,NA,NA,qt,NA,3,NA,NA,NA,NA,NA,NA,NA,NA,NA,NA,NA,NA,NA,NA,NA,NA,NA,NA,NA
8404d,deep,flow.Sequence,3_0_3_0_4_0,NA,NA,skipped,NA,439314.5,NA,NA,439309.214,439314.6,2023-06-01T12:15:01Z,439325.88,NULL,Widerstand,usulubu,s,kusababisha,mwalimu,mwenendo,NA,qt,NA,3,NA,NA,NA,NA,NA,NA,NA,NA,NA,NA,NA,NA,NA,NA,NA,NA,NA,NA,NA
8404d,Shallow Question,html.Page,3_0_3_0_4_1_0,NA,NA,form submission,4622.12,439314.8,439309.214,439325.88,443948,443948.5,2023-06-01T12:15:05Z,443959.524,NULL,Widerstand,usulubu,s,kusababisha,mwalimu,mwenendo,usulubu,NA,NA,3,NA,NA,NA,NA,NA,NA,NA,NA,NA,NA,NA,NA,NA,NA,NA,NA,NA,NA,NA
8404d,"""Richtig""-Screen",canvas.Screen,3_0_3_0_4_1_1,NA,NA,timeout,4999.8,443951.6,443942.858,443959.524,448942.658,448947.9,2023-06-01T12:15:10Z,448959.324,NULL,Widerstand,usulubu,s,kusababisha,mwalimu,mwenendo,NA,qt,1,3,NA,NA,NA,NA,NA,NA,NA,NA,NA,NA,NA,NA,NA,NA,NA,NA,NA,NA,NA
8404d,"""Falsch""-Screen",canvas.Screen,3_0_3_0_4_1_2,NA,NA,skipped,NA,448951.1,NA,NA,448942.658,448951.3,2023-06-01T12:15:10Z,448959.324,NULL,Widerstand,usulubu,s,kusababisha,mwalimu,mwenendo,NA,qt,NA,3,NA,NA,NA,NA,NA,NA,NA,NA,NA,NA,NA,NA,NA,NA,NA,NA,NA,NA,NA
8404d,shallow,flow.Sequence,3_0_3_0_4_1,NA,NA,completion,9616.778,439314.7,439309.214,439325.88,448942.658,448951.5,2023-06-01T12:15:10Z,448959.324,NULL,Widerstand,usulubu,s,kusababisha,mwalimu,mwenendo,NA,qt,NA,3,NA,NA,NA,NA,NA,NA,NA,NA,NA,NA,NA,NA,NA,NA,NA,NA,NA,NA,NA
8404d,task,flow.Sequence,3_0_3_0_4,NA,NA,completion,9616.778,439314.5,439309.214,439325.88,448942.658,448951.6,2023-06-01T12:15:10Z,448959.324,NULL,Widerstand,usulubu,s,kusababisha,mwalimu,mwenendo,NA,qt,NA,3,NA,NA,NA,NA,NA,NA,NA,NA,NA,NA,NA,NA,NA,NA,NA,NA,NA,NA,NA
8404d,Deep Question,html.Page,3_0_3_0_5_0_0,NA,NA,form submission,4647.9760000007,448951.7,448942.658,448959.324,453607.3,453607.9,2023-06-01T12:15:15Z,453609.694,NULL,Können,unaweza,d,NA,NA,NA,kutengwa,NA,NA,3,NA,NA,NA,NA,NA,NA,NA,NA,NA,NA,NA,NA,NA,NA,NA,NA,NA,NA,NA
8404d,"""Richtig""-Screen",canvas.Screen,3_0_3_0_5_0_1,NA,NA,skipped,NA,453611.6,NA,NA,453607.3,453611.9,2023-06-01T12:15:15Z,453609.694,NULL,Können,unaweza,d,NA,NA,NA,NA,qt,NA,3,NA,NA,NA,NA,NA,NA,NA,NA,NA,NA,NA,NA,NA,NA,NA,NA,NA,NA,NA
8404d,"""Falsch""-Screen",canvas.Screen,3_0_3_0_5_0_2,NA,NA,timeout,4999.8,453612.7,453593.028,453609.694,458592.828,458596.8,2023-06-01T12:15:20Z,458609.494,NULL,Können,unaweza,d,NA,NA,NA,NA,qt,0,3,NA,NA,NA,NA,NA,NA,NA,NA,NA,NA,NA,NA,NA,NA,NA,NA,NA,NA,NA
8404d,deep,flow.Sequence,3_0_3_0_5_0,NA,NA,completion,9633.504,448951.7,448942.658,448959.324,458592.828,458597.2,2023-06-01T12:15:20Z,458609.494,NULL,Können,unaweza,d,NA,NA,NA,NA,qt,NA,3,NA,NA,NA,NA,NA,NA,NA,NA,NA,NA,NA,NA,NA,NA,NA,NA,NA,NA,NA
8404d,shallow,flow.Sequence,3_0_3_0_5_1,NA,NA,skipped,NA,458597.4,NA,NA,458592.828,458597.5,2023-06-01T12:15:20Z,458609.494,NULL,Können,unaweza,d,NA,NA,NA,NA,qt,NA,3,NA,NA,NA,NA,NA,NA,NA,NA,NA,NA,NA,NA,NA,NA,NA,NA,NA,NA,NA
8404d,task,flow.Sequence,3_0_3_0_5,NA,NA,completion,9633.504,448951.7,448942.658,448959.324,458592.828,458597.7,2023-06-01T12:15:20Z,458609.494,NULL,Können,unaweza,d,NA,NA,NA,NA,qt,NA,3,NA,NA,NA,NA,NA,NA,NA,NA,NA,NA,NA,NA,NA,NA,NA,NA,NA,NA,NA
8404d,Deep Question,html.Page,3_0_3_0_6_0_0,NA,NA,form submission,4371.1060000015,458597.9,458592.828,458609.494,462980.6,462981.2,2023-06-01T12:15:24Z,462993.156,NULL,Kreativität,ubunifu,d,NA,NA,NA,kutengwa,NA,NA,3,NA,NA,NA,NA,NA,NA,NA,NA,NA,NA,NA,NA,NA,NA,NA,NA,NA,NA,NA
8404d,"""Richtig""-Screen",canvas.Screen,3_0_3_0_6_0_1,NA,NA,skipped,NA,462984.7,NA,NA,462980.6,462984.9,2023-06-01T12:15:24Z,462993.156,NULL,Kreativität,ubunifu,d,NA,NA,NA,NA,qt,NA,3,NA,NA,NA,NA,NA,NA,NA,NA,NA,NA,NA,NA,NA,NA,NA,NA,NA,NA,NA
8404d,"""Falsch""-Screen",canvas.Screen,3_0_3_0_6_0_2,NA,NA,timeout,4999.8,462986,462976.49,462993.156,467976.29,467980.8,2023-06-01T12:15:29Z,467992.956,NULL,Kreativität,ubunifu,d,NA,NA,NA,NA,qt,0,3,NA,NA,NA,NA,NA,NA,NA,NA,NA,NA,NA,NA,NA,NA,NA,NA,NA,NA,NA
8404d,deep,flow.Sequence,3_0_3_0_6_0,NA,NA,completion,9366.796,458597.8,458592.828,458609.494,467976.29,467981.4,2023-06-01T12:15:29Z,467992.956,NULL,Kreativität,ubunifu,d,NA,NA,NA,NA,qt,NA,3,NA,NA,NA,NA,NA,NA,NA,NA,NA,NA,NA,NA,NA,NA,NA,NA,NA,NA,NA
8404d,shallow,flow.Sequence,3_0_3_0_6_1,NA,NA,skipped,NA,467981.4,NA,NA,467976.29,467981.5,2023-06-01T12:15:29Z,467992.956,NULL,Kreativität,ubunifu,d,NA,NA,NA,NA,qt,NA,3,NA,NA,NA,NA,NA,NA,NA,NA,NA,NA,NA,NA,NA,NA,NA,NA,NA,NA,NA
8404d,task,flow.Sequence,3_0_3_0_6,NA,NA,completion,9366.796,458597.7,458592.828,458609.494,467976.29,467981.7,2023-06-01T12:15:29Z,467992.956,NULL,Kreativität,ubunifu,d,NA,NA,NA,NA,qt,NA,3,NA,NA,NA,NA,NA,NA,NA,NA,NA,NA,NA,NA,NA,NA,NA,NA,NA,NA,NA
8404d,deep,flow.Sequence,3_0_3_0_7_0,NA,NA,skipped,NA,467981.9,NA,NA,467976.29,467982,2023-06-01T12:15:29Z,467992.956,NULL,Verstand,ufahamivu,s,shakawa,hadhari,mhandisi,NA,qt,NA,3,NA,NA,NA,NA,NA,NA,NA,NA,NA,NA,NA,NA,NA,NA,NA,NA,NA,NA,NA
8404d,Shallow Question,html.Page,3_0_3_0_7_1_0,NA,NA,form submission,6821.3440000007,467982.1,467976.29,467992.956,474814.3,474814.7,2023-06-01T12:15:36Z,474826.536,NULL,Verstand,ufahamivu,s,shakawa,hadhari,mhandisi,ufahamivu,NA,NA,3,NA,NA,NA,NA,NA,NA,NA,NA,NA,NA,NA,NA,NA,NA,NA,NA,NA,NA,NA
8404d,"""Richtig""-Screen",canvas.Screen,3_0_3_0_7_1_1,NA,NA,timeout,4999.8,474817.8,474809.87,474826.536,479809.67,479812.1,2023-06-01T12:15:41Z,479826.336,NULL,Verstand,ufahamivu,s,shakawa,hadhari,mhandisi,NA,qt,1,3,NA,NA,NA,NA,NA,NA,NA,NA,NA,NA,NA,NA,NA,NA,NA,NA,NA,NA,NA
8404d,"""Falsch""-Screen",canvas.Screen,3_0_3_0_7_1_2,NA,NA,skipped,NA,479814.8,NA,NA,479809.67,479815,2023-06-01T12:15:41Z,479826.336,NULL,Verstand,ufahamivu,s,shakawa,hadhari,mhandisi,NA,qt,NA,3,NA,NA,NA,NA,NA,NA,NA,NA,NA,NA,NA,NA,NA,NA,NA,NA,NA,NA,NA
8404d,shallow,flow.Sequence,3_0_3_0_7_1,NA,NA,completion,11816.714,467982,467976.29,467992.956,479809.67,479815.1,2023-06-01T12:15:41Z,479826.336,NULL,Verstand,ufahamivu,s,shakawa,hadhari,mhandisi,NA,qt,NA,3,NA,NA,NA,NA,NA,NA,NA,NA,NA,NA,NA,NA,NA,NA,NA,NA,NA,NA,NA
8404d,task,flow.Sequence,3_0_3_0_7,NA,NA,completion,11816.714,467981.8,467976.29,467992.956,479809.67,479815.1,2023-06-01T12:15:41Z,479826.336,NULL,Verstand,ufahamivu,s,shakawa,hadhari,mhandisi,NA,qt,NA,3,NA,NA,NA,NA,NA,NA,NA,NA,NA,NA,NA,NA,NA,NA,NA,NA,NA,NA,NA
8404d,block,flow.Loop,3_0_3_0,NA,NA,completion,94967.568,384856.9,384825.436,384842.102,479809.67,479815.2,2023-06-01T12:15:41Z,479826.336,NULL,NA,NA,NA,NA,NA,NA,NA,qt,NA,3,NA,NA,NA,NA,NA,NA,NA,NA,NA,NA,NA,NA,NA,NA,NA,NA,NA,NA,NA
8404d,weiter,canvas.Screen,3_0_3_1,sdf,keypress(Space),response,1144.664,479815.3,479809.67,479826.336,480971,480974.6,2023-06-01T12:15:42Z,480992.956,NULL,NA,NA,NA,NA,NA,NA,NA,qt,NA,3,NA,NA,NA,NA,NA,NA,NA,NA,NA,NA,NA,NA,NA,NA,NA,NA,NA,NA,NA
8404d,check continue,flow.Sequence,3_0_3,NA,NA,completion,96128.898,384856.8,384825.436,384842.102,480971,480974.9,2023-06-01T12:15:42Z,480992.956,NULL,NA,NA,NA,NA,NA,NA,NA,qt,NA,3,NA,NA,NA,NA,NA,NA,NA,NA,NA,NA,NA,NA,NA,NA,NA,NA,NA,NA,NA
8404d,deep,flow.Sequence,3_0_4_0_0_0,NA,NA,skipped,NA,481007.2,NA,NA,480971,481007.3,2023-06-01T12:15:42Z,480992.956,NULL,Gefährdung,kuhatarisha,s,uchokozi,udhaifu,makorowezo,NA,sd,NA,4,NA,NA,NA,NA,NA,NA,NA,NA,NA,NA,NA,NA,NA,NA,NA,NA,NA,NA,NA
8404d,Shallow Question,html.Page,3_0_4_0_0_1_0,NA,NA,form submission,5604.1440000015,481007.4,480959.624,480992.956,486597.1,486597.7,2023-06-01T12:15:48Z,486609.902,NULL,Gefährdung,kuhatarisha,s,uchokozi,udhaifu,makorowezo,kuhatarisha,NA,NA,4,NA,NA,NA,NA,NA,NA,NA,NA,NA,NA,NA,NA,NA,NA,NA,NA,NA,NA,NA
8404d,"""Richtig""-Screen",canvas.Screen,3_0_4_0_0_1_1,NA,NA,timeout,4999.8,486599.9,486593.236,486609.902,491593.036,491597.5,2023-06-01T12:15:53Z,491609.702,NULL,Gefährdung,kuhatarisha,s,uchokozi,udhaifu,makorowezo,NA,sd,1,4,NA,NA,NA,NA,NA,NA,NA,NA,NA,NA,NA,NA,NA,NA,NA,NA,NA,NA,NA
8404d,"""Falsch""-Screen",canvas.Screen,3_0_4_0_0_1_2,NA,NA,skipped,NA,491601.7,NA,NA,491593.036,491601.8,2023-06-01T12:15:53Z,491609.702,NULL,Gefährdung,kuhatarisha,s,uchokozi,udhaifu,makorowezo,NA,sd,NA,4,NA,NA,NA,NA,NA,NA,NA,NA,NA,NA,NA,NA,NA,NA,NA,NA,NA,NA,NA
8404d,shallow,flow.Sequence,3_0_4_0_0_1,NA,NA,completion,10600.08,481007.4,480959.624,480992.956,491593.036,491602,2023-06-01T12:15:53Z,491609.702,NULL,Gefährdung,kuhatarisha,s,uchokozi,udhaifu,makorowezo,NA,sd,NA,4,NA,NA,NA,NA,NA,NA,NA,NA,NA,NA,NA,NA,NA,NA,NA,NA,NA,NA,NA
8404d,task,flow.Sequence,3_0_4_0_0,NA,NA,completion,10600.08,481007.2,480959.624,480992.956,491593.036,491602.1,2023-06-01T12:15:53Z,491609.702,NULL,Gefährdung,kuhatarisha,s,uchokozi,udhaifu,makorowezo,NA,sd,NA,4,NA,NA,NA,NA,NA,NA,NA,NA,NA,NA,NA,NA,NA,NA,NA,NA,NA,NA,NA
8404d,Deep Question,html.Page,3_0_4_0_1_0_0,NA,NA,form submission,6094.9979999993,491602.3,491593.036,491609.702,497704.7,497705.3,2023-06-01T12:15:59Z,497710.067,NULL,Ausschluss,kutengwa,d,NA,NA,NA,kutengwa,NA,NA,4,NA,NA,NA,NA,NA,NA,NA,NA,NA,NA,NA,NA,NA,NA,NA,NA,NA,NA,NA
8404d,"""Richtig""-Screen",canvas.Screen,3_0_4_0_1_0_1,NA,NA,timeout,4999.8,497708.7,497693.401,497710.067,502693.201,502695.6,2023-06-01T12:16:04Z,502709.867,NULL,Ausschluss,kutengwa,d,NA,NA,NA,NA,sd,1,4,NA,NA,NA,NA,NA,NA,NA,NA,NA,NA,NA,NA,NA,NA,NA,NA,NA,NA,NA
8404d,"""Falsch""-Screen",canvas.Screen,3_0_4_0_1_0_2,NA,NA,skipped,NA,502699.4,NA,NA,502693.201,502699.5,2023-06-01T12:16:04Z,502709.867,NULL,Ausschluss,kutengwa,d,NA,NA,NA,NA,sd,NA,4,NA,NA,NA,NA,NA,NA,NA,NA,NA,NA,NA,NA,NA,NA,NA,NA,NA,NA,NA
8404d,deep,flow.Sequence,3_0_4_0_1_0,NA,NA,completion,11083.499,491602.3,491593.036,491609.702,502693.201,502699.7,2023-06-01T12:16:04Z,502709.867,NULL,Ausschluss,kutengwa,d,NA,NA,NA,NA,sd,NA,4,NA,NA,NA,NA,NA,NA,NA,NA,NA,NA,NA,NA,NA,NA,NA,NA,NA,NA,NA
8404d,shallow,flow.Sequence,3_0_4_0_1_1,NA,NA,skipped,NA,502699.8,NA,NA,502693.201,502699.8,2023-06-01T12:16:04Z,502709.867,NULL,Ausschluss,kutengwa,d,NA,NA,NA,NA,sd,NA,4,NA,NA,NA,NA,NA,NA,NA,NA,NA,NA,NA,NA,NA,NA,NA,NA,NA,NA,NA
8404d,task,flow.Sequence,3_0_4_0_1,NA,NA,completion,11083.499,491602.2,491593.036,491609.702,502693.201,502699.9,2023-06-01T12:16:04Z,502709.867,NULL,Ausschluss,kutengwa,d,NA,NA,NA,NA,sd,NA,4,NA,NA,NA,NA,NA,NA,NA,NA,NA,NA,NA,NA,NA,NA,NA,NA,NA,NA,NA
8404d,deep,flow.Sequence,3_0_4_0_2_0,NA,NA,skipped,NA,502700,NA,NA,502693.201,502700.1,2023-06-01T12:16:04Z,502709.867,NULL,Verstand,ufahamivu,s,shakawa,hadhari,mhandisi,NA,sd,NA,4,NA,NA,NA,NA,NA,NA,NA,NA,NA,NA,NA,NA,NA,NA,NA,NA,NA,NA,NA
8404d,Shallow Question,html.Page,3_0_4_0_2_1_0,NA,NA,form submission,6438.3329999992,502700.2,502693.201,502709.867,509148.2,509148.7,2023-06-01T12:16:10Z,509160.086,NULL,Verstand,ufahamivu,s,shakawa,hadhari,mhandisi,ufahamivu,NA,NA,4,NA,NA,NA,NA,NA,NA,NA,NA,NA,NA,NA,NA,NA,NA,NA,NA,NA,NA,NA
8404d,"""Richtig""-Screen",canvas.Screen,3_0_4_0_2_1_1,NA,NA,timeout,4999.8,509151.5,509143.42,509160.086,514143.22,514146.1,2023-06-01T12:16:15Z,514159.886,NULL,Verstand,ufahamivu,s,shakawa,hadhari,mhandisi,NA,sd,1,4,NA,NA,NA,NA,NA,NA,NA,NA,NA,NA,NA,NA,NA,NA,NA,NA,NA,NA,NA
8404d,"""Falsch""-Screen",canvas.Screen,3_0_4_0_2_1_2,NA,NA,skipped,NA,514149.6,NA,NA,514143.22,514149.7,2023-06-01T12:16:15Z,514159.886,NULL,Verstand,ufahamivu,s,shakawa,hadhari,mhandisi,NA,sd,NA,4,NA,NA,NA,NA,NA,NA,NA,NA,NA,NA,NA,NA,NA,NA,NA,NA,NA,NA,NA
8404d,shallow,flow.Sequence,3_0_4_0_2_1,NA,NA,completion,11433.353,502700.1,502693.201,502709.867,514143.22,514149.8,2023-06-01T12:16:15Z,514159.886,NULL,Verstand,ufahamivu,s,shakawa,hadhari,mhandisi,NA,sd,NA,4,NA,NA,NA,NA,NA,NA,NA,NA,NA,NA,NA,NA,NA,NA,NA,NA,NA,NA,NA
8404d,task,flow.Sequence,3_0_4_0_2,NA,NA,completion,11433.353,502700,502693.201,502709.867,514143.22,514149.9,2023-06-01T12:16:15Z,514159.886,NULL,Verstand,ufahamivu,s,shakawa,hadhari,mhandisi,NA,sd,NA,4,NA,NA,NA,NA,NA,NA,NA,NA,NA,NA,NA,NA,NA,NA,NA,NA,NA,NA,NA
8404d,deep,flow.Sequence,3_0_4_0_3_0,NA,NA,skipped,NA,514150,NA,NA,514143.22,514150.1,2023-06-01T12:16:15Z,514159.886,NULL,Kontrolle,kudhibiti,s,mbinguni,kufunga,utegemezi,NA,sd,NA,4,NA,NA,NA,NA,NA,NA,NA,NA,NA,NA,NA,NA,NA,NA,NA,NA,NA,NA,NA
8404d,Shallow Question,html.Page,3_0_4_0_3_1_0,NA,NA,form submission,4922.7140000015,514150.2,514143.22,514159.886,519082.6,519083,2023-06-01T12:16:20Z,519093.595,NULL,Kontrolle,kudhibiti,s,mbinguni,kufunga,utegemezi,kudhibiti,NA,NA,4,NA,NA,NA,NA,NA,NA,NA,NA,NA,NA,NA,NA,NA,NA,NA,NA,NA,NA,NA
8404d,"""Richtig""-Screen",canvas.Screen,3_0_4_0_3_1_1,NA,NA,timeout,4999.8,519085.5,519076.929,519093.595,524076.729,524081.8,2023-06-01T12:16:25Z,524093.395,NULL,Kontrolle,kudhibiti,s,mbinguni,kufunga,utegemezi,NA,sd,1,4,NA,NA,NA,NA,NA,NA,NA,NA,NA,NA,NA,NA,NA,NA,NA,NA,NA,NA,NA
8404d,"""Falsch""-Screen",canvas.Screen,3_0_4_0_3_1_2,NA,NA,skipped,NA,524085.3,NA,NA,524076.729,524085.4,2023-06-01T12:16:25Z,524093.395,NULL,Kontrolle,kudhibiti,s,mbinguni,kufunga,utegemezi,NA,sd,NA,4,NA,NA,NA,NA,NA,NA,NA,NA,NA,NA,NA,NA,NA,NA,NA,NA,NA,NA,NA
8404d,shallow,flow.Sequence,3_0_4_0_3_1,NA,NA,completion,9916.843,514150.2,514143.22,514159.886,524076.729,524085.5,2023-06-01T12:16:25Z,524093.395,NULL,Kontrolle,kudhibiti,s,mbinguni,kufunga,utegemezi,NA,sd,NA,4,NA,NA,NA,NA,NA,NA,NA,NA,NA,NA,NA,NA,NA,NA,NA,NA,NA,NA,NA
8404d,task,flow.Sequence,3_0_4_0_3,NA,NA,completion,9916.843,514150,514143.22,514159.886,524076.729,524085.6,2023-06-01T12:16:25Z,524093.395,NULL,Kontrolle,kudhibiti,s,mbinguni,kufunga,utegemezi,NA,sd,NA,4,NA,NA,NA,NA,NA,NA,NA,NA,NA,NA,NA,NA,NA,NA,NA,NA,NA,NA,NA
8404d,Deep Question,html.Page,3_0_4_0_4_0_0,NA,NA,form submission,8573.2050000015,524085.8,524076.729,524093.395,532666.6,532667.2,2023-06-01T12:16:34Z,532676.96,NULL,Gelegenheit,wakati,d,NA,NA,NA,ufulubu,NA,NA,4,NA,NA,NA,NA,NA,NA,NA,NA,NA,NA,NA,NA,NA,NA,NA,NA,NA,NA,NA
8404d,"""Richtig""-Screen",canvas.Screen,3_0_4_0_4_0_1,NA,NA,skipped,NA,532670,NA,NA,532666.6,532670.2,2023-06-01T12:16:34Z,532676.96,NULL,Gelegenheit,wakati,d,NA,NA,NA,NA,sd,NA,4,NA,NA,NA,NA,NA,NA,NA,NA,NA,NA,NA,NA,NA,NA,NA,NA,NA,NA,NA
8404d,"""Falsch""-Screen",canvas.Screen,3_0_4_0_4_0_2,NA,NA,timeout,4999.8,532671.3,532660.294,532676.96,537660.094,537663.9,2023-06-01T12:16:39Z,537676.76,NULL,Gelegenheit,wakati,d,NA,NA,NA,NA,sd,0,4,NA,NA,NA,NA,NA,NA,NA,NA,NA,NA,NA,NA,NA,NA,NA,NA,NA,NA,NA
8404d,deep,flow.Sequence,3_0_4_0_4_0,NA,NA,completion,13566.699,524085.8,524076.729,524093.395,537660.094,537664.2,2023-06-01T12:16:39Z,537676.76,NULL,Gelegenheit,wakati,d,NA,NA,NA,NA,sd,NA,4,NA,NA,NA,NA,NA,NA,NA,NA,NA,NA,NA,NA,NA,NA,NA,NA,NA,NA,NA
8404d,shallow,flow.Sequence,3_0_4_0_4_1,NA,NA,skipped,NA,537664.5,NA,NA,537660.094,537664.6,2023-06-01T12:16:39Z,537676.76,NULL,Gelegenheit,wakati,d,NA,NA,NA,NA,sd,NA,4,NA,NA,NA,NA,NA,NA,NA,NA,NA,NA,NA,NA,NA,NA,NA,NA,NA,NA,NA
8404d,task,flow.Sequence,3_0_4_0_4,NA,NA,completion,13566.699,524085.7,524076.729,524093.395,537660.094,537664.7,2023-06-01T12:16:39Z,537676.76,NULL,Gelegenheit,wakati,d,NA,NA,NA,NA,sd,NA,4,NA,NA,NA,NA,NA,NA,NA,NA,NA,NA,NA,NA,NA,NA,NA,NA,NA,NA,NA
8404d,Deep Question,html.Page,3_0_4_0_5_0_0,NA,NA,form submission,9328.9399999992,537664.9,537660.094,537676.76,547005.7,547006.1,2023-06-01T12:16:48Z,547010.328,NULL,Kreativität,ubunifu,d,NA,NA,NA,katahashi,NA,NA,4,NA,NA,NA,NA,NA,NA,NA,NA,NA,NA,NA,NA,NA,NA,NA,NA,NA,NA,NA
8404d,"""Richtig""-Screen",canvas.Screen,3_0_4_0_5_0_1,NA,NA,skipped,NA,547009.1,NA,NA,547005.7,547009.2,2023-06-01T12:16:48Z,547010.328,NULL,Kreativität,ubunifu,d,NA,NA,NA,NA,sd,NA,4,NA,NA,NA,NA,NA,NA,NA,NA,NA,NA,NA,NA,NA,NA,NA,NA,NA,NA,NA
8404d,"""Falsch""-Screen",canvas.Screen,3_0_4_0_5_0_2,NA,NA,timeout,4999.8,547010.5,546993.662,547010.328,551993.462,551995.1,2023-06-01T12:16:53Z,552010.128,NULL,Kreativität,ubunifu,d,NA,NA,NA,NA,sd,0,4,NA,NA,NA,NA,NA,NA,NA,NA,NA,NA,NA,NA,NA,NA,NA,NA,NA,NA,NA
8404d,deep,flow.Sequence,3_0_4_0_5_0,NA,NA,completion,14316.702,537664.9,537660.094,537676.76,551993.462,551995.5,2023-06-01T12:16:53Z,552010.128,NULL,Kreativität,ubunifu,d,NA,NA,NA,NA,sd,NA,4,NA,NA,NA,NA,NA,NA,NA,NA,NA,NA,NA,NA,NA,NA,NA,NA,NA,NA,NA
8404d,shallow,flow.Sequence,3_0_4_0_5_1,NA,NA,skipped,NA,551995.7,NA,NA,551993.462,551995.9,2023-06-01T12:16:53Z,552010.128,NULL,Kreativität,ubunifu,d,NA,NA,NA,NA,sd,NA,4,NA,NA,NA,NA,NA,NA,NA,NA,NA,NA,NA,NA,NA,NA,NA,NA,NA,NA,NA
8404d,task,flow.Sequence,3_0_4_0_5,NA,NA,completion,14316.702,537664.8,537660.094,537676.76,551993.462,551996.1,2023-06-01T12:16:53Z,552010.128,NULL,Kreativität,ubunifu,d,NA,NA,NA,NA,sd,NA,4,NA,NA,NA,NA,NA,NA,NA,NA,NA,NA,NA,NA,NA,NA,NA,NA,NA,NA,NA
8404d,Deep Question,html.Page,3_0_4_0_6_0_0,NA,NA,form submission,4451.9720000015,551996.3,551993.462,552010.128,556462.1,556462.7,2023-06-01T12:16:58Z,556477.325,NULL,Können,unaweza,d,NA,NA,NA,ubunifu,NA,NA,4,NA,NA,NA,NA,NA,NA,NA,NA,NA,NA,NA,NA,NA,NA,NA,NA,NA,NA,NA
8404d,"""Richtig""-Screen",canvas.Screen,3_0_4_0_6_0_1,NA,NA,skipped,NA,556466.1,NA,NA,556462.1,556466.4,2023-06-01T12:16:58Z,556477.325,NULL,Können,unaweza,d,NA,NA,NA,NA,sd,NA,4,NA,NA,NA,NA,NA,NA,NA,NA,NA,NA,NA,NA,NA,NA,NA,NA,NA,NA,NA
8404d,"""Falsch""-Screen",canvas.Screen,3_0_4_0_6_0_2,NA,NA,timeout,4999.8,556467.5,556460.659,556477.325,561460.459,561465.4,2023-06-01T12:17:03Z,561477.125,NULL,Können,unaweza,d,NA,NA,NA,NA,sd,0,4,NA,NA,NA,NA,NA,NA,NA,NA,NA,NA,NA,NA,NA,NA,NA,NA,NA,NA,NA
8404d,deep,flow.Sequence,3_0_4_0_6_0,NA,NA,completion,9450.331,551996.3,551993.462,552010.128,561460.459,561465.7,2023-06-01T12:17:03Z,561477.125,NULL,Können,unaweza,d,NA,NA,NA,NA,sd,NA,4,NA,NA,NA,NA,NA,NA,NA,NA,NA,NA,NA,NA,NA,NA,NA,NA,NA,NA,NA
8404d,shallow,flow.Sequence,3_0_4_0_6_1,NA,NA,skipped,NA,561465.8,NA,NA,561460.459,561465.9,2023-06-01T12:17:03Z,561477.125,NULL,Können,unaweza,d,NA,NA,NA,NA,sd,NA,4,NA,NA,NA,NA,NA,NA,NA,NA,NA,NA,NA,NA,NA,NA,NA,NA,NA,NA,NA
8404d,task,flow.Sequence,3_0_4_0_6,NA,NA,completion,9450.331,551996.1,551993.462,552010.128,561460.459,561466,2023-06-01T12:17:03Z,561477.125,NULL,Können,unaweza,d,NA,NA,NA,NA,sd,NA,4,NA,NA,NA,NA,NA,NA,NA,NA,NA,NA,NA,NA,NA,NA,NA,NA,NA,NA,NA
8404d,deep,flow.Sequence,3_0_4_0_7_0,NA,NA,skipped,NA,561466.2,NA,NA,561460.459,561466.2,2023-06-01T12:17:03Z,561477.125,NULL,Widerstand,usulubu,s,kusababisha,mwalimu,mwenendo,NA,sd,NA,4,NA,NA,NA,NA,NA,NA,NA,NA,NA,NA,NA,NA,NA,NA,NA,NA,NA,NA,NA
8404d,Shallow Question,html.Page,3_0_4_0_7_1_0,NA,NA,form submission,6154.5749999993,561466.3,561460.459,561477.125,567631.7,567632.2,2023-06-01T12:17:09Z,567644.195,NULL,Widerstand,usulubu,s,kusababisha,mwalimu,mwenendo,usulubu,NA,NA,4,NA,NA,NA,NA,NA,NA,NA,NA,NA,NA,NA,NA,NA,NA,NA,NA,NA,NA,NA
8404d,"""Richtig""-Screen",canvas.Screen,3_0_4_0_7_1_1,NA,NA,timeout,4999.8,567635.1,567627.529,567644.195,572627.329,572631.8,2023-06-01T12:17:14Z,572643.995,NULL,Widerstand,usulubu,s,kusababisha,mwalimu,mwenendo,NA,sd,1,4,NA,NA,NA,NA,NA,NA,NA,NA,NA,NA,NA,NA,NA,NA,NA,NA,NA,NA,NA
8404d,"""Falsch""-Screen",canvas.Screen,3_0_4_0_7_1_2,NA,NA,skipped,NA,572636.2,NA,NA,572627.329,572636.4,2023-06-01T12:17:14Z,572643.995,NULL,Widerstand,usulubu,s,kusababisha,mwalimu,mwenendo,NA,sd,NA,4,NA,NA,NA,NA,NA,NA,NA,NA,NA,NA,NA,NA,NA,NA,NA,NA,NA,NA,NA
8404d,shallow,flow.Sequence,3_0_4_0_7_1,NA,NA,completion,11150.204,561466.3,561460.459,561477.125,572627.329,572636.6,2023-06-01T12:17:14Z,572643.995,NULL,Widerstand,usulubu,s,kusababisha,mwalimu,mwenendo,NA,sd,NA,4,NA,NA,NA,NA,NA,NA,NA,NA,NA,NA,NA,NA,NA,NA,NA,NA,NA,NA,NA
8404d,task,flow.Sequence,3_0_4_0_7,NA,NA,completion,11150.204,561466.1,561460.459,561477.125,572627.329,572636.7,2023-06-01T12:17:14Z,572643.995,NULL,Widerstand,usulubu,s,kusababisha,mwalimu,mwenendo,NA,sd,NA,4,NA,NA,NA,NA,NA,NA,NA,NA,NA,NA,NA,NA,NA,NA,NA,NA,NA,NA,NA
8404d,block,flow.Loop,3_0_4_0,NA,NA,completion,91634.373,481007.2,480959.624,480992.956,572627.329,572636.8,2023-06-01T12:17:14Z,572643.995,NULL,NA,NA,NA,NA,NA,NA,NA,sd,NA,4,NA,NA,NA,NA,NA,NA,NA,NA,NA,NA,NA,NA,NA,NA,NA,NA,NA,NA,NA
8404d,weiter,canvas.Screen,3_0_4_1,sdf,keypress(Space),response,830.70499999926,572637,572627.329,572643.995,573474.7,573478.1,2023-06-01T12:17:15Z,573493.961,NULL,NA,NA,NA,NA,NA,NA,NA,sd,NA,4,NA,NA,NA,NA,NA,NA,NA,NA,NA,NA,NA,NA,NA,NA,NA,NA,NA,NA,NA
8404d,check continue,flow.Sequence,3_0_4,NA,NA,completion,92481.743999999,481007.1,480959.624,480992.956,573474.7,573478.5,2023-06-01T12:17:15Z,573493.961,NULL,NA,NA,NA,NA,NA,NA,NA,sd,NA,4,NA,NA,NA,NA,NA,NA,NA,NA,NA,NA,NA,NA,NA,NA,NA,NA,NA,NA,NA
8404d,deep,flow.Sequence,3_0_5_0_0_0,NA,NA,skipped,NA,573505.7,NA,NA,573474.7,573505.9,2023-06-01T12:17:15Z,573493.961,NULL,Kontrolle,kudhibiti,s,mbinguni,kufunga,utegemezi,NA,sdf,NA,5,NA,NA,NA,NA,NA,NA,NA,NA,NA,NA,NA,NA,NA,NA,NA,NA,NA,NA,NA
8404d,Shallow Question,html.Page,3_0_5_0_0_1_0,NA,NA,form submission,8689.039,573506.2,573460.629,573493.961,582183,582183.5,2023-06-01T12:17:23Z,582194.258,NULL,Kontrolle,kudhibiti,s,mbinguni,kufunga,utegemezi,kudhibiti,NA,NA,5,NA,NA,NA,NA,NA,NA,NA,NA,NA,NA,NA,NA,NA,NA,NA,NA,NA,NA,NA
8404d,"""Richtig""-Screen",canvas.Screen,3_0_5_0_0_1_1,NA,NA,timeout,4999.7999999999,582186.5,582177.592,582194.258,587177.392,587182.7,2023-06-01T12:17:28Z,587194.058,NULL,Kontrolle,kudhibiti,s,mbinguni,kufunga,utegemezi,NA,sdf,1,5,NA,NA,NA,NA,NA,NA,NA,NA,NA,NA,NA,NA,NA,NA,NA,NA,NA,NA,NA
8404d,"""Falsch""-Screen",canvas.Screen,3_0_5_0_0_1_2,NA,NA,skipped,NA,587186,NA,NA,587177.392,587186.1,2023-06-01T12:17:28Z,587194.058,NULL,Kontrolle,kudhibiti,s,mbinguni,kufunga,utegemezi,NA,sdf,NA,5,NA,NA,NA,NA,NA,NA,NA,NA,NA,NA,NA,NA,NA,NA,NA,NA,NA,NA,NA
8404d,shallow,flow.Sequence,3_0_5_0_0_1,NA,NA,completion,13683.431,573506.2,573460.629,573493.961,587177.392,587186.3,2023-06-01T12:17:28Z,587194.058,NULL,Kontrolle,kudhibiti,s,mbinguni,kufunga,utegemezi,NA,sdf,NA,5,NA,NA,NA,NA,NA,NA,NA,NA,NA,NA,NA,NA,NA,NA,NA,NA,NA,NA,NA
8404d,task,flow.Sequence,3_0_5_0_0,NA,NA,completion,13683.431,573505.7,573460.629,573493.961,587177.392,587186.4,2023-06-01T12:17:28Z,587194.058,NULL,Kontrolle,kudhibiti,s,mbinguni,kufunga,utegemezi,NA,sdf,NA,5,NA,NA,NA,NA,NA,NA,NA,NA,NA,NA,NA,NA,NA,NA,NA,NA,NA,NA,NA
8404d,Deep Question,html.Page,3_0_5_0_1_0_0,NA,NA,form submission,5150.1419999993,587186.6,587177.392,587194.058,592344.2,592344.8,2023-06-01T12:17:34Z,592344.384,NULL,Gelegenheit,wakati,d,NA,NA,NA,kutengwa,NA,NA,5,NA,NA,NA,NA,NA,NA,NA,NA,NA,NA,NA,NA,NA,NA,NA,NA,NA,NA,NA
8404d,"""Richtig""-Screen",canvas.Screen,3_0_5_0_1_0_1,NA,NA,skipped,NA,592347.4,NA,NA,592344.2,592347.7,2023-06-01T12:17:34Z,592344.384,NULL,Gelegenheit,wakati,d,NA,NA,NA,NA,sdf,NA,5,NA,NA,NA,NA,NA,NA,NA,NA,NA,NA,NA,NA,NA,NA,NA,NA,NA,NA,NA
8404d,"""Falsch""-Screen",canvas.Screen,3_0_5_0_1_0_2,NA,NA,timeout,4999.8,592348.6,592327.718,592344.384,597327.518,597330.4,2023-06-01T12:17:39Z,597344.184,NULL,Gelegenheit,wakati,d,NA,NA,NA,NA,sdf,0,5,NA,NA,NA,NA,NA,NA,NA,NA,NA,NA,NA,NA,NA,NA,NA,NA,NA,NA,NA
8404d,deep,flow.Sequence,3_0_5_0_1_0,NA,NA,completion,10133.46,587186.5,587177.392,587194.058,597327.518,597330.9,2023-06-01T12:17:39Z,597344.184,NULL,Gelegenheit,wakati,d,NA,NA,NA,NA,sdf,NA,5,NA,NA,NA,NA,NA,NA,NA,NA,NA,NA,NA,NA,NA,NA,NA,NA,NA,NA,NA
8404d,shallow,flow.Sequence,3_0_5_0_1_1,NA,NA,skipped,NA,597331,NA,NA,597327.518,597331.1,2023-06-01T12:17:39Z,597344.184,NULL,Gelegenheit,wakati,d,NA,NA,NA,NA,sdf,NA,5,NA,NA,NA,NA,NA,NA,NA,NA,NA,NA,NA,NA,NA,NA,NA,NA,NA,NA,NA
8404d,task,flow.Sequence,3_0_5_0_1,NA,NA,completion,10133.46,587186.5,587177.392,587194.058,597327.518,597331.3,2023-06-01T12:17:39Z,597344.184,NULL,Gelegenheit,wakati,d,NA,NA,NA,NA,sdf,NA,5,NA,NA,NA,NA,NA,NA,NA,NA,NA,NA,NA,NA,NA,NA,NA,NA,NA,NA,NA
8404d,deep,flow.Sequence,3_0_5_0_2_0,NA,NA,skipped,NA,597331.4,NA,NA,597327.518,597331.6,2023-06-01T12:17:39Z,597344.184,NULL,Widerstand,usulubu,s,kusababisha,mwalimu,mwenendo,NA,sdf,NA,5,NA,NA,NA,NA,NA,NA,NA,NA,NA,NA,NA,NA,NA,NA,NA,NA,NA,NA,NA
8404d,Shallow Question,html.Page,3_0_5_0_2_1_0,NA,NA,form submission,4137.9160000015,597331.6,597327.518,597344.184,601482.1,601482.7,2023-06-01T12:17:43Z,601494.463,NULL,Widerstand,usulubu,s,kusababisha,mwalimu,mwenendo,usulubu,NA,NA,5,NA,NA,NA,NA,NA,NA,NA,NA,NA,NA,NA,NA,NA,NA,NA,NA,NA,NA,NA
8404d,"""Richtig""-Screen",canvas.Screen,3_0_5_0_2_1_1,NA,NA,timeout,4999.8,601485.9,601477.797,601494.463,606477.597,606482.7,2023-06-01T12:17:48Z,606494.263,NULL,Widerstand,usulubu,s,kusababisha,mwalimu,mwenendo,NA,sdf,1,5,NA,NA,NA,NA,NA,NA,NA,NA,NA,NA,NA,NA,NA,NA,NA,NA,NA,NA,NA
8404d,"""Falsch""-Screen",canvas.Screen,3_0_5_0_2_1_2,NA,NA,skipped,NA,606486.9,NA,NA,606477.597,606487,2023-06-01T12:17:48Z,606494.263,NULL,Widerstand,usulubu,s,kusababisha,mwalimu,mwenendo,NA,sdf,NA,5,NA,NA,NA,NA,NA,NA,NA,NA,NA,NA,NA,NA,NA,NA,NA,NA,NA,NA,NA
8404d,shallow,flow.Sequence,3_0_5_0_2_1,NA,NA,completion,9133.4129999999,597331.6,597327.518,597344.184,606477.597,606487.2,2023-06-01T12:17:48Z,606494.263,NULL,Widerstand,usulubu,s,kusababisha,mwalimu,mwenendo,NA,sdf,NA,5,NA,NA,NA,NA,NA,NA,NA,NA,NA,NA,NA,NA,NA,NA,NA,NA,NA,NA,NA
8404d,task,flow.Sequence,3_0_5_0_2,NA,NA,completion,9133.4129999999,597331.3,597327.518,597344.184,606477.597,606487.3,2023-06-01T12:17:48Z,606494.263,NULL,Widerstand,usulubu,s,kusababisha,mwalimu,mwenendo,NA,sdf,NA,5,NA,NA,NA,NA,NA,NA,NA,NA,NA,NA,NA,NA,NA,NA,NA,NA,NA,NA,NA
8404d,Deep Question,html.Page,3_0_5_0_3_0_0,NA,NA,form submission,6165.5370000007,606487.5,606477.597,606494.263,612659.8,612660.3,2023-06-01T12:17:54Z,612661.191,NULL,Ausschluss,kutengwa,d,NA,NA,NA,kutengwa,NA,NA,5,NA,NA,NA,NA,NA,NA,NA,NA,NA,NA,NA,NA,NA,NA,NA,NA,NA,NA,NA
8404d,"""Richtig""-Screen",canvas.Screen,3_0_5_0_3_0_1,NA,NA,timeout,4999.8,612663.1,612644.525,612661.191,617644.325,617648.8,2023-06-01T12:17:59Z,617660.991,NULL,Ausschluss,kutengwa,d,NA,NA,NA,NA,sdf,1,5,NA,NA,NA,NA,NA,NA,NA,NA,NA,NA,NA,NA,NA,NA,NA,NA,NA,NA,NA
8404d,"""Falsch""-Screen",canvas.Screen,3_0_5_0_3_0_2,NA,NA,skipped,NA,617652.8,NA,NA,617644.325,617653,2023-06-01T12:17:59Z,617660.991,NULL,Ausschluss,kutengwa,d,NA,NA,NA,NA,sdf,NA,5,NA,NA,NA,NA,NA,NA,NA,NA,NA,NA,NA,NA,NA,NA,NA,NA,NA,NA,NA
8404d,deep,flow.Sequence,3_0_5_0_3_0,NA,NA,completion,11150.062,606487.4,606477.597,606494.263,617644.325,617653.2,2023-06-01T12:17:59Z,617660.991,NULL,Ausschluss,kutengwa,d,NA,NA,NA,NA,sdf,NA,5,NA,NA,NA,NA,NA,NA,NA,NA,NA,NA,NA,NA,NA,NA,NA,NA,NA,NA,NA
8404d,shallow,flow.Sequence,3_0_5_0_3_1,NA,NA,skipped,NA,617653.3,NA,NA,617644.325,617653.4,2023-06-01T12:17:59Z,617660.991,NULL,Ausschluss,kutengwa,d,NA,NA,NA,NA,sdf,NA,5,NA,NA,NA,NA,NA,NA,NA,NA,NA,NA,NA,NA,NA,NA,NA,NA,NA,NA,NA
8404d,task,flow.Sequence,3_0_5_0_3,NA,NA,completion,11150.062,606487.4,606477.597,606494.263,617644.325,617653.6,2023-06-01T12:17:59Z,617660.991,NULL,Ausschluss,kutengwa,d,NA,NA,NA,NA,sdf,NA,5,NA,NA,NA,NA,NA,NA,NA,NA,NA,NA,NA,NA,NA,NA,NA,NA,NA,NA,NA
8404d,Deep Question,html.Page,3_0_5_0_4_0_0,NA,NA,form submission,7170.8090000007,617653.8,617644.325,617660.991,624831.8,624832.4,2023-06-01T12:18:06Z,624844.037,NULL,Kreativität,ubunifu,d,NA,NA,NA,ubunifu,NA,NA,5,NA,NA,NA,NA,NA,NA,NA,NA,NA,NA,NA,NA,NA,NA,NA,NA,NA,NA,NA
8404d,"""Richtig""-Screen",canvas.Screen,3_0_5_0_4_0_1,NA,NA,timeout,4999.8,624835.1,624827.371,624844.037,629827.171,629829.2,2023-06-01T12:18:11Z,629843.837,NULL,Kreativität,ubunifu,d,NA,NA,NA,NA,sdf,1,5,NA,NA,NA,NA,NA,NA,NA,NA,NA,NA,NA,NA,NA,NA,NA,NA,NA,NA,NA
8404d,"""Falsch""-Screen",canvas.Screen,3_0_5_0_4_0_2,NA,NA,skipped,NA,629833.3,NA,NA,629827.171,629833.4,2023-06-01T12:18:11Z,629843.837,NULL,Kreativität,ubunifu,d,NA,NA,NA,NA,sdf,NA,5,NA,NA,NA,NA,NA,NA,NA,NA,NA,NA,NA,NA,NA,NA,NA,NA,NA,NA,NA
8404d,deep,flow.Sequence,3_0_5_0_4_0,NA,NA,completion,12166.18,617653.7,617644.325,617660.991,629827.171,629833.7,2023-06-01T12:18:11Z,629843.837,NULL,Kreativität,ubunifu,d,NA,NA,NA,NA,sdf,NA,5,NA,NA,NA,NA,NA,NA,NA,NA,NA,NA,NA,NA,NA,NA,NA,NA,NA,NA,NA
8404d,shallow,flow.Sequence,3_0_5_0_4_1,NA,NA,skipped,NA,629833.8,NA,NA,629827.171,629833.9,2023-06-01T12:18:11Z,629843.837,NULL,Kreativität,ubunifu,d,NA,NA,NA,NA,sdf,NA,5,NA,NA,NA,NA,NA,NA,NA,NA,NA,NA,NA,NA,NA,NA,NA,NA,NA,NA,NA
8404d,task,flow.Sequence,3_0_5_0_4,NA,NA,completion,12166.18,617653.6,617644.325,617660.991,629827.171,629834,2023-06-01T12:18:11Z,629843.837,NULL,Kreativität,ubunifu,d,NA,NA,NA,NA,sdf,NA,5,NA,NA,NA,NA,NA,NA,NA,NA,NA,NA,NA,NA,NA,NA,NA,NA,NA,NA,NA
8404d,Deep Question,html.Page,3_0_5_0_5_0_0,NA,NA,form submission,10118.862999999,629834.2,629827.171,629843.837,639962.7,639963.1,2023-06-01T12:18:21Z,639977.885,NULL,Können,unaweza,d,NA,NA,NA,aha,NA,NA,5,NA,NA,NA,NA,NA,NA,NA,NA,NA,NA,NA,NA,NA,NA,NA,NA,NA,NA,NA
8404d,"""Richtig""-Screen",canvas.Screen,3_0_5_0_5_0_1,NA,NA,skipped,NA,639965.8,NA,NA,639962.7,639965.9,2023-06-01T12:18:21Z,639977.885,NULL,Können,unaweza,d,NA,NA,NA,NA,sdf,NA,5,NA,NA,NA,NA,NA,NA,NA,NA,NA,NA,NA,NA,NA,NA,NA,NA,NA,NA,NA
8404d,"""Falsch""-Screen",canvas.Screen,3_0_5_0_5_0_2,NA,NA,timeout,5000.335,639966.4,639961.219,639977.885,644961.554,644965.8,2023-06-01T12:18:26Z,644978.22,NULL,Können,unaweza,d,NA,NA,NA,NA,sdf,0,5,NA,NA,NA,NA,NA,NA,NA,NA,NA,NA,NA,NA,NA,NA,NA,NA,NA,NA,NA
8404d,deep,flow.Sequence,3_0_5_0_5_0,NA,NA,completion,15117.717,629834.1,629827.171,629843.837,644961.554,644966.3,2023-06-01T12:18:26Z,644978.22,NULL,Können,unaweza,d,NA,NA,NA,NA,sdf,NA,5,NA,NA,NA,NA,NA,NA,NA,NA,NA,NA,NA,NA,NA,NA,NA,NA,NA,NA,NA
8404d,shallow,flow.Sequence,3_0_5_0_5_1,NA,NA,skipped,NA,644966.4,NA,NA,644961.554,644966.5,2023-06-01T12:18:26Z,644978.22,NULL,Können,unaweza,d,NA,NA,NA,NA,sdf,NA,5,NA,NA,NA,NA,NA,NA,NA,NA,NA,NA,NA,NA,NA,NA,NA,NA,NA,NA,NA
8404d,task,flow.Sequence,3_0_5_0_5,NA,NA,completion,15117.717,629834.1,629827.171,629843.837,644961.554,644966.7,2023-06-01T12:18:26Z,644978.22,NULL,Können,unaweza,d,NA,NA,NA,NA,sdf,NA,5,NA,NA,NA,NA,NA,NA,NA,NA,NA,NA,NA,NA,NA,NA,NA,NA,NA,NA,NA
8404d,deep,flow.Sequence,3_0_5_0_6_0,NA,NA,skipped,NA,644966.9,NA,NA,644961.554,644966.9,2023-06-01T12:18:26Z,644978.22,NULL,Verstand,ufahamivu,s,shakawa,hadhari,mhandisi,NA,sdf,NA,5,NA,NA,NA,NA,NA,NA,NA,NA,NA,NA,NA,NA,NA,NA,NA,NA,NA,NA,NA
8404d,Shallow Question,html.Page,3_0_5_0_6_1_0,NA,NA,form submission,4754.28,644967.1,644961.554,644978.22,649732.5,649733,2023-06-01T12:18:31Z,649744.696,NULL,Verstand,ufahamivu,s,shakawa,hadhari,mhandisi,hadhari,NA,NA,5,NA,NA,NA,NA,NA,NA,NA,NA,NA,NA,NA,NA,NA,NA,NA,NA,NA,NA,NA
8404d,"""Richtig""-Screen",canvas.Screen,3_0_5_0_6_1_1,NA,NA,skipped,NA,649736.5,NA,NA,649732.5,649736.8,2023-06-01T12:18:31Z,649744.696,NULL,Verstand,ufahamivu,s,shakawa,hadhari,mhandisi,NA,sdf,NA,5,NA,NA,NA,NA,NA,NA,NA,NA,NA,NA,NA,NA,NA,NA,NA,NA,NA,NA,NA
8404d,"""Falsch""-Screen",canvas.Screen,3_0_5_0_6_1_2,NA,NA,timeout,4999.8,649737.7,649728.03,649744.696,654727.83,654729.4,2023-06-01T12:18:36Z,654744.496,NULL,Verstand,ufahamivu,s,shakawa,hadhari,mhandisi,NA,sdf,0,5,NA,NA,NA,NA,NA,NA,NA,NA,NA,NA,NA,NA,NA,NA,NA,NA,NA,NA,NA
8404d,shallow,flow.Sequence,3_0_5_0_6_1,NA,NA,completion,9749.61,644967,644961.554,644978.22,654727.83,654729.9,2023-06-01T12:18:36Z,654744.496,NULL,Verstand,ufahamivu,s,shakawa,hadhari,mhandisi,NA,sdf,NA,5,NA,NA,NA,NA,NA,NA,NA,NA,NA,NA,NA,NA,NA,NA,NA,NA,NA,NA,NA
8404d,task,flow.Sequence,3_0_5_0_6,NA,NA,completion,9749.61,644966.7,644961.554,644978.22,654727.83,654730,2023-06-01T12:18:36Z,654744.496,NULL,Verstand,ufahamivu,s,shakawa,hadhari,mhandisi,NA,sdf,NA,5,NA,NA,NA,NA,NA,NA,NA,NA,NA,NA,NA,NA,NA,NA,NA,NA,NA,NA,NA
8404d,deep,flow.Sequence,3_0_5_0_7_0,NA,NA,skipped,NA,654730.3,NA,NA,654727.83,654730.4,2023-06-01T12:18:36Z,654744.496,NULL,Gefährdung,kuhatarisha,s,uchokozi,udhaifu,makorowezo,NA,sdf,NA,5,NA,NA,NA,NA,NA,NA,NA,NA,NA,NA,NA,NA,NA,NA,NA,NA,NA,NA,NA
8404d,Shallow Question,html.Page,3_0_5_0_7_1_0,NA,NA,form submission,5672.004,654730.5,654727.83,654744.496,660416.5,660417,2023-06-01T12:18:42Z,660428.348,NULL,Gefährdung,kuhatarisha,s,uchokozi,udhaifu,makorowezo,kuhatarisha,NA,NA,5,NA,NA,NA,NA,NA,NA,NA,NA,NA,NA,NA,NA,NA,NA,NA,NA,NA,NA,NA
8404d,"""Richtig""-Screen",canvas.Screen,3_0_5_0_7_1_1,NA,NA,timeout,4999.8,660419.9,660411.682,660428.348,665411.482,665416.2,2023-06-01T12:18:47Z,665428.148,NULL,Gefährdung,kuhatarisha,s,uchokozi,udhaifu,makorowezo,NA,sdf,1,5,NA,NA,NA,NA,NA,NA,NA,NA,NA,NA,NA,NA,NA,NA,NA,NA,NA,NA,NA
8404d,"""Falsch""-Screen",canvas.Screen,3_0_5_0_7_1_2,NA,NA,skipped,NA,665420.3,NA,NA,665411.482,665420.4,2023-06-01T12:18:47Z,665428.148,NULL,Gefährdung,kuhatarisha,s,uchokozi,udhaifu,makorowezo,NA,sdf,NA,5,NA,NA,NA,NA,NA,NA,NA,NA,NA,NA,NA,NA,NA,NA,NA,NA,NA,NA,NA
8404d,shallow,flow.Sequence,3_0_5_0_7_1,NA,NA,completion,10666.986,654730.5,654727.83,654744.496,665411.482,665420.6,2023-06-01T12:18:47Z,665428.148,NULL,Gefährdung,kuhatarisha,s,uchokozi,udhaifu,makorowezo,NA,sdf,NA,5,NA,NA,NA,NA,NA,NA,NA,NA,NA,NA,NA,NA,NA,NA,NA,NA,NA,NA,NA
8404d,task,flow.Sequence,3_0_5_0_7,NA,NA,completion,10666.986,654730.2,654727.83,654744.496,665411.482,665420.6,2023-06-01T12:18:47Z,665428.148,NULL,Gefährdung,kuhatarisha,s,uchokozi,udhaifu,makorowezo,NA,sdf,NA,5,NA,NA,NA,NA,NA,NA,NA,NA,NA,NA,NA,NA,NA,NA,NA,NA,NA,NA,NA
8404d,block,flow.Loop,3_0_5_0,NA,NA,completion,91917.521,573505.7,573460.629,573493.961,665411.482,665420.8,2023-06-01T12:18:47Z,665428.148,NULL,NA,NA,NA,NA,NA,NA,NA,sdf,NA,5,NA,NA,NA,NA,NA,NA,NA,NA,NA,NA,NA,NA,NA,NA,NA,NA,NA,NA,NA
8404d,weiter,canvas.Screen,3_0_5_1,sdf,keypress(Space),response,1086.4520000014,665420.9,665411.482,665428.148,666514.6,666518.2,2023-06-01T12:18:48Z,666695.294,NULL,NA,NA,NA,NA,NA,NA,NA,sdf,NA,5,NA,NA,NA,NA,NA,NA,NA,NA,NA,NA,NA,NA,NA,NA,NA,NA,NA,NA,NA
8404d,check continue,flow.Sequence,3_0_5,NA,NA,completion,93020.639000001,573505.7,573460.629,573493.961,666514.6,666518.5,2023-06-01T12:18:48Z,666695.294,NULL,NA,NA,NA,NA,NA,NA,NA,sdf,NA,5,NA,NA,NA,NA,NA,NA,NA,NA,NA,NA,NA,NA,NA,NA,NA,NA,NA,NA,NA
8404d,check continue,flow.Sequence,3_0_6,NA,NA,skipped,NA,666544.7,NA,NA,666514.6,666544.8,2023-06-01T12:18:48Z,666695.294,NULL,NA,NA,NA,NA,NA,NA,NA,dfs,NA,6,NA,NA,NA,NA,NA,NA,NA,NA,NA,NA,NA,NA,NA,NA,NA,NA,NA,NA,NA
8404d,check continue,flow.Sequence,3_0_7,NA,NA,skipped,NA,666558.4,NA,NA,666514.6,666558.5,2023-06-01T12:18:48Z,666695.294,NULL,NA,NA,NA,NA,NA,NA,NA,df,NA,7,NA,NA,NA,NA,NA,NA,NA,NA,NA,NA,NA,NA,NA,NA,NA,NA,NA,NA,NA
8404d,check continue,flow.Sequence,3_0_8,NA,NA,skipped,NA,666569.5,NA,NA,666514.6,666569.6,2023-06-01T12:18:48Z,666695.294,NULL,NA,NA,NA,NA,NA,NA,NA,dfs,NA,8,NA,NA,NA,NA,NA,NA,NA,NA,NA,NA,NA,NA,NA,NA,NA,NA,NA,NA,NA
8404d,check continue,flow.Sequence,3_0_9,NA,NA,skipped,NA,666578.5,NA,NA,666514.6,666578.5,2023-06-01T12:18:48Z,666695.294,NULL,NA,NA,NA,NA,NA,NA,NA,dsf,NA,9,NA,NA,NA,NA,NA,NA,NA,NA,NA,NA,NA,NA,NA,NA,NA,NA,NA,NA,NA
8404d,check continue,flow.Sequence,3_0_10,NA,NA,skipped,NA,666587.6,NA,NA,666514.6,666587.6,2023-06-01T12:18:48Z,666695.294,NULL,NA,NA,NA,NA,NA,NA,NA,df,NA,10,NA,NA,NA,NA,NA,NA,NA,NA,NA,NA,NA,NA,NA,NA,NA,NA,NA,NA,NA
8404d,check continue,flow.Sequence,3_0_11,NA,NA,skipped,NA,666595.4,NA,NA,666514.6,666595.4,2023-06-01T12:18:48Z,666695.294,NULL,NA,NA,NA,NA,NA,NA,NA,dfs,NA,11,NA,NA,NA,NA,NA,NA,NA,NA,NA,NA,NA,NA,NA,NA,NA,NA,NA,NA,NA
8404d,check continue,flow.Sequence,3_0_12,NA,NA,skipped,NA,666602.5,NA,NA,666514.6,666602.5,2023-06-01T12:18:48Z,666695.294,NULL,NA,NA,NA,NA,NA,NA,NA,dsf,NA,12,NA,NA,NA,NA,NA,NA,NA,NA,NA,NA,NA,NA,NA,NA,NA,NA,NA,NA,NA
8404d,check continue,flow.Sequence,3_0_13,NA,NA,skipped,NA,666609.6,NA,NA,666514.6,666609.6,2023-06-01T12:18:48Z,666695.294,NULL,NA,NA,NA,NA,NA,NA,NA,dsf,NA,13,NA,NA,NA,NA,NA,NA,NA,NA,NA,NA,NA,NA,NA,NA,NA,NA,NA,NA,NA
8404d,check continue,flow.Sequence,3_0_14,NA,NA,skipped,NA,666616,NA,NA,666514.6,666616.1,2023-06-01T12:18:48Z,666695.294,NULL,NA,NA,NA,NA,NA,NA,NA,NA,NA,14,NA,NA,NA,NA,NA,NA,NA,NA,NA,NA,NA,NA,NA,NA,NA,NA,NA,NA,NA
8404d,check continue,flow.Sequence,3_0_15,NA,NA,skipped,NA,666622.3,NA,NA,666514.6,666622.4,2023-06-01T12:18:48Z,666695.294,NULL,NA,NA,NA,NA,NA,NA,NA,NA,NA,15,NA,NA,NA,NA,NA,NA,NA,NA,NA,NA,NA,NA,NA,NA,NA,NA,NA,NA,NA
8404d,check continue,flow.Sequence,3_0_16,NA,NA,skipped,NA,666628.1,NA,NA,666514.6,666628.1,2023-06-01T12:18:48Z,666695.294,NULL,NA,NA,NA,NA,NA,NA,NA,NA,NA,16,NA,NA,NA,NA,NA,NA,NA,NA,NA,NA,NA,NA,NA,NA,NA,NA,NA,NA,NA
8404d,check continue,flow.Sequence,3_0_17,NA,NA,skipped,NA,666633.6,NA,NA,666514.6,666633.7,2023-06-01T12:18:48Z,666695.294,NULL,NA,NA,NA,NA,NA,NA,NA,NA,NA,17,NA,NA,NA,NA,NA,NA,NA,NA,NA,NA,NA,NA,NA,NA,NA,NA,NA,NA,NA
8404d,check continue,flow.Sequence,3_0_18,NA,NA,skipped,NA,666639.1,NA,NA,666514.6,666639.2,2023-06-01T12:18:48Z,666695.294,NULL,NA,NA,NA,NA,NA,NA,NA,NA,NA,18,NA,NA,NA,NA,NA,NA,NA,NA,NA,NA,NA,NA,NA,NA,NA,NA,NA,NA,NA
8404d,check continue,flow.Sequence,3_0_19,NA,NA,skipped,NA,666645.2,NA,NA,666514.6,666645.2,2023-06-01T12:18:48Z,666695.294,NULL,NA,NA,NA,NA,NA,NA,NA,NA,NA,19,NA,NA,NA,NA,NA,NA,NA,NA,NA,NA,NA,NA,NA,NA,NA,NA,NA,NA,NA
8404d,check continue,flow.Sequence,3_0_20,NA,NA,skipped,NA,666650.5,NA,NA,666514.6,666650.5,2023-06-01T12:18:48Z,666695.294,NULL,NA,NA,NA,NA,NA,NA,NA,NA,NA,20,NA,NA,NA,NA,NA,NA,NA,NA,NA,NA,NA,NA,NA,NA,NA,NA,NA,NA,NA
8404d,check continue,flow.Sequence,3_0_21,NA,NA,skipped,NA,666656.2,NA,NA,666514.6,666656.3,2023-06-01T12:18:48Z,666695.294,NULL,NA,NA,NA,NA,NA,NA,NA,NA,NA,21,NA,NA,NA,NA,NA,NA,NA,NA,NA,NA,NA,NA,NA,NA,NA,NA,NA,NA,NA
8404d,check continue,flow.Sequence,3_0_22,NA,NA,skipped,NA,666662.3,NA,NA,666514.6,666662.4,2023-06-01T12:18:48Z,666695.294,NULL,NA,NA,NA,NA,NA,NA,NA,NA,NA,22,NA,NA,NA,NA,NA,NA,NA,NA,NA,NA,NA,NA,NA,NA,NA,NA,NA,NA,NA
8404d,check continue,flow.Sequence,3_0_23,NA,NA,skipped,NA,666668,NA,NA,666514.6,666668,2023-06-01T12:18:48Z,666695.294,NULL,NA,NA,NA,NA,NA,NA,NA,NA,NA,23,NA,NA,NA,NA,NA,NA,NA,NA,NA,NA,NA,NA,NA,NA,NA,NA,NA,NA,NA
8404d,check continue,flow.Sequence,3_0_24,NA,NA,skipped,NA,666674.1,NA,NA,666514.6,666674.3,2023-06-01T12:18:48Z,666695.294,NULL,NA,NA,NA,NA,NA,NA,NA,NA,NA,24,NA,NA,NA,NA,NA,NA,NA,NA,NA,NA,NA,NA,NA,NA,NA,NA,NA,NA,NA
8404d,check continue,flow.Sequence,3_0_25,NA,NA,skipped,NA,666679.8,NA,NA,666514.6,666679.9,2023-06-01T12:18:48Z,666695.294,NULL,NA,NA,NA,NA,NA,NA,NA,NA,NA,25,NA,NA,NA,NA,NA,NA,NA,NA,NA,NA,NA,NA,NA,NA,NA,NA,NA,NA,NA
8404d,check continue,flow.Sequence,3_0_26,NA,NA,skipped,NA,666687,NA,NA,666514.6,666687,2023-06-01T12:18:48Z,666695.294,NULL,NA,NA,NA,NA,NA,NA,NA,NA,NA,26,NA,NA,NA,NA,NA,NA,NA,NA,NA,NA,NA,NA,NA,NA,NA,NA,NA,NA,NA
8404d,check continue,flow.Sequence,3_0_27,NA,NA,skipped,NA,666692.5,NA,NA,666514.6,666692.5,2023-06-01T12:18:48Z,666695.294,NULL,NA,NA,NA,NA,NA,NA,NA,NA,NA,27,NA,NA,NA,NA,NA,NA,NA,NA,NA,NA,NA,NA,NA,NA,NA,NA,NA,NA,NA
8404d,check continue,flow.Sequence,3_0_28,NA,NA,skipped,NA,666704.5,NA,NA,666514.6,666704.6,2023-06-01T12:18:48Z,666695.294,NULL,NA,NA,NA,NA,NA,NA,NA,NA,NA,28,NA,NA,NA,NA,NA,NA,NA,NA,NA,NA,NA,NA,NA,NA,NA,NA,NA,NA,NA
8404d,check continue,flow.Sequence,3_0_29,NA,NA,skipped,NA,666710.3,NA,NA,666514.6,666710.3,2023-06-01T12:18:48Z,666695.294,NULL,NA,NA,NA,NA,NA,NA,NA,NA,NA,29,NA,NA,NA,NA,NA,NA,NA,NA,NA,NA,NA,NA,NA,NA,NA,NA,NA,NA,NA
8404d,until continue,flow.Loop,3_0,NA,NA,completion,558959.394,107532.6,107538.54,107555.206,666514.6,666710.3,2023-06-01T12:18:48Z,666695.294,NULL,NA,NA,NA,NA,NA,NA,NA,NA,NA,NA,NA,NA,NA,NA,NA,NA,NA,NA,NA,NA,NA,NA,NA,NA,NA,NA,NA,NA,NA
8404d,block 1,flow.Sequence,3,NA,NA,completion,558959.394,107532.6,107538.54,107555.206,666514.6,666710.3,2023-06-01T12:18:48Z,666695.294,NULL,NA,NA,NA,NA,NA,NA,NA,NA,NA,NA,NA,NA,NA,NA,NA,NA,NA,NA,NA,NA,NA,NA,NA,NA,NA,NA,NA,NA,NA
8404d,1.Part Over,canvas.Screen,4,NA,keypress(Space),response,11998.006000001,666710.4,666511.968,666695.294,678693.3,678697.2,2023-06-01T12:19:00Z,678761.478,NULL,NA,NA,NA,NA,NA,NA,NA,NA,NA,NA,NA,NA,NA,NA,NA,NA,NA,NA,NA,NA,NA,NA,NA,NA,NA,NA,NA,NA,NA
8404d,Deep Question,html.Page,5_0_0_0_0_0_0,NA,NA,form submission,7648.3220000007,678745.7,678744.812,678761.478,686409.8,686410.2,2023-06-01T12:19:08Z,686411.795,NULL,Lawine,banguko,d,NA,NA,NA,laha,NA,NA,0,NA,NA,NA,NA,NA,NA,NA,NA,NA,NA,NA,NA,NA,NA,NA,NA,NA,NA,NA
8404d,"""Richtig""-Screen",canvas.Screen,5_0_0_0_0_0_1,NA,NA,skipped,NA,686412.9,NA,NA,686409.8,686413.2,2023-06-01T12:19:08Z,686411.795,NULL,Lawine,banguko,d,NA,NA,NA,NA,sdf,NA,0,NA,NA,NA,NA,NA,NA,NA,NA,NA,NA,NA,NA,NA,NA,NA,NA,NA,NA,NA
8404d,"""Falsch""-Screen",canvas.Screen,5_0_0_0_0_0_2,NA,NA,timeout,4999.7999999999,686414.4,686395.129,686411.795,691394.929,691399.9,2023-06-01T12:19:13Z,691411.595,NULL,Lawine,banguko,d,NA,NA,NA,NA,sdf,0,0,NA,NA,NA,NA,NA,NA,NA,NA,NA,NA,NA,NA,NA,NA,NA,NA,NA,NA,NA
8404d,deep,flow.Sequence,5_0_0_0_0_0,NA,NA,completion,12633.451,678745.7,678744.812,678761.478,691394.929,691400.3,2023-06-01T12:19:13Z,691411.595,NULL,Lawine,banguko,d,NA,NA,NA,NA,sdf,NA,0,NA,NA,NA,NA,NA,NA,NA,NA,NA,NA,NA,NA,NA,NA,NA,NA,NA,NA,NA
8404d,shallow,flow.Sequence,5_0_0_0_0_1,NA,NA,skipped,NA,691400.4,NA,NA,691394.929,691400.6,2023-06-01T12:19:13Z,691411.595,NULL,Lawine,banguko,d,NA,NA,NA,NA,sdf,NA,0,NA,NA,NA,NA,NA,NA,NA,NA,NA,NA,NA,NA,NA,NA,NA,NA,NA,NA,NA
8404d,task,flow.Sequence,5_0_0_0_0,NA,NA,completion,12633.451,678745.7,678744.812,678761.478,691394.929,691400.7,2023-06-01T12:19:13Z,691411.595,NULL,Lawine,banguko,d,NA,NA,NA,NA,sdf,NA,0,NA,NA,NA,NA,NA,NA,NA,NA,NA,NA,NA,NA,NA,NA,NA,NA,NA,NA,NA
8404d,Deep Question,html.Page,5_0_0_0_1_0_0,NA,NA,form submission,10529.905,691400.8,691394.929,691411.595,701941.5,701942.1,2023-06-01T12:19:23Z,701945.658,NULL,Konkurrent,mshindani,d,NA,NA,NA,kaga,NA,NA,0,NA,NA,NA,NA,NA,NA,NA,NA,NA,NA,NA,NA,NA,NA,NA,NA,NA,NA,NA
