sender,sender_type,sender_id,timestamp,meta,NA,german,swahili,correct,distractor1,distractor2,distractor3,distractors,duration,enc,ended_on,response,response_,response_action,time_commit,time_end,time_render,time_run,time_show,time_switch,url,x
Introduction general,canvas.Screen,0,2023-01-08T10:12:15.564Z,"{""labjs_version"":""20.2.4"",""labjs_build"":{""flavor"":""production"",""commit"":""f5b4a49f956347addd546a832a3327688c2c0fef""},""location"":""file:///Users/vincentweber/Documents/Arbeit%20Fernuni/lab_js/my_scripts/index_encoding_immediate.html?vp=105&sess=1"",""userAgent"":""Mozilla/5.0 (Macintosh; Intel Mac OS X 10_15_7) AppleWebKit/537.36 (KHTML, like Gecko) Chrome/108.0.0.0 Safari/537.36"",""platform"":""MacIntel"",""language"":""de-DE"",""locale"":""de"",""timeZone"":""Europe/Zurich"",""timezoneOffset"":-60,""screen_width"":1440,""screen_height"":900,""scroll_width"":1440,""scroll_height"":690,""window_innerWidth"":1440,""window_innerHeight"":738,""devicePixelRatio"":2}",NA,NA,NA,NA,NA,NA,NA,NA,88828.694,NA,response,weiter,NA,keypress(q),88980.20000000110,88968,122.64,113.4,139.306,88987.052,"{""vp"":""105"",""sess"":""1""}",NA
Introduction practice,canvas.Screen,1_0,2023-01-08T10:12:21.442Z,NA,NA,NA,NA,NA,NA,NA,NA,NA,5867.548000001490,NA,response,NA,NA,keypress(Space),94857.70000000110,94854.60000000150,88970.386,88980.60000000150,88987.052,94873.834,NA,NA
Deep Question,html.Page,1_1_0_0_0,2023-01-08T10:12:33.767Z,NA,NA,Gesundheit,salama,NA,NA,NA,NA,"[""distractor1"",""distractor2"",""distractor3""]",12308.466000000700,d,form submission,NA,1,NA,107182.5,107182.30000000100,94857.168,94858.30000000080,94873.834,107190.564,NA,NA
"""Richtig""-Screen",canvas.Screen,1_1_0_0_1,2023-01-08T10:12:33.767Z,NA,NA,Gesundheit,salama,NA,NA,NA,NA,"[""distractor1"",""distractor2"",""distractor3""]",NaN,d,skipped,NA,NA,NA,107183.40000000000,107182.30000000100,NA,107183.20000000100,NA,107190.564,NA,NA
"""Falsch""-Screen",canvas.Screen,1_1_0_0_2,2023-01-08T10:12:38.764Z,NA,NA,Gesundheit,salama,0,NA,NA,NA,"[""distractor1"",""distractor2"",""distractor3""]",4999.800000000000,d,timeout,NA,NA,NA,112179.70000000100,112173.698,107173.898,107183.90000000000,107190.564,112190.364,NA,NA
deep,flow.Sequence,1_1_0_0,2023-01-08T10:12:38.764Z,NA,NA,Gesundheit,salama,NA,NA,NA,NA,"[""distractor1"",""distractor2"",""distractor3""]",17299.864,d,completion,NA,NA,NA,112180.40000000000,112173.698,94857.168,94858.20000000110,94873.834,112190.364,NA,NA
shallow,flow.Sequence,1_1_0_1,2023-01-08T10:12:38.765Z,NA,NA,Gesundheit,salama,NA,NA,NA,NA,"[""distractor1"",""distractor2"",""distractor3""]",NaN,d,skipped,NA,NA,NA,112180.80000000100,112173.698,NA,112180.60000000100,NA,112190.364,NA,NA
task  ,flow.Sequence,1_1_0,2023-01-08T10:12:38.765Z,NA,NA,Gesundheit,salama,NA,NA,NA,NA,"[""distractor1"",""distractor2"",""distractor3""]",17299.864,d,completion,NA,NA,NA,112181,112173.698,94857.168,94858.20000000110,94873.834,112190.364,NA,NA
deep,flow.Sequence,1_1_1_0,2023-01-08T10:12:38.765Z,NA,NA,Kritik,lawama,NA,dereva,nafasi,mawazo,"[""distractor1"",""distractor2"",""distractor3""]",NaN,s,skipped,NA,NA,NA,112181.40000000000,112173.698,NA,112181.30000000100,NA,112190.364,NA,NA
Shallow Question,html.Page,1_1_1_1_0,2023-01-08T10:12:45.396Z,NA,NA,Kritik,lawama,NA,dereva,nafasi,mawazo,"[""distractor1"",""distractor2"",""distractor3""]",6621.436000000740,s,form submission,NA,mawazo,NA,118812.5,118811.80000000100,112173.698,112181.60000000100,112190.364,118824.095,NA,NA
"""Richtig""-Screen",canvas.Screen,1_1_1_1_1,2023-01-08T10:12:45.400Z,NA,NA,Kritik,lawama,NA,dereva,nafasi,mawazo,"[""distractor1"",""distractor2"",""distractor3""]",NaN,s,skipped,NA,NA,NA,118815.60000000100,118811.80000000100,NA,118815.5,NA,118824.095,NA,NA
"""Falsch""-Screen",canvas.Screen,1_1_1_1_2,2023-01-08T10:12:50.392Z,NA,NA,Kritik,lawama,0,dereva,nafasi,mawazo,"[""distractor1"",""distractor2"",""distractor3""]",4999.800000000000,s,timeout,NA,NA,NA,123808.70000000100,123807.229,118807.429,118816.90000000000,118824.095,123823.895,NA,NA
shallow,flow.Sequence,1_1_1_1,2023-01-08T10:12:50.393Z,NA,NA,Kritik,lawama,NA,dereva,nafasi,mawazo,"[""distractor1"",""distractor2"",""distractor3""]",11616.865000000000,s,completion,NA,NA,NA,123809.20000000100,123807.229,112173.698,112181.5,112190.364,123823.895,NA,NA
task  ,flow.Sequence,1_1_1,2023-01-08T10:12:50.393Z,NA,NA,Kritik,lawama,NA,dereva,nafasi,mawazo,"[""distractor1"",""distractor2"",""distractor3""]",11616.865000000000,s,completion,NA,NA,NA,123809.60000000100,123807.229,112173.698,112181.10000000100,112190.364,123823.895,NA,NA
deep,flow.Sequence,1_1_2_0,2023-01-08T10:12:50.394Z,NA,NA,Rückhalt,msaada,NA,muhula,auwali,kiwimbe,"[""distractor1"",""distractor2"",""distractor3""]",NaN,s,skipped,NA,NA,NA,123810.10000000100,123807.229,NA,123809.90000000000,NA,123823.895,NA,NA
Shallow Question,html.Page,1_1_2_1_0,2023-01-08T10:12:55.114Z,NA,NA,Rückhalt,msaada,NA,muhula,auwali,kiwimbe,"[""distractor1"",""distractor2"",""distractor3""]",4705.405000000740,s,form submission,NA,auwali,NA,128529.80000000100,128529.30000000100,123807.229,123810.20000000100,123823.895,128541.022,NA,NA
"""Richtig""-Screen",canvas.Screen,1_1_2_1_1,2023-01-08T10:12:55.116Z,NA,NA,Rückhalt,msaada,NA,muhula,auwali,kiwimbe,"[""distractor1"",""distractor2"",""distractor3""]",NaN,s,skipped,NA,NA,NA,128532.80000000100,128529.30000000100,NA,128532.70000000100,NA,128541.022,NA,NA
"""Falsch""-Screen",canvas.Screen,1_1_2_1_2,2023-01-08T10:13:00.110Z,NA,NA,Rückhalt,msaada,0,muhula,auwali,kiwimbe,"[""distractor1"",""distractor2"",""distractor3""]",4999.799999999990,s,timeout,NA,NA,NA,133526.40000000000,133524.156,128524.356,128533.60000000100,128541.022,133540.822,NA,NA
shallow,flow.Sequence,1_1_2_1,2023-01-08T10:13:00.110Z,NA,NA,Rückhalt,msaada,NA,muhula,auwali,kiwimbe,"[""distractor1"",""distractor2"",""distractor3""]",9700.260999999980,s,completion,NA,NA,NA,133526.80000000100,133524.156,123807.229,123810.20000000100,123823.895,133540.822,NA,NA
task  ,flow.Sequence,1_1_2,2023-01-08T10:13:00.111Z,NA,NA,Rückhalt,msaada,NA,muhula,auwali,kiwimbe,"[""distractor1"",""distractor2"",""distractor3""]",9700.260999999980,s,completion,NA,NA,NA,133527.1000000020,133524.156,123807.229,123809.80000000100,123823.895,133540.822,NA,NA
Deep Question,html.Page,1_1_3_0_0,2023-01-08T10:13:03.328Z,NA,NA,Qualität,mtindo,NA,NA,NA,NA,"[""distractor1"",""distractor2"",""distractor3""]",3203.1780000000100,d,form submission,NA,3,NA,136744.30000000100,136744,133524.156,133527.30000000100,133540.822,136757.957,NA,NA
"""Richtig""-Screen",canvas.Screen,1_1_3_0_1,2023-01-08T10:13:03.331Z,NA,NA,Qualität,mtindo,NA,NA,NA,NA,"[""distractor1"",""distractor2"",""distractor3""]",NaN,d,skipped,NA,NA,NA,136747.6000000020,136744,NA,136747.5,NA,136757.957,NA,NA
"""Falsch""-Screen",canvas.Screen,1_1_3_0_2,2023-01-08T10:13:08.327Z,NA,NA,Qualität,mtindo,0,NA,NA,NA,"[""distractor1"",""distractor2"",""distractor3""]",4999.8000000000200,d,timeout,NA,NA,NA,141743.1000000020,141741.091,136741.291,136748.30000000100,136757.957,141757.757,NA,NA
deep,flow.Sequence,1_1_3_0,2023-01-08T10:13:08.327Z,NA,NA,Qualität,mtindo,NA,NA,NA,NA,"[""distractor1"",""distractor2"",""distractor3""]",8200.269,d,completion,NA,NA,NA,141743.5,141741.091,133524.156,133527.20000000100,133540.822,141757.757,NA,NA
shallow,flow.Sequence,1_1_3_1,2023-01-08T10:13:08.327Z,NA,NA,Qualität,mtindo,NA,NA,NA,NA,"[""distractor1"",""distractor2"",""distractor3""]",NaN,d,skipped,NA,NA,NA,141743.80000000100,141741.091,NA,141743.70000000100,NA,141757.757,NA,NA
task  ,flow.Sequence,1_1_3,2023-01-08T10:13:08.328Z,NA,NA,Qualität,mtindo,NA,NA,NA,NA,"[""distractor1"",""distractor2"",""distractor3""]",8200.269,d,completion,NA,NA,NA,141744,141741.091,133524.156,133527.20000000100,133540.822,141757.757,NA,NA
deep,flow.Sequence,1_1_4_0,2023-01-08T10:13:08.328Z,NA,NA,Gegenwart,hadhara,NA,katiba,jokofu,mikopo,"[""distractor1"",""distractor2"",""distractor3""]",NaN,s,skipped,NA,NA,NA,141744.30000000100,141741.091,NA,141744.20000000100,NA,141757.757,NA,NA
Shallow Question,html.Page,1_1_4_1_0,2023-01-08T10:13:17.915Z,NA,NA,Gegenwart,hadhara,NA,katiba,jokofu,mikopo,"[""distractor1"",""distractor2"",""distractor3""]",9573.742999999990,s,form submission,NA,hadhara,NA,151331.90000000000,151331.5,141741.091,141744.5,141757.757,151341.253,NA,NA
"""Richtig""-Screen",canvas.Screen,1_1_4_1_1,2023-01-08T10:13:22.910Z,NA,NA,Gegenwart,hadhara,1,katiba,jokofu,mikopo,"[""distractor1"",""distractor2"",""distractor3""]",4999.8000000000200,s,timeout,NA,NA,NA,156326.80000000100,156324.387,151324.587,151334.20000000100,151341.253,156341.053,NA,NA
"""Falsch""-Screen",canvas.Screen,1_1_4_1_2,2023-01-08T10:13:22.914Z,NA,NA,Gegenwart,hadhara,NA,katiba,jokofu,mikopo,"[""distractor1"",""distractor2"",""distractor3""]",NaN,s,skipped,NA,NA,NA,156330.80000000100,156324.387,NA,156330.6000000020,NA,156341.053,NA,NA
shallow,flow.Sequence,1_1_4_1,2023-01-08T10:13:22.914Z,NA,NA,Gegenwart,hadhara,NA,katiba,jokofu,mikopo,"[""distractor1"",""distractor2"",""distractor3""]",14566.630000000000,s,completion,NA,NA,NA,156330.90000000000,156324.387,141741.091,141744.40000000000,141757.757,156341.053,NA,NA
task  ,flow.Sequence,1_1_4,2023-01-08T10:13:22.914Z,NA,NA,Gegenwart,hadhara,NA,katiba,jokofu,mikopo,"[""distractor1"",""distractor2"",""distractor3""]",14566.630000000000,s,completion,NA,NA,NA,156331.1000000020,156324.387,141741.091,141744.1000000020,141757.757,156341.053,NA,NA
Deep Question,html.Page,1_1_5_0_0,2023-01-08T10:13:25.828Z,NA,NA,Schatten,kivuli,NA,NA,NA,NA,"[""distractor1"",""distractor2"",""distractor3""]",2903.347000000360,d,form submission,NA,3,NA,159244.70000000100,159244.40000000000,156324.387,156331.20000000100,156341.053,159258.11,NA,NA
"""Richtig""-Screen",canvas.Screen,1_1_5_0_1,2023-01-08T10:13:25.829Z,NA,NA,Schatten,kivuli,NA,NA,NA,NA,"[""distractor1"",""distractor2"",""distractor3""]",NaN,d,skipped,NA,NA,NA,159245.6000000020,159244.40000000000,NA,159245.5,NA,159258.11,NA,NA
"""Falsch""-Screen",canvas.Screen,1_1_5_0_2,2023-01-08T10:13:30.827Z,NA,NA,Schatten,kivuli,0,NA,NA,NA,"[""distractor1"",""distractor2"",""distractor3""]",4999.8000000000200,d,timeout,NA,NA,NA,164243.6000000020,164241.244,159241.444,159246.1000000020,159258.11,164257.91,NA,NA
deep,flow.Sequence,1_1_5_0,2023-01-08T10:13:30.827Z,NA,NA,Schatten,kivuli,NA,NA,NA,NA,"[""distractor1"",""distractor2"",""distractor3""]",7900.190999999990,d,completion,NA,NA,NA,164244,164241.244,156324.387,156331.20000000100,156341.053,164257.91,NA,NA
shallow,flow.Sequence,1_1_5_1,2023-01-08T10:13:30.828Z,NA,NA,Schatten,kivuli,NA,NA,NA,NA,"[""distractor1"",""distractor2"",""distractor3""]",NaN,d,skipped,NA,NA,NA,164244.30000000100,164241.244,NA,164244.20000000100,NA,164257.91,NA,NA
task  ,flow.Sequence,1_1_5,2023-01-08T10:13:30.828Z,NA,NA,Schatten,kivuli,NA,NA,NA,NA,"[""distractor1"",""distractor2"",""distractor3""]",7900.190999999990,d,completion,NA,NA,NA,164244.6000000020,164241.244,156324.387,156331.1000000020,156341.053,164257.91,NA,NA
block,flow.Loop,1_1,2023-01-08T10:13:30.828Z,NA,NA,NA,NA,NA,NA,NA,NA,"[""distractor1"",""distractor2"",""distractor3""]",69367.41,NA,completion,NA,NA,NA,164244.90000000000,164241.244,94857.168,94858.20000000110,94873.834,164257.91,NA,NA
Practice,flow.Sequence,1,2023-01-08T10:13:30.828Z,NA,NA,NA,NA,NA,NA,NA,NA,NA,75254.19200000000,NA,completion,NA,NA,NA,164245.1000000020,164241.244,88970.386,88980.60000000150,88987.052,164257.91,NA,NA
Experiment start,canvas.Screen,2,2023-01-08T10:13:51.471Z,NA,NA,NA,NA,NA,NA,NA,NA,NA,20627.190000001500,NA,response,weiter,NA,keypress(q),184888.40000000000,184885.1000000020,164241.244,164245.20000000100,164257.91,184940.416,NA,NA
deep,flow.Sequence,3_0_0_0_0_0,2023-01-08T10:13:51.532Z,NA,sdf,Kontrolle,kudhibiti,NA,mbinguni,kufunga,utegemezi,NA,NaN,s,skipped,NA,NA,NA,184948.80000000100,184885.1000000020,NA,184948.70000000100,NA,184940.416,NA,0
Shallow Question,html.Page,3_0_0_0_0_1_0,2023-01-08T10:13:58.046Z,NA,NA,Kontrolle,kudhibiti,NA,mbinguni,kufunga,utegemezi,NA,6521.78400000112,s,form submission,NA,utegemezi,NA,191462.70000000100,191462.20000000100,184873.752,184948.80000000100,184940.416,191474.935,NA,0
"""Richtig""-Screen",canvas.Screen,3_0_0_0_0_1_1,2023-01-08T10:13:58.049Z,NA,sdf,Kontrolle,kudhibiti,NA,mbinguni,kufunga,utegemezi,NA,NaN,s,skipped,NA,NA,NA,191465.90000000000,191462.20000000100,NA,191465.80000000100,NA,191474.935,NA,0
"""Falsch""-Screen",canvas.Screen,3_0_0_0_0_1_2,2023-01-08T10:14:03.043Z,NA,sdf,Kontrolle,kudhibiti,0,mbinguni,kufunga,utegemezi,NA,4999.799999999990,s,timeout,NA,NA,NA,196460.6000000020,196458.069,191458.269,191466.6000000020,191474.935,196474.735,NA,0
shallow,flow.Sequence,3_0_0_0_0_1,2023-01-08T10:14:03.044Z,NA,sdf,Kontrolle,kudhibiti,NA,mbinguni,kufunga,utegemezi,NA,11517.653000000000,s,completion,NA,NA,NA,196461,196458.069,184873.752,184948.80000000100,184940.416,196474.735,NA,0
task  ,flow.Sequence,3_0_0_0_0,2023-01-08T10:14:03.044Z,NA,sdf,Kontrolle,kudhibiti,NA,mbinguni,kufunga,utegemezi,NA,11517.653000000000,s,completion,NA,NA,NA,196461.30000000100,196458.069,184873.752,184948.70000000100,184940.416,196474.735,NA,0
deep,flow.Sequence,3_0_0_0_1_0,2023-01-08T10:14:03.044Z,NA,sdf,Betrüger,mdanganyifu,NA,mwanamuziki,wastani,mahakama,NA,NaN,s,skipped,NA,NA,NA,196461.6000000020,196458.069,NA,196461.40000000000,NA,196474.735,NA,0
Shallow Question,html.Page,3_0_0_0_1_1_0,2023-01-08T10:14:09.596Z,NA,NA,Betrüger,mdanganyifu,NA,mwanamuziki,wastani,mahakama,NA,6538.1650000003900,s,form submission,NA,mahakama,NA,203013.40000000000,203012.90000000000,196458.069,196461.70000000100,196474.735,203025.195,NA,0
"""Richtig""-Screen",canvas.Screen,3_0_0_0_1_1_1,2023-01-08T10:14:09.599Z,NA,sdf,Betrüger,mdanganyifu,NA,mwanamuziki,wastani,mahakama,NA,NaN,s,skipped,NA,NA,NA,203016.40000000000,203012.90000000000,NA,203016.20000000100,NA,203025.195,NA,0
"""Falsch""-Screen",canvas.Screen,3_0_0_0_1_1_2,2023-01-08T10:14:14.593Z,NA,sdf,Betrüger,mdanganyifu,0,mwanamuziki,wastani,mahakama,NA,4999.799999999990,s,timeout,NA,NA,NA,208010.70000000100,208008.329,203008.529,203017.5,203025.195,208024.995,NA,0
shallow,flow.Sequence,3_0_0_0_1_1,2023-01-08T10:14:14.594Z,NA,sdf,Betrüger,mdanganyifu,NA,mwanamuziki,wastani,mahakama,NA,11533.594000000000,s,completion,NA,NA,NA,208011.20000000100,208008.329,196458.069,196461.70000000100,196474.735,208024.995,NA,0
task  ,flow.Sequence,3_0_0_0_1,2023-01-08T10:14:14.594Z,NA,sdf,Betrüger,mdanganyifu,NA,mwanamuziki,wastani,mahakama,NA,11533.594000000000,s,completion,NA,NA,NA,208011.5,208008.329,196458.069,196461.40000000000,196474.735,208024.995,NA,0
Deep Question,html.Page,3_0_0_0_2_0_0,2023-01-08T10:14:18.345Z,NA,NA,Kreativität,ubunifu,NA,NA,NA,NA,NA,3737.105000001500,d,form submission,NA,3,NA,211762.40000000000,211762.1000000020,208008.329,208011.70000000100,208024.995,211775.363,NA,0
"""Richtig""-Screen",canvas.Screen,3_0_0_0_2_0_1,2023-01-08T10:14:18.348Z,NA,sdf,Kreativität,ubunifu,NA,NA,NA,NA,NA,NaN,d,skipped,NA,NA,NA,211765.30000000100,211762.1000000020,NA,211765.1000000020,NA,211775.363,NA,0
"""Falsch""-Screen",canvas.Screen,3_0_0_0_2_0_2,2023-01-08T10:14:23.343Z,NA,sdf,Kreativität,ubunifu,0,NA,NA,NA,NA,4999.799999999990,d,timeout,NA,NA,NA,216760.80000000100,216758.497,211758.697,211765.70000000100,211775.363,216775.163,NA,0
deep,flow.Sequence,3_0_0_0_2_0,2023-01-08T10:14:23.344Z,NA,sdf,Kreativität,ubunifu,NA,NA,NA,NA,NA,8733.502000000010,d,completion,NA,NA,NA,216761.20000000100,216758.497,208008.329,208011.70000000100,208024.995,216775.163,NA,0
shallow,flow.Sequence,3_0_0_0_2_1,2023-01-08T10:14:23.344Z,NA,sdf,Kreativität,ubunifu,NA,NA,NA,NA,NA,NaN,d,skipped,NA,NA,NA,216761.6000000020,216758.497,NA,216761.40000000000,NA,216775.163,NA,0
task  ,flow.Sequence,3_0_0_0_2,2023-01-08T10:14:23.344Z,NA,sdf,Kreativität,ubunifu,NA,NA,NA,NA,NA,8733.502000000010,d,completion,NA,NA,NA,216761.70000000100,216758.497,208008.329,208011.5,208024.995,216775.163,NA,0
deep,flow.Sequence,3_0_0_0_3_0,2023-01-08T10:14:23.345Z,NA,sdf,Gefährdung,kuhatarisha,NA,uchokozi,udhaifu,makorowezo,NA,NaN,s,skipped,NA,NA,NA,216762,216758.497,NA,216762,NA,216775.163,NA,0
Shallow Question,html.Page,3_0_0_0_3_1_0,2023-01-08T10:14:30.079Z,NA,NA,Gefährdung,kuhatarisha,NA,uchokozi,udhaifu,makorowezo,NA,6721.237000000370,s,form submission,NA,uchokozi,NA,223496.90000000000,223496.40000000000,216758.497,216762.20000000100,216775.163,223508.855,NA,0
"""Richtig""-Screen",canvas.Screen,3_0_0_0_3_1_1,2023-01-08T10:14:30.082Z,NA,sdf,Gefährdung,kuhatarisha,NA,uchokozi,udhaifu,makorowezo,NA,NaN,s,skipped,NA,NA,NA,223500,223496.40000000000,NA,223499.80000000100,NA,223508.855,NA,0
"""Falsch""-Screen",canvas.Screen,3_0_0_0_3_1_2,2023-01-08T10:14:35.077Z,NA,sdf,Gefährdung,kuhatarisha,0,uchokozi,udhaifu,makorowezo,NA,4999.799999999990,s,timeout,NA,NA,NA,228494.40000000000,228491.989,223492.189,223501.1000000020,223508.855,228508.655,NA,0
shallow,flow.Sequence,3_0_0_0_3_1,2023-01-08T10:14:35.077Z,NA,sdf,Gefährdung,kuhatarisha,NA,uchokozi,udhaifu,makorowezo,NA,11716.826000000000,s,completion,NA,NA,NA,228494.90000000000,228491.989,216758.497,216762.20000000100,216775.163,228508.655,NA,0
task  ,flow.Sequence,3_0_0_0_3,2023-01-08T10:14:35.078Z,NA,sdf,Gefährdung,kuhatarisha,NA,uchokozi,udhaifu,makorowezo,NA,11716.826000000000,s,completion,NA,NA,NA,228495.1000000020,228491.989,216758.497,216761.90000000000,216775.163,228508.655,NA,0
Deep Question,html.Page,3_0_0_0_4_0_0,2023-01-08T10:14:38.394Z,NA,NA,Respekt,heshima,NA,NA,NA,NA,NA,3302.9450000014900,d,form submission,NA,3,NA,231811.80000000100,231811.6000000020,228491.989,228495.40000000000,228508.655,231825.626,NA,0
"""Richtig""-Screen",canvas.Screen,3_0_0_0_4_0_1,2023-01-08T10:14:38.397Z,NA,sdf,Respekt,heshima,NA,NA,NA,NA,NA,NaN,d,skipped,NA,NA,NA,231814.80000000100,231811.6000000020,NA,231814.70000000100,NA,231825.626,NA,0
"""Falsch""-Screen",canvas.Screen,3_0_0_0_4_0_2,2023-01-08T10:14:43.392Z,NA,sdf,Respekt,heshima,0,NA,NA,NA,NA,4999.8000000000200,d,timeout,NA,NA,NA,236810.1000000020,236808.76,231808.96,231815.40000000000,231825.626,236825.426,NA,0
deep,flow.Sequence,3_0_0_0_4_0,2023-01-08T10:14:43.393Z,NA,sdf,Respekt,heshima,NA,NA,NA,NA,NA,8300.10500000001,d,completion,NA,NA,NA,236810.5,236808.76,228491.989,228495.30000000100,228508.655,236825.426,NA,0
shallow,flow.Sequence,3_0_0_0_4_1,2023-01-08T10:14:43.393Z,NA,sdf,Respekt,heshima,NA,NA,NA,NA,NA,NaN,d,skipped,NA,NA,NA,236810.80000000100,236808.76,NA,236810.6000000020,NA,236825.426,NA,0
task  ,flow.Sequence,3_0_0_0_4,2023-01-08T10:14:43.393Z,NA,sdf,Respekt,heshima,NA,NA,NA,NA,NA,8300.10500000001,d,completion,NA,NA,NA,236811,236808.76,228491.989,228495.30000000100,228508.655,236825.426,NA,0
Deep Question,html.Page,3_0_0_0_5_0_0,2023-01-08T10:14:46.927Z,NA,NA,Orientierung,urekebisho,NA,NA,NA,NA,NA,3519.474000000370,d,form submission,NA,4,NA,240345.1000000020,240344.90000000000,236808.76,236811.20000000100,236825.426,240359.272,NA,0
"""Richtig""-Screen",canvas.Screen,3_0_0_0_5_0_1,2023-01-08T10:14:46.930Z,NA,sdf,Orientierung,urekebisho,NA,NA,NA,NA,NA,NaN,d,skipped,NA,NA,NA,240347.80000000100,240344.90000000000,NA,240347.80000000100,NA,240359.272,NA,0
"""Falsch""-Screen",canvas.Screen,3_0_0_0_5_0_2,2023-01-08T10:14:51.927Z,NA,sdf,Orientierung,urekebisho,0,NA,NA,NA,NA,4999.799999999990,d,timeout,NA,NA,NA,245344.70000000100,245342.406,240342.606,240348.40000000000,240359.272,245359.072,NA,0
deep,flow.Sequence,3_0_0_0_5_0,2023-01-08T10:14:51.927Z,NA,sdf,Orientierung,urekebisho,NA,NA,NA,NA,NA,8516.979999999980,d,completion,NA,NA,NA,245345.20000000100,245342.406,236808.76,236811.1000000020,236825.426,245359.072,NA,0
shallow,flow.Sequence,3_0_0_0_5_1,2023-01-08T10:14:51.928Z,NA,sdf,Orientierung,urekebisho,NA,NA,NA,NA,NA,NaN,d,skipped,NA,NA,NA,245345.6000000020,245342.406,NA,245345.40000000000,NA,245359.072,NA,0
task  ,flow.Sequence,3_0_0_0_5,2023-01-08T10:14:51.928Z,NA,sdf,Orientierung,urekebisho,NA,NA,NA,NA,NA,8516.979999999980,d,completion,NA,NA,NA,245345.70000000100,245342.406,236808.76,236811,236825.426,245359.072,NA,0
deep,flow.Sequence,3_0_0_0_6_0,2023-01-08T10:14:51.928Z,NA,sdf,Stimmung,kinyongo,NA,kilekile,kisambo,madhehebu,NA,NaN,s,skipped,NA,NA,NA,245346.1000000020,245342.406,NA,245346,NA,245359.072,NA,0
Shallow Question,html.Page,3_0_0_0_6_1_0,2023-01-08T10:14:56.446Z,NA,NA,Stimmung,kinyongo,NA,kilekile,kisambo,madhehebu,NA,4504.328000000390,s,form submission,NA,madhehebu,NA,249864.1000000020,249863.40000000000,245342.406,245346.20000000100,245359.072,249876.11,NA,0
"""Richtig""-Screen",canvas.Screen,3_0_0_0_6_1_1,2023-01-08T10:14:56.450Z,NA,sdf,Stimmung,kinyongo,NA,kilekile,kisambo,madhehebu,NA,NaN,s,skipped,NA,NA,NA,249867.5,249863.40000000000,NA,249867.40000000000,NA,249876.11,NA,0
"""Falsch""-Screen",canvas.Screen,3_0_0_0_6_1_2,2023-01-08T10:15:01.443Z,NA,sdf,Stimmung,kinyongo,0,kilekile,kisambo,madhehebu,NA,4999.8000000000200,s,timeout,NA,NA,NA,254861.30000000100,254859.244,249859.444,249868.20000000100,249876.11,254875.91,NA,0
shallow,flow.Sequence,3_0_0_0_6_1,2023-01-08T10:15:01.444Z,NA,sdf,Stimmung,kinyongo,NA,kilekile,kisambo,madhehebu,NA,9500.17200000002,s,completion,NA,NA,NA,254861.70000000100,254859.244,245342.406,245346.20000000100,245359.072,254875.91,NA,0
task  ,flow.Sequence,3_0_0_0_6,2023-01-08T10:15:01.444Z,NA,sdf,Stimmung,kinyongo,NA,kilekile,kisambo,madhehebu,NA,9500.17200000002,s,completion,NA,NA,NA,254861.90000000000,254859.244,245342.406,245345.90000000000,245359.072,254875.91,NA,0
Deep Question,html.Page,3_0_0_0_7_0_0,2023-01-08T10:15:05.979Z,NA,NA,Können,unaweza,NA,NA,NA,NA,NA,4520.390000000740,d,form submission,NA,2,NA,259396.70000000100,259396.30000000100,254859.244,254862.1000000020,254875.91,259409.062,NA,0
"""Richtig""-Screen",canvas.Screen,3_0_0_0_7_0_1,2023-01-08T10:15:05.981Z,NA,sdf,Können,unaweza,NA,NA,NA,NA,NA,NaN,d,skipped,NA,NA,NA,259399.20000000100,259396.30000000100,NA,259399,NA,259409.062,NA,0
"""Falsch""-Screen",canvas.Screen,3_0_0_0_7_0_2,2023-01-08T10:15:10.976Z,NA,sdf,Können,unaweza,0,NA,NA,NA,NA,4999.8000000000200,d,timeout,NA,NA,NA,264394.2000000010,264392.196,259392.396,259400,259409.062,264408.862,NA,0
deep,flow.Sequence,3_0_0_0_7_0,2023-01-08T10:15:10.977Z,NA,sdf,Können,unaweza,NA,NA,NA,NA,NA,9516.285999999990,d,completion,NA,NA,NA,264394.80000000100,264392.196,254859.244,254862.1000000020,254875.91,264408.862,NA,0
shallow,flow.Sequence,3_0_0_0_7_1,2023-01-08T10:15:10.977Z,NA,sdf,Können,unaweza,NA,NA,NA,NA,NA,NaN,d,skipped,NA,NA,NA,264395.1000000020,264392.196,NA,264395,NA,264408.862,NA,0
task  ,flow.Sequence,3_0_0_0_7,2023-01-08T10:15:10.977Z,NA,sdf,Können,unaweza,NA,NA,NA,NA,NA,9516.285999999990,d,completion,NA,NA,NA,264395.30000000100,264392.196,254859.244,254862,254875.91,264408.862,NA,0
block,flow.Loop,3_0_0_0,2023-01-08T10:15:10.977Z,NA,sdf,NA,NA,NA,NA,NA,NA,NA,79451.78,NA,completion,NA,NA,NA,264395.5,264392.196,184873.752,184948.70000000100,184940.416,264408.862,NA,0
weiter,canvas.Screen,3_0_0_1,2023-01-08T10:15:12.734Z,NA,sdf,NA,NA,NA,NA,NA,NA,NA,1740.5380000003500,NA,response,sdf,NA,keypress(Space),266152.6000000020,266149.4000000000,264392.196,264395.6000000020,264408.862,266176.118,NA,0
check continue,flow.Sequence,3_0_0,2023-01-08T10:15:12.735Z,NA,sdf,NA,NA,NA,NA,NA,NA,NA,81208.98400000040,NA,completion,NA,NA,NA,266153,266149.4000000000,184873.752,184948.70000000100,184940.416,266176.118,NA,0
Deep Question,html.Page,3_0_1_0_0_0_0,2023-01-08T10:15:22.485Z,NA,NA,Orientierung,urekebisho,NA,NA,NA,NA,NA,9726.881999999980,d,form submission,NA,uhubishwo,NA,275903.6000000020,275903,266142.786,266181.4000000000,266176.118,275909.61,NA,1
"""Richtig""-Screen",canvas.Screen,3_0_1_0_0_0_1,2023-01-08T10:15:22.489Z,NA,sdfdsf,Orientierung,urekebisho,NA,NA,NA,NA,NA,NaN,d,skipped,NA,NA,NA,275907.5,275903,NA,275907.2000000010,NA,275909.61,NA,1
"""Falsch""-Screen",canvas.Screen,3_0_1_0_0_0_2,2023-01-08T10:15:27.477Z,NA,sdfdsf,Orientierung,urekebisho,0,NA,NA,NA,NA,4999.799999999990,d,timeout,NA,NA,NA,280895.1000000020,280892.744,275892.944,275908.6000000020,275909.61,280909.41,NA,1
deep,flow.Sequence,3_0_1_0_0_0,2023-01-08T10:15:27.477Z,NA,sdfdsf,Orientierung,urekebisho,NA,NA,NA,NA,NA,14716.62600000000,d,completion,NA,NA,NA,280895.5,280892.744,266142.786,266181.4000000000,266176.118,280909.41,NA,1
shallow,flow.Sequence,3_0_1_0_0_1,2023-01-08T10:15:27.478Z,NA,sdfdsf,Orientierung,urekebisho,NA,NA,NA,NA,NA,NaN,d,skipped,NA,NA,NA,280895.9000000000,280892.744,NA,280895.7000000010,NA,280909.41,NA,1
task  ,flow.Sequence,3_0_1_0_0,2023-01-08T10:15:27.478Z,NA,sdfdsf,Orientierung,urekebisho,NA,NA,NA,NA,NA,14716.62600000000,d,completion,NA,NA,NA,280896.1000000020,280892.744,266142.786,266181.4000000000,266176.118,280909.41,NA,1
Deep Question,html.Page,3_0_1_0_1_0_0,2023-01-08T10:15:35.061Z,NA,NA,Respekt,heshima,NA,NA,NA,NA,NA,7569.690000001520,d,form submission,NA,da,NA,288479.4000000000,288479.1000000020,280892.744,280896.30000000100,280909.41,288493.096,NA,1
"""Richtig""-Screen",canvas.Screen,3_0_1_0_1_0_1,2023-01-08T10:15:35.064Z,NA,sdfdsf,Respekt,heshima,NA,NA,NA,NA,NA,NaN,d,skipped,NA,NA,NA,288482.6000000020,288479.1000000020,NA,288482.5,NA,288493.096,NA,1
"""Falsch""-Screen",canvas.Screen,3_0_1_0_1_0_2,2023-01-08T10:15:40.060Z,NA,sdfdsf,Respekt,heshima,0,NA,NA,NA,NA,4999.799999999990,d,timeout,NA,NA,NA,293478.2000000010,293476.23,288476.43,288483.1000000020,288493.096,293492.896,NA,1
deep,flow.Sequence,3_0_1_0_1_0,2023-01-08T10:15:40.060Z,NA,sdfdsf,Respekt,heshima,NA,NA,NA,NA,NA,12566.820000000000,d,completion,NA,NA,NA,293478.6000000020,293476.23,280892.744,280896.2000000010,280909.41,293492.896,NA,1
shallow,flow.Sequence,3_0_1_0_1_1,2023-01-08T10:15:40.060Z,NA,sdfdsf,Respekt,heshima,NA,NA,NA,NA,NA,NaN,d,skipped,NA,NA,NA,293479,293476.23,NA,293478.80000000100,NA,293492.896,NA,1
task  ,flow.Sequence,3_0_1_0_1,2023-01-08T10:15:40.061Z,NA,sdfdsf,Respekt,heshima,NA,NA,NA,NA,NA,12566.820000000000,d,completion,NA,NA,NA,293479.1000000020,293476.23,280892.744,280896.2000000010,280909.41,293492.896,NA,1
Deep Question,html.Page,3_0_1_0_2_0_0,2023-01-08T10:15:51.676Z,NA,NA,Können,unaweza,NA,NA,NA,NA,NA,11602.004000000400,d,form submission,NA,saa,NA,305095,305094.9000000000,293476.23,293479.30000000100,293492.896,305109.5,NA,1
"""Richtig""-Screen",canvas.Screen,3_0_1_0_2_0_1,2023-01-08T10:15:51.677Z,NA,sdfdsf,Können,unaweza,NA,NA,NA,NA,NA,NaN,d,skipped,NA,NA,NA,305096,305094.9000000000,NA,305096,NA,305109.5,NA,1
"""Falsch""-Screen",canvas.Screen,3_0_1_0_2_0_2,2023-01-08T10:15:56.676Z,NA,sdfdsf,Können,unaweza,0,NA,NA,NA,NA,4999.799999999990,d,timeout,NA,NA,NA,310094.9000000000,310092.634,305092.834,305096.2000000010,305109.5,310109.3,NA,1
deep,flow.Sequence,3_0_1_0_2_0,2023-01-08T10:15:56.677Z,NA,sdfdsf,Können,unaweza,NA,NA,NA,NA,NA,16599.738000000000,d,completion,NA,NA,NA,310095.4000000000,310092.634,293476.23,293479.30000000100,293492.896,310109.3,NA,1
shallow,flow.Sequence,3_0_1_0_2_1,2023-01-08T10:15:56.677Z,NA,sdfdsf,Können,unaweza,NA,NA,NA,NA,NA,NaN,d,skipped,NA,NA,NA,310095.7000000010,310092.634,NA,310095.5,NA,310109.3,NA,1
task  ,flow.Sequence,3_0_1_0_2,2023-01-08T10:15:56.677Z,NA,sdfdsf,Können,unaweza,NA,NA,NA,NA,NA,16599.738000000000,d,completion,NA,NA,NA,310095.9000000000,310092.634,293476.23,293479.2000000010,293492.896,310109.3,NA,1
deep,flow.Sequence,3_0_1_0_3_0,2023-01-08T10:15:56.677Z,NA,sdfdsf,Kontrolle,kudhibiti,NA,mbinguni,kufunga,utegemezi,NA,NaN,s,skipped,NA,NA,NA,310096.2000000010,310092.634,NA,310096.1000000020,NA,310109.3,NA,1
Shallow Question,html.Page,3_0_1_0_3_1_0,2023-01-08T10:16:05.112Z,NA,NA,Kontrolle,kudhibiti,NA,mbinguni,kufunga,utegemezi,NA,8421.40000000113,s,form submission,NA,utegemezi,NA,318531.2000000010,318530.7000000010,310092.634,310096.30000000100,310109.3,318543.042,NA,1
"""Richtig""-Screen",canvas.Screen,3_0_1_0_3_1_1,2023-01-08T10:16:05.116Z,NA,sdfdsf,Kontrolle,kudhibiti,NA,mbinguni,kufunga,utegemezi,NA,NaN,s,skipped,NA,NA,NA,318534.9000000000,318530.7000000010,NA,318534.6000000020,NA,318543.042,NA,1
"""Falsch""-Screen",canvas.Screen,3_0_1_0_3_1_2,2023-01-08T10:16:10.110Z,NA,sdfdsf,Kontrolle,kudhibiti,0,mbinguni,kufunga,utegemezi,NA,4999.799999999990,s,timeout,NA,NA,NA,323528.4000000000,323526.176,318526.376,318536,318543.042,323542.842,NA,1
shallow,flow.Sequence,3_0_1_0_3_1,2023-01-08T10:16:10.110Z,NA,sdfdsf,Kontrolle,kudhibiti,NA,mbinguni,kufunga,utegemezi,NA,13416.87600000000,s,completion,NA,NA,NA,323528.9000000000,323526.176,310092.634,310096.2000000010,310109.3,323542.842,NA,1
task  ,flow.Sequence,3_0_1_0_3,2023-01-08T10:16:10.110Z,NA,sdfdsf,Kontrolle,kudhibiti,NA,mbinguni,kufunga,utegemezi,NA,13416.87600000000,s,completion,NA,NA,NA,323529,323526.176,310092.634,310096,310109.3,323542.842,NA,1
deep,flow.Sequence,3_0_1_0_4_0,2023-01-08T10:16:10.111Z,NA,sdfdsf,Betrüger,mdanganyifu,NA,mwanamuziki,wastani,mahakama,NA,NaN,s,skipped,NA,NA,NA,323529.4000000000,323526.176,NA,323529.2000000010,NA,323542.842,NA,1
Shallow Question,html.Page,3_0_1_0_4_1_0,2023-01-08T10:16:14.546Z,NA,NA,Betrüger,mdanganyifu,NA,mwanamuziki,wastani,mahakama,NA,4421.758000001490,s,form submission,NA,mahakama,NA,327965.1000000020,327964.6000000020,323526.176,323529.6000000020,323542.842,327976.718,NA,1
"""Richtig""-Screen",canvas.Screen,3_0_1_0_4_1_1,2023-01-08T10:16:14.549Z,NA,sdfdsf,Betrüger,mdanganyifu,NA,mwanamuziki,wastani,mahakama,NA,NaN,s,skipped,NA,NA,NA,327967.7000000010,327964.6000000020,NA,327967.6000000020,NA,327976.718,NA,1
"""Falsch""-Screen",canvas.Screen,3_0_1_0_4_1_2,2023-01-08T10:16:19.543Z,NA,sdfdsf,Betrüger,mdanganyifu,0,mwanamuziki,wastani,mahakama,NA,4999.799999999990,s,timeout,NA,NA,NA,332961.80000000100,332959.852,327960.052,327968.30000000100,327976.718,332976.518,NA,1
shallow,flow.Sequence,3_0_1_0_4_1,2023-01-08T10:16:19.543Z,NA,sdfdsf,Betrüger,mdanganyifu,NA,mwanamuziki,wastani,mahakama,NA,9417.01000000001,s,completion,NA,NA,NA,332962.4000000000,332959.852,323526.176,323529.5,323542.842,332976.518,NA,1
task  ,flow.Sequence,3_0_1_0_4,2023-01-08T10:16:19.544Z,NA,sdfdsf,Betrüger,mdanganyifu,NA,mwanamuziki,wastani,mahakama,NA,9417.01000000001,s,completion,NA,NA,NA,332962.6000000020,332959.852,323526.176,323529.2000000010,323542.842,332976.518,NA,1
deep,flow.Sequence,3_0_1_0_5_0,2023-01-08T10:16:19.544Z,NA,sdfdsf,Stimmung,kinyongo,NA,kilekile,kisambo,madhehebu,NA,NaN,s,skipped,NA,NA,NA,332962.9000000000,332959.852,NA,332962.80000000100,NA,332976.518,NA,1
Shallow Question,html.Page,3_0_1_0_5_1_0,2023-01-08T10:16:23.863Z,NA,NA,Stimmung,kinyongo,NA,kilekile,kisambo,madhehebu,NA,4304.982000000020,s,form submission,NA,kinyongo,NA,337282.2000000010,337281.5,332959.852,332963.1000000020,332976.518,337293.472,NA,1
"""Richtig""-Screen",canvas.Screen,3_0_1_0_5_1_1,2023-01-08T10:16:28.859Z,NA,sdfdsf,Stimmung,kinyongo,1,kilekile,kisambo,madhehebu,NA,4999.799999999990,s,timeout,NA,NA,NA,342278.4000000000,342276.606,337276.806,337285.30000000100,337293.472,342293.272,NA,1
"""Falsch""-Screen",canvas.Screen,3_0_1_0_5_1_2,2023-01-08T10:16:28.863Z,NA,sdfdsf,Stimmung,kinyongo,NA,kilekile,kisambo,madhehebu,NA,NaN,s,skipped,NA,NA,NA,342282.1000000020,342276.606,NA,342282,NA,342293.272,NA,1
shallow,flow.Sequence,3_0_1_0_5_1,2023-01-08T10:16:28.863Z,NA,sdfdsf,Stimmung,kinyongo,NA,kilekile,kisambo,madhehebu,NA,9300.088000000050,s,completion,NA,NA,NA,342282.30000000100,342276.606,332959.852,332963,332976.518,342293.272,NA,1
task  ,flow.Sequence,3_0_1_0_5,2023-01-08T10:16:28.863Z,NA,sdfdsf,Stimmung,kinyongo,NA,kilekile,kisambo,madhehebu,NA,9300.088000000050,s,completion,NA,NA,NA,342282.30000000100,342276.606,332959.852,332962.7000000010,332976.518,342293.272,NA,1
deep,flow.Sequence,3_0_1_0_6_0,2023-01-08T10:16:28.863Z,NA,sdfdsf,Gefährdung,kuhatarisha,NA,uchokozi,udhaifu,makorowezo,NA,NaN,s,skipped,NA,NA,NA,342282.5,342276.606,NA,342282.5,NA,342293.272,NA,1
Shallow Question,html.Page,3_0_1_0_6_1_0,2023-01-08T10:16:34.930Z,NA,NA,Gefährdung,kuhatarisha,NA,uchokozi,udhaifu,makorowezo,NA,6055.328000001490,s,form submission,NA,kuhatarisha,NA,348349.1000000020,348348.6000000020,342276.606,342282.6000000020,342293.272,348360.203,NA,1
"""Richtig""-Screen",canvas.Screen,3_0_1_0_6_1_1,2023-01-08T10:16:39.925Z,NA,sdfdsf,Gefährdung,kuhatarisha,1,uchokozi,udhaifu,makorowezo,NA,4999.800000000050,s,timeout,NA,NA,NA,353344.7000000010,353343.337,348343.537,348351.7000000010,348360.203,353360.003,NA,1
"""Falsch""-Screen",canvas.Screen,3_0_1_0_6_1_2,2023-01-08T10:16:39.930Z,NA,sdfdsf,Gefährdung,kuhatarisha,NA,uchokozi,udhaifu,makorowezo,NA,NaN,s,skipped,NA,NA,NA,353348.80000000100,353343.337,NA,353348.6000000020,NA,353360.003,NA,1
shallow,flow.Sequence,3_0_1_0_6_1,2023-01-08T10:16:39.930Z,NA,sdfdsf,Gefährdung,kuhatarisha,NA,uchokozi,udhaifu,makorowezo,NA,11050.065000000000,s,completion,NA,NA,NA,353349,353343.337,342276.606,342282.6000000020,342293.272,353360.003,NA,1
task  ,flow.Sequence,3_0_1_0_6,2023-01-08T10:16:39.930Z,NA,sdfdsf,Gefährdung,kuhatarisha,NA,uchokozi,udhaifu,makorowezo,NA,11050.065000000000,s,completion,NA,NA,NA,353349,353343.337,342276.606,342282.4000000000,342293.272,353360.003,NA,1
Deep Question,html.Page,3_0_1_0_7_0_0,2023-01-08T10:16:49.060Z,NA,NA,Kreativität,ubunifu,NA,NA,NA,NA,NA,9118.996999999970,d,form submission,NA,unaweso,NA,362479.1000000020,362479,353343.337,353349.1000000020,353360.003,362493.524,NA,1
"""Richtig""-Screen",canvas.Screen,3_0_1_0_7_0_1,2023-01-08T10:16:49.061Z,NA,sdfdsf,Kreativität,ubunifu,NA,NA,NA,NA,NA,NaN,d,skipped,NA,NA,NA,362480.1000000020,362479,NA,362480.1000000020,NA,362493.524,NA,1
"""Falsch""-Screen",canvas.Screen,3_0_1_0_7_0_2,2023-01-08T10:16:54.059Z,NA,sdfdsf,Kreativität,ubunifu,0,NA,NA,NA,NA,4999.800000000050,d,timeout,NA,NA,NA,367478.4000000000,367476.658,362476.858,362480.4000000000,362493.524,367493.324,NA,1
deep,flow.Sequence,3_0_1_0_7_0,2023-01-08T10:16:54.059Z,NA,sdfdsf,Kreativität,ubunifu,NA,NA,NA,NA,NA,14116.65500000000,d,completion,NA,NA,NA,367478.80000000100,367476.658,353343.337,353349.1000000020,353360.003,367493.324,NA,1
shallow,flow.Sequence,3_0_1_0_7_1,2023-01-08T10:16:54.060Z,NA,sdfdsf,Kreativität,ubunifu,NA,NA,NA,NA,NA,NaN,d,skipped,NA,NA,NA,367479,367476.658,NA,367479,NA,367493.324,NA,1
task  ,flow.Sequence,3_0_1_0_7,2023-01-08T10:16:54.060Z,NA,sdfdsf,Kreativität,ubunifu,NA,NA,NA,NA,NA,14116.65500000000,d,completion,NA,NA,NA,367479.1000000020,367476.658,353343.337,353349.1000000020,353360.003,367493.324,NA,1
block,flow.Loop,3_0_1_0,2023-01-08T10:16:54.060Z,NA,sdfdsf,NA,NA,NA,NA,NA,NA,NA,101300.54000000000,NA,completion,NA,NA,NA,367479.30000000100,367476.658,266142.786,266181.4000000000,266176.118,367493.324,NA,1
weiter,canvas.Screen,3_0_1_1,2023-01-08T10:16:55.379Z,NA,sdfdsf,NA,NA,NA,NA,NA,NA,NA,1301.8760000011000,NA,response,sdf,NA,keypress(Space),368798.30000000100,368795.2000000010,367476.658,367479.30000000100,367493.324,368827.368,NA,1
check continue,flow.Sequence,3_0_1,2023-01-08T10:16:55.379Z,NA,sdfdsf,NA,NA,NA,NA,NA,NA,NA,102619.0820000010,NA,completion,NA,NA,NA,368798.9000000000,368795.2000000010,266142.786,266181.30000000100,266176.118,368827.368,NA,1
deep,flow.Sequence,3_0_2_0_0_0,2023-01-08T10:16:55.407Z,NA,sdf,Betrüger,mdanganyifu,NA,mwanamuziki,wastani,mahakama,NA,NaN,s,skipped,NA,NA,NA,368827,368795.2000000010,NA,368826.80000000100,NA,368827.368,NA,2
Shallow Question,html.Page,3_0_2_0_0_1_0,2023-01-08T10:17:00.280Z,NA,NA,Betrüger,mdanganyifu,NA,mwanamuziki,wastani,mahakama,NA,4871.432000000730,s,form submission,NA,mdanganyifu,NA,373699.4000000000,373698.80000000100,368794.036,368827,368827.368,373710.506,NA,2
"""Richtig""-Screen",canvas.Screen,3_0_2_0_0_1_1,2023-01-08T10:17:05.276Z,NA,sdf,Betrüger,mdanganyifu,1,mwanamuziki,wastani,mahakama,NA,4999.799999999990,s,timeout,NA,NA,NA,378695.4000000000,378693.64,373693.84,373702.5,373710.506,378710.306,NA,2
"""Falsch""-Screen",canvas.Screen,3_0_2_0_0_1_2,2023-01-08T10:17:05.280Z,NA,sdf,Betrüger,mdanganyifu,NA,mwanamuziki,wastani,mahakama,NA,NaN,s,skipped,NA,NA,NA,378699.1000000020,378693.64,NA,378699,NA,378710.306,NA,2
shallow,flow.Sequence,3_0_2_0_0_1,2023-01-08T10:17:05.280Z,NA,sdf,Betrüger,mdanganyifu,NA,mwanamuziki,wastani,mahakama,NA,9866.272000000000,s,completion,NA,NA,NA,378699.30000000100,378693.64,368794.036,368827,368827.368,378710.306,NA,2
task  ,flow.Sequence,3_0_2_0_0,2023-01-08T10:17:05.280Z,NA,sdf,Betrüger,mdanganyifu,NA,mwanamuziki,wastani,mahakama,NA,9866.272000000000,s,completion,NA,NA,NA,378699.4000000000,378693.64,368794.036,368826.80000000100,368827.368,378710.306,NA,2
deep,flow.Sequence,3_0_2_0_1_0,2023-01-08T10:17:05.280Z,NA,sdf,Gefährdung,kuhatarisha,NA,uchokozi,udhaifu,makorowezo,NA,NaN,s,skipped,NA,NA,NA,378699.6000000020,378693.64,NA,378699.5,NA,378710.306,NA,2
Shallow Question,html.Page,3_0_2_0_1_1_0,2023-01-08T10:17:12.462Z,NA,NA,Gefährdung,kuhatarisha,NA,uchokozi,udhaifu,makorowezo,NA,7170.894000001140,s,form submission,NA,udhaifu,NA,385881.7000000010,385881.2000000010,378693.64,378699.6000000020,378710.306,385893.909,NA,2
"""Richtig""-Screen",canvas.Screen,3_0_2_0_1_1_1,2023-01-08T10:17:12.465Z,NA,sdf,Gefährdung,kuhatarisha,NA,uchokozi,udhaifu,makorowezo,NA,NaN,s,skipped,NA,NA,NA,385885,385881.2000000010,NA,385884.80000000100,NA,385893.909,NA,2
"""Falsch""-Screen",canvas.Screen,3_0_2_0_1_1_2,2023-01-08T10:17:17.460Z,NA,sdf,Gefährdung,kuhatarisha,0,uchokozi,udhaifu,makorowezo,NA,4999.799999999990,s,timeout,NA,NA,NA,390879.80000000100,390877.043,385877.243,385885.6000000020,385893.909,390893.709,NA,2
shallow,flow.Sequence,3_0_2_0_1_1,2023-01-08T10:17:17.461Z,NA,sdf,Gefährdung,kuhatarisha,NA,uchokozi,udhaifu,makorowezo,NA,12166.737000000000,s,completion,NA,NA,NA,390880.30000000100,390877.043,378693.64,378699.6000000020,378710.306,390893.709,NA,2
task  ,flow.Sequence,3_0_2_0_1,2023-01-08T10:17:17.461Z,NA,sdf,Gefährdung,kuhatarisha,NA,uchokozi,udhaifu,makorowezo,NA,12166.737000000000,s,completion,NA,NA,NA,390880.5,390877.043,378693.64,378699.5,378710.306,390893.709,NA,2
Deep Question,html.Page,3_0_2_0_2_0_0,2023-01-08T10:17:21.795Z,NA,NA,Respekt,heshima,NA,NA,NA,NA,NA,4320.7910000000300,d,form submission,NA,3,NA,395214.7000000010,395214.5,390877.043,390880.80000000100,390893.709,395227.527,NA,2
"""Richtig""-Screen",canvas.Screen,3_0_2_0_2_0_1,2023-01-08T10:17:21.798Z,NA,sdf,Respekt,heshima,NA,NA,NA,NA,NA,NaN,d,skipped,NA,NA,NA,395217.80000000100,395214.5,NA,395217.7000000010,NA,395227.527,NA,2
"""Falsch""-Screen",canvas.Screen,3_0_2_0_2_0_2,2023-01-08T10:17:26.792Z,NA,sdf,Respekt,heshima,0,NA,NA,NA,NA,4999.799999999990,d,timeout,NA,NA,NA,400211.80000000100,400210.661,395210.861,395218.30000000100,395227.527,400227.327,NA,2
deep,flow.Sequence,3_0_2_0_2_0,2023-01-08T10:17:26.792Z,NA,sdf,Respekt,heshima,NA,NA,NA,NA,NA,9316.952000000050,d,completion,NA,NA,NA,400212.30000000100,400210.661,390877.043,390880.80000000100,390893.709,400227.327,NA,2
shallow,flow.Sequence,3_0_2_0_2_1,2023-01-08T10:17:26.793Z,NA,sdf,Respekt,heshima,NA,NA,NA,NA,NA,NaN,d,skipped,NA,NA,NA,400212.6000000020,400210.661,NA,400212.4000000000,NA,400227.327,NA,2
task  ,flow.Sequence,3_0_2_0_2,2023-01-08T10:17:26.793Z,NA,sdf,Respekt,heshima,NA,NA,NA,NA,NA,9316.952000000050,d,completion,NA,NA,NA,400212.80000000100,400210.661,390877.043,390880.6000000020,390893.709,400227.327,NA,2
Deep Question,html.Page,3_0_2_0_3_0_0,2023-01-08T10:17:35.328Z,NA,NA,Orientierung,urekebisho,NA,NA,NA,NA,NA,8520.373000001130,d,form submission,NA,undabishwo,NA,408747.9000000000,408747.7000000010,400210.661,400212.9000000000,400227.327,408760.825,NA,2
"""Richtig""-Screen",canvas.Screen,3_0_2_0_3_0_1,2023-01-08T10:17:35.331Z,NA,sdf,Orientierung,urekebisho,NA,NA,NA,NA,NA,NaN,d,skipped,NA,NA,NA,408750.9000000000,408747.7000000010,NA,408750.80000000100,NA,408760.825,NA,2
"""Falsch""-Screen",canvas.Screen,3_0_2_0_3_0_2,2023-01-08T10:17:40.326Z,NA,sdf,Orientierung,urekebisho,0,NA,NA,NA,NA,4999.799999999990,d,timeout,NA,NA,NA,413746,413743.959,408744.159,408751.4000000000,408760.825,413760.625,NA,2
deep,flow.Sequence,3_0_2_0_3_0,2023-01-08T10:17:40.327Z,NA,sdf,Orientierung,urekebisho,NA,NA,NA,NA,NA,13516.632000000000,d,completion,NA,NA,NA,413746.6000000020,413743.959,400210.661,400212.9000000000,400227.327,413760.625,NA,2
shallow,flow.Sequence,3_0_2_0_3_1,2023-01-08T10:17:40.327Z,NA,sdf,Orientierung,urekebisho,NA,NA,NA,NA,NA,NaN,d,skipped,NA,NA,NA,413746.9000000000,413743.959,NA,413746.80000000100,NA,413760.625,NA,2
task  ,flow.Sequence,3_0_2_0_3,2023-01-08T10:17:40.327Z,NA,sdf,Orientierung,urekebisho,NA,NA,NA,NA,NA,13516.632000000000,d,completion,NA,NA,NA,413747.2000000010,413743.959,400210.661,400212.80000000100,400227.327,413760.625,NA,2
Deep Question,html.Page,3_0_2_0_4_0_0,2023-01-08T10:17:44.695Z,NA,NA,Können,unaweza,NA,NA,NA,NA,NA,4354.075000001120,d,form submission,NA,3,NA,418115,418114.7000000010,413743.959,413747.30000000100,413760.625,418127.798,NA,2
"""Richtig""-Screen",canvas.Screen,3_0_2_0_4_0_1,2023-01-08T10:17:44.698Z,NA,sdf,Können,unaweza,NA,NA,NA,NA,NA,NaN,d,skipped,NA,NA,NA,418118.2000000010,418114.7000000010,NA,418118.1000000020,NA,418127.798,NA,2
"""Falsch""-Screen",canvas.Screen,3_0_2_0_4_0_2,2023-01-08T10:17:49.692Z,NA,sdf,Können,unaweza,0,NA,NA,NA,NA,4999.799999999990,d,timeout,NA,NA,NA,423112.1000000020,423110.932,418111.132,418118.80000000100,418127.798,423127.598,NA,2
deep,flow.Sequence,3_0_2_0_4_0,2023-01-08T10:17:49.692Z,NA,sdf,Können,unaweza,NA,NA,NA,NA,NA,9350.306999999970,d,completion,NA,NA,NA,423112.5,423110.932,413743.959,413747.30000000100,413760.625,423127.598,NA,2
shallow,flow.Sequence,3_0_2_0_4_1,2023-01-08T10:17:49.693Z,NA,sdf,Können,unaweza,NA,NA,NA,NA,NA,NaN,d,skipped,NA,NA,NA,423112.80000000100,423110.932,NA,423112.7000000010,NA,423127.598,NA,2
task  ,flow.Sequence,3_0_2_0_4,2023-01-08T10:17:49.693Z,NA,sdf,Können,unaweza,NA,NA,NA,NA,NA,9350.306999999970,d,completion,NA,NA,NA,423112.9000000000,423110.932,413743.959,413747.30000000100,413760.625,423127.598,NA,2
deep,flow.Sequence,3_0_2_0_5_0,2023-01-08T10:17:49.693Z,NA,sdf,Stimmung,kinyongo,NA,kilekile,kisambo,madhehebu,NA,NaN,s,skipped,NA,NA,NA,423113.2000000010,423110.932,NA,423113.1000000020,NA,423127.598,NA,2
Shallow Question,html.Page,3_0_2_0_5_1_0,2023-01-08T10:17:55.929Z,NA,NA,Stimmung,kinyongo,NA,kilekile,kisambo,madhehebu,NA,6221.602000001120,s,form submission,NA,kinyongo,NA,429349.6000000020,429349.2000000010,423110.932,423113.4000000000,423127.598,429361.12,NA,2
"""Richtig""-Screen",canvas.Screen,3_0_2_0_5_1_1,2023-01-08T10:18:00.925Z,NA,sdf,Stimmung,kinyongo,1,kilekile,kisambo,madhehebu,NA,4999.799999999990,s,timeout,NA,NA,NA,434345.7000000010,434344.254,429344.454,429353.2000000010,429361.12,434360.92,NA,2
"""Falsch""-Screen",canvas.Screen,3_0_2_0_5_1_2,2023-01-08T10:18:00.930Z,NA,sdf,Stimmung,kinyongo,NA,kilekile,kisambo,madhehebu,NA,NaN,s,skipped,NA,NA,NA,434349.9000000000,434344.254,NA,434349.7000000010,NA,434360.92,NA,2
shallow,flow.Sequence,3_0_2_0_5_1,2023-01-08T10:18:00.930Z,NA,sdf,Stimmung,kinyongo,NA,kilekile,kisambo,madhehebu,NA,11216.656000000000,s,completion,NA,NA,NA,434349.9000000000,434344.254,423110.932,423113.30000000100,423127.598,434360.92,NA,2
task  ,flow.Sequence,3_0_2_0_5,2023-01-08T10:18:00.930Z,NA,sdf,Stimmung,kinyongo,NA,kilekile,kisambo,madhehebu,NA,11216.656000000000,s,completion,NA,NA,NA,434350.1000000020,434344.254,423110.932,423113.1000000020,423127.598,434360.92,NA,2
deep,flow.Sequence,3_0_2_0_6_0,2023-01-08T10:18:00.930Z,NA,sdf,Kontrolle,kudhibiti,NA,mbinguni,kufunga,utegemezi,NA,NaN,s,skipped,NA,NA,NA,434350.2000000010,434344.254,NA,434350.1000000020,NA,434360.92,NA,2
Shallow Question,html.Page,3_0_2_0_6_1_0,2023-01-08T10:18:12.897Z,NA,NA,Kontrolle,kudhibiti,NA,mbinguni,kufunga,utegemezi,NA,11955.880000000800,s,form submission,NA,kudhibiti,NA,446317.30000000100,446316.80000000100,434344.254,434350.30000000100,434360.92,446328.324,NA,2
"""Richtig""-Screen",canvas.Screen,3_0_2_0_6_1_1,2023-01-08T10:18:17.893Z,NA,sdf,Kontrolle,kudhibiti,1,mbinguni,kufunga,utegemezi,NA,4999.799999999990,s,timeout,NA,NA,NA,451313.30000000100,451311.458,446311.658,446319.80000000100,446328.324,451328.124,NA,2
"""Falsch""-Screen",canvas.Screen,3_0_2_0_6_1_2,2023-01-08T10:18:17.896Z,NA,sdf,Kontrolle,kudhibiti,NA,mbinguni,kufunga,utegemezi,NA,NaN,s,skipped,NA,NA,NA,451316.80000000100,451311.458,NA,451316.80000000100,NA,451328.124,NA,2
shallow,flow.Sequence,3_0_2_0_6_1,2023-01-08T10:18:17.896Z,NA,sdf,Kontrolle,kudhibiti,NA,mbinguni,kufunga,utegemezi,NA,16950.538,s,completion,NA,NA,NA,451317,451311.458,434344.254,434350.30000000100,434360.92,451328.124,NA,2
task  ,flow.Sequence,3_0_2_0_6,2023-01-08T10:18:17.897Z,NA,sdf,Kontrolle,kudhibiti,NA,mbinguni,kufunga,utegemezi,NA,16950.538,s,completion,NA,NA,NA,451317.1000000020,451311.458,434344.254,434350.1000000020,434360.92,451328.124,NA,2
Deep Question,html.Page,3_0_2_0_7_0_0,2023-01-08T10:18:21.278Z,NA,NA,Kreativität,ubunifu,NA,NA,NA,NA,NA,3369.776000000360,d,form submission,NA,2,NA,454698.1000000020,454697.9000000000,451311.458,451317.2000000010,451328.124,454711.322,NA,2
"""Richtig""-Screen",canvas.Screen,3_0_2_0_7_0_1,2023-01-08T10:18:21.280Z,NA,sdf,Kreativität,ubunifu,NA,NA,NA,NA,NA,NaN,d,skipped,NA,NA,NA,454700.80000000100,454697.9000000000,NA,454700.80000000100,NA,454711.322,NA,2
"""Falsch""-Screen",canvas.Screen,3_0_2_0_7_0_2,2023-01-08T10:18:26.276Z,NA,sdf,Kreativität,ubunifu,0,NA,NA,NA,NA,4999.799999999990,d,timeout,NA,NA,NA,459697,459694.456,454694.656,454701.5,454711.322,459711.122,NA,2
deep,flow.Sequence,3_0_2_0_7_0,2023-01-08T10:18:26.277Z,NA,sdf,Kreativität,ubunifu,NA,NA,NA,NA,NA,8366.332000000000,d,completion,NA,NA,NA,459697.5,459694.456,451311.458,451317.2000000010,451328.124,459711.122,NA,2
shallow,flow.Sequence,3_0_2_0_7_1,2023-01-08T10:18:26.277Z,NA,sdf,Kreativität,ubunifu,NA,NA,NA,NA,NA,NaN,d,skipped,NA,NA,NA,459697.80000000100,459694.456,NA,459697.7000000010,NA,459711.122,NA,2
task  ,flow.Sequence,3_0_2_0_7,2023-01-08T10:18:26.277Z,NA,sdf,Kreativität,ubunifu,NA,NA,NA,NA,NA,8366.332000000000,d,completion,NA,NA,NA,459698,459694.456,451311.458,451317.2000000010,451328.124,459711.122,NA,2
block,flow.Loop,3_0_2_0,2023-01-08T10:18:26.278Z,NA,sdf,NA,NA,NA,NA,NA,NA,NA,90867.08800000000,NA,completion,NA,NA,NA,459698.30000000100,459694.456,368794.036,368826.80000000100,368827.368,459711.122,NA,2
weiter,canvas.Screen,3_0_2_1,2023-01-08T10:18:27.785Z,NA,sdf,NA,NA,NA,NA,NA,NA,NA,1492.0780000011400,NA,response,sdf,NA,keypress(Space),461206,461203.2000000010,459694.456,459698.4000000000,459711.122,461228.46,NA,2
check continue,flow.Sequence,3_0_2,2023-01-08T10:18:27.786Z,NA,sdf,NA,NA,NA,NA,NA,NA,NA,92375.8320000011,NA,completion,NA,NA,NA,461206.4000000000,461203.2000000010,368794.036,368826.80000000100,368827.368,461228.46,NA,2
deep,flow.Sequence,3_0_3_0_0_0,2023-01-08T10:18:27.811Z,NA,qt,Stimmung,kinyongo,NA,kilekile,kisambo,madhehebu,NA,NaN,s,skipped,NA,NA,NA,461232.1000000020,461203.2000000010,NA,461232,NA,461228.46,NA,3
Shallow Question,html.Page,3_0_3_0_0_1_0,2023-01-08T10:18:31.162Z,NA,NA,Stimmung,kinyongo,NA,kilekile,kisambo,madhehebu,NA,3353.840000000720,s,form submission,NA,kinyongo,NA,464582.80000000100,464582.30000000100,461195.128,461232.2000000010,461228.46,464594.992,NA,3
"""Richtig""-Screen",canvas.Screen,3_0_3_0_0_1_1,2023-01-08T10:18:36.160Z,NA,qt,Stimmung,kinyongo,1,kilekile,kisambo,madhehebu,NA,4999.799999999990,s,timeout,NA,NA,NA,469580.80000000100,469578.126,464578.326,464585.80000000100,464594.992,469594.792,NA,3
"""Falsch""-Screen",canvas.Screen,3_0_3_0_0_1_2,2023-01-08T10:18:36.165Z,NA,qt,Stimmung,kinyongo,NA,kilekile,kisambo,madhehebu,NA,NaN,s,skipped,NA,NA,NA,469586.1000000020,469578.126,NA,469586,NA,469594.792,NA,3
shallow,flow.Sequence,3_0_3_0_0_1,2023-01-08T10:18:36.165Z,NA,qt,Stimmung,kinyongo,NA,kilekile,kisambo,madhehebu,NA,8349.665999999970,s,completion,NA,NA,NA,469586.2000000010,469578.126,461195.128,461232.2000000010,461228.46,469594.792,NA,3
task  ,flow.Sequence,3_0_3_0_0,2023-01-08T10:18:36.166Z,NA,qt,Stimmung,kinyongo,NA,kilekile,kisambo,madhehebu,NA,8349.665999999970,s,completion,NA,NA,NA,469586.30000000100,469578.126,461195.128,461232,461228.46,469594.792,NA,3
deep,flow.Sequence,3_0_3_0_1_0,2023-01-08T10:18:36.166Z,NA,qt,Gefährdung,kuhatarisha,NA,uchokozi,udhaifu,makorowezo,NA,NaN,s,skipped,NA,NA,NA,469586.5,469578.126,NA,469586.4000000000,NA,469594.792,NA,3
Shallow Question,html.Page,3_0_3_0_1_1_0,2023-01-08T10:18:46.895Z,NA,NA,Gefährdung,kuhatarisha,NA,uchokozi,udhaifu,makorowezo,NA,10721.00800000070,s,form submission,NA,kuhatarisha,NA,480316.4000000000,480315.80000000100,469578.126,469586.6000000020,469594.792,480328.287,NA,3
"""Richtig""-Screen",canvas.Screen,3_0_3_0_1_1_1,2023-01-08T10:18:51.893Z,NA,qt,Gefährdung,kuhatarisha,1,uchokozi,udhaifu,makorowezo,NA,4999.799999999990,s,timeout,NA,NA,NA,485313.7000000010,485311.421,480311.621,480319.30000000100,480328.287,485328.087,NA,3
"""Falsch""-Screen",canvas.Screen,3_0_3_0_1_1_2,2023-01-08T10:18:51.896Z,NA,qt,Gefährdung,kuhatarisha,NA,uchokozi,udhaifu,makorowezo,NA,NaN,s,skipped,NA,NA,NA,485317.5,485311.421,NA,485317.4000000000,NA,485328.087,NA,3
shallow,flow.Sequence,3_0_3_0_1_1,2023-01-08T10:18:51.897Z,NA,qt,Gefährdung,kuhatarisha,NA,uchokozi,udhaifu,makorowezo,NA,15716.629000000000,s,completion,NA,NA,NA,485317.6000000020,485311.421,469578.126,469586.5,469594.792,485328.087,NA,3
task  ,flow.Sequence,3_0_3_0_1,2023-01-08T10:18:51.897Z,NA,qt,Gefährdung,kuhatarisha,NA,uchokozi,udhaifu,makorowezo,NA,15716.629000000000,s,completion,NA,NA,NA,485317.80000000100,485311.421,469578.126,469586.4000000000,469594.792,485328.087,NA,3
Deep Question,html.Page,3_0_3_0_2_0_0,2023-01-08T10:18:57.796Z,NA,NA,Kreativität,ubunifu,NA,NA,NA,NA,NA,5888.013000001490,d,form submission,NA,2,NA,491216.6000000020,491216.1000000020,485311.421,485317.80000000100,485328.087,491228.589,NA,3
"""Richtig""-Screen",canvas.Screen,3_0_3_0_2_0_1,2023-01-08T10:18:57.798Z,NA,qt,Kreativität,ubunifu,NA,NA,NA,NA,NA,NaN,d,skipped,NA,NA,NA,491219.30000000100,491216.1000000020,NA,491219.2000000010,NA,491228.589,NA,3
"""Falsch""-Screen",canvas.Screen,3_0_3_0_2_0_2,2023-01-08T10:19:02.793Z,NA,qt,Kreativität,ubunifu,0,NA,NA,NA,NA,4999.800000000050,d,timeout,NA,NA,NA,496214.30000000100,496211.723,491211.923,491219.9000000000,491228.589,496228.389,NA,3
deep,flow.Sequence,3_0_3_0_2_0,2023-01-08T10:19:02.794Z,NA,qt,Kreativität,ubunifu,NA,NA,NA,NA,NA,10883.636000000000,d,completion,NA,NA,NA,496214.80000000100,496211.723,485311.421,485317.80000000100,485328.087,496228.389,NA,3
shallow,flow.Sequence,3_0_3_0_2_1,2023-01-08T10:19:02.794Z,NA,qt,Kreativität,ubunifu,NA,NA,NA,NA,NA,NaN,d,skipped,NA,NA,NA,496215.2000000010,496211.723,NA,496215,NA,496228.389,NA,3
task  ,flow.Sequence,3_0_3_0_2,2023-01-08T10:19:02.794Z,NA,qt,Kreativität,ubunifu,NA,NA,NA,NA,NA,10883.636000000000,d,completion,NA,NA,NA,496215.30000000100,496211.723,485311.421,485317.80000000100,485328.087,496228.389,NA,3
Deep Question,html.Page,3_0_3_0_3_0_0,2023-01-08T10:19:16.928Z,NA,NA,Respekt,heshima,NA,NA,NA,NA,NA,14120.811000001100,d,form submission,NA,uhishma,NA,510349.7000000010,510349.2000000010,496211.723,496215.7000000010,496228.389,510362.261,NA,3
"""Richtig""-Screen",canvas.Screen,3_0_3_0_3_0_1,2023-01-08T10:19:16.932Z,NA,qt,Respekt,heshima,NA,NA,NA,NA,NA,NaN,d,skipped,NA,NA,NA,510353.6000000020,510349.2000000010,NA,510353.5,NA,510362.261,NA,3
"""Falsch""-Screen",canvas.Screen,3_0_3_0_3_0_2,2023-01-08T10:19:21.926Z,NA,qt,Respekt,heshima,0,NA,NA,NA,NA,4999.799999999990,d,timeout,NA,NA,NA,515347.80000000100,515345.395,510345.595,510354.2000000010,510362.261,515362.061,NA,3
deep,flow.Sequence,3_0_3_0_3_0,2023-01-08T10:19:21.927Z,NA,qt,Respekt,heshima,NA,NA,NA,NA,NA,19117.006000000000,d,completion,NA,NA,NA,515348.2000000010,515345.395,496211.723,496215.5,496228.389,515362.061,NA,3
shallow,flow.Sequence,3_0_3_0_3_1,2023-01-08T10:19:21.927Z,NA,qt,Respekt,heshima,NA,NA,NA,NA,NA,NaN,d,skipped,NA,NA,NA,515348.6000000020,515345.395,NA,515348.4000000000,NA,515362.061,NA,3
task  ,flow.Sequence,3_0_3_0_3,2023-01-08T10:19:21.927Z,NA,qt,Respekt,heshima,NA,NA,NA,NA,NA,19117.006000000000,d,completion,NA,NA,NA,515348.7000000010,515345.395,496211.723,496215.4000000000,496228.389,515362.061,NA,3
deep,flow.Sequence,3_0_3_0_4_0,2023-01-08T10:19:21.928Z,NA,qt,Kontrolle,kudhibiti,NA,mbinguni,kufunga,utegemezi,NA,NaN,s,skipped,NA,NA,NA,515349.1000000020,515345.395,NA,515349,NA,515362.061,NA,3
Shallow Question,html.Page,3_0_3_0_4_1_0,2023-01-08T10:19:29.779Z,NA,NA,Kontrolle,kudhibiti,NA,mbinguni,kufunga,utegemezi,NA,7838.339000000390,s,form submission,NA,kudhibiti,NA,523200.80000000100,523200.4000000000,515345.395,515349.2000000010,515362.061,523212.242,NA,3
"""Richtig""-Screen",canvas.Screen,3_0_3_0_4_1_1,2023-01-08T10:19:34.776Z,NA,qt,Kontrolle,kudhibiti,1,mbinguni,kufunga,utegemezi,NA,4999.799999999990,s,timeout,NA,NA,NA,528197.9000000000,528195.376,523195.576,523203.4000000000,523212.242,528212.042,NA,3
"""Falsch""-Screen",canvas.Screen,3_0_3_0_4_1_2,2023-01-08T10:19:34.781Z,NA,qt,Kontrolle,kudhibiti,NA,mbinguni,kufunga,utegemezi,NA,NaN,s,skipped,NA,NA,NA,528202.3000000010,528195.376,NA,528202.2000000010,NA,528212.042,NA,3
shallow,flow.Sequence,3_0_3_0_4_1,2023-01-08T10:19:34.781Z,NA,qt,Kontrolle,kudhibiti,NA,mbinguni,kufunga,utegemezi,NA,12833.31500000010,s,completion,NA,NA,NA,528202.6000000020,528195.376,515345.395,515349.1000000020,515362.061,528212.042,NA,3
task  ,flow.Sequence,3_0_3_0_4,2023-01-08T10:19:34.781Z,NA,qt,Kontrolle,kudhibiti,NA,mbinguni,kufunga,utegemezi,NA,12833.31500000010,s,completion,NA,NA,NA,528202.7000000010,528195.376,515345.395,515348.9000000000,515362.061,528212.042,NA,3
Deep Question,html.Page,3_0_3_0_5_0_0,2023-01-08T10:19:42.062Z,NA,NA,Orientierung,urekebisho,NA,NA,NA,NA,NA,7270.658000001100,d,form submission,NA,udubihwo,NA,535483.2000000010,535482.7000000010,528195.376,528202.9000000000,528212.042,535495.666,NA,3
"""Richtig""-Screen",canvas.Screen,3_0_3_0_5_0_1,2023-01-08T10:19:42.065Z,NA,qt,Orientierung,urekebisho,NA,NA,NA,NA,NA,NaN,d,skipped,NA,NA,NA,535486.9000000000,535482.7000000010,NA,535486.9000000000,NA,535495.666,NA,3
"""Falsch""-Screen",canvas.Screen,3_0_3_0_5_0_2,2023-01-08T10:19:47.058Z,NA,qt,Orientierung,urekebisho,0,NA,NA,NA,NA,4999.800000000050,d,timeout,NA,NA,NA,540480.1000000020,540478.8,535479,535487.6000000020,535495.666,540495.466,NA,3
deep,flow.Sequence,3_0_3_0_5_0,2023-01-08T10:19:47.059Z,NA,qt,Orientierung,urekebisho,NA,NA,NA,NA,NA,12266.75800000000,d,completion,NA,NA,NA,540480.6000000020,540478.8,528195.376,528202.8000000010,528212.042,540495.466,NA,3
shallow,flow.Sequence,3_0_3_0_5_1,2023-01-08T10:19:47.059Z,NA,qt,Orientierung,urekebisho,NA,NA,NA,NA,NA,NaN,d,skipped,NA,NA,NA,540480.9000000000,540478.8,NA,540480.7000000010,NA,540495.466,NA,3
task  ,flow.Sequence,3_0_3_0_5,2023-01-08T10:19:47.059Z,NA,qt,Orientierung,urekebisho,NA,NA,NA,NA,NA,12266.75800000000,d,completion,NA,NA,NA,540481.1000000020,540478.8,528195.376,528202.8000000010,528212.042,540495.466,NA,3
Deep Question,html.Page,3_0_3_0_6_0_0,2023-01-08T10:19:53.977Z,NA,NA,Können,unaweza,NA,NA,NA,NA,NA,6903.134000001480,d,form submission,NA,2,NA,547398.8000000010,547398.6000000020,540478.8,540481.3000000010,540495.466,547412.537,NA,3
"""Richtig""-Screen",canvas.Screen,3_0_3_0_6_0_1,2023-01-08T10:19:53.980Z,NA,qt,Können,unaweza,NA,NA,NA,NA,NA,NaN,d,skipped,NA,NA,NA,547401.7000000010,547398.6000000020,NA,547401.5,NA,547412.537,NA,3
"""Falsch""-Screen",canvas.Screen,3_0_3_0_6_0_2,2023-01-08T10:19:58.976Z,NA,qt,Können,unaweza,0,NA,NA,NA,NA,4999.800000000050,d,timeout,NA,NA,NA,552398,552395.671,547395.871,547402.2000000010,547412.537,552412.337,NA,3
deep,flow.Sequence,3_0_3_0_6_0,2023-01-08T10:19:58.977Z,NA,qt,Können,unaweza,NA,NA,NA,NA,NA,11900.205000000000,d,completion,NA,NA,NA,552398.6000000020,552395.671,540478.8,540481.3000000010,540495.466,552412.337,NA,3
shallow,flow.Sequence,3_0_3_0_6_1,2023-01-08T10:19:58.977Z,NA,qt,Können,unaweza,NA,NA,NA,NA,NA,NaN,d,skipped,NA,NA,NA,552398.9000000000,552395.671,NA,552398.8000000010,NA,552412.337,NA,3
task  ,flow.Sequence,3_0_3_0_6,2023-01-08T10:19:58.977Z,NA,qt,Können,unaweza,NA,NA,NA,NA,NA,11900.205000000000,d,completion,NA,NA,NA,552399.2000000010,552395.671,540478.8,540481.2000000010,540495.466,552412.337,NA,3
deep,flow.Sequence,3_0_3_0_7_0,2023-01-08T10:19:58.978Z,NA,qt,Betrüger,mdanganyifu,NA,mwanamuziki,wastani,mahakama,NA,NaN,s,skipped,NA,NA,NA,552399.4000000000,552395.671,NA,552399.4000000000,NA,552412.337,NA,3
Shallow Question,html.Page,3_0_3_0_7_1_0,2023-01-08T10:20:05.895Z,NA,NA,Betrüger,mdanganyifu,NA,mwanamuziki,wastani,mahakama,NA,6904.563000000320,s,form submission,NA,mdanganyifu,NA,559317.3000000010,559316.9000000000,552395.671,552399.5,552412.337,559329.256,NA,3
"""Richtig""-Screen",canvas.Screen,3_0_3_0_7_1_1,2023-01-08T10:20:10.893Z,NA,qt,Betrüger,mdanganyifu,1,mwanamuziki,wastani,mahakama,NA,4999.79999999993,s,timeout,NA,NA,NA,564314.5,564312.39,559312.59,559320.8000000010,559329.256,564329.056,NA,3
"""Falsch""-Screen",canvas.Screen,3_0_3_0_7_1_2,2023-01-08T10:20:10.897Z,NA,qt,Betrüger,mdanganyifu,NA,mwanamuziki,wastani,mahakama,NA,NaN,s,skipped,NA,NA,NA,564318.8000000010,564312.39,NA,564318.5,NA,564329.056,NA,3
shallow,flow.Sequence,3_0_3_0_7_1,2023-01-08T10:20:10.897Z,NA,qt,Betrüger,mdanganyifu,NA,mwanamuziki,wastani,mahakama,NA,11900.053000000000,s,completion,NA,NA,NA,564319,564312.39,552395.671,552399.5,552412.337,564329.056,NA,3
task  ,flow.Sequence,3_0_3_0_7,2023-01-08T10:20:10.897Z,NA,qt,Betrüger,mdanganyifu,NA,mwanamuziki,wastani,mahakama,NA,11900.053000000000,s,completion,NA,NA,NA,564319.1000000020,564312.39,552395.671,552399.3000000010,552412.337,564329.056,NA,3
block,flow.Loop,3_0_3_0,2023-01-08T10:20:10.897Z,NA,qt,NA,NA,NA,NA,NA,NA,NA,103083.93,NA,completion,NA,NA,NA,564319.3000000010,564312.39,461195.128,461232,461228.46,564329.056,NA,3
weiter,canvas.Screen,3_0_3_1,2023-01-08T10:20:13.461Z,NA,qt,NA,NA,NA,NA,NA,NA,NA,2550.2440000007600,NA,response,sdf,NA,keypress(Space),566882.9000000000,566879.3000000010,564312.39,564319.4000000000,564329.056,566896.328,NA,3
check continue,flow.Sequence,3_0_3,2023-01-08T10:20:13.461Z,NA,qt,NA,NA,NA,NA,NA,NA,NA,105650.84000000100,NA,completion,NA,NA,NA,566883.4000000000,566879.3000000010,461195.128,461232,461228.46,566896.328,NA,3
deep,flow.Sequence,3_0_4_0_0_0,2023-01-08T10:20:13.487Z,NA,sd,Stimmung,kinyongo,NA,kilekile,kisambo,madhehebu,NA,NaN,s,skipped,NA,NA,NA,566909.1000000020,566879.3000000010,NA,566909,NA,566896.328,NA,4
Shallow Question,html.Page,3_0_4_0_0_1_0,2023-01-08T10:20:20.512Z,NA,NA,Stimmung,kinyongo,NA,kilekile,kisambo,madhehebu,NA,7037.272000001510,s,form submission,NA,kinyongo,NA,573934.1000000020,573933.6000000020,566879.662,566909.1000000020,566896.328,573946.046,NA,4
"""Richtig""-Screen",canvas.Screen,3_0_4_0_0_1_1,2023-01-08T10:20:25.509Z,NA,sd,Stimmung,kinyongo,1,kilekile,kisambo,madhehebu,NA,4999.800000000050,s,timeout,NA,NA,NA,578931.1000000020,578929.18,573929.38,573936.9000000000,573946.046,578945.846,NA,4
"""Falsch""-Screen",canvas.Screen,3_0_4_0_0_1_2,2023-01-08T10:20:25.513Z,NA,sd,Stimmung,kinyongo,NA,kilekile,kisambo,madhehebu,NA,NaN,s,skipped,NA,NA,NA,578934.9000000000,578929.18,NA,578934.8000000010,NA,578945.846,NA,4
shallow,flow.Sequence,3_0_4_0_0_1,2023-01-08T10:20:25.513Z,NA,sd,Stimmung,kinyongo,NA,kilekile,kisambo,madhehebu,NA,12032.852000000100,s,completion,NA,NA,NA,578935,578929.18,566879.662,566909.1000000020,566896.328,578945.846,NA,4
task  ,flow.Sequence,3_0_4_0_0,2023-01-08T10:20:25.513Z,NA,sd,Stimmung,kinyongo,NA,kilekile,kisambo,madhehebu,NA,12032.852000000100,s,completion,NA,NA,NA,578935.1000000020,578929.18,566879.662,566909,566896.328,578945.846,NA,4
Deep Question,html.Page,3_0_4_0_1_0_0,2023-01-08T10:20:31.428Z,NA,NA,Respekt,heshima,NA,NA,NA,NA,NA,5903.854000001100,d,form submission,NA,hushima,NA,584849.8000000010,584849.7000000010,578929.18,578935.3000000010,578945.846,584863.034,NA,4
"""Richtig""-Screen",canvas.Screen,3_0_4_0_1_0_1,2023-01-08T10:20:31.430Z,NA,sd,Respekt,heshima,NA,NA,NA,NA,NA,NaN,d,skipped,NA,NA,NA,584852.1000000020,584849.7000000010,NA,584852,NA,584863.034,NA,4
"""Falsch""-Screen",canvas.Screen,3_0_4_0_1_0_2,2023-01-08T10:20:36.426Z,NA,sd,Respekt,heshima,0,NA,NA,NA,NA,4999.800000000050,d,timeout,NA,NA,NA,589848.5,589846.168,584846.368,584852.5,584863.034,589862.834,NA,4
deep,flow.Sequence,3_0_4_0_1_0,2023-01-08T10:20:36.427Z,NA,sd,Respekt,heshima,NA,NA,NA,NA,NA,10900.321999999900,d,completion,NA,NA,NA,589849,589846.168,578929.18,578935.2000000010,578945.846,589862.834,NA,4
shallow,flow.Sequence,3_0_4_0_1_1,2023-01-08T10:20:36.427Z,NA,sd,Respekt,heshima,NA,NA,NA,NA,NA,NaN,d,skipped,NA,NA,NA,589849.2000000010,589846.168,NA,589849.1000000020,NA,589862.834,NA,4
task  ,flow.Sequence,3_0_4_0_1,2023-01-08T10:20:36.427Z,NA,sd,Respekt,heshima,NA,NA,NA,NA,NA,10900.321999999900,d,completion,NA,NA,NA,589849.4000000000,589846.168,578929.18,578935.2000000010,578945.846,589862.834,NA,4
deep,flow.Sequence,3_0_4_0_2_0,2023-01-08T10:20:36.427Z,NA,sd,Betrüger,mdanganyifu,NA,mwanamuziki,wastani,mahakama,NA,NaN,s,skipped,NA,NA,NA,589849.8000000010,589846.168,NA,589849.6000000020,NA,589862.834,NA,4
Shallow Question,html.Page,3_0_4_0_2_1_0,2023-01-08T10:20:42.179Z,NA,NA,Betrüger,mdanganyifu,NA,mwanamuziki,wastani,mahakama,NA,5737.766000001460,s,form submission,NA,mdanganyifu,NA,595601.1000000020,595600.6000000020,589846.168,589849.9000000000,589862.834,595613.143,NA,4
"""Richtig""-Screen",canvas.Screen,3_0_4_0_2_1_1,2023-01-08T10:20:47.176Z,NA,sd,Betrüger,mdanganyifu,1,mwanamuziki,wastani,mahakama,NA,4999.79999999993,s,timeout,NA,NA,NA,600599,600596.277,595596.477,595604.1000000020,595613.143,600612.943,NA,4
"""Falsch""-Screen",canvas.Screen,3_0_4_0_2_1_2,2023-01-08T10:20:47.181Z,NA,sd,Betrüger,mdanganyifu,NA,mwanamuziki,wastani,mahakama,NA,NaN,s,skipped,NA,NA,NA,600603.4000000000,600596.277,NA,600603.3000000010,NA,600612.943,NA,4
shallow,flow.Sequence,3_0_4_0_2_1,2023-01-08T10:20:47.181Z,NA,sd,Betrüger,mdanganyifu,NA,mwanamuziki,wastani,mahakama,NA,10733.44300000000,s,completion,NA,NA,NA,600603.6000000020,600596.277,589846.168,589849.8000000010,589862.834,600612.943,NA,4
task  ,flow.Sequence,3_0_4_0_2,2023-01-08T10:20:47.181Z,NA,sd,Betrüger,mdanganyifu,NA,mwanamuziki,wastani,mahakama,NA,10733.44300000000,s,completion,NA,NA,NA,600603.7000000010,600596.277,589846.168,589849.5,589862.834,600612.943,NA,4
Deep Question,html.Page,3_0_4_0_3_0_0,2023-01-08T10:20:59.261Z,NA,NA,Kreativität,ubunifu,NA,NA,NA,NA,NA,12070.957000000400,d,form submission,NA,habiu,NA,612684.1000000020,612683.9000000000,600596.277,600603.9000000000,600612.943,612696.907,NA,4
"""Richtig""-Screen",canvas.Screen,3_0_4_0_3_0_1,2023-01-08T10:20:59.264Z,NA,sd,Kreativität,ubunifu,NA,NA,NA,NA,NA,NaN,d,skipped,NA,NA,NA,612686.8000000010,612683.9000000000,NA,612686.8000000010,NA,612696.907,NA,4
"""Falsch""-Screen",canvas.Screen,3_0_4_0_3_0_2,2023-01-08T10:21:04.259Z,NA,sd,Kreativität,ubunifu,0,NA,NA,NA,NA,4999.800000000050,d,timeout,NA,NA,NA,617682.2000000010,617680.041,612680.241,612687.5,612696.907,617696.707,NA,4
deep,flow.Sequence,3_0_4_0_3_0,2023-01-08T10:21:04.260Z,NA,sd,Kreativität,ubunifu,NA,NA,NA,NA,NA,17067.098000000000,d,completion,NA,NA,NA,617682.7000000010,617680.041,600596.277,600603.9000000000,600612.943,617696.707,NA,4
shallow,flow.Sequence,3_0_4_0_3_1,2023-01-08T10:21:04.260Z,NA,sd,Kreativität,ubunifu,NA,NA,NA,NA,NA,NaN,d,skipped,NA,NA,NA,617683,617680.041,NA,617682.9000000000,NA,617696.707,NA,4
task  ,flow.Sequence,3_0_4_0_3,2023-01-08T10:21:04.260Z,NA,sd,Kreativität,ubunifu,NA,NA,NA,NA,NA,17067.098000000000,d,completion,NA,NA,NA,617683.2000000010,617680.041,600596.277,600603.9000000000,600612.943,617696.707,NA,4
Deep Question,html.Page,3_0_4_0_4_0_0,2023-01-08T10:21:11.610Z,NA,NA,Orientierung,urekebisho,NA,NA,NA,NA,NA,7335.893000001440,d,form submission,NA,urekebisho,NA,625032.8000000010,625032.6000000020,617680.041,617683.4000000000,617696.707,625046.935,NA,4
"""Richtig""-Screen",canvas.Screen,3_0_4_0_4_0_1,2023-01-08T10:21:16.610Z,NA,sd,Orientierung,urekebisho,1,NA,NA,NA,NA,4999.79999999993,d,timeout,NA,NA,NA,630032.7000000010,630030.069,625030.269,625035.8000000010,625046.935,630046.735,NA,4
"""Falsch""-Screen",canvas.Screen,3_0_4_0_4_0_2,2023-01-08T10:21:16.614Z,NA,sd,Orientierung,urekebisho,NA,NA,NA,NA,NA,NaN,d,skipped,NA,NA,NA,630036.9000000000,630030.069,NA,630036.8000000010,NA,630046.735,NA,4
deep,flow.Sequence,3_0_4_0_4_0,2023-01-08T10:21:16.614Z,NA,sd,Orientierung,urekebisho,NA,NA,NA,NA,NA,12333.362000000000,d,completion,NA,NA,NA,630037.2000000010,630030.069,617680.041,617683.3000000010,617696.707,630046.735,NA,4
shallow,flow.Sequence,3_0_4_0_4_1,2023-01-08T10:21:16.614Z,NA,sd,Orientierung,urekebisho,NA,NA,NA,NA,NA,NaN,d,skipped,NA,NA,NA,630037.4000000000,630030.069,NA,630037.3000000010,NA,630046.735,NA,4
task  ,flow.Sequence,3_0_4_0_4,2023-01-08T10:21:16.615Z,NA,sd,Orientierung,urekebisho,NA,NA,NA,NA,NA,12333.362000000000,d,completion,NA,NA,NA,630037.5,630030.069,617680.041,617683.3000000010,617696.707,630046.735,NA,4
deep,flow.Sequence,3_0_4_0_5_0,2023-01-08T10:21:16.615Z,NA,sd,Gefährdung,kuhatarisha,NA,uchokozi,udhaifu,makorowezo,NA,NaN,s,skipped,NA,NA,NA,630037.7000000010,630030.069,NA,630037.6000000020,NA,630046.735,NA,4
Shallow Question,html.Page,3_0_4_0_5_1_0,2023-01-08T10:21:21.812Z,NA,NA,Gefährdung,kuhatarisha,NA,uchokozi,udhaifu,makorowezo,NA,5187.565000000760,s,form submission,NA,udhaifu,NA,635234.7000000010,635234.3000000010,630030.069,630037.8000000010,630046.735,635247.044,NA,4
"""Richtig""-Screen",canvas.Screen,3_0_4_0_5_1_1,2023-01-08T10:21:21.814Z,NA,sd,Gefährdung,kuhatarisha,NA,uchokozi,udhaifu,makorowezo,NA,NaN,s,skipped,NA,NA,NA,635237.4000000000,635234.3000000010,NA,635237.2000000010,NA,635247.044,NA,4
"""Falsch""-Screen",canvas.Screen,3_0_4_0_5_1_2,2023-01-08T10:21:26.810Z,NA,sd,Gefährdung,kuhatarisha,0,uchokozi,udhaifu,makorowezo,NA,4999.800000000050,s,timeout,NA,NA,NA,640232.8000000010,640230.178,635230.378,635238,635247.044,640246.844,NA,4
shallow,flow.Sequence,3_0_4_0_5_1,2023-01-08T10:21:26.810Z,NA,sd,Gefährdung,kuhatarisha,NA,uchokozi,udhaifu,makorowezo,NA,10183.44300000000,s,completion,NA,NA,NA,640233.4000000000,640230.178,630030.069,630037.7000000010,630046.735,640246.844,NA,4
task  ,flow.Sequence,3_0_4_0_5,2023-01-08T10:21:26.811Z,NA,sd,Gefährdung,kuhatarisha,NA,uchokozi,udhaifu,makorowezo,NA,10183.44300000000,s,completion,NA,NA,NA,640233.6000000020,640230.178,630030.069,630037.6000000020,630046.735,640246.844,NA,4
Deep Question,html.Page,3_0_4_0_6_0_0,2023-01-08T10:21:31.944Z,NA,NA,Können,unaweza,NA,NA,NA,NA,NA,5120.356000001080,d,form submission,NA,unawezo,NA,645367.5,645367.2000000010,640230.178,640233.9000000000,640246.844,645380.4,NA,4
"""Richtig""-Screen",canvas.Screen,3_0_4_0_6_0_1,2023-01-08T10:21:31.947Z,NA,sd,Können,unaweza,NA,NA,NA,NA,NA,NaN,d,skipped,NA,NA,NA,645370.3000000010,645367.2000000010,NA,645370.2000000010,NA,645380.4,NA,4
"""Falsch""-Screen",canvas.Screen,3_0_4_0_6_0_2,2023-01-08T10:21:36.942Z,NA,sd,Können,unaweza,0,NA,NA,NA,NA,4999.79999999993,d,timeout,NA,NA,NA,650365,650363.534,645363.734,645370.9000000000,645380.4,650380.2,NA,4
deep,flow.Sequence,3_0_4_0_6_0,2023-01-08T10:21:36.942Z,NA,sd,Können,unaweza,NA,NA,NA,NA,NA,10116.689999999900,d,completion,NA,NA,NA,650365.4000000000,650363.534,640230.178,640233.8000000010,640246.844,650380.2,NA,4
shallow,flow.Sequence,3_0_4_0_6_1,2023-01-08T10:21:36.942Z,NA,sd,Können,unaweza,NA,NA,NA,NA,NA,NaN,d,skipped,NA,NA,NA,650365.7000000010,650363.534,NA,650365.5,NA,650380.2,NA,4
task  ,flow.Sequence,3_0_4_0_6,2023-01-08T10:21:36.943Z,NA,sd,Können,unaweza,NA,NA,NA,NA,NA,10116.689999999900,d,completion,NA,NA,NA,650365.8000000010,650363.534,640230.178,640233.7000000010,640246.844,650380.2,NA,4
deep,flow.Sequence,3_0_4_0_7_0,2023-01-08T10:21:36.943Z,NA,sd,Kontrolle,kudhibiti,NA,mbinguni,kufunga,utegemezi,NA,NaN,s,skipped,NA,NA,NA,650366,650363.534,NA,650365.9000000000,NA,650380.2,NA,4
Shallow Question,html.Page,3_0_4_0_7_1_0,2023-01-08T10:21:42.496Z,NA,NA,Kontrolle,kudhibiti,NA,mbinguni,kufunga,utegemezi,NA,5538.300000000050,s,form submission,NA,kudhibiti,NA,655919.1000000020,655918.5,650363.534,650366.1000000020,650380.2,655929.978,NA,4
"""Richtig""-Screen",canvas.Screen,3_0_4_0_7_1_1,2023-01-08T10:21:47.492Z,NA,sd,Kontrolle,kudhibiti,1,mbinguni,kufunga,utegemezi,NA,4999.800000000050,s,timeout,NA,NA,NA,660915.7000000010,660913.112,655913.312,655922.7000000010,655929.978,660929.778,NA,4
"""Falsch""-Screen",canvas.Screen,3_0_4_0_7_1_2,2023-01-08T10:21:47.498Z,NA,sd,Kontrolle,kudhibiti,NA,mbinguni,kufunga,utegemezi,NA,NaN,s,skipped,NA,NA,NA,660920.9000000000,660913.112,NA,660920.6000000020,NA,660929.778,NA,4
shallow,flow.Sequence,3_0_4_0_7_1,2023-01-08T10:21:47.498Z,NA,sd,Kontrolle,kudhibiti,NA,mbinguni,kufunga,utegemezi,NA,10532.912000000000,s,completion,NA,NA,NA,660921.1000000020,660913.112,650363.534,650366.1000000020,650380.2,660929.778,NA,4
task  ,flow.Sequence,3_0_4_0_7,2023-01-08T10:21:47.498Z,NA,sd,Kontrolle,kudhibiti,NA,mbinguni,kufunga,utegemezi,NA,10532.912000000000,s,completion,NA,NA,NA,660921.3000000010,660913.112,650363.534,650365.8000000010,650380.2,660929.778,NA,4
block,flow.Loop,3_0_4_0,2023-01-08T10:21:47.498Z,NA,sd,NA,NA,NA,NA,NA,NA,NA,94016.78400000000,NA,completion,NA,NA,NA,660921.6000000020,660913.112,566879.662,566908.9000000000,566896.328,660929.778,NA,4
weiter,canvas.Screen,3_0_4_1,2023-01-08T10:21:48.731Z,NA,sd,NA,NA,NA,NA,NA,NA,NA,1222.2219999999500,NA,response,sdf,NA,keypress(Space),662154.8000000010,662152,660913.112,660921.6000000020,660929.778,662179.728,NA,4
check continue,flow.Sequence,3_0_4,2023-01-08T10:21:48.732Z,NA,sd,NA,NA,NA,NA,NA,NA,NA,95255.67200000000,NA,completion,NA,NA,NA,662155.2000000010,662152,566879.662,566908.9000000000,566896.328,662179.728,NA,4
deep,flow.Sequence,3_0_5_0_0_0,2023-01-08T10:21:48.755Z,NA,sdf,Stimmung,kinyongo,NA,kilekile,kisambo,madhehebu,NA,NaN,s,skipped,NA,NA,NA,662178.6000000020,662152,NA,662178.5,NA,662179.728,NA,5
Shallow Question,html.Page,3_0_5_0_0_1_0,2023-01-08T10:21:53.429Z,NA,NA,Stimmung,kinyongo,NA,kilekile,kisambo,madhehebu,NA,4671.772000000000,s,form submission,NA,kinyongo,NA,666852,666851.5,662163.062,662178.6000000020,662179.728,666864.066,NA,5
"""Richtig""-Screen",canvas.Screen,3_0_5_0_0_1_1,2023-01-08T10:21:58.426Z,NA,sdf,Stimmung,kinyongo,1,kilekile,kisambo,madhehebu,NA,4999.800000000050,s,timeout,NA,NA,NA,671849.7000000010,671847.2,666847.4,666855.3000000010,666864.066,671863.866,NA,5
"""Falsch""-Screen",canvas.Screen,3_0_5_0_0_1_2,2023-01-08T10:21:58.431Z,NA,sdf,Stimmung,kinyongo,NA,kilekile,kisambo,madhehebu,NA,NaN,s,skipped,NA,NA,NA,671854.5,671847.2,NA,671854.3000000010,NA,671863.866,NA,5
shallow,flow.Sequence,3_0_5_0_0_1,2023-01-08T10:21:58.431Z,NA,sdf,Stimmung,kinyongo,NA,kilekile,kisambo,madhehebu,NA,9667.47199999995,s,completion,NA,NA,NA,671854.6000000020,671847.2,662163.062,662178.6000000020,662179.728,671863.866,NA,5
task  ,flow.Sequence,3_0_5_0_0,2023-01-08T10:21:58.431Z,NA,sdf,Stimmung,kinyongo,NA,kilekile,kisambo,madhehebu,NA,9667.47199999995,s,completion,NA,NA,NA,671854.7000000010,671847.2,662163.062,662178.5,662179.728,671863.866,NA,5
Deep Question,html.Page,3_0_5_0_1_0_0,2023-01-08T10:22:04.278Z,NA,NA,Orientierung,urekebisho,NA,NA,NA,NA,NA,5837.034000000330,d,form submission,NA,urekebisho,NA,677701.2000000010,677700.9000000000,671847.2,671854.9000000000,671863.866,677714.154,NA,5
"""Richtig""-Screen",canvas.Screen,3_0_5_0_1_0_1,2023-01-08T10:22:09.275Z,NA,sdf,Orientierung,urekebisho,1,NA,NA,NA,NA,4999.800000000050,d,timeout,NA,NA,NA,682699.1000000020,682697.288,677697.488,677703.7000000010,677714.154,682713.954,NA,5
"""Falsch""-Screen",canvas.Screen,3_0_5_0_1_0_2,2023-01-08T10:22:09.279Z,NA,sdf,Orientierung,urekebisho,NA,NA,NA,NA,NA,NaN,d,skipped,NA,NA,NA,682703,682697.288,NA,682702.9000000000,NA,682713.954,NA,5
deep,flow.Sequence,3_0_5_0_1_0,2023-01-08T10:22:09.280Z,NA,sdf,Orientierung,urekebisho,NA,NA,NA,NA,NA,10833.421999999900,d,completion,NA,NA,NA,682703.2000000010,682697.288,671847.2,671854.9000000000,671863.866,682713.954,NA,5
shallow,flow.Sequence,3_0_5_0_1_1,2023-01-08T10:22:09.280Z,NA,sdf,Orientierung,urekebisho,NA,NA,NA,NA,NA,NaN,d,skipped,NA,NA,NA,682703.3000000010,682697.288,NA,682703.2000000010,NA,682713.954,NA,5
task  ,flow.Sequence,3_0_5_0_1,2023-01-08T10:22:09.280Z,NA,sdf,Orientierung,urekebisho,NA,NA,NA,NA,NA,10833.421999999900,d,completion,NA,NA,NA,682703.4000000000,682697.288,671847.2,671854.8000000010,671863.866,682713.954,NA,5
deep,flow.Sequence,3_0_5_0_2_0,2023-01-08T10:22:09.280Z,NA,sdf,Betrüger,mdanganyifu,NA,mwanamuziki,wastani,mahakama,NA,NaN,s,skipped,NA,NA,NA,682703.6000000020,682697.288,NA,682703.6000000020,NA,682713.954,NA,5
Shallow Question,html.Page,3_0_5_0_2_1_0,2023-01-08T10:22:14.195Z,NA,NA,Betrüger,mdanganyifu,NA,mwanamuziki,wastani,mahakama,NA,4904.545999999970,s,form submission,NA,mdanganyifu,NA,687619,687618.5,682697.288,682703.7000000010,682713.954,687631.002,NA,5
"""Richtig""-Screen",canvas.Screen,3_0_5_0_2_1_1,2023-01-08T10:22:19.193Z,NA,sdf,Betrüger,mdanganyifu,1,mwanamuziki,wastani,mahakama,NA,4999.800000000050,s,timeout,NA,NA,NA,692616.4000000000,692614.136,687614.336,687621.7000000010,687631.002,692630.802,NA,5
"""Falsch""-Screen",canvas.Screen,3_0_5_0_2_1_2,2023-01-08T10:22:19.198Z,NA,sdf,Betrüger,mdanganyifu,NA,mwanamuziki,wastani,mahakama,NA,NaN,s,skipped,NA,NA,NA,692621.3000000010,692614.136,NA,692621.1000000020,NA,692630.802,NA,5
shallow,flow.Sequence,3_0_5_0_2_1,2023-01-08T10:22:19.198Z,NA,sdf,Betrüger,mdanganyifu,NA,mwanamuziki,wastani,mahakama,NA,9900.18200000003,s,completion,NA,NA,NA,692621.4000000000,692614.136,682697.288,682703.6000000020,682713.954,692630.802,NA,5
task  ,flow.Sequence,3_0_5_0_2,2023-01-08T10:22:19.198Z,NA,sdf,Betrüger,mdanganyifu,NA,mwanamuziki,wastani,mahakama,NA,9900.18200000003,s,completion,NA,NA,NA,692621.5,692614.136,682697.288,682703.5,682713.954,692630.802,NA,5
Deep Question,html.Page,3_0_5_0_3_0_0,2023-01-08T10:22:24.394Z,NA,NA,Respekt,heshima,NA,NA,NA,NA,NA,5186.798000001470,d,form submission,NA,heshima,NA,697817.8000000010,697817.6000000020,692614.136,692621.6000000020,692630.802,697831.052,NA,5
"""Richtig""-Screen",canvas.Screen,3_0_5_0_3_0_1,2023-01-08T10:22:29.392Z,NA,sdf,Respekt,heshima,1,NA,NA,NA,NA,4999.79999999993,d,timeout,NA,NA,NA,702816.1000000020,702814.186,697814.386,697820.4000000000,697831.052,702830.852,NA,5
"""Falsch""-Screen",canvas.Screen,3_0_5_0_3_0_2,2023-01-08T10:22:29.397Z,NA,sdf,Respekt,heshima,NA,NA,NA,NA,NA,NaN,d,skipped,NA,NA,NA,702820.5,702814.186,NA,702820.3000000010,NA,702830.852,NA,5
deep,flow.Sequence,3_0_5_0_3_0,2023-01-08T10:22:29.397Z,NA,sdf,Respekt,heshima,NA,NA,NA,NA,NA,10183.384000000000,d,completion,NA,NA,NA,702820.7000000010,702814.186,692614.136,692621.6000000020,692630.802,702830.852,NA,5
shallow,flow.Sequence,3_0_5_0_3_1,2023-01-08T10:22:29.397Z,NA,sdf,Respekt,heshima,NA,NA,NA,NA,NA,NaN,d,skipped,NA,NA,NA,702820.9000000000,702814.186,NA,702820.8000000010,NA,702830.852,NA,5
task  ,flow.Sequence,3_0_5_0_3,2023-01-08T10:22:29.397Z,NA,sdf,Respekt,heshima,NA,NA,NA,NA,NA,10183.384000000000,d,completion,NA,NA,NA,702821,702814.186,692614.136,692621.5,692630.802,702830.852,NA,5
deep,flow.Sequence,3_0_5_0_4_0,2023-01-08T10:22:29.397Z,NA,sdf,Gefährdung,kuhatarisha,NA,uchokozi,udhaifu,makorowezo,NA,NaN,s,skipped,NA,NA,NA,702821.3000000010,702814.186,NA,702821.2000000010,NA,702830.852,NA,5
Shallow Question,html.Page,3_0_5_0_4_1_0,2023-01-08T10:22:38.813Z,NA,NA,Gefährdung,kuhatarisha,NA,uchokozi,udhaifu,makorowezo,NA,9404.848000001160,s,form submission,NA,kuhatarisha,NA,712236.5,712235.7000000010,702814.186,702821.4000000000,702830.852,712247.651,NA,5
"""Richtig""-Screen",canvas.Screen,3_0_5_0_4_1_1,2023-01-08T10:22:43.809Z,NA,sdf,Gefährdung,kuhatarisha,1,uchokozi,udhaifu,makorowezo,NA,4999.800000000050,s,timeout,NA,NA,NA,717232.8000000010,717230.785,712230.985,712239.4000000000,712247.651,717247.451,NA,5
"""Falsch""-Screen",canvas.Screen,3_0_5_0_4_1_2,2023-01-08T10:22:43.813Z,NA,sdf,Gefährdung,kuhatarisha,NA,uchokozi,udhaifu,makorowezo,NA,NaN,s,skipped,NA,NA,NA,717237,717230.785,NA,717236.8000000010,NA,717247.451,NA,5
shallow,flow.Sequence,3_0_5_0_4_1,2023-01-08T10:22:43.813Z,NA,sdf,Gefährdung,kuhatarisha,NA,uchokozi,udhaifu,makorowezo,NA,14399.933000000100,s,completion,NA,NA,NA,717237.1000000020,717230.785,702814.186,702821.3000000010,702830.852,717247.451,NA,5
task  ,flow.Sequence,3_0_5_0_4,2023-01-08T10:22:43.813Z,NA,sdf,Gefährdung,kuhatarisha,NA,uchokozi,udhaifu,makorowezo,NA,14399.933000000100,s,completion,NA,NA,NA,717237.2000000010,717230.785,702814.186,702821.1000000020,702830.852,717247.451,NA,5
Deep Question,html.Page,3_0_5_0_5_0_0,2023-01-08T10:23:01.777Z,NA,NA,Können,unaweza,NA,NA,NA,NA,NA,17953.64900000150,d,form submission,NA,udaweza,NA,735201.4000000000,735201.1000000020,717230.785,717237.4000000000,717247.451,735214.734,NA,5
"""Richtig""-Screen",canvas.Screen,3_0_5_0_5_0_1,2023-01-08T10:23:01.780Z,NA,sdf,Können,unaweza,NA,NA,NA,NA,NA,NaN,d,skipped,NA,NA,NA,735204.4000000000,735201.1000000020,NA,735204.3000000010,NA,735214.734,NA,5
"""Falsch""-Screen",canvas.Screen,3_0_5_0_5_0_2,2023-01-08T10:23:06.774Z,NA,sdf,Können,unaweza,0,NA,NA,NA,NA,4999.79999999993,d,timeout,NA,NA,NA,740198.8000000010,740197.868,735198.068,735205,735214.734,740214.534,NA,5
deep,flow.Sequence,3_0_5_0_5_0,2023-01-08T10:23:06.775Z,NA,sdf,Können,unaweza,NA,NA,NA,NA,NA,22950.417000000000,d,completion,NA,NA,NA,740199.3000000010,740197.868,717230.785,717237.4000000000,717247.451,740214.534,NA,5
shallow,flow.Sequence,3_0_5_0_5_1,2023-01-08T10:23:06.775Z,NA,sdf,Können,unaweza,NA,NA,NA,NA,NA,NaN,d,skipped,NA,NA,NA,740199.5,740197.868,NA,740199.4000000000,NA,740214.534,NA,5
task  ,flow.Sequence,3_0_5_0_5,2023-01-08T10:23:06.775Z,NA,sdf,Können,unaweza,NA,NA,NA,NA,NA,22950.417000000000,d,completion,NA,NA,NA,740199.7000000010,740197.868,717230.785,717237.3000000010,717247.451,740214.534,NA,5
deep,flow.Sequence,3_0_5_0_6_0,2023-01-08T10:23:06.776Z,NA,sdf,Kontrolle,kudhibiti,NA,mbinguni,kufunga,utegemezi,NA,NaN,s,skipped,NA,NA,NA,740200,740197.868,NA,740199.9000000000,NA,740214.534,NA,5
Shallow Question,html.Page,3_0_5_0_6_1_0,2023-01-08T10:23:14.412Z,NA,NA,Kontrolle,kudhibiti,NA,mbinguni,kufunga,utegemezi,NA,7621.566000001510,s,form submission,NA,kudhibiti,NA,747836.7000000010,747836.1000000020,740197.868,740200.2000000010,740214.534,747848.17,NA,5
"""Richtig""-Screen",canvas.Screen,3_0_5_0_6_1_1,2023-01-08T10:23:19.409Z,NA,sdf,Kontrolle,kudhibiti,1,mbinguni,kufunga,utegemezi,NA,4999.79999999993,s,timeout,NA,NA,NA,752833.8000000010,752831.304,747831.504,747840.4000000000,747848.17,752847.97,NA,5
"""Falsch""-Screen",canvas.Screen,3_0_5_0_6_1_2,2023-01-08T10:23:19.414Z,NA,sdf,Kontrolle,kudhibiti,NA,mbinguni,kufunga,utegemezi,NA,NaN,s,skipped,NA,NA,NA,752838.7000000010,752831.304,NA,752838.6000000020,NA,752847.97,NA,5
shallow,flow.Sequence,3_0_5_0_6_1,2023-01-08T10:23:19.414Z,NA,sdf,Kontrolle,kudhibiti,NA,mbinguni,kufunga,utegemezi,NA,12616.770000000000,s,completion,NA,NA,NA,752838.8000000010,752831.304,740197.868,740200.1000000020,740214.534,752847.97,NA,5
task  ,flow.Sequence,3_0_5_0_6,2023-01-08T10:23:19.414Z,NA,sdf,Kontrolle,kudhibiti,NA,mbinguni,kufunga,utegemezi,NA,12616.770000000000,s,completion,NA,NA,NA,752839,752831.304,740197.868,740199.9000000000,740214.534,752847.97,NA,5
Deep Question,html.Page,3_0_5_0_7_0_0,2023-01-08T10:23:26.994Z,NA,NA,Kreativität,ubunifu,NA,NA,NA,NA,NA,7570.030000000030,d,form submission,NA,udhaak,NA,760418.3000000010,760418,752831.304,752839.1000000020,752847.97,760431.686,NA,5
"""Richtig""-Screen",canvas.Screen,3_0_5_0_7_0_1,2023-01-08T10:23:26.996Z,NA,sdf,Kreativität,ubunifu,NA,NA,NA,NA,NA,NaN,d,skipped,NA,NA,NA,760421.1000000020,760418,NA,760421,NA,760431.686,NA,5
"""Falsch""-Screen",canvas.Screen,3_0_5_0_7_0_2,2023-01-08T10:23:31.992Z,NA,sdf,Kreativität,ubunifu,0,NA,NA,NA,NA,4999.800000000050,d,timeout,NA,NA,NA,765416.8000000010,765414.82,760415.02,760421.6000000020,760431.686,765431.486,NA,5
deep,flow.Sequence,3_0_5_0_7_0,2023-01-08T10:23:31.992Z,NA,sdf,Kreativität,ubunifu,NA,NA,NA,NA,NA,12566.850000000000,d,completion,NA,NA,NA,765417.1000000020,765414.82,752831.304,752839,752847.97,765431.486,NA,5
shallow,flow.Sequence,3_0_5_0_7_1,2023-01-08T10:23:31.993Z,NA,sdf,Kreativität,ubunifu,NA,NA,NA,NA,NA,NaN,d,skipped,NA,NA,NA,765417.2000000010,765414.82,NA,765417.2000000010,NA,765431.486,NA,5
task  ,flow.Sequence,3_0_5_0_7,2023-01-08T10:23:31.993Z,NA,sdf,Kreativität,ubunifu,NA,NA,NA,NA,NA,12566.850000000000,d,completion,NA,NA,NA,765417.4000000000,765414.82,752831.304,752839,752847.97,765431.486,NA,5
block,flow.Loop,3_0_5_0,2023-01-08T10:23:31.993Z,NA,sdf,NA,NA,NA,NA,NA,NA,NA,103235.09200000000,NA,completion,NA,NA,NA,765417.4000000000,765414.82,662163.062,662178.5,662179.728,765431.486,NA,5
weiter,canvas.Screen,3_0_5_1,2023-01-08T10:23:33.300Z,NA,sdf,NA,NA,NA,NA,NA,NA,NA,1289.6140000014600,NA,response,sdf,NA,keypress(Space),766724.4000000000,766721.1000000020,765414.82,765417.5,765431.486,766915.335,NA,5
check continue,flow.Sequence,3_0_5,2023-01-08T10:23:33.300Z,NA,sdf,NA,NA,NA,NA,NA,NA,NA,104541.37200000100,NA,completion,NA,NA,NA,766724.9000000000,766721.1000000020,662163.062,662178.5,662179.728,766915.335,NA,5
check continue,flow.Sequence,3_0_6,2023-01-08T10:23:33.326Z,NA,dfs,NA,NA,NA,NA,NA,NA,NA,NaN,NA,skipped,NA,NA,NA,766751.2000000010,766721.1000000020,NA,766751.1000000020,NA,766915.335,NA,6
check continue,flow.Sequence,3_0_7,2023-01-08T10:23:33.341Z,NA,df,NA,NA,NA,NA,NA,NA,NA,NaN,NA,skipped,NA,NA,NA,766765.7000000010,766721.1000000020,NA,766765.6000000020,NA,766915.335,NA,7
check continue,flow.Sequence,3_0_8,2023-01-08T10:23:33.353Z,NA,dfs,NA,NA,NA,NA,NA,NA,NA,NaN,NA,skipped,NA,NA,NA,766777.4000000000,766721.1000000020,NA,766777.3000000010,NA,766915.335,NA,8
check continue,flow.Sequence,3_0_9,2023-01-08T10:23:33.362Z,NA,dsf,NA,NA,NA,NA,NA,NA,NA,NaN,NA,skipped,NA,NA,NA,766786.9000000000,766721.1000000020,NA,766786.9000000000,NA,766915.335,NA,9
check continue,flow.Sequence,3_0_10,2023-01-08T10:23:33.371Z,NA,df,NA,NA,NA,NA,NA,NA,NA,NaN,NA,skipped,NA,NA,NA,766795.9000000000,766721.1000000020,NA,766795.9000000000,NA,766915.335,NA,10
check continue,flow.Sequence,3_0_11,2023-01-08T10:23:33.379Z,NA,dfs,NA,NA,NA,NA,NA,NA,NA,NaN,NA,skipped,NA,NA,NA,766803.8000000010,766721.1000000020,NA,766803.8000000010,NA,766915.335,NA,11
check continue,flow.Sequence,3_0_12,2023-01-08T10:23:33.387Z,NA,dsf,NA,NA,NA,NA,NA,NA,NA,NaN,NA,skipped,NA,NA,NA,766811.5,766721.1000000020,NA,766811.5,NA,766915.335,NA,12
check continue,flow.Sequence,3_0_13,2023-01-08T10:23:33.394Z,NA,dsf,NA,NA,NA,NA,NA,NA,NA,NaN,NA,skipped,NA,NA,NA,766818.4000000000,766721.1000000020,NA,766818.4000000000,NA,766915.335,NA,13
check continue,flow.Sequence,3_0_14,2023-01-08T10:23:33.401Z,NA,NA,NA,NA,NA,NA,NA,NA,NA,NaN,NA,skipped,NA,NA,NA,766825.4000000000,766721.1000000020,NA,766825.4000000000,NA,766915.335,NA,14
check continue,flow.Sequence,3_0_15,2023-01-08T10:23:33.407Z,NA,NA,NA,NA,NA,NA,NA,NA,NA,NaN,NA,skipped,NA,NA,NA,766831.9000000000,766721.1000000020,NA,766831.9000000000,NA,766915.335,NA,15
check continue,flow.Sequence,3_0_16,2023-01-08T10:23:33.414Z,NA,NA,NA,NA,NA,NA,NA,NA,NA,NaN,NA,skipped,NA,NA,NA,766838.3000000010,766721.1000000020,NA,766838.3000000010,NA,766915.335,NA,16
check continue,flow.Sequence,3_0_17,2023-01-08T10:23:33.421Z,NA,NA,NA,NA,NA,NA,NA,NA,NA,NaN,NA,skipped,NA,NA,NA,766845.5,766721.1000000020,NA,766845.5,NA,766915.335,NA,17
check continue,flow.Sequence,3_0_18,2023-01-08T10:23:33.427Z,NA,NA,NA,NA,NA,NA,NA,NA,NA,NaN,NA,skipped,NA,NA,NA,766851.6000000020,766721.1000000020,NA,766851.6000000020,NA,766915.335,NA,18
check continue,flow.Sequence,3_0_19,2023-01-08T10:23:33.433Z,NA,NA,NA,NA,NA,NA,NA,NA,NA,NaN,NA,skipped,NA,NA,NA,766857.9000000000,766721.1000000020,NA,766857.9000000000,NA,766915.335,NA,19
check continue,flow.Sequence,3_0_20,2023-01-08T10:23:33.440Z,NA,NA,NA,NA,NA,NA,NA,NA,NA,NaN,NA,skipped,NA,NA,NA,766864.3000000010,766721.1000000020,NA,766864.2000000010,NA,766915.335,NA,20
check continue,flow.Sequence,3_0_21,2023-01-08T10:23:33.446Z,NA,NA,NA,NA,NA,NA,NA,NA,NA,NaN,NA,skipped,NA,NA,NA,766870.6000000020,766721.1000000020,NA,766870.6000000020,NA,766915.335,NA,21
check continue,flow.Sequence,3_0_22,2023-01-08T10:23:33.452Z,NA,NA,NA,NA,NA,NA,NA,NA,NA,NaN,NA,skipped,NA,NA,NA,766876.5,766721.1000000020,NA,766876.5,NA,766915.335,NA,22
check continue,flow.Sequence,3_0_23,2023-01-08T10:23:33.458Z,NA,NA,NA,NA,NA,NA,NA,NA,NA,NaN,NA,skipped,NA,NA,NA,766882.9000000000,766721.1000000020,NA,766882.8000000010,NA,766915.335,NA,23
check continue,flow.Sequence,3_0_24,2023-01-08T10:23:33.464Z,NA,NA,NA,NA,NA,NA,NA,NA,NA,NaN,NA,skipped,NA,NA,NA,766888.8000000010,766721.1000000020,NA,766888.8000000010,NA,766915.335,NA,24
check continue,flow.Sequence,3_0_25,2023-01-08T10:23:33.471Z,NA,NA,NA,NA,NA,NA,NA,NA,NA,NaN,NA,skipped,NA,NA,NA,766895.8000000010,766721.1000000020,NA,766895.8000000010,NA,766915.335,NA,25
check continue,flow.Sequence,3_0_26,2023-01-08T10:23:33.477Z,NA,NA,NA,NA,NA,NA,NA,NA,NA,NaN,NA,skipped,NA,NA,NA,766902,766721.1000000020,NA,766902,NA,766915.335,NA,26
check continue,flow.Sequence,3_0_27,2023-01-08T10:23:33.484Z,NA,NA,NA,NA,NA,NA,NA,NA,NA,NaN,NA,skipped,NA,NA,NA,766908.4000000000,766721.1000000020,NA,766908.4000000000,NA,766915.335,NA,27
check continue,flow.Sequence,3_0_28,2023-01-08T10:23:33.490Z,NA,NA,NA,NA,NA,NA,NA,NA,NA,NaN,NA,skipped,NA,NA,NA,766914.2000000010,766721.1000000020,NA,766914.1000000020,NA,766915.335,NA,28
check continue,flow.Sequence,3_0_29,2023-01-08T10:23:33.501Z,NA,NA,NA,NA,NA,NA,NA,NA,NA,NaN,NA,skipped,NA,NA,NA,766925.9000000000,766721.1000000020,NA,766925.8000000010,NA,766915.335,NA,29
until continue,flow.Loop,3_0,2023-01-08T10:23:33.501Z,NA,NA,NA,NA,NA,NA,NA,NA,NA,581780.6840000020,NA,completion,NA,NA,NA,766926,766721.1000000020,184873.752,184935.40000000000,184940.416,766915.335,NA,NA
block 1,flow.Sequence,3,2023-01-08T10:23:33.501Z,NA,NA,NA,NA,NA,NA,NA,NA,NA,581780.6840000020,NA,completion,NA,NA,NA,766926,766721.1000000020,184873.752,184935.30000000100,184940.416,766915.335,NA,NA
1.Part Over,canvas.Screen,4,2023-01-08T10:23:35.887Z,NA,NA,NA,NA,NA,NA,NA,NA,NA,2393.1650000000400,NA,response,NA,NA,keypress(Space),769311.9000000000,769308.5,766715.343,766926,766915.335,769365.237,NA,NA
Deep Question,html.Page,5_0_0_0_0_0_0,2023-01-08T10:23:39.009Z,NA,NA,Papier,karatasi,NA,NA,NA,NA,NA,3067.7630000000400,d,form submission,NA,1,NA,772433.6000000020,772433,769348.571,769363.7000000010,769365.237,772448.447,NA,0
"""Richtig""-Screen",canvas.Screen,5_0_0_0_0_0_1,2023-01-08T10:23:39.010Z,NA,sdf,Papier,karatasi,NA,NA,NA,NA,NA,NaN,d,skipped,NA,NA,NA,772435.2000000010,772433,NA,772435.1000000020,NA,772448.447,NA,0
"""Falsch""-Screen",canvas.Screen,5_0_0_0_0_0_2,2023-01-08T10:23:44.009Z,NA,sdf,Papier,karatasi,0,NA,NA,NA,NA,4999.79999999993,d,timeout,NA,NA,NA,777434.3000000010,777431.581,772431.781,772435.9000000000,772448.447,777448.247,NA,0
deep,flow.Sequence,5_0_0_0_0_0,2023-01-08T10:23:44.010Z,NA,sdf,Papier,karatasi,NA,NA,NA,NA,NA,8066.344000000040,d,completion,NA,NA,NA,777434.9000000000,777431.581,769348.571,769363.7000000010,769365.237,777448.247,NA,0
shallow,flow.Sequence,5_0_0_0_0_1,2023-01-08T10:23:44.010Z,NA,sdf,Papier,karatasi,NA,NA,NA,NA,NA,NaN,d,skipped,NA,NA,NA,777435.1000000020,777431.581,NA,777435,NA,777448.247,NA,0
task  ,flow.Sequence,5_0_0_0_0,2023-01-08T10:23:44.010Z,NA,sdf,Papier,karatasi,NA,NA,NA,NA,NA,8066.344000000040,d,completion,NA,NA,NA,777435.4000000000,777431.581,769348.571,769363.7000000010,769365.237,777448.247,NA,0
deep,flow.Sequence,5_0_0_0_1_0,2023-01-08T10:23:44.011Z,NA,sdf,Vorwurf,mashtaka,NA,msukumo,mtangulizi,uenyekiti,NA,NaN,s,skipped,NA,NA,NA,777435.6000000020,777431.581,NA,777435.6000000020,NA,777448.247,NA,0
Shallow Question,html.Page,5_0_0_0_1_1_0,2023-01-08T10:23:48.379Z,NA,NA,Vorwurf,mashtaka,NA,msukumo,mtangulizi,uenyekiti,NA,4355.053000000770,s,form submission,NA,msukumo,NA,781803.8000000010,781803.3000000010,777431.581,777435.7000000010,777448.247,781815.34,NA,0
"""Richtig""-Screen",canvas.Screen,5_0_0_0_1_1_1,2023-01-08T10:23:48.383Z,NA,sdf,Vorwurf,mashtaka,NA,msukumo,mtangulizi,uenyekiti,NA,NaN,s,skipped,NA,NA,NA,781807.6000000020,781803.3000000010,NA,781807.4000000000,NA,781815.34,NA,0
"""Falsch""-Screen",canvas.Screen,5_0_0_0_1_1_2,2023-01-08T10:23:53.375Z,NA,sdf,Vorwurf,mashtaka,0,msukumo,mtangulizi,uenyekiti,NA,4999.800000000050,s,timeout,NA,NA,NA,786800.4000000000,786798.474,781798.674,781808.7000000010,781815.34,786815.14,NA,0
shallow,flow.Sequence,5_0_0_0_1_1,2023-01-08T10:23:53.376Z,NA,sdf,Vorwurf,mashtaka,NA,msukumo,mtangulizi,uenyekiti,NA,9350.227000000070,s,completion,NA,NA,NA,786801,786798.474,777431.581,777435.7000000010,777448.247,786815.14,NA,0
task  ,flow.Sequence,5_0_0_0_1,2023-01-08T10:23:53.376Z,NA,sdf,Vorwurf,mashtaka,NA,msukumo,mtangulizi,uenyekiti,NA,9350.227000000070,s,completion,NA,NA,NA,786801.2000000010,786798.474,777431.581,777435.4000000000,777448.247,786815.14,NA,0
Deep Question,html.Page,5_0_0_0_2_0_0,2023-01-08T10:23:56.608Z,NA,NA,Niveau,kiwango,NA,NA,NA,NA,NA,3217.359999999990,d,form submission,NA,1,NA,790033.1000000020,790032.5,786798.474,786801.5,786815.14,790032.212,NA,0
"""Richtig""-Screen",canvas.Screen,5_0_0_0_2_0_1,2023-01-08T10:23:56.611Z,NA,sdf,Niveau,kiwango,NA,NA,NA,NA,NA,NaN,d,skipped,NA,NA,NA,790036.1000000020,790032.5,NA,790035.9000000000,NA,790032.212,NA,0
"""Falsch""-Screen",canvas.Screen,5_0_0_0_2_0_2,2023-01-08T10:24:01.593Z,NA,sdf,Niveau,kiwango,0,NA,NA,NA,NA,4999.79999999993,d,timeout,NA,NA,NA,795018.1000000020,795015.346,790015.546,790036.7000000010,790032.212,795032.012,NA,0
deep,flow.Sequence,5_0_0_0_2_0,2023-01-08T10:24:01.594Z,NA,sdf,Niveau,kiwango,NA,NA,NA,NA,NA,8200.206000000010,d,completion,NA,NA,NA,795018.6000000020,795015.346,786798.474,786801.4000000000,786815.14,795032.012,NA,0
shallow,flow.Sequence,5_0_0_0_2_1,2023-01-08T10:24:01.594Z,NA,sdf,Niveau,kiwango,NA,NA,NA,NA,NA,NaN,d,skipped,NA,NA,NA,795018.9000000000,795015.346,NA,795018.8000000010,NA,795032.012,NA,0
task  ,flow.Sequence,5_0_0_0_2,2023-01-08T10:24:01.594Z,NA,sdf,Niveau,kiwango,NA,NA,NA,NA,NA,8200.206000000010,d,completion,NA,NA,NA,795019.2000000010,795015.346,786798.474,786801.4000000000,786815.14,795032.012,NA,0
Deep Question,html.Page,5_0_0_0_3_0_0,2023-01-08T10:24:03.919Z,NA,NA,Lawine,banguko,NA,NA,NA,NA,NA,2311.588000001500,d,form submission,NA,1,NA,797344.2000000010,797343.6000000020,795015.346,795019.4000000000,795032.012,797348.586,NA,0
"""Richtig""-Screen",canvas.Screen,5_0_0_0_3_0_1,2023-01-08T10:24:03.923Z,NA,sdf,Lawine,banguko,NA,NA,NA,NA,NA,NaN,d,skipped,NA,NA,NA,797348,797343.6000000020,NA,797347.8000000010,NA,797348.586,NA,0
"""Falsch""-Screen",canvas.Screen,5_0_0_0_3_0_2,2023-01-08T10:24:08.908Z,NA,sdf,Lawine,banguko,0,NA,NA,NA,NA,4999.800000000050,d,timeout,NA,NA,NA,802333.7000000010,802331.72,797331.92,797348.9000000000,797348.586,802348.386,NA,0
deep,flow.Sequence,5_0_0_0_3_0,2023-01-08T10:24:08.909Z,NA,sdf,Lawine,banguko,NA,NA,NA,NA,NA,7299.707999999980,d,completion,NA,NA,NA,802334.2000000010,802331.72,795015.346,795019.3000000010,795032.012,802348.386,NA,0
shallow,flow.Sequence,5_0_0_0_3_1,2023-01-08T10:24:08.909Z,NA,sdf,Lawine,banguko,NA,NA,NA,NA,NA,NaN,d,skipped,NA,NA,NA,802334.4000000000,802331.72,NA,802334.4000000000,NA,802348.386,NA,0
task  ,flow.Sequence,5_0_0_0_3,2023-01-08T10:24:08.909Z,NA,sdf,Lawine,banguko,NA,NA,NA,NA,NA,7299.707999999980,d,completion,NA,NA,NA,802334.7000000010,802331.72,795015.346,795019.2000000010,795032.012,802348.386,NA,0
deep,flow.Sequence,5_0_0_0_4_0,2023-01-08T10:24:08.910Z,NA,sdf,Körper,kiwiliwili,NA,mapambano,mpatanishi,kiolezo,NA,NaN,s,skipped,NA,NA,NA,802334.9000000000,802331.72,NA,802334.8000000010,NA,802348.386,NA,0
Shallow Question,html.Page,5_0_0_0_4_1_0,2023-01-08T10:24:15.179Z,NA,NA,Körper,kiwiliwili,NA,mapambano,mpatanishi,kiolezo,NA,6254.914000000690,s,form submission,NA,kiolezo,NA,808603.9000000000,808603.3000000010,802331.72,802335.1000000020,802348.386,808615.648,NA,0
"""Richtig""-Screen",canvas.Screen,5_0_0_0_4_1_1,2023-01-08T10:24:15.182Z,NA,sdf,Körper,kiwiliwili,NA,mapambano,mpatanishi,kiolezo,NA,NaN,s,skipped,NA,NA,NA,808607.4000000000,808603.3000000010,NA,808607.1000000020,NA,808615.648,NA,0
"""Falsch""-Screen",canvas.Screen,5_0_0_0_4_1_2,2023-01-08T10:24:20.175Z,NA,sdf,Körper,kiwiliwili,0,mapambano,mpatanishi,kiolezo,NA,4999.79999999993,s,timeout,NA,NA,NA,813600.3000000010,813598.782,808598.982,808608.6000000020,808615.648,813615.448,NA,0
shallow,flow.Sequence,5_0_0_0_4_1,2023-01-08T10:24:20.176Z,NA,sdf,Körper,kiwiliwili,NA,mapambano,mpatanishi,kiolezo,NA,11250.39600000000,s,completion,NA,NA,NA,813600.9000000000,813598.782,802331.72,802335.1000000020,802348.386,813615.448,NA,0
task  ,flow.Sequence,5_0_0_0_4,2023-01-08T10:24:20.176Z,NA,sdf,Körper,kiwiliwili,NA,mapambano,mpatanishi,kiolezo,NA,11250.39600000000,s,completion,NA,NA,NA,813601,813598.782,802331.72,802334.8000000010,802348.386,813615.448,NA,0
deep,flow.Sequence,5_0_0_0_5_0,2023-01-08T10:24:20.176Z,NA,sdf,Entwicklung,maendeleo,NA,uangavu,mshindwa,badiliko,NA,NaN,s,skipped,NA,NA,NA,813601.4000000000,813598.782,NA,813601.3000000010,NA,813615.448,NA,0
Shallow Question,html.Page,5_0_0_0_5_1_0,2023-01-08T10:24:26.412Z,NA,NA,Entwicklung,maendeleo,NA,uangavu,mshindwa,badiliko,NA,6221.552000000030,s,form submission,NA,uangavu,NA,819837.7000000010,819837,813598.782,813601.5,813615.448,819849.119,NA,0
"""Richtig""-Screen",canvas.Screen,5_0_0_0_5_1_1,2023-01-08T10:24:26.416Z,NA,sdf,Entwicklung,maendeleo,NA,uangavu,mshindwa,badiliko,NA,NaN,s,skipped,NA,NA,NA,819841.1000000020,819837,NA,819841,NA,819849.119,NA,0
"""Falsch""-Screen",canvas.Screen,5_0_0_0_5_1_2,2023-01-08T10:24:31.409Z,NA,sdf,Entwicklung,maendeleo,0,uangavu,mshindwa,badiliko,NA,4999.800000000050,s,timeout,NA,NA,NA,824834,824832.253,819832.453,819841.7000000010,819849.119,824848.919,NA,0
shallow,flow.Sequence,5_0_0_0_5_1,2023-01-08T10:24:31.409Z,NA,sdf,Entwicklung,maendeleo,NA,uangavu,mshindwa,badiliko,NA,11216.805000000100,s,completion,NA,NA,NA,824834.5,824832.253,813598.782,813601.5,813615.448,824848.919,NA,0
task  ,flow.Sequence,5_0_0_0_5,2023-01-08T10:24:31.409Z,NA,sdf,Entwicklung,maendeleo,NA,uangavu,mshindwa,badiliko,NA,11216.805000000100,s,completion,NA,NA,NA,824834.7000000010,824832.253,813598.782,813601.2000000010,813615.448,824848.919,NA,0
deep,flow.Sequence,5_0_0_0_6_0,2023-01-08T10:24:31.410Z,NA,sdf,Übersicht,kilindo,NA,mgusano,chipukizi,kulinganisha,NA,NaN,s,skipped,NA,NA,NA,824835.1000000020,824832.253,NA,824834.9000000000,NA,824848.919,NA,0
Shallow Question,html.Page,5_0_0_0_6_1_0,2023-01-08T10:24:34.795Z,NA,NA,Übersicht,kilindo,NA,mgusano,chipukizi,kulinganisha,NA,3371.0810000000100,s,form submission,NA,mgusano,NA,828220.5,828220,824832.253,824835.2000000010,824848.919,828232.698,NA,0
"""Richtig""-Screen",canvas.Screen,5_0_0_0_6_1_1,2023-01-08T10:24:34.798Z,NA,sdf,Übersicht,kilindo,NA,mgusano,chipukizi,kulinganisha,NA,NaN,s,skipped,NA,NA,NA,828223.5,828220,NA,828223.3000000010,NA,828232.698,NA,0
"""Falsch""-Screen",canvas.Screen,5_0_0_0_6_1_2,2023-01-08T10:24:39.793Z,NA,sdf,Übersicht,kilindo,0,mgusano,chipukizi,kulinganisha,NA,4999.800000000050,s,timeout,NA,NA,NA,833218.5,833215.832,828216.032,828224.6000000020,828232.698,833232.498,NA,0
shallow,flow.Sequence,5_0_0_0_6_1,2023-01-08T10:24:39.793Z,NA,sdf,Übersicht,kilindo,NA,mgusano,chipukizi,kulinganisha,NA,8366.913000000060,s,completion,NA,NA,NA,833218.9000000000,833215.832,824832.253,824835.2000000010,824848.919,833232.498,NA,0
task  ,flow.Sequence,5_0_0_0_6,2023-01-08T10:24:39.794Z,NA,sdf,Übersicht,kilindo,NA,mgusano,chipukizi,kulinganisha,NA,8366.913000000060,s,completion,NA,NA,NA,833219.2000000010,833215.832,824832.253,824834.8000000010,824848.919,833232.498,NA,0
Deep Question,html.Page,5_0_0_0_7_0_0,2023-01-08T10:24:42.308Z,NA,NA,System,maongozi,NA,NA,NA,NA,NA,2500.702000001100,d,form submission,NA,1,NA,835733.8000000010,835733.2000000010,833215.832,833219.4000000000,833232.498,835732.858,NA,0
"""Richtig""-Screen",canvas.Screen,5_0_0_0_7_0_1,2023-01-08T10:24:42.313Z,NA,sdf,System,maongozi,NA,NA,NA,NA,NA,NaN,d,skipped,NA,NA,NA,835738.7000000010,835733.2000000010,NA,835738.5,NA,835732.858,NA,0
"""Falsch""-Screen",canvas.Screen,5_0_0_0_7_0_2,2023-01-08T10:24:47.293Z,NA,sdf,System,maongozi,0,NA,NA,NA,NA,4999.800000000050,d,timeout,NA,NA,NA,840718.8000000010,840715.992,835716.192,835739.7000000010,835732.858,840732.658,NA,0
deep,flow.Sequence,5_0_0_0_7_0,2023-01-08T10:24:47.294Z,NA,sdf,System,maongozi,NA,NA,NA,NA,NA,7483.493999999950,d,completion,NA,NA,NA,840719.3000000010,840715.992,833215.832,833219.3000000010,833232.498,840732.658,NA,0
shallow,flow.Sequence,5_0_0_0_7_1,2023-01-08T10:24:47.294Z,NA,sdf,System,maongozi,NA,NA,NA,NA,NA,NaN,d,skipped,NA,NA,NA,840719.6000000020,840715.992,NA,840719.4000000000,NA,840732.658,NA,0
task  ,flow.Sequence,5_0_0_0_7,2023-01-08T10:24:47.294Z,NA,sdf,System,maongozi,NA,NA,NA,NA,NA,7483.493999999950,d,completion,NA,NA,NA,840719.8000000010,840715.992,833215.832,833219.3000000010,833232.498,840732.658,NA,0
block,flow.Loop,5_0_0_0,2023-01-08T10:24:47.294Z,NA,sdf,NA,NA,NA,NA,NA,NA,NA,71350.755,NA,completion,NA,NA,NA,840720,840715.992,769348.571,769363.7000000010,769365.237,840732.658,NA,0
weiter,canvas.Screen,5_0_0_1,2023-01-08T10:24:48.389Z,NA,sdf,NA,NA,NA,NA,NA,NA,NA,1076.7420000003200,NA,response,sdf,NA,keypress(Space),841814.6000000020,841809.4000000000,840715.992,840720.2000000010,840732.658,841849.28,NA,0
check continue,flow.Sequence,5_0_0,2023-01-08T10:24:48.389Z,NA,sdf,NA,NA,NA,NA,NA,NA,NA,72444.16300000040,NA,completion,NA,NA,NA,841814.9000000000,841809.4000000000,769348.571,769363.7000000010,769365.237,841849.28,NA,0
Deep Question,html.Page,5_0_1_0_0_0_0,2023-01-08T10:24:57.377Z,NA,NA,Lawine,banguko,NA,NA,NA,NA,NA,8953.620000000350,d,form submission,NA,banguko,NA,850803.2000000010,850802.9000000000,841832.614,841848.3000000010,841849.28,850816.181,NA,1
"""Richtig""-Screen",canvas.Screen,5_0_1_0_0_0_1,2023-01-08T10:25:02.375Z,NA,sdfdsf,Lawine,banguko,1,NA,NA,NA,NA,4999.800000000050,d,timeout,NA,NA,NA,855801.1000000020,855799.315,850799.515,850806,850816.181,855815.981,NA,1
"""Falsch""-Screen",canvas.Screen,5_0_1_0_0_0_2,2023-01-08T10:25:02.379Z,NA,sdfdsf,Lawine,banguko,NA,NA,NA,NA,NA,NaN,d,skipped,NA,NA,NA,855805.2000000010,855799.315,NA,855804.9000000000,NA,855815.981,NA,1
deep,flow.Sequence,5_0_1_0_0_0,2023-01-08T10:25:02.379Z,NA,sdfdsf,Lawine,banguko,NA,NA,NA,NA,NA,13950.034999999900,d,completion,NA,NA,NA,855805.3000000010,855799.315,841832.614,841848.3000000010,841849.28,855815.981,NA,1
shallow,flow.Sequence,5_0_1_0_0_1,2023-01-08T10:25:02.380Z,NA,sdfdsf,Lawine,banguko,NA,NA,NA,NA,NA,NaN,d,skipped,NA,NA,NA,855805.4000000000,855799.315,NA,855805.3000000010,NA,855815.981,NA,1
task  ,flow.Sequence,5_0_1_0_0,2023-01-08T10:25:02.380Z,NA,sdfdsf,Lawine,banguko,NA,NA,NA,NA,NA,13950.034999999900,d,completion,NA,NA,NA,855805.5,855799.315,841832.614,841848.3000000010,841849.28,855815.981,NA,1
deep,flow.Sequence,5_0_1_0_1_0,2023-01-08T10:25:02.380Z,NA,sdfdsf,Übersicht,kilindo,NA,mgusano,chipukizi,kulinganisha,NA,NaN,s,skipped,NA,NA,NA,855805.7000000010,855799.315,NA,855805.6000000020,NA,855815.981,NA,1
Shallow Question,html.Page,5_0_1_0_1_1_0,2023-01-08T10:25:09.529Z,NA,NA,Übersicht,kilindo,NA,mgusano,chipukizi,kulinganisha,NA,7138.719000001090,s,form submission,NA,kilindo,NA,862955.3000000010,862954.7000000010,855799.315,855805.8000000010,855815.981,862966.148,NA,1
"""Richtig""-Screen",canvas.Screen,5_0_1_0_1_1_1,2023-01-08T10:25:14.525Z,NA,sdfdsf,Übersicht,kilindo,1,mgusano,chipukizi,kulinganisha,NA,4999.79999999993,s,timeout,NA,NA,NA,867951.3000000010,867949.282,862949.482,862959.4000000000,862966.148,867965.948,NA,1
