observation,sender,sender_type,sender_id,response,response_action,ended_on,duration,time_run,time_render,time_show,time_end,time_commit,timestamp,time_switch,distractors,german,swahili,enc,distractor1,distractor2,distractor3,response_2,x,correct,x_2,url_vp,url_sess,meta_labjs_version,meta_location,meta_user_agent,meta_platform,meta_language,meta_locale,meta_time_zone,meta_timezone_offset,meta_screen_width,meta_screen_height,meta_scroll_width,meta_scroll_height,meta_window_inner_width,meta_window_inner_height,meta_device_pixel_ratio,meta_labjs_build_flavor,meta_labjs_build_commit
31f81,Introduction general,canvas.Screen,0,weiter,keypress(q),response,3251628.5539998,2509,13934.36,13967.646,3265596.1999998,3265599.6999998,2023-05-11T16:39:39Z,3265598.709,NULL,NA,NA,NA,NA,NA,NA,NA,NA,NA,NA,215,1,20.2.4,https://neurocog.fernuni.ch/studies/vweber/sfink/encoding_immediate/index.html?vp=215&sess=1,"Mozilla/5.0 (Windows NT 10.0; Win64; x64) AppleWebKit/537.36 (KHTML, like Gecko) Chrome/112.0.0.0 Safari/537.36",Win32,de-CH,de,Europe/Zurich,-120,1536,864,1536,706,1536,754,1.25,production,f5b4a49f956347addd546a832a3327688c2c0fef
31f81,Introduction practice,canvas.Screen,1_0,NA,keypress(Space),response,13092.190999857,3265600.3,3265581.89,3265598.709,3278690.8999999,3278691.5,2023-05-11T16:39:52Z,3278704.651,NULL,NA,NA,NA,NA,NA,NA,NA,NA,NA,NA,NA,NA,NA,NA,NA,NA,NA,NA,NA,NA,NA,NA,NA,NA,NA,NA,NA,NA,NA
31f81,Deep Question,html.Page,1_1_0_0_0,NA,NA,form submission,21971.048999809,3278691.5999999,3278688.335,3278704.651,3300675.6999998,3300675.8999999,2023-05-11T16:40:14Z,3300686.535,"c(""distractor1"", ""distractor2"", ""distractor3"")",Schatten,kivuli,d,NA,NA,NA,bidl,NA,NA,NA,NA,NA,NA,NA,NA,NA,NA,NA,NA,NA,NA,NA,NA,NA,NA,NA,NA,NA,NA
31f81,"""Richtig""-Screen",canvas.Screen,1_1_0_0_1,NA,NA,skipped,NA,3300677.8999999,NA,NA,3300675.6999998,3300678.0999999,2023-05-11T16:40:14Z,3300686.535,"c(""distractor1"", ""distractor2"", ""distractor3"")",Schatten,kivuli,d,NA,NA,NA,NA,NA,NA,NA,NA,NA,NA,NA,NA,NA,NA,NA,NA,NA,NA,NA,NA,NA,NA,NA,NA,NA,NA
31f81,"""Falsch""-Screen",canvas.Screen,1_1_0_0_2,NA,NA,timeout,4996.1359999999,3300679.0999999,3300670.514,3300686.535,3305666.07,3305670,2023-05-11T16:40:19Z,3305682.671,"c(""distractor1"", ""distractor2"", ""distractor3"")",Schatten,kivuli,d,NA,NA,NA,NA,NA,0,NA,NA,NA,NA,NA,NA,NA,NA,NA,NA,NA,NA,NA,NA,NA,NA,NA,NA,NA,NA
31f81,deep,flow.Sequence,1_1_0_0,NA,NA,completion,26961.419,3278691.5999999,3278688.335,3278704.651,3305666.07,3305670.3999999,2023-05-11T16:40:19Z,3305682.671,"c(""distractor1"", ""distractor2"", ""distractor3"")",Schatten,kivuli,d,NA,NA,NA,NA,NA,NA,NA,NA,NA,NA,NA,NA,NA,NA,NA,NA,NA,NA,NA,NA,NA,NA,NA,NA,NA,NA
31f81,shallow,flow.Sequence,1_1_0_1,NA,NA,skipped,NA,3305670.5999999,NA,NA,3305666.07,3305670.6999998,2023-05-11T16:40:19Z,3305682.671,"c(""distractor1"", ""distractor2"", ""distractor3"")",Schatten,kivuli,d,NA,NA,NA,NA,NA,NA,NA,NA,NA,NA,NA,NA,NA,NA,NA,NA,NA,NA,NA,NA,NA,NA,NA,NA,NA,NA
31f81,task,flow.Sequence,1_1_0,NA,NA,completion,26961.419,3278691.5,3278688.335,3278704.651,3305666.07,3305670.8999999,2023-05-11T16:40:19Z,3305682.671,"c(""distractor1"", ""distractor2"", ""distractor3"")",Schatten,kivuli,d,NA,NA,NA,NA,NA,NA,NA,NA,NA,NA,NA,NA,NA,NA,NA,NA,NA,NA,NA,NA,NA,NA,NA,NA,NA,NA
31f81,Deep Question,html.Page,1_1_1_0_0,NA,NA,form submission,14700.928999905,3305671.1999998,3305666.07,3305682.671,3320383.5999999,3320383.8,2023-05-11T16:40:34Z,3320387.022,"c(""distractor1"", ""distractor2"", ""distractor3"")",Gesundheit,salama,d,NA,NA,NA,ek,NA,NA,NA,NA,NA,NA,NA,NA,NA,NA,NA,NA,NA,NA,NA,NA,NA,NA,NA,NA,NA,NA
31f81,"""Richtig""-Screen",canvas.Screen,1_1_1_0_1,NA,NA,skipped,NA,3320386.5,NA,NA,3320383.5999999,3320386.6999998,2023-05-11T16:40:34Z,3320387.022,"c(""distractor1"", ""distractor2"", ""distractor3"")",Gesundheit,salama,d,NA,NA,NA,NA,NA,NA,NA,NA,NA,NA,NA,NA,NA,NA,NA,NA,NA,NA,NA,NA,NA,NA,NA,NA,NA,NA
31f81,"""Falsch""-Screen",canvas.Screen,1_1_1_0_2,NA,NA,timeout,4995.9100000001,3320387.8,3320370.473,3320387.022,3325366.68,3325367.3,2023-05-11T16:40:39Z,3325382.932,"c(""distractor1"", ""distractor2"", ""distractor3"")",Gesundheit,salama,d,NA,NA,NA,NA,NA,0,NA,NA,NA,NA,NA,NA,NA,NA,NA,NA,NA,NA,NA,NA,NA,NA,NA,NA,NA,NA
31f81,deep,flow.Sequence,1_1_1_0,NA,NA,completion,19684.009,3305671.0999999,3305666.07,3305682.671,3325366.68,3325367.5999999,2023-05-11T16:40:39Z,3325382.932,"c(""distractor1"", ""distractor2"", ""distractor3"")",Gesundheit,salama,d,NA,NA,NA,NA,NA,NA,NA,NA,NA,NA,NA,NA,NA,NA,NA,NA,NA,NA,NA,NA,NA,NA,NA,NA,NA,NA
31f81,shallow,flow.Sequence,1_1_1_1,NA,NA,skipped,NA,3325367.6999998,NA,NA,3325366.68,3325367.8,2023-05-11T16:40:39Z,3325382.932,"c(""distractor1"", ""distractor2"", ""distractor3"")",Gesundheit,salama,d,NA,NA,NA,NA,NA,NA,NA,NA,NA,NA,NA,NA,NA,NA,NA,NA,NA,NA,NA,NA,NA,NA,NA,NA,NA,NA
31f81,task,flow.Sequence,1_1_1,NA,NA,completion,19684.009,3305671.0999999,3305666.07,3305682.671,3325366.68,3325367.8999999,2023-05-11T16:40:39Z,3325382.932,"c(""distractor1"", ""distractor2"", ""distractor3"")",Gesundheit,salama,d,NA,NA,NA,NA,NA,NA,NA,NA,NA,NA,NA,NA,NA,NA,NA,NA,NA,NA,NA,NA,NA,NA,NA,NA,NA,NA
31f81,deep,flow.Sequence,1_1_2_0,NA,NA,skipped,NA,3325368,NA,NA,3325366.68,3325368,2023-05-11T16:40:39Z,3325382.932,"c(""distractor1"", ""distractor2"", ""distractor3"")",Rückhalt,msaada,s,muhula,auwali,kiwimbe,NA,NA,NA,NA,NA,NA,NA,NA,NA,NA,NA,NA,NA,NA,NA,NA,NA,NA,NA,NA,NA,NA,NA
31f81,Shallow Question,html.Page,1_1_2_1_0,NA,NA,form submission,12043.267999809,3325368.0999999,3325366.68,3325382.932,3337426.1999998,3337426.3999999,2023-05-11T16:40:51Z,3337439.684,"c(""distractor1"", ""distractor2"", ""distractor3"")",Rückhalt,msaada,s,muhula,auwali,kiwimbe,auwali,NA,NA,NA,NA,NA,NA,NA,NA,NA,NA,NA,NA,NA,NA,NA,NA,NA,NA,NA,NA,NA,NA
31f81,"""Richtig""-Screen",canvas.Screen,1_1_2_1_1,NA,NA,skipped,NA,3337428.5,NA,NA,3337426.1999998,3337428.5999999,2023-05-11T16:40:51Z,3337439.684,"c(""distractor1"", ""distractor2"", ""distractor3"")",Rückhalt,msaada,s,muhula,auwali,kiwimbe,NA,NA,NA,NA,NA,NA,NA,NA,NA,NA,NA,NA,NA,NA,NA,NA,NA,NA,NA,NA,NA,NA,NA
31f81,"""Falsch""-Screen",canvas.Screen,1_1_2_1_2,NA,NA,timeout,4995.8960000002,3337429.5,3337423.265,3337439.684,3342419.449,3342420,2023-05-11T16:40:56Z,3342435.58,"c(""distractor1"", ""distractor2"", ""distractor3"")",Rückhalt,msaada,s,muhula,auwali,kiwimbe,NA,NA,0,NA,NA,NA,NA,NA,NA,NA,NA,NA,NA,NA,NA,NA,NA,NA,NA,NA,NA,NA,NA
31f81,shallow,flow.Sequence,1_1_2_1,NA,NA,completion,17036.517,3325368,3325366.68,3325382.932,3342419.449,3342420.0999999,2023-05-11T16:40:56Z,3342435.58,"c(""distractor1"", ""distractor2"", ""distractor3"")",Rückhalt,msaada,s,muhula,auwali,kiwimbe,NA,NA,NA,NA,NA,NA,NA,NA,NA,NA,NA,NA,NA,NA,NA,NA,NA,NA,NA,NA,NA,NA,NA
31f81,task,flow.Sequence,1_1_2,NA,NA,completion,17036.517,3325367.8999999,3325366.68,3325382.932,3342419.449,3342420.1999998,2023-05-11T16:40:56Z,3342435.58,"c(""distractor1"", ""distractor2"", ""distractor3"")",Rückhalt,msaada,s,muhula,auwali,kiwimbe,NA,NA,NA,NA,NA,NA,NA,NA,NA,NA,NA,NA,NA,NA,NA,NA,NA,NA,NA,NA,NA,NA,NA
31f81,deep,flow.Sequence,1_1_3_0,NA,NA,skipped,NA,3342420.3999999,NA,NA,3342419.449,3342420.5,2023-05-11T16:40:56Z,3342435.58,"c(""distractor1"", ""distractor2"", ""distractor3"")",Kritik,lawama,s,dereva,nafasi,mawazo,NA,NA,NA,NA,NA,NA,NA,NA,NA,NA,NA,NA,NA,NA,NA,NA,NA,NA,NA,NA,NA,NA,NA
31f81,Shallow Question,html.Page,1_1_3_1_0,NA,NA,form submission,6418.8199998569,3342420.5,3342419.449,3342435.58,3348854.3999999,3348854.5,2023-05-11T16:41:02Z,3348863.626,"c(""distractor1"", ""distractor2"", ""distractor3"")",Kritik,lawama,s,dereva,nafasi,mawazo,nafasi,NA,NA,NA,NA,NA,NA,NA,NA,NA,NA,NA,NA,NA,NA,NA,NA,NA,NA,NA,NA,NA,NA
31f81,"""Richtig""-Screen",canvas.Screen,1_1_3_1_1,NA,NA,skipped,NA,3348856.8,NA,NA,3348854.3999999,3348857,2023-05-11T16:41:02Z,3348863.626,"c(""distractor1"", ""distractor2"", ""distractor3"")",Kritik,lawama,s,dereva,nafasi,mawazo,NA,NA,NA,NA,NA,NA,NA,NA,NA,NA,NA,NA,NA,NA,NA,NA,NA,NA,NA,NA,NA,NA,NA
31f81,"""Falsch""-Screen",canvas.Screen,1_1_3_1_2,NA,NA,timeout,4996.449,3348857.6999998,3348847.34,3348863.626,3353843.15,3353843.6999998,2023-05-11T16:41:07Z,3353860.075,"c(""distractor1"", ""distractor2"", ""distractor3"")",Kritik,lawama,s,dereva,nafasi,mawazo,NA,NA,0,NA,NA,NA,NA,NA,NA,NA,NA,NA,NA,NA,NA,NA,NA,NA,NA,NA,NA,NA,NA
31f81,shallow,flow.Sequence,1_1_3_1,NA,NA,completion,11407.57,3342420.5,3342419.449,3342435.58,3353843.15,3353843.8999999,2023-05-11T16:41:07Z,3353860.075,"c(""distractor1"", ""distractor2"", ""distractor3"")",Kritik,lawama,s,dereva,nafasi,mawazo,NA,NA,NA,NA,NA,NA,NA,NA,NA,NA,NA,NA,NA,NA,NA,NA,NA,NA,NA,NA,NA,NA,NA
31f81,task,flow.Sequence,1_1_3,NA,NA,completion,11407.57,3342420.3,3342419.449,3342435.58,3353843.15,3353844,2023-05-11T16:41:07Z,3353860.075,"c(""distractor1"", ""distractor2"", ""distractor3"")",Kritik,lawama,s,dereva,nafasi,mawazo,NA,NA,NA,NA,NA,NA,NA,NA,NA,NA,NA,NA,NA,NA,NA,NA,NA,NA,NA,NA,NA,NA,NA
31f81,deep,flow.Sequence,1_1_4_0,NA,NA,skipped,NA,3353844.0999999,NA,NA,3353843.15,3353844.1999998,2023-05-11T16:41:07Z,3353860.075,"c(""distractor1"", ""distractor2"", ""distractor3"")",Gegenwart,hadhara,s,katiba,jokofu,mikopo,NA,NA,NA,NA,NA,NA,NA,NA,NA,NA,NA,NA,NA,NA,NA,NA,NA,NA,NA,NA,NA,NA,NA
31f81,Shallow Question,html.Page,1_1_4_1_0,NA,NA,form submission,7027.8249998568,3353844.3,3353843.15,3353860.075,3360887.8999999,3360888.0999999,2023-05-11T16:41:14Z,3360904.267,"c(""distractor1"", ""distractor2"", ""distractor3"")",Gegenwart,hadhara,s,katiba,jokofu,mikopo,hadhara,NA,NA,NA,NA,NA,NA,NA,NA,NA,NA,NA,NA,NA,NA,NA,NA,NA,NA,NA,NA,NA,NA
31f81,"""Richtig""-Screen",canvas.Screen,1_1_4_1_1,NA,NA,timeout,4996.0010000002,3360890.6999998,3360887.074,3360904.267,3365882.996,3365883.8999999,2023-05-11T16:41:19Z,3365900.268,"c(""distractor1"", ""distractor2"", ""distractor3"")",Gegenwart,hadhara,s,katiba,jokofu,mikopo,NA,NA,1,NA,NA,NA,NA,NA,NA,NA,NA,NA,NA,NA,NA,NA,NA,NA,NA,NA,NA,NA,NA
31f81,"""Falsch""-Screen",canvas.Screen,1_1_4_1_2,NA,NA,skipped,NA,3365885.8,NA,NA,3365882.996,3365885.8999999,2023-05-11T16:41:19Z,3365900.268,"c(""distractor1"", ""distractor2"", ""distractor3"")",Gegenwart,hadhara,s,katiba,jokofu,mikopo,NA,NA,NA,NA,NA,NA,NA,NA,NA,NA,NA,NA,NA,NA,NA,NA,NA,NA,NA,NA,NA,NA,NA
31f81,shallow,flow.Sequence,1_1_4_1,NA,NA,completion,12022.921,3353844.1999998,3353843.15,3353860.075,3365882.996,3365886.0999999,2023-05-11T16:41:19Z,3365900.268,"c(""distractor1"", ""distractor2"", ""distractor3"")",Gegenwart,hadhara,s,katiba,jokofu,mikopo,NA,NA,NA,NA,NA,NA,NA,NA,NA,NA,NA,NA,NA,NA,NA,NA,NA,NA,NA,NA,NA,NA,NA
31f81,task,flow.Sequence,1_1_4,NA,NA,completion,12022.921,3353844,3353843.15,3353860.075,3365882.996,3365886.1999998,2023-05-11T16:41:19Z,3365900.268,"c(""distractor1"", ""distractor2"", ""distractor3"")",Gegenwart,hadhara,s,katiba,jokofu,mikopo,NA,NA,NA,NA,NA,NA,NA,NA,NA,NA,NA,NA,NA,NA,NA,NA,NA,NA,NA,NA,NA,NA,NA
31f81,Deep Question,html.Page,1_1_5_0_0,NA,NA,form submission,7494.4319998091,3365886.1999998,3365882.996,3365900.268,3373394.6999998,3373394.8999999,2023-05-11T16:41:27Z,3373410.142,"c(""distractor1"", ""distractor2"", ""distractor3"")",Qualität,mtindo,d,NA,NA,NA,e,NA,NA,NA,NA,NA,NA,NA,NA,NA,NA,NA,NA,NA,NA,NA,NA,NA,NA,NA,NA,NA,NA
31f81,"""Richtig""-Screen",canvas.Screen,1_1_5_0_1,NA,NA,skipped,NA,3373397.8,NA,NA,3373394.6999998,3373398,2023-05-11T16:41:27Z,3373410.142,"c(""distractor1"", ""distractor2"", ""distractor3"")",Qualität,mtindo,d,NA,NA,NA,NA,NA,NA,NA,NA,NA,NA,NA,NA,NA,NA,NA,NA,NA,NA,NA,NA,NA,NA,NA,NA,NA,NA
31f81,"""Falsch""-Screen",canvas.Screen,1_1_5_0_2,NA,NA,timeout,4995.983,3373398.8999999,3373394.052,3373410.142,3378389.994,3378391.1999998,2023-05-11T16:41:32Z,3378406.125,"c(""distractor1"", ""distractor2"", ""distractor3"")",Qualität,mtindo,d,NA,NA,NA,NA,NA,0,NA,NA,NA,NA,NA,NA,NA,NA,NA,NA,NA,NA,NA,NA,NA,NA,NA,NA,NA,NA
31f81,deep,flow.Sequence,1_1_5_0,NA,NA,completion,12489.726,3365886.1999998,3365882.996,3365900.268,3378389.994,3378391.5999999,2023-05-11T16:41:32Z,3378406.125,"c(""distractor1"", ""distractor2"", ""distractor3"")",Qualität,mtindo,d,NA,NA,NA,NA,NA,NA,NA,NA,NA,NA,NA,NA,NA,NA,NA,NA,NA,NA,NA,NA,NA,NA,NA,NA,NA,NA
31f81,shallow,flow.Sequence,1_1_5_1,NA,NA,skipped,NA,3378391.8,NA,NA,3378389.994,3378392.0999999,2023-05-11T16:41:32Z,3378406.125,"c(""distractor1"", ""distractor2"", ""distractor3"")",Qualität,mtindo,d,NA,NA,NA,NA,NA,NA,NA,NA,NA,NA,NA,NA,NA,NA,NA,NA,NA,NA,NA,NA,NA,NA,NA,NA,NA,NA
31f81,task,flow.Sequence,1_1_5,NA,NA,completion,12489.726,3365886.1999998,3365882.996,3365900.268,3378389.994,3378392.3999999,2023-05-11T16:41:32Z,3378406.125,"c(""distractor1"", ""distractor2"", ""distractor3"")",Qualität,mtindo,d,NA,NA,NA,NA,NA,NA,NA,NA,NA,NA,NA,NA,NA,NA,NA,NA,NA,NA,NA,NA,NA,NA,NA,NA,NA,NA
31f81,block,flow.Loop,1_1,NA,NA,completion,99685.343,3278691.5,3278688.335,3278704.651,3378389.994,3378393,2023-05-11T16:41:32Z,3378406.125,"c(""distractor1"", ""distractor2"", ""distractor3"")",NA,NA,NA,NA,NA,NA,NA,NA,NA,NA,NA,NA,NA,NA,NA,NA,NA,NA,NA,NA,NA,NA,NA,NA,NA,NA,NA,NA,NA
31f81,Practice,flow.Sequence,1,NA,NA,completion,112791.285,3265600.1999998,3265581.89,3265598.709,3378389.994,3378393.3999999,2023-05-11T16:41:32Z,3378406.125,NULL,NA,NA,NA,NA,NA,NA,NA,NA,NA,NA,NA,NA,NA,NA,NA,NA,NA,NA,NA,NA,NA,NA,NA,NA,NA,NA,NA,NA,NA
31f81,Experiment start,canvas.Screen,2,weiter,keypress(q),response,13891.274999857,3378393.5999999,3378389.994,3378406.125,3392297.3999999,3392298.3999999,2023-05-11T16:41:46Z,3392394.533,NULL,NA,NA,NA,NA,NA,NA,NA,NA,NA,NA,NA,NA,NA,NA,NA,NA,NA,NA,NA,NA,NA,NA,NA,NA,NA,NA,NA,NA,NA
31f81,deep,flow.Sequence,3_0_0_0_0_0,NA,NA,skipped,NA,3392384.8999999,NA,NA,3392297.3999999,3392385,2023-05-11T16:41:46Z,3392394.533,NULL,Zufall,kikuti,s,kukosekana,uchoraji,leseni,NA,sdf,NA,0,NA,NA,NA,NA,NA,NA,NA,NA,NA,NA,NA,NA,NA,NA,NA,NA,NA,NA,NA
31f81,Shallow Question,html.Page,3_0_0_0_0_1_0,NA,NA,form submission,10206.566999905,3392385.0999999,3392377.313,3392394.533,3402601.0999999,3402601.3,2023-05-11T16:41:56Z,3402602.779,NULL,Zufall,kikuti,s,kukosekana,uchoraji,leseni,kukosekana,NA,NA,0,NA,NA,NA,NA,NA,NA,NA,NA,NA,NA,NA,NA,NA,NA,NA,NA,NA,NA,NA
31f81,"""Richtig""-Screen",canvas.Screen,3_0_0_0_0_1_1,NA,NA,skipped,NA,3402603.1999998,NA,NA,3402601.0999999,3402603.3,2023-05-11T16:41:56Z,3402602.779,NULL,Zufall,kikuti,s,kukosekana,uchoraji,leseni,NA,sdf,NA,0,NA,NA,NA,NA,NA,NA,NA,NA,NA,NA,NA,NA,NA,NA,NA,NA,NA,NA,NA
31f81,"""Falsch""-Screen",canvas.Screen,3_0_0_0_0_1_2,NA,NA,timeout,4996.6119999997,3402603.8,3402586.16,3402602.779,3407582.601,3407583.1999998,2023-05-11T16:42:01Z,3407599.391,NULL,Zufall,kikuti,s,kukosekana,uchoraji,leseni,NA,sdf,0,0,NA,NA,NA,NA,NA,NA,NA,NA,NA,NA,NA,NA,NA,NA,NA,NA,NA,NA,NA
31f81,shallow,flow.Sequence,3_0_0_0_0_1,NA,NA,completion,15188.068,3392385.0999999,3392377.313,3392394.533,3407582.601,3407583.3999999,2023-05-11T16:42:01Z,3407599.391,NULL,Zufall,kikuti,s,kukosekana,uchoraji,leseni,NA,sdf,NA,0,NA,NA,NA,NA,NA,NA,NA,NA,NA,NA,NA,NA,NA,NA,NA,NA,NA,NA,NA
31f81,task,flow.Sequence,3_0_0_0_0,NA,NA,completion,15188.068,3392384.8,3392377.313,3392394.533,3407582.601,3407583.5999999,2023-05-11T16:42:01Z,3407599.391,NULL,Zufall,kikuti,s,kukosekana,uchoraji,leseni,NA,sdf,NA,0,NA,NA,NA,NA,NA,NA,NA,NA,NA,NA,NA,NA,NA,NA,NA,NA,NA,NA,NA
31f81,Deep Question,html.Page,3_0_0_0_1_0_0,NA,NA,form submission,3908.4089999525,3407583.6999998,3407582.601,3407599.391,3411507.8,3411507.8999999,2023-05-11T16:42:05Z,3411512.103,NULL,Wettbewerb,ushindani,d,NA,NA,NA,n,NA,NA,0,NA,NA,NA,NA,NA,NA,NA,NA,NA,NA,NA,NA,NA,NA,NA,NA,NA,NA,NA
31f81,"""Richtig""-Screen",canvas.Screen,3_0_0_0_1_0_1,NA,NA,skipped,NA,3411510.5,NA,NA,3411507.8,3411510.5999999,2023-05-11T16:42:05Z,3411512.103,NULL,Wettbewerb,ushindani,d,NA,NA,NA,NA,sdf,NA,0,NA,NA,NA,NA,NA,NA,NA,NA,NA,NA,NA,NA,NA,NA,NA,NA,NA,NA,NA
31f81,"""Falsch""-Screen",canvas.Screen,3_0_0_0_1_0_2,NA,NA,timeout,4995.9509999999,3411511.6999998,3411496.071,3411512.103,3416491.515,3416492.8,2023-05-11T16:42:10Z,3416508.054,NULL,Wettbewerb,ushindani,d,NA,NA,NA,NA,sdf,0,0,NA,NA,NA,NA,NA,NA,NA,NA,NA,NA,NA,NA,NA,NA,NA,NA,NA,NA,NA
31f81,deep,flow.Sequence,3_0_0_0_1_0,NA,NA,completion,8892.1240000003,3407583.5999999,3407582.601,3407599.391,3416491.515,3416493.5999999,2023-05-11T16:42:10Z,3416508.054,NULL,Wettbewerb,ushindani,d,NA,NA,NA,NA,sdf,NA,0,NA,NA,NA,NA,NA,NA,NA,NA,NA,NA,NA,NA,NA,NA,NA,NA,NA,NA,NA
31f81,shallow,flow.Sequence,3_0_0_0_1_1,NA,NA,skipped,NA,3416494,NA,NA,3416491.515,3416494.3999999,2023-05-11T16:42:10Z,3416508.054,NULL,Wettbewerb,ushindani,d,NA,NA,NA,NA,sdf,NA,0,NA,NA,NA,NA,NA,NA,NA,NA,NA,NA,NA,NA,NA,NA,NA,NA,NA,NA,NA
31f81,task,flow.Sequence,3_0_0_0_1,NA,NA,completion,8892.1240000003,3407583.5999999,3407582.601,3407599.391,3416491.515,3416494.8,2023-05-11T16:42:10Z,3416508.054,NULL,Wettbewerb,ushindani,d,NA,NA,NA,NA,sdf,NA,0,NA,NA,NA,NA,NA,NA,NA,NA,NA,NA,NA,NA,NA,NA,NA,NA,NA,NA,NA
31f81,deep,flow.Sequence,3_0_0_0_2_0,NA,NA,skipped,NA,3416495.1999998,NA,NA,3416491.515,3416495.5,2023-05-11T16:42:10Z,3416508.054,NULL,Abrechnung,uhasibu,s,kusahihisha,mpambano,mashambulizi,NA,sdf,NA,0,NA,NA,NA,NA,NA,NA,NA,NA,NA,NA,NA,NA,NA,NA,NA,NA,NA,NA,NA
31f81,Shallow Question,html.Page,3_0_0_0_2_1_0,NA,NA,form submission,6066.2459999523,3416495.8999999,3416491.515,3416508.054,3422574.3,3422574.5,2023-05-11T16:42:16Z,3422586.776,NULL,Abrechnung,uhasibu,s,kusahihisha,mpambano,mashambulizi,kusahihisha,NA,NA,0,NA,NA,NA,NA,NA,NA,NA,NA,NA,NA,NA,NA,NA,NA,NA,NA,NA,NA,NA
31f81,"""Richtig""-Screen",canvas.Screen,3_0_0_0_2_1_1,NA,NA,skipped,NA,3422576.0999999,NA,NA,3422574.3,3422576.0999999,2023-05-11T16:42:16Z,3422586.776,NULL,Abrechnung,uhasibu,s,kusahihisha,mpambano,mashambulizi,NA,sdf,NA,0,NA,NA,NA,NA,NA,NA,NA,NA,NA,NA,NA,NA,NA,NA,NA,NA,NA,NA,NA
31f81,"""Falsch""-Screen",canvas.Screen,3_0_0_0_2_1_2,NA,NA,timeout,4996.1259999997,3422576.6999998,3422569.591,3422586.776,3427565.622,3427566,2023-05-11T16:42:21Z,3427582.902,NULL,Abrechnung,uhasibu,s,kusahihisha,mpambano,mashambulizi,NA,sdf,0,0,NA,NA,NA,NA,NA,NA,NA,NA,NA,NA,NA,NA,NA,NA,NA,NA,NA,NA,NA
31f81,shallow,flow.Sequence,3_0_0_0_2_1,NA,NA,completion,11057.568,3416495.8,3416491.515,3416508.054,3427565.622,3427566.1999998,2023-05-11T16:42:21Z,3427582.902,NULL,Abrechnung,uhasibu,s,kusahihisha,mpambano,mashambulizi,NA,sdf,NA,0,NA,NA,NA,NA,NA,NA,NA,NA,NA,NA,NA,NA,NA,NA,NA,NA,NA,NA,NA
31f81,task,flow.Sequence,3_0_0_0_2,NA,NA,completion,11057.568,3416495.0999999,3416491.515,3416508.054,3427565.622,3427566.3,2023-05-11T16:42:21Z,3427582.902,NULL,Abrechnung,uhasibu,s,kusahihisha,mpambano,mashambulizi,NA,sdf,NA,0,NA,NA,NA,NA,NA,NA,NA,NA,NA,NA,NA,NA,NA,NA,NA,NA,NA,NA,NA
31f81,deep,flow.Sequence,3_0_0_0_3_0,NA,NA,skipped,NA,3427566.3999999,NA,NA,3427565.622,3427566.3999999,2023-05-11T16:42:21Z,3427582.902,NULL,Schönheit,kirembo,s,mahojiano,msisimko,jitihadi,NA,sdf,NA,0,NA,NA,NA,NA,NA,NA,NA,NA,NA,NA,NA,NA,NA,NA,NA,NA,NA,NA,NA
31f81,Shallow Question,html.Page,3_0_0_0_3_1_0,NA,NA,form submission,8489.3979999525,3427566.5,3427565.622,3427582.902,3436072.3,3436072.5,2023-05-11T16:42:29Z,3436075.252,NULL,Schönheit,kirembo,s,mahojiano,msisimko,jitihadi,msisimko,NA,NA,0,NA,NA,NA,NA,NA,NA,NA,NA,NA,NA,NA,NA,NA,NA,NA,NA,NA,NA,NA
31f81,"""Richtig""-Screen",canvas.Screen,3_0_0_0_3_1_1,NA,NA,skipped,NA,3436074.8,NA,NA,3436072.3,3436075,2023-05-11T16:42:29Z,3436075.252,NULL,Schönheit,kirembo,s,mahojiano,msisimko,jitihadi,NA,sdf,NA,0,NA,NA,NA,NA,NA,NA,NA,NA,NA,NA,NA,NA,NA,NA,NA,NA,NA,NA,NA
31f81,"""Falsch""-Screen",canvas.Screen,3_0_0_0_3_1_2,NA,NA,timeout,4996.1540000001,3436076.0999999,3436058.483,3436075.252,3441054.648,3441055.8999999,2023-05-11T16:42:34Z,3441071.406,NULL,Schönheit,kirembo,s,mahojiano,msisimko,jitihadi,NA,sdf,0,0,NA,NA,NA,NA,NA,NA,NA,NA,NA,NA,NA,NA,NA,NA,NA,NA,NA,NA,NA
31f81,shallow,flow.Sequence,3_0_0_0_3_1,NA,NA,completion,13471.746,3427566.5,3427565.622,3427582.902,3441054.648,3441056.5,2023-05-11T16:42:34Z,3441071.406,NULL,Schönheit,kirembo,s,mahojiano,msisimko,jitihadi,NA,sdf,NA,0,NA,NA,NA,NA,NA,NA,NA,NA,NA,NA,NA,NA,NA,NA,NA,NA,NA,NA,NA
31f81,task,flow.Sequence,3_0_0_0_3,NA,NA,completion,13471.746,3427566.3,3427565.622,3427582.902,3441054.648,3441056.8,2023-05-11T16:42:34Z,3441071.406,NULL,Schönheit,kirembo,s,mahojiano,msisimko,jitihadi,NA,sdf,NA,0,NA,NA,NA,NA,NA,NA,NA,NA,NA,NA,NA,NA,NA,NA,NA,NA,NA,NA,NA
31f81,Deep Question,html.Page,3_0_0_0_4_0_0,NA,NA,form submission,3553.094,3441057.1999998,3441054.648,3441071.406,3444624.5,3444624.6999998,2023-05-11T16:42:38Z,3444634.923,NULL,Sänger,mwimbaji,d,NA,NA,NA,n,NA,NA,0,NA,NA,NA,NA,NA,NA,NA,NA,NA,NA,NA,NA,NA,NA,NA,NA,NA,NA,NA
31f81,"""Richtig""-Screen",canvas.Screen,3_0_0_0_4_0_1,NA,NA,skipped,NA,3444626.5,NA,NA,3444624.5,3444626.6999998,2023-05-11T16:42:38Z,3444634.923,NULL,Sänger,mwimbaji,d,NA,NA,NA,NA,sdf,NA,0,NA,NA,NA,NA,NA,NA,NA,NA,NA,NA,NA,NA,NA,NA,NA,NA,NA,NA,NA
31f81,"""Falsch""-Screen",canvas.Screen,3_0_0_0_4_0_2,NA,NA,timeout,4996.2230000002,3444627.3,3444618.843,3444634.923,3449614.199,3449616.3,2023-05-11T16:42:43Z,3449631.146,NULL,Sänger,mwimbaji,d,NA,NA,NA,NA,sdf,0,0,NA,NA,NA,NA,NA,NA,NA,NA,NA,NA,NA,NA,NA,NA,NA,NA,NA,NA,NA
31f81,deep,flow.Sequence,3_0_0_0_4_0,NA,NA,completion,8542.7930000001,3441057.0999999,3441054.648,3441071.406,3449614.199,3449616.3999999,2023-05-11T16:42:43Z,3449631.146,NULL,Sänger,mwimbaji,d,NA,NA,NA,NA,sdf,NA,0,NA,NA,NA,NA,NA,NA,NA,NA,NA,NA,NA,NA,NA,NA,NA,NA,NA,NA,NA
31f81,shallow,flow.Sequence,3_0_0_0_4_1,NA,NA,skipped,NA,3449616.5999999,NA,NA,3449614.199,3449616.6999998,2023-05-11T16:42:43Z,3449631.146,NULL,Sänger,mwimbaji,d,NA,NA,NA,NA,sdf,NA,0,NA,NA,NA,NA,NA,NA,NA,NA,NA,NA,NA,NA,NA,NA,NA,NA,NA,NA,NA
31f81,task,flow.Sequence,3_0_0_0_4,NA,NA,completion,8542.7930000001,3441057,3441054.648,3441071.406,3449614.199,3449616.8999999,2023-05-11T16:42:43Z,3449631.146,NULL,Sänger,mwimbaji,d,NA,NA,NA,NA,sdf,NA,0,NA,NA,NA,NA,NA,NA,NA,NA,NA,NA,NA,NA,NA,NA,NA,NA,NA,NA,NA
31f81,Deep Question,html.Page,3_0_0_0_5_0_0,NA,NA,form submission,3893.4539999045,3449616.8999999,3449614.199,3449631.146,3453524.5999999,3453524.8999999,2023-05-11T16:42:47Z,3453527.586,NULL,Auftrag,uagizaji,d,NA,NA,NA,n,NA,NA,0,NA,NA,NA,NA,NA,NA,NA,NA,NA,NA,NA,NA,NA,NA,NA,NA,NA,NA,NA
31f81,"""Richtig""-Screen",canvas.Screen,3_0_0_0_5_0_1,NA,NA,skipped,NA,3453527,NA,NA,3453524.5999999,3453527.1999998,2023-05-11T16:42:47Z,3453527.586,NULL,Auftrag,uagizaji,d,NA,NA,NA,NA,sdf,NA,0,NA,NA,NA,NA,NA,NA,NA,NA,NA,NA,NA,NA,NA,NA,NA,NA,NA,NA,NA
31f81,"""Falsch""-Screen",canvas.Screen,3_0_0_0_5_0_2,NA,NA,timeout,4995.906,3453527.8999999,3453511.582,3453527.586,3458506.895,3458509.0999999,2023-05-11T16:42:52Z,3458523.492,NULL,Auftrag,uagizaji,d,NA,NA,NA,NA,sdf,0,0,NA,NA,NA,NA,NA,NA,NA,NA,NA,NA,NA,NA,NA,NA,NA,NA,NA,NA,NA
31f81,deep,flow.Sequence,3_0_0_0_5_0,NA,NA,completion,8875.7489999998,3449616.8999999,3449614.199,3449631.146,3458506.895,3458509.3,2023-05-11T16:42:52Z,3458523.492,NULL,Auftrag,uagizaji,d,NA,NA,NA,NA,sdf,NA,0,NA,NA,NA,NA,NA,NA,NA,NA,NA,NA,NA,NA,NA,NA,NA,NA,NA,NA,NA
31f81,shallow,flow.Sequence,3_0_0_0_5_1,NA,NA,skipped,NA,3458509.5,NA,NA,3458506.895,3458509.5999999,2023-05-11T16:42:52Z,3458523.492,NULL,Auftrag,uagizaji,d,NA,NA,NA,NA,sdf,NA,0,NA,NA,NA,NA,NA,NA,NA,NA,NA,NA,NA,NA,NA,NA,NA,NA,NA,NA,NA
31f81,task,flow.Sequence,3_0_0_0_5,NA,NA,completion,8875.7489999998,3449616.8999999,3449614.199,3449631.146,3458506.895,3458509.6999998,2023-05-11T16:42:52Z,3458523.492,NULL,Auftrag,uagizaji,d,NA,NA,NA,NA,sdf,NA,0,NA,NA,NA,NA,NA,NA,NA,NA,NA,NA,NA,NA,NA,NA,NA,NA,NA,NA,NA
31f81,deep,flow.Sequence,3_0_0_0_6_0,NA,NA,skipped,NA,3458509.8999999,NA,NA,3458506.895,3458510,2023-05-11T16:42:52Z,3458523.492,NULL,Kanzler,diwani,s,rasilmali,mahitaji,maabudu,NA,sdf,NA,0,NA,NA,NA,NA,NA,NA,NA,NA,NA,NA,NA,NA,NA,NA,NA,NA,NA,NA,NA
31f81,Shallow Question,html.Page,3_0_0_0_6_1_0,NA,NA,form submission,5977.5079999999,3458510,3458506.895,3458523.492,3464501,3464501.0999999,2023-05-11T16:42:58Z,3464501.877,NULL,Kanzler,diwani,s,rasilmali,mahitaji,maabudu,diwani,NA,NA,0,NA,NA,NA,NA,NA,NA,NA,NA,NA,NA,NA,NA,NA,NA,NA,NA,NA,NA,NA
31f81,"""Richtig""-Screen",canvas.Screen,3_0_0_0_6_1_1,NA,NA,timeout,4995.9270000001,3464503.5,3464485.771,3464501.877,3469481.137,3469481.5,2023-05-11T16:43:03Z,3469497.804,NULL,Kanzler,diwani,s,rasilmali,mahitaji,maabudu,NA,sdf,1,0,NA,NA,NA,NA,NA,NA,NA,NA,NA,NA,NA,NA,NA,NA,NA,NA,NA,NA,NA
31f81,"""Falsch""-Screen",canvas.Screen,3_0_0_0_6_1_2,NA,NA,skipped,NA,3469484.5999999,NA,NA,3469481.137,3469484.5999999,2023-05-11T16:43:03Z,3469497.804,NULL,Kanzler,diwani,s,rasilmali,mahitaji,maabudu,NA,sdf,NA,0,NA,NA,NA,NA,NA,NA,NA,NA,NA,NA,NA,NA,NA,NA,NA,NA,NA,NA,NA
31f81,shallow,flow.Sequence,3_0_0_0_6_1,NA,NA,completion,10957.645,3458510,3458506.895,3458523.492,3469481.137,3469484.8999999,2023-05-11T16:43:03Z,3469497.804,NULL,Kanzler,diwani,s,rasilmali,mahitaji,maabudu,NA,sdf,NA,0,NA,NA,NA,NA,NA,NA,NA,NA,NA,NA,NA,NA,NA,NA,NA,NA,NA,NA,NA
31f81,task,flow.Sequence,3_0_0_0_6,NA,NA,completion,10957.645,3458509.8999999,3458506.895,3458523.492,3469481.137,3469485,2023-05-11T16:43:03Z,3469497.804,NULL,Kanzler,diwani,s,rasilmali,mahitaji,maabudu,NA,sdf,NA,0,NA,NA,NA,NA,NA,NA,NA,NA,NA,NA,NA,NA,NA,NA,NA,NA,NA,NA,NA
31f81,Deep Question,html.Page,3_0_0_0_7_0_0,NA,NA,form submission,3944.5959998569,3469485.0999999,3469481.137,3469497.804,3473442.3999999,3473442.5999999,2023-05-11T16:43:07Z,3473444.541,NULL,Angreifer,mshambulizi,d,NA,NA,NA,j,NA,NA,0,NA,NA,NA,NA,NA,NA,NA,NA,NA,NA,NA,NA,NA,NA,NA,NA,NA,NA,NA
31f81,"""Richtig""-Screen",canvas.Screen,3_0_0_0_7_0_1,NA,NA,skipped,NA,3473444.5999999,NA,NA,3473442.3999999,3473444.6999998,2023-05-11T16:43:07Z,3473444.541,NULL,Angreifer,mshambulizi,d,NA,NA,NA,NA,sdf,NA,0,NA,NA,NA,NA,NA,NA,NA,NA,NA,NA,NA,NA,NA,NA,NA,NA,NA,NA,NA
31f81,"""Falsch""-Screen",canvas.Screen,3_0_0_0_7_0_2,NA,NA,timeout,4995.9219999998,3473445.3,3473428.493,3473444.541,3478423.782,3478424.1999998,2023-05-11T16:43:12Z,3478440.463,NULL,Angreifer,mshambulizi,d,NA,NA,NA,NA,sdf,0,0,NA,NA,NA,NA,NA,NA,NA,NA,NA,NA,NA,NA,NA,NA,NA,NA,NA,NA,NA
31f81,deep,flow.Sequence,3_0_0_0_7_0,NA,NA,completion,8925.9780000001,3469485,3469481.137,3469497.804,3478423.782,3478424.3,2023-05-11T16:43:12Z,3478440.463,NULL,Angreifer,mshambulizi,d,NA,NA,NA,NA,sdf,NA,0,NA,NA,NA,NA,NA,NA,NA,NA,NA,NA,NA,NA,NA,NA,NA,NA,NA,NA,NA
31f81,shallow,flow.Sequence,3_0_0_0_7_1,NA,NA,skipped,NA,3478424.3,NA,NA,3478423.782,3478424.3,2023-05-11T16:43:12Z,3478440.463,NULL,Angreifer,mshambulizi,d,NA,NA,NA,NA,sdf,NA,0,NA,NA,NA,NA,NA,NA,NA,NA,NA,NA,NA,NA,NA,NA,NA,NA,NA,NA,NA
31f81,task,flow.Sequence,3_0_0_0_7,NA,NA,completion,8925.9780000001,3469485,3469481.137,3469497.804,3478423.782,3478424.3999999,2023-05-11T16:43:12Z,3478440.463,NULL,Angreifer,mshambulizi,d,NA,NA,NA,NA,sdf,NA,0,NA,NA,NA,NA,NA,NA,NA,NA,NA,NA,NA,NA,NA,NA,NA,NA,NA,NA,NA
31f81,block,flow.Loop,3_0_0_0,NA,NA,completion,86029.249,3392384.8,3392377.313,3392394.533,3478423.782,3478424.5,2023-05-11T16:43:12Z,3478440.463,NULL,NA,NA,NA,NA,NA,NA,NA,sdf,NA,0,NA,NA,NA,NA,NA,NA,NA,NA,NA,NA,NA,NA,NA,NA,NA,NA,NA,NA,NA
31f81,weiter,canvas.Screen,3_0_0_1,sdf,keypress(Space),response,2402.6369999046,3478424.5999999,3478423.782,3478440.463,3480843.0999999,3480843.5999999,2023-05-11T16:43:14Z,3480888.766,NULL,NA,NA,NA,NA,NA,NA,NA,sdf,NA,0,NA,NA,NA,NA,NA,NA,NA,NA,NA,NA,NA,NA,NA,NA,NA,NA,NA,NA,NA
31f81,check continue,flow.Sequence,3_0_0,NA,NA,completion,88448.566999905,3392384.6999998,3392377.313,3392394.533,3480843.0999999,3480843.8,2023-05-11T16:43:14Z,3480888.766,NULL,NA,NA,NA,NA,NA,NA,NA,sdf,NA,0,NA,NA,NA,NA,NA,NA,NA,NA,NA,NA,NA,NA,NA,NA,NA,NA,NA,NA,NA
31f81,Deep Question,html.Page,3_0_1_0_0_0_0,NA,NA,form submission,17910.633999857,3480877.3,3480872.12,3480888.766,3498799.3999999,3498799.5999999,2023-05-11T16:43:32Z,3498807.01,NULL,Angreifer,mshambulizi,d,NA,NA,NA,mshindazi,NA,NA,1,NA,NA,NA,NA,NA,NA,NA,NA,NA,NA,NA,NA,NA,NA,NA,NA,NA,NA,NA
31f81,"""Richtig""-Screen",canvas.Screen,3_0_1_0_0_0_1,NA,NA,skipped,NA,3498801.8,NA,NA,3498799.3999999,3498801.8999999,2023-05-11T16:43:32Z,3498807.01,NULL,Angreifer,mshambulizi,d,NA,NA,NA,NA,sdfdsf,NA,1,NA,NA,NA,NA,NA,NA,NA,NA,NA,NA,NA,NA,NA,NA,NA,NA,NA,NA,NA
31f81,"""Falsch""-Screen",canvas.Screen,3_0_1_0_0_0_2,NA,NA,timeout,4995.9700000002,3498802.5,3498791.081,3498807.01,3503786.511,3503787.0999999,2023-05-11T16:43:37Z,3503802.98,NULL,Angreifer,mshambulizi,d,NA,NA,NA,NA,sdfdsf,0,1,NA,NA,NA,NA,NA,NA,NA,NA,NA,NA,NA,NA,NA,NA,NA,NA,NA,NA,NA
31f81,deep,flow.Sequence,3_0_1_0_0_0,NA,NA,completion,22897.745,3480877.3,3480872.12,3480888.766,3503786.511,3503787.3,2023-05-11T16:43:37Z,3503802.98,NULL,Angreifer,mshambulizi,d,NA,NA,NA,NA,sdfdsf,NA,1,NA,NA,NA,NA,NA,NA,NA,NA,NA,NA,NA,NA,NA,NA,NA,NA,NA,NA,NA
31f81,shallow,flow.Sequence,3_0_1_0_0_1,NA,NA,skipped,NA,3503787.3,NA,NA,3503786.511,3503787.5,2023-05-11T16:43:37Z,3503802.98,NULL,Angreifer,mshambulizi,d,NA,NA,NA,NA,sdfdsf,NA,1,NA,NA,NA,NA,NA,NA,NA,NA,NA,NA,NA,NA,NA,NA,NA,NA,NA,NA,NA
31f81,task,flow.Sequence,3_0_1_0_0,NA,NA,completion,22897.745,3480877.3,3480872.12,3480888.766,3503786.511,3503787.5,2023-05-11T16:43:37Z,3503802.98,NULL,Angreifer,mshambulizi,d,NA,NA,NA,NA,sdfdsf,NA,1,NA,NA,NA,NA,NA,NA,NA,NA,NA,NA,NA,NA,NA,NA,NA,NA,NA,NA,NA
31f81,Deep Question,html.Page,3_0_1_0_1_0_0,NA,NA,form submission,18169.419999857,3503787.5999999,3503786.511,3503802.98,3521972.3999999,3521972.6999998,2023-05-11T16:43:55Z,3521988.395,NULL,Wettbewerb,ushindani,d,NA,NA,NA,ushanduahi,NA,NA,1,NA,NA,NA,NA,NA,NA,NA,NA,NA,NA,NA,NA,NA,NA,NA,NA,NA,NA,NA
31f81,"""Richtig""-Screen",canvas.Screen,3_0_1_0_1_0_1,NA,NA,skipped,NA,3521975,NA,NA,3521972.3999999,3521975.0999999,2023-05-11T16:43:55Z,3521988.395,NULL,Wettbewerb,ushindani,d,NA,NA,NA,NA,sdfdsf,NA,1,NA,NA,NA,NA,NA,NA,NA,NA,NA,NA,NA,NA,NA,NA,NA,NA,NA,NA,NA
31f81,"""Falsch""-Screen",canvas.Screen,3_0_1_0_1_0_2,NA,NA,timeout,4995.875,3521975.6999998,3521971.382,3521988.395,3526967.778,3526968.3,2023-05-11T16:44:00Z,3526984.27,NULL,Wettbewerb,ushindani,d,NA,NA,NA,NA,sdfdsf,0,1,NA,NA,NA,NA,NA,NA,NA,NA,NA,NA,NA,NA,NA,NA,NA,NA,NA,NA,NA
31f81,deep,flow.Sequence,3_0_1_0_1_0,NA,NA,completion,23164.798,3503787.5999999,3503786.511,3503802.98,3526967.778,3526968.5999999,2023-05-11T16:44:00Z,3526984.27,NULL,Wettbewerb,ushindani,d,NA,NA,NA,NA,sdfdsf,NA,1,NA,NA,NA,NA,NA,NA,NA,NA,NA,NA,NA,NA,NA,NA,NA,NA,NA,NA,NA
31f81,shallow,flow.Sequence,3_0_1_0_1_1,NA,NA,skipped,NA,3526968.6999998,NA,NA,3526967.778,3526968.8,2023-05-11T16:44:00Z,3526984.27,NULL,Wettbewerb,ushindani,d,NA,NA,NA,NA,sdfdsf,NA,1,NA,NA,NA,NA,NA,NA,NA,NA,NA,NA,NA,NA,NA,NA,NA,NA,NA,NA,NA
31f81,task,flow.Sequence,3_0_1_0_1,NA,NA,completion,23164.798,3503787.5999999,3503786.511,3503802.98,3526967.778,3526968.8999999,2023-05-11T16:44:00Z,3526984.27,NULL,Wettbewerb,ushindani,d,NA,NA,NA,NA,sdfdsf,NA,1,NA,NA,NA,NA,NA,NA,NA,NA,NA,NA,NA,NA,NA,NA,NA,NA,NA,NA,NA
31f81,deep,flow.Sequence,3_0_1_0_2_0,NA,NA,skipped,NA,3526969,NA,NA,3526967.778,3526969,2023-05-11T16:44:00Z,3526984.27,NULL,Schönheit,kirembo,s,mahojiano,msisimko,jitihadi,NA,sdfdsf,NA,1,NA,NA,NA,NA,NA,NA,NA,NA,NA,NA,NA,NA,NA,NA,NA,NA,NA,NA,NA
31f81,Shallow Question,html.Page,3_0_1_0_2_1_0,NA,NA,form submission,4883.5299999523,3526969.3,3526967.778,3526984.27,3531867.8,3531868,2023-05-11T16:44:05Z,3531880.012,NULL,Schönheit,kirembo,s,mahojiano,msisimko,jitihadi,kirembo,NA,NA,1,NA,NA,NA,NA,NA,NA,NA,NA,NA,NA,NA,NA,NA,NA,NA,NA,NA,NA,NA
31f81,"""Richtig""-Screen",canvas.Screen,3_0_1_0_2_1_1,NA,NA,timeout,4995.9380000001,3531870.3999999,3531863.275,3531880.012,3536859.644,3536860.3999999,2023-05-11T16:44:10Z,3536875.95,NULL,Schönheit,kirembo,s,mahojiano,msisimko,jitihadi,NA,sdfdsf,1,1,NA,NA,NA,NA,NA,NA,NA,NA,NA,NA,NA,NA,NA,NA,NA,NA,NA,NA,NA
31f81,"""Falsch""-Screen",canvas.Screen,3_0_1_0_2_1_2,NA,NA,skipped,NA,3536863,NA,NA,3536859.644,3536863.1999998,2023-05-11T16:44:10Z,3536875.95,NULL,Schönheit,kirembo,s,mahojiano,msisimko,jitihadi,NA,sdfdsf,NA,1,NA,NA,NA,NA,NA,NA,NA,NA,NA,NA,NA,NA,NA,NA,NA,NA,NA,NA,NA
31f81,shallow,flow.Sequence,3_0_1_0_2_1,NA,NA,completion,9875.3739999998,3526969.3,3526967.778,3526984.27,3536859.644,3536863.3999999,2023-05-11T16:44:10Z,3536875.95,NULL,Schönheit,kirembo,s,mahojiano,msisimko,jitihadi,NA,sdfdsf,NA,1,NA,NA,NA,NA,NA,NA,NA,NA,NA,NA,NA,NA,NA,NA,NA,NA,NA,NA,NA
31f81,task,flow.Sequence,3_0_1_0_2,NA,NA,completion,9875.3739999998,3526969,3526967.778,3526984.27,3536859.644,3536863.5,2023-05-11T16:44:10Z,3536875.95,NULL,Schönheit,kirembo,s,mahojiano,msisimko,jitihadi,NA,sdfdsf,NA,1,NA,NA,NA,NA,NA,NA,NA,NA,NA,NA,NA,NA,NA,NA,NA,NA,NA,NA,NA
31f81,deep,flow.Sequence,3_0_1_0_3_0,NA,NA,skipped,NA,3536863.6999998,NA,NA,3536859.644,3536863.6999998,2023-05-11T16:44:10Z,3536875.95,NULL,Zufall,kikuti,s,kukosekana,uchoraji,leseni,NA,sdfdsf,NA,1,NA,NA,NA,NA,NA,NA,NA,NA,NA,NA,NA,NA,NA,NA,NA,NA,NA,NA,NA
31f81,Shallow Question,html.Page,3_0_1_0_3_1_0,NA,NA,form submission,5923.9499998568,3536863.8,3536859.644,3536875.95,3542799.8999999,3542800.1999998,2023-05-11T16:44:16Z,3542804.192,NULL,Zufall,kikuti,s,kukosekana,uchoraji,leseni,kukosekana,NA,NA,1,NA,NA,NA,NA,NA,NA,NA,NA,NA,NA,NA,NA,NA,NA,NA,NA,NA,NA,NA
31f81,"""Richtig""-Screen",canvas.Screen,3_0_1_0_3_1_1,NA,NA,skipped,NA,3542802,NA,NA,3542799.8999999,3542802.0999999,2023-05-11T16:44:16Z,3542804.192,NULL,Zufall,kikuti,s,kukosekana,uchoraji,leseni,NA,sdfdsf,NA,1,NA,NA,NA,NA,NA,NA,NA,NA,NA,NA,NA,NA,NA,NA,NA,NA,NA,NA,NA
31f81,"""Falsch""-Screen",canvas.Screen,3_0_1_0_3_1_2,NA,NA,timeout,4996.2040000004,3542802.6999998,3542788.076,3542804.192,3547783.77,3547784.3,2023-05-11T16:44:21Z,3547800.396,NULL,Zufall,kikuti,s,kukosekana,uchoraji,leseni,NA,sdfdsf,0,1,NA,NA,NA,NA,NA,NA,NA,NA,NA,NA,NA,NA,NA,NA,NA,NA,NA,NA,NA
31f81,shallow,flow.Sequence,3_0_1_0_3_1,NA,NA,completion,10907.82,3536863.8,3536859.644,3536875.95,3547783.77,3547784.5,2023-05-11T16:44:21Z,3547800.396,NULL,Zufall,kikuti,s,kukosekana,uchoraji,leseni,NA,sdfdsf,NA,1,NA,NA,NA,NA,NA,NA,NA,NA,NA,NA,NA,NA,NA,NA,NA,NA,NA,NA,NA
31f81,task,flow.Sequence,3_0_1_0_3,NA,NA,completion,10907.82,3536863.5999999,3536859.644,3536875.95,3547783.77,3547784.6999998,2023-05-11T16:44:21Z,3547800.396,NULL,Zufall,kikuti,s,kukosekana,uchoraji,leseni,NA,sdfdsf,NA,1,NA,NA,NA,NA,NA,NA,NA,NA,NA,NA,NA,NA,NA,NA,NA,NA,NA,NA,NA
31f81,Deep Question,html.Page,3_0_1_0_4_0_0,NA,NA,form submission,5416.6039999998,3547784.8999999,3547783.77,3547800.396,3553217,3553217.0999999,2023-05-11T16:44:27Z,3553229.401,NULL,Sänger,mwimbaji,d,NA,NA,NA,j,NA,NA,1,NA,NA,NA,NA,NA,NA,NA,NA,NA,NA,NA,NA,NA,NA,NA,NA,NA,NA,NA
31f81,"""Richtig""-Screen",canvas.Screen,3_0_1_0_4_0_1,NA,NA,skipped,NA,3553219,NA,NA,3553217,3553219.0999999,2023-05-11T16:44:27Z,3553229.401,NULL,Sänger,mwimbaji,d,NA,NA,NA,NA,sdfdsf,NA,1,NA,NA,NA,NA,NA,NA,NA,NA,NA,NA,NA,NA,NA,NA,NA,NA,NA,NA,NA
31f81,"""Falsch""-Screen",canvas.Screen,3_0_1_0_4_0_2,NA,NA,timeout,4995.6119999997,3553219.6999998,3553212.733,3553229.401,3558208.738,3558209.0999999,2023-05-11T16:44:32Z,3558225.013,NULL,Sänger,mwimbaji,d,NA,NA,NA,NA,sdfdsf,0,1,NA,NA,NA,NA,NA,NA,NA,NA,NA,NA,NA,NA,NA,NA,NA,NA,NA,NA,NA
31f81,deep,flow.Sequence,3_0_1_0_4_0,NA,NA,completion,10408.342,3547784.8,3547783.77,3547800.396,3558208.738,3558209.3,2023-05-11T16:44:32Z,3558225.013,NULL,Sänger,mwimbaji,d,NA,NA,NA,NA,sdfdsf,NA,1,NA,NA,NA,NA,NA,NA,NA,NA,NA,NA,NA,NA,NA,NA,NA,NA,NA,NA,NA
31f81,shallow,flow.Sequence,3_0_1_0_4_1,NA,NA,skipped,NA,3558209.3,NA,NA,3558208.738,3558209.3999999,2023-05-11T16:44:32Z,3558225.013,NULL,Sänger,mwimbaji,d,NA,NA,NA,NA,sdfdsf,NA,1,NA,NA,NA,NA,NA,NA,NA,NA,NA,NA,NA,NA,NA,NA,NA,NA,NA,NA,NA
31f81,task,flow.Sequence,3_0_1_0_4,NA,NA,completion,10408.342,3547784.8,3547783.77,3547800.396,3558208.738,3558209.5,2023-05-11T16:44:32Z,3558225.013,NULL,Sänger,mwimbaji,d,NA,NA,NA,NA,sdfdsf,NA,1,NA,NA,NA,NA,NA,NA,NA,NA,NA,NA,NA,NA,NA,NA,NA,NA,NA,NA,NA
31f81,deep,flow.Sequence,3_0_1_0_5_0,NA,NA,skipped,NA,3558209.5,NA,NA,3558208.738,3558209.5999999,2023-05-11T16:44:32Z,3558225.013,NULL,Abrechnung,uhasibu,s,kusahihisha,mpambano,mashambulizi,NA,sdfdsf,NA,1,NA,NA,NA,NA,NA,NA,NA,NA,NA,NA,NA,NA,NA,NA,NA,NA,NA,NA,NA
31f81,Shallow Question,html.Page,3_0_1_0_5_1_0,NA,NA,form submission,6612.3869998571,3558209.6999998,3558208.738,3558225.013,3564837.3999999,3564837.5999999,2023-05-11T16:44:38Z,3564853.353,NULL,Abrechnung,uhasibu,s,kusahihisha,mpambano,mashambulizi,uhasibu,NA,NA,1,NA,NA,NA,NA,NA,NA,NA,NA,NA,NA,NA,NA,NA,NA,NA,NA,NA,NA,NA
31f81,"""Richtig""-Screen",canvas.Screen,3_0_1_0_5_1_1,NA,NA,timeout,4995.6429999997,3564839.5999999,3564836.502,3564853.353,3569832.012,3569833,2023-05-11T16:44:43Z,3569848.996,NULL,Abrechnung,uhasibu,s,kusahihisha,mpambano,mashambulizi,NA,sdfdsf,1,1,NA,NA,NA,NA,NA,NA,NA,NA,NA,NA,NA,NA,NA,NA,NA,NA,NA,NA,NA
31f81,"""Falsch""-Screen",canvas.Screen,3_0_1_0_5_1_2,NA,NA,skipped,NA,3569834.8,NA,NA,3569832.012,3569834.8999999,2023-05-11T16:44:43Z,3569848.996,NULL,Abrechnung,uhasibu,s,kusahihisha,mpambano,mashambulizi,NA,sdfdsf,NA,1,NA,NA,NA,NA,NA,NA,NA,NA,NA,NA,NA,NA,NA,NA,NA,NA,NA,NA,NA
31f81,shallow,flow.Sequence,3_0_1_0_5_1,NA,NA,completion,11606.999,3558209.5999999,3558208.738,3558225.013,3569832.012,3569835.1999998,2023-05-11T16:44:43Z,3569848.996,NULL,Abrechnung,uhasibu,s,kusahihisha,mpambano,mashambulizi,NA,sdfdsf,NA,1,NA,NA,NA,NA,NA,NA,NA,NA,NA,NA,NA,NA,NA,NA,NA,NA,NA,NA,NA
31f81,task,flow.Sequence,3_0_1_0_5,NA,NA,completion,11606.999,3558209.5,3558208.738,3558225.013,3569832.012,3569835.3,2023-05-11T16:44:43Z,3569848.996,NULL,Abrechnung,uhasibu,s,kusahihisha,mpambano,mashambulizi,NA,sdfdsf,NA,1,NA,NA,NA,NA,NA,NA,NA,NA,NA,NA,NA,NA,NA,NA,NA,NA,NA,NA,NA
31f81,deep,flow.Sequence,3_0_1_0_6_0,NA,NA,skipped,NA,3569835.3999999,NA,NA,3569832.012,3569835.5,2023-05-11T16:44:43Z,3569848.996,NULL,Kanzler,diwani,s,rasilmali,mahitaji,maabudu,NA,sdfdsf,NA,1,NA,NA,NA,NA,NA,NA,NA,NA,NA,NA,NA,NA,NA,NA,NA,NA,NA,NA,NA
31f81,Shallow Question,html.Page,3_0_1_0_6_1_0,NA,NA,form submission,4899.9039998571,3569835.5,3569832.012,3569848.996,3574748.8999999,3574749.1999998,2023-05-11T16:44:48Z,3574761.848,NULL,Kanzler,diwani,s,rasilmali,mahitaji,maabudu,diwani,NA,NA,1,NA,NA,NA,NA,NA,NA,NA,NA,NA,NA,NA,NA,NA,NA,NA,NA,NA,NA,NA
31f81,"""Richtig""-Screen",canvas.Screen,3_0_1_0_6_1_1,NA,NA,timeout,4995.8819999998,3574751.0999999,3574744.619,3574761.848,3579741.127,3579741.5999999,2023-05-11T16:44:53Z,3579757.73,NULL,Kanzler,diwani,s,rasilmali,mahitaji,maabudu,NA,sdfdsf,1,1,NA,NA,NA,NA,NA,NA,NA,NA,NA,NA,NA,NA,NA,NA,NA,NA,NA,NA,NA
31f81,"""Falsch""-Screen",canvas.Screen,3_0_1_0_6_1_2,NA,NA,skipped,NA,3579743.6999998,NA,NA,3579741.127,3579743.8999999,2023-05-11T16:44:53Z,3579757.73,NULL,Kanzler,diwani,s,rasilmali,mahitaji,maabudu,NA,sdfdsf,NA,1,NA,NA,NA,NA,NA,NA,NA,NA,NA,NA,NA,NA,NA,NA,NA,NA,NA,NA,NA
31f81,shallow,flow.Sequence,3_0_1_0_6_1,NA,NA,completion,9892.1310000001,3569835.5,3569832.012,3569848.996,3579741.127,3579744.0999999,2023-05-11T16:44:53Z,3579757.73,NULL,Kanzler,diwani,s,rasilmali,mahitaji,maabudu,NA,sdfdsf,NA,1,NA,NA,NA,NA,NA,NA,NA,NA,NA,NA,NA,NA,NA,NA,NA,NA,NA,NA,NA
31f81,task,flow.Sequence,3_0_1_0_6,NA,NA,completion,9892.1310000001,3569835.3,3569832.012,3569848.996,3579741.127,3579744.1999998,2023-05-11T16:44:53Z,3579757.73,NULL,Kanzler,diwani,s,rasilmali,mahitaji,maabudu,NA,sdfdsf,NA,1,NA,NA,NA,NA,NA,NA,NA,NA,NA,NA,NA,NA,NA,NA,NA,NA,NA,NA,NA
31f81,Deep Question,html.Page,3_0_1_0_7_0_0,NA,NA,form submission,14900.169999857,3579744.1999998,3579741.127,3579757.73,3594657.8999999,3594658.0999999,2023-05-11T16:45:08Z,3594661.571,NULL,Auftrag,uagizaji,d,NA,NA,NA,mshandahi,NA,NA,1,NA,NA,NA,NA,NA,NA,NA,NA,NA,NA,NA,NA,NA,NA,NA,NA,NA,NA,NA
31f81,"""Richtig""-Screen",canvas.Screen,3_0_1_0_7_0_1,NA,NA,skipped,NA,3594660.1999998,NA,NA,3594657.8999999,3594660.3,2023-05-11T16:45:08Z,3594661.571,NULL,Auftrag,uagizaji,d,NA,NA,NA,NA,sdfdsf,NA,1,NA,NA,NA,NA,NA,NA,NA,NA,NA,NA,NA,NA,NA,NA,NA,NA,NA,NA,NA
31f81,"""Falsch""-Screen",canvas.Screen,3_0_1_0_7_0_2,NA,NA,timeout,4996.324,3594660.8999999,3594645.502,3594661.571,3599641.439,3599641.8999999,2023-05-11T16:45:13Z,3599657.895,NULL,Auftrag,uagizaji,d,NA,NA,NA,NA,sdfdsf,0,1,NA,NA,NA,NA,NA,NA,NA,NA,NA,NA,NA,NA,NA,NA,NA,NA,NA,NA,NA
31f81,deep,flow.Sequence,3_0_1_0_7_0,NA,NA,completion,19883.709,3579744.1999998,3579741.127,3579757.73,3599641.439,3599642.0999999,2023-05-11T16:45:13Z,3599657.895,NULL,Auftrag,uagizaji,d,NA,NA,NA,NA,sdfdsf,NA,1,NA,NA,NA,NA,NA,NA,NA,NA,NA,NA,NA,NA,NA,NA,NA,NA,NA,NA,NA
31f81,shallow,flow.Sequence,3_0_1_0_7_1,NA,NA,skipped,NA,3599642.0999999,NA,NA,3599641.439,3599642.1999998,2023-05-11T16:45:13Z,3599657.895,NULL,Auftrag,uagizaji,d,NA,NA,NA,NA,sdfdsf,NA,1,NA,NA,NA,NA,NA,NA,NA,NA,NA,NA,NA,NA,NA,NA,NA,NA,NA,NA,NA
31f81,task,flow.Sequence,3_0_1_0_7,NA,NA,completion,19883.709,3579744.1999998,3579741.127,3579757.73,3599641.439,3599642.3,2023-05-11T16:45:13Z,3599657.895,NULL,Auftrag,uagizaji,d,NA,NA,NA,NA,sdfdsf,NA,1,NA,NA,NA,NA,NA,NA,NA,NA,NA,NA,NA,NA,NA,NA,NA,NA,NA,NA,NA
31f81,block,flow.Loop,3_0_1_0,NA,NA,completion,118752.673,3480877.3,3480872.12,3480888.766,3599641.439,3599642.3999999,2023-05-11T16:45:13Z,3599657.895,NULL,NA,NA,NA,NA,NA,NA,NA,sdfdsf,NA,1,NA,NA,NA,NA,NA,NA,NA,NA,NA,NA,NA,NA,NA,NA,NA,NA,NA,NA,NA
31f81,weiter,canvas.Screen,3_0_1_1,sdf,keypress(Space),response,1580.0049998569,3599642.5,3599641.439,3599657.895,3601237.8999999,3601239.3999999,2023-05-11T16:45:15Z,3601308.763,NULL,NA,NA,NA,NA,NA,NA,NA,sdfdsf,NA,1,NA,NA,NA,NA,NA,NA,NA,NA,NA,NA,NA,NA,NA,NA,NA,NA,NA,NA,NA
31f81,check continue,flow.Sequence,3_0_1,NA,NA,completion,120349.13399986,3480877.1999998,3480872.12,3480888.766,3601237.8999999,3601239.8999999,2023-05-11T16:45:15Z,3601308.763,NULL,NA,NA,NA,NA,NA,NA,NA,sdfdsf,NA,1,NA,NA,NA,NA,NA,NA,NA,NA,NA,NA,NA,NA,NA,NA,NA,NA,NA,NA,NA
31f81,Deep Question,html.Page,3_0_2_0_0_0_0,NA,NA,form submission,8153.2370000002,3601288,3601273.077,3601308.763,3609462,3609462.1999998,2023-05-11T16:45:23Z,3609466.096,NULL,Angreifer,mshambulizi,d,NA,NA,NA,f,NA,NA,2,NA,NA,NA,NA,NA,NA,NA,NA,NA,NA,NA,NA,NA,NA,NA,NA,NA,NA,NA
31f81,"""Richtig""-Screen",canvas.Screen,3_0_2_0_0_0_1,NA,NA,skipped,NA,3609464.0999999,NA,NA,3609462,3609464.0999999,2023-05-11T16:45:23Z,3609466.096,NULL,Angreifer,mshambulizi,d,NA,NA,NA,NA,sdf,NA,2,NA,NA,NA,NA,NA,NA,NA,NA,NA,NA,NA,NA,NA,NA,NA,NA,NA,NA,NA
31f81,"""Falsch""-Screen",canvas.Screen,3_0_2_0_0_0_2,NA,NA,timeout,4996.1699999999,3609464.8999999,3609449.791,3609466.096,3614445.66,3614447.3999999,2023-05-11T16:45:28Z,3614462.266,NULL,Angreifer,mshambulizi,d,NA,NA,NA,NA,sdf,0,2,NA,NA,NA,NA,NA,NA,NA,NA,NA,NA,NA,NA,NA,NA,NA,NA,NA,NA,NA
31f81,deep,flow.Sequence,3_0_2_0_0_0,NA,NA,completion,13136.897,3601288,3601273.077,3601308.763,3614445.66,3614447.5999999,2023-05-11T16:45:28Z,3614462.266,NULL,Angreifer,mshambulizi,d,NA,NA,NA,NA,sdf,NA,2,NA,NA,NA,NA,NA,NA,NA,NA,NA,NA,NA,NA,NA,NA,NA,NA,NA,NA,NA
31f81,shallow,flow.Sequence,3_0_2_0_0_1,NA,NA,skipped,NA,3614447.6999998,NA,NA,3614445.66,3614447.8999999,2023-05-11T16:45:28Z,3614462.266,NULL,Angreifer,mshambulizi,d,NA,NA,NA,NA,sdf,NA,2,NA,NA,NA,NA,NA,NA,NA,NA,NA,NA,NA,NA,NA,NA,NA,NA,NA,NA,NA
31f81,task,flow.Sequence,3_0_2_0_0,NA,NA,completion,13136.897,3601288,3601273.077,3601308.763,3614445.66,3614448.0999999,2023-05-11T16:45:28Z,3614462.266,NULL,Angreifer,mshambulizi,d,NA,NA,NA,NA,sdf,NA,2,NA,NA,NA,NA,NA,NA,NA,NA,NA,NA,NA,NA,NA,NA,NA,NA,NA,NA,NA
31f81,deep,flow.Sequence,3_0_2_0_1_0,NA,NA,skipped,NA,3614448.1999998,NA,NA,3614445.66,3614448.3,2023-05-11T16:45:28Z,3614462.266,NULL,Schönheit,kirembo,s,mahojiano,msisimko,jitihadi,NA,sdf,NA,2,NA,NA,NA,NA,NA,NA,NA,NA,NA,NA,NA,NA,NA,NA,NA,NA,NA,NA,NA
31f81,Shallow Question,html.Page,3_0_2_0_1_1_0,NA,NA,form submission,4950.2340000002,3614448.3999999,3614445.66,3614462.266,3619412.5,3619412.6999998,2023-05-11T16:45:33Z,3619424.575,NULL,Schönheit,kirembo,s,mahojiano,msisimko,jitihadi,kirembo,NA,NA,2,NA,NA,NA,NA,NA,NA,NA,NA,NA,NA,NA,NA,NA,NA,NA,NA,NA,NA,NA
31f81,"""Richtig""-Screen",canvas.Screen,3_0_2_0_1_1_1,NA,NA,timeout,4995.9039999996,3619414.5999999,3619408.626,3619424.575,3624403.791,3624405.5,2023-05-11T16:45:38Z,3624420.479,NULL,Schönheit,kirembo,s,mahojiano,msisimko,jitihadi,NA,sdf,1,2,NA,NA,NA,NA,NA,NA,NA,NA,NA,NA,NA,NA,NA,NA,NA,NA,NA,NA,NA
31f81,"""Falsch""-Screen",canvas.Screen,3_0_2_0_1_1_2,NA,NA,skipped,NA,3624407.8999999,NA,NA,3624403.791,3624408.0999999,2023-05-11T16:45:38Z,3624420.479,NULL,Schönheit,kirembo,s,mahojiano,msisimko,jitihadi,NA,sdf,NA,2,NA,NA,NA,NA,NA,NA,NA,NA,NA,NA,NA,NA,NA,NA,NA,NA,NA,NA,NA
31f81,shallow,flow.Sequence,3_0_2_0_1_1,NA,NA,completion,9941.5250000004,3614448.3999999,3614445.66,3614462.266,3624403.791,3624408.0999999,2023-05-11T16:45:38Z,3624420.479,NULL,Schönheit,kirembo,s,mahojiano,msisimko,jitihadi,NA,sdf,NA,2,NA,NA,NA,NA,NA,NA,NA,NA,NA,NA,NA,NA,NA,NA,NA,NA,NA,NA,NA
31f81,task,flow.Sequence,3_0_2_0_1,NA,NA,completion,9941.5250000004,3614448.1999998,3614445.66,3614462.266,3624403.791,3624408.1999998,2023-05-11T16:45:38Z,3624420.479,NULL,Schönheit,kirembo,s,mahojiano,msisimko,jitihadi,NA,sdf,NA,2,NA,NA,NA,NA,NA,NA,NA,NA,NA,NA,NA,NA,NA,NA,NA,NA,NA,NA,NA
31f81,deep,flow.Sequence,3_0_2_0_2_0,NA,NA,skipped,NA,3624408.3,NA,NA,3624403.791,3624408.3,2023-05-11T16:45:38Z,3624420.479,NULL,Kanzler,diwani,s,rasilmali,mahitaji,maabudu,NA,sdf,NA,2,NA,NA,NA,NA,NA,NA,NA,NA,NA,NA,NA,NA,NA,NA,NA,NA,NA,NA,NA
31f81,Shallow Question,html.Page,3_0_2_0_2_1_0,NA,NA,form submission,3621.1209999048,3624408.3999999,3624403.791,3624420.479,3628041.5999999,3628041.8,2023-05-11T16:45:41Z,3628051.1,NULL,Kanzler,diwani,s,rasilmali,mahitaji,maabudu,diwani,NA,NA,2,NA,NA,NA,NA,NA,NA,NA,NA,NA,NA,NA,NA,NA,NA,NA,NA,NA,NA,NA
31f81,"""Richtig""-Screen",canvas.Screen,3_0_2_0_2_1_1,NA,NA,timeout,4996.0299999998,3628043.3999999,3628034.177,3628051.1,3633030.064,3633030.3999999,2023-05-11T16:45:46Z,3633047.13,NULL,Kanzler,diwani,s,rasilmali,mahitaji,maabudu,NA,sdf,1,2,NA,NA,NA,NA,NA,NA,NA,NA,NA,NA,NA,NA,NA,NA,NA,NA,NA,NA,NA
31f81,"""Falsch""-Screen",canvas.Screen,3_0_2_0_2_1_2,NA,NA,skipped,NA,3633032.0999999,NA,NA,3633030.064,3633032.1999998,2023-05-11T16:45:46Z,3633047.13,NULL,Kanzler,diwani,s,rasilmali,mahitaji,maabudu,NA,sdf,NA,2,NA,NA,NA,NA,NA,NA,NA,NA,NA,NA,NA,NA,NA,NA,NA,NA,NA,NA,NA
31f81,shallow,flow.Sequence,3_0_2_0_2_1,NA,NA,completion,8609.585,3624408.3999999,3624403.791,3624420.479,3633030.064,3633032.3,2023-05-11T16:45:46Z,3633047.13,NULL,Kanzler,diwani,s,rasilmali,mahitaji,maabudu,NA,sdf,NA,2,NA,NA,NA,NA,NA,NA,NA,NA,NA,NA,NA,NA,NA,NA,NA,NA,NA,NA,NA
31f81,task,flow.Sequence,3_0_2_0_2,NA,NA,completion,8609.585,3624408.3,3624403.791,3624420.479,3633030.064,3633032.5,2023-05-11T16:45:46Z,3633047.13,NULL,Kanzler,diwani,s,rasilmali,mahitaji,maabudu,NA,sdf,NA,2,NA,NA,NA,NA,NA,NA,NA,NA,NA,NA,NA,NA,NA,NA,NA,NA,NA,NA,NA
31f81,Deep Question,html.Page,3_0_2_0_3_0_0,NA,NA,form submission,8958.5699998094,3633032.5,3633030.064,3633047.13,3642005.6999998,3642006,2023-05-11T16:45:55Z,3642027.021,NULL,Wettbewerb,ushindani,d,NA,NA,NA,u,NA,NA,2,NA,NA,NA,NA,NA,NA,NA,NA,NA,NA,NA,NA,NA,NA,NA,NA,NA,NA,NA
31f81,"""Richtig""-Screen",canvas.Screen,3_0_2_0_3_0_1,NA,NA,skipped,NA,3642008.0999999,NA,NA,3642005.6999998,3642008.3,2023-05-11T16:45:55Z,3642027.021,NULL,Wettbewerb,ushindani,d,NA,NA,NA,NA,sdf,NA,2,NA,NA,NA,NA,NA,NA,NA,NA,NA,NA,NA,NA,NA,NA,NA,NA,NA,NA,NA
31f81,"""Falsch""-Screen",canvas.Screen,3_0_2_0_3_0_2,NA,NA,timeout,5008.27,3642008.8999999,3641990.09,3642027.021,3647018.893,3647019.8999999,2023-05-11T16:46:00Z,3647035.291,NULL,Wettbewerb,ushindani,d,NA,NA,NA,NA,sdf,0,2,NA,NA,NA,NA,NA,NA,NA,NA,NA,NA,NA,NA,NA,NA,NA,NA,NA,NA,NA
31f81,deep,flow.Sequence,3_0_2_0_3_0,NA,NA,completion,13971.763,3633032.5,3633030.064,3633047.13,3647018.893,3647020.3999999,2023-05-11T16:46:00Z,3647035.291,NULL,Wettbewerb,ushindani,d,NA,NA,NA,NA,sdf,NA,2,NA,NA,NA,NA,NA,NA,NA,NA,NA,NA,NA,NA,NA,NA,NA,NA,NA,NA,NA
31f81,shallow,flow.Sequence,3_0_2_0_3_1,NA,NA,skipped,NA,3647020.5,NA,NA,3647018.893,3647020.6999998,2023-05-11T16:46:00Z,3647035.291,NULL,Wettbewerb,ushindani,d,NA,NA,NA,NA,sdf,NA,2,NA,NA,NA,NA,NA,NA,NA,NA,NA,NA,NA,NA,NA,NA,NA,NA,NA,NA,NA
31f81,task,flow.Sequence,3_0_2_0_3,NA,NA,completion,13971.763,3633032.5,3633030.064,3633047.13,3647018.893,3647021,2023-05-11T16:46:00Z,3647035.291,NULL,Wettbewerb,ushindani,d,NA,NA,NA,NA,sdf,NA,2,NA,NA,NA,NA,NA,NA,NA,NA,NA,NA,NA,NA,NA,NA,NA,NA,NA,NA,NA
31f81,Deep Question,html.Page,3_0_2_0_4_0_0,NA,NA,form submission,7809.2089999998,3647021.1999998,3647018.893,3647035.291,3654844.5,3654844.5999999,2023-05-11T16:46:08Z,3654845.433,NULL,Auftrag,uagizaji,d,NA,NA,NA,f,NA,NA,2,NA,NA,NA,NA,NA,NA,NA,NA,NA,NA,NA,NA,NA,NA,NA,NA,NA,NA,NA
31f81,"""Richtig""-Screen",canvas.Screen,3_0_2_0_4_0_1,NA,NA,skipped,NA,3654847.5999999,NA,NA,3654844.5,3654847.8,2023-05-11T16:46:08Z,3654845.433,NULL,Auftrag,uagizaji,d,NA,NA,NA,NA,sdf,NA,2,NA,NA,NA,NA,NA,NA,NA,NA,NA,NA,NA,NA,NA,NA,NA,NA,NA,NA,NA
31f81,"""Falsch""-Screen",canvas.Screen,3_0_2_0_4_0_2,NA,NA,timeout,4995.9209999996,3654848.6999998,3654828.813,3654845.433,3659825.085,3659826.0999999,2023-05-11T16:46:13Z,3659841.354,NULL,Auftrag,uagizaji,d,NA,NA,NA,NA,sdf,0,2,NA,NA,NA,NA,NA,NA,NA,NA,NA,NA,NA,NA,NA,NA,NA,NA,NA,NA,NA
31f81,deep,flow.Sequence,3_0_2_0_4_0,NA,NA,completion,12789.794,3647021.0999999,3647018.893,3647035.291,3659825.085,3659826.5,2023-05-11T16:46:13Z,3659841.354,NULL,Auftrag,uagizaji,d,NA,NA,NA,NA,sdf,NA,2,NA,NA,NA,NA,NA,NA,NA,NA,NA,NA,NA,NA,NA,NA,NA,NA,NA,NA,NA
31f81,shallow,flow.Sequence,3_0_2_0_4_1,NA,NA,skipped,NA,3659826.6999998,NA,NA,3659825.085,3659826.8,2023-05-11T16:46:13Z,3659841.354,NULL,Auftrag,uagizaji,d,NA,NA,NA,NA,sdf,NA,2,NA,NA,NA,NA,NA,NA,NA,NA,NA,NA,NA,NA,NA,NA,NA,NA,NA,NA,NA
31f81,task,flow.Sequence,3_0_2_0_4,NA,NA,completion,12789.794,3647021.0999999,3647018.893,3647035.291,3659825.085,3659827.0999999,2023-05-11T16:46:13Z,3659841.354,NULL,Auftrag,uagizaji,d,NA,NA,NA,NA,sdf,NA,2,NA,NA,NA,NA,NA,NA,NA,NA,NA,NA,NA,NA,NA,NA,NA,NA,NA,NA,NA
31f81,deep,flow.Sequence,3_0_2_0_5_0,NA,NA,skipped,NA,3659827.3,NA,NA,3659825.085,3659827.5,2023-05-11T16:46:13Z,3659841.354,NULL,Zufall,kikuti,s,kukosekana,uchoraji,leseni,NA,sdf,NA,2,NA,NA,NA,NA,NA,NA,NA,NA,NA,NA,NA,NA,NA,NA,NA,NA,NA,NA,NA
31f81,Shallow Question,html.Page,3_0_2_0_5_1_0,NA,NA,form submission,4196.3459998094,3659827.5999999,3659825.085,3659841.354,3664037.6999998,3664037.8999999,2023-05-11T16:46:17Z,3664059.26,NULL,Zufall,kikuti,s,kukosekana,uchoraji,leseni,kikuti,NA,NA,2,NA,NA,NA,NA,NA,NA,NA,NA,NA,NA,NA,NA,NA,NA,NA,NA,NA,NA,NA
31f81,"""Richtig""-Screen",canvas.Screen,3_0_2_0_5_1_1,NA,NA,timeout,5007.8420000002,3664039.8,3664021.245,3664059.26,3669050.481,3669050.8999999,2023-05-11T16:46:22Z,3669067.102,NULL,Zufall,kikuti,s,kukosekana,uchoraji,leseni,NA,sdf,1,2,NA,NA,NA,NA,NA,NA,NA,NA,NA,NA,NA,NA,NA,NA,NA,NA,NA,NA,NA
31f81,"""Falsch""-Screen",canvas.Screen,3_0_2_0_5_1_2,NA,NA,skipped,NA,3669053.1999998,NA,NA,3669050.481,3669053.3999999,2023-05-11T16:46:22Z,3669067.102,NULL,Zufall,kikuti,s,kukosekana,uchoraji,leseni,NA,sdf,NA,2,NA,NA,NA,NA,NA,NA,NA,NA,NA,NA,NA,NA,NA,NA,NA,NA,NA,NA,NA
31f81,shallow,flow.Sequence,3_0_2_0_5_1,NA,NA,completion,9209.1270000003,3659827.5999999,3659825.085,3659841.354,3669050.481,3669053.5,2023-05-11T16:46:22Z,3669067.102,NULL,Zufall,kikuti,s,kukosekana,uchoraji,leseni,NA,sdf,NA,2,NA,NA,NA,NA,NA,NA,NA,NA,NA,NA,NA,NA,NA,NA,NA,NA,NA,NA,NA
31f81,task,flow.Sequence,3_0_2_0_5,NA,NA,completion,9209.1270000003,3659827.1999998,3659825.085,3659841.354,3669050.481,3669053.5999999,2023-05-11T16:46:22Z,3669067.102,NULL,Zufall,kikuti,s,kukosekana,uchoraji,leseni,NA,sdf,NA,2,NA,NA,NA,NA,NA,NA,NA,NA,NA,NA,NA,NA,NA,NA,NA,NA,NA,NA,NA
31f81,deep,flow.Sequence,3_0_2_0_6_0,NA,NA,skipped,NA,3669053.6999998,NA,NA,3669050.481,3669053.6999998,2023-05-11T16:46:22Z,3669067.102,NULL,Abrechnung,uhasibu,s,kusahihisha,mpambano,mashambulizi,NA,sdf,NA,2,NA,NA,NA,NA,NA,NA,NA,NA,NA,NA,NA,NA,NA,NA,NA,NA,NA,NA,NA
31f81,Shallow Question,html.Page,3_0_2_0_6_1_0,NA,NA,form submission,4560.9979999047,3669053.8999999,3669050.481,3669067.102,3673628.0999999,3673628.3,2023-05-11T16:46:27Z,3673629.994,NULL,Abrechnung,uhasibu,s,kusahihisha,mpambano,mashambulizi,mashambulizi,NA,NA,2,NA,NA,NA,NA,NA,NA,NA,NA,NA,NA,NA,NA,NA,NA,NA,NA,NA,NA,NA
31f81,"""Richtig""-Screen",canvas.Screen,3_0_2_0_6_1_1,NA,NA,skipped,NA,3673630.1999998,NA,NA,3673628.0999999,3673630.1999998,2023-05-11T16:46:27Z,3673629.994,NULL,Abrechnung,uhasibu,s,kusahihisha,mpambano,mashambulizi,NA,sdf,NA,2,NA,NA,NA,NA,NA,NA,NA,NA,NA,NA,NA,NA,NA,NA,NA,NA,NA,NA,NA
31f81,"""Falsch""-Screen",canvas.Screen,3_0_2_0_6_1_2,NA,NA,timeout,4995.8909999998,3673630.8999999,3673613.301,3673629.994,3678609.295,3678609.8,2023-05-11T16:46:32Z,3678625.885,NULL,Abrechnung,uhasibu,s,kusahihisha,mpambano,mashambulizi,NA,sdf,0,2,NA,NA,NA,NA,NA,NA,NA,NA,NA,NA,NA,NA,NA,NA,NA,NA,NA,NA,NA
31f81,shallow,flow.Sequence,3_0_2_0_6_1,NA,NA,completion,9542.193,3669053.8,3669050.481,3669067.102,3678609.295,3678610.0999999,2023-05-11T16:46:32Z,3678625.885,NULL,Abrechnung,uhasibu,s,kusahihisha,mpambano,mashambulizi,NA,sdf,NA,2,NA,NA,NA,NA,NA,NA,NA,NA,NA,NA,NA,NA,NA,NA,NA,NA,NA,NA,NA
31f81,task,flow.Sequence,3_0_2_0_6,NA,NA,completion,9542.193,3669053.6999998,3669050.481,3669067.102,3678609.295,3678610.1999998,2023-05-11T16:46:32Z,3678625.885,NULL,Abrechnung,uhasibu,s,kusahihisha,mpambano,mashambulizi,NA,sdf,NA,2,NA,NA,NA,NA,NA,NA,NA,NA,NA,NA,NA,NA,NA,NA,NA,NA,NA,NA,NA
31f81,Deep Question,html.Page,3_0_2_0_7_0_0,NA,NA,form submission,10276.314999809,3678610.1999998,3678609.295,3678625.885,3688902.1999998,3688902.3999999,2023-05-11T16:46:42Z,3688917.42,NULL,Sänger,mwimbaji,d,NA,NA,NA,uagi,NA,NA,2,NA,NA,NA,NA,NA,NA,NA,NA,NA,NA,NA,NA,NA,NA,NA,NA,NA,NA,NA
31f81,"""Richtig""-Screen",canvas.Screen,3_0_2_0_7_0_1,NA,NA,skipped,NA,3688904.8999999,NA,NA,3688902.1999998,3688905.0999999,2023-05-11T16:46:42Z,3688917.42,NULL,Sänger,mwimbaji,d,NA,NA,NA,NA,sdf,NA,2,NA,NA,NA,NA,NA,NA,NA,NA,NA,NA,NA,NA,NA,NA,NA,NA,NA,NA,NA
31f81,"""Falsch""-Screen",canvas.Screen,3_0_2_0_7_0_2,NA,NA,timeout,4995.898,3688905.8999999,3688900.801,3688917.42,3693896.7,3693897,2023-05-11T16:46:47Z,3693913.318,NULL,Sänger,mwimbaji,d,NA,NA,NA,NA,sdf,0,2,NA,NA,NA,NA,NA,NA,NA,NA,NA,NA,NA,NA,NA,NA,NA,NA,NA,NA,NA
31f81,deep,flow.Sequence,3_0_2_0_7_0,NA,NA,completion,15270.815,3678610.1999998,3678609.295,3678625.885,3693896.7,3693897.1999998,2023-05-11T16:46:47Z,3693913.318,NULL,Sänger,mwimbaji,d,NA,NA,NA,NA,sdf,NA,2,NA,NA,NA,NA,NA,NA,NA,NA,NA,NA,NA,NA,NA,NA,NA,NA,NA,NA,NA
31f81,shallow,flow.Sequence,3_0_2_0_7_1,NA,NA,skipped,NA,3693897.1999998,NA,NA,3693896.7,3693897.1999998,2023-05-11T16:46:47Z,3693913.318,NULL,Sänger,mwimbaji,d,NA,NA,NA,NA,sdf,NA,2,NA,NA,NA,NA,NA,NA,NA,NA,NA,NA,NA,NA,NA,NA,NA,NA,NA,NA,NA
31f81,task,flow.Sequence,3_0_2_0_7,NA,NA,completion,15270.815,3678610.1999998,3678609.295,3678625.885,3693896.7,3693897.3,2023-05-11T16:46:47Z,3693913.318,NULL,Sänger,mwimbaji,d,NA,NA,NA,NA,sdf,NA,2,NA,NA,NA,NA,NA,NA,NA,NA,NA,NA,NA,NA,NA,NA,NA,NA,NA,NA,NA
31f81,block,flow.Loop,3_0_2_0,NA,NA,completion,92587.937,3601287.8999999,3601273.077,3601308.763,3693896.7,3693897.3999999,2023-05-11T16:46:47Z,3693913.318,NULL,NA,NA,NA,NA,NA,NA,NA,sdf,NA,2,NA,NA,NA,NA,NA,NA,NA,NA,NA,NA,NA,NA,NA,NA,NA,NA,NA,NA,NA
31f81,weiter,canvas.Screen,3_0_2_1,sdf,keypress(Space),response,797.28199990466,3693897.3999999,3693896.7,3693913.318,3694710.5999999,3694712.8999999,2023-05-11T16:46:48Z,3694745.97,NULL,NA,NA,NA,NA,NA,NA,NA,sdf,NA,2,NA,NA,NA,NA,NA,NA,NA,NA,NA,NA,NA,NA,NA,NA,NA,NA,NA,NA,NA
31f81,check continue,flow.Sequence,3_0_2,NA,NA,completion,93401.836999905,3601287.8999999,3601273.077,3601308.763,3694710.5999999,3694713.0999999,2023-05-11T16:46:48Z,3694745.97,NULL,NA,NA,NA,NA,NA,NA,NA,sdf,NA,2,NA,NA,NA,NA,NA,NA,NA,NA,NA,NA,NA,NA,NA,NA,NA,NA,NA,NA,NA
31f81,Deep Question,html.Page,3_0_3_0_0_0_0,NA,NA,form submission,13301.229999809,3694743,3694729.315,3694745.97,3708047.1999998,3708047.3,2023-05-11T16:47:01Z,3708051.709,NULL,Angreifer,mshambulizi,d,NA,NA,NA,mshandazi,NA,NA,3,NA,NA,NA,NA,NA,NA,NA,NA,NA,NA,NA,NA,NA,NA,NA,NA,NA,NA,NA
31f81,"""Richtig""-Screen",canvas.Screen,3_0_3_0_0_0_1,NA,NA,skipped,NA,3708049.8999999,NA,NA,3708047.1999998,3708050,2023-05-11T16:47:01Z,3708051.709,NULL,Angreifer,mshambulizi,d,NA,NA,NA,NA,qt,NA,3,NA,NA,NA,NA,NA,NA,NA,NA,NA,NA,NA,NA,NA,NA,NA,NA,NA,NA,NA
31f81,"""Falsch""-Screen",canvas.Screen,3_0_3_0_0_0_2,NA,NA,timeout,4996.5650000004,3708050.8,3708035.709,3708051.709,3713030.988,3713032.6999998,2023-05-11T16:47:06Z,3713048.274,NULL,Angreifer,mshambulizi,d,NA,NA,NA,NA,qt,0,3,NA,NA,NA,NA,NA,NA,NA,NA,NA,NA,NA,NA,NA,NA,NA,NA,NA,NA,NA
31f81,deep,flow.Sequence,3_0_3_0_0_0,NA,NA,completion,18285.018,3694743,3694729.315,3694745.97,3713030.988,3713032.8999999,2023-05-11T16:47:06Z,3713048.274,NULL,Angreifer,mshambulizi,d,NA,NA,NA,NA,qt,NA,3,NA,NA,NA,NA,NA,NA,NA,NA,NA,NA,NA,NA,NA,NA,NA,NA,NA,NA,NA
31f81,shallow,flow.Sequence,3_0_3_0_0_1,NA,NA,skipped,NA,3713032.8999999,NA,NA,3713030.988,3713033,2023-05-11T16:47:06Z,3713048.274,NULL,Angreifer,mshambulizi,d,NA,NA,NA,NA,qt,NA,3,NA,NA,NA,NA,NA,NA,NA,NA,NA,NA,NA,NA,NA,NA,NA,NA,NA,NA,NA
31f81,task,flow.Sequence,3_0_3_0_0,NA,NA,completion,18285.018,3694743,3694729.315,3694745.97,3713030.988,3713033.0999999,2023-05-11T16:47:06Z,3713048.274,NULL,Angreifer,mshambulizi,d,NA,NA,NA,NA,qt,NA,3,NA,NA,NA,NA,NA,NA,NA,NA,NA,NA,NA,NA,NA,NA,NA,NA,NA,NA,NA
31f81,deep,flow.Sequence,3_0_3_0_1_0,NA,NA,skipped,NA,3713033.0999999,NA,NA,3713030.988,3713033.1999998,2023-05-11T16:47:06Z,3713048.274,NULL,Zufall,kikuti,s,kukosekana,uchoraji,leseni,NA,qt,NA,3,NA,NA,NA,NA,NA,NA,NA,NA,NA,NA,NA,NA,NA,NA,NA,NA,NA,NA,NA
31f81,Shallow Question,html.Page,3_0_3_0_1_1_0,NA,NA,form submission,4356.7259999998,3713033.1999998,3713030.988,3713048.274,3717405,3717405.1999998,2023-05-11T16:47:11Z,3717410.67,NULL,Zufall,kikuti,s,kukosekana,uchoraji,leseni,kikuti,NA,NA,3,NA,NA,NA,NA,NA,NA,NA,NA,NA,NA,NA,NA,NA,NA,NA,NA,NA,NA,NA
31f81,"""Richtig""-Screen",canvas.Screen,3_0_3_0_1_1_1,NA,NA,timeout,4995.9240000001,3717407.3,3717394.098,3717410.67,3722390.302,3722391.5,2023-05-11T16:47:16Z,3722406.594,NULL,Zufall,kikuti,s,kukosekana,uchoraji,leseni,NA,qt,1,3,NA,NA,NA,NA,NA,NA,NA,NA,NA,NA,NA,NA,NA,NA,NA,NA,NA,NA,NA
31f81,"""Falsch""-Screen",canvas.Screen,3_0_3_0_1_1_2,NA,NA,skipped,NA,3722393.8,NA,NA,3722390.302,3722394,2023-05-11T16:47:16Z,3722406.594,NULL,Zufall,kikuti,s,kukosekana,uchoraji,leseni,NA,qt,NA,3,NA,NA,NA,NA,NA,NA,NA,NA,NA,NA,NA,NA,NA,NA,NA,NA,NA,NA,NA
31f81,shallow,flow.Sequence,3_0_3_0_1_1,NA,NA,completion,9342.0279999999,3713033.1999998,3713030.988,3713048.274,3722390.302,3722394.0999999,2023-05-11T16:47:16Z,3722406.594,NULL,Zufall,kikuti,s,kukosekana,uchoraji,leseni,NA,qt,NA,3,NA,NA,NA,NA,NA,NA,NA,NA,NA,NA,NA,NA,NA,NA,NA,NA,NA,NA,NA
31f81,task,flow.Sequence,3_0_3_0_1,NA,NA,completion,9342.0279999999,3713033.0999999,3713030.988,3713048.274,3722390.302,3722394.0999999,2023-05-11T16:47:16Z,3722406.594,NULL,Zufall,kikuti,s,kukosekana,uchoraji,leseni,NA,qt,NA,3,NA,NA,NA,NA,NA,NA,NA,NA,NA,NA,NA,NA,NA,NA,NA,NA,NA,NA,NA
31f81,deep,flow.Sequence,3_0_3_0_2_0,NA,NA,skipped,NA,3722394.3,NA,NA,3722390.302,3722394.3999999,2023-05-11T16:47:16Z,3722406.594,NULL,Abrechnung,uhasibu,s,kusahihisha,mpambano,mashambulizi,NA,qt,NA,3,NA,NA,NA,NA,NA,NA,NA,NA,NA,NA,NA,NA,NA,NA,NA,NA,NA,NA,NA
31f81,Shallow Question,html.Page,3_0_3_0_2_1_0,NA,NA,form submission,4568.1059998092,3722394.3999999,3722390.302,3722406.594,3726974.6999998,3726974.8999999,2023-05-11T16:47:20Z,3726986.639,NULL,Abrechnung,uhasibu,s,kusahihisha,mpambano,mashambulizi,uhasibu,NA,NA,3,NA,NA,NA,NA,NA,NA,NA,NA,NA,NA,NA,NA,NA,NA,NA,NA,NA,NA,NA
31f81,"""Richtig""-Screen",canvas.Screen,3_0_3_0_2_1_1,NA,NA,timeout,4995.54,3726977,3726969.938,3726986.639,3731965.87,3731966.3999999,2023-05-11T16:47:25Z,3731982.179,NULL,Abrechnung,uhasibu,s,kusahihisha,mpambano,mashambulizi,NA,qt,1,3,NA,NA,NA,NA,NA,NA,NA,NA,NA,NA,NA,NA,NA,NA,NA,NA,NA,NA,NA
31f81,"""Falsch""-Screen",canvas.Screen,3_0_3_0_2_1_2,NA,NA,skipped,NA,3731967.8999999,NA,NA,3731965.87,3731968,2023-05-11T16:47:25Z,3731982.179,NULL,Abrechnung,uhasibu,s,kusahihisha,mpambano,mashambulizi,NA,qt,NA,3,NA,NA,NA,NA,NA,NA,NA,NA,NA,NA,NA,NA,NA,NA,NA,NA,NA,NA,NA
31f81,shallow,flow.Sequence,3_0_3_0_2_1,NA,NA,completion,9559.2760000001,3722394.3999999,3722390.302,3722406.594,3731965.87,3731968.1999998,2023-05-11T16:47:25Z,3731982.179,NULL,Abrechnung,uhasibu,s,kusahihisha,mpambano,mashambulizi,NA,qt,NA,3,NA,NA,NA,NA,NA,NA,NA,NA,NA,NA,NA,NA,NA,NA,NA,NA,NA,NA,NA
31f81,task,flow.Sequence,3_0_3_0_2,NA,NA,completion,9559.2760000001,3722394.3,3722390.302,3722406.594,3731965.87,3731968.3,2023-05-11T16:47:25Z,3731982.179,NULL,Abrechnung,uhasibu,s,kusahihisha,mpambano,mashambulizi,NA,qt,NA,3,NA,NA,NA,NA,NA,NA,NA,NA,NA,NA,NA,NA,NA,NA,NA,NA,NA,NA,NA
31f81,Deep Question,html.Page,3_0_3_0_3_0_0,NA,NA,form submission,11571.720999857,3731968.3,3731965.87,3731982.179,3743553.8999999,3743554.0999999,2023-05-11T16:47:37Z,3743555.858,NULL,Wettbewerb,ushindani,d,NA,NA,NA,ush,NA,NA,3,NA,NA,NA,NA,NA,NA,NA,NA,NA,NA,NA,NA,NA,NA,NA,NA,NA,NA,NA
31f81,"""Richtig""-Screen",canvas.Screen,3_0_3_0_3_0_1,NA,NA,skipped,NA,3743556.3,NA,NA,3743553.8999999,3743556.3999999,2023-05-11T16:47:37Z,3743555.858,NULL,Wettbewerb,ushindani,d,NA,NA,NA,NA,qt,NA,3,NA,NA,NA,NA,NA,NA,NA,NA,NA,NA,NA,NA,NA,NA,NA,NA,NA,NA,NA
31f81,"""Falsch""-Screen",canvas.Screen,3_0_3_0_3_0_2,NA,NA,timeout,4996.0869999998,3743557.3,3743539.715,3743555.858,3748535.101,3748537,2023-05-11T16:47:42Z,3748551.945,NULL,Wettbewerb,ushindani,d,NA,NA,NA,NA,qt,0,3,NA,NA,NA,NA,NA,NA,NA,NA,NA,NA,NA,NA,NA,NA,NA,NA,NA,NA,NA
31f81,deep,flow.Sequence,3_0_3_0_3_0,NA,NA,completion,16552.922,3731968.3,3731965.87,3731982.179,3748535.101,3748537.0999999,2023-05-11T16:47:42Z,3748551.945,NULL,Wettbewerb,ushindani,d,NA,NA,NA,NA,qt,NA,3,NA,NA,NA,NA,NA,NA,NA,NA,NA,NA,NA,NA,NA,NA,NA,NA,NA,NA,NA
31f81,shallow,flow.Sequence,3_0_3_0_3_1,NA,NA,skipped,NA,3748537.1999998,NA,NA,3748535.101,3748537.1999998,2023-05-11T16:47:42Z,3748551.945,NULL,Wettbewerb,ushindani,d,NA,NA,NA,NA,qt,NA,3,NA,NA,NA,NA,NA,NA,NA,NA,NA,NA,NA,NA,NA,NA,NA,NA,NA,NA,NA
31f81,task,flow.Sequence,3_0_3_0_3,NA,NA,completion,16552.922,3731968.3,3731965.87,3731982.179,3748535.101,3748537.3,2023-05-11T16:47:42Z,3748551.945,NULL,Wettbewerb,ushindani,d,NA,NA,NA,NA,qt,NA,3,NA,NA,NA,NA,NA,NA,NA,NA,NA,NA,NA,NA,NA,NA,NA,NA,NA,NA,NA
31f81,deep,flow.Sequence,3_0_3_0_4_0,NA,NA,skipped,NA,3748537.3999999,NA,NA,3748535.101,3748537.3999999,2023-05-11T16:47:42Z,3748551.945,NULL,Schönheit,kirembo,s,mahojiano,msisimko,jitihadi,NA,qt,NA,3,NA,NA,NA,NA,NA,NA,NA,NA,NA,NA,NA,NA,NA,NA,NA,NA,NA,NA,NA
31f81,Shallow Question,html.Page,3_0_3_0_4_1_0,NA,NA,form submission,4166.1549999048,3748537.5,3748535.101,3748551.945,3752718.0999999,3752718.3999999,2023-05-11T16:47:46Z,3752731.684,NULL,Schönheit,kirembo,s,mahojiano,msisimko,jitihadi,kirembo,NA,NA,3,NA,NA,NA,NA,NA,NA,NA,NA,NA,NA,NA,NA,NA,NA,NA,NA,NA,NA,NA
31f81,"""Richtig""-Screen",canvas.Screen,3_0_3_0_4_1_1,NA,NA,timeout,4995.858,3752720.5,3752715.034,3752731.684,3757710.972,3757713.3,2023-05-11T16:47:51Z,3757727.542,NULL,Schönheit,kirembo,s,mahojiano,msisimko,jitihadi,NA,qt,1,3,NA,NA,NA,NA,NA,NA,NA,NA,NA,NA,NA,NA,NA,NA,NA,NA,NA,NA,NA
31f81,"""Falsch""-Screen",canvas.Screen,3_0_3_0_4_1_2,NA,NA,skipped,NA,3757718.6999998,NA,NA,3757710.972,3757719,2023-05-11T16:47:51Z,3757727.542,NULL,Schönheit,kirembo,s,mahojiano,msisimko,jitihadi,NA,qt,NA,3,NA,NA,NA,NA,NA,NA,NA,NA,NA,NA,NA,NA,NA,NA,NA,NA,NA,NA,NA
31f81,shallow,flow.Sequence,3_0_3_0_4_1,NA,NA,completion,9159.0270000002,3748537.5,3748535.101,3748551.945,3757710.972,3757719.1999998,2023-05-11T16:47:51Z,3757727.542,NULL,Schönheit,kirembo,s,mahojiano,msisimko,jitihadi,NA,qt,NA,3,NA,NA,NA,NA,NA,NA,NA,NA,NA,NA,NA,NA,NA,NA,NA,NA,NA,NA,NA
31f81,task,flow.Sequence,3_0_3_0_4,NA,NA,completion,9159.0270000002,3748537.3999999,3748535.101,3748551.945,3757710.972,3757719.5,2023-05-11T16:47:51Z,3757727.542,NULL,Schönheit,kirembo,s,mahojiano,msisimko,jitihadi,NA,qt,NA,3,NA,NA,NA,NA,NA,NA,NA,NA,NA,NA,NA,NA,NA,NA,NA,NA,NA,NA,NA
31f81,Deep Question,html.Page,3_0_3_0_5_0_0,NA,NA,form submission,8720.9580000001,3757719.5,3757710.972,3757727.542,3766448.5,3766448.5999999,2023-05-11T16:48:00Z,3766453.699,NULL,Sänger,mwimbaji,d,NA,NA,NA,mwimbazij,NA,NA,3,NA,NA,NA,NA,NA,NA,NA,NA,NA,NA,NA,NA,NA,NA,NA,NA,NA,NA,NA
31f81,"""Richtig""-Screen",canvas.Screen,3_0_3_0_5_0_1,NA,NA,skipped,NA,3766451.6999998,NA,NA,3766448.5,3766451.8999999,2023-05-11T16:48:00Z,3766453.699,NULL,Sänger,mwimbaji,d,NA,NA,NA,NA,qt,NA,3,NA,NA,NA,NA,NA,NA,NA,NA,NA,NA,NA,NA,NA,NA,NA,NA,NA,NA,NA
31f81,"""Falsch""-Screen",canvas.Screen,3_0_3_0_5_0_2,NA,NA,timeout,4995.9500000002,3766452.6999998,3766437.13,3766453.699,3771432.991,3771433.5,2023-05-11T16:48:05Z,3771449.649,NULL,Sänger,mwimbaji,d,NA,NA,NA,NA,qt,0,3,NA,NA,NA,NA,NA,NA,NA,NA,NA,NA,NA,NA,NA,NA,NA,NA,NA,NA,NA
31f81,deep,flow.Sequence,3_0_3_0_5_0,NA,NA,completion,13705.449,3757719.5,3757710.972,3757727.542,3771432.991,3771433.5999999,2023-05-11T16:48:05Z,3771449.649,NULL,Sänger,mwimbaji,d,NA,NA,NA,NA,qt,NA,3,NA,NA,NA,NA,NA,NA,NA,NA,NA,NA,NA,NA,NA,NA,NA,NA,NA,NA,NA
31f81,shallow,flow.Sequence,3_0_3_0_5_1,NA,NA,skipped,NA,3771433.6999998,NA,NA,3771432.991,3771433.6999998,2023-05-11T16:48:05Z,3771449.649,NULL,Sänger,mwimbaji,d,NA,NA,NA,NA,qt,NA,3,NA,NA,NA,NA,NA,NA,NA,NA,NA,NA,NA,NA,NA,NA,NA,NA,NA,NA,NA
31f81,task,flow.Sequence,3_0_3_0_5,NA,NA,completion,13705.449,3757719.5,3757710.972,3757727.542,3771432.991,3771433.6999998,2023-05-11T16:48:05Z,3771449.649,NULL,Sänger,mwimbaji,d,NA,NA,NA,NA,qt,NA,3,NA,NA,NA,NA,NA,NA,NA,NA,NA,NA,NA,NA,NA,NA,NA,NA,NA,NA,NA
31f81,Deep Question,html.Page,3_0_3_0_6_0_0,NA,NA,form submission,5914.8509999998,3771433.8,3771432.991,3771449.649,3777364.5,3777364.6999998,2023-05-11T16:48:11Z,3777378.077,NULL,Auftrag,uagizaji,d,NA,NA,NA,m,NA,NA,3,NA,NA,NA,NA,NA,NA,NA,NA,NA,NA,NA,NA,NA,NA,NA,NA,NA,NA,NA
31f81,"""Richtig""-Screen",canvas.Screen,3_0_3_0_6_0_1,NA,NA,skipped,NA,3777367.5999999,NA,NA,3777364.5,3777367.6999998,2023-05-11T16:48:11Z,3777378.077,NULL,Auftrag,uagizaji,d,NA,NA,NA,NA,qt,NA,3,NA,NA,NA,NA,NA,NA,NA,NA,NA,NA,NA,NA,NA,NA,NA,NA,NA,NA,NA
31f81,"""Falsch""-Screen",canvas.Screen,3_0_3_0_6_0_2,NA,NA,timeout,4995.9019999998,3777368.5999999,3777361.453,3777378.077,3782357.359,3782357.8,2023-05-11T16:48:16Z,3782373.979,NULL,Auftrag,uagizaji,d,NA,NA,NA,NA,qt,0,3,NA,NA,NA,NA,NA,NA,NA,NA,NA,NA,NA,NA,NA,NA,NA,NA,NA,NA,NA
31f81,deep,flow.Sequence,3_0_3_0_6_0,NA,NA,completion,10907.71,3771433.8,3771432.991,3771449.649,3782357.359,3782357.8999999,2023-05-11T16:48:16Z,3782373.979,NULL,Auftrag,uagizaji,d,NA,NA,NA,NA,qt,NA,3,NA,NA,NA,NA,NA,NA,NA,NA,NA,NA,NA,NA,NA,NA,NA,NA,NA,NA,NA
31f81,shallow,flow.Sequence,3_0_3_0_6_1,NA,NA,skipped,NA,3782358,NA,NA,3782357.359,3782358.0999999,2023-05-11T16:48:16Z,3782373.979,NULL,Auftrag,uagizaji,d,NA,NA,NA,NA,qt,NA,3,NA,NA,NA,NA,NA,NA,NA,NA,NA,NA,NA,NA,NA,NA,NA,NA,NA,NA,NA
31f81,task,flow.Sequence,3_0_3_0_6,NA,NA,completion,10907.71,3771433.8,3771432.991,3771449.649,3782357.359,3782358.0999999,2023-05-11T16:48:16Z,3782373.979,NULL,Auftrag,uagizaji,d,NA,NA,NA,NA,qt,NA,3,NA,NA,NA,NA,NA,NA,NA,NA,NA,NA,NA,NA,NA,NA,NA,NA,NA,NA,NA
31f81,deep,flow.Sequence,3_0_3_0_7_0,NA,NA,skipped,NA,3782358.1999998,NA,NA,3782357.359,3782358.3,2023-05-11T16:48:16Z,3782373.979,NULL,Kanzler,diwani,s,rasilmali,mahitaji,maabudu,NA,qt,NA,3,NA,NA,NA,NA,NA,NA,NA,NA,NA,NA,NA,NA,NA,NA,NA,NA,NA,NA,NA
31f81,Shallow Question,html.Page,3_0_3_0_7_1_0,NA,NA,form submission,4014.2209998094,3782358.3,3782357.359,3782373.979,3786388.1999998,3786388.3999999,2023-05-11T16:48:20Z,3786404.024,NULL,Kanzler,diwani,s,rasilmali,mahitaji,maabudu,diwani,NA,NA,3,NA,NA,NA,NA,NA,NA,NA,NA,NA,NA,NA,NA,NA,NA,NA,NA,NA,NA,NA
31f81,"""Richtig""-Screen",canvas.Screen,3_0_3_0_7_1_1,NA,NA,timeout,4995.8369999998,3786390.1999998,3786370.753,3786404.024,3791383.21,3791383.6999998,2023-05-11T16:48:25Z,3791399.861,NULL,Kanzler,diwani,s,rasilmali,mahitaji,maabudu,NA,qt,1,3,NA,NA,NA,NA,NA,NA,NA,NA,NA,NA,NA,NA,NA,NA,NA,NA,NA,NA,NA
31f81,"""Falsch""-Screen",canvas.Screen,3_0_3_0_7_1_2,NA,NA,skipped,NA,3791386.3999999,NA,NA,3791383.21,3791386.5,2023-05-11T16:48:25Z,3791399.861,NULL,Kanzler,diwani,s,rasilmali,mahitaji,maabudu,NA,qt,NA,3,NA,NA,NA,NA,NA,NA,NA,NA,NA,NA,NA,NA,NA,NA,NA,NA,NA,NA,NA
31f81,shallow,flow.Sequence,3_0_3_0_7_1,NA,NA,completion,9009.2310000001,3782358.3,3782357.359,3782373.979,3791383.21,3791386.6999998,2023-05-11T16:48:25Z,3791399.861,NULL,Kanzler,diwani,s,rasilmali,mahitaji,maabudu,NA,qt,NA,3,NA,NA,NA,NA,NA,NA,NA,NA,NA,NA,NA,NA,NA,NA,NA,NA,NA,NA,NA
31f81,task,flow.Sequence,3_0_3_0_7,NA,NA,completion,9009.2310000001,3782358.1999998,3782357.359,3782373.979,3791383.21,3791386.8,2023-05-11T16:48:25Z,3791399.861,NULL,Kanzler,diwani,s,rasilmali,mahitaji,maabudu,NA,qt,NA,3,NA,NA,NA,NA,NA,NA,NA,NA,NA,NA,NA,NA,NA,NA,NA,NA,NA,NA,NA
31f81,block,flow.Loop,3_0_3_0,NA,NA,completion,96637.24,3694743,3694729.315,3694745.97,3791383.21,3791386.8999999,2023-05-11T16:48:25Z,3791399.861,NULL,NA,NA,NA,NA,NA,NA,NA,qt,NA,3,NA,NA,NA,NA,NA,NA,NA,NA,NA,NA,NA,NA,NA,NA,NA,NA,NA,NA,NA
31f81,weiter,canvas.Screen,3_0_3_1,sdf,keypress(Space),response,1677.0389998569,3791387.0999999,3791383.21,3791399.861,3793076.8999999,3793078.5,2023-05-11T16:48:26Z,3793142.866,NULL,NA,NA,NA,NA,NA,NA,NA,qt,NA,3,NA,NA,NA,NA,NA,NA,NA,NA,NA,NA,NA,NA,NA,NA,NA,NA,NA,NA,NA
31f81,check continue,flow.Sequence,3_0_3,NA,NA,completion,98330.929999857,3694742.8999999,3694729.315,3694745.97,3793076.8999999,3793078.8,2023-05-11T16:48:26Z,3793142.866,NULL,NA,NA,NA,NA,NA,NA,NA,qt,NA,3,NA,NA,NA,NA,NA,NA,NA,NA,NA,NA,NA,NA,NA,NA,NA,NA,NA,NA,NA
31f81,deep,flow.Sequence,3_0_4_0_0_0,NA,NA,skipped,NA,3793113.6999998,NA,NA,3793076.8999999,3793113.8,2023-05-11T16:48:26Z,3793142.866,NULL,Kanzler,diwani,s,rasilmali,mahitaji,maabudu,NA,sd,NA,4,NA,NA,NA,NA,NA,NA,NA,NA,NA,NA,NA,NA,NA,NA,NA,NA,NA,NA,NA
31f81,Shallow Question,html.Page,3_0_4_0_0_1_0,NA,NA,form submission,3647.6340000001,3793114,3793098.499,3793142.866,3796790.5,3796790.6999998,2023-05-11T16:48:30Z,3796795.432,NULL,Kanzler,diwani,s,rasilmali,mahitaji,maabudu,diwani,NA,NA,4,NA,NA,NA,NA,NA,NA,NA,NA,NA,NA,NA,NA,NA,NA,NA,NA,NA,NA,NA
31f81,"""Richtig""-Screen",canvas.Screen,3_0_4_0_0_1_1,NA,NA,timeout,4996.4720000001,3796793,3796778.837,3796795.432,3801775.052,3801775.5999999,2023-05-11T16:48:35Z,3801791.904,NULL,Kanzler,diwani,s,rasilmali,mahitaji,maabudu,NA,sd,1,4,NA,NA,NA,NA,NA,NA,NA,NA,NA,NA,NA,NA,NA,NA,NA,NA,NA,NA,NA
31f81,"""Falsch""-Screen",canvas.Screen,3_0_4_0_0_1_2,NA,NA,skipped,NA,3801778.3999999,NA,NA,3801775.052,3801778.5,2023-05-11T16:48:35Z,3801791.904,NULL,Kanzler,diwani,s,rasilmali,mahitaji,maabudu,NA,sd,NA,4,NA,NA,NA,NA,NA,NA,NA,NA,NA,NA,NA,NA,NA,NA,NA,NA,NA,NA,NA
31f81,shallow,flow.Sequence,3_0_4_0_0_1,NA,NA,completion,8632.1860000002,3793113.8999999,3793098.499,3793142.866,3801775.052,3801778.6999998,2023-05-11T16:48:35Z,3801791.904,NULL,Kanzler,diwani,s,rasilmali,mahitaji,maabudu,NA,sd,NA,4,NA,NA,NA,NA,NA,NA,NA,NA,NA,NA,NA,NA,NA,NA,NA,NA,NA,NA,NA
31f81,task,flow.Sequence,3_0_4_0_0,NA,NA,completion,8632.1860000002,3793113.6999998,3793098.499,3793142.866,3801775.052,3801778.8,2023-05-11T16:48:35Z,3801791.904,NULL,Kanzler,diwani,s,rasilmali,mahitaji,maabudu,NA,sd,NA,4,NA,NA,NA,NA,NA,NA,NA,NA,NA,NA,NA,NA,NA,NA,NA,NA,NA,NA,NA
31f81,Deep Question,html.Page,3_0_4_0_1_0_0,NA,NA,form submission,8696.8959999522,3801778.8999999,3801775.052,3801791.904,3810488.8,3810489,2023-05-11T16:48:44Z,3810500.856,NULL,Sänger,mwimbaji,d,NA,NA,NA,mwimbaji,NA,NA,4,NA,NA,NA,NA,NA,NA,NA,NA,NA,NA,NA,NA,NA,NA,NA,NA,NA,NA,NA
31f81,"""Richtig""-Screen",canvas.Screen,3_0_4_0_1_0_1,NA,NA,timeout,4996.1579999998,3810491.1999998,3810484.219,3810500.856,3815480.157,3815480.8999999,2023-05-11T16:48:49Z,3815497.014,NULL,Sänger,mwimbaji,d,NA,NA,NA,NA,sd,1,4,NA,NA,NA,NA,NA,NA,NA,NA,NA,NA,NA,NA,NA,NA,NA,NA,NA,NA,NA
31f81,"""Falsch""-Screen",canvas.Screen,3_0_4_0_1_0_2,NA,NA,skipped,NA,3815486.6999998,NA,NA,3815480.157,3815487,2023-05-11T16:48:49Z,3815497.014,NULL,Sänger,mwimbaji,d,NA,NA,NA,NA,sd,NA,4,NA,NA,NA,NA,NA,NA,NA,NA,NA,NA,NA,NA,NA,NA,NA,NA,NA,NA,NA
31f81,deep,flow.Sequence,3_0_4_0_1_0,NA,NA,completion,13688.253,3801778.8999999,3801775.052,3801791.904,3815480.157,3815487.1999998,2023-05-11T16:48:49Z,3815497.014,NULL,Sänger,mwimbaji,d,NA,NA,NA,NA,sd,NA,4,NA,NA,NA,NA,NA,NA,NA,NA,NA,NA,NA,NA,NA,NA,NA,NA,NA,NA,NA
31f81,shallow,flow.Sequence,3_0_4_0_1_1,NA,NA,skipped,NA,3815487.1999998,NA,NA,3815480.157,3815487.3999999,2023-05-11T16:48:49Z,3815497.014,NULL,Sänger,mwimbaji,d,NA,NA,NA,NA,sd,NA,4,NA,NA,NA,NA,NA,NA,NA,NA,NA,NA,NA,NA,NA,NA,NA,NA,NA,NA,NA
31f81,task,flow.Sequence,3_0_4_0_1,NA,NA,completion,13688.253,3801778.8999999,3801775.052,3801791.904,3815480.157,3815487.5999999,2023-05-11T16:48:49Z,3815497.014,NULL,Sänger,mwimbaji,d,NA,NA,NA,NA,sd,NA,4,NA,NA,NA,NA,NA,NA,NA,NA,NA,NA,NA,NA,NA,NA,NA,NA,NA,NA,NA
31f81,deep,flow.Sequence,3_0_4_0_2_0,NA,NA,skipped,NA,3815487.8999999,NA,NA,3815480.157,3815488,2023-05-11T16:48:49Z,3815497.014,NULL,Schönheit,kirembo,s,mahojiano,msisimko,jitihadi,NA,sd,NA,4,NA,NA,NA,NA,NA,NA,NA,NA,NA,NA,NA,NA,NA,NA,NA,NA,NA,NA,NA
31f81,Shallow Question,html.Page,3_0_4_0_2_1_0,NA,NA,form submission,3358.885999857,3815488.1999998,3815480.157,3815497.014,3818855.8999999,3818856.0999999,2023-05-11T16:48:52Z,3818860.622,NULL,Schönheit,kirembo,s,mahojiano,msisimko,jitihadi,kirembo,NA,NA,4,NA,NA,NA,NA,NA,NA,NA,NA,NA,NA,NA,NA,NA,NA,NA,NA,NA,NA,NA
31f81,"""Richtig""-Screen",canvas.Screen,3_0_4_0_2_1_1,NA,NA,timeout,4996.5279999999,3818858.0999999,3818844.077,3818860.622,3823839.915,3823840.3999999,2023-05-11T16:48:57Z,3823857.15,NULL,Schönheit,kirembo,s,mahojiano,msisimko,jitihadi,NA,sd,1,4,NA,NA,NA,NA,NA,NA,NA,NA,NA,NA,NA,NA,NA,NA,NA,NA,NA,NA,NA
31f81,"""Falsch""-Screen",canvas.Screen,3_0_4_0_2_1_2,NA,NA,skipped,NA,3823841.8999999,NA,NA,3823839.915,3823842.0999999,2023-05-11T16:48:57Z,3823857.15,NULL,Schönheit,kirembo,s,mahojiano,msisimko,jitihadi,NA,sd,NA,4,NA,NA,NA,NA,NA,NA,NA,NA,NA,NA,NA,NA,NA,NA,NA,NA,NA,NA,NA
31f81,shallow,flow.Sequence,3_0_4_0_2_1,NA,NA,completion,8342.9010000001,3815488.1999998,3815480.157,3815497.014,3823839.915,3823842.1999998,2023-05-11T16:48:57Z,3823857.15,NULL,Schönheit,kirembo,s,mahojiano,msisimko,jitihadi,NA,sd,NA,4,NA,NA,NA,NA,NA,NA,NA,NA,NA,NA,NA,NA,NA,NA,NA,NA,NA,NA,NA
31f81,task,flow.Sequence,3_0_4_0_2,NA,NA,completion,8342.9010000001,3815487.6999998,3815480.157,3815497.014,3823839.915,3823842.3,2023-05-11T16:48:57Z,3823857.15,NULL,Schönheit,kirembo,s,mahojiano,msisimko,jitihadi,NA,sd,NA,4,NA,NA,NA,NA,NA,NA,NA,NA,NA,NA,NA,NA,NA,NA,NA,NA,NA,NA,NA
31f81,deep,flow.Sequence,3_0_4_0_3_0,NA,NA,skipped,NA,3823842.3999999,NA,NA,3823839.915,3823842.3999999,2023-05-11T16:48:57Z,3823857.15,NULL,Abrechnung,uhasibu,s,kusahihisha,mpambano,mashambulizi,NA,sd,NA,4,NA,NA,NA,NA,NA,NA,NA,NA,NA,NA,NA,NA,NA,NA,NA,NA,NA,NA,NA
31f81,Shallow Question,html.Page,3_0_4_0_3_1_0,NA,NA,form submission,13928.449999905,3823842.5,3823839.915,3823857.15,3837785.5999999,3837785.8,2023-05-11T16:49:11Z,3837795.076,NULL,Abrechnung,uhasibu,s,kusahihisha,mpambano,mashambulizi,uhasibu,NA,NA,4,NA,NA,NA,NA,NA,NA,NA,NA,NA,NA,NA,NA,NA,NA,NA,NA,NA,NA,NA
31f81,"""Richtig""-Screen",canvas.Screen,3_0_4_0_3_1_1,NA,NA,timeout,4996.5190000003,3837787.8999999,3837778.48,3837795.076,3842774.353,3842775.8999999,2023-05-11T16:49:16Z,3842791.595,NULL,Abrechnung,uhasibu,s,kusahihisha,mpambano,mashambulizi,NA,sd,1,4,NA,NA,NA,NA,NA,NA,NA,NA,NA,NA,NA,NA,NA,NA,NA,NA,NA,NA,NA
31f81,"""Falsch""-Screen",canvas.Screen,3_0_4_0_3_1_2,NA,NA,skipped,NA,3842778.1999998,NA,NA,3842774.353,3842778.3999999,2023-05-11T16:49:16Z,3842791.595,NULL,Abrechnung,uhasibu,s,kusahihisha,mpambano,mashambulizi,NA,sd,NA,4,NA,NA,NA,NA,NA,NA,NA,NA,NA,NA,NA,NA,NA,NA,NA,NA,NA,NA,NA
31f81,shallow,flow.Sequence,3_0_4_0_3_1,NA,NA,completion,18917.203,3823842.3999999,3823839.915,3823857.15,3842774.353,3842778.5,2023-05-11T16:49:16Z,3842791.595,NULL,Abrechnung,uhasibu,s,kusahihisha,mpambano,mashambulizi,NA,sd,NA,4,NA,NA,NA,NA,NA,NA,NA,NA,NA,NA,NA,NA,NA,NA,NA,NA,NA,NA,NA
31f81,task,flow.Sequence,3_0_4_0_3,NA,NA,completion,18917.203,3823842.3999999,3823839.915,3823857.15,3842774.353,3842778.5999999,2023-05-11T16:49:16Z,3842791.595,NULL,Abrechnung,uhasibu,s,kusahihisha,mpambano,mashambulizi,NA,sd,NA,4,NA,NA,NA,NA,NA,NA,NA,NA,NA,NA,NA,NA,NA,NA,NA,NA,NA,NA,NA
31f81,Deep Question,html.Page,3_0_4_0_4_0_0,NA,NA,form submission,12694.405,3842778.5999999,3842774.353,3842791.595,3855486,3855486.1999998,2023-05-11T16:49:29Z,3855514.375,NULL,Angreifer,mshambulizi,d,NA,NA,NA,uagizaj,NA,NA,4,NA,NA,NA,NA,NA,NA,NA,NA,NA,NA,NA,NA,NA,NA,NA,NA,NA,NA,NA
31f81,"""Richtig""-Screen",canvas.Screen,3_0_4_0_4_0_1,NA,NA,skipped,NA,3855489,NA,NA,3855486,3855489.1999998,2023-05-11T16:49:29Z,3855514.375,NULL,Angreifer,mshambulizi,d,NA,NA,NA,NA,sd,NA,4,NA,NA,NA,NA,NA,NA,NA,NA,NA,NA,NA,NA,NA,NA,NA,NA,NA,NA,NA
31f81,"""Falsch""-Screen",canvas.Screen,3_0_4_0_4_0_2,NA,NA,timeout,4995.9130000002,3855490.3,3855497.215,3855514.375,3860493.394,3860494.5,2023-05-11T16:49:34Z,3860510.288,NULL,Angreifer,mshambulizi,d,NA,NA,NA,NA,sd,0,4,NA,NA,NA,NA,NA,NA,NA,NA,NA,NA,NA,NA,NA,NA,NA,NA,NA,NA,NA
31f81,deep,flow.Sequence,3_0_4_0_4_0,NA,NA,completion,17701.799,3842778.5999999,3842774.353,3842791.595,3860493.394,3860494.8999999,2023-05-11T16:49:34Z,3860510.288,NULL,Angreifer,mshambulizi,d,NA,NA,NA,NA,sd,NA,4,NA,NA,NA,NA,NA,NA,NA,NA,NA,NA,NA,NA,NA,NA,NA,NA,NA,NA,NA
31f81,shallow,flow.Sequence,3_0_4_0_4_1,NA,NA,skipped,NA,3860495.1999998,NA,NA,3860493.394,3860495.3999999,2023-05-11T16:49:34Z,3860510.288,NULL,Angreifer,mshambulizi,d,NA,NA,NA,NA,sd,NA,4,NA,NA,NA,NA,NA,NA,NA,NA,NA,NA,NA,NA,NA,NA,NA,NA,NA,NA,NA
31f81,task,flow.Sequence,3_0_4_0_4,NA,NA,completion,17701.799,3842778.5999999,3842774.353,3842791.595,3860493.394,3860495.6999998,2023-05-11T16:49:34Z,3860510.288,NULL,Angreifer,mshambulizi,d,NA,NA,NA,NA,sd,NA,4,NA,NA,NA,NA,NA,NA,NA,NA,NA,NA,NA,NA,NA,NA,NA,NA,NA,NA,NA
31f81,Deep Question,html.Page,3_0_4_0_5_0_0,NA,NA,form submission,6654.9119998091,3860495.8999999,3860493.394,3860510.288,3867165.1999998,3867165.5,2023-05-11T16:49:40Z,3867187.757,NULL,Wettbewerb,ushindani,d,NA,NA,NA,ushindani,NA,NA,4,NA,NA,NA,NA,NA,NA,NA,NA,NA,NA,NA,NA,NA,NA,NA,NA,NA,NA,NA
31f81,"""Richtig""-Screen",canvas.Screen,3_0_4_0_5_0_1,NA,NA,timeout,4996.406,3867167.5999999,3867170.946,3867187.757,3872166.863,3872168.8999999,2023-05-11T16:49:45Z,3872184.163,NULL,Wettbewerb,ushindani,d,NA,NA,NA,NA,sd,1,4,NA,NA,NA,NA,NA,NA,NA,NA,NA,NA,NA,NA,NA,NA,NA,NA,NA,NA,NA
31f81,"""Falsch""-Screen",canvas.Screen,3_0_4_0_5_0_2,NA,NA,skipped,NA,3872172.8999999,NA,NA,3872166.863,3872173.0999999,2023-05-11T16:49:45Z,3872184.163,NULL,Wettbewerb,ushindani,d,NA,NA,NA,NA,sd,NA,4,NA,NA,NA,NA,NA,NA,NA,NA,NA,NA,NA,NA,NA,NA,NA,NA,NA,NA,NA
31f81,deep,flow.Sequence,3_0_4_0_5_0,NA,NA,completion,11656.575,3860495.8999999,3860493.394,3860510.288,3872166.863,3872173.3,2023-05-11T16:49:45Z,3872184.163,NULL,Wettbewerb,ushindani,d,NA,NA,NA,NA,sd,NA,4,NA,NA,NA,NA,NA,NA,NA,NA,NA,NA,NA,NA,NA,NA,NA,NA,NA,NA,NA
31f81,shallow,flow.Sequence,3_0_4_0_5_1,NA,NA,skipped,NA,3872173.3999999,NA,NA,3872166.863,3872173.5,2023-05-11T16:49:45Z,3872184.163,NULL,Wettbewerb,ushindani,d,NA,NA,NA,NA,sd,NA,4,NA,NA,NA,NA,NA,NA,NA,NA,NA,NA,NA,NA,NA,NA,NA,NA,NA,NA,NA
31f81,task,flow.Sequence,3_0_4_0_5,NA,NA,completion,11656.575,3860495.8,3860493.394,3860510.288,3872166.863,3872173.5999999,2023-05-11T16:49:45Z,3872184.163,NULL,Wettbewerb,ushindani,d,NA,NA,NA,NA,sd,NA,4,NA,NA,NA,NA,NA,NA,NA,NA,NA,NA,NA,NA,NA,NA,NA,NA,NA,NA,NA
31f81,deep,flow.Sequence,3_0_4_0_6_0,NA,NA,skipped,NA,3872173.6999998,NA,NA,3872166.863,3872173.8,2023-05-11T16:49:45Z,3872184.163,NULL,Zufall,kikuti,s,kukosekana,uchoraji,leseni,NA,sd,NA,4,NA,NA,NA,NA,NA,NA,NA,NA,NA,NA,NA,NA,NA,NA,NA,NA,NA,NA,NA
31f81,Shallow Question,html.Page,3_0_4_0_6_1_0,NA,NA,form submission,5207.3369999998,3872173.8999999,3872166.863,3872184.163,3877391.5,3877391.6999998,2023-05-11T16:49:51Z,3877395.885,NULL,Zufall,kikuti,s,kukosekana,uchoraji,leseni,kikuti,NA,NA,4,NA,NA,NA,NA,NA,NA,NA,NA,NA,NA,NA,NA,NA,NA,NA,NA,NA,NA,NA
31f81,"""Richtig""-Screen",canvas.Screen,3_0_4_0_6_1_1,NA,NA,timeout,4995.9180000001,3877393.0999999,3877379.23,3877395.885,3882375.194,3882377.1999998,2023-05-11T16:49:56Z,3882391.803,NULL,Zufall,kikuti,s,kukosekana,uchoraji,leseni,NA,sd,1,4,NA,NA,NA,NA,NA,NA,NA,NA,NA,NA,NA,NA,NA,NA,NA,NA,NA,NA,NA
31f81,"""Falsch""-Screen",canvas.Screen,3_0_4_0_6_1_2,NA,NA,skipped,NA,3882383.8,NA,NA,3882375.194,3882384.3,2023-05-11T16:49:56Z,3882391.803,NULL,Zufall,kikuti,s,kukosekana,uchoraji,leseni,NA,sd,NA,4,NA,NA,NA,NA,NA,NA,NA,NA,NA,NA,NA,NA,NA,NA,NA,NA,NA,NA,NA
31f81,shallow,flow.Sequence,3_0_4_0_6_1,NA,NA,completion,10191.031,3872173.8999999,3872166.863,3872184.163,3882375.194,3882384.8999999,2023-05-11T16:49:56Z,3882391.803,NULL,Zufall,kikuti,s,kukosekana,uchoraji,leseni,NA,sd,NA,4,NA,NA,NA,NA,NA,NA,NA,NA,NA,NA,NA,NA,NA,NA,NA,NA,NA,NA,NA
31f81,task,flow.Sequence,3_0_4_0_6,NA,NA,completion,10191.031,3872173.6999998,3872166.863,3872184.163,3882375.194,3882385.3,2023-05-11T16:49:56Z,3882391.803,NULL,Zufall,kikuti,s,kukosekana,uchoraji,leseni,NA,sd,NA,4,NA,NA,NA,NA,NA,NA,NA,NA,NA,NA,NA,NA,NA,NA,NA,NA,NA,NA,NA
31f81,Deep Question,html.Page,3_0_4_0_7_0_0,NA,NA,form submission,9144.4969999525,3882385.8,3882375.194,3882391.803,3891536.3,3891536.5999999,2023-05-11T16:50:05Z,3891550.911,NULL,Auftrag,uagizaji,d,NA,NA,NA,uagizaj,NA,NA,4,NA,NA,NA,NA,NA,NA,NA,NA,NA,NA,NA,NA,NA,NA,NA,NA,NA,NA,NA
31f81,"""Richtig""-Screen",canvas.Screen,3_0_4_0_7_0_1,NA,NA,skipped,NA,3891539.1999998,NA,NA,3891536.3,3891539.3,2023-05-11T16:50:05Z,3891550.911,NULL,Auftrag,uagizaji,d,NA,NA,NA,NA,sd,NA,4,NA,NA,NA,NA,NA,NA,NA,NA,NA,NA,NA,NA,NA,NA,NA,NA,NA,NA,NA
31f81,"""Falsch""-Screen",canvas.Screen,3_0_4_0_7_0_2,NA,NA,timeout,4996.5010000002,3891540.3,3891534.47,3891550.911,3896530.462,3896530.8999999,2023-05-11T16:50:10Z,3896547.412,NULL,Auftrag,uagizaji,d,NA,NA,NA,NA,sd,0,4,NA,NA,NA,NA,NA,NA,NA,NA,NA,NA,NA,NA,NA,NA,NA,NA,NA,NA,NA
31f81,deep,flow.Sequence,3_0_4_0_7_0,NA,NA,completion,14138.659,3882385.6999998,3882375.194,3882391.803,3896530.462,3896531.1999998,2023-05-11T16:50:10Z,3896547.412,NULL,Auftrag,uagizaji,d,NA,NA,NA,NA,sd,NA,4,NA,NA,NA,NA,NA,NA,NA,NA,NA,NA,NA,NA,NA,NA,NA,NA,NA,NA,NA
31f81,shallow,flow.Sequence,3_0_4_0_7_1,NA,NA,skipped,NA,3896531.1999998,NA,NA,3896530.462,3896531.3,2023-05-11T16:50:10Z,3896547.412,NULL,Auftrag,uagizaji,d,NA,NA,NA,NA,sd,NA,4,NA,NA,NA,NA,NA,NA,NA,NA,NA,NA,NA,NA,NA,NA,NA,NA,NA,NA,NA
31f81,task,flow.Sequence,3_0_4_0_7,NA,NA,completion,14138.659,3882385.5999999,3882375.194,3882391.803,3896530.462,3896531.3999999,2023-05-11T16:50:10Z,3896547.412,NULL,Auftrag,uagizaji,d,NA,NA,NA,NA,sd,NA,4,NA,NA,NA,NA,NA,NA,NA,NA,NA,NA,NA,NA,NA,NA,NA,NA,NA,NA,NA
31f81,block,flow.Loop,3_0_4_0,NA,NA,completion,103387.596,3793113.6999998,3793098.499,3793142.866,3896530.462,3896531.5,2023-05-11T16:50:10Z,3896547.412,NULL,NA,NA,NA,NA,NA,NA,NA,sd,NA,4,NA,NA,NA,NA,NA,NA,NA,NA,NA,NA,NA,NA,NA,NA,NA,NA,NA,NA,NA
31f81,weiter,canvas.Screen,3_0_4_1,sdf,keypress(Space),response,1680.2879998093,3896531.5999999,3896530.462,3896547.412,3898227.6999998,3898231.8,2023-05-11T16:50:12Z,3898262.262,NULL,NA,NA,NA,NA,NA,NA,NA,sd,NA,4,NA,NA,NA,NA,NA,NA,NA,NA,NA,NA,NA,NA,NA,NA,NA,NA,NA,NA,NA
31f81,check continue,flow.Sequence,3_0_4,NA,NA,completion,105084.83399981,3793113.5999999,3793098.499,3793142.866,3898227.6999998,3898232,2023-05-11T16:50:12Z,3898262.262,NULL,NA,NA,NA,NA,NA,NA,NA,sd,NA,4,NA,NA,NA,NA,NA,NA,NA,NA,NA,NA,NA,NA,NA,NA,NA,NA,NA,NA,NA
31f81,deep,flow.Sequence,3_0_5_0_0_0,NA,NA,skipped,NA,3898255.0999999,NA,NA,3898227.6999998,3898255.1999998,2023-05-11T16:50:12Z,3898262.262,NULL,Kanzler,diwani,s,rasilmali,mahitaji,maabudu,NA,sdf,NA,5,NA,NA,NA,NA,NA,NA,NA,NA,NA,NA,NA,NA,NA,NA,NA,NA,NA,NA,NA
31f81,Shallow Question,html.Page,3_0_5_0_0_1_0,NA,NA,form submission,3834.1379998568,3898255.3,3898245.75,3898262.262,3902096.3999999,3902096.5999999,2023-05-11T16:50:15Z,3902109.367,NULL,Kanzler,diwani,s,rasilmali,mahitaji,maabudu,diwani,NA,NA,5,NA,NA,NA,NA,NA,NA,NA,NA,NA,NA,NA,NA,NA,NA,NA,NA,NA,NA,NA
31f81,"""Richtig""-Screen",canvas.Screen,3_0_5_0_0_1_1,NA,NA,timeout,4995.804,3902098.5999999,3902092.258,3902109.367,3907088.117,3907089.1999998,2023-05-11T16:50:20Z,3907105.171,NULL,Kanzler,diwani,s,rasilmali,mahitaji,maabudu,NA,sdf,1,5,NA,NA,NA,NA,NA,NA,NA,NA,NA,NA,NA,NA,NA,NA,NA,NA,NA,NA,NA
31f81,"""Falsch""-Screen",canvas.Screen,3_0_5_0_0_1_2,NA,NA,skipped,NA,3907091.5,NA,NA,3907088.117,3907091.6999998,2023-05-11T16:50:20Z,3907105.171,NULL,Kanzler,diwani,s,rasilmali,mahitaji,maabudu,NA,sdf,NA,5,NA,NA,NA,NA,NA,NA,NA,NA,NA,NA,NA,NA,NA,NA,NA,NA,NA,NA,NA
31f81,shallow,flow.Sequence,3_0_5_0_0_1,NA,NA,completion,8825.855,3898255.3,3898245.75,3898262.262,3907088.117,3907091.8999999,2023-05-11T16:50:20Z,3907105.171,NULL,Kanzler,diwani,s,rasilmali,mahitaji,maabudu,NA,sdf,NA,5,NA,NA,NA,NA,NA,NA,NA,NA,NA,NA,NA,NA,NA,NA,NA,NA,NA,NA,NA
31f81,task,flow.Sequence,3_0_5_0_0,NA,NA,completion,8825.855,3898255,3898245.75,3898262.262,3907088.117,3907092,2023-05-11T16:50:20Z,3907105.171,NULL,Kanzler,diwani,s,rasilmali,mahitaji,maabudu,NA,sdf,NA,5,NA,NA,NA,NA,NA,NA,NA,NA,NA,NA,NA,NA,NA,NA,NA,NA,NA,NA,NA
31f81,Deep Question,html.Page,3_0_5_0_1_0_0,NA,NA,form submission,9195.3289999999,3907092.1999998,3907088.117,3907105.171,3916300.5,3916300.6999998,2023-05-11T16:50:30Z,3916313.885,NULL,Sänger,mwimbaji,d,NA,NA,NA,mwimbaji,NA,NA,5,NA,NA,NA,NA,NA,NA,NA,NA,NA,NA,NA,NA,NA,NA,NA,NA,NA,NA,NA
31f81,"""Richtig""-Screen",canvas.Screen,3_0_5_0_1_0_1,NA,NA,timeout,4995.9750000001,3916303.0999999,3916297.273,3916313.885,3921293.175,3921294.3,2023-05-11T16:50:35Z,3921309.86,NULL,Sänger,mwimbaji,d,NA,NA,NA,NA,sdf,1,5,NA,NA,NA,NA,NA,NA,NA,NA,NA,NA,NA,NA,NA,NA,NA,NA,NA,NA,NA
31f81,"""Falsch""-Screen",canvas.Screen,3_0_5_0_1_0_2,NA,NA,skipped,NA,3921298,NA,NA,3921293.175,3921298.0999999,2023-05-11T16:50:35Z,3921309.86,NULL,Sänger,mwimbaji,d,NA,NA,NA,NA,sdf,NA,5,NA,NA,NA,NA,NA,NA,NA,NA,NA,NA,NA,NA,NA,NA,NA,NA,NA,NA,NA
31f81,deep,flow.Sequence,3_0_5_0_1_0,NA,NA,completion,14188.004,3907092.0999999,3907088.117,3907105.171,3921293.175,3921298.3999999,2023-05-11T16:50:35Z,3921309.86,NULL,Sänger,mwimbaji,d,NA,NA,NA,NA,sdf,NA,5,NA,NA,NA,NA,NA,NA,NA,NA,NA,NA,NA,NA,NA,NA,NA,NA,NA,NA,NA
31f81,shallow,flow.Sequence,3_0_5_0_1_1,NA,NA,skipped,NA,3921298.5,NA,NA,3921293.175,3921298.6999998,2023-05-11T16:50:35Z,3921309.86,NULL,Sänger,mwimbaji,d,NA,NA,NA,NA,sdf,NA,5,NA,NA,NA,NA,NA,NA,NA,NA,NA,NA,NA,NA,NA,NA,NA,NA,NA,NA,NA
31f81,task,flow.Sequence,3_0_5_0_1,NA,NA,completion,14188.004,3907092.0999999,3907088.117,3907105.171,3921293.175,3921298.8,2023-05-11T16:50:35Z,3921309.86,NULL,Sänger,mwimbaji,d,NA,NA,NA,NA,sdf,NA,5,NA,NA,NA,NA,NA,NA,NA,NA,NA,NA,NA,NA,NA,NA,NA,NA,NA,NA,NA
31f81,Deep Question,html.Page,3_0_5_0_2_0_0,NA,NA,form submission,12883.739999905,3921299,3921293.175,3921309.86,3934193.5999999,3934193.8,2023-05-11T16:50:47Z,3934199.183,NULL,Auftrag,uagizaji,d,NA,NA,NA,mshundalizi,NA,NA,5,NA,NA,NA,NA,NA,NA,NA,NA,NA,NA,NA,NA,NA,NA,NA,NA,NA,NA,NA
31f81,"""Richtig""-Screen",canvas.Screen,3_0_5_0_2_0_1,NA,NA,skipped,NA,3934195.6999998,NA,NA,3934193.5999999,3934195.8999999,2023-05-11T16:50:47Z,3934199.183,NULL,Auftrag,uagizaji,d,NA,NA,NA,NA,sdf,NA,5,NA,NA,NA,NA,NA,NA,NA,NA,NA,NA,NA,NA,NA,NA,NA,NA,NA,NA,NA
31f81,"""Falsch""-Screen",canvas.Screen,3_0_5_0_2_0_2,NA,NA,timeout,4995.8809999996,3934196.5,3934183.134,3934199.183,3939178.446,3939179.5999999,2023-05-11T16:50:52Z,3939195.064,NULL,Auftrag,uagizaji,d,NA,NA,NA,NA,sdf,0,5,NA,NA,NA,NA,NA,NA,NA,NA,NA,NA,NA,NA,NA,NA,NA,NA,NA,NA,NA
31f81,deep,flow.Sequence,3_0_5_0_2_0,NA,NA,completion,17868.586,3921298.8999999,3921293.175,3921309.86,3939178.446,3939179.6999998,2023-05-11T16:50:52Z,3939195.064,NULL,Auftrag,uagizaji,d,NA,NA,NA,NA,sdf,NA,5,NA,NA,NA,NA,NA,NA,NA,NA,NA,NA,NA,NA,NA,NA,NA,NA,NA,NA,NA
31f81,shallow,flow.Sequence,3_0_5_0_2_1,NA,NA,skipped,NA,3939179.8,NA,NA,3939178.446,3939179.8,2023-05-11T16:50:52Z,3939195.064,NULL,Auftrag,uagizaji,d,NA,NA,NA,NA,sdf,NA,5,NA,NA,NA,NA,NA,NA,NA,NA,NA,NA,NA,NA,NA,NA,NA,NA,NA,NA,NA
31f81,task,flow.Sequence,3_0_5_0_2,NA,NA,completion,17868.586,3921298.8999999,3921293.175,3921309.86,3939178.446,3939179.8,2023-05-11T16:50:52Z,3939195.064,NULL,Auftrag,uagizaji,d,NA,NA,NA,NA,sdf,NA,5,NA,NA,NA,NA,NA,NA,NA,NA,NA,NA,NA,NA,NA,NA,NA,NA,NA,NA,NA
31f81,Deep Question,html.Page,3_0_5_0_3_0_0,NA,NA,form submission,9590.0359999049,3939179.8999999,3939178.446,3939195.064,3948785.0999999,3948785.3,2023-05-11T16:51:02Z,3948787.193,NULL,Angreifer,mshambulizi,d,NA,NA,NA,mshunali,NA,NA,5,NA,NA,NA,NA,NA,NA,NA,NA,NA,NA,NA,NA,NA,NA,NA,NA,NA,NA,NA
31f81,"""Richtig""-Screen",canvas.Screen,3_0_5_0_3_0_1,NA,NA,skipped,NA,3948787.8999999,NA,NA,3948785.0999999,3948788.0999999,2023-05-11T16:51:02Z,3948787.193,NULL,Angreifer,mshambulizi,d,NA,NA,NA,NA,sdf,NA,5,NA,NA,NA,NA,NA,NA,NA,NA,NA,NA,NA,NA,NA,NA,NA,NA,NA,NA,NA
31f81,"""Falsch""-Screen",canvas.Screen,3_0_5_0_3_0_2,NA,NA,timeout,4996.0060000001,3948789,3948770.617,3948787.193,3953766.473,3953767.3,2023-05-11T16:51:07Z,3953783.199,NULL,Angreifer,mshambulizi,d,NA,NA,NA,NA,sdf,0,5,NA,NA,NA,NA,NA,NA,NA,NA,NA,NA,NA,NA,NA,NA,NA,NA,NA,NA,NA
31f81,deep,flow.Sequence,3_0_5_0_3_0,NA,NA,completion,14571.409,3939179.8999999,3939178.446,3939195.064,3953766.473,3953767.5999999,2023-05-11T16:51:07Z,3953783.199,NULL,Angreifer,mshambulizi,d,NA,NA,NA,NA,sdf,NA,5,NA,NA,NA,NA,NA,NA,NA,NA,NA,NA,NA,NA,NA,NA,NA,NA,NA,NA,NA
31f81,shallow,flow.Sequence,3_0_5_0_3_1,NA,NA,skipped,NA,3953767.5999999,NA,NA,3953766.473,3953767.6999998,2023-05-11T16:51:07Z,3953783.199,NULL,Angreifer,mshambulizi,d,NA,NA,NA,NA,sdf,NA,5,NA,NA,NA,NA,NA,NA,NA,NA,NA,NA,NA,NA,NA,NA,NA,NA,NA,NA,NA
31f81,task,flow.Sequence,3_0_5_0_3,NA,NA,completion,14571.409,3939179.8999999,3939178.446,3939195.064,3953766.473,3953767.6999998,2023-05-11T16:51:07Z,3953783.199,NULL,Angreifer,mshambulizi,d,NA,NA,NA,NA,sdf,NA,5,NA,NA,NA,NA,NA,NA,NA,NA,NA,NA,NA,NA,NA,NA,NA,NA,NA,NA,NA
31f81,Deep Question,html.Page,3_0_5_0_4_0_0,NA,NA,form submission,7748.6009999523,3953767.8,3953766.473,3953783.199,3961531.8,3961532.0999999,2023-05-11T16:51:15Z,3961543.385,NULL,Wettbewerb,ushindani,d,NA,NA,NA,ushindali,NA,NA,5,NA,NA,NA,NA,NA,NA,NA,NA,NA,NA,NA,NA,NA,NA,NA,NA,NA,NA,NA
31f81,"""Richtig""-Screen",canvas.Screen,3_0_5_0_4_0_1,NA,NA,skipped,NA,3961534.1999998,NA,NA,3961531.8,3961534.3999999,2023-05-11T16:51:15Z,3961543.385,NULL,Wettbewerb,ushindani,d,NA,NA,NA,NA,sdf,NA,5,NA,NA,NA,NA,NA,NA,NA,NA,NA,NA,NA,NA,NA,NA,NA,NA,NA,NA,NA
31f81,"""Falsch""-Screen",canvas.Screen,3_0_5_0_4_0_2,NA,NA,timeout,4995.8760000002,3961535,3961526.802,3961543.385,3966522.623,3966524.3999999,2023-05-11T16:51:20Z,3966539.261,NULL,Wettbewerb,ushindani,d,NA,NA,NA,NA,sdf,0,5,NA,NA,NA,NA,NA,NA,NA,NA,NA,NA,NA,NA,NA,NA,NA,NA,NA,NA,NA
31f81,deep,flow.Sequence,3_0_5_0_4_0,NA,NA,completion,12739.424,3953767.8,3953766.473,3953783.199,3966522.623,3966524.5999999,2023-05-11T16:51:20Z,3966539.261,NULL,Wettbewerb,ushindani,d,NA,NA,NA,NA,sdf,NA,5,NA,NA,NA,NA,NA,NA,NA,NA,NA,NA,NA,NA,NA,NA,NA,NA,NA,NA,NA
31f81,shallow,flow.Sequence,3_0_5_0_4_1,NA,NA,skipped,NA,3966524.6999998,NA,NA,3966522.623,3966524.8,2023-05-11T16:51:20Z,3966539.261,NULL,Wettbewerb,ushindani,d,NA,NA,NA,NA,sdf,NA,5,NA,NA,NA,NA,NA,NA,NA,NA,NA,NA,NA,NA,NA,NA,NA,NA,NA,NA,NA
31f81,task,flow.Sequence,3_0_5_0_4,NA,NA,completion,12739.424,3953767.6999998,3953766.473,3953783.199,3966522.623,3966524.8999999,2023-05-11T16:51:20Z,3966539.261,NULL,Wettbewerb,ushindani,d,NA,NA,NA,NA,sdf,NA,5,NA,NA,NA,NA,NA,NA,NA,NA,NA,NA,NA,NA,NA,NA,NA,NA,NA,NA,NA
31f81,deep,flow.Sequence,3_0_5_0_5_0,NA,NA,skipped,NA,3966525,NA,NA,3966522.623,3966525,2023-05-11T16:51:20Z,3966539.261,NULL,Schönheit,kirembo,s,mahojiano,msisimko,jitihadi,NA,sdf,NA,5,NA,NA,NA,NA,NA,NA,NA,NA,NA,NA,NA,NA,NA,NA,NA,NA,NA,NA,NA
31f81,Shallow Question,html.Page,3_0_5_0_5_1_0,NA,NA,form submission,3617.7390000001,3966525.0999999,3966522.623,3966539.261,3970157,3970157.1999998,2023-05-11T16:51:23Z,3970169.596,NULL,Schönheit,kirembo,s,mahojiano,msisimko,jitihadi,kirembo,NA,NA,5,NA,NA,NA,NA,NA,NA,NA,NA,NA,NA,NA,NA,NA,NA,NA,NA,NA,NA,NA
31f81,"""Richtig""-Screen",canvas.Screen,3_0_5_0_5_1_1,NA,NA,timeout,4995.909,3970159.1999998,3970153.007,3970169.596,3975148.921,3975149.1999998,2023-05-11T16:51:28Z,3975165.505,NULL,Schönheit,kirembo,s,mahojiano,msisimko,jitihadi,NA,sdf,1,5,NA,NA,NA,NA,NA,NA,NA,NA,NA,NA,NA,NA,NA,NA,NA,NA,NA,NA,NA
31f81,"""Falsch""-Screen",canvas.Screen,3_0_5_0_5_1_2,NA,NA,skipped,NA,3975151.3,NA,NA,3975148.921,3975151.3999999,2023-05-11T16:51:28Z,3975165.505,NULL,Schönheit,kirembo,s,mahojiano,msisimko,jitihadi,NA,sdf,NA,5,NA,NA,NA,NA,NA,NA,NA,NA,NA,NA,NA,NA,NA,NA,NA,NA,NA,NA,NA
31f81,shallow,flow.Sequence,3_0_5_0_5_1,NA,NA,completion,8609.6600000001,3966525.0999999,3966522.623,3966539.261,3975148.921,3975151.5,2023-05-11T16:51:28Z,3975165.505,NULL,Schönheit,kirembo,s,mahojiano,msisimko,jitihadi,NA,sdf,NA,5,NA,NA,NA,NA,NA,NA,NA,NA,NA,NA,NA,NA,NA,NA,NA,NA,NA,NA,NA
31f81,task,flow.Sequence,3_0_5_0_5,NA,NA,completion,8609.6600000001,3966524.8999999,3966522.623,3966539.261,3975148.921,3975151.5999999,2023-05-11T16:51:28Z,3975165.505,NULL,Schönheit,kirembo,s,mahojiano,msisimko,jitihadi,NA,sdf,NA,5,NA,NA,NA,NA,NA,NA,NA,NA,NA,NA,NA,NA,NA,NA,NA,NA,NA,NA,NA
31f81,deep,flow.Sequence,3_0_5_0_6_0,NA,NA,skipped,NA,3975151.6999998,NA,NA,3975148.921,3975151.6999998,2023-05-11T16:51:28Z,3975165.505,NULL,Zufall,kikuti,s,kukosekana,uchoraji,leseni,NA,sdf,NA,5,NA,NA,NA,NA,NA,NA,NA,NA,NA,NA,NA,NA,NA,NA,NA,NA,NA,NA,NA
31f81,Shallow Question,html.Page,3_0_5_0_6_1_0,NA,NA,form submission,3137.9950000001,3975151.6999998,3975148.921,3975165.505,3978303.5,3978303.5,2023-05-11T16:51:32Z,3978312.923,NULL,Zufall,kikuti,s,kukosekana,uchoraji,leseni,kikuti,NA,NA,5,NA,NA,NA,NA,NA,NA,NA,NA,NA,NA,NA,NA,NA,NA,NA,NA,NA,NA,NA
31f81,"""Richtig""-Screen",canvas.Screen,3_0_5_0_6_1_1,NA,NA,timeout,4996.4380000001,3978305.1999998,3978296.272,3978312.923,3983292.959,3983293.5,2023-05-11T16:51:37Z,3983309.361,NULL,Zufall,kikuti,s,kukosekana,uchoraji,leseni,NA,sdf,1,5,NA,NA,NA,NA,NA,NA,NA,NA,NA,NA,NA,NA,NA,NA,NA,NA,NA,NA,NA
31f81,"""Falsch""-Screen",canvas.Screen,3_0_5_0_6_1_2,NA,NA,skipped,NA,3983295.8,NA,NA,3983292.959,3983296,2023-05-11T16:51:37Z,3983309.361,NULL,Zufall,kikuti,s,kukosekana,uchoraji,leseni,NA,sdf,NA,5,NA,NA,NA,NA,NA,NA,NA,NA,NA,NA,NA,NA,NA,NA,NA,NA,NA,NA,NA
31f81,shallow,flow.Sequence,3_0_5_0_6_1,NA,NA,completion,8127.4539999999,3975151.6999998,3975148.921,3975165.505,3983292.959,3983296,2023-05-11T16:51:37Z,3983309.361,NULL,Zufall,kikuti,s,kukosekana,uchoraji,leseni,NA,sdf,NA,5,NA,NA,NA,NA,NA,NA,NA,NA,NA,NA,NA,NA,NA,NA,NA,NA,NA,NA,NA
31f81,task,flow.Sequence,3_0_5_0_6,NA,NA,completion,8127.4539999999,3975151.6999998,3975148.921,3975165.505,3983292.959,3983296.0999999,2023-05-11T16:51:37Z,3983309.361,NULL,Zufall,kikuti,s,kukosekana,uchoraji,leseni,NA,sdf,NA,5,NA,NA,NA,NA,NA,NA,NA,NA,NA,NA,NA,NA,NA,NA,NA,NA,NA,NA,NA
31f81,deep,flow.Sequence,3_0_5_0_7_0,NA,NA,skipped,NA,3983296.1999998,NA,NA,3983292.959,3983296.3,2023-05-11T16:51:37Z,3983309.361,NULL,Abrechnung,uhasibu,s,kusahihisha,mpambano,mashambulizi,NA,sdf,NA,5,NA,NA,NA,NA,NA,NA,NA,NA,NA,NA,NA,NA,NA,NA,NA,NA,NA,NA,NA
31f81,Shallow Question,html.Page,3_0_5_0_7_1_0,NA,NA,form submission,3059.8389998092,3983296.3,3983292.959,3983309.361,3986369.1999998,3986369.3999999,2023-05-11T16:51:40Z,3986372.947,NULL,Abrechnung,uhasibu,s,kusahihisha,mpambano,mashambulizi,uhasibu,NA,NA,5,NA,NA,NA,NA,NA,NA,NA,NA,NA,NA,NA,NA,NA,NA,NA,NA,NA,NA,NA
31f81,"""Richtig""-Screen",canvas.Screen,3_0_5_0_7_1_1,NA,NA,timeout,4996.1189999999,3986371.3,3986356.778,3986372.947,3991352.215,3991352.6999998,2023-05-11T16:51:45Z,3991369.066,NULL,Abrechnung,uhasibu,s,kusahihisha,mpambano,mashambulizi,NA,sdf,1,5,NA,NA,NA,NA,NA,NA,NA,NA,NA,NA,NA,NA,NA,NA,NA,NA,NA,NA,NA
31f81,"""Falsch""-Screen",canvas.Screen,3_0_5_0_7_1_2,NA,NA,skipped,NA,3991354.8999999,NA,NA,3991352.215,3991355,2023-05-11T16:51:45Z,3991369.066,NULL,Abrechnung,uhasibu,s,kusahihisha,mpambano,mashambulizi,NA,sdf,NA,5,NA,NA,NA,NA,NA,NA,NA,NA,NA,NA,NA,NA,NA,NA,NA,NA,NA,NA,NA
31f81,shallow,flow.Sequence,3_0_5_0_7_1,NA,NA,completion,8042.8539999998,3983296.3,3983292.959,3983309.361,3991352.215,3991355.1999998,2023-05-11T16:51:45Z,3991369.066,NULL,Abrechnung,uhasibu,s,kusahihisha,mpambano,mashambulizi,NA,sdf,NA,5,NA,NA,NA,NA,NA,NA,NA,NA,NA,NA,NA,NA,NA,NA,NA,NA,NA,NA,NA
31f81,task,flow.Sequence,3_0_5_0_7,NA,NA,completion,8042.8539999998,3983296.0999999,3983292.959,3983309.361,3991352.215,3991355.3,2023-05-11T16:51:45Z,3991369.066,NULL,Abrechnung,uhasibu,s,kusahihisha,mpambano,mashambulizi,NA,sdf,NA,5,NA,NA,NA,NA,NA,NA,NA,NA,NA,NA,NA,NA,NA,NA,NA,NA,NA,NA,NA
31f81,block,flow.Loop,3_0_5_0,NA,NA,completion,93089.953,3898255,3898245.75,3898262.262,3991352.215,3991355.3,2023-05-11T16:51:45Z,3991369.066,NULL,NA,NA,NA,NA,NA,NA,NA,sdf,NA,5,NA,NA,NA,NA,NA,NA,NA,NA,NA,NA,NA,NA,NA,NA,NA,NA,NA,NA,NA
31f81,weiter,canvas.Screen,3_0_5_1,sdf,keypress(Space),response,2324.8339998568,3991355.3,3991352.215,3991369.066,3993693.8999999,3993694.6999998,2023-05-11T16:51:47Z,3994199.856,NULL,NA,NA,NA,NA,NA,NA,NA,sdf,NA,5,NA,NA,NA,NA,NA,NA,NA,NA,NA,NA,NA,NA,NA,NA,NA,NA,NA,NA,NA
31f81,check continue,flow.Sequence,3_0_5,NA,NA,completion,95431.637999857,3898255,3898245.75,3898262.262,3993693.8999999,3993694.8,2023-05-11T16:51:47Z,3994199.856,NULL,NA,NA,NA,NA,NA,NA,NA,sdf,NA,5,NA,NA,NA,NA,NA,NA,NA,NA,NA,NA,NA,NA,NA,NA,NA,NA,NA,NA,NA
31f81,check continue,flow.Sequence,3_0_6,NA,NA,skipped,NA,3993732.6999998,NA,NA,3993693.8999999,3993732.8999999,2023-05-11T16:51:47Z,3994199.856,NULL,NA,NA,NA,NA,NA,NA,NA,dfs,NA,6,NA,NA,NA,NA,NA,NA,NA,NA,NA,NA,NA,NA,NA,NA,NA,NA,NA,NA,NA
31f81,check continue,flow.Sequence,3_0_7,NA,NA,skipped,NA,3993764.5999999,NA,NA,3993693.8999999,3993764.6999998,2023-05-11T16:51:47Z,3994199.856,NULL,NA,NA,NA,NA,NA,NA,NA,df,NA,7,NA,NA,NA,NA,NA,NA,NA,NA,NA,NA,NA,NA,NA,NA,NA,NA,NA,NA,NA
31f81,check continue,flow.Sequence,3_0_8,NA,NA,skipped,NA,3993782,NA,NA,3993693.8999999,3993782.0999999,2023-05-11T16:51:47Z,3994199.856,NULL,NA,NA,NA,NA,NA,NA,NA,dfs,NA,8,NA,NA,NA,NA,NA,NA,NA,NA,NA,NA,NA,NA,NA,NA,NA,NA,NA,NA,NA
31f81,check continue,flow.Sequence,3_0_9,NA,NA,skipped,NA,3993801.0999999,NA,NA,3993693.8999999,3993801.1999998,2023-05-11T16:51:47Z,3994199.856,NULL,NA,NA,NA,NA,NA,NA,NA,dsf,NA,9,NA,NA,NA,NA,NA,NA,NA,NA,NA,NA,NA,NA,NA,NA,NA,NA,NA,NA,NA
31f81,check continue,flow.Sequence,3_0_10,NA,NA,skipped,NA,3993824,NA,NA,3993693.8999999,3993824.1999998,2023-05-11T16:51:47Z,3994199.856,NULL,NA,NA,NA,NA,NA,NA,NA,df,NA,10,NA,NA,NA,NA,NA,NA,NA,NA,NA,NA,NA,NA,NA,NA,NA,NA,NA,NA,NA
31f81,check continue,flow.Sequence,3_0_11,NA,NA,skipped,NA,3993843.3999999,NA,NA,3993693.8999999,3993843.5999999,2023-05-11T16:51:47Z,3994199.856,NULL,NA,NA,NA,NA,NA,NA,NA,dfs,NA,11,NA,NA,NA,NA,NA,NA,NA,NA,NA,NA,NA,NA,NA,NA,NA,NA,NA,NA,NA
31f81,check continue,flow.Sequence,3_0_12,NA,NA,skipped,NA,3993861.5,NA,NA,3993693.8999999,3993861.5999999,2023-05-11T16:51:47Z,3994199.856,NULL,NA,NA,NA,NA,NA,NA,NA,dsf,NA,12,NA,NA,NA,NA,NA,NA,NA,NA,NA,NA,NA,NA,NA,NA,NA,NA,NA,NA,NA
31f81,check continue,flow.Sequence,3_0_13,NA,NA,skipped,NA,3993887.8,NA,NA,3993693.8999999,3993888,2023-05-11T16:51:47Z,3994199.856,NULL,NA,NA,NA,NA,NA,NA,NA,dsf,NA,13,NA,NA,NA,NA,NA,NA,NA,NA,NA,NA,NA,NA,NA,NA,NA,NA,NA,NA,NA
31f81,check continue,flow.Sequence,3_0_14,NA,NA,skipped,NA,3993907,NA,NA,3993693.8999999,3993907.0999999,2023-05-11T16:51:47Z,3994199.856,NULL,NA,NA,NA,NA,NA,NA,NA,NA,NA,14,NA,NA,NA,NA,NA,NA,NA,NA,NA,NA,NA,NA,NA,NA,NA,NA,NA,NA,NA
31f81,check continue,flow.Sequence,3_0_15,NA,NA,skipped,NA,3993929.8,NA,NA,3993693.8999999,3993929.8999999,2023-05-11T16:51:47Z,3994199.856,NULL,NA,NA,NA,NA,NA,NA,NA,NA,NA,15,NA,NA,NA,NA,NA,NA,NA,NA,NA,NA,NA,NA,NA,NA,NA,NA,NA,NA,NA
31f81,check continue,flow.Sequence,3_0_16,NA,NA,skipped,NA,3993946.6999998,NA,NA,3993693.8999999,3993946.8,2023-05-11T16:51:47Z,3994199.856,NULL,NA,NA,NA,NA,NA,NA,NA,NA,NA,16,NA,NA,NA,NA,NA,NA,NA,NA,NA,NA,NA,NA,NA,NA,NA,NA,NA,NA,NA
31f81,check continue,flow.Sequence,3_0_17,NA,NA,skipped,NA,3993962.3,NA,NA,3993693.8999999,3993962.3999999,2023-05-11T16:51:47Z,3994199.856,NULL,NA,NA,NA,NA,NA,NA,NA,NA,NA,17,NA,NA,NA,NA,NA,NA,NA,NA,NA,NA,NA,NA,NA,NA,NA,NA,NA,NA,NA
