observation,sender,sender_type,sender_id,response,response_action,ended_on,duration,time_run,time_render,time_show,time_end,time_commit,timestamp,time_switch,german,swahili,enc,distractor1,distractor2,distractor3,response_2,x,correct,distractors,url_vp,url_sess,meta_labjs_version,meta_location,meta_user_agent,meta_platform,meta_language,meta_locale,meta_time_zone,meta_timezone_offset,meta_screen_width,meta_screen_height,meta_scroll_width,meta_scroll_height,meta_window_inner_width,meta_window_inner_height,meta_device_pixel_ratio,meta_labjs_build_flavor,meta_labjs_build_commit
8f9bf,Introduction delayed retrieval,canvas.Screen,0,weiter,keypress(Space),response,11429.940000003,848.20000000298,497.181,897.26,12327.200000003,12331.200000003,2023-03-22T09:52:08Z,12351.193,NA,NA,NA,NA,NA,NA,NA,NA,NA,NULL,203,2,20.2.4,https://neurocog.fernuni.ch/studies/vweber/sfink/delayed/index.html?vp=203&sess=2,"Mozilla/5.0 (Windows NT 10.0; Win64; x64) AppleWebKit/537.36 (KHTML, like Gecko) Chrome/111.0.0.0 Safari/537.36 Edg/111.0.1661.44",Win32,de,de-CH,Europe/Zurich,-60,1500,1000,1395,841,1395,889,2,production,f5b4a49f956347addd546a832a3327688c2c0fef
8f9bf,Deep Question,html.Page,1_0_0_0,NA,NA,form submission,7327.606999997,12331.399999991,12325.408,12351.193,19678.799999997,19679.200000003,2023-03-22T09:52:15Z,19683.554,Beweis,ushahidi,d,marudio,kizuizi,mtendaji,f,NA,NA,NULL,NA,NA,NA,NA,NA,NA,NA,NA,NA,NA,NA,NA,NA,NA,NA,NA,NA,NA,NA
8f9bf,Save data screen,canvas.Screen,1_0_0_1,NA,NA,timeout,498.762,19680.5,19666.94,19683.554,20165.645,20166.5,2023-03-22T09:52:15Z,20182.316,Beweis,ushahidi,d,marudio,kizuizi,mtendaji,NA,NA,0,NULL,NA,NA,NA,NA,NA,NA,NA,NA,NA,NA,NA,NA,NA,NA,NA,NA,NA,NA,NA
8f9bf,deep,flow.Sequence,1_0_0,NA,NA,completion,7814.452,12331.399999991,12325.408,12351.193,20165.645,20166.899999991,2023-03-22T09:52:15Z,20182.316,Beweis,ushahidi,d,marudio,kizuizi,mtendaji,NA,NA,NA,NULL,NA,NA,NA,NA,NA,NA,NA,NA,NA,NA,NA,NA,NA,NA,NA,NA,NA,NA,NA
8f9bf,task,flow.Sequence,1_0,NA,NA,completion,7814.452,12331.399999991,12325.408,12351.193,20165.645,20167.099999994,2023-03-22T09:52:15Z,20182.316,Beweis,ushahidi,d,marudio,kizuizi,mtendaji,NA,NA,NA,NULL,NA,NA,NA,NA,NA,NA,NA,NA,NA,NA,NA,NA,NA,NA,NA,NA,NA,NA,NA
8f9bf,Deep Question,html.Page,1_1_0_0,NA,NA,form submission,5252.5839999911,20167.399999991,20165.645,20182.316,25434.899999991,25435.299999997,2023-03-22T09:52:21Z,25449.674,Schönheit,kirembo,s,mahojiano,msisimko,jitihadi,f,NA,NA,NULL,NA,NA,NA,NA,NA,NA,NA,NA,NA,NA,NA,NA,NA,NA,NA,NA,NA,NA,NA
8f9bf,Save data screen,canvas.Screen,1_1_0_1,NA,NA,timeout,502.134,25436.700000003,25432.989,25449.674,25935.138,25935.700000003,2023-03-22T09:52:21Z,25951.808,Schönheit,kirembo,s,mahojiano,msisimko,jitihadi,NA,NA,0,NULL,NA,NA,NA,NA,NA,NA,NA,NA,NA,NA,NA,NA,NA,NA,NA,NA,NA,NA,NA
8f9bf,deep,flow.Sequence,1_1_0,NA,NA,completion,5752.822,20167.399999991,20165.645,20182.316,25935.138,25936,2023-03-22T09:52:21Z,25951.808,Schönheit,kirembo,s,mahojiano,msisimko,jitihadi,NA,NA,NA,NULL,NA,NA,NA,NA,NA,NA,NA,NA,NA,NA,NA,NA,NA,NA,NA,NA,NA,NA,NA
8f9bf,task,flow.Sequence,1_1,NA,NA,completion,5752.822,20167.299999997,20165.645,20182.316,25935.138,25936.399999991,2023-03-22T09:52:21Z,25951.808,Schönheit,kirembo,s,mahojiano,msisimko,jitihadi,NA,NA,NA,NULL,NA,NA,NA,NA,NA,NA,NA,NA,NA,NA,NA,NA,NA,NA,NA,NA,NA,NA,NA
8f9bf,Deep Question,html.Page,1_2_0_0,NA,NA,form submission,26849.192,25936.799999997,25935.138,25951.808,52801,52801.5,2023-03-22T09:52:48Z,52814.537,Polizist,msongora,d,simanzi,mandhari,nidhamu,msongora,NA,NA,NULL,NA,NA,NA,NA,NA,NA,NA,NA,NA,NA,NA,NA,NA,NA,NA,NA,NA,NA,NA
8f9bf,Save data screen,canvas.Screen,1_2_0_1,NA,NA,timeout,508.08700000001,52802.799999997,52797.856,52814.537,53305.949,53306.599999994,2023-03-22T09:52:49Z,53322.624,Polizist,msongora,d,simanzi,mandhari,nidhamu,NA,NA,1,NULL,NA,NA,NA,NA,NA,NA,NA,NA,NA,NA,NA,NA,NA,NA,NA,NA,NA,NA,NA
8f9bf,deep,flow.Sequence,1_2_0,NA,NA,completion,27354.141,25936.700000003,25935.138,25951.808,53305.949,53307,2023-03-22T09:52:49Z,53322.624,Polizist,msongora,d,simanzi,mandhari,nidhamu,NA,NA,NA,NULL,NA,NA,NA,NA,NA,NA,NA,NA,NA,NA,NA,NA,NA,NA,NA,NA,NA,NA,NA
8f9bf,task,flow.Sequence,1_2,NA,NA,completion,27354.141,25936.5,25935.138,25951.808,53305.949,53307.200000003,2023-03-22T09:52:49Z,53322.624,Polizist,msongora,d,simanzi,mandhari,nidhamu,NA,NA,NA,NULL,NA,NA,NA,NA,NA,NA,NA,NA,NA,NA,NA,NA,NA,NA,NA,NA,NA,NA,NA
8f9bf,Deep Question,html.Page,1_3_0_0,NA,NA,form submission,4486.975999994,53307.5,53305.949,53322.624,57809.599999994,57810,2023-03-22T09:52:53Z,57831.929,Ausschluss,kutengwa,d,ununuzi,taratibu,madeni,d,NA,NA,NULL,NA,NA,NA,NA,NA,NA,NA,NA,NA,NA,NA,NA,NA,NA,NA,NA,NA,NA,NA
8f9bf,Save data screen,canvas.Screen,1_3_0_1,NA,NA,timeout,492.112,57811.099999994,57815.234,57831.929,58307.418,58308,2023-03-22T09:52:54Z,58324.041,Ausschluss,kutengwa,d,ununuzi,taratibu,madeni,NA,NA,0,NULL,NA,NA,NA,NA,NA,NA,NA,NA,NA,NA,NA,NA,NA,NA,NA,NA,NA,NA,NA
8f9bf,deep,flow.Sequence,1_3_0,NA,NA,completion,4984.794,53307.399999991,53305.949,53322.624,58307.418,58308.200000003,2023-03-22T09:52:54Z,58324.041,Ausschluss,kutengwa,d,ununuzi,taratibu,madeni,NA,NA,NA,NULL,NA,NA,NA,NA,NA,NA,NA,NA,NA,NA,NA,NA,NA,NA,NA,NA,NA,NA,NA
8f9bf,task,flow.Sequence,1_3,NA,NA,completion,4984.794,53307.399999991,53305.949,53322.624,58307.418,58308.399999991,2023-03-22T09:52:54Z,58324.041,Ausschluss,kutengwa,d,ununuzi,taratibu,madeni,NA,NA,NA,NULL,NA,NA,NA,NA,NA,NA,NA,NA,NA,NA,NA,NA,NA,NA,NA,NA,NA,NA,NA
8f9bf,Deep Question,html.Page,1_4_0_0,NA,NA,form submission,8630.8589999911,58308.599999994,58307.418,58324.041,66954.899999991,66955.099999994,2023-03-22T09:53:02Z,66982.583,Wettbewerb,ushindani,d,mapendezi,kichocheo,ubaguzi,ushindani,NA,NA,NULL,NA,NA,NA,NA,NA,NA,NA,NA,NA,NA,NA,NA,NA,NA,NA,NA,NA,NA,NA
8f9bf,Save data screen,canvas.Screen,1_4_0_1,NA,NA,timeout,493.409,66958.200000003,66965.862,66982.583,67459.309,67459.799999997,2023-03-22T09:53:03Z,67475.992,Wettbewerb,ushindani,d,mapendezi,kichocheo,ubaguzi,NA,NA,1,NULL,NA,NA,NA,NA,NA,NA,NA,NA,NA,NA,NA,NA,NA,NA,NA,NA,NA,NA,NA
8f9bf,deep,flow.Sequence,1_4_0,NA,NA,completion,9135.268,58308.599999994,58307.418,58324.041,67459.309,67460,2023-03-22T09:53:03Z,67475.992,Wettbewerb,ushindani,d,mapendezi,kichocheo,ubaguzi,NA,NA,NA,NULL,NA,NA,NA,NA,NA,NA,NA,NA,NA,NA,NA,NA,NA,NA,NA,NA,NA,NA,NA
8f9bf,task,flow.Sequence,1_4,NA,NA,completion,9135.268,58308.399999991,58307.418,58324.041,67459.309,67460.200000003,2023-03-22T09:53:03Z,67475.992,Wettbewerb,ushindani,d,mapendezi,kichocheo,ubaguzi,NA,NA,NA,NULL,NA,NA,NA,NA,NA,NA,NA,NA,NA,NA,NA,NA,NA,NA,NA,NA,NA,NA,NA
8f9bf,Deep Question,html.Page,1_5_0_0,NA,NA,form submission,15394.508,67460.399999991,67459.309,67475.992,82870.5,82870.799999997,2023-03-22T09:53:18Z,82884.376,Widerstand,usulubu,s,kusababisha,mwalimu,mwenendo,muvu,NA,NA,NULL,NA,NA,NA,NA,NA,NA,NA,NA,NA,NA,NA,NA,NA,NA,NA,NA,NA,NA,NA
8f9bf,Save data screen,canvas.Screen,1_5_0_1,NA,NA,timeout,498.20199999999,82875.5,82867.643,82884.376,83365.962,83366.5,2023-03-22T09:53:19Z,83382.578,Widerstand,usulubu,s,kusababisha,mwalimu,mwenendo,NA,NA,0,NULL,NA,NA,NA,NA,NA,NA,NA,NA,NA,NA,NA,NA,NA,NA,NA,NA,NA,NA,NA
8f9bf,deep,flow.Sequence,1_5_0,NA,NA,completion,15889.97,67460.399999991,67459.309,67475.992,83365.962,83366.799999997,2023-03-22T09:53:19Z,83382.578,Widerstand,usulubu,s,kusababisha,mwalimu,mwenendo,NA,NA,NA,NULL,NA,NA,NA,NA,NA,NA,NA,NA,NA,NA,NA,NA,NA,NA,NA,NA,NA,NA,NA
8f9bf,task,flow.Sequence,1_5,NA,NA,completion,15889.97,67460.299999997,67459.309,67475.992,83365.962,83367,2023-03-22T09:53:19Z,83382.578,Widerstand,usulubu,s,kusababisha,mwalimu,mwenendo,NA,NA,NA,NULL,NA,NA,NA,NA,NA,NA,NA,NA,NA,NA,NA,NA,NA,NA,NA,NA,NA,NA,NA
8f9bf,Deep Question,html.Page,1_6_0_0,NA,NA,form submission,28551.922,83367.200000003,83365.962,83382.578,111934.5,111934.8,2023-03-22T09:53:47Z,111936.83,Vorsorge,tahadhari,d,ufafanuzi,makini,mashambani,s,NA,NA,NULL,NA,NA,NA,NA,NA,NA,NA,NA,NA,NA,NA,NA,NA,NA,NA,NA,NA,NA,NA
8f9bf,Save data screen,canvas.Screen,1_6_0_1,NA,NA,timeout,499.705,111938.3,111920.161,111936.83,112419.843,112421.5,2023-03-22T09:53:48Z,112436.535,Vorsorge,tahadhari,d,ufafanuzi,makini,mashambani,NA,NA,0,NULL,NA,NA,NA,NA,NA,NA,NA,NA,NA,NA,NA,NA,NA,NA,NA,NA,NA,NA,NA
8f9bf,deep,flow.Sequence,1_6_0,NA,NA,completion,29037.265,83367.099999994,83365.962,83382.578,112419.843,112422.2,2023-03-22T09:53:48Z,112436.535,Vorsorge,tahadhari,d,ufafanuzi,makini,mashambani,NA,NA,NA,NULL,NA,NA,NA,NA,NA,NA,NA,NA,NA,NA,NA,NA,NA,NA,NA,NA,NA,NA,NA
8f9bf,task,flow.Sequence,1_6,NA,NA,completion,29037.265,83367.099999994,83365.962,83382.578,112419.843,112422.89999999,2023-03-22T09:53:48Z,112436.535,Vorsorge,tahadhari,d,ufafanuzi,makini,mashambani,NA,NA,NA,NULL,NA,NA,NA,NA,NA,NA,NA,NA,NA,NA,NA,NA,NA,NA,NA,NA,NA,NA,NA
8f9bf,Deep Question,html.Page,1_7_0_0,NA,NA,form submission,5034.3649999911,112423.89999999,112419.843,112436.535,117470.89999999,117471.39999999,2023-03-22T09:53:53Z,117477.039,Konkurrent,mshindani,d,msemaji,mvutaji,kipukusa,d,NA,NA,NULL,NA,NA,NA,NA,NA,NA,NA,NA,NA,NA,NA,NA,NA,NA,NA,NA,NA,NA,NA
8f9bf,Save data screen,canvas.Screen,1_7_0_1,NA,NA,timeout,495.42,117478.89999999,117460.593,117477.039,117955.8,117956.89999999,2023-03-22T09:53:53Z,117972.459,Konkurrent,mshindani,d,msemaji,mvutaji,kipukusa,NA,NA,0,NULL,NA,NA,NA,NA,NA,NA,NA,NA,NA,NA,NA,NA,NA,NA,NA,NA,NA,NA,NA
8f9bf,deep,flow.Sequence,1_7_0,NA,NA,completion,5519.265,112423.59999999,112419.843,112436.535,117955.8,117957.39999999,2023-03-22T09:53:53Z,117972.459,Konkurrent,mshindani,d,msemaji,mvutaji,kipukusa,NA,NA,NA,NULL,NA,NA,NA,NA,NA,NA,NA,NA,NA,NA,NA,NA,NA,NA,NA,NA,NA,NA,NA
8f9bf,task,flow.Sequence,1_7,NA,NA,completion,5519.265,112423.39999999,112419.843,112436.535,117955.8,117957.89999999,2023-03-22T09:53:53Z,117972.459,Konkurrent,mshindani,d,msemaji,mvutaji,kipukusa,NA,NA,NA,NULL,NA,NA,NA,NA,NA,NA,NA,NA,NA,NA,NA,NA,NA,NA,NA,NA,NA,NA,NA
8f9bf,Deep Question,html.Page,1_8_0_0,NA,NA,form submission,6084.140999994,117958.2,117955.8,117972.459,124056.59999999,124057.3,2023-03-22T09:53:59Z,124070.453,Sympathie,mapendano,s,dhamiria,fungamano,maazimio,z,NA,NA,NULL,NA,NA,NA,NA,NA,NA,NA,NA,NA,NA,NA,NA,NA,NA,NA,NA,NA,NA,NA
8f9bf,Save data screen,canvas.Screen,1_8_0_1,NA,NA,timeout,502.63200000001,124065.5,124053.903,124070.453,124556.597,124557.7,2023-03-22T09:54:00Z,124573.085,Sympathie,mapendano,s,dhamiria,fungamano,maazimio,NA,NA,0,NULL,NA,NA,NA,NA,NA,NA,NA,NA,NA,NA,NA,NA,NA,NA,NA,NA,NA,NA,NA
8f9bf,deep,flow.Sequence,1_8_0,NA,NA,completion,6584.138,117958,117955.8,117972.459,124556.597,124558,2023-03-22T09:54:00Z,124573.085,Sympathie,mapendano,s,dhamiria,fungamano,maazimio,NA,NA,NA,NULL,NA,NA,NA,NA,NA,NA,NA,NA,NA,NA,NA,NA,NA,NA,NA,NA,NA,NA,NA
8f9bf,task,flow.Sequence,1_8,NA,NA,completion,6584.138,117958,117955.8,117972.459,124556.597,124558.39999999,2023-03-22T09:54:00Z,124573.085,Sympathie,mapendano,s,dhamiria,fungamano,maazimio,NA,NA,NA,NULL,NA,NA,NA,NA,NA,NA,NA,NA,NA,NA,NA,NA,NA,NA,NA,NA,NA,NA,NA
8f9bf,Deep Question,html.Page,1_9_0_0,NA,NA,form submission,11202.915,124558.8,124556.597,124573.085,135776,135776.5,2023-03-22T09:54:11Z,135785.405,Symbol,kielezo,s,kinyume,nderemo,utayari,f,NA,NA,NULL,NA,NA,NA,NA,NA,NA,NA,NA,NA,NA,NA,NA,NA,NA,NA,NA,NA,NA,NA
8f9bf,Save data screen,canvas.Screen,1_9_0_1,NA,NA,timeout,501.535,135783.5,135768.976,135785.405,136270.18,136272.7,2023-03-22T09:54:12Z,136286.94,Symbol,kielezo,s,kinyume,nderemo,utayari,NA,NA,0,NULL,NA,NA,NA,NA,NA,NA,NA,NA,NA,NA,NA,NA,NA,NA,NA,NA,NA,NA,NA
8f9bf,deep,flow.Sequence,1_9_0,NA,NA,completion,11697.095,124558.59999999,124556.597,124573.085,136270.18,136273.59999999,2023-03-22T09:54:12Z,136286.94,Symbol,kielezo,s,kinyume,nderemo,utayari,NA,NA,NA,NULL,NA,NA,NA,NA,NA,NA,NA,NA,NA,NA,NA,NA,NA,NA,NA,NA,NA,NA,NA
8f9bf,task,flow.Sequence,1_9,NA,NA,completion,11697.095,124558.59999999,124556.597,124573.085,136270.18,136274.2,2023-03-22T09:54:12Z,136286.94,Symbol,kielezo,s,kinyume,nderemo,utayari,NA,NA,NA,NULL,NA,NA,NA,NA,NA,NA,NA,NA,NA,NA,NA,NA,NA,NA,NA,NA,NA,NA,NA
8f9bf,Deep Question,html.Page,1_10_0_0,NA,NA,form submission,3364.9599999911,136274.7,136270.18,136286.94,139651.89999999,139652.39999999,2023-03-22T09:54:15Z,139669.098,Auftrag,uagizaji,d,ghanima,kuzingatia,msukani,g,NA,NA,NULL,NA,NA,NA,NA,NA,NA,NA,NA,NA,NA,NA,NA,NA,NA,NA,NA,NA,NA,NA
8f9bf,Save data screen,canvas.Screen,1_10_0_1,NA,NA,timeout,499.87,139654.8,139652.457,139669.098,140152.416,140153.5,2023-03-22T09:54:15Z,140168.968,Auftrag,uagizaji,d,ghanima,kuzingatia,msukani,NA,NA,0,NULL,NA,NA,NA,NA,NA,NA,NA,NA,NA,NA,NA,NA,NA,NA,NA,NA,NA,NA,NA
8f9bf,deep,flow.Sequence,1_10_0,NA,NA,completion,3865.476,136274.59999999,136270.18,136286.94,140152.416,140153.89999999,2023-03-22T09:54:15Z,140168.968,Auftrag,uagizaji,d,ghanima,kuzingatia,msukani,NA,NA,NA,NULL,NA,NA,NA,NA,NA,NA,NA,NA,NA,NA,NA,NA,NA,NA,NA,NA,NA,NA,NA
8f9bf,task,flow.Sequence,1_10,NA,NA,completion,3865.476,136274.5,136270.18,136286.94,140152.416,140154.2,2023-03-22T09:54:15Z,140168.968,Auftrag,uagizaji,d,ghanima,kuzingatia,msukani,NA,NA,NA,NULL,NA,NA,NA,NA,NA,NA,NA,NA,NA,NA,NA,NA,NA,NA,NA,NA,NA,NA,NA
8f9bf,Deep Question,html.Page,1_11_0_0,NA,NA,form submission,3308.032,140154.5,140152.416,140168.968,143477,143477.2,2023-03-22T09:54:19Z,143506.279,Annäherung,maegesho,s,madahili,kujiamini,mapendekezo,f,NA,NA,NULL,NA,NA,NA,NA,NA,NA,NA,NA,NA,NA,NA,NA,NA,NA,NA,NA,NA,NA,NA
8f9bf,Save data screen,canvas.Screen,1_11_0_1,NA,NA,timeout,496.86799999999,143480.8,143489.608,143506.279,143986.487,143987,2023-03-22T09:54:19Z,144003.147,Annäherung,maegesho,s,madahili,kujiamini,mapendekezo,NA,NA,0,NULL,NA,NA,NA,NA,NA,NA,NA,NA,NA,NA,NA,NA,NA,NA,NA,NA,NA,NA,NA
8f9bf,deep,flow.Sequence,1_11_0,NA,NA,completion,3817.519,140154.39999999,140152.416,140168.968,143986.487,143987.3,2023-03-22T09:54:19Z,144003.147,Annäherung,maegesho,s,madahili,kujiamini,mapendekezo,NA,NA,NA,NULL,NA,NA,NA,NA,NA,NA,NA,NA,NA,NA,NA,NA,NA,NA,NA,NA,NA,NA,NA
8f9bf,task,flow.Sequence,1_11,NA,NA,completion,3817.519,140154.3,140152.416,140168.968,143986.487,143987.5,2023-03-22T09:54:19Z,144003.147,Annäherung,maegesho,s,madahili,kujiamini,mapendekezo,NA,NA,NA,NULL,NA,NA,NA,NA,NA,NA,NA,NA,NA,NA,NA,NA,NA,NA,NA,NA,NA,NA,NA
8f9bf,Deep Question,html.Page,1_12_0_0,NA,NA,form submission,7367.853,143987.7,143986.487,144003.147,151371,151371.5,2023-03-22T09:54:27Z,151399.596,Verstand,ufahamivu,s,shakawa,hadhari,mhandisi,d,NA,NA,NULL,NA,NA,NA,NA,NA,NA,NA,NA,NA,NA,NA,NA,NA,NA,NA,NA,NA,NA,NA
8f9bf,Save data screen,canvas.Screen,1_12_0_1,NA,NA,timeout,500.41400000002,151378.09999999,151382.87,151399.596,151883.399,151884.5,2023-03-22T09:54:27Z,151900.01,Verstand,ufahamivu,s,shakawa,hadhari,mhandisi,NA,NA,0,NULL,NA,NA,NA,NA,NA,NA,NA,NA,NA,NA,NA,NA,NA,NA,NA,NA,NA,NA,NA
8f9bf,deep,flow.Sequence,1_12_0,NA,NA,completion,7880.252,143987.7,143986.487,144003.147,151883.399,151884.8,2023-03-22T09:54:27Z,151900.01,Verstand,ufahamivu,s,shakawa,hadhari,mhandisi,NA,NA,NA,NULL,NA,NA,NA,NA,NA,NA,NA,NA,NA,NA,NA,NA,NA,NA,NA,NA,NA,NA,NA
8f9bf,task,flow.Sequence,1_12,NA,NA,completion,7880.252,143987.59999999,143986.487,144003.147,151883.399,151885.09999999,2023-03-22T09:54:27Z,151900.01,Verstand,ufahamivu,s,shakawa,hadhari,mhandisi,NA,NA,NA,NULL,NA,NA,NA,NA,NA,NA,NA,NA,NA,NA,NA,NA,NA,NA,NA,NA,NA,NA,NA
8f9bf,Deep Question,html.Page,1_13_0_0,NA,NA,form submission,9820.99,151885.5,151883.399,151900.01,161721,161721.8,2023-03-22T09:54:37Z,161745.471,Gelegenheit,wakati,d,mchanganyiko,kipaumbele,kushuku,k,NA,NA,NULL,NA,NA,NA,NA,NA,NA,NA,NA,NA,NA,NA,NA,NA,NA,NA,NA,NA,NA,NA
8f9bf,Save data screen,canvas.Screen,1_13_0_1,NA,NA,timeout,500.98700000002,161729.5,161704.247,161745.471,162229.785,162230.8,2023-03-22T09:54:38Z,162246.458,Gelegenheit,wakati,d,mchanganyiko,kipaumbele,kushuku,NA,NA,0,NULL,NA,NA,NA,NA,NA,NA,NA,NA,NA,NA,NA,NA,NA,NA,NA,NA,NA,NA,NA
8f9bf,deep,flow.Sequence,1_13_0,NA,NA,completion,10329.775,151885.39999999,151883.399,151900.01,162229.785,162231.2,2023-03-22T09:54:38Z,162246.458,Gelegenheit,wakati,d,mchanganyiko,kipaumbele,kushuku,NA,NA,NA,NULL,NA,NA,NA,NA,NA,NA,NA,NA,NA,NA,NA,NA,NA,NA,NA,NA,NA,NA,NA
8f9bf,task,flow.Sequence,1_13,NA,NA,completion,10329.775,151885.3,151883.399,151900.01,162229.785,162231.5,2023-03-22T09:54:38Z,162246.458,Gelegenheit,wakati,d,mchanganyiko,kipaumbele,kushuku,NA,NA,NA,NULL,NA,NA,NA,NA,NA,NA,NA,NA,NA,NA,NA,NA,NA,NA,NA,NA,NA,NA,NA
8f9bf,Deep Question,html.Page,1_14_0_0,NA,NA,form submission,5969.242000003,162231.8,162229.785,162246.458,168215.7,168216.2,2023-03-22T09:54:44Z,168218.615,Zufall,kikuti,s,kukosekana,uchoraji,leseni,m,NA,NA,NULL,NA,NA,NA,NA,NA,NA,NA,NA,NA,NA,NA,NA,NA,NA,NA,NA,NA,NA,NA
8f9bf,Save data screen,canvas.Screen,1_14_0_1,NA,NA,timeout,501.378,168223.8,168201.966,168218.615,168703.319,168705,2023-03-22T09:54:44Z,168719.993,Zufall,kikuti,s,kukosekana,uchoraji,leseni,NA,NA,0,NULL,NA,NA,NA,NA,NA,NA,NA,NA,NA,NA,NA,NA,NA,NA,NA,NA,NA,NA,NA
8f9bf,deep,flow.Sequence,1_14_0,NA,NA,completion,6456.861,162231.8,162229.785,162246.458,168703.319,168705.7,2023-03-22T09:54:44Z,168719.993,Zufall,kikuti,s,kukosekana,uchoraji,leseni,NA,NA,NA,NULL,NA,NA,NA,NA,NA,NA,NA,NA,NA,NA,NA,NA,NA,NA,NA,NA,NA,NA,NA
8f9bf,task,flow.Sequence,1_14,NA,NA,completion,6456.861,162231.7,162229.785,162246.458,168703.319,168706.5,2023-03-22T09:54:44Z,168719.993,Zufall,kikuti,s,kukosekana,uchoraji,leseni,NA,NA,NA,NULL,NA,NA,NA,NA,NA,NA,NA,NA,NA,NA,NA,NA,NA,NA,NA,NA,NA,NA,NA
8f9bf,Deep Question,html.Page,1_15_0_0,NA,NA,form submission,12079.707000003,168707.2,168703.319,168719.993,180799.7,180800.39999999,2023-03-22T09:54:56Z,180804.098,Zuwachs,nyongeza,s,matilaba,udhibiti,hudhurio,noygewna,NA,NA,NULL,NA,NA,NA,NA,NA,NA,NA,NA,NA,NA,NA,NA,NA,NA,NA,NA,NA,NA,NA
8f9bf,Save data screen,canvas.Screen,1_15_0_1,NA,NA,timeout,496.33000000002,180808.89999999,180787.676,180804.098,181283.899,181285.09999999,2023-03-22T09:54:57Z,181300.428,Zuwachs,nyongeza,s,matilaba,udhibiti,hudhurio,NA,NA,0,NULL,NA,NA,NA,NA,NA,NA,NA,NA,NA,NA,NA,NA,NA,NA,NA,NA,NA,NA,NA
8f9bf,deep,flow.Sequence,1_15_0,NA,NA,completion,12563.906,168707.09999999,168703.319,168719.993,181283.899,181285.5,2023-03-22T09:54:57Z,181300.428,Zuwachs,nyongeza,s,matilaba,udhibiti,hudhurio,NA,NA,NA,NULL,NA,NA,NA,NA,NA,NA,NA,NA,NA,NA,NA,NA,NA,NA,NA,NA,NA,NA,NA
8f9bf,task,flow.Sequence,1_15,NA,NA,completion,12563.906,168706.89999999,168703.319,168719.993,181283.899,181285.8,2023-03-22T09:54:57Z,181300.428,Zuwachs,nyongeza,s,matilaba,udhibiti,hudhurio,NA,NA,NA,NULL,NA,NA,NA,NA,NA,NA,NA,NA,NA,NA,NA,NA,NA,NA,NA,NA,NA,NA,NA
8f9bf,retrieval block 1 (cued recall),flow.Loop,1,NA,NA,completion,168932.706,12331.399999991,12325.408,12351.193,181283.899,181286.09999999,2023-03-22T09:54:57Z,181300.428,NA,NA,NA,NA,NA,NA,NA,NA,NA,NULL,NA,NA,NA,NA,NA,NA,NA,NA,NA,NA,NA,NA,NA,NA,NA,NA,NA,NA,NA
8f9bf,Shallow Question,html.Page,2_0_0_0,NA,NA,form submission,5410.371999997,181286.5,181283.899,181300.428,186710.8,186711.3,2023-03-22T09:55:02Z,186733.301,Symbol,kielezo,s,kinyume,nderemo,utayari,kielezo,NA,NA,"c(""distractor1"", ""distractor2"", ""distractor3"")",NA,NA,NA,NA,NA,NA,NA,NA,NA,NA,NA,NA,NA,NA,NA,NA,NA,NA,NA
8f9bf,Save data screen,canvas.Screen,2_0_0_1,NA,NA,timeout,505.625,186718.3,186716.636,186733.301,187222.36,187223.89999999,2023-03-22T09:55:03Z,187238.926,Symbol,kielezo,s,kinyume,nderemo,utayari,NA,NA,1,"c(""distractor1"", ""distractor2"", ""distractor3"")",NA,NA,NA,NA,NA,NA,NA,NA,NA,NA,NA,NA,NA,NA,NA,NA,NA,NA,NA
8f9bf,shallow,flow.Sequence,2_0_0,NA,NA,completion,5921.932,181286.39999999,181283.899,181300.428,187222.36,187224.39999999,2023-03-22T09:55:03Z,187238.926,Symbol,kielezo,s,kinyume,nderemo,utayari,NA,NA,NA,"c(""distractor1"", ""distractor2"", ""distractor3"")",NA,NA,NA,NA,NA,NA,NA,NA,NA,NA,NA,NA,NA,NA,NA,NA,NA,NA,NA
8f9bf,task,flow.Sequence,2_0,NA,NA,completion,5921.932,181286.3,181283.899,181300.428,187222.36,187224.7,2023-03-22T09:55:03Z,187238.926,Symbol,kielezo,s,kinyume,nderemo,utayari,NA,NA,NA,"c(""distractor1"", ""distractor2"", ""distractor3"")",NA,NA,NA,NA,NA,NA,NA,NA,NA,NA,NA,NA,NA,NA,NA,NA,NA,NA,NA
8f9bf,Shallow Question,html.Page,2_1_0_0,NA,NA,form submission,11648.873999997,187225.3,187222.36,187238.926,198887.8,198888.3,2023-03-22T09:55:14Z,198914.08,Beweis,ushahidi,d,marudio,kizuizi,mtendaji,ushahidi,NA,NA,"c(""distractor1"", ""distractor2"", ""distractor3"")",NA,NA,NA,NA,NA,NA,NA,NA,NA,NA,NA,NA,NA,NA,NA,NA,NA,NA,NA
8f9bf,Save data screen,canvas.Screen,2_1_0_1,NA,NA,timeout,503.31600000002,198894.59999999,198897.37,198914.08,199400.873,199402,2023-03-22T09:55:15Z,199417.396,Beweis,ushahidi,d,marudio,kizuizi,mtendaji,NA,NA,1,"c(""distractor1"", ""distractor2"", ""distractor3"")",NA,NA,NA,NA,NA,NA,NA,NA,NA,NA,NA,NA,NA,NA,NA,NA,NA,NA,NA
8f9bf,shallow,flow.Sequence,2_1_0,NA,NA,completion,12161.947,187225.09999999,187222.36,187238.926,199400.873,199402.39999999,2023-03-22T09:55:15Z,199417.396,Beweis,ushahidi,d,marudio,kizuizi,mtendaji,NA,NA,NA,"c(""distractor1"", ""distractor2"", ""distractor3"")",NA,NA,NA,NA,NA,NA,NA,NA,NA,NA,NA,NA,NA,NA,NA,NA,NA,NA,NA
8f9bf,task,flow.Sequence,2_1,NA,NA,completion,12161.947,187225,187222.36,187238.926,199400.873,199402.7,2023-03-22T09:55:15Z,199417.396,Beweis,ushahidi,d,marudio,kizuizi,mtendaji,NA,NA,NA,"c(""distractor1"", ""distractor2"", ""distractor3"")",NA,NA,NA,NA,NA,NA,NA,NA,NA,NA,NA,NA,NA,NA,NA,NA,NA,NA,NA
8f9bf,Shallow Question,html.Page,2_2_0_0,NA,NA,form submission,5284.804000003,199402.89999999,199400.873,199417.396,204702.2,204702.7,2023-03-22T09:55:20Z,204719.911,Konkurrent,mshindani,d,msemaji,mvutaji,kipukusa,mshindani,NA,NA,"c(""distractor1"", ""distractor2"", ""distractor3"")",NA,NA,NA,NA,NA,NA,NA,NA,NA,NA,NA,NA,NA,NA,NA,NA,NA,NA,NA
8f9bf,Save data screen,canvas.Screen,2_2_0_1,NA,NA,timeout,495.73500000002,204710.09999999,204686.755,204719.911,205199.178,205200.3,2023-03-22T09:55:21Z,205215.646,Konkurrent,mshindani,d,msemaji,mvutaji,kipukusa,NA,NA,1,"c(""distractor1"", ""distractor2"", ""distractor3"")",NA,NA,NA,NA,NA,NA,NA,NA,NA,NA,NA,NA,NA,NA,NA,NA,NA,NA,NA
8f9bf,shallow,flow.Sequence,2_2_0,NA,NA,completion,5781.782,199402.89999999,199400.873,199417.396,205199.178,205200.7,2023-03-22T09:55:21Z,205215.646,Konkurrent,mshindani,d,msemaji,mvutaji,kipukusa,NA,NA,NA,"c(""distractor1"", ""distractor2"", ""distractor3"")",NA,NA,NA,NA,NA,NA,NA,NA,NA,NA,NA,NA,NA,NA,NA,NA,NA,NA,NA
8f9bf,task,flow.Sequence,2_2,NA,NA,completion,5781.782,199402.89999999,199400.873,199417.396,205199.178,205201.09999999,2023-03-22T09:55:21Z,205215.646,Konkurrent,mshindani,d,msemaji,mvutaji,kipukusa,NA,NA,NA,"c(""distractor1"", ""distractor2"", ""distractor3"")",NA,NA,NA,NA,NA,NA,NA,NA,NA,NA,NA,NA,NA,NA,NA,NA,NA,NA,NA
8f9bf,Shallow Question,html.Page,2_3_0_0,NA,NA,form submission,7149.153999997,205201.39999999,205199.178,205215.646,212364.8,212365.3,2023-03-22T09:55:28Z,212382.769,Zuwachs,nyongeza,s,matilaba,udhibiti,hudhurio,nyongeza,NA,NA,"c(""distractor1"", ""distractor2"", ""distractor3"")",NA,NA,NA,NA,NA,NA,NA,NA,NA,NA,NA,NA,NA,NA,NA,NA,NA,NA,NA
8f9bf,Save data screen,canvas.Screen,2_3_0_1,NA,NA,timeout,492.486,212372.5,212366.105,212382.769,212858.567,212859.7,2023-03-22T09:55:28Z,212875.255,Zuwachs,nyongeza,s,matilaba,udhibiti,hudhurio,NA,NA,1,"c(""distractor1"", ""distractor2"", ""distractor3"")",NA,NA,NA,NA,NA,NA,NA,NA,NA,NA,NA,NA,NA,NA,NA,NA,NA,NA,NA
8f9bf,shallow,flow.Sequence,2_3_0,NA,NA,completion,7642.921,205201.39999999,205199.178,205215.646,212858.567,212860.09999999,2023-03-22T09:55:28Z,212875.255,Zuwachs,nyongeza,s,matilaba,udhibiti,hudhurio,NA,NA,NA,"c(""distractor1"", ""distractor2"", ""distractor3"")",NA,NA,NA,NA,NA,NA,NA,NA,NA,NA,NA,NA,NA,NA,NA,NA,NA,NA,NA
8f9bf,task,flow.Sequence,2_3,NA,NA,completion,7642.921,205201.2,205199.178,205215.646,212858.567,212860.39999999,2023-03-22T09:55:28Z,212875.255,Zuwachs,nyongeza,s,matilaba,udhibiti,hudhurio,NA,NA,NA,"c(""distractor1"", ""distractor2"", ""distractor3"")",NA,NA,NA,NA,NA,NA,NA,NA,NA,NA,NA,NA,NA,NA,NA,NA,NA,NA,NA
8f9bf,Shallow Question,html.Page,2_4_0_0,NA,NA,form submission,8862.044999997,212860.7,212858.567,212875.255,221737.3,221737.8,2023-03-22T09:55:37Z,221757.956,Verstand,ufahamivu,s,shakawa,hadhari,mhandisi,ufahamivu,NA,NA,"c(""distractor1"", ""distractor2"", ""distractor3"")",NA,NA,NA,NA,NA,NA,NA,NA,NA,NA,NA,NA,NA,NA,NA,NA,NA,NA,NA
8f9bf,Save data screen,canvas.Screen,2_4_0_1,NA,NA,timeout,502.079,221744.59999999,221741.292,221757.956,222242.801,222245.39999999,2023-03-22T09:55:38Z,222260.035,Verstand,ufahamivu,s,shakawa,hadhari,mhandisi,NA,NA,1,"c(""distractor1"", ""distractor2"", ""distractor3"")",NA,NA,NA,NA,NA,NA,NA,NA,NA,NA,NA,NA,NA,NA,NA,NA,NA,NA,NA
8f9bf,shallow,flow.Sequence,2_4_0,NA,NA,completion,9367.546,212860.7,212858.567,212875.255,222242.801,222246.09999999,2023-03-22T09:55:38Z,222260.035,Verstand,ufahamivu,s,shakawa,hadhari,mhandisi,NA,NA,NA,"c(""distractor1"", ""distractor2"", ""distractor3"")",NA,NA,NA,NA,NA,NA,NA,NA,NA,NA,NA,NA,NA,NA,NA,NA,NA,NA,NA
8f9bf,task,flow.Sequence,2_4,NA,NA,completion,9367.546,212860.59999999,212858.567,212875.255,222242.801,222246.39999999,2023-03-22T09:55:38Z,222260.035,Verstand,ufahamivu,s,shakawa,hadhari,mhandisi,NA,NA,NA,"c(""distractor1"", ""distractor2"", ""distractor3"")",NA,NA,NA,NA,NA,NA,NA,NA,NA,NA,NA,NA,NA,NA,NA,NA,NA,NA,NA
8f9bf,Shallow Question,html.Page,2_5_0_0,NA,NA,form submission,9069.764999997,222246.7,222242.801,222260.035,231329.8,231330.2,2023-03-22T09:55:47Z,231355.999,Schönheit,kirembo,s,mahojiano,msisimko,jitihadi,kirembo,NA,NA,"c(""distractor1"", ""distractor2"", ""distractor3"")",NA,NA,NA,NA,NA,NA,NA,NA,NA,NA,NA,NA,NA,NA,NA,NA,NA,NA,NA
8f9bf,Save data screen,canvas.Screen,2_5_0_1,NA,NA,timeout,507.826,231336.39999999,231322.838,231355.999,231847.207,231848.39999999,2023-03-22T09:55:47Z,231863.825,Schönheit,kirembo,s,mahojiano,msisimko,jitihadi,NA,NA,1,"c(""distractor1"", ""distractor2"", ""distractor3"")",NA,NA,NA,NA,NA,NA,NA,NA,NA,NA,NA,NA,NA,NA,NA,NA,NA,NA,NA
8f9bf,shallow,flow.Sequence,2_5_0,NA,NA,completion,9587.172,222246.59999999,222242.801,222260.035,231847.207,231848.89999999,2023-03-22T09:55:47Z,231863.825,Schönheit,kirembo,s,mahojiano,msisimko,jitihadi,NA,NA,NA,"c(""distractor1"", ""distractor2"", ""distractor3"")",NA,NA,NA,NA,NA,NA,NA,NA,NA,NA,NA,NA,NA,NA,NA,NA,NA,NA,NA
8f9bf,task,flow.Sequence,2_5,NA,NA,completion,9587.172,222246.59999999,222242.801,222260.035,231847.207,231849.3,2023-03-22T09:55:47Z,231863.825,Schönheit,kirembo,s,mahojiano,msisimko,jitihadi,NA,NA,NA,"c(""distractor1"", ""distractor2"", ""distractor3"")",NA,NA,NA,NA,NA,NA,NA,NA,NA,NA,NA,NA,NA,NA,NA,NA,NA,NA,NA
8f9bf,Shallow Question,html.Page,2_6_0_0,NA,NA,form submission,4979.875000003,231849.59999999,231847.207,231863.825,236843.7,236844.8,2023-03-22T09:55:52Z,236854.427,Polizist,msongora,d,simanzi,mandhari,nidhamu,msongora,NA,NA,"c(""distractor1"", ""distractor2"", ""distractor3"")",NA,NA,NA,NA,NA,NA,NA,NA,NA,NA,NA,NA,NA,NA,NA,NA,NA,NA,NA
8f9bf,Save data screen,canvas.Screen,2_6_0_1,NA,NA,timeout,497.51000000001,236857,236838.008,236854.427,237335.151,237336.89999999,2023-03-22T09:55:53Z,237351.937,Polizist,msongora,d,simanzi,mandhari,nidhamu,NA,NA,1,"c(""distractor1"", ""distractor2"", ""distractor3"")",NA,NA,NA,NA,NA,NA,NA,NA,NA,NA,NA,NA,NA,NA,NA,NA,NA,NA,NA
8f9bf,shallow,flow.Sequence,2_6_0,NA,NA,completion,5471.326,231849.5,231847.207,231863.825,237335.151,237337.3,2023-03-22T09:55:53Z,237351.937,Polizist,msongora,d,simanzi,mandhari,nidhamu,NA,NA,NA,"c(""distractor1"", ""distractor2"", ""distractor3"")",NA,NA,NA,NA,NA,NA,NA,NA,NA,NA,NA,NA,NA,NA,NA,NA,NA,NA,NA
8f9bf,task,flow.Sequence,2_6,NA,NA,completion,5471.326,231849.39999999,231847.207,231863.825,237335.151,237337.59999999,2023-03-22T09:55:53Z,237351.937,Polizist,msongora,d,simanzi,mandhari,nidhamu,NA,NA,NA,"c(""distractor1"", ""distractor2"", ""distractor3"")",NA,NA,NA,NA,NA,NA,NA,NA,NA,NA,NA,NA,NA,NA,NA,NA,NA,NA,NA
8f9bf,Shallow Question,html.Page,2_7_0_0,NA,NA,form submission,6057.763000003,237338,237335.151,237351.937,243409.7,243410.3,2023-03-22T09:55:59Z,243422.961,Annäherung,maegesho,s,madahili,kujiamini,mapendekezo,maegesho,NA,NA,"c(""distractor1"", ""distractor2"", ""distractor3"")",NA,NA,NA,NA,NA,NA,NA,NA,NA,NA,NA,NA,NA,NA,NA,NA,NA,NA,NA
8f9bf,Save data screen,canvas.Screen,2_7_0_1,NA,NA,timeout,501.79299999998,243416.59999999,243406.57,243422.961,243908.252,243909.2,2023-03-22T09:55:59Z,243924.754,Annäherung,maegesho,s,madahili,kujiamini,mapendekezo,NA,NA,1,"c(""distractor1"", ""distractor2"", ""distractor3"")",NA,NA,NA,NA,NA,NA,NA,NA,NA,NA,NA,NA,NA,NA,NA,NA,NA,NA,NA
8f9bf,shallow,flow.Sequence,2_7_0,NA,NA,completion,6556.315,237337.8,237335.151,237351.937,243908.252,243909.8,2023-03-22T09:55:59Z,243924.754,Annäherung,maegesho,s,madahili,kujiamini,mapendekezo,NA,NA,NA,"c(""distractor1"", ""distractor2"", ""distractor3"")",NA,NA,NA,NA,NA,NA,NA,NA,NA,NA,NA,NA,NA,NA,NA,NA,NA,NA,NA
8f9bf,task,flow.Sequence,2_7,NA,NA,completion,6556.315,237337.8,237335.151,237351.937,243908.252,243910.2,2023-03-22T09:55:59Z,243924.754,Annäherung,maegesho,s,madahili,kujiamini,mapendekezo,NA,NA,NA,"c(""distractor1"", ""distractor2"", ""distractor3"")",NA,NA,NA,NA,NA,NA,NA,NA,NA,NA,NA,NA,NA,NA,NA,NA,NA,NA,NA
8f9bf,Shallow Question,html.Page,2_8_0_0,NA,NA,form submission,14770.946000003,243910.5,243908.252,243924.754,258695.7,258696.2,2023-03-22T09:56:14Z,258705.162,Zufall,kikuti,s,kukosekana,uchoraji,leseni,kukosekana,NA,NA,"c(""distractor1"", ""distractor2"", ""distractor3"")",NA,NA,NA,NA,NA,NA,NA,NA,NA,NA,NA,NA,NA,NA,NA,NA,NA,NA,NA
8f9bf,Save data screen,canvas.Screen,2_8_0_1,NA,NA,timeout,494.897,258702.8,258688.698,258705.162,259183.593,259184.59999999,2023-03-22T09:56:14Z,259200.059,Zufall,kikuti,s,kukosekana,uchoraji,leseni,NA,NA,0,"c(""distractor1"", ""distractor2"", ""distractor3"")",NA,NA,NA,NA,NA,NA,NA,NA,NA,NA,NA,NA,NA,NA,NA,NA,NA,NA,NA
8f9bf,shallow,flow.Sequence,2_8_0,NA,NA,completion,15258.839,243910.39999999,243908.252,243924.754,259183.593,259185,2023-03-22T09:56:14Z,259200.059,Zufall,kikuti,s,kukosekana,uchoraji,leseni,NA,NA,NA,"c(""distractor1"", ""distractor2"", ""distractor3"")",NA,NA,NA,NA,NA,NA,NA,NA,NA,NA,NA,NA,NA,NA,NA,NA,NA,NA,NA
8f9bf,task,flow.Sequence,2_8,NA,NA,completion,15258.839,243910.39999999,243908.252,243924.754,259183.593,259185.3,2023-03-22T09:56:14Z,259200.059,Zufall,kikuti,s,kukosekana,uchoraji,leseni,NA,NA,NA,"c(""distractor1"", ""distractor2"", ""distractor3"")",NA,NA,NA,NA,NA,NA,NA,NA,NA,NA,NA,NA,NA,NA,NA,NA,NA,NA,NA
8f9bf,Shallow Question,html.Page,2_9_0_0,NA,NA,form submission,26841.740999997,259185.59999999,259183.593,259200.059,286041.8,286042.3,2023-03-22T09:56:41Z,286047.596,Vorsorge,tahadhari,d,ufafanuzi,makini,mashambani,tahadhari,NA,NA,"c(""distractor1"", ""distractor2"", ""distractor3"")",NA,NA,NA,NA,NA,NA,NA,NA,NA,NA,NA,NA,NA,NA,NA,NA,NA,NA,NA
8f9bf,Save data screen,canvas.Screen,2_9_0_1,NA,NA,timeout,502.49599999998,286050,286031.115,286047.596,286533.478,286534.39999999,2023-03-22T09:56:42Z,286550.092,Vorsorge,tahadhari,d,ufafanuzi,makini,mashambani,NA,NA,1,"c(""distractor1"", ""distractor2"", ""distractor3"")",NA,NA,NA,NA,NA,NA,NA,NA,NA,NA,NA,NA,NA,NA,NA,NA,NA,NA,NA
8f9bf,shallow,flow.Sequence,2_9_0,NA,NA,completion,27333.419,259185.5,259183.593,259200.059,286533.478,286534.89999999,2023-03-22T09:56:42Z,286550.092,Vorsorge,tahadhari,d,ufafanuzi,makini,mashambani,NA,NA,NA,"c(""distractor1"", ""distractor2"", ""distractor3"")",NA,NA,NA,NA,NA,NA,NA,NA,NA,NA,NA,NA,NA,NA,NA,NA,NA,NA,NA
8f9bf,task,flow.Sequence,2_9,NA,NA,completion,27333.419,259185.5,259183.593,259200.059,286533.478,286535.09999999,2023-03-22T09:56:42Z,286550.092,Vorsorge,tahadhari,d,ufafanuzi,makini,mashambani,NA,NA,NA,"c(""distractor1"", ""distractor2"", ""distractor3"")",NA,NA,NA,NA,NA,NA,NA,NA,NA,NA,NA,NA,NA,NA,NA,NA,NA,NA,NA
8f9bf,Shallow Question,html.Page,2_10_0_0,NA,NA,form submission,3322.707999997,286535.5,286533.478,286550.092,289872.8,289873.3,2023-03-22T09:56:45Z,289899.149,Wettbewerb,ushindani,d,mapendezi,kichocheo,ubaguzi,ushindani,NA,NA,"c(""distractor1"", ""distractor2"", ""distractor3"")",NA,NA,NA,NA,NA,NA,NA,NA,NA,NA,NA,NA,NA,NA,NA,NA,NA,NA,NA
8f9bf,Save data screen,canvas.Screen,2_10_0_1,NA,NA,timeout,500.652,289874.89999999,289882.571,289899.149,290383.2,290384.8,2023-03-22T09:56:46Z,290399.801,Wettbewerb,ushindani,d,mapendezi,kichocheo,ubaguzi,NA,NA,1,"c(""distractor1"", ""distractor2"", ""distractor3"")",NA,NA,NA,NA,NA,NA,NA,NA,NA,NA,NA,NA,NA,NA,NA,NA,NA,NA,NA
8f9bf,shallow,flow.Sequence,2_10_0,NA,NA,completion,3833.108,286535.39999999,286533.478,286550.092,290383.2,290385.3,2023-03-22T09:56:46Z,290399.801,Wettbewerb,ushindani,d,mapendezi,kichocheo,ubaguzi,NA,NA,NA,"c(""distractor1"", ""distractor2"", ""distractor3"")",NA,NA,NA,NA,NA,NA,NA,NA,NA,NA,NA,NA,NA,NA,NA,NA,NA,NA,NA
8f9bf,task,flow.Sequence,2_10,NA,NA,completion,3833.108,286535.39999999,286533.478,286550.092,290383.2,290385.59999999,2023-03-22T09:56:46Z,290399.801,Wettbewerb,ushindani,d,mapendezi,kichocheo,ubaguzi,NA,NA,NA,"c(""distractor1"", ""distractor2"", ""distractor3"")",NA,NA,NA,NA,NA,NA,NA,NA,NA,NA,NA,NA,NA,NA,NA,NA,NA,NA,NA
8f9bf,Shallow Question,html.Page,2_11_0_0,NA,NA,form submission,8235.2989999941,290386,290383.2,290399.801,298635.09999999,298635.5,2023-03-22T09:56:54Z,298649.188,Gelegenheit,wakati,d,mchanganyiko,kipaumbele,kushuku,wakati,NA,NA,"c(""distractor1"", ""distractor2"", ""distractor3"")",NA,NA,NA,NA,NA,NA,NA,NA,NA,NA,NA,NA,NA,NA,NA,NA,NA,NA,NA
8f9bf,Save data screen,canvas.Screen,2_11_0_1,NA,NA,timeout,499.24799999996,298642,298632.758,298649.188,299131.824,299133,2023-03-22T09:56:54Z,299148.436,Gelegenheit,wakati,d,mchanganyiko,kipaumbele,kushuku,NA,NA,1,"c(""distractor1"", ""distractor2"", ""distractor3"")",NA,NA,NA,NA,NA,NA,NA,NA,NA,NA,NA,NA,NA,NA,NA,NA,NA,NA,NA
8f9bf,shallow,flow.Sequence,2_11_0,NA,NA,completion,8732.023,290385.89999999,290383.2,290399.801,299131.824,299133.39999999,2023-03-22T09:56:54Z,299148.436,Gelegenheit,wakati,d,mchanganyiko,kipaumbele,kushuku,NA,NA,NA,"c(""distractor1"", ""distractor2"", ""distractor3"")",NA,NA,NA,NA,NA,NA,NA,NA,NA,NA,NA,NA,NA,NA,NA,NA,NA,NA,NA
8f9bf,task,flow.Sequence,2_11,NA,NA,completion,8732.023,290385.7,290383.2,290399.801,299131.824,299133.8,2023-03-22T09:56:54Z,299148.436,Gelegenheit,wakati,d,mchanganyiko,kipaumbele,kushuku,NA,NA,NA,"c(""distractor1"", ""distractor2"", ""distractor3"")",NA,NA,NA,NA,NA,NA,NA,NA,NA,NA,NA,NA,NA,NA,NA,NA,NA,NA,NA
8f9bf,Shallow Question,html.Page,2_12_0_0,NA,NA,form submission,6836.363999997,299134.09999999,299131.824,299148.436,305984.8,305985.3,2023-03-22T09:57:01Z,306003.994,Ausschluss,kutengwa,d,ununuzi,taratibu,madeni,kutengwa,NA,NA,"c(""distractor1"", ""distractor2"", ""distractor3"")",NA,NA,NA,NA,NA,NA,NA,NA,NA,NA,NA,NA,NA,NA,NA,NA,NA,NA,NA
8f9bf,Save data screen,canvas.Screen,2_12_0_1,NA,NA,timeout,498.223,305993.2,305987.287,306003.994,306485.585,306486.7,2023-03-22T09:57:02Z,306502.217,Ausschluss,kutengwa,d,ununuzi,taratibu,madeni,NA,NA,1,"c(""distractor1"", ""distractor2"", ""distractor3"")",NA,NA,NA,NA,NA,NA,NA,NA,NA,NA,NA,NA,NA,NA,NA,NA,NA,NA,NA
8f9bf,shallow,flow.Sequence,2_12_0,NA,NA,completion,7337.149,299134,299131.824,299148.436,306485.585,306487,2023-03-22T09:57:02Z,306502.217,Ausschluss,kutengwa,d,ununuzi,taratibu,madeni,NA,NA,NA,"c(""distractor1"", ""distractor2"", ""distractor3"")",NA,NA,NA,NA,NA,NA,NA,NA,NA,NA,NA,NA,NA,NA,NA,NA,NA,NA,NA
8f9bf,task,flow.Sequence,2_12,NA,NA,completion,7337.149,299133.89999999,299131.824,299148.436,306485.585,306487.3,2023-03-22T09:57:02Z,306502.217,Ausschluss,kutengwa,d,ununuzi,taratibu,madeni,NA,NA,NA,"c(""distractor1"", ""distractor2"", ""distractor3"")",NA,NA,NA,NA,NA,NA,NA,NA,NA,NA,NA,NA,NA,NA,NA,NA,NA,NA,NA
8f9bf,Shallow Question,html.Page,2_13_0_0,NA,NA,form submission,5544.382999994,306487.7,306485.585,306502.217,312046.59999999,312047.2,2023-03-22T09:57:07Z,312071.068,Sympathie,mapendano,s,dhamiria,fungamano,maazimio,mapendano,NA,NA,"c(""distractor1"", ""distractor2"", ""distractor3"")",NA,NA,NA,NA,NA,NA,NA,NA,NA,NA,NA,NA,NA,NA,NA,NA,NA,NA,NA
8f9bf,Save data screen,canvas.Screen,2_13_0_1,NA,NA,timeout,495.14099999995,312053.39999999,312054.274,312071.068,312549.743,312550.8,2023-03-22T09:57:08Z,312566.209,Sympathie,mapendano,s,dhamiria,fungamano,maazimio,NA,NA,1,"c(""distractor1"", ""distractor2"", ""distractor3"")",NA,NA,NA,NA,NA,NA,NA,NA,NA,NA,NA,NA,NA,NA,NA,NA,NA,NA,NA
8f9bf,shallow,flow.Sequence,2_13_0,NA,NA,completion,6047.526,306487.59999999,306485.585,306502.217,312549.743,312551.2,2023-03-22T09:57:08Z,312566.209,Sympathie,mapendano,s,dhamiria,fungamano,maazimio,NA,NA,NA,"c(""distractor1"", ""distractor2"", ""distractor3"")",NA,NA,NA,NA,NA,NA,NA,NA,NA,NA,NA,NA,NA,NA,NA,NA,NA,NA,NA
8f9bf,task,flow.Sequence,2_13,NA,NA,completion,6047.526,306487.59999999,306485.585,306502.217,312549.743,312551.59999999,2023-03-22T09:57:08Z,312566.209,Sympathie,mapendano,s,dhamiria,fungamano,maazimio,NA,NA,NA,"c(""distractor1"", ""distractor2"", ""distractor3"")",NA,NA,NA,NA,NA,NA,NA,NA,NA,NA,NA,NA,NA,NA,NA,NA,NA,NA,NA
8f9bf,Shallow Question,html.Page,2_14_0_0,NA,NA,form submission,5897.6909999911,312551.8,312549.743,312566.209,318463.89999999,318464.59999999,2023-03-22T09:57:14Z,318482.674,Widerstand,usulubu,s,kusababisha,mwalimu,mwenendo,usulubu,NA,NA,"c(""distractor1"", ""distractor2"", ""distractor3"")",NA,NA,NA,NA,NA,NA,NA,NA,NA,NA,NA,NA,NA,NA,NA,NA,NA,NA,NA
8f9bf,Save data screen,canvas.Screen,2_14_0_1,NA,NA,timeout,500.299,318472.09999999,318466.009,318482.674,318966.528,318967.7,2023-03-22T09:57:14Z,318982.973,Widerstand,usulubu,s,kusababisha,mwalimu,mwenendo,NA,NA,1,"c(""distractor1"", ""distractor2"", ""distractor3"")",NA,NA,NA,NA,NA,NA,NA,NA,NA,NA,NA,NA,NA,NA,NA,NA,NA,NA,NA
8f9bf,shallow,flow.Sequence,2_14_0,NA,NA,completion,6400.319,312551.8,312549.743,312566.209,318966.528,318968,2023-03-22T09:57:14Z,318982.973,Widerstand,usulubu,s,kusababisha,mwalimu,mwenendo,NA,NA,NA,"c(""distractor1"", ""distractor2"", ""distractor3"")",NA,NA,NA,NA,NA,NA,NA,NA,NA,NA,NA,NA,NA,NA,NA,NA,NA,NA,NA
8f9bf,task,flow.Sequence,2_14,NA,NA,completion,6400.319,312551.7,312549.743,312566.209,318966.528,318968.3,2023-03-22T09:57:14Z,318982.973,Widerstand,usulubu,s,kusababisha,mwalimu,mwenendo,NA,NA,NA,"c(""distractor1"", ""distractor2"", ""distractor3"")",NA,NA,NA,NA,NA,NA,NA,NA,NA,NA,NA,NA,NA,NA,NA,NA,NA,NA,NA
8f9bf,Shallow Question,html.Page,2_15_0_0,NA,NA,form submission,8716.126999994,318968.59999999,318966.528,318982.973,327699.09999999,327699.7,2023-03-22T09:57:23Z,327712.91,Auftrag,uagizaji,d,ghanima,kuzingatia,msukani,uagizaji,NA,NA,"c(""distractor1"", ""distractor2"", ""distractor3"")",NA,NA,NA,NA,NA,NA,NA,NA,NA,NA,NA,NA,NA,NA,NA,NA,NA,NA,NA
8f9bf,Save data screen,canvas.Screen,2_15_0_1,NA,NA,timeout,501.47400000005,327706,327696.46,327712.91,328197.952,328199.09999999,2023-03-22T09:57:24Z,328214.384,Auftrag,uagizaji,d,ghanima,kuzingatia,msukani,NA,NA,1,"c(""distractor1"", ""distractor2"", ""distractor3"")",NA,NA,NA,NA,NA,NA,NA,NA,NA,NA,NA,NA,NA,NA,NA,NA,NA,NA,NA
8f9bf,shallow,flow.Sequence,2_15_0,NA,NA,completion,9214.979,318968.59999999,318966.528,318982.973,328197.952,328199.59999999,2023-03-22T09:57:24Z,328214.384,Auftrag,uagizaji,d,ghanima,kuzingatia,msukani,NA,NA,NA,"c(""distractor1"", ""distractor2"", ""distractor3"")",NA,NA,NA,NA,NA,NA,NA,NA,NA,NA,NA,NA,NA,NA,NA,NA,NA,NA,NA
8f9bf,task,flow.Sequence,2_15,NA,NA,completion,9214.979,318968.5,318966.528,318982.973,328197.952,328199.89999999,2023-03-22T09:57:24Z,328214.384,Auftrag,uagizaji,d,ghanima,kuzingatia,msukani,NA,NA,NA,"c(""distractor1"", ""distractor2"", ""distractor3"")",NA,NA,NA,NA,NA,NA,NA,NA,NA,NA,NA,NA,NA,NA,NA,NA,NA,NA,NA
8f9bf,retrieval block 2 (multiple choice),flow.Loop,2,NA,NA,completion,146897.524,181286.3,181283.899,181300.428,328197.952,328200.2,2023-03-22T09:57:24Z,328214.384,NA,NA,NA,NA,NA,NA,NA,NA,NA,"c(""distractor1"", ""distractor2"", ""distractor3"")",NA,NA,NA,NA,NA,NA,NA,NA,NA,NA,NA,NA,NA,NA,NA,NA,NA,NA,NA
8f9bf,End,canvas.Screen,3,NA,keypress(Space),response,2411.515999991,328200.3,328197.952,328214.384,330625.89999999,330628.09999999,2023-03-22T09:57:26Z,330632.872,NA,NA,NA,NA,NA,NA,NA,NA,NA,NULL,NA,NA,NA,NA,NA,NA,NA,NA,NA,NA,NA,NA,NA,NA,NA,NA,NA,NA,NA
8f9bf,root,flow.Sequence,NA,NA,NA,completion,329728.63999999,848,497.181,897.26,330625.89999999,330628.8,2023-03-22T09:57:26Z,330632.872,NA,NA,NA,NA,NA,NA,NA,NA,NA,NULL,NA,NA,NA,NA,NA,NA,NA,NA,NA,NA,NA,NA,NA,NA,NA,NA,NA,NA,NA
