observation,sender,sender_type,sender_id,response,response_action,ended_on,duration,time_run,time_render,time_show,time_end,time_commit,timestamp,time_switch,distractors,german,swahili,enc,distractor1,distractor2,distractor3,response_2,x,correct,x_2,url_vp,url_sess,meta_labjs_version,meta_location,meta_user_agent,meta_platform,meta_language,meta_locale,meta_time_zone,meta_timezone_offset,meta_screen_width,meta_screen_height,meta_scroll_width,meta_scroll_height,meta_window_inner_width,meta_window_inner_height,meta_device_pixel_ratio,meta_labjs_build_flavor,meta_labjs_build_commit
ba76c,Introduction general,canvas.Screen,0,weiter,keypress(q),response,47505.6,327,330.78,347.4,47853,47876,2023-10-19T12:31:26Z,47878.04,NULL,NA,NA,NA,NA,NA,NA,NA,NA,NA,NA,183,3,20.2.4,https://neurocog.fernuni.ch/studies/vweber/sliechti/encoding_immediate/index.html?vp=183&sess=3,Mozilla/5.0 (Windows NT 10.0; Win64; x64; rv:109.0) Gecko/20100101 Firefox/118.0,Win32,de,de-CH,Europe/Zurich,-120,1280,720,1280,587,1280,587,1.5,production,f5b4a49f956347addd546a832a3327688c2c0fef
ba76c,Introduction practice,canvas.Screen,1_0,NA,keypress(Space),response,3724.96,47877,47877.56,47878.04,51603,51614,2023-10-19T12:31:30Z,51624.44,NULL,NA,NA,NA,NA,NA,NA,NA,NA,NA,NA,NA,NA,NA,NA,NA,NA,NA,NA,NA,NA,NA,NA,NA,NA,NA,NA,NA,NA,NA
ba76c,deep,flow.Sequence,1_1_0_0,NA,NA,skipped,NA,51615,NA,NA,51603,51615,2023-10-19T12:31:30Z,51624.44,"c(""distractor1"", ""distractor2"", ""distractor3"")",Gegenwart,hadhara,s,katiba,jokofu,mikopo,NA,NA,NA,NA,NA,NA,NA,NA,NA,NA,NA,NA,NA,NA,NA,NA,NA,NA,NA,NA,NA,NA,NA
ba76c,Shallow Question,html.Page,1_1_0_1_0,NA,NA,form submission,8604.56,51616,51616.46,51624.44,60229,60229,2023-10-19T12:31:38Z,60239.92,"c(""distractor1"", ""distractor2"", ""distractor3"")",Gegenwart,hadhara,s,katiba,jokofu,mikopo,mikopo,NA,NA,NA,NA,NA,NA,NA,NA,NA,NA,NA,NA,NA,NA,NA,NA,NA,NA,NA,NA,NA,NA
ba76c,"""Richtig""-Screen",canvas.Screen,1_1_0_1_1,NA,NA,skipped,NA,60234,NA,NA,60229,60234,2023-10-19T12:31:38Z,60239.92,"c(""distractor1"", ""distractor2"", ""distractor3"")",Gegenwart,hadhara,s,katiba,jokofu,mikopo,NA,NA,NA,NA,NA,NA,NA,NA,NA,NA,NA,NA,NA,NA,NA,NA,NA,NA,NA,NA,NA,NA,NA
ba76c,"""Falsch""-Screen",canvas.Screen,1_1_0_1_2,NA,NA,timeout,4999.4,60237,60228.14,60239.92,65223.18,65225,2023-10-19T12:31:43Z,65239.32,"c(""distractor1"", ""distractor2"", ""distractor3"")",Gegenwart,hadhara,s,katiba,jokofu,mikopo,NA,NA,0,NA,NA,NA,NA,NA,NA,NA,NA,NA,NA,NA,NA,NA,NA,NA,NA,NA,NA,NA,NA
ba76c,shallow,flow.Sequence,1_1_0_1,NA,NA,completion,13598.74,51616,51616.46,51624.44,65223.18,65226,2023-10-19T12:31:43Z,65239.32,"c(""distractor1"", ""distractor2"", ""distractor3"")",Gegenwart,hadhara,s,katiba,jokofu,mikopo,NA,NA,NA,NA,NA,NA,NA,NA,NA,NA,NA,NA,NA,NA,NA,NA,NA,NA,NA,NA,NA,NA,NA
ba76c,task,flow.Sequence,1_1_0,NA,NA,completion,13598.74,51615,51616.46,51624.44,65223.18,65226,2023-10-19T12:31:43Z,65239.32,"c(""distractor1"", ""distractor2"", ""distractor3"")",Gegenwart,hadhara,s,katiba,jokofu,mikopo,NA,NA,NA,NA,NA,NA,NA,NA,NA,NA,NA,NA,NA,NA,NA,NA,NA,NA,NA,NA,NA,NA,NA
ba76c,Deep Question,html.Page,1_1_1_0_0,NA,NA,form submission,6742.68,65227,65223.18,65239.32,71982,71982,2023-10-19T12:31:50Z,71988.5,"c(""distractor1"", ""distractor2"", ""distractor3"")",Gesundheit,salama,d,NA,NA,NA,g,NA,NA,NA,NA,NA,NA,NA,NA,NA,NA,NA,NA,NA,NA,NA,NA,NA,NA,NA,NA,NA,NA
ba76c,"""Richtig""-Screen",canvas.Screen,1_1_1_0_1,NA,NA,skipped,NA,71985,NA,NA,71982,71986,2023-10-19T12:31:50Z,71988.5,"c(""distractor1"", ""distractor2"", ""distractor3"")",Gesundheit,salama,d,NA,NA,NA,NA,NA,NA,NA,NA,NA,NA,NA,NA,NA,NA,NA,NA,NA,NA,NA,NA,NA,NA,NA,NA,NA,NA
ba76c,"""Falsch""-Screen",canvas.Screen,1_1_1_0_2,NA,NA,timeout,4999.34,71988,71981,71988.5,76971.28,76975,2023-10-19T12:31:55Z,76987.84,"c(""distractor1"", ""distractor2"", ""distractor3"")",Gesundheit,salama,d,NA,NA,NA,NA,NA,0,NA,NA,NA,NA,NA,NA,NA,NA,NA,NA,NA,NA,NA,NA,NA,NA,NA,NA,NA,NA
ba76c,deep,flow.Sequence,1_1_1_0,NA,NA,completion,11731.96,65227,65223.18,65239.32,76971.28,76976,2023-10-19T12:31:55Z,76987.84,"c(""distractor1"", ""distractor2"", ""distractor3"")",Gesundheit,salama,d,NA,NA,NA,NA,NA,NA,NA,NA,NA,NA,NA,NA,NA,NA,NA,NA,NA,NA,NA,NA,NA,NA,NA,NA,NA,NA
ba76c,shallow,flow.Sequence,1_1_1_1,NA,NA,skipped,NA,76976,NA,NA,76971.28,76976,2023-10-19T12:31:55Z,76987.84,"c(""distractor1"", ""distractor2"", ""distractor3"")",Gesundheit,salama,d,NA,NA,NA,NA,NA,NA,NA,NA,NA,NA,NA,NA,NA,NA,NA,NA,NA,NA,NA,NA,NA,NA,NA,NA,NA,NA
ba76c,task,flow.Sequence,1_1_1,NA,NA,completion,11731.96,65227,65223.18,65239.32,76971.28,76976,2023-10-19T12:31:55Z,76987.84,"c(""distractor1"", ""distractor2"", ""distractor3"")",Gesundheit,salama,d,NA,NA,NA,NA,NA,NA,NA,NA,NA,NA,NA,NA,NA,NA,NA,NA,NA,NA,NA,NA,NA,NA,NA,NA,NA,NA
ba76c,Deep Question,html.Page,1_1_2_0_0,NA,NA,form submission,3828.16,76977,76971.28,76987.84,80816,80817,2023-10-19T12:31:59Z,80820.66,"c(""distractor1"", ""distractor2"", ""distractor3"")",Qualität,mtindo,d,NA,NA,NA,q,NA,NA,NA,NA,NA,NA,NA,NA,NA,NA,NA,NA,NA,NA,NA,NA,NA,NA,NA,NA,NA,NA
ba76c,"""Richtig""-Screen",canvas.Screen,1_1_2_0_1,NA,NA,skipped,NA,80820,NA,NA,80816,80820,2023-10-19T12:31:59Z,80820.66,"c(""distractor1"", ""distractor2"", ""distractor3"")",Qualität,mtindo,d,NA,NA,NA,NA,NA,NA,NA,NA,NA,NA,NA,NA,NA,NA,NA,NA,NA,NA,NA,NA,NA,NA,NA,NA,NA,NA
ba76c,"""Falsch""-Screen",canvas.Screen,1_1_2_0_2,NA,NA,timeout,4999.42,80823,80815.92,80820.66,85803.66,85805,2023-10-19T12:32:04Z,85820.08,"c(""distractor1"", ""distractor2"", ""distractor3"")",Qualität,mtindo,d,NA,NA,NA,NA,NA,0,NA,NA,NA,NA,NA,NA,NA,NA,NA,NA,NA,NA,NA,NA,NA,NA,NA,NA,NA,NA
ba76c,deep,flow.Sequence,1_1_2_0,NA,NA,completion,8815.82,76977,76971.28,76987.84,85803.66,85806,2023-10-19T12:32:04Z,85820.08,"c(""distractor1"", ""distractor2"", ""distractor3"")",Qualität,mtindo,d,NA,NA,NA,NA,NA,NA,NA,NA,NA,NA,NA,NA,NA,NA,NA,NA,NA,NA,NA,NA,NA,NA,NA,NA,NA,NA
ba76c,shallow,flow.Sequence,1_1_2_1,NA,NA,skipped,NA,85806,NA,NA,85803.66,85807,2023-10-19T12:32:04Z,85820.08,"c(""distractor1"", ""distractor2"", ""distractor3"")",Qualität,mtindo,d,NA,NA,NA,NA,NA,NA,NA,NA,NA,NA,NA,NA,NA,NA,NA,NA,NA,NA,NA,NA,NA,NA,NA,NA,NA,NA
ba76c,task,flow.Sequence,1_1_2,NA,NA,completion,8815.82,76977,76971.28,76987.84,85803.66,85807,2023-10-19T12:32:04Z,85820.08,"c(""distractor1"", ""distractor2"", ""distractor3"")",Qualität,mtindo,d,NA,NA,NA,NA,NA,NA,NA,NA,NA,NA,NA,NA,NA,NA,NA,NA,NA,NA,NA,NA,NA,NA,NA,NA,NA,NA
ba76c,deep,flow.Sequence,1_1_3_0,NA,NA,skipped,NA,85808,NA,NA,85803.66,85808,2023-10-19T12:32:04Z,85820.08,"c(""distractor1"", ""distractor2"", ""distractor3"")",Rückhalt,msaada,s,muhula,auwali,kiwimbe,NA,NA,NA,NA,NA,NA,NA,NA,NA,NA,NA,NA,NA,NA,NA,NA,NA,NA,NA,NA,NA,NA,NA
ba76c,Shallow Question,html.Page,1_1_3_1_0,NA,NA,form submission,5865.92,85809,85803.66,85820.08,91686,91687,2023-10-19T12:32:10Z,91686.06,"c(""distractor1"", ""distractor2"", ""distractor3"")",Rückhalt,msaada,s,muhula,auwali,kiwimbe,msaada,NA,NA,NA,NA,NA,NA,NA,NA,NA,NA,NA,NA,NA,NA,NA,NA,NA,NA,NA,NA,NA,NA
ba76c,"""Richtig""-Screen",canvas.Screen,1_1_3_1_1,NA,NA,timeout,4999.28,91694,91680.66,91686.06,96668.92,96670,2023-10-19T12:32:15Z,96685.34,"c(""distractor1"", ""distractor2"", ""distractor3"")",Rückhalt,msaada,s,muhula,auwali,kiwimbe,NA,NA,1,NA,NA,NA,NA,NA,NA,NA,NA,NA,NA,NA,NA,NA,NA,NA,NA,NA,NA,NA,NA
ba76c,"""Falsch""-Screen",canvas.Screen,1_1_3_1_2,NA,NA,skipped,NA,96676,NA,NA,96668.92,96676,2023-10-19T12:32:15Z,96685.34,"c(""distractor1"", ""distractor2"", ""distractor3"")",Rückhalt,msaada,s,muhula,auwali,kiwimbe,NA,NA,NA,NA,NA,NA,NA,NA,NA,NA,NA,NA,NA,NA,NA,NA,NA,NA,NA,NA,NA,NA,NA
ba76c,shallow,flow.Sequence,1_1_3_1,NA,NA,completion,10848.84,85809,85803.66,85820.08,96668.92,96676,2023-10-19T12:32:15Z,96685.34,"c(""distractor1"", ""distractor2"", ""distractor3"")",Rückhalt,msaada,s,muhula,auwali,kiwimbe,NA,NA,NA,NA,NA,NA,NA,NA,NA,NA,NA,NA,NA,NA,NA,NA,NA,NA,NA,NA,NA,NA,NA
ba76c,task,flow.Sequence,1_1_3,NA,NA,completion,10848.84,85808,85803.66,85820.08,96668.92,96677,2023-10-19T12:32:15Z,96685.34,"c(""distractor1"", ""distractor2"", ""distractor3"")",Rückhalt,msaada,s,muhula,auwali,kiwimbe,NA,NA,NA,NA,NA,NA,NA,NA,NA,NA,NA,NA,NA,NA,NA,NA,NA,NA,NA,NA,NA,NA,NA
ba76c,deep,flow.Sequence,1_1_4_0,NA,NA,skipped,NA,96677,NA,NA,96668.92,96677,2023-10-19T12:32:15Z,96685.34,"c(""distractor1"", ""distractor2"", ""distractor3"")",Kritik,lawama,s,dereva,nafasi,mawazo,NA,NA,NA,NA,NA,NA,NA,NA,NA,NA,NA,NA,NA,NA,NA,NA,NA,NA,NA,NA,NA,NA,NA
ba76c,Shallow Question,html.Page,1_1_4_1_0,NA,NA,form submission,8119.66,96677,96668.92,96685.34,104805,104806,2023-10-19T12:32:23Z,104804.4,"c(""distractor1"", ""distractor2"", ""distractor3"")",Kritik,lawama,s,dereva,nafasi,mawazo,nafasi,NA,NA,NA,NA,NA,NA,NA,NA,NA,NA,NA,NA,NA,NA,NA,NA,NA,NA,NA,NA,NA,NA
ba76c,"""Richtig""-Screen",canvas.Screen,1_1_4_1_1,NA,NA,skipped,NA,104809,NA,NA,104805,104809,2023-10-19T12:32:23Z,104804.4,"c(""distractor1"", ""distractor2"", ""distractor3"")",Kritik,lawama,s,dereva,nafasi,mawazo,NA,NA,NA,NA,NA,NA,NA,NA,NA,NA,NA,NA,NA,NA,NA,NA,NA,NA,NA,NA,NA,NA,NA
ba76c,"""Falsch""-Screen",canvas.Screen,1_1_4_1_2,NA,NA,timeout,4995.92,104813,104804.16,104804.4,109783.72,109785,2023-10-19T12:32:28Z,109800.32,"c(""distractor1"", ""distractor2"", ""distractor3"")",Kritik,lawama,s,dereva,nafasi,mawazo,NA,NA,0,NA,NA,NA,NA,NA,NA,NA,NA,NA,NA,NA,NA,NA,NA,NA,NA,NA,NA,NA,NA
ba76c,shallow,flow.Sequence,1_1_4_1,NA,NA,completion,13098.38,96677,96668.92,96685.34,109783.72,109785,2023-10-19T12:32:28Z,109800.32,"c(""distractor1"", ""distractor2"", ""distractor3"")",Kritik,lawama,s,dereva,nafasi,mawazo,NA,NA,NA,NA,NA,NA,NA,NA,NA,NA,NA,NA,NA,NA,NA,NA,NA,NA,NA,NA,NA,NA,NA
ba76c,task,flow.Sequence,1_1_4,NA,NA,completion,13098.38,96677,96668.92,96685.34,109783.72,109786,2023-10-19T12:32:28Z,109800.32,"c(""distractor1"", ""distractor2"", ""distractor3"")",Kritik,lawama,s,dereva,nafasi,mawazo,NA,NA,NA,NA,NA,NA,NA,NA,NA,NA,NA,NA,NA,NA,NA,NA,NA,NA,NA,NA,NA,NA,NA
ba76c,Deep Question,html.Page,1_1_5_0_0,NA,NA,form submission,2790.68,109786,109783.72,109800.32,112591,112591,2023-10-19T12:32:31Z,112599.98,"c(""distractor1"", ""distractor2"", ""distractor3"")",Schatten,kivuli,d,NA,NA,NA,s,NA,NA,NA,NA,NA,NA,NA,NA,NA,NA,NA,NA,NA,NA,NA,NA,NA,NA,NA,NA,NA,NA
ba76c,"""Richtig""-Screen",canvas.Screen,1_1_5_0_1,NA,NA,skipped,NA,112594,NA,NA,112591,112594,2023-10-19T12:32:31Z,112599.98,"c(""distractor1"", ""distractor2"", ""distractor3"")",Schatten,kivuli,d,NA,NA,NA,NA,NA,NA,NA,NA,NA,NA,NA,NA,NA,NA,NA,NA,NA,NA,NA,NA,NA,NA,NA,NA,NA,NA
ba76c,"""Falsch""-Screen",canvas.Screen,1_1_5_0_2,NA,NA,timeout,4999.4,112597,112589.88,112599.98,117583.14,117585,2023-10-19T12:32:36Z,117599.38,"c(""distractor1"", ""distractor2"", ""distractor3"")",Schatten,kivuli,d,NA,NA,NA,NA,NA,0,NA,NA,NA,NA,NA,NA,NA,NA,NA,NA,NA,NA,NA,NA,NA,NA,NA,NA,NA,NA
ba76c,deep,flow.Sequence,1_1_5_0,NA,NA,completion,7782.82,109786,109783.72,109800.32,117583.14,117585,2023-10-19T12:32:36Z,117599.38,"c(""distractor1"", ""distractor2"", ""distractor3"")",Schatten,kivuli,d,NA,NA,NA,NA,NA,NA,NA,NA,NA,NA,NA,NA,NA,NA,NA,NA,NA,NA,NA,NA,NA,NA,NA,NA,NA,NA
ba76c,shallow,flow.Sequence,1_1_5_1,NA,NA,skipped,NA,117586,NA,NA,117583.14,117586,2023-10-19T12:32:36Z,117599.38,"c(""distractor1"", ""distractor2"", ""distractor3"")",Schatten,kivuli,d,NA,NA,NA,NA,NA,NA,NA,NA,NA,NA,NA,NA,NA,NA,NA,NA,NA,NA,NA,NA,NA,NA,NA,NA,NA,NA
ba76c,task,flow.Sequence,1_1_5,NA,NA,completion,7782.82,109786,109783.72,109800.32,117583.14,117586,2023-10-19T12:32:36Z,117599.38,"c(""distractor1"", ""distractor2"", ""distractor3"")",Schatten,kivuli,d,NA,NA,NA,NA,NA,NA,NA,NA,NA,NA,NA,NA,NA,NA,NA,NA,NA,NA,NA,NA,NA,NA,NA,NA,NA,NA
ba76c,block,flow.Loop,1_1,NA,NA,completion,65958.7,51615,51616.46,51624.44,117583.14,117587,2023-10-19T12:32:36Z,117599.38,"c(""distractor1"", ""distractor2"", ""distractor3"")",NA,NA,NA,NA,NA,NA,NA,NA,NA,NA,NA,NA,NA,NA,NA,NA,NA,NA,NA,NA,NA,NA,NA,NA,NA,NA,NA,NA,NA
ba76c,Practice,flow.Sequence,1,NA,NA,completion,69705.1,47877,47877.56,47878.04,117583.14,117587,2023-10-19T12:32:36Z,117599.38,NULL,NA,NA,NA,NA,NA,NA,NA,NA,NA,NA,NA,NA,NA,NA,NA,NA,NA,NA,NA,NA,NA,NA,NA,NA,NA,NA,NA,NA,NA
ba76c,Experiment start,canvas.Screen,2,weiter,keypress(q),response,27066.62,117588,117583.14,117599.38,144666,144682,2023-10-19T12:33:03Z,144769.2,NULL,NA,NA,NA,NA,NA,NA,NA,NA,NA,NA,NA,NA,NA,NA,NA,NA,NA,NA,NA,NA,NA,NA,NA,NA,NA,NA,NA,NA,NA
ba76c,Deep Question,html.Page,3_0_0_0_0_0_0,NA,NA,form submission,6734.8,144769,144768.86,144769.2,151504,151504,2023-10-19T12:33:10Z,151511.66,NULL,Auftrag,uagizaji,d,NA,NA,NA,a,NA,NA,0,NA,NA,NA,NA,NA,NA,NA,NA,NA,NA,NA,NA,NA,NA,NA,NA,NA,NA,NA
ba76c,"""Richtig""-Screen",canvas.Screen,3_0_0_0_0_0_1,NA,NA,skipped,NA,151507,NA,NA,151504,151507,2023-10-19T12:33:10Z,151511.66,NULL,Auftrag,uagizaji,d,NA,NA,NA,NA,sdf,NA,0,NA,NA,NA,NA,NA,NA,NA,NA,NA,NA,NA,NA,NA,NA,NA,NA,NA,NA,NA
ba76c,"""Falsch""-Screen",canvas.Screen,3_0_0_0_0_0_2,NA,NA,timeout,4999.4,151510,151502.48,151511.66,156494.36,156495,2023-10-19T12:33:15Z,156511.06,NULL,Auftrag,uagizaji,d,NA,NA,NA,NA,sdf,0,0,NA,NA,NA,NA,NA,NA,NA,NA,NA,NA,NA,NA,NA,NA,NA,NA,NA,NA,NA
ba76c,deep,flow.Sequence,3_0_0_0_0_0,NA,NA,completion,11725.16,144769,144768.86,144769.2,156494.36,156495,2023-10-19T12:33:15Z,156511.06,NULL,Auftrag,uagizaji,d,NA,NA,NA,NA,sdf,NA,0,NA,NA,NA,NA,NA,NA,NA,NA,NA,NA,NA,NA,NA,NA,NA,NA,NA,NA,NA
ba76c,shallow,flow.Sequence,3_0_0_0_0_1,NA,NA,skipped,NA,156495,NA,NA,156494.36,156496,2023-10-19T12:33:15Z,156511.06,NULL,Auftrag,uagizaji,d,NA,NA,NA,NA,sdf,NA,0,NA,NA,NA,NA,NA,NA,NA,NA,NA,NA,NA,NA,NA,NA,NA,NA,NA,NA,NA
ba76c,task,flow.Sequence,3_0_0_0_0,NA,NA,completion,11725.16,144768,144768.86,144769.2,156494.36,156496,2023-10-19T12:33:15Z,156511.06,NULL,Auftrag,uagizaji,d,NA,NA,NA,NA,sdf,NA,0,NA,NA,NA,NA,NA,NA,NA,NA,NA,NA,NA,NA,NA,NA,NA,NA,NA,NA,NA
ba76c,Deep Question,html.Page,3_0_0_0_1_0_0,NA,NA,form submission,41302.94,156496,156494.36,156511.06,197814,197814,2023-10-19T12:33:56Z,197822.34,NULL,Sänger,mwimbaji,d,NA,NA,NA,uagisaji,NA,NA,0,NA,NA,NA,NA,NA,NA,NA,NA,NA,NA,NA,NA,NA,NA,NA,NA,NA,NA,NA
ba76c,"""Richtig""-Screen",canvas.Screen,3_0_0_0_1_0_1,NA,NA,skipped,NA,197818,NA,NA,197814,197818,2023-10-19T12:33:56Z,197822.34,NULL,Sänger,mwimbaji,d,NA,NA,NA,NA,sdf,NA,0,NA,NA,NA,NA,NA,NA,NA,NA,NA,NA,NA,NA,NA,NA,NA,NA,NA,NA,NA
ba76c,"""Falsch""-Screen",canvas.Screen,3_0_0_0_1_0_2,NA,NA,timeout,4999.48,197819,197813.34,197822.34,202805.12,202806,2023-10-19T12:34:01Z,202821.82,NULL,Sänger,mwimbaji,d,NA,NA,NA,NA,sdf,0,0,NA,NA,NA,NA,NA,NA,NA,NA,NA,NA,NA,NA,NA,NA,NA,NA,NA,NA,NA
ba76c,deep,flow.Sequence,3_0_0_0_1_0,NA,NA,completion,46294.06,156496,156494.36,156511.06,202805.12,202807,2023-10-19T12:34:01Z,202821.82,NULL,Sänger,mwimbaji,d,NA,NA,NA,NA,sdf,NA,0,NA,NA,NA,NA,NA,NA,NA,NA,NA,NA,NA,NA,NA,NA,NA,NA,NA,NA,NA
ba76c,shallow,flow.Sequence,3_0_0_0_1_1,NA,NA,skipped,NA,202807,NA,NA,202805.12,202807,2023-10-19T12:34:01Z,202821.82,NULL,Sänger,mwimbaji,d,NA,NA,NA,NA,sdf,NA,0,NA,NA,NA,NA,NA,NA,NA,NA,NA,NA,NA,NA,NA,NA,NA,NA,NA,NA,NA
ba76c,task,flow.Sequence,3_0_0_0_1,NA,NA,completion,46294.06,156496,156494.36,156511.06,202805.12,202808,2023-10-19T12:34:01Z,202821.82,NULL,Sänger,mwimbaji,d,NA,NA,NA,NA,sdf,NA,0,NA,NA,NA,NA,NA,NA,NA,NA,NA,NA,NA,NA,NA,NA,NA,NA,NA,NA,NA
ba76c,deep,flow.Sequence,3_0_0_0_2_0,NA,NA,skipped,NA,202808,NA,NA,202805.12,202808,2023-10-19T12:34:01Z,202821.82,NULL,Schönheit,kirembo,s,mahojiano,msisimko,jitihadi,NA,sdf,NA,0,NA,NA,NA,NA,NA,NA,NA,NA,NA,NA,NA,NA,NA,NA,NA,NA,NA,NA,NA
ba76c,Shallow Question,html.Page,3_0_0_0_2_1_0,NA,NA,form submission,23301.18,202809,202805.12,202821.82,226123,226123,2023-10-19T12:34:24Z,226122.16,NULL,Schönheit,kirembo,s,mahojiano,msisimko,jitihadi,kirembo,NA,NA,0,NA,NA,NA,NA,NA,NA,NA,NA,NA,NA,NA,NA,NA,NA,NA,NA,NA,NA,NA
ba76c,"""Richtig""-Screen",canvas.Screen,3_0_0_0_2_1_1,NA,NA,timeout,4996.02,226124,226121.76,226122.16,231101.86,231106,2023-10-19T12:34:29Z,231118.18,NULL,Schönheit,kirembo,s,mahojiano,msisimko,jitihadi,NA,sdf,1,0,NA,NA,NA,NA,NA,NA,NA,NA,NA,NA,NA,NA,NA,NA,NA,NA,NA,NA,NA
ba76c,"""Falsch""-Screen",canvas.Screen,3_0_0_0_2_1_2,NA,NA,skipped,NA,231120,NA,NA,231101.86,231120,2023-10-19T12:34:29Z,231118.18,NULL,Schönheit,kirembo,s,mahojiano,msisimko,jitihadi,NA,sdf,NA,0,NA,NA,NA,NA,NA,NA,NA,NA,NA,NA,NA,NA,NA,NA,NA,NA,NA,NA,NA
ba76c,shallow,flow.Sequence,3_0_0_0_2_1,NA,NA,completion,28280.04,202809,202805.12,202821.82,231101.86,231121,2023-10-19T12:34:29Z,231118.18,NULL,Schönheit,kirembo,s,mahojiano,msisimko,jitihadi,NA,sdf,NA,0,NA,NA,NA,NA,NA,NA,NA,NA,NA,NA,NA,NA,NA,NA,NA,NA,NA,NA,NA
ba76c,task,flow.Sequence,3_0_0_0_2,NA,NA,completion,28280.04,202808,202805.12,202821.82,231101.86,231121,2023-10-19T12:34:29Z,231118.18,NULL,Schönheit,kirembo,s,mahojiano,msisimko,jitihadi,NA,sdf,NA,0,NA,NA,NA,NA,NA,NA,NA,NA,NA,NA,NA,NA,NA,NA,NA,NA,NA,NA,NA
ba76c,Deep Question,html.Page,3_0_0_0_3_0_0,NA,NA,form submission,40513.82,231122,231101.86,231118.18,271632,271633,2023-10-19T12:35:10Z,271646.24,NULL,Angreifer,mshambulizi,d,NA,NA,NA,"mwimbaji, uagisaji, kirembo",NA,NA,0,NA,NA,NA,NA,NA,NA,NA,NA,NA,NA,NA,NA,NA,NA,NA,NA,NA,NA,NA
ba76c,"""Richtig""-Screen",canvas.Screen,3_0_0_0_3_0_1,NA,NA,skipped,NA,271637,NA,NA,271632,271638,2023-10-19T12:35:10Z,271646.24,NULL,Angreifer,mshambulizi,d,NA,NA,NA,NA,sdf,NA,0,NA,NA,NA,NA,NA,NA,NA,NA,NA,NA,NA,NA,NA,NA,NA,NA,NA,NA,NA
ba76c,"""Falsch""-Screen",canvas.Screen,3_0_0_0_3_0_2,NA,NA,timeout,4999.56,271644,271624.14,271646.24,276629.3,276631,2023-10-19T12:35:15Z,276645.8,NULL,Angreifer,mshambulizi,d,NA,NA,NA,NA,sdf,0,0,NA,NA,NA,NA,NA,NA,NA,NA,NA,NA,NA,NA,NA,NA,NA,NA,NA,NA,NA
ba76c,deep,flow.Sequence,3_0_0_0_3_0,NA,NA,completion,45511.12,231121,231101.86,231118.18,276629.3,276632,2023-10-19T12:35:15Z,276645.8,NULL,Angreifer,mshambulizi,d,NA,NA,NA,NA,sdf,NA,0,NA,NA,NA,NA,NA,NA,NA,NA,NA,NA,NA,NA,NA,NA,NA,NA,NA,NA,NA
ba76c,shallow,flow.Sequence,3_0_0_0_3_1,NA,NA,skipped,NA,276632,NA,NA,276629.3,276632,2023-10-19T12:35:15Z,276645.8,NULL,Angreifer,mshambulizi,d,NA,NA,NA,NA,sdf,NA,0,NA,NA,NA,NA,NA,NA,NA,NA,NA,NA,NA,NA,NA,NA,NA,NA,NA,NA,NA
ba76c,task,flow.Sequence,3_0_0_0_3,NA,NA,completion,45511.12,231121,231101.86,231118.18,276629.3,276633,2023-10-19T12:35:15Z,276645.8,NULL,Angreifer,mshambulizi,d,NA,NA,NA,NA,sdf,NA,0,NA,NA,NA,NA,NA,NA,NA,NA,NA,NA,NA,NA,NA,NA,NA,NA,NA,NA,NA
ba76c,deep,flow.Sequence,3_0_0_0_4_0,NA,NA,skipped,NA,276633,NA,NA,276629.3,276634,2023-10-19T12:35:15Z,276645.8,NULL,Kanzler,diwani,s,rasilmali,mahitaji,maabudu,NA,sdf,NA,0,NA,NA,NA,NA,NA,NA,NA,NA,NA,NA,NA,NA,NA,NA,NA,NA,NA,NA,NA
ba76c,Shallow Question,html.Page,3_0_0_0_4_1_0,NA,NA,form submission,19116.2,276636,276629.3,276645.8,295762,295765,2023-10-19T12:35:34Z,295776.56,NULL,Kanzler,diwani,s,rasilmali,mahitaji,maabudu,rasilmali,NA,NA,0,NA,NA,NA,NA,NA,NA,NA,NA,NA,NA,NA,NA,NA,NA,NA,NA,NA,NA,NA
ba76c,"""Richtig""-Screen",canvas.Screen,3_0_0_0_4_1_1,NA,NA,skipped,NA,295774,NA,NA,295762,295774,2023-10-19T12:35:34Z,295776.56,NULL,Kanzler,diwani,s,rasilmali,mahitaji,maabudu,NA,sdf,NA,0,NA,NA,NA,NA,NA,NA,NA,NA,NA,NA,NA,NA,NA,NA,NA,NA,NA,NA,NA
ba76c,"""Falsch""-Screen",canvas.Screen,3_0_0_0_4_1_2,NA,NA,timeout,4999.36,295778,295752.58,295776.56,300759.32,300761,2023-10-19T12:35:39Z,300775.92,NULL,Kanzler,diwani,s,rasilmali,mahitaji,maabudu,NA,sdf,0,0,NA,NA,NA,NA,NA,NA,NA,NA,NA,NA,NA,NA,NA,NA,NA,NA,NA,NA,NA
ba76c,shallow,flow.Sequence,3_0_0_0_4_1,NA,NA,completion,24113.52,276635,276629.3,276645.8,300759.32,300762,2023-10-19T12:35:39Z,300775.92,NULL,Kanzler,diwani,s,rasilmali,mahitaji,maabudu,NA,sdf,NA,0,NA,NA,NA,NA,NA,NA,NA,NA,NA,NA,NA,NA,NA,NA,NA,NA,NA,NA,NA
ba76c,task,flow.Sequence,3_0_0_0_4,NA,NA,completion,24113.52,276633,276629.3,276645.8,300759.32,300762,2023-10-19T12:35:39Z,300775.92,NULL,Kanzler,diwani,s,rasilmali,mahitaji,maabudu,NA,sdf,NA,0,NA,NA,NA,NA,NA,NA,NA,NA,NA,NA,NA,NA,NA,NA,NA,NA,NA,NA,NA
ba76c,Deep Question,html.Page,3_0_0_0_5_0_0,NA,NA,form submission,36665.08,300763,300759.32,300775.92,337441,337441,2023-10-19T12:36:16Z,337440.6,NULL,Wettbewerb,ushindani,d,NA,NA,NA,"mshambulizi, uagizaji, msimbaji,",NA,NA,0,NA,NA,NA,NA,NA,NA,NA,NA,NA,NA,NA,NA,NA,NA,NA,NA,NA,NA,NA
ba76c,"""Richtig""-Screen",canvas.Screen,3_0_0_0_5_0_1,NA,NA,skipped,NA,337443,NA,NA,337441,337443,2023-10-19T12:36:16Z,337440.6,NULL,Wettbewerb,ushindani,d,NA,NA,NA,NA,sdf,NA,0,NA,NA,NA,NA,NA,NA,NA,NA,NA,NA,NA,NA,NA,NA,NA,NA,NA,NA,NA
ba76c,"""Falsch""-Screen",canvas.Screen,3_0_0_0_5_0_2,NA,NA,timeout,4996.62,337445,337440.46,337440.6,342421.04,342422,2023-10-19T12:36:20Z,342437.22,NULL,Wettbewerb,ushindani,d,NA,NA,NA,NA,sdf,0,0,NA,NA,NA,NA,NA,NA,NA,NA,NA,NA,NA,NA,NA,NA,NA,NA,NA,NA,NA
ba76c,deep,flow.Sequence,3_0_0_0_5_0,NA,NA,completion,41645.12,300763,300759.32,300775.92,342421.04,342423,2023-10-19T12:36:20Z,342437.22,NULL,Wettbewerb,ushindani,d,NA,NA,NA,NA,sdf,NA,0,NA,NA,NA,NA,NA,NA,NA,NA,NA,NA,NA,NA,NA,NA,NA,NA,NA,NA,NA
ba76c,shallow,flow.Sequence,3_0_0_0_5_1,NA,NA,skipped,NA,342423,NA,NA,342421.04,342424,2023-10-19T12:36:20Z,342437.22,NULL,Wettbewerb,ushindani,d,NA,NA,NA,NA,sdf,NA,0,NA,NA,NA,NA,NA,NA,NA,NA,NA,NA,NA,NA,NA,NA,NA,NA,NA,NA,NA
ba76c,task,flow.Sequence,3_0_0_0_5,NA,NA,completion,41645.12,300763,300759.32,300775.92,342421.04,342425,2023-10-19T12:36:20Z,342437.22,NULL,Wettbewerb,ushindani,d,NA,NA,NA,NA,sdf,NA,0,NA,NA,NA,NA,NA,NA,NA,NA,NA,NA,NA,NA,NA,NA,NA,NA,NA,NA,NA
ba76c,deep,flow.Sequence,3_0_0_0_6_0,NA,NA,skipped,NA,342425,NA,NA,342421.04,342425,2023-10-19T12:36:20Z,342437.22,NULL,Zufall,kikuti,s,kukosekana,uchoraji,leseni,NA,sdf,NA,0,NA,NA,NA,NA,NA,NA,NA,NA,NA,NA,NA,NA,NA,NA,NA,NA,NA,NA,NA
ba76c,Shallow Question,html.Page,3_0_0_0_6_1_0,NA,NA,form submission,7756.78,342426,342421.04,342437.22,350194,350195,2023-10-19T12:36:28Z,350193.88,NULL,Zufall,kikuti,s,kukosekana,uchoraji,leseni,kikuti,NA,NA,0,NA,NA,NA,NA,NA,NA,NA,NA,NA,NA,NA,NA,NA,NA,NA,NA,NA,NA,NA
ba76c,"""Richtig""-Screen",canvas.Screen,3_0_0_0_6_1_1,NA,NA,timeout,4991.72,350198,350193.6,350193.88,355169.02,355171,2023-10-19T12:36:33Z,355185.6,NULL,Zufall,kikuti,s,kukosekana,uchoraji,leseni,NA,sdf,1,0,NA,NA,NA,NA,NA,NA,NA,NA,NA,NA,NA,NA,NA,NA,NA,NA,NA,NA,NA
ba76c,"""Falsch""-Screen",canvas.Screen,3_0_0_0_6_1_2,NA,NA,skipped,NA,355178,NA,NA,355169.02,355178,2023-10-19T12:36:33Z,355185.6,NULL,Zufall,kikuti,s,kukosekana,uchoraji,leseni,NA,sdf,NA,0,NA,NA,NA,NA,NA,NA,NA,NA,NA,NA,NA,NA,NA,NA,NA,NA,NA,NA,NA
ba76c,shallow,flow.Sequence,3_0_0_0_6_1,NA,NA,completion,12731.8,342426,342421.04,342437.22,355169.02,355179,2023-10-19T12:36:33Z,355185.6,NULL,Zufall,kikuti,s,kukosekana,uchoraji,leseni,NA,sdf,NA,0,NA,NA,NA,NA,NA,NA,NA,NA,NA,NA,NA,NA,NA,NA,NA,NA,NA,NA,NA
ba76c,task,flow.Sequence,3_0_0_0_6,NA,NA,completion,12731.8,342425,342421.04,342437.22,355169.02,355179,2023-10-19T12:36:33Z,355185.6,NULL,Zufall,kikuti,s,kukosekana,uchoraji,leseni,NA,sdf,NA,0,NA,NA,NA,NA,NA,NA,NA,NA,NA,NA,NA,NA,NA,NA,NA,NA,NA,NA,NA
ba76c,deep,flow.Sequence,3_0_0_0_7_0,NA,NA,skipped,NA,355179,NA,NA,355169.02,355179,2023-10-19T12:36:33Z,355185.6,NULL,Abrechnung,uhasibu,s,kusahihisha,mpambano,mashambulizi,NA,sdf,NA,0,NA,NA,NA,NA,NA,NA,NA,NA,NA,NA,NA,NA,NA,NA,NA,NA,NA,NA,NA
ba76c,Shallow Question,html.Page,3_0_0_0_7_1_0,NA,NA,form submission,4730.4,355179,355169.02,355185.6,359916,359916,2023-10-19T12:36:38Z,359918.42,NULL,Abrechnung,uhasibu,s,kusahihisha,mpambano,mashambulizi,mpambano,NA,NA,0,NA,NA,NA,NA,NA,NA,NA,NA,NA,NA,NA,NA,NA,NA,NA,NA,NA,NA,NA
ba76c,"""Richtig""-Screen",canvas.Screen,3_0_0_0_7_1_1,NA,NA,skipped,NA,359919,NA,NA,359916,359920,2023-10-19T12:36:38Z,359918.42,NULL,Abrechnung,uhasibu,s,kusahihisha,mpambano,mashambulizi,NA,sdf,NA,0,NA,NA,NA,NA,NA,NA,NA,NA,NA,NA,NA,NA,NA,NA,NA,NA,NA,NA,NA
ba76c,"""Falsch""-Screen",canvas.Screen,3_0_0_0_7_1_2,NA,NA,timeout,4999.6,359923,359914.44,359918.42,364901.08,364902,2023-10-19T12:36:43Z,364918.02,NULL,Abrechnung,uhasibu,s,kusahihisha,mpambano,mashambulizi,NA,sdf,0,0,NA,NA,NA,NA,NA,NA,NA,NA,NA,NA,NA,NA,NA,NA,NA,NA,NA,NA,NA
ba76c,shallow,flow.Sequence,3_0_0_0_7_1,NA,NA,completion,9715.48,355179,355169.02,355185.6,364901.08,364903,2023-10-19T12:36:43Z,364918.02,NULL,Abrechnung,uhasibu,s,kusahihisha,mpambano,mashambulizi,NA,sdf,NA,0,NA,NA,NA,NA,NA,NA,NA,NA,NA,NA,NA,NA,NA,NA,NA,NA,NA,NA,NA
ba76c,task,flow.Sequence,3_0_0_0_7,NA,NA,completion,9715.48,355179,355169.02,355185.6,364901.08,364903,2023-10-19T12:36:43Z,364918.02,NULL,Abrechnung,uhasibu,s,kusahihisha,mpambano,mashambulizi,NA,sdf,NA,0,NA,NA,NA,NA,NA,NA,NA,NA,NA,NA,NA,NA,NA,NA,NA,NA,NA,NA,NA
ba76c,block,flow.Loop,3_0_0_0,NA,NA,completion,220131.88,144768,144768.86,144769.2,364901.08,364903,2023-10-19T12:36:43Z,364918.02,NULL,NA,NA,NA,NA,NA,NA,NA,sdf,NA,0,NA,NA,NA,NA,NA,NA,NA,NA,NA,NA,NA,NA,NA,NA,NA,NA,NA,NA,NA
ba76c,weiter,canvas.Screen,3_0_0_1,sdf,keypress(Space),response,1746.98,364904,364901.08,364918.02,366665,366673,2023-10-19T12:36:45Z,366730.18,NULL,NA,NA,NA,NA,NA,NA,NA,sdf,NA,0,NA,NA,NA,NA,NA,NA,NA,NA,NA,NA,NA,NA,NA,NA,NA,NA,NA,NA,NA
ba76c,check continue,flow.Sequence,3_0_0,NA,NA,completion,221895.8,144768,144768.86,144769.2,366665,366673,2023-10-19T12:36:45Z,366730.18,NULL,NA,NA,NA,NA,NA,NA,NA,sdf,NA,0,NA,NA,NA,NA,NA,NA,NA,NA,NA,NA,NA,NA,NA,NA,NA,NA,NA,NA,NA
ba76c,deep,flow.Sequence,3_0_1_0_0_0,NA,NA,skipped,NA,366729,NA,NA,366665,366729,2023-10-19T12:36:45Z,366730.18,NULL,Schönheit,kirembo,s,mahojiano,msisimko,jitihadi,NA,sdfdsf,NA,1,NA,NA,NA,NA,NA,NA,NA,NA,NA,NA,NA,NA,NA,NA,NA,NA,NA,NA,NA
ba76c,Shallow Question,html.Page,3_0_1_0_0_1_0,NA,NA,form submission,4907.82,366729,366729.1,366730.18,371638,371639,2023-10-19T12:36:50Z,371637.56,NULL,Schönheit,kirembo,s,mahojiano,msisimko,jitihadi,kirembo,NA,NA,1,NA,NA,NA,NA,NA,NA,NA,NA,NA,NA,NA,NA,NA,NA,NA,NA,NA,NA,NA
ba76c,"""Richtig""-Screen",canvas.Screen,3_0_1_0_0_1_1,NA,NA,timeout,4995.26,371641,371637.26,371637.56,376616.28,376617,2023-10-19T12:36:55Z,376632.82,NULL,Schönheit,kirembo,s,mahojiano,msisimko,jitihadi,NA,sdfdsf,1,1,NA,NA,NA,NA,NA,NA,NA,NA,NA,NA,NA,NA,NA,NA,NA,NA,NA,NA,NA
ba76c,"""Falsch""-Screen",canvas.Screen,3_0_1_0_0_1_2,NA,NA,skipped,NA,376619,NA,NA,376616.28,376620,2023-10-19T12:36:55Z,376632.82,NULL,Schönheit,kirembo,s,mahojiano,msisimko,jitihadi,NA,sdfdsf,NA,1,NA,NA,NA,NA,NA,NA,NA,NA,NA,NA,NA,NA,NA,NA,NA,NA,NA,NA,NA
ba76c,shallow,flow.Sequence,3_0_1_0_0_1,NA,NA,completion,9886.1,366729,366729.1,366730.18,376616.28,376620,2023-10-19T12:36:55Z,376632.82,NULL,Schönheit,kirembo,s,mahojiano,msisimko,jitihadi,NA,sdfdsf,NA,1,NA,NA,NA,NA,NA,NA,NA,NA,NA,NA,NA,NA,NA,NA,NA,NA,NA,NA,NA
ba76c,task,flow.Sequence,3_0_1_0_0,NA,NA,completion,9886.1,366729,366729.1,366730.18,376616.28,376620,2023-10-19T12:36:55Z,376632.82,NULL,Schönheit,kirembo,s,mahojiano,msisimko,jitihadi,NA,sdfdsf,NA,1,NA,NA,NA,NA,NA,NA,NA,NA,NA,NA,NA,NA,NA,NA,NA,NA,NA,NA,NA
ba76c,deep,flow.Sequence,3_0_1_0_1_0,NA,NA,skipped,NA,376620,NA,NA,376616.28,376620,2023-10-19T12:36:55Z,376632.82,NULL,Abrechnung,uhasibu,s,kusahihisha,mpambano,mashambulizi,NA,sdfdsf,NA,1,NA,NA,NA,NA,NA,NA,NA,NA,NA,NA,NA,NA,NA,NA,NA,NA,NA,NA,NA
ba76c,Shallow Question,html.Page,3_0_1_0_1_1_0,NA,NA,form submission,10367.18,376620,376616.28,376632.82,387000,387000,2023-10-19T12:37:05Z,386998.98,NULL,Abrechnung,uhasibu,s,kusahihisha,mpambano,mashambulizi,uhasibu,NA,NA,1,NA,NA,NA,NA,NA,NA,NA,NA,NA,NA,NA,NA,NA,NA,NA,NA,NA,NA,NA
ba76c,"""Richtig""-Screen",canvas.Screen,3_0_1_0_1_1_1,NA,NA,timeout,4998.58,387003,386998.6,386998.98,391981.28,391982,2023-10-19T12:37:10Z,391997.56,NULL,Abrechnung,uhasibu,s,kusahihisha,mpambano,mashambulizi,NA,sdfdsf,1,1,NA,NA,NA,NA,NA,NA,NA,NA,NA,NA,NA,NA,NA,NA,NA,NA,NA,NA,NA
ba76c,"""Falsch""-Screen",canvas.Screen,3_0_1_0_1_1_2,NA,NA,skipped,NA,391988,NA,NA,391981.28,391988,2023-10-19T12:37:10Z,391997.56,NULL,Abrechnung,uhasibu,s,kusahihisha,mpambano,mashambulizi,NA,sdfdsf,NA,1,NA,NA,NA,NA,NA,NA,NA,NA,NA,NA,NA,NA,NA,NA,NA,NA,NA,NA,NA
ba76c,shallow,flow.Sequence,3_0_1_0_1_1,NA,NA,completion,15348.46,376620,376616.28,376632.82,391981.28,391989,2023-10-19T12:37:10Z,391997.56,NULL,Abrechnung,uhasibu,s,kusahihisha,mpambano,mashambulizi,NA,sdfdsf,NA,1,NA,NA,NA,NA,NA,NA,NA,NA,NA,NA,NA,NA,NA,NA,NA,NA,NA,NA,NA
ba76c,task,flow.Sequence,3_0_1_0_1,NA,NA,completion,15348.46,376620,376616.28,376632.82,391981.28,391989,2023-10-19T12:37:10Z,391997.56,NULL,Abrechnung,uhasibu,s,kusahihisha,mpambano,mashambulizi,NA,sdfdsf,NA,1,NA,NA,NA,NA,NA,NA,NA,NA,NA,NA,NA,NA,NA,NA,NA,NA,NA,NA,NA
ba76c,deep,flow.Sequence,3_0_1_0_2_0,NA,NA,skipped,NA,391990,NA,NA,391981.28,391990,2023-10-19T12:37:10Z,391997.56,NULL,Zufall,kikuti,s,kukosekana,uchoraji,leseni,NA,sdfdsf,NA,1,NA,NA,NA,NA,NA,NA,NA,NA,NA,NA,NA,NA,NA,NA,NA,NA,NA,NA,NA
ba76c,Shallow Question,html.Page,3_0_1_0_2_1_0,NA,NA,form submission,4136.44,391990,391981.28,391997.56,396134,396134,2023-10-19T12:37:14Z,396133.18,NULL,Zufall,kikuti,s,kukosekana,uchoraji,leseni,kikuti,NA,NA,1,NA,NA,NA,NA,NA,NA,NA,NA,NA,NA,NA,NA,NA,NA,NA,NA,NA,NA,NA
ba76c,"""Richtig""-Screen",canvas.Screen,3_0_1_0_2_1_1,NA,NA,timeout,4996.54,396137,396132.76,396133.18,401113.6,401115,2023-10-19T12:37:19Z,401129.72,NULL,Zufall,kikuti,s,kukosekana,uchoraji,leseni,NA,sdfdsf,1,1,NA,NA,NA,NA,NA,NA,NA,NA,NA,NA,NA,NA,NA,NA,NA,NA,NA,NA,NA
ba76c,"""Falsch""-Screen",canvas.Screen,3_0_1_0_2_1_2,NA,NA,skipped,NA,401124,NA,NA,401113.6,401124,2023-10-19T12:37:19Z,401129.72,NULL,Zufall,kikuti,s,kukosekana,uchoraji,leseni,NA,sdfdsf,NA,1,NA,NA,NA,NA,NA,NA,NA,NA,NA,NA,NA,NA,NA,NA,NA,NA,NA,NA,NA
ba76c,shallow,flow.Sequence,3_0_1_0_2_1,NA,NA,completion,9116.04,391990,391981.28,391997.56,401113.6,401125,2023-10-19T12:37:19Z,401129.72,NULL,Zufall,kikuti,s,kukosekana,uchoraji,leseni,NA,sdfdsf,NA,1,NA,NA,NA,NA,NA,NA,NA,NA,NA,NA,NA,NA,NA,NA,NA,NA,NA,NA,NA
ba76c,task,flow.Sequence,3_0_1_0_2,NA,NA,completion,9116.04,391990,391981.28,391997.56,401113.6,401125,2023-10-19T12:37:19Z,401129.72,NULL,Zufall,kikuti,s,kukosekana,uchoraji,leseni,NA,sdfdsf,NA,1,NA,NA,NA,NA,NA,NA,NA,NA,NA,NA,NA,NA,NA,NA,NA,NA,NA,NA,NA
ba76c,Deep Question,html.Page,3_0_1_0_3_0_0,NA,NA,form submission,7548.28,401126,401113.6,401129.72,408678,408678,2023-10-19T12:37:27Z,408678.78,NULL,Wettbewerb,ushindani,d,NA,NA,NA,ushindani,NA,NA,1,NA,NA,NA,NA,NA,NA,NA,NA,NA,NA,NA,NA,NA,NA,NA,NA,NA,NA,NA
ba76c,"""Richtig""-Screen",canvas.Screen,3_0_1_0_3_0_1,NA,NA,timeout,4999.3799999999,408680,408676.32,408678.78,413661.84,413667,2023-10-19T12:37:32Z,413678.16,NULL,Wettbewerb,ushindani,d,NA,NA,NA,NA,sdfdsf,1,1,NA,NA,NA,NA,NA,NA,NA,NA,NA,NA,NA,NA,NA,NA,NA,NA,NA,NA,NA
ba76c,"""Falsch""-Screen",canvas.Screen,3_0_1_0_3_0_2,NA,NA,skipped,NA,413681,NA,NA,413661.84,413681,2023-10-19T12:37:32Z,413678.16,NULL,Wettbewerb,ushindani,d,NA,NA,NA,NA,sdfdsf,NA,1,NA,NA,NA,NA,NA,NA,NA,NA,NA,NA,NA,NA,NA,NA,NA,NA,NA,NA,NA
ba76c,deep,flow.Sequence,3_0_1_0_3_0,NA,NA,completion,12532.12,401126,401113.6,401129.72,413661.84,413682,2023-10-19T12:37:32Z,413678.16,NULL,Wettbewerb,ushindani,d,NA,NA,NA,NA,sdfdsf,NA,1,NA,NA,NA,NA,NA,NA,NA,NA,NA,NA,NA,NA,NA,NA,NA,NA,NA,NA,NA
ba76c,shallow,flow.Sequence,3_0_1_0_3_1,NA,NA,skipped,NA,413682,NA,NA,413661.84,413682,2023-10-19T12:37:32Z,413678.16,NULL,Wettbewerb,ushindani,d,NA,NA,NA,NA,sdfdsf,NA,1,NA,NA,NA,NA,NA,NA,NA,NA,NA,NA,NA,NA,NA,NA,NA,NA,NA,NA,NA
ba76c,task,flow.Sequence,3_0_1_0_3,NA,NA,completion,12532.12,401125,401113.6,401129.72,413661.84,413683,2023-10-19T12:37:32Z,413678.16,NULL,Wettbewerb,ushindani,d,NA,NA,NA,NA,sdfdsf,NA,1,NA,NA,NA,NA,NA,NA,NA,NA,NA,NA,NA,NA,NA,NA,NA,NA,NA,NA,NA
ba76c,Deep Question,html.Page,3_0_1_0_4_0_0,NA,NA,form submission,15557.84,413683,413661.84,413678.16,429236,429236,2023-10-19T12:37:47Z,429235.74,NULL,Angreifer,mshambulizi,d,NA,NA,NA,mshambulizi,NA,NA,1,NA,NA,NA,NA,NA,NA,NA,NA,NA,NA,NA,NA,NA,NA,NA,NA,NA,NA,NA
ba76c,"""Richtig""-Screen",canvas.Screen,3_0_1_0_4_0_1,NA,NA,timeout,5006.38,429239,429235.6,429235.74,434225.6,434227,2023-10-19T12:37:52Z,434242.12,NULL,Angreifer,mshambulizi,d,NA,NA,NA,NA,sdfdsf,1,1,NA,NA,NA,NA,NA,NA,NA,NA,NA,NA,NA,NA,NA,NA,NA,NA,NA,NA,NA
ba76c,"""Falsch""-Screen",canvas.Screen,3_0_1_0_4_0_2,NA,NA,skipped,NA,434232,NA,NA,434225.6,434234,2023-10-19T12:37:52Z,434242.12,NULL,Angreifer,mshambulizi,d,NA,NA,NA,NA,sdfdsf,NA,1,NA,NA,NA,NA,NA,NA,NA,NA,NA,NA,NA,NA,NA,NA,NA,NA,NA,NA,NA
ba76c,deep,flow.Sequence,3_0_1_0_4_0,NA,NA,completion,20547.44,413683,413661.84,413678.16,434225.6,434234,2023-10-19T12:37:52Z,434242.12,NULL,Angreifer,mshambulizi,d,NA,NA,NA,NA,sdfdsf,NA,1,NA,NA,NA,NA,NA,NA,NA,NA,NA,NA,NA,NA,NA,NA,NA,NA,NA,NA,NA
ba76c,shallow,flow.Sequence,3_0_1_0_4_1,NA,NA,skipped,NA,434235,NA,NA,434225.6,434235,2023-10-19T12:37:52Z,434242.12,NULL,Angreifer,mshambulizi,d,NA,NA,NA,NA,sdfdsf,NA,1,NA,NA,NA,NA,NA,NA,NA,NA,NA,NA,NA,NA,NA,NA,NA,NA,NA,NA,NA
ba76c,task,flow.Sequence,3_0_1_0_4,NA,NA,completion,20547.44,413683,413661.84,413678.16,434225.6,434235,2023-10-19T12:37:52Z,434242.12,NULL,Angreifer,mshambulizi,d,NA,NA,NA,NA,sdfdsf,NA,1,NA,NA,NA,NA,NA,NA,NA,NA,NA,NA,NA,NA,NA,NA,NA,NA,NA,NA,NA
ba76c,Deep Question,html.Page,3_0_1_0_5_0_0,NA,NA,form submission,67264.88,434236,434225.6,434242.12,501507,501507,2023-10-19T12:39:00Z,501505.96,NULL,Auftrag,uagizaji,d,NA,NA,NA,uazaji,NA,NA,1,NA,NA,NA,NA,NA,NA,NA,NA,NA,NA,NA,NA,NA,NA,NA,NA,NA,NA,NA
ba76c,"""Richtig""-Screen",canvas.Screen,3_0_1_0_5_0_1,NA,NA,skipped,NA,501511,NA,NA,501507,501511,2023-10-19T12:39:00Z,501505.96,NULL,Auftrag,uagizaji,d,NA,NA,NA,NA,sdfdsf,NA,1,NA,NA,NA,NA,NA,NA,NA,NA,NA,NA,NA,NA,NA,NA,NA,NA,NA,NA,NA
ba76c,"""Falsch""-Screen",canvas.Screen,3_0_1_0_5_0_2,NA,NA,timeout,4993.62,501512,501505.74,501505.96,506483.1,506485,2023-10-19T12:39:05Z,506499.58,NULL,Auftrag,uagizaji,d,NA,NA,NA,NA,sdfdsf,0,1,NA,NA,NA,NA,NA,NA,NA,NA,NA,NA,NA,NA,NA,NA,NA,NA,NA,NA,NA
ba76c,deep,flow.Sequence,3_0_1_0_5_0,NA,NA,completion,72240.98,434235,434225.6,434242.12,506483.1,506486,2023-10-19T12:39:05Z,506499.58,NULL,Auftrag,uagizaji,d,NA,NA,NA,NA,sdfdsf,NA,1,NA,NA,NA,NA,NA,NA,NA,NA,NA,NA,NA,NA,NA,NA,NA,NA,NA,NA,NA
ba76c,shallow,flow.Sequence,3_0_1_0_5_1,NA,NA,skipped,NA,506486,NA,NA,506483.1,506486,2023-10-19T12:39:05Z,506499.58,NULL,Auftrag,uagizaji,d,NA,NA,NA,NA,sdfdsf,NA,1,NA,NA,NA,NA,NA,NA,NA,NA,NA,NA,NA,NA,NA,NA,NA,NA,NA,NA,NA
ba76c,task,flow.Sequence,3_0_1_0_5,NA,NA,completion,72240.98,434235,434225.6,434242.12,506483.1,506487,2023-10-19T12:39:05Z,506499.58,NULL,Auftrag,uagizaji,d,NA,NA,NA,NA,sdfdsf,NA,1,NA,NA,NA,NA,NA,NA,NA,NA,NA,NA,NA,NA,NA,NA,NA,NA,NA,NA,NA
ba76c,deep,flow.Sequence,3_0_1_0_6_0,NA,NA,skipped,NA,506488,NA,NA,506483.1,506488,2023-10-19T12:39:05Z,506499.58,NULL,Kanzler,diwani,s,rasilmali,mahitaji,maabudu,NA,sdfdsf,NA,1,NA,NA,NA,NA,NA,NA,NA,NA,NA,NA,NA,NA,NA,NA,NA,NA,NA,NA,NA
ba76c,Shallow Question,html.Page,3_0_1_0_6_1_0,NA,NA,form submission,7189.42,506489,506483.1,506499.58,513689,513689,2023-10-19T12:39:12Z,513688.16,NULL,Kanzler,diwani,s,rasilmali,mahitaji,maabudu,diwani,NA,NA,1,NA,NA,NA,NA,NA,NA,NA,NA,NA,NA,NA,NA,NA,NA,NA,NA,NA,NA,NA
ba76c,"""Richtig""-Screen",canvas.Screen,3_0_1_0_6_1_1,NA,NA,timeout,4993.1800000001,513692,513687.86,513688.16,518664.72,518666,2023-10-19T12:39:17Z,518681.34,NULL,Kanzler,diwani,s,rasilmali,mahitaji,maabudu,NA,sdfdsf,1,1,NA,NA,NA,NA,NA,NA,NA,NA,NA,NA,NA,NA,NA,NA,NA,NA,NA,NA,NA
ba76c,"""Falsch""-Screen",canvas.Screen,3_0_1_0_6_1_2,NA,NA,skipped,NA,518669,NA,NA,518664.72,518669,2023-10-19T12:39:17Z,518681.34,NULL,Kanzler,diwani,s,rasilmali,mahitaji,maabudu,NA,sdfdsf,NA,1,NA,NA,NA,NA,NA,NA,NA,NA,NA,NA,NA,NA,NA,NA,NA,NA,NA,NA,NA
ba76c,shallow,flow.Sequence,3_0_1_0_6_1,NA,NA,completion,12165.14,506489,506483.1,506499.58,518664.72,518670,2023-10-19T12:39:17Z,518681.34,NULL,Kanzler,diwani,s,rasilmali,mahitaji,maabudu,NA,sdfdsf,NA,1,NA,NA,NA,NA,NA,NA,NA,NA,NA,NA,NA,NA,NA,NA,NA,NA,NA,NA,NA
ba76c,task,flow.Sequence,3_0_1_0_6,NA,NA,completion,12165.14,506487,506483.1,506499.58,518664.72,518670,2023-10-19T12:39:17Z,518681.34,NULL,Kanzler,diwani,s,rasilmali,mahitaji,maabudu,NA,sdfdsf,NA,1,NA,NA,NA,NA,NA,NA,NA,NA,NA,NA,NA,NA,NA,NA,NA,NA,NA,NA,NA
ba76c,Deep Question,html.Page,3_0_1_0_7_0_0,NA,NA,form submission,17025.66,518670,518664.72,518681.34,535707,535707,2023-10-19T12:39:34Z,535712.52,NULL,Sänger,mwimbaji,d,NA,NA,NA,msimbaji,NA,NA,1,NA,NA,NA,NA,NA,NA,NA,NA,NA,NA,NA,NA,NA,NA,NA,NA,NA,NA,NA
ba76c,"""Richtig""-Screen",canvas.Screen,3_0_1_0_7_0_1,NA,NA,skipped,NA,535709,NA,NA,535707,535710,2023-10-19T12:39:34Z,535712.52,NULL,Sänger,mwimbaji,d,NA,NA,NA,NA,sdfdsf,NA,1,NA,NA,NA,NA,NA,NA,NA,NA,NA,NA,NA,NA,NA,NA,NA,NA,NA,NA,NA
ba76c,"""Falsch""-Screen",canvas.Screen,3_0_1_0_7_0_2,NA,NA,timeout,4999.4,535712,535705.68,535712.52,540695.3,540696,2023-10-19T12:39:39Z,540711.92,NULL,Sänger,mwimbaji,d,NA,NA,NA,NA,sdfdsf,0,1,NA,NA,NA,NA,NA,NA,NA,NA,NA,NA,NA,NA,NA,NA,NA,NA,NA,NA,NA
ba76c,deep,flow.Sequence,3_0_1_0_7_0,NA,NA,completion,22013.96,518670,518664.72,518681.34,540695.3,540697,2023-10-19T12:39:39Z,540711.92,NULL,Sänger,mwimbaji,d,NA,NA,NA,NA,sdfdsf,NA,1,NA,NA,NA,NA,NA,NA,NA,NA,NA,NA,NA,NA,NA,NA,NA,NA,NA,NA,NA
ba76c,shallow,flow.Sequence,3_0_1_0_7_1,NA,NA,skipped,NA,540698,NA,NA,540695.3,540698,2023-10-19T12:39:39Z,540711.92,NULL,Sänger,mwimbaji,d,NA,NA,NA,NA,sdfdsf,NA,1,NA,NA,NA,NA,NA,NA,NA,NA,NA,NA,NA,NA,NA,NA,NA,NA,NA,NA,NA
ba76c,task,flow.Sequence,3_0_1_0_7,NA,NA,completion,22013.96,518670,518664.72,518681.34,540695.3,540698,2023-10-19T12:39:39Z,540711.92,NULL,Sänger,mwimbaji,d,NA,NA,NA,NA,sdfdsf,NA,1,NA,NA,NA,NA,NA,NA,NA,NA,NA,NA,NA,NA,NA,NA,NA,NA,NA,NA,NA
ba76c,block,flow.Loop,3_0_1_0,NA,NA,completion,173965.12,366729,366729.1,366730.18,540695.3,540699,2023-10-19T12:39:39Z,540711.92,NULL,NA,NA,NA,NA,NA,NA,NA,sdfdsf,NA,1,NA,NA,NA,NA,NA,NA,NA,NA,NA,NA,NA,NA,NA,NA,NA,NA,NA,NA,NA
ba76c,weiter,canvas.Screen,3_0_1_1,sdf,keypress(Space),response,969.07999999996,540699,540695.3,540711.92,541681,541699,2023-10-19T12:39:40Z,541748.72,NULL,NA,NA,NA,NA,NA,NA,NA,sdfdsf,NA,1,NA,NA,NA,NA,NA,NA,NA,NA,NA,NA,NA,NA,NA,NA,NA,NA,NA,NA,NA
ba76c,check continue,flow.Sequence,3_0_1,NA,NA,completion,174950.82,366729,366729.1,366730.18,541681,541700,2023-10-19T12:39:40Z,541748.72,NULL,NA,NA,NA,NA,NA,NA,NA,sdfdsf,NA,1,NA,NA,NA,NA,NA,NA,NA,NA,NA,NA,NA,NA,NA,NA,NA,NA,NA,NA,NA
ba76c,Deep Question,html.Page,3_0_2_0_0_0_0,NA,NA,form submission,21593.28,541748,541748.34,541748.72,563342,563342,2023-10-19T12:40:01Z,563342.32,NULL,Auftrag,uagizaji,d,NA,NA,NA,uagizaji,NA,NA,2,NA,NA,NA,NA,NA,NA,NA,NA,NA,NA,NA,NA,NA,NA,NA,NA,NA,NA,NA
ba76c,"""Richtig""-Screen",canvas.Screen,3_0_2_0_0_0_1,NA,NA,timeout,4999.38,563345,563340.38,563342.32,568325.08,568326,2023-10-19T12:40:06Z,568341.7,NULL,Auftrag,uagizaji,d,NA,NA,NA,NA,sdf,1,2,NA,NA,NA,NA,NA,NA,NA,NA,NA,NA,NA,NA,NA,NA,NA,NA,NA,NA,NA
ba76c,"""Falsch""-Screen",canvas.Screen,3_0_2_0_0_0_2,NA,NA,skipped,NA,568330,NA,NA,568325.08,568330,2023-10-19T12:40:06Z,568341.7,NULL,Auftrag,uagizaji,d,NA,NA,NA,NA,sdf,NA,2,NA,NA,NA,NA,NA,NA,NA,NA,NA,NA,NA,NA,NA,NA,NA,NA,NA,NA,NA
ba76c,deep,flow.Sequence,3_0_2_0_0_0,NA,NA,completion,26576.36,541748,541748.34,541748.72,568325.08,568331,2023-10-19T12:40:06Z,568341.7,NULL,Auftrag,uagizaji,d,NA,NA,NA,NA,sdf,NA,2,NA,NA,NA,NA,NA,NA,NA,NA,NA,NA,NA,NA,NA,NA,NA,NA,NA,NA,NA
ba76c,shallow,flow.Sequence,3_0_2_0_0_1,NA,NA,skipped,NA,568331,NA,NA,568325.08,568331,2023-10-19T12:40:06Z,568341.7,NULL,Auftrag,uagizaji,d,NA,NA,NA,NA,sdf,NA,2,NA,NA,NA,NA,NA,NA,NA,NA,NA,NA,NA,NA,NA,NA,NA,NA,NA,NA,NA
ba76c,task,flow.Sequence,3_0_2_0_0,NA,NA,completion,26576.36,541748,541748.34,541748.72,568325.08,568331,2023-10-19T12:40:06Z,568341.7,NULL,Auftrag,uagizaji,d,NA,NA,NA,NA,sdf,NA,2,NA,NA,NA,NA,NA,NA,NA,NA,NA,NA,NA,NA,NA,NA,NA,NA,NA,NA,NA
ba76c,deep,flow.Sequence,3_0_2_0_1_0,NA,NA,skipped,NA,568331,NA,NA,568325.08,568331,2023-10-19T12:40:06Z,568341.7,NULL,Zufall,kikuti,s,kukosekana,uchoraji,leseni,NA,sdf,NA,2,NA,NA,NA,NA,NA,NA,NA,NA,NA,NA,NA,NA,NA,NA,NA,NA,NA,NA,NA
ba76c,Shallow Question,html.Page,3_0_2_0_1_1_0,NA,NA,form submission,4716.3,568331,568325.08,568341.7,573058,573058,2023-10-19T12:40:11Z,573059,NULL,Zufall,kikuti,s,kukosekana,uchoraji,leseni,kikuti,NA,NA,2,NA,NA,NA,NA,NA,NA,NA,NA,NA,NA,NA,NA,NA,NA,NA,NA,NA,NA,NA
ba76c,"""Richtig""-Screen",canvas.Screen,3_0_2_0_1_1_1,NA,NA,timeout,4998.0600000001,573061,573056.54,573059,578040.48,578042,2023-10-19T12:40:16Z,578057.06,NULL,Zufall,kikuti,s,kukosekana,uchoraji,leseni,NA,sdf,1,2,NA,NA,NA,NA,NA,NA,NA,NA,NA,NA,NA,NA,NA,NA,NA,NA,NA,NA,NA
ba76c,"""Falsch""-Screen",canvas.Screen,3_0_2_0_1_1_2,NA,NA,skipped,NA,578046,NA,NA,578040.48,578046,2023-10-19T12:40:16Z,578057.06,NULL,Zufall,kikuti,s,kukosekana,uchoraji,leseni,NA,sdf,NA,2,NA,NA,NA,NA,NA,NA,NA,NA,NA,NA,NA,NA,NA,NA,NA,NA,NA,NA,NA
ba76c,shallow,flow.Sequence,3_0_2_0_1_1,NA,NA,completion,9698.78,568331,568325.08,568341.7,578040.48,578047,2023-10-19T12:40:16Z,578057.06,NULL,Zufall,kikuti,s,kukosekana,uchoraji,leseni,NA,sdf,NA,2,NA,NA,NA,NA,NA,NA,NA,NA,NA,NA,NA,NA,NA,NA,NA,NA,NA,NA,NA
ba76c,task,flow.Sequence,3_0_2_0_1,NA,NA,completion,9698.78,568331,568325.08,568341.7,578040.48,578047,2023-10-19T12:40:16Z,578057.06,NULL,Zufall,kikuti,s,kukosekana,uchoraji,leseni,NA,sdf,NA,2,NA,NA,NA,NA,NA,NA,NA,NA,NA,NA,NA,NA,NA,NA,NA,NA,NA,NA,NA
ba76c,Deep Question,html.Page,3_0_2_0_2_0_0,NA,NA,form submission,18228.94,578047,578040.48,578057.06,596286,596286,2023-10-19T12:40:34Z,596288.14,NULL,Wettbewerb,ushindani,d,NA,NA,NA,ushindani,NA,NA,2,NA,NA,NA,NA,NA,NA,NA,NA,NA,NA,NA,NA,NA,NA,NA,NA,NA,NA,NA
ba76c,"""Richtig""-Screen",canvas.Screen,3_0_2_0_2_0_1,NA,NA,timeout,4999.64,596288,596284.56,596288.14,601271.3,601272,2023-10-19T12:40:39Z,601287.78,NULL,Wettbewerb,ushindani,d,NA,NA,NA,NA,sdf,1,2,NA,NA,NA,NA,NA,NA,NA,NA,NA,NA,NA,NA,NA,NA,NA,NA,NA,NA,NA
ba76c,"""Falsch""-Screen",canvas.Screen,3_0_2_0_2_0_2,NA,NA,skipped,NA,601274,NA,NA,601271.3,601274,2023-10-19T12:40:39Z,601287.78,NULL,Wettbewerb,ushindani,d,NA,NA,NA,NA,sdf,NA,2,NA,NA,NA,NA,NA,NA,NA,NA,NA,NA,NA,NA,NA,NA,NA,NA,NA,NA,NA
ba76c,deep,flow.Sequence,3_0_2_0_2_0,NA,NA,completion,23214.24,578047,578040.48,578057.06,601271.3,601274,2023-10-19T12:40:39Z,601287.78,NULL,Wettbewerb,ushindani,d,NA,NA,NA,NA,sdf,NA,2,NA,NA,NA,NA,NA,NA,NA,NA,NA,NA,NA,NA,NA,NA,NA,NA,NA,NA,NA
ba76c,shallow,flow.Sequence,3_0_2_0_2_1,NA,NA,skipped,NA,601274,NA,NA,601271.3,601274,2023-10-19T12:40:39Z,601287.78,NULL,Wettbewerb,ushindani,d,NA,NA,NA,NA,sdf,NA,2,NA,NA,NA,NA,NA,NA,NA,NA,NA,NA,NA,NA,NA,NA,NA,NA,NA,NA,NA
ba76c,task,flow.Sequence,3_0_2_0_2,NA,NA,completion,23214.24,578047,578040.48,578057.06,601271.3,601274,2023-10-19T12:40:39Z,601287.78,NULL,Wettbewerb,ushindani,d,NA,NA,NA,NA,sdf,NA,2,NA,NA,NA,NA,NA,NA,NA,NA,NA,NA,NA,NA,NA,NA,NA,NA,NA,NA,NA
ba76c,Deep Question,html.Page,3_0_2_0_3_0_0,NA,NA,form submission,7329.22,601274,601271.3,601287.78,608617,608617,2023-10-19T12:40:47Z,608619.84,NULL,Sänger,mwimbaji,d,NA,NA,NA,mwimbaji,NA,NA,2,NA,NA,NA,NA,NA,NA,NA,NA,NA,NA,NA,NA,NA,NA,NA,NA,NA,NA,NA
ba76c,"""Richtig""-Screen",canvas.Screen,3_0_2_0_3_0_1,NA,NA,timeout,4999.36,608619,608615.62,608619.84,613602.6,613603,2023-10-19T12:40:52Z,613619.2,NULL,Sänger,mwimbaji,d,NA,NA,NA,NA,sdf,1,2,NA,NA,NA,NA,NA,NA,NA,NA,NA,NA,NA,NA,NA,NA,NA,NA,NA,NA,NA
ba76c,"""Falsch""-Screen",canvas.Screen,3_0_2_0_3_0_2,NA,NA,skipped,NA,613607,NA,NA,613602.6,613607,2023-10-19T12:40:52Z,613619.2,NULL,Sänger,mwimbaji,d,NA,NA,NA,NA,sdf,NA,2,NA,NA,NA,NA,NA,NA,NA,NA,NA,NA,NA,NA,NA,NA,NA,NA,NA,NA,NA
ba76c,deep,flow.Sequence,3_0_2_0_3_0,NA,NA,completion,12314.82,601274,601271.3,601287.78,613602.6,613607,2023-10-19T12:40:52Z,613619.2,NULL,Sänger,mwimbaji,d,NA,NA,NA,NA,sdf,NA,2,NA,NA,NA,NA,NA,NA,NA,NA,NA,NA,NA,NA,NA,NA,NA,NA,NA,NA,NA
ba76c,shallow,flow.Sequence,3_0_2_0_3_1,NA,NA,skipped,NA,613607,NA,NA,613602.6,613608,2023-10-19T12:40:52Z,613619.2,NULL,Sänger,mwimbaji,d,NA,NA,NA,NA,sdf,NA,2,NA,NA,NA,NA,NA,NA,NA,NA,NA,NA,NA,NA,NA,NA,NA,NA,NA,NA,NA
ba76c,task,flow.Sequence,3_0_2_0_3,NA,NA,completion,12314.82,601274,601271.3,601287.78,613602.6,613608,2023-10-19T12:40:52Z,613619.2,NULL,Sänger,mwimbaji,d,NA,NA,NA,NA,sdf,NA,2,NA,NA,NA,NA,NA,NA,NA,NA,NA,NA,NA,NA,NA,NA,NA,NA,NA,NA,NA
ba76c,deep,flow.Sequence,3_0_2_0_4_0,NA,NA,skipped,NA,613608,NA,NA,613602.6,613608,2023-10-19T12:40:52Z,613619.2,NULL,Kanzler,diwani,s,rasilmali,mahitaji,maabudu,NA,sdf,NA,2,NA,NA,NA,NA,NA,NA,NA,NA,NA,NA,NA,NA,NA,NA,NA,NA,NA,NA,NA
ba76c,Shallow Question,html.Page,3_0_2_0_4_1_0,NA,NA,form submission,3646.8,613608,613602.6,613619.2,617266,617266,2023-10-19T12:40:55Z,617268.74,NULL,Kanzler,diwani,s,rasilmali,mahitaji,maabudu,diwani,NA,NA,2,NA,NA,NA,NA,NA,NA,NA,NA,NA,NA,NA,NA,NA,NA,NA,NA,NA,NA,NA
ba76c,"""Richtig""-Screen",canvas.Screen,3_0_2_0_4_1_1,NA,NA,timeout,4999.42,617269,617265.6,617268.74,622251.94,622257,2023-10-19T12:41:00Z,622268.16,NULL,Kanzler,diwani,s,rasilmali,mahitaji,maabudu,NA,sdf,1,2,NA,NA,NA,NA,NA,NA,NA,NA,NA,NA,NA,NA,NA,NA,NA,NA,NA,NA,NA
ba76c,"""Falsch""-Screen",canvas.Screen,3_0_2_0_4_1_2,NA,NA,skipped,NA,622274,NA,NA,622251.94,622274,2023-10-19T12:41:00Z,622268.16,NULL,Kanzler,diwani,s,rasilmali,mahitaji,maabudu,NA,sdf,NA,2,NA,NA,NA,NA,NA,NA,NA,NA,NA,NA,NA,NA,NA,NA,NA,NA,NA,NA,NA
ba76c,shallow,flow.Sequence,3_0_2_0_4_1,NA,NA,completion,8632.74,613608,613602.6,613619.2,622251.94,622275,2023-10-19T12:41:00Z,622268.16,NULL,Kanzler,diwani,s,rasilmali,mahitaji,maabudu,NA,sdf,NA,2,NA,NA,NA,NA,NA,NA,NA,NA,NA,NA,NA,NA,NA,NA,NA,NA,NA,NA,NA
ba76c,task,flow.Sequence,3_0_2_0_4,NA,NA,completion,8632.74,613608,613602.6,613619.2,622251.94,622275,2023-10-19T12:41:00Z,622268.16,NULL,Kanzler,diwani,s,rasilmali,mahitaji,maabudu,NA,sdf,NA,2,NA,NA,NA,NA,NA,NA,NA,NA,NA,NA,NA,NA,NA,NA,NA,NA,NA,NA,NA
ba76c,deep,flow.Sequence,3_0_2_0_5_0,NA,NA,skipped,NA,622276,NA,NA,622251.94,622276,2023-10-19T12:41:00Z,622268.16,NULL,Abrechnung,uhasibu,s,kusahihisha,mpambano,mashambulizi,NA,sdf,NA,2,NA,NA,NA,NA,NA,NA,NA,NA,NA,NA,NA,NA,NA,NA,NA,NA,NA,NA,NA
ba76c,Shallow Question,html.Page,3_0_2_0_5_1_0,NA,NA,form submission,7513.84,622276,622251.94,622268.16,629782,629782,2023-10-19T12:41:08Z,629783.88,NULL,Abrechnung,uhasibu,s,kusahihisha,mpambano,mashambulizi,uhasibu,NA,NA,2,NA,NA,NA,NA,NA,NA,NA,NA,NA,NA,NA,NA,NA,NA,NA,NA,NA,NA,NA
ba76c,"""Richtig""-Screen",canvas.Screen,3_0_2_0_5_1_1,NA,NA,timeout,4999.38,629785,629780.36,629783.88,634766.58,634768,2023-10-19T12:41:13Z,634783.26,NULL,Abrechnung,uhasibu,s,kusahihisha,mpambano,mashambulizi,NA,sdf,1,2,NA,NA,NA,NA,NA,NA,NA,NA,NA,NA,NA,NA,NA,NA,NA,NA,NA,NA,NA
ba76c,"""Falsch""-Screen",canvas.Screen,3_0_2_0_5_1_2,NA,NA,skipped,NA,634772,NA,NA,634766.58,634772,2023-10-19T12:41:13Z,634783.26,NULL,Abrechnung,uhasibu,s,kusahihisha,mpambano,mashambulizi,NA,sdf,NA,2,NA,NA,NA,NA,NA,NA,NA,NA,NA,NA,NA,NA,NA,NA,NA,NA,NA,NA,NA
ba76c,shallow,flow.Sequence,3_0_2_0_5_1,NA,NA,completion,12498.42,622276,622251.94,622268.16,634766.58,634772,2023-10-19T12:41:13Z,634783.26,NULL,Abrechnung,uhasibu,s,kusahihisha,mpambano,mashambulizi,NA,sdf,NA,2,NA,NA,NA,NA,NA,NA,NA,NA,NA,NA,NA,NA,NA,NA,NA,NA,NA,NA,NA
ba76c,task,flow.Sequence,3_0_2_0_5,NA,NA,completion,12498.42,622276,622251.94,622268.16,634766.58,634772,2023-10-19T12:41:13Z,634783.26,NULL,Abrechnung,uhasibu,s,kusahihisha,mpambano,mashambulizi,NA,sdf,NA,2,NA,NA,NA,NA,NA,NA,NA,NA,NA,NA,NA,NA,NA,NA,NA,NA,NA,NA,NA
ba76c,deep,flow.Sequence,3_0_2_0_6_0,NA,NA,skipped,NA,634773,NA,NA,634766.58,634773,2023-10-19T12:41:13Z,634783.26,NULL,Schönheit,kirembo,s,mahojiano,msisimko,jitihadi,NA,sdf,NA,2,NA,NA,NA,NA,NA,NA,NA,NA,NA,NA,NA,NA,NA,NA,NA,NA,NA,NA,NA
ba76c,Shallow Question,html.Page,3_0_2_0_6_1_0,NA,NA,form submission,6545.74,634773,634766.58,634783.26,641329,641329,2023-10-19T12:41:19Z,641327.72,NULL,Schönheit,kirembo,s,mahojiano,msisimko,jitihadi,kirembo,NA,NA,2,NA,NA,NA,NA,NA,NA,NA,NA,NA,NA,NA,NA,NA,NA,NA,NA,NA,NA,NA
ba76c,"""Richtig""-Screen",canvas.Screen,3_0_2_0_6_1_1,NA,NA,timeout,5004.04,641331,641327.54,641327.72,646315.1,646316,2023-10-19T12:41:24Z,646331.76,NULL,Schönheit,kirembo,s,mahojiano,msisimko,jitihadi,NA,sdf,1,2,NA,NA,NA,NA,NA,NA,NA,NA,NA,NA,NA,NA,NA,NA,NA,NA,NA,NA,NA
ba76c,"""Falsch""-Screen",canvas.Screen,3_0_2_0_6_1_2,NA,NA,skipped,NA,646321,NA,NA,646315.1,646321,2023-10-19T12:41:24Z,646331.76,NULL,Schönheit,kirembo,s,mahojiano,msisimko,jitihadi,NA,sdf,NA,2,NA,NA,NA,NA,NA,NA,NA,NA,NA,NA,NA,NA,NA,NA,NA,NA,NA,NA,NA
ba76c,shallow,flow.Sequence,3_0_2_0_6_1,NA,NA,completion,11531.84,634773,634766.58,634783.26,646315.1,646321,2023-10-19T12:41:24Z,646331.76,NULL,Schönheit,kirembo,s,mahojiano,msisimko,jitihadi,NA,sdf,NA,2,NA,NA,NA,NA,NA,NA,NA,NA,NA,NA,NA,NA,NA,NA,NA,NA,NA,NA,NA
ba76c,task,flow.Sequence,3_0_2_0_6,NA,NA,completion,11531.84,634773,634766.58,634783.26,646315.1,646322,2023-10-19T12:41:24Z,646331.76,NULL,Schönheit,kirembo,s,mahojiano,msisimko,jitihadi,NA,sdf,NA,2,NA,NA,NA,NA,NA,NA,NA,NA,NA,NA,NA,NA,NA,NA,NA,NA,NA,NA,NA
ba76c,Deep Question,html.Page,3_0_2_0_7_0_0,NA,NA,form submission,13500.24,646322,646315.1,646331.76,659832,659832,2023-10-19T12:41:38Z,659846.6,NULL,Angreifer,mshambulizi,d,NA,NA,NA,mshambulizi,NA,NA,2,NA,NA,NA,NA,NA,NA,NA,NA,NA,NA,NA,NA,NA,NA,NA,NA,NA,NA,NA
ba76c,"""Richtig""-Screen",canvas.Screen,3_0_2_0_7_0_1,NA,NA,timeout,4999.4400000001,659835,659831.08,659846.6,664829.72,664831,2023-10-19T12:41:43Z,664846.04,NULL,Angreifer,mshambulizi,d,NA,NA,NA,NA,sdf,1,2,NA,NA,NA,NA,NA,NA,NA,NA,NA,NA,NA,NA,NA,NA,NA,NA,NA,NA,NA
ba76c,"""Falsch""-Screen",canvas.Screen,3_0_2_0_7_0_2,NA,NA,skipped,NA,664839,NA,NA,664829.72,664839,2023-10-19T12:41:43Z,664846.04,NULL,Angreifer,mshambulizi,d,NA,NA,NA,NA,sdf,NA,2,NA,NA,NA,NA,NA,NA,NA,NA,NA,NA,NA,NA,NA,NA,NA,NA,NA,NA,NA
ba76c,deep,flow.Sequence,3_0_2_0_7_0,NA,NA,completion,18497.96,646322,646315.1,646331.76,664829.72,664840,2023-10-19T12:41:43Z,664846.04,NULL,Angreifer,mshambulizi,d,NA,NA,NA,NA,sdf,NA,2,NA,NA,NA,NA,NA,NA,NA,NA,NA,NA,NA,NA,NA,NA,NA,NA,NA,NA,NA
ba76c,shallow,flow.Sequence,3_0_2_0_7_1,NA,NA,skipped,NA,664840,NA,NA,664829.72,664840,2023-10-19T12:41:43Z,664846.04,NULL,Angreifer,mshambulizi,d,NA,NA,NA,NA,sdf,NA,2,NA,NA,NA,NA,NA,NA,NA,NA,NA,NA,NA,NA,NA,NA,NA,NA,NA,NA,NA
ba76c,task,flow.Sequence,3_0_2_0_7,NA,NA,completion,18497.96,646322,646315.1,646331.76,664829.72,664841,2023-10-19T12:41:43Z,664846.04,NULL,Angreifer,mshambulizi,d,NA,NA,NA,NA,sdf,NA,2,NA,NA,NA,NA,NA,NA,NA,NA,NA,NA,NA,NA,NA,NA,NA,NA,NA,NA,NA
ba76c,block,flow.Loop,3_0_2_0,NA,NA,completion,123081,541748,541748.34,541748.72,664829.72,664841,2023-10-19T12:41:43Z,664846.04,NULL,NA,NA,NA,NA,NA,NA,NA,sdf,NA,2,NA,NA,NA,NA,NA,NA,NA,NA,NA,NA,NA,NA,NA,NA,NA,NA,NA,NA,NA
ba76c,weiter,canvas.Screen,3_0_2_1,sdf,keypress(Space),response,1303.96,664841,664829.72,664846.04,666150,666164,2023-10-19T12:41:44Z,666911.92,NULL,NA,NA,NA,NA,NA,NA,NA,sdf,NA,2,NA,NA,NA,NA,NA,NA,NA,NA,NA,NA,NA,NA,NA,NA,NA,NA,NA,NA,NA
ba76c,check continue,flow.Sequence,3_0_2,NA,NA,completion,124401.28,541748,541748.34,541748.72,666150,666165,2023-10-19T12:41:44Z,666911.92,NULL,NA,NA,NA,NA,NA,NA,NA,sdf,NA,2,NA,NA,NA,NA,NA,NA,NA,NA,NA,NA,NA,NA,NA,NA,NA,NA,NA,NA,NA
ba76c,check continue,flow.Sequence,3_0_3,NA,NA,skipped,NA,666219,NA,NA,666150,666219,2023-10-19T12:41:44Z,666911.92,NULL,NA,NA,NA,NA,NA,NA,NA,qt,NA,3,NA,NA,NA,NA,NA,NA,NA,NA,NA,NA,NA,NA,NA,NA,NA,NA,NA,NA,NA
ba76c,check continue,flow.Sequence,3_0_4,NA,NA,skipped,NA,666249,NA,NA,666150,666249,2023-10-19T12:41:44Z,666911.92,NULL,NA,NA,NA,NA,NA,NA,NA,sd,NA,4,NA,NA,NA,NA,NA,NA,NA,NA,NA,NA,NA,NA,NA,NA,NA,NA,NA,NA,NA
ba76c,check continue,flow.Sequence,3_0_5,NA,NA,skipped,NA,666278,NA,NA,666150,666278,2023-10-19T12:41:44Z,666911.92,NULL,NA,NA,NA,NA,NA,NA,NA,sdf,NA,5,NA,NA,NA,NA,NA,NA,NA,NA,NA,NA,NA,NA,NA,NA,NA,NA,NA,NA,NA
ba76c,check continue,flow.Sequence,3_0_6,NA,NA,skipped,NA,666306,NA,NA,666150,666307,2023-10-19T12:41:44Z,666911.92,NULL,NA,NA,NA,NA,NA,NA,NA,dfs,NA,6,NA,NA,NA,NA,NA,NA,NA,NA,NA,NA,NA,NA,NA,NA,NA,NA,NA,NA,NA
ba76c,check continue,flow.Sequence,3_0_7,NA,NA,skipped,NA,666337,NA,NA,666150,666337,2023-10-19T12:41:44Z,666911.92,NULL,NA,NA,NA,NA,NA,NA,NA,df,NA,7,NA,NA,NA,NA,NA,NA,NA,NA,NA,NA,NA,NA,NA,NA,NA,NA,NA,NA,NA
ba76c,check continue,flow.Sequence,3_0_8,NA,NA,skipped,NA,666363,NA,NA,666150,666363,2023-10-19T12:41:44Z,666911.92,NULL,NA,NA,NA,NA,NA,NA,NA,dfs,NA,8,NA,NA,NA,NA,NA,NA,NA,NA,NA,NA,NA,NA,NA,NA,NA,NA,NA,NA,NA
ba76c,check continue,flow.Sequence,3_0_9,NA,NA,skipped,NA,666390,NA,NA,666150,666390,2023-10-19T12:41:44Z,666911.92,NULL,NA,NA,NA,NA,NA,NA,NA,dsf,NA,9,NA,NA,NA,NA,NA,NA,NA,NA,NA,NA,NA,NA,NA,NA,NA,NA,NA,NA,NA
ba76c,check continue,flow.Sequence,3_0_10,NA,NA,skipped,NA,666417,NA,NA,666150,666417,2023-10-19T12:41:44Z,666911.92,NULL,NA,NA,NA,NA,NA,NA,NA,df,NA,10,NA,NA,NA,NA,NA,NA,NA,NA,NA,NA,NA,NA,NA,NA,NA,NA,NA,NA,NA
ba76c,check continue,flow.Sequence,3_0_11,NA,NA,skipped,NA,666446,NA,NA,666150,666446,2023-10-19T12:41:45Z,666911.92,NULL,NA,NA,NA,NA,NA,NA,NA,dfs,NA,11,NA,NA,NA,NA,NA,NA,NA,NA,NA,NA,NA,NA,NA,NA,NA,NA,NA,NA,NA
ba76c,check continue,flow.Sequence,3_0_12,NA,NA,skipped,NA,666473,NA,NA,666150,666473,2023-10-19T12:41:45Z,666911.92,NULL,NA,NA,NA,NA,NA,NA,NA,dsf,NA,12,NA,NA,NA,NA,NA,NA,NA,NA,NA,NA,NA,NA,NA,NA,NA,NA,NA,NA,NA
ba76c,check continue,flow.Sequence,3_0_13,NA,NA,skipped,NA,666497,NA,NA,666150,666497,2023-10-19T12:41:45Z,666911.92,NULL,NA,NA,NA,NA,NA,NA,NA,dsf,NA,13,NA,NA,NA,NA,NA,NA,NA,NA,NA,NA,NA,NA,NA,NA,NA,NA,NA,NA,NA
ba76c,check continue,flow.Sequence,3_0_14,NA,NA,skipped,NA,666527,NA,NA,666150,666527,2023-10-19T12:41:45Z,666911.92,NULL,NA,NA,NA,NA,NA,NA,NA,NA,NA,14,NA,NA,NA,NA,NA,NA,NA,NA,NA,NA,NA,NA,NA,NA,NA,NA,NA,NA,NA
ba76c,check continue,flow.Sequence,3_0_15,NA,NA,skipped,NA,666552,NA,NA,666150,666552,2023-10-19T12:41:45Z,666911.92,NULL,NA,NA,NA,NA,NA,NA,NA,NA,NA,15,NA,NA,NA,NA,NA,NA,NA,NA,NA,NA,NA,NA,NA,NA,NA,NA,NA,NA,NA
ba76c,check continue,flow.Sequence,3_0_16,NA,NA,skipped,NA,666577,NA,NA,666150,666577,2023-10-19T12:41:45Z,666911.92,NULL,NA,NA,NA,NA,NA,NA,NA,NA,NA,16,NA,NA,NA,NA,NA,NA,NA,NA,NA,NA,NA,NA,NA,NA,NA,NA,NA,NA,NA
ba76c,check continue,flow.Sequence,3_0_17,NA,NA,skipped,NA,666607,NA,NA,666150,666607,2023-10-19T12:41:45Z,666911.92,NULL,NA,NA,NA,NA,NA,NA,NA,NA,NA,17,NA,NA,NA,NA,NA,NA,NA,NA,NA,NA,NA,NA,NA,NA,NA,NA,NA,NA,NA
ba76c,check continue,flow.Sequence,3_0_18,NA,NA,skipped,NA,666632,NA,NA,666150,666632,2023-10-19T12:41:45Z,666911.92,NULL,NA,NA,NA,NA,NA,NA,NA,NA,NA,18,NA,NA,NA,NA,NA,NA,NA,NA,NA,NA,NA,NA,NA,NA,NA,NA,NA,NA,NA
ba76c,check continue,flow.Sequence,3_0_19,NA,NA,skipped,NA,666657,NA,NA,666150,666657,2023-10-19T12:41:45Z,666911.92,NULL,NA,NA,NA,NA,NA,NA,NA,NA,NA,19,NA,NA,NA,NA,NA,NA,NA,NA,NA,NA,NA,NA,NA,NA,NA,NA,NA,NA,NA
ba76c,check continue,flow.Sequence,3_0_20,NA,NA,skipped,NA,666685,NA,NA,666150,666685,2023-10-19T12:41:45Z,666911.92,NULL,NA,NA,NA,NA,NA,NA,NA,NA,NA,20,NA,NA,NA,NA,NA,NA,NA,NA,NA,NA,NA,NA,NA,NA,NA,NA,NA,NA,NA
ba76c,check continue,flow.Sequence,3_0_21,NA,NA,skipped,NA,666709,NA,NA,666150,666709,2023-10-19T12:41:45Z,666911.92,NULL,NA,NA,NA,NA,NA,NA,NA,NA,NA,21,NA,NA,NA,NA,NA,NA,NA,NA,NA,NA,NA,NA,NA,NA,NA,NA,NA,NA,NA
ba76c,check continue,flow.Sequence,3_0_22,NA,NA,skipped,NA,666733,NA,NA,666150,666733,2023-10-19T12:41:45Z,666911.92,NULL,NA,NA,NA,NA,NA,NA,NA,NA,NA,22,NA,NA,NA,NA,NA,NA,NA,NA,NA,NA,NA,NA,NA,NA,NA,NA,NA,NA,NA
ba76c,check continue,flow.Sequence,3_0_23,NA,NA,skipped,NA,666761,NA,NA,666150,666761,2023-10-19T12:41:45Z,666911.92,NULL,NA,NA,NA,NA,NA,NA,NA,NA,NA,23,NA,NA,NA,NA,NA,NA,NA,NA,NA,NA,NA,NA,NA,NA,NA,NA,NA,NA,NA
ba76c,check continue,flow.Sequence,3_0_24,NA,NA,skipped,NA,666788,NA,NA,666150,666788,2023-10-19T12:41:45Z,666911.92,NULL,NA,NA,NA,NA,NA,NA,NA,NA,NA,24,NA,NA,NA,NA,NA,NA,NA,NA,NA,NA,NA,NA,NA,NA,NA,NA,NA,NA,NA
ba76c,check continue,flow.Sequence,3_0_25,NA,NA,skipped,NA,666814,NA,NA,666150,666814,2023-10-19T12:41:45Z,666911.92,NULL,NA,NA,NA,NA,NA,NA,NA,NA,NA,25,NA,NA,NA,NA,NA,NA,NA,NA,NA,NA,NA,NA,NA,NA,NA,NA,NA,NA,NA
ba76c,check continue,flow.Sequence,3_0_26,NA,NA,skipped,NA,666838,NA,NA,666150,666838,2023-10-19T12:41:45Z,666911.92,NULL,NA,NA,NA,NA,NA,NA,NA,NA,NA,26,NA,NA,NA,NA,NA,NA,NA,NA,NA,NA,NA,NA,NA,NA,NA,NA,NA,NA,NA
ba76c,check continue,flow.Sequence,3_0_27,NA,NA,skipped,NA,666861,NA,NA,666150,666861,2023-10-19T12:41:45Z,666911.92,NULL,NA,NA,NA,NA,NA,NA,NA,NA,NA,27,NA,NA,NA,NA,NA,NA,NA,NA,NA,NA,NA,NA,NA,NA,NA,NA,NA,NA,NA
ba76c,check continue,flow.Sequence,3_0_28,NA,NA,skipped,NA,666887,NA,NA,666150,666888,2023-10-19T12:41:45Z,666911.92,NULL,NA,NA,NA,NA,NA,NA,NA,NA,NA,28,NA,NA,NA,NA,NA,NA,NA,NA,NA,NA,NA,NA,NA,NA,NA,NA,NA,NA,NA
ba76c,check continue,flow.Sequence,3_0_29,NA,NA,skipped,NA,666911,NA,NA,666150,666911,2023-10-19T12:41:45Z,666911.92,NULL,NA,NA,NA,NA,NA,NA,NA,NA,NA,29,NA,NA,NA,NA,NA,NA,NA,NA,NA,NA,NA,NA,NA,NA,NA,NA,NA,NA,NA
ba76c,until continue,flow.Loop,3_0,NA,NA,completion,521380.8,144733,144768.86,144769.2,666150,666911,2023-10-19T12:41:45Z,666911.92,NULL,NA,NA,NA,NA,NA,NA,NA,NA,NA,NA,NA,NA,NA,NA,NA,NA,NA,NA,NA,NA,NA,NA,NA,NA,NA,NA,NA,NA,NA
ba76c,block 1,flow.Sequence,3,NA,NA,completion,521380.8,144733,144768.86,144769.2,666150,666911,2023-10-19T12:41:45Z,666911.92,NULL,NA,NA,NA,NA,NA,NA,NA,NA,NA,NA,NA,NA,NA,NA,NA,NA,NA,NA,NA,NA,NA,NA,NA,NA,NA,NA,NA,NA,NA
ba76c,1.Part Over,canvas.Screen,4,NA,keypress(Space),response,1800.08,666912,666911.56,666911.92,668712,668726,2023-10-19T12:41:47Z,668798.04,NULL,NA,NA,NA,NA,NA,NA,NA,NA,NA,NA,NA,NA,NA,NA,NA,NA,NA,NA,NA,NA,NA,NA,NA,NA,NA,NA,NA,NA,NA
ba76c,deep,flow.Sequence,5_0_0_0_0_0,NA,NA,skipped,NA,668797,NA,NA,668712,668797,2023-10-19T12:41:47Z,668798.04,NULL,Verstand,ufahamivu,s,shakawa,hadhari,mhandisi,NA,sdf,NA,0,NA,NA,NA,NA,NA,NA,NA,NA,NA,NA,NA,NA,NA,NA,NA,NA,NA,NA,NA
ba76c,Shallow Question,html.Page,5_0_0_0_0_1_0,NA,NA,form submission,17871.96,668797,668797.74,668798.04,686670,686672,2023-10-19T12:42:05Z,686676.6,NULL,Verstand,ufahamivu,s,shakawa,hadhari,mhandisi,ufahamivu,NA,NA,0,NA,NA,NA,NA,NA,NA,NA,NA,NA,NA,NA,NA,NA,NA,NA,NA,NA,NA,NA
ba76c,"""Richtig""-Screen",canvas.Screen,5_0_0_0_0_1_1,NA,NA,timeout,4999.26,686679,686668.38,686676.6,691659.76,691661,2023-10-19T12:42:10Z,691675.86,NULL,Verstand,ufahamivu,s,shakawa,hadhari,mhandisi,NA,sdf,1,0,NA,NA,NA,NA,NA,NA,NA,NA,NA,NA,NA,NA,NA,NA,NA,NA,NA,NA,NA
ba76c,"""Falsch""-Screen",canvas.Screen,5_0_0_0_0_1_2,NA,NA,skipped,NA,691667,NA,NA,691659.76,691668,2023-10-19T12:42:10Z,691675.86,NULL,Verstand,ufahamivu,s,shakawa,hadhari,mhandisi,NA,sdf,NA,0,NA,NA,NA,NA,NA,NA,NA,NA,NA,NA,NA,NA,NA,NA,NA,NA,NA,NA,NA
ba76c,shallow,flow.Sequence,5_0_0_0_0_1,NA,NA,completion,22861.72,668797,668797.74,668798.04,691659.76,691668,2023-10-19T12:42:10Z,691675.86,NULL,Verstand,ufahamivu,s,shakawa,hadhari,mhandisi,NA,sdf,NA,0,NA,NA,NA,NA,NA,NA,NA,NA,NA,NA,NA,NA,NA,NA,NA,NA,NA,NA,NA
ba76c,task,flow.Sequence,5_0_0_0_0,NA,NA,completion,22861.72,668797,668797.74,668798.04,691659.76,691669,2023-10-19T12:42:10Z,691675.86,NULL,Verstand,ufahamivu,s,shakawa,hadhari,mhandisi,NA,sdf,NA,0,NA,NA,NA,NA,NA,NA,NA,NA,NA,NA,NA,NA,NA,NA,NA,NA,NA,NA,NA
ba76c,deep,flow.Sequence,5_0_0_0_1_0,NA,NA,skipped,NA,691669,NA,NA,691659.76,691670,2023-10-19T12:42:10Z,691675.86,NULL,Gefährdung,kuhatarisha,s,uchokozi,udhaifu,makorowezo,NA,sdf,NA,0,NA,NA,NA,NA,NA,NA,NA,NA,NA,NA,NA,NA,NA,NA,NA,NA,NA,NA,NA
ba76c,Shallow Question,html.Page,5_0_0_0_1_1_0,NA,NA,form submission,10672.14,691670,691659.76,691675.86,702348,702348,2023-10-19T12:42:20Z,702347.62,NULL,Gefährdung,kuhatarisha,s,uchokozi,udhaifu,makorowezo,udhaifu,NA,NA,0,NA,NA,NA,NA,NA,NA,NA,NA,NA,NA,NA,NA,NA,NA,NA,NA,NA,NA,NA
ba76c,"""Richtig""-Screen",canvas.Screen,5_0_0_0_1_1_1,NA,NA,skipped,NA,702352,NA,NA,702348,702353,2023-10-19T12:42:20Z,702347.62,NULL,Gefährdung,kuhatarisha,s,uchokozi,udhaifu,makorowezo,NA,sdf,NA,0,NA,NA,NA,NA,NA,NA,NA,NA,NA,NA,NA,NA,NA,NA,NA,NA,NA,NA,NA
ba76c,"""Falsch""-Screen",canvas.Screen,5_0_0_0_1_1_2,NA,NA,timeout,4992.9400000001,702354,702347.34,702347.62,707324.02,707325,2023-10-19T12:42:25Z,707340.56,NULL,Gefährdung,kuhatarisha,s,uchokozi,udhaifu,makorowezo,NA,sdf,0,0,NA,NA,NA,NA,NA,NA,NA,NA,NA,NA,NA,NA,NA,NA,NA,NA,NA,NA,NA
ba76c,shallow,flow.Sequence,5_0_0_0_1_1,NA,NA,completion,15648.16,691670,691659.76,691675.86,707324.02,707326,2023-10-19T12:42:25Z,707340.56,NULL,Gefährdung,kuhatarisha,s,uchokozi,udhaifu,makorowezo,NA,sdf,NA,0,NA,NA,NA,NA,NA,NA,NA,NA,NA,NA,NA,NA,NA,NA,NA,NA,NA,NA,NA
ba76c,task,flow.Sequence,5_0_0_0_1,NA,NA,completion,15648.16,691669,691659.76,691675.86,707324.02,707327,2023-10-19T12:42:25Z,707340.56,NULL,Gefährdung,kuhatarisha,s,uchokozi,udhaifu,makorowezo,NA,sdf,NA,0,NA,NA,NA,NA,NA,NA,NA,NA,NA,NA,NA,NA,NA,NA,NA,NA,NA,NA,NA
ba76c,Deep Question,html.Page,5_0_0_0_2_0_0,NA,NA,form submission,8125.4399999999,707328,707324.02,707340.56,715466,715466,2023-10-19T12:42:34Z,715472.86,NULL,Können,unaweza,d,NA,NA,NA,können,NA,NA,0,NA,NA,NA,NA,NA,NA,NA,NA,NA,NA,NA,NA,NA,NA,NA,NA,NA,NA,NA
ba76c,"""Richtig""-Screen",canvas.Screen,5_0_0_0_2_0_1,NA,NA,skipped,NA,715468,NA,NA,715466,715469,2023-10-19T12:42:34Z,715472.86,NULL,Können,unaweza,d,NA,NA,NA,NA,sdf,NA,0,NA,NA,NA,NA,NA,NA,NA,NA,NA,NA,NA,NA,NA,NA,NA,NA,NA,NA,NA
ba76c,"""Falsch""-Screen",canvas.Screen,5_0_0_0_2_0_2,NA,NA,timeout,4999.64,715471,715464.74,715472.86,720455.66,720456,2023-10-19T12:42:39Z,720472.5,NULL,Können,unaweza,d,NA,NA,NA,NA,sdf,0,0,NA,NA,NA,NA,NA,NA,NA,NA,NA,NA,NA,NA,NA,NA,NA,NA,NA,NA,NA
ba76c,deep,flow.Sequence,5_0_0_0_2_0,NA,NA,completion,13115.1,707328,707324.02,707340.56,720455.66,720457,2023-10-19T12:42:39Z,720472.5,NULL,Können,unaweza,d,NA,NA,NA,NA,sdf,NA,0,NA,NA,NA,NA,NA,NA,NA,NA,NA,NA,NA,NA,NA,NA,NA,NA,NA,NA,NA
ba76c,shallow,flow.Sequence,5_0_0_0_2_1,NA,NA,skipped,NA,720457,NA,NA,720455.66,720458,2023-10-19T12:42:39Z,720472.5,NULL,Können,unaweza,d,NA,NA,NA,NA,sdf,NA,0,NA,NA,NA,NA,NA,NA,NA,NA,NA,NA,NA,NA,NA,NA,NA,NA,NA,NA,NA
ba76c,task,flow.Sequence,5_0_0_0_2,NA,NA,completion,13115.1,707328,707324.02,707340.56,720455.66,720458,2023-10-19T12:42:39Z,720472.5,NULL,Können,unaweza,d,NA,NA,NA,NA,sdf,NA,0,NA,NA,NA,NA,NA,NA,NA,NA,NA,NA,NA,NA,NA,NA,NA,NA,NA,NA,NA
ba76c,Deep Question,html.Page,5_0_0_0_3_0_0,NA,NA,form submission,23671.5,720460,720455.66,720472.5,744144,744144,2023-10-19T12:43:02Z,744152.9,NULL,Ausschluss,kutengwa,d,NA,NA,NA,können unaweza,NA,NA,0,NA,NA,NA,NA,NA,NA,NA,NA,NA,NA,NA,NA,NA,NA,NA,NA,NA,NA,NA
ba76c,"""Richtig""-Screen",canvas.Screen,5_0_0_0_3_0_1,NA,NA,skipped,NA,744145,NA,NA,744144,744145,2023-10-19T12:43:02Z,744152.9,NULL,Ausschluss,kutengwa,d,NA,NA,NA,NA,sdf,NA,0,NA,NA,NA,NA,NA,NA,NA,NA,NA,NA,NA,NA,NA,NA,NA,NA,NA,NA,NA
ba76c,"""Falsch""-Screen",canvas.Screen,5_0_0_0_3_0_2,NA,NA,timeout,4998.96,744147,744142.14,744152.9,749135.36,749136,2023-10-19T12:43:07Z,749151.86,NULL,Ausschluss,kutengwa,d,NA,NA,NA,NA,sdf,0,0,NA,NA,NA,NA,NA,NA,NA,NA,NA,NA,NA,NA,NA,NA,NA,NA,NA,NA,NA
ba76c,deep,flow.Sequence,5_0_0_0_3_0,NA,NA,completion,28662.86,720459,720455.66,720472.5,749135.36,749137,2023-10-19T12:43:07Z,749151.86,NULL,Ausschluss,kutengwa,d,NA,NA,NA,NA,sdf,NA,0,NA,NA,NA,NA,NA,NA,NA,NA,NA,NA,NA,NA,NA,NA,NA,NA,NA,NA,NA
ba76c,shallow,flow.Sequence,5_0_0_0_3_1,NA,NA,skipped,NA,749137,NA,NA,749135.36,749138,2023-10-19T12:43:07Z,749151.86,NULL,Ausschluss,kutengwa,d,NA,NA,NA,NA,sdf,NA,0,NA,NA,NA,NA,NA,NA,NA,NA,NA,NA,NA,NA,NA,NA,NA,NA,NA,NA,NA
ba76c,task,flow.Sequence,5_0_0_0_3,NA,NA,completion,28662.86,720459,720455.66,720472.5,749135.36,749138,2023-10-19T12:43:07Z,749151.86,NULL,Ausschluss,kutengwa,d,NA,NA,NA,NA,sdf,NA,0,NA,NA,NA,NA,NA,NA,NA,NA,NA,NA,NA,NA,NA,NA,NA,NA,NA,NA,NA
ba76c,deep,flow.Sequence,5_0_0_0_4_0,NA,NA,skipped,NA,749139,NA,NA,749135.36,749139,2023-10-19T12:43:07Z,749151.86,NULL,Widerstand,usulubu,s,kusababisha,mwalimu,mwenendo,NA,sdf,NA,0,NA,NA,NA,NA,NA,NA,NA,NA,NA,NA,NA,NA,NA,NA,NA,NA,NA,NA,NA
ba76c,Shallow Question,html.Page,5_0_0_0_4_1_0,NA,NA,form submission,31017.14,749139,749135.36,749151.86,780169,780169,2023-10-19T12:43:38Z,780182.84,NULL,Widerstand,usulubu,s,kusababisha,mwalimu,mwenendo,mwalimu,NA,NA,0,NA,NA,NA,NA,NA,NA,NA,NA,NA,NA,NA,NA,NA,NA,NA,NA,NA,NA,NA
ba76c,"""Richtig""-Screen",canvas.Screen,5_0_0_0_4_1_1,NA,NA,skipped,NA,780174,NA,NA,780169,780175,2023-10-19T12:43:38Z,780182.84,NULL,Widerstand,usulubu,s,kusababisha,mwalimu,mwenendo,NA,sdf,NA,0,NA,NA,NA,NA,NA,NA,NA,NA,NA,NA,NA,NA,NA,NA,NA,NA,NA,NA,NA
ba76c,"""Falsch""-Screen",canvas.Screen,5_0_0_0_4_1_2,NA,NA,timeout,4997.8400000001,780181,780163.98,780182.84,785164.08,785165,2023-10-19T12:43:43Z,785180.68,NULL,Widerstand,usulubu,s,kusababisha,mwalimu,mwenendo,NA,sdf,0,0,NA,NA,NA,NA,NA,NA,NA,NA,NA,NA,NA,NA,NA,NA,NA,NA,NA,NA,NA
ba76c,shallow,flow.Sequence,5_0_0_0_4_1,NA,NA,completion,36012.22,749139,749135.36,749151.86,785164.08,785166,2023-10-19T12:43:43Z,785180.68,NULL,Widerstand,usulubu,s,kusababisha,mwalimu,mwenendo,NA,sdf,NA,0,NA,NA,NA,NA,NA,NA,NA,NA,NA,NA,NA,NA,NA,NA,NA,NA,NA,NA,NA
ba76c,task,flow.Sequence,5_0_0_0_4,NA,NA,completion,36012.22,749138,749135.36,749151.86,785164.08,785166,2023-10-19T12:43:43Z,785180.68,NULL,Widerstand,usulubu,s,kusababisha,mwalimu,mwenendo,NA,sdf,NA,0,NA,NA,NA,NA,NA,NA,NA,NA,NA,NA,NA,NA,NA,NA,NA,NA,NA,NA,NA
ba76c,deep,flow.Sequence,5_0_0_0_5_0,NA,NA,skipped,NA,785167,NA,NA,785164.08,785167,2023-10-19T12:43:43Z,785180.68,NULL,Kontrolle,kudhibiti,s,mbinguni,kufunga,utegemezi,NA,sdf,NA,0,NA,NA,NA,NA,NA,NA,NA,NA,NA,NA,NA,NA,NA,NA,NA,NA,NA,NA,NA
ba76c,Shallow Question,html.Page,5_0_0_0_5_1_0,NA,NA,form submission,5669.3199999999,785168,785164.08,785180.68,790850,790850,2023-10-19T12:43:49Z,790849.58,NULL,Kontrolle,kudhibiti,s,mbinguni,kufunga,utegemezi,kufunga,NA,NA,0,NA,NA,NA,NA,NA,NA,NA,NA,NA,NA,NA,NA,NA,NA,NA,NA,NA,NA,NA
ba76c,"""Richtig""-Screen",canvas.Screen,5_0_0_0_5_1_1,NA,NA,skipped,NA,790852,NA,NA,790850,790852,2023-10-19T12:43:49Z,790849.58,NULL,Kontrolle,kudhibiti,s,mbinguni,kufunga,utegemezi,NA,sdf,NA,0,NA,NA,NA,NA,NA,NA,NA,NA,NA,NA,NA,NA,NA,NA,NA,NA,NA,NA,NA
ba76c,"""Falsch""-Screen",canvas.Screen,5_0_0_0_5_1_2,NA,NA,timeout,4996.38,790855,790849.24,790849.58,795829.52,795830,2023-10-19T12:43:54Z,795845.96,NULL,Kontrolle,kudhibiti,s,mbinguni,kufunga,utegemezi,NA,sdf,0,0,NA,NA,NA,NA,NA,NA,NA,NA,NA,NA,NA,NA,NA,NA,NA,NA,NA,NA,NA
ba76c,shallow,flow.Sequence,5_0_0_0_5_1,NA,NA,completion,10648.84,785167,785164.08,785180.68,795829.52,795831,2023-10-19T12:43:54Z,795845.96,NULL,Kontrolle,kudhibiti,s,mbinguni,kufunga,utegemezi,NA,sdf,NA,0,NA,NA,NA,NA,NA,NA,NA,NA,NA,NA,NA,NA,NA,NA,NA,NA,NA,NA,NA
ba76c,task,flow.Sequence,5_0_0_0_5,NA,NA,completion,10648.84,785167,785164.08,785180.68,795829.52,795831,2023-10-19T12:43:54Z,795845.96,NULL,Kontrolle,kudhibiti,s,mbinguni,kufunga,utegemezi,NA,sdf,NA,0,NA,NA,NA,NA,NA,NA,NA,NA,NA,NA,NA,NA,NA,NA,NA,NA,NA,NA,NA
ba76c,Deep Question,html.Page,5_0_0_0_6_0_0,NA,NA,form submission,17720.04,795832,795829.52,795845.96,813566,813566,2023-10-19T12:44:12Z,813577.08,NULL,Gelegenheit,wakati,d,NA,NA,NA,"kutengwa, unaweza",NA,NA,0,NA,NA,NA,NA,NA,NA,NA,NA,NA,NA,NA,NA,NA,NA,NA,NA,NA,NA,NA
ba76c,"""Richtig""-Screen",canvas.Screen,5_0_0_0_6_0_1,NA,NA,skipped,NA,813571,NA,NA,813566,813572,2023-10-19T12:44:12Z,813577.08,NULL,Gelegenheit,wakati,d,NA,NA,NA,NA,sdf,NA,0,NA,NA,NA,NA,NA,NA,NA,NA,NA,NA,NA,NA,NA,NA,NA,NA,NA,NA,NA
ba76c,"""Falsch""-Screen",canvas.Screen,5_0_0_0_6_0_2,NA,NA,timeout,4999.3200000001,813579,813560.82,813577.08,818560.2,818561,2023-10-19T12:44:17Z,818576.4,NULL,Gelegenheit,wakati,d,NA,NA,NA,NA,sdf,0,0,NA,NA,NA,NA,NA,NA,NA,NA,NA,NA,NA,NA,NA,NA,NA,NA,NA,NA,NA
ba76c,deep,flow.Sequence,5_0_0_0_6_0,NA,NA,completion,22714.24,795832,795829.52,795845.96,818560.2,818562,2023-10-19T12:44:17Z,818576.4,NULL,Gelegenheit,wakati,d,NA,NA,NA,NA,sdf,NA,0,NA,NA,NA,NA,NA,NA,NA,NA,NA,NA,NA,NA,NA,NA,NA,NA,NA,NA,NA
ba76c,shallow,flow.Sequence,5_0_0_0_6_1,NA,NA,skipped,NA,818562,NA,NA,818560.2,818562,2023-10-19T12:44:17Z,818576.4,NULL,Gelegenheit,wakati,d,NA,NA,NA,NA,sdf,NA,0,NA,NA,NA,NA,NA,NA,NA,NA,NA,NA,NA,NA,NA,NA,NA,NA,NA,NA,NA
ba76c,task,flow.Sequence,5_0_0_0_6,NA,NA,completion,22714.24,795832,795829.52,795845.96,818560.2,818563,2023-10-19T12:44:17Z,818576.4,NULL,Gelegenheit,wakati,d,NA,NA,NA,NA,sdf,NA,0,NA,NA,NA,NA,NA,NA,NA,NA,NA,NA,NA,NA,NA,NA,NA,NA,NA,NA,NA
ba76c,Deep Question,html.Page,5_0_0_0_7_0_0,NA,NA,form submission,33403.6,818563,818560.2,818576.4,851980,851980,2023-10-19T12:44:50Z,851988.84,NULL,Kreativität,ubunifu,d,NA,NA,NA,"unaweza, kutengwa, wakati",NA,NA,0,NA,NA,NA,NA,NA,NA,NA,NA,NA,NA,NA,NA,NA,NA,NA,NA,NA,NA,NA
ba76c,"""Richtig""-Screen",canvas.Screen,5_0_0_0_7_0_1,NA,NA,skipped,NA,851984,NA,NA,851980,851985,2023-10-19T12:44:50Z,851988.84,NULL,Kreativität,ubunifu,d,NA,NA,NA,NA,sdf,NA,0,NA,NA,NA,NA,NA,NA,NA,NA,NA,NA,NA,NA,NA,NA,NA,NA,NA,NA,NA
ba76c,"""Falsch""-Screen",canvas.Screen,5_0_0_0_7_0_2,NA,NA,timeout,4999.3200000001,851989,851975.94,851988.84,856971.5,856973,2023-10-19T12:44:55Z,856988.16,NULL,Kreativität,ubunifu,d,NA,NA,NA,NA,sdf,0,0,NA,NA,NA,NA,NA,NA,NA,NA,NA,NA,NA,NA,NA,NA,NA,NA,NA,NA,NA
ba76c,deep,flow.Sequence,5_0_0_0_7_0,NA,NA,completion,38395.1,818563,818560.2,818576.4,856971.5,856973,2023-10-19T12:44:55Z,856988.16,NULL,Kreativität,ubunifu,d,NA,NA,NA,NA,sdf,NA,0,NA,NA,NA,NA,NA,NA,NA,NA,NA,NA,NA,NA,NA,NA,NA,NA,NA,NA,NA
ba76c,shallow,flow.Sequence,5_0_0_0_7_1,NA,NA,skipped,NA,856974,NA,NA,856971.5,856974,2023-10-19T12:44:55Z,856988.16,NULL,Kreativität,ubunifu,d,NA,NA,NA,NA,sdf,NA,0,NA,NA,NA,NA,NA,NA,NA,NA,NA,NA,NA,NA,NA,NA,NA,NA,NA,NA,NA
ba76c,task,flow.Sequence,5_0_0_0_7,NA,NA,completion,38395.1,818563,818560.2,818576.4,856971.5,856974,2023-10-19T12:44:55Z,856988.16,NULL,Kreativität,ubunifu,d,NA,NA,NA,NA,sdf,NA,0,NA,NA,NA,NA,NA,NA,NA,NA,NA,NA,NA,NA,NA,NA,NA,NA,NA,NA,NA
ba76c,block,flow.Loop,5_0_0_0,NA,NA,completion,188173.46,668797,668797.74,668798.04,856971.5,856975,2023-10-19T12:44:55Z,856988.16,NULL,NA,NA,NA,NA,NA,NA,NA,sdf,NA,0,NA,NA,NA,NA,NA,NA,NA,NA,NA,NA,NA,NA,NA,NA,NA,NA,NA,NA,NA
ba76c,weiter,canvas.Screen,5_0_0_1,sdf,keypress(Space),response,7646.84,856975,856971.5,856988.16,864635,864650,2023-10-19T12:45:03Z,864716.52,NULL,NA,NA,NA,NA,NA,NA,NA,sdf,NA,0,NA,NA,NA,NA,NA,NA,NA,NA,NA,NA,NA,NA,NA,NA,NA,NA,NA,NA,NA
ba76c,check continue,flow.Sequence,5_0_0,NA,NA,completion,195836.96,668797,668797.74,668798.04,864635,864654,2023-10-19T12:45:03Z,864716.52,NULL,NA,NA,NA,NA,NA,NA,NA,sdf,NA,0,NA,NA,NA,NA,NA,NA,NA,NA,NA,NA,NA,NA,NA,NA,NA,NA,NA,NA,NA
ba76c,Deep Question,html.Page,5_0_1_0_0_0_0,NA,NA,form submission,5652.48,864716,864716.2,864716.52,870369,870369,2023-10-19T12:45:08Z,870369.74,NULL,Ausschluss,kutengwa,d,NA,NA,NA,kutengwa,NA,NA,1,NA,NA,NA,NA,NA,NA,NA,NA,NA,NA,NA,NA,NA,NA,NA,NA,NA,NA,NA
ba76c,"""Richtig""-Screen",canvas.Screen,5_0_1_0_0_0_1,NA,NA,timeout,4999.36,870372,870367.88,870369.74,875352.58,875355,2023-10-19T12:45:13Z,875369.1,NULL,Ausschluss,kutengwa,d,NA,NA,NA,NA,sdfdsf,1,1,NA,NA,NA,NA,NA,NA,NA,NA,NA,NA,NA,NA,NA,NA,NA,NA,NA,NA,NA
ba76c,"""Falsch""-Screen",canvas.Screen,5_0_1_0_0_0_2,NA,NA,skipped,NA,875358,NA,NA,875352.58,875359,2023-10-19T12:45:13Z,875369.1,NULL,Ausschluss,kutengwa,d,NA,NA,NA,NA,sdfdsf,NA,1,NA,NA,NA,NA,NA,NA,NA,NA,NA,NA,NA,NA,NA,NA,NA,NA,NA,NA,NA
ba76c,deep,flow.Sequence,5_0_1_0_0_0,NA,NA,completion,10636.06,864716,864716.2,864716.52,875352.58,875359,2023-10-19T12:45:13Z,875369.1,NULL,Ausschluss,kutengwa,d,NA,NA,NA,NA,sdfdsf,NA,1,NA,NA,NA,NA,NA,NA,NA,NA,NA,NA,NA,NA,NA,NA,NA,NA,NA,NA,NA
ba76c,shallow,flow.Sequence,5_0_1_0_0_1,NA,NA,skipped,NA,875359,NA,NA,875352.58,875359,2023-10-19T12:45:13Z,875369.1,NULL,Ausschluss,kutengwa,d,NA,NA,NA,NA,sdfdsf,NA,1,NA,NA,NA,NA,NA,NA,NA,NA,NA,NA,NA,NA,NA,NA,NA,NA,NA,NA,NA
ba76c,task,flow.Sequence,5_0_1_0_0,NA,NA,completion,10636.06,864716,864716.2,864716.52,875352.58,875359,2023-10-19T12:45:13Z,875369.1,NULL,Ausschluss,kutengwa,d,NA,NA,NA,NA,sdfdsf,NA,1,NA,NA,NA,NA,NA,NA,NA,NA,NA,NA,NA,NA,NA,NA,NA,NA,NA,NA,NA
ba76c,deep,flow.Sequence,5_0_1_0_1_0,NA,NA,skipped,NA,875359,NA,NA,875352.58,875359,2023-10-19T12:45:13Z,875369.1,NULL,Verstand,ufahamivu,s,shakawa,hadhari,mhandisi,NA,sdfdsf,NA,1,NA,NA,NA,NA,NA,NA,NA,NA,NA,NA,NA,NA,NA,NA,NA,NA,NA,NA,NA
ba76c,Shallow Question,html.Page,5_0_1_0_1_1_0,NA,NA,form submission,8563.9,875360,875352.58,875369.1,883933,883934,2023-10-19T12:45:22Z,883934.7,NULL,Verstand,ufahamivu,s,shakawa,hadhari,mhandisi,ufahamivu,NA,NA,1,NA,NA,NA,NA,NA,NA,NA,NA,NA,NA,NA,NA,NA,NA,NA,NA,NA,NA,NA
ba76c,"""Richtig""-Screen",canvas.Screen,5_0_1_0_1_1_1,NA,NA,timeout,4999.3400000001,883936,883931.24,883934.7,888917.68,888919,2023-10-19T12:45:27Z,888934.04,NULL,Verstand,ufahamivu,s,shakawa,hadhari,mhandisi,NA,sdfdsf,1,1,NA,NA,NA,NA,NA,NA,NA,NA,NA,NA,NA,NA,NA,NA,NA,NA,NA,NA,NA
ba76c,"""Falsch""-Screen",canvas.Screen,5_0_1_0_1_1_2,NA,NA,skipped,NA,888925,NA,NA,888917.68,888926,2023-10-19T12:45:27Z,888934.04,NULL,Verstand,ufahamivu,s,shakawa,hadhari,mhandisi,NA,sdfdsf,NA,1,NA,NA,NA,NA,NA,NA,NA,NA,NA,NA,NA,NA,NA,NA,NA,NA,NA,NA,NA
ba76c,shallow,flow.Sequence,5_0_1_0_1_1,NA,NA,completion,13548.58,875360,875352.58,875369.1,888917.68,888926,2023-10-19T12:45:27Z,888934.04,NULL,Verstand,ufahamivu,s,shakawa,hadhari,mhandisi,NA,sdfdsf,NA,1,NA,NA,NA,NA,NA,NA,NA,NA,NA,NA,NA,NA,NA,NA,NA,NA,NA,NA,NA
ba76c,task,flow.Sequence,5_0_1_0_1,NA,NA,completion,13548.58,875359,875352.58,875369.1,888917.68,888926,2023-10-19T12:45:27Z,888934.04,NULL,Verstand,ufahamivu,s,shakawa,hadhari,mhandisi,NA,sdfdsf,NA,1,NA,NA,NA,NA,NA,NA,NA,NA,NA,NA,NA,NA,NA,NA,NA,NA,NA,NA,NA
ba76c,Deep Question,html.Page,5_0_1_0_2_0_0,NA,NA,form submission,6424.96,888927,888917.68,888934.04,895359,895359,2023-10-19T12:45:33Z,895366.52,NULL,Gelegenheit,wakati,d,NA,NA,NA,wakati,NA,NA,1,NA,NA,NA,NA,NA,NA,NA,NA,NA,NA,NA,NA,NA,NA,NA,NA,NA,NA,NA
ba76c,"""Richtig""-Screen",canvas.Screen,5_0_1_0_2_0_1,NA,NA,timeout,4999.38,895362,895358.22,895366.52,900349.66,900351,2023-10-19T12:45:38Z,900365.9,NULL,Gelegenheit,wakati,d,NA,NA,NA,NA,sdfdsf,1,1,NA,NA,NA,NA,NA,NA,NA,NA,NA,NA,NA,NA,NA,NA,NA,NA,NA,NA,NA
ba76c,"""Falsch""-Screen",canvas.Screen,5_0_1_0_2_0_2,NA,NA,skipped,NA,900357,NA,NA,900349.66,900357,2023-10-19T12:45:38Z,900365.9,NULL,Gelegenheit,wakati,d,NA,NA,NA,NA,sdfdsf,NA,1,NA,NA,NA,NA,NA,NA,NA,NA,NA,NA,NA,NA,NA,NA,NA,NA,NA,NA,NA
ba76c,deep,flow.Sequence,5_0_1_0_2_0,NA,NA,completion,11415.62,888927,888917.68,888934.04,900349.66,900358,2023-10-19T12:45:38Z,900365.9,NULL,Gelegenheit,wakati,d,NA,NA,NA,NA,sdfdsf,NA,1,NA,NA,NA,NA,NA,NA,NA,NA,NA,NA,NA,NA,NA,NA,NA,NA,NA,NA,NA
ba76c,shallow,flow.Sequence,5_0_1_0_2_1,NA,NA,skipped,NA,900358,NA,NA,900349.66,900358,2023-10-19T12:45:38Z,900365.9,NULL,Gelegenheit,wakati,d,NA,NA,NA,NA,sdfdsf,NA,1,NA,NA,NA,NA,NA,NA,NA,NA,NA,NA,NA,NA,NA,NA,NA,NA,NA,NA,NA
ba76c,task,flow.Sequence,5_0_1_0_2,NA,NA,completion,11415.62,888927,888917.68,888934.04,900349.66,900359,2023-10-19T12:45:38Z,900365.9,NULL,Gelegenheit,wakati,d,NA,NA,NA,NA,sdfdsf,NA,1,NA,NA,NA,NA,NA,NA,NA,NA,NA,NA,NA,NA,NA,NA,NA,NA,NA,NA,NA
ba76c,deep,flow.Sequence,5_0_1_0_3_0,NA,NA,skipped,NA,900359,NA,NA,900349.66,900359,2023-10-19T12:45:38Z,900365.9,NULL,Gefährdung,kuhatarisha,s,uchokozi,udhaifu,makorowezo,NA,sdfdsf,NA,1,NA,NA,NA,NA,NA,NA,NA,NA,NA,NA,NA,NA,NA,NA,NA,NA,NA,NA,NA
ba76c,Shallow Question,html.Page,5_0_1_0_3_1_0,NA,NA,form submission,4256.1,900359,900349.66,900365.9,904622,904622,2023-10-19T12:45:43Z,904621.24,NULL,Gefährdung,kuhatarisha,s,uchokozi,udhaifu,makorowezo,kuhatarisha,NA,NA,1,NA,NA,NA,NA,NA,NA,NA,NA,NA,NA,NA,NA,NA,NA,NA,NA,NA,NA,NA
ba76c,"""Richtig""-Screen",canvas.Screen,5_0_1_0_3_1_1,NA,NA,timeout,4993.48,904625,904620.88,904621.24,909598.46,909600,2023-10-19T12:45:48Z,909614.72,NULL,Gefährdung,kuhatarisha,s,uchokozi,udhaifu,makorowezo,NA,sdfdsf,1,1,NA,NA,NA,NA,NA,NA,NA,NA,NA,NA,NA,NA,NA,NA,NA,NA,NA,NA,NA
ba76c,"""Falsch""-Screen",canvas.Screen,5_0_1_0_3_1_2,NA,NA,skipped,NA,909605,NA,NA,909598.46,909606,2023-10-19T12:45:48Z,909614.72,NULL,Gefährdung,kuhatarisha,s,uchokozi,udhaifu,makorowezo,NA,sdfdsf,NA,1,NA,NA,NA,NA,NA,NA,NA,NA,NA,NA,NA,NA,NA,NA,NA,NA,NA,NA,NA
ba76c,shallow,flow.Sequence,5_0_1_0_3_1,NA,NA,completion,9232.5599999999,900359,900349.66,900365.9,909598.46,909606,2023-10-19T12:45:48Z,909614.72,NULL,Gefährdung,kuhatarisha,s,uchokozi,udhaifu,makorowezo,NA,sdfdsf,NA,1,NA,NA,NA,NA,NA,NA,NA,NA,NA,NA,NA,NA,NA,NA,NA,NA,NA,NA,NA
ba76c,task,flow.Sequence,5_0_1_0_3,NA,NA,completion,9232.5599999999,900359,900349.66,900365.9,909598.46,909607,2023-10-19T12:45:48Z,909614.72,NULL,Gefährdung,kuhatarisha,s,uchokozi,udhaifu,makorowezo,NA,sdfdsf,NA,1,NA,NA,NA,NA,NA,NA,NA,NA,NA,NA,NA,NA,NA,NA,NA,NA,NA,NA,NA
ba76c,Deep Question,html.Page,5_0_1_0_4_0_0,NA,NA,form submission,5310.28,909607,909598.46,909614.72,914925,914925,2023-10-19T12:45:53Z,914930.7,NULL,Können,unaweza,d,NA,NA,NA,unaweza,NA,NA,1,NA,NA,NA,NA,NA,NA,NA,NA,NA,NA,NA,NA,NA,NA,NA,NA,NA,NA,NA
ba76c,"""Richtig""-Screen",canvas.Screen,5_0_1_0_4_0_1,NA,NA,timeout,4999.4600000001,914927,914923.76,914930.7,919913.74,919918,2023-10-19T12:45:58Z,919930.16,NULL,Können,unaweza,d,NA,NA,NA,NA,sdfdsf,1,1,NA,NA,NA,NA,NA,NA,NA,NA,NA,NA,NA,NA,NA,NA,NA,NA,NA,NA,NA
ba76c,"""Falsch""-Screen",canvas.Screen,5_0_1_0_4_0_2,NA,NA,skipped,NA,919934,NA,NA,919913.74,919934,2023-10-19T12:45:58Z,919930.16,NULL,Können,unaweza,d,NA,NA,NA,NA,sdfdsf,NA,1,NA,NA,NA,NA,NA,NA,NA,NA,NA,NA,NA,NA,NA,NA,NA,NA,NA,NA,NA
ba76c,deep,flow.Sequence,5_0_1_0_4_0,NA,NA,completion,10299.02,909607,909598.46,909614.72,919913.74,919934,2023-10-19T12:45:58Z,919930.16,NULL,Können,unaweza,d,NA,NA,NA,NA,sdfdsf,NA,1,NA,NA,NA,NA,NA,NA,NA,NA,NA,NA,NA,NA,NA,NA,NA,NA,NA,NA,NA
ba76c,shallow,flow.Sequence,5_0_1_0_4_1,NA,NA,skipped,NA,919935,NA,NA,919913.74,919935,2023-10-19T12:45:58Z,919930.16,NULL,Können,unaweza,d,NA,NA,NA,NA,sdfdsf,NA,1,NA,NA,NA,NA,NA,NA,NA,NA,NA,NA,NA,NA,NA,NA,NA,NA,NA,NA,NA
ba76c,task,flow.Sequence,5_0_1_0_4,NA,NA,completion,10299.02,909607,909598.46,909614.72,919913.74,919935,2023-10-19T12:45:58Z,919930.16,NULL,Können,unaweza,d,NA,NA,NA,NA,sdfdsf,NA,1,NA,NA,NA,NA,NA,NA,NA,NA,NA,NA,NA,NA,NA,NA,NA,NA,NA,NA,NA
ba76c,Deep Question,html.Page,5_0_1_0_5_0_0,NA,NA,form submission,15624.84,919936,919913.74,919930.16,935555,935555,2023-10-19T12:46:14Z,935561.44,NULL,Kreativität,ubunifu,d,NA,NA,NA,ubanifu,NA,NA,1,NA,NA,NA,NA,NA,NA,NA,NA,NA,NA,NA,NA,NA,NA,NA,NA,NA,NA,NA
ba76c,"""Richtig""-Screen",canvas.Screen,5_0_1_0_5_0_1,NA,NA,skipped,NA,935558,NA,NA,935555,935559,2023-10-19T12:46:14Z,935561.44,NULL,Kreativität,ubunifu,d,NA,NA,NA,NA,sdfdsf,NA,1,NA,NA,NA,NA,NA,NA,NA,NA,NA,NA,NA,NA,NA,NA,NA,NA,NA,NA,NA
ba76c,"""Falsch""-Screen",canvas.Screen,5_0_1_0_5_0_2,NA,NA,timeout,4999.4,935561,935553.46,935561.44,940544.22,940546,2023-10-19T12:46:19Z,940560.84,NULL,Kreativität,ubunifu,d,NA,NA,NA,NA,sdfdsf,0,1,NA,NA,NA,NA,NA,NA,NA,NA,NA,NA,NA,NA,NA,NA,NA,NA,NA,NA,NA
ba76c,deep,flow.Sequence,5_0_1_0_5_0,NA,NA,completion,20614.06,919936,919913.74,919930.16,940544.22,940546,2023-10-19T12:46:19Z,940560.84,NULL,Kreativität,ubunifu,d,NA,NA,NA,NA,sdfdsf,NA,1,NA,NA,NA,NA,NA,NA,NA,NA,NA,NA,NA,NA,NA,NA,NA,NA,NA,NA,NA
ba76c,shallow,flow.Sequence,5_0_1_0_5_1,NA,NA,skipped,NA,940547,NA,NA,940544.22,940548,2023-10-19T12:46:19Z,940560.84,NULL,Kreativität,ubunifu,d,NA,NA,NA,NA,sdfdsf,NA,1,NA,NA,NA,NA,NA,NA,NA,NA,NA,NA,NA,NA,NA,NA,NA,NA,NA,NA,NA
ba76c,task,flow.Sequence,5_0_1_0_5,NA,NA,completion,20614.06,919936,919913.74,919930.16,940544.22,940549,2023-10-19T12:46:19Z,940560.84,NULL,Kreativität,ubunifu,d,NA,NA,NA,NA,sdfdsf,NA,1,NA,NA,NA,NA,NA,NA,NA,NA,NA,NA,NA,NA,NA,NA,NA,NA,NA,NA,NA
ba76c,deep,flow.Sequence,5_0_1_0_6_0,NA,NA,skipped,NA,940550,NA,NA,940544.22,940550,2023-10-19T12:46:19Z,940560.84,NULL,Widerstand,usulubu,s,kusababisha,mwalimu,mwenendo,NA,sdfdsf,NA,1,NA,NA,NA,NA,NA,NA,NA,NA,NA,NA,NA,NA,NA,NA,NA,NA,NA,NA,NA
ba76c,Shallow Question,html.Page,5_0_1_0_6_1_0,NA,NA,form submission,5227.16,940551,940544.22,940560.84,945788,945788,2023-10-19T12:46:24Z,945786.52,NULL,Widerstand,usulubu,s,kusababisha,mwalimu,mwenendo,usulubu,NA,NA,1,NA,NA,NA,NA,NA,NA,NA,NA,NA,NA,NA,NA,NA,NA,NA,NA,NA,NA,NA
ba76c,"""Richtig""-Screen",canvas.Screen,5_0_1_0_6_1_1,NA,NA,timeout,5006.24,945791,945786.16,945786.52,950776.22,950777,2023-10-19T12:46:29Z,950792.76,NULL,Widerstand,usulubu,s,kusababisha,mwalimu,mwenendo,NA,sdfdsf,1,1,NA,NA,NA,NA,NA,NA,NA,NA,NA,NA,NA,NA,NA,NA,NA,NA,NA,NA,NA
ba76c,"""Falsch""-Screen",canvas.Screen,5_0_1_0_6_1_2,NA,NA,skipped,NA,950783,NA,NA,950776.22,950784,2023-10-19T12:46:29Z,950792.76,NULL,Widerstand,usulubu,s,kusababisha,mwalimu,mwenendo,NA,sdfdsf,NA,1,NA,NA,NA,NA,NA,NA,NA,NA,NA,NA,NA,NA,NA,NA,NA,NA,NA,NA,NA
ba76c,shallow,flow.Sequence,5_0_1_0_6_1,NA,NA,completion,10215.38,940551,940544.22,940560.84,950776.22,950784,2023-10-19T12:46:29Z,950792.76,NULL,Widerstand,usulubu,s,kusababisha,mwalimu,mwenendo,NA,sdfdsf,NA,1,NA,NA,NA,NA,NA,NA,NA,NA,NA,NA,NA,NA,NA,NA,NA,NA,NA,NA,NA
ba76c,task,flow.Sequence,5_0_1_0_6,NA,NA,completion,10215.38,940549,940544.22,940560.84,950776.22,950784,2023-10-19T12:46:29Z,950792.76,NULL,Widerstand,usulubu,s,kusababisha,mwalimu,mwenendo,NA,sdfdsf,NA,1,NA,NA,NA,NA,NA,NA,NA,NA,NA,NA,NA,NA,NA,NA,NA,NA,NA,NA,NA
ba76c,deep,flow.Sequence,5_0_1_0_7_0,NA,NA,skipped,NA,950785,NA,NA,950776.22,950785,2023-10-19T12:46:29Z,950792.76,NULL,Kontrolle,kudhibiti,s,mbinguni,kufunga,utegemezi,NA,sdfdsf,NA,1,NA,NA,NA,NA,NA,NA,NA,NA,NA,NA,NA,NA,NA,NA,NA,NA,NA,NA,NA
ba76c,Shallow Question,html.Page,5_0_1_0_7_1_0,NA,NA,form submission,5285.24,950786,950776.22,950792.76,956078,956078,2023-10-19T12:46:34Z,956078.22,NULL,Kontrolle,kudhibiti,s,mbinguni,kufunga,utegemezi,kudhibiti,NA,NA,1,NA,NA,NA,NA,NA,NA,NA,NA,NA,NA,NA,NA,NA,NA,NA,NA,NA,NA,NA
ba76c,"""Richtig""-Screen",canvas.Screen,5_0_1_0_7_1_1,NA,NA,timeout,4996.8400000001,956080,956078.06,956078.22,961058.24,961059,2023-10-19T12:46:39Z,961075.06,NULL,Kontrolle,kudhibiti,s,mbinguni,kufunga,utegemezi,NA,sdfdsf,1,1,NA,NA,NA,NA,NA,NA,NA,NA,NA,NA,NA,NA,NA,NA,NA,NA,NA,NA,NA
ba76c,"""Falsch""-Screen",canvas.Screen,5_0_1_0_7_1_2,NA,NA,skipped,NA,961066,NA,NA,961058.24,961066,2023-10-19T12:46:39Z,961075.06,NULL,Kontrolle,kudhibiti,s,mbinguni,kufunga,utegemezi,NA,sdfdsf,NA,1,NA,NA,NA,NA,NA,NA,NA,NA,NA,NA,NA,NA,NA,NA,NA,NA,NA,NA,NA
ba76c,shallow,flow.Sequence,5_0_1_0_7_1,NA,NA,completion,10265.48,950786,950776.22,950792.76,961058.24,961067,2023-10-19T12:46:39Z,961075.06,NULL,Kontrolle,kudhibiti,s,mbinguni,kufunga,utegemezi,NA,sdfdsf,NA,1,NA,NA,NA,NA,NA,NA,NA,NA,NA,NA,NA,NA,NA,NA,NA,NA,NA,NA,NA
ba76c,task,flow.Sequence,5_0_1_0_7,NA,NA,completion,10265.48,950785,950776.22,950792.76,961058.24,961067,2023-10-19T12:46:39Z,961075.06,NULL,Kontrolle,kudhibiti,s,mbinguni,kufunga,utegemezi,NA,sdfdsf,NA,1,NA,NA,NA,NA,NA,NA,NA,NA,NA,NA,NA,NA,NA,NA,NA,NA,NA,NA,NA
ba76c,block,flow.Loop,5_0_1_0,NA,NA,completion,96341.72,864716,864716.2,864716.52,961058.24,961068,2023-10-19T12:46:39Z,961075.06,NULL,NA,NA,NA,NA,NA,NA,NA,sdfdsf,NA,1,NA,NA,NA,NA,NA,NA,NA,NA,NA,NA,NA,NA,NA,NA,NA,NA,NA,NA,NA
ba76c,weiter,canvas.Screen,5_0_1_1,sdf,keypress(Space),response,1011.9399999999,961068,961058.24,961075.06,962087,962106,2023-10-19T12:46:40Z,962854.26,NULL,NA,NA,NA,NA,NA,NA,NA,sdfdsf,NA,1,NA,NA,NA,NA,NA,NA,NA,NA,NA,NA,NA,NA,NA,NA,NA,NA,NA,NA,NA
ba76c,check continue,flow.Sequence,5_0_1,NA,NA,completion,97370.48,864716,864716.2,864716.52,962087,962106,2023-10-19T12:46:40Z,962854.26,NULL,NA,NA,NA,NA,NA,NA,NA,sdfdsf,NA,1,NA,NA,NA,NA,NA,NA,NA,NA,NA,NA,NA,NA,NA,NA,NA,NA,NA,NA,NA
ba76c,check continue,flow.Sequence,5_0_2,NA,NA,skipped,NA,962163,NA,NA,962087,962163,2023-10-19T12:46:40Z,962854.26,NULL,NA,NA,NA,NA,NA,NA,NA,sdf,NA,2,NA,NA,NA,NA,NA,NA,NA,NA,NA,NA,NA,NA,NA,NA,NA,NA,NA,NA,NA
ba76c,check continue,flow.Sequence,5_0_3,NA,NA,skipped,NA,962196,NA,NA,962087,962196,2023-10-19T12:46:40Z,962854.26,NULL,NA,NA,NA,NA,NA,NA,NA,qt,NA,3,NA,NA,NA,NA,NA,NA,NA,NA,NA,NA,NA,NA,NA,NA,NA,NA,NA,NA,NA
ba76c,check continue,flow.Sequence,5_0_4,NA,NA,skipped,NA,962224,NA,NA,962087,962224,2023-10-19T12:46:40Z,962854.26,NULL,NA,NA,NA,NA,NA,NA,NA,sd,NA,4,NA,NA,NA,NA,NA,NA,NA,NA,NA,NA,NA,NA,NA,NA,NA,NA,NA,NA,NA
ba76c,check continue,flow.Sequence,5_0_5,NA,NA,skipped,NA,962251,NA,NA,962087,962251,2023-10-19T12:46:40Z,962854.26,NULL,NA,NA,NA,NA,NA,NA,NA,sdf,NA,5,NA,NA,NA,NA,NA,NA,NA,NA,NA,NA,NA,NA,NA,NA,NA,NA,NA,NA,NA
ba76c,check continue,flow.Sequence,5_0_6,NA,NA,skipped,NA,962278,NA,NA,962087,962278,2023-10-19T12:46:40Z,962854.26,NULL,NA,NA,NA,NA,NA,NA,NA,dfs,NA,6,NA,NA,NA,NA,NA,NA,NA,NA,NA,NA,NA,NA,NA,NA,NA,NA,NA,NA,NA
ba76c,check continue,flow.Sequence,5_0_7,NA,NA,skipped,NA,962304,NA,NA,962087,962304,2023-10-19T12:46:40Z,962854.26,NULL,NA,NA,NA,NA,NA,NA,NA,df,NA,7,NA,NA,NA,NA,NA,NA,NA,NA,NA,NA,NA,NA,NA,NA,NA,NA,NA,NA,NA
ba76c,check continue,flow.Sequence,5_0_8,NA,NA,skipped,NA,962331,NA,NA,962087,962331,2023-10-19T12:46:40Z,962854.26,NULL,NA,NA,NA,NA,NA,NA,NA,dfs,NA,8,NA,NA,NA,NA,NA,NA,NA,NA,NA,NA,NA,NA,NA,NA,NA,NA,NA,NA,NA
ba76c,check continue,flow.Sequence,5_0_9,NA,NA,skipped,NA,962358,NA,NA,962087,962358,2023-10-19T12:46:40Z,962854.26,NULL,NA,NA,NA,NA,NA,NA,NA,dsf,NA,9,NA,NA,NA,NA,NA,NA,NA,NA,NA,NA,NA,NA,NA,NA,NA,NA,NA,NA,NA
ba76c,check continue,flow.Sequence,5_0_10,NA,NA,skipped,NA,962384,NA,NA,962087,962384,2023-10-19T12:46:40Z,962854.26,NULL,NA,NA,NA,NA,NA,NA,NA,df,NA,10,NA,NA,NA,NA,NA,NA,NA,NA,NA,NA,NA,NA,NA,NA,NA,NA,NA,NA,NA
ba76c,check continue,flow.Sequence,5_0_11,NA,NA,skipped,NA,962410,NA,NA,962087,962410,2023-10-19T12:46:40Z,962854.26,NULL,NA,NA,NA,NA,NA,NA,NA,dfs,NA,11,NA,NA,NA,NA,NA,NA,NA,NA,NA,NA,NA,NA,NA,NA,NA,NA,NA,NA,NA
ba76c,check continue,flow.Sequence,5_0_12,NA,NA,skipped,NA,962433,NA,NA,962087,962433,2023-10-19T12:46:40Z,962854.26,NULL,NA,NA,NA,NA,NA,NA,NA,dsf,NA,12,NA,NA,NA,NA,NA,NA,NA,NA,NA,NA,NA,NA,NA,NA,NA,NA,NA,NA,NA
ba76c,check continue,flow.Sequence,5_0_13,NA,NA,skipped,NA,962460,NA,NA,962087,962461,2023-10-19T12:46:41Z,962854.26,NULL,NA,NA,NA,NA,NA,NA,NA,dsf,NA,13,NA,NA,NA,NA,NA,NA,NA,NA,NA,NA,NA,NA,NA,NA,NA,NA,NA,NA,NA
ba76c,check continue,flow.Sequence,5_0_14,NA,NA,skipped,NA,962484,NA,NA,962087,962484,2023-10-19T12:46:41Z,962854.26,NULL,NA,NA,NA,NA,NA,NA,NA,NA,NA,14,NA,NA,NA,NA,NA,NA,NA,NA,NA,NA,NA,NA,NA,NA,NA,NA,NA,NA,NA
ba76c,check continue,flow.Sequence,5_0_15,NA,NA,skipped,NA,962509,NA,NA,962087,962509,2023-10-19T12:46:41Z,962854.26,NULL,NA,NA,NA,NA,NA,NA,NA,NA,NA,15,NA,NA,NA,NA,NA,NA,NA,NA,NA,NA,NA,NA,NA,NA,NA,NA,NA,NA,NA
ba76c,check continue,flow.Sequence,5_0_16,NA,NA,skipped,NA,962536,NA,NA,962087,962536,2023-10-19T12:46:41Z,962854.26,NULL,NA,NA,NA,NA,NA,NA,NA,NA,NA,16,NA,NA,NA,NA,NA,NA,NA,NA,NA,NA,NA,NA,NA,NA,NA,NA,NA,NA,NA
ba76c,check continue,flow.Sequence,5_0_17,NA,NA,skipped,NA,962559,NA,NA,962087,962559,2023-10-19T12:46:41Z,962854.26,NULL,NA,NA,NA,NA,NA,NA,NA,NA,NA,17,NA,NA,NA,NA,NA,NA,NA,NA,NA,NA,NA,NA,NA,NA,NA,NA,NA,NA,NA
ba76c,check continue,flow.Sequence,5_0_18,NA,NA,skipped,NA,962583,NA,NA,962087,962583,2023-10-19T12:46:41Z,962854.26,NULL,NA,NA,NA,NA,NA,NA,NA,NA,NA,18,NA,NA,NA,NA,NA,NA,NA,NA,NA,NA,NA,NA,NA,NA,NA,NA,NA,NA,NA
ba76c,check continue,flow.Sequence,5_0_19,NA,NA,skipped,NA,962610,NA,NA,962087,962610,2023-10-19T12:46:41Z,962854.26,NULL,NA,NA,NA,NA,NA,NA,NA,NA,NA,19,NA,NA,NA,NA,NA,NA,NA,NA,NA,NA,NA,NA,NA,NA,NA,NA,NA,NA,NA
ba76c,check continue,flow.Sequence,5_0_20,NA,NA,skipped,NA,962633,NA,NA,962087,962633,2023-10-19T12:46:41Z,962854.26,NULL,NA,NA,NA,NA,NA,NA,NA,NA,NA,20,NA,NA,NA,NA,NA,NA,NA,NA,NA,NA,NA,NA,NA,NA,NA,NA,NA,NA,NA
ba76c,check continue,flow.Sequence,5_0_21,NA,NA,skipped,NA,962656,NA,NA,962087,962656,2023-10-19T12:46:41Z,962854.26,NULL,NA,NA,NA,NA,NA,NA,NA,NA,NA,21,NA,NA,NA,NA,NA,NA,NA,NA,NA,NA,NA,NA,NA,NA,NA,NA,NA,NA,NA
ba76c,check continue,flow.Sequence,5_0_22,NA,NA,skipped,NA,962681,NA,NA,962087,962681,2023-10-19T12:46:41Z,962854.26,NULL,NA,NA,NA,NA,NA,NA,NA,NA,NA,22,NA,NA,NA,NA,NA,NA,NA,NA,NA,NA,NA,NA,NA,NA,NA,NA,NA,NA,NA
ba76c,check continue,flow.Sequence,5_0_23,NA,NA,skipped,NA,962705,NA,NA,962087,962705,2023-10-19T12:46:41Z,962854.26,NULL,NA,NA,NA,NA,NA,NA,NA,NA,NA,23,NA,NA,NA,NA,NA,NA,NA,NA,NA,NA,NA,NA,NA,NA,NA,NA,NA,NA,NA
ba76c,check continue,flow.Sequence,5_0_24,NA,NA,skipped,NA,962732,NA,NA,962087,962732,2023-10-19T12:46:41Z,962854.26,NULL,NA,NA,NA,NA,NA,NA,NA,NA,NA,24,NA,NA,NA,NA,NA,NA,NA,NA,NA,NA,NA,NA,NA,NA,NA,NA,NA,NA,NA
ba76c,check continue,flow.Sequence,5_0_25,NA,NA,skipped,NA,962758,NA,NA,962087,962758,2023-10-19T12:46:41Z,962854.26,NULL,NA,NA,NA,NA,NA,NA,NA,NA,NA,25,NA,NA,NA,NA,NA,NA,NA,NA,NA,NA,NA,NA,NA,NA,NA,NA,NA,NA,NA
ba76c,check continue,flow.Sequence,5_0_26,NA,NA,skipped,NA,962782,NA,NA,962087,962782,2023-10-19T12:46:41Z,962854.26,NULL,NA,NA,NA,NA,NA,NA,NA,NA,NA,26,NA,NA,NA,NA,NA,NA,NA,NA,NA,NA,NA,NA,NA,NA,NA,NA,NA,NA,NA
ba76c,check continue,flow.Sequence,5_0_27,NA,NA,skipped,NA,962807,NA,NA,962087,962807,2023-10-19T12:46:41Z,962854.26,NULL,NA,NA,NA,NA,NA,NA,NA,NA,NA,27,NA,NA,NA,NA,NA,NA,NA,NA,NA,NA,NA,NA,NA,NA,NA,NA,NA,NA,NA
ba76c,check continue,flow.Sequence,5_0_28,NA,NA,skipped,NA,962830,NA,NA,962087,962830,2023-10-19T12:46:41Z,962854.26,NULL,NA,NA,NA,NA,NA,NA,NA,NA,NA,28,NA,NA,NA,NA,NA,NA,NA,NA,NA,NA,NA,NA,NA,NA,NA,NA,NA,NA,NA
ba76c,check continue,flow.Sequence,5_0_29,NA,NA,skipped,NA,962853,NA,NA,962087,962853,2023-10-19T12:46:41Z,962854.26,NULL,NA,NA,NA,NA,NA,NA,NA,NA,NA,29,NA,NA,NA,NA,NA,NA,NA,NA,NA,NA,NA,NA,NA,NA,NA,NA,NA,NA,NA
ba76c,until continue,flow.Loop,5_0,NA,NA,completion,293288.96,668772,668797.74,668798.04,962087,962853,2023-10-19T12:46:41Z,962854.26,NULL,NA,NA,NA,NA,NA,NA,NA,NA,NA,NA,NA,NA,NA,NA,NA,NA,NA,NA,NA,NA,NA,NA,NA,NA,NA,NA,NA,NA,NA
ba76c,block 2,flow.Sequence,5,NA,NA,completion,293288.96,668772,668797.74,668798.04,962087,962853,2023-10-19T12:46:41Z,962854.26,NULL,NA,NA,NA,NA,NA,NA,NA,NA,NA,NA,NA,NA,NA,NA,NA,NA,NA,NA,NA,NA,NA,NA,NA,NA,NA,NA,NA,NA,NA
ba76c,2.Part Over,canvas.Screen,6,NA,keypress(Space),response,1747.74,962853,962853.86,962854.26,964602,964618,2023-10-19T12:46:43Z,964679.04,NULL,NA,NA,NA,NA,NA,NA,NA,NA,NA,NA,NA,NA,NA,NA,NA,NA,NA,NA,NA,NA,NA,NA,NA,NA,NA,NA,NA,NA,NA
ba76c,Deep Question,html.Page,7_0_0_0_0_0_0,NA,NA,form submission,5137.96,964679,964678.72,964679.04,969817,969817,2023-10-19T12:46:48Z,969823.66,NULL,Konkurrent,mshindani,d,NA,NA,NA,k,NA,NA,0,NA,NA,NA,NA,NA,NA,NA,NA,NA,NA,NA,NA,NA,NA,NA,NA,NA,NA,NA
ba76c,"""Richtig""-Screen",canvas.Screen,7_0_0_0_0_0_1,NA,NA,skipped,NA,969820,NA,NA,969817,969820,2023-10-19T12:46:48Z,969823.66,NULL,Konkurrent,mshindani,d,NA,NA,NA,NA,sdf,NA,0,NA,NA,NA,NA,NA,NA,NA,NA,NA,NA,NA,NA,NA,NA,NA,NA,NA,NA,NA
ba76c,"""Falsch""-Screen",canvas.Screen,7_0_0_0_0_0_2,NA,NA,timeout,4999.4,969822,969816.32,969823.66,974806.42,974807,2023-10-19T12:46:53Z,974823.06,NULL,Konkurrent,mshindani,d,NA,NA,NA,NA,sdf,0,0,NA,NA,NA,NA,NA,NA,NA,NA,NA,NA,NA,NA,NA,NA,NA,NA,NA,NA,NA
ba76c,deep,flow.Sequence,7_0_0_0_0_0,NA,NA,completion,10127.38,964679,964678.72,964679.04,974806.42,974809,2023-10-19T12:46:53Z,974823.06,NULL,Konkurrent,mshindani,d,NA,NA,NA,NA,sdf,NA,0,NA,NA,NA,NA,NA,NA,NA,NA,NA,NA,NA,NA,NA,NA,NA,NA,NA,NA,NA
ba76c,shallow,flow.Sequence,7_0_0_0_0_1,NA,NA,skipped,NA,974809,NA,NA,974806.42,974809,2023-10-19T12:46:53Z,974823.06,NULL,Konkurrent,mshindani,d,NA,NA,NA,NA,sdf,NA,0,NA,NA,NA,NA,NA,NA,NA,NA,NA,NA,NA,NA,NA,NA,NA,NA,NA,NA,NA
ba76c,task,flow.Sequence,7_0_0_0_0,NA,NA,completion,10127.38,964679,964678.72,964679.04,974806.42,974809,2023-10-19T12:46:53Z,974823.06,NULL,Konkurrent,mshindani,d,NA,NA,NA,NA,sdf,NA,0,NA,NA,NA,NA,NA,NA,NA,NA,NA,NA,NA,NA,NA,NA,NA,NA,NA,NA,NA
ba76c,Deep Question,html.Page,7_0_0_0_1_0_0,NA,NA,form submission,13976.94,974810,974806.42,974823.06,988800,988800,2023-10-19T12:47:07Z,988804.56,NULL,Vorsorge,tahadhari,d,NA,NA,NA,mshindani,NA,NA,0,NA,NA,NA,NA,NA,NA,NA,NA,NA,NA,NA,NA,NA,NA,NA,NA,NA,NA,NA
ba76c,"""Richtig""-Screen",canvas.Screen,7_0_0_0_1_0_1,NA,NA,skipped,NA,988802,NA,NA,988800,988802,2023-10-19T12:47:07Z,988804.56,NULL,Vorsorge,tahadhari,d,NA,NA,NA,NA,sdf,NA,0,NA,NA,NA,NA,NA,NA,NA,NA,NA,NA,NA,NA,NA,NA,NA,NA,NA,NA,NA
ba76c,"""Falsch""-Screen",canvas.Screen,7_0_0_0_1_0_2,NA,NA,timeout,4999.4199999999,988803,988799.26,988804.56,993787.6,993791,2023-10-19T12:47:12Z,993803.98,NULL,Vorsorge,tahadhari,d,NA,NA,NA,NA,sdf,0,0,NA,NA,NA,NA,NA,NA,NA,NA,NA,NA,NA,NA,NA,NA,NA,NA,NA,NA,NA
ba76c,deep,flow.Sequence,7_0_0_0_1_0,NA,NA,completion,18964.54,974810,974806.42,974823.06,993787.6,993793,2023-10-19T12:47:12Z,993803.98,NULL,Vorsorge,tahadhari,d,NA,NA,NA,NA,sdf,NA,0,NA,NA,NA,NA,NA,NA,NA,NA,NA,NA,NA,NA,NA,NA,NA,NA,NA,NA,NA
ba76c,shallow,flow.Sequence,7_0_0_0_1_1,NA,NA,skipped,NA,993793,NA,NA,993787.6,993793,2023-10-19T12:47:12Z,993803.98,NULL,Vorsorge,tahadhari,d,NA,NA,NA,NA,sdf,NA,0,NA,NA,NA,NA,NA,NA,NA,NA,NA,NA,NA,NA,NA,NA,NA,NA,NA,NA,NA
ba76c,task,flow.Sequence,7_0_0_0_1,NA,NA,completion,18964.54,974809,974806.42,974823.06,993787.6,993795,2023-10-19T12:47:12Z,993803.98,NULL,Vorsorge,tahadhari,d,NA,NA,NA,NA,sdf,NA,0,NA,NA,NA,NA,NA,NA,NA,NA,NA,NA,NA,NA,NA,NA,NA,NA,NA,NA,NA
ba76c,Deep Question,html.Page,7_0_0_0_2_0_0,NA,NA,form submission,49596.02,993796,993787.6,993803.98,1043400,1043400,2023-10-19T12:48:01Z,1043397.62,NULL,System,maongozi,d,NA,NA,NA,"tahadhari Vorsorge, ushindani Konkurrent",NA,NA,0,NA,NA,NA,NA,NA,NA,NA,NA,NA,NA,NA,NA,NA,NA,NA,NA,NA,NA,NA
ba76c,"""Richtig""-Screen",canvas.Screen,7_0_0_0_2_0_1,NA,NA,skipped,NA,1043408,NA,NA,1043400,1043408,2023-10-19T12:48:01Z,1043397.62,NULL,System,maongozi,d,NA,NA,NA,NA,sdf,NA,0,NA,NA,NA,NA,NA,NA,NA,NA,NA,NA,NA,NA,NA,NA,NA,NA,NA,NA,NA
ba76c,"""Falsch""-Screen",canvas.Screen,7_0_0_0_2_0_2,NA,NA,timeout,5001.04,1043411,1043395.32,1043397.62,1048380.38,1048382,2023-10-19T12:48:06Z,1048398.66,NULL,System,maongozi,d,NA,NA,NA,NA,sdf,0,0,NA,NA,NA,NA,NA,NA,NA,NA,NA,NA,NA,NA,NA,NA,NA,NA,NA,NA,NA
ba76c,deep,flow.Sequence,7_0_0_0_2_0,NA,NA,completion,54576.4,993796,993787.6,993803.98,1048380.38,1048382,2023-10-19T12:48:06Z,1048398.66,NULL,System,maongozi,d,NA,NA,NA,NA,sdf,NA,0,NA,NA,NA,NA,NA,NA,NA,NA,NA,NA,NA,NA,NA,NA,NA,NA,NA,NA,NA
ba76c,shallow,flow.Sequence,7_0_0_0_2_1,NA,NA,skipped,NA,1048382,NA,NA,1048380.38,1048383,2023-10-19T12:48:06Z,1048398.66,NULL,System,maongozi,d,NA,NA,NA,NA,sdf,NA,0,NA,NA,NA,NA,NA,NA,NA,NA,NA,NA,NA,NA,NA,NA,NA,NA,NA,NA,NA
ba76c,task,flow.Sequence,7_0_0_0_2,NA,NA,completion,54576.4,993796,993787.6,993803.98,1048380.38,1048383,2023-10-19T12:48:06Z,1048398.66,NULL,System,maongozi,d,NA,NA,NA,NA,sdf,NA,0,NA,NA,NA,NA,NA,NA,NA,NA,NA,NA,NA,NA,NA,NA,NA,NA,NA,NA,NA
ba76c,deep,flow.Sequence,7_0_0_0_3_0,NA,NA,skipped,NA,1048384,NA,NA,1048380.38,1048384,2023-10-19T12:48:06Z,1048398.66,NULL,Zuwachs,nyongeza,s,matilaba,udhibiti,hudhurio,NA,sdf,NA,0,NA,NA,NA,NA,NA,NA,NA,NA,NA,NA,NA,NA,NA,NA,NA,NA,NA,NA,NA
ba76c,Shallow Question,html.Page,7_0_0_0_3_1_0,NA,NA,form submission,13135.34,1048385,1048380.38,1048398.66,1061534,1061534,2023-10-19T12:48:20Z,1061532.94,NULL,Zuwachs,nyongeza,s,matilaba,udhibiti,hudhurio,udhibiti,NA,NA,0,NA,NA,NA,NA,NA,NA,NA,NA,NA,NA,NA,NA,NA,NA,NA,NA,NA,NA,NA
ba76c,"""Richtig""-Screen",canvas.Screen,7_0_0_0_3_1_1,NA,NA,skipped,NA,1061537,NA,NA,1061534,1061537,2023-10-19T12:48:20Z,1061532.94,NULL,Zuwachs,nyongeza,s,matilaba,udhibiti,hudhurio,NA,sdf,NA,0,NA,NA,NA,NA,NA,NA,NA,NA,NA,NA,NA,NA,NA,NA,NA,NA,NA,NA,NA
ba76c,"""Falsch""-Screen",canvas.Screen,7_0_0_0_3_1_2,NA,NA,timeout,4995.3,1061539,1061532.64,1061532.94,1066511.56,1066513,2023-10-19T12:48:25Z,1066528.24,NULL,Zuwachs,nyongeza,s,matilaba,udhibiti,hudhurio,NA,sdf,0,0,NA,NA,NA,NA,NA,NA,NA,NA,NA,NA,NA,NA,NA,NA,NA,NA,NA,NA,NA
ba76c,shallow,flow.Sequence,7_0_0_0_3_1,NA,NA,completion,18112.9,1048384,1048380.38,1048398.66,1066511.56,1066513,2023-10-19T12:48:25Z,1066528.24,NULL,Zuwachs,nyongeza,s,matilaba,udhibiti,hudhurio,NA,sdf,NA,0,NA,NA,NA,NA,NA,NA,NA,NA,NA,NA,NA,NA,NA,NA,NA,NA,NA,NA,NA
ba76c,task,flow.Sequence,7_0_0_0_3,NA,NA,completion,18112.9,1048384,1048380.38,1048398.66,1066511.56,1066514,2023-10-19T12:48:25Z,1066528.24,NULL,Zuwachs,nyongeza,s,matilaba,udhibiti,hudhurio,NA,sdf,NA,0,NA,NA,NA,NA,NA,NA,NA,NA,NA,NA,NA,NA,NA,NA,NA,NA,NA,NA,NA
ba76c,deep,flow.Sequence,7_0_0_0_4_0,NA,NA,skipped,NA,1066514,NA,NA,1066511.56,1066515,2023-10-19T12:48:25Z,1066528.24,NULL,Körper,kiwiliwili,s,mapambano,mpatanishi,kiolezo,NA,sdf,NA,0,NA,NA,NA,NA,NA,NA,NA,NA,NA,NA,NA,NA,NA,NA,NA,NA,NA,NA,NA
ba76c,Shallow Question,html.Page,7_0_0_0_4_1_0,NA,NA,form submission,18983.76,1066515,1066511.56,1066528.24,1085512,1085513,2023-10-19T12:48:44Z,1085525.54,NULL,Körper,kiwiliwili,s,mapambano,mpatanishi,kiolezo,mpatanishi,NA,NA,0,NA,NA,NA,NA,NA,NA,NA,NA,NA,NA,NA,NA,NA,NA,NA,NA,NA,NA,NA
ba76c,"""Richtig""-Screen",canvas.Screen,7_0_0_0_4_1_1,NA,NA,skipped,NA,1085518,NA,NA,1085512,1085518,2023-10-19T12:48:44Z,1085525.54,NULL,Körper,kiwiliwili,s,mapambano,mpatanishi,kiolezo,NA,sdf,NA,0,NA,NA,NA,NA,NA,NA,NA,NA,NA,NA,NA,NA,NA,NA,NA,NA,NA,NA,NA
ba76c,"""Falsch""-Screen",canvas.Screen,7_0_0_0_4_1_2,NA,NA,timeout,4999.3799999999,1085523,1085507.9,1085525.54,1090508.5,1090509,2023-10-19T12:48:49Z,1090524.92,NULL,Körper,kiwiliwili,s,mapambano,mpatanishi,kiolezo,NA,sdf,0,0,NA,NA,NA,NA,NA,NA,NA,NA,NA,NA,NA,NA,NA,NA,NA,NA,NA,NA,NA
ba76c,shallow,flow.Sequence,7_0_0_0_4_1,NA,NA,completion,23980.26,1066515,1066511.56,1066528.24,1090508.5,1090510,2023-10-19T12:48:49Z,1090524.92,NULL,Körper,kiwiliwili,s,mapambano,mpatanishi,kiolezo,NA,sdf,NA,0,NA,NA,NA,NA,NA,NA,NA,NA,NA,NA,NA,NA,NA,NA,NA,NA,NA,NA,NA
ba76c,task,flow.Sequence,7_0_0_0_4,NA,NA,completion,23980.26,1066514,1066511.56,1066528.24,1090508.5,1090510,2023-10-19T12:48:49Z,1090524.92,NULL,Körper,kiwiliwili,s,mapambano,mpatanishi,kiolezo,NA,sdf,NA,0,NA,NA,NA,NA,NA,NA,NA,NA,NA,NA,NA,NA,NA,NA,NA,NA,NA,NA,NA
ba76c,deep,flow.Sequence,7_0_0_0_5_0,NA,NA,skipped,NA,1090511,NA,NA,1090508.5,1090511,2023-10-19T12:48:49Z,1090524.92,NULL,Symbol,kielezo,s,kinyume,nderemo,utayari,NA,sdf,NA,0,NA,NA,NA,NA,NA,NA,NA,NA,NA,NA,NA,NA,NA,NA,NA,NA,NA,NA,NA
ba76c,Shallow Question,html.Page,7_0_0_0_5_1_0,NA,NA,form submission,8327.0800000001,1090511,1090508.5,1090524.92,1098852,1098853,2023-10-19T12:48:57Z,1098857.16,NULL,Symbol,kielezo,s,kinyume,nderemo,utayari,utayari,NA,NA,0,NA,NA,NA,NA,NA,NA,NA,NA,NA,NA,NA,NA,NA,NA,NA,NA,NA,NA,NA
ba76c,"""Richtig""-Screen",canvas.Screen,7_0_0_0_5_1_1,NA,NA,skipped,NA,1098857,NA,NA,1098852,1098857,2023-10-19T12:48:57Z,1098857.16,NULL,Symbol,kielezo,s,kinyume,nderemo,utayari,NA,sdf,NA,0,NA,NA,NA,NA,NA,NA,NA,NA,NA,NA,NA,NA,NA,NA,NA,NA,NA,NA,NA
ba76c,"""Falsch""-Screen",canvas.Screen,7_0_0_0_5_1_2,NA,NA,timeout,4999.4000000001,1098861,1098847.26,1098857.16,1103839.94,1103841,2023-10-19T12:49:02Z,1103856.56,NULL,Symbol,kielezo,s,kinyume,nderemo,utayari,NA,sdf,0,0,NA,NA,NA,NA,NA,NA,NA,NA,NA,NA,NA,NA,NA,NA,NA,NA,NA,NA,NA
ba76c,shallow,flow.Sequence,7_0_0_0_5_1,NA,NA,completion,13315.02,1090511,1090508.5,1090524.92,1103839.94,1103842,2023-10-19T12:49:02Z,1103856.56,NULL,Symbol,kielezo,s,kinyume,nderemo,utayari,NA,sdf,NA,0,NA,NA,NA,NA,NA,NA,NA,NA,NA,NA,NA,NA,NA,NA,NA,NA,NA,NA,NA
ba76c,task,flow.Sequence,7_0_0_0_5,NA,NA,completion,13315.02,1090510,1090508.5,1090524.92,1103839.94,1103843,2023-10-19T12:49:02Z,1103856.56,NULL,Symbol,kielezo,s,kinyume,nderemo,utayari,NA,sdf,NA,0,NA,NA,NA,NA,NA,NA,NA,NA,NA,NA,NA,NA,NA,NA,NA,NA,NA,NA,NA
ba76c,deep,flow.Sequence,7_0_0_0_6_0,NA,NA,skipped,NA,1103843,NA,NA,1103839.94,1103843,2023-10-19T12:49:02Z,1103856.56,NULL,Übersicht,kilindo,s,mgusano,chipukizi,kulinganisha,NA,sdf,NA,0,NA,NA,NA,NA,NA,NA,NA,NA,NA,NA,NA,NA,NA,NA,NA,NA,NA,NA,NA
ba76c,Shallow Question,html.Page,7_0_0_0_6_1_0,NA,NA,form submission,5093.4399999999,1103844,1103839.94,1103856.56,1108950,1108951,2023-10-19T12:49:07Z,1108955.92,NULL,Übersicht,kilindo,s,mgusano,chipukizi,kulinganisha,kilindo,NA,NA,0,NA,NA,NA,NA,NA,NA,NA,NA,NA,NA,NA,NA,NA,NA,NA,NA,NA,NA,NA
ba76c,"""Richtig""-Screen",canvas.Screen,7_0_0_0_6_1_1,NA,NA,timeout,4999.3400000001,1108957,1108945.16,1108955.92,1113938.82,1113939,2023-10-19T12:49:12Z,1113955.26,NULL,Übersicht,kilindo,s,mgusano,chipukizi,kulinganisha,NA,sdf,1,0,NA,NA,NA,NA,NA,NA,NA,NA,NA,NA,NA,NA,NA,NA,NA,NA,NA,NA,NA
ba76c,"""Falsch""-Screen",canvas.Screen,7_0_0_0_6_1_2,NA,NA,skipped,NA,1113942,NA,NA,1113938.82,1113942,2023-10-19T12:49:12Z,1113955.26,NULL,Übersicht,kilindo,s,mgusano,chipukizi,kulinganisha,NA,sdf,NA,0,NA,NA,NA,NA,NA,NA,NA,NA,NA,NA,NA,NA,NA,NA,NA,NA,NA,NA,NA
ba76c,shallow,flow.Sequence,7_0_0_0_6_1,NA,NA,completion,10082.26,1103844,1103839.94,1103856.56,1113938.82,1113942,2023-10-19T12:49:12Z,1113955.26,NULL,Übersicht,kilindo,s,mgusano,chipukizi,kulinganisha,NA,sdf,NA,0,NA,NA,NA,NA,NA,NA,NA,NA,NA,NA,NA,NA,NA,NA,NA,NA,NA,NA,NA
ba76c,task,flow.Sequence,7_0_0_0_6,NA,NA,completion,10082.26,1103843,1103839.94,1103856.56,1113938.82,1113942,2023-10-19T12:49:12Z,1113955.26,NULL,Übersicht,kilindo,s,mgusano,chipukizi,kulinganisha,NA,sdf,NA,0,NA,NA,NA,NA,NA,NA,NA,NA,NA,NA,NA,NA,NA,NA,NA,NA,NA,NA,NA
