observation,sender,sender_type,sender_id,response,response_action,ended_on,duration,time_run,time_render,time_show,time_end,time_commit,timestamp,time_switch,german,swahili,enc,distractor1,distractor2,distractor3,response_2,x,correct,distractors,url_vp,url_sess,meta_labjs_version,meta_location,meta_user_agent,meta_platform,meta_language,meta_locale,meta_time_zone,meta_timezone_offset,meta_screen_width,meta_screen_height,meta_scroll_width,meta_scroll_height,meta_window_inner_width,meta_window_inner_height,meta_device_pixel_ratio,meta_labjs_build_flavor,meta_labjs_build_commit
4c012,Introduction delayed retrieval,canvas.Screen,0,weiter,keypress(Space),response,1346.051,1347.8000000119,1157.961,1457.949,2804,2811.3999999762,2023-11-30T10:27:45Z,2807.895,NA,NA,NA,NA,NA,NA,NA,NA,NA,NULL,187,4,20.2.4,https://neurocog.fernuni.ch/studies/vweber/sliechti/delayed/index.html?vp=187&sess=4,"Mozilla/5.0 (Macintosh; Intel Mac OS X 10_15_7) AppleWebKit/537.36 (KHTML, like Gecko) Chrome/116.0.0.0 Safari/537.36",MacIntel,de-DE,de,Europe/Zurich,-60,1440,900,1383,744,1383,792,2,production,f5b4a49f956347addd546a832a3327688c2c0fef
4c012,Deep Question,html.Page,1_0_0_0,NA,NA,form submission,13238.105,2812,2791.229,2807.895,16046,16046.300000012,2023-11-30T10:27:59Z,16045.903,Kreativität,ubunifu,d,mratibu,mwendelezo,makubaliano,abc,NA,NA,NULL,NA,NA,NA,NA,NA,NA,NA,NA,NA,NA,NA,NA,NA,NA,NA,NA,NA,NA,NA
4c012,Save data screen,canvas.Screen,1_0_0_1,NA,NA,timeout,499.98,16047.199999988,16029.237,16045.903,16529.217,16535.199999988,2023-11-30T10:27:59Z,16545.883,Kreativität,ubunifu,d,mratibu,mwendelezo,makubaliano,NA,NA,0,NULL,NA,NA,NA,NA,NA,NA,NA,NA,NA,NA,NA,NA,NA,NA,NA,NA,NA,NA,NA
4c012,deep,flow.Sequence,1_0_0,NA,NA,completion,13721.322,2812,2791.229,2807.895,16529.217,16535.399999976,2023-11-30T10:27:59Z,16545.883,Kreativität,ubunifu,d,mratibu,mwendelezo,makubaliano,NA,NA,NA,NULL,NA,NA,NA,NA,NA,NA,NA,NA,NA,NA,NA,NA,NA,NA,NA,NA,NA,NA,NA
4c012,task,flow.Sequence,1_0,NA,NA,completion,13721.322,2812,2791.229,2807.895,16529.217,16535.5,2023-11-30T10:27:59Z,16545.883,Kreativität,ubunifu,d,mratibu,mwendelezo,makubaliano,NA,NA,NA,NULL,NA,NA,NA,NA,NA,NA,NA,NA,NA,NA,NA,NA,NA,NA,NA,NA,NA,NA,NA
4c012,Deep Question,html.Page,1_1_0_0,NA,NA,form submission,9178.4170000119,16535.800000012,16529.217,16545.883,25724.300000012,25724.699999988,2023-11-30T10:28:08Z,25733.766,Abrechnung,uhasibu,s,kusahihisha,mpambano,mashambulizi,abc,NA,NA,NULL,NA,NA,NA,NA,NA,NA,NA,NA,NA,NA,NA,NA,NA,NA,NA,NA,NA,NA,NA
4c012,Save data screen,canvas.Screen,1_1_0_1,NA,NA,timeout,499.98,25725.5,25717.1,25733.766,26217.08,26220.399999976,2023-11-30T10:28:09Z,26233.746,Abrechnung,uhasibu,s,kusahihisha,mpambano,mashambulizi,NA,NA,0,NULL,NA,NA,NA,NA,NA,NA,NA,NA,NA,NA,NA,NA,NA,NA,NA,NA,NA,NA,NA
4c012,deep,flow.Sequence,1_1_0,NA,NA,completion,9671.197,16535.699999988,16529.217,16545.883,26217.08,26220.599999964,2023-11-30T10:28:09Z,26233.746,Abrechnung,uhasibu,s,kusahihisha,mpambano,mashambulizi,NA,NA,NA,NULL,NA,NA,NA,NA,NA,NA,NA,NA,NA,NA,NA,NA,NA,NA,NA,NA,NA,NA,NA
4c012,task,flow.Sequence,1_1,NA,NA,completion,9671.197,16535.599999964,16529.217,16545.883,26217.08,26220.899999976,2023-11-30T10:28:09Z,26233.746,Abrechnung,uhasibu,s,kusahihisha,mpambano,mashambulizi,NA,NA,NA,NULL,NA,NA,NA,NA,NA,NA,NA,NA,NA,NA,NA,NA,NA,NA,NA,NA,NA,NA,NA
4c012,Deep Question,html.Page,1_2_0_0,NA,NA,form submission,5477.254,26221,26217.08,26233.746,31711,31711.300000012,2023-11-30T10:28:14Z,31737.429,Verzögerung,kuchelewa,s,mwakilishi,mwanauchumi,jaribio,kuhlewa¨,NA,NA,NULL,NA,NA,NA,NA,NA,NA,NA,NA,NA,NA,NA,NA,NA,NA,NA,NA,NA,NA,NA
4c012,Save data screen,canvas.Screen,1_2_0_1,NA,NA,timeout,499.98,31712.099999964,31720.763,31737.429,32220.743,32224.699999988,2023-11-30T10:28:15Z,32237.409,Verzögerung,kuchelewa,s,mwakilishi,mwanauchumi,jaribio,NA,NA,0,NULL,NA,NA,NA,NA,NA,NA,NA,NA,NA,NA,NA,NA,NA,NA,NA,NA,NA,NA,NA
4c012,deep,flow.Sequence,1_2_0,NA,NA,completion,5986.997,26221,26217.08,26233.746,32220.743,32225.199999988,2023-11-30T10:28:15Z,32237.409,Verzögerung,kuchelewa,s,mwakilishi,mwanauchumi,jaribio,NA,NA,NA,NULL,NA,NA,NA,NA,NA,NA,NA,NA,NA,NA,NA,NA,NA,NA,NA,NA,NA,NA,NA
4c012,task,flow.Sequence,1_2,NA,NA,completion,5986.997,26220.899999976,26217.08,26233.746,32220.743,32225.5,2023-11-30T10:28:15Z,32237.409,Verzögerung,kuchelewa,s,mwakilishi,mwanauchumi,jaribio,NA,NA,NA,NULL,NA,NA,NA,NA,NA,NA,NA,NA,NA,NA,NA,NA,NA,NA,NA,NA,NA,NA,NA
4c012,Deep Question,html.Page,1_3_0_0,NA,NA,form submission,9155.3910000119,32225.599999964,32220.743,32237.409,41392.800000012,41393.300000012,2023-11-30T10:28:24Z,41409.017,Gefährdung,kuhatarisha,s,uchokozi,udhaifu,makorowezo,abc,NA,NA,NULL,NA,NA,NA,NA,NA,NA,NA,NA,NA,NA,NA,NA,NA,NA,NA,NA,NA,NA,NA
4c012,Save data screen,canvas.Screen,1_3_0_1,NA,NA,timeout,499.98,41394.300000012,41392.351,41409.017,41892.331,41895.899999976,2023-11-30T10:28:24Z,41908.997,Gefährdung,kuhatarisha,s,uchokozi,udhaifu,makorowezo,NA,NA,0,NULL,NA,NA,NA,NA,NA,NA,NA,NA,NA,NA,NA,NA,NA,NA,NA,NA,NA,NA,NA
4c012,deep,flow.Sequence,1_3_0,NA,NA,completion,9654.922,32225.599999964,32220.743,32237.409,41892.331,41896.199999988,2023-11-30T10:28:24Z,41908.997,Gefährdung,kuhatarisha,s,uchokozi,udhaifu,makorowezo,NA,NA,NA,NULL,NA,NA,NA,NA,NA,NA,NA,NA,NA,NA,NA,NA,NA,NA,NA,NA,NA,NA,NA
4c012,task,flow.Sequence,1_3,NA,NA,completion,9654.922,32225.599999964,32220.743,32237.409,41892.331,41896.399999976,2023-11-30T10:28:24Z,41908.997,Gefährdung,kuhatarisha,s,uchokozi,udhaifu,makorowezo,NA,NA,NA,NULL,NA,NA,NA,NA,NA,NA,NA,NA,NA,NA,NA,NA,NA,NA,NA,NA,NA,NA,NA
4c012,Deep Question,html.Page,1_4_0_0,NA,NA,form submission,11781.503,41896.699999988,41892.331,41908.997,53690.5,53691,2023-11-30T10:28:36Z,53699.922,Angreifer,mshambulizi,d,kitengo,tasinia,usafirishaji,mshabulizi,NA,NA,NULL,NA,NA,NA,NA,NA,NA,NA,NA,NA,NA,NA,NA,NA,NA,NA,NA,NA,NA,NA
4c012,Save data screen,canvas.Screen,1_4_0_1,NA,NA,timeout,499.98,53692,53683.256,53699.922,54183.236,54185.099999964,2023-11-30T10:28:37Z,54199.902,Angreifer,mshambulizi,d,kitengo,tasinia,usafirishaji,NA,NA,0,NULL,NA,NA,NA,NA,NA,NA,NA,NA,NA,NA,NA,NA,NA,NA,NA,NA,NA,NA,NA
4c012,deep,flow.Sequence,1_4_0,NA,NA,completion,12274.239,41896.599999964,41892.331,41908.997,54183.236,54185.5,2023-11-30T10:28:37Z,54199.902,Angreifer,mshambulizi,d,kitengo,tasinia,usafirishaji,NA,NA,NA,NULL,NA,NA,NA,NA,NA,NA,NA,NA,NA,NA,NA,NA,NA,NA,NA,NA,NA,NA,NA
4c012,task,flow.Sequence,1_4,NA,NA,completion,12274.239,41896.599999964,41892.331,41908.997,54183.236,54185.699999988,2023-11-30T10:28:37Z,54199.902,Angreifer,mshambulizi,d,kitengo,tasinia,usafirishaji,NA,NA,NA,NULL,NA,NA,NA,NA,NA,NA,NA,NA,NA,NA,NA,NA,NA,NA,NA,NA,NA,NA,NA
4c012,Deep Question,html.Page,1_5_0_0,NA,NA,form submission,4868.098,54185.899999976,54183.236,54199.902,59068,59068.300000012,2023-11-30T10:28:42Z,59083.04,Kultur,utamaduni,s,shetani,gerezani,mazingira,uteka,NA,NA,NULL,NA,NA,NA,NA,NA,NA,NA,NA,NA,NA,NA,NA,NA,NA,NA,NA,NA,NA,NA
4c012,Save data screen,canvas.Screen,1_5_0_1,NA,NA,timeout,499.98,59069.5,59066.374,59083.04,59566.354,59570.899999976,2023-11-30T10:28:42Z,59583.02,Kultur,utamaduni,s,shetani,gerezani,mazingira,NA,NA,0,NULL,NA,NA,NA,NA,NA,NA,NA,NA,NA,NA,NA,NA,NA,NA,NA,NA,NA,NA,NA
4c012,deep,flow.Sequence,1_5_0,NA,NA,completion,5366.452,54185.899999976,54183.236,54199.902,59566.354,59571.300000012,2023-11-30T10:28:42Z,59583.02,Kultur,utamaduni,s,shetani,gerezani,mazingira,NA,NA,NA,NULL,NA,NA,NA,NA,NA,NA,NA,NA,NA,NA,NA,NA,NA,NA,NA,NA,NA,NA,NA
4c012,task,flow.Sequence,1_5,NA,NA,completion,5366.452,54185.800000012,54183.236,54199.902,59566.354,59571.599999964,2023-11-30T10:28:42Z,59583.02,Kultur,utamaduni,s,shetani,gerezani,mazingira,NA,NA,NA,NULL,NA,NA,NA,NA,NA,NA,NA,NA,NA,NA,NA,NA,NA,NA,NA,NA,NA,NA,NA
4c012,Deep Question,html.Page,1_6_0_0,NA,NA,form submission,8745.3799999762,59571.699999988,59566.354,59583.02,68328.399999976,68328.899999976,2023-11-30T10:28:51Z,68337.973,Kontrolle,kudhibiti,s,mbinguni,kufunga,utegemezi,abc,NA,NA,NULL,NA,NA,NA,NA,NA,NA,NA,NA,NA,NA,NA,NA,NA,NA,NA,NA,NA,NA,NA
4c012,Save data screen,canvas.Screen,1_6_0_1,NA,NA,timeout,499.98,68332,68321.307,68337.973,68821.287,68825.199999988,2023-11-30T10:28:51Z,68837.953,Kontrolle,kudhibiti,s,mbinguni,kufunga,utegemezi,NA,NA,0,NULL,NA,NA,NA,NA,NA,NA,NA,NA,NA,NA,NA,NA,NA,NA,NA,NA,NA,NA,NA
4c012,deep,flow.Sequence,1_6_0,NA,NA,completion,9238.267,59571.699999988,59566.354,59583.02,68821.287,68825.5,2023-11-30T10:28:51Z,68837.953,Kontrolle,kudhibiti,s,mbinguni,kufunga,utegemezi,NA,NA,NA,NULL,NA,NA,NA,NA,NA,NA,NA,NA,NA,NA,NA,NA,NA,NA,NA,NA,NA,NA,NA
4c012,task,flow.Sequence,1_6,NA,NA,completion,9238.267,59571.599999964,59566.354,59583.02,68821.287,68825.599999964,2023-11-30T10:28:51Z,68837.953,Kontrolle,kudhibiti,s,mbinguni,kufunga,utegemezi,NA,NA,NA,NULL,NA,NA,NA,NA,NA,NA,NA,NA,NA,NA,NA,NA,NA,NA,NA,NA,NA,NA,NA
4c012,Deep Question,html.Page,1_7_0_0,NA,NA,form submission,2070.547,68825.899999976,68821.287,68837.953,70908.5,70908.899999976,2023-11-30T10:28:53Z,70921.203,Prüfung,mtihani,d,mkulima,mtizamo,ufumbuzi,abc,NA,NA,NULL,NA,NA,NA,NA,NA,NA,NA,NA,NA,NA,NA,NA,NA,NA,NA,NA,NA,NA,NA
4c012,Save data screen,canvas.Screen,1_7_0_1,NA,NA,timeout,508.16100000001,70911.699999988,70904.537,70921.203,71412.698,71417.099999964,2023-11-30T10:28:54Z,71429.364,Prüfung,mtihani,d,mkulima,mtizamo,ufumbuzi,NA,NA,0,NULL,NA,NA,NA,NA,NA,NA,NA,NA,NA,NA,NA,NA,NA,NA,NA,NA,NA,NA,NA
4c012,deep,flow.Sequence,1_7_0,NA,NA,completion,2574.745,68825.899999976,68821.287,68837.953,71412.698,71417.399999976,2023-11-30T10:28:54Z,71429.364,Prüfung,mtihani,d,mkulima,mtizamo,ufumbuzi,NA,NA,NA,NULL,NA,NA,NA,NA,NA,NA,NA,NA,NA,NA,NA,NA,NA,NA,NA,NA,NA,NA,NA
4c012,task,flow.Sequence,1_7,NA,NA,completion,2574.745,68825.800000012,68821.287,68837.953,71412.698,71417.699999988,2023-11-30T10:28:54Z,71429.364,Prüfung,mtihani,d,mkulima,mtizamo,ufumbuzi,NA,NA,NA,NULL,NA,NA,NA,NA,NA,NA,NA,NA,NA,NA,NA,NA,NA,NA,NA,NA,NA,NA,NA
4c012,Deep Question,html.Page,1_8_0_0,NA,NA,form submission,14732.835999988,71417.899999976,71412.698,71429.364,86162.199999988,86162.699999988,2023-11-30T10:29:09Z,86166.252,Sänger,mwimbaji,d,msichana,shughuli,mshirika,mwimba,NA,NA,NULL,NA,NA,NA,NA,NA,NA,NA,NA,NA,NA,NA,NA,NA,NA,NA,NA,NA,NA,NA
4c012,Save data screen,canvas.Screen,1_8_0_1,NA,NA,timeout,499.98000000001,86165.199999988,86149.586,86166.252,86649.566,86654.199999988,2023-11-30T10:29:09Z,86666.232,Sänger,mwimbaji,d,msichana,shughuli,mshirika,NA,NA,0,NULL,NA,NA,NA,NA,NA,NA,NA,NA,NA,NA,NA,NA,NA,NA,NA,NA,NA,NA,NA
4c012,deep,flow.Sequence,1_8_0,NA,NA,completion,15220.202,71417.800000012,71412.698,71429.364,86649.566,86654.699999988,2023-11-30T10:29:09Z,86666.232,Sänger,mwimbaji,d,msichana,shughuli,mshirika,NA,NA,NA,NULL,NA,NA,NA,NA,NA,NA,NA,NA,NA,NA,NA,NA,NA,NA,NA,NA,NA,NA,NA
4c012,task,flow.Sequence,1_8,NA,NA,completion,15220.202,71417.699999988,71412.698,71429.364,86649.566,86654.899999976,2023-11-30T10:29:09Z,86666.232,Sänger,mwimbaji,d,msichana,shughuli,mshirika,NA,NA,NA,NULL,NA,NA,NA,NA,NA,NA,NA,NA,NA,NA,NA,NA,NA,NA,NA,NA,NA,NA,NA
4c012,Deep Question,html.Page,1_9_0_0,NA,NA,form submission,1792.9679999881,86655,86649.566,86666.232,88459.199999988,88459.5,2023-11-30T10:29:11Z,88466.16,Lawine,banguko,d,maambukizi,usuluhishi,chekechea,abc,NA,NA,NULL,NA,NA,NA,NA,NA,NA,NA,NA,NA,NA,NA,NA,NA,NA,NA,NA,NA,NA,NA
4c012,Save data screen,canvas.Screen,1_9_0_1,NA,NA,timeout,499.98,88460.699999988,88449.494,88466.16,88949.474,88953.099999964,2023-11-30T10:29:11Z,88966.14,Lawine,banguko,d,maambukizi,usuluhishi,chekechea,NA,NA,0,NULL,NA,NA,NA,NA,NA,NA,NA,NA,NA,NA,NA,NA,NA,NA,NA,NA,NA,NA,NA
4c012,deep,flow.Sequence,1_9_0,NA,NA,completion,2283.242,86655,86649.566,86666.232,88949.474,88953.5,2023-11-30T10:29:11Z,88966.14,Lawine,banguko,d,maambukizi,usuluhishi,chekechea,NA,NA,NA,NULL,NA,NA,NA,NA,NA,NA,NA,NA,NA,NA,NA,NA,NA,NA,NA,NA,NA,NA,NA
4c012,task,flow.Sequence,1_9,NA,NA,completion,2283.242,86654.899999976,86649.566,86666.232,88949.474,88953.699999988,2023-11-30T10:29:11Z,88966.14,Lawine,banguko,d,maambukizi,usuluhishi,chekechea,NA,NA,NA,NULL,NA,NA,NA,NA,NA,NA,NA,NA,NA,NA,NA,NA,NA,NA,NA,NA,NA,NA,NA
4c012,Deep Question,html.Page,1_10_0_0,NA,NA,form submission,3503.2599999762,88953.899999976,88949.474,88966.14,92469.399999976,92469.699999988,2023-11-30T10:29:15Z,92471.397,Kanzler,diwani,s,rasilmali,mahitaji,maabudu,abc,NA,NA,NULL,NA,NA,NA,NA,NA,NA,NA,NA,NA,NA,NA,NA,NA,NA,NA,NA,NA,NA,NA
4c012,Save data screen,canvas.Screen,1_10_0_1,NA,NA,timeout,499.98,92470.800000012,92454.731,92471.397,92954.711,92956.699999988,2023-11-30T10:29:15Z,92971.377,Kanzler,diwani,s,rasilmali,mahitaji,maabudu,NA,NA,0,NULL,NA,NA,NA,NA,NA,NA,NA,NA,NA,NA,NA,NA,NA,NA,NA,NA,NA,NA,NA
4c012,deep,flow.Sequence,1_10_0,NA,NA,completion,3988.571,88953.899999976,88949.474,88966.14,92954.711,92957,2023-11-30T10:29:15Z,92971.377,Kanzler,diwani,s,rasilmali,mahitaji,maabudu,NA,NA,NA,NULL,NA,NA,NA,NA,NA,NA,NA,NA,NA,NA,NA,NA,NA,NA,NA,NA,NA,NA,NA
4c012,task,flow.Sequence,1_10,NA,NA,completion,3988.571,88953.800000012,88949.474,88966.14,92954.711,92957.199999988,2023-11-30T10:29:15Z,92971.377,Kanzler,diwani,s,rasilmali,mahitaji,maabudu,NA,NA,NA,NULL,NA,NA,NA,NA,NA,NA,NA,NA,NA,NA,NA,NA,NA,NA,NA,NA,NA,NA,NA
4c012,Deep Question,html.Page,1_11_0_0,NA,NA,form submission,2732.9230000119,92957.300000012,92954.711,92971.377,95704.300000012,95704.800000012,2023-11-30T10:29:18Z,95704.601,System,maongozi,d,chokochoko,nuksani,mitaani,abc,NA,NA,NULL,NA,NA,NA,NA,NA,NA,NA,NA,NA,NA,NA,NA,NA,NA,NA,NA,NA,NA,NA
4c012,Save data screen,canvas.Screen,1_11_0_1,NA,NA,timeout,499.98000000001,95706,95687.935,95704.601,96187.915,96190.300000012,2023-11-30T10:29:19Z,96204.581,System,maongozi,d,chokochoko,nuksani,mitaani,NA,NA,0,NULL,NA,NA,NA,NA,NA,NA,NA,NA,NA,NA,NA,NA,NA,NA,NA,NA,NA,NA,NA
4c012,deep,flow.Sequence,1_11_0,NA,NA,completion,3216.538,92957.300000012,92954.711,92971.377,96187.915,96190.699999988,2023-11-30T10:29:19Z,96204.581,System,maongozi,d,chokochoko,nuksani,mitaani,NA,NA,NA,NULL,NA,NA,NA,NA,NA,NA,NA,NA,NA,NA,NA,NA,NA,NA,NA,NA,NA,NA,NA
4c012,task,flow.Sequence,1_11,NA,NA,completion,3216.538,92957.300000012,92954.711,92971.377,96187.915,96190.899999976,2023-11-30T10:29:19Z,96204.581,System,maongozi,d,chokochoko,nuksani,mitaani,NA,NA,NA,NULL,NA,NA,NA,NA,NA,NA,NA,NA,NA,NA,NA,NA,NA,NA,NA,NA,NA,NA,NA
4c012,Deep Question,html.Page,1_12_0_0,NA,NA,form submission,3915.7190000119,96191.099999964,96187.915,96204.581,100120.30000001,100120.59999996,2023-11-30T10:29:23Z,100121.091,Aufstand,ugomaji,d,mazidio,msingi,kujieleza,uluwitu,NA,NA,NULL,NA,NA,NA,NA,NA,NA,NA,NA,NA,NA,NA,NA,NA,NA,NA,NA,NA,NA,NA
4c012,Save data screen,canvas.Screen,1_12_0_1,NA,NA,timeout,499.98,100121.89999998,100104.425,100121.091,100604.405,100606.5,2023-11-30T10:29:23Z,100621.071,Aufstand,ugomaji,d,mazidio,msingi,kujieleza,NA,NA,0,NULL,NA,NA,NA,NA,NA,NA,NA,NA,NA,NA,NA,NA,NA,NA,NA,NA,NA,NA,NA
4c012,deep,flow.Sequence,1_12_0,NA,NA,completion,4399.824,96191.099999964,96187.915,96204.581,100604.405,100606.69999999,2023-11-30T10:29:23Z,100621.071,Aufstand,ugomaji,d,mazidio,msingi,kujieleza,NA,NA,NA,NULL,NA,NA,NA,NA,NA,NA,NA,NA,NA,NA,NA,NA,NA,NA,NA,NA,NA,NA,NA
4c012,task,flow.Sequence,1_12,NA,NA,completion,4399.824,96191.099999964,96187.915,96204.581,100604.405,100607,2023-11-30T10:29:23Z,100621.071,Aufstand,ugomaji,d,mazidio,msingi,kujieleza,NA,NA,NA,NULL,NA,NA,NA,NA,NA,NA,NA,NA,NA,NA,NA,NA,NA,NA,NA,NA,NA,NA,NA
4c012,Deep Question,html.Page,1_13_0_0,NA,NA,form submission,2882.0289999642,100607.19999999,100604.405,100621.071,103503.09999996,103503.39999998,2023-11-30T10:29:26Z,103510.66,Übersicht,kilindo,s,mgusano,chipukizi,kulinganisha,abc,NA,NA,NULL,NA,NA,NA,NA,NA,NA,NA,NA,NA,NA,NA,NA,NA,NA,NA,NA,NA,NA,NA
4c012,Save data screen,canvas.Screen,1_13_0_1,NA,NA,timeout,499.98,103504.59999996,103493.994,103510.66,103993.974,103998.5,2023-11-30T10:29:27Z,104010.64,Übersicht,kilindo,s,mgusano,chipukizi,kulinganisha,NA,NA,0,NULL,NA,NA,NA,NA,NA,NA,NA,NA,NA,NA,NA,NA,NA,NA,NA,NA,NA,NA,NA
4c012,deep,flow.Sequence,1_13_0,NA,NA,completion,3372.903,100607.09999996,100604.405,100621.071,103993.974,103998.80000001,2023-11-30T10:29:27Z,104010.64,Übersicht,kilindo,s,mgusano,chipukizi,kulinganisha,NA,NA,NA,NULL,NA,NA,NA,NA,NA,NA,NA,NA,NA,NA,NA,NA,NA,NA,NA,NA,NA,NA,NA
4c012,task,flow.Sequence,1_13,NA,NA,completion,3372.903,100607.09999996,100604.405,100621.071,103993.974,103999,2023-11-30T10:29:27Z,104010.64,Übersicht,kilindo,s,mgusano,chipukizi,kulinganisha,NA,NA,NA,NULL,NA,NA,NA,NA,NA,NA,NA,NA,NA,NA,NA,NA,NA,NA,NA,NA,NA,NA,NA
4c012,Deep Question,html.Page,1_14_0_0,NA,NA,form submission,7406.4599999642,103999.09999996,103993.974,104010.64,111417.09999996,111417.5,2023-11-30T10:29:34Z,111427.01,Körper,kiwiliwili,s,mapambano,mpatanishi,kiolezo,kiliwingu,NA,NA,NULL,NA,NA,NA,NA,NA,NA,NA,NA,NA,NA,NA,NA,NA,NA,NA,NA,NA,NA,NA
4c012,Save data screen,canvas.Screen,1_14_0_1,NA,NA,timeout,499.98000000001,111420.30000001,111410.344,111427.01,111910.324,111913,2023-11-30T10:29:34Z,111926.99,Körper,kiwiliwili,s,mapambano,mpatanishi,kiolezo,NA,NA,0,NULL,NA,NA,NA,NA,NA,NA,NA,NA,NA,NA,NA,NA,NA,NA,NA,NA,NA,NA,NA
4c012,deep,flow.Sequence,1_14_0,NA,NA,completion,7899.684,103999.09999996,103993.974,104010.64,111910.324,111913.39999998,2023-11-30T10:29:34Z,111926.99,Körper,kiwiliwili,s,mapambano,mpatanishi,kiolezo,NA,NA,NA,NULL,NA,NA,NA,NA,NA,NA,NA,NA,NA,NA,NA,NA,NA,NA,NA,NA,NA,NA,NA
4c012,task,flow.Sequence,1_14,NA,NA,completion,7899.684,103999.09999996,103993.974,104010.64,111910.324,111913.69999999,2023-11-30T10:29:34Z,111926.99,Körper,kiwiliwili,s,mapambano,mpatanishi,kiolezo,NA,NA,NA,NULL,NA,NA,NA,NA,NA,NA,NA,NA,NA,NA,NA,NA,NA,NA,NA,NA,NA,NA,NA
4c012,Deep Question,html.Page,1_15_0_0,NA,NA,form submission,5866.3100000119,111913.89999998,111910.324,111926.99,117793.30000001,117793.59999996,2023-11-30T10:29:40Z,117798.805,Können,unaweza,d,kiongozi,bustani,mienendo,kaweza,NA,NA,NULL,NA,NA,NA,NA,NA,NA,NA,NA,NA,NA,NA,NA,NA,NA,NA,NA,NA,NA,NA
4c012,Save data screen,canvas.Screen,1_15_0_1,NA,NA,timeout,499.98000000001,117794.80000001,117782.139,117798.805,118282.119,118286.39999998,2023-11-30T10:29:41Z,118298.785,Können,unaweza,d,kiongozi,bustani,mienendo,NA,NA,0,NULL,NA,NA,NA,NA,NA,NA,NA,NA,NA,NA,NA,NA,NA,NA,NA,NA,NA,NA,NA
4c012,deep,flow.Sequence,1_15_0,NA,NA,completion,6355.129,111913.80000001,111910.324,111926.99,118282.119,118286.80000001,2023-11-30T10:29:41Z,118298.785,Können,unaweza,d,kiongozi,bustani,mienendo,NA,NA,NA,NULL,NA,NA,NA,NA,NA,NA,NA,NA,NA,NA,NA,NA,NA,NA,NA,NA,NA,NA,NA
4c012,task,flow.Sequence,1_15,NA,NA,completion,6355.129,111913.80000001,111910.324,111926.99,118282.119,118287,2023-11-30T10:29:41Z,118298.785,Können,unaweza,d,kiongozi,bustani,mienendo,NA,NA,NA,NULL,NA,NA,NA,NA,NA,NA,NA,NA,NA,NA,NA,NA,NA,NA,NA,NA,NA,NA,NA
4c012,retrieval block 1 (cued recall),flow.Loop,1,NA,NA,completion,115474.224,2811.8999999762,2791.229,2807.895,118282.119,118287.19999999,2023-11-30T10:29:41Z,118298.785,NA,NA,NA,NA,NA,NA,NA,NA,NA,NULL,NA,NA,NA,NA,NA,NA,NA,NA,NA,NA,NA,NA,NA,NA,NA,NA,NA,NA,NA
4c012,Shallow Question,html.Page,2_0_0_0,NA,NA,form submission,7397.215,118287.5,118282.119,118298.785,125696,125696.39999998,2023-11-30T10:29:48Z,125703.477,Körper,kiwiliwili,s,mapambano,mpatanishi,kiolezo,kiwiliwili,NA,NA,"c(""distractor1"", ""distractor2"", ""distractor3"")",NA,NA,NA,NA,NA,NA,NA,NA,NA,NA,NA,NA,NA,NA,NA,NA,NA,NA,NA
4c012,Save data screen,canvas.Screen,2_0_0_1,NA,NA,timeout,499.98,125700.19999999,125686.811,125703.477,126186.791,126190.39999998,2023-11-30T10:29:49Z,126203.457,Körper,kiwiliwili,s,mapambano,mpatanishi,kiolezo,NA,NA,1,"c(""distractor1"", ""distractor2"", ""distractor3"")",NA,NA,NA,NA,NA,NA,NA,NA,NA,NA,NA,NA,NA,NA,NA,NA,NA,NA,NA
4c012,shallow,flow.Sequence,2_0_0,NA,NA,completion,7888.006,118287.5,118282.119,118298.785,126186.791,126190.80000001,2023-11-30T10:29:49Z,126203.457,Körper,kiwiliwili,s,mapambano,mpatanishi,kiolezo,NA,NA,NA,"c(""distractor1"", ""distractor2"", ""distractor3"")",NA,NA,NA,NA,NA,NA,NA,NA,NA,NA,NA,NA,NA,NA,NA,NA,NA,NA,NA
4c012,task,flow.Sequence,2_0,NA,NA,completion,7888.006,118287.39999998,118282.119,118298.785,126186.791,126191,2023-11-30T10:29:49Z,126203.457,Körper,kiwiliwili,s,mapambano,mpatanishi,kiolezo,NA,NA,NA,"c(""distractor1"", ""distractor2"", ""distractor3"")",NA,NA,NA,NA,NA,NA,NA,NA,NA,NA,NA,NA,NA,NA,NA,NA,NA,NA,NA
4c012,Shallow Question,html.Page,2_1_0_0,NA,NA,form submission,4960.2429999881,126191.19999999,126186.791,126203.457,131163.69999999,131164,2023-11-30T10:29:54Z,131169.925,Kultur,utamaduni,s,shetani,gerezani,mazingira,utamaduni,NA,NA,"c(""distractor1"", ""distractor2"", ""distractor3"")",NA,NA,NA,NA,NA,NA,NA,NA,NA,NA,NA,NA,NA,NA,NA,NA,NA,NA,NA
4c012,Save data screen,canvas.Screen,2_1_0_1,NA,NA,timeout,499.98000000001,131165.09999996,131153.259,131169.925,131653.239,131656.69999999,2023-11-30T10:29:54Z,131669.905,Kultur,utamaduni,s,shetani,gerezani,mazingira,NA,NA,1,"c(""distractor1"", ""distractor2"", ""distractor3"")",NA,NA,NA,NA,NA,NA,NA,NA,NA,NA,NA,NA,NA,NA,NA,NA,NA,NA,NA
4c012,shallow,flow.Sequence,2_1_0,NA,NA,completion,5449.782,126191.19999999,126186.791,126203.457,131653.239,131657,2023-11-30T10:29:54Z,131669.905,Kultur,utamaduni,s,shetani,gerezani,mazingira,NA,NA,NA,"c(""distractor1"", ""distractor2"", ""distractor3"")",NA,NA,NA,NA,NA,NA,NA,NA,NA,NA,NA,NA,NA,NA,NA,NA,NA,NA,NA
4c012,task,flow.Sequence,2_1,NA,NA,completion,5449.782,126191.19999999,126186.791,126203.457,131653.239,131657.30000001,2023-11-30T10:29:54Z,131669.905,Kultur,utamaduni,s,shetani,gerezani,mazingira,NA,NA,NA,"c(""distractor1"", ""distractor2"", ""distractor3"")",NA,NA,NA,NA,NA,NA,NA,NA,NA,NA,NA,NA,NA,NA,NA,NA,NA,NA,NA
4c012,Shallow Question,html.Page,2_2_0_0,NA,NA,form submission,9639.595,131657.39999998,131653.239,131669.905,141309.5,141309.89999998,2023-11-30T10:30:04Z,141320.785,Aufstand,ugomaji,d,mazidio,msingi,kujieleza,ugomaji,NA,NA,"c(""distractor1"", ""distractor2"", ""distractor3"")",NA,NA,NA,NA,NA,NA,NA,NA,NA,NA,NA,NA,NA,NA,NA,NA,NA,NA,NA
4c012,Save data screen,canvas.Screen,2_2_0_1,NA,NA,timeout,499.98000000001,141314.19999999,141304.119,141320.785,141804.099,141806.39999998,2023-11-30T10:30:04Z,141820.765,Aufstand,ugomaji,d,mazidio,msingi,kujieleza,NA,NA,1,"c(""distractor1"", ""distractor2"", ""distractor3"")",NA,NA,NA,NA,NA,NA,NA,NA,NA,NA,NA,NA,NA,NA,NA,NA,NA,NA,NA
4c012,shallow,flow.Sequence,2_2_0,NA,NA,completion,10134.194,131657.39999998,131653.239,131669.905,141804.099,141806.80000001,2023-11-30T10:30:04Z,141820.765,Aufstand,ugomaji,d,mazidio,msingi,kujieleza,NA,NA,NA,"c(""distractor1"", ""distractor2"", ""distractor3"")",NA,NA,NA,NA,NA,NA,NA,NA,NA,NA,NA,NA,NA,NA,NA,NA,NA,NA,NA
4c012,task,flow.Sequence,2_2,NA,NA,completion,10134.194,131657.39999998,131653.239,131669.905,141804.099,141807,2023-11-30T10:30:04Z,141820.765,Aufstand,ugomaji,d,mazidio,msingi,kujieleza,NA,NA,NA,"c(""distractor1"", ""distractor2"", ""distractor3"")",NA,NA,NA,NA,NA,NA,NA,NA,NA,NA,NA,NA,NA,NA,NA,NA,NA,NA,NA
4c012,Shallow Question,html.Page,2_3_0_0,NA,NA,form submission,5688.1349999761,141807.19999999,141804.099,141820.765,147508.89999998,147509.30000001,2023-11-30T10:30:10Z,147526.366,Angreifer,mshambulizi,d,kitengo,tasinia,usafirishaji,mshambulizi,NA,NA,"c(""distractor1"", ""distractor2"", ""distractor3"")",NA,NA,NA,NA,NA,NA,NA,NA,NA,NA,NA,NA,NA,NA,NA,NA,NA,NA,NA
4c012,Save data screen,canvas.Screen,2_3_0_1,NA,NA,timeout,499.97999999998,147513,147493.034,147526.366,148009.68,148013.30000001,2023-11-30T10:30:11Z,148026.346,Angreifer,mshambulizi,d,kitengo,tasinia,usafirishaji,NA,NA,1,"c(""distractor1"", ""distractor2"", ""distractor3"")",NA,NA,NA,NA,NA,NA,NA,NA,NA,NA,NA,NA,NA,NA,NA,NA,NA,NA,NA
4c012,shallow,flow.Sequence,2_3_0,NA,NA,completion,6188.915,141807.19999999,141804.099,141820.765,148009.68,148013.59999996,2023-11-30T10:30:11Z,148026.346,Angreifer,mshambulizi,d,kitengo,tasinia,usafirishaji,NA,NA,NA,"c(""distractor1"", ""distractor2"", ""distractor3"")",NA,NA,NA,NA,NA,NA,NA,NA,NA,NA,NA,NA,NA,NA,NA,NA,NA,NA,NA
4c012,task,flow.Sequence,2_3,NA,NA,completion,6188.915,141807.19999999,141804.099,141820.765,148009.68,148013.89999998,2023-11-30T10:30:11Z,148026.346,Angreifer,mshambulizi,d,kitengo,tasinia,usafirishaji,NA,NA,NA,"c(""distractor1"", ""distractor2"", ""distractor3"")",NA,NA,NA,NA,NA,NA,NA,NA,NA,NA,NA,NA,NA,NA,NA,NA,NA,NA,NA
4c012,Shallow Question,html.Page,2_4_0_0,NA,NA,form submission,7561.0539999762,148014.09999996,148009.68,148026.346,155587.39999998,155587.80000001,2023-11-30T10:30:18Z,155597.643,Gefährdung,kuhatarisha,s,uchokozi,udhaifu,makorowezo,kuhatarisha,NA,NA,"c(""distractor1"", ""distractor2"", ""distractor3"")",NA,NA,NA,NA,NA,NA,NA,NA,NA,NA,NA,NA,NA,NA,NA,NA,NA,NA,NA
4c012,Save data screen,canvas.Screen,2_4_0_1,NA,NA,timeout,499.97999999998,155591.09999996,155580.977,155597.643,156080.957,156083.80000001,2023-11-30T10:30:19Z,156097.623,Gefährdung,kuhatarisha,s,uchokozi,udhaifu,makorowezo,NA,NA,1,"c(""distractor1"", ""distractor2"", ""distractor3"")",NA,NA,NA,NA,NA,NA,NA,NA,NA,NA,NA,NA,NA,NA,NA,NA,NA,NA,NA
4c012,shallow,flow.Sequence,2_4_0,NA,NA,completion,8054.611,148014.09999996,148009.68,148026.346,156080.957,156084.19999999,2023-11-30T10:30:19Z,156097.623,Gefährdung,kuhatarisha,s,uchokozi,udhaifu,makorowezo,NA,NA,NA,"c(""distractor1"", ""distractor2"", ""distractor3"")",NA,NA,NA,NA,NA,NA,NA,NA,NA,NA,NA,NA,NA,NA,NA,NA,NA,NA,NA
4c012,task,flow.Sequence,2_4,NA,NA,completion,8054.611,148014,148009.68,148026.346,156080.957,156084.39999998,2023-11-30T10:30:19Z,156097.623,Gefährdung,kuhatarisha,s,uchokozi,udhaifu,makorowezo,NA,NA,NA,"c(""distractor1"", ""distractor2"", ""distractor3"")",NA,NA,NA,NA,NA,NA,NA,NA,NA,NA,NA,NA,NA,NA,NA,NA,NA,NA,NA
4c012,Shallow Question,html.Page,2_5_0_0,NA,NA,form submission,6779.1770000119,156084.59999996,156080.957,156097.623,162876.80000001,162877.09999996,2023-11-30T10:30:25Z,162897.351,System,maongozi,d,chokochoko,nuksani,mitaani,maongozi,NA,NA,"c(""distractor1"", ""distractor2"", ""distractor3"")",NA,NA,NA,NA,NA,NA,NA,NA,NA,NA,NA,NA,NA,NA,NA,NA,NA,NA,NA
4c012,Save data screen,canvas.Screen,2_5_0_1,NA,NA,timeout,499.98000000001,162881.09999996,162864.019,162897.351,163380.665,163385.09999996,2023-11-30T10:30:26Z,163397.331,System,maongozi,d,chokochoko,nuksani,mitaani,NA,NA,1,"c(""distractor1"", ""distractor2"", ""distractor3"")",NA,NA,NA,NA,NA,NA,NA,NA,NA,NA,NA,NA,NA,NA,NA,NA,NA,NA,NA
4c012,shallow,flow.Sequence,2_5_0,NA,NA,completion,7283.042,156084.59999996,156080.957,156097.623,163380.665,163385.39999998,2023-11-30T10:30:26Z,163397.331,System,maongozi,d,chokochoko,nuksani,mitaani,NA,NA,NA,"c(""distractor1"", ""distractor2"", ""distractor3"")",NA,NA,NA,NA,NA,NA,NA,NA,NA,NA,NA,NA,NA,NA,NA,NA,NA,NA,NA
4c012,task,flow.Sequence,2_5,NA,NA,completion,7283.042,156084.5,156080.957,156097.623,163380.665,163385.69999999,2023-11-30T10:30:26Z,163397.331,System,maongozi,d,chokochoko,nuksani,mitaani,NA,NA,NA,"c(""distractor1"", ""distractor2"", ""distractor3"")",NA,NA,NA,NA,NA,NA,NA,NA,NA,NA,NA,NA,NA,NA,NA,NA,NA,NA,NA
4c012,Shallow Question,html.Page,2_6_0_0,NA,NA,form submission,13693.969000012,163386,163380.665,163397.331,177091.30000001,177091.80000001,2023-11-30T10:30:40Z,177106.394,Prüfung,mtihani,d,mkulima,mtizamo,ufumbuzi,mtihani,NA,NA,"c(""distractor1"", ""distractor2"", ""distractor3"")",NA,NA,NA,NA,NA,NA,NA,NA,NA,NA,NA,NA,NA,NA,NA,NA,NA,NA,NA
4c012,Save data screen,canvas.Screen,2_6_0_1,NA,NA,timeout,499.98000000001,177095.30000001,177089.728,177106.394,177589.708,177593.09999996,2023-11-30T10:30:40Z,177606.374,Prüfung,mtihani,d,mkulima,mtizamo,ufumbuzi,NA,NA,1,"c(""distractor1"", ""distractor2"", ""distractor3"")",NA,NA,NA,NA,NA,NA,NA,NA,NA,NA,NA,NA,NA,NA,NA,NA,NA,NA,NA
4c012,shallow,flow.Sequence,2_6_0,NA,NA,completion,14192.377,163385.89999998,163380.665,163397.331,177589.708,177593.39999998,2023-11-30T10:30:40Z,177606.374,Prüfung,mtihani,d,mkulima,mtizamo,ufumbuzi,NA,NA,NA,"c(""distractor1"", ""distractor2"", ""distractor3"")",NA,NA,NA,NA,NA,NA,NA,NA,NA,NA,NA,NA,NA,NA,NA,NA,NA,NA,NA
4c012,task,flow.Sequence,2_6,NA,NA,completion,14192.377,163385.89999998,163380.665,163397.331,177589.708,177593.59999996,2023-11-30T10:30:40Z,177606.374,Prüfung,mtihani,d,mkulima,mtizamo,ufumbuzi,NA,NA,NA,"c(""distractor1"", ""distractor2"", ""distractor3"")",NA,NA,NA,NA,NA,NA,NA,NA,NA,NA,NA,NA,NA,NA,NA,NA,NA,NA,NA
4c012,Shallow Question,html.Page,2_7_0_0,NA,NA,form submission,5310.2259999642,177593.80000001,177589.708,177606.374,182916.59999996,182916.89999998,2023-11-30T10:30:45Z,182922.828,Abrechnung,uhasibu,s,kusahihisha,mpambano,mashambulizi,uhasibu,NA,NA,"c(""distractor1"", ""distractor2"", ""distractor3"")",NA,NA,NA,NA,NA,NA,NA,NA,NA,NA,NA,NA,NA,NA,NA,NA,NA,NA,NA
4c012,Save data screen,canvas.Screen,2_7_0_1,NA,NA,timeout,499.97999999998,182918,182906.162,182922.828,183406.142,183409.69999999,2023-11-30T10:30:46Z,183422.808,Abrechnung,uhasibu,s,kusahihisha,mpambano,mashambulizi,NA,NA,1,"c(""distractor1"", ""distractor2"", ""distractor3"")",NA,NA,NA,NA,NA,NA,NA,NA,NA,NA,NA,NA,NA,NA,NA,NA,NA,NA,NA
4c012,shallow,flow.Sequence,2_7_0,NA,NA,completion,5799.768,177593.80000001,177589.708,177606.374,183406.142,183410.19999999,2023-11-30T10:30:46Z,183422.808,Abrechnung,uhasibu,s,kusahihisha,mpambano,mashambulizi,NA,NA,NA,"c(""distractor1"", ""distractor2"", ""distractor3"")",NA,NA,NA,NA,NA,NA,NA,NA,NA,NA,NA,NA,NA,NA,NA,NA,NA,NA,NA
4c012,task,flow.Sequence,2_7,NA,NA,completion,5799.768,177593.69999999,177589.708,177606.374,183406.142,183410.39999998,2023-11-30T10:30:46Z,183422.808,Abrechnung,uhasibu,s,kusahihisha,mpambano,mashambulizi,NA,NA,NA,"c(""distractor1"", ""distractor2"", ""distractor3"")",NA,NA,NA,NA,NA,NA,NA,NA,NA,NA,NA,NA,NA,NA,NA,NA,NA,NA,NA
4c012,Shallow Question,html.Page,2_8_0_0,NA,NA,form submission,7823.2919999642,183410.69999999,183406.142,183422.808,191246.09999996,191246.59999996,2023-11-30T10:30:54Z,191251.383,Übersicht,kilindo,s,mgusano,chipukizi,kulinganisha,kilindo,NA,NA,"c(""distractor1"", ""distractor2"", ""distractor3"")",NA,NA,NA,NA,NA,NA,NA,NA,NA,NA,NA,NA,NA,NA,NA,NA,NA,NA,NA
4c012,Save data screen,canvas.Screen,2_8_0_1,NA,NA,timeout,499.98000000001,191249.80000001,191234.717,191251.383,191734.697,191737,2023-11-30T10:30:54Z,191751.363,Übersicht,kilindo,s,mgusano,chipukizi,kulinganisha,NA,NA,1,"c(""distractor1"", ""distractor2"", ""distractor3"")",NA,NA,NA,NA,NA,NA,NA,NA,NA,NA,NA,NA,NA,NA,NA,NA,NA,NA,NA
4c012,shallow,flow.Sequence,2_8_0,NA,NA,completion,8311.889,183410.59999996,183406.142,183422.808,191734.697,191737.39999998,2023-11-30T10:30:54Z,191751.363,Übersicht,kilindo,s,mgusano,chipukizi,kulinganisha,NA,NA,NA,"c(""distractor1"", ""distractor2"", ""distractor3"")",NA,NA,NA,NA,NA,NA,NA,NA,NA,NA,NA,NA,NA,NA,NA,NA,NA,NA,NA
4c012,task,flow.Sequence,2_8,NA,NA,completion,8311.889,183410.5,183406.142,183422.808,191734.697,191737.59999996,2023-11-30T10:30:54Z,191751.363,Übersicht,kilindo,s,mgusano,chipukizi,kulinganisha,NA,NA,NA,"c(""distractor1"", ""distractor2"", ""distractor3"")",NA,NA,NA,NA,NA,NA,NA,NA,NA,NA,NA,NA,NA,NA,NA,NA,NA,NA,NA
4c012,Shallow Question,html.Page,2_9_0_0,NA,NA,form submission,6864.637,191737.89999998,191734.697,191751.363,198616,198616.39999998,2023-11-30T10:31:01Z,198626.159,Kontrolle,kudhibiti,s,mbinguni,kufunga,utegemezi,utegemezi,NA,NA,"c(""distractor1"", ""distractor2"", ""distractor3"")",NA,NA,NA,NA,NA,NA,NA,NA,NA,NA,NA,NA,NA,NA,NA,NA,NA,NA,NA
4c012,Save data screen,canvas.Screen,2_9_0_1,NA,NA,timeout,499.97999999998,198620.30000001,198609.493,198626.159,199109.473,199113.09999996,2023-11-30T10:31:02Z,199126.139,Kontrolle,kudhibiti,s,mbinguni,kufunga,utegemezi,NA,NA,0,"c(""distractor1"", ""distractor2"", ""distractor3"")",NA,NA,NA,NA,NA,NA,NA,NA,NA,NA,NA,NA,NA,NA,NA,NA,NA,NA,NA
4c012,shallow,flow.Sequence,2_9_0,NA,NA,completion,7358.11,191737.80000001,191734.697,191751.363,199109.473,199113.39999998,2023-11-30T10:31:02Z,199126.139,Kontrolle,kudhibiti,s,mbinguni,kufunga,utegemezi,NA,NA,NA,"c(""distractor1"", ""distractor2"", ""distractor3"")",NA,NA,NA,NA,NA,NA,NA,NA,NA,NA,NA,NA,NA,NA,NA,NA,NA,NA,NA
4c012,task,flow.Sequence,2_9,NA,NA,completion,7358.11,191737.69999999,191734.697,191751.363,199109.473,199113.69999999,2023-11-30T10:31:02Z,199126.139,Kontrolle,kudhibiti,s,mbinguni,kufunga,utegemezi,NA,NA,NA,"c(""distractor1"", ""distractor2"", ""distractor3"")",NA,NA,NA,NA,NA,NA,NA,NA,NA,NA,NA,NA,NA,NA,NA,NA,NA,NA,NA
4c012,Shallow Question,html.Page,2_10_0_0,NA,NA,form submission,3182.9609999642,199113.89999998,199109.473,199126.139,202309.09999996,202309.39999998,2023-11-30T10:31:05Z,202309.345,Kanzler,diwani,s,rasilmali,mahitaji,maabudu,diwani,NA,NA,"c(""distractor1"", ""distractor2"", ""distractor3"")",NA,NA,NA,NA,NA,NA,NA,NA,NA,NA,NA,NA,NA,NA,NA,NA,NA,NA,NA
4c012,Save data screen,canvas.Screen,2_10_0_1,NA,NA,timeout,499.98000000001,202310.5,202292.679,202309.345,202792.659,202797.80000001,2023-11-30T10:31:05Z,202809.325,Kanzler,diwani,s,rasilmali,mahitaji,maabudu,NA,NA,1,"c(""distractor1"", ""distractor2"", ""distractor3"")",NA,NA,NA,NA,NA,NA,NA,NA,NA,NA,NA,NA,NA,NA,NA,NA,NA,NA,NA
4c012,shallow,flow.Sequence,2_10_0,NA,NA,completion,3666.52,199113.89999998,199109.473,199126.139,202792.659,202798.19999999,2023-11-30T10:31:05Z,202809.325,Kanzler,diwani,s,rasilmali,mahitaji,maabudu,NA,NA,NA,"c(""distractor1"", ""distractor2"", ""distractor3"")",NA,NA,NA,NA,NA,NA,NA,NA,NA,NA,NA,NA,NA,NA,NA,NA,NA,NA,NA
4c012,task,flow.Sequence,2_10,NA,NA,completion,3666.52,199113.80000001,199109.473,199126.139,202792.659,202798.5,2023-11-30T10:31:05Z,202809.325,Kanzler,diwani,s,rasilmali,mahitaji,maabudu,NA,NA,NA,"c(""distractor1"", ""distractor2"", ""distractor3"")",NA,NA,NA,NA,NA,NA,NA,NA,NA,NA,NA,NA,NA,NA,NA,NA,NA,NA,NA
4c012,Shallow Question,html.Page,2_11_0_0,NA,NA,form submission,6723.9750000119,202798.59999996,202792.659,202809.325,209533.30000001,209533.69999999,2023-11-30T10:31:12Z,209546.882,Verzögerung,kuchelewa,s,mwakilishi,mwanauchumi,jaribio,kuchelewa,NA,NA,"c(""distractor1"", ""distractor2"", ""distractor3"")",NA,NA,NA,NA,NA,NA,NA,NA,NA,NA,NA,NA,NA,NA,NA,NA,NA,NA,NA
4c012,Save data screen,canvas.Screen,2_11_0_1,NA,NA,timeout,499.97999999998,209537,209530.216,209546.882,210030.196,210034.89999998,2023-11-30T10:31:13Z,210046.862,Verzögerung,kuchelewa,s,mwakilishi,mwanauchumi,jaribio,NA,NA,1,"c(""distractor1"", ""distractor2"", ""distractor3"")",NA,NA,NA,NA,NA,NA,NA,NA,NA,NA,NA,NA,NA,NA,NA,NA,NA,NA,NA
4c012,shallow,flow.Sequence,2_11_0,NA,NA,completion,7220.871,202798.59999996,202792.659,202809.325,210030.196,210035.5,2023-11-30T10:31:13Z,210046.862,Verzögerung,kuchelewa,s,mwakilishi,mwanauchumi,jaribio,NA,NA,NA,"c(""distractor1"", ""distractor2"", ""distractor3"")",NA,NA,NA,NA,NA,NA,NA,NA,NA,NA,NA,NA,NA,NA,NA,NA,NA,NA,NA
4c012,task,flow.Sequence,2_11,NA,NA,completion,7220.871,202798.59999996,202792.659,202809.325,210030.196,210035.69999999,2023-11-30T10:31:13Z,210046.862,Verzögerung,kuchelewa,s,mwakilishi,mwanauchumi,jaribio,NA,NA,NA,"c(""distractor1"", ""distractor2"", ""distractor3"")",NA,NA,NA,NA,NA,NA,NA,NA,NA,NA,NA,NA,NA,NA,NA,NA,NA,NA,NA
4c012,Shallow Question,html.Page,2_12_0_0,NA,NA,form submission,7027.3379999881,210035.89999998,210030.196,210046.862,217074.19999999,217074.80000001,2023-11-30T10:31:20Z,217077.916,Lawine,banguko,d,maambukizi,usuluhishi,chekechea,banguko,NA,NA,"c(""distractor1"", ""distractor2"", ""distractor3"")",NA,NA,NA,NA,NA,NA,NA,NA,NA,NA,NA,NA,NA,NA,NA,NA,NA,NA,NA
4c012,Save data screen,canvas.Screen,2_12_0_1,NA,NA,timeout,499.98000000001,217076.69999999,217061.25,217077.916,217561.23,217563.69999999,2023-11-30T10:31:20Z,217577.896,Lawine,banguko,d,maambukizi,usuluhishi,chekechea,NA,NA,1,"c(""distractor1"", ""distractor2"", ""distractor3"")",NA,NA,NA,NA,NA,NA,NA,NA,NA,NA,NA,NA,NA,NA,NA,NA,NA,NA,NA
4c012,shallow,flow.Sequence,2_12_0,NA,NA,completion,7514.368,210035.89999998,210030.196,210046.862,217561.23,217564.09999996,2023-11-30T10:31:20Z,217577.896,Lawine,banguko,d,maambukizi,usuluhishi,chekechea,NA,NA,NA,"c(""distractor1"", ""distractor2"", ""distractor3"")",NA,NA,NA,NA,NA,NA,NA,NA,NA,NA,NA,NA,NA,NA,NA,NA,NA,NA,NA
4c012,task,flow.Sequence,2_12,NA,NA,completion,7514.368,210035.80000001,210030.196,210046.862,217561.23,217564.30000001,2023-11-30T10:31:20Z,217577.896,Lawine,banguko,d,maambukizi,usuluhishi,chekechea,NA,NA,NA,"c(""distractor1"", ""distractor2"", ""distractor3"")",NA,NA,NA,NA,NA,NA,NA,NA,NA,NA,NA,NA,NA,NA,NA,NA,NA,NA,NA
4c012,Shallow Question,html.Page,2_13_0_0,NA,NA,form submission,8751.8039999881,217564.5,217561.23,217577.896,226329.69999999,226330.09999996,2023-11-30T10:31:29Z,226344.212,Können,unaweza,d,kiongozi,bustani,mienendo,unaweza,NA,NA,"c(""distractor1"", ""distractor2"", ""distractor3"")",NA,NA,NA,NA,NA,NA,NA,NA,NA,NA,NA,NA,NA,NA,NA,NA,NA,NA,NA
4c012,Save data screen,canvas.Screen,2_13_0_1,NA,NA,timeout,502.70999999999,226334,226327.546,226344.212,226830.256,226836,2023-11-30T10:31:29Z,226846.922,Können,unaweza,d,kiongozi,bustani,mienendo,NA,NA,1,"c(""distractor1"", ""distractor2"", ""distractor3"")",NA,NA,NA,NA,NA,NA,NA,NA,NA,NA,NA,NA,NA,NA,NA,NA,NA,NA,NA
4c012,shallow,flow.Sequence,2_13_0,NA,NA,completion,9252.36,217564.5,217561.23,217577.896,226830.256,226836.39999998,2023-11-30T10:31:29Z,226846.922,Können,unaweza,d,kiongozi,bustani,mienendo,NA,NA,NA,"c(""distractor1"", ""distractor2"", ""distractor3"")",NA,NA,NA,NA,NA,NA,NA,NA,NA,NA,NA,NA,NA,NA,NA,NA,NA,NA,NA
4c012,task,flow.Sequence,2_13,NA,NA,completion,9252.36,217564.5,217561.23,217577.896,226830.256,226836.69999999,2023-11-30T10:31:29Z,226846.922,Können,unaweza,d,kiongozi,bustani,mienendo,NA,NA,NA,"c(""distractor1"", ""distractor2"", ""distractor3"")",NA,NA,NA,NA,NA,NA,NA,NA,NA,NA,NA,NA,NA,NA,NA,NA,NA,NA,NA
4c012,Shallow Question,html.Page,2_14_0_0,NA,NA,form submission,15785.378000012,226836.80000001,226830.256,226846.922,242632.30000001,242632.80000001,2023-11-30T10:31:45Z,242634.817,Kreativität,ubunifu,d,mratibu,mwendelezo,makubaliano,ubunifu,NA,NA,"c(""distractor1"", ""distractor2"", ""distractor3"")",NA,NA,NA,NA,NA,NA,NA,NA,NA,NA,NA,NA,NA,NA,NA,NA,NA,NA,NA
4c012,Save data screen,canvas.Screen,2_14_0_1,NA,NA,timeout,499.97999999998,242636.89999998,242618.151,242634.817,243118.131,243123.19999999,2023-11-30T10:31:46Z,243134.797,Kreativität,ubunifu,d,mratibu,mwendelezo,makubaliano,NA,NA,1,"c(""distractor1"", ""distractor2"", ""distractor3"")",NA,NA,NA,NA,NA,NA,NA,NA,NA,NA,NA,NA,NA,NA,NA,NA,NA,NA,NA
4c012,shallow,flow.Sequence,2_14_0,NA,NA,completion,16271.209,226836.80000001,226830.256,226846.922,243118.131,243123.5,2023-11-30T10:31:46Z,243134.797,Kreativität,ubunifu,d,mratibu,mwendelezo,makubaliano,NA,NA,NA,"c(""distractor1"", ""distractor2"", ""distractor3"")",NA,NA,NA,NA,NA,NA,NA,NA,NA,NA,NA,NA,NA,NA,NA,NA,NA,NA,NA
4c012,task,flow.Sequence,2_14,NA,NA,completion,16271.209,226836.80000001,226830.256,226846.922,243118.131,243123.69999999,2023-11-30T10:31:46Z,243134.797,Kreativität,ubunifu,d,mratibu,mwendelezo,makubaliano,NA,NA,NA,"c(""distractor1"", ""distractor2"", ""distractor3"")",NA,NA,NA,NA,NA,NA,NA,NA,NA,NA,NA,NA,NA,NA,NA,NA,NA,NA,NA
4c012,Shallow Question,html.Page,2_15_0_0,NA,NA,form submission,13417.402999988,243124,243118.131,243134.797,256552.19999999,256552.59999996,2023-11-30T10:31:59Z,256567.301,Sänger,mwimbaji,d,msichana,shughuli,mshirika,mwimbaji,NA,NA,"c(""distractor1"", ""distractor2"", ""distractor3"")",NA,NA,NA,NA,NA,NA,NA,NA,NA,NA,NA,NA,NA,NA,NA,NA,NA,NA,NA
4c012,Save data screen,canvas.Screen,2_15_0_1,NA,NA,timeout,502.709,256556.59999996,256550.635,256567.301,257053.344,257056.5,2023-11-30T10:32:00Z,257070.01,Sänger,mwimbaji,d,msichana,shughuli,mshirika,NA,NA,1,"c(""distractor1"", ""distractor2"", ""distractor3"")",NA,NA,NA,NA,NA,NA,NA,NA,NA,NA,NA,NA,NA,NA,NA,NA,NA,NA,NA
4c012,shallow,flow.Sequence,2_15_0,NA,NA,completion,13918.547,243123.89999998,243118.131,243134.797,257053.344,257056.89999998,2023-11-30T10:32:00Z,257070.01,Sänger,mwimbaji,d,msichana,shughuli,mshirika,NA,NA,NA,"c(""distractor1"", ""distractor2"", ""distractor3"")",NA,NA,NA,NA,NA,NA,NA,NA,NA,NA,NA,NA,NA,NA,NA,NA,NA,NA,NA
4c012,task,flow.Sequence,2_15,NA,NA,completion,13918.547,243123.80000001,243118.131,243134.797,257053.344,257057.19999999,2023-11-30T10:32:00Z,257070.01,Sänger,mwimbaji,d,msichana,shughuli,mshirika,NA,NA,NA,"c(""distractor1"", ""distractor2"", ""distractor3"")",NA,NA,NA,NA,NA,NA,NA,NA,NA,NA,NA,NA,NA,NA,NA,NA,NA,NA,NA
4c012,retrieval block 2 (multiple choice),flow.Loop,2,NA,NA,completion,138754.559,118287.30000001,118282.119,118298.785,257053.344,257057.39999998,2023-11-30T10:32:00Z,257070.01,NA,NA,NA,NA,NA,NA,NA,NA,NA,"c(""distractor1"", ""distractor2"", ""distractor3"")",NA,NA,NA,NA,NA,NA,NA,NA,NA,NA,NA,NA,NA,NA,NA,NA,NA,NA,NA
4c012,End,canvas.Screen,3,NA,keypress(Space),response,2393.7900000119,257057.5,257053.344,257070.01,259463.80000001,259469.30000001,2023-11-30T10:32:02Z,259486.58,NA,NA,NA,NA,NA,NA,NA,NA,NA,NULL,NA,NA,NA,NA,NA,NA,NA,NA,NA,NA,NA,NA,NA,NA,NA,NA,NA,NA,NA
4c012,root,flow.Sequence,NA,NA,NA,completion,258005.85100001,1347.5999999642,1157.961,1457.949,259463.80000001,259469.89999998,2023-11-30T10:32:02Z,259486.58,NA,NA,NA,NA,NA,NA,NA,NA,NA,NULL,NA,NA,NA,NA,NA,NA,NA,NA,NA,NA,NA,NA,NA,NA,NA,NA,NA,NA,NA
