observation,sender,sender_type,sender_id,response,response_action,ended_on,duration,time_run,time_render,time_show,time_end,time_commit,timestamp,time_switch,distractors,german,swahili,enc,distractor1,distractor2,distractor3,response_2,x,correct,x_2,url_vp,url_sess,meta_labjs_version,meta_location,meta_user_agent,meta_platform,meta_language,meta_locale,meta_time_zone,meta_timezone_offset,meta_screen_width,meta_screen_height,meta_scroll_width,meta_scroll_height,meta_window_inner_width,meta_window_inner_height,meta_device_pixel_ratio,meta_labjs_build_flavor,meta_labjs_build_commit
d9556,Introduction general,canvas.Screen,0,weiter,keypress(q),response,6889.74,403,407.6,424.26,7314,7335,2023-08-20T14:33:31Z,7340.1,NULL,NA,NA,NA,NA,NA,NA,NA,NA,NA,NA,176,3,20.2.4,https://neurocog.fernuni.ch/studies/vweber/sliechti/encoding_immediate/index.html?vp=176&sess=3,Mozilla/5.0 (Windows NT 10.0; Win64; x64; rv:109.0) Gecko/20100101 Firefox/116.0,Win32,de,de-CH,Europe/Zurich,-120,1280,720,1280,587,1280,587,1.5,production,f5b4a49f956347addd546a832a3327688c2c0fef
d9556,Introduction practice,canvas.Screen,1_0,NA,keypress(Space),response,7613.9,7337,7336.72,7340.1,14954,14961,2023-08-20T14:33:39Z,14972.42,NULL,NA,NA,NA,NA,NA,NA,NA,NA,NA,NA,NA,NA,NA,NA,NA,NA,NA,NA,NA,NA,NA,NA,NA,NA,NA,NA,NA,NA,NA
d9556,Deep Question,html.Page,1_1_0_0_0,NA,NA,form submission,7955.58,14963,14963.64,14972.42,22928,22929,2023-08-20T14:33:47Z,22938.1,"c(""distractor1"", ""distractor2"", ""distractor3"")",Qualität,mtindo,d,NA,NA,NA,s,NA,NA,NA,NA,NA,NA,NA,NA,NA,NA,NA,NA,NA,NA,NA,NA,NA,NA,NA,NA,NA,NA
d9556,"""Richtig""-Screen",canvas.Screen,1_1_0_0_1,NA,NA,skipped,NA,22941,NA,NA,22928,22941,2023-08-20T14:33:47Z,22938.1,"c(""distractor1"", ""distractor2"", ""distractor3"")",Qualität,mtindo,d,NA,NA,NA,NA,NA,NA,NA,NA,NA,NA,NA,NA,NA,NA,NA,NA,NA,NA,NA,NA,NA,NA,NA,NA,NA,NA
d9556,"""Falsch""-Screen",canvas.Screen,1_1_0_0_2,NA,NA,timeout,4999.36,22944,22916.68,22938.1,27920.8,27922,2023-08-20T14:33:52Z,27937.46,"c(""distractor1"", ""distractor2"", ""distractor3"")",Qualität,mtindo,d,NA,NA,NA,NA,NA,0,NA,NA,NA,NA,NA,NA,NA,NA,NA,NA,NA,NA,NA,NA,NA,NA,NA,NA,NA,NA
d9556,deep,flow.Sequence,1_1_0_0,NA,NA,completion,12948.38,14963,14963.64,14972.42,27920.8,27922,2023-08-20T14:33:52Z,27937.46,"c(""distractor1"", ""distractor2"", ""distractor3"")",Qualität,mtindo,d,NA,NA,NA,NA,NA,NA,NA,NA,NA,NA,NA,NA,NA,NA,NA,NA,NA,NA,NA,NA,NA,NA,NA,NA,NA,NA
d9556,shallow,flow.Sequence,1_1_0_1,NA,NA,skipped,NA,27922,NA,NA,27920.8,27923,2023-08-20T14:33:52Z,27937.46,"c(""distractor1"", ""distractor2"", ""distractor3"")",Qualität,mtindo,d,NA,NA,NA,NA,NA,NA,NA,NA,NA,NA,NA,NA,NA,NA,NA,NA,NA,NA,NA,NA,NA,NA,NA,NA,NA,NA
d9556,task,flow.Sequence,1_1_0,NA,NA,completion,12948.38,14963,14963.64,14972.42,27920.8,27923,2023-08-20T14:33:52Z,27937.46,"c(""distractor1"", ""distractor2"", ""distractor3"")",Qualität,mtindo,d,NA,NA,NA,NA,NA,NA,NA,NA,NA,NA,NA,NA,NA,NA,NA,NA,NA,NA,NA,NA,NA,NA,NA,NA,NA,NA
d9556,deep,flow.Sequence,1_1_1_0,NA,NA,skipped,NA,27923,NA,NA,27920.8,27923,2023-08-20T14:33:52Z,27937.46,"c(""distractor1"", ""distractor2"", ""distractor3"")",Rückhalt,msaada,s,muhula,auwali,kiwimbe,NA,NA,NA,NA,NA,NA,NA,NA,NA,NA,NA,NA,NA,NA,NA,NA,NA,NA,NA,NA,NA,NA,NA
d9556,Shallow Question,html.Page,1_1_1_1_0,NA,NA,form submission,5840.54,27924,27920.8,27937.46,33778,33779,2023-08-20T14:33:58Z,33786.68,"c(""distractor1"", ""distractor2"", ""distractor3"")",Rückhalt,msaada,s,muhula,auwali,kiwimbe,msaada,NA,NA,NA,NA,NA,NA,NA,NA,NA,NA,NA,NA,NA,NA,NA,NA,NA,NA,NA,NA,NA,NA
d9556,"""Richtig""-Screen",canvas.Screen,1_1_1_1_1,NA,NA,timeout,4999.36,33784,33774.08,33786.68,38769.38,38771,2023-08-20T14:34:03Z,38786.04,"c(""distractor1"", ""distractor2"", ""distractor3"")",Rückhalt,msaada,s,muhula,auwali,kiwimbe,NA,NA,1,NA,NA,NA,NA,NA,NA,NA,NA,NA,NA,NA,NA,NA,NA,NA,NA,NA,NA,NA,NA
d9556,"""Falsch""-Screen",canvas.Screen,1_1_1_1_2,NA,NA,skipped,NA,38776,NA,NA,38769.38,38776,2023-08-20T14:34:03Z,38786.04,"c(""distractor1"", ""distractor2"", ""distractor3"")",Rückhalt,msaada,s,muhula,auwali,kiwimbe,NA,NA,NA,NA,NA,NA,NA,NA,NA,NA,NA,NA,NA,NA,NA,NA,NA,NA,NA,NA,NA,NA,NA
d9556,shallow,flow.Sequence,1_1_1_1,NA,NA,completion,10831.92,27923,27920.8,27937.46,38769.38,38776,2023-08-20T14:34:03Z,38786.04,"c(""distractor1"", ""distractor2"", ""distractor3"")",Rückhalt,msaada,s,muhula,auwali,kiwimbe,NA,NA,NA,NA,NA,NA,NA,NA,NA,NA,NA,NA,NA,NA,NA,NA,NA,NA,NA,NA,NA,NA,NA
d9556,task,flow.Sequence,1_1_1,NA,NA,completion,10831.92,27923,27920.8,27937.46,38769.38,38776,2023-08-20T14:34:03Z,38786.04,"c(""distractor1"", ""distractor2"", ""distractor3"")",Rückhalt,msaada,s,muhula,auwali,kiwimbe,NA,NA,NA,NA,NA,NA,NA,NA,NA,NA,NA,NA,NA,NA,NA,NA,NA,NA,NA,NA,NA,NA,NA
d9556,deep,flow.Sequence,1_1_2_0,NA,NA,skipped,NA,38776,NA,NA,38769.38,38776,2023-08-20T14:34:03Z,38786.04,"c(""distractor1"", ""distractor2"", ""distractor3"")",Gegenwart,hadhara,s,katiba,jokofu,mikopo,NA,NA,NA,NA,NA,NA,NA,NA,NA,NA,NA,NA,NA,NA,NA,NA,NA,NA,NA,NA,NA,NA,NA
d9556,Shallow Question,html.Page,1_1_2_1_0,NA,NA,form submission,5171.96,38776,38769.38,38786.04,43958,43958,2023-08-20T14:34:08Z,43968.66,"c(""distractor1"", ""distractor2"", ""distractor3"")",Gegenwart,hadhara,s,katiba,jokofu,mikopo,jokofu,NA,NA,NA,NA,NA,NA,NA,NA,NA,NA,NA,NA,NA,NA,NA,NA,NA,NA,NA,NA,NA,NA
d9556,"""Richtig""-Screen",canvas.Screen,1_1_2_1_1,NA,NA,skipped,NA,43963,NA,NA,43958,43963,2023-08-20T14:34:08Z,43968.66,"c(""distractor1"", ""distractor2"", ""distractor3"")",Gegenwart,hadhara,s,katiba,jokofu,mikopo,NA,NA,NA,NA,NA,NA,NA,NA,NA,NA,NA,NA,NA,NA,NA,NA,NA,NA,NA,NA,NA,NA,NA
d9556,"""Falsch""-Screen",canvas.Screen,1_1_2_1_2,NA,NA,timeout,4999.36,43969,43954.66,43968.66,48951.36,48953,2023-08-20T14:34:13Z,48968.02,"c(""distractor1"", ""distractor2"", ""distractor3"")",Gegenwart,hadhara,s,katiba,jokofu,mikopo,NA,NA,0,NA,NA,NA,NA,NA,NA,NA,NA,NA,NA,NA,NA,NA,NA,NA,NA,NA,NA,NA,NA
d9556,shallow,flow.Sequence,1_1_2_1,NA,NA,completion,10165.32,38776,38769.38,38786.04,48951.36,48953,2023-08-20T14:34:13Z,48968.02,"c(""distractor1"", ""distractor2"", ""distractor3"")",Gegenwart,hadhara,s,katiba,jokofu,mikopo,NA,NA,NA,NA,NA,NA,NA,NA,NA,NA,NA,NA,NA,NA,NA,NA,NA,NA,NA,NA,NA,NA,NA
d9556,task,flow.Sequence,1_1_2,NA,NA,completion,10165.32,38776,38769.38,38786.04,48951.36,48954,2023-08-20T14:34:13Z,48968.02,"c(""distractor1"", ""distractor2"", ""distractor3"")",Gegenwart,hadhara,s,katiba,jokofu,mikopo,NA,NA,NA,NA,NA,NA,NA,NA,NA,NA,NA,NA,NA,NA,NA,NA,NA,NA,NA,NA,NA,NA,NA
d9556,Deep Question,html.Page,1_1_3_0_0,NA,NA,form submission,2422.98,48954,48951.36,48968.02,51391,51391,2023-08-20T14:34:15Z,51401.06,"c(""distractor1"", ""distractor2"", ""distractor3"")",Schatten,kivuli,d,NA,NA,NA,s,NA,NA,NA,NA,NA,NA,NA,NA,NA,NA,NA,NA,NA,NA,NA,NA,NA,NA,NA,NA,NA,NA
d9556,"""Richtig""-Screen",canvas.Screen,1_1_3_0_1,NA,NA,skipped,NA,51393,NA,NA,51391,51393,2023-08-20T14:34:15Z,51401.06,"c(""distractor1"", ""distractor2"", ""distractor3"")",Schatten,kivuli,d,NA,NA,NA,NA,NA,NA,NA,NA,NA,NA,NA,NA,NA,NA,NA,NA,NA,NA,NA,NA,NA,NA,NA,NA,NA,NA
d9556,"""Falsch""-Screen",canvas.Screen,1_1_3_0_2,NA,NA,timeout,4999.46,51394,51389.64,51401.06,56383.88,56385,2023-08-20T14:34:20Z,56400.52,"c(""distractor1"", ""distractor2"", ""distractor3"")",Schatten,kivuli,d,NA,NA,NA,NA,NA,0,NA,NA,NA,NA,NA,NA,NA,NA,NA,NA,NA,NA,NA,NA,NA,NA,NA,NA,NA,NA
d9556,deep,flow.Sequence,1_1_3_0,NA,NA,completion,7415.86,48954,48951.36,48968.02,56383.88,56386,2023-08-20T14:34:20Z,56400.52,"c(""distractor1"", ""distractor2"", ""distractor3"")",Schatten,kivuli,d,NA,NA,NA,NA,NA,NA,NA,NA,NA,NA,NA,NA,NA,NA,NA,NA,NA,NA,NA,NA,NA,NA,NA,NA,NA,NA
d9556,shallow,flow.Sequence,1_1_3_1,NA,NA,skipped,NA,56386,NA,NA,56383.88,56387,2023-08-20T14:34:20Z,56400.52,"c(""distractor1"", ""distractor2"", ""distractor3"")",Schatten,kivuli,d,NA,NA,NA,NA,NA,NA,NA,NA,NA,NA,NA,NA,NA,NA,NA,NA,NA,NA,NA,NA,NA,NA,NA,NA,NA,NA
d9556,task,flow.Sequence,1_1_3,NA,NA,completion,7415.86,48954,48951.36,48968.02,56383.88,56387,2023-08-20T14:34:20Z,56400.52,"c(""distractor1"", ""distractor2"", ""distractor3"")",Schatten,kivuli,d,NA,NA,NA,NA,NA,NA,NA,NA,NA,NA,NA,NA,NA,NA,NA,NA,NA,NA,NA,NA,NA,NA,NA,NA,NA,NA
d9556,Deep Question,html.Page,1_1_4_0_0,NA,NA,form submission,2386.48,56388,56383.88,56400.52,58787,58787,2023-08-20T14:34:23Z,58800.12,"c(""distractor1"", ""distractor2"", ""distractor3"")",Gesundheit,salama,d,NA,NA,NA,s,NA,NA,NA,NA,NA,NA,NA,NA,NA,NA,NA,NA,NA,NA,NA,NA,NA,NA,NA,NA,NA,NA
d9556,"""Richtig""-Screen",canvas.Screen,1_1_4_0_1,NA,NA,skipped,NA,58791,NA,NA,58787,58791,2023-08-20T14:34:23Z,58800.12,"c(""distractor1"", ""distractor2"", ""distractor3"")",Gesundheit,salama,d,NA,NA,NA,NA,NA,NA,NA,NA,NA,NA,NA,NA,NA,NA,NA,NA,NA,NA,NA,NA,NA,NA,NA,NA,NA,NA
d9556,"""Falsch""-Screen",canvas.Screen,1_1_4_0_2,NA,NA,timeout,4999.32,58796,58785.3,58800.12,63782.76,63784,2023-08-20T14:34:28Z,63799.44,"c(""distractor1"", ""distractor2"", ""distractor3"")",Gesundheit,salama,d,NA,NA,NA,NA,NA,0,NA,NA,NA,NA,NA,NA,NA,NA,NA,NA,NA,NA,NA,NA,NA,NA,NA,NA,NA,NA
d9556,deep,flow.Sequence,1_1_4_0,NA,NA,completion,7382.24,56388,56383.88,56400.52,63782.76,63785,2023-08-20T14:34:28Z,63799.44,"c(""distractor1"", ""distractor2"", ""distractor3"")",Gesundheit,salama,d,NA,NA,NA,NA,NA,NA,NA,NA,NA,NA,NA,NA,NA,NA,NA,NA,NA,NA,NA,NA,NA,NA,NA,NA,NA,NA
d9556,shallow,flow.Sequence,1_1_4_1,NA,NA,skipped,NA,63785,NA,NA,63782.76,63785,2023-08-20T14:34:28Z,63799.44,"c(""distractor1"", ""distractor2"", ""distractor3"")",Gesundheit,salama,d,NA,NA,NA,NA,NA,NA,NA,NA,NA,NA,NA,NA,NA,NA,NA,NA,NA,NA,NA,NA,NA,NA,NA,NA,NA,NA
d9556,task,flow.Sequence,1_1_4,NA,NA,completion,7382.24,56388,56383.88,56400.52,63782.76,63785,2023-08-20T14:34:28Z,63799.44,"c(""distractor1"", ""distractor2"", ""distractor3"")",Gesundheit,salama,d,NA,NA,NA,NA,NA,NA,NA,NA,NA,NA,NA,NA,NA,NA,NA,NA,NA,NA,NA,NA,NA,NA,NA,NA,NA,NA
d9556,deep,flow.Sequence,1_1_5_0,NA,NA,skipped,NA,63786,NA,NA,63782.76,63786,2023-08-20T14:34:28Z,63799.44,"c(""distractor1"", ""distractor2"", ""distractor3"")",Kritik,lawama,s,dereva,nafasi,mawazo,NA,NA,NA,NA,NA,NA,NA,NA,NA,NA,NA,NA,NA,NA,NA,NA,NA,NA,NA,NA,NA,NA,NA
d9556,Shallow Question,html.Page,1_1_5_1_0,NA,NA,form submission,3281.56,63786,63782.76,63799.44,67081,67081,2023-08-20T14:34:31Z,67082.4,"c(""distractor1"", ""distractor2"", ""distractor3"")",Kritik,lawama,s,dereva,nafasi,mawazo,nafasi,NA,NA,NA,NA,NA,NA,NA,NA,NA,NA,NA,NA,NA,NA,NA,NA,NA,NA,NA,NA,NA,NA
d9556,"""Richtig""-Screen",canvas.Screen,1_1_5_1_1,NA,NA,skipped,NA,67087,NA,NA,67081,67088,2023-08-20T14:34:31Z,67082.4,"c(""distractor1"", ""distractor2"", ""distractor3"")",Kritik,lawama,s,dereva,nafasi,mawazo,NA,NA,NA,NA,NA,NA,NA,NA,NA,NA,NA,NA,NA,NA,NA,NA,NA,NA,NA,NA,NA,NA,NA
d9556,"""Falsch""-Screen",canvas.Screen,1_1_5_1_2,NA,NA,timeout,4999.38,67093,67077.12,67082.4,72065.1,72066,2023-08-20T14:34:36Z,72081.78,"c(""distractor1"", ""distractor2"", ""distractor3"")",Kritik,lawama,s,dereva,nafasi,mawazo,NA,NA,0,NA,NA,NA,NA,NA,NA,NA,NA,NA,NA,NA,NA,NA,NA,NA,NA,NA,NA,NA,NA
d9556,shallow,flow.Sequence,1_1_5_1,NA,NA,completion,8265.66,63786,63782.76,63799.44,72065.1,72067,2023-08-20T14:34:36Z,72081.78,"c(""distractor1"", ""distractor2"", ""distractor3"")",Kritik,lawama,s,dereva,nafasi,mawazo,NA,NA,NA,NA,NA,NA,NA,NA,NA,NA,NA,NA,NA,NA,NA,NA,NA,NA,NA,NA,NA,NA,NA
d9556,task,flow.Sequence,1_1_5,NA,NA,completion,8265.66,63785,63782.76,63799.44,72065.1,72067,2023-08-20T14:34:36Z,72081.78,"c(""distractor1"", ""distractor2"", ""distractor3"")",Kritik,lawama,s,dereva,nafasi,mawazo,NA,NA,NA,NA,NA,NA,NA,NA,NA,NA,NA,NA,NA,NA,NA,NA,NA,NA,NA,NA,NA,NA,NA
d9556,block,flow.Loop,1_1,NA,NA,completion,57092.68,14963,14963.64,14972.42,72065.1,72068,2023-08-20T14:34:36Z,72081.78,"c(""distractor1"", ""distractor2"", ""distractor3"")",NA,NA,NA,NA,NA,NA,NA,NA,NA,NA,NA,NA,NA,NA,NA,NA,NA,NA,NA,NA,NA,NA,NA,NA,NA,NA,NA,NA,NA
d9556,Practice,flow.Sequence,1,NA,NA,completion,64725,7337,7336.72,7340.1,72065.1,72068,2023-08-20T14:34:36Z,72081.78,NULL,NA,NA,NA,NA,NA,NA,NA,NA,NA,NA,NA,NA,NA,NA,NA,NA,NA,NA,NA,NA,NA,NA,NA,NA,NA,NA,NA,NA,NA
d9556,Experiment start,canvas.Screen,2,weiter,keypress(q),response,12278.22,72069,72065.1,72081.78,84360,84365,2023-08-20T14:34:48Z,84463.4,NULL,NA,NA,NA,NA,NA,NA,NA,NA,NA,NA,NA,NA,NA,NA,NA,NA,NA,NA,NA,NA,NA,NA,NA,NA,NA,NA,NA,NA,NA
d9556,deep,flow.Sequence,3_0_0_0_0_0,NA,NA,skipped,NA,84454,NA,NA,84360,84454,2023-08-20T14:34:48Z,84463.4,NULL,Verpackung,ufungaji,s,uhusiano,upimaji,uchunguzi,NA,sdf,NA,0,NA,NA,NA,NA,NA,NA,NA,NA,NA,NA,NA,NA,NA,NA,NA,NA,NA,NA,NA
d9556,Shallow Question,html.Page,3_0_0_0_0_1_0,NA,NA,form submission,20222.6,84455,84454.5,84463.4,104686,104687,2023-08-20T14:35:09Z,104694.18,NULL,Verpackung,ufungaji,s,uhusiano,upimaji,uchunguzi,uhusiano,NA,NA,0,NA,NA,NA,NA,NA,NA,NA,NA,NA,NA,NA,NA,NA,NA,NA,NA,NA,NA,NA
d9556,"""Richtig""-Screen",canvas.Screen,3_0_0_0_0_1_1,NA,NA,skipped,NA,104693,NA,NA,104686,104693,2023-08-20T14:35:09Z,104694.18,NULL,Verpackung,ufungaji,s,uhusiano,upimaji,uchunguzi,NA,sdf,NA,0,NA,NA,NA,NA,NA,NA,NA,NA,NA,NA,NA,NA,NA,NA,NA,NA,NA,NA,NA
d9556,"""Falsch""-Screen",canvas.Screen,3_0_0_0_0_1_2,NA,NA,timeout,4999.32,104697,104681.36,104694.18,109676.84,109678,2023-08-20T14:35:14Z,109693.5,NULL,Verpackung,ufungaji,s,uhusiano,upimaji,uchunguzi,NA,sdf,0,0,NA,NA,NA,NA,NA,NA,NA,NA,NA,NA,NA,NA,NA,NA,NA,NA,NA,NA,NA
d9556,shallow,flow.Sequence,3_0_0_0_0_1,NA,NA,completion,25213.44,84455,84454.5,84463.4,109676.84,109678,2023-08-20T14:35:14Z,109693.5,NULL,Verpackung,ufungaji,s,uhusiano,upimaji,uchunguzi,NA,sdf,NA,0,NA,NA,NA,NA,NA,NA,NA,NA,NA,NA,NA,NA,NA,NA,NA,NA,NA,NA,NA
d9556,task,flow.Sequence,3_0_0_0_0,NA,NA,completion,25213.44,84454,84454.5,84463.4,109676.84,109679,2023-08-20T14:35:14Z,109693.5,NULL,Verpackung,ufungaji,s,uhusiano,upimaji,uchunguzi,NA,sdf,NA,0,NA,NA,NA,NA,NA,NA,NA,NA,NA,NA,NA,NA,NA,NA,NA,NA,NA,NA,NA
d9556,deep,flow.Sequence,3_0_0_0_1_0,NA,NA,skipped,NA,109679,NA,NA,109676.84,109679,2023-08-20T14:35:14Z,109693.5,NULL,Hoffnung,matarajio,s,kutaalamika,uratibu,mvumbuzi,NA,sdf,NA,0,NA,NA,NA,NA,NA,NA,NA,NA,NA,NA,NA,NA,NA,NA,NA,NA,NA,NA,NA
d9556,Shallow Question,html.Page,3_0_0_0_1_1_0,NA,NA,form submission,4664.5,109679,109676.84,109693.5,114358,114358,2023-08-20T14:35:18Z,114359.58,NULL,Hoffnung,matarajio,s,kutaalamika,uratibu,mvumbuzi,kutaalamika,NA,NA,0,NA,NA,NA,NA,NA,NA,NA,NA,NA,NA,NA,NA,NA,NA,NA,NA,NA,NA,NA
d9556,"""Richtig""-Screen",canvas.Screen,3_0_0_0_1_1_1,NA,NA,skipped,NA,114362,NA,NA,114358,114362,2023-08-20T14:35:18Z,114359.58,NULL,Hoffnung,matarajio,s,kutaalamika,uratibu,mvumbuzi,NA,sdf,NA,0,NA,NA,NA,NA,NA,NA,NA,NA,NA,NA,NA,NA,NA,NA,NA,NA,NA,NA,NA
d9556,"""Falsch""-Screen",canvas.Screen,3_0_0_0_1_1_2,NA,NA,timeout,4999.36,114366,114354.98,114359.58,119342.28,119345,2023-08-20T14:35:23Z,119358.94,NULL,Hoffnung,matarajio,s,kutaalamika,uratibu,mvumbuzi,NA,sdf,0,0,NA,NA,NA,NA,NA,NA,NA,NA,NA,NA,NA,NA,NA,NA,NA,NA,NA,NA,NA
d9556,shallow,flow.Sequence,3_0_0_0_1_1,NA,NA,completion,9648.78,109679,109676.84,109693.5,119342.28,119346,2023-08-20T14:35:23Z,119358.94,NULL,Hoffnung,matarajio,s,kutaalamika,uratibu,mvumbuzi,NA,sdf,NA,0,NA,NA,NA,NA,NA,NA,NA,NA,NA,NA,NA,NA,NA,NA,NA,NA,NA,NA,NA
d9556,task,flow.Sequence,3_0_0_0_1,NA,NA,completion,9648.78,109679,109676.84,109693.5,119342.28,119346,2023-08-20T14:35:23Z,119358.94,NULL,Hoffnung,matarajio,s,kutaalamika,uratibu,mvumbuzi,NA,sdf,NA,0,NA,NA,NA,NA,NA,NA,NA,NA,NA,NA,NA,NA,NA,NA,NA,NA,NA,NA,NA
d9556,Deep Question,html.Page,3_0_0_0_2_0_0,NA,NA,form submission,4885.06,119347,119342.28,119358.94,124244,124245,2023-08-20T14:35:28Z,124258.3,NULL,Theorie,nadharia,d,NA,NA,NA,ufungaji,NA,NA,0,NA,NA,NA,NA,NA,NA,NA,NA,NA,NA,NA,NA,NA,NA,NA,NA,NA,NA,NA
d9556,"""Richtig""-Screen",canvas.Screen,3_0_0_0_2_0_1,NA,NA,skipped,NA,124251,NA,NA,124244,124252,2023-08-20T14:35:28Z,124258.3,NULL,Theorie,nadharia,d,NA,NA,NA,NA,sdf,NA,0,NA,NA,NA,NA,NA,NA,NA,NA,NA,NA,NA,NA,NA,NA,NA,NA,NA,NA,NA
d9556,"""Falsch""-Screen",canvas.Screen,3_0_0_0_2_0_2,NA,NA,timeout,4999.38,124257,124241.68,124258.3,129241.06,129242,2023-08-20T14:35:33Z,129257.68,NULL,Theorie,nadharia,d,NA,NA,NA,NA,sdf,0,0,NA,NA,NA,NA,NA,NA,NA,NA,NA,NA,NA,NA,NA,NA,NA,NA,NA,NA,NA
d9556,deep,flow.Sequence,3_0_0_0_2_0,NA,NA,completion,9882.12,119347,119342.28,119358.94,129241.06,129243,2023-08-20T14:35:33Z,129257.68,NULL,Theorie,nadharia,d,NA,NA,NA,NA,sdf,NA,0,NA,NA,NA,NA,NA,NA,NA,NA,NA,NA,NA,NA,NA,NA,NA,NA,NA,NA,NA
d9556,shallow,flow.Sequence,3_0_0_0_2_1,NA,NA,skipped,NA,129243,NA,NA,129241.06,129244,2023-08-20T14:35:33Z,129257.68,NULL,Theorie,nadharia,d,NA,NA,NA,NA,sdf,NA,0,NA,NA,NA,NA,NA,NA,NA,NA,NA,NA,NA,NA,NA,NA,NA,NA,NA,NA,NA
d9556,task,flow.Sequence,3_0_0_0_2,NA,NA,completion,9882.12,119347,119342.28,119358.94,129241.06,129244,2023-08-20T14:35:33Z,129257.68,NULL,Theorie,nadharia,d,NA,NA,NA,NA,sdf,NA,0,NA,NA,NA,NA,NA,NA,NA,NA,NA,NA,NA,NA,NA,NA,NA,NA,NA,NA,NA
d9556,Deep Question,html.Page,3_0_0_0_3_0_0,NA,NA,form submission,3590.32,129244,129241.06,129257.68,132848,132849,2023-08-20T14:35:37Z,132857.24,NULL,Schock,mshtuko,d,NA,NA,NA,k,NA,NA,0,NA,NA,NA,NA,NA,NA,NA,NA,NA,NA,NA,NA,NA,NA,NA,NA,NA,NA,NA
d9556,"""Richtig""-Screen",canvas.Screen,3_0_0_0_3_0_1,NA,NA,skipped,NA,132853,NA,NA,132848,132853,2023-08-20T14:35:37Z,132857.24,NULL,Schock,mshtuko,d,NA,NA,NA,NA,sdf,NA,0,NA,NA,NA,NA,NA,NA,NA,NA,NA,NA,NA,NA,NA,NA,NA,NA,NA,NA,NA
d9556,"""Falsch""-Screen",canvas.Screen,3_0_0_0_3_0_2,NA,NA,timeout,4999.32,132857,132845.06,132857.24,137839.98,137841,2023-08-20T14:35:42Z,137856.56,NULL,Schock,mshtuko,d,NA,NA,NA,NA,sdf,0,0,NA,NA,NA,NA,NA,NA,NA,NA,NA,NA,NA,NA,NA,NA,NA,NA,NA,NA,NA
d9556,deep,flow.Sequence,3_0_0_0_3_0,NA,NA,completion,8582.3,129244,129241.06,129257.68,137839.98,137842,2023-08-20T14:35:42Z,137856.56,NULL,Schock,mshtuko,d,NA,NA,NA,NA,sdf,NA,0,NA,NA,NA,NA,NA,NA,NA,NA,NA,NA,NA,NA,NA,NA,NA,NA,NA,NA,NA
d9556,shallow,flow.Sequence,3_0_0_0_3_1,NA,NA,skipped,NA,137842,NA,NA,137839.98,137842,2023-08-20T14:35:42Z,137856.56,NULL,Schock,mshtuko,d,NA,NA,NA,NA,sdf,NA,0,NA,NA,NA,NA,NA,NA,NA,NA,NA,NA,NA,NA,NA,NA,NA,NA,NA,NA,NA
d9556,task,flow.Sequence,3_0_0_0_3,NA,NA,completion,8582.3,129244,129241.06,129257.68,137839.98,137843,2023-08-20T14:35:42Z,137856.56,NULL,Schock,mshtuko,d,NA,NA,NA,NA,sdf,NA,0,NA,NA,NA,NA,NA,NA,NA,NA,NA,NA,NA,NA,NA,NA,NA,NA,NA,NA,NA
d9556,deep,flow.Sequence,3_0_0_0_4_0,NA,NA,skipped,NA,137843,NA,NA,137839.98,137843,2023-08-20T14:35:42Z,137856.56,NULL,Wettbewerb,ushindani,s,mapendezi,kichocheo,ubaguzi,NA,sdf,NA,0,NA,NA,NA,NA,NA,NA,NA,NA,NA,NA,NA,NA,NA,NA,NA,NA,NA,NA,NA
d9556,Shallow Question,html.Page,3_0_0_0_4_1_0,NA,NA,form submission,3952.44,137844,137839.98,137856.56,141809,141809,2023-08-20T14:35:46Z,141822.7,NULL,Wettbewerb,ushindani,s,mapendezi,kichocheo,ubaguzi,ubaguzi,NA,NA,0,NA,NA,NA,NA,NA,NA,NA,NA,NA,NA,NA,NA,NA,NA,NA,NA,NA,NA,NA
d9556,"""Richtig""-Screen",canvas.Screen,3_0_0_0_4_1_1,NA,NA,skipped,NA,141813,NA,NA,141809,141813,2023-08-20T14:35:46Z,141822.7,NULL,Wettbewerb,ushindani,s,mapendezi,kichocheo,ubaguzi,NA,sdf,NA,0,NA,NA,NA,NA,NA,NA,NA,NA,NA,NA,NA,NA,NA,NA,NA,NA,NA,NA,NA
d9556,"""Falsch""-Screen",canvas.Screen,3_0_0_0_4_1_2,NA,NA,timeout,4999.32,141818,141807.06,141822.7,146805.36,146806,2023-08-20T14:35:51Z,146822.02,NULL,Wettbewerb,ushindani,s,mapendezi,kichocheo,ubaguzi,NA,sdf,0,0,NA,NA,NA,NA,NA,NA,NA,NA,NA,NA,NA,NA,NA,NA,NA,NA,NA,NA,NA
d9556,shallow,flow.Sequence,3_0_0_0_4_1,NA,NA,completion,8948.8,137844,137839.98,137856.56,146805.36,146806,2023-08-20T14:35:51Z,146822.02,NULL,Wettbewerb,ushindani,s,mapendezi,kichocheo,ubaguzi,NA,sdf,NA,0,NA,NA,NA,NA,NA,NA,NA,NA,NA,NA,NA,NA,NA,NA,NA,NA,NA,NA,NA
d9556,task,flow.Sequence,3_0_0_0_4,NA,NA,completion,8948.8,137843,137839.98,137856.56,146805.36,146806,2023-08-20T14:35:51Z,146822.02,NULL,Wettbewerb,ushindani,s,mapendezi,kichocheo,ubaguzi,NA,sdf,NA,0,NA,NA,NA,NA,NA,NA,NA,NA,NA,NA,NA,NA,NA,NA,NA,NA,NA,NA,NA
d9556,Deep Question,html.Page,3_0_0_0_5_0_0,NA,NA,form submission,5135.98,146807,146805.36,146822.02,151958,151959,2023-08-20T14:35:56Z,151954.68,NULL,Schönheit,kirembo,d,NA,NA,NA,ufungaji,NA,NA,0,NA,NA,NA,NA,NA,NA,NA,NA,NA,NA,NA,NA,NA,NA,NA,NA,NA,NA,NA
d9556,"""Richtig""-Screen",canvas.Screen,3_0_0_0_5_0_1,NA,NA,skipped,NA,151963,NA,NA,151958,151963,2023-08-20T14:35:56Z,151954.68,NULL,Schönheit,kirembo,d,NA,NA,NA,NA,sdf,NA,0,NA,NA,NA,NA,NA,NA,NA,NA,NA,NA,NA,NA,NA,NA,NA,NA,NA,NA,NA
d9556,"""Falsch""-Screen",canvas.Screen,3_0_0_0_5_0_2,NA,NA,timeout,4999.46,151966,151954.26,151954.68,156937.48,156939,2023-08-20T14:36:01Z,156954.14,NULL,Schönheit,kirembo,d,NA,NA,NA,NA,sdf,0,0,NA,NA,NA,NA,NA,NA,NA,NA,NA,NA,NA,NA,NA,NA,NA,NA,NA,NA,NA
d9556,deep,flow.Sequence,3_0_0_0_5_0,NA,NA,completion,10115.46,146806,146805.36,146822.02,156937.48,156939,2023-08-20T14:36:01Z,156954.14,NULL,Schönheit,kirembo,d,NA,NA,NA,NA,sdf,NA,0,NA,NA,NA,NA,NA,NA,NA,NA,NA,NA,NA,NA,NA,NA,NA,NA,NA,NA,NA
d9556,shallow,flow.Sequence,3_0_0_0_5_1,NA,NA,skipped,NA,156940,NA,NA,156937.48,156940,2023-08-20T14:36:01Z,156954.14,NULL,Schönheit,kirembo,d,NA,NA,NA,NA,sdf,NA,0,NA,NA,NA,NA,NA,NA,NA,NA,NA,NA,NA,NA,NA,NA,NA,NA,NA,NA,NA
d9556,task,flow.Sequence,3_0_0_0_5,NA,NA,completion,10115.46,146806,146805.36,146822.02,156937.48,156940,2023-08-20T14:36:01Z,156954.14,NULL,Schönheit,kirembo,d,NA,NA,NA,NA,sdf,NA,0,NA,NA,NA,NA,NA,NA,NA,NA,NA,NA,NA,NA,NA,NA,NA,NA,NA,NA,NA
d9556,deep,flow.Sequence,3_0_0_0_6_0,NA,NA,skipped,NA,156941,NA,NA,156937.48,156941,2023-08-20T14:36:01Z,156954.14,NULL,Auftrag,uagizaji,s,ghanima,kuzingatia,msukani,NA,sdf,NA,0,NA,NA,NA,NA,NA,NA,NA,NA,NA,NA,NA,NA,NA,NA,NA,NA,NA,NA,NA
d9556,Shallow Question,html.Page,3_0_0_0_6_1_0,NA,NA,form submission,4286.86,156941,156937.48,156954.14,161241,161241,2023-08-20T14:36:05Z,161253.52,NULL,Auftrag,uagizaji,s,ghanima,kuzingatia,msukani,ghanima,NA,NA,0,NA,NA,NA,NA,NA,NA,NA,NA,NA,NA,NA,NA,NA,NA,NA,NA,NA,NA,NA
d9556,"""Richtig""-Screen",canvas.Screen,3_0_0_0_6_1_1,NA,NA,skipped,NA,161245,NA,NA,161241,161245,2023-08-20T14:36:05Z,161253.52,NULL,Auftrag,uagizaji,s,ghanima,kuzingatia,msukani,NA,sdf,NA,0,NA,NA,NA,NA,NA,NA,NA,NA,NA,NA,NA,NA,NA,NA,NA,NA,NA,NA,NA
d9556,"""Falsch""-Screen",canvas.Screen,3_0_0_0_6_1_2,NA,NA,timeout,4999.38,161248,161239.26,161253.52,166236.3,166237,2023-08-20T14:36:10Z,166252.9,NULL,Auftrag,uagizaji,s,ghanima,kuzingatia,msukani,NA,sdf,0,0,NA,NA,NA,NA,NA,NA,NA,NA,NA,NA,NA,NA,NA,NA,NA,NA,NA,NA,NA
d9556,shallow,flow.Sequence,3_0_0_0_6_1,NA,NA,completion,9282.16,156941,156937.48,156954.14,166236.3,166238,2023-08-20T14:36:10Z,166252.9,NULL,Auftrag,uagizaji,s,ghanima,kuzingatia,msukani,NA,sdf,NA,0,NA,NA,NA,NA,NA,NA,NA,NA,NA,NA,NA,NA,NA,NA,NA,NA,NA,NA,NA
d9556,task,flow.Sequence,3_0_0_0_6,NA,NA,completion,9282.16,156941,156937.48,156954.14,166236.3,166238,2023-08-20T14:36:10Z,166252.9,NULL,Auftrag,uagizaji,s,ghanima,kuzingatia,msukani,NA,sdf,NA,0,NA,NA,NA,NA,NA,NA,NA,NA,NA,NA,NA,NA,NA,NA,NA,NA,NA,NA,NA
d9556,Deep Question,html.Page,3_0_0_0_7_0_0,NA,NA,form submission,4607.1,166239,166236.3,166252.9,170860,170861,2023-08-20T14:36:15Z,170868.96,NULL,Zufall,kikuti,d,NA,NA,NA,ufungaji,NA,NA,0,NA,NA,NA,NA,NA,NA,NA,NA,NA,NA,NA,NA,NA,NA,NA,NA,NA,NA,NA
d9556,"""Richtig""-Screen",canvas.Screen,3_0_0_0_7_0_1,NA,NA,skipped,NA,170861,NA,NA,170860,170861,2023-08-20T14:36:15Z,170868.96,NULL,Zufall,kikuti,d,NA,NA,NA,NA,sdf,NA,0,NA,NA,NA,NA,NA,NA,NA,NA,NA,NA,NA,NA,NA,NA,NA,NA,NA,NA,NA
d9556,"""Falsch""-Screen",canvas.Screen,3_0_0_0_7_0_2,NA,NA,timeout,4999.32,170863,170859.28,170868.96,175851.72,175857,2023-08-20T14:36:20Z,175868.28,NULL,Zufall,kikuti,d,NA,NA,NA,NA,sdf,0,0,NA,NA,NA,NA,NA,NA,NA,NA,NA,NA,NA,NA,NA,NA,NA,NA,NA,NA,NA
d9556,deep,flow.Sequence,3_0_0_0_7_0,NA,NA,completion,9598.82,166239,166236.3,166252.9,175851.72,175860,2023-08-20T14:36:20Z,175868.28,NULL,Zufall,kikuti,d,NA,NA,NA,NA,sdf,NA,0,NA,NA,NA,NA,NA,NA,NA,NA,NA,NA,NA,NA,NA,NA,NA,NA,NA,NA,NA
d9556,shallow,flow.Sequence,3_0_0_0_7_1,NA,NA,skipped,NA,175860,NA,NA,175851.72,175861,2023-08-20T14:36:20Z,175868.28,NULL,Zufall,kikuti,d,NA,NA,NA,NA,sdf,NA,0,NA,NA,NA,NA,NA,NA,NA,NA,NA,NA,NA,NA,NA,NA,NA,NA,NA,NA,NA
d9556,task,flow.Sequence,3_0_0_0_7,NA,NA,completion,9598.82,166239,166236.3,166252.9,175851.72,175862,2023-08-20T14:36:20Z,175868.28,NULL,Zufall,kikuti,d,NA,NA,NA,NA,sdf,NA,0,NA,NA,NA,NA,NA,NA,NA,NA,NA,NA,NA,NA,NA,NA,NA,NA,NA,NA,NA
d9556,block,flow.Loop,3_0_0_0,NA,NA,completion,91388.32,84454,84454.5,84463.4,175851.72,175863,2023-08-20T14:36:20Z,175868.28,NULL,NA,NA,NA,NA,NA,NA,NA,sdf,NA,0,NA,NA,NA,NA,NA,NA,NA,NA,NA,NA,NA,NA,NA,NA,NA,NA,NA,NA,NA
d9556,weiter,canvas.Screen,3_0_0_1,sdf,keypress(Space),response,1695.72,175863,175851.72,175868.28,177564,177574,2023-08-20T14:36:21Z,177651.38,NULL,NA,NA,NA,NA,NA,NA,NA,sdf,NA,0,NA,NA,NA,NA,NA,NA,NA,NA,NA,NA,NA,NA,NA,NA,NA,NA,NA,NA,NA
d9556,check continue,flow.Sequence,3_0_0,NA,NA,completion,93100.6,84454,84454.5,84463.4,177564,177575,2023-08-20T14:36:21Z,177651.38,NULL,NA,NA,NA,NA,NA,NA,NA,sdf,NA,0,NA,NA,NA,NA,NA,NA,NA,NA,NA,NA,NA,NA,NA,NA,NA,NA,NA,NA,NA
d9556,deep,flow.Sequence,3_0_1_0_0_0,NA,NA,skipped,NA,177642,NA,NA,177564,177642,2023-08-20T14:36:21Z,177651.38,NULL,Verpackung,ufungaji,s,uhusiano,upimaji,uchunguzi,NA,sdfdsf,NA,1,NA,NA,NA,NA,NA,NA,NA,NA,NA,NA,NA,NA,NA,NA,NA,NA,NA,NA,NA
d9556,Shallow Question,html.Page,3_0_1_0_0_1_0,NA,NA,form submission,5307.62,177643,177642.2,177651.38,182959,182959,2023-08-20T14:36:27Z,182967.4,NULL,Verpackung,ufungaji,s,uhusiano,upimaji,uchunguzi,ufungaji,NA,NA,1,NA,NA,NA,NA,NA,NA,NA,NA,NA,NA,NA,NA,NA,NA,NA,NA,NA,NA,NA
d9556,"""Richtig""-Screen",canvas.Screen,3_0_1_0_0_1_1,NA,NA,timeout,4999.34,182963,182956.42,182967.4,187950.12,187952,2023-08-20T14:36:32Z,187966.74,NULL,Verpackung,ufungaji,s,uhusiano,upimaji,uchunguzi,NA,sdfdsf,1,1,NA,NA,NA,NA,NA,NA,NA,NA,NA,NA,NA,NA,NA,NA,NA,NA,NA,NA,NA
d9556,"""Falsch""-Screen",canvas.Screen,3_0_1_0_0_1_2,NA,NA,skipped,NA,187959,NA,NA,187950.12,187959,2023-08-20T14:36:32Z,187966.74,NULL,Verpackung,ufungaji,s,uhusiano,upimaji,uchunguzi,NA,sdfdsf,NA,1,NA,NA,NA,NA,NA,NA,NA,NA,NA,NA,NA,NA,NA,NA,NA,NA,NA,NA,NA
d9556,shallow,flow.Sequence,3_0_1_0_0_1,NA,NA,completion,10298.74,177643,177642.2,177651.38,187950.12,187960,2023-08-20T14:36:32Z,187966.74,NULL,Verpackung,ufungaji,s,uhusiano,upimaji,uchunguzi,NA,sdfdsf,NA,1,NA,NA,NA,NA,NA,NA,NA,NA,NA,NA,NA,NA,NA,NA,NA,NA,NA,NA,NA
d9556,task,flow.Sequence,3_0_1_0_0,NA,NA,completion,10298.74,177642,177642.2,177651.38,187950.12,187961,2023-08-20T14:36:32Z,187966.74,NULL,Verpackung,ufungaji,s,uhusiano,upimaji,uchunguzi,NA,sdfdsf,NA,1,NA,NA,NA,NA,NA,NA,NA,NA,NA,NA,NA,NA,NA,NA,NA,NA,NA,NA,NA
d9556,Deep Question,html.Page,3_0_1_0_1_0_0,NA,NA,form submission,6606.26,187961,187950.12,187966.74,194573,194573,2023-08-20T14:36:38Z,194582.54,NULL,Zufall,kikuti,d,NA,NA,NA,mshtoko,NA,NA,1,NA,NA,NA,NA,NA,NA,NA,NA,NA,NA,NA,NA,NA,NA,NA,NA,NA,NA,NA
d9556,"""Richtig""-Screen",canvas.Screen,3_0_1_0_1_0_1,NA,NA,skipped,NA,194574,NA,NA,194573,194574,2023-08-20T14:36:38Z,194582.54,NULL,Zufall,kikuti,d,NA,NA,NA,NA,sdfdsf,NA,1,NA,NA,NA,NA,NA,NA,NA,NA,NA,NA,NA,NA,NA,NA,NA,NA,NA,NA,NA
d9556,"""Falsch""-Screen",canvas.Screen,3_0_1_0_1_0_2,NA,NA,timeout,4999.42,194576,194571.46,194582.54,199565.28,199566,2023-08-20T14:36:43Z,199581.96,NULL,Zufall,kikuti,d,NA,NA,NA,NA,sdfdsf,0,1,NA,NA,NA,NA,NA,NA,NA,NA,NA,NA,NA,NA,NA,NA,NA,NA,NA,NA,NA
d9556,deep,flow.Sequence,3_0_1_0_1_0,NA,NA,completion,11598.54,187961,187950.12,187966.74,199565.28,199567,2023-08-20T14:36:43Z,199581.96,NULL,Zufall,kikuti,d,NA,NA,NA,NA,sdfdsf,NA,1,NA,NA,NA,NA,NA,NA,NA,NA,NA,NA,NA,NA,NA,NA,NA,NA,NA,NA,NA
d9556,shallow,flow.Sequence,3_0_1_0_1_1,NA,NA,skipped,NA,199568,NA,NA,199565.28,199568,2023-08-20T14:36:43Z,199581.96,NULL,Zufall,kikuti,d,NA,NA,NA,NA,sdfdsf,NA,1,NA,NA,NA,NA,NA,NA,NA,NA,NA,NA,NA,NA,NA,NA,NA,NA,NA,NA,NA
d9556,task,flow.Sequence,3_0_1_0_1,NA,NA,completion,11598.54,187961,187950.12,187966.74,199565.28,199568,2023-08-20T14:36:43Z,199581.96,NULL,Zufall,kikuti,d,NA,NA,NA,NA,sdfdsf,NA,1,NA,NA,NA,NA,NA,NA,NA,NA,NA,NA,NA,NA,NA,NA,NA,NA,NA,NA,NA
d9556,Deep Question,html.Page,3_0_1_0_2_0_0,NA,NA,form submission,5999.04,199569,199565.28,199581.96,205581,205581,2023-08-20T14:36:49Z,205581.16,NULL,Theorie,nadharia,d,NA,NA,NA,kikuti,NA,NA,1,NA,NA,NA,NA,NA,NA,NA,NA,NA,NA,NA,NA,NA,NA,NA,NA,NA,NA,NA
d9556,"""Richtig""-Screen",canvas.Screen,3_0_1_0_2_0_1,NA,NA,skipped,NA,205584,NA,NA,205581,205584,2023-08-20T14:36:49Z,205581.16,NULL,Theorie,nadharia,d,NA,NA,NA,NA,sdfdsf,NA,1,NA,NA,NA,NA,NA,NA,NA,NA,NA,NA,NA,NA,NA,NA,NA,NA,NA,NA,NA
d9556,"""Falsch""-Screen",canvas.Screen,3_0_1_0_2_0_2,NA,NA,timeout,4999.4,205588,205578.26,205581.16,210563.9,210566,2023-08-20T14:36:54Z,210580.56,NULL,Theorie,nadharia,d,NA,NA,NA,NA,sdfdsf,0,1,NA,NA,NA,NA,NA,NA,NA,NA,NA,NA,NA,NA,NA,NA,NA,NA,NA,NA,NA
d9556,deep,flow.Sequence,3_0_1_0_2_0,NA,NA,completion,10981.94,199569,199565.28,199581.96,210563.9,210566,2023-08-20T14:36:54Z,210580.56,NULL,Theorie,nadharia,d,NA,NA,NA,NA,sdfdsf,NA,1,NA,NA,NA,NA,NA,NA,NA,NA,NA,NA,NA,NA,NA,NA,NA,NA,NA,NA,NA
d9556,shallow,flow.Sequence,3_0_1_0_2_1,NA,NA,skipped,NA,210566,NA,NA,210563.9,210567,2023-08-20T14:36:54Z,210580.56,NULL,Theorie,nadharia,d,NA,NA,NA,NA,sdfdsf,NA,1,NA,NA,NA,NA,NA,NA,NA,NA,NA,NA,NA,NA,NA,NA,NA,NA,NA,NA,NA
d9556,task,flow.Sequence,3_0_1_0_2,NA,NA,completion,10981.94,199568,199565.28,199581.96,210563.9,210567,2023-08-20T14:36:54Z,210580.56,NULL,Theorie,nadharia,d,NA,NA,NA,NA,sdfdsf,NA,1,NA,NA,NA,NA,NA,NA,NA,NA,NA,NA,NA,NA,NA,NA,NA,NA,NA,NA,NA
d9556,Deep Question,html.Page,3_0_1_0_3_0_0,NA,NA,form submission,7442.44,210568,210563.9,210580.56,218023,218023,2023-08-20T14:37:02Z,218029.54,NULL,Schönheit,kirembo,d,NA,NA,NA,mshtoko,NA,NA,1,NA,NA,NA,NA,NA,NA,NA,NA,NA,NA,NA,NA,NA,NA,NA,NA,NA,NA,NA
d9556,"""Richtig""-Screen",canvas.Screen,3_0_1_0_3_0_1,NA,NA,skipped,NA,218026,NA,NA,218023,218026,2023-08-20T14:37:02Z,218029.54,NULL,Schönheit,kirembo,d,NA,NA,NA,NA,sdfdsf,NA,1,NA,NA,NA,NA,NA,NA,NA,NA,NA,NA,NA,NA,NA,NA,NA,NA,NA,NA,NA
d9556,"""Falsch""-Screen",canvas.Screen,3_0_1_0_3_0_2,NA,NA,timeout,4999.44,218031,218021.24,218029.54,223012.3,223015,2023-08-20T14:37:07Z,223028.98,NULL,Schönheit,kirembo,d,NA,NA,NA,NA,sdfdsf,0,1,NA,NA,NA,NA,NA,NA,NA,NA,NA,NA,NA,NA,NA,NA,NA,NA,NA,NA,NA
d9556,deep,flow.Sequence,3_0_1_0_3_0,NA,NA,completion,12431.74,210568,210563.9,210580.56,223012.3,223015,2023-08-20T14:37:07Z,223028.98,NULL,Schönheit,kirembo,d,NA,NA,NA,NA,sdfdsf,NA,1,NA,NA,NA,NA,NA,NA,NA,NA,NA,NA,NA,NA,NA,NA,NA,NA,NA,NA,NA
d9556,shallow,flow.Sequence,3_0_1_0_3_1,NA,NA,skipped,NA,223016,NA,NA,223012.3,223016,2023-08-20T14:37:07Z,223028.98,NULL,Schönheit,kirembo,d,NA,NA,NA,NA,sdfdsf,NA,1,NA,NA,NA,NA,NA,NA,NA,NA,NA,NA,NA,NA,NA,NA,NA,NA,NA,NA,NA
d9556,task,flow.Sequence,3_0_1_0_3,NA,NA,completion,12431.74,210567,210563.9,210580.56,223012.3,223016,2023-08-20T14:37:07Z,223028.98,NULL,Schönheit,kirembo,d,NA,NA,NA,NA,sdfdsf,NA,1,NA,NA,NA,NA,NA,NA,NA,NA,NA,NA,NA,NA,NA,NA,NA,NA,NA,NA,NA
d9556,deep,flow.Sequence,3_0_1_0_4_0,NA,NA,skipped,NA,223017,NA,NA,223012.3,223017,2023-08-20T14:37:07Z,223028.98,NULL,Auftrag,uagizaji,s,ghanima,kuzingatia,msukani,NA,sdfdsf,NA,1,NA,NA,NA,NA,NA,NA,NA,NA,NA,NA,NA,NA,NA,NA,NA,NA,NA,NA,NA
d9556,Shallow Question,html.Page,3_0_1_0_4_1_0,NA,NA,form submission,4075.02,223017,223012.3,223028.98,227104,227105,2023-08-20T14:37:11Z,227111.68,NULL,Auftrag,uagizaji,s,ghanima,kuzingatia,msukani,uagizaji,NA,NA,1,NA,NA,NA,NA,NA,NA,NA,NA,NA,NA,NA,NA,NA,NA,NA,NA,NA,NA,NA
d9556,"""Richtig""-Screen",canvas.Screen,3_0_1_0_4_1_1,NA,NA,timeout,4999.4,227108,227101.68,227111.68,232094.4,232100,2023-08-20T14:37:16Z,232111.08,NULL,Auftrag,uagizaji,s,ghanima,kuzingatia,msukani,NA,sdfdsf,1,1,NA,NA,NA,NA,NA,NA,NA,NA,NA,NA,NA,NA,NA,NA,NA,NA,NA,NA,NA
d9556,"""Falsch""-Screen",canvas.Screen,3_0_1_0_4_1_2,NA,NA,skipped,NA,232116,NA,NA,232094.4,232116,2023-08-20T14:37:16Z,232111.08,NULL,Auftrag,uagizaji,s,ghanima,kuzingatia,msukani,NA,sdfdsf,NA,1,NA,NA,NA,NA,NA,NA,NA,NA,NA,NA,NA,NA,NA,NA,NA,NA,NA,NA,NA
d9556,shallow,flow.Sequence,3_0_1_0_4_1,NA,NA,completion,9065.42,223017,223012.3,223028.98,232094.4,232118,2023-08-20T14:37:16Z,232111.08,NULL,Auftrag,uagizaji,s,ghanima,kuzingatia,msukani,NA,sdfdsf,NA,1,NA,NA,NA,NA,NA,NA,NA,NA,NA,NA,NA,NA,NA,NA,NA,NA,NA,NA,NA
d9556,task,flow.Sequence,3_0_1_0_4,NA,NA,completion,9065.42,223016,223012.3,223028.98,232094.4,232118,2023-08-20T14:37:16Z,232111.08,NULL,Auftrag,uagizaji,s,ghanima,kuzingatia,msukani,NA,sdfdsf,NA,1,NA,NA,NA,NA,NA,NA,NA,NA,NA,NA,NA,NA,NA,NA,NA,NA,NA,NA,NA
d9556,deep,flow.Sequence,3_0_1_0_5_0,NA,NA,skipped,NA,232118,NA,NA,232094.4,232119,2023-08-20T14:37:16Z,232111.08,NULL,Hoffnung,matarajio,s,kutaalamika,uratibu,mvumbuzi,NA,sdfdsf,NA,1,NA,NA,NA,NA,NA,NA,NA,NA,NA,NA,NA,NA,NA,NA,NA,NA,NA,NA,NA
d9556,Shallow Question,html.Page,3_0_1_0_5_1_0,NA,NA,form submission,16613.92,232119,232094.4,232111.08,248725,248726,2023-08-20T14:37:33Z,248725.58,NULL,Hoffnung,matarajio,s,kutaalamika,uratibu,mvumbuzi,uratibu,NA,NA,1,NA,NA,NA,NA,NA,NA,NA,NA,NA,NA,NA,NA,NA,NA,NA,NA,NA,NA,NA
d9556,"""Richtig""-Screen",canvas.Screen,3_0_1_0_5_1_1,NA,NA,skipped,NA,248729,NA,NA,248725,248730,2023-08-20T14:37:33Z,248725.58,NULL,Hoffnung,matarajio,s,kutaalamika,uratibu,mvumbuzi,NA,sdfdsf,NA,1,NA,NA,NA,NA,NA,NA,NA,NA,NA,NA,NA,NA,NA,NA,NA,NA,NA,NA,NA
d9556,"""Falsch""-Screen",canvas.Screen,3_0_1_0_5_1_2,NA,NA,timeout,4999.28,248734,248720.78,248725.58,253708.24,253709,2023-08-20T14:37:38Z,253724.86,NULL,Hoffnung,matarajio,s,kutaalamika,uratibu,mvumbuzi,NA,sdfdsf,0,1,NA,NA,NA,NA,NA,NA,NA,NA,NA,NA,NA,NA,NA,NA,NA,NA,NA,NA,NA
d9556,shallow,flow.Sequence,3_0_1_0_5_1,NA,NA,completion,21597.16,232119,232094.4,232111.08,253708.24,253709,2023-08-20T14:37:38Z,253724.86,NULL,Hoffnung,matarajio,s,kutaalamika,uratibu,mvumbuzi,NA,sdfdsf,NA,1,NA,NA,NA,NA,NA,NA,NA,NA,NA,NA,NA,NA,NA,NA,NA,NA,NA,NA,NA
d9556,task,flow.Sequence,3_0_1_0_5,NA,NA,completion,21597.16,232118,232094.4,232111.08,253708.24,253710,2023-08-20T14:37:38Z,253724.86,NULL,Hoffnung,matarajio,s,kutaalamika,uratibu,mvumbuzi,NA,sdfdsf,NA,1,NA,NA,NA,NA,NA,NA,NA,NA,NA,NA,NA,NA,NA,NA,NA,NA,NA,NA,NA
d9556,Deep Question,html.Page,3_0_1_0_6_0_0,NA,NA,form submission,5346.14,253710,253708.24,253724.86,259071,259072,2023-08-20T14:37:43Z,259074.18,NULL,Schock,mshtuko,d,NA,NA,NA,mshtoko,NA,NA,1,NA,NA,NA,NA,NA,NA,NA,NA,NA,NA,NA,NA,NA,NA,NA,NA,NA,NA,NA
d9556,"""Richtig""-Screen",canvas.Screen,3_0_1_0_6_0_1,NA,NA,skipped,NA,259077,NA,NA,259071,259078,2023-08-20T14:37:43Z,259074.18,NULL,Schock,mshtuko,d,NA,NA,NA,NA,sdfdsf,NA,1,NA,NA,NA,NA,NA,NA,NA,NA,NA,NA,NA,NA,NA,NA,NA,NA,NA,NA,NA
d9556,"""Falsch""-Screen",canvas.Screen,3_0_1_0_6_0_2,NA,NA,timeout,4999.5,259082,259067.54,259074.18,264057.02,264059,2023-08-20T14:37:48Z,264073.68,NULL,Schock,mshtuko,d,NA,NA,NA,NA,sdfdsf,0,1,NA,NA,NA,NA,NA,NA,NA,NA,NA,NA,NA,NA,NA,NA,NA,NA,NA,NA,NA
d9556,deep,flow.Sequence,3_0_1_0_6_0,NA,NA,completion,10332.16,253710,253708.24,253724.86,264057.02,264059,2023-08-20T14:37:48Z,264073.68,NULL,Schock,mshtuko,d,NA,NA,NA,NA,sdfdsf,NA,1,NA,NA,NA,NA,NA,NA,NA,NA,NA,NA,NA,NA,NA,NA,NA,NA,NA,NA,NA
d9556,shallow,flow.Sequence,3_0_1_0_6_1,NA,NA,skipped,NA,264060,NA,NA,264057.02,264060,2023-08-20T14:37:48Z,264073.68,NULL,Schock,mshtuko,d,NA,NA,NA,NA,sdfdsf,NA,1,NA,NA,NA,NA,NA,NA,NA,NA,NA,NA,NA,NA,NA,NA,NA,NA,NA,NA,NA
d9556,task,flow.Sequence,3_0_1_0_6,NA,NA,completion,10332.16,253710,253708.24,253724.86,264057.02,264061,2023-08-20T14:37:48Z,264073.68,NULL,Schock,mshtuko,d,NA,NA,NA,NA,sdfdsf,NA,1,NA,NA,NA,NA,NA,NA,NA,NA,NA,NA,NA,NA,NA,NA,NA,NA,NA,NA,NA
d9556,deep,flow.Sequence,3_0_1_0_7_0,NA,NA,skipped,NA,264061,NA,NA,264057.02,264062,2023-08-20T14:37:48Z,264073.68,NULL,Wettbewerb,ushindani,s,mapendezi,kichocheo,ubaguzi,NA,sdfdsf,NA,1,NA,NA,NA,NA,NA,NA,NA,NA,NA,NA,NA,NA,NA,NA,NA,NA,NA,NA,NA
d9556,Shallow Question,html.Page,3_0_1_0_7_1_0,NA,NA,form submission,13468.32,264062,264057.02,264073.68,277542,277542,2023-08-20T14:38:01Z,277555.14,NULL,Wettbewerb,ushindani,s,mapendezi,kichocheo,ubaguzi,mapendezi,NA,NA,1,NA,NA,NA,NA,NA,NA,NA,NA,NA,NA,NA,NA,NA,NA,NA,NA,NA,NA,NA
d9556,"""Richtig""-Screen",canvas.Screen,3_0_1_0_7_1_1,NA,NA,skipped,NA,277548,NA,NA,277542,277548,2023-08-20T14:38:01Z,277555.14,NULL,Wettbewerb,ushindani,s,mapendezi,kichocheo,ubaguzi,NA,sdfdsf,NA,1,NA,NA,NA,NA,NA,NA,NA,NA,NA,NA,NA,NA,NA,NA,NA,NA,NA,NA,NA
d9556,"""Falsch""-Screen",canvas.Screen,3_0_1_0_7_1_2,NA,NA,timeout,4999.44,277552,277538.78,277555.14,282537.92,282539,2023-08-20T14:38:06Z,282554.58,NULL,Wettbewerb,ushindani,s,mapendezi,kichocheo,ubaguzi,NA,sdfdsf,0,1,NA,NA,NA,NA,NA,NA,NA,NA,NA,NA,NA,NA,NA,NA,NA,NA,NA,NA,NA
d9556,shallow,flow.Sequence,3_0_1_0_7_1,NA,NA,completion,18464.24,264062,264057.02,264073.68,282537.92,282540,2023-08-20T14:38:06Z,282554.58,NULL,Wettbewerb,ushindani,s,mapendezi,kichocheo,ubaguzi,NA,sdfdsf,NA,1,NA,NA,NA,NA,NA,NA,NA,NA,NA,NA,NA,NA,NA,NA,NA,NA,NA,NA,NA
d9556,task,flow.Sequence,3_0_1_0_7,NA,NA,completion,18464.24,264061,264057.02,264073.68,282537.92,282540,2023-08-20T14:38:06Z,282554.58,NULL,Wettbewerb,ushindani,s,mapendezi,kichocheo,ubaguzi,NA,sdfdsf,NA,1,NA,NA,NA,NA,NA,NA,NA,NA,NA,NA,NA,NA,NA,NA,NA,NA,NA,NA,NA
d9556,block,flow.Loop,3_0_1_0,NA,NA,completion,104886.54,177642,177642.2,177651.38,282537.92,282541,2023-08-20T14:38:06Z,282554.58,NULL,NA,NA,NA,NA,NA,NA,NA,sdfdsf,NA,1,NA,NA,NA,NA,NA,NA,NA,NA,NA,NA,NA,NA,NA,NA,NA,NA,NA,NA,NA
d9556,weiter,canvas.Screen,3_0_1_1,sdf,keypress(Space),response,976.41999999998,282541,282537.92,282554.58,283531,283549,2023-08-20T14:38:07Z,283637.72,NULL,NA,NA,NA,NA,NA,NA,NA,sdfdsf,NA,1,NA,NA,NA,NA,NA,NA,NA,NA,NA,NA,NA,NA,NA,NA,NA,NA,NA,NA,NA
d9556,check continue,flow.Sequence,3_0_1,NA,NA,completion,105879.62,177642,177642.2,177651.38,283531,283550,2023-08-20T14:38:07Z,283637.72,NULL,NA,NA,NA,NA,NA,NA,NA,sdfdsf,NA,1,NA,NA,NA,NA,NA,NA,NA,NA,NA,NA,NA,NA,NA,NA,NA,NA,NA,NA,NA
d9556,Deep Question,html.Page,3_0_2_0_0_0_0,NA,NA,form submission,7061.28,283621,283621.1,283637.72,290699,290699,2023-08-20T14:38:15Z,290703.42,NULL,Theorie,nadharia,d,NA,NA,NA,kikutu,NA,NA,2,NA,NA,NA,NA,NA,NA,NA,NA,NA,NA,NA,NA,NA,NA,NA,NA,NA,NA,NA
d9556,"""Richtig""-Screen",canvas.Screen,3_0_2_0_0_0_1,NA,NA,skipped,NA,290702,NA,NA,290699,290702,2023-08-20T14:38:15Z,290703.42,NULL,Theorie,nadharia,d,NA,NA,NA,NA,sdf,NA,2,NA,NA,NA,NA,NA,NA,NA,NA,NA,NA,NA,NA,NA,NA,NA,NA,NA,NA,NA
d9556,"""Falsch""-Screen",canvas.Screen,3_0_2_0_0_0_2,NA,NA,timeout,4999.38,290705,290697.18,290703.42,295686.2,295688,2023-08-20T14:38:20Z,295702.8,NULL,Theorie,nadharia,d,NA,NA,NA,NA,sdf,0,2,NA,NA,NA,NA,NA,NA,NA,NA,NA,NA,NA,NA,NA,NA,NA,NA,NA,NA,NA
d9556,deep,flow.Sequence,3_0_2_0_0_0,NA,NA,completion,12048.48,283621,283621.1,283637.72,295686.2,295688,2023-08-20T14:38:20Z,295702.8,NULL,Theorie,nadharia,d,NA,NA,NA,NA,sdf,NA,2,NA,NA,NA,NA,NA,NA,NA,NA,NA,NA,NA,NA,NA,NA,NA,NA,NA,NA,NA
d9556,shallow,flow.Sequence,3_0_2_0_0_1,NA,NA,skipped,NA,295689,NA,NA,295686.2,295689,2023-08-20T14:38:20Z,295702.8,NULL,Theorie,nadharia,d,NA,NA,NA,NA,sdf,NA,2,NA,NA,NA,NA,NA,NA,NA,NA,NA,NA,NA,NA,NA,NA,NA,NA,NA,NA,NA
d9556,task,flow.Sequence,3_0_2_0_0,NA,NA,completion,12048.48,283621,283621.1,283637.72,295686.2,295689,2023-08-20T14:38:20Z,295702.8,NULL,Theorie,nadharia,d,NA,NA,NA,NA,sdf,NA,2,NA,NA,NA,NA,NA,NA,NA,NA,NA,NA,NA,NA,NA,NA,NA,NA,NA,NA,NA
d9556,deep,flow.Sequence,3_0_2_0_1_0,NA,NA,skipped,NA,295690,NA,NA,295686.2,295690,2023-08-20T14:38:20Z,295702.8,NULL,Auftrag,uagizaji,s,ghanima,kuzingatia,msukani,NA,sdf,NA,2,NA,NA,NA,NA,NA,NA,NA,NA,NA,NA,NA,NA,NA,NA,NA,NA,NA,NA,NA
d9556,Shallow Question,html.Page,3_0_2_0_1_1_0,NA,NA,form submission,4290.2,295690,295686.2,295702.8,299993,299994,2023-08-20T14:38:24Z,300002.24,NULL,Auftrag,uagizaji,s,ghanima,kuzingatia,msukani,uagizaji,NA,NA,2,NA,NA,NA,NA,NA,NA,NA,NA,NA,NA,NA,NA,NA,NA,NA,NA,NA,NA,NA
d9556,"""Richtig""-Screen",canvas.Screen,3_0_2_0_1_1_1,NA,NA,timeout,4999.42,299998,299989.56,300002.24,304985,304987,2023-08-20T14:38:29Z,305001.66,NULL,Auftrag,uagizaji,s,ghanima,kuzingatia,msukani,NA,sdf,1,2,NA,NA,NA,NA,NA,NA,NA,NA,NA,NA,NA,NA,NA,NA,NA,NA,NA,NA,NA
d9556,"""Falsch""-Screen",canvas.Screen,3_0_2_0_1_1_2,NA,NA,skipped,NA,304993,NA,NA,304985,304993,2023-08-20T14:38:29Z,305001.66,NULL,Auftrag,uagizaji,s,ghanima,kuzingatia,msukani,NA,sdf,NA,2,NA,NA,NA,NA,NA,NA,NA,NA,NA,NA,NA,NA,NA,NA,NA,NA,NA,NA,NA
d9556,shallow,flow.Sequence,3_0_2_0_1_1,NA,NA,completion,9282.2,295690,295686.2,295702.8,304985,304994,2023-08-20T14:38:29Z,305001.66,NULL,Auftrag,uagizaji,s,ghanima,kuzingatia,msukani,NA,sdf,NA,2,NA,NA,NA,NA,NA,NA,NA,NA,NA,NA,NA,NA,NA,NA,NA,NA,NA,NA,NA
d9556,task,flow.Sequence,3_0_2_0_1,NA,NA,completion,9282.2,295689,295686.2,295702.8,304985,304994,2023-08-20T14:38:29Z,305001.66,NULL,Auftrag,uagizaji,s,ghanima,kuzingatia,msukani,NA,sdf,NA,2,NA,NA,NA,NA,NA,NA,NA,NA,NA,NA,NA,NA,NA,NA,NA,NA,NA,NA,NA
d9556,Deep Question,html.Page,3_0_2_0_2_0_0,NA,NA,form submission,4512.34,304995,304985,305001.66,309514,309514,2023-08-20T14:38:33Z,309517.66,NULL,Schock,mshtuko,d,NA,NA,NA,mshtuko,NA,NA,2,NA,NA,NA,NA,NA,NA,NA,NA,NA,NA,NA,NA,NA,NA,NA,NA,NA,NA,NA
d9556,"""Richtig""-Screen",canvas.Screen,3_0_2_0_2_0_1,NA,NA,timeout,4999.4,309516,309512.74,309517.66,314500.46,314503,2023-08-20T14:38:38Z,314517.06,NULL,Schock,mshtuko,d,NA,NA,NA,NA,sdf,1,2,NA,NA,NA,NA,NA,NA,NA,NA,NA,NA,NA,NA,NA,NA,NA,NA,NA,NA,NA
d9556,"""Falsch""-Screen",canvas.Screen,3_0_2_0_2_0_2,NA,NA,skipped,NA,314509,NA,NA,314500.46,314509,2023-08-20T14:38:38Z,314517.06,NULL,Schock,mshtuko,d,NA,NA,NA,NA,sdf,NA,2,NA,NA,NA,NA,NA,NA,NA,NA,NA,NA,NA,NA,NA,NA,NA,NA,NA,NA,NA
d9556,deep,flow.Sequence,3_0_2_0_2_0,NA,NA,completion,9498.8,304995,304985,305001.66,314500.46,314510,2023-08-20T14:38:38Z,314517.06,NULL,Schock,mshtuko,d,NA,NA,NA,NA,sdf,NA,2,NA,NA,NA,NA,NA,NA,NA,NA,NA,NA,NA,NA,NA,NA,NA,NA,NA,NA,NA
d9556,shallow,flow.Sequence,3_0_2_0_2_1,NA,NA,skipped,NA,314511,NA,NA,314500.46,314511,2023-08-20T14:38:38Z,314517.06,NULL,Schock,mshtuko,d,NA,NA,NA,NA,sdf,NA,2,NA,NA,NA,NA,NA,NA,NA,NA,NA,NA,NA,NA,NA,NA,NA,NA,NA,NA,NA
d9556,task,flow.Sequence,3_0_2_0_2,NA,NA,completion,9498.8,304995,304985,305001.66,314500.46,314511,2023-08-20T14:38:38Z,314517.06,NULL,Schock,mshtuko,d,NA,NA,NA,NA,sdf,NA,2,NA,NA,NA,NA,NA,NA,NA,NA,NA,NA,NA,NA,NA,NA,NA,NA,NA,NA,NA
d9556,Deep Question,html.Page,3_0_2_0_3_0_0,NA,NA,form submission,13235.94,314511,314500.46,314517.06,327753,327754,2023-08-20T14:38:52Z,327765.3,NULL,Schönheit,kirembo,d,NA,NA,NA,kikuto,NA,NA,2,NA,NA,NA,NA,NA,NA,NA,NA,NA,NA,NA,NA,NA,NA,NA,NA,NA,NA,NA
d9556,"""Richtig""-Screen",canvas.Screen,3_0_2_0_3_0_1,NA,NA,skipped,NA,327758,NA,NA,327753,327759,2023-08-20T14:38:52Z,327765.3,NULL,Schönheit,kirembo,d,NA,NA,NA,NA,sdf,NA,2,NA,NA,NA,NA,NA,NA,NA,NA,NA,NA,NA,NA,NA,NA,NA,NA,NA,NA,NA
d9556,"""Falsch""-Screen",canvas.Screen,3_0_2_0_3_0_2,NA,NA,timeout,4999.44,327763,327750.44,327765.3,332748.08,332754,2023-08-20T14:38:57Z,332764.74,NULL,Schönheit,kirembo,d,NA,NA,NA,NA,sdf,0,2,NA,NA,NA,NA,NA,NA,NA,NA,NA,NA,NA,NA,NA,NA,NA,NA,NA,NA,NA
d9556,deep,flow.Sequence,3_0_2_0_3_0,NA,NA,completion,18231.02,314511,314500.46,314517.06,332748.08,332756,2023-08-20T14:38:57Z,332764.74,NULL,Schönheit,kirembo,d,NA,NA,NA,NA,sdf,NA,2,NA,NA,NA,NA,NA,NA,NA,NA,NA,NA,NA,NA,NA,NA,NA,NA,NA,NA,NA
d9556,shallow,flow.Sequence,3_0_2_0_3_1,NA,NA,skipped,NA,332758,NA,NA,332748.08,332758,2023-08-20T14:38:57Z,332764.74,NULL,Schönheit,kirembo,d,NA,NA,NA,NA,sdf,NA,2,NA,NA,NA,NA,NA,NA,NA,NA,NA,NA,NA,NA,NA,NA,NA,NA,NA,NA,NA
d9556,task,flow.Sequence,3_0_2_0_3,NA,NA,completion,18231.02,314511,314500.46,314517.06,332748.08,332759,2023-08-20T14:38:57Z,332764.74,NULL,Schönheit,kirembo,d,NA,NA,NA,NA,sdf,NA,2,NA,NA,NA,NA,NA,NA,NA,NA,NA,NA,NA,NA,NA,NA,NA,NA,NA,NA,NA
d9556,deep,flow.Sequence,3_0_2_0_4_0,NA,NA,skipped,NA,332759,NA,NA,332748.08,332760,2023-08-20T14:38:57Z,332764.74,NULL,Verpackung,ufungaji,s,uhusiano,upimaji,uchunguzi,NA,sdf,NA,2,NA,NA,NA,NA,NA,NA,NA,NA,NA,NA,NA,NA,NA,NA,NA,NA,NA,NA,NA
d9556,Shallow Question,html.Page,3_0_2_0_4_1_0,NA,NA,form submission,7351.26,332761,332748.08,332764.74,340116,340117,2023-08-20T14:39:04Z,340113.8,NULL,Verpackung,ufungaji,s,uhusiano,upimaji,uchunguzi,ufungaji,NA,NA,2,NA,NA,NA,NA,NA,NA,NA,NA,NA,NA,NA,NA,NA,NA,NA,NA,NA,NA,NA
d9556,"""Richtig""-Screen",canvas.Screen,3_0_2_0_4_1_1,NA,NA,timeout,4999.34,340124,340111.22,340113.8,345096.52,345099,2023-08-20T14:39:09Z,345113.14,NULL,Verpackung,ufungaji,s,uhusiano,upimaji,uchunguzi,NA,sdf,1,2,NA,NA,NA,NA,NA,NA,NA,NA,NA,NA,NA,NA,NA,NA,NA,NA,NA,NA,NA
d9556,"""Falsch""-Screen",canvas.Screen,3_0_2_0_4_1_2,NA,NA,skipped,NA,345106,NA,NA,345096.52,345106,2023-08-20T14:39:09Z,345113.14,NULL,Verpackung,ufungaji,s,uhusiano,upimaji,uchunguzi,NA,sdf,NA,2,NA,NA,NA,NA,NA,NA,NA,NA,NA,NA,NA,NA,NA,NA,NA,NA,NA,NA,NA
d9556,shallow,flow.Sequence,3_0_2_0_4_1,NA,NA,completion,12331.78,332761,332748.08,332764.74,345096.52,345107,2023-08-20T14:39:09Z,345113.14,NULL,Verpackung,ufungaji,s,uhusiano,upimaji,uchunguzi,NA,sdf,NA,2,NA,NA,NA,NA,NA,NA,NA,NA,NA,NA,NA,NA,NA,NA,NA,NA,NA,NA,NA
d9556,task,flow.Sequence,3_0_2_0_4,NA,NA,completion,12331.78,332759,332748.08,332764.74,345096.52,345108,2023-08-20T14:39:09Z,345113.14,NULL,Verpackung,ufungaji,s,uhusiano,upimaji,uchunguzi,NA,sdf,NA,2,NA,NA,NA,NA,NA,NA,NA,NA,NA,NA,NA,NA,NA,NA,NA,NA,NA,NA,NA
d9556,Deep Question,html.Page,3_0_2_0_5_0_0,NA,NA,form submission,13771.86,345108,345096.52,345113.14,358885,358886,2023-08-20T14:39:23Z,358894.64,NULL,Zufall,kikuti,d,NA,NA,NA,kikutani,NA,NA,2,NA,NA,NA,NA,NA,NA,NA,NA,NA,NA,NA,NA,NA,NA,NA,NA,NA,NA,NA
d9556,"""Richtig""-Screen",canvas.Screen,3_0_2_0_5_0_1,NA,NA,skipped,NA,358890,NA,NA,358885,358890,2023-08-20T14:39:23Z,358894.64,NULL,Zufall,kikuti,d,NA,NA,NA,NA,sdf,NA,2,NA,NA,NA,NA,NA,NA,NA,NA,NA,NA,NA,NA,NA,NA,NA,NA,NA,NA,NA
d9556,"""Falsch""-Screen",canvas.Screen,3_0_2_0_5_0_2,NA,NA,timeout,4999.36,358894,358882.64,358894.64,363877.42,363880,2023-08-20T14:39:28Z,363894,NULL,Zufall,kikuti,d,NA,NA,NA,NA,sdf,0,2,NA,NA,NA,NA,NA,NA,NA,NA,NA,NA,NA,NA,NA,NA,NA,NA,NA,NA,NA
d9556,deep,flow.Sequence,3_0_2_0_5_0,NA,NA,completion,18764.28,345108,345096.52,345113.14,363877.42,363880,2023-08-20T14:39:28Z,363894,NULL,Zufall,kikuti,d,NA,NA,NA,NA,sdf,NA,2,NA,NA,NA,NA,NA,NA,NA,NA,NA,NA,NA,NA,NA,NA,NA,NA,NA,NA,NA
d9556,shallow,flow.Sequence,3_0_2_0_5_1,NA,NA,skipped,NA,363881,NA,NA,363877.42,363881,2023-08-20T14:39:28Z,363894,NULL,Zufall,kikuti,d,NA,NA,NA,NA,sdf,NA,2,NA,NA,NA,NA,NA,NA,NA,NA,NA,NA,NA,NA,NA,NA,NA,NA,NA,NA,NA
d9556,task,flow.Sequence,3_0_2_0_5,NA,NA,completion,18764.28,345108,345096.52,345113.14,363877.42,363881,2023-08-20T14:39:28Z,363894,NULL,Zufall,kikuti,d,NA,NA,NA,NA,sdf,NA,2,NA,NA,NA,NA,NA,NA,NA,NA,NA,NA,NA,NA,NA,NA,NA,NA,NA,NA,NA
d9556,deep,flow.Sequence,3_0_2_0_6_0,NA,NA,skipped,NA,363881,NA,NA,363877.42,363881,2023-08-20T14:39:28Z,363894,NULL,Hoffnung,matarajio,s,kutaalamika,uratibu,mvumbuzi,NA,sdf,NA,2,NA,NA,NA,NA,NA,NA,NA,NA,NA,NA,NA,NA,NA,NA,NA,NA,NA,NA,NA
d9556,Shallow Question,html.Page,3_0_2_0_6_1_0,NA,NA,form submission,4369,363882,363877.42,363894,368263,368263,2023-08-20T14:39:32Z,368276.8,NULL,Hoffnung,matarajio,s,kutaalamika,uratibu,mvumbuzi,matarajio,NA,NA,2,NA,NA,NA,NA,NA,NA,NA,NA,NA,NA,NA,NA,NA,NA,NA,NA,NA,NA,NA
d9556,"""Richtig""-Screen",canvas.Screen,3_0_2_0_6_1_1,NA,NA,timeout,4999.42,368268,368260.9,368276.8,373259.56,373261,2023-08-20T14:39:37Z,373276.22,NULL,Hoffnung,matarajio,s,kutaalamika,uratibu,mvumbuzi,NA,sdf,1,2,NA,NA,NA,NA,NA,NA,NA,NA,NA,NA,NA,NA,NA,NA,NA,NA,NA,NA,NA
d9556,"""Falsch""-Screen",canvas.Screen,3_0_2_0_6_1_2,NA,NA,skipped,NA,373270,NA,NA,373259.56,373270,2023-08-20T14:39:37Z,373276.22,NULL,Hoffnung,matarajio,s,kutaalamika,uratibu,mvumbuzi,NA,sdf,NA,2,NA,NA,NA,NA,NA,NA,NA,NA,NA,NA,NA,NA,NA,NA,NA,NA,NA,NA,NA
d9556,shallow,flow.Sequence,3_0_2_0_6_1,NA,NA,completion,9365.56,363882,363877.42,363894,373259.56,373272,2023-08-20T14:39:37Z,373276.22,NULL,Hoffnung,matarajio,s,kutaalamika,uratibu,mvumbuzi,NA,sdf,NA,2,NA,NA,NA,NA,NA,NA,NA,NA,NA,NA,NA,NA,NA,NA,NA,NA,NA,NA,NA
d9556,task,flow.Sequence,3_0_2_0_6,NA,NA,completion,9365.56,363881,363877.42,363894,373259.56,373272,2023-08-20T14:39:37Z,373276.22,NULL,Hoffnung,matarajio,s,kutaalamika,uratibu,mvumbuzi,NA,sdf,NA,2,NA,NA,NA,NA,NA,NA,NA,NA,NA,NA,NA,NA,NA,NA,NA,NA,NA,NA,NA
d9556,deep,flow.Sequence,3_0_2_0_7_0,NA,NA,skipped,NA,373272,NA,NA,373259.56,373273,2023-08-20T14:39:37Z,373276.22,NULL,Wettbewerb,ushindani,s,mapendezi,kichocheo,ubaguzi,NA,sdf,NA,2,NA,NA,NA,NA,NA,NA,NA,NA,NA,NA,NA,NA,NA,NA,NA,NA,NA,NA,NA
d9556,Shallow Question,html.Page,3_0_2_0_7_1_0,NA,NA,form submission,6033.78,373273,373259.56,373276.22,379310,379311,2023-08-20T14:39:43Z,379308.72,NULL,Wettbewerb,ushindani,s,mapendezi,kichocheo,ubaguzi,ushindani,NA,NA,2,NA,NA,NA,NA,NA,NA,NA,NA,NA,NA,NA,NA,NA,NA,NA,NA,NA,NA,NA
d9556,"""Richtig""-Screen",canvas.Screen,3_0_2_0_7_1_1,NA,NA,timeout,4999.36,379314,379307.3,379308.72,384291.4,384293,2023-08-20T14:39:48Z,384308.08,NULL,Wettbewerb,ushindani,s,mapendezi,kichocheo,ubaguzi,NA,sdf,1,2,NA,NA,NA,NA,NA,NA,NA,NA,NA,NA,NA,NA,NA,NA,NA,NA,NA,NA,NA
d9556,"""Falsch""-Screen",canvas.Screen,3_0_2_0_7_1_2,NA,NA,skipped,NA,384301,NA,NA,384291.4,384301,2023-08-20T14:39:48Z,384308.08,NULL,Wettbewerb,ushindani,s,mapendezi,kichocheo,ubaguzi,NA,sdf,NA,2,NA,NA,NA,NA,NA,NA,NA,NA,NA,NA,NA,NA,NA,NA,NA,NA,NA,NA,NA
d9556,shallow,flow.Sequence,3_0_2_0_7_1,NA,NA,completion,11015.18,373273,373259.56,373276.22,384291.4,384302,2023-08-20T14:39:48Z,384308.08,NULL,Wettbewerb,ushindani,s,mapendezi,kichocheo,ubaguzi,NA,sdf,NA,2,NA,NA,NA,NA,NA,NA,NA,NA,NA,NA,NA,NA,NA,NA,NA,NA,NA,NA,NA
d9556,task,flow.Sequence,3_0_2_0_7,NA,NA,completion,11015.18,373272,373259.56,373276.22,384291.4,384302,2023-08-20T14:39:48Z,384308.08,NULL,Wettbewerb,ushindani,s,mapendezi,kichocheo,ubaguzi,NA,sdf,NA,2,NA,NA,NA,NA,NA,NA,NA,NA,NA,NA,NA,NA,NA,NA,NA,NA,NA,NA,NA
d9556,block,flow.Loop,3_0_2_0,NA,NA,completion,100653.68,283621,283621.1,283637.72,384291.4,384303,2023-08-20T14:39:48Z,384308.08,NULL,NA,NA,NA,NA,NA,NA,NA,sdf,NA,2,NA,NA,NA,NA,NA,NA,NA,NA,NA,NA,NA,NA,NA,NA,NA,NA,NA,NA,NA
d9556,weiter,canvas.Screen,3_0_2_1,sdf,keypress(Space),response,1066.92,384303,384291.4,384308.08,385375,385389,2023-08-20T14:39:49Z,385457.9,NULL,NA,NA,NA,NA,NA,NA,NA,sdf,NA,2,NA,NA,NA,NA,NA,NA,NA,NA,NA,NA,NA,NA,NA,NA,NA,NA,NA,NA,NA
d9556,check continue,flow.Sequence,3_0_2,NA,NA,completion,101737.28,283621,283621.1,283637.72,385375,385390,2023-08-20T14:39:49Z,385457.9,NULL,NA,NA,NA,NA,NA,NA,NA,sdf,NA,2,NA,NA,NA,NA,NA,NA,NA,NA,NA,NA,NA,NA,NA,NA,NA,NA,NA,NA,NA
d9556,deep,flow.Sequence,3_0_3_0_0_0,NA,NA,skipped,NA,385455,NA,NA,385375,385455,2023-08-20T14:39:49Z,385457.9,NULL,Verpackung,ufungaji,s,uhusiano,upimaji,uchunguzi,NA,qt,NA,3,NA,NA,NA,NA,NA,NA,NA,NA,NA,NA,NA,NA,NA,NA,NA,NA,NA,NA,NA
d9556,Shallow Question,html.Page,3_0_3_0_0_1_0,NA,NA,form submission,3473.1,385455,385454.6,385457.9,388931,388934,2023-08-20T14:39:53Z,388940.76,NULL,Verpackung,ufungaji,s,uhusiano,upimaji,uchunguzi,ufungaji,NA,NA,3,NA,NA,NA,NA,NA,NA,NA,NA,NA,NA,NA,NA,NA,NA,NA,NA,NA,NA,NA
d9556,"""Richtig""-Screen",canvas.Screen,3_0_3_0_0_1_1,NA,NA,timeout,4999.42,388941,388924.08,388940.76,393923.52,393926,2023-08-20T14:39:58Z,393940.18,NULL,Verpackung,ufungaji,s,uhusiano,upimaji,uchunguzi,NA,qt,1,3,NA,NA,NA,NA,NA,NA,NA,NA,NA,NA,NA,NA,NA,NA,NA,NA,NA,NA,NA
d9556,"""Falsch""-Screen",canvas.Screen,3_0_3_0_0_1_2,NA,NA,skipped,NA,393933,NA,NA,393923.52,393934,2023-08-20T14:39:58Z,393940.18,NULL,Verpackung,ufungaji,s,uhusiano,upimaji,uchunguzi,NA,qt,NA,3,NA,NA,NA,NA,NA,NA,NA,NA,NA,NA,NA,NA,NA,NA,NA,NA,NA,NA,NA
d9556,shallow,flow.Sequence,3_0_3_0_0_1,NA,NA,completion,8465.62,385455,385454.6,385457.9,393923.52,393934,2023-08-20T14:39:58Z,393940.18,NULL,Verpackung,ufungaji,s,uhusiano,upimaji,uchunguzi,NA,qt,NA,3,NA,NA,NA,NA,NA,NA,NA,NA,NA,NA,NA,NA,NA,NA,NA,NA,NA,NA,NA
d9556,task,flow.Sequence,3_0_3_0_0,NA,NA,completion,8465.62,385455,385454.6,385457.9,393923.52,393935,2023-08-20T14:39:58Z,393940.18,NULL,Verpackung,ufungaji,s,uhusiano,upimaji,uchunguzi,NA,qt,NA,3,NA,NA,NA,NA,NA,NA,NA,NA,NA,NA,NA,NA,NA,NA,NA,NA,NA,NA,NA
d9556,deep,flow.Sequence,3_0_3_0_1_0,NA,NA,skipped,NA,393936,NA,NA,393923.52,393936,2023-08-20T14:39:58Z,393940.18,NULL,Wettbewerb,ushindani,s,mapendezi,kichocheo,ubaguzi,NA,qt,NA,3,NA,NA,NA,NA,NA,NA,NA,NA,NA,NA,NA,NA,NA,NA,NA,NA,NA,NA,NA
d9556,Shallow Question,html.Page,3_0_3_0_1_1_0,NA,NA,form submission,4010.82,393936,393923.52,393940.18,397951,397951,2023-08-20T14:40:02Z,397956.32,NULL,Wettbewerb,ushindani,s,mapendezi,kichocheo,ubaguzi,ushindani,NA,NA,3,NA,NA,NA,NA,NA,NA,NA,NA,NA,NA,NA,NA,NA,NA,NA,NA,NA,NA,NA
d9556,"""Richtig""-Screen",canvas.Screen,3_0_3_0_1_1_1,NA,NA,timeout,4999.3,397956,397946.12,397956.32,402939,402941,2023-08-20T14:40:07Z,402955.62,NULL,Wettbewerb,ushindani,s,mapendezi,kichocheo,ubaguzi,NA,qt,1,3,NA,NA,NA,NA,NA,NA,NA,NA,NA,NA,NA,NA,NA,NA,NA,NA,NA,NA,NA
d9556,"""Falsch""-Screen",canvas.Screen,3_0_3_0_1_1_2,NA,NA,skipped,NA,402947,NA,NA,402939,402948,2023-08-20T14:40:07Z,402955.62,NULL,Wettbewerb,ushindani,s,mapendezi,kichocheo,ubaguzi,NA,qt,NA,3,NA,NA,NA,NA,NA,NA,NA,NA,NA,NA,NA,NA,NA,NA,NA,NA,NA,NA,NA
d9556,shallow,flow.Sequence,3_0_3_0_1_1,NA,NA,completion,8998.82,393936,393923.52,393940.18,402939,402948,2023-08-20T14:40:07Z,402955.62,NULL,Wettbewerb,ushindani,s,mapendezi,kichocheo,ubaguzi,NA,qt,NA,3,NA,NA,NA,NA,NA,NA,NA,NA,NA,NA,NA,NA,NA,NA,NA,NA,NA,NA,NA
d9556,task,flow.Sequence,3_0_3_0_1,NA,NA,completion,8998.82,393935,393923.52,393940.18,402939,402949,2023-08-20T14:40:07Z,402955.62,NULL,Wettbewerb,ushindani,s,mapendezi,kichocheo,ubaguzi,NA,qt,NA,3,NA,NA,NA,NA,NA,NA,NA,NA,NA,NA,NA,NA,NA,NA,NA,NA,NA,NA,NA
d9556,Deep Question,html.Page,3_0_3_0_2_0_0,NA,NA,form submission,10782.38,402949,402939,402955.62,413738,413739,2023-08-20T14:40:18Z,413737.6,NULL,Zufall,kikuti,d,NA,NA,NA,kikuni,NA,NA,3,NA,NA,NA,NA,NA,NA,NA,NA,NA,NA,NA,NA,NA,NA,NA,NA,NA,NA,NA
d9556,"""Richtig""-Screen",canvas.Screen,3_0_3_0_2_0_1,NA,NA,skipped,NA,413743,NA,NA,413738,413744,2023-08-20T14:40:18Z,413737.6,NULL,Zufall,kikuti,d,NA,NA,NA,NA,qt,NA,3,NA,NA,NA,NA,NA,NA,NA,NA,NA,NA,NA,NA,NA,NA,NA,NA,NA,NA,NA
d9556,"""Falsch""-Screen",canvas.Screen,3_0_3_0_2_0_2,NA,NA,timeout,4999.34,413748,413734.4,413737.6,418720.26,418722,2023-08-20T14:40:23Z,418736.94,NULL,Zufall,kikuti,d,NA,NA,NA,NA,qt,0,3,NA,NA,NA,NA,NA,NA,NA,NA,NA,NA,NA,NA,NA,NA,NA,NA,NA,NA,NA
d9556,deep,flow.Sequence,3_0_3_0_2_0,NA,NA,completion,15764.64,402949,402939,402955.62,418720.26,418723,2023-08-20T14:40:23Z,418736.94,NULL,Zufall,kikuti,d,NA,NA,NA,NA,qt,NA,3,NA,NA,NA,NA,NA,NA,NA,NA,NA,NA,NA,NA,NA,NA,NA,NA,NA,NA,NA
d9556,shallow,flow.Sequence,3_0_3_0_2_1,NA,NA,skipped,NA,418723,NA,NA,418720.26,418723,2023-08-20T14:40:23Z,418736.94,NULL,Zufall,kikuti,d,NA,NA,NA,NA,qt,NA,3,NA,NA,NA,NA,NA,NA,NA,NA,NA,NA,NA,NA,NA,NA,NA,NA,NA,NA,NA
d9556,task,flow.Sequence,3_0_3_0_2,NA,NA,completion,15764.64,402949,402939,402955.62,418720.26,418724,2023-08-20T14:40:23Z,418736.94,NULL,Zufall,kikuti,d,NA,NA,NA,NA,qt,NA,3,NA,NA,NA,NA,NA,NA,NA,NA,NA,NA,NA,NA,NA,NA,NA,NA,NA,NA,NA
d9556,deep,flow.Sequence,3_0_3_0_3_0,NA,NA,skipped,NA,418724,NA,NA,418720.26,418725,2023-08-20T14:40:23Z,418736.94,NULL,Auftrag,uagizaji,s,ghanima,kuzingatia,msukani,NA,qt,NA,3,NA,NA,NA,NA,NA,NA,NA,NA,NA,NA,NA,NA,NA,NA,NA,NA,NA,NA,NA
d9556,Shallow Question,html.Page,3_0_3_0_3_1_0,NA,NA,form submission,14546.06,418725,418720.26,418736.94,433283,433284,2023-08-20T14:40:37Z,433285,NULL,Auftrag,uagizaji,s,ghanima,kuzingatia,msukani,uagizaji,NA,NA,3,NA,NA,NA,NA,NA,NA,NA,NA,NA,NA,NA,NA,NA,NA,NA,NA,NA,NA,NA
d9556,"""Richtig""-Screen",canvas.Screen,3_0_3_0_3_1_1,NA,NA,timeout,4999.42,433285,433282.26,433285,438267.78,438269,2023-08-20T14:40:42Z,438284.42,NULL,Auftrag,uagizaji,s,ghanima,kuzingatia,msukani,NA,qt,1,3,NA,NA,NA,NA,NA,NA,NA,NA,NA,NA,NA,NA,NA,NA,NA,NA,NA,NA,NA
d9556,"""Falsch""-Screen",canvas.Screen,3_0_3_0_3_1_2,NA,NA,skipped,NA,438274,NA,NA,438267.78,438275,2023-08-20T14:40:42Z,438284.42,NULL,Auftrag,uagizaji,s,ghanima,kuzingatia,msukani,NA,qt,NA,3,NA,NA,NA,NA,NA,NA,NA,NA,NA,NA,NA,NA,NA,NA,NA,NA,NA,NA,NA
d9556,shallow,flow.Sequence,3_0_3_0_3_1,NA,NA,completion,19530.84,418725,418720.26,418736.94,438267.78,438275,2023-08-20T14:40:42Z,438284.42,NULL,Auftrag,uagizaji,s,ghanima,kuzingatia,msukani,NA,qt,NA,3,NA,NA,NA,NA,NA,NA,NA,NA,NA,NA,NA,NA,NA,NA,NA,NA,NA,NA,NA
d9556,task,flow.Sequence,3_0_3_0_3,NA,NA,completion,19530.84,418724,418720.26,418736.94,438267.78,438275,2023-08-20T14:40:42Z,438284.42,NULL,Auftrag,uagizaji,s,ghanima,kuzingatia,msukani,NA,qt,NA,3,NA,NA,NA,NA,NA,NA,NA,NA,NA,NA,NA,NA,NA,NA,NA,NA,NA,NA,NA
d9556,Deep Question,html.Page,3_0_3_0_4_0_0,NA,NA,form submission,4073.58,438276,438267.78,438284.42,442358,442358,2023-08-20T14:40:46Z,442367.22,NULL,Theorie,nadharia,d,NA,NA,NA,mshtuko,NA,NA,3,NA,NA,NA,NA,NA,NA,NA,NA,NA,NA,NA,NA,NA,NA,NA,NA,NA,NA,NA
d9556,"""Richtig""-Screen",canvas.Screen,3_0_3_0_4_0_1,NA,NA,skipped,NA,442359,NA,NA,442358,442359,2023-08-20T14:40:46Z,442367.22,NULL,Theorie,nadharia,d,NA,NA,NA,NA,qt,NA,3,NA,NA,NA,NA,NA,NA,NA,NA,NA,NA,NA,NA,NA,NA,NA,NA,NA,NA,NA
d9556,"""Falsch""-Screen",canvas.Screen,3_0_3_0_4_0_2,NA,NA,timeout,4999.36,442361,442356.28,442367.22,447349.96,447351,2023-08-20T14:40:51Z,447366.58,NULL,Theorie,nadharia,d,NA,NA,NA,NA,qt,0,3,NA,NA,NA,NA,NA,NA,NA,NA,NA,NA,NA,NA,NA,NA,NA,NA,NA,NA,NA
d9556,deep,flow.Sequence,3_0_3_0_4_0,NA,NA,completion,9065.54,438276,438267.78,438284.42,447349.96,447352,2023-08-20T14:40:51Z,447366.58,NULL,Theorie,nadharia,d,NA,NA,NA,NA,qt,NA,3,NA,NA,NA,NA,NA,NA,NA,NA,NA,NA,NA,NA,NA,NA,NA,NA,NA,NA,NA
d9556,shallow,flow.Sequence,3_0_3_0_4_1,NA,NA,skipped,NA,447353,NA,NA,447349.96,447353,2023-08-20T14:40:51Z,447366.58,NULL,Theorie,nadharia,d,NA,NA,NA,NA,qt,NA,3,NA,NA,NA,NA,NA,NA,NA,NA,NA,NA,NA,NA,NA,NA,NA,NA,NA,NA,NA
d9556,task,flow.Sequence,3_0_3_0_4,NA,NA,completion,9065.54,438276,438267.78,438284.42,447349.96,447353,2023-08-20T14:40:51Z,447366.58,NULL,Theorie,nadharia,d,NA,NA,NA,NA,qt,NA,3,NA,NA,NA,NA,NA,NA,NA,NA,NA,NA,NA,NA,NA,NA,NA,NA,NA,NA,NA
d9556,deep,flow.Sequence,3_0_3_0_5_0,NA,NA,skipped,NA,447354,NA,NA,447349.96,447354,2023-08-20T14:40:51Z,447366.58,NULL,Hoffnung,matarajio,s,kutaalamika,uratibu,mvumbuzi,NA,qt,NA,3,NA,NA,NA,NA,NA,NA,NA,NA,NA,NA,NA,NA,NA,NA,NA,NA,NA,NA,NA
d9556,Shallow Question,html.Page,3_0_3_0_5_1_0,NA,NA,form submission,3667.42,447355,447349.96,447366.58,451034,451034,2023-08-20T14:40:55Z,451032.76,NULL,Hoffnung,matarajio,s,kutaalamika,uratibu,mvumbuzi,matarajio,NA,NA,3,NA,NA,NA,NA,NA,NA,NA,NA,NA,NA,NA,NA,NA,NA,NA,NA,NA,NA,NA
d9556,"""Richtig""-Screen",canvas.Screen,3_0_3_0_5_1_1,NA,NA,timeout,4999.32,451040,451031.28,451032.76,456015.46,456017,2023-08-20T14:41:00Z,456032.08,NULL,Hoffnung,matarajio,s,kutaalamika,uratibu,mvumbuzi,NA,qt,1,3,NA,NA,NA,NA,NA,NA,NA,NA,NA,NA,NA,NA,NA,NA,NA,NA,NA,NA,NA
d9556,"""Falsch""-Screen",canvas.Screen,3_0_3_0_5_1_2,NA,NA,skipped,NA,456023,NA,NA,456015.46,456024,2023-08-20T14:41:00Z,456032.08,NULL,Hoffnung,matarajio,s,kutaalamika,uratibu,mvumbuzi,NA,qt,NA,3,NA,NA,NA,NA,NA,NA,NA,NA,NA,NA,NA,NA,NA,NA,NA,NA,NA,NA,NA
d9556,shallow,flow.Sequence,3_0_3_0_5_1,NA,NA,completion,8648.88,447355,447349.96,447366.58,456015.46,456025,2023-08-20T14:41:00Z,456032.08,NULL,Hoffnung,matarajio,s,kutaalamika,uratibu,mvumbuzi,NA,qt,NA,3,NA,NA,NA,NA,NA,NA,NA,NA,NA,NA,NA,NA,NA,NA,NA,NA,NA,NA,NA
d9556,task,flow.Sequence,3_0_3_0_5,NA,NA,completion,8648.88,447354,447349.96,447366.58,456015.46,456025,2023-08-20T14:41:00Z,456032.08,NULL,Hoffnung,matarajio,s,kutaalamika,uratibu,mvumbuzi,NA,qt,NA,3,NA,NA,NA,NA,NA,NA,NA,NA,NA,NA,NA,NA,NA,NA,NA,NA,NA,NA,NA
d9556,Deep Question,html.Page,3_0_3_0_6_0_0,NA,NA,form submission,4646.92,456026,456015.46,456032.08,460679,460680,2023-08-20T14:41:05Z,460681.52,NULL,Schock,mshtuko,d,NA,NA,NA,mshtuko,NA,NA,3,NA,NA,NA,NA,NA,NA,NA,NA,NA,NA,NA,NA,NA,NA,NA,NA,NA,NA,NA
d9556,"""Richtig""-Screen",canvas.Screen,3_0_3_0_6_0_1,NA,NA,timeout,4999.34,460684,460677.38,460681.52,465664.2,465665,2023-08-20T14:41:09Z,465680.86,NULL,Schock,mshtuko,d,NA,NA,NA,NA,qt,1,3,NA,NA,NA,NA,NA,NA,NA,NA,NA,NA,NA,NA,NA,NA,NA,NA,NA,NA,NA
d9556,"""Falsch""-Screen",canvas.Screen,3_0_3_0_6_0_2,NA,NA,skipped,NA,465667,NA,NA,465664.2,465667,2023-08-20T14:41:09Z,465680.86,NULL,Schock,mshtuko,d,NA,NA,NA,NA,qt,NA,3,NA,NA,NA,NA,NA,NA,NA,NA,NA,NA,NA,NA,NA,NA,NA,NA,NA,NA,NA
d9556,deep,flow.Sequence,3_0_3_0_6_0,NA,NA,completion,9632.12,456026,456015.46,456032.08,465664.2,465667,2023-08-20T14:41:09Z,465680.86,NULL,Schock,mshtuko,d,NA,NA,NA,NA,qt,NA,3,NA,NA,NA,NA,NA,NA,NA,NA,NA,NA,NA,NA,NA,NA,NA,NA,NA,NA,NA
d9556,shallow,flow.Sequence,3_0_3_0_6_1,NA,NA,skipped,NA,465667,NA,NA,465664.2,465667,2023-08-20T14:41:09Z,465680.86,NULL,Schock,mshtuko,d,NA,NA,NA,NA,qt,NA,3,NA,NA,NA,NA,NA,NA,NA,NA,NA,NA,NA,NA,NA,NA,NA,NA,NA,NA,NA
d9556,task,flow.Sequence,3_0_3_0_6,NA,NA,completion,9632.12,456025,456015.46,456032.08,465664.2,465667,2023-08-20T14:41:09Z,465680.86,NULL,Schock,mshtuko,d,NA,NA,NA,NA,qt,NA,3,NA,NA,NA,NA,NA,NA,NA,NA,NA,NA,NA,NA,NA,NA,NA,NA,NA,NA,NA
d9556,Deep Question,html.Page,3_0_3_0_7_0_0,NA,NA,form submission,7845.14,465667,465664.2,465680.86,473526,473526,2023-08-20T14:41:17Z,473529.82,NULL,Schönheit,kirembo,d,NA,NA,NA,kitembo,NA,NA,3,NA,NA,NA,NA,NA,NA,NA,NA,NA,NA,NA,NA,NA,NA,NA,NA,NA,NA,NA
d9556,"""Richtig""-Screen",canvas.Screen,3_0_3_0_7_0_1,NA,NA,skipped,NA,473529,NA,NA,473526,473530,2023-08-20T14:41:17Z,473529.82,NULL,Schönheit,kirembo,d,NA,NA,NA,NA,qt,NA,3,NA,NA,NA,NA,NA,NA,NA,NA,NA,NA,NA,NA,NA,NA,NA,NA,NA,NA,NA
d9556,"""Falsch""-Screen",canvas.Screen,3_0_3_0_7_0_2,NA,NA,timeout,4999.36,473534,473522.88,473529.82,478512.5,478513,2023-08-20T14:41:22Z,478529.18,NULL,Schönheit,kirembo,d,NA,NA,NA,NA,qt,0,3,NA,NA,NA,NA,NA,NA,NA,NA,NA,NA,NA,NA,NA,NA,NA,NA,NA,NA,NA
d9556,deep,flow.Sequence,3_0_3_0_7_0,NA,NA,completion,12831.64,465667,465664.2,465680.86,478512.5,478513,2023-08-20T14:41:22Z,478529.18,NULL,Schönheit,kirembo,d,NA,NA,NA,NA,qt,NA,3,NA,NA,NA,NA,NA,NA,NA,NA,NA,NA,NA,NA,NA,NA,NA,NA,NA,NA,NA
d9556,shallow,flow.Sequence,3_0_3_0_7_1,NA,NA,skipped,NA,478513,NA,NA,478512.5,478513,2023-08-20T14:41:22Z,478529.18,NULL,Schönheit,kirembo,d,NA,NA,NA,NA,qt,NA,3,NA,NA,NA,NA,NA,NA,NA,NA,NA,NA,NA,NA,NA,NA,NA,NA,NA,NA,NA
d9556,task,flow.Sequence,3_0_3_0_7,NA,NA,completion,12831.64,465667,465664.2,465680.86,478512.5,478513,2023-08-20T14:41:22Z,478529.18,NULL,Schönheit,kirembo,d,NA,NA,NA,NA,qt,NA,3,NA,NA,NA,NA,NA,NA,NA,NA,NA,NA,NA,NA,NA,NA,NA,NA,NA,NA,NA
d9556,block,flow.Loop,3_0_3_0,NA,NA,completion,93054.6,385455,385454.6,385457.9,478512.5,478515,2023-08-20T14:41:22Z,478529.18,NULL,NA,NA,NA,NA,NA,NA,NA,qt,NA,3,NA,NA,NA,NA,NA,NA,NA,NA,NA,NA,NA,NA,NA,NA,NA,NA,NA,NA,NA
d9556,weiter,canvas.Screen,3_0_3_1,sdf,keypress(Space),response,970.82000000001,478515,478512.5,478529.18,479500,479513,2023-08-20T14:41:23Z,479579.04,NULL,NA,NA,NA,NA,NA,NA,NA,qt,NA,3,NA,NA,NA,NA,NA,NA,NA,NA,NA,NA,NA,NA,NA,NA,NA,NA,NA,NA,NA
d9556,check continue,flow.Sequence,3_0_3,NA,NA,completion,94042.1,385455,385454.6,385457.9,479500,479516,2023-08-20T14:41:23Z,479579.04,NULL,NA,NA,NA,NA,NA,NA,NA,qt,NA,3,NA,NA,NA,NA,NA,NA,NA,NA,NA,NA,NA,NA,NA,NA,NA,NA,NA,NA,NA
d9556,Deep Question,html.Page,3_0_4_0_0_0_0,NA,NA,form submission,4059.96,479565,479564.8,479579.04,483639,483641,2023-08-20T14:41:27Z,483645.14,NULL,Theorie,nadharia,d,NA,NA,NA,mshtuko,NA,NA,4,NA,NA,NA,NA,NA,NA,NA,NA,NA,NA,NA,NA,NA,NA,NA,NA,NA,NA,NA
d9556,"""Richtig""-Screen",canvas.Screen,3_0_4_0_0_0_1,NA,NA,skipped,NA,483645,NA,NA,483639,483646,2023-08-20T14:41:27Z,483645.14,NULL,Theorie,nadharia,d,NA,NA,NA,NA,sd,NA,4,NA,NA,NA,NA,NA,NA,NA,NA,NA,NA,NA,NA,NA,NA,NA,NA,NA,NA,NA
d9556,"""Falsch""-Screen",canvas.Screen,3_0_4_0_0_0_2,NA,NA,timeout,4999.42,483647,483637.54,483645.14,488627.92,488629,2023-08-20T14:41:32Z,488644.56,NULL,Theorie,nadharia,d,NA,NA,NA,NA,sd,0,4,NA,NA,NA,NA,NA,NA,NA,NA,NA,NA,NA,NA,NA,NA,NA,NA,NA,NA,NA
d9556,deep,flow.Sequence,3_0_4_0_0_0,NA,NA,completion,9048.88,479565,479564.8,479579.04,488627.92,488631,2023-08-20T14:41:32Z,488644.56,NULL,Theorie,nadharia,d,NA,NA,NA,NA,sd,NA,4,NA,NA,NA,NA,NA,NA,NA,NA,NA,NA,NA,NA,NA,NA,NA,NA,NA,NA,NA
d9556,shallow,flow.Sequence,3_0_4_0_0_1,NA,NA,skipped,NA,488631,NA,NA,488627.92,488631,2023-08-20T14:41:32Z,488644.56,NULL,Theorie,nadharia,d,NA,NA,NA,NA,sd,NA,4,NA,NA,NA,NA,NA,NA,NA,NA,NA,NA,NA,NA,NA,NA,NA,NA,NA,NA,NA
d9556,task,flow.Sequence,3_0_4_0_0,NA,NA,completion,9048.88,479565,479564.8,479579.04,488627.92,488632,2023-08-20T14:41:32Z,488644.56,NULL,Theorie,nadharia,d,NA,NA,NA,NA,sd,NA,4,NA,NA,NA,NA,NA,NA,NA,NA,NA,NA,NA,NA,NA,NA,NA,NA,NA,NA,NA
d9556,deep,flow.Sequence,3_0_4_0_1_0,NA,NA,skipped,NA,488633,NA,NA,488627.92,488633,2023-08-20T14:41:32Z,488644.56,NULL,Hoffnung,matarajio,s,kutaalamika,uratibu,mvumbuzi,NA,sd,NA,4,NA,NA,NA,NA,NA,NA,NA,NA,NA,NA,NA,NA,NA,NA,NA,NA,NA,NA,NA
d9556,Shallow Question,html.Page,3_0_4_0_1_1_0,NA,NA,form submission,6760.44,488634,488627.92,488644.56,495405,495405,2023-08-20T14:41:39Z,495410.28,NULL,Hoffnung,matarajio,s,kutaalamika,uratibu,mvumbuzi,matarajio,NA,NA,4,NA,NA,NA,NA,NA,NA,NA,NA,NA,NA,NA,NA,NA,NA,NA,NA,NA,NA,NA
d9556,"""Richtig""-Screen",canvas.Screen,3_0_4_0_1_1_1,NA,NA,timeout,4999.4,495408,495402.94,495410.28,500393.1,500395,2023-08-20T14:41:44Z,500409.68,NULL,Hoffnung,matarajio,s,kutaalamika,uratibu,mvumbuzi,NA,sd,1,4,NA,NA,NA,NA,NA,NA,NA,NA,NA,NA,NA,NA,NA,NA,NA,NA,NA,NA,NA
d9556,"""Falsch""-Screen",canvas.Screen,3_0_4_0_1_1_2,NA,NA,skipped,NA,500401,NA,NA,500393.1,500402,2023-08-20T14:41:44Z,500409.68,NULL,Hoffnung,matarajio,s,kutaalamika,uratibu,mvumbuzi,NA,sd,NA,4,NA,NA,NA,NA,NA,NA,NA,NA,NA,NA,NA,NA,NA,NA,NA,NA,NA,NA,NA
d9556,shallow,flow.Sequence,3_0_4_0_1_1,NA,NA,completion,11748.54,488633,488627.92,488644.56,500393.1,500402,2023-08-20T14:41:44Z,500409.68,NULL,Hoffnung,matarajio,s,kutaalamika,uratibu,mvumbuzi,NA,sd,NA,4,NA,NA,NA,NA,NA,NA,NA,NA,NA,NA,NA,NA,NA,NA,NA,NA,NA,NA,NA
d9556,task,flow.Sequence,3_0_4_0_1,NA,NA,completion,11748.54,488633,488627.92,488644.56,500393.1,500403,2023-08-20T14:41:44Z,500409.68,NULL,Hoffnung,matarajio,s,kutaalamika,uratibu,mvumbuzi,NA,sd,NA,4,NA,NA,NA,NA,NA,NA,NA,NA,NA,NA,NA,NA,NA,NA,NA,NA,NA,NA,NA
d9556,deep,flow.Sequence,3_0_4_0_2_0,NA,NA,skipped,NA,500403,NA,NA,500393.1,500403,2023-08-20T14:41:44Z,500409.68,NULL,Auftrag,uagizaji,s,ghanima,kuzingatia,msukani,NA,sd,NA,4,NA,NA,NA,NA,NA,NA,NA,NA,NA,NA,NA,NA,NA,NA,NA,NA,NA,NA,NA
d9556,Shallow Question,html.Page,3_0_4_0_2_1_0,NA,NA,form submission,4898.32,500403,500393.1,500409.68,505308,505308,2023-08-20T14:41:49Z,505309.04,NULL,Auftrag,uagizaji,s,ghanima,kuzingatia,msukani,uagizaji,NA,NA,4,NA,NA,NA,NA,NA,NA,NA,NA,NA,NA,NA,NA,NA,NA,NA,NA,NA,NA,NA
d9556,"""Richtig""-Screen",canvas.Screen,3_0_4_0_2_1_1,NA,NA,timeout,4999.42,505311,505305.5,505309.04,510291.84,510294,2023-08-20T14:41:54Z,510308.46,NULL,Auftrag,uagizaji,s,ghanima,kuzingatia,msukani,NA,sd,1,4,NA,NA,NA,NA,NA,NA,NA,NA,NA,NA,NA,NA,NA,NA,NA,NA,NA,NA,NA
d9556,"""Falsch""-Screen",canvas.Screen,3_0_4_0_2_1_2,NA,NA,skipped,NA,510302,NA,NA,510291.84,510302,2023-08-20T14:41:54Z,510308.46,NULL,Auftrag,uagizaji,s,ghanima,kuzingatia,msukani,NA,sd,NA,4,NA,NA,NA,NA,NA,NA,NA,NA,NA,NA,NA,NA,NA,NA,NA,NA,NA,NA,NA
d9556,shallow,flow.Sequence,3_0_4_0_2_1,NA,NA,completion,9882.16,500403,500393.1,500409.68,510291.84,510303,2023-08-20T14:41:54Z,510308.46,NULL,Auftrag,uagizaji,s,ghanima,kuzingatia,msukani,NA,sd,NA,4,NA,NA,NA,NA,NA,NA,NA,NA,NA,NA,NA,NA,NA,NA,NA,NA,NA,NA,NA
d9556,task,flow.Sequence,3_0_4_0_2,NA,NA,completion,9882.16,500403,500393.1,500409.68,510291.84,510303,2023-08-20T14:41:54Z,510308.46,NULL,Auftrag,uagizaji,s,ghanima,kuzingatia,msukani,NA,sd,NA,4,NA,NA,NA,NA,NA,NA,NA,NA,NA,NA,NA,NA,NA,NA,NA,NA,NA,NA,NA
d9556,Deep Question,html.Page,3_0_4_0_3_0_0,NA,NA,form submission,4948.54,510304,510291.84,510308.46,515257,515257,2023-08-20T14:41:59Z,515257.74,NULL,Schönheit,kirembo,d,NA,NA,NA,kirembo,NA,NA,4,NA,NA,NA,NA,NA,NA,NA,NA,NA,NA,NA,NA,NA,NA,NA,NA,NA,NA,NA
d9556,"""Richtig""-Screen",canvas.Screen,3_0_4_0_3_0_1,NA,NA,timeout,4999.46,515260,515255.26,515257.74,520240.56,520242,2023-08-20T14:42:04Z,520257.2,NULL,Schönheit,kirembo,d,NA,NA,NA,NA,sd,1,4,NA,NA,NA,NA,NA,NA,NA,NA,NA,NA,NA,NA,NA,NA,NA,NA,NA,NA,NA
d9556,"""Falsch""-Screen",canvas.Screen,3_0_4_0_3_0_2,NA,NA,skipped,NA,520250,NA,NA,520240.56,520250,2023-08-20T14:42:04Z,520257.2,NULL,Schönheit,kirembo,d,NA,NA,NA,NA,sd,NA,4,NA,NA,NA,NA,NA,NA,NA,NA,NA,NA,NA,NA,NA,NA,NA,NA,NA,NA,NA
d9556,deep,flow.Sequence,3_0_4_0_3_0,NA,NA,completion,9932.1,510304,510291.84,510308.46,520240.56,520251,2023-08-20T14:42:04Z,520257.2,NULL,Schönheit,kirembo,d,NA,NA,NA,NA,sd,NA,4,NA,NA,NA,NA,NA,NA,NA,NA,NA,NA,NA,NA,NA,NA,NA,NA,NA,NA,NA
d9556,shallow,flow.Sequence,3_0_4_0_3_1,NA,NA,skipped,NA,520251,NA,NA,520240.56,520251,2023-08-20T14:42:04Z,520257.2,NULL,Schönheit,kirembo,d,NA,NA,NA,NA,sd,NA,4,NA,NA,NA,NA,NA,NA,NA,NA,NA,NA,NA,NA,NA,NA,NA,NA,NA,NA,NA
d9556,task,flow.Sequence,3_0_4_0_3,NA,NA,completion,9932.1,510303,510291.84,510308.46,520240.56,520252,2023-08-20T14:42:04Z,520257.2,NULL,Schönheit,kirembo,d,NA,NA,NA,NA,sd,NA,4,NA,NA,NA,NA,NA,NA,NA,NA,NA,NA,NA,NA,NA,NA,NA,NA,NA,NA,NA
d9556,deep,flow.Sequence,3_0_4_0_4_0,NA,NA,skipped,NA,520252,NA,NA,520240.56,520253,2023-08-20T14:42:04Z,520257.2,NULL,Verpackung,ufungaji,s,uhusiano,upimaji,uchunguzi,NA,sd,NA,4,NA,NA,NA,NA,NA,NA,NA,NA,NA,NA,NA,NA,NA,NA,NA,NA,NA,NA,NA
d9556,Shallow Question,html.Page,3_0_4_0_4_1_0,NA,NA,form submission,5004.8,520253,520240.56,520257.2,525262,525263,2023-08-20T14:42:09Z,525273.1,NULL,Verpackung,ufungaji,s,uhusiano,upimaji,uchunguzi,ufungaji,NA,NA,4,NA,NA,NA,NA,NA,NA,NA,NA,NA,NA,NA,NA,NA,NA,NA,NA,NA,NA,NA
d9556,"""Richtig""-Screen",canvas.Screen,3_0_4_0_4_1_1,NA,NA,timeout,4999.4,525266,525260.08,525273.1,530255.9,530258,2023-08-20T14:42:14Z,530272.5,NULL,Verpackung,ufungaji,s,uhusiano,upimaji,uchunguzi,NA,sd,1,4,NA,NA,NA,NA,NA,NA,NA,NA,NA,NA,NA,NA,NA,NA,NA,NA,NA,NA,NA
d9556,"""Falsch""-Screen",canvas.Screen,3_0_4_0_4_1_2,NA,NA,skipped,NA,530264,NA,NA,530255.9,530265,2023-08-20T14:42:14Z,530272.5,NULL,Verpackung,ufungaji,s,uhusiano,upimaji,uchunguzi,NA,sd,NA,4,NA,NA,NA,NA,NA,NA,NA,NA,NA,NA,NA,NA,NA,NA,NA,NA,NA,NA,NA
d9556,shallow,flow.Sequence,3_0_4_0_4_1,NA,NA,completion,9998.7,520253,520240.56,520257.2,530255.9,530265,2023-08-20T14:42:14Z,530272.5,NULL,Verpackung,ufungaji,s,uhusiano,upimaji,uchunguzi,NA,sd,NA,4,NA,NA,NA,NA,NA,NA,NA,NA,NA,NA,NA,NA,NA,NA,NA,NA,NA,NA,NA
d9556,task,flow.Sequence,3_0_4_0_4,NA,NA,completion,9998.7,520252,520240.56,520257.2,530255.9,530266,2023-08-20T14:42:14Z,530272.5,NULL,Verpackung,ufungaji,s,uhusiano,upimaji,uchunguzi,NA,sd,NA,4,NA,NA,NA,NA,NA,NA,NA,NA,NA,NA,NA,NA,NA,NA,NA,NA,NA,NA,NA
d9556,Deep Question,html.Page,3_0_4_0_5_0_0,NA,NA,form submission,6364.5,530266,530255.9,530272.5,536637,536637,2023-08-20T14:42:20Z,536638.3,NULL,Zufall,kikuti,d,NA,NA,NA,kikuto,NA,NA,4,NA,NA,NA,NA,NA,NA,NA,NA,NA,NA,NA,NA,NA,NA,NA,NA,NA,NA,NA
d9556,"""Richtig""-Screen",canvas.Screen,3_0_4_0_5_0_1,NA,NA,skipped,NA,536639,NA,NA,536637,536641,2023-08-20T14:42:20Z,536638.3,NULL,Zufall,kikuti,d,NA,NA,NA,NA,sd,NA,4,NA,NA,NA,NA,NA,NA,NA,NA,NA,NA,NA,NA,NA,NA,NA,NA,NA,NA,NA
d9556,"""Falsch""-Screen",canvas.Screen,3_0_4_0_5_0_2,NA,NA,timeout,4999.4199999999,536642,536635.12,536638.3,541621.06,541624,2023-08-20T14:42:25Z,541637.72,NULL,Zufall,kikuti,d,NA,NA,NA,NA,sd,0,4,NA,NA,NA,NA,NA,NA,NA,NA,NA,NA,NA,NA,NA,NA,NA,NA,NA,NA,NA
d9556,deep,flow.Sequence,3_0_4_0_5_0,NA,NA,completion,11348.56,530266,530255.9,530272.5,541621.06,541625,2023-08-20T14:42:25Z,541637.72,NULL,Zufall,kikuti,d,NA,NA,NA,NA,sd,NA,4,NA,NA,NA,NA,NA,NA,NA,NA,NA,NA,NA,NA,NA,NA,NA,NA,NA,NA,NA
d9556,shallow,flow.Sequence,3_0_4_0_5_1,NA,NA,skipped,NA,541625,NA,NA,541621.06,541625,2023-08-20T14:42:25Z,541637.72,NULL,Zufall,kikuti,d,NA,NA,NA,NA,sd,NA,4,NA,NA,NA,NA,NA,NA,NA,NA,NA,NA,NA,NA,NA,NA,NA,NA,NA,NA,NA
d9556,task,flow.Sequence,3_0_4_0_5,NA,NA,completion,11348.56,530266,530255.9,530272.5,541621.06,541626,2023-08-20T14:42:25Z,541637.72,NULL,Zufall,kikuti,d,NA,NA,NA,NA,sd,NA,4,NA,NA,NA,NA,NA,NA,NA,NA,NA,NA,NA,NA,NA,NA,NA,NA,NA,NA,NA
d9556,deep,flow.Sequence,3_0_4_0_6_0,NA,NA,skipped,NA,541627,NA,NA,541621.06,541627,2023-08-20T14:42:25Z,541637.72,NULL,Wettbewerb,ushindani,s,mapendezi,kichocheo,ubaguzi,NA,sd,NA,4,NA,NA,NA,NA,NA,NA,NA,NA,NA,NA,NA,NA,NA,NA,NA,NA,NA,NA,NA
d9556,Shallow Question,html.Page,3_0_4_0_6_1_0,NA,NA,form submission,4660.28,541627,541621.06,541637.72,546298,546299,2023-08-20T14:42:30Z,546303.8,NULL,Wettbewerb,ushindani,s,mapendezi,kichocheo,ubaguzi,ushindani,NA,NA,4,NA,NA,NA,NA,NA,NA,NA,NA,NA,NA,NA,NA,NA,NA,NA,NA,NA,NA,NA
d9556,"""Richtig""-Screen",canvas.Screen,3_0_4_0_6_1_1,NA,NA,timeout,4999.36,546307,546294.66,546303.8,551286.54,551289,2023-08-20T14:42:35Z,551303.16,NULL,Wettbewerb,ushindani,s,mapendezi,kichocheo,ubaguzi,NA,sd,1,4,NA,NA,NA,NA,NA,NA,NA,NA,NA,NA,NA,NA,NA,NA,NA,NA,NA,NA,NA
d9556,"""Falsch""-Screen",canvas.Screen,3_0_4_0_6_1_2,NA,NA,skipped,NA,551295,NA,NA,551286.54,551296,2023-08-20T14:42:35Z,551303.16,NULL,Wettbewerb,ushindani,s,mapendezi,kichocheo,ubaguzi,NA,sd,NA,4,NA,NA,NA,NA,NA,NA,NA,NA,NA,NA,NA,NA,NA,NA,NA,NA,NA,NA,NA
d9556,shallow,flow.Sequence,3_0_4_0_6_1,NA,NA,completion,9648.8200000001,541627,541621.06,541637.72,551286.54,551297,2023-08-20T14:42:35Z,551303.16,NULL,Wettbewerb,ushindani,s,mapendezi,kichocheo,ubaguzi,NA,sd,NA,4,NA,NA,NA,NA,NA,NA,NA,NA,NA,NA,NA,NA,NA,NA,NA,NA,NA,NA,NA
d9556,task,flow.Sequence,3_0_4_0_6,NA,NA,completion,9648.8200000001,541626,541621.06,541637.72,551286.54,551298,2023-08-20T14:42:35Z,551303.16,NULL,Wettbewerb,ushindani,s,mapendezi,kichocheo,ubaguzi,NA,sd,NA,4,NA,NA,NA,NA,NA,NA,NA,NA,NA,NA,NA,NA,NA,NA,NA,NA,NA,NA,NA
d9556,Deep Question,html.Page,3_0_4_0_7_0_0,NA,NA,form submission,9737.84,551299,551286.54,551303.16,561041,561042,2023-08-20T14:42:45Z,561051.9,NULL,Schock,mshtuko,d,NA,NA,NA,mshtuko,NA,NA,4,NA,NA,NA,NA,NA,NA,NA,NA,NA,NA,NA,NA,NA,NA,NA,NA,NA,NA,NA
d9556,"""Richtig""-Screen",canvas.Screen,3_0_4_0_7_0_1,NA,NA,timeout,4999.38,561043,561039.92,561051.9,566034.62,566036,2023-08-20T14:42:50Z,566051.28,NULL,Schock,mshtuko,d,NA,NA,NA,NA,sd,1,4,NA,NA,NA,NA,NA,NA,NA,NA,NA,NA,NA,NA,NA,NA,NA,NA,NA,NA,NA
d9556,"""Falsch""-Screen",canvas.Screen,3_0_4_0_7_0_2,NA,NA,skipped,NA,566041,NA,NA,566034.62,566041,2023-08-20T14:42:50Z,566051.28,NULL,Schock,mshtuko,d,NA,NA,NA,NA,sd,NA,4,NA,NA,NA,NA,NA,NA,NA,NA,NA,NA,NA,NA,NA,NA,NA,NA,NA,NA,NA
d9556,deep,flow.Sequence,3_0_4_0_7_0,NA,NA,completion,14731.46,551299,551286.54,551303.16,566034.62,566041,2023-08-20T14:42:50Z,566051.28,NULL,Schock,mshtuko,d,NA,NA,NA,NA,sd,NA,4,NA,NA,NA,NA,NA,NA,NA,NA,NA,NA,NA,NA,NA,NA,NA,NA,NA,NA,NA
d9556,shallow,flow.Sequence,3_0_4_0_7_1,NA,NA,skipped,NA,566041,NA,NA,566034.62,566041,2023-08-20T14:42:50Z,566051.28,NULL,Schock,mshtuko,d,NA,NA,NA,NA,sd,NA,4,NA,NA,NA,NA,NA,NA,NA,NA,NA,NA,NA,NA,NA,NA,NA,NA,NA,NA,NA
d9556,task,flow.Sequence,3_0_4_0_7,NA,NA,completion,14731.46,551299,551286.54,551303.16,566034.62,566042,2023-08-20T14:42:50Z,566051.28,NULL,Schock,mshtuko,d,NA,NA,NA,NA,sd,NA,4,NA,NA,NA,NA,NA,NA,NA,NA,NA,NA,NA,NA,NA,NA,NA,NA,NA,NA,NA
d9556,block,flow.Loop,3_0_4_0,NA,NA,completion,86455.58,479565,479564.8,479579.04,566034.62,566042,2023-08-20T14:42:50Z,566051.28,NULL,NA,NA,NA,NA,NA,NA,NA,sd,NA,4,NA,NA,NA,NA,NA,NA,NA,NA,NA,NA,NA,NA,NA,NA,NA,NA,NA,NA,NA
d9556,weiter,canvas.Screen,3_0_4_1,sdf,keypress(Space),response,729.71999999997,566042,566034.62,566051.28,566781,566792,2023-08-20T14:42:51Z,567551,NULL,NA,NA,NA,NA,NA,NA,NA,sd,NA,4,NA,NA,NA,NA,NA,NA,NA,NA,NA,NA,NA,NA,NA,NA,NA,NA,NA,NA,NA
d9556,check continue,flow.Sequence,3_0_4,NA,NA,completion,87201.96,479565,479564.8,479579.04,566781,566793,2023-08-20T14:42:51Z,567551,NULL,NA,NA,NA,NA,NA,NA,NA,sd,NA,4,NA,NA,NA,NA,NA,NA,NA,NA,NA,NA,NA,NA,NA,NA,NA,NA,NA,NA,NA
d9556,check continue,flow.Sequence,3_0_5,NA,NA,skipped,NA,566850,NA,NA,566781,566850,2023-08-20T14:42:51Z,567551,NULL,NA,NA,NA,NA,NA,NA,NA,sdf,NA,5,NA,NA,NA,NA,NA,NA,NA,NA,NA,NA,NA,NA,NA,NA,NA,NA,NA,NA,NA
d9556,check continue,flow.Sequence,3_0_6,NA,NA,skipped,NA,566883,NA,NA,566781,566883,2023-08-20T14:42:51Z,567551,NULL,NA,NA,NA,NA,NA,NA,NA,dfs,NA,6,NA,NA,NA,NA,NA,NA,NA,NA,NA,NA,NA,NA,NA,NA,NA,NA,NA,NA,NA
d9556,check continue,flow.Sequence,3_0_7,NA,NA,skipped,NA,566915,NA,NA,566781,566915,2023-08-20T14:42:51Z,567551,NULL,NA,NA,NA,NA,NA,NA,NA,df,NA,7,NA,NA,NA,NA,NA,NA,NA,NA,NA,NA,NA,NA,NA,NA,NA,NA,NA,NA,NA
d9556,check continue,flow.Sequence,3_0_8,NA,NA,skipped,NA,566947,NA,NA,566781,566947,2023-08-20T14:42:51Z,567551,NULL,NA,NA,NA,NA,NA,NA,NA,dfs,NA,8,NA,NA,NA,NA,NA,NA,NA,NA,NA,NA,NA,NA,NA,NA,NA,NA,NA,NA,NA
d9556,check continue,flow.Sequence,3_0_9,NA,NA,skipped,NA,566977,NA,NA,566781,566977,2023-08-20T14:42:51Z,567551,NULL,NA,NA,NA,NA,NA,NA,NA,dsf,NA,9,NA,NA,NA,NA,NA,NA,NA,NA,NA,NA,NA,NA,NA,NA,NA,NA,NA,NA,NA
d9556,check continue,flow.Sequence,3_0_10,NA,NA,skipped,NA,567006,NA,NA,566781,567006,2023-08-20T14:42:51Z,567551,NULL,NA,NA,NA,NA,NA,NA,NA,df,NA,10,NA,NA,NA,NA,NA,NA,NA,NA,NA,NA,NA,NA,NA,NA,NA,NA,NA,NA,NA
d9556,check continue,flow.Sequence,3_0_11,NA,NA,skipped,NA,567033,NA,NA,566781,567033,2023-08-20T14:42:51Z,567551,NULL,NA,NA,NA,NA,NA,NA,NA,dfs,NA,11,NA,NA,NA,NA,NA,NA,NA,NA,NA,NA,NA,NA,NA,NA,NA,NA,NA,NA,NA
d9556,check continue,flow.Sequence,3_0_12,NA,NA,skipped,NA,567064,NA,NA,566781,567064,2023-08-20T14:42:51Z,567551,NULL,NA,NA,NA,NA,NA,NA,NA,dsf,NA,12,NA,NA,NA,NA,NA,NA,NA,NA,NA,NA,NA,NA,NA,NA,NA,NA,NA,NA,NA
d9556,check continue,flow.Sequence,3_0_13,NA,NA,skipped,NA,567092,NA,NA,566781,567092,2023-08-20T14:42:51Z,567551,NULL,NA,NA,NA,NA,NA,NA,NA,dsf,NA,13,NA,NA,NA,NA,NA,NA,NA,NA,NA,NA,NA,NA,NA,NA,NA,NA,NA,NA,NA
d9556,check continue,flow.Sequence,3_0_14,NA,NA,skipped,NA,567118,NA,NA,566781,567118,2023-08-20T14:42:51Z,567551,NULL,NA,NA,NA,NA,NA,NA,NA,NA,NA,14,NA,NA,NA,NA,NA,NA,NA,NA,NA,NA,NA,NA,NA,NA,NA,NA,NA,NA,NA
d9556,check continue,flow.Sequence,3_0_15,NA,NA,skipped,NA,567146,NA,NA,566781,567146,2023-08-20T14:42:51Z,567551,NULL,NA,NA,NA,NA,NA,NA,NA,NA,NA,15,NA,NA,NA,NA,NA,NA,NA,NA,NA,NA,NA,NA,NA,NA,NA,NA,NA,NA,NA
d9556,check continue,flow.Sequence,3_0_16,NA,NA,skipped,NA,567174,NA,NA,566781,567174,2023-08-20T14:42:51Z,567551,NULL,NA,NA,NA,NA,NA,NA,NA,NA,NA,16,NA,NA,NA,NA,NA,NA,NA,NA,NA,NA,NA,NA,NA,NA,NA,NA,NA,NA,NA
d9556,check continue,flow.Sequence,3_0_17,NA,NA,skipped,NA,567200,NA,NA,566781,567200,2023-08-20T14:42:51Z,567551,NULL,NA,NA,NA,NA,NA,NA,NA,NA,NA,17,NA,NA,NA,NA,NA,NA,NA,NA,NA,NA,NA,NA,NA,NA,NA,NA,NA,NA,NA
d9556,check continue,flow.Sequence,3_0_18,NA,NA,skipped,NA,567227,NA,NA,566781,567228,2023-08-20T14:42:51Z,567551,NULL,NA,NA,NA,NA,NA,NA,NA,NA,NA,18,NA,NA,NA,NA,NA,NA,NA,NA,NA,NA,NA,NA,NA,NA,NA,NA,NA,NA,NA
d9556,check continue,flow.Sequence,3_0_19,NA,NA,skipped,NA,567255,NA,NA,566781,567256,2023-08-20T14:42:51Z,567551,NULL,NA,NA,NA,NA,NA,NA,NA,NA,NA,19,NA,NA,NA,NA,NA,NA,NA,NA,NA,NA,NA,NA,NA,NA,NA,NA,NA,NA,NA
d9556,check continue,flow.Sequence,3_0_20,NA,NA,skipped,NA,567285,NA,NA,566781,567285,2023-08-20T14:42:51Z,567551,NULL,NA,NA,NA,NA,NA,NA,NA,NA,NA,20,NA,NA,NA,NA,NA,NA,NA,NA,NA,NA,NA,NA,NA,NA,NA,NA,NA,NA,NA
d9556,check continue,flow.Sequence,3_0_21,NA,NA,skipped,NA,567311,NA,NA,566781,567311,2023-08-20T14:42:51Z,567551,NULL,NA,NA,NA,NA,NA,NA,NA,NA,NA,21,NA,NA,NA,NA,NA,NA,NA,NA,NA,NA,NA,NA,NA,NA,NA,NA,NA,NA,NA
d9556,check continue,flow.Sequence,3_0_22,NA,NA,skipped,NA,567337,NA,NA,566781,567337,2023-08-20T14:42:51Z,567551,NULL,NA,NA,NA,NA,NA,NA,NA,NA,NA,22,NA,NA,NA,NA,NA,NA,NA,NA,NA,NA,NA,NA,NA,NA,NA,NA,NA,NA,NA
d9556,check continue,flow.Sequence,3_0_23,NA,NA,skipped,NA,567369,NA,NA,566781,567369,2023-08-20T14:42:51Z,567551,NULL,NA,NA,NA,NA,NA,NA,NA,NA,NA,23,NA,NA,NA,NA,NA,NA,NA,NA,NA,NA,NA,NA,NA,NA,NA,NA,NA,NA,NA
d9556,check continue,flow.Sequence,3_0_24,NA,NA,skipped,NA,567396,NA,NA,566781,567396,2023-08-20T14:42:51Z,567551,NULL,NA,NA,NA,NA,NA,NA,NA,NA,NA,24,NA,NA,NA,NA,NA,NA,NA,NA,NA,NA,NA,NA,NA,NA,NA,NA,NA,NA,NA
d9556,check continue,flow.Sequence,3_0_25,NA,NA,skipped,NA,567427,NA,NA,566781,567427,2023-08-20T14:42:51Z,567551,NULL,NA,NA,NA,NA,NA,NA,NA,NA,NA,25,NA,NA,NA,NA,NA,NA,NA,NA,NA,NA,NA,NA,NA,NA,NA,NA,NA,NA,NA
d9556,check continue,flow.Sequence,3_0_26,NA,NA,skipped,NA,567453,NA,NA,566781,567453,2023-08-20T14:42:51Z,567551,NULL,NA,NA,NA,NA,NA,NA,NA,NA,NA,26,NA,NA,NA,NA,NA,NA,NA,NA,NA,NA,NA,NA,NA,NA,NA,NA,NA,NA,NA
d9556,check continue,flow.Sequence,3_0_27,NA,NA,skipped,NA,567486,NA,NA,566781,567486,2023-08-20T14:42:51Z,567551,NULL,NA,NA,NA,NA,NA,NA,NA,NA,NA,27,NA,NA,NA,NA,NA,NA,NA,NA,NA,NA,NA,NA,NA,NA,NA,NA,NA,NA,NA
d9556,check continue,flow.Sequence,3_0_28,NA,NA,skipped,NA,567515,NA,NA,566781,567515,2023-08-20T14:42:51Z,567551,NULL,NA,NA,NA,NA,NA,NA,NA,NA,NA,28,NA,NA,NA,NA,NA,NA,NA,NA,NA,NA,NA,NA,NA,NA,NA,NA,NA,NA,NA
d9556,check continue,flow.Sequence,3_0_29,NA,NA,skipped,NA,567541,NA,NA,566781,567541,2023-08-20T14:42:51Z,567551,NULL,NA,NA,NA,NA,NA,NA,NA,NA,NA,29,NA,NA,NA,NA,NA,NA,NA,NA,NA,NA,NA,NA,NA,NA,NA,NA,NA,NA,NA
d9556,until continue,flow.Loop,3_0,NA,NA,completion,482317.6,84413,84454.5,84463.4,566781,567542,2023-08-20T14:42:51Z,567551,NULL,NA,NA,NA,NA,NA,NA,NA,NA,NA,NA,NA,NA,NA,NA,NA,NA,NA,NA,NA,NA,NA,NA,NA,NA,NA,NA,NA,NA,NA
d9556,block 1,flow.Sequence,3,NA,NA,completion,482317.6,84413,84454.5,84463.4,566781,567542,2023-08-20T14:42:51Z,567551,NULL,NA,NA,NA,NA,NA,NA,NA,NA,NA,NA,NA,NA,NA,NA,NA,NA,NA,NA,NA,NA,NA,NA,NA,NA,NA,NA,NA,NA,NA
d9556,1.Part Over,canvas.Screen,4,NA,keypress(Space),response,1465,567542,567541.34,567551,569016,569027,2023-08-20T14:42:53Z,569100.8,NULL,NA,NA,NA,NA,NA,NA,NA,NA,NA,NA,NA,NA,NA,NA,NA,NA,NA,NA,NA,NA,NA,NA,NA,NA,NA,NA,NA,NA,NA
d9556,deep,flow.Sequence,5_0_0_0_0_0,NA,NA,skipped,NA,569094,NA,NA,569016,569094,2023-08-20T14:42:53Z,569100.8,NULL,Notfall,dharura,s,rairai,malalamiko,ahueni,NA,sdf,NA,0,NA,NA,NA,NA,NA,NA,NA,NA,NA,NA,NA,NA,NA,NA,NA,NA,NA,NA,NA
d9556,Shallow Question,html.Page,5_0_0_0_0_1_0,NA,NA,form submission,4102.2,569095,569094.3,569100.8,573203,573203,2023-08-20T14:42:57Z,573216.96,NULL,Notfall,dharura,s,rairai,malalamiko,ahueni,rairai,NA,NA,0,NA,NA,NA,NA,NA,NA,NA,NA,NA,NA,NA,NA,NA,NA,NA,NA,NA,NA,NA
d9556,"""Richtig""-Screen",canvas.Screen,5_0_0_0_0_1_1,NA,NA,skipped,NA,573205,NA,NA,573203,573205,2023-08-20T14:42:57Z,573216.96,NULL,Notfall,dharura,s,rairai,malalamiko,ahueni,NA,sdf,NA,0,NA,NA,NA,NA,NA,NA,NA,NA,NA,NA,NA,NA,NA,NA,NA,NA,NA,NA,NA
d9556,"""Falsch""-Screen",canvas.Screen,5_0_0_0_0_1_2,NA,NA,timeout,4999.38,573208,573200.18,573216.96,578199.74,578202,2023-08-20T14:43:02Z,578216.34,NULL,Notfall,dharura,s,rairai,malalamiko,ahueni,NA,sdf,0,0,NA,NA,NA,NA,NA,NA,NA,NA,NA,NA,NA,NA,NA,NA,NA,NA,NA,NA,NA
d9556,shallow,flow.Sequence,5_0_0_0_0_1,NA,NA,completion,9098.9399999999,569095,569094.3,569100.8,578199.74,578202,2023-08-20T14:43:02Z,578216.34,NULL,Notfall,dharura,s,rairai,malalamiko,ahueni,NA,sdf,NA,0,NA,NA,NA,NA,NA,NA,NA,NA,NA,NA,NA,NA,NA,NA,NA,NA,NA,NA,NA
d9556,task,flow.Sequence,5_0_0_0_0,NA,NA,completion,9098.9399999999,569094,569094.3,569100.8,578199.74,578203,2023-08-20T14:43:02Z,578216.34,NULL,Notfall,dharura,s,rairai,malalamiko,ahueni,NA,sdf,NA,0,NA,NA,NA,NA,NA,NA,NA,NA,NA,NA,NA,NA,NA,NA,NA,NA,NA,NA,NA
d9556,Deep Question,html.Page,5_0_0_0_1_0_0,NA,NA,form submission,4818.66,578203,578199.74,578216.34,583035,583035,2023-08-20T14:43:07Z,583049.06,NULL,Wohlstand,mafanikio,d,NA,NA,NA,j,NA,NA,0,NA,NA,NA,NA,NA,NA,NA,NA,NA,NA,NA,NA,NA,NA,NA,NA,NA,NA,NA
d9556,"""Richtig""-Screen",canvas.Screen,5_0_0_0_1_0_1,NA,NA,skipped,NA,583037,NA,NA,583035,583038,2023-08-20T14:43:07Z,583049.06,NULL,Wohlstand,mafanikio,d,NA,NA,NA,NA,sdf,NA,0,NA,NA,NA,NA,NA,NA,NA,NA,NA,NA,NA,NA,NA,NA,NA,NA,NA,NA,NA
d9556,"""Falsch""-Screen",canvas.Screen,5_0_0_0_1_0_2,NA,NA,timeout,4999.34,583039,583034.34,583049.06,588031.74,588033,2023-08-20T14:43:12Z,588048.4,NULL,Wohlstand,mafanikio,d,NA,NA,NA,NA,sdf,0,0,NA,NA,NA,NA,NA,NA,NA,NA,NA,NA,NA,NA,NA,NA,NA,NA,NA,NA,NA
d9556,deep,flow.Sequence,5_0_0_0_1_0,NA,NA,completion,9815.4,578203,578199.74,578216.34,588031.74,588034,2023-08-20T14:43:12Z,588048.4,NULL,Wohlstand,mafanikio,d,NA,NA,NA,NA,sdf,NA,0,NA,NA,NA,NA,NA,NA,NA,NA,NA,NA,NA,NA,NA,NA,NA,NA,NA,NA,NA
d9556,shallow,flow.Sequence,5_0_0_0_1_1,NA,NA,skipped,NA,588034,NA,NA,588031.74,588034,2023-08-20T14:43:12Z,588048.4,NULL,Wohlstand,mafanikio,d,NA,NA,NA,NA,sdf,NA,0,NA,NA,NA,NA,NA,NA,NA,NA,NA,NA,NA,NA,NA,NA,NA,NA,NA,NA,NA
d9556,task,flow.Sequence,5_0_0_0_1,NA,NA,completion,9815.4,578203,578199.74,578216.34,588031.74,588035,2023-08-20T14:43:12Z,588048.4,NULL,Wohlstand,mafanikio,d,NA,NA,NA,NA,sdf,NA,0,NA,NA,NA,NA,NA,NA,NA,NA,NA,NA,NA,NA,NA,NA,NA,NA,NA,NA,NA
d9556,deep,flow.Sequence,5_0_0_0_2_0,NA,NA,skipped,NA,588035,NA,NA,588031.74,588035,2023-08-20T14:43:12Z,588048.4,NULL,Gelegenheit,wakati,s,mchanganyiko,kipaumbele,kushuku,NA,sdf,NA,0,NA,NA,NA,NA,NA,NA,NA,NA,NA,NA,NA,NA,NA,NA,NA,NA,NA,NA,NA
d9556,Shallow Question,html.Page,5_0_0_0_2_1_0,NA,NA,form submission,7217.6,588035,588031.74,588048.4,595266,595266,2023-08-20T14:43:19Z,595264.06,NULL,Gelegenheit,wakati,s,mchanganyiko,kipaumbele,kushuku,mchanganyiko,NA,NA,0,NA,NA,NA,NA,NA,NA,NA,NA,NA,NA,NA,NA,NA,NA,NA,NA,NA,NA,NA
d9556,"""Richtig""-Screen",canvas.Screen,5_0_0_0_2_1_1,NA,NA,skipped,NA,595269,NA,NA,595266,595269,2023-08-20T14:43:19Z,595264.06,NULL,Gelegenheit,wakati,s,mchanganyiko,kipaumbele,kushuku,NA,sdf,NA,0,NA,NA,NA,NA,NA,NA,NA,NA,NA,NA,NA,NA,NA,NA,NA,NA,NA,NA,NA
d9556,"""Falsch""-Screen",canvas.Screen,5_0_0_0_2_1_2,NA,NA,timeout,4999.3999999999,595272,595263.02,595264.06,600246.86,600250,2023-08-20T14:43:24Z,600263.46,NULL,Gelegenheit,wakati,s,mchanganyiko,kipaumbele,kushuku,NA,sdf,0,0,NA,NA,NA,NA,NA,NA,NA,NA,NA,NA,NA,NA,NA,NA,NA,NA,NA,NA,NA
d9556,shallow,flow.Sequence,5_0_0_0_2_1,NA,NA,completion,12198.46,588035,588031.74,588048.4,600246.86,600252,2023-08-20T14:43:24Z,600263.46,NULL,Gelegenheit,wakati,s,mchanganyiko,kipaumbele,kushuku,NA,sdf,NA,0,NA,NA,NA,NA,NA,NA,NA,NA,NA,NA,NA,NA,NA,NA,NA,NA,NA,NA,NA
d9556,task,flow.Sequence,5_0_0_0_2,NA,NA,completion,12198.46,588035,588031.74,588048.4,600246.86,600253,2023-08-20T14:43:24Z,600263.46,NULL,Gelegenheit,wakati,s,mchanganyiko,kipaumbele,kushuku,NA,sdf,NA,0,NA,NA,NA,NA,NA,NA,NA,NA,NA,NA,NA,NA,NA,NA,NA,NA,NA,NA,NA
d9556,deep,flow.Sequence,5_0_0_0_3_0,NA,NA,skipped,NA,600254,NA,NA,600246.86,600254,2023-08-20T14:43:24Z,600263.46,NULL,Vergnügen,kichekesho,s,dubwana,mpanuko,mtesaji,NA,sdf,NA,0,NA,NA,NA,NA,NA,NA,NA,NA,NA,NA,NA,NA,NA,NA,NA,NA,NA,NA,NA
d9556,Shallow Question,html.Page,5_0_0_0_3_1_0,NA,NA,form submission,8156.54,600256,600246.86,600263.46,608420,608421,2023-08-20T14:43:32Z,608429.06,NULL,Vergnügen,kichekesho,s,dubwana,mpanuko,mtesaji,mpanuko,NA,NA,0,NA,NA,NA,NA,NA,NA,NA,NA,NA,NA,NA,NA,NA,NA,NA,NA,NA,NA,NA
d9556,"""Richtig""-Screen",canvas.Screen,5_0_0_0_3_1_1,NA,NA,skipped,NA,608427,NA,NA,608420,608428,2023-08-20T14:43:32Z,608429.06,NULL,Vergnügen,kichekesho,s,dubwana,mpanuko,mtesaji,NA,sdf,NA,0,NA,NA,NA,NA,NA,NA,NA,NA,NA,NA,NA,NA,NA,NA,NA,NA,NA,NA,NA
d9556,"""Falsch""-Screen",canvas.Screen,5_0_0_0_3_1_2,NA,NA,timeout,4999.4199999999,608429,608416.14,608429.06,613411.86,613414,2023-08-20T14:43:37Z,613428.48,NULL,Vergnügen,kichekesho,s,dubwana,mpanuko,mtesaji,NA,sdf,0,0,NA,NA,NA,NA,NA,NA,NA,NA,NA,NA,NA,NA,NA,NA,NA,NA,NA,NA,NA
d9556,shallow,flow.Sequence,5_0_0_0_3_1,NA,NA,completion,13148.4,600256,600246.86,600263.46,613411.86,613415,2023-08-20T14:43:37Z,613428.48,NULL,Vergnügen,kichekesho,s,dubwana,mpanuko,mtesaji,NA,sdf,NA,0,NA,NA,NA,NA,NA,NA,NA,NA,NA,NA,NA,NA,NA,NA,NA,NA,NA,NA,NA
d9556,task,flow.Sequence,5_0_0_0_3,NA,NA,completion,13148.4,600254,600246.86,600263.46,613411.86,613416,2023-08-20T14:43:37Z,613428.48,NULL,Vergnügen,kichekesho,s,dubwana,mpanuko,mtesaji,NA,sdf,NA,0,NA,NA,NA,NA,NA,NA,NA,NA,NA,NA,NA,NA,NA,NA,NA,NA,NA,NA,NA
d9556,deep,flow.Sequence,5_0_0_0_4_0,NA,NA,skipped,NA,613417,NA,NA,613411.86,613417,2023-08-20T14:43:37Z,613428.48,NULL,Ausschluss,kutengwa,s,ununuzi,taratibu,madeni,NA,sdf,NA,0,NA,NA,NA,NA,NA,NA,NA,NA,NA,NA,NA,NA,NA,NA,NA,NA,NA,NA,NA
d9556,Shallow Question,html.Page,5_0_0_0_4_1_0,NA,NA,form submission,3642.52,613418,613411.86,613428.48,617071,617072,2023-08-20T14:43:41Z,617077.98,NULL,Ausschluss,kutengwa,s,ununuzi,taratibu,madeni,taratibu,NA,NA,0,NA,NA,NA,NA,NA,NA,NA,NA,NA,NA,NA,NA,NA,NA,NA,NA,NA,NA,NA
d9556,"""Richtig""-Screen",canvas.Screen,5_0_0_0_4_1_1,NA,NA,skipped,NA,617076,NA,NA,617071,617077,2023-08-20T14:43:41Z,617077.98,NULL,Ausschluss,kutengwa,s,ununuzi,taratibu,madeni,NA,sdf,NA,0,NA,NA,NA,NA,NA,NA,NA,NA,NA,NA,NA,NA,NA,NA,NA,NA,NA,NA,NA
d9556,"""Falsch""-Screen",canvas.Screen,5_0_0_0_4_1_2,NA,NA,timeout,4999.34,617080,617067.94,617077.98,622060.68,622062,2023-08-20T14:43:46Z,622077.32,NULL,Ausschluss,kutengwa,s,ununuzi,taratibu,madeni,NA,sdf,0,0,NA,NA,NA,NA,NA,NA,NA,NA,NA,NA,NA,NA,NA,NA,NA,NA,NA,NA,NA
d9556,shallow,flow.Sequence,5_0_0_0_4_1,NA,NA,completion,8632.2000000001,613417,613411.86,613428.48,622060.68,622063,2023-08-20T14:43:46Z,622077.32,NULL,Ausschluss,kutengwa,s,ununuzi,taratibu,madeni,NA,sdf,NA,0,NA,NA,NA,NA,NA,NA,NA,NA,NA,NA,NA,NA,NA,NA,NA,NA,NA,NA,NA
d9556,task,flow.Sequence,5_0_0_0_4,NA,NA,completion,8632.2000000001,613417,613411.86,613428.48,622060.68,622064,2023-08-20T14:43:46Z,622077.32,NULL,Ausschluss,kutengwa,s,ununuzi,taratibu,madeni,NA,sdf,NA,0,NA,NA,NA,NA,NA,NA,NA,NA,NA,NA,NA,NA,NA,NA,NA,NA,NA,NA,NA
d9556,Deep Question,html.Page,5_0_0_0_5_0_0,NA,NA,form submission,2663.6800000001,622064,622060.68,622077.32,624741,624741,2023-08-20T14:43:49Z,624743.62,NULL,Widerstand,usulubu,d,NA,NA,NA,k,NA,NA,0,NA,NA,NA,NA,NA,NA,NA,NA,NA,NA,NA,NA,NA,NA,NA,NA,NA,NA,NA
d9556,"""Richtig""-Screen",canvas.Screen,5_0_0_0_5_0_1,NA,NA,skipped,NA,624743,NA,NA,624741,624743,2023-08-20T14:43:49Z,624743.62,NULL,Widerstand,usulubu,d,NA,NA,NA,NA,sdf,NA,0,NA,NA,NA,NA,NA,NA,NA,NA,NA,NA,NA,NA,NA,NA,NA,NA,NA,NA,NA
d9556,"""Falsch""-Screen",canvas.Screen,5_0_0_0_5_0_2,NA,NA,timeout,4999.46,624745,624739.58,624743.62,629726.4,629728,2023-08-20T14:43:54Z,629743.08,NULL,Widerstand,usulubu,d,NA,NA,NA,NA,sdf,0,0,NA,NA,NA,NA,NA,NA,NA,NA,NA,NA,NA,NA,NA,NA,NA,NA,NA,NA,NA
d9556,deep,flow.Sequence,5_0_0_0_5_0,NA,NA,completion,7649.0800000001,622064,622060.68,622077.32,629726.4,629729,2023-08-20T14:43:54Z,629743.08,NULL,Widerstand,usulubu,d,NA,NA,NA,NA,sdf,NA,0,NA,NA,NA,NA,NA,NA,NA,NA,NA,NA,NA,NA,NA,NA,NA,NA,NA,NA,NA
d9556,shallow,flow.Sequence,5_0_0_0_5_1,NA,NA,skipped,NA,629730,NA,NA,629726.4,629730,2023-08-20T14:43:54Z,629743.08,NULL,Widerstand,usulubu,d,NA,NA,NA,NA,sdf,NA,0,NA,NA,NA,NA,NA,NA,NA,NA,NA,NA,NA,NA,NA,NA,NA,NA,NA,NA,NA
d9556,task,flow.Sequence,5_0_0_0_5,NA,NA,completion,7649.0800000001,622064,622060.68,622077.32,629726.4,629731,2023-08-20T14:43:54Z,629743.08,NULL,Widerstand,usulubu,d,NA,NA,NA,NA,sdf,NA,0,NA,NA,NA,NA,NA,NA,NA,NA,NA,NA,NA,NA,NA,NA,NA,NA,NA,NA,NA
d9556,Deep Question,html.Page,5_0_0_0_6_0_0,NA,NA,form submission,6108.92,629732,629726.4,629743.08,635852,635852,2023-08-20T14:44:00Z,635858.78,NULL,Verstand,ufahamivu,d,NA,NA,NA,usulubu,NA,NA,0,NA,NA,NA,NA,NA,NA,NA,NA,NA,NA,NA,NA,NA,NA,NA,NA,NA,NA,NA
d9556,"""Richtig""-Screen",canvas.Screen,5_0_0_0_6_0_1,NA,NA,skipped,NA,635854,NA,NA,635852,635854,2023-08-20T14:44:00Z,635858.78,NULL,Verstand,ufahamivu,d,NA,NA,NA,NA,sdf,NA,0,NA,NA,NA,NA,NA,NA,NA,NA,NA,NA,NA,NA,NA,NA,NA,NA,NA,NA,NA
d9556,"""Falsch""-Screen",canvas.Screen,5_0_0_0_6_0_2,NA,NA,timeout,4999.4199999999,635856,635851.06,635858.78,640841.66,640844,2023-08-20T14:44:05Z,640858.2,NULL,Verstand,ufahamivu,d,NA,NA,NA,NA,sdf,0,0,NA,NA,NA,NA,NA,NA,NA,NA,NA,NA,NA,NA,NA,NA,NA,NA,NA,NA,NA
d9556,deep,flow.Sequence,5_0_0_0_6_0,NA,NA,completion,11098.58,629732,629726.4,629743.08,640841.66,640844,2023-08-20T14:44:05Z,640858.2,NULL,Verstand,ufahamivu,d,NA,NA,NA,NA,sdf,NA,0,NA,NA,NA,NA,NA,NA,NA,NA,NA,NA,NA,NA,NA,NA,NA,NA,NA,NA,NA
d9556,shallow,flow.Sequence,5_0_0_0_6_1,NA,NA,skipped,NA,640845,NA,NA,640841.66,640845,2023-08-20T14:44:05Z,640858.2,NULL,Verstand,ufahamivu,d,NA,NA,NA,NA,sdf,NA,0,NA,NA,NA,NA,NA,NA,NA,NA,NA,NA,NA,NA,NA,NA,NA,NA,NA,NA,NA
d9556,task,flow.Sequence,5_0_0_0_6,NA,NA,completion,11098.58,629731,629726.4,629743.08,640841.66,640846,2023-08-20T14:44:05Z,640858.2,NULL,Verstand,ufahamivu,d,NA,NA,NA,NA,sdf,NA,0,NA,NA,NA,NA,NA,NA,NA,NA,NA,NA,NA,NA,NA,NA,NA,NA,NA,NA,NA
d9556,Deep Question,html.Page,5_0_0_0_7_0_0,NA,NA,form submission,3847.8,640846,640841.66,640858.2,644706,644706,2023-08-20T14:44:09Z,644707.68,NULL,Ergänzung,kijalizo,d,NA,NA,NA,usulubu,NA,NA,0,NA,NA,NA,NA,NA,NA,NA,NA,NA,NA,NA,NA,NA,NA,NA,NA,NA,NA,NA
d9556,"""Richtig""-Screen",canvas.Screen,5_0_0_0_7_0_1,NA,NA,skipped,NA,644708,NA,NA,644706,644708,2023-08-20T14:44:09Z,644707.68,NULL,Ergänzung,kijalizo,d,NA,NA,NA,NA,sdf,NA,0,NA,NA,NA,NA,NA,NA,NA,NA,NA,NA,NA,NA,NA,NA,NA,NA,NA,NA,NA
d9556,"""Falsch""-Screen",canvas.Screen,5_0_0_0_7_0_2,NA,NA,timeout,4999.4199999999,644710,644705.3,644707.68,649690.42,649692,2023-08-20T14:44:14Z,649707.1,NULL,Ergänzung,kijalizo,d,NA,NA,NA,NA,sdf,0,0,NA,NA,NA,NA,NA,NA,NA,NA,NA,NA,NA,NA,NA,NA,NA,NA,NA,NA,NA
d9556,deep,flow.Sequence,5_0_0_0_7_0,NA,NA,completion,8832.2200000001,640846,640841.66,640858.2,649690.42,649693,2023-08-20T14:44:14Z,649707.1,NULL,Ergänzung,kijalizo,d,NA,NA,NA,NA,sdf,NA,0,NA,NA,NA,NA,NA,NA,NA,NA,NA,NA,NA,NA,NA,NA,NA,NA,NA,NA,NA
d9556,shallow,flow.Sequence,5_0_0_0_7_1,NA,NA,skipped,NA,649694,NA,NA,649690.42,649694,2023-08-20T14:44:14Z,649707.1,NULL,Ergänzung,kijalizo,d,NA,NA,NA,NA,sdf,NA,0,NA,NA,NA,NA,NA,NA,NA,NA,NA,NA,NA,NA,NA,NA,NA,NA,NA,NA,NA
d9556,task,flow.Sequence,5_0_0_0_7,NA,NA,completion,8832.2200000001,640846,640841.66,640858.2,649690.42,649694,2023-08-20T14:44:14Z,649707.1,NULL,Ergänzung,kijalizo,d,NA,NA,NA,NA,sdf,NA,0,NA,NA,NA,NA,NA,NA,NA,NA,NA,NA,NA,NA,NA,NA,NA,NA,NA,NA,NA
d9556,block,flow.Loop,5_0_0_0,NA,NA,completion,80589.62,569094,569094.3,569100.8,649690.42,649695,2023-08-20T14:44:14Z,649707.1,NULL,NA,NA,NA,NA,NA,NA,NA,sdf,NA,0,NA,NA,NA,NA,NA,NA,NA,NA,NA,NA,NA,NA,NA,NA,NA,NA,NA,NA,NA
d9556,weiter,canvas.Screen,5_0_0_1,sdf,keypress(Space),response,902.90000000002,649695,649690.42,649707.1,650610,650616,2023-08-20T14:44:14Z,650690.22,NULL,NA,NA,NA,NA,NA,NA,NA,sdf,NA,0,NA,NA,NA,NA,NA,NA,NA,NA,NA,NA,NA,NA,NA,NA,NA,NA,NA,NA,NA
d9556,check continue,flow.Sequence,5_0_0,NA,NA,completion,81509.2,569094,569094.3,569100.8,650610,650617,2023-08-20T14:44:14Z,650690.22,NULL,NA,NA,NA,NA,NA,NA,NA,sdf,NA,0,NA,NA,NA,NA,NA,NA,NA,NA,NA,NA,NA,NA,NA,NA,NA,NA,NA,NA,NA
d9556,Deep Question,html.Page,5_0_1_0_0_0_0,NA,NA,form submission,3958.78,650686,650685.78,650690.22,654649,654649,2023-08-20T14:44:18Z,654656.46,NULL,Wohlstand,mafanikio,d,NA,NA,NA,usulubu,NA,NA,1,NA,NA,NA,NA,NA,NA,NA,NA,NA,NA,NA,NA,NA,NA,NA,NA,NA,NA,NA
d9556,"""Richtig""-Screen",canvas.Screen,5_0_1_0_0_0_1,NA,NA,skipped,NA,654650,NA,NA,654649,654651,2023-08-20T14:44:18Z,654656.46,NULL,Wohlstand,mafanikio,d,NA,NA,NA,NA,sdfdsf,NA,1,NA,NA,NA,NA,NA,NA,NA,NA,NA,NA,NA,NA,NA,NA,NA,NA,NA,NA,NA
d9556,"""Falsch""-Screen",canvas.Screen,5_0_1_0_0_0_2,NA,NA,timeout,4999.36,654652,654648.14,654656.46,659639.2,659643,2023-08-20T14:44:23Z,659655.82,NULL,Wohlstand,mafanikio,d,NA,NA,NA,NA,sdfdsf,0,1,NA,NA,NA,NA,NA,NA,NA,NA,NA,NA,NA,NA,NA,NA,NA,NA,NA,NA,NA
d9556,deep,flow.Sequence,5_0_1_0_0_0,NA,NA,completion,8948.98,650686,650685.78,650690.22,659639.2,659645,2023-08-20T14:44:23Z,659655.82,NULL,Wohlstand,mafanikio,d,NA,NA,NA,NA,sdfdsf,NA,1,NA,NA,NA,NA,NA,NA,NA,NA,NA,NA,NA,NA,NA,NA,NA,NA,NA,NA,NA
d9556,shallow,flow.Sequence,5_0_1_0_0_1,NA,NA,skipped,NA,659646,NA,NA,659639.2,659646,2023-08-20T14:44:23Z,659655.82,NULL,Wohlstand,mafanikio,d,NA,NA,NA,NA,sdfdsf,NA,1,NA,NA,NA,NA,NA,NA,NA,NA,NA,NA,NA,NA,NA,NA,NA,NA,NA,NA,NA
d9556,task,flow.Sequence,5_0_1_0_0,NA,NA,completion,8948.98,650686,650685.78,650690.22,659639.2,659648,2023-08-20T14:44:23Z,659655.82,NULL,Wohlstand,mafanikio,d,NA,NA,NA,NA,sdfdsf,NA,1,NA,NA,NA,NA,NA,NA,NA,NA,NA,NA,NA,NA,NA,NA,NA,NA,NA,NA,NA
d9556,Deep Question,html.Page,5_0_1_0_1_0_0,NA,NA,form submission,3744.1800000001,659649,659639.2,659655.82,663400,663400,2023-08-20T14:44:27Z,663405.34,NULL,Ergänzung,kijalizo,d,NA,NA,NA,usulubu,NA,NA,1,NA,NA,NA,NA,NA,NA,NA,NA,NA,NA,NA,NA,NA,NA,NA,NA,NA,NA,NA
d9556,"""Richtig""-Screen",canvas.Screen,5_0_1_0_1_0_1,NA,NA,skipped,NA,663407,NA,NA,663400,663408,2023-08-20T14:44:27Z,663405.34,NULL,Ergänzung,kijalizo,d,NA,NA,NA,NA,sdfdsf,NA,1,NA,NA,NA,NA,NA,NA,NA,NA,NA,NA,NA,NA,NA,NA,NA,NA,NA,NA,NA
d9556,"""Falsch""-Screen",canvas.Screen,5_0_1_0_1_0_2,NA,NA,timeout,4999.36,663411,663394.98,663405.34,668388.04,668389,2023-08-20T14:44:32Z,668404.7,NULL,Ergänzung,kijalizo,d,NA,NA,NA,NA,sdfdsf,0,1,NA,NA,NA,NA,NA,NA,NA,NA,NA,NA,NA,NA,NA,NA,NA,NA,NA,NA,NA
d9556,deep,flow.Sequence,5_0_1_0_1_0,NA,NA,completion,8732.2200000001,659649,659639.2,659655.82,668388.04,668390,2023-08-20T14:44:32Z,668404.7,NULL,Ergänzung,kijalizo,d,NA,NA,NA,NA,sdfdsf,NA,1,NA,NA,NA,NA,NA,NA,NA,NA,NA,NA,NA,NA,NA,NA,NA,NA,NA,NA,NA
d9556,shallow,flow.Sequence,5_0_1_0_1_1,NA,NA,skipped,NA,668391,NA,NA,668388.04,668391,2023-08-20T14:44:32Z,668404.7,NULL,Ergänzung,kijalizo,d,NA,NA,NA,NA,sdfdsf,NA,1,NA,NA,NA,NA,NA,NA,NA,NA,NA,NA,NA,NA,NA,NA,NA,NA,NA,NA,NA
d9556,task,flow.Sequence,5_0_1_0_1,NA,NA,completion,8732.2200000001,659648,659639.2,659655.82,668388.04,668393,2023-08-20T14:44:32Z,668404.7,NULL,Ergänzung,kijalizo,d,NA,NA,NA,NA,sdfdsf,NA,1,NA,NA,NA,NA,NA,NA,NA,NA,NA,NA,NA,NA,NA,NA,NA,NA,NA,NA,NA
d9556,deep,flow.Sequence,5_0_1_0_2_0,NA,NA,skipped,NA,668393,NA,NA,668388.04,668394,2023-08-20T14:44:32Z,668404.7,NULL,Gelegenheit,wakati,s,mchanganyiko,kipaumbele,kushuku,NA,sdfdsf,NA,1,NA,NA,NA,NA,NA,NA,NA,NA,NA,NA,NA,NA,NA,NA,NA,NA,NA,NA,NA
d9556,Shallow Question,html.Page,5_0_1_0_2_1_0,NA,NA,form submission,5917.3,668395,668388.04,668404.7,674322,674323,2023-08-20T14:44:38Z,674320.58,NULL,Gelegenheit,wakati,s,mchanganyiko,kipaumbele,kushuku,wakati,NA,NA,1,NA,NA,NA,NA,NA,NA,NA,NA,NA,NA,NA,NA,NA,NA,NA,NA,NA,NA,NA
d9556,"""Richtig""-Screen",canvas.Screen,5_0_1_0_2_1_1,NA,NA,timeout,4999.4400000001,674327,674317.7,674320.58,679303.34,679305,2023-08-20T14:44:43Z,679320.02,NULL,Gelegenheit,wakati,s,mchanganyiko,kipaumbele,kushuku,NA,sdfdsf,1,1,NA,NA,NA,NA,NA,NA,NA,NA,NA,NA,NA,NA,NA,NA,NA,NA,NA,NA,NA
d9556,"""Falsch""-Screen",canvas.Screen,5_0_1_0_2_1_2,NA,NA,skipped,NA,679313,NA,NA,679303.34,679313,2023-08-20T14:44:43Z,679320.02,NULL,Gelegenheit,wakati,s,mchanganyiko,kipaumbele,kushuku,NA,sdfdsf,NA,1,NA,NA,NA,NA,NA,NA,NA,NA,NA,NA,NA,NA,NA,NA,NA,NA,NA,NA,NA
d9556,shallow,flow.Sequence,5_0_1_0_2_1,NA,NA,completion,10898.64,668394,668388.04,668404.7,679303.34,679314,2023-08-20T14:44:43Z,679320.02,NULL,Gelegenheit,wakati,s,mchanganyiko,kipaumbele,kushuku,NA,sdfdsf,NA,1,NA,NA,NA,NA,NA,NA,NA,NA,NA,NA,NA,NA,NA,NA,NA,NA,NA,NA,NA
d9556,task,flow.Sequence,5_0_1_0_2,NA,NA,completion,10898.64,668393,668388.04,668404.7,679303.34,679314,2023-08-20T14:44:43Z,679320.02,NULL,Gelegenheit,wakati,s,mchanganyiko,kipaumbele,kushuku,NA,sdfdsf,NA,1,NA,NA,NA,NA,NA,NA,NA,NA,NA,NA,NA,NA,NA,NA,NA,NA,NA,NA,NA
d9556,deep,flow.Sequence,5_0_1_0_3_0,NA,NA,skipped,NA,679315,NA,NA,679303.34,679315,2023-08-20T14:44:43Z,679320.02,NULL,Notfall,dharura,s,rairai,malalamiko,ahueni,NA,sdfdsf,NA,1,NA,NA,NA,NA,NA,NA,NA,NA,NA,NA,NA,NA,NA,NA,NA,NA,NA,NA,NA
d9556,Shallow Question,html.Page,5_0_1_0_3_1_0,NA,NA,form submission,5319.98,679316,679303.34,679320.02,684640,684641,2023-08-20T14:44:48Z,684652.58,NULL,Notfall,dharura,s,rairai,malalamiko,ahueni,dharura,NA,NA,1,NA,NA,NA,NA,NA,NA,NA,NA,NA,NA,NA,NA,NA,NA,NA,NA,NA,NA,NA
d9556,"""Richtig""-Screen",canvas.Screen,5_0_1_0_3_1_1,NA,NA,timeout,4999.42,684645,684635.94,684652.58,689635.34,689637,2023-08-20T14:44:53Z,689652,NULL,Notfall,dharura,s,rairai,malalamiko,ahueni,NA,sdfdsf,1,1,NA,NA,NA,NA,NA,NA,NA,NA,NA,NA,NA,NA,NA,NA,NA,NA,NA,NA,NA
d9556,"""Falsch""-Screen",canvas.Screen,5_0_1_0_3_1_2,NA,NA,skipped,NA,689645,NA,NA,689635.34,689646,2023-08-20T14:44:53Z,689652,NULL,Notfall,dharura,s,rairai,malalamiko,ahueni,NA,sdfdsf,NA,1,NA,NA,NA,NA,NA,NA,NA,NA,NA,NA,NA,NA,NA,NA,NA,NA,NA,NA,NA
d9556,shallow,flow.Sequence,5_0_1_0_3_1,NA,NA,completion,10315.32,679316,679303.34,679320.02,689635.34,689646,2023-08-20T14:44:53Z,689652,NULL,Notfall,dharura,s,rairai,malalamiko,ahueni,NA,sdfdsf,NA,1,NA,NA,NA,NA,NA,NA,NA,NA,NA,NA,NA,NA,NA,NA,NA,NA,NA,NA,NA
d9556,task,flow.Sequence,5_0_1_0_3,NA,NA,completion,10315.32,679315,679303.34,679320.02,689635.34,689647,2023-08-20T14:44:53Z,689652,NULL,Notfall,dharura,s,rairai,malalamiko,ahueni,NA,sdfdsf,NA,1,NA,NA,NA,NA,NA,NA,NA,NA,NA,NA,NA,NA,NA,NA,NA,NA,NA,NA,NA
