observation,sender,sender_type,sender_id,response,response_action,ended_on,duration,time_run,time_render,time_show,time_end,time_commit,timestamp,time_switch,distractors,german,swahili,enc,distractor1,distractor2,distractor3,response_2,x,correct,x_2,url_vp,url_sess,meta_labjs_version,meta_location,meta_user_agent,meta_platform,meta_language,meta_locale,meta_time_zone,meta_timezone_offset,meta_screen_width,meta_screen_height,meta_scroll_width,meta_scroll_height,meta_window_inner_width,meta_window_inner_height,meta_device_pixel_ratio,meta_labjs_build_flavor,meta_labjs_build_commit
33320,Introduction general,canvas.Screen,0,weiter,keypress(q),response,102330.62,684,688.74,705.38,103036,103049,2024-06-26T17:45:11Z,103056.76,NULL,NA,NA,NA,NA,NA,NA,NA,NA,NA,NA,162,3,20.2.4,https://neurocog.fernuni.ch/studies/vweber/jbaenninger/encoding_immediate/index.html?vp=162&sess=3,Mozilla/5.0 (Windows NT 10.0; Win64; x64; rv:127.0) Gecko/20100101 Firefox/127.0,Win32,de,de-CH,Europe/Zurich,-120,1280,800,1280,591,1280,639,1.5,production,f5b4a49f956347addd546a832a3327688c2c0fef
33320,Introduction practice,canvas.Screen,1_0,NA,keypress(Space),response,11353.24,103049,103040.06,103056.76,114410,114416,2024-06-26T17:45:22Z,114417.4,NULL,NA,NA,NA,NA,NA,NA,NA,NA,NA,NA,NA,NA,NA,NA,NA,NA,NA,NA,NA,NA,NA,NA,NA,NA,NA,NA,NA,NA,NA
33320,Deep Question,html.Page,1_1_0_0_0,NA,NA,form submission,9392.6,114417,114416.84,114417.4,123810,123810,2024-06-26T17:45:31Z,123807.32,"c(""distractor1"", ""distractor2"", ""distractor3"")",Gesundheit,salama,d,NA,NA,NA,vsbh,NA,NA,NA,NA,NA,NA,NA,NA,NA,NA,NA,NA,NA,NA,NA,NA,NA,NA,NA,NA,NA,NA
33320,"""Richtig""-Screen",canvas.Screen,1_1_0_0_1,NA,NA,skipped,NA,123814,NA,NA,123810,123815,2024-06-26T17:45:31Z,123807.32,"c(""distractor1"", ""distractor2"", ""distractor3"")",Gesundheit,salama,d,NA,NA,NA,NA,NA,NA,NA,NA,NA,NA,NA,NA,NA,NA,NA,NA,NA,NA,NA,NA,NA,NA,NA,NA,NA,NA
33320,"""Falsch""-Screen",canvas.Screen,1_1_0_0_2,NA,NA,timeout,5004.14,123816,123805.16,123807.32,128794.78,128796,2024-06-26T17:45:36Z,128811.46,"c(""distractor1"", ""distractor2"", ""distractor3"")",Gesundheit,salama,d,NA,NA,NA,NA,NA,0,NA,NA,NA,NA,NA,NA,NA,NA,NA,NA,NA,NA,NA,NA,NA,NA,NA,NA,NA,NA
33320,deep,flow.Sequence,1_1_0_0,NA,NA,completion,14377.38,114417,114416.84,114417.4,128794.78,128796,2024-06-26T17:45:36Z,128811.46,"c(""distractor1"", ""distractor2"", ""distractor3"")",Gesundheit,salama,d,NA,NA,NA,NA,NA,NA,NA,NA,NA,NA,NA,NA,NA,NA,NA,NA,NA,NA,NA,NA,NA,NA,NA,NA,NA,NA
33320,shallow,flow.Sequence,1_1_0_1,NA,NA,skipped,NA,128797,NA,NA,128794.78,128797,2024-06-26T17:45:36Z,128811.46,"c(""distractor1"", ""distractor2"", ""distractor3"")",Gesundheit,salama,d,NA,NA,NA,NA,NA,NA,NA,NA,NA,NA,NA,NA,NA,NA,NA,NA,NA,NA,NA,NA,NA,NA,NA,NA,NA,NA
33320,task,flow.Sequence,1_1_0,NA,NA,completion,14377.38,114417,114416.84,114417.4,128794.78,128797,2024-06-26T17:45:36Z,128811.46,"c(""distractor1"", ""distractor2"", ""distractor3"")",Gesundheit,salama,d,NA,NA,NA,NA,NA,NA,NA,NA,NA,NA,NA,NA,NA,NA,NA,NA,NA,NA,NA,NA,NA,NA,NA,NA,NA,NA
33320,deep,flow.Sequence,1_1_1_0,NA,NA,skipped,NA,128798,NA,NA,128794.78,128798,2024-06-26T17:45:36Z,128811.46,"c(""distractor1"", ""distractor2"", ""distractor3"")",Gegenwart,hadhara,s,katiba,jokofu,mikopo,NA,NA,NA,NA,NA,NA,NA,NA,NA,NA,NA,NA,NA,NA,NA,NA,NA,NA,NA,NA,NA,NA,NA
33320,Shallow Question,html.Page,1_1_1_1_0,NA,NA,form submission,4454.54,128798,128794.78,128811.46,133266,133266,2024-06-26T17:45:41Z,133265.06,"c(""distractor1"", ""distractor2"", ""distractor3"")",Gegenwart,hadhara,s,katiba,jokofu,mikopo,jokofu,NA,NA,NA,NA,NA,NA,NA,NA,NA,NA,NA,NA,NA,NA,NA,NA,NA,NA,NA,NA,NA,NA
33320,"""Richtig""-Screen",canvas.Screen,1_1_1_1_1,NA,NA,skipped,NA,133269,NA,NA,133266,133269,2024-06-26T17:45:41Z,133265.06,"c(""distractor1"", ""distractor2"", ""distractor3"")",Gegenwart,hadhara,s,katiba,jokofu,mikopo,NA,NA,NA,NA,NA,NA,NA,NA,NA,NA,NA,NA,NA,NA,NA,NA,NA,NA,NA,NA,NA,NA,NA
33320,"""Falsch""-Screen",canvas.Screen,1_1_1_1_2,NA,NA,timeout,5004.1,133271,133263.26,133265.06,138252.48,138255,2024-06-26T17:45:46Z,138269.16,"c(""distractor1"", ""distractor2"", ""distractor3"")",Gegenwart,hadhara,s,katiba,jokofu,mikopo,NA,NA,0,NA,NA,NA,NA,NA,NA,NA,NA,NA,NA,NA,NA,NA,NA,NA,NA,NA,NA,NA,NA
33320,shallow,flow.Sequence,1_1_1_1,NA,NA,completion,9441.02,128798,128794.78,128811.46,138252.48,138256,2024-06-26T17:45:46Z,138269.16,"c(""distractor1"", ""distractor2"", ""distractor3"")",Gegenwart,hadhara,s,katiba,jokofu,mikopo,NA,NA,NA,NA,NA,NA,NA,NA,NA,NA,NA,NA,NA,NA,NA,NA,NA,NA,NA,NA,NA,NA,NA
33320,task,flow.Sequence,1_1_1,NA,NA,completion,9441.02,128797,128794.78,128811.46,138252.48,138256,2024-06-26T17:45:46Z,138269.16,"c(""distractor1"", ""distractor2"", ""distractor3"")",Gegenwart,hadhara,s,katiba,jokofu,mikopo,NA,NA,NA,NA,NA,NA,NA,NA,NA,NA,NA,NA,NA,NA,NA,NA,NA,NA,NA,NA,NA,NA,NA
33320,deep,flow.Sequence,1_1_2_0,NA,NA,skipped,NA,138256,NA,NA,138252.48,138256,2024-06-26T17:45:46Z,138269.16,"c(""distractor1"", ""distractor2"", ""distractor3"")",Kritik,lawama,s,dereva,nafasi,mawazo,NA,NA,NA,NA,NA,NA,NA,NA,NA,NA,NA,NA,NA,NA,NA,NA,NA,NA,NA,NA,NA,NA,NA
33320,Shallow Question,html.Page,1_1_2_1_0,NA,NA,form submission,6971.84,138256,138252.48,138269.16,145241,145241,2024-06-26T17:45:53Z,145241.62,"c(""distractor1"", ""distractor2"", ""distractor3"")",Kritik,lawama,s,dereva,nafasi,mawazo,mawazo,NA,NA,NA,NA,NA,NA,NA,NA,NA,NA,NA,NA,NA,NA,NA,NA,NA,NA,NA,NA,NA,NA
33320,"""Richtig""-Screen",canvas.Screen,1_1_2_1_1,NA,NA,skipped,NA,145242,NA,NA,145241,145242,2024-06-26T17:45:53Z,145241.62,"c(""distractor1"", ""distractor2"", ""distractor3"")",Kritik,lawama,s,dereva,nafasi,mawazo,NA,NA,NA,NA,NA,NA,NA,NA,NA,NA,NA,NA,NA,NA,NA,NA,NA,NA,NA,NA,NA,NA,NA
33320,"""Falsch""-Screen",canvas.Screen,1_1_2_1_2,NA,NA,timeout,5004.28,145243,145239.26,145241.62,150229.22,150230,2024-06-26T17:45:58Z,150245.9,"c(""distractor1"", ""distractor2"", ""distractor3"")",Kritik,lawama,s,dereva,nafasi,mawazo,NA,NA,0,NA,NA,NA,NA,NA,NA,NA,NA,NA,NA,NA,NA,NA,NA,NA,NA,NA,NA,NA,NA
33320,shallow,flow.Sequence,1_1_2_1,NA,NA,completion,11960.06,138256,138252.48,138269.16,150229.22,150231,2024-06-26T17:45:58Z,150245.9,"c(""distractor1"", ""distractor2"", ""distractor3"")",Kritik,lawama,s,dereva,nafasi,mawazo,NA,NA,NA,NA,NA,NA,NA,NA,NA,NA,NA,NA,NA,NA,NA,NA,NA,NA,NA,NA,NA,NA,NA
33320,task,flow.Sequence,1_1_2,NA,NA,completion,11960.06,138256,138252.48,138269.16,150229.22,150231,2024-06-26T17:45:58Z,150245.9,"c(""distractor1"", ""distractor2"", ""distractor3"")",Kritik,lawama,s,dereva,nafasi,mawazo,NA,NA,NA,NA,NA,NA,NA,NA,NA,NA,NA,NA,NA,NA,NA,NA,NA,NA,NA,NA,NA,NA,NA
33320,deep,flow.Sequence,1_1_3_0,NA,NA,skipped,NA,150231,NA,NA,150229.22,150231,2024-06-26T17:45:58Z,150245.9,"c(""distractor1"", ""distractor2"", ""distractor3"")",Rückhalt,msaada,s,muhula,auwali,kiwimbe,NA,NA,NA,NA,NA,NA,NA,NA,NA,NA,NA,NA,NA,NA,NA,NA,NA,NA,NA,NA,NA,NA,NA
33320,Shallow Question,html.Page,1_1_3_1_0,NA,NA,form submission,5993.1,150232,150229.22,150245.9,156239,156239,2024-06-26T17:46:04Z,156250.72,"c(""distractor1"", ""distractor2"", ""distractor3"")",Rückhalt,msaada,s,muhula,auwali,kiwimbe,kiwimbe,NA,NA,NA,NA,NA,NA,NA,NA,NA,NA,NA,NA,NA,NA,NA,NA,NA,NA,NA,NA,NA,NA
33320,"""Richtig""-Screen",canvas.Screen,1_1_3_1_1,NA,NA,skipped,NA,156241,NA,NA,156239,156241,2024-06-26T17:46:04Z,156250.72,"c(""distractor1"", ""distractor2"", ""distractor3"")",Rückhalt,msaada,s,muhula,auwali,kiwimbe,NA,NA,NA,NA,NA,NA,NA,NA,NA,NA,NA,NA,NA,NA,NA,NA,NA,NA,NA,NA,NA,NA,NA
33320,"""Falsch""-Screen",canvas.Screen,1_1_3_1_2,NA,NA,timeout,5004.22,156243,156235.58,156250.72,161238.26,161241,2024-06-26T17:46:09Z,161254.94,"c(""distractor1"", ""distractor2"", ""distractor3"")",Rückhalt,msaada,s,muhula,auwali,kiwimbe,NA,NA,0,NA,NA,NA,NA,NA,NA,NA,NA,NA,NA,NA,NA,NA,NA,NA,NA,NA,NA,NA,NA
33320,shallow,flow.Sequence,1_1_3_1,NA,NA,completion,10992.36,150232,150229.22,150245.9,161238.26,161241,2024-06-26T17:46:09Z,161254.94,"c(""distractor1"", ""distractor2"", ""distractor3"")",Rückhalt,msaada,s,muhula,auwali,kiwimbe,NA,NA,NA,NA,NA,NA,NA,NA,NA,NA,NA,NA,NA,NA,NA,NA,NA,NA,NA,NA,NA,NA,NA
33320,task,flow.Sequence,1_1_3,NA,NA,completion,10992.36,150231,150229.22,150245.9,161238.26,161241,2024-06-26T17:46:09Z,161254.94,"c(""distractor1"", ""distractor2"", ""distractor3"")",Rückhalt,msaada,s,muhula,auwali,kiwimbe,NA,NA,NA,NA,NA,NA,NA,NA,NA,NA,NA,NA,NA,NA,NA,NA,NA,NA,NA,NA,NA,NA,NA
33320,Deep Question,html.Page,1_1_4_0_0,NA,NA,form submission,10421.06,161241,161238.26,161254.94,171676,171676,2024-06-26T17:46:19Z,171680.24,"c(""distractor1"", ""distractor2"", ""distractor3"")",Schatten,kivuli,d,NA,NA,NA,schattani,NA,NA,NA,NA,NA,NA,NA,NA,NA,NA,NA,NA,NA,NA,NA,NA,NA,NA,NA,NA,NA,NA
33320,"""Richtig""-Screen",canvas.Screen,1_1_4_0_1,NA,NA,skipped,NA,171678,NA,NA,171676,171678,2024-06-26T17:46:19Z,171680.24,"c(""distractor1"", ""distractor2"", ""distractor3"")",Schatten,kivuli,d,NA,NA,NA,NA,NA,NA,NA,NA,NA,NA,NA,NA,NA,NA,NA,NA,NA,NA,NA,NA,NA,NA,NA,NA,NA,NA
33320,"""Falsch""-Screen",canvas.Screen,1_1_4_0_2,NA,NA,timeout,5004.08,171680,171672.04,171680.24,176667.64,176669,2024-06-26T17:46:24Z,176684.32,"c(""distractor1"", ""distractor2"", ""distractor3"")",Schatten,kivuli,d,NA,NA,NA,NA,NA,0,NA,NA,NA,NA,NA,NA,NA,NA,NA,NA,NA,NA,NA,NA,NA,NA,NA,NA,NA,NA
33320,deep,flow.Sequence,1_1_4_0,NA,NA,completion,15412.7,161241,161238.26,161254.94,176667.64,176670,2024-06-26T17:46:24Z,176684.32,"c(""distractor1"", ""distractor2"", ""distractor3"")",Schatten,kivuli,d,NA,NA,NA,NA,NA,NA,NA,NA,NA,NA,NA,NA,NA,NA,NA,NA,NA,NA,NA,NA,NA,NA,NA,NA,NA,NA
33320,shallow,flow.Sequence,1_1_4_1,NA,NA,skipped,NA,176670,NA,NA,176667.64,176670,2024-06-26T17:46:24Z,176684.32,"c(""distractor1"", ""distractor2"", ""distractor3"")",Schatten,kivuli,d,NA,NA,NA,NA,NA,NA,NA,NA,NA,NA,NA,NA,NA,NA,NA,NA,NA,NA,NA,NA,NA,NA,NA,NA,NA,NA
33320,task,flow.Sequence,1_1_4,NA,NA,completion,15412.7,161241,161238.26,161254.94,176667.64,176670,2024-06-26T17:46:24Z,176684.32,"c(""distractor1"", ""distractor2"", ""distractor3"")",Schatten,kivuli,d,NA,NA,NA,NA,NA,NA,NA,NA,NA,NA,NA,NA,NA,NA,NA,NA,NA,NA,NA,NA,NA,NA,NA,NA,NA,NA
33320,Deep Question,html.Page,1_1_5_0_0,NA,NA,form submission,6622.68,176670,176667.64,176684.32,183307,183307,2024-06-26T17:46:31Z,183306.46,"c(""distractor1"", ""distractor2"", ""distractor3"")",Qualität,mtindo,d,NA,NA,NA,quli,NA,NA,NA,NA,NA,NA,NA,NA,NA,NA,NA,NA,NA,NA,NA,NA,NA,NA,NA,NA,NA,NA
33320,"""Richtig""-Screen",canvas.Screen,1_1_5_0_1,NA,NA,skipped,NA,183309,NA,NA,183307,183310,2024-06-26T17:46:31Z,183306.46,"c(""distractor1"", ""distractor2"", ""distractor3"")",Qualität,mtindo,d,NA,NA,NA,NA,NA,NA,NA,NA,NA,NA,NA,NA,NA,NA,NA,NA,NA,NA,NA,NA,NA,NA,NA,NA,NA,NA
33320,"""Falsch""-Screen",canvas.Screen,1_1_5_0_2,NA,NA,timeout,5004.12,183311,183303.86,183306.46,188293.9,188296,2024-06-26T17:46:36Z,188310.58,"c(""distractor1"", ""distractor2"", ""distractor3"")",Qualität,mtindo,d,NA,NA,NA,NA,NA,0,NA,NA,NA,NA,NA,NA,NA,NA,NA,NA,NA,NA,NA,NA,NA,NA,NA,NA,NA,NA
33320,deep,flow.Sequence,1_1_5_0,NA,NA,completion,11609.58,176670,176667.64,176684.32,188293.9,188296,2024-06-26T17:46:36Z,188310.58,"c(""distractor1"", ""distractor2"", ""distractor3"")",Qualität,mtindo,d,NA,NA,NA,NA,NA,NA,NA,NA,NA,NA,NA,NA,NA,NA,NA,NA,NA,NA,NA,NA,NA,NA,NA,NA,NA,NA
33320,shallow,flow.Sequence,1_1_5_1,NA,NA,skipped,NA,188296,NA,NA,188293.9,188296,2024-06-26T17:46:36Z,188310.58,"c(""distractor1"", ""distractor2"", ""distractor3"")",Qualität,mtindo,d,NA,NA,NA,NA,NA,NA,NA,NA,NA,NA,NA,NA,NA,NA,NA,NA,NA,NA,NA,NA,NA,NA,NA,NA,NA,NA
33320,task,flow.Sequence,1_1_5,NA,NA,completion,11609.58,176670,176667.64,176684.32,188293.9,188296,2024-06-26T17:46:36Z,188310.58,"c(""distractor1"", ""distractor2"", ""distractor3"")",Qualität,mtindo,d,NA,NA,NA,NA,NA,NA,NA,NA,NA,NA,NA,NA,NA,NA,NA,NA,NA,NA,NA,NA,NA,NA,NA,NA,NA,NA
33320,block,flow.Loop,1_1,NA,NA,completion,73876.5,114417,114416.84,114417.4,188293.9,188296,2024-06-26T17:46:36Z,188310.58,"c(""distractor1"", ""distractor2"", ""distractor3"")",NA,NA,NA,NA,NA,NA,NA,NA,NA,NA,NA,NA,NA,NA,NA,NA,NA,NA,NA,NA,NA,NA,NA,NA,NA,NA,NA,NA,NA
33320,Practice,flow.Sequence,1,NA,NA,completion,85237.14,103049,103040.06,103056.76,188293.9,188296,2024-06-26T17:46:36Z,188310.58,NULL,NA,NA,NA,NA,NA,NA,NA,NA,NA,NA,NA,NA,NA,NA,NA,NA,NA,NA,NA,NA,NA,NA,NA,NA,NA,NA,NA,NA,NA
33320,Experiment start,canvas.Screen,2,weiter,keypress(q),response,43553.42,188296,188293.9,188310.58,231864,231875,2024-06-26T17:47:19Z,231955.18,NULL,NA,NA,NA,NA,NA,NA,NA,NA,NA,NA,NA,NA,NA,NA,NA,NA,NA,NA,NA,NA,NA,NA,NA,NA,NA,NA,NA,NA,NA
33320,deep,flow.Sequence,3_0_0_0_0_0,NA,NA,skipped,NA,231954,NA,NA,231864,231954,2024-06-26T17:47:19Z,231955.18,NULL,Vergnügen,kichekesho,s,dubwana,mpanuko,mtesaji,NA,sdf,NA,0,NA,NA,NA,NA,NA,NA,NA,NA,NA,NA,NA,NA,NA,NA,NA,NA,NA,NA,NA
33320,Shallow Question,html.Page,3_0_0_0_0_1_0,NA,NA,form submission,5165.82,231955,231954.78,231955.18,237121,237122,2024-06-26T17:47:25Z,237117.76,NULL,Vergnügen,kichekesho,s,dubwana,mpanuko,mtesaji,dubwana,NA,NA,0,NA,NA,NA,NA,NA,NA,NA,NA,NA,NA,NA,NA,NA,NA,NA,NA,NA,NA,NA
33320,"""Richtig""-Screen",canvas.Screen,3_0_0_0_0_1_1,NA,NA,skipped,NA,237123,NA,NA,237121,237123,2024-06-26T17:47:25Z,237117.76,NULL,Vergnügen,kichekesho,s,dubwana,mpanuko,mtesaji,NA,sdf,NA,0,NA,NA,NA,NA,NA,NA,NA,NA,NA,NA,NA,NA,NA,NA,NA,NA,NA,NA,NA
33320,"""Falsch""-Screen",canvas.Screen,3_0_0_0_0_1_2,NA,NA,timeout,5004,237125,237116.94,237117.76,242105.08,242107,2024-06-26T17:47:30Z,242121.76,NULL,Vergnügen,kichekesho,s,dubwana,mpanuko,mtesaji,NA,sdf,0,0,NA,NA,NA,NA,NA,NA,NA,NA,NA,NA,NA,NA,NA,NA,NA,NA,NA,NA,NA
33320,shallow,flow.Sequence,3_0_0_0_0_1,NA,NA,completion,10149.9,231955,231954.78,231955.18,242105.08,242107,2024-06-26T17:47:30Z,242121.76,NULL,Vergnügen,kichekesho,s,dubwana,mpanuko,mtesaji,NA,sdf,NA,0,NA,NA,NA,NA,NA,NA,NA,NA,NA,NA,NA,NA,NA,NA,NA,NA,NA,NA,NA
33320,task,flow.Sequence,3_0_0_0_0,NA,NA,completion,10149.9,231954,231954.78,231955.18,242105.08,242107,2024-06-26T17:47:30Z,242121.76,NULL,Vergnügen,kichekesho,s,dubwana,mpanuko,mtesaji,NA,sdf,NA,0,NA,NA,NA,NA,NA,NA,NA,NA,NA,NA,NA,NA,NA,NA,NA,NA,NA,NA,NA
33320,deep,flow.Sequence,3_0_0_0_1_0,NA,NA,skipped,NA,242107,NA,NA,242105.08,242107,2024-06-26T17:47:30Z,242121.76,NULL,Respekt,heshima,s,changamnao,upinzani,ufanisi,NA,sdf,NA,0,NA,NA,NA,NA,NA,NA,NA,NA,NA,NA,NA,NA,NA,NA,NA,NA,NA,NA,NA
33320,Shallow Question,html.Page,3_0_0_0_1_1_0,NA,NA,form submission,2648.24,242107,242105.08,242121.76,244770,244771,2024-06-26T17:47:32Z,244774.1,NULL,Respekt,heshima,s,changamnao,upinzani,ufanisi,changamnao,NA,NA,0,NA,NA,NA,NA,NA,NA,NA,NA,NA,NA,NA,NA,NA,NA,NA,NA,NA,NA,NA
33320,"""Richtig""-Screen",canvas.Screen,3_0_0_0_1_1_1,NA,NA,skipped,NA,244772,NA,NA,244770,244772,2024-06-26T17:47:32Z,244774.1,NULL,Respekt,heshima,s,changamnao,upinzani,ufanisi,NA,sdf,NA,0,NA,NA,NA,NA,NA,NA,NA,NA,NA,NA,NA,NA,NA,NA,NA,NA,NA,NA,NA
33320,"""Falsch""-Screen",canvas.Screen,3_0_0_0_1_1_2,NA,NA,timeout,5004,244773,244766.54,244774.1,249761.42,249765,2024-06-26T17:47:37Z,249778.1,NULL,Respekt,heshima,s,changamnao,upinzani,ufanisi,NA,sdf,0,0,NA,NA,NA,NA,NA,NA,NA,NA,NA,NA,NA,NA,NA,NA,NA,NA,NA,NA,NA
33320,shallow,flow.Sequence,3_0_0_0_1_1,NA,NA,completion,7639.66,242107,242105.08,242121.76,249761.42,249766,2024-06-26T17:47:37Z,249778.1,NULL,Respekt,heshima,s,changamnao,upinzani,ufanisi,NA,sdf,NA,0,NA,NA,NA,NA,NA,NA,NA,NA,NA,NA,NA,NA,NA,NA,NA,NA,NA,NA,NA
33320,task,flow.Sequence,3_0_0_0_1,NA,NA,completion,7639.66,242107,242105.08,242121.76,249761.42,249767,2024-06-26T17:47:37Z,249778.1,NULL,Respekt,heshima,s,changamnao,upinzani,ufanisi,NA,sdf,NA,0,NA,NA,NA,NA,NA,NA,NA,NA,NA,NA,NA,NA,NA,NA,NA,NA,NA,NA,NA
33320,deep,flow.Sequence,3_0_0_0_2_0,NA,NA,skipped,NA,249767,NA,NA,249761.42,249768,2024-06-26T17:47:37Z,249778.1,NULL,Notfall,dharura,s,rairai,malalamiko,ahueni,NA,sdf,NA,0,NA,NA,NA,NA,NA,NA,NA,NA,NA,NA,NA,NA,NA,NA,NA,NA,NA,NA,NA
33320,Shallow Question,html.Page,3_0_0_0_2_1_0,NA,NA,form submission,5036.9,249768,249761.42,249778.1,254815,254815,2024-06-26T17:47:42Z,254815.56,NULL,Notfall,dharura,s,rairai,malalamiko,ahueni,ahueni,NA,NA,0,NA,NA,NA,NA,NA,NA,NA,NA,NA,NA,NA,NA,NA,NA,NA,NA,NA,NA,NA
33320,"""Richtig""-Screen",canvas.Screen,3_0_0_0_2_1_1,NA,NA,skipped,NA,254818,NA,NA,254815,254819,2024-06-26T17:47:42Z,254815.56,NULL,Notfall,dharura,s,rairai,malalamiko,ahueni,NA,sdf,NA,0,NA,NA,NA,NA,NA,NA,NA,NA,NA,NA,NA,NA,NA,NA,NA,NA,NA,NA,NA
33320,"""Falsch""-Screen",canvas.Screen,3_0_0_0_2_1_2,NA,NA,timeout,5004.22,254820,254813.28,254815.56,259803.1,259804,2024-06-26T17:47:47Z,259819.78,NULL,Notfall,dharura,s,rairai,malalamiko,ahueni,NA,sdf,0,0,NA,NA,NA,NA,NA,NA,NA,NA,NA,NA,NA,NA,NA,NA,NA,NA,NA,NA,NA
33320,shallow,flow.Sequence,3_0_0_0_2_1,NA,NA,completion,10025,249768,249761.42,249778.1,259803.1,259805,2024-06-26T17:47:47Z,259819.78,NULL,Notfall,dharura,s,rairai,malalamiko,ahueni,NA,sdf,NA,0,NA,NA,NA,NA,NA,NA,NA,NA,NA,NA,NA,NA,NA,NA,NA,NA,NA,NA,NA
33320,task,flow.Sequence,3_0_0_0_2,NA,NA,completion,10025,249767,249761.42,249778.1,259803.1,259805,2024-06-26T17:47:47Z,259819.78,NULL,Notfall,dharura,s,rairai,malalamiko,ahueni,NA,sdf,NA,0,NA,NA,NA,NA,NA,NA,NA,NA,NA,NA,NA,NA,NA,NA,NA,NA,NA,NA,NA
33320,Deep Question,html.Page,3_0_0_0_3_0_0,NA,NA,form submission,8513.22,259805,259803.1,259819.78,268333,268333,2024-06-26T17:47:56Z,268343.48,NULL,Betrüger,mdanganyifu,d,NA,NA,NA,vujv,NA,NA,0,NA,NA,NA,NA,NA,NA,NA,NA,NA,NA,NA,NA,NA,NA,NA,NA,NA,NA,NA
33320,"""Richtig""-Screen",canvas.Screen,3_0_0_0_3_0_1,NA,NA,skipped,NA,268335,NA,NA,268333,268335,2024-06-26T17:47:56Z,268343.48,NULL,Betrüger,mdanganyifu,d,NA,NA,NA,NA,sdf,NA,0,NA,NA,NA,NA,NA,NA,NA,NA,NA,NA,NA,NA,NA,NA,NA,NA,NA,NA,NA
33320,"""Falsch""-Screen",canvas.Screen,3_0_0_0_3_0_2,NA,NA,timeout,5004.18,268337,268331.02,268343.48,273330.96,273332,2024-06-26T17:48:01Z,273347.66,NULL,Betrüger,mdanganyifu,d,NA,NA,NA,NA,sdf,0,0,NA,NA,NA,NA,NA,NA,NA,NA,NA,NA,NA,NA,NA,NA,NA,NA,NA,NA,NA
33320,deep,flow.Sequence,3_0_0_0_3_0,NA,NA,completion,13511.18,259805,259803.1,259819.78,273330.96,273332,2024-06-26T17:48:01Z,273347.66,NULL,Betrüger,mdanganyifu,d,NA,NA,NA,NA,sdf,NA,0,NA,NA,NA,NA,NA,NA,NA,NA,NA,NA,NA,NA,NA,NA,NA,NA,NA,NA,NA
33320,shallow,flow.Sequence,3_0_0_0_3_1,NA,NA,skipped,NA,273333,NA,NA,273330.96,273333,2024-06-26T17:48:01Z,273347.66,NULL,Betrüger,mdanganyifu,d,NA,NA,NA,NA,sdf,NA,0,NA,NA,NA,NA,NA,NA,NA,NA,NA,NA,NA,NA,NA,NA,NA,NA,NA,NA,NA
33320,task,flow.Sequence,3_0_0_0_3,NA,NA,completion,13511.18,259805,259803.1,259819.78,273330.96,273333,2024-06-26T17:48:01Z,273347.66,NULL,Betrüger,mdanganyifu,d,NA,NA,NA,NA,sdf,NA,0,NA,NA,NA,NA,NA,NA,NA,NA,NA,NA,NA,NA,NA,NA,NA,NA,NA,NA,NA
33320,Deep Question,html.Page,3_0_0_0_4_0_0,NA,NA,form submission,6114.34,273333,273330.96,273347.66,279462,279462,2024-06-26T17:48:07Z,279469.32,NULL,Ergänzung,kijalizo,d,NA,NA,NA,war,NA,NA,0,NA,NA,NA,NA,NA,NA,NA,NA,NA,NA,NA,NA,NA,NA,NA,NA,NA,NA,NA
33320,"""Richtig""-Screen",canvas.Screen,3_0_0_0_4_0_1,NA,NA,skipped,NA,279463,NA,NA,279462,279463,2024-06-26T17:48:07Z,279469.32,NULL,Ergänzung,kijalizo,d,NA,NA,NA,NA,sdf,NA,0,NA,NA,NA,NA,NA,NA,NA,NA,NA,NA,NA,NA,NA,NA,NA,NA,NA,NA,NA
33320,"""Falsch""-Screen",canvas.Screen,3_0_0_0_4_0_2,NA,NA,timeout,5004.2,279464,279460.3,279469.32,284456.84,284458,2024-06-26T17:48:12Z,284473.52,NULL,Ergänzung,kijalizo,d,NA,NA,NA,NA,sdf,0,0,NA,NA,NA,NA,NA,NA,NA,NA,NA,NA,NA,NA,NA,NA,NA,NA,NA,NA,NA
33320,deep,flow.Sequence,3_0_0_0_4_0,NA,NA,completion,11109.18,273333,273330.96,273347.66,284456.84,284459,2024-06-26T17:48:12Z,284473.52,NULL,Ergänzung,kijalizo,d,NA,NA,NA,NA,sdf,NA,0,NA,NA,NA,NA,NA,NA,NA,NA,NA,NA,NA,NA,NA,NA,NA,NA,NA,NA,NA
33320,shallow,flow.Sequence,3_0_0_0_4_1,NA,NA,skipped,NA,284459,NA,NA,284456.84,284459,2024-06-26T17:48:12Z,284473.52,NULL,Ergänzung,kijalizo,d,NA,NA,NA,NA,sdf,NA,0,NA,NA,NA,NA,NA,NA,NA,NA,NA,NA,NA,NA,NA,NA,NA,NA,NA,NA,NA
33320,task,flow.Sequence,3_0_0_0_4,NA,NA,completion,11109.18,273333,273330.96,273347.66,284456.84,284459,2024-06-26T17:48:12Z,284473.52,NULL,Ergänzung,kijalizo,d,NA,NA,NA,NA,sdf,NA,0,NA,NA,NA,NA,NA,NA,NA,NA,NA,NA,NA,NA,NA,NA,NA,NA,NA,NA,NA
33320,Deep Question,html.Page,3_0_0_0_5_0_0,NA,NA,form submission,4146.48,284459,284456.84,284473.52,288620,288620,2024-06-26T17:48:16Z,288626.9,NULL,Wohlstand,mafanikio,d,NA,NA,NA,lojop,NA,NA,0,NA,NA,NA,NA,NA,NA,NA,NA,NA,NA,NA,NA,NA,NA,NA,NA,NA,NA,NA
33320,"""Richtig""-Screen",canvas.Screen,3_0_0_0_5_0_1,NA,NA,skipped,NA,288621,NA,NA,288620,288621,2024-06-26T17:48:16Z,288626.9,NULL,Wohlstand,mafanikio,d,NA,NA,NA,NA,sdf,NA,0,NA,NA,NA,NA,NA,NA,NA,NA,NA,NA,NA,NA,NA,NA,NA,NA,NA,NA,NA
33320,"""Falsch""-Screen",canvas.Screen,3_0_0_0_5_0_2,NA,NA,timeout,5004.22,288622,288617.58,288626.9,293614.44,293615,2024-06-26T17:48:21Z,293631.12,NULL,Wohlstand,mafanikio,d,NA,NA,NA,NA,sdf,0,0,NA,NA,NA,NA,NA,NA,NA,NA,NA,NA,NA,NA,NA,NA,NA,NA,NA,NA,NA
33320,deep,flow.Sequence,3_0_0_0_5_0,NA,NA,completion,9140.92,284459,284456.84,284473.52,293614.44,293616,2024-06-26T17:48:21Z,293631.12,NULL,Wohlstand,mafanikio,d,NA,NA,NA,NA,sdf,NA,0,NA,NA,NA,NA,NA,NA,NA,NA,NA,NA,NA,NA,NA,NA,NA,NA,NA,NA,NA
33320,shallow,flow.Sequence,3_0_0_0_5_1,NA,NA,skipped,NA,293616,NA,NA,293614.44,293616,2024-06-26T17:48:21Z,293631.12,NULL,Wohlstand,mafanikio,d,NA,NA,NA,NA,sdf,NA,0,NA,NA,NA,NA,NA,NA,NA,NA,NA,NA,NA,NA,NA,NA,NA,NA,NA,NA,NA
33320,task,flow.Sequence,3_0_0_0_5,NA,NA,completion,9140.92,284459,284456.84,284473.52,293614.44,293616,2024-06-26T17:48:21Z,293631.12,NULL,Wohlstand,mafanikio,d,NA,NA,NA,NA,sdf,NA,0,NA,NA,NA,NA,NA,NA,NA,NA,NA,NA,NA,NA,NA,NA,NA,NA,NA,NA,NA
33320,Deep Question,html.Page,3_0_0_0_6_0_0,NA,NA,form submission,3418.88,293616,293614.44,293631.12,297050,297050,2024-06-26T17:48:25Z,297050.56,NULL,Stimmung,kinyongo,d,NA,NA,NA,nmrgm,NA,NA,0,NA,NA,NA,NA,NA,NA,NA,NA,NA,NA,NA,NA,NA,NA,NA,NA,NA,NA,NA
33320,"""Richtig""-Screen",canvas.Screen,3_0_0_0_6_0_1,NA,NA,skipped,NA,297051,NA,NA,297050,297052,2024-06-26T17:48:25Z,297050.56,NULL,Stimmung,kinyongo,d,NA,NA,NA,NA,sdf,NA,0,NA,NA,NA,NA,NA,NA,NA,NA,NA,NA,NA,NA,NA,NA,NA,NA,NA,NA,NA
33320,"""Falsch""-Screen",canvas.Screen,3_0_0_0_6_0_2,NA,NA,timeout,5004.12,297053,297047.4,297050.56,302038,302039,2024-06-26T17:48:30Z,302054.68,NULL,Stimmung,kinyongo,d,NA,NA,NA,NA,sdf,0,0,NA,NA,NA,NA,NA,NA,NA,NA,NA,NA,NA,NA,NA,NA,NA,NA,NA,NA,NA
33320,deep,flow.Sequence,3_0_0_0_6_0,NA,NA,completion,8406.88,293616,293614.44,293631.12,302038,302039,2024-06-26T17:48:30Z,302054.68,NULL,Stimmung,kinyongo,d,NA,NA,NA,NA,sdf,NA,0,NA,NA,NA,NA,NA,NA,NA,NA,NA,NA,NA,NA,NA,NA,NA,NA,NA,NA,NA
33320,shallow,flow.Sequence,3_0_0_0_6_1,NA,NA,skipped,NA,302039,NA,NA,302038,302039,2024-06-26T17:48:30Z,302054.68,NULL,Stimmung,kinyongo,d,NA,NA,NA,NA,sdf,NA,0,NA,NA,NA,NA,NA,NA,NA,NA,NA,NA,NA,NA,NA,NA,NA,NA,NA,NA,NA
33320,task,flow.Sequence,3_0_0_0_6,NA,NA,completion,8406.88,293616,293614.44,293631.12,302038,302039,2024-06-26T17:48:30Z,302054.68,NULL,Stimmung,kinyongo,d,NA,NA,NA,NA,sdf,NA,0,NA,NA,NA,NA,NA,NA,NA,NA,NA,NA,NA,NA,NA,NA,NA,NA,NA,NA,NA
33320,deep,flow.Sequence,3_0_0_0_7_0,NA,NA,skipped,NA,302039,NA,NA,302038,302040,2024-06-26T17:48:30Z,302054.68,NULL,Orientierung,urekebisho,s,uelekeo,marekebisho,utunzaji,NA,sdf,NA,0,NA,NA,NA,NA,NA,NA,NA,NA,NA,NA,NA,NA,NA,NA,NA,NA,NA,NA,NA
33320,Shallow Question,html.Page,3_0_0_0_7_1_0,NA,NA,form submission,4513.32,302040,302038,302054.68,306568,306568,2024-06-26T17:48:34Z,306575.12,NULL,Orientierung,urekebisho,s,uelekeo,marekebisho,utunzaji,urekebisho,NA,NA,0,NA,NA,NA,NA,NA,NA,NA,NA,NA,NA,NA,NA,NA,NA,NA,NA,NA,NA,NA
33320,"""Richtig""-Screen",canvas.Screen,3_0_0_0_7_1_1,NA,NA,timeout,5004.16,306569,306565.08,306575.12,311562.58,311564,2024-06-26T17:48:39Z,311579.28,NULL,Orientierung,urekebisho,s,uelekeo,marekebisho,utunzaji,NA,sdf,1,0,NA,NA,NA,NA,NA,NA,NA,NA,NA,NA,NA,NA,NA,NA,NA,NA,NA,NA,NA
33320,"""Falsch""-Screen",canvas.Screen,3_0_0_0_7_1_2,NA,NA,skipped,NA,311565,NA,NA,311562.58,311566,2024-06-26T17:48:39Z,311579.28,NULL,Orientierung,urekebisho,s,uelekeo,marekebisho,utunzaji,NA,sdf,NA,0,NA,NA,NA,NA,NA,NA,NA,NA,NA,NA,NA,NA,NA,NA,NA,NA,NA,NA,NA
33320,shallow,flow.Sequence,3_0_0_0_7_1,NA,NA,completion,9507.9,302040,302038,302054.68,311562.58,311566,2024-06-26T17:48:39Z,311579.28,NULL,Orientierung,urekebisho,s,uelekeo,marekebisho,utunzaji,NA,sdf,NA,0,NA,NA,NA,NA,NA,NA,NA,NA,NA,NA,NA,NA,NA,NA,NA,NA,NA,NA,NA
33320,task,flow.Sequence,3_0_0_0_7,NA,NA,completion,9507.9,302039,302038,302054.68,311562.58,311566,2024-06-26T17:48:39Z,311579.28,NULL,Orientierung,urekebisho,s,uelekeo,marekebisho,utunzaji,NA,sdf,NA,0,NA,NA,NA,NA,NA,NA,NA,NA,NA,NA,NA,NA,NA,NA,NA,NA,NA,NA,NA
33320,block,flow.Loop,3_0_0_0,NA,NA,completion,79607.4,231954,231954.78,231955.18,311562.58,311566,2024-06-26T17:48:39Z,311579.28,NULL,NA,NA,NA,NA,NA,NA,NA,sdf,NA,0,NA,NA,NA,NA,NA,NA,NA,NA,NA,NA,NA,NA,NA,NA,NA,NA,NA,NA,NA
33320,weiter,canvas.Screen,3_0_0_1,sdf,keypress(Space),response,1346.72,311566,311562.58,311579.28,312926,312945,2024-06-26T17:48:40Z,312973.14,NULL,NA,NA,NA,NA,NA,NA,NA,sdf,NA,0,NA,NA,NA,NA,NA,NA,NA,NA,NA,NA,NA,NA,NA,NA,NA,NA,NA,NA,NA
33320,check continue,flow.Sequence,3_0_0,NA,NA,completion,80970.82,231954,231954.78,231955.18,312926,312945,2024-06-26T17:48:40Z,312973.14,NULL,NA,NA,NA,NA,NA,NA,NA,sdf,NA,0,NA,NA,NA,NA,NA,NA,NA,NA,NA,NA,NA,NA,NA,NA,NA,NA,NA,NA,NA
33320,deep,flow.Sequence,3_0_1_0_0_0,NA,NA,skipped,NA,312973,NA,NA,312926,312973,2024-06-26T17:48:40Z,312973.14,NULL,Respekt,heshima,s,changamnao,upinzani,ufanisi,NA,sdfdsf,NA,1,NA,NA,NA,NA,NA,NA,NA,NA,NA,NA,NA,NA,NA,NA,NA,NA,NA,NA,NA
33320,Shallow Question,html.Page,3_0_1_0_0_1_0,NA,NA,form submission,5483.86,312973,312972.72,312973.14,318457,318457,2024-06-26T17:48:46Z,318468.28,NULL,Respekt,heshima,s,changamnao,upinzani,ufanisi,heshima,NA,NA,1,NA,NA,NA,NA,NA,NA,NA,NA,NA,NA,NA,NA,NA,NA,NA,NA,NA,NA,NA
33320,"""Richtig""-Screen",canvas.Screen,3_0_1_0_0_1_1,NA,NA,timeout,5004.14,318458,318454.3,318468.28,323455.74,323458,2024-06-26T17:48:51Z,323472.42,NULL,Respekt,heshima,s,changamnao,upinzani,ufanisi,NA,sdfdsf,1,1,NA,NA,NA,NA,NA,NA,NA,NA,NA,NA,NA,NA,NA,NA,NA,NA,NA,NA,NA
33320,"""Falsch""-Screen",canvas.Screen,3_0_1_0_0_1_2,NA,NA,skipped,NA,323463,NA,NA,323455.74,323463,2024-06-26T17:48:51Z,323472.42,NULL,Respekt,heshima,s,changamnao,upinzani,ufanisi,NA,sdfdsf,NA,1,NA,NA,NA,NA,NA,NA,NA,NA,NA,NA,NA,NA,NA,NA,NA,NA,NA,NA,NA
33320,shallow,flow.Sequence,3_0_1_0_0_1,NA,NA,completion,10482.6,312973,312972.72,312973.14,323455.74,323464,2024-06-26T17:48:51Z,323472.42,NULL,Respekt,heshima,s,changamnao,upinzani,ufanisi,NA,sdfdsf,NA,1,NA,NA,NA,NA,NA,NA,NA,NA,NA,NA,NA,NA,NA,NA,NA,NA,NA,NA,NA
33320,task,flow.Sequence,3_0_1_0_0,NA,NA,completion,10482.6,312973,312972.72,312973.14,323455.74,323464,2024-06-26T17:48:51Z,323472.42,NULL,Respekt,heshima,s,changamnao,upinzani,ufanisi,NA,sdfdsf,NA,1,NA,NA,NA,NA,NA,NA,NA,NA,NA,NA,NA,NA,NA,NA,NA,NA,NA,NA,NA
33320,Deep Question,html.Page,3_0_1_0_1_0_0,NA,NA,form submission,7538.58,323464,323455.74,323472.42,331011,331013,2024-06-26T17:48:58Z,331011.94,NULL,Wohlstand,mafanikio,d,NA,NA,NA,nfdm,NA,NA,1,NA,NA,NA,NA,NA,NA,NA,NA,NA,NA,NA,NA,NA,NA,NA,NA,NA,NA,NA
33320,"""Richtig""-Screen",canvas.Screen,3_0_1_0_1_0_1,NA,NA,skipped,NA,331014,NA,NA,331011,331014,2024-06-26T17:48:58Z,331011.94,NULL,Wohlstand,mafanikio,d,NA,NA,NA,NA,sdfdsf,NA,1,NA,NA,NA,NA,NA,NA,NA,NA,NA,NA,NA,NA,NA,NA,NA,NA,NA,NA,NA
33320,"""Falsch""-Screen",canvas.Screen,3_0_1_0_1_0_2,NA,NA,timeout,5004.2,331015,331008.64,331011.94,335999.46,336000,2024-06-26T17:49:03Z,336016.14,NULL,Wohlstand,mafanikio,d,NA,NA,NA,NA,sdfdsf,0,1,NA,NA,NA,NA,NA,NA,NA,NA,NA,NA,NA,NA,NA,NA,NA,NA,NA,NA,NA
33320,deep,flow.Sequence,3_0_1_0_1_0,NA,NA,completion,12527.04,323464,323455.74,323472.42,335999.46,336001,2024-06-26T17:49:03Z,336016.14,NULL,Wohlstand,mafanikio,d,NA,NA,NA,NA,sdfdsf,NA,1,NA,NA,NA,NA,NA,NA,NA,NA,NA,NA,NA,NA,NA,NA,NA,NA,NA,NA,NA
33320,shallow,flow.Sequence,3_0_1_0_1_1,NA,NA,skipped,NA,336001,NA,NA,335999.46,336001,2024-06-26T17:49:03Z,336016.14,NULL,Wohlstand,mafanikio,d,NA,NA,NA,NA,sdfdsf,NA,1,NA,NA,NA,NA,NA,NA,NA,NA,NA,NA,NA,NA,NA,NA,NA,NA,NA,NA,NA
33320,task,flow.Sequence,3_0_1_0_1,NA,NA,completion,12527.04,323464,323455.74,323472.42,335999.46,336001,2024-06-26T17:49:03Z,336016.14,NULL,Wohlstand,mafanikio,d,NA,NA,NA,NA,sdfdsf,NA,1,NA,NA,NA,NA,NA,NA,NA,NA,NA,NA,NA,NA,NA,NA,NA,NA,NA,NA,NA
33320,Deep Question,html.Page,3_0_1_0_2_0_0,NA,NA,form submission,7233.86,336001,335999.46,336016.14,343250,343250,2024-06-26T17:49:11Z,343255.4,NULL,Stimmung,kinyongo,d,NA,NA,NA,kinyongo,NA,NA,1,NA,NA,NA,NA,NA,NA,NA,NA,NA,NA,NA,NA,NA,NA,NA,NA,NA,NA,NA
33320,"""Richtig""-Screen",canvas.Screen,3_0_1_0_2_0_1,NA,NA,timeout,5004.2,343251,343248.48,343255.4,348242.92,348244,2024-06-26T17:49:16Z,348259.6,NULL,Stimmung,kinyongo,d,NA,NA,NA,NA,sdfdsf,1,1,NA,NA,NA,NA,NA,NA,NA,NA,NA,NA,NA,NA,NA,NA,NA,NA,NA,NA,NA
33320,"""Falsch""-Screen",canvas.Screen,3_0_1_0_2_0_2,NA,NA,skipped,NA,348246,NA,NA,348242.92,348246,2024-06-26T17:49:16Z,348259.6,NULL,Stimmung,kinyongo,d,NA,NA,NA,NA,sdfdsf,NA,1,NA,NA,NA,NA,NA,NA,NA,NA,NA,NA,NA,NA,NA,NA,NA,NA,NA,NA,NA
33320,deep,flow.Sequence,3_0_1_0_2_0,NA,NA,completion,12226.78,336001,335999.46,336016.14,348242.92,348246,2024-06-26T17:49:16Z,348259.6,NULL,Stimmung,kinyongo,d,NA,NA,NA,NA,sdfdsf,NA,1,NA,NA,NA,NA,NA,NA,NA,NA,NA,NA,NA,NA,NA,NA,NA,NA,NA,NA,NA
33320,shallow,flow.Sequence,3_0_1_0_2_1,NA,NA,skipped,NA,348246,NA,NA,348242.92,348246,2024-06-26T17:49:16Z,348259.6,NULL,Stimmung,kinyongo,d,NA,NA,NA,NA,sdfdsf,NA,1,NA,NA,NA,NA,NA,NA,NA,NA,NA,NA,NA,NA,NA,NA,NA,NA,NA,NA,NA
33320,task,flow.Sequence,3_0_1_0_2,NA,NA,completion,12226.78,336001,335999.46,336016.14,348242.92,348246,2024-06-26T17:49:16Z,348259.6,NULL,Stimmung,kinyongo,d,NA,NA,NA,NA,sdfdsf,NA,1,NA,NA,NA,NA,NA,NA,NA,NA,NA,NA,NA,NA,NA,NA,NA,NA,NA,NA,NA
33320,Deep Question,html.Page,3_0_1_0_3_0_0,NA,NA,form submission,7059.4,348246,348242.92,348259.6,355319,355319,2024-06-26T17:49:23Z,355332.14,NULL,Ergänzung,kijalizo,d,NA,NA,NA,bigbs,NA,NA,1,NA,NA,NA,NA,NA,NA,NA,NA,NA,NA,NA,NA,NA,NA,NA,NA,NA,NA,NA
33320,"""Richtig""-Screen",canvas.Screen,3_0_1_0_3_0_1,NA,NA,skipped,NA,355321,NA,NA,355319,355321,2024-06-26T17:49:23Z,355332.14,NULL,Ergänzung,kijalizo,d,NA,NA,NA,NA,sdfdsf,NA,1,NA,NA,NA,NA,NA,NA,NA,NA,NA,NA,NA,NA,NA,NA,NA,NA,NA,NA,NA
33320,"""Falsch""-Screen",canvas.Screen,3_0_1_0_3_0_2,NA,NA,timeout,5004.2,355323,355316.84,355332.14,360319.66,360321,2024-06-26T17:49:28Z,360336.34,NULL,Ergänzung,kijalizo,d,NA,NA,NA,NA,sdfdsf,0,1,NA,NA,NA,NA,NA,NA,NA,NA,NA,NA,NA,NA,NA,NA,NA,NA,NA,NA,NA
33320,deep,flow.Sequence,3_0_1_0_3_0,NA,NA,completion,12060.06,348246,348242.92,348259.6,360319.66,360321,2024-06-26T17:49:28Z,360336.34,NULL,Ergänzung,kijalizo,d,NA,NA,NA,NA,sdfdsf,NA,1,NA,NA,NA,NA,NA,NA,NA,NA,NA,NA,NA,NA,NA,NA,NA,NA,NA,NA,NA
33320,shallow,flow.Sequence,3_0_1_0_3_1,NA,NA,skipped,NA,360321,NA,NA,360319.66,360321,2024-06-26T17:49:28Z,360336.34,NULL,Ergänzung,kijalizo,d,NA,NA,NA,NA,sdfdsf,NA,1,NA,NA,NA,NA,NA,NA,NA,NA,NA,NA,NA,NA,NA,NA,NA,NA,NA,NA,NA
33320,task,flow.Sequence,3_0_1_0_3,NA,NA,completion,12060.06,348246,348242.92,348259.6,360319.66,360321,2024-06-26T17:49:28Z,360336.34,NULL,Ergänzung,kijalizo,d,NA,NA,NA,NA,sdfdsf,NA,1,NA,NA,NA,NA,NA,NA,NA,NA,NA,NA,NA,NA,NA,NA,NA,NA,NA,NA,NA
33320,Deep Question,html.Page,3_0_1_0_4_0_0,NA,NA,form submission,14750.66,360321,360319.66,360336.34,375087,375087,2024-06-26T17:49:43Z,375098.38,NULL,Betrüger,mdanganyifu,d,NA,NA,NA,mdafanifu,NA,NA,1,NA,NA,NA,NA,NA,NA,NA,NA,NA,NA,NA,NA,NA,NA,NA,NA,NA,NA,NA
33320,"""Richtig""-Screen",canvas.Screen,3_0_1_0_4_0_1,NA,NA,skipped,NA,375088,NA,NA,375087,375088,2024-06-26T17:49:43Z,375098.38,NULL,Betrüger,mdanganyifu,d,NA,NA,NA,NA,sdfdsf,NA,1,NA,NA,NA,NA,NA,NA,NA,NA,NA,NA,NA,NA,NA,NA,NA,NA,NA,NA,NA
33320,"""Falsch""-Screen",canvas.Screen,3_0_1_0_4_0_2,NA,NA,timeout,5004.18,375089,375085.48,375098.38,380085.88,380089,2024-06-26T17:49:48Z,380102.56,NULL,Betrüger,mdanganyifu,d,NA,NA,NA,NA,sdfdsf,0,1,NA,NA,NA,NA,NA,NA,NA,NA,NA,NA,NA,NA,NA,NA,NA,NA,NA,NA,NA
33320,deep,flow.Sequence,3_0_1_0_4_0,NA,NA,completion,19749.54,360321,360319.66,360336.34,380085.88,380090,2024-06-26T17:49:48Z,380102.56,NULL,Betrüger,mdanganyifu,d,NA,NA,NA,NA,sdfdsf,NA,1,NA,NA,NA,NA,NA,NA,NA,NA,NA,NA,NA,NA,NA,NA,NA,NA,NA,NA,NA
33320,shallow,flow.Sequence,3_0_1_0_4_1,NA,NA,skipped,NA,380090,NA,NA,380085.88,380091,2024-06-26T17:49:48Z,380102.56,NULL,Betrüger,mdanganyifu,d,NA,NA,NA,NA,sdfdsf,NA,1,NA,NA,NA,NA,NA,NA,NA,NA,NA,NA,NA,NA,NA,NA,NA,NA,NA,NA,NA
33320,task,flow.Sequence,3_0_1_0_4,NA,NA,completion,19749.54,360321,360319.66,360336.34,380085.88,380091,2024-06-26T17:49:48Z,380102.56,NULL,Betrüger,mdanganyifu,d,NA,NA,NA,NA,sdfdsf,NA,1,NA,NA,NA,NA,NA,NA,NA,NA,NA,NA,NA,NA,NA,NA,NA,NA,NA,NA,NA
33320,deep,flow.Sequence,3_0_1_0_5_0,NA,NA,skipped,NA,380092,NA,NA,380085.88,380092,2024-06-26T17:49:48Z,380102.56,NULL,Notfall,dharura,s,rairai,malalamiko,ahueni,NA,sdfdsf,NA,1,NA,NA,NA,NA,NA,NA,NA,NA,NA,NA,NA,NA,NA,NA,NA,NA,NA,NA,NA
33320,Shallow Question,html.Page,3_0_1_0_5_1_0,NA,NA,form submission,7281.44,380092,380085.88,380102.56,387384,387385,2024-06-26T17:49:55Z,387391.94,NULL,Notfall,dharura,s,rairai,malalamiko,ahueni,dharura,NA,NA,1,NA,NA,NA,NA,NA,NA,NA,NA,NA,NA,NA,NA,NA,NA,NA,NA,NA,NA,NA
33320,"""Richtig""-Screen",canvas.Screen,3_0_1_0_5_1_1,NA,NA,timeout,5004.16,387390,387379.44,387391.94,392379.42,392381,2024-06-26T17:50:00Z,392396.1,NULL,Notfall,dharura,s,rairai,malalamiko,ahueni,NA,sdfdsf,1,1,NA,NA,NA,NA,NA,NA,NA,NA,NA,NA,NA,NA,NA,NA,NA,NA,NA,NA,NA
33320,"""Falsch""-Screen",canvas.Screen,3_0_1_0_5_1_2,NA,NA,skipped,NA,392383,NA,NA,392379.42,392383,2024-06-26T17:50:00Z,392396.1,NULL,Notfall,dharura,s,rairai,malalamiko,ahueni,NA,sdfdsf,NA,1,NA,NA,NA,NA,NA,NA,NA,NA,NA,NA,NA,NA,NA,NA,NA,NA,NA,NA,NA
33320,shallow,flow.Sequence,3_0_1_0_5_1,NA,NA,completion,12276.86,380092,380085.88,380102.56,392379.42,392384,2024-06-26T17:50:00Z,392396.1,NULL,Notfall,dharura,s,rairai,malalamiko,ahueni,NA,sdfdsf,NA,1,NA,NA,NA,NA,NA,NA,NA,NA,NA,NA,NA,NA,NA,NA,NA,NA,NA,NA,NA
33320,task,flow.Sequence,3_0_1_0_5,NA,NA,completion,12276.86,380092,380085.88,380102.56,392379.42,392384,2024-06-26T17:50:00Z,392396.1,NULL,Notfall,dharura,s,rairai,malalamiko,ahueni,NA,sdfdsf,NA,1,NA,NA,NA,NA,NA,NA,NA,NA,NA,NA,NA,NA,NA,NA,NA,NA,NA,NA,NA
33320,deep,flow.Sequence,3_0_1_0_6_0,NA,NA,skipped,NA,392384,NA,NA,392379.42,392384,2024-06-26T17:50:00Z,392396.1,NULL,Orientierung,urekebisho,s,uelekeo,marekebisho,utunzaji,NA,sdfdsf,NA,1,NA,NA,NA,NA,NA,NA,NA,NA,NA,NA,NA,NA,NA,NA,NA,NA,NA,NA,NA
33320,Shallow Question,html.Page,3_0_1_0_6_1_0,NA,NA,form submission,3640.9,392384,392379.42,392396.1,396037,396037,2024-06-26T17:50:04Z,396049.1,NULL,Orientierung,urekebisho,s,uelekeo,marekebisho,utunzaji,urekebisho,NA,NA,1,NA,NA,NA,NA,NA,NA,NA,NA,NA,NA,NA,NA,NA,NA,NA,NA,NA,NA,NA
33320,"""Richtig""-Screen",canvas.Screen,3_0_1_0_6_1_1,NA,NA,timeout,5004.16,396038,396033.86,396049.1,401036.58,401038,2024-06-26T17:50:09Z,401053.26,NULL,Orientierung,urekebisho,s,uelekeo,marekebisho,utunzaji,NA,sdfdsf,1,1,NA,NA,NA,NA,NA,NA,NA,NA,NA,NA,NA,NA,NA,NA,NA,NA,NA,NA,NA
33320,"""Falsch""-Screen",canvas.Screen,3_0_1_0_6_1_2,NA,NA,skipped,NA,401040,NA,NA,401036.58,401040,2024-06-26T17:50:09Z,401053.26,NULL,Orientierung,urekebisho,s,uelekeo,marekebisho,utunzaji,NA,sdfdsf,NA,1,NA,NA,NA,NA,NA,NA,NA,NA,NA,NA,NA,NA,NA,NA,NA,NA,NA,NA,NA
33320,shallow,flow.Sequence,3_0_1_0_6_1,NA,NA,completion,8640.48,392384,392379.42,392396.1,401036.58,401040,2024-06-26T17:50:09Z,401053.26,NULL,Orientierung,urekebisho,s,uelekeo,marekebisho,utunzaji,NA,sdfdsf,NA,1,NA,NA,NA,NA,NA,NA,NA,NA,NA,NA,NA,NA,NA,NA,NA,NA,NA,NA,NA
33320,task,flow.Sequence,3_0_1_0_6,NA,NA,completion,8640.48,392384,392379.42,392396.1,401036.58,401040,2024-06-26T17:50:09Z,401053.26,NULL,Orientierung,urekebisho,s,uelekeo,marekebisho,utunzaji,NA,sdfdsf,NA,1,NA,NA,NA,NA,NA,NA,NA,NA,NA,NA,NA,NA,NA,NA,NA,NA,NA,NA,NA
33320,deep,flow.Sequence,3_0_1_0_7_0,NA,NA,skipped,NA,401040,NA,NA,401036.58,401041,2024-06-26T17:50:09Z,401053.26,NULL,Vergnügen,kichekesho,s,dubwana,mpanuko,mtesaji,NA,sdfdsf,NA,1,NA,NA,NA,NA,NA,NA,NA,NA,NA,NA,NA,NA,NA,NA,NA,NA,NA,NA,NA
33320,Shallow Question,html.Page,3_0_1_0_7_1_0,NA,NA,form submission,6390.74,401041,401036.58,401053.26,407444,407444,2024-06-26T17:50:15Z,407458.64,NULL,Vergnügen,kichekesho,s,dubwana,mpanuko,mtesaji,dubwana,NA,NA,1,NA,NA,NA,NA,NA,NA,NA,NA,NA,NA,NA,NA,NA,NA,NA,NA,NA,NA,NA
33320,"""Richtig""-Screen",canvas.Screen,3_0_1_0_7_1_1,NA,NA,skipped,NA,407445,NA,NA,407444,407445,2024-06-26T17:50:15Z,407458.64,NULL,Vergnügen,kichekesho,s,dubwana,mpanuko,mtesaji,NA,sdfdsf,NA,1,NA,NA,NA,NA,NA,NA,NA,NA,NA,NA,NA,NA,NA,NA,NA,NA,NA,NA,NA
33320,"""Falsch""-Screen",canvas.Screen,3_0_1_0_7_1_2,NA,NA,timeout,5004.04,407447,407441.9,407458.64,412446,412447,2024-06-26T17:50:20Z,412462.68,NULL,Vergnügen,kichekesho,s,dubwana,mpanuko,mtesaji,NA,sdfdsf,0,1,NA,NA,NA,NA,NA,NA,NA,NA,NA,NA,NA,NA,NA,NA,NA,NA,NA,NA,NA
33320,shallow,flow.Sequence,3_0_1_0_7_1,NA,NA,completion,11392.74,401041,401036.58,401053.26,412446,412447,2024-06-26T17:50:20Z,412462.68,NULL,Vergnügen,kichekesho,s,dubwana,mpanuko,mtesaji,NA,sdfdsf,NA,1,NA,NA,NA,NA,NA,NA,NA,NA,NA,NA,NA,NA,NA,NA,NA,NA,NA,NA,NA
33320,task,flow.Sequence,3_0_1_0_7,NA,NA,completion,11392.74,401040,401036.58,401053.26,412446,412448,2024-06-26T17:50:20Z,412462.68,NULL,Vergnügen,kichekesho,s,dubwana,mpanuko,mtesaji,NA,sdfdsf,NA,1,NA,NA,NA,NA,NA,NA,NA,NA,NA,NA,NA,NA,NA,NA,NA,NA,NA,NA,NA
33320,block,flow.Loop,3_0_1_0,NA,NA,completion,99472.86,312973,312972.72,312973.14,412446,412448,2024-06-26T17:50:20Z,412462.68,NULL,NA,NA,NA,NA,NA,NA,NA,sdfdsf,NA,1,NA,NA,NA,NA,NA,NA,NA,NA,NA,NA,NA,NA,NA,NA,NA,NA,NA,NA,NA
33320,weiter,canvas.Screen,3_0_1_1,sdf,keypress(Space),response,1071.32,412448,412446,412462.68,413534,413548,2024-06-26T17:50:21Z,413577.1,NULL,NA,NA,NA,NA,NA,NA,NA,sdfdsf,NA,1,NA,NA,NA,NA,NA,NA,NA,NA,NA,NA,NA,NA,NA,NA,NA,NA,NA,NA,NA
33320,check continue,flow.Sequence,3_0_1,NA,NA,completion,100560.86,312973,312972.72,312973.14,413534,413548,2024-06-26T17:50:21Z,413577.1,NULL,NA,NA,NA,NA,NA,NA,NA,sdfdsf,NA,1,NA,NA,NA,NA,NA,NA,NA,NA,NA,NA,NA,NA,NA,NA,NA,NA,NA,NA,NA
33320,Deep Question,html.Page,3_0_2_0_0_0_0,NA,NA,form submission,5348.9,413576,413576.36,413577.1,418926,418926,2024-06-26T17:50:26Z,418934.66,NULL,Stimmung,kinyongo,d,NA,NA,NA,kinyongo,NA,NA,2,NA,NA,NA,NA,NA,NA,NA,NA,NA,NA,NA,NA,NA,NA,NA,NA,NA,NA,NA
33320,"""Richtig""-Screen",canvas.Screen,3_0_2_0_0_0_1,NA,NA,timeout,5004.16,418928,418923.54,418934.66,423922.14,423923,2024-06-26T17:50:31Z,423938.82,NULL,Stimmung,kinyongo,d,NA,NA,NA,NA,sdf,1,2,NA,NA,NA,NA,NA,NA,NA,NA,NA,NA,NA,NA,NA,NA,NA,NA,NA,NA,NA
33320,"""Falsch""-Screen",canvas.Screen,3_0_2_0_0_0_2,NA,NA,skipped,NA,423925,NA,NA,423922.14,423925,2024-06-26T17:50:31Z,423938.82,NULL,Stimmung,kinyongo,d,NA,NA,NA,NA,sdf,NA,2,NA,NA,NA,NA,NA,NA,NA,NA,NA,NA,NA,NA,NA,NA,NA,NA,NA,NA,NA
33320,deep,flow.Sequence,3_0_2_0_0_0,NA,NA,completion,10345.04,413576,413576.36,413577.1,423922.14,423925,2024-06-26T17:50:31Z,423938.82,NULL,Stimmung,kinyongo,d,NA,NA,NA,NA,sdf,NA,2,NA,NA,NA,NA,NA,NA,NA,NA,NA,NA,NA,NA,NA,NA,NA,NA,NA,NA,NA
33320,shallow,flow.Sequence,3_0_2_0_0_1,NA,NA,skipped,NA,423925,NA,NA,423922.14,423925,2024-06-26T17:50:31Z,423938.82,NULL,Stimmung,kinyongo,d,NA,NA,NA,NA,sdf,NA,2,NA,NA,NA,NA,NA,NA,NA,NA,NA,NA,NA,NA,NA,NA,NA,NA,NA,NA,NA
33320,task,flow.Sequence,3_0_2_0_0,NA,NA,completion,10345.04,413576,413576.36,413577.1,423922.14,423925,2024-06-26T17:50:31Z,423938.82,NULL,Stimmung,kinyongo,d,NA,NA,NA,NA,sdf,NA,2,NA,NA,NA,NA,NA,NA,NA,NA,NA,NA,NA,NA,NA,NA,NA,NA,NA,NA,NA
33320,Deep Question,html.Page,3_0_2_0_1_0_0,NA,NA,form submission,8429.18,423926,423922.14,423938.82,432368,432368,2024-06-26T17:50:40Z,432379.1,NULL,Ergänzung,kijalizo,d,NA,NA,NA,kijalizo,NA,NA,2,NA,NA,NA,NA,NA,NA,NA,NA,NA,NA,NA,NA,NA,NA,NA,NA,NA,NA,NA
33320,"""Richtig""-Screen",canvas.Screen,3_0_2_0_1_0_1,NA,NA,timeout,5004.26,432369,432365.1,432379.1,437366.68,437368,2024-06-26T17:50:45Z,437383.36,NULL,Ergänzung,kijalizo,d,NA,NA,NA,NA,sdf,1,2,NA,NA,NA,NA,NA,NA,NA,NA,NA,NA,NA,NA,NA,NA,NA,NA,NA,NA,NA
33320,"""Falsch""-Screen",canvas.Screen,3_0_2_0_1_0_2,NA,NA,skipped,NA,437369,NA,NA,437366.68,437369,2024-06-26T17:50:45Z,437383.36,NULL,Ergänzung,kijalizo,d,NA,NA,NA,NA,sdf,NA,2,NA,NA,NA,NA,NA,NA,NA,NA,NA,NA,NA,NA,NA,NA,NA,NA,NA,NA,NA
33320,deep,flow.Sequence,3_0_2_0_1_0,NA,NA,completion,13427.86,423926,423922.14,423938.82,437366.68,437369,2024-06-26T17:50:45Z,437383.36,NULL,Ergänzung,kijalizo,d,NA,NA,NA,NA,sdf,NA,2,NA,NA,NA,NA,NA,NA,NA,NA,NA,NA,NA,NA,NA,NA,NA,NA,NA,NA,NA
33320,shallow,flow.Sequence,3_0_2_0_1_1,NA,NA,skipped,NA,437369,NA,NA,437366.68,437369,2024-06-26T17:50:45Z,437383.36,NULL,Ergänzung,kijalizo,d,NA,NA,NA,NA,sdf,NA,2,NA,NA,NA,NA,NA,NA,NA,NA,NA,NA,NA,NA,NA,NA,NA,NA,NA,NA,NA
33320,task,flow.Sequence,3_0_2_0_1,NA,NA,completion,13427.86,423925,423922.14,423938.82,437366.68,437369,2024-06-26T17:50:45Z,437383.36,NULL,Ergänzung,kijalizo,d,NA,NA,NA,NA,sdf,NA,2,NA,NA,NA,NA,NA,NA,NA,NA,NA,NA,NA,NA,NA,NA,NA,NA,NA,NA,NA
33320,deep,flow.Sequence,3_0_2_0_2_0,NA,NA,skipped,NA,437369,NA,NA,437366.68,437369,2024-06-26T17:50:45Z,437383.36,NULL,Orientierung,urekebisho,s,uelekeo,marekebisho,utunzaji,NA,sdf,NA,2,NA,NA,NA,NA,NA,NA,NA,NA,NA,NA,NA,NA,NA,NA,NA,NA,NA,NA,NA
33320,Shallow Question,html.Page,3_0_2_0_2_1_0,NA,NA,form submission,2440.64,437369,437366.68,437383.36,439824,439825,2024-06-26T17:50:47Z,439835.28,NULL,Orientierung,urekebisho,s,uelekeo,marekebisho,utunzaji,urekebisho,NA,NA,2,NA,NA,NA,NA,NA,NA,NA,NA,NA,NA,NA,NA,NA,NA,NA,NA,NA,NA,NA
33320,"""Richtig""-Screen",canvas.Screen,3_0_2_0_2_1_1,NA,NA,timeout,5004.18,439826,439821.52,439835.28,444822.78,444825,2024-06-26T17:50:52Z,444839.46,NULL,Orientierung,urekebisho,s,uelekeo,marekebisho,utunzaji,NA,sdf,1,2,NA,NA,NA,NA,NA,NA,NA,NA,NA,NA,NA,NA,NA,NA,NA,NA,NA,NA,NA
33320,"""Falsch""-Screen",canvas.Screen,3_0_2_0_2_1_2,NA,NA,skipped,NA,444830,NA,NA,444822.78,444830,2024-06-26T17:50:52Z,444839.46,NULL,Orientierung,urekebisho,s,uelekeo,marekebisho,utunzaji,NA,sdf,NA,2,NA,NA,NA,NA,NA,NA,NA,NA,NA,NA,NA,NA,NA,NA,NA,NA,NA,NA,NA
33320,shallow,flow.Sequence,3_0_2_0_2_1,NA,NA,completion,7439.42,437369,437366.68,437383.36,444822.78,444830,2024-06-26T17:50:52Z,444839.46,NULL,Orientierung,urekebisho,s,uelekeo,marekebisho,utunzaji,NA,sdf,NA,2,NA,NA,NA,NA,NA,NA,NA,NA,NA,NA,NA,NA,NA,NA,NA,NA,NA,NA,NA
33320,task,flow.Sequence,3_0_2_0_2,NA,NA,completion,7439.42,437369,437366.68,437383.36,444822.78,444830,2024-06-26T17:50:52Z,444839.46,NULL,Orientierung,urekebisho,s,uelekeo,marekebisho,utunzaji,NA,sdf,NA,2,NA,NA,NA,NA,NA,NA,NA,NA,NA,NA,NA,NA,NA,NA,NA,NA,NA,NA,NA
33320,deep,flow.Sequence,3_0_2_0_3_0,NA,NA,skipped,NA,444830,NA,NA,444822.78,444830,2024-06-26T17:50:52Z,444839.46,NULL,Vergnügen,kichekesho,s,dubwana,mpanuko,mtesaji,NA,sdf,NA,2,NA,NA,NA,NA,NA,NA,NA,NA,NA,NA,NA,NA,NA,NA,NA,NA,NA,NA,NA
33320,Shallow Question,html.Page,3_0_2_0_3_1_0,NA,NA,form submission,3962.54,444831,444822.78,444839.46,448802,448803,2024-06-26T17:50:56Z,448809.44,NULL,Vergnügen,kichekesho,s,dubwana,mpanuko,mtesaji,kichekesho,NA,NA,2,NA,NA,NA,NA,NA,NA,NA,NA,NA,NA,NA,NA,NA,NA,NA,NA,NA,NA,NA
33320,"""Richtig""-Screen",canvas.Screen,3_0_2_0_3_1_1,NA,NA,timeout,5004.1,448808,448797.3,448809.44,453796.86,453798,2024-06-26T17:51:01Z,453813.54,NULL,Vergnügen,kichekesho,s,dubwana,mpanuko,mtesaji,NA,sdf,1,2,NA,NA,NA,NA,NA,NA,NA,NA,NA,NA,NA,NA,NA,NA,NA,NA,NA,NA,NA
33320,"""Falsch""-Screen",canvas.Screen,3_0_2_0_3_1_2,NA,NA,skipped,NA,453800,NA,NA,453796.86,453800,2024-06-26T17:51:01Z,453813.54,NULL,Vergnügen,kichekesho,s,dubwana,mpanuko,mtesaji,NA,sdf,NA,2,NA,NA,NA,NA,NA,NA,NA,NA,NA,NA,NA,NA,NA,NA,NA,NA,NA,NA,NA
33320,shallow,flow.Sequence,3_0_2_0_3_1,NA,NA,completion,8957.4,444830,444822.78,444839.46,453796.86,453800,2024-06-26T17:51:01Z,453813.54,NULL,Vergnügen,kichekesho,s,dubwana,mpanuko,mtesaji,NA,sdf,NA,2,NA,NA,NA,NA,NA,NA,NA,NA,NA,NA,NA,NA,NA,NA,NA,NA,NA,NA,NA
33320,task,flow.Sequence,3_0_2_0_3,NA,NA,completion,8957.4,444830,444822.78,444839.46,453796.86,453800,2024-06-26T17:51:01Z,453813.54,NULL,Vergnügen,kichekesho,s,dubwana,mpanuko,mtesaji,NA,sdf,NA,2,NA,NA,NA,NA,NA,NA,NA,NA,NA,NA,NA,NA,NA,NA,NA,NA,NA,NA,NA
33320,Deep Question,html.Page,3_0_2_0_4_0_0,NA,NA,form submission,16010.46,453800,453796.86,453813.54,469824,469824,2024-06-26T17:51:17Z,469826.86,NULL,Betrüger,mdanganyifu,d,NA,NA,NA,mdafanifyu,NA,NA,2,NA,NA,NA,NA,NA,NA,NA,NA,NA,NA,NA,NA,NA,NA,NA,NA,NA,NA,NA
33320,"""Richtig""-Screen",canvas.Screen,3_0_2_0_4_0_1,NA,NA,skipped,NA,469826,NA,NA,469824,469826,2024-06-26T17:51:17Z,469826.86,NULL,Betrüger,mdanganyifu,d,NA,NA,NA,NA,sdf,NA,2,NA,NA,NA,NA,NA,NA,NA,NA,NA,NA,NA,NA,NA,NA,NA,NA,NA,NA,NA
33320,"""Falsch""-Screen",canvas.Screen,3_0_2_0_4_0_2,NA,NA,timeout,5004.04,469826,469820.62,469826.86,474814.22,474815,2024-06-26T17:51:22Z,474830.9,NULL,Betrüger,mdanganyifu,d,NA,NA,NA,NA,sdf,0,2,NA,NA,NA,NA,NA,NA,NA,NA,NA,NA,NA,NA,NA,NA,NA,NA,NA,NA,NA
33320,deep,flow.Sequence,3_0_2_0_4_0,NA,NA,completion,21000.68,453800,453796.86,453813.54,474814.22,474816,2024-06-26T17:51:22Z,474830.9,NULL,Betrüger,mdanganyifu,d,NA,NA,NA,NA,sdf,NA,2,NA,NA,NA,NA,NA,NA,NA,NA,NA,NA,NA,NA,NA,NA,NA,NA,NA,NA,NA
33320,shallow,flow.Sequence,3_0_2_0_4_1,NA,NA,skipped,NA,474816,NA,NA,474814.22,474816,2024-06-26T17:51:22Z,474830.9,NULL,Betrüger,mdanganyifu,d,NA,NA,NA,NA,sdf,NA,2,NA,NA,NA,NA,NA,NA,NA,NA,NA,NA,NA,NA,NA,NA,NA,NA,NA,NA,NA
33320,task,flow.Sequence,3_0_2_0_4,NA,NA,completion,21000.68,453800,453796.86,453813.54,474814.22,474816,2024-06-26T17:51:22Z,474830.9,NULL,Betrüger,mdanganyifu,d,NA,NA,NA,NA,sdf,NA,2,NA,NA,NA,NA,NA,NA,NA,NA,NA,NA,NA,NA,NA,NA,NA,NA,NA,NA,NA
33320,deep,flow.Sequence,3_0_2_0_5_0,NA,NA,skipped,NA,474816,NA,NA,474814.22,474816,2024-06-26T17:51:22Z,474830.9,NULL,Notfall,dharura,s,rairai,malalamiko,ahueni,NA,sdf,NA,2,NA,NA,NA,NA,NA,NA,NA,NA,NA,NA,NA,NA,NA,NA,NA,NA,NA,NA,NA
33320,Shallow Question,html.Page,3_0_2_0_5_1_0,NA,NA,form submission,3068.1,474816,474814.22,474830.9,477899,477899,2024-06-26T17:51:25Z,477900.14,NULL,Notfall,dharura,s,rairai,malalamiko,ahueni,dharura,NA,NA,2,NA,NA,NA,NA,NA,NA,NA,NA,NA,NA,NA,NA,NA,NA,NA,NA,NA,NA,NA
33320,"""Richtig""-Screen",canvas.Screen,3_0_2_0_5_1_1,NA,NA,timeout,5004.18,477901,477896.88,477900.14,482887.64,482889,2024-06-26T17:51:30Z,482904.32,NULL,Notfall,dharura,s,rairai,malalamiko,ahueni,NA,sdf,1,2,NA,NA,NA,NA,NA,NA,NA,NA,NA,NA,NA,NA,NA,NA,NA,NA,NA,NA,NA
33320,"""Falsch""-Screen",canvas.Screen,3_0_2_0_5_1_2,NA,NA,skipped,NA,482891,NA,NA,482887.64,482891,2024-06-26T17:51:30Z,482904.32,NULL,Notfall,dharura,s,rairai,malalamiko,ahueni,NA,sdf,NA,2,NA,NA,NA,NA,NA,NA,NA,NA,NA,NA,NA,NA,NA,NA,NA,NA,NA,NA,NA
33320,shallow,flow.Sequence,3_0_2_0_5_1,NA,NA,completion,8056.74,474816,474814.22,474830.9,482887.64,482891,2024-06-26T17:51:30Z,482904.32,NULL,Notfall,dharura,s,rairai,malalamiko,ahueni,NA,sdf,NA,2,NA,NA,NA,NA,NA,NA,NA,NA,NA,NA,NA,NA,NA,NA,NA,NA,NA,NA,NA
33320,task,flow.Sequence,3_0_2_0_5,NA,NA,completion,8056.74,474816,474814.22,474830.9,482887.64,482891,2024-06-26T17:51:30Z,482904.32,NULL,Notfall,dharura,s,rairai,malalamiko,ahueni,NA,sdf,NA,2,NA,NA,NA,NA,NA,NA,NA,NA,NA,NA,NA,NA,NA,NA,NA,NA,NA,NA,NA
33320,deep,flow.Sequence,3_0_2_0_6_0,NA,NA,skipped,NA,482891,NA,NA,482887.64,482891,2024-06-26T17:51:30Z,482904.32,NULL,Respekt,heshima,s,changamnao,upinzani,ufanisi,NA,sdf,NA,2,NA,NA,NA,NA,NA,NA,NA,NA,NA,NA,NA,NA,NA,NA,NA,NA,NA,NA,NA
33320,Shallow Question,html.Page,3_0_2_0_6_1_0,NA,NA,form submission,2682.68,482891,482887.64,482904.32,485587,485587,2024-06-26T17:51:33Z,485589.92,NULL,Respekt,heshima,s,changamnao,upinzani,ufanisi,heshima,NA,NA,2,NA,NA,NA,NA,NA,NA,NA,NA,NA,NA,NA,NA,NA,NA,NA,NA,NA,NA,NA
33320,"""Richtig""-Screen",canvas.Screen,3_0_2_0_6_1_1,NA,NA,timeout,5004.06,485588,485584.5,485589.92,490577.3,490578,2024-06-26T17:51:38Z,490593.98,NULL,Respekt,heshima,s,changamnao,upinzani,ufanisi,NA,sdf,1,2,NA,NA,NA,NA,NA,NA,NA,NA,NA,NA,NA,NA,NA,NA,NA,NA,NA,NA,NA
33320,"""Falsch""-Screen",canvas.Screen,3_0_2_0_6_1_2,NA,NA,skipped,NA,490580,NA,NA,490577.3,490580,2024-06-26T17:51:38Z,490593.98,NULL,Respekt,heshima,s,changamnao,upinzani,ufanisi,NA,sdf,NA,2,NA,NA,NA,NA,NA,NA,NA,NA,NA,NA,NA,NA,NA,NA,NA,NA,NA,NA,NA
33320,shallow,flow.Sequence,3_0_2_0_6_1,NA,NA,completion,7672.98,482891,482887.64,482904.32,490577.3,490581,2024-06-26T17:51:38Z,490593.98,NULL,Respekt,heshima,s,changamnao,upinzani,ufanisi,NA,sdf,NA,2,NA,NA,NA,NA,NA,NA,NA,NA,NA,NA,NA,NA,NA,NA,NA,NA,NA,NA,NA
33320,task,flow.Sequence,3_0_2_0_6,NA,NA,completion,7672.98,482891,482887.64,482904.32,490577.3,490581,2024-06-26T17:51:38Z,490593.98,NULL,Respekt,heshima,s,changamnao,upinzani,ufanisi,NA,sdf,NA,2,NA,NA,NA,NA,NA,NA,NA,NA,NA,NA,NA,NA,NA,NA,NA,NA,NA,NA,NA
33320,Deep Question,html.Page,3_0_2_0_7_0_0,NA,NA,form submission,9627.02,490581,490577.3,490593.98,500221,500221,2024-06-26T17:51:48Z,500218.56,NULL,Wohlstand,mafanikio,d,NA,NA,NA,bs,NA,NA,2,NA,NA,NA,NA,NA,NA,NA,NA,NA,NA,NA,NA,NA,NA,NA,NA,NA,NA,NA
33320,"""Richtig""-Screen",canvas.Screen,3_0_2_0_7_0_1,NA,NA,skipped,NA,500222,NA,NA,500221,500222,2024-06-26T17:51:48Z,500218.56,NULL,Wohlstand,mafanikio,d,NA,NA,NA,NA,sdf,NA,2,NA,NA,NA,NA,NA,NA,NA,NA,NA,NA,NA,NA,NA,NA,NA,NA,NA,NA,NA
33320,"""Falsch""-Screen",canvas.Screen,3_0_2_0_7_0_2,NA,NA,timeout,5004.14,500224,500218.36,500218.56,505206.02,505208,2024-06-26T17:51:53Z,505222.7,NULL,Wohlstand,mafanikio,d,NA,NA,NA,NA,sdf,0,2,NA,NA,NA,NA,NA,NA,NA,NA,NA,NA,NA,NA,NA,NA,NA,NA,NA,NA,NA
33320,deep,flow.Sequence,3_0_2_0_7_0,NA,NA,completion,14612.04,490581,490577.3,490593.98,505206.02,505208,2024-06-26T17:51:53Z,505222.7,NULL,Wohlstand,mafanikio,d,NA,NA,NA,NA,sdf,NA,2,NA,NA,NA,NA,NA,NA,NA,NA,NA,NA,NA,NA,NA,NA,NA,NA,NA,NA,NA
33320,shallow,flow.Sequence,3_0_2_0_7_1,NA,NA,skipped,NA,505208,NA,NA,505206.02,505208,2024-06-26T17:51:53Z,505222.7,NULL,Wohlstand,mafanikio,d,NA,NA,NA,NA,sdf,NA,2,NA,NA,NA,NA,NA,NA,NA,NA,NA,NA,NA,NA,NA,NA,NA,NA,NA,NA,NA
33320,task,flow.Sequence,3_0_2_0_7,NA,NA,completion,14612.04,490581,490577.3,490593.98,505206.02,505209,2024-06-26T17:51:53Z,505222.7,NULL,Wohlstand,mafanikio,d,NA,NA,NA,NA,sdf,NA,2,NA,NA,NA,NA,NA,NA,NA,NA,NA,NA,NA,NA,NA,NA,NA,NA,NA,NA,NA
33320,block,flow.Loop,3_0_2_0,NA,NA,completion,91628.92,413576,413576.36,413577.1,505206.02,505209,2024-06-26T17:51:53Z,505222.7,NULL,NA,NA,NA,NA,NA,NA,NA,sdf,NA,2,NA,NA,NA,NA,NA,NA,NA,NA,NA,NA,NA,NA,NA,NA,NA,NA,NA,NA,NA
33320,weiter,canvas.Screen,3_0_2_1,sdf,keypress(Space),response,1014.3,505209,505206.02,505222.7,506237,506248,2024-06-26T17:51:54Z,506623.34,NULL,NA,NA,NA,NA,NA,NA,NA,sdf,NA,2,NA,NA,NA,NA,NA,NA,NA,NA,NA,NA,NA,NA,NA,NA,NA,NA,NA,NA,NA
33320,check continue,flow.Sequence,3_0_2,NA,NA,completion,92659.9,413576,413576.36,413577.1,506237,506249,2024-06-26T17:51:54Z,506623.34,NULL,NA,NA,NA,NA,NA,NA,NA,sdf,NA,2,NA,NA,NA,NA,NA,NA,NA,NA,NA,NA,NA,NA,NA,NA,NA,NA,NA,NA,NA
33320,check continue,flow.Sequence,3_0_3,NA,NA,skipped,NA,506276,NA,NA,506237,506276,2024-06-26T17:51:54Z,506623.34,NULL,NA,NA,NA,NA,NA,NA,NA,qt,NA,3,NA,NA,NA,NA,NA,NA,NA,NA,NA,NA,NA,NA,NA,NA,NA,NA,NA,NA,NA
33320,check continue,flow.Sequence,3_0_4,NA,NA,skipped,NA,506290,NA,NA,506237,506290,2024-06-26T17:51:54Z,506623.34,NULL,NA,NA,NA,NA,NA,NA,NA,sd,NA,4,NA,NA,NA,NA,NA,NA,NA,NA,NA,NA,NA,NA,NA,NA,NA,NA,NA,NA,NA
33320,check continue,flow.Sequence,3_0_5,NA,NA,skipped,NA,506305,NA,NA,506237,506305,2024-06-26T17:51:54Z,506623.34,NULL,NA,NA,NA,NA,NA,NA,NA,sdf,NA,5,NA,NA,NA,NA,NA,NA,NA,NA,NA,NA,NA,NA,NA,NA,NA,NA,NA,NA,NA
33320,check continue,flow.Sequence,3_0_6,NA,NA,skipped,NA,506319,NA,NA,506237,506319,2024-06-26T17:51:54Z,506623.34,NULL,NA,NA,NA,NA,NA,NA,NA,dfs,NA,6,NA,NA,NA,NA,NA,NA,NA,NA,NA,NA,NA,NA,NA,NA,NA,NA,NA,NA,NA
33320,check continue,flow.Sequence,3_0_7,NA,NA,skipped,NA,506333,NA,NA,506237,506333,2024-06-26T17:51:54Z,506623.34,NULL,NA,NA,NA,NA,NA,NA,NA,df,NA,7,NA,NA,NA,NA,NA,NA,NA,NA,NA,NA,NA,NA,NA,NA,NA,NA,NA,NA,NA
33320,check continue,flow.Sequence,3_0_8,NA,NA,skipped,NA,506347,NA,NA,506237,506347,2024-06-26T17:51:54Z,506623.34,NULL,NA,NA,NA,NA,NA,NA,NA,dfs,NA,8,NA,NA,NA,NA,NA,NA,NA,NA,NA,NA,NA,NA,NA,NA,NA,NA,NA,NA,NA
33320,check continue,flow.Sequence,3_0_9,NA,NA,skipped,NA,506361,NA,NA,506237,506361,2024-06-26T17:51:54Z,506623.34,NULL,NA,NA,NA,NA,NA,NA,NA,dsf,NA,9,NA,NA,NA,NA,NA,NA,NA,NA,NA,NA,NA,NA,NA,NA,NA,NA,NA,NA,NA
33320,check continue,flow.Sequence,3_0_10,NA,NA,skipped,NA,506373,NA,NA,506237,506373,2024-06-26T17:51:54Z,506623.34,NULL,NA,NA,NA,NA,NA,NA,NA,df,NA,10,NA,NA,NA,NA,NA,NA,NA,NA,NA,NA,NA,NA,NA,NA,NA,NA,NA,NA,NA
33320,check continue,flow.Sequence,3_0_11,NA,NA,skipped,NA,506389,NA,NA,506237,506389,2024-06-26T17:51:54Z,506623.34,NULL,NA,NA,NA,NA,NA,NA,NA,dfs,NA,11,NA,NA,NA,NA,NA,NA,NA,NA,NA,NA,NA,NA,NA,NA,NA,NA,NA,NA,NA
33320,check continue,flow.Sequence,3_0_12,NA,NA,skipped,NA,506401,NA,NA,506237,506401,2024-06-26T17:51:54Z,506623.34,NULL,NA,NA,NA,NA,NA,NA,NA,dsf,NA,12,NA,NA,NA,NA,NA,NA,NA,NA,NA,NA,NA,NA,NA,NA,NA,NA,NA,NA,NA
33320,check continue,flow.Sequence,3_0_13,NA,NA,skipped,NA,506414,NA,NA,506237,506414,2024-06-26T17:51:54Z,506623.34,NULL,NA,NA,NA,NA,NA,NA,NA,dsf,NA,13,NA,NA,NA,NA,NA,NA,NA,NA,NA,NA,NA,NA,NA,NA,NA,NA,NA,NA,NA
33320,check continue,flow.Sequence,3_0_14,NA,NA,skipped,NA,506429,NA,NA,506237,506429,2024-06-26T17:51:54Z,506623.34,NULL,NA,NA,NA,NA,NA,NA,NA,NA,NA,14,NA,NA,NA,NA,NA,NA,NA,NA,NA,NA,NA,NA,NA,NA,NA,NA,NA,NA,NA
33320,check continue,flow.Sequence,3_0_15,NA,NA,skipped,NA,506440,NA,NA,506237,506440,2024-06-26T17:51:54Z,506623.34,NULL,NA,NA,NA,NA,NA,NA,NA,NA,NA,15,NA,NA,NA,NA,NA,NA,NA,NA,NA,NA,NA,NA,NA,NA,NA,NA,NA,NA,NA
33320,check continue,flow.Sequence,3_0_16,NA,NA,skipped,NA,506452,NA,NA,506237,506452,2024-06-26T17:51:54Z,506623.34,NULL,NA,NA,NA,NA,NA,NA,NA,NA,NA,16,NA,NA,NA,NA,NA,NA,NA,NA,NA,NA,NA,NA,NA,NA,NA,NA,NA,NA,NA
33320,check continue,flow.Sequence,3_0_17,NA,NA,skipped,NA,506464,NA,NA,506237,506464,2024-06-26T17:51:54Z,506623.34,NULL,NA,NA,NA,NA,NA,NA,NA,NA,NA,17,NA,NA,NA,NA,NA,NA,NA,NA,NA,NA,NA,NA,NA,NA,NA,NA,NA,NA,NA
33320,check continue,flow.Sequence,3_0_18,NA,NA,skipped,NA,506479,NA,NA,506237,506479,2024-06-26T17:51:54Z,506623.34,NULL,NA,NA,NA,NA,NA,NA,NA,NA,NA,18,NA,NA,NA,NA,NA,NA,NA,NA,NA,NA,NA,NA,NA,NA,NA,NA,NA,NA,NA
33320,check continue,flow.Sequence,3_0_19,NA,NA,skipped,NA,506496,NA,NA,506237,506496,2024-06-26T17:51:54Z,506623.34,NULL,NA,NA,NA,NA,NA,NA,NA,NA,NA,19,NA,NA,NA,NA,NA,NA,NA,NA,NA,NA,NA,NA,NA,NA,NA,NA,NA,NA,NA
33320,check continue,flow.Sequence,3_0_20,NA,NA,skipped,NA,506508,NA,NA,506237,506508,2024-06-26T17:51:54Z,506623.34,NULL,NA,NA,NA,NA,NA,NA,NA,NA,NA,20,NA,NA,NA,NA,NA,NA,NA,NA,NA,NA,NA,NA,NA,NA,NA,NA,NA,NA,NA
33320,check continue,flow.Sequence,3_0_21,NA,NA,skipped,NA,506521,NA,NA,506237,506522,2024-06-26T17:51:54Z,506623.34,NULL,NA,NA,NA,NA,NA,NA,NA,NA,NA,21,NA,NA,NA,NA,NA,NA,NA,NA,NA,NA,NA,NA,NA,NA,NA,NA,NA,NA,NA
33320,check continue,flow.Sequence,3_0_22,NA,NA,skipped,NA,506533,NA,NA,506237,506533,2024-06-26T17:51:54Z,506623.34,NULL,NA,NA,NA,NA,NA,NA,NA,NA,NA,22,NA,NA,NA,NA,NA,NA,NA,NA,NA,NA,NA,NA,NA,NA,NA,NA,NA,NA,NA
33320,check continue,flow.Sequence,3_0_23,NA,NA,skipped,NA,506546,NA,NA,506237,506546,2024-06-26T17:51:54Z,506623.34,NULL,NA,NA,NA,NA,NA,NA,NA,NA,NA,23,NA,NA,NA,NA,NA,NA,NA,NA,NA,NA,NA,NA,NA,NA,NA,NA,NA,NA,NA
33320,check continue,flow.Sequence,3_0_24,NA,NA,skipped,NA,506562,NA,NA,506237,506562,2024-06-26T17:51:54Z,506623.34,NULL,NA,NA,NA,NA,NA,NA,NA,NA,NA,24,NA,NA,NA,NA,NA,NA,NA,NA,NA,NA,NA,NA,NA,NA,NA,NA,NA,NA,NA
33320,check continue,flow.Sequence,3_0_25,NA,NA,skipped,NA,506572,NA,NA,506237,506573,2024-06-26T17:51:54Z,506623.34,NULL,NA,NA,NA,NA,NA,NA,NA,NA,NA,25,NA,NA,NA,NA,NA,NA,NA,NA,NA,NA,NA,NA,NA,NA,NA,NA,NA,NA,NA
33320,check continue,flow.Sequence,3_0_26,NA,NA,skipped,NA,506585,NA,NA,506237,506585,2024-06-26T17:51:54Z,506623.34,NULL,NA,NA,NA,NA,NA,NA,NA,NA,NA,26,NA,NA,NA,NA,NA,NA,NA,NA,NA,NA,NA,NA,NA,NA,NA,NA,NA,NA,NA
33320,check continue,flow.Sequence,3_0_27,NA,NA,skipped,NA,506596,NA,NA,506237,506596,2024-06-26T17:51:54Z,506623.34,NULL,NA,NA,NA,NA,NA,NA,NA,NA,NA,27,NA,NA,NA,NA,NA,NA,NA,NA,NA,NA,NA,NA,NA,NA,NA,NA,NA,NA,NA
33320,check continue,flow.Sequence,3_0_28,NA,NA,skipped,NA,506608,NA,NA,506237,506608,2024-06-26T17:51:54Z,506623.34,NULL,NA,NA,NA,NA,NA,NA,NA,NA,NA,28,NA,NA,NA,NA,NA,NA,NA,NA,NA,NA,NA,NA,NA,NA,NA,NA,NA,NA,NA
33320,check continue,flow.Sequence,3_0_29,NA,NA,skipped,NA,506623,NA,NA,506237,506623,2024-06-26T17:51:54Z,506623.34,NULL,NA,NA,NA,NA,NA,NA,NA,NA,NA,29,NA,NA,NA,NA,NA,NA,NA,NA,NA,NA,NA,NA,NA,NA,NA,NA,NA,NA,NA
33320,until continue,flow.Loop,3_0,NA,NA,completion,274281.82,231924,231954.78,231955.18,506237,506623,2024-06-26T17:51:54Z,506623.34,NULL,NA,NA,NA,NA,NA,NA,NA,NA,NA,NA,NA,NA,NA,NA,NA,NA,NA,NA,NA,NA,NA,NA,NA,NA,NA,NA,NA,NA,NA
33320,block 1,flow.Sequence,3,NA,NA,completion,274281.82,231924,231954.78,231955.18,506237,506623,2024-06-26T17:51:54Z,506623.34,NULL,NA,NA,NA,NA,NA,NA,NA,NA,NA,NA,NA,NA,NA,NA,NA,NA,NA,NA,NA,NA,NA,NA,NA,NA,NA,NA,NA,NA,NA
33320,1.Part Over,canvas.Screen,4,NA,keypress(Space),response,20163.66,506623,506622.82,506623.34,526787,526795,2024-06-26T17:52:14Z,526843.04,NULL,NA,NA,NA,NA,NA,NA,NA,NA,NA,NA,NA,NA,NA,NA,NA,NA,NA,NA,NA,NA,NA,NA,NA,NA,NA,NA,NA,NA,NA
33320,Deep Question,html.Page,5_0_0_0_0_0_0,NA,NA,form submission,18196.96,526843,526842.62,526843.04,545040,545040,2024-06-26T17:52:33Z,545039,NULL,Entwicklung,maendeleo,d,NA,NA,NA,jvnwsbu,NA,NA,0,NA,NA,NA,NA,NA,NA,NA,NA,NA,NA,NA,NA,NA,NA,NA,NA,NA,NA,NA
33320,"""Richtig""-Screen",canvas.Screen,5_0_0_0_0_0_1,NA,NA,skipped,NA,545042,NA,NA,545040,545042,2024-06-26T17:52:33Z,545039,NULL,Entwicklung,maendeleo,d,NA,NA,NA,NA,sdf,NA,0,NA,NA,NA,NA,NA,NA,NA,NA,NA,NA,NA,NA,NA,NA,NA,NA,NA,NA,NA
33320,"""Falsch""-Screen",canvas.Screen,5_0_0_0_0_0_2,NA,NA,timeout,5004.1800000001,545043,545037.06,545039,550026.5,550028,2024-06-26T17:52:38Z,550043.18,NULL,Entwicklung,maendeleo,d,NA,NA,NA,NA,sdf,0,0,NA,NA,NA,NA,NA,NA,NA,NA,NA,NA,NA,NA,NA,NA,NA,NA,NA,NA,NA
33320,deep,flow.Sequence,5_0_0_0_0_0,NA,NA,completion,23183.46,526843,526842.62,526843.04,550026.5,550028,2024-06-26T17:52:38Z,550043.18,NULL,Entwicklung,maendeleo,d,NA,NA,NA,NA,sdf,NA,0,NA,NA,NA,NA,NA,NA,NA,NA,NA,NA,NA,NA,NA,NA,NA,NA,NA,NA,NA
33320,shallow,flow.Sequence,5_0_0_0_0_1,NA,NA,skipped,NA,550028,NA,NA,550026.5,550028,2024-06-26T17:52:38Z,550043.18,NULL,Entwicklung,maendeleo,d,NA,NA,NA,NA,sdf,NA,0,NA,NA,NA,NA,NA,NA,NA,NA,NA,NA,NA,NA,NA,NA,NA,NA,NA,NA,NA
33320,task,flow.Sequence,5_0_0_0_0,NA,NA,completion,23183.46,526843,526842.62,526843.04,550026.5,550028,2024-06-26T17:52:38Z,550043.18,NULL,Entwicklung,maendeleo,d,NA,NA,NA,NA,sdf,NA,0,NA,NA,NA,NA,NA,NA,NA,NA,NA,NA,NA,NA,NA,NA,NA,NA,NA,NA,NA
33320,deep,flow.Sequence,5_0_0_0_1_0,NA,NA,skipped,NA,550028,NA,NA,550026.5,550028,2024-06-26T17:52:38Z,550043.18,NULL,Papier,karatasi,s,uchambuzi,usalama,kukataliwa,NA,sdf,NA,0,NA,NA,NA,NA,NA,NA,NA,NA,NA,NA,NA,NA,NA,NA,NA,NA,NA,NA,NA
33320,Shallow Question,html.Page,5_0_0_0_1_1_0,NA,NA,form submission,4468.8199999999,550028,550026.5,550043.18,554512,554513,2024-06-26T17:52:42Z,554513.44,NULL,Papier,karatasi,s,uchambuzi,usalama,kukataliwa,uchambuzi,NA,NA,0,NA,NA,NA,NA,NA,NA,NA,NA,NA,NA,NA,NA,NA,NA,NA,NA,NA,NA,NA
33320,"""Richtig""-Screen",canvas.Screen,5_0_0_0_1_1_1,NA,NA,skipped,NA,554514,NA,NA,554512,554514,2024-06-26T17:52:42Z,554513.44,NULL,Papier,karatasi,s,uchambuzi,usalama,kukataliwa,NA,sdf,NA,0,NA,NA,NA,NA,NA,NA,NA,NA,NA,NA,NA,NA,NA,NA,NA,NA,NA,NA,NA
33320,"""Falsch""-Screen",canvas.Screen,5_0_0_0_1_1_2,NA,NA,timeout,5004.16,554515,554509.92,554513.44,559500.92,559502,2024-06-26T17:52:47Z,559517.6,NULL,Papier,karatasi,s,uchambuzi,usalama,kukataliwa,NA,sdf,0,0,NA,NA,NA,NA,NA,NA,NA,NA,NA,NA,NA,NA,NA,NA,NA,NA,NA,NA,NA
33320,shallow,flow.Sequence,5_0_0_0_1_1,NA,NA,completion,9457.74,550028,550026.5,550043.18,559500.92,559503,2024-06-26T17:52:47Z,559517.6,NULL,Papier,karatasi,s,uchambuzi,usalama,kukataliwa,NA,sdf,NA,0,NA,NA,NA,NA,NA,NA,NA,NA,NA,NA,NA,NA,NA,NA,NA,NA,NA,NA,NA
33320,task,flow.Sequence,5_0_0_0_1,NA,NA,completion,9457.74,550028,550026.5,550043.18,559500.92,559503,2024-06-26T17:52:47Z,559517.6,NULL,Papier,karatasi,s,uchambuzi,usalama,kukataliwa,NA,sdf,NA,0,NA,NA,NA,NA,NA,NA,NA,NA,NA,NA,NA,NA,NA,NA,NA,NA,NA,NA,NA
33320,deep,flow.Sequence,5_0_0_0_2_0,NA,NA,skipped,NA,559503,NA,NA,559500.92,559503,2024-06-26T17:52:47Z,559517.6,NULL,Niveau,kiwango,s,usimamizi,mwamali,mshairi,NA,sdf,NA,0,NA,NA,NA,NA,NA,NA,NA,NA,NA,NA,NA,NA,NA,NA,NA,NA,NA,NA,NA
33320,Shallow Question,html.Page,5_0_0_0_2_1_0,NA,NA,form submission,13451.4,559503,559500.92,559517.6,572969,572969,2024-06-26T17:53:00Z,572978.82,NULL,Niveau,kiwango,s,usimamizi,mwamali,mshairi,usimamizi,NA,NA,0,NA,NA,NA,NA,NA,NA,NA,NA,NA,NA,NA,NA,NA,NA,NA,NA,NA,NA,NA
33320,"""Richtig""-Screen",canvas.Screen,5_0_0_0_2_1_1,NA,NA,skipped,NA,572970,NA,NA,572969,572970,2024-06-26T17:53:00Z,572978.82,NULL,Niveau,kiwango,s,usimamizi,mwamali,mshairi,NA,sdf,NA,0,NA,NA,NA,NA,NA,NA,NA,NA,NA,NA,NA,NA,NA,NA,NA,NA,NA,NA,NA
33320,"""Falsch""-Screen",canvas.Screen,5_0_0_0_2_1_2,NA,NA,timeout,5004.12,572971,572967.58,572978.82,577966.26,577968,2024-06-26T17:53:05Z,577982.94,NULL,Niveau,kiwango,s,usimamizi,mwamali,mshairi,NA,sdf,0,0,NA,NA,NA,NA,NA,NA,NA,NA,NA,NA,NA,NA,NA,NA,NA,NA,NA,NA,NA
33320,shallow,flow.Sequence,5_0_0_0_2_1,NA,NA,completion,18448.66,559503,559500.92,559517.6,577966.26,577969,2024-06-26T17:53:05Z,577982.94,NULL,Niveau,kiwango,s,usimamizi,mwamali,mshairi,NA,sdf,NA,0,NA,NA,NA,NA,NA,NA,NA,NA,NA,NA,NA,NA,NA,NA,NA,NA,NA,NA,NA
33320,task,flow.Sequence,5_0_0_0_2,NA,NA,completion,18448.66,559503,559500.92,559517.6,577966.26,577970,2024-06-26T17:53:05Z,577982.94,NULL,Niveau,kiwango,s,usimamizi,mwamali,mshairi,NA,sdf,NA,0,NA,NA,NA,NA,NA,NA,NA,NA,NA,NA,NA,NA,NA,NA,NA,NA,NA,NA,NA
33320,Deep Question,html.Page,5_0_0_0_3_0_0,NA,NA,form submission,12846.06,577970,577966.26,577982.94,590829,590829,2024-06-26T17:53:18Z,590826.84,NULL,Fenster,dirisha,d,NA,NA,NA,ibhvwib,NA,NA,0,NA,NA,NA,NA,NA,NA,NA,NA,NA,NA,NA,NA,NA,NA,NA,NA,NA,NA,NA
33320,"""Richtig""-Screen",canvas.Screen,5_0_0_0_3_0_1,NA,NA,skipped,NA,590832,NA,NA,590829,590832,2024-06-26T17:53:18Z,590826.84,NULL,Fenster,dirisha,d,NA,NA,NA,NA,sdf,NA,0,NA,NA,NA,NA,NA,NA,NA,NA,NA,NA,NA,NA,NA,NA,NA,NA,NA,NA,NA
33320,"""Falsch""-Screen",canvas.Screen,5_0_0_0_3_0_2,NA,NA,timeout,5004.1800000001,590833,590825.7,590826.84,595814.34,595816,2024-06-26T17:53:23Z,595831.02,NULL,Fenster,dirisha,d,NA,NA,NA,NA,sdf,0,0,NA,NA,NA,NA,NA,NA,NA,NA,NA,NA,NA,NA,NA,NA,NA,NA,NA,NA,NA
33320,deep,flow.Sequence,5_0_0_0_3_0,NA,NA,completion,17831.4,577970,577966.26,577982.94,595814.34,595816,2024-06-26T17:53:23Z,595831.02,NULL,Fenster,dirisha,d,NA,NA,NA,NA,sdf,NA,0,NA,NA,NA,NA,NA,NA,NA,NA,NA,NA,NA,NA,NA,NA,NA,NA,NA,NA,NA
33320,shallow,flow.Sequence,5_0_0_0_3_1,NA,NA,skipped,NA,595816,NA,NA,595814.34,595816,2024-06-26T17:53:23Z,595831.02,NULL,Fenster,dirisha,d,NA,NA,NA,NA,sdf,NA,0,NA,NA,NA,NA,NA,NA,NA,NA,NA,NA,NA,NA,NA,NA,NA,NA,NA,NA,NA
33320,task,flow.Sequence,5_0_0_0_3,NA,NA,completion,17831.4,577970,577966.26,577982.94,595814.34,595816,2024-06-26T17:53:23Z,595831.02,NULL,Fenster,dirisha,d,NA,NA,NA,NA,sdf,NA,0,NA,NA,NA,NA,NA,NA,NA,NA,NA,NA,NA,NA,NA,NA,NA,NA,NA,NA,NA
33320,deep,flow.Sequence,5_0_0_0_4_0,NA,NA,skipped,NA,595817,NA,NA,595814.34,595817,2024-06-26T17:53:23Z,595831.02,NULL,Tester,wanaojaribu,s,sherti,sihiri,mlipuko,NA,sdf,NA,0,NA,NA,NA,NA,NA,NA,NA,NA,NA,NA,NA,NA,NA,NA,NA,NA,NA,NA,NA
33320,Shallow Question,html.Page,5_0_0_0_4_1_0,NA,NA,form submission,8188.98,595817,595814.34,595831.02,604020,604020,2024-06-26T17:53:31Z,604021.12,NULL,Tester,wanaojaribu,s,sherti,sihiri,mlipuko,wanaojaribu,NA,NA,0,NA,NA,NA,NA,NA,NA,NA,NA,NA,NA,NA,NA,NA,NA,NA,NA,NA,NA,NA
33320,"""Richtig""-Screen",canvas.Screen,5_0_0_0_4_1_1,NA,NA,timeout,5004.16,604021,604017.58,604021.12,609008.58,609010,2024-06-26T17:53:36Z,609025.28,NULL,Tester,wanaojaribu,s,sherti,sihiri,mlipuko,NA,sdf,1,0,NA,NA,NA,NA,NA,NA,NA,NA,NA,NA,NA,NA,NA,NA,NA,NA,NA,NA,NA
33320,"""Falsch""-Screen",canvas.Screen,5_0_0_0_4_1_2,NA,NA,skipped,NA,609012,NA,NA,609008.58,609012,2024-06-26T17:53:36Z,609025.28,NULL,Tester,wanaojaribu,s,sherti,sihiri,mlipuko,NA,sdf,NA,0,NA,NA,NA,NA,NA,NA,NA,NA,NA,NA,NA,NA,NA,NA,NA,NA,NA,NA,NA
33320,shallow,flow.Sequence,5_0_0_0_4_1,NA,NA,completion,13177.56,595817,595814.34,595831.02,609008.58,609013,2024-06-26T17:53:36Z,609025.28,NULL,Tester,wanaojaribu,s,sherti,sihiri,mlipuko,NA,sdf,NA,0,NA,NA,NA,NA,NA,NA,NA,NA,NA,NA,NA,NA,NA,NA,NA,NA,NA,NA,NA
33320,task,flow.Sequence,5_0_0_0_4,NA,NA,completion,13177.56,595817,595814.34,595831.02,609008.58,609013,2024-06-26T17:53:36Z,609025.28,NULL,Tester,wanaojaribu,s,sherti,sihiri,mlipuko,NA,sdf,NA,0,NA,NA,NA,NA,NA,NA,NA,NA,NA,NA,NA,NA,NA,NA,NA,NA,NA,NA,NA
33320,Deep Question,html.Page,5_0_0_0_5_0_0,NA,NA,form submission,4085.72,609013,609008.58,609025.28,613111,613111,2024-06-26T17:53:41Z,613112.04,NULL,Spionage,upelelezi,d,NA,NA,NA,tchv,NA,NA,0,NA,NA,NA,NA,NA,NA,NA,NA,NA,NA,NA,NA,NA,NA,NA,NA,NA,NA,NA
33320,"""Richtig""-Screen",canvas.Screen,5_0_0_0_5_0_1,NA,NA,skipped,NA,613112,NA,NA,613111,613112,2024-06-26T17:53:41Z,613112.04,NULL,Spionage,upelelezi,d,NA,NA,NA,NA,sdf,NA,0,NA,NA,NA,NA,NA,NA,NA,NA,NA,NA,NA,NA,NA,NA,NA,NA,NA,NA,NA
33320,"""Falsch""-Screen",canvas.Screen,5_0_0_0_5_0_2,NA,NA,timeout,5004.0399999999,613114,613108.08,613112.04,618099.4,618101,2024-06-26T17:53:46Z,618116.08,NULL,Spionage,upelelezi,d,NA,NA,NA,NA,sdf,0,0,NA,NA,NA,NA,NA,NA,NA,NA,NA,NA,NA,NA,NA,NA,NA,NA,NA,NA,NA
33320,deep,flow.Sequence,5_0_0_0_5_0,NA,NA,completion,9074.12,609013,609008.58,609025.28,618099.4,618101,2024-06-26T17:53:46Z,618116.08,NULL,Spionage,upelelezi,d,NA,NA,NA,NA,sdf,NA,0,NA,NA,NA,NA,NA,NA,NA,NA,NA,NA,NA,NA,NA,NA,NA,NA,NA,NA,NA
33320,shallow,flow.Sequence,5_0_0_0_5_1,NA,NA,skipped,NA,618101,NA,NA,618099.4,618101,2024-06-26T17:53:46Z,618116.08,NULL,Spionage,upelelezi,d,NA,NA,NA,NA,sdf,NA,0,NA,NA,NA,NA,NA,NA,NA,NA,NA,NA,NA,NA,NA,NA,NA,NA,NA,NA,NA
33320,task,flow.Sequence,5_0_0_0_5,NA,NA,completion,9074.12,609013,609008.58,609025.28,618099.4,618101,2024-06-26T17:53:46Z,618116.08,NULL,Spionage,upelelezi,d,NA,NA,NA,NA,sdf,NA,0,NA,NA,NA,NA,NA,NA,NA,NA,NA,NA,NA,NA,NA,NA,NA,NA,NA,NA,NA
33320,deep,flow.Sequence,5_0_0_0_6_0,NA,NA,skipped,NA,618102,NA,NA,618099.4,618102,2024-06-26T17:53:46Z,618116.08,NULL,Schüler,mwanafunzi,s,mwekezaji,matumizi,uaminifu,NA,sdf,NA,0,NA,NA,NA,NA,NA,NA,NA,NA,NA,NA,NA,NA,NA,NA,NA,NA,NA,NA,NA
33320,Shallow Question,html.Page,5_0_0_0_6_1_0,NA,NA,form submission,4377.92,618102,618099.4,618116.08,622494,622494,2024-06-26T17:53:50Z,622503.06,NULL,Schüler,mwanafunzi,s,mwekezaji,matumizi,uaminifu,uaminifu,NA,NA,0,NA,NA,NA,NA,NA,NA,NA,NA,NA,NA,NA,NA,NA,NA,NA,NA,NA,NA,NA
33320,"""Richtig""-Screen",canvas.Screen,5_0_0_0_6_1_1,NA,NA,skipped,NA,622495,NA,NA,622494,622495,2024-06-26T17:53:50Z,622503.06,NULL,Schüler,mwanafunzi,s,mwekezaji,matumizi,uaminifu,NA,sdf,NA,0,NA,NA,NA,NA,NA,NA,NA,NA,NA,NA,NA,NA,NA,NA,NA,NA,NA,NA,NA
33320,"""Falsch""-Screen",canvas.Screen,5_0_0_0_6_1_2,NA,NA,timeout,5004.1399999999,622497,622491.32,622503.06,627490.64,627492,2024-06-26T17:53:55Z,627507.2,NULL,Schüler,mwanafunzi,s,mwekezaji,matumizi,uaminifu,NA,sdf,0,0,NA,NA,NA,NA,NA,NA,NA,NA,NA,NA,NA,NA,NA,NA,NA,NA,NA,NA,NA
33320,shallow,flow.Sequence,5_0_0_0_6_1,NA,NA,completion,9374.5600000001,618102,618099.4,618116.08,627490.64,627492,2024-06-26T17:53:55Z,627507.2,NULL,Schüler,mwanafunzi,s,mwekezaji,matumizi,uaminifu,NA,sdf,NA,0,NA,NA,NA,NA,NA,NA,NA,NA,NA,NA,NA,NA,NA,NA,NA,NA,NA,NA,NA
33320,task,flow.Sequence,5_0_0_0_6,NA,NA,completion,9374.5600000001,618102,618099.4,618116.08,627490.64,627492,2024-06-26T17:53:55Z,627507.2,NULL,Schüler,mwanafunzi,s,mwekezaji,matumizi,uaminifu,NA,sdf,NA,0,NA,NA,NA,NA,NA,NA,NA,NA,NA,NA,NA,NA,NA,NA,NA,NA,NA,NA,NA
33320,Deep Question,html.Page,5_0_0_0_7_0_0,NA,NA,form submission,17382.8,627492,627490.64,627507.2,644890,644891,2024-06-26T17:54:12Z,644888.2,NULL,Vorwurf,mashtaka,d,NA,NA,NA,owho,NA,NA,0,NA,NA,NA,NA,NA,NA,NA,NA,NA,NA,NA,NA,NA,NA,NA,NA,NA,NA,NA
33320,"""Richtig""-Screen",canvas.Screen,5_0_0_0_7_0_1,NA,NA,skipped,NA,644893,NA,NA,644890,644894,2024-06-26T17:54:12Z,644888.2,NULL,Vorwurf,mashtaka,d,NA,NA,NA,NA,sdf,NA,0,NA,NA,NA,NA,NA,NA,NA,NA,NA,NA,NA,NA,NA,NA,NA,NA,NA,NA,NA
33320,"""Falsch""-Screen",canvas.Screen,5_0_0_0_7_0_2,NA,NA,timeout,5004.16,644895,644885.82,644888.2,649875.68,649877,2024-06-26T17:54:17Z,649892.36,NULL,Vorwurf,mashtaka,d,NA,NA,NA,NA,sdf,0,0,NA,NA,NA,NA,NA,NA,NA,NA,NA,NA,NA,NA,NA,NA,NA,NA,NA,NA,NA
33320,deep,flow.Sequence,5_0_0_0_7_0,NA,NA,completion,22368.48,627492,627490.64,627507.2,649875.68,649878,2024-06-26T17:54:17Z,649892.36,NULL,Vorwurf,mashtaka,d,NA,NA,NA,NA,sdf,NA,0,NA,NA,NA,NA,NA,NA,NA,NA,NA,NA,NA,NA,NA,NA,NA,NA,NA,NA,NA
33320,shallow,flow.Sequence,5_0_0_0_7_1,NA,NA,skipped,NA,649878,NA,NA,649875.68,649878,2024-06-26T17:54:17Z,649892.36,NULL,Vorwurf,mashtaka,d,NA,NA,NA,NA,sdf,NA,0,NA,NA,NA,NA,NA,NA,NA,NA,NA,NA,NA,NA,NA,NA,NA,NA,NA,NA,NA
33320,task,flow.Sequence,5_0_0_0_7,NA,NA,completion,22368.48,627492,627490.64,627507.2,649875.68,649878,2024-06-26T17:54:17Z,649892.36,NULL,Vorwurf,mashtaka,d,NA,NA,NA,NA,sdf,NA,0,NA,NA,NA,NA,NA,NA,NA,NA,NA,NA,NA,NA,NA,NA,NA,NA,NA,NA,NA
33320,block,flow.Loop,5_0_0_0,NA,NA,completion,123032.64,526843,526842.62,526843.04,649875.68,649878,2024-06-26T17:54:17Z,649892.36,NULL,NA,NA,NA,NA,NA,NA,NA,sdf,NA,0,NA,NA,NA,NA,NA,NA,NA,NA,NA,NA,NA,NA,NA,NA,NA,NA,NA,NA,NA
33320,weiter,canvas.Screen,5_0_0_1,sdf,keypress(Space),response,1142.64,649878,649875.68,649892.36,651035,651044,2024-06-26T17:54:19Z,651076.12,NULL,NA,NA,NA,NA,NA,NA,NA,sdf,NA,0,NA,NA,NA,NA,NA,NA,NA,NA,NA,NA,NA,NA,NA,NA,NA,NA,NA,NA,NA
33320,check continue,flow.Sequence,5_0_0,NA,NA,completion,124191.96,526843,526842.62,526843.04,651035,651044,2024-06-26T17:54:19Z,651076.12,NULL,NA,NA,NA,NA,NA,NA,NA,sdf,NA,0,NA,NA,NA,NA,NA,NA,NA,NA,NA,NA,NA,NA,NA,NA,NA,NA,NA,NA,NA
33320,Deep Question,html.Page,5_0_1_0_0_0_0,NA,NA,form submission,15915.88,651076,651075.58,651076.12,666992,666992,2024-06-26T17:54:34Z,666989.86,NULL,Entwicklung,maendeleo,d,NA,NA,NA,ben,NA,NA,1,NA,NA,NA,NA,NA,NA,NA,NA,NA,NA,NA,NA,NA,NA,NA,NA,NA,NA,NA
33320,"""Richtig""-Screen",canvas.Screen,5_0_1_0_0_0_1,NA,NA,skipped,NA,666993,NA,NA,666992,666993,2024-06-26T17:54:34Z,666989.86,NULL,Entwicklung,maendeleo,d,NA,NA,NA,NA,sdfdsf,NA,1,NA,NA,NA,NA,NA,NA,NA,NA,NA,NA,NA,NA,NA,NA,NA,NA,NA,NA,NA
33320,"""Falsch""-Screen",canvas.Screen,5_0_1_0_0_0_2,NA,NA,timeout,5004.12,666995,666988.42,666989.86,671977.3,671978,2024-06-26T17:54:39Z,671993.98,NULL,Entwicklung,maendeleo,d,NA,NA,NA,NA,sdfdsf,0,1,NA,NA,NA,NA,NA,NA,NA,NA,NA,NA,NA,NA,NA,NA,NA,NA,NA,NA,NA
33320,deep,flow.Sequence,5_0_1_0_0_0,NA,NA,completion,20901.18,651076,651075.58,651076.12,671977.3,671978,2024-06-26T17:54:39Z,671993.98,NULL,Entwicklung,maendeleo,d,NA,NA,NA,NA,sdfdsf,NA,1,NA,NA,NA,NA,NA,NA,NA,NA,NA,NA,NA,NA,NA,NA,NA,NA,NA,NA,NA
33320,shallow,flow.Sequence,5_0_1_0_0_1,NA,NA,skipped,NA,671978,NA,NA,671977.3,671978,2024-06-26T17:54:39Z,671993.98,NULL,Entwicklung,maendeleo,d,NA,NA,NA,NA,sdfdsf,NA,1,NA,NA,NA,NA,NA,NA,NA,NA,NA,NA,NA,NA,NA,NA,NA,NA,NA,NA,NA
33320,task,flow.Sequence,5_0_1_0_0,NA,NA,completion,20901.18,651076,651075.58,651076.12,671977.3,671979,2024-06-26T17:54:39Z,671993.98,NULL,Entwicklung,maendeleo,d,NA,NA,NA,NA,sdfdsf,NA,1,NA,NA,NA,NA,NA,NA,NA,NA,NA,NA,NA,NA,NA,NA,NA,NA,NA,NA,NA
33320,Deep Question,html.Page,5_0_1_0_1_0_0,NA,NA,form submission,7320.02,671980,671977.3,671993.98,679314,679314,2024-06-26T17:54:47Z,679316.74,NULL,Vorwurf,mashtaka,d,NA,NA,NA,mashtaka,NA,NA,1,NA,NA,NA,NA,NA,NA,NA,NA,NA,NA,NA,NA,NA,NA,NA,NA,NA,NA,NA
33320,"""Richtig""-Screen",canvas.Screen,5_0_1_0_1_0_1,NA,NA,timeout,5004.16,679315,679311.14,679316.74,684304.22,684306,2024-06-26T17:54:52Z,684320.9,NULL,Vorwurf,mashtaka,d,NA,NA,NA,NA,sdfdsf,1,1,NA,NA,NA,NA,NA,NA,NA,NA,NA,NA,NA,NA,NA,NA,NA,NA,NA,NA,NA
33320,"""Falsch""-Screen",canvas.Screen,5_0_1_0_1_0_2,NA,NA,skipped,NA,684307,NA,NA,684304.22,684308,2024-06-26T17:54:52Z,684320.9,NULL,Vorwurf,mashtaka,d,NA,NA,NA,NA,sdfdsf,NA,1,NA,NA,NA,NA,NA,NA,NA,NA,NA,NA,NA,NA,NA,NA,NA,NA,NA,NA,NA
33320,deep,flow.Sequence,5_0_1_0_1_0,NA,NA,completion,12310.24,671980,671977.3,671993.98,684304.22,684308,2024-06-26T17:54:52Z,684320.9,NULL,Vorwurf,mashtaka,d,NA,NA,NA,NA,sdfdsf,NA,1,NA,NA,NA,NA,NA,NA,NA,NA,NA,NA,NA,NA,NA,NA,NA,NA,NA,NA,NA
33320,shallow,flow.Sequence,5_0_1_0_1_1,NA,NA,skipped,NA,684308,NA,NA,684304.22,684308,2024-06-26T17:54:52Z,684320.9,NULL,Vorwurf,mashtaka,d,NA,NA,NA,NA,sdfdsf,NA,1,NA,NA,NA,NA,NA,NA,NA,NA,NA,NA,NA,NA,NA,NA,NA,NA,NA,NA,NA
33320,task,flow.Sequence,5_0_1_0_1,NA,NA,completion,12310.24,671979,671977.3,671993.98,684304.22,684308,2024-06-26T17:54:52Z,684320.9,NULL,Vorwurf,mashtaka,d,NA,NA,NA,NA,sdfdsf,NA,1,NA,NA,NA,NA,NA,NA,NA,NA,NA,NA,NA,NA,NA,NA,NA,NA,NA,NA,NA
33320,Deep Question,html.Page,5_0_1_0_2_0_0,NA,NA,form submission,10369.1,684308,684304.22,684320.9,694690,694690,2024-06-26T17:55:02Z,694696.16,NULL,Spionage,upelelezi,d,NA,NA,NA,upilize,NA,NA,1,NA,NA,NA,NA,NA,NA,NA,NA,NA,NA,NA,NA,NA,NA,NA,NA,NA,NA,NA
33320,"""Richtig""-Screen",canvas.Screen,5_0_1_0_2_0_1,NA,NA,skipped,NA,694690,NA,NA,694690,694690,2024-06-26T17:55:02Z,694696.16,NULL,Spionage,upelelezi,d,NA,NA,NA,NA,sdfdsf,NA,1,NA,NA,NA,NA,NA,NA,NA,NA,NA,NA,NA,NA,NA,NA,NA,NA,NA,NA,NA
33320,"""Falsch""-Screen",canvas.Screen,5_0_1_0_2_0_2,NA,NA,timeout,5004.0599999999,694692,694686.38,694696.16,699683.54,699684,2024-06-26T17:55:07Z,699700.22,NULL,Spionage,upelelezi,d,NA,NA,NA,NA,sdfdsf,0,1,NA,NA,NA,NA,NA,NA,NA,NA,NA,NA,NA,NA,NA,NA,NA,NA,NA,NA,NA
33320,deep,flow.Sequence,5_0_1_0_2_0,NA,NA,completion,15362.64,684308,684304.22,684320.9,699683.54,699684,2024-06-26T17:55:07Z,699700.22,NULL,Spionage,upelelezi,d,NA,NA,NA,NA,sdfdsf,NA,1,NA,NA,NA,NA,NA,NA,NA,NA,NA,NA,NA,NA,NA,NA,NA,NA,NA,NA,NA
33320,shallow,flow.Sequence,5_0_1_0_2_1,NA,NA,skipped,NA,699684,NA,NA,699683.54,699684,2024-06-26T17:55:07Z,699700.22,NULL,Spionage,upelelezi,d,NA,NA,NA,NA,sdfdsf,NA,1,NA,NA,NA,NA,NA,NA,NA,NA,NA,NA,NA,NA,NA,NA,NA,NA,NA,NA,NA
33320,task,flow.Sequence,5_0_1_0_2,NA,NA,completion,15362.64,684308,684304.22,684320.9,699683.54,699685,2024-06-26T17:55:07Z,699700.22,NULL,Spionage,upelelezi,d,NA,NA,NA,NA,sdfdsf,NA,1,NA,NA,NA,NA,NA,NA,NA,NA,NA,NA,NA,NA,NA,NA,NA,NA,NA,NA,NA
33320,deep,flow.Sequence,5_0_1_0_3_0,NA,NA,skipped,NA,699685,NA,NA,699683.54,699685,2024-06-26T17:55:07Z,699700.22,NULL,Schüler,mwanafunzi,s,mwekezaji,matumizi,uaminifu,NA,sdfdsf,NA,1,NA,NA,NA,NA,NA,NA,NA,NA,NA,NA,NA,NA,NA,NA,NA,NA,NA,NA,NA
33320,Shallow Question,html.Page,5_0_1_0_3_1_0,NA,NA,form submission,5615.78,699685,699683.54,699700.22,705316,705317,2024-06-26T17:55:13Z,705321.6,NULL,Schüler,mwanafunzi,s,mwekezaji,matumizi,uaminifu,mwanafunzi,NA,NA,1,NA,NA,NA,NA,NA,NA,NA,NA,NA,NA,NA,NA,NA,NA,NA,NA,NA,NA,NA
33320,"""Richtig""-Screen",canvas.Screen,5_0_1_0_3_1_1,NA,NA,timeout,5004.12,705318,705313.76,705321.6,710309.02,710311,2024-06-26T17:55:18Z,710325.72,NULL,Schüler,mwanafunzi,s,mwekezaji,matumizi,uaminifu,NA,sdfdsf,1,1,NA,NA,NA,NA,NA,NA,NA,NA,NA,NA,NA,NA,NA,NA,NA,NA,NA,NA,NA
33320,"""Falsch""-Screen",canvas.Screen,5_0_1_0_3_1_2,NA,NA,skipped,NA,710313,NA,NA,710309.02,710313,2024-06-26T17:55:18Z,710325.72,NULL,Schüler,mwanafunzi,s,mwekezaji,matumizi,uaminifu,NA,sdfdsf,NA,1,NA,NA,NA,NA,NA,NA,NA,NA,NA,NA,NA,NA,NA,NA,NA,NA,NA,NA,NA
33320,shallow,flow.Sequence,5_0_1_0_3_1,NA,NA,completion,10608.8,699685,699683.54,699700.22,710309.02,710313,2024-06-26T17:55:18Z,710325.72,NULL,Schüler,mwanafunzi,s,mwekezaji,matumizi,uaminifu,NA,sdfdsf,NA,1,NA,NA,NA,NA,NA,NA,NA,NA,NA,NA,NA,NA,NA,NA,NA,NA,NA,NA,NA
33320,task,flow.Sequence,5_0_1_0_3,NA,NA,completion,10608.8,699685,699683.54,699700.22,710309.02,710313,2024-06-26T17:55:18Z,710325.72,NULL,Schüler,mwanafunzi,s,mwekezaji,matumizi,uaminifu,NA,sdfdsf,NA,1,NA,NA,NA,NA,NA,NA,NA,NA,NA,NA,NA,NA,NA,NA,NA,NA,NA,NA,NA
33320,deep,flow.Sequence,5_0_1_0_4_0,NA,NA,skipped,NA,710313,NA,NA,710309.02,710313,2024-06-26T17:55:18Z,710325.72,NULL,Tester,wanaojaribu,s,sherti,sihiri,mlipuko,NA,sdfdsf,NA,1,NA,NA,NA,NA,NA,NA,NA,NA,NA,NA,NA,NA,NA,NA,NA,NA,NA,NA,NA
33320,Shallow Question,html.Page,5_0_1_0_4_1_0,NA,NA,form submission,8618.28,710313,710309.02,710325.72,718944,718944,2024-06-26T17:55:26Z,718949.46,NULL,Tester,wanaojaribu,s,sherti,sihiri,mlipuko,wanaojaribu,NA,NA,1,NA,NA,NA,NA,NA,NA,NA,NA,NA,NA,NA,NA,NA,NA,NA,NA,NA,NA,NA
33320,"""Richtig""-Screen",canvas.Screen,5_0_1_0_4_1_1,NA,NA,timeout,5004.1800000001,718946,718941.94,718949.46,723936.96,723938,2024-06-26T17:55:31Z,723953.64,NULL,Tester,wanaojaribu,s,sherti,sihiri,mlipuko,NA,sdfdsf,1,1,NA,NA,NA,NA,NA,NA,NA,NA,NA,NA,NA,NA,NA,NA,NA,NA,NA,NA,NA
33320,"""Falsch""-Screen",canvas.Screen,5_0_1_0_4_1_2,NA,NA,skipped,NA,723939,NA,NA,723936.96,723939,2024-06-26T17:55:31Z,723953.64,NULL,Tester,wanaojaribu,s,sherti,sihiri,mlipuko,NA,sdfdsf,NA,1,NA,NA,NA,NA,NA,NA,NA,NA,NA,NA,NA,NA,NA,NA,NA,NA,NA,NA,NA
33320,shallow,flow.Sequence,5_0_1_0_4_1,NA,NA,completion,13611.24,710313,710309.02,710325.72,723936.96,723939,2024-06-26T17:55:31Z,723953.64,NULL,Tester,wanaojaribu,s,sherti,sihiri,mlipuko,NA,sdfdsf,NA,1,NA,NA,NA,NA,NA,NA,NA,NA,NA,NA,NA,NA,NA,NA,NA,NA,NA,NA,NA
33320,task,flow.Sequence,5_0_1_0_4,NA,NA,completion,13611.24,710313,710309.02,710325.72,723936.96,723939,2024-06-26T17:55:31Z,723953.64,NULL,Tester,wanaojaribu,s,sherti,sihiri,mlipuko,NA,sdfdsf,NA,1,NA,NA,NA,NA,NA,NA,NA,NA,NA,NA,NA,NA,NA,NA,NA,NA,NA,NA,NA
33320,deep,flow.Sequence,5_0_1_0_5_0,NA,NA,skipped,NA,723939,NA,NA,723936.96,723939,2024-06-26T17:55:31Z,723953.64,NULL,Niveau,kiwango,s,usimamizi,mwamali,mshairi,NA,sdfdsf,NA,1,NA,NA,NA,NA,NA,NA,NA,NA,NA,NA,NA,NA,NA,NA,NA,NA,NA,NA,NA
33320,Shallow Question,html.Page,5_0_1_0_5_1_0,NA,NA,form submission,8992.36,723939,723936.96,723953.64,732946,732947,2024-06-26T17:55:40Z,732944.36,NULL,Niveau,kiwango,s,usimamizi,mwamali,mshairi,mwamali,NA,NA,1,NA,NA,NA,NA,NA,NA,NA,NA,NA,NA,NA,NA,NA,NA,NA,NA,NA,NA,NA
33320,"""Richtig""-Screen",canvas.Screen,5_0_1_0_5_1_1,NA,NA,skipped,NA,732948,NA,NA,732946,732948,2024-06-26T17:55:40Z,732944.36,NULL,Niveau,kiwango,s,usimamizi,mwamali,mshairi,NA,sdfdsf,NA,1,NA,NA,NA,NA,NA,NA,NA,NA,NA,NA,NA,NA,NA,NA,NA,NA,NA,NA,NA
33320,"""Falsch""-Screen",canvas.Screen,5_0_1_0_5_1_2,NA,NA,timeout,5004.1800000001,732949,732944.1,732944.36,737931.84,737933,2024-06-26T17:55:45Z,737948.54,NULL,Niveau,kiwango,s,usimamizi,mwamali,mshairi,NA,sdfdsf,0,1,NA,NA,NA,NA,NA,NA,NA,NA,NA,NA,NA,NA,NA,NA,NA,NA,NA,NA,NA
33320,shallow,flow.Sequence,5_0_1_0_5_1,NA,NA,completion,13978.2,723939,723936.96,723953.64,737931.84,737933,2024-06-26T17:55:45Z,737948.54,NULL,Niveau,kiwango,s,usimamizi,mwamali,mshairi,NA,sdfdsf,NA,1,NA,NA,NA,NA,NA,NA,NA,NA,NA,NA,NA,NA,NA,NA,NA,NA,NA,NA,NA
33320,task,flow.Sequence,5_0_1_0_5,NA,NA,completion,13978.2,723939,723936.96,723953.64,737931.84,737933,2024-06-26T17:55:45Z,737948.54,NULL,Niveau,kiwango,s,usimamizi,mwamali,mshairi,NA,sdfdsf,NA,1,NA,NA,NA,NA,NA,NA,NA,NA,NA,NA,NA,NA,NA,NA,NA,NA,NA,NA,NA
33320,Deep Question,html.Page,5_0_1_0_6_0_0,NA,NA,form submission,4103.46,737934,737931.84,737948.54,742052,742052,2024-06-26T17:55:50Z,742051.98,NULL,Fenster,dirisha,d,NA,NA,NA,gnen,NA,NA,1,NA,NA,NA,NA,NA,NA,NA,NA,NA,NA,NA,NA,NA,NA,NA,NA,NA,NA,NA
33320,"""Richtig""-Screen",canvas.Screen,5_0_1_0_6_0_1,NA,NA,skipped,NA,742052,NA,NA,742052,742052,2024-06-26T17:55:50Z,742051.98,NULL,Fenster,dirisha,d,NA,NA,NA,NA,sdfdsf,NA,1,NA,NA,NA,NA,NA,NA,NA,NA,NA,NA,NA,NA,NA,NA,NA,NA,NA,NA,NA
33320,"""Falsch""-Screen",canvas.Screen,5_0_1_0_6_0_2,NA,NA,timeout,5004.12,742053,742048.88,742051.98,747039.42,747042,2024-06-26T17:55:55Z,747056.1,NULL,Fenster,dirisha,d,NA,NA,NA,NA,sdfdsf,0,1,NA,NA,NA,NA,NA,NA,NA,NA,NA,NA,NA,NA,NA,NA,NA,NA,NA,NA,NA
33320,deep,flow.Sequence,5_0_1_0_6_0,NA,NA,completion,9090.88,737933,737931.84,737948.54,747039.42,747043,2024-06-26T17:55:55Z,747056.1,NULL,Fenster,dirisha,d,NA,NA,NA,NA,sdfdsf,NA,1,NA,NA,NA,NA,NA,NA,NA,NA,NA,NA,NA,NA,NA,NA,NA,NA,NA,NA,NA
33320,shallow,flow.Sequence,5_0_1_0_6_1,NA,NA,skipped,NA,747043,NA,NA,747039.42,747043,2024-06-26T17:55:55Z,747056.1,NULL,Fenster,dirisha,d,NA,NA,NA,NA,sdfdsf,NA,1,NA,NA,NA,NA,NA,NA,NA,NA,NA,NA,NA,NA,NA,NA,NA,NA,NA,NA,NA
33320,task,flow.Sequence,5_0_1_0_6,NA,NA,completion,9090.88,737933,737931.84,737948.54,747039.42,747043,2024-06-26T17:55:55Z,747056.1,NULL,Fenster,dirisha,d,NA,NA,NA,NA,sdfdsf,NA,1,NA,NA,NA,NA,NA,NA,NA,NA,NA,NA,NA,NA,NA,NA,NA,NA,NA,NA,NA
33320,deep,flow.Sequence,5_0_1_0_7_0,NA,NA,skipped,NA,747044,NA,NA,747039.42,747044,2024-06-26T17:55:55Z,747056.1,NULL,Papier,karatasi,s,uchambuzi,usalama,kukataliwa,NA,sdfdsf,NA,1,NA,NA,NA,NA,NA,NA,NA,NA,NA,NA,NA,NA,NA,NA,NA,NA,NA,NA,NA
33320,Shallow Question,html.Page,5_0_1_0_7_1_0,NA,NA,form submission,3787.9,747044,747039.42,747056.1,750844,750844,2024-06-26T17:55:58Z,750842.56,NULL,Papier,karatasi,s,uchambuzi,usalama,kukataliwa,karatasi,NA,NA,1,NA,NA,NA,NA,NA,NA,NA,NA,NA,NA,NA,NA,NA,NA,NA,NA,NA,NA,NA
33320,"""Richtig""-Screen",canvas.Screen,5_0_1_0_7_1_1,NA,NA,timeout,5004.1599999999,750849,750839.72,750842.56,755830.04,755832,2024-06-26T17:56:03Z,755846.72,NULL,Papier,karatasi,s,uchambuzi,usalama,kukataliwa,NA,sdfdsf,1,1,NA,NA,NA,NA,NA,NA,NA,NA,NA,NA,NA,NA,NA,NA,NA,NA,NA,NA,NA
33320,"""Falsch""-Screen",canvas.Screen,5_0_1_0_7_1_2,NA,NA,skipped,NA,755834,NA,NA,755830.04,755834,2024-06-26T17:56:03Z,755846.72,NULL,Papier,karatasi,s,uchambuzi,usalama,kukataliwa,NA,sdfdsf,NA,1,NA,NA,NA,NA,NA,NA,NA,NA,NA,NA,NA,NA,NA,NA,NA,NA,NA,NA,NA
33320,shallow,flow.Sequence,5_0_1_0_7_1,NA,NA,completion,8773.9400000001,747044,747039.42,747056.1,755830.04,755834,2024-06-26T17:56:03Z,755846.72,NULL,Papier,karatasi,s,uchambuzi,usalama,kukataliwa,NA,sdfdsf,NA,1,NA,NA,NA,NA,NA,NA,NA,NA,NA,NA,NA,NA,NA,NA,NA,NA,NA,NA,NA
33320,task,flow.Sequence,5_0_1_0_7,NA,NA,completion,8773.9400000001,747044,747039.42,747056.1,755830.04,755835,2024-06-26T17:56:03Z,755846.72,NULL,Papier,karatasi,s,uchambuzi,usalama,kukataliwa,NA,sdfdsf,NA,1,NA,NA,NA,NA,NA,NA,NA,NA,NA,NA,NA,NA,NA,NA,NA,NA,NA,NA,NA
33320,block,flow.Loop,5_0_1_0,NA,NA,completion,104753.92,651076,651075.58,651076.12,755830.04,755835,2024-06-26T17:56:03Z,755846.72,NULL,NA,NA,NA,NA,NA,NA,NA,sdfdsf,NA,1,NA,NA,NA,NA,NA,NA,NA,NA,NA,NA,NA,NA,NA,NA,NA,NA,NA,NA,NA
33320,weiter,canvas.Screen,5_0_1_1,sdf,keypress(Space),response,12782.28,755835,755830.04,755846.72,768629,768644,2024-06-26T17:56:16Z,768674.32,NULL,NA,NA,NA,NA,NA,NA,NA,sdfdsf,NA,1,NA,NA,NA,NA,NA,NA,NA,NA,NA,NA,NA,NA,NA,NA,NA,NA,NA,NA,NA
33320,check continue,flow.Sequence,5_0_1,NA,NA,completion,117552.88,651076,651075.58,651076.12,768629,768644,2024-06-26T17:56:16Z,768674.32,NULL,NA,NA,NA,NA,NA,NA,NA,sdfdsf,NA,1,NA,NA,NA,NA,NA,NA,NA,NA,NA,NA,NA,NA,NA,NA,NA,NA,NA,NA,NA
33320,deep,flow.Sequence,5_0_2_0_0_0,NA,NA,skipped,NA,768673,NA,NA,768629,768674,2024-06-26T17:56:16Z,768674.32,NULL,Schüler,mwanafunzi,s,mwekezaji,matumizi,uaminifu,NA,sdf,NA,2,NA,NA,NA,NA,NA,NA,NA,NA,NA,NA,NA,NA,NA,NA,NA,NA,NA,NA,NA
33320,Shallow Question,html.Page,5_0_2_0_0_1_0,NA,NA,form submission,22247.68,768674,768673.88,768674.32,790922,790922,2024-06-26T17:56:38Z,790925.7,NULL,Schüler,mwanafunzi,s,mwekezaji,matumizi,uaminifu,mwanafunzi,NA,NA,2,NA,NA,NA,NA,NA,NA,NA,NA,NA,NA,NA,NA,NA,NA,NA,NA,NA,NA,NA
33320,"""Richtig""-Screen",canvas.Screen,5_0_2_0_0_1_1,NA,NA,timeout,5004.12,790924,790919.58,790925.7,795913.14,795914,2024-06-26T17:56:43Z,795929.82,NULL,Schüler,mwanafunzi,s,mwekezaji,matumizi,uaminifu,NA,sdf,1,2,NA,NA,NA,NA,NA,NA,NA,NA,NA,NA,NA,NA,NA,NA,NA,NA,NA,NA,NA
33320,"""Falsch""-Screen",canvas.Screen,5_0_2_0_0_1_2,NA,NA,skipped,NA,795916,NA,NA,795913.14,795916,2024-06-26T17:56:43Z,795929.82,NULL,Schüler,mwanafunzi,s,mwekezaji,matumizi,uaminifu,NA,sdf,NA,2,NA,NA,NA,NA,NA,NA,NA,NA,NA,NA,NA,NA,NA,NA,NA,NA,NA,NA,NA
33320,shallow,flow.Sequence,5_0_2_0_0_1,NA,NA,completion,27238.82,768674,768673.88,768674.32,795913.14,795917,2024-06-26T17:56:43Z,795929.82,NULL,Schüler,mwanafunzi,s,mwekezaji,matumizi,uaminifu,NA,sdf,NA,2,NA,NA,NA,NA,NA,NA,NA,NA,NA,NA,NA,NA,NA,NA,NA,NA,NA,NA,NA
33320,task,flow.Sequence,5_0_2_0_0,NA,NA,completion,27238.82,768673,768673.88,768674.32,795913.14,795917,2024-06-26T17:56:43Z,795929.82,NULL,Schüler,mwanafunzi,s,mwekezaji,matumizi,uaminifu,NA,sdf,NA,2,NA,NA,NA,NA,NA,NA,NA,NA,NA,NA,NA,NA,NA,NA,NA,NA,NA,NA,NA
33320,deep,flow.Sequence,5_0_2_0_1_0,NA,NA,skipped,NA,795917,NA,NA,795913.14,795917,2024-06-26T17:56:43Z,795929.82,NULL,Papier,karatasi,s,uchambuzi,usalama,kukataliwa,NA,sdf,NA,2,NA,NA,NA,NA,NA,NA,NA,NA,NA,NA,NA,NA,NA,NA,NA,NA,NA,NA,NA
33320,Shallow Question,html.Page,5_0_2_0_1_1_0,NA,NA,form submission,3895.1800000001,795917,795913.14,795929.82,799825,799826,2024-06-26T17:56:47Z,799833.14,NULL,Papier,karatasi,s,uchambuzi,usalama,kukataliwa,karatasi,NA,NA,2,NA,NA,NA,NA,NA,NA,NA,NA,NA,NA,NA,NA,NA,NA,NA,NA,NA,NA,NA
33320,"""Richtig""-Screen",canvas.Screen,5_0_2_0_1_1_1,NA,NA,timeout,5004.08,799826,799822.6,799833.14,804820.54,804823,2024-06-26T17:56:52Z,804837.22,NULL,Papier,karatasi,s,uchambuzi,usalama,kukataliwa,NA,sdf,1,2,NA,NA,NA,NA,NA,NA,NA,NA,NA,NA,NA,NA,NA,NA,NA,NA,NA,NA,NA
33320,"""Falsch""-Screen",canvas.Screen,5_0_2_0_1_1_2,NA,NA,skipped,NA,804829,NA,NA,804820.54,804829,2024-06-26T17:56:52Z,804837.22,NULL,Papier,karatasi,s,uchambuzi,usalama,kukataliwa,NA,sdf,NA,2,NA,NA,NA,NA,NA,NA,NA,NA,NA,NA,NA,NA,NA,NA,NA,NA,NA,NA,NA
33320,shallow,flow.Sequence,5_0_2_0_1_1,NA,NA,completion,8890.7200000001,795917,795913.14,795929.82,804820.54,804830,2024-06-26T17:56:52Z,804837.22,NULL,Papier,karatasi,s,uchambuzi,usalama,kukataliwa,NA,sdf,NA,2,NA,NA,NA,NA,NA,NA,NA,NA,NA,NA,NA,NA,NA,NA,NA,NA,NA,NA,NA
33320,task,flow.Sequence,5_0_2_0_1,NA,NA,completion,8890.7200000001,795917,795913.14,795929.82,804820.54,804830,2024-06-26T17:56:52Z,804837.22,NULL,Papier,karatasi,s,uchambuzi,usalama,kukataliwa,NA,sdf,NA,2,NA,NA,NA,NA,NA,NA,NA,NA,NA,NA,NA,NA,NA,NA,NA,NA,NA,NA,NA
33320,Deep Question,html.Page,5_0_2_0_2_0_0,NA,NA,form submission,7280.78,804830,804820.54,804837.22,812118,812119,2024-06-26T17:57:00Z,812126.56,NULL,Fenster,dirisha,d,NA,NA,NA,dirisha,NA,NA,2,NA,NA,NA,NA,NA,NA,NA,NA,NA,NA,NA,NA,NA,NA,NA,NA,NA,NA,NA
33320,"""Richtig""-Screen",canvas.Screen,5_0_2_0_2_0_1,NA,NA,timeout,5004.12,812121,812115.16,812126.56,817113.98,817116,2024-06-26T17:57:05Z,817130.68,NULL,Fenster,dirisha,d,NA,NA,NA,NA,sdf,1,2,NA,NA,NA,NA,NA,NA,NA,NA,NA,NA,NA,NA,NA,NA,NA,NA,NA,NA,NA
33320,"""Falsch""-Screen",canvas.Screen,5_0_2_0_2_0_2,NA,NA,skipped,NA,817117,NA,NA,817113.98,817117,2024-06-26T17:57:05Z,817130.68,NULL,Fenster,dirisha,d,NA,NA,NA,NA,sdf,NA,2,NA,NA,NA,NA,NA,NA,NA,NA,NA,NA,NA,NA,NA,NA,NA,NA,NA,NA,NA
33320,deep,flow.Sequence,5_0_2_0_2_0,NA,NA,completion,12276.76,804830,804820.54,804837.22,817113.98,817117,2024-06-26T17:57:05Z,817130.68,NULL,Fenster,dirisha,d,NA,NA,NA,NA,sdf,NA,2,NA,NA,NA,NA,NA,NA,NA,NA,NA,NA,NA,NA,NA,NA,NA,NA,NA,NA,NA
33320,shallow,flow.Sequence,5_0_2_0_2_1,NA,NA,skipped,NA,817118,NA,NA,817113.98,817118,2024-06-26T17:57:05Z,817130.68,NULL,Fenster,dirisha,d,NA,NA,NA,NA,sdf,NA,2,NA,NA,NA,NA,NA,NA,NA,NA,NA,NA,NA,NA,NA,NA,NA,NA,NA,NA,NA
33320,task,flow.Sequence,5_0_2_0_2,NA,NA,completion,12276.76,804830,804820.54,804837.22,817113.98,817118,2024-06-26T17:57:05Z,817130.68,NULL,Fenster,dirisha,d,NA,NA,NA,NA,sdf,NA,2,NA,NA,NA,NA,NA,NA,NA,NA,NA,NA,NA,NA,NA,NA,NA,NA,NA,NA,NA
33320,Deep Question,html.Page,5_0_2_0_3_0_0,NA,NA,form submission,11765.32,817118,817113.98,817130.68,828896,828896,2024-06-26T17:57:16Z,828907.14,NULL,Entwicklung,maendeleo,d,NA,NA,NA,maendelo,NA,NA,2,NA,NA,NA,NA,NA,NA,NA,NA,NA,NA,NA,NA,NA,NA,NA,NA,NA,NA,NA
33320,"""Richtig""-Screen",canvas.Screen,5_0_2_0_3_0_1,NA,NA,skipped,NA,828897,NA,NA,828896,828897,2024-06-26T17:57:16Z,828907.14,NULL,Entwicklung,maendeleo,d,NA,NA,NA,NA,sdf,NA,2,NA,NA,NA,NA,NA,NA,NA,NA,NA,NA,NA,NA,NA,NA,NA,NA,NA,NA,NA
33320,"""Falsch""-Screen",canvas.Screen,5_0_2_0_3_0_2,NA,NA,timeout,5004.08,828899,828893.28,828907.14,833894.54,833896,2024-06-26T17:57:21Z,833911.22,NULL,Entwicklung,maendeleo,d,NA,NA,NA,NA,sdf,0,2,NA,NA,NA,NA,NA,NA,NA,NA,NA,NA,NA,NA,NA,NA,NA,NA,NA,NA,NA
33320,deep,flow.Sequence,5_0_2_0_3_0,NA,NA,completion,16763.86,817118,817113.98,817130.68,833894.54,833896,2024-06-26T17:57:21Z,833911.22,NULL,Entwicklung,maendeleo,d,NA,NA,NA,NA,sdf,NA,2,NA,NA,NA,NA,NA,NA,NA,NA,NA,NA,NA,NA,NA,NA,NA,NA,NA,NA,NA
33320,shallow,flow.Sequence,5_0_2_0_3_1,NA,NA,skipped,NA,833897,NA,NA,833894.54,833897,2024-06-26T17:57:21Z,833911.22,NULL,Entwicklung,maendeleo,d,NA,NA,NA,NA,sdf,NA,2,NA,NA,NA,NA,NA,NA,NA,NA,NA,NA,NA,NA,NA,NA,NA,NA,NA,NA,NA
33320,task,flow.Sequence,5_0_2_0_3,NA,NA,completion,16763.86,817118,817113.98,817130.68,833894.54,833897,2024-06-26T17:57:21Z,833911.22,NULL,Entwicklung,maendeleo,d,NA,NA,NA,NA,sdf,NA,2,NA,NA,NA,NA,NA,NA,NA,NA,NA,NA,NA,NA,NA,NA,NA,NA,NA,NA,NA
33320,Deep Question,html.Page,5_0_2_0_4_0_0,NA,NA,form submission,9676.78,833897,833894.54,833911.22,843588,843588,2024-06-26T17:57:31Z,843585.88,NULL,Spionage,upelelezi,d,NA,NA,NA,upelezi,NA,NA,2,NA,NA,NA,NA,NA,NA,NA,NA,NA,NA,NA,NA,NA,NA,NA,NA,NA,NA,NA
33320,"""Richtig""-Screen",canvas.Screen,5_0_2_0_4_0_1,NA,NA,skipped,NA,843589,NA,NA,843588,843589,2024-06-26T17:57:31Z,843585.88,NULL,Spionage,upelelezi,d,NA,NA,NA,NA,sdf,NA,2,NA,NA,NA,NA,NA,NA,NA,NA,NA,NA,NA,NA,NA,NA,NA,NA,NA,NA,NA
33320,"""Falsch""-Screen",canvas.Screen,5_0_2_0_4_0_2,NA,NA,timeout,5004.16,843590,843585.46,843585.88,848573.36,848574,2024-06-26T17:57:36Z,848590.04,NULL,Spionage,upelelezi,d,NA,NA,NA,NA,sdf,0,2,NA,NA,NA,NA,NA,NA,NA,NA,NA,NA,NA,NA,NA,NA,NA,NA,NA,NA,NA
33320,deep,flow.Sequence,5_0_2_0_4_0,NA,NA,completion,14662.14,833897,833894.54,833911.22,848573.36,848575,2024-06-26T17:57:36Z,848590.04,NULL,Spionage,upelelezi,d,NA,NA,NA,NA,sdf,NA,2,NA,NA,NA,NA,NA,NA,NA,NA,NA,NA,NA,NA,NA,NA,NA,NA,NA,NA,NA
33320,shallow,flow.Sequence,5_0_2_0_4_1,NA,NA,skipped,NA,848575,NA,NA,848573.36,848575,2024-06-26T17:57:36Z,848590.04,NULL,Spionage,upelelezi,d,NA,NA,NA,NA,sdf,NA,2,NA,NA,NA,NA,NA,NA,NA,NA,NA,NA,NA,NA,NA,NA,NA,NA,NA,NA,NA
33320,task,flow.Sequence,5_0_2_0_4,NA,NA,completion,14662.14,833897,833894.54,833911.22,848573.36,848575,2024-06-26T17:57:36Z,848590.04,NULL,Spionage,upelelezi,d,NA,NA,NA,NA,sdf,NA,2,NA,NA,NA,NA,NA,NA,NA,NA,NA,NA,NA,NA,NA,NA,NA,NA,NA,NA,NA
33320,deep,flow.Sequence,5_0_2_0_5_0,NA,NA,skipped,NA,848575,NA,NA,848573.36,848575,2024-06-26T17:57:36Z,848590.04,NULL,Niveau,kiwango,s,usimamizi,mwamali,mshairi,NA,sdf,NA,2,NA,NA,NA,NA,NA,NA,NA,NA,NA,NA,NA,NA,NA,NA,NA,NA,NA,NA,NA
33320,Shallow Question,html.Page,5_0_2_0_5_1_0,NA,NA,form submission,3742.96,848575,848573.36,848590.04,852333,852333,2024-06-26T17:57:40Z,852343.18,NULL,Niveau,kiwango,s,usimamizi,mwamali,mshairi,kiwango,NA,NA,2,NA,NA,NA,NA,NA,NA,NA,NA,NA,NA,NA,NA,NA,NA,NA,NA,NA,NA,NA
33320,"""Richtig""-Screen",canvas.Screen,5_0_2_0_5_1_1,NA,NA,timeout,5004.0599999999,852334,852330.28,852343.18,857330.56,857331,2024-06-26T17:57:45Z,857347.24,NULL,Niveau,kiwango,s,usimamizi,mwamali,mshairi,NA,sdf,1,2,NA,NA,NA,NA,NA,NA,NA,NA,NA,NA,NA,NA,NA,NA,NA,NA,NA,NA,NA
33320,"""Falsch""-Screen",canvas.Screen,5_0_2_0_5_1_2,NA,NA,skipped,NA,857334,NA,NA,857330.56,857334,2024-06-26T17:57:45Z,857347.24,NULL,Niveau,kiwango,s,usimamizi,mwamali,mshairi,NA,sdf,NA,2,NA,NA,NA,NA,NA,NA,NA,NA,NA,NA,NA,NA,NA,NA,NA,NA,NA,NA,NA
33320,shallow,flow.Sequence,5_0_2_0_5_1,NA,NA,completion,8740.52,848575,848573.36,848590.04,857330.56,857334,2024-06-26T17:57:45Z,857347.24,NULL,Niveau,kiwango,s,usimamizi,mwamali,mshairi,NA,sdf,NA,2,NA,NA,NA,NA,NA,NA,NA,NA,NA,NA,NA,NA,NA,NA,NA,NA,NA,NA,NA
33320,task,flow.Sequence,5_0_2_0_5,NA,NA,completion,8740.52,848575,848573.36,848590.04,857330.56,857334,2024-06-26T17:57:45Z,857347.24,NULL,Niveau,kiwango,s,usimamizi,mwamali,mshairi,NA,sdf,NA,2,NA,NA,NA,NA,NA,NA,NA,NA,NA,NA,NA,NA,NA,NA,NA,NA,NA,NA,NA
33320,Deep Question,html.Page,5_0_2_0_6_0_0,NA,NA,form submission,8162.76,857334,857330.56,857347.24,865510,865510,2024-06-26T17:57:53Z,865520.72,NULL,Vorwurf,mashtaka,d,NA,NA,NA,mashtaka,NA,NA,2,NA,NA,NA,NA,NA,NA,NA,NA,NA,NA,NA,NA,NA,NA,NA,NA,NA,NA,NA
33320,"""Richtig""-Screen",canvas.Screen,5_0_2_0_6_0_1,NA,NA,timeout,5004.24,865511,865508.08,865520.72,870508.28,870509,2024-06-26T17:57:58Z,870524.96,NULL,Vorwurf,mashtaka,d,NA,NA,NA,NA,sdf,1,2,NA,NA,NA,NA,NA,NA,NA,NA,NA,NA,NA,NA,NA,NA,NA,NA,NA,NA,NA
33320,"""Falsch""-Screen",canvas.Screen,5_0_2_0_6_0_2,NA,NA,skipped,NA,870511,NA,NA,870508.28,870511,2024-06-26T17:57:58Z,870524.96,NULL,Vorwurf,mashtaka,d,NA,NA,NA,NA,sdf,NA,2,NA,NA,NA,NA,NA,NA,NA,NA,NA,NA,NA,NA,NA,NA,NA,NA,NA,NA,NA
33320,deep,flow.Sequence,5_0_2_0_6_0,NA,NA,completion,13161.04,857334,857330.56,857347.24,870508.28,870511,2024-06-26T17:57:58Z,870524.96,NULL,Vorwurf,mashtaka,d,NA,NA,NA,NA,sdf,NA,2,NA,NA,NA,NA,NA,NA,NA,NA,NA,NA,NA,NA,NA,NA,NA,NA,NA,NA,NA
33320,shallow,flow.Sequence,5_0_2_0_6_1,NA,NA,skipped,NA,870511,NA,NA,870508.28,870511,2024-06-26T17:57:58Z,870524.96,NULL,Vorwurf,mashtaka,d,NA,NA,NA,NA,sdf,NA,2,NA,NA,NA,NA,NA,NA,NA,NA,NA,NA,NA,NA,NA,NA,NA,NA,NA,NA,NA
33320,task,flow.Sequence,5_0_2_0_6,NA,NA,completion,13161.04,857334,857330.56,857347.24,870508.28,870511,2024-06-26T17:57:58Z,870524.96,NULL,Vorwurf,mashtaka,d,NA,NA,NA,NA,sdf,NA,2,NA,NA,NA,NA,NA,NA,NA,NA,NA,NA,NA,NA,NA,NA,NA,NA,NA,NA,NA
33320,deep,flow.Sequence,5_0_2_0_7_0,NA,NA,skipped,NA,870512,NA,NA,870508.28,870512,2024-06-26T17:57:58Z,870524.96,NULL,Tester,wanaojaribu,s,sherti,sihiri,mlipuko,NA,sdf,NA,2,NA,NA,NA,NA,NA,NA,NA,NA,NA,NA,NA,NA,NA,NA,NA,NA,NA,NA,NA
33320,Shallow Question,html.Page,5_0_2_0_7_1_0,NA,NA,form submission,2657.04,870512,870508.28,870524.96,873182,873183,2024-06-26T17:58:01Z,873193.74,NULL,Tester,wanaojaribu,s,sherti,sihiri,mlipuko,wanaojaribu,NA,NA,2,NA,NA,NA,NA,NA,NA,NA,NA,NA,NA,NA,NA,NA,NA,NA,NA,NA,NA,NA
33320,"""Richtig""-Screen",canvas.Screen,5_0_2_0_7_1_1,NA,NA,timeout,5004.12,873184,873180.28,873193.74,878181.16,878182,2024-06-26T17:58:06Z,878197.86,NULL,Tester,wanaojaribu,s,sherti,sihiri,mlipuko,NA,sdf,1,2,NA,NA,NA,NA,NA,NA,NA,NA,NA,NA,NA,NA,NA,NA,NA,NA,NA,NA,NA
33320,"""Falsch""-Screen",canvas.Screen,5_0_2_0_7_1_2,NA,NA,skipped,NA,878184,NA,NA,878181.16,878184,2024-06-26T17:58:06Z,878197.86,NULL,Tester,wanaojaribu,s,sherti,sihiri,mlipuko,NA,sdf,NA,2,NA,NA,NA,NA,NA,NA,NA,NA,NA,NA,NA,NA,NA,NA,NA,NA,NA,NA,NA
33320,shallow,flow.Sequence,5_0_2_0_7_1,NA,NA,completion,7656.2000000001,870512,870508.28,870524.96,878181.16,878184,2024-06-26T17:58:06Z,878197.86,NULL,Tester,wanaojaribu,s,sherti,sihiri,mlipuko,NA,sdf,NA,2,NA,NA,NA,NA,NA,NA,NA,NA,NA,NA,NA,NA,NA,NA,NA,NA,NA,NA,NA
33320,task,flow.Sequence,5_0_2_0_7,NA,NA,completion,7656.2000000001,870512,870508.28,870524.96,878181.16,878184,2024-06-26T17:58:06Z,878197.86,NULL,Tester,wanaojaribu,s,sherti,sihiri,mlipuko,NA,sdf,NA,2,NA,NA,NA,NA,NA,NA,NA,NA,NA,NA,NA,NA,NA,NA,NA,NA,NA,NA,NA
33320,block,flow.Loop,5_0_2_0,NA,NA,completion,109506.84,768673,768673.88,768674.32,878181.16,878185,2024-06-26T17:58:06Z,878197.86,NULL,NA,NA,NA,NA,NA,NA,NA,sdf,NA,2,NA,NA,NA,NA,NA,NA,NA,NA,NA,NA,NA,NA,NA,NA,NA,NA,NA,NA,NA
33320,weiter,canvas.Screen,5_0_2_1,sdf,keypress(Space),response,1353.14,878185,878181.16,878197.86,879551,879563,2024-06-26T17:58:07Z,879939.68,NULL,NA,NA,NA,NA,NA,NA,NA,sdf,NA,2,NA,NA,NA,NA,NA,NA,NA,NA,NA,NA,NA,NA,NA,NA,NA,NA,NA,NA,NA
33320,check continue,flow.Sequence,5_0_2,NA,NA,completion,110876.68,768673,768673.88,768674.32,879551,879564,2024-06-26T17:58:07Z,879939.68,NULL,NA,NA,NA,NA,NA,NA,NA,sdf,NA,2,NA,NA,NA,NA,NA,NA,NA,NA,NA,NA,NA,NA,NA,NA,NA,NA,NA,NA,NA
33320,check continue,flow.Sequence,5_0_3,NA,NA,skipped,NA,879594,NA,NA,879551,879594,2024-06-26T17:58:07Z,879939.68,NULL,NA,NA,NA,NA,NA,NA,NA,qt,NA,3,NA,NA,NA,NA,NA,NA,NA,NA,NA,NA,NA,NA,NA,NA,NA,NA,NA,NA,NA
33320,check continue,flow.Sequence,5_0_4,NA,NA,skipped,NA,879608,NA,NA,879551,879608,2024-06-26T17:58:07Z,879939.68,NULL,NA,NA,NA,NA,NA,NA,NA,sd,NA,4,NA,NA,NA,NA,NA,NA,NA,NA,NA,NA,NA,NA,NA,NA,NA,NA,NA,NA,NA
33320,check continue,flow.Sequence,5_0_5,NA,NA,skipped,NA,879622,NA,NA,879551,879622,2024-06-26T17:58:07Z,879939.68,NULL,NA,NA,NA,NA,NA,NA,NA,sdf,NA,5,NA,NA,NA,NA,NA,NA,NA,NA,NA,NA,NA,NA,NA,NA,NA,NA,NA,NA,NA
33320,check continue,flow.Sequence,5_0_6,NA,NA,skipped,NA,879635,NA,NA,879551,879635,2024-06-26T17:58:07Z,879939.68,NULL,NA,NA,NA,NA,NA,NA,NA,dfs,NA,6,NA,NA,NA,NA,NA,NA,NA,NA,NA,NA,NA,NA,NA,NA,NA,NA,NA,NA,NA
33320,check continue,flow.Sequence,5_0_7,NA,NA,skipped,NA,879650,NA,NA,879551,879650,2024-06-26T17:58:07Z,879939.68,NULL,NA,NA,NA,NA,NA,NA,NA,df,NA,7,NA,NA,NA,NA,NA,NA,NA,NA,NA,NA,NA,NA,NA,NA,NA,NA,NA,NA,NA
33320,check continue,flow.Sequence,5_0_8,NA,NA,skipped,NA,879662,NA,NA,879551,879662,2024-06-26T17:58:07Z,879939.68,NULL,NA,NA,NA,NA,NA,NA,NA,dfs,NA,8,NA,NA,NA,NA,NA,NA,NA,NA,NA,NA,NA,NA,NA,NA,NA,NA,NA,NA,NA
33320,check continue,flow.Sequence,5_0_9,NA,NA,skipped,NA,879676,NA,NA,879551,879676,2024-06-26T17:58:07Z,879939.68,NULL,NA,NA,NA,NA,NA,NA,NA,dsf,NA,9,NA,NA,NA,NA,NA,NA,NA,NA,NA,NA,NA,NA,NA,NA,NA,NA,NA,NA,NA
33320,check continue,flow.Sequence,5_0_10,NA,NA,skipped,NA,879690,NA,NA,879551,879690,2024-06-26T17:58:07Z,879939.68,NULL,NA,NA,NA,NA,NA,NA,NA,df,NA,10,NA,NA,NA,NA,NA,NA,NA,NA,NA,NA,NA,NA,NA,NA,NA,NA,NA,NA,NA
33320,check continue,flow.Sequence,5_0_11,NA,NA,skipped,NA,879703,NA,NA,879551,879703,2024-06-26T17:58:07Z,879939.68,NULL,NA,NA,NA,NA,NA,NA,NA,dfs,NA,11,NA,NA,NA,NA,NA,NA,NA,NA,NA,NA,NA,NA,NA,NA,NA,NA,NA,NA,NA
33320,check continue,flow.Sequence,5_0_12,NA,NA,skipped,NA,879723,NA,NA,879551,879723,2024-06-26T17:58:07Z,879939.68,NULL,NA,NA,NA,NA,NA,NA,NA,dsf,NA,12,NA,NA,NA,NA,NA,NA,NA,NA,NA,NA,NA,NA,NA,NA,NA,NA,NA,NA,NA
33320,check continue,flow.Sequence,5_0_13,NA,NA,skipped,NA,879735,NA,NA,879551,879735,2024-06-26T17:58:07Z,879939.68,NULL,NA,NA,NA,NA,NA,NA,NA,dsf,NA,13,NA,NA,NA,NA,NA,NA,NA,NA,NA,NA,NA,NA,NA,NA,NA,NA,NA,NA,NA
33320,check continue,flow.Sequence,5_0_14,NA,NA,skipped,NA,879748,NA,NA,879551,879748,2024-06-26T17:58:07Z,879939.68,NULL,NA,NA,NA,NA,NA,NA,NA,NA,NA,14,NA,NA,NA,NA,NA,NA,NA,NA,NA,NA,NA,NA,NA,NA,NA,NA,NA,NA,NA
33320,check continue,flow.Sequence,5_0_15,NA,NA,skipped,NA,879761,NA,NA,879551,879761,2024-06-26T17:58:07Z,879939.68,NULL,NA,NA,NA,NA,NA,NA,NA,NA,NA,15,NA,NA,NA,NA,NA,NA,NA,NA,NA,NA,NA,NA,NA,NA,NA,NA,NA,NA,NA
33320,check continue,flow.Sequence,5_0_16,NA,NA,skipped,NA,879779,NA,NA,879551,879779,2024-06-26T17:58:07Z,879939.68,NULL,NA,NA,NA,NA,NA,NA,NA,NA,NA,16,NA,NA,NA,NA,NA,NA,NA,NA,NA,NA,NA,NA,NA,NA,NA,NA,NA,NA,NA
33320,check continue,flow.Sequence,5_0_17,NA,NA,skipped,NA,879791,NA,NA,879551,879791,2024-06-26T17:58:07Z,879939.68,NULL,NA,NA,NA,NA,NA,NA,NA,NA,NA,17,NA,NA,NA,NA,NA,NA,NA,NA,NA,NA,NA,NA,NA,NA,NA,NA,NA,NA,NA
33320,check continue,flow.Sequence,5_0_18,NA,NA,skipped,NA,879803,NA,NA,879551,879803,2024-06-26T17:58:07Z,879939.68,NULL,NA,NA,NA,NA,NA,NA,NA,NA,NA,18,NA,NA,NA,NA,NA,NA,NA,NA,NA,NA,NA,NA,NA,NA,NA,NA,NA,NA,NA
33320,check continue,flow.Sequence,5_0_19,NA,NA,skipped,NA,879814,NA,NA,879551,879814,2024-06-26T17:58:07Z,879939.68,NULL,NA,NA,NA,NA,NA,NA,NA,NA,NA,19,NA,NA,NA,NA,NA,NA,NA,NA,NA,NA,NA,NA,NA,NA,NA,NA,NA,NA,NA
33320,check continue,flow.Sequence,5_0_20,NA,NA,skipped,NA,879826,NA,NA,879551,879826,2024-06-26T17:58:07Z,879939.68,NULL,NA,NA,NA,NA,NA,NA,NA,NA,NA,20,NA,NA,NA,NA,NA,NA,NA,NA,NA,NA,NA,NA,NA,NA,NA,NA,NA,NA,NA
33320,check continue,flow.Sequence,5_0_21,NA,NA,skipped,NA,879843,NA,NA,879551,879843,2024-06-26T17:58:07Z,879939.68,NULL,NA,NA,NA,NA,NA,NA,NA,NA,NA,21,NA,NA,NA,NA,NA,NA,NA,NA,NA,NA,NA,NA,NA,NA,NA,NA,NA,NA,NA
33320,check continue,flow.Sequence,5_0_22,NA,NA,skipped,NA,879855,NA,NA,879551,879855,2024-06-26T17:58:07Z,879939.68,NULL,NA,NA,NA,NA,NA,NA,NA,NA,NA,22,NA,NA,NA,NA,NA,NA,NA,NA,NA,NA,NA,NA,NA,NA,NA,NA,NA,NA,NA
33320,check continue,flow.Sequence,5_0_23,NA,NA,skipped,NA,879866,NA,NA,879551,879866,2024-06-26T17:58:07Z,879939.68,NULL,NA,NA,NA,NA,NA,NA,NA,NA,NA,23,NA,NA,NA,NA,NA,NA,NA,NA,NA,NA,NA,NA,NA,NA,NA,NA,NA,NA,NA
33320,check continue,flow.Sequence,5_0_24,NA,NA,skipped,NA,879877,NA,NA,879551,879877,2024-06-26T17:58:07Z,879939.68,NULL,NA,NA,NA,NA,NA,NA,NA,NA,NA,24,NA,NA,NA,NA,NA,NA,NA,NA,NA,NA,NA,NA,NA,NA,NA,NA,NA,NA,NA
33320,check continue,flow.Sequence,5_0_25,NA,NA,skipped,NA,879889,NA,NA,879551,879889,2024-06-26T17:58:07Z,879939.68,NULL,NA,NA,NA,NA,NA,NA,NA,NA,NA,25,NA,NA,NA,NA,NA,NA,NA,NA,NA,NA,NA,NA,NA,NA,NA,NA,NA,NA,NA
