observation,sender,sender_type,sender_id,response,response_action,ended_on,duration,time_run,time_render,time_show,time_end,time_commit,timestamp,time_switch,distractors,german,swahili,enc,distractor1,distractor2,distractor3,response_2,x,correct,x_2,url_vp,url_sess,meta_labjs_version,meta_location,meta_user_agent,meta_platform,meta_language,meta_locale,meta_time_zone,meta_timezone_offset,meta_screen_width,meta_screen_height,meta_scroll_width,meta_scroll_height,meta_window_inner_width,meta_window_inner_height,meta_device_pixel_ratio,meta_labjs_build_flavor,meta_labjs_build_commit
c82e5,Introduction general,canvas.Screen,0,weiter,keypress(q),response,81326.6,902,906.72,923.4,82250,82303,2024-05-25T18:51:29Z,82304,NULL,NA,NA,NA,NA,NA,NA,NA,NA,NA,NA,162,1,20.2.4,https://neurocog.fernuni.ch/studies/vweber/jbaenninger/encoding_immediate/index.html?vp=162&sess=1,Mozilla/5.0 (Windows NT 10.0; Win64; x64; rv:126.0) Gecko/20100101 Firefox/126.0,Win32,de,de-CH,Europe/Zurich,-120,1280,800,1280,619,1280,667,1.5,production,f5b4a49f956347addd546a832a3327688c2c0fef
c82e5,Introduction practice,canvas.Screen,1_0,NA,keypress(Space),response,7165,82304,82303.7,82304,89469,89552,2024-05-25T18:51:36Z,89553.22,NULL,NA,NA,NA,NA,NA,NA,NA,NA,NA,NA,NA,NA,NA,NA,NA,NA,NA,NA,NA,NA,NA,NA,NA,NA,NA,NA,NA,NA,NA
c82e5,Deep Question,html.Page,1_1_0_0_0,NA,NA,form submission,24339.78,89553,89552.96,89553.22,113893,113893,2024-05-25T18:52:01Z,113893,"c(""distractor1"", ""distractor2"", ""distractor3"")",Gesundheit,salama,d,NA,NA,NA,ddd,NA,NA,NA,NA,NA,NA,NA,NA,NA,NA,NA,NA,NA,NA,NA,NA,NA,NA,NA,NA,NA,NA
c82e5,"""Richtig""-Screen",canvas.Screen,1_1_0_0_1,NA,NA,skipped,NA,113899,NA,NA,113893,113899,2024-05-25T18:52:01Z,113893,"c(""distractor1"", ""distractor2"", ""distractor3"")",Gesundheit,salama,d,NA,NA,NA,NA,NA,NA,NA,NA,NA,NA,NA,NA,NA,NA,NA,NA,NA,NA,NA,NA,NA,NA,NA,NA,NA,NA
c82e5,"""Falsch""-Screen",canvas.Screen,1_1_0_0_2,NA,NA,timeout,5011.62,113902,113886.66,113893,118869.1,118892,2024-05-25T18:52:06Z,118904.62,"c(""distractor1"", ""distractor2"", ""distractor3"")",Gesundheit,salama,d,NA,NA,NA,NA,NA,0,NA,NA,NA,NA,NA,NA,NA,NA,NA,NA,NA,NA,NA,NA,NA,NA,NA,NA,NA,NA
c82e5,deep,flow.Sequence,1_1_0_0,NA,NA,completion,29315.88,89553,89552.96,89553.22,118869.1,118892,2024-05-25T18:52:06Z,118904.62,"c(""distractor1"", ""distractor2"", ""distractor3"")",Gesundheit,salama,d,NA,NA,NA,NA,NA,NA,NA,NA,NA,NA,NA,NA,NA,NA,NA,NA,NA,NA,NA,NA,NA,NA,NA,NA,NA,NA
c82e5,shallow,flow.Sequence,1_1_0_1,NA,NA,skipped,NA,118893,NA,NA,118869.1,118893,2024-05-25T18:52:06Z,118904.62,"c(""distractor1"", ""distractor2"", ""distractor3"")",Gesundheit,salama,d,NA,NA,NA,NA,NA,NA,NA,NA,NA,NA,NA,NA,NA,NA,NA,NA,NA,NA,NA,NA,NA,NA,NA,NA,NA,NA
c82e5,task,flow.Sequence,1_1_0,NA,NA,completion,29315.88,89553,89552.96,89553.22,118869.1,118893,2024-05-25T18:52:06Z,118904.62,"c(""distractor1"", ""distractor2"", ""distractor3"")",Gesundheit,salama,d,NA,NA,NA,NA,NA,NA,NA,NA,NA,NA,NA,NA,NA,NA,NA,NA,NA,NA,NA,NA,NA,NA,NA,NA,NA,NA
c82e5,deep,flow.Sequence,1_1_1_0,NA,NA,skipped,NA,118893,NA,NA,118869.1,118894,2024-05-25T18:52:06Z,118904.62,"c(""distractor1"", ""distractor2"", ""distractor3"")",Kritik,lawama,s,dereva,nafasi,mawazo,NA,NA,NA,NA,NA,NA,NA,NA,NA,NA,NA,NA,NA,NA,NA,NA,NA,NA,NA,NA,NA,NA,NA
c82e5,Shallow Question,html.Page,1_1_1_1_0,NA,NA,form submission,4727.38,118894,118869.1,118904.62,123632,123633,2024-05-25T18:52:10Z,123637.84,"c(""distractor1"", ""distractor2"", ""distractor3"")",Kritik,lawama,s,dereva,nafasi,mawazo,nafasi,NA,NA,NA,NA,NA,NA,NA,NA,NA,NA,NA,NA,NA,NA,NA,NA,NA,NA,NA,NA,NA,NA
c82e5,"""Richtig""-Screen",canvas.Screen,1_1_1_1_1,NA,NA,skipped,NA,123634,NA,NA,123632,123634,2024-05-25T18:52:10Z,123637.84,"c(""distractor1"", ""distractor2"", ""distractor3"")",Kritik,lawama,s,dereva,nafasi,mawazo,NA,NA,NA,NA,NA,NA,NA,NA,NA,NA,NA,NA,NA,NA,NA,NA,NA,NA,NA,NA,NA,NA,NA
c82e5,"""Falsch""-Screen",canvas.Screen,1_1_1_1_2,NA,NA,timeout,4993.06,123636,123628.32,123637.84,128614.2,128615,2024-05-25T18:52:15Z,128630.9,"c(""distractor1"", ""distractor2"", ""distractor3"")",Kritik,lawama,s,dereva,nafasi,mawazo,NA,NA,0,NA,NA,NA,NA,NA,NA,NA,NA,NA,NA,NA,NA,NA,NA,NA,NA,NA,NA,NA,NA
c82e5,shallow,flow.Sequence,1_1_1_1,NA,NA,completion,9709.58,118894,118869.1,118904.62,128614.2,128616,2024-05-25T18:52:15Z,128630.9,"c(""distractor1"", ""distractor2"", ""distractor3"")",Kritik,lawama,s,dereva,nafasi,mawazo,NA,NA,NA,NA,NA,NA,NA,NA,NA,NA,NA,NA,NA,NA,NA,NA,NA,NA,NA,NA,NA,NA,NA
c82e5,task,flow.Sequence,1_1_1,NA,NA,completion,9709.58,118893,118869.1,118904.62,128614.2,128616,2024-05-25T18:52:15Z,128630.9,"c(""distractor1"", ""distractor2"", ""distractor3"")",Kritik,lawama,s,dereva,nafasi,mawazo,NA,NA,NA,NA,NA,NA,NA,NA,NA,NA,NA,NA,NA,NA,NA,NA,NA,NA,NA,NA,NA,NA,NA
c82e5,Deep Question,html.Page,1_1_2_0_0,NA,NA,form submission,9836.1,128616,128614.2,128630.9,138467,138467,2024-05-25T18:52:25Z,138475.6,"c(""distractor1"", ""distractor2"", ""distractor3"")",Schatten,kivuli,d,NA,NA,NA,lopo,NA,NA,NA,NA,NA,NA,NA,NA,NA,NA,NA,NA,NA,NA,NA,NA,NA,NA,NA,NA,NA,NA
c82e5,"""Richtig""-Screen",canvas.Screen,1_1_2_0_1,NA,NA,skipped,NA,138468,NA,NA,138467,138468,2024-05-25T18:52:25Z,138475.6,"c(""distractor1"", ""distractor2"", ""distractor3"")",Schatten,kivuli,d,NA,NA,NA,NA,NA,NA,NA,NA,NA,NA,NA,NA,NA,NA,NA,NA,NA,NA,NA,NA,NA,NA,NA,NA,NA,NA
c82e5,"""Falsch""-Screen",canvas.Screen,1_1_2_0_2,NA,NA,timeout,5004.54,138470,138463.56,138475.6,143463.44,143466,2024-05-25T18:52:30Z,143480.14,"c(""distractor1"", ""distractor2"", ""distractor3"")",Schatten,kivuli,d,NA,NA,NA,NA,NA,0,NA,NA,NA,NA,NA,NA,NA,NA,NA,NA,NA,NA,NA,NA,NA,NA,NA,NA,NA,NA
c82e5,deep,flow.Sequence,1_1_2_0,NA,NA,completion,14832.54,128616,128614.2,128630.9,143463.44,143466,2024-05-25T18:52:30Z,143480.14,"c(""distractor1"", ""distractor2"", ""distractor3"")",Schatten,kivuli,d,NA,NA,NA,NA,NA,NA,NA,NA,NA,NA,NA,NA,NA,NA,NA,NA,NA,NA,NA,NA,NA,NA,NA,NA,NA,NA
c82e5,shallow,flow.Sequence,1_1_2_1,NA,NA,skipped,NA,143466,NA,NA,143463.44,143466,2024-05-25T18:52:30Z,143480.14,"c(""distractor1"", ""distractor2"", ""distractor3"")",Schatten,kivuli,d,NA,NA,NA,NA,NA,NA,NA,NA,NA,NA,NA,NA,NA,NA,NA,NA,NA,NA,NA,NA,NA,NA,NA,NA,NA,NA
c82e5,task,flow.Sequence,1_1_2,NA,NA,completion,14832.54,128616,128614.2,128630.9,143463.44,143466,2024-05-25T18:52:30Z,143480.14,"c(""distractor1"", ""distractor2"", ""distractor3"")",Schatten,kivuli,d,NA,NA,NA,NA,NA,NA,NA,NA,NA,NA,NA,NA,NA,NA,NA,NA,NA,NA,NA,NA,NA,NA,NA,NA,NA,NA
c82e5,deep,flow.Sequence,1_1_3_0,NA,NA,skipped,NA,143466,NA,NA,143463.44,143466,2024-05-25T18:52:30Z,143480.14,"c(""distractor1"", ""distractor2"", ""distractor3"")",Gegenwart,hadhara,s,katiba,jokofu,mikopo,NA,NA,NA,NA,NA,NA,NA,NA,NA,NA,NA,NA,NA,NA,NA,NA,NA,NA,NA,NA,NA,NA,NA
c82e5,Shallow Question,html.Page,1_1_3_1_0,NA,NA,form submission,2667.86,143466,143463.44,143480.14,146148,146148,2024-05-25T18:52:33Z,146155.8,"c(""distractor1"", ""distractor2"", ""distractor3"")",Gegenwart,hadhara,s,katiba,jokofu,mikopo,katiba,NA,NA,NA,NA,NA,NA,NA,NA,NA,NA,NA,NA,NA,NA,NA,NA,NA,NA,NA,NA,NA,NA
c82e5,"""Richtig""-Screen",canvas.Screen,1_1_3_1_1,NA,NA,skipped,NA,146150,NA,NA,146148,146150,2024-05-25T18:52:33Z,146155.8,"c(""distractor1"", ""distractor2"", ""distractor3"")",Gegenwart,hadhara,s,katiba,jokofu,mikopo,NA,NA,NA,NA,NA,NA,NA,NA,NA,NA,NA,NA,NA,NA,NA,NA,NA,NA,NA,NA,NA,NA,NA
c82e5,"""Falsch""-Screen",canvas.Screen,1_1_3_1_2,NA,NA,timeout,4993.82,146151,146144.26,146155.8,151132.94,151135,2024-05-25T18:52:38Z,151149.62,"c(""distractor1"", ""distractor2"", ""distractor3"")",Gegenwart,hadhara,s,katiba,jokofu,mikopo,NA,NA,0,NA,NA,NA,NA,NA,NA,NA,NA,NA,NA,NA,NA,NA,NA,NA,NA,NA,NA,NA,NA
c82e5,shallow,flow.Sequence,1_1_3_1,NA,NA,completion,7652.8,143466,143463.44,143480.14,151132.94,151136,2024-05-25T18:52:38Z,151149.62,"c(""distractor1"", ""distractor2"", ""distractor3"")",Gegenwart,hadhara,s,katiba,jokofu,mikopo,NA,NA,NA,NA,NA,NA,NA,NA,NA,NA,NA,NA,NA,NA,NA,NA,NA,NA,NA,NA,NA,NA,NA
c82e5,task,flow.Sequence,1_1_3,NA,NA,completion,7652.8,143466,143463.44,143480.14,151132.94,151136,2024-05-25T18:52:38Z,151149.62,"c(""distractor1"", ""distractor2"", ""distractor3"")",Gegenwart,hadhara,s,katiba,jokofu,mikopo,NA,NA,NA,NA,NA,NA,NA,NA,NA,NA,NA,NA,NA,NA,NA,NA,NA,NA,NA,NA,NA,NA,NA
c82e5,Deep Question,html.Page,1_1_4_0_0,NA,NA,form submission,9405.38,151136,151132.94,151149.62,160555,160556,2024-05-25T18:52:47Z,160554.2,"c(""distractor1"", ""distractor2"", ""distractor3"")",Qualität,mtindo,d,NA,NA,NA,b,NA,NA,NA,NA,NA,NA,NA,NA,NA,NA,NA,NA,NA,NA,NA,NA,NA,NA,NA,NA,NA,NA
c82e5,"""Richtig""-Screen",canvas.Screen,1_1_4_0_1,NA,NA,skipped,NA,160557,NA,NA,160555,160557,2024-05-25T18:52:47Z,160554.2,"c(""distractor1"", ""distractor2"", ""distractor3"")",Qualität,mtindo,d,NA,NA,NA,NA,NA,NA,NA,NA,NA,NA,NA,NA,NA,NA,NA,NA,NA,NA,NA,NA,NA,NA,NA,NA,NA,NA
c82e5,"""Falsch""-Screen",canvas.Screen,1_1_4_0_2,NA,NA,timeout,5003.46,160558,160551.5,160554.2,165541.14,165543,2024-05-25T18:52:52Z,165557.66,"c(""distractor1"", ""distractor2"", ""distractor3"")",Qualität,mtindo,d,NA,NA,NA,NA,NA,0,NA,NA,NA,NA,NA,NA,NA,NA,NA,NA,NA,NA,NA,NA,NA,NA,NA,NA,NA,NA
c82e5,deep,flow.Sequence,1_1_4_0,NA,NA,completion,14391.52,151136,151132.94,151149.62,165541.14,165543,2024-05-25T18:52:52Z,165557.66,"c(""distractor1"", ""distractor2"", ""distractor3"")",Qualität,mtindo,d,NA,NA,NA,NA,NA,NA,NA,NA,NA,NA,NA,NA,NA,NA,NA,NA,NA,NA,NA,NA,NA,NA,NA,NA,NA,NA
c82e5,shallow,flow.Sequence,1_1_4_1,NA,NA,skipped,NA,165543,NA,NA,165541.14,165543,2024-05-25T18:52:52Z,165557.66,"c(""distractor1"", ""distractor2"", ""distractor3"")",Qualität,mtindo,d,NA,NA,NA,NA,NA,NA,NA,NA,NA,NA,NA,NA,NA,NA,NA,NA,NA,NA,NA,NA,NA,NA,NA,NA,NA,NA
c82e5,task,flow.Sequence,1_1_4,NA,NA,completion,14391.52,151136,151132.94,151149.62,165541.14,165544,2024-05-25T18:52:52Z,165557.66,"c(""distractor1"", ""distractor2"", ""distractor3"")",Qualität,mtindo,d,NA,NA,NA,NA,NA,NA,NA,NA,NA,NA,NA,NA,NA,NA,NA,NA,NA,NA,NA,NA,NA,NA,NA,NA,NA,NA
c82e5,deep,flow.Sequence,1_1_5_0,NA,NA,skipped,NA,165544,NA,NA,165541.14,165544,2024-05-25T18:52:52Z,165557.66,"c(""distractor1"", ""distractor2"", ""distractor3"")",Rückhalt,msaada,s,muhula,auwali,kiwimbe,NA,NA,NA,NA,NA,NA,NA,NA,NA,NA,NA,NA,NA,NA,NA,NA,NA,NA,NA,NA,NA,NA,NA
c82e5,Shallow Question,html.Page,1_1_5_1_0,NA,NA,form submission,5497.34,165544,165541.14,165557.66,171055,171055,2024-05-25T18:52:58Z,171059.36,"c(""distractor1"", ""distractor2"", ""distractor3"")",Rückhalt,msaada,s,muhula,auwali,kiwimbe,auwali,NA,NA,NA,NA,NA,NA,NA,NA,NA,NA,NA,NA,NA,NA,NA,NA,NA,NA,NA,NA,NA,NA
c82e5,"""Richtig""-Screen",canvas.Screen,1_1_5_1_1,NA,NA,skipped,NA,171057,NA,NA,171055,171057,2024-05-25T18:52:58Z,171059.36,"c(""distractor1"", ""distractor2"", ""distractor3"")",Rückhalt,msaada,s,muhula,auwali,kiwimbe,NA,NA,NA,NA,NA,NA,NA,NA,NA,NA,NA,NA,NA,NA,NA,NA,NA,NA,NA,NA,NA,NA,NA
c82e5,"""Falsch""-Screen",canvas.Screen,1_1_5_1_2,NA,NA,timeout,4993.96,171059,171051.62,171059.36,176036.64,176041,2024-05-25T18:53:03Z,176053.32,"c(""distractor1"", ""distractor2"", ""distractor3"")",Rückhalt,msaada,s,muhula,auwali,kiwimbe,NA,NA,0,NA,NA,NA,NA,NA,NA,NA,NA,NA,NA,NA,NA,NA,NA,NA,NA,NA,NA,NA,NA
c82e5,shallow,flow.Sequence,1_1_5_1,NA,NA,completion,10478.98,165544,165541.14,165557.66,176036.64,176042,2024-05-25T18:53:03Z,176053.32,"c(""distractor1"", ""distractor2"", ""distractor3"")",Rückhalt,msaada,s,muhula,auwali,kiwimbe,NA,NA,NA,NA,NA,NA,NA,NA,NA,NA,NA,NA,NA,NA,NA,NA,NA,NA,NA,NA,NA,NA,NA
c82e5,task,flow.Sequence,1_1_5,NA,NA,completion,10478.98,165544,165541.14,165557.66,176036.64,176042,2024-05-25T18:53:03Z,176053.32,"c(""distractor1"", ""distractor2"", ""distractor3"")",Rückhalt,msaada,s,muhula,auwali,kiwimbe,NA,NA,NA,NA,NA,NA,NA,NA,NA,NA,NA,NA,NA,NA,NA,NA,NA,NA,NA,NA,NA,NA,NA
c82e5,block,flow.Loop,1_1,NA,NA,completion,86483.42,89553,89552.96,89553.22,176036.64,176042,2024-05-25T18:53:03Z,176053.32,"c(""distractor1"", ""distractor2"", ""distractor3"")",NA,NA,NA,NA,NA,NA,NA,NA,NA,NA,NA,NA,NA,NA,NA,NA,NA,NA,NA,NA,NA,NA,NA,NA,NA,NA,NA,NA,NA
c82e5,Practice,flow.Sequence,1,NA,NA,completion,93732.64,82304,82303.7,82304,176036.64,176042,2024-05-25T18:53:03Z,176053.32,NULL,NA,NA,NA,NA,NA,NA,NA,NA,NA,NA,NA,NA,NA,NA,NA,NA,NA,NA,NA,NA,NA,NA,NA,NA,NA,NA,NA,NA,NA
c82e5,Experiment start,canvas.Screen,2,weiter,keypress(q),response,46807.68,176042,176036.64,176053.32,222861,222880,2024-05-25T18:53:50Z,222957.82,NULL,NA,NA,NA,NA,NA,NA,NA,NA,NA,NA,NA,NA,NA,NA,NA,NA,NA,NA,NA,NA,NA,NA,NA,NA,NA,NA,NA,NA,NA
c82e5,deep,flow.Sequence,3_0_0_0_0_0,NA,NA,skipped,NA,222957,NA,NA,222861,222957,2024-05-25T18:53:50Z,222957.82,NULL,Gelegenheit,wakati,s,mchanganyiko,kipaumbele,kushuku,NA,sdf,NA,0,NA,NA,NA,NA,NA,NA,NA,NA,NA,NA,NA,NA,NA,NA,NA,NA,NA,NA,NA
c82e5,Shallow Question,html.Page,3_0_0_0_0_1_0,NA,NA,form submission,5592.18,222957,222957.4,222957.82,228550,228552,2024-05-25T18:53:55Z,228558.94,NULL,Gelegenheit,wakati,s,mchanganyiko,kipaumbele,kushuku,kushuku,NA,NA,0,NA,NA,NA,NA,NA,NA,NA,NA,NA,NA,NA,NA,NA,NA,NA,NA,NA,NA,NA
c82e5,"""Richtig""-Screen",canvas.Screen,3_0_0_0_0_1_1,NA,NA,skipped,NA,228553,NA,NA,228550,228553,2024-05-25T18:53:55Z,228558.94,NULL,Gelegenheit,wakati,s,mchanganyiko,kipaumbele,kushuku,NA,sdf,NA,0,NA,NA,NA,NA,NA,NA,NA,NA,NA,NA,NA,NA,NA,NA,NA,NA,NA,NA,NA
c82e5,"""Falsch""-Screen",canvas.Screen,3_0_0_0_0_1_2,NA,NA,timeout,5033.54,228555,228547.68,228558.94,233542.52,233583,2024-05-25T18:54:00Z,233592.48,NULL,Gelegenheit,wakati,s,mchanganyiko,kipaumbele,kushuku,NA,sdf,0,0,NA,NA,NA,NA,NA,NA,NA,NA,NA,NA,NA,NA,NA,NA,NA,NA,NA,NA,NA
c82e5,shallow,flow.Sequence,3_0_0_0_0_1,NA,NA,completion,10584.7,222957,222957.4,222957.82,233542.52,233583,2024-05-25T18:54:00Z,233592.48,NULL,Gelegenheit,wakati,s,mchanganyiko,kipaumbele,kushuku,NA,sdf,NA,0,NA,NA,NA,NA,NA,NA,NA,NA,NA,NA,NA,NA,NA,NA,NA,NA,NA,NA,NA
c82e5,task,flow.Sequence,3_0_0_0_0,NA,NA,completion,10584.7,222957,222957.4,222957.82,233542.52,233583,2024-05-25T18:54:00Z,233592.48,NULL,Gelegenheit,wakati,s,mchanganyiko,kipaumbele,kushuku,NA,sdf,NA,0,NA,NA,NA,NA,NA,NA,NA,NA,NA,NA,NA,NA,NA,NA,NA,NA,NA,NA,NA
c82e5,Deep Question,html.Page,3_0_0_0_1_0_0,NA,NA,form submission,3720.52,233583,233542.52,233592.48,237313,237314,2024-05-25T18:54:04Z,237321.32,NULL,Widerstand,usulubu,d,NA,NA,NA,b,NA,NA,0,NA,NA,NA,NA,NA,NA,NA,NA,NA,NA,NA,NA,NA,NA,NA,NA,NA,NA,NA
c82e5,"""Richtig""-Screen",canvas.Screen,3_0_0_0_1_0_1,NA,NA,skipped,NA,237322,NA,NA,237313,237322,2024-05-25T18:54:04Z,237321.32,NULL,Widerstand,usulubu,d,NA,NA,NA,NA,sdf,NA,0,NA,NA,NA,NA,NA,NA,NA,NA,NA,NA,NA,NA,NA,NA,NA,NA,NA,NA,NA
c82e5,"""Falsch""-Screen",canvas.Screen,3_0_0_0_1_0_2,NA,NA,timeout,5004.68,237324,237307.9,237321.32,242309.32,242313,2024-05-25T18:54:09Z,242326,NULL,Widerstand,usulubu,d,NA,NA,NA,NA,sdf,0,0,NA,NA,NA,NA,NA,NA,NA,NA,NA,NA,NA,NA,NA,NA,NA,NA,NA,NA,NA
c82e5,deep,flow.Sequence,3_0_0_0_1_0,NA,NA,completion,8716.84,233583,233542.52,233592.48,242309.32,242313,2024-05-25T18:54:09Z,242326,NULL,Widerstand,usulubu,d,NA,NA,NA,NA,sdf,NA,0,NA,NA,NA,NA,NA,NA,NA,NA,NA,NA,NA,NA,NA,NA,NA,NA,NA,NA,NA
c82e5,shallow,flow.Sequence,3_0_0_0_1_1,NA,NA,skipped,NA,242313,NA,NA,242309.32,242313,2024-05-25T18:54:09Z,242326,NULL,Widerstand,usulubu,d,NA,NA,NA,NA,sdf,NA,0,NA,NA,NA,NA,NA,NA,NA,NA,NA,NA,NA,NA,NA,NA,NA,NA,NA,NA,NA
c82e5,task,flow.Sequence,3_0_0_0_1,NA,NA,completion,8716.84,233583,233542.52,233592.48,242309.32,242313,2024-05-25T18:54:09Z,242326,NULL,Widerstand,usulubu,d,NA,NA,NA,NA,sdf,NA,0,NA,NA,NA,NA,NA,NA,NA,NA,NA,NA,NA,NA,NA,NA,NA,NA,NA,NA,NA
c82e5,deep,flow.Sequence,3_0_0_0_2_0,NA,NA,skipped,NA,242314,NA,NA,242309.32,242314,2024-05-25T18:54:09Z,242326,NULL,Können,unaweza,s,kiongozi,bustani,mienendo,NA,sdf,NA,0,NA,NA,NA,NA,NA,NA,NA,NA,NA,NA,NA,NA,NA,NA,NA,NA,NA,NA,NA
c82e5,Shallow Question,html.Page,3_0_0_0_2_1_0,NA,NA,form submission,4436,242314,242309.32,242326,246762,246763,2024-05-25T18:54:14Z,246769.64,NULL,Können,unaweza,s,kiongozi,bustani,mienendo,unaweza,NA,NA,0,NA,NA,NA,NA,NA,NA,NA,NA,NA,NA,NA,NA,NA,NA,NA,NA,NA,NA,NA
c82e5,"""Richtig""-Screen",canvas.Screen,3_0_0_0_2_1_1,NA,NA,timeout,5003.7,246764,246758.18,246769.64,251756.66,251758,2024-05-25T18:54:19Z,251773.34,NULL,Können,unaweza,s,kiongozi,bustani,mienendo,NA,sdf,1,0,NA,NA,NA,NA,NA,NA,NA,NA,NA,NA,NA,NA,NA,NA,NA,NA,NA,NA,NA
c82e5,"""Falsch""-Screen",canvas.Screen,3_0_0_0_2_1_2,NA,NA,skipped,NA,251761,NA,NA,251756.66,251761,2024-05-25T18:54:19Z,251773.34,NULL,Können,unaweza,s,kiongozi,bustani,mienendo,NA,sdf,NA,0,NA,NA,NA,NA,NA,NA,NA,NA,NA,NA,NA,NA,NA,NA,NA,NA,NA,NA,NA
c82e5,shallow,flow.Sequence,3_0_0_0_2_1,NA,NA,completion,9430.66,242314,242309.32,242326,251756.66,251761,2024-05-25T18:54:19Z,251773.34,NULL,Können,unaweza,s,kiongozi,bustani,mienendo,NA,sdf,NA,0,NA,NA,NA,NA,NA,NA,NA,NA,NA,NA,NA,NA,NA,NA,NA,NA,NA,NA,NA
c82e5,task,flow.Sequence,3_0_0_0_2,NA,NA,completion,9430.66,242314,242309.32,242326,251756.66,251761,2024-05-25T18:54:19Z,251773.34,NULL,Können,unaweza,s,kiongozi,bustani,mienendo,NA,sdf,NA,0,NA,NA,NA,NA,NA,NA,NA,NA,NA,NA,NA,NA,NA,NA,NA,NA,NA,NA,NA
c82e5,Deep Question,html.Page,3_0_0_0_3_0_0,NA,NA,form submission,6371.66,251761,251756.66,251773.34,258145,258146,2024-05-25T18:54:25Z,258150.72,NULL,Gefährdung,kuhatarisha,d,NA,NA,NA,b,NA,NA,0,NA,NA,NA,NA,NA,NA,NA,NA,NA,NA,NA,NA,NA,NA,NA,NA,NA,NA,NA
c82e5,"""Richtig""-Screen",canvas.Screen,3_0_0_0_3_0_1,NA,NA,skipped,NA,258147,NA,NA,258145,258147,2024-05-25T18:54:25Z,258150.72,NULL,Gefährdung,kuhatarisha,d,NA,NA,NA,NA,sdf,NA,0,NA,NA,NA,NA,NA,NA,NA,NA,NA,NA,NA,NA,NA,NA,NA,NA,NA,NA,NA
c82e5,"""Falsch""-Screen",canvas.Screen,3_0_0_0_3_0_2,NA,NA,timeout,5001.42,258149,258142.16,258150.72,263135.46,263137,2024-05-25T18:54:30Z,263152.14,NULL,Gefährdung,kuhatarisha,d,NA,NA,NA,NA,sdf,0,0,NA,NA,NA,NA,NA,NA,NA,NA,NA,NA,NA,NA,NA,NA,NA,NA,NA,NA,NA
c82e5,deep,flow.Sequence,3_0_0_0_3_0,NA,NA,completion,11362.12,251761,251756.66,251773.34,263135.46,263138,2024-05-25T18:54:30Z,263152.14,NULL,Gefährdung,kuhatarisha,d,NA,NA,NA,NA,sdf,NA,0,NA,NA,NA,NA,NA,NA,NA,NA,NA,NA,NA,NA,NA,NA,NA,NA,NA,NA,NA
c82e5,shallow,flow.Sequence,3_0_0_0_3_1,NA,NA,skipped,NA,263138,NA,NA,263135.46,263138,2024-05-25T18:54:30Z,263152.14,NULL,Gefährdung,kuhatarisha,d,NA,NA,NA,NA,sdf,NA,0,NA,NA,NA,NA,NA,NA,NA,NA,NA,NA,NA,NA,NA,NA,NA,NA,NA,NA,NA
c82e5,task,flow.Sequence,3_0_0_0_3,NA,NA,completion,11362.12,251761,251756.66,251773.34,263135.46,263138,2024-05-25T18:54:30Z,263152.14,NULL,Gefährdung,kuhatarisha,d,NA,NA,NA,NA,sdf,NA,0,NA,NA,NA,NA,NA,NA,NA,NA,NA,NA,NA,NA,NA,NA,NA,NA,NA,NA,NA
c82e5,deep,flow.Sequence,3_0_0_0_4_0,NA,NA,skipped,NA,263138,NA,NA,263135.46,263138,2024-05-25T18:54:30Z,263152.14,NULL,Kreativität,ubunifu,s,mratibu,mwendelezo,makubaliano,NA,sdf,NA,0,NA,NA,NA,NA,NA,NA,NA,NA,NA,NA,NA,NA,NA,NA,NA,NA,NA,NA,NA
c82e5,Shallow Question,html.Page,3_0_0_0_4_1_0,NA,NA,form submission,16924.86,263138,263135.46,263152.14,280077,280077,2024-05-25T18:54:47Z,280087.98,NULL,Kreativität,ubunifu,s,mratibu,mwendelezo,makubaliano,mratibu,NA,NA,0,NA,NA,NA,NA,NA,NA,NA,NA,NA,NA,NA,NA,NA,NA,NA,NA,NA,NA,NA
c82e5,"""Richtig""-Screen",canvas.Screen,3_0_0_0_4_1_1,NA,NA,skipped,NA,280079,NA,NA,280077,280079,2024-05-25T18:54:47Z,280087.98,NULL,Kreativität,ubunifu,s,mratibu,mwendelezo,makubaliano,NA,sdf,NA,0,NA,NA,NA,NA,NA,NA,NA,NA,NA,NA,NA,NA,NA,NA,NA,NA,NA,NA,NA
c82e5,"""Falsch""-Screen",canvas.Screen,3_0_0_0_4_1_2,NA,NA,timeout,5002.3,280080,280073.16,280087.98,285069.52,285091,2024-05-25T18:54:52Z,285090.28,NULL,Kreativität,ubunifu,s,mratibu,mwendelezo,makubaliano,NA,sdf,0,0,NA,NA,NA,NA,NA,NA,NA,NA,NA,NA,NA,NA,NA,NA,NA,NA,NA,NA,NA
c82e5,shallow,flow.Sequence,3_0_0_0_4_1,NA,NA,completion,21917.38,263138,263135.46,263152.14,285069.52,285091,2024-05-25T18:54:52Z,285090.28,NULL,Kreativität,ubunifu,s,mratibu,mwendelezo,makubaliano,NA,sdf,NA,0,NA,NA,NA,NA,NA,NA,NA,NA,NA,NA,NA,NA,NA,NA,NA,NA,NA,NA,NA
c82e5,task,flow.Sequence,3_0_0_0_4,NA,NA,completion,21917.38,263138,263135.46,263152.14,285069.52,285091,2024-05-25T18:54:52Z,285090.28,NULL,Kreativität,ubunifu,s,mratibu,mwendelezo,makubaliano,NA,sdf,NA,0,NA,NA,NA,NA,NA,NA,NA,NA,NA,NA,NA,NA,NA,NA,NA,NA,NA,NA,NA
c82e5,deep,flow.Sequence,3_0_0_0_5_0,NA,NA,skipped,NA,285091,NA,NA,285069.52,285092,2024-05-25T18:54:52Z,285090.28,NULL,Ausschluss,kutengwa,s,ununuzi,taratibu,madeni,NA,sdf,NA,0,NA,NA,NA,NA,NA,NA,NA,NA,NA,NA,NA,NA,NA,NA,NA,NA,NA,NA,NA
c82e5,Shallow Question,html.Page,3_0_0_0_5_1_0,NA,NA,form submission,4091.72,285092,285069.52,285090.28,289182,289183,2024-05-25T18:54:56Z,289180.06,NULL,Ausschluss,kutengwa,s,ununuzi,taratibu,madeni,ununuzi,NA,NA,0,NA,NA,NA,NA,NA,NA,NA,NA,NA,NA,NA,NA,NA,NA,NA,NA,NA,NA,NA
c82e5,"""Richtig""-Screen",canvas.Screen,3_0_0_0_5_1_1,NA,NA,skipped,NA,289184,NA,NA,289182,289184,2024-05-25T18:54:56Z,289180.06,NULL,Ausschluss,kutengwa,s,ununuzi,taratibu,madeni,NA,sdf,NA,0,NA,NA,NA,NA,NA,NA,NA,NA,NA,NA,NA,NA,NA,NA,NA,NA,NA,NA,NA
c82e5,"""Falsch""-Screen",canvas.Screen,3_0_0_0_5_1_2,NA,NA,timeout,4997.82,289186,289178.48,289180.06,294161.18,294162,2024-05-25T18:55:01Z,294177.88,NULL,Ausschluss,kutengwa,s,ununuzi,taratibu,madeni,NA,sdf,0,0,NA,NA,NA,NA,NA,NA,NA,NA,NA,NA,NA,NA,NA,NA,NA,NA,NA,NA,NA
c82e5,shallow,flow.Sequence,3_0_0_0_5_1,NA,NA,completion,9070.9,285092,285069.52,285090.28,294161.18,294163,2024-05-25T18:55:01Z,294177.88,NULL,Ausschluss,kutengwa,s,ununuzi,taratibu,madeni,NA,sdf,NA,0,NA,NA,NA,NA,NA,NA,NA,NA,NA,NA,NA,NA,NA,NA,NA,NA,NA,NA,NA
c82e5,task,flow.Sequence,3_0_0_0_5,NA,NA,completion,9070.9,285091,285069.52,285090.28,294161.18,294163,2024-05-25T18:55:01Z,294177.88,NULL,Ausschluss,kutengwa,s,ununuzi,taratibu,madeni,NA,sdf,NA,0,NA,NA,NA,NA,NA,NA,NA,NA,NA,NA,NA,NA,NA,NA,NA,NA,NA,NA,NA
c82e5,Deep Question,html.Page,3_0_0_0_6_0_0,NA,NA,form submission,6509.12,294163,294161.18,294177.88,300687,300687,2024-05-25T18:55:08Z,300699.8,NULL,Verstand,ufahamivu,d,NA,NA,NA,b,NA,NA,0,NA,NA,NA,NA,NA,NA,NA,NA,NA,NA,NA,NA,NA,NA,NA,NA,NA,NA,NA
c82e5,"""Richtig""-Screen",canvas.Screen,3_0_0_0_6_0_1,NA,NA,skipped,NA,300689,NA,NA,300687,300690,2024-05-25T18:55:08Z,300699.8,NULL,Verstand,ufahamivu,d,NA,NA,NA,NA,sdf,NA,0,NA,NA,NA,NA,NA,NA,NA,NA,NA,NA,NA,NA,NA,NA,NA,NA,NA,NA,NA
c82e5,"""Falsch""-Screen",canvas.Screen,3_0_0_0_6_0_2,NA,NA,timeout,4993.9,300691,300684.22,300699.8,305677.02,305678,2024-05-25T18:55:13Z,305693.7,NULL,Verstand,ufahamivu,d,NA,NA,NA,NA,sdf,0,0,NA,NA,NA,NA,NA,NA,NA,NA,NA,NA,NA,NA,NA,NA,NA,NA,NA,NA,NA
c82e5,deep,flow.Sequence,3_0_0_0_6_0,NA,NA,completion,11499.14,294163,294161.18,294177.88,305677.02,305679,2024-05-25T18:55:13Z,305693.7,NULL,Verstand,ufahamivu,d,NA,NA,NA,NA,sdf,NA,0,NA,NA,NA,NA,NA,NA,NA,NA,NA,NA,NA,NA,NA,NA,NA,NA,NA,NA,NA
c82e5,shallow,flow.Sequence,3_0_0_0_6_1,NA,NA,skipped,NA,305679,NA,NA,305677.02,305679,2024-05-25T18:55:13Z,305693.7,NULL,Verstand,ufahamivu,d,NA,NA,NA,NA,sdf,NA,0,NA,NA,NA,NA,NA,NA,NA,NA,NA,NA,NA,NA,NA,NA,NA,NA,NA,NA,NA
c82e5,task,flow.Sequence,3_0_0_0_6,NA,NA,completion,11499.14,294163,294161.18,294177.88,305677.02,305679,2024-05-25T18:55:13Z,305693.7,NULL,Verstand,ufahamivu,d,NA,NA,NA,NA,sdf,NA,0,NA,NA,NA,NA,NA,NA,NA,NA,NA,NA,NA,NA,NA,NA,NA,NA,NA,NA,NA
c82e5,Deep Question,html.Page,3_0_0_0_7_0_0,NA,NA,form submission,4698.3,305679,305677.02,305693.7,310392,310392,2024-05-25T18:55:17Z,310394.62,NULL,Kontrolle,kudhibiti,d,NA,NA,NA,b,NA,NA,0,NA,NA,NA,NA,NA,NA,NA,NA,NA,NA,NA,NA,NA,NA,NA,NA,NA,NA,NA
c82e5,"""Richtig""-Screen",canvas.Screen,3_0_0_0_7_0_1,NA,NA,skipped,NA,310394,NA,NA,310392,310394,2024-05-25T18:55:17Z,310394.62,NULL,Kontrolle,kudhibiti,d,NA,NA,NA,NA,sdf,NA,0,NA,NA,NA,NA,NA,NA,NA,NA,NA,NA,NA,NA,NA,NA,NA,NA,NA,NA,NA
c82e5,"""Falsch""-Screen",canvas.Screen,3_0_0_0_7_0_2,NA,NA,timeout,4995.88,310395,310388.7,310394.62,315373.84,315375,2024-05-25T18:55:22Z,315390.5,NULL,Kontrolle,kudhibiti,d,NA,NA,NA,NA,sdf,0,0,NA,NA,NA,NA,NA,NA,NA,NA,NA,NA,NA,NA,NA,NA,NA,NA,NA,NA,NA
c82e5,deep,flow.Sequence,3_0_0_0_7_0,NA,NA,completion,9680.14,305679,305677.02,305693.7,315373.84,315375,2024-05-25T18:55:22Z,315390.5,NULL,Kontrolle,kudhibiti,d,NA,NA,NA,NA,sdf,NA,0,NA,NA,NA,NA,NA,NA,NA,NA,NA,NA,NA,NA,NA,NA,NA,NA,NA,NA,NA
c82e5,shallow,flow.Sequence,3_0_0_0_7_1,NA,NA,skipped,NA,315375,NA,NA,315373.84,315375,2024-05-25T18:55:22Z,315390.5,NULL,Kontrolle,kudhibiti,d,NA,NA,NA,NA,sdf,NA,0,NA,NA,NA,NA,NA,NA,NA,NA,NA,NA,NA,NA,NA,NA,NA,NA,NA,NA,NA
c82e5,task,flow.Sequence,3_0_0_0_7,NA,NA,completion,9680.14,305679,305677.02,305693.7,315373.84,315376,2024-05-25T18:55:22Z,315390.5,NULL,Kontrolle,kudhibiti,d,NA,NA,NA,NA,sdf,NA,0,NA,NA,NA,NA,NA,NA,NA,NA,NA,NA,NA,NA,NA,NA,NA,NA,NA,NA,NA
c82e5,block,flow.Loop,3_0_0_0,NA,NA,completion,92416.02,222957,222957.4,222957.82,315373.84,315376,2024-05-25T18:55:22Z,315390.5,NULL,NA,NA,NA,NA,NA,NA,NA,sdf,NA,0,NA,NA,NA,NA,NA,NA,NA,NA,NA,NA,NA,NA,NA,NA,NA,NA,NA,NA,NA
c82e5,weiter,canvas.Screen,3_0_0_1,sdf,keypress(Space),response,3328.5,315376,315373.84,315390.5,318719,318742,2024-05-25T18:55:26Z,318790.38,NULL,NA,NA,NA,NA,NA,NA,NA,sdf,NA,0,NA,NA,NA,NA,NA,NA,NA,NA,NA,NA,NA,NA,NA,NA,NA,NA,NA,NA,NA
c82e5,check continue,flow.Sequence,3_0_0,NA,NA,completion,95761.18,222957,222957.4,222957.82,318719,318742,2024-05-25T18:55:26Z,318790.38,NULL,NA,NA,NA,NA,NA,NA,NA,sdf,NA,0,NA,NA,NA,NA,NA,NA,NA,NA,NA,NA,NA,NA,NA,NA,NA,NA,NA,NA,NA
c82e5,Deep Question,html.Page,3_0_1_0_0_0_0,NA,NA,form submission,9024.62,318790,318790.04,318790.38,327815,327816,2024-05-25T18:55:35Z,327821.16,NULL,Widerstand,usulubu,d,NA,NA,NA,kudhibiti,NA,NA,1,NA,NA,NA,NA,NA,NA,NA,NA,NA,NA,NA,NA,NA,NA,NA,NA,NA,NA,NA
c82e5,"""Richtig""-Screen",canvas.Screen,3_0_1_0_0_0_1,NA,NA,skipped,NA,327818,NA,NA,327815,327818,2024-05-25T18:55:35Z,327821.16,NULL,Widerstand,usulubu,d,NA,NA,NA,NA,sdfdsf,NA,1,NA,NA,NA,NA,NA,NA,NA,NA,NA,NA,NA,NA,NA,NA,NA,NA,NA,NA,NA
c82e5,"""Falsch""-Screen",canvas.Screen,3_0_1_0_0_0_2,NA,NA,timeout,5004.6200000001,327819,327812.66,327821.16,332809.1,332812,2024-05-25T18:55:40Z,332825.78,NULL,Widerstand,usulubu,d,NA,NA,NA,NA,sdfdsf,0,1,NA,NA,NA,NA,NA,NA,NA,NA,NA,NA,NA,NA,NA,NA,NA,NA,NA,NA,NA
c82e5,deep,flow.Sequence,3_0_1_0_0_0,NA,NA,completion,14018.72,318790,318790.04,318790.38,332809.1,332813,2024-05-25T18:55:40Z,332825.78,NULL,Widerstand,usulubu,d,NA,NA,NA,NA,sdfdsf,NA,1,NA,NA,NA,NA,NA,NA,NA,NA,NA,NA,NA,NA,NA,NA,NA,NA,NA,NA,NA
c82e5,shallow,flow.Sequence,3_0_1_0_0_1,NA,NA,skipped,NA,332813,NA,NA,332809.1,332815,2024-05-25T18:55:40Z,332825.78,NULL,Widerstand,usulubu,d,NA,NA,NA,NA,sdfdsf,NA,1,NA,NA,NA,NA,NA,NA,NA,NA,NA,NA,NA,NA,NA,NA,NA,NA,NA,NA,NA
c82e5,task,flow.Sequence,3_0_1_0_0,NA,NA,completion,14018.72,318790,318790.04,318790.38,332809.1,332815,2024-05-25T18:55:40Z,332825.78,NULL,Widerstand,usulubu,d,NA,NA,NA,NA,sdfdsf,NA,1,NA,NA,NA,NA,NA,NA,NA,NA,NA,NA,NA,NA,NA,NA,NA,NA,NA,NA,NA
c82e5,Deep Question,html.Page,3_0_1_0_1_0_0,NA,NA,form submission,16501.22,332815,332809.1,332825.78,349327,349329,2024-05-25T18:55:56Z,349335.26,NULL,Kontrolle,kudhibiti,d,NA,NA,NA,ukubiti,NA,NA,1,NA,NA,NA,NA,NA,NA,NA,NA,NA,NA,NA,NA,NA,NA,NA,NA,NA,NA,NA
c82e5,"""Richtig""-Screen",canvas.Screen,3_0_1_0_1_0_1,NA,NA,skipped,NA,349333,NA,NA,349327,349333,2024-05-25T18:55:56Z,349335.26,NULL,Kontrolle,kudhibiti,d,NA,NA,NA,NA,sdfdsf,NA,1,NA,NA,NA,NA,NA,NA,NA,NA,NA,NA,NA,NA,NA,NA,NA,NA,NA,NA,NA
c82e5,"""Falsch""-Screen",canvas.Screen,3_0_1_0_1_0_2,NA,NA,timeout,5056.4,349336,349323.3,349335.26,354323.9,354393,2024-05-25T18:56:01Z,354391.66,NULL,Kontrolle,kudhibiti,d,NA,NA,NA,NA,sdfdsf,0,1,NA,NA,NA,NA,NA,NA,NA,NA,NA,NA,NA,NA,NA,NA,NA,NA,NA,NA,NA
c82e5,deep,flow.Sequence,3_0_1_0_1_0,NA,NA,completion,21498.12,332815,332809.1,332825.78,354323.9,354393,2024-05-25T18:56:01Z,354391.66,NULL,Kontrolle,kudhibiti,d,NA,NA,NA,NA,sdfdsf,NA,1,NA,NA,NA,NA,NA,NA,NA,NA,NA,NA,NA,NA,NA,NA,NA,NA,NA,NA,NA
c82e5,shallow,flow.Sequence,3_0_1_0_1_1,NA,NA,skipped,NA,354393,NA,NA,354323.9,354393,2024-05-25T18:56:01Z,354391.66,NULL,Kontrolle,kudhibiti,d,NA,NA,NA,NA,sdfdsf,NA,1,NA,NA,NA,NA,NA,NA,NA,NA,NA,NA,NA,NA,NA,NA,NA,NA,NA,NA,NA
c82e5,task,flow.Sequence,3_0_1_0_1,NA,NA,completion,21498.12,332815,332809.1,332825.78,354323.9,354393,2024-05-25T18:56:01Z,354391.66,NULL,Kontrolle,kudhibiti,d,NA,NA,NA,NA,sdfdsf,NA,1,NA,NA,NA,NA,NA,NA,NA,NA,NA,NA,NA,NA,NA,NA,NA,NA,NA,NA,NA
c82e5,deep,flow.Sequence,3_0_1_0_2_0,NA,NA,skipped,NA,354394,NA,NA,354323.9,354394,2024-05-25T18:56:01Z,354391.66,NULL,Gelegenheit,wakati,s,mchanganyiko,kipaumbele,kushuku,NA,sdfdsf,NA,1,NA,NA,NA,NA,NA,NA,NA,NA,NA,NA,NA,NA,NA,NA,NA,NA,NA,NA,NA
c82e5,Shallow Question,html.Page,3_0_1_0_2_1_0,NA,NA,form submission,6715.34,354394,354323.9,354391.66,361107,361108,2024-05-25T18:56:08Z,361115.1,NULL,Gelegenheit,wakati,s,mchanganyiko,kipaumbele,kushuku,wakati,NA,NA,1,NA,NA,NA,NA,NA,NA,NA,NA,NA,NA,NA,NA,NA,NA,NA,NA,NA,NA,NA
c82e5,"""Richtig""-Screen",canvas.Screen,3_0_1_0_2_1_1,NA,NA,timeout,4994.9,361109,361104.26,361115.1,366093.3,366095,2024-05-25T18:56:13Z,366110,NULL,Gelegenheit,wakati,s,mchanganyiko,kipaumbele,kushuku,NA,sdfdsf,1,1,NA,NA,NA,NA,NA,NA,NA,NA,NA,NA,NA,NA,NA,NA,NA,NA,NA,NA,NA
c82e5,"""Falsch""-Screen",canvas.Screen,3_0_1_0_2_1_2,NA,NA,skipped,NA,366097,NA,NA,366093.3,366097,2024-05-25T18:56:13Z,366110,NULL,Gelegenheit,wakati,s,mchanganyiko,kipaumbele,kushuku,NA,sdfdsf,NA,1,NA,NA,NA,NA,NA,NA,NA,NA,NA,NA,NA,NA,NA,NA,NA,NA,NA,NA,NA
c82e5,shallow,flow.Sequence,3_0_1_0_2_1,NA,NA,completion,11701.64,354394,354323.9,354391.66,366093.3,366097,2024-05-25T18:56:13Z,366110,NULL,Gelegenheit,wakati,s,mchanganyiko,kipaumbele,kushuku,NA,sdfdsf,NA,1,NA,NA,NA,NA,NA,NA,NA,NA,NA,NA,NA,NA,NA,NA,NA,NA,NA,NA,NA
c82e5,task,flow.Sequence,3_0_1_0_2,NA,NA,completion,11701.64,354393,354323.9,354391.66,366093.3,366097,2024-05-25T18:56:13Z,366110,NULL,Gelegenheit,wakati,s,mchanganyiko,kipaumbele,kushuku,NA,sdfdsf,NA,1,NA,NA,NA,NA,NA,NA,NA,NA,NA,NA,NA,NA,NA,NA,NA,NA,NA,NA,NA
c82e5,deep,flow.Sequence,3_0_1_0_3_0,NA,NA,skipped,NA,366097,NA,NA,366093.3,366097,2024-05-25T18:56:13Z,366110,NULL,Können,unaweza,s,kiongozi,bustani,mienendo,NA,sdfdsf,NA,1,NA,NA,NA,NA,NA,NA,NA,NA,NA,NA,NA,NA,NA,NA,NA,NA,NA,NA,NA
c82e5,Shallow Question,html.Page,3_0_1_0_3_1_0,NA,NA,form submission,5040,366097,366093.3,366110,371150,371151,2024-05-25T18:56:18Z,371150.24,NULL,Können,unaweza,s,kiongozi,bustani,mienendo,unaweza,NA,NA,1,NA,NA,NA,NA,NA,NA,NA,NA,NA,NA,NA,NA,NA,NA,NA,NA,NA,NA,NA
c82e5,"""Richtig""-Screen",canvas.Screen,3_0_1_0_3_1_1,NA,NA,timeout,5000.74,371153,371147.16,371150.24,376134.3,376136,2024-05-25T18:56:23Z,376150.98,NULL,Können,unaweza,s,kiongozi,bustani,mienendo,NA,sdfdsf,1,1,NA,NA,NA,NA,NA,NA,NA,NA,NA,NA,NA,NA,NA,NA,NA,NA,NA,NA,NA
c82e5,"""Falsch""-Screen",canvas.Screen,3_0_1_0_3_1_2,NA,NA,skipped,NA,376138,NA,NA,376134.3,376138,2024-05-25T18:56:23Z,376150.98,NULL,Können,unaweza,s,kiongozi,bustani,mienendo,NA,sdfdsf,NA,1,NA,NA,NA,NA,NA,NA,NA,NA,NA,NA,NA,NA,NA,NA,NA,NA,NA,NA,NA
c82e5,shallow,flow.Sequence,3_0_1_0_3_1,NA,NA,completion,10024.3,366097,366093.3,366110,376134.3,376138,2024-05-25T18:56:23Z,376150.98,NULL,Können,unaweza,s,kiongozi,bustani,mienendo,NA,sdfdsf,NA,1,NA,NA,NA,NA,NA,NA,NA,NA,NA,NA,NA,NA,NA,NA,NA,NA,NA,NA,NA
c82e5,task,flow.Sequence,3_0_1_0_3,NA,NA,completion,10024.3,366097,366093.3,366110,376134.3,376139,2024-05-25T18:56:23Z,376150.98,NULL,Können,unaweza,s,kiongozi,bustani,mienendo,NA,sdfdsf,NA,1,NA,NA,NA,NA,NA,NA,NA,NA,NA,NA,NA,NA,NA,NA,NA,NA,NA,NA,NA
c82e5,deep,flow.Sequence,3_0_1_0_4_0,NA,NA,skipped,NA,376139,NA,NA,376134.3,376139,2024-05-25T18:56:23Z,376150.98,NULL,Ausschluss,kutengwa,s,ununuzi,taratibu,madeni,NA,sdfdsf,NA,1,NA,NA,NA,NA,NA,NA,NA,NA,NA,NA,NA,NA,NA,NA,NA,NA,NA,NA,NA
c82e5,Shallow Question,html.Page,3_0_1_0_4_1_0,NA,NA,form submission,6992.02,376139,376134.3,376150.98,383143,383143,2024-05-25T18:56:30Z,383155.9,NULL,Ausschluss,kutengwa,s,ununuzi,taratibu,madeni,kutengwa,NA,NA,1,NA,NA,NA,NA,NA,NA,NA,NA,NA,NA,NA,NA,NA,NA,NA,NA,NA,NA,NA
c82e5,"""Richtig""-Screen",canvas.Screen,3_0_1_0_4_1_1,NA,NA,timeout,4992.68,383145,383139.58,383155.9,388131.9,388135,2024-05-25T18:56:35Z,388148.58,NULL,Ausschluss,kutengwa,s,ununuzi,taratibu,madeni,NA,sdfdsf,1,1,NA,NA,NA,NA,NA,NA,NA,NA,NA,NA,NA,NA,NA,NA,NA,NA,NA,NA,NA
c82e5,"""Falsch""-Screen",canvas.Screen,3_0_1_0_4_1_2,NA,NA,skipped,NA,388143,NA,NA,388131.9,388143,2024-05-25T18:56:35Z,388148.58,NULL,Ausschluss,kutengwa,s,ununuzi,taratibu,madeni,NA,sdfdsf,NA,1,NA,NA,NA,NA,NA,NA,NA,NA,NA,NA,NA,NA,NA,NA,NA,NA,NA,NA,NA
c82e5,shallow,flow.Sequence,3_0_1_0_4_1,NA,NA,completion,11980.92,376139,376134.3,376150.98,388131.9,388144,2024-05-25T18:56:35Z,388148.58,NULL,Ausschluss,kutengwa,s,ununuzi,taratibu,madeni,NA,sdfdsf,NA,1,NA,NA,NA,NA,NA,NA,NA,NA,NA,NA,NA,NA,NA,NA,NA,NA,NA,NA,NA
c82e5,task,flow.Sequence,3_0_1_0_4,NA,NA,completion,11980.92,376139,376134.3,376150.98,388131.9,388144,2024-05-25T18:56:35Z,388148.58,NULL,Ausschluss,kutengwa,s,ununuzi,taratibu,madeni,NA,sdfdsf,NA,1,NA,NA,NA,NA,NA,NA,NA,NA,NA,NA,NA,NA,NA,NA,NA,NA,NA,NA,NA
c82e5,deep,flow.Sequence,3_0_1_0_5_0,NA,NA,skipped,NA,388144,NA,NA,388131.9,388145,2024-05-25T18:56:35Z,388148.58,NULL,Kreativität,ubunifu,s,mratibu,mwendelezo,makubaliano,NA,sdfdsf,NA,1,NA,NA,NA,NA,NA,NA,NA,NA,NA,NA,NA,NA,NA,NA,NA,NA,NA,NA,NA
c82e5,Shallow Question,html.Page,3_0_1_0_5_1_0,NA,NA,form submission,5098.42,388145,388131.9,388148.58,393247,393247,2024-05-25T18:56:40Z,393254.26,NULL,Kreativität,ubunifu,s,mratibu,mwendelezo,makubaliano,makubaliano,NA,NA,1,NA,NA,NA,NA,NA,NA,NA,NA,NA,NA,NA,NA,NA,NA,NA,NA,NA,NA,NA
c82e5,"""Richtig""-Screen",canvas.Screen,3_0_1_0_5_1_1,NA,NA,skipped,NA,393249,NA,NA,393247,393249,2024-05-25T18:56:40Z,393254.26,NULL,Kreativität,ubunifu,s,mratibu,mwendelezo,makubaliano,NA,sdfdsf,NA,1,NA,NA,NA,NA,NA,NA,NA,NA,NA,NA,NA,NA,NA,NA,NA,NA,NA,NA,NA
c82e5,"""Falsch""-Screen",canvas.Screen,3_0_1_0_5_1_2,NA,NA,timeout,4997.68,393251,393242.48,393254.26,398235.26,398237,2024-05-25T18:56:45Z,398251.94,NULL,Kreativität,ubunifu,s,mratibu,mwendelezo,makubaliano,NA,sdfdsf,0,1,NA,NA,NA,NA,NA,NA,NA,NA,NA,NA,NA,NA,NA,NA,NA,NA,NA,NA,NA
c82e5,shallow,flow.Sequence,3_0_1_0_5_1,NA,NA,completion,10086.68,388145,388131.9,388148.58,398235.26,398238,2024-05-25T18:56:45Z,398251.94,NULL,Kreativität,ubunifu,s,mratibu,mwendelezo,makubaliano,NA,sdfdsf,NA,1,NA,NA,NA,NA,NA,NA,NA,NA,NA,NA,NA,NA,NA,NA,NA,NA,NA,NA,NA
c82e5,task,flow.Sequence,3_0_1_0_5,NA,NA,completion,10086.68,388144,388131.9,388148.58,398235.26,398238,2024-05-25T18:56:45Z,398251.94,NULL,Kreativität,ubunifu,s,mratibu,mwendelezo,makubaliano,NA,sdfdsf,NA,1,NA,NA,NA,NA,NA,NA,NA,NA,NA,NA,NA,NA,NA,NA,NA,NA,NA,NA,NA
c82e5,Deep Question,html.Page,3_0_1_0_6_0_0,NA,NA,form submission,9927.06,398238,398235.26,398251.94,408179,408180,2024-05-25T18:56:55Z,408182.78,NULL,Gefährdung,kuhatarisha,d,NA,NA,NA,kuhataschi,NA,NA,1,NA,NA,NA,NA,NA,NA,NA,NA,NA,NA,NA,NA,NA,NA,NA,NA,NA,NA,NA
c82e5,"""Richtig""-Screen",canvas.Screen,3_0_1_0_6_0_1,NA,NA,skipped,NA,408182,NA,NA,408179,408182,2024-05-25T18:56:55Z,408182.78,NULL,Gefährdung,kuhatarisha,d,NA,NA,NA,NA,sdfdsf,NA,1,NA,NA,NA,NA,NA,NA,NA,NA,NA,NA,NA,NA,NA,NA,NA,NA,NA,NA,NA
c82e5,"""Falsch""-Screen",canvas.Screen,3_0_1_0_6_0_2,NA,NA,timeout,4992.4,408184,408175.74,408182.78,413158.5,413159,2024-05-25T18:57:00Z,413175.18,NULL,Gefährdung,kuhatarisha,d,NA,NA,NA,NA,sdfdsf,0,1,NA,NA,NA,NA,NA,NA,NA,NA,NA,NA,NA,NA,NA,NA,NA,NA,NA,NA,NA
c82e5,deep,flow.Sequence,3_0_1_0_6_0,NA,NA,completion,14906.56,398238,398235.26,398251.94,413158.5,413159,2024-05-25T18:57:00Z,413175.18,NULL,Gefährdung,kuhatarisha,d,NA,NA,NA,NA,sdfdsf,NA,1,NA,NA,NA,NA,NA,NA,NA,NA,NA,NA,NA,NA,NA,NA,NA,NA,NA,NA,NA
c82e5,shallow,flow.Sequence,3_0_1_0_6_1,NA,NA,skipped,NA,413160,NA,NA,413158.5,413160,2024-05-25T18:57:00Z,413175.18,NULL,Gefährdung,kuhatarisha,d,NA,NA,NA,NA,sdfdsf,NA,1,NA,NA,NA,NA,NA,NA,NA,NA,NA,NA,NA,NA,NA,NA,NA,NA,NA,NA,NA
c82e5,task,flow.Sequence,3_0_1_0_6,NA,NA,completion,14906.56,398238,398235.26,398251.94,413158.5,413161,2024-05-25T18:57:00Z,413175.18,NULL,Gefährdung,kuhatarisha,d,NA,NA,NA,NA,sdfdsf,NA,1,NA,NA,NA,NA,NA,NA,NA,NA,NA,NA,NA,NA,NA,NA,NA,NA,NA,NA,NA
c82e5,Deep Question,html.Page,3_0_1_0_7_0_0,NA,NA,form submission,9671.82,413161,413158.5,413175.18,422847,422848,2024-05-25T18:57:10Z,422846.48,NULL,Verstand,ufahamivu,d,NA,NA,NA,usulubu,NA,NA,1,NA,NA,NA,NA,NA,NA,NA,NA,NA,NA,NA,NA,NA,NA,NA,NA,NA,NA,NA
c82e5,"""Richtig""-Screen",canvas.Screen,3_0_1_0_7_0_1,NA,NA,skipped,NA,422849,NA,NA,422847,422849,2024-05-25T18:57:10Z,422846.48,NULL,Verstand,ufahamivu,d,NA,NA,NA,NA,sdfdsf,NA,1,NA,NA,NA,NA,NA,NA,NA,NA,NA,NA,NA,NA,NA,NA,NA,NA,NA,NA,NA
c82e5,"""Falsch""-Screen",canvas.Screen,3_0_1_0_7_0_2,NA,NA,timeout,4993.52,422851,422844.42,422846.48,427823.3,427824,2024-05-25T18:57:15Z,427840,NULL,Verstand,ufahamivu,d,NA,NA,NA,NA,sdfdsf,0,1,NA,NA,NA,NA,NA,NA,NA,NA,NA,NA,NA,NA,NA,NA,NA,NA,NA,NA,NA
c82e5,deep,flow.Sequence,3_0_1_0_7_0,NA,NA,completion,14648.12,413161,413158.5,413175.18,427823.3,427824,2024-05-25T18:57:15Z,427840,NULL,Verstand,ufahamivu,d,NA,NA,NA,NA,sdfdsf,NA,1,NA,NA,NA,NA,NA,NA,NA,NA,NA,NA,NA,NA,NA,NA,NA,NA,NA,NA,NA
c82e5,shallow,flow.Sequence,3_0_1_0_7_1,NA,NA,skipped,NA,427824,NA,NA,427823.3,427824,2024-05-25T18:57:15Z,427840,NULL,Verstand,ufahamivu,d,NA,NA,NA,NA,sdfdsf,NA,1,NA,NA,NA,NA,NA,NA,NA,NA,NA,NA,NA,NA,NA,NA,NA,NA,NA,NA,NA
c82e5,task,flow.Sequence,3_0_1_0_7,NA,NA,completion,14648.12,413161,413158.5,413175.18,427823.3,427825,2024-05-25T18:57:15Z,427840,NULL,Verstand,ufahamivu,d,NA,NA,NA,NA,sdfdsf,NA,1,NA,NA,NA,NA,NA,NA,NA,NA,NA,NA,NA,NA,NA,NA,NA,NA,NA,NA,NA
c82e5,block,flow.Loop,3_0_1_0,NA,NA,completion,109032.92,318790,318790.04,318790.38,427823.3,427825,2024-05-25T18:57:15Z,427840,NULL,NA,NA,NA,NA,NA,NA,NA,sdfdsf,NA,1,NA,NA,NA,NA,NA,NA,NA,NA,NA,NA,NA,NA,NA,NA,NA,NA,NA,NA,NA
c82e5,weiter,canvas.Screen,3_0_1_1,sdf,keypress(Space),response,1128,427825,427823.3,427840,428968,428978,2024-05-25T18:57:16Z,429026.28,NULL,NA,NA,NA,NA,NA,NA,NA,sdfdsf,NA,1,NA,NA,NA,NA,NA,NA,NA,NA,NA,NA,NA,NA,NA,NA,NA,NA,NA,NA,NA
c82e5,check continue,flow.Sequence,3_0_1,NA,NA,completion,110177.62,318790,318790.04,318790.38,428968,428979,2024-05-25T18:57:16Z,429026.28,NULL,NA,NA,NA,NA,NA,NA,NA,sdfdsf,NA,1,NA,NA,NA,NA,NA,NA,NA,NA,NA,NA,NA,NA,NA,NA,NA,NA,NA,NA,NA
c82e5,deep,flow.Sequence,3_0_2_0_0_0,NA,NA,skipped,NA,429025,NA,NA,428968,429025,2024-05-25T18:57:16Z,429026.28,NULL,Kreativität,ubunifu,s,mratibu,mwendelezo,makubaliano,NA,sdf,NA,2,NA,NA,NA,NA,NA,NA,NA,NA,NA,NA,NA,NA,NA,NA,NA,NA,NA,NA,NA
c82e5,Shallow Question,html.Page,3_0_2_0_0_1_0,NA,NA,form submission,5430.72,429025,429025.86,429026.28,434457,434458,2024-05-25T18:57:21Z,434460.14,NULL,Kreativität,ubunifu,s,mratibu,mwendelezo,makubaliano,ubunifu,NA,NA,2,NA,NA,NA,NA,NA,NA,NA,NA,NA,NA,NA,NA,NA,NA,NA,NA,NA,NA,NA
c82e5,"""Richtig""-Screen",canvas.Screen,3_0_2_0_0_1_1,NA,NA,timeout,4999,434460,434454.04,434460.14,439442.44,439443,2024-05-25T18:57:26Z,439459.14,NULL,Kreativität,ubunifu,s,mratibu,mwendelezo,makubaliano,NA,sdf,1,2,NA,NA,NA,NA,NA,NA,NA,NA,NA,NA,NA,NA,NA,NA,NA,NA,NA,NA,NA
c82e5,"""Falsch""-Screen",canvas.Screen,3_0_2_0_0_1_2,NA,NA,skipped,NA,439445,NA,NA,439442.44,439445,2024-05-25T18:57:26Z,439459.14,NULL,Kreativität,ubunifu,s,mratibu,mwendelezo,makubaliano,NA,sdf,NA,2,NA,NA,NA,NA,NA,NA,NA,NA,NA,NA,NA,NA,NA,NA,NA,NA,NA,NA,NA
c82e5,shallow,flow.Sequence,3_0_2_0_0_1,NA,NA,completion,10416.16,429025,429025.86,429026.28,439442.44,439445,2024-05-25T18:57:26Z,439459.14,NULL,Kreativität,ubunifu,s,mratibu,mwendelezo,makubaliano,NA,sdf,NA,2,NA,NA,NA,NA,NA,NA,NA,NA,NA,NA,NA,NA,NA,NA,NA,NA,NA,NA,NA
c82e5,task,flow.Sequence,3_0_2_0_0,NA,NA,completion,10416.16,429025,429025.86,429026.28,439442.44,439446,2024-05-25T18:57:26Z,439459.14,NULL,Kreativität,ubunifu,s,mratibu,mwendelezo,makubaliano,NA,sdf,NA,2,NA,NA,NA,NA,NA,NA,NA,NA,NA,NA,NA,NA,NA,NA,NA,NA,NA,NA,NA
c82e5,Deep Question,html.Page,3_0_2_0_1_0_0,NA,NA,form submission,7297.86,439446,439442.44,439459.14,446757,446757,2024-05-25T18:57:34Z,446760.84,NULL,Gefährdung,kuhatarisha,d,NA,NA,NA,kuhatarischa,NA,NA,2,NA,NA,NA,NA,NA,NA,NA,NA,NA,NA,NA,NA,NA,NA,NA,NA,NA,NA,NA
c82e5,"""Richtig""-Screen",canvas.Screen,3_0_2_0_1_0_1,NA,NA,skipped,NA,446759,NA,NA,446757,446759,2024-05-25T18:57:34Z,446760.84,NULL,Gefährdung,kuhatarisha,d,NA,NA,NA,NA,sdf,NA,2,NA,NA,NA,NA,NA,NA,NA,NA,NA,NA,NA,NA,NA,NA,NA,NA,NA,NA,NA
c82e5,"""Falsch""-Screen",canvas.Screen,3_0_2_0_1_0_2,NA,NA,timeout,5002.14,446762,446754.42,446760.84,451746.3,451748,2024-05-25T18:57:39Z,451762.98,NULL,Gefährdung,kuhatarisha,d,NA,NA,NA,NA,sdf,0,2,NA,NA,NA,NA,NA,NA,NA,NA,NA,NA,NA,NA,NA,NA,NA,NA,NA,NA,NA
c82e5,deep,flow.Sequence,3_0_2_0_1_0,NA,NA,completion,12287.16,439446,439442.44,439459.14,451746.3,451748,2024-05-25T18:57:39Z,451762.98,NULL,Gefährdung,kuhatarisha,d,NA,NA,NA,NA,sdf,NA,2,NA,NA,NA,NA,NA,NA,NA,NA,NA,NA,NA,NA,NA,NA,NA,NA,NA,NA,NA
c82e5,shallow,flow.Sequence,3_0_2_0_1_1,NA,NA,skipped,NA,451748,NA,NA,451746.3,451748,2024-05-25T18:57:39Z,451762.98,NULL,Gefährdung,kuhatarisha,d,NA,NA,NA,NA,sdf,NA,2,NA,NA,NA,NA,NA,NA,NA,NA,NA,NA,NA,NA,NA,NA,NA,NA,NA,NA,NA
c82e5,task,flow.Sequence,3_0_2_0_1,NA,NA,completion,12287.16,439446,439442.44,439459.14,451746.3,451748,2024-05-25T18:57:39Z,451762.98,NULL,Gefährdung,kuhatarisha,d,NA,NA,NA,NA,sdf,NA,2,NA,NA,NA,NA,NA,NA,NA,NA,NA,NA,NA,NA,NA,NA,NA,NA,NA,NA,NA
c82e5,deep,flow.Sequence,3_0_2_0_2_0,NA,NA,skipped,NA,451748,NA,NA,451746.3,451748,2024-05-25T18:57:39Z,451762.98,NULL,Können,unaweza,s,kiongozi,bustani,mienendo,NA,sdf,NA,2,NA,NA,NA,NA,NA,NA,NA,NA,NA,NA,NA,NA,NA,NA,NA,NA,NA,NA,NA
c82e5,Shallow Question,html.Page,3_0_2_0_2_1_0,NA,NA,form submission,3867.02,451748,451746.3,451762.98,455630,455630,2024-05-25T18:57:42Z,455640.52,NULL,Können,unaweza,s,kiongozi,bustani,mienendo,unaweza,NA,NA,2,NA,NA,NA,NA,NA,NA,NA,NA,NA,NA,NA,NA,NA,NA,NA,NA,NA,NA,NA
c82e5,"""Richtig""-Screen",canvas.Screen,3_0_2_0_2_1_1,NA,NA,timeout,4996.68,455632,455627.14,455640.52,460620.52,460622,2024-05-25T18:57:47Z,460637.2,NULL,Können,unaweza,s,kiongozi,bustani,mienendo,NA,sdf,1,2,NA,NA,NA,NA,NA,NA,NA,NA,NA,NA,NA,NA,NA,NA,NA,NA,NA,NA,NA
c82e5,"""Falsch""-Screen",canvas.Screen,3_0_2_0_2_1_2,NA,NA,skipped,NA,460624,NA,NA,460620.52,460624,2024-05-25T18:57:47Z,460637.2,NULL,Können,unaweza,s,kiongozi,bustani,mienendo,NA,sdf,NA,2,NA,NA,NA,NA,NA,NA,NA,NA,NA,NA,NA,NA,NA,NA,NA,NA,NA,NA,NA
c82e5,shallow,flow.Sequence,3_0_2_0_2_1,NA,NA,completion,8857.54,451748,451746.3,451762.98,460620.52,460624,2024-05-25T18:57:47Z,460637.2,NULL,Können,unaweza,s,kiongozi,bustani,mienendo,NA,sdf,NA,2,NA,NA,NA,NA,NA,NA,NA,NA,NA,NA,NA,NA,NA,NA,NA,NA,NA,NA,NA
c82e5,task,flow.Sequence,3_0_2_0_2,NA,NA,completion,8857.54,451748,451746.3,451762.98,460620.52,460624,2024-05-25T18:57:47Z,460637.2,NULL,Können,unaweza,s,kiongozi,bustani,mienendo,NA,sdf,NA,2,NA,NA,NA,NA,NA,NA,NA,NA,NA,NA,NA,NA,NA,NA,NA,NA,NA,NA,NA
c82e5,Deep Question,html.Page,3_0_2_0_3_0_0,NA,NA,form submission,6332.8,460624,460620.52,460637.2,466970,466971,2024-05-25T18:57:54Z,466982.62,NULL,Verstand,ufahamivu,d,NA,NA,NA,usuklubu,NA,NA,2,NA,NA,NA,NA,NA,NA,NA,NA,NA,NA,NA,NA,NA,NA,NA,NA,NA,NA,NA
c82e5,"""Richtig""-Screen",canvas.Screen,3_0_2_0_3_0_1,NA,NA,skipped,NA,466972,NA,NA,466970,466972,2024-05-25T18:57:54Z,466982.62,NULL,Verstand,ufahamivu,d,NA,NA,NA,NA,sdf,NA,2,NA,NA,NA,NA,NA,NA,NA,NA,NA,NA,NA,NA,NA,NA,NA,NA,NA,NA,NA
c82e5,"""Falsch""-Screen",canvas.Screen,3_0_2_0_3_0_2,NA,NA,timeout,4994.3,466973,466967.46,466982.62,471960.24,471963,2024-05-25T18:57:59Z,471976.92,NULL,Verstand,ufahamivu,d,NA,NA,NA,NA,sdf,0,2,NA,NA,NA,NA,NA,NA,NA,NA,NA,NA,NA,NA,NA,NA,NA,NA,NA,NA,NA
c82e5,deep,flow.Sequence,3_0_2_0_3_0,NA,NA,completion,11323.04,460624,460620.52,460637.2,471960.24,471964,2024-05-25T18:57:59Z,471976.92,NULL,Verstand,ufahamivu,d,NA,NA,NA,NA,sdf,NA,2,NA,NA,NA,NA,NA,NA,NA,NA,NA,NA,NA,NA,NA,NA,NA,NA,NA,NA,NA
c82e5,shallow,flow.Sequence,3_0_2_0_3_1,NA,NA,skipped,NA,471964,NA,NA,471960.24,471965,2024-05-25T18:57:59Z,471976.92,NULL,Verstand,ufahamivu,d,NA,NA,NA,NA,sdf,NA,2,NA,NA,NA,NA,NA,NA,NA,NA,NA,NA,NA,NA,NA,NA,NA,NA,NA,NA,NA
c82e5,task,flow.Sequence,3_0_2_0_3,NA,NA,completion,11323.04,460624,460620.52,460637.2,471960.24,471965,2024-05-25T18:57:59Z,471976.92,NULL,Verstand,ufahamivu,d,NA,NA,NA,NA,sdf,NA,2,NA,NA,NA,NA,NA,NA,NA,NA,NA,NA,NA,NA,NA,NA,NA,NA,NA,NA,NA
c82e5,deep,flow.Sequence,3_0_2_0_4_0,NA,NA,skipped,NA,471966,NA,NA,471960.24,471966,2024-05-25T18:57:59Z,471976.92,NULL,Gelegenheit,wakati,s,mchanganyiko,kipaumbele,kushuku,NA,sdf,NA,2,NA,NA,NA,NA,NA,NA,NA,NA,NA,NA,NA,NA,NA,NA,NA,NA,NA,NA,NA
c82e5,Shallow Question,html.Page,3_0_2_0_4_1_0,NA,NA,form submission,2988.08,471967,471960.24,471976.92,474965,474966,2024-05-25T18:58:02Z,474963.74,NULL,Gelegenheit,wakati,s,mchanganyiko,kipaumbele,kushuku,wakati,NA,NA,2,NA,NA,NA,NA,NA,NA,NA,NA,NA,NA,NA,NA,NA,NA,NA,NA,NA,NA,NA
c82e5,"""Richtig""-Screen",canvas.Screen,3_0_2_0_4_1_1,NA,NA,timeout,5016.96,474971,474961.94,474963.74,479946.46,479975,2024-05-25T18:58:07Z,479980.7,NULL,Gelegenheit,wakati,s,mchanganyiko,kipaumbele,kushuku,NA,sdf,1,2,NA,NA,NA,NA,NA,NA,NA,NA,NA,NA,NA,NA,NA,NA,NA,NA,NA,NA,NA
c82e5,"""Falsch""-Screen",canvas.Screen,3_0_2_0_4_1_2,NA,NA,skipped,NA,479977,NA,NA,479946.46,479977,2024-05-25T18:58:07Z,479980.7,NULL,Gelegenheit,wakati,s,mchanganyiko,kipaumbele,kushuku,NA,sdf,NA,2,NA,NA,NA,NA,NA,NA,NA,NA,NA,NA,NA,NA,NA,NA,NA,NA,NA,NA,NA
c82e5,shallow,flow.Sequence,3_0_2_0_4_1,NA,NA,completion,7969.54,471967,471960.24,471976.92,479946.46,479977,2024-05-25T18:58:07Z,479980.7,NULL,Gelegenheit,wakati,s,mchanganyiko,kipaumbele,kushuku,NA,sdf,NA,2,NA,NA,NA,NA,NA,NA,NA,NA,NA,NA,NA,NA,NA,NA,NA,NA,NA,NA,NA
c82e5,task,flow.Sequence,3_0_2_0_4,NA,NA,completion,7969.54,471966,471960.24,471976.92,479946.46,479977,2024-05-25T18:58:07Z,479980.7,NULL,Gelegenheit,wakati,s,mchanganyiko,kipaumbele,kushuku,NA,sdf,NA,2,NA,NA,NA,NA,NA,NA,NA,NA,NA,NA,NA,NA,NA,NA,NA,NA,NA,NA,NA
c82e5,Deep Question,html.Page,3_0_2_0_5_0_0,NA,NA,form submission,7534.3,479977,479946.46,479980.7,487515,487516,2024-05-25T18:58:14Z,487526.04,NULL,Widerstand,usulubu,d,NA,NA,NA,usulubu,NA,NA,2,NA,NA,NA,NA,NA,NA,NA,NA,NA,NA,NA,NA,NA,NA,NA,NA,NA,NA,NA
c82e5,"""Richtig""-Screen",canvas.Screen,3_0_2_0_5_0_1,NA,NA,timeout,4993.36,487517,487510.96,487526.04,492502.72,492504,2024-05-25T18:58:19Z,492519.4,NULL,Widerstand,usulubu,d,NA,NA,NA,NA,sdf,1,2,NA,NA,NA,NA,NA,NA,NA,NA,NA,NA,NA,NA,NA,NA,NA,NA,NA,NA,NA
c82e5,"""Falsch""-Screen",canvas.Screen,3_0_2_0_5_0_2,NA,NA,skipped,NA,492506,NA,NA,492502.72,492506,2024-05-25T18:58:19Z,492519.4,NULL,Widerstand,usulubu,d,NA,NA,NA,NA,sdf,NA,2,NA,NA,NA,NA,NA,NA,NA,NA,NA,NA,NA,NA,NA,NA,NA,NA,NA,NA,NA
c82e5,deep,flow.Sequence,3_0_2_0_5_0,NA,NA,completion,12522.02,479977,479946.46,479980.7,492502.72,492506,2024-05-25T18:58:19Z,492519.4,NULL,Widerstand,usulubu,d,NA,NA,NA,NA,sdf,NA,2,NA,NA,NA,NA,NA,NA,NA,NA,NA,NA,NA,NA,NA,NA,NA,NA,NA,NA,NA
c82e5,shallow,flow.Sequence,3_0_2_0_5_1,NA,NA,skipped,NA,492506,NA,NA,492502.72,492506,2024-05-25T18:58:19Z,492519.4,NULL,Widerstand,usulubu,d,NA,NA,NA,NA,sdf,NA,2,NA,NA,NA,NA,NA,NA,NA,NA,NA,NA,NA,NA,NA,NA,NA,NA,NA,NA,NA
c82e5,task,flow.Sequence,3_0_2_0_5,NA,NA,completion,12522.02,479977,479946.46,479980.7,492502.72,492507,2024-05-25T18:58:19Z,492519.4,NULL,Widerstand,usulubu,d,NA,NA,NA,NA,sdf,NA,2,NA,NA,NA,NA,NA,NA,NA,NA,NA,NA,NA,NA,NA,NA,NA,NA,NA,NA,NA
c82e5,deep,flow.Sequence,3_0_2_0_6_0,NA,NA,skipped,NA,492507,NA,NA,492502.72,492507,2024-05-25T18:58:19Z,492519.4,NULL,Ausschluss,kutengwa,s,ununuzi,taratibu,madeni,NA,sdf,NA,2,NA,NA,NA,NA,NA,NA,NA,NA,NA,NA,NA,NA,NA,NA,NA,NA,NA,NA,NA
c82e5,Shallow Question,html.Page,3_0_2_0_6_1_0,NA,NA,form submission,5008.6,492507,492502.72,492519.4,497528,497529,2024-05-25T18:58:24Z,497531.92,NULL,Ausschluss,kutengwa,s,ununuzi,taratibu,madeni,kutengwa,NA,NA,2,NA,NA,NA,NA,NA,NA,NA,NA,NA,NA,NA,NA,NA,NA,NA,NA,NA,NA,NA
c82e5,"""Richtig""-Screen",canvas.Screen,3_0_2_0_6_1_1,NA,NA,timeout,5006.78,497530,497524.78,497531.92,502522.02,502524,2024-05-25T18:58:29Z,502538.7,NULL,Ausschluss,kutengwa,s,ununuzi,taratibu,madeni,NA,sdf,1,2,NA,NA,NA,NA,NA,NA,NA,NA,NA,NA,NA,NA,NA,NA,NA,NA,NA,NA,NA
c82e5,"""Falsch""-Screen",canvas.Screen,3_0_2_0_6_1_2,NA,NA,skipped,NA,502526,NA,NA,502522.02,502526,2024-05-25T18:58:29Z,502538.7,NULL,Ausschluss,kutengwa,s,ununuzi,taratibu,madeni,NA,sdf,NA,2,NA,NA,NA,NA,NA,NA,NA,NA,NA,NA,NA,NA,NA,NA,NA,NA,NA,NA,NA
c82e5,shallow,flow.Sequence,3_0_2_0_6_1,NA,NA,completion,10002.62,492507,492502.72,492519.4,502522.02,502526,2024-05-25T18:58:29Z,502538.7,NULL,Ausschluss,kutengwa,s,ununuzi,taratibu,madeni,NA,sdf,NA,2,NA,NA,NA,NA,NA,NA,NA,NA,NA,NA,NA,NA,NA,NA,NA,NA,NA,NA,NA
c82e5,task,flow.Sequence,3_0_2_0_6,NA,NA,completion,10002.62,492507,492502.72,492519.4,502522.02,502526,2024-05-25T18:58:29Z,502538.7,NULL,Ausschluss,kutengwa,s,ununuzi,taratibu,madeni,NA,sdf,NA,2,NA,NA,NA,NA,NA,NA,NA,NA,NA,NA,NA,NA,NA,NA,NA,NA,NA,NA,NA
c82e5,Deep Question,html.Page,3_0_2_0_7_0_0,NA,NA,form submission,16475.3,502526,502522.02,502538.7,519014,519016,2024-05-25T18:58:46Z,519026.86,NULL,Kontrolle,kudhibiti,d,NA,NA,NA,kuhatarisha,NA,NA,2,NA,NA,NA,NA,NA,NA,NA,NA,NA,NA,NA,NA,NA,NA,NA,NA,NA,NA,NA
c82e5,"""Richtig""-Screen",canvas.Screen,3_0_2_0_7_0_1,NA,NA,skipped,NA,519017,NA,NA,519014,519017,2024-05-25T18:58:46Z,519026.86,NULL,Kontrolle,kudhibiti,d,NA,NA,NA,NA,sdf,NA,2,NA,NA,NA,NA,NA,NA,NA,NA,NA,NA,NA,NA,NA,NA,NA,NA,NA,NA,NA
c82e5,"""Falsch""-Screen",canvas.Screen,3_0_2_0_7_0_2,NA,NA,timeout,5022.78,519019,519011.58,519026.86,524016.36,524041,2024-05-25T18:58:51Z,524049.64,NULL,Kontrolle,kudhibiti,d,NA,NA,NA,NA,sdf,0,2,NA,NA,NA,NA,NA,NA,NA,NA,NA,NA,NA,NA,NA,NA,NA,NA,NA,NA,NA
c82e5,deep,flow.Sequence,3_0_2_0_7_0,NA,NA,completion,21477.66,502526,502522.02,502538.7,524016.36,524041,2024-05-25T18:58:51Z,524049.64,NULL,Kontrolle,kudhibiti,d,NA,NA,NA,NA,sdf,NA,2,NA,NA,NA,NA,NA,NA,NA,NA,NA,NA,NA,NA,NA,NA,NA,NA,NA,NA,NA
c82e5,shallow,flow.Sequence,3_0_2_0_7_1,NA,NA,skipped,NA,524041,NA,NA,524016.36,524042,2024-05-25T18:58:51Z,524049.64,NULL,Kontrolle,kudhibiti,d,NA,NA,NA,NA,sdf,NA,2,NA,NA,NA,NA,NA,NA,NA,NA,NA,NA,NA,NA,NA,NA,NA,NA,NA,NA,NA
c82e5,task,flow.Sequence,3_0_2_0_7,NA,NA,completion,21477.66,502526,502522.02,502538.7,524016.36,524042,2024-05-25T18:58:51Z,524049.64,NULL,Kontrolle,kudhibiti,d,NA,NA,NA,NA,sdf,NA,2,NA,NA,NA,NA,NA,NA,NA,NA,NA,NA,NA,NA,NA,NA,NA,NA,NA,NA,NA
c82e5,block,flow.Loop,3_0_2_0,NA,NA,completion,94990.08,429025,429025.86,429026.28,524016.36,524042,2024-05-25T18:58:51Z,524049.64,NULL,NA,NA,NA,NA,NA,NA,NA,sdf,NA,2,NA,NA,NA,NA,NA,NA,NA,NA,NA,NA,NA,NA,NA,NA,NA,NA,NA,NA,NA
c82e5,weiter,canvas.Screen,3_0_2_1,sdf,keypress(Space),response,1403.36,524042,524016.36,524049.64,525453,525460,2024-05-25T18:58:52Z,525505.06,NULL,NA,NA,NA,NA,NA,NA,NA,sdf,NA,2,NA,NA,NA,NA,NA,NA,NA,NA,NA,NA,NA,NA,NA,NA,NA,NA,NA,NA,NA
c82e5,check continue,flow.Sequence,3_0_2,NA,NA,completion,96426.72,429025,429025.86,429026.28,525453,525460,2024-05-25T18:58:52Z,525505.06,NULL,NA,NA,NA,NA,NA,NA,NA,sdf,NA,2,NA,NA,NA,NA,NA,NA,NA,NA,NA,NA,NA,NA,NA,NA,NA,NA,NA,NA,NA
c82e5,deep,flow.Sequence,3_0_3_0_0_0,NA,NA,skipped,NA,525504,NA,NA,525453,525504,2024-05-25T18:58:52Z,525505.06,NULL,Können,unaweza,s,kiongozi,bustani,mienendo,NA,qt,NA,3,NA,NA,NA,NA,NA,NA,NA,NA,NA,NA,NA,NA,NA,NA,NA,NA,NA,NA,NA
c82e5,Shallow Question,html.Page,3_0_3_0_0_1_0,NA,NA,form submission,4499.9399999999,525505,525504.68,525505.06,530005,530005,2024-05-25T18:58:57Z,530000.76,NULL,Können,unaweza,s,kiongozi,bustani,mienendo,unaweza,NA,NA,3,NA,NA,NA,NA,NA,NA,NA,NA,NA,NA,NA,NA,NA,NA,NA,NA,NA,NA,NA
c82e5,"""Richtig""-Screen",canvas.Screen,3_0_3_0_0_1_1,NA,NA,timeout,4993.38,530011,529999.06,530000.76,534977.46,534980,2024-05-25T18:59:02Z,534994.14,NULL,Können,unaweza,s,kiongozi,bustani,mienendo,NA,qt,1,3,NA,NA,NA,NA,NA,NA,NA,NA,NA,NA,NA,NA,NA,NA,NA,NA,NA,NA,NA
c82e5,"""Falsch""-Screen",canvas.Screen,3_0_3_0_0_1_2,NA,NA,skipped,NA,534983,NA,NA,534977.46,534983,2024-05-25T18:59:02Z,534994.14,NULL,Können,unaweza,s,kiongozi,bustani,mienendo,NA,qt,NA,3,NA,NA,NA,NA,NA,NA,NA,NA,NA,NA,NA,NA,NA,NA,NA,NA,NA,NA,NA
c82e5,shallow,flow.Sequence,3_0_3_0_0_1,NA,NA,completion,9472.3999999999,525505,525504.68,525505.06,534977.46,534983,2024-05-25T18:59:02Z,534994.14,NULL,Können,unaweza,s,kiongozi,bustani,mienendo,NA,qt,NA,3,NA,NA,NA,NA,NA,NA,NA,NA,NA,NA,NA,NA,NA,NA,NA,NA,NA,NA,NA
c82e5,task,flow.Sequence,3_0_3_0_0,NA,NA,completion,9472.3999999999,525504,525504.68,525505.06,534977.46,534983,2024-05-25T18:59:02Z,534994.14,NULL,Können,unaweza,s,kiongozi,bustani,mienendo,NA,qt,NA,3,NA,NA,NA,NA,NA,NA,NA,NA,NA,NA,NA,NA,NA,NA,NA,NA,NA,NA,NA
c82e5,deep,flow.Sequence,3_0_3_0_1_0,NA,NA,skipped,NA,534983,NA,NA,534977.46,534983,2024-05-25T18:59:02Z,534994.14,NULL,Ausschluss,kutengwa,s,ununuzi,taratibu,madeni,NA,qt,NA,3,NA,NA,NA,NA,NA,NA,NA,NA,NA,NA,NA,NA,NA,NA,NA,NA,NA,NA,NA
c82e5,Shallow Question,html.Page,3_0_3_0_1_1_0,NA,NA,form submission,4300.86,534984,534977.46,534994.14,539295,539296,2024-05-25T18:59:06Z,539303.38,NULL,Ausschluss,kutengwa,s,ununuzi,taratibu,madeni,kutengwa,NA,NA,3,NA,NA,NA,NA,NA,NA,NA,NA,NA,NA,NA,NA,NA,NA,NA,NA,NA,NA,NA
c82e5,"""Richtig""-Screen",canvas.Screen,3_0_3_0_1_1_1,NA,NA,timeout,4996.0599999999,539297,539291.36,539303.38,544282.76,544284,2024-05-25T18:59:11Z,544299.44,NULL,Ausschluss,kutengwa,s,ununuzi,taratibu,madeni,NA,qt,1,3,NA,NA,NA,NA,NA,NA,NA,NA,NA,NA,NA,NA,NA,NA,NA,NA,NA,NA,NA
c82e5,"""Falsch""-Screen",canvas.Screen,3_0_3_0_1_1_2,NA,NA,skipped,NA,544286,NA,NA,544282.76,544286,2024-05-25T18:59:11Z,544299.44,NULL,Ausschluss,kutengwa,s,ununuzi,taratibu,madeni,NA,qt,NA,3,NA,NA,NA,NA,NA,NA,NA,NA,NA,NA,NA,NA,NA,NA,NA,NA,NA,NA,NA
c82e5,shallow,flow.Sequence,3_0_3_0_1_1,NA,NA,completion,9288.62,534983,534977.46,534994.14,544282.76,544287,2024-05-25T18:59:11Z,544299.44,NULL,Ausschluss,kutengwa,s,ununuzi,taratibu,madeni,NA,qt,NA,3,NA,NA,NA,NA,NA,NA,NA,NA,NA,NA,NA,NA,NA,NA,NA,NA,NA,NA,NA
c82e5,task,flow.Sequence,3_0_3_0_1,NA,NA,completion,9288.62,534983,534977.46,534994.14,544282.76,544287,2024-05-25T18:59:11Z,544299.44,NULL,Ausschluss,kutengwa,s,ununuzi,taratibu,madeni,NA,qt,NA,3,NA,NA,NA,NA,NA,NA,NA,NA,NA,NA,NA,NA,NA,NA,NA,NA,NA,NA,NA
c82e5,Deep Question,html.Page,3_0_3_0_2_0_0,NA,NA,form submission,8631.5600000001,544287,544282.76,544299.44,552931,552931,2024-05-25T18:59:20Z,552929.16,NULL,Verstand,ufahamivu,d,NA,NA,NA,usulubu,NA,NA,3,NA,NA,NA,NA,NA,NA,NA,NA,NA,NA,NA,NA,NA,NA,NA,NA,NA,NA,NA
c82e5,"""Richtig""-Screen",canvas.Screen,3_0_3_0_2_0_1,NA,NA,skipped,NA,552933,NA,NA,552931,552933,2024-05-25T18:59:20Z,552929.16,NULL,Verstand,ufahamivu,d,NA,NA,NA,NA,qt,NA,3,NA,NA,NA,NA,NA,NA,NA,NA,NA,NA,NA,NA,NA,NA,NA,NA,NA,NA,NA
c82e5,"""Falsch""-Screen",canvas.Screen,3_0_3_0_2_0_2,NA,NA,timeout,4991.8199999999,552935,552926.88,552929.16,557904.28,557906,2024-05-25T18:59:25Z,557920.98,NULL,Verstand,ufahamivu,d,NA,NA,NA,NA,qt,0,3,NA,NA,NA,NA,NA,NA,NA,NA,NA,NA,NA,NA,NA,NA,NA,NA,NA,NA,NA
c82e5,deep,flow.Sequence,3_0_3_0_2_0,NA,NA,completion,13604.84,544287,544282.76,544299.44,557904.28,557907,2024-05-25T18:59:25Z,557920.98,NULL,Verstand,ufahamivu,d,NA,NA,NA,NA,qt,NA,3,NA,NA,NA,NA,NA,NA,NA,NA,NA,NA,NA,NA,NA,NA,NA,NA,NA,NA,NA
c82e5,shallow,flow.Sequence,3_0_3_0_2_1,NA,NA,skipped,NA,557907,NA,NA,557904.28,557907,2024-05-25T18:59:25Z,557920.98,NULL,Verstand,ufahamivu,d,NA,NA,NA,NA,qt,NA,3,NA,NA,NA,NA,NA,NA,NA,NA,NA,NA,NA,NA,NA,NA,NA,NA,NA,NA,NA
c82e5,task,flow.Sequence,3_0_3_0_2,NA,NA,completion,13604.84,544287,544282.76,544299.44,557904.28,557907,2024-05-25T18:59:25Z,557920.98,NULL,Verstand,ufahamivu,d,NA,NA,NA,NA,qt,NA,3,NA,NA,NA,NA,NA,NA,NA,NA,NA,NA,NA,NA,NA,NA,NA,NA,NA,NA,NA
c82e5,Deep Question,html.Page,3_0_3_0_3_0_0,NA,NA,form submission,6087.02,557907,557904.28,557920.98,564008,564008,2024-05-25T18:59:31Z,564010.52,NULL,Widerstand,usulubu,d,NA,NA,NA,usulubu,NA,NA,3,NA,NA,NA,NA,NA,NA,NA,NA,NA,NA,NA,NA,NA,NA,NA,NA,NA,NA,NA
c82e5,"""Richtig""-Screen",canvas.Screen,3_0_3_0_3_0_1,NA,NA,timeout,4997.6,564010,564005.24,564010.52,568991.44,568993,2024-05-25T18:59:36Z,569008.12,NULL,Widerstand,usulubu,d,NA,NA,NA,NA,qt,1,3,NA,NA,NA,NA,NA,NA,NA,NA,NA,NA,NA,NA,NA,NA,NA,NA,NA,NA,NA
c82e5,"""Falsch""-Screen",canvas.Screen,3_0_3_0_3_0_2,NA,NA,skipped,NA,568995,NA,NA,568991.44,568995,2024-05-25T18:59:36Z,569008.12,NULL,Widerstand,usulubu,d,NA,NA,NA,NA,qt,NA,3,NA,NA,NA,NA,NA,NA,NA,NA,NA,NA,NA,NA,NA,NA,NA,NA,NA,NA,NA
c82e5,deep,flow.Sequence,3_0_3_0_3_0,NA,NA,completion,11070.46,557907,557904.28,557920.98,568991.44,568995,2024-05-25T18:59:36Z,569008.12,NULL,Widerstand,usulubu,d,NA,NA,NA,NA,qt,NA,3,NA,NA,NA,NA,NA,NA,NA,NA,NA,NA,NA,NA,NA,NA,NA,NA,NA,NA,NA
c82e5,shallow,flow.Sequence,3_0_3_0_3_1,NA,NA,skipped,NA,568995,NA,NA,568991.44,568995,2024-05-25T18:59:36Z,569008.12,NULL,Widerstand,usulubu,d,NA,NA,NA,NA,qt,NA,3,NA,NA,NA,NA,NA,NA,NA,NA,NA,NA,NA,NA,NA,NA,NA,NA,NA,NA,NA
c82e5,task,flow.Sequence,3_0_3_0_3,NA,NA,completion,11070.46,557907,557904.28,557920.98,568991.44,568996,2024-05-25T18:59:36Z,569008.12,NULL,Widerstand,usulubu,d,NA,NA,NA,NA,qt,NA,3,NA,NA,NA,NA,NA,NA,NA,NA,NA,NA,NA,NA,NA,NA,NA,NA,NA,NA,NA
c82e5,deep,flow.Sequence,3_0_3_0_4_0,NA,NA,skipped,NA,568997,NA,NA,568991.44,568997,2024-05-25T18:59:36Z,569008.12,NULL,Kreativität,ubunifu,s,mratibu,mwendelezo,makubaliano,NA,qt,NA,3,NA,NA,NA,NA,NA,NA,NA,NA,NA,NA,NA,NA,NA,NA,NA,NA,NA,NA,NA
c82e5,Shallow Question,html.Page,3_0_3_0_4_1_0,NA,NA,form submission,6316.88,568997,568991.44,569008.12,575325,575326,2024-05-25T18:59:42Z,575326.02,NULL,Kreativität,ubunifu,s,mratibu,mwendelezo,makubaliano,ubunifu,NA,NA,3,NA,NA,NA,NA,NA,NA,NA,NA,NA,NA,NA,NA,NA,NA,NA,NA,NA,NA,NA
c82e5,"""Richtig""-Screen",canvas.Screen,3_0_3_0_4_1_1,NA,NA,timeout,4999.48,575327,575322.06,575326.02,580308.92,580325,2024-05-25T18:59:47Z,580325.5,NULL,Kreativität,ubunifu,s,mratibu,mwendelezo,makubaliano,NA,qt,1,3,NA,NA,NA,NA,NA,NA,NA,NA,NA,NA,NA,NA,NA,NA,NA,NA,NA,NA,NA
c82e5,"""Falsch""-Screen",canvas.Screen,3_0_3_0_4_1_2,NA,NA,skipped,NA,580327,NA,NA,580308.92,580327,2024-05-25T18:59:47Z,580325.5,NULL,Kreativität,ubunifu,s,mratibu,mwendelezo,makubaliano,NA,qt,NA,3,NA,NA,NA,NA,NA,NA,NA,NA,NA,NA,NA,NA,NA,NA,NA,NA,NA,NA,NA
c82e5,shallow,flow.Sequence,3_0_3_0_4_1,NA,NA,completion,11300.8,568997,568991.44,569008.12,580308.92,580327,2024-05-25T18:59:47Z,580325.5,NULL,Kreativität,ubunifu,s,mratibu,mwendelezo,makubaliano,NA,qt,NA,3,NA,NA,NA,NA,NA,NA,NA,NA,NA,NA,NA,NA,NA,NA,NA,NA,NA,NA,NA
c82e5,task,flow.Sequence,3_0_3_0_4,NA,NA,completion,11300.8,568996,568991.44,569008.12,580308.92,580328,2024-05-25T18:59:47Z,580325.5,NULL,Kreativität,ubunifu,s,mratibu,mwendelezo,makubaliano,NA,qt,NA,3,NA,NA,NA,NA,NA,NA,NA,NA,NA,NA,NA,NA,NA,NA,NA,NA,NA,NA,NA
c82e5,Deep Question,html.Page,3_0_3_0_5_0_0,NA,NA,form submission,13975.5,580328,580308.92,580325.5,594301,594301,2024-05-25T19:00:01Z,594299,NULL,Kontrolle,kudhibiti,d,NA,NA,NA,b,NA,NA,3,NA,NA,NA,NA,NA,NA,NA,NA,NA,NA,NA,NA,NA,NA,NA,NA,NA,NA,NA
c82e5,"""Richtig""-Screen",canvas.Screen,3_0_3_0_5_0_1,NA,NA,skipped,NA,594302,NA,NA,594301,594302,2024-05-25T19:00:01Z,594299,NULL,Kontrolle,kudhibiti,d,NA,NA,NA,NA,qt,NA,3,NA,NA,NA,NA,NA,NA,NA,NA,NA,NA,NA,NA,NA,NA,NA,NA,NA,NA,NA
c82e5,"""Falsch""-Screen",canvas.Screen,3_0_3_0_5_0_2,NA,NA,timeout,4992.84,594304,594297.56,594299,599275.2,599277,2024-05-25T19:00:06Z,599291.84,NULL,Kontrolle,kudhibiti,d,NA,NA,NA,NA,qt,0,3,NA,NA,NA,NA,NA,NA,NA,NA,NA,NA,NA,NA,NA,NA,NA,NA,NA,NA,NA
c82e5,deep,flow.Sequence,3_0_3_0_5_0,NA,NA,completion,18949.7,580328,580308.92,580325.5,599275.2,599277,2024-05-25T19:00:06Z,599291.84,NULL,Kontrolle,kudhibiti,d,NA,NA,NA,NA,qt,NA,3,NA,NA,NA,NA,NA,NA,NA,NA,NA,NA,NA,NA,NA,NA,NA,NA,NA,NA,NA
c82e5,shallow,flow.Sequence,3_0_3_0_5_1,NA,NA,skipped,NA,599277,NA,NA,599275.2,599277,2024-05-25T19:00:06Z,599291.84,NULL,Kontrolle,kudhibiti,d,NA,NA,NA,NA,qt,NA,3,NA,NA,NA,NA,NA,NA,NA,NA,NA,NA,NA,NA,NA,NA,NA,NA,NA,NA,NA
c82e5,task,flow.Sequence,3_0_3_0_5,NA,NA,completion,18949.7,580328,580308.92,580325.5,599275.2,599277,2024-05-25T19:00:06Z,599291.84,NULL,Kontrolle,kudhibiti,d,NA,NA,NA,NA,qt,NA,3,NA,NA,NA,NA,NA,NA,NA,NA,NA,NA,NA,NA,NA,NA,NA,NA,NA,NA,NA
c82e5,Deep Question,html.Page,3_0_3_0_6_0_0,NA,NA,form submission,7616.16,599278,599275.2,599291.84,606908,606909,2024-05-25T19:00:14Z,606917.32,NULL,Gefährdung,kuhatarisha,d,NA,NA,NA,kuhatarisha,NA,NA,3,NA,NA,NA,NA,NA,NA,NA,NA,NA,NA,NA,NA,NA,NA,NA,NA,NA,NA,NA
c82e5,"""Richtig""-Screen",canvas.Screen,3_0_3_0_6_0_1,NA,NA,timeout,4996.9800000001,606910,606905.44,606917.32,611897.62,611899,2024-05-25T19:00:19Z,611914.3,NULL,Gefährdung,kuhatarisha,d,NA,NA,NA,NA,qt,1,3,NA,NA,NA,NA,NA,NA,NA,NA,NA,NA,NA,NA,NA,NA,NA,NA,NA,NA,NA
c82e5,"""Falsch""-Screen",canvas.Screen,3_0_3_0_6_0_2,NA,NA,skipped,NA,611902,NA,NA,611897.62,611902,2024-05-25T19:00:19Z,611914.3,NULL,Gefährdung,kuhatarisha,d,NA,NA,NA,NA,qt,NA,3,NA,NA,NA,NA,NA,NA,NA,NA,NA,NA,NA,NA,NA,NA,NA,NA,NA,NA,NA
c82e5,deep,flow.Sequence,3_0_3_0_6_0,NA,NA,completion,12605.78,599278,599275.2,599291.84,611897.62,611902,2024-05-25T19:00:19Z,611914.3,NULL,Gefährdung,kuhatarisha,d,NA,NA,NA,NA,qt,NA,3,NA,NA,NA,NA,NA,NA,NA,NA,NA,NA,NA,NA,NA,NA,NA,NA,NA,NA,NA
c82e5,shallow,flow.Sequence,3_0_3_0_6_1,NA,NA,skipped,NA,611902,NA,NA,611897.62,611902,2024-05-25T19:00:19Z,611914.3,NULL,Gefährdung,kuhatarisha,d,NA,NA,NA,NA,qt,NA,3,NA,NA,NA,NA,NA,NA,NA,NA,NA,NA,NA,NA,NA,NA,NA,NA,NA,NA,NA
c82e5,task,flow.Sequence,3_0_3_0_6,NA,NA,completion,12605.78,599278,599275.2,599291.84,611897.62,611902,2024-05-25T19:00:19Z,611914.3,NULL,Gefährdung,kuhatarisha,d,NA,NA,NA,NA,qt,NA,3,NA,NA,NA,NA,NA,NA,NA,NA,NA,NA,NA,NA,NA,NA,NA,NA,NA,NA,NA
c82e5,deep,flow.Sequence,3_0_3_0_7_0,NA,NA,skipped,NA,611903,NA,NA,611897.62,611903,2024-05-25T19:00:19Z,611914.3,NULL,Gelegenheit,wakati,s,mchanganyiko,kipaumbele,kushuku,NA,qt,NA,3,NA,NA,NA,NA,NA,NA,NA,NA,NA,NA,NA,NA,NA,NA,NA,NA,NA,NA,NA
c82e5,Shallow Question,html.Page,3_0_3_0_7_1_0,NA,NA,form submission,4046.7,611903,611897.62,611914.3,615961,615962,2024-05-25T19:00:23Z,615968.18,NULL,Gelegenheit,wakati,s,mchanganyiko,kipaumbele,kushuku,wakati,NA,NA,3,NA,NA,NA,NA,NA,NA,NA,NA,NA,NA,NA,NA,NA,NA,NA,NA,NA,NA,NA
c82e5,"""Richtig""-Screen",canvas.Screen,3_0_3_0_7_1_1,NA,NA,timeout,4999.62,615963,615957.84,615968.18,620946.88,620949,2024-05-25T19:00:28Z,620967.8,NULL,Gelegenheit,wakati,s,mchanganyiko,kipaumbele,kushuku,NA,qt,1,3,NA,NA,NA,NA,NA,NA,NA,NA,NA,NA,NA,NA,NA,NA,NA,NA,NA,NA,NA
c82e5,"""Falsch""-Screen",canvas.Screen,3_0_3_0_7_1_2,NA,NA,skipped,NA,620953,NA,NA,620946.88,620953,2024-05-25T19:00:28Z,620967.8,NULL,Gelegenheit,wakati,s,mchanganyiko,kipaumbele,kushuku,NA,qt,NA,3,NA,NA,NA,NA,NA,NA,NA,NA,NA,NA,NA,NA,NA,NA,NA,NA,NA,NA,NA
c82e5,shallow,flow.Sequence,3_0_3_0_7_1,NA,NA,completion,9032.58,611903,611897.62,611914.3,620946.88,620953,2024-05-25T19:00:28Z,620967.8,NULL,Gelegenheit,wakati,s,mchanganyiko,kipaumbele,kushuku,NA,qt,NA,3,NA,NA,NA,NA,NA,NA,NA,NA,NA,NA,NA,NA,NA,NA,NA,NA,NA,NA,NA
c82e5,task,flow.Sequence,3_0_3_0_7,NA,NA,completion,9032.58,611903,611897.62,611914.3,620946.88,620953,2024-05-25T19:00:28Z,620967.8,NULL,Gelegenheit,wakati,s,mchanganyiko,kipaumbele,kushuku,NA,qt,NA,3,NA,NA,NA,NA,NA,NA,NA,NA,NA,NA,NA,NA,NA,NA,NA,NA,NA,NA,NA
c82e5,block,flow.Loop,3_0_3_0,NA,NA,completion,95441.82,525504,525504.68,525505.06,620946.88,620953,2024-05-25T19:00:28Z,620967.8,NULL,NA,NA,NA,NA,NA,NA,NA,qt,NA,3,NA,NA,NA,NA,NA,NA,NA,NA,NA,NA,NA,NA,NA,NA,NA,NA,NA,NA,NA
c82e5,weiter,canvas.Screen,3_0_3_1,sdf,keypress(Space),response,1875.2,620953,620946.88,620967.8,622843,622855,2024-05-25T19:00:30Z,623561.68,NULL,NA,NA,NA,NA,NA,NA,NA,qt,NA,3,NA,NA,NA,NA,NA,NA,NA,NA,NA,NA,NA,NA,NA,NA,NA,NA,NA,NA,NA
c82e5,check continue,flow.Sequence,3_0_3,NA,NA,completion,97337.94,525504,525504.68,525505.06,622843,622856,2024-05-25T19:00:30Z,623561.68,NULL,NA,NA,NA,NA,NA,NA,NA,qt,NA,3,NA,NA,NA,NA,NA,NA,NA,NA,NA,NA,NA,NA,NA,NA,NA,NA,NA,NA,NA
c82e5,check continue,flow.Sequence,3_0_4,NA,NA,skipped,NA,622910,NA,NA,622843,622911,2024-05-25T19:00:30Z,623561.68,NULL,NA,NA,NA,NA,NA,NA,NA,sd,NA,4,NA,NA,NA,NA,NA,NA,NA,NA,NA,NA,NA,NA,NA,NA,NA,NA,NA,NA,NA
c82e5,check continue,flow.Sequence,3_0_5,NA,NA,skipped,NA,622938,NA,NA,622843,622939,2024-05-25T19:00:30Z,623561.68,NULL,NA,NA,NA,NA,NA,NA,NA,sdf,NA,5,NA,NA,NA,NA,NA,NA,NA,NA,NA,NA,NA,NA,NA,NA,NA,NA,NA,NA,NA
c82e5,check continue,flow.Sequence,3_0_6,NA,NA,skipped,NA,622965,NA,NA,622843,622966,2024-05-25T19:00:30Z,623561.68,NULL,NA,NA,NA,NA,NA,NA,NA,dfs,NA,6,NA,NA,NA,NA,NA,NA,NA,NA,NA,NA,NA,NA,NA,NA,NA,NA,NA,NA,NA
c82e5,check continue,flow.Sequence,3_0_7,NA,NA,skipped,NA,622994,NA,NA,622843,622994,2024-05-25T19:00:30Z,623561.68,NULL,NA,NA,NA,NA,NA,NA,NA,df,NA,7,NA,NA,NA,NA,NA,NA,NA,NA,NA,NA,NA,NA,NA,NA,NA,NA,NA,NA,NA
c82e5,check continue,flow.Sequence,3_0_8,NA,NA,skipped,NA,623023,NA,NA,622843,623024,2024-05-25T19:00:30Z,623561.68,NULL,NA,NA,NA,NA,NA,NA,NA,dfs,NA,8,NA,NA,NA,NA,NA,NA,NA,NA,NA,NA,NA,NA,NA,NA,NA,NA,NA,NA,NA
c82e5,check continue,flow.Sequence,3_0_9,NA,NA,skipped,NA,623048,NA,NA,622843,623048,2024-05-25T19:00:30Z,623561.68,NULL,NA,NA,NA,NA,NA,NA,NA,dsf,NA,9,NA,NA,NA,NA,NA,NA,NA,NA,NA,NA,NA,NA,NA,NA,NA,NA,NA,NA,NA
c82e5,check continue,flow.Sequence,3_0_10,NA,NA,skipped,NA,623075,NA,NA,622843,623075,2024-05-25T19:00:30Z,623561.68,NULL,NA,NA,NA,NA,NA,NA,NA,df,NA,10,NA,NA,NA,NA,NA,NA,NA,NA,NA,NA,NA,NA,NA,NA,NA,NA,NA,NA,NA
c82e5,check continue,flow.Sequence,3_0_11,NA,NA,skipped,NA,623098,NA,NA,622843,623098,2024-05-25T19:00:30Z,623561.68,NULL,NA,NA,NA,NA,NA,NA,NA,dfs,NA,11,NA,NA,NA,NA,NA,NA,NA,NA,NA,NA,NA,NA,NA,NA,NA,NA,NA,NA,NA
c82e5,check continue,flow.Sequence,3_0_12,NA,NA,skipped,NA,623125,NA,NA,622843,623125,2024-05-25T19:00:30Z,623561.68,NULL,NA,NA,NA,NA,NA,NA,NA,dsf,NA,12,NA,NA,NA,NA,NA,NA,NA,NA,NA,NA,NA,NA,NA,NA,NA,NA,NA,NA,NA
c82e5,check continue,flow.Sequence,3_0_13,NA,NA,skipped,NA,623153,NA,NA,622843,623154,2024-05-25T19:00:30Z,623561.68,NULL,NA,NA,NA,NA,NA,NA,NA,dsf,NA,13,NA,NA,NA,NA,NA,NA,NA,NA,NA,NA,NA,NA,NA,NA,NA,NA,NA,NA,NA
c82e5,check continue,flow.Sequence,3_0_14,NA,NA,skipped,NA,623177,NA,NA,622843,623177,2024-05-25T19:00:30Z,623561.68,NULL,NA,NA,NA,NA,NA,NA,NA,NA,NA,14,NA,NA,NA,NA,NA,NA,NA,NA,NA,NA,NA,NA,NA,NA,NA,NA,NA,NA,NA
c82e5,check continue,flow.Sequence,3_0_15,NA,NA,skipped,NA,623205,NA,NA,622843,623205,2024-05-25T19:00:30Z,623561.68,NULL,NA,NA,NA,NA,NA,NA,NA,NA,NA,15,NA,NA,NA,NA,NA,NA,NA,NA,NA,NA,NA,NA,NA,NA,NA,NA,NA,NA,NA
c82e5,check continue,flow.Sequence,3_0_16,NA,NA,skipped,NA,623229,NA,NA,622843,623229,2024-05-25T19:00:30Z,623561.68,NULL,NA,NA,NA,NA,NA,NA,NA,NA,NA,16,NA,NA,NA,NA,NA,NA,NA,NA,NA,NA,NA,NA,NA,NA,NA,NA,NA,NA,NA
c82e5,check continue,flow.Sequence,3_0_17,NA,NA,skipped,NA,623251,NA,NA,622843,623251,2024-05-25T19:00:30Z,623561.68,NULL,NA,NA,NA,NA,NA,NA,NA,NA,NA,17,NA,NA,NA,NA,NA,NA,NA,NA,NA,NA,NA,NA,NA,NA,NA,NA,NA,NA,NA
c82e5,check continue,flow.Sequence,3_0_18,NA,NA,skipped,NA,623278,NA,NA,622843,623278,2024-05-25T19:00:30Z,623561.68,NULL,NA,NA,NA,NA,NA,NA,NA,NA,NA,18,NA,NA,NA,NA,NA,NA,NA,NA,NA,NA,NA,NA,NA,NA,NA,NA,NA,NA,NA
c82e5,check continue,flow.Sequence,3_0_19,NA,NA,skipped,NA,623304,NA,NA,622843,623304,2024-05-25T19:00:30Z,623561.68,NULL,NA,NA,NA,NA,NA,NA,NA,NA,NA,19,NA,NA,NA,NA,NA,NA,NA,NA,NA,NA,NA,NA,NA,NA,NA,NA,NA,NA,NA
c82e5,check continue,flow.Sequence,3_0_20,NA,NA,skipped,NA,623329,NA,NA,622843,623329,2024-05-25T19:00:30Z,623561.68,NULL,NA,NA,NA,NA,NA,NA,NA,NA,NA,20,NA,NA,NA,NA,NA,NA,NA,NA,NA,NA,NA,NA,NA,NA,NA,NA,NA,NA,NA
c82e5,check continue,flow.Sequence,3_0_21,NA,NA,skipped,NA,623356,NA,NA,622843,623356,2024-05-25T19:00:30Z,623561.68,NULL,NA,NA,NA,NA,NA,NA,NA,NA,NA,21,NA,NA,NA,NA,NA,NA,NA,NA,NA,NA,NA,NA,NA,NA,NA,NA,NA,NA,NA
c82e5,check continue,flow.Sequence,3_0_22,NA,NA,skipped,NA,623383,NA,NA,622843,623383,2024-05-25T19:00:30Z,623561.68,NULL,NA,NA,NA,NA,NA,NA,NA,NA,NA,22,NA,NA,NA,NA,NA,NA,NA,NA,NA,NA,NA,NA,NA,NA,NA,NA,NA,NA,NA
c82e5,check continue,flow.Sequence,3_0_23,NA,NA,skipped,NA,623410,NA,NA,622843,623410,2024-05-25T19:00:30Z,623561.68,NULL,NA,NA,NA,NA,NA,NA,NA,NA,NA,23,NA,NA,NA,NA,NA,NA,NA,NA,NA,NA,NA,NA,NA,NA,NA,NA,NA,NA,NA
c82e5,check continue,flow.Sequence,3_0_24,NA,NA,skipped,NA,623443,NA,NA,622843,623443,2024-05-25T19:00:30Z,623561.68,NULL,NA,NA,NA,NA,NA,NA,NA,NA,NA,24,NA,NA,NA,NA,NA,NA,NA,NA,NA,NA,NA,NA,NA,NA,NA,NA,NA,NA,NA
c82e5,check continue,flow.Sequence,3_0_25,NA,NA,skipped,NA,623467,NA,NA,622843,623467,2024-05-25T19:00:30Z,623561.68,NULL,NA,NA,NA,NA,NA,NA,NA,NA,NA,25,NA,NA,NA,NA,NA,NA,NA,NA,NA,NA,NA,NA,NA,NA,NA,NA,NA,NA,NA
c82e5,check continue,flow.Sequence,3_0_26,NA,NA,skipped,NA,623487,NA,NA,622843,623487,2024-05-25T19:00:30Z,623561.68,NULL,NA,NA,NA,NA,NA,NA,NA,NA,NA,26,NA,NA,NA,NA,NA,NA,NA,NA,NA,NA,NA,NA,NA,NA,NA,NA,NA,NA,NA
c82e5,check continue,flow.Sequence,3_0_27,NA,NA,skipped,NA,623515,NA,NA,622843,623515,2024-05-25T19:00:30Z,623561.68,NULL,NA,NA,NA,NA,NA,NA,NA,NA,NA,27,NA,NA,NA,NA,NA,NA,NA,NA,NA,NA,NA,NA,NA,NA,NA,NA,NA,NA,NA
c82e5,check continue,flow.Sequence,3_0_28,NA,NA,skipped,NA,623536,NA,NA,622843,623536,2024-05-25T19:00:30Z,623561.68,NULL,NA,NA,NA,NA,NA,NA,NA,NA,NA,28,NA,NA,NA,NA,NA,NA,NA,NA,NA,NA,NA,NA,NA,NA,NA,NA,NA,NA,NA
c82e5,check continue,flow.Sequence,3_0_29,NA,NA,skipped,NA,623561,NA,NA,622843,623561,2024-05-25T19:00:30Z,623561.68,NULL,NA,NA,NA,NA,NA,NA,NA,NA,NA,29,NA,NA,NA,NA,NA,NA,NA,NA,NA,NA,NA,NA,NA,NA,NA,NA,NA,NA,NA
c82e5,until continue,flow.Loop,3_0,NA,NA,completion,399885.18,222929,222957.4,222957.82,622843,623561,2024-05-25T19:00:30Z,623561.68,NULL,NA,NA,NA,NA,NA,NA,NA,NA,NA,NA,NA,NA,NA,NA,NA,NA,NA,NA,NA,NA,NA,NA,NA,NA,NA,NA,NA,NA,NA
c82e5,block 1,flow.Sequence,3,NA,NA,completion,399885.18,222929,222957.4,222957.82,622843,623561,2024-05-25T19:00:30Z,623561.68,NULL,NA,NA,NA,NA,NA,NA,NA,NA,NA,NA,NA,NA,NA,NA,NA,NA,NA,NA,NA,NA,NA,NA,NA,NA,NA,NA,NA,NA,NA
c82e5,1.Part Over,canvas.Screen,4,NA,keypress(Space),response,25109.32,623561,623560.96,623561.68,648671,648693,2024-05-25T19:00:56Z,648779.18,NULL,NA,NA,NA,NA,NA,NA,NA,NA,NA,NA,NA,NA,NA,NA,NA,NA,NA,NA,NA,NA,NA,NA,NA,NA,NA,NA,NA,NA,NA
c82e5,deep,flow.Sequence,5_0_0_0_0_0,NA,NA,skipped,NA,648778,NA,NA,648671,648778,2024-05-25T19:00:56Z,648779.18,NULL,Konkurrent,mshindani,s,msemaji,mvutaji,kipukusa,NA,sdf,NA,0,NA,NA,NA,NA,NA,NA,NA,NA,NA,NA,NA,NA,NA,NA,NA,NA,NA,NA,NA
c82e5,Shallow Question,html.Page,5_0_0_0_0_1_0,NA,NA,form submission,6138.8199999999,648779,648778.76,648779.18,654918,654919,2024-05-25T19:01:02Z,654917.62,NULL,Konkurrent,mshindani,s,msemaji,mvutaji,kipukusa,msemaji,NA,NA,0,NA,NA,NA,NA,NA,NA,NA,NA,NA,NA,NA,NA,NA,NA,NA,NA,NA,NA,NA
c82e5,"""Richtig""-Screen",canvas.Screen,5_0_0_0_0_1_1,NA,NA,skipped,NA,654921,NA,NA,654918,654921,2024-05-25T19:01:02Z,654917.62,NULL,Konkurrent,mshindani,s,msemaji,mvutaji,kipukusa,NA,sdf,NA,0,NA,NA,NA,NA,NA,NA,NA,NA,NA,NA,NA,NA,NA,NA,NA,NA,NA,NA,NA
c82e5,"""Falsch""-Screen",canvas.Screen,5_0_0_0_0_1_2,NA,NA,timeout,5041.14,654923,654914.34,654917.62,659906.94,659946,2024-05-25T19:01:07Z,659958.76,NULL,Konkurrent,mshindani,s,msemaji,mvutaji,kipukusa,NA,sdf,0,0,NA,NA,NA,NA,NA,NA,NA,NA,NA,NA,NA,NA,NA,NA,NA,NA,NA,NA,NA
c82e5,shallow,flow.Sequence,5_0_0_0_0_1,NA,NA,completion,11127.76,648779,648778.76,648779.18,659906.94,659946,2024-05-25T19:01:07Z,659958.76,NULL,Konkurrent,mshindani,s,msemaji,mvutaji,kipukusa,NA,sdf,NA,0,NA,NA,NA,NA,NA,NA,NA,NA,NA,NA,NA,NA,NA,NA,NA,NA,NA,NA,NA
c82e5,task,flow.Sequence,5_0_0_0_0,NA,NA,completion,11127.76,648778,648778.76,648779.18,659906.94,659946,2024-05-25T19:01:07Z,659958.76,NULL,Konkurrent,mshindani,s,msemaji,mvutaji,kipukusa,NA,sdf,NA,0,NA,NA,NA,NA,NA,NA,NA,NA,NA,NA,NA,NA,NA,NA,NA,NA,NA,NA,NA
c82e5,Deep Question,html.Page,5_0_0_0_1_0_0,NA,NA,form submission,3943.24,659946,659906.94,659958.76,663902,663904,2024-05-25T19:01:11Z,663901.88,NULL,Übersicht,kilindo,d,NA,NA,NA,b,NA,NA,0,NA,NA,NA,NA,NA,NA,NA,NA,NA,NA,NA,NA,NA,NA,NA,NA,NA,NA,NA
c82e5,"""Richtig""-Screen",canvas.Screen,5_0_0_0_1_0_1,NA,NA,skipped,NA,663904,NA,NA,663902,663904,2024-05-25T19:01:11Z,663901.88,NULL,Übersicht,kilindo,d,NA,NA,NA,NA,sdf,NA,0,NA,NA,NA,NA,NA,NA,NA,NA,NA,NA,NA,NA,NA,NA,NA,NA,NA,NA,NA
c82e5,"""Falsch""-Screen",canvas.Screen,5_0_0_0_1_0_2,NA,NA,timeout,4998.84,663906,663898.7,663901.88,668884.02,668885,2024-05-25T19:01:16Z,668900.72,NULL,Übersicht,kilindo,d,NA,NA,NA,NA,sdf,0,0,NA,NA,NA,NA,NA,NA,NA,NA,NA,NA,NA,NA,NA,NA,NA,NA,NA,NA,NA
c82e5,deep,flow.Sequence,5_0_0_0_1_0,NA,NA,completion,8925.26,659946,659906.94,659958.76,668884.02,668886,2024-05-25T19:01:16Z,668900.72,NULL,Übersicht,kilindo,d,NA,NA,NA,NA,sdf,NA,0,NA,NA,NA,NA,NA,NA,NA,NA,NA,NA,NA,NA,NA,NA,NA,NA,NA,NA,NA
c82e5,shallow,flow.Sequence,5_0_0_0_1_1,NA,NA,skipped,NA,668886,NA,NA,668884.02,668886,2024-05-25T19:01:16Z,668900.72,NULL,Übersicht,kilindo,d,NA,NA,NA,NA,sdf,NA,0,NA,NA,NA,NA,NA,NA,NA,NA,NA,NA,NA,NA,NA,NA,NA,NA,NA,NA,NA
c82e5,task,flow.Sequence,5_0_0_0_1,NA,NA,completion,8925.26,659946,659906.94,659958.76,668884.02,668886,2024-05-25T19:01:16Z,668900.72,NULL,Übersicht,kilindo,d,NA,NA,NA,NA,sdf,NA,0,NA,NA,NA,NA,NA,NA,NA,NA,NA,NA,NA,NA,NA,NA,NA,NA,NA,NA,NA
c82e5,Deep Question,html.Page,5_0_0_0_2_0_0,NA,NA,form submission,6066.28,668886,668884.02,668900.72,674967,674968,2024-05-25T19:01:22Z,674964.52,NULL,Symbol,kielezo,d,NA,NA,NA,b,NA,NA,0,NA,NA,NA,NA,NA,NA,NA,NA,NA,NA,NA,NA,NA,NA,NA,NA,NA,NA,NA
c82e5,"""Richtig""-Screen",canvas.Screen,5_0_0_0_2_0_1,NA,NA,skipped,NA,674970,NA,NA,674967,674970,2024-05-25T19:01:22Z,674964.52,NULL,Symbol,kielezo,d,NA,NA,NA,NA,sdf,NA,0,NA,NA,NA,NA,NA,NA,NA,NA,NA,NA,NA,NA,NA,NA,NA,NA,NA,NA,NA
c82e5,"""Falsch""-Screen",canvas.Screen,5_0_0_0_2_0_2,NA,NA,timeout,5002.74,674971,674962.32,674964.52,679950.58,679952,2024-05-25T19:01:27Z,679967.26,NULL,Symbol,kielezo,d,NA,NA,NA,NA,sdf,0,0,NA,NA,NA,NA,NA,NA,NA,NA,NA,NA,NA,NA,NA,NA,NA,NA,NA,NA,NA
c82e5,deep,flow.Sequence,5_0_0_0_2_0,NA,NA,completion,11049.86,668886,668884.02,668900.72,679950.58,679952,2024-05-25T19:01:27Z,679967.26,NULL,Symbol,kielezo,d,NA,NA,NA,NA,sdf,NA,0,NA,NA,NA,NA,NA,NA,NA,NA,NA,NA,NA,NA,NA,NA,NA,NA,NA,NA,NA
c82e5,shallow,flow.Sequence,5_0_0_0_2_1,NA,NA,skipped,NA,679952,NA,NA,679950.58,679952,2024-05-25T19:01:27Z,679967.26,NULL,Symbol,kielezo,d,NA,NA,NA,NA,sdf,NA,0,NA,NA,NA,NA,NA,NA,NA,NA,NA,NA,NA,NA,NA,NA,NA,NA,NA,NA,NA
c82e5,task,flow.Sequence,5_0_0_0_2,NA,NA,completion,11049.86,668886,668884.02,668900.72,679950.58,679952,2024-05-25T19:01:27Z,679967.26,NULL,Symbol,kielezo,d,NA,NA,NA,NA,sdf,NA,0,NA,NA,NA,NA,NA,NA,NA,NA,NA,NA,NA,NA,NA,NA,NA,NA,NA,NA,NA
c82e5,deep,flow.Sequence,5_0_0_0_3_0,NA,NA,skipped,NA,679953,NA,NA,679950.58,679953,2024-05-25T19:01:27Z,679967.26,NULL,Vorsorge,tahadhari,s,ufafanuzi,makini,mashambani,NA,sdf,NA,0,NA,NA,NA,NA,NA,NA,NA,NA,NA,NA,NA,NA,NA,NA,NA,NA,NA,NA,NA
c82e5,Shallow Question,html.Page,5_0_0_0_3_1_0,NA,NA,form submission,8040.74,679953,679950.58,679967.26,688008,688010,2024-05-25T19:01:35Z,688017.88,NULL,Vorsorge,tahadhari,s,ufafanuzi,makini,mashambani,makini,NA,NA,0,NA,NA,NA,NA,NA,NA,NA,NA,NA,NA,NA,NA,NA,NA,NA,NA,NA,NA,NA
c82e5,"""Richtig""-Screen",canvas.Screen,5_0_0_0_3_1_1,NA,NA,skipped,NA,688017,NA,NA,688008,688017,2024-05-25T19:01:35Z,688017.88,NULL,Vorsorge,tahadhari,s,ufafanuzi,makini,mashambani,NA,sdf,NA,0,NA,NA,NA,NA,NA,NA,NA,NA,NA,NA,NA,NA,NA,NA,NA,NA,NA,NA,NA
c82e5,"""Falsch""-Screen",canvas.Screen,5_0_0_0_3_1_2,NA,NA,timeout,4995.16,688019,688003.56,688017.88,692996.36,692998,2024-05-25T19:01:40Z,693013.04,NULL,Vorsorge,tahadhari,s,ufafanuzi,makini,mashambani,NA,sdf,0,0,NA,NA,NA,NA,NA,NA,NA,NA,NA,NA,NA,NA,NA,NA,NA,NA,NA,NA,NA
c82e5,shallow,flow.Sequence,5_0_0_0_3_1,NA,NA,completion,13029.1,679953,679950.58,679967.26,692996.36,692999,2024-05-25T19:01:40Z,693013.04,NULL,Vorsorge,tahadhari,s,ufafanuzi,makini,mashambani,NA,sdf,NA,0,NA,NA,NA,NA,NA,NA,NA,NA,NA,NA,NA,NA,NA,NA,NA,NA,NA,NA,NA
c82e5,task,flow.Sequence,5_0_0_0_3,NA,NA,completion,13029.1,679952,679950.58,679967.26,692996.36,692999,2024-05-25T19:01:40Z,693013.04,NULL,Vorsorge,tahadhari,s,ufafanuzi,makini,mashambani,NA,sdf,NA,0,NA,NA,NA,NA,NA,NA,NA,NA,NA,NA,NA,NA,NA,NA,NA,NA,NA,NA,NA
c82e5,Deep Question,html.Page,5_0_0_0_4_0_0,NA,NA,form submission,3852.96,692999,692996.36,693013.04,696866,696866,2024-05-25T19:01:44Z,696872.68,NULL,Körper,kiwiliwili,d,NA,NA,NA,b,NA,NA,0,NA,NA,NA,NA,NA,NA,NA,NA,NA,NA,NA,NA,NA,NA,NA,NA,NA,NA,NA
c82e5,"""Richtig""-Screen",canvas.Screen,5_0_0_0_4_0_1,NA,NA,skipped,NA,696869,NA,NA,696866,696869,2024-05-25T19:01:44Z,696872.68,NULL,Körper,kiwiliwili,d,NA,NA,NA,NA,sdf,NA,0,NA,NA,NA,NA,NA,NA,NA,NA,NA,NA,NA,NA,NA,NA,NA,NA,NA,NA,NA
c82e5,"""Falsch""-Screen",canvas.Screen,5_0_0_0_4_0_2,NA,NA,timeout,5002.4399999999,696871,696862.16,696872.68,701858.42,701865,2024-05-25T19:01:49Z,701875.12,NULL,Körper,kiwiliwili,d,NA,NA,NA,NA,sdf,0,0,NA,NA,NA,NA,NA,NA,NA,NA,NA,NA,NA,NA,NA,NA,NA,NA,NA,NA,NA
c82e5,deep,flow.Sequence,5_0_0_0_4_0,NA,NA,completion,8845.38,692999,692996.36,693013.04,701858.42,701865,2024-05-25T19:01:49Z,701875.12,NULL,Körper,kiwiliwili,d,NA,NA,NA,NA,sdf,NA,0,NA,NA,NA,NA,NA,NA,NA,NA,NA,NA,NA,NA,NA,NA,NA,NA,NA,NA,NA
c82e5,shallow,flow.Sequence,5_0_0_0_4_1,NA,NA,skipped,NA,701865,NA,NA,701858.42,701865,2024-05-25T19:01:49Z,701875.12,NULL,Körper,kiwiliwili,d,NA,NA,NA,NA,sdf,NA,0,NA,NA,NA,NA,NA,NA,NA,NA,NA,NA,NA,NA,NA,NA,NA,NA,NA,NA,NA
c82e5,task,flow.Sequence,5_0_0_0_4,NA,NA,completion,8845.38,692999,692996.36,693013.04,701858.42,701866,2024-05-25T19:01:49Z,701875.12,NULL,Körper,kiwiliwili,d,NA,NA,NA,NA,sdf,NA,0,NA,NA,NA,NA,NA,NA,NA,NA,NA,NA,NA,NA,NA,NA,NA,NA,NA,NA,NA
c82e5,Deep Question,html.Page,5_0_0_0_5_0_0,NA,NA,form submission,5460.88,701866,701858.42,701875.12,707336,707336,2024-05-25T19:01:54Z,707341.58,NULL,Zuwachs,nyongeza,d,NA,NA,NA,b,NA,NA,0,NA,NA,NA,NA,NA,NA,NA,NA,NA,NA,NA,NA,NA,NA,NA,NA,NA,NA,NA
c82e5,"""Richtig""-Screen",canvas.Screen,5_0_0_0_5_0_1,NA,NA,skipped,NA,707339,NA,NA,707336,707339,2024-05-25T19:01:54Z,707341.58,NULL,Zuwachs,nyongeza,d,NA,NA,NA,NA,sdf,NA,0,NA,NA,NA,NA,NA,NA,NA,NA,NA,NA,NA,NA,NA,NA,NA,NA,NA,NA,NA
c82e5,"""Falsch""-Screen",canvas.Screen,5_0_0_0_5_0_2,NA,NA,timeout,5020.5600000001,707340,707332.3,707341.58,712328.9,712358,2024-05-25T19:01:59Z,712362.14,NULL,Zuwachs,nyongeza,d,NA,NA,NA,NA,sdf,0,0,NA,NA,NA,NA,NA,NA,NA,NA,NA,NA,NA,NA,NA,NA,NA,NA,NA,NA,NA
c82e5,deep,flow.Sequence,5_0_0_0_5_0,NA,NA,completion,10453.78,701866,701858.42,701875.12,712328.9,712358,2024-05-25T19:01:59Z,712362.14,NULL,Zuwachs,nyongeza,d,NA,NA,NA,NA,sdf,NA,0,NA,NA,NA,NA,NA,NA,NA,NA,NA,NA,NA,NA,NA,NA,NA,NA,NA,NA,NA
c82e5,shallow,flow.Sequence,5_0_0_0_5_1,NA,NA,skipped,NA,712358,NA,NA,712328.9,712359,2024-05-25T19:01:59Z,712362.14,NULL,Zuwachs,nyongeza,d,NA,NA,NA,NA,sdf,NA,0,NA,NA,NA,NA,NA,NA,NA,NA,NA,NA,NA,NA,NA,NA,NA,NA,NA,NA,NA
c82e5,task,flow.Sequence,5_0_0_0_5,NA,NA,completion,10453.78,701866,701858.42,701875.12,712328.9,712359,2024-05-25T19:01:59Z,712362.14,NULL,Zuwachs,nyongeza,d,NA,NA,NA,NA,sdf,NA,0,NA,NA,NA,NA,NA,NA,NA,NA,NA,NA,NA,NA,NA,NA,NA,NA,NA,NA,NA
c82e5,deep,flow.Sequence,5_0_0_0_6_0,NA,NA,skipped,NA,712359,NA,NA,712328.9,712360,2024-05-25T19:01:59Z,712362.14,NULL,System,maongozi,s,chokochoko,nuksani,mitaani,NA,sdf,NA,0,NA,NA,NA,NA,NA,NA,NA,NA,NA,NA,NA,NA,NA,NA,NA,NA,NA,NA,NA
c82e5,Shallow Question,html.Page,5_0_0_0_6_1_0,NA,NA,form submission,19963.86,712360,712328.9,712362.14,732326,732326,2024-05-25T19:02:19Z,732323.86,NULL,System,maongozi,s,chokochoko,nuksani,mitaani,mitaani,NA,NA,0,NA,NA,NA,NA,NA,NA,NA,NA,NA,NA,NA,NA,NA,NA,NA,NA,NA,NA,NA
c82e5,"""Richtig""-Screen",canvas.Screen,5_0_0_0_6_1_1,NA,NA,skipped,NA,732328,NA,NA,732326,732328,2024-05-25T19:02:19Z,732323.86,NULL,System,maongozi,s,chokochoko,nuksani,mitaani,NA,sdf,NA,0,NA,NA,NA,NA,NA,NA,NA,NA,NA,NA,NA,NA,NA,NA,NA,NA,NA,NA,NA
c82e5,"""Falsch""-Screen",canvas.Screen,5_0_0_0_6_1_2,NA,NA,timeout,4992.54,732329,732322.24,732323.86,737299.7,737300,2024-05-25T19:02:24Z,737316.4,NULL,System,maongozi,s,chokochoko,nuksani,mitaani,NA,sdf,0,0,NA,NA,NA,NA,NA,NA,NA,NA,NA,NA,NA,NA,NA,NA,NA,NA,NA,NA,NA
c82e5,shallow,flow.Sequence,5_0_0_0_6_1,NA,NA,completion,24937.56,712360,712328.9,712362.14,737299.7,737301,2024-05-25T19:02:24Z,737316.4,NULL,System,maongozi,s,chokochoko,nuksani,mitaani,NA,sdf,NA,0,NA,NA,NA,NA,NA,NA,NA,NA,NA,NA,NA,NA,NA,NA,NA,NA,NA,NA,NA
c82e5,task,flow.Sequence,5_0_0_0_6,NA,NA,completion,24937.56,712359,712328.9,712362.14,737299.7,737302,2024-05-25T19:02:24Z,737316.4,NULL,System,maongozi,s,chokochoko,nuksani,mitaani,NA,sdf,NA,0,NA,NA,NA,NA,NA,NA,NA,NA,NA,NA,NA,NA,NA,NA,NA,NA,NA,NA,NA
c82e5,deep,flow.Sequence,5_0_0_0_7_0,NA,NA,skipped,NA,737302,NA,NA,737299.7,737302,2024-05-25T19:02:24Z,737316.4,NULL,Lawine,banguko,s,maambukizi,usuluhishi,chekechea,NA,sdf,NA,0,NA,NA,NA,NA,NA,NA,NA,NA,NA,NA,NA,NA,NA,NA,NA,NA,NA,NA,NA
c82e5,Shallow Question,html.Page,5_0_0_0_7_1_0,NA,NA,form submission,4136.6,737302,737299.7,737316.4,741453,741453,2024-05-25T19:02:28Z,741459.74,NULL,Lawine,banguko,s,maambukizi,usuluhishi,chekechea,usuluhishi,NA,NA,0,NA,NA,NA,NA,NA,NA,NA,NA,NA,NA,NA,NA,NA,NA,NA,NA,NA,NA,NA
c82e5,"""Richtig""-Screen",canvas.Screen,5_0_0_0_7_1_1,NA,NA,skipped,NA,741454,NA,NA,741453,741454,2024-05-25T19:02:28Z,741459.74,NULL,Lawine,banguko,s,maambukizi,usuluhishi,chekechea,NA,sdf,NA,0,NA,NA,NA,NA,NA,NA,NA,NA,NA,NA,NA,NA,NA,NA,NA,NA,NA,NA,NA
c82e5,"""Falsch""-Screen",canvas.Screen,5_0_0_0_7_1_2,NA,NA,timeout,5003.4,741456,741449.4,741459.74,746446.46,746448,2024-05-25T19:02:33Z,746463.14,NULL,Lawine,banguko,s,maambukizi,usuluhishi,chekechea,NA,sdf,0,0,NA,NA,NA,NA,NA,NA,NA,NA,NA,NA,NA,NA,NA,NA,NA,NA,NA,NA,NA
c82e5,shallow,flow.Sequence,5_0_0_0_7_1,NA,NA,completion,9130.0599999999,737302,737299.7,737316.4,746446.46,746448,2024-05-25T19:02:33Z,746463.14,NULL,Lawine,banguko,s,maambukizi,usuluhishi,chekechea,NA,sdf,NA,0,NA,NA,NA,NA,NA,NA,NA,NA,NA,NA,NA,NA,NA,NA,NA,NA,NA,NA,NA
c82e5,task,flow.Sequence,5_0_0_0_7,NA,NA,completion,9130.0599999999,737302,737299.7,737316.4,746446.46,746448,2024-05-25T19:02:33Z,746463.14,NULL,Lawine,banguko,s,maambukizi,usuluhishi,chekechea,NA,sdf,NA,0,NA,NA,NA,NA,NA,NA,NA,NA,NA,NA,NA,NA,NA,NA,NA,NA,NA,NA,NA
c82e5,block,flow.Loop,5_0_0_0,NA,NA,completion,97667.28,648778,648778.76,648779.18,746446.46,746448,2024-05-25T19:02:33Z,746463.14,NULL,NA,NA,NA,NA,NA,NA,NA,sdf,NA,0,NA,NA,NA,NA,NA,NA,NA,NA,NA,NA,NA,NA,NA,NA,NA,NA,NA,NA,NA
c82e5,weiter,canvas.Screen,5_0_0_1,sdf,keypress(Space),response,2317.86,746448,746446.46,746463.14,748781,748799,2024-05-25T19:02:36Z,748847.44,NULL,NA,NA,NA,NA,NA,NA,NA,sdf,NA,0,NA,NA,NA,NA,NA,NA,NA,NA,NA,NA,NA,NA,NA,NA,NA,NA,NA,NA,NA
c82e5,check continue,flow.Sequence,5_0_0,NA,NA,completion,100001.82,648778,648778.76,648779.18,748781,748799,2024-05-25T19:02:36Z,748847.44,NULL,NA,NA,NA,NA,NA,NA,NA,sdf,NA,0,NA,NA,NA,NA,NA,NA,NA,NA,NA,NA,NA,NA,NA,NA,NA,NA,NA,NA,NA
c82e5,deep,flow.Sequence,5_0_1_0_0_0,NA,NA,skipped,NA,748847,NA,NA,748781,748847,2024-05-25T19:02:36Z,748847.44,NULL,Vorsorge,tahadhari,s,ufafanuzi,makini,mashambani,NA,sdfdsf,NA,1,NA,NA,NA,NA,NA,NA,NA,NA,NA,NA,NA,NA,NA,NA,NA,NA,NA,NA,NA
c82e5,Shallow Question,html.Page,5_0_1_0_0_1_0,NA,NA,form submission,6106.5600000001,748848,748847.1,748847.44,754954,754954,2024-05-25T19:02:42Z,754956.38,NULL,Vorsorge,tahadhari,s,ufafanuzi,makini,mashambani,mashambani,NA,NA,1,NA,NA,NA,NA,NA,NA,NA,NA,NA,NA,NA,NA,NA,NA,NA,NA,NA,NA,NA
c82e5,"""Richtig""-Screen",canvas.Screen,5_0_1_0_0_1_1,NA,NA,skipped,NA,754956,NA,NA,754954,754956,2024-05-25T19:02:42Z,754956.38,NULL,Vorsorge,tahadhari,s,ufafanuzi,makini,mashambani,NA,sdfdsf,NA,1,NA,NA,NA,NA,NA,NA,NA,NA,NA,NA,NA,NA,NA,NA,NA,NA,NA,NA,NA
c82e5,"""Falsch""-Screen",canvas.Screen,5_0_1_0_0_1_2,NA,NA,timeout,5009.86,754957,754950.44,754956.38,759947.36,759964,2024-05-25T19:02:47Z,759966.24,NULL,Vorsorge,tahadhari,s,ufafanuzi,makini,mashambani,NA,sdfdsf,0,1,NA,NA,NA,NA,NA,NA,NA,NA,NA,NA,NA,NA,NA,NA,NA,NA,NA,NA,NA
c82e5,shallow,flow.Sequence,5_0_1_0_0_1,NA,NA,completion,11099.92,748848,748847.1,748847.44,759947.36,759964,2024-05-25T19:02:47Z,759966.24,NULL,Vorsorge,tahadhari,s,ufafanuzi,makini,mashambani,NA,sdfdsf,NA,1,NA,NA,NA,NA,NA,NA,NA,NA,NA,NA,NA,NA,NA,NA,NA,NA,NA,NA,NA
c82e5,task,flow.Sequence,5_0_1_0_0,NA,NA,completion,11099.92,748847,748847.1,748847.44,759947.36,759964,2024-05-25T19:02:47Z,759966.24,NULL,Vorsorge,tahadhari,s,ufafanuzi,makini,mashambani,NA,sdfdsf,NA,1,NA,NA,NA,NA,NA,NA,NA,NA,NA,NA,NA,NA,NA,NA,NA,NA,NA,NA,NA
c82e5,Deep Question,html.Page,5_0_1_0_1_0_0,NA,NA,form submission,5982.76,759964,759947.36,759966.24,765949,765949,2024-05-25T19:02:53Z,765955.88,NULL,Übersicht,kilindo,d,NA,NA,NA,b,NA,NA,1,NA,NA,NA,NA,NA,NA,NA,NA,NA,NA,NA,NA,NA,NA,NA,NA,NA,NA,NA
c82e5,"""Richtig""-Screen",canvas.Screen,5_0_1_0_1_0_1,NA,NA,skipped,NA,765950,NA,NA,765949,765951,2024-05-25T19:02:53Z,765955.88,NULL,Übersicht,kilindo,d,NA,NA,NA,NA,sdfdsf,NA,1,NA,NA,NA,NA,NA,NA,NA,NA,NA,NA,NA,NA,NA,NA,NA,NA,NA,NA,NA
c82e5,"""Falsch""-Screen",canvas.Screen,5_0_1_0_1_0_2,NA,NA,timeout,4999.8199999999,765952,765944.88,765955.88,770939.02,770942,2024-05-25T19:02:58Z,770955.7,NULL,Übersicht,kilindo,d,NA,NA,NA,NA,sdfdsf,0,1,NA,NA,NA,NA,NA,NA,NA,NA,NA,NA,NA,NA,NA,NA,NA,NA,NA,NA,NA
c82e5,deep,flow.Sequence,5_0_1_0_1_0,NA,NA,completion,10972.78,759964,759947.36,759966.24,770939.02,770943,2024-05-25T19:02:58Z,770955.7,NULL,Übersicht,kilindo,d,NA,NA,NA,NA,sdfdsf,NA,1,NA,NA,NA,NA,NA,NA,NA,NA,NA,NA,NA,NA,NA,NA,NA,NA,NA,NA,NA
c82e5,shallow,flow.Sequence,5_0_1_0_1_1,NA,NA,skipped,NA,770943,NA,NA,770939.02,770944,2024-05-25T19:02:58Z,770955.7,NULL,Übersicht,kilindo,d,NA,NA,NA,NA,sdfdsf,NA,1,NA,NA,NA,NA,NA,NA,NA,NA,NA,NA,NA,NA,NA,NA,NA,NA,NA,NA,NA
c82e5,task,flow.Sequence,5_0_1_0_1,NA,NA,completion,10972.78,759964,759947.36,759966.24,770939.02,770944,2024-05-25T19:02:58Z,770955.7,NULL,Übersicht,kilindo,d,NA,NA,NA,NA,sdfdsf,NA,1,NA,NA,NA,NA,NA,NA,NA,NA,NA,NA,NA,NA,NA,NA,NA,NA,NA,NA,NA
c82e5,deep,flow.Sequence,5_0_1_0_2_0,NA,NA,skipped,NA,770944,NA,NA,770939.02,770945,2024-05-25T19:02:58Z,770955.7,NULL,Konkurrent,mshindani,s,msemaji,mvutaji,kipukusa,NA,sdfdsf,NA,1,NA,NA,NA,NA,NA,NA,NA,NA,NA,NA,NA,NA,NA,NA,NA,NA,NA,NA,NA
c82e5,Shallow Question,html.Page,5_0_1_0_2_1_0,NA,NA,form submission,7856.3,770945,770939.02,770955.7,778812,778813,2024-05-25T19:03:06Z,778807.74,NULL,Konkurrent,mshindani,s,msemaji,mvutaji,kipukusa,mshindani,NA,NA,1,NA,NA,NA,NA,NA,NA,NA,NA,NA,NA,NA,NA,NA,NA,NA,NA,NA,NA,NA
c82e5,"""Richtig""-Screen",canvas.Screen,5_0_1_0_2_1_1,NA,NA,timeout,5002.76,778819,778807.46,778807.74,783793.82,783795,2024-05-25T19:03:11Z,783810.5,NULL,Konkurrent,mshindani,s,msemaji,mvutaji,kipukusa,NA,sdfdsf,1,1,NA,NA,NA,NA,NA,NA,NA,NA,NA,NA,NA,NA,NA,NA,NA,NA,NA,NA,NA
c82e5,"""Falsch""-Screen",canvas.Screen,5_0_1_0_2_1_2,NA,NA,skipped,NA,783799,NA,NA,783793.82,783799,2024-05-25T19:03:11Z,783810.5,NULL,Konkurrent,mshindani,s,msemaji,mvutaji,kipukusa,NA,sdfdsf,NA,1,NA,NA,NA,NA,NA,NA,NA,NA,NA,NA,NA,NA,NA,NA,NA,NA,NA,NA,NA
c82e5,shallow,flow.Sequence,5_0_1_0_2_1,NA,NA,completion,12838.12,770945,770939.02,770955.7,783793.82,783799,2024-05-25T19:03:11Z,783810.5,NULL,Konkurrent,mshindani,s,msemaji,mvutaji,kipukusa,NA,sdfdsf,NA,1,NA,NA,NA,NA,NA,NA,NA,NA,NA,NA,NA,NA,NA,NA,NA,NA,NA,NA,NA
c82e5,task,flow.Sequence,5_0_1_0_2,NA,NA,completion,12838.12,770944,770939.02,770955.7,783793.82,783800,2024-05-25T19:03:11Z,783810.5,NULL,Konkurrent,mshindani,s,msemaji,mvutaji,kipukusa,NA,sdfdsf,NA,1,NA,NA,NA,NA,NA,NA,NA,NA,NA,NA,NA,NA,NA,NA,NA,NA,NA,NA,NA
c82e5,Deep Question,html.Page,5_0_1_0_3_0_0,NA,NA,form submission,8831.5,783800,783793.82,783810.5,792642,792642,2024-05-25T19:03:19Z,792641.26,NULL,Zuwachs,nyongeza,d,NA,NA,NA,kielewo,NA,NA,1,NA,NA,NA,NA,NA,NA,NA,NA,NA,NA,NA,NA,NA,NA,NA,NA,NA,NA,NA
c82e5,"""Richtig""-Screen",canvas.Screen,5_0_1_0_3_0_1,NA,NA,skipped,NA,792645,NA,NA,792642,792645,2024-05-25T19:03:19Z,792641.26,NULL,Zuwachs,nyongeza,d,NA,NA,NA,NA,sdfdsf,NA,1,NA,NA,NA,NA,NA,NA,NA,NA,NA,NA,NA,NA,NA,NA,NA,NA,NA,NA,NA
c82e5,"""Falsch""-Screen",canvas.Screen,5_0_1_0_3_0_2,NA,NA,timeout,4995.4399999999,792647,792638.02,792641.26,797620.02,797621,2024-05-25T19:03:24Z,797636.7,NULL,Zuwachs,nyongeza,d,NA,NA,NA,NA,sdfdsf,0,1,NA,NA,NA,NA,NA,NA,NA,NA,NA,NA,NA,NA,NA,NA,NA,NA,NA,NA,NA
c82e5,deep,flow.Sequence,5_0_1_0_3_0,NA,NA,completion,13809.52,783800,783793.82,783810.5,797620.02,797621,2024-05-25T19:03:24Z,797636.7,NULL,Zuwachs,nyongeza,d,NA,NA,NA,NA,sdfdsf,NA,1,NA,NA,NA,NA,NA,NA,NA,NA,NA,NA,NA,NA,NA,NA,NA,NA,NA,NA,NA
c82e5,shallow,flow.Sequence,5_0_1_0_3_1,NA,NA,skipped,NA,797621,NA,NA,797620.02,797622,2024-05-25T19:03:24Z,797636.7,NULL,Zuwachs,nyongeza,d,NA,NA,NA,NA,sdfdsf,NA,1,NA,NA,NA,NA,NA,NA,NA,NA,NA,NA,NA,NA,NA,NA,NA,NA,NA,NA,NA
c82e5,task,flow.Sequence,5_0_1_0_3,NA,NA,completion,13809.52,783800,783793.82,783810.5,797620.02,797622,2024-05-25T19:03:24Z,797636.7,NULL,Zuwachs,nyongeza,d,NA,NA,NA,NA,sdfdsf,NA,1,NA,NA,NA,NA,NA,NA,NA,NA,NA,NA,NA,NA,NA,NA,NA,NA,NA,NA,NA
c82e5,Deep Question,html.Page,5_0_1_0_4_0_0,NA,NA,form submission,8204.3,797622,797620.02,797636.7,805841,805841,2024-05-25T19:03:33Z,805853.66,NULL,Symbol,kielezo,d,NA,NA,NA,kielewo,NA,NA,1,NA,NA,NA,NA,NA,NA,NA,NA,NA,NA,NA,NA,NA,NA,NA,NA,NA,NA,NA
c82e5,"""Richtig""-Screen",canvas.Screen,5_0_1_0_4_0_1,NA,NA,skipped,NA,805843,NA,NA,805841,805843,2024-05-25T19:03:33Z,805853.66,NULL,Symbol,kielezo,d,NA,NA,NA,NA,sdfdsf,NA,1,NA,NA,NA,NA,NA,NA,NA,NA,NA,NA,NA,NA,NA,NA,NA,NA,NA,NA,NA
c82e5,"""Falsch""-Screen",canvas.Screen,5_0_1_0_4_0_2,NA,NA,timeout,5006.02,805845,805837.96,805853.66,810843,810844,2024-05-25T19:03:38Z,810859.68,NULL,Symbol,kielezo,d,NA,NA,NA,NA,sdfdsf,0,1,NA,NA,NA,NA,NA,NA,NA,NA,NA,NA,NA,NA,NA,NA,NA,NA,NA,NA,NA
c82e5,deep,flow.Sequence,5_0_1_0_4_0,NA,NA,completion,13206.3,797622,797620.02,797636.7,810843,810845,2024-05-25T19:03:38Z,810859.68,NULL,Symbol,kielezo,d,NA,NA,NA,NA,sdfdsf,NA,1,NA,NA,NA,NA,NA,NA,NA,NA,NA,NA,NA,NA,NA,NA,NA,NA,NA,NA,NA
c82e5,shallow,flow.Sequence,5_0_1_0_4_1,NA,NA,skipped,NA,810845,NA,NA,810843,810846,2024-05-25T19:03:38Z,810859.68,NULL,Symbol,kielezo,d,NA,NA,NA,NA,sdfdsf,NA,1,NA,NA,NA,NA,NA,NA,NA,NA,NA,NA,NA,NA,NA,NA,NA,NA,NA,NA,NA
c82e5,task,flow.Sequence,5_0_1_0_4,NA,NA,completion,13206.3,797622,797620.02,797636.7,810843,810846,2024-05-25T19:03:38Z,810859.68,NULL,Symbol,kielezo,d,NA,NA,NA,NA,sdfdsf,NA,1,NA,NA,NA,NA,NA,NA,NA,NA,NA,NA,NA,NA,NA,NA,NA,NA,NA,NA,NA
c82e5,deep,flow.Sequence,5_0_1_0_5_0,NA,NA,skipped,NA,810846,NA,NA,810843,810846,2024-05-25T19:03:38Z,810859.68,NULL,System,maongozi,s,chokochoko,nuksani,mitaani,NA,sdfdsf,NA,1,NA,NA,NA,NA,NA,NA,NA,NA,NA,NA,NA,NA,NA,NA,NA,NA,NA,NA,NA
c82e5,Shallow Question,html.Page,5_0_1_0_5_1_0,NA,NA,form submission,6779.3199999999,810846,810843,810859.68,817639,817639,2024-05-25T19:03:44Z,817639.28,NULL,System,maongozi,s,chokochoko,nuksani,mitaani,maongozi,NA,NA,1,NA,NA,NA,NA,NA,NA,NA,NA,NA,NA,NA,NA,NA,NA,NA,NA,NA,NA,NA
c82e5,"""Richtig""-Screen",canvas.Screen,5_0_1_0_5_1_1,NA,NA,timeout,4998.5399999999,817642,817635.32,817639.28,822621.14,822631,2024-05-25T19:03:49Z,822637.82,NULL,System,maongozi,s,chokochoko,nuksani,mitaani,NA,sdfdsf,1,1,NA,NA,NA,NA,NA,NA,NA,NA,NA,NA,NA,NA,NA,NA,NA,NA,NA,NA,NA
c82e5,"""Falsch""-Screen",canvas.Screen,5_0_1_0_5_1_2,NA,NA,skipped,NA,822633,NA,NA,822621.14,822633,2024-05-25T19:03:49Z,822637.82,NULL,System,maongozi,s,chokochoko,nuksani,mitaani,NA,sdfdsf,NA,1,NA,NA,NA,NA,NA,NA,NA,NA,NA,NA,NA,NA,NA,NA,NA,NA,NA,NA,NA
c82e5,shallow,flow.Sequence,5_0_1_0_5_1,NA,NA,completion,11761.46,810846,810843,810859.68,822621.14,822633,2024-05-25T19:03:49Z,822637.82,NULL,System,maongozi,s,chokochoko,nuksani,mitaani,NA,sdfdsf,NA,1,NA,NA,NA,NA,NA,NA,NA,NA,NA,NA,NA,NA,NA,NA,NA,NA,NA,NA,NA
c82e5,task,flow.Sequence,5_0_1_0_5,NA,NA,completion,11761.46,810846,810843,810859.68,822621.14,822633,2024-05-25T19:03:49Z,822637.82,NULL,System,maongozi,s,chokochoko,nuksani,mitaani,NA,sdfdsf,NA,1,NA,NA,NA,NA,NA,NA,NA,NA,NA,NA,NA,NA,NA,NA,NA,NA,NA,NA,NA
c82e5,deep,flow.Sequence,5_0_1_0_6_0,NA,NA,skipped,NA,822633,NA,NA,822621.14,822633,2024-05-25T19:03:49Z,822637.82,NULL,Lawine,banguko,s,maambukizi,usuluhishi,chekechea,NA,sdfdsf,NA,1,NA,NA,NA,NA,NA,NA,NA,NA,NA,NA,NA,NA,NA,NA,NA,NA,NA,NA,NA
c82e5,Shallow Question,html.Page,5_0_1_0_6_1_0,NA,NA,form submission,5654.1800000001,822633,822621.14,822637.82,828292,828293,2024-05-25T19:03:55Z,828298.7,NULL,Lawine,banguko,s,maambukizi,usuluhishi,chekechea,banguko,NA,NA,1,NA,NA,NA,NA,NA,NA,NA,NA,NA,NA,NA,NA,NA,NA,NA,NA,NA,NA,NA
c82e5,"""Richtig""-Screen",canvas.Screen,5_0_1_0_6_1_1,NA,NA,timeout,5001.2200000001,828300,828286.5,828298.7,833283.3,833285,2024-05-25T19:04:00Z,833299.92,NULL,Lawine,banguko,s,maambukizi,usuluhishi,chekechea,NA,sdfdsf,1,1,NA,NA,NA,NA,NA,NA,NA,NA,NA,NA,NA,NA,NA,NA,NA,NA,NA,NA,NA
c82e5,"""Falsch""-Screen",canvas.Screen,5_0_1_0_6_1_2,NA,NA,skipped,NA,833288,NA,NA,833283.3,833288,2024-05-25T19:04:00Z,833299.92,NULL,Lawine,banguko,s,maambukizi,usuluhishi,chekechea,NA,sdfdsf,NA,1,NA,NA,NA,NA,NA,NA,NA,NA,NA,NA,NA,NA,NA,NA,NA,NA,NA,NA,NA
c82e5,shallow,flow.Sequence,5_0_1_0_6_1,NA,NA,completion,10645.48,822633,822621.14,822637.82,833283.3,833288,2024-05-25T19:04:00Z,833299.92,NULL,Lawine,banguko,s,maambukizi,usuluhishi,chekechea,NA,sdfdsf,NA,1,NA,NA,NA,NA,NA,NA,NA,NA,NA,NA,NA,NA,NA,NA,NA,NA,NA,NA,NA
c82e5,task,flow.Sequence,5_0_1_0_6,NA,NA,completion,10645.48,822633,822621.14,822637.82,833283.3,833288,2024-05-25T19:04:00Z,833299.92,NULL,Lawine,banguko,s,maambukizi,usuluhishi,chekechea,NA,sdfdsf,NA,1,NA,NA,NA,NA,NA,NA,NA,NA,NA,NA,NA,NA,NA,NA,NA,NA,NA,NA,NA
c82e5,Deep Question,html.Page,5_0_1_0_7_0_0,NA,NA,form submission,8597.08,833289,833283.3,833299.92,841897,841897,2024-05-25T19:04:09Z,841894.3,NULL,Körper,kiwiliwili,d,NA,NA,NA,kilendo,NA,NA,1,NA,NA,NA,NA,NA,NA,NA,NA,NA,NA,NA,NA,NA,NA,NA,NA,NA,NA,NA
c82e5,"""Richtig""-Screen",canvas.Screen,5_0_1_0_7_0_1,NA,NA,skipped,NA,841899,NA,NA,841897,841900,2024-05-25T19:04:09Z,841894.3,NULL,Körper,kiwiliwili,d,NA,NA,NA,NA,sdfdsf,NA,1,NA,NA,NA,NA,NA,NA,NA,NA,NA,NA,NA,NA,NA,NA,NA,NA,NA,NA,NA
c82e5,"""Falsch""-Screen",canvas.Screen,5_0_1_0_7_0_2,NA,NA,timeout,5006.38,841901,841891.98,841894.3,846884,846885,2024-05-25T19:04:14Z,846900.68,NULL,Körper,kiwiliwili,d,NA,NA,NA,NA,sdfdsf,0,1,NA,NA,NA,NA,NA,NA,NA,NA,NA,NA,NA,NA,NA,NA,NA,NA,NA,NA,NA
c82e5,deep,flow.Sequence,5_0_1_0_7_0,NA,NA,completion,13584.08,833289,833283.3,833299.92,846884,846885,2024-05-25T19:04:14Z,846900.68,NULL,Körper,kiwiliwili,d,NA,NA,NA,NA,sdfdsf,NA,1,NA,NA,NA,NA,NA,NA,NA,NA,NA,NA,NA,NA,NA,NA,NA,NA,NA,NA,NA
c82e5,shallow,flow.Sequence,5_0_1_0_7_1,NA,NA,skipped,NA,846886,NA,NA,846884,846886,2024-05-25T19:04:14Z,846900.68,NULL,Körper,kiwiliwili,d,NA,NA,NA,NA,sdfdsf,NA,1,NA,NA,NA,NA,NA,NA,NA,NA,NA,NA,NA,NA,NA,NA,NA,NA,NA,NA,NA
c82e5,task,flow.Sequence,5_0_1_0_7,NA,NA,completion,13584.08,833289,833283.3,833299.92,846884,846886,2024-05-25T19:04:14Z,846900.68,NULL,Körper,kiwiliwili,d,NA,NA,NA,NA,sdfdsf,NA,1,NA,NA,NA,NA,NA,NA,NA,NA,NA,NA,NA,NA,NA,NA,NA,NA,NA,NA,NA
c82e5,block,flow.Loop,5_0_1_0,NA,NA,completion,98036.56,748847,748847.1,748847.44,846884,846887,2024-05-25T19:04:14Z,846900.68,NULL,NA,NA,NA,NA,NA,NA,NA,sdfdsf,NA,1,NA,NA,NA,NA,NA,NA,NA,NA,NA,NA,NA,NA,NA,NA,NA,NA,NA,NA,NA
c82e5,weiter,canvas.Screen,5_0_1_1,sdf,keypress(Space),response,2567.3199999999,846887,846884,846900.68,849468,849471,2024-05-25T19:04:16Z,849526.92,NULL,NA,NA,NA,NA,NA,NA,NA,sdfdsf,NA,1,NA,NA,NA,NA,NA,NA,NA,NA,NA,NA,NA,NA,NA,NA,NA,NA,NA,NA,NA
c82e5,check continue,flow.Sequence,5_0_1,NA,NA,completion,100620.56,748847,748847.1,748847.44,849468,849472,2024-05-25T19:04:16Z,849526.92,NULL,NA,NA,NA,NA,NA,NA,NA,sdfdsf,NA,1,NA,NA,NA,NA,NA,NA,NA,NA,NA,NA,NA,NA,NA,NA,NA,NA,NA,NA,NA
c82e5,deep,flow.Sequence,5_0_2_0_0_0,NA,NA,skipped,NA,849526,NA,NA,849468,849527,2024-05-25T19:04:16Z,849526.92,NULL,Konkurrent,mshindani,s,msemaji,mvutaji,kipukusa,NA,sdf,NA,2,NA,NA,NA,NA,NA,NA,NA,NA,NA,NA,NA,NA,NA,NA,NA,NA,NA,NA,NA
c82e5,Shallow Question,html.Page,5_0_2_0_0_1_0,NA,NA,form submission,6978.08,849527,849526.5,849526.92,856505,856505,2024-05-25T19:04:23Z,856510.66,NULL,Konkurrent,mshindani,s,msemaji,mvutaji,kipukusa,mshindani,NA,NA,2,NA,NA,NA,NA,NA,NA,NA,NA,NA,NA,NA,NA,NA,NA,NA,NA,NA,NA,NA
c82e5,"""Richtig""-Screen",canvas.Screen,5_0_2_0_0_1_1,NA,NA,timeout,5030.1,856506,856501.44,856510.66,861499.62,861541,2024-05-25T19:04:28Z,861540.76,NULL,Konkurrent,mshindani,s,msemaji,mvutaji,kipukusa,NA,sdf,1,2,NA,NA,NA,NA,NA,NA,NA,NA,NA,NA,NA,NA,NA,NA,NA,NA,NA,NA,NA
c82e5,"""Falsch""-Screen",canvas.Screen,5_0_2_0_0_1_2,NA,NA,skipped,NA,861544,NA,NA,861499.62,861544,2024-05-25T19:04:28Z,861540.76,NULL,Konkurrent,mshindani,s,msemaji,mvutaji,kipukusa,NA,sdf,NA,2,NA,NA,NA,NA,NA,NA,NA,NA,NA,NA,NA,NA,NA,NA,NA,NA,NA,NA,NA
c82e5,shallow,flow.Sequence,5_0_2_0_0_1,NA,NA,completion,11972.7,849527,849526.5,849526.92,861499.62,861544,2024-05-25T19:04:28Z,861540.76,NULL,Konkurrent,mshindani,s,msemaji,mvutaji,kipukusa,NA,sdf,NA,2,NA,NA,NA,NA,NA,NA,NA,NA,NA,NA,NA,NA,NA,NA,NA,NA,NA,NA,NA
c82e5,task,flow.Sequence,5_0_2_0_0,NA,NA,completion,11972.7,849526,849526.5,849526.92,861499.62,861545,2024-05-25T19:04:28Z,861540.76,NULL,Konkurrent,mshindani,s,msemaji,mvutaji,kipukusa,NA,sdf,NA,2,NA,NA,NA,NA,NA,NA,NA,NA,NA,NA,NA,NA,NA,NA,NA,NA,NA,NA,NA
c82e5,Deep Question,html.Page,5_0_2_0_1_0_0,NA,NA,form submission,7782.24,861545,861499.62,861540.76,869323,869323,2024-05-25T19:04:36Z,869326.32,NULL,Zuwachs,nyongeza,d,NA,NA,NA,kiwiliwili,NA,NA,2,NA,NA,NA,NA,NA,NA,NA,NA,NA,NA,NA,NA,NA,NA,NA,NA,NA,NA,NA
c82e5,"""Richtig""-Screen",canvas.Screen,5_0_2_0_1_0_1,NA,NA,skipped,NA,869324,NA,NA,869323,869324,2024-05-25T19:04:36Z,869326.32,NULL,Zuwachs,nyongeza,d,NA,NA,NA,NA,sdf,NA,2,NA,NA,NA,NA,NA,NA,NA,NA,NA,NA,NA,NA,NA,NA,NA,NA,NA,NA,NA
c82e5,"""Falsch""-Screen",canvas.Screen,5_0_2_0_1_0_2,NA,NA,timeout,5005.14,869325,869318.76,869326.32,874314.8,874316,2024-05-25T19:04:41Z,874331.46,NULL,Zuwachs,nyongeza,d,NA,NA,NA,NA,sdf,0,2,NA,NA,NA,NA,NA,NA,NA,NA,NA,NA,NA,NA,NA,NA,NA,NA,NA,NA,NA
c82e5,deep,flow.Sequence,5_0_2_0_1_0,NA,NA,completion,12774.04,861545,861499.62,861540.76,874314.8,874316,2024-05-25T19:04:41Z,874331.46,NULL,Zuwachs,nyongeza,d,NA,NA,NA,NA,sdf,NA,2,NA,NA,NA,NA,NA,NA,NA,NA,NA,NA,NA,NA,NA,NA,NA,NA,NA,NA,NA
c82e5,shallow,flow.Sequence,5_0_2_0_1_1,NA,NA,skipped,NA,874316,NA,NA,874314.8,874316,2024-05-25T19:04:41Z,874331.46,NULL,Zuwachs,nyongeza,d,NA,NA,NA,NA,sdf,NA,2,NA,NA,NA,NA,NA,NA,NA,NA,NA,NA,NA,NA,NA,NA,NA,NA,NA,NA,NA
c82e5,task,flow.Sequence,5_0_2_0_1,NA,NA,completion,12774.04,861545,861499.62,861540.76,874314.8,874316,2024-05-25T19:04:41Z,874331.46,NULL,Zuwachs,nyongeza,d,NA,NA,NA,NA,sdf,NA,2,NA,NA,NA,NA,NA,NA,NA,NA,NA,NA,NA,NA,NA,NA,NA,NA,NA,NA,NA
c82e5,deep,flow.Sequence,5_0_2_0_2_0,NA,NA,skipped,NA,874316,NA,NA,874314.8,874316,2024-05-25T19:04:41Z,874331.46,NULL,Lawine,banguko,s,maambukizi,usuluhishi,chekechea,NA,sdf,NA,2,NA,NA,NA,NA,NA,NA,NA,NA,NA,NA,NA,NA,NA,NA,NA,NA,NA,NA,NA
c82e5,Shallow Question,html.Page,5_0_2_0_2_1_0,NA,NA,form submission,6704.54,874316,874314.8,874331.46,881036,881036,2024-05-25T19:04:48Z,881037.16,NULL,Lawine,banguko,s,maambukizi,usuluhishi,chekechea,banguko,NA,NA,2,NA,NA,NA,NA,NA,NA,NA,NA,NA,NA,NA,NA,NA,NA,NA,NA,NA,NA,NA
c82e5,"""Richtig""-Screen",canvas.Screen,5_0_2_0_2_1_1,NA,NA,timeout,4993.24,881039,881033.16,881037.16,886013.84,886015,2024-05-25T19:04:53Z,886030.4,NULL,Lawine,banguko,s,maambukizi,usuluhishi,chekechea,NA,sdf,1,2,NA,NA,NA,NA,NA,NA,NA,NA,NA,NA,NA,NA,NA,NA,NA,NA,NA,NA,NA
c82e5,"""Falsch""-Screen",canvas.Screen,5_0_2_0_2_1_2,NA,NA,skipped,NA,886017,NA,NA,886013.84,886017,2024-05-25T19:04:53Z,886030.4,NULL,Lawine,banguko,s,maambukizi,usuluhishi,chekechea,NA,sdf,NA,2,NA,NA,NA,NA,NA,NA,NA,NA,NA,NA,NA,NA,NA,NA,NA,NA,NA,NA,NA
c82e5,shallow,flow.Sequence,5_0_2_0_2_1,NA,NA,completion,11682.38,874316,874314.8,874331.46,886013.84,886017,2024-05-25T19:04:53Z,886030.4,NULL,Lawine,banguko,s,maambukizi,usuluhishi,chekechea,NA,sdf,NA,2,NA,NA,NA,NA,NA,NA,NA,NA,NA,NA,NA,NA,NA,NA,NA,NA,NA,NA,NA
c82e5,task,flow.Sequence,5_0_2_0_2,NA,NA,completion,11682.38,874316,874314.8,874331.46,886013.84,886017,2024-05-25T19:04:53Z,886030.4,NULL,Lawine,banguko,s,maambukizi,usuluhishi,chekechea,NA,sdf,NA,2,NA,NA,NA,NA,NA,NA,NA,NA,NA,NA,NA,NA,NA,NA,NA,NA,NA,NA,NA
c82e5,deep,flow.Sequence,5_0_2_0_3_0,NA,NA,skipped,NA,886017,NA,NA,886013.84,886017,2024-05-25T19:04:53Z,886030.4,NULL,Vorsorge,tahadhari,s,ufafanuzi,makini,mashambani,NA,sdf,NA,2,NA,NA,NA,NA,NA,NA,NA,NA,NA,NA,NA,NA,NA,NA,NA,NA,NA,NA,NA
c82e5,Shallow Question,html.Page,5_0_2_0_3_1_0,NA,NA,form submission,7539.6,886017,886013.84,886030.4,893570,893570,2024-05-25T19:05:00Z,893570.06,NULL,Vorsorge,tahadhari,s,ufafanuzi,makini,mashambani,ufafanuzi,NA,NA,2,NA,NA,NA,NA,NA,NA,NA,NA,NA,NA,NA,NA,NA,NA,NA,NA,NA,NA,NA
