observation,sender,sender_type,sender_id,response,response_action,ended_on,duration,time_run,time_render,time_show,time_end,time_commit,timestamp,time_switch,distractors,german,swahili,enc,distractor1,distractor2,distractor3,response_2,x,correct,x_2,url_vp,url_sess,meta_labjs_version,meta_location,meta_user_agent,meta_platform,meta_language,meta_locale,meta_time_zone,meta_timezone_offset,meta_screen_width,meta_screen_height,meta_scroll_width,meta_scroll_height,meta_window_inner_width,meta_window_inner_height,meta_device_pixel_ratio,meta_labjs_build_flavor,meta_labjs_build_commit
57550,Introduction general,canvas.Screen,0,weiter,keypress(q),response,129361.635,742.40000000224,745.388,795.365,130157,130159.4,2023-01-20T15:42:01Z,130168.403,NULL,NA,NA,NA,NA,NA,NA,NA,NA,NA,NA,107,1,20.2.4,https://neurocog.fernuni.ch/studies/vweber/encoding_immediate/index.html?vp=107&sess=1,"Mozilla/5.0 (Windows NT 10.0; Win64; x64) AppleWebKit/537.36 (KHTML, like Gecko) Chrome/109.0.0.0 Safari/537.36",Win32,de-DE,de,Europe/Berlin,-60,1536,864,1536,674,1536,722,1.25,production,f5b4a49f956347addd546a832a3327688c2c0fef
57550,Introduction practice,canvas.Screen,1_0,NA,keypress(Space),response,16513.297000003,130159.7,130151.726,130168.403,146681.7,146682.3,2023-01-20T15:42:17Z,146696.425,NULL,NA,NA,NA,NA,NA,NA,NA,NA,NA,NA,NA,NA,NA,NA,NA,NA,NA,NA,NA,NA,NA,NA,NA,NA,NA,NA,NA,NA,NA
57550,deep,flow.Sequence,1_1_0_0,NA,NA,skipped,NA,146682.5,NA,NA,146681.7,146683.9,2023-01-20T15:42:17Z,146696.425,"c(""distractor1"", ""distractor2"", ""distractor3"")",Rückhalt,msaada,s,muhula,auwali,kiwimbe,NA,NA,NA,NA,NA,NA,NA,NA,NA,NA,NA,NA,NA,NA,NA,NA,NA,NA,NA,NA,NA,NA,NA
57550,Shallow Question,html.Page,1_1_0_1_0,NA,NA,form submission,11881.475000002,146684,146678.55,146696.425,158577.9,158578.2,2023-01-20T15:42:29Z,158599.191,"c(""distractor1"", ""distractor2"", ""distractor3"")",Rückhalt,msaada,s,muhula,auwali,kiwimbe,auwali,NA,NA,NA,NA,NA,NA,NA,NA,NA,NA,NA,NA,NA,NA,NA,NA,NA,NA,NA,NA,NA,NA
57550,"""Richtig""-Screen",canvas.Screen,1_1_0_1_1,NA,NA,skipped,NA,158579.4,NA,NA,158577.9,158579.6,2023-01-20T15:42:29Z,158599.191,"c(""distractor1"", ""distractor2"", ""distractor3"")",Rückhalt,msaada,s,muhula,auwali,kiwimbe,NA,NA,NA,NA,NA,NA,NA,NA,NA,NA,NA,NA,NA,NA,NA,NA,NA,NA,NA,NA,NA,NA,NA
57550,"""Falsch""-Screen",canvas.Screen,1_1_0_1_2,NA,NA,timeout,5008.062,158580.6,158558.933,158599.191,163590.583,163592.8,2023-01-20T15:42:34Z,163607.253,"c(""distractor1"", ""distractor2"", ""distractor3"")",Rückhalt,msaada,s,muhula,auwali,kiwimbe,NA,NA,0,NA,NA,NA,NA,NA,NA,NA,NA,NA,NA,NA,NA,NA,NA,NA,NA,NA,NA,NA,NA
57550,shallow,flow.Sequence,1_1_0_1,NA,NA,completion,16894.158,146684,146678.55,146696.425,163590.583,163593,2023-01-20T15:42:34Z,163607.253,"c(""distractor1"", ""distractor2"", ""distractor3"")",Rückhalt,msaada,s,muhula,auwali,kiwimbe,NA,NA,NA,NA,NA,NA,NA,NA,NA,NA,NA,NA,NA,NA,NA,NA,NA,NA,NA,NA,NA,NA,NA
57550,task,flow.Sequence,1_1_0,NA,NA,completion,16894.158,146682.5,146678.55,146696.425,163590.583,163593.2,2023-01-20T15:42:34Z,163607.253,"c(""distractor1"", ""distractor2"", ""distractor3"")",Rückhalt,msaada,s,muhula,auwali,kiwimbe,NA,NA,NA,NA,NA,NA,NA,NA,NA,NA,NA,NA,NA,NA,NA,NA,NA,NA,NA,NA,NA,NA,NA
57550,Deep Question,html.Page,1_1_1_0_0,NA,NA,form submission,6994.3470000015,163593.4,163590.583,163607.253,170601.6,170602,2023-01-20T15:42:41Z,170604.721,"c(""distractor1"", ""distractor2"", ""distractor3"")",Qualität,mtindo,d,NA,NA,NA,heb,NA,NA,NA,NA,NA,NA,NA,NA,NA,NA,NA,NA,NA,NA,NA,NA,NA,NA,NA,NA,NA,NA
57550,"""Richtig""-Screen",canvas.Screen,1_1_1_0_1,NA,NA,skipped,NA,170605.2,NA,NA,170601.6,170605.5,2023-01-20T15:42:41Z,170604.721,"c(""distractor1"", ""distractor2"", ""distractor3"")",Qualität,mtindo,d,NA,NA,NA,NA,NA,NA,NA,NA,NA,NA,NA,NA,NA,NA,NA,NA,NA,NA,NA,NA,NA,NA,NA,NA,NA,NA
57550,"""Falsch""-Screen",canvas.Screen,1_1_1_0_2,NA,NA,timeout,4998.482,170606.4,170588.278,170604.721,175586.528,175587.2,2023-01-20T15:42:46Z,175603.203,"c(""distractor1"", ""distractor2"", ""distractor3"")",Qualität,mtindo,d,NA,NA,NA,NA,NA,0,NA,NA,NA,NA,NA,NA,NA,NA,NA,NA,NA,NA,NA,NA,NA,NA,NA,NA,NA,NA
57550,deep,flow.Sequence,1_1_1_0,NA,NA,completion,11979.275,163593.2,163590.583,163607.253,175586.528,175587.5,2023-01-20T15:42:46Z,175603.203,"c(""distractor1"", ""distractor2"", ""distractor3"")",Qualität,mtindo,d,NA,NA,NA,NA,NA,NA,NA,NA,NA,NA,NA,NA,NA,NA,NA,NA,NA,NA,NA,NA,NA,NA,NA,NA,NA,NA
57550,shallow,flow.Sequence,1_1_1_1,NA,NA,skipped,NA,175587.6,NA,NA,175586.528,175587.7,2023-01-20T15:42:46Z,175603.203,"c(""distractor1"", ""distractor2"", ""distractor3"")",Qualität,mtindo,d,NA,NA,NA,NA,NA,NA,NA,NA,NA,NA,NA,NA,NA,NA,NA,NA,NA,NA,NA,NA,NA,NA,NA,NA,NA,NA
57550,task,flow.Sequence,1_1_1,NA,NA,completion,11979.275,163593.2,163590.583,163607.253,175586.528,175587.8,2023-01-20T15:42:46Z,175603.203,"c(""distractor1"", ""distractor2"", ""distractor3"")",Qualität,mtindo,d,NA,NA,NA,NA,NA,NA,NA,NA,NA,NA,NA,NA,NA,NA,NA,NA,NA,NA,NA,NA,NA,NA,NA,NA,NA,NA
57550,deep,flow.Sequence,1_1_2_0,NA,NA,skipped,NA,175587.9,NA,NA,175586.528,175588,2023-01-20T15:42:46Z,175603.203,"c(""distractor1"", ""distractor2"", ""distractor3"")",Kritik,lawama,s,dereva,nafasi,mawazo,NA,NA,NA,NA,NA,NA,NA,NA,NA,NA,NA,NA,NA,NA,NA,NA,NA,NA,NA,NA,NA,NA,NA
57550,Shallow Question,html.Page,1_1_2_1_0,NA,NA,form submission,10727.797,175588,175586.528,175603.203,186331,186331.3,2023-01-20T15:42:57Z,186332.749,"c(""distractor1"", ""distractor2"", ""distractor3"")",Kritik,lawama,s,dereva,nafasi,mawazo,mawazo,NA,NA,NA,NA,NA,NA,NA,NA,NA,NA,NA,NA,NA,NA,NA,NA,NA,NA,NA,NA,NA,NA
57550,"""Richtig""-Screen",canvas.Screen,1_1_2_1_1,NA,NA,skipped,NA,186333.9,NA,NA,186331,186334.2,2023-01-20T15:42:57Z,186332.749,"c(""distractor1"", ""distractor2"", ""distractor3"")",Kritik,lawama,s,dereva,nafasi,mawazo,NA,NA,NA,NA,NA,NA,NA,NA,NA,NA,NA,NA,NA,NA,NA,NA,NA,NA,NA,NA,NA,NA,NA
57550,"""Falsch""-Screen",canvas.Screen,1_1_2_1_2,NA,NA,timeout,4998.354,186335,186316.235,186332.749,191314.497,191315.4,2023-01-20T15:43:02Z,191331.103,"c(""distractor1"", ""distractor2"", ""distractor3"")",Kritik,lawama,s,dereva,nafasi,mawazo,NA,NA,0,NA,NA,NA,NA,NA,NA,NA,NA,NA,NA,NA,NA,NA,NA,NA,NA,NA,NA,NA,NA
57550,shallow,flow.Sequence,1_1_2_1,NA,NA,completion,15711.294,175588,175586.528,175603.203,191314.497,191315.6,2023-01-20T15:43:02Z,191331.103,"c(""distractor1"", ""distractor2"", ""distractor3"")",Kritik,lawama,s,dereva,nafasi,mawazo,NA,NA,NA,NA,NA,NA,NA,NA,NA,NA,NA,NA,NA,NA,NA,NA,NA,NA,NA,NA,NA,NA,NA
57550,task,flow.Sequence,1_1_2,NA,NA,completion,15711.294,175587.9,175586.528,175603.203,191314.497,191315.7,2023-01-20T15:43:02Z,191331.103,"c(""distractor1"", ""distractor2"", ""distractor3"")",Kritik,lawama,s,dereva,nafasi,mawazo,NA,NA,NA,NA,NA,NA,NA,NA,NA,NA,NA,NA,NA,NA,NA,NA,NA,NA,NA,NA,NA,NA,NA
57550,deep,flow.Sequence,1_1_3_0,NA,NA,skipped,NA,191315.9,NA,NA,191314.497,191316,2023-01-20T15:43:02Z,191331.103,"c(""distractor1"", ""distractor2"", ""distractor3"")",Gegenwart,hadhara,s,katiba,jokofu,mikopo,NA,NA,NA,NA,NA,NA,NA,NA,NA,NA,NA,NA,NA,NA,NA,NA,NA,NA,NA,NA,NA,NA,NA
57550,Shallow Question,html.Page,1_1_3_1_0,NA,NA,form submission,7154.9970000015,191316.1,191314.497,191331.103,198486.1,198486.3,2023-01-20T15:43:09Z,198495.314,"c(""distractor1"", ""distractor2"", ""distractor3"")",Gegenwart,hadhara,s,katiba,jokofu,mikopo,mikopo,NA,NA,NA,NA,NA,NA,NA,NA,NA,NA,NA,NA,NA,NA,NA,NA,NA,NA,NA,NA,NA,NA
57550,"""Richtig""-Screen",canvas.Screen,1_1_3_1_1,NA,NA,skipped,NA,198488.4,NA,NA,198486.1,198488.6,2023-01-20T15:43:09Z,198495.314,"c(""distractor1"", ""distractor2"", ""distractor3"")",Gegenwart,hadhara,s,katiba,jokofu,mikopo,NA,NA,NA,NA,NA,NA,NA,NA,NA,NA,NA,NA,NA,NA,NA,NA,NA,NA,NA,NA,NA,NA,NA
57550,"""Falsch""-Screen",canvas.Screen,1_1_3_1_2,NA,NA,timeout,4998.537,198489.4,198478.776,198495.314,203477.116,203478,2023-01-20T15:43:14Z,203493.851,"c(""distractor1"", ""distractor2"", ""distractor3"")",Gegenwart,hadhara,s,katiba,jokofu,mikopo,NA,NA,0,NA,NA,NA,NA,NA,NA,NA,NA,NA,NA,NA,NA,NA,NA,NA,NA,NA,NA,NA,NA
57550,shallow,flow.Sequence,1_1_3_1,NA,NA,completion,12146.013,191316,191314.497,191331.103,203477.116,203478.2,2023-01-20T15:43:14Z,203493.851,"c(""distractor1"", ""distractor2"", ""distractor3"")",Gegenwart,hadhara,s,katiba,jokofu,mikopo,NA,NA,NA,NA,NA,NA,NA,NA,NA,NA,NA,NA,NA,NA,NA,NA,NA,NA,NA,NA,NA,NA,NA
57550,task,flow.Sequence,1_1_3,NA,NA,completion,12146.013,191315.8,191314.497,191331.103,203477.116,203478.3,2023-01-20T15:43:14Z,203493.851,"c(""distractor1"", ""distractor2"", ""distractor3"")",Gegenwart,hadhara,s,katiba,jokofu,mikopo,NA,NA,NA,NA,NA,NA,NA,NA,NA,NA,NA,NA,NA,NA,NA,NA,NA,NA,NA,NA,NA,NA,NA
57550,Deep Question,html.Page,1_1_4_0_0,NA,NA,form submission,6294.2490000015,203478.4,203477.116,203493.851,209788.1,209788.4,2023-01-20T15:43:20Z,209791.527,"c(""distractor1"", ""distractor2"", ""distractor3"")",Schatten,kivuli,d,NA,NA,NA,bohono,NA,NA,NA,NA,NA,NA,NA,NA,NA,NA,NA,NA,NA,NA,NA,NA,NA,NA,NA,NA,NA,NA
57550,"""Richtig""-Screen",canvas.Screen,1_1_4_0_1,NA,NA,skipped,NA,209790.6,NA,NA,209788.1,209790.8,2023-01-20T15:43:20Z,209791.527,"c(""distractor1"", ""distractor2"", ""distractor3"")",Schatten,kivuli,d,NA,NA,NA,NA,NA,NA,NA,NA,NA,NA,NA,NA,NA,NA,NA,NA,NA,NA,NA,NA,NA,NA,NA,NA,NA,NA
57550,"""Falsch""-Screen",canvas.Screen,1_1_4_0_2,NA,NA,timeout,4998.29,209792.1,209774.971,209791.527,214773.207,214773.7,2023-01-20T15:43:25Z,214789.817,"c(""distractor1"", ""distractor2"", ""distractor3"")",Schatten,kivuli,d,NA,NA,NA,NA,NA,0,NA,NA,NA,NA,NA,NA,NA,NA,NA,NA,NA,NA,NA,NA,NA,NA,NA,NA,NA,NA
57550,deep,flow.Sequence,1_1_4_0,NA,NA,completion,11279.356,203478.4,203477.116,203493.851,214773.207,214774,2023-01-20T15:43:25Z,214789.817,"c(""distractor1"", ""distractor2"", ""distractor3"")",Schatten,kivuli,d,NA,NA,NA,NA,NA,NA,NA,NA,NA,NA,NA,NA,NA,NA,NA,NA,NA,NA,NA,NA,NA,NA,NA,NA,NA,NA
57550,shallow,flow.Sequence,1_1_4_1,NA,NA,skipped,NA,214774.1,NA,NA,214773.207,214774.2,2023-01-20T15:43:25Z,214789.817,"c(""distractor1"", ""distractor2"", ""distractor3"")",Schatten,kivuli,d,NA,NA,NA,NA,NA,NA,NA,NA,NA,NA,NA,NA,NA,NA,NA,NA,NA,NA,NA,NA,NA,NA,NA,NA,NA,NA
57550,task,flow.Sequence,1_1_4,NA,NA,completion,11279.356,203478.4,203477.116,203493.851,214773.207,214774.3,2023-01-20T15:43:25Z,214789.817,"c(""distractor1"", ""distractor2"", ""distractor3"")",Schatten,kivuli,d,NA,NA,NA,NA,NA,NA,NA,NA,NA,NA,NA,NA,NA,NA,NA,NA,NA,NA,NA,NA,NA,NA,NA,NA,NA,NA
57550,Deep Question,html.Page,1_1_5_0_0,NA,NA,form submission,4686.0830000022,214774.6,214773.207,214789.817,219475.9,219476.3,2023-01-20T15:43:30Z,219488.313,"c(""distractor1"", ""distractor2"", ""distractor3"")",Gesundheit,salama,d,NA,NA,NA,hatschi,NA,NA,NA,NA,NA,NA,NA,NA,NA,NA,NA,NA,NA,NA,NA,NA,NA,NA,NA,NA,NA,NA
57550,"""Richtig""-Screen",canvas.Screen,1_1_5_0_1,NA,NA,skipped,NA,219478.7,NA,NA,219475.9,219478.8,2023-01-20T15:43:30Z,219488.313,"c(""distractor1"", ""distractor2"", ""distractor3"")",Gesundheit,salama,d,NA,NA,NA,NA,NA,NA,NA,NA,NA,NA,NA,NA,NA,NA,NA,NA,NA,NA,NA,NA,NA,NA,NA,NA,NA,NA
57550,"""Falsch""-Screen",canvas.Screen,1_1_5_0_2,NA,NA,timeout,4998.458,219479.5,219471.718,219488.313,224470.04,224470.5,2023-01-20T15:43:35Z,224486.771,"c(""distractor1"", ""distractor2"", ""distractor3"")",Gesundheit,salama,d,NA,NA,NA,NA,NA,0,NA,NA,NA,NA,NA,NA,NA,NA,NA,NA,NA,NA,NA,NA,NA,NA,NA,NA,NA,NA
57550,deep,flow.Sequence,1_1_5_0,NA,NA,completion,9680.223,214774.5,214773.207,214789.817,224470.04,224470.7,2023-01-20T15:43:35Z,224486.771,"c(""distractor1"", ""distractor2"", ""distractor3"")",Gesundheit,salama,d,NA,NA,NA,NA,NA,NA,NA,NA,NA,NA,NA,NA,NA,NA,NA,NA,NA,NA,NA,NA,NA,NA,NA,NA,NA,NA
57550,shallow,flow.Sequence,1_1_5_1,NA,NA,skipped,NA,224470.8,NA,NA,224470.04,224470.8,2023-01-20T15:43:35Z,224486.771,"c(""distractor1"", ""distractor2"", ""distractor3"")",Gesundheit,salama,d,NA,NA,NA,NA,NA,NA,NA,NA,NA,NA,NA,NA,NA,NA,NA,NA,NA,NA,NA,NA,NA,NA,NA,NA,NA,NA
57550,task,flow.Sequence,1_1_5,NA,NA,completion,9680.223,214774.4,214773.207,214789.817,224470.04,224471,2023-01-20T15:43:35Z,224486.771,"c(""distractor1"", ""distractor2"", ""distractor3"")",Gesundheit,salama,d,NA,NA,NA,NA,NA,NA,NA,NA,NA,NA,NA,NA,NA,NA,NA,NA,NA,NA,NA,NA,NA,NA,NA,NA,NA,NA
57550,block,flow.Loop,1_1,NA,NA,completion,77773.615,146682.5,146678.55,146696.425,224470.04,224471.3,2023-01-20T15:43:35Z,224486.771,"c(""distractor1"", ""distractor2"", ""distractor3"")",NA,NA,NA,NA,NA,NA,NA,NA,NA,NA,NA,NA,NA,NA,NA,NA,NA,NA,NA,NA,NA,NA,NA,NA,NA,NA,NA,NA,NA
57550,Practice,flow.Sequence,1,NA,NA,completion,94301.637,130159.7,130151.726,130168.403,224470.04,224471.3,2023-01-20T15:43:35Z,224486.771,NULL,NA,NA,NA,NA,NA,NA,NA,NA,NA,NA,NA,NA,NA,NA,NA,NA,NA,NA,NA,NA,NA,NA,NA,NA,NA,NA,NA,NA,NA
57550,Experiment start,canvas.Screen,2,weiter,keypress(q),response,7546.229,224471.3,224470.04,224486.771,232033,232033.6,2023-01-20T15:43:43Z,232160.226,NULL,NA,NA,NA,NA,NA,NA,NA,NA,NA,NA,NA,NA,NA,NA,NA,NA,NA,NA,NA,NA,NA,NA,NA,NA,NA,NA,NA,NA,NA
57550,Deep Question,html.Page,3_0_0_0_0_0_0,NA,NA,form submission,6492.8740000015,232132.8,232117.273,232160.226,238653.1,238653.3,2023-01-20T15:43:49Z,238665.328,NULL,System,maongozi,d,NA,NA,NA,bahama,NA,NA,0,NA,NA,NA,NA,NA,NA,NA,NA,NA,NA,NA,NA,NA,NA,NA,NA,NA,NA,NA
57550,"""Richtig""-Screen",canvas.Screen,3_0_0_0_0_0_1,NA,NA,skipped,NA,238655.6,NA,NA,238653.1,238655.8,2023-01-20T15:43:49Z,238665.328,NULL,System,maongozi,d,NA,NA,NA,NA,sdf,NA,0,NA,NA,NA,NA,NA,NA,NA,NA,NA,NA,NA,NA,NA,NA,NA,NA,NA,NA,NA
57550,"""Falsch""-Screen",canvas.Screen,3_0_0_0_0_0_2,NA,NA,timeout,4998.212,238656.5,238648.477,238665.328,243646.871,243647.5,2023-01-20T15:43:54Z,243663.54,NULL,System,maongozi,d,NA,NA,NA,NA,sdf,0,0,NA,NA,NA,NA,NA,NA,NA,NA,NA,NA,NA,NA,NA,NA,NA,NA,NA,NA,NA
57550,deep,flow.Sequence,3_0_0_0_0_0,NA,NA,completion,11486.645,232132.8,232117.273,232160.226,243646.871,243647.7,2023-01-20T15:43:54Z,243663.54,NULL,System,maongozi,d,NA,NA,NA,NA,sdf,NA,0,NA,NA,NA,NA,NA,NA,NA,NA,NA,NA,NA,NA,NA,NA,NA,NA,NA,NA,NA
57550,shallow,flow.Sequence,3_0_0_0_0_1,NA,NA,skipped,NA,243647.7,NA,NA,243646.871,243647.8,2023-01-20T15:43:54Z,243663.54,NULL,System,maongozi,d,NA,NA,NA,NA,sdf,NA,0,NA,NA,NA,NA,NA,NA,NA,NA,NA,NA,NA,NA,NA,NA,NA,NA,NA,NA,NA
57550,task,flow.Sequence,3_0_0_0_0,NA,NA,completion,11486.645,232132.8,232117.273,232160.226,243646.871,243648,2023-01-20T15:43:54Z,243663.54,NULL,System,maongozi,d,NA,NA,NA,NA,sdf,NA,0,NA,NA,NA,NA,NA,NA,NA,NA,NA,NA,NA,NA,NA,NA,NA,NA,NA,NA,NA
57550,Deep Question,html.Page,3_0_0_0_1_0_0,NA,NA,form submission,4687.660000003,243648,243646.871,243663.54,248351.2,248351.3,2023-01-20T15:43:59Z,248361.939,NULL,Papier,karatasi,d,NA,NA,NA,paop,NA,NA,0,NA,NA,NA,NA,NA,NA,NA,NA,NA,NA,NA,NA,NA,NA,NA,NA,NA,NA,NA
57550,"""Richtig""-Screen",canvas.Screen,3_0_0_0_1_0_1,NA,NA,skipped,NA,248353.9,NA,NA,248351.2,248354.1,2023-01-20T15:43:59Z,248361.939,NULL,Papier,karatasi,d,NA,NA,NA,NA,sdf,NA,0,NA,NA,NA,NA,NA,NA,NA,NA,NA,NA,NA,NA,NA,NA,NA,NA,NA,NA,NA
57550,"""Falsch""-Screen",canvas.Screen,3_0_0_0_1_0_2,NA,NA,timeout,4998.402,248354.7,248345.285,248361.939,253343.63,253344,2023-01-20T15:44:04Z,253360.341,NULL,Papier,karatasi,d,NA,NA,NA,NA,sdf,0,0,NA,NA,NA,NA,NA,NA,NA,NA,NA,NA,NA,NA,NA,NA,NA,NA,NA,NA,NA
57550,deep,flow.Sequence,3_0_0_0_1_0,NA,NA,completion,9680.09,243648,243646.871,243663.54,253343.63,253344.4,2023-01-20T15:44:04Z,253360.341,NULL,Papier,karatasi,d,NA,NA,NA,NA,sdf,NA,0,NA,NA,NA,NA,NA,NA,NA,NA,NA,NA,NA,NA,NA,NA,NA,NA,NA,NA,NA
57550,shallow,flow.Sequence,3_0_0_0_1_1,NA,NA,skipped,NA,253344.5,NA,NA,253343.63,253344.5,2023-01-20T15:44:04Z,253360.341,NULL,Papier,karatasi,d,NA,NA,NA,NA,sdf,NA,0,NA,NA,NA,NA,NA,NA,NA,NA,NA,NA,NA,NA,NA,NA,NA,NA,NA,NA,NA
57550,task,flow.Sequence,3_0_0_0_1,NA,NA,completion,9680.09,243648,243646.871,243663.54,253343.63,253344.7,2023-01-20T15:44:04Z,253360.341,NULL,Papier,karatasi,d,NA,NA,NA,NA,sdf,NA,0,NA,NA,NA,NA,NA,NA,NA,NA,NA,NA,NA,NA,NA,NA,NA,NA,NA,NA,NA
57550,deep,flow.Sequence,3_0_0_0_2_0,NA,NA,skipped,NA,253344.7,NA,NA,253343.63,253344.8,2023-01-20T15:44:04Z,253360.341,NULL,Vorwurf,mashtaka,s,msukumo,mtangulizi,uenyekiti,NA,sdf,NA,0,NA,NA,NA,NA,NA,NA,NA,NA,NA,NA,NA,NA,NA,NA,NA,NA,NA,NA,NA
57550,Shallow Question,html.Page,3_0_0_0_2_1_0,NA,NA,form submission,11371.159,253344.8,253343.63,253360.341,264731.5,264731.7,2023-01-20T15:44:15Z,264739.673,NULL,Vorwurf,mashtaka,s,msukumo,mtangulizi,uenyekiti,msukumo,NA,NA,0,NA,NA,NA,NA,NA,NA,NA,NA,NA,NA,NA,NA,NA,NA,NA,NA,NA,NA,NA
57550,"""Richtig""-Screen",canvas.Screen,3_0_0_0_2_1_1,NA,NA,skipped,NA,264733.7,NA,NA,264731.5,264733.9,2023-01-20T15:44:15Z,264739.673,NULL,Vorwurf,mashtaka,s,msukumo,mtangulizi,uenyekiti,NA,sdf,NA,0,NA,NA,NA,NA,NA,NA,NA,NA,NA,NA,NA,NA,NA,NA,NA,NA,NA,NA,NA
57550,"""Falsch""-Screen",canvas.Screen,3_0_0_0_2_1_2,NA,NA,timeout,4998.299,264734.9,264723.132,264739.673,269721.444,269721.9,2023-01-20T15:44:20Z,269737.972,NULL,Vorwurf,mashtaka,s,msukumo,mtangulizi,uenyekiti,NA,sdf,0,0,NA,NA,NA,NA,NA,NA,NA,NA,NA,NA,NA,NA,NA,NA,NA,NA,NA,NA,NA
57550,shallow,flow.Sequence,3_0_0_0_2_1,NA,NA,completion,16361.103,253344.8,253343.63,253360.341,269721.444,269722.1,2023-01-20T15:44:20Z,269737.972,NULL,Vorwurf,mashtaka,s,msukumo,mtangulizi,uenyekiti,NA,sdf,NA,0,NA,NA,NA,NA,NA,NA,NA,NA,NA,NA,NA,NA,NA,NA,NA,NA,NA,NA,NA
57550,task,flow.Sequence,3_0_0_0_2,NA,NA,completion,16361.103,253344.7,253343.63,253360.341,269721.444,269722.2,2023-01-20T15:44:20Z,269737.972,NULL,Vorwurf,mashtaka,s,msukumo,mtangulizi,uenyekiti,NA,sdf,NA,0,NA,NA,NA,NA,NA,NA,NA,NA,NA,NA,NA,NA,NA,NA,NA,NA,NA,NA,NA
57550,Deep Question,html.Page,3_0_0_0_3_0_0,NA,NA,form submission,3876.9280000022,269722.2,269721.444,269737.972,273614.9,273615.2,2023-01-20T15:44:24Z,273619.985,NULL,Lawine,banguko,d,NA,NA,NA,bobo,NA,NA,0,NA,NA,NA,NA,NA,NA,NA,NA,NA,NA,NA,NA,NA,NA,NA,NA,NA,NA,NA
57550,"""Richtig""-Screen",canvas.Screen,3_0_0_0_3_0_1,NA,NA,skipped,NA,273617.4,NA,NA,273614.9,273617.5,2023-01-20T15:44:24Z,273619.985,NULL,Lawine,banguko,d,NA,NA,NA,NA,sdf,NA,0,NA,NA,NA,NA,NA,NA,NA,NA,NA,NA,NA,NA,NA,NA,NA,NA,NA,NA,NA
57550,"""Falsch""-Screen",canvas.Screen,3_0_0_0_3_0_2,NA,NA,timeout,4998.371,273618.1,273603.435,273619.985,278601.777,278602.6,2023-01-20T15:44:29Z,278618.356,NULL,Lawine,banguko,d,NA,NA,NA,NA,sdf,0,0,NA,NA,NA,NA,NA,NA,NA,NA,NA,NA,NA,NA,NA,NA,NA,NA,NA,NA,NA
57550,deep,flow.Sequence,3_0_0_0_3_0,NA,NA,completion,8863.805,269722.2,269721.444,269737.972,278601.777,278602.8,2023-01-20T15:44:29Z,278618.356,NULL,Lawine,banguko,d,NA,NA,NA,NA,sdf,NA,0,NA,NA,NA,NA,NA,NA,NA,NA,NA,NA,NA,NA,NA,NA,NA,NA,NA,NA,NA
57550,shallow,flow.Sequence,3_0_0_0_3_1,NA,NA,skipped,NA,278602.8,NA,NA,278601.777,278602.9,2023-01-20T15:44:29Z,278618.356,NULL,Lawine,banguko,d,NA,NA,NA,NA,sdf,NA,0,NA,NA,NA,NA,NA,NA,NA,NA,NA,NA,NA,NA,NA,NA,NA,NA,NA,NA,NA
57550,task,flow.Sequence,3_0_0_0_3,NA,NA,completion,8863.805,269722.2,269721.444,269737.972,278601.777,278603,2023-01-20T15:44:29Z,278618.356,NULL,Lawine,banguko,d,NA,NA,NA,NA,sdf,NA,0,NA,NA,NA,NA,NA,NA,NA,NA,NA,NA,NA,NA,NA,NA,NA,NA,NA,NA,NA
57550,deep,flow.Sequence,3_0_0_0_4_0,NA,NA,skipped,NA,278603.1,NA,NA,278601.777,278603.2,2023-01-20T15:44:29Z,278618.356,NULL,Körper,kiwiliwili,s,mapambano,mpatanishi,kiolezo,NA,sdf,NA,0,NA,NA,NA,NA,NA,NA,NA,NA,NA,NA,NA,NA,NA,NA,NA,NA,NA,NA,NA
57550,Shallow Question,html.Page,3_0_0_0_4_1_0,NA,NA,form submission,8626.9440000007,278603.2,278601.777,278618.356,287245.3,287245.5,2023-01-20T15:44:38Z,287248.727,NULL,Körper,kiwiliwili,s,mapambano,mpatanishi,kiolezo,mapambano,NA,NA,0,NA,NA,NA,NA,NA,NA,NA,NA,NA,NA,NA,NA,NA,NA,NA,NA,NA,NA,NA
57550,"""Richtig""-Screen",canvas.Screen,3_0_0_0_4_1_1,NA,NA,skipped,NA,287247.9,NA,NA,287245.3,287248,2023-01-20T15:44:38Z,287248.727,NULL,Körper,kiwiliwili,s,mapambano,mpatanishi,kiolezo,NA,sdf,NA,0,NA,NA,NA,NA,NA,NA,NA,NA,NA,NA,NA,NA,NA,NA,NA,NA,NA,NA,NA
57550,"""Falsch""-Screen",canvas.Screen,3_0_0_0_4_1_2,NA,NA,timeout,4998.497,287249,287232.06,287248.727,292230.491,292231.2,2023-01-20T15:44:43Z,292247.224,NULL,Körper,kiwiliwili,s,mapambano,mpatanishi,kiolezo,NA,sdf,0,0,NA,NA,NA,NA,NA,NA,NA,NA,NA,NA,NA,NA,NA,NA,NA,NA,NA,NA,NA
57550,shallow,flow.Sequence,3_0_0_0_4_1,NA,NA,completion,13612.135,278603.2,278601.777,278618.356,292230.491,292231.4,2023-01-20T15:44:43Z,292247.224,NULL,Körper,kiwiliwili,s,mapambano,mpatanishi,kiolezo,NA,sdf,NA,0,NA,NA,NA,NA,NA,NA,NA,NA,NA,NA,NA,NA,NA,NA,NA,NA,NA,NA,NA
57550,task,flow.Sequence,3_0_0_0_4,NA,NA,completion,13612.135,278603.1,278601.777,278618.356,292230.491,292231.5,2023-01-20T15:44:43Z,292247.224,NULL,Körper,kiwiliwili,s,mapambano,mpatanishi,kiolezo,NA,sdf,NA,0,NA,NA,NA,NA,NA,NA,NA,NA,NA,NA,NA,NA,NA,NA,NA,NA,NA,NA,NA
57550,deep,flow.Sequence,3_0_0_0_5_0,NA,NA,skipped,NA,292231.6,NA,NA,292230.491,292231.6,2023-01-20T15:44:43Z,292247.224,NULL,Entwicklung,maendeleo,s,uangavu,mshindwa,badiliko,NA,sdf,NA,0,NA,NA,NA,NA,NA,NA,NA,NA,NA,NA,NA,NA,NA,NA,NA,NA,NA,NA,NA
57550,Shallow Question,html.Page,3_0_0_0_5_1_0,NA,NA,form submission,13513.076000001,292231.7,292230.491,292247.224,305760.3,305760.6,2023-01-20T15:44:56Z,305775.978,NULL,Entwicklung,maendeleo,s,uangavu,mshindwa,badiliko,uangavu,NA,NA,0,NA,NA,NA,NA,NA,NA,NA,NA,NA,NA,NA,NA,NA,NA,NA,NA,NA,NA,NA
57550,"""Richtig""-Screen",canvas.Screen,3_0_0_0_5_1_1,NA,NA,skipped,NA,305762.5,NA,NA,305760.3,305762.7,2023-01-20T15:44:56Z,305775.978,NULL,Entwicklung,maendeleo,s,uangavu,mshindwa,badiliko,NA,sdf,NA,0,NA,NA,NA,NA,NA,NA,NA,NA,NA,NA,NA,NA,NA,NA,NA,NA,NA,NA,NA
57550,"""Falsch""-Screen",canvas.Screen,3_0_0_0_5_1_2,NA,NA,timeout,4998.346,305763.4,305759.251,305775.978,310757.449,310758.1,2023-01-20T15:45:01Z,310774.324,NULL,Entwicklung,maendeleo,s,uangavu,mshindwa,badiliko,NA,sdf,0,0,NA,NA,NA,NA,NA,NA,NA,NA,NA,NA,NA,NA,NA,NA,NA,NA,NA,NA,NA
57550,shallow,flow.Sequence,3_0_0_0_5_1,NA,NA,completion,18510.225,292231.7,292230.491,292247.224,310757.449,310758.3,2023-01-20T15:45:01Z,310774.324,NULL,Entwicklung,maendeleo,s,uangavu,mshindwa,badiliko,NA,sdf,NA,0,NA,NA,NA,NA,NA,NA,NA,NA,NA,NA,NA,NA,NA,NA,NA,NA,NA,NA,NA
57550,task,flow.Sequence,3_0_0_0_5,NA,NA,completion,18510.225,292231.6,292230.491,292247.224,310757.449,310758.5,2023-01-20T15:45:01Z,310774.324,NULL,Entwicklung,maendeleo,s,uangavu,mshindwa,badiliko,NA,sdf,NA,0,NA,NA,NA,NA,NA,NA,NA,NA,NA,NA,NA,NA,NA,NA,NA,NA,NA,NA,NA
57550,deep,flow.Sequence,3_0_0_0_6_0,NA,NA,skipped,NA,310758.5,NA,NA,310757.449,310758.6,2023-01-20T15:45:01Z,310774.324,NULL,Übersicht,kilindo,s,mgusano,chipukizi,kulinganisha,NA,sdf,NA,0,NA,NA,NA,NA,NA,NA,NA,NA,NA,NA,NA,NA,NA,NA,NA,NA,NA,NA,NA
57550,Shallow Question,html.Page,3_0_0_0_6_1_0,NA,NA,form submission,9117.5760000022,310758.6,310757.449,310774.324,319891.9,319892.1,2023-01-20T15:45:10Z,319904.428,NULL,Übersicht,kilindo,s,mgusano,chipukizi,kulinganisha,mgusano,NA,NA,0,NA,NA,NA,NA,NA,NA,NA,NA,NA,NA,NA,NA,NA,NA,NA,NA,NA,NA,NA
57550,"""Richtig""-Screen",canvas.Screen,3_0_0_0_6_1_1,NA,NA,skipped,NA,319894.1,NA,NA,319891.9,319894.3,2023-01-20T15:45:10Z,319904.428,NULL,Übersicht,kilindo,s,mgusano,chipukizi,kulinganisha,NA,sdf,NA,0,NA,NA,NA,NA,NA,NA,NA,NA,NA,NA,NA,NA,NA,NA,NA,NA,NA,NA,NA
57550,"""Falsch""-Screen",canvas.Screen,3_0_0_0_6_1_2,NA,NA,timeout,4998.44,319894.9,319887.846,319904.428,324886.18,324886.6,2023-01-20T15:45:15Z,324902.868,NULL,Übersicht,kilindo,s,mgusano,chipukizi,kulinganisha,NA,sdf,0,0,NA,NA,NA,NA,NA,NA,NA,NA,NA,NA,NA,NA,NA,NA,NA,NA,NA,NA,NA
57550,shallow,flow.Sequence,3_0_0_0_6_1,NA,NA,completion,14111.856,310758.6,310757.449,310774.324,324886.18,324886.8,2023-01-20T15:45:15Z,324902.868,NULL,Übersicht,kilindo,s,mgusano,chipukizi,kulinganisha,NA,sdf,NA,0,NA,NA,NA,NA,NA,NA,NA,NA,NA,NA,NA,NA,NA,NA,NA,NA,NA,NA,NA
57550,task,flow.Sequence,3_0_0_0_6,NA,NA,completion,14111.856,310758.5,310757.449,310774.324,324886.18,324886.9,2023-01-20T15:45:15Z,324902.868,NULL,Übersicht,kilindo,s,mgusano,chipukizi,kulinganisha,NA,sdf,NA,0,NA,NA,NA,NA,NA,NA,NA,NA,NA,NA,NA,NA,NA,NA,NA,NA,NA,NA,NA
57550,Deep Question,html.Page,3_0_0_0_7_0_0,NA,NA,form submission,5902.9320000007,324887,324886.18,324902.868,330805.8,330806,2023-01-20T15:45:21Z,330817.337,NULL,Niveau,kiwango,d,NA,NA,NA,ka,NA,NA,0,NA,NA,NA,NA,NA,NA,NA,NA,NA,NA,NA,NA,NA,NA,NA,NA,NA,NA,NA
57550,"""Richtig""-Screen",canvas.Screen,3_0_0_0_7_0_1,NA,NA,skipped,NA,330808.3,NA,NA,330805.8,330808.5,2023-01-20T15:45:21Z,330817.337,NULL,Niveau,kiwango,d,NA,NA,NA,NA,sdf,NA,0,NA,NA,NA,NA,NA,NA,NA,NA,NA,NA,NA,NA,NA,NA,NA,NA,NA,NA,NA
57550,"""Falsch""-Screen",canvas.Screen,3_0_0_0_7_0_2,NA,NA,timeout,4998.536,330809.2,330800.822,330817.337,335799.041,335799.5,2023-01-20T15:45:26Z,335815.873,NULL,Niveau,kiwango,d,NA,NA,NA,NA,sdf,0,0,NA,NA,NA,NA,NA,NA,NA,NA,NA,NA,NA,NA,NA,NA,NA,NA,NA,NA,NA
57550,deep,flow.Sequence,3_0_0_0_7_0,NA,NA,completion,10896.173,324887,324886.18,324902.868,335799.041,335799.7,2023-01-20T15:45:26Z,335815.873,NULL,Niveau,kiwango,d,NA,NA,NA,NA,sdf,NA,0,NA,NA,NA,NA,NA,NA,NA,NA,NA,NA,NA,NA,NA,NA,NA,NA,NA,NA,NA
57550,shallow,flow.Sequence,3_0_0_0_7_1,NA,NA,skipped,NA,335799.8,NA,NA,335799.041,335799.9,2023-01-20T15:45:26Z,335815.873,NULL,Niveau,kiwango,d,NA,NA,NA,NA,sdf,NA,0,NA,NA,NA,NA,NA,NA,NA,NA,NA,NA,NA,NA,NA,NA,NA,NA,NA,NA,NA
57550,task,flow.Sequence,3_0_0_0_7,NA,NA,completion,10896.173,324887,324886.18,324902.868,335799.041,335800,2023-01-20T15:45:26Z,335815.873,NULL,Niveau,kiwango,d,NA,NA,NA,NA,sdf,NA,0,NA,NA,NA,NA,NA,NA,NA,NA,NA,NA,NA,NA,NA,NA,NA,NA,NA,NA,NA
57550,block,flow.Loop,3_0_0_0,NA,NA,completion,103638.815,232132.8,232117.273,232160.226,335799.041,335800.1,2023-01-20T15:45:26Z,335815.873,NULL,NA,NA,NA,NA,NA,NA,NA,sdf,NA,0,NA,NA,NA,NA,NA,NA,NA,NA,NA,NA,NA,NA,NA,NA,NA,NA,NA,NA,NA
57550,weiter,canvas.Screen,3_0_0_1,sdf,keypress(Space),response,1283.327000003,335800.2,335799.041,335815.873,337099.2,337099.8,2023-01-20T15:45:28Z,337148.588,NULL,NA,NA,NA,NA,NA,NA,NA,sdf,NA,0,NA,NA,NA,NA,NA,NA,NA,NA,NA,NA,NA,NA,NA,NA,NA,NA,NA,NA,NA
57550,check continue,flow.Sequence,3_0_0,NA,NA,completion,104938.974,232132.7,232117.273,232160.226,337099.2,337100.1,2023-01-20T15:45:28Z,337148.588,NULL,NA,NA,NA,NA,NA,NA,NA,sdf,NA,0,NA,NA,NA,NA,NA,NA,NA,NA,NA,NA,NA,NA,NA,NA,NA,NA,NA,NA,NA
57550,Deep Question,html.Page,3_0_1_0_0_0_0,NA,NA,form submission,7953.0120000015,337134.2,337131.94,337148.588,345101.6,345101.9,2023-01-20T15:45:36Z,345112.68,NULL,Lawine,banguko,d,NA,NA,NA,bahoma,NA,NA,1,NA,NA,NA,NA,NA,NA,NA,NA,NA,NA,NA,NA,NA,NA,NA,NA,NA,NA,NA
57550,"""Richtig""-Screen",canvas.Screen,3_0_1_0_0_0_1,NA,NA,skipped,NA,345104.2,NA,NA,345101.6,345104.4,2023-01-20T15:45:36Z,345112.68,NULL,Lawine,banguko,d,NA,NA,NA,NA,sdfdsf,NA,1,NA,NA,NA,NA,NA,NA,NA,NA,NA,NA,NA,NA,NA,NA,NA,NA,NA,NA,NA
57550,"""Falsch""-Screen",canvas.Screen,3_0_1_0_0_0_2,NA,NA,timeout,4998.342,345105.1,345095.97,345112.68,350094.297,350094.8,2023-01-20T15:45:41Z,350111.022,NULL,Lawine,banguko,d,NA,NA,NA,NA,sdfdsf,0,1,NA,NA,NA,NA,NA,NA,NA,NA,NA,NA,NA,NA,NA,NA,NA,NA,NA,NA,NA
57550,deep,flow.Sequence,3_0_1_0_0_0,NA,NA,completion,12945.709,337134.2,337131.94,337148.588,350094.297,350095,2023-01-20T15:45:41Z,350111.022,NULL,Lawine,banguko,d,NA,NA,NA,NA,sdfdsf,NA,1,NA,NA,NA,NA,NA,NA,NA,NA,NA,NA,NA,NA,NA,NA,NA,NA,NA,NA,NA
57550,shallow,flow.Sequence,3_0_1_0_0_1,NA,NA,skipped,NA,350095.1,NA,NA,350094.297,350095.2,2023-01-20T15:45:41Z,350111.022,NULL,Lawine,banguko,d,NA,NA,NA,NA,sdfdsf,NA,1,NA,NA,NA,NA,NA,NA,NA,NA,NA,NA,NA,NA,NA,NA,NA,NA,NA,NA,NA
57550,task,flow.Sequence,3_0_1_0_0,NA,NA,completion,12945.709,337134.2,337131.94,337148.588,350094.297,350095.2,2023-01-20T15:45:41Z,350111.022,NULL,Lawine,banguko,d,NA,NA,NA,NA,sdfdsf,NA,1,NA,NA,NA,NA,NA,NA,NA,NA,NA,NA,NA,NA,NA,NA,NA,NA,NA,NA,NA
57550,Deep Question,html.Page,3_0_1_0_1_0_0,NA,NA,form submission,11536.278000001,350095.3,350094.297,350111.022,361647.3,361647.6,2023-01-20T15:45:52Z,361657.025,NULL,System,maongozi,d,NA,NA,NA,magaho,NA,NA,1,NA,NA,NA,NA,NA,NA,NA,NA,NA,NA,NA,NA,NA,NA,NA,NA,NA,NA,NA
57550,"""Richtig""-Screen",canvas.Screen,3_0_1_0_1_0_1,NA,NA,skipped,NA,361650,NA,NA,361647.3,361650.2,2023-01-20T15:45:52Z,361657.025,NULL,System,maongozi,d,NA,NA,NA,NA,sdfdsf,NA,1,NA,NA,NA,NA,NA,NA,NA,NA,NA,NA,NA,NA,NA,NA,NA,NA,NA,NA,NA
57550,"""Falsch""-Screen",canvas.Screen,3_0_1_0_1_0_2,NA,NA,timeout,4998.43,361650.8,361640.382,361657.025,366638.59,366639,2023-01-20T15:45:57Z,366655.455,NULL,System,maongozi,d,NA,NA,NA,NA,sdfdsf,0,1,NA,NA,NA,NA,NA,NA,NA,NA,NA,NA,NA,NA,NA,NA,NA,NA,NA,NA,NA
57550,deep,flow.Sequence,3_0_1_0_1_0,NA,NA,completion,16527.568,350095.3,350094.297,350111.022,366638.59,366639.3,2023-01-20T15:45:57Z,366655.455,NULL,System,maongozi,d,NA,NA,NA,NA,sdfdsf,NA,1,NA,NA,NA,NA,NA,NA,NA,NA,NA,NA,NA,NA,NA,NA,NA,NA,NA,NA,NA
57550,shallow,flow.Sequence,3_0_1_0_1_1,NA,NA,skipped,NA,366639.3,NA,NA,366638.59,366639.5,2023-01-20T15:45:57Z,366655.455,NULL,System,maongozi,d,NA,NA,NA,NA,sdfdsf,NA,1,NA,NA,NA,NA,NA,NA,NA,NA,NA,NA,NA,NA,NA,NA,NA,NA,NA,NA,NA
57550,task,flow.Sequence,3_0_1_0_1,NA,NA,completion,16527.568,350095.3,350094.297,350111.022,366638.59,366639.5,2023-01-20T15:45:57Z,366655.455,NULL,System,maongozi,d,NA,NA,NA,NA,sdfdsf,NA,1,NA,NA,NA,NA,NA,NA,NA,NA,NA,NA,NA,NA,NA,NA,NA,NA,NA,NA,NA
57550,Deep Question,html.Page,3_0_1_0_2_0_0,NA,NA,form submission,9328.545,366639.6,366638.59,366655.455,375984,375984.2,2023-01-20T15:46:06Z,375985.432,NULL,Niveau,kiwango,d,NA,NA,NA,mahil,NA,NA,1,NA,NA,NA,NA,NA,NA,NA,NA,NA,NA,NA,NA,NA,NA,NA,NA,NA,NA,NA
57550,"""Richtig""-Screen",canvas.Screen,3_0_1_0_2_0_1,NA,NA,skipped,NA,375987,NA,NA,375984,375987.1,2023-01-20T15:46:06Z,375985.432,NULL,Niveau,kiwango,d,NA,NA,NA,NA,sdfdsf,NA,1,NA,NA,NA,NA,NA,NA,NA,NA,NA,NA,NA,NA,NA,NA,NA,NA,NA,NA,NA
57550,"""Falsch""-Screen",canvas.Screen,3_0_1_0_2_0_2,NA,NA,timeout,4998.482,375987.8,375968.793,375985.432,380967.221,380967.8,2023-01-20T15:46:11Z,380983.914,NULL,Niveau,kiwango,d,NA,NA,NA,NA,sdfdsf,0,1,NA,NA,NA,NA,NA,NA,NA,NA,NA,NA,NA,NA,NA,NA,NA,NA,NA,NA,NA
57550,deep,flow.Sequence,3_0_1_0_2_0,NA,NA,completion,14311.766,366639.6,366638.59,366655.455,380967.221,380968,2023-01-20T15:46:11Z,380983.914,NULL,Niveau,kiwango,d,NA,NA,NA,NA,sdfdsf,NA,1,NA,NA,NA,NA,NA,NA,NA,NA,NA,NA,NA,NA,NA,NA,NA,NA,NA,NA,NA
57550,shallow,flow.Sequence,3_0_1_0_2_1,NA,NA,skipped,NA,380968.1,NA,NA,380967.221,380968.2,2023-01-20T15:46:11Z,380983.914,NULL,Niveau,kiwango,d,NA,NA,NA,NA,sdfdsf,NA,1,NA,NA,NA,NA,NA,NA,NA,NA,NA,NA,NA,NA,NA,NA,NA,NA,NA,NA,NA
57550,task,flow.Sequence,3_0_1_0_2,NA,NA,completion,14311.766,366639.5,366638.59,366655.455,380967.221,380968.2,2023-01-20T15:46:11Z,380983.914,NULL,Niveau,kiwango,d,NA,NA,NA,NA,sdfdsf,NA,1,NA,NA,NA,NA,NA,NA,NA,NA,NA,NA,NA,NA,NA,NA,NA,NA,NA,NA,NA
57550,deep,flow.Sequence,3_0_1_0_3_0,NA,NA,skipped,NA,380968.4,NA,NA,380967.221,380968.4,2023-01-20T15:46:11Z,380983.914,NULL,Übersicht,kilindo,s,mgusano,chipukizi,kulinganisha,NA,sdfdsf,NA,1,NA,NA,NA,NA,NA,NA,NA,NA,NA,NA,NA,NA,NA,NA,NA,NA,NA,NA,NA
57550,Shallow Question,html.Page,3_0_1_0_3_1_0,NA,NA,form submission,5723.1860000015,380968.4,380967.221,380983.914,386707.1,386707.3,2023-01-20T15:46:17Z,386715.108,NULL,Übersicht,kilindo,s,mgusano,chipukizi,kulinganisha,mgusano,NA,NA,1,NA,NA,NA,NA,NA,NA,NA,NA,NA,NA,NA,NA,NA,NA,NA,NA,NA,NA,NA
57550,"""Richtig""-Screen",canvas.Screen,3_0_1_0_3_1_1,NA,NA,skipped,NA,386709.3,NA,NA,386707.1,386709.5,2023-01-20T15:46:17Z,386715.108,NULL,Übersicht,kilindo,s,mgusano,chipukizi,kulinganisha,NA,sdfdsf,NA,1,NA,NA,NA,NA,NA,NA,NA,NA,NA,NA,NA,NA,NA,NA,NA,NA,NA,NA,NA
57550,"""Falsch""-Screen",canvas.Screen,3_0_1_0_3_1_2,NA,NA,timeout,4998.575,386710.1,386698.525,386715.108,391696.922,391697.4,2023-01-20T15:46:22Z,391713.683,NULL,Übersicht,kilindo,s,mgusano,chipukizi,kulinganisha,NA,sdfdsf,0,1,NA,NA,NA,NA,NA,NA,NA,NA,NA,NA,NA,NA,NA,NA,NA,NA,NA,NA,NA
57550,shallow,flow.Sequence,3_0_1_0_3_1,NA,NA,completion,10713.008,380968.4,380967.221,380983.914,391696.922,391697.7,2023-01-20T15:46:22Z,391713.683,NULL,Übersicht,kilindo,s,mgusano,chipukizi,kulinganisha,NA,sdfdsf,NA,1,NA,NA,NA,NA,NA,NA,NA,NA,NA,NA,NA,NA,NA,NA,NA,NA,NA,NA,NA
57550,task,flow.Sequence,3_0_1_0_3,NA,NA,completion,10713.008,380968.4,380967.221,380983.914,391696.922,391697.8,2023-01-20T15:46:22Z,391713.683,NULL,Übersicht,kilindo,s,mgusano,chipukizi,kulinganisha,NA,sdfdsf,NA,1,NA,NA,NA,NA,NA,NA,NA,NA,NA,NA,NA,NA,NA,NA,NA,NA,NA,NA,NA
57550,deep,flow.Sequence,3_0_1_0_4_0,NA,NA,skipped,NA,391697.9,NA,NA,391696.922,391698,2023-01-20T15:46:22Z,391713.683,NULL,Entwicklung,maendeleo,s,uangavu,mshindwa,badiliko,NA,sdfdsf,NA,1,NA,NA,NA,NA,NA,NA,NA,NA,NA,NA,NA,NA,NA,NA,NA,NA,NA,NA,NA
57550,Shallow Question,html.Page,3_0_1_0_4_1_0,NA,NA,form submission,8809.517000003,391698,391696.922,391713.683,400523.2,400523.6,2023-01-20T15:46:31Z,400527.157,NULL,Entwicklung,maendeleo,s,uangavu,mshindwa,badiliko,maendeleo,NA,NA,1,NA,NA,NA,NA,NA,NA,NA,NA,NA,NA,NA,NA,NA,NA,NA,NA,NA,NA,NA
57550,"""Richtig""-Screen",canvas.Screen,3_0_1_0_4_1_1,NA,NA,timeout,4998.315,400525.6,400510.655,400527.157,405508.834,405509.4,2023-01-20T15:46:36Z,405525.472,NULL,Entwicklung,maendeleo,s,uangavu,mshindwa,badiliko,NA,sdfdsf,1,1,NA,NA,NA,NA,NA,NA,NA,NA,NA,NA,NA,NA,NA,NA,NA,NA,NA,NA,NA
57550,"""Falsch""-Screen",canvas.Screen,3_0_1_0_4_1_2,NA,NA,skipped,NA,405511.3,NA,NA,405508.834,405511.4,2023-01-20T15:46:36Z,405525.472,NULL,Entwicklung,maendeleo,s,uangavu,mshindwa,badiliko,NA,sdfdsf,NA,1,NA,NA,NA,NA,NA,NA,NA,NA,NA,NA,NA,NA,NA,NA,NA,NA,NA,NA,NA
57550,shallow,flow.Sequence,3_0_1_0_4_1,NA,NA,completion,13795.151,391698,391696.922,391713.683,405508.834,405511.6,2023-01-20T15:46:36Z,405525.472,NULL,Entwicklung,maendeleo,s,uangavu,mshindwa,badiliko,NA,sdfdsf,NA,1,NA,NA,NA,NA,NA,NA,NA,NA,NA,NA,NA,NA,NA,NA,NA,NA,NA,NA,NA
57550,task,flow.Sequence,3_0_1_0_4,NA,NA,completion,13795.151,391697.9,391696.922,391713.683,405508.834,405511.7,2023-01-20T15:46:36Z,405525.472,NULL,Entwicklung,maendeleo,s,uangavu,mshindwa,badiliko,NA,sdfdsf,NA,1,NA,NA,NA,NA,NA,NA,NA,NA,NA,NA,NA,NA,NA,NA,NA,NA,NA,NA,NA
57550,deep,flow.Sequence,3_0_1_0_5_0,NA,NA,skipped,NA,405511.8,NA,NA,405508.834,405511.8,2023-01-20T15:46:36Z,405525.472,NULL,Vorwurf,mashtaka,s,msukumo,mtangulizi,uenyekiti,NA,sdfdsf,NA,1,NA,NA,NA,NA,NA,NA,NA,NA,NA,NA,NA,NA,NA,NA,NA,NA,NA,NA,NA
57550,Shallow Question,html.Page,3_0_1_0_5_1_0,NA,NA,form submission,9160.9280000022,405511.9,405508.834,405525.472,414686.4,414686.7,2023-01-20T15:46:45Z,414689.043,NULL,Vorwurf,mashtaka,s,msukumo,mtangulizi,uenyekiti,msukumo,NA,NA,1,NA,NA,NA,NA,NA,NA,NA,NA,NA,NA,NA,NA,NA,NA,NA,NA,NA,NA,NA
57550,"""Richtig""-Screen",canvas.Screen,3_0_1_0_5_1_1,NA,NA,skipped,NA,414688.8,NA,NA,414686.4,414688.9,2023-01-20T15:46:45Z,414689.043,NULL,Vorwurf,mashtaka,s,msukumo,mtangulizi,uenyekiti,NA,sdfdsf,NA,1,NA,NA,NA,NA,NA,NA,NA,NA,NA,NA,NA,NA,NA,NA,NA,NA,NA,NA,NA
57550,"""Falsch""-Screen",canvas.Screen,3_0_1_0_5_1_2,NA,NA,timeout,4998.415,414689.8,414672.523,414689.043,419670.696,419671.2,2023-01-20T15:46:50Z,419687.458,NULL,Vorwurf,mashtaka,s,msukumo,mtangulizi,uenyekiti,NA,sdfdsf,0,1,NA,NA,NA,NA,NA,NA,NA,NA,NA,NA,NA,NA,NA,NA,NA,NA,NA,NA,NA
57550,shallow,flow.Sequence,3_0_1_0_5_1,NA,NA,completion,14145.224,405511.8,405508.834,405525.472,419670.696,419671.4,2023-01-20T15:46:50Z,419687.458,NULL,Vorwurf,mashtaka,s,msukumo,mtangulizi,uenyekiti,NA,sdfdsf,NA,1,NA,NA,NA,NA,NA,NA,NA,NA,NA,NA,NA,NA,NA,NA,NA,NA,NA,NA,NA
57550,task,flow.Sequence,3_0_1_0_5,NA,NA,completion,14145.224,405511.8,405508.834,405525.472,419670.696,419671.6,2023-01-20T15:46:50Z,419687.458,NULL,Vorwurf,mashtaka,s,msukumo,mtangulizi,uenyekiti,NA,sdfdsf,NA,1,NA,NA,NA,NA,NA,NA,NA,NA,NA,NA,NA,NA,NA,NA,NA,NA,NA,NA,NA
57550,deep,flow.Sequence,3_0_1_0_6_0,NA,NA,skipped,NA,419671.7,NA,NA,419670.696,419671.8,2023-01-20T15:46:50Z,419687.458,NULL,Körper,kiwiliwili,s,mapambano,mpatanishi,kiolezo,NA,sdfdsf,NA,1,NA,NA,NA,NA,NA,NA,NA,NA,NA,NA,NA,NA,NA,NA,NA,NA,NA,NA,NA
57550,Shallow Question,html.Page,3_0_1_0_6_1_0,NA,NA,form submission,5808.542,419672,419670.696,419687.458,425496,425496.3,2023-01-20T15:46:56Z,425502.025,NULL,Körper,kiwiliwili,s,mapambano,mpatanishi,kiolezo,kiwiliwili,NA,NA,1,NA,NA,NA,NA,NA,NA,NA,NA,NA,NA,NA,NA,NA,NA,NA,NA,NA,NA,NA
57550,"""Richtig""-Screen",canvas.Screen,3_0_1_0_6_1_1,NA,NA,timeout,4998.549,425498.4,425485.519,425502.025,430483.858,430484.3,2023-01-20T15:47:01Z,430500.574,NULL,Körper,kiwiliwili,s,mapambano,mpatanishi,kiolezo,NA,sdfdsf,1,1,NA,NA,NA,NA,NA,NA,NA,NA,NA,NA,NA,NA,NA,NA,NA,NA,NA,NA,NA
57550,"""Falsch""-Screen",canvas.Screen,3_0_1_0_6_1_2,NA,NA,skipped,NA,430486,NA,NA,430483.858,430486.2,2023-01-20T15:47:01Z,430500.574,NULL,Körper,kiwiliwili,s,mapambano,mpatanishi,kiolezo,NA,sdfdsf,NA,1,NA,NA,NA,NA,NA,NA,NA,NA,NA,NA,NA,NA,NA,NA,NA,NA,NA,NA,NA
57550,shallow,flow.Sequence,3_0_1_0_6_1,NA,NA,completion,10796.4,419671.9,419670.696,419687.458,430483.858,430486.3,2023-01-20T15:47:01Z,430500.574,NULL,Körper,kiwiliwili,s,mapambano,mpatanishi,kiolezo,NA,sdfdsf,NA,1,NA,NA,NA,NA,NA,NA,NA,NA,NA,NA,NA,NA,NA,NA,NA,NA,NA,NA,NA
57550,task,flow.Sequence,3_0_1_0_6,NA,NA,completion,10796.4,419671.6,419670.696,419687.458,430483.858,430486.4,2023-01-20T15:47:01Z,430500.574,NULL,Körper,kiwiliwili,s,mapambano,mpatanishi,kiolezo,NA,sdfdsf,NA,1,NA,NA,NA,NA,NA,NA,NA,NA,NA,NA,NA,NA,NA,NA,NA,NA,NA,NA,NA
57550,Deep Question,html.Page,3_0_1_0_7_0_0,NA,NA,form submission,5128.3260000022,430486.5,430483.858,430500.574,435628.9,435629.1,2023-01-20T15:47:06Z,435631.949,NULL,Papier,karatasi,d,NA,NA,NA,a,NA,NA,1,NA,NA,NA,NA,NA,NA,NA,NA,NA,NA,NA,NA,NA,NA,NA,NA,NA,NA,NA
57550,"""Richtig""-Screen",canvas.Screen,3_0_1_0_7_0_1,NA,NA,skipped,NA,435631.3,NA,NA,435628.9,435631.6,2023-01-20T15:47:06Z,435631.949,NULL,Papier,karatasi,d,NA,NA,NA,NA,sdfdsf,NA,1,NA,NA,NA,NA,NA,NA,NA,NA,NA,NA,NA,NA,NA,NA,NA,NA,NA,NA,NA
57550,"""Falsch""-Screen",canvas.Screen,3_0_1_0_7_0_2,NA,NA,timeout,4998.547,435632.9,435615.302,435631.949,440613.754,440614.3,2023-01-20T15:47:11Z,440630.496,NULL,Papier,karatasi,d,NA,NA,NA,NA,sdfdsf,0,1,NA,NA,NA,NA,NA,NA,NA,NA,NA,NA,NA,NA,NA,NA,NA,NA,NA,NA,NA
57550,deep,flow.Sequence,3_0_1_0_7_0,NA,NA,completion,10113.18,430486.5,430483.858,430500.574,440613.754,440614.5,2023-01-20T15:47:11Z,440630.496,NULL,Papier,karatasi,d,NA,NA,NA,NA,sdfdsf,NA,1,NA,NA,NA,NA,NA,NA,NA,NA,NA,NA,NA,NA,NA,NA,NA,NA,NA,NA,NA
57550,shallow,flow.Sequence,3_0_1_0_7_1,NA,NA,skipped,NA,440614.6,NA,NA,440613.754,440614.7,2023-01-20T15:47:11Z,440630.496,NULL,Papier,karatasi,d,NA,NA,NA,NA,sdfdsf,NA,1,NA,NA,NA,NA,NA,NA,NA,NA,NA,NA,NA,NA,NA,NA,NA,NA,NA,NA,NA
57550,task,flow.Sequence,3_0_1_0_7,NA,NA,completion,10113.18,430486.5,430483.858,430500.574,440613.754,440614.8,2023-01-20T15:47:11Z,440630.496,NULL,Papier,karatasi,d,NA,NA,NA,NA,sdfdsf,NA,1,NA,NA,NA,NA,NA,NA,NA,NA,NA,NA,NA,NA,NA,NA,NA,NA,NA,NA,NA
57550,block,flow.Loop,3_0_1_0,NA,NA,completion,103465.166,337134.1,337131.94,337148.588,440613.754,440614.8,2023-01-20T15:47:11Z,440630.496,NULL,NA,NA,NA,NA,NA,NA,NA,sdfdsf,NA,1,NA,NA,NA,NA,NA,NA,NA,NA,NA,NA,NA,NA,NA,NA,NA,NA,NA,NA,NA
57550,weiter,canvas.Screen,3_0_1_1,sdf,keypress(Space),response,1140.504,440614.9,440613.754,440630.496,441771,441771.6,2023-01-20T15:47:12Z,441813.219,NULL,NA,NA,NA,NA,NA,NA,NA,sdfdsf,NA,1,NA,NA,NA,NA,NA,NA,NA,NA,NA,NA,NA,NA,NA,NA,NA,NA,NA,NA,NA
57550,check continue,flow.Sequence,3_0_1,NA,NA,completion,104622.412,337134.1,337131.94,337148.588,441771,441771.7,2023-01-20T15:47:12Z,441813.219,NULL,NA,NA,NA,NA,NA,NA,NA,sdfdsf,NA,1,NA,NA,NA,NA,NA,NA,NA,NA,NA,NA,NA,NA,NA,NA,NA,NA,NA,NA,NA
57550,Deep Question,html.Page,3_0_2_0_0_0_0,NA,NA,form submission,5120.5810000008,441812.5,441763.356,441813.219,446933.8,446934,2023-01-20T15:47:17Z,446945.083,NULL,Niveau,kiwango,d,NA,NA,NA,a,NA,NA,2,NA,NA,NA,NA,NA,NA,NA,NA,NA,NA,NA,NA,NA,NA,NA,NA,NA,NA,NA
57550,"""Richtig""-Screen",canvas.Screen,3_0_2_0_0_0_1,NA,NA,skipped,NA,446936.2,NA,NA,446933.8,446936.5,2023-01-20T15:47:17Z,446945.083,NULL,Niveau,kiwango,d,NA,NA,NA,NA,sdf,NA,2,NA,NA,NA,NA,NA,NA,NA,NA,NA,NA,NA,NA,NA,NA,NA,NA,NA,NA,NA
57550,"""Falsch""-Screen",canvas.Screen,3_0_2_0_0_0_2,NA,NA,timeout,4998.249,446937.3,446928.303,446945.083,451926.615,451927.1,2023-01-20T15:47:22Z,451943.332,NULL,Niveau,kiwango,d,NA,NA,NA,NA,sdf,0,2,NA,NA,NA,NA,NA,NA,NA,NA,NA,NA,NA,NA,NA,NA,NA,NA,NA,NA,NA
57550,deep,flow.Sequence,3_0_2_0_0_0,NA,NA,completion,10113.396,441812.5,441763.356,441813.219,451926.615,451927.2,2023-01-20T15:47:22Z,451943.332,NULL,Niveau,kiwango,d,NA,NA,NA,NA,sdf,NA,2,NA,NA,NA,NA,NA,NA,NA,NA,NA,NA,NA,NA,NA,NA,NA,NA,NA,NA,NA
57550,shallow,flow.Sequence,3_0_2_0_0_1,NA,NA,skipped,NA,451927.3,NA,NA,451926.615,451927.4,2023-01-20T15:47:22Z,451943.332,NULL,Niveau,kiwango,d,NA,NA,NA,NA,sdf,NA,2,NA,NA,NA,NA,NA,NA,NA,NA,NA,NA,NA,NA,NA,NA,NA,NA,NA,NA,NA
57550,task,flow.Sequence,3_0_2_0_0,NA,NA,completion,10113.396,441812.4,441763.356,441813.219,451926.615,451927.4,2023-01-20T15:47:22Z,451943.332,NULL,Niveau,kiwango,d,NA,NA,NA,NA,sdf,NA,2,NA,NA,NA,NA,NA,NA,NA,NA,NA,NA,NA,NA,NA,NA,NA,NA,NA,NA,NA
57550,Deep Question,html.Page,3_0_2_0_1_0_0,NA,NA,form submission,13487.868000003,451927.5,451926.615,451943.332,465431.2,465431.5,2023-01-20T15:47:36Z,465438.569,NULL,Lawine,banguko,d,NA,NA,NA,a,NA,NA,2,NA,NA,NA,NA,NA,NA,NA,NA,NA,NA,NA,NA,NA,NA,NA,NA,NA,NA,NA
57550,"""Richtig""-Screen",canvas.Screen,3_0_2_0_1_0_1,NA,NA,skipped,NA,465433.7,NA,NA,465431.2,465433.9,2023-01-20T15:47:36Z,465438.569,NULL,Lawine,banguko,d,NA,NA,NA,NA,sdf,NA,2,NA,NA,NA,NA,NA,NA,NA,NA,NA,NA,NA,NA,NA,NA,NA,NA,NA,NA,NA
57550,"""Falsch""-Screen",canvas.Screen,3_0_2_0_1_0_2,NA,NA,timeout,4998.328,465434.5,465422.036,465438.569,470420.252,470420.7,2023-01-20T15:47:41Z,470436.897,NULL,Lawine,banguko,d,NA,NA,NA,NA,sdf,0,2,NA,NA,NA,NA,NA,NA,NA,NA,NA,NA,NA,NA,NA,NA,NA,NA,NA,NA,NA
57550,deep,flow.Sequence,3_0_2_0_1_0,NA,NA,completion,18476.92,451927.5,451926.615,451943.332,470420.252,470420.9,2023-01-20T15:47:41Z,470436.897,NULL,Lawine,banguko,d,NA,NA,NA,NA,sdf,NA,2,NA,NA,NA,NA,NA,NA,NA,NA,NA,NA,NA,NA,NA,NA,NA,NA,NA,NA,NA
57550,shallow,flow.Sequence,3_0_2_0_1_1,NA,NA,skipped,NA,470421,NA,NA,470420.252,470421.1,2023-01-20T15:47:41Z,470436.897,NULL,Lawine,banguko,d,NA,NA,NA,NA,sdf,NA,2,NA,NA,NA,NA,NA,NA,NA,NA,NA,NA,NA,NA,NA,NA,NA,NA,NA,NA,NA
57550,task,flow.Sequence,3_0_2_0_1,NA,NA,completion,18476.92,451927.5,451926.615,451943.332,470420.252,470421.2,2023-01-20T15:47:41Z,470436.897,NULL,Lawine,banguko,d,NA,NA,NA,NA,sdf,NA,2,NA,NA,NA,NA,NA,NA,NA,NA,NA,NA,NA,NA,NA,NA,NA,NA,NA,NA,NA
57550,Deep Question,html.Page,3_0_2_0_2_0_0,NA,NA,form submission,9375.603,470421.3,470420.252,470436.897,479812.5,479812.8,2023-01-20T15:47:50Z,479817.087,NULL,System,maongozi,d,NA,NA,NA,a,NA,NA,2,NA,NA,NA,NA,NA,NA,NA,NA,NA,NA,NA,NA,NA,NA,NA,NA,NA,NA,NA
57550,"""Richtig""-Screen",canvas.Screen,3_0_2_0_2_0_1,NA,NA,skipped,NA,479815.3,NA,NA,479812.5,479815.5,2023-01-20T15:47:50Z,479817.087,NULL,System,maongozi,d,NA,NA,NA,NA,sdf,NA,2,NA,NA,NA,NA,NA,NA,NA,NA,NA,NA,NA,NA,NA,NA,NA,NA,NA,NA,NA
57550,"""Falsch""-Screen",canvas.Screen,3_0_2_0_2_0_2,NA,NA,timeout,4998.475,479816.3,479800.432,479817.087,484798.724,484799.1,2023-01-20T15:47:55Z,484815.562,NULL,System,maongozi,d,NA,NA,NA,NA,sdf,0,2,NA,NA,NA,NA,NA,NA,NA,NA,NA,NA,NA,NA,NA,NA,NA,NA,NA,NA,NA
57550,deep,flow.Sequence,3_0_2_0_2_0,NA,NA,completion,14361.827,470421.3,470420.252,470436.897,484798.724,484799.3,2023-01-20T15:47:55Z,484815.562,NULL,System,maongozi,d,NA,NA,NA,NA,sdf,NA,2,NA,NA,NA,NA,NA,NA,NA,NA,NA,NA,NA,NA,NA,NA,NA,NA,NA,NA,NA
57550,shallow,flow.Sequence,3_0_2_0_2_1,NA,NA,skipped,NA,484799.4,NA,NA,484798.724,484799.5,2023-01-20T15:47:55Z,484815.562,NULL,System,maongozi,d,NA,NA,NA,NA,sdf,NA,2,NA,NA,NA,NA,NA,NA,NA,NA,NA,NA,NA,NA,NA,NA,NA,NA,NA,NA,NA
57550,task,flow.Sequence,3_0_2_0_2,NA,NA,completion,14361.827,470421.3,470420.252,470436.897,484798.724,484799.6,2023-01-20T15:47:55Z,484815.562,NULL,System,maongozi,d,NA,NA,NA,NA,sdf,NA,2,NA,NA,NA,NA,NA,NA,NA,NA,NA,NA,NA,NA,NA,NA,NA,NA,NA,NA,NA
57550,deep,flow.Sequence,3_0_2_0_3_0,NA,NA,skipped,NA,484799.6,NA,NA,484798.724,484799.7,2023-01-20T15:47:55Z,484815.562,NULL,Vorwurf,mashtaka,s,msukumo,mtangulizi,uenyekiti,NA,sdf,NA,2,NA,NA,NA,NA,NA,NA,NA,NA,NA,NA,NA,NA,NA,NA,NA,NA,NA,NA,NA
57550,Shallow Question,html.Page,3_0_2_0_3_1_0,NA,NA,form submission,5465.7380000008,484799.8,484798.724,484815.562,490281.3,490281.6,2023-01-20T15:48:01Z,490297.04,NULL,Vorwurf,mashtaka,s,msukumo,mtangulizi,uenyekiti,mashtaka,NA,NA,2,NA,NA,NA,NA,NA,NA,NA,NA,NA,NA,NA,NA,NA,NA,NA,NA,NA,NA,NA
57550,"""Richtig""-Screen",canvas.Screen,3_0_2_0_3_1_1,NA,NA,timeout,4998.326,490283.6,490280.311,490297.04,495278.646,495279.3,2023-01-20T15:48:06Z,495295.366,NULL,Vorwurf,mashtaka,s,msukumo,mtangulizi,uenyekiti,NA,sdf,1,2,NA,NA,NA,NA,NA,NA,NA,NA,NA,NA,NA,NA,NA,NA,NA,NA,NA,NA,NA
57550,"""Falsch""-Screen",canvas.Screen,3_0_2_0_3_1_2,NA,NA,skipped,NA,495281.1,NA,NA,495278.646,495281.3,2023-01-20T15:48:06Z,495295.366,NULL,Vorwurf,mashtaka,s,msukumo,mtangulizi,uenyekiti,NA,sdf,NA,2,NA,NA,NA,NA,NA,NA,NA,NA,NA,NA,NA,NA,NA,NA,NA,NA,NA,NA,NA
57550,shallow,flow.Sequence,3_0_2_0_3_1,NA,NA,completion,10463.084,484799.8,484798.724,484815.562,495278.646,495281.4,2023-01-20T15:48:06Z,495295.366,NULL,Vorwurf,mashtaka,s,msukumo,mtangulizi,uenyekiti,NA,sdf,NA,2,NA,NA,NA,NA,NA,NA,NA,NA,NA,NA,NA,NA,NA,NA,NA,NA,NA,NA,NA
57550,task,flow.Sequence,3_0_2_0_3,NA,NA,completion,10463.084,484799.6,484798.724,484815.562,495278.646,495281.5,2023-01-20T15:48:06Z,495295.366,NULL,Vorwurf,mashtaka,s,msukumo,mtangulizi,uenyekiti,NA,sdf,NA,2,NA,NA,NA,NA,NA,NA,NA,NA,NA,NA,NA,NA,NA,NA,NA,NA,NA,NA,NA
57550,deep,flow.Sequence,3_0_2_0_4_0,NA,NA,skipped,NA,495281.6,NA,NA,495278.646,495281.6,2023-01-20T15:48:06Z,495295.366,NULL,Übersicht,kilindo,s,mgusano,chipukizi,kulinganisha,NA,sdf,NA,2,NA,NA,NA,NA,NA,NA,NA,NA,NA,NA,NA,NA,NA,NA,NA,NA,NA,NA,NA
57550,Shallow Question,html.Page,3_0_2_0_4_1_0,NA,NA,form submission,6115.7340000015,495281.8,495278.646,495295.366,501411.1,501411.4,2023-01-20T15:48:12Z,501426.615,NULL,Übersicht,kilindo,s,mgusano,chipukizi,kulinganisha,mgusano,NA,NA,2,NA,NA,NA,NA,NA,NA,NA,NA,NA,NA,NA,NA,NA,NA,NA,NA,NA,NA,NA
57550,"""Richtig""-Screen",canvas.Screen,3_0_2_0_4_1_1,NA,NA,skipped,NA,501413.2,NA,NA,501411.1,501413.4,2023-01-20T15:48:12Z,501426.615,NULL,Übersicht,kilindo,s,mgusano,chipukizi,kulinganisha,NA,sdf,NA,2,NA,NA,NA,NA,NA,NA,NA,NA,NA,NA,NA,NA,NA,NA,NA,NA,NA,NA,NA
57550,"""Falsch""-Screen",canvas.Screen,3_0_2_0_4_1_2,NA,NA,timeout,4998.328,501414,501409.908,501426.615,506408.126,506408.5,2023-01-20T15:48:17Z,506424.943,NULL,Übersicht,kilindo,s,mgusano,chipukizi,kulinganisha,NA,sdf,0,2,NA,NA,NA,NA,NA,NA,NA,NA,NA,NA,NA,NA,NA,NA,NA,NA,NA,NA,NA
57550,shallow,flow.Sequence,3_0_2_0_4_1,NA,NA,completion,11112.76,495281.7,495278.646,495295.366,506408.126,506408.7,2023-01-20T15:48:17Z,506424.943,NULL,Übersicht,kilindo,s,mgusano,chipukizi,kulinganisha,NA,sdf,NA,2,NA,NA,NA,NA,NA,NA,NA,NA,NA,NA,NA,NA,NA,NA,NA,NA,NA,NA,NA
57550,task,flow.Sequence,3_0_2_0_4,NA,NA,completion,11112.76,495281.6,495278.646,495295.366,506408.126,506408.9,2023-01-20T15:48:17Z,506424.943,NULL,Übersicht,kilindo,s,mgusano,chipukizi,kulinganisha,NA,sdf,NA,2,NA,NA,NA,NA,NA,NA,NA,NA,NA,NA,NA,NA,NA,NA,NA,NA,NA,NA,NA
57550,deep,flow.Sequence,3_0_2_0_5_0,NA,NA,skipped,NA,506408.9,NA,NA,506408.126,506409,2023-01-20T15:48:17Z,506424.943,NULL,Entwicklung,maendeleo,s,uangavu,mshindwa,badiliko,NA,sdf,NA,2,NA,NA,NA,NA,NA,NA,NA,NA,NA,NA,NA,NA,NA,NA,NA,NA,NA,NA,NA
57550,Shallow Question,html.Page,3_0_2_0_5_1_0,NA,NA,form submission,6598.1570000015,506409.1,506408.126,506424.943,513023.1,513023.3,2023-01-20T15:48:24Z,513041.44,NULL,Entwicklung,maendeleo,s,uangavu,mshindwa,badiliko,maendeleo,NA,NA,2,NA,NA,NA,NA,NA,NA,NA,NA,NA,NA,NA,NA,NA,NA,NA,NA,NA,NA,NA
57550,"""Richtig""-Screen",canvas.Screen,3_0_2_0_5_1_1,NA,NA,timeout,4996.363,513025.3,513005.923,513041.44,518020.851,518021.6,2023-01-20T15:48:29Z,518037.803,NULL,Entwicklung,maendeleo,s,uangavu,mshindwa,badiliko,NA,sdf,1,2,NA,NA,NA,NA,NA,NA,NA,NA,NA,NA,NA,NA,NA,NA,NA,NA,NA,NA,NA
57550,"""Falsch""-Screen",canvas.Screen,3_0_2_0_5_1_2,NA,NA,skipped,NA,518023.3,NA,NA,518020.851,518023.4,2023-01-20T15:48:29Z,518037.803,NULL,Entwicklung,maendeleo,s,uangavu,mshindwa,badiliko,NA,sdf,NA,2,NA,NA,NA,NA,NA,NA,NA,NA,NA,NA,NA,NA,NA,NA,NA,NA,NA,NA,NA
57550,shallow,flow.Sequence,3_0_2_0_5_1,NA,NA,completion,11595.908,506409.1,506408.126,506424.943,518020.851,518023.7,2023-01-20T15:48:29Z,518037.803,NULL,Entwicklung,maendeleo,s,uangavu,mshindwa,badiliko,NA,sdf,NA,2,NA,NA,NA,NA,NA,NA,NA,NA,NA,NA,NA,NA,NA,NA,NA,NA,NA,NA,NA
57550,task,flow.Sequence,3_0_2_0_5,NA,NA,completion,11595.908,506408.9,506408.126,506424.943,518020.851,518023.7,2023-01-20T15:48:29Z,518037.803,NULL,Entwicklung,maendeleo,s,uangavu,mshindwa,badiliko,NA,sdf,NA,2,NA,NA,NA,NA,NA,NA,NA,NA,NA,NA,NA,NA,NA,NA,NA,NA,NA,NA,NA
57550,Deep Question,html.Page,3_0_2_0_6_0_0,NA,NA,form submission,7241.7970000015,518023.8,518020.851,518037.803,525279.6,525279.9,2023-01-20T15:48:36Z,525285.055,NULL,Papier,karatasi,d,NA,NA,NA,kawilili,NA,NA,2,NA,NA,NA,NA,NA,NA,NA,NA,NA,NA,NA,NA,NA,NA,NA,NA,NA,NA,NA
57550,"""Richtig""-Screen",canvas.Screen,3_0_2_0_6_0_1,NA,NA,skipped,NA,525282.1,NA,NA,525279.6,525282.3,2023-01-20T15:48:36Z,525285.055,NULL,Papier,karatasi,d,NA,NA,NA,NA,sdf,NA,2,NA,NA,NA,NA,NA,NA,NA,NA,NA,NA,NA,NA,NA,NA,NA,NA,NA,NA,NA
57550,"""Falsch""-Screen",canvas.Screen,3_0_2_0_6_0_2,NA,NA,timeout,4998.5059999999,525283,525268.505,525285.055,530266.85,530267.4,2023-01-20T15:48:41Z,530283.561,NULL,Papier,karatasi,d,NA,NA,NA,NA,sdf,0,2,NA,NA,NA,NA,NA,NA,NA,NA,NA,NA,NA,NA,NA,NA,NA,NA,NA,NA,NA
57550,deep,flow.Sequence,3_0_2_0_6_0,NA,NA,completion,12229.047,518023.8,518020.851,518037.803,530266.85,530267.5,2023-01-20T15:48:41Z,530283.561,NULL,Papier,karatasi,d,NA,NA,NA,NA,sdf,NA,2,NA,NA,NA,NA,NA,NA,NA,NA,NA,NA,NA,NA,NA,NA,NA,NA,NA,NA,NA
57550,shallow,flow.Sequence,3_0_2_0_6_1,NA,NA,skipped,NA,530267.6,NA,NA,530266.85,530267.7,2023-01-20T15:48:41Z,530283.561,NULL,Papier,karatasi,d,NA,NA,NA,NA,sdf,NA,2,NA,NA,NA,NA,NA,NA,NA,NA,NA,NA,NA,NA,NA,NA,NA,NA,NA,NA,NA
57550,task,flow.Sequence,3_0_2_0_6,NA,NA,completion,12229.047,518023.8,518020.851,518037.803,530266.85,530267.7,2023-01-20T15:48:41Z,530283.561,NULL,Papier,karatasi,d,NA,NA,NA,NA,sdf,NA,2,NA,NA,NA,NA,NA,NA,NA,NA,NA,NA,NA,NA,NA,NA,NA,NA,NA,NA,NA
57550,deep,flow.Sequence,3_0_2_0_7_0,NA,NA,skipped,NA,530267.8,NA,NA,530266.85,530267.9,2023-01-20T15:48:41Z,530283.561,NULL,Körper,kiwiliwili,s,mapambano,mpatanishi,kiolezo,NA,sdf,NA,2,NA,NA,NA,NA,NA,NA,NA,NA,NA,NA,NA,NA,NA,NA,NA,NA,NA,NA,NA
57550,Shallow Question,html.Page,3_0_2_0_7_1_0,NA,NA,form submission,9234.5390000015,530267.9,530266.85,530283.561,539518.1,539518.3,2023-01-20T15:48:50Z,539530.417,NULL,Körper,kiwiliwili,s,mapambano,mpatanishi,kiolezo,kiwiliwili,NA,NA,2,NA,NA,NA,NA,NA,NA,NA,NA,NA,NA,NA,NA,NA,NA,NA,NA,NA,NA,NA
57550,"""Richtig""-Screen",canvas.Screen,3_0_2_0_7_1_1,NA,NA,timeout,4998.15,539520.3,539513.704,539530.417,544512.035,544512.7,2023-01-20T15:48:55Z,544528.567,NULL,Körper,kiwiliwili,s,mapambano,mpatanishi,kiolezo,NA,sdf,1,2,NA,NA,NA,NA,NA,NA,NA,NA,NA,NA,NA,NA,NA,NA,NA,NA,NA,NA,NA
57550,"""Falsch""-Screen",canvas.Screen,3_0_2_0_7_1_2,NA,NA,skipped,NA,544514.4,NA,NA,544512.035,544514.7,2023-01-20T15:48:55Z,544528.567,NULL,Körper,kiwiliwili,s,mapambano,mpatanishi,kiolezo,NA,sdf,NA,2,NA,NA,NA,NA,NA,NA,NA,NA,NA,NA,NA,NA,NA,NA,NA,NA,NA,NA,NA
57550,shallow,flow.Sequence,3_0_2_0_7_1,NA,NA,completion,14228.474,530267.9,530266.85,530283.561,544512.035,544514.8,2023-01-20T15:48:55Z,544528.567,NULL,Körper,kiwiliwili,s,mapambano,mpatanishi,kiolezo,NA,sdf,NA,2,NA,NA,NA,NA,NA,NA,NA,NA,NA,NA,NA,NA,NA,NA,NA,NA,NA,NA,NA
57550,task,flow.Sequence,3_0_2_0_7,NA,NA,completion,14228.474,530267.8,530266.85,530283.561,544512.035,544514.9,2023-01-20T15:48:55Z,544528.567,NULL,Körper,kiwiliwili,s,mapambano,mpatanishi,kiolezo,NA,sdf,NA,2,NA,NA,NA,NA,NA,NA,NA,NA,NA,NA,NA,NA,NA,NA,NA,NA,NA,NA,NA
57550,block,flow.Loop,3_0_2_0,NA,NA,completion,102698.816,441812.4,441763.356,441813.219,544512.035,544515,2023-01-20T15:48:55Z,544528.567,NULL,NA,NA,NA,NA,NA,NA,NA,sdf,NA,2,NA,NA,NA,NA,NA,NA,NA,NA,NA,NA,NA,NA,NA,NA,NA,NA,NA,NA,NA
57550,weiter,canvas.Screen,3_0_2_1,sdf,keypress(Space),response,988.3330000022,544515.1,544512.035,544528.567,545516.9,545517.5,2023-01-20T15:48:56Z,545544.881,NULL,NA,NA,NA,NA,NA,NA,NA,sdf,NA,2,NA,NA,NA,NA,NA,NA,NA,NA,NA,NA,NA,NA,NA,NA,NA,NA,NA,NA,NA
57550,check continue,flow.Sequence,3_0_2,NA,NA,completion,103703.681,441812.4,441763.356,441813.219,545516.9,545517.6,2023-01-20T15:48:56Z,545544.881,NULL,NA,NA,NA,NA,NA,NA,NA,sdf,NA,2,NA,NA,NA,NA,NA,NA,NA,NA,NA,NA,NA,NA,NA,NA,NA,NA,NA,NA,NA
57550,deep,flow.Sequence,3_0_3_0_0_0,NA,NA,skipped,NA,545551.2,NA,NA,545516.9,545551.2,2023-01-20T15:48:56Z,545544.881,NULL,Körper,kiwiliwili,s,mapambano,mpatanishi,kiolezo,NA,qt,NA,3,NA,NA,NA,NA,NA,NA,NA,NA,NA,NA,NA,NA,NA,NA,NA,NA,NA,NA,NA
57550,Shallow Question,html.Page,3_0_3_0_0_1_0,NA,NA,form submission,5461.8190000029,545551.4,545511.646,545544.881,551006.7,551006.9,2023-01-20T15:49:02Z,551009.679,NULL,Körper,kiwiliwili,s,mapambano,mpatanishi,kiolezo,kiwiliwili,NA,NA,3,NA,NA,NA,NA,NA,NA,NA,NA,NA,NA,NA,NA,NA,NA,NA,NA,NA,NA,NA
57550,"""Richtig""-Screen",canvas.Screen,3_0_3_0_0_1_1,NA,NA,timeout,4998.6,551008.6,550993.161,551009.679,555991.491,555992.1,2023-01-20T15:49:06Z,556008.279,NULL,Körper,kiwiliwili,s,mapambano,mpatanishi,kiolezo,NA,qt,1,3,NA,NA,NA,NA,NA,NA,NA,NA,NA,NA,NA,NA,NA,NA,NA,NA,NA,NA,NA
57550,"""Falsch""-Screen",canvas.Screen,3_0_3_0_0_1_2,NA,NA,skipped,NA,555994.3,NA,NA,555991.491,555994.5,2023-01-20T15:49:06Z,556008.279,NULL,Körper,kiwiliwili,s,mapambano,mpatanishi,kiolezo,NA,qt,NA,3,NA,NA,NA,NA,NA,NA,NA,NA,NA,NA,NA,NA,NA,NA,NA,NA,NA,NA,NA
57550,shallow,flow.Sequence,3_0_3_0_0_1,NA,NA,completion,10446.61,545551.3,545511.646,545544.881,555991.491,555994.6,2023-01-20T15:49:06Z,556008.279,NULL,Körper,kiwiliwili,s,mapambano,mpatanishi,kiolezo,NA,qt,NA,3,NA,NA,NA,NA,NA,NA,NA,NA,NA,NA,NA,NA,NA,NA,NA,NA,NA,NA,NA
57550,task,flow.Sequence,3_0_3_0_0,NA,NA,completion,10446.61,545551.1,545511.646,545544.881,555991.491,555994.7,2023-01-20T15:49:06Z,556008.279,NULL,Körper,kiwiliwili,s,mapambano,mpatanishi,kiolezo,NA,qt,NA,3,NA,NA,NA,NA,NA,NA,NA,NA,NA,NA,NA,NA,NA,NA,NA,NA,NA,NA,NA
57550,deep,flow.Sequence,3_0_3_0_1_0,NA,NA,skipped,NA,555994.8,NA,NA,555991.491,555994.8,2023-01-20T15:49:06Z,556008.279,NULL,Übersicht,kilindo,s,mgusano,chipukizi,kulinganisha,NA,qt,NA,3,NA,NA,NA,NA,NA,NA,NA,NA,NA,NA,NA,NA,NA,NA,NA,NA,NA,NA,NA
57550,Shallow Question,html.Page,3_0_3_0_1_1_0,NA,NA,form submission,5770.0210000008,555994.9,555991.491,556008.279,561778.3,561778.6,2023-01-20T15:49:12Z,561789.717,NULL,Übersicht,kilindo,s,mgusano,chipukizi,kulinganisha,mgusano,NA,NA,3,NA,NA,NA,NA,NA,NA,NA,NA,NA,NA,NA,NA,NA,NA,NA,NA,NA,NA,NA
57550,"""Richtig""-Screen",canvas.Screen,3_0_3_0_1_1_1,NA,NA,skipped,NA,561780.4,NA,NA,561778.3,561780.5,2023-01-20T15:49:12Z,561789.717,NULL,Übersicht,kilindo,s,mgusano,chipukizi,kulinganisha,NA,qt,NA,3,NA,NA,NA,NA,NA,NA,NA,NA,NA,NA,NA,NA,NA,NA,NA,NA,NA,NA,NA
57550,"""Falsch""-Screen",canvas.Screen,3_0_3_0_1_1_2,NA,NA,timeout,4998.17,561781.2,561772.849,561789.717,566771.064,566771.9,2023-01-20T15:49:17Z,566787.887,NULL,Übersicht,kilindo,s,mgusano,chipukizi,kulinganisha,NA,qt,0,3,NA,NA,NA,NA,NA,NA,NA,NA,NA,NA,NA,NA,NA,NA,NA,NA,NA,NA,NA
57550,shallow,flow.Sequence,3_0_3_0_1_1,NA,NA,completion,10762.785,555994.9,555991.491,556008.279,566771.064,566772.2,2023-01-20T15:49:17Z,566787.887,NULL,Übersicht,kilindo,s,mgusano,chipukizi,kulinganisha,NA,qt,NA,3,NA,NA,NA,NA,NA,NA,NA,NA,NA,NA,NA,NA,NA,NA,NA,NA,NA,NA,NA
57550,task,flow.Sequence,3_0_3_0_1,NA,NA,completion,10762.785,555994.7,555991.491,556008.279,566771.064,566772.2,2023-01-20T15:49:17Z,566787.887,NULL,Übersicht,kilindo,s,mgusano,chipukizi,kulinganisha,NA,qt,NA,3,NA,NA,NA,NA,NA,NA,NA,NA,NA,NA,NA,NA,NA,NA,NA,NA,NA,NA,NA
57550,Deep Question,html.Page,3_0_3_0_2_0_0,NA,NA,form submission,8200.0130000022,566772.5,566771.064,566787.887,574987.9,574988.1,2023-01-20T15:49:25Z,575001.606,NULL,Papier,karatasi,d,NA,NA,NA,maguko,NA,NA,3,NA,NA,NA,NA,NA,NA,NA,NA,NA,NA,NA,NA,NA,NA,NA,NA,NA,NA,NA
57550,"""Richtig""-Screen",canvas.Screen,3_0_3_0_2_0_1,NA,NA,skipped,NA,574990.5,NA,NA,574987.9,574990.7,2023-01-20T15:49:25Z,575001.606,NULL,Papier,karatasi,d,NA,NA,NA,NA,qt,NA,3,NA,NA,NA,NA,NA,NA,NA,NA,NA,NA,NA,NA,NA,NA,NA,NA,NA,NA,NA
57550,"""Falsch""-Screen",canvas.Screen,3_0_3_0_2_0_2,NA,NA,timeout,4998.5179999999,574991.3,574985.064,575001.606,579983.385,579983.9,2023-01-20T15:49:30Z,580000.124,NULL,Papier,karatasi,d,NA,NA,NA,NA,qt,0,3,NA,NA,NA,NA,NA,NA,NA,NA,NA,NA,NA,NA,NA,NA,NA,NA,NA,NA,NA
57550,deep,flow.Sequence,3_0_3_0_2_0,NA,NA,completion,13195.498,566772.5,566771.064,566787.887,579983.385,579984.2,2023-01-20T15:49:30Z,580000.124,NULL,Papier,karatasi,d,NA,NA,NA,NA,qt,NA,3,NA,NA,NA,NA,NA,NA,NA,NA,NA,NA,NA,NA,NA,NA,NA,NA,NA,NA,NA
57550,shallow,flow.Sequence,3_0_3_0_2_1,NA,NA,skipped,NA,579984.3,NA,NA,579983.385,579984.3,2023-01-20T15:49:30Z,580000.124,NULL,Papier,karatasi,d,NA,NA,NA,NA,qt,NA,3,NA,NA,NA,NA,NA,NA,NA,NA,NA,NA,NA,NA,NA,NA,NA,NA,NA,NA,NA
57550,task,flow.Sequence,3_0_3_0_2,NA,NA,completion,13195.498,566772.3,566771.064,566787.887,579983.385,579984.4,2023-01-20T15:49:30Z,580000.124,NULL,Papier,karatasi,d,NA,NA,NA,NA,qt,NA,3,NA,NA,NA,NA,NA,NA,NA,NA,NA,NA,NA,NA,NA,NA,NA,NA,NA,NA,NA
57550,deep,flow.Sequence,3_0_3_0_3_0,NA,NA,skipped,NA,579984.5,NA,NA,579983.385,579984.6,2023-01-20T15:49:30Z,580000.124,NULL,Vorwurf,mashtaka,s,msukumo,mtangulizi,uenyekiti,NA,qt,NA,3,NA,NA,NA,NA,NA,NA,NA,NA,NA,NA,NA,NA,NA,NA,NA,NA,NA,NA,NA
57550,Shallow Question,html.Page,3_0_3_0_3_1_0,NA,NA,form submission,3355.376,579984.6,579983.385,580000.124,583355.5,583355.8,2023-01-20T15:49:34Z,583365.636,NULL,Vorwurf,mashtaka,s,msukumo,mtangulizi,uenyekiti,mashtaka,NA,NA,3,NA,NA,NA,NA,NA,NA,NA,NA,NA,NA,NA,NA,NA,NA,NA,NA,NA,NA,NA
57550,"""Richtig""-Screen",canvas.Screen,3_0_3_0_3_1_1,NA,NA,timeout,4998.326,583357.8,583348.923,583365.636,588347.238,588347.8,2023-01-20T15:49:39Z,588363.962,NULL,Vorwurf,mashtaka,s,msukumo,mtangulizi,uenyekiti,NA,qt,1,3,NA,NA,NA,NA,NA,NA,NA,NA,NA,NA,NA,NA,NA,NA,NA,NA,NA,NA,NA
57550,"""Falsch""-Screen",canvas.Screen,3_0_3_0_3_1_2,NA,NA,skipped,NA,588349.6,NA,NA,588347.238,588349.8,2023-01-20T15:49:39Z,588363.962,NULL,Vorwurf,mashtaka,s,msukumo,mtangulizi,uenyekiti,NA,qt,NA,3,NA,NA,NA,NA,NA,NA,NA,NA,NA,NA,NA,NA,NA,NA,NA,NA,NA,NA,NA
57550,shallow,flow.Sequence,3_0_3_0_3_1,NA,NA,completion,8347.1140000001,579984.6,579983.385,580000.124,588347.238,588350,2023-01-20T15:49:39Z,588363.962,NULL,Vorwurf,mashtaka,s,msukumo,mtangulizi,uenyekiti,NA,qt,NA,3,NA,NA,NA,NA,NA,NA,NA,NA,NA,NA,NA,NA,NA,NA,NA,NA,NA,NA,NA
57550,task,flow.Sequence,3_0_3_0_3,NA,NA,completion,8347.1140000001,579984.4,579983.385,580000.124,588347.238,588350,2023-01-20T15:49:39Z,588363.962,NULL,Vorwurf,mashtaka,s,msukumo,mtangulizi,uenyekiti,NA,qt,NA,3,NA,NA,NA,NA,NA,NA,NA,NA,NA,NA,NA,NA,NA,NA,NA,NA,NA,NA,NA
57550,Deep Question,html.Page,3_0_3_0_4_0_0,NA,NA,form submission,11027.838000001,588350.2,588347.238,588363.962,599391.8,599392,2023-01-20T15:49:50Z,599393.371,NULL,Niveau,kiwango,d,NA,NA,NA,magehoni,NA,NA,3,NA,NA,NA,NA,NA,NA,NA,NA,NA,NA,NA,NA,NA,NA,NA,NA,NA,NA,NA
57550,"""Richtig""-Screen",canvas.Screen,3_0_3_0_4_0_1,NA,NA,skipped,NA,599394.8,NA,NA,599391.8,599394.9,2023-01-20T15:49:50Z,599393.371,NULL,Niveau,kiwango,d,NA,NA,NA,NA,qt,NA,3,NA,NA,NA,NA,NA,NA,NA,NA,NA,NA,NA,NA,NA,NA,NA,NA,NA,NA,NA
57550,"""Falsch""-Screen",canvas.Screen,3_0_3_0_4_0_2,NA,NA,timeout,4998.507,599395.6,599376.838,599393.371,604375.166,604375.7,2023-01-20T15:49:55Z,604391.878,NULL,Niveau,kiwango,d,NA,NA,NA,NA,qt,0,3,NA,NA,NA,NA,NA,NA,NA,NA,NA,NA,NA,NA,NA,NA,NA,NA,NA,NA,NA
57550,deep,flow.Sequence,3_0_3_0_4_0,NA,NA,completion,16011.204,588350,588347.238,588363.962,604375.166,604375.9,2023-01-20T15:49:55Z,604391.878,NULL,Niveau,kiwango,d,NA,NA,NA,NA,qt,NA,3,NA,NA,NA,NA,NA,NA,NA,NA,NA,NA,NA,NA,NA,NA,NA,NA,NA,NA,NA
57550,shallow,flow.Sequence,3_0_3_0_4_1,NA,NA,skipped,NA,604375.9,NA,NA,604375.166,604376,2023-01-20T15:49:55Z,604391.878,NULL,Niveau,kiwango,d,NA,NA,NA,NA,qt,NA,3,NA,NA,NA,NA,NA,NA,NA,NA,NA,NA,NA,NA,NA,NA,NA,NA,NA,NA,NA
57550,task,flow.Sequence,3_0_3_0_4,NA,NA,completion,16011.204,588350,588347.238,588363.962,604375.166,604376.1,2023-01-20T15:49:55Z,604391.878,NULL,Niveau,kiwango,d,NA,NA,NA,NA,qt,NA,3,NA,NA,NA,NA,NA,NA,NA,NA,NA,NA,NA,NA,NA,NA,NA,NA,NA,NA,NA
57550,Deep Question,html.Page,3_0_3_0_5_0_0,NA,NA,form submission,16145.422000001,604376.2,604375.166,604391.878,620537.3,620537.4,2023-01-20T15:50:11Z,620552.898,NULL,System,maongozi,d,NA,NA,NA,a,NA,NA,3,NA,NA,NA,NA,NA,NA,NA,NA,NA,NA,NA,NA,NA,NA,NA,NA,NA,NA,NA
57550,"""Richtig""-Screen",canvas.Screen,3_0_3_0_5_0_1,NA,NA,skipped,NA,620539.9,NA,NA,620537.3,620540.1,2023-01-20T15:50:11Z,620552.898,NULL,System,maongozi,d,NA,NA,NA,NA,qt,NA,3,NA,NA,NA,NA,NA,NA,NA,NA,NA,NA,NA,NA,NA,NA,NA,NA,NA,NA,NA
57550,"""Falsch""-Screen",canvas.Screen,3_0_3_0_5_0_2,NA,NA,timeout,4998.524,620541.1,620536.352,620552.898,625534.698,625535.1,2023-01-20T15:50:16Z,625551.422,NULL,System,maongozi,d,NA,NA,NA,NA,qt,0,3,NA,NA,NA,NA,NA,NA,NA,NA,NA,NA,NA,NA,NA,NA,NA,NA,NA,NA,NA
57550,deep,flow.Sequence,3_0_3_0_5_0,NA,NA,completion,21142.82,604376.2,604375.166,604391.878,625534.698,625535.3,2023-01-20T15:50:16Z,625551.422,NULL,System,maongozi,d,NA,NA,NA,NA,qt,NA,3,NA,NA,NA,NA,NA,NA,NA,NA,NA,NA,NA,NA,NA,NA,NA,NA,NA,NA,NA
57550,shallow,flow.Sequence,3_0_3_0_5_1,NA,NA,skipped,NA,625535.4,NA,NA,625534.698,625535.5,2023-01-20T15:50:16Z,625551.422,NULL,System,maongozi,d,NA,NA,NA,NA,qt,NA,3,NA,NA,NA,NA,NA,NA,NA,NA,NA,NA,NA,NA,NA,NA,NA,NA,NA,NA,NA
57550,task,flow.Sequence,3_0_3_0_5,NA,NA,completion,21142.82,604376.1,604375.166,604391.878,625534.698,625535.6,2023-01-20T15:50:16Z,625551.422,NULL,System,maongozi,d,NA,NA,NA,NA,qt,NA,3,NA,NA,NA,NA,NA,NA,NA,NA,NA,NA,NA,NA,NA,NA,NA,NA,NA,NA,NA
57550,Deep Question,html.Page,3_0_3_0_6_0_0,NA,NA,form submission,6481.1780000015,625535.7,625534.698,625551.422,632032.6,632032.9,2023-01-20T15:50:23Z,632032.39,NULL,Lawine,banguko,d,NA,NA,NA,maguko,NA,NA,3,NA,NA,NA,NA,NA,NA,NA,NA,NA,NA,NA,NA,NA,NA,NA,NA,NA,NA,NA
57550,"""Richtig""-Screen",canvas.Screen,3_0_3_0_6_0_1,NA,NA,skipped,NA,632035.3,NA,NA,632032.6,632035.4,2023-01-20T15:50:23Z,632032.39,NULL,Lawine,banguko,d,NA,NA,NA,NA,qt,NA,3,NA,NA,NA,NA,NA,NA,NA,NA,NA,NA,NA,NA,NA,NA,NA,NA,NA,NA,NA
57550,"""Falsch""-Screen",canvas.Screen,3_0_3_0_6_0_2,NA,NA,timeout,4998.497,632036,632015.893,632032.39,637014.148,637014.6,2023-01-20T15:50:28Z,637030.887,NULL,Lawine,banguko,d,NA,NA,NA,NA,qt,0,3,NA,NA,NA,NA,NA,NA,NA,NA,NA,NA,NA,NA,NA,NA,NA,NA,NA,NA,NA
57550,deep,flow.Sequence,3_0_3_0_6_0,NA,NA,completion,11462.726,625535.7,625534.698,625551.422,637014.148,637014.8,2023-01-20T15:50:28Z,637030.887,NULL,Lawine,banguko,d,NA,NA,NA,NA,qt,NA,3,NA,NA,NA,NA,NA,NA,NA,NA,NA,NA,NA,NA,NA,NA,NA,NA,NA,NA,NA
57550,shallow,flow.Sequence,3_0_3_0_6_1,NA,NA,skipped,NA,637014.8,NA,NA,637014.148,637015,2023-01-20T15:50:28Z,637030.887,NULL,Lawine,banguko,d,NA,NA,NA,NA,qt,NA,3,NA,NA,NA,NA,NA,NA,NA,NA,NA,NA,NA,NA,NA,NA,NA,NA,NA,NA,NA
57550,task,flow.Sequence,3_0_3_0_6,NA,NA,completion,11462.726,625535.7,625534.698,625551.422,637014.148,637015,2023-01-20T15:50:28Z,637030.887,NULL,Lawine,banguko,d,NA,NA,NA,NA,qt,NA,3,NA,NA,NA,NA,NA,NA,NA,NA,NA,NA,NA,NA,NA,NA,NA,NA,NA,NA,NA
57550,deep,flow.Sequence,3_0_3_0_7_0,NA,NA,skipped,NA,637015.1,NA,NA,637014.148,637015.1,2023-01-20T15:50:28Z,637030.887,NULL,Entwicklung,maendeleo,s,uangavu,mshindwa,badiliko,NA,qt,NA,3,NA,NA,NA,NA,NA,NA,NA,NA,NA,NA,NA,NA,NA,NA,NA,NA,NA,NA,NA
57550,Shallow Question,html.Page,3_0_3_0_7_1_0,NA,NA,form submission,5055.113,637015.2,637014.148,637030.887,642086,642086.3,2023-01-20T15:50:33Z,642095.846,NULL,Entwicklung,maendeleo,s,uangavu,mshindwa,badiliko,maendeleo,NA,NA,3,NA,NA,NA,NA,NA,NA,NA,NA,NA,NA,NA,NA,NA,NA,NA,NA,NA,NA,NA
57550,"""Richtig""-Screen",canvas.Screen,3_0_3_0_7_1_1,NA,NA,timeout,4998.124,642088.4,642079.082,642095.846,647077.412,647077.8,2023-01-20T15:50:38Z,647093.97,NULL,Entwicklung,maendeleo,s,uangavu,mshindwa,badiliko,NA,qt,1,3,NA,NA,NA,NA,NA,NA,NA,NA,NA,NA,NA,NA,NA,NA,NA,NA,NA,NA,NA
57550,"""Falsch""-Screen",canvas.Screen,3_0_3_0_7_1_2,NA,NA,skipped,NA,647079.6,NA,NA,647077.412,647079.8,2023-01-20T15:50:38Z,647093.97,NULL,Entwicklung,maendeleo,s,uangavu,mshindwa,badiliko,NA,qt,NA,3,NA,NA,NA,NA,NA,NA,NA,NA,NA,NA,NA,NA,NA,NA,NA,NA,NA,NA,NA
57550,shallow,flow.Sequence,3_0_3_0_7_1,NA,NA,completion,10046.525,637015.2,637014.148,637030.887,647077.412,647079.9,2023-01-20T15:50:38Z,647093.97,NULL,Entwicklung,maendeleo,s,uangavu,mshindwa,badiliko,NA,qt,NA,3,NA,NA,NA,NA,NA,NA,NA,NA,NA,NA,NA,NA,NA,NA,NA,NA,NA,NA,NA
57550,task,flow.Sequence,3_0_3_0_7,NA,NA,completion,10046.525,637015.1,637014.148,637030.887,647077.412,647080,2023-01-20T15:50:38Z,647093.97,NULL,Entwicklung,maendeleo,s,uangavu,mshindwa,badiliko,NA,qt,NA,3,NA,NA,NA,NA,NA,NA,NA,NA,NA,NA,NA,NA,NA,NA,NA,NA,NA,NA,NA
57550,block,flow.Loop,3_0_3_0,NA,NA,completion,101532.531,545551.1,545511.646,545544.881,647077.412,647080.1,2023-01-20T15:50:38Z,647093.97,NULL,NA,NA,NA,NA,NA,NA,NA,qt,NA,3,NA,NA,NA,NA,NA,NA,NA,NA,NA,NA,NA,NA,NA,NA,NA,NA,NA,NA,NA
57550,weiter,canvas.Screen,3_0_3_1,sdf,keypress(Space),response,590.53000000003,647080.2,647077.412,647093.97,647684.5,647685.2,2023-01-20T15:50:38Z,647727.061,NULL,NA,NA,NA,NA,NA,NA,NA,qt,NA,3,NA,NA,NA,NA,NA,NA,NA,NA,NA,NA,NA,NA,NA,NA,NA,NA,NA,NA,NA
57550,check continue,flow.Sequence,3_0_3,NA,NA,completion,102139.619,545551.1,545511.646,545544.881,647684.5,647685.3,2023-01-20T15:50:38Z,647727.061,NULL,NA,NA,NA,NA,NA,NA,NA,qt,NA,3,NA,NA,NA,NA,NA,NA,NA,NA,NA,NA,NA,NA,NA,NA,NA,NA,NA,NA,NA
57550,deep,flow.Sequence,3_0_4_0_0_0,NA,NA,skipped,NA,647716.3,NA,NA,647684.5,647716.4,2023-01-20T15:50:38Z,647727.061,NULL,Körper,kiwiliwili,s,mapambano,mpatanishi,kiolezo,NA,sd,NA,4,NA,NA,NA,NA,NA,NA,NA,NA,NA,NA,NA,NA,NA,NA,NA,NA,NA,NA,NA
57550,Shallow Question,html.Page,3_0_4_0_0_1_0,NA,NA,form submission,4649.2390000008,647716.5,647677.174,647727.061,652376.3,652376.6,2023-01-20T15:50:43Z,652409.014,NULL,Körper,kiwiliwili,s,mapambano,mpatanishi,kiolezo,kiwiliwili,NA,NA,4,NA,NA,NA,NA,NA,NA,NA,NA,NA,NA,NA,NA,NA,NA,NA,NA,NA,NA,NA
57550,"""Richtig""-Screen",canvas.Screen,3_0_4_0_0_1_1,NA,NA,timeout,4998.265,652378.6,652392.298,652409.014,657390.596,657391.4,2023-01-20T15:50:48Z,657407.279,NULL,Körper,kiwiliwili,s,mapambano,mpatanishi,kiolezo,NA,sd,1,4,NA,NA,NA,NA,NA,NA,NA,NA,NA,NA,NA,NA,NA,NA,NA,NA,NA,NA,NA
57550,"""Falsch""-Screen",canvas.Screen,3_0_4_0_0_1_2,NA,NA,skipped,NA,657393.3,NA,NA,657390.596,657393.5,2023-01-20T15:50:48Z,657407.279,NULL,Körper,kiwiliwili,s,mapambano,mpatanishi,kiolezo,NA,sd,NA,4,NA,NA,NA,NA,NA,NA,NA,NA,NA,NA,NA,NA,NA,NA,NA,NA,NA,NA,NA
57550,shallow,flow.Sequence,3_0_4_0_0_1,NA,NA,completion,9663.535,647716.5,647677.174,647727.061,657390.596,657393.6,2023-01-20T15:50:48Z,657407.279,NULL,Körper,kiwiliwili,s,mapambano,mpatanishi,kiolezo,NA,sd,NA,4,NA,NA,NA,NA,NA,NA,NA,NA,NA,NA,NA,NA,NA,NA,NA,NA,NA,NA,NA
57550,task,flow.Sequence,3_0_4_0_0,NA,NA,completion,9663.535,647716.3,647677.174,647727.061,657390.596,657393.7,2023-01-20T15:50:48Z,657407.279,NULL,Körper,kiwiliwili,s,mapambano,mpatanishi,kiolezo,NA,sd,NA,4,NA,NA,NA,NA,NA,NA,NA,NA,NA,NA,NA,NA,NA,NA,NA,NA,NA,NA,NA
57550,Deep Question,html.Page,3_0_4_0_1_0_0,NA,NA,form submission,7090.421000003,657393.8,657390.596,657407.279,664497.7,664498.1,2023-01-20T15:50:55Z,664504.786,NULL,Lawine,banguko,d,NA,NA,NA,banguko,NA,NA,4,NA,NA,NA,NA,NA,NA,NA,NA,NA,NA,NA,NA,NA,NA,NA,NA,NA,NA,NA
57550,"""Richtig""-Screen",canvas.Screen,3_0_4_0_1_0_1,NA,NA,timeout,4998.238,664500.3,664488.201,664504.786,669486.515,669487,2023-01-20T15:51:00Z,669503.024,NULL,Lawine,banguko,d,NA,NA,NA,NA,sd,1,4,NA,NA,NA,NA,NA,NA,NA,NA,NA,NA,NA,NA,NA,NA,NA,NA,NA,NA,NA
57550,"""Falsch""-Screen",canvas.Screen,3_0_4_0_1_0_2,NA,NA,skipped,NA,669489.2,NA,NA,669486.515,669489.4,2023-01-20T15:51:00Z,669503.024,NULL,Lawine,banguko,d,NA,NA,NA,NA,sd,NA,4,NA,NA,NA,NA,NA,NA,NA,NA,NA,NA,NA,NA,NA,NA,NA,NA,NA,NA,NA
57550,deep,flow.Sequence,3_0_4_0_1_0,NA,NA,completion,12079.236,657393.7,657390.596,657407.279,669486.515,669489.6,2023-01-20T15:51:00Z,669503.024,NULL,Lawine,banguko,d,NA,NA,NA,NA,sd,NA,4,NA,NA,NA,NA,NA,NA,NA,NA,NA,NA,NA,NA,NA,NA,NA,NA,NA,NA,NA
57550,shallow,flow.Sequence,3_0_4_0_1_1,NA,NA,skipped,NA,669489.6,NA,NA,669486.515,669489.6,2023-01-20T15:51:00Z,669503.024,NULL,Lawine,banguko,d,NA,NA,NA,NA,sd,NA,4,NA,NA,NA,NA,NA,NA,NA,NA,NA,NA,NA,NA,NA,NA,NA,NA,NA,NA,NA
57550,task,flow.Sequence,3_0_4_0_1,NA,NA,completion,12079.236,657393.7,657390.596,657407.279,669486.515,669489.8,2023-01-20T15:51:00Z,669503.024,NULL,Lawine,banguko,d,NA,NA,NA,NA,sd,NA,4,NA,NA,NA,NA,NA,NA,NA,NA,NA,NA,NA,NA,NA,NA,NA,NA,NA,NA,NA
57550,deep,flow.Sequence,3_0_4_0_2_0,NA,NA,skipped,NA,669489.8,NA,NA,669486.515,669489.9,2023-01-20T15:51:00Z,669503.024,NULL,Übersicht,kilindo,s,mgusano,chipukizi,kulinganisha,NA,sd,NA,4,NA,NA,NA,NA,NA,NA,NA,NA,NA,NA,NA,NA,NA,NA,NA,NA,NA,NA,NA
57550,Shallow Question,html.Page,3_0_4_0_2_1_0,NA,NA,form submission,4721.976,669489.9,669486.515,669503.024,674225,674225.3,2023-01-20T15:51:05Z,674234.849,NULL,Übersicht,kilindo,s,mgusano,chipukizi,kulinganisha,kilindo,NA,NA,4,NA,NA,NA,NA,NA,NA,NA,NA,NA,NA,NA,NA,NA,NA,NA,NA,NA,NA,NA
57550,"""Richtig""-Screen",canvas.Screen,3_0_4_0_2_1_1,NA,NA,timeout,4998.367,674227.2,674218.246,674234.849,679216.513,679217.1,2023-01-20T15:51:10Z,679233.216,NULL,Übersicht,kilindo,s,mgusano,chipukizi,kulinganisha,NA,sd,1,4,NA,NA,NA,NA,NA,NA,NA,NA,NA,NA,NA,NA,NA,NA,NA,NA,NA,NA,NA
57550,"""Falsch""-Screen",canvas.Screen,3_0_4_0_2_1_2,NA,NA,skipped,NA,679218.8,NA,NA,679216.513,679219,2023-01-20T15:51:10Z,679233.216,NULL,Übersicht,kilindo,s,mgusano,chipukizi,kulinganisha,NA,sd,NA,4,NA,NA,NA,NA,NA,NA,NA,NA,NA,NA,NA,NA,NA,NA,NA,NA,NA,NA,NA
57550,shallow,flow.Sequence,3_0_4_0_2_1,NA,NA,completion,9713.4890000001,669489.9,669486.515,669503.024,679216.513,679219.1,2023-01-20T15:51:10Z,679233.216,NULL,Übersicht,kilindo,s,mgusano,chipukizi,kulinganisha,NA,sd,NA,4,NA,NA,NA,NA,NA,NA,NA,NA,NA,NA,NA,NA,NA,NA,NA,NA,NA,NA,NA
57550,task,flow.Sequence,3_0_4_0_2,NA,NA,completion,9713.4890000001,669489.8,669486.515,669503.024,679216.513,679219.1,2023-01-20T15:51:10Z,679233.216,NULL,Übersicht,kilindo,s,mgusano,chipukizi,kulinganisha,NA,sd,NA,4,NA,NA,NA,NA,NA,NA,NA,NA,NA,NA,NA,NA,NA,NA,NA,NA,NA,NA,NA
57550,deep,flow.Sequence,3_0_4_0_3_0,NA,NA,skipped,NA,679219.3,NA,NA,679216.513,679219.3,2023-01-20T15:51:10Z,679233.216,NULL,Entwicklung,maendeleo,s,uangavu,mshindwa,badiliko,NA,sd,NA,4,NA,NA,NA,NA,NA,NA,NA,NA,NA,NA,NA,NA,NA,NA,NA,NA,NA,NA,NA
57550,Shallow Question,html.Page,3_0_4_0_3_1_0,NA,NA,form submission,2910.484000003,679219.3,679216.513,679233.216,682143.7,682144,2023-01-20T15:51:13Z,682165.564,NULL,Entwicklung,maendeleo,s,uangavu,mshindwa,badiliko,maendeleo,NA,NA,4,NA,NA,NA,NA,NA,NA,NA,NA,NA,NA,NA,NA,NA,NA,NA,NA,NA,NA,NA
57550,"""Richtig""-Screen",canvas.Screen,3_0_4_0_3_1_1,NA,NA,timeout,4998.193,682144.7,682148.797,682165.564,687147.232,687147.8,2023-01-20T15:51:18Z,687163.757,NULL,Entwicklung,maendeleo,s,uangavu,mshindwa,badiliko,NA,sd,1,4,NA,NA,NA,NA,NA,NA,NA,NA,NA,NA,NA,NA,NA,NA,NA,NA,NA,NA,NA
57550,"""Falsch""-Screen",canvas.Screen,3_0_4_0_3_1_2,NA,NA,skipped,NA,687149.9,NA,NA,687147.232,687150.1,2023-01-20T15:51:18Z,687163.757,NULL,Entwicklung,maendeleo,s,uangavu,mshindwa,badiliko,NA,sd,NA,4,NA,NA,NA,NA,NA,NA,NA,NA,NA,NA,NA,NA,NA,NA,NA,NA,NA,NA,NA
57550,shallow,flow.Sequence,3_0_4_0_3_1,NA,NA,completion,7914.0159999999,679219.3,679216.513,679233.216,687147.232,687150.3,2023-01-20T15:51:18Z,687163.757,NULL,Entwicklung,maendeleo,s,uangavu,mshindwa,badiliko,NA,sd,NA,4,NA,NA,NA,NA,NA,NA,NA,NA,NA,NA,NA,NA,NA,NA,NA,NA,NA,NA,NA
57550,task,flow.Sequence,3_0_4_0_3,NA,NA,completion,7914.0159999999,679219.2,679216.513,679233.216,687147.232,687150.4,2023-01-20T15:51:18Z,687163.757,NULL,Entwicklung,maendeleo,s,uangavu,mshindwa,badiliko,NA,sd,NA,4,NA,NA,NA,NA,NA,NA,NA,NA,NA,NA,NA,NA,NA,NA,NA,NA,NA,NA,NA
57550,Deep Question,html.Page,3_0_4_0_4_0_0,NA,NA,form submission,11375.843000002,687150.5,687147.232,687163.757,698539.6,698540,2023-01-20T15:51:29Z,698543.227,NULL,System,maongozi,d,NA,NA,NA,mahogani,NA,NA,4,NA,NA,NA,NA,NA,NA,NA,NA,NA,NA,NA,NA,NA,NA,NA,NA,NA,NA,NA
57550,"""Richtig""-Screen",canvas.Screen,3_0_4_0_4_0_1,NA,NA,skipped,NA,698542.3,NA,NA,698539.6,698542.4,2023-01-20T15:51:29Z,698543.227,NULL,System,maongozi,d,NA,NA,NA,NA,sd,NA,4,NA,NA,NA,NA,NA,NA,NA,NA,NA,NA,NA,NA,NA,NA,NA,NA,NA,NA,NA
57550,"""Falsch""-Screen",canvas.Screen,3_0_4_0_4_0_2,NA,NA,timeout,4998.5460000001,698543.4,698526.682,698543.227,703524.959,703525.7,2023-01-20T15:51:34Z,703541.773,NULL,System,maongozi,d,NA,NA,NA,NA,sd,0,4,NA,NA,NA,NA,NA,NA,NA,NA,NA,NA,NA,NA,NA,NA,NA,NA,NA,NA,NA
57550,deep,flow.Sequence,3_0_4_0_4_0,NA,NA,completion,16361.202,687150.4,687147.232,687163.757,703524.959,703525.9,2023-01-20T15:51:34Z,703541.773,NULL,System,maongozi,d,NA,NA,NA,NA,sd,NA,4,NA,NA,NA,NA,NA,NA,NA,NA,NA,NA,NA,NA,NA,NA,NA,NA,NA,NA,NA
57550,shallow,flow.Sequence,3_0_4_0_4_1,NA,NA,skipped,NA,703526,NA,NA,703524.959,703526,2023-01-20T15:51:34Z,703541.773,NULL,System,maongozi,d,NA,NA,NA,NA,sd,NA,4,NA,NA,NA,NA,NA,NA,NA,NA,NA,NA,NA,NA,NA,NA,NA,NA,NA,NA,NA
57550,task,flow.Sequence,3_0_4_0_4,NA,NA,completion,16361.202,687150.4,687147.232,687163.757,703524.959,703526.1,2023-01-20T15:51:34Z,703541.773,NULL,System,maongozi,d,NA,NA,NA,NA,sd,NA,4,NA,NA,NA,NA,NA,NA,NA,NA,NA,NA,NA,NA,NA,NA,NA,NA,NA,NA,NA
57550,Deep Question,html.Page,3_0_4_0_5_0_0,NA,NA,form submission,6529.3270000014,703526.2,703524.959,703541.773,710071.1,710071.4,2023-01-20T15:51:41Z,710072.662,NULL,Niveau,kiwango,d,NA,NA,NA,a,NA,NA,4,NA,NA,NA,NA,NA,NA,NA,NA,NA,NA,NA,NA,NA,NA,NA,NA,NA,NA,NA
57550,"""Richtig""-Screen",canvas.Screen,3_0_4_0_5_0_1,NA,NA,skipped,NA,710073.8,NA,NA,710071.1,710073.9,2023-01-20T15:51:41Z,710072.662,NULL,Niveau,kiwango,d,NA,NA,NA,NA,sd,NA,4,NA,NA,NA,NA,NA,NA,NA,NA,NA,NA,NA,NA,NA,NA,NA,NA,NA,NA,NA
57550,"""Falsch""-Screen",canvas.Screen,3_0_4_0_5_0_2,NA,NA,timeout,4998.54,710074.9,710056.147,710072.662,715054.476,715055,2023-01-20T15:51:46Z,715071.202,NULL,Niveau,kiwango,d,NA,NA,NA,NA,sd,0,4,NA,NA,NA,NA,NA,NA,NA,NA,NA,NA,NA,NA,NA,NA,NA,NA,NA,NA,NA
57550,deep,flow.Sequence,3_0_4_0_5_0,NA,NA,completion,11512.703,703526.2,703524.959,703541.773,715054.476,715055.3,2023-01-20T15:51:46Z,715071.202,NULL,Niveau,kiwango,d,NA,NA,NA,NA,sd,NA,4,NA,NA,NA,NA,NA,NA,NA,NA,NA,NA,NA,NA,NA,NA,NA,NA,NA,NA,NA
57550,shallow,flow.Sequence,3_0_4_0_5_1,NA,NA,skipped,NA,715055.4,NA,NA,715054.476,715055.4,2023-01-20T15:51:46Z,715071.202,NULL,Niveau,kiwango,d,NA,NA,NA,NA,sd,NA,4,NA,NA,NA,NA,NA,NA,NA,NA,NA,NA,NA,NA,NA,NA,NA,NA,NA,NA,NA
57550,task,flow.Sequence,3_0_4_0_5,NA,NA,completion,11512.703,703526.1,703524.959,703541.773,715054.476,715055.6,2023-01-20T15:51:46Z,715071.202,NULL,Niveau,kiwango,d,NA,NA,NA,NA,sd,NA,4,NA,NA,NA,NA,NA,NA,NA,NA,NA,NA,NA,NA,NA,NA,NA,NA,NA,NA,NA
57550,deep,flow.Sequence,3_0_4_0_6_0,NA,NA,skipped,NA,715055.6,NA,NA,715054.476,715055.6,2023-01-20T15:51:46Z,715071.202,NULL,Vorwurf,mashtaka,s,msukumo,mtangulizi,uenyekiti,NA,sd,NA,4,NA,NA,NA,NA,NA,NA,NA,NA,NA,NA,NA,NA,NA,NA,NA,NA,NA,NA,NA
57550,Shallow Question,html.Page,3_0_4_0_6_1_0,NA,NA,form submission,3822.798,715055.7,715054.476,715071.202,718894,718894.3,2023-01-20T15:51:49Z,718903.283,NULL,Vorwurf,mashtaka,s,msukumo,mtangulizi,uenyekiti,mashtaka,NA,NA,4,NA,NA,NA,NA,NA,NA,NA,NA,NA,NA,NA,NA,NA,NA,NA,NA,NA,NA,NA
57550,"""Richtig""-Screen",canvas.Screen,3_0_4_0_6_1_1,NA,NA,timeout,4998.3049999999,718896.3,718886.493,718903.283,723884.82,723885.2,2023-01-20T15:51:54Z,723901.588,NULL,Vorwurf,mashtaka,s,msukumo,mtangulizi,uenyekiti,NA,sd,1,4,NA,NA,NA,NA,NA,NA,NA,NA,NA,NA,NA,NA,NA,NA,NA,NA,NA,NA,NA
57550,"""Falsch""-Screen",canvas.Screen,3_0_4_0_6_1_2,NA,NA,skipped,NA,723887.5,NA,NA,723884.82,723887.7,2023-01-20T15:51:54Z,723901.588,NULL,Vorwurf,mashtaka,s,msukumo,mtangulizi,uenyekiti,NA,sd,NA,4,NA,NA,NA,NA,NA,NA,NA,NA,NA,NA,NA,NA,NA,NA,NA,NA,NA,NA,NA
57550,shallow,flow.Sequence,3_0_4_0_6_1,NA,NA,completion,8813.6179999999,715055.7,715054.476,715071.202,723884.82,723887.8,2023-01-20T15:51:54Z,723901.588,NULL,Vorwurf,mashtaka,s,msukumo,mtangulizi,uenyekiti,NA,sd,NA,4,NA,NA,NA,NA,NA,NA,NA,NA,NA,NA,NA,NA,NA,NA,NA,NA,NA,NA,NA
57550,task,flow.Sequence,3_0_4_0_6,NA,NA,completion,8813.6179999999,715055.6,715054.476,715071.202,723884.82,723887.9,2023-01-20T15:51:54Z,723901.588,NULL,Vorwurf,mashtaka,s,msukumo,mtangulizi,uenyekiti,NA,sd,NA,4,NA,NA,NA,NA,NA,NA,NA,NA,NA,NA,NA,NA,NA,NA,NA,NA,NA,NA,NA
57550,Deep Question,html.Page,3_0_4_0_7_0_0,NA,NA,form submission,14755.212000001,723888,723884.82,723901.588,738656.8,738657,2023-01-20T15:52:09Z,738663.006,NULL,Papier,karatasi,d,NA,NA,NA,kilano,NA,NA,4,NA,NA,NA,NA,NA,NA,NA,NA,NA,NA,NA,NA,NA,NA,NA,NA,NA,NA,NA
57550,"""Richtig""-Screen",canvas.Screen,3_0_4_0_7_0_1,NA,NA,skipped,NA,738659.3,NA,NA,738656.8,738659.5,2023-01-20T15:52:09Z,738663.006,NULL,Papier,karatasi,d,NA,NA,NA,NA,sd,NA,4,NA,NA,NA,NA,NA,NA,NA,NA,NA,NA,NA,NA,NA,NA,NA,NA,NA,NA,NA
57550,"""Falsch""-Screen",canvas.Screen,3_0_4_0_7_0_2,NA,NA,timeout,4998.465,738660.2,738646.484,738663.006,743644.825,743645.3,2023-01-20T15:52:14Z,743661.471,NULL,Papier,karatasi,d,NA,NA,NA,NA,sd,0,4,NA,NA,NA,NA,NA,NA,NA,NA,NA,NA,NA,NA,NA,NA,NA,NA,NA,NA,NA
57550,deep,flow.Sequence,3_0_4_0_7_0,NA,NA,completion,19743.237,723888,723884.82,723901.588,743644.825,743645.5,2023-01-20T15:52:14Z,743661.471,NULL,Papier,karatasi,d,NA,NA,NA,NA,sd,NA,4,NA,NA,NA,NA,NA,NA,NA,NA,NA,NA,NA,NA,NA,NA,NA,NA,NA,NA,NA
57550,shallow,flow.Sequence,3_0_4_0_7_1,NA,NA,skipped,NA,743645.5,NA,NA,743644.825,743645.6,2023-01-20T15:52:14Z,743661.471,NULL,Papier,karatasi,d,NA,NA,NA,NA,sd,NA,4,NA,NA,NA,NA,NA,NA,NA,NA,NA,NA,NA,NA,NA,NA,NA,NA,NA,NA,NA
57550,task,flow.Sequence,3_0_4_0_7,NA,NA,completion,19743.237,723887.9,723884.82,723901.588,743644.825,743645.8,2023-01-20T15:52:14Z,743661.471,NULL,Papier,karatasi,d,NA,NA,NA,NA,sd,NA,4,NA,NA,NA,NA,NA,NA,NA,NA,NA,NA,NA,NA,NA,NA,NA,NA,NA,NA,NA
57550,block,flow.Loop,3_0_4_0,NA,NA,completion,95917.764,647716.3,647677.174,647727.061,743644.825,743645.9,2023-01-20T15:52:14Z,743661.471,NULL,NA,NA,NA,NA,NA,NA,NA,sd,NA,4,NA,NA,NA,NA,NA,NA,NA,NA,NA,NA,NA,NA,NA,NA,NA,NA,NA,NA,NA
57550,weiter,canvas.Screen,3_0_4_1,sdf,keypress(Space),response,1118.529,743645.9,743644.825,743661.471,744780,744780.6,2023-01-20T15:52:15Z,744827.793,NULL,NA,NA,NA,NA,NA,NA,NA,sd,NA,4,NA,NA,NA,NA,NA,NA,NA,NA,NA,NA,NA,NA,NA,NA,NA,NA,NA,NA,NA
57550,check continue,flow.Sequence,3_0_4,NA,NA,completion,97052.939,647716.2,647677.174,647727.061,744780,744780.8,2023-01-20T15:52:15Z,744827.793,NULL,NA,NA,NA,NA,NA,NA,NA,sd,NA,4,NA,NA,NA,NA,NA,NA,NA,NA,NA,NA,NA,NA,NA,NA,NA,NA,NA,NA,NA
57550,Deep Question,html.Page,3_0_5_0_0_0_0,NA,NA,form submission,21929.807000002,744814.7,744811.011,744827.793,766757.6,766757.9,2023-01-20T15:52:37Z,766770.257,NULL,System,maongozi,d,NA,NA,NA,a,NA,NA,5,NA,NA,NA,NA,NA,NA,NA,NA,NA,NA,NA,NA,NA,NA,NA,NA,NA,NA,NA
57550,"""Richtig""-Screen",canvas.Screen,3_0_5_0_0_0_1,NA,NA,skipped,NA,766760.1,NA,NA,766757.6,766760.3,2023-01-20T15:52:37Z,766770.257,NULL,System,maongozi,d,NA,NA,NA,NA,sdf,NA,5,NA,NA,NA,NA,NA,NA,NA,NA,NA,NA,NA,NA,NA,NA,NA,NA,NA,NA,NA
57550,"""Falsch""-Screen",canvas.Screen,3_0_5_0_0_0_2,NA,NA,timeout,4998.382,766761,766753.681,766770.257,771751.997,771752.4,2023-01-20T15:52:42Z,771768.639,NULL,System,maongozi,d,NA,NA,NA,NA,sdf,0,5,NA,NA,NA,NA,NA,NA,NA,NA,NA,NA,NA,NA,NA,NA,NA,NA,NA,NA,NA
57550,deep,flow.Sequence,3_0_5_0_0_0,NA,NA,completion,26924.204,744814.6,744811.011,744827.793,771751.997,771752.6,2023-01-20T15:52:42Z,771768.639,NULL,System,maongozi,d,NA,NA,NA,NA,sdf,NA,5,NA,NA,NA,NA,NA,NA,NA,NA,NA,NA,NA,NA,NA,NA,NA,NA,NA,NA,NA
57550,shallow,flow.Sequence,3_0_5_0_0_1,NA,NA,skipped,NA,771752.6,NA,NA,771751.997,771752.8,2023-01-20T15:52:42Z,771768.639,NULL,System,maongozi,d,NA,NA,NA,NA,sdf,NA,5,NA,NA,NA,NA,NA,NA,NA,NA,NA,NA,NA,NA,NA,NA,NA,NA,NA,NA,NA
57550,task,flow.Sequence,3_0_5_0_0,NA,NA,completion,26924.204,744814.6,744811.011,744827.793,771751.997,771752.8,2023-01-20T15:52:42Z,771768.639,NULL,System,maongozi,d,NA,NA,NA,NA,sdf,NA,5,NA,NA,NA,NA,NA,NA,NA,NA,NA,NA,NA,NA,NA,NA,NA,NA,NA,NA,NA
57550,Deep Question,html.Page,3_0_5_0_1_0_0,NA,NA,form submission,6961.7610000023,771752.9,771751.997,771768.639,778730.4,778730.6,2023-01-20T15:52:49Z,778732.861,NULL,Niveau,kiwango,d,NA,NA,NA,a,NA,NA,5,NA,NA,NA,NA,NA,NA,NA,NA,NA,NA,NA,NA,NA,NA,NA,NA,NA,NA,NA
57550,"""Richtig""-Screen",canvas.Screen,3_0_5_0_1_0_1,NA,NA,skipped,NA,778733.4,NA,NA,778730.4,778733.5,2023-01-20T15:52:49Z,778732.861,NULL,Niveau,kiwango,d,NA,NA,NA,NA,sdf,NA,5,NA,NA,NA,NA,NA,NA,NA,NA,NA,NA,NA,NA,NA,NA,NA,NA,NA,NA,NA
57550,"""Falsch""-Screen",canvas.Screen,3_0_5_0_1_0_2,NA,NA,timeout,4998.299,778734.2,778716.29,778732.861,783714.631,783715.1,2023-01-20T15:52:54Z,783731.16,NULL,Niveau,kiwango,d,NA,NA,NA,NA,sdf,0,5,NA,NA,NA,NA,NA,NA,NA,NA,NA,NA,NA,NA,NA,NA,NA,NA,NA,NA,NA
57550,deep,flow.Sequence,3_0_5_0_1_0,NA,NA,completion,11945.992,771752.9,771751.997,771768.639,783714.631,783715.3,2023-01-20T15:52:54Z,783731.16,NULL,Niveau,kiwango,d,NA,NA,NA,NA,sdf,NA,5,NA,NA,NA,NA,NA,NA,NA,NA,NA,NA,NA,NA,NA,NA,NA,NA,NA,NA,NA
57550,shallow,flow.Sequence,3_0_5_0_1_1,NA,NA,skipped,NA,783715.3,NA,NA,783714.631,783715.4,2023-01-20T15:52:54Z,783731.16,NULL,Niveau,kiwango,d,NA,NA,NA,NA,sdf,NA,5,NA,NA,NA,NA,NA,NA,NA,NA,NA,NA,NA,NA,NA,NA,NA,NA,NA,NA,NA
57550,task,flow.Sequence,3_0_5_0_1,NA,NA,completion,11945.992,771752.9,771751.997,771768.639,783714.631,783715.5,2023-01-20T15:52:54Z,783731.16,NULL,Niveau,kiwango,d,NA,NA,NA,NA,sdf,NA,5,NA,NA,NA,NA,NA,NA,NA,NA,NA,NA,NA,NA,NA,NA,NA,NA,NA,NA,NA
57550,deep,flow.Sequence,3_0_5_0_2_0,NA,NA,skipped,NA,783715.5,NA,NA,783714.631,783715.6,2023-01-20T15:52:54Z,783731.16,NULL,Körper,kiwiliwili,s,mapambano,mpatanishi,kiolezo,NA,sdf,NA,5,NA,NA,NA,NA,NA,NA,NA,NA,NA,NA,NA,NA,NA,NA,NA,NA,NA,NA,NA
57550,Shallow Question,html.Page,3_0_5_0_2_1_0,NA,NA,form submission,3929.2400000022,783715.7,783714.631,783731.16,787660.4,787660.6,2023-01-20T15:52:58Z,787663.175,NULL,Körper,kiwiliwili,s,mapambano,mpatanishi,kiolezo,kiwiliwili,NA,NA,5,NA,NA,NA,NA,NA,NA,NA,NA,NA,NA,NA,NA,NA,NA,NA,NA,NA,NA,NA
57550,"""Richtig""-Screen",canvas.Screen,3_0_5_0_2_1_1,NA,NA,timeout,4998.377,787662.7,787646.627,787663.175,792644.949,792645.8,2023-01-20T15:53:03Z,792661.552,NULL,Körper,kiwiliwili,s,mapambano,mpatanishi,kiolezo,NA,sdf,1,5,NA,NA,NA,NA,NA,NA,NA,NA,NA,NA,NA,NA,NA,NA,NA,NA,NA,NA,NA
57550,"""Falsch""-Screen",canvas.Screen,3_0_5_0_2_1_2,NA,NA,skipped,NA,792648.5,NA,NA,792644.949,792648.7,2023-01-20T15:53:03Z,792661.552,NULL,Körper,kiwiliwili,s,mapambano,mpatanishi,kiolezo,NA,sdf,NA,5,NA,NA,NA,NA,NA,NA,NA,NA,NA,NA,NA,NA,NA,NA,NA,NA,NA,NA,NA
57550,shallow,flow.Sequence,3_0_5_0_2_1,NA,NA,completion,8913.789,783715.7,783714.631,783731.16,792644.949,792648.8,2023-01-20T15:53:03Z,792661.552,NULL,Körper,kiwiliwili,s,mapambano,mpatanishi,kiolezo,NA,sdf,NA,5,NA,NA,NA,NA,NA,NA,NA,NA,NA,NA,NA,NA,NA,NA,NA,NA,NA,NA,NA
57550,task,flow.Sequence,3_0_5_0_2,NA,NA,completion,8913.789,783715.5,783714.631,783731.16,792644.949,792648.9,2023-01-20T15:53:03Z,792661.552,NULL,Körper,kiwiliwili,s,mapambano,mpatanishi,kiolezo,NA,sdf,NA,5,NA,NA,NA,NA,NA,NA,NA,NA,NA,NA,NA,NA,NA,NA,NA,NA,NA,NA,NA
57550,deep,flow.Sequence,3_0_5_0_3_0,NA,NA,skipped,NA,792649,NA,NA,792644.949,792649,2023-01-20T15:53:03Z,792661.552,NULL,Entwicklung,maendeleo,s,uangavu,mshindwa,badiliko,NA,sdf,NA,5,NA,NA,NA,NA,NA,NA,NA,NA,NA,NA,NA,NA,NA,NA,NA,NA,NA,NA,NA
57550,Shallow Question,html.Page,3_0_5_0_3_1_0,NA,NA,form submission,4282.948,792649,792644.949,792661.552,796944.5,796944.8,2023-01-20T15:53:07Z,796960.135,NULL,Entwicklung,maendeleo,s,uangavu,mshindwa,badiliko,maendeleo,NA,NA,5,NA,NA,NA,NA,NA,NA,NA,NA,NA,NA,NA,NA,NA,NA,NA,NA,NA,NA,NA
57550,"""Richtig""-Screen",canvas.Screen,3_0_5_0_3_1_1,NA,NA,timeout,4998.221,796946.7,796943.504,796960.135,801941.821,801942.4,2023-01-20T15:53:12Z,801958.356,NULL,Entwicklung,maendeleo,s,uangavu,mshindwa,badiliko,NA,sdf,1,5,NA,NA,NA,NA,NA,NA,NA,NA,NA,NA,NA,NA,NA,NA,NA,NA,NA,NA,NA
57550,"""Falsch""-Screen",canvas.Screen,3_0_5_0_3_1_2,NA,NA,skipped,NA,801944.6,NA,NA,801941.821,801944.7,2023-01-20T15:53:12Z,801958.356,NULL,Entwicklung,maendeleo,s,uangavu,mshindwa,badiliko,NA,sdf,NA,5,NA,NA,NA,NA,NA,NA,NA,NA,NA,NA,NA,NA,NA,NA,NA,NA,NA,NA,NA
57550,shallow,flow.Sequence,3_0_5_0_3_1,NA,NA,completion,9280.269,792649,792644.949,792661.552,801941.821,801944.9,2023-01-20T15:53:12Z,801958.356,NULL,Entwicklung,maendeleo,s,uangavu,mshindwa,badiliko,NA,sdf,NA,5,NA,NA,NA,NA,NA,NA,NA,NA,NA,NA,NA,NA,NA,NA,NA,NA,NA,NA,NA
57550,task,flow.Sequence,3_0_5_0_3,NA,NA,completion,9280.269,792649,792644.949,792661.552,801941.821,801944.9,2023-01-20T15:53:12Z,801958.356,NULL,Entwicklung,maendeleo,s,uangavu,mshindwa,badiliko,NA,sdf,NA,5,NA,NA,NA,NA,NA,NA,NA,NA,NA,NA,NA,NA,NA,NA,NA,NA,NA,NA,NA
57550,Deep Question,html.Page,3_0_5_0_4_0_0,NA,NA,form submission,5440.4440000007,801945,801941.821,801958.356,807398.8,807399.1,2023-01-20T15:53:18Z,807406.482,NULL,Papier,karatasi,d,NA,NA,NA,karasati,NA,NA,5,NA,NA,NA,NA,NA,NA,NA,NA,NA,NA,NA,NA,NA,NA,NA,NA,NA,NA,NA
57550,"""Richtig""-Screen",canvas.Screen,3_0_5_0_4_0_1,NA,NA,skipped,NA,807401.3,NA,NA,807398.8,807401.5,2023-01-20T15:53:18Z,807406.482,NULL,Papier,karatasi,d,NA,NA,NA,NA,sdf,NA,5,NA,NA,NA,NA,NA,NA,NA,NA,NA,NA,NA,NA,NA,NA,NA,NA,NA,NA,NA
57550,"""Falsch""-Screen",canvas.Screen,3_0_5_0_4_0_2,NA,NA,timeout,4998.464,807402.2,807389.949,807406.482,812388.165,812388.7,2023-01-20T15:53:23Z,812404.946,NULL,Papier,karatasi,d,NA,NA,NA,NA,sdf,0,5,NA,NA,NA,NA,NA,NA,NA,NA,NA,NA,NA,NA,NA,NA,NA,NA,NA,NA,NA
57550,deep,flow.Sequence,3_0_5_0_4_0,NA,NA,completion,10429.809,801945,801941.821,801958.356,812388.165,812388.8,2023-01-20T15:53:23Z,812404.946,NULL,Papier,karatasi,d,NA,NA,NA,NA,sdf,NA,5,NA,NA,NA,NA,NA,NA,NA,NA,NA,NA,NA,NA,NA,NA,NA,NA,NA,NA,NA
57550,shallow,flow.Sequence,3_0_5_0_4_1,NA,NA,skipped,NA,812388.9,NA,NA,812388.165,812389,2023-01-20T15:53:23Z,812404.946,NULL,Papier,karatasi,d,NA,NA,NA,NA,sdf,NA,5,NA,NA,NA,NA,NA,NA,NA,NA,NA,NA,NA,NA,NA,NA,NA,NA,NA,NA,NA
57550,task,flow.Sequence,3_0_5_0_4,NA,NA,completion,10429.809,801945,801941.821,801958.356,812388.165,812389.1,2023-01-20T15:53:23Z,812404.946,NULL,Papier,karatasi,d,NA,NA,NA,NA,sdf,NA,5,NA,NA,NA,NA,NA,NA,NA,NA,NA,NA,NA,NA,NA,NA,NA,NA,NA,NA,NA
57550,Deep Question,html.Page,3_0_5_0_5_0_0,NA,NA,form submission,7283.754000003,812389.2,812388.165,812404.946,819688.7,819689.1,2023-01-20T15:53:30Z,819702.456,NULL,Lawine,banguko,d,NA,NA,NA,banguko,NA,NA,5,NA,NA,NA,NA,NA,NA,NA,NA,NA,NA,NA,NA,NA,NA,NA,NA,NA,NA,NA
57550,"""Richtig""-Screen",canvas.Screen,3_0_5_0_5_0_1,NA,NA,timeout,4998.316,819691.3,819685.805,819702.456,824684.149,824684.6,2023-01-20T15:53:35Z,824700.772,NULL,Lawine,banguko,d,NA,NA,NA,NA,sdf,1,5,NA,NA,NA,NA,NA,NA,NA,NA,NA,NA,NA,NA,NA,NA,NA,NA,NA,NA,NA
57550,"""Falsch""-Screen",canvas.Screen,3_0_5_0_5_0_2,NA,NA,skipped,NA,824686.6,NA,NA,824684.149,824686.7,2023-01-20T15:53:35Z,824700.772,NULL,Lawine,banguko,d,NA,NA,NA,NA,sdf,NA,5,NA,NA,NA,NA,NA,NA,NA,NA,NA,NA,NA,NA,NA,NA,NA,NA,NA,NA,NA
57550,deep,flow.Sequence,3_0_5_0_5_0,NA,NA,completion,12279.203,812389.1,812388.165,812404.946,824684.149,824686.9,2023-01-20T15:53:35Z,824700.772,NULL,Lawine,banguko,d,NA,NA,NA,NA,sdf,NA,5,NA,NA,NA,NA,NA,NA,NA,NA,NA,NA,NA,NA,NA,NA,NA,NA,NA,NA,NA
57550,shallow,flow.Sequence,3_0_5_0_5_1,NA,NA,skipped,NA,824686.9,NA,NA,824684.149,824687,2023-01-20T15:53:35Z,824700.772,NULL,Lawine,banguko,d,NA,NA,NA,NA,sdf,NA,5,NA,NA,NA,NA,NA,NA,NA,NA,NA,NA,NA,NA,NA,NA,NA,NA,NA,NA,NA
57550,task,flow.Sequence,3_0_5_0_5,NA,NA,completion,12279.203,812389.1,812388.165,812404.946,824684.149,824687.1,2023-01-20T15:53:35Z,824700.772,NULL,Lawine,banguko,d,NA,NA,NA,NA,sdf,NA,5,NA,NA,NA,NA,NA,NA,NA,NA,NA,NA,NA,NA,NA,NA,NA,NA,NA,NA,NA
57550,deep,flow.Sequence,3_0_5_0_6_0,NA,NA,skipped,NA,824687.1,NA,NA,824684.149,824687.2,2023-01-20T15:53:35Z,824700.772,NULL,Vorwurf,mashtaka,s,msukumo,mtangulizi,uenyekiti,NA,sdf,NA,5,NA,NA,NA,NA,NA,NA,NA,NA,NA,NA,NA,NA,NA,NA,NA,NA,NA,NA,NA
57550,Shallow Question,html.Page,3_0_5_0_6_1_0,NA,NA,form submission,3193.428000003,824687.2,824684.149,824700.772,827894.2,827894.5,2023-01-20T15:53:38Z,827916.34,NULL,Vorwurf,mashtaka,s,msukumo,mtangulizi,uenyekiti,mashtaka,NA,NA,5,NA,NA,NA,NA,NA,NA,NA,NA,NA,NA,NA,NA,NA,NA,NA,NA,NA,NA,NA
57550,"""Richtig""-Screen",canvas.Screen,3_0_5_0_6_1_1,NA,NA,timeout,4998.415,827896,827899.745,827916.34,832897.915,832898.3,2023-01-20T15:53:43Z,832914.755,NULL,Vorwurf,mashtaka,s,msukumo,mtangulizi,uenyekiti,NA,sdf,1,5,NA,NA,NA,NA,NA,NA,NA,NA,NA,NA,NA,NA,NA,NA,NA,NA,NA,NA,NA
57550,"""Falsch""-Screen",canvas.Screen,3_0_5_0_6_1_2,NA,NA,skipped,NA,832900.4,NA,NA,832897.915,832900.6,2023-01-20T15:53:43Z,832914.755,NULL,Vorwurf,mashtaka,s,msukumo,mtangulizi,uenyekiti,NA,sdf,NA,5,NA,NA,NA,NA,NA,NA,NA,NA,NA,NA,NA,NA,NA,NA,NA,NA,NA,NA,NA
57550,shallow,flow.Sequence,3_0_5_0_6_1,NA,NA,completion,8197.143,824687.2,824684.149,824700.772,832897.915,832900.7,2023-01-20T15:53:43Z,832914.755,NULL,Vorwurf,mashtaka,s,msukumo,mtangulizi,uenyekiti,NA,sdf,NA,5,NA,NA,NA,NA,NA,NA,NA,NA,NA,NA,NA,NA,NA,NA,NA,NA,NA,NA,NA
57550,task,flow.Sequence,3_0_5_0_6,NA,NA,completion,8197.143,824687.1,824684.149,824700.772,832897.915,832900.9,2023-01-20T15:53:43Z,832914.755,NULL,Vorwurf,mashtaka,s,msukumo,mtangulizi,uenyekiti,NA,sdf,NA,5,NA,NA,NA,NA,NA,NA,NA,NA,NA,NA,NA,NA,NA,NA,NA,NA,NA,NA,NA
57550,deep,flow.Sequence,3_0_5_0_7_0,NA,NA,skipped,NA,832900.9,NA,NA,832897.915,832900.9,2023-01-20T15:53:43Z,832914.755,NULL,Übersicht,kilindo,s,mgusano,chipukizi,kulinganisha,NA,sdf,NA,5,NA,NA,NA,NA,NA,NA,NA,NA,NA,NA,NA,NA,NA,NA,NA,NA,NA,NA,NA
57550,Shallow Question,html.Page,3_0_5_0_7_1_0,NA,NA,form submission,2674.6450000022,832901,832897.915,832914.755,835589.4,835589.6,2023-01-20T15:53:46Z,835597.233,NULL,Übersicht,kilindo,s,mgusano,chipukizi,kulinganisha,kilindo,NA,NA,5,NA,NA,NA,NA,NA,NA,NA,NA,NA,NA,NA,NA,NA,NA,NA,NA,NA,NA,NA
57550,"""Richtig""-Screen",canvas.Screen,3_0_5_0_7_1_1,NA,NA,timeout,4998.258,835590.4,835580.429,835597.233,840578.655,840579.1,2023-01-20T15:53:51Z,840595.491,NULL,Übersicht,kilindo,s,mgusano,chipukizi,kulinganisha,NA,sdf,1,5,NA,NA,NA,NA,NA,NA,NA,NA,NA,NA,NA,NA,NA,NA,NA,NA,NA,NA,NA
57550,"""Falsch""-Screen",canvas.Screen,3_0_5_0_7_1_2,NA,NA,skipped,NA,840580.8,NA,NA,840578.655,840581,2023-01-20T15:53:51Z,840595.491,NULL,Übersicht,kilindo,s,mgusano,chipukizi,kulinganisha,NA,sdf,NA,5,NA,NA,NA,NA,NA,NA,NA,NA,NA,NA,NA,NA,NA,NA,NA,NA,NA,NA,NA
57550,shallow,flow.Sequence,3_0_5_0_7_1,NA,NA,completion,7663.9,832901,832897.915,832914.755,840578.655,840581.2,2023-01-20T15:53:51Z,840595.491,NULL,Übersicht,kilindo,s,mgusano,chipukizi,kulinganisha,NA,sdf,NA,5,NA,NA,NA,NA,NA,NA,NA,NA,NA,NA,NA,NA,NA,NA,NA,NA,NA,NA,NA
57550,task,flow.Sequence,3_0_5_0_7,NA,NA,completion,7663.9,832900.9,832897.915,832914.755,840578.655,840581.3,2023-01-20T15:53:51Z,840595.491,NULL,Übersicht,kilindo,s,mgusano,chipukizi,kulinganisha,NA,sdf,NA,5,NA,NA,NA,NA,NA,NA,NA,NA,NA,NA,NA,NA,NA,NA,NA,NA,NA,NA,NA
57550,block,flow.Loop,3_0_5_0,NA,NA,completion,95750.862,744814.6,744811.011,744827.793,840578.655,840581.4,2023-01-20T15:53:51Z,840595.491,NULL,NA,NA,NA,NA,NA,NA,NA,sdf,NA,5,NA,NA,NA,NA,NA,NA,NA,NA,NA,NA,NA,NA,NA,NA,NA,NA,NA,NA,NA
57550,weiter,canvas.Screen,3_0_5_1,sdf,keypress(Space),response,1204.7090000029,840581.5,840578.655,840595.491,841800.2,841800.8,2023-01-20T15:53:52Z,841845.061,NULL,NA,NA,NA,NA,NA,NA,NA,sdf,NA,5,NA,NA,NA,NA,NA,NA,NA,NA,NA,NA,NA,NA,NA,NA,NA,NA,NA,NA,NA
57550,check continue,flow.Sequence,3_0_5,NA,NA,completion,96972.407000003,744814.5,744811.011,744827.793,841800.2,841800.9,2023-01-20T15:53:52Z,841845.061,NULL,NA,NA,NA,NA,NA,NA,NA,sdf,NA,5,NA,NA,NA,NA,NA,NA,NA,NA,NA,NA,NA,NA,NA,NA,NA,NA,NA,NA,NA
57550,Deep Question,html.Page,3_0_6_0_0_0_0,NA,NA,form submission,13976.539000002,841835,841828.158,841845.061,855821.6,855821.9,2023-01-20T15:54:06Z,855823.498,NULL,System,maongozi,d,NA,NA,NA,mangohi,NA,NA,6,NA,NA,NA,NA,NA,NA,NA,NA,NA,NA,NA,NA,NA,NA,NA,NA,NA,NA,NA
57550,"""Richtig""-Screen",canvas.Screen,3_0_6_0_0_0_1,NA,NA,skipped,NA,855824.3,NA,NA,855821.6,855824.6,2023-01-20T15:54:06Z,855823.498,NULL,System,maongozi,d,NA,NA,NA,NA,dfs,NA,6,NA,NA,NA,NA,NA,NA,NA,NA,NA,NA,NA,NA,NA,NA,NA,NA,NA,NA,NA
57550,"""Falsch""-Screen",canvas.Screen,3_0_6_0_0_0_2,NA,NA,timeout,4998.5159999999,855825.2,855806.953,855823.498,860805.271,860805.8,2023-01-20T15:54:11Z,860822.014,NULL,System,maongozi,d,NA,NA,NA,NA,dfs,0,6,NA,NA,NA,NA,NA,NA,NA,NA,NA,NA,NA,NA,NA,NA,NA,NA,NA,NA,NA
57550,deep,flow.Sequence,3_0_6_0_0_0,NA,NA,completion,18960.21,841835,841828.158,841845.061,860805.271,860806,2023-01-20T15:54:11Z,860822.014,NULL,System,maongozi,d,NA,NA,NA,NA,dfs,NA,6,NA,NA,NA,NA,NA,NA,NA,NA,NA,NA,NA,NA,NA,NA,NA,NA,NA,NA,NA
57550,shallow,flow.Sequence,3_0_6_0_0_1,NA,NA,skipped,NA,860806,NA,NA,860805.271,860806.1,2023-01-20T15:54:11Z,860822.014,NULL,System,maongozi,d,NA,NA,NA,NA,dfs,NA,6,NA,NA,NA,NA,NA,NA,NA,NA,NA,NA,NA,NA,NA,NA,NA,NA,NA,NA,NA
57550,task,flow.Sequence,3_0_6_0_0,NA,NA,completion,18960.21,841835,841828.158,841845.061,860805.271,860806.2,2023-01-20T15:54:11Z,860822.014,NULL,System,maongozi,d,NA,NA,NA,NA,dfs,NA,6,NA,NA,NA,NA,NA,NA,NA,NA,NA,NA,NA,NA,NA,NA,NA,NA,NA,NA,NA
57550,deep,flow.Sequence,3_0_6_0_1_0,NA,NA,skipped,NA,860806.3,NA,NA,860805.271,860806.4,2023-01-20T15:54:11Z,860822.014,NULL,Entwicklung,maendeleo,s,uangavu,mshindwa,badiliko,NA,dfs,NA,6,NA,NA,NA,NA,NA,NA,NA,NA,NA,NA,NA,NA,NA,NA,NA,NA,NA,NA,NA
57550,Shallow Question,html.Page,3_0_6_0_1_1_0,NA,NA,form submission,4530.3860000023,860806.5,860805.271,860822.014,865352.4,865352.6,2023-01-20T15:54:16Z,865353.616,NULL,Entwicklung,maendeleo,s,uangavu,mshindwa,badiliko,maendeleo,NA,NA,6,NA,NA,NA,NA,NA,NA,NA,NA,NA,NA,NA,NA,NA,NA,NA,NA,NA,NA,NA
57550,"""Richtig""-Screen",canvas.Screen,3_0_6_0_1_1_1,NA,NA,timeout,4998.421,865355.4,865336.924,865353.616,870335.416,870336.2,2023-01-20T15:54:21Z,870352.037,NULL,Entwicklung,maendeleo,s,uangavu,mshindwa,badiliko,NA,dfs,1,6,NA,NA,NA,NA,NA,NA,NA,NA,NA,NA,NA,NA,NA,NA,NA,NA,NA,NA,NA
57550,"""Falsch""-Screen",canvas.Screen,3_0_6_0_1_1_2,NA,NA,skipped,NA,870339.4,NA,NA,870335.416,870339.6,2023-01-20T15:54:21Z,870352.037,NULL,Entwicklung,maendeleo,s,uangavu,mshindwa,badiliko,NA,dfs,NA,6,NA,NA,NA,NA,NA,NA,NA,NA,NA,NA,NA,NA,NA,NA,NA,NA,NA,NA,NA
57550,shallow,flow.Sequence,3_0_6_0_1_1,NA,NA,completion,9513.402,860806.5,860805.271,860822.014,870335.416,870339.8,2023-01-20T15:54:21Z,870352.037,NULL,Entwicklung,maendeleo,s,uangavu,mshindwa,badiliko,NA,dfs,NA,6,NA,NA,NA,NA,NA,NA,NA,NA,NA,NA,NA,NA,NA,NA,NA,NA,NA,NA,NA
57550,task,flow.Sequence,3_0_6_0_1,NA,NA,completion,9513.402,860806.3,860805.271,860822.014,870335.416,870339.8,2023-01-20T15:54:21Z,870352.037,NULL,Entwicklung,maendeleo,s,uangavu,mshindwa,badiliko,NA,dfs,NA,6,NA,NA,NA,NA,NA,NA,NA,NA,NA,NA,NA,NA,NA,NA,NA,NA,NA,NA,NA
57550,deep,flow.Sequence,3_0_6_0_2_0,NA,NA,skipped,NA,870339.9,NA,NA,870335.416,870339.9,2023-01-20T15:54:21Z,870352.037,NULL,Vorwurf,mashtaka,s,msukumo,mtangulizi,uenyekiti,NA,dfs,NA,6,NA,NA,NA,NA,NA,NA,NA,NA,NA,NA,NA,NA,NA,NA,NA,NA,NA,NA,NA
57550,Shallow Question,html.Page,3_0_6_0_2_1_0,NA,NA,form submission,3881.5630000015,870340,870335.416,870352.037,874233.6,874234.1,2023-01-20T15:54:25Z,874253.474,NULL,Vorwurf,mashtaka,s,msukumo,mtangulizi,uenyekiti,mashtaka,NA,NA,6,NA,NA,NA,NA,NA,NA,NA,NA,NA,NA,NA,NA,NA,NA,NA,NA,NA,NA,NA
57550,"""Richtig""-Screen",canvas.Screen,3_0_6_0_2_1_1,NA,NA,timeout,4995.463,874235.9,874217.408,874253.474,879232.398,879232.9,2023-01-20T15:54:30Z,879248.937,NULL,Vorwurf,mashtaka,s,msukumo,mtangulizi,uenyekiti,NA,dfs,1,6,NA,NA,NA,NA,NA,NA,NA,NA,NA,NA,NA,NA,NA,NA,NA,NA,NA,NA,NA
57550,"""Falsch""-Screen",canvas.Screen,3_0_6_0_2_1_2,NA,NA,skipped,NA,879234.9,NA,NA,879232.398,879235.1,2023-01-20T15:54:30Z,879248.937,NULL,Vorwurf,mashtaka,s,msukumo,mtangulizi,uenyekiti,NA,dfs,NA,6,NA,NA,NA,NA,NA,NA,NA,NA,NA,NA,NA,NA,NA,NA,NA,NA,NA,NA,NA
57550,shallow,flow.Sequence,3_0_6_0_2_1,NA,NA,completion,8880.361,870339.9,870335.416,870352.037,879232.398,879235.2,2023-01-20T15:54:30Z,879248.937,NULL,Vorwurf,mashtaka,s,msukumo,mtangulizi,uenyekiti,NA,dfs,NA,6,NA,NA,NA,NA,NA,NA,NA,NA,NA,NA,NA,NA,NA,NA,NA,NA,NA,NA,NA
57550,task,flow.Sequence,3_0_6_0_2,NA,NA,completion,8880.361,870339.9,870335.416,870352.037,879232.398,879235.3,2023-01-20T15:54:30Z,879248.937,NULL,Vorwurf,mashtaka,s,msukumo,mtangulizi,uenyekiti,NA,dfs,NA,6,NA,NA,NA,NA,NA,NA,NA,NA,NA,NA,NA,NA,NA,NA,NA,NA,NA,NA,NA
57550,Deep Question,html.Page,3_0_6_0_3_0_0,NA,NA,form submission,8349.1630000015,879235.4,879232.398,879248.937,887598.1,887598.4,2023-01-20T15:54:38Z,887612.814,NULL,Papier,karatasi,d,NA,NA,NA,karatusi,NA,NA,6,NA,NA,NA,NA,NA,NA,NA,NA,NA,NA,NA,NA,NA,NA,NA,NA,NA,NA,NA
57550,"""Richtig""-Screen",canvas.Screen,3_0_6_0_3_0_1,NA,NA,skipped,NA,887600.6,NA,NA,887598.1,887600.8,2023-01-20T15:54:38Z,887612.814,NULL,Papier,karatasi,d,NA,NA,NA,NA,dfs,NA,6,NA,NA,NA,NA,NA,NA,NA,NA,NA,NA,NA,NA,NA,NA,NA,NA,NA,NA,NA
57550,"""Falsch""-Screen",canvas.Screen,3_0_6_0_3_0_2,NA,NA,timeout,4998.4,887601.5,887596.155,887612.814,892594.539,892595,2023-01-20T15:54:43Z,892611.214,NULL,Papier,karatasi,d,NA,NA,NA,NA,dfs,0,6,NA,NA,NA,NA,NA,NA,NA,NA,NA,NA,NA,NA,NA,NA,NA,NA,NA,NA,NA
57550,deep,flow.Sequence,3_0_6_0_3_0,NA,NA,completion,13345.602,879235.4,879232.398,879248.937,892594.539,892595.1,2023-01-20T15:54:43Z,892611.214,NULL,Papier,karatasi,d,NA,NA,NA,NA,dfs,NA,6,NA,NA,NA,NA,NA,NA,NA,NA,NA,NA,NA,NA,NA,NA,NA,NA,NA,NA,NA
57550,shallow,flow.Sequence,3_0_6_0_3_1,NA,NA,skipped,NA,892595.2,NA,NA,892594.539,892595.3,2023-01-20T15:54:43Z,892611.214,NULL,Papier,karatasi,d,NA,NA,NA,NA,dfs,NA,6,NA,NA,NA,NA,NA,NA,NA,NA,NA,NA,NA,NA,NA,NA,NA,NA,NA,NA,NA
57550,task,flow.Sequence,3_0_6_0_3,NA,NA,completion,13345.602,879235.4,879232.398,879248.937,892594.539,892595.4,2023-01-20T15:54:43Z,892611.214,NULL,Papier,karatasi,d,NA,NA,NA,NA,dfs,NA,6,NA,NA,NA,NA,NA,NA,NA,NA,NA,NA,NA,NA,NA,NA,NA,NA,NA,NA,NA
57550,deep,flow.Sequence,3_0_6_0_4_0,NA,NA,skipped,NA,892595.4,NA,NA,892594.539,892595.5,2023-01-20T15:54:43Z,892611.214,NULL,Körper,kiwiliwili,s,mapambano,mpatanishi,kiolezo,NA,dfs,NA,6,NA,NA,NA,NA,NA,NA,NA,NA,NA,NA,NA,NA,NA,NA,NA,NA,NA,NA,NA
57550,Shallow Question,html.Page,3_0_6_0_4_1_0,NA,NA,form submission,3009.3860000015,892595.6,892594.539,892611.214,895620.6,895620.8,2023-01-20T15:54:46Z,895626.705,NULL,Körper,kiwiliwili,s,mapambano,mpatanishi,kiolezo,kiwiliwili,NA,NA,6,NA,NA,NA,NA,NA,NA,NA,NA,NA,NA,NA,NA,NA,NA,NA,NA,NA,NA,NA
57550,"""Richtig""-Screen",canvas.Screen,3_0_6_0_4_1_1,NA,NA,timeout,4998.3470000001,895622.8,895610.086,895626.705,900608.506,900609.4,2023-01-20T15:54:51Z,900625.052,NULL,Körper,kiwiliwili,s,mapambano,mpatanishi,kiolezo,NA,dfs,1,6,NA,NA,NA,NA,NA,NA,NA,NA,NA,NA,NA,NA,NA,NA,NA,NA,NA,NA,NA
57550,"""Falsch""-Screen",canvas.Screen,3_0_6_0_4_1_2,NA,NA,skipped,NA,900611.4,NA,NA,900608.506,900611.6,2023-01-20T15:54:51Z,900625.052,NULL,Körper,kiwiliwili,s,mapambano,mpatanishi,kiolezo,NA,dfs,NA,6,NA,NA,NA,NA,NA,NA,NA,NA,NA,NA,NA,NA,NA,NA,NA,NA,NA,NA,NA
57550,shallow,flow.Sequence,3_0_6_0_4_1,NA,NA,completion,7997.292,892595.5,892594.539,892611.214,900608.506,900611.7,2023-01-20T15:54:51Z,900625.052,NULL,Körper,kiwiliwili,s,mapambano,mpatanishi,kiolezo,NA,dfs,NA,6,NA,NA,NA,NA,NA,NA,NA,NA,NA,NA,NA,NA,NA,NA,NA,NA,NA,NA,NA
57550,task,flow.Sequence,3_0_6_0_4,NA,NA,completion,7997.292,892595.4,892594.539,892611.214,900608.506,900611.8,2023-01-20T15:54:51Z,900625.052,NULL,Körper,kiwiliwili,s,mapambano,mpatanishi,kiolezo,NA,dfs,NA,6,NA,NA,NA,NA,NA,NA,NA,NA,NA,NA,NA,NA,NA,NA,NA,NA,NA,NA,NA
57550,deep,flow.Sequence,3_0_6_0_5_0,NA,NA,skipped,NA,900611.9,NA,NA,900608.506,900611.9,2023-01-20T15:54:51Z,900625.052,NULL,Übersicht,kilindo,s,mgusano,chipukizi,kulinganisha,NA,dfs,NA,6,NA,NA,NA,NA,NA,NA,NA,NA,NA,NA,NA,NA,NA,NA,NA,NA,NA,NA,NA
57550,Shallow Question,html.Page,3_0_6_0_5_1_0,NA,NA,form submission,2208.0480000015,900612,900608.506,900625.052,902833.1,902833.3,2023-01-20T15:54:53Z,902841.157,NULL,Übersicht,kilindo,s,mgusano,chipukizi,kulinganisha,kilindo,NA,NA,6,NA,NA,NA,NA,NA,NA,NA,NA,NA,NA,NA,NA,NA,NA,NA,NA,NA,NA,NA
