observation,sender,sender_type,sender_id,response,response_action,ended_on,duration,time_run,time_render,time_show,time_end,time_commit,timestamp,time_switch,german,swahili,enc,distractor1,distractor2,distractor3,response_2,x,correct,distractors,url_vp,url_sess,meta_labjs_version,meta_location,meta_user_agent,meta_platform,meta_language,meta_locale,meta_time_zone,meta_timezone_offset,meta_screen_width,meta_screen_height,meta_scroll_width,meta_scroll_height,meta_window_inner_width,meta_window_inner_height,meta_device_pixel_ratio,meta_labjs_build_flavor,meta_labjs_build_commit
97f6c,Introduction delayed retrieval,canvas.Screen,0,weiter,keypress(Space),response,1508.66,1348,1347.68,1414.34,2923,2930,2023-06-24T23:07:42Z,2936.78,NA,NA,NA,NA,NA,NA,NA,NA,NA,NULL,216,4,20.2.4,https://neurocog.fernuni.ch/studies/vweber/sfink/delayed/index.html?vp=216&sess=4,Mozilla/5.0 (Windows NT 10.0; Win64; x64; rv:109.0) Gecko/20100101 Firefox/114.0,Win32,de,de-CH,Europe/Zurich,-120,1280,720,1280,549,1280,549,2,production,f5b4a49f956347addd546a832a3327688c2c0fef
97f6c,Deep Question,html.Page,1_0_0_0,NA,NA,form submission,5637.22,2931,2930.8,2936.78,8574,8581,2023-06-24T23:07:48Z,8597.9,Schlange,foleni,s,uvumilivu,uteuzi,muuzaji,sdfa,NA,NA,NULL,NA,NA,NA,NA,NA,NA,NA,NA,NA,NA,NA,NA,NA,NA,NA,NA,NA,NA,NA
97f6c,Save data screen,canvas.Screen,1_0_0_1,NA,NA,timeout,499.92,8595,8571.52,8597.9,9081.14,9083,2023-06-24T23:07:48Z,9097.82,Schlange,foleni,s,uvumilivu,uteuzi,muuzaji,NA,NA,0,NULL,NA,NA,NA,NA,NA,NA,NA,NA,NA,NA,NA,NA,NA,NA,NA,NA,NA,NA,NA
97f6c,deep,flow.Sequence,1_0_0,NA,NA,completion,6144.36,2931,2930.8,2936.78,9081.14,9084,2023-06-24T23:07:48Z,9097.82,Schlange,foleni,s,uvumilivu,uteuzi,muuzaji,NA,NA,NA,NULL,NA,NA,NA,NA,NA,NA,NA,NA,NA,NA,NA,NA,NA,NA,NA,NA,NA,NA,NA
97f6c,task,flow.Sequence,1_0,NA,NA,completion,6144.36,2931,2930.8,2936.78,9081.14,9084,2023-06-24T23:07:48Z,9097.82,Schlange,foleni,s,uvumilivu,uteuzi,muuzaji,NA,NA,NA,NULL,NA,NA,NA,NA,NA,NA,NA,NA,NA,NA,NA,NA,NA,NA,NA,NA,NA,NA,NA
97f6c,Deep Question,html.Page,1_1_0_0,NA,NA,form submission,3889.18,9085,9081.14,9097.82,12987,12991,2023-06-24T23:07:52Z,13007.1,Vergnügen,kichekesho,d,dubwana,mpanuko,mtesaji,suoi,NA,NA,NULL,NA,NA,NA,NA,NA,NA,NA,NA,NA,NA,NA,NA,NA,NA,NA,NA,NA,NA,NA
97f6c,Save data screen,canvas.Screen,1_1_0_1,NA,NA,timeout,499.9,13003,12984.6,13007.1,13490.34,13491,2023-06-24T23:07:53Z,13507,Vergnügen,kichekesho,d,dubwana,mpanuko,mtesaji,NA,NA,0,NULL,NA,NA,NA,NA,NA,NA,NA,NA,NA,NA,NA,NA,NA,NA,NA,NA,NA,NA,NA
97f6c,deep,flow.Sequence,1_1_0,NA,NA,completion,4392.52,9085,9081.14,9097.82,13490.34,13491,2023-06-24T23:07:53Z,13507,Vergnügen,kichekesho,d,dubwana,mpanuko,mtesaji,NA,NA,NA,NULL,NA,NA,NA,NA,NA,NA,NA,NA,NA,NA,NA,NA,NA,NA,NA,NA,NA,NA,NA
97f6c,task,flow.Sequence,1_1,NA,NA,completion,4392.52,9085,9081.14,9097.82,13490.34,13492,2023-06-24T23:07:53Z,13507,Vergnügen,kichekesho,d,dubwana,mpanuko,mtesaji,NA,NA,NA,NULL,NA,NA,NA,NA,NA,NA,NA,NA,NA,NA,NA,NA,NA,NA,NA,NA,NA,NA,NA
97f6c,Deep Question,html.Page,1_2_0_0,NA,NA,form submission,33650,13492,13490.34,13507,47157,47158,2023-06-24T23:08:26Z,47161.48,Schock,mshtuko,s,biashara,kukataza,vichekesho,j,NA,NA,NULL,NA,NA,NA,NA,NA,NA,NA,NA,NA,NA,NA,NA,NA,NA,NA,NA,NA,NA,NA
97f6c,Save data screen,canvas.Screen,1_2_0_1,NA,NA,timeout,499.88,47163,47155.64,47161.48,47644.7,47646,2023-06-24T23:08:27Z,47661.36,Schock,mshtuko,s,biashara,kukataza,vichekesho,NA,NA,0,NULL,NA,NA,NA,NA,NA,NA,NA,NA,NA,NA,NA,NA,NA,NA,NA,NA,NA,NA,NA
97f6c,deep,flow.Sequence,1_2_0,NA,NA,completion,34137.7,13492,13490.34,13507,47644.7,47646,2023-06-24T23:08:27Z,47661.36,Schock,mshtuko,s,biashara,kukataza,vichekesho,NA,NA,NA,NULL,NA,NA,NA,NA,NA,NA,NA,NA,NA,NA,NA,NA,NA,NA,NA,NA,NA,NA,NA
97f6c,task,flow.Sequence,1_2,NA,NA,completion,34137.7,13492,13490.34,13507,47644.7,47647,2023-06-24T23:08:27Z,47661.36,Schock,mshtuko,s,biashara,kukataza,vichekesho,NA,NA,NA,NULL,NA,NA,NA,NA,NA,NA,NA,NA,NA,NA,NA,NA,NA,NA,NA,NA,NA,NA,NA
97f6c,Deep Question,html.Page,1_3_0_0,NA,NA,form submission,13790.64,47648,47644.7,47661.36,61452,61453,2023-06-24T23:08:41Z,61451.42,Inhalt,yaliyomo,d,kishawishi,hifadhi,kutembea,i,NA,NA,NULL,NA,NA,NA,NA,NA,NA,NA,NA,NA,NA,NA,NA,NA,NA,NA,NA,NA,NA,NA
97f6c,Save data screen,canvas.Screen,1_3_0_1,NA,NA,timeout,500.7,61455,61451.14,61451.42,61935.46,61936,2023-06-24T23:08:41Z,61952.12,Inhalt,yaliyomo,d,kishawishi,hifadhi,kutembea,NA,NA,0,NULL,NA,NA,NA,NA,NA,NA,NA,NA,NA,NA,NA,NA,NA,NA,NA,NA,NA,NA,NA
97f6c,deep,flow.Sequence,1_3_0,NA,NA,completion,14274.1,47647,47644.7,47661.36,61935.46,61936,2023-06-24T23:08:41Z,61952.12,Inhalt,yaliyomo,d,kishawishi,hifadhi,kutembea,NA,NA,NA,NULL,NA,NA,NA,NA,NA,NA,NA,NA,NA,NA,NA,NA,NA,NA,NA,NA,NA,NA,NA
97f6c,task,flow.Sequence,1_3,NA,NA,completion,14274.1,47647,47644.7,47661.36,61935.46,61936,2023-06-24T23:08:41Z,61952.12,Inhalt,yaliyomo,d,kishawishi,hifadhi,kutembea,NA,NA,NA,NULL,NA,NA,NA,NA,NA,NA,NA,NA,NA,NA,NA,NA,NA,NA,NA,NA,NA,NA,NA
97f6c,Deep Question,html.Page,1_4_0_0,NA,NA,form submission,3611.88,61937,61935.46,61952.12,65564,65564,2023-06-24T23:08:45Z,65561.92,Fenster,dirisha,s,walakini,tasawari,maarifa,ji,NA,NA,NULL,NA,NA,NA,NA,NA,NA,NA,NA,NA,NA,NA,NA,NA,NA,NA,NA,NA,NA,NA
97f6c,Save data screen,canvas.Screen,1_4_0_1,NA,NA,timeout,502.8,65568,65561.64,65561.92,66048.06,66049,2023-06-24T23:08:45Z,66064.72,Fenster,dirisha,s,walakini,tasawari,maarifa,NA,NA,0,NULL,NA,NA,NA,NA,NA,NA,NA,NA,NA,NA,NA,NA,NA,NA,NA,NA,NA,NA,NA
97f6c,deep,flow.Sequence,1_4_0,NA,NA,completion,4095.94,61937,61935.46,61952.12,66048.06,66050,2023-06-24T23:08:45Z,66064.72,Fenster,dirisha,s,walakini,tasawari,maarifa,NA,NA,NA,NULL,NA,NA,NA,NA,NA,NA,NA,NA,NA,NA,NA,NA,NA,NA,NA,NA,NA,NA,NA
97f6c,task,flow.Sequence,1_4,NA,NA,completion,4095.94,61936,61935.46,61952.12,66048.06,66051,2023-06-24T23:08:45Z,66064.72,Fenster,dirisha,s,walakini,tasawari,maarifa,NA,NA,NA,NULL,NA,NA,NA,NA,NA,NA,NA,NA,NA,NA,NA,NA,NA,NA,NA,NA,NA,NA,NA
97f6c,Deep Question,html.Page,1_5_0_0,NA,NA,form submission,7954.28,66051,66048.06,66064.72,74019,74023,2023-06-24T23:08:53Z,74030.34,Notfall,dharura,d,rairai,malalamiko,ahueni,ni,NA,NA,NULL,NA,NA,NA,NA,NA,NA,NA,NA,NA,NA,NA,NA,NA,NA,NA,NA,NA,NA,NA
97f6c,Save data screen,canvas.Screen,1_5_0_1,NA,NA,timeout,499.94,74031,74016.78,74030.34,74513.62,74514,2023-06-24T23:08:54Z,74530.28,Notfall,dharura,d,rairai,malalamiko,ahueni,NA,NA,0,NULL,NA,NA,NA,NA,NA,NA,NA,NA,NA,NA,NA,NA,NA,NA,NA,NA,NA,NA,NA
97f6c,deep,flow.Sequence,1_5_0,NA,NA,completion,8448.9,66051,66048.06,66064.72,74513.62,74516,2023-06-24T23:08:54Z,74530.28,Notfall,dharura,d,rairai,malalamiko,ahueni,NA,NA,NA,NULL,NA,NA,NA,NA,NA,NA,NA,NA,NA,NA,NA,NA,NA,NA,NA,NA,NA,NA,NA
97f6c,task,flow.Sequence,1_5,NA,NA,completion,8448.9,66051,66048.06,66064.72,74513.62,74516,2023-06-24T23:08:54Z,74530.28,Notfall,dharura,d,rairai,malalamiko,ahueni,NA,NA,NA,NULL,NA,NA,NA,NA,NA,NA,NA,NA,NA,NA,NA,NA,NA,NA,NA,NA,NA,NA,NA
97f6c,Deep Question,html.Page,1_6_0_0,NA,NA,form submission,5179.72,74518,74513.62,74530.28,79710,79711,2023-06-24T23:08:59Z,79710.4,Hoffnung,matarajio,d,kutaalamika,uratibu,mvumbuzi,in,NA,NA,NULL,NA,NA,NA,NA,NA,NA,NA,NA,NA,NA,NA,NA,NA,NA,NA,NA,NA,NA,NA
97f6c,Save data screen,canvas.Screen,1_6_0_1,NA,NA,timeout,499.92000000001,79715,79709.34,79710.4,80193.68,80195,2023-06-24T23:09:00Z,80210.32,Hoffnung,matarajio,d,kutaalamika,uratibu,mvumbuzi,NA,NA,0,NULL,NA,NA,NA,NA,NA,NA,NA,NA,NA,NA,NA,NA,NA,NA,NA,NA,NA,NA,NA
97f6c,deep,flow.Sequence,1_6_0,NA,NA,completion,5663.4,74517,74513.62,74530.28,80193.68,80196,2023-06-24T23:09:00Z,80210.32,Hoffnung,matarajio,d,kutaalamika,uratibu,mvumbuzi,NA,NA,NA,NULL,NA,NA,NA,NA,NA,NA,NA,NA,NA,NA,NA,NA,NA,NA,NA,NA,NA,NA,NA
97f6c,task,flow.Sequence,1_6,NA,NA,completion,5663.4,74517,74513.62,74530.28,80193.68,80196,2023-06-24T23:09:00Z,80210.32,Hoffnung,matarajio,d,kutaalamika,uratibu,mvumbuzi,NA,NA,NA,NULL,NA,NA,NA,NA,NA,NA,NA,NA,NA,NA,NA,NA,NA,NA,NA,NA,NA,NA,NA
97f6c,Deep Question,html.Page,1_7_0_0,NA,NA,form submission,3030.68,80197,80193.68,80210.32,83241,83242,2023-06-24T23:09:03Z,83244.36,Vermutung,udhanifu,d,haramia,tikisho,itifaki,in,NA,NA,NULL,NA,NA,NA,NA,NA,NA,NA,NA,NA,NA,NA,NA,NA,NA,NA,NA,NA,NA,NA
97f6c,Save data screen,canvas.Screen,1_7_0_1,NA,NA,timeout,499.94,83245,83239.88,83244.36,83727.64,83729,2023-06-24T23:09:03Z,83744.3,Vermutung,udhanifu,d,haramia,tikisho,itifaki,NA,NA,0,NULL,NA,NA,NA,NA,NA,NA,NA,NA,NA,NA,NA,NA,NA,NA,NA,NA,NA,NA,NA
97f6c,deep,flow.Sequence,1_7_0,NA,NA,completion,3517.32,80197,80193.68,80210.32,83727.64,83731,2023-06-24T23:09:03Z,83744.3,Vermutung,udhanifu,d,haramia,tikisho,itifaki,NA,NA,NA,NULL,NA,NA,NA,NA,NA,NA,NA,NA,NA,NA,NA,NA,NA,NA,NA,NA,NA,NA,NA
97f6c,task,flow.Sequence,1_7,NA,NA,completion,3517.32,80196,80193.68,80210.32,83727.64,83731,2023-06-24T23:09:03Z,83744.3,Vermutung,udhanifu,d,haramia,tikisho,itifaki,NA,NA,NA,NULL,NA,NA,NA,NA,NA,NA,NA,NA,NA,NA,NA,NA,NA,NA,NA,NA,NA,NA,NA
97f6c,Deep Question,html.Page,1_8_0_0,NA,NA,form submission,3417.7,83732,83727.64,83744.3,87162,87162,2023-06-24T23:09:06Z,87162.68,Toleranz,kuvumiliana,s,maombolezo,ujasusi,mchekeshaji,jo,NA,NA,NULL,NA,NA,NA,NA,NA,NA,NA,NA,NA,NA,NA,NA,NA,NA,NA,NA,NA,NA,NA
97f6c,Save data screen,canvas.Screen,1_8_0_1,NA,NA,timeout,499.90000000001,87165,87160.3,87162.68,87645.9,87647,2023-06-24T23:09:07Z,87662.58,Toleranz,kuvumiliana,s,maombolezo,ujasusi,mchekeshaji,NA,NA,0,NULL,NA,NA,NA,NA,NA,NA,NA,NA,NA,NA,NA,NA,NA,NA,NA,NA,NA,NA,NA
97f6c,deep,flow.Sequence,1_8_0,NA,NA,completion,3901.6,83732,83727.64,83744.3,87645.9,87647,2023-06-24T23:09:07Z,87662.58,Toleranz,kuvumiliana,s,maombolezo,ujasusi,mchekeshaji,NA,NA,NA,NULL,NA,NA,NA,NA,NA,NA,NA,NA,NA,NA,NA,NA,NA,NA,NA,NA,NA,NA,NA
97f6c,task,flow.Sequence,1_8,NA,NA,completion,3901.6,83732,83727.64,83744.3,87645.9,87648,2023-06-24T23:09:07Z,87662.58,Toleranz,kuvumiliana,s,maombolezo,ujasusi,mchekeshaji,NA,NA,NA,NULL,NA,NA,NA,NA,NA,NA,NA,NA,NA,NA,NA,NA,NA,NA,NA,NA,NA,NA,NA
97f6c,Deep Question,html.Page,1_9_0_0,NA,NA,form submission,2239.42,87648,87645.9,87662.58,89902,89902,2023-06-24T23:09:09Z,89900.94,Verpackung,ufungaji,d,uhusiano,upimaji,uchunguzi,in,NA,NA,NULL,NA,NA,NA,NA,NA,NA,NA,NA,NA,NA,NA,NA,NA,NA,NA,NA,NA,NA,NA
97f6c,Save data screen,canvas.Screen,1_9_0_1,NA,NA,timeout,494.98,89905,89900.66,89900.94,90379.28,90380,2023-06-24T23:09:10Z,90395.92,Verpackung,ufungaji,d,uhusiano,upimaji,uchunguzi,NA,NA,0,NULL,NA,NA,NA,NA,NA,NA,NA,NA,NA,NA,NA,NA,NA,NA,NA,NA,NA,NA,NA
97f6c,deep,flow.Sequence,1_9_0,NA,NA,completion,2716.7,87648,87645.9,87662.58,90379.28,90381,2023-06-24T23:09:10Z,90395.92,Verpackung,ufungaji,d,uhusiano,upimaji,uchunguzi,NA,NA,NA,NULL,NA,NA,NA,NA,NA,NA,NA,NA,NA,NA,NA,NA,NA,NA,NA,NA,NA,NA,NA
97f6c,task,flow.Sequence,1_9,NA,NA,completion,2716.7,87648,87645.9,87662.58,90379.28,90382,2023-06-24T23:09:10Z,90395.92,Verpackung,ufungaji,d,uhusiano,upimaji,uchunguzi,NA,NA,NA,NULL,NA,NA,NA,NA,NA,NA,NA,NA,NA,NA,NA,NA,NA,NA,NA,NA,NA,NA,NA
97f6c,Deep Question,html.Page,1_10_0_0,NA,NA,form submission,6565.08,90382,90379.28,90395.92,96961,96961,2023-06-24T23:09:16Z,96966.9,Ergänzung,kijalizo,s,ulaghai,mustarehe,matangazo,in,NA,NA,NULL,NA,NA,NA,NA,NA,NA,NA,NA,NA,NA,NA,NA,NA,NA,NA,NA,NA,NA,NA
97f6c,Save data screen,canvas.Screen,1_10_0_1,NA,NA,timeout,499.90000000001,96965,96959.36,96966.9,97450.14,97452,2023-06-24T23:09:17Z,97466.8,Ergänzung,kijalizo,s,ulaghai,mustarehe,matangazo,NA,NA,0,NULL,NA,NA,NA,NA,NA,NA,NA,NA,NA,NA,NA,NA,NA,NA,NA,NA,NA,NA,NA
97f6c,deep,flow.Sequence,1_10_0,NA,NA,completion,7054.22,90382,90379.28,90395.92,97450.14,97453,2023-06-24T23:09:17Z,97466.8,Ergänzung,kijalizo,s,ulaghai,mustarehe,matangazo,NA,NA,NA,NULL,NA,NA,NA,NA,NA,NA,NA,NA,NA,NA,NA,NA,NA,NA,NA,NA,NA,NA,NA
97f6c,task,flow.Sequence,1_10,NA,NA,completion,7054.22,90382,90379.28,90395.92,97450.14,97453,2023-06-24T23:09:17Z,97466.8,Ergänzung,kijalizo,s,ulaghai,mustarehe,matangazo,NA,NA,NA,NULL,NA,NA,NA,NA,NA,NA,NA,NA,NA,NA,NA,NA,NA,NA,NA,NA,NA,NA,NA
97f6c,Deep Question,html.Page,1_11_0_0,NA,NA,form submission,2625.2,97454,97450.14,97466.8,100092,100092,2023-06-24T23:09:19Z,100093.58,Spionage,upelelezi,s,maslahi,utokazo,magangao,in,NA,NA,NULL,NA,NA,NA,NA,NA,NA,NA,NA,NA,NA,NA,NA,NA,NA,NA,NA,NA,NA,NA
97f6c,Save data screen,canvas.Screen,1_11_0_1,NA,NA,timeout,499.92,100095,100091.36,100093.58,100576.86,100578,2023-06-24T23:09:20Z,100593.5,Spionage,upelelezi,s,maslahi,utokazo,magangao,NA,NA,0,NULL,NA,NA,NA,NA,NA,NA,NA,NA,NA,NA,NA,NA,NA,NA,NA,NA,NA,NA,NA
97f6c,deep,flow.Sequence,1_11_0,NA,NA,completion,3110.06,97454,97450.14,97466.8,100576.86,100579,2023-06-24T23:09:20Z,100593.5,Spionage,upelelezi,s,maslahi,utokazo,magangao,NA,NA,NA,NULL,NA,NA,NA,NA,NA,NA,NA,NA,NA,NA,NA,NA,NA,NA,NA,NA,NA,NA,NA
97f6c,task,flow.Sequence,1_11,NA,NA,completion,3110.06,97453,97450.14,97466.8,100576.86,100579,2023-06-24T23:09:20Z,100593.5,Spionage,upelelezi,s,maslahi,utokazo,magangao,NA,NA,NA,NULL,NA,NA,NA,NA,NA,NA,NA,NA,NA,NA,NA,NA,NA,NA,NA,NA,NA,NA,NA
97f6c,Deep Question,html.Page,1_12_0_0,NA,NA,form submission,13618.5,100580,100576.86,100593.5,114212,114214,2023-06-24T23:09:34Z,114225.08,Wohlstand,mafanikio,s,chimbuko,kumbuko,mapwaji,in,NA,NA,NULL,NA,NA,NA,NA,NA,NA,NA,NA,NA,NA,NA,NA,NA,NA,NA,NA,NA,NA,NA
97f6c,Save data screen,canvas.Screen,1_12_0_1,NA,NA,timeout,499.89999999999,114217,114211.5,114225.08,114708.32,114709,2023-06-24T23:09:34Z,114724.98,Wohlstand,mafanikio,s,chimbuko,kumbuko,mapwaji,NA,NA,0,NULL,NA,NA,NA,NA,NA,NA,NA,NA,NA,NA,NA,NA,NA,NA,NA,NA,NA,NA,NA
97f6c,deep,flow.Sequence,1_12_0,NA,NA,completion,14114.82,100580,100576.86,100593.5,114708.32,114710,2023-06-24T23:09:34Z,114724.98,Wohlstand,mafanikio,s,chimbuko,kumbuko,mapwaji,NA,NA,NA,NULL,NA,NA,NA,NA,NA,NA,NA,NA,NA,NA,NA,NA,NA,NA,NA,NA,NA,NA,NA
97f6c,task,flow.Sequence,1_12,NA,NA,completion,14114.82,100580,100576.86,100593.5,114708.32,114710,2023-06-24T23:09:34Z,114724.98,Wohlstand,mafanikio,s,chimbuko,kumbuko,mapwaji,NA,NA,NA,NULL,NA,NA,NA,NA,NA,NA,NA,NA,NA,NA,NA,NA,NA,NA,NA,NA,NA,NA,NA
97f6c,Deep Question,html.Page,1_13_0_0,NA,NA,form submission,1580.02,114711,114708.32,114724.98,116305,116305,2023-06-24T23:09:36Z,116312.22,Theorie,nadharia,s,ushungi,mkutano,uwakilishi,in,NA,NA,NULL,NA,NA,NA,NA,NA,NA,NA,NA,NA,NA,NA,NA,NA,NA,NA,NA,NA,NA,NA
97f6c,Save data screen,canvas.Screen,1_13_0_1,NA,NA,timeout,499.88,116308,116303,116312.22,116795.42,116796,2023-06-24T23:09:36Z,116812.1,Theorie,nadharia,s,ushungi,mkutano,uwakilishi,NA,NA,0,NULL,NA,NA,NA,NA,NA,NA,NA,NA,NA,NA,NA,NA,NA,NA,NA,NA,NA,NA,NA
97f6c,deep,flow.Sequence,1_13_0,NA,NA,completion,2070.44,114710,114708.32,114724.98,116795.42,116797,2023-06-24T23:09:36Z,116812.1,Theorie,nadharia,s,ushungi,mkutano,uwakilishi,NA,NA,NA,NULL,NA,NA,NA,NA,NA,NA,NA,NA,NA,NA,NA,NA,NA,NA,NA,NA,NA,NA,NA
97f6c,task,flow.Sequence,1_13,NA,NA,completion,2070.44,114710,114708.32,114724.98,116795.42,116797,2023-06-24T23:09:36Z,116812.1,Theorie,nadharia,s,ushungi,mkutano,uwakilishi,NA,NA,NA,NULL,NA,NA,NA,NA,NA,NA,NA,NA,NA,NA,NA,NA,NA,NA,NA,NA,NA,NA,NA
97f6c,Deep Question,html.Page,1_14_0_0,NA,NA,form submission,27838.9,116797,116795.42,116812.1,144651,144651,2023-06-24T23:10:04Z,144666.6,Tester,wanaojaribu,d,sherti,sihiri,mlipuko,lom,NA,NA,NULL,NA,NA,NA,NA,NA,NA,NA,NA,NA,NA,NA,NA,NA,NA,NA,NA,NA,NA,NA
97f6c,Save data screen,canvas.Screen,1_14_0_1,NA,NA,timeout,499.91999999998,144653,144650.34,144666.6,145149.84,145151,2023-06-24T23:10:04Z,145166.52,Tester,wanaojaribu,d,sherti,sihiri,mlipuko,NA,NA,0,NULL,NA,NA,NA,NA,NA,NA,NA,NA,NA,NA,NA,NA,NA,NA,NA,NA,NA,NA,NA
97f6c,deep,flow.Sequence,1_14_0,NA,NA,completion,28337.74,116797,116795.42,116812.1,145149.84,145151,2023-06-24T23:10:04Z,145166.52,Tester,wanaojaribu,d,sherti,sihiri,mlipuko,NA,NA,NA,NULL,NA,NA,NA,NA,NA,NA,NA,NA,NA,NA,NA,NA,NA,NA,NA,NA,NA,NA,NA
97f6c,task,flow.Sequence,1_14,NA,NA,completion,28337.74,116797,116795.42,116812.1,145149.84,145151,2023-06-24T23:10:04Z,145166.52,Tester,wanaojaribu,d,sherti,sihiri,mlipuko,NA,NA,NA,NULL,NA,NA,NA,NA,NA,NA,NA,NA,NA,NA,NA,NA,NA,NA,NA,NA,NA,NA,NA
97f6c,Deep Question,html.Page,1_15_0_0,NA,NA,form submission,9461.48,145151,145149.84,145166.52,154628,154629,2023-06-24T23:10:14Z,154630.1,Schüler,mwanafunzi,d,mwekezaji,matumizi,uaminifu,no,NA,NA,NULL,NA,NA,NA,NA,NA,NA,NA,NA,NA,NA,NA,NA,NA,NA,NA,NA,NA,NA,NA
97f6c,Save data screen,canvas.Screen,1_15_0_1,NA,NA,timeout,499.91999999998,154631,154627.74,154630.1,155113.34,155114,2023-06-24T23:10:14Z,155130.02,Schüler,mwanafunzi,d,mwekezaji,matumizi,uaminifu,NA,NA,0,NULL,NA,NA,NA,NA,NA,NA,NA,NA,NA,NA,NA,NA,NA,NA,NA,NA,NA,NA,NA
97f6c,deep,flow.Sequence,1_15_0,NA,NA,completion,9946.82,145151,145149.84,145166.52,155113.34,155114,2023-06-24T23:10:14Z,155130.02,Schüler,mwanafunzi,d,mwekezaji,matumizi,uaminifu,NA,NA,NA,NULL,NA,NA,NA,NA,NA,NA,NA,NA,NA,NA,NA,NA,NA,NA,NA,NA,NA,NA,NA
97f6c,task,flow.Sequence,1_15,NA,NA,completion,9946.82,145151,145149.84,145166.52,155113.34,155115,2023-06-24T23:10:14Z,155130.02,Schüler,mwanafunzi,d,mwekezaji,matumizi,uaminifu,NA,NA,NA,NULL,NA,NA,NA,NA,NA,NA,NA,NA,NA,NA,NA,NA,NA,NA,NA,NA,NA,NA,NA
97f6c,retrieval block 1 (cued recall),flow.Loop,1,NA,NA,completion,152176.56,2931,2930.8,2936.78,155113.34,155115,2023-06-24T23:10:14Z,155130.02,NA,NA,NA,NA,NA,NA,NA,NA,NA,NULL,NA,NA,NA,NA,NA,NA,NA,NA,NA,NA,NA,NA,NA,NA,NA,NA,NA,NA,NA
97f6c,Shallow Question,html.Page,2_0_0_0,NA,NA,form submission,8631.98,155116,155113.34,155130.02,163762,163766,2023-06-24T23:10:23Z,163780.98,Vermutung,udhanifu,d,haramia,tikisho,itifaki,udhanifu,NA,NA,"c(""distractor1"", ""distractor2"", ""distractor3"")",NA,NA,NA,NA,NA,NA,NA,NA,NA,NA,NA,NA,NA,NA,NA,NA,NA,NA,NA
97f6c,Save data screen,canvas.Screen,2_0_0_1,NA,NA,timeout,499.91999999998,163778,163758.4,163780.98,164264.24,164265,2023-06-24T23:10:24Z,164280.9,Vermutung,udhanifu,d,haramia,tikisho,itifaki,NA,NA,1,"c(""distractor1"", ""distractor2"", ""distractor3"")",NA,NA,NA,NA,NA,NA,NA,NA,NA,NA,NA,NA,NA,NA,NA,NA,NA,NA,NA
97f6c,shallow,flow.Sequence,2_0_0,NA,NA,completion,9134.22,155116,155113.34,155130.02,164264.24,164265,2023-06-24T23:10:24Z,164280.9,Vermutung,udhanifu,d,haramia,tikisho,itifaki,NA,NA,NA,"c(""distractor1"", ""distractor2"", ""distractor3"")",NA,NA,NA,NA,NA,NA,NA,NA,NA,NA,NA,NA,NA,NA,NA,NA,NA,NA,NA
97f6c,task,flow.Sequence,2_0,NA,NA,completion,9134.22,155116,155113.34,155130.02,164264.24,164266,2023-06-24T23:10:24Z,164280.9,Vermutung,udhanifu,d,haramia,tikisho,itifaki,NA,NA,NA,"c(""distractor1"", ""distractor2"", ""distractor3"")",NA,NA,NA,NA,NA,NA,NA,NA,NA,NA,NA,NA,NA,NA,NA,NA,NA,NA,NA
97f6c,Shallow Question,html.Page,2_1_0_0,NA,NA,form submission,6460.1,164267,164264.24,164280.9,170741,170741,2023-06-24T23:10:30Z,170745.66,Verpackung,ufungaji,d,uhusiano,upimaji,uchunguzi,ufungaji,NA,NA,"c(""distractor1"", ""distractor2"", ""distractor3"")",NA,NA,NA,NA,NA,NA,NA,NA,NA,NA,NA,NA,NA,NA,NA,NA,NA,NA,NA
97f6c,Save data screen,canvas.Screen,2_1_0_1,NA,NA,timeout,499.88,170743,170739.78,170745.66,171228.9,171230,2023-06-24T23:10:31Z,171245.54,Verpackung,ufungaji,d,uhusiano,upimaji,uchunguzi,NA,NA,1,"c(""distractor1"", ""distractor2"", ""distractor3"")",NA,NA,NA,NA,NA,NA,NA,NA,NA,NA,NA,NA,NA,NA,NA,NA,NA,NA,NA
97f6c,shallow,flow.Sequence,2_1_0,NA,NA,completion,6948,164267,164264.24,164280.9,171228.9,171230,2023-06-24T23:10:31Z,171245.54,Verpackung,ufungaji,d,uhusiano,upimaji,uchunguzi,NA,NA,NA,"c(""distractor1"", ""distractor2"", ""distractor3"")",NA,NA,NA,NA,NA,NA,NA,NA,NA,NA,NA,NA,NA,NA,NA,NA,NA,NA,NA
97f6c,task,flow.Sequence,2_1,NA,NA,completion,6948,164267,164264.24,164280.9,171228.9,171231,2023-06-24T23:10:31Z,171245.54,Verpackung,ufungaji,d,uhusiano,upimaji,uchunguzi,NA,NA,NA,"c(""distractor1"", ""distractor2"", ""distractor3"")",NA,NA,NA,NA,NA,NA,NA,NA,NA,NA,NA,NA,NA,NA,NA,NA,NA,NA,NA
97f6c,Shallow Question,html.Page,2_2_0_0,NA,NA,form submission,3298.46,171231,171228.9,171245.54,174544,174545,2023-06-24T23:10:34Z,174549.5,Vergnügen,kichekesho,d,dubwana,mpanuko,mtesaji,kichekesho,NA,NA,"c(""distractor1"", ""distractor2"", ""distractor3"")",NA,NA,NA,NA,NA,NA,NA,NA,NA,NA,NA,NA,NA,NA,NA,NA,NA,NA,NA
97f6c,Save data screen,canvas.Screen,2_2_0_1,NA,NA,timeout,499.89999999999,174548,174543.62,174549.5,175032.74,175033,2023-06-24T23:10:34Z,175049.4,Vergnügen,kichekesho,d,dubwana,mpanuko,mtesaji,NA,NA,1,"c(""distractor1"", ""distractor2"", ""distractor3"")",NA,NA,NA,NA,NA,NA,NA,NA,NA,NA,NA,NA,NA,NA,NA,NA,NA,NA,NA
97f6c,shallow,flow.Sequence,2_2_0,NA,NA,completion,3787.2,171231,171228.9,171245.54,175032.74,175034,2023-06-24T23:10:34Z,175049.4,Vergnügen,kichekesho,d,dubwana,mpanuko,mtesaji,NA,NA,NA,"c(""distractor1"", ""distractor2"", ""distractor3"")",NA,NA,NA,NA,NA,NA,NA,NA,NA,NA,NA,NA,NA,NA,NA,NA,NA,NA,NA
97f6c,task,flow.Sequence,2_2,NA,NA,completion,3787.2,171231,171228.9,171245.54,175032.74,175035,2023-06-24T23:10:34Z,175049.4,Vergnügen,kichekesho,d,dubwana,mpanuko,mtesaji,NA,NA,NA,"c(""distractor1"", ""distractor2"", ""distractor3"")",NA,NA,NA,NA,NA,NA,NA,NA,NA,NA,NA,NA,NA,NA,NA,NA,NA,NA,NA
97f6c,Shallow Question,html.Page,2_3_0_0,NA,NA,form submission,15766.6,175035,175032.74,175049.4,190816,190817,2023-06-24T23:10:50Z,190821.46,Fenster,dirisha,s,walakini,tasawari,maarifa,tasawari,NA,NA,"c(""distractor1"", ""distractor2"", ""distractor3"")",NA,NA,NA,NA,NA,NA,NA,NA,NA,NA,NA,NA,NA,NA,NA,NA,NA,NA,NA
97f6c,Save data screen,canvas.Screen,2_3_0_1,NA,NA,timeout,499.89999999999,190818,190815.58,190821.46,191304.68,191306,2023-06-24T23:10:51Z,191321.36,Fenster,dirisha,s,walakini,tasawari,maarifa,NA,NA,0,"c(""distractor1"", ""distractor2"", ""distractor3"")",NA,NA,NA,NA,NA,NA,NA,NA,NA,NA,NA,NA,NA,NA,NA,NA,NA,NA,NA
97f6c,shallow,flow.Sequence,2_3_0,NA,NA,completion,16255.28,175035,175032.74,175049.4,191304.68,191306,2023-06-24T23:10:51Z,191321.36,Fenster,dirisha,s,walakini,tasawari,maarifa,NA,NA,NA,"c(""distractor1"", ""distractor2"", ""distractor3"")",NA,NA,NA,NA,NA,NA,NA,NA,NA,NA,NA,NA,NA,NA,NA,NA,NA,NA,NA
97f6c,task,flow.Sequence,2_3,NA,NA,completion,16255.28,175035,175032.74,175049.4,191304.68,191306,2023-06-24T23:10:51Z,191321.36,Fenster,dirisha,s,walakini,tasawari,maarifa,NA,NA,NA,"c(""distractor1"", ""distractor2"", ""distractor3"")",NA,NA,NA,NA,NA,NA,NA,NA,NA,NA,NA,NA,NA,NA,NA,NA,NA,NA,NA
97f6c,Shallow Question,html.Page,2_4_0_0,NA,NA,form submission,4611.64,191307,191304.68,191321.36,195933,195934,2023-06-24T23:10:55Z,195938.88,Spionage,upelelezi,s,maslahi,utokazo,magangao,upelelezi,NA,NA,"c(""distractor1"", ""distractor2"", ""distractor3"")",NA,NA,NA,NA,NA,NA,NA,NA,NA,NA,NA,NA,NA,NA,NA,NA,NA,NA,NA
97f6c,Save data screen,canvas.Screen,2_4_0_1,NA,NA,timeout,499.89999999999,195936,195932.98,195938.88,196422.1,196423,2023-06-24T23:10:56Z,196438.78,Spionage,upelelezi,s,maslahi,utokazo,magangao,NA,NA,1,"c(""distractor1"", ""distractor2"", ""distractor3"")",NA,NA,NA,NA,NA,NA,NA,NA,NA,NA,NA,NA,NA,NA,NA,NA,NA,NA,NA
97f6c,shallow,flow.Sequence,2_4_0,NA,NA,completion,5100.74,191307,191304.68,191321.36,196422.1,196423,2023-06-24T23:10:56Z,196438.78,Spionage,upelelezi,s,maslahi,utokazo,magangao,NA,NA,NA,"c(""distractor1"", ""distractor2"", ""distractor3"")",NA,NA,NA,NA,NA,NA,NA,NA,NA,NA,NA,NA,NA,NA,NA,NA,NA,NA,NA
97f6c,task,flow.Sequence,2_4,NA,NA,completion,5100.74,191307,191304.68,191321.36,196422.1,196424,2023-06-24T23:10:56Z,196438.78,Spionage,upelelezi,s,maslahi,utokazo,magangao,NA,NA,NA,"c(""distractor1"", ""distractor2"", ""distractor3"")",NA,NA,NA,NA,NA,NA,NA,NA,NA,NA,NA,NA,NA,NA,NA,NA,NA,NA,NA
97f6c,Shallow Question,html.Page,2_5_0_0,NA,NA,form submission,14073.22,196424,196422.1,196438.78,210512,210512,2023-06-24T23:11:10Z,210516.78,Wohlstand,mafanikio,s,chimbuko,kumbuko,mapwaji,mafanikio,NA,NA,"c(""distractor1"", ""distractor2"", ""distractor3"")",NA,NA,NA,NA,NA,NA,NA,NA,NA,NA,NA,NA,NA,NA,NA,NA,NA,NA,NA
97f6c,Save data screen,canvas.Screen,2_5_0_1,NA,NA,timeout,499.88,210515,210510.86,210516.78,210999.98,211004,2023-06-24T23:11:10Z,211016.66,Wohlstand,mafanikio,s,chimbuko,kumbuko,mapwaji,NA,NA,1,"c(""distractor1"", ""distractor2"", ""distractor3"")",NA,NA,NA,NA,NA,NA,NA,NA,NA,NA,NA,NA,NA,NA,NA,NA,NA,NA,NA
97f6c,shallow,flow.Sequence,2_5_0,NA,NA,completion,14561.2,196424,196422.1,196438.78,210999.98,211007,2023-06-24T23:11:10Z,211016.66,Wohlstand,mafanikio,s,chimbuko,kumbuko,mapwaji,NA,NA,NA,"c(""distractor1"", ""distractor2"", ""distractor3"")",NA,NA,NA,NA,NA,NA,NA,NA,NA,NA,NA,NA,NA,NA,NA,NA,NA,NA,NA
97f6c,task,flow.Sequence,2_5,NA,NA,completion,14561.2,196424,196422.1,196438.78,210999.98,211008,2023-06-24T23:11:10Z,211016.66,Wohlstand,mafanikio,s,chimbuko,kumbuko,mapwaji,NA,NA,NA,"c(""distractor1"", ""distractor2"", ""distractor3"")",NA,NA,NA,NA,NA,NA,NA,NA,NA,NA,NA,NA,NA,NA,NA,NA,NA,NA,NA
97f6c,Shallow Question,html.Page,2_6_0_0,NA,NA,form submission,2751.34,211009,210999.98,211016.66,213768,213768,2023-06-24T23:11:13Z,213772.06,Notfall,dharura,d,rairai,malalamiko,ahueni,dharura,NA,NA,"c(""distractor1"", ""distractor2"", ""distractor3"")",NA,NA,NA,NA,NA,NA,NA,NA,NA,NA,NA,NA,NA,NA,NA,NA,NA,NA,NA
97f6c,Save data screen,canvas.Screen,2_6_0_1,NA,NA,timeout,499.89999999999,213779,213766.16,213772.06,214255.3,214256,2023-06-24T23:11:14Z,214271.96,Notfall,dharura,d,rairai,malalamiko,ahueni,NA,NA,1,"c(""distractor1"", ""distractor2"", ""distractor3"")",NA,NA,NA,NA,NA,NA,NA,NA,NA,NA,NA,NA,NA,NA,NA,NA,NA,NA,NA
97f6c,shallow,flow.Sequence,2_6_0,NA,NA,completion,3238.64,211009,210999.98,211016.66,214255.3,214257,2023-06-24T23:11:14Z,214271.96,Notfall,dharura,d,rairai,malalamiko,ahueni,NA,NA,NA,"c(""distractor1"", ""distractor2"", ""distractor3"")",NA,NA,NA,NA,NA,NA,NA,NA,NA,NA,NA,NA,NA,NA,NA,NA,NA,NA,NA
97f6c,task,flow.Sequence,2_6,NA,NA,completion,3238.64,211009,210999.98,211016.66,214255.3,214257,2023-06-24T23:11:14Z,214271.96,Notfall,dharura,d,rairai,malalamiko,ahueni,NA,NA,NA,"c(""distractor1"", ""distractor2"", ""distractor3"")",NA,NA,NA,NA,NA,NA,NA,NA,NA,NA,NA,NA,NA,NA,NA,NA,NA,NA,NA
97f6c,Shallow Question,html.Page,2_7_0_0,NA,NA,form submission,13193.04,214258,214255.3,214271.96,227465,227466,2023-06-24T23:11:27Z,227470.12,Theorie,nadharia,s,ushungi,mkutano,uwakilishi,mkutano,NA,NA,"c(""distractor1"", ""distractor2"", ""distractor3"")",NA,NA,NA,NA,NA,NA,NA,NA,NA,NA,NA,NA,NA,NA,NA,NA,NA,NA,NA
97f6c,Save data screen,canvas.Screen,2_7_0_1,NA,NA,timeout,499.92000000001,227468,227464.22,227470.12,227953.38,227955,2023-06-24T23:11:27Z,227970.04,Theorie,nadharia,s,ushungi,mkutano,uwakilishi,NA,NA,0,"c(""distractor1"", ""distractor2"", ""distractor3"")",NA,NA,NA,NA,NA,NA,NA,NA,NA,NA,NA,NA,NA,NA,NA,NA,NA,NA,NA
97f6c,shallow,flow.Sequence,2_7_0,NA,NA,completion,13681.42,214258,214255.3,214271.96,227953.38,227955,2023-06-24T23:11:27Z,227970.04,Theorie,nadharia,s,ushungi,mkutano,uwakilishi,NA,NA,NA,"c(""distractor1"", ""distractor2"", ""distractor3"")",NA,NA,NA,NA,NA,NA,NA,NA,NA,NA,NA,NA,NA,NA,NA,NA,NA,NA,NA
97f6c,task,flow.Sequence,2_7,NA,NA,completion,13681.42,214258,214255.3,214271.96,227953.38,227956,2023-06-24T23:11:27Z,227970.04,Theorie,nadharia,s,ushungi,mkutano,uwakilishi,NA,NA,NA,"c(""distractor1"", ""distractor2"", ""distractor3"")",NA,NA,NA,NA,NA,NA,NA,NA,NA,NA,NA,NA,NA,NA,NA,NA,NA,NA,NA
97f6c,Shallow Question,html.Page,2_8_0_0,NA,NA,form submission,6513.96,227957,227953.38,227970.04,234484,234484,2023-06-24T23:11:34Z,234487.84,Schlange,foleni,s,uvumilivu,uteuzi,muuzaji,foleni,NA,NA,"c(""distractor1"", ""distractor2"", ""distractor3"")",NA,NA,NA,NA,NA,NA,NA,NA,NA,NA,NA,NA,NA,NA,NA,NA,NA,NA,NA
97f6c,Save data screen,canvas.Screen,2_8_0_1,NA,NA,timeout,499.76000000001,234487,234481.78,234487.84,234970.94,234972,2023-06-24T23:11:34Z,234987.6,Schlange,foleni,s,uvumilivu,uteuzi,muuzaji,NA,NA,1,"c(""distractor1"", ""distractor2"", ""distractor3"")",NA,NA,NA,NA,NA,NA,NA,NA,NA,NA,NA,NA,NA,NA,NA,NA,NA,NA,NA
97f6c,shallow,flow.Sequence,2_8_0,NA,NA,completion,7000.9,227956,227953.38,227970.04,234970.94,234972,2023-06-24T23:11:34Z,234987.6,Schlange,foleni,s,uvumilivu,uteuzi,muuzaji,NA,NA,NA,"c(""distractor1"", ""distractor2"", ""distractor3"")",NA,NA,NA,NA,NA,NA,NA,NA,NA,NA,NA,NA,NA,NA,NA,NA,NA,NA,NA
97f6c,task,flow.Sequence,2_8,NA,NA,completion,7000.9,227956,227953.38,227970.04,234970.94,234973,2023-06-24T23:11:34Z,234987.6,Schlange,foleni,s,uvumilivu,uteuzi,muuzaji,NA,NA,NA,"c(""distractor1"", ""distractor2"", ""distractor3"")",NA,NA,NA,NA,NA,NA,NA,NA,NA,NA,NA,NA,NA,NA,NA,NA,NA,NA,NA
97f6c,Shallow Question,html.Page,2_9_0_0,NA,NA,form submission,4567.4,234973,234970.94,234987.6,239555,239555,2023-06-24T23:11:39Z,239559.38,Schüler,mwanafunzi,d,mwekezaji,matumizi,uaminifu,mwanafunzi,NA,NA,"c(""distractor1"", ""distractor2"", ""distractor3"")",NA,NA,NA,NA,NA,NA,NA,NA,NA,NA,NA,NA,NA,NA,NA,NA,NA,NA,NA
97f6c,Save data screen,canvas.Screen,2_9_0_1,NA,NA,timeout,499.89999999999,239557,239553.46,239559.38,240042.62,240043,2023-06-24T23:11:39Z,240059.28,Schüler,mwanafunzi,d,mwekezaji,matumizi,uaminifu,NA,NA,1,"c(""distractor1"", ""distractor2"", ""distractor3"")",NA,NA,NA,NA,NA,NA,NA,NA,NA,NA,NA,NA,NA,NA,NA,NA,NA,NA,NA
97f6c,shallow,flow.Sequence,2_9_0,NA,NA,completion,5055.02,234973,234970.94,234987.6,240042.62,240044,2023-06-24T23:11:39Z,240059.28,Schüler,mwanafunzi,d,mwekezaji,matumizi,uaminifu,NA,NA,NA,"c(""distractor1"", ""distractor2"", ""distractor3"")",NA,NA,NA,NA,NA,NA,NA,NA,NA,NA,NA,NA,NA,NA,NA,NA,NA,NA,NA
97f6c,task,flow.Sequence,2_9,NA,NA,completion,5055.02,234973,234970.94,234987.6,240042.62,240044,2023-06-24T23:11:39Z,240059.28,Schüler,mwanafunzi,d,mwekezaji,matumizi,uaminifu,NA,NA,NA,"c(""distractor1"", ""distractor2"", ""distractor3"")",NA,NA,NA,NA,NA,NA,NA,NA,NA,NA,NA,NA,NA,NA,NA,NA,NA,NA,NA
97f6c,Shallow Question,html.Page,2_10_0_0,NA,NA,form submission,17263.72,240044,240042.62,240059.28,257323,257323,2023-06-24T23:11:57Z,257327.76,Ergänzung,kijalizo,s,ulaghai,mustarehe,matangazo,kijalizo,NA,NA,"c(""distractor1"", ""distractor2"", ""distractor3"")",NA,NA,NA,NA,NA,NA,NA,NA,NA,NA,NA,NA,NA,NA,NA,NA,NA,NA,NA
97f6c,Save data screen,canvas.Screen,2_10_0_1,NA,NA,timeout,499.88,257325,257321.86,257327.76,257810.96,257812,2023-06-24T23:11:57Z,257827.64,Ergänzung,kijalizo,s,ulaghai,mustarehe,matangazo,NA,NA,1,"c(""distractor1"", ""distractor2"", ""distractor3"")",NA,NA,NA,NA,NA,NA,NA,NA,NA,NA,NA,NA,NA,NA,NA,NA,NA,NA,NA
97f6c,shallow,flow.Sequence,2_10_0,NA,NA,completion,17751.68,240044,240042.62,240059.28,257810.96,257812,2023-06-24T23:11:57Z,257827.64,Ergänzung,kijalizo,s,ulaghai,mustarehe,matangazo,NA,NA,NA,"c(""distractor1"", ""distractor2"", ""distractor3"")",NA,NA,NA,NA,NA,NA,NA,NA,NA,NA,NA,NA,NA,NA,NA,NA,NA,NA,NA
97f6c,task,flow.Sequence,2_10,NA,NA,completion,17751.68,240044,240042.62,240059.28,257810.96,257813,2023-06-24T23:11:57Z,257827.64,Ergänzung,kijalizo,s,ulaghai,mustarehe,matangazo,NA,NA,NA,"c(""distractor1"", ""distractor2"", ""distractor3"")",NA,NA,NA,NA,NA,NA,NA,NA,NA,NA,NA,NA,NA,NA,NA,NA,NA,NA,NA
97f6c,Shallow Question,html.Page,2_11_0_0,NA,NA,form submission,9589.36,257813,257810.96,257827.64,267417,267417,2023-06-24T23:12:07Z,267421.1,Toleranz,kuvumiliana,s,maombolezo,ujasusi,mchekeshaji,kuvumiliana,NA,NA,"c(""distractor1"", ""distractor2"", ""distractor3"")",NA,NA,NA,NA,NA,NA,NA,NA,NA,NA,NA,NA,NA,NA,NA,NA,NA,NA,NA
97f6c,Save data screen,canvas.Screen,2_11_0_1,NA,NA,timeout,499.88,267419,267415.2,267421.1,267904.3,267905,2023-06-24T23:12:07Z,267920.98,Toleranz,kuvumiliana,s,maombolezo,ujasusi,mchekeshaji,NA,NA,1,"c(""distractor1"", ""distractor2"", ""distractor3"")",NA,NA,NA,NA,NA,NA,NA,NA,NA,NA,NA,NA,NA,NA,NA,NA,NA,NA,NA
97f6c,shallow,flow.Sequence,2_11_0,NA,NA,completion,10076.66,257813,257810.96,257827.64,267904.3,267906,2023-06-24T23:12:07Z,267920.98,Toleranz,kuvumiliana,s,maombolezo,ujasusi,mchekeshaji,NA,NA,NA,"c(""distractor1"", ""distractor2"", ""distractor3"")",NA,NA,NA,NA,NA,NA,NA,NA,NA,NA,NA,NA,NA,NA,NA,NA,NA,NA,NA
97f6c,task,flow.Sequence,2_11,NA,NA,completion,10076.66,257813,257810.96,257827.64,267904.3,267906,2023-06-24T23:12:07Z,267920.98,Toleranz,kuvumiliana,s,maombolezo,ujasusi,mchekeshaji,NA,NA,NA,"c(""distractor1"", ""distractor2"", ""distractor3"")",NA,NA,NA,NA,NA,NA,NA,NA,NA,NA,NA,NA,NA,NA,NA,NA,NA,NA,NA
97f6c,Shallow Question,html.Page,2_12_0_0,NA,NA,form submission,3444.02,267907,267904.3,267920.98,271365,271372,2023-06-24T23:12:11Z,271384.4,Schock,mshtuko,s,biashara,kukataza,vichekesho,mshtuko,NA,NA,"c(""distractor1"", ""distractor2"", ""distractor3"")",NA,NA,NA,NA,NA,NA,NA,NA,NA,NA,NA,NA,NA,NA,NA,NA,NA,NA,NA
97f6c,Save data screen,canvas.Screen,2_12_0_1,NA,NA,timeout,499.91999999998,271386,271361.88,271384.4,271867.66,271869,2023-06-24T23:12:11Z,271884.32,Schock,mshtuko,s,biashara,kukataza,vichekesho,NA,NA,1,"c(""distractor1"", ""distractor2"", ""distractor3"")",NA,NA,NA,NA,NA,NA,NA,NA,NA,NA,NA,NA,NA,NA,NA,NA,NA,NA,NA
97f6c,shallow,flow.Sequence,2_12_0,NA,NA,completion,3946.68,267907,267904.3,267920.98,271867.66,271870,2023-06-24T23:12:11Z,271884.32,Schock,mshtuko,s,biashara,kukataza,vichekesho,NA,NA,NA,"c(""distractor1"", ""distractor2"", ""distractor3"")",NA,NA,NA,NA,NA,NA,NA,NA,NA,NA,NA,NA,NA,NA,NA,NA,NA,NA,NA
97f6c,task,flow.Sequence,2_12,NA,NA,completion,3946.68,267907,267904.3,267920.98,271867.66,271870,2023-06-24T23:12:11Z,271884.32,Schock,mshtuko,s,biashara,kukataza,vichekesho,NA,NA,NA,"c(""distractor1"", ""distractor2"", ""distractor3"")",NA,NA,NA,NA,NA,NA,NA,NA,NA,NA,NA,NA,NA,NA,NA,NA,NA,NA,NA
97f6c,Shallow Question,html.Page,2_13_0_0,NA,NA,form submission,8565.68,271871,271867.66,271884.32,280450,280450,2023-06-24T23:12:20Z,280448.66,Inhalt,yaliyomo,d,kishawishi,hifadhi,kutembea,yaliyomo,NA,NA,"c(""distractor1"", ""distractor2"", ""distractor3"")",NA,NA,NA,NA,NA,NA,NA,NA,NA,NA,NA,NA,NA,NA,NA,NA,NA,NA,NA
97f6c,Save data screen,canvas.Screen,2_13_0_1,NA,NA,timeout,505.58000000002,280452,280448.46,280448.66,280937.58,280939,2023-06-24T23:12:20Z,280954.24,Inhalt,yaliyomo,d,kishawishi,hifadhi,kutembea,NA,NA,1,"c(""distractor1"", ""distractor2"", ""distractor3"")",NA,NA,NA,NA,NA,NA,NA,NA,NA,NA,NA,NA,NA,NA,NA,NA,NA,NA,NA
97f6c,shallow,flow.Sequence,2_13_0,NA,NA,completion,9053.26,271871,271867.66,271884.32,280937.58,280940,2023-06-24T23:12:20Z,280954.24,Inhalt,yaliyomo,d,kishawishi,hifadhi,kutembea,NA,NA,NA,"c(""distractor1"", ""distractor2"", ""distractor3"")",NA,NA,NA,NA,NA,NA,NA,NA,NA,NA,NA,NA,NA,NA,NA,NA,NA,NA,NA
97f6c,task,flow.Sequence,2_13,NA,NA,completion,9053.26,271871,271867.66,271884.32,280937.58,280940,2023-06-24T23:12:20Z,280954.24,Inhalt,yaliyomo,d,kishawishi,hifadhi,kutembea,NA,NA,NA,"c(""distractor1"", ""distractor2"", ""distractor3"")",NA,NA,NA,NA,NA,NA,NA,NA,NA,NA,NA,NA,NA,NA,NA,NA,NA,NA,NA
97f6c,Shallow Question,html.Page,2_14_0_0,NA,NA,form submission,19623.76,280941,280937.58,280954.24,300578,300578,2023-06-24T23:12:40Z,300581.28,Hoffnung,matarajio,d,kutaalamika,uratibu,mvumbuzi,matarajio,NA,NA,"c(""distractor1"", ""distractor2"", ""distractor3"")",NA,NA,NA,NA,NA,NA,NA,NA,NA,NA,NA,NA,NA,NA,NA,NA,NA,NA,NA
97f6c,Save data screen,canvas.Screen,2_14_0_1,NA,NA,timeout,499.87999999995,300581,300575.32,300581.28,301064.5,301065,2023-06-24T23:12:40Z,301081.16,Hoffnung,matarajio,d,kutaalamika,uratibu,mvumbuzi,NA,NA,1,"c(""distractor1"", ""distractor2"", ""distractor3"")",NA,NA,NA,NA,NA,NA,NA,NA,NA,NA,NA,NA,NA,NA,NA,NA,NA,NA,NA
97f6c,shallow,flow.Sequence,2_14_0,NA,NA,completion,20110.26,280940,280937.58,280954.24,301064.5,301067,2023-06-24T23:12:40Z,301081.16,Hoffnung,matarajio,d,kutaalamika,uratibu,mvumbuzi,NA,NA,NA,"c(""distractor1"", ""distractor2"", ""distractor3"")",NA,NA,NA,NA,NA,NA,NA,NA,NA,NA,NA,NA,NA,NA,NA,NA,NA,NA,NA
97f6c,task,flow.Sequence,2_14,NA,NA,completion,20110.26,280940,280937.58,280954.24,301064.5,301067,2023-06-24T23:12:40Z,301081.16,Hoffnung,matarajio,d,kutaalamika,uratibu,mvumbuzi,NA,NA,NA,"c(""distractor1"", ""distractor2"", ""distractor3"")",NA,NA,NA,NA,NA,NA,NA,NA,NA,NA,NA,NA,NA,NA,NA,NA,NA,NA,NA
97f6c,Shallow Question,html.Page,2_15_0_0,NA,NA,form submission,3627.84,301070,301064.5,301081.16,304709,304710,2023-06-24T23:12:44Z,304713.66,Tester,wanaojaribu,d,sherti,sihiri,mlipuko,wanaojaribu,NA,NA,"c(""distractor1"", ""distractor2"", ""distractor3"")",NA,NA,NA,NA,NA,NA,NA,NA,NA,NA,NA,NA,NA,NA,NA,NA,NA,NA,NA
97f6c,Save data screen,canvas.Screen,2_15_0_1,NA,NA,timeout,499.88,304712,304707.72,304713.66,305196.88,305198,2023-06-24T23:12:45Z,305213.54,Tester,wanaojaribu,d,sherti,sihiri,mlipuko,NA,NA,1,"c(""distractor1"", ""distractor2"", ""distractor3"")",NA,NA,NA,NA,NA,NA,NA,NA,NA,NA,NA,NA,NA,NA,NA,NA,NA,NA,NA
97f6c,shallow,flow.Sequence,2_15_0,NA,NA,completion,4115.72,301068,301064.5,301081.16,305196.88,305198,2023-06-24T23:12:45Z,305213.54,Tester,wanaojaribu,d,sherti,sihiri,mlipuko,NA,NA,NA,"c(""distractor1"", ""distractor2"", ""distractor3"")",NA,NA,NA,NA,NA,NA,NA,NA,NA,NA,NA,NA,NA,NA,NA,NA,NA,NA,NA
97f6c,task,flow.Sequence,2_15,NA,NA,completion,4115.72,301068,301064.5,301081.16,305196.88,305198,2023-06-24T23:12:45Z,305213.54,Tester,wanaojaribu,d,sherti,sihiri,mlipuko,NA,NA,NA,"c(""distractor1"", ""distractor2"", ""distractor3"")",NA,NA,NA,NA,NA,NA,NA,NA,NA,NA,NA,NA,NA,NA,NA,NA,NA,NA,NA
97f6c,retrieval block 2 (multiple choice),flow.Loop,2,NA,NA,completion,150066.86,155116,155113.34,155130.02,305196.88,305199,2023-06-24T23:12:45Z,305213.54,NA,NA,NA,NA,NA,NA,NA,NA,NA,"c(""distractor1"", ""distractor2"", ""distractor3"")",NA,NA,NA,NA,NA,NA,NA,NA,NA,NA,NA,NA,NA,NA,NA,NA,NA,NA,NA
97f6c,End,canvas.Screen,3,NA,keypress(Space),response,1182.46,305200,305196.88,305213.54,306396,306410,2023-06-24T23:12:46Z,306411.32,NA,NA,NA,NA,NA,NA,NA,NA,NA,NULL,NA,NA,NA,NA,NA,NA,NA,NA,NA,NA,NA,NA,NA,NA,NA,NA,NA,NA,NA
97f6c,root,flow.Sequence,NA,NA,NA,completion,304981.66,1346,1347.68,1414.34,306396,306410,2023-06-24T23:12:46Z,306411.32,NA,NA,NA,NA,NA,NA,NA,NA,NA,NULL,NA,NA,NA,NA,NA,NA,NA,NA,NA,NA,NA,NA,NA,NA,NA,NA,NA,NA,NA
