observation,sender,sender_type,sender_id,response,response_action,ended_on,duration,time_run,time_render,time_show,time_end,time_commit,timestamp,time_switch,german,swahili,enc,distractor1,distractor2,distractor3,response_2,x,correct,distractors,url_vp,url_sess,meta_labjs_version,meta_location,meta_user_agent,meta_platform,meta_language,meta_locale,meta_time_zone,meta_timezone_offset,meta_screen_width,meta_screen_height,meta_scroll_width,meta_scroll_height,meta_window_inner_width,meta_window_inner_height,meta_device_pixel_ratio,meta_labjs_build_flavor,meta_labjs_build_commit
ac3c1,Introduction delayed retrieval,canvas.Screen,0,weiter,keypress(Space),response,31572,1206,1228,1278,32850,32863,2023-05-17T09:22:02Z,32872.12,NA,NA,NA,NA,NA,NA,NA,NA,NA,NULL,216,2,20.2.4,https://neurocog.fernuni.ch/studies/vweber/sfink/delayed/index.html?vp=216&sess=2,Mozilla/5.0 (Windows NT 10.0; Win64; x64; rv:109.0) Gecko/20100101 Firefox/113.0,Win32,de,de-CH,Europe/Zurich,-120,1280,720,1280,549,1280,549,2,production,f5b4a49f956347addd546a832a3327688c2c0fef
ac3c1,Deep Question,html.Page,1_0_0_0,NA,NA,form submission,3963.88,32871,32871.48,32872.12,36836,36837,2023-05-17T09:22:06Z,36854.54,Kanzler,diwani,s,rasilmali,mahitaji,maabudu,diwani,NA,NA,NULL,NA,NA,NA,NA,NA,NA,NA,NA,NA,NA,NA,NA,NA,NA,NA,NA,NA,NA,NA
ac3c1,Save data screen,canvas.Screen,1_0_0_1,NA,NA,timeout,499.86,36850,36832.34,36854.54,37337.86,37339,2023-05-17T09:22:07Z,37354.4,Kanzler,diwani,s,rasilmali,mahitaji,maabudu,NA,NA,1,NULL,NA,NA,NA,NA,NA,NA,NA,NA,NA,NA,NA,NA,NA,NA,NA,NA,NA,NA,NA
ac3c1,deep,flow.Sequence,1_0_0,NA,NA,completion,4465.74,32870,32871.48,32872.12,37337.86,37342,2023-05-17T09:22:07Z,37354.4,Kanzler,diwani,s,rasilmali,mahitaji,maabudu,NA,NA,NA,NULL,NA,NA,NA,NA,NA,NA,NA,NA,NA,NA,NA,NA,NA,NA,NA,NA,NA,NA,NA
ac3c1,task,flow.Sequence,1_0,NA,NA,completion,4465.74,32869,32871.48,32872.12,37337.86,37343,2023-05-17T09:22:07Z,37354.4,Kanzler,diwani,s,rasilmali,mahitaji,maabudu,NA,NA,NA,NULL,NA,NA,NA,NA,NA,NA,NA,NA,NA,NA,NA,NA,NA,NA,NA,NA,NA,NA,NA
ac3c1,Deep Question,html.Page,1_1_0_0,NA,NA,form submission,7747.6,37345,37337.86,37354.4,45102,45103,2023-05-17T09:22:15Z,45119.6,Verzögerung,kuchelewa,s,mwakilishi,mwanauchumi,jaribio,d,NA,NA,NULL,NA,NA,NA,NA,NA,NA,NA,NA,NA,NA,NA,NA,NA,NA,NA,NA,NA,NA,NA
ac3c1,Save data screen,canvas.Screen,1_1_0_1,NA,NA,timeout,499.98,45115,45099.48,45119.6,45602.98,45605,2023-05-17T09:22:15Z,45619.58,Verzögerung,kuchelewa,s,mwakilishi,mwanauchumi,jaribio,NA,NA,0,NULL,NA,NA,NA,NA,NA,NA,NA,NA,NA,NA,NA,NA,NA,NA,NA,NA,NA,NA,NA
ac3c1,deep,flow.Sequence,1_1_0,NA,NA,completion,8248.58,37345,37337.86,37354.4,45602.98,45607,2023-05-17T09:22:15Z,45619.58,Verzögerung,kuchelewa,s,mwakilishi,mwanauchumi,jaribio,NA,NA,NA,NULL,NA,NA,NA,NA,NA,NA,NA,NA,NA,NA,NA,NA,NA,NA,NA,NA,NA,NA,NA
ac3c1,task,flow.Sequence,1_1,NA,NA,completion,8248.58,37344,37337.86,37354.4,45602.98,45608,2023-05-17T09:22:15Z,45619.58,Verzögerung,kuchelewa,s,mwakilishi,mwanauchumi,jaribio,NA,NA,NA,NULL,NA,NA,NA,NA,NA,NA,NA,NA,NA,NA,NA,NA,NA,NA,NA,NA,NA,NA,NA
ac3c1,Deep Question,html.Page,1_2_0_0,NA,NA,form submission,24877.42,45610,45602.98,45619.58,70497,70499,2023-05-17T09:22:40Z,70514.82,Kreativität,ubunifu,d,mratibu,mwendelezo,makubaliano,j,NA,NA,NULL,NA,NA,NA,NA,NA,NA,NA,NA,NA,NA,NA,NA,NA,NA,NA,NA,NA,NA,NA
ac3c1,Save data screen,canvas.Screen,1_2_0_1,NA,NA,timeout,499.89999999999,70505,70494.46,70514.82,70998.06,71001,2023-05-17T09:22:41Z,71014.72,Kreativität,ubunifu,d,mratibu,mwendelezo,makubaliano,NA,NA,0,NULL,NA,NA,NA,NA,NA,NA,NA,NA,NA,NA,NA,NA,NA,NA,NA,NA,NA,NA,NA
ac3c1,deep,flow.Sequence,1_2_0,NA,NA,completion,25378.48,45609,45602.98,45619.58,70998.06,71002,2023-05-17T09:22:41Z,71014.72,Kreativität,ubunifu,d,mratibu,mwendelezo,makubaliano,NA,NA,NA,NULL,NA,NA,NA,NA,NA,NA,NA,NA,NA,NA,NA,NA,NA,NA,NA,NA,NA,NA,NA
ac3c1,task,flow.Sequence,1_2,NA,NA,completion,25378.48,45609,45602.98,45619.58,70998.06,71003,2023-05-17T09:22:41Z,71014.72,Kreativität,ubunifu,d,mratibu,mwendelezo,makubaliano,NA,NA,NA,NULL,NA,NA,NA,NA,NA,NA,NA,NA,NA,NA,NA,NA,NA,NA,NA,NA,NA,NA,NA
ac3c1,Deep Question,html.Page,1_3_0_0,NA,NA,form submission,2319.28,71008,70998.06,71014.72,73334,73338,2023-05-17T09:22:43Z,73364.22,Lawine,banguko,d,maambukizi,usuluhishi,chekechea,j,NA,NA,NULL,NA,NA,NA,NA,NA,NA,NA,NA,NA,NA,NA,NA,NA,NA,NA,NA,NA,NA,NA
ac3c1,Save data screen,canvas.Screen,1_3_0_1,NA,NA,timeout,499.95999999999,73355,73326.86,73364.22,73847.52,73851,2023-05-17T09:22:43Z,73864.18,Lawine,banguko,d,maambukizi,usuluhishi,chekechea,NA,NA,0,NULL,NA,NA,NA,NA,NA,NA,NA,NA,NA,NA,NA,NA,NA,NA,NA,NA,NA,NA,NA
ac3c1,deep,flow.Sequence,1_3_0,NA,NA,completion,2832.8,71008,70998.06,71014.72,73847.52,73853,2023-05-17T09:22:43Z,73864.18,Lawine,banguko,d,maambukizi,usuluhishi,chekechea,NA,NA,NA,NULL,NA,NA,NA,NA,NA,NA,NA,NA,NA,NA,NA,NA,NA,NA,NA,NA,NA,NA,NA
ac3c1,task,flow.Sequence,1_3,NA,NA,completion,2832.8,71004,70998.06,71014.72,73847.52,73854,2023-05-17T09:22:43Z,73864.18,Lawine,banguko,d,maambukizi,usuluhishi,chekechea,NA,NA,NA,NULL,NA,NA,NA,NA,NA,NA,NA,NA,NA,NA,NA,NA,NA,NA,NA,NA,NA,NA,NA
ac3c1,Deep Question,html.Page,1_4_0_0,NA,NA,form submission,1527.82,73856,73847.52,73864.18,75392,75393,2023-05-17T09:22:45Z,75397.2,Übersicht,kilindo,s,mgusano,chipukizi,kulinganisha,j,NA,NA,NULL,NA,NA,NA,NA,NA,NA,NA,NA,NA,NA,NA,NA,NA,NA,NA,NA,NA,NA,NA
ac3c1,Save data screen,canvas.Screen,1_4_0_1,NA,NA,timeout,499.94,75403,75389.06,75397.2,75880.48,75883,2023-05-17T09:22:45Z,75897.14,Übersicht,kilindo,s,mgusano,chipukizi,kulinganisha,NA,NA,0,NULL,NA,NA,NA,NA,NA,NA,NA,NA,NA,NA,NA,NA,NA,NA,NA,NA,NA,NA,NA
ac3c1,deep,flow.Sequence,1_4_0,NA,NA,completion,2016.3,73856,73847.52,73864.18,75880.48,75884,2023-05-17T09:22:45Z,75897.14,Übersicht,kilindo,s,mgusano,chipukizi,kulinganisha,NA,NA,NA,NULL,NA,NA,NA,NA,NA,NA,NA,NA,NA,NA,NA,NA,NA,NA,NA,NA,NA,NA,NA
ac3c1,task,flow.Sequence,1_4,NA,NA,completion,2016.3,73855,73847.52,73864.18,75880.48,75886,2023-05-17T09:22:45Z,75897.14,Übersicht,kilindo,s,mgusano,chipukizi,kulinganisha,NA,NA,NA,NULL,NA,NA,NA,NA,NA,NA,NA,NA,NA,NA,NA,NA,NA,NA,NA,NA,NA,NA,NA
ac3c1,Deep Question,html.Page,1_5_0_0,NA,NA,form submission,8234.86,75887,75880.48,75897.14,84132,84133,2023-05-17T09:22:54Z,84145.56,Körper,kiwiliwili,s,mapambano,mpatanishi,kiolezo,kiwiliwili,NA,NA,NULL,NA,NA,NA,NA,NA,NA,NA,NA,NA,NA,NA,NA,NA,NA,NA,NA,NA,NA,NA
ac3c1,Save data screen,canvas.Screen,1_5_0_1,NA,NA,timeout,499.88,84141,84127.32,84145.56,84628.88,84631,2023-05-17T09:22:54Z,84645.44,Körper,kiwiliwili,s,mapambano,mpatanishi,kiolezo,NA,NA,1,NULL,NA,NA,NA,NA,NA,NA,NA,NA,NA,NA,NA,NA,NA,NA,NA,NA,NA,NA,NA
ac3c1,deep,flow.Sequence,1_5_0,NA,NA,completion,8731.74,75886,75880.48,75897.14,84628.88,84634,2023-05-17T09:22:54Z,84645.44,Körper,kiwiliwili,s,mapambano,mpatanishi,kiolezo,NA,NA,NA,NULL,NA,NA,NA,NA,NA,NA,NA,NA,NA,NA,NA,NA,NA,NA,NA,NA,NA,NA,NA
ac3c1,task,flow.Sequence,1_5,NA,NA,completion,8731.74,75886,75880.48,75897.14,84628.88,84635,2023-05-17T09:22:54Z,84645.44,Körper,kiwiliwili,s,mapambano,mpatanishi,kiolezo,NA,NA,NA,NULL,NA,NA,NA,NA,NA,NA,NA,NA,NA,NA,NA,NA,NA,NA,NA,NA,NA,NA,NA
ac3c1,Deep Question,html.Page,1_6_0_0,NA,NA,form submission,1587.56,84636,84628.88,84645.44,86233,86234,2023-05-17T09:22:56Z,86245.12,System,maongozi,d,chokochoko,nuksani,mitaani,k,NA,NA,NULL,NA,NA,NA,NA,NA,NA,NA,NA,NA,NA,NA,NA,NA,NA,NA,NA,NA,NA,NA
ac3c1,Save data screen,canvas.Screen,1_6_0_1,NA,NA,timeout,499.92,86238,86229.36,86245.12,86728.62,86731,2023-05-17T09:22:56Z,86745.04,System,maongozi,d,chokochoko,nuksani,mitaani,NA,NA,0,NULL,NA,NA,NA,NA,NA,NA,NA,NA,NA,NA,NA,NA,NA,NA,NA,NA,NA,NA,NA
ac3c1,deep,flow.Sequence,1_6_0,NA,NA,completion,2083.18,84636,84628.88,84645.44,86728.62,86731,2023-05-17T09:22:56Z,86745.04,System,maongozi,d,chokochoko,nuksani,mitaani,NA,NA,NA,NULL,NA,NA,NA,NA,NA,NA,NA,NA,NA,NA,NA,NA,NA,NA,NA,NA,NA,NA,NA
ac3c1,task,flow.Sequence,1_6,NA,NA,completion,2083.18,84635,84628.88,84645.44,86728.62,86732,2023-05-17T09:22:56Z,86745.04,System,maongozi,d,chokochoko,nuksani,mitaani,NA,NA,NA,NULL,NA,NA,NA,NA,NA,NA,NA,NA,NA,NA,NA,NA,NA,NA,NA,NA,NA,NA,NA
ac3c1,Deep Question,html.Page,1_7_0_0,NA,NA,form submission,14704.96,86732,86728.62,86745.04,101450,101452,2023-05-17T09:23:11Z,101458.84,Gefährdung,kuhatarisha,s,uchokozi,udhaifu,makorowezo,mshinguaji,NA,NA,NULL,NA,NA,NA,NA,NA,NA,NA,NA,NA,NA,NA,NA,NA,NA,NA,NA,NA,NA,NA
ac3c1,Save data screen,canvas.Screen,1_7_0_1,NA,NA,timeout,500,101459,101446.86,101458.84,101942.18,101944,2023-05-17T09:23:12Z,101958.84,Gefährdung,kuhatarisha,s,uchokozi,udhaifu,makorowezo,NA,NA,0,NULL,NA,NA,NA,NA,NA,NA,NA,NA,NA,NA,NA,NA,NA,NA,NA,NA,NA,NA,NA
ac3c1,deep,flow.Sequence,1_7_0,NA,NA,completion,15197.14,86732,86728.62,86745.04,101942.18,101945,2023-05-17T09:23:12Z,101958.84,Gefährdung,kuhatarisha,s,uchokozi,udhaifu,makorowezo,NA,NA,NA,NULL,NA,NA,NA,NA,NA,NA,NA,NA,NA,NA,NA,NA,NA,NA,NA,NA,NA,NA,NA
ac3c1,task,flow.Sequence,1_7,NA,NA,completion,15197.14,86732,86728.62,86745.04,101942.18,101946,2023-05-17T09:23:12Z,101958.84,Gefährdung,kuhatarisha,s,uchokozi,udhaifu,makorowezo,NA,NA,NA,NULL,NA,NA,NA,NA,NA,NA,NA,NA,NA,NA,NA,NA,NA,NA,NA,NA,NA,NA,NA
ac3c1,Deep Question,html.Page,1_8_0_0,NA,NA,form submission,9486.16,101947,101942.18,101958.84,111445,111445,2023-05-17T09:23:21Z,111456.96,Aufstand,ugomaji,d,mazidio,msingi,kujieleza,mshinguaji,NA,NA,NULL,NA,NA,NA,NA,NA,NA,NA,NA,NA,NA,NA,NA,NA,NA,NA,NA,NA,NA,NA
ac3c1,Save data screen,canvas.Screen,1_8_0_1,NA,NA,timeout,499.98,111450,111441.54,111456.96,111940.26,111948,2023-05-17T09:23:22Z,111956.94,Aufstand,ugomaji,d,mazidio,msingi,kujieleza,NA,NA,0,NULL,NA,NA,NA,NA,NA,NA,NA,NA,NA,NA,NA,NA,NA,NA,NA,NA,NA,NA,NA
ac3c1,deep,flow.Sequence,1_8_0,NA,NA,completion,9981.42,101947,101942.18,101958.84,111940.26,111956,2023-05-17T09:23:22Z,111956.94,Aufstand,ugomaji,d,mazidio,msingi,kujieleza,NA,NA,NA,NULL,NA,NA,NA,NA,NA,NA,NA,NA,NA,NA,NA,NA,NA,NA,NA,NA,NA,NA,NA
ac3c1,task,flow.Sequence,1_8,NA,NA,completion,9981.42,101946,101942.18,101958.84,111940.26,111960,2023-05-17T09:23:22Z,111956.94,Aufstand,ugomaji,d,mazidio,msingi,kujieleza,NA,NA,NA,NULL,NA,NA,NA,NA,NA,NA,NA,NA,NA,NA,NA,NA,NA,NA,NA,NA,NA,NA,NA
ac3c1,Deep Question,html.Page,1_9_0_0,NA,NA,form submission,1676.06,111961,111940.26,111956.94,113633,113635,2023-05-17T09:23:23Z,113656.5,Kultur,utamaduni,s,shetani,gerezani,mazingira,j,NA,NA,NULL,NA,NA,NA,NA,NA,NA,NA,NA,NA,NA,NA,NA,NA,NA,NA,NA,NA,NA,NA
ac3c1,Save data screen,canvas.Screen,1_9_0_1,NA,NA,timeout,499.98,113648,113629.12,113656.5,114139.82,114143,2023-05-17T09:23:24Z,114156.48,Kultur,utamaduni,s,shetani,gerezani,mazingira,NA,NA,0,NULL,NA,NA,NA,NA,NA,NA,NA,NA,NA,NA,NA,NA,NA,NA,NA,NA,NA,NA,NA
ac3c1,deep,flow.Sequence,1_9_0,NA,NA,completion,2182.88,111961,111940.26,111956.94,114139.82,114144,2023-05-17T09:23:24Z,114156.48,Kultur,utamaduni,s,shetani,gerezani,mazingira,NA,NA,NA,NULL,NA,NA,NA,NA,NA,NA,NA,NA,NA,NA,NA,NA,NA,NA,NA,NA,NA,NA,NA
ac3c1,task,flow.Sequence,1_9,NA,NA,completion,2182.88,111961,111940.26,111956.94,114139.82,114145,2023-05-17T09:23:24Z,114156.48,Kultur,utamaduni,s,shetani,gerezani,mazingira,NA,NA,NA,NULL,NA,NA,NA,NA,NA,NA,NA,NA,NA,NA,NA,NA,NA,NA,NA,NA,NA,NA,NA
ac3c1,Deep Question,html.Page,1_10_0_0,NA,NA,form submission,3566.52,114146,114139.82,114156.48,117723,117724,2023-05-17T09:23:27Z,117739.1,Sänger,mwimbaji,d,msichana,shughuli,mshirika,j,NA,NA,NULL,NA,NA,NA,NA,NA,NA,NA,NA,NA,NA,NA,NA,NA,NA,NA,NA,NA,NA,NA
ac3c1,Save data screen,canvas.Screen,1_10_0_1,NA,NA,timeout,499.92,117733,117719.52,117739.1,118222.42,118225,2023-05-17T09:23:28Z,118239.02,Sänger,mwimbaji,d,msichana,shughuli,mshirika,NA,NA,0,NULL,NA,NA,NA,NA,NA,NA,NA,NA,NA,NA,NA,NA,NA,NA,NA,NA,NA,NA,NA
ac3c1,deep,flow.Sequence,1_10_0,NA,NA,completion,4065.94,114146,114139.82,114156.48,118222.42,118226,2023-05-17T09:23:28Z,118239.02,Sänger,mwimbaji,d,msichana,shughuli,mshirika,NA,NA,NA,NULL,NA,NA,NA,NA,NA,NA,NA,NA,NA,NA,NA,NA,NA,NA,NA,NA,NA,NA,NA
ac3c1,task,flow.Sequence,1_10,NA,NA,completion,4065.94,114146,114139.82,114156.48,118222.42,118227,2023-05-17T09:23:28Z,118239.02,Sänger,mwimbaji,d,msichana,shughuli,mshirika,NA,NA,NA,NULL,NA,NA,NA,NA,NA,NA,NA,NA,NA,NA,NA,NA,NA,NA,NA,NA,NA,NA,NA
ac3c1,Deep Question,html.Page,1_11_0_0,NA,NA,form submission,6699.98,118230,118222.42,118239.02,124939,124939,2023-05-17T09:23:35Z,124954.26,Kontrolle,kudhibiti,s,mbinguni,kufunga,utegemezi,j,NA,NA,NULL,NA,NA,NA,NA,NA,NA,NA,NA,NA,NA,NA,NA,NA,NA,NA,NA,NA,NA,NA
ac3c1,Save data screen,canvas.Screen,1_11_0_1,NA,NA,timeout,500.04000000001,124944,124934.4,124954.26,125437.64,125440,2023-05-17T09:23:35Z,125454.3,Kontrolle,kudhibiti,s,mbinguni,kufunga,utegemezi,NA,NA,0,NULL,NA,NA,NA,NA,NA,NA,NA,NA,NA,NA,NA,NA,NA,NA,NA,NA,NA,NA,NA
ac3c1,deep,flow.Sequence,1_11_0,NA,NA,completion,7198.62,118229,118222.42,118239.02,125437.64,125441,2023-05-17T09:23:35Z,125454.3,Kontrolle,kudhibiti,s,mbinguni,kufunga,utegemezi,NA,NA,NA,NULL,NA,NA,NA,NA,NA,NA,NA,NA,NA,NA,NA,NA,NA,NA,NA,NA,NA,NA,NA
ac3c1,task,flow.Sequence,1_11,NA,NA,completion,7198.62,118229,118222.42,118239.02,125437.64,125441,2023-05-17T09:23:35Z,125454.3,Kontrolle,kudhibiti,s,mbinguni,kufunga,utegemezi,NA,NA,NA,NULL,NA,NA,NA,NA,NA,NA,NA,NA,NA,NA,NA,NA,NA,NA,NA,NA,NA,NA,NA
ac3c1,Deep Question,html.Page,1_12_0_0,NA,NA,form submission,1869.7,125442,125437.64,125454.3,127324,127325,2023-05-17T09:23:37Z,127337.26,Prüfung,mtihani,d,mkulima,mtizamo,ufumbuzi,j,NA,NA,NULL,NA,NA,NA,NA,NA,NA,NA,NA,NA,NA,NA,NA,NA,NA,NA,NA,NA,NA,NA
ac3c1,Save data screen,canvas.Screen,1_12_0_1,NA,NA,timeout,499.84000000001,127330,127321.38,127337.26,127820.44,127822,2023-05-17T09:23:37Z,127837.1,Prüfung,mtihani,d,mkulima,mtizamo,ufumbuzi,NA,NA,0,NULL,NA,NA,NA,NA,NA,NA,NA,NA,NA,NA,NA,NA,NA,NA,NA,NA,NA,NA,NA
ac3c1,deep,flow.Sequence,1_12_0,NA,NA,completion,2366.14,125442,125437.64,125454.3,127820.44,127823,2023-05-17T09:23:37Z,127837.1,Prüfung,mtihani,d,mkulima,mtizamo,ufumbuzi,NA,NA,NA,NULL,NA,NA,NA,NA,NA,NA,NA,NA,NA,NA,NA,NA,NA,NA,NA,NA,NA,NA,NA
ac3c1,task,flow.Sequence,1_12,NA,NA,completion,2366.14,125442,125437.64,125454.3,127820.44,127823,2023-05-17T09:23:37Z,127837.1,Prüfung,mtihani,d,mkulima,mtizamo,ufumbuzi,NA,NA,NA,NULL,NA,NA,NA,NA,NA,NA,NA,NA,NA,NA,NA,NA,NA,NA,NA,NA,NA,NA,NA
ac3c1,Deep Question,html.Page,1_13_0_0,NA,NA,form submission,61609.9,127824,127820.44,127837.1,189447,189451,2023-05-17T09:24:39Z,189475.38,Können,unaweza,d,kiongozi,bustani,mienendo,wakati,NA,NA,NULL,NA,NA,NA,NA,NA,NA,NA,NA,NA,NA,NA,NA,NA,NA,NA,NA,NA,NA,NA
ac3c1,Save data screen,canvas.Screen,1_13_0_1,NA,NA,timeout,499.97999999998,189469,189440.56,189475.38,189958.7,189962,2023-05-17T09:24:40Z,189975.36,Können,unaweza,d,kiongozi,bustani,mienendo,NA,NA,0,NULL,NA,NA,NA,NA,NA,NA,NA,NA,NA,NA,NA,NA,NA,NA,NA,NA,NA,NA,NA
ac3c1,deep,flow.Sequence,1_13_0,NA,NA,completion,62121.6,127824,127820.44,127837.1,189958.7,189963,2023-05-17T09:24:40Z,189975.36,Können,unaweza,d,kiongozi,bustani,mienendo,NA,NA,NA,NULL,NA,NA,NA,NA,NA,NA,NA,NA,NA,NA,NA,NA,NA,NA,NA,NA,NA,NA,NA
ac3c1,task,flow.Sequence,1_13,NA,NA,completion,62121.6,127824,127820.44,127837.1,189958.7,189965,2023-05-17T09:24:40Z,189975.36,Können,unaweza,d,kiongozi,bustani,mienendo,NA,NA,NA,NULL,NA,NA,NA,NA,NA,NA,NA,NA,NA,NA,NA,NA,NA,NA,NA,NA,NA,NA,NA
ac3c1,Deep Question,html.Page,1_14_0_0,NA,NA,form submission,8444.64,189968,189958.7,189975.36,198420,198421,2023-05-17T09:24:48Z,198440.26,Abrechnung,uhasibu,s,kusahihisha,mpambano,mashambulizi,ua,NA,NA,NULL,NA,NA,NA,NA,NA,NA,NA,NA,NA,NA,NA,NA,NA,NA,NA,NA,NA,NA,NA
ac3c1,Save data screen,canvas.Screen,1_14_0_1,NA,NA,timeout,499.97999999998,198430,198415.98,198440.26,198923.64,198926,2023-05-17T09:24:49Z,198940.24,Abrechnung,uhasibu,s,kusahihisha,mpambano,mashambulizi,NA,NA,0,NULL,NA,NA,NA,NA,NA,NA,NA,NA,NA,NA,NA,NA,NA,NA,NA,NA,NA,NA,NA
ac3c1,deep,flow.Sequence,1_14_0,NA,NA,completion,8948.28,189967,189958.7,189975.36,198923.64,198928,2023-05-17T09:24:49Z,198940.24,Abrechnung,uhasibu,s,kusahihisha,mpambano,mashambulizi,NA,NA,NA,NULL,NA,NA,NA,NA,NA,NA,NA,NA,NA,NA,NA,NA,NA,NA,NA,NA,NA,NA,NA
ac3c1,task,flow.Sequence,1_14,NA,NA,completion,8948.28,189967,189958.7,189975.36,198923.64,198930,2023-05-17T09:24:49Z,198940.24,Abrechnung,uhasibu,s,kusahihisha,mpambano,mashambulizi,NA,NA,NA,NULL,NA,NA,NA,NA,NA,NA,NA,NA,NA,NA,NA,NA,NA,NA,NA,NA,NA,NA,NA
ac3c1,Deep Question,html.Page,1_15_0_0,NA,NA,form submission,20235.76,198932,198923.64,198940.24,219176,219176,2023-05-17T09:25:09Z,219186.36,Angreifer,mshambulizi,d,kitengo,tasinia,usafirishaji,mshinbulizi,NA,NA,NULL,NA,NA,NA,NA,NA,NA,NA,NA,NA,NA,NA,NA,NA,NA,NA,NA,NA,NA,NA
ac3c1,Save data screen,canvas.Screen,1_15_0_1,NA,NA,timeout,499.94,219183,219172.14,219186.36,219669.64,219672,2023-05-17T09:25:09Z,219686.3,Angreifer,mshambulizi,d,kitengo,tasinia,usafirishaji,NA,NA,0,NULL,NA,NA,NA,NA,NA,NA,NA,NA,NA,NA,NA,NA,NA,NA,NA,NA,NA,NA,NA
ac3c1,deep,flow.Sequence,1_15_0,NA,NA,completion,20729.4,198931,198923.64,198940.24,219669.64,219674,2023-05-17T09:25:09Z,219686.3,Angreifer,mshambulizi,d,kitengo,tasinia,usafirishaji,NA,NA,NA,NULL,NA,NA,NA,NA,NA,NA,NA,NA,NA,NA,NA,NA,NA,NA,NA,NA,NA,NA,NA
ac3c1,task,flow.Sequence,1_15,NA,NA,completion,20729.4,198930,198923.64,198940.24,219669.64,219675,2023-05-17T09:25:09Z,219686.3,Angreifer,mshambulizi,d,kitengo,tasinia,usafirishaji,NA,NA,NA,NULL,NA,NA,NA,NA,NA,NA,NA,NA,NA,NA,NA,NA,NA,NA,NA,NA,NA,NA,NA
ac3c1,retrieval block 1 (cued recall),flow.Loop,1,NA,NA,completion,186797.52,32869,32871.48,32872.12,219669.64,219676,2023-05-17T09:25:09Z,219686.3,NA,NA,NA,NA,NA,NA,NA,NA,NA,NULL,NA,NA,NA,NA,NA,NA,NA,NA,NA,NA,NA,NA,NA,NA,NA,NA,NA,NA,NA
ac3c1,Shallow Question,html.Page,2_0_0_0,NA,NA,form submission,8666.7,219678,219669.64,219686.3,228353,228354,2023-05-17T09:25:18Z,228351.28,Prüfung,mtihani,d,mkulima,mtizamo,ufumbuzi,mtihani,NA,NA,"c(""distractor1"", ""distractor2"", ""distractor3"")",NA,NA,NA,NA,NA,NA,NA,NA,NA,NA,NA,NA,NA,NA,NA,NA,NA,NA,NA
ac3c1,Save data screen,canvas.Screen,2_0_0_1,NA,NA,timeout,499.89999999999,228359,228347.06,228351.28,228834.58,228837,2023-05-17T09:25:18Z,228851.18,Prüfung,mtihani,d,mkulima,mtizamo,ufumbuzi,NA,NA,1,"c(""distractor1"", ""distractor2"", ""distractor3"")",NA,NA,NA,NA,NA,NA,NA,NA,NA,NA,NA,NA,NA,NA,NA,NA,NA,NA,NA
ac3c1,shallow,flow.Sequence,2_0_0,NA,NA,completion,9148.28,219678,219669.64,219686.3,228834.58,228838,2023-05-17T09:25:18Z,228851.18,Prüfung,mtihani,d,mkulima,mtizamo,ufumbuzi,NA,NA,NA,"c(""distractor1"", ""distractor2"", ""distractor3"")",NA,NA,NA,NA,NA,NA,NA,NA,NA,NA,NA,NA,NA,NA,NA,NA,NA,NA,NA
ac3c1,task,flow.Sequence,2_0,NA,NA,completion,9148.28,219678,219669.64,219686.3,228834.58,228839,2023-05-17T09:25:18Z,228851.18,Prüfung,mtihani,d,mkulima,mtizamo,ufumbuzi,NA,NA,NA,"c(""distractor1"", ""distractor2"", ""distractor3"")",NA,NA,NA,NA,NA,NA,NA,NA,NA,NA,NA,NA,NA,NA,NA,NA,NA,NA,NA
ac3c1,Shallow Question,html.Page,2_1_0_0,NA,NA,form submission,10443.82,228840,228834.58,228851.18,239295,239296,2023-05-17T09:25:29Z,239299.22,Lawine,banguko,d,maambukizi,usuluhishi,chekechea,banguko,NA,NA,"c(""distractor1"", ""distractor2"", ""distractor3"")",NA,NA,NA,NA,NA,NA,NA,NA,NA,NA,NA,NA,NA,NA,NA,NA,NA,NA,NA
ac3c1,Save data screen,canvas.Screen,2_1_0_1,NA,NA,timeout,499.84,239301,239290.6,239299.22,239782.4,239786,2023-05-17T09:25:29Z,239799.06,Lawine,banguko,d,maambukizi,usuluhishi,chekechea,NA,NA,1,"c(""distractor1"", ""distractor2"", ""distractor3"")",NA,NA,NA,NA,NA,NA,NA,NA,NA,NA,NA,NA,NA,NA,NA,NA,NA,NA,NA
ac3c1,shallow,flow.Sequence,2_1_0,NA,NA,completion,10931.22,228840,228834.58,228851.18,239782.4,239787,2023-05-17T09:25:29Z,239799.06,Lawine,banguko,d,maambukizi,usuluhishi,chekechea,NA,NA,NA,"c(""distractor1"", ""distractor2"", ""distractor3"")",NA,NA,NA,NA,NA,NA,NA,NA,NA,NA,NA,NA,NA,NA,NA,NA,NA,NA,NA
ac3c1,task,flow.Sequence,2_1,NA,NA,completion,10931.22,228840,228834.58,228851.18,239782.4,239788,2023-05-17T09:25:29Z,239799.06,Lawine,banguko,d,maambukizi,usuluhishi,chekechea,NA,NA,NA,"c(""distractor1"", ""distractor2"", ""distractor3"")",NA,NA,NA,NA,NA,NA,NA,NA,NA,NA,NA,NA,NA,NA,NA,NA,NA,NA,NA
ac3c1,Shallow Question,html.Page,2_2_0_0,NA,NA,form submission,2425.94,239790,239782.4,239799.06,242225,242226,2023-05-17T09:25:32Z,242231.88,Körper,kiwiliwili,s,mapambano,mpatanishi,kiolezo,kiwiliwili,NA,NA,"c(""distractor1"", ""distractor2"", ""distractor3"")",NA,NA,NA,NA,NA,NA,NA,NA,NA,NA,NA,NA,NA,NA,NA,NA,NA,NA,NA
ac3c1,Save data screen,canvas.Screen,2_2_0_1,NA,NA,timeout,499.97999999998,242230,242219.88,242231.88,242715.2,242725,2023-05-17T09:25:32Z,242731.86,Körper,kiwiliwili,s,mapambano,mpatanishi,kiolezo,NA,NA,1,"c(""distractor1"", ""distractor2"", ""distractor3"")",NA,NA,NA,NA,NA,NA,NA,NA,NA,NA,NA,NA,NA,NA,NA,NA,NA,NA,NA
ac3c1,shallow,flow.Sequence,2_2_0,NA,NA,completion,2916.14,239789,239782.4,239799.06,242715.2,242732,2023-05-17T09:25:32Z,242731.86,Körper,kiwiliwili,s,mapambano,mpatanishi,kiolezo,NA,NA,NA,"c(""distractor1"", ""distractor2"", ""distractor3"")",NA,NA,NA,NA,NA,NA,NA,NA,NA,NA,NA,NA,NA,NA,NA,NA,NA,NA,NA
ac3c1,task,flow.Sequence,2_2,NA,NA,completion,2916.14,239788,239782.4,239799.06,242715.2,242735,2023-05-17T09:25:32Z,242731.86,Körper,kiwiliwili,s,mapambano,mpatanishi,kiolezo,NA,NA,NA,"c(""distractor1"", ""distractor2"", ""distractor3"")",NA,NA,NA,NA,NA,NA,NA,NA,NA,NA,NA,NA,NA,NA,NA,NA,NA,NA,NA
ac3c1,Shallow Question,html.Page,2_3_0_0,NA,NA,form submission,9633.14,242738,242715.2,242731.86,252365,252366,2023-05-17T09:25:42Z,252379.98,Abrechnung,uhasibu,s,kusahihisha,mpambano,mashambulizi,uhasibu,NA,NA,"c(""distractor1"", ""distractor2"", ""distractor3"")",NA,NA,NA,NA,NA,NA,NA,NA,NA,NA,NA,NA,NA,NA,NA,NA,NA,NA,NA
ac3c1,Save data screen,canvas.Screen,2_3_0_1,NA,NA,timeout,499.89999999999,252377,252355.18,252379.98,252863.2,252866,2023-05-17T09:25:42Z,252879.88,Abrechnung,uhasibu,s,kusahihisha,mpambano,mashambulizi,NA,NA,1,"c(""distractor1"", ""distractor2"", ""distractor3"")",NA,NA,NA,NA,NA,NA,NA,NA,NA,NA,NA,NA,NA,NA,NA,NA,NA,NA,NA
ac3c1,shallow,flow.Sequence,2_3_0,NA,NA,completion,10131.34,242737,242715.2,242731.86,252863.2,252869,2023-05-17T09:25:42Z,252879.88,Abrechnung,uhasibu,s,kusahihisha,mpambano,mashambulizi,NA,NA,NA,"c(""distractor1"", ""distractor2"", ""distractor3"")",NA,NA,NA,NA,NA,NA,NA,NA,NA,NA,NA,NA,NA,NA,NA,NA,NA,NA,NA
ac3c1,task,flow.Sequence,2_3,NA,NA,completion,10131.34,242736,242715.2,242731.86,252863.2,252870,2023-05-17T09:25:42Z,252879.88,Abrechnung,uhasibu,s,kusahihisha,mpambano,mashambulizi,NA,NA,NA,"c(""distractor1"", ""distractor2"", ""distractor3"")",NA,NA,NA,NA,NA,NA,NA,NA,NA,NA,NA,NA,NA,NA,NA,NA,NA,NA,NA
ac3c1,Shallow Question,html.Page,2_4_0_0,NA,NA,form submission,5609.12,252871,252863.2,252879.88,258489,258490,2023-05-17T09:25:48Z,258495.44,Aufstand,ugomaji,d,mazidio,msingi,kujieleza,ugomaji,NA,NA,"c(""distractor1"", ""distractor2"", ""distractor3"")",NA,NA,NA,NA,NA,NA,NA,NA,NA,NA,NA,NA,NA,NA,NA,NA,NA,NA,NA
ac3c1,Save data screen,canvas.Screen,2_4_0_1,NA,NA,timeout,500,258497,258483,258495.44,258978.86,258980,2023-05-17T09:25:49Z,258995.44,Aufstand,ugomaji,d,mazidio,msingi,kujieleza,NA,NA,1,"c(""distractor1"", ""distractor2"", ""distractor3"")",NA,NA,NA,NA,NA,NA,NA,NA,NA,NA,NA,NA,NA,NA,NA,NA,NA,NA,NA
ac3c1,shallow,flow.Sequence,2_4_0,NA,NA,completion,6098.98,252870,252863.2,252879.88,258978.86,258981,2023-05-17T09:25:49Z,258995.44,Aufstand,ugomaji,d,mazidio,msingi,kujieleza,NA,NA,NA,"c(""distractor1"", ""distractor2"", ""distractor3"")",NA,NA,NA,NA,NA,NA,NA,NA,NA,NA,NA,NA,NA,NA,NA,NA,NA,NA,NA
ac3c1,task,flow.Sequence,2_4,NA,NA,completion,6098.98,252870,252863.2,252879.88,258978.86,258983,2023-05-17T09:25:49Z,258995.44,Aufstand,ugomaji,d,mazidio,msingi,kujieleza,NA,NA,NA,"c(""distractor1"", ""distractor2"", ""distractor3"")",NA,NA,NA,NA,NA,NA,NA,NA,NA,NA,NA,NA,NA,NA,NA,NA,NA,NA,NA
ac3c1,Shallow Question,html.Page,2_5_0_0,NA,NA,form submission,4991.56,258985,258978.86,258995.44,263987,263987,2023-05-17T09:25:54Z,263994.42,Kultur,utamaduni,s,shetani,gerezani,mazingira,utamaduni,NA,NA,"c(""distractor1"", ""distractor2"", ""distractor3"")",NA,NA,NA,NA,NA,NA,NA,NA,NA,NA,NA,NA,NA,NA,NA,NA,NA,NA,NA
ac3c1,Save data screen,canvas.Screen,2_5_0_1,NA,NA,timeout,499.94,263992,263979.36,263994.42,264477.7,264479,2023-05-17T09:25:54Z,264494.36,Kultur,utamaduni,s,shetani,gerezani,mazingira,NA,NA,1,"c(""distractor1"", ""distractor2"", ""distractor3"")",NA,NA,NA,NA,NA,NA,NA,NA,NA,NA,NA,NA,NA,NA,NA,NA,NA,NA,NA
ac3c1,shallow,flow.Sequence,2_5_0,NA,NA,completion,5482.26,258985,258978.86,258995.44,264477.7,264480,2023-05-17T09:25:54Z,264494.36,Kultur,utamaduni,s,shetani,gerezani,mazingira,NA,NA,NA,"c(""distractor1"", ""distractor2"", ""distractor3"")",NA,NA,NA,NA,NA,NA,NA,NA,NA,NA,NA,NA,NA,NA,NA,NA,NA,NA,NA
ac3c1,task,flow.Sequence,2_5,NA,NA,completion,5482.26,258984,258978.86,258995.44,264477.7,264481,2023-05-17T09:25:54Z,264494.36,Kultur,utamaduni,s,shetani,gerezani,mazingira,NA,NA,NA,"c(""distractor1"", ""distractor2"", ""distractor3"")",NA,NA,NA,NA,NA,NA,NA,NA,NA,NA,NA,NA,NA,NA,NA,NA,NA,NA,NA
ac3c1,Shallow Question,html.Page,2_6_0_0,NA,NA,form submission,14137.64,264482,264477.7,264494.36,278632,278632,2023-05-17T09:26:08Z,278641.64,Kontrolle,kudhibiti,s,mbinguni,kufunga,utegemezi,kudhibiti,NA,NA,"c(""distractor1"", ""distractor2"", ""distractor3"")",NA,NA,NA,NA,NA,NA,NA,NA,NA,NA,NA,NA,NA,NA,NA,NA,NA,NA,NA
ac3c1,Save data screen,canvas.Screen,2_6_0_1,NA,NA,timeout,500.03999999998,278637,278627.12,278641.64,279125.04,279128,2023-05-17T09:26:09Z,279141.68,Kontrolle,kudhibiti,s,mbinguni,kufunga,utegemezi,NA,NA,1,"c(""distractor1"", ""distractor2"", ""distractor3"")",NA,NA,NA,NA,NA,NA,NA,NA,NA,NA,NA,NA,NA,NA,NA,NA,NA,NA,NA
ac3c1,shallow,flow.Sequence,2_6_0,NA,NA,completion,14630.68,264482,264477.7,264494.36,279125.04,279129,2023-05-17T09:26:09Z,279141.68,Kontrolle,kudhibiti,s,mbinguni,kufunga,utegemezi,NA,NA,NA,"c(""distractor1"", ""distractor2"", ""distractor3"")",NA,NA,NA,NA,NA,NA,NA,NA,NA,NA,NA,NA,NA,NA,NA,NA,NA,NA,NA
ac3c1,task,flow.Sequence,2_6,NA,NA,completion,14630.68,264482,264477.7,264494.36,279125.04,279130,2023-05-17T09:26:09Z,279141.68,Kontrolle,kudhibiti,s,mbinguni,kufunga,utegemezi,NA,NA,NA,"c(""distractor1"", ""distractor2"", ""distractor3"")",NA,NA,NA,NA,NA,NA,NA,NA,NA,NA,NA,NA,NA,NA,NA,NA,NA,NA,NA
ac3c1,Shallow Question,html.Page,2_7_0_0,NA,NA,form submission,5501.32,279131,279125.04,279141.68,284643,284643,2023-05-17T09:26:14Z,284657.22,Kreativität,ubunifu,d,mratibu,mwendelezo,makubaliano,ubunifu,NA,NA,"c(""distractor1"", ""distractor2"", ""distractor3"")",NA,NA,NA,NA,NA,NA,NA,NA,NA,NA,NA,NA,NA,NA,NA,NA,NA,NA,NA
ac3c1,Save data screen,canvas.Screen,2_7_0_1,NA,NA,timeout,499.94,284650,284635.32,284657.22,285140.48,285142,2023-05-17T09:26:15Z,285157.16,Kreativität,ubunifu,d,mratibu,mwendelezo,makubaliano,NA,NA,1,"c(""distractor1"", ""distractor2"", ""distractor3"")",NA,NA,NA,NA,NA,NA,NA,NA,NA,NA,NA,NA,NA,NA,NA,NA,NA,NA,NA
ac3c1,shallow,flow.Sequence,2_7_0,NA,NA,completion,5998.8,279130,279125.04,279141.68,285140.48,285143,2023-05-17T09:26:15Z,285157.16,Kreativität,ubunifu,d,mratibu,mwendelezo,makubaliano,NA,NA,NA,"c(""distractor1"", ""distractor2"", ""distractor3"")",NA,NA,NA,NA,NA,NA,NA,NA,NA,NA,NA,NA,NA,NA,NA,NA,NA,NA,NA
ac3c1,task,flow.Sequence,2_7,NA,NA,completion,5998.8,279130,279125.04,279141.68,285140.48,285143,2023-05-17T09:26:15Z,285157.16,Kreativität,ubunifu,d,mratibu,mwendelezo,makubaliano,NA,NA,NA,"c(""distractor1"", ""distractor2"", ""distractor3"")",NA,NA,NA,NA,NA,NA,NA,NA,NA,NA,NA,NA,NA,NA,NA,NA,NA,NA,NA
ac3c1,Shallow Question,html.Page,2_8_0_0,NA,NA,form submission,8470.84,285144,285140.48,285157.16,293628,293628,2023-05-17T09:26:23Z,293622.18,System,maongozi,d,chokochoko,nuksani,mitaani,maongozi,NA,NA,"c(""distractor1"", ""distractor2"", ""distractor3"")",NA,NA,NA,NA,NA,NA,NA,NA,NA,NA,NA,NA,NA,NA,NA,NA,NA,NA,NA
ac3c1,Save data screen,canvas.Screen,2_8_0_1,NA,NA,timeout,499.85999999999,293633,293618.88,293622.18,294105.56,294108,2023-05-17T09:26:24Z,294122.04,System,maongozi,d,chokochoko,nuksani,mitaani,NA,NA,1,"c(""distractor1"", ""distractor2"", ""distractor3"")",NA,NA,NA,NA,NA,NA,NA,NA,NA,NA,NA,NA,NA,NA,NA,NA,NA,NA,NA
ac3c1,shallow,flow.Sequence,2_8_0,NA,NA,completion,8948.4,285144,285140.48,285157.16,294105.56,294109,2023-05-17T09:26:24Z,294122.04,System,maongozi,d,chokochoko,nuksani,mitaani,NA,NA,NA,"c(""distractor1"", ""distractor2"", ""distractor3"")",NA,NA,NA,NA,NA,NA,NA,NA,NA,NA,NA,NA,NA,NA,NA,NA,NA,NA,NA
ac3c1,task,flow.Sequence,2_8,NA,NA,completion,8948.4,285144,285140.48,285157.16,294105.56,294110,2023-05-17T09:26:24Z,294122.04,System,maongozi,d,chokochoko,nuksani,mitaani,NA,NA,NA,"c(""distractor1"", ""distractor2"", ""distractor3"")",NA,NA,NA,NA,NA,NA,NA,NA,NA,NA,NA,NA,NA,NA,NA,NA,NA,NA,NA
ac3c1,Shallow Question,html.Page,2_9_0_0,NA,NA,form submission,9502.96,294111,294105.56,294122.04,303625,303629,2023-05-17T09:26:33Z,303636.88,Angreifer,mshambulizi,d,kitengo,tasinia,usafirishaji,mshambulizi,NA,NA,"c(""distractor1"", ""distractor2"", ""distractor3"")",NA,NA,NA,NA,NA,NA,NA,NA,NA,NA,NA,NA,NA,NA,NA,NA,NA,NA,NA
ac3c1,Save data screen,canvas.Screen,2_9_0_1,NA,NA,timeout,499.23999999999,303646,303611.98,303636.88,304120.16,304124,2023-05-17T09:26:34Z,304136.12,Angreifer,mshambulizi,d,kitengo,tasinia,usafirishaji,NA,NA,1,"c(""distractor1"", ""distractor2"", ""distractor3"")",NA,NA,NA,NA,NA,NA,NA,NA,NA,NA,NA,NA,NA,NA,NA,NA,NA,NA,NA
ac3c1,shallow,flow.Sequence,2_9_0,NA,NA,completion,9998.12,294110,294105.56,294122.04,304120.16,304126,2023-05-17T09:26:34Z,304136.12,Angreifer,mshambulizi,d,kitengo,tasinia,usafirishaji,NA,NA,NA,"c(""distractor1"", ""distractor2"", ""distractor3"")",NA,NA,NA,NA,NA,NA,NA,NA,NA,NA,NA,NA,NA,NA,NA,NA,NA,NA,NA
ac3c1,task,flow.Sequence,2_9,NA,NA,completion,9998.12,294110,294105.56,294122.04,304120.16,304128,2023-05-17T09:26:34Z,304136.12,Angreifer,mshambulizi,d,kitengo,tasinia,usafirishaji,NA,NA,NA,"c(""distractor1"", ""distractor2"", ""distractor3"")",NA,NA,NA,NA,NA,NA,NA,NA,NA,NA,NA,NA,NA,NA,NA,NA,NA,NA,NA
ac3c1,Shallow Question,html.Page,2_10_0_0,NA,NA,form submission,13288.88,304130,304120.16,304136.12,317425,317426,2023-05-17T09:26:47Z,317434.18,Gefährdung,kuhatarisha,s,uchokozi,udhaifu,makorowezo,kuhatarisha,NA,NA,"c(""distractor1"", ""distractor2"", ""distractor3"")",NA,NA,NA,NA,NA,NA,NA,NA,NA,NA,NA,NA,NA,NA,NA,NA,NA,NA,NA
ac3c1,Save data screen,canvas.Screen,2_10_0_1,NA,NA,timeout,499.97999999998,317432,317419.22,317434.18,317917.48,317920,2023-05-17T09:26:48Z,317934.16,Gefährdung,kuhatarisha,s,uchokozi,udhaifu,makorowezo,NA,NA,1,"c(""distractor1"", ""distractor2"", ""distractor3"")",NA,NA,NA,NA,NA,NA,NA,NA,NA,NA,NA,NA,NA,NA,NA,NA,NA,NA,NA
ac3c1,shallow,flow.Sequence,2_10_0,NA,NA,completion,13781.36,304130,304120.16,304136.12,317917.48,317921,2023-05-17T09:26:48Z,317934.16,Gefährdung,kuhatarisha,s,uchokozi,udhaifu,makorowezo,NA,NA,NA,"c(""distractor1"", ""distractor2"", ""distractor3"")",NA,NA,NA,NA,NA,NA,NA,NA,NA,NA,NA,NA,NA,NA,NA,NA,NA,NA,NA
ac3c1,task,flow.Sequence,2_10,NA,NA,completion,13781.36,304130,304120.16,304136.12,317917.48,317923,2023-05-17T09:26:48Z,317934.16,Gefährdung,kuhatarisha,s,uchokozi,udhaifu,makorowezo,NA,NA,NA,"c(""distractor1"", ""distractor2"", ""distractor3"")",NA,NA,NA,NA,NA,NA,NA,NA,NA,NA,NA,NA,NA,NA,NA,NA,NA,NA,NA
ac3c1,Shallow Question,html.Page,2_11_0_0,NA,NA,form submission,11556.84,317924,317917.48,317934.16,329491,329491,2023-05-17T09:26:59Z,329498.5,Sänger,mwimbaji,d,msichana,shughuli,mshirika,mwimbaji,NA,NA,"c(""distractor1"", ""distractor2"", ""distractor3"")",NA,NA,NA,NA,NA,NA,NA,NA,NA,NA,NA,NA,NA,NA,NA,NA,NA,NA,NA
ac3c1,Save data screen,canvas.Screen,2_11_0_1,NA,NA,timeout,499.97999999998,329498,329483.6,329498.5,329981.84,329985,2023-05-17T09:27:00Z,329998.48,Sänger,mwimbaji,d,msichana,shughuli,mshirika,NA,NA,1,"c(""distractor1"", ""distractor2"", ""distractor3"")",NA,NA,NA,NA,NA,NA,NA,NA,NA,NA,NA,NA,NA,NA,NA,NA,NA,NA,NA
ac3c1,shallow,flow.Sequence,2_11_0,NA,NA,completion,12047.68,317924,317917.48,317934.16,329981.84,329989,2023-05-17T09:27:00Z,329998.48,Sänger,mwimbaji,d,msichana,shughuli,mshirika,NA,NA,NA,"c(""distractor1"", ""distractor2"", ""distractor3"")",NA,NA,NA,NA,NA,NA,NA,NA,NA,NA,NA,NA,NA,NA,NA,NA,NA,NA,NA
ac3c1,task,flow.Sequence,2_11,NA,NA,completion,12047.68,317923,317917.48,317934.16,329981.84,329993,2023-05-17T09:27:00Z,329998.48,Sänger,mwimbaji,d,msichana,shughuli,mshirika,NA,NA,NA,"c(""distractor1"", ""distractor2"", ""distractor3"")",NA,NA,NA,NA,NA,NA,NA,NA,NA,NA,NA,NA,NA,NA,NA,NA,NA,NA,NA
ac3c1,Shallow Question,html.Page,2_12_0_0,NA,NA,form submission,4202.52,329996,329981.84,329998.48,334201,334202,2023-05-17T09:27:04Z,334197.7,Können,unaweza,d,kiongozi,bustani,mienendo,unaweza,NA,NA,"c(""distractor1"", ""distractor2"", ""distractor3"")",NA,NA,NA,NA,NA,NA,NA,NA,NA,NA,NA,NA,NA,NA,NA,NA,NA,NA,NA
ac3c1,Save data screen,canvas.Screen,2_12_0_1,NA,NA,timeout,499.89999999997,334206,334194.9,334197.7,334680.94,334683,2023-05-17T09:27:04Z,334697.6,Können,unaweza,d,kiongozi,bustani,mienendo,NA,NA,1,"c(""distractor1"", ""distractor2"", ""distractor3"")",NA,NA,NA,NA,NA,NA,NA,NA,NA,NA,NA,NA,NA,NA,NA,NA,NA,NA,NA
ac3c1,shallow,flow.Sequence,2_12_0,NA,NA,completion,4682.46,329996,329981.84,329998.48,334680.94,334684,2023-05-17T09:27:04Z,334697.6,Können,unaweza,d,kiongozi,bustani,mienendo,NA,NA,NA,"c(""distractor1"", ""distractor2"", ""distractor3"")",NA,NA,NA,NA,NA,NA,NA,NA,NA,NA,NA,NA,NA,NA,NA,NA,NA,NA,NA
ac3c1,task,flow.Sequence,2_12,NA,NA,completion,4682.46,329995,329981.84,329998.48,334680.94,334684,2023-05-17T09:27:04Z,334697.6,Können,unaweza,d,kiongozi,bustani,mienendo,NA,NA,NA,"c(""distractor1"", ""distractor2"", ""distractor3"")",NA,NA,NA,NA,NA,NA,NA,NA,NA,NA,NA,NA,NA,NA,NA,NA,NA,NA,NA
ac3c1,Shallow Question,html.Page,2_13_0_0,NA,NA,form submission,5542.4,334685,334680.94,334697.6,340240,340240,2023-05-17T09:27:10Z,340246.5,Verzögerung,kuchelewa,s,mwakilishi,mwanauchumi,jaribio,kuchelewa,NA,NA,"c(""distractor1"", ""distractor2"", ""distractor3"")",NA,NA,NA,NA,NA,NA,NA,NA,NA,NA,NA,NA,NA,NA,NA,NA,NA,NA,NA
ac3c1,Save data screen,canvas.Screen,2_13_0_1,NA,NA,timeout,500.02000000002,340244,340234.36,340246.5,340729.86,340732,2023-05-17T09:27:10Z,340746.52,Verzögerung,kuchelewa,s,mwakilishi,mwanauchumi,jaribio,NA,NA,1,"c(""distractor1"", ""distractor2"", ""distractor3"")",NA,NA,NA,NA,NA,NA,NA,NA,NA,NA,NA,NA,NA,NA,NA,NA,NA,NA,NA
ac3c1,shallow,flow.Sequence,2_13_0,NA,NA,completion,6032.26,334685,334680.94,334697.6,340729.86,340732,2023-05-17T09:27:10Z,340746.52,Verzögerung,kuchelewa,s,mwakilishi,mwanauchumi,jaribio,NA,NA,NA,"c(""distractor1"", ""distractor2"", ""distractor3"")",NA,NA,NA,NA,NA,NA,NA,NA,NA,NA,NA,NA,NA,NA,NA,NA,NA,NA,NA
ac3c1,task,flow.Sequence,2_13,NA,NA,completion,6032.26,334685,334680.94,334697.6,340729.86,340734,2023-05-17T09:27:10Z,340746.52,Verzögerung,kuchelewa,s,mwakilishi,mwanauchumi,jaribio,NA,NA,NA,"c(""distractor1"", ""distractor2"", ""distractor3"")",NA,NA,NA,NA,NA,NA,NA,NA,NA,NA,NA,NA,NA,NA,NA,NA,NA,NA,NA
ac3c1,Shallow Question,html.Page,2_14_0_0,NA,NA,form submission,2531.48,340735,340729.86,340746.52,343278,343279,2023-05-17T09:27:13Z,343295.94,Kanzler,diwani,s,rasilmali,mahitaji,maabudu,diwani,NA,NA,"c(""distractor1"", ""distractor2"", ""distractor3"")",NA,NA,NA,NA,NA,NA,NA,NA,NA,NA,NA,NA,NA,NA,NA,NA,NA,NA,NA
ac3c1,Save data screen,canvas.Screen,2_14_0_1,NA,NA,timeout,500,343288,343268.06,343295.94,343779.28,343787,2023-05-17T09:27:13Z,343795.94,Kanzler,diwani,s,rasilmali,mahitaji,maabudu,NA,NA,1,"c(""distractor1"", ""distractor2"", ""distractor3"")",NA,NA,NA,NA,NA,NA,NA,NA,NA,NA,NA,NA,NA,NA,NA,NA,NA,NA,NA
ac3c1,shallow,flow.Sequence,2_14_0,NA,NA,completion,3032.76,340735,340729.86,340746.52,343779.28,343798,2023-05-17T09:27:13Z,343795.94,Kanzler,diwani,s,rasilmali,mahitaji,maabudu,NA,NA,NA,"c(""distractor1"", ""distractor2"", ""distractor3"")",NA,NA,NA,NA,NA,NA,NA,NA,NA,NA,NA,NA,NA,NA,NA,NA,NA,NA,NA
ac3c1,task,flow.Sequence,2_14,NA,NA,completion,3032.76,340735,340729.86,340746.52,343779.28,343801,2023-05-17T09:27:13Z,343795.94,Kanzler,diwani,s,rasilmali,mahitaji,maabudu,NA,NA,NA,"c(""distractor1"", ""distractor2"", ""distractor3"")",NA,NA,NA,NA,NA,NA,NA,NA,NA,NA,NA,NA,NA,NA,NA,NA,NA,NA,NA
ac3c1,Shallow Question,html.Page,2_15_0_0,NA,NA,form submission,6160.06,343803,343779.28,343795.94,349956,349959,2023-05-17T09:27:20Z,349961.34,Übersicht,kilindo,s,mgusano,chipukizi,kulinganisha,kilindo,NA,NA,"c(""distractor1"", ""distractor2"", ""distractor3"")",NA,NA,NA,NA,NA,NA,NA,NA,NA,NA,NA,NA,NA,NA,NA,NA,NA,NA,NA
ac3c1,Save data screen,canvas.Screen,2_15_0_1,NA,NA,timeout,499.85999999999,349970,349947.12,349961.34,350444.54,350448,2023-05-17T09:27:20Z,350461.2,Übersicht,kilindo,s,mgusano,chipukizi,kulinganisha,NA,NA,1,"c(""distractor1"", ""distractor2"", ""distractor3"")",NA,NA,NA,NA,NA,NA,NA,NA,NA,NA,NA,NA,NA,NA,NA,NA,NA,NA,NA
ac3c1,shallow,flow.Sequence,2_15_0,NA,NA,completion,6648.6,343802,343779.28,343795.94,350444.54,350450,2023-05-17T09:27:20Z,350461.2,Übersicht,kilindo,s,mgusano,chipukizi,kulinganisha,NA,NA,NA,"c(""distractor1"", ""distractor2"", ""distractor3"")",NA,NA,NA,NA,NA,NA,NA,NA,NA,NA,NA,NA,NA,NA,NA,NA,NA,NA,NA
ac3c1,task,flow.Sequence,2_15,NA,NA,completion,6648.6,343802,343779.28,343795.94,350444.54,350451,2023-05-17T09:27:20Z,350461.2,Übersicht,kilindo,s,mgusano,chipukizi,kulinganisha,NA,NA,NA,"c(""distractor1"", ""distractor2"", ""distractor3"")",NA,NA,NA,NA,NA,NA,NA,NA,NA,NA,NA,NA,NA,NA,NA,NA,NA,NA,NA
ac3c1,retrieval block 2 (multiple choice),flow.Loop,2,NA,NA,completion,130758.24,219677,219669.64,219686.3,350444.54,350452,2023-05-17T09:27:20Z,350461.2,NA,NA,NA,NA,NA,NA,NA,NA,NA,"c(""distractor1"", ""distractor2"", ""distractor3"")",NA,NA,NA,NA,NA,NA,NA,NA,NA,NA,NA,NA,NA,NA,NA,NA,NA,NA,NA
ac3c1,End,canvas.Screen,3,NA,keypress(Space),response,1571.8,350453,350444.54,350461.2,352033,352048,2023-05-17T09:27:22Z,352050.46,NA,NA,NA,NA,NA,NA,NA,NA,NA,NULL,NA,NA,NA,NA,NA,NA,NA,NA,NA,NA,NA,NA,NA,NA,NA,NA,NA,NA,NA
ac3c1,root,flow.Sequence,NA,NA,NA,completion,350755,1206,1228,1278,352033,352049,2023-05-17T09:27:22Z,352050.46,NA,NA,NA,NA,NA,NA,NA,NA,NA,NULL,NA,NA,NA,NA,NA,NA,NA,NA,NA,NA,NA,NA,NA,NA,NA,NA,NA,NA,NA
