observation,sender,sender_type,sender_id,response,response_action,ended_on,duration,time_run,time_render,time_show,time_end,time_commit,timestamp,time_switch,distractors,german,swahili,enc,distractor1,distractor2,distractor3,response_2,x,correct,x_2,url_vp,url_sess,meta_labjs_version,meta_location,meta_user_agent,meta_platform,meta_language,meta_locale,meta_time_zone,meta_timezone_offset,meta_screen_width,meta_screen_height,meta_scroll_width,meta_scroll_height,meta_window_inner_width,meta_window_inner_height,meta_device_pixel_ratio,meta_labjs_build_flavor,meta_labjs_build_commit
d1263,Introduction general,canvas.Screen,0,weiter,keypress(q),response,36225.801000036,340,138.607,338.599,36564.400000036,36612.5,2023-03-25T11:15:48Z,36612.148,NULL,NA,NA,NA,NA,NA,NA,NA,NA,NA,NA,109,3,20.2.4,https://neurocog.fernuni.ch/studies/vweber/encoding_immediate/index.html?vp=109&sess=3,"Mozilla/5.0 (Macintosh; Intel Mac OS X 10_15_7) AppleWebKit/537.36 (KHTML, like Gecko) Chrome/109.0.0.0 Safari/537.36",MacIntel,de-DE,de,Europe/Zurich,-60,1728,1117,1200,798,1200,846,2,production,f5b4a49f956347addd546a832a3327688c2c0fef
d1263,Introduction practice,canvas.Screen,1_0,NA,keypress(Space),response,11263.552000048,36612.600000024,36603.815,36612.148,47875.700000048,47883.800000012,2023-03-25T11:15:59Z,47888.024,NULL,NA,NA,NA,NA,NA,NA,NA,NA,NA,NA,NA,NA,NA,NA,NA,NA,NA,NA,NA,NA,NA,NA,NA,NA,NA,NA,NA,NA,NA
d1263,Deep Question,html.Page,1_1_0_0_0,NA,NA,form submission,5511.2760000119,47884.300000012,47879.691,47888.024,53399.300000012,53399.5,2023-03-25T11:16:05Z,53404.988,"c(""distractor1"", ""distractor2"", ""distractor3"")",Schatten,kivuli,d,NA,NA,NA,jwl,NA,NA,NA,NA,NA,NA,NA,NA,NA,NA,NA,NA,NA,NA,NA,NA,NA,NA,NA,NA,NA,NA
d1263,"""Richtig""-Screen",canvas.Screen,1_1_0_0_1,NA,NA,skipped,NA,53399.900000036,NA,NA,53399.300000012,53400,2023-03-25T11:16:05Z,53404.988,"c(""distractor1"", ""distractor2"", ""distractor3"")",Schatten,kivuli,d,NA,NA,NA,NA,NA,NA,NA,NA,NA,NA,NA,NA,NA,NA,NA,NA,NA,NA,NA,NA,NA,NA,NA,NA,NA,NA
d1263,"""Falsch""-Screen",canvas.Screen,1_1_0_0_2,NA,NA,timeout,4999.8,53400.5,53396.655,53404.988,58396.455,58399.900000036,2023-03-25T11:16:10Z,58404.788,"c(""distractor1"", ""distractor2"", ""distractor3"")",Schatten,kivuli,d,NA,NA,NA,NA,NA,0,NA,NA,NA,NA,NA,NA,NA,NA,NA,NA,NA,NA,NA,NA,NA,NA,NA,NA,NA,NA
d1263,deep,flow.Sequence,1_1_0_0,NA,NA,completion,10508.431,47884.300000012,47879.691,47888.024,58396.455,58400.600000024,2023-03-25T11:16:10Z,58404.788,"c(""distractor1"", ""distractor2"", ""distractor3"")",Schatten,kivuli,d,NA,NA,NA,NA,NA,NA,NA,NA,NA,NA,NA,NA,NA,NA,NA,NA,NA,NA,NA,NA,NA,NA,NA,NA,NA,NA
d1263,shallow,flow.Sequence,1_1_0_1,NA,NA,skipped,NA,58400.700000048,NA,NA,58396.455,58400.900000036,2023-03-25T11:16:10Z,58404.788,"c(""distractor1"", ""distractor2"", ""distractor3"")",Schatten,kivuli,d,NA,NA,NA,NA,NA,NA,NA,NA,NA,NA,NA,NA,NA,NA,NA,NA,NA,NA,NA,NA,NA,NA,NA,NA,NA,NA
d1263,task,flow.Sequence,1_1_0,NA,NA,completion,10508.431,47884.200000048,47879.691,47888.024,58396.455,58401.100000024,2023-03-25T11:16:10Z,58404.788,"c(""distractor1"", ""distractor2"", ""distractor3"")",Schatten,kivuli,d,NA,NA,NA,NA,NA,NA,NA,NA,NA,NA,NA,NA,NA,NA,NA,NA,NA,NA,NA,NA,NA,NA,NA,NA,NA,NA
d1263,deep,flow.Sequence,1_1_1_0,NA,NA,skipped,NA,58401.400000036,NA,NA,58396.455,58401.600000024,2023-03-25T11:16:10Z,58404.788,"c(""distractor1"", ""distractor2"", ""distractor3"")",Rückhalt,msaada,s,muhula,auwali,kiwimbe,NA,NA,NA,NA,NA,NA,NA,NA,NA,NA,NA,NA,NA,NA,NA,NA,NA,NA,NA,NA,NA,NA,NA
d1263,Shallow Question,html.Page,1_1_1_1_0,NA,NA,form submission,7141.6120000358,58401.800000012,58396.455,58404.788,65546.400000036,65546.800000012,2023-03-25T11:16:17Z,65550.751,"c(""distractor1"", ""distractor2"", ""distractor3"")",Rückhalt,msaada,s,muhula,auwali,kiwimbe,auwali,NA,NA,NA,NA,NA,NA,NA,NA,NA,NA,NA,NA,NA,NA,NA,NA,NA,NA,NA,NA,NA,NA
d1263,"""Richtig""-Screen",canvas.Screen,1_1_1_1_1,NA,NA,skipped,NA,65549.300000012,NA,NA,65546.400000036,65549.400000036,2023-03-25T11:16:17Z,65550.751,"c(""distractor1"", ""distractor2"", ""distractor3"")",Rückhalt,msaada,s,muhula,auwali,kiwimbe,NA,NA,NA,NA,NA,NA,NA,NA,NA,NA,NA,NA,NA,NA,NA,NA,NA,NA,NA,NA,NA,NA,NA
d1263,"""Falsch""-Screen",canvas.Screen,1_1_1_1_2,NA,NA,timeout,4999.8,65549.900000036,65542.418,65550.751,70542.218,70545.200000048,2023-03-25T11:16:22Z,70550.551,"c(""distractor1"", ""distractor2"", ""distractor3"")",Rückhalt,msaada,s,muhula,auwali,kiwimbe,NA,NA,0,NA,NA,NA,NA,NA,NA,NA,NA,NA,NA,NA,NA,NA,NA,NA,NA,NA,NA,NA,NA
d1263,shallow,flow.Sequence,1_1_1_1,NA,NA,completion,12137.43,58401.700000048,58396.455,58404.788,70542.218,70545.800000012,2023-03-25T11:16:22Z,70550.551,"c(""distractor1"", ""distractor2"", ""distractor3"")",Rückhalt,msaada,s,muhula,auwali,kiwimbe,NA,NA,NA,NA,NA,NA,NA,NA,NA,NA,NA,NA,NA,NA,NA,NA,NA,NA,NA,NA,NA,NA,NA
d1263,task,flow.Sequence,1_1_1,NA,NA,completion,12137.43,58401.200000048,58396.455,58404.788,70542.218,70546.100000024,2023-03-25T11:16:22Z,70550.551,"c(""distractor1"", ""distractor2"", ""distractor3"")",Rückhalt,msaada,s,muhula,auwali,kiwimbe,NA,NA,NA,NA,NA,NA,NA,NA,NA,NA,NA,NA,NA,NA,NA,NA,NA,NA,NA,NA,NA,NA,NA
d1263,Deep Question,html.Page,1_1_2_0_0,NA,NA,form submission,3719.8490000358,70546.5,70542.218,70550.551,74270.400000036,74271.100000024,2023-03-25T11:16:26Z,74280.073,"c(""distractor1"", ""distractor2"", ""distractor3"")",Gesundheit,salama,d,NA,NA,NA,ks,NA,NA,NA,NA,NA,NA,NA,NA,NA,NA,NA,NA,NA,NA,NA,NA,NA,NA,NA,NA,NA,NA
d1263,"""Richtig""-Screen",canvas.Screen,1_1_2_0_1,NA,NA,skipped,NA,74274.700000048,NA,NA,74270.400000036,74274.800000012,2023-03-25T11:16:26Z,74280.073,"c(""distractor1"", ""distractor2"", ""distractor3"")",Gesundheit,salama,d,NA,NA,NA,NA,NA,NA,NA,NA,NA,NA,NA,NA,NA,NA,NA,NA,NA,NA,NA,NA,NA,NA,NA,NA,NA,NA
d1263,"""Falsch""-Screen",canvas.Screen,1_1_2_0_2,NA,NA,timeout,4999.8,74275.5,74263.407,74280.073,79271.54,79274.300000012,2023-03-25T11:16:31Z,79279.873,"c(""distractor1"", ""distractor2"", ""distractor3"")",Gesundheit,salama,d,NA,NA,NA,NA,NA,0,NA,NA,NA,NA,NA,NA,NA,NA,NA,NA,NA,NA,NA,NA,NA,NA,NA,NA,NA,NA
d1263,deep,flow.Sequence,1_1_2_0,NA,NA,completion,8720.989,70546.400000036,70542.218,70550.551,79271.54,79274.700000048,2023-03-25T11:16:31Z,79279.873,"c(""distractor1"", ""distractor2"", ""distractor3"")",Gesundheit,salama,d,NA,NA,NA,NA,NA,NA,NA,NA,NA,NA,NA,NA,NA,NA,NA,NA,NA,NA,NA,NA,NA,NA,NA,NA,NA,NA
d1263,shallow,flow.Sequence,1_1_2_1,NA,NA,skipped,NA,79274.800000012,NA,NA,79271.54,79274.900000036,2023-03-25T11:16:31Z,79279.873,"c(""distractor1"", ""distractor2"", ""distractor3"")",Gesundheit,salama,d,NA,NA,NA,NA,NA,NA,NA,NA,NA,NA,NA,NA,NA,NA,NA,NA,NA,NA,NA,NA,NA,NA,NA,NA,NA,NA
d1263,task,flow.Sequence,1_1_2,NA,NA,completion,8720.989,70546.400000036,70542.218,70550.551,79271.54,79275,2023-03-25T11:16:31Z,79279.873,"c(""distractor1"", ""distractor2"", ""distractor3"")",Gesundheit,salama,d,NA,NA,NA,NA,NA,NA,NA,NA,NA,NA,NA,NA,NA,NA,NA,NA,NA,NA,NA,NA,NA,NA,NA,NA,NA,NA
d1263,Deep Question,html.Page,1_1_3_0_0,NA,NA,form submission,3607.127,79275.200000048,79271.54,79279.873,82887,82887.5,2023-03-25T11:16:34Z,82892.653,"c(""distractor1"", ""distractor2"", ""distractor3"")",Qualität,mtindo,d,NA,NA,NA,askdn,NA,NA,NA,NA,NA,NA,NA,NA,NA,NA,NA,NA,NA,NA,NA,NA,NA,NA,NA,NA,NA,NA
d1263,"""Richtig""-Screen",canvas.Screen,1_1_3_0_1,NA,NA,skipped,NA,82891,NA,NA,82887,82891.100000024,2023-03-25T11:16:34Z,82892.653,"c(""distractor1"", ""distractor2"", ""distractor3"")",Qualität,mtindo,d,NA,NA,NA,NA,NA,NA,NA,NA,NA,NA,NA,NA,NA,NA,NA,NA,NA,NA,NA,NA,NA,NA,NA,NA,NA,NA
d1263,"""Falsch""-Screen",canvas.Screen,1_1_3_0_2,NA,NA,timeout,4999.8,82891.700000048,82884.32,82892.653,87884.12,87886.100000024,2023-03-25T11:16:39Z,87892.453,"c(""distractor1"", ""distractor2"", ""distractor3"")",Qualität,mtindo,d,NA,NA,NA,NA,NA,0,NA,NA,NA,NA,NA,NA,NA,NA,NA,NA,NA,NA,NA,NA,NA,NA,NA,NA,NA,NA
d1263,deep,flow.Sequence,1_1_3_0,NA,NA,completion,8604.247,79275.100000024,79271.54,79279.873,87884.12,87886.300000012,2023-03-25T11:16:39Z,87892.453,"c(""distractor1"", ""distractor2"", ""distractor3"")",Qualität,mtindo,d,NA,NA,NA,NA,NA,NA,NA,NA,NA,NA,NA,NA,NA,NA,NA,NA,NA,NA,NA,NA,NA,NA,NA,NA,NA,NA
d1263,shallow,flow.Sequence,1_1_3_1,NA,NA,skipped,NA,87886.5,NA,NA,87884.12,87886.5,2023-03-25T11:16:39Z,87892.453,"c(""distractor1"", ""distractor2"", ""distractor3"")",Qualität,mtindo,d,NA,NA,NA,NA,NA,NA,NA,NA,NA,NA,NA,NA,NA,NA,NA,NA,NA,NA,NA,NA,NA,NA,NA,NA,NA,NA
d1263,task,flow.Sequence,1_1_3,NA,NA,completion,8604.247,79275.100000024,79271.54,79279.873,87884.12,87886.5,2023-03-25T11:16:39Z,87892.453,"c(""distractor1"", ""distractor2"", ""distractor3"")",Qualität,mtindo,d,NA,NA,NA,NA,NA,NA,NA,NA,NA,NA,NA,NA,NA,NA,NA,NA,NA,NA,NA,NA,NA,NA,NA,NA,NA,NA
d1263,deep,flow.Sequence,1_1_4_0,NA,NA,skipped,NA,87886.800000012,NA,NA,87884.12,87886.900000036,2023-03-25T11:16:39Z,87892.453,"c(""distractor1"", ""distractor2"", ""distractor3"")",Kritik,lawama,s,dereva,nafasi,mawazo,NA,NA,NA,NA,NA,NA,NA,NA,NA,NA,NA,NA,NA,NA,NA,NA,NA,NA,NA,NA,NA,NA,NA
d1263,Shallow Question,html.Page,1_1_4_1_0,NA,NA,form submission,3147.9470000358,87887,87884.12,87892.453,91040.400000036,91040.900000036,2023-03-25T11:16:42Z,91050.66,"c(""distractor1"", ""distractor2"", ""distractor3"")",Kritik,lawama,s,dereva,nafasi,mawazo,nafasi,NA,NA,NA,NA,NA,NA,NA,NA,NA,NA,NA,NA,NA,NA,NA,NA,NA,NA,NA,NA,NA,NA
d1263,"""Richtig""-Screen",canvas.Screen,1_1_4_1_1,NA,NA,skipped,NA,91044.100000024,NA,NA,91040.400000036,91044.300000012,2023-03-25T11:16:42Z,91050.66,"c(""distractor1"", ""distractor2"", ""distractor3"")",Kritik,lawama,s,dereva,nafasi,mawazo,NA,NA,NA,NA,NA,NA,NA,NA,NA,NA,NA,NA,NA,NA,NA,NA,NA,NA,NA,NA,NA,NA,NA
d1263,"""Falsch""-Screen",canvas.Screen,1_1_4_1_2,NA,NA,timeout,4999.8,91045,91033.994,91050.66,96042.127,96045,2023-03-25T11:16:47Z,96050.46,"c(""distractor1"", ""distractor2"", ""distractor3"")",Kritik,lawama,s,dereva,nafasi,mawazo,NA,NA,0,NA,NA,NA,NA,NA,NA,NA,NA,NA,NA,NA,NA,NA,NA,NA,NA,NA,NA,NA,NA
d1263,shallow,flow.Sequence,1_1_4_1,NA,NA,completion,8149.674,87887,87884.12,87892.453,96042.127,96045.600000024,2023-03-25T11:16:47Z,96050.46,"c(""distractor1"", ""distractor2"", ""distractor3"")",Kritik,lawama,s,dereva,nafasi,mawazo,NA,NA,NA,NA,NA,NA,NA,NA,NA,NA,NA,NA,NA,NA,NA,NA,NA,NA,NA,NA,NA,NA,NA
d1263,task,flow.Sequence,1_1_4,NA,NA,completion,8149.674,87886.700000048,87884.12,87892.453,96042.127,96045.900000036,2023-03-25T11:16:47Z,96050.46,"c(""distractor1"", ""distractor2"", ""distractor3"")",Kritik,lawama,s,dereva,nafasi,mawazo,NA,NA,NA,NA,NA,NA,NA,NA,NA,NA,NA,NA,NA,NA,NA,NA,NA,NA,NA,NA,NA,NA,NA
d1263,deep,flow.Sequence,1_1_5_0,NA,NA,skipped,NA,96046.100000024,NA,NA,96042.127,96046.300000012,2023-03-25T11:16:47Z,96050.46,"c(""distractor1"", ""distractor2"", ""distractor3"")",Gegenwart,hadhara,s,katiba,jokofu,mikopo,NA,NA,NA,NA,NA,NA,NA,NA,NA,NA,NA,NA,NA,NA,NA,NA,NA,NA,NA,NA,NA,NA,NA
d1263,Shallow Question,html.Page,1_1_5_1_0,NA,NA,form submission,2249.3400000119,96046.400000036,96042.127,96050.46,98299.800000012,98300.5,2023-03-25T11:16:50Z,98309.254,"c(""distractor1"", ""distractor2"", ""distractor3"")",Gegenwart,hadhara,s,katiba,jokofu,mikopo,jokofu,NA,NA,NA,NA,NA,NA,NA,NA,NA,NA,NA,NA,NA,NA,NA,NA,NA,NA,NA,NA,NA,NA
d1263,"""Richtig""-Screen",canvas.Screen,1_1_5_1_1,NA,NA,skipped,NA,98303.800000012,NA,NA,98299.800000012,98304,2023-03-25T11:16:50Z,98309.254,"c(""distractor1"", ""distractor2"", ""distractor3"")",Gegenwart,hadhara,s,katiba,jokofu,mikopo,NA,NA,NA,NA,NA,NA,NA,NA,NA,NA,NA,NA,NA,NA,NA,NA,NA,NA,NA,NA,NA,NA,NA
d1263,"""Falsch""-Screen",canvas.Screen,1_1_5_1_2,NA,NA,timeout,4999.8,98304.5,98292.588,98309.254,103300.721,103303,2023-03-25T11:16:55Z,103309.054,"c(""distractor1"", ""distractor2"", ""distractor3"")",Gegenwart,hadhara,s,katiba,jokofu,mikopo,NA,NA,0,NA,NA,NA,NA,NA,NA,NA,NA,NA,NA,NA,NA,NA,NA,NA,NA,NA,NA,NA,NA
d1263,shallow,flow.Sequence,1_1_5_1,NA,NA,completion,7250.261,96046.400000036,96042.127,96050.46,103300.721,103303.60000002,2023-03-25T11:16:55Z,103309.054,"c(""distractor1"", ""distractor2"", ""distractor3"")",Gegenwart,hadhara,s,katiba,jokofu,mikopo,NA,NA,NA,NA,NA,NA,NA,NA,NA,NA,NA,NA,NA,NA,NA,NA,NA,NA,NA,NA,NA,NA,NA
d1263,task,flow.Sequence,1_1_5,NA,NA,completion,7250.261,96046,96042.127,96050.46,103300.721,103304,2023-03-25T11:16:55Z,103309.054,"c(""distractor1"", ""distractor2"", ""distractor3"")",Gegenwart,hadhara,s,katiba,jokofu,mikopo,NA,NA,NA,NA,NA,NA,NA,NA,NA,NA,NA,NA,NA,NA,NA,NA,NA,NA,NA,NA,NA,NA,NA
d1263,block,flow.Loop,1_1,NA,NA,completion,55412.697,47884.200000048,47879.691,47888.024,103300.721,103304.30000001,2023-03-25T11:16:55Z,103309.054,"c(""distractor1"", ""distractor2"", ""distractor3"")",NA,NA,NA,NA,NA,NA,NA,NA,NA,NA,NA,NA,NA,NA,NA,NA,NA,NA,NA,NA,NA,NA,NA,NA,NA,NA,NA,NA,NA
d1263,Practice,flow.Sequence,1,NA,NA,completion,66688.573,36612.600000024,36603.815,36612.148,103300.721,103304.5,2023-03-25T11:16:55Z,103309.054,NULL,NA,NA,NA,NA,NA,NA,NA,NA,NA,NA,NA,NA,NA,NA,NA,NA,NA,NA,NA,NA,NA,NA,NA,NA,NA,NA,NA,NA,NA
d1263,Experiment start,canvas.Screen,2,weiter,keypress(q),response,57506.446,103304.60000002,103300.721,103309.054,160815.5,160822.90000004,2023-03-25T11:17:52Z,160865.085,NULL,NA,NA,NA,NA,NA,NA,NA,NA,NA,NA,NA,NA,NA,NA,NA,NA,NA,NA,NA,NA,NA,NA,NA,NA,NA,NA,NA,NA,NA
d1263,Deep Question,html.Page,3_0_0_0_0_0_0,NA,NA,form submission,5314.415,160860.10000002,160856.752,160865.085,166179.5,166180.60000002,2023-03-25T11:17:58Z,166187.757,NULL,Toleranz,kuvumiliana,d,NA,NA,NA,hej,NA,NA,0,NA,NA,NA,NA,NA,NA,NA,NA,NA,NA,NA,NA,NA,NA,NA,NA,NA,NA,NA
d1263,"""Richtig""-Screen",canvas.Screen,3_0_0_0_0_0_1,NA,NA,skipped,NA,166183.60000002,NA,NA,166179.5,166183.70000005,2023-03-25T11:17:58Z,166187.757,NULL,Toleranz,kuvumiliana,d,NA,NA,NA,NA,sdf,NA,0,NA,NA,NA,NA,NA,NA,NA,NA,NA,NA,NA,NA,NA,NA,NA,NA,NA,NA,NA
d1263,"""Falsch""-Screen",canvas.Screen,3_0_0_0_0_0_2,NA,NA,timeout,4999.8,166184.30000001,166171.091,166187.757,171179.224,171181.90000004,2023-03-25T11:18:03Z,171187.557,NULL,Toleranz,kuvumiliana,d,NA,NA,NA,NA,sdf,0,0,NA,NA,NA,NA,NA,NA,NA,NA,NA,NA,NA,NA,NA,NA,NA,NA,NA,NA,NA
d1263,deep,flow.Sequence,3_0_0_0_0_0,NA,NA,completion,10314.139,160860.10000002,160856.752,160865.085,171179.224,171182.30000001,2023-03-25T11:18:03Z,171187.557,NULL,Toleranz,kuvumiliana,d,NA,NA,NA,NA,sdf,NA,0,NA,NA,NA,NA,NA,NA,NA,NA,NA,NA,NA,NA,NA,NA,NA,NA,NA,NA,NA
d1263,shallow,flow.Sequence,3_0_0_0_0_1,NA,NA,skipped,NA,171182.5,NA,NA,171179.224,171182.70000005,2023-03-25T11:18:03Z,171187.557,NULL,Toleranz,kuvumiliana,d,NA,NA,NA,NA,sdf,NA,0,NA,NA,NA,NA,NA,NA,NA,NA,NA,NA,NA,NA,NA,NA,NA,NA,NA,NA,NA
d1263,task,flow.Sequence,3_0_0_0_0,NA,NA,completion,10314.139,160860.10000002,160856.752,160865.085,171179.224,171182.80000001,2023-03-25T11:18:03Z,171187.557,NULL,Toleranz,kuvumiliana,d,NA,NA,NA,NA,sdf,NA,0,NA,NA,NA,NA,NA,NA,NA,NA,NA,NA,NA,NA,NA,NA,NA,NA,NA,NA,NA
d1263,Deep Question,html.Page,3_0_0_0_1_0_0,NA,NA,form submission,4450.7430000119,171183.10000002,171179.224,171187.557,175638.30000001,175638.70000005,2023-03-25T11:18:07Z,175642.336,NULL,Sympathie,mapendano,d,NA,NA,NA,kwe,NA,NA,0,NA,NA,NA,NA,NA,NA,NA,NA,NA,NA,NA,NA,NA,NA,NA,NA,NA,NA,NA
d1263,"""Richtig""-Screen",canvas.Screen,3_0_0_0_1_0_1,NA,NA,skipped,NA,175641.80000001,NA,NA,175638.30000001,175641.80000001,2023-03-25T11:18:07Z,175642.336,NULL,Sympathie,mapendano,d,NA,NA,NA,NA,sdf,NA,0,NA,NA,NA,NA,NA,NA,NA,NA,NA,NA,NA,NA,NA,NA,NA,NA,NA,NA,NA
d1263,"""Falsch""-Screen",canvas.Screen,3_0_0_0_1_0_2,NA,NA,timeout,4999.8,175642.20000005,175634.003,175642.336,180633.803,180636.80000001,2023-03-25T11:18:12Z,180642.136,NULL,Sympathie,mapendano,d,NA,NA,NA,NA,sdf,0,0,NA,NA,NA,NA,NA,NA,NA,NA,NA,NA,NA,NA,NA,NA,NA,NA,NA,NA,NA
d1263,deep,flow.Sequence,3_0_0_0_1_0,NA,NA,completion,9446.246,171183,171179.224,171187.557,180633.803,180637.60000002,2023-03-25T11:18:12Z,180642.136,NULL,Sympathie,mapendano,d,NA,NA,NA,NA,sdf,NA,0,NA,NA,NA,NA,NA,NA,NA,NA,NA,NA,NA,NA,NA,NA,NA,NA,NA,NA,NA
d1263,shallow,flow.Sequence,3_0_0_0_1_1,NA,NA,skipped,NA,180637.80000001,NA,NA,180633.803,180637.90000004,2023-03-25T11:18:12Z,180642.136,NULL,Sympathie,mapendano,d,NA,NA,NA,NA,sdf,NA,0,NA,NA,NA,NA,NA,NA,NA,NA,NA,NA,NA,NA,NA,NA,NA,NA,NA,NA,NA
d1263,task,flow.Sequence,3_0_0_0_1,NA,NA,completion,9446.246,171183,171179.224,171187.557,180633.803,180638.10000002,2023-03-25T11:18:12Z,180642.136,NULL,Sympathie,mapendano,d,NA,NA,NA,NA,sdf,NA,0,NA,NA,NA,NA,NA,NA,NA,NA,NA,NA,NA,NA,NA,NA,NA,NA,NA,NA,NA
d1263,deep,flow.Sequence,3_0_0_0_2_0,NA,NA,skipped,NA,180638.30000001,NA,NA,180633.803,180638.40000004,2023-03-25T11:18:12Z,180642.136,NULL,Polizist,msongora,s,simanzi,mandhari,nidhamu,NA,sdf,NA,0,NA,NA,NA,NA,NA,NA,NA,NA,NA,NA,NA,NA,NA,NA,NA,NA,NA,NA,NA
d1263,Shallow Question,html.Page,3_0_0_0_2_1_0,NA,NA,form submission,3277.364,180638.5,180633.803,180642.136,183919.5,183919.90000004,2023-03-25T11:18:15Z,183929.942,NULL,Polizist,msongora,s,simanzi,mandhari,nidhamu,msongora,NA,NA,0,NA,NA,NA,NA,NA,NA,NA,NA,NA,NA,NA,NA,NA,NA,NA,NA,NA,NA,NA
d1263,"""Richtig""-Screen",canvas.Screen,3_0_0_0_2_1_1,NA,NA,timeout,4999.8,183923.30000001,183913.276,183929.942,188921.409,188924.10000002,2023-03-25T11:18:20Z,188929.742,NULL,Polizist,msongora,s,simanzi,mandhari,nidhamu,NA,sdf,1,0,NA,NA,NA,NA,NA,NA,NA,NA,NA,NA,NA,NA,NA,NA,NA,NA,NA,NA,NA
d1263,"""Falsch""-Screen",canvas.Screen,3_0_0_0_2_1_2,NA,NA,skipped,NA,188928.90000004,NA,NA,188921.409,188929.10000002,2023-03-25T11:18:20Z,188929.742,NULL,Polizist,msongora,s,simanzi,mandhari,nidhamu,NA,sdf,NA,0,NA,NA,NA,NA,NA,NA,NA,NA,NA,NA,NA,NA,NA,NA,NA,NA,NA,NA,NA
d1263,shallow,flow.Sequence,3_0_0_0_2_1,NA,NA,completion,8279.273,180638.5,180633.803,180642.136,188921.409,188929.40000004,2023-03-25T11:18:20Z,188929.742,NULL,Polizist,msongora,s,simanzi,mandhari,nidhamu,NA,sdf,NA,0,NA,NA,NA,NA,NA,NA,NA,NA,NA,NA,NA,NA,NA,NA,NA,NA,NA,NA,NA
d1263,task,flow.Sequence,3_0_0_0_2,NA,NA,completion,8279.273,180638.20000005,180633.803,180642.136,188921.409,188929.5,2023-03-25T11:18:20Z,188929.742,NULL,Polizist,msongora,s,simanzi,mandhari,nidhamu,NA,sdf,NA,0,NA,NA,NA,NA,NA,NA,NA,NA,NA,NA,NA,NA,NA,NA,NA,NA,NA,NA,NA
d1263,deep,flow.Sequence,3_0_0_0_3_0,NA,NA,skipped,NA,188929.60000002,NA,NA,188921.409,188929.70000005,2023-03-25T11:18:20Z,188929.742,NULL,Beweis,ushahidi,s,marudio,kizuizi,mtendaji,NA,sdf,NA,0,NA,NA,NA,NA,NA,NA,NA,NA,NA,NA,NA,NA,NA,NA,NA,NA,NA,NA,NA
d1263,Shallow Question,html.Page,3_0_0_0_3_1_0,NA,NA,form submission,2510.6580000358,188929.70000005,188921.409,188929.742,191440.40000004,191440.90000004,2023-03-25T11:18:23Z,191446.308,NULL,Beweis,ushahidi,s,marudio,kizuizi,mtendaji,mtendaji,NA,NA,0,NA,NA,NA,NA,NA,NA,NA,NA,NA,NA,NA,NA,NA,NA,NA,NA,NA,NA,NA
d1263,"""Richtig""-Screen",canvas.Screen,3_0_0_0_3_1_1,NA,NA,skipped,NA,191441.90000004,NA,NA,191440.40000004,191442,2023-03-25T11:18:23Z,191446.308,NULL,Beweis,ushahidi,s,marudio,kizuizi,mtendaji,NA,sdf,NA,0,NA,NA,NA,NA,NA,NA,NA,NA,NA,NA,NA,NA,NA,NA,NA,NA,NA,NA,NA
d1263,"""Falsch""-Screen",canvas.Screen,3_0_0_0_3_1_2,NA,NA,timeout,4999.8,191442.60000002,191437.975,191446.308,196437.775,196440,2023-03-25T11:18:28Z,196446.108,NULL,Beweis,ushahidi,s,marudio,kizuizi,mtendaji,NA,sdf,0,0,NA,NA,NA,NA,NA,NA,NA,NA,NA,NA,NA,NA,NA,NA,NA,NA,NA,NA,NA
d1263,shallow,flow.Sequence,3_0_0_0_3_1,NA,NA,completion,7508.033,188929.70000005,188921.409,188929.742,196437.775,196440.5,2023-03-25T11:18:28Z,196446.108,NULL,Beweis,ushahidi,s,marudio,kizuizi,mtendaji,NA,sdf,NA,0,NA,NA,NA,NA,NA,NA,NA,NA,NA,NA,NA,NA,NA,NA,NA,NA,NA,NA,NA
d1263,task,flow.Sequence,3_0_0_0_3,NA,NA,completion,7508.033,188929.5,188921.409,188929.742,196437.775,196440.70000005,2023-03-25T11:18:28Z,196446.108,NULL,Beweis,ushahidi,s,marudio,kizuizi,mtendaji,NA,sdf,NA,0,NA,NA,NA,NA,NA,NA,NA,NA,NA,NA,NA,NA,NA,NA,NA,NA,NA,NA,NA
d1263,Deep Question,html.Page,3_0_0_0_4_0_0,NA,NA,form submission,2726.1920000119,196441,196437.775,196446.108,199172.30000001,199172.70000005,2023-03-25T11:18:31Z,199179.862,NULL,Schlange,foleni,d,NA,NA,NA,nwem,NA,NA,0,NA,NA,NA,NA,NA,NA,NA,NA,NA,NA,NA,NA,NA,NA,NA,NA,NA,NA,NA
d1263,"""Richtig""-Screen",canvas.Screen,3_0_0_0_4_0_1,NA,NA,skipped,NA,199176,NA,NA,199172.30000001,199176.10000002,2023-03-25T11:18:31Z,199179.862,NULL,Schlange,foleni,d,NA,NA,NA,NA,sdf,NA,0,NA,NA,NA,NA,NA,NA,NA,NA,NA,NA,NA,NA,NA,NA,NA,NA,NA,NA,NA
d1263,"""Falsch""-Screen",canvas.Screen,3_0_0_0_4_0_2,NA,NA,timeout,4999.8,199176.70000005,199163.196,199179.862,204171.329,204174.10000002,2023-03-25T11:18:36Z,204179.662,NULL,Schlange,foleni,d,NA,NA,NA,NA,sdf,0,0,NA,NA,NA,NA,NA,NA,NA,NA,NA,NA,NA,NA,NA,NA,NA,NA,NA,NA,NA
d1263,deep,flow.Sequence,3_0_0_0_4_0,NA,NA,completion,7725.221,196441,196437.775,196446.108,204171.329,204174.60000002,2023-03-25T11:18:36Z,204179.662,NULL,Schlange,foleni,d,NA,NA,NA,NA,sdf,NA,0,NA,NA,NA,NA,NA,NA,NA,NA,NA,NA,NA,NA,NA,NA,NA,NA,NA,NA,NA
d1263,shallow,flow.Sequence,3_0_0_0_4_1,NA,NA,skipped,NA,204174.80000001,NA,NA,204171.329,204174.90000004,2023-03-25T11:18:36Z,204179.662,NULL,Schlange,foleni,d,NA,NA,NA,NA,sdf,NA,0,NA,NA,NA,NA,NA,NA,NA,NA,NA,NA,NA,NA,NA,NA,NA,NA,NA,NA,NA
d1263,task,flow.Sequence,3_0_0_0_4,NA,NA,completion,7725.221,196440.90000004,196437.775,196446.108,204171.329,204175.10000002,2023-03-25T11:18:36Z,204179.662,NULL,Schlange,foleni,d,NA,NA,NA,NA,sdf,NA,0,NA,NA,NA,NA,NA,NA,NA,NA,NA,NA,NA,NA,NA,NA,NA,NA,NA,NA,NA
d1263,deep,flow.Sequence,3_0_0_0_5_0,NA,NA,skipped,NA,204175.40000004,NA,NA,204171.329,204175.5,2023-03-25T11:18:36Z,204179.662,NULL,Vermutung,udhanifu,s,haramia,tikisho,itifaki,NA,sdf,NA,0,NA,NA,NA,NA,NA,NA,NA,NA,NA,NA,NA,NA,NA,NA,NA,NA,NA,NA,NA
d1263,Shallow Question,html.Page,3_0_0_0_5_1_0,NA,NA,form submission,2501.0380000477,204175.5,204171.329,204179.662,206680.70000005,206681.10000002,2023-03-25T11:18:38Z,206687.895,NULL,Vermutung,udhanifu,s,haramia,tikisho,itifaki,tikisho,NA,NA,0,NA,NA,NA,NA,NA,NA,NA,NA,NA,NA,NA,NA,NA,NA,NA,NA,NA,NA,NA
d1263,"""Richtig""-Screen",canvas.Screen,3_0_0_0_5_1_1,NA,NA,skipped,NA,206684.5,NA,NA,206680.70000005,206684.60000002,2023-03-25T11:18:38Z,206687.895,NULL,Vermutung,udhanifu,s,haramia,tikisho,itifaki,NA,sdf,NA,0,NA,NA,NA,NA,NA,NA,NA,NA,NA,NA,NA,NA,NA,NA,NA,NA,NA,NA,NA
d1263,"""Falsch""-Screen",canvas.Screen,3_0_0_0_5_1_2,NA,NA,timeout,5000.235,206685.20000005,206671.229,206687.895,211679.797,211681.5,2023-03-25T11:18:43Z,211688.13,NULL,Vermutung,udhanifu,s,haramia,tikisho,itifaki,NA,sdf,0,0,NA,NA,NA,NA,NA,NA,NA,NA,NA,NA,NA,NA,NA,NA,NA,NA,NA,NA,NA
d1263,shallow,flow.Sequence,3_0_0_0_5_1,NA,NA,completion,7500.135,204175.5,204171.329,204179.662,211679.797,211681.60000002,2023-03-25T11:18:43Z,211688.13,NULL,Vermutung,udhanifu,s,haramia,tikisho,itifaki,NA,sdf,NA,0,NA,NA,NA,NA,NA,NA,NA,NA,NA,NA,NA,NA,NA,NA,NA,NA,NA,NA,NA
d1263,task,flow.Sequence,3_0_0_0_5,NA,NA,completion,7500.135,204175.30000001,204171.329,204179.662,211679.797,211681.80000001,2023-03-25T11:18:43Z,211688.13,NULL,Vermutung,udhanifu,s,haramia,tikisho,itifaki,NA,sdf,NA,0,NA,NA,NA,NA,NA,NA,NA,NA,NA,NA,NA,NA,NA,NA,NA,NA,NA,NA,NA
d1263,deep,flow.Sequence,3_0_0_0_6_0,NA,NA,skipped,NA,211681.90000004,NA,NA,211679.797,211681.90000004,2023-03-25T11:18:43Z,211688.13,NULL,Inhalt,yaliyomo,s,kishawishi,hifadhi,kutembea,NA,sdf,NA,0,NA,NA,NA,NA,NA,NA,NA,NA,NA,NA,NA,NA,NA,NA,NA,NA,NA,NA,NA
d1263,Shallow Question,html.Page,3_0_0_0_6_1_0,NA,NA,form submission,5905.6700000119,211682,211679.797,211688.13,217593.80000001,217594.30000001,2023-03-25T11:18:49Z,217604.945,NULL,Inhalt,yaliyomo,s,kishawishi,hifadhi,kutembea,kishawishi,NA,NA,0,NA,NA,NA,NA,NA,NA,NA,NA,NA,NA,NA,NA,NA,NA,NA,NA,NA,NA,NA
d1263,"""Richtig""-Screen",canvas.Screen,3_0_0_0_6_1_1,NA,NA,skipped,NA,217597.90000004,NA,NA,217593.80000001,217598,2023-03-25T11:18:49Z,217604.945,NULL,Inhalt,yaliyomo,s,kishawishi,hifadhi,kutembea,NA,sdf,NA,0,NA,NA,NA,NA,NA,NA,NA,NA,NA,NA,NA,NA,NA,NA,NA,NA,NA,NA,NA
d1263,"""Falsch""-Screen",canvas.Screen,3_0_0_0_6_1_2,NA,NA,timeout,4999.8,217598.60000002,217588.279,217604.945,222596.412,222598.90000004,2023-03-25T11:18:54Z,222604.745,NULL,Inhalt,yaliyomo,s,kishawishi,hifadhi,kutembea,NA,sdf,0,0,NA,NA,NA,NA,NA,NA,NA,NA,NA,NA,NA,NA,NA,NA,NA,NA,NA,NA,NA
d1263,shallow,flow.Sequence,3_0_0_0_6_1,NA,NA,completion,10908.282,211682,211679.797,211688.13,222596.412,222599.60000002,2023-03-25T11:18:54Z,222604.745,NULL,Inhalt,yaliyomo,s,kishawishi,hifadhi,kutembea,NA,sdf,NA,0,NA,NA,NA,NA,NA,NA,NA,NA,NA,NA,NA,NA,NA,NA,NA,NA,NA,NA,NA
d1263,task,flow.Sequence,3_0_0_0_6,NA,NA,completion,10908.282,211681.90000004,211679.797,211688.13,222596.412,222599.80000001,2023-03-25T11:18:54Z,222604.745,NULL,Inhalt,yaliyomo,s,kishawishi,hifadhi,kutembea,NA,sdf,NA,0,NA,NA,NA,NA,NA,NA,NA,NA,NA,NA,NA,NA,NA,NA,NA,NA,NA,NA,NA
d1263,Deep Question,html.Page,3_0_0_0_7_0_0,NA,NA,form submission,2377.6550000358,222600,222596.412,222604.745,224982.40000004,224983.20000005,2023-03-25T11:18:56Z,224987.983,NULL,Annäherung,maegesho,d,NA,NA,NA,wek,NA,NA,0,NA,NA,NA,NA,NA,NA,NA,NA,NA,NA,NA,NA,NA,NA,NA,NA,NA,NA,NA
d1263,"""Richtig""-Screen",canvas.Screen,3_0_0_0_7_0_1,NA,NA,skipped,NA,224986.40000004,NA,NA,224982.40000004,224986.5,2023-03-25T11:18:56Z,224987.983,NULL,Annäherung,maegesho,d,NA,NA,NA,NA,sdf,NA,0,NA,NA,NA,NA,NA,NA,NA,NA,NA,NA,NA,NA,NA,NA,NA,NA,NA,NA,NA
d1263,"""Falsch""-Screen",canvas.Screen,3_0_0_0_7_0_2,NA,NA,timeout,4999.8,224987.10000002,224979.65,224987.983,229979.45,229982.10000002,2023-03-25T11:19:01Z,229987.783,NULL,Annäherung,maegesho,d,NA,NA,NA,NA,sdf,0,0,NA,NA,NA,NA,NA,NA,NA,NA,NA,NA,NA,NA,NA,NA,NA,NA,NA,NA,NA
d1263,deep,flow.Sequence,3_0_0_0_7_0,NA,NA,completion,7374.705,222600,222596.412,222604.745,229979.45,229982.60000002,2023-03-25T11:19:01Z,229987.783,NULL,Annäherung,maegesho,d,NA,NA,NA,NA,sdf,NA,0,NA,NA,NA,NA,NA,NA,NA,NA,NA,NA,NA,NA,NA,NA,NA,NA,NA,NA,NA
d1263,shallow,flow.Sequence,3_0_0_0_7_1,NA,NA,skipped,NA,229982.70000005,NA,NA,229979.45,229982.90000004,2023-03-25T11:19:01Z,229987.783,NULL,Annäherung,maegesho,d,NA,NA,NA,NA,sdf,NA,0,NA,NA,NA,NA,NA,NA,NA,NA,NA,NA,NA,NA,NA,NA,NA,NA,NA,NA,NA
d1263,task,flow.Sequence,3_0_0_0_7,NA,NA,completion,7374.705,222599.90000004,222596.412,222604.745,229979.45,229983,2023-03-25T11:19:01Z,229987.783,NULL,Annäherung,maegesho,d,NA,NA,NA,NA,sdf,NA,0,NA,NA,NA,NA,NA,NA,NA,NA,NA,NA,NA,NA,NA,NA,NA,NA,NA,NA,NA
d1263,block,flow.Loop,3_0_0_0,NA,NA,completion,69114.365,160860,160856.752,160865.085,229979.45,229983.20000005,2023-03-25T11:19:01Z,229987.783,NULL,NA,NA,NA,NA,NA,NA,NA,sdf,NA,0,NA,NA,NA,NA,NA,NA,NA,NA,NA,NA,NA,NA,NA,NA,NA,NA,NA,NA,NA
d1263,weiter,canvas.Screen,3_0_0_1,sdf,keypress(Space),response,1490.1170000358,229983.40000004,229979.45,229987.783,231477.90000004,231485.60000002,2023-03-25T11:19:03Z,231509.026,NULL,NA,NA,NA,NA,NA,NA,NA,sdf,NA,0,NA,NA,NA,NA,NA,NA,NA,NA,NA,NA,NA,NA,NA,NA,NA,NA,NA,NA,NA
d1263,check continue,flow.Sequence,3_0_0,NA,NA,completion,70612.815000036,160860,160856.752,160865.085,231477.90000004,231485.90000004,2023-03-25T11:19:03Z,231509.026,NULL,NA,NA,NA,NA,NA,NA,NA,sdf,NA,0,NA,NA,NA,NA,NA,NA,NA,NA,NA,NA,NA,NA,NA,NA,NA,NA,NA,NA,NA
d1263,Deep Question,html.Page,3_0_1_0_0_0_0,NA,NA,form submission,6645.7740000119,231508,231500.693,231509.026,238154.80000001,238155.40000004,2023-03-25T11:19:10Z,238167.093,NULL,Sympathie,mapendano,d,NA,NA,NA,kivivilana,NA,NA,1,NA,NA,NA,NA,NA,NA,NA,NA,NA,NA,NA,NA,NA,NA,NA,NA,NA,NA,NA
d1263,"""Richtig""-Screen",canvas.Screen,3_0_1_0_0_0_1,NA,NA,skipped,NA,238158.80000001,NA,NA,238154.80000001,238159.10000002,2023-03-25T11:19:10Z,238167.093,NULL,Sympathie,mapendano,d,NA,NA,NA,NA,sdfdsf,NA,1,NA,NA,NA,NA,NA,NA,NA,NA,NA,NA,NA,NA,NA,NA,NA,NA,NA,NA,NA
d1263,"""Falsch""-Screen",canvas.Screen,3_0_1_0_0_0_2,NA,NA,timeout,4999.8,238159.70000005,238150.427,238167.093,243158.56,243160.80000001,2023-03-25T11:19:15Z,243166.893,NULL,Sympathie,mapendano,d,NA,NA,NA,NA,sdfdsf,0,1,NA,NA,NA,NA,NA,NA,NA,NA,NA,NA,NA,NA,NA,NA,NA,NA,NA,NA,NA
d1263,deep,flow.Sequence,3_0_1_0_0_0,NA,NA,completion,11649.534,231508,231500.693,231509.026,243158.56,243161.30000001,2023-03-25T11:19:15Z,243166.893,NULL,Sympathie,mapendano,d,NA,NA,NA,NA,sdfdsf,NA,1,NA,NA,NA,NA,NA,NA,NA,NA,NA,NA,NA,NA,NA,NA,NA,NA,NA,NA,NA
d1263,shallow,flow.Sequence,3_0_1_0_0_1,NA,NA,skipped,NA,243161.5,NA,NA,243158.56,243161.70000005,2023-03-25T11:19:15Z,243166.893,NULL,Sympathie,mapendano,d,NA,NA,NA,NA,sdfdsf,NA,1,NA,NA,NA,NA,NA,NA,NA,NA,NA,NA,NA,NA,NA,NA,NA,NA,NA,NA,NA
d1263,task,flow.Sequence,3_0_1_0_0,NA,NA,completion,11649.534,231508,231500.693,231509.026,243158.56,243161.80000001,2023-03-25T11:19:15Z,243166.893,NULL,Sympathie,mapendano,d,NA,NA,NA,NA,sdfdsf,NA,1,NA,NA,NA,NA,NA,NA,NA,NA,NA,NA,NA,NA,NA,NA,NA,NA,NA,NA,NA
d1263,deep,flow.Sequence,3_0_1_0_1_0,NA,NA,skipped,NA,243162,NA,NA,243158.56,243162.10000002,2023-03-25T11:19:15Z,243166.893,NULL,Inhalt,yaliyomo,s,kishawishi,hifadhi,kutembea,NA,sdfdsf,NA,1,NA,NA,NA,NA,NA,NA,NA,NA,NA,NA,NA,NA,NA,NA,NA,NA,NA,NA,NA
d1263,Shallow Question,html.Page,3_0_1_0_1_1_0,NA,NA,form submission,4290.4070000119,243162.20000005,243158.56,243166.893,247457.30000001,247458,2023-03-25T11:19:19Z,247463.063,NULL,Inhalt,yaliyomo,s,kishawishi,hifadhi,kutembea,yaliyomo,NA,NA,1,NA,NA,NA,NA,NA,NA,NA,NA,NA,NA,NA,NA,NA,NA,NA,NA,NA,NA,NA
d1263,"""Richtig""-Screen",canvas.Screen,3_0_1_0_1_1_1,NA,NA,timeout,4999.8,247461.5,247454.73,247463.063,252454.53,252457.20000005,2023-03-25T11:19:24Z,252462.863,NULL,Inhalt,yaliyomo,s,kishawishi,hifadhi,kutembea,NA,sdfdsf,1,1,NA,NA,NA,NA,NA,NA,NA,NA,NA,NA,NA,NA,NA,NA,NA,NA,NA,NA,NA
d1263,"""Falsch""-Screen",canvas.Screen,3_0_1_0_1_1_2,NA,NA,skipped,NA,252461.30000001,NA,NA,252454.53,252461.5,2023-03-25T11:19:24Z,252462.863,NULL,Inhalt,yaliyomo,s,kishawishi,hifadhi,kutembea,NA,sdfdsf,NA,1,NA,NA,NA,NA,NA,NA,NA,NA,NA,NA,NA,NA,NA,NA,NA,NA,NA,NA,NA
d1263,shallow,flow.Sequence,3_0_1_0_1_1,NA,NA,completion,9287.637,243162.20000005,243158.56,243166.893,252454.53,252461.70000005,2023-03-25T11:19:24Z,252462.863,NULL,Inhalt,yaliyomo,s,kishawishi,hifadhi,kutembea,NA,sdfdsf,NA,1,NA,NA,NA,NA,NA,NA,NA,NA,NA,NA,NA,NA,NA,NA,NA,NA,NA,NA,NA
d1263,task,flow.Sequence,3_0_1_0_1,NA,NA,completion,9287.637,243161.90000004,243158.56,243166.893,252454.53,252461.80000001,2023-03-25T11:19:24Z,252462.863,NULL,Inhalt,yaliyomo,s,kishawishi,hifadhi,kutembea,NA,sdfdsf,NA,1,NA,NA,NA,NA,NA,NA,NA,NA,NA,NA,NA,NA,NA,NA,NA,NA,NA,NA,NA
d1263,deep,flow.Sequence,3_0_1_0_2_0,NA,NA,skipped,NA,252461.90000004,NA,NA,252454.53,252462,2023-03-25T11:19:24Z,252462.863,NULL,Beweis,ushahidi,s,marudio,kizuizi,mtendaji,NA,sdfdsf,NA,1,NA,NA,NA,NA,NA,NA,NA,NA,NA,NA,NA,NA,NA,NA,NA,NA,NA,NA,NA
d1263,Shallow Question,html.Page,3_0_1_0_2_1_0,NA,NA,form submission,4444.3370000477,252462.20000005,252454.53,252462.863,256907.20000005,256907.90000004,2023-03-25T11:19:28Z,256913.116,NULL,Beweis,ushahidi,s,marudio,kizuizi,mtendaji,ushahidi,NA,NA,1,NA,NA,NA,NA,NA,NA,NA,NA,NA,NA,NA,NA,NA,NA,NA,NA,NA,NA,NA
d1263,"""Richtig""-Screen",canvas.Screen,3_0_1_0_2_1_1,NA,NA,timeout,4999.8,256910.80000001,256904.783,256913.116,261904.583,261906.70000005,2023-03-25T11:19:33Z,261912.916,NULL,Beweis,ushahidi,s,marudio,kizuizi,mtendaji,NA,sdfdsf,1,1,NA,NA,NA,NA,NA,NA,NA,NA,NA,NA,NA,NA,NA,NA,NA,NA,NA,NA,NA
d1263,"""Falsch""-Screen",canvas.Screen,3_0_1_0_2_1_2,NA,NA,skipped,NA,261911.80000001,NA,NA,261904.583,261912.10000002,2023-03-25T11:19:33Z,261912.916,NULL,Beweis,ushahidi,s,marudio,kizuizi,mtendaji,NA,sdfdsf,NA,1,NA,NA,NA,NA,NA,NA,NA,NA,NA,NA,NA,NA,NA,NA,NA,NA,NA,NA,NA
d1263,shallow,flow.Sequence,3_0_1_0_2_1,NA,NA,completion,9441.72,252462.10000002,252454.53,252462.863,261904.583,261912.20000005,2023-03-25T11:19:33Z,261912.916,NULL,Beweis,ushahidi,s,marudio,kizuizi,mtendaji,NA,sdfdsf,NA,1,NA,NA,NA,NA,NA,NA,NA,NA,NA,NA,NA,NA,NA,NA,NA,NA,NA,NA,NA
d1263,task,flow.Sequence,3_0_1_0_2,NA,NA,completion,9441.72,252461.90000004,252454.53,252462.863,261904.583,261912.40000004,2023-03-25T11:19:33Z,261912.916,NULL,Beweis,ushahidi,s,marudio,kizuizi,mtendaji,NA,sdfdsf,NA,1,NA,NA,NA,NA,NA,NA,NA,NA,NA,NA,NA,NA,NA,NA,NA,NA,NA,NA,NA
d1263,Deep Question,html.Page,3_0_1_0_3_0_0,NA,NA,form submission,3976.7840000477,261912.5,261904.583,261912.916,265889.70000005,265890.5,2023-03-25T11:19:37Z,265892.303,NULL,Schlange,foleni,d,NA,NA,NA,foleni,NA,NA,1,NA,NA,NA,NA,NA,NA,NA,NA,NA,NA,NA,NA,NA,NA,NA,NA,NA,NA,NA
d1263,"""Richtig""-Screen",canvas.Screen,3_0_1_0_3_0_1,NA,NA,timeout,4999.8,265893.40000004,265883.97,265892.303,270883.77,270886.40000004,2023-03-25T11:19:42Z,270892.103,NULL,Schlange,foleni,d,NA,NA,NA,NA,sdfdsf,1,1,NA,NA,NA,NA,NA,NA,NA,NA,NA,NA,NA,NA,NA,NA,NA,NA,NA,NA,NA
d1263,"""Falsch""-Screen",canvas.Screen,3_0_1_0_3_0_2,NA,NA,skipped,NA,270890.70000005,NA,NA,270883.77,270890.90000004,2023-03-25T11:19:42Z,270892.103,NULL,Schlange,foleni,d,NA,NA,NA,NA,sdfdsf,NA,1,NA,NA,NA,NA,NA,NA,NA,NA,NA,NA,NA,NA,NA,NA,NA,NA,NA,NA,NA
d1263,deep,flow.Sequence,3_0_1_0_3_0,NA,NA,completion,8970.854,261912.5,261904.583,261912.916,270883.77,270891.10000002,2023-03-25T11:19:42Z,270892.103,NULL,Schlange,foleni,d,NA,NA,NA,NA,sdfdsf,NA,1,NA,NA,NA,NA,NA,NA,NA,NA,NA,NA,NA,NA,NA,NA,NA,NA,NA,NA,NA
d1263,shallow,flow.Sequence,3_0_1_0_3_1,NA,NA,skipped,NA,270891.10000002,NA,NA,270883.77,270891.20000005,2023-03-25T11:19:42Z,270892.103,NULL,Schlange,foleni,d,NA,NA,NA,NA,sdfdsf,NA,1,NA,NA,NA,NA,NA,NA,NA,NA,NA,NA,NA,NA,NA,NA,NA,NA,NA,NA,NA
d1263,task,flow.Sequence,3_0_1_0_3,NA,NA,completion,8970.854,261912.5,261904.583,261912.916,270883.77,270891.30000001,2023-03-25T11:19:42Z,270892.103,NULL,Schlange,foleni,d,NA,NA,NA,NA,sdfdsf,NA,1,NA,NA,NA,NA,NA,NA,NA,NA,NA,NA,NA,NA,NA,NA,NA,NA,NA,NA,NA
d1263,deep,flow.Sequence,3_0_1_0_4_0,NA,NA,skipped,NA,270891.40000004,NA,NA,270883.77,270891.5,2023-03-25T11:19:42Z,270892.103,NULL,Vermutung,udhanifu,s,haramia,tikisho,itifaki,NA,sdfdsf,NA,1,NA,NA,NA,NA,NA,NA,NA,NA,NA,NA,NA,NA,NA,NA,NA,NA,NA,NA,NA
d1263,Shallow Question,html.Page,3_0_1_0_4_1_0,NA,NA,form submission,4674.1970000119,270891.5,270883.77,270892.103,275566.30000001,275566.80000001,2023-03-25T11:19:47Z,275575.682,NULL,Vermutung,udhanifu,s,haramia,tikisho,itifaki,udhanifu,NA,NA,1,NA,NA,NA,NA,NA,NA,NA,NA,NA,NA,NA,NA,NA,NA,NA,NA,NA,NA,NA
d1263,"""Richtig""-Screen",canvas.Screen,3_0_1_0_4_1_1,NA,NA,timeout,4999.8,275570.10000002,275559.016,275575.682,280567.149,280569.70000005,2023-03-25T11:19:52Z,280575.482,NULL,Vermutung,udhanifu,s,haramia,tikisho,itifaki,NA,sdfdsf,1,1,NA,NA,NA,NA,NA,NA,NA,NA,NA,NA,NA,NA,NA,NA,NA,NA,NA,NA,NA
d1263,"""Falsch""-Screen",canvas.Screen,3_0_1_0_4_1_2,NA,NA,skipped,NA,280574.30000001,NA,NA,280567.149,280574.40000004,2023-03-25T11:19:52Z,280575.482,NULL,Vermutung,udhanifu,s,haramia,tikisho,itifaki,NA,sdfdsf,NA,1,NA,NA,NA,NA,NA,NA,NA,NA,NA,NA,NA,NA,NA,NA,NA,NA,NA,NA,NA
d1263,shallow,flow.Sequence,3_0_1_0_4_1,NA,NA,completion,9675.046,270891.5,270883.77,270892.103,280567.149,280574.60000002,2023-03-25T11:19:52Z,280575.482,NULL,Vermutung,udhanifu,s,haramia,tikisho,itifaki,NA,sdfdsf,NA,1,NA,NA,NA,NA,NA,NA,NA,NA,NA,NA,NA,NA,NA,NA,NA,NA,NA,NA,NA
d1263,task,flow.Sequence,3_0_1_0_4,NA,NA,completion,9675.046,270891.30000001,270883.77,270892.103,280567.149,280574.70000005,2023-03-25T11:19:52Z,280575.482,NULL,Vermutung,udhanifu,s,haramia,tikisho,itifaki,NA,sdfdsf,NA,1,NA,NA,NA,NA,NA,NA,NA,NA,NA,NA,NA,NA,NA,NA,NA,NA,NA,NA,NA
d1263,deep,flow.Sequence,3_0_1_0_5_0,NA,NA,skipped,NA,280574.80000001,NA,NA,280567.149,280574.90000004,2023-03-25T11:19:52Z,280575.482,NULL,Polizist,msongora,s,simanzi,mandhari,nidhamu,NA,sdfdsf,NA,1,NA,NA,NA,NA,NA,NA,NA,NA,NA,NA,NA,NA,NA,NA,NA,NA,NA,NA,NA
d1263,Shallow Question,html.Page,3_0_1_0_5_1_0,NA,NA,form submission,3697.518,280574.90000004,280567.149,280575.482,284273,284273.5,2023-03-25T11:19:56Z,284275.334,NULL,Polizist,msongora,s,simanzi,mandhari,nidhamu,msongora,NA,NA,1,NA,NA,NA,NA,NA,NA,NA,NA,NA,NA,NA,NA,NA,NA,NA,NA,NA,NA,NA
d1263,"""Richtig""-Screen",canvas.Screen,3_0_1_0_5_1_1,NA,NA,timeout,4999.8,284276.60000002,284267.001,284275.334,289266.801,289268.40000004,2023-03-25T11:20:01Z,289275.134,NULL,Polizist,msongora,s,simanzi,mandhari,nidhamu,NA,sdfdsf,1,1,NA,NA,NA,NA,NA,NA,NA,NA,NA,NA,NA,NA,NA,NA,NA,NA,NA,NA,NA
d1263,"""Falsch""-Screen",canvas.Screen,3_0_1_0_5_1_2,NA,NA,skipped,NA,289272.20000005,NA,NA,289266.801,289272.30000001,2023-03-25T11:20:01Z,289275.134,NULL,Polizist,msongora,s,simanzi,mandhari,nidhamu,NA,sdfdsf,NA,1,NA,NA,NA,NA,NA,NA,NA,NA,NA,NA,NA,NA,NA,NA,NA,NA,NA,NA,NA
d1263,shallow,flow.Sequence,3_0_1_0_5_1,NA,NA,completion,8691.319,280574.90000004,280567.149,280575.482,289266.801,289272.40000004,2023-03-25T11:20:01Z,289275.134,NULL,Polizist,msongora,s,simanzi,mandhari,nidhamu,NA,sdfdsf,NA,1,NA,NA,NA,NA,NA,NA,NA,NA,NA,NA,NA,NA,NA,NA,NA,NA,NA,NA,NA
d1263,task,flow.Sequence,3_0_1_0_5,NA,NA,completion,8691.319,280574.80000001,280567.149,280575.482,289266.801,289272.5,2023-03-25T11:20:01Z,289275.134,NULL,Polizist,msongora,s,simanzi,mandhari,nidhamu,NA,sdfdsf,NA,1,NA,NA,NA,NA,NA,NA,NA,NA,NA,NA,NA,NA,NA,NA,NA,NA,NA,NA,NA
d1263,Deep Question,html.Page,3_0_1_0_6_0_0,NA,NA,form submission,5408.1660000119,289272.60000002,289266.801,289275.134,294683.30000001,294684,2023-03-25T11:20:06Z,294692.11,NULL,Toleranz,kuvumiliana,d,NA,NA,NA,masenga,NA,NA,1,NA,NA,NA,NA,NA,NA,NA,NA,NA,NA,NA,NA,NA,NA,NA,NA,NA,NA,NA
d1263,"""Richtig""-Screen",canvas.Screen,3_0_1_0_6_0_1,NA,NA,skipped,NA,294687.60000002,NA,NA,294683.30000001,294687.80000001,2023-03-25T11:20:06Z,294692.11,NULL,Toleranz,kuvumiliana,d,NA,NA,NA,NA,sdfdsf,NA,1,NA,NA,NA,NA,NA,NA,NA,NA,NA,NA,NA,NA,NA,NA,NA,NA,NA,NA,NA
d1263,"""Falsch""-Screen",canvas.Screen,3_0_1_0_6_0_2,NA,NA,timeout,4999.8,294688.5,294675.444,294692.11,299683.577,299685.40000004,2023-03-25T11:20:11Z,299691.91,NULL,Toleranz,kuvumiliana,d,NA,NA,NA,NA,sdfdsf,0,1,NA,NA,NA,NA,NA,NA,NA,NA,NA,NA,NA,NA,NA,NA,NA,NA,NA,NA,NA
d1263,deep,flow.Sequence,3_0_1_0_6_0,NA,NA,completion,10408.443,289272.60000002,289266.801,289275.134,299683.577,299686,2023-03-25T11:20:11Z,299691.91,NULL,Toleranz,kuvumiliana,d,NA,NA,NA,NA,sdfdsf,NA,1,NA,NA,NA,NA,NA,NA,NA,NA,NA,NA,NA,NA,NA,NA,NA,NA,NA,NA,NA
d1263,shallow,flow.Sequence,3_0_1_0_6_1,NA,NA,skipped,NA,299686.10000002,NA,NA,299683.577,299686.30000001,2023-03-25T11:20:11Z,299691.91,NULL,Toleranz,kuvumiliana,d,NA,NA,NA,NA,sdfdsf,NA,1,NA,NA,NA,NA,NA,NA,NA,NA,NA,NA,NA,NA,NA,NA,NA,NA,NA,NA,NA
d1263,task,flow.Sequence,3_0_1_0_6,NA,NA,completion,10408.443,289272.5,289266.801,289275.134,299683.577,299686.40000004,2023-03-25T11:20:11Z,299691.91,NULL,Toleranz,kuvumiliana,d,NA,NA,NA,NA,sdfdsf,NA,1,NA,NA,NA,NA,NA,NA,NA,NA,NA,NA,NA,NA,NA,NA,NA,NA,NA,NA,NA
d1263,Deep Question,html.Page,3_0_1_0_7_0_0,NA,NA,form submission,3295.4900000358,299686.5,299683.577,299691.91,302987.40000004,302988.20000005,2023-03-25T11:20:14Z,302992.164,NULL,Annäherung,maegesho,d,NA,NA,NA,nekw,NA,NA,1,NA,NA,NA,NA,NA,NA,NA,NA,NA,NA,NA,NA,NA,NA,NA,NA,NA,NA,NA
d1263,"""Richtig""-Screen",canvas.Screen,3_0_1_0_7_0_1,NA,NA,skipped,NA,302992,NA,NA,302987.40000004,302992.20000005,2023-03-25T11:20:14Z,302992.164,NULL,Annäherung,maegesho,d,NA,NA,NA,NA,sdfdsf,NA,1,NA,NA,NA,NA,NA,NA,NA,NA,NA,NA,NA,NA,NA,NA,NA,NA,NA,NA,NA
d1263,"""Falsch""-Screen",canvas.Screen,3_0_1_0_7_0_2,NA,NA,timeout,4999.8,302992.90000004,302983.831,302992.164,307983.631,307986,2023-03-25T11:20:19Z,307991.964,NULL,Annäherung,maegesho,d,NA,NA,NA,NA,sdfdsf,0,1,NA,NA,NA,NA,NA,NA,NA,NA,NA,NA,NA,NA,NA,NA,NA,NA,NA,NA,NA
d1263,deep,flow.Sequence,3_0_1_0_7_0,NA,NA,completion,8291.721,299686.40000004,299683.577,299691.91,307983.631,307986.60000002,2023-03-25T11:20:19Z,307991.964,NULL,Annäherung,maegesho,d,NA,NA,NA,NA,sdfdsf,NA,1,NA,NA,NA,NA,NA,NA,NA,NA,NA,NA,NA,NA,NA,NA,NA,NA,NA,NA,NA
d1263,shallow,flow.Sequence,3_0_1_0_7_1,NA,NA,skipped,NA,307986.80000001,NA,NA,307983.631,307986.90000004,2023-03-25T11:20:19Z,307991.964,NULL,Annäherung,maegesho,d,NA,NA,NA,NA,sdfdsf,NA,1,NA,NA,NA,NA,NA,NA,NA,NA,NA,NA,NA,NA,NA,NA,NA,NA,NA,NA,NA
d1263,task,flow.Sequence,3_0_1_0_7,NA,NA,completion,8291.721,299686.40000004,299683.577,299691.91,307983.631,307987.10000002,2023-03-25T11:20:19Z,307991.964,NULL,Annäherung,maegesho,d,NA,NA,NA,NA,sdfdsf,NA,1,NA,NA,NA,NA,NA,NA,NA,NA,NA,NA,NA,NA,NA,NA,NA,NA,NA,NA,NA
d1263,block,flow.Loop,3_0_1_0,NA,NA,completion,76474.605,231507.90000004,231500.693,231509.026,307983.631,307987.30000001,2023-03-25T11:20:19Z,307991.964,NULL,NA,NA,NA,NA,NA,NA,NA,sdfdsf,NA,1,NA,NA,NA,NA,NA,NA,NA,NA,NA,NA,NA,NA,NA,NA,NA,NA,NA,NA,NA
d1263,weiter,canvas.Screen,3_0_1_1,sdf,keypress(Space),response,984.23600004771,307987.40000004,307983.631,307991.964,308976.20000005,308985.10000002,2023-03-25T11:20:20Z,309008.59,NULL,NA,NA,NA,NA,NA,NA,NA,sdfdsf,NA,1,NA,NA,NA,NA,NA,NA,NA,NA,NA,NA,NA,NA,NA,NA,NA,NA,NA,NA,NA
d1263,check continue,flow.Sequence,3_0_1,NA,NA,completion,77467.174000048,231507.90000004,231500.693,231509.026,308976.20000005,308985.40000004,2023-03-25T11:20:20Z,309008.59,NULL,NA,NA,NA,NA,NA,NA,NA,sdfdsf,NA,1,NA,NA,NA,NA,NA,NA,NA,NA,NA,NA,NA,NA,NA,NA,NA,NA,NA,NA,NA
d1263,deep,flow.Sequence,3_0_2_0_0_0,NA,NA,skipped,NA,309005.10000002,NA,NA,308976.20000005,309005.20000005,2023-03-25T11:20:20Z,309008.59,NULL,Vermutung,udhanifu,s,haramia,tikisho,itifaki,NA,sdf,NA,2,NA,NA,NA,NA,NA,NA,NA,NA,NA,NA,NA,NA,NA,NA,NA,NA,NA,NA,NA
d1263,Shallow Question,html.Page,3_0_2_0_0_1_0,NA,NA,form submission,3434.1100000477,309005.20000005,309000.257,309008.59,312442.70000005,312443.40000004,2023-03-25T11:20:24Z,312450.547,NULL,Vermutung,udhanifu,s,haramia,tikisho,itifaki,udhanifu,NA,NA,2,NA,NA,NA,NA,NA,NA,NA,NA,NA,NA,NA,NA,NA,NA,NA,NA,NA,NA,NA
d1263,"""Richtig""-Screen",canvas.Screen,3_0_2_0_0_1_1,NA,NA,timeout,4999.8,312446.40000004,312433.881,312450.547,317442.014,317445,2023-03-25T11:20:29Z,317450.347,NULL,Vermutung,udhanifu,s,haramia,tikisho,itifaki,NA,sdf,1,2,NA,NA,NA,NA,NA,NA,NA,NA,NA,NA,NA,NA,NA,NA,NA,NA,NA,NA,NA
d1263,"""Falsch""-Screen",canvas.Screen,3_0_2_0_0_1_2,NA,NA,skipped,NA,317450.30000001,NA,NA,317442.014,317450.5,2023-03-25T11:20:29Z,317450.347,NULL,Vermutung,udhanifu,s,haramia,tikisho,itifaki,NA,sdf,NA,2,NA,NA,NA,NA,NA,NA,NA,NA,NA,NA,NA,NA,NA,NA,NA,NA,NA,NA,NA
d1263,shallow,flow.Sequence,3_0_2_0_0_1,NA,NA,completion,8433.424,309005.20000005,309000.257,309008.59,317442.014,317450.60000002,2023-03-25T11:20:29Z,317450.347,NULL,Vermutung,udhanifu,s,haramia,tikisho,itifaki,NA,sdf,NA,2,NA,NA,NA,NA,NA,NA,NA,NA,NA,NA,NA,NA,NA,NA,NA,NA,NA,NA,NA
d1263,task,flow.Sequence,3_0_2_0_0,NA,NA,completion,8433.424,309005,309000.257,309008.59,317442.014,317450.70000005,2023-03-25T11:20:29Z,317450.347,NULL,Vermutung,udhanifu,s,haramia,tikisho,itifaki,NA,sdf,NA,2,NA,NA,NA,NA,NA,NA,NA,NA,NA,NA,NA,NA,NA,NA,NA,NA,NA,NA,NA
d1263,Deep Question,html.Page,3_0_2_0_1_0_0,NA,NA,form submission,8492.653,317450.80000001,317442.014,317450.347,325943,325943.5,2023-03-25T11:20:37Z,325950.4,NULL,Annäherung,maegesho,d,NA,NA,NA,maegesho,NA,NA,2,NA,NA,NA,NA,NA,NA,NA,NA,NA,NA,NA,NA,NA,NA,NA,NA,NA,NA,NA
d1263,"""Richtig""-Screen",canvas.Screen,3_0_2_0_1_0_1,NA,NA,timeout,4999.8,325946.10000002,325942.067,325950.4,330941.867,330944.60000002,2023-03-25T11:20:42Z,330950.2,NULL,Annäherung,maegesho,d,NA,NA,NA,NA,sdf,1,2,NA,NA,NA,NA,NA,NA,NA,NA,NA,NA,NA,NA,NA,NA,NA,NA,NA,NA,NA
d1263,"""Falsch""-Screen",canvas.Screen,3_0_2_0_1_0_2,NA,NA,skipped,NA,330949.5,NA,NA,330941.867,330949.80000001,2023-03-25T11:20:42Z,330950.2,NULL,Annäherung,maegesho,d,NA,NA,NA,NA,sdf,NA,2,NA,NA,NA,NA,NA,NA,NA,NA,NA,NA,NA,NA,NA,NA,NA,NA,NA,NA,NA
d1263,deep,flow.Sequence,3_0_2_0_1_0,NA,NA,completion,13491.52,317450.70000005,317442.014,317450.347,330941.867,330950,2023-03-25T11:20:42Z,330950.2,NULL,Annäherung,maegesho,d,NA,NA,NA,NA,sdf,NA,2,NA,NA,NA,NA,NA,NA,NA,NA,NA,NA,NA,NA,NA,NA,NA,NA,NA,NA,NA
d1263,shallow,flow.Sequence,3_0_2_0_1_1,NA,NA,skipped,NA,330950.10000002,NA,NA,330941.867,330950.10000002,2023-03-25T11:20:42Z,330950.2,NULL,Annäherung,maegesho,d,NA,NA,NA,NA,sdf,NA,2,NA,NA,NA,NA,NA,NA,NA,NA,NA,NA,NA,NA,NA,NA,NA,NA,NA,NA,NA
d1263,task,flow.Sequence,3_0_2_0_1,NA,NA,completion,13491.52,317450.70000005,317442.014,317450.347,330941.867,330950.20000005,2023-03-25T11:20:42Z,330950.2,NULL,Annäherung,maegesho,d,NA,NA,NA,NA,sdf,NA,2,NA,NA,NA,NA,NA,NA,NA,NA,NA,NA,NA,NA,NA,NA,NA,NA,NA,NA,NA
d1263,deep,flow.Sequence,3_0_2_0_2_0,NA,NA,skipped,NA,330950.20000005,NA,NA,330941.867,330950.30000001,2023-03-25T11:20:42Z,330950.2,NULL,Beweis,ushahidi,s,marudio,kizuizi,mtendaji,NA,sdf,NA,2,NA,NA,NA,NA,NA,NA,NA,NA,NA,NA,NA,NA,NA,NA,NA,NA,NA,NA,NA
d1263,Shallow Question,html.Page,3_0_2_0_2_1_0,NA,NA,form submission,3999.0000000477,330950.40000004,330941.867,330950.2,334949.20000005,334950,2023-03-25T11:20:46Z,334958.782,NULL,Beweis,ushahidi,s,marudio,kizuizi,mtendaji,ushahidi,NA,NA,2,NA,NA,NA,NA,NA,NA,NA,NA,NA,NA,NA,NA,NA,NA,NA,NA,NA,NA,NA
d1263,"""Richtig""-Screen",canvas.Screen,3_0_2_0_2_1_1,NA,NA,timeout,4999.8,334953.60000002,334942.116,334958.782,339950.249,339952.60000002,2023-03-25T11:20:51Z,339958.582,NULL,Beweis,ushahidi,s,marudio,kizuizi,mtendaji,NA,sdf,1,2,NA,NA,NA,NA,NA,NA,NA,NA,NA,NA,NA,NA,NA,NA,NA,NA,NA,NA,NA
d1263,"""Falsch""-Screen",canvas.Screen,3_0_2_0_2_1_2,NA,NA,skipped,NA,339957.60000002,NA,NA,339950.249,339957.80000001,2023-03-25T11:20:51Z,339958.582,NULL,Beweis,ushahidi,s,marudio,kizuizi,mtendaji,NA,sdf,NA,2,NA,NA,NA,NA,NA,NA,NA,NA,NA,NA,NA,NA,NA,NA,NA,NA,NA,NA,NA
d1263,shallow,flow.Sequence,3_0_2_0_2_1,NA,NA,completion,9000.049,330950.40000004,330941.867,330950.2,339950.249,339958,2023-03-25T11:20:51Z,339958.582,NULL,Beweis,ushahidi,s,marudio,kizuizi,mtendaji,NA,sdf,NA,2,NA,NA,NA,NA,NA,NA,NA,NA,NA,NA,NA,NA,NA,NA,NA,NA,NA,NA,NA
d1263,task,flow.Sequence,3_0_2_0_2,NA,NA,completion,9000.049,330950.20000005,330941.867,330950.2,339950.249,339958,2023-03-25T11:20:51Z,339958.582,NULL,Beweis,ushahidi,s,marudio,kizuizi,mtendaji,NA,sdf,NA,2,NA,NA,NA,NA,NA,NA,NA,NA,NA,NA,NA,NA,NA,NA,NA,NA,NA,NA,NA
d1263,Deep Question,html.Page,3_0_2_0_3_0_0,NA,NA,form submission,8397.918,339958.10000002,339950.249,339958.582,348356.5,348357,2023-03-25T11:21:00Z,348366.992,NULL,Sympathie,mapendano,d,NA,NA,NA,kuviliana,NA,NA,2,NA,NA,NA,NA,NA,NA,NA,NA,NA,NA,NA,NA,NA,NA,NA,NA,NA,NA,NA
d1263,"""Richtig""-Screen",canvas.Screen,3_0_2_0_3_0_1,NA,NA,skipped,NA,348359.90000004,NA,NA,348356.5,348360,2023-03-25T11:21:00Z,348366.992,NULL,Sympathie,mapendano,d,NA,NA,NA,NA,sdf,NA,2,NA,NA,NA,NA,NA,NA,NA,NA,NA,NA,NA,NA,NA,NA,NA,NA,NA,NA,NA
d1263,"""Falsch""-Screen",canvas.Screen,3_0_2_0_3_0_2,NA,NA,timeout,4999.8,348360.60000002,348350.326,348366.992,353358.459,353359.70000005,2023-03-25T11:21:05Z,353366.792,NULL,Sympathie,mapendano,d,NA,NA,NA,NA,sdf,0,2,NA,NA,NA,NA,NA,NA,NA,NA,NA,NA,NA,NA,NA,NA,NA,NA,NA,NA,NA
d1263,deep,flow.Sequence,3_0_2_0_3_0,NA,NA,completion,13399.877,339958.10000002,339950.249,339958.582,353358.459,353359.90000004,2023-03-25T11:21:05Z,353366.792,NULL,Sympathie,mapendano,d,NA,NA,NA,NA,sdf,NA,2,NA,NA,NA,NA,NA,NA,NA,NA,NA,NA,NA,NA,NA,NA,NA,NA,NA,NA,NA
d1263,shallow,flow.Sequence,3_0_2_0_3_1,NA,NA,skipped,NA,353360,NA,NA,353358.459,353360,2023-03-25T11:21:05Z,353366.792,NULL,Sympathie,mapendano,d,NA,NA,NA,NA,sdf,NA,2,NA,NA,NA,NA,NA,NA,NA,NA,NA,NA,NA,NA,NA,NA,NA,NA,NA,NA,NA
d1263,task,flow.Sequence,3_0_2_0_3,NA,NA,completion,13399.877,339958,339950.249,339958.582,353358.459,353360.10000002,2023-03-25T11:21:05Z,353366.792,NULL,Sympathie,mapendano,d,NA,NA,NA,NA,sdf,NA,2,NA,NA,NA,NA,NA,NA,NA,NA,NA,NA,NA,NA,NA,NA,NA,NA,NA,NA,NA
d1263,Deep Question,html.Page,3_0_2_0_4_0_0,NA,NA,form submission,10555.608000036,353360.20000005,353358.459,353366.792,363922.40000004,363923.10000002,2023-03-25T11:21:15Z,363929.706,NULL,Toleranz,kuvumiliana,d,NA,NA,NA,maegesho,NA,NA,2,NA,NA,NA,NA,NA,NA,NA,NA,NA,NA,NA,NA,NA,NA,NA,NA,NA,NA,NA
d1263,"""Richtig""-Screen",canvas.Screen,3_0_2_0_4_0_1,NA,NA,skipped,NA,363927,NA,NA,363922.40000004,363927.10000002,2023-03-25T11:21:15Z,363929.706,NULL,Toleranz,kuvumiliana,d,NA,NA,NA,NA,sdf,NA,2,NA,NA,NA,NA,NA,NA,NA,NA,NA,NA,NA,NA,NA,NA,NA,NA,NA,NA,NA
d1263,"""Falsch""-Screen",canvas.Screen,3_0_2_0_4_0_2,NA,NA,timeout,4999.8,363927.90000004,363913.04,363929.706,368921.173,368924.30000001,2023-03-25T11:21:20Z,368929.506,NULL,Toleranz,kuvumiliana,d,NA,NA,NA,NA,sdf,0,2,NA,NA,NA,NA,NA,NA,NA,NA,NA,NA,NA,NA,NA,NA,NA,NA,NA,NA,NA
d1263,deep,flow.Sequence,3_0_2_0_4_0,NA,NA,completion,15554.381,353360.20000005,353358.459,353366.792,368921.173,368924.80000001,2023-03-25T11:21:20Z,368929.506,NULL,Toleranz,kuvumiliana,d,NA,NA,NA,NA,sdf,NA,2,NA,NA,NA,NA,NA,NA,NA,NA,NA,NA,NA,NA,NA,NA,NA,NA,NA,NA,NA
d1263,shallow,flow.Sequence,3_0_2_0_4_1,NA,NA,skipped,NA,368925.10000002,NA,NA,368921.173,368925.30000001,2023-03-25T11:21:20Z,368929.506,NULL,Toleranz,kuvumiliana,d,NA,NA,NA,NA,sdf,NA,2,NA,NA,NA,NA,NA,NA,NA,NA,NA,NA,NA,NA,NA,NA,NA,NA,NA,NA,NA
d1263,task,flow.Sequence,3_0_2_0_4,NA,NA,completion,15554.381,353360.10000002,353358.459,353366.792,368921.173,368925.40000004,2023-03-25T11:21:20Z,368929.506,NULL,Toleranz,kuvumiliana,d,NA,NA,NA,NA,sdf,NA,2,NA,NA,NA,NA,NA,NA,NA,NA,NA,NA,NA,NA,NA,NA,NA,NA,NA,NA,NA
d1263,deep,flow.Sequence,3_0_2_0_5_0,NA,NA,skipped,NA,368925.60000002,NA,NA,368921.173,368925.70000005,2023-03-25T11:21:20Z,368929.506,NULL,Polizist,msongora,s,simanzi,mandhari,nidhamu,NA,sdf,NA,2,NA,NA,NA,NA,NA,NA,NA,NA,NA,NA,NA,NA,NA,NA,NA,NA,NA,NA,NA
d1263,Shallow Question,html.Page,3_0_2_0_5_1_0,NA,NA,form submission,3519.1940000477,368925.80000001,368921.173,368929.506,372448.70000005,372449,2023-03-25T11:21:24Z,372454.365,NULL,Polizist,msongora,s,simanzi,mandhari,nidhamu,msongora,NA,NA,2,NA,NA,NA,NA,NA,NA,NA,NA,NA,NA,NA,NA,NA,NA,NA,NA,NA,NA,NA
d1263,"""Richtig""-Screen",canvas.Screen,3_0_2_0_5_1_1,NA,NA,timeout,4999.8,372452.40000004,372446.032,372454.365,377445.832,377448.70000005,2023-03-25T11:21:29Z,377454.165,NULL,Polizist,msongora,s,simanzi,mandhari,nidhamu,NA,sdf,1,2,NA,NA,NA,NA,NA,NA,NA,NA,NA,NA,NA,NA,NA,NA,NA,NA,NA,NA,NA
d1263,"""Falsch""-Screen",canvas.Screen,3_0_2_0_5_1_2,NA,NA,skipped,NA,377453.40000004,NA,NA,377445.832,377453.5,2023-03-25T11:21:29Z,377454.165,NULL,Polizist,msongora,s,simanzi,mandhari,nidhamu,NA,sdf,NA,2,NA,NA,NA,NA,NA,NA,NA,NA,NA,NA,NA,NA,NA,NA,NA,NA,NA,NA,NA
d1263,shallow,flow.Sequence,3_0_2_0_5_1,NA,NA,completion,8516.326,368925.80000001,368921.173,368929.506,377445.832,377453.70000005,2023-03-25T11:21:29Z,377454.165,NULL,Polizist,msongora,s,simanzi,mandhari,nidhamu,NA,sdf,NA,2,NA,NA,NA,NA,NA,NA,NA,NA,NA,NA,NA,NA,NA,NA,NA,NA,NA,NA,NA
d1263,task,flow.Sequence,3_0_2_0_5,NA,NA,completion,8516.326,368925.5,368921.173,368929.506,377445.832,377453.80000001,2023-03-25T11:21:29Z,377454.165,NULL,Polizist,msongora,s,simanzi,mandhari,nidhamu,NA,sdf,NA,2,NA,NA,NA,NA,NA,NA,NA,NA,NA,NA,NA,NA,NA,NA,NA,NA,NA,NA,NA
d1263,Deep Question,html.Page,3_0_2_0_6_0_0,NA,NA,form submission,3141.4350000239,377453.90000004,377445.832,377454.165,380595.60000002,380596.10000002,2023-03-25T11:21:32Z,380600.397,NULL,Schlange,foleni,d,NA,NA,NA,foleni,NA,NA,2,NA,NA,NA,NA,NA,NA,NA,NA,NA,NA,NA,NA,NA,NA,NA,NA,NA,NA,NA
d1263,"""Richtig""-Screen",canvas.Screen,3_0_2_0_6_0_1,NA,NA,timeout,4999.8,380599,380592.064,380600.397,385591.864,385594.5,2023-03-25T11:21:37Z,385600.197,NULL,Schlange,foleni,d,NA,NA,NA,NA,sdf,1,2,NA,NA,NA,NA,NA,NA,NA,NA,NA,NA,NA,NA,NA,NA,NA,NA,NA,NA,NA
d1263,"""Falsch""-Screen",canvas.Screen,3_0_2_0_6_0_2,NA,NA,skipped,NA,385599.20000005,NA,NA,385591.864,385599.40000004,2023-03-25T11:21:37Z,385600.197,NULL,Schlange,foleni,d,NA,NA,NA,NA,sdf,NA,2,NA,NA,NA,NA,NA,NA,NA,NA,NA,NA,NA,NA,NA,NA,NA,NA,NA,NA,NA
d1263,deep,flow.Sequence,3_0_2_0_6_0,NA,NA,completion,8137.699,377453.90000004,377445.832,377454.165,385591.864,385599.5,2023-03-25T11:21:37Z,385600.197,NULL,Schlange,foleni,d,NA,NA,NA,NA,sdf,NA,2,NA,NA,NA,NA,NA,NA,NA,NA,NA,NA,NA,NA,NA,NA,NA,NA,NA,NA,NA
d1263,shallow,flow.Sequence,3_0_2_0_6_1,NA,NA,skipped,NA,385599.5,NA,NA,385591.864,385599.60000002,2023-03-25T11:21:37Z,385600.197,NULL,Schlange,foleni,d,NA,NA,NA,NA,sdf,NA,2,NA,NA,NA,NA,NA,NA,NA,NA,NA,NA,NA,NA,NA,NA,NA,NA,NA,NA,NA
d1263,task,flow.Sequence,3_0_2_0_6,NA,NA,completion,8137.699,377453.80000001,377445.832,377454.165,385591.864,385599.70000005,2023-03-25T11:21:37Z,385600.197,NULL,Schlange,foleni,d,NA,NA,NA,NA,sdf,NA,2,NA,NA,NA,NA,NA,NA,NA,NA,NA,NA,NA,NA,NA,NA,NA,NA,NA,NA,NA
d1263,deep,flow.Sequence,3_0_2_0_7_0,NA,NA,skipped,NA,385599.80000001,NA,NA,385591.864,385599.80000001,2023-03-25T11:21:37Z,385600.197,NULL,Inhalt,yaliyomo,s,kishawishi,hifadhi,kutembea,NA,sdf,NA,2,NA,NA,NA,NA,NA,NA,NA,NA,NA,NA,NA,NA,NA,NA,NA,NA,NA,NA,NA
d1263,Shallow Question,html.Page,3_0_2_0_7_1_0,NA,NA,form submission,4228.803,385599.90000004,385591.864,385600.197,389829,389829.80000001,2023-03-25T11:21:41Z,389837.943,NULL,Inhalt,yaliyomo,s,kishawishi,hifadhi,kutembea,yaliyomo,NA,NA,2,NA,NA,NA,NA,NA,NA,NA,NA,NA,NA,NA,NA,NA,NA,NA,NA,NA,NA,NA
d1263,"""Richtig""-Screen",canvas.Screen,3_0_2_0_7_1_1,NA,NA,timeout,4999.8,389833.20000005,389821.277,389837.943,394829.41,394832.10000002,2023-03-25T11:21:46Z,394837.743,NULL,Inhalt,yaliyomo,s,kishawishi,hifadhi,kutembea,NA,sdf,1,2,NA,NA,NA,NA,NA,NA,NA,NA,NA,NA,NA,NA,NA,NA,NA,NA,NA,NA,NA
d1263,"""Falsch""-Screen",canvas.Screen,3_0_2_0_7_1_2,NA,NA,skipped,NA,394837,NA,NA,394829.41,394837.10000002,2023-03-25T11:21:46Z,394837.743,NULL,Inhalt,yaliyomo,s,kishawishi,hifadhi,kutembea,NA,sdf,NA,2,NA,NA,NA,NA,NA,NA,NA,NA,NA,NA,NA,NA,NA,NA,NA,NA,NA,NA,NA
d1263,shallow,flow.Sequence,3_0_2_0_7_1,NA,NA,completion,9229.213,385599.90000004,385591.864,385600.197,394829.41,394837.30000001,2023-03-25T11:21:46Z,394837.743,NULL,Inhalt,yaliyomo,s,kishawishi,hifadhi,kutembea,NA,sdf,NA,2,NA,NA,NA,NA,NA,NA,NA,NA,NA,NA,NA,NA,NA,NA,NA,NA,NA,NA,NA
d1263,task,flow.Sequence,3_0_2_0_7,NA,NA,completion,9229.213,385599.80000001,385591.864,385600.197,394829.41,394837.40000004,2023-03-25T11:21:46Z,394837.743,NULL,Inhalt,yaliyomo,s,kishawishi,hifadhi,kutembea,NA,sdf,NA,2,NA,NA,NA,NA,NA,NA,NA,NA,NA,NA,NA,NA,NA,NA,NA,NA,NA,NA,NA
d1263,block,flow.Loop,3_0_2_0,NA,NA,completion,85820.82,309005,309000.257,309008.59,394829.41,394837.5,2023-03-25T11:21:46Z,394837.743,NULL,NA,NA,NA,NA,NA,NA,NA,sdf,NA,2,NA,NA,NA,NA,NA,NA,NA,NA,NA,NA,NA,NA,NA,NA,NA,NA,NA,NA,NA
d1263,weiter,canvas.Screen,3_0_2_1,sdf,keypress(Space),response,764.85700002383,394837.60000002,394829.41,394837.743,395602.60000002,395610.20000005,2023-03-25T11:21:47Z,395821.037,NULL,NA,NA,NA,NA,NA,NA,NA,sdf,NA,2,NA,NA,NA,NA,NA,NA,NA,NA,NA,NA,NA,NA,NA,NA,NA,NA,NA,NA,NA
d1263,check continue,flow.Sequence,3_0_2,NA,NA,completion,86594.010000024,309005,309000.257,309008.59,395602.60000002,395610.5,2023-03-25T11:21:47Z,395821.037,NULL,NA,NA,NA,NA,NA,NA,NA,sdf,NA,2,NA,NA,NA,NA,NA,NA,NA,NA,NA,NA,NA,NA,NA,NA,NA,NA,NA,NA,NA
d1263,check continue,flow.Sequence,3_0_3,NA,NA,skipped,NA,395631.80000001,NA,NA,395602.60000002,395631.90000004,2023-03-25T11:21:47Z,395821.037,NULL,NA,NA,NA,NA,NA,NA,NA,qt,NA,3,NA,NA,NA,NA,NA,NA,NA,NA,NA,NA,NA,NA,NA,NA,NA,NA,NA,NA,NA
d1263,check continue,flow.Sequence,3_0_4,NA,NA,skipped,NA,395643.60000002,NA,NA,395602.60000002,395643.80000001,2023-03-25T11:21:47Z,395821.037,NULL,NA,NA,NA,NA,NA,NA,NA,sd,NA,4,NA,NA,NA,NA,NA,NA,NA,NA,NA,NA,NA,NA,NA,NA,NA,NA,NA,NA,NA
d1263,check continue,flow.Sequence,3_0_5,NA,NA,skipped,NA,395653.10000002,NA,NA,395602.60000002,395653.10000002,2023-03-25T11:21:47Z,395821.037,NULL,NA,NA,NA,NA,NA,NA,NA,sdf,NA,5,NA,NA,NA,NA,NA,NA,NA,NA,NA,NA,NA,NA,NA,NA,NA,NA,NA,NA,NA
d1263,check continue,flow.Sequence,3_0_6,NA,NA,skipped,NA,395661.40000004,NA,NA,395602.60000002,395661.5,2023-03-25T11:21:47Z,395821.037,NULL,NA,NA,NA,NA,NA,NA,NA,dfs,NA,6,NA,NA,NA,NA,NA,NA,NA,NA,NA,NA,NA,NA,NA,NA,NA,NA,NA,NA,NA
d1263,check continue,flow.Sequence,3_0_7,NA,NA,skipped,NA,395669.10000002,NA,NA,395602.60000002,395669.20000005,2023-03-25T11:21:47Z,395821.037,NULL,NA,NA,NA,NA,NA,NA,NA,df,NA,7,NA,NA,NA,NA,NA,NA,NA,NA,NA,NA,NA,NA,NA,NA,NA,NA,NA,NA,NA
d1263,check continue,flow.Sequence,3_0_8,NA,NA,skipped,NA,395676.80000001,NA,NA,395602.60000002,395676.80000001,2023-03-25T11:21:47Z,395821.037,NULL,NA,NA,NA,NA,NA,NA,NA,dfs,NA,8,NA,NA,NA,NA,NA,NA,NA,NA,NA,NA,NA,NA,NA,NA,NA,NA,NA,NA,NA
d1263,check continue,flow.Sequence,3_0_9,NA,NA,skipped,NA,395683.90000004,NA,NA,395602.60000002,395683.90000004,2023-03-25T11:21:47Z,395821.037,NULL,NA,NA,NA,NA,NA,NA,NA,dsf,NA,9,NA,NA,NA,NA,NA,NA,NA,NA,NA,NA,NA,NA,NA,NA,NA,NA,NA,NA,NA
d1263,check continue,flow.Sequence,3_0_10,NA,NA,skipped,NA,395691.5,NA,NA,395602.60000002,395691.5,2023-03-25T11:21:47Z,395821.037,NULL,NA,NA,NA,NA,NA,NA,NA,df,NA,10,NA,NA,NA,NA,NA,NA,NA,NA,NA,NA,NA,NA,NA,NA,NA,NA,NA,NA,NA
d1263,check continue,flow.Sequence,3_0_11,NA,NA,skipped,NA,395698.10000002,NA,NA,395602.60000002,395698.20000005,2023-03-25T11:21:47Z,395821.037,NULL,NA,NA,NA,NA,NA,NA,NA,dfs,NA,11,NA,NA,NA,NA,NA,NA,NA,NA,NA,NA,NA,NA,NA,NA,NA,NA,NA,NA,NA
d1263,check continue,flow.Sequence,3_0_12,NA,NA,skipped,NA,395704.40000004,NA,NA,395602.60000002,395704.40000004,2023-03-25T11:21:47Z,395821.037,NULL,NA,NA,NA,NA,NA,NA,NA,dsf,NA,12,NA,NA,NA,NA,NA,NA,NA,NA,NA,NA,NA,NA,NA,NA,NA,NA,NA,NA,NA
d1263,check continue,flow.Sequence,3_0_13,NA,NA,skipped,NA,395710.70000005,NA,NA,395602.60000002,395710.70000005,2023-03-25T11:21:47Z,395821.037,NULL,NA,NA,NA,NA,NA,NA,NA,dsf,NA,13,NA,NA,NA,NA,NA,NA,NA,NA,NA,NA,NA,NA,NA,NA,NA,NA,NA,NA,NA
d1263,check continue,flow.Sequence,3_0_14,NA,NA,skipped,NA,395717.10000002,NA,NA,395602.60000002,395717.20000005,2023-03-25T11:21:47Z,395821.037,NULL,NA,NA,NA,NA,NA,NA,NA,NA,NA,14,NA,NA,NA,NA,NA,NA,NA,NA,NA,NA,NA,NA,NA,NA,NA,NA,NA,NA,NA
d1263,check continue,flow.Sequence,3_0_15,NA,NA,skipped,NA,395723.80000001,NA,NA,395602.60000002,395723.90000004,2023-03-25T11:21:47Z,395821.037,NULL,NA,NA,NA,NA,NA,NA,NA,NA,NA,15,NA,NA,NA,NA,NA,NA,NA,NA,NA,NA,NA,NA,NA,NA,NA,NA,NA,NA,NA
d1263,check continue,flow.Sequence,3_0_16,NA,NA,skipped,NA,395730.10000002,NA,NA,395602.60000002,395730.10000002,2023-03-25T11:21:47Z,395821.037,NULL,NA,NA,NA,NA,NA,NA,NA,NA,NA,16,NA,NA,NA,NA,NA,NA,NA,NA,NA,NA,NA,NA,NA,NA,NA,NA,NA,NA,NA
d1263,check continue,flow.Sequence,3_0_17,NA,NA,skipped,NA,395736.5,NA,NA,395602.60000002,395736.5,2023-03-25T11:21:47Z,395821.037,NULL,NA,NA,NA,NA,NA,NA,NA,NA,NA,17,NA,NA,NA,NA,NA,NA,NA,NA,NA,NA,NA,NA,NA,NA,NA,NA,NA,NA,NA
d1263,check continue,flow.Sequence,3_0_18,NA,NA,skipped,NA,395743.10000002,NA,NA,395602.60000002,395743.10000002,2023-03-25T11:21:47Z,395821.037,NULL,NA,NA,NA,NA,NA,NA,NA,NA,NA,18,NA,NA,NA,NA,NA,NA,NA,NA,NA,NA,NA,NA,NA,NA,NA,NA,NA,NA,NA
d1263,check continue,flow.Sequence,3_0_19,NA,NA,skipped,NA,395749.5,NA,NA,395602.60000002,395749.5,2023-03-25T11:21:47Z,395821.037,NULL,NA,NA,NA,NA,NA,NA,NA,NA,NA,19,NA,NA,NA,NA,NA,NA,NA,NA,NA,NA,NA,NA,NA,NA,NA,NA,NA,NA,NA
d1263,check continue,flow.Sequence,3_0_20,NA,NA,skipped,NA,395755.90000004,NA,NA,395602.60000002,395755.90000004,2023-03-25T11:21:47Z,395821.037,NULL,NA,NA,NA,NA,NA,NA,NA,NA,NA,20,NA,NA,NA,NA,NA,NA,NA,NA,NA,NA,NA,NA,NA,NA,NA,NA,NA,NA,NA
d1263,check continue,flow.Sequence,3_0_21,NA,NA,skipped,NA,395761.70000005,NA,NA,395602.60000002,395761.80000001,2023-03-25T11:21:47Z,395821.037,NULL,NA,NA,NA,NA,NA,NA,NA,NA,NA,21,NA,NA,NA,NA,NA,NA,NA,NA,NA,NA,NA,NA,NA,NA,NA,NA,NA,NA,NA
d1263,check continue,flow.Sequence,3_0_22,NA,NA,skipped,NA,395768.30000001,NA,NA,395602.60000002,395768.30000001,2023-03-25T11:21:47Z,395821.037,NULL,NA,NA,NA,NA,NA,NA,NA,NA,NA,22,NA,NA,NA,NA,NA,NA,NA,NA,NA,NA,NA,NA,NA,NA,NA,NA,NA,NA,NA
d1263,check continue,flow.Sequence,3_0_23,NA,NA,skipped,NA,395774.10000002,NA,NA,395602.60000002,395774.10000002,2023-03-25T11:21:47Z,395821.037,NULL,NA,NA,NA,NA,NA,NA,NA,NA,NA,23,NA,NA,NA,NA,NA,NA,NA,NA,NA,NA,NA,NA,NA,NA,NA,NA,NA,NA,NA
d1263,check continue,flow.Sequence,3_0_24,NA,NA,skipped,NA,395780.5,NA,NA,395602.60000002,395780.60000002,2023-03-25T11:21:47Z,395821.037,NULL,NA,NA,NA,NA,NA,NA,NA,NA,NA,24,NA,NA,NA,NA,NA,NA,NA,NA,NA,NA,NA,NA,NA,NA,NA,NA,NA,NA,NA
d1263,check continue,flow.Sequence,3_0_25,NA,NA,skipped,NA,395786.40000004,NA,NA,395602.60000002,395786.40000004,2023-03-25T11:21:47Z,395821.037,NULL,NA,NA,NA,NA,NA,NA,NA,NA,NA,25,NA,NA,NA,NA,NA,NA,NA,NA,NA,NA,NA,NA,NA,NA,NA,NA,NA,NA,NA
d1263,check continue,flow.Sequence,3_0_26,NA,NA,skipped,NA,395798,NA,NA,395602.60000002,395798.10000002,2023-03-25T11:21:47Z,395821.037,NULL,NA,NA,NA,NA,NA,NA,NA,NA,NA,26,NA,NA,NA,NA,NA,NA,NA,NA,NA,NA,NA,NA,NA,NA,NA,NA,NA,NA,NA
d1263,check continue,flow.Sequence,3_0_27,NA,NA,skipped,NA,395804.40000004,NA,NA,395602.60000002,395804.40000004,2023-03-25T11:21:47Z,395821.037,NULL,NA,NA,NA,NA,NA,NA,NA,NA,NA,27,NA,NA,NA,NA,NA,NA,NA,NA,NA,NA,NA,NA,NA,NA,NA,NA,NA,NA,NA
d1263,check continue,flow.Sequence,3_0_28,NA,NA,skipped,NA,395810.80000001,NA,NA,395602.60000002,395810.90000004,2023-03-25T11:21:47Z,395821.037,NULL,NA,NA,NA,NA,NA,NA,NA,NA,NA,28,NA,NA,NA,NA,NA,NA,NA,NA,NA,NA,NA,NA,NA,NA,NA,NA,NA,NA,NA
d1263,check continue,flow.Sequence,3_0_29,NA,NA,skipped,NA,395816.5,NA,NA,395602.60000002,395816.5,2023-03-25T11:21:47Z,395821.037,NULL,NA,NA,NA,NA,NA,NA,NA,NA,NA,29,NA,NA,NA,NA,NA,NA,NA,NA,NA,NA,NA,NA,NA,NA,NA,NA,NA,NA,NA
d1263,until continue,flow.Loop,3_0,NA,NA,completion,234737.51500002,160848.10000002,160856.752,160865.085,395602.60000002,395816.60000002,2023-03-25T11:21:47Z,395821.037,NULL,NA,NA,NA,NA,NA,NA,NA,NA,NA,NA,NA,NA,NA,NA,NA,NA,NA,NA,NA,NA,NA,NA,NA,NA,NA,NA,NA,NA,NA
d1263,block 1,flow.Sequence,3,NA,NA,completion,234737.51500002,160848.10000002,160856.752,160865.085,395602.60000002,395816.60000002,2023-03-25T11:21:47Z,395821.037,NULL,NA,NA,NA,NA,NA,NA,NA,NA,NA,NA,NA,NA,NA,NA,NA,NA,NA,NA,NA,NA,NA,NA,NA,NA,NA,NA,NA,NA,NA
d1263,1.Part Over,canvas.Screen,4,NA,keypress(Space),response,1885.463,395816.60000002,395812.704,395821.037,397706.5,397714,2023-03-25T11:21:49Z,397762.626,NULL,NA,NA,NA,NA,NA,NA,NA,NA,NA,NA,NA,NA,NA,NA,NA,NA,NA,NA,NA,NA,NA,NA,NA,NA,NA,NA,NA,NA,NA
d1263,deep,flow.Sequence,5_0_0_0_0_0,NA,NA,skipped,NA,397754.80000001,NA,NA,397706.5,397754.90000004,2023-03-25T11:21:49Z,397762.626,NULL,Wettbewerb,ushindani,s,mapendezi,kichocheo,ubaguzi,NA,sdf,NA,0,NA,NA,NA,NA,NA,NA,NA,NA,NA,NA,NA,NA,NA,NA,NA,NA,NA,NA,NA
d1263,Shallow Question,html.Page,5_0_0_0_0_1_0,NA,NA,form submission,4340.2740000358,397754.90000004,397754.293,397762.626,402102.90000004,402103.30000001,2023-03-25T11:21:54Z,402104.543,NULL,Wettbewerb,ushindani,s,mapendezi,kichocheo,ubaguzi,mapendezi,NA,NA,0,NA,NA,NA,NA,NA,NA,NA,NA,NA,NA,NA,NA,NA,NA,NA,NA,NA,NA,NA
d1263,"""Richtig""-Screen",canvas.Screen,5_0_0_0_0_1_1,NA,NA,skipped,NA,402106.40000004,NA,NA,402102.90000004,402106.5,2023-03-25T11:21:54Z,402104.543,NULL,Wettbewerb,ushindani,s,mapendezi,kichocheo,ubaguzi,NA,sdf,NA,0,NA,NA,NA,NA,NA,NA,NA,NA,NA,NA,NA,NA,NA,NA,NA,NA,NA,NA,NA
d1263,"""Falsch""-Screen",canvas.Screen,5_0_0_0_0_1_2,NA,NA,timeout,4999.8,402107.10000002,402096.21,402104.543,407096.01,407097.90000004,2023-03-25T11:21:59Z,407104.343,NULL,Wettbewerb,ushindani,s,mapendezi,kichocheo,ubaguzi,NA,sdf,0,0,NA,NA,NA,NA,NA,NA,NA,NA,NA,NA,NA,NA,NA,NA,NA,NA,NA,NA,NA
d1263,shallow,flow.Sequence,5_0_0_0_0_1,NA,NA,completion,9333.384,397754.90000004,397754.293,397762.626,407096.01,407098.5,2023-03-25T11:21:59Z,407104.343,NULL,Wettbewerb,ushindani,s,mapendezi,kichocheo,ubaguzi,NA,sdf,NA,0,NA,NA,NA,NA,NA,NA,NA,NA,NA,NA,NA,NA,NA,NA,NA,NA,NA,NA,NA
d1263,task,flow.Sequence,5_0_0_0_0,NA,NA,completion,9333.384,397754.80000001,397754.293,397762.626,407096.01,407098.70000005,2023-03-25T11:21:59Z,407104.343,NULL,Wettbewerb,ushindani,s,mapendezi,kichocheo,ubaguzi,NA,sdf,NA,0,NA,NA,NA,NA,NA,NA,NA,NA,NA,NA,NA,NA,NA,NA,NA,NA,NA,NA,NA
d1263,Deep Question,html.Page,5_0_0_0_1_0_0,NA,NA,form submission,2124.2570000238,407098.90000004,407096.01,407104.343,409228.60000002,409228.90000004,2023-03-25T11:22:01Z,409237.591,NULL,Theorie,nadharia,d,NA,NA,NA,wekn,NA,NA,0,NA,NA,NA,NA,NA,NA,NA,NA,NA,NA,NA,NA,NA,NA,NA,NA,NA,NA,NA
d1263,"""Richtig""-Screen",canvas.Screen,5_0_0_0_1_0_1,NA,NA,skipped,NA,409230.80000001,NA,NA,409228.60000002,409230.90000004,2023-03-25T11:22:01Z,409237.591,NULL,Theorie,nadharia,d,NA,NA,NA,NA,sdf,NA,0,NA,NA,NA,NA,NA,NA,NA,NA,NA,NA,NA,NA,NA,NA,NA,NA,NA,NA,NA
d1263,"""Falsch""-Screen",canvas.Screen,5_0_0_0_1_0_2,NA,NA,timeout,4996.024,409231.20000005,409220.925,409237.591,414225.282,414228.40000004,2023-03-25T11:22:06Z,414233.615,NULL,Theorie,nadharia,d,NA,NA,NA,NA,sdf,0,0,NA,NA,NA,NA,NA,NA,NA,NA,NA,NA,NA,NA,NA,NA,NA,NA,NA,NA,NA
d1263,deep,flow.Sequence,5_0_0_0_1_0,NA,NA,completion,7120.939,407098.90000004,407096.01,407104.343,414225.282,414228.80000001,2023-03-25T11:22:06Z,414233.615,NULL,Theorie,nadharia,d,NA,NA,NA,NA,sdf,NA,0,NA,NA,NA,NA,NA,NA,NA,NA,NA,NA,NA,NA,NA,NA,NA,NA,NA,NA,NA
d1263,shallow,flow.Sequence,5_0_0_0_1_1,NA,NA,skipped,NA,414229,NA,NA,414225.282,414229.10000002,2023-03-25T11:22:06Z,414233.615,NULL,Theorie,nadharia,d,NA,NA,NA,NA,sdf,NA,0,NA,NA,NA,NA,NA,NA,NA,NA,NA,NA,NA,NA,NA,NA,NA,NA,NA,NA,NA
d1263,task,flow.Sequence,5_0_0_0_1,NA,NA,completion,7120.939,407098.80000001,407096.01,407104.343,414225.282,414229.30000001,2023-03-25T11:22:06Z,414233.615,NULL,Theorie,nadharia,d,NA,NA,NA,NA,sdf,NA,0,NA,NA,NA,NA,NA,NA,NA,NA,NA,NA,NA,NA,NA,NA,NA,NA,NA,NA,NA
d1263,Deep Question,html.Page,5_0_0_0_2_0_0,NA,NA,form submission,2230.7850000358,414229.5,414225.282,414233.615,416464.40000004,416464.80000001,2023-03-25T11:22:08Z,416475.192,NULL,Schönheit,kirembo,d,NA,NA,NA,wme,NA,NA,0,NA,NA,NA,NA,NA,NA,NA,NA,NA,NA,NA,NA,NA,NA,NA,NA,NA,NA,NA
d1263,"""Richtig""-Screen",canvas.Screen,5_0_0_0_2_0_1,NA,NA,skipped,NA,416468,NA,NA,416464.40000004,416468.10000002,2023-03-25T11:22:08Z,416475.192,NULL,Schönheit,kirembo,d,NA,NA,NA,NA,sdf,NA,0,NA,NA,NA,NA,NA,NA,NA,NA,NA,NA,NA,NA,NA,NA,NA,NA,NA,NA,NA
d1263,"""Falsch""-Screen",canvas.Screen,5_0_0_0_2_0_2,NA,NA,timeout,4999.8,416468.70000005,416458.526,416475.192,421466.659,421469.80000001,2023-03-25T11:22:13Z,421474.992,NULL,Schönheit,kirembo,d,NA,NA,NA,NA,sdf,0,0,NA,NA,NA,NA,NA,NA,NA,NA,NA,NA,NA,NA,NA,NA,NA,NA,NA,NA,NA
d1263,deep,flow.Sequence,5_0_0_0_2_0,NA,NA,completion,7233.044,414229.40000004,414225.282,414233.615,421466.659,421470.30000001,2023-03-25T11:22:13Z,421474.992,NULL,Schönheit,kirembo,d,NA,NA,NA,NA,sdf,NA,0,NA,NA,NA,NA,NA,NA,NA,NA,NA,NA,NA,NA,NA,NA,NA,NA,NA,NA,NA
d1263,shallow,flow.Sequence,5_0_0_0_2_1,NA,NA,skipped,NA,421470.5,NA,NA,421466.659,421470.60000002,2023-03-25T11:22:13Z,421474.992,NULL,Schönheit,kirembo,d,NA,NA,NA,NA,sdf,NA,0,NA,NA,NA,NA,NA,NA,NA,NA,NA,NA,NA,NA,NA,NA,NA,NA,NA,NA,NA
d1263,task,flow.Sequence,5_0_0_0_2,NA,NA,completion,7233.044,414229.30000001,414225.282,414233.615,421466.659,421470.80000001,2023-03-25T11:22:13Z,421474.992,NULL,Schönheit,kirembo,d,NA,NA,NA,NA,sdf,NA,0,NA,NA,NA,NA,NA,NA,NA,NA,NA,NA,NA,NA,NA,NA,NA,NA,NA,NA,NA
d1263,Deep Question,html.Page,5_0_0_0_3_0_0,NA,NA,form submission,2709.1080000238,421470.90000004,421466.659,421474.992,424184.10000002,424184.5,2023-03-25T11:22:16Z,424191.981,NULL,Zufall,kikuti,d,NA,NA,NA,mcsdä,NA,NA,0,NA,NA,NA,NA,NA,NA,NA,NA,NA,NA,NA,NA,NA,NA,NA,NA,NA,NA,NA
d1263,"""Richtig""-Screen",canvas.Screen,5_0_0_0_3_0_1,NA,NA,skipped,NA,424187.80000001,NA,NA,424184.10000002,424187.80000001,2023-03-25T11:22:16Z,424191.981,NULL,Zufall,kikuti,d,NA,NA,NA,NA,sdf,NA,0,NA,NA,NA,NA,NA,NA,NA,NA,NA,NA,NA,NA,NA,NA,NA,NA,NA,NA,NA
d1263,"""Falsch""-Screen",canvas.Screen,5_0_0_0_3_0_2,NA,NA,timeout,4999.8,424188.5,424175.315,424191.981,429183.448,429186.10000002,2023-03-25T11:22:21Z,429191.781,NULL,Zufall,kikuti,d,NA,NA,NA,NA,sdf,0,0,NA,NA,NA,NA,NA,NA,NA,NA,NA,NA,NA,NA,NA,NA,NA,NA,NA,NA,NA
d1263,deep,flow.Sequence,5_0_0_0_3_0,NA,NA,completion,7708.4559999999,421470.90000004,421466.659,421474.992,429183.448,429186.70000005,2023-03-25T11:22:21Z,429191.781,NULL,Zufall,kikuti,d,NA,NA,NA,NA,sdf,NA,0,NA,NA,NA,NA,NA,NA,NA,NA,NA,NA,NA,NA,NA,NA,NA,NA,NA,NA,NA
d1263,shallow,flow.Sequence,5_0_0_0_3_1,NA,NA,skipped,NA,429186.90000004,NA,NA,429183.448,429187.10000002,2023-03-25T11:22:21Z,429191.781,NULL,Zufall,kikuti,d,NA,NA,NA,NA,sdf,NA,0,NA,NA,NA,NA,NA,NA,NA,NA,NA,NA,NA,NA,NA,NA,NA,NA,NA,NA,NA
d1263,task,flow.Sequence,5_0_0_0_3,NA,NA,completion,7708.4559999999,421470.90000004,421466.659,421474.992,429183.448,429187.40000004,2023-03-25T11:22:21Z,429191.781,NULL,Zufall,kikuti,d,NA,NA,NA,NA,sdf,NA,0,NA,NA,NA,NA,NA,NA,NA,NA,NA,NA,NA,NA,NA,NA,NA,NA,NA,NA,NA
d1263,Deep Question,html.Page,5_0_0_0_4_0_0,NA,NA,form submission,3832.9190000477,429187.60000002,429183.448,429191.781,433024.70000005,433025.30000001,2023-03-25T11:22:24Z,433033.743,NULL,Schock,mshtuko,d,NA,NA,NA,new,NA,NA,0,NA,NA,NA,NA,NA,NA,NA,NA,NA,NA,NA,NA,NA,NA,NA,NA,NA,NA,NA
d1263,"""Richtig""-Screen",canvas.Screen,5_0_0_0_4_0_1,NA,NA,skipped,NA,433029.20000005,NA,NA,433024.70000005,433029.40000004,2023-03-25T11:22:24Z,433033.743,NULL,Schock,mshtuko,d,NA,NA,NA,NA,sdf,NA,0,NA,NA,NA,NA,NA,NA,NA,NA,NA,NA,NA,NA,NA,NA,NA,NA,NA,NA,NA
d1263,"""Falsch""-Screen",canvas.Screen,5_0_0_0_4_0_2,NA,NA,timeout,4999.8,433030.20000005,433017.077,433033.743,438025.21,438027.20000005,2023-03-25T11:22:29Z,438033.543,NULL,Schock,mshtuko,d,NA,NA,NA,NA,sdf,0,0,NA,NA,NA,NA,NA,NA,NA,NA,NA,NA,NA,NA,NA,NA,NA,NA,NA,NA,NA
d1263,deep,flow.Sequence,5_0_0_0_4_0,NA,NA,completion,8833.429,429187.60000002,429183.448,429191.781,438025.21,438027.80000001,2023-03-25T11:22:29Z,438033.543,NULL,Schock,mshtuko,d,NA,NA,NA,NA,sdf,NA,0,NA,NA,NA,NA,NA,NA,NA,NA,NA,NA,NA,NA,NA,NA,NA,NA,NA,NA,NA
d1263,shallow,flow.Sequence,5_0_0_0_4_1,NA,NA,skipped,NA,438027.90000004,NA,NA,438025.21,438028.10000002,2023-03-25T11:22:29Z,438033.543,NULL,Schock,mshtuko,d,NA,NA,NA,NA,sdf,NA,0,NA,NA,NA,NA,NA,NA,NA,NA,NA,NA,NA,NA,NA,NA,NA,NA,NA,NA,NA
d1263,task,flow.Sequence,5_0_0_0_4,NA,NA,completion,8833.429,429187.5,429183.448,429191.781,438025.21,438028.30000001,2023-03-25T11:22:29Z,438033.543,NULL,Schock,mshtuko,d,NA,NA,NA,NA,sdf,NA,0,NA,NA,NA,NA,NA,NA,NA,NA,NA,NA,NA,NA,NA,NA,NA,NA,NA,NA,NA
d1263,deep,flow.Sequence,5_0_0_0_5_0,NA,NA,skipped,NA,438028.40000004,NA,NA,438025.21,438028.5,2023-03-25T11:22:29Z,438033.543,NULL,Verpackung,ufungaji,s,uhusiano,upimaji,uchunguzi,NA,sdf,NA,0,NA,NA,NA,NA,NA,NA,NA,NA,NA,NA,NA,NA,NA,NA,NA,NA,NA,NA,NA
d1263,Shallow Question,html.Page,5_0_0_0_5_1_0,NA,NA,form submission,3840.8570000358,438028.70000005,438025.21,438033.543,441874.40000004,441874.80000001,2023-03-25T11:22:33Z,441883.389,NULL,Verpackung,ufungaji,s,uhusiano,upimaji,uchunguzi,uchunguzi,NA,NA,0,NA,NA,NA,NA,NA,NA,NA,NA,NA,NA,NA,NA,NA,NA,NA,NA,NA,NA,NA
d1263,"""Richtig""-Screen",canvas.Screen,5_0_0_0_5_1_1,NA,NA,skipped,NA,441877.90000004,NA,NA,441874.40000004,441878,2023-03-25T11:22:33Z,441883.389,NULL,Verpackung,ufungaji,s,uhusiano,upimaji,uchunguzi,NA,sdf,NA,0,NA,NA,NA,NA,NA,NA,NA,NA,NA,NA,NA,NA,NA,NA,NA,NA,NA,NA,NA
d1263,"""Falsch""-Screen",canvas.Screen,5_0_0_0_5_1_2,NA,NA,timeout,4999.8,441878.80000001,441866.723,441883.389,446874.856,446877,2023-03-25T11:22:38Z,446883.189,NULL,Verpackung,ufungaji,s,uhusiano,upimaji,uchunguzi,NA,sdf,0,0,NA,NA,NA,NA,NA,NA,NA,NA,NA,NA,NA,NA,NA,NA,NA,NA,NA,NA,NA
d1263,shallow,flow.Sequence,5_0_0_0_5_1,NA,NA,completion,8841.313,438028.70000005,438025.21,438033.543,446874.856,446877.5,2023-03-25T11:22:38Z,446883.189,NULL,Verpackung,ufungaji,s,uhusiano,upimaji,uchunguzi,NA,sdf,NA,0,NA,NA,NA,NA,NA,NA,NA,NA,NA,NA,NA,NA,NA,NA,NA,NA,NA,NA,NA
d1263,task,flow.Sequence,5_0_0_0_5,NA,NA,completion,8841.313,438028.40000004,438025.21,438033.543,446874.856,446877.80000001,2023-03-25T11:22:38Z,446883.189,NULL,Verpackung,ufungaji,s,uhusiano,upimaji,uchunguzi,NA,sdf,NA,0,NA,NA,NA,NA,NA,NA,NA,NA,NA,NA,NA,NA,NA,NA,NA,NA,NA,NA,NA
d1263,deep,flow.Sequence,5_0_0_0_6_0,NA,NA,skipped,NA,446878,NA,NA,446874.856,446878.10000002,2023-03-25T11:22:38Z,446883.189,NULL,Hoffnung,matarajio,s,kutaalamika,uratibu,mvumbuzi,NA,sdf,NA,0,NA,NA,NA,NA,NA,NA,NA,NA,NA,NA,NA,NA,NA,NA,NA,NA,NA,NA,NA
d1263,Shallow Question,html.Page,5_0_0_0_6_1_0,NA,NA,form submission,2327.2110000357,446878.30000001,446874.856,446883.189,449210.40000004,449211.10000002,2023-03-25T11:22:41Z,449221.154,NULL,Hoffnung,matarajio,s,kutaalamika,uratibu,mvumbuzi,uratibu,NA,NA,0,NA,NA,NA,NA,NA,NA,NA,NA,NA,NA,NA,NA,NA,NA,NA,NA,NA,NA,NA
d1263,"""Richtig""-Screen",canvas.Screen,5_0_0_0_6_1_1,NA,NA,skipped,NA,449214.40000004,NA,NA,449210.40000004,449214.5,2023-03-25T11:22:41Z,449221.154,NULL,Hoffnung,matarajio,s,kutaalamika,uratibu,mvumbuzi,NA,sdf,NA,0,NA,NA,NA,NA,NA,NA,NA,NA,NA,NA,NA,NA,NA,NA,NA,NA,NA,NA,NA
d1263,"""Falsch""-Screen",canvas.Screen,5_0_0_0_6_1_2,NA,NA,timeout,4999.8,449215.40000004,449204.488,449221.154,454212.621,454214.80000001,2023-03-25T11:22:46Z,454220.954,NULL,Hoffnung,matarajio,s,kutaalamika,uratibu,mvumbuzi,NA,sdf,0,0,NA,NA,NA,NA,NA,NA,NA,NA,NA,NA,NA,NA,NA,NA,NA,NA,NA,NA,NA
d1263,shallow,flow.Sequence,5_0_0_0_6_1,NA,NA,completion,7329.432,446878.20000005,446874.856,446883.189,454212.621,454215.30000001,2023-03-25T11:22:46Z,454220.954,NULL,Hoffnung,matarajio,s,kutaalamika,uratibu,mvumbuzi,NA,sdf,NA,0,NA,NA,NA,NA,NA,NA,NA,NA,NA,NA,NA,NA,NA,NA,NA,NA,NA,NA,NA
d1263,task,flow.Sequence,5_0_0_0_6,NA,NA,completion,7329.432,446877.90000004,446874.856,446883.189,454212.621,454215.5,2023-03-25T11:22:46Z,454220.954,NULL,Hoffnung,matarajio,s,kutaalamika,uratibu,mvumbuzi,NA,sdf,NA,0,NA,NA,NA,NA,NA,NA,NA,NA,NA,NA,NA,NA,NA,NA,NA,NA,NA,NA,NA
d1263,deep,flow.Sequence,5_0_0_0_7_0,NA,NA,skipped,NA,454215.70000005,NA,NA,454212.621,454215.80000001,2023-03-25T11:22:46Z,454220.954,NULL,Auftrag,uagizaji,s,ghanima,kuzingatia,msukani,NA,sdf,NA,0,NA,NA,NA,NA,NA,NA,NA,NA,NA,NA,NA,NA,NA,NA,NA,NA,NA,NA,NA
d1263,Shallow Question,html.Page,5_0_0_0_7_1_0,NA,NA,form submission,3553.546,454216,454212.621,454220.954,457774.5,457775.10000002,2023-03-25T11:22:49Z,457787.877,NULL,Auftrag,uagizaji,s,ghanima,kuzingatia,msukani,msukani,NA,NA,0,NA,NA,NA,NA,NA,NA,NA,NA,NA,NA,NA,NA,NA,NA,NA,NA,NA,NA,NA
d1263,"""Richtig""-Screen",canvas.Screen,5_0_0_0_7_1_1,NA,NA,skipped,NA,457778.30000001,NA,NA,457774.5,457778.5,2023-03-25T11:22:49Z,457787.877,NULL,Auftrag,uagizaji,s,ghanima,kuzingatia,msukani,NA,sdf,NA,0,NA,NA,NA,NA,NA,NA,NA,NA,NA,NA,NA,NA,NA,NA,NA,NA,NA,NA,NA
d1263,"""Falsch""-Screen",canvas.Screen,5_0_0_0_7_1_2,NA,NA,timeout,5008.133,457779.10000002,457771.211,457787.877,462779.344,462782.5,2023-03-25T11:22:54Z,462796.01,NULL,Auftrag,uagizaji,s,ghanima,kuzingatia,msukani,NA,sdf,0,0,NA,NA,NA,NA,NA,NA,NA,NA,NA,NA,NA,NA,NA,NA,NA,NA,NA,NA,NA
d1263,shallow,flow.Sequence,5_0_0_0_7_1,NA,NA,completion,8558.39,454215.90000004,454212.621,454220.954,462779.344,462783.10000002,2023-03-25T11:22:54Z,462796.01,NULL,Auftrag,uagizaji,s,ghanima,kuzingatia,msukani,NA,sdf,NA,0,NA,NA,NA,NA,NA,NA,NA,NA,NA,NA,NA,NA,NA,NA,NA,NA,NA,NA,NA
d1263,task,flow.Sequence,5_0_0_0_7,NA,NA,completion,8558.39,454215.60000002,454212.621,454220.954,462779.344,462783.30000001,2023-03-25T11:22:54Z,462796.01,NULL,Auftrag,uagizaji,s,ghanima,kuzingatia,msukani,NA,sdf,NA,0,NA,NA,NA,NA,NA,NA,NA,NA,NA,NA,NA,NA,NA,NA,NA,NA,NA,NA,NA
d1263,block,flow.Loop,5_0_0_0,NA,NA,completion,65016.718,397754.80000001,397754.293,397762.626,462779.344,462783.60000002,2023-03-25T11:22:54Z,462796.01,NULL,NA,NA,NA,NA,NA,NA,NA,sdf,NA,0,NA,NA,NA,NA,NA,NA,NA,NA,NA,NA,NA,NA,NA,NA,NA,NA,NA,NA,NA
d1263,weiter,canvas.Screen,5_0_0_1,sdf,keypress(Space),response,807.39000003575,462783.60000002,462779.344,462796.01,463603.40000004,463611.5,2023-03-25T11:22:55Z,463637.643,NULL,NA,NA,NA,NA,NA,NA,NA,sdf,NA,0,NA,NA,NA,NA,NA,NA,NA,NA,NA,NA,NA,NA,NA,NA,NA,NA,NA,NA,NA
d1263,check continue,flow.Sequence,5_0_0,NA,NA,completion,65840.774000036,397754.80000001,397754.293,397762.626,463603.40000004,463611.80000001,2023-03-25T11:22:55Z,463637.643,NULL,NA,NA,NA,NA,NA,NA,NA,sdf,NA,0,NA,NA,NA,NA,NA,NA,NA,NA,NA,NA,NA,NA,NA,NA,NA,NA,NA,NA,NA
d1263,Deep Question,html.Page,5_0_1_0_0_0_0,NA,NA,form submission,2472.0570000477,463632.20000005,463629.31,463637.643,466109.70000005,466110.20000005,2023-03-25T11:22:58Z,466120.877,NULL,Zufall,kikuti,d,NA,NA,NA,m,NA,NA,1,NA,NA,NA,NA,NA,NA,NA,NA,NA,NA,NA,NA,NA,NA,NA,NA,NA,NA,NA
d1263,"""Richtig""-Screen",canvas.Screen,5_0_1_0_0_0_1,NA,NA,skipped,NA,466113.30000001,NA,NA,466109.70000005,466113.40000004,2023-03-25T11:22:58Z,466120.877,NULL,Zufall,kikuti,d,NA,NA,NA,NA,sdfdsf,NA,1,NA,NA,NA,NA,NA,NA,NA,NA,NA,NA,NA,NA,NA,NA,NA,NA,NA,NA,NA
d1263,"""Falsch""-Screen",canvas.Screen,5_0_1_0_0_0_2,NA,NA,timeout,4999.8,466114,466104.211,466120.877,471112.344,471115.5,2023-03-25T11:23:03Z,471120.677,NULL,Zufall,kikuti,d,NA,NA,NA,NA,sdfdsf,0,1,NA,NA,NA,NA,NA,NA,NA,NA,NA,NA,NA,NA,NA,NA,NA,NA,NA,NA,NA
d1263,deep,flow.Sequence,5_0_1_0_0_0,NA,NA,completion,7474.701,463631.90000004,463629.31,463637.643,471112.344,471116.10000002,2023-03-25T11:23:03Z,471120.677,NULL,Zufall,kikuti,d,NA,NA,NA,NA,sdfdsf,NA,1,NA,NA,NA,NA,NA,NA,NA,NA,NA,NA,NA,NA,NA,NA,NA,NA,NA,NA,NA
d1263,shallow,flow.Sequence,5_0_1_0_0_1,NA,NA,skipped,NA,471116.20000005,NA,NA,471112.344,471116.30000001,2023-03-25T11:23:03Z,471120.677,NULL,Zufall,kikuti,d,NA,NA,NA,NA,sdfdsf,NA,1,NA,NA,NA,NA,NA,NA,NA,NA,NA,NA,NA,NA,NA,NA,NA,NA,NA,NA,NA
d1263,task,flow.Sequence,5_0_1_0_0,NA,NA,completion,7474.701,463631.90000004,463629.31,463637.643,471112.344,471116.5,2023-03-25T11:23:03Z,471120.677,NULL,Zufall,kikuti,d,NA,NA,NA,NA,sdfdsf,NA,1,NA,NA,NA,NA,NA,NA,NA,NA,NA,NA,NA,NA,NA,NA,NA,NA,NA,NA,NA
d1263,deep,flow.Sequence,5_0_1_0_1_0,NA,NA,skipped,NA,471116.70000005,NA,NA,471112.344,471116.70000005,2023-03-25T11:23:03Z,471120.677,NULL,Verpackung,ufungaji,s,uhusiano,upimaji,uchunguzi,NA,sdfdsf,NA,1,NA,NA,NA,NA,NA,NA,NA,NA,NA,NA,NA,NA,NA,NA,NA,NA,NA,NA,NA
d1263,Shallow Question,html.Page,5_0_1_0_1_1_0,NA,NA,form submission,6262.823,471117,471112.344,471120.677,477383.5,477383.90000004,2023-03-25T11:23:09Z,477395.939,NULL,Verpackung,ufungaji,s,uhusiano,upimaji,uchunguzi,ufungaji,NA,NA,1,NA,NA,NA,NA,NA,NA,NA,NA,NA,NA,NA,NA,NA,NA,NA,NA,NA,NA,NA
d1263,"""Richtig""-Screen",canvas.Screen,5_0_1_0_1_1_1,NA,NA,timeout,4999.8,477387.10000002,477379.273,477395.939,482387.406,482389.5,2023-03-25T11:23:14Z,482395.739,NULL,Verpackung,ufungaji,s,uhusiano,upimaji,uchunguzi,NA,sdfdsf,1,1,NA,NA,NA,NA,NA,NA,NA,NA,NA,NA,NA,NA,NA,NA,NA,NA,NA,NA,NA
d1263,"""Falsch""-Screen",canvas.Screen,5_0_1_0_1_1_2,NA,NA,skipped,NA,482394.20000005,NA,NA,482387.406,482394.40000004,2023-03-25T11:23:14Z,482395.739,NULL,Verpackung,ufungaji,s,uhusiano,upimaji,uchunguzi,NA,sdfdsf,NA,1,NA,NA,NA,NA,NA,NA,NA,NA,NA,NA,NA,NA,NA,NA,NA,NA,NA,NA,NA
d1263,shallow,flow.Sequence,5_0_1_0_1_1,NA,NA,completion,11266.729,471116.90000004,471112.344,471120.677,482387.406,482394.60000002,2023-03-25T11:23:14Z,482395.739,NULL,Verpackung,ufungaji,s,uhusiano,upimaji,uchunguzi,NA,sdfdsf,NA,1,NA,NA,NA,NA,NA,NA,NA,NA,NA,NA,NA,NA,NA,NA,NA,NA,NA,NA,NA
d1263,task,flow.Sequence,5_0_1_0_1,NA,NA,completion,11266.729,471116.60000002,471112.344,471120.677,482387.406,482394.70000005,2023-03-25T11:23:14Z,482395.739,NULL,Verpackung,ufungaji,s,uhusiano,upimaji,uchunguzi,NA,sdfdsf,NA,1,NA,NA,NA,NA,NA,NA,NA,NA,NA,NA,NA,NA,NA,NA,NA,NA,NA,NA,NA
d1263,deep,flow.Sequence,5_0_1_0_2_0,NA,NA,skipped,NA,482394.80000001,NA,NA,482387.406,482394.80000001,2023-03-25T11:23:14Z,482395.739,NULL,Hoffnung,matarajio,s,kutaalamika,uratibu,mvumbuzi,NA,sdfdsf,NA,1,NA,NA,NA,NA,NA,NA,NA,NA,NA,NA,NA,NA,NA,NA,NA,NA,NA,NA,NA
d1263,Shallow Question,html.Page,5_0_1_0_2_1_0,NA,NA,form submission,9215.761,482394.90000004,482387.406,482395.739,491611.5,491611.90000004,2023-03-25T11:23:23Z,491624.952,NULL,Hoffnung,matarajio,s,kutaalamika,uratibu,mvumbuzi,uratibu,NA,NA,1,NA,NA,NA,NA,NA,NA,NA,NA,NA,NA,NA,NA,NA,NA,NA,NA,NA,NA,NA
d1263,"""Richtig""-Screen",canvas.Screen,5_0_1_0_2_1_1,NA,NA,skipped,NA,491615,NA,NA,491611.5,491615.10000002,2023-03-25T11:23:23Z,491624.952,NULL,Hoffnung,matarajio,s,kutaalamika,uratibu,mvumbuzi,NA,sdfdsf,NA,1,NA,NA,NA,NA,NA,NA,NA,NA,NA,NA,NA,NA,NA,NA,NA,NA,NA,NA,NA
d1263,"""Falsch""-Screen",canvas.Screen,5_0_1_0_2_1_2,NA,NA,timeout,4999.8,491615.80000001,491608.286,491624.952,496616.419,496619.20000005,2023-03-25T11:23:28Z,496624.752,NULL,Hoffnung,matarajio,s,kutaalamika,uratibu,mvumbuzi,NA,sdfdsf,0,1,NA,NA,NA,NA,NA,NA,NA,NA,NA,NA,NA,NA,NA,NA,NA,NA,NA,NA,NA
d1263,shallow,flow.Sequence,5_0_1_0_2_1,NA,NA,completion,14220.68,482394.90000004,482387.406,482395.739,496616.419,496619.80000001,2023-03-25T11:23:28Z,496624.752,NULL,Hoffnung,matarajio,s,kutaalamika,uratibu,mvumbuzi,NA,sdfdsf,NA,1,NA,NA,NA,NA,NA,NA,NA,NA,NA,NA,NA,NA,NA,NA,NA,NA,NA,NA,NA
d1263,task,flow.Sequence,5_0_1_0_2,NA,NA,completion,14220.68,482394.70000005,482387.406,482395.739,496616.419,496620,2023-03-25T11:23:28Z,496624.752,NULL,Hoffnung,matarajio,s,kutaalamika,uratibu,mvumbuzi,NA,sdfdsf,NA,1,NA,NA,NA,NA,NA,NA,NA,NA,NA,NA,NA,NA,NA,NA,NA,NA,NA,NA,NA
d1263,deep,flow.Sequence,5_0_1_0_3_0,NA,NA,skipped,NA,496620.30000001,NA,NA,496616.419,496620.40000004,2023-03-25T11:23:28Z,496624.752,NULL,Auftrag,uagizaji,s,ghanima,kuzingatia,msukani,NA,sdfdsf,NA,1,NA,NA,NA,NA,NA,NA,NA,NA,NA,NA,NA,NA,NA,NA,NA,NA,NA,NA,NA
d1263,Shallow Question,html.Page,5_0_1_0_3_1_0,NA,NA,form submission,4714.6480000358,496620.5,496616.419,496624.752,501339.40000004,501339.90000004,2023-03-25T11:23:33Z,501350.122,NULL,Auftrag,uagizaji,s,ghanima,kuzingatia,msukani,uagizaji,NA,NA,1,NA,NA,NA,NA,NA,NA,NA,NA,NA,NA,NA,NA,NA,NA,NA,NA,NA,NA,NA
d1263,"""Richtig""-Screen",canvas.Screen,5_0_1_0_3_1_1,NA,NA,timeout,4999.8,501343.10000002,501333.456,501350.122,506341.589,506344.70000005,2023-03-25T11:23:38Z,506349.922,NULL,Auftrag,uagizaji,s,ghanima,kuzingatia,msukani,NA,sdfdsf,1,1,NA,NA,NA,NA,NA,NA,NA,NA,NA,NA,NA,NA,NA,NA,NA,NA,NA,NA,NA
d1263,"""Falsch""-Screen",canvas.Screen,5_0_1_0_3_1_2,NA,NA,skipped,NA,506348.5,NA,NA,506341.589,506348.80000001,2023-03-25T11:23:38Z,506349.922,NULL,Auftrag,uagizaji,s,ghanima,kuzingatia,msukani,NA,sdfdsf,NA,1,NA,NA,NA,NA,NA,NA,NA,NA,NA,NA,NA,NA,NA,NA,NA,NA,NA,NA,NA
d1263,shallow,flow.Sequence,5_0_1_0_3_1,NA,NA,completion,9716.837,496620.5,496616.419,496624.752,506341.589,506348.90000004,2023-03-25T11:23:38Z,506349.922,NULL,Auftrag,uagizaji,s,ghanima,kuzingatia,msukani,NA,sdfdsf,NA,1,NA,NA,NA,NA,NA,NA,NA,NA,NA,NA,NA,NA,NA,NA,NA,NA,NA,NA,NA
d1263,task,flow.Sequence,5_0_1_0_3,NA,NA,completion,9716.837,496620.10000002,496616.419,496624.752,506341.589,506349.10000002,2023-03-25T11:23:38Z,506349.922,NULL,Auftrag,uagizaji,s,ghanima,kuzingatia,msukani,NA,sdfdsf,NA,1,NA,NA,NA,NA,NA,NA,NA,NA,NA,NA,NA,NA,NA,NA,NA,NA,NA,NA,NA
d1263,Deep Question,html.Page,5_0_1_0_4_0_0,NA,NA,form submission,3906.8780000119,506349.10000002,506341.589,506349.922,510256.80000001,510257.60000002,2023-03-25T11:23:42Z,510266.924,NULL,Schock,mshtuko,d,NA,NA,NA,m,NA,NA,1,NA,NA,NA,NA,NA,NA,NA,NA,NA,NA,NA,NA,NA,NA,NA,NA,NA,NA,NA
d1263,"""Richtig""-Screen",canvas.Screen,5_0_1_0_4_0_1,NA,NA,skipped,NA,510261.10000002,NA,NA,510256.80000001,510261.20000005,2023-03-25T11:23:42Z,510266.924,NULL,Schock,mshtuko,d,NA,NA,NA,NA,sdfdsf,NA,1,NA,NA,NA,NA,NA,NA,NA,NA,NA,NA,NA,NA,NA,NA,NA,NA,NA,NA,NA
d1263,"""Falsch""-Screen",canvas.Screen,5_0_1_0_4_0_2,NA,NA,timeout,4999.8,510261.80000001,510258.591,510266.924,515258.391,515260.70000005,2023-03-25T11:23:47Z,515266.724,NULL,Schock,mshtuko,d,NA,NA,NA,NA,sdfdsf,0,1,NA,NA,NA,NA,NA,NA,NA,NA,NA,NA,NA,NA,NA,NA,NA,NA,NA,NA,NA
d1263,deep,flow.Sequence,5_0_1_0_4_0,NA,NA,completion,8908.469,506349.10000002,506341.589,506349.922,515258.391,515261.20000005,2023-03-25T11:23:47Z,515266.724,NULL,Schock,mshtuko,d,NA,NA,NA,NA,sdfdsf,NA,1,NA,NA,NA,NA,NA,NA,NA,NA,NA,NA,NA,NA,NA,NA,NA,NA,NA,NA,NA
d1263,shallow,flow.Sequence,5_0_1_0_4_1,NA,NA,skipped,NA,515261.5,NA,NA,515258.391,515261.60000002,2023-03-25T11:23:47Z,515266.724,NULL,Schock,mshtuko,d,NA,NA,NA,NA,sdfdsf,NA,1,NA,NA,NA,NA,NA,NA,NA,NA,NA,NA,NA,NA,NA,NA,NA,NA,NA,NA,NA
d1263,task,flow.Sequence,5_0_1_0_4,NA,NA,completion,8908.469,506349.10000002,506341.589,506349.922,515258.391,515261.80000001,2023-03-25T11:23:47Z,515266.724,NULL,Schock,mshtuko,d,NA,NA,NA,NA,sdfdsf,NA,1,NA,NA,NA,NA,NA,NA,NA,NA,NA,NA,NA,NA,NA,NA,NA,NA,NA,NA,NA
d1263,Deep Question,html.Page,5_0_1_0_5_0_0,NA,NA,form submission,3877.6760000358,515262,515258.391,515266.724,519144.40000004,519144.70000005,2023-03-25T11:23:51Z,519158.235,NULL,Schönheit,kirembo,d,NA,NA,NA,sd,NA,NA,1,NA,NA,NA,NA,NA,NA,NA,NA,NA,NA,NA,NA,NA,NA,NA,NA,NA,NA,NA
d1263,"""Richtig""-Screen",canvas.Screen,5_0_1_0_5_0_1,NA,NA,skipped,NA,519148.30000001,NA,NA,519144.40000004,519148.40000004,2023-03-25T11:23:51Z,519158.235,NULL,Schönheit,kirembo,d,NA,NA,NA,NA,sdfdsf,NA,1,NA,NA,NA,NA,NA,NA,NA,NA,NA,NA,NA,NA,NA,NA,NA,NA,NA,NA,NA
d1263,"""Falsch""-Screen",canvas.Screen,5_0_1_0_5_0_2,NA,NA,timeout,4999.8,519149,519141.569,519158.235,524149.702,524152.90000004,2023-03-25T11:23:56Z,524158.035,NULL,Schönheit,kirembo,d,NA,NA,NA,NA,sdfdsf,0,1,NA,NA,NA,NA,NA,NA,NA,NA,NA,NA,NA,NA,NA,NA,NA,NA,NA,NA,NA
d1263,deep,flow.Sequence,5_0_1_0_5_0,NA,NA,completion,8882.978,515261.90000004,515258.391,515266.724,524149.702,524153.5,2023-03-25T11:23:56Z,524158.035,NULL,Schönheit,kirembo,d,NA,NA,NA,NA,sdfdsf,NA,1,NA,NA,NA,NA,NA,NA,NA,NA,NA,NA,NA,NA,NA,NA,NA,NA,NA,NA,NA
d1263,shallow,flow.Sequence,5_0_1_0_5_1,NA,NA,skipped,NA,524153.70000005,NA,NA,524149.702,524153.80000001,2023-03-25T11:23:56Z,524158.035,NULL,Schönheit,kirembo,d,NA,NA,NA,NA,sdfdsf,NA,1,NA,NA,NA,NA,NA,NA,NA,NA,NA,NA,NA,NA,NA,NA,NA,NA,NA,NA,NA
d1263,task,flow.Sequence,5_0_1_0_5,NA,NA,completion,8882.978,515261.80000001,515258.391,515266.724,524149.702,524154,2023-03-25T11:23:56Z,524158.035,NULL,Schönheit,kirembo,d,NA,NA,NA,NA,sdfdsf,NA,1,NA,NA,NA,NA,NA,NA,NA,NA,NA,NA,NA,NA,NA,NA,NA,NA,NA,NA,NA
d1263,Deep Question,html.Page,5_0_1_0_6_0_0,NA,NA,form submission,7468.8650000358,524154.10000002,524149.702,524158.035,531626.90000004,531627.70000005,2023-03-25T11:24:03Z,531637.448,NULL,Theorie,nadharia,d,NA,NA,NA,k,NA,NA,1,NA,NA,NA,NA,NA,NA,NA,NA,NA,NA,NA,NA,NA,NA,NA,NA,NA,NA,NA
d1263,"""Richtig""-Screen",canvas.Screen,5_0_1_0_6_0_1,NA,NA,skipped,NA,531630.70000005,NA,NA,531626.90000004,531630.90000004,2023-03-25T11:24:03Z,531637.448,NULL,Theorie,nadharia,d,NA,NA,NA,NA,sdfdsf,NA,1,NA,NA,NA,NA,NA,NA,NA,NA,NA,NA,NA,NA,NA,NA,NA,NA,NA,NA,NA
d1263,"""Falsch""-Screen",canvas.Screen,5_0_1_0_6_0_2,NA,NA,timeout,4999.8,531631.30000001,531620.782,531637.448,536628.915,536632.10000002,2023-03-25T11:24:08Z,536637.248,NULL,Theorie,nadharia,d,NA,NA,NA,NA,sdfdsf,0,1,NA,NA,NA,NA,NA,NA,NA,NA,NA,NA,NA,NA,NA,NA,NA,NA,NA,NA,NA
d1263,deep,flow.Sequence,5_0_1_0_6_0,NA,NA,completion,12470.88,524154.10000002,524149.702,524158.035,536628.915,536632.60000002,2023-03-25T11:24:08Z,536637.248,NULL,Theorie,nadharia,d,NA,NA,NA,NA,sdfdsf,NA,1,NA,NA,NA,NA,NA,NA,NA,NA,NA,NA,NA,NA,NA,NA,NA,NA,NA,NA,NA
d1263,shallow,flow.Sequence,5_0_1_0_6_1,NA,NA,skipped,NA,536632.90000004,NA,NA,536628.915,536633,2023-03-25T11:24:08Z,536637.248,NULL,Theorie,nadharia,d,NA,NA,NA,NA,sdfdsf,NA,1,NA,NA,NA,NA,NA,NA,NA,NA,NA,NA,NA,NA,NA,NA,NA,NA,NA,NA,NA
d1263,task,flow.Sequence,5_0_1_0_6,NA,NA,completion,12470.88,524154.10000002,524149.702,524158.035,536628.915,536633.20000005,2023-03-25T11:24:08Z,536637.248,NULL,Theorie,nadharia,d,NA,NA,NA,NA,sdfdsf,NA,1,NA,NA,NA,NA,NA,NA,NA,NA,NA,NA,NA,NA,NA,NA,NA,NA,NA,NA,NA
d1263,deep,flow.Sequence,5_0_1_0_7_0,NA,NA,skipped,NA,536633.30000001,NA,NA,536628.915,536633.40000004,2023-03-25T11:24:08Z,536637.248,NULL,Wettbewerb,ushindani,s,mapendezi,kichocheo,ubaguzi,NA,sdfdsf,NA,1,NA,NA,NA,NA,NA,NA,NA,NA,NA,NA,NA,NA,NA,NA,NA,NA,NA,NA,NA
d1263,Shallow Question,html.Page,5_0_1_0_7_1_0,NA,NA,form submission,12355.252,536633.60000002,536628.915,536637.248,548992.5,548993,2023-03-25T11:24:20Z,549004.328,NULL,Wettbewerb,ushindani,s,mapendezi,kichocheo,ubaguzi,ushindani,NA,NA,1,NA,NA,NA,NA,NA,NA,NA,NA,NA,NA,NA,NA,NA,NA,NA,NA,NA,NA,NA
d1263,"""Richtig""-Screen",canvas.Screen,5_0_1_0_7_1_1,NA,NA,timeout,5008.133,548996,548987.662,549004.328,553995.795,553998.90000004,2023-03-25T11:24:25Z,554012.461,NULL,Wettbewerb,ushindani,s,mapendezi,kichocheo,ubaguzi,NA,sdfdsf,1,1,NA,NA,NA,NA,NA,NA,NA,NA,NA,NA,NA,NA,NA,NA,NA,NA,NA,NA,NA
d1263,"""Falsch""-Screen",canvas.Screen,5_0_1_0_7_1_2,NA,NA,skipped,NA,554003,NA,NA,553995.795,554003.40000004,2023-03-25T11:24:25Z,554012.461,NULL,Wettbewerb,ushindani,s,mapendezi,kichocheo,ubaguzi,NA,sdfdsf,NA,1,NA,NA,NA,NA,NA,NA,NA,NA,NA,NA,NA,NA,NA,NA,NA,NA,NA,NA,NA
d1263,shallow,flow.Sequence,5_0_1_0_7_1,NA,NA,completion,17358.547,536633.5,536628.915,536637.248,553995.795,554003.60000002,2023-03-25T11:24:25Z,554012.461,NULL,Wettbewerb,ushindani,s,mapendezi,kichocheo,ubaguzi,NA,sdfdsf,NA,1,NA,NA,NA,NA,NA,NA,NA,NA,NA,NA,NA,NA,NA,NA,NA,NA,NA,NA,NA
d1263,task,flow.Sequence,5_0_1_0_7,NA,NA,completion,17358.547,536633.20000005,536628.915,536637.248,553995.795,554003.60000002,2023-03-25T11:24:25Z,554012.461,NULL,Wettbewerb,ushindani,s,mapendezi,kichocheo,ubaguzi,NA,sdfdsf,NA,1,NA,NA,NA,NA,NA,NA,NA,NA,NA,NA,NA,NA,NA,NA,NA,NA,NA,NA,NA
d1263,block,flow.Loop,5_0_1_0,NA,NA,completion,90358.152,463631.90000004,463629.31,463637.643,553995.795,554003.80000000994,2023-03-25T11:24:25Z,554012.461,NULL,NA,NA,NA,NA,NA,NA,NA,sdfdsf,NA,1,NA,NA,NA,NA,NA,NA,NA,NA,NA,NA,NA,NA,NA,NA,NA,NA,NA,NA,NA
d1263,weiter,canvas.Screen,5_0_1_1,sdf,keypress(Space),response,885.03899999999,554003.90000004,553995.795,554012.461,554897.5,554901.80000001,2023-03-25T11:24:26Z,554920.758,NULL,NA,NA,NA,NA,NA,NA,NA,sdfdsf,NA,1,NA,NA,NA,NA,NA,NA,NA,NA,NA,NA,NA,NA,NA,NA,NA,NA,NA,NA,NA
d1263,check continue,flow.Sequence,5_0_1,NA,NA,completion,91259.857,463631.90000004,463629.31,463637.643,554897.5,554902,2023-03-25T11:24:26Z,554920.758,NULL,NA,NA,NA,NA,NA,NA,NA,sdfdsf,NA,1,NA,NA,NA,NA,NA,NA,NA,NA,NA,NA,NA,NA,NA,NA,NA,NA,NA,NA,NA
d1263,deep,flow.Sequence,5_0_2_0_0_0,NA,NA,skipped,NA,554919.30000000994,NA,NA,554897.5,554919.80000000994,2023-03-25T11:24:26Z,554920.758,NULL,Hoffnung,matarajio,s,kutaalamika,uratibu,mvumbuzi,NA,sdf,NA,2,NA,NA,NA,NA,NA,NA,NA,NA,NA,NA,NA,NA,NA,NA,NA,NA,NA,NA,NA
d1263,Shallow Question,html.Page,5_0_2_0_0_1_0,NA,NA,form submission,4032.5420000119,554919.90000004,554912.425,554920.758,558953.30000000994,558953.90000004,2023-03-25T11:24:30Z,558966.83,NULL,Hoffnung,matarajio,s,kutaalamika,uratibu,mvumbuzi,matarajio,NA,NA,2,NA,NA,NA,NA,NA,NA,NA,NA,NA,NA,NA,NA,NA,NA,NA,NA,NA,NA,NA
d1263,"""Richtig""-Screen",canvas.Screen,5_0_2_0_0_1_1,NA,NA,timeout,4999.8,558956.90000004,558950.164,558966.83,563958.297,563960.80000001,2023-03-25T11:24:35Z,563966.63,NULL,Hoffnung,matarajio,s,kutaalamika,uratibu,mvumbuzi,NA,sdf,1,2,NA,NA,NA,NA,NA,NA,NA,NA,NA,NA,NA,NA,NA,NA,NA,NA,NA,NA,NA
d1263,"""Falsch""-Screen",canvas.Screen,5_0_2_0_0_1_2,NA,NA,skipped,NA,563964.70000005,NA,NA,563958.297,563964.90000004,2023-03-25T11:24:35Z,563966.63,NULL,Hoffnung,matarajio,s,kutaalamika,uratibu,mvumbuzi,NA,sdf,NA,2,NA,NA,NA,NA,NA,NA,NA,NA,NA,NA,NA,NA,NA,NA,NA,NA,NA,NA,NA
d1263,shallow,flow.Sequence,5_0_2_0_0_1,NA,NA,completion,9037.539,554919.90000004,554912.425,554920.758,563958.297,563965.10000002,2023-03-25T11:24:35Z,563966.63,NULL,Hoffnung,matarajio,s,kutaalamika,uratibu,mvumbuzi,NA,sdf,NA,2,NA,NA,NA,NA,NA,NA,NA,NA,NA,NA,NA,NA,NA,NA,NA,NA,NA,NA,NA
d1263,task,flow.Sequence,5_0_2_0_0,NA,NA,completion,9037.539,554919.30000000994,554912.425,554920.758,563958.297,563965.20000005,2023-03-25T11:24:35Z,563966.63,NULL,Hoffnung,matarajio,s,kutaalamika,uratibu,mvumbuzi,NA,sdf,NA,2,NA,NA,NA,NA,NA,NA,NA,NA,NA,NA,NA,NA,NA,NA,NA,NA,NA,NA,NA
d1263,Deep Question,html.Page,5_0_2_0_1_0_0,NA,NA,form submission,5045.7700000358,563965.40000004,563958.297,563966.63,569012.40000004,569013.30000000994,2023-03-25T11:24:40Z,569029.309,NULL,Zufall,kikuti,d,NA,NA,NA,kitibu,NA,NA,2,NA,NA,NA,NA,NA,NA,NA,NA,NA,NA,NA,NA,NA,NA,NA,NA,NA,NA,NA
d1263,"""Richtig""-Screen",canvas.Screen,5_0_2_0_1_0_1,NA,NA,skipped,NA,569016.80000001,NA,NA,569012.40000004,569017,2023-03-25T11:24:40Z,569029.309,NULL,Zufall,kikuti,d,NA,NA,NA,NA,sdf,NA,2,NA,NA,NA,NA,NA,NA,NA,NA,NA,NA,NA,NA,NA,NA,NA,NA,NA,NA,NA
d1263,"""Falsch""-Screen",canvas.Screen,5_0_2_0_1_0_2,NA,NA,timeout,4999.8,569017.90000004,569004.31,569029.309,574020.776,574023,2023-03-25T11:24:45Z,574029.109,NULL,Zufall,kikuti,d,NA,NA,NA,NA,sdf,0,2,NA,NA,NA,NA,NA,NA,NA,NA,NA,NA,NA,NA,NA,NA,NA,NA,NA,NA,NA
d1263,deep,flow.Sequence,5_0_2_0_1_0,NA,NA,completion,10054.146,563965.40000004,563958.297,563966.63,574020.776,574023.5,2023-03-25T11:24:45Z,574029.109,NULL,Zufall,kikuti,d,NA,NA,NA,NA,sdf,NA,2,NA,NA,NA,NA,NA,NA,NA,NA,NA,NA,NA,NA,NA,NA,NA,NA,NA,NA,NA
d1263,shallow,flow.Sequence,5_0_2_0_1_1,NA,NA,skipped,NA,574023.70000005,NA,NA,574020.776,574023.80000001,2023-03-25T11:24:45Z,574029.109,NULL,Zufall,kikuti,d,NA,NA,NA,NA,sdf,NA,2,NA,NA,NA,NA,NA,NA,NA,NA,NA,NA,NA,NA,NA,NA,NA,NA,NA,NA,NA
d1263,task,flow.Sequence,5_0_2_0_1,NA,NA,completion,10054.146,563965.30000000994,563958.297,563966.63,574020.776,574024,2023-03-25T11:24:45Z,574029.109,NULL,Zufall,kikuti,d,NA,NA,NA,NA,sdf,NA,2,NA,NA,NA,NA,NA,NA,NA,NA,NA,NA,NA,NA,NA,NA,NA,NA,NA,NA,NA
d1263,Deep Question,html.Page,5_0_2_0_2_0_0,NA,NA,form submission,12327.491000024,574024.20000005,574020.776,574029.109,586356.60000002,586357.10000002,2023-03-25T11:24:58Z,586370.684,NULL,Schock,mshtuko,d,NA,NA,NA,mshtuko,NA,NA,2,NA,NA,NA,NA,NA,NA,NA,NA,NA,NA,NA,NA,NA,NA,NA,NA,NA,NA,NA
d1263,"""Richtig""-Screen",canvas.Screen,5_0_2_0_2_0_1,NA,NA,timeout,4999.8,586360.30000001,586354.018,586370.684,591362.151,591364.70000005,2023-03-25T11:25:03Z,591370.484,NULL,Schock,mshtuko,d,NA,NA,NA,NA,sdf,1,2,NA,NA,NA,NA,NA,NA,NA,NA,NA,NA,NA,NA,NA,NA,NA,NA,NA,NA,NA
d1263,"""Falsch""-Screen",canvas.Screen,5_0_2_0_2_0_2,NA,NA,skipped,NA,591368.60000002,NA,NA,591362.151,591368.90000004,2023-03-25T11:25:03Z,591370.484,NULL,Schock,mshtuko,d,NA,NA,NA,NA,sdf,NA,2,NA,NA,NA,NA,NA,NA,NA,NA,NA,NA,NA,NA,NA,NA,NA,NA,NA,NA,NA
d1263,deep,flow.Sequence,5_0_2_0_2_0,NA,NA,completion,17333.042,574024.20000005,574020.776,574029.109,591362.151,591369.10000002,2023-03-25T11:25:03Z,591370.484,NULL,Schock,mshtuko,d,NA,NA,NA,NA,sdf,NA,2,NA,NA,NA,NA,NA,NA,NA,NA,NA,NA,NA,NA,NA,NA,NA,NA,NA,NA,NA
d1263,shallow,flow.Sequence,5_0_2_0_2_1,NA,NA,skipped,NA,591369.10000002,NA,NA,591362.151,591369.10000002,2023-03-25T11:25:03Z,591370.484,NULL,Schock,mshtuko,d,NA,NA,NA,NA,sdf,NA,2,NA,NA,NA,NA,NA,NA,NA,NA,NA,NA,NA,NA,NA,NA,NA,NA,NA,NA,NA
d1263,task,flow.Sequence,5_0_2_0_2,NA,NA,completion,17333.042,574024.10000002,574020.776,574029.109,591362.151,591369.20000005,2023-03-25T11:25:03Z,591370.484,NULL,Schock,mshtuko,d,NA,NA,NA,NA,sdf,NA,2,NA,NA,NA,NA,NA,NA,NA,NA,NA,NA,NA,NA,NA,NA,NA,NA,NA,NA,NA
d1263,deep,flow.Sequence,5_0_2_0_3_0,NA,NA,skipped,NA,591369.40000004,NA,NA,591362.151,591369.40000004,2023-03-25T11:25:03Z,591370.484,NULL,Wettbewerb,ushindani,s,mapendezi,kichocheo,ubaguzi,NA,sdf,NA,2,NA,NA,NA,NA,NA,NA,NA,NA,NA,NA,NA,NA,NA,NA,NA,NA,NA,NA,NA
d1263,Shallow Question,html.Page,5_0_2_0_3_1_0,NA,NA,form submission,3386.2160000476,591369.5,591362.151,591370.484,594756.70000005,594757.20000005,2023-03-25T11:25:06Z,594766.685,NULL,Wettbewerb,ushindani,s,mapendezi,kichocheo,ubaguzi,ushindani,NA,NA,2,NA,NA,NA,NA,NA,NA,NA,NA,NA,NA,NA,NA,NA,NA,NA,NA,NA,NA,NA
d1263,"""Richtig""-Screen",canvas.Screen,5_0_2_0_3_1_1,NA,NA,timeout,4999.7999999999,594760,594750.019,594766.685,599758.152,599760.40000004,2023-03-25T11:25:11Z,599766.485,NULL,Wettbewerb,ushindani,s,mapendezi,kichocheo,ubaguzi,NA,sdf,1,2,NA,NA,NA,NA,NA,NA,NA,NA,NA,NA,NA,NA,NA,NA,NA,NA,NA,NA,NA
d1263,"""Falsch""-Screen",canvas.Screen,5_0_2_0_3_1_2,NA,NA,skipped,NA,599765.60000002,NA,NA,599758.152,599765.90000004,2023-03-25T11:25:11Z,599766.485,NULL,Wettbewerb,ushindani,s,mapendezi,kichocheo,ubaguzi,NA,sdf,NA,2,NA,NA,NA,NA,NA,NA,NA,NA,NA,NA,NA,NA,NA,NA,NA,NA,NA,NA,NA
d1263,shallow,flow.Sequence,5_0_2_0_3_1,NA,NA,completion,8387.6679999999,591369.5,591362.151,591370.484,599758.152,599766.10000002,2023-03-25T11:25:11Z,599766.485,NULL,Wettbewerb,ushindani,s,mapendezi,kichocheo,ubaguzi,NA,sdf,NA,2,NA,NA,NA,NA,NA,NA,NA,NA,NA,NA,NA,NA,NA,NA,NA,NA,NA,NA,NA
d1263,task,flow.Sequence,5_0_2_0_3,NA,NA,completion,8387.6679999999,591369.30000001,591362.151,591370.484,599758.152,599766.20000005,2023-03-25T11:25:11Z,599766.485,NULL,Wettbewerb,ushindani,s,mapendezi,kichocheo,ubaguzi,NA,sdf,NA,2,NA,NA,NA,NA,NA,NA,NA,NA,NA,NA,NA,NA,NA,NA,NA,NA,NA,NA,NA
d1263,Deep Question,html.Page,5_0_2_0_4_0_0,NA,NA,form submission,4873.1150000239,599766.20000005,599758.152,599766.485,604639.60000002,604640.40000004,2023-03-25T11:25:16Z,604650.036,NULL,Schönheit,kirembo,d,NA,NA,NA,kibuwna,NA,NA,2,NA,NA,NA,NA,NA,NA,NA,NA,NA,NA,NA,NA,NA,NA,NA,NA,NA,NA,NA
d1263,"""Richtig""-Screen",canvas.Screen,5_0_2_0_4_0_1,NA,NA,skipped,NA,604644.10000002,NA,NA,604639.60000002,604644.30000001,2023-03-25T11:25:16Z,604650.036,NULL,Schönheit,kirembo,d,NA,NA,NA,NA,sdf,NA,2,NA,NA,NA,NA,NA,NA,NA,NA,NA,NA,NA,NA,NA,NA,NA,NA,NA,NA,NA
d1263,"""Falsch""-Screen",canvas.Screen,5_0_2_0_4_0_2,NA,NA,timeout,4999.8,604645.10000002,604633.37,604650.036,609641.503,609643.60000002,2023-03-25T11:25:21Z,609649.836,NULL,Schönheit,kirembo,d,NA,NA,NA,NA,sdf,0,2,NA,NA,NA,NA,NA,NA,NA,NA,NA,NA,NA,NA,NA,NA,NA,NA,NA,NA,NA
d1263,deep,flow.Sequence,5_0_2_0_4_0,NA,NA,completion,9875.018,599766.20000005,599758.152,599766.485,609641.503,609644.20000005,2023-03-25T11:25:21Z,609649.836,NULL,Schönheit,kirembo,d,NA,NA,NA,NA,sdf,NA,2,NA,NA,NA,NA,NA,NA,NA,NA,NA,NA,NA,NA,NA,NA,NA,NA,NA,NA,NA
d1263,shallow,flow.Sequence,5_0_2_0_4_1,NA,NA,skipped,NA,609644.40000004,NA,NA,609641.503,609644.40000004,2023-03-25T11:25:21Z,609649.836,NULL,Schönheit,kirembo,d,NA,NA,NA,NA,sdf,NA,2,NA,NA,NA,NA,NA,NA,NA,NA,NA,NA,NA,NA,NA,NA,NA,NA,NA,NA,NA
d1263,task,flow.Sequence,5_0_2_0_4,NA,NA,completion,9875.018,599766.20000005,599758.152,599766.485,609641.503,609644.60000002,2023-03-25T11:25:21Z,609649.836,NULL,Schönheit,kirembo,d,NA,NA,NA,NA,sdf,NA,2,NA,NA,NA,NA,NA,NA,NA,NA,NA,NA,NA,NA,NA,NA,NA,NA,NA,NA,NA
d1263,Deep Question,html.Page,5_0_2_0_5_0_0,NA,NA,form submission,8913.8640000477,609644.80000001,609641.503,609649.836,618563.70000005,618564.20000005,2023-03-25T11:25:30Z,618579.038,NULL,Theorie,nadharia,d,NA,NA,NA,kirembo,NA,NA,2,NA,NA,NA,NA,NA,NA,NA,NA,NA,NA,NA,NA,NA,NA,NA,NA,NA,NA,NA
d1263,"""Richtig""-Screen",canvas.Screen,5_0_2_0_5_0_1,NA,NA,skipped,NA,618567.5,NA,NA,618563.70000005,618567.60000002,2023-03-25T11:25:30Z,618579.038,NULL,Theorie,nadharia,d,NA,NA,NA,NA,sdf,NA,2,NA,NA,NA,NA,NA,NA,NA,NA,NA,NA,NA,NA,NA,NA,NA,NA,NA,NA,NA
d1263,"""Falsch""-Screen",canvas.Screen,5_0_2_0_5_0_2,NA,NA,timeout,4999.8,618568.10000002,618562.372,618579.038,623570.505,623572.70000005,2023-03-25T11:25:35Z,623578.838,NULL,Theorie,nadharia,d,NA,NA,NA,NA,sdf,0,2,NA,NA,NA,NA,NA,NA,NA,NA,NA,NA,NA,NA,NA,NA,NA,NA,NA,NA,NA
d1263,deep,flow.Sequence,5_0_2_0_5_0,NA,NA,completion,13920.669,609644.80000001,609641.503,609649.836,623570.505,623573.30000001,2023-03-25T11:25:35Z,623578.838,NULL,Theorie,nadharia,d,NA,NA,NA,NA,sdf,NA,2,NA,NA,NA,NA,NA,NA,NA,NA,NA,NA,NA,NA,NA,NA,NA,NA,NA,NA,NA
d1263,shallow,flow.Sequence,5_0_2_0_5_1,NA,NA,skipped,NA,623573.5,NA,NA,623570.505,623573.60000002,2023-03-25T11:25:35Z,623578.838,NULL,Theorie,nadharia,d,NA,NA,NA,NA,sdf,NA,2,NA,NA,NA,NA,NA,NA,NA,NA,NA,NA,NA,NA,NA,NA,NA,NA,NA,NA,NA
d1263,task,flow.Sequence,5_0_2_0_5,NA,NA,completion,13920.669,609644.70000005,609641.503,609649.836,623570.505,623573.80000001,2023-03-25T11:25:35Z,623578.838,NULL,Theorie,nadharia,d,NA,NA,NA,NA,sdf,NA,2,NA,NA,NA,NA,NA,NA,NA,NA,NA,NA,NA,NA,NA,NA,NA,NA,NA,NA,NA
d1263,deep,flow.Sequence,5_0_2_0_6_0,NA,NA,skipped,NA,623574,NA,NA,623570.505,623574,2023-03-25T11:25:35Z,623578.838,NULL,Verpackung,ufungaji,s,uhusiano,upimaji,uchunguzi,NA,sdf,NA,2,NA,NA,NA,NA,NA,NA,NA,NA,NA,NA,NA,NA,NA,NA,NA,NA,NA,NA,NA
d1263,Shallow Question,html.Page,5_0_2_0_6_1_0,NA,NA,form submission,5069.9620000119,623574.30000001,623570.505,623578.838,628648.80000001,628649.30000001,2023-03-25T11:25:40Z,628658.209,NULL,Verpackung,ufungaji,s,uhusiano,upimaji,uchunguzi,ufungaji,NA,NA,2,NA,NA,NA,NA,NA,NA,NA,NA,NA,NA,NA,NA,NA,NA,NA,NA,NA,NA,NA
d1263,"""Richtig""-Screen",canvas.Screen,5_0_2_0_6_1_1,NA,NA,timeout,4999.7999999999,628652.90000004,628641.543,628658.209,633649.676,633652.10000002,2023-03-25T11:25:45Z,633658.009,NULL,Verpackung,ufungaji,s,uhusiano,upimaji,uchunguzi,NA,sdf,1,2,NA,NA,NA,NA,NA,NA,NA,NA,NA,NA,NA,NA,NA,NA,NA,NA,NA,NA,NA
d1263,"""Falsch""-Screen",canvas.Screen,5_0_2_0_6_1_2,NA,NA,skipped,NA,633657,NA,NA,633649.676,633657.20000005,2023-03-25T11:25:45Z,633658.009,NULL,Verpackung,ufungaji,s,uhusiano,upimaji,uchunguzi,NA,sdf,NA,2,NA,NA,NA,NA,NA,NA,NA,NA,NA,NA,NA,NA,NA,NA,NA,NA,NA,NA,NA
