observation,sender,sender_type,sender_id,response,response_action,ended_on,duration,time_run,time_render,time_show,time_end,time_commit,timestamp,time_switch,german,swahili,enc,distractor1,distractor2,distractor3,response_2,x,correct,distractors,url_vp,url_sess,meta_labjs_version,meta_location,meta_user_agent,meta_platform,meta_language,meta_locale,meta_time_zone,meta_timezone_offset,meta_screen_width,meta_screen_height,meta_scroll_width,meta_scroll_height,meta_window_inner_width,meta_window_inner_height,meta_device_pixel_ratio,meta_labjs_build_flavor,meta_labjs_build_commit
44405,Introduction delayed retrieval,canvas.Screen,0,weiter,keypress(Space),response,26730.88,371,373.44,390.12,27121,27129,2023-05-30T09:48:11Z,27136.94,NA,NA,NA,NA,NA,NA,NA,NA,NA,NULL,170,4,20.2.4,https://neurocog.fernuni.ch/studies/vweber/sliechti/delayed/index.html?vp=170&sess=4,Mozilla/5.0 (Windows NT 10.0; Win64; x64; rv:109.0) Gecko/20100101 Firefox/113.0,Win32,de,de-CH,Europe/Zurich,-120,1280,720,1280,587,1280,587,1.5,production,f5b4a49f956347addd546a832a3327688c2c0fef
44405,Deep Question,html.Page,1_0_0_0,NA,NA,form submission,6690.06,27134,27134.2,27136.94,33827,33828,2023-05-30T09:48:18Z,33835.96,Schönheit,kirembo,s,mahojiano,msisimko,jitihadi,wasahidi,NA,NA,NULL,NA,NA,NA,NA,NA,NA,NA,NA,NA,NA,NA,NA,NA,NA,NA,NA,NA,NA,NA
44405,Save data screen,canvas.Screen,1_0_0_1,NA,NA,timeout,499.96,33833,33825.12,33835.96,34319.34,34322,2023-05-30T09:48:19Z,34335.92,Schönheit,kirembo,s,mahojiano,msisimko,jitihadi,NA,NA,0,NULL,NA,NA,NA,NA,NA,NA,NA,NA,NA,NA,NA,NA,NA,NA,NA,NA,NA,NA,NA
44405,deep,flow.Sequence,1_0_0,NA,NA,completion,7182.4,27133,27134.2,27136.94,34319.34,34323,2023-05-30T09:48:19Z,34335.92,Schönheit,kirembo,s,mahojiano,msisimko,jitihadi,NA,NA,NA,NULL,NA,NA,NA,NA,NA,NA,NA,NA,NA,NA,NA,NA,NA,NA,NA,NA,NA,NA,NA
44405,task,flow.Sequence,1_0,NA,NA,completion,7182.4,27133,27134.2,27136.94,34319.34,34325,2023-05-30T09:48:19Z,34335.92,Schönheit,kirembo,s,mahojiano,msisimko,jitihadi,NA,NA,NA,NULL,NA,NA,NA,NA,NA,NA,NA,NA,NA,NA,NA,NA,NA,NA,NA,NA,NA,NA,NA
44405,Deep Question,html.Page,1_1_0_0,NA,NA,form submission,6353.08,34327,34319.34,34335.92,40689,40690,2023-05-30T09:48:25Z,40688.54,Konkurrent,mshindani,d,msemaji,mvutaji,kipukusa,mashataki,NA,NA,NULL,NA,NA,NA,NA,NA,NA,NA,NA,NA,NA,NA,NA,NA,NA,NA,NA,NA,NA,NA
44405,Save data screen,canvas.Screen,1_1_0_1,NA,NA,timeout,496.52,40693,40688.16,40688.54,41168.46,41171,2023-05-30T09:48:26Z,41185.06,Konkurrent,mshindani,d,msemaji,mvutaji,kipukusa,NA,NA,0,NULL,NA,NA,NA,NA,NA,NA,NA,NA,NA,NA,NA,NA,NA,NA,NA,NA,NA,NA,NA
44405,deep,flow.Sequence,1_1_0,NA,NA,completion,6832.54,34326,34319.34,34335.92,41168.46,41172,2023-05-30T09:48:26Z,41185.06,Konkurrent,mshindani,d,msemaji,mvutaji,kipukusa,NA,NA,NA,NULL,NA,NA,NA,NA,NA,NA,NA,NA,NA,NA,NA,NA,NA,NA,NA,NA,NA,NA,NA
44405,task,flow.Sequence,1_1,NA,NA,completion,6832.54,34326,34319.34,34335.92,41168.46,41173,2023-05-30T09:48:26Z,41185.06,Konkurrent,mshindani,d,msemaji,mvutaji,kipukusa,NA,NA,NA,NULL,NA,NA,NA,NA,NA,NA,NA,NA,NA,NA,NA,NA,NA,NA,NA,NA,NA,NA,NA
44405,Deep Question,html.Page,1_2_0_0,NA,NA,form submission,4382.94,41173,41168.46,41185.06,45568,45569,2023-05-30T09:48:30Z,45567.84,Ausschluss,kutengwa,d,ununuzi,taratibu,madeni,sdöfjl,NA,NA,NULL,NA,NA,NA,NA,NA,NA,NA,NA,NA,NA,NA,NA,NA,NA,NA,NA,NA,NA,NA
44405,Save data screen,canvas.Screen,1_2_0_1,NA,NA,timeout,499.98,45572,45567,45567.84,46051.16,46053,2023-05-30T09:48:30Z,46067.82,Ausschluss,kutengwa,d,ununuzi,taratibu,madeni,NA,NA,0,NULL,NA,NA,NA,NA,NA,NA,NA,NA,NA,NA,NA,NA,NA,NA,NA,NA,NA,NA,NA
44405,deep,flow.Sequence,1_2_0,NA,NA,completion,4866.1,41173,41168.46,41185.06,46051.16,46054,2023-05-30T09:48:30Z,46067.82,Ausschluss,kutengwa,d,ununuzi,taratibu,madeni,NA,NA,NA,NULL,NA,NA,NA,NA,NA,NA,NA,NA,NA,NA,NA,NA,NA,NA,NA,NA,NA,NA,NA
44405,task,flow.Sequence,1_2,NA,NA,completion,4866.1,41173,41168.46,41185.06,46051.16,46055,2023-05-30T09:48:30Z,46067.82,Ausschluss,kutengwa,d,ununuzi,taratibu,madeni,NA,NA,NA,NULL,NA,NA,NA,NA,NA,NA,NA,NA,NA,NA,NA,NA,NA,NA,NA,NA,NA,NA,NA
44405,Deep Question,html.Page,1_3_0_0,NA,NA,form submission,5430.18,46056,46051.16,46067.82,51498,51498,2023-05-30T09:48:36Z,51500.38,Wettbewerb,ushindani,d,mapendezi,kichocheo,ubaguzi,sdflkj,NA,NA,NULL,NA,NA,NA,NA,NA,NA,NA,NA,NA,NA,NA,NA,NA,NA,NA,NA,NA,NA,NA
44405,Save data screen,canvas.Screen,1_3_0_1,NA,NA,timeout,500.02,51501,51496.78,51500.38,51983.74,51985,2023-05-30T09:48:36Z,52000.4,Wettbewerb,ushindani,d,mapendezi,kichocheo,ubaguzi,NA,NA,0,NULL,NA,NA,NA,NA,NA,NA,NA,NA,NA,NA,NA,NA,NA,NA,NA,NA,NA,NA,NA
44405,deep,flow.Sequence,1_3_0,NA,NA,completion,5915.92,46056,46051.16,46067.82,51983.74,51986,2023-05-30T09:48:36Z,52000.4,Wettbewerb,ushindani,d,mapendezi,kichocheo,ubaguzi,NA,NA,NA,NULL,NA,NA,NA,NA,NA,NA,NA,NA,NA,NA,NA,NA,NA,NA,NA,NA,NA,NA,NA
44405,task,flow.Sequence,1_3,NA,NA,completion,5915.92,46055,46051.16,46067.82,51983.74,51986,2023-05-30T09:48:36Z,52000.4,Wettbewerb,ushindani,d,mapendezi,kichocheo,ubaguzi,NA,NA,NA,NULL,NA,NA,NA,NA,NA,NA,NA,NA,NA,NA,NA,NA,NA,NA,NA,NA,NA,NA,NA
44405,Deep Question,html.Page,1_4_0_0,NA,NA,form submission,2603.6,51988,51983.74,52000.4,54604,54604,2023-05-30T09:48:39Z,54616.7,Vorsorge,tahadhari,d,ufafanuzi,makini,mashambani,sdkflj,NA,NA,NULL,NA,NA,NA,NA,NA,NA,NA,NA,NA,NA,NA,NA,NA,NA,NA,NA,NA,NA,NA
44405,Save data screen,canvas.Screen,1_4_0_1,NA,NA,timeout,499.92000000001,54607,54602.44,54616.7,55099.96,55101,2023-05-30T09:48:39Z,55116.62,Vorsorge,tahadhari,d,ufafanuzi,makini,mashambani,NA,NA,0,NULL,NA,NA,NA,NA,NA,NA,NA,NA,NA,NA,NA,NA,NA,NA,NA,NA,NA,NA,NA
44405,deep,flow.Sequence,1_4_0,NA,NA,completion,3099.56,51988,51983.74,52000.4,55099.96,55101,2023-05-30T09:48:39Z,55116.62,Vorsorge,tahadhari,d,ufafanuzi,makini,mashambani,NA,NA,NA,NULL,NA,NA,NA,NA,NA,NA,NA,NA,NA,NA,NA,NA,NA,NA,NA,NA,NA,NA,NA
44405,task,flow.Sequence,1_4,NA,NA,completion,3099.56,51988,51983.74,52000.4,55099.96,55102,2023-05-30T09:48:39Z,55116.62,Vorsorge,tahadhari,d,ufafanuzi,makini,mashambani,NA,NA,NA,NULL,NA,NA,NA,NA,NA,NA,NA,NA,NA,NA,NA,NA,NA,NA,NA,NA,NA,NA,NA
44405,Deep Question,html.Page,1_5_0_0,NA,NA,form submission,2534.38,55102,55099.96,55116.62,57651,57651,2023-05-30T09:48:42Z,57649.58,Auftrag,uagizaji,d,ghanima,kuzingatia,msukani,sdfklj,NA,NA,NULL,NA,NA,NA,NA,NA,NA,NA,NA,NA,NA,NA,NA,NA,NA,NA,NA,NA,NA,NA
44405,Save data screen,canvas.Screen,1_5_0_1,NA,NA,timeout,500,57654,57649.58,57649.58,58132.92,58134,2023-05-30T09:48:42Z,58149.58,Auftrag,uagizaji,d,ghanima,kuzingatia,msukani,NA,NA,0,NULL,NA,NA,NA,NA,NA,NA,NA,NA,NA,NA,NA,NA,NA,NA,NA,NA,NA,NA,NA
44405,deep,flow.Sequence,1_5_0,NA,NA,completion,3016.3,55102,55099.96,55116.62,58132.92,58135,2023-05-30T09:48:42Z,58149.58,Auftrag,uagizaji,d,ghanima,kuzingatia,msukani,NA,NA,NA,NULL,NA,NA,NA,NA,NA,NA,NA,NA,NA,NA,NA,NA,NA,NA,NA,NA,NA,NA,NA
44405,task,flow.Sequence,1_5,NA,NA,completion,3016.3,55102,55099.96,55116.62,58132.92,58136,2023-05-30T09:48:42Z,58149.58,Auftrag,uagizaji,d,ghanima,kuzingatia,msukani,NA,NA,NA,NULL,NA,NA,NA,NA,NA,NA,NA,NA,NA,NA,NA,NA,NA,NA,NA,NA,NA,NA,NA
44405,Deep Question,html.Page,1_6_0_0,NA,NA,form submission,3235.42,58137,58132.92,58149.58,61385,61385,2023-05-30T09:48:46Z,61383.56,Widerstand,usulubu,s,kusababisha,mwalimu,mwenendo,sldkfj,NA,NA,NULL,NA,NA,NA,NA,NA,NA,NA,NA,NA,NA,NA,NA,NA,NA,NA,NA,NA,NA,NA
44405,Save data screen,canvas.Screen,1_6_0_1,NA,NA,timeout,498.92000000001,61387,61383.28,61383.56,61865.82,61866,2023-05-30T09:48:46Z,61882.48,Widerstand,usulubu,s,kusababisha,mwalimu,mwenendo,NA,NA,0,NULL,NA,NA,NA,NA,NA,NA,NA,NA,NA,NA,NA,NA,NA,NA,NA,NA,NA,NA,NA
44405,deep,flow.Sequence,1_6_0,NA,NA,completion,3716.24,58137,58132.92,58149.58,61865.82,61867,2023-05-30T09:48:46Z,61882.48,Widerstand,usulubu,s,kusababisha,mwalimu,mwenendo,NA,NA,NA,NULL,NA,NA,NA,NA,NA,NA,NA,NA,NA,NA,NA,NA,NA,NA,NA,NA,NA,NA,NA
44405,task,flow.Sequence,1_6,NA,NA,completion,3716.24,58137,58132.92,58149.58,61865.82,61867,2023-05-30T09:48:46Z,61882.48,Widerstand,usulubu,s,kusababisha,mwalimu,mwenendo,NA,NA,NA,NULL,NA,NA,NA,NA,NA,NA,NA,NA,NA,NA,NA,NA,NA,NA,NA,NA,NA,NA,NA
44405,Deep Question,html.Page,1_7_0_0,NA,NA,form submission,2459.52,61868,61865.82,61882.48,64342,64342,2023-05-30T09:48:49Z,64340.6,Polizist,msongora,d,simanzi,mandhari,nidhamu,slkdjaf,NA,NA,NULL,NA,NA,NA,NA,NA,NA,NA,NA,NA,NA,NA,NA,NA,NA,NA,NA,NA,NA,NA
44405,Save data screen,canvas.Screen,1_7_0_1,NA,NA,timeout,508.16,64344,64340.32,64340.6,64832.1,64838,2023-05-30T09:48:49Z,64848.76,Polizist,msongora,d,simanzi,mandhari,nidhamu,NA,NA,0,NULL,NA,NA,NA,NA,NA,NA,NA,NA,NA,NA,NA,NA,NA,NA,NA,NA,NA,NA,NA
44405,deep,flow.Sequence,1_7_0,NA,NA,completion,2949.62,61868,61865.82,61882.48,64832.1,64845,2023-05-30T09:48:49Z,64848.76,Polizist,msongora,d,simanzi,mandhari,nidhamu,NA,NA,NA,NULL,NA,NA,NA,NA,NA,NA,NA,NA,NA,NA,NA,NA,NA,NA,NA,NA,NA,NA,NA
44405,task,flow.Sequence,1_7,NA,NA,completion,2949.62,61867,61865.82,61882.48,64832.1,64849,2023-05-30T09:48:49Z,64848.76,Polizist,msongora,d,simanzi,mandhari,nidhamu,NA,NA,NA,NULL,NA,NA,NA,NA,NA,NA,NA,NA,NA,NA,NA,NA,NA,NA,NA,NA,NA,NA,NA
44405,Deep Question,html.Page,1_8_0_0,NA,NA,form submission,5634.24,64852,64832.1,64848.76,70483,70483,2023-05-30T09:48:55Z,70497.98,Beweis,ushahidi,d,marudio,kizuizi,mtendaji,sldkfj,NA,NA,NULL,NA,NA,NA,NA,NA,NA,NA,NA,NA,NA,NA,NA,NA,NA,NA,NA,NA,NA,NA
44405,Save data screen,canvas.Screen,1_8_0_1,NA,NA,timeout,500,70487,70481.92,70497.98,70981.32,70982,2023-05-30T09:48:55Z,70997.98,Beweis,ushahidi,d,marudio,kizuizi,mtendaji,NA,NA,0,NULL,NA,NA,NA,NA,NA,NA,NA,NA,NA,NA,NA,NA,NA,NA,NA,NA,NA,NA,NA
44405,deep,flow.Sequence,1_8_0,NA,NA,completion,6132.56,64851,64832.1,64848.76,70981.32,70983,2023-05-30T09:48:55Z,70997.98,Beweis,ushahidi,d,marudio,kizuizi,mtendaji,NA,NA,NA,NULL,NA,NA,NA,NA,NA,NA,NA,NA,NA,NA,NA,NA,NA,NA,NA,NA,NA,NA,NA
44405,task,flow.Sequence,1_8,NA,NA,completion,6132.56,64851,64832.1,64848.76,70981.32,70983,2023-05-30T09:48:55Z,70997.98,Beweis,ushahidi,d,marudio,kizuizi,mtendaji,NA,NA,NA,NULL,NA,NA,NA,NA,NA,NA,NA,NA,NA,NA,NA,NA,NA,NA,NA,NA,NA,NA,NA
44405,Deep Question,html.Page,1_9_0_0,NA,NA,form submission,2188.02,70984,70981.32,70997.98,73186,73189,2023-05-30T09:48:58Z,73197.62,Verstand,ufahamivu,s,shakawa,hadhari,mhandisi,sdköfj,NA,NA,NULL,NA,NA,NA,NA,NA,NA,NA,NA,NA,NA,NA,NA,NA,NA,NA,NA,NA,NA,NA
44405,Save data screen,canvas.Screen,1_9_0_1,NA,NA,timeout,499.94,73196,73183.76,73197.62,73681.02,73683,2023-05-30T09:48:58Z,73697.56,Verstand,ufahamivu,s,shakawa,hadhari,mhandisi,NA,NA,0,NULL,NA,NA,NA,NA,NA,NA,NA,NA,NA,NA,NA,NA,NA,NA,NA,NA,NA,NA,NA
44405,deep,flow.Sequence,1_9_0,NA,NA,completion,2683.04,70984,70981.32,70997.98,73681.02,73685,2023-05-30T09:48:58Z,73697.56,Verstand,ufahamivu,s,shakawa,hadhari,mhandisi,NA,NA,NA,NULL,NA,NA,NA,NA,NA,NA,NA,NA,NA,NA,NA,NA,NA,NA,NA,NA,NA,NA,NA
44405,task,flow.Sequence,1_9,NA,NA,completion,2683.04,70984,70981.32,70997.98,73681.02,73687,2023-05-30T09:48:58Z,73697.56,Verstand,ufahamivu,s,shakawa,hadhari,mhandisi,NA,NA,NA,NULL,NA,NA,NA,NA,NA,NA,NA,NA,NA,NA,NA,NA,NA,NA,NA,NA,NA,NA,NA
44405,Deep Question,html.Page,1_10_0_0,NA,NA,form submission,2693.44,73690,73681.02,73697.56,76391,76391,2023-05-30T09:49:01Z,76397.24,Zuwachs,nyongeza,s,matilaba,udhibiti,hudhurio,sdfkj,NA,NA,NULL,NA,NA,NA,NA,NA,NA,NA,NA,NA,NA,NA,NA,NA,NA,NA,NA,NA,NA,NA
44405,Save data screen,canvas.Screen,1_10_0_1,NA,NA,timeout,499.95999999999,76394,76389.78,76397.24,76880.56,76883,2023-05-30T09:49:01Z,76897.2,Zuwachs,nyongeza,s,matilaba,udhibiti,hudhurio,NA,NA,0,NULL,NA,NA,NA,NA,NA,NA,NA,NA,NA,NA,NA,NA,NA,NA,NA,NA,NA,NA,NA
44405,deep,flow.Sequence,1_10_0,NA,NA,completion,3183,73690,73681.02,73697.56,76880.56,76884,2023-05-30T09:49:01Z,76897.2,Zuwachs,nyongeza,s,matilaba,udhibiti,hudhurio,NA,NA,NA,NULL,NA,NA,NA,NA,NA,NA,NA,NA,NA,NA,NA,NA,NA,NA,NA,NA,NA,NA,NA
44405,task,flow.Sequence,1_10,NA,NA,completion,3183,73689,73681.02,73697.56,76880.56,76885,2023-05-30T09:49:01Z,76897.2,Zuwachs,nyongeza,s,matilaba,udhibiti,hudhurio,NA,NA,NA,NULL,NA,NA,NA,NA,NA,NA,NA,NA,NA,NA,NA,NA,NA,NA,NA,NA,NA,NA,NA
44405,Deep Question,html.Page,1_11_0_0,NA,NA,form submission,5986.8,76886,76880.56,76897.2,82884,82884,2023-05-30T09:49:07Z,82882.7,Sympathie,mapendano,s,dhamiria,fungamano,maazimio,dfgkj,NA,NA,NULL,NA,NA,NA,NA,NA,NA,NA,NA,NA,NA,NA,NA,NA,NA,NA,NA,NA,NA,NA
44405,Save data screen,canvas.Screen,1_11_0_1,NA,NA,timeout,497.04000000001,82886,82882.36,82882.7,83363.08,83365,2023-05-30T09:49:08Z,83379.74,Sympathie,mapendano,s,dhamiria,fungamano,maazimio,NA,NA,0,NULL,NA,NA,NA,NA,NA,NA,NA,NA,NA,NA,NA,NA,NA,NA,NA,NA,NA,NA,NA
44405,deep,flow.Sequence,1_11_0,NA,NA,completion,6465.88,76886,76880.56,76897.2,83363.08,83366,2023-05-30T09:49:08Z,83379.74,Sympathie,mapendano,s,dhamiria,fungamano,maazimio,NA,NA,NA,NULL,NA,NA,NA,NA,NA,NA,NA,NA,NA,NA,NA,NA,NA,NA,NA,NA,NA,NA,NA
44405,task,flow.Sequence,1_11,NA,NA,completion,6465.88,76886,76880.56,76897.2,83363.08,83366,2023-05-30T09:49:08Z,83379.74,Sympathie,mapendano,s,dhamiria,fungamano,maazimio,NA,NA,NA,NULL,NA,NA,NA,NA,NA,NA,NA,NA,NA,NA,NA,NA,NA,NA,NA,NA,NA,NA,NA
44405,Deep Question,html.Page,1_12_0_0,NA,NA,form submission,2280.26,83367,83363.08,83379.74,85660,85660,2023-05-30T09:49:10Z,85662.72,Symbol,kielezo,s,kinyume,nderemo,utayari,skdlfj,NA,NA,NULL,NA,NA,NA,NA,NA,NA,NA,NA,NA,NA,NA,NA,NA,NA,NA,NA,NA,NA,NA
44405,Save data screen,canvas.Screen,1_12_0_1,NA,NA,timeout,499.95999999999,85663,85657.94,85662.72,86146.12,86148,2023-05-30T09:49:10Z,86162.68,Symbol,kielezo,s,kinyume,nderemo,utayari,NA,NA,0,NULL,NA,NA,NA,NA,NA,NA,NA,NA,NA,NA,NA,NA,NA,NA,NA,NA,NA,NA,NA
44405,deep,flow.Sequence,1_12_0,NA,NA,completion,2766.38,83367,83363.08,83379.74,86146.12,86149,2023-05-30T09:49:10Z,86162.68,Symbol,kielezo,s,kinyume,nderemo,utayari,NA,NA,NA,NULL,NA,NA,NA,NA,NA,NA,NA,NA,NA,NA,NA,NA,NA,NA,NA,NA,NA,NA,NA
44405,task,flow.Sequence,1_12,NA,NA,completion,2766.38,83367,83363.08,83379.74,86146.12,86150,2023-05-30T09:49:10Z,86162.68,Symbol,kielezo,s,kinyume,nderemo,utayari,NA,NA,NA,NULL,NA,NA,NA,NA,NA,NA,NA,NA,NA,NA,NA,NA,NA,NA,NA,NA,NA,NA,NA
44405,Deep Question,html.Page,1_13_0_0,NA,NA,form submission,2855.32,86150,86146.12,86162.68,89018,89019,2023-05-30T09:49:13Z,89028.94,Annäherung,maegesho,s,madahili,kujiamini,mapendekezo,sdflkj,NA,NA,NULL,NA,NA,NA,NA,NA,NA,NA,NA,NA,NA,NA,NA,NA,NA,NA,NA,NA,NA,NA
44405,Save data screen,canvas.Screen,1_13_0_1,NA,NA,timeout,499.94,89021,89016.56,89028.94,89512.22,89514,2023-05-30T09:49:14Z,89528.88,Annäherung,maegesho,s,madahili,kujiamini,mapendekezo,NA,NA,0,NULL,NA,NA,NA,NA,NA,NA,NA,NA,NA,NA,NA,NA,NA,NA,NA,NA,NA,NA,NA
44405,deep,flow.Sequence,1_13_0,NA,NA,completion,3349.54,86150,86146.12,86162.68,89512.22,89515,2023-05-30T09:49:14Z,89528.88,Annäherung,maegesho,s,madahili,kujiamini,mapendekezo,NA,NA,NA,NULL,NA,NA,NA,NA,NA,NA,NA,NA,NA,NA,NA,NA,NA,NA,NA,NA,NA,NA,NA
44405,task,flow.Sequence,1_13,NA,NA,completion,3349.54,86150,86146.12,86162.68,89512.22,89516,2023-05-30T09:49:14Z,89528.88,Annäherung,maegesho,s,madahili,kujiamini,mapendekezo,NA,NA,NA,NULL,NA,NA,NA,NA,NA,NA,NA,NA,NA,NA,NA,NA,NA,NA,NA,NA,NA,NA,NA
44405,Deep Question,html.Page,1_14_0_0,NA,NA,form submission,4819.12,89517,89512.22,89528.88,94348,94349,2023-05-30T09:49:19Z,94361.6,Zufall,kikuti,s,kukosekana,uchoraji,leseni,sdflkj,NA,NA,NULL,NA,NA,NA,NA,NA,NA,NA,NA,NA,NA,NA,NA,NA,NA,NA,NA,NA,NA,NA
44405,Save data screen,canvas.Screen,1_14_0_1,NA,NA,timeout,499.98,94350,94346.96,94361.6,94844.92,94846,2023-05-30T09:49:19Z,94861.58,Zufall,kikuti,s,kukosekana,uchoraji,leseni,NA,NA,0,NULL,NA,NA,NA,NA,NA,NA,NA,NA,NA,NA,NA,NA,NA,NA,NA,NA,NA,NA,NA
44405,deep,flow.Sequence,1_14_0,NA,NA,completion,5316.04,89517,89512.22,89528.88,94844.92,94847,2023-05-30T09:49:19Z,94861.58,Zufall,kikuti,s,kukosekana,uchoraji,leseni,NA,NA,NA,NULL,NA,NA,NA,NA,NA,NA,NA,NA,NA,NA,NA,NA,NA,NA,NA,NA,NA,NA,NA
44405,task,flow.Sequence,1_14,NA,NA,completion,5316.04,89517,89512.22,89528.88,94844.92,94848,2023-05-30T09:49:19Z,94861.58,Zufall,kikuti,s,kukosekana,uchoraji,leseni,NA,NA,NA,NULL,NA,NA,NA,NA,NA,NA,NA,NA,NA,NA,NA,NA,NA,NA,NA,NA,NA,NA,NA
44405,Deep Question,html.Page,1_15_0_0,NA,NA,form submission,2704.42,94849,94844.92,94861.58,97566,97566,2023-05-30T09:49:22Z,97564.94,Gelegenheit,wakati,d,mchanganyiko,kipaumbele,kushuku,sdflkj,NA,NA,NULL,NA,NA,NA,NA,NA,NA,NA,NA,NA,NA,NA,NA,NA,NA,NA,NA,NA,NA,NA
44405,Save data screen,canvas.Screen,1_15_0_1,NA,NA,timeout,498.75999999999,97567,97564.66,97564.94,98044.46,98046,2023-05-30T09:49:22Z,98063.7,Gelegenheit,wakati,d,mchanganyiko,kipaumbele,kushuku,NA,NA,0,NULL,NA,NA,NA,NA,NA,NA,NA,NA,NA,NA,NA,NA,NA,NA,NA,NA,NA,NA,NA
44405,deep,flow.Sequence,1_15_0,NA,NA,completion,3182.88,94848,94844.92,94861.58,98044.46,98046,2023-05-30T09:49:22Z,98063.7,Gelegenheit,wakati,d,mchanganyiko,kipaumbele,kushuku,NA,NA,NA,NULL,NA,NA,NA,NA,NA,NA,NA,NA,NA,NA,NA,NA,NA,NA,NA,NA,NA,NA,NA
44405,task,flow.Sequence,1_15,NA,NA,completion,3182.88,94848,94844.92,94861.58,98044.46,98047,2023-05-30T09:49:22Z,98063.7,Gelegenheit,wakati,d,mchanganyiko,kipaumbele,kushuku,NA,NA,NA,NULL,NA,NA,NA,NA,NA,NA,NA,NA,NA,NA,NA,NA,NA,NA,NA,NA,NA,NA,NA
44405,retrieval block 1 (cued recall),flow.Loop,1,NA,NA,completion,70907.52,27132,27134.2,27136.94,98044.46,98049,2023-05-30T09:49:22Z,98063.7,NA,NA,NA,NA,NA,NA,NA,NA,NA,NULL,NA,NA,NA,NA,NA,NA,NA,NA,NA,NA,NA,NA,NA,NA,NA,NA,NA,NA,NA
44405,Shallow Question,html.Page,2_0_0_0,NA,NA,form submission,8743.3,98050,98044.46,98063.7,106807,106808,2023-05-30T09:49:31Z,106810.08,Zufall,kikuti,s,kukosekana,uchoraji,leseni,kikuti,NA,NA,"c(""distractor1"", ""distractor2"", ""distractor3"")",NA,NA,NA,NA,NA,NA,NA,NA,NA,NA,NA,NA,NA,NA,NA,NA,NA,NA,NA
44405,Save data screen,canvas.Screen,2_0_0_1,NA,NA,timeout,499.95999999999,106809,106805.9,106810.08,107293.38,107295,2023-05-30T09:49:32Z,107310.04,Zufall,kikuti,s,kukosekana,uchoraji,leseni,NA,NA,1,"c(""distractor1"", ""distractor2"", ""distractor3"")",NA,NA,NA,NA,NA,NA,NA,NA,NA,NA,NA,NA,NA,NA,NA,NA,NA,NA,NA
44405,shallow,flow.Sequence,2_0_0,NA,NA,completion,9229.68,98050,98044.46,98063.7,107293.38,107296,2023-05-30T09:49:32Z,107310.04,Zufall,kikuti,s,kukosekana,uchoraji,leseni,NA,NA,NA,"c(""distractor1"", ""distractor2"", ""distractor3"")",NA,NA,NA,NA,NA,NA,NA,NA,NA,NA,NA,NA,NA,NA,NA,NA,NA,NA,NA
44405,task,flow.Sequence,2_0,NA,NA,completion,9229.68,98050,98044.46,98063.7,107293.38,107297,2023-05-30T09:49:32Z,107310.04,Zufall,kikuti,s,kukosekana,uchoraji,leseni,NA,NA,NA,"c(""distractor1"", ""distractor2"", ""distractor3"")",NA,NA,NA,NA,NA,NA,NA,NA,NA,NA,NA,NA,NA,NA,NA,NA,NA,NA,NA
44405,Shallow Question,html.Page,2_1_0_0,NA,NA,form submission,10113.96,107297,107293.38,107310.04,117424,117425,2023-05-30T09:49:42Z,117425.42,Verstand,ufahamivu,s,shakawa,hadhari,mhandisi,ufahamivu,NA,NA,"c(""distractor1"", ""distractor2"", ""distractor3"")",NA,NA,NA,NA,NA,NA,NA,NA,NA,NA,NA,NA,NA,NA,NA,NA,NA,NA,NA
44405,Save data screen,canvas.Screen,2_1_0_1,NA,NA,timeout,499.98,117426,117422.14,117425.42,117908.74,117913,2023-05-30T09:49:42Z,117925.4,Verstand,ufahamivu,s,shakawa,hadhari,mhandisi,NA,NA,1,"c(""distractor1"", ""distractor2"", ""distractor3"")",NA,NA,NA,NA,NA,NA,NA,NA,NA,NA,NA,NA,NA,NA,NA,NA,NA,NA,NA
44405,shallow,flow.Sequence,2_1_0,NA,NA,completion,10598.7,107297,107293.38,107310.04,117908.74,117919,2023-05-30T09:49:42Z,117925.4,Verstand,ufahamivu,s,shakawa,hadhari,mhandisi,NA,NA,NA,"c(""distractor1"", ""distractor2"", ""distractor3"")",NA,NA,NA,NA,NA,NA,NA,NA,NA,NA,NA,NA,NA,NA,NA,NA,NA,NA,NA
44405,task,flow.Sequence,2_1,NA,NA,completion,10598.7,107297,107293.38,107310.04,117908.74,117922,2023-05-30T09:49:42Z,117925.4,Verstand,ufahamivu,s,shakawa,hadhari,mhandisi,NA,NA,NA,"c(""distractor1"", ""distractor2"", ""distractor3"")",NA,NA,NA,NA,NA,NA,NA,NA,NA,NA,NA,NA,NA,NA,NA,NA,NA,NA,NA
44405,Shallow Question,html.Page,2_2_0_0,NA,NA,form submission,9386.6,117923,117908.74,117925.4,127312,127314,2023-05-30T09:49:52Z,127324.12,Vorsorge,tahadhari,d,ufafanuzi,makini,mashambani,ufafanuzi,NA,NA,"c(""distractor1"", ""distractor2"", ""distractor3"")",NA,NA,NA,NA,NA,NA,NA,NA,NA,NA,NA,NA,NA,NA,NA,NA,NA,NA,NA
44405,Save data screen,canvas.Screen,2_2_0_1,NA,NA,timeout,499.96000000001,127320,127309.64,127324.12,127807.46,127810,2023-05-30T09:49:52Z,127824.08,Vorsorge,tahadhari,d,ufafanuzi,makini,mashambani,NA,NA,0,"c(""distractor1"", ""distractor2"", ""distractor3"")",NA,NA,NA,NA,NA,NA,NA,NA,NA,NA,NA,NA,NA,NA,NA,NA,NA,NA,NA
44405,shallow,flow.Sequence,2_2_0,NA,NA,completion,9882.06,117923,117908.74,117925.4,127807.46,127812,2023-05-30T09:49:52Z,127824.08,Vorsorge,tahadhari,d,ufafanuzi,makini,mashambani,NA,NA,NA,"c(""distractor1"", ""distractor2"", ""distractor3"")",NA,NA,NA,NA,NA,NA,NA,NA,NA,NA,NA,NA,NA,NA,NA,NA,NA,NA,NA
44405,task,flow.Sequence,2_2,NA,NA,completion,9882.06,117923,117908.74,117925.4,127807.46,127813,2023-05-30T09:49:52Z,127824.08,Vorsorge,tahadhari,d,ufafanuzi,makini,mashambani,NA,NA,NA,"c(""distractor1"", ""distractor2"", ""distractor3"")",NA,NA,NA,NA,NA,NA,NA,NA,NA,NA,NA,NA,NA,NA,NA,NA,NA,NA,NA
44405,Shallow Question,html.Page,2_3_0_0,NA,NA,form submission,7621.92,127815,127807.46,127824.08,135446,135448,2023-05-30T09:50:00Z,135456.48,Gelegenheit,wakati,d,mchanganyiko,kipaumbele,kushuku,mchanganyiko,NA,NA,"c(""distractor1"", ""distractor2"", ""distractor3"")",NA,NA,NA,NA,NA,NA,NA,NA,NA,NA,NA,NA,NA,NA,NA,NA,NA,NA,NA
44405,Save data screen,canvas.Screen,2_3_0_1,NA,NA,timeout,499.91999999998,135454,135443.9,135456.48,135939.76,135942,2023-05-30T09:50:00Z,135956.4,Gelegenheit,wakati,d,mchanganyiko,kipaumbele,kushuku,NA,NA,0,"c(""distractor1"", ""distractor2"", ""distractor3"")",NA,NA,NA,NA,NA,NA,NA,NA,NA,NA,NA,NA,NA,NA,NA,NA,NA,NA,NA
44405,shallow,flow.Sequence,2_3_0,NA,NA,completion,8115.68,127815,127807.46,127824.08,135939.76,135944,2023-05-30T09:50:00Z,135956.4,Gelegenheit,wakati,d,mchanganyiko,kipaumbele,kushuku,NA,NA,NA,"c(""distractor1"", ""distractor2"", ""distractor3"")",NA,NA,NA,NA,NA,NA,NA,NA,NA,NA,NA,NA,NA,NA,NA,NA,NA,NA,NA
44405,task,flow.Sequence,2_3,NA,NA,completion,8115.68,127814,127807.46,127824.08,135939.76,135946,2023-05-30T09:50:00Z,135956.4,Gelegenheit,wakati,d,mchanganyiko,kipaumbele,kushuku,NA,NA,NA,"c(""distractor1"", ""distractor2"", ""distractor3"")",NA,NA,NA,NA,NA,NA,NA,NA,NA,NA,NA,NA,NA,NA,NA,NA,NA,NA,NA
44405,Shallow Question,html.Page,2_4_0_0,NA,NA,form submission,13561.6,135948,135939.76,135956.4,149518,149519,2023-05-30T09:50:14Z,149521.4,Polizist,msongora,d,simanzi,mandhari,nidhamu,msongora,NA,NA,"c(""distractor1"", ""distractor2"", ""distractor3"")",NA,NA,NA,NA,NA,NA,NA,NA,NA,NA,NA,NA,NA,NA,NA,NA,NA,NA,NA
44405,Save data screen,canvas.Screen,2_4_0_1,NA,NA,timeout,499.94,149521,149516.42,149521.4,150004.68,150006,2023-05-30T09:50:14Z,150021.34,Polizist,msongora,d,simanzi,mandhari,nidhamu,NA,NA,1,"c(""distractor1"", ""distractor2"", ""distractor3"")",NA,NA,NA,NA,NA,NA,NA,NA,NA,NA,NA,NA,NA,NA,NA,NA,NA,NA,NA
44405,shallow,flow.Sequence,2_4_0,NA,NA,completion,14048.28,135948,135939.76,135956.4,150004.68,150007,2023-05-30T09:50:14Z,150021.34,Polizist,msongora,d,simanzi,mandhari,nidhamu,NA,NA,NA,"c(""distractor1"", ""distractor2"", ""distractor3"")",NA,NA,NA,NA,NA,NA,NA,NA,NA,NA,NA,NA,NA,NA,NA,NA,NA,NA,NA
44405,task,flow.Sequence,2_4,NA,NA,completion,14048.28,135948,135939.76,135956.4,150004.68,150008,2023-05-30T09:50:14Z,150021.34,Polizist,msongora,d,simanzi,mandhari,nidhamu,NA,NA,NA,"c(""distractor1"", ""distractor2"", ""distractor3"")",NA,NA,NA,NA,NA,NA,NA,NA,NA,NA,NA,NA,NA,NA,NA,NA,NA,NA,NA
44405,Shallow Question,html.Page,2_5_0_0,NA,NA,form submission,39370.66,150009,150004.68,150021.34,189392,189393,2023-05-30T09:50:54Z,189391.24,Konkurrent,mshindani,d,msemaji,mvutaji,kipukusa,mshindani,NA,NA,"c(""distractor1"", ""distractor2"", ""distractor3"")",NA,NA,NA,NA,NA,NA,NA,NA,NA,NA,NA,NA,NA,NA,NA,NA,NA,NA,NA
44405,Save data screen,canvas.Screen,2_5_0_1,NA,NA,timeout,491.64000000001,189395,189390.94,189391.24,189866.26,189868,2023-05-30T09:50:54Z,189882.88,Konkurrent,mshindani,d,msemaji,mvutaji,kipukusa,NA,NA,1,"c(""distractor1"", ""distractor2"", ""distractor3"")",NA,NA,NA,NA,NA,NA,NA,NA,NA,NA,NA,NA,NA,NA,NA,NA,NA,NA,NA
44405,shallow,flow.Sequence,2_5_0,NA,NA,completion,39844.92,150009,150004.68,150021.34,189866.26,189869,2023-05-30T09:50:54Z,189882.88,Konkurrent,mshindani,d,msemaji,mvutaji,kipukusa,NA,NA,NA,"c(""distractor1"", ""distractor2"", ""distractor3"")",NA,NA,NA,NA,NA,NA,NA,NA,NA,NA,NA,NA,NA,NA,NA,NA,NA,NA,NA
44405,task,flow.Sequence,2_5,NA,NA,completion,39844.92,150009,150004.68,150021.34,189866.26,189870,2023-05-30T09:50:54Z,189882.88,Konkurrent,mshindani,d,msemaji,mvutaji,kipukusa,NA,NA,NA,"c(""distractor1"", ""distractor2"", ""distractor3"")",NA,NA,NA,NA,NA,NA,NA,NA,NA,NA,NA,NA,NA,NA,NA,NA,NA,NA,NA
44405,Shallow Question,html.Page,2_6_0_0,NA,NA,form submission,9730.12,189871,189866.26,189882.88,199613,199613,2023-05-30T09:51:04Z,199615,Sympathie,mapendano,s,dhamiria,fungamano,maazimio,dhamiria,NA,NA,"c(""distractor1"", ""distractor2"", ""distractor3"")",NA,NA,NA,NA,NA,NA,NA,NA,NA,NA,NA,NA,NA,NA,NA,NA,NA,NA,NA
44405,Save data screen,canvas.Screen,2_6_0_1,NA,NA,timeout,499.89999999999,199615,199611.92,199615,200098.24,200099,2023-05-30T09:51:04Z,200114.9,Sympathie,mapendano,s,dhamiria,fungamano,maazimio,NA,NA,0,"c(""distractor1"", ""distractor2"", ""distractor3"")",NA,NA,NA,NA,NA,NA,NA,NA,NA,NA,NA,NA,NA,NA,NA,NA,NA,NA,NA
44405,shallow,flow.Sequence,2_6_0,NA,NA,completion,10215.36,189871,189866.26,189882.88,200098.24,200099,2023-05-30T09:51:04Z,200114.9,Sympathie,mapendano,s,dhamiria,fungamano,maazimio,NA,NA,NA,"c(""distractor1"", ""distractor2"", ""distractor3"")",NA,NA,NA,NA,NA,NA,NA,NA,NA,NA,NA,NA,NA,NA,NA,NA,NA,NA,NA
44405,task,flow.Sequence,2_6,NA,NA,completion,10215.36,189870,189866.26,189882.88,200098.24,200099,2023-05-30T09:51:04Z,200114.9,Sympathie,mapendano,s,dhamiria,fungamano,maazimio,NA,NA,NA,"c(""distractor1"", ""distractor2"", ""distractor3"")",NA,NA,NA,NA,NA,NA,NA,NA,NA,NA,NA,NA,NA,NA,NA,NA,NA,NA,NA
44405,Shallow Question,html.Page,2_7_0_0,NA,NA,form submission,3604.1,200101,200098.24,200114.9,203719,203719,2023-05-30T09:51:08Z,203718.24,Wettbewerb,ushindani,d,mapendezi,kichocheo,ubaguzi,ushindani,NA,NA,"c(""distractor1"", ""distractor2"", ""distractor3"")",NA,NA,NA,NA,NA,NA,NA,NA,NA,NA,NA,NA,NA,NA,NA,NA,NA,NA,NA
44405,Save data screen,canvas.Screen,2_7_0_1,NA,NA,timeout,496.16,203722,203717.8,203718.24,204197.76,204198,2023-05-30T09:51:09Z,204214.4,Wettbewerb,ushindani,d,mapendezi,kichocheo,ubaguzi,NA,NA,1,"c(""distractor1"", ""distractor2"", ""distractor3"")",NA,NA,NA,NA,NA,NA,NA,NA,NA,NA,NA,NA,NA,NA,NA,NA,NA,NA,NA
44405,shallow,flow.Sequence,2_7_0,NA,NA,completion,4082.86,200101,200098.24,200114.9,204197.76,204199,2023-05-30T09:51:09Z,204214.4,Wettbewerb,ushindani,d,mapendezi,kichocheo,ubaguzi,NA,NA,NA,"c(""distractor1"", ""distractor2"", ""distractor3"")",NA,NA,NA,NA,NA,NA,NA,NA,NA,NA,NA,NA,NA,NA,NA,NA,NA,NA,NA
44405,task,flow.Sequence,2_7,NA,NA,completion,4082.86,200100,200098.24,200114.9,204197.76,204199,2023-05-30T09:51:09Z,204214.4,Wettbewerb,ushindani,d,mapendezi,kichocheo,ubaguzi,NA,NA,NA,"c(""distractor1"", ""distractor2"", ""distractor3"")",NA,NA,NA,NA,NA,NA,NA,NA,NA,NA,NA,NA,NA,NA,NA,NA,NA,NA,NA
44405,Shallow Question,html.Page,2_8_0_0,NA,NA,form submission,10628.6,204200,204197.76,204214.4,214843,214843,2023-05-30T09:51:19Z,214846.38,Ausschluss,kutengwa,d,ununuzi,taratibu,madeni,ununuzi,NA,NA,"c(""distractor1"", ""distractor2"", ""distractor3"")",NA,NA,NA,NA,NA,NA,NA,NA,NA,NA,NA,NA,NA,NA,NA,NA,NA,NA,NA
44405,Save data screen,canvas.Screen,2_8_0_1,NA,NA,timeout,500,214845,214841.96,214846.38,215329.72,215331,2023-05-30T09:51:20Z,215346.38,Ausschluss,kutengwa,d,ununuzi,taratibu,madeni,NA,NA,0,"c(""distractor1"", ""distractor2"", ""distractor3"")",NA,NA,NA,NA,NA,NA,NA,NA,NA,NA,NA,NA,NA,NA,NA,NA,NA,NA,NA
44405,shallow,flow.Sequence,2_8_0,NA,NA,completion,11115.32,204200,204197.76,204214.4,215329.72,215332,2023-05-30T09:51:20Z,215346.38,Ausschluss,kutengwa,d,ununuzi,taratibu,madeni,NA,NA,NA,"c(""distractor1"", ""distractor2"", ""distractor3"")",NA,NA,NA,NA,NA,NA,NA,NA,NA,NA,NA,NA,NA,NA,NA,NA,NA,NA,NA
44405,task,flow.Sequence,2_8,NA,NA,completion,11115.32,204200,204197.76,204214.4,215329.72,215333,2023-05-30T09:51:20Z,215346.38,Ausschluss,kutengwa,d,ununuzi,taratibu,madeni,NA,NA,NA,"c(""distractor1"", ""distractor2"", ""distractor3"")",NA,NA,NA,NA,NA,NA,NA,NA,NA,NA,NA,NA,NA,NA,NA,NA,NA,NA,NA
44405,Shallow Question,html.Page,2_9_0_0,NA,NA,form submission,11250.62,215333,215329.72,215346.38,226597,226597,2023-05-30T09:51:31Z,226595.64,Widerstand,usulubu,s,kusababisha,mwalimu,mwenendo,usulubu,NA,NA,"c(""distractor1"", ""distractor2"", ""distractor3"")",NA,NA,NA,NA,NA,NA,NA,NA,NA,NA,NA,NA,NA,NA,NA,NA,NA,NA,NA
44405,Save data screen,canvas.Screen,2_9_0_1,NA,NA,timeout,499.19999999998,226599,226595.3,226595.64,227078.22,227079,2023-05-30T09:51:31Z,227094.84,Widerstand,usulubu,s,kusababisha,mwalimu,mwenendo,NA,NA,1,"c(""distractor1"", ""distractor2"", ""distractor3"")",NA,NA,NA,NA,NA,NA,NA,NA,NA,NA,NA,NA,NA,NA,NA,NA,NA,NA,NA
44405,shallow,flow.Sequence,2_9_0,NA,NA,completion,11731.84,215333,215329.72,215346.38,227078.22,227080,2023-05-30T09:51:31Z,227094.84,Widerstand,usulubu,s,kusababisha,mwalimu,mwenendo,NA,NA,NA,"c(""distractor1"", ""distractor2"", ""distractor3"")",NA,NA,NA,NA,NA,NA,NA,NA,NA,NA,NA,NA,NA,NA,NA,NA,NA,NA,NA
44405,task,flow.Sequence,2_9,NA,NA,completion,11731.84,215333,215329.72,215346.38,227078.22,227081,2023-05-30T09:51:31Z,227094.84,Widerstand,usulubu,s,kusababisha,mwalimu,mwenendo,NA,NA,NA,"c(""distractor1"", ""distractor2"", ""distractor3"")",NA,NA,NA,NA,NA,NA,NA,NA,NA,NA,NA,NA,NA,NA,NA,NA,NA,NA,NA
44405,Shallow Question,html.Page,2_10_0_0,NA,NA,form submission,7064.16,227081,227078.22,227094.84,234159,234159,2023-05-30T09:51:39Z,234160.68,Beweis,ushahidi,d,marudio,kizuizi,mtendaji,ushahidi,NA,NA,"c(""distractor1"", ""distractor2"", ""distractor3"")",NA,NA,NA,NA,NA,NA,NA,NA,NA,NA,NA,NA,NA,NA,NA,NA,NA,NA,NA
44405,Save data screen,canvas.Screen,2_10_0_1,NA,NA,timeout,499.84,234161,234158.38,234160.68,234643.86,234646,2023-05-30T09:51:39Z,234660.52,Beweis,ushahidi,d,marudio,kizuizi,mtendaji,NA,NA,1,"c(""distractor1"", ""distractor2"", ""distractor3"")",NA,NA,NA,NA,NA,NA,NA,NA,NA,NA,NA,NA,NA,NA,NA,NA,NA,NA,NA
44405,shallow,flow.Sequence,2_10_0,NA,NA,completion,7549.02,227081,227078.22,227094.84,234643.86,234646,2023-05-30T09:51:39Z,234660.52,Beweis,ushahidi,d,marudio,kizuizi,mtendaji,NA,NA,NA,"c(""distractor1"", ""distractor2"", ""distractor3"")",NA,NA,NA,NA,NA,NA,NA,NA,NA,NA,NA,NA,NA,NA,NA,NA,NA,NA,NA
44405,task,flow.Sequence,2_10,NA,NA,completion,7549.02,227081,227078.22,227094.84,234643.86,234647,2023-05-30T09:51:39Z,234660.52,Beweis,ushahidi,d,marudio,kizuizi,mtendaji,NA,NA,NA,"c(""distractor1"", ""distractor2"", ""distractor3"")",NA,NA,NA,NA,NA,NA,NA,NA,NA,NA,NA,NA,NA,NA,NA,NA,NA,NA,NA
44405,Shallow Question,html.Page,2_11_0_0,NA,NA,form submission,5700.48,234647,234643.86,234660.52,240361,240361,2023-05-30T09:51:45Z,240359.82,Schönheit,kirembo,s,mahojiano,msisimko,jitihadi,kirembo,NA,NA,"c(""distractor1"", ""distractor2"", ""distractor3"")",NA,NA,NA,NA,NA,NA,NA,NA,NA,NA,NA,NA,NA,NA,NA,NA,NA,NA,NA
44405,Save data screen,canvas.Screen,2_11_0_1,NA,NA,timeout,499.95999999999,240362,240358.96,240359.82,240843.14,240848,2023-05-30T09:51:45Z,240859.78,Schönheit,kirembo,s,mahojiano,msisimko,jitihadi,NA,NA,1,"c(""distractor1"", ""distractor2"", ""distractor3"")",NA,NA,NA,NA,NA,NA,NA,NA,NA,NA,NA,NA,NA,NA,NA,NA,NA,NA,NA
44405,shallow,flow.Sequence,2_11_0,NA,NA,completion,6182.62,234647,234643.86,234660.52,240843.14,240851,2023-05-30T09:51:45Z,240859.78,Schönheit,kirembo,s,mahojiano,msisimko,jitihadi,NA,NA,NA,"c(""distractor1"", ""distractor2"", ""distractor3"")",NA,NA,NA,NA,NA,NA,NA,NA,NA,NA,NA,NA,NA,NA,NA,NA,NA,NA,NA
44405,task,flow.Sequence,2_11,NA,NA,completion,6182.62,234647,234643.86,234660.52,240843.14,240853,2023-05-30T09:51:45Z,240859.78,Schönheit,kirembo,s,mahojiano,msisimko,jitihadi,NA,NA,NA,"c(""distractor1"", ""distractor2"", ""distractor3"")",NA,NA,NA,NA,NA,NA,NA,NA,NA,NA,NA,NA,NA,NA,NA,NA,NA,NA,NA
44405,Shallow Question,html.Page,2_12_0_0,NA,NA,form submission,10174.22,240855,240843.14,240859.78,251034,251037,2023-05-30T09:51:55Z,251041.82,Zuwachs,nyongeza,s,matilaba,udhibiti,hudhurio,nyongeza,NA,NA,"c(""distractor1"", ""distractor2"", ""distractor3"")",NA,NA,NA,NA,NA,NA,NA,NA,NA,NA,NA,NA,NA,NA,NA,NA,NA,NA,NA
44405,Save data screen,canvas.Screen,2_12_0_1,NA,NA,timeout,500,251044,251031.98,251041.82,251525.16,251528,2023-05-30T09:51:56Z,251541.82,Zuwachs,nyongeza,s,matilaba,udhibiti,hudhurio,NA,NA,1,"c(""distractor1"", ""distractor2"", ""distractor3"")",NA,NA,NA,NA,NA,NA,NA,NA,NA,NA,NA,NA,NA,NA,NA,NA,NA,NA,NA
44405,shallow,flow.Sequence,2_12_0,NA,NA,completion,10665.38,240855,240843.14,240859.78,251525.16,251529,2023-05-30T09:51:56Z,251541.82,Zuwachs,nyongeza,s,matilaba,udhibiti,hudhurio,NA,NA,NA,"c(""distractor1"", ""distractor2"", ""distractor3"")",NA,NA,NA,NA,NA,NA,NA,NA,NA,NA,NA,NA,NA,NA,NA,NA,NA,NA,NA
44405,task,flow.Sequence,2_12,NA,NA,completion,10665.38,240854,240843.14,240859.78,251525.16,251531,2023-05-30T09:51:56Z,251541.82,Zuwachs,nyongeza,s,matilaba,udhibiti,hudhurio,NA,NA,NA,"c(""distractor1"", ""distractor2"", ""distractor3"")",NA,NA,NA,NA,NA,NA,NA,NA,NA,NA,NA,NA,NA,NA,NA,NA,NA,NA,NA
44405,Shallow Question,html.Page,2_13_0_0,NA,NA,form submission,8611.18,251533,251525.16,251541.82,260153,260154,2023-05-30T09:52:04Z,260157.28,Auftrag,uagizaji,d,ghanima,kuzingatia,msukani,ghanima,NA,NA,"c(""distractor1"", ""distractor2"", ""distractor3"")",NA,NA,NA,NA,NA,NA,NA,NA,NA,NA,NA,NA,NA,NA,NA,NA,NA,NA,NA
44405,Save data screen,canvas.Screen,2_13_0_1,NA,NA,timeout,500.01999999999,260156,260152.42,260157.28,260640.64,260642,2023-05-30T09:52:05Z,260657.3,Auftrag,uagizaji,d,ghanima,kuzingatia,msukani,NA,NA,0,"c(""distractor1"", ""distractor2"", ""distractor3"")",NA,NA,NA,NA,NA,NA,NA,NA,NA,NA,NA,NA,NA,NA,NA,NA,NA,NA,NA
44405,shallow,flow.Sequence,2_13_0,NA,NA,completion,9098.82,251532,251525.16,251541.82,260640.64,260644,2023-05-30T09:52:05Z,260657.3,Auftrag,uagizaji,d,ghanima,kuzingatia,msukani,NA,NA,NA,"c(""distractor1"", ""distractor2"", ""distractor3"")",NA,NA,NA,NA,NA,NA,NA,NA,NA,NA,NA,NA,NA,NA,NA,NA,NA,NA,NA
44405,task,flow.Sequence,2_13,NA,NA,completion,9098.82,251532,251525.16,251541.82,260640.64,260645,2023-05-30T09:52:05Z,260657.3,Auftrag,uagizaji,d,ghanima,kuzingatia,msukani,NA,NA,NA,"c(""distractor1"", ""distractor2"", ""distractor3"")",NA,NA,NA,NA,NA,NA,NA,NA,NA,NA,NA,NA,NA,NA,NA,NA,NA,NA,NA
44405,Shallow Question,html.Page,2_14_0_0,NA,NA,form submission,9643.7,260646,260640.64,260657.3,270301,270302,2023-05-30T09:52:15Z,270306.02,Annäherung,maegesho,s,madahili,kujiamini,mapendekezo,maegesho,NA,NA,"c(""distractor1"", ""distractor2"", ""distractor3"")",NA,NA,NA,NA,NA,NA,NA,NA,NA,NA,NA,NA,NA,NA,NA,NA,NA,NA,NA
44405,Save data screen,canvas.Screen,2_14_0_1,NA,NA,timeout,499.97999999998,270304,270298.8,270306.02,270789.4,270792,2023-05-30T09:52:15Z,270806,Annäherung,maegesho,s,madahili,kujiamini,mapendekezo,NA,NA,1,"c(""distractor1"", ""distractor2"", ""distractor3"")",NA,NA,NA,NA,NA,NA,NA,NA,NA,NA,NA,NA,NA,NA,NA,NA,NA,NA,NA
44405,shallow,flow.Sequence,2_14_0,NA,NA,completion,10132.1,260646,260640.64,260657.3,270789.4,270793,2023-05-30T09:52:15Z,270806,Annäherung,maegesho,s,madahili,kujiamini,mapendekezo,NA,NA,NA,"c(""distractor1"", ""distractor2"", ""distractor3"")",NA,NA,NA,NA,NA,NA,NA,NA,NA,NA,NA,NA,NA,NA,NA,NA,NA,NA,NA
44405,task,flow.Sequence,2_14,NA,NA,completion,10132.1,260645,260640.64,260657.3,270789.4,270793,2023-05-30T09:52:15Z,270806,Annäherung,maegesho,s,madahili,kujiamini,mapendekezo,NA,NA,NA,"c(""distractor1"", ""distractor2"", ""distractor3"")",NA,NA,NA,NA,NA,NA,NA,NA,NA,NA,NA,NA,NA,NA,NA,NA,NA,NA,NA
44405,Shallow Question,html.Page,2_15_0_0,NA,NA,form submission,8498,270794,270789.4,270806,279304,279304,2023-05-30T09:52:24Z,279304.96,Symbol,kielezo,s,kinyume,nderemo,utayari,utayari,NA,NA,"c(""distractor1"", ""distractor2"", ""distractor3"")",NA,NA,NA,NA,NA,NA,NA,NA,NA,NA,NA,NA,NA,NA,NA,NA,NA,NA,NA
44405,Save data screen,canvas.Screen,2_15_0_1,NA,NA,timeout,499.95999999996,279306,279302.54,279304.96,279788.26,279789,2023-05-30T09:52:24Z,279804.92,Symbol,kielezo,s,kinyume,nderemo,utayari,NA,NA,0,"c(""distractor1"", ""distractor2"", ""distractor3"")",NA,NA,NA,NA,NA,NA,NA,NA,NA,NA,NA,NA,NA,NA,NA,NA,NA,NA,NA
44405,shallow,flow.Sequence,2_15_0,NA,NA,completion,8982.26,270794,270789.4,270806,279788.26,279789,2023-05-30T09:52:24Z,279804.92,Symbol,kielezo,s,kinyume,nderemo,utayari,NA,NA,NA,"c(""distractor1"", ""distractor2"", ""distractor3"")",NA,NA,NA,NA,NA,NA,NA,NA,NA,NA,NA,NA,NA,NA,NA,NA,NA,NA,NA
44405,task,flow.Sequence,2_15,NA,NA,completion,8982.26,270794,270789.4,270806,279788.26,279791,2023-05-30T09:52:24Z,279804.92,Symbol,kielezo,s,kinyume,nderemo,utayari,NA,NA,NA,"c(""distractor1"", ""distractor2"", ""distractor3"")",NA,NA,NA,NA,NA,NA,NA,NA,NA,NA,NA,NA,NA,NA,NA,NA,NA,NA,NA
44405,retrieval block 2 (multiple choice),flow.Loop,2,NA,NA,completion,181724.56,98050,98044.46,98063.7,279788.26,279791,2023-05-30T09:52:24Z,279804.92,NA,NA,NA,NA,NA,NA,NA,NA,NA,"c(""distractor1"", ""distractor2"", ""distractor3"")",NA,NA,NA,NA,NA,NA,NA,NA,NA,NA,NA,NA,NA,NA,NA,NA,NA,NA,NA
44405,End,canvas.Screen,3,NA,keypress(Space),response,1519.08,279792,279788.26,279804.92,281324,281335,2023-05-30T09:52:26Z,281336.16,NA,NA,NA,NA,NA,NA,NA,NA,NA,NULL,NA,NA,NA,NA,NA,NA,NA,NA,NA,NA,NA,NA,NA,NA,NA,NA,NA,NA,NA
44405,root,flow.Sequence,NA,NA,NA,completion,280933.88,371,373.44,390.12,281324,281336,2023-05-30T09:52:26Z,281336.16,NA,NA,NA,NA,NA,NA,NA,NA,NA,NULL,NA,NA,NA,NA,NA,NA,NA,NA,NA,NA,NA,NA,NA,NA,NA,NA,NA,NA,NA
