observation,sender,sender_type,sender_id,response,response_action,ended_on,duration,time_run,time_render,time_show,time_end,time_commit,timestamp,time_switch,german,swahili,enc,distractor1,distractor2,distractor3,response_2,x,correct,distractors,url_vp,url_sess,meta_labjs_version,meta_location,meta_user_agent,meta_platform,meta_language,meta_locale,meta_time_zone,meta_timezone_offset,meta_screen_width,meta_screen_height,meta_scroll_width,meta_scroll_height,meta_window_inner_width,meta_window_inner_height,meta_device_pixel_ratio,meta_labjs_build_flavor,meta_labjs_build_commit
367b0,Introduction delayed retrieval,canvas.Screen,0,weiter,keypress(Space),response,12442.882000048,644.10000002384,215.434,648.818,13091.700000048,13092.899999976,2023-06-12T20:06:58Z,13098.387,NA,NA,NA,NA,NA,NA,NA,NA,NA,NULL,217,4,20.2.4,https://neurocog.fernuni.ch/studies/vweber/sfink/delayed%202/index.html?vp=217&sess=4,"Mozilla/5.0 (Windows NT 10.0; Win64; x64) AppleWebKit/537.36 (KHTML, like Gecko) Chrome/114.0.0.0 Safari/537.36 Edg/114.0.1823.41",Win32,de,de-CH,Europe/Zurich,-120,1280,720,1225,569,1225,569,1.5,production,f5b4a49f956347addd546a832a3327688c2c0fef
367b0,Deep Question,html.Page,1_0_0_0,NA,NA,form submission,2104.0129999762,13093.100000024,13086.744,13098.387,15202.399999976,15202.600000024,2023-06-12T20:07:00Z,15215.061,Vermutung,udhanifu,d,haramia,tikisho,itifaki,d,NA,NA,NULL,NA,NA,NA,NA,NA,NA,NA,NA,NA,NA,NA,NA,NA,NA,NA,NA,NA,NA,NA
367b0,Save data screen,canvas.Screen,1_0_0_1,NA,NA,timeout,499.961,15203.5,15198.385,15215.061,15698.397,15699.5,2023-06-12T20:07:01Z,15715.022,Vermutung,udhanifu,d,haramia,tikisho,itifaki,NA,NA,0,NULL,NA,NA,NA,NA,NA,NA,NA,NA,NA,NA,NA,NA,NA,NA,NA,NA,NA,NA,NA
367b0,deep,flow.Sequence,1_0_0,NA,NA,completion,2600.01,13093,13086.744,13098.387,15698.397,15699.800000072,2023-06-12T20:07:01Z,15715.022,Vermutung,udhanifu,d,haramia,tikisho,itifaki,NA,NA,NA,NULL,NA,NA,NA,NA,NA,NA,NA,NA,NA,NA,NA,NA,NA,NA,NA,NA,NA,NA,NA
367b0,task,flow.Sequence,1_0,NA,NA,completion,2600.01,13093,13086.744,13098.387,15698.397,15699.800000072,2023-06-12T20:07:01Z,15715.022,Vermutung,udhanifu,d,haramia,tikisho,itifaki,NA,NA,NA,NULL,NA,NA,NA,NA,NA,NA,NA,NA,NA,NA,NA,NA,NA,NA,NA,NA,NA,NA,NA
367b0,Deep Question,html.Page,1_1_0_0,NA,NA,form submission,9259.3779999762,15700,15698.397,15715.022,24974.399999976,24974.700000048,2023-06-12T20:07:10Z,24981.542,Fenster,dirisha,s,walakini,tasawari,maarifa,swakiki,NA,NA,NULL,NA,NA,NA,NA,NA,NA,NA,NA,NA,NA,NA,NA,NA,NA,NA,NA,NA,NA,NA
367b0,Save data screen,canvas.Screen,1_1_0_1,NA,NA,timeout,500.397,24975.5,24965.502,24981.542,25464.972,25465.700000048,2023-06-12T20:07:10Z,25481.939,Fenster,dirisha,s,walakini,tasawari,maarifa,NA,NA,0,NULL,NA,NA,NA,NA,NA,NA,NA,NA,NA,NA,NA,NA,NA,NA,NA,NA,NA,NA,NA
367b0,deep,flow.Sequence,1_1_0,NA,NA,completion,9749.95,15699.899999976,15698.397,15715.022,25464.972,25465.899999976,2023-06-12T20:07:10Z,25481.939,Fenster,dirisha,s,walakini,tasawari,maarifa,NA,NA,NA,NULL,NA,NA,NA,NA,NA,NA,NA,NA,NA,NA,NA,NA,NA,NA,NA,NA,NA,NA,NA
367b0,task,flow.Sequence,1_1,NA,NA,completion,9749.95,15699.800000072,15698.397,15715.022,25464.972,25466,2023-06-12T20:07:10Z,25481.939,Fenster,dirisha,s,walakini,tasawari,maarifa,NA,NA,NA,NULL,NA,NA,NA,NA,NA,NA,NA,NA,NA,NA,NA,NA,NA,NA,NA,NA,NA,NA,NA
367b0,Deep Question,html.Page,1_2_0_0,NA,NA,form submission,4784.561,25466.200000048,25464.972,25481.939,30266.5,30266.899999976,2023-06-12T20:07:15Z,30281.443,Vergnügen,kichekesho,d,dubwana,mpanuko,mtesaji,d,NA,NA,NULL,NA,NA,NA,NA,NA,NA,NA,NA,NA,NA,NA,NA,NA,NA,NA,NA,NA,NA,NA
367b0,Save data screen,canvas.Screen,1_2_0_1,NA,NA,timeout,499.814,30267.899999976,30264.91,30281.443,30764.755,30775.5,2023-06-12T20:07:16Z,30781.257,Vergnügen,kichekesho,d,dubwana,mpanuko,mtesaji,NA,NA,0,NULL,NA,NA,NA,NA,NA,NA,NA,NA,NA,NA,NA,NA,NA,NA,NA,NA,NA,NA,NA
367b0,deep,flow.Sequence,1_2_0,NA,NA,completion,5282.816,25466.200000048,25464.972,25481.939,30764.755,30776,2023-06-12T20:07:16Z,30781.257,Vergnügen,kichekesho,d,dubwana,mpanuko,mtesaji,NA,NA,NA,NULL,NA,NA,NA,NA,NA,NA,NA,NA,NA,NA,NA,NA,NA,NA,NA,NA,NA,NA,NA
367b0,task,flow.Sequence,1_2,NA,NA,completion,5282.816,25466.100000024,25464.972,25481.939,30764.755,30776.300000072,2023-06-12T20:07:16Z,30781.257,Vergnügen,kichekesho,d,dubwana,mpanuko,mtesaji,NA,NA,NA,NULL,NA,NA,NA,NA,NA,NA,NA,NA,NA,NA,NA,NA,NA,NA,NA,NA,NA,NA,NA
367b0,Deep Question,html.Page,1_3_0_0,NA,NA,form submission,5020.5430000715,30776.600000024,30764.755,30781.257,35801.800000072,35802.100000024,2023-06-12T20:07:21Z,35814.53,Tester,wanaojaribu,d,sherti,sihiri,mlipuko,probantio,NA,NA,NULL,NA,NA,NA,NA,NA,NA,NA,NA,NA,NA,NA,NA,NA,NA,NA,NA,NA,NA,NA
367b0,Save data screen,canvas.Screen,1_3_0_1,NA,NA,timeout,500.605,35803.100000024,35798.637,35814.53,36299.052,36300.100000024,2023-06-12T20:07:21Z,36315.135,Tester,wanaojaribu,d,sherti,sihiri,mlipuko,NA,NA,0,NULL,NA,NA,NA,NA,NA,NA,NA,NA,NA,NA,NA,NA,NA,NA,NA,NA,NA,NA,NA
367b0,deep,flow.Sequence,1_3_0,NA,NA,completion,5517.795,30776.5,30764.755,30781.257,36299.052,36300.5,2023-06-12T20:07:21Z,36315.135,Tester,wanaojaribu,d,sherti,sihiri,mlipuko,NA,NA,NA,NULL,NA,NA,NA,NA,NA,NA,NA,NA,NA,NA,NA,NA,NA,NA,NA,NA,NA,NA,NA
367b0,task,flow.Sequence,1_3,NA,NA,completion,5517.795,30776.5,30764.755,30781.257,36299.052,36300.700000048,2023-06-12T20:07:21Z,36315.135,Tester,wanaojaribu,d,sherti,sihiri,mlipuko,NA,NA,NA,NULL,NA,NA,NA,NA,NA,NA,NA,NA,NA,NA,NA,NA,NA,NA,NA,NA,NA,NA,NA
367b0,Deep Question,html.Page,1_4_0_0,NA,NA,form submission,6444.1650000715,36300.899999976,36299.052,36315.135,42759.300000072,42765.300000072,2023-06-12T20:07:28Z,42764.415,Theorie,nadharia,s,ushungi,mkutano,uwakilishi,d,NA,NA,NULL,NA,NA,NA,NA,NA,NA,NA,NA,NA,NA,NA,NA,NA,NA,NA,NA,NA,NA,NA
367b0,Save data screen,canvas.Screen,1_4_0_1,NA,NA,timeout,499.85,42766.100000024,42748.601,42764.415,43248.39,43249.300000072,2023-06-12T20:07:28Z,43264.265,Theorie,nadharia,s,ushungi,mkutano,uwakilishi,NA,NA,0,NULL,NA,NA,NA,NA,NA,NA,NA,NA,NA,NA,NA,NA,NA,NA,NA,NA,NA,NA,NA
367b0,deep,flow.Sequence,1_4_0,NA,NA,completion,6933.255,36300.899999976,36299.052,36315.135,43248.39,43249.5,2023-06-12T20:07:28Z,43264.265,Theorie,nadharia,s,ushungi,mkutano,uwakilishi,NA,NA,NA,NULL,NA,NA,NA,NA,NA,NA,NA,NA,NA,NA,NA,NA,NA,NA,NA,NA,NA,NA,NA
367b0,task,flow.Sequence,1_4,NA,NA,completion,6933.255,36300.800000072,36299.052,36315.135,43248.39,43249.700000048,2023-06-12T20:07:28Z,43264.265,Theorie,nadharia,s,ushungi,mkutano,uwakilishi,NA,NA,NA,NULL,NA,NA,NA,NA,NA,NA,NA,NA,NA,NA,NA,NA,NA,NA,NA,NA,NA,NA,NA
367b0,Deep Question,html.Page,1_5_0_0,NA,NA,form submission,6460.235,43249.800000072,43248.39,43264.265,49724.5,49724.700000048,2023-06-12T20:07:35Z,49730.861,Notfall,dharura,d,rairai,malalamiko,ahueni,d,NA,NA,NULL,NA,NA,NA,NA,NA,NA,NA,NA,NA,NA,NA,NA,NA,NA,NA,NA,NA,NA,NA
367b0,Save data screen,canvas.Screen,1_5_0_1,NA,NA,timeout,499.934,49725.399999976,49715.054,49730.861,50214.103,50215.300000072,2023-06-12T20:07:35Z,50230.795,Notfall,dharura,d,rairai,malalamiko,ahueni,NA,NA,0,NULL,NA,NA,NA,NA,NA,NA,NA,NA,NA,NA,NA,NA,NA,NA,NA,NA,NA,NA,NA
367b0,deep,flow.Sequence,1_5_0,NA,NA,completion,6949.838,43249.800000072,43248.39,43264.265,50214.103,50215.600000024,2023-06-12T20:07:35Z,50230.795,Notfall,dharura,d,rairai,malalamiko,ahueni,NA,NA,NA,NULL,NA,NA,NA,NA,NA,NA,NA,NA,NA,NA,NA,NA,NA,NA,NA,NA,NA,NA,NA
367b0,task,flow.Sequence,1_5,NA,NA,completion,6949.838,43249.800000072,43248.39,43264.265,50214.103,50215.800000072,2023-06-12T20:07:35Z,50230.795,Notfall,dharura,d,rairai,malalamiko,ahueni,NA,NA,NA,NULL,NA,NA,NA,NA,NA,NA,NA,NA,NA,NA,NA,NA,NA,NA,NA,NA,NA,NA,NA
367b0,Deep Question,html.Page,1_6_0_0,NA,NA,form submission,6128.3050000238,50216,50214.103,50230.795,56359.100000024,56359.5,2023-06-12T20:07:41Z,56364.025,Inhalt,yaliyomo,d,kishawishi,hifadhi,kutembea,d,NA,NA,NULL,NA,NA,NA,NA,NA,NA,NA,NA,NA,NA,NA,NA,NA,NA,NA,NA,NA,NA,NA
367b0,Save data screen,canvas.Screen,1_6_0_1,NA,NA,timeout,500.602,56360.399999976,56348.123,56364.025,56848.545,56849.800000072,2023-06-12T20:07:42Z,56864.627,Inhalt,yaliyomo,d,kishawishi,hifadhi,kutembea,NA,NA,0,NULL,NA,NA,NA,NA,NA,NA,NA,NA,NA,NA,NA,NA,NA,NA,NA,NA,NA,NA,NA
367b0,deep,flow.Sequence,1_6_0,NA,NA,completion,6617.75,50215.899999976,50214.103,50230.795,56848.545,56850.300000072,2023-06-12T20:07:42Z,56864.627,Inhalt,yaliyomo,d,kishawishi,hifadhi,kutembea,NA,NA,NA,NULL,NA,NA,NA,NA,NA,NA,NA,NA,NA,NA,NA,NA,NA,NA,NA,NA,NA,NA,NA
367b0,task,flow.Sequence,1_6,NA,NA,completion,6617.75,50215.899999976,50214.103,50230.795,56848.545,56850.399999976,2023-06-12T20:07:42Z,56864.627,Inhalt,yaliyomo,d,kishawishi,hifadhi,kutembea,NA,NA,NA,NULL,NA,NA,NA,NA,NA,NA,NA,NA,NA,NA,NA,NA,NA,NA,NA,NA,NA,NA,NA
367b0,Deep Question,html.Page,1_7_0_0,NA,NA,form submission,1370.9730000238,56850.600000024,56848.545,56864.627,58235.600000024,58236,2023-06-12T20:07:43Z,58247.275,Wohlstand,mafanikio,s,chimbuko,kumbuko,mapwaji,djkf,NA,NA,NULL,NA,NA,NA,NA,NA,NA,NA,NA,NA,NA,NA,NA,NA,NA,NA,NA,NA,NA,NA
367b0,Save data screen,canvas.Screen,1_7_0_1,NA,NA,timeout,499.913,58237,58231.3,58247.275,58730.887,58732.399999976,2023-06-12T20:07:44Z,58747.188,Wohlstand,mafanikio,s,chimbuko,kumbuko,mapwaji,NA,NA,0,NULL,NA,NA,NA,NA,NA,NA,NA,NA,NA,NA,NA,NA,NA,NA,NA,NA,NA,NA,NA
367b0,deep,flow.Sequence,1_7_0,NA,NA,completion,1866.26,56850.600000024,56848.545,56864.627,58730.887,58732.899999976,2023-06-12T20:07:44Z,58747.188,Wohlstand,mafanikio,s,chimbuko,kumbuko,mapwaji,NA,NA,NA,NULL,NA,NA,NA,NA,NA,NA,NA,NA,NA,NA,NA,NA,NA,NA,NA,NA,NA,NA,NA
367b0,task,flow.Sequence,1_7,NA,NA,completion,1866.26,56850.600000024,56848.545,56864.627,58730.887,58733,2023-06-12T20:07:44Z,58747.188,Wohlstand,mafanikio,s,chimbuko,kumbuko,mapwaji,NA,NA,NA,NULL,NA,NA,NA,NA,NA,NA,NA,NA,NA,NA,NA,NA,NA,NA,NA,NA,NA,NA,NA
367b0,Deep Question,html.Page,1_8_0_0,NA,NA,form submission,3163.9120000238,58733.200000048,58730.887,58747.188,61911.100000024,61911.5,2023-06-12T20:07:47Z,61913.778,Verpackung,ufungaji,d,uhusiano,upimaji,uchunguzi,pacchiaiai,NA,NA,NULL,NA,NA,NA,NA,NA,NA,NA,NA,NA,NA,NA,NA,NA,NA,NA,NA,NA,NA,NA
367b0,Save data screen,canvas.Screen,1_8_0_1,NA,NA,timeout,500.074,61912.600000024,61898.423,61913.778,62397.815,62399.5,2023-06-12T20:07:47Z,62413.852,Verpackung,ufungaji,d,uhusiano,upimaji,uchunguzi,NA,NA,0,NULL,NA,NA,NA,NA,NA,NA,NA,NA,NA,NA,NA,NA,NA,NA,NA,NA,NA,NA,NA
367b0,deep,flow.Sequence,1_8_0,NA,NA,completion,3650.627,58733.200000048,58730.887,58747.188,62397.815,62399.899999976,2023-06-12T20:07:47Z,62413.852,Verpackung,ufungaji,d,uhusiano,upimaji,uchunguzi,NA,NA,NA,NULL,NA,NA,NA,NA,NA,NA,NA,NA,NA,NA,NA,NA,NA,NA,NA,NA,NA,NA,NA
367b0,task,flow.Sequence,1_8,NA,NA,completion,3650.627,58733.100000024,58730.887,58747.188,62397.815,62400.200000048,2023-06-12T20:07:47Z,62413.852,Verpackung,ufungaji,d,uhusiano,upimaji,uchunguzi,NA,NA,NA,NULL,NA,NA,NA,NA,NA,NA,NA,NA,NA,NA,NA,NA,NA,NA,NA,NA,NA,NA,NA
367b0,Deep Question,html.Page,1_9_0_0,NA,NA,form submission,2454.4480000715,62400.200000048,62397.815,62413.852,64868.300000072,64868.600000024,2023-06-12T20:07:50Z,64880.422,Toleranz,kuvumiliana,s,maombolezo,ujasusi,mchekeshaji,d,NA,NA,NULL,NA,NA,NA,NA,NA,NA,NA,NA,NA,NA,NA,NA,NA,NA,NA,NA,NA,NA,NA
367b0,Save data screen,canvas.Screen,1_9_0_1,NA,NA,timeout,501.038,64871.399999976,64864.069,64880.422,65364.787,65365.800000072,2023-06-12T20:07:50Z,65381.46,Toleranz,kuvumiliana,s,maombolezo,ujasusi,mchekeshaji,NA,NA,0,NULL,NA,NA,NA,NA,NA,NA,NA,NA,NA,NA,NA,NA,NA,NA,NA,NA,NA,NA,NA
367b0,deep,flow.Sequence,1_9_0,NA,NA,completion,2950.935,62400.200000048,62397.815,62413.852,65364.787,65366.100000024,2023-06-12T20:07:50Z,65381.46,Toleranz,kuvumiliana,s,maombolezo,ujasusi,mchekeshaji,NA,NA,NA,NULL,NA,NA,NA,NA,NA,NA,NA,NA,NA,NA,NA,NA,NA,NA,NA,NA,NA,NA,NA
367b0,task,flow.Sequence,1_9,NA,NA,completion,2950.935,62400.200000048,62397.815,62413.852,65364.787,65366.200000048,2023-06-12T20:07:50Z,65381.46,Toleranz,kuvumiliana,s,maombolezo,ujasusi,mchekeshaji,NA,NA,NA,NULL,NA,NA,NA,NA,NA,NA,NA,NA,NA,NA,NA,NA,NA,NA,NA,NA,NA,NA,NA
367b0,Deep Question,html.Page,1_10_0_0,NA,NA,form submission,1242.3400000715,65366.300000072,65364.787,65381.46,66623.800000072,66624,2023-06-12T20:07:52Z,66630.319,Schock,mshtuko,s,biashara,kukataza,vichekesho,f,NA,NA,NULL,NA,NA,NA,NA,NA,NA,NA,NA,NA,NA,NA,NA,NA,NA,NA,NA,NA,NA,NA
367b0,Save data screen,canvas.Screen,1_10_0_1,NA,NA,timeout,500.867,66624.800000072,66614.855,66630.319,67114.948,67116.100000024,2023-06-12T20:07:52Z,67131.186,Schock,mshtuko,s,biashara,kukataza,vichekesho,NA,NA,0,NULL,NA,NA,NA,NA,NA,NA,NA,NA,NA,NA,NA,NA,NA,NA,NA,NA,NA,NA,NA
367b0,deep,flow.Sequence,1_10_0,NA,NA,completion,1733.488,65366.200000048,65364.787,65381.46,67114.948,67116.600000024,2023-06-12T20:07:52Z,67131.186,Schock,mshtuko,s,biashara,kukataza,vichekesho,NA,NA,NA,NULL,NA,NA,NA,NA,NA,NA,NA,NA,NA,NA,NA,NA,NA,NA,NA,NA,NA,NA,NA
367b0,task,flow.Sequence,1_10,NA,NA,completion,1733.488,65366.200000048,65364.787,65381.46,67114.948,67116.800000072,2023-06-12T20:07:52Z,67131.186,Schock,mshtuko,s,biashara,kukataza,vichekesho,NA,NA,NA,NULL,NA,NA,NA,NA,NA,NA,NA,NA,NA,NA,NA,NA,NA,NA,NA,NA,NA,NA,NA
367b0,Deep Question,html.Page,1_11_0_0,NA,NA,form submission,6545.5140000477,67116.899999976,67114.948,67131.186,73676.700000048,73677,2023-06-12T20:07:59Z,73680.103,Schüler,mwanafunzi,d,mwekezaji,matumizi,uaminifu,edicola,NA,NA,NULL,NA,NA,NA,NA,NA,NA,NA,NA,NA,NA,NA,NA,NA,NA,NA,NA,NA,NA,NA
367b0,Save data screen,canvas.Screen,1_11_0_1,NA,NA,timeout,500.262,73678.300000072,73664.211,73680.103,74164.245,74165.399999976,2023-06-12T20:07:59Z,74180.365,Schüler,mwanafunzi,d,mwekezaji,matumizi,uaminifu,NA,NA,0,NULL,NA,NA,NA,NA,NA,NA,NA,NA,NA,NA,NA,NA,NA,NA,NA,NA,NA,NA,NA
367b0,deep,flow.Sequence,1_11_0,NA,NA,completion,7033.059,67116.899999976,67114.948,67131.186,74164.245,74165.600000024,2023-06-12T20:07:59Z,74180.365,Schüler,mwanafunzi,d,mwekezaji,matumizi,uaminifu,NA,NA,NA,NULL,NA,NA,NA,NA,NA,NA,NA,NA,NA,NA,NA,NA,NA,NA,NA,NA,NA,NA,NA
367b0,task,flow.Sequence,1_11,NA,NA,completion,7033.059,67116.899999976,67114.948,67131.186,74164.245,74165.800000072,2023-06-12T20:07:59Z,74180.365,Schüler,mwanafunzi,d,mwekezaji,matumizi,uaminifu,NA,NA,NA,NULL,NA,NA,NA,NA,NA,NA,NA,NA,NA,NA,NA,NA,NA,NA,NA,NA,NA,NA,NA
367b0,Deep Question,html.Page,1_12_0_0,NA,NA,form submission,1092.2350000238,74165.899999976,74164.245,74180.365,75272.600000024,75272.800000072,2023-06-12T20:08:00Z,75280.091,Spionage,upelelezi,s,maslahi,utokazo,magangao,d,NA,NA,NULL,NA,NA,NA,NA,NA,NA,NA,NA,NA,NA,NA,NA,NA,NA,NA,NA,NA,NA,NA
367b0,Save data screen,canvas.Screen,1_12_0_1,NA,NA,timeout,500.424,75273.5,75263.737,75280.091,75763.349,75764.300000072,2023-06-12T20:08:01Z,75780.515,Spionage,upelelezi,s,maslahi,utokazo,magangao,NA,NA,0,NULL,NA,NA,NA,NA,NA,NA,NA,NA,NA,NA,NA,NA,NA,NA,NA,NA,NA,NA,NA
367b0,deep,flow.Sequence,1_12_0,NA,NA,completion,1582.984,74165.899999976,74164.245,74180.365,75763.349,75764.600000024,2023-06-12T20:08:01Z,75780.515,Spionage,upelelezi,s,maslahi,utokazo,magangao,NA,NA,NA,NULL,NA,NA,NA,NA,NA,NA,NA,NA,NA,NA,NA,NA,NA,NA,NA,NA,NA,NA,NA
367b0,task,flow.Sequence,1_12,NA,NA,completion,1582.984,74165.800000072,74164.245,74180.365,75763.349,75764.800000072,2023-06-12T20:08:01Z,75780.515,Spionage,upelelezi,s,maslahi,utokazo,magangao,NA,NA,NA,NULL,NA,NA,NA,NA,NA,NA,NA,NA,NA,NA,NA,NA,NA,NA,NA,NA,NA,NA,NA
367b0,Deep Question,html.Page,1_13_0_0,NA,NA,form submission,2379.485,75764.899999976,75763.349,75780.515,78160,78160.399999976,2023-06-12T20:08:03Z,78164.114,Schlange,foleni,s,uvumilivu,uteuzi,muuzaji,s,NA,NA,NULL,NA,NA,NA,NA,NA,NA,NA,NA,NA,NA,NA,NA,NA,NA,NA,NA,NA,NA,NA
367b0,Save data screen,canvas.Screen,1_13_0_1,NA,NA,timeout,499.317,78161,78147.955,78164.114,78646.922,78648.200000048,2023-06-12T20:08:04Z,78663.431,Schlange,foleni,s,uvumilivu,uteuzi,muuzaji,NA,NA,0,NULL,NA,NA,NA,NA,NA,NA,NA,NA,NA,NA,NA,NA,NA,NA,NA,NA,NA,NA,NA
367b0,deep,flow.Sequence,1_13_0,NA,NA,completion,2866.407,75764.899999976,75763.349,75780.515,78646.922,78648.700000048,2023-06-12T20:08:04Z,78663.431,Schlange,foleni,s,uvumilivu,uteuzi,muuzaji,NA,NA,NA,NULL,NA,NA,NA,NA,NA,NA,NA,NA,NA,NA,NA,NA,NA,NA,NA,NA,NA,NA,NA
367b0,task,flow.Sequence,1_13,NA,NA,completion,2866.407,75764.899999976,75763.349,75780.515,78646.922,78648.800000072,2023-06-12T20:08:04Z,78663.431,Schlange,foleni,s,uvumilivu,uteuzi,muuzaji,NA,NA,NA,NULL,NA,NA,NA,NA,NA,NA,NA,NA,NA,NA,NA,NA,NA,NA,NA,NA,NA,NA,NA
367b0,Deep Question,html.Page,1_14_0_0,NA,NA,form submission,1821.569,78648.899999976,78646.922,78663.431,80485,80485.300000072,2023-06-12T20:08:05Z,80496.66,Hoffnung,matarajio,d,kutaalamika,uratibu,mvumbuzi,d,NA,NA,NULL,NA,NA,NA,NA,NA,NA,NA,NA,NA,NA,NA,NA,NA,NA,NA,NA,NA,NA,NA
367b0,Save data screen,canvas.Screen,1_14_0_1,NA,NA,timeout,501.014,80487.700000048,80480.448,80496.66,80981.039,80981.899999976,2023-06-12T20:08:06Z,80997.674,Hoffnung,matarajio,d,kutaalamika,uratibu,mvumbuzi,NA,NA,0,NULL,NA,NA,NA,NA,NA,NA,NA,NA,NA,NA,NA,NA,NA,NA,NA,NA,NA,NA,NA
367b0,deep,flow.Sequence,1_14_0,NA,NA,completion,2317.608,78648.899999976,78646.922,78663.431,80981.039,80982.300000072,2023-06-12T20:08:06Z,80997.674,Hoffnung,matarajio,d,kutaalamika,uratibu,mvumbuzi,NA,NA,NA,NULL,NA,NA,NA,NA,NA,NA,NA,NA,NA,NA,NA,NA,NA,NA,NA,NA,NA,NA,NA
367b0,task,flow.Sequence,1_14,NA,NA,completion,2317.608,78648.899999976,78646.922,78663.431,80981.039,80982.300000072,2023-06-12T20:08:06Z,80997.674,Hoffnung,matarajio,d,kutaalamika,uratibu,mvumbuzi,NA,NA,NA,NULL,NA,NA,NA,NA,NA,NA,NA,NA,NA,NA,NA,NA,NA,NA,NA,NA,NA,NA,NA
367b0,Deep Question,html.Page,1_15_0_0,NA,NA,form submission,3671.5260000477,80982.5,80981.039,80997.674,84669.200000048,84669.399999976,2023-06-12T20:08:10Z,84679.917,Ergänzung,kijalizo,s,ulaghai,mustarehe,matangazo,d,NA,NA,NULL,NA,NA,NA,NA,NA,NA,NA,NA,NA,NA,NA,NA,NA,NA,NA,NA,NA,NA,NA
367b0,Save data screen,canvas.Screen,1_15_0_1,NA,NA,timeout,500.576,84672.700000048,84664.521,84679.917,85163.827,85165,2023-06-12T20:08:10Z,85180.493,Ergänzung,kijalizo,s,ulaghai,mustarehe,matangazo,NA,NA,0,NULL,NA,NA,NA,NA,NA,NA,NA,NA,NA,NA,NA,NA,NA,NA,NA,NA,NA,NA,NA
367b0,deep,flow.Sequence,1_15_0,NA,NA,completion,4166.153,80982.5,80981.039,80997.674,85163.827,85165.200000048,2023-06-12T20:08:10Z,85180.493,Ergänzung,kijalizo,s,ulaghai,mustarehe,matangazo,NA,NA,NA,NULL,NA,NA,NA,NA,NA,NA,NA,NA,NA,NA,NA,NA,NA,NA,NA,NA,NA,NA,NA
367b0,task,flow.Sequence,1_15,NA,NA,completion,4166.153,80982.399999976,80981.039,80997.674,85163.827,85165.5,2023-06-12T20:08:10Z,85180.493,Ergänzung,kijalizo,s,ulaghai,mustarehe,matangazo,NA,NA,NA,NULL,NA,NA,NA,NA,NA,NA,NA,NA,NA,NA,NA,NA,NA,NA,NA,NA,NA,NA,NA
367b0,retrieval block 1 (cued recall),flow.Loop,1,NA,NA,completion,72065.44,13093,13086.744,13098.387,85163.827,85165.700000048,2023-06-12T20:08:10Z,85180.493,NA,NA,NA,NA,NA,NA,NA,NA,NA,NULL,NA,NA,NA,NA,NA,NA,NA,NA,NA,NA,NA,NA,NA,NA,NA,NA,NA,NA,NA
367b0,Shallow Question,html.Page,2_0_0_0,NA,NA,form submission,7554.4069999762,85165.899999976,85163.827,85180.493,92734.899999976,92735.100000024,2023-06-12T20:08:18Z,92746.342,Toleranz,kuvumiliana,s,maombolezo,ujasusi,mchekeshaji,kuvumiliana,NA,NA,"c(""distractor1"", ""distractor2"", ""distractor3"")",NA,NA,NA,NA,NA,NA,NA,NA,NA,NA,NA,NA,NA,NA,NA,NA,NA,NA,NA
367b0,Save data screen,canvas.Screen,2_0_0_1,NA,NA,timeout,500.158,92737.600000024,92729.957,92746.342,93229.774,93231.100000024,2023-06-12T20:08:18Z,93246.5,Toleranz,kuvumiliana,s,maombolezo,ujasusi,mchekeshaji,NA,NA,1,"c(""distractor1"", ""distractor2"", ""distractor3"")",NA,NA,NA,NA,NA,NA,NA,NA,NA,NA,NA,NA,NA,NA,NA,NA,NA,NA,NA
367b0,shallow,flow.Sequence,2_0_0,NA,NA,completion,8049.281,85165.899999976,85163.827,85180.493,93229.774,93231.399999976,2023-06-12T20:08:18Z,93246.5,Toleranz,kuvumiliana,s,maombolezo,ujasusi,mchekeshaji,NA,NA,NA,"c(""distractor1"", ""distractor2"", ""distractor3"")",NA,NA,NA,NA,NA,NA,NA,NA,NA,NA,NA,NA,NA,NA,NA,NA,NA,NA,NA
367b0,task,flow.Sequence,2_0,NA,NA,completion,8049.281,85165.800000072,85163.827,85180.493,93229.774,93231.5,2023-06-12T20:08:18Z,93246.5,Toleranz,kuvumiliana,s,maombolezo,ujasusi,mchekeshaji,NA,NA,NA,"c(""distractor1"", ""distractor2"", ""distractor3"")",NA,NA,NA,NA,NA,NA,NA,NA,NA,NA,NA,NA,NA,NA,NA,NA,NA,NA,NA
367b0,Shallow Question,html.Page,2_1_0_0,NA,NA,form submission,6921.6000000238,93231.700000048,93229.774,93246.5,100168.10000002,100168.30000007,2023-06-12T20:08:25Z,100179.522,Notfall,dharura,d,rairai,malalamiko,ahueni,malalamiko,NA,NA,"c(""distractor1"", ""distractor2"", ""distractor3"")",NA,NA,NA,NA,NA,NA,NA,NA,NA,NA,NA,NA,NA,NA,NA,NA,NA,NA,NA
367b0,Save data screen,canvas.Screen,2_1_0_1,NA,NA,timeout,499.99500000001,100170.70000005,100162.816,100179.522,100663.06,100664.39999998,2023-06-12T20:08:26Z,100679.517,Notfall,dharura,d,rairai,malalamiko,ahueni,NA,NA,0,"c(""distractor1"", ""distractor2"", ""distractor3"")",NA,NA,NA,NA,NA,NA,NA,NA,NA,NA,NA,NA,NA,NA,NA,NA,NA,NA,NA
367b0,shallow,flow.Sequence,2_1_0,NA,NA,completion,7416.56,93231.600000024,93229.774,93246.5,100663.06,100664.80000007,2023-06-12T20:08:26Z,100679.517,Notfall,dharura,d,rairai,malalamiko,ahueni,NA,NA,NA,"c(""distractor1"", ""distractor2"", ""distractor3"")",NA,NA,NA,NA,NA,NA,NA,NA,NA,NA,NA,NA,NA,NA,NA,NA,NA,NA,NA
367b0,task,flow.Sequence,2_1,NA,NA,completion,7416.56,93231.600000024,93229.774,93246.5,100663.06,100665.10000002,2023-06-12T20:08:26Z,100679.517,Notfall,dharura,d,rairai,malalamiko,ahueni,NA,NA,NA,"c(""distractor1"", ""distractor2"", ""distractor3"")",NA,NA,NA,NA,NA,NA,NA,NA,NA,NA,NA,NA,NA,NA,NA,NA,NA,NA,NA
367b0,Shallow Question,html.Page,2_2_0_0,NA,NA,form submission,7135.483,100665.20000005,100663.06,100679.517,107815,107815.39999998,2023-06-12T20:08:33Z,107829.399,Schock,mshtuko,s,biashara,kukataza,vichekesho,mshtuko,NA,NA,"c(""distractor1"", ""distractor2"", ""distractor3"")",NA,NA,NA,NA,NA,NA,NA,NA,NA,NA,NA,NA,NA,NA,NA,NA,NA,NA,NA
367b0,Save data screen,canvas.Screen,2_2_0_1,NA,NA,timeout,500.45699999999,107818.10000002,107812.939,107829.399,108313.175,108314.70000005,2023-06-12T20:08:33Z,108329.856,Schock,mshtuko,s,biashara,kukataza,vichekesho,NA,NA,1,"c(""distractor1"", ""distractor2"", ""distractor3"")",NA,NA,NA,NA,NA,NA,NA,NA,NA,NA,NA,NA,NA,NA,NA,NA,NA,NA,NA
367b0,shallow,flow.Sequence,2_2_0,NA,NA,completion,7633.658,100665.20000005,100663.06,100679.517,108313.175,108315.10000002,2023-06-12T20:08:33Z,108329.856,Schock,mshtuko,s,biashara,kukataza,vichekesho,NA,NA,NA,"c(""distractor1"", ""distractor2"", ""distractor3"")",NA,NA,NA,NA,NA,NA,NA,NA,NA,NA,NA,NA,NA,NA,NA,NA,NA,NA,NA
367b0,task,flow.Sequence,2_2,NA,NA,completion,7633.658,100665.10000002,100663.06,100679.517,108313.175,108315.20000005,2023-06-12T20:08:33Z,108329.856,Schock,mshtuko,s,biashara,kukataza,vichekesho,NA,NA,NA,"c(""distractor1"", ""distractor2"", ""distractor3"")",NA,NA,NA,NA,NA,NA,NA,NA,NA,NA,NA,NA,NA,NA,NA,NA,NA,NA,NA
367b0,Shallow Question,html.Page,2_3_0_0,NA,NA,form submission,3647.3440000477,108315.30000007,108313.175,108329.856,111977.20000005,111977.70000005,2023-06-12T20:08:37Z,111979.154,Fenster,dirisha,s,walakini,tasawari,maarifa,tasawari,NA,NA,"c(""distractor1"", ""distractor2"", ""distractor3"")",NA,NA,NA,NA,NA,NA,NA,NA,NA,NA,NA,NA,NA,NA,NA,NA,NA,NA,NA
367b0,Save data screen,canvas.Screen,2_3_0_1,NA,NA,timeout,499.868,111979.89999998,111963.293,111979.154,112463.294,112464.30000007,2023-06-12T20:08:37Z,112479.022,Fenster,dirisha,s,walakini,tasawari,maarifa,NA,NA,0,"c(""distractor1"", ""distractor2"", ""distractor3"")",NA,NA,NA,NA,NA,NA,NA,NA,NA,NA,NA,NA,NA,NA,NA,NA,NA,NA,NA
367b0,shallow,flow.Sequence,2_3_0,NA,NA,completion,4133.438,108315.30000007,108313.175,108329.856,112463.294,112464.70000005,2023-06-12T20:08:37Z,112479.022,Fenster,dirisha,s,walakini,tasawari,maarifa,NA,NA,NA,"c(""distractor1"", ""distractor2"", ""distractor3"")",NA,NA,NA,NA,NA,NA,NA,NA,NA,NA,NA,NA,NA,NA,NA,NA,NA,NA,NA
367b0,task,flow.Sequence,2_3,NA,NA,completion,4133.438,108315.30000007,108313.175,108329.856,112463.294,112464.80000007,2023-06-12T20:08:37Z,112479.022,Fenster,dirisha,s,walakini,tasawari,maarifa,NA,NA,NA,"c(""distractor1"", ""distractor2"", ""distractor3"")",NA,NA,NA,NA,NA,NA,NA,NA,NA,NA,NA,NA,NA,NA,NA,NA,NA,NA,NA
367b0,Shallow Question,html.Page,2_4_0_0,NA,NA,form submission,11682.377999976,112465.10000002,112463.294,112479.022,124161.39999998,124161.60000002,2023-06-12T20:08:49Z,124187.742,Hoffnung,matarajio,d,kutaalamika,uratibu,mvumbuzi,matarajio,NA,NA,"c(""distractor1"", ""distractor2"", ""distractor3"")",NA,NA,NA,NA,NA,NA,NA,NA,NA,NA,NA,NA,NA,NA,NA,NA,NA,NA,NA
367b0,Save data screen,canvas.Screen,2_4_0_1,NA,NA,timeout,491.643,124164.70000005,124145.621,124187.742,124663.152,124664.20000005,2023-06-12T20:08:50Z,124679.385,Hoffnung,matarajio,d,kutaalamika,uratibu,mvumbuzi,NA,NA,1,"c(""distractor1"", ""distractor2"", ""distractor3"")",NA,NA,NA,NA,NA,NA,NA,NA,NA,NA,NA,NA,NA,NA,NA,NA,NA,NA,NA
367b0,shallow,flow.Sequence,2_4_0,NA,NA,completion,12184.13,112465,112463.294,112479.022,124663.152,124664.5,2023-06-12T20:08:50Z,124679.385,Hoffnung,matarajio,d,kutaalamika,uratibu,mvumbuzi,NA,NA,NA,"c(""distractor1"", ""distractor2"", ""distractor3"")",NA,NA,NA,NA,NA,NA,NA,NA,NA,NA,NA,NA,NA,NA,NA,NA,NA,NA,NA
367b0,task,flow.Sequence,2_4,NA,NA,completion,12184.13,112465,112463.294,112479.022,124663.152,124664.70000005,2023-06-12T20:08:50Z,124679.385,Hoffnung,matarajio,d,kutaalamika,uratibu,mvumbuzi,NA,NA,NA,"c(""distractor1"", ""distractor2"", ""distractor3"")",NA,NA,NA,NA,NA,NA,NA,NA,NA,NA,NA,NA,NA,NA,NA,NA,NA,NA,NA
367b0,Shallow Question,html.Page,2_5_0_0,NA,NA,form submission,4830.7150000238,124664.80000007,124663.152,124679.385,129510.10000002,129510.39999998,2023-06-12T20:08:54Z,129511.988,Schüler,mwanafunzi,d,mwekezaji,matumizi,uaminifu,mwanafunzi,NA,NA,"c(""distractor1"", ""distractor2"", ""distractor3"")",NA,NA,NA,NA,NA,NA,NA,NA,NA,NA,NA,NA,NA,NA,NA,NA,NA,NA,NA
367b0,Save data screen,canvas.Screen,2_5_0_1,NA,NA,timeout,500.007,129511.89999998,129495.232,129511.988,129995.318,129995.60000002,2023-06-12T20:08:55Z,130011.995,Schüler,mwanafunzi,d,mwekezaji,matumizi,uaminifu,NA,NA,1,"c(""distractor1"", ""distractor2"", ""distractor3"")",NA,NA,NA,NA,NA,NA,NA,NA,NA,NA,NA,NA,NA,NA,NA,NA,NA,NA,NA
367b0,shallow,flow.Sequence,2_5_0,NA,NA,completion,5315.933,124664.80000007,124663.152,124679.385,129995.318,129995.70000005,2023-06-12T20:08:55Z,130011.995,Schüler,mwanafunzi,d,mwekezaji,matumizi,uaminifu,NA,NA,NA,"c(""distractor1"", ""distractor2"", ""distractor3"")",NA,NA,NA,NA,NA,NA,NA,NA,NA,NA,NA,NA,NA,NA,NA,NA,NA,NA,NA
367b0,task,flow.Sequence,2_5,NA,NA,completion,5315.933,124664.80000007,124663.152,124679.385,129995.318,129995.70000005,2023-06-12T20:08:55Z,130011.995,Schüler,mwanafunzi,d,mwekezaji,matumizi,uaminifu,NA,NA,NA,"c(""distractor1"", ""distractor2"", ""distractor3"")",NA,NA,NA,NA,NA,NA,NA,NA,NA,NA,NA,NA,NA,NA,NA,NA,NA,NA,NA
367b0,Shallow Question,html.Page,2_6_0_0,NA,NA,form submission,2853.2050000477,129995.80000007,129995.318,130011.995,132865.20000005,132865.39999998,2023-06-12T20:08:58Z,132878.533,Vermutung,udhanifu,d,haramia,tikisho,itifaki,udhanifu,NA,NA,"c(""distractor1"", ""distractor2"", ""distractor3"")",NA,NA,NA,NA,NA,NA,NA,NA,NA,NA,NA,NA,NA,NA,NA,NA,NA,NA,NA
367b0,Save data screen,canvas.Screen,2_6_0_1,NA,NA,timeout,500.617,132866.70000005,132862.566,132878.533,133362.477,133364,2023-06-12T20:08:58Z,133379.15,Vermutung,udhanifu,d,haramia,tikisho,itifaki,NA,NA,1,"c(""distractor1"", ""distractor2"", ""distractor3"")",NA,NA,NA,NA,NA,NA,NA,NA,NA,NA,NA,NA,NA,NA,NA,NA,NA,NA,NA
367b0,shallow,flow.Sequence,2_6_0,NA,NA,completion,3350.482,129995.80000007,129995.318,130011.995,133362.477,133364.30000007,2023-06-12T20:08:58Z,133379.15,Vermutung,udhanifu,d,haramia,tikisho,itifaki,NA,NA,NA,"c(""distractor1"", ""distractor2"", ""distractor3"")",NA,NA,NA,NA,NA,NA,NA,NA,NA,NA,NA,NA,NA,NA,NA,NA,NA,NA,NA
367b0,task,flow.Sequence,2_6,NA,NA,completion,3350.482,129995.70000005,129995.318,130011.995,133362.477,133364.39999998,2023-06-12T20:08:58Z,133379.15,Vermutung,udhanifu,d,haramia,tikisho,itifaki,NA,NA,NA,"c(""distractor1"", ""distractor2"", ""distractor3"")",NA,NA,NA,NA,NA,NA,NA,NA,NA,NA,NA,NA,NA,NA,NA,NA,NA,NA,NA
367b0,Shallow Question,html.Page,2_7_0_0,NA,NA,form submission,4875.5500000477,133364.5,133362.477,133379.15,138254.70000005,138255,2023-06-12T20:09:03Z,138261.654,Vergnügen,kichekesho,d,dubwana,mpanuko,mtesaji,kichekesho,NA,NA,"c(""distractor1"", ""distractor2"", ""distractor3"")",NA,NA,NA,NA,NA,NA,NA,NA,NA,NA,NA,NA,NA,NA,NA,NA,NA,NA,NA
367b0,Save data screen,canvas.Screen,2_7_0_1,NA,NA,timeout,500.66399999999,138257.80000007,138245.29,138261.654,138745.669,138747,2023-06-12T20:09:04Z,138762.318,Vergnügen,kichekesho,d,dubwana,mpanuko,mtesaji,NA,NA,1,"c(""distractor1"", ""distractor2"", ""distractor3"")",NA,NA,NA,NA,NA,NA,NA,NA,NA,NA,NA,NA,NA,NA,NA,NA,NA,NA,NA
367b0,shallow,flow.Sequence,2_7_0,NA,NA,completion,5366.519,133364.5,133362.477,133379.15,138745.669,138747.39999998,2023-06-12T20:09:04Z,138762.318,Vergnügen,kichekesho,d,dubwana,mpanuko,mtesaji,NA,NA,NA,"c(""distractor1"", ""distractor2"", ""distractor3"")",NA,NA,NA,NA,NA,NA,NA,NA,NA,NA,NA,NA,NA,NA,NA,NA,NA,NA,NA
367b0,task,flow.Sequence,2_7,NA,NA,completion,5366.519,133364.39999998,133362.477,133379.15,138745.669,138747.70000005,2023-06-12T20:09:04Z,138762.318,Vergnügen,kichekesho,d,dubwana,mpanuko,mtesaji,NA,NA,NA,"c(""distractor1"", ""distractor2"", ""distractor3"")",NA,NA,NA,NA,NA,NA,NA,NA,NA,NA,NA,NA,NA,NA,NA,NA,NA,NA,NA
367b0,Shallow Question,html.Page,2_8_0_0,NA,NA,form submission,4772.182,138747.70000005,138745.669,138762.318,143534.5,143534.70000005,2023-06-12T20:09:08Z,143544.919,Verpackung,ufungaji,d,uhusiano,upimaji,uchunguzi,uchunguzi,NA,NA,"c(""distractor1"", ""distractor2"", ""distractor3"")",NA,NA,NA,NA,NA,NA,NA,NA,NA,NA,NA,NA,NA,NA,NA,NA,NA,NA,NA
367b0,Save data screen,canvas.Screen,2_8_0_1,NA,NA,timeout,500.598,143537,143528.436,143544.919,144028.841,144030.20000005,2023-06-12T20:09:09Z,144045.517,Verpackung,ufungaji,d,uhusiano,upimaji,uchunguzi,NA,NA,0,"c(""distractor1"", ""distractor2"", ""distractor3"")",NA,NA,NA,NA,NA,NA,NA,NA,NA,NA,NA,NA,NA,NA,NA,NA,NA,NA,NA
367b0,shallow,flow.Sequence,2_8_0,NA,NA,completion,5266.523,138747.70000005,138745.669,138762.318,144028.841,144030.60000002,2023-06-12T20:09:09Z,144045.517,Verpackung,ufungaji,d,uhusiano,upimaji,uchunguzi,NA,NA,NA,"c(""distractor1"", ""distractor2"", ""distractor3"")",NA,NA,NA,NA,NA,NA,NA,NA,NA,NA,NA,NA,NA,NA,NA,NA,NA,NA,NA
367b0,task,flow.Sequence,2_8,NA,NA,completion,5266.523,138747.70000005,138745.669,138762.318,144028.841,144030.70000005,2023-06-12T20:09:09Z,144045.517,Verpackung,ufungaji,d,uhusiano,upimaji,uchunguzi,NA,NA,NA,"c(""distractor1"", ""distractor2"", ""distractor3"")",NA,NA,NA,NA,NA,NA,NA,NA,NA,NA,NA,NA,NA,NA,NA,NA,NA,NA,NA
367b0,Shallow Question,html.Page,2_9_0_0,NA,NA,form submission,5208.0830000238,144030.89999998,144028.841,144045.517,149253.60000002,149253.89999998,2023-06-12T20:09:14Z,149261.39,Schlange,foleni,s,uvumilivu,uteuzi,muuzaji,uteuzi,NA,NA,"c(""distractor1"", ""distractor2"", ""distractor3"")",NA,NA,NA,NA,NA,NA,NA,NA,NA,NA,NA,NA,NA,NA,NA,NA,NA,NA,NA
367b0,Save data screen,canvas.Screen,2_9_0_1,NA,NA,timeout,499.92999999999,149256.20000005,149245.742,149261.39,149745.352,149746.60000002,2023-06-12T20:09:15Z,149761.32,Schlange,foleni,s,uvumilivu,uteuzi,muuzaji,NA,NA,0,"c(""distractor1"", ""distractor2"", ""distractor3"")",NA,NA,NA,NA,NA,NA,NA,NA,NA,NA,NA,NA,NA,NA,NA,NA,NA,NA,NA
367b0,shallow,flow.Sequence,2_9_0,NA,NA,completion,5699.835,144030.89999998,144028.841,144045.517,149745.352,149746.89999998,2023-06-12T20:09:15Z,149761.32,Schlange,foleni,s,uvumilivu,uteuzi,muuzaji,NA,NA,NA,"c(""distractor1"", ""distractor2"", ""distractor3"")",NA,NA,NA,NA,NA,NA,NA,NA,NA,NA,NA,NA,NA,NA,NA,NA,NA,NA,NA
367b0,task,flow.Sequence,2_9,NA,NA,completion,5699.835,144030.80000007,144028.841,144045.517,149745.352,149747.10000002,2023-06-12T20:09:15Z,149761.32,Schlange,foleni,s,uvumilivu,uteuzi,muuzaji,NA,NA,NA,"c(""distractor1"", ""distractor2"", ""distractor3"")",NA,NA,NA,NA,NA,NA,NA,NA,NA,NA,NA,NA,NA,NA,NA,NA,NA,NA,NA
367b0,Shallow Question,html.Page,2_10_0_0,NA,NA,form submission,3871.4800000715,149747.30000007,149745.352,149761.32,153632.80000007,153633,2023-06-12T20:09:19Z,153644.561,Wohlstand,mafanikio,s,chimbuko,kumbuko,mapwaji,chimbuko,NA,NA,"c(""distractor1"", ""distractor2"", ""distractor3"")",NA,NA,NA,NA,NA,NA,NA,NA,NA,NA,NA,NA,NA,NA,NA,NA,NA,NA,NA
367b0,Save data screen,canvas.Screen,2_10_0_1,NA,NA,timeout,499.94700000001,153635.10000002,153627.796,153644.561,154127.839,154128.70000005,2023-06-12T20:09:19Z,154144.508,Wohlstand,mafanikio,s,chimbuko,kumbuko,mapwaji,NA,NA,0,"c(""distractor1"", ""distractor2"", ""distractor3"")",NA,NA,NA,NA,NA,NA,NA,NA,NA,NA,NA,NA,NA,NA,NA,NA,NA,NA,NA
367b0,shallow,flow.Sequence,2_10_0,NA,NA,completion,4366.519,149747.20000005,149745.352,149761.32,154127.839,154128.89999998,2023-06-12T20:09:19Z,154144.508,Wohlstand,mafanikio,s,chimbuko,kumbuko,mapwaji,NA,NA,NA,"c(""distractor1"", ""distractor2"", ""distractor3"")",NA,NA,NA,NA,NA,NA,NA,NA,NA,NA,NA,NA,NA,NA,NA,NA,NA,NA,NA
367b0,task,flow.Sequence,2_10,NA,NA,completion,4366.519,149747.20000005,149745.352,149761.32,154127.839,154129.10000002,2023-06-12T20:09:19Z,154144.508,Wohlstand,mafanikio,s,chimbuko,kumbuko,mapwaji,NA,NA,NA,"c(""distractor1"", ""distractor2"", ""distractor3"")",NA,NA,NA,NA,NA,NA,NA,NA,NA,NA,NA,NA,NA,NA,NA,NA,NA,NA,NA
367b0,Shallow Question,html.Page,2_11_0_0,NA,NA,form submission,10790.891999976,154129.10000002,154127.839,154144.508,164935.39999998,164935.70000005,2023-06-12T20:09:30Z,164944.346,Theorie,nadharia,s,ushungi,mkutano,uwakilishi,mkutano,NA,NA,"c(""distractor1"", ""distractor2"", ""distractor3"")",NA,NA,NA,NA,NA,NA,NA,NA,NA,NA,NA,NA,NA,NA,NA,NA,NA,NA,NA
367b0,Save data screen,canvas.Screen,2_11_0_1,NA,NA,timeout,500.342,164938.39999998,164927.69,164944.346,165428.464,165430.10000002,2023-06-12T20:09:30Z,165444.688,Theorie,nadharia,s,ushungi,mkutano,uwakilishi,NA,NA,0,"c(""distractor1"", ""distractor2"", ""distractor3"")",NA,NA,NA,NA,NA,NA,NA,NA,NA,NA,NA,NA,NA,NA,NA,NA,NA,NA,NA
367b0,shallow,flow.Sequence,2_11_0,NA,NA,completion,11283.956,154129.10000002,154127.839,154144.508,165428.464,165430.60000002,2023-06-12T20:09:30Z,165444.688,Theorie,nadharia,s,ushungi,mkutano,uwakilishi,NA,NA,NA,"c(""distractor1"", ""distractor2"", ""distractor3"")",NA,NA,NA,NA,NA,NA,NA,NA,NA,NA,NA,NA,NA,NA,NA,NA,NA,NA,NA
367b0,task,flow.Sequence,2_11,NA,NA,completion,11283.956,154129.10000002,154127.839,154144.508,165428.464,165431,2023-06-12T20:09:30Z,165444.688,Theorie,nadharia,s,ushungi,mkutano,uwakilishi,NA,NA,NA,"c(""distractor1"", ""distractor2"", ""distractor3"")",NA,NA,NA,NA,NA,NA,NA,NA,NA,NA,NA,NA,NA,NA,NA,NA,NA,NA,NA
367b0,Shallow Question,html.Page,2_12_0_0,NA,NA,form submission,4515.7119999762,165431.20000005,165428.464,165444.688,169960.39999998,169961,2023-06-12T20:09:35Z,169985.397,Inhalt,yaliyomo,d,kishawishi,hifadhi,kutembea,yaliyomo,NA,NA,"c(""distractor1"", ""distractor2"", ""distractor3"")",NA,NA,NA,NA,NA,NA,NA,NA,NA,NA,NA,NA,NA,NA,NA,NA,NA,NA,NA
367b0,Save data screen,canvas.Screen,2_12_0_1,NA,NA,timeout,492.87,169963.5,169944.314,169985.397,170460.907,170461.70000005,2023-06-12T20:09:35Z,170478.267,Inhalt,yaliyomo,d,kishawishi,hifadhi,kutembea,NA,NA,1,"c(""distractor1"", ""distractor2"", ""distractor3"")",NA,NA,NA,NA,NA,NA,NA,NA,NA,NA,NA,NA,NA,NA,NA,NA,NA,NA,NA
367b0,shallow,flow.Sequence,2_12_0,NA,NA,completion,5016.219,165431.20000005,165428.464,165444.688,170460.907,170461.89999998,2023-06-12T20:09:35Z,170478.267,Inhalt,yaliyomo,d,kishawishi,hifadhi,kutembea,NA,NA,NA,"c(""distractor1"", ""distractor2"", ""distractor3"")",NA,NA,NA,NA,NA,NA,NA,NA,NA,NA,NA,NA,NA,NA,NA,NA,NA,NA,NA
367b0,task,flow.Sequence,2_12,NA,NA,completion,5016.219,165431.20000005,165428.464,165444.688,170460.907,170462.10000002,2023-06-12T20:09:35Z,170478.267,Inhalt,yaliyomo,d,kishawishi,hifadhi,kutembea,NA,NA,NA,"c(""distractor1"", ""distractor2"", ""distractor3"")",NA,NA,NA,NA,NA,NA,NA,NA,NA,NA,NA,NA,NA,NA,NA,NA,NA,NA,NA
367b0,Shallow Question,html.Page,2_13_0_0,NA,NA,form submission,6563.0330000715,170462.20000005,170460.907,170478.267,177041.30000007,177041.60000002,2023-06-12T20:09:42Z,177044.005,Spionage,upelelezi,s,maslahi,utokazo,magangao,utokazo,NA,NA,"c(""distractor1"", ""distractor2"", ""distractor3"")",NA,NA,NA,NA,NA,NA,NA,NA,NA,NA,NA,NA,NA,NA,NA,NA,NA,NA,NA
367b0,Save data screen,canvas.Screen,2_13_0_1,NA,NA,timeout,500.22,177044.20000005,177027.066,177044.005,177527.923,177529.20000005,2023-06-12T20:09:42Z,177544.225,Spionage,upelelezi,s,maslahi,utokazo,magangao,NA,NA,0,"c(""distractor1"", ""distractor2"", ""distractor3"")",NA,NA,NA,NA,NA,NA,NA,NA,NA,NA,NA,NA,NA,NA,NA,NA,NA,NA,NA
367b0,shallow,flow.Sequence,2_13_0,NA,NA,completion,7049.656,170462.10000002,170460.907,170478.267,177527.923,177529.5,2023-06-12T20:09:42Z,177544.225,Spionage,upelelezi,s,maslahi,utokazo,magangao,NA,NA,NA,"c(""distractor1"", ""distractor2"", ""distractor3"")",NA,NA,NA,NA,NA,NA,NA,NA,NA,NA,NA,NA,NA,NA,NA,NA,NA,NA,NA
367b0,task,flow.Sequence,2_13,NA,NA,completion,7049.656,170462.10000002,170460.907,170478.267,177527.923,177529.70000005,2023-06-12T20:09:42Z,177544.225,Spionage,upelelezi,s,maslahi,utokazo,magangao,NA,NA,NA,"c(""distractor1"", ""distractor2"", ""distractor3"")",NA,NA,NA,NA,NA,NA,NA,NA,NA,NA,NA,NA,NA,NA,NA,NA,NA,NA,NA
367b0,Shallow Question,html.Page,2_14_0_0,NA,NA,form submission,7223.275,177529.89999998,177527.923,177544.225,184767.5,184767.80000007,2023-06-12T20:09:50Z,184777.235,Tester,wanaojaribu,d,sherti,sihiri,mlipuko,wanaojaribu,NA,NA,"c(""distractor1"", ""distractor2"", ""distractor3"")",NA,NA,NA,NA,NA,NA,NA,NA,NA,NA,NA,NA,NA,NA,NA,NA,NA,NA,NA
367b0,Save data screen,canvas.Screen,2_14_0_1,NA,NA,timeout,500.15500000003,184770,184761.011,184777.235,185260.697,185262.39999998,2023-06-12T20:09:50Z,185277.39,Tester,wanaojaribu,d,sherti,sihiri,mlipuko,NA,NA,1,"c(""distractor1"", ""distractor2"", ""distractor3"")",NA,NA,NA,NA,NA,NA,NA,NA,NA,NA,NA,NA,NA,NA,NA,NA,NA,NA,NA
367b0,shallow,flow.Sequence,2_14_0,NA,NA,completion,7716.472,177529.89999998,177527.923,177544.225,185260.697,185262.80000007,2023-06-12T20:09:50Z,185277.39,Tester,wanaojaribu,d,sherti,sihiri,mlipuko,NA,NA,NA,"c(""distractor1"", ""distractor2"", ""distractor3"")",NA,NA,NA,NA,NA,NA,NA,NA,NA,NA,NA,NA,NA,NA,NA,NA,NA,NA,NA
367b0,task,flow.Sequence,2_14,NA,NA,completion,7716.472,177529.89999998,177527.923,177544.225,185260.697,185263.10000002,2023-06-12T20:09:50Z,185277.39,Tester,wanaojaribu,d,sherti,sihiri,mlipuko,NA,NA,NA,"c(""distractor1"", ""distractor2"", ""distractor3"")",NA,NA,NA,NA,NA,NA,NA,NA,NA,NA,NA,NA,NA,NA,NA,NA,NA,NA,NA
367b0,Shallow Question,html.Page,2_15_0_0,NA,NA,form submission,7008.9100000715,185263.39999998,185260.697,185277.39,192286.30000007,192286.39999998,2023-06-12T20:09:57Z,192293.583,Ergänzung,kijalizo,s,ulaghai,mustarehe,matangazo,kijalizo,NA,NA,"c(""distractor1"", ""distractor2"", ""distractor3"")",NA,NA,NA,NA,NA,NA,NA,NA,NA,NA,NA,NA,NA,NA,NA,NA,NA,NA,NA
367b0,Save data screen,canvas.Screen,2_15_0_1,NA,NA,timeout,499.87099999998,192287.80000007,192275.622,192293.583,192777.173,192778.39999998,2023-06-12T20:09:58Z,192793.454,Ergänzung,kijalizo,s,ulaghai,mustarehe,matangazo,NA,NA,1,"c(""distractor1"", ""distractor2"", ""distractor3"")",NA,NA,NA,NA,NA,NA,NA,NA,NA,NA,NA,NA,NA,NA,NA,NA,NA,NA,NA
367b0,shallow,flow.Sequence,2_15_0,NA,NA,completion,7499.783,185263.30000007,185260.697,185277.39,192777.173,192778.70000005,2023-06-12T20:09:58Z,192793.454,Ergänzung,kijalizo,s,ulaghai,mustarehe,matangazo,NA,NA,NA,"c(""distractor1"", ""distractor2"", ""distractor3"")",NA,NA,NA,NA,NA,NA,NA,NA,NA,NA,NA,NA,NA,NA,NA,NA,NA,NA,NA
367b0,task,flow.Sequence,2_15,NA,NA,completion,7499.783,185263.30000007,185260.697,185277.39,192777.173,192778.89999998,2023-06-12T20:09:58Z,192793.454,Ergänzung,kijalizo,s,ulaghai,mustarehe,matangazo,NA,NA,NA,"c(""distractor1"", ""distractor2"", ""distractor3"")",NA,NA,NA,NA,NA,NA,NA,NA,NA,NA,NA,NA,NA,NA,NA,NA,NA,NA,NA
367b0,retrieval block 2 (multiple choice),flow.Loop,2,NA,NA,completion,107596.68,85165.800000072,85163.827,85180.493,192777.173,192779.20000005,2023-06-12T20:09:58Z,192793.454,NA,NA,NA,NA,NA,NA,NA,NA,NA,"c(""distractor1"", ""distractor2"", ""distractor3"")",NA,NA,NA,NA,NA,NA,NA,NA,NA,NA,NA,NA,NA,NA,NA,NA,NA,NA,NA
367b0,End,canvas.Screen,3,NA,keypress(Space),response,1053.9459999762,192779.30000007,192777.173,192793.454,193847.39999998,193848.5,2023-06-12T20:09:59Z,193860.796,NA,NA,NA,NA,NA,NA,NA,NA,NA,NULL,NA,NA,NA,NA,NA,NA,NA,NA,NA,NA,NA,NA,NA,NA,NA,NA,NA,NA,NA
367b0,root,flow.Sequence,NA,NA,NA,completion,193198.58199998,643.89999997616,215.434,648.818,193847.39999998,193848.89999998,2023-06-12T20:09:59Z,193860.796,NA,NA,NA,NA,NA,NA,NA,NA,NA,NULL,NA,NA,NA,NA,NA,NA,NA,NA,NA,NA,NA,NA,NA,NA,NA,NA,NA,NA,NA
