observation,sender,sender_type,sender_id,response,response_action,ended_on,duration,time_run,time_render,time_show,time_end,time_commit,timestamp,time_switch,german,swahili,enc,distractor1,distractor2,distractor3,response_2,x,correct,distractors,url_vp,url_sess,meta_labjs_version,meta_location,meta_user_agent,meta_platform,meta_language,meta_locale,meta_time_zone,meta_timezone_offset,meta_screen_width,meta_screen_height,meta_scroll_width,meta_scroll_height,meta_window_inner_width,meta_window_inner_height,meta_device_pixel_ratio,meta_labjs_build_flavor,meta_labjs_build_commit
5b705,Introduction delayed retrieval,canvas.Screen,0,weiter,keypress(Space),response,20874.184,1695.6000003815,1114.5,1798.316,22672.5,22674.400000095,2023-03-11T15:52:34Z,22679.283,NA,NA,NA,NA,NA,NA,NA,NA,NA,NULL,119,2,20.2.4,https://neurocog.fernuni.ch/studies/vweber/delayed/index.html?vp=119&sess=2,"Mozilla/5.0 (Windows NT 10.0; Win64; x64) AppleWebKit/537.36 (KHTML, like Gecko) Chrome/110.0.0.0 Safari/537.36",Win32,de-DE,de,Europe/Zurich,-60,1368,912,1368,713,1368,761,2,production,f5b4a49f956347addd546a832a3327688c2c0fef
5b705,Deep Question,html.Page,1_0_0_0,NA,NA,form submission,24342.317000381,22674.800000191,22666.7,22679.283,47021.600000381,47022.400000095004,2023-03-11T15:52:58Z,47029.418,Fenster,dirisha,s,walakini,tasawari,maarifa,dhini,NA,NA,NULL,NA,NA,NA,NA,NA,NA,NA,NA,NA,NA,NA,NA,NA,NA,NA,NA,NA,NA,NA
5b705,Save data screen,canvas.Screen,1_0_0_1,NA,NA,timeout,500.292,47025.5,47012.715,47029.418,47513.351,47515.100000381,2023-03-11T15:52:59Z,47529.71,Fenster,dirisha,s,walakini,tasawari,maarifa,NA,NA,0,NULL,NA,NA,NA,NA,NA,NA,NA,NA,NA,NA,NA,NA,NA,NA,NA,NA,NA,NA,NA
5b705,deep,flow.Sequence,1_0_0,NA,NA,completion,24834.068,22674.700000286,22666.7,22679.283,47513.351,47515.800000191,2023-03-11T15:52:59Z,47529.71,Fenster,dirisha,s,walakini,tasawari,maarifa,NA,NA,NA,NULL,NA,NA,NA,NA,NA,NA,NA,NA,NA,NA,NA,NA,NA,NA,NA,NA,NA,NA,NA
5b705,task,flow.Sequence,1_0,NA,NA,completion,24834.068,22674.700000286,22666.7,22679.283,47513.351,47516.300000191,2023-03-11T15:52:59Z,47529.71,Fenster,dirisha,s,walakini,tasawari,maarifa,NA,NA,NA,NULL,NA,NA,NA,NA,NA,NA,NA,NA,NA,NA,NA,NA,NA,NA,NA,NA,NA,NA,NA
5b705,Deep Question,html.Page,1_1_0_0,NA,NA,form submission,28012.690000095,47516.700000286,47513.351,47529.71,75542.400000095,75543.100000381,2023-03-11T15:53:27Z,75549.007,Ergänzung,kijalizo,s,ulaghai,mustarehe,matangazo,ungheijda,NA,NA,NULL,NA,NA,NA,NA,NA,NA,NA,NA,NA,NA,NA,NA,NA,NA,NA,NA,NA,NA,NA
5b705,Save data screen,canvas.Screen,1_1_0_1,NA,NA,timeout,500.349,75550.800000191,75532.555,75549.007,76032.879,76034.200000286,2023-03-11T15:53:27Z,76049.356,Ergänzung,kijalizo,s,ulaghai,mustarehe,matangazo,NA,NA,0,NULL,NA,NA,NA,NA,NA,NA,NA,NA,NA,NA,NA,NA,NA,NA,NA,NA,NA,NA,NA
5b705,deep,flow.Sequence,1_1_0,NA,NA,completion,28503.169,47516.600000381,47513.351,47529.71,76032.879,76034.700000286,2023-03-11T15:53:27Z,76049.356,Ergänzung,kijalizo,s,ulaghai,mustarehe,matangazo,NA,NA,NA,NULL,NA,NA,NA,NA,NA,NA,NA,NA,NA,NA,NA,NA,NA,NA,NA,NA,NA,NA,NA
5b705,task,flow.Sequence,1_1,NA,NA,completion,28503.169,47516.400000095004,47513.351,47529.71,76032.879,76035.300000191,2023-03-11T15:53:27Z,76049.356,Ergänzung,kijalizo,s,ulaghai,mustarehe,matangazo,NA,NA,NA,NULL,NA,NA,NA,NA,NA,NA,NA,NA,NA,NA,NA,NA,NA,NA,NA,NA,NA,NA,NA
5b705,Deep Question,html.Page,1_2_0_0,NA,NA,form submission,22504.344000286,76035.800000191,76032.879,76049.356,98553.700000286,98554.5,2023-03-11T15:53:50Z,98564.833,Inhalt,yaliyomo,d,kishawishi,hifadhi,kutembea,m,NA,NA,NULL,NA,NA,NA,NA,NA,NA,NA,NA,NA,NA,NA,NA,NA,NA,NA,NA,NA,NA,NA
5b705,Save data screen,canvas.Screen,1_2_0_1,NA,NA,timeout,500.428,98561.400000095,98548.435,98564.833,99048.486,99049.800000191,2023-03-11T15:53:51Z,99065.261,Inhalt,yaliyomo,d,kishawishi,hifadhi,kutembea,NA,NA,0,NULL,NA,NA,NA,NA,NA,NA,NA,NA,NA,NA,NA,NA,NA,NA,NA,NA,NA,NA,NA
5b705,deep,flow.Sequence,1_2_0,NA,NA,completion,22999.13,76035.600000381,76032.879,76049.356,99048.486,99050.5,2023-03-11T15:53:51Z,99065.261,Inhalt,yaliyomo,d,kishawishi,hifadhi,kutembea,NA,NA,NA,NULL,NA,NA,NA,NA,NA,NA,NA,NA,NA,NA,NA,NA,NA,NA,NA,NA,NA,NA,NA
5b705,task,flow.Sequence,1_2,NA,NA,completion,22999.13,76035.5,76032.879,76049.356,99048.486,99051,2023-03-11T15:53:51Z,99065.261,Inhalt,yaliyomo,d,kishawishi,hifadhi,kutembea,NA,NA,NA,NULL,NA,NA,NA,NA,NA,NA,NA,NA,NA,NA,NA,NA,NA,NA,NA,NA,NA,NA,NA
5b705,Deep Question,html.Page,1_3_0_0,NA,NA,form submission,23637.039000191,99051.400000095,99048.486,99065.261,122702.30000019001,122703,2023-03-11T15:54:14Z,122714.793,Theorie,nadharia,s,ushungi,mkutano,uwakilishi,m,NA,NA,NULL,NA,NA,NA,NA,NA,NA,NA,NA,NA,NA,NA,NA,NA,NA,NA,NA,NA,NA,NA
5b705,Save data screen,canvas.Screen,1_3_0_1,NA,NA,timeout,500.519,122709.9000001,122698.317,122714.793,123198.615,123199.9000001,2023-03-11T15:54:15Z,123215.312,Theorie,nadharia,s,ushungi,mkutano,uwakilishi,NA,NA,0,NULL,NA,NA,NA,NA,NA,NA,NA,NA,NA,NA,NA,NA,NA,NA,NA,NA,NA,NA,NA
5b705,deep,flow.Sequence,1_3_0,NA,NA,completion,24133.354,99051.300000191,99048.486,99065.261,123198.615,123200.5,2023-03-11T15:54:15Z,123215.312,Theorie,nadharia,s,ushungi,mkutano,uwakilishi,NA,NA,NA,NULL,NA,NA,NA,NA,NA,NA,NA,NA,NA,NA,NA,NA,NA,NA,NA,NA,NA,NA,NA
5b705,task,flow.Sequence,1_3,NA,NA,completion,24133.354,99051.200000286,99048.486,99065.261,123198.615,123200.9000001,2023-03-11T15:54:15Z,123215.312,Theorie,nadharia,s,ushungi,mkutano,uwakilishi,NA,NA,NA,NULL,NA,NA,NA,NA,NA,NA,NA,NA,NA,NA,NA,NA,NA,NA,NA,NA,NA,NA,NA
5b705,Deep Question,html.Page,1_4_0_0,NA,NA,form submission,10915.288000381,123201.30000019001,123198.615,123215.312,134130.60000038001,134131.20000029,2023-03-11T15:54:26Z,134139.351,Hoffnung,matarajio,d,kutaalamika,uratibu,mvumbuzi,m,NA,NA,NULL,NA,NA,NA,NA,NA,NA,NA,NA,NA,NA,NA,NA,NA,NA,NA,NA,NA,NA,NA
5b705,Save data screen,canvas.Screen,1_4_0_1,NA,NA,timeout,500.30600000001,134137.9000001,134122.785,134139.351,134623.088,134624.4000001,2023-03-11T15:54:26Z,134639.657,Hoffnung,matarajio,d,kutaalamika,uratibu,mvumbuzi,NA,NA,0,NULL,NA,NA,NA,NA,NA,NA,NA,NA,NA,NA,NA,NA,NA,NA,NA,NA,NA,NA,NA
5b705,deep,flow.Sequence,1_4_0,NA,NA,completion,11407.776,123201.20000029,123198.615,123215.312,134623.088,134624.9000001,2023-03-11T15:54:26Z,134639.657,Hoffnung,matarajio,d,kutaalamika,uratibu,mvumbuzi,NA,NA,NA,NULL,NA,NA,NA,NA,NA,NA,NA,NA,NA,NA,NA,NA,NA,NA,NA,NA,NA,NA,NA
5b705,task,flow.Sequence,1_4,NA,NA,completion,11407.776,123201.10000038,123198.615,123215.312,134623.088,134625.4000001,2023-03-11T15:54:26Z,134639.657,Hoffnung,matarajio,d,kutaalamika,uratibu,mvumbuzi,NA,NA,NA,NULL,NA,NA,NA,NA,NA,NA,NA,NA,NA,NA,NA,NA,NA,NA,NA,NA,NA,NA,NA
5b705,Deep Question,html.Page,1_5_0_0,NA,NA,form submission,9038.9430003815,134625.80000019,134623.088,134639.657,143678.60000038001,143679.30000019,2023-03-11T15:54:35Z,143679.169,Toleranz,kuvumiliana,s,maombolezo,ujasusi,mchekeshaji,i,NA,NA,NULL,NA,NA,NA,NA,NA,NA,NA,NA,NA,NA,NA,NA,NA,NA,NA,NA,NA,NA,NA
5b705,Save data screen,canvas.Screen,1_5_0_1,NA,NA,timeout,500.30800000002,143686.5,143662.687,143679.169,144163.009,144164.20000029,2023-03-11T15:54:36Z,144179.477,Toleranz,kuvumiliana,s,maombolezo,ujasusi,mchekeshaji,NA,NA,0,NULL,NA,NA,NA,NA,NA,NA,NA,NA,NA,NA,NA,NA,NA,NA,NA,NA,NA,NA,NA
5b705,deep,flow.Sequence,1_5_0,NA,NA,completion,9523.352,134625.70000029,134623.088,134639.657,144163.009,144164.9000001,2023-03-11T15:54:36Z,144179.477,Toleranz,kuvumiliana,s,maombolezo,ujasusi,mchekeshaji,NA,NA,NA,NULL,NA,NA,NA,NA,NA,NA,NA,NA,NA,NA,NA,NA,NA,NA,NA,NA,NA,NA,NA
5b705,task,flow.Sequence,1_5,NA,NA,completion,9523.352,134625.70000029,134623.088,134639.657,144163.009,144165.70000029,2023-03-11T15:54:36Z,144179.477,Toleranz,kuvumiliana,s,maombolezo,ujasusi,mchekeshaji,NA,NA,NA,NULL,NA,NA,NA,NA,NA,NA,NA,NA,NA,NA,NA,NA,NA,NA,NA,NA,NA,NA,NA
5b705,Deep Question,html.Page,1_6_0_0,NA,NA,form submission,19841.223000286,144166.20000029,144163.009,144179.477,164020.70000029,164021.10000038001,2023-03-11T15:54:55Z,164026.373,Schüler,mwanafunzi,d,mwekezaji,matumizi,uaminifu,m,NA,NA,NULL,NA,NA,NA,NA,NA,NA,NA,NA,NA,NA,NA,NA,NA,NA,NA,NA,NA,NA,NA
5b705,Save data screen,canvas.Screen,1_6_0_1,NA,NA,timeout,500.63800000001,164025.70000029,164010.049,164026.373,164510.244,164511.5,2023-03-11T15:54:56Z,164527.011,Schüler,mwanafunzi,d,mwekezaji,matumizi,uaminifu,NA,NA,0,NULL,NA,NA,NA,NA,NA,NA,NA,NA,NA,NA,NA,NA,NA,NA,NA,NA,NA,NA,NA
5b705,deep,flow.Sequence,1_6_0,NA,NA,completion,20330.767,144166.10000038001,144163.009,144179.477,164510.244,164512.10000038001,2023-03-11T15:54:56Z,164527.011,Schüler,mwanafunzi,d,mwekezaji,matumizi,uaminifu,NA,NA,NA,NULL,NA,NA,NA,NA,NA,NA,NA,NA,NA,NA,NA,NA,NA,NA,NA,NA,NA,NA,NA
5b705,task,flow.Sequence,1_6,NA,NA,completion,20330.767,144165.9000001,144163.009,144179.477,164510.244,164512.4000001,2023-03-11T15:54:56Z,164527.011,Schüler,mwanafunzi,d,mwekezaji,matumizi,uaminifu,NA,NA,NA,NULL,NA,NA,NA,NA,NA,NA,NA,NA,NA,NA,NA,NA,NA,NA,NA,NA,NA,NA,NA
5b705,Deep Question,html.Page,1_7_0_0,NA,NA,form submission,19156.889000095,164512.80000019,164510.244,164527.011,183683.9000001,183684.5,2023-03-11T15:55:15Z,183706.652,Notfall,dharura,d,rairai,malalamiko,ahueni,mrshrek,NA,NA,NULL,NA,NA,NA,NA,NA,NA,NA,NA,NA,NA,NA,NA,NA,NA,NA,NA,NA,NA,NA
5b705,Save data screen,canvas.Screen,1_7_0_1,NA,NA,timeout,500.516,183691.4000001,183673.553,183706.652,184190.426,184191.70000029,2023-03-11T15:55:16Z,184207.168,Notfall,dharura,d,rairai,malalamiko,ahueni,NA,NA,0,NULL,NA,NA,NA,NA,NA,NA,NA,NA,NA,NA,NA,NA,NA,NA,NA,NA,NA,NA,NA
5b705,deep,flow.Sequence,1_7_0,NA,NA,completion,19663.415,164512.70000029,164510.244,164527.011,184190.426,184192.30000019,2023-03-11T15:55:16Z,184207.168,Notfall,dharura,d,rairai,malalamiko,ahueni,NA,NA,NA,NULL,NA,NA,NA,NA,NA,NA,NA,NA,NA,NA,NA,NA,NA,NA,NA,NA,NA,NA,NA
5b705,task,flow.Sequence,1_7,NA,NA,completion,19663.415,164512.60000038001,164510.244,164527.011,184190.426,184192.80000019,2023-03-11T15:55:16Z,184207.168,Notfall,dharura,d,rairai,malalamiko,ahueni,NA,NA,NA,NULL,NA,NA,NA,NA,NA,NA,NA,NA,NA,NA,NA,NA,NA,NA,NA,NA,NA,NA,NA
5b705,Deep Question,html.Page,1_8_0_0,NA,NA,form submission,5661.1320001907,184193.10000038001,184190.426,184207.168,189868.30000019,189868.9000001,2023-03-11T15:55:21Z,189877.6,Verpackung,ufungaji,d,uhusiano,upimaji,uchunguzi,u,NA,NA,NULL,NA,NA,NA,NA,NA,NA,NA,NA,NA,NA,NA,NA,NA,NA,NA,NA,NA,NA,NA
5b705,Save data screen,canvas.Screen,1_8_0_1,NA,NA,timeout,500.505,189875.30000019,189861.183,189877.6,190361.487,190362.70000029,2023-03-11T15:55:22Z,190378.105,Verpackung,ufungaji,d,uhusiano,upimaji,uchunguzi,NA,NA,0,NULL,NA,NA,NA,NA,NA,NA,NA,NA,NA,NA,NA,NA,NA,NA,NA,NA,NA,NA,NA
5b705,deep,flow.Sequence,1_8_0,NA,NA,completion,6154.319,184193,184190.426,184207.168,190361.487,190363.30000019,2023-03-11T15:55:22Z,190378.105,Verpackung,ufungaji,d,uhusiano,upimaji,uchunguzi,NA,NA,NA,NULL,NA,NA,NA,NA,NA,NA,NA,NA,NA,NA,NA,NA,NA,NA,NA,NA,NA,NA,NA
5b705,task,flow.Sequence,1_8,NA,NA,completion,6154.319,184193,184190.426,184207.168,190361.487,190363.70000029,2023-03-11T15:55:22Z,190378.105,Verpackung,ufungaji,d,uhusiano,upimaji,uchunguzi,NA,NA,NA,NULL,NA,NA,NA,NA,NA,NA,NA,NA,NA,NA,NA,NA,NA,NA,NA,NA,NA,NA,NA
5b705,Deep Question,html.Page,1_9_0_0,NA,NA,form submission,16503.495000381,190363.9000001,190361.487,190378.105,206881.60000038001,206882.30000019,2023-03-11T15:55:38Z,206889.306,Spionage,upelelezi,s,maslahi,utokazo,magangao,utele,NA,NA,NULL,NA,NA,NA,NA,NA,NA,NA,NA,NA,NA,NA,NA,NA,NA,NA,NA,NA,NA,NA
5b705,Save data screen,canvas.Screen,1_9_0_1,NA,NA,timeout,500.288,206889.30000019,206872.741,206889.306,207373.144,207374.4000001,2023-03-11T15:55:39Z,207389.594,Spionage,upelelezi,s,maslahi,utokazo,magangao,NA,NA,0,NULL,NA,NA,NA,NA,NA,NA,NA,NA,NA,NA,NA,NA,NA,NA,NA,NA,NA,NA,NA
5b705,deep,flow.Sequence,1_9_0,NA,NA,completion,16995.039,190363.9000001,190361.487,190378.105,207373.144,207375.10000038001,2023-03-11T15:55:39Z,207389.594,Spionage,upelelezi,s,maslahi,utokazo,magangao,NA,NA,NA,NULL,NA,NA,NA,NA,NA,NA,NA,NA,NA,NA,NA,NA,NA,NA,NA,NA,NA,NA,NA
5b705,task,flow.Sequence,1_9,NA,NA,completion,16995.039,190363.80000019,190361.487,190378.105,207373.144,207375.5,2023-03-11T15:55:39Z,207389.594,Spionage,upelelezi,s,maslahi,utokazo,magangao,NA,NA,NA,NULL,NA,NA,NA,NA,NA,NA,NA,NA,NA,NA,NA,NA,NA,NA,NA,NA,NA,NA,NA
5b705,Deep Question,html.Page,1_10_0_0,NA,NA,form submission,10504.906,207375.9000001,207373.144,207389.594,217894.5,217895.20000029,2023-03-11T15:55:49Z,217896.83,Wohlstand,mafanikio,s,chimbuko,kumbuko,mapwaji,manifik,NA,NA,NULL,NA,NA,NA,NA,NA,NA,NA,NA,NA,NA,NA,NA,NA,NA,NA,NA,NA,NA,NA
5b705,Save data screen,canvas.Screen,1_10_0_1,NA,NA,timeout,500.31300000002,217901.9000001,217880.415,217896.83,218380.597,218381.80000019,2023-03-11T15:55:50Z,218397.143,Wohlstand,mafanikio,s,chimbuko,kumbuko,mapwaji,NA,NA,0,NULL,NA,NA,NA,NA,NA,NA,NA,NA,NA,NA,NA,NA,NA,NA,NA,NA,NA,NA,NA
5b705,deep,flow.Sequence,1_10_0,NA,NA,completion,10991.003,207375.80000019,207373.144,207389.594,218380.597,218382.30000019,2023-03-11T15:55:50Z,218397.143,Wohlstand,mafanikio,s,chimbuko,kumbuko,mapwaji,NA,NA,NA,NULL,NA,NA,NA,NA,NA,NA,NA,NA,NA,NA,NA,NA,NA,NA,NA,NA,NA,NA,NA
5b705,task,flow.Sequence,1_10,NA,NA,completion,10991.003,207375.70000029,207373.144,207389.594,218380.597,218382.80000019,2023-03-11T15:55:50Z,218397.143,Wohlstand,mafanikio,s,chimbuko,kumbuko,mapwaji,NA,NA,NA,NULL,NA,NA,NA,NA,NA,NA,NA,NA,NA,NA,NA,NA,NA,NA,NA,NA,NA,NA,NA
5b705,Deep Question,html.Page,1_11_0_0,NA,NA,form submission,23589.757000095,218383.10000038001,218380.597,218397.143,241986.9000001,241987.60000038001,2023-03-11T15:56:13Z,241996.715,Vermutung,udhanifu,d,haramia,tikisho,itifaki,ue,NA,NA,NULL,NA,NA,NA,NA,NA,NA,NA,NA,NA,NA,NA,NA,NA,NA,NA,NA,NA,NA,NA
5b705,Save data screen,canvas.Screen,1_11_0_1,NA,NA,timeout,500.27499999999,241994.4000001,241980.066,241996.715,242480.334,242481.4000001,2023-03-11T15:56:14Z,242496.99,Vermutung,udhanifu,d,haramia,tikisho,itifaki,NA,NA,0,NULL,NA,NA,NA,NA,NA,NA,NA,NA,NA,NA,NA,NA,NA,NA,NA,NA,NA,NA,NA
5b705,deep,flow.Sequence,1_11_0,NA,NA,completion,24083.191,218383,218380.597,218397.143,242480.334,242482,2023-03-11T15:56:14Z,242496.99,Vermutung,udhanifu,d,haramia,tikisho,itifaki,NA,NA,NA,NULL,NA,NA,NA,NA,NA,NA,NA,NA,NA,NA,NA,NA,NA,NA,NA,NA,NA,NA,NA
5b705,task,flow.Sequence,1_11,NA,NA,completion,24083.191,218382.9000001,218380.597,218397.143,242480.334,242482.20000029,2023-03-11T15:56:14Z,242496.99,Vermutung,udhanifu,d,haramia,tikisho,itifaki,NA,NA,NA,NULL,NA,NA,NA,NA,NA,NA,NA,NA,NA,NA,NA,NA,NA,NA,NA,NA,NA,NA,NA
5b705,Deep Question,html.Page,1_12_0_0,NA,NA,form submission,6280.9100000954,242482.5,242480.334,242496.99,248777.9000001,248778.5,2023-03-11T15:56:20Z,248784.731,Tester,wanaojaribu,d,sherti,sihiri,mlipuko,m,NA,NA,NULL,NA,NA,NA,NA,NA,NA,NA,NA,NA,NA,NA,NA,NA,NA,NA,NA,NA,NA,NA
5b705,Save data screen,canvas.Screen,1_12_0_1,NA,NA,timeout,500.51000000001,248784.9000001,248768.238,248784.731,249268.572,249269.9000001,2023-03-11T15:56:21Z,249285.241,Tester,wanaojaribu,d,sherti,sihiri,mlipuko,NA,NA,0,NULL,NA,NA,NA,NA,NA,NA,NA,NA,NA,NA,NA,NA,NA,NA,NA,NA,NA,NA,NA
5b705,deep,flow.Sequence,1_12_0,NA,NA,completion,6771.582,242482.4000001,242480.334,242496.99,249268.572,249270.4000001,2023-03-11T15:56:21Z,249285.241,Tester,wanaojaribu,d,sherti,sihiri,mlipuko,NA,NA,NA,NULL,NA,NA,NA,NA,NA,NA,NA,NA,NA,NA,NA,NA,NA,NA,NA,NA,NA,NA,NA
5b705,task,flow.Sequence,1_12,NA,NA,completion,6771.582,242482.4000001,242480.334,242496.99,249268.572,249270.80000019,2023-03-11T15:56:21Z,249285.241,Tester,wanaojaribu,d,sherti,sihiri,mlipuko,NA,NA,NA,NULL,NA,NA,NA,NA,NA,NA,NA,NA,NA,NA,NA,NA,NA,NA,NA,NA,NA,NA,NA
5b705,Deep Question,html.Page,1_13_0_0,NA,NA,form submission,7267.759,249271.20000029,249268.572,249285.241,256553,256553.60000038001,2023-03-11T15:56:28Z,256556.729,Schock,mshtuko,s,biashara,kukataza,vichekesho,m,NA,NA,NULL,NA,NA,NA,NA,NA,NA,NA,NA,NA,NA,NA,NA,NA,NA,NA,NA,NA,NA,NA
5b705,Save data screen,canvas.Screen,1_13_0_1,NA,NA,timeout,500.54700000002,256560.10000038001,256540.23,256556.729,257040.508,257041.80000019,2023-03-11T15:56:29Z,257057.276,Schock,mshtuko,s,biashara,kukataza,vichekesho,NA,NA,0,NULL,NA,NA,NA,NA,NA,NA,NA,NA,NA,NA,NA,NA,NA,NA,NA,NA,NA,NA,NA
5b705,deep,flow.Sequence,1_13_0,NA,NA,completion,7755.267,249271.10000038001,249268.572,249285.241,257040.508,257042.20000029,2023-03-11T15:56:29Z,257057.276,Schock,mshtuko,s,biashara,kukataza,vichekesho,NA,NA,NA,NULL,NA,NA,NA,NA,NA,NA,NA,NA,NA,NA,NA,NA,NA,NA,NA,NA,NA,NA,NA
5b705,task,flow.Sequence,1_13,NA,NA,completion,7755.267,249271.10000038001,249268.572,249285.241,257040.508,257042.60000038001,2023-03-11T15:56:29Z,257057.276,Schock,mshtuko,s,biashara,kukataza,vichekesho,NA,NA,NA,NULL,NA,NA,NA,NA,NA,NA,NA,NA,NA,NA,NA,NA,NA,NA,NA,NA,NA,NA,NA
5b705,Deep Question,html.Page,1_14_0_0,NA,NA,form submission,15483.424000286,257042.9000001,257040.508,257057.276,272540.70000029,272541.30000019,2023-03-11T15:56:44Z,272551.123,Vergnügen,kichekesho,d,dubwana,mpanuko,mtesaji,yalimolo,NA,NA,NULL,NA,NA,NA,NA,NA,NA,NA,NA,NA,NA,NA,NA,NA,NA,NA,NA,NA,NA,NA
5b705,Save data screen,canvas.Screen,1_14_0_1,NA,NA,timeout,500.45999999996,272547.9000001,272534.337,272551.123,273034.892,273036,2023-03-11T15:56:44Z,273051.583,Vergnügen,kichekesho,d,dubwana,mpanuko,mtesaji,NA,NA,0,NULL,NA,NA,NA,NA,NA,NA,NA,NA,NA,NA,NA,NA,NA,NA,NA,NA,NA,NA,NA
5b705,deep,flow.Sequence,1_14_0,NA,NA,completion,15977.616,257042.9000001,257040.508,257057.276,273034.892,273036.60000038,2023-03-11T15:56:44Z,273051.583,Vergnügen,kichekesho,d,dubwana,mpanuko,mtesaji,NA,NA,NA,NULL,NA,NA,NA,NA,NA,NA,NA,NA,NA,NA,NA,NA,NA,NA,NA,NA,NA,NA,NA
5b705,task,flow.Sequence,1_14,NA,NA,completion,15977.616,257042.80000019,257040.508,257057.276,273034.892,273037,2023-03-11T15:56:44Z,273051.583,Vergnügen,kichekesho,d,dubwana,mpanuko,mtesaji,NA,NA,NA,NULL,NA,NA,NA,NA,NA,NA,NA,NA,NA,NA,NA,NA,NA,NA,NA,NA,NA,NA,NA
5b705,Deep Question,html.Page,1_15_0_0,NA,NA,form submission,14907.317000095,273037.30000019,273034.892,273051.583,287958.9000001,287959.5,2023-03-11T15:56:59Z,287961.645,Schlange,foleni,s,uvumilivu,uteuzi,muuzaji,felimo,NA,NA,NULL,NA,NA,NA,NA,NA,NA,NA,NA,NA,NA,NA,NA,NA,NA,NA,NA,NA,NA,NA
5b705,Save data screen,canvas.Screen,1_15_0_1,NA,NA,timeout,500.31399999995,287966.70000029,287944.983,287961.645,288445.53,288446.9000001,2023-03-11T15:57:00Z,288461.959,Schlange,foleni,s,uvumilivu,uteuzi,muuzaji,NA,NA,0,NULL,NA,NA,NA,NA,NA,NA,NA,NA,NA,NA,NA,NA,NA,NA,NA,NA,NA,NA,NA
5b705,deep,flow.Sequence,1_15_0,NA,NA,completion,15393.947,273037.20000029,273034.892,273051.583,288445.53,288447.4000001,2023-03-11T15:57:00Z,288461.959,Schlange,foleni,s,uvumilivu,uteuzi,muuzaji,NA,NA,NA,NULL,NA,NA,NA,NA,NA,NA,NA,NA,NA,NA,NA,NA,NA,NA,NA,NA,NA,NA,NA
5b705,task,flow.Sequence,1_15,NA,NA,completion,15393.947,273037.10000038,273034.892,273051.583,288445.53,288447.70000029,2023-03-11T15:57:00Z,288461.959,Schlange,foleni,s,uvumilivu,uteuzi,muuzaji,NA,NA,NA,NULL,NA,NA,NA,NA,NA,NA,NA,NA,NA,NA,NA,NA,NA,NA,NA,NA,NA,NA,NA
5b705,retrieval block 1 (cued recall),flow.Loop,1,NA,NA,completion,265766.247,22674.700000286,22666.7,22679.283,288445.53,288448.20000029,2023-03-11T15:57:00Z,288461.959,NA,NA,NA,NA,NA,NA,NA,NA,NA,NULL,NA,NA,NA,NA,NA,NA,NA,NA,NA,NA,NA,NA,NA,NA,NA,NA,NA,NA,NA
5b705,Shallow Question,html.Page,2_0_0_0,NA,NA,form submission,5782.041,288448.60000038,288445.53,288461.959,294244,294244.70000029,2023-03-11T15:57:06Z,294249.29,Schlange,foleni,s,uvumilivu,uteuzi,muuzaji,foleni,NA,NA,"c(""distractor1"", ""distractor2"", ""distractor3"")",NA,NA,NA,NA,NA,NA,NA,NA,NA,NA,NA,NA,NA,NA,NA,NA,NA,NA,NA
5b705,Save data screen,canvas.Screen,2_0_0_1,NA,NA,timeout,500.348,294251.10000038,294232.956,294249.29,294733.198,294734.4000001,2023-03-11T15:57:06Z,294749.638,Schlange,foleni,s,uvumilivu,uteuzi,muuzaji,NA,NA,1,"c(""distractor1"", ""distractor2"", ""distractor3"")",NA,NA,NA,NA,NA,NA,NA,NA,NA,NA,NA,NA,NA,NA,NA,NA,NA,NA,NA
5b705,shallow,flow.Sequence,2_0_0,NA,NA,completion,6271.239,288448.60000038,288445.53,288461.959,294733.198,294735.10000038,2023-03-11T15:57:06Z,294749.638,Schlange,foleni,s,uvumilivu,uteuzi,muuzaji,NA,NA,NA,"c(""distractor1"", ""distractor2"", ""distractor3"")",NA,NA,NA,NA,NA,NA,NA,NA,NA,NA,NA,NA,NA,NA,NA,NA,NA,NA,NA
5b705,task,flow.Sequence,2_0,NA,NA,completion,6271.239,288448.5,288445.53,288461.959,294733.198,294735.5,2023-03-11T15:57:06Z,294749.638,Schlange,foleni,s,uvumilivu,uteuzi,muuzaji,NA,NA,NA,"c(""distractor1"", ""distractor2"", ""distractor3"")",NA,NA,NA,NA,NA,NA,NA,NA,NA,NA,NA,NA,NA,NA,NA,NA,NA,NA,NA
5b705,Shallow Question,html.Page,2_1_0_0,NA,NA,form submission,12910.262000095,294735.9000001,294733.198,294749.638,307659.9000001,307660.5,2023-03-11T15:57:19Z,307675.182,Inhalt,yaliyomo,d,kishawishi,hifadhi,kutembea,yaliyomo,NA,NA,"c(""distractor1"", ""distractor2"", ""distractor3"")",NA,NA,NA,NA,NA,NA,NA,NA,NA,NA,NA,NA,NA,NA,NA,NA,NA,NA,NA
5b705,Save data screen,canvas.Screen,2_1_0_1,NA,NA,timeout,500.48000000004,307666.9000001,307642.017,307675.182,308158.921,308160.10000038,2023-03-11T15:57:20Z,308175.662,Inhalt,yaliyomo,d,kishawishi,hifadhi,kutembea,NA,NA,1,"c(""distractor1"", ""distractor2"", ""distractor3"")",NA,NA,NA,NA,NA,NA,NA,NA,NA,NA,NA,NA,NA,NA,NA,NA,NA,NA,NA
5b705,shallow,flow.Sequence,2_1_0,NA,NA,completion,13409.283,294735.70000029,294733.198,294749.638,308158.921,308160.60000038,2023-03-11T15:57:20Z,308175.662,Inhalt,yaliyomo,d,kishawishi,hifadhi,kutembea,NA,NA,NA,"c(""distractor1"", ""distractor2"", ""distractor3"")",NA,NA,NA,NA,NA,NA,NA,NA,NA,NA,NA,NA,NA,NA,NA,NA,NA,NA,NA
5b705,task,flow.Sequence,2_1,NA,NA,completion,13409.283,294735.60000038,294733.198,294749.638,308158.921,308160.9000001,2023-03-11T15:57:20Z,308175.662,Inhalt,yaliyomo,d,kishawishi,hifadhi,kutembea,NA,NA,NA,"c(""distractor1"", ""distractor2"", ""distractor3"")",NA,NA,NA,NA,NA,NA,NA,NA,NA,NA,NA,NA,NA,NA,NA,NA,NA,NA,NA
5b705,Shallow Question,html.Page,2_2_0_0,NA,NA,form submission,8108.4380003815,308161.30000019,308158.921,308175.662,316284.10000038,316284.70000029,2023-03-11T15:57:28Z,316297.742,Vermutung,udhanifu,d,haramia,tikisho,itifaki,udhanifu,NA,NA,"c(""distractor1"", ""distractor2"", ""distractor3"")",NA,NA,NA,NA,NA,NA,NA,NA,NA,NA,NA,NA,NA,NA,NA,NA,NA,NA,NA
5b705,Save data screen,canvas.Screen,2_2_0_1,NA,NA,timeout,500.35199999996,316290.9000001,316281.429,316297.742,316781.576,316782.80000019,2023-03-11T15:57:28Z,316798.094,Vermutung,udhanifu,d,haramia,tikisho,itifaki,NA,NA,1,"c(""distractor1"", ""distractor2"", ""distractor3"")",NA,NA,NA,NA,NA,NA,NA,NA,NA,NA,NA,NA,NA,NA,NA,NA,NA,NA,NA
5b705,shallow,flow.Sequence,2_2_0,NA,NA,completion,8605.914,308161.30000019,308158.921,308175.662,316781.576,316783.30000019,2023-03-11T15:57:28Z,316798.094,Vermutung,udhanifu,d,haramia,tikisho,itifaki,NA,NA,NA,"c(""distractor1"", ""distractor2"", ""distractor3"")",NA,NA,NA,NA,NA,NA,NA,NA,NA,NA,NA,NA,NA,NA,NA,NA,NA,NA,NA
5b705,task,flow.Sequence,2_2,NA,NA,completion,8605.914,308161.20000029,308158.921,308175.662,316781.576,316783.80000019,2023-03-11T15:57:28Z,316798.094,Vermutung,udhanifu,d,haramia,tikisho,itifaki,NA,NA,NA,"c(""distractor1"", ""distractor2"", ""distractor3"")",NA,NA,NA,NA,NA,NA,NA,NA,NA,NA,NA,NA,NA,NA,NA,NA,NA,NA,NA
5b705,Shallow Question,html.Page,2_3_0_0,NA,NA,form submission,6674.1060002861,316784.10000038,316781.576,316798.094,323472.20000029,323472.9000001,2023-03-11T15:57:35Z,323486.094,Theorie,nadharia,s,ushungi,mkutano,uwakilishi,nadharia,NA,NA,"c(""distractor1"", ""distractor2"", ""distractor3"")",NA,NA,NA,NA,NA,NA,NA,NA,NA,NA,NA,NA,NA,NA,NA,NA,NA,NA,NA
5b705,Save data screen,canvas.Screen,2_3_0_1,NA,NA,timeout,500.31900000002,323479,323469.458,323486.094,323969.756,323971,2023-03-11T15:57:35Z,323986.413,Theorie,nadharia,s,ushungi,mkutano,uwakilishi,NA,NA,1,"c(""distractor1"", ""distractor2"", ""distractor3"")",NA,NA,NA,NA,NA,NA,NA,NA,NA,NA,NA,NA,NA,NA,NA,NA,NA,NA,NA
5b705,shallow,flow.Sequence,2_3_0,NA,NA,completion,7171.662,316784.10000038,316781.576,316798.094,323969.756,323971.60000038,2023-03-11T15:57:35Z,323986.413,Theorie,nadharia,s,ushungi,mkutano,uwakilishi,NA,NA,NA,"c(""distractor1"", ""distractor2"", ""distractor3"")",NA,NA,NA,NA,NA,NA,NA,NA,NA,NA,NA,NA,NA,NA,NA,NA,NA,NA,NA
5b705,task,flow.Sequence,2_3,NA,NA,completion,7171.662,316784,316781.576,316798.094,323969.756,323972,2023-03-11T15:57:35Z,323986.413,Theorie,nadharia,s,ushungi,mkutano,uwakilishi,NA,NA,NA,"c(""distractor1"", ""distractor2"", ""distractor3"")",NA,NA,NA,NA,NA,NA,NA,NA,NA,NA,NA,NA,NA,NA,NA,NA,NA,NA,NA
5b705,Shallow Question,html.Page,2_4_0_0,NA,NA,form submission,6343.087,323972.30000019,323969.756,323986.413,330329.5,330330,2023-03-11T15:57:42Z,330340.761,Vergnügen,kichekesho,d,dubwana,mpanuko,mtesaji,kichekesho,NA,NA,"c(""distractor1"", ""distractor2"", ""distractor3"")",NA,NA,NA,NA,NA,NA,NA,NA,NA,NA,NA,NA,NA,NA,NA,NA,NA,NA,NA
5b705,Save data screen,canvas.Screen,2_4_0_1,NA,NA,timeout,500.33600000001,330336.4000001,330324.369,330340.761,330824.693,330825.9000001,2023-03-11T15:57:42Z,330841.097,Vergnügen,kichekesho,d,dubwana,mpanuko,mtesaji,NA,NA,1,"c(""distractor1"", ""distractor2"", ""distractor3"")",NA,NA,NA,NA,NA,NA,NA,NA,NA,NA,NA,NA,NA,NA,NA,NA,NA,NA,NA
5b705,shallow,flow.Sequence,2_4_0,NA,NA,completion,6838.28,323972.30000019,323969.756,323986.413,330824.693,330826.4000001,2023-03-11T15:57:42Z,330841.097,Vergnügen,kichekesho,d,dubwana,mpanuko,mtesaji,NA,NA,NA,"c(""distractor1"", ""distractor2"", ""distractor3"")",NA,NA,NA,NA,NA,NA,NA,NA,NA,NA,NA,NA,NA,NA,NA,NA,NA,NA,NA
5b705,task,flow.Sequence,2_4,NA,NA,completion,6838.28,323972.20000029,323969.756,323986.413,330824.693,330826.9000001,2023-03-11T15:57:42Z,330841.097,Vergnügen,kichekesho,d,dubwana,mpanuko,mtesaji,NA,NA,NA,"c(""distractor1"", ""distractor2"", ""distractor3"")",NA,NA,NA,NA,NA,NA,NA,NA,NA,NA,NA,NA,NA,NA,NA,NA,NA,NA,NA
5b705,Shallow Question,html.Page,2_5_0_0,NA,NA,form submission,5636.903,330827.20000029,330824.693,330841.097,336478,336478.60000038,2023-03-11T15:57:48Z,336478.32,Schüler,mwanafunzi,d,mwekezaji,matumizi,uaminifu,mwanafunzi,NA,NA,"c(""distractor1"", ""distractor2"", ""distractor3"")",NA,NA,NA,NA,NA,NA,NA,NA,NA,NA,NA,NA,NA,NA,NA,NA,NA,NA,NA
5b705,Save data screen,canvas.Screen,2_5_0_1,NA,NA,timeout,500.33600000001,336484.80000019,336462.132,336478.32,336962.169,336963.5,2023-03-11T15:57:48Z,336978.656,Schüler,mwanafunzi,d,mwekezaji,matumizi,uaminifu,NA,NA,1,"c(""distractor1"", ""distractor2"", ""distractor3"")",NA,NA,NA,NA,NA,NA,NA,NA,NA,NA,NA,NA,NA,NA,NA,NA,NA,NA,NA
5b705,shallow,flow.Sequence,2_5_0,NA,NA,completion,6121.072,330827.20000029,330824.693,330841.097,336962.169,336963.9000001,2023-03-11T15:57:48Z,336978.656,Schüler,mwanafunzi,d,mwekezaji,matumizi,uaminifu,NA,NA,NA,"c(""distractor1"", ""distractor2"", ""distractor3"")",NA,NA,NA,NA,NA,NA,NA,NA,NA,NA,NA,NA,NA,NA,NA,NA,NA,NA,NA
5b705,task,flow.Sequence,2_5,NA,NA,completion,6121.072,330827.10000038,330824.693,330841.097,336962.169,336964.30000019,2023-03-11T15:57:48Z,336978.656,Schüler,mwanafunzi,d,mwekezaji,matumizi,uaminifu,NA,NA,NA,"c(""distractor1"", ""distractor2"", ""distractor3"")",NA,NA,NA,NA,NA,NA,NA,NA,NA,NA,NA,NA,NA,NA,NA,NA,NA,NA,NA
5b705,Shallow Question,html.Page,2_6_0_0,NA,NA,form submission,5603.4440003815,336964.70000029,336962.169,336978.656,342582.10000038,342582.9000001,2023-03-11T15:57:54Z,342582.506,Wohlstand,mafanikio,s,chimbuko,kumbuko,mapwaji,mafanikio,NA,NA,"c(""distractor1"", ""distractor2"", ""distractor3"")",NA,NA,NA,NA,NA,NA,NA,NA,NA,NA,NA,NA,NA,NA,NA,NA,NA,NA,NA
5b705,Save data screen,canvas.Screen,2_6_0_1,NA,NA,timeout,500.53600000002,342589.20000029,342565.887,342582.506,343066.316,343067.60000038,2023-03-11T15:57:55Z,343083.042,Wohlstand,mafanikio,s,chimbuko,kumbuko,mapwaji,NA,NA,1,"c(""distractor1"", ""distractor2"", ""distractor3"")",NA,NA,NA,NA,NA,NA,NA,NA,NA,NA,NA,NA,NA,NA,NA,NA,NA,NA,NA
5b705,shallow,flow.Sequence,2_6_0,NA,NA,completion,6087.66,336964.60000038,336962.169,336978.656,343066.316,343068,2023-03-11T15:57:55Z,343083.042,Wohlstand,mafanikio,s,chimbuko,kumbuko,mapwaji,NA,NA,NA,"c(""distractor1"", ""distractor2"", ""distractor3"")",NA,NA,NA,NA,NA,NA,NA,NA,NA,NA,NA,NA,NA,NA,NA,NA,NA,NA,NA
5b705,task,flow.Sequence,2_6,NA,NA,completion,6087.66,336964.5,336962.169,336978.656,343066.316,343068.4000001,2023-03-11T15:57:55Z,343083.042,Wohlstand,mafanikio,s,chimbuko,kumbuko,mapwaji,NA,NA,NA,"c(""distractor1"", ""distractor2"", ""distractor3"")",NA,NA,NA,NA,NA,NA,NA,NA,NA,NA,NA,NA,NA,NA,NA,NA,NA,NA,NA
5b705,Shallow Question,html.Page,2_7_0_0,NA,NA,form submission,5351.2580001907,343068.80000019,343066.316,343083.042,348434.30000019,348434.80000019,2023-03-11T15:58:00Z,348453.179,Schock,mshtuko,s,biashara,kukataza,vichekesho,mshtuko,NA,NA,"c(""distractor1"", ""distractor2"", ""distractor3"")",NA,NA,NA,NA,NA,NA,NA,NA,NA,NA,NA,NA,NA,NA,NA,NA,NA,NA,NA
5b705,Save data screen,canvas.Screen,2_7_0_1,NA,NA,timeout,500.353,348441.10000038,348420.076,348453.179,348937.052,348938.30000019,2023-03-11T15:58:00Z,348953.532,Schock,mshtuko,s,biashara,kukataza,vichekesho,NA,NA,1,"c(""distractor1"", ""distractor2"", ""distractor3"")",NA,NA,NA,NA,NA,NA,NA,NA,NA,NA,NA,NA,NA,NA,NA,NA,NA,NA,NA
5b705,shallow,flow.Sequence,2_7_0,NA,NA,completion,5854.01,343068.70000029,343066.316,343083.042,348937.052,348939,2023-03-11T15:58:00Z,348953.532,Schock,mshtuko,s,biashara,kukataza,vichekesho,NA,NA,NA,"c(""distractor1"", ""distractor2"", ""distractor3"")",NA,NA,NA,NA,NA,NA,NA,NA,NA,NA,NA,NA,NA,NA,NA,NA,NA,NA,NA
5b705,task,flow.Sequence,2_7,NA,NA,completion,5854.01,343068.60000038,343066.316,343083.042,348937.052,348939.5,2023-03-11T15:58:00Z,348953.532,Schock,mshtuko,s,biashara,kukataza,vichekesho,NA,NA,NA,"c(""distractor1"", ""distractor2"", ""distractor3"")",NA,NA,NA,NA,NA,NA,NA,NA,NA,NA,NA,NA,NA,NA,NA,NA,NA,NA,NA
5b705,Shallow Question,html.Page,2_8_0_0,NA,NA,form submission,5981.3680000954,348939.80000019,348937.052,348953.532,354934.9000001,354935.5,2023-03-11T15:58:06Z,354941.012,Ergänzung,kijalizo,s,ulaghai,mustarehe,matangazo,kijalizo,NA,NA,"c(""distractor1"", ""distractor2"", ""distractor3"")",NA,NA,NA,NA,NA,NA,NA,NA,NA,NA,NA,NA,NA,NA,NA,NA,NA,NA,NA
5b705,Save data screen,canvas.Screen,2_8_0_1,NA,NA,timeout,500.40700000001,354941.9000001,354924.642,354941.012,355424.975,355426.20000029,2023-03-11T15:58:07Z,355441.419,Ergänzung,kijalizo,s,ulaghai,mustarehe,matangazo,NA,NA,1,"c(""distractor1"", ""distractor2"", ""distractor3"")",NA,NA,NA,NA,NA,NA,NA,NA,NA,NA,NA,NA,NA,NA,NA,NA,NA,NA,NA
5b705,shallow,flow.Sequence,2_8_0,NA,NA,completion,6471.443,348939.80000019,348937.052,348953.532,355424.975,355426.70000029,2023-03-11T15:58:07Z,355441.419,Ergänzung,kijalizo,s,ulaghai,mustarehe,matangazo,NA,NA,NA,"c(""distractor1"", ""distractor2"", ""distractor3"")",NA,NA,NA,NA,NA,NA,NA,NA,NA,NA,NA,NA,NA,NA,NA,NA,NA,NA,NA
5b705,task,flow.Sequence,2_8,NA,NA,completion,6471.443,348939.70000029,348937.052,348953.532,355424.975,355427.10000038,2023-03-11T15:58:07Z,355441.419,Ergänzung,kijalizo,s,ulaghai,mustarehe,matangazo,NA,NA,NA,"c(""distractor1"", ""distractor2"", ""distractor3"")",NA,NA,NA,NA,NA,NA,NA,NA,NA,NA,NA,NA,NA,NA,NA,NA,NA,NA,NA
5b705,Shallow Question,html.Page,2_9_0_0,NA,NA,form submission,5189.6810003815,355427.4000001,355424.975,355441.419,360631.10000038,360631.60000038,2023-03-11T15:58:12Z,360644.95,Notfall,dharura,d,rairai,malalamiko,ahueni,dharura,NA,NA,"c(""distractor1"", ""distractor2"", ""distractor3"")",NA,NA,NA,NA,NA,NA,NA,NA,NA,NA,NA,NA,NA,NA,NA,NA,NA,NA,NA
5b705,Save data screen,canvas.Screen,2_9_0_1,NA,NA,timeout,500.36099999998,360637.70000029,360628.54,360644.95,361128.711,361130,2023-03-11T15:58:13Z,361145.311,Notfall,dharura,d,rairai,malalamiko,ahueni,NA,NA,1,"c(""distractor1"", ""distractor2"", ""distractor3"")",NA,NA,NA,NA,NA,NA,NA,NA,NA,NA,NA,NA,NA,NA,NA,NA,NA,NA,NA
5b705,shallow,flow.Sequence,2_9_0,NA,NA,completion,5687.292,355427.4000001,355424.975,355441.419,361128.711,361130.4000001,2023-03-11T15:58:13Z,361145.311,Notfall,dharura,d,rairai,malalamiko,ahueni,NA,NA,NA,"c(""distractor1"", ""distractor2"", ""distractor3"")",NA,NA,NA,NA,NA,NA,NA,NA,NA,NA,NA,NA,NA,NA,NA,NA,NA,NA,NA
5b705,task,flow.Sequence,2_9,NA,NA,completion,5687.292,355427.30000019,355424.975,355441.419,361128.711,361130.80000019,2023-03-11T15:58:13Z,361145.311,Notfall,dharura,d,rairai,malalamiko,ahueni,NA,NA,NA,"c(""distractor1"", ""distractor2"", ""distractor3"")",NA,NA,NA,NA,NA,NA,NA,NA,NA,NA,NA,NA,NA,NA,NA,NA,NA,NA,NA
5b705,Shallow Question,html.Page,2_10_0_0,NA,NA,form submission,8118.9890001907,361131.20000029,361128.711,361145.311,369264.30000019,369264.80000019,2023-03-11T15:58:21Z,369284.2,Verpackung,ufungaji,d,uhusiano,upimaji,uchunguzi,ufungaji,NA,NA,"c(""distractor1"", ""distractor2"", ""distractor3"")",NA,NA,NA,NA,NA,NA,NA,NA,NA,NA,NA,NA,NA,NA,NA,NA,NA,NA,NA
5b705,Save data screen,canvas.Screen,2_10_0_1,NA,NA,timeout,500.489,369271.30000019,369251.254,369284.2,369768.12,369769.4000001,2023-03-11T15:58:21Z,369784.689,Verpackung,ufungaji,d,uhusiano,upimaji,uchunguzi,NA,NA,1,"c(""distractor1"", ""distractor2"", ""distractor3"")",NA,NA,NA,NA,NA,NA,NA,NA,NA,NA,NA,NA,NA,NA,NA,NA,NA,NA,NA
5b705,shallow,flow.Sequence,2_10_0,NA,NA,completion,8622.809,361131.20000029,361128.711,361145.311,369768.12,369770,2023-03-11T15:58:21Z,369784.689,Verpackung,ufungaji,d,uhusiano,upimaji,uchunguzi,NA,NA,NA,"c(""distractor1"", ""distractor2"", ""distractor3"")",NA,NA,NA,NA,NA,NA,NA,NA,NA,NA,NA,NA,NA,NA,NA,NA,NA,NA,NA
5b705,task,flow.Sequence,2_10,NA,NA,completion,8622.809,361131.10000038,361128.711,361145.311,369768.12,369770.4000001,2023-03-11T15:58:21Z,369784.689,Verpackung,ufungaji,d,uhusiano,upimaji,uchunguzi,NA,NA,NA,"c(""distractor1"", ""distractor2"", ""distractor3"")",NA,NA,NA,NA,NA,NA,NA,NA,NA,NA,NA,NA,NA,NA,NA,NA,NA,NA,NA
5b705,Shallow Question,html.Page,2_11_0_0,NA,NA,form submission,11717.911000381,369770.70000029,369768.12,369784.689,381502.60000038,381503.30000019,2023-03-11T15:58:33Z,381509.251,Toleranz,kuvumiliana,s,maombolezo,ujasusi,mchekeshaji,kuvumiliana,NA,NA,"c(""distractor1"", ""distractor2"", ""distractor3"")",NA,NA,NA,NA,NA,NA,NA,NA,NA,NA,NA,NA,NA,NA,NA,NA,NA,NA,NA
5b705,Save data screen,canvas.Screen,2_11_0_1,NA,NA,timeout,500.42200000002,381509.80000019,381492.751,381509.251,381993.16,381994.4000001,2023-03-11T15:58:33Z,382009.673,Toleranz,kuvumiliana,s,maombolezo,ujasusi,mchekeshaji,NA,NA,1,"c(""distractor1"", ""distractor2"", ""distractor3"")",NA,NA,NA,NA,NA,NA,NA,NA,NA,NA,NA,NA,NA,NA,NA,NA,NA,NA,NA
5b705,shallow,flow.Sequence,2_11_0,NA,NA,completion,12208.471,369770.70000029,369768.12,369784.689,381993.16,381994.80000019,2023-03-11T15:58:33Z,382009.673,Toleranz,kuvumiliana,s,maombolezo,ujasusi,mchekeshaji,NA,NA,NA,"c(""distractor1"", ""distractor2"", ""distractor3"")",NA,NA,NA,NA,NA,NA,NA,NA,NA,NA,NA,NA,NA,NA,NA,NA,NA,NA,NA
5b705,task,flow.Sequence,2_11,NA,NA,completion,12208.471,369770.60000038,369768.12,369784.689,381993.16,381995.30000019,2023-03-11T15:58:33Z,382009.673,Toleranz,kuvumiliana,s,maombolezo,ujasusi,mchekeshaji,NA,NA,NA,"c(""distractor1"", ""distractor2"", ""distractor3"")",NA,NA,NA,NA,NA,NA,NA,NA,NA,NA,NA,NA,NA,NA,NA,NA,NA,NA,NA
5b705,Shallow Question,html.Page,2_12_0_0,NA,NA,form submission,8048.827,381995.60000038,381993.16,382009.673,390058.5,390059.20000029,2023-03-11T15:58:42Z,390065.125,Tester,wanaojaribu,d,sherti,sihiri,mlipuko,wanaojaribu,NA,NA,"c(""distractor1"", ""distractor2"", ""distractor3"")",NA,NA,NA,NA,NA,NA,NA,NA,NA,NA,NA,NA,NA,NA,NA,NA,NA,NA,NA
5b705,Save data screen,canvas.Screen,2_12_0_1,NA,NA,timeout,500.33600000001,390065.4000001,390048.735,390065.125,390549.028,390550.4000001,2023-03-11T15:58:42Z,390565.461,Tester,wanaojaribu,d,sherti,sihiri,mlipuko,NA,NA,1,"c(""distractor1"", ""distractor2"", ""distractor3"")",NA,NA,NA,NA,NA,NA,NA,NA,NA,NA,NA,NA,NA,NA,NA,NA,NA,NA,NA
5b705,shallow,flow.Sequence,2_12_0,NA,NA,completion,8539.355,381995.5,381993.16,382009.673,390549.028,390550.9000001,2023-03-11T15:58:42Z,390565.461,Tester,wanaojaribu,d,sherti,sihiri,mlipuko,NA,NA,NA,"c(""distractor1"", ""distractor2"", ""distractor3"")",NA,NA,NA,NA,NA,NA,NA,NA,NA,NA,NA,NA,NA,NA,NA,NA,NA,NA,NA
5b705,task,flow.Sequence,2_12,NA,NA,completion,8539.355,381995.5,381993.16,382009.673,390549.028,390551.20000029,2023-03-11T15:58:42Z,390565.461,Tester,wanaojaribu,d,sherti,sihiri,mlipuko,NA,NA,NA,"c(""distractor1"", ""distractor2"", ""distractor3"")",NA,NA,NA,NA,NA,NA,NA,NA,NA,NA,NA,NA,NA,NA,NA,NA,NA,NA,NA
5b705,Shallow Question,html.Page,2_13_0_0,NA,NA,form submission,7771.8390001907,390551.5,390549.028,390565.461,398337.30000019,398338,2023-03-11T15:58:50Z,398337.518,Fenster,dirisha,s,walakini,tasawari,maarifa,dirisha,NA,NA,"c(""distractor1"", ""distractor2"", ""distractor3"")",NA,NA,NA,NA,NA,NA,NA,NA,NA,NA,NA,NA,NA,NA,NA,NA,NA,NA,NA
5b705,Save data screen,canvas.Screen,2_13_0_1,NA,NA,timeout,500.31900000002,398344.60000038,398320.941,398337.518,398821.331,398822.5,2023-03-11T15:58:50Z,398837.837,Fenster,dirisha,s,walakini,tasawari,maarifa,NA,NA,1,"c(""distractor1"", ""distractor2"", ""distractor3"")",NA,NA,NA,NA,NA,NA,NA,NA,NA,NA,NA,NA,NA,NA,NA,NA,NA,NA,NA
5b705,shallow,flow.Sequence,2_13_0,NA,NA,completion,8255.87,390551.5,390549.028,390565.461,398821.331,398823,2023-03-11T15:58:50Z,398837.837,Fenster,dirisha,s,walakini,tasawari,maarifa,NA,NA,NA,"c(""distractor1"", ""distractor2"", ""distractor3"")",NA,NA,NA,NA,NA,NA,NA,NA,NA,NA,NA,NA,NA,NA,NA,NA,NA,NA,NA
5b705,task,flow.Sequence,2_13,NA,NA,completion,8255.87,390551.4000001,390549.028,390565.461,398821.331,398823.4000001,2023-03-11T15:58:50Z,398837.837,Fenster,dirisha,s,walakini,tasawari,maarifa,NA,NA,NA,"c(""distractor1"", ""distractor2"", ""distractor3"")",NA,NA,NA,NA,NA,NA,NA,NA,NA,NA,NA,NA,NA,NA,NA,NA,NA,NA,NA
5b705,Shallow Question,html.Page,2_14_0_0,NA,NA,form submission,10050.263000381,398823.80000019,398821.331,398837.837,408888.10000038,408888.60000038,2023-03-11T15:59:00Z,408911.404,Hoffnung,matarajio,d,kutaalamika,uratibu,mvumbuzi,matarajio,NA,NA,"c(""distractor1"", ""distractor2"", ""distractor3"")",NA,NA,NA,NA,NA,NA,NA,NA,NA,NA,NA,NA,NA,NA,NA,NA,NA,NA,NA
5b705,Save data screen,canvas.Screen,2_14_0_1,NA,NA,timeout,500.39000000001,408895,408878.204,408911.404,409395.341,409396.60000038,2023-03-11T15:59:01Z,409411.794,Hoffnung,matarajio,d,kutaalamika,uratibu,mvumbuzi,NA,NA,1,"c(""distractor1"", ""distractor2"", ""distractor3"")",NA,NA,NA,NA,NA,NA,NA,NA,NA,NA,NA,NA,NA,NA,NA,NA,NA,NA,NA
5b705,shallow,flow.Sequence,2_14_0,NA,NA,completion,10557.504,398823.70000029,398821.331,398837.837,409395.341,409397.20000029,2023-03-11T15:59:01Z,409411.794,Hoffnung,matarajio,d,kutaalamika,uratibu,mvumbuzi,NA,NA,NA,"c(""distractor1"", ""distractor2"", ""distractor3"")",NA,NA,NA,NA,NA,NA,NA,NA,NA,NA,NA,NA,NA,NA,NA,NA,NA,NA,NA
5b705,task,flow.Sequence,2_14,NA,NA,completion,10557.504,398823.70000029,398821.331,398837.837,409395.341,409397.70000029,2023-03-11T15:59:01Z,409411.794,Hoffnung,matarajio,d,kutaalamika,uratibu,mvumbuzi,NA,NA,NA,"c(""distractor1"", ""distractor2"", ""distractor3"")",NA,NA,NA,NA,NA,NA,NA,NA,NA,NA,NA,NA,NA,NA,NA,NA,NA,NA,NA
5b705,Shallow Question,html.Page,2_15_0_0,NA,NA,form submission,5492.206,409398,409395.341,409411.794,414904,414904.5,2023-03-11T15:59:06Z,414915.569,Spionage,upelelezi,s,maslahi,utokazo,magangao,upelelezi,NA,NA,"c(""distractor1"", ""distractor2"", ""distractor3"")",NA,NA,NA,NA,NA,NA,NA,NA,NA,NA,NA,NA,NA,NA,NA,NA,NA,NA,NA
5b705,Save data screen,canvas.Screen,2_15_0_1,NA,NA,timeout,500.32399999996,414910.5,414898.966,414915.569,415399.301,415400.5,2023-03-11T15:59:07Z,415415.893,Spionage,upelelezi,s,maslahi,utokazo,magangao,NA,NA,1,"c(""distractor1"", ""distractor2"", ""distractor3"")",NA,NA,NA,NA,NA,NA,NA,NA,NA,NA,NA,NA,NA,NA,NA,NA,NA,NA,NA
5b705,shallow,flow.Sequence,2_15_0,NA,NA,completion,5987.507,409397.9000001,409395.341,409411.794,415399.301,415401,2023-03-11T15:59:07Z,415415.893,Spionage,upelelezi,s,maslahi,utokazo,magangao,NA,NA,NA,"c(""distractor1"", ""distractor2"", ""distractor3"")",NA,NA,NA,NA,NA,NA,NA,NA,NA,NA,NA,NA,NA,NA,NA,NA,NA,NA,NA
5b705,task,flow.Sequence,2_15,NA,NA,completion,5987.507,409397.80000019,409395.341,409411.794,415399.301,415401.30000019,2023-03-11T15:59:07Z,415415.893,Spionage,upelelezi,s,maslahi,utokazo,magangao,NA,NA,NA,"c(""distractor1"", ""distractor2"", ""distractor3"")",NA,NA,NA,NA,NA,NA,NA,NA,NA,NA,NA,NA,NA,NA,NA,NA,NA,NA,NA
5b705,retrieval block 2 (multiple choice),flow.Loop,2,NA,NA,completion,126937.342,288448.4000001,288445.53,288461.959,415399.301,415401.60000038,2023-03-11T15:59:07Z,415415.893,NA,NA,NA,NA,NA,NA,NA,NA,NA,"c(""distractor1"", ""distractor2"", ""distractor3"")",NA,NA,NA,NA,NA,NA,NA,NA,NA,NA,NA,NA,NA,NA,NA,NA,NA,NA,NA
5b705,End,canvas.Screen,3,NA,keypress(Space),response,2133.607,415401.9000001,415399.301,415415.893,417549.5,417551.30000019,2023-03-11T15:59:09Z,417573.403,NA,NA,NA,NA,NA,NA,NA,NA,NA,NULL,NA,NA,NA,NA,NA,NA,NA,NA,NA,NA,NA,NA,NA,NA,NA,NA,NA,NA,NA
5b705,root,flow.Sequence,NA,NA,NA,completion,415751.184,1695,1114.5,1798.316,417549.5,417552.30000019,2023-03-11T15:59:09Z,417573.403,NA,NA,NA,NA,NA,NA,NA,NA,NA,NULL,NA,NA,NA,NA,NA,NA,NA,NA,NA,NA,NA,NA,NA,NA,NA,NA,NA,NA,NA
