observation,sender,sender_type,sender_id,response,response_action,ended_on,duration,time_run,time_render,time_show,time_end,time_commit,timestamp,time_switch,distractors,german,swahili,enc,distractor1,distractor2,distractor3,response_2,x,correct,x_2,url_vp,url_sess,meta_labjs_version,meta_location,meta_user_agent,meta_platform,meta_language,meta_locale,meta_time_zone,meta_timezone_offset,meta_screen_width,meta_screen_height,meta_scroll_width,meta_scroll_height,meta_window_inner_width,meta_window_inner_height,meta_device_pixel_ratio,meta_labjs_build_flavor,meta_labjs_build_commit
8617c,Introduction general,canvas.Screen,0,weiter,keypress(q),response,102442.00000057,466.4000005722,452.69,468.9,102910.90000057,102915.5,2024-04-13T05:46:17Z,102919.1,NULL,NA,NA,NA,NA,NA,NA,NA,NA,NA,NA,157,1,20.2.4,https://neurocog.fernuni.ch/studies/vweber/jbaenninger/encoding_immediate/index.html?vp=157&sess=1,"Mozilla/5.0 (Windows NT 10.0; Win64; x64) AppleWebKit/537.36 (KHTML, like Gecko) Chrome/123.0.0.0 Safari/537.36 Edg/123.0.0.0",Win32,de,de-CH,Europe/Zurich,-120,1920,1080,1872,910,1872,958,1,production,f5b4a49f956347addd546a832a3327688c2c0fef
8617c,Introduction practice,canvas.Screen,1_0,NA,keypress(Space),response,8945.5000003815,102916.10000038,102902.096,102919.1,111864.60000038,111865.5,2024-04-13T05:46:26Z,111885.7,NULL,NA,NA,NA,NA,NA,NA,NA,NA,NA,NA,NA,NA,NA,NA,NA,NA,NA,NA,NA,NA,NA,NA,NA,NA,NA,NA,NA,NA,NA
8617c,deep,flow.Sequence,1_1_0_0,NA,NA,skipped,NA,111865.80000019,NA,NA,111864.60000038,111868.90000057,2024-04-13T05:46:26Z,111885.7,"c(""distractor1"", ""distractor2"", ""distractor3"")",Kritik,lawama,s,dereva,nafasi,mawazo,NA,NA,NA,NA,NA,NA,NA,NA,NA,NA,NA,NA,NA,NA,NA,NA,NA,NA,NA,NA,NA,NA,NA
8617c,Shallow Question,html.Page,1_1_0_1_0,NA,NA,form submission,8379.3,111869.10000038,111868.742,111885.7,120265,120265.30000019,2024-04-13T05:46:35Z,120269.054,"c(""distractor1"", ""distractor2"", ""distractor3"")",Kritik,lawama,s,dereva,nafasi,mawazo,dereva,NA,NA,NA,NA,NA,NA,NA,NA,NA,NA,NA,NA,NA,NA,NA,NA,NA,NA,NA,NA,NA,NA
8617c,"""Richtig""-Screen",canvas.Screen,1_1_0_1_1,NA,NA,skipped,NA,120266.5,NA,NA,120265,120266.70000076,2024-04-13T05:46:35Z,120269.054,"c(""distractor1"", ""distractor2"", ""distractor3"")",Kritik,lawama,s,dereva,nafasi,mawazo,NA,NA,NA,NA,NA,NA,NA,NA,NA,NA,NA,NA,NA,NA,NA,NA,NA,NA,NA,NA,NA,NA,NA
8617c,"""Falsch""-Screen",canvas.Screen,1_1_0_1_2,NA,NA,timeout,4999.946,120267.5,120269.054,120269.054,125252.2,125255.80000019,2024-04-13T05:46:40Z,125269,"c(""distractor1"", ""distractor2"", ""distractor3"")",Kritik,lawama,s,dereva,nafasi,mawazo,NA,NA,0,NA,NA,NA,NA,NA,NA,NA,NA,NA,NA,NA,NA,NA,NA,NA,NA,NA,NA,NA,NA
8617c,shallow,flow.Sequence,1_1_0_1,NA,NA,completion,13366.5,111869,111868.742,111885.7,125252.2,125256.20000076,2024-04-13T05:46:40Z,125269,"c(""distractor1"", ""distractor2"", ""distractor3"")",Kritik,lawama,s,dereva,nafasi,mawazo,NA,NA,NA,NA,NA,NA,NA,NA,NA,NA,NA,NA,NA,NA,NA,NA,NA,NA,NA,NA,NA,NA,NA
8617c,task,flow.Sequence,1_1_0,NA,NA,completion,13366.5,111865.80000019,111868.742,111885.7,125252.2,125256.40000057,2024-04-13T05:46:40Z,125269,"c(""distractor1"", ""distractor2"", ""distractor3"")",Kritik,lawama,s,dereva,nafasi,mawazo,NA,NA,NA,NA,NA,NA,NA,NA,NA,NA,NA,NA,NA,NA,NA,NA,NA,NA,NA,NA,NA,NA,NA
8617c,deep,flow.Sequence,1_1_1_0,NA,NA,skipped,NA,125256.60000038,NA,NA,125252.2,125256.70000076,2024-04-13T05:46:40Z,125269,"c(""distractor1"", ""distractor2"", ""distractor3"")",Rückhalt,msaada,s,muhula,auwali,kiwimbe,NA,NA,NA,NA,NA,NA,NA,NA,NA,NA,NA,NA,NA,NA,NA,NA,NA,NA,NA,NA,NA,NA,NA
8617c,Shallow Question,html.Page,1_1_1_1_0,NA,NA,form submission,5814.9000005722,125256.80000019,125252.2,125269,131083.90000057,131084.10000038,2024-04-13T05:46:45Z,131085.712,"c(""distractor1"", ""distractor2"", ""distractor3"")",Rückhalt,msaada,s,muhula,auwali,kiwimbe,kiwimbe,NA,NA,NA,NA,NA,NA,NA,NA,NA,NA,NA,NA,NA,NA,NA,NA,NA,NA,NA,NA,NA,NA
8617c,"""Richtig""-Screen",canvas.Screen,1_1_1_1_1,NA,NA,skipped,NA,131085.90000057,NA,NA,131083.90000057,131086.10000038,2024-04-13T05:46:45Z,131085.712,"c(""distractor1"", ""distractor2"", ""distractor3"")",Rückhalt,msaada,s,muhula,auwali,kiwimbe,NA,NA,NA,NA,NA,NA,NA,NA,NA,NA,NA,NA,NA,NA,NA,NA,NA,NA,NA,NA,NA,NA,NA
8617c,"""Falsch""-Screen",canvas.Screen,1_1_1_1_2,NA,NA,timeout,4999.888,131086.80000019,131085.712,131085.712,136068.9,136069.60000038,2024-04-13T05:46:50Z,136085.6,"c(""distractor1"", ""distractor2"", ""distractor3"")",Rückhalt,msaada,s,muhula,auwali,kiwimbe,NA,NA,0,NA,NA,NA,NA,NA,NA,NA,NA,NA,NA,NA,NA,NA,NA,NA,NA,NA,NA,NA,NA
8617c,shallow,flow.Sequence,1_1_1_1,NA,NA,completion,10799.9,125256.80000019,125252.2,125269,136068.9,136070,2024-04-13T05:46:50Z,136085.6,"c(""distractor1"", ""distractor2"", ""distractor3"")",Rückhalt,msaada,s,muhula,auwali,kiwimbe,NA,NA,NA,NA,NA,NA,NA,NA,NA,NA,NA,NA,NA,NA,NA,NA,NA,NA,NA,NA,NA,NA,NA
8617c,task,flow.Sequence,1_1_1,NA,NA,completion,10799.9,125256.5,125252.2,125269,136068.9,136070.10000038,2024-04-13T05:46:50Z,136085.6,"c(""distractor1"", ""distractor2"", ""distractor3"")",Rückhalt,msaada,s,muhula,auwali,kiwimbe,NA,NA,NA,NA,NA,NA,NA,NA,NA,NA,NA,NA,NA,NA,NA,NA,NA,NA,NA,NA,NA,NA,NA
8617c,deep,flow.Sequence,1_1_2_0,NA,NA,skipped,NA,136070.30000019,NA,NA,136068.9,136070.5,2024-04-13T05:46:50Z,136085.6,"c(""distractor1"", ""distractor2"", ""distractor3"")",Gegenwart,hadhara,s,katiba,jokofu,mikopo,NA,NA,NA,NA,NA,NA,NA,NA,NA,NA,NA,NA,NA,NA,NA,NA,NA,NA,NA,NA,NA,NA,NA
8617c,Shallow Question,html.Page,1_1_2_1_0,NA,NA,form submission,7182.5000003815,136070.5,136068.9,136085.6,143268.10000038,143268.30000019,2024-04-13T05:46:58Z,143269.054,"c(""distractor1"", ""distractor2"", ""distractor3"")",Gegenwart,hadhara,s,katiba,jokofu,mikopo,mikopo,NA,NA,NA,NA,NA,NA,NA,NA,NA,NA,NA,NA,NA,NA,NA,NA,NA,NA,NA,NA,NA,NA
8617c,"""Richtig""-Screen",canvas.Screen,1_1_2_1_1,NA,NA,skipped,NA,143270,NA,NA,143268.10000038,143270.10000038,2024-04-13T05:46:58Z,143269.054,"c(""distractor1"", ""distractor2"", ""distractor3"")",Gegenwart,hadhara,s,katiba,jokofu,mikopo,NA,NA,NA,NA,NA,NA,NA,NA,NA,NA,NA,NA,NA,NA,NA,NA,NA,NA,NA,NA,NA,NA,NA
8617c,"""Falsch""-Screen",canvas.Screen,1_1_2_1_2,NA,NA,timeout,5000.046,143270.80000019,143269.054,143269.054,148252.3,148253,2024-04-13T05:47:03Z,148269.1,"c(""distractor1"", ""distractor2"", ""distractor3"")",Gegenwart,hadhara,s,katiba,jokofu,mikopo,NA,NA,0,NA,NA,NA,NA,NA,NA,NA,NA,NA,NA,NA,NA,NA,NA,NA,NA,NA,NA,NA,NA
8617c,shallow,flow.Sequence,1_1_2_1,NA,NA,completion,12166.7,136070.5,136068.9,136085.6,148252.3,148253.30000019,2024-04-13T05:47:03Z,148269.1,"c(""distractor1"", ""distractor2"", ""distractor3"")",Gegenwart,hadhara,s,katiba,jokofu,mikopo,NA,NA,NA,NA,NA,NA,NA,NA,NA,NA,NA,NA,NA,NA,NA,NA,NA,NA,NA,NA,NA,NA,NA
8617c,task,flow.Sequence,1_1_2,NA,NA,completion,12166.7,136070.30000019,136068.9,136085.6,148252.3,148253.5,2024-04-13T05:47:03Z,148269.1,"c(""distractor1"", ""distractor2"", ""distractor3"")",Gegenwart,hadhara,s,katiba,jokofu,mikopo,NA,NA,NA,NA,NA,NA,NA,NA,NA,NA,NA,NA,NA,NA,NA,NA,NA,NA,NA,NA,NA,NA,NA
8617c,Deep Question,html.Page,1_1_3_0_0,NA,NA,form submission,8362.2000001907,148253.70000076,148252.3,148269.1,156631.30000019,156631.5,2024-04-13T05:47:11Z,156635.718,"c(""distractor1"", ""distractor2"", ""distractor3"")",Schatten,kivuli,d,NA,NA,NA,dfsdf,NA,NA,NA,NA,NA,NA,NA,NA,NA,NA,NA,NA,NA,NA,NA,NA,NA,NA,NA,NA,NA,NA
8617c,"""Richtig""-Screen",canvas.Screen,1_1_3_0_1,NA,NA,skipped,NA,156633.40000057,NA,NA,156631.30000019,156633.5,2024-04-13T05:47:11Z,156635.718,"c(""distractor1"", ""distractor2"", ""distractor3"")",Schatten,kivuli,d,NA,NA,NA,NA,NA,NA,NA,NA,NA,NA,NA,NA,NA,NA,NA,NA,NA,NA,NA,NA,NA,NA,NA,NA,NA,NA
8617c,"""Falsch""-Screen",canvas.Screen,1_1_3_0_2,NA,NA,timeout,4999.982,156634.20000076,156635.718,156635.718,161619,161619.60000038,2024-04-13T05:47:16Z,161635.7,"c(""distractor1"", ""distractor2"", ""distractor3"")",Schatten,kivuli,d,NA,NA,NA,NA,NA,0,NA,NA,NA,NA,NA,NA,NA,NA,NA,NA,NA,NA,NA,NA,NA,NA,NA,NA,NA,NA
8617c,deep,flow.Sequence,1_1_3_0,NA,NA,completion,13349.9,148253.70000076,148252.3,148269.1,161619,161619.90000057,2024-04-13T05:47:16Z,161635.7,"c(""distractor1"", ""distractor2"", ""distractor3"")",Schatten,kivuli,d,NA,NA,NA,NA,NA,NA,NA,NA,NA,NA,NA,NA,NA,NA,NA,NA,NA,NA,NA,NA,NA,NA,NA,NA,NA,NA
8617c,shallow,flow.Sequence,1_1_3_1,NA,NA,skipped,NA,161620,NA,NA,161619,161620.10000038,2024-04-13T05:47:16Z,161635.7,"c(""distractor1"", ""distractor2"", ""distractor3"")",Schatten,kivuli,d,NA,NA,NA,NA,NA,NA,NA,NA,NA,NA,NA,NA,NA,NA,NA,NA,NA,NA,NA,NA,NA,NA,NA,NA,NA,NA
8617c,task,flow.Sequence,1_1_3,NA,NA,completion,13349.9,148253.60000038,148252.3,148269.1,161619,161620.30000019,2024-04-13T05:47:16Z,161635.7,"c(""distractor1"", ""distractor2"", ""distractor3"")",Schatten,kivuli,d,NA,NA,NA,NA,NA,NA,NA,NA,NA,NA,NA,NA,NA,NA,NA,NA,NA,NA,NA,NA,NA,NA,NA,NA,NA,NA
8617c,Deep Question,html.Page,1_1_4_0_0,NA,NA,form submission,4053.4000003815,161620.30000019,161619,161635.7,165689.10000038,165689.40000057,2024-04-13T05:47:20Z,165702.1,"c(""distractor1"", ""distractor2"", ""distractor3"")",Qualität,mtindo,d,NA,NA,NA,qs,NA,NA,NA,NA,NA,NA,NA,NA,NA,NA,NA,NA,NA,NA,NA,NA,NA,NA,NA,NA,NA,NA
8617c,"""Richtig""-Screen",canvas.Screen,1_1_4_0_1,NA,NA,skipped,NA,165691.10000038,NA,NA,165689.10000038,165691.20000076,2024-04-13T05:47:20Z,165702.1,"c(""distractor1"", ""distractor2"", ""distractor3"")",Qualität,mtindo,d,NA,NA,NA,NA,NA,NA,NA,NA,NA,NA,NA,NA,NA,NA,NA,NA,NA,NA,NA,NA,NA,NA,NA,NA,NA,NA
8617c,"""Falsch""-Screen",canvas.Screen,1_1_4_0_2,NA,NA,timeout,5000.3,165691.90000057,165685.752,165702.1,170685.7,170686.30000019,2024-04-13T05:47:25Z,170702.4,"c(""distractor1"", ""distractor2"", ""distractor3"")",Qualität,mtindo,d,NA,NA,NA,NA,NA,0,NA,NA,NA,NA,NA,NA,NA,NA,NA,NA,NA,NA,NA,NA,NA,NA,NA,NA,NA,NA
8617c,deep,flow.Sequence,1_1_4_0,NA,NA,completion,9050,161620.30000019,161619,161635.7,170685.7,170686.60000038,2024-04-13T05:47:25Z,170702.4,"c(""distractor1"", ""distractor2"", ""distractor3"")",Qualität,mtindo,d,NA,NA,NA,NA,NA,NA,NA,NA,NA,NA,NA,NA,NA,NA,NA,NA,NA,NA,NA,NA,NA,NA,NA,NA,NA,NA
8617c,shallow,flow.Sequence,1_1_4_1,NA,NA,skipped,NA,170686.70000076,NA,NA,170685.7,170686.80000019,2024-04-13T05:47:25Z,170702.4,"c(""distractor1"", ""distractor2"", ""distractor3"")",Qualität,mtindo,d,NA,NA,NA,NA,NA,NA,NA,NA,NA,NA,NA,NA,NA,NA,NA,NA,NA,NA,NA,NA,NA,NA,NA,NA,NA,NA
8617c,task,flow.Sequence,1_1_4,NA,NA,completion,9050,161620.30000019,161619,161635.7,170685.7,170686.90000057,2024-04-13T05:47:25Z,170702.4,"c(""distractor1"", ""distractor2"", ""distractor3"")",Qualität,mtindo,d,NA,NA,NA,NA,NA,NA,NA,NA,NA,NA,NA,NA,NA,NA,NA,NA,NA,NA,NA,NA,NA,NA,NA,NA,NA,NA
8617c,Deep Question,html.Page,1_1_5_0_0,NA,NA,form submission,5631.7000003815,170687.10000038,170685.7,170702.4,176334.10000038,176334.30000019,2024-04-13T05:47:31Z,176335.732,"c(""distractor1"", ""distractor2"", ""distractor3"")",Gesundheit,salama,d,NA,NA,NA,xcvx,NA,NA,NA,NA,NA,NA,NA,NA,NA,NA,NA,NA,NA,NA,NA,NA,NA,NA,NA,NA,NA,NA
8617c,"""Richtig""-Screen",canvas.Screen,1_1_5_0_1,NA,NA,skipped,NA,176336,NA,NA,176334.10000038,176336.10000038,2024-04-13T05:47:31Z,176335.732,"c(""distractor1"", ""distractor2"", ""distractor3"")",Gesundheit,salama,d,NA,NA,NA,NA,NA,NA,NA,NA,NA,NA,NA,NA,NA,NA,NA,NA,NA,NA,NA,NA,NA,NA,NA,NA,NA,NA
8617c,"""Falsch""-Screen",canvas.Screen,1_1_5_0_2,NA,NA,timeout,4999.768,176336.60000038,176335.732,176335.732,181319,181319.70000076,2024-04-13T05:47:36Z,181335.5,"c(""distractor1"", ""distractor2"", ""distractor3"")",Gesundheit,salama,d,NA,NA,NA,NA,NA,0,NA,NA,NA,NA,NA,NA,NA,NA,NA,NA,NA,NA,NA,NA,NA,NA,NA,NA,NA,NA
8617c,deep,flow.Sequence,1_1_5_0,NA,NA,completion,10616.6,170687,170685.7,170702.4,181319,181319.90000057,2024-04-13T05:47:36Z,181335.5,"c(""distractor1"", ""distractor2"", ""distractor3"")",Gesundheit,salama,d,NA,NA,NA,NA,NA,NA,NA,NA,NA,NA,NA,NA,NA,NA,NA,NA,NA,NA,NA,NA,NA,NA,NA,NA,NA,NA
8617c,shallow,flow.Sequence,1_1_5_1,NA,NA,skipped,NA,181320.10000038,NA,NA,181319,181320.20000076,2024-04-13T05:47:36Z,181335.5,"c(""distractor1"", ""distractor2"", ""distractor3"")",Gesundheit,salama,d,NA,NA,NA,NA,NA,NA,NA,NA,NA,NA,NA,NA,NA,NA,NA,NA,NA,NA,NA,NA,NA,NA,NA,NA,NA,NA
8617c,task,flow.Sequence,1_1_5,NA,NA,completion,10616.6,170686.90000057,170685.7,170702.4,181319,181320.30000019,2024-04-13T05:47:36Z,181335.5,"c(""distractor1"", ""distractor2"", ""distractor3"")",Gesundheit,salama,d,NA,NA,NA,NA,NA,NA,NA,NA,NA,NA,NA,NA,NA,NA,NA,NA,NA,NA,NA,NA,NA,NA,NA,NA,NA,NA
8617c,block,flow.Loop,1_1,NA,NA,completion,69433.3,111865.70000076,111868.742,111885.7,181319,181320.5,2024-04-13T05:47:36Z,181335.5,"c(""distractor1"", ""distractor2"", ""distractor3"")",NA,NA,NA,NA,NA,NA,NA,NA,NA,NA,NA,NA,NA,NA,NA,NA,NA,NA,NA,NA,NA,NA,NA,NA,NA,NA,NA,NA,NA
8617c,Practice,flow.Sequence,1,NA,NA,completion,78399.9,102916.10000038,102902.096,102919.1,181319,181320.70000076,2024-04-13T05:47:36Z,181335.5,NULL,NA,NA,NA,NA,NA,NA,NA,NA,NA,NA,NA,NA,NA,NA,NA,NA,NA,NA,NA,NA,NA,NA,NA,NA,NA,NA,NA,NA,NA
8617c,Experiment start,canvas.Screen,2,weiter,keypress(q),response,35395.600000381,181320.80000019,181319,181335.5,216731.10000038,216732.10000038,2024-04-13T05:48:11Z,216802.2,NULL,NA,NA,NA,NA,NA,NA,NA,NA,NA,NA,NA,NA,NA,NA,NA,NA,NA,NA,NA,NA,NA,NA,NA,NA,NA,NA,NA,NA,NA
8617c,deep,flow.Sequence,3_0_0_0_0_0,NA,NA,skipped,NA,216815.20000076,NA,NA,216731.10000038,216815.20000076,2024-04-13T05:48:11Z,216802.2,NULL,Aufstand,ugomaji,s,mazidio,msingi,kujieleza,NA,sdf,NA,0,NA,NA,NA,NA,NA,NA,NA,NA,NA,NA,NA,NA,NA,NA,NA,NA,NA,NA,NA
8617c,Shallow Question,html.Page,3_0_0_0_0_1_0,NA,NA,form submission,8263.0000007629,216815.30000019,216800.748,216802.2,225065.20000076,225065.5,2024-04-13T05:48:19Z,225068.992,NULL,Aufstand,ugomaji,s,mazidio,msingi,kujieleza,msingi,NA,NA,0,NA,NA,NA,NA,NA,NA,NA,NA,NA,NA,NA,NA,NA,NA,NA,NA,NA,NA,NA
8617c,"""Richtig""-Screen",canvas.Screen,3_0_0_0_0_1_1,NA,NA,skipped,NA,225067.10000038,NA,NA,225065.20000076,225067.20000076,2024-04-13T05:48:19Z,225068.992,NULL,Aufstand,ugomaji,s,mazidio,msingi,kujieleza,NA,sdf,NA,0,NA,NA,NA,NA,NA,NA,NA,NA,NA,NA,NA,NA,NA,NA,NA,NA,NA,NA,NA
8617c,"""Falsch""-Screen",canvas.Screen,3_0_0_0_0_1_2,NA,NA,timeout,5000.008,225067.70000076,225068.992,225068.992,230052.2,230052.90000057,2024-04-13T05:48:24Z,230069,NULL,Aufstand,ugomaji,s,mazidio,msingi,kujieleza,NA,sdf,0,0,NA,NA,NA,NA,NA,NA,NA,NA,NA,NA,NA,NA,NA,NA,NA,NA,NA,NA,NA
8617c,shallow,flow.Sequence,3_0_0_0_0_1,NA,NA,completion,13250,216815.30000019,216800.748,216802.2,230052.2,230053.20000076,2024-04-13T05:48:24Z,230069,NULL,Aufstand,ugomaji,s,mazidio,msingi,kujieleza,NA,sdf,NA,0,NA,NA,NA,NA,NA,NA,NA,NA,NA,NA,NA,NA,NA,NA,NA,NA,NA,NA,NA
8617c,task,flow.Sequence,3_0_0_0_0,NA,NA,completion,13250,216815.20000076,216800.748,216802.2,230052.2,230053.40000057,2024-04-13T05:48:24Z,230069,NULL,Aufstand,ugomaji,s,mazidio,msingi,kujieleza,NA,sdf,NA,0,NA,NA,NA,NA,NA,NA,NA,NA,NA,NA,NA,NA,NA,NA,NA,NA,NA,NA,NA
8617c,deep,flow.Sequence,3_0_0_0_1_0,NA,NA,skipped,NA,230053.5,NA,NA,230052.2,230053.60000038,2024-04-13T05:48:24Z,230069,NULL,Polizist,msongora,s,simanzi,mandhari,nidhamu,NA,sdf,NA,0,NA,NA,NA,NA,NA,NA,NA,NA,NA,NA,NA,NA,NA,NA,NA,NA,NA,NA,NA
8617c,Shallow Question,html.Page,3_0_0_0_1_1_0,NA,NA,form submission,6142.8000001907,230053.70000076,230052.2,230069,236211.80000019,236212,2024-04-13T05:48:31Z,236235.5,NULL,Polizist,msongora,s,simanzi,mandhari,nidhamu,mandhari,NA,NA,0,NA,NA,NA,NA,NA,NA,NA,NA,NA,NA,NA,NA,NA,NA,NA,NA,NA,NA,NA
8617c,"""Richtig""-Screen",canvas.Screen,3_0_0_0_1_1_1,NA,NA,skipped,NA,236213.60000038,NA,NA,236211.80000019,236213.70000076,2024-04-13T05:48:31Z,236235.5,NULL,Polizist,msongora,s,simanzi,mandhari,nidhamu,NA,sdf,NA,0,NA,NA,NA,NA,NA,NA,NA,NA,NA,NA,NA,NA,NA,NA,NA,NA,NA,NA,NA
8617c,"""Falsch""-Screen",canvas.Screen,3_0_0_0_1_1_2,NA,NA,timeout,5000.1,236214.20000076,236219,236235.5,241218.9,241219.70000076,2024-04-13T05:48:36Z,241235.6,NULL,Polizist,msongora,s,simanzi,mandhari,nidhamu,NA,sdf,0,0,NA,NA,NA,NA,NA,NA,NA,NA,NA,NA,NA,NA,NA,NA,NA,NA,NA,NA,NA
8617c,shallow,flow.Sequence,3_0_0_0_1_1,NA,NA,completion,11149.9,230053.70000076,230052.2,230069,241218.9,241219.90000057,2024-04-13T05:48:36Z,241235.6,NULL,Polizist,msongora,s,simanzi,mandhari,nidhamu,NA,sdf,NA,0,NA,NA,NA,NA,NA,NA,NA,NA,NA,NA,NA,NA,NA,NA,NA,NA,NA,NA,NA
8617c,task,flow.Sequence,3_0_0_0_1,NA,NA,completion,11149.9,230053.5,230052.2,230069,241218.9,241220,2024-04-13T05:48:36Z,241235.6,NULL,Polizist,msongora,s,simanzi,mandhari,nidhamu,NA,sdf,NA,0,NA,NA,NA,NA,NA,NA,NA,NA,NA,NA,NA,NA,NA,NA,NA,NA,NA,NA,NA
8617c,deep,flow.Sequence,3_0_0_0_2_0,NA,NA,skipped,NA,241220.20000076,NA,NA,241218.9,241220.30000019,2024-04-13T05:48:36Z,241235.6,NULL,Beweis,ushahidi,s,marudio,kizuizi,mtendaji,NA,sdf,NA,0,NA,NA,NA,NA,NA,NA,NA,NA,NA,NA,NA,NA,NA,NA,NA,NA,NA,NA,NA
8617c,Shallow Question,html.Page,3_0_0_0_2_1_0,NA,NA,form submission,4984.5000003815,241220.30000019,241218.9,241235.6,246220.10000038,246220.30000019,2024-04-13T05:48:41Z,246235.5,NULL,Beweis,ushahidi,s,marudio,kizuizi,mtendaji,kizuizi,NA,NA,0,NA,NA,NA,NA,NA,NA,NA,NA,NA,NA,NA,NA,NA,NA,NA,NA,NA,NA,NA
8617c,"""Richtig""-Screen",canvas.Screen,3_0_0_0_2_1_1,NA,NA,skipped,NA,246222,NA,NA,246220.10000038,246222.10000038,2024-04-13T05:48:41Z,246235.5,NULL,Beweis,ushahidi,s,marudio,kizuizi,mtendaji,NA,sdf,NA,0,NA,NA,NA,NA,NA,NA,NA,NA,NA,NA,NA,NA,NA,NA,NA,NA,NA,NA,NA
8617c,"""Falsch""-Screen",canvas.Screen,3_0_0_0_2_1_2,NA,NA,timeout,5000.1,246222.70000076,246218.97,246235.5,251219,251219.60000038,2024-04-13T05:48:46Z,251235.6,NULL,Beweis,ushahidi,s,marudio,kizuizi,mtendaji,NA,sdf,0,0,NA,NA,NA,NA,NA,NA,NA,NA,NA,NA,NA,NA,NA,NA,NA,NA,NA,NA,NA
8617c,shallow,flow.Sequence,3_0_0_0_2_1,NA,NA,completion,9983.4,241220.30000019,241218.9,241235.6,251219,251219.80000019,2024-04-13T05:48:46Z,251235.6,NULL,Beweis,ushahidi,s,marudio,kizuizi,mtendaji,NA,sdf,NA,0,NA,NA,NA,NA,NA,NA,NA,NA,NA,NA,NA,NA,NA,NA,NA,NA,NA,NA,NA
8617c,task,flow.Sequence,3_0_0_0_2,NA,NA,completion,9983.4,241220.20000076,241218.9,241235.6,251219,251220,2024-04-13T05:48:46Z,251235.6,NULL,Beweis,ushahidi,s,marudio,kizuizi,mtendaji,NA,sdf,NA,0,NA,NA,NA,NA,NA,NA,NA,NA,NA,NA,NA,NA,NA,NA,NA,NA,NA,NA,NA
8617c,Deep Question,html.Page,3_0_0_0_3_0_0,NA,NA,form submission,4924.5000003815,251220.10000038,251219,251235.6,256160.10000038,256160.30000019,2024-04-13T05:48:50Z,256169.012,NULL,Kultur,utamaduni,d,NA,NA,NA,saf,NA,NA,0,NA,NA,NA,NA,NA,NA,NA,NA,NA,NA,NA,NA,NA,NA,NA,NA,NA,NA,NA
8617c,"""Richtig""-Screen",canvas.Screen,3_0_0_0_3_0_1,NA,NA,skipped,NA,256162,NA,NA,256160.10000038,256162.20000076,2024-04-13T05:48:50Z,256169.012,NULL,Kultur,utamaduni,d,NA,NA,NA,NA,sdf,NA,0,NA,NA,NA,NA,NA,NA,NA,NA,NA,NA,NA,NA,NA,NA,NA,NA,NA,NA,NA
8617c,"""Falsch""-Screen",canvas.Screen,3_0_0_0_3_0_2,NA,NA,timeout,4999.888,256162.70000076,256169.012,256169.012,261152.3,261152.90000057,2024-04-13T05:48:55Z,261168.9,NULL,Kultur,utamaduni,d,NA,NA,NA,NA,sdf,0,0,NA,NA,NA,NA,NA,NA,NA,NA,NA,NA,NA,NA,NA,NA,NA,NA,NA,NA,NA
8617c,deep,flow.Sequence,3_0_0_0_3_0,NA,NA,completion,9916.7,251220.10000038,251219,251235.6,261152.3,261153.30000019,2024-04-13T05:48:55Z,261168.9,NULL,Kultur,utamaduni,d,NA,NA,NA,NA,sdf,NA,0,NA,NA,NA,NA,NA,NA,NA,NA,NA,NA,NA,NA,NA,NA,NA,NA,NA,NA,NA
8617c,shallow,flow.Sequence,3_0_0_0_3_1,NA,NA,skipped,NA,261153.40000057,NA,NA,261152.3,261153.40000057,2024-04-13T05:48:55Z,261168.9,NULL,Kultur,utamaduni,d,NA,NA,NA,NA,sdf,NA,0,NA,NA,NA,NA,NA,NA,NA,NA,NA,NA,NA,NA,NA,NA,NA,NA,NA,NA,NA
8617c,task,flow.Sequence,3_0_0_0_3,NA,NA,completion,9916.7,251220.10000038,251219,251235.6,261152.3,261153.5,2024-04-13T05:48:55Z,261168.9,NULL,Kultur,utamaduni,d,NA,NA,NA,NA,sdf,NA,0,NA,NA,NA,NA,NA,NA,NA,NA,NA,NA,NA,NA,NA,NA,NA,NA,NA,NA,NA
8617c,deep,flow.Sequence,3_0_0_0_4_0,NA,NA,skipped,NA,261153.60000038,NA,NA,261152.3,261153.70000076,2024-04-13T05:48:55Z,261168.9,NULL,Prüfung,mtihani,s,mkulima,mtizamo,ufumbuzi,NA,sdf,NA,0,NA,NA,NA,NA,NA,NA,NA,NA,NA,NA,NA,NA,NA,NA,NA,NA,NA,NA,NA
8617c,Shallow Question,html.Page,3_0_0_0_4_1_0,NA,NA,form submission,8266.1,261153.80000019,261152.3,261168.9,269435,269435.20000076,2024-04-13T05:49:04Z,269453.1,NULL,Prüfung,mtihani,s,mkulima,mtizamo,ufumbuzi,ufumbuzi,NA,NA,0,NA,NA,NA,NA,NA,NA,NA,NA,NA,NA,NA,NA,NA,NA,NA,NA,NA,NA,NA
8617c,"""Richtig""-Screen",canvas.Screen,3_0_0_0_4_1_1,NA,NA,skipped,NA,269436.90000057,NA,NA,269435,269437.10000038,2024-04-13T05:49:04Z,269453.1,NULL,Prüfung,mtihani,s,mkulima,mtizamo,ufumbuzi,NA,sdf,NA,0,NA,NA,NA,NA,NA,NA,NA,NA,NA,NA,NA,NA,NA,NA,NA,NA,NA,NA,NA
8617c,"""Falsch""-Screen",canvas.Screen,3_0_0_0_4_1_2,NA,NA,timeout,4999.2,269437.5,269435.656,269453.1,274435.5,274436.10000038,2024-04-13T05:49:09Z,274452.3,NULL,Prüfung,mtihani,s,mkulima,mtizamo,ufumbuzi,NA,sdf,0,0,NA,NA,NA,NA,NA,NA,NA,NA,NA,NA,NA,NA,NA,NA,NA,NA,NA,NA,NA
8617c,shallow,flow.Sequence,3_0_0_0_4_1,NA,NA,completion,13266.6,261153.80000019,261152.3,261168.9,274435.5,274436.40000057,2024-04-13T05:49:09Z,274452.3,NULL,Prüfung,mtihani,s,mkulima,mtizamo,ufumbuzi,NA,sdf,NA,0,NA,NA,NA,NA,NA,NA,NA,NA,NA,NA,NA,NA,NA,NA,NA,NA,NA,NA,NA
8617c,task,flow.Sequence,3_0_0_0_4,NA,NA,completion,13266.6,261153.60000038,261152.3,261168.9,274435.5,274436.5,2024-04-13T05:49:09Z,274452.3,NULL,Prüfung,mtihani,s,mkulima,mtizamo,ufumbuzi,NA,sdf,NA,0,NA,NA,NA,NA,NA,NA,NA,NA,NA,NA,NA,NA,NA,NA,NA,NA,NA,NA,NA
8617c,Deep Question,html.Page,3_0_0_0_5_0_0,NA,NA,form submission,4328.7,274436.70000076,274435.5,274452.3,278781,278781.30000019,2024-04-13T05:49:13Z,278785.5,NULL,Annäherung,maegesho,d,NA,NA,NA,asd,NA,NA,0,NA,NA,NA,NA,NA,NA,NA,NA,NA,NA,NA,NA,NA,NA,NA,NA,NA,NA,NA
8617c,"""Richtig""-Screen",canvas.Screen,3_0_0_0_5_0_1,NA,NA,skipped,NA,278782.90000057,NA,NA,278781,278783,2024-04-13T05:49:13Z,278785.5,NULL,Annäherung,maegesho,d,NA,NA,NA,NA,sdf,NA,0,NA,NA,NA,NA,NA,NA,NA,NA,NA,NA,NA,NA,NA,NA,NA,NA,NA,NA,NA
8617c,"""Falsch""-Screen",canvas.Screen,3_0_0_0_5_0_2,NA,NA,timeout,5000,278783.60000038,278768.996,278785.5,283768.9,283769.60000038,2024-04-13T05:49:18Z,283785.5,NULL,Annäherung,maegesho,d,NA,NA,NA,NA,sdf,0,0,NA,NA,NA,NA,NA,NA,NA,NA,NA,NA,NA,NA,NA,NA,NA,NA,NA,NA,NA
8617c,deep,flow.Sequence,3_0_0_0_5_0,NA,NA,completion,9316.6,274436.60000038,274435.5,274452.3,283768.9,283769.90000057,2024-04-13T05:49:18Z,283785.5,NULL,Annäherung,maegesho,d,NA,NA,NA,NA,sdf,NA,0,NA,NA,NA,NA,NA,NA,NA,NA,NA,NA,NA,NA,NA,NA,NA,NA,NA,NA,NA
8617c,shallow,flow.Sequence,3_0_0_0_5_1,NA,NA,skipped,NA,283769.90000057,NA,NA,283768.9,283770.10000038,2024-04-13T05:49:18Z,283785.5,NULL,Annäherung,maegesho,d,NA,NA,NA,NA,sdf,NA,0,NA,NA,NA,NA,NA,NA,NA,NA,NA,NA,NA,NA,NA,NA,NA,NA,NA,NA,NA
8617c,task,flow.Sequence,3_0_0_0_5,NA,NA,completion,9316.6,274436.60000038,274435.5,274452.3,283768.9,283770.20000076,2024-04-13T05:49:18Z,283785.5,NULL,Annäherung,maegesho,d,NA,NA,NA,NA,sdf,NA,0,NA,NA,NA,NA,NA,NA,NA,NA,NA,NA,NA,NA,NA,NA,NA,NA,NA,NA,NA
8617c,Deep Question,html.Page,3_0_0_0_6_0_0,NA,NA,form submission,2134.4000005722,283770.30000019,283768.9,283785.5,285919.90000057,285920.10000038,2024-04-13T05:49:20Z,285935.4,NULL,Verzögerung,kuchelewa,d,NA,NA,NA,sd,NA,NA,0,NA,NA,NA,NA,NA,NA,NA,NA,NA,NA,NA,NA,NA,NA,NA,NA,NA,NA,NA
8617c,"""Richtig""-Screen",canvas.Screen,3_0_0_0_6_0_1,NA,NA,skipped,NA,285921.70000076,NA,NA,285919.90000057,285921.80000019,2024-04-13T05:49:20Z,285935.4,NULL,Verzögerung,kuchelewa,d,NA,NA,NA,NA,sdf,NA,0,NA,NA,NA,NA,NA,NA,NA,NA,NA,NA,NA,NA,NA,NA,NA,NA,NA,NA,NA
8617c,"""Falsch""-Screen",canvas.Screen,3_0_0_0_6_0_2,NA,NA,timeout,5000.2,285922.30000019,285918.952,285935.4,290918.9,290919.60000038,2024-04-13T05:49:25Z,290935.6,NULL,Verzögerung,kuchelewa,d,NA,NA,NA,NA,sdf,0,0,NA,NA,NA,NA,NA,NA,NA,NA,NA,NA,NA,NA,NA,NA,NA,NA,NA,NA,NA
8617c,deep,flow.Sequence,3_0_0_0_6_0,NA,NA,completion,7133.4,283770.30000019,283768.9,283785.5,290918.9,290919.80000019,2024-04-13T05:49:25Z,290935.6,NULL,Verzögerung,kuchelewa,d,NA,NA,NA,NA,sdf,NA,0,NA,NA,NA,NA,NA,NA,NA,NA,NA,NA,NA,NA,NA,NA,NA,NA,NA,NA,NA
8617c,shallow,flow.Sequence,3_0_0_0_6_1,NA,NA,skipped,NA,290919.90000057,NA,NA,290918.9,290920,2024-04-13T05:49:25Z,290935.6,NULL,Verzögerung,kuchelewa,d,NA,NA,NA,NA,sdf,NA,0,NA,NA,NA,NA,NA,NA,NA,NA,NA,NA,NA,NA,NA,NA,NA,NA,NA,NA,NA
8617c,task,flow.Sequence,3_0_0_0_6,NA,NA,completion,7133.4,283770.20000076,283768.9,283785.5,290918.9,290920.10000038,2024-04-13T05:49:25Z,290935.6,NULL,Verzögerung,kuchelewa,d,NA,NA,NA,NA,sdf,NA,0,NA,NA,NA,NA,NA,NA,NA,NA,NA,NA,NA,NA,NA,NA,NA,NA,NA,NA,NA
8617c,Deep Question,html.Page,3_0_0_0_7_0_0,NA,NA,form submission,2238.5000003815,290920.20000076,290918.9,290935.6,293174.10000038,293174.5,2024-04-13T05:49:27Z,293185.4,NULL,Sympathie,mapendano,d,NA,NA,NA,asd,NA,NA,0,NA,NA,NA,NA,NA,NA,NA,NA,NA,NA,NA,NA,NA,NA,NA,NA,NA,NA,NA
8617c,"""Richtig""-Screen",canvas.Screen,3_0_0_0_7_0_1,NA,NA,skipped,NA,293176.30000019,NA,NA,293174.10000038,293176.40000057,2024-04-13T05:49:27Z,293185.4,NULL,Sympathie,mapendano,d,NA,NA,NA,NA,sdf,NA,0,NA,NA,NA,NA,NA,NA,NA,NA,NA,NA,NA,NA,NA,NA,NA,NA,NA,NA,NA
8617c,"""Falsch""-Screen",canvas.Screen,3_0_0_0_7_0_2,NA,NA,timeout,5000.1,293176.90000057,293168.988,293185.4,298168.9,298169.70000076,2024-04-13T05:49:32Z,298185.5,NULL,Sympathie,mapendano,d,NA,NA,NA,NA,sdf,0,0,NA,NA,NA,NA,NA,NA,NA,NA,NA,NA,NA,NA,NA,NA,NA,NA,NA,NA,NA
8617c,deep,flow.Sequence,3_0_0_0_7_0,NA,NA,completion,7233.3,290920.10000038,290918.9,290935.6,298168.9,298170,2024-04-13T05:49:32Z,298185.5,NULL,Sympathie,mapendano,d,NA,NA,NA,NA,sdf,NA,0,NA,NA,NA,NA,NA,NA,NA,NA,NA,NA,NA,NA,NA,NA,NA,NA,NA,NA,NA
8617c,shallow,flow.Sequence,3_0_0_0_7_1,NA,NA,skipped,NA,298170,NA,NA,298168.9,298170.10000038,2024-04-13T05:49:32Z,298185.5,NULL,Sympathie,mapendano,d,NA,NA,NA,NA,sdf,NA,0,NA,NA,NA,NA,NA,NA,NA,NA,NA,NA,NA,NA,NA,NA,NA,NA,NA,NA,NA
8617c,task,flow.Sequence,3_0_0_0_7,NA,NA,completion,7233.3,290920.10000038,290918.9,290935.6,298168.9,298170.30000019,2024-04-13T05:49:32Z,298185.5,NULL,Sympathie,mapendano,d,NA,NA,NA,NA,sdf,NA,0,NA,NA,NA,NA,NA,NA,NA,NA,NA,NA,NA,NA,NA,NA,NA,NA,NA,NA,NA
8617c,block,flow.Loop,3_0_0_0,NA,NA,completion,81366.7,216815.10000038,216800.748,216802.2,298168.9,298170.40000057,2024-04-13T05:49:32Z,298185.5,NULL,NA,NA,NA,NA,NA,NA,NA,sdf,NA,0,NA,NA,NA,NA,NA,NA,NA,NA,NA,NA,NA,NA,NA,NA,NA,NA,NA,NA,NA
8617c,weiter,canvas.Screen,3_0_0_1,sdf,keypress(Space),response,1803.5,298170.5,298168.9,298185.5,299989,299989.70000076,2024-04-13T05:49:34Z,300018.978,NULL,NA,NA,NA,NA,NA,NA,NA,sdf,NA,0,NA,NA,NA,NA,NA,NA,NA,NA,NA,NA,NA,NA,NA,NA,NA,NA,NA,NA,NA
8617c,check continue,flow.Sequence,3_0_0,NA,NA,completion,83186.8,216815.10000038,216800.748,216802.2,299989,299990,2024-04-13T05:49:34Z,300018.978,NULL,NA,NA,NA,NA,NA,NA,NA,sdf,NA,0,NA,NA,NA,NA,NA,NA,NA,NA,NA,NA,NA,NA,NA,NA,NA,NA,NA,NA,NA
8617c,Deep Question,html.Page,3_0_1_0_0_0_0,NA,NA,form submission,12253.122000381,300030.70000076,300018.978,300018.978,312272.10000038,312272.30000019,2024-04-13T05:49:47Z,312285.5,NULL,Verzögerung,kuchelewa,d,NA,NA,NA,kucha,NA,NA,1,NA,NA,NA,NA,NA,NA,NA,NA,NA,NA,NA,NA,NA,NA,NA,NA,NA,NA,NA
8617c,"""Richtig""-Screen",canvas.Screen,3_0_1_0_0_0_1,NA,NA,skipped,NA,312274,NA,NA,312272.10000038,312274.20000076,2024-04-13T05:49:47Z,312285.5,NULL,Verzögerung,kuchelewa,d,NA,NA,NA,NA,sdfdsf,NA,1,NA,NA,NA,NA,NA,NA,NA,NA,NA,NA,NA,NA,NA,NA,NA,NA,NA,NA,NA
8617c,"""Falsch""-Screen",canvas.Screen,3_0_1_0_0_0_2,NA,NA,timeout,5000,312274.70000076,312268.962,312285.5,317268.9,317269.60000038,2024-04-13T05:49:52Z,317285.5,NULL,Verzögerung,kuchelewa,d,NA,NA,NA,NA,sdfdsf,0,1,NA,NA,NA,NA,NA,NA,NA,NA,NA,NA,NA,NA,NA,NA,NA,NA,NA,NA,NA
8617c,deep,flow.Sequence,3_0_1_0_0_0,NA,NA,completion,17249.922,300030.60000038,300018.978,300018.978,317268.9,317269.80000019,2024-04-13T05:49:52Z,317285.5,NULL,Verzögerung,kuchelewa,d,NA,NA,NA,NA,sdfdsf,NA,1,NA,NA,NA,NA,NA,NA,NA,NA,NA,NA,NA,NA,NA,NA,NA,NA,NA,NA,NA
8617c,shallow,flow.Sequence,3_0_1_0_0_1,NA,NA,skipped,NA,317269.90000057,NA,NA,317268.9,317270,2024-04-13T05:49:52Z,317285.5,NULL,Verzögerung,kuchelewa,d,NA,NA,NA,NA,sdfdsf,NA,1,NA,NA,NA,NA,NA,NA,NA,NA,NA,NA,NA,NA,NA,NA,NA,NA,NA,NA,NA
8617c,task,flow.Sequence,3_0_1_0_0,NA,NA,completion,17249.922,300030.60000038,300018.978,300018.978,317268.9,317270.20000076,2024-04-13T05:49:52Z,317285.5,NULL,Verzögerung,kuchelewa,d,NA,NA,NA,NA,sdfdsf,NA,1,NA,NA,NA,NA,NA,NA,NA,NA,NA,NA,NA,NA,NA,NA,NA,NA,NA,NA,NA
8617c,Deep Question,html.Page,3_0_1_0_1_0_0,NA,NA,form submission,2512.5,317270.30000019,317268.9,317285.5,319798,319798.30000019,2024-04-13T05:49:54Z,319802.1,NULL,Annäherung,maegesho,d,NA,NA,NA,asd,NA,NA,1,NA,NA,NA,NA,NA,NA,NA,NA,NA,NA,NA,NA,NA,NA,NA,NA,NA,NA,NA
8617c,"""Richtig""-Screen",canvas.Screen,3_0_1_0_1_0_1,NA,NA,skipped,NA,319799.90000057,NA,NA,319798,319800.10000038,2024-04-13T05:49:54Z,319802.1,NULL,Annäherung,maegesho,d,NA,NA,NA,NA,sdfdsf,NA,1,NA,NA,NA,NA,NA,NA,NA,NA,NA,NA,NA,NA,NA,NA,NA,NA,NA,NA,NA
8617c,"""Falsch""-Screen",canvas.Screen,3_0_1_0_1_0_2,NA,NA,timeout,5000.1,319800.5,319785.622,319802.1,324785.5,324786.10000038,2024-04-13T05:49:59Z,324802.2,NULL,Annäherung,maegesho,d,NA,NA,NA,NA,sdfdsf,0,1,NA,NA,NA,NA,NA,NA,NA,NA,NA,NA,NA,NA,NA,NA,NA,NA,NA,NA,NA
8617c,deep,flow.Sequence,3_0_1_0_1_0,NA,NA,completion,7500,317270.30000019,317268.9,317285.5,324785.5,324786.30000019,2024-04-13T05:49:59Z,324802.2,NULL,Annäherung,maegesho,d,NA,NA,NA,NA,sdfdsf,NA,1,NA,NA,NA,NA,NA,NA,NA,NA,NA,NA,NA,NA,NA,NA,NA,NA,NA,NA,NA
8617c,shallow,flow.Sequence,3_0_1_0_1_1,NA,NA,skipped,NA,324786.40000057,NA,NA,324785.5,324786.60000038,2024-04-13T05:49:59Z,324802.2,NULL,Annäherung,maegesho,d,NA,NA,NA,NA,sdfdsf,NA,1,NA,NA,NA,NA,NA,NA,NA,NA,NA,NA,NA,NA,NA,NA,NA,NA,NA,NA,NA
8617c,task,flow.Sequence,3_0_1_0_1,NA,NA,completion,7500,317270.20000076,317268.9,317285.5,324785.5,324786.70000076,2024-04-13T05:49:59Z,324802.2,NULL,Annäherung,maegesho,d,NA,NA,NA,NA,sdfdsf,NA,1,NA,NA,NA,NA,NA,NA,NA,NA,NA,NA,NA,NA,NA,NA,NA,NA,NA,NA,NA
8617c,deep,flow.Sequence,3_0_1_0_2_0,NA,NA,skipped,NA,324786.80000019,NA,NA,324785.5,324786.90000057,2024-04-13T05:49:59Z,324802.2,NULL,Aufstand,ugomaji,s,mazidio,msingi,kujieleza,NA,sdfdsf,NA,1,NA,NA,NA,NA,NA,NA,NA,NA,NA,NA,NA,NA,NA,NA,NA,NA,NA,NA,NA
8617c,Shallow Question,html.Page,3_0_1_0_2_1_0,NA,NA,form submission,5804.4000003815,324787,324785.5,324802.2,330606.60000038,330606.80000019,2024-04-13T05:50:05Z,330618.9,NULL,Aufstand,ugomaji,s,mazidio,msingi,kujieleza,ugomaji,NA,NA,1,NA,NA,NA,NA,NA,NA,NA,NA,NA,NA,NA,NA,NA,NA,NA,NA,NA,NA,NA
8617c,"""Richtig""-Screen",canvas.Screen,3_0_1_0_2_1_1,NA,NA,timeout,4999.8,330608.5,330602.33,330618.9,335602.2,335602.90000057,2024-04-13T05:50:10Z,335618.7,NULL,Aufstand,ugomaji,s,mazidio,msingi,kujieleza,NA,sdfdsf,1,1,NA,NA,NA,NA,NA,NA,NA,NA,NA,NA,NA,NA,NA,NA,NA,NA,NA,NA,NA
8617c,"""Falsch""-Screen",canvas.Screen,3_0_1_0_2_1_2,NA,NA,skipped,NA,335606.80000019,NA,NA,335602.2,335607,2024-04-13T05:50:10Z,335618.7,NULL,Aufstand,ugomaji,s,mazidio,msingi,kujieleza,NA,sdfdsf,NA,1,NA,NA,NA,NA,NA,NA,NA,NA,NA,NA,NA,NA,NA,NA,NA,NA,NA,NA,NA
8617c,shallow,flow.Sequence,3_0_1_0_2_1,NA,NA,completion,10800,324787,324785.5,324802.2,335602.2,335607.20000076,2024-04-13T05:50:10Z,335618.7,NULL,Aufstand,ugomaji,s,mazidio,msingi,kujieleza,NA,sdfdsf,NA,1,NA,NA,NA,NA,NA,NA,NA,NA,NA,NA,NA,NA,NA,NA,NA,NA,NA,NA,NA
8617c,task,flow.Sequence,3_0_1_0_2,NA,NA,completion,10800,324786.70000076,324785.5,324802.2,335602.2,335607.30000019,2024-04-13T05:50:10Z,335618.7,NULL,Aufstand,ugomaji,s,mazidio,msingi,kujieleza,NA,sdfdsf,NA,1,NA,NA,NA,NA,NA,NA,NA,NA,NA,NA,NA,NA,NA,NA,NA,NA,NA,NA,NA
8617c,deep,flow.Sequence,3_0_1_0_3_0,NA,NA,skipped,NA,335607.40000057,NA,NA,335602.2,335607.5,2024-04-13T05:50:10Z,335618.7,NULL,Beweis,ushahidi,s,marudio,kizuizi,mtendaji,NA,sdfdsf,NA,1,NA,NA,NA,NA,NA,NA,NA,NA,NA,NA,NA,NA,NA,NA,NA,NA,NA,NA,NA
8617c,Shallow Question,html.Page,3_0_1_0_3_1_0,NA,NA,form submission,7086.9000003815,335607.60000038,335602.2,335618.7,342705.60000038,342705.90000057,2024-04-13T05:50:17Z,342718.6,NULL,Beweis,ushahidi,s,marudio,kizuizi,mtendaji,ushahidi,NA,NA,1,NA,NA,NA,NA,NA,NA,NA,NA,NA,NA,NA,NA,NA,NA,NA,NA,NA,NA,NA
8617c,"""Richtig""-Screen",canvas.Screen,3_0_1_0_3_1_1,NA,NA,timeout,5000.3,342707.40000057,342702.29,342718.6,347702.3,347702.90000057,2024-04-13T05:50:22Z,347718.9,NULL,Beweis,ushahidi,s,marudio,kizuizi,mtendaji,NA,sdfdsf,1,1,NA,NA,NA,NA,NA,NA,NA,NA,NA,NA,NA,NA,NA,NA,NA,NA,NA,NA,NA
8617c,"""Falsch""-Screen",canvas.Screen,3_0_1_0_3_1_2,NA,NA,skipped,NA,347707,NA,NA,347702.3,347707.30000019,2024-04-13T05:50:22Z,347718.9,NULL,Beweis,ushahidi,s,marudio,kizuizi,mtendaji,NA,sdfdsf,NA,1,NA,NA,NA,NA,NA,NA,NA,NA,NA,NA,NA,NA,NA,NA,NA,NA,NA,NA,NA
8617c,shallow,flow.Sequence,3_0_1_0_3_1,NA,NA,completion,12083.6,335607.60000038,335602.2,335618.7,347702.3,347707.40000057,2024-04-13T05:50:22Z,347718.9,NULL,Beweis,ushahidi,s,marudio,kizuizi,mtendaji,NA,sdfdsf,NA,1,NA,NA,NA,NA,NA,NA,NA,NA,NA,NA,NA,NA,NA,NA,NA,NA,NA,NA,NA
8617c,task,flow.Sequence,3_0_1_0_3,NA,NA,completion,12083.6,335607.40000057,335602.2,335618.7,347702.3,347707.60000038,2024-04-13T05:50:22Z,347718.9,NULL,Beweis,ushahidi,s,marudio,kizuizi,mtendaji,NA,sdfdsf,NA,1,NA,NA,NA,NA,NA,NA,NA,NA,NA,NA,NA,NA,NA,NA,NA,NA,NA,NA,NA
8617c,Deep Question,html.Page,3_0_1_0_4_0_0,NA,NA,form submission,4513.0000005722,347707.80000019,347702.3,347718.9,352231.90000057,352232.10000038,2024-04-13T05:50:27Z,352235.596,NULL,Kultur,utamaduni,d,NA,NA,NA,ss,NA,NA,1,NA,NA,NA,NA,NA,NA,NA,NA,NA,NA,NA,NA,NA,NA,NA,NA,NA,NA,NA
8617c,"""Richtig""-Screen",canvas.Screen,3_0_1_0_4_0_1,NA,NA,skipped,NA,352233.70000076,NA,NA,352231.90000057,352233.70000076,2024-04-13T05:50:27Z,352235.596,NULL,Kultur,utamaduni,d,NA,NA,NA,NA,sdfdsf,NA,1,NA,NA,NA,NA,NA,NA,NA,NA,NA,NA,NA,NA,NA,NA,NA,NA,NA,NA,NA
8617c,"""Falsch""-Screen",canvas.Screen,3_0_1_0_4_0_2,NA,NA,timeout,4999.904,352234.40000057,352235.596,352235.596,357218.9,357219.5,2024-04-13T05:50:32Z,357235.5,NULL,Kultur,utamaduni,d,NA,NA,NA,NA,sdfdsf,0,1,NA,NA,NA,NA,NA,NA,NA,NA,NA,NA,NA,NA,NA,NA,NA,NA,NA,NA,NA
8617c,deep,flow.Sequence,3_0_1_0_4_0,NA,NA,completion,9500,347707.70000076,347702.3,347718.9,357218.9,357219.90000057,2024-04-13T05:50:32Z,357235.5,NULL,Kultur,utamaduni,d,NA,NA,NA,NA,sdfdsf,NA,1,NA,NA,NA,NA,NA,NA,NA,NA,NA,NA,NA,NA,NA,NA,NA,NA,NA,NA,NA
8617c,shallow,flow.Sequence,3_0_1_0_4_1,NA,NA,skipped,NA,357220,NA,NA,357218.9,357220.20000076,2024-04-13T05:50:32Z,357235.5,NULL,Kultur,utamaduni,d,NA,NA,NA,NA,sdfdsf,NA,1,NA,NA,NA,NA,NA,NA,NA,NA,NA,NA,NA,NA,NA,NA,NA,NA,NA,NA,NA
8617c,task,flow.Sequence,3_0_1_0_4,NA,NA,completion,9500,347707.70000076,347702.3,347718.9,357218.9,357220.30000019,2024-04-13T05:50:32Z,357235.5,NULL,Kultur,utamaduni,d,NA,NA,NA,NA,sdfdsf,NA,1,NA,NA,NA,NA,NA,NA,NA,NA,NA,NA,NA,NA,NA,NA,NA,NA,NA,NA,NA
8617c,Deep Question,html.Page,3_0_1_0_5_0_0,NA,NA,form submission,2774.2000007629,357220.40000057,357218.9,357235.5,360009.70000076,360009.90000057,2024-04-13T05:50:34Z,360018.8,NULL,Sympathie,mapendano,d,NA,NA,NA,s,NA,NA,1,NA,NA,NA,NA,NA,NA,NA,NA,NA,NA,NA,NA,NA,NA,NA,NA,NA,NA,NA
8617c,"""Richtig""-Screen",canvas.Screen,3_0_1_0_5_0_1,NA,NA,skipped,NA,360011.5,NA,NA,360009.70000076,360011.70000076,2024-04-13T05:50:34Z,360018.8,NULL,Sympathie,mapendano,d,NA,NA,NA,NA,sdfdsf,NA,1,NA,NA,NA,NA,NA,NA,NA,NA,NA,NA,NA,NA,NA,NA,NA,NA,NA,NA,NA
8617c,"""Falsch""-Screen",canvas.Screen,3_0_1_0_5_0_2,NA,NA,timeout,5000.1,360012.20000076,360002.282,360018.8,365002.2,365002.70000076,2024-04-13T05:50:39Z,365018.9,NULL,Sympathie,mapendano,d,NA,NA,NA,NA,sdfdsf,0,1,NA,NA,NA,NA,NA,NA,NA,NA,NA,NA,NA,NA,NA,NA,NA,NA,NA,NA,NA
8617c,deep,flow.Sequence,3_0_1_0_5_0,NA,NA,completion,7766.7,357220.40000057,357218.9,357235.5,365002.2,365003,2024-04-13T05:50:39Z,365018.9,NULL,Sympathie,mapendano,d,NA,NA,NA,NA,sdfdsf,NA,1,NA,NA,NA,NA,NA,NA,NA,NA,NA,NA,NA,NA,NA,NA,NA,NA,NA,NA,NA
8617c,shallow,flow.Sequence,3_0_1_0_5_1,NA,NA,skipped,NA,365003.20000076,NA,NA,365002.2,365003.30000019,2024-04-13T05:50:39Z,365018.9,NULL,Sympathie,mapendano,d,NA,NA,NA,NA,sdfdsf,NA,1,NA,NA,NA,NA,NA,NA,NA,NA,NA,NA,NA,NA,NA,NA,NA,NA,NA,NA,NA
8617c,task,flow.Sequence,3_0_1_0_5,NA,NA,completion,7766.7,357220.40000057,357218.9,357235.5,365002.2,365003.40000057,2024-04-13T05:50:39Z,365018.9,NULL,Sympathie,mapendano,d,NA,NA,NA,NA,sdfdsf,NA,1,NA,NA,NA,NA,NA,NA,NA,NA,NA,NA,NA,NA,NA,NA,NA,NA,NA,NA,NA
8617c,deep,flow.Sequence,3_0_1_0_6_0,NA,NA,skipped,NA,365003.60000038,NA,NA,365002.2,365003.60000038,2024-04-13T05:50:39Z,365018.9,NULL,Prüfung,mtihani,s,mkulima,mtizamo,ufumbuzi,NA,sdfdsf,NA,1,NA,NA,NA,NA,NA,NA,NA,NA,NA,NA,NA,NA,NA,NA,NA,NA,NA,NA,NA
8617c,Shallow Question,html.Page,3_0_1_0_6_1_0,NA,NA,form submission,9518.9000001907,365003.70000076,365002.2,365018.9,374537.80000019,374538.10000038,2024-04-13T05:50:49Z,374552.2,NULL,Prüfung,mtihani,s,mkulima,mtizamo,ufumbuzi,mtizamo,NA,NA,1,NA,NA,NA,NA,NA,NA,NA,NA,NA,NA,NA,NA,NA,NA,NA,NA,NA,NA,NA
8617c,"""Richtig""-Screen",canvas.Screen,3_0_1_0_6_1_1,NA,NA,skipped,NA,374539.70000076,NA,NA,374537.80000019,374539.80000019,2024-04-13T05:50:49Z,374552.2,NULL,Prüfung,mtihani,s,mkulima,mtizamo,ufumbuzi,NA,sdfdsf,NA,1,NA,NA,NA,NA,NA,NA,NA,NA,NA,NA,NA,NA,NA,NA,NA,NA,NA,NA,NA
8617c,"""Falsch""-Screen",canvas.Screen,3_0_1_0_6_1_2,NA,NA,timeout,5000,374540.30000019,374535.55,374552.2,379535.5,379536,2024-04-13T05:50:54Z,379552.2,NULL,Prüfung,mtihani,s,mkulima,mtizamo,ufumbuzi,NA,sdfdsf,0,1,NA,NA,NA,NA,NA,NA,NA,NA,NA,NA,NA,NA,NA,NA,NA,NA,NA,NA,NA
8617c,shallow,flow.Sequence,3_0_1_0_6_1,NA,NA,completion,14516.6,365003.70000076,365002.2,365018.9,379535.5,379536.30000019,2024-04-13T05:50:54Z,379552.2,NULL,Prüfung,mtihani,s,mkulima,mtizamo,ufumbuzi,NA,sdfdsf,NA,1,NA,NA,NA,NA,NA,NA,NA,NA,NA,NA,NA,NA,NA,NA,NA,NA,NA,NA,NA
8617c,task,flow.Sequence,3_0_1_0_6,NA,NA,completion,14516.6,365003.5,365002.2,365018.9,379535.5,379536.40000057,2024-04-13T05:50:54Z,379552.2,NULL,Prüfung,mtihani,s,mkulima,mtizamo,ufumbuzi,NA,sdfdsf,NA,1,NA,NA,NA,NA,NA,NA,NA,NA,NA,NA,NA,NA,NA,NA,NA,NA,NA,NA,NA
8617c,deep,flow.Sequence,3_0_1_0_7_0,NA,NA,skipped,NA,379536.5,NA,NA,379535.5,379536.60000038,2024-04-13T05:50:54Z,379552.2,NULL,Polizist,msongora,s,simanzi,mandhari,nidhamu,NA,sdfdsf,NA,1,NA,NA,NA,NA,NA,NA,NA,NA,NA,NA,NA,NA,NA,NA,NA,NA,NA,NA,NA
8617c,Shallow Question,html.Page,3_0_1_0_7_1_0,NA,NA,form submission,4936.4000003815,379536.70000076,379535.5,379552.2,384488.60000038,384488.80000019,2024-04-13T05:50:59Z,384502.2,NULL,Polizist,msongora,s,simanzi,mandhari,nidhamu,msongora,NA,NA,1,NA,NA,NA,NA,NA,NA,NA,NA,NA,NA,NA,NA,NA,NA,NA,NA,NA,NA,NA
8617c,"""Richtig""-Screen",canvas.Screen,3_0_1_0_7_1_1,NA,NA,timeout,5000.1,384490.5,384485.596,384502.2,389485.6,389486.20000076,2024-04-13T05:51:04Z,389502.3,NULL,Polizist,msongora,s,simanzi,mandhari,nidhamu,NA,sdfdsf,1,1,NA,NA,NA,NA,NA,NA,NA,NA,NA,NA,NA,NA,NA,NA,NA,NA,NA,NA,NA
8617c,"""Falsch""-Screen",canvas.Screen,3_0_1_0_7_1_2,NA,NA,skipped,NA,389490.30000019,NA,NA,389485.6,389490.5,2024-04-13T05:51:04Z,389502.3,NULL,Polizist,msongora,s,simanzi,mandhari,nidhamu,NA,sdfdsf,NA,1,NA,NA,NA,NA,NA,NA,NA,NA,NA,NA,NA,NA,NA,NA,NA,NA,NA,NA,NA
8617c,shallow,flow.Sequence,3_0_1_0_7_1,NA,NA,completion,9933.4,379536.70000076,379535.5,379552.2,389485.6,389490.70000076,2024-04-13T05:51:04Z,389502.3,NULL,Polizist,msongora,s,simanzi,mandhari,nidhamu,NA,sdfdsf,NA,1,NA,NA,NA,NA,NA,NA,NA,NA,NA,NA,NA,NA,NA,NA,NA,NA,NA,NA,NA
8617c,task,flow.Sequence,3_0_1_0_7,NA,NA,completion,9933.4,379536.5,379535.5,379552.2,389485.6,389490.80000019,2024-04-13T05:51:04Z,389502.3,NULL,Polizist,msongora,s,simanzi,mandhari,nidhamu,NA,sdfdsf,NA,1,NA,NA,NA,NA,NA,NA,NA,NA,NA,NA,NA,NA,NA,NA,NA,NA,NA,NA,NA
8617c,block,flow.Loop,3_0_1_0,NA,NA,completion,89466.622,300030.60000038,300018.978,300018.978,389485.6,389491,2024-04-13T05:51:04Z,389502.3,NULL,NA,NA,NA,NA,NA,NA,NA,sdfdsf,NA,1,NA,NA,NA,NA,NA,NA,NA,NA,NA,NA,NA,NA,NA,NA,NA,NA,NA,NA,NA
8617c,weiter,canvas.Screen,3_0_1_1,sdf,keypress(Space),response,1884.400000763,389491,389485.6,389502.3,391386.70000076,391387.5,2024-04-13T05:51:06Z,391435.556,NULL,NA,NA,NA,NA,NA,NA,NA,sdfdsf,NA,1,NA,NA,NA,NA,NA,NA,NA,NA,NA,NA,NA,NA,NA,NA,NA,NA,NA,NA,NA
8617c,check continue,flow.Sequence,3_0_1,NA,NA,completion,91367.722000763,300030.60000038,300018.978,300018.978,391386.70000076,391387.80000019,2024-04-13T05:51:06Z,391435.556,NULL,NA,NA,NA,NA,NA,NA,NA,sdfdsf,NA,1,NA,NA,NA,NA,NA,NA,NA,NA,NA,NA,NA,NA,NA,NA,NA,NA,NA,NA,NA
8617c,Deep Question,html.Page,3_0_2_0_0_0_0,NA,NA,form submission,6232.3440005722,391435.20000076,391435.556,391435.556,397667.90000057,397668.10000038,2024-04-13T05:51:12Z,397668.894,NULL,Kultur,utamaduni,d,NA,NA,NA,utamaduni,NA,NA,2,NA,NA,NA,NA,NA,NA,NA,NA,NA,NA,NA,NA,NA,NA,NA,NA,NA,NA,NA
8617c,"""Richtig""-Screen",canvas.Screen,3_0_2_0_0_0_1,NA,NA,timeout,4999.906,397670.10000038,397668.894,397668.894,402652.2,402652.90000057,2024-04-13T05:51:17Z,402668.8,NULL,Kultur,utamaduni,d,NA,NA,NA,NA,sdf,1,2,NA,NA,NA,NA,NA,NA,NA,NA,NA,NA,NA,NA,NA,NA,NA,NA,NA,NA,NA
8617c,"""Falsch""-Screen",canvas.Screen,3_0_2_0_0_0_2,NA,NA,skipped,NA,402657,NA,NA,402652.2,402657.30000019,2024-04-13T05:51:17Z,402668.8,NULL,Kultur,utamaduni,d,NA,NA,NA,NA,sdf,NA,2,NA,NA,NA,NA,NA,NA,NA,NA,NA,NA,NA,NA,NA,NA,NA,NA,NA,NA,NA
8617c,deep,flow.Sequence,3_0_2_0_0_0,NA,NA,completion,11216.644,391435.10000038,391435.556,391435.556,402652.2,402657.40000057,2024-04-13T05:51:17Z,402668.8,NULL,Kultur,utamaduni,d,NA,NA,NA,NA,sdf,NA,2,NA,NA,NA,NA,NA,NA,NA,NA,NA,NA,NA,NA,NA,NA,NA,NA,NA,NA,NA
8617c,shallow,flow.Sequence,3_0_2_0_0_1,NA,NA,skipped,NA,402657.5,NA,NA,402652.2,402657.60000038,2024-04-13T05:51:17Z,402668.8,NULL,Kultur,utamaduni,d,NA,NA,NA,NA,sdf,NA,2,NA,NA,NA,NA,NA,NA,NA,NA,NA,NA,NA,NA,NA,NA,NA,NA,NA,NA,NA
8617c,task,flow.Sequence,3_0_2_0_0,NA,NA,completion,11216.644,391435.10000038,391435.556,391435.556,402652.2,402657.70000076,2024-04-13T05:51:17Z,402668.8,NULL,Kultur,utamaduni,d,NA,NA,NA,NA,sdf,NA,2,NA,NA,NA,NA,NA,NA,NA,NA,NA,NA,NA,NA,NA,NA,NA,NA,NA,NA,NA
8617c,deep,flow.Sequence,3_0_2_0_1_0,NA,NA,skipped,NA,402657.80000019,NA,NA,402652.2,402657.90000057,2024-04-13T05:51:17Z,402668.8,NULL,Aufstand,ugomaji,s,mazidio,msingi,kujieleza,NA,sdf,NA,2,NA,NA,NA,NA,NA,NA,NA,NA,NA,NA,NA,NA,NA,NA,NA,NA,NA,NA,NA
8617c,Shallow Question,html.Page,3_0_2_0_1_1_0,NA,NA,form submission,9853.8000003815,402657.90000057,402652.2,402668.8,412522.60000038,412522.80000019,2024-04-13T05:51:27Z,412535.5,NULL,Aufstand,ugomaji,s,mazidio,msingi,kujieleza,ugomaji,NA,NA,2,NA,NA,NA,NA,NA,NA,NA,NA,NA,NA,NA,NA,NA,NA,NA,NA,NA,NA,NA
8617c,"""Richtig""-Screen",canvas.Screen,3_0_2_0_1_1_1,NA,NA,timeout,5000,412524.5,412519.4,412535.5,417518.8,417519.40000057,2024-04-13T05:51:32Z,417535.5,NULL,Aufstand,ugomaji,s,mazidio,msingi,kujieleza,NA,sdf,1,2,NA,NA,NA,NA,NA,NA,NA,NA,NA,NA,NA,NA,NA,NA,NA,NA,NA,NA,NA
8617c,"""Falsch""-Screen",canvas.Screen,3_0_2_0_1_1_2,NA,NA,skipped,NA,417523.40000057,NA,NA,417518.8,417523.60000038,2024-04-13T05:51:32Z,417535.5,NULL,Aufstand,ugomaji,s,mazidio,msingi,kujieleza,NA,sdf,NA,2,NA,NA,NA,NA,NA,NA,NA,NA,NA,NA,NA,NA,NA,NA,NA,NA,NA,NA,NA
8617c,shallow,flow.Sequence,3_0_2_0_1_1,NA,NA,completion,14850,402657.90000057,402652.2,402668.8,417518.8,417523.80000019,2024-04-13T05:51:32Z,417535.5,NULL,Aufstand,ugomaji,s,mazidio,msingi,kujieleza,NA,sdf,NA,2,NA,NA,NA,NA,NA,NA,NA,NA,NA,NA,NA,NA,NA,NA,NA,NA,NA,NA,NA
8617c,task,flow.Sequence,3_0_2_0_1,NA,NA,completion,14850,402657.70000076,402652.2,402668.8,417518.8,417523.90000057,2024-04-13T05:51:32Z,417535.5,NULL,Aufstand,ugomaji,s,mazidio,msingi,kujieleza,NA,sdf,NA,2,NA,NA,NA,NA,NA,NA,NA,NA,NA,NA,NA,NA,NA,NA,NA,NA,NA,NA,NA
8617c,Deep Question,html.Page,3_0_2_0_2_0_0,NA,NA,form submission,5924.1000003815,417524,417518.8,417535.5,423459.60000038,423459.80000019,2024-04-13T05:51:38Z,423468.7,NULL,Sympathie,mapendano,d,NA,NA,NA,s,NA,NA,2,NA,NA,NA,NA,NA,NA,NA,NA,NA,NA,NA,NA,NA,NA,NA,NA,NA,NA,NA
8617c,"""Richtig""-Screen",canvas.Screen,3_0_2_0_2_0_1,NA,NA,skipped,NA,423461.30000019,NA,NA,423459.60000038,423461.5,2024-04-13T05:51:38Z,423468.7,NULL,Sympathie,mapendano,d,NA,NA,NA,NA,sdf,NA,2,NA,NA,NA,NA,NA,NA,NA,NA,NA,NA,NA,NA,NA,NA,NA,NA,NA,NA,NA
8617c,"""Falsch""-Screen",canvas.Screen,3_0_2_0_2_0_2,NA,NA,timeout,5000.2,423462,423452.294,423468.7,428452.2,428452.70000076,2024-04-13T05:51:43Z,428468.9,NULL,Sympathie,mapendano,d,NA,NA,NA,NA,sdf,0,2,NA,NA,NA,NA,NA,NA,NA,NA,NA,NA,NA,NA,NA,NA,NA,NA,NA,NA,NA
8617c,deep,flow.Sequence,3_0_2_0_2_0,NA,NA,completion,10916.7,417524,417518.8,417535.5,428452.2,428453,2024-04-13T05:51:43Z,428468.9,NULL,Sympathie,mapendano,d,NA,NA,NA,NA,sdf,NA,2,NA,NA,NA,NA,NA,NA,NA,NA,NA,NA,NA,NA,NA,NA,NA,NA,NA,NA,NA
8617c,shallow,flow.Sequence,3_0_2_0_2_1,NA,NA,skipped,NA,428453.10000038,NA,NA,428452.2,428453.20000076,2024-04-13T05:51:43Z,428468.9,NULL,Sympathie,mapendano,d,NA,NA,NA,NA,sdf,NA,2,NA,NA,NA,NA,NA,NA,NA,NA,NA,NA,NA,NA,NA,NA,NA,NA,NA,NA,NA
8617c,task,flow.Sequence,3_0_2_0_2,NA,NA,completion,10916.7,417524,417518.8,417535.5,428452.2,428453.30000019,2024-04-13T05:51:43Z,428468.9,NULL,Sympathie,mapendano,d,NA,NA,NA,NA,sdf,NA,2,NA,NA,NA,NA,NA,NA,NA,NA,NA,NA,NA,NA,NA,NA,NA,NA,NA,NA,NA
8617c,Deep Question,html.Page,3_0_2_0_3_0_0,NA,NA,form submission,3152.8000007629,428453.5,428452.2,428468.9,431621.70000076,431622,2024-04-13T05:51:46Z,431635.3,NULL,Annäherung,maegesho,d,NA,NA,NA,s,NA,NA,2,NA,NA,NA,NA,NA,NA,NA,NA,NA,NA,NA,NA,NA,NA,NA,NA,NA,NA,NA
8617c,"""Richtig""-Screen",canvas.Screen,3_0_2_0_3_0_1,NA,NA,skipped,NA,431623.60000038,NA,NA,431621.70000076,431623.70000076,2024-04-13T05:51:46Z,431635.3,NULL,Annäherung,maegesho,d,NA,NA,NA,NA,sdf,NA,2,NA,NA,NA,NA,NA,NA,NA,NA,NA,NA,NA,NA,NA,NA,NA,NA,NA,NA,NA
8617c,"""Falsch""-Screen",canvas.Screen,3_0_2_0_3_0_2,NA,NA,timeout,5000.1,431624.30000019,431618.9,431635.3,436618.9,436619.40000057,2024-04-13T05:51:51Z,436635.4,NULL,Annäherung,maegesho,d,NA,NA,NA,NA,sdf,0,2,NA,NA,NA,NA,NA,NA,NA,NA,NA,NA,NA,NA,NA,NA,NA,NA,NA,NA,NA
8617c,deep,flow.Sequence,3_0_2_0_3_0,NA,NA,completion,8150,428453.40000057,428452.2,428468.9,436618.9,436619.80000019,2024-04-13T05:51:51Z,436635.4,NULL,Annäherung,maegesho,d,NA,NA,NA,NA,sdf,NA,2,NA,NA,NA,NA,NA,NA,NA,NA,NA,NA,NA,NA,NA,NA,NA,NA,NA,NA,NA
8617c,shallow,flow.Sequence,3_0_2_0_3_1,NA,NA,skipped,NA,436619.90000057,NA,NA,436618.9,436620,2024-04-13T05:51:51Z,436635.4,NULL,Annäherung,maegesho,d,NA,NA,NA,NA,sdf,NA,2,NA,NA,NA,NA,NA,NA,NA,NA,NA,NA,NA,NA,NA,NA,NA,NA,NA,NA,NA
8617c,task,flow.Sequence,3_0_2_0_3,NA,NA,completion,8150,428453.30000019,428452.2,428468.9,436618.9,436620.10000038,2024-04-13T05:51:51Z,436635.4,NULL,Annäherung,maegesho,d,NA,NA,NA,NA,sdf,NA,2,NA,NA,NA,NA,NA,NA,NA,NA,NA,NA,NA,NA,NA,NA,NA,NA,NA,NA,NA
8617c,deep,flow.Sequence,3_0_2_0_4_0,NA,NA,skipped,NA,436620.30000019,NA,NA,436618.9,436620.30000019,2024-04-13T05:51:51Z,436635.4,NULL,Prüfung,mtihani,s,mkulima,mtizamo,ufumbuzi,NA,sdf,NA,2,NA,NA,NA,NA,NA,NA,NA,NA,NA,NA,NA,NA,NA,NA,NA,NA,NA,NA,NA
8617c,Shallow Question,html.Page,3_0_2_0_4_1_0,NA,NA,form submission,7819.0000005722,436620.40000057,436618.9,436635.4,444454.40000057,444454.60000038,2024-04-13T05:51:59Z,444468.7,NULL,Prüfung,mtihani,s,mkulima,mtizamo,ufumbuzi,mtizamo,NA,NA,2,NA,NA,NA,NA,NA,NA,NA,NA,NA,NA,NA,NA,NA,NA,NA,NA,NA,NA,NA
8617c,"""Richtig""-Screen",canvas.Screen,3_0_2_0_4_1_1,NA,NA,skipped,NA,444456.40000057,NA,NA,444454.40000057,444456.5,2024-04-13T05:51:59Z,444468.7,NULL,Prüfung,mtihani,s,mkulima,mtizamo,ufumbuzi,NA,sdf,NA,2,NA,NA,NA,NA,NA,NA,NA,NA,NA,NA,NA,NA,NA,NA,NA,NA,NA,NA,NA
8617c,"""Falsch""-Screen",canvas.Screen,3_0_2_0_4_1_2,NA,NA,timeout,5000.2,444457,444452.466,444468.7,449452.1,449452.70000076,2024-04-13T05:52:04Z,449468.9,NULL,Prüfung,mtihani,s,mkulima,mtizamo,ufumbuzi,NA,sdf,0,2,NA,NA,NA,NA,NA,NA,NA,NA,NA,NA,NA,NA,NA,NA,NA,NA,NA,NA,NA
8617c,shallow,flow.Sequence,3_0_2_0_4_1,NA,NA,completion,12816.7,436620.40000057,436618.9,436635.4,449452.1,449452.90000057,2024-04-13T05:52:04Z,449468.9,NULL,Prüfung,mtihani,s,mkulima,mtizamo,ufumbuzi,NA,sdf,NA,2,NA,NA,NA,NA,NA,NA,NA,NA,NA,NA,NA,NA,NA,NA,NA,NA,NA,NA,NA
8617c,task,flow.Sequence,3_0_2_0_4,NA,NA,completion,12816.7,436620.20000076,436618.9,436635.4,449452.1,449453.10000038,2024-04-13T05:52:04Z,449468.9,NULL,Prüfung,mtihani,s,mkulima,mtizamo,ufumbuzi,NA,sdf,NA,2,NA,NA,NA,NA,NA,NA,NA,NA,NA,NA,NA,NA,NA,NA,NA,NA,NA,NA,NA
8617c,deep,flow.Sequence,3_0_2_0_5_0,NA,NA,skipped,NA,449453.20000076,NA,NA,449452.1,449453.20000076,2024-04-13T05:52:04Z,449468.9,NULL,Polizist,msongora,s,simanzi,mandhari,nidhamu,NA,sdf,NA,2,NA,NA,NA,NA,NA,NA,NA,NA,NA,NA,NA,NA,NA,NA,NA,NA,NA,NA,NA
8617c,Shallow Question,html.Page,3_0_2_0_5_1_0,NA,NA,form submission,4749.8000007629,449453.30000019,449452.1,449468.9,454218.70000076,454218.90000057,2024-04-13T05:52:09Z,454235.7,NULL,Polizist,msongora,s,simanzi,mandhari,nidhamu,msongora,NA,NA,2,NA,NA,NA,NA,NA,NA,NA,NA,NA,NA,NA,NA,NA,NA,NA,NA,NA,NA,NA
8617c,"""Richtig""-Screen",canvas.Screen,3_0_2_0_5_1_1,NA,NA,timeout,4999.7,454220.5,454218.88,454235.7,459218.8,459219.40000057,2024-04-13T05:52:14Z,459235.4,NULL,Polizist,msongora,s,simanzi,mandhari,nidhamu,NA,sdf,1,2,NA,NA,NA,NA,NA,NA,NA,NA,NA,NA,NA,NA,NA,NA,NA,NA,NA,NA,NA
8617c,"""Falsch""-Screen",canvas.Screen,3_0_2_0_5_1_2,NA,NA,skipped,NA,459223.40000057,NA,NA,459218.8,459223.60000038,2024-04-13T05:52:14Z,459235.4,NULL,Polizist,msongora,s,simanzi,mandhari,nidhamu,NA,sdf,NA,2,NA,NA,NA,NA,NA,NA,NA,NA,NA,NA,NA,NA,NA,NA,NA,NA,NA,NA,NA
8617c,shallow,flow.Sequence,3_0_2_0_5_1,NA,NA,completion,9749.9,449453.30000019,449452.1,449468.9,459218.8,459223.80000019,2024-04-13T05:52:14Z,459235.4,NULL,Polizist,msongora,s,simanzi,mandhari,nidhamu,NA,sdf,NA,2,NA,NA,NA,NA,NA,NA,NA,NA,NA,NA,NA,NA,NA,NA,NA,NA,NA,NA,NA
8617c,task,flow.Sequence,3_0_2_0_5,NA,NA,completion,9749.9,449453.20000076,449452.1,449468.9,459218.8,459223.90000057,2024-04-13T05:52:14Z,459235.4,NULL,Polizist,msongora,s,simanzi,mandhari,nidhamu,NA,sdf,NA,2,NA,NA,NA,NA,NA,NA,NA,NA,NA,NA,NA,NA,NA,NA,NA,NA,NA,NA,NA
8617c,deep,flow.Sequence,3_0_2_0_6_0,NA,NA,skipped,NA,459224,NA,NA,459218.8,459224.10000038,2024-04-13T05:52:14Z,459235.4,NULL,Beweis,ushahidi,s,marudio,kizuizi,mtendaji,NA,sdf,NA,2,NA,NA,NA,NA,NA,NA,NA,NA,NA,NA,NA,NA,NA,NA,NA,NA,NA,NA,NA
8617c,Shallow Question,html.Page,3_0_2_0_6_1_0,NA,NA,form submission,8783.2000003814,459224.20000076,459218.8,459235.4,468018.60000038,468018.70000076,2024-04-13T05:52:22Z,468036.1,NULL,Beweis,ushahidi,s,marudio,kizuizi,mtendaji,ushahidi,NA,NA,2,NA,NA,NA,NA,NA,NA,NA,NA,NA,NA,NA,NA,NA,NA,NA,NA,NA,NA,NA
8617c,"""Richtig""-Screen",canvas.Screen,3_0_2_0_6_1_1,NA,NA,timeout,4999.3,468020.40000057,468018.894,468036.1,473018.8,473019.5,2024-04-13T05:52:27Z,473035.4,NULL,Beweis,ushahidi,s,marudio,kizuizi,mtendaji,NA,sdf,1,2,NA,NA,NA,NA,NA,NA,NA,NA,NA,NA,NA,NA,NA,NA,NA,NA,NA,NA,NA
8617c,"""Falsch""-Screen",canvas.Screen,3_0_2_0_6_1_2,NA,NA,skipped,NA,473023.5,NA,NA,473018.8,473023.70000076,2024-04-13T05:52:27Z,473035.4,NULL,Beweis,ushahidi,s,marudio,kizuizi,mtendaji,NA,sdf,NA,2,NA,NA,NA,NA,NA,NA,NA,NA,NA,NA,NA,NA,NA,NA,NA,NA,NA,NA,NA
8617c,shallow,flow.Sequence,3_0_2_0_6_1,NA,NA,completion,13783.4,459224.20000076,459218.8,459235.4,473018.8,473023.90000057,2024-04-13T05:52:27Z,473035.4,NULL,Beweis,ushahidi,s,marudio,kizuizi,mtendaji,NA,sdf,NA,2,NA,NA,NA,NA,NA,NA,NA,NA,NA,NA,NA,NA,NA,NA,NA,NA,NA,NA,NA
8617c,task,flow.Sequence,3_0_2_0_6,NA,NA,completion,13783.4,459224,459218.8,459235.4,473018.8,473024,2024-04-13T05:52:27Z,473035.4,NULL,Beweis,ushahidi,s,marudio,kizuizi,mtendaji,NA,sdf,NA,2,NA,NA,NA,NA,NA,NA,NA,NA,NA,NA,NA,NA,NA,NA,NA,NA,NA,NA,NA
8617c,Deep Question,html.Page,3_0_2_0_7_0_0,NA,NA,form submission,15347.6,473024.10000038,473018.8,473035.4,488383,488383.10000038,2024-04-13T05:52:43Z,488385.358,NULL,Verzögerung,kuchelewa,d,NA,NA,NA,kuchamapelo,NA,NA,2,NA,NA,NA,NA,NA,NA,NA,NA,NA,NA,NA,NA,NA,NA,NA,NA,NA,NA,NA
8617c,"""Richtig""-Screen",canvas.Screen,3_0_2_0_7_0_1,NA,NA,skipped,NA,488384.60000038,NA,NA,488383,488384.60000038,2024-04-13T05:52:43Z,488385.358,NULL,Verzögerung,kuchelewa,d,NA,NA,NA,NA,sdf,NA,2,NA,NA,NA,NA,NA,NA,NA,NA,NA,NA,NA,NA,NA,NA,NA,NA,NA,NA,NA
8617c,"""Falsch""-Screen",canvas.Screen,3_0_2_0_7_0_2,NA,NA,timeout,5000.042,488385.10000038,488385.358,488385.358,493368.8,493369.5,2024-04-13T05:52:48Z,493385.4,NULL,Verzögerung,kuchelewa,d,NA,NA,NA,NA,sdf,0,2,NA,NA,NA,NA,NA,NA,NA,NA,NA,NA,NA,NA,NA,NA,NA,NA,NA,NA,NA
8617c,deep,flow.Sequence,3_0_2_0_7_0,NA,NA,completion,20333.4,473024.10000038,473018.8,473035.4,493368.8,493369.80000019,2024-04-13T05:52:48Z,493385.4,NULL,Verzögerung,kuchelewa,d,NA,NA,NA,NA,sdf,NA,2,NA,NA,NA,NA,NA,NA,NA,NA,NA,NA,NA,NA,NA,NA,NA,NA,NA,NA,NA
8617c,shallow,flow.Sequence,3_0_2_0_7_1,NA,NA,skipped,NA,493370,NA,NA,493368.8,493370.10000038,2024-04-13T05:52:48Z,493385.4,NULL,Verzögerung,kuchelewa,d,NA,NA,NA,NA,sdf,NA,2,NA,NA,NA,NA,NA,NA,NA,NA,NA,NA,NA,NA,NA,NA,NA,NA,NA,NA,NA
8617c,task,flow.Sequence,3_0_2_0_7,NA,NA,completion,20333.4,473024.10000038,473018.8,473035.4,493368.8,493370.10000038,2024-04-13T05:52:48Z,493385.4,NULL,Verzögerung,kuchelewa,d,NA,NA,NA,NA,sdf,NA,2,NA,NA,NA,NA,NA,NA,NA,NA,NA,NA,NA,NA,NA,NA,NA,NA,NA,NA,NA
8617c,block,flow.Loop,3_0_2_0,NA,NA,completion,101933.244,391435.10000038,391435.556,391435.556,493368.8,493370.30000019,2024-04-13T05:52:48Z,493385.4,NULL,NA,NA,NA,NA,NA,NA,NA,sdf,NA,2,NA,NA,NA,NA,NA,NA,NA,NA,NA,NA,NA,NA,NA,NA,NA,NA,NA,NA,NA
8617c,weiter,canvas.Screen,3_0_2_1,sdf,keypress(Space),response,8078.7000003814,493370.40000057,493368.8,493385.4,501464.10000038,501465.10000038,2024-04-13T05:52:56Z,501502.26,NULL,NA,NA,NA,NA,NA,NA,NA,sdf,NA,2,NA,NA,NA,NA,NA,NA,NA,NA,NA,NA,NA,NA,NA,NA,NA,NA,NA,NA,NA
8617c,check continue,flow.Sequence,3_0_2,NA,NA,completion,110028.54400038,391435.10000038,391435.556,391435.556,501464.10000038,501465.30000019,2024-04-13T05:52:56Z,501502.26,NULL,NA,NA,NA,NA,NA,NA,NA,sdf,NA,2,NA,NA,NA,NA,NA,NA,NA,NA,NA,NA,NA,NA,NA,NA,NA,NA,NA,NA,NA
8617c,Deep Question,html.Page,3_0_3_0_0_0_0,NA,NA,form submission,8827.4400007629,501502.60000038,501502.26,501502.26,510329.70000076,510329.90000057,2024-04-13T05:53:05Z,510335.3,NULL,Kultur,utamaduni,d,NA,NA,NA,mapendano,NA,NA,3,NA,NA,NA,NA,NA,NA,NA,NA,NA,NA,NA,NA,NA,NA,NA,NA,NA,NA,NA
8617c,"""Richtig""-Screen",canvas.Screen,3_0_3_0_0_0_1,NA,NA,skipped,NA,510331.60000038,NA,NA,510329.70000076,510331.70000076,2024-04-13T05:53:05Z,510335.3,NULL,Kultur,utamaduni,d,NA,NA,NA,NA,qt,NA,3,NA,NA,NA,NA,NA,NA,NA,NA,NA,NA,NA,NA,NA,NA,NA,NA,NA,NA,NA
8617c,"""Falsch""-Screen",canvas.Screen,3_0_3_0_0_0_2,NA,NA,timeout,5000.2,510332.20000076,510318.896,510335.3,515318.8,515319.5,2024-04-13T05:53:10Z,515335.5,NULL,Kultur,utamaduni,d,NA,NA,NA,NA,qt,0,3,NA,NA,NA,NA,NA,NA,NA,NA,NA,NA,NA,NA,NA,NA,NA,NA,NA,NA,NA
8617c,deep,flow.Sequence,3_0_3_0_0_0,NA,NA,completion,13816.54,501502.60000038,501502.26,501502.26,515318.8,515319.70000076,2024-04-13T05:53:10Z,515335.5,NULL,Kultur,utamaduni,d,NA,NA,NA,NA,qt,NA,3,NA,NA,NA,NA,NA,NA,NA,NA,NA,NA,NA,NA,NA,NA,NA,NA,NA,NA,NA
8617c,shallow,flow.Sequence,3_0_3_0_0_1,NA,NA,skipped,NA,515319.80000019,NA,NA,515318.8,515319.90000057,2024-04-13T05:53:10Z,515335.5,NULL,Kultur,utamaduni,d,NA,NA,NA,NA,qt,NA,3,NA,NA,NA,NA,NA,NA,NA,NA,NA,NA,NA,NA,NA,NA,NA,NA,NA,NA,NA
8617c,task,flow.Sequence,3_0_3_0_0,NA,NA,completion,13816.54,501502.60000038,501502.26,501502.26,515318.8,515320.10000038,2024-04-13T05:53:10Z,515335.5,NULL,Kultur,utamaduni,d,NA,NA,NA,NA,qt,NA,3,NA,NA,NA,NA,NA,NA,NA,NA,NA,NA,NA,NA,NA,NA,NA,NA,NA,NA,NA
8617c,Deep Question,html.Page,3_0_3_0_1_0_0,NA,NA,form submission,11023.200000763,515320.20000076,515318.8,515335.5,526358.70000076,526359,2024-04-13T05:53:21Z,526368.6,NULL,Verzögerung,kuchelewa,d,NA,NA,NA,kuchelewo,NA,NA,3,NA,NA,NA,NA,NA,NA,NA,NA,NA,NA,NA,NA,NA,NA,NA,NA,NA,NA,NA
8617c,"""Richtig""-Screen",canvas.Screen,3_0_3_0_1_0_1,NA,NA,skipped,NA,526360.60000038,NA,NA,526358.70000076,526360.70000076,2024-04-13T05:53:21Z,526368.6,NULL,Verzögerung,kuchelewa,d,NA,NA,NA,NA,qt,NA,3,NA,NA,NA,NA,NA,NA,NA,NA,NA,NA,NA,NA,NA,NA,NA,NA,NA,NA,NA
8617c,"""Falsch""-Screen",canvas.Screen,3_0_3_0_1_0_2,NA,NA,timeout,5000.1,526361.40000057,526352.198,526368.6,531352.1,531352.70000076,2024-04-13T05:53:26Z,531368.7,NULL,Verzögerung,kuchelewa,d,NA,NA,NA,NA,qt,0,3,NA,NA,NA,NA,NA,NA,NA,NA,NA,NA,NA,NA,NA,NA,NA,NA,NA,NA,NA
8617c,deep,flow.Sequence,3_0_3_0_1_0,NA,NA,completion,16016.6,515320.10000038,515318.8,515335.5,531352.1,531353,2024-04-13T05:53:26Z,531368.7,NULL,Verzögerung,kuchelewa,d,NA,NA,NA,NA,qt,NA,3,NA,NA,NA,NA,NA,NA,NA,NA,NA,NA,NA,NA,NA,NA,NA,NA,NA,NA,NA
8617c,shallow,flow.Sequence,3_0_3_0_1_1,NA,NA,skipped,NA,531353.10000038,NA,NA,531352.1,531353.20000076,2024-04-13T05:53:26Z,531368.7,NULL,Verzögerung,kuchelewa,d,NA,NA,NA,NA,qt,NA,3,NA,NA,NA,NA,NA,NA,NA,NA,NA,NA,NA,NA,NA,NA,NA,NA,NA,NA,NA
8617c,task,flow.Sequence,3_0_3_0_1,NA,NA,completion,16016.6,515320.10000038,515318.8,515335.5,531352.1,531353.40000057,2024-04-13T05:53:26Z,531368.7,NULL,Verzögerung,kuchelewa,d,NA,NA,NA,NA,qt,NA,3,NA,NA,NA,NA,NA,NA,NA,NA,NA,NA,NA,NA,NA,NA,NA,NA,NA,NA,NA
8617c,deep,flow.Sequence,3_0_3_0_2_0,NA,NA,skipped,NA,531353.5,NA,NA,531352.1,531353.60000038,2024-04-13T05:53:26Z,531368.7,NULL,Beweis,ushahidi,s,marudio,kizuizi,mtendaji,NA,qt,NA,3,NA,NA,NA,NA,NA,NA,NA,NA,NA,NA,NA,NA,NA,NA,NA,NA,NA,NA,NA
8617c,Shallow Question,html.Page,3_0_3_0_2_1_0,NA,NA,form submission,12677.8,531353.60000038,531352.1,531368.7,544046.5,544046.70000076,2024-04-13T05:53:38Z,544052.15,NULL,Beweis,ushahidi,s,marudio,kizuizi,mtendaji,mtendaji,NA,NA,3,NA,NA,NA,NA,NA,NA,NA,NA,NA,NA,NA,NA,NA,NA,NA,NA,NA,NA,NA
8617c,"""Richtig""-Screen",canvas.Screen,3_0_3_0_2_1_1,NA,NA,skipped,NA,544048.30000019,NA,NA,544046.5,544048.40000057,2024-04-13T05:53:38Z,544052.15,NULL,Beweis,ushahidi,s,marudio,kizuizi,mtendaji,NA,qt,NA,3,NA,NA,NA,NA,NA,NA,NA,NA,NA,NA,NA,NA,NA,NA,NA,NA,NA,NA,NA
8617c,"""Falsch""-Screen",canvas.Screen,3_0_3_0_2_1_2,NA,NA,timeout,4999.95,544048.90000057,544052.15,544052.15,549035.3,549036.10000038,2024-04-13T05:53:43Z,549052.1,NULL,Beweis,ushahidi,s,marudio,kizuizi,mtendaji,NA,qt,0,3,NA,NA,NA,NA,NA,NA,NA,NA,NA,NA,NA,NA,NA,NA,NA,NA,NA,NA,NA
8617c,shallow,flow.Sequence,3_0_3_0_2_1,NA,NA,completion,17666.6,531353.60000038,531352.1,531368.7,549035.3,549036.30000019,2024-04-13T05:53:43Z,549052.1,NULL,Beweis,ushahidi,s,marudio,kizuizi,mtendaji,NA,qt,NA,3,NA,NA,NA,NA,NA,NA,NA,NA,NA,NA,NA,NA,NA,NA,NA,NA,NA,NA,NA
8617c,task,flow.Sequence,3_0_3_0_2,NA,NA,completion,17666.6,531353.40000057,531352.1,531368.7,549035.3,549036.5,2024-04-13T05:53:43Z,549052.1,NULL,Beweis,ushahidi,s,marudio,kizuizi,mtendaji,NA,qt,NA,3,NA,NA,NA,NA,NA,NA,NA,NA,NA,NA,NA,NA,NA,NA,NA,NA,NA,NA,NA
8617c,deep,flow.Sequence,3_0_3_0_3_0,NA,NA,skipped,NA,549036.70000076,NA,NA,549035.3,549036.80000019,2024-04-13T05:53:43Z,549052.1,NULL,Aufstand,ugomaji,s,mazidio,msingi,kujieleza,NA,qt,NA,3,NA,NA,NA,NA,NA,NA,NA,NA,NA,NA,NA,NA,NA,NA,NA,NA,NA,NA,NA
8617c,Shallow Question,html.Page,3_0_3_0_3_1_0,NA,NA,form submission,13885.200000191,549036.80000019,549035.3,549052.1,562937.30000019,562937.60000038,2024-04-13T05:53:57Z,562952.1,NULL,Aufstand,ugomaji,s,mazidio,msingi,kujieleza,ugomaji,NA,NA,3,NA,NA,NA,NA,NA,NA,NA,NA,NA,NA,NA,NA,NA,NA,NA,NA,NA,NA,NA
8617c,"""Richtig""-Screen",canvas.Screen,3_0_3_0_3_1_1,NA,NA,timeout,4999.9,562939.30000019,562935.512,562952.1,567935.3,567936,2024-04-13T05:54:02Z,567952,NULL,Aufstand,ugomaji,s,mazidio,msingi,kujieleza,NA,qt,1,3,NA,NA,NA,NA,NA,NA,NA,NA,NA,NA,NA,NA,NA,NA,NA,NA,NA,NA,NA
8617c,"""Falsch""-Screen",canvas.Screen,3_0_3_0_3_1_2,NA,NA,skipped,NA,567940,NA,NA,567935.3,567940.10000038,2024-04-13T05:54:02Z,567952,NULL,Aufstand,ugomaji,s,mazidio,msingi,kujieleza,NA,qt,NA,3,NA,NA,NA,NA,NA,NA,NA,NA,NA,NA,NA,NA,NA,NA,NA,NA,NA,NA,NA
8617c,shallow,flow.Sequence,3_0_3_0_3_1,NA,NA,completion,18883.2,549036.80000019,549035.3,549052.1,567935.3,567940.30000019,2024-04-13T05:54:02Z,567952,NULL,Aufstand,ugomaji,s,mazidio,msingi,kujieleza,NA,qt,NA,3,NA,NA,NA,NA,NA,NA,NA,NA,NA,NA,NA,NA,NA,NA,NA,NA,NA,NA,NA
8617c,task,flow.Sequence,3_0_3_0_3,NA,NA,completion,18883.2,549036.60000038,549035.3,549052.1,567935.3,567940.5,2024-04-13T05:54:02Z,567952,NULL,Aufstand,ugomaji,s,mazidio,msingi,kujieleza,NA,qt,NA,3,NA,NA,NA,NA,NA,NA,NA,NA,NA,NA,NA,NA,NA,NA,NA,NA,NA,NA,NA
8617c,deep,flow.Sequence,3_0_3_0_4_0,NA,NA,skipped,NA,567940.60000038,NA,NA,567935.3,567940.70000076,2024-04-13T05:54:02Z,567952,NULL,Polizist,msongora,s,simanzi,mandhari,nidhamu,NA,qt,NA,3,NA,NA,NA,NA,NA,NA,NA,NA,NA,NA,NA,NA,NA,NA,NA,NA,NA,NA,NA
8617c,Shallow Question,html.Page,3_0_3_0_4_1_0,NA,NA,form submission,3284.4000005722,567940.80000019,567935.3,567952,571236.40000057,571236.5,2024-04-13T05:54:06Z,571251.9,NULL,Polizist,msongora,s,simanzi,mandhari,nidhamu,msongora,NA,NA,3,NA,NA,NA,NA,NA,NA,NA,NA,NA,NA,NA,NA,NA,NA,NA,NA,NA,NA,NA
8617c,"""Richtig""-Screen",canvas.Screen,3_0_3_0_4_1_1,NA,NA,timeout,5000.2,571238.10000038,571235.462,571251.9,576235.5,576236.10000038,2024-04-13T05:54:11Z,576252.1,NULL,Polizist,msongora,s,simanzi,mandhari,nidhamu,NA,qt,1,3,NA,NA,NA,NA,NA,NA,NA,NA,NA,NA,NA,NA,NA,NA,NA,NA,NA,NA,NA
8617c,"""Falsch""-Screen",canvas.Screen,3_0_3_0_4_1_2,NA,NA,skipped,NA,576240.10000038,NA,NA,576235.5,576240.20000076,2024-04-13T05:54:11Z,576252.1,NULL,Polizist,msongora,s,simanzi,mandhari,nidhamu,NA,qt,NA,3,NA,NA,NA,NA,NA,NA,NA,NA,NA,NA,NA,NA,NA,NA,NA,NA,NA,NA,NA
8617c,shallow,flow.Sequence,3_0_3_0_4_1,NA,NA,completion,8283.5,567940.80000019,567935.3,567952,576235.5,576240.40000057,2024-04-13T05:54:11Z,576252.1,NULL,Polizist,msongora,s,simanzi,mandhari,nidhamu,NA,qt,NA,3,NA,NA,NA,NA,NA,NA,NA,NA,NA,NA,NA,NA,NA,NA,NA,NA,NA,NA,NA
8617c,task,flow.Sequence,3_0_3_0_4,NA,NA,completion,8283.5,567940.5,567935.3,567952,576235.5,576240.60000038,2024-04-13T05:54:11Z,576252.1,NULL,Polizist,msongora,s,simanzi,mandhari,nidhamu,NA,qt,NA,3,NA,NA,NA,NA,NA,NA,NA,NA,NA,NA,NA,NA,NA,NA,NA,NA,NA,NA,NA
8617c,Deep Question,html.Page,3_0_3_0_5_0_0,NA,NA,form submission,16947.600000763,576240.70000076,576235.5,576252.1,593199.70000076,593200,2024-04-13T05:54:28Z,593218.8,NULL,Sympathie,mapendano,d,NA,NA,NA,mapen,NA,NA,3,NA,NA,NA,NA,NA,NA,NA,NA,NA,NA,NA,NA,NA,NA,NA,NA,NA,NA,NA
8617c,"""Richtig""-Screen",canvas.Screen,3_0_3_0_5_0_1,NA,NA,skipped,NA,593201.60000038,NA,NA,593199.70000076,593201.80000019,2024-04-13T05:54:28Z,593218.8,NULL,Sympathie,mapendano,d,NA,NA,NA,NA,qt,NA,3,NA,NA,NA,NA,NA,NA,NA,NA,NA,NA,NA,NA,NA,NA,NA,NA,NA,NA,NA
8617c,"""Falsch""-Screen",canvas.Screen,3_0_3_0_5_0_2,NA,NA,timeout,5000,593202.30000019,593202.184,593218.8,598202.1,598202.70000076,2024-04-13T05:54:33Z,598218.8,NULL,Sympathie,mapendano,d,NA,NA,NA,NA,qt,0,3,NA,NA,NA,NA,NA,NA,NA,NA,NA,NA,NA,NA,NA,NA,NA,NA,NA,NA,NA
8617c,deep,flow.Sequence,3_0_3_0_5_0,NA,NA,completion,21950,576240.70000076,576235.5,576252.1,598202.1,598203,2024-04-13T05:54:33Z,598218.8,NULL,Sympathie,mapendano,d,NA,NA,NA,NA,qt,NA,3,NA,NA,NA,NA,NA,NA,NA,NA,NA,NA,NA,NA,NA,NA,NA,NA,NA,NA,NA
8617c,shallow,flow.Sequence,3_0_3_0_5_1,NA,NA,skipped,NA,598203.10000038,NA,NA,598202.1,598203.20000076,2024-04-13T05:54:33Z,598218.8,NULL,Sympathie,mapendano,d,NA,NA,NA,NA,qt,NA,3,NA,NA,NA,NA,NA,NA,NA,NA,NA,NA,NA,NA,NA,NA,NA,NA,NA,NA,NA
8617c,task,flow.Sequence,3_0_3_0_5,NA,NA,completion,21950,576240.70000076,576235.5,576252.1,598202.1,598203.30000019,2024-04-13T05:54:33Z,598218.8,NULL,Sympathie,mapendano,d,NA,NA,NA,NA,qt,NA,3,NA,NA,NA,NA,NA,NA,NA,NA,NA,NA,NA,NA,NA,NA,NA,NA,NA,NA,NA
8617c,Deep Question,html.Page,3_0_3_0_6_0_0,NA,NA,form submission,13398.900000763,598203.5,598202.1,598218.8,611617.70000076,611617.90000057,2024-04-13T05:54:46Z,611618.786,NULL,Annäherung,maegesho,d,NA,NA,NA,s,NA,NA,3,NA,NA,NA,NA,NA,NA,NA,NA,NA,NA,NA,NA,NA,NA,NA,NA,NA,NA,NA
8617c,"""Richtig""-Screen",canvas.Screen,3_0_3_0_6_0_1,NA,NA,skipped,NA,611619.70000076,NA,NA,611617.70000076,611619.70000076,2024-04-13T05:54:46Z,611618.786,NULL,Annäherung,maegesho,d,NA,NA,NA,NA,qt,NA,3,NA,NA,NA,NA,NA,NA,NA,NA,NA,NA,NA,NA,NA,NA,NA,NA,NA,NA,NA
8617c,"""Falsch""-Screen",canvas.Screen,3_0_3_0_6_0_2,NA,NA,timeout,4999.914,611620.30000019,611618.786,611618.786,616602,616602.80000019,2024-04-13T05:54:51Z,616618.7,NULL,Annäherung,maegesho,d,NA,NA,NA,NA,qt,0,3,NA,NA,NA,NA,NA,NA,NA,NA,NA,NA,NA,NA,NA,NA,NA,NA,NA,NA,NA
8617c,deep,flow.Sequence,3_0_3_0_6_0,NA,NA,completion,18383.2,598203.40000057,598202.1,598218.8,616602,616603.10000038,2024-04-13T05:54:51Z,616618.7,NULL,Annäherung,maegesho,d,NA,NA,NA,NA,qt,NA,3,NA,NA,NA,NA,NA,NA,NA,NA,NA,NA,NA,NA,NA,NA,NA,NA,NA,NA,NA
8617c,shallow,flow.Sequence,3_0_3_0_6_1,NA,NA,skipped,NA,616603.20000076,NA,NA,616602,616603.30000019,2024-04-13T05:54:51Z,616618.7,NULL,Annäherung,maegesho,d,NA,NA,NA,NA,qt,NA,3,NA,NA,NA,NA,NA,NA,NA,NA,NA,NA,NA,NA,NA,NA,NA,NA,NA,NA,NA
8617c,task,flow.Sequence,3_0_3_0_6,NA,NA,completion,18383.2,598203.40000057,598202.1,598218.8,616602,616603.40000057,2024-04-13T05:54:51Z,616618.7,NULL,Annäherung,maegesho,d,NA,NA,NA,NA,qt,NA,3,NA,NA,NA,NA,NA,NA,NA,NA,NA,NA,NA,NA,NA,NA,NA,NA,NA,NA,NA
8617c,deep,flow.Sequence,3_0_3_0_7_0,NA,NA,skipped,NA,616603.5,NA,NA,616602,616603.60000038,2024-04-13T05:54:51Z,616618.7,NULL,Prüfung,mtihani,s,mkulima,mtizamo,ufumbuzi,NA,qt,NA,3,NA,NA,NA,NA,NA,NA,NA,NA,NA,NA,NA,NA,NA,NA,NA,NA,NA,NA,NA
8617c,Shallow Question,html.Page,3_0_3_0_7_1_0,NA,NA,form submission,6389.6000001908,616603.70000076,616602,616618.7,623008.30000019,623008.5,2024-04-13T05:54:57Z,623018.7,NULL,Prüfung,mtihani,s,mkulima,mtizamo,ufumbuzi,mtihani,NA,NA,3,NA,NA,NA,NA,NA,NA,NA,NA,NA,NA,NA,NA,NA,NA,NA,NA,NA,NA,NA
8617c,"""Richtig""-Screen",canvas.Screen,3_0_3_0_7_1_1,NA,NA,timeout,5000,623010.30000019,623002.088,623018.7,628002.1,628002.70000076,2024-04-13T05:55:02Z,628018.7,NULL,Prüfung,mtihani,s,mkulima,mtizamo,ufumbuzi,NA,qt,1,3,NA,NA,NA,NA,NA,NA,NA,NA,NA,NA,NA,NA,NA,NA,NA,NA,NA,NA,NA
8617c,"""Falsch""-Screen",canvas.Screen,3_0_3_0_7_1_2,NA,NA,skipped,NA,628007.10000038,NA,NA,628002.1,628007.20000076,2024-04-13T05:55:02Z,628018.7,NULL,Prüfung,mtihani,s,mkulima,mtizamo,ufumbuzi,NA,qt,NA,3,NA,NA,NA,NA,NA,NA,NA,NA,NA,NA,NA,NA,NA,NA,NA,NA,NA,NA,NA
8617c,shallow,flow.Sequence,3_0_3_0_7_1,NA,NA,completion,11383.4,616603.60000038,616602,616618.7,628002.1,628007.5,2024-04-13T05:55:02Z,628018.7,NULL,Prüfung,mtihani,s,mkulima,mtizamo,ufumbuzi,NA,qt,NA,3,NA,NA,NA,NA,NA,NA,NA,NA,NA,NA,NA,NA,NA,NA,NA,NA,NA,NA,NA
8617c,task,flow.Sequence,3_0_3_0_7,NA,NA,completion,11383.4,616603.5,616602,616618.7,628002.1,628007.5,2024-04-13T05:55:02Z,628018.7,NULL,Prüfung,mtihani,s,mkulima,mtizamo,ufumbuzi,NA,qt,NA,3,NA,NA,NA,NA,NA,NA,NA,NA,NA,NA,NA,NA,NA,NA,NA,NA,NA,NA,NA
8617c,block,flow.Loop,3_0_3_0,NA,NA,completion,126499.84,501502.5,501502.26,501502.26,628002.1,628007.70000076,2024-04-13T05:55:02Z,628018.7,NULL,NA,NA,NA,NA,NA,NA,NA,qt,NA,3,NA,NA,NA,NA,NA,NA,NA,NA,NA,NA,NA,NA,NA,NA,NA,NA,NA,NA,NA
8617c,weiter,canvas.Screen,3_0_3_1,sdf,keypress(Space),response,1774.8,628007.80000019,628002.1,628018.7,629793.5,629794.30000019,2024-04-13T05:55:04Z,629818.776,NULL,NA,NA,NA,NA,NA,NA,NA,qt,NA,3,NA,NA,NA,NA,NA,NA,NA,NA,NA,NA,NA,NA,NA,NA,NA,NA,NA,NA,NA
8617c,check continue,flow.Sequence,3_0_3,NA,NA,completion,128291.24,501502.5,501502.26,501502.26,629793.5,629794.5,2024-04-13T05:55:04Z,629818.776,NULL,NA,NA,NA,NA,NA,NA,NA,qt,NA,3,NA,NA,NA,NA,NA,NA,NA,NA,NA,NA,NA,NA,NA,NA,NA,NA,NA,NA,NA
8617c,Deep Question,html.Page,3_0_4_0_0_0_0,NA,NA,form submission,29649.724,629830.20000076,629818.776,629818.776,659468.5,659468.80000019,2024-04-13T05:55:34Z,659486.4,NULL,Sympathie,mapendano,d,NA,NA,NA,mapendano,NA,NA,4,NA,NA,NA,NA,NA,NA,NA,NA,NA,NA,NA,NA,NA,NA,NA,NA,NA,NA,NA
8617c,"""Richtig""-Screen",canvas.Screen,3_0_4_0_0_0_1,NA,NA,timeout,4998.7999999999,659470.5,659468.76,659486.4,664468.7,664469.20000076,2024-04-13T05:55:39Z,664485.2,NULL,Sympathie,mapendano,d,NA,NA,NA,NA,sd,1,4,NA,NA,NA,NA,NA,NA,NA,NA,NA,NA,NA,NA,NA,NA,NA,NA,NA,NA,NA
8617c,"""Falsch""-Screen",canvas.Screen,3_0_4_0_0_0_2,NA,NA,skipped,NA,664473.20000076,NA,NA,664468.7,664473.40000057,2024-04-13T05:55:39Z,664485.2,NULL,Sympathie,mapendano,d,NA,NA,NA,NA,sd,NA,4,NA,NA,NA,NA,NA,NA,NA,NA,NA,NA,NA,NA,NA,NA,NA,NA,NA,NA,NA
8617c,deep,flow.Sequence,3_0_4_0_0_0,NA,NA,completion,34649.924,629830.20000076,629818.776,629818.776,664468.7,664473.60000038,2024-04-13T05:55:39Z,664485.2,NULL,Sympathie,mapendano,d,NA,NA,NA,NA,sd,NA,4,NA,NA,NA,NA,NA,NA,NA,NA,NA,NA,NA,NA,NA,NA,NA,NA,NA,NA,NA
8617c,shallow,flow.Sequence,3_0_4_0_0_1,NA,NA,skipped,NA,664473.70000076,NA,NA,664468.7,664473.80000019,2024-04-13T05:55:39Z,664485.2,NULL,Sympathie,mapendano,d,NA,NA,NA,NA,sd,NA,4,NA,NA,NA,NA,NA,NA,NA,NA,NA,NA,NA,NA,NA,NA,NA,NA,NA,NA,NA
8617c,task,flow.Sequence,3_0_4_0_0,NA,NA,completion,34649.924,629830.20000076,629818.776,629818.776,664468.7,664473.90000057,2024-04-13T05:55:39Z,664485.2,NULL,Sympathie,mapendano,d,NA,NA,NA,NA,sd,NA,4,NA,NA,NA,NA,NA,NA,NA,NA,NA,NA,NA,NA,NA,NA,NA,NA,NA,NA,NA
8617c,Deep Question,html.Page,3_0_4_0_1_0_0,NA,NA,form submission,18439.3,664474,664468.7,664485.2,682924.5,682924.70000076,2024-04-13T05:55:57Z,682935.2,NULL,Kultur,utamaduni,d,NA,NA,NA,s,NA,NA,4,NA,NA,NA,NA,NA,NA,NA,NA,NA,NA,NA,NA,NA,NA,NA,NA,NA,NA,NA
8617c,"""Richtig""-Screen",canvas.Screen,3_0_4_0_1_0_1,NA,NA,skipped,NA,682926.10000038,NA,NA,682924.5,682926.20000076,2024-04-13T05:55:57Z,682935.2,NULL,Kultur,utamaduni,d,NA,NA,NA,NA,sd,NA,4,NA,NA,NA,NA,NA,NA,NA,NA,NA,NA,NA,NA,NA,NA,NA,NA,NA,NA,NA
8617c,"""Falsch""-Screen",canvas.Screen,3_0_4_0_1_0_2,NA,NA,timeout,5000.1000000001,682926.60000038,682918.748,682935.2,687918.7,687919.40000057,2024-04-13T05:56:02Z,687935.3,NULL,Kultur,utamaduni,d,NA,NA,NA,NA,sd,0,4,NA,NA,NA,NA,NA,NA,NA,NA,NA,NA,NA,NA,NA,NA,NA,NA,NA,NA,NA
8617c,deep,flow.Sequence,3_0_4_0_1_0,NA,NA,completion,23433.5,664474,664468.7,664485.2,687918.7,687919.80000019,2024-04-13T05:56:02Z,687935.3,NULL,Kultur,utamaduni,d,NA,NA,NA,NA,sd,NA,4,NA,NA,NA,NA,NA,NA,NA,NA,NA,NA,NA,NA,NA,NA,NA,NA,NA,NA,NA
8617c,shallow,flow.Sequence,3_0_4_0_1_1,NA,NA,skipped,NA,687919.90000057,NA,NA,687918.7,687920,2024-04-13T05:56:02Z,687935.3,NULL,Kultur,utamaduni,d,NA,NA,NA,NA,sd,NA,4,NA,NA,NA,NA,NA,NA,NA,NA,NA,NA,NA,NA,NA,NA,NA,NA,NA,NA,NA
8617c,task,flow.Sequence,3_0_4_0_1,NA,NA,completion,23433.5,664473.90000057,664468.7,664485.2,687918.7,687920.10000038,2024-04-13T05:56:02Z,687935.3,NULL,Kultur,utamaduni,d,NA,NA,NA,NA,sd,NA,4,NA,NA,NA,NA,NA,NA,NA,NA,NA,NA,NA,NA,NA,NA,NA,NA,NA,NA,NA
8617c,deep,flow.Sequence,3_0_4_0_2_0,NA,NA,skipped,NA,687920.10000038,NA,NA,687918.7,687920.30000019,2024-04-13T05:56:02Z,687935.3,NULL,Aufstand,ugomaji,s,mazidio,msingi,kujieleza,NA,sd,NA,4,NA,NA,NA,NA,NA,NA,NA,NA,NA,NA,NA,NA,NA,NA,NA,NA,NA,NA,NA
8617c,Shallow Question,html.Page,3_0_4_0_2_1_0,NA,NA,form submission,12972.900000763,687920.30000019,687918.7,687935.3,700908.20000076,700908.5,2024-04-13T05:56:15Z,700918.7,NULL,Aufstand,ugomaji,s,mazidio,msingi,kujieleza,ugomaji,NA,NA,4,NA,NA,NA,NA,NA,NA,NA,NA,NA,NA,NA,NA,NA,NA,NA,NA,NA,NA,NA
8617c,"""Richtig""-Screen",canvas.Screen,3_0_4_0_2_1_1,NA,NA,timeout,4999.8,700910.20000076,700902.266,700918.7,705902,705902.60000038,2024-04-13T05:56:20Z,705918.5,NULL,Aufstand,ugomaji,s,mazidio,msingi,kujieleza,NA,sd,1,4,NA,NA,NA,NA,NA,NA,NA,NA,NA,NA,NA,NA,NA,NA,NA,NA,NA,NA,NA
8617c,"""Falsch""-Screen",canvas.Screen,3_0_4_0_2_1_2,NA,NA,skipped,NA,705906.60000038,NA,NA,705902,705906.80000019,2024-04-13T05:56:20Z,705918.5,NULL,Aufstand,ugomaji,s,mazidio,msingi,kujieleza,NA,sd,NA,4,NA,NA,NA,NA,NA,NA,NA,NA,NA,NA,NA,NA,NA,NA,NA,NA,NA,NA,NA
8617c,shallow,flow.Sequence,3_0_4_0_2_1,NA,NA,completion,17966.7,687920.30000019,687918.7,687935.3,705902,705907,2024-04-13T05:56:20Z,705918.5,NULL,Aufstand,ugomaji,s,mazidio,msingi,kujieleza,NA,sd,NA,4,NA,NA,NA,NA,NA,NA,NA,NA,NA,NA,NA,NA,NA,NA,NA,NA,NA,NA,NA
8617c,task,flow.Sequence,3_0_4_0_2,NA,NA,completion,17966.7,687920.10000038,687918.7,687935.3,705902,705907.20000076,2024-04-13T05:56:20Z,705918.5,NULL,Aufstand,ugomaji,s,mazidio,msingi,kujieleza,NA,sd,NA,4,NA,NA,NA,NA,NA,NA,NA,NA,NA,NA,NA,NA,NA,NA,NA,NA,NA,NA,NA
8617c,deep,flow.Sequence,3_0_4_0_3_0,NA,NA,skipped,NA,705907.20000076,NA,NA,705902,705907.30000019,2024-04-13T05:56:20Z,705918.5,NULL,Beweis,ushahidi,s,marudio,kizuizi,mtendaji,NA,sd,NA,4,NA,NA,NA,NA,NA,NA,NA,NA,NA,NA,NA,NA,NA,NA,NA,NA,NA,NA,NA
8617c,Shallow Question,html.Page,3_0_4_0_3_1_0,NA,NA,form submission,9317.9000005722,705907.40000057,705902,705918.5,715236.40000057,715236.60000038,2024-04-13T05:56:30Z,715252,NULL,Beweis,ushahidi,s,marudio,kizuizi,mtendaji,mtendaji,NA,NA,4,NA,NA,NA,NA,NA,NA,NA,NA,NA,NA,NA,NA,NA,NA,NA,NA,NA,NA,NA
8617c,"""Richtig""-Screen",canvas.Screen,3_0_4_0_3_1_1,NA,NA,skipped,NA,715238.5,NA,NA,715236.40000057,715238.60000038,2024-04-13T05:56:30Z,715252,NULL,Beweis,ushahidi,s,marudio,kizuizi,mtendaji,NA,sd,NA,4,NA,NA,NA,NA,NA,NA,NA,NA,NA,NA,NA,NA,NA,NA,NA,NA,NA,NA,NA
8617c,"""Falsch""-Screen",canvas.Screen,3_0_4_0_3_1_2,NA,NA,timeout,5000,715239.10000038,715235.4,715252,720235.3,720236,2024-04-13T05:56:35Z,720252,NULL,Beweis,ushahidi,s,marudio,kizuizi,mtendaji,NA,sd,0,4,NA,NA,NA,NA,NA,NA,NA,NA,NA,NA,NA,NA,NA,NA,NA,NA,NA,NA,NA
8617c,shallow,flow.Sequence,3_0_4_0_3_1,NA,NA,completion,14316.8,705907.40000057,705902,705918.5,720235.3,720236.30000019,2024-04-13T05:56:35Z,720252,NULL,Beweis,ushahidi,s,marudio,kizuizi,mtendaji,NA,sd,NA,4,NA,NA,NA,NA,NA,NA,NA,NA,NA,NA,NA,NA,NA,NA,NA,NA,NA,NA,NA
8617c,task,flow.Sequence,3_0_4_0_3,NA,NA,completion,14316.8,705907.20000076,705902,705918.5,720235.3,720236.40000057,2024-04-13T05:56:35Z,720252,NULL,Beweis,ushahidi,s,marudio,kizuizi,mtendaji,NA,sd,NA,4,NA,NA,NA,NA,NA,NA,NA,NA,NA,NA,NA,NA,NA,NA,NA,NA,NA,NA,NA
8617c,deep,flow.Sequence,3_0_4_0_4_0,NA,NA,skipped,NA,720236.60000038,NA,NA,720235.3,720236.70000076,2024-04-13T05:56:35Z,720252,NULL,Prüfung,mtihani,s,mkulima,mtizamo,ufumbuzi,NA,sd,NA,4,NA,NA,NA,NA,NA,NA,NA,NA,NA,NA,NA,NA,NA,NA,NA,NA,NA,NA,NA
8617c,Shallow Question,html.Page,3_0_4_0_4_1_0,NA,NA,form submission,3418.1000003815,720236.70000076,720235.3,720252,723670.10000038,723670.40000057,2024-04-13T05:56:38Z,723685.2,NULL,Prüfung,mtihani,s,mkulima,mtizamo,ufumbuzi,mtihani,NA,NA,4,NA,NA,NA,NA,NA,NA,NA,NA,NA,NA,NA,NA,NA,NA,NA,NA,NA,NA,NA
8617c,"""Richtig""-Screen",canvas.Screen,3_0_4_0_4_1_1,NA,NA,timeout,5000.1000000001,723671.90000057,723668.734,723685.2,728668.6,728669.20000076,2024-04-13T05:56:43Z,728685.3,NULL,Prüfung,mtihani,s,mkulima,mtizamo,ufumbuzi,NA,sd,1,4,NA,NA,NA,NA,NA,NA,NA,NA,NA,NA,NA,NA,NA,NA,NA,NA,NA,NA,NA
8617c,"""Falsch""-Screen",canvas.Screen,3_0_4_0_4_1_2,NA,NA,skipped,NA,728673.10000038,NA,NA,728668.6,728673.30000019,2024-04-13T05:56:43Z,728685.3,NULL,Prüfung,mtihani,s,mkulima,mtizamo,ufumbuzi,NA,sd,NA,4,NA,NA,NA,NA,NA,NA,NA,NA,NA,NA,NA,NA,NA,NA,NA,NA,NA,NA,NA
8617c,shallow,flow.Sequence,3_0_4_0_4_1,NA,NA,completion,8416.6,720236.70000076,720235.3,720252,728668.6,728673.5,2024-04-13T05:56:43Z,728685.3,NULL,Prüfung,mtihani,s,mkulima,mtizamo,ufumbuzi,NA,sd,NA,4,NA,NA,NA,NA,NA,NA,NA,NA,NA,NA,NA,NA,NA,NA,NA,NA,NA,NA,NA
8617c,task,flow.Sequence,3_0_4_0_4,NA,NA,completion,8416.6,720236.5,720235.3,720252,728668.6,728673.70000076,2024-04-13T05:56:43Z,728685.3,NULL,Prüfung,mtihani,s,mkulima,mtizamo,ufumbuzi,NA,sd,NA,4,NA,NA,NA,NA,NA,NA,NA,NA,NA,NA,NA,NA,NA,NA,NA,NA,NA,NA,NA
8617c,Deep Question,html.Page,3_0_4_0_5_0_0,NA,NA,form submission,9643.1000005722,728673.80000019,728668.6,728685.3,738328.40000057,738328.60000038,2024-04-13T05:56:53Z,738335.372,NULL,Verzögerung,kuchelewa,d,NA,NA,NA,kuchelewa,NA,NA,4,NA,NA,NA,NA,NA,NA,NA,NA,NA,NA,NA,NA,NA,NA,NA,NA,NA,NA,NA
8617c,"""Richtig""-Screen",canvas.Screen,3_0_4_0_5_0_1,NA,NA,timeout,4999.728,738330.20000076,738335.372,738335.372,743318.6,743319.30000019,2024-04-13T05:56:58Z,743335.1,NULL,Verzögerung,kuchelewa,d,NA,NA,NA,NA,sd,1,4,NA,NA,NA,NA,NA,NA,NA,NA,NA,NA,NA,NA,NA,NA,NA,NA,NA,NA,NA
8617c,"""Falsch""-Screen",canvas.Screen,3_0_4_0_5_0_2,NA,NA,skipped,NA,743323.5,NA,NA,743318.6,743323.70000076,2024-04-13T05:56:58Z,743335.1,NULL,Verzögerung,kuchelewa,d,NA,NA,NA,NA,sd,NA,4,NA,NA,NA,NA,NA,NA,NA,NA,NA,NA,NA,NA,NA,NA,NA,NA,NA,NA,NA
8617c,deep,flow.Sequence,3_0_4_0_5_0,NA,NA,completion,14633.3,728673.80000019,728668.6,728685.3,743318.6,743323.90000057,2024-04-13T05:56:58Z,743335.1,NULL,Verzögerung,kuchelewa,d,NA,NA,NA,NA,sd,NA,4,NA,NA,NA,NA,NA,NA,NA,NA,NA,NA,NA,NA,NA,NA,NA,NA,NA,NA,NA
8617c,shallow,flow.Sequence,3_0_4_0_5_1,NA,NA,skipped,NA,743324,NA,NA,743318.6,743324.10000038,2024-04-13T05:56:58Z,743335.1,NULL,Verzögerung,kuchelewa,d,NA,NA,NA,NA,sd,NA,4,NA,NA,NA,NA,NA,NA,NA,NA,NA,NA,NA,NA,NA,NA,NA,NA,NA,NA,NA
8617c,task,flow.Sequence,3_0_4_0_5,NA,NA,completion,14633.3,728673.70000076,728668.6,728685.3,743318.6,743324.20000076,2024-04-13T05:56:58Z,743335.1,NULL,Verzögerung,kuchelewa,d,NA,NA,NA,NA,sd,NA,4,NA,NA,NA,NA,NA,NA,NA,NA,NA,NA,NA,NA,NA,NA,NA,NA,NA,NA,NA
8617c,deep,flow.Sequence,3_0_4_0_6_0,NA,NA,skipped,NA,743324.40000057,NA,NA,743318.6,743324.40000057,2024-04-13T05:56:58Z,743335.1,NULL,Polizist,msongora,s,simanzi,mandhari,nidhamu,NA,sd,NA,4,NA,NA,NA,NA,NA,NA,NA,NA,NA,NA,NA,NA,NA,NA,NA,NA,NA,NA,NA
8617c,Shallow Question,html.Page,3_0_4_0_6_1_0,NA,NA,form submission,4580.100000763,743324.40000057,743318.6,743335.1,747915.20000076,747915.40000057,2024-04-13T05:57:02Z,747918.4,NULL,Polizist,msongora,s,simanzi,mandhari,nidhamu,msongora,NA,NA,4,NA,NA,NA,NA,NA,NA,NA,NA,NA,NA,NA,NA,NA,NA,NA,NA,NA,NA,NA
8617c,"""Richtig""-Screen",canvas.Screen,3_0_4_0_6_1_1,NA,NA,timeout,5000.2999999999,747917,747902.026,747918.4,752902,752902.60000038,2024-04-13T05:57:07Z,752918.7,NULL,Polizist,msongora,s,simanzi,mandhari,nidhamu,NA,sd,1,4,NA,NA,NA,NA,NA,NA,NA,NA,NA,NA,NA,NA,NA,NA,NA,NA,NA,NA,NA
8617c,"""Falsch""-Screen",canvas.Screen,3_0_4_0_6_1_2,NA,NA,skipped,NA,752906.5,NA,NA,752902,752906.80000019,2024-04-13T05:57:07Z,752918.7,NULL,Polizist,msongora,s,simanzi,mandhari,nidhamu,NA,sd,NA,4,NA,NA,NA,NA,NA,NA,NA,NA,NA,NA,NA,NA,NA,NA,NA,NA,NA,NA,NA
8617c,shallow,flow.Sequence,3_0_4_0_6_1,NA,NA,completion,9566.9,743324.40000057,743318.6,743335.1,752902,752907,2024-04-13T05:57:07Z,752918.7,NULL,Polizist,msongora,s,simanzi,mandhari,nidhamu,NA,sd,NA,4,NA,NA,NA,NA,NA,NA,NA,NA,NA,NA,NA,NA,NA,NA,NA,NA,NA,NA,NA
8617c,task,flow.Sequence,3_0_4_0_6,NA,NA,completion,9566.9,743324.30000019,743318.6,743335.1,752902,752907.10000038,2024-04-13T05:57:07Z,752918.7,NULL,Polizist,msongora,s,simanzi,mandhari,nidhamu,NA,sd,NA,4,NA,NA,NA,NA,NA,NA,NA,NA,NA,NA,NA,NA,NA,NA,NA,NA,NA,NA,NA
8617c,Deep Question,html.Page,3_0_4_0_7_0_0,NA,NA,form submission,15869.700000572,752907.30000019,752902,752918.7,768788.40000057,768788.70000076,2024-04-13T05:57:23Z,768801.9,NULL,Annäherung,maegesho,d,NA,NA,NA,s,NA,NA,4,NA,NA,NA,NA,NA,NA,NA,NA,NA,NA,NA,NA,NA,NA,NA,NA,NA,NA,NA
8617c,"""Richtig""-Screen",canvas.Screen,3_0_4_0_7_0_1,NA,NA,skipped,NA,768790.30000019,NA,NA,768788.40000057,768790.5,2024-04-13T05:57:23Z,768801.9,NULL,Annäherung,maegesho,d,NA,NA,NA,NA,sd,NA,4,NA,NA,NA,NA,NA,NA,NA,NA,NA,NA,NA,NA,NA,NA,NA,NA,NA,NA,NA
8617c,"""Falsch""-Screen",canvas.Screen,3_0_4_0_7_0_2,NA,NA,timeout,5000,768791,768785.43,768801.9,773785.3,773786,2024-04-13T05:57:28Z,773801.9,NULL,Annäherung,maegesho,d,NA,NA,NA,NA,sd,0,4,NA,NA,NA,NA,NA,NA,NA,NA,NA,NA,NA,NA,NA,NA,NA,NA,NA,NA,NA
8617c,deep,flow.Sequence,3_0_4_0_7_0,NA,NA,completion,20866.6,752907.20000076,752902,752918.7,773785.3,773786.30000019,2024-04-13T05:57:28Z,773801.9,NULL,Annäherung,maegesho,d,NA,NA,NA,NA,sd,NA,4,NA,NA,NA,NA,NA,NA,NA,NA,NA,NA,NA,NA,NA,NA,NA,NA,NA,NA,NA
8617c,shallow,flow.Sequence,3_0_4_0_7_1,NA,NA,skipped,NA,773786.30000019,NA,NA,773785.3,773786.40000057,2024-04-13T05:57:28Z,773801.9,NULL,Annäherung,maegesho,d,NA,NA,NA,NA,sd,NA,4,NA,NA,NA,NA,NA,NA,NA,NA,NA,NA,NA,NA,NA,NA,NA,NA,NA,NA,NA
8617c,task,flow.Sequence,3_0_4_0_7,NA,NA,completion,20866.6,752907.10000038,752902,752918.7,773785.3,773786.60000038,2024-04-13T05:57:28Z,773801.9,NULL,Annäherung,maegesho,d,NA,NA,NA,NA,sd,NA,4,NA,NA,NA,NA,NA,NA,NA,NA,NA,NA,NA,NA,NA,NA,NA,NA,NA,NA,NA
8617c,block,flow.Loop,3_0_4_0,NA,NA,completion,143966.524,629830.20000076,629818.776,629818.776,773785.3,773786.70000076,2024-04-13T05:57:28Z,773801.9,NULL,NA,NA,NA,NA,NA,NA,NA,sd,NA,4,NA,NA,NA,NA,NA,NA,NA,NA,NA,NA,NA,NA,NA,NA,NA,NA,NA,NA,NA
8617c,weiter,canvas.Screen,3_0_4_1,sdf,keypress(Space),response,1574.7000003814,773786.80000019,773785.3,773801.9,775376.60000038,775377.40000057,2024-04-13T05:57:30Z,775735.35,NULL,NA,NA,NA,NA,NA,NA,NA,sd,NA,4,NA,NA,NA,NA,NA,NA,NA,NA,NA,NA,NA,NA,NA,NA,NA,NA,NA,NA,NA
8617c,check continue,flow.Sequence,3_0_4,NA,NA,completion,145557.82400038,629830.20000076,629818.776,629818.776,775376.60000038,775377.70000076,2024-04-13T05:57:30Z,775735.35,NULL,NA,NA,NA,NA,NA,NA,NA,sd,NA,4,NA,NA,NA,NA,NA,NA,NA,NA,NA,NA,NA,NA,NA,NA,NA,NA,NA,NA,NA
8617c,check continue,flow.Sequence,3_0_5,NA,NA,skipped,NA,775413.10000038,NA,NA,775376.60000038,775413.20000076,2024-04-13T05:57:30Z,775735.35,NULL,NA,NA,NA,NA,NA,NA,NA,sdf,NA,5,NA,NA,NA,NA,NA,NA,NA,NA,NA,NA,NA,NA,NA,NA,NA,NA,NA,NA,NA
8617c,check continue,flow.Sequence,3_0_6,NA,NA,skipped,NA,775428.60000038,NA,NA,775376.60000038,775428.70000076,2024-04-13T05:57:30Z,775735.35,NULL,NA,NA,NA,NA,NA,NA,NA,dfs,NA,6,NA,NA,NA,NA,NA,NA,NA,NA,NA,NA,NA,NA,NA,NA,NA,NA,NA,NA,NA
8617c,check continue,flow.Sequence,3_0_7,NA,NA,skipped,NA,775442.10000038,NA,NA,775376.60000038,775442.20000076,2024-04-13T05:57:30Z,775735.35,NULL,NA,NA,NA,NA,NA,NA,NA,df,NA,7,NA,NA,NA,NA,NA,NA,NA,NA,NA,NA,NA,NA,NA,NA,NA,NA,NA,NA,NA
8617c,check continue,flow.Sequence,3_0_8,NA,NA,skipped,NA,775454.60000038,NA,NA,775376.60000038,775454.60000038,2024-04-13T05:57:30Z,775735.35,NULL,NA,NA,NA,NA,NA,NA,NA,dfs,NA,8,NA,NA,NA,NA,NA,NA,NA,NA,NA,NA,NA,NA,NA,NA,NA,NA,NA,NA,NA
8617c,check continue,flow.Sequence,3_0_9,NA,NA,skipped,NA,775470,NA,NA,775376.60000038,775470.10000038,2024-04-13T05:57:30Z,775735.35,NULL,NA,NA,NA,NA,NA,NA,NA,dsf,NA,9,NA,NA,NA,NA,NA,NA,NA,NA,NA,NA,NA,NA,NA,NA,NA,NA,NA,NA,NA
8617c,check continue,flow.Sequence,3_0_10,NA,NA,skipped,NA,775503.5,NA,NA,775376.60000038,775503.5,2024-04-13T05:57:30Z,775735.35,NULL,NA,NA,NA,NA,NA,NA,NA,df,NA,10,NA,NA,NA,NA,NA,NA,NA,NA,NA,NA,NA,NA,NA,NA,NA,NA,NA,NA,NA
8617c,check continue,flow.Sequence,3_0_11,NA,NA,skipped,NA,775522.30000019,NA,NA,775376.60000038,775522.5,2024-04-13T05:57:30Z,775735.35,NULL,NA,NA,NA,NA,NA,NA,NA,dfs,NA,11,NA,NA,NA,NA,NA,NA,NA,NA,NA,NA,NA,NA,NA,NA,NA,NA,NA,NA,NA
8617c,check continue,flow.Sequence,3_0_12,NA,NA,skipped,NA,775542,NA,NA,775376.60000038,775542.10000038,2024-04-13T05:57:30Z,775735.35,NULL,NA,NA,NA,NA,NA,NA,NA,dsf,NA,12,NA,NA,NA,NA,NA,NA,NA,NA,NA,NA,NA,NA,NA,NA,NA,NA,NA,NA,NA
8617c,check continue,flow.Sequence,3_0_13,NA,NA,skipped,NA,775560.10000038,NA,NA,775376.60000038,775560.20000076,2024-04-13T05:57:30Z,775735.35,NULL,NA,NA,NA,NA,NA,NA,NA,dsf,NA,13,NA,NA,NA,NA,NA,NA,NA,NA,NA,NA,NA,NA,NA,NA,NA,NA,NA,NA,NA
8617c,check continue,flow.Sequence,3_0_14,NA,NA,skipped,NA,775572.40000057,NA,NA,775376.60000038,775572.40000057,2024-04-13T05:57:30Z,775735.35,NULL,NA,NA,NA,NA,NA,NA,NA,NA,NA,14,NA,NA,NA,NA,NA,NA,NA,NA,NA,NA,NA,NA,NA,NA,NA,NA,NA,NA,NA
8617c,check continue,flow.Sequence,3_0_15,NA,NA,skipped,NA,775583.80000019,NA,NA,775376.60000038,775583.80000019,2024-04-13T05:57:30Z,775735.35,NULL,NA,NA,NA,NA,NA,NA,NA,NA,NA,15,NA,NA,NA,NA,NA,NA,NA,NA,NA,NA,NA,NA,NA,NA,NA,NA,NA,NA,NA
8617c,check continue,flow.Sequence,3_0_16,NA,NA,skipped,NA,775595,NA,NA,775376.60000038,775595.20000076,2024-04-13T05:57:30Z,775735.35,NULL,NA,NA,NA,NA,NA,NA,NA,NA,NA,16,NA,NA,NA,NA,NA,NA,NA,NA,NA,NA,NA,NA,NA,NA,NA,NA,NA,NA,NA
8617c,check continue,flow.Sequence,3_0_17,NA,NA,skipped,NA,775608.80000019,NA,NA,775376.60000038,775608.90000057,2024-04-13T05:57:30Z,775735.35,NULL,NA,NA,NA,NA,NA,NA,NA,NA,NA,17,NA,NA,NA,NA,NA,NA,NA,NA,NA,NA,NA,NA,NA,NA,NA,NA,NA,NA,NA
8617c,check continue,flow.Sequence,3_0_18,NA,NA,skipped,NA,775619.70000076,NA,NA,775376.60000038,775619.80000019,2024-04-13T05:57:30Z,775735.35,NULL,NA,NA,NA,NA,NA,NA,NA,NA,NA,18,NA,NA,NA,NA,NA,NA,NA,NA,NA,NA,NA,NA,NA,NA,NA,NA,NA,NA,NA
8617c,check continue,flow.Sequence,3_0_19,NA,NA,skipped,NA,775630.10000038,NA,NA,775376.60000038,775630.20000076,2024-04-13T05:57:30Z,775735.35,NULL,NA,NA,NA,NA,NA,NA,NA,NA,NA,19,NA,NA,NA,NA,NA,NA,NA,NA,NA,NA,NA,NA,NA,NA,NA,NA,NA,NA,NA
8617c,check continue,flow.Sequence,3_0_20,NA,NA,skipped,NA,775641.60000038,NA,NA,775376.60000038,775641.70000076,2024-04-13T05:57:30Z,775735.35,NULL,NA,NA,NA,NA,NA,NA,NA,NA,NA,20,NA,NA,NA,NA,NA,NA,NA,NA,NA,NA,NA,NA,NA,NA,NA,NA,NA,NA,NA
8617c,check continue,flow.Sequence,3_0_21,NA,NA,skipped,NA,775652.20000076,NA,NA,775376.60000038,775652.20000076,2024-04-13T05:57:30Z,775735.35,NULL,NA,NA,NA,NA,NA,NA,NA,NA,NA,21,NA,NA,NA,NA,NA,NA,NA,NA,NA,NA,NA,NA,NA,NA,NA,NA,NA,NA,NA
8617c,check continue,flow.Sequence,3_0_22,NA,NA,skipped,NA,775664.10000038,NA,NA,775376.60000038,775664.10000038,2024-04-13T05:57:30Z,775735.35,NULL,NA,NA,NA,NA,NA,NA,NA,NA,NA,22,NA,NA,NA,NA,NA,NA,NA,NA,NA,NA,NA,NA,NA,NA,NA,NA,NA,NA,NA
8617c,check continue,flow.Sequence,3_0_23,NA,NA,skipped,NA,775674.10000038,NA,NA,775376.60000038,775674.20000076,2024-04-13T05:57:30Z,775735.35,NULL,NA,NA,NA,NA,NA,NA,NA,NA,NA,23,NA,NA,NA,NA,NA,NA,NA,NA,NA,NA,NA,NA,NA,NA,NA,NA,NA,NA,NA
8617c,check continue,flow.Sequence,3_0_24,NA,NA,skipped,NA,775685.80000019,NA,NA,775376.60000038,775685.90000057,2024-04-13T05:57:30Z,775735.35,NULL,NA,NA,NA,NA,NA,NA,NA,NA,NA,24,NA,NA,NA,NA,NA,NA,NA,NA,NA,NA,NA,NA,NA,NA,NA,NA,NA,NA,NA
8617c,check continue,flow.Sequence,3_0_25,NA,NA,skipped,NA,775696.20000076,NA,NA,775376.60000038,775696.30000019,2024-04-13T05:57:30Z,775735.35,NULL,NA,NA,NA,NA,NA,NA,NA,NA,NA,25,NA,NA,NA,NA,NA,NA,NA,NA,NA,NA,NA,NA,NA,NA,NA,NA,NA,NA,NA
8617c,check continue,flow.Sequence,3_0_26,NA,NA,skipped,NA,775707.70000076,NA,NA,775376.60000038,775707.80000019,2024-04-13T05:57:30Z,775735.35,NULL,NA,NA,NA,NA,NA,NA,NA,NA,NA,26,NA,NA,NA,NA,NA,NA,NA,NA,NA,NA,NA,NA,NA,NA,NA,NA,NA,NA,NA
8617c,check continue,flow.Sequence,3_0_27,NA,NA,skipped,NA,775717.40000057,NA,NA,775376.60000038,775717.5,2024-04-13T05:57:30Z,775735.35,NULL,NA,NA,NA,NA,NA,NA,NA,NA,NA,27,NA,NA,NA,NA,NA,NA,NA,NA,NA,NA,NA,NA,NA,NA,NA,NA,NA,NA,NA
8617c,check continue,flow.Sequence,3_0_28,NA,NA,skipped,NA,775728.60000038,NA,NA,775376.60000038,775728.70000076,2024-04-13T05:57:30Z,775735.35,NULL,NA,NA,NA,NA,NA,NA,NA,NA,NA,28,NA,NA,NA,NA,NA,NA,NA,NA,NA,NA,NA,NA,NA,NA,NA,NA,NA,NA,NA
8617c,check continue,flow.Sequence,3_0_29,NA,NA,skipped,NA,775738.80000019,NA,NA,775376.60000038,775738.80000019,2024-04-13T05:57:30Z,775735.35,NULL,NA,NA,NA,NA,NA,NA,NA,NA,NA,29,NA,NA,NA,NA,NA,NA,NA,NA,NA,NA,NA,NA,NA,NA,NA,NA,NA,NA,NA
8617c,until continue,flow.Loop,3_0,NA,NA,completion,558574.40000038,216800.10000038,216800.748,216802.2,775376.60000038,775738.90000057,2024-04-13T05:57:30Z,775735.35,NULL,NA,NA,NA,NA,NA,NA,NA,NA,NA,NA,NA,NA,NA,NA,NA,NA,NA,NA,NA,NA,NA,NA,NA,NA,NA,NA,NA,NA,NA
8617c,block 1,flow.Sequence,3,NA,NA,completion,558574.40000038,216800.10000038,216800.748,216802.2,775376.60000038,775738.90000057,2024-04-13T05:57:30Z,775735.35,NULL,NA,NA,NA,NA,NA,NA,NA,NA,NA,NA,NA,NA,NA,NA,NA,NA,NA,NA,NA,NA,NA,NA,NA,NA,NA,NA,NA,NA,NA
8617c,1.Part Over,canvas.Screen,4,NA,keypress(Space),response,10389.350000763,775739,775735.35,775735.35,786124.70000076,786125.70000076,2024-04-13T05:57:40Z,786202,NULL,NA,NA,NA,NA,NA,NA,NA,NA,NA,NA,NA,NA,NA,NA,NA,NA,NA,NA,NA,NA,NA,NA,NA,NA,NA,NA,NA,NA,NA
8617c,deep,flow.Sequence,5_0_0_0_0_0,NA,NA,skipped,NA,786188.20000076,NA,NA,786124.70000076,786188.30000019,2024-04-13T05:57:40Z,786202,NULL,Wettbewerb,ushindani,s,mapendezi,kichocheo,ubaguzi,NA,sdf,NA,0,NA,NA,NA,NA,NA,NA,NA,NA,NA,NA,NA,NA,NA,NA,NA,NA,NA,NA,NA
8617c,Shallow Question,html.Page,5_0_0_0_0_1_0,NA,NA,form submission,10332.100000381,786188.30000019,786185.8,786202,796534.10000038,796534.30000019,2024-04-13T05:57:51Z,796535.356,NULL,Wettbewerb,ushindani,s,mapendezi,kichocheo,ubaguzi,ubaguzi,NA,NA,0,NA,NA,NA,NA,NA,NA,NA,NA,NA,NA,NA,NA,NA,NA,NA,NA,NA,NA,NA
8617c,"""Richtig""-Screen",canvas.Screen,5_0_0_0_0_1_1,NA,NA,skipped,NA,796536.40000057,NA,NA,796534.10000038,796536.5,2024-04-13T05:57:51Z,796535.356,NULL,Wettbewerb,ushindani,s,mapendezi,kichocheo,ubaguzi,NA,sdf,NA,0,NA,NA,NA,NA,NA,NA,NA,NA,NA,NA,NA,NA,NA,NA,NA,NA,NA,NA,NA
8617c,"""Falsch""-Screen",canvas.Screen,5_0_0_0_0_1_2,NA,NA,timeout,4999.944,796537.20000076,796535.356,796535.356,801518.6,801519.30000019,2024-04-13T05:57:56Z,801535.3,NULL,Wettbewerb,ushindani,s,mapendezi,kichocheo,ubaguzi,NA,sdf,0,0,NA,NA,NA,NA,NA,NA,NA,NA,NA,NA,NA,NA,NA,NA,NA,NA,NA,NA,NA
8617c,shallow,flow.Sequence,5_0_0_0_0_1,NA,NA,completion,15316.6,786188.30000019,786185.8,786202,801518.6,801519.70000076,2024-04-13T05:57:56Z,801535.3,NULL,Wettbewerb,ushindani,s,mapendezi,kichocheo,ubaguzi,NA,sdf,NA,0,NA,NA,NA,NA,NA,NA,NA,NA,NA,NA,NA,NA,NA,NA,NA,NA,NA,NA,NA
8617c,task,flow.Sequence,5_0_0_0_0,NA,NA,completion,15316.6,786188.20000076,786185.8,786202,801518.6,801519.80000019,2024-04-13T05:57:56Z,801535.3,NULL,Wettbewerb,ushindani,s,mapendezi,kichocheo,ubaguzi,NA,sdf,NA,0,NA,NA,NA,NA,NA,NA,NA,NA,NA,NA,NA,NA,NA,NA,NA,NA,NA,NA,NA
8617c,deep,flow.Sequence,5_0_0_0_1_0,NA,NA,skipped,NA,801520,NA,NA,801518.6,801520.10000038,2024-04-13T05:57:56Z,801535.3,NULL,Angreifer,mshambulizi,s,kitengo,tasinia,usafirishaji,NA,sdf,NA,0,NA,NA,NA,NA,NA,NA,NA,NA,NA,NA,NA,NA,NA,NA,NA,NA,NA,NA,NA
8617c,Shallow Question,html.Page,5_0_0_0_1_1_0,NA,NA,form submission,4767.0000001907,801520.20000076,801518.6,801535.3,806302.30000019,806302.60000038,2024-04-13T05:58:01Z,806319.7,NULL,Angreifer,mshambulizi,s,kitengo,tasinia,usafirishaji,mshambulizi,NA,NA,0,NA,NA,NA,NA,NA,NA,NA,NA,NA,NA,NA,NA,NA,NA,NA,NA,NA,NA,NA
8617c,"""Richtig""-Screen",canvas.Screen,5_0_0_0_1_1_1,NA,NA,timeout,4999,806304.30000019,806302.028,806319.7,811302,811302.60000038,2024-04-13T05:58:06Z,811318.7,NULL,Angreifer,mshambulizi,s,kitengo,tasinia,usafirishaji,NA,sdf,1,0,NA,NA,NA,NA,NA,NA,NA,NA,NA,NA,NA,NA,NA,NA,NA,NA,NA,NA,NA
8617c,"""Falsch""-Screen",canvas.Screen,5_0_0_0_1_1_2,NA,NA,skipped,NA,811306.70000076,NA,NA,811302,811307,2024-04-13T05:58:06Z,811318.7,NULL,Angreifer,mshambulizi,s,kitengo,tasinia,usafirishaji,NA,sdf,NA,0,NA,NA,NA,NA,NA,NA,NA,NA,NA,NA,NA,NA,NA,NA,NA,NA,NA,NA,NA
8617c,shallow,flow.Sequence,5_0_0_0_1_1,NA,NA,completion,9766.7,801520.10000038,801518.6,801535.3,811302,811307.10000038,2024-04-13T05:58:06Z,811318.7,NULL,Angreifer,mshambulizi,s,kitengo,tasinia,usafirishaji,NA,sdf,NA,0,NA,NA,NA,NA,NA,NA,NA,NA,NA,NA,NA,NA,NA,NA,NA,NA,NA,NA,NA
8617c,task,flow.Sequence,5_0_0_0_1,NA,NA,completion,9766.7,801520,801518.6,801535.3,811302,811307.30000019,2024-04-13T05:58:06Z,811318.7,NULL,Angreifer,mshambulizi,s,kitengo,tasinia,usafirishaji,NA,sdf,NA,0,NA,NA,NA,NA,NA,NA,NA,NA,NA,NA,NA,NA,NA,NA,NA,NA,NA,NA,NA
8617c,Deep Question,html.Page,5_0_0_0_2_0_0,NA,NA,form submission,3200.6000001908,811307.40000057,811302,811318.7,814519.30000019,814519.5,2024-04-13T05:58:09Z,814535.2,NULL,Kanzler,diwani,d,NA,NA,NA,g,NA,NA,0,NA,NA,NA,NA,NA,NA,NA,NA,NA,NA,NA,NA,NA,NA,NA,NA,NA,NA,NA
8617c,"""Richtig""-Screen",canvas.Screen,5_0_0_0_2_0_1,NA,NA,skipped,NA,814521.10000038,NA,NA,814519.30000019,814521.30000019,2024-04-13T05:58:09Z,814535.2,NULL,Kanzler,diwani,d,NA,NA,NA,NA,sdf,NA,0,NA,NA,NA,NA,NA,NA,NA,NA,NA,NA,NA,NA,NA,NA,NA,NA,NA,NA,NA
8617c,"""Falsch""-Screen",canvas.Screen,5_0_0_0_2_0_2,NA,NA,timeout,5000.1000000001,814522,814518.69,814535.2,819518.6,819519.40000057,2024-04-13T05:58:14Z,819535.3,NULL,Kanzler,diwani,d,NA,NA,NA,NA,sdf,0,0,NA,NA,NA,NA,NA,NA,NA,NA,NA,NA,NA,NA,NA,NA,NA,NA,NA,NA,NA
8617c,deep,flow.Sequence,5_0_0_0_2_0,NA,NA,completion,8199.9,811307.30000019,811302,811318.7,819518.6,819519.70000076,2024-04-13T05:58:14Z,819535.3,NULL,Kanzler,diwani,d,NA,NA,NA,NA,sdf,NA,0,NA,NA,NA,NA,NA,NA,NA,NA,NA,NA,NA,NA,NA,NA,NA,NA,NA,NA,NA
8617c,shallow,flow.Sequence,5_0_0_0_2_1,NA,NA,skipped,NA,819519.80000019,NA,NA,819518.6,819519.90000057,2024-04-13T05:58:14Z,819535.3,NULL,Kanzler,diwani,d,NA,NA,NA,NA,sdf,NA,0,NA,NA,NA,NA,NA,NA,NA,NA,NA,NA,NA,NA,NA,NA,NA,NA,NA,NA,NA
8617c,task,flow.Sequence,5_0_0_0_2,NA,NA,completion,8199.9,811307.30000019,811302,811318.7,819518.6,819520.10000038,2024-04-13T05:58:14Z,819535.3,NULL,Kanzler,diwani,d,NA,NA,NA,NA,sdf,NA,0,NA,NA,NA,NA,NA,NA,NA,NA,NA,NA,NA,NA,NA,NA,NA,NA,NA,NA,NA
8617c,deep,flow.Sequence,5_0_0_0_3_0,NA,NA,skipped,NA,819520.20000076,NA,NA,819518.6,819520.20000076,2024-04-13T05:58:14Z,819535.3,NULL,Sänger,mwimbaji,s,msichana,shughuli,mshirika,NA,sdf,NA,0,NA,NA,NA,NA,NA,NA,NA,NA,NA,NA,NA,NA,NA,NA,NA,NA,NA,NA,NA
8617c,Shallow Question,html.Page,5_0_0_0_3_1_0,NA,NA,form submission,5204.9000007629,819520.40000057,819518.6,819535.3,824740.20000076,824740.40000057,2024-04-13T05:58:19Z,824752,NULL,Sänger,mwimbaji,s,msichana,shughuli,mshirika,msichana,NA,NA,0,NA,NA,NA,NA,NA,NA,NA,NA,NA,NA,NA,NA,NA,NA,NA,NA,NA,NA,NA
8617c,"""Richtig""-Screen",canvas.Screen,5_0_0_0_3_1_1,NA,NA,skipped,NA,824742.20000076,NA,NA,824740.20000076,824742.40000057,2024-04-13T05:58:19Z,824752,NULL,Sänger,mwimbaji,s,msichana,shughuli,mshirika,NA,sdf,NA,0,NA,NA,NA,NA,NA,NA,NA,NA,NA,NA,NA,NA,NA,NA,NA,NA,NA,NA,NA
8617c,"""Falsch""-Screen",canvas.Screen,5_0_0_0_3_1_2,NA,NA,timeout,4999.9,824743,824735.336,824752,829735.2,829735.90000057,2024-04-13T05:58:24Z,829751.9,NULL,Sänger,mwimbaji,s,msichana,shughuli,mshirika,NA,sdf,0,0,NA,NA,NA,NA,NA,NA,NA,NA,NA,NA,NA,NA,NA,NA,NA,NA,NA,NA,NA
8617c,shallow,flow.Sequence,5_0_0_0_3_1,NA,NA,completion,10199.9,819520.30000019,819518.6,819535.3,829735.2,829736.30000019,2024-04-13T05:58:24Z,829751.9,NULL,Sänger,mwimbaji,s,msichana,shughuli,mshirika,NA,sdf,NA,0,NA,NA,NA,NA,NA,NA,NA,NA,NA,NA,NA,NA,NA,NA,NA,NA,NA,NA,NA
8617c,task,flow.Sequence,5_0_0_0_3,NA,NA,completion,10199.9,819520.10000038,819518.6,819535.3,829735.2,829736.40000057,2024-04-13T05:58:24Z,829751.9,NULL,Sänger,mwimbaji,s,msichana,shughuli,mshirika,NA,sdf,NA,0,NA,NA,NA,NA,NA,NA,NA,NA,NA,NA,NA,NA,NA,NA,NA,NA,NA,NA,NA
8617c,deep,flow.Sequence,5_0_0_0_4_0,NA,NA,skipped,NA,829736.60000038,NA,NA,829735.2,829736.60000038,2024-04-13T05:58:24Z,829751.9,NULL,Auftrag,uagizaji,s,ghanima,kuzingatia,msukani,NA,sdf,NA,0,NA,NA,NA,NA,NA,NA,NA,NA,NA,NA,NA,NA,NA,NA,NA,NA,NA,NA,NA
8617c,Shallow Question,html.Page,5_0_0_0_4_1_0,NA,NA,form submission,9633.3000007629,829736.80000019,829735.2,829751.9,839385.20000076,839385.5,2024-04-13T05:58:34Z,839402.1,NULL,Auftrag,uagizaji,s,ghanima,kuzingatia,msukani,ghanima,NA,NA,0,NA,NA,NA,NA,NA,NA,NA,NA,NA,NA,NA,NA,NA,NA,NA,NA,NA,NA,NA
8617c,"""Richtig""-Screen",canvas.Screen,5_0_0_0_4_1_1,NA,NA,skipped,NA,839387.30000019,NA,NA,839385.20000076,839387.40000057,2024-04-13T05:58:34Z,839402.1,NULL,Auftrag,uagizaji,s,ghanima,kuzingatia,msukani,NA,sdf,NA,0,NA,NA,NA,NA,NA,NA,NA,NA,NA,NA,NA,NA,NA,NA,NA,NA,NA,NA,NA
8617c,"""Falsch""-Screen",canvas.Screen,5_0_0_0_4_1_2,NA,NA,timeout,4999.9,839387.90000057,839385.314,839402.1,844385.3,844385.90000057,2024-04-13T05:58:39Z,844402,NULL,Auftrag,uagizaji,s,ghanima,kuzingatia,msukani,NA,sdf,0,0,NA,NA,NA,NA,NA,NA,NA,NA,NA,NA,NA,NA,NA,NA,NA,NA,NA,NA,NA
8617c,shallow,flow.Sequence,5_0_0_0_4_1,NA,NA,completion,14633.4,829736.70000076,829735.2,829751.9,844385.3,844386.30000019,2024-04-13T05:58:39Z,844402,NULL,Auftrag,uagizaji,s,ghanima,kuzingatia,msukani,NA,sdf,NA,0,NA,NA,NA,NA,NA,NA,NA,NA,NA,NA,NA,NA,NA,NA,NA,NA,NA,NA,NA
8617c,task,flow.Sequence,5_0_0_0_4,NA,NA,completion,14633.4,829736.5,829735.2,829751.9,844385.3,844386.5,2024-04-13T05:58:39Z,844402,NULL,Auftrag,uagizaji,s,ghanima,kuzingatia,msukani,NA,sdf,NA,0,NA,NA,NA,NA,NA,NA,NA,NA,NA,NA,NA,NA,NA,NA,NA,NA,NA,NA,NA
8617c,Deep Question,html.Page,5_0_0_0_5_0_0,NA,NA,form submission,2704.3000001907,844386.5,844385.3,844402,847106.30000019,847106.5,2024-04-13T05:58:41Z,847118.5,NULL,Abrechnung,uhasibu,d,NA,NA,NA,h,NA,NA,0,NA,NA,NA,NA,NA,NA,NA,NA,NA,NA,NA,NA,NA,NA,NA,NA,NA,NA,NA
8617c,"""Richtig""-Screen",canvas.Screen,5_0_0_0_5_0_1,NA,NA,skipped,NA,847108.20000076,NA,NA,847106.30000019,847108.30000019,2024-04-13T05:58:41Z,847118.5,NULL,Abrechnung,uhasibu,d,NA,NA,NA,NA,sdf,NA,0,NA,NA,NA,NA,NA,NA,NA,NA,NA,NA,NA,NA,NA,NA,NA,NA,NA,NA,NA
8617c,"""Falsch""-Screen",canvas.Screen,5_0_0_0_5_0_2,NA,NA,timeout,5000.2,847109.10000038,847101.992,847118.5,852101.9,852102.60000038,2024-04-13T05:58:46Z,852118.7,NULL,Abrechnung,uhasibu,d,NA,NA,NA,NA,sdf,0,0,NA,NA,NA,NA,NA,NA,NA,NA,NA,NA,NA,NA,NA,NA,NA,NA,NA,NA,NA
8617c,deep,flow.Sequence,5_0_0_0_5_0,NA,NA,completion,7699.9,844386.5,844385.3,844402,852101.9,852103.10000038,2024-04-13T05:58:46Z,852118.7,NULL,Abrechnung,uhasibu,d,NA,NA,NA,NA,sdf,NA,0,NA,NA,NA,NA,NA,NA,NA,NA,NA,NA,NA,NA,NA,NA,NA,NA,NA,NA,NA
8617c,shallow,flow.Sequence,5_0_0_0_5_1,NA,NA,skipped,NA,852103.30000019,NA,NA,852101.9,852103.40000057,2024-04-13T05:58:46Z,852118.7,NULL,Abrechnung,uhasibu,d,NA,NA,NA,NA,sdf,NA,0,NA,NA,NA,NA,NA,NA,NA,NA,NA,NA,NA,NA,NA,NA,NA,NA,NA,NA,NA
8617c,task,flow.Sequence,5_0_0_0_5,NA,NA,completion,7699.9,844386.5,844385.3,844402,852101.9,852103.5,2024-04-13T05:58:46Z,852118.7,NULL,Abrechnung,uhasibu,d,NA,NA,NA,NA,sdf,NA,0,NA,NA,NA,NA,NA,NA,NA,NA,NA,NA,NA,NA,NA,NA,NA,NA,NA,NA,NA
8617c,Deep Question,html.Page,5_0_0_0_6_0_0,NA,NA,form submission,2594.6000001908,852103.60000038,852101.9,852118.7,854713.30000019,854713.5,2024-04-13T05:58:49Z,854718.5,NULL,Schönheit,kirembo,d,NA,NA,NA,h,NA,NA,0,NA,NA,NA,NA,NA,NA,NA,NA,NA,NA,NA,NA,NA,NA,NA,NA,NA,NA,NA
8617c,"""Richtig""-Screen",canvas.Screen,5_0_0_0_6_0_1,NA,NA,skipped,NA,854715.20000076,NA,NA,854713.30000019,854715.40000057,2024-04-13T05:58:49Z,854718.5,NULL,Schönheit,kirembo,d,NA,NA,NA,NA,sdf,NA,0,NA,NA,NA,NA,NA,NA,NA,NA,NA,NA,NA,NA,NA,NA,NA,NA,NA,NA,NA
8617c,"""Falsch""-Screen",canvas.Screen,5_0_0_0_6_0_2,NA,NA,timeout,5000.1,854715.80000019,854701.984,854718.5,859701.9,859702.5,2024-04-13T05:58:54Z,859718.6,NULL,Schönheit,kirembo,d,NA,NA,NA,NA,sdf,0,0,NA,NA,NA,NA,NA,NA,NA,NA,NA,NA,NA,NA,NA,NA,NA,NA,NA,NA,NA
8617c,deep,flow.Sequence,5_0_0_0_6_0,NA,NA,completion,7583.2000000001,852103.60000038,852101.9,852118.7,859701.9,859702.90000057,2024-04-13T05:58:54Z,859718.6,NULL,Schönheit,kirembo,d,NA,NA,NA,NA,sdf,NA,0,NA,NA,NA,NA,NA,NA,NA,NA,NA,NA,NA,NA,NA,NA,NA,NA,NA,NA,NA
8617c,shallow,flow.Sequence,5_0_0_0_6_1,NA,NA,skipped,NA,859703,NA,NA,859701.9,859703.10000038,2024-04-13T05:58:54Z,859718.6,NULL,Schönheit,kirembo,d,NA,NA,NA,NA,sdf,NA,0,NA,NA,NA,NA,NA,NA,NA,NA,NA,NA,NA,NA,NA,NA,NA,NA,NA,NA,NA
8617c,task,flow.Sequence,5_0_0_0_6,NA,NA,completion,7583.2000000001,852103.60000038,852101.9,852118.7,859701.9,859703.20000076,2024-04-13T05:58:54Z,859718.6,NULL,Schönheit,kirembo,d,NA,NA,NA,NA,sdf,NA,0,NA,NA,NA,NA,NA,NA,NA,NA,NA,NA,NA,NA,NA,NA,NA,NA,NA,NA,NA
8617c,Deep Question,html.Page,5_0_0_0_7_0_0,NA,NA,form submission,2160.8000005722,859703.40000057,859701.9,859718.6,861879.40000057,861879.60000038,2024-04-13T05:58:56Z,861885.1,NULL,Zufall,kikuti,d,NA,NA,NA,h,NA,NA,0,NA,NA,NA,NA,NA,NA,NA,NA,NA,NA,NA,NA,NA,NA,NA,NA,NA,NA,NA
8617c,"""Richtig""-Screen",canvas.Screen,5_0_0_0_7_0_1,NA,NA,skipped,NA,861881.60000038,NA,NA,861879.40000057,861881.60000038,2024-04-13T05:58:56Z,861885.1,NULL,Zufall,kikuti,d,NA,NA,NA,NA,sdf,NA,0,NA,NA,NA,NA,NA,NA,NA,NA,NA,NA,NA,NA,NA,NA,NA,NA,NA,NA,NA
8617c,"""Falsch""-Screen",canvas.Screen,5_0_0_0_7_0_2,NA,NA,timeout,5000.3,861882.20000076,861868.652,861885.1,866868.6,866869.20000076,2024-04-13T05:59:01Z,866885.4,NULL,Zufall,kikuti,d,NA,NA,NA,NA,sdf,0,0,NA,NA,NA,NA,NA,NA,NA,NA,NA,NA,NA,NA,NA,NA,NA,NA,NA,NA,NA
8617c,deep,flow.Sequence,5_0_0_0_7_0,NA,NA,completion,7150,859703.30000019,859701.9,859718.6,866868.6,866869.40000057,2024-04-13T05:59:01Z,866885.4,NULL,Zufall,kikuti,d,NA,NA,NA,NA,sdf,NA,0,NA,NA,NA,NA,NA,NA,NA,NA,NA,NA,NA,NA,NA,NA,NA,NA,NA,NA,NA
8617c,shallow,flow.Sequence,5_0_0_0_7_1,NA,NA,skipped,NA,866869.60000038,NA,NA,866868.6,866869.70000076,2024-04-13T05:59:01Z,866885.4,NULL,Zufall,kikuti,d,NA,NA,NA,NA,sdf,NA,0,NA,NA,NA,NA,NA,NA,NA,NA,NA,NA,NA,NA,NA,NA,NA,NA,NA,NA,NA
8617c,task,flow.Sequence,5_0_0_0_7,NA,NA,completion,7150,859703.30000019,859701.9,859718.6,866868.6,866869.80000019,2024-04-13T05:59:01Z,866885.4,NULL,Zufall,kikuti,d,NA,NA,NA,NA,sdf,NA,0,NA,NA,NA,NA,NA,NA,NA,NA,NA,NA,NA,NA,NA,NA,NA,NA,NA,NA,NA
