observation,sender,sender_type,sender_id,response,response_action,ended_on,duration,time_run,time_render,time_show,time_end,time_commit,timestamp,time_switch,distractors,german,swahili,enc,distractor1,distractor2,distractor3,response_2,x,correct,x_2,url_vp,url_sess,meta_labjs_version,meta_location,meta_user_agent,meta_platform,meta_language,meta_locale,meta_time_zone,meta_timezone_offset,meta_screen_width,meta_screen_height,meta_scroll_width,meta_scroll_height,meta_window_inner_width,meta_window_inner_height,meta_device_pixel_ratio,meta_labjs_build_flavor,meta_labjs_build_commit
bf798,Introduction general,canvas.Screen,0,weiter,keypress(q),response,17139.099999237,861,359.6,876.2,18015.299999237,18017,2024-05-04T05:56:44Z,18026.3,NULL,NA,NA,NA,NA,NA,NA,NA,NA,NA,NA,157,3,20.2.4,https://neurocog.fernuni.ch/studies/vweber/jbaenninger/encoding_immediate/index.html?vp=157&sess=3,"Mozilla/5.0 (Windows NT 10.0; Win64; x64) AppleWebKit/537.36 (KHTML, like Gecko) Chrome/124.0.0.0 Safari/537.36 Edg/124.0.0.0",Win32,de,de-CH,Europe/Zurich,-120,1920,1080,1872,910,1872,958,1,production,f5b4a49f956347addd546a832a3327688c2c0fef
bf798,Introduction practice,canvas.Screen,1_0,NA,keypress(Space),response,8727.3999988556,18017.399999619,18009.732,18026.3,26753.699998856,26754.699998856,2024-05-04T05:56:53Z,26759.7,NULL,NA,NA,NA,NA,NA,NA,NA,NA,NA,NA,NA,NA,NA,NA,NA,NA,NA,NA,NA,NA,NA,NA,NA,NA,NA,NA,NA,NA,NA
bf798,Deep Question,html.Page,1_1_0_0_0,NA,NA,form submission,5141.8,26755,26742.702,26759.7,31901.5,31901.799999237,2024-05-04T05:56:58Z,31909.6,"c(""distractor1"", ""distractor2"", ""distractor3"")",Gesundheit,salama,d,NA,NA,NA,s,NA,NA,NA,NA,NA,NA,NA,NA,NA,NA,NA,NA,NA,NA,NA,NA,NA,NA,NA,NA,NA,NA
bf798,"""Richtig""-Screen",canvas.Screen,1_1_0_0_1,NA,NA,skipped,NA,31903.100000381,NA,NA,31901.5,31903.299999237,2024-05-04T05:56:58Z,31909.6,"c(""distractor1"", ""distractor2"", ""distractor3"")",Gesundheit,salama,d,NA,NA,NA,NA,NA,NA,NA,NA,NA,NA,NA,NA,NA,NA,NA,NA,NA,NA,NA,NA,NA,NA,NA,NA,NA,NA
bf798,"""Falsch""-Screen",canvas.Screen,1_1_0_0_2,NA,NA,timeout,5000.1,31904.100000381,31893.118,31909.6,36892.9,36893.899999619,2024-05-04T05:57:03Z,36909.7,"c(""distractor1"", ""distractor2"", ""distractor3"")",Gesundheit,salama,d,NA,NA,NA,NA,NA,0,NA,NA,NA,NA,NA,NA,NA,NA,NA,NA,NA,NA,NA,NA,NA,NA,NA,NA,NA,NA
bf798,deep,flow.Sequence,1_1_0_0,NA,NA,completion,10133.2,26755,26742.702,26759.7,36892.9,36894.299999237,2024-05-04T05:57:03Z,36909.7,"c(""distractor1"", ""distractor2"", ""distractor3"")",Gesundheit,salama,d,NA,NA,NA,NA,NA,NA,NA,NA,NA,NA,NA,NA,NA,NA,NA,NA,NA,NA,NA,NA,NA,NA,NA,NA,NA,NA
bf798,shallow,flow.Sequence,1_1_0_1,NA,NA,skipped,NA,36894.399999619,NA,NA,36892.9,36894.600000381,2024-05-04T05:57:03Z,36909.7,"c(""distractor1"", ""distractor2"", ""distractor3"")",Gesundheit,salama,d,NA,NA,NA,NA,NA,NA,NA,NA,NA,NA,NA,NA,NA,NA,NA,NA,NA,NA,NA,NA,NA,NA,NA,NA,NA,NA
bf798,task,flow.Sequence,1_1_0,NA,NA,completion,10133.2,26755,26742.702,26759.7,36892.9,36894.799999237,2024-05-04T05:57:03Z,36909.7,"c(""distractor1"", ""distractor2"", ""distractor3"")",Gesundheit,salama,d,NA,NA,NA,NA,NA,NA,NA,NA,NA,NA,NA,NA,NA,NA,NA,NA,NA,NA,NA,NA,NA,NA,NA,NA,NA,NA
bf798,deep,flow.Sequence,1_1_1_0,NA,NA,skipped,NA,36894.899999619,NA,NA,36892.9,36895,2024-05-04T05:57:03Z,36909.7,"c(""distractor1"", ""distractor2"", ""distractor3"")",Rückhalt,msaada,s,muhula,auwali,kiwimbe,NA,NA,NA,NA,NA,NA,NA,NA,NA,NA,NA,NA,NA,NA,NA,NA,NA,NA,NA,NA,NA,NA,NA
bf798,Shallow Question,html.Page,1_1_1_1_0,NA,NA,form submission,7175.8,36895.199998856,36892.9,36909.7,44085.5,44085.799999237,2024-05-04T05:57:11Z,44092.8,"c(""distractor1"", ""distractor2"", ""distractor3"")",Rückhalt,msaada,s,muhula,auwali,kiwimbe,kiwimbe,NA,NA,NA,NA,NA,NA,NA,NA,NA,NA,NA,NA,NA,NA,NA,NA,NA,NA,NA,NA,NA,NA
bf798,"""Richtig""-Screen",canvas.Screen,1_1_1_1_1,NA,NA,skipped,NA,44086.600000381,NA,NA,44085.5,44086.699998856,2024-05-04T05:57:11Z,44092.8,"c(""distractor1"", ""distractor2"", ""distractor3"")",Rückhalt,msaada,s,muhula,auwali,kiwimbe,NA,NA,NA,NA,NA,NA,NA,NA,NA,NA,NA,NA,NA,NA,NA,NA,NA,NA,NA,NA,NA,NA,NA
bf798,"""Falsch""-Screen",canvas.Screen,1_1_1_1_2,NA,NA,timeout,5000.1,44087.399999619,44076.42,44092.8,49076.3,49077,2024-05-04T05:57:16Z,49092.9,"c(""distractor1"", ""distractor2"", ""distractor3"")",Rückhalt,msaada,s,muhula,auwali,kiwimbe,NA,NA,0,NA,NA,NA,NA,NA,NA,NA,NA,NA,NA,NA,NA,NA,NA,NA,NA,NA,NA,NA,NA
bf798,shallow,flow.Sequence,1_1_1_1,NA,NA,completion,12166.6,36895.199998856,36892.9,36909.7,49076.3,49077.399999619,2024-05-04T05:57:16Z,49092.9,"c(""distractor1"", ""distractor2"", ""distractor3"")",Rückhalt,msaada,s,muhula,auwali,kiwimbe,NA,NA,NA,NA,NA,NA,NA,NA,NA,NA,NA,NA,NA,NA,NA,NA,NA,NA,NA,NA,NA,NA,NA
bf798,task,flow.Sequence,1_1_1,NA,NA,completion,12166.6,36894.899999619,36892.9,36909.7,49076.3,49077.600000381,2024-05-04T05:57:16Z,49092.9,"c(""distractor1"", ""distractor2"", ""distractor3"")",Rückhalt,msaada,s,muhula,auwali,kiwimbe,NA,NA,NA,NA,NA,NA,NA,NA,NA,NA,NA,NA,NA,NA,NA,NA,NA,NA,NA,NA,NA,NA,NA
bf798,deep,flow.Sequence,1_1_2_0,NA,NA,skipped,NA,49077.699998856,NA,NA,49076.3,49077.899999619,2024-05-04T05:57:16Z,49092.9,"c(""distractor1"", ""distractor2"", ""distractor3"")",Gegenwart,hadhara,s,katiba,jokofu,mikopo,NA,NA,NA,NA,NA,NA,NA,NA,NA,NA,NA,NA,NA,NA,NA,NA,NA,NA,NA,NA,NA,NA,NA
bf798,Shallow Question,html.Page,1_1_2_1_0,NA,NA,form submission,4953.9999996185,49077.899999619,49076.3,49092.9,54046.899999619,54047.100000381,2024-05-04T05:57:20Z,54059.7,"c(""distractor1"", ""distractor2"", ""distractor3"")",Gegenwart,hadhara,s,katiba,jokofu,mikopo,mikopo,NA,NA,NA,NA,NA,NA,NA,NA,NA,NA,NA,NA,NA,NA,NA,NA,NA,NA,NA,NA,NA,NA
bf798,"""Richtig""-Screen",canvas.Screen,1_1_2_1_1,NA,NA,skipped,NA,54047.799999237,NA,NA,54046.899999619,54048,2024-05-04T05:57:20Z,54059.7,"c(""distractor1"", ""distractor2"", ""distractor3"")",Gegenwart,hadhara,s,katiba,jokofu,mikopo,NA,NA,NA,NA,NA,NA,NA,NA,NA,NA,NA,NA,NA,NA,NA,NA,NA,NA,NA,NA,NA,NA,NA
bf798,"""Falsch""-Screen",canvas.Screen,1_1_2_1_2,NA,NA,timeout,4999.9,54048.699998856,54043.066,54059.7,59042.9,59043.600000381,2024-05-04T05:57:25Z,59059.6,"c(""distractor1"", ""distractor2"", ""distractor3"")",Gegenwart,hadhara,s,katiba,jokofu,mikopo,NA,NA,0,NA,NA,NA,NA,NA,NA,NA,NA,NA,NA,NA,NA,NA,NA,NA,NA,NA,NA,NA,NA
bf798,shallow,flow.Sequence,1_1_2_1,NA,NA,completion,9950,49077.899999619,49076.3,49092.9,59042.9,59043.899999619,2024-05-04T05:57:25Z,59059.6,"c(""distractor1"", ""distractor2"", ""distractor3"")",Gegenwart,hadhara,s,katiba,jokofu,mikopo,NA,NA,NA,NA,NA,NA,NA,NA,NA,NA,NA,NA,NA,NA,NA,NA,NA,NA,NA,NA,NA,NA,NA
bf798,task,flow.Sequence,1_1_2,NA,NA,completion,9950,49077.699998856,49076.3,49092.9,59042.9,59044.199998856,2024-05-04T05:57:25Z,59059.6,"c(""distractor1"", ""distractor2"", ""distractor3"")",Gegenwart,hadhara,s,katiba,jokofu,mikopo,NA,NA,NA,NA,NA,NA,NA,NA,NA,NA,NA,NA,NA,NA,NA,NA,NA,NA,NA,NA,NA,NA,NA
bf798,deep,flow.Sequence,1_1_3_0,NA,NA,skipped,NA,59044.299999237,NA,NA,59042.9,59044.399999619,2024-05-04T05:57:25Z,59059.6,"c(""distractor1"", ""distractor2"", ""distractor3"")",Kritik,lawama,s,dereva,nafasi,mawazo,NA,NA,NA,NA,NA,NA,NA,NA,NA,NA,NA,NA,NA,NA,NA,NA,NA,NA,NA,NA,NA,NA,NA
bf798,Shallow Question,html.Page,1_1_3_1_0,NA,NA,form submission,4828.5000003815,59044.5,59042.9,59059.6,63888.100000381,63888.399999619,2024-05-04T05:57:30Z,63893.026,"c(""distractor1"", ""distractor2"", ""distractor3"")",Kritik,lawama,s,dereva,nafasi,mawazo,mawazo,NA,NA,NA,NA,NA,NA,NA,NA,NA,NA,NA,NA,NA,NA,NA,NA,NA,NA,NA,NA,NA,NA
bf798,"""Richtig""-Screen",canvas.Screen,1_1_3_1_1,NA,NA,skipped,NA,63890,NA,NA,63888.100000381,63890.199998856,2024-05-04T05:57:30Z,63893.026,"c(""distractor1"", ""distractor2"", ""distractor3"")",Kritik,lawama,s,dereva,nafasi,mawazo,NA,NA,NA,NA,NA,NA,NA,NA,NA,NA,NA,NA,NA,NA,NA,NA,NA,NA,NA,NA,NA,NA,NA
bf798,"""Falsch""-Screen",canvas.Screen,1_1_3_1_2,NA,NA,timeout,4999.874,63890.699998856,63893.026,63893.026,68876.2,68877,2024-05-04T05:57:35Z,68892.9,"c(""distractor1"", ""distractor2"", ""distractor3"")",Kritik,lawama,s,dereva,nafasi,mawazo,NA,NA,0,NA,NA,NA,NA,NA,NA,NA,NA,NA,NA,NA,NA,NA,NA,NA,NA,NA,NA,NA,NA
bf798,shallow,flow.Sequence,1_1_3_1,NA,NA,completion,9816.6,59044.5,59042.9,59059.6,68876.2,68877.299999237,2024-05-04T05:57:35Z,68892.9,"c(""distractor1"", ""distractor2"", ""distractor3"")",Kritik,lawama,s,dereva,nafasi,mawazo,NA,NA,NA,NA,NA,NA,NA,NA,NA,NA,NA,NA,NA,NA,NA,NA,NA,NA,NA,NA,NA,NA,NA
bf798,task,flow.Sequence,1_1_3,NA,NA,completion,9816.6,59044.299999237,59042.9,59059.6,68876.2,68877.5,2024-05-04T05:57:35Z,68892.9,"c(""distractor1"", ""distractor2"", ""distractor3"")",Kritik,lawama,s,dereva,nafasi,mawazo,NA,NA,NA,NA,NA,NA,NA,NA,NA,NA,NA,NA,NA,NA,NA,NA,NA,NA,NA,NA,NA,NA,NA
bf798,Deep Question,html.Page,1_1_4_0_0,NA,NA,form submission,2672.3999992371,68877.699998856,68876.2,68892.9,71565.299999237,71565.5,2024-05-04T05:57:38Z,71576.2,"c(""distractor1"", ""distractor2"", ""distractor3"")",Schatten,kivuli,d,NA,NA,NA,s,NA,NA,NA,NA,NA,NA,NA,NA,NA,NA,NA,NA,NA,NA,NA,NA,NA,NA,NA,NA,NA,NA
bf798,"""Richtig""-Screen",canvas.Screen,1_1_4_0_1,NA,NA,skipped,NA,71567.299999237,NA,NA,71565.299999237,71567.399999619,2024-05-04T05:57:38Z,71576.2,"c(""distractor1"", ""distractor2"", ""distractor3"")",Schatten,kivuli,d,NA,NA,NA,NA,NA,NA,NA,NA,NA,NA,NA,NA,NA,NA,NA,NA,NA,NA,NA,NA,NA,NA,NA,NA,NA,NA
bf798,"""Falsch""-Screen",canvas.Screen,1_1_4_0_2,NA,NA,timeout,5000.1,71568.100000381,71559.7,71576.2,76559.6,76560.199998856,2024-05-04T05:57:43Z,76576.3,"c(""distractor1"", ""distractor2"", ""distractor3"")",Schatten,kivuli,d,NA,NA,NA,NA,NA,0,NA,NA,NA,NA,NA,NA,NA,NA,NA,NA,NA,NA,NA,NA,NA,NA,NA,NA,NA,NA
bf798,deep,flow.Sequence,1_1_4_0,NA,NA,completion,7666.7,68877.699998856,68876.2,68892.9,76559.6,76560.5,2024-05-04T05:57:43Z,76576.3,"c(""distractor1"", ""distractor2"", ""distractor3"")",Schatten,kivuli,d,NA,NA,NA,NA,NA,NA,NA,NA,NA,NA,NA,NA,NA,NA,NA,NA,NA,NA,NA,NA,NA,NA,NA,NA,NA,NA
bf798,shallow,flow.Sequence,1_1_4_1,NA,NA,skipped,NA,76560.699998856,NA,NA,76559.6,76560.799999237,2024-05-04T05:57:43Z,76576.3,"c(""distractor1"", ""distractor2"", ""distractor3"")",Schatten,kivuli,d,NA,NA,NA,NA,NA,NA,NA,NA,NA,NA,NA,NA,NA,NA,NA,NA,NA,NA,NA,NA,NA,NA,NA,NA,NA,NA
bf798,task,flow.Sequence,1_1_4,NA,NA,completion,7666.7,68877.600000381,68876.2,68892.9,76559.6,76561,2024-05-04T05:57:43Z,76576.3,"c(""distractor1"", ""distractor2"", ""distractor3"")",Schatten,kivuli,d,NA,NA,NA,NA,NA,NA,NA,NA,NA,NA,NA,NA,NA,NA,NA,NA,NA,NA,NA,NA,NA,NA,NA,NA,NA,NA
bf798,Deep Question,html.Page,1_1_5_0_0,NA,NA,form submission,3035.9999992371,76561.100000381,76559.6,76576.3,79612.299999237,79612.600000381,2024-05-04T05:57:46Z,79626.2,"c(""distractor1"", ""distractor2"", ""distractor3"")",Qualität,mtindo,d,NA,NA,NA,s,NA,NA,NA,NA,NA,NA,NA,NA,NA,NA,NA,NA,NA,NA,NA,NA,NA,NA,NA,NA,NA,NA
bf798,"""Richtig""-Screen",canvas.Screen,1_1_5_0_1,NA,NA,skipped,NA,79614.199998856,NA,NA,79612.299999237,79614.299999237,2024-05-04T05:57:46Z,79626.2,"c(""distractor1"", ""distractor2"", ""distractor3"")",Qualität,mtindo,d,NA,NA,NA,NA,NA,NA,NA,NA,NA,NA,NA,NA,NA,NA,NA,NA,NA,NA,NA,NA,NA,NA,NA,NA,NA,NA
bf798,"""Falsch""-Screen",canvas.Screen,1_1_5_0_2,NA,NA,timeout,5000.2,79614.799999237,79609.628,79626.2,84609.6,84610.399999619,2024-05-04T05:57:51Z,84626.4,"c(""distractor1"", ""distractor2"", ""distractor3"")",Qualität,mtindo,d,NA,NA,NA,NA,NA,0,NA,NA,NA,NA,NA,NA,NA,NA,NA,NA,NA,NA,NA,NA,NA,NA,NA,NA,NA,NA
bf798,deep,flow.Sequence,1_1_5_0,NA,NA,completion,8033.3,76561,76559.6,76576.3,84609.6,84610.600000381,2024-05-04T05:57:51Z,84626.4,"c(""distractor1"", ""distractor2"", ""distractor3"")",Qualität,mtindo,d,NA,NA,NA,NA,NA,NA,NA,NA,NA,NA,NA,NA,NA,NA,NA,NA,NA,NA,NA,NA,NA,NA,NA,NA,NA,NA
bf798,shallow,flow.Sequence,1_1_5_1,NA,NA,skipped,NA,84610.699998856,NA,NA,84609.6,84610.799999237,2024-05-04T05:57:51Z,84626.4,"c(""distractor1"", ""distractor2"", ""distractor3"")",Qualität,mtindo,d,NA,NA,NA,NA,NA,NA,NA,NA,NA,NA,NA,NA,NA,NA,NA,NA,NA,NA,NA,NA,NA,NA,NA,NA,NA,NA
bf798,task,flow.Sequence,1_1_5,NA,NA,completion,8033.3,76561,76559.6,76576.3,84609.6,84611,2024-05-04T05:57:51Z,84626.4,"c(""distractor1"", ""distractor2"", ""distractor3"")",Qualität,mtindo,d,NA,NA,NA,NA,NA,NA,NA,NA,NA,NA,NA,NA,NA,NA,NA,NA,NA,NA,NA,NA,NA,NA,NA,NA,NA,NA
bf798,block,flow.Loop,1_1,NA,NA,completion,57849.9,26754.899999619,26742.702,26759.7,84609.6,84611.199998856,2024-05-04T05:57:51Z,84626.4,"c(""distractor1"", ""distractor2"", ""distractor3"")",NA,NA,NA,NA,NA,NA,NA,NA,NA,NA,NA,NA,NA,NA,NA,NA,NA,NA,NA,NA,NA,NA,NA,NA,NA,NA,NA,NA,NA
bf798,Practice,flow.Sequence,1,NA,NA,completion,66583.3,18017.299999237,18009.732,18026.3,84609.6,84611.299999237,2024-05-04T05:57:51Z,84626.4,NULL,NA,NA,NA,NA,NA,NA,NA,NA,NA,NA,NA,NA,NA,NA,NA,NA,NA,NA,NA,NA,NA,NA,NA,NA,NA,NA,NA,NA,NA
bf798,Experiment start,canvas.Screen,2,weiter,keypress(q),response,17164.799998856,84611.5,84609.6,84626.4,101791.19999886,101792.19999886,2024-05-04T05:58:08Z,101892.9,NULL,NA,NA,NA,NA,NA,NA,NA,NA,NA,NA,NA,NA,NA,NA,NA,NA,NA,NA,NA,NA,NA,NA,NA,NA,NA,NA,NA,NA,NA
bf798,Deep Question,html.Page,3_0_0_0_0_0_0,NA,NA,form submission,2660.2000003815,101888.19999886,101876.238,101892.9,104553.10000038,104553.29999924,2024-05-04T05:58:11Z,104576.3,NULL,Schlange,foleni,d,NA,NA,NA,s,NA,NA,0,NA,NA,NA,NA,NA,NA,NA,NA,NA,NA,NA,NA,NA,NA,NA,NA,NA,NA,NA
bf798,"""Richtig""-Screen",canvas.Screen,3_0_0_0_0_0_1,NA,NA,skipped,NA,104553.89999962,NA,NA,104553.10000038,104554,2024-05-04T05:58:11Z,104576.3,NULL,Schlange,foleni,d,NA,NA,NA,NA,sdf,NA,0,NA,NA,NA,NA,NA,NA,NA,NA,NA,NA,NA,NA,NA,NA,NA,NA,NA,NA,NA
bf798,"""Falsch""-Screen",canvas.Screen,3_0_0_0_0_0_2,NA,NA,timeout,4999.9,104554.39999962,104559.676,104576.3,109559.6,109560.29999924,2024-05-04T05:58:16Z,109576.2,NULL,Schlange,foleni,d,NA,NA,NA,NA,sdf,0,0,NA,NA,NA,NA,NA,NA,NA,NA,NA,NA,NA,NA,NA,NA,NA,NA,NA,NA,NA
bf798,deep,flow.Sequence,3_0_0_0_0_0,NA,NA,completion,7666.7,101888.19999886,101876.238,101892.9,109559.6,109560.69999886,2024-05-04T05:58:16Z,109576.2,NULL,Schlange,foleni,d,NA,NA,NA,NA,sdf,NA,0,NA,NA,NA,NA,NA,NA,NA,NA,NA,NA,NA,NA,NA,NA,NA,NA,NA,NA,NA
bf798,shallow,flow.Sequence,3_0_0_0_0_1,NA,NA,skipped,NA,109560.79999924,NA,NA,109559.6,109560.89999962,2024-05-04T05:58:16Z,109576.2,NULL,Schlange,foleni,d,NA,NA,NA,NA,sdf,NA,0,NA,NA,NA,NA,NA,NA,NA,NA,NA,NA,NA,NA,NA,NA,NA,NA,NA,NA,NA
bf798,task,flow.Sequence,3_0_0_0_0,NA,NA,completion,7666.7,101888.19999886,101876.238,101892.9,109559.6,109561,2024-05-04T05:58:16Z,109576.2,NULL,Schlange,foleni,d,NA,NA,NA,NA,sdf,NA,0,NA,NA,NA,NA,NA,NA,NA,NA,NA,NA,NA,NA,NA,NA,NA,NA,NA,NA,NA
bf798,Deep Question,html.Page,3_0_0_0_1_0_0,NA,NA,form submission,1667.9999988556,109561.10000038,109559.6,109576.2,111244.19999886,111244.39999962,2024-05-04T05:58:18Z,111259.6,NULL,Toleranz,kuvumiliana,d,NA,NA,NA,s,NA,NA,0,NA,NA,NA,NA,NA,NA,NA,NA,NA,NA,NA,NA,NA,NA,NA,NA,NA,NA,NA
bf798,"""Richtig""-Screen",canvas.Screen,3_0_0_0_1_0_1,NA,NA,skipped,NA,111246.10000038,NA,NA,111244.19999886,111246.19999886,2024-05-04T05:58:18Z,111259.6,NULL,Toleranz,kuvumiliana,d,NA,NA,NA,NA,sdf,NA,0,NA,NA,NA,NA,NA,NA,NA,NA,NA,NA,NA,NA,NA,NA,NA,NA,NA,NA,NA
bf798,"""Falsch""-Screen",canvas.Screen,3_0_0_0_1_0_2,NA,NA,timeout,5000.1,111246.69999886,111242.894,111259.6,116242.9,116243.5,2024-05-04T05:58:23Z,116259.7,NULL,Toleranz,kuvumiliana,d,NA,NA,NA,NA,sdf,0,0,NA,NA,NA,NA,NA,NA,NA,NA,NA,NA,NA,NA,NA,NA,NA,NA,NA,NA,NA
bf798,deep,flow.Sequence,3_0_0_0_1_0,NA,NA,completion,6666.7,109561.10000038,109559.6,109576.2,116242.9,116243.89999962,2024-05-04T05:58:23Z,116259.7,NULL,Toleranz,kuvumiliana,d,NA,NA,NA,NA,sdf,NA,0,NA,NA,NA,NA,NA,NA,NA,NA,NA,NA,NA,NA,NA,NA,NA,NA,NA,NA,NA
bf798,shallow,flow.Sequence,3_0_0_0_1_1,NA,NA,skipped,NA,116243.89999962,NA,NA,116242.9,116244.10000038,2024-05-04T05:58:23Z,116259.7,NULL,Toleranz,kuvumiliana,d,NA,NA,NA,NA,sdf,NA,0,NA,NA,NA,NA,NA,NA,NA,NA,NA,NA,NA,NA,NA,NA,NA,NA,NA,NA,NA
bf798,task,flow.Sequence,3_0_0_0_1,NA,NA,completion,6666.7,109561.10000038,109559.6,109576.2,116242.9,116244.10000038,2024-05-04T05:58:23Z,116259.7,NULL,Toleranz,kuvumiliana,d,NA,NA,NA,NA,sdf,NA,0,NA,NA,NA,NA,NA,NA,NA,NA,NA,NA,NA,NA,NA,NA,NA,NA,NA,NA,NA
bf798,Deep Question,html.Page,3_0_0_0_2_0_0,NA,NA,form submission,5077.8,116244.29999924,116242.9,116259.7,121337.5,121337.69999886,2024-05-04T05:58:28Z,121359.5,NULL,Genehmigung,idhini,d,NA,NA,NA,s,NA,NA,0,NA,NA,NA,NA,NA,NA,NA,NA,NA,NA,NA,NA,NA,NA,NA,NA,NA,NA,NA
bf798,"""Richtig""-Screen",canvas.Screen,3_0_0_0_2_0_1,NA,NA,skipped,NA,121339.5,NA,NA,121337.5,121339.60000038,2024-05-04T05:58:28Z,121359.5,NULL,Genehmigung,idhini,d,NA,NA,NA,NA,sdf,NA,0,NA,NA,NA,NA,NA,NA,NA,NA,NA,NA,NA,NA,NA,NA,NA,NA,NA,NA,NA
bf798,"""Falsch""-Screen",canvas.Screen,3_0_0_0_2_0_2,NA,NA,timeout,5000,121340.19999886,121342.92,121359.5,126342.9,126343.60000038,2024-05-04T05:58:33Z,126359.5,NULL,Genehmigung,idhini,d,NA,NA,NA,NA,sdf,0,0,NA,NA,NA,NA,NA,NA,NA,NA,NA,NA,NA,NA,NA,NA,NA,NA,NA,NA,NA
bf798,deep,flow.Sequence,3_0_0_0_2_0,NA,NA,completion,10083.2,116244.29999924,116242.9,116259.7,126342.9,126343.89999962,2024-05-04T05:58:33Z,126359.5,NULL,Genehmigung,idhini,d,NA,NA,NA,NA,sdf,NA,0,NA,NA,NA,NA,NA,NA,NA,NA,NA,NA,NA,NA,NA,NA,NA,NA,NA,NA,NA
bf798,shallow,flow.Sequence,3_0_0_0_2_1,NA,NA,skipped,NA,126344,NA,NA,126342.9,126344.10000038,2024-05-04T05:58:33Z,126359.5,NULL,Genehmigung,idhini,d,NA,NA,NA,NA,sdf,NA,0,NA,NA,NA,NA,NA,NA,NA,NA,NA,NA,NA,NA,NA,NA,NA,NA,NA,NA,NA
bf798,task,flow.Sequence,3_0_0_0_2,NA,NA,completion,10083.2,116244.19999886,116242.9,116259.7,126342.9,126344.19999886,2024-05-04T05:58:33Z,126359.5,NULL,Genehmigung,idhini,d,NA,NA,NA,NA,sdf,NA,0,NA,NA,NA,NA,NA,NA,NA,NA,NA,NA,NA,NA,NA,NA,NA,NA,NA,NA,NA
bf798,deep,flow.Sequence,3_0_0_0_3_0,NA,NA,skipped,NA,126344.29999924,NA,NA,126342.9,126344.39999962,2024-05-04T05:58:33Z,126359.5,NULL,Integrität,uadilifu,s,muungano,mtiririko,upunguaji,NA,sdf,NA,0,NA,NA,NA,NA,NA,NA,NA,NA,NA,NA,NA,NA,NA,NA,NA,NA,NA,NA,NA
bf798,Shallow Question,html.Page,3_0_0_0_3_1_0,NA,NA,form submission,5098.3999996185,126344.5,126342.9,126359.5,131457.89999962,131458.10000038,2024-05-04T05:58:38Z,131459.652,NULL,Integrität,uadilifu,s,muungano,mtiririko,upunguaji,mtiririko,NA,NA,0,NA,NA,NA,NA,NA,NA,NA,NA,NA,NA,NA,NA,NA,NA,NA,NA,NA,NA,NA
bf798,"""Richtig""-Screen",canvas.Screen,3_0_0_0_3_1_1,NA,NA,skipped,NA,131459.89999962,NA,NA,131457.89999962,131460.10000038,2024-05-04T05:58:38Z,131459.652,NULL,Integrität,uadilifu,s,muungano,mtiririko,upunguaji,NA,sdf,NA,0,NA,NA,NA,NA,NA,NA,NA,NA,NA,NA,NA,NA,NA,NA,NA,NA,NA,NA,NA
bf798,"""Falsch""-Screen",canvas.Screen,3_0_0_0_3_1_2,NA,NA,timeout,4999.948,131460.60000038,131459.652,131459.652,136442.9,136443.5,2024-05-04T05:58:43Z,136459.6,NULL,Integrität,uadilifu,s,muungano,mtiririko,upunguaji,NA,sdf,0,0,NA,NA,NA,NA,NA,NA,NA,NA,NA,NA,NA,NA,NA,NA,NA,NA,NA,NA,NA
bf798,shallow,flow.Sequence,3_0_0_0_3_1,NA,NA,completion,10083.4,126344.39999962,126342.9,126359.5,136442.9,136443.89999962,2024-05-04T05:58:43Z,136459.6,NULL,Integrität,uadilifu,s,muungano,mtiririko,upunguaji,NA,sdf,NA,0,NA,NA,NA,NA,NA,NA,NA,NA,NA,NA,NA,NA,NA,NA,NA,NA,NA,NA,NA
bf798,task,flow.Sequence,3_0_0_0_3,NA,NA,completion,10083.4,126344.29999924,126342.9,126359.5,136442.9,136444,2024-05-04T05:58:43Z,136459.6,NULL,Integrität,uadilifu,s,muungano,mtiririko,upunguaji,NA,sdf,NA,0,NA,NA,NA,NA,NA,NA,NA,NA,NA,NA,NA,NA,NA,NA,NA,NA,NA,NA,NA
bf798,deep,flow.Sequence,3_0_0_0_4_0,NA,NA,skipped,NA,136444.10000038,NA,NA,136442.9,136444.19999886,2024-05-04T05:58:43Z,136459.6,NULL,Vermutung,udhanifu,s,haramia,tikisho,itifaki,NA,sdf,NA,0,NA,NA,NA,NA,NA,NA,NA,NA,NA,NA,NA,NA,NA,NA,NA,NA,NA,NA,NA
bf798,Shallow Question,html.Page,3_0_0_0_4_1_0,NA,NA,form submission,2618.6999992371,136444.29999924,136442.9,136459.6,139078.29999924,139078.5,2024-05-04T05:58:46Z,139092.8,NULL,Vermutung,udhanifu,s,haramia,tikisho,itifaki,itifaki,NA,NA,0,NA,NA,NA,NA,NA,NA,NA,NA,NA,NA,NA,NA,NA,NA,NA,NA,NA,NA,NA
bf798,"""Richtig""-Screen",canvas.Screen,3_0_0_0_4_1_1,NA,NA,skipped,NA,139080.10000038,NA,NA,139078.29999924,139080.19999886,2024-05-04T05:58:46Z,139092.8,NULL,Vermutung,udhanifu,s,haramia,tikisho,itifaki,NA,sdf,NA,0,NA,NA,NA,NA,NA,NA,NA,NA,NA,NA,NA,NA,NA,NA,NA,NA,NA,NA,NA
bf798,"""Falsch""-Screen",canvas.Screen,3_0_0_0_4_1_2,NA,NA,timeout,5000.1,139080.69999886,139076.22,139092.8,144076.2,144076.89999962,2024-05-04T05:58:51Z,144092.9,NULL,Vermutung,udhanifu,s,haramia,tikisho,itifaki,NA,sdf,0,0,NA,NA,NA,NA,NA,NA,NA,NA,NA,NA,NA,NA,NA,NA,NA,NA,NA,NA,NA
bf798,shallow,flow.Sequence,3_0_0_0_4_1,NA,NA,completion,7616.6,136444.19999886,136442.9,136459.6,144076.2,144077.29999924,2024-05-04T05:58:51Z,144092.9,NULL,Vermutung,udhanifu,s,haramia,tikisho,itifaki,NA,sdf,NA,0,NA,NA,NA,NA,NA,NA,NA,NA,NA,NA,NA,NA,NA,NA,NA,NA,NA,NA,NA
bf798,task,flow.Sequence,3_0_0_0_4,NA,NA,completion,7616.6,136444,136442.9,136459.6,144076.2,144077.5,2024-05-04T05:58:51Z,144092.9,NULL,Vermutung,udhanifu,s,haramia,tikisho,itifaki,NA,sdf,NA,0,NA,NA,NA,NA,NA,NA,NA,NA,NA,NA,NA,NA,NA,NA,NA,NA,NA,NA,NA
bf798,deep,flow.Sequence,3_0_0_0_5_0,NA,NA,skipped,NA,144077.5,NA,NA,144076.2,144077.69999886,2024-05-04T05:58:51Z,144092.9,NULL,Fleisch,mshakiki,s,kizunguzungu,mshikamano,angusho,NA,sdf,NA,0,NA,NA,NA,NA,NA,NA,NA,NA,NA,NA,NA,NA,NA,NA,NA,NA,NA,NA,NA
bf798,Shallow Question,html.Page,3_0_0_0_5_1_0,NA,NA,form submission,4033.2999988556,144077.79999924,144076.2,144092.9,148126.19999886,148126.39999962,2024-05-04T05:58:55Z,148143.1,NULL,Fleisch,mshakiki,s,kizunguzungu,mshikamano,angusho,angusho,NA,NA,0,NA,NA,NA,NA,NA,NA,NA,NA,NA,NA,NA,NA,NA,NA,NA,NA,NA,NA,NA
bf798,"""Richtig""-Screen",canvas.Screen,3_0_0_0_5_1_1,NA,NA,skipped,NA,148128.19999886,NA,NA,148126.19999886,148128.39999962,2024-05-04T05:58:55Z,148143.1,NULL,Fleisch,mshakiki,s,kizunguzungu,mshikamano,angusho,NA,sdf,NA,0,NA,NA,NA,NA,NA,NA,NA,NA,NA,NA,NA,NA,NA,NA,NA,NA,NA,NA,NA
bf798,"""Falsch""-Screen",canvas.Screen,3_0_0_0_5_1_2,NA,NA,timeout,4999.7,148128.89999962,148126.262,148143.1,153126.1,153128.39999962,2024-05-04T05:59:00Z,153142.8,NULL,Fleisch,mshakiki,s,kizunguzungu,mshikamano,angusho,NA,sdf,0,0,NA,NA,NA,NA,NA,NA,NA,NA,NA,NA,NA,NA,NA,NA,NA,NA,NA,NA,NA
bf798,shallow,flow.Sequence,3_0_0_0_5_1,NA,NA,completion,9033.2,144077.69999886,144076.2,144092.9,153126.1,153128.69999886,2024-05-04T05:59:00Z,153142.8,NULL,Fleisch,mshakiki,s,kizunguzungu,mshikamano,angusho,NA,sdf,NA,0,NA,NA,NA,NA,NA,NA,NA,NA,NA,NA,NA,NA,NA,NA,NA,NA,NA,NA,NA
bf798,task,flow.Sequence,3_0_0_0_5,NA,NA,completion,9033.2,144077.5,144076.2,144092.9,153126.1,153128.89999962,2024-05-04T05:59:00Z,153142.8,NULL,Fleisch,mshakiki,s,kizunguzungu,mshikamano,angusho,NA,sdf,NA,0,NA,NA,NA,NA,NA,NA,NA,NA,NA,NA,NA,NA,NA,NA,NA,NA,NA,NA,NA
bf798,Deep Question,html.Page,3_0_0_0_6_0_0,NA,NA,form submission,2608.3999988556,153129,153126.1,153142.8,155751.19999886,155751.39999962,2024-05-04T05:59:02Z,155759.4,NULL,Begegnung,kukutana,d,NA,NA,NA,s,NA,NA,0,NA,NA,NA,NA,NA,NA,NA,NA,NA,NA,NA,NA,NA,NA,NA,NA,NA,NA,NA
bf798,"""Richtig""-Screen",canvas.Screen,3_0_0_0_6_0_1,NA,NA,skipped,NA,155753.60000038,NA,NA,155751.19999886,155753.69999886,2024-05-04T05:59:02Z,155759.4,NULL,Begegnung,kukutana,d,NA,NA,NA,NA,sdf,NA,0,NA,NA,NA,NA,NA,NA,NA,NA,NA,NA,NA,NA,NA,NA,NA,NA,NA,NA,NA
bf798,"""Falsch""-Screen",canvas.Screen,3_0_0_0_6_0_2,NA,NA,timeout,5000,155754.5,155742.956,155759.4,160742.9,160743.60000038,2024-05-04T05:59:07Z,160759.4,NULL,Begegnung,kukutana,d,NA,NA,NA,NA,sdf,0,0,NA,NA,NA,NA,NA,NA,NA,NA,NA,NA,NA,NA,NA,NA,NA,NA,NA,NA,NA
bf798,deep,flow.Sequence,3_0_0_0_6_0,NA,NA,completion,7600.1,153129,153126.1,153142.8,160742.9,160743.79999924,2024-05-04T05:59:07Z,160759.4,NULL,Begegnung,kukutana,d,NA,NA,NA,NA,sdf,NA,0,NA,NA,NA,NA,NA,NA,NA,NA,NA,NA,NA,NA,NA,NA,NA,NA,NA,NA,NA
bf798,shallow,flow.Sequence,3_0_0_0_6_1,NA,NA,skipped,NA,160744,NA,NA,160742.9,160744.10000038,2024-05-04T05:59:07Z,160759.4,NULL,Begegnung,kukutana,d,NA,NA,NA,NA,sdf,NA,0,NA,NA,NA,NA,NA,NA,NA,NA,NA,NA,NA,NA,NA,NA,NA,NA,NA,NA,NA
bf798,task,flow.Sequence,3_0_0_0_6,NA,NA,completion,7600.1,153128.89999962,153126.1,153142.8,160742.9,160744.19999886,2024-05-04T05:59:07Z,160759.4,NULL,Begegnung,kukutana,d,NA,NA,NA,NA,sdf,NA,0,NA,NA,NA,NA,NA,NA,NA,NA,NA,NA,NA,NA,NA,NA,NA,NA,NA,NA,NA
bf798,deep,flow.Sequence,3_0_0_0_7_0,NA,NA,skipped,NA,160744.19999886,NA,NA,160742.9,160744.39999962,2024-05-04T05:59:07Z,160759.4,NULL,Inhalt,yaliyomo,s,kishawishi,hifadhi,kutembea,NA,sdf,NA,0,NA,NA,NA,NA,NA,NA,NA,NA,NA,NA,NA,NA,NA,NA,NA,NA,NA,NA,NA
bf798,Shallow Question,html.Page,3_0_0_0_7_1_0,NA,NA,form submission,3090.7000003815,160744.39999962,160742.9,160759.4,163850.10000038,163850.29999924,2024-05-04T05:59:10Z,163859.4,NULL,Inhalt,yaliyomo,s,kishawishi,hifadhi,kutembea,yaliyomo,NA,NA,0,NA,NA,NA,NA,NA,NA,NA,NA,NA,NA,NA,NA,NA,NA,NA,NA,NA,NA,NA
bf798,"""Richtig""-Screen",canvas.Screen,3_0_0_0_7_1_1,NA,NA,timeout,5000,163852,163842.902,163859.4,168842.8,168843.5,2024-05-04T05:59:15Z,168859.4,NULL,Inhalt,yaliyomo,s,kishawishi,hifadhi,kutembea,NA,sdf,1,0,NA,NA,NA,NA,NA,NA,NA,NA,NA,NA,NA,NA,NA,NA,NA,NA,NA,NA,NA
bf798,"""Falsch""-Screen",canvas.Screen,3_0_0_0_7_1_2,NA,NA,skipped,NA,168847.5,NA,NA,168842.8,168847.60000038,2024-05-04T05:59:15Z,168859.4,NULL,Inhalt,yaliyomo,s,kishawishi,hifadhi,kutembea,NA,sdf,NA,0,NA,NA,NA,NA,NA,NA,NA,NA,NA,NA,NA,NA,NA,NA,NA,NA,NA,NA,NA
bf798,shallow,flow.Sequence,3_0_0_0_7_1,NA,NA,completion,8083.4,160744.39999962,160742.9,160759.4,168842.8,168847.89999962,2024-05-04T05:59:15Z,168859.4,NULL,Inhalt,yaliyomo,s,kishawishi,hifadhi,kutembea,NA,sdf,NA,0,NA,NA,NA,NA,NA,NA,NA,NA,NA,NA,NA,NA,NA,NA,NA,NA,NA,NA,NA
bf798,task,flow.Sequence,3_0_0_0_7,NA,NA,completion,8083.4,160744.19999886,160742.9,160759.4,168842.8,168848,2024-05-04T05:59:15Z,168859.4,NULL,Inhalt,yaliyomo,s,kishawishi,hifadhi,kutembea,NA,sdf,NA,0,NA,NA,NA,NA,NA,NA,NA,NA,NA,NA,NA,NA,NA,NA,NA,NA,NA,NA,NA
bf798,block,flow.Loop,3_0_0_0,NA,NA,completion,66949.9,101888.10000038,101876.238,101892.9,168842.8,168848.19999886,2024-05-04T05:59:15Z,168859.4,NULL,NA,NA,NA,NA,NA,NA,NA,sdf,NA,0,NA,NA,NA,NA,NA,NA,NA,NA,NA,NA,NA,NA,NA,NA,NA,NA,NA,NA,NA
bf798,weiter,canvas.Screen,3_0_0_1,sdf,keypress(Space),response,1262.7000003815,168848.19999886,168842.8,168859.4,170122.10000038,170123,2024-05-04T05:59:17Z,170159.5,NULL,NA,NA,NA,NA,NA,NA,NA,sdf,NA,0,NA,NA,NA,NA,NA,NA,NA,NA,NA,NA,NA,NA,NA,NA,NA,NA,NA,NA,NA
bf798,check continue,flow.Sequence,3_0_0,NA,NA,completion,68229.200000381,101888.10000038,101876.238,101892.9,170122.10000038,170123.39999962,2024-05-04T05:59:17Z,170159.5,NULL,NA,NA,NA,NA,NA,NA,NA,sdf,NA,0,NA,NA,NA,NA,NA,NA,NA,NA,NA,NA,NA,NA,NA,NA,NA,NA,NA,NA,NA
bf798,Deep Question,html.Page,3_0_1_0_0_0_0,NA,NA,form submission,3485.5,170164.69999886,170159.348,170159.5,173645,173645.19999886,2024-05-04T05:59:20Z,173659.5,NULL,Schlange,foleni,d,NA,NA,NA,s,NA,NA,1,NA,NA,NA,NA,NA,NA,NA,NA,NA,NA,NA,NA,NA,NA,NA,NA,NA,NA,NA
bf798,"""Richtig""-Screen",canvas.Screen,3_0_1_0_0_0_1,NA,NA,skipped,NA,173645.89999962,NA,NA,173645,173646.10000038,2024-05-04T05:59:20Z,173659.5,NULL,Schlange,foleni,d,NA,NA,NA,NA,sdfdsf,NA,1,NA,NA,NA,NA,NA,NA,NA,NA,NA,NA,NA,NA,NA,NA,NA,NA,NA,NA,NA
bf798,"""Falsch""-Screen",canvas.Screen,3_0_1_0_0_0_2,NA,NA,timeout,5000,173646.79999924,173642.936,173659.5,178642.8,178643.60000038,2024-05-04T05:59:25Z,178659.5,NULL,Schlange,foleni,d,NA,NA,NA,NA,sdfdsf,0,1,NA,NA,NA,NA,NA,NA,NA,NA,NA,NA,NA,NA,NA,NA,NA,NA,NA,NA,NA
bf798,deep,flow.Sequence,3_0_1_0_0_0,NA,NA,completion,8483.3,170164.69999886,170159.348,170159.5,178642.8,178643.79999924,2024-05-04T05:59:25Z,178659.5,NULL,Schlange,foleni,d,NA,NA,NA,NA,sdfdsf,NA,1,NA,NA,NA,NA,NA,NA,NA,NA,NA,NA,NA,NA,NA,NA,NA,NA,NA,NA,NA
bf798,shallow,flow.Sequence,3_0_1_0_0_1,NA,NA,skipped,NA,178643.89999962,NA,NA,178642.8,178644,2024-05-04T05:59:25Z,178659.5,NULL,Schlange,foleni,d,NA,NA,NA,NA,sdfdsf,NA,1,NA,NA,NA,NA,NA,NA,NA,NA,NA,NA,NA,NA,NA,NA,NA,NA,NA,NA,NA
bf798,task,flow.Sequence,3_0_1_0_0,NA,NA,completion,8483.3,170164.10000038,170159.348,170159.5,178642.8,178644.10000038,2024-05-04T05:59:25Z,178659.5,NULL,Schlange,foleni,d,NA,NA,NA,NA,sdfdsf,NA,1,NA,NA,NA,NA,NA,NA,NA,NA,NA,NA,NA,NA,NA,NA,NA,NA,NA,NA,NA
bf798,Deep Question,html.Page,3_0_1_0_1_0_0,NA,NA,form submission,3230.6999988556,178644.29999924,178642.8,178659.5,181890.19999886,181890.39999962,2024-05-04T05:59:28Z,181892.918,NULL,Genehmigung,idhini,d,NA,NA,NA,s,NA,NA,1,NA,NA,NA,NA,NA,NA,NA,NA,NA,NA,NA,NA,NA,NA,NA,NA,NA,NA,NA
bf798,"""Richtig""-Screen",canvas.Screen,3_0_1_0_1_0_1,NA,NA,skipped,NA,181892.10000038,NA,NA,181890.19999886,181892.19999886,2024-05-04T05:59:28Z,181892.918,NULL,Genehmigung,idhini,d,NA,NA,NA,NA,sdfdsf,NA,1,NA,NA,NA,NA,NA,NA,NA,NA,NA,NA,NA,NA,NA,NA,NA,NA,NA,NA,NA
bf798,"""Falsch""-Screen",canvas.Screen,3_0_1_0_1_0_2,NA,NA,timeout,4999.882,181892.89999962,181892.918,181892.918,186876.1,186876.79999924,2024-05-04T05:59:33Z,186892.8,NULL,Genehmigung,idhini,d,NA,NA,NA,NA,sdfdsf,0,1,NA,NA,NA,NA,NA,NA,NA,NA,NA,NA,NA,NA,NA,NA,NA,NA,NA,NA,NA
bf798,deep,flow.Sequence,3_0_1_0_1_0,NA,NA,completion,8216.6,178644.19999886,178642.8,178659.5,186876.1,186877.10000038,2024-05-04T05:59:33Z,186892.8,NULL,Genehmigung,idhini,d,NA,NA,NA,NA,sdfdsf,NA,1,NA,NA,NA,NA,NA,NA,NA,NA,NA,NA,NA,NA,NA,NA,NA,NA,NA,NA,NA
bf798,shallow,flow.Sequence,3_0_1_0_1_1,NA,NA,skipped,NA,186877.29999924,NA,NA,186876.1,186877.29999924,2024-05-04T05:59:33Z,186892.8,NULL,Genehmigung,idhini,d,NA,NA,NA,NA,sdfdsf,NA,1,NA,NA,NA,NA,NA,NA,NA,NA,NA,NA,NA,NA,NA,NA,NA,NA,NA,NA,NA
bf798,task,flow.Sequence,3_0_1_0_1,NA,NA,completion,8216.6,178644.19999886,178642.8,178659.5,186876.1,186877.39999962,2024-05-04T05:59:33Z,186892.8,NULL,Genehmigung,idhini,d,NA,NA,NA,NA,sdfdsf,NA,1,NA,NA,NA,NA,NA,NA,NA,NA,NA,NA,NA,NA,NA,NA,NA,NA,NA,NA,NA
bf798,Deep Question,html.Page,3_0_1_0_2_0_0,NA,NA,form submission,2144.8999988556,186877.60000038,186876.1,186892.8,189037.69999886,189038,2024-05-04T05:59:35Z,189042.7,NULL,Begegnung,kukutana,d,NA,NA,NA,s,NA,NA,1,NA,NA,NA,NA,NA,NA,NA,NA,NA,NA,NA,NA,NA,NA,NA,NA,NA,NA,NA
bf798,"""Richtig""-Screen",canvas.Screen,3_0_1_0_2_0_1,NA,NA,skipped,NA,189039.89999962,NA,NA,189037.69999886,189040,2024-05-04T05:59:35Z,189042.7,NULL,Begegnung,kukutana,d,NA,NA,NA,NA,sdfdsf,NA,1,NA,NA,NA,NA,NA,NA,NA,NA,NA,NA,NA,NA,NA,NA,NA,NA,NA,NA,NA
bf798,"""Falsch""-Screen",canvas.Screen,3_0_1_0_2_0_2,NA,NA,timeout,5000.1,189040.5,189026.26,189042.7,194026.1,194026.79999924,2024-05-04T05:59:40Z,194042.8,NULL,Begegnung,kukutana,d,NA,NA,NA,NA,sdfdsf,0,1,NA,NA,NA,NA,NA,NA,NA,NA,NA,NA,NA,NA,NA,NA,NA,NA,NA,NA,NA
bf798,deep,flow.Sequence,3_0_1_0_2_0,NA,NA,completion,7133.3,186877.5,186876.1,186892.8,194026.1,194027,2024-05-04T05:59:40Z,194042.8,NULL,Begegnung,kukutana,d,NA,NA,NA,NA,sdfdsf,NA,1,NA,NA,NA,NA,NA,NA,NA,NA,NA,NA,NA,NA,NA,NA,NA,NA,NA,NA,NA
bf798,shallow,flow.Sequence,3_0_1_0_2_1,NA,NA,skipped,NA,194027.19999886,NA,NA,194026.1,194027.19999886,2024-05-04T05:59:40Z,194042.8,NULL,Begegnung,kukutana,d,NA,NA,NA,NA,sdfdsf,NA,1,NA,NA,NA,NA,NA,NA,NA,NA,NA,NA,NA,NA,NA,NA,NA,NA,NA,NA,NA
bf798,task,flow.Sequence,3_0_1_0_2,NA,NA,completion,7133.3,186877.5,186876.1,186892.8,194026.1,194027.29999924,2024-05-04T05:59:40Z,194042.8,NULL,Begegnung,kukutana,d,NA,NA,NA,NA,sdfdsf,NA,1,NA,NA,NA,NA,NA,NA,NA,NA,NA,NA,NA,NA,NA,NA,NA,NA,NA,NA,NA
bf798,deep,flow.Sequence,3_0_1_0_3_0,NA,NA,skipped,NA,194027.5,NA,NA,194026.1,194027.5,2024-05-04T05:59:40Z,194042.8,NULL,Fleisch,mshakiki,s,kizunguzungu,mshikamano,angusho,NA,sdfdsf,NA,1,NA,NA,NA,NA,NA,NA,NA,NA,NA,NA,NA,NA,NA,NA,NA,NA,NA,NA,NA
bf798,Shallow Question,html.Page,3_0_1_0_3_1_0,NA,NA,form submission,7557.2,194027.60000038,194026.1,194042.8,201600,201600.19999886,2024-05-04T05:59:48Z,201609.4,NULL,Fleisch,mshakiki,s,kizunguzungu,mshikamano,angusho,mshakiki,NA,NA,1,NA,NA,NA,NA,NA,NA,NA,NA,NA,NA,NA,NA,NA,NA,NA,NA,NA,NA,NA
bf798,"""Richtig""-Screen",canvas.Screen,3_0_1_0_3_1_1,NA,NA,timeout,5000,201601.89999962,201592.9,201609.4,206592.8,206593.5,2024-05-04T05:59:53Z,206609.4,NULL,Fleisch,mshakiki,s,kizunguzungu,mshikamano,angusho,NA,sdfdsf,1,1,NA,NA,NA,NA,NA,NA,NA,NA,NA,NA,NA,NA,NA,NA,NA,NA,NA,NA,NA
bf798,"""Falsch""-Screen",canvas.Screen,3_0_1_0_3_1_2,NA,NA,skipped,NA,206597.69999886,NA,NA,206592.8,206597.89999962,2024-05-04T05:59:53Z,206609.4,NULL,Fleisch,mshakiki,s,kizunguzungu,mshikamano,angusho,NA,sdfdsf,NA,1,NA,NA,NA,NA,NA,NA,NA,NA,NA,NA,NA,NA,NA,NA,NA,NA,NA,NA,NA
bf798,shallow,flow.Sequence,3_0_1_0_3_1,NA,NA,completion,12550,194027.60000038,194026.1,194042.8,206592.8,206598.10000038,2024-05-04T05:59:53Z,206609.4,NULL,Fleisch,mshakiki,s,kizunguzungu,mshikamano,angusho,NA,sdfdsf,NA,1,NA,NA,NA,NA,NA,NA,NA,NA,NA,NA,NA,NA,NA,NA,NA,NA,NA,NA,NA
bf798,task,flow.Sequence,3_0_1_0_3,NA,NA,completion,12550,194027.39999962,194026.1,194042.8,206592.8,206598.19999886,2024-05-04T05:59:53Z,206609.4,NULL,Fleisch,mshakiki,s,kizunguzungu,mshikamano,angusho,NA,sdfdsf,NA,1,NA,NA,NA,NA,NA,NA,NA,NA,NA,NA,NA,NA,NA,NA,NA,NA,NA,NA,NA
bf798,Deep Question,html.Page,3_0_1_0_4_0_0,NA,NA,form submission,1668.7999988556,206598.39999962,206592.8,206609.4,208278.19999886,208278.5,2024-05-04T05:59:55Z,208292.8,NULL,Toleranz,kuvumiliana,d,NA,NA,NA,s,NA,NA,1,NA,NA,NA,NA,NA,NA,NA,NA,NA,NA,NA,NA,NA,NA,NA,NA,NA,NA,NA
bf798,"""Richtig""-Screen",canvas.Screen,3_0_1_0_4_0_1,NA,NA,skipped,NA,208279.10000038,NA,NA,208278.19999886,208279.19999886,2024-05-04T05:59:55Z,208292.8,NULL,Toleranz,kuvumiliana,d,NA,NA,NA,NA,sdfdsf,NA,1,NA,NA,NA,NA,NA,NA,NA,NA,NA,NA,NA,NA,NA,NA,NA,NA,NA,NA,NA
bf798,"""Falsch""-Screen",canvas.Screen,3_0_1_0_4_0_2,NA,NA,timeout,5000,208279.89999962,208276.226,208292.8,213276.1,213277.5,2024-05-04T06:00:00Z,213292.8,NULL,Toleranz,kuvumiliana,d,NA,NA,NA,NA,sdfdsf,0,1,NA,NA,NA,NA,NA,NA,NA,NA,NA,NA,NA,NA,NA,NA,NA,NA,NA,NA,NA
bf798,deep,flow.Sequence,3_0_1_0_4_0,NA,NA,completion,6666.7,206598.29999924,206592.8,206609.4,213276.1,213277.79999924,2024-05-04T06:00:00Z,213292.8,NULL,Toleranz,kuvumiliana,d,NA,NA,NA,NA,sdfdsf,NA,1,NA,NA,NA,NA,NA,NA,NA,NA,NA,NA,NA,NA,NA,NA,NA,NA,NA,NA,NA
bf798,shallow,flow.Sequence,3_0_1_0_4_1,NA,NA,skipped,NA,213277.89999962,NA,NA,213276.1,213277.89999962,2024-05-04T06:00:00Z,213292.8,NULL,Toleranz,kuvumiliana,d,NA,NA,NA,NA,sdfdsf,NA,1,NA,NA,NA,NA,NA,NA,NA,NA,NA,NA,NA,NA,NA,NA,NA,NA,NA,NA,NA
bf798,task,flow.Sequence,3_0_1_0_4,NA,NA,completion,6666.7,206598.29999924,206592.8,206609.4,213276.1,213278.19999886,2024-05-04T06:00:00Z,213292.8,NULL,Toleranz,kuvumiliana,d,NA,NA,NA,NA,sdfdsf,NA,1,NA,NA,NA,NA,NA,NA,NA,NA,NA,NA,NA,NA,NA,NA,NA,NA,NA,NA,NA
bf798,deep,flow.Sequence,3_0_1_0_5_0,NA,NA,skipped,NA,213278.19999886,NA,NA,213276.1,213278.29999924,2024-05-04T06:00:00Z,213292.8,NULL,Integrität,uadilifu,s,muungano,mtiririko,upunguaji,NA,sdfdsf,NA,1,NA,NA,NA,NA,NA,NA,NA,NA,NA,NA,NA,NA,NA,NA,NA,NA,NA,NA,NA
bf798,Shallow Question,html.Page,3_0_1_0_5_1_0,NA,NA,form submission,4602.9999992371,213278.39999962,213276.1,213292.8,217895.79999924,217896.10000038,2024-05-04T06:00:04Z,217909.5,NULL,Integrität,uadilifu,s,muungano,mtiririko,upunguaji,uadilifu,NA,NA,1,NA,NA,NA,NA,NA,NA,NA,NA,NA,NA,NA,NA,NA,NA,NA,NA,NA,NA,NA
bf798,"""Richtig""-Screen",canvas.Screen,3_0_1_0_5_1_1,NA,NA,timeout,4999.9,217897.69999886,217892.86,217909.5,222892.8,222894.19999886,2024-05-04T06:00:09Z,222909.4,NULL,Integrität,uadilifu,s,muungano,mtiririko,upunguaji,NA,sdfdsf,1,1,NA,NA,NA,NA,NA,NA,NA,NA,NA,NA,NA,NA,NA,NA,NA,NA,NA,NA,NA
bf798,"""Falsch""-Screen",canvas.Screen,3_0_1_0_5_1_2,NA,NA,skipped,NA,222898.29999924,NA,NA,222892.8,222898.5,2024-05-04T06:00:09Z,222909.4,NULL,Integrität,uadilifu,s,muungano,mtiririko,upunguaji,NA,sdfdsf,NA,1,NA,NA,NA,NA,NA,NA,NA,NA,NA,NA,NA,NA,NA,NA,NA,NA,NA,NA,NA
bf798,shallow,flow.Sequence,3_0_1_0_5_1,NA,NA,completion,9600,213278.29999924,213276.1,213292.8,222892.8,222898.69999886,2024-05-04T06:00:09Z,222909.4,NULL,Integrität,uadilifu,s,muungano,mtiririko,upunguaji,NA,sdfdsf,NA,1,NA,NA,NA,NA,NA,NA,NA,NA,NA,NA,NA,NA,NA,NA,NA,NA,NA,NA,NA
bf798,task,flow.Sequence,3_0_1_0_5,NA,NA,completion,9600,213278.19999886,213276.1,213292.8,222892.8,222898.89999962,2024-05-04T06:00:09Z,222909.4,NULL,Integrität,uadilifu,s,muungano,mtiririko,upunguaji,NA,sdfdsf,NA,1,NA,NA,NA,NA,NA,NA,NA,NA,NA,NA,NA,NA,NA,NA,NA,NA,NA,NA,NA
bf798,deep,flow.Sequence,3_0_1_0_6_0,NA,NA,skipped,NA,222899.10000038,NA,NA,222892.8,222899.10000038,2024-05-04T06:00:09Z,222909.4,NULL,Vermutung,udhanifu,s,haramia,tikisho,itifaki,NA,sdfdsf,NA,1,NA,NA,NA,NA,NA,NA,NA,NA,NA,NA,NA,NA,NA,NA,NA,NA,NA,NA,NA
bf798,Shallow Question,html.Page,3_0_1_0_6_1_0,NA,NA,form submission,8506.6,222899.19999886,222892.8,222909.4,231416,231416.29999924,2024-05-04T06:00:18Z,231426.1,NULL,Vermutung,udhanifu,s,haramia,tikisho,itifaki,udhanifu,NA,NA,1,NA,NA,NA,NA,NA,NA,NA,NA,NA,NA,NA,NA,NA,NA,NA,NA,NA,NA,NA
bf798,"""Richtig""-Screen",canvas.Screen,3_0_1_0_6_1_1,NA,NA,timeout,5000,231418,231409.506,231426.1,236409.5,236410.10000038,2024-05-04T06:00:23Z,236426.1,NULL,Vermutung,udhanifu,s,haramia,tikisho,itifaki,NA,sdfdsf,1,1,NA,NA,NA,NA,NA,NA,NA,NA,NA,NA,NA,NA,NA,NA,NA,NA,NA,NA,NA
bf798,"""Falsch""-Screen",canvas.Screen,3_0_1_0_6_1_2,NA,NA,skipped,NA,236414.10000038,NA,NA,236409.5,236414.29999924,2024-05-04T06:00:23Z,236426.1,NULL,Vermutung,udhanifu,s,haramia,tikisho,itifaki,NA,sdfdsf,NA,1,NA,NA,NA,NA,NA,NA,NA,NA,NA,NA,NA,NA,NA,NA,NA,NA,NA,NA,NA
bf798,shallow,flow.Sequence,3_0_1_0_6_1,NA,NA,completion,13500.1,222899.10000038,222892.8,222909.4,236409.5,236414.5,2024-05-04T06:00:23Z,236426.1,NULL,Vermutung,udhanifu,s,haramia,tikisho,itifaki,NA,sdfdsf,NA,1,NA,NA,NA,NA,NA,NA,NA,NA,NA,NA,NA,NA,NA,NA,NA,NA,NA,NA,NA
bf798,task,flow.Sequence,3_0_1_0_6,NA,NA,completion,13500.1,222899,222892.8,222909.4,236409.5,236414.60000038,2024-05-04T06:00:23Z,236426.1,NULL,Vermutung,udhanifu,s,haramia,tikisho,itifaki,NA,sdfdsf,NA,1,NA,NA,NA,NA,NA,NA,NA,NA,NA,NA,NA,NA,NA,NA,NA,NA,NA,NA,NA
bf798,deep,flow.Sequence,3_0_1_0_7_0,NA,NA,skipped,NA,236414.79999924,NA,NA,236409.5,236414.79999924,2024-05-04T06:00:23Z,236426.1,NULL,Inhalt,yaliyomo,s,kishawishi,hifadhi,kutembea,NA,sdfdsf,NA,1,NA,NA,NA,NA,NA,NA,NA,NA,NA,NA,NA,NA,NA,NA,NA,NA,NA,NA,NA
bf798,Shallow Question,html.Page,3_0_1_0_7_1_0,NA,NA,form submission,7454.7999996185,236414.89999962,236409.5,236426.1,243880.89999962,243881.10000038,2024-05-04T06:00:30Z,243892.6,NULL,Inhalt,yaliyomo,s,kishawishi,hifadhi,kutembea,yaliyomo,NA,NA,1,NA,NA,NA,NA,NA,NA,NA,NA,NA,NA,NA,NA,NA,NA,NA,NA,NA,NA,NA
bf798,"""Richtig""-Screen",canvas.Screen,3_0_1_0_7_1_1,NA,NA,timeout,5000.2,243882.79999924,243876.226,243892.6,248876,248876.69999886,2024-05-04T06:00:35Z,248892.8,NULL,Inhalt,yaliyomo,s,kishawishi,hifadhi,kutembea,NA,sdfdsf,1,1,NA,NA,NA,NA,NA,NA,NA,NA,NA,NA,NA,NA,NA,NA,NA,NA,NA,NA,NA
bf798,"""Falsch""-Screen",canvas.Screen,3_0_1_0_7_1_2,NA,NA,skipped,NA,248880.79999924,NA,NA,248876,248881,2024-05-04T06:00:35Z,248892.8,NULL,Inhalt,yaliyomo,s,kishawishi,hifadhi,kutembea,NA,sdfdsf,NA,1,NA,NA,NA,NA,NA,NA,NA,NA,NA,NA,NA,NA,NA,NA,NA,NA,NA,NA,NA
bf798,shallow,flow.Sequence,3_0_1_0_7_1,NA,NA,completion,12449.9,236414.79999924,236409.5,236426.1,248876,248881.19999886,2024-05-04T06:00:35Z,248892.8,NULL,Inhalt,yaliyomo,s,kishawishi,hifadhi,kutembea,NA,sdfdsf,NA,1,NA,NA,NA,NA,NA,NA,NA,NA,NA,NA,NA,NA,NA,NA,NA,NA,NA,NA,NA
bf798,task,flow.Sequence,3_0_1_0_7,NA,NA,completion,12449.9,236414.69999886,236409.5,236426.1,248876,248881.29999924,2024-05-04T06:00:35Z,248892.8,NULL,Inhalt,yaliyomo,s,kishawishi,hifadhi,kutembea,NA,sdfdsf,NA,1,NA,NA,NA,NA,NA,NA,NA,NA,NA,NA,NA,NA,NA,NA,NA,NA,NA,NA,NA
bf798,block,flow.Loop,3_0_1_0,NA,NA,completion,78716.5,170164.10000038,170159.348,170159.5,248876,248881.5,2024-05-04T06:00:35Z,248892.8,NULL,NA,NA,NA,NA,NA,NA,NA,sdfdsf,NA,1,NA,NA,NA,NA,NA,NA,NA,NA,NA,NA,NA,NA,NA,NA,NA,NA,NA,NA,NA
bf798,weiter,canvas.Screen,3_0_1_1,sdf,keypress(Space),response,1021.5999996185,248881.5,248876,248892.8,249914.39999962,249915.19999886,2024-05-04T06:00:36Z,249959.3,NULL,NA,NA,NA,NA,NA,NA,NA,sdfdsf,NA,1,NA,NA,NA,NA,NA,NA,NA,NA,NA,NA,NA,NA,NA,NA,NA,NA,NA,NA,NA
bf798,check continue,flow.Sequence,3_0_1,NA,NA,completion,79754.899999619,170164,170159.348,170159.5,249914.39999962,249915.39999962,2024-05-04T06:00:36Z,249959.3,NULL,NA,NA,NA,NA,NA,NA,NA,sdfdsf,NA,1,NA,NA,NA,NA,NA,NA,NA,NA,NA,NA,NA,NA,NA,NA,NA,NA,NA,NA,NA
bf798,deep,flow.Sequence,3_0_2_0_0_0,NA,NA,skipped,NA,249957.29999924,NA,NA,249914.39999962,249957.39999962,2024-05-04T06:00:36Z,249959.3,NULL,Fleisch,mshakiki,s,kizunguzungu,mshikamano,angusho,NA,sdf,NA,2,NA,NA,NA,NA,NA,NA,NA,NA,NA,NA,NA,NA,NA,NA,NA,NA,NA,NA,NA
bf798,Shallow Question,html.Page,3_0_2_0_0_1_0,NA,NA,form submission,4800.4999992371,249957.5,249942.828,249959.3,254759.79999924,254760.10000038,2024-05-04T06:00:41Z,254776.7,NULL,Fleisch,mshakiki,s,kizunguzungu,mshikamano,angusho,mshakiki,NA,NA,2,NA,NA,NA,NA,NA,NA,NA,NA,NA,NA,NA,NA,NA,NA,NA,NA,NA,NA,NA
bf798,"""Richtig""-Screen",canvas.Screen,3_0_2_0_0_1_1,NA,NA,timeout,4999.3,254761.60000038,254759.524,254776.7,259759.4,259760.10000038,2024-05-04T06:00:46Z,259776,NULL,Fleisch,mshakiki,s,kizunguzungu,mshikamano,angusho,NA,sdf,1,2,NA,NA,NA,NA,NA,NA,NA,NA,NA,NA,NA,NA,NA,NA,NA,NA,NA,NA,NA
bf798,"""Falsch""-Screen",canvas.Screen,3_0_2_0_0_1_2,NA,NA,skipped,NA,259764.10000038,NA,NA,259759.4,259764.29999924,2024-05-04T06:00:46Z,259776,NULL,Fleisch,mshakiki,s,kizunguzungu,mshikamano,angusho,NA,sdf,NA,2,NA,NA,NA,NA,NA,NA,NA,NA,NA,NA,NA,NA,NA,NA,NA,NA,NA,NA,NA
bf798,shallow,flow.Sequence,3_0_2_0_0_1,NA,NA,completion,9800.1,249957.5,249942.828,249959.3,259759.4,259764.5,2024-05-04T06:00:46Z,259776,NULL,Fleisch,mshakiki,s,kizunguzungu,mshikamano,angusho,NA,sdf,NA,2,NA,NA,NA,NA,NA,NA,NA,NA,NA,NA,NA,NA,NA,NA,NA,NA,NA,NA,NA
bf798,task,flow.Sequence,3_0_2_0_0,NA,NA,completion,9800.1,249957.29999924,249942.828,249959.3,259759.4,259764.69999886,2024-05-04T06:00:46Z,259776,NULL,Fleisch,mshakiki,s,kizunguzungu,mshikamano,angusho,NA,sdf,NA,2,NA,NA,NA,NA,NA,NA,NA,NA,NA,NA,NA,NA,NA,NA,NA,NA,NA,NA,NA
bf798,Deep Question,html.Page,3_0_2_0_1_0_0,NA,NA,form submission,2694,259764.69999886,259759.4,259776,262470,262470.19999886,2024-05-04T06:00:49Z,262475.9,NULL,Begegnung,kukutana,d,NA,NA,NA,s,NA,NA,2,NA,NA,NA,NA,NA,NA,NA,NA,NA,NA,NA,NA,NA,NA,NA,NA,NA,NA,NA
bf798,"""Richtig""-Screen",canvas.Screen,3_0_2_0_1_0_1,NA,NA,skipped,NA,262471.69999886,NA,NA,262470,262471.89999962,2024-05-04T06:00:49Z,262475.9,NULL,Begegnung,kukutana,d,NA,NA,NA,NA,sdf,NA,2,NA,NA,NA,NA,NA,NA,NA,NA,NA,NA,NA,NA,NA,NA,NA,NA,NA,NA,NA
bf798,"""Falsch""-Screen",canvas.Screen,3_0_2_0_1_0_2,NA,NA,timeout,5000.1,262472.29999924,262459.496,262475.9,267459.5,267460,2024-05-04T06:00:54Z,267476,NULL,Begegnung,kukutana,d,NA,NA,NA,NA,sdf,0,2,NA,NA,NA,NA,NA,NA,NA,NA,NA,NA,NA,NA,NA,NA,NA,NA,NA,NA,NA
bf798,deep,flow.Sequence,3_0_2_0_1_0,NA,NA,completion,7683.5,259764.69999886,259759.4,259776,267459.5,267460.39999962,2024-05-04T06:00:54Z,267476,NULL,Begegnung,kukutana,d,NA,NA,NA,NA,sdf,NA,2,NA,NA,NA,NA,NA,NA,NA,NA,NA,NA,NA,NA,NA,NA,NA,NA,NA,NA,NA
bf798,shallow,flow.Sequence,3_0_2_0_1_1,NA,NA,skipped,NA,267460.39999962,NA,NA,267459.5,267460.5,2024-05-04T06:00:54Z,267476,NULL,Begegnung,kukutana,d,NA,NA,NA,NA,sdf,NA,2,NA,NA,NA,NA,NA,NA,NA,NA,NA,NA,NA,NA,NA,NA,NA,NA,NA,NA,NA
bf798,task,flow.Sequence,3_0_2_0_1,NA,NA,completion,7683.5,259764.69999886,259759.4,259776,267459.5,267460.60000038,2024-05-04T06:00:54Z,267476,NULL,Begegnung,kukutana,d,NA,NA,NA,NA,sdf,NA,2,NA,NA,NA,NA,NA,NA,NA,NA,NA,NA,NA,NA,NA,NA,NA,NA,NA,NA,NA
bf798,deep,flow.Sequence,3_0_2_0_2_0,NA,NA,skipped,NA,267460.69999886,NA,NA,267459.5,267460.79999924,2024-05-04T06:00:54Z,267476,NULL,Integrität,uadilifu,s,muungano,mtiririko,upunguaji,NA,sdf,NA,2,NA,NA,NA,NA,NA,NA,NA,NA,NA,NA,NA,NA,NA,NA,NA,NA,NA,NA,NA
bf798,Shallow Question,html.Page,3_0_2_0_2_1_0,NA,NA,form submission,6769.8999996185,267460.89999962,267459.5,267476,274245.89999962,274246.10000038,2024-05-04T06:01:01Z,274259.3,NULL,Integrität,uadilifu,s,muungano,mtiririko,upunguaji,uadilifu,NA,NA,2,NA,NA,NA,NA,NA,NA,NA,NA,NA,NA,NA,NA,NA,NA,NA,NA,NA,NA,NA
bf798,"""Richtig""-Screen",canvas.Screen,3_0_2_0_2_1_1,NA,NA,timeout,5000.2,274247.79999924,274242.794,274259.3,279242.8,279243.39999962,2024-05-04T06:01:06Z,279259.5,NULL,Integrität,uadilifu,s,muungano,mtiririko,upunguaji,NA,sdf,1,2,NA,NA,NA,NA,NA,NA,NA,NA,NA,NA,NA,NA,NA,NA,NA,NA,NA,NA,NA
bf798,"""Falsch""-Screen",canvas.Screen,3_0_2_0_2_1_2,NA,NA,skipped,NA,279247.60000038,NA,NA,279242.8,279247.69999886,2024-05-04T06:01:06Z,279259.5,NULL,Integrität,uadilifu,s,muungano,mtiririko,upunguaji,NA,sdf,NA,2,NA,NA,NA,NA,NA,NA,NA,NA,NA,NA,NA,NA,NA,NA,NA,NA,NA,NA,NA
bf798,shallow,flow.Sequence,3_0_2_0_2_1,NA,NA,completion,11766.8,267460.89999962,267459.5,267476,279242.8,279248,2024-05-04T06:01:06Z,279259.5,NULL,Integrität,uadilifu,s,muungano,mtiririko,upunguaji,NA,sdf,NA,2,NA,NA,NA,NA,NA,NA,NA,NA,NA,NA,NA,NA,NA,NA,NA,NA,NA,NA,NA
bf798,task,flow.Sequence,3_0_2_0_2,NA,NA,completion,11766.8,267460.69999886,267459.5,267476,279242.8,279248.19999886,2024-05-04T06:01:06Z,279259.5,NULL,Integrität,uadilifu,s,muungano,mtiririko,upunguaji,NA,sdf,NA,2,NA,NA,NA,NA,NA,NA,NA,NA,NA,NA,NA,NA,NA,NA,NA,NA,NA,NA,NA
bf798,Deep Question,html.Page,3_0_2_0_3_0_0,NA,NA,form submission,3493.3999996185,279248.29999924,279242.8,279259.5,282752.89999962,282753.19999886,2024-05-04T06:01:09Z,282759.4,NULL,Genehmigung,idhini,d,NA,NA,NA,s,NA,NA,2,NA,NA,NA,NA,NA,NA,NA,NA,NA,NA,NA,NA,NA,NA,NA,NA,NA,NA,NA
bf798,"""Richtig""-Screen",canvas.Screen,3_0_2_0_3_0_1,NA,NA,skipped,NA,282754.79999924,NA,NA,282752.89999962,282754.89999962,2024-05-04T06:01:09Z,282759.4,NULL,Genehmigung,idhini,d,NA,NA,NA,NA,sdf,NA,2,NA,NA,NA,NA,NA,NA,NA,NA,NA,NA,NA,NA,NA,NA,NA,NA,NA,NA,NA
bf798,"""Falsch""-Screen",canvas.Screen,3_0_2_0_3_0_2,NA,NA,timeout,5000,282755.29999924,282742.812,282759.4,287742.7,287743.29999924,2024-05-04T06:01:14Z,287759.4,NULL,Genehmigung,idhini,d,NA,NA,NA,NA,sdf,0,2,NA,NA,NA,NA,NA,NA,NA,NA,NA,NA,NA,NA,NA,NA,NA,NA,NA,NA,NA
bf798,deep,flow.Sequence,3_0_2_0_3_0,NA,NA,completion,8483.2,279248.19999886,279242.8,279259.5,287742.7,287743.69999886,2024-05-04T06:01:14Z,287759.4,NULL,Genehmigung,idhini,d,NA,NA,NA,NA,sdf,NA,2,NA,NA,NA,NA,NA,NA,NA,NA,NA,NA,NA,NA,NA,NA,NA,NA,NA,NA,NA
bf798,shallow,flow.Sequence,3_0_2_0_3_1,NA,NA,skipped,NA,287743.79999924,NA,NA,287742.7,287743.79999924,2024-05-04T06:01:14Z,287759.4,NULL,Genehmigung,idhini,d,NA,NA,NA,NA,sdf,NA,2,NA,NA,NA,NA,NA,NA,NA,NA,NA,NA,NA,NA,NA,NA,NA,NA,NA,NA,NA
bf798,task,flow.Sequence,3_0_2_0_3,NA,NA,completion,8483.2,279248.19999886,279242.8,279259.5,287742.7,287743.89999962,2024-05-04T06:01:14Z,287759.4,NULL,Genehmigung,idhini,d,NA,NA,NA,NA,sdf,NA,2,NA,NA,NA,NA,NA,NA,NA,NA,NA,NA,NA,NA,NA,NA,NA,NA,NA,NA,NA
bf798,Deep Question,html.Page,3_0_2_0_4_0_0,NA,NA,form submission,4062.399999237,287744.19999886,287742.7,287759.4,291821.79999924,291822,2024-05-04T06:01:18Z,291842.7,NULL,Schlange,foleni,d,NA,NA,NA,s,NA,NA,2,NA,NA,NA,NA,NA,NA,NA,NA,NA,NA,NA,NA,NA,NA,NA,NA,NA,NA,NA
bf798,"""Richtig""-Screen",canvas.Screen,3_0_2_0_4_0_1,NA,NA,skipped,NA,291823.69999886,NA,NA,291821.79999924,291823.89999962,2024-05-04T06:01:18Z,291842.7,NULL,Schlange,foleni,d,NA,NA,NA,NA,sdf,NA,2,NA,NA,NA,NA,NA,NA,NA,NA,NA,NA,NA,NA,NA,NA,NA,NA,NA,NA,NA
bf798,"""Falsch""-Screen",canvas.Screen,3_0_2_0_4_0_2,NA,NA,timeout,5000,291824.29999924,291826.166,291842.7,296826,296826.60000038,2024-05-04T06:01:23Z,296842.7,NULL,Schlange,foleni,d,NA,NA,NA,NA,sdf,0,2,NA,NA,NA,NA,NA,NA,NA,NA,NA,NA,NA,NA,NA,NA,NA,NA,NA,NA,NA
bf798,deep,flow.Sequence,3_0_2_0_4_0,NA,NA,completion,9066.6,287744.10000038,287742.7,287759.4,296826,296827,2024-05-04T06:01:23Z,296842.7,NULL,Schlange,foleni,d,NA,NA,NA,NA,sdf,NA,2,NA,NA,NA,NA,NA,NA,NA,NA,NA,NA,NA,NA,NA,NA,NA,NA,NA,NA,NA
bf798,shallow,flow.Sequence,3_0_2_0_4_1,NA,NA,skipped,NA,296827.10000038,NA,NA,296826,296827.10000038,2024-05-04T06:01:23Z,296842.7,NULL,Schlange,foleni,d,NA,NA,NA,NA,sdf,NA,2,NA,NA,NA,NA,NA,NA,NA,NA,NA,NA,NA,NA,NA,NA,NA,NA,NA,NA,NA
bf798,task,flow.Sequence,3_0_2_0_4,NA,NA,completion,9066.6,287744,287742.7,287759.4,296826,296827.19999886,2024-05-04T06:01:23Z,296842.7,NULL,Schlange,foleni,d,NA,NA,NA,NA,sdf,NA,2,NA,NA,NA,NA,NA,NA,NA,NA,NA,NA,NA,NA,NA,NA,NA,NA,NA,NA,NA
bf798,deep,flow.Sequence,3_0_2_0_5_0,NA,NA,skipped,NA,296827.29999924,NA,NA,296826,296827.39999962,2024-05-04T06:01:23Z,296842.7,NULL,Inhalt,yaliyomo,s,kishawishi,hifadhi,kutembea,NA,sdf,NA,2,NA,NA,NA,NA,NA,NA,NA,NA,NA,NA,NA,NA,NA,NA,NA,NA,NA,NA,NA
bf798,Shallow Question,html.Page,3_0_2_0_5_1_0,NA,NA,form submission,5165.599999237,296827.5,296826,296842.7,302008.29999924,302008.5,2024-05-04T06:01:28Z,302009.494,NULL,Inhalt,yaliyomo,s,kishawishi,hifadhi,kutembea,yaliyomo,NA,NA,2,NA,NA,NA,NA,NA,NA,NA,NA,NA,NA,NA,NA,NA,NA,NA,NA,NA,NA,NA
bf798,"""Richtig""-Screen",canvas.Screen,3_0_2_0_5_1_1,NA,NA,timeout,4999.806,302010.19999886,302009.494,302009.494,306992.7,306993.39999962,2024-05-04T06:01:33Z,307009.3,NULL,Inhalt,yaliyomo,s,kishawishi,hifadhi,kutembea,NA,sdf,1,2,NA,NA,NA,NA,NA,NA,NA,NA,NA,NA,NA,NA,NA,NA,NA,NA,NA,NA,NA
bf798,"""Falsch""-Screen",canvas.Screen,3_0_2_0_5_1_2,NA,NA,skipped,NA,306997.29999924,NA,NA,306992.7,306997.5,2024-05-04T06:01:33Z,307009.3,NULL,Inhalt,yaliyomo,s,kishawishi,hifadhi,kutembea,NA,sdf,NA,2,NA,NA,NA,NA,NA,NA,NA,NA,NA,NA,NA,NA,NA,NA,NA,NA,NA,NA,NA
bf798,shallow,flow.Sequence,3_0_2_0_5_1,NA,NA,completion,10150,296827.5,296826,296842.7,306992.7,306997.69999886,2024-05-04T06:01:33Z,307009.3,NULL,Inhalt,yaliyomo,s,kishawishi,hifadhi,kutembea,NA,sdf,NA,2,NA,NA,NA,NA,NA,NA,NA,NA,NA,NA,NA,NA,NA,NA,NA,NA,NA,NA,NA
bf798,task,flow.Sequence,3_0_2_0_5,NA,NA,completion,10150,296827.29999924,296826,296842.7,306992.7,306997.79999924,2024-05-04T06:01:33Z,307009.3,NULL,Inhalt,yaliyomo,s,kishawishi,hifadhi,kutembea,NA,sdf,NA,2,NA,NA,NA,NA,NA,NA,NA,NA,NA,NA,NA,NA,NA,NA,NA,NA,NA,NA,NA
bf798,Deep Question,html.Page,3_0_2_0_6_0_0,NA,NA,form submission,3885.9999992371,306997.89999962,306992.7,307009.3,310895.29999924,310895.5,2024-05-04T06:01:37Z,310909.2,NULL,Toleranz,kuvumiliana,d,NA,NA,NA,s,NA,NA,2,NA,NA,NA,NA,NA,NA,NA,NA,NA,NA,NA,NA,NA,NA,NA,NA,NA,NA,NA
bf798,"""Richtig""-Screen",canvas.Screen,3_0_2_0_6_0_1,NA,NA,skipped,NA,310897.19999886,NA,NA,310895.29999924,310897.29999924,2024-05-04T06:01:37Z,310909.2,NULL,Toleranz,kuvumiliana,d,NA,NA,NA,NA,sdf,NA,2,NA,NA,NA,NA,NA,NA,NA,NA,NA,NA,NA,NA,NA,NA,NA,NA,NA,NA,NA
bf798,"""Falsch""-Screen",canvas.Screen,3_0_2_0_6_0_2,NA,NA,timeout,5000.2,310897.89999962,310893.718,310909.2,315892.7,315893.29999924,2024-05-04T06:01:42Z,315909.4,NULL,Toleranz,kuvumiliana,d,NA,NA,NA,NA,sdf,0,2,NA,NA,NA,NA,NA,NA,NA,NA,NA,NA,NA,NA,NA,NA,NA,NA,NA,NA,NA
bf798,deep,flow.Sequence,3_0_2_0_6_0,NA,NA,completion,8883.4,306997.89999962,306992.7,307009.3,315892.7,315893.79999924,2024-05-04T06:01:42Z,315909.4,NULL,Toleranz,kuvumiliana,d,NA,NA,NA,NA,sdf,NA,2,NA,NA,NA,NA,NA,NA,NA,NA,NA,NA,NA,NA,NA,NA,NA,NA,NA,NA,NA
bf798,shallow,flow.Sequence,3_0_2_0_6_1,NA,NA,skipped,NA,315893.89999962,NA,NA,315892.7,315894,2024-05-04T06:01:42Z,315909.4,NULL,Toleranz,kuvumiliana,d,NA,NA,NA,NA,sdf,NA,2,NA,NA,NA,NA,NA,NA,NA,NA,NA,NA,NA,NA,NA,NA,NA,NA,NA,NA,NA
bf798,task,flow.Sequence,3_0_2_0_6,NA,NA,completion,8883.4,306997.89999962,306992.7,307009.3,315892.7,315894,2024-05-04T06:01:42Z,315909.4,NULL,Toleranz,kuvumiliana,d,NA,NA,NA,NA,sdf,NA,2,NA,NA,NA,NA,NA,NA,NA,NA,NA,NA,NA,NA,NA,NA,NA,NA,NA,NA,NA
bf798,deep,flow.Sequence,3_0_2_0_7_0,NA,NA,skipped,NA,315894.10000038,NA,NA,315892.7,315894.19999886,2024-05-04T06:01:42Z,315909.4,NULL,Vermutung,udhanifu,s,haramia,tikisho,itifaki,NA,sdf,NA,2,NA,NA,NA,NA,NA,NA,NA,NA,NA,NA,NA,NA,NA,NA,NA,NA,NA,NA,NA
bf798,Shallow Question,html.Page,3_0_2_0_7_1_0,NA,NA,form submission,6824.4999996185,315894.29999924,315892.7,315909.4,322733.89999962,322734.19999886,2024-05-04T06:01:49Z,322742.6,NULL,Vermutung,udhanifu,s,haramia,tikisho,itifaki,udhanifu,NA,NA,2,NA,NA,NA,NA,NA,NA,NA,NA,NA,NA,NA,NA,NA,NA,NA,NA,NA,NA,NA
bf798,"""Richtig""-Screen",canvas.Screen,3_0_2_0_7_1_1,NA,NA,timeout,5000.1,322735.79999924,322726.116,322742.6,327726,327726.69999886,2024-05-04T06:01:54Z,327742.7,NULL,Vermutung,udhanifu,s,haramia,tikisho,itifaki,NA,sdf,1,2,NA,NA,NA,NA,NA,NA,NA,NA,NA,NA,NA,NA,NA,NA,NA,NA,NA,NA,NA
bf798,"""Falsch""-Screen",canvas.Screen,3_0_2_0_7_1_2,NA,NA,skipped,NA,327730.89999962,NA,NA,327726,327731,2024-05-04T06:01:54Z,327742.7,NULL,Vermutung,udhanifu,s,haramia,tikisho,itifaki,NA,sdf,NA,2,NA,NA,NA,NA,NA,NA,NA,NA,NA,NA,NA,NA,NA,NA,NA,NA,NA,NA,NA
bf798,shallow,flow.Sequence,3_0_2_0_7_1,NA,NA,completion,11816.6,315894.29999924,315892.7,315909.4,327726,327731.29999924,2024-05-04T06:01:54Z,327742.7,NULL,Vermutung,udhanifu,s,haramia,tikisho,itifaki,NA,sdf,NA,2,NA,NA,NA,NA,NA,NA,NA,NA,NA,NA,NA,NA,NA,NA,NA,NA,NA,NA,NA
bf798,task,flow.Sequence,3_0_2_0_7,NA,NA,completion,11816.6,315894.10000038,315892.7,315909.4,327726,327731.39999962,2024-05-04T06:01:54Z,327742.7,NULL,Vermutung,udhanifu,s,haramia,tikisho,itifaki,NA,sdf,NA,2,NA,NA,NA,NA,NA,NA,NA,NA,NA,NA,NA,NA,NA,NA,NA,NA,NA,NA,NA
bf798,block,flow.Loop,3_0_2_0,NA,NA,completion,77766.7,249957.29999924,249942.828,249959.3,327726,327731.5,2024-05-04T06:01:54Z,327742.7,NULL,NA,NA,NA,NA,NA,NA,NA,sdf,NA,2,NA,NA,NA,NA,NA,NA,NA,NA,NA,NA,NA,NA,NA,NA,NA,NA,NA,NA,NA
bf798,weiter,canvas.Screen,3_0_2_1,sdf,keypress(Space),response,826.29999999999,327731.69999886,327726,327742.7,328569,328569.89999962,2024-05-04T06:01:55Z,328592.7,NULL,NA,NA,NA,NA,NA,NA,NA,sdf,NA,2,NA,NA,NA,NA,NA,NA,NA,NA,NA,NA,NA,NA,NA,NA,NA,NA,NA,NA,NA
bf798,check continue,flow.Sequence,3_0_2,NA,NA,completion,78609.7,249957.29999924,249942.828,249959.3,328569,328570.10000038,2024-05-04T06:01:55Z,328592.7,NULL,NA,NA,NA,NA,NA,NA,NA,sdf,NA,2,NA,NA,NA,NA,NA,NA,NA,NA,NA,NA,NA,NA,NA,NA,NA,NA,NA,NA,NA
bf798,deep,flow.Sequence,3_0_3_0_0_0,NA,NA,skipped,NA,328605.29999924,NA,NA,328569,328605.29999924,2024-05-04T06:01:55Z,328592.7,NULL,Vermutung,udhanifu,s,haramia,tikisho,itifaki,NA,qt,NA,3,NA,NA,NA,NA,NA,NA,NA,NA,NA,NA,NA,NA,NA,NA,NA,NA,NA,NA,NA
bf798,Shallow Question,html.Page,3_0_3_0_0_1_0,NA,NA,form submission,2820.099999237,328605.39999962,328592.7,328592.7,331412.79999924,331413,2024-05-04T06:01:58Z,331426,NULL,Vermutung,udhanifu,s,haramia,tikisho,itifaki,udhanifu,NA,NA,3,NA,NA,NA,NA,NA,NA,NA,NA,NA,NA,NA,NA,NA,NA,NA,NA,NA,NA,NA
bf798,"""Richtig""-Screen",canvas.Screen,3_0_3_0_0_1_1,NA,NA,timeout,5000,331414.5,331409.43,331426,336409.4,336410,2024-05-04T06:02:03Z,336426,NULL,Vermutung,udhanifu,s,haramia,tikisho,itifaki,NA,qt,1,3,NA,NA,NA,NA,NA,NA,NA,NA,NA,NA,NA,NA,NA,NA,NA,NA,NA,NA,NA
bf798,"""Falsch""-Screen",canvas.Screen,3_0_3_0_0_1_2,NA,NA,skipped,NA,336413.89999962,NA,NA,336409.4,336414.19999886,2024-05-04T06:02:03Z,336426,NULL,Vermutung,udhanifu,s,haramia,tikisho,itifaki,NA,qt,NA,3,NA,NA,NA,NA,NA,NA,NA,NA,NA,NA,NA,NA,NA,NA,NA,NA,NA,NA,NA
bf798,shallow,flow.Sequence,3_0_3_0_0_1,NA,NA,completion,7816.7,328605.39999962,328592.7,328592.7,336409.4,336414.29999924,2024-05-04T06:02:03Z,336426,NULL,Vermutung,udhanifu,s,haramia,tikisho,itifaki,NA,qt,NA,3,NA,NA,NA,NA,NA,NA,NA,NA,NA,NA,NA,NA,NA,NA,NA,NA,NA,NA,NA
bf798,task,flow.Sequence,3_0_3_0_0,NA,NA,completion,7816.7,328605.29999924,328592.7,328592.7,336409.4,336414.39999962,2024-05-04T06:02:03Z,336426,NULL,Vermutung,udhanifu,s,haramia,tikisho,itifaki,NA,qt,NA,3,NA,NA,NA,NA,NA,NA,NA,NA,NA,NA,NA,NA,NA,NA,NA,NA,NA,NA,NA
bf798,deep,flow.Sequence,3_0_3_0_1_0,NA,NA,skipped,NA,336414.60000038,NA,NA,336409.4,336414.60000038,2024-05-04T06:02:03Z,336426,NULL,Integrität,uadilifu,s,muungano,mtiririko,upunguaji,NA,qt,NA,3,NA,NA,NA,NA,NA,NA,NA,NA,NA,NA,NA,NA,NA,NA,NA,NA,NA,NA,NA
bf798,Shallow Question,html.Page,3_0_3_0_1_1_0,NA,NA,form submission,17027.600000381,336414.69999886,336409.4,336426,353453.60000038,353453.89999962,2024-05-04T06:02:20Z,353461.1,NULL,Integrität,uadilifu,s,muungano,mtiririko,upunguaji,uadilifu,NA,NA,3,NA,NA,NA,NA,NA,NA,NA,NA,NA,NA,NA,NA,NA,NA,NA,NA,NA,NA,NA
bf798,"""Richtig""-Screen",canvas.Screen,3_0_3_0_1_1_1,NA,NA,timeout,4998.3,353455.69999886,353442.714,353461.1,358442.6,358443.39999962,2024-05-04T06:02:25Z,358459.4,NULL,Integrität,uadilifu,s,muungano,mtiririko,upunguaji,NA,qt,1,3,NA,NA,NA,NA,NA,NA,NA,NA,NA,NA,NA,NA,NA,NA,NA,NA,NA,NA,NA
bf798,"""Falsch""-Screen",canvas.Screen,3_0_3_0_1_1_2,NA,NA,skipped,NA,358447.5,NA,NA,358442.6,358447.69999886,2024-05-04T06:02:25Z,358459.4,NULL,Integrität,uadilifu,s,muungano,mtiririko,upunguaji,NA,qt,NA,3,NA,NA,NA,NA,NA,NA,NA,NA,NA,NA,NA,NA,NA,NA,NA,NA,NA,NA,NA
bf798,shallow,flow.Sequence,3_0_3_0_1_1,NA,NA,completion,22016.6,336414.69999886,336409.4,336426,358442.6,358447.89999962,2024-05-04T06:02:25Z,358459.4,NULL,Integrität,uadilifu,s,muungano,mtiririko,upunguaji,NA,qt,NA,3,NA,NA,NA,NA,NA,NA,NA,NA,NA,NA,NA,NA,NA,NA,NA,NA,NA,NA,NA
bf798,task,flow.Sequence,3_0_3_0_1,NA,NA,completion,22016.6,336414.60000038,336409.4,336426,358442.6,358448.10000038,2024-05-04T06:02:25Z,358459.4,NULL,Integrität,uadilifu,s,muungano,mtiririko,upunguaji,NA,qt,NA,3,NA,NA,NA,NA,NA,NA,NA,NA,NA,NA,NA,NA,NA,NA,NA,NA,NA,NA,NA
bf798,Deep Question,html.Page,3_0_3_0_2_0_0,NA,NA,form submission,6239.399999237,358448.19999886,358442.6,358459.4,364698.79999924,364699,2024-05-04T06:02:31Z,364709.2,NULL,Schlange,foleni,d,NA,NA,NA,foleni,NA,NA,3,NA,NA,NA,NA,NA,NA,NA,NA,NA,NA,NA,NA,NA,NA,NA,NA,NA,NA,NA
bf798,"""Richtig""-Screen",canvas.Screen,3_0_3_0_2_0_1,NA,NA,timeout,5000,364700.60000038,364692.6,364709.2,369692.6,369693.29999924,2024-05-04T06:02:36Z,369709.2,NULL,Schlange,foleni,d,NA,NA,NA,NA,qt,1,3,NA,NA,NA,NA,NA,NA,NA,NA,NA,NA,NA,NA,NA,NA,NA,NA,NA,NA,NA
bf798,"""Falsch""-Screen",canvas.Screen,3_0_3_0_2_0_2,NA,NA,skipped,NA,369697.29999924,NA,NA,369692.6,369697.5,2024-05-04T06:02:36Z,369709.2,NULL,Schlange,foleni,d,NA,NA,NA,NA,qt,NA,3,NA,NA,NA,NA,NA,NA,NA,NA,NA,NA,NA,NA,NA,NA,NA,NA,NA,NA,NA
bf798,deep,flow.Sequence,3_0_3_0_2_0,NA,NA,completion,11233.2,358448.19999886,358442.6,358459.4,369692.6,369697.60000038,2024-05-04T06:02:36Z,369709.2,NULL,Schlange,foleni,d,NA,NA,NA,NA,qt,NA,3,NA,NA,NA,NA,NA,NA,NA,NA,NA,NA,NA,NA,NA,NA,NA,NA,NA,NA,NA
bf798,shallow,flow.Sequence,3_0_3_0_2_1,NA,NA,skipped,NA,369697.69999886,NA,NA,369692.6,369697.79999924,2024-05-04T06:02:36Z,369709.2,NULL,Schlange,foleni,d,NA,NA,NA,NA,qt,NA,3,NA,NA,NA,NA,NA,NA,NA,NA,NA,NA,NA,NA,NA,NA,NA,NA,NA,NA,NA
bf798,task,flow.Sequence,3_0_3_0_2,NA,NA,completion,11233.2,358448.19999886,358442.6,358459.4,369692.6,369697.89999962,2024-05-04T06:02:36Z,369709.2,NULL,Schlange,foleni,d,NA,NA,NA,NA,qt,NA,3,NA,NA,NA,NA,NA,NA,NA,NA,NA,NA,NA,NA,NA,NA,NA,NA,NA,NA,NA
bf798,deep,flow.Sequence,3_0_3_0_3_0,NA,NA,skipped,NA,369698,NA,NA,369692.6,369698.10000038,2024-05-04T06:02:36Z,369709.2,NULL,Fleisch,mshakiki,s,kizunguzungu,mshikamano,angusho,NA,qt,NA,3,NA,NA,NA,NA,NA,NA,NA,NA,NA,NA,NA,NA,NA,NA,NA,NA,NA,NA,NA
bf798,Shallow Question,html.Page,3_0_3_0_3_1_0,NA,NA,form submission,6395.4000003815,369698.10000038,369692.6,369709.2,376104.60000038,376104.79999924,2024-05-04T06:02:43Z,376109.2,NULL,Fleisch,mshakiki,s,kizunguzungu,mshikamano,angusho,mshakiki,NA,NA,3,NA,NA,NA,NA,NA,NA,NA,NA,NA,NA,NA,NA,NA,NA,NA,NA,NA,NA,NA
bf798,"""Richtig""-Screen",canvas.Screen,3_0_3_0_3_1_1,NA,NA,timeout,5000,376106.29999924,376092.708,376109.2,381092.6,381093.29999924,2024-05-04T06:02:48Z,381109.2,NULL,Fleisch,mshakiki,s,kizunguzungu,mshikamano,angusho,NA,qt,1,3,NA,NA,NA,NA,NA,NA,NA,NA,NA,NA,NA,NA,NA,NA,NA,NA,NA,NA,NA
bf798,"""Falsch""-Screen",canvas.Screen,3_0_3_0_3_1_2,NA,NA,skipped,NA,381097.29999924,NA,NA,381092.6,381097.5,2024-05-04T06:02:48Z,381109.2,NULL,Fleisch,mshakiki,s,kizunguzungu,mshikamano,angusho,NA,qt,NA,3,NA,NA,NA,NA,NA,NA,NA,NA,NA,NA,NA,NA,NA,NA,NA,NA,NA,NA,NA
bf798,shallow,flow.Sequence,3_0_3_0_3_1,NA,NA,completion,11383.4,369698.10000038,369692.6,369709.2,381092.6,381097.69999886,2024-05-04T06:02:48Z,381109.2,NULL,Fleisch,mshakiki,s,kizunguzungu,mshikamano,angusho,NA,qt,NA,3,NA,NA,NA,NA,NA,NA,NA,NA,NA,NA,NA,NA,NA,NA,NA,NA,NA,NA,NA
bf798,task,flow.Sequence,3_0_3_0_3,NA,NA,completion,11383.4,369698,369692.6,369709.2,381092.6,381097.89999962,2024-05-04T06:02:48Z,381109.2,NULL,Fleisch,mshakiki,s,kizunguzungu,mshikamano,angusho,NA,qt,NA,3,NA,NA,NA,NA,NA,NA,NA,NA,NA,NA,NA,NA,NA,NA,NA,NA,NA,NA,NA
bf798,deep,flow.Sequence,3_0_3_0_4_0,NA,NA,skipped,NA,381098,NA,NA,381092.6,381098.10000038,2024-05-04T06:02:48Z,381109.2,NULL,Inhalt,yaliyomo,s,kishawishi,hifadhi,kutembea,NA,qt,NA,3,NA,NA,NA,NA,NA,NA,NA,NA,NA,NA,NA,NA,NA,NA,NA,NA,NA,NA,NA
bf798,Shallow Question,html.Page,3_0_3_0_4_1_0,NA,NA,form submission,9762.4999988556,381098.10000038,381092.6,381109.2,390871.69999886,390871.89999962,2024-05-04T06:02:57Z,390875.9,NULL,Inhalt,yaliyomo,s,kishawishi,hifadhi,kutembea,yaliyomo,NA,NA,3,NA,NA,NA,NA,NA,NA,NA,NA,NA,NA,NA,NA,NA,NA,NA,NA,NA,NA,NA
bf798,"""Richtig""-Screen",canvas.Screen,3_0_3_0_4_1_1,NA,NA,timeout,5000.1,390873.60000038,390859.364,390875.9,395859.3,395859.89999962,2024-05-04T06:03:02Z,395876,NULL,Inhalt,yaliyomo,s,kishawishi,hifadhi,kutembea,NA,qt,1,3,NA,NA,NA,NA,NA,NA,NA,NA,NA,NA,NA,NA,NA,NA,NA,NA,NA,NA,NA
bf798,"""Falsch""-Screen",canvas.Screen,3_0_3_0_4_1_2,NA,NA,skipped,NA,395863.89999962,NA,NA,395859.3,395864.10000038,2024-05-04T06:03:02Z,395876,NULL,Inhalt,yaliyomo,s,kishawishi,hifadhi,kutembea,NA,qt,NA,3,NA,NA,NA,NA,NA,NA,NA,NA,NA,NA,NA,NA,NA,NA,NA,NA,NA,NA,NA
bf798,shallow,flow.Sequence,3_0_3_0_4_1,NA,NA,completion,14750.1,381098.10000038,381092.6,381109.2,395859.3,395864.19999886,2024-05-04T06:03:02Z,395876,NULL,Inhalt,yaliyomo,s,kishawishi,hifadhi,kutembea,NA,qt,NA,3,NA,NA,NA,NA,NA,NA,NA,NA,NA,NA,NA,NA,NA,NA,NA,NA,NA,NA,NA
bf798,task,flow.Sequence,3_0_3_0_4,NA,NA,completion,14750.1,381098,381092.6,381109.2,395859.3,395864.39999962,2024-05-04T06:03:02Z,395876,NULL,Inhalt,yaliyomo,s,kishawishi,hifadhi,kutembea,NA,qt,NA,3,NA,NA,NA,NA,NA,NA,NA,NA,NA,NA,NA,NA,NA,NA,NA,NA,NA,NA,NA
bf798,Deep Question,html.Page,3_0_3_0_5_0_0,NA,NA,form submission,5635.1000003815,395864.60000038,395859.3,395876,401511.10000038,401511.39999962,2024-05-04T06:03:08Z,401526,NULL,Toleranz,kuvumiliana,d,NA,NA,NA,s,NA,NA,3,NA,NA,NA,NA,NA,NA,NA,NA,NA,NA,NA,NA,NA,NA,NA,NA,NA,NA,NA
bf798,"""Richtig""-Screen",canvas.Screen,3_0_3_0_5_0_1,NA,NA,skipped,NA,401513,NA,NA,401511.10000038,401513.10000038,2024-05-04T06:03:08Z,401526,NULL,Toleranz,kuvumiliana,d,NA,NA,NA,NA,qt,NA,3,NA,NA,NA,NA,NA,NA,NA,NA,NA,NA,NA,NA,NA,NA,NA,NA,NA,NA,NA
bf798,"""Falsch""-Screen",canvas.Screen,3_0_3_0_5_0_2,NA,NA,timeout,5000,401513.60000038,401509.922,401526,406509.3,406509.89999962,2024-05-04T06:03:13Z,406526,NULL,Toleranz,kuvumiliana,d,NA,NA,NA,NA,qt,0,3,NA,NA,NA,NA,NA,NA,NA,NA,NA,NA,NA,NA,NA,NA,NA,NA,NA,NA,NA
bf798,deep,flow.Sequence,3_0_3_0_5_0,NA,NA,completion,10633.3,395864.5,395859.3,395876,406509.3,406510.29999924,2024-05-04T06:03:13Z,406526,NULL,Toleranz,kuvumiliana,d,NA,NA,NA,NA,qt,NA,3,NA,NA,NA,NA,NA,NA,NA,NA,NA,NA,NA,NA,NA,NA,NA,NA,NA,NA,NA
bf798,shallow,flow.Sequence,3_0_3_0_5_1,NA,NA,skipped,NA,406510.39999962,NA,NA,406509.3,406510.5,2024-05-04T06:03:13Z,406526,NULL,Toleranz,kuvumiliana,d,NA,NA,NA,NA,qt,NA,3,NA,NA,NA,NA,NA,NA,NA,NA,NA,NA,NA,NA,NA,NA,NA,NA,NA,NA,NA
bf798,task,flow.Sequence,3_0_3_0_5,NA,NA,completion,10633.3,395864.5,395859.3,395876,406509.3,406510.69999886,2024-05-04T06:03:13Z,406526,NULL,Toleranz,kuvumiliana,d,NA,NA,NA,NA,qt,NA,3,NA,NA,NA,NA,NA,NA,NA,NA,NA,NA,NA,NA,NA,NA,NA,NA,NA,NA,NA
bf798,Deep Question,html.Page,3_0_3_0_6_0_0,NA,NA,form submission,5858.8999996185,406510.79999924,406509.3,406526,412384.89999962,412385.10000038,2024-05-04T06:03:19Z,412392.6,NULL,Genehmigung,idhini,d,NA,NA,NA,dhin,NA,NA,3,NA,NA,NA,NA,NA,NA,NA,NA,NA,NA,NA,NA,NA,NA,NA,NA,NA,NA,NA
bf798,"""Richtig""-Screen",canvas.Screen,3_0_3_0_6_0_1,NA,NA,skipped,NA,412386.89999962,NA,NA,412384.89999962,412387,2024-05-04T06:03:19Z,412392.6,NULL,Genehmigung,idhini,d,NA,NA,NA,NA,qt,NA,3,NA,NA,NA,NA,NA,NA,NA,NA,NA,NA,NA,NA,NA,NA,NA,NA,NA,NA,NA
bf798,"""Falsch""-Screen",canvas.Screen,3_0_3_0_6_0_2,NA,NA,timeout,5000,412387.5,412377.396,412392.6,417376,417376.5,2024-05-04T06:03:24Z,417392.6,NULL,Genehmigung,idhini,d,NA,NA,NA,NA,qt,0,3,NA,NA,NA,NA,NA,NA,NA,NA,NA,NA,NA,NA,NA,NA,NA,NA,NA,NA,NA
bf798,deep,flow.Sequence,3_0_3_0_6_0,NA,NA,completion,10850,406510.79999924,406509.3,406526,417376,417376.89999962,2024-05-04T06:03:24Z,417392.6,NULL,Genehmigung,idhini,d,NA,NA,NA,NA,qt,NA,3,NA,NA,NA,NA,NA,NA,NA,NA,NA,NA,NA,NA,NA,NA,NA,NA,NA,NA,NA
bf798,shallow,flow.Sequence,3_0_3_0_6_1,NA,NA,skipped,NA,417376.89999962,NA,NA,417376,417377.10000038,2024-05-04T06:03:24Z,417392.6,NULL,Genehmigung,idhini,d,NA,NA,NA,NA,qt,NA,3,NA,NA,NA,NA,NA,NA,NA,NA,NA,NA,NA,NA,NA,NA,NA,NA,NA,NA,NA
bf798,task,flow.Sequence,3_0_3_0_6,NA,NA,completion,10850,406510.69999886,406509.3,406526,417376,417377.10000038,2024-05-04T06:03:24Z,417392.6,NULL,Genehmigung,idhini,d,NA,NA,NA,NA,qt,NA,3,NA,NA,NA,NA,NA,NA,NA,NA,NA,NA,NA,NA,NA,NA,NA,NA,NA,NA,NA
bf798,Deep Question,html.Page,3_0_3_0_7_0_0,NA,NA,form submission,3476.1999992371,417377.29999924,417376,417392.6,420868.79999924,420869,2024-05-04T06:03:27Z,420875.9,NULL,Begegnung,kukutana,d,NA,NA,NA,s,NA,NA,3,NA,NA,NA,NA,NA,NA,NA,NA,NA,NA,NA,NA,NA,NA,NA,NA,NA,NA,NA
bf798,"""Richtig""-Screen",canvas.Screen,3_0_3_0_7_0_1,NA,NA,skipped,NA,420870.69999886,NA,NA,420868.79999924,420870.79999924,2024-05-04T06:03:27Z,420875.9,NULL,Begegnung,kukutana,d,NA,NA,NA,NA,qt,NA,3,NA,NA,NA,NA,NA,NA,NA,NA,NA,NA,NA,NA,NA,NA,NA,NA,NA,NA,NA
bf798,"""Falsch""-Screen",canvas.Screen,3_0_3_0_7_0_2,NA,NA,timeout,5000.1,420871.19999886,420859.354,420875.9,425859.2,425859.89999962,2024-05-04T06:03:32Z,425876,NULL,Begegnung,kukutana,d,NA,NA,NA,NA,qt,0,3,NA,NA,NA,NA,NA,NA,NA,NA,NA,NA,NA,NA,NA,NA,NA,NA,NA,NA,NA
bf798,deep,flow.Sequence,3_0_3_0_7_0,NA,NA,completion,8466.6,417377.29999924,417376,417392.6,425859.2,425860.29999924,2024-05-04T06:03:32Z,425876,NULL,Begegnung,kukutana,d,NA,NA,NA,NA,qt,NA,3,NA,NA,NA,NA,NA,NA,NA,NA,NA,NA,NA,NA,NA,NA,NA,NA,NA,NA,NA
bf798,shallow,flow.Sequence,3_0_3_0_7_1,NA,NA,skipped,NA,425860.29999924,NA,NA,425859.2,425860.39999962,2024-05-04T06:03:32Z,425876,NULL,Begegnung,kukutana,d,NA,NA,NA,NA,qt,NA,3,NA,NA,NA,NA,NA,NA,NA,NA,NA,NA,NA,NA,NA,NA,NA,NA,NA,NA,NA
bf798,task,flow.Sequence,3_0_3_0_7,NA,NA,completion,8466.6,417377.29999924,417376,417392.6,425859.2,425860.60000038,2024-05-04T06:03:32Z,425876,NULL,Begegnung,kukutana,d,NA,NA,NA,NA,qt,NA,3,NA,NA,NA,NA,NA,NA,NA,NA,NA,NA,NA,NA,NA,NA,NA,NA,NA,NA,NA
bf798,block,flow.Loop,3_0_3_0,NA,NA,completion,97266.5,328605.29999924,328592.7,328592.7,425859.2,425860.69999886,2024-05-04T06:03:32Z,425876,NULL,NA,NA,NA,NA,NA,NA,NA,qt,NA,3,NA,NA,NA,NA,NA,NA,NA,NA,NA,NA,NA,NA,NA,NA,NA,NA,NA,NA,NA
bf798,weiter,canvas.Screen,3_0_3_1,sdf,keypress(Space),response,860.29999923706,425860.69999886,425859.2,425876,426736.29999924,426737.19999886,2024-05-04T06:03:33Z,426775.964,NULL,NA,NA,NA,NA,NA,NA,NA,qt,NA,3,NA,NA,NA,NA,NA,NA,NA,NA,NA,NA,NA,NA,NA,NA,NA,NA,NA,NA,NA
bf798,check continue,flow.Sequence,3_0_3,NA,NA,completion,98143.599999237,328605.19999886,328592.7,328592.7,426736.29999924,426737.29999924,2024-05-04T06:03:33Z,426775.964,NULL,NA,NA,NA,NA,NA,NA,NA,qt,NA,3,NA,NA,NA,NA,NA,NA,NA,NA,NA,NA,NA,NA,NA,NA,NA,NA,NA,NA,NA
bf798,Deep Question,html.Page,3_0_4_0_0_0_0,NA,NA,form submission,11989.735998856,426788.79999924,426775.964,426775.964,438765.69999886,438766,2024-05-04T06:03:45Z,438792.6,NULL,Toleranz,kuvumiliana,d,NA,NA,NA,milini,NA,NA,4,NA,NA,NA,NA,NA,NA,NA,NA,NA,NA,NA,NA,NA,NA,NA,NA,NA,NA,NA
bf798,"""Richtig""-Screen",canvas.Screen,3_0_4_0_0_0_1,NA,NA,skipped,NA,438767.69999886,NA,NA,438765.69999886,438767.79999924,2024-05-04T06:03:45Z,438792.6,NULL,Toleranz,kuvumiliana,d,NA,NA,NA,NA,sd,NA,4,NA,NA,NA,NA,NA,NA,NA,NA,NA,NA,NA,NA,NA,NA,NA,NA,NA,NA,NA
bf798,"""Falsch""-Screen",canvas.Screen,3_0_4_0_0_0_2,NA,NA,timeout,5000,438768.29999924,438776.032,438792.6,443775.8,443776.69999886,2024-05-04T06:03:50Z,443792.6,NULL,Toleranz,kuvumiliana,d,NA,NA,NA,NA,sd,0,4,NA,NA,NA,NA,NA,NA,NA,NA,NA,NA,NA,NA,NA,NA,NA,NA,NA,NA,NA
bf798,deep,flow.Sequence,3_0_4_0_0_0,NA,NA,completion,16999.836,426788.79999924,426775.964,426775.964,443775.8,443777,2024-05-04T06:03:50Z,443792.6,NULL,Toleranz,kuvumiliana,d,NA,NA,NA,NA,sd,NA,4,NA,NA,NA,NA,NA,NA,NA,NA,NA,NA,NA,NA,NA,NA,NA,NA,NA,NA,NA
bf798,shallow,flow.Sequence,3_0_4_0_0_1,NA,NA,skipped,NA,443777.10000038,NA,NA,443775.8,443777.10000038,2024-05-04T06:03:50Z,443792.6,NULL,Toleranz,kuvumiliana,d,NA,NA,NA,NA,sd,NA,4,NA,NA,NA,NA,NA,NA,NA,NA,NA,NA,NA,NA,NA,NA,NA,NA,NA,NA,NA
bf798,task,flow.Sequence,3_0_4_0_0,NA,NA,completion,16999.836,426788.69999886,426775.964,426775.964,443775.8,443777.29999924,2024-05-04T06:03:50Z,443792.6,NULL,Toleranz,kuvumiliana,d,NA,NA,NA,NA,sd,NA,4,NA,NA,NA,NA,NA,NA,NA,NA,NA,NA,NA,NA,NA,NA,NA,NA,NA,NA,NA
bf798,deep,flow.Sequence,3_0_4_0_1_0,NA,NA,skipped,NA,443777.29999924,NA,NA,443775.8,443777.39999962,2024-05-04T06:03:50Z,443792.6,NULL,Vermutung,udhanifu,s,haramia,tikisho,itifaki,NA,sd,NA,4,NA,NA,NA,NA,NA,NA,NA,NA,NA,NA,NA,NA,NA,NA,NA,NA,NA,NA,NA
bf798,Shallow Question,html.Page,3_0_4_0_1_1_0,NA,NA,form submission,4221.0999988556,443777.5,443775.8,443792.6,448013.69999886,448013.89999962,2024-05-04T06:03:54Z,448025.9,NULL,Vermutung,udhanifu,s,haramia,tikisho,itifaki,udhanifu,NA,NA,4,NA,NA,NA,NA,NA,NA,NA,NA,NA,NA,NA,NA,NA,NA,NA,NA,NA,NA,NA
bf798,"""Richtig""-Screen",canvas.Screen,3_0_4_0_1_1_1,NA,NA,timeout,4999.9,448015.60000038,448009.336,448025.9,453009.3,453009.89999962,2024-05-04T06:03:59Z,453025.8,NULL,Vermutung,udhanifu,s,haramia,tikisho,itifaki,NA,sd,1,4,NA,NA,NA,NA,NA,NA,NA,NA,NA,NA,NA,NA,NA,NA,NA,NA,NA,NA,NA
bf798,"""Falsch""-Screen",canvas.Screen,3_0_4_0_1_1_2,NA,NA,skipped,NA,453013.89999962,NA,NA,453009.3,453014.19999886,2024-05-04T06:03:59Z,453025.8,NULL,Vermutung,udhanifu,s,haramia,tikisho,itifaki,NA,sd,NA,4,NA,NA,NA,NA,NA,NA,NA,NA,NA,NA,NA,NA,NA,NA,NA,NA,NA,NA,NA
bf798,shallow,flow.Sequence,3_0_4_0_1_1,NA,NA,completion,9216.7,443777.5,443775.8,443792.6,453009.3,453014.29999924,2024-05-04T06:03:59Z,453025.8,NULL,Vermutung,udhanifu,s,haramia,tikisho,itifaki,NA,sd,NA,4,NA,NA,NA,NA,NA,NA,NA,NA,NA,NA,NA,NA,NA,NA,NA,NA,NA,NA,NA
bf798,task,flow.Sequence,3_0_4_0_1,NA,NA,completion,9216.7,443777.29999924,443775.8,443792.6,453009.3,453014.39999962,2024-05-04T06:03:59Z,453025.8,NULL,Vermutung,udhanifu,s,haramia,tikisho,itifaki,NA,sd,NA,4,NA,NA,NA,NA,NA,NA,NA,NA,NA,NA,NA,NA,NA,NA,NA,NA,NA,NA,NA
bf798,Deep Question,html.Page,3_0_4_0_2_0_0,NA,NA,form submission,31093.099999619,453014.60000038,453009.3,453025.8,484118.89999962,484119.10000038,2024-05-04T06:04:31Z,484125.8,NULL,Schlange,foleni,d,NA,NA,NA,foleni,NA,NA,4,NA,NA,NA,NA,NA,NA,NA,NA,NA,NA,NA,NA,NA,NA,NA,NA,NA,NA,NA
bf798,"""Richtig""-Screen",canvas.Screen,3_0_4_0_2_0_1,NA,NA,timeout,5000,484120.69999886,484109.3,484125.8,489109.3,489109.89999962,2024-05-04T06:04:36Z,489125.8,NULL,Schlange,foleni,d,NA,NA,NA,NA,sd,1,4,NA,NA,NA,NA,NA,NA,NA,NA,NA,NA,NA,NA,NA,NA,NA,NA,NA,NA,NA
bf798,"""Falsch""-Screen",canvas.Screen,3_0_4_0_2_0_2,NA,NA,skipped,NA,489113.89999962,NA,NA,489109.3,489114.10000038,2024-05-04T06:04:36Z,489125.8,NULL,Schlange,foleni,d,NA,NA,NA,NA,sd,NA,4,NA,NA,NA,NA,NA,NA,NA,NA,NA,NA,NA,NA,NA,NA,NA,NA,NA,NA,NA
bf798,deep,flow.Sequence,3_0_4_0_2_0,NA,NA,completion,36083.5,453014.60000038,453009.3,453025.8,489109.3,489114.29999924,2024-05-04T06:04:36Z,489125.8,NULL,Schlange,foleni,d,NA,NA,NA,NA,sd,NA,4,NA,NA,NA,NA,NA,NA,NA,NA,NA,NA,NA,NA,NA,NA,NA,NA,NA,NA,NA
bf798,shallow,flow.Sequence,3_0_4_0_2_1,NA,NA,skipped,NA,489114.39999962,NA,NA,489109.3,489114.39999962,2024-05-04T06:04:36Z,489125.8,NULL,Schlange,foleni,d,NA,NA,NA,NA,sd,NA,4,NA,NA,NA,NA,NA,NA,NA,NA,NA,NA,NA,NA,NA,NA,NA,NA,NA,NA,NA
bf798,task,flow.Sequence,3_0_4_0_2,NA,NA,completion,36083.5,453014.5,453009.3,453025.8,489109.3,489114.60000038,2024-05-04T06:04:36Z,489125.8,NULL,Schlange,foleni,d,NA,NA,NA,NA,sd,NA,4,NA,NA,NA,NA,NA,NA,NA,NA,NA,NA,NA,NA,NA,NA,NA,NA,NA,NA,NA
bf798,deep,flow.Sequence,3_0_4_0_3_0,NA,NA,skipped,NA,489114.69999886,NA,NA,489109.3,489114.79999924,2024-05-04T06:04:36Z,489125.8,NULL,Inhalt,yaliyomo,s,kishawishi,hifadhi,kutembea,NA,sd,NA,4,NA,NA,NA,NA,NA,NA,NA,NA,NA,NA,NA,NA,NA,NA,NA,NA,NA,NA,NA
bf798,Shallow Question,html.Page,3_0_4_0_3_1_0,NA,NA,form submission,3515.8999988556,489114.79999924,489109.3,489125.8,492641.69999886,492641.89999962,2024-05-04T06:04:39Z,492642.618,NULL,Inhalt,yaliyomo,s,kishawishi,hifadhi,kutembea,yaliyomo,NA,NA,4,NA,NA,NA,NA,NA,NA,NA,NA,NA,NA,NA,NA,NA,NA,NA,NA,NA,NA,NA
bf798,"""Richtig""-Screen",canvas.Screen,3_0_4_0_3_1_1,NA,NA,timeout,4999.782,492643.39999962,492642.618,492642.618,497625.9,497626.60000038,2024-05-04T06:04:44Z,497642.4,NULL,Inhalt,yaliyomo,s,kishawishi,hifadhi,kutembea,NA,sd,1,4,NA,NA,NA,NA,NA,NA,NA,NA,NA,NA,NA,NA,NA,NA,NA,NA,NA,NA,NA
bf798,"""Falsch""-Screen",canvas.Screen,3_0_4_0_3_1_2,NA,NA,skipped,NA,497630.89999962,NA,NA,497625.9,497631.10000038,2024-05-04T06:04:44Z,497642.4,NULL,Inhalt,yaliyomo,s,kishawishi,hifadhi,kutembea,NA,sd,NA,4,NA,NA,NA,NA,NA,NA,NA,NA,NA,NA,NA,NA,NA,NA,NA,NA,NA,NA,NA
bf798,shallow,flow.Sequence,3_0_4_0_3_1,NA,NA,completion,8500.1,489114.79999924,489109.3,489125.8,497625.9,497631.29999924,2024-05-04T06:04:44Z,497642.4,NULL,Inhalt,yaliyomo,s,kishawishi,hifadhi,kutembea,NA,sd,NA,4,NA,NA,NA,NA,NA,NA,NA,NA,NA,NA,NA,NA,NA,NA,NA,NA,NA,NA,NA
bf798,task,flow.Sequence,3_0_4_0_3,NA,NA,completion,8500.1,489114.69999886,489109.3,489125.8,497625.9,497631.39999962,2024-05-04T06:04:44Z,497642.4,NULL,Inhalt,yaliyomo,s,kishawishi,hifadhi,kutembea,NA,sd,NA,4,NA,NA,NA,NA,NA,NA,NA,NA,NA,NA,NA,NA,NA,NA,NA,NA,NA,NA,NA
bf798,deep,flow.Sequence,3_0_4_0_4_0,NA,NA,skipped,NA,497631.5,NA,NA,497625.9,497631.60000038,2024-05-04T06:04:44Z,497642.4,NULL,Integrität,uadilifu,s,muungano,mtiririko,upunguaji,NA,sd,NA,4,NA,NA,NA,NA,NA,NA,NA,NA,NA,NA,NA,NA,NA,NA,NA,NA,NA,NA,NA
bf798,Shallow Question,html.Page,3_0_4_0_4_1_0,NA,NA,form submission,2271.2999988556,497631.79999924,497625.9,497642.4,499913.69999886,499913.89999962,2024-05-04T06:04:46Z,499926,NULL,Integrität,uadilifu,s,muungano,mtiririko,upunguaji,uadilifu,NA,NA,4,NA,NA,NA,NA,NA,NA,NA,NA,NA,NA,NA,NA,NA,NA,NA,NA,NA,NA,NA
bf798,"""Richtig""-Screen",canvas.Screen,3_0_4_0_4_1_1,NA,NA,timeout,4999.9,499914.5,499909.316,499926,504909.2,504909.79999924,2024-05-04T06:04:51Z,504925.9,NULL,Integrität,uadilifu,s,muungano,mtiririko,upunguaji,NA,sd,1,4,NA,NA,NA,NA,NA,NA,NA,NA,NA,NA,NA,NA,NA,NA,NA,NA,NA,NA,NA
bf798,"""Falsch""-Screen",canvas.Screen,3_0_4_0_4_1_2,NA,NA,skipped,NA,504913.79999924,NA,NA,504909.2,504914,2024-05-04T06:04:51Z,504925.9,NULL,Integrität,uadilifu,s,muungano,mtiririko,upunguaji,NA,sd,NA,4,NA,NA,NA,NA,NA,NA,NA,NA,NA,NA,NA,NA,NA,NA,NA,NA,NA,NA,NA
bf798,shallow,flow.Sequence,3_0_4_0_4_1,NA,NA,completion,7266.8,497631.60000038,497625.9,497642.4,504909.2,504914.10000038,2024-05-04T06:04:51Z,504925.9,NULL,Integrität,uadilifu,s,muungano,mtiririko,upunguaji,NA,sd,NA,4,NA,NA,NA,NA,NA,NA,NA,NA,NA,NA,NA,NA,NA,NA,NA,NA,NA,NA,NA
bf798,task,flow.Sequence,3_0_4_0_4,NA,NA,completion,7266.8,497631.5,497625.9,497642.4,504909.2,504914.29999924,2024-05-04T06:04:51Z,504925.9,NULL,Integrität,uadilifu,s,muungano,mtiririko,upunguaji,NA,sd,NA,4,NA,NA,NA,NA,NA,NA,NA,NA,NA,NA,NA,NA,NA,NA,NA,NA,NA,NA,NA
bf798,deep,flow.Sequence,3_0_4_0_5_0,NA,NA,skipped,NA,504914.5,NA,NA,504909.2,504914.5,2024-05-04T06:04:51Z,504925.9,NULL,Fleisch,mshakiki,s,kizunguzungu,mshikamano,angusho,NA,sd,NA,4,NA,NA,NA,NA,NA,NA,NA,NA,NA,NA,NA,NA,NA,NA,NA,NA,NA,NA,NA
bf798,Shallow Question,html.Page,3_0_4_0_5_1_0,NA,NA,form submission,3064.6,504914.60000038,504909.2,504925.9,507990.5,507990.69999886,2024-05-04T06:04:54Z,507992.4,NULL,Fleisch,mshakiki,s,kizunguzungu,mshikamano,angusho,mshakiki,NA,NA,4,NA,NA,NA,NA,NA,NA,NA,NA,NA,NA,NA,NA,NA,NA,NA,NA,NA,NA,NA
bf798,"""Richtig""-Screen",canvas.Screen,3_0_4_0_5_1_1,NA,NA,timeout,5000,507991.29999924,507975.95,507992.4,512975.8,512976.39999962,2024-05-04T06:04:59Z,512992.4,NULL,Fleisch,mshakiki,s,kizunguzungu,mshikamano,angusho,NA,sd,1,4,NA,NA,NA,NA,NA,NA,NA,NA,NA,NA,NA,NA,NA,NA,NA,NA,NA,NA,NA
bf798,"""Falsch""-Screen",canvas.Screen,3_0_4_0_5_1_2,NA,NA,skipped,NA,512980.39999962,NA,NA,512975.8,512980.60000038,2024-05-04T06:04:59Z,512992.4,NULL,Fleisch,mshakiki,s,kizunguzungu,mshikamano,angusho,NA,sd,NA,4,NA,NA,NA,NA,NA,NA,NA,NA,NA,NA,NA,NA,NA,NA,NA,NA,NA,NA,NA
bf798,shallow,flow.Sequence,3_0_4_0_5_1,NA,NA,completion,8049.9,504914.60000038,504909.2,504925.9,512975.8,512980.79999924,2024-05-04T06:04:59Z,512992.4,NULL,Fleisch,mshakiki,s,kizunguzungu,mshikamano,angusho,NA,sd,NA,4,NA,NA,NA,NA,NA,NA,NA,NA,NA,NA,NA,NA,NA,NA,NA,NA,NA,NA,NA
bf798,task,flow.Sequence,3_0_4_0_5,NA,NA,completion,8049.9,504914.39999962,504909.2,504925.9,512975.8,512980.89999962,2024-05-04T06:04:59Z,512992.4,NULL,Fleisch,mshakiki,s,kizunguzungu,mshikamano,angusho,NA,sd,NA,4,NA,NA,NA,NA,NA,NA,NA,NA,NA,NA,NA,NA,NA,NA,NA,NA,NA,NA,NA
bf798,Deep Question,html.Page,3_0_4_0_6_0_0,NA,NA,form submission,12463.299998856,512981.10000038,512975.8,512992.4,525455.69999886,525456,2024-05-04T06:05:12Z,525459.1,NULL,Begegnung,kukutana,d,NA,NA,NA,s,NA,NA,4,NA,NA,NA,NA,NA,NA,NA,NA,NA,NA,NA,NA,NA,NA,NA,NA,NA,NA,NA
bf798,"""Richtig""-Screen",canvas.Screen,3_0_4_0_6_0_1,NA,NA,skipped,NA,525457.69999886,NA,NA,525455.69999886,525457.79999924,2024-05-04T06:05:12Z,525459.1,NULL,Begegnung,kukutana,d,NA,NA,NA,NA,sd,NA,4,NA,NA,NA,NA,NA,NA,NA,NA,NA,NA,NA,NA,NA,NA,NA,NA,NA,NA,NA
bf798,"""Falsch""-Screen",canvas.Screen,3_0_4_0_6_0_2,NA,NA,timeout,5000.2000000001,525458.29999924,525442.6,525459.1,530442.5,530443.10000038,2024-05-04T06:05:17Z,530459.3,NULL,Begegnung,kukutana,d,NA,NA,NA,NA,sd,0,4,NA,NA,NA,NA,NA,NA,NA,NA,NA,NA,NA,NA,NA,NA,NA,NA,NA,NA,NA
bf798,deep,flow.Sequence,3_0_4_0_6_0,NA,NA,completion,17450.1,512981,512975.8,512992.4,530442.5,530443.5,2024-05-04T06:05:17Z,530459.3,NULL,Begegnung,kukutana,d,NA,NA,NA,NA,sd,NA,4,NA,NA,NA,NA,NA,NA,NA,NA,NA,NA,NA,NA,NA,NA,NA,NA,NA,NA,NA
bf798,shallow,flow.Sequence,3_0_4_0_6_1,NA,NA,skipped,NA,530443.60000038,NA,NA,530442.5,530443.60000038,2024-05-04T06:05:17Z,530459.3,NULL,Begegnung,kukutana,d,NA,NA,NA,NA,sd,NA,4,NA,NA,NA,NA,NA,NA,NA,NA,NA,NA,NA,NA,NA,NA,NA,NA,NA,NA,NA
bf798,task,flow.Sequence,3_0_4_0_6,NA,NA,completion,17450.1,512980.89999962,512975.8,512992.4,530442.5,530443.69999886,2024-05-04T06:05:17Z,530459.3,NULL,Begegnung,kukutana,d,NA,NA,NA,NA,sd,NA,4,NA,NA,NA,NA,NA,NA,NA,NA,NA,NA,NA,NA,NA,NA,NA,NA,NA,NA,NA
bf798,Deep Question,html.Page,3_0_4_0_7_0_0,NA,NA,form submission,3079.2,530443.89999962,530442.5,530459.3,533538.5,533538.69999886,2024-05-04T06:05:20Z,533542.4,NULL,Genehmigung,idhini,d,NA,NA,NA,s,NA,NA,4,NA,NA,NA,NA,NA,NA,NA,NA,NA,NA,NA,NA,NA,NA,NA,NA,NA,NA,NA
bf798,"""Richtig""-Screen",canvas.Screen,3_0_4_0_7_0_1,NA,NA,skipped,NA,533540.39999962,NA,NA,533538.5,533540.5,2024-05-04T06:05:20Z,533542.4,NULL,Genehmigung,idhini,d,NA,NA,NA,NA,sd,NA,4,NA,NA,NA,NA,NA,NA,NA,NA,NA,NA,NA,NA,NA,NA,NA,NA,NA,NA,NA
bf798,"""Falsch""-Screen",canvas.Screen,3_0_4_0_7_0_2,NA,NA,timeout,5000.1,533541.10000038,533525.93,533542.4,538525.8,538526.60000038,2024-05-04T06:05:25Z,538542.5,NULL,Genehmigung,idhini,d,NA,NA,NA,NA,sd,0,4,NA,NA,NA,NA,NA,NA,NA,NA,NA,NA,NA,NA,NA,NA,NA,NA,NA,NA,NA
bf798,deep,flow.Sequence,3_0_4_0_7_0,NA,NA,completion,8066.5,530443.89999962,530442.5,530459.3,538525.8,538527,2024-05-04T06:05:25Z,538542.5,NULL,Genehmigung,idhini,d,NA,NA,NA,NA,sd,NA,4,NA,NA,NA,NA,NA,NA,NA,NA,NA,NA,NA,NA,NA,NA,NA,NA,NA,NA,NA
bf798,shallow,flow.Sequence,3_0_4_0_7_1,NA,NA,skipped,NA,538527,NA,NA,538525.8,538527.10000038,2024-05-04T06:05:25Z,538542.5,NULL,Genehmigung,idhini,d,NA,NA,NA,NA,sd,NA,4,NA,NA,NA,NA,NA,NA,NA,NA,NA,NA,NA,NA,NA,NA,NA,NA,NA,NA,NA
bf798,task,flow.Sequence,3_0_4_0_7,NA,NA,completion,8066.5,530443.89999962,530442.5,530459.3,538525.8,538527.29999924,2024-05-04T06:05:25Z,538542.5,NULL,Genehmigung,idhini,d,NA,NA,NA,NA,sd,NA,4,NA,NA,NA,NA,NA,NA,NA,NA,NA,NA,NA,NA,NA,NA,NA,NA,NA,NA,NA
bf798,block,flow.Loop,3_0_4_0,NA,NA,completion,111749.836,426788.69999886,426775.964,426775.964,538525.8,538527.39999962,2024-05-04T06:05:25Z,538542.5,NULL,NA,NA,NA,NA,NA,NA,NA,sd,NA,4,NA,NA,NA,NA,NA,NA,NA,NA,NA,NA,NA,NA,NA,NA,NA,NA,NA,NA,NA
bf798,weiter,canvas.Screen,3_0_4_1,sdf,keypress(Space),response,718.69999885559,538527.39999962,538525.8,538542.5,539261.19999886,539262.10000038,2024-05-04T06:05:26Z,539309.1,NULL,NA,NA,NA,NA,NA,NA,NA,sd,NA,4,NA,NA,NA,NA,NA,NA,NA,NA,NA,NA,NA,NA,NA,NA,NA,NA,NA,NA,NA
bf798,check continue,flow.Sequence,3_0_4,NA,NA,completion,112485.23599886,426788.60000038,426775.964,426775.964,539261.19999886,539262.29999924,2024-05-04T06:05:26Z,539309.1,NULL,NA,NA,NA,NA,NA,NA,NA,sd,NA,4,NA,NA,NA,NA,NA,NA,NA,NA,NA,NA,NA,NA,NA,NA,NA,NA,NA,NA,NA
bf798,Deep Question,html.Page,3_0_5_0_0_0_0,NA,NA,form submission,4318.6999992371,539299.69999886,539292.47,539309.1,543627.79999924,543628.10000038,2024-05-04T06:05:30Z,543642.5,NULL,Genehmigung,idhini,d,NA,NA,NA,idhini,NA,NA,5,NA,NA,NA,NA,NA,NA,NA,NA,NA,NA,NA,NA,NA,NA,NA,NA,NA,NA,NA
bf798,"""Richtig""-Screen",canvas.Screen,3_0_5_0_0_0_1,NA,NA,timeout,5000,543629.69999886,543625.88,543642.5,548625.8,548626.79999924,2024-05-04T06:05:35Z,548642.5,NULL,Genehmigung,idhini,d,NA,NA,NA,NA,sdf,1,5,NA,NA,NA,NA,NA,NA,NA,NA,NA,NA,NA,NA,NA,NA,NA,NA,NA,NA,NA
bf798,"""Falsch""-Screen",canvas.Screen,3_0_5_0_0_0_2,NA,NA,skipped,NA,548630.69999886,NA,NA,548625.8,548630.89999962,2024-05-04T06:05:35Z,548642.5,NULL,Genehmigung,idhini,d,NA,NA,NA,NA,sdf,NA,5,NA,NA,NA,NA,NA,NA,NA,NA,NA,NA,NA,NA,NA,NA,NA,NA,NA,NA,NA
bf798,deep,flow.Sequence,3_0_5_0_0_0,NA,NA,completion,9316.7000000001,539299.69999886,539292.47,539309.1,548625.8,548631.19999886,2024-05-04T06:05:35Z,548642.5,NULL,Genehmigung,idhini,d,NA,NA,NA,NA,sdf,NA,5,NA,NA,NA,NA,NA,NA,NA,NA,NA,NA,NA,NA,NA,NA,NA,NA,NA,NA,NA
bf798,shallow,flow.Sequence,3_0_5_0_0_1,NA,NA,skipped,NA,548631.29999924,NA,NA,548625.8,548631.29999924,2024-05-04T06:05:35Z,548642.5,NULL,Genehmigung,idhini,d,NA,NA,NA,NA,sdf,NA,5,NA,NA,NA,NA,NA,NA,NA,NA,NA,NA,NA,NA,NA,NA,NA,NA,NA,NA,NA
bf798,task,flow.Sequence,3_0_5_0_0,NA,NA,completion,9316.7000000001,539299.69999886,539292.47,539309.1,548625.8,548631.5,2024-05-04T06:05:35Z,548642.5,NULL,Genehmigung,idhini,d,NA,NA,NA,NA,sdf,NA,5,NA,NA,NA,NA,NA,NA,NA,NA,NA,NA,NA,NA,NA,NA,NA,NA,NA,NA,NA
bf798,Deep Question,html.Page,3_0_5_0_1_0_0,NA,NA,form submission,17472.100000381,548631.60000038,548625.8,548642.5,566114.60000038,566114.69999886,2024-05-04T06:05:53Z,566125.7,NULL,Toleranz,kuvumiliana,d,NA,NA,NA,vukumilina,NA,NA,5,NA,NA,NA,NA,NA,NA,NA,NA,NA,NA,NA,NA,NA,NA,NA,NA,NA,NA,NA
bf798,"""Richtig""-Screen",canvas.Screen,3_0_5_0_1_0_1,NA,NA,skipped,NA,566116.5,NA,NA,566114.60000038,566116.60000038,2024-05-04T06:05:53Z,566125.7,NULL,Toleranz,kuvumiliana,d,NA,NA,NA,NA,sdf,NA,5,NA,NA,NA,NA,NA,NA,NA,NA,NA,NA,NA,NA,NA,NA,NA,NA,NA,NA,NA
bf798,"""Falsch""-Screen",canvas.Screen,3_0_5_0_1_0_2,NA,NA,timeout,5000.1000000001,566117.10000038,566109.21,566125.7,571109.2,571109.79999924,2024-05-04T06:05:58Z,571125.8,NULL,Toleranz,kuvumiliana,d,NA,NA,NA,NA,sdf,0,5,NA,NA,NA,NA,NA,NA,NA,NA,NA,NA,NA,NA,NA,NA,NA,NA,NA,NA,NA
bf798,deep,flow.Sequence,3_0_5_0_1_0,NA,NA,completion,22466.7,548631.5,548625.8,548642.5,571109.2,571110.10000038,2024-05-04T06:05:58Z,571125.8,NULL,Toleranz,kuvumiliana,d,NA,NA,NA,NA,sdf,NA,5,NA,NA,NA,NA,NA,NA,NA,NA,NA,NA,NA,NA,NA,NA,NA,NA,NA,NA,NA
bf798,shallow,flow.Sequence,3_0_5_0_1_1,NA,NA,skipped,NA,571110.19999886,NA,NA,571109.2,571110.29999924,2024-05-04T06:05:58Z,571125.8,NULL,Toleranz,kuvumiliana,d,NA,NA,NA,NA,sdf,NA,5,NA,NA,NA,NA,NA,NA,NA,NA,NA,NA,NA,NA,NA,NA,NA,NA,NA,NA,NA
bf798,task,flow.Sequence,3_0_5_0_1,NA,NA,completion,22466.7,548631.5,548625.8,548642.5,571109.2,571110.39999962,2024-05-04T06:05:58Z,571125.8,NULL,Toleranz,kuvumiliana,d,NA,NA,NA,NA,sdf,NA,5,NA,NA,NA,NA,NA,NA,NA,NA,NA,NA,NA,NA,NA,NA,NA,NA,NA,NA,NA
bf798,Deep Question,html.Page,3_0_5_0_2_0_0,NA,NA,form submission,10593.899998856,571110.5,571109.2,571125.8,581719.69999886,581719.89999962,2024-05-04T06:06:08Z,581725.9,NULL,Schlange,foleni,d,NA,NA,NA,foleni,NA,NA,5,NA,NA,NA,NA,NA,NA,NA,NA,NA,NA,NA,NA,NA,NA,NA,NA,NA,NA,NA
bf798,"""Richtig""-Screen",canvas.Screen,3_0_5_0_2_0_1,NA,NA,timeout,4999.9,581721.60000038,581709.332,581725.9,586709.1,586709.79999924,2024-05-04T06:06:13Z,586725.8,NULL,Schlange,foleni,d,NA,NA,NA,NA,sdf,1,5,NA,NA,NA,NA,NA,NA,NA,NA,NA,NA,NA,NA,NA,NA,NA,NA,NA,NA,NA
bf798,"""Falsch""-Screen",canvas.Screen,3_0_5_0_2_0_2,NA,NA,skipped,NA,586714,NA,NA,586709.1,586714.19999886,2024-05-04T06:06:13Z,586725.8,NULL,Schlange,foleni,d,NA,NA,NA,NA,sdf,NA,5,NA,NA,NA,NA,NA,NA,NA,NA,NA,NA,NA,NA,NA,NA,NA,NA,NA,NA,NA
bf798,deep,flow.Sequence,3_0_5_0_2_0,NA,NA,completion,15583.3,571110.5,571109.2,571125.8,586709.1,586714.39999962,2024-05-04T06:06:13Z,586725.8,NULL,Schlange,foleni,d,NA,NA,NA,NA,sdf,NA,5,NA,NA,NA,NA,NA,NA,NA,NA,NA,NA,NA,NA,NA,NA,NA,NA,NA,NA,NA
bf798,shallow,flow.Sequence,3_0_5_0_2_1,NA,NA,skipped,NA,586714.39999962,NA,NA,586709.1,586714.5,2024-05-04T06:06:13Z,586725.8,NULL,Schlange,foleni,d,NA,NA,NA,NA,sdf,NA,5,NA,NA,NA,NA,NA,NA,NA,NA,NA,NA,NA,NA,NA,NA,NA,NA,NA,NA,NA
bf798,task,flow.Sequence,3_0_5_0_2,NA,NA,completion,15583.3,571110.5,571109.2,571125.8,586709.1,586714.69999886,2024-05-04T06:06:13Z,586725.8,NULL,Schlange,foleni,d,NA,NA,NA,NA,sdf,NA,5,NA,NA,NA,NA,NA,NA,NA,NA,NA,NA,NA,NA,NA,NA,NA,NA,NA,NA,NA
bf798,deep,flow.Sequence,3_0_5_0_3_0,NA,NA,skipped,NA,586714.79999924,NA,NA,586709.1,586714.79999924,2024-05-04T06:06:13Z,586725.8,NULL,Integrität,uadilifu,s,muungano,mtiririko,upunguaji,NA,sdf,NA,5,NA,NA,NA,NA,NA,NA,NA,NA,NA,NA,NA,NA,NA,NA,NA,NA,NA,NA,NA
bf798,Shallow Question,html.Page,3_0_5_0_3_1_0,NA,NA,form submission,2594.7,586714.89999962,586709.1,586725.8,589320.5,589320.79999924,2024-05-04T06:06:16Z,589325.7,NULL,Integrität,uadilifu,s,muungano,mtiririko,upunguaji,uadilifu,NA,NA,5,NA,NA,NA,NA,NA,NA,NA,NA,NA,NA,NA,NA,NA,NA,NA,NA,NA,NA,NA
bf798,"""Richtig""-Screen",canvas.Screen,3_0_5_0_3_1_1,NA,NA,timeout,5000,589321.39999962,589309.228,589325.7,594309.1,594309.69999886,2024-05-04T06:06:21Z,594325.7,NULL,Integrität,uadilifu,s,muungano,mtiririko,upunguaji,NA,sdf,1,5,NA,NA,NA,NA,NA,NA,NA,NA,NA,NA,NA,NA,NA,NA,NA,NA,NA,NA,NA
bf798,"""Falsch""-Screen",canvas.Screen,3_0_5_0_3_1_2,NA,NA,skipped,NA,594313.89999962,NA,NA,594309.1,594314.10000038,2024-05-04T06:06:21Z,594325.7,NULL,Integrität,uadilifu,s,muungano,mtiririko,upunguaji,NA,sdf,NA,5,NA,NA,NA,NA,NA,NA,NA,NA,NA,NA,NA,NA,NA,NA,NA,NA,NA,NA,NA
bf798,shallow,flow.Sequence,3_0_5_0_3_1,NA,NA,completion,7583.2999999999,586714.89999962,586709.1,586725.8,594309.1,594314.19999886,2024-05-04T06:06:21Z,594325.7,NULL,Integrität,uadilifu,s,muungano,mtiririko,upunguaji,NA,sdf,NA,5,NA,NA,NA,NA,NA,NA,NA,NA,NA,NA,NA,NA,NA,NA,NA,NA,NA,NA,NA
bf798,task,flow.Sequence,3_0_5_0_3,NA,NA,completion,7583.2999999999,586714.79999924,586709.1,586725.8,594309.1,594314.39999962,2024-05-04T06:06:21Z,594325.7,NULL,Integrität,uadilifu,s,muungano,mtiririko,upunguaji,NA,sdf,NA,5,NA,NA,NA,NA,NA,NA,NA,NA,NA,NA,NA,NA,NA,NA,NA,NA,NA,NA,NA
bf798,deep,flow.Sequence,3_0_5_0_4_0,NA,NA,skipped,NA,594314.60000038,NA,NA,594309.1,594314.60000038,2024-05-04T06:06:21Z,594325.7,NULL,Vermutung,udhanifu,s,haramia,tikisho,itifaki,NA,sdf,NA,5,NA,NA,NA,NA,NA,NA,NA,NA,NA,NA,NA,NA,NA,NA,NA,NA,NA,NA,NA
bf798,Shallow Question,html.Page,3_0_5_0_4_1_0,NA,NA,form submission,11767.699999619,594314.69999886,594309.1,594325.7,606093.39999962,606093.60000038,2024-05-04T06:06:33Z,606109.1,NULL,Vermutung,udhanifu,s,haramia,tikisho,itifaki,udhanifu,NA,NA,5,NA,NA,NA,NA,NA,NA,NA,NA,NA,NA,NA,NA,NA,NA,NA,NA,NA,NA,NA
bf798,"""Richtig""-Screen",canvas.Screen,3_0_5_0_4_1_1,NA,NA,timeout,4999.9,606095.60000038,606092.558,606109.1,611092.4,611093,2024-05-04T06:06:38Z,611109,NULL,Vermutung,udhanifu,s,haramia,tikisho,itifaki,NA,sdf,1,5,NA,NA,NA,NA,NA,NA,NA,NA,NA,NA,NA,NA,NA,NA,NA,NA,NA,NA,NA
bf798,"""Falsch""-Screen",canvas.Screen,3_0_5_0_4_1_2,NA,NA,skipped,NA,611097,NA,NA,611092.4,611097.19999886,2024-05-04T06:06:38Z,611109,NULL,Vermutung,udhanifu,s,haramia,tikisho,itifaki,NA,sdf,NA,5,NA,NA,NA,NA,NA,NA,NA,NA,NA,NA,NA,NA,NA,NA,NA,NA,NA,NA,NA
bf798,shallow,flow.Sequence,3_0_5_0_4_1,NA,NA,completion,16766.7,594314.60000038,594309.1,594325.7,611092.4,611097.5,2024-05-04T06:06:38Z,611109,NULL,Vermutung,udhanifu,s,haramia,tikisho,itifaki,NA,sdf,NA,5,NA,NA,NA,NA,NA,NA,NA,NA,NA,NA,NA,NA,NA,NA,NA,NA,NA,NA,NA
bf798,task,flow.Sequence,3_0_5_0_4,NA,NA,completion,16766.7,594314.5,594309.1,594325.7,611092.4,611097.5,2024-05-04T06:06:38Z,611109,NULL,Vermutung,udhanifu,s,haramia,tikisho,itifaki,NA,sdf,NA,5,NA,NA,NA,NA,NA,NA,NA,NA,NA,NA,NA,NA,NA,NA,NA,NA,NA,NA,NA
bf798,deep,flow.Sequence,3_0_5_0_5_0,NA,NA,skipped,NA,611097.69999886,NA,NA,611092.4,611097.69999886,2024-05-04T06:06:38Z,611109,NULL,Fleisch,mshakiki,s,kizunguzungu,mshikamano,angusho,NA,sdf,NA,5,NA,NA,NA,NA,NA,NA,NA,NA,NA,NA,NA,NA,NA,NA,NA,NA,NA,NA,NA
bf798,Shallow Question,html.Page,3_0_5_0_5_1_0,NA,NA,form submission,5078.3999996185,611097.89999962,611092.4,611109,616187.39999962,616187.60000038,2024-05-04T06:06:43Z,616209.2,NULL,Fleisch,mshakiki,s,kizunguzungu,mshikamano,angusho,mshakiki,NA,NA,5,NA,NA,NA,NA,NA,NA,NA,NA,NA,NA,NA,NA,NA,NA,NA,NA,NA,NA,NA
bf798,"""Richtig""-Screen",canvas.Screen,3_0_5_0_5_1_1,NA,NA,timeout,4999.9,616189.10000038,616192.5,616209.2,621192.4,621193.10000038,2024-05-04T06:06:48Z,621209.1,NULL,Fleisch,mshakiki,s,kizunguzungu,mshikamano,angusho,NA,sdf,1,5,NA,NA,NA,NA,NA,NA,NA,NA,NA,NA,NA,NA,NA,NA,NA,NA,NA,NA,NA
bf798,"""Falsch""-Screen",canvas.Screen,3_0_5_0_5_1_2,NA,NA,skipped,NA,621197.10000038,NA,NA,621192.4,621197.29999924,2024-05-04T06:06:48Z,621209.1,NULL,Fleisch,mshakiki,s,kizunguzungu,mshikamano,angusho,NA,sdf,NA,5,NA,NA,NA,NA,NA,NA,NA,NA,NA,NA,NA,NA,NA,NA,NA,NA,NA,NA,NA
bf798,shallow,flow.Sequence,3_0_5_0_5_1,NA,NA,completion,10083.4,611097.79999924,611092.4,611109,621192.4,621197.60000038,2024-05-04T06:06:48Z,621209.1,NULL,Fleisch,mshakiki,s,kizunguzungu,mshikamano,angusho,NA,sdf,NA,5,NA,NA,NA,NA,NA,NA,NA,NA,NA,NA,NA,NA,NA,NA,NA,NA,NA,NA,NA
bf798,task,flow.Sequence,3_0_5_0_5,NA,NA,completion,10083.4,611097.60000038,611092.4,611109,621192.4,621197.69999886,2024-05-04T06:06:48Z,621209.1,NULL,Fleisch,mshakiki,s,kizunguzungu,mshikamano,angusho,NA,sdf,NA,5,NA,NA,NA,NA,NA,NA,NA,NA,NA,NA,NA,NA,NA,NA,NA,NA,NA,NA,NA
bf798,Deep Question,html.Page,3_0_5_0_6_0_0,NA,NA,form submission,20154.4,621197.79999924,621192.4,621209.1,641363.5,641363.79999924,2024-05-04T06:07:08Z,641375.6,NULL,Begegnung,kukutana,d,NA,NA,NA,kukutana,NA,NA,5,NA,NA,NA,NA,NA,NA,NA,NA,NA,NA,NA,NA,NA,NA,NA,NA,NA,NA,NA
bf798,"""Richtig""-Screen",canvas.Screen,3_0_5_0_6_0_1,NA,NA,timeout,5000.1,641365.5,641359.122,641375.6,646359.1,646359.79999924,2024-05-04T06:07:13Z,646375.7,NULL,Begegnung,kukutana,d,NA,NA,NA,NA,sdf,1,5,NA,NA,NA,NA,NA,NA,NA,NA,NA,NA,NA,NA,NA,NA,NA,NA,NA,NA,NA
bf798,"""Falsch""-Screen",canvas.Screen,3_0_5_0_6_0_2,NA,NA,skipped,NA,646363.89999962,NA,NA,646359.1,646364.10000038,2024-05-04T06:07:13Z,646375.7,NULL,Begegnung,kukutana,d,NA,NA,NA,NA,sdf,NA,5,NA,NA,NA,NA,NA,NA,NA,NA,NA,NA,NA,NA,NA,NA,NA,NA,NA,NA,NA
bf798,deep,flow.Sequence,3_0_5_0_6_0,NA,NA,completion,25150,621197.79999924,621192.4,621209.1,646359.1,646364.29999924,2024-05-04T06:07:13Z,646375.7,NULL,Begegnung,kukutana,d,NA,NA,NA,NA,sdf,NA,5,NA,NA,NA,NA,NA,NA,NA,NA,NA,NA,NA,NA,NA,NA,NA,NA,NA,NA,NA
bf798,shallow,flow.Sequence,3_0_5_0_6_1,NA,NA,skipped,NA,646364.29999924,NA,NA,646359.1,646364.5,2024-05-04T06:07:13Z,646375.7,NULL,Begegnung,kukutana,d,NA,NA,NA,NA,sdf,NA,5,NA,NA,NA,NA,NA,NA,NA,NA,NA,NA,NA,NA,NA,NA,NA,NA,NA,NA,NA
bf798,task,flow.Sequence,3_0_5_0_6,NA,NA,completion,25150,621197.79999924,621192.4,621209.1,646359.1,646364.60000038,2024-05-04T06:07:13Z,646375.7,NULL,Begegnung,kukutana,d,NA,NA,NA,NA,sdf,NA,5,NA,NA,NA,NA,NA,NA,NA,NA,NA,NA,NA,NA,NA,NA,NA,NA,NA,NA,NA
bf798,deep,flow.Sequence,3_0_5_0_7_0,NA,NA,skipped,NA,646364.69999886,NA,NA,646359.1,646364.69999886,2024-05-04T06:07:13Z,646375.7,NULL,Inhalt,yaliyomo,s,kishawishi,hifadhi,kutembea,NA,sdf,NA,5,NA,NA,NA,NA,NA,NA,NA,NA,NA,NA,NA,NA,NA,NA,NA,NA,NA,NA,NA
bf798,Shallow Question,html.Page,3_0_5_0_7_1_0,NA,NA,form submission,3174.6999996186,646364.79999924,646359.1,646375.7,649550.39999962,649550.69999886,2024-05-04T06:07:16Z,649559,NULL,Inhalt,yaliyomo,s,kishawishi,hifadhi,kutembea,yaliyomo,NA,NA,5,NA,NA,NA,NA,NA,NA,NA,NA,NA,NA,NA,NA,NA,NA,NA,NA,NA,NA,NA
bf798,"""Richtig""-Screen",canvas.Screen,3_0_5_0_7_1_1,NA,NA,timeout,5000.1,649552.19999886,649542.524,649559,654542.4,654543.10000038,2024-05-04T06:07:21Z,654559.1,NULL,Inhalt,yaliyomo,s,kishawishi,hifadhi,kutembea,NA,sdf,1,5,NA,NA,NA,NA,NA,NA,NA,NA,NA,NA,NA,NA,NA,NA,NA,NA,NA,NA,NA
bf798,"""Falsch""-Screen",canvas.Screen,3_0_5_0_7_1_2,NA,NA,skipped,NA,654547.10000038,NA,NA,654542.4,654547.19999886,2024-05-04T06:07:21Z,654559.1,NULL,Inhalt,yaliyomo,s,kishawishi,hifadhi,kutembea,NA,sdf,NA,5,NA,NA,NA,NA,NA,NA,NA,NA,NA,NA,NA,NA,NA,NA,NA,NA,NA,NA,NA
bf798,shallow,flow.Sequence,3_0_5_0_7_1,NA,NA,completion,8166.7000000001,646364.79999924,646359.1,646375.7,654542.4,654547.39999962,2024-05-04T06:07:21Z,654559.1,NULL,Inhalt,yaliyomo,s,kishawishi,hifadhi,kutembea,NA,sdf,NA,5,NA,NA,NA,NA,NA,NA,NA,NA,NA,NA,NA,NA,NA,NA,NA,NA,NA,NA,NA
bf798,task,flow.Sequence,3_0_5_0_7,NA,NA,completion,8166.7000000001,646364.69999886,646359.1,646375.7,654542.4,654547.5,2024-05-04T06:07:21Z,654559.1,NULL,Inhalt,yaliyomo,s,kishawishi,hifadhi,kutembea,NA,sdf,NA,5,NA,NA,NA,NA,NA,NA,NA,NA,NA,NA,NA,NA,NA,NA,NA,NA,NA,NA,NA
bf798,block,flow.Loop,3_0_5_0,NA,NA,completion,115233.3,539299.69999886,539292.47,539309.1,654542.4,654547.79999924,2024-05-04T06:07:21Z,654559.1,NULL,NA,NA,NA,NA,NA,NA,NA,sdf,NA,5,NA,NA,NA,NA,NA,NA,NA,NA,NA,NA,NA,NA,NA,NA,NA,NA,NA,NA,NA
bf798,weiter,canvas.Screen,3_0_5_1,sdf,keypress(Space),response,1495.4,654547.79999924,654542.4,654559.1,656054.5,656055.5,2024-05-04T06:07:22Z,656409,NULL,NA,NA,NA,NA,NA,NA,NA,sdf,NA,5,NA,NA,NA,NA,NA,NA,NA,NA,NA,NA,NA,NA,NA,NA,NA,NA,NA,NA,NA
bf798,check continue,flow.Sequence,3_0_5,NA,NA,completion,116745.4,539299.69999886,539292.47,539309.1,656054.5,656055.69999886,2024-05-04T06:07:22Z,656409,NULL,NA,NA,NA,NA,NA,NA,NA,sdf,NA,5,NA,NA,NA,NA,NA,NA,NA,NA,NA,NA,NA,NA,NA,NA,NA,NA,NA,NA,NA
bf798,check continue,flow.Sequence,3_0_6,NA,NA,skipped,NA,656092.69999886,NA,NA,656054.5,656092.69999886,2024-05-04T06:07:23Z,656409,NULL,NA,NA,NA,NA,NA,NA,NA,dfs,NA,6,NA,NA,NA,NA,NA,NA,NA,NA,NA,NA,NA,NA,NA,NA,NA,NA,NA,NA,NA
bf798,check continue,flow.Sequence,3_0_7,NA,NA,skipped,NA,656108.39999962,NA,NA,656054.5,656108.5,2024-05-04T06:07:23Z,656409,NULL,NA,NA,NA,NA,NA,NA,NA,df,NA,7,NA,NA,NA,NA,NA,NA,NA,NA,NA,NA,NA,NA,NA,NA,NA,NA,NA,NA,NA
bf798,check continue,flow.Sequence,3_0_8,NA,NA,skipped,NA,656122.29999924,NA,NA,656054.5,656122.39999962,2024-05-04T06:07:23Z,656409,NULL,NA,NA,NA,NA,NA,NA,NA,dfs,NA,8,NA,NA,NA,NA,NA,NA,NA,NA,NA,NA,NA,NA,NA,NA,NA,NA,NA,NA,NA
bf798,check continue,flow.Sequence,3_0_9,NA,NA,skipped,NA,656139.10000038,NA,NA,656054.5,656139.10000038,2024-05-04T06:07:23Z,656409,NULL,NA,NA,NA,NA,NA,NA,NA,dsf,NA,9,NA,NA,NA,NA,NA,NA,NA,NA,NA,NA,NA,NA,NA,NA,NA,NA,NA,NA,NA
bf798,check continue,flow.Sequence,3_0_10,NA,NA,skipped,NA,656165.69999886,NA,NA,656054.5,656165.79999924,2024-05-04T06:07:23Z,656409,NULL,NA,NA,NA,NA,NA,NA,NA,df,NA,10,NA,NA,NA,NA,NA,NA,NA,NA,NA,NA,NA,NA,NA,NA,NA,NA,NA,NA,NA
bf798,check continue,flow.Sequence,3_0_11,NA,NA,skipped,NA,656185.79999924,NA,NA,656054.5,656185.89999962,2024-05-04T06:07:23Z,656409,NULL,NA,NA,NA,NA,NA,NA,NA,dfs,NA,11,NA,NA,NA,NA,NA,NA,NA,NA,NA,NA,NA,NA,NA,NA,NA,NA,NA,NA,NA
bf798,check continue,flow.Sequence,3_0_12,NA,NA,skipped,NA,656197.5,NA,NA,656054.5,656197.60000038,2024-05-04T06:07:23Z,656409,NULL,NA,NA,NA,NA,NA,NA,NA,dsf,NA,12,NA,NA,NA,NA,NA,NA,NA,NA,NA,NA,NA,NA,NA,NA,NA,NA,NA,NA,NA
bf798,check continue,flow.Sequence,3_0_13,NA,NA,skipped,NA,656209.60000038,NA,NA,656054.5,656209.60000038,2024-05-04T06:07:23Z,656409,NULL,NA,NA,NA,NA,NA,NA,NA,dsf,NA,13,NA,NA,NA,NA,NA,NA,NA,NA,NA,NA,NA,NA,NA,NA,NA,NA,NA,NA,NA
bf798,check continue,flow.Sequence,3_0_14,NA,NA,skipped,NA,656222.29999924,NA,NA,656054.5,656222.39999962,2024-05-04T06:07:23Z,656409,NULL,NA,NA,NA,NA,NA,NA,NA,NA,NA,14,NA,NA,NA,NA,NA,NA,NA,NA,NA,NA,NA,NA,NA,NA,NA,NA,NA,NA,NA
bf798,check continue,flow.Sequence,3_0_15,NA,NA,skipped,NA,656248.89999962,NA,NA,656054.5,656249,2024-05-04T06:07:23Z,656409,NULL,NA,NA,NA,NA,NA,NA,NA,NA,NA,15,NA,NA,NA,NA,NA,NA,NA,NA,NA,NA,NA,NA,NA,NA,NA,NA,NA,NA,NA
bf798,check continue,flow.Sequence,3_0_16,NA,NA,skipped,NA,656262.89999962,NA,NA,656054.5,656263,2024-05-04T06:07:23Z,656409,NULL,NA,NA,NA,NA,NA,NA,NA,NA,NA,16,NA,NA,NA,NA,NA,NA,NA,NA,NA,NA,NA,NA,NA,NA,NA,NA,NA,NA,NA
bf798,check continue,flow.Sequence,3_0_17,NA,NA,skipped,NA,656274.29999924,NA,NA,656054.5,656274.29999924,2024-05-04T06:07:23Z,656409,NULL,NA,NA,NA,NA,NA,NA,NA,NA,NA,17,NA,NA,NA,NA,NA,NA,NA,NA,NA,NA,NA,NA,NA,NA,NA,NA,NA,NA,NA
bf798,check continue,flow.Sequence,3_0_18,NA,NA,skipped,NA,656285.29999924,NA,NA,656054.5,656285.39999962,2024-05-04T06:07:23Z,656409,NULL,NA,NA,NA,NA,NA,NA,NA,NA,NA,18,NA,NA,NA,NA,NA,NA,NA,NA,NA,NA,NA,NA,NA,NA,NA,NA,NA,NA,NA
bf798,check continue,flow.Sequence,3_0_19,NA,NA,skipped,NA,656296.69999886,NA,NA,656054.5,656296.79999924,2024-05-04T06:07:23Z,656409,NULL,NA,NA,NA,NA,NA,NA,NA,NA,NA,19,NA,NA,NA,NA,NA,NA,NA,NA,NA,NA,NA,NA,NA,NA,NA,NA,NA,NA,NA
bf798,check continue,flow.Sequence,3_0_20,NA,NA,skipped,NA,656307.79999924,NA,NA,656054.5,656307.79999924,2024-05-04T06:07:23Z,656409,NULL,NA,NA,NA,NA,NA,NA,NA,NA,NA,20,NA,NA,NA,NA,NA,NA,NA,NA,NA,NA,NA,NA,NA,NA,NA,NA,NA,NA,NA
bf798,check continue,flow.Sequence,3_0_21,NA,NA,skipped,NA,656319,NA,NA,656054.5,656319,2024-05-04T06:07:23Z,656409,NULL,NA,NA,NA,NA,NA,NA,NA,NA,NA,21,NA,NA,NA,NA,NA,NA,NA,NA,NA,NA,NA,NA,NA,NA,NA,NA,NA,NA,NA
bf798,check continue,flow.Sequence,3_0_22,NA,NA,skipped,NA,656329.79999924,NA,NA,656054.5,656329.89999962,2024-05-04T06:07:23Z,656409,NULL,NA,NA,NA,NA,NA,NA,NA,NA,NA,22,NA,NA,NA,NA,NA,NA,NA,NA,NA,NA,NA,NA,NA,NA,NA,NA,NA,NA,NA
bf798,check continue,flow.Sequence,3_0_23,NA,NA,skipped,NA,656342.10000038,NA,NA,656054.5,656342.10000038,2024-05-04T06:07:23Z,656409,NULL,NA,NA,NA,NA,NA,NA,NA,NA,NA,23,NA,NA,NA,NA,NA,NA,NA,NA,NA,NA,NA,NA,NA,NA,NA,NA,NA,NA,NA
bf798,check continue,flow.Sequence,3_0_24,NA,NA,skipped,NA,656352.29999924,NA,NA,656054.5,656352.39999962,2024-05-04T06:07:23Z,656409,NULL,NA,NA,NA,NA,NA,NA,NA,NA,NA,24,NA,NA,NA,NA,NA,NA,NA,NA,NA,NA,NA,NA,NA,NA,NA,NA,NA,NA,NA
bf798,check continue,flow.Sequence,3_0_25,NA,NA,skipped,NA,656364.69999886,NA,NA,656054.5,656364.79999924,2024-05-04T06:07:23Z,656409,NULL,NA,NA,NA,NA,NA,NA,NA,NA,NA,25,NA,NA,NA,NA,NA,NA,NA,NA,NA,NA,NA,NA,NA,NA,NA,NA,NA,NA,NA
bf798,check continue,flow.Sequence,3_0_26,NA,NA,skipped,NA,656375,NA,NA,656054.5,656375.10000038,2024-05-04T06:07:23Z,656409,NULL,NA,NA,NA,NA,NA,NA,NA,NA,NA,26,NA,NA,NA,NA,NA,NA,NA,NA,NA,NA,NA,NA,NA,NA,NA,NA,NA,NA,NA
bf798,check continue,flow.Sequence,3_0_27,NA,NA,skipped,NA,656386.69999886,NA,NA,656054.5,656386.69999886,2024-05-04T06:07:23Z,656409,NULL,NA,NA,NA,NA,NA,NA,NA,NA,NA,27,NA,NA,NA,NA,NA,NA,NA,NA,NA,NA,NA,NA,NA,NA,NA,NA,NA,NA,NA
bf798,check continue,flow.Sequence,3_0_28,NA,NA,skipped,NA,656397.19999886,NA,NA,656054.5,656397.19999886,2024-05-04T06:07:23Z,656409,NULL,NA,NA,NA,NA,NA,NA,NA,NA,NA,28,NA,NA,NA,NA,NA,NA,NA,NA,NA,NA,NA,NA,NA,NA,NA,NA,NA,NA,NA
bf798,check continue,flow.Sequence,3_0_29,NA,NA,skipped,NA,656408.19999886,NA,NA,656054.5,656408.19999886,2024-05-04T06:07:23Z,656409,NULL,NA,NA,NA,NA,NA,NA,NA,NA,NA,29,NA,NA,NA,NA,NA,NA,NA,NA,NA,NA,NA,NA,NA,NA,NA,NA,NA,NA,NA
bf798,until continue,flow.Loop,3_0,NA,NA,completion,554161.6,101870.19999886,101876.238,101892.9,656054.5,656408.19999886,2024-05-04T06:07:23Z,656409,NULL,NA,NA,NA,NA,NA,NA,NA,NA,NA,NA,NA,NA,NA,NA,NA,NA,NA,NA,NA,NA,NA,NA,NA,NA,NA,NA,NA,NA,NA
bf798,block 1,flow.Sequence,3,NA,NA,completion,554161.6,101870.10000038,101876.238,101892.9,656054.5,656408.19999886,2024-05-04T06:07:23Z,656409,NULL,NA,NA,NA,NA,NA,NA,NA,NA,NA,NA,NA,NA,NA,NA,NA,NA,NA,NA,NA,NA,NA,NA,NA,NA,NA,NA,NA,NA,NA
