observation,sender,sender_type,sender_id,response,response_action,ended_on,duration,time_run,time_render,time_show,time_end,time_commit,timestamp,time_switch,german,swahili,enc,distractor1,distractor2,distractor3,response_2,x,correct,distractors,url_vp,url_sess,meta_labjs_version,meta_location,meta_user_agent,meta_platform,meta_language,meta_locale,meta_time_zone,meta_timezone_offset,meta_screen_width,meta_screen_height,meta_scroll_width,meta_scroll_height,meta_window_inner_width,meta_window_inner_height,meta_device_pixel_ratio,meta_labjs_build_flavor,meta_labjs_build_commit
21445,Introduction delayed retrieval,canvas.Screen,0,weiter,keypress(Space),response,6418.9249999999,2033.7,2032.843,2066.175,8485.0999999999,8498.3999999999,2023-12-02T08:50:58Z,8499.251,NA,NA,NA,NA,NA,NA,NA,NA,NA,NULL,137,4,20.2.4,https://neurocog.fernuni.ch/studies/vweber/aberisha/delayed/index.html?vp=137&sess=4,"Mozilla/5.0 (Macintosh; Intel Mac OS X 10_15_7) AppleWebKit/537.36 (KHTML, like Gecko) Chrome/119.0.0.0 Safari/537.36",MacIntel,de-DE,de,Europe/Zurich,-60,1680,1050,1105,779,1105,827,2,production,f5b4a49f956347addd546a832a3327688c2c0fef
21445,Deep Question,html.Page,1_0_0_0,NA,NA,form submission,10023.249,8498.8,8482.585,8499.251,18522.5,18522.7,2023-12-02T08:51:08Z,18532.356,Stimmung,kinyongo,s,kilekile,kisambo,madhehebu,uezai,NA,NA,NULL,NA,NA,NA,NA,NA,NA,NA,NA,NA,NA,NA,NA,NA,NA,NA,NA,NA,NA,NA
21445,Save data screen,canvas.Screen,1_0_0_1,NA,NA,timeout,499.98,18523.2,18515.69,18532.356,19015.67,19019.5,2023-12-02T08:51:08Z,19032.336,Stimmung,kinyongo,s,kilekile,kisambo,madhehebu,NA,NA,0,NULL,NA,NA,NA,NA,NA,NA,NA,NA,NA,NA,NA,NA,NA,NA,NA,NA,NA,NA,NA
21445,deep,flow.Sequence,1_0_0,NA,NA,completion,10516.419,8498.7,8482.585,8499.251,19015.67,19019.6,2023-12-02T08:51:08Z,19032.336,Stimmung,kinyongo,s,kilekile,kisambo,madhehebu,NA,NA,NA,NULL,NA,NA,NA,NA,NA,NA,NA,NA,NA,NA,NA,NA,NA,NA,NA,NA,NA,NA,NA
21445,task,flow.Sequence,1_0,NA,NA,completion,10516.419,8498.5999999999,8482.585,8499.251,19015.67,19019.7,2023-12-02T08:51:08Z,19032.336,Stimmung,kinyongo,s,kilekile,kisambo,madhehebu,NA,NA,NA,NULL,NA,NA,NA,NA,NA,NA,NA,NA,NA,NA,NA,NA,NA,NA,NA,NA,NA,NA,NA
21445,Deep Question,html.Page,1_1_0_0,NA,NA,form submission,7391.0639999999,19019.8,19015.67,19032.336,26423.4,26423.6,2023-12-02T08:51:16Z,26432.362,Papier,karatasi,d,uchambuzi,usalama,kukataliwa,utumami,NA,NA,NULL,NA,NA,NA,NA,NA,NA,NA,NA,NA,NA,NA,NA,NA,NA,NA,NA,NA,NA,NA
21445,Save data screen,canvas.Screen,1_1_0_1,NA,NA,timeout,499.98,26424.4,26415.696,26432.362,26915.676,26919,2023-12-02T08:51:16Z,26932.342,Papier,karatasi,d,uchambuzi,usalama,kukataliwa,NA,NA,0,NULL,NA,NA,NA,NA,NA,NA,NA,NA,NA,NA,NA,NA,NA,NA,NA,NA,NA,NA,NA
21445,deep,flow.Sequence,1_1_0,NA,NA,completion,7883.34,19019.7,19015.67,19032.336,26915.676,26919.7,2023-12-02T08:51:16Z,26932.342,Papier,karatasi,d,uchambuzi,usalama,kukataliwa,NA,NA,NA,NULL,NA,NA,NA,NA,NA,NA,NA,NA,NA,NA,NA,NA,NA,NA,NA,NA,NA,NA,NA
21445,task,flow.Sequence,1_1,NA,NA,completion,7883.34,19019.7,19015.67,19032.336,26915.676,26919.9,2023-12-02T08:51:16Z,26932.342,Papier,karatasi,d,uchambuzi,usalama,kukataliwa,NA,NA,NA,NULL,NA,NA,NA,NA,NA,NA,NA,NA,NA,NA,NA,NA,NA,NA,NA,NA,NA,NA,NA
21445,Deep Question,html.Page,1_2_0_0,NA,NA,form submission,10757.658,26920.2,26915.676,26932.342,37690,37690.3,2023-12-02T08:51:27Z,37698.987,Atmosphäre,angahewa,s,kuteseka,usahihi,kutoamini,ufuami,NA,NA,NULL,NA,NA,NA,NA,NA,NA,NA,NA,NA,NA,NA,NA,NA,NA,NA,NA,NA,NA,NA
21445,Save data screen,canvas.Screen,1_2_0_1,NA,NA,timeout,499.98,37691.2,37682.321,37698.987,38182.301,38183.7,2023-12-02T08:51:28Z,38198.967,Atmosphäre,angahewa,s,kuteseka,usahihi,kutoamini,NA,NA,0,NULL,NA,NA,NA,NA,NA,NA,NA,NA,NA,NA,NA,NA,NA,NA,NA,NA,NA,NA,NA
21445,deep,flow.Sequence,1_2_0,NA,NA,completion,11249.959,26920.1,26915.676,26932.342,38182.301,38184,2023-12-02T08:51:28Z,38198.967,Atmosphäre,angahewa,s,kuteseka,usahihi,kutoamini,NA,NA,NA,NULL,NA,NA,NA,NA,NA,NA,NA,NA,NA,NA,NA,NA,NA,NA,NA,NA,NA,NA,NA
21445,task,flow.Sequence,1_2,NA,NA,completion,11249.959,26920.1,26915.676,26932.342,38182.301,38184.3,2023-12-02T08:51:28Z,38198.967,Atmosphäre,angahewa,s,kuteseka,usahihi,kutoamini,NA,NA,NA,NULL,NA,NA,NA,NA,NA,NA,NA,NA,NA,NA,NA,NA,NA,NA,NA,NA,NA,NA,NA
21445,Deep Question,html.Page,1_3_0_0,NA,NA,form submission,6556.4329999999,38184.5,38182.301,38198.967,44755.4,44755.7,2023-12-02T08:51:34Z,44765.586,Flexibilität,kubadilika,s,enjini,usikilivu,hesabu,kulami,NA,NA,NULL,NA,NA,NA,NA,NA,NA,NA,NA,NA,NA,NA,NA,NA,NA,NA,NA,NA,NA,NA
21445,Save data screen,canvas.Screen,1_3_0_1,NA,NA,timeout,499.98,44756.2,44748.92,44765.586,45248.9,45251.6,2023-12-02T08:51:35Z,45265.566,Flexibilität,kubadilika,s,enjini,usikilivu,hesabu,NA,NA,0,NULL,NA,NA,NA,NA,NA,NA,NA,NA,NA,NA,NA,NA,NA,NA,NA,NA,NA,NA,NA
21445,deep,flow.Sequence,1_3_0,NA,NA,completion,7049.933,38184.5,38182.301,38198.967,45248.9,45251.8,2023-12-02T08:51:35Z,45265.566,Flexibilität,kubadilika,s,enjini,usikilivu,hesabu,NA,NA,NA,NULL,NA,NA,NA,NA,NA,NA,NA,NA,NA,NA,NA,NA,NA,NA,NA,NA,NA,NA,NA
21445,task,flow.Sequence,1_3,NA,NA,completion,7049.933,38184.3,38182.301,38198.967,45248.9,45252,2023-12-02T08:51:35Z,45265.566,Flexibilität,kubadilika,s,enjini,usikilivu,hesabu,NA,NA,NA,NULL,NA,NA,NA,NA,NA,NA,NA,NA,NA,NA,NA,NA,NA,NA,NA,NA,NA,NA,NA
21445,Deep Question,html.Page,1_4_0_0,NA,NA,form submission,12140.834,45252.2,45248.9,45265.566,57406.4,57406.6,2023-12-02T08:51:47Z,57415.306,Erneuerung,ukarabati,d,ushawishi,ukalifu,unyonyaji,ubunifu,NA,NA,NULL,NA,NA,NA,NA,NA,NA,NA,NA,NA,NA,NA,NA,NA,NA,NA,NA,NA,NA,NA
21445,Save data screen,canvas.Screen,1_4_0_1,NA,NA,timeout,499.98,57407.2,57398.64,57415.306,57898.62,57899.8,2023-12-02T08:51:47Z,57915.286,Erneuerung,ukarabati,d,ushawishi,ukalifu,unyonyaji,NA,NA,0,NULL,NA,NA,NA,NA,NA,NA,NA,NA,NA,NA,NA,NA,NA,NA,NA,NA,NA,NA,NA
21445,deep,flow.Sequence,1_4_0,NA,NA,completion,12633.054,45252.1,45248.9,45265.566,57898.62,57900.1,2023-12-02T08:51:47Z,57915.286,Erneuerung,ukarabati,d,ushawishi,ukalifu,unyonyaji,NA,NA,NA,NULL,NA,NA,NA,NA,NA,NA,NA,NA,NA,NA,NA,NA,NA,NA,NA,NA,NA,NA,NA
21445,task,flow.Sequence,1_4,NA,NA,completion,12633.054,45252.1,45248.9,45265.566,57898.62,57900.2,2023-12-02T08:51:47Z,57915.286,Erneuerung,ukarabati,d,ushawishi,ukalifu,unyonyaji,NA,NA,NA,NULL,NA,NA,NA,NA,NA,NA,NA,NA,NA,NA,NA,NA,NA,NA,NA,NA,NA,NA,NA
21445,Deep Question,html.Page,1_5_0_0,NA,NA,form submission,8524.1139999999,57900.4,57898.62,57915.286,66439.4,66439.5,2023-12-02T08:51:56Z,66448.721,Genehmigung,idhini,s,mwanamke,itikadi,fedheha,kumaeti,NA,NA,NULL,NA,NA,NA,NA,NA,NA,NA,NA,NA,NA,NA,NA,NA,NA,NA,NA,NA,NA,NA
21445,Save data screen,canvas.Screen,1_5_0_1,NA,NA,timeout,499.98,66441.4,66432.055,66448.721,66932.035,66935.9,2023-12-02T08:51:56Z,66948.701,Genehmigung,idhini,s,mwanamke,itikadi,fedheha,NA,NA,0,NULL,NA,NA,NA,NA,NA,NA,NA,NA,NA,NA,NA,NA,NA,NA,NA,NA,NA,NA,NA
21445,deep,flow.Sequence,1_5_0,NA,NA,completion,9016.749,57900.3,57898.62,57915.286,66932.035,66936.1,2023-12-02T08:51:56Z,66948.701,Genehmigung,idhini,s,mwanamke,itikadi,fedheha,NA,NA,NA,NULL,NA,NA,NA,NA,NA,NA,NA,NA,NA,NA,NA,NA,NA,NA,NA,NA,NA,NA,NA
21445,task,flow.Sequence,1_5,NA,NA,completion,9016.749,57900.3,57898.62,57915.286,66932.035,66936.2,2023-12-02T08:51:56Z,66948.701,Genehmigung,idhini,s,mwanamke,itikadi,fedheha,NA,NA,NA,NULL,NA,NA,NA,NA,NA,NA,NA,NA,NA,NA,NA,NA,NA,NA,NA,NA,NA,NA,NA
21445,Deep Question,html.Page,1_6_0_0,NA,NA,form submission,8540.099,66936.4,66932.035,66948.701,75488.8,75489.1,2023-12-02T08:52:05Z,75498.648,Wechsel,ugeuzaji,d,utambulisho,kujenga,wasiwasi,uezuani,NA,NA,NULL,NA,NA,NA,NA,NA,NA,NA,NA,NA,NA,NA,NA,NA,NA,NA,NA,NA,NA,NA
21445,Save data screen,canvas.Screen,1_6_0_1,NA,NA,timeout,499.98,75491,75481.982,75498.648,75981.962,75986.2,2023-12-02T08:52:05Z,75998.628,Wechsel,ugeuzaji,d,utambulisho,kujenga,wasiwasi,NA,NA,0,NULL,NA,NA,NA,NA,NA,NA,NA,NA,NA,NA,NA,NA,NA,NA,NA,NA,NA,NA,NA
21445,deep,flow.Sequence,1_6_0,NA,NA,completion,9033.261,66936.4,66932.035,66948.701,75981.962,75986.5,2023-12-02T08:52:05Z,75998.628,Wechsel,ugeuzaji,d,utambulisho,kujenga,wasiwasi,NA,NA,NA,NULL,NA,NA,NA,NA,NA,NA,NA,NA,NA,NA,NA,NA,NA,NA,NA,NA,NA,NA,NA
21445,task,flow.Sequence,1_6,NA,NA,completion,9033.261,66936.4,66932.035,66948.701,75981.962,75986.6,2023-12-02T08:52:05Z,75998.628,Wechsel,ugeuzaji,d,utambulisho,kujenga,wasiwasi,NA,NA,NA,NULL,NA,NA,NA,NA,NA,NA,NA,NA,NA,NA,NA,NA,NA,NA,NA,NA,NA,NA,NA
21445,Deep Question,html.Page,1_7_0_0,NA,NA,form submission,8090.372,75986.7,75981.962,75998.628,84089,84089.2,2023-12-02T08:52:14Z,84098.606,Orientierung,urekebisho,d,uelekeo,marekebisho,utunzaji,eretagw,NA,NA,NULL,NA,NA,NA,NA,NA,NA,NA,NA,NA,NA,NA,NA,NA,NA,NA,NA,NA,NA,NA
21445,Save data screen,canvas.Screen,1_7_0_1,NA,NA,timeout,499.98,84091.1,84081.94,84098.606,84581.92,84584.9,2023-12-02T08:52:14Z,84598.586,Orientierung,urekebisho,d,uelekeo,marekebisho,utunzaji,NA,NA,0,NULL,NA,NA,NA,NA,NA,NA,NA,NA,NA,NA,NA,NA,NA,NA,NA,NA,NA,NA,NA
21445,deep,flow.Sequence,1_7_0,NA,NA,completion,8583.292,75986.7,75981.962,75998.628,84581.92,84585.2,2023-12-02T08:52:14Z,84598.586,Orientierung,urekebisho,d,uelekeo,marekebisho,utunzaji,NA,NA,NA,NULL,NA,NA,NA,NA,NA,NA,NA,NA,NA,NA,NA,NA,NA,NA,NA,NA,NA,NA,NA
21445,task,flow.Sequence,1_7,NA,NA,completion,8583.292,75986.7,75981.962,75998.628,84581.92,84585.3,2023-12-02T08:52:14Z,84598.586,Orientierung,urekebisho,d,uelekeo,marekebisho,utunzaji,NA,NA,NA,NULL,NA,NA,NA,NA,NA,NA,NA,NA,NA,NA,NA,NA,NA,NA,NA,NA,NA,NA,NA
21445,Deep Question,html.Page,1_8_0_0,NA,NA,form submission,6656.914,84585.5,84581.92,84598.586,91255.5,91255.8,2023-12-02T08:52:21Z,91264.986,Entwicklung,maendeleo,s,uangavu,mshindwa,badiliko,entika,NA,NA,NULL,NA,NA,NA,NA,NA,NA,NA,NA,NA,NA,NA,NA,NA,NA,NA,NA,NA,NA,NA
21445,Save data screen,canvas.Screen,1_8_0_1,NA,NA,timeout,500.136,91257.6,91248.32,91264.986,91748.456,91750.3,2023-12-02T08:52:21Z,91765.122,Entwicklung,maendeleo,s,uangavu,mshindwa,badiliko,NA,NA,0,NULL,NA,NA,NA,NA,NA,NA,NA,NA,NA,NA,NA,NA,NA,NA,NA,NA,NA,NA,NA
21445,deep,flow.Sequence,1_8_0,NA,NA,completion,7149.87,84585.4,84581.92,84598.586,91748.456,91750.6,2023-12-02T08:52:21Z,91765.122,Entwicklung,maendeleo,s,uangavu,mshindwa,badiliko,NA,NA,NA,NULL,NA,NA,NA,NA,NA,NA,NA,NA,NA,NA,NA,NA,NA,NA,NA,NA,NA,NA,NA
21445,task,flow.Sequence,1_8,NA,NA,completion,7149.87,84585.4,84581.92,84598.586,91748.456,91750.7,2023-12-02T08:52:21Z,91765.122,Entwicklung,maendeleo,s,uangavu,mshindwa,badiliko,NA,NA,NA,NULL,NA,NA,NA,NA,NA,NA,NA,NA,NA,NA,NA,NA,NA,NA,NA,NA,NA,NA,NA
21445,Deep Question,html.Page,1_9_0_0,NA,NA,form submission,7040.178,91750.9,91748.456,91765.122,98805.3,98805.5,2023-12-02T08:52:28Z,98814.84,Vorwurf,mashtaka,s,msukumo,mtangulizi,uenyekiti,wulafe,NA,NA,NULL,NA,NA,NA,NA,NA,NA,NA,NA,NA,NA,NA,NA,NA,NA,NA,NA,NA,NA,NA
21445,Save data screen,canvas.Screen,1_9_0_1,NA,NA,timeout,499.98000000001,98807.2,98798.174,98814.84,99298.154,99299.3,2023-12-02T08:52:29Z,99314.82,Vorwurf,mashtaka,s,msukumo,mtangulizi,uenyekiti,NA,NA,0,NULL,NA,NA,NA,NA,NA,NA,NA,NA,NA,NA,NA,NA,NA,NA,NA,NA,NA,NA,NA
21445,deep,flow.Sequence,1_9_0,NA,NA,completion,7533.032,91750.9,91748.456,91765.122,99298.154,99299.5,2023-12-02T08:52:29Z,99314.82,Vorwurf,mashtaka,s,msukumo,mtangulizi,uenyekiti,NA,NA,NA,NULL,NA,NA,NA,NA,NA,NA,NA,NA,NA,NA,NA,NA,NA,NA,NA,NA,NA,NA,NA
21445,task,flow.Sequence,1_9,NA,NA,completion,7533.032,91750.9,91748.456,91765.122,99298.154,99299.7,2023-12-02T08:52:29Z,99314.82,Vorwurf,mashtaka,s,msukumo,mtangulizi,uenyekiti,NA,NA,NA,NULL,NA,NA,NA,NA,NA,NA,NA,NA,NA,NA,NA,NA,NA,NA,NA,NA,NA,NA,NA
21445,Deep Question,html.Page,1_10_0_0,NA,NA,form submission,8741.48,99299.9,99298.154,99314.82,108056.3,108056.4,2023-12-02T08:52:38Z,108064.792,Begegnung,kukutana,s,mmasihiya,mpiganaji,husiano,ukuami,NA,NA,NULL,NA,NA,NA,NA,NA,NA,NA,NA,NA,NA,NA,NA,NA,NA,NA,NA,NA,NA,NA
21445,Save data screen,canvas.Screen,1_10_0_1,NA,NA,timeout,499.98,108058.4,108048.126,108064.792,108548.106,108552.6,2023-12-02T08:52:38Z,108564.772,Begegnung,kukutana,s,mmasihiya,mpiganaji,husiano,NA,NA,0,NULL,NA,NA,NA,NA,NA,NA,NA,NA,NA,NA,NA,NA,NA,NA,NA,NA,NA,NA,NA
21445,deep,flow.Sequence,1_10_0,NA,NA,completion,9233.286,99299.9,99298.154,99314.82,108548.106,108552.8,2023-12-02T08:52:38Z,108564.772,Begegnung,kukutana,s,mmasihiya,mpiganaji,husiano,NA,NA,NA,NULL,NA,NA,NA,NA,NA,NA,NA,NA,NA,NA,NA,NA,NA,NA,NA,NA,NA,NA,NA
21445,task,flow.Sequence,1_10,NA,NA,completion,9233.286,99299.8,99298.154,99314.82,108548.106,108552.9,2023-12-02T08:52:38Z,108564.772,Begegnung,kukutana,s,mmasihiya,mpiganaji,husiano,NA,NA,NA,NULL,NA,NA,NA,NA,NA,NA,NA,NA,NA,NA,NA,NA,NA,NA,NA,NA,NA,NA,NA
21445,Deep Question,html.Page,1_11_0_0,NA,NA,form submission,4857.1279999999,108553,108548.106,108564.772,113421.9,113422,2023-12-02T08:52:43Z,113431.638,Respekt,heshima,d,changamnao,upinzani,ufanisi,uezani,NA,NA,NULL,NA,NA,NA,NA,NA,NA,NA,NA,NA,NA,NA,NA,NA,NA,NA,NA,NA,NA,NA
21445,Save data screen,canvas.Screen,1_11_0_1,NA,NA,timeout,499.98,113423.9,113414.972,113431.638,113914.952,113919.7,2023-12-02T08:52:43Z,113931.618,Respekt,heshima,d,changamnao,upinzani,ufanisi,NA,NA,0,NULL,NA,NA,NA,NA,NA,NA,NA,NA,NA,NA,NA,NA,NA,NA,NA,NA,NA,NA,NA
21445,deep,flow.Sequence,1_11_0,NA,NA,completion,5350.18,108553,108548.106,108564.772,113914.952,113920,2023-12-02T08:52:43Z,113931.618,Respekt,heshima,d,changamnao,upinzani,ufanisi,NA,NA,NA,NULL,NA,NA,NA,NA,NA,NA,NA,NA,NA,NA,NA,NA,NA,NA,NA,NA,NA,NA,NA
21445,task,flow.Sequence,1_11,NA,NA,completion,5350.18,108553,108548.106,108564.772,113914.952,113920.2,2023-12-02T08:52:43Z,113931.618,Respekt,heshima,d,changamnao,upinzani,ufanisi,NA,NA,NA,NULL,NA,NA,NA,NA,NA,NA,NA,NA,NA,NA,NA,NA,NA,NA,NA,NA,NA,NA,NA
21445,Deep Question,html.Page,1_12_0_0,NA,NA,form submission,17872.782,113920.4,113914.952,113931.618,131804.4,131804.5,2023-12-02T08:53:01Z,131814.575,Betrüger,mdanganyifu,s,mwanamuziki,wastani,mahakama,uhuja,NA,NA,NULL,NA,NA,NA,NA,NA,NA,NA,NA,NA,NA,NA,NA,NA,NA,NA,NA,NA,NA,NA
21445,Save data screen,canvas.Screen,1_12_0_1,NA,NA,timeout,499.97999999998,131806,131797.909,131814.575,132297.889,132300,2023-12-02T08:53:02Z,132314.555,Betrüger,mdanganyifu,s,mwanamuziki,wastani,mahakama,NA,NA,0,NULL,NA,NA,NA,NA,NA,NA,NA,NA,NA,NA,NA,NA,NA,NA,NA,NA,NA,NA,NA
21445,deep,flow.Sequence,1_12_0,NA,NA,completion,18366.271,113920.3,113914.952,113931.618,132297.889,132300.1,2023-12-02T08:53:02Z,132314.555,Betrüger,mdanganyifu,s,mwanamuziki,wastani,mahakama,NA,NA,NA,NULL,NA,NA,NA,NA,NA,NA,NA,NA,NA,NA,NA,NA,NA,NA,NA,NA,NA,NA,NA
21445,task,flow.Sequence,1_12,NA,NA,completion,18366.271,113920.2,113914.952,113931.618,132297.889,132300.2,2023-12-02T08:53:02Z,132314.555,Betrüger,mdanganyifu,s,mwanamuziki,wastani,mahakama,NA,NA,NA,NULL,NA,NA,NA,NA,NA,NA,NA,NA,NA,NA,NA,NA,NA,NA,NA,NA,NA,NA,NA
21445,Deep Question,html.Page,1_13_0_0,NA,NA,form submission,8240.645,132300.4,132297.889,132314.555,140555.2,140555.4,2023-12-02T08:53:10Z,140564.586,Niveau,kiwango,d,usimamizi,mwamali,mshairi,nikame,NA,NA,NULL,NA,NA,NA,NA,NA,NA,NA,NA,NA,NA,NA,NA,NA,NA,NA,NA,NA,NA,NA
21445,Save data screen,canvas.Screen,1_13_0_1,NA,NA,timeout,499.97999999998,140557.7,140547.92,140564.586,141047.9,141050.6,2023-12-02T08:53:10Z,141064.566,Niveau,kiwango,d,usimamizi,mwamali,mshairi,NA,NA,0,NULL,NA,NA,NA,NA,NA,NA,NA,NA,NA,NA,NA,NA,NA,NA,NA,NA,NA,NA,NA
21445,deep,flow.Sequence,1_13_0,NA,NA,completion,8733.345,132300.3,132297.889,132314.555,141047.9,141050.9,2023-12-02T08:53:10Z,141064.566,Niveau,kiwango,d,usimamizi,mwamali,mshairi,NA,NA,NA,NULL,NA,NA,NA,NA,NA,NA,NA,NA,NA,NA,NA,NA,NA,NA,NA,NA,NA,NA,NA
21445,task,flow.Sequence,1_13,NA,NA,completion,8733.345,132300.3,132297.889,132314.555,141047.9,141050.9,2023-12-02T08:53:10Z,141064.566,Niveau,kiwango,d,usimamizi,mwamali,mshairi,NA,NA,NA,NULL,NA,NA,NA,NA,NA,NA,NA,NA,NA,NA,NA,NA,NA,NA,NA,NA,NA,NA,NA
21445,Deep Question,html.Page,1_14_0_0,NA,NA,form submission,13906.934,141051.1,141047.9,141064.566,154971.5,154971.7,2023-12-02T08:53:24Z,154980.975,Fleisch,mshakiki,d,kizunguzungu,mshikamano,angusho,fuziami,NA,NA,NULL,NA,NA,NA,NA,NA,NA,NA,NA,NA,NA,NA,NA,NA,NA,NA,NA,NA,NA,NA
21445,Save data screen,canvas.Screen,1_14_0_1,NA,NA,timeout,499.97999999998,154973.5,154964.309,154980.975,155464.289,155467.7,2023-12-02T08:53:25Z,155480.955,Fleisch,mshakiki,d,kizunguzungu,mshikamano,angusho,NA,NA,0,NULL,NA,NA,NA,NA,NA,NA,NA,NA,NA,NA,NA,NA,NA,NA,NA,NA,NA,NA,NA
21445,deep,flow.Sequence,1_14_0,NA,NA,completion,14399.723,141051,141047.9,141064.566,155464.289,155467.9,2023-12-02T08:53:25Z,155480.955,Fleisch,mshakiki,d,kizunguzungu,mshikamano,angusho,NA,NA,NA,NULL,NA,NA,NA,NA,NA,NA,NA,NA,NA,NA,NA,NA,NA,NA,NA,NA,NA,NA,NA
21445,task,flow.Sequence,1_14,NA,NA,completion,14399.723,141051,141047.9,141064.566,155464.289,155468.2,2023-12-02T08:53:25Z,155480.955,Fleisch,mshakiki,d,kizunguzungu,mshikamano,angusho,NA,NA,NA,NULL,NA,NA,NA,NA,NA,NA,NA,NA,NA,NA,NA,NA,NA,NA,NA,NA,NA,NA,NA
21445,Deep Question,html.Page,1_15_0_0,NA,NA,form submission,7123.745,155468.2,155464.289,155480.955,162604.7,162604.9,2023-12-02T08:53:32Z,162614.161,Integrität,uadilifu,d,muungano,mtiririko,upunguaji,intageji,NA,NA,NULL,NA,NA,NA,NA,NA,NA,NA,NA,NA,NA,NA,NA,NA,NA,NA,NA,NA,NA,NA
21445,Save data screen,canvas.Screen,1_15_0_1,NA,NA,timeout,499.98000000001,162606.6,162597.495,162614.161,163097.475,163101.4,2023-12-02T08:53:33Z,163114.141,Integrität,uadilifu,d,muungano,mtiririko,upunguaji,NA,NA,0,NULL,NA,NA,NA,NA,NA,NA,NA,NA,NA,NA,NA,NA,NA,NA,NA,NA,NA,NA,NA
21445,deep,flow.Sequence,1_15_0,NA,NA,completion,7616.52,155468.2,155464.289,155480.955,163097.475,163101.8,2023-12-02T08:53:33Z,163114.141,Integrität,uadilifu,d,muungano,mtiririko,upunguaji,NA,NA,NA,NULL,NA,NA,NA,NA,NA,NA,NA,NA,NA,NA,NA,NA,NA,NA,NA,NA,NA,NA,NA
21445,task,flow.Sequence,1_15,NA,NA,completion,7616.52,155468.2,155464.289,155480.955,163097.475,163101.9,2023-12-02T08:53:33Z,163114.141,Integrität,uadilifu,d,muungano,mtiririko,upunguaji,NA,NA,NA,NULL,NA,NA,NA,NA,NA,NA,NA,NA,NA,NA,NA,NA,NA,NA,NA,NA,NA,NA,NA
21445,retrieval block 1 (cued recall),flow.Loop,1,NA,NA,completion,154598.224,8498.5999999999,8482.585,8499.251,163097.475,163102.1,2023-12-02T08:53:33Z,163114.141,NA,NA,NA,NA,NA,NA,NA,NA,NA,NULL,NA,NA,NA,NA,NA,NA,NA,NA,NA,NA,NA,NA,NA,NA,NA,NA,NA,NA,NA
21445,Shallow Question,html.Page,2_0_0_0,NA,NA,form submission,16940.459,163102.2,163097.475,163114.141,180054.6,180054.9,2023-12-02T08:53:50Z,180064.202,Betrüger,mdanganyifu,s,mwanamuziki,wastani,mahakama,mdanganyifu,NA,NA,"c(""distractor1"", ""distractor2"", ""distractor3"")",NA,NA,NA,NA,NA,NA,NA,NA,NA,NA,NA,NA,NA,NA,NA,NA,NA,NA,NA
21445,Save data screen,canvas.Screen,2_0_0_1,NA,NA,timeout,499.98000000001,180056.7,180047.536,180064.202,180547.516,180550.9,2023-12-02T08:53:50Z,180564.182,Betrüger,mdanganyifu,s,mwanamuziki,wastani,mahakama,NA,NA,1,"c(""distractor1"", ""distractor2"", ""distractor3"")",NA,NA,NA,NA,NA,NA,NA,NA,NA,NA,NA,NA,NA,NA,NA,NA,NA,NA,NA
21445,shallow,flow.Sequence,2_0_0,NA,NA,completion,17433.375,163102.2,163097.475,163114.141,180547.516,180551.2,2023-12-02T08:53:50Z,180564.182,Betrüger,mdanganyifu,s,mwanamuziki,wastani,mahakama,NA,NA,NA,"c(""distractor1"", ""distractor2"", ""distractor3"")",NA,NA,NA,NA,NA,NA,NA,NA,NA,NA,NA,NA,NA,NA,NA,NA,NA,NA,NA
21445,task,flow.Sequence,2_0,NA,NA,completion,17433.375,163102.2,163097.475,163114.141,180547.516,180551.3,2023-12-02T08:53:50Z,180564.182,Betrüger,mdanganyifu,s,mwanamuziki,wastani,mahakama,NA,NA,NA,"c(""distractor1"", ""distractor2"", ""distractor3"")",NA,NA,NA,NA,NA,NA,NA,NA,NA,NA,NA,NA,NA,NA,NA,NA,NA,NA,NA
21445,Shallow Question,html.Page,2_1_0_0,NA,NA,form submission,24641.018,180551.4,180547.516,180564.182,205205.2,205205.4,2023-12-02T08:54:15Z,205213.828,Vorwurf,mashtaka,s,msukumo,mtangulizi,uenyekiti,mashtaka,NA,NA,"c(""distractor1"", ""distractor2"", ""distractor3"")",NA,NA,NA,NA,NA,NA,NA,NA,NA,NA,NA,NA,NA,NA,NA,NA,NA,NA,NA
21445,Save data screen,canvas.Screen,2_1_0_1,NA,NA,timeout,499.97999999998,205207.2,205197.162,205213.828,205697.142,205698.3,2023-12-02T08:54:15Z,205713.808,Vorwurf,mashtaka,s,msukumo,mtangulizi,uenyekiti,NA,NA,1,"c(""distractor1"", ""distractor2"", ""distractor3"")",NA,NA,NA,NA,NA,NA,NA,NA,NA,NA,NA,NA,NA,NA,NA,NA,NA,NA,NA
21445,shallow,flow.Sequence,2_1_0,NA,NA,completion,25132.96,180551.4,180547.516,180564.182,205697.142,205698.6,2023-12-02T08:54:15Z,205713.808,Vorwurf,mashtaka,s,msukumo,mtangulizi,uenyekiti,NA,NA,NA,"c(""distractor1"", ""distractor2"", ""distractor3"")",NA,NA,NA,NA,NA,NA,NA,NA,NA,NA,NA,NA,NA,NA,NA,NA,NA,NA,NA
21445,task,flow.Sequence,2_1,NA,NA,completion,25132.96,180551.4,180547.516,180564.182,205697.142,205698.7,2023-12-02T08:54:15Z,205713.808,Vorwurf,mashtaka,s,msukumo,mtangulizi,uenyekiti,NA,NA,NA,"c(""distractor1"", ""distractor2"", ""distractor3"")",NA,NA,NA,NA,NA,NA,NA,NA,NA,NA,NA,NA,NA,NA,NA,NA,NA,NA,NA
21445,Shallow Question,html.Page,2_2_0_0,NA,NA,form submission,3973.5919999999,205698.7,205697.142,205713.808,209687.4,209687.5,2023-12-02T08:54:19Z,209697.284,Genehmigung,idhini,s,mwanamke,itikadi,fedheha,idhini,NA,NA,"c(""distractor1"", ""distractor2"", ""distractor3"")",NA,NA,NA,NA,NA,NA,NA,NA,NA,NA,NA,NA,NA,NA,NA,NA,NA,NA,NA
21445,Save data screen,canvas.Screen,2_2_0_1,NA,NA,timeout,499.97999999998,209689.3,209680.618,209697.284,210180.598,210185.6,2023-12-02T08:54:20Z,210197.264,Genehmigung,idhini,s,mwanamke,itikadi,fedheha,NA,NA,1,"c(""distractor1"", ""distractor2"", ""distractor3"")",NA,NA,NA,NA,NA,NA,NA,NA,NA,NA,NA,NA,NA,NA,NA,NA,NA,NA,NA
21445,shallow,flow.Sequence,2_2_0,NA,NA,completion,4466.79,205698.7,205697.142,205713.808,210180.598,210185.9,2023-12-02T08:54:20Z,210197.264,Genehmigung,idhini,s,mwanamke,itikadi,fedheha,NA,NA,NA,"c(""distractor1"", ""distractor2"", ""distractor3"")",NA,NA,NA,NA,NA,NA,NA,NA,NA,NA,NA,NA,NA,NA,NA,NA,NA,NA,NA
21445,task,flow.Sequence,2_2,NA,NA,completion,4466.79,205698.7,205697.142,205713.808,210180.598,210186,2023-12-02T08:54:20Z,210197.264,Genehmigung,idhini,s,mwanamke,itikadi,fedheha,NA,NA,NA,"c(""distractor1"", ""distractor2"", ""distractor3"")",NA,NA,NA,NA,NA,NA,NA,NA,NA,NA,NA,NA,NA,NA,NA,NA,NA,NA,NA
21445,Shallow Question,html.Page,2_3_0_0,NA,NA,form submission,14690.436,210186.2,210180.598,210197.264,224887.7,224887.9,2023-12-02T08:54:34Z,224896.959,Entwicklung,maendeleo,s,uangavu,mshindwa,badiliko,uangavu,NA,NA,"c(""distractor1"", ""distractor2"", ""distractor3"")",NA,NA,NA,NA,NA,NA,NA,NA,NA,NA,NA,NA,NA,NA,NA,NA,NA,NA,NA
21445,Save data screen,canvas.Screen,2_3_0_1,NA,NA,timeout,499.98000000001,224889.9,224880.293,224896.959,225380.273,225383.4,2023-12-02T08:54:35Z,225396.939,Entwicklung,maendeleo,s,uangavu,mshindwa,badiliko,NA,NA,0,"c(""distractor1"", ""distractor2"", ""distractor3"")",NA,NA,NA,NA,NA,NA,NA,NA,NA,NA,NA,NA,NA,NA,NA,NA,NA,NA,NA
21445,shallow,flow.Sequence,2_3_0,NA,NA,completion,15183.009,210186.1,210180.598,210197.264,225380.273,225383.7,2023-12-02T08:54:35Z,225396.939,Entwicklung,maendeleo,s,uangavu,mshindwa,badiliko,NA,NA,NA,"c(""distractor1"", ""distractor2"", ""distractor3"")",NA,NA,NA,NA,NA,NA,NA,NA,NA,NA,NA,NA,NA,NA,NA,NA,NA,NA,NA
21445,task,flow.Sequence,2_3,NA,NA,completion,15183.009,210186,210180.598,210197.264,225380.273,225383.8,2023-12-02T08:54:35Z,225396.939,Entwicklung,maendeleo,s,uangavu,mshindwa,badiliko,NA,NA,NA,"c(""distractor1"", ""distractor2"", ""distractor3"")",NA,NA,NA,NA,NA,NA,NA,NA,NA,NA,NA,NA,NA,NA,NA,NA,NA,NA,NA
21445,Shallow Question,html.Page,2_4_0_0,NA,NA,form submission,8506.6609999998,225383.9,225380.273,225396.939,233903.6,233903.8,2023-12-02T08:54:43Z,233913.521,Stimmung,kinyongo,s,kilekile,kisambo,madhehebu,madhehebu,NA,NA,"c(""distractor1"", ""distractor2"", ""distractor3"")",NA,NA,NA,NA,NA,NA,NA,NA,NA,NA,NA,NA,NA,NA,NA,NA,NA,NA,NA
21445,Save data screen,canvas.Screen,2_4_0_1,NA,NA,timeout,499.97999999998,233905.5,233896.855,233913.521,234396.835,234398.2,2023-12-02T08:54:44Z,234413.501,Stimmung,kinyongo,s,kilekile,kisambo,madhehebu,NA,NA,0,"c(""distractor1"", ""distractor2"", ""distractor3"")",NA,NA,NA,NA,NA,NA,NA,NA,NA,NA,NA,NA,NA,NA,NA,NA,NA,NA,NA
21445,shallow,flow.Sequence,2_4_0,NA,NA,completion,8999.896,225383.9,225380.273,225396.939,234396.835,234398.5,2023-12-02T08:54:44Z,234413.501,Stimmung,kinyongo,s,kilekile,kisambo,madhehebu,NA,NA,NA,"c(""distractor1"", ""distractor2"", ""distractor3"")",NA,NA,NA,NA,NA,NA,NA,NA,NA,NA,NA,NA,NA,NA,NA,NA,NA,NA,NA
21445,task,flow.Sequence,2_4,NA,NA,completion,8999.896,225383.9,225380.273,225396.939,234396.835,234398.6,2023-12-02T08:54:44Z,234413.501,Stimmung,kinyongo,s,kilekile,kisambo,madhehebu,NA,NA,NA,"c(""distractor1"", ""distractor2"", ""distractor3"")",NA,NA,NA,NA,NA,NA,NA,NA,NA,NA,NA,NA,NA,NA,NA,NA,NA,NA,NA
21445,Shallow Question,html.Page,2_5_0_0,NA,NA,form submission,6457.499,234398.6,234396.835,234413.501,240871,240871.2,2023-12-02T08:54:50Z,240880.197,Erneuerung,ukarabati,d,ushawishi,ukalifu,unyonyaji,ukalifu,NA,NA,"c(""distractor1"", ""distractor2"", ""distractor3"")",NA,NA,NA,NA,NA,NA,NA,NA,NA,NA,NA,NA,NA,NA,NA,NA,NA,NA,NA
21445,Save data screen,canvas.Screen,2_5_0_1,NA,NA,timeout,499.98000000001,240872.9,240863.531,240880.197,241363.511,241364.9,2023-12-02T08:54:51Z,241380.177,Erneuerung,ukarabati,d,ushawishi,ukalifu,unyonyaji,NA,NA,0,"c(""distractor1"", ""distractor2"", ""distractor3"")",NA,NA,NA,NA,NA,NA,NA,NA,NA,NA,NA,NA,NA,NA,NA,NA,NA,NA,NA
21445,shallow,flow.Sequence,2_5_0,NA,NA,completion,6950.01,234398.6,234396.835,234413.501,241363.511,241365.2,2023-12-02T08:54:51Z,241380.177,Erneuerung,ukarabati,d,ushawishi,ukalifu,unyonyaji,NA,NA,NA,"c(""distractor1"", ""distractor2"", ""distractor3"")",NA,NA,NA,NA,NA,NA,NA,NA,NA,NA,NA,NA,NA,NA,NA,NA,NA,NA,NA
21445,task,flow.Sequence,2_5,NA,NA,completion,6950.01,234398.6,234396.835,234413.501,241363.511,241365.3,2023-12-02T08:54:51Z,241380.177,Erneuerung,ukarabati,d,ushawishi,ukalifu,unyonyaji,NA,NA,NA,"c(""distractor1"", ""distractor2"", ""distractor3"")",NA,NA,NA,NA,NA,NA,NA,NA,NA,NA,NA,NA,NA,NA,NA,NA,NA,NA,NA
21445,Shallow Question,html.Page,2_6_0_0,NA,NA,form submission,5457.823,241365.5,241363.511,241380.177,246838,246838.2,2023-12-02T08:54:56Z,246846.625,Respekt,heshima,d,changamnao,upinzani,ufanisi,heshima,NA,NA,"c(""distractor1"", ""distractor2"", ""distractor3"")",NA,NA,NA,NA,NA,NA,NA,NA,NA,NA,NA,NA,NA,NA,NA,NA,NA,NA,NA
21445,Save data screen,canvas.Screen,2_6_0_1,NA,NA,timeout,499.98000000001,246840.1,246829.959,246846.625,247329.939,247332.3,2023-12-02T08:54:57Z,247346.605,Respekt,heshima,d,changamnao,upinzani,ufanisi,NA,NA,1,"c(""distractor1"", ""distractor2"", ""distractor3"")",NA,NA,NA,NA,NA,NA,NA,NA,NA,NA,NA,NA,NA,NA,NA,NA,NA,NA,NA
21445,shallow,flow.Sequence,2_6_0,NA,NA,completion,5949.762,241365.5,241363.511,241380.177,247329.939,247332.5,2023-12-02T08:54:57Z,247346.605,Respekt,heshima,d,changamnao,upinzani,ufanisi,NA,NA,NA,"c(""distractor1"", ""distractor2"", ""distractor3"")",NA,NA,NA,NA,NA,NA,NA,NA,NA,NA,NA,NA,NA,NA,NA,NA,NA,NA,NA
21445,task,flow.Sequence,2_6,NA,NA,completion,5949.762,241365.4,241363.511,241380.177,247329.939,247332.7,2023-12-02T08:54:57Z,247346.605,Respekt,heshima,d,changamnao,upinzani,ufanisi,NA,NA,NA,"c(""distractor1"", ""distractor2"", ""distractor3"")",NA,NA,NA,NA,NA,NA,NA,NA,NA,NA,NA,NA,NA,NA,NA,NA,NA,NA,NA
21445,Shallow Question,html.Page,2_7_0_0,NA,NA,form submission,8140.695,247332.8,247329.939,247346.605,255487.3,255487.5,2023-12-02T08:55:05Z,255496.609,Flexibilität,kubadilika,s,enjini,usikilivu,hesabu,kubadilika,NA,NA,"c(""distractor1"", ""distractor2"", ""distractor3"")",NA,NA,NA,NA,NA,NA,NA,NA,NA,NA,NA,NA,NA,NA,NA,NA,NA,NA,NA
21445,Save data screen,canvas.Screen,2_7_0_1,NA,NA,timeout,499.98000000001,255489.4,255479.943,255496.609,255979.923,255984.6,2023-12-02T08:55:05Z,255996.589,Flexibilität,kubadilika,s,enjini,usikilivu,hesabu,NA,NA,1,"c(""distractor1"", ""distractor2"", ""distractor3"")",NA,NA,NA,NA,NA,NA,NA,NA,NA,NA,NA,NA,NA,NA,NA,NA,NA,NA,NA
21445,shallow,flow.Sequence,2_7_0,NA,NA,completion,8633.318,247332.8,247329.939,247346.605,255979.923,255984.9,2023-12-02T08:55:05Z,255996.589,Flexibilität,kubadilika,s,enjini,usikilivu,hesabu,NA,NA,NA,"c(""distractor1"", ""distractor2"", ""distractor3"")",NA,NA,NA,NA,NA,NA,NA,NA,NA,NA,NA,NA,NA,NA,NA,NA,NA,NA,NA
21445,task,flow.Sequence,2_7,NA,NA,completion,8633.318,247332.7,247329.939,247346.605,255979.923,255985,2023-12-02T08:55:05Z,255996.589,Flexibilität,kubadilika,s,enjini,usikilivu,hesabu,NA,NA,NA,"c(""distractor1"", ""distractor2"", ""distractor3"")",NA,NA,NA,NA,NA,NA,NA,NA,NA,NA,NA,NA,NA,NA,NA,NA,NA,NA,NA
21445,Shallow Question,html.Page,2_8_0_0,NA,NA,form submission,25439.911,255985.2,255979.923,255996.589,281436.5,281436.7,2023-12-02T08:55:31Z,281446.498,Orientierung,urekebisho,d,uelekeo,marekebisho,utunzaji,utunzaji,NA,NA,"c(""distractor1"", ""distractor2"", ""distractor3"")",NA,NA,NA,NA,NA,NA,NA,NA,NA,NA,NA,NA,NA,NA,NA,NA,NA,NA,NA
21445,Save data screen,canvas.Screen,2_8_0_1,NA,NA,timeout,499.97999999998,281438.5,281429.832,281446.498,281929.812,281934.6,2023-12-02T08:55:31Z,281946.478,Orientierung,urekebisho,d,uelekeo,marekebisho,utunzaji,NA,NA,0,"c(""distractor1"", ""distractor2"", ""distractor3"")",NA,NA,NA,NA,NA,NA,NA,NA,NA,NA,NA,NA,NA,NA,NA,NA,NA,NA,NA
21445,shallow,flow.Sequence,2_8_0,NA,NA,completion,25933.223,255985.2,255979.923,255996.589,281929.812,281934.9,2023-12-02T08:55:31Z,281946.478,Orientierung,urekebisho,d,uelekeo,marekebisho,utunzaji,NA,NA,NA,"c(""distractor1"", ""distractor2"", ""distractor3"")",NA,NA,NA,NA,NA,NA,NA,NA,NA,NA,NA,NA,NA,NA,NA,NA,NA,NA,NA
21445,task,flow.Sequence,2_8,NA,NA,completion,25933.223,255985.1,255979.923,255996.589,281929.812,281935,2023-12-02T08:55:31Z,281946.478,Orientierung,urekebisho,d,uelekeo,marekebisho,utunzaji,NA,NA,NA,"c(""distractor1"", ""distractor2"", ""distractor3"")",NA,NA,NA,NA,NA,NA,NA,NA,NA,NA,NA,NA,NA,NA,NA,NA,NA,NA,NA
21445,Shallow Question,html.Page,2_9_0_0,NA,NA,form submission,5139.522,281935.2,281929.812,281946.478,287086,287086.2,2023-12-02T08:55:37Z,287096.272,Wechsel,ugeuzaji,d,utambulisho,kujenga,wasiwasi,ugeuzaji,NA,NA,"c(""distractor1"", ""distractor2"", ""distractor3"")",NA,NA,NA,NA,NA,NA,NA,NA,NA,NA,NA,NA,NA,NA,NA,NA,NA,NA,NA
21445,Save data screen,canvas.Screen,2_9_0_1,NA,NA,timeout,499.97999999998,287087.5,287079.606,287096.272,287579.586,287581.4,2023-12-02T08:55:37Z,287596.252,Wechsel,ugeuzaji,d,utambulisho,kujenga,wasiwasi,NA,NA,1,"c(""distractor1"", ""distractor2"", ""distractor3"")",NA,NA,NA,NA,NA,NA,NA,NA,NA,NA,NA,NA,NA,NA,NA,NA,NA,NA,NA
21445,shallow,flow.Sequence,2_9_0,NA,NA,completion,5633.108,281935.2,281929.812,281946.478,287579.586,287581.5,2023-12-02T08:55:37Z,287596.252,Wechsel,ugeuzaji,d,utambulisho,kujenga,wasiwasi,NA,NA,NA,"c(""distractor1"", ""distractor2"", ""distractor3"")",NA,NA,NA,NA,NA,NA,NA,NA,NA,NA,NA,NA,NA,NA,NA,NA,NA,NA,NA
21445,task,flow.Sequence,2_9,NA,NA,completion,5633.108,281935.1,281929.812,281946.478,287579.586,287581.7,2023-12-02T08:55:37Z,287596.252,Wechsel,ugeuzaji,d,utambulisho,kujenga,wasiwasi,NA,NA,NA,"c(""distractor1"", ""distractor2"", ""distractor3"")",NA,NA,NA,NA,NA,NA,NA,NA,NA,NA,NA,NA,NA,NA,NA,NA,NA,NA,NA
21445,Shallow Question,html.Page,2_10_0_0,NA,NA,form submission,19290.248,287581.7,287579.586,287596.252,306886.5,306886.7,2023-12-02T08:55:56Z,306896.068,Niveau,kiwango,d,usimamizi,mwamali,mshairi,kiwango,NA,NA,"c(""distractor1"", ""distractor2"", ""distractor3"")",NA,NA,NA,NA,NA,NA,NA,NA,NA,NA,NA,NA,NA,NA,NA,NA,NA,NA,NA
21445,Save data screen,canvas.Screen,2_10_0_1,NA,NA,timeout,499.97999999998,306888.3,306879.402,306896.068,307379.382,307381.4,2023-12-02T08:55:57Z,307396.048,Niveau,kiwango,d,usimamizi,mwamali,mshairi,NA,NA,1,"c(""distractor1"", ""distractor2"", ""distractor3"")",NA,NA,NA,NA,NA,NA,NA,NA,NA,NA,NA,NA,NA,NA,NA,NA,NA,NA,NA
21445,shallow,flow.Sequence,2_10_0,NA,NA,completion,19783.13,287581.7,287579.586,287596.252,307379.382,307381.6,2023-12-02T08:55:57Z,307396.048,Niveau,kiwango,d,usimamizi,mwamali,mshairi,NA,NA,NA,"c(""distractor1"", ""distractor2"", ""distractor3"")",NA,NA,NA,NA,NA,NA,NA,NA,NA,NA,NA,NA,NA,NA,NA,NA,NA,NA,NA
21445,task,flow.Sequence,2_10,NA,NA,completion,19783.13,287581.7,287579.586,287596.252,307379.382,307381.7,2023-12-02T08:55:57Z,307396.048,Niveau,kiwango,d,usimamizi,mwamali,mshairi,NA,NA,NA,"c(""distractor1"", ""distractor2"", ""distractor3"")",NA,NA,NA,NA,NA,NA,NA,NA,NA,NA,NA,NA,NA,NA,NA,NA,NA,NA,NA
21445,Shallow Question,html.Page,2_11_0_0,NA,NA,form submission,16857.152,307381.9,307379.382,307396.048,324253.2,324253.4,2023-12-02T08:56:14Z,324262.63,Atmosphäre,angahewa,s,kuteseka,usahihi,kutoamini,angahewa,NA,NA,"c(""distractor1"", ""distractor2"", ""distractor3"")",NA,NA,NA,NA,NA,NA,NA,NA,NA,NA,NA,NA,NA,NA,NA,NA,NA,NA,NA
21445,Save data screen,canvas.Screen,2_11_0_1,NA,NA,timeout,499.97999999998,324255,324245.964,324262.63,324745.944,324751,2023-12-02T08:56:14Z,324762.61,Atmosphäre,angahewa,s,kuteseka,usahihi,kutoamini,NA,NA,1,"c(""distractor1"", ""distractor2"", ""distractor3"")",NA,NA,NA,NA,NA,NA,NA,NA,NA,NA,NA,NA,NA,NA,NA,NA,NA,NA,NA
21445,shallow,flow.Sequence,2_11_0,NA,NA,completion,17349.896,307381.9,307379.382,307396.048,324745.944,324751.3,2023-12-02T08:56:14Z,324762.61,Atmosphäre,angahewa,s,kuteseka,usahihi,kutoamini,NA,NA,NA,"c(""distractor1"", ""distractor2"", ""distractor3"")",NA,NA,NA,NA,NA,NA,NA,NA,NA,NA,NA,NA,NA,NA,NA,NA,NA,NA,NA
21445,task,flow.Sequence,2_11,NA,NA,completion,17349.896,307381.9,307379.382,307396.048,324745.944,324751.4,2023-12-02T08:56:14Z,324762.61,Atmosphäre,angahewa,s,kuteseka,usahihi,kutoamini,NA,NA,NA,"c(""distractor1"", ""distractor2"", ""distractor3"")",NA,NA,NA,NA,NA,NA,NA,NA,NA,NA,NA,NA,NA,NA,NA,NA,NA,NA,NA
21445,Shallow Question,html.Page,2_12_0_0,NA,NA,form submission,6823.6900000001,324751.5,324745.944,324762.61,331586.3,331586.5,2023-12-02T08:56:21Z,331595.981,Begegnung,kukutana,s,mmasihiya,mpiganaji,husiano,kukutana,NA,NA,"c(""distractor1"", ""distractor2"", ""distractor3"")",NA,NA,NA,NA,NA,NA,NA,NA,NA,NA,NA,NA,NA,NA,NA,NA,NA,NA,NA
21445,Save data screen,canvas.Screen,2_12_0_1,NA,NA,timeout,499.97999999998,331588.2,331579.315,331595.981,332079.295,332084.6,2023-12-02T08:56:22Z,332095.961,Begegnung,kukutana,s,mmasihiya,mpiganaji,husiano,NA,NA,1,"c(""distractor1"", ""distractor2"", ""distractor3"")",NA,NA,NA,NA,NA,NA,NA,NA,NA,NA,NA,NA,NA,NA,NA,NA,NA,NA,NA
21445,shallow,flow.Sequence,2_12_0,NA,NA,completion,7316.685,324751.5,324745.944,324762.61,332079.295,332084.9,2023-12-02T08:56:22Z,332095.961,Begegnung,kukutana,s,mmasihiya,mpiganaji,husiano,NA,NA,NA,"c(""distractor1"", ""distractor2"", ""distractor3"")",NA,NA,NA,NA,NA,NA,NA,NA,NA,NA,NA,NA,NA,NA,NA,NA,NA,NA,NA
21445,task,flow.Sequence,2_12,NA,NA,completion,7316.685,324751.4,324745.944,324762.61,332079.295,332085,2023-12-02T08:56:22Z,332095.961,Begegnung,kukutana,s,mmasihiya,mpiganaji,husiano,NA,NA,NA,"c(""distractor1"", ""distractor2"", ""distractor3"")",NA,NA,NA,NA,NA,NA,NA,NA,NA,NA,NA,NA,NA,NA,NA,NA,NA,NA,NA
21445,Shallow Question,html.Page,2_13_0_0,NA,NA,form submission,10690.239,332085.1,332079.295,332095.961,342786.2,342786.5,2023-12-02T08:56:32Z,342795.698,Fleisch,mshakiki,d,kizunguzungu,mshikamano,angusho,mshakiki,NA,NA,"c(""distractor1"", ""distractor2"", ""distractor3"")",NA,NA,NA,NA,NA,NA,NA,NA,NA,NA,NA,NA,NA,NA,NA,NA,NA,NA,NA
21445,Save data screen,canvas.Screen,2_13_0_1,NA,NA,timeout,499.98000000004,342788.4,342779.032,342795.698,343279.012,343282.1,2023-12-02T08:56:33Z,343295.678,Fleisch,mshakiki,d,kizunguzungu,mshikamano,angusho,NA,NA,1,"c(""distractor1"", ""distractor2"", ""distractor3"")",NA,NA,NA,NA,NA,NA,NA,NA,NA,NA,NA,NA,NA,NA,NA,NA,NA,NA,NA
21445,shallow,flow.Sequence,2_13_0,NA,NA,completion,11183.051,332085.1,332079.295,332095.961,343279.012,343282.4,2023-12-02T08:56:33Z,343295.678,Fleisch,mshakiki,d,kizunguzungu,mshikamano,angusho,NA,NA,NA,"c(""distractor1"", ""distractor2"", ""distractor3"")",NA,NA,NA,NA,NA,NA,NA,NA,NA,NA,NA,NA,NA,NA,NA,NA,NA,NA,NA
21445,task,flow.Sequence,2_13,NA,NA,completion,11183.051,332085.1,332079.295,332095.961,343279.012,343282.5,2023-12-02T08:56:33Z,343295.678,Fleisch,mshakiki,d,kizunguzungu,mshikamano,angusho,NA,NA,NA,"c(""distractor1"", ""distractor2"", ""distractor3"")",NA,NA,NA,NA,NA,NA,NA,NA,NA,NA,NA,NA,NA,NA,NA,NA,NA,NA,NA
21445,Shallow Question,html.Page,2_14_0_0,NA,NA,form submission,21207.622,343282.6,343279.012,343295.678,364503.3,364503.6,2023-12-02T08:56:54Z,364511.871,Integrität,uadilifu,d,muungano,mtiririko,upunguaji,uadilifu,NA,NA,"c(""distractor1"", ""distractor2"", ""distractor3"")",NA,NA,NA,NA,NA,NA,NA,NA,NA,NA,NA,NA,NA,NA,NA,NA,NA,NA,NA
21445,Save data screen,canvas.Screen,2_14_0_1,NA,NA,timeout,499.98000000004,364505.4,364495.205,364511.871,364995.185,364997.7,2023-12-02T08:56:54Z,365011.851,Integrität,uadilifu,d,muungano,mtiririko,upunguaji,NA,NA,1,"c(""distractor1"", ""distractor2"", ""distractor3"")",NA,NA,NA,NA,NA,NA,NA,NA,NA,NA,NA,NA,NA,NA,NA,NA,NA,NA,NA
21445,shallow,flow.Sequence,2_14_0,NA,NA,completion,21699.507,343282.5,343279.012,343295.678,364995.185,364997.8,2023-12-02T08:56:54Z,365011.851,Integrität,uadilifu,d,muungano,mtiririko,upunguaji,NA,NA,NA,"c(""distractor1"", ""distractor2"", ""distractor3"")",NA,NA,NA,NA,NA,NA,NA,NA,NA,NA,NA,NA,NA,NA,NA,NA,NA,NA,NA
21445,task,flow.Sequence,2_14,NA,NA,completion,21699.507,343282.5,343279.012,343295.678,364995.185,364998,2023-12-02T08:56:54Z,365011.851,Integrität,uadilifu,d,muungano,mtiririko,upunguaji,NA,NA,NA,"c(""distractor1"", ""distractor2"", ""distractor3"")",NA,NA,NA,NA,NA,NA,NA,NA,NA,NA,NA,NA,NA,NA,NA,NA,NA,NA,NA
21445,Shallow Question,html.Page,2_15_0_0,NA,NA,form submission,8557.449,364998.1,364995.185,365011.851,373569.3,373569.4,2023-12-02T08:57:03Z,373578.638,Papier,karatasi,d,uchambuzi,usalama,kukataliwa,karatasi,NA,NA,"c(""distractor1"", ""distractor2"", ""distractor3"")",NA,NA,NA,NA,NA,NA,NA,NA,NA,NA,NA,NA,NA,NA,NA,NA,NA,NA,NA
21445,Save data screen,canvas.Screen,2_15_0_1,NA,NA,timeout,499.98000000004,373571.3,373561.972,373578.638,374061.952,374065.5,2023-12-02T08:57:04Z,374078.618,Papier,karatasi,d,uchambuzi,usalama,kukataliwa,NA,NA,1,"c(""distractor1"", ""distractor2"", ""distractor3"")",NA,NA,NA,NA,NA,NA,NA,NA,NA,NA,NA,NA,NA,NA,NA,NA,NA,NA,NA
21445,shallow,flow.Sequence,2_15_0,NA,NA,completion,9050.101,364998.1,364995.185,365011.851,374061.952,374065.8,2023-12-02T08:57:04Z,374078.618,Papier,karatasi,d,uchambuzi,usalama,kukataliwa,NA,NA,NA,"c(""distractor1"", ""distractor2"", ""distractor3"")",NA,NA,NA,NA,NA,NA,NA,NA,NA,NA,NA,NA,NA,NA,NA,NA,NA,NA,NA
21445,task,flow.Sequence,2_15,NA,NA,completion,9050.101,364998,364995.185,365011.851,374061.952,374066,2023-12-02T08:57:04Z,374078.618,Papier,karatasi,d,uchambuzi,usalama,kukataliwa,NA,NA,NA,"c(""distractor1"", ""distractor2"", ""distractor3"")",NA,NA,NA,NA,NA,NA,NA,NA,NA,NA,NA,NA,NA,NA,NA,NA,NA,NA,NA
21445,retrieval block 2 (multiple choice),flow.Loop,2,NA,NA,completion,210947.811,163102.2,163097.475,163114.141,374061.952,374066.1,2023-12-02T08:57:04Z,374078.618,NA,NA,NA,NA,NA,NA,NA,NA,NA,"c(""distractor1"", ""distractor2"", ""distractor3"")",NA,NA,NA,NA,NA,NA,NA,NA,NA,NA,NA,NA,NA,NA,NA,NA,NA,NA,NA
21445,End,canvas.Screen,3,NA,keypress(Space),response,1509.4819999998,374066.2,374061.952,374078.618,375588.1,375592.4,2023-12-02T08:57:05Z,375595.224,NA,NA,NA,NA,NA,NA,NA,NA,NA,NULL,NA,NA,NA,NA,NA,NA,NA,NA,NA,NA,NA,NA,NA,NA,NA,NA,NA,NA,NA
21445,root,flow.Sequence,NA,NA,NA,completion,373521.925,2033.3999999999,2032.843,2066.175,375588.1,375592.7,2023-12-02T08:57:05Z,375595.224,NA,NA,NA,NA,NA,NA,NA,NA,NA,NULL,NA,NA,NA,NA,NA,NA,NA,NA,NA,NA,NA,NA,NA,NA,NA,NA,NA,NA,NA
