observation,sender,sender_type,sender_id,response,response_action,ended_on,duration,time_run,time_render,time_show,time_end,time_commit,timestamp,time_switch,distractors,german,swahili,enc,distractor1,distractor2,distractor3,response_2,x,correct,x_2,url_vp,url_sess,meta_labjs_version,meta_location,meta_user_agent,meta_platform,meta_language,meta_locale,meta_time_zone,meta_timezone_offset,meta_screen_width,meta_screen_height,meta_scroll_width,meta_scroll_height,meta_window_inner_width,meta_window_inner_height,meta_device_pixel_ratio,meta_labjs_build_flavor,meta_labjs_build_commit
2fd2f,Introduction general,canvas.Screen,0,weiter,keypress(q),response,164209.34700005,1143.3999999762,1147.284,1163.853,165373.20000005,165377.89999998,2023-11-30T09:35:31Z,165380.212,NULL,NA,NA,NA,NA,NA,NA,NA,NA,NA,NA,137,3,20.2.4,https://neurocog.fernuni.ch/studies/vweber/aberisha/encoding_immediate/index.html?vp=137&sess=3,"Mozilla/5.0 (Windows NT 10.0; Win64; x64) AppleWebKit/537.36 (KHTML, like Gecko) Chrome/119.0.0.0 Safari/537.36",Win32,de-DE,de,Europe/Zurich,-60,1739,979,1740,774,1740,822,1.1041666269302,production,f5b4a49f956347addd546a832a3327688c2c0fef
2fd2f,Introduction practice,canvas.Screen,1_0,NA,keypress(Space),response,5827.6879999762,165378.10000002,165369.587,165380.212,171207.89999998,171209,2023-11-30T09:35:37Z,171226.651,NULL,NA,NA,NA,NA,NA,NA,NA,NA,NA,NA,NA,NA,NA,NA,NA,NA,NA,NA,NA,NA,NA,NA,NA,NA,NA,NA,NA,NA,NA
2fd2f,Deep Question,html.Page,1_1_0_0_0,NA,NA,form submission,7132.1490000715,171209.5,171196.629,171226.651,178358.80000007,178359.10000002,2023-11-30T09:35:44Z,178373.113,"c(""distractor1"", ""distractor2"", ""distractor3"")",Schatten,kivuli,d,NA,NA,NA,fkkbg,NA,NA,NA,NA,NA,NA,NA,NA,NA,NA,NA,NA,NA,NA,NA,NA,NA,NA,NA,NA,NA,NA
2fd2f,"""Richtig""-Screen",canvas.Screen,1_1_0_0_1,NA,NA,skipped,NA,178360.20000005,NA,NA,178358.80000007,178364,2023-11-30T09:35:44Z,178373.113,"c(""distractor1"", ""distractor2"", ""distractor3"")",Schatten,kivuli,d,NA,NA,NA,NA,NA,NA,NA,NA,NA,NA,NA,NA,NA,NA,NA,NA,NA,NA,NA,NA,NA,NA,NA,NA,NA,NA
2fd2f,"""Falsch""-Screen",canvas.Screen,1_1_0_0_2,NA,NA,timeout,4996.118,178364.89999998,178339.015,178373.113,183352.656,183357.80000007,2023-11-30T09:35:49Z,183369.231,"c(""distractor1"", ""distractor2"", ""distractor3"")",Schatten,kivuli,d,NA,NA,NA,NA,NA,0,NA,NA,NA,NA,NA,NA,NA,NA,NA,NA,NA,NA,NA,NA,NA,NA,NA,NA,NA,NA
2fd2f,deep,flow.Sequence,1_1_0_0,NA,NA,completion,12126.005,171209.39999998,171196.629,171226.651,183352.656,183358.5,2023-11-30T09:35:49Z,183369.231,"c(""distractor1"", ""distractor2"", ""distractor3"")",Schatten,kivuli,d,NA,NA,NA,NA,NA,NA,NA,NA,NA,NA,NA,NA,NA,NA,NA,NA,NA,NA,NA,NA,NA,NA,NA,NA,NA,NA
2fd2f,shallow,flow.Sequence,1_1_0_1,NA,NA,skipped,NA,183358.70000005,NA,NA,183352.656,183358.80000007,2023-11-30T09:35:49Z,183369.231,"c(""distractor1"", ""distractor2"", ""distractor3"")",Schatten,kivuli,d,NA,NA,NA,NA,NA,NA,NA,NA,NA,NA,NA,NA,NA,NA,NA,NA,NA,NA,NA,NA,NA,NA,NA,NA,NA,NA
2fd2f,task,flow.Sequence,1_1_0,NA,NA,completion,12126.005,171209.39999998,171196.629,171226.651,183352.656,183358.89999998,2023-11-30T09:35:49Z,183369.231,"c(""distractor1"", ""distractor2"", ""distractor3"")",Schatten,kivuli,d,NA,NA,NA,NA,NA,NA,NA,NA,NA,NA,NA,NA,NA,NA,NA,NA,NA,NA,NA,NA,NA,NA,NA,NA,NA,NA
2fd2f,deep,flow.Sequence,1_1_1_0,NA,NA,skipped,NA,183358.89999998,NA,NA,183352.656,183359,2023-11-30T09:35:49Z,183369.231,"c(""distractor1"", ""distractor2"", ""distractor3"")",Rückhalt,msaada,s,muhula,auwali,kiwimbe,NA,NA,NA,NA,NA,NA,NA,NA,NA,NA,NA,NA,NA,NA,NA,NA,NA,NA,NA,NA,NA,NA,NA
2fd2f,Shallow Question,html.Page,1_1_1_1_0,NA,NA,form submission,5018.1689999762,183359.10000002,183352.656,183369.231,188387.39999998,188387.80000007,2023-11-30T09:35:54Z,188399.491,"c(""distractor1"", ""distractor2"", ""distractor3"")",Rückhalt,msaada,s,muhula,auwali,kiwimbe,kiwimbe,NA,NA,NA,NA,NA,NA,NA,NA,NA,NA,NA,NA,NA,NA,NA,NA,NA,NA,NA,NA,NA,NA
2fd2f,"""Richtig""-Screen",canvas.Screen,1_1_1_1_1,NA,NA,skipped,NA,188391.10000002,NA,NA,188387.39999998,188391.39999998,2023-11-30T09:35:54Z,188399.491,"c(""distractor1"", ""distractor2"", ""distractor3"")",Rückhalt,msaada,s,muhula,auwali,kiwimbe,NA,NA,NA,NA,NA,NA,NA,NA,NA,NA,NA,NA,NA,NA,NA,NA,NA,NA,NA,NA,NA,NA,NA
2fd2f,"""Falsch""-Screen",canvas.Screen,1_1_1_1_2,NA,NA,timeout,4997.382,188392.60000002,188383.308,188399.491,193380.272,193381.39999998,2023-11-30T09:35:59Z,193396.873,"c(""distractor1"", ""distractor2"", ""distractor3"")",Rückhalt,msaada,s,muhula,auwali,kiwimbe,NA,NA,0,NA,NA,NA,NA,NA,NA,NA,NA,NA,NA,NA,NA,NA,NA,NA,NA,NA,NA,NA,NA
2fd2f,shallow,flow.Sequence,1_1_1_1,NA,NA,completion,10011.041,183359.10000002,183352.656,183369.231,193380.272,193381.89999998,2023-11-30T09:35:59Z,193396.873,"c(""distractor1"", ""distractor2"", ""distractor3"")",Rückhalt,msaada,s,muhula,auwali,kiwimbe,NA,NA,NA,NA,NA,NA,NA,NA,NA,NA,NA,NA,NA,NA,NA,NA,NA,NA,NA,NA,NA,NA,NA
2fd2f,task,flow.Sequence,1_1_1,NA,NA,completion,10011.041,183358.89999998,183352.656,183369.231,193380.272,193382.30000007,2023-11-30T09:35:59Z,193396.873,"c(""distractor1"", ""distractor2"", ""distractor3"")",Rückhalt,msaada,s,muhula,auwali,kiwimbe,NA,NA,NA,NA,NA,NA,NA,NA,NA,NA,NA,NA,NA,NA,NA,NA,NA,NA,NA,NA,NA,NA,NA
2fd2f,Deep Question,html.Page,1_1_2_0_0,NA,NA,form submission,5871.127,193382.60000002,193380.272,193396.873,199268,199268.20000005,2023-11-30T09:36:05Z,199276.14,"c(""distractor1"", ""distractor2"", ""distractor3"")",Qualität,mtindo,d,NA,NA,NA,khgt,NA,NA,NA,NA,NA,NA,NA,NA,NA,NA,NA,NA,NA,NA,NA,NA,NA,NA,NA,NA,NA,NA
2fd2f,"""Richtig""-Screen",canvas.Screen,1_1_2_0_1,NA,NA,skipped,NA,199275,NA,NA,199268,199275.20000005,2023-11-30T09:36:05Z,199276.14,"c(""distractor1"", ""distractor2"", ""distractor3"")",Qualität,mtindo,d,NA,NA,NA,NA,NA,NA,NA,NA,NA,NA,NA,NA,NA,NA,NA,NA,NA,NA,NA,NA,NA,NA,NA,NA,NA,NA
2fd2f,"""Falsch""-Screen",canvas.Screen,1_1_2_0_2,NA,NA,timeout,4997.507,199275.89999998,199260.266,199276.14,204256.765,204257.80000007,2023-11-30T09:36:10Z,204273.647,"c(""distractor1"", ""distractor2"", ""distractor3"")",Qualität,mtindo,d,NA,NA,NA,NA,NA,0,NA,NA,NA,NA,NA,NA,NA,NA,NA,NA,NA,NA,NA,NA,NA,NA,NA,NA,NA,NA
2fd2f,deep,flow.Sequence,1_1_2_0,NA,NA,completion,10859.892,193382.60000002,193380.272,193396.873,204256.765,204258.20000005,2023-11-30T09:36:10Z,204273.647,"c(""distractor1"", ""distractor2"", ""distractor3"")",Qualität,mtindo,d,NA,NA,NA,NA,NA,NA,NA,NA,NA,NA,NA,NA,NA,NA,NA,NA,NA,NA,NA,NA,NA,NA,NA,NA,NA,NA
2fd2f,shallow,flow.Sequence,1_1_2_1,NA,NA,skipped,NA,204258.39999998,NA,NA,204256.765,204258.5,2023-11-30T09:36:10Z,204273.647,"c(""distractor1"", ""distractor2"", ""distractor3"")",Qualität,mtindo,d,NA,NA,NA,NA,NA,NA,NA,NA,NA,NA,NA,NA,NA,NA,NA,NA,NA,NA,NA,NA,NA,NA,NA,NA,NA,NA
2fd2f,task,flow.Sequence,1_1_2,NA,NA,completion,10859.892,193382.39999998,193380.272,193396.873,204256.765,204259,2023-11-30T09:36:10Z,204273.647,"c(""distractor1"", ""distractor2"", ""distractor3"")",Qualität,mtindo,d,NA,NA,NA,NA,NA,NA,NA,NA,NA,NA,NA,NA,NA,NA,NA,NA,NA,NA,NA,NA,NA,NA,NA,NA,NA,NA
2fd2f,deep,flow.Sequence,1_1_3_0,NA,NA,skipped,NA,204259.20000005,NA,NA,204256.765,204259.30000007,2023-11-30T09:36:10Z,204273.647,"c(""distractor1"", ""distractor2"", ""distractor3"")",Kritik,lawama,s,dereva,nafasi,mawazo,NA,NA,NA,NA,NA,NA,NA,NA,NA,NA,NA,NA,NA,NA,NA,NA,NA,NA,NA,NA,NA,NA,NA
2fd2f,Shallow Question,html.Page,1_1_3_1_0,NA,NA,form submission,7758.7529999762,204259.5,204256.765,204273.647,212032.39999998,212032.60000002,2023-11-30T09:36:18Z,212035.092,"c(""distractor1"", ""distractor2"", ""distractor3"")",Kritik,lawama,s,dereva,nafasi,mawazo,lawama,NA,NA,NA,NA,NA,NA,NA,NA,NA,NA,NA,NA,NA,NA,NA,NA,NA,NA,NA,NA,NA,NA
2fd2f,"""Richtig""-Screen",canvas.Screen,1_1_3_1_1,NA,NA,timeout,4996.895,212035.80000007,212018.949,212035.092,217015.604,217016.60000002,2023-11-30T09:36:23Z,217031.987,"c(""distractor1"", ""distractor2"", ""distractor3"")",Kritik,lawama,s,dereva,nafasi,mawazo,NA,NA,1,NA,NA,NA,NA,NA,NA,NA,NA,NA,NA,NA,NA,NA,NA,NA,NA,NA,NA,NA,NA
2fd2f,"""Falsch""-Screen",canvas.Screen,1_1_3_1_2,NA,NA,skipped,NA,217021.89999998,NA,NA,217015.604,217022.10000002,2023-11-30T09:36:23Z,217031.987,"c(""distractor1"", ""distractor2"", ""distractor3"")",Kritik,lawama,s,dereva,nafasi,mawazo,NA,NA,NA,NA,NA,NA,NA,NA,NA,NA,NA,NA,NA,NA,NA,NA,NA,NA,NA,NA,NA,NA,NA
2fd2f,shallow,flow.Sequence,1_1_3_1,NA,NA,completion,12741.957,204259.5,204256.765,204273.647,217015.604,217022.5,2023-11-30T09:36:23Z,217031.987,"c(""distractor1"", ""distractor2"", ""distractor3"")",Kritik,lawama,s,dereva,nafasi,mawazo,NA,NA,NA,NA,NA,NA,NA,NA,NA,NA,NA,NA,NA,NA,NA,NA,NA,NA,NA,NA,NA,NA,NA
2fd2f,task,flow.Sequence,1_1_3,NA,NA,completion,12741.957,204259.10000002,204256.765,204273.647,217015.604,217022.70000005,2023-11-30T09:36:23Z,217031.987,"c(""distractor1"", ""distractor2"", ""distractor3"")",Kritik,lawama,s,dereva,nafasi,mawazo,NA,NA,NA,NA,NA,NA,NA,NA,NA,NA,NA,NA,NA,NA,NA,NA,NA,NA,NA,NA,NA,NA,NA
2fd2f,deep,flow.Sequence,1_1_4_0,NA,NA,skipped,NA,217022.89999998,NA,NA,217015.604,217023,2023-11-30T09:36:23Z,217031.987,"c(""distractor1"", ""distractor2"", ""distractor3"")",Gegenwart,hadhara,s,katiba,jokofu,mikopo,NA,NA,NA,NA,NA,NA,NA,NA,NA,NA,NA,NA,NA,NA,NA,NA,NA,NA,NA,NA,NA,NA,NA
2fd2f,Shallow Question,html.Page,1_1_4_1_0,NA,NA,form submission,3851.8130000715,217023.20000005,217015.604,217031.987,220883.80000007,220889.39999998,2023-11-30T09:36:27Z,220896.304,"c(""distractor1"", ""distractor2"", ""distractor3"")",Gegenwart,hadhara,s,katiba,jokofu,mikopo,jokofu,NA,NA,NA,NA,NA,NA,NA,NA,NA,NA,NA,NA,NA,NA,NA,NA,NA,NA,NA,NA,NA,NA
2fd2f,"""Richtig""-Screen",canvas.Screen,1_1_4_1_1,NA,NA,skipped,NA,220890.89999998,NA,NA,220883.80000007,220890.89999998,2023-11-30T09:36:27Z,220896.304,"c(""distractor1"", ""distractor2"", ""distractor3"")",Gegenwart,hadhara,s,katiba,jokofu,mikopo,NA,NA,NA,NA,NA,NA,NA,NA,NA,NA,NA,NA,NA,NA,NA,NA,NA,NA,NA,NA,NA,NA,NA
2fd2f,"""Falsch""-Screen",canvas.Screen,1_1_4_1_2,NA,NA,timeout,4997.44,220891.39999998,220879.992,220896.304,225876.883,225877.89999998,2023-11-30T09:36:32Z,225893.744,"c(""distractor1"", ""distractor2"", ""distractor3"")",Gegenwart,hadhara,s,katiba,jokofu,mikopo,NA,NA,0,NA,NA,NA,NA,NA,NA,NA,NA,NA,NA,NA,NA,NA,NA,NA,NA,NA,NA,NA,NA
2fd2f,shallow,flow.Sequence,1_1_4_1,NA,NA,completion,8844.896,217023.10000002,217015.604,217031.987,225876.883,225878.39999998,2023-11-30T09:36:32Z,225893.744,"c(""distractor1"", ""distractor2"", ""distractor3"")",Gegenwart,hadhara,s,katiba,jokofu,mikopo,NA,NA,NA,NA,NA,NA,NA,NA,NA,NA,NA,NA,NA,NA,NA,NA,NA,NA,NA,NA,NA,NA,NA
2fd2f,task,flow.Sequence,1_1_4,NA,NA,completion,8844.896,217022.80000007,217015.604,217031.987,225876.883,225878.60000002,2023-11-30T09:36:32Z,225893.744,"c(""distractor1"", ""distractor2"", ""distractor3"")",Gegenwart,hadhara,s,katiba,jokofu,mikopo,NA,NA,NA,NA,NA,NA,NA,NA,NA,NA,NA,NA,NA,NA,NA,NA,NA,NA,NA,NA,NA,NA,NA
2fd2f,Deep Question,html.Page,1_1_5_0_0,NA,NA,form submission,3770.5560000715,225879,225876.883,225893.744,229664.30000007,229664.5,2023-11-30T09:36:36Z,229674.306,"c(""distractor1"", ""distractor2"", ""distractor3"")",Gesundheit,salama,d,NA,NA,NA,gkrlg,NA,NA,NA,NA,NA,NA,NA,NA,NA,NA,NA,NA,NA,NA,NA,NA,NA,NA,NA,NA,NA,NA
2fd2f,"""Richtig""-Screen",canvas.Screen,1_1_5_0_1,NA,NA,skipped,NA,229667.80000007,NA,NA,229664.30000007,229667.89999998,2023-11-30T09:36:36Z,229674.306,"c(""distractor1"", ""distractor2"", ""distractor3"")",Gesundheit,salama,d,NA,NA,NA,NA,NA,NA,NA,NA,NA,NA,NA,NA,NA,NA,NA,NA,NA,NA,NA,NA,NA,NA,NA,NA,NA,NA
2fd2f,"""Falsch""-Screen",canvas.Screen,1_1_5_0_2,NA,NA,timeout,4996.886,229668.60000002,229658.354,229674.306,234654.754,234656.60000002,2023-11-30T09:36:41Z,234671.192,"c(""distractor1"", ""distractor2"", ""distractor3"")",Gesundheit,salama,d,NA,NA,NA,NA,NA,0,NA,NA,NA,NA,NA,NA,NA,NA,NA,NA,NA,NA,NA,NA,NA,NA,NA,NA,NA,NA
2fd2f,deep,flow.Sequence,1_1_5_0,NA,NA,completion,8761.01,225878.89999998,225876.883,225893.744,234654.754,234657,2023-11-30T09:36:41Z,234671.192,"c(""distractor1"", ""distractor2"", ""distractor3"")",Gesundheit,salama,d,NA,NA,NA,NA,NA,NA,NA,NA,NA,NA,NA,NA,NA,NA,NA,NA,NA,NA,NA,NA,NA,NA,NA,NA,NA,NA
2fd2f,shallow,flow.Sequence,1_1_5_1,NA,NA,skipped,NA,234657.10000002,NA,NA,234654.754,234657.30000007,2023-11-30T09:36:41Z,234671.192,"c(""distractor1"", ""distractor2"", ""distractor3"")",Gesundheit,salama,d,NA,NA,NA,NA,NA,NA,NA,NA,NA,NA,NA,NA,NA,NA,NA,NA,NA,NA,NA,NA,NA,NA,NA,NA,NA,NA
2fd2f,task,flow.Sequence,1_1_5,NA,NA,completion,8761.01,225878.80000007,225876.883,225893.744,234654.754,234657.60000002,2023-11-30T09:36:41Z,234671.192,"c(""distractor1"", ""distractor2"", ""distractor3"")",Gesundheit,salama,d,NA,NA,NA,NA,NA,NA,NA,NA,NA,NA,NA,NA,NA,NA,NA,NA,NA,NA,NA,NA,NA,NA,NA,NA,NA,NA
2fd2f,block,flow.Loop,1_1,NA,NA,completion,63428.103,171209.30000007,171196.629,171226.651,234654.754,234657.89999998,2023-11-30T09:36:41Z,234671.192,"c(""distractor1"", ""distractor2"", ""distractor3"")",NA,NA,NA,NA,NA,NA,NA,NA,NA,NA,NA,NA,NA,NA,NA,NA,NA,NA,NA,NA,NA,NA,NA,NA,NA,NA,NA,NA,NA
2fd2f,Practice,flow.Sequence,1,NA,NA,completion,69274.542,165378.10000002,165369.587,165380.212,234654.754,234658.20000005,2023-11-30T09:36:41Z,234671.192,NULL,NA,NA,NA,NA,NA,NA,NA,NA,NA,NA,NA,NA,NA,NA,NA,NA,NA,NA,NA,NA,NA,NA,NA,NA,NA,NA,NA,NA,NA
2fd2f,Experiment start,canvas.Screen,2,weiter,keypress(q),response,17437.707999976,234658.30000007,234654.754,234671.192,252108.89999998,252110,2023-11-30T09:36:58Z,252160.505,NULL,NA,NA,NA,NA,NA,NA,NA,NA,NA,NA,NA,NA,NA,NA,NA,NA,NA,NA,NA,NA,NA,NA,NA,NA,NA,NA,NA,NA,NA
2fd2f,deep,flow.Sequence,3_0_0_0_0_0,NA,NA,skipped,NA,252172.60000002,NA,NA,252108.89999998,252172.70000005,2023-11-30T09:36:58Z,252160.505,NULL,Kontrolle,kudhibiti,s,mbinguni,kufunga,utegemezi,NA,sdf,NA,0,NA,NA,NA,NA,NA,NA,NA,NA,NA,NA,NA,NA,NA,NA,NA,NA,NA,NA,NA
2fd2f,Shallow Question,html.Page,3_0_0_0_0_1_0,NA,NA,form submission,9035.5950000238,252172.80000007,252100.401,252160.505,261196.10000002,261196.39999998,2023-11-30T09:37:07Z,261204.986,NULL,Kontrolle,kudhibiti,s,mbinguni,kufunga,utegemezi,utegemezi,NA,NA,0,NA,NA,NA,NA,NA,NA,NA,NA,NA,NA,NA,NA,NA,NA,NA,NA,NA,NA,NA
2fd2f,"""Richtig""-Screen",canvas.Screen,3_0_0_0_0_1_1,NA,NA,skipped,NA,261199.70000005,NA,NA,261196.10000002,261199.89999998,2023-11-30T09:37:07Z,261204.986,NULL,Kontrolle,kudhibiti,s,mbinguni,kufunga,utegemezi,NA,sdf,NA,0,NA,NA,NA,NA,NA,NA,NA,NA,NA,NA,NA,NA,NA,NA,NA,NA,NA,NA,NA
2fd2f,"""Falsch""-Screen",canvas.Screen,3_0_0_0_0_1_2,NA,NA,timeout,4997.032,261200.39999998,261188.641,261204.986,266185.37,266188.30000007,2023-11-30T09:37:12Z,266202.018,NULL,Kontrolle,kudhibiti,s,mbinguni,kufunga,utegemezi,NA,sdf,0,0,NA,NA,NA,NA,NA,NA,NA,NA,NA,NA,NA,NA,NA,NA,NA,NA,NA,NA,NA
2fd2f,shallow,flow.Sequence,3_0_0_0_0_1,NA,NA,completion,14024.865,252172.80000007,252100.401,252160.505,266185.37,266188.70000005,2023-11-30T09:37:12Z,266202.018,NULL,Kontrolle,kudhibiti,s,mbinguni,kufunga,utegemezi,NA,sdf,NA,0,NA,NA,NA,NA,NA,NA,NA,NA,NA,NA,NA,NA,NA,NA,NA,NA,NA,NA,NA
2fd2f,task,flow.Sequence,3_0_0_0_0,NA,NA,completion,14024.865,252172.60000002,252100.401,252160.505,266185.37,266189,2023-11-30T09:37:12Z,266202.018,NULL,Kontrolle,kudhibiti,s,mbinguni,kufunga,utegemezi,NA,sdf,NA,0,NA,NA,NA,NA,NA,NA,NA,NA,NA,NA,NA,NA,NA,NA,NA,NA,NA,NA,NA
2fd2f,deep,flow.Sequence,3_0_0_0_1_0,NA,NA,skipped,NA,266189.10000002,NA,NA,266185.37,266189.30000007,2023-11-30T09:37:12Z,266202.018,NULL,Betrüger,mdanganyifu,s,mwanamuziki,wastani,mahakama,NA,sdf,NA,0,NA,NA,NA,NA,NA,NA,NA,NA,NA,NA,NA,NA,NA,NA,NA,NA,NA,NA,NA
2fd2f,Shallow Question,html.Page,3_0_0_0_1_1_0,NA,NA,form submission,12493.782000072,266189.5,266185.37,266202.018,278695.80000007,278696,2023-11-30T09:37:25Z,278711.139,NULL,Betrüger,mdanganyifu,s,mwanamuziki,wastani,mahakama,mwanamuziki,NA,NA,0,NA,NA,NA,NA,NA,NA,NA,NA,NA,NA,NA,NA,NA,NA,NA,NA,NA,NA,NA
2fd2f,"""Richtig""-Screen",canvas.Screen,3_0_0_0_1_1_1,NA,NA,skipped,NA,278699.20000005,NA,NA,278695.80000007,278699.30000007,2023-11-30T09:37:25Z,278711.139,NULL,Betrüger,mdanganyifu,s,mwanamuziki,wastani,mahakama,NA,sdf,NA,0,NA,NA,NA,NA,NA,NA,NA,NA,NA,NA,NA,NA,NA,NA,NA,NA,NA,NA,NA
2fd2f,"""Falsch""-Screen",canvas.Screen,3_0_0_0_1_1_2,NA,NA,timeout,4996.839,278700.20000005,278694.263,278711.139,283691.828,283692.20000005,2023-11-30T09:37:30Z,283707.978,NULL,Betrüger,mdanganyifu,s,mwanamuziki,wastani,mahakama,NA,sdf,0,0,NA,NA,NA,NA,NA,NA,NA,NA,NA,NA,NA,NA,NA,NA,NA,NA,NA,NA,NA
2fd2f,shallow,flow.Sequence,3_0_0_0_1_1,NA,NA,completion,17489.81,266189.39999998,266185.37,266202.018,283691.828,283692.30000007,2023-11-30T09:37:30Z,283707.978,NULL,Betrüger,mdanganyifu,s,mwanamuziki,wastani,mahakama,NA,sdf,NA,0,NA,NA,NA,NA,NA,NA,NA,NA,NA,NA,NA,NA,NA,NA,NA,NA,NA,NA,NA
2fd2f,task,flow.Sequence,3_0_0_0_1,NA,NA,completion,17489.81,266189.10000002,266185.37,266202.018,283691.828,283692.39999998,2023-11-30T09:37:30Z,283707.978,NULL,Betrüger,mdanganyifu,s,mwanamuziki,wastani,mahakama,NA,sdf,NA,0,NA,NA,NA,NA,NA,NA,NA,NA,NA,NA,NA,NA,NA,NA,NA,NA,NA,NA,NA
2fd2f,Deep Question,html.Page,3_0_0_0_2_0_0,NA,NA,form submission,5431.6220000238,283692.5,283691.828,283707.978,289139.60000002,289139.89999998,2023-11-30T09:37:35Z,289171.635,NULL,Können,unaweza,d,NA,NA,NA,klom,NA,NA,0,NA,NA,NA,NA,NA,NA,NA,NA,NA,NA,NA,NA,NA,NA,NA,NA,NA,NA,NA
2fd2f,"""Richtig""-Screen",canvas.Screen,3_0_0_0_2_0_1,NA,NA,skipped,NA,289143.10000002,NA,NA,289139.60000002,289143.30000007,2023-11-30T09:37:35Z,289171.635,NULL,Können,unaweza,d,NA,NA,NA,NA,sdf,NA,0,NA,NA,NA,NA,NA,NA,NA,NA,NA,NA,NA,NA,NA,NA,NA,NA,NA,NA,NA
2fd2f,"""Falsch""-Screen",canvas.Screen,3_0_0_0_2_0_2,NA,NA,timeout,4997.082,289144,289154.904,289171.635,294151.601,294152.60000002,2023-11-30T09:37:40Z,294168.717,NULL,Können,unaweza,d,NA,NA,NA,NA,sdf,0,0,NA,NA,NA,NA,NA,NA,NA,NA,NA,NA,NA,NA,NA,NA,NA,NA,NA,NA,NA
2fd2f,deep,flow.Sequence,3_0_0_0_2_0,NA,NA,completion,10443.623,283692.39999998,283691.828,283707.978,294151.601,294152.89999998,2023-11-30T09:37:40Z,294168.717,NULL,Können,unaweza,d,NA,NA,NA,NA,sdf,NA,0,NA,NA,NA,NA,NA,NA,NA,NA,NA,NA,NA,NA,NA,NA,NA,NA,NA,NA,NA
2fd2f,shallow,flow.Sequence,3_0_0_0_2_1,NA,NA,skipped,NA,294153,NA,NA,294151.601,294153.20000005,2023-11-30T09:37:40Z,294168.717,NULL,Können,unaweza,d,NA,NA,NA,NA,sdf,NA,0,NA,NA,NA,NA,NA,NA,NA,NA,NA,NA,NA,NA,NA,NA,NA,NA,NA,NA,NA
2fd2f,task,flow.Sequence,3_0_0_0_2,NA,NA,completion,10443.623,283692.39999998,283691.828,283707.978,294151.601,294153.39999998,2023-11-30T09:37:40Z,294168.717,NULL,Können,unaweza,d,NA,NA,NA,NA,sdf,NA,0,NA,NA,NA,NA,NA,NA,NA,NA,NA,NA,NA,NA,NA,NA,NA,NA,NA,NA,NA
2fd2f,Deep Question,html.Page,3_0_0_0_3_0_0,NA,NA,form submission,4899.283,294153.60000002,294151.601,294168.717,299068,299068.20000005,2023-11-30T09:37:45Z,299082.055,NULL,Respekt,heshima,d,NA,NA,NA,fjg,NA,NA,0,NA,NA,NA,NA,NA,NA,NA,NA,NA,NA,NA,NA,NA,NA,NA,NA,NA,NA,NA
2fd2f,"""Richtig""-Screen",canvas.Screen,3_0_0_0_3_0_1,NA,NA,skipped,NA,299071.39999998,NA,NA,299068,299071.60000002,2023-11-30T09:37:45Z,299082.055,NULL,Respekt,heshima,d,NA,NA,NA,NA,sdf,NA,0,NA,NA,NA,NA,NA,NA,NA,NA,NA,NA,NA,NA,NA,NA,NA,NA,NA,NA,NA
2fd2f,"""Falsch""-Screen",canvas.Screen,3_0_0_0_3_0_2,NA,NA,timeout,4997.234,299072.39999998,299065.706,299082.055,304062.641,304063.60000002,2023-11-30T09:37:50Z,304079.289,NULL,Respekt,heshima,d,NA,NA,NA,NA,sdf,0,0,NA,NA,NA,NA,NA,NA,NA,NA,NA,NA,NA,NA,NA,NA,NA,NA,NA,NA,NA
2fd2f,deep,flow.Sequence,3_0_0_0_3_0,NA,NA,completion,9893.924,294153.60000002,294151.601,294168.717,304062.641,304064,2023-11-30T09:37:50Z,304079.289,NULL,Respekt,heshima,d,NA,NA,NA,NA,sdf,NA,0,NA,NA,NA,NA,NA,NA,NA,NA,NA,NA,NA,NA,NA,NA,NA,NA,NA,NA,NA
2fd2f,shallow,flow.Sequence,3_0_0_0_3_1,NA,NA,skipped,NA,304064.10000002,NA,NA,304062.641,304064.20000005,2023-11-30T09:37:50Z,304079.289,NULL,Respekt,heshima,d,NA,NA,NA,NA,sdf,NA,0,NA,NA,NA,NA,NA,NA,NA,NA,NA,NA,NA,NA,NA,NA,NA,NA,NA,NA,NA
2fd2f,task,flow.Sequence,3_0_0_0_3,NA,NA,completion,9893.924,294153.60000002,294151.601,294168.717,304062.641,304064.5,2023-11-30T09:37:50Z,304079.289,NULL,Respekt,heshima,d,NA,NA,NA,NA,sdf,NA,0,NA,NA,NA,NA,NA,NA,NA,NA,NA,NA,NA,NA,NA,NA,NA,NA,NA,NA,NA
2fd2f,deep,flow.Sequence,3_0_0_0_4_0,NA,NA,skipped,NA,304064.70000005,NA,NA,304062.641,304064.80000007,2023-11-30T09:37:50Z,304079.289,NULL,Gefährdung,kuhatarisha,s,uchokozi,udhaifu,makorowezo,NA,sdf,NA,0,NA,NA,NA,NA,NA,NA,NA,NA,NA,NA,NA,NA,NA,NA,NA,NA,NA,NA,NA
2fd2f,Shallow Question,html.Page,3_0_0_0_4_1_0,NA,NA,form submission,7032.3110000239,304065,304062.641,304079.289,311111.60000002,311111.80000007,2023-11-30T09:37:57Z,311124.595,NULL,Gefährdung,kuhatarisha,s,uchokozi,udhaifu,makorowezo,makorowezo,NA,NA,0,NA,NA,NA,NA,NA,NA,NA,NA,NA,NA,NA,NA,NA,NA,NA,NA,NA,NA,NA
2fd2f,"""Richtig""-Screen",canvas.Screen,3_0_0_0_4_1_1,NA,NA,skipped,NA,311115,NA,NA,311111.60000002,311115.10000002,2023-11-30T09:37:57Z,311124.595,NULL,Gefährdung,kuhatarisha,s,uchokozi,udhaifu,makorowezo,NA,sdf,NA,0,NA,NA,NA,NA,NA,NA,NA,NA,NA,NA,NA,NA,NA,NA,NA,NA,NA,NA,NA
2fd2f,"""Falsch""-Screen",canvas.Screen,3_0_0_0_4_1_2,NA,NA,timeout,4997.226,311116,311108.002,311124.595,316104.844,316105.89999998,2023-11-30T09:38:02Z,316121.821,NULL,Gefährdung,kuhatarisha,s,uchokozi,udhaifu,makorowezo,NA,sdf,0,0,NA,NA,NA,NA,NA,NA,NA,NA,NA,NA,NA,NA,NA,NA,NA,NA,NA,NA,NA
2fd2f,shallow,flow.Sequence,3_0_0_0_4_1,NA,NA,completion,12025.555,304064.89999998,304062.641,304079.289,316104.844,316106.39999998,2023-11-30T09:38:02Z,316121.821,NULL,Gefährdung,kuhatarisha,s,uchokozi,udhaifu,makorowezo,NA,sdf,NA,0,NA,NA,NA,NA,NA,NA,NA,NA,NA,NA,NA,NA,NA,NA,NA,NA,NA,NA,NA
2fd2f,task,flow.Sequence,3_0_0_0_4,NA,NA,completion,12025.555,304064.60000002,304062.641,304079.289,316104.844,316106.60000002,2023-11-30T09:38:02Z,316121.821,NULL,Gefährdung,kuhatarisha,s,uchokozi,udhaifu,makorowezo,NA,sdf,NA,0,NA,NA,NA,NA,NA,NA,NA,NA,NA,NA,NA,NA,NA,NA,NA,NA,NA,NA,NA
2fd2f,deep,flow.Sequence,3_0_0_0_5_0,NA,NA,skipped,NA,316106.80000007,NA,NA,316104.844,316107,2023-11-30T09:38:02Z,316121.821,NULL,Stimmung,kinyongo,s,kilekile,kisambo,madhehebu,NA,sdf,NA,0,NA,NA,NA,NA,NA,NA,NA,NA,NA,NA,NA,NA,NA,NA,NA,NA,NA,NA,NA
2fd2f,Shallow Question,html.Page,3_0_0_0_5_1_0,NA,NA,form submission,5279.7790000238,316107.20000005,316104.844,316121.821,321401.60000002,321401.80000007,2023-11-30T09:38:07Z,321418.646,NULL,Stimmung,kinyongo,s,kilekile,kisambo,madhehebu,kisambo,NA,NA,0,NA,NA,NA,NA,NA,NA,NA,NA,NA,NA,NA,NA,NA,NA,NA,NA,NA,NA,NA
2fd2f,"""Richtig""-Screen",canvas.Screen,3_0_0_0_5_1_1,NA,NA,skipped,NA,321405.10000002,NA,NA,321401.60000002,321405.30000007,2023-11-30T09:38:07Z,321418.646,NULL,Stimmung,kinyongo,s,kilekile,kisambo,madhehebu,NA,sdf,NA,0,NA,NA,NA,NA,NA,NA,NA,NA,NA,NA,NA,NA,NA,NA,NA,NA,NA,NA,NA
2fd2f,"""Falsch""-Screen",canvas.Screen,3_0_0_0_5_1_2,NA,NA,timeout,4996.731,321406.10000002,321385.42,321418.646,326398.586,326399.60000002,2023-11-30T09:38:12Z,326415.377,NULL,Stimmung,kinyongo,s,kilekile,kisambo,madhehebu,NA,sdf,0,0,NA,NA,NA,NA,NA,NA,NA,NA,NA,NA,NA,NA,NA,NA,NA,NA,NA,NA,NA
2fd2f,shallow,flow.Sequence,3_0_0_0_5_1,NA,NA,completion,10276.765,316107.20000005,316104.844,316121.821,326398.586,326400,2023-11-30T09:38:12Z,326415.377,NULL,Stimmung,kinyongo,s,kilekile,kisambo,madhehebu,NA,sdf,NA,0,NA,NA,NA,NA,NA,NA,NA,NA,NA,NA,NA,NA,NA,NA,NA,NA,NA,NA,NA
2fd2f,task,flow.Sequence,3_0_0_0_5,NA,NA,completion,10276.765,316106.70000005,316104.844,316121.821,326398.586,326400.20000005,2023-11-30T09:38:12Z,326415.377,NULL,Stimmung,kinyongo,s,kilekile,kisambo,madhehebu,NA,sdf,NA,0,NA,NA,NA,NA,NA,NA,NA,NA,NA,NA,NA,NA,NA,NA,NA,NA,NA,NA,NA
2fd2f,Deep Question,html.Page,3_0_0_0_6_0_0,NA,NA,form submission,3886.2230000239,326400.5,326398.586,326415.377,330301.60000002,330301.80000007,2023-11-30T09:38:16Z,330312.962,NULL,Orientierung,urekebisho,d,NA,NA,NA,fdeg,NA,NA,0,NA,NA,NA,NA,NA,NA,NA,NA,NA,NA,NA,NA,NA,NA,NA,NA,NA,NA,NA
2fd2f,"""Richtig""-Screen",canvas.Screen,3_0_0_0_6_0_1,NA,NA,skipped,NA,330305,NA,NA,330301.60000002,330305.10000002,2023-11-30T09:38:16Z,330312.962,NULL,Orientierung,urekebisho,d,NA,NA,NA,NA,sdf,NA,0,NA,NA,NA,NA,NA,NA,NA,NA,NA,NA,NA,NA,NA,NA,NA,NA,NA,NA,NA
2fd2f,"""Falsch""-Screen",canvas.Screen,3_0_0_0_6_0_2,NA,NA,timeout,4997.147,330305.70000005,330296.859,330312.962,335293.532,335294.5,2023-11-30T09:38:21Z,335310.109,NULL,Orientierung,urekebisho,d,NA,NA,NA,NA,sdf,0,0,NA,NA,NA,NA,NA,NA,NA,NA,NA,NA,NA,NA,NA,NA,NA,NA,NA,NA,NA
2fd2f,deep,flow.Sequence,3_0_0_0_6_0,NA,NA,completion,8878.155,326400.39999998,326398.586,326415.377,335293.532,335294.89999998,2023-11-30T09:38:21Z,335310.109,NULL,Orientierung,urekebisho,d,NA,NA,NA,NA,sdf,NA,0,NA,NA,NA,NA,NA,NA,NA,NA,NA,NA,NA,NA,NA,NA,NA,NA,NA,NA,NA
2fd2f,shallow,flow.Sequence,3_0_0_0_6_1,NA,NA,skipped,NA,335295.10000002,NA,NA,335293.532,335295.30000007,2023-11-30T09:38:21Z,335310.109,NULL,Orientierung,urekebisho,d,NA,NA,NA,NA,sdf,NA,0,NA,NA,NA,NA,NA,NA,NA,NA,NA,NA,NA,NA,NA,NA,NA,NA,NA,NA,NA
2fd2f,task,flow.Sequence,3_0_0_0_6,NA,NA,completion,8878.155,326400.39999998,326398.586,326415.377,335293.532,335295.5,2023-11-30T09:38:21Z,335310.109,NULL,Orientierung,urekebisho,d,NA,NA,NA,NA,sdf,NA,0,NA,NA,NA,NA,NA,NA,NA,NA,NA,NA,NA,NA,NA,NA,NA,NA,NA,NA,NA
2fd2f,Deep Question,html.Page,3_0_0_0_7_0_0,NA,NA,form submission,6484.0910000477,335295.70000005,335293.532,335310.109,341794.20000005,341794.39999998,2023-11-30T09:38:28Z,341805.938,NULL,Kreativität,ubunifu,d,NA,NA,NA,mk,NA,NA,0,NA,NA,NA,NA,NA,NA,NA,NA,NA,NA,NA,NA,NA,NA,NA,NA,NA,NA,NA
2fd2f,"""Richtig""-Screen",canvas.Screen,3_0_0_0_7_0_1,NA,NA,skipped,NA,341797.80000007,NA,NA,341794.20000005,341798,2023-11-30T09:38:28Z,341805.938,NULL,Kreativität,ubunifu,d,NA,NA,NA,NA,sdf,NA,0,NA,NA,NA,NA,NA,NA,NA,NA,NA,NA,NA,NA,NA,NA,NA,NA,NA,NA,NA
2fd2f,"""Falsch""-Screen",canvas.Screen,3_0_0_0_7_0_2,NA,NA,timeout,4997.129,341798.89999998,341789.621,341805.938,346786.368,346787.20000005,2023-11-30T09:38:33Z,346803.067,NULL,Kreativität,ubunifu,d,NA,NA,NA,NA,sdf,0,0,NA,NA,NA,NA,NA,NA,NA,NA,NA,NA,NA,NA,NA,NA,NA,NA,NA,NA,NA
2fd2f,deep,flow.Sequence,3_0_0_0_7_0,NA,NA,completion,11476.259,335295.70000005,335293.532,335310.109,346786.368,346787.60000002,2023-11-30T09:38:33Z,346803.067,NULL,Kreativität,ubunifu,d,NA,NA,NA,NA,sdf,NA,0,NA,NA,NA,NA,NA,NA,NA,NA,NA,NA,NA,NA,NA,NA,NA,NA,NA,NA,NA
2fd2f,shallow,flow.Sequence,3_0_0_0_7_1,NA,NA,skipped,NA,346787.70000005,NA,NA,346786.368,346787.89999998,2023-11-30T09:38:33Z,346803.067,NULL,Kreativität,ubunifu,d,NA,NA,NA,NA,sdf,NA,0,NA,NA,NA,NA,NA,NA,NA,NA,NA,NA,NA,NA,NA,NA,NA,NA,NA,NA,NA
2fd2f,task,flow.Sequence,3_0_0_0_7,NA,NA,completion,11476.259,335295.70000005,335293.532,335310.109,346786.368,346788,2023-11-30T09:38:33Z,346803.067,NULL,Kreativität,ubunifu,d,NA,NA,NA,NA,sdf,NA,0,NA,NA,NA,NA,NA,NA,NA,NA,NA,NA,NA,NA,NA,NA,NA,NA,NA,NA,NA
2fd2f,block,flow.Loop,3_0_0_0,NA,NA,completion,94625.863,252172.5,252100.401,252160.505,346786.368,346788.30000007,2023-11-30T09:38:33Z,346803.067,NULL,NA,NA,NA,NA,NA,NA,NA,sdf,NA,0,NA,NA,NA,NA,NA,NA,NA,NA,NA,NA,NA,NA,NA,NA,NA,NA,NA,NA,NA
2fd2f,weiter,canvas.Screen,3_0_0_1,sdf,keypress(Space),response,1322.3329999762,346788.30000007,346786.368,346803.067,348125.39999998,348126.20000005,2023-11-30T09:38:34Z,348135.194,NULL,NA,NA,NA,NA,NA,NA,NA,sdf,NA,0,NA,NA,NA,NA,NA,NA,NA,NA,NA,NA,NA,NA,NA,NA,NA,NA,NA,NA,NA
2fd2f,check continue,flow.Sequence,3_0_0,NA,NA,completion,95964.894999976,252172.5,252100.401,252160.505,348125.39999998,348126.5,2023-11-30T09:38:34Z,348135.194,NULL,NA,NA,NA,NA,NA,NA,NA,sdf,NA,0,NA,NA,NA,NA,NA,NA,NA,NA,NA,NA,NA,NA,NA,NA,NA,NA,NA,NA,NA
2fd2f,Deep Question,html.Page,3_0_1_0_0_0_0,NA,NA,form submission,10668.406000024,348149.5,348118.334,348135.194,358803.60000002,358803.80000007,2023-11-30T09:38:45Z,358812.003,NULL,Können,unaweza,d,NA,NA,NA,ubunifu,NA,NA,1,NA,NA,NA,NA,NA,NA,NA,NA,NA,NA,NA,NA,NA,NA,NA,NA,NA,NA,NA
2fd2f,"""Richtig""-Screen",canvas.Screen,3_0_1_0_0_0_1,NA,NA,skipped,NA,358807,NA,NA,358803.60000002,358807.20000005,2023-11-30T09:38:45Z,358812.003,NULL,Können,unaweza,d,NA,NA,NA,NA,sdfdsf,NA,1,NA,NA,NA,NA,NA,NA,NA,NA,NA,NA,NA,NA,NA,NA,NA,NA,NA,NA,NA
2fd2f,"""Falsch""-Screen",canvas.Screen,3_0_1_0_0_0_2,NA,NA,timeout,4997.529,358808.20000005,358795.915,358812.003,363792.635,363793.60000002,2023-11-30T09:38:50Z,363809.532,NULL,Können,unaweza,d,NA,NA,NA,NA,sdfdsf,0,1,NA,NA,NA,NA,NA,NA,NA,NA,NA,NA,NA,NA,NA,NA,NA,NA,NA,NA,NA
2fd2f,deep,flow.Sequence,3_0_1_0_0_0,NA,NA,completion,15657.441,348149.5,348118.334,348135.194,363792.635,363794.10000002,2023-11-30T09:38:50Z,363809.532,NULL,Können,unaweza,d,NA,NA,NA,NA,sdfdsf,NA,1,NA,NA,NA,NA,NA,NA,NA,NA,NA,NA,NA,NA,NA,NA,NA,NA,NA,NA,NA
2fd2f,shallow,flow.Sequence,3_0_1_0_0_1,NA,NA,skipped,NA,363794.10000002,NA,NA,363792.635,363794.39999998,2023-11-30T09:38:50Z,363809.532,NULL,Können,unaweza,d,NA,NA,NA,NA,sdfdsf,NA,1,NA,NA,NA,NA,NA,NA,NA,NA,NA,NA,NA,NA,NA,NA,NA,NA,NA,NA,NA
2fd2f,task,flow.Sequence,3_0_1_0_0,NA,NA,completion,15657.441,348149.5,348118.334,348135.194,363792.635,363794.60000002,2023-11-30T09:38:50Z,363809.532,NULL,Können,unaweza,d,NA,NA,NA,NA,sdfdsf,NA,1,NA,NA,NA,NA,NA,NA,NA,NA,NA,NA,NA,NA,NA,NA,NA,NA,NA,NA,NA
2fd2f,deep,flow.Sequence,3_0_1_0_1_0,NA,NA,skipped,NA,363794.80000007,NA,NA,363792.635,363794.89999998,2023-11-30T09:38:50Z,363809.532,NULL,Betrüger,mdanganyifu,s,mwanamuziki,wastani,mahakama,NA,sdfdsf,NA,1,NA,NA,NA,NA,NA,NA,NA,NA,NA,NA,NA,NA,NA,NA,NA,NA,NA,NA,NA
2fd2f,Shallow Question,html.Page,3_0_1_0_1_1_0,NA,NA,form submission,5847.6680000477,363795,363792.635,363809.532,369657.20000005,369657.39999998,2023-11-30T09:38:56Z,369671.957,NULL,Betrüger,mdanganyifu,s,mwanamuziki,wastani,mahakama,mdanganyifu,NA,NA,1,NA,NA,NA,NA,NA,NA,NA,NA,NA,NA,NA,NA,NA,NA,NA,NA,NA,NA,NA
2fd2f,"""Richtig""-Screen",canvas.Screen,3_0_1_0_1_1_1,NA,NA,timeout,4997.035,369660.60000002,369655.872,369671.957,374652.821,374653.80000007,2023-11-30T09:39:01Z,374668.992,NULL,Betrüger,mdanganyifu,s,mwanamuziki,wastani,mahakama,NA,sdfdsf,1,1,NA,NA,NA,NA,NA,NA,NA,NA,NA,NA,NA,NA,NA,NA,NA,NA,NA,NA,NA
2fd2f,"""Falsch""-Screen",canvas.Screen,3_0_1_0_1_1_2,NA,NA,skipped,NA,374659,NA,NA,374652.821,374659.10000002,2023-11-30T09:39:01Z,374668.992,NULL,Betrüger,mdanganyifu,s,mwanamuziki,wastani,mahakama,NA,sdfdsf,NA,1,NA,NA,NA,NA,NA,NA,NA,NA,NA,NA,NA,NA,NA,NA,NA,NA,NA,NA,NA
2fd2f,shallow,flow.Sequence,3_0_1_0_1_1,NA,NA,completion,10843.289,363795,363792.635,363809.532,374652.821,374659.20000005,2023-11-30T09:39:01Z,374668.992,NULL,Betrüger,mdanganyifu,s,mwanamuziki,wastani,mahakama,NA,sdfdsf,NA,1,NA,NA,NA,NA,NA,NA,NA,NA,NA,NA,NA,NA,NA,NA,NA,NA,NA,NA,NA
2fd2f,task,flow.Sequence,3_0_1_0_1,NA,NA,completion,10843.289,363794.70000005,363792.635,363809.532,374652.821,374659.30000007,2023-11-30T09:39:01Z,374668.992,NULL,Betrüger,mdanganyifu,s,mwanamuziki,wastani,mahakama,NA,sdfdsf,NA,1,NA,NA,NA,NA,NA,NA,NA,NA,NA,NA,NA,NA,NA,NA,NA,NA,NA,NA,NA
2fd2f,Deep Question,html.Page,3_0_1_0_2_0_0,NA,NA,form submission,4112.7080000477,374659.39999998,374652.821,374668.992,378781.70000005,378782,2023-11-30T09:39:05Z,378783.112,NULL,Respekt,heshima,d,NA,NA,NA,unif,NA,NA,1,NA,NA,NA,NA,NA,NA,NA,NA,NA,NA,NA,NA,NA,NA,NA,NA,NA,NA,NA
2fd2f,"""Richtig""-Screen",canvas.Screen,3_0_1_0_2_0_1,NA,NA,skipped,NA,378784.80000007,NA,NA,378781.70000005,378785,2023-11-30T09:39:05Z,378783.112,NULL,Respekt,heshima,d,NA,NA,NA,NA,sdfdsf,NA,1,NA,NA,NA,NA,NA,NA,NA,NA,NA,NA,NA,NA,NA,NA,NA,NA,NA,NA,NA
2fd2f,"""Falsch""-Screen",canvas.Screen,3_0_1_0_2_0_2,NA,NA,timeout,4997.409,378786,378767.115,378783.112,383763.707,383764.60000002,2023-11-30T09:39:10Z,383780.521,NULL,Respekt,heshima,d,NA,NA,NA,NA,sdfdsf,0,1,NA,NA,NA,NA,NA,NA,NA,NA,NA,NA,NA,NA,NA,NA,NA,NA,NA,NA,NA
2fd2f,deep,flow.Sequence,3_0_1_0_2_0,NA,NA,completion,9094.715,374659.39999998,374652.821,374668.992,383763.707,383765,2023-11-30T09:39:10Z,383780.521,NULL,Respekt,heshima,d,NA,NA,NA,NA,sdfdsf,NA,1,NA,NA,NA,NA,NA,NA,NA,NA,NA,NA,NA,NA,NA,NA,NA,NA,NA,NA,NA
2fd2f,shallow,flow.Sequence,3_0_1_0_2_1,NA,NA,skipped,NA,383765.20000005,NA,NA,383763.707,383765.30000007,2023-11-30T09:39:10Z,383780.521,NULL,Respekt,heshima,d,NA,NA,NA,NA,sdfdsf,NA,1,NA,NA,NA,NA,NA,NA,NA,NA,NA,NA,NA,NA,NA,NA,NA,NA,NA,NA,NA
2fd2f,task,flow.Sequence,3_0_1_0_2,NA,NA,completion,9094.715,374659.30000007,374652.821,374668.992,383763.707,383765.5,2023-11-30T09:39:10Z,383780.521,NULL,Respekt,heshima,d,NA,NA,NA,NA,sdfdsf,NA,1,NA,NA,NA,NA,NA,NA,NA,NA,NA,NA,NA,NA,NA,NA,NA,NA,NA,NA,NA
2fd2f,Deep Question,html.Page,3_0_1_0_3_0_0,NA,NA,form submission,7553.3789999762,383765.80000007,383763.707,383780.521,391333.89999998,391334.10000002,2023-11-30T09:39:17Z,391342.111,NULL,Kreativität,ubunifu,d,NA,NA,NA,unufi,NA,NA,1,NA,NA,NA,NA,NA,NA,NA,NA,NA,NA,NA,NA,NA,NA,NA,NA,NA,NA,NA
2fd2f,"""Richtig""-Screen",canvas.Screen,3_0_1_0_3_0_1,NA,NA,skipped,NA,391337.30000007,NA,NA,391333.89999998,391337.39999998,2023-11-30T09:39:17Z,391342.111,NULL,Kreativität,ubunifu,d,NA,NA,NA,NA,sdfdsf,NA,1,NA,NA,NA,NA,NA,NA,NA,NA,NA,NA,NA,NA,NA,NA,NA,NA,NA,NA,NA
2fd2f,"""Falsch""-Screen",canvas.Screen,3_0_1_0_3_0_2,NA,NA,timeout,4997.503,391338.20000005,391326.001,391342.111,396322.465,396323.39999998,2023-11-30T09:39:22Z,396339.614,NULL,Kreativität,ubunifu,d,NA,NA,NA,NA,sdfdsf,0,1,NA,NA,NA,NA,NA,NA,NA,NA,NA,NA,NA,NA,NA,NA,NA,NA,NA,NA,NA
2fd2f,deep,flow.Sequence,3_0_1_0_3_0,NA,NA,completion,12541.944,383765.70000005,383763.707,383780.521,396322.465,396323.70000005,2023-11-30T09:39:22Z,396339.614,NULL,Kreativität,ubunifu,d,NA,NA,NA,NA,sdfdsf,NA,1,NA,NA,NA,NA,NA,NA,NA,NA,NA,NA,NA,NA,NA,NA,NA,NA,NA,NA,NA
2fd2f,shallow,flow.Sequence,3_0_1_0_3_1,NA,NA,skipped,NA,396323.80000007,NA,NA,396322.465,396324.10000002,2023-11-30T09:39:22Z,396339.614,NULL,Kreativität,ubunifu,d,NA,NA,NA,NA,sdfdsf,NA,1,NA,NA,NA,NA,NA,NA,NA,NA,NA,NA,NA,NA,NA,NA,NA,NA,NA,NA,NA
2fd2f,task,flow.Sequence,3_0_1_0_3,NA,NA,completion,12541.944,383765.60000002,383763.707,383780.521,396322.465,396324.20000005,2023-11-30T09:39:22Z,396339.614,NULL,Kreativität,ubunifu,d,NA,NA,NA,NA,sdfdsf,NA,1,NA,NA,NA,NA,NA,NA,NA,NA,NA,NA,NA,NA,NA,NA,NA,NA,NA,NA,NA
2fd2f,deep,flow.Sequence,3_0_1_0_4_0,NA,NA,skipped,NA,396324.39999998,NA,NA,396322.465,396324.5,2023-11-30T09:39:22Z,396339.614,NULL,Stimmung,kinyongo,s,kilekile,kisambo,madhehebu,NA,sdfdsf,NA,1,NA,NA,NA,NA,NA,NA,NA,NA,NA,NA,NA,NA,NA,NA,NA,NA,NA,NA,NA
2fd2f,Shallow Question,html.Page,3_0_1_0_4_1_0,NA,NA,form submission,7037.886,396324.60000002,396322.465,396339.614,403377.5,403377.80000007,2023-11-30T09:39:29Z,403384.766,NULL,Stimmung,kinyongo,s,kilekile,kisambo,madhehebu,kinyongo,NA,NA,1,NA,NA,NA,NA,NA,NA,NA,NA,NA,NA,NA,NA,NA,NA,NA,NA,NA,NA,NA
2fd2f,"""Richtig""-Screen",canvas.Screen,3_0_1_0_4_1_1,NA,NA,timeout,4997.394,403380.89999998,403368.331,403384.766,408365.337,408366.70000005,2023-11-30T09:39:34Z,408382.16,NULL,Stimmung,kinyongo,s,kilekile,kisambo,madhehebu,NA,sdfdsf,1,1,NA,NA,NA,NA,NA,NA,NA,NA,NA,NA,NA,NA,NA,NA,NA,NA,NA,NA,NA
2fd2f,"""Falsch""-Screen",canvas.Screen,3_0_1_0_4_1_2,NA,NA,skipped,NA,408371.39999998,NA,NA,408365.337,408371.60000002,2023-11-30T09:39:34Z,408382.16,NULL,Stimmung,kinyongo,s,kilekile,kisambo,madhehebu,NA,sdfdsf,NA,1,NA,NA,NA,NA,NA,NA,NA,NA,NA,NA,NA,NA,NA,NA,NA,NA,NA,NA,NA
2fd2f,shallow,flow.Sequence,3_0_1_0_4_1,NA,NA,completion,12025.723,396324.60000002,396322.465,396339.614,408365.337,408371.70000005,2023-11-30T09:39:34Z,408382.16,NULL,Stimmung,kinyongo,s,kilekile,kisambo,madhehebu,NA,sdfdsf,NA,1,NA,NA,NA,NA,NA,NA,NA,NA,NA,NA,NA,NA,NA,NA,NA,NA,NA,NA,NA
2fd2f,task,flow.Sequence,3_0_1_0_4,NA,NA,completion,12025.723,396324.30000007,396322.465,396339.614,408365.337,408371.70000005,2023-11-30T09:39:34Z,408382.16,NULL,Stimmung,kinyongo,s,kilekile,kisambo,madhehebu,NA,sdfdsf,NA,1,NA,NA,NA,NA,NA,NA,NA,NA,NA,NA,NA,NA,NA,NA,NA,NA,NA,NA,NA
2fd2f,deep,flow.Sequence,3_0_1_0_5_0,NA,NA,skipped,NA,408371.80000007,NA,NA,408365.337,408371.80000007,2023-11-30T09:39:34Z,408382.16,NULL,Kontrolle,kudhibiti,s,mbinguni,kufunga,utegemezi,NA,sdfdsf,NA,1,NA,NA,NA,NA,NA,NA,NA,NA,NA,NA,NA,NA,NA,NA,NA,NA,NA,NA,NA
2fd2f,Shallow Question,html.Page,3_0_1_0_5_1_0,NA,NA,form submission,7733.5400000477,408371.89999998,408365.337,408382.16,416115.70000005,416116,2023-11-30T09:39:42Z,416127.203,NULL,Kontrolle,kudhibiti,s,mbinguni,kufunga,utegemezi,utegemezi,NA,NA,1,NA,NA,NA,NA,NA,NA,NA,NA,NA,NA,NA,NA,NA,NA,NA,NA,NA,NA,NA
2fd2f,"""Richtig""-Screen",canvas.Screen,3_0_1_0_5_1_1,NA,NA,skipped,NA,416119.39999998,NA,NA,416115.70000005,416119.5,2023-11-30T09:39:42Z,416127.203,NULL,Kontrolle,kudhibiti,s,mbinguni,kufunga,utegemezi,NA,sdfdsf,NA,1,NA,NA,NA,NA,NA,NA,NA,NA,NA,NA,NA,NA,NA,NA,NA,NA,NA,NA,NA
2fd2f,"""Falsch""-Screen",canvas.Screen,3_0_1_0_5_1_2,NA,NA,timeout,4996.668,416120.20000005,416110.476,416127.203,421107.357,421108.60000002,2023-11-30T09:39:47Z,421123.871,NULL,Kontrolle,kudhibiti,s,mbinguni,kufunga,utegemezi,NA,sdfdsf,0,1,NA,NA,NA,NA,NA,NA,NA,NA,NA,NA,NA,NA,NA,NA,NA,NA,NA,NA,NA
2fd2f,shallow,flow.Sequence,3_0_1_0_5_1,NA,NA,completion,12725.197,408371.89999998,408365.337,408382.16,421107.357,421109,2023-11-30T09:39:47Z,421123.871,NULL,Kontrolle,kudhibiti,s,mbinguni,kufunga,utegemezi,NA,sdfdsf,NA,1,NA,NA,NA,NA,NA,NA,NA,NA,NA,NA,NA,NA,NA,NA,NA,NA,NA,NA,NA
2fd2f,task,flow.Sequence,3_0_1_0_5,NA,NA,completion,12725.197,408371.80000007,408365.337,408382.16,421107.357,421109.20000005,2023-11-30T09:39:47Z,421123.871,NULL,Kontrolle,kudhibiti,s,mbinguni,kufunga,utegemezi,NA,sdfdsf,NA,1,NA,NA,NA,NA,NA,NA,NA,NA,NA,NA,NA,NA,NA,NA,NA,NA,NA,NA,NA
2fd2f,Deep Question,html.Page,3_0_1_0_6_0_0,NA,NA,form submission,3366.129,421109.5,421107.357,421123.871,424490,424490.30000007,2023-11-30T09:39:51Z,424505.229,NULL,Orientierung,urekebisho,d,NA,NA,NA,kdf,NA,NA,1,NA,NA,NA,NA,NA,NA,NA,NA,NA,NA,NA,NA,NA,NA,NA,NA,NA,NA,NA
2fd2f,"""Richtig""-Screen",canvas.Screen,3_0_1_0_6_0_1,NA,NA,skipped,NA,424493.30000007,NA,NA,424490,424493.5,2023-11-30T09:39:51Z,424505.229,NULL,Orientierung,urekebisho,d,NA,NA,NA,NA,sdfdsf,NA,1,NA,NA,NA,NA,NA,NA,NA,NA,NA,NA,NA,NA,NA,NA,NA,NA,NA,NA,NA
2fd2f,"""Falsch""-Screen",canvas.Screen,3_0_1_0_6_0_2,NA,NA,timeout,4997.435,424494.39999998,424488.357,424505.229,429485.842,429486.80000007,2023-11-30T09:39:56Z,429502.664,NULL,Orientierung,urekebisho,d,NA,NA,NA,NA,sdfdsf,0,1,NA,NA,NA,NA,NA,NA,NA,NA,NA,NA,NA,NA,NA,NA,NA,NA,NA,NA,NA
2fd2f,deep,flow.Sequence,3_0_1_0_6_0,NA,NA,completion,8361.971,421109.5,421107.357,421123.871,429485.842,429487.20000005,2023-11-30T09:39:56Z,429502.664,NULL,Orientierung,urekebisho,d,NA,NA,NA,NA,sdfdsf,NA,1,NA,NA,NA,NA,NA,NA,NA,NA,NA,NA,NA,NA,NA,NA,NA,NA,NA,NA,NA
2fd2f,shallow,flow.Sequence,3_0_1_0_6_1,NA,NA,skipped,NA,429487.30000007,NA,NA,429485.842,429487.5,2023-11-30T09:39:56Z,429502.664,NULL,Orientierung,urekebisho,d,NA,NA,NA,NA,sdfdsf,NA,1,NA,NA,NA,NA,NA,NA,NA,NA,NA,NA,NA,NA,NA,NA,NA,NA,NA,NA,NA
2fd2f,task,flow.Sequence,3_0_1_0_6,NA,NA,completion,8361.971,421109.39999998,421107.357,421123.871,429485.842,429487.80000007,2023-11-30T09:39:56Z,429502.664,NULL,Orientierung,urekebisho,d,NA,NA,NA,NA,sdfdsf,NA,1,NA,NA,NA,NA,NA,NA,NA,NA,NA,NA,NA,NA,NA,NA,NA,NA,NA,NA,NA
2fd2f,deep,flow.Sequence,3_0_1_0_7_0,NA,NA,skipped,NA,429489.80000007,NA,NA,429485.842,429490,2023-11-30T09:39:56Z,429502.664,NULL,Gefährdung,kuhatarisha,s,uchokozi,udhaifu,makorowezo,NA,sdfdsf,NA,1,NA,NA,NA,NA,NA,NA,NA,NA,NA,NA,NA,NA,NA,NA,NA,NA,NA,NA,NA
2fd2f,Shallow Question,html.Page,3_0_1_0_7_1_0,NA,NA,form submission,8538.9360000239,429490.20000005,429485.842,429502.664,438041.60000002,438041.80000007,2023-11-30T09:40:04Z,438046.941,NULL,Gefährdung,kuhatarisha,s,uchokozi,udhaifu,makorowezo,udhaifu,NA,NA,1,NA,NA,NA,NA,NA,NA,NA,NA,NA,NA,NA,NA,NA,NA,NA,NA,NA,NA,NA
2fd2f,"""Richtig""-Screen",canvas.Screen,3_0_1_0_7_1_1,NA,NA,skipped,NA,438044.89999998,NA,NA,438041.60000002,438045,2023-11-30T09:40:04Z,438046.941,NULL,Gefährdung,kuhatarisha,s,uchokozi,udhaifu,makorowezo,NA,sdfdsf,NA,1,NA,NA,NA,NA,NA,NA,NA,NA,NA,NA,NA,NA,NA,NA,NA,NA,NA,NA,NA
2fd2f,"""Falsch""-Screen",canvas.Screen,3_0_1_0_7_1_2,NA,NA,timeout,4997.267,438045.89999998,438030.693,438046.941,443027.329,443028.39999998,2023-11-30T09:40:09Z,443044.208,NULL,Gefährdung,kuhatarisha,s,uchokozi,udhaifu,makorowezo,NA,sdfdsf,0,1,NA,NA,NA,NA,NA,NA,NA,NA,NA,NA,NA,NA,NA,NA,NA,NA,NA,NA,NA
2fd2f,shallow,flow.Sequence,3_0_1_0_7_1,NA,NA,completion,13524.665,429490.10000002,429485.842,429502.664,443027.329,443028.70000005,2023-11-30T09:40:09Z,443044.208,NULL,Gefährdung,kuhatarisha,s,uchokozi,udhaifu,makorowezo,NA,sdfdsf,NA,1,NA,NA,NA,NA,NA,NA,NA,NA,NA,NA,NA,NA,NA,NA,NA,NA,NA,NA,NA
2fd2f,task,flow.Sequence,3_0_1_0_7,NA,NA,completion,13524.665,429489.60000002,429485.842,429502.664,443027.329,443028.89999998,2023-11-30T09:40:09Z,443044.208,NULL,Gefährdung,kuhatarisha,s,uchokozi,udhaifu,makorowezo,NA,sdfdsf,NA,1,NA,NA,NA,NA,NA,NA,NA,NA,NA,NA,NA,NA,NA,NA,NA,NA,NA,NA,NA
2fd2f,block,flow.Loop,3_0_1_0,NA,NA,completion,94892.135,348149.5,348118.334,348135.194,443027.329,443029.20000005,2023-11-30T09:40:09Z,443044.208,NULL,NA,NA,NA,NA,NA,NA,NA,sdfdsf,NA,1,NA,NA,NA,NA,NA,NA,NA,NA,NA,NA,NA,NA,NA,NA,NA,NA,NA,NA,NA
2fd2f,weiter,canvas.Screen,3_0_1_1,sdf,keypress(Space),response,997.39200002386,443029.39999998,443027.329,443044.208,444041.60000002,444042.5,2023-11-30T09:40:10Z,444059.917,NULL,NA,NA,NA,NA,NA,NA,NA,sdfdsf,NA,1,NA,NA,NA,NA,NA,NA,NA,NA,NA,NA,NA,NA,NA,NA,NA,NA,NA,NA,NA
2fd2f,check continue,flow.Sequence,3_0_1,NA,NA,completion,95906.406000024,348149.5,348118.334,348135.194,444041.60000002,444042.89999998,2023-11-30T09:40:10Z,444059.917,NULL,NA,NA,NA,NA,NA,NA,NA,sdfdsf,NA,1,NA,NA,NA,NA,NA,NA,NA,NA,NA,NA,NA,NA,NA,NA,NA,NA,NA,NA,NA
2fd2f,deep,flow.Sequence,3_0_2_0_0_0,NA,NA,skipped,NA,444064.30000007,NA,NA,444041.60000002,444064.39999998,2023-11-30T09:40:10Z,444059.917,NULL,Kontrolle,kudhibiti,s,mbinguni,kufunga,utegemezi,NA,sdf,NA,2,NA,NA,NA,NA,NA,NA,NA,NA,NA,NA,NA,NA,NA,NA,NA,NA,NA,NA,NA
2fd2f,Shallow Question,html.Page,3_0_2_0_0_1_0,NA,NA,form submission,10625.683000024,444064.5,444026.047,444059.917,454685.60000002,454685.80000007,2023-11-30T09:40:21Z,454686.771,NULL,Kontrolle,kudhibiti,s,mbinguni,kufunga,utegemezi,kudhibiti,NA,NA,2,NA,NA,NA,NA,NA,NA,NA,NA,NA,NA,NA,NA,NA,NA,NA,NA,NA,NA,NA
2fd2f,"""Richtig""-Screen",canvas.Screen,3_0_2_0_0_1_1,NA,NA,timeout,4997.451,454689.20000005,454670.223,454686.771,459667.364,459668.39999998,2023-11-30T09:40:26Z,459684.222,NULL,Kontrolle,kudhibiti,s,mbinguni,kufunga,utegemezi,NA,sdf,1,2,NA,NA,NA,NA,NA,NA,NA,NA,NA,NA,NA,NA,NA,NA,NA,NA,NA,NA,NA
2fd2f,"""Falsch""-Screen",canvas.Screen,3_0_2_0_0_1_2,NA,NA,skipped,NA,459673.20000005,NA,NA,459667.364,459673.20000005,2023-11-30T09:40:26Z,459684.222,NULL,Kontrolle,kudhibiti,s,mbinguni,kufunga,utegemezi,NA,sdf,NA,2,NA,NA,NA,NA,NA,NA,NA,NA,NA,NA,NA,NA,NA,NA,NA,NA,NA,NA,NA
2fd2f,shallow,flow.Sequence,3_0_2_0_0_1,NA,NA,completion,15607.447,444064.5,444026.047,444059.917,459667.364,459673.39999998,2023-11-30T09:40:26Z,459684.222,NULL,Kontrolle,kudhibiti,s,mbinguni,kufunga,utegemezi,NA,sdf,NA,2,NA,NA,NA,NA,NA,NA,NA,NA,NA,NA,NA,NA,NA,NA,NA,NA,NA,NA,NA
2fd2f,task,flow.Sequence,3_0_2_0_0,NA,NA,completion,15607.447,444064.20000005,444026.047,444059.917,459667.364,459673.39999998,2023-11-30T09:40:26Z,459684.222,NULL,Kontrolle,kudhibiti,s,mbinguni,kufunga,utegemezi,NA,sdf,NA,2,NA,NA,NA,NA,NA,NA,NA,NA,NA,NA,NA,NA,NA,NA,NA,NA,NA,NA,NA
2fd2f,deep,flow.Sequence,3_0_2_0_1_0,NA,NA,skipped,NA,459673.5,NA,NA,459667.364,459673.5,2023-11-30T09:40:26Z,459684.222,NULL,Betrüger,mdanganyifu,s,mwanamuziki,wastani,mahakama,NA,sdf,NA,2,NA,NA,NA,NA,NA,NA,NA,NA,NA,NA,NA,NA,NA,NA,NA,NA,NA,NA,NA
2fd2f,Shallow Question,html.Page,3_0_2_0_1_1_0,NA,NA,form submission,3822.778,459673.5,459667.364,459684.222,463507,463507.30000007,2023-11-30T09:40:30Z,463514.69,NULL,Betrüger,mdanganyifu,s,mwanamuziki,wastani,mahakama,mdanganyifu,NA,NA,2,NA,NA,NA,NA,NA,NA,NA,NA,NA,NA,NA,NA,NA,NA,NA,NA,NA,NA,NA
2fd2f,"""Richtig""-Screen",canvas.Screen,3_0_2_0_1_1_1,NA,NA,timeout,4997.475,463510.20000005,463497.896,463514.69,468495.249,468496.20000005,2023-11-30T09:40:35Z,468512.165,NULL,Betrüger,mdanganyifu,s,mwanamuziki,wastani,mahakama,NA,sdf,1,2,NA,NA,NA,NA,NA,NA,NA,NA,NA,NA,NA,NA,NA,NA,NA,NA,NA,NA,NA
2fd2f,"""Falsch""-Screen",canvas.Screen,3_0_2_0_1_1_2,NA,NA,skipped,NA,468501.5,NA,NA,468495.249,468501.60000002,2023-11-30T09:40:35Z,468512.165,NULL,Betrüger,mdanganyifu,s,mwanamuziki,wastani,mahakama,NA,sdf,NA,2,NA,NA,NA,NA,NA,NA,NA,NA,NA,NA,NA,NA,NA,NA,NA,NA,NA,NA,NA
2fd2f,shallow,flow.Sequence,3_0_2_0_1_1,NA,NA,completion,8811.027,459673.5,459667.364,459684.222,468495.249,468501.60000002,2023-11-30T09:40:35Z,468512.165,NULL,Betrüger,mdanganyifu,s,mwanamuziki,wastani,mahakama,NA,sdf,NA,2,NA,NA,NA,NA,NA,NA,NA,NA,NA,NA,NA,NA,NA,NA,NA,NA,NA,NA,NA
2fd2f,task,flow.Sequence,3_0_2_0_1,NA,NA,completion,8811.027,459673.5,459667.364,459684.222,468495.249,468501.70000005,2023-11-30T09:40:35Z,468512.165,NULL,Betrüger,mdanganyifu,s,mwanamuziki,wastani,mahakama,NA,sdf,NA,2,NA,NA,NA,NA,NA,NA,NA,NA,NA,NA,NA,NA,NA,NA,NA,NA,NA,NA,NA
2fd2f,Deep Question,html.Page,3_0_2_0_2_0_0,NA,NA,form submission,6977.6350000715,468501.80000007,468495.249,468512.165,475489.80000007,475490.10000002,2023-11-30T09:40:42Z,475490.689,NULL,Orientierung,urekebisho,d,NA,NA,NA,ude,NA,NA,2,NA,NA,NA,NA,NA,NA,NA,NA,NA,NA,NA,NA,NA,NA,NA,NA,NA,NA,NA
2fd2f,"""Richtig""-Screen",canvas.Screen,3_0_2_0_2_0_1,NA,NA,skipped,NA,475493.60000002,NA,NA,475489.80000007,475493.80000007,2023-11-30T09:40:42Z,475490.689,NULL,Orientierung,urekebisho,d,NA,NA,NA,NA,sdf,NA,2,NA,NA,NA,NA,NA,NA,NA,NA,NA,NA,NA,NA,NA,NA,NA,NA,NA,NA,NA
2fd2f,"""Falsch""-Screen",canvas.Screen,3_0_2_0_2_0_2,NA,NA,timeout,4997.461,475494.39999998,475474.687,475490.689,480471.47,480472.5,2023-11-30T09:40:46Z,480488.15,NULL,Orientierung,urekebisho,d,NA,NA,NA,NA,sdf,0,2,NA,NA,NA,NA,NA,NA,NA,NA,NA,NA,NA,NA,NA,NA,NA,NA,NA,NA,NA
2fd2f,deep,flow.Sequence,3_0_2_0_2_0,NA,NA,completion,11959.305,468501.70000005,468495.249,468512.165,480471.47,480472.80000007,2023-11-30T09:40:46Z,480488.15,NULL,Orientierung,urekebisho,d,NA,NA,NA,NA,sdf,NA,2,NA,NA,NA,NA,NA,NA,NA,NA,NA,NA,NA,NA,NA,NA,NA,NA,NA,NA,NA
2fd2f,shallow,flow.Sequence,3_0_2_0_2_1,NA,NA,skipped,NA,480473,NA,NA,480471.47,480473.20000005,2023-11-30T09:40:46Z,480488.15,NULL,Orientierung,urekebisho,d,NA,NA,NA,NA,sdf,NA,2,NA,NA,NA,NA,NA,NA,NA,NA,NA,NA,NA,NA,NA,NA,NA,NA,NA,NA,NA
2fd2f,task,flow.Sequence,3_0_2_0_2,NA,NA,completion,11959.305,468501.70000005,468495.249,468512.165,480471.47,480473.30000007,2023-11-30T09:40:46Z,480488.15,NULL,Orientierung,urekebisho,d,NA,NA,NA,NA,sdf,NA,2,NA,NA,NA,NA,NA,NA,NA,NA,NA,NA,NA,NA,NA,NA,NA,NA,NA,NA,NA
2fd2f,deep,flow.Sequence,3_0_2_0_3_0,NA,NA,skipped,NA,480473.5,NA,NA,480471.47,480473.70000005,2023-11-30T09:40:46Z,480488.15,NULL,Gefährdung,kuhatarisha,s,uchokozi,udhaifu,makorowezo,NA,sdf,NA,2,NA,NA,NA,NA,NA,NA,NA,NA,NA,NA,NA,NA,NA,NA,NA,NA,NA,NA,NA
2fd2f,Shallow Question,html.Page,3_0_2_0_3_1_0,NA,NA,form submission,16719.050000048,480473.80000007,480471.47,480488.15,497207.20000005,497207.5,2023-11-30T09:41:03Z,497210.787,NULL,Gefährdung,kuhatarisha,s,uchokozi,udhaifu,makorowezo,kuhatarisha,NA,NA,2,NA,NA,NA,NA,NA,NA,NA,NA,NA,NA,NA,NA,NA,NA,NA,NA,NA,NA,NA
2fd2f,"""Richtig""-Screen",canvas.Screen,3_0_2_0_3_1_1,NA,NA,timeout,4997.437,497210.60000002,497194.628,497210.787,502191.2,502192.20000005,2023-11-30T09:41:08Z,502208.224,NULL,Gefährdung,kuhatarisha,s,uchokozi,udhaifu,makorowezo,NA,sdf,1,2,NA,NA,NA,NA,NA,NA,NA,NA,NA,NA,NA,NA,NA,NA,NA,NA,NA,NA,NA
2fd2f,"""Falsch""-Screen",canvas.Screen,3_0_2_0_3_1_2,NA,NA,skipped,NA,502197.5,NA,NA,502191.2,502197.60000002,2023-11-30T09:41:08Z,502208.224,NULL,Gefährdung,kuhatarisha,s,uchokozi,udhaifu,makorowezo,NA,sdf,NA,2,NA,NA,NA,NA,NA,NA,NA,NA,NA,NA,NA,NA,NA,NA,NA,NA,NA,NA,NA
2fd2f,shallow,flow.Sequence,3_0_2_0_3_1,NA,NA,completion,21703.05,480473.80000007,480471.47,480488.15,502191.2,502197.70000005,2023-11-30T09:41:08Z,502208.224,NULL,Gefährdung,kuhatarisha,s,uchokozi,udhaifu,makorowezo,NA,sdf,NA,2,NA,NA,NA,NA,NA,NA,NA,NA,NA,NA,NA,NA,NA,NA,NA,NA,NA,NA,NA
2fd2f,task,flow.Sequence,3_0_2_0_3,NA,NA,completion,21703.05,480473.5,480471.47,480488.15,502191.2,502197.80000007,2023-11-30T09:41:08Z,502208.224,NULL,Gefährdung,kuhatarisha,s,uchokozi,udhaifu,makorowezo,NA,sdf,NA,2,NA,NA,NA,NA,NA,NA,NA,NA,NA,NA,NA,NA,NA,NA,NA,NA,NA,NA,NA
2fd2f,Deep Question,html.Page,3_0_2_0_4_0_0,NA,NA,form submission,6135.3760000239,502197.80000007,502191.2,502208.224,508343.60000002,508343.80000007,2023-11-30T09:41:14Z,508353.945,NULL,Respekt,heshima,d,NA,NA,NA,usu,NA,NA,2,NA,NA,NA,NA,NA,NA,NA,NA,NA,NA,NA,NA,NA,NA,NA,NA,NA,NA,NA
2fd2f,"""Richtig""-Screen",canvas.Screen,3_0_2_0_4_0_1,NA,NA,skipped,NA,508346.89999998,NA,NA,508343.60000002,508347,2023-11-30T09:41:14Z,508353.945,NULL,Respekt,heshima,d,NA,NA,NA,NA,sdf,NA,2,NA,NA,NA,NA,NA,NA,NA,NA,NA,NA,NA,NA,NA,NA,NA,NA,NA,NA,NA
2fd2f,"""Falsch""-Screen",canvas.Screen,3_0_2_0_4_0_2,NA,NA,timeout,4996.974,508347.80000007,508337.9,508353.945,513334.289,513335.60000002,2023-11-30T09:41:19Z,513350.919,NULL,Respekt,heshima,d,NA,NA,NA,NA,sdf,0,2,NA,NA,NA,NA,NA,NA,NA,NA,NA,NA,NA,NA,NA,NA,NA,NA,NA,NA,NA
2fd2f,deep,flow.Sequence,3_0_2_0_4_0,NA,NA,completion,11126.065,502197.80000007,502191.2,502208.224,513334.289,513335.89999998,2023-11-30T09:41:19Z,513350.919,NULL,Respekt,heshima,d,NA,NA,NA,NA,sdf,NA,2,NA,NA,NA,NA,NA,NA,NA,NA,NA,NA,NA,NA,NA,NA,NA,NA,NA,NA,NA
2fd2f,shallow,flow.Sequence,3_0_2_0_4_1,NA,NA,skipped,NA,513336.10000002,NA,NA,513334.289,513336.20000005,2023-11-30T09:41:19Z,513350.919,NULL,Respekt,heshima,d,NA,NA,NA,NA,sdf,NA,2,NA,NA,NA,NA,NA,NA,NA,NA,NA,NA,NA,NA,NA,NA,NA,NA,NA,NA,NA
2fd2f,task,flow.Sequence,3_0_2_0_4,NA,NA,completion,11126.065,502197.80000007,502191.2,502208.224,513334.289,513336.5,2023-11-30T09:41:19Z,513350.919,NULL,Respekt,heshima,d,NA,NA,NA,NA,sdf,NA,2,NA,NA,NA,NA,NA,NA,NA,NA,NA,NA,NA,NA,NA,NA,NA,NA,NA,NA,NA
2fd2f,deep,flow.Sequence,3_0_2_0_5_0,NA,NA,skipped,NA,513336.60000002,NA,NA,513334.289,513336.70000005,2023-11-30T09:41:19Z,513350.919,NULL,Stimmung,kinyongo,s,kilekile,kisambo,madhehebu,NA,sdf,NA,2,NA,NA,NA,NA,NA,NA,NA,NA,NA,NA,NA,NA,NA,NA,NA,NA,NA,NA,NA
2fd2f,Shallow Question,html.Page,3_0_2_0_5_1_0,NA,NA,form submission,6222.8810000715,513336.89999998,513334.289,513350.919,519573.80000007,519574,2023-11-30T09:41:26Z,519580.416,NULL,Stimmung,kinyongo,s,kilekile,kisambo,madhehebu,kinyongo,NA,NA,2,NA,NA,NA,NA,NA,NA,NA,NA,NA,NA,NA,NA,NA,NA,NA,NA,NA,NA,NA
2fd2f,"""Richtig""-Screen",canvas.Screen,3_0_2_0_5_1_1,NA,NA,timeout,4997.437,519577.10000002,519563.999,519580.416,524561.251,524562.20000005,2023-11-30T09:41:31Z,524577.853,NULL,Stimmung,kinyongo,s,kilekile,kisambo,madhehebu,NA,sdf,1,2,NA,NA,NA,NA,NA,NA,NA,NA,NA,NA,NA,NA,NA,NA,NA,NA,NA,NA,NA
2fd2f,"""Falsch""-Screen",canvas.Screen,3_0_2_0_5_1_2,NA,NA,skipped,NA,524567.5,NA,NA,524561.251,524567.60000002,2023-11-30T09:41:31Z,524577.853,NULL,Stimmung,kinyongo,s,kilekile,kisambo,madhehebu,NA,sdf,NA,2,NA,NA,NA,NA,NA,NA,NA,NA,NA,NA,NA,NA,NA,NA,NA,NA,NA,NA,NA
2fd2f,shallow,flow.Sequence,3_0_2_0_5_1,NA,NA,completion,11210.332,513336.89999998,513334.289,513350.919,524561.251,524567.70000005,2023-11-30T09:41:31Z,524577.853,NULL,Stimmung,kinyongo,s,kilekile,kisambo,madhehebu,NA,sdf,NA,2,NA,NA,NA,NA,NA,NA,NA,NA,NA,NA,NA,NA,NA,NA,NA,NA,NA,NA,NA
2fd2f,task,flow.Sequence,3_0_2_0_5,NA,NA,completion,11210.332,513336.60000002,513334.289,513350.919,524561.251,524567.70000005,2023-11-30T09:41:31Z,524577.853,NULL,Stimmung,kinyongo,s,kilekile,kisambo,madhehebu,NA,sdf,NA,2,NA,NA,NA,NA,NA,NA,NA,NA,NA,NA,NA,NA,NA,NA,NA,NA,NA,NA,NA
2fd2f,Deep Question,html.Page,3_0_2_0_6_0_0,NA,NA,form submission,5772.3470000477,524567.80000007,524561.251,524577.853,530350.20000005,530350.39999998,2023-11-30T09:41:36Z,530357.124,NULL,Kreativität,ubunifu,d,NA,NA,NA,usefindo,NA,NA,2,NA,NA,NA,NA,NA,NA,NA,NA,NA,NA,NA,NA,NA,NA,NA,NA,NA,NA,NA
2fd2f,"""Richtig""-Screen",canvas.Screen,3_0_2_0_6_0_1,NA,NA,skipped,NA,530353.39999998,NA,NA,530350.20000005,530353.5,2023-11-30T09:41:36Z,530357.124,NULL,Kreativität,ubunifu,d,NA,NA,NA,NA,sdf,NA,2,NA,NA,NA,NA,NA,NA,NA,NA,NA,NA,NA,NA,NA,NA,NA,NA,NA,NA,NA
2fd2f,"""Falsch""-Screen",canvas.Screen,3_0_2_0_6_0_2,NA,NA,timeout,4997.5750000001,530354.39999998,530340.97,530357.124,535337.852,535338.80000007,2023-11-30T09:41:41Z,535354.699,NULL,Kreativität,ubunifu,d,NA,NA,NA,NA,sdf,0,2,NA,NA,NA,NA,NA,NA,NA,NA,NA,NA,NA,NA,NA,NA,NA,NA,NA,NA,NA
2fd2f,deep,flow.Sequence,3_0_2_0_6_0,NA,NA,completion,10759.999,524567.80000007,524561.251,524577.853,535337.852,535339.20000005,2023-11-30T09:41:41Z,535354.699,NULL,Kreativität,ubunifu,d,NA,NA,NA,NA,sdf,NA,2,NA,NA,NA,NA,NA,NA,NA,NA,NA,NA,NA,NA,NA,NA,NA,NA,NA,NA,NA
2fd2f,shallow,flow.Sequence,3_0_2_0_6_1,NA,NA,skipped,NA,535339.30000007,NA,NA,535337.852,535339.5,2023-11-30T09:41:41Z,535354.699,NULL,Kreativität,ubunifu,d,NA,NA,NA,NA,sdf,NA,2,NA,NA,NA,NA,NA,NA,NA,NA,NA,NA,NA,NA,NA,NA,NA,NA,NA,NA,NA
2fd2f,task,flow.Sequence,3_0_2_0_6,NA,NA,completion,10759.999,524567.80000007,524561.251,524577.853,535337.852,535339.70000005,2023-11-30T09:41:41Z,535354.699,NULL,Kreativität,ubunifu,d,NA,NA,NA,NA,sdf,NA,2,NA,NA,NA,NA,NA,NA,NA,NA,NA,NA,NA,NA,NA,NA,NA,NA,NA,NA,NA
2fd2f,Deep Question,html.Page,3_0_2_0_7_0_0,NA,NA,form submission,4262.9010000238,535340,535337.852,535354.699,539617.60000002,539617.89999998,2023-11-30T09:41:46Z,539618.198,NULL,Können,unaweza,d,NA,NA,NA,kd,NA,NA,2,NA,NA,NA,NA,NA,NA,NA,NA,NA,NA,NA,NA,NA,NA,NA,NA,NA,NA,NA
2fd2f,"""Richtig""-Screen",canvas.Screen,3_0_2_0_7_0_1,NA,NA,skipped,NA,539621.70000005,NA,NA,539617.60000002,539621.80000007,2023-11-30T09:41:46Z,539618.198,NULL,Können,unaweza,d,NA,NA,NA,NA,sdf,NA,2,NA,NA,NA,NA,NA,NA,NA,NA,NA,NA,NA,NA,NA,NA,NA,NA,NA,NA,NA
2fd2f,"""Falsch""-Screen",canvas.Screen,3_0_2_0_7_0_2,NA,NA,timeout,4996.912,539622.39999998,539601.771,539618.198,544598.946,544599.89999998,2023-11-30T09:41:51Z,544615.11,NULL,Können,unaweza,d,NA,NA,NA,NA,sdf,0,2,NA,NA,NA,NA,NA,NA,NA,NA,NA,NA,NA,NA,NA,NA,NA,NA,NA,NA,NA
2fd2f,deep,flow.Sequence,3_0_2_0_7_0,NA,NA,completion,9244.247,535339.89999998,535337.852,535354.699,544598.946,544600.30000007,2023-11-30T09:41:51Z,544615.11,NULL,Können,unaweza,d,NA,NA,NA,NA,sdf,NA,2,NA,NA,NA,NA,NA,NA,NA,NA,NA,NA,NA,NA,NA,NA,NA,NA,NA,NA,NA
2fd2f,shallow,flow.Sequence,3_0_2_0_7_1,NA,NA,skipped,NA,544600.5,NA,NA,544598.946,544600.60000002,2023-11-30T09:41:51Z,544615.11,NULL,Können,unaweza,d,NA,NA,NA,NA,sdf,NA,2,NA,NA,NA,NA,NA,NA,NA,NA,NA,NA,NA,NA,NA,NA,NA,NA,NA,NA,NA
2fd2f,task,flow.Sequence,3_0_2_0_7,NA,NA,completion,9244.247,535339.89999998,535337.852,535354.699,544598.946,544600.89999998,2023-11-30T09:41:51Z,544615.11,NULL,Können,unaweza,d,NA,NA,NA,NA,sdf,NA,2,NA,NA,NA,NA,NA,NA,NA,NA,NA,NA,NA,NA,NA,NA,NA,NA,NA,NA,NA
2fd2f,block,flow.Loop,3_0_2_0,NA,NA,completion,100539.029,444064.20000005,444026.047,444059.917,544598.946,544601.10000002,2023-11-30T09:41:51Z,544615.11,NULL,NA,NA,NA,NA,NA,NA,NA,sdf,NA,2,NA,NA,NA,NA,NA,NA,NA,NA,NA,NA,NA,NA,NA,NA,NA,NA,NA,NA,NA
2fd2f,weiter,canvas.Screen,3_0_2_1,sdf,keypress(Space),response,876.19000007154,544601.30000007,544598.946,544615.11,545491.30000007,545492.10000002,2023-11-30T09:41:52Z,545531.268,NULL,NA,NA,NA,NA,NA,NA,NA,sdf,NA,2,NA,NA,NA,NA,NA,NA,NA,NA,NA,NA,NA,NA,NA,NA,NA,NA,NA,NA,NA
2fd2f,check continue,flow.Sequence,3_0_2,NA,NA,completion,101431.38300007,444064.20000005,444026.047,444059.917,545491.30000007,545492.30000007,2023-11-30T09:41:52Z,545531.268,NULL,NA,NA,NA,NA,NA,NA,NA,sdf,NA,2,NA,NA,NA,NA,NA,NA,NA,NA,NA,NA,NA,NA,NA,NA,NA,NA,NA,NA,NA
2fd2f,deep,flow.Sequence,3_0_3_0_0_0,NA,NA,skipped,NA,545536.60000002,NA,NA,545491.30000007,545536.70000005,2023-11-30T09:41:52Z,545531.268,NULL,Betrüger,mdanganyifu,s,mwanamuziki,wastani,mahakama,NA,qt,NA,3,NA,NA,NA,NA,NA,NA,NA,NA,NA,NA,NA,NA,NA,NA,NA,NA,NA,NA,NA
2fd2f,Shallow Question,html.Page,3_0_3_0_0_1_0,NA,NA,form submission,3758.6319999761,545536.80000007,545481.389,545531.268,549289.89999998,549290.10000002,2023-11-30T09:41:55Z,549295.596,NULL,Betrüger,mdanganyifu,s,mwanamuziki,wastani,mahakama,mdanganyifu,NA,NA,3,NA,NA,NA,NA,NA,NA,NA,NA,NA,NA,NA,NA,NA,NA,NA,NA,NA,NA,NA
2fd2f,"""Richtig""-Screen",canvas.Screen,3_0_3_0_0_1_1,NA,NA,timeout,4997.4129999999,549293.20000005,549279.347,549295.596,554276.19,554277.30000007,2023-11-30T09:42:00Z,554293.009,NULL,Betrüger,mdanganyifu,s,mwanamuziki,wastani,mahakama,NA,qt,1,3,NA,NA,NA,NA,NA,NA,NA,NA,NA,NA,NA,NA,NA,NA,NA,NA,NA,NA,NA
2fd2f,"""Falsch""-Screen",canvas.Screen,3_0_3_0_0_1_2,NA,NA,skipped,NA,554282.20000005,NA,NA,554276.19,554282.30000007,2023-11-30T09:42:00Z,554293.009,NULL,Betrüger,mdanganyifu,s,mwanamuziki,wastani,mahakama,NA,qt,NA,3,NA,NA,NA,NA,NA,NA,NA,NA,NA,NA,NA,NA,NA,NA,NA,NA,NA,NA,NA
2fd2f,shallow,flow.Sequence,3_0_3_0_0_1,NA,NA,completion,8744.9219999999,545536.70000005,545481.389,545531.268,554276.19,554282.39999998,2023-11-30T09:42:00Z,554293.009,NULL,Betrüger,mdanganyifu,s,mwanamuziki,wastani,mahakama,NA,qt,NA,3,NA,NA,NA,NA,NA,NA,NA,NA,NA,NA,NA,NA,NA,NA,NA,NA,NA,NA,NA
2fd2f,task,flow.Sequence,3_0_3_0_0,NA,NA,completion,8744.9219999999,545536.60000002,545481.389,545531.268,554276.19,554282.5,2023-11-30T09:42:00Z,554293.009,NULL,Betrüger,mdanganyifu,s,mwanamuziki,wastani,mahakama,NA,qt,NA,3,NA,NA,NA,NA,NA,NA,NA,NA,NA,NA,NA,NA,NA,NA,NA,NA,NA,NA,NA
2fd2f,deep,flow.Sequence,3_0_3_0_1_0,NA,NA,skipped,NA,554282.60000002,NA,NA,554276.19,554282.60000002,2023-11-30T09:42:00Z,554293.009,NULL,Gefährdung,kuhatarisha,s,uchokozi,udhaifu,makorowezo,NA,qt,NA,3,NA,NA,NA,NA,NA,NA,NA,NA,NA,NA,NA,NA,NA,NA,NA,NA,NA,NA,NA
2fd2f,Shallow Question,html.Page,3_0_3_0_1_1_0,NA,NA,form submission,6306.3909999762,554282.70000005,554276.19,554293.009,560599.39999998,560599.70000005,2023-11-30T09:42:07Z,560605.338,NULL,Gefährdung,kuhatarisha,s,uchokozi,udhaifu,makorowezo,kuhatarisha,NA,NA,3,NA,NA,NA,NA,NA,NA,NA,NA,NA,NA,NA,NA,NA,NA,NA,NA,NA,NA,NA
2fd2f,"""Richtig""-Screen",canvas.Screen,3_0_3_0_1_1_1,NA,NA,timeout,4997.371,560602.70000005,560589.062,560605.338,565585.941,565586.89999998,2023-11-30T09:42:12Z,565602.709,NULL,Gefährdung,kuhatarisha,s,uchokozi,udhaifu,makorowezo,NA,qt,1,3,NA,NA,NA,NA,NA,NA,NA,NA,NA,NA,NA,NA,NA,NA,NA,NA,NA,NA,NA
2fd2f,"""Falsch""-Screen",canvas.Screen,3_0_3_0_1_1_2,NA,NA,skipped,NA,565592.30000007,NA,NA,565585.941,565592.30000007,2023-11-30T09:42:12Z,565602.709,NULL,Gefährdung,kuhatarisha,s,uchokozi,udhaifu,makorowezo,NA,qt,NA,3,NA,NA,NA,NA,NA,NA,NA,NA,NA,NA,NA,NA,NA,NA,NA,NA,NA,NA,NA
2fd2f,shallow,flow.Sequence,3_0_3_0_1_1,NA,NA,completion,11292.932,554282.60000002,554276.19,554293.009,565585.941,565592.39999998,2023-11-30T09:42:12Z,565602.709,NULL,Gefährdung,kuhatarisha,s,uchokozi,udhaifu,makorowezo,NA,qt,NA,3,NA,NA,NA,NA,NA,NA,NA,NA,NA,NA,NA,NA,NA,NA,NA,NA,NA,NA,NA
2fd2f,task,flow.Sequence,3_0_3_0_1,NA,NA,completion,11292.932,554282.60000002,554276.19,554293.009,565585.941,565592.5,2023-11-30T09:42:12Z,565602.709,NULL,Gefährdung,kuhatarisha,s,uchokozi,udhaifu,makorowezo,NA,qt,NA,3,NA,NA,NA,NA,NA,NA,NA,NA,NA,NA,NA,NA,NA,NA,NA,NA,NA,NA,NA
2fd2f,Deep Question,html.Page,3_0_3_0_2_0_0,NA,NA,form submission,5714.6909999761,565592.60000002,565585.941,565602.709,571317.39999998,571317.60000002,2023-11-30T09:42:17Z,571332.639,NULL,Können,unaweza,d,NA,NA,NA,unaweza,NA,NA,3,NA,NA,NA,NA,NA,NA,NA,NA,NA,NA,NA,NA,NA,NA,NA,NA,NA,NA,NA
2fd2f,"""Richtig""-Screen",canvas.Screen,3_0_3_0_2_0_1,NA,NA,timeout,4996.508,571320.60000002,571316.128,571332.639,576312.924,576313.89999998,2023-11-30T09:42:22Z,576329.147,NULL,Können,unaweza,d,NA,NA,NA,NA,qt,1,3,NA,NA,NA,NA,NA,NA,NA,NA,NA,NA,NA,NA,NA,NA,NA,NA,NA,NA,NA
2fd2f,"""Falsch""-Screen",canvas.Screen,3_0_3_0_2_0_2,NA,NA,skipped,NA,576323.70000005,NA,NA,576312.924,576323.89999998,2023-11-30T09:42:22Z,576329.147,NULL,Können,unaweza,d,NA,NA,NA,NA,qt,NA,3,NA,NA,NA,NA,NA,NA,NA,NA,NA,NA,NA,NA,NA,NA,NA,NA,NA,NA,NA
2fd2f,deep,flow.Sequence,3_0_3_0_2_0,NA,NA,completion,10710.215,565592.60000002,565585.941,565602.709,576312.924,576324,2023-11-30T09:42:22Z,576329.147,NULL,Können,unaweza,d,NA,NA,NA,NA,qt,NA,3,NA,NA,NA,NA,NA,NA,NA,NA,NA,NA,NA,NA,NA,NA,NA,NA,NA,NA,NA
2fd2f,shallow,flow.Sequence,3_0_3_0_2_1,NA,NA,skipped,NA,576324,NA,NA,576312.924,576324,2023-11-30T09:42:22Z,576329.147,NULL,Können,unaweza,d,NA,NA,NA,NA,qt,NA,3,NA,NA,NA,NA,NA,NA,NA,NA,NA,NA,NA,NA,NA,NA,NA,NA,NA,NA,NA
2fd2f,task,flow.Sequence,3_0_3_0_2,NA,NA,completion,10710.215,565592.60000002,565585.941,565602.709,576312.924,576324.10000002,2023-11-30T09:42:22Z,576329.147,NULL,Können,unaweza,d,NA,NA,NA,NA,qt,NA,3,NA,NA,NA,NA,NA,NA,NA,NA,NA,NA,NA,NA,NA,NA,NA,NA,NA,NA,NA
2fd2f,deep,flow.Sequence,3_0_3_0_3_0,NA,NA,skipped,NA,576324.20000005,NA,NA,576312.924,576324.20000005,2023-11-30T09:42:22Z,576329.147,NULL,Kontrolle,kudhibiti,s,mbinguni,kufunga,utegemezi,NA,qt,NA,3,NA,NA,NA,NA,NA,NA,NA,NA,NA,NA,NA,NA,NA,NA,NA,NA,NA,NA,NA
2fd2f,Shallow Question,html.Page,3_0_3_0_3_1_0,NA,NA,form submission,6712.6530000715,576324.20000005,576312.924,576329.147,583041.80000007,583042.20000005,2023-11-30T09:42:29Z,583059.988,NULL,Kontrolle,kudhibiti,s,mbinguni,kufunga,utegemezi,kudhibiti,NA,NA,3,NA,NA,NA,NA,NA,NA,NA,NA,NA,NA,NA,NA,NA,NA,NA,NA,NA,NA,NA
2fd2f,"""Richtig""-Screen",canvas.Screen,3_0_3_0_3_1_1,NA,NA,timeout,4995.6579999999,583045.10000002,583025.228,583059.988,588038.677,588039.70000005,2023-11-30T09:42:34Z,588055.646,NULL,Kontrolle,kudhibiti,s,mbinguni,kufunga,utegemezi,NA,qt,1,3,NA,NA,NA,NA,NA,NA,NA,NA,NA,NA,NA,NA,NA,NA,NA,NA,NA,NA,NA
2fd2f,"""Falsch""-Screen",canvas.Screen,3_0_3_0_3_1_2,NA,NA,skipped,NA,588044.80000007,NA,NA,588038.677,588044.89999998,2023-11-30T09:42:34Z,588055.646,NULL,Kontrolle,kudhibiti,s,mbinguni,kufunga,utegemezi,NA,qt,NA,3,NA,NA,NA,NA,NA,NA,NA,NA,NA,NA,NA,NA,NA,NA,NA,NA,NA,NA,NA
2fd2f,shallow,flow.Sequence,3_0_3_0_3_1,NA,NA,completion,11709.53,576324.20000005,576312.924,576329.147,588038.677,588045,2023-11-30T09:42:34Z,588055.646,NULL,Kontrolle,kudhibiti,s,mbinguni,kufunga,utegemezi,NA,qt,NA,3,NA,NA,NA,NA,NA,NA,NA,NA,NA,NA,NA,NA,NA,NA,NA,NA,NA,NA,NA
2fd2f,task,flow.Sequence,3_0_3_0_3,NA,NA,completion,11709.53,576324.20000005,576312.924,576329.147,588038.677,588045.10000002,2023-11-30T09:42:34Z,588055.646,NULL,Kontrolle,kudhibiti,s,mbinguni,kufunga,utegemezi,NA,qt,NA,3,NA,NA,NA,NA,NA,NA,NA,NA,NA,NA,NA,NA,NA,NA,NA,NA,NA,NA,NA
2fd2f,Deep Question,html.Page,3_0_3_0_4_0_0,NA,NA,form submission,5689.2539999762,588045.20000005,588038.677,588055.646,593744.89999998,593745.10000002,2023-11-30T09:42:40Z,593768.81,NULL,Kreativität,ubunifu,d,NA,NA,NA,usuinfo,NA,NA,3,NA,NA,NA,NA,NA,NA,NA,NA,NA,NA,NA,NA,NA,NA,NA,NA,NA,NA,NA
2fd2f,"""Richtig""-Screen",canvas.Screen,3_0_3_0_4_0_1,NA,NA,skipped,NA,593748.10000002,NA,NA,593744.89999998,593748.20000005,2023-11-30T09:42:40Z,593768.81,NULL,Kreativität,ubunifu,d,NA,NA,NA,NA,qt,NA,3,NA,NA,NA,NA,NA,NA,NA,NA,NA,NA,NA,NA,NA,NA,NA,NA,NA,NA,NA
2fd2f,"""Falsch""-Screen",canvas.Screen,3_0_3_0_4_0_2,NA,NA,timeout,4996.955,593749,593751.97,593768.81,598748.763,598749.60000002,2023-11-30T09:42:45Z,598765.765,NULL,Kreativität,ubunifu,d,NA,NA,NA,NA,qt,0,3,NA,NA,NA,NA,NA,NA,NA,NA,NA,NA,NA,NA,NA,NA,NA,NA,NA,NA,NA
2fd2f,deep,flow.Sequence,3_0_3_0_4_0,NA,NA,completion,10693.117,588045.20000005,588038.677,588055.646,598748.763,598750,2023-11-30T09:42:45Z,598765.765,NULL,Kreativität,ubunifu,d,NA,NA,NA,NA,qt,NA,3,NA,NA,NA,NA,NA,NA,NA,NA,NA,NA,NA,NA,NA,NA,NA,NA,NA,NA,NA
2fd2f,shallow,flow.Sequence,3_0_3_0_4_1,NA,NA,skipped,NA,598750.10000002,NA,NA,598748.763,598750.20000005,2023-11-30T09:42:45Z,598765.765,NULL,Kreativität,ubunifu,d,NA,NA,NA,NA,qt,NA,3,NA,NA,NA,NA,NA,NA,NA,NA,NA,NA,NA,NA,NA,NA,NA,NA,NA,NA,NA
2fd2f,task,flow.Sequence,3_0_3_0_4,NA,NA,completion,10693.117,588045.20000005,588038.677,588055.646,598748.763,598750.39999998,2023-11-30T09:42:45Z,598765.765,NULL,Kreativität,ubunifu,d,NA,NA,NA,NA,qt,NA,3,NA,NA,NA,NA,NA,NA,NA,NA,NA,NA,NA,NA,NA,NA,NA,NA,NA,NA,NA
2fd2f,deep,flow.Sequence,3_0_3_0_5_0,NA,NA,skipped,NA,598750.60000002,NA,NA,598748.763,598750.70000005,2023-11-30T09:42:45Z,598765.765,NULL,Stimmung,kinyongo,s,kilekile,kisambo,madhehebu,NA,qt,NA,3,NA,NA,NA,NA,NA,NA,NA,NA,NA,NA,NA,NA,NA,NA,NA,NA,NA,NA,NA
2fd2f,Shallow Question,html.Page,3_0_3_0_5_1_0,NA,NA,form submission,5787.9350000477,598750.89999998,598748.763,598765.765,604553.70000005,604553.89999998,2023-11-30T09:42:51Z,604561.817,NULL,Stimmung,kinyongo,s,kilekile,kisambo,madhehebu,kinyongo,NA,NA,3,NA,NA,NA,NA,NA,NA,NA,NA,NA,NA,NA,NA,NA,NA,NA,NA,NA,NA,NA
2fd2f,"""Richtig""-Screen",canvas.Screen,3_0_3_0_5_1_1,NA,NA,timeout,4996.977,604557.20000005,604545.47,604561.817,609542.652,609543.60000002,2023-11-30T09:42:56Z,609558.794,NULL,Stimmung,kinyongo,s,kilekile,kisambo,madhehebu,NA,qt,1,3,NA,NA,NA,NA,NA,NA,NA,NA,NA,NA,NA,NA,NA,NA,NA,NA,NA,NA,NA
2fd2f,"""Falsch""-Screen",canvas.Screen,3_0_3_0_5_1_2,NA,NA,skipped,NA,609548.30000007,NA,NA,609542.652,609548.5,2023-11-30T09:42:56Z,609558.794,NULL,Stimmung,kinyongo,s,kilekile,kisambo,madhehebu,NA,qt,NA,3,NA,NA,NA,NA,NA,NA,NA,NA,NA,NA,NA,NA,NA,NA,NA,NA,NA,NA,NA
2fd2f,shallow,flow.Sequence,3_0_3_0_5_1,NA,NA,completion,10776.887,598750.80000007,598748.763,598765.765,609542.652,609548.80000007,2023-11-30T09:42:56Z,609558.794,NULL,Stimmung,kinyongo,s,kilekile,kisambo,madhehebu,NA,qt,NA,3,NA,NA,NA,NA,NA,NA,NA,NA,NA,NA,NA,NA,NA,NA,NA,NA,NA,NA,NA
2fd2f,task,flow.Sequence,3_0_3_0_5,NA,NA,completion,10776.887,598750.60000002,598748.763,598765.765,609542.652,609548.89999998,2023-11-30T09:42:56Z,609558.794,NULL,Stimmung,kinyongo,s,kilekile,kisambo,madhehebu,NA,qt,NA,3,NA,NA,NA,NA,NA,NA,NA,NA,NA,NA,NA,NA,NA,NA,NA,NA,NA,NA,NA
2fd2f,Deep Question,html.Page,3_0_3_0_6_0_0,NA,NA,form submission,2947.5060000715,609549,609542.652,609558.794,612506.30000007,612506.60000002,2023-11-30T09:42:59Z,612506.961,NULL,Respekt,heshima,d,NA,NA,NA,f,NA,NA,3,NA,NA,NA,NA,NA,NA,NA,NA,NA,NA,NA,NA,NA,NA,NA,NA,NA,NA,NA
2fd2f,"""Richtig""-Screen",canvas.Screen,3_0_3_0_6_0_1,NA,NA,skipped,NA,612507.70000005,NA,NA,612506.30000007,612507.89999998,2023-11-30T09:42:59Z,612506.961,NULL,Respekt,heshima,d,NA,NA,NA,NA,qt,NA,3,NA,NA,NA,NA,NA,NA,NA,NA,NA,NA,NA,NA,NA,NA,NA,NA,NA,NA,NA
2fd2f,"""Falsch""-Screen",canvas.Screen,3_0_3_0_6_0_2,NA,NA,timeout,4997.36,612508.89999998,612490.729,612506.961,617487.481,617488.60000002,2023-11-30T09:43:04Z,617504.321,NULL,Respekt,heshima,d,NA,NA,NA,NA,qt,0,3,NA,NA,NA,NA,NA,NA,NA,NA,NA,NA,NA,NA,NA,NA,NA,NA,NA,NA,NA
2fd2f,deep,flow.Sequence,3_0_3_0_6_0,NA,NA,completion,7928.687,609548.89999998,609542.652,609558.794,617487.481,617489,2023-11-30T09:43:04Z,617504.321,NULL,Respekt,heshima,d,NA,NA,NA,NA,qt,NA,3,NA,NA,NA,NA,NA,NA,NA,NA,NA,NA,NA,NA,NA,NA,NA,NA,NA,NA,NA
2fd2f,shallow,flow.Sequence,3_0_3_0_6_1,NA,NA,skipped,NA,617489.30000007,NA,NA,617487.481,617489.39999998,2023-11-30T09:43:04Z,617504.321,NULL,Respekt,heshima,d,NA,NA,NA,NA,qt,NA,3,NA,NA,NA,NA,NA,NA,NA,NA,NA,NA,NA,NA,NA,NA,NA,NA,NA,NA,NA
2fd2f,task,flow.Sequence,3_0_3_0_6,NA,NA,completion,7928.687,609548.89999998,609542.652,609558.794,617487.481,617489.60000002,2023-11-30T09:43:04Z,617504.321,NULL,Respekt,heshima,d,NA,NA,NA,NA,qt,NA,3,NA,NA,NA,NA,NA,NA,NA,NA,NA,NA,NA,NA,NA,NA,NA,NA,NA,NA,NA
2fd2f,Deep Question,html.Page,3_0_3_0_7_0_0,NA,NA,form submission,6209.3790000477,617489.89999998,617487.481,617504.321,623713.70000005,623713.89999998,2023-11-30T09:43:10Z,623716.829,NULL,Orientierung,urekebisho,d,NA,NA,NA,urekebishio,NA,NA,3,NA,NA,NA,NA,NA,NA,NA,NA,NA,NA,NA,NA,NA,NA,NA,NA,NA,NA,NA
2fd2f,"""Richtig""-Screen",canvas.Screen,3_0_3_0_7_0_1,NA,NA,skipped,NA,623717.30000007,NA,NA,623713.70000005,623717.39999998,2023-11-30T09:43:10Z,623716.829,NULL,Orientierung,urekebisho,d,NA,NA,NA,NA,qt,NA,3,NA,NA,NA,NA,NA,NA,NA,NA,NA,NA,NA,NA,NA,NA,NA,NA,NA,NA,NA
2fd2f,"""Falsch""-Screen",canvas.Screen,3_0_3_0_7_0_2,NA,NA,timeout,4997.306,623718.39999998,623700.758,623716.829,628697.38,628698.39999998,2023-11-30T09:43:15Z,628714.135,NULL,Orientierung,urekebisho,d,NA,NA,NA,NA,qt,0,3,NA,NA,NA,NA,NA,NA,NA,NA,NA,NA,NA,NA,NA,NA,NA,NA,NA,NA,NA
2fd2f,deep,flow.Sequence,3_0_3_0_7_0,NA,NA,completion,11193.059,617489.80000007,617487.481,617504.321,628697.38,628698.80000007,2023-11-30T09:43:15Z,628714.135,NULL,Orientierung,urekebisho,d,NA,NA,NA,NA,qt,NA,3,NA,NA,NA,NA,NA,NA,NA,NA,NA,NA,NA,NA,NA,NA,NA,NA,NA,NA,NA
2fd2f,shallow,flow.Sequence,3_0_3_0_7_1,NA,NA,skipped,NA,628699,NA,NA,628697.38,628699.20000005,2023-11-30T09:43:15Z,628714.135,NULL,Orientierung,urekebisho,d,NA,NA,NA,NA,qt,NA,3,NA,NA,NA,NA,NA,NA,NA,NA,NA,NA,NA,NA,NA,NA,NA,NA,NA,NA,NA
2fd2f,task,flow.Sequence,3_0_3_0_7,NA,NA,completion,11193.059,617489.80000007,617487.481,617504.321,628697.38,628699.30000007,2023-11-30T09:43:15Z,628714.135,NULL,Orientierung,urekebisho,d,NA,NA,NA,NA,qt,NA,3,NA,NA,NA,NA,NA,NA,NA,NA,NA,NA,NA,NA,NA,NA,NA,NA,NA,NA,NA
2fd2f,block,flow.Loop,3_0_3_0,NA,NA,completion,83166.112,545536.60000002,545481.389,545531.268,628697.38,628699.60000002,2023-11-30T09:43:15Z,628714.135,NULL,NA,NA,NA,NA,NA,NA,NA,qt,NA,3,NA,NA,NA,NA,NA,NA,NA,NA,NA,NA,NA,NA,NA,NA,NA,NA,NA,NA,NA
2fd2f,weiter,canvas.Screen,3_0_3_1,sdf,keypress(Space),response,1280.6650000715,628699.70000005,628697.38,628714.135,629994.80000007,629995.80000007,2023-11-30T09:43:16Z,630013.996,NULL,NA,NA,NA,NA,NA,NA,NA,qt,NA,3,NA,NA,NA,NA,NA,NA,NA,NA,NA,NA,NA,NA,NA,NA,NA,NA,NA,NA,NA
2fd2f,check continue,flow.Sequence,3_0_3,NA,NA,completion,84463.532000071,545536.60000002,545481.389,545531.268,629994.80000007,629996.10000002,2023-11-30T09:43:16Z,630013.996,NULL,NA,NA,NA,NA,NA,NA,NA,qt,NA,3,NA,NA,NA,NA,NA,NA,NA,NA,NA,NA,NA,NA,NA,NA,NA,NA,NA,NA,NA
2fd2f,Deep Question,html.Page,3_0_4_0_0_0_0,NA,NA,form submission,6701.9039999761,630022.30000007,629980.029,630013.996,636715.89999998,636716.20000005,2023-11-30T09:43:23Z,636725.724,NULL,Respekt,heshima,d,NA,NA,NA,heshima,NA,NA,4,NA,NA,NA,NA,NA,NA,NA,NA,NA,NA,NA,NA,NA,NA,NA,NA,NA,NA,NA
2fd2f,"""Richtig""-Screen",canvas.Screen,3_0_4_0_0_0_1,NA,NA,timeout,4997.098,636720,636709.152,636725.724,641706.142,641707.20000005,2023-11-30T09:43:28Z,641722.822,NULL,Respekt,heshima,d,NA,NA,NA,NA,sd,1,4,NA,NA,NA,NA,NA,NA,NA,NA,NA,NA,NA,NA,NA,NA,NA,NA,NA,NA,NA
2fd2f,"""Falsch""-Screen",canvas.Screen,3_0_4_0_0_0_2,NA,NA,skipped,NA,641712.70000005,NA,NA,641706.142,641712.89999998,2023-11-30T09:43:28Z,641722.822,NULL,Respekt,heshima,d,NA,NA,NA,NA,sd,NA,4,NA,NA,NA,NA,NA,NA,NA,NA,NA,NA,NA,NA,NA,NA,NA,NA,NA,NA,NA
2fd2f,deep,flow.Sequence,3_0_4_0_0_0,NA,NA,completion,11692.146,630022.20000005,629980.029,630013.996,641706.142,641713,2023-11-30T09:43:28Z,641722.822,NULL,Respekt,heshima,d,NA,NA,NA,NA,sd,NA,4,NA,NA,NA,NA,NA,NA,NA,NA,NA,NA,NA,NA,NA,NA,NA,NA,NA,NA,NA
2fd2f,shallow,flow.Sequence,3_0_4_0_0_1,NA,NA,skipped,NA,641713,NA,NA,641706.142,641713,2023-11-30T09:43:28Z,641722.822,NULL,Respekt,heshima,d,NA,NA,NA,NA,sd,NA,4,NA,NA,NA,NA,NA,NA,NA,NA,NA,NA,NA,NA,NA,NA,NA,NA,NA,NA,NA
2fd2f,task,flow.Sequence,3_0_4_0_0,NA,NA,completion,11692.146,630022.20000005,629980.029,630013.996,641706.142,641713.10000002,2023-11-30T09:43:28Z,641722.822,NULL,Respekt,heshima,d,NA,NA,NA,NA,sd,NA,4,NA,NA,NA,NA,NA,NA,NA,NA,NA,NA,NA,NA,NA,NA,NA,NA,NA,NA,NA
2fd2f,deep,flow.Sequence,3_0_4_0_1_0,NA,NA,skipped,NA,641713.10000002,NA,NA,641706.142,641713.10000002,2023-11-30T09:43:28Z,641722.822,NULL,Stimmung,kinyongo,s,kilekile,kisambo,madhehebu,NA,sd,NA,4,NA,NA,NA,NA,NA,NA,NA,NA,NA,NA,NA,NA,NA,NA,NA,NA,NA,NA,NA
2fd2f,Shallow Question,html.Page,3_0_4_0_1_1_0,NA,NA,form submission,6031.4780000715,641713.10000002,641706.142,641722.822,647754.30000007,647754.60000002,2023-11-30T09:43:34Z,647785.445,NULL,Stimmung,kinyongo,s,kilekile,kisambo,madhehebu,kinyongo,NA,NA,4,NA,NA,NA,NA,NA,NA,NA,NA,NA,NA,NA,NA,NA,NA,NA,NA,NA,NA,NA
2fd2f,"""Richtig""-Screen",canvas.Screen,3_0_4_0_1_1_1,NA,NA,timeout,4997.3350000001,647757.60000002,647768.758,647785.445,652765.915,652766.89999998,2023-11-30T09:43:39Z,652782.78,NULL,Stimmung,kinyongo,s,kilekile,kisambo,madhehebu,NA,sd,1,4,NA,NA,NA,NA,NA,NA,NA,NA,NA,NA,NA,NA,NA,NA,NA,NA,NA,NA,NA
2fd2f,"""Falsch""-Screen",canvas.Screen,3_0_4_0_1_1_2,NA,NA,skipped,NA,652771.80000007,NA,NA,652765.915,652772,2023-11-30T09:43:39Z,652782.78,NULL,Stimmung,kinyongo,s,kilekile,kisambo,madhehebu,NA,sd,NA,4,NA,NA,NA,NA,NA,NA,NA,NA,NA,NA,NA,NA,NA,NA,NA,NA,NA,NA,NA
2fd2f,shallow,flow.Sequence,3_0_4_0_1_1,NA,NA,completion,11043.093,641713.10000002,641706.142,641722.822,652765.915,652772,2023-11-30T09:43:39Z,652782.78,NULL,Stimmung,kinyongo,s,kilekile,kisambo,madhehebu,NA,sd,NA,4,NA,NA,NA,NA,NA,NA,NA,NA,NA,NA,NA,NA,NA,NA,NA,NA,NA,NA,NA
2fd2f,task,flow.Sequence,3_0_4_0_1,NA,NA,completion,11043.093,641713.10000002,641706.142,641722.822,652765.915,652772.20000005,2023-11-30T09:43:39Z,652782.78,NULL,Stimmung,kinyongo,s,kilekile,kisambo,madhehebu,NA,sd,NA,4,NA,NA,NA,NA,NA,NA,NA,NA,NA,NA,NA,NA,NA,NA,NA,NA,NA,NA,NA
2fd2f,deep,flow.Sequence,3_0_4_0_2_0,NA,NA,skipped,NA,652772.20000005,NA,NA,652765.915,652772.20000005,2023-11-30T09:43:39Z,652782.78,NULL,Kontrolle,kudhibiti,s,mbinguni,kufunga,utegemezi,NA,sd,NA,4,NA,NA,NA,NA,NA,NA,NA,NA,NA,NA,NA,NA,NA,NA,NA,NA,NA,NA,NA
2fd2f,Shallow Question,html.Page,3_0_4_0_2_1_0,NA,NA,form submission,3821.8200000238,652772.20000005,652765.915,652782.78,656604.60000002,656604.89999998,2023-11-30T09:43:43Z,656630.327,NULL,Kontrolle,kudhibiti,s,mbinguni,kufunga,utegemezi,kudhibiti,NA,NA,4,NA,NA,NA,NA,NA,NA,NA,NA,NA,NA,NA,NA,NA,NA,NA,NA,NA,NA,NA
2fd2f,"""Richtig""-Screen",canvas.Screen,3_0_4_0_2_1_1,NA,NA,timeout,4996.6869999999,656607.89999998,656613.551,656630.327,661610.502,661611.80000007,2023-11-30T09:43:48Z,661627.014,NULL,Kontrolle,kudhibiti,s,mbinguni,kufunga,utegemezi,NA,sd,1,4,NA,NA,NA,NA,NA,NA,NA,NA,NA,NA,NA,NA,NA,NA,NA,NA,NA,NA,NA
2fd2f,"""Falsch""-Screen",canvas.Screen,3_0_4_0_2_1_2,NA,NA,skipped,NA,661617.39999998,NA,NA,661610.502,661617.70000005,2023-11-30T09:43:48Z,661627.014,NULL,Kontrolle,kudhibiti,s,mbinguni,kufunga,utegemezi,NA,sd,NA,4,NA,NA,NA,NA,NA,NA,NA,NA,NA,NA,NA,NA,NA,NA,NA,NA,NA,NA,NA
2fd2f,shallow,flow.Sequence,3_0_4_0_2_1,NA,NA,completion,8827.722,652772.20000005,652765.915,652782.78,661610.502,661618,2023-11-30T09:43:48Z,661627.014,NULL,Kontrolle,kudhibiti,s,mbinguni,kufunga,utegemezi,NA,sd,NA,4,NA,NA,NA,NA,NA,NA,NA,NA,NA,NA,NA,NA,NA,NA,NA,NA,NA,NA,NA
2fd2f,task,flow.Sequence,3_0_4_0_2,NA,NA,completion,8827.722,652772.20000005,652765.915,652782.78,661610.502,661618.20000005,2023-11-30T09:43:48Z,661627.014,NULL,Kontrolle,kudhibiti,s,mbinguni,kufunga,utegemezi,NA,sd,NA,4,NA,NA,NA,NA,NA,NA,NA,NA,NA,NA,NA,NA,NA,NA,NA,NA,NA,NA,NA
2fd2f,Deep Question,html.Page,3_0_4_0_3_0_0,NA,NA,form submission,5219.8859999762,661618.39999998,661610.502,661627.014,666846.89999998,666847.20000005,2023-11-30T09:43:53Z,666857.072,NULL,Kreativität,ubunifu,d,NA,NA,NA,ubunifo,NA,NA,4,NA,NA,NA,NA,NA,NA,NA,NA,NA,NA,NA,NA,NA,NA,NA,NA,NA,NA,NA
2fd2f,"""Richtig""-Screen",canvas.Screen,3_0_4_0_3_0_1,NA,NA,skipped,NA,666850.20000005,NA,NA,666846.89999998,666850.39999998,2023-11-30T09:43:53Z,666857.072,NULL,Kreativität,ubunifu,d,NA,NA,NA,NA,sd,NA,4,NA,NA,NA,NA,NA,NA,NA,NA,NA,NA,NA,NA,NA,NA,NA,NA,NA,NA,NA
2fd2f,"""Falsch""-Screen",canvas.Screen,3_0_4_0_3_0_2,NA,NA,timeout,4997.255,666851.20000005,666841.016,666857.072,671837.754,671838.80000007,2023-11-30T09:43:58Z,671854.327,NULL,Kreativität,ubunifu,d,NA,NA,NA,NA,sd,0,4,NA,NA,NA,NA,NA,NA,NA,NA,NA,NA,NA,NA,NA,NA,NA,NA,NA,NA,NA
2fd2f,deep,flow.Sequence,3_0_4_0_3_0,NA,NA,completion,10210.74,661618.39999998,661610.502,661627.014,671837.754,671839.30000007,2023-11-30T09:43:58Z,671854.327,NULL,Kreativität,ubunifu,d,NA,NA,NA,NA,sd,NA,4,NA,NA,NA,NA,NA,NA,NA,NA,NA,NA,NA,NA,NA,NA,NA,NA,NA,NA,NA
2fd2f,shallow,flow.Sequence,3_0_4_0_3_1,NA,NA,skipped,NA,671839.5,NA,NA,671837.754,671839.89999998,2023-11-30T09:43:58Z,671854.327,NULL,Kreativität,ubunifu,d,NA,NA,NA,NA,sd,NA,4,NA,NA,NA,NA,NA,NA,NA,NA,NA,NA,NA,NA,NA,NA,NA,NA,NA,NA,NA
2fd2f,task,flow.Sequence,3_0_4_0_3,NA,NA,completion,10210.74,661618.30000007,661610.502,661627.014,671837.754,671840.30000007,2023-11-30T09:43:58Z,671854.327,NULL,Kreativität,ubunifu,d,NA,NA,NA,NA,sd,NA,4,NA,NA,NA,NA,NA,NA,NA,NA,NA,NA,NA,NA,NA,NA,NA,NA,NA,NA,NA
2fd2f,Deep Question,html.Page,3_0_4_0_4_0_0,NA,NA,form submission,5698.7730000238,671840.70000005,671837.754,671854.327,677553.10000002,677553.5,2023-11-30T09:44:04Z,677567.69,NULL,Orientierung,urekebisho,d,NA,NA,NA,urekebisho,NA,NA,4,NA,NA,NA,NA,NA,NA,NA,NA,NA,NA,NA,NA,NA,NA,NA,NA,NA,NA,NA
2fd2f,"""Richtig""-Screen",canvas.Screen,3_0_4_0_4_0_1,NA,NA,timeout,4996.7640000001,677556.70000005,677550.985,677567.69,682547.722,682548.60000002,2023-11-30T09:44:09Z,682564.454,NULL,Orientierung,urekebisho,d,NA,NA,NA,NA,sd,1,4,NA,NA,NA,NA,NA,NA,NA,NA,NA,NA,NA,NA,NA,NA,NA,NA,NA,NA,NA
2fd2f,"""Falsch""-Screen",canvas.Screen,3_0_4_0_4_0_2,NA,NA,skipped,NA,682553.60000002,NA,NA,682547.722,682553.80000007,2023-11-30T09:44:09Z,682564.454,NULL,Orientierung,urekebisho,d,NA,NA,NA,NA,sd,NA,4,NA,NA,NA,NA,NA,NA,NA,NA,NA,NA,NA,NA,NA,NA,NA,NA,NA,NA,NA
2fd2f,deep,flow.Sequence,3_0_4_0_4_0,NA,NA,completion,10693.395,671840.60000002,671837.754,671854.327,682547.722,682553.89999998,2023-11-30T09:44:09Z,682564.454,NULL,Orientierung,urekebisho,d,NA,NA,NA,NA,sd,NA,4,NA,NA,NA,NA,NA,NA,NA,NA,NA,NA,NA,NA,NA,NA,NA,NA,NA,NA,NA
2fd2f,shallow,flow.Sequence,3_0_4_0_4_1,NA,NA,skipped,NA,682553.89999998,NA,NA,682547.722,682553.89999998,2023-11-30T09:44:09Z,682564.454,NULL,Orientierung,urekebisho,d,NA,NA,NA,NA,sd,NA,4,NA,NA,NA,NA,NA,NA,NA,NA,NA,NA,NA,NA,NA,NA,NA,NA,NA,NA,NA
2fd2f,task,flow.Sequence,3_0_4_0_4,NA,NA,completion,10693.395,671840.5,671837.754,671854.327,682547.722,682554.10000002,2023-11-30T09:44:09Z,682564.454,NULL,Orientierung,urekebisho,d,NA,NA,NA,NA,sd,NA,4,NA,NA,NA,NA,NA,NA,NA,NA,NA,NA,NA,NA,NA,NA,NA,NA,NA,NA,NA
2fd2f,Deep Question,html.Page,3_0_4_0_5_0_0,NA,NA,form submission,11868.646000024,682554.10000002,682547.722,682564.454,694433.10000002,694433.30000007,2023-11-30T09:44:20Z,694440.202,NULL,Können,unaweza,d,NA,NA,NA,wuzena,NA,NA,4,NA,NA,NA,NA,NA,NA,NA,NA,NA,NA,NA,NA,NA,NA,NA,NA,NA,NA,NA
2fd2f,"""Richtig""-Screen",canvas.Screen,3_0_4_0_5_0_1,NA,NA,skipped,NA,694437.10000002,NA,NA,694433.10000002,694437.30000007,2023-11-30T09:44:20Z,694440.202,NULL,Können,unaweza,d,NA,NA,NA,NA,sd,NA,4,NA,NA,NA,NA,NA,NA,NA,NA,NA,NA,NA,NA,NA,NA,NA,NA,NA,NA,NA
2fd2f,"""Falsch""-Screen",canvas.Screen,3_0_4_0_5_0_2,NA,NA,timeout,4997.5109999999,694438,694424.101,694440.202,699420.62,699421.39999998,2023-11-30T09:44:25Z,699437.713,NULL,Können,unaweza,d,NA,NA,NA,NA,sd,0,4,NA,NA,NA,NA,NA,NA,NA,NA,NA,NA,NA,NA,NA,NA,NA,NA,NA,NA,NA
2fd2f,deep,flow.Sequence,3_0_4_0_5_0,NA,NA,completion,16856.166,682554.10000002,682547.722,682564.454,699420.62,699421.80000007,2023-11-30T09:44:25Z,699437.713,NULL,Können,unaweza,d,NA,NA,NA,NA,sd,NA,4,NA,NA,NA,NA,NA,NA,NA,NA,NA,NA,NA,NA,NA,NA,NA,NA,NA,NA,NA
2fd2f,shallow,flow.Sequence,3_0_4_0_5_1,NA,NA,skipped,NA,699422,NA,NA,699420.62,699422.10000002,2023-11-30T09:44:25Z,699437.713,NULL,Können,unaweza,d,NA,NA,NA,NA,sd,NA,4,NA,NA,NA,NA,NA,NA,NA,NA,NA,NA,NA,NA,NA,NA,NA,NA,NA,NA,NA
2fd2f,task,flow.Sequence,3_0_4_0_5,NA,NA,completion,16856.166,682554.10000002,682547.722,682564.454,699420.62,699422.30000007,2023-11-30T09:44:25Z,699437.713,NULL,Können,unaweza,d,NA,NA,NA,NA,sd,NA,4,NA,NA,NA,NA,NA,NA,NA,NA,NA,NA,NA,NA,NA,NA,NA,NA,NA,NA,NA
2fd2f,deep,flow.Sequence,3_0_4_0_6_0,NA,NA,skipped,NA,699422.39999998,NA,NA,699420.62,699422.60000002,2023-11-30T09:44:25Z,699437.713,NULL,Gefährdung,kuhatarisha,s,uchokozi,udhaifu,makorowezo,NA,sd,NA,4,NA,NA,NA,NA,NA,NA,NA,NA,NA,NA,NA,NA,NA,NA,NA,NA,NA,NA,NA
2fd2f,Shallow Question,html.Page,3_0_4_0_6_1_0,NA,NA,form submission,3935.8870000239,699422.70000005,699420.62,699437.713,703373.60000002,703373.80000007,2023-11-30T09:44:29Z,703384.987,NULL,Gefährdung,kuhatarisha,s,uchokozi,udhaifu,makorowezo,kuhatarisha,NA,NA,4,NA,NA,NA,NA,NA,NA,NA,NA,NA,NA,NA,NA,NA,NA,NA,NA,NA,NA,NA
2fd2f,"""Richtig""-Screen",canvas.Screen,3_0_4_0_6_1_1,NA,NA,timeout,4997.16,703377.20000005,703368.52,703384.987,708365.378,708367.10000002,2023-11-30T09:44:34Z,708382.147,NULL,Gefährdung,kuhatarisha,s,uchokozi,udhaifu,makorowezo,NA,sd,1,4,NA,NA,NA,NA,NA,NA,NA,NA,NA,NA,NA,NA,NA,NA,NA,NA,NA,NA,NA
2fd2f,"""Falsch""-Screen",canvas.Screen,3_0_4_0_6_1_2,NA,NA,skipped,NA,708372.20000005,NA,NA,708365.378,708372.20000005,2023-11-30T09:44:34Z,708382.147,NULL,Gefährdung,kuhatarisha,s,uchokozi,udhaifu,makorowezo,NA,sd,NA,4,NA,NA,NA,NA,NA,NA,NA,NA,NA,NA,NA,NA,NA,NA,NA,NA,NA,NA,NA
2fd2f,shallow,flow.Sequence,3_0_4_0_6_1,NA,NA,completion,8927.665,699422.70000005,699420.62,699437.713,708365.378,708372.39999998,2023-11-30T09:44:34Z,708382.147,NULL,Gefährdung,kuhatarisha,s,uchokozi,udhaifu,makorowezo,NA,sd,NA,4,NA,NA,NA,NA,NA,NA,NA,NA,NA,NA,NA,NA,NA,NA,NA,NA,NA,NA,NA
2fd2f,task,flow.Sequence,3_0_4_0_6,NA,NA,completion,8927.665,699422.39999998,699420.62,699437.713,708365.378,708372.39999998,2023-11-30T09:44:34Z,708382.147,NULL,Gefährdung,kuhatarisha,s,uchokozi,udhaifu,makorowezo,NA,sd,NA,4,NA,NA,NA,NA,NA,NA,NA,NA,NA,NA,NA,NA,NA,NA,NA,NA,NA,NA,NA
2fd2f,deep,flow.Sequence,3_0_4_0_7_0,NA,NA,skipped,NA,708372.5,NA,NA,708365.378,708372.5,2023-11-30T09:44:34Z,708382.147,NULL,Betrüger,mdanganyifu,s,mwanamuziki,wastani,mahakama,NA,sd,NA,4,NA,NA,NA,NA,NA,NA,NA,NA,NA,NA,NA,NA,NA,NA,NA,NA,NA,NA,NA
2fd2f,Shallow Question,html.Page,3_0_4_0_7_1_0,NA,NA,form submission,3021.7529999762,708372.5,708365.378,708382.147,711403.89999998,711404,2023-11-30T09:44:37Z,711413.415,NULL,Betrüger,mdanganyifu,s,mwanamuziki,wastani,mahakama,mdanganyifu,NA,NA,4,NA,NA,NA,NA,NA,NA,NA,NA,NA,NA,NA,NA,NA,NA,NA,NA,NA,NA,NA
2fd2f,"""Richtig""-Screen",canvas.Screen,3_0_4_0_7_1_1,NA,NA,timeout,4997.1209999999,711407.10000002,711397.069,711413.415,716394.012,716395,2023-11-30T09:44:42Z,716410.536,NULL,Betrüger,mdanganyifu,s,mwanamuziki,wastani,mahakama,NA,sd,1,4,NA,NA,NA,NA,NA,NA,NA,NA,NA,NA,NA,NA,NA,NA,NA,NA,NA,NA,NA
2fd2f,"""Falsch""-Screen",canvas.Screen,3_0_4_0_7_1_2,NA,NA,skipped,NA,716400.30000007,NA,NA,716394.012,716400.39999998,2023-11-30T09:44:42Z,716410.536,NULL,Betrüger,mdanganyifu,s,mwanamuziki,wastani,mahakama,NA,sd,NA,4,NA,NA,NA,NA,NA,NA,NA,NA,NA,NA,NA,NA,NA,NA,NA,NA,NA,NA,NA
2fd2f,shallow,flow.Sequence,3_0_4_0_7_1,NA,NA,completion,8011.865,708372.5,708365.378,708382.147,716394.012,716400.60000002,2023-11-30T09:44:42Z,716410.536,NULL,Betrüger,mdanganyifu,s,mwanamuziki,wastani,mahakama,NA,sd,NA,4,NA,NA,NA,NA,NA,NA,NA,NA,NA,NA,NA,NA,NA,NA,NA,NA,NA,NA,NA
2fd2f,task,flow.Sequence,3_0_4_0_7,NA,NA,completion,8011.865,708372.5,708365.378,708382.147,716394.012,716400.60000002,2023-11-30T09:44:42Z,716410.536,NULL,Betrüger,mdanganyifu,s,mwanamuziki,wastani,mahakama,NA,sd,NA,4,NA,NA,NA,NA,NA,NA,NA,NA,NA,NA,NA,NA,NA,NA,NA,NA,NA,NA,NA
2fd2f,block,flow.Loop,3_0_4_0,NA,NA,completion,86380.016,630022.20000005,629980.029,630013.996,716394.012,716400.60000002,2023-11-30T09:44:42Z,716410.536,NULL,NA,NA,NA,NA,NA,NA,NA,sd,NA,4,NA,NA,NA,NA,NA,NA,NA,NA,NA,NA,NA,NA,NA,NA,NA,NA,NA,NA,NA
2fd2f,weiter,canvas.Screen,3_0_4_1,sdf,keypress(Space),response,740.16400004772,716400.70000005,716394.012,716410.536,717150.70000005,717151.89999998,2023-11-30T09:44:43Z,717509.437,NULL,NA,NA,NA,NA,NA,NA,NA,sd,NA,4,NA,NA,NA,NA,NA,NA,NA,NA,NA,NA,NA,NA,NA,NA,NA,NA,NA,NA,NA
2fd2f,check continue,flow.Sequence,3_0_4,NA,NA,completion,87136.704000048,630022.20000005,629980.029,630013.996,717150.70000005,717152.20000005,2023-11-30T09:44:43Z,717509.437,NULL,NA,NA,NA,NA,NA,NA,NA,sd,NA,4,NA,NA,NA,NA,NA,NA,NA,NA,NA,NA,NA,NA,NA,NA,NA,NA,NA,NA,NA
2fd2f,check continue,flow.Sequence,3_0_5,NA,NA,skipped,NA,717179.39999998,NA,NA,717150.70000005,717179.39999998,2023-11-30T09:44:43Z,717509.437,NULL,NA,NA,NA,NA,NA,NA,NA,sdf,NA,5,NA,NA,NA,NA,NA,NA,NA,NA,NA,NA,NA,NA,NA,NA,NA,NA,NA,NA,NA
2fd2f,check continue,flow.Sequence,3_0_6,NA,NA,skipped,NA,717196.39999998,NA,NA,717150.70000005,717196.39999998,2023-11-30T09:44:43Z,717509.437,NULL,NA,NA,NA,NA,NA,NA,NA,dfs,NA,6,NA,NA,NA,NA,NA,NA,NA,NA,NA,NA,NA,NA,NA,NA,NA,NA,NA,NA,NA
2fd2f,check continue,flow.Sequence,3_0_7,NA,NA,skipped,NA,717213.70000005,NA,NA,717150.70000005,717213.80000007,2023-11-30T09:44:43Z,717509.437,NULL,NA,NA,NA,NA,NA,NA,NA,df,NA,7,NA,NA,NA,NA,NA,NA,NA,NA,NA,NA,NA,NA,NA,NA,NA,NA,NA,NA,NA
2fd2f,check continue,flow.Sequence,3_0_8,NA,NA,skipped,NA,717228.80000007,NA,NA,717150.70000005,717228.89999998,2023-11-30T09:44:43Z,717509.437,NULL,NA,NA,NA,NA,NA,NA,NA,dfs,NA,8,NA,NA,NA,NA,NA,NA,NA,NA,NA,NA,NA,NA,NA,NA,NA,NA,NA,NA,NA
2fd2f,check continue,flow.Sequence,3_0_9,NA,NA,skipped,NA,717242.89999998,NA,NA,717150.70000005,717242.89999998,2023-11-30T09:44:43Z,717509.437,NULL,NA,NA,NA,NA,NA,NA,NA,dsf,NA,9,NA,NA,NA,NA,NA,NA,NA,NA,NA,NA,NA,NA,NA,NA,NA,NA,NA,NA,NA
2fd2f,check continue,flow.Sequence,3_0_10,NA,NA,skipped,NA,717255.89999998,NA,NA,717150.70000005,717255.89999998,2023-11-30T09:44:43Z,717509.437,NULL,NA,NA,NA,NA,NA,NA,NA,df,NA,10,NA,NA,NA,NA,NA,NA,NA,NA,NA,NA,NA,NA,NA,NA,NA,NA,NA,NA,NA
2fd2f,check continue,flow.Sequence,3_0_11,NA,NA,skipped,NA,717269,NA,NA,717150.70000005,717269.10000002,2023-11-30T09:44:43Z,717509.437,NULL,NA,NA,NA,NA,NA,NA,NA,dfs,NA,11,NA,NA,NA,NA,NA,NA,NA,NA,NA,NA,NA,NA,NA,NA,NA,NA,NA,NA,NA
2fd2f,check continue,flow.Sequence,3_0_12,NA,NA,skipped,NA,717282.39999998,NA,NA,717150.70000005,717282.60000002,2023-11-30T09:44:43Z,717509.437,NULL,NA,NA,NA,NA,NA,NA,NA,dsf,NA,12,NA,NA,NA,NA,NA,NA,NA,NA,NA,NA,NA,NA,NA,NA,NA,NA,NA,NA,NA
2fd2f,check continue,flow.Sequence,3_0_13,NA,NA,skipped,NA,717296.30000007,NA,NA,717150.70000005,717296.39999998,2023-11-30T09:44:43Z,717509.437,NULL,NA,NA,NA,NA,NA,NA,NA,dsf,NA,13,NA,NA,NA,NA,NA,NA,NA,NA,NA,NA,NA,NA,NA,NA,NA,NA,NA,NA,NA
2fd2f,check continue,flow.Sequence,3_0_14,NA,NA,skipped,NA,717308.60000002,NA,NA,717150.70000005,717308.70000005,2023-11-30T09:44:43Z,717509.437,NULL,NA,NA,NA,NA,NA,NA,NA,NA,NA,14,NA,NA,NA,NA,NA,NA,NA,NA,NA,NA,NA,NA,NA,NA,NA,NA,NA,NA,NA
2fd2f,check continue,flow.Sequence,3_0_15,NA,NA,skipped,NA,717321.39999998,NA,NA,717150.70000005,717321.5,2023-11-30T09:44:43Z,717509.437,NULL,NA,NA,NA,NA,NA,NA,NA,NA,NA,15,NA,NA,NA,NA,NA,NA,NA,NA,NA,NA,NA,NA,NA,NA,NA,NA,NA,NA,NA
2fd2f,check continue,flow.Sequence,3_0_16,NA,NA,skipped,NA,717334.20000005,NA,NA,717150.70000005,717334.20000005,2023-11-30T09:44:43Z,717509.437,NULL,NA,NA,NA,NA,NA,NA,NA,NA,NA,16,NA,NA,NA,NA,NA,NA,NA,NA,NA,NA,NA,NA,NA,NA,NA,NA,NA,NA,NA
2fd2f,check continue,flow.Sequence,3_0_17,NA,NA,skipped,NA,717346.80000007,NA,NA,717150.70000005,717346.80000007,2023-11-30T09:44:43Z,717509.437,NULL,NA,NA,NA,NA,NA,NA,NA,NA,NA,17,NA,NA,NA,NA,NA,NA,NA,NA,NA,NA,NA,NA,NA,NA,NA,NA,NA,NA,NA
2fd2f,check continue,flow.Sequence,3_0_18,NA,NA,skipped,NA,717360.60000002,NA,NA,717150.70000005,717360.60000002,2023-11-30T09:44:43Z,717509.437,NULL,NA,NA,NA,NA,NA,NA,NA,NA,NA,18,NA,NA,NA,NA,NA,NA,NA,NA,NA,NA,NA,NA,NA,NA,NA,NA,NA,NA,NA
2fd2f,check continue,flow.Sequence,3_0_19,NA,NA,skipped,NA,717373.39999998,NA,NA,717150.70000005,717373.39999998,2023-11-30T09:44:43Z,717509.437,NULL,NA,NA,NA,NA,NA,NA,NA,NA,NA,19,NA,NA,NA,NA,NA,NA,NA,NA,NA,NA,NA,NA,NA,NA,NA,NA,NA,NA,NA
2fd2f,check continue,flow.Sequence,3_0_20,NA,NA,skipped,NA,717388.30000007,NA,NA,717150.70000005,717388.30000007,2023-11-30T09:44:43Z,717509.437,NULL,NA,NA,NA,NA,NA,NA,NA,NA,NA,20,NA,NA,NA,NA,NA,NA,NA,NA,NA,NA,NA,NA,NA,NA,NA,NA,NA,NA,NA
2fd2f,check continue,flow.Sequence,3_0_21,NA,NA,skipped,NA,717400.30000007,NA,NA,717150.70000005,717400.5,2023-11-30T09:44:43Z,717509.437,NULL,NA,NA,NA,NA,NA,NA,NA,NA,NA,21,NA,NA,NA,NA,NA,NA,NA,NA,NA,NA,NA,NA,NA,NA,NA,NA,NA,NA,NA
2fd2f,check continue,flow.Sequence,3_0_22,NA,NA,skipped,NA,717416.39999998,NA,NA,717150.70000005,717416.39999998,2023-11-30T09:44:43Z,717509.437,NULL,NA,NA,NA,NA,NA,NA,NA,NA,NA,22,NA,NA,NA,NA,NA,NA,NA,NA,NA,NA,NA,NA,NA,NA,NA,NA,NA,NA,NA
2fd2f,check continue,flow.Sequence,3_0_23,NA,NA,skipped,NA,717429.10000002,NA,NA,717150.70000005,717429.10000002,2023-11-30T09:44:43Z,717509.437,NULL,NA,NA,NA,NA,NA,NA,NA,NA,NA,23,NA,NA,NA,NA,NA,NA,NA,NA,NA,NA,NA,NA,NA,NA,NA,NA,NA,NA,NA
2fd2f,check continue,flow.Sequence,3_0_24,NA,NA,skipped,NA,717440.60000002,NA,NA,717150.70000005,717440.70000005,2023-11-30T09:44:43Z,717509.437,NULL,NA,NA,NA,NA,NA,NA,NA,NA,NA,24,NA,NA,NA,NA,NA,NA,NA,NA,NA,NA,NA,NA,NA,NA,NA,NA,NA,NA,NA
2fd2f,check continue,flow.Sequence,3_0_25,NA,NA,skipped,NA,717453.89999998,NA,NA,717150.70000005,717453.89999998,2023-11-30T09:44:43Z,717509.437,NULL,NA,NA,NA,NA,NA,NA,NA,NA,NA,25,NA,NA,NA,NA,NA,NA,NA,NA,NA,NA,NA,NA,NA,NA,NA,NA,NA,NA,NA
2fd2f,check continue,flow.Sequence,3_0_26,NA,NA,skipped,NA,717465.80000007,NA,NA,717150.70000005,717465.80000007,2023-11-30T09:44:43Z,717509.437,NULL,NA,NA,NA,NA,NA,NA,NA,NA,NA,26,NA,NA,NA,NA,NA,NA,NA,NA,NA,NA,NA,NA,NA,NA,NA,NA,NA,NA,NA
2fd2f,check continue,flow.Sequence,3_0_27,NA,NA,skipped,NA,717478.30000007,NA,NA,717150.70000005,717478.30000007,2023-11-30T09:44:43Z,717509.437,NULL,NA,NA,NA,NA,NA,NA,NA,NA,NA,27,NA,NA,NA,NA,NA,NA,NA,NA,NA,NA,NA,NA,NA,NA,NA,NA,NA,NA,NA
2fd2f,check continue,flow.Sequence,3_0_28,NA,NA,skipped,NA,717492.30000007,NA,NA,717150.70000005,717492.39999998,2023-11-30T09:44:44Z,717509.437,NULL,NA,NA,NA,NA,NA,NA,NA,NA,NA,28,NA,NA,NA,NA,NA,NA,NA,NA,NA,NA,NA,NA,NA,NA,NA,NA,NA,NA,NA
2fd2f,check continue,flow.Sequence,3_0_29,NA,NA,skipped,NA,717512.89999998,NA,NA,717150.70000005,717513,2023-11-30T09:44:44Z,717509.437,NULL,NA,NA,NA,NA,NA,NA,NA,NA,NA,29,NA,NA,NA,NA,NA,NA,NA,NA,NA,NA,NA,NA,NA,NA,NA,NA,NA,NA,NA
2fd2f,until continue,flow.Loop,3_0,NA,NA,completion,464990.19500005,252155.10000002,252100.401,252160.505,717150.70000005,717513.10000002,2023-11-30T09:44:44Z,717509.437,NULL,NA,NA,NA,NA,NA,NA,NA,NA,NA,NA,NA,NA,NA,NA,NA,NA,NA,NA,NA,NA,NA,NA,NA,NA,NA,NA,NA,NA,NA
2fd2f,block 1,flow.Sequence,3,NA,NA,completion,464990.19500005,252155.10000002,252100.401,252160.505,717150.70000005,717513.20000005,2023-11-30T09:44:44Z,717509.437,NULL,NA,NA,NA,NA,NA,NA,NA,NA,NA,NA,NA,NA,NA,NA,NA,NA,NA,NA,NA,NA,NA,NA,NA,NA,NA,NA,NA,NA,NA
2fd2f,1.Part Over,canvas.Screen,4,NA,keypress(Space),response,2251.2630000476,717513.20000005,717142.854,717509.437,719760.70000005,719761.80000007,2023-11-30T09:44:46Z,719824.953,NULL,NA,NA,NA,NA,NA,NA,NA,NA,NA,NA,NA,NA,NA,NA,NA,NA,NA,NA,NA,NA,NA,NA,NA,NA,NA,NA,NA,NA,NA
2fd2f,Deep Question,html.Page,5_0_0_0_0_0_0,NA,NA,form submission,3105.7470000477,719813.60000002,719813.135,719824.953,722930.70000005,722930.80000007,2023-11-30T09:44:49Z,722956.5,NULL,Niveau,kiwango,d,NA,NA,NA,fd,NA,NA,0,NA,NA,NA,NA,NA,NA,NA,NA,NA,NA,NA,NA,NA,NA,NA,NA,NA,NA,NA
2fd2f,"""Richtig""-Screen",canvas.Screen,5_0_0_0_0_0_1,NA,NA,skipped,NA,722931.20000005,NA,NA,722930.70000005,722931.20000005,2023-11-30T09:44:49Z,722956.5,NULL,Niveau,kiwango,d,NA,NA,NA,NA,sdf,NA,0,NA,NA,NA,NA,NA,NA,NA,NA,NA,NA,NA,NA,NA,NA,NA,NA,NA,NA,NA
2fd2f,"""Falsch""-Screen",canvas.Screen,5_0_0_0_0_0_2,NA,NA,timeout,4997.11,722931.60000002,722939.977,722956.5,727936.817,727939.80000007,2023-11-30T09:44:54Z,727953.61,NULL,Niveau,kiwango,d,NA,NA,NA,NA,sdf,0,0,NA,NA,NA,NA,NA,NA,NA,NA,NA,NA,NA,NA,NA,NA,NA,NA,NA,NA,NA
2fd2f,deep,flow.Sequence,5_0_0_0_0_0,NA,NA,completion,8111.8640000001,719813.60000002,719813.135,719824.953,727936.817,727940.30000007,2023-11-30T09:44:54Z,727953.61,NULL,Niveau,kiwango,d,NA,NA,NA,NA,sdf,NA,0,NA,NA,NA,NA,NA,NA,NA,NA,NA,NA,NA,NA,NA,NA,NA,NA,NA,NA,NA
2fd2f,shallow,flow.Sequence,5_0_0_0_0_1,NA,NA,skipped,NA,727940.5,NA,NA,727936.817,727940.60000002,2023-11-30T09:44:54Z,727953.61,NULL,Niveau,kiwango,d,NA,NA,NA,NA,sdf,NA,0,NA,NA,NA,NA,NA,NA,NA,NA,NA,NA,NA,NA,NA,NA,NA,NA,NA,NA,NA
2fd2f,task,flow.Sequence,5_0_0_0_0,NA,NA,completion,8111.8640000001,719813.60000002,719813.135,719824.953,727936.817,727940.80000007,2023-11-30T09:44:54Z,727953.61,NULL,Niveau,kiwango,d,NA,NA,NA,NA,sdf,NA,0,NA,NA,NA,NA,NA,NA,NA,NA,NA,NA,NA,NA,NA,NA,NA,NA,NA,NA,NA
2fd2f,Deep Question,html.Page,5_0_0_0_1_0_0,NA,NA,form submission,3840.39,727941.10000002,727936.817,727953.61,731794,731794.20000005,2023-11-30T09:44:58Z,731800.742,NULL,System,maongozi,d,NA,NA,NA,df,NA,NA,0,NA,NA,NA,NA,NA,NA,NA,NA,NA,NA,NA,NA,NA,NA,NA,NA,NA,NA,NA
2fd2f,"""Richtig""-Screen",canvas.Screen,5_0_0_0_1_0_1,NA,NA,skipped,NA,731796.20000005,NA,NA,731794,731796.20000005,2023-11-30T09:44:58Z,731800.742,NULL,System,maongozi,d,NA,NA,NA,NA,sdf,NA,0,NA,NA,NA,NA,NA,NA,NA,NA,NA,NA,NA,NA,NA,NA,NA,NA,NA,NA,NA
2fd2f,"""Falsch""-Screen",canvas.Screen,5_0_0_0_1_0_2,NA,NA,timeout,4997.3320000001,731796.70000005,731784.292,731800.742,736781.575,736782,2023-11-30T09:45:03Z,736798.074,NULL,System,maongozi,d,NA,NA,NA,NA,sdf,0,0,NA,NA,NA,NA,NA,NA,NA,NA,NA,NA,NA,NA,NA,NA,NA,NA,NA,NA,NA
2fd2f,deep,flow.Sequence,5_0_0_0_1_0,NA,NA,completion,8827.965,727941,727936.817,727953.61,736781.575,736782.30000007,2023-11-30T09:45:03Z,736798.074,NULL,System,maongozi,d,NA,NA,NA,NA,sdf,NA,0,NA,NA,NA,NA,NA,NA,NA,NA,NA,NA,NA,NA,NA,NA,NA,NA,NA,NA,NA
2fd2f,shallow,flow.Sequence,5_0_0_0_1_1,NA,NA,skipped,NA,736782.30000007,NA,NA,736781.575,736782.39999998,2023-11-30T09:45:03Z,736798.074,NULL,System,maongozi,d,NA,NA,NA,NA,sdf,NA,0,NA,NA,NA,NA,NA,NA,NA,NA,NA,NA,NA,NA,NA,NA,NA,NA,NA,NA,NA
2fd2f,task,flow.Sequence,5_0_0_0_1,NA,NA,completion,8827.965,727941,727936.817,727953.61,736781.575,736782.5,2023-11-30T09:45:03Z,736798.074,NULL,System,maongozi,d,NA,NA,NA,NA,sdf,NA,0,NA,NA,NA,NA,NA,NA,NA,NA,NA,NA,NA,NA,NA,NA,NA,NA,NA,NA,NA
2fd2f,deep,flow.Sequence,5_0_0_0_2_0,NA,NA,skipped,NA,736782.5,NA,NA,736781.575,736782.60000002,2023-11-30T09:45:03Z,736798.074,NULL,Übersicht,kilindo,s,mgusano,chipukizi,kulinganisha,NA,sdf,NA,0,NA,NA,NA,NA,NA,NA,NA,NA,NA,NA,NA,NA,NA,NA,NA,NA,NA,NA,NA
2fd2f,Shallow Question,html.Page,5_0_0_0_2_1_0,NA,NA,form submission,6547.5260000238,736782.70000005,736781.575,736798.074,743345.60000002,743345.80000007,2023-11-30T09:45:09Z,743360.31,NULL,Übersicht,kilindo,s,mgusano,chipukizi,kulinganisha,kulinganisha,NA,NA,0,NA,NA,NA,NA,NA,NA,NA,NA,NA,NA,NA,NA,NA,NA,NA,NA,NA,NA,NA
2fd2f,"""Richtig""-Screen",canvas.Screen,5_0_0_0_2_1_1,NA,NA,skipped,NA,743349.10000002,NA,NA,743345.60000002,743349.30000007,2023-11-30T09:45:09Z,743360.31,NULL,Übersicht,kilindo,s,mgusano,chipukizi,kulinganisha,NA,sdf,NA,0,NA,NA,NA,NA,NA,NA,NA,NA,NA,NA,NA,NA,NA,NA,NA,NA,NA,NA,NA
2fd2f,"""Falsch""-Screen",canvas.Screen,5_0_0_0_2_1_2,NA,NA,timeout,4997.0079999999,743350.20000005,743343.649,743360.31,748341.156,748343.89999998,2023-11-30T09:45:14Z,748357.318,NULL,Übersicht,kilindo,s,mgusano,chipukizi,kulinganisha,NA,sdf,0,0,NA,NA,NA,NA,NA,NA,NA,NA,NA,NA,NA,NA,NA,NA,NA,NA,NA,NA,NA
2fd2f,shallow,flow.Sequence,5_0_0_0_2_1,NA,NA,completion,11543.082,736782.70000005,736781.575,736798.074,748341.156,748344.30000007,2023-11-30T09:45:14Z,748357.318,NULL,Übersicht,kilindo,s,mgusano,chipukizi,kulinganisha,NA,sdf,NA,0,NA,NA,NA,NA,NA,NA,NA,NA,NA,NA,NA,NA,NA,NA,NA,NA,NA,NA,NA
2fd2f,task,flow.Sequence,5_0_0_0_2,NA,NA,completion,11543.082,736782.5,736781.575,736798.074,748341.156,748344.5,2023-11-30T09:45:14Z,748357.318,NULL,Übersicht,kilindo,s,mgusano,chipukizi,kulinganisha,NA,sdf,NA,0,NA,NA,NA,NA,NA,NA,NA,NA,NA,NA,NA,NA,NA,NA,NA,NA,NA,NA,NA
2fd2f,deep,flow.Sequence,5_0_0_0_3_0,NA,NA,skipped,NA,748344.70000005,NA,NA,748341.156,748344.89999998,2023-11-30T09:45:14Z,748357.318,NULL,Vorwurf,mashtaka,s,msukumo,mtangulizi,uenyekiti,NA,sdf,NA,0,NA,NA,NA,NA,NA,NA,NA,NA,NA,NA,NA,NA,NA,NA,NA,NA,NA,NA,NA
2fd2f,Shallow Question,html.Page,5_0_0_0_3_1_0,NA,NA,form submission,6126.2820000239,748345,748341.156,748357.318,754483.60000002,754483.70000005,2023-11-30T09:45:21Z,754486.912,NULL,Vorwurf,mashtaka,s,msukumo,mtangulizi,uenyekiti,mashtaka,NA,NA,0,NA,NA,NA,NA,NA,NA,NA,NA,NA,NA,NA,NA,NA,NA,NA,NA,NA,NA,NA
2fd2f,"""Richtig""-Screen",canvas.Screen,5_0_0_0_3_1_1,NA,NA,timeout,4997.383,754486.89999998,754470.955,754486.912,759467.524,759468.89999998,2023-11-30T09:45:25Z,759484.295,NULL,Vorwurf,mashtaka,s,msukumo,mtangulizi,uenyekiti,NA,sdf,1,0,NA,NA,NA,NA,NA,NA,NA,NA,NA,NA,NA,NA,NA,NA,NA,NA,NA,NA,NA
2fd2f,"""Falsch""-Screen",canvas.Screen,5_0_0_0_3_1_2,NA,NA,skipped,NA,759473.5,NA,NA,759467.524,759473.60000002,2023-11-30T09:45:25Z,759484.295,NULL,Vorwurf,mashtaka,s,msukumo,mtangulizi,uenyekiti,NA,sdf,NA,0,NA,NA,NA,NA,NA,NA,NA,NA,NA,NA,NA,NA,NA,NA,NA,NA,NA,NA,NA
2fd2f,shallow,flow.Sequence,5_0_0_0_3_1,NA,NA,completion,11110.206,748345,748341.156,748357.318,759467.524,759473.80000007,2023-11-30T09:45:25Z,759484.295,NULL,Vorwurf,mashtaka,s,msukumo,mtangulizi,uenyekiti,NA,sdf,NA,0,NA,NA,NA,NA,NA,NA,NA,NA,NA,NA,NA,NA,NA,NA,NA,NA,NA,NA,NA
2fd2f,task,flow.Sequence,5_0_0_0_3,NA,NA,completion,11110.206,748344.70000005,748341.156,748357.318,759467.524,759473.89999998,2023-11-30T09:45:25Z,759484.295,NULL,Vorwurf,mashtaka,s,msukumo,mtangulizi,uenyekiti,NA,sdf,NA,0,NA,NA,NA,NA,NA,NA,NA,NA,NA,NA,NA,NA,NA,NA,NA,NA,NA,NA,NA
2fd2f,deep,flow.Sequence,5_0_0_0_4_0,NA,NA,skipped,NA,759473.89999998,NA,NA,759467.524,759474,2023-11-30T09:45:25Z,759484.295,NULL,Entwicklung,maendeleo,s,uangavu,mshindwa,badiliko,NA,sdf,NA,0,NA,NA,NA,NA,NA,NA,NA,NA,NA,NA,NA,NA,NA,NA,NA,NA,NA,NA,NA
2fd2f,Shallow Question,html.Page,5_0_0_0_4_1_0,NA,NA,form submission,5767.705,759474,759467.524,759484.295,765252,765252.20000005,2023-11-30T09:45:31Z,765263.851,NULL,Entwicklung,maendeleo,s,uangavu,mshindwa,badiliko,maendeleo,NA,NA,0,NA,NA,NA,NA,NA,NA,NA,NA,NA,NA,NA,NA,NA,NA,NA,NA,NA,NA,NA
2fd2f,"""Richtig""-Screen",canvas.Screen,5_0_0_0_4_1_1,NA,NA,timeout,4997.0769999999,765255.10000002,765247.522,765263.851,770244.017,770245.10000002,2023-11-30T09:45:36Z,770260.928,NULL,Entwicklung,maendeleo,s,uangavu,mshindwa,badiliko,NA,sdf,1,0,NA,NA,NA,NA,NA,NA,NA,NA,NA,NA,NA,NA,NA,NA,NA,NA,NA,NA,NA
2fd2f,"""Falsch""-Screen",canvas.Screen,5_0_0_0_4_1_2,NA,NA,skipped,NA,770250.39999998,NA,NA,770244.017,770250.5,2023-11-30T09:45:36Z,770260.928,NULL,Entwicklung,maendeleo,s,uangavu,mshindwa,badiliko,NA,sdf,NA,0,NA,NA,NA,NA,NA,NA,NA,NA,NA,NA,NA,NA,NA,NA,NA,NA,NA,NA,NA
2fd2f,shallow,flow.Sequence,5_0_0_0_4_1,NA,NA,completion,10759.722,759474,759467.524,759484.295,770244.017,770250.60000002,2023-11-30T09:45:36Z,770260.928,NULL,Entwicklung,maendeleo,s,uangavu,mshindwa,badiliko,NA,sdf,NA,0,NA,NA,NA,NA,NA,NA,NA,NA,NA,NA,NA,NA,NA,NA,NA,NA,NA,NA,NA
2fd2f,task,flow.Sequence,5_0_0_0_4,NA,NA,completion,10759.722,759473.89999998,759467.524,759484.295,770244.017,770250.60000002,2023-11-30T09:45:36Z,770260.928,NULL,Entwicklung,maendeleo,s,uangavu,mshindwa,badiliko,NA,sdf,NA,0,NA,NA,NA,NA,NA,NA,NA,NA,NA,NA,NA,NA,NA,NA,NA,NA,NA,NA,NA
2fd2f,Deep Question,html.Page,5_0_0_0_5_0_0,NA,NA,form submission,3546.3720000716,770250.70000005,770244.017,770260.928,773807.30000007,773807.39999998,2023-11-30T09:45:40Z,773808.392,NULL,Papier,karatasi,d,NA,NA,NA,kf,NA,NA,0,NA,NA,NA,NA,NA,NA,NA,NA,NA,NA,NA,NA,NA,NA,NA,NA,NA,NA,NA
2fd2f,"""Richtig""-Screen",canvas.Screen,5_0_0_0_5_0_1,NA,NA,skipped,NA,773810.5,NA,NA,773807.30000007,773810.60000002,2023-11-30T09:45:40Z,773808.392,NULL,Papier,karatasi,d,NA,NA,NA,NA,sdf,NA,0,NA,NA,NA,NA,NA,NA,NA,NA,NA,NA,NA,NA,NA,NA,NA,NA,NA,NA,NA
2fd2f,"""Falsch""-Screen",canvas.Screen,5_0_0_0_5_0_2,NA,NA,timeout,4997.372,773811.39999998,773792.091,773808.392,778789.018,778789.80000007,2023-11-30T09:45:45Z,778805.764,NULL,Papier,karatasi,d,NA,NA,NA,NA,sdf,0,0,NA,NA,NA,NA,NA,NA,NA,NA,NA,NA,NA,NA,NA,NA,NA,NA,NA,NA,NA
2fd2f,deep,flow.Sequence,5_0_0_0_5_0,NA,NA,completion,8528.0900000001,770250.70000005,770244.017,770260.928,778789.018,778791.10000002,2023-11-30T09:45:45Z,778805.764,NULL,Papier,karatasi,d,NA,NA,NA,NA,sdf,NA,0,NA,NA,NA,NA,NA,NA,NA,NA,NA,NA,NA,NA,NA,NA,NA,NA,NA,NA,NA
2fd2f,shallow,flow.Sequence,5_0_0_0_5_1,NA,NA,skipped,NA,778791.30000007,NA,NA,778789.018,778791.70000005,2023-11-30T09:45:45Z,778805.764,NULL,Papier,karatasi,d,NA,NA,NA,NA,sdf,NA,0,NA,NA,NA,NA,NA,NA,NA,NA,NA,NA,NA,NA,NA,NA,NA,NA,NA,NA,NA
2fd2f,task,flow.Sequence,5_0_0_0_5,NA,NA,completion,8528.0900000001,770250.70000005,770244.017,770260.928,778789.018,778792.10000002,2023-11-30T09:45:45Z,778805.764,NULL,Papier,karatasi,d,NA,NA,NA,NA,sdf,NA,0,NA,NA,NA,NA,NA,NA,NA,NA,NA,NA,NA,NA,NA,NA,NA,NA,NA,NA,NA
2fd2f,Deep Question,html.Page,5_0_0_0_6_0_0,NA,NA,form submission,3121.736,778792.60000002,778789.018,778805.764,781927.5,781927.70000005,2023-11-30T09:45:48Z,781936.961,NULL,Lawine,banguko,d,NA,NA,NA,cf,NA,NA,0,NA,NA,NA,NA,NA,NA,NA,NA,NA,NA,NA,NA,NA,NA,NA,NA,NA,NA,NA
2fd2f,"""Richtig""-Screen",canvas.Screen,5_0_0_0_6_0_1,NA,NA,skipped,NA,781930.89999998,NA,NA,781927.5,781931.10000002,2023-11-30T09:45:48Z,781936.961,NULL,Lawine,banguko,d,NA,NA,NA,NA,sdf,NA,0,NA,NA,NA,NA,NA,NA,NA,NA,NA,NA,NA,NA,NA,NA,NA,NA,NA,NA,NA
