observation,sender,sender_type,sender_id,response,response_action,ended_on,duration,time_run,time_render,time_show,time_end,time_commit,timestamp,time_switch,german,swahili,enc,distractor1,distractor2,distractor3,response_2,x,correct,distractors,url_vp,url_sess,meta_labjs_version,meta_location,meta_user_agent,meta_platform,meta_language,meta_locale,meta_time_zone,meta_timezone_offset,meta_screen_width,meta_screen_height,meta_scroll_width,meta_scroll_height,meta_window_inner_width,meta_window_inner_height,meta_device_pixel_ratio,meta_labjs_build_flavor,meta_labjs_build_commit
7158d,Introduction delayed retrieval,canvas.Screen,0,weiter,keypress(Space),response,32244.08,4639,4634.32,4700.92,36945,37070,2023-09-17T11:13:02Z,37124.28,NA,NA,NA,NA,NA,NA,NA,NA,NA,NULL,146,2,20.2.4,https://neurocog.fernuni.ch/studies/vweber/jbaenninger/delayed/index.html?vp=146&sess=2,Mozilla/5.0 (Windows NT 10.0; Win64; x64; rv:109.0) Gecko/20100101 Firefox/117.0,Win32,de,de-CH,Europe/Zurich,-120,1280,720,1280,595,1280,595,1.5,production,f5b4a49f956347addd546a832a3327688c2c0fef
7158d,Deep Question,html.Page,1_0_0_0,NA,NA,form submission,25943.72,37074,37086.82,37124.28,63068,63069,2023-09-17T11:13:28Z,63086.22,Wettbewerb,ushindani,s,mapendezi,kichocheo,ubaguzi,ad,NA,NA,NULL,NA,NA,NA,NA,NA,NA,NA,NA,NA,NA,NA,NA,NA,NA,NA,NA,NA,NA,NA
7158d,Save data screen,canvas.Screen,1_0_0_1,NA,NA,timeout,499.6,63078,63050.84,63086.22,63569.18,63570,2023-09-17T11:13:29Z,63585.82,Wettbewerb,ushindani,s,mapendezi,kichocheo,ubaguzi,NA,NA,0,NULL,NA,NA,NA,NA,NA,NA,NA,NA,NA,NA,NA,NA,NA,NA,NA,NA,NA,NA,NA
7158d,deep,flow.Sequence,1_0_0,NA,NA,completion,26444.9,37074,37086.82,37124.28,63569.18,63571,2023-09-17T11:13:29Z,63585.82,Wettbewerb,ushindani,s,mapendezi,kichocheo,ubaguzi,NA,NA,NA,NULL,NA,NA,NA,NA,NA,NA,NA,NA,NA,NA,NA,NA,NA,NA,NA,NA,NA,NA,NA
7158d,task,flow.Sequence,1_0,NA,NA,completion,26444.9,37074,37086.82,37124.28,63569.18,63572,2023-09-17T11:13:29Z,63585.82,Wettbewerb,ushindani,s,mapendezi,kichocheo,ubaguzi,NA,NA,NA,NULL,NA,NA,NA,NA,NA,NA,NA,NA,NA,NA,NA,NA,NA,NA,NA,NA,NA,NA,NA
7158d,Deep Question,html.Page,1_1_0_0,NA,NA,form submission,11039.18,63573,63569.18,63585.82,74625,74626,2023-09-17T11:13:40Z,74643.36,Konkurrent,mshindani,s,msemaji,mvutaji,kipukusa,dewana,NA,NA,NULL,NA,NA,NA,NA,NA,NA,NA,NA,NA,NA,NA,NA,NA,NA,NA,NA,NA,NA,NA
7158d,Save data screen,canvas.Screen,1_1_0_1,NA,NA,timeout,499.58,74630,74620.86,74643.36,75126.28,75127,2023-09-17T11:13:40Z,75142.94,Konkurrent,mshindani,s,msemaji,mvutaji,kipukusa,NA,NA,0,NULL,NA,NA,NA,NA,NA,NA,NA,NA,NA,NA,NA,NA,NA,NA,NA,NA,NA,NA,NA
7158d,deep,flow.Sequence,1_1_0,NA,NA,completion,11540.46,63573,63569.18,63585.82,75126.28,75128,2023-09-17T11:13:40Z,75142.94,Konkurrent,mshindani,s,msemaji,mvutaji,kipukusa,NA,NA,NA,NULL,NA,NA,NA,NA,NA,NA,NA,NA,NA,NA,NA,NA,NA,NA,NA,NA,NA,NA,NA
7158d,task,flow.Sequence,1_1,NA,NA,completion,11540.46,63573,63569.18,63585.82,75126.28,75129,2023-09-17T11:13:40Z,75142.94,Konkurrent,mshindani,s,msemaji,mvutaji,kipukusa,NA,NA,NA,NULL,NA,NA,NA,NA,NA,NA,NA,NA,NA,NA,NA,NA,NA,NA,NA,NA,NA,NA,NA
7158d,Deep Question,html.Page,1_2_0_0,NA,NA,form submission,11011.06,75129,75126.28,75142.94,86154,86156,2023-09-17T11:13:51Z,86167.18,Vorsorge,tahadhari,s,ufafanuzi,makini,mashambani,uzululu,NA,NA,NULL,NA,NA,NA,NA,NA,NA,NA,NA,NA,NA,NA,NA,NA,NA,NA,NA,NA,NA,NA
7158d,Save data screen,canvas.Screen,1_2_0_1,NA,NA,timeout,499.60000000001,86173,86148.48,86167.18,86650.12,86653,2023-09-17T11:13:52Z,86666.78,Vorsorge,tahadhari,s,ufafanuzi,makini,mashambani,NA,NA,0,NULL,NA,NA,NA,NA,NA,NA,NA,NA,NA,NA,NA,NA,NA,NA,NA,NA,NA,NA,NA
7158d,deep,flow.Sequence,1_2_0,NA,NA,completion,11507.18,75129,75126.28,75142.94,86650.12,86654,2023-09-17T11:13:52Z,86666.78,Vorsorge,tahadhari,s,ufafanuzi,makini,mashambani,NA,NA,NA,NULL,NA,NA,NA,NA,NA,NA,NA,NA,NA,NA,NA,NA,NA,NA,NA,NA,NA,NA,NA
7158d,task,flow.Sequence,1_2,NA,NA,completion,11507.18,75129,75126.28,75142.94,86650.12,86654,2023-09-17T11:13:52Z,86666.78,Vorsorge,tahadhari,s,ufafanuzi,makini,mashambani,NA,NA,NA,NULL,NA,NA,NA,NA,NA,NA,NA,NA,NA,NA,NA,NA,NA,NA,NA,NA,NA,NA,NA
7158d,Deep Question,html.Page,1_3_0_0,NA,NA,form submission,8396.22,86655,86650.12,86666.78,95063,95063,2023-09-17T11:14:00Z,95059.86,Auftrag,uagizaji,s,ghanima,kuzingatia,msukani,au,NA,NA,NULL,NA,NA,NA,NA,NA,NA,NA,NA,NA,NA,NA,NA,NA,NA,NA,NA,NA,NA,NA
7158d,Save data screen,canvas.Screen,1_3_0_1,NA,NA,timeout,499.64,95067,95058.62,95059.86,95542.84,95544,2023-09-17T11:14:00Z,95559.5,Auftrag,uagizaji,s,ghanima,kuzingatia,msukani,NA,NA,0,NULL,NA,NA,NA,NA,NA,NA,NA,NA,NA,NA,NA,NA,NA,NA,NA,NA,NA,NA,NA
7158d,deep,flow.Sequence,1_3_0,NA,NA,completion,8876.06,86655,86650.12,86666.78,95542.84,95545,2023-09-17T11:14:00Z,95559.5,Auftrag,uagizaji,s,ghanima,kuzingatia,msukani,NA,NA,NA,NULL,NA,NA,NA,NA,NA,NA,NA,NA,NA,NA,NA,NA,NA,NA,NA,NA,NA,NA,NA
7158d,task,flow.Sequence,1_3,NA,NA,completion,8876.06,86655,86650.12,86666.78,95542.84,95546,2023-09-17T11:14:00Z,95559.5,Auftrag,uagizaji,s,ghanima,kuzingatia,msukani,NA,NA,NA,NULL,NA,NA,NA,NA,NA,NA,NA,NA,NA,NA,NA,NA,NA,NA,NA,NA,NA,NA,NA
7158d,Deep Question,html.Page,1_4_0_0,NA,NA,form submission,9709.5,95550,95542.84,95559.5,105269,105270,2023-09-17T11:14:10Z,105268.14,Polizist,msongora,s,simanzi,mandhari,nidhamu,lesong,NA,NA,NULL,NA,NA,NA,NA,NA,NA,NA,NA,NA,NA,NA,NA,NA,NA,NA,NA,NA,NA,NA
7158d,Save data screen,canvas.Screen,1_4_0_1,NA,NA,timeout,499.58,105272,105264.76,105268.14,105751.08,105751,2023-09-17T11:14:11Z,105767.72,Polizist,msongora,s,simanzi,mandhari,nidhamu,NA,NA,0,NULL,NA,NA,NA,NA,NA,NA,NA,NA,NA,NA,NA,NA,NA,NA,NA,NA,NA,NA,NA
7158d,deep,flow.Sequence,1_4_0,NA,NA,completion,10191.58,95550,95542.84,95559.5,105751.08,105752,2023-09-17T11:14:11Z,105767.72,Polizist,msongora,s,simanzi,mandhari,nidhamu,NA,NA,NA,NULL,NA,NA,NA,NA,NA,NA,NA,NA,NA,NA,NA,NA,NA,NA,NA,NA,NA,NA,NA
7158d,task,flow.Sequence,1_4,NA,NA,completion,10191.58,95547,95542.84,95559.5,105751.08,105753,2023-09-17T11:14:11Z,105767.72,Polizist,msongora,s,simanzi,mandhari,nidhamu,NA,NA,NA,NULL,NA,NA,NA,NA,NA,NA,NA,NA,NA,NA,NA,NA,NA,NA,NA,NA,NA,NA,NA
7158d,Deep Question,html.Page,1_5_0_0,NA,NA,form submission,6333.28,105754,105751.08,105767.72,112101,112102,2023-09-17T11:14:17Z,112112.54,Schönheit,kirembo,d,mahojiano,msisimko,jitihadi,kirembo,NA,NA,NULL,NA,NA,NA,NA,NA,NA,NA,NA,NA,NA,NA,NA,NA,NA,NA,NA,NA,NA,NA
7158d,Save data screen,canvas.Screen,1_5_0_1,NA,NA,timeout,499.54000000001,112103,112098.42,112112.54,112595.48,112597,2023-09-17T11:14:18Z,112612.08,Schönheit,kirembo,d,mahojiano,msisimko,jitihadi,NA,NA,1,NULL,NA,NA,NA,NA,NA,NA,NA,NA,NA,NA,NA,NA,NA,NA,NA,NA,NA,NA,NA
7158d,deep,flow.Sequence,1_5_0,NA,NA,completion,6827.76,105754,105751.08,105767.72,112595.48,112599,2023-09-17T11:14:18Z,112612.08,Schönheit,kirembo,d,mahojiano,msisimko,jitihadi,NA,NA,NA,NULL,NA,NA,NA,NA,NA,NA,NA,NA,NA,NA,NA,NA,NA,NA,NA,NA,NA,NA,NA
7158d,task,flow.Sequence,1_5,NA,NA,completion,6827.76,105753,105751.08,105767.72,112595.48,112601,2023-09-17T11:14:18Z,112612.08,Schönheit,kirembo,d,mahojiano,msisimko,jitihadi,NA,NA,NA,NULL,NA,NA,NA,NA,NA,NA,NA,NA,NA,NA,NA,NA,NA,NA,NA,NA,NA,NA,NA
7158d,Deep Question,html.Page,1_6_0_0,NA,NA,form submission,4054.92,112602,112595.48,112612.08,116667,116668,2023-09-17T11:14:22Z,116675.4,Ausschluss,kutengwa,s,ununuzi,taratibu,madeni,au,NA,NA,NULL,NA,NA,NA,NA,NA,NA,NA,NA,NA,NA,NA,NA,NA,NA,NA,NA,NA,NA,NA
7158d,Save data screen,canvas.Screen,1_6_0_1,NA,NA,timeout,499.64,116671,116664.56,116675.4,117158.4,117161,2023-09-17T11:14:22Z,117175.04,Ausschluss,kutengwa,s,ununuzi,taratibu,madeni,NA,NA,0,NULL,NA,NA,NA,NA,NA,NA,NA,NA,NA,NA,NA,NA,NA,NA,NA,NA,NA,NA,NA
7158d,deep,flow.Sequence,1_6_0,NA,NA,completion,4546.32,112602,112595.48,112612.08,117158.4,117161,2023-09-17T11:14:22Z,117175.04,Ausschluss,kutengwa,s,ununuzi,taratibu,madeni,NA,NA,NA,NULL,NA,NA,NA,NA,NA,NA,NA,NA,NA,NA,NA,NA,NA,NA,NA,NA,NA,NA,NA
7158d,task,flow.Sequence,1_6,NA,NA,completion,4546.32,112601,112595.48,112612.08,117158.4,117162,2023-09-17T11:14:22Z,117175.04,Ausschluss,kutengwa,s,ununuzi,taratibu,madeni,NA,NA,NA,NULL,NA,NA,NA,NA,NA,NA,NA,NA,NA,NA,NA,NA,NA,NA,NA,NA,NA,NA,NA
7158d,Deep Question,html.Page,1_7_0_0,NA,NA,form submission,5299.96,117163,117158.4,117175.04,122475,122476,2023-09-17T11:14:27Z,122487.3,Annäherung,maegesho,d,madahili,kujiamini,mapendekezo,an,NA,NA,NULL,NA,NA,NA,NA,NA,NA,NA,NA,NA,NA,NA,NA,NA,NA,NA,NA,NA,NA,NA
7158d,Save data screen,canvas.Screen,1_7_0_1,NA,NA,timeout,499.58,122478,122472.66,122487.3,122970.22,122972,2023-09-17T11:14:28Z,122986.88,Annäherung,maegesho,d,madahili,kujiamini,mapendekezo,NA,NA,0,NULL,NA,NA,NA,NA,NA,NA,NA,NA,NA,NA,NA,NA,NA,NA,NA,NA,NA,NA,NA
7158d,deep,flow.Sequence,1_7_0,NA,NA,completion,5795.18,117162,117158.4,117175.04,122970.22,122972,2023-09-17T11:14:28Z,122986.88,Annäherung,maegesho,d,madahili,kujiamini,mapendekezo,NA,NA,NA,NULL,NA,NA,NA,NA,NA,NA,NA,NA,NA,NA,NA,NA,NA,NA,NA,NA,NA,NA,NA
7158d,task,flow.Sequence,1_7,NA,NA,completion,5795.18,117162,117158.4,117175.04,122970.22,122974,2023-09-17T11:14:28Z,122986.88,Annäherung,maegesho,d,madahili,kujiamini,mapendekezo,NA,NA,NA,NULL,NA,NA,NA,NA,NA,NA,NA,NA,NA,NA,NA,NA,NA,NA,NA,NA,NA,NA,NA
7158d,Deep Question,html.Page,1_8_0_0,NA,NA,form submission,9787.12,122974,122970.22,122986.88,132774,132774,2023-09-17T11:14:38Z,132778.82,Sympathie,mapendano,d,dhamiria,fungamano,maazimio,mapakenzo,NA,NA,NULL,NA,NA,NA,NA,NA,NA,NA,NA,NA,NA,NA,NA,NA,NA,NA,NA,NA,NA,NA
7158d,Save data screen,canvas.Screen,1_8_0_1,NA,NA,timeout,499.62,132778,132770.58,132778.82,133261.78,133263,2023-09-17T11:14:38Z,133278.44,Sympathie,mapendano,d,dhamiria,fungamano,maazimio,NA,NA,0,NULL,NA,NA,NA,NA,NA,NA,NA,NA,NA,NA,NA,NA,NA,NA,NA,NA,NA,NA,NA
7158d,deep,flow.Sequence,1_8_0,NA,NA,completion,10274.9,122974,122970.22,122986.88,133261.78,133263,2023-09-17T11:14:38Z,133278.44,Sympathie,mapendano,d,dhamiria,fungamano,maazimio,NA,NA,NA,NULL,NA,NA,NA,NA,NA,NA,NA,NA,NA,NA,NA,NA,NA,NA,NA,NA,NA,NA,NA
7158d,task,flow.Sequence,1_8,NA,NA,completion,10274.9,122974,122970.22,122986.88,133261.78,133264,2023-09-17T11:14:38Z,133278.44,Sympathie,mapendano,d,dhamiria,fungamano,maazimio,NA,NA,NA,NULL,NA,NA,NA,NA,NA,NA,NA,NA,NA,NA,NA,NA,NA,NA,NA,NA,NA,NA,NA
7158d,Deep Question,html.Page,1_9_0_0,NA,NA,form submission,4401.56,133264,133261.78,133278.44,137680,137680,2023-09-17T11:14:43Z,137691.5,Verstand,ufahamivu,d,shakawa,hadhari,mhandisi,ve,NA,NA,NULL,NA,NA,NA,NA,NA,NA,NA,NA,NA,NA,NA,NA,NA,NA,NA,NA,NA,NA,NA
7158d,Save data screen,canvas.Screen,1_9_0_1,NA,NA,timeout,499.54000000001,137684,137676.88,137691.5,138174.38,138177,2023-09-17T11:14:43Z,138191.04,Verstand,ufahamivu,d,shakawa,hadhari,mhandisi,NA,NA,0,NULL,NA,NA,NA,NA,NA,NA,NA,NA,NA,NA,NA,NA,NA,NA,NA,NA,NA,NA,NA
7158d,deep,flow.Sequence,1_9_0,NA,NA,completion,4895.94,133264,133261.78,133278.44,138174.38,138177,2023-09-17T11:14:43Z,138191.04,Verstand,ufahamivu,d,shakawa,hadhari,mhandisi,NA,NA,NA,NULL,NA,NA,NA,NA,NA,NA,NA,NA,NA,NA,NA,NA,NA,NA,NA,NA,NA,NA,NA
7158d,task,flow.Sequence,1_9,NA,NA,completion,4895.94,133264,133261.78,133278.44,138174.38,138178,2023-09-17T11:14:43Z,138191.04,Verstand,ufahamivu,d,shakawa,hadhari,mhandisi,NA,NA,NA,NULL,NA,NA,NA,NA,NA,NA,NA,NA,NA,NA,NA,NA,NA,NA,NA,NA,NA,NA,NA
7158d,Deep Question,html.Page,1_10_0_0,NA,NA,form submission,5893.96,138179,138174.38,138191.04,144085,144086,2023-09-17T11:14:49Z,144086.2,Zuwachs,nyongeza,d,matilaba,udhibiti,hudhurio,zu,NA,NA,NULL,NA,NA,NA,NA,NA,NA,NA,NA,NA,NA,NA,NA,NA,NA,NA,NA,NA,NA,NA
7158d,Save data screen,canvas.Screen,1_10_0_1,NA,NA,timeout,499.56,144088,144082.68,144086.2,144569.12,144576,2023-09-17T11:14:50Z,144585.76,Zuwachs,nyongeza,d,matilaba,udhibiti,hudhurio,NA,NA,0,NULL,NA,NA,NA,NA,NA,NA,NA,NA,NA,NA,NA,NA,NA,NA,NA,NA,NA,NA,NA
7158d,deep,flow.Sequence,1_10_0,NA,NA,completion,6378.08,138179,138174.38,138191.04,144569.12,144578,2023-09-17T11:14:50Z,144585.76,Zuwachs,nyongeza,d,matilaba,udhibiti,hudhurio,NA,NA,NA,NULL,NA,NA,NA,NA,NA,NA,NA,NA,NA,NA,NA,NA,NA,NA,NA,NA,NA,NA,NA
7158d,task,flow.Sequence,1_10,NA,NA,completion,6378.08,138178,138174.38,138191.04,144569.12,144579,2023-09-17T11:14:50Z,144585.76,Zuwachs,nyongeza,d,matilaba,udhibiti,hudhurio,NA,NA,NA,NULL,NA,NA,NA,NA,NA,NA,NA,NA,NA,NA,NA,NA,NA,NA,NA,NA,NA,NA,NA
7158d,Deep Question,html.Page,1_11_0_0,NA,NA,form submission,7588.24,144581,144569.12,144585.76,152174,152175,2023-09-17T11:14:57Z,152179.52,Zufall,kikuti,d,kukosekana,uchoraji,leseni,kikuti,NA,NA,NULL,NA,NA,NA,NA,NA,NA,NA,NA,NA,NA,NA,NA,NA,NA,NA,NA,NA,NA,NA
7158d,Save data screen,canvas.Screen,1_11_0_1,NA,NA,timeout,499.62000000002,152179,152170.42,152179.52,152662.5,152663,2023-09-17T11:14:58Z,152679.14,Zufall,kikuti,d,kukosekana,uchoraji,leseni,NA,NA,1,NULL,NA,NA,NA,NA,NA,NA,NA,NA,NA,NA,NA,NA,NA,NA,NA,NA,NA,NA,NA
7158d,deep,flow.Sequence,1_11_0,NA,NA,completion,8076.74,144581,144569.12,144585.76,152662.5,152664,2023-09-17T11:14:58Z,152679.14,Zufall,kikuti,d,kukosekana,uchoraji,leseni,NA,NA,NA,NULL,NA,NA,NA,NA,NA,NA,NA,NA,NA,NA,NA,NA,NA,NA,NA,NA,NA,NA,NA
7158d,task,flow.Sequence,1_11,NA,NA,completion,8076.74,144580,144569.12,144585.76,152662.5,152665,2023-09-17T11:14:58Z,152679.14,Zufall,kikuti,d,kukosekana,uchoraji,leseni,NA,NA,NA,NULL,NA,NA,NA,NA,NA,NA,NA,NA,NA,NA,NA,NA,NA,NA,NA,NA,NA,NA,NA
7158d,Deep Question,html.Page,1_12_0_0,NA,NA,form submission,17095.86,152666,152662.5,152679.14,169775,169776,2023-09-17T11:15:15Z,169781.68,Symbol,kielezo,d,kinyume,nderemo,utayari,kielgaze,NA,NA,NULL,NA,NA,NA,NA,NA,NA,NA,NA,NA,NA,NA,NA,NA,NA,NA,NA,NA,NA,NA
7158d,Save data screen,canvas.Screen,1_12_0_1,NA,NA,timeout,499.62,169778,169772.34,169781.68,170264.66,170267,2023-09-17T11:15:15Z,170281.3,Symbol,kielezo,d,kinyume,nderemo,utayari,NA,NA,0,NULL,NA,NA,NA,NA,NA,NA,NA,NA,NA,NA,NA,NA,NA,NA,NA,NA,NA,NA,NA
7158d,deep,flow.Sequence,1_12_0,NA,NA,completion,17585.52,152665,152662.5,152679.14,170264.66,170268,2023-09-17T11:15:15Z,170281.3,Symbol,kielezo,d,kinyume,nderemo,utayari,NA,NA,NA,NULL,NA,NA,NA,NA,NA,NA,NA,NA,NA,NA,NA,NA,NA,NA,NA,NA,NA,NA,NA
7158d,task,flow.Sequence,1_12,NA,NA,completion,17585.52,152665,152662.5,152679.14,170264.66,170269,2023-09-17T11:15:15Z,170281.3,Symbol,kielezo,d,kinyume,nderemo,utayari,NA,NA,NA,NULL,NA,NA,NA,NA,NA,NA,NA,NA,NA,NA,NA,NA,NA,NA,NA,NA,NA,NA,NA
7158d,Deep Question,html.Page,1_13_0_0,NA,NA,form submission,4730.7,170270,170264.66,170281.3,175012,175012,2023-09-17T11:15:20Z,175010.74,Beweis,ushahidi,s,marudio,kizuizi,mtendaji,be,NA,NA,NULL,NA,NA,NA,NA,NA,NA,NA,NA,NA,NA,NA,NA,NA,NA,NA,NA,NA,NA,NA
7158d,Save data screen,canvas.Screen,1_13_0_1,NA,NA,timeout,499.58000000002,175015,175007.38,175010.74,175493.68,175495,2023-09-17T11:15:20Z,175510.32,Beweis,ushahidi,s,marudio,kizuizi,mtendaji,NA,NA,0,NULL,NA,NA,NA,NA,NA,NA,NA,NA,NA,NA,NA,NA,NA,NA,NA,NA,NA,NA,NA
7158d,deep,flow.Sequence,1_13_0,NA,NA,completion,5212.38,170270,170264.66,170281.3,175493.68,175495,2023-09-17T11:15:20Z,175510.32,Beweis,ushahidi,s,marudio,kizuizi,mtendaji,NA,NA,NA,NULL,NA,NA,NA,NA,NA,NA,NA,NA,NA,NA,NA,NA,NA,NA,NA,NA,NA,NA,NA
7158d,task,flow.Sequence,1_13,NA,NA,completion,5212.38,170270,170264.66,170281.3,175493.68,175495,2023-09-17T11:15:20Z,175510.32,Beweis,ushahidi,s,marudio,kizuizi,mtendaji,NA,NA,NA,NULL,NA,NA,NA,NA,NA,NA,NA,NA,NA,NA,NA,NA,NA,NA,NA,NA,NA,NA,NA
7158d,Deep Question,html.Page,1_14_0_0,NA,NA,form submission,3901.68,175497,175493.68,175510.32,179412,179412,2023-09-17T11:15:24Z,179423.76,Widerstand,usulubu,d,kusababisha,mwalimu,mwenendo,wi,NA,NA,NULL,NA,NA,NA,NA,NA,NA,NA,NA,NA,NA,NA,NA,NA,NA,NA,NA,NA,NA,NA
7158d,Save data screen,canvas.Screen,1_14_0_1,NA,NA,timeout,499.59999999998,179415,179408.52,179423.76,179906.7,179908,2023-09-17T11:15:25Z,179923.36,Widerstand,usulubu,d,kusababisha,mwalimu,mwenendo,NA,NA,0,NULL,NA,NA,NA,NA,NA,NA,NA,NA,NA,NA,NA,NA,NA,NA,NA,NA,NA,NA,NA
7158d,deep,flow.Sequence,1_14_0,NA,NA,completion,4396.38,175496,175493.68,175510.32,179906.7,179908,2023-09-17T11:15:25Z,179923.36,Widerstand,usulubu,d,kusababisha,mwalimu,mwenendo,NA,NA,NA,NULL,NA,NA,NA,NA,NA,NA,NA,NA,NA,NA,NA,NA,NA,NA,NA,NA,NA,NA,NA
7158d,task,flow.Sequence,1_14,NA,NA,completion,4396.38,175496,175493.68,175510.32,179906.7,179908,2023-09-17T11:15:25Z,179923.36,Widerstand,usulubu,d,kusababisha,mwalimu,mwenendo,NA,NA,NA,NULL,NA,NA,NA,NA,NA,NA,NA,NA,NA,NA,NA,NA,NA,NA,NA,NA,NA,NA,NA
7158d,Deep Question,html.Page,1_15_0_0,NA,NA,form submission,4087.64,179909,179906.7,179923.36,184011,184012,2023-09-17T11:15:29Z,184019.96,Gelegenheit,wakati,s,mchanganyiko,kipaumbele,kushuku,ge,NA,NA,NULL,NA,NA,NA,NA,NA,NA,NA,NA,NA,NA,NA,NA,NA,NA,NA,NA,NA,NA,NA
7158d,Save data screen,canvas.Screen,1_15_0_1,NA,NA,timeout,499.58000000002,184016,184008.54,184019.96,184502.9,184504,2023-09-17T11:15:29Z,184519.54,Gelegenheit,wakati,s,mchanganyiko,kipaumbele,kushuku,NA,NA,0,NULL,NA,NA,NA,NA,NA,NA,NA,NA,NA,NA,NA,NA,NA,NA,NA,NA,NA,NA,NA
7158d,deep,flow.Sequence,1_15_0,NA,NA,completion,4579.54,179909,179906.7,179923.36,184502.9,184505,2023-09-17T11:15:29Z,184519.54,Gelegenheit,wakati,s,mchanganyiko,kipaumbele,kushuku,NA,NA,NA,NULL,NA,NA,NA,NA,NA,NA,NA,NA,NA,NA,NA,NA,NA,NA,NA,NA,NA,NA,NA
7158d,task,flow.Sequence,1_15,NA,NA,completion,4579.54,179908,179906.7,179923.36,184502.9,184505,2023-09-17T11:15:29Z,184519.54,Gelegenheit,wakati,s,mchanganyiko,kipaumbele,kushuku,NA,NA,NA,NULL,NA,NA,NA,NA,NA,NA,NA,NA,NA,NA,NA,NA,NA,NA,NA,NA,NA,NA,NA
7158d,retrieval block 1 (cued recall),flow.Loop,1,NA,NA,completion,147378.62,37073,37086.82,37124.28,184502.9,184506,2023-09-17T11:15:29Z,184519.54,NA,NA,NA,NA,NA,NA,NA,NA,NA,NULL,NA,NA,NA,NA,NA,NA,NA,NA,NA,NA,NA,NA,NA,NA,NA,NA,NA,NA,NA
7158d,Shallow Question,html.Page,2_0_0_0,NA,NA,form submission,6649.46,184508,184502.9,184519.54,191169,191169,2023-09-17T11:15:36Z,191180.74,Wettbewerb,ushindani,s,mapendezi,kichocheo,ubaguzi,ushindani,NA,NA,"c(""distractor1"", ""distractor2"", ""distractor3"")",NA,NA,NA,NA,NA,NA,NA,NA,NA,NA,NA,NA,NA,NA,NA,NA,NA,NA,NA
7158d,Save data screen,canvas.Screen,2_0_0_1,NA,NA,timeout,499.62,191171,191164.7,191180.74,191663.7,191664,2023-09-17T11:15:37Z,191680.36,Wettbewerb,ushindani,s,mapendezi,kichocheo,ubaguzi,NA,NA,1,"c(""distractor1"", ""distractor2"", ""distractor3"")",NA,NA,NA,NA,NA,NA,NA,NA,NA,NA,NA,NA,NA,NA,NA,NA,NA,NA,NA
7158d,shallow,flow.Sequence,2_0_0,NA,NA,completion,7144.16,184508,184502.9,184519.54,191663.7,191665,2023-09-17T11:15:37Z,191680.36,Wettbewerb,ushindani,s,mapendezi,kichocheo,ubaguzi,NA,NA,NA,"c(""distractor1"", ""distractor2"", ""distractor3"")",NA,NA,NA,NA,NA,NA,NA,NA,NA,NA,NA,NA,NA,NA,NA,NA,NA,NA,NA
7158d,task,flow.Sequence,2_0,NA,NA,completion,7144.16,184508,184502.9,184519.54,191663.7,191666,2023-09-17T11:15:37Z,191680.36,Wettbewerb,ushindani,s,mapendezi,kichocheo,ubaguzi,NA,NA,NA,"c(""distractor1"", ""distractor2"", ""distractor3"")",NA,NA,NA,NA,NA,NA,NA,NA,NA,NA,NA,NA,NA,NA,NA,NA,NA,NA,NA
7158d,Shallow Question,html.Page,2_1_0_0,NA,NA,form submission,4090.64,191667,191663.7,191680.36,195771,195771,2023-09-17T11:15:41Z,195776.94,Ausschluss,kutengwa,s,ununuzi,taratibu,madeni,kutengwa,NA,NA,"c(""distractor1"", ""distractor2"", ""distractor3"")",NA,NA,NA,NA,NA,NA,NA,NA,NA,NA,NA,NA,NA,NA,NA,NA,NA,NA,NA
7158d,Save data screen,canvas.Screen,2_1_0_1,NA,NA,timeout,499.62,195774,195768.68,195776.94,196259.9,196260,2023-09-17T11:15:41Z,196276.56,Ausschluss,kutengwa,s,ununuzi,taratibu,madeni,NA,NA,1,"c(""distractor1"", ""distractor2"", ""distractor3"")",NA,NA,NA,NA,NA,NA,NA,NA,NA,NA,NA,NA,NA,NA,NA,NA,NA,NA,NA
7158d,shallow,flow.Sequence,2_1_0,NA,NA,completion,4579.54,191667,191663.7,191680.36,196259.9,196261,2023-09-17T11:15:41Z,196276.56,Ausschluss,kutengwa,s,ununuzi,taratibu,madeni,NA,NA,NA,"c(""distractor1"", ""distractor2"", ""distractor3"")",NA,NA,NA,NA,NA,NA,NA,NA,NA,NA,NA,NA,NA,NA,NA,NA,NA,NA,NA
7158d,task,flow.Sequence,2_1,NA,NA,completion,4579.54,191666,191663.7,191680.36,196259.9,196262,2023-09-17T11:15:41Z,196276.56,Ausschluss,kutengwa,s,ununuzi,taratibu,madeni,NA,NA,NA,"c(""distractor1"", ""distractor2"", ""distractor3"")",NA,NA,NA,NA,NA,NA,NA,NA,NA,NA,NA,NA,NA,NA,NA,NA,NA,NA,NA
7158d,Shallow Question,html.Page,2_2_0_0,NA,NA,form submission,9930.44,196262,196259.9,196276.56,206207,206210,2023-09-17T11:15:51Z,206218.34,Sympathie,mapendano,d,dhamiria,fungamano,maazimio,mapendano,NA,NA,"c(""distractor1"", ""distractor2"", ""distractor3"")",NA,NA,NA,NA,NA,NA,NA,NA,NA,NA,NA,NA,NA,NA,NA,NA,NA,NA,NA
7158d,Save data screen,canvas.Screen,2_2_0_1,NA,NA,timeout,499.64000000001,206217,206202.46,206218.34,206701.32,206703,2023-09-17T11:15:52Z,206717.98,Sympathie,mapendano,d,dhamiria,fungamano,maazimio,NA,NA,1,"c(""distractor1"", ""distractor2"", ""distractor3"")",NA,NA,NA,NA,NA,NA,NA,NA,NA,NA,NA,NA,NA,NA,NA,NA,NA,NA,NA
7158d,shallow,flow.Sequence,2_2_0,NA,NA,completion,10424.76,196262,196259.9,196276.56,206701.32,206704,2023-09-17T11:15:52Z,206717.98,Sympathie,mapendano,d,dhamiria,fungamano,maazimio,NA,NA,NA,"c(""distractor1"", ""distractor2"", ""distractor3"")",NA,NA,NA,NA,NA,NA,NA,NA,NA,NA,NA,NA,NA,NA,NA,NA,NA,NA,NA
7158d,task,flow.Sequence,2_2,NA,NA,completion,10424.76,196262,196259.9,196276.56,206701.32,206704,2023-09-17T11:15:52Z,206717.98,Sympathie,mapendano,d,dhamiria,fungamano,maazimio,NA,NA,NA,"c(""distractor1"", ""distractor2"", ""distractor3"")",NA,NA,NA,NA,NA,NA,NA,NA,NA,NA,NA,NA,NA,NA,NA,NA,NA,NA,NA
7158d,Shallow Question,html.Page,2_3_0_0,NA,NA,form submission,13414.02,206705,206701.32,206717.98,220132,220134,2023-09-17T11:16:05Z,220140.26,Auftrag,uagizaji,s,ghanima,kuzingatia,msukani,uagizaji,NA,NA,"c(""distractor1"", ""distractor2"", ""distractor3"")",NA,NA,NA,NA,NA,NA,NA,NA,NA,NA,NA,NA,NA,NA,NA,NA,NA,NA,NA
7158d,Save data screen,canvas.Screen,2_3_0_1,NA,NA,timeout,499.57999999999,220143,220126.26,220140.26,220623.2,220625,2023-09-17T11:16:06Z,220639.84,Auftrag,uagizaji,s,ghanima,kuzingatia,msukani,NA,NA,1,"c(""distractor1"", ""distractor2"", ""distractor3"")",NA,NA,NA,NA,NA,NA,NA,NA,NA,NA,NA,NA,NA,NA,NA,NA,NA,NA,NA
7158d,shallow,flow.Sequence,2_3_0,NA,NA,completion,13905.22,206705,206701.32,206717.98,220623.2,220626,2023-09-17T11:16:06Z,220639.84,Auftrag,uagizaji,s,ghanima,kuzingatia,msukani,NA,NA,NA,"c(""distractor1"", ""distractor2"", ""distractor3"")",NA,NA,NA,NA,NA,NA,NA,NA,NA,NA,NA,NA,NA,NA,NA,NA,NA,NA,NA
7158d,task,flow.Sequence,2_3,NA,NA,completion,13905.22,206705,206701.32,206717.98,220623.2,220627,2023-09-17T11:16:06Z,220639.84,Auftrag,uagizaji,s,ghanima,kuzingatia,msukani,NA,NA,NA,"c(""distractor1"", ""distractor2"", ""distractor3"")",NA,NA,NA,NA,NA,NA,NA,NA,NA,NA,NA,NA,NA,NA,NA,NA,NA,NA,NA
7158d,Shallow Question,html.Page,2_4_0_0,NA,NA,form submission,8143.16,220628,220623.2,220639.84,228783,228784,2023-09-17T11:16:14Z,228783.14,Beweis,ushahidi,s,marudio,kizuizi,mtendaji,ushahidi,NA,NA,"c(""distractor1"", ""distractor2"", ""distractor3"")",NA,NA,NA,NA,NA,NA,NA,NA,NA,NA,NA,NA,NA,NA,NA,NA,NA,NA,NA
7158d,Save data screen,canvas.Screen,2_4_0_1,NA,NA,timeout,499.57999999999,228786,228780.06,228783.14,229266.06,229267,2023-09-17T11:16:14Z,229282.72,Beweis,ushahidi,s,marudio,kizuizi,mtendaji,NA,NA,1,"c(""distractor1"", ""distractor2"", ""distractor3"")",NA,NA,NA,NA,NA,NA,NA,NA,NA,NA,NA,NA,NA,NA,NA,NA,NA,NA,NA
7158d,shallow,flow.Sequence,2_4_0,NA,NA,completion,8626.22,220628,220623.2,220639.84,229266.06,229268,2023-09-17T11:16:14Z,229282.72,Beweis,ushahidi,s,marudio,kizuizi,mtendaji,NA,NA,NA,"c(""distractor1"", ""distractor2"", ""distractor3"")",NA,NA,NA,NA,NA,NA,NA,NA,NA,NA,NA,NA,NA,NA,NA,NA,NA,NA,NA
7158d,task,flow.Sequence,2_4,NA,NA,completion,8626.22,220627,220623.2,220639.84,229266.06,229269,2023-09-17T11:16:14Z,229282.72,Beweis,ushahidi,s,marudio,kizuizi,mtendaji,NA,NA,NA,"c(""distractor1"", ""distractor2"", ""distractor3"")",NA,NA,NA,NA,NA,NA,NA,NA,NA,NA,NA,NA,NA,NA,NA,NA,NA,NA,NA
7158d,Shallow Question,html.Page,2_5_0_0,NA,NA,form submission,8468.28,229270,229266.06,229282.72,237751,237752,2023-09-17T11:16:23Z,237759.04,Vorsorge,tahadhari,s,ufafanuzi,makini,mashambani,tahadhari,NA,NA,"c(""distractor1"", ""distractor2"", ""distractor3"")",NA,NA,NA,NA,NA,NA,NA,NA,NA,NA,NA,NA,NA,NA,NA,NA,NA,NA,NA
7158d,Save data screen,canvas.Screen,2_5_0_1,NA,NA,timeout,499.66,237753,237748.08,237759.04,238242.04,238243,2023-09-17T11:16:23Z,238258.7,Vorsorge,tahadhari,s,ufafanuzi,makini,mashambani,NA,NA,1,"c(""distractor1"", ""distractor2"", ""distractor3"")",NA,NA,NA,NA,NA,NA,NA,NA,NA,NA,NA,NA,NA,NA,NA,NA,NA,NA,NA
7158d,shallow,flow.Sequence,2_5_0,NA,NA,completion,8959.32,229269,229266.06,229282.72,238242.04,238244,2023-09-17T11:16:23Z,238258.7,Vorsorge,tahadhari,s,ufafanuzi,makini,mashambani,NA,NA,NA,"c(""distractor1"", ""distractor2"", ""distractor3"")",NA,NA,NA,NA,NA,NA,NA,NA,NA,NA,NA,NA,NA,NA,NA,NA,NA,NA,NA
7158d,task,flow.Sequence,2_5,NA,NA,completion,8959.32,229269,229266.06,229282.72,238242.04,238245,2023-09-17T11:16:23Z,238258.7,Vorsorge,tahadhari,s,ufafanuzi,makini,mashambani,NA,NA,NA,"c(""distractor1"", ""distractor2"", ""distractor3"")",NA,NA,NA,NA,NA,NA,NA,NA,NA,NA,NA,NA,NA,NA,NA,NA,NA,NA,NA
7158d,Shallow Question,html.Page,2_6_0_0,NA,NA,form submission,7476.3,238246,238242.04,238258.7,245735,245735,2023-09-17T11:16:31Z,245735.84,Symbol,kielezo,d,kinyume,nderemo,utayari,kielezo,NA,NA,"c(""distractor1"", ""distractor2"", ""distractor3"")",NA,NA,NA,NA,NA,NA,NA,NA,NA,NA,NA,NA,NA,NA,NA,NA,NA,NA,NA
7158d,Save data screen,canvas.Screen,2_6_0_1,NA,NA,timeout,499.60000000001,245738,245732.32,245735.84,246218.78,246220,2023-09-17T11:16:31Z,246235.44,Symbol,kielezo,d,kinyume,nderemo,utayari,NA,NA,1,"c(""distractor1"", ""distractor2"", ""distractor3"")",NA,NA,NA,NA,NA,NA,NA,NA,NA,NA,NA,NA,NA,NA,NA,NA,NA,NA,NA
7158d,shallow,flow.Sequence,2_6_0,NA,NA,completion,7960.08,238245,238242.04,238258.7,246218.78,246221,2023-09-17T11:16:31Z,246235.44,Symbol,kielezo,d,kinyume,nderemo,utayari,NA,NA,NA,"c(""distractor1"", ""distractor2"", ""distractor3"")",NA,NA,NA,NA,NA,NA,NA,NA,NA,NA,NA,NA,NA,NA,NA,NA,NA,NA,NA
7158d,task,flow.Sequence,2_6,NA,NA,completion,7960.08,238245,238242.04,238258.7,246218.78,246221,2023-09-17T11:16:31Z,246235.44,Symbol,kielezo,d,kinyume,nderemo,utayari,NA,NA,NA,"c(""distractor1"", ""distractor2"", ""distractor3"")",NA,NA,NA,NA,NA,NA,NA,NA,NA,NA,NA,NA,NA,NA,NA,NA,NA,NA,NA
7158d,Shallow Question,html.Page,2_7_0_0,NA,NA,form submission,4273.56,246222,246218.78,246235.44,250509,250510,2023-09-17T11:16:35Z,250515.2,Zufall,kikuti,d,kukosekana,uchoraji,leseni,kikuti,NA,NA,"c(""distractor1"", ""distractor2"", ""distractor3"")",NA,NA,NA,NA,NA,NA,NA,NA,NA,NA,NA,NA,NA,NA,NA,NA,NA,NA,NA
7158d,Save data screen,canvas.Screen,2_7_0_1,NA,NA,timeout,499.62,250512,250506.2,250515.2,250998.18,250999,2023-09-17T11:16:36Z,251014.82,Zufall,kikuti,d,kukosekana,uchoraji,leseni,NA,NA,1,"c(""distractor1"", ""distractor2"", ""distractor3"")",NA,NA,NA,NA,NA,NA,NA,NA,NA,NA,NA,NA,NA,NA,NA,NA,NA,NA,NA
7158d,shallow,flow.Sequence,2_7_0,NA,NA,completion,4762.74,246222,246218.78,246235.44,250998.18,251001,2023-09-17T11:16:36Z,251014.82,Zufall,kikuti,d,kukosekana,uchoraji,leseni,NA,NA,NA,"c(""distractor1"", ""distractor2"", ""distractor3"")",NA,NA,NA,NA,NA,NA,NA,NA,NA,NA,NA,NA,NA,NA,NA,NA,NA,NA,NA
7158d,task,flow.Sequence,2_7,NA,NA,completion,4762.74,246222,246218.78,246235.44,250998.18,251001,2023-09-17T11:16:36Z,251014.82,Zufall,kikuti,d,kukosekana,uchoraji,leseni,NA,NA,NA,"c(""distractor1"", ""distractor2"", ""distractor3"")",NA,NA,NA,NA,NA,NA,NA,NA,NA,NA,NA,NA,NA,NA,NA,NA,NA,NA,NA
7158d,Shallow Question,html.Page,2_8_0_0,NA,NA,form submission,5431.18,251002,250998.18,251014.82,256446,256446,2023-09-17T11:16:41Z,256443.64,Verstand,ufahamivu,d,shakawa,hadhari,mhandisi,ufahamivu,NA,NA,"c(""distractor1"", ""distractor2"", ""distractor3"")",NA,NA,NA,NA,NA,NA,NA,NA,NA,NA,NA,NA,NA,NA,NA,NA,NA,NA,NA
7158d,Save data screen,canvas.Screen,2_8_0_1,NA,NA,timeout,499.63999999998,256448,256440.28,256443.64,256926.64,256927,2023-09-17T11:16:42Z,256943.28,Verstand,ufahamivu,d,shakawa,hadhari,mhandisi,NA,NA,1,"c(""distractor1"", ""distractor2"", ""distractor3"")",NA,NA,NA,NA,NA,NA,NA,NA,NA,NA,NA,NA,NA,NA,NA,NA,NA,NA,NA
7158d,shallow,flow.Sequence,2_8_0,NA,NA,completion,5911.82,251002,250998.18,251014.82,256926.64,256928,2023-09-17T11:16:42Z,256943.28,Verstand,ufahamivu,d,shakawa,hadhari,mhandisi,NA,NA,NA,"c(""distractor1"", ""distractor2"", ""distractor3"")",NA,NA,NA,NA,NA,NA,NA,NA,NA,NA,NA,NA,NA,NA,NA,NA,NA,NA,NA
7158d,task,flow.Sequence,2_8,NA,NA,completion,5911.82,251002,250998.18,251014.82,256926.64,256929,2023-09-17T11:16:42Z,256943.28,Verstand,ufahamivu,d,shakawa,hadhari,mhandisi,NA,NA,NA,"c(""distractor1"", ""distractor2"", ""distractor3"")",NA,NA,NA,NA,NA,NA,NA,NA,NA,NA,NA,NA,NA,NA,NA,NA,NA,NA,NA
7158d,Shallow Question,html.Page,2_9_0_0,NA,NA,form submission,7644.72,256929,256926.64,256943.28,264588,264588,2023-09-17T11:16:50Z,264586.98,Annäherung,maegesho,d,madahili,kujiamini,mapendekezo,mapendekezo,NA,NA,"c(""distractor1"", ""distractor2"", ""distractor3"")",NA,NA,NA,NA,NA,NA,NA,NA,NA,NA,NA,NA,NA,NA,NA,NA,NA,NA,NA
7158d,Save data screen,canvas.Screen,2_9_0_1,NA,NA,timeout,499.58000000002,264590,264584.24,264586.98,265069.9,265071,2023-09-17T11:16:50Z,265086.56,Annäherung,maegesho,d,madahili,kujiamini,mapendekezo,NA,NA,0,"c(""distractor1"", ""distractor2"", ""distractor3"")",NA,NA,NA,NA,NA,NA,NA,NA,NA,NA,NA,NA,NA,NA,NA,NA,NA,NA,NA
7158d,shallow,flow.Sequence,2_9_0,NA,NA,completion,8126.62,256929,256926.64,256943.28,265069.9,265071,2023-09-17T11:16:50Z,265086.56,Annäherung,maegesho,d,madahili,kujiamini,mapendekezo,NA,NA,NA,"c(""distractor1"", ""distractor2"", ""distractor3"")",NA,NA,NA,NA,NA,NA,NA,NA,NA,NA,NA,NA,NA,NA,NA,NA,NA,NA,NA
7158d,task,flow.Sequence,2_9,NA,NA,completion,8126.62,256929,256926.64,256943.28,265069.9,265072,2023-09-17T11:16:50Z,265086.56,Annäherung,maegesho,d,madahili,kujiamini,mapendekezo,NA,NA,NA,"c(""distractor1"", ""distractor2"", ""distractor3"")",NA,NA,NA,NA,NA,NA,NA,NA,NA,NA,NA,NA,NA,NA,NA,NA,NA,NA,NA
7158d,Shallow Question,html.Page,2_10_0_0,NA,NA,form submission,4658.44,265072,265069.9,265086.56,269745,269747,2023-09-17T11:16:55Z,269749.4,Konkurrent,mshindani,s,msemaji,mvutaji,kipukusa,mshindani,NA,NA,"c(""distractor1"", ""distractor2"", ""distractor3"")",NA,NA,NA,NA,NA,NA,NA,NA,NA,NA,NA,NA,NA,NA,NA,NA,NA,NA,NA
7158d,Save data screen,canvas.Screen,2_10_0_1,NA,NA,timeout,499.59999999998,269756,269738.18,269749.4,270232.34,270234,2023-09-17T11:16:55Z,270249,Konkurrent,mshindani,s,msemaji,mvutaji,kipukusa,NA,NA,1,"c(""distractor1"", ""distractor2"", ""distractor3"")",NA,NA,NA,NA,NA,NA,NA,NA,NA,NA,NA,NA,NA,NA,NA,NA,NA,NA,NA
7158d,shallow,flow.Sequence,2_10_0,NA,NA,completion,5145.78,265072,265069.9,265086.56,270232.34,270235,2023-09-17T11:16:55Z,270249,Konkurrent,mshindani,s,msemaji,mvutaji,kipukusa,NA,NA,NA,"c(""distractor1"", ""distractor2"", ""distractor3"")",NA,NA,NA,NA,NA,NA,NA,NA,NA,NA,NA,NA,NA,NA,NA,NA,NA,NA,NA
7158d,task,flow.Sequence,2_10,NA,NA,completion,5145.78,265072,265069.9,265086.56,270232.34,270235,2023-09-17T11:16:55Z,270249,Konkurrent,mshindani,s,msemaji,mvutaji,kipukusa,NA,NA,NA,"c(""distractor1"", ""distractor2"", ""distractor3"")",NA,NA,NA,NA,NA,NA,NA,NA,NA,NA,NA,NA,NA,NA,NA,NA,NA,NA,NA
7158d,Shallow Question,html.Page,2_11_0_0,NA,NA,form submission,11066,270236,270232.34,270249,281315,281315,2023-09-17T11:17:06Z,281323.18,Polizist,msongora,s,simanzi,mandhari,nidhamu,msongora,NA,NA,"c(""distractor1"", ""distractor2"", ""distractor3"")",NA,NA,NA,NA,NA,NA,NA,NA,NA,NA,NA,NA,NA,NA,NA,NA,NA,NA,NA
7158d,Save data screen,canvas.Screen,2_11_0_1,NA,NA,timeout,499.60000000003,281317,281312.1,281323.18,281806.12,281808,2023-09-17T11:17:07Z,281822.78,Polizist,msongora,s,simanzi,mandhari,nidhamu,NA,NA,1,"c(""distractor1"", ""distractor2"", ""distractor3"")",NA,NA,NA,NA,NA,NA,NA,NA,NA,NA,NA,NA,NA,NA,NA,NA,NA,NA,NA
7158d,shallow,flow.Sequence,2_11_0,NA,NA,completion,11557.12,270236,270232.34,270249,281806.12,281808,2023-09-17T11:17:07Z,281822.78,Polizist,msongora,s,simanzi,mandhari,nidhamu,NA,NA,NA,"c(""distractor1"", ""distractor2"", ""distractor3"")",NA,NA,NA,NA,NA,NA,NA,NA,NA,NA,NA,NA,NA,NA,NA,NA,NA,NA,NA
7158d,task,flow.Sequence,2_11,NA,NA,completion,11557.12,270236,270232.34,270249,281806.12,281808,2023-09-17T11:17:07Z,281822.78,Polizist,msongora,s,simanzi,mandhari,nidhamu,NA,NA,NA,"c(""distractor1"", ""distractor2"", ""distractor3"")",NA,NA,NA,NA,NA,NA,NA,NA,NA,NA,NA,NA,NA,NA,NA,NA,NA,NA,NA
7158d,Shallow Question,html.Page,2_12_0_0,NA,NA,form submission,3870.22,281810,281806.12,281822.78,285693,285693,2023-09-17T11:17:11Z,285702.9,Schönheit,kirembo,d,mahojiano,msisimko,jitihadi,kirembo,NA,NA,"c(""distractor1"", ""distractor2"", ""distractor3"")",NA,NA,NA,NA,NA,NA,NA,NA,NA,NA,NA,NA,NA,NA,NA,NA,NA,NA,NA
7158d,Save data screen,canvas.Screen,2_12_0_1,NA,NA,timeout,499.62,285695,285690.08,285702.9,286185.86,286187,2023-09-17T11:17:11Z,286202.52,Schönheit,kirembo,d,mahojiano,msisimko,jitihadi,NA,NA,1,"c(""distractor1"", ""distractor2"", ""distractor3"")",NA,NA,NA,NA,NA,NA,NA,NA,NA,NA,NA,NA,NA,NA,NA,NA,NA,NA,NA
7158d,shallow,flow.Sequence,2_12_0,NA,NA,completion,4363.08,281810,281806.12,281822.78,286185.86,286188,2023-09-17T11:17:11Z,286202.52,Schönheit,kirembo,d,mahojiano,msisimko,jitihadi,NA,NA,NA,"c(""distractor1"", ""distractor2"", ""distractor3"")",NA,NA,NA,NA,NA,NA,NA,NA,NA,NA,NA,NA,NA,NA,NA,NA,NA,NA,NA
7158d,task,flow.Sequence,2_12,NA,NA,completion,4363.08,281809,281806.12,281822.78,286185.86,286191,2023-09-17T11:17:11Z,286202.52,Schönheit,kirembo,d,mahojiano,msisimko,jitihadi,NA,NA,NA,"c(""distractor1"", ""distractor2"", ""distractor3"")",NA,NA,NA,NA,NA,NA,NA,NA,NA,NA,NA,NA,NA,NA,NA,NA,NA,NA,NA
7158d,Shallow Question,html.Page,2_13_0_0,NA,NA,form submission,5055.48,286193,286185.86,286202.52,291258,291258,2023-09-17T11:17:16Z,291264.98,Zuwachs,nyongeza,d,matilaba,udhibiti,hudhurio,nyongeza,NA,NA,"c(""distractor1"", ""distractor2"", ""distractor3"")",NA,NA,NA,NA,NA,NA,NA,NA,NA,NA,NA,NA,NA,NA,NA,NA,NA,NA,NA
7158d,Save data screen,canvas.Screen,2_13_0_1,NA,NA,timeout,499.62,291260,291254.2,291264.98,291747.94,291749,2023-09-17T11:17:17Z,291764.6,Zuwachs,nyongeza,d,matilaba,udhibiti,hudhurio,NA,NA,1,"c(""distractor1"", ""distractor2"", ""distractor3"")",NA,NA,NA,NA,NA,NA,NA,NA,NA,NA,NA,NA,NA,NA,NA,NA,NA,NA,NA
7158d,shallow,flow.Sequence,2_13_0,NA,NA,completion,5545.42,286192,286185.86,286202.52,291747.94,291750,2023-09-17T11:17:17Z,291764.6,Zuwachs,nyongeza,d,matilaba,udhibiti,hudhurio,NA,NA,NA,"c(""distractor1"", ""distractor2"", ""distractor3"")",NA,NA,NA,NA,NA,NA,NA,NA,NA,NA,NA,NA,NA,NA,NA,NA,NA,NA,NA
7158d,task,flow.Sequence,2_13,NA,NA,completion,5545.42,286191,286185.86,286202.52,291747.94,291750,2023-09-17T11:17:17Z,291764.6,Zuwachs,nyongeza,d,matilaba,udhibiti,hudhurio,NA,NA,NA,"c(""distractor1"", ""distractor2"", ""distractor3"")",NA,NA,NA,NA,NA,NA,NA,NA,NA,NA,NA,NA,NA,NA,NA,NA,NA,NA,NA
7158d,Shallow Question,html.Page,2_14_0_0,NA,NA,form submission,5942.4,291751,291747.94,291764.6,297707,297707,2023-09-17T11:17:23Z,297726.38,Widerstand,usulubu,d,kusababisha,mwalimu,mwenendo,usulubu,NA,NA,"c(""distractor1"", ""distractor2"", ""distractor3"")",NA,NA,NA,NA,NA,NA,NA,NA,NA,NA,NA,NA,NA,NA,NA,NA,NA,NA,NA
7158d,Save data screen,canvas.Screen,2_14_0_1,NA,NA,timeout,499.56,297708,297709.72,297726.38,298209.3,298211,2023-09-17T11:17:23Z,298225.94,Widerstand,usulubu,d,kusababisha,mwalimu,mwenendo,NA,NA,1,"c(""distractor1"", ""distractor2"", ""distractor3"")",NA,NA,NA,NA,NA,NA,NA,NA,NA,NA,NA,NA,NA,NA,NA,NA,NA,NA,NA
7158d,shallow,flow.Sequence,2_14_0,NA,NA,completion,6444.7,291751,291747.94,291764.6,298209.3,298212,2023-09-17T11:17:23Z,298225.94,Widerstand,usulubu,d,kusababisha,mwalimu,mwenendo,NA,NA,NA,"c(""distractor1"", ""distractor2"", ""distractor3"")",NA,NA,NA,NA,NA,NA,NA,NA,NA,NA,NA,NA,NA,NA,NA,NA,NA,NA,NA
7158d,task,flow.Sequence,2_14,NA,NA,completion,6444.7,291751,291747.94,291764.6,298209.3,298212,2023-09-17T11:17:23Z,298225.94,Widerstand,usulubu,d,kusababisha,mwalimu,mwenendo,NA,NA,NA,"c(""distractor1"", ""distractor2"", ""distractor3"")",NA,NA,NA,NA,NA,NA,NA,NA,NA,NA,NA,NA,NA,NA,NA,NA,NA,NA,NA
7158d,Shallow Question,html.Page,2_15_0_0,NA,NA,form submission,11015.06,298213,298209.3,298225.94,309241,309242,2023-09-17T11:17:34Z,309250.18,Gelegenheit,wakati,s,mchanganyiko,kipaumbele,kushuku,wakati,NA,NA,"c(""distractor1"", ""distractor2"", ""distractor3"")",NA,NA,NA,NA,NA,NA,NA,NA,NA,NA,NA,NA,NA,NA,NA,NA,NA,NA,NA
7158d,Save data screen,canvas.Screen,2_15_0_1,NA,NA,timeout,499.62,309244,309238.1,309250.18,309733.14,309734,2023-09-17T11:17:35Z,309749.8,Gelegenheit,wakati,s,mchanganyiko,kipaumbele,kushuku,NA,NA,1,"c(""distractor1"", ""distractor2"", ""distractor3"")",NA,NA,NA,NA,NA,NA,NA,NA,NA,NA,NA,NA,NA,NA,NA,NA,NA,NA,NA
7158d,shallow,flow.Sequence,2_15_0,NA,NA,completion,11507.2,298213,298209.3,298225.94,309733.14,309735,2023-09-17T11:17:35Z,309749.8,Gelegenheit,wakati,s,mchanganyiko,kipaumbele,kushuku,NA,NA,NA,"c(""distractor1"", ""distractor2"", ""distractor3"")",NA,NA,NA,NA,NA,NA,NA,NA,NA,NA,NA,NA,NA,NA,NA,NA,NA,NA,NA
7158d,task,flow.Sequence,2_15,NA,NA,completion,11507.2,298213,298209.3,298225.94,309733.14,309736,2023-09-17T11:17:35Z,309749.8,Gelegenheit,wakati,s,mchanganyiko,kipaumbele,kushuku,NA,NA,NA,"c(""distractor1"", ""distractor2"", ""distractor3"")",NA,NA,NA,NA,NA,NA,NA,NA,NA,NA,NA,NA,NA,NA,NA,NA,NA,NA,NA
7158d,retrieval block 2 (multiple choice),flow.Loop,2,NA,NA,completion,125213.6,184507,184502.9,184519.54,309733.14,309736,2023-09-17T11:17:35Z,309749.8,NA,NA,NA,NA,NA,NA,NA,NA,NA,"c(""distractor1"", ""distractor2"", ""distractor3"")",NA,NA,NA,NA,NA,NA,NA,NA,NA,NA,NA,NA,NA,NA,NA,NA,NA,NA,NA
7158d,End,canvas.Screen,3,NA,keypress(Space),response,3599.2,309737,309733.14,309749.8,313349,313358,2023-09-17T11:17:38Z,313363.54,NA,NA,NA,NA,NA,NA,NA,NA,NA,NULL,NA,NA,NA,NA,NA,NA,NA,NA,NA,NA,NA,NA,NA,NA,NA,NA,NA,NA,NA
7158d,root,flow.Sequence,NA,NA,NA,completion,308648.08,4639,4634.32,4700.92,313349,313359,2023-09-17T11:17:38Z,313363.54,NA,NA,NA,NA,NA,NA,NA,NA,NA,NULL,NA,NA,NA,NA,NA,NA,NA,NA,NA,NA,NA,NA,NA,NA,NA,NA,NA,NA,NA
