observation,sender,sender_type,sender_id,response,response_action,ended_on,duration,time_run,time_render,time_show,time_end,time_commit,timestamp,time_switch,distractors,german,swahili,enc,distractor1,distractor2,distractor3,response_2,x,correct,x_2,url_vp,url_sess,meta_labjs_version,meta_location,meta_user_agent,meta_platform,meta_language,meta_locale,meta_time_zone,meta_timezone_offset,meta_screen_width,meta_screen_height,meta_scroll_width,meta_scroll_height,meta_window_inner_width,meta_window_inner_height,meta_device_pixel_ratio,meta_labjs_build_flavor,meta_labjs_build_commit
70923,Introduction general,canvas.Screen,0,weiter,keypress(q),response,79397.085000003,1358.200000003,928.963,1630.615,81027.700000003,81061,2023-03-29T11:56:06Z,81060.935,NULL,NA,NA,NA,NA,NA,NA,NA,NA,NA,NA,122,1,20.2.4,https://neurocog.fernuni.ch/studies/vweber/encoding_immediate/index.html?vp=122&sess=1,"Mozilla/5.0 (Macintosh; Intel Mac OS X 10_15_7) AppleWebKit/537.36 (KHTML, like Gecko) Chrome/111.0.0.0 Safari/537.36",MacIntel,de-CH,de,Europe/Zurich,-120,1440,900,1174,680,1174,728,1,production,f5b4a49f956347addd546a832a3327688c2c0fef
70923,Introduction practice,canvas.Screen,1_0,NA,keypress(Space),response,30445.465000006,81061.5,81044.229,81060.935,111506.40000001,111511.90000001,2023-03-29T11:56:36Z,111524.561,NULL,NA,NA,NA,NA,NA,NA,NA,NA,NA,NA,NA,NA,NA,NA,NA,NA,NA,NA,NA,NA,NA,NA,NA,NA,NA,NA,NA,NA,NA
70923,Deep Question,html.Page,1_1_0_0_0,NA,NA,form submission,16752.939,111512.5,111507.855,111524.561,128277.5,128277.8,2023-03-29T11:56:53Z,128303.557,"c(""distractor1"", ""distractor2"", ""distractor3"")",Schatten,kivuli,d,NA,NA,NA,k,NA,NA,NA,NA,NA,NA,NA,NA,NA,NA,NA,NA,NA,NA,NA,NA,NA,NA,NA,NA,NA,NA
70923,"""Richtig""-Screen",canvas.Screen,1_1_0_0_1,NA,NA,skipped,NA,128280.8,NA,NA,128277.5,128281.10000001,2023-03-29T11:56:53Z,128303.557,"c(""distractor1"", ""distractor2"", ""distractor3"")",Schatten,kivuli,d,NA,NA,NA,NA,NA,NA,NA,NA,NA,NA,NA,NA,NA,NA,NA,NA,NA,NA,NA,NA,NA,NA,NA,NA,NA,NA
70923,"""Falsch""-Screen",canvas.Screen,1_1_0_0_2,NA,NA,timeout,4995.094,128283.7,128253.439,128303.557,133281.945,133290.5,2023-03-29T11:56:58Z,133298.651,"c(""distractor1"", ""distractor2"", ""distractor3"")",Schatten,kivuli,d,NA,NA,NA,NA,NA,0,NA,NA,NA,NA,NA,NA,NA,NA,NA,NA,NA,NA,NA,NA,NA,NA,NA,NA,NA,NA
70923,deep,flow.Sequence,1_1_0_0,NA,NA,completion,21757.384,111512.5,111507.855,111524.561,133281.945,133291,2023-03-29T11:56:58Z,133298.651,"c(""distractor1"", ""distractor2"", ""distractor3"")",Schatten,kivuli,d,NA,NA,NA,NA,NA,NA,NA,NA,NA,NA,NA,NA,NA,NA,NA,NA,NA,NA,NA,NA,NA,NA,NA,NA,NA,NA
70923,shallow,flow.Sequence,1_1_0_1,NA,NA,skipped,NA,133291.2,NA,NA,133281.945,133291.40000001,2023-03-29T11:56:58Z,133298.651,"c(""distractor1"", ""distractor2"", ""distractor3"")",Schatten,kivuli,d,NA,NA,NA,NA,NA,NA,NA,NA,NA,NA,NA,NA,NA,NA,NA,NA,NA,NA,NA,NA,NA,NA,NA,NA,NA,NA
70923,task,flow.Sequence,1_1_0,NA,NA,completion,21757.384,111512.40000001,111507.855,111524.561,133281.945,133291.7,2023-03-29T11:56:58Z,133298.651,"c(""distractor1"", ""distractor2"", ""distractor3"")",Schatten,kivuli,d,NA,NA,NA,NA,NA,NA,NA,NA,NA,NA,NA,NA,NA,NA,NA,NA,NA,NA,NA,NA,NA,NA,NA,NA,NA,NA
70923,deep,flow.Sequence,1_1_1_0,NA,NA,skipped,NA,133292,NA,NA,133281.945,133292.2,2023-03-29T11:56:58Z,133298.651,"c(""distractor1"", ""distractor2"", ""distractor3"")",Kritik,lawama,s,dereva,nafasi,mawazo,NA,NA,NA,NA,NA,NA,NA,NA,NA,NA,NA,NA,NA,NA,NA,NA,NA,NA,NA,NA,NA,NA,NA
70923,Shallow Question,html.Page,1_1_1_1_0,NA,NA,form submission,23297.749000006,133292.40000001,133281.945,133298.651,156596.40000001,156596.8,2023-03-29T11:57:21Z,156601.215,"c(""distractor1"", ""distractor2"", ""distractor3"")",Kritik,lawama,s,dereva,nafasi,mawazo,lawama,NA,NA,NA,NA,NA,NA,NA,NA,NA,NA,NA,NA,NA,NA,NA,NA,NA,NA,NA,NA,NA,NA
70923,"""Richtig""-Screen",canvas.Screen,1_1_1_1_1,NA,NA,timeout,4995.094,156601.8,156584.509,156601.215,161579.603,161585.5,2023-03-29T11:57:26Z,161596.309,"c(""distractor1"", ""distractor2"", ""distractor3"")",Kritik,lawama,s,dereva,nafasi,mawazo,NA,NA,1,NA,NA,NA,NA,NA,NA,NA,NA,NA,NA,NA,NA,NA,NA,NA,NA,NA,NA,NA,NA
70923,"""Falsch""-Screen",canvas.Screen,1_1_1_1_2,NA,NA,skipped,NA,161590.8,NA,NA,161579.603,161591.10000001,2023-03-29T11:57:26Z,161596.309,"c(""distractor1"", ""distractor2"", ""distractor3"")",Kritik,lawama,s,dereva,nafasi,mawazo,NA,NA,NA,NA,NA,NA,NA,NA,NA,NA,NA,NA,NA,NA,NA,NA,NA,NA,NA,NA,NA,NA,NA
70923,shallow,flow.Sequence,1_1_1_1,NA,NA,completion,28280.952,133292.40000001,133281.945,133298.651,161579.603,161591.60000001,2023-03-29T11:57:26Z,161596.309,"c(""distractor1"", ""distractor2"", ""distractor3"")",Kritik,lawama,s,dereva,nafasi,mawazo,NA,NA,NA,NA,NA,NA,NA,NA,NA,NA,NA,NA,NA,NA,NA,NA,NA,NA,NA,NA,NA,NA,NA
70923,task,flow.Sequence,1_1_1,NA,NA,completion,28280.952,133291.90000001,133281.945,133298.651,161579.603,161591.8,2023-03-29T11:57:26Z,161596.309,"c(""distractor1"", ""distractor2"", ""distractor3"")",Kritik,lawama,s,dereva,nafasi,mawazo,NA,NA,NA,NA,NA,NA,NA,NA,NA,NA,NA,NA,NA,NA,NA,NA,NA,NA,NA,NA,NA,NA,NA
70923,deep,flow.Sequence,1_1_2_0,NA,NA,skipped,NA,161592.10000001,NA,NA,161579.603,161592.60000001,2023-03-29T11:57:26Z,161596.309,"c(""distractor1"", ""distractor2"", ""distractor3"")",Rückhalt,msaada,s,muhula,auwali,kiwimbe,NA,NA,NA,NA,NA,NA,NA,NA,NA,NA,NA,NA,NA,NA,NA,NA,NA,NA,NA,NA,NA,NA,NA
70923,Shallow Question,html.Page,1_1_2_1_0,NA,NA,form submission,7834.191,161593,161579.603,161596.309,169430.5,169431,2023-03-29T11:57:34Z,169439.881,"c(""distractor1"", ""distractor2"", ""distractor3"")",Rückhalt,msaada,s,muhula,auwali,kiwimbe,kiwimbe,NA,NA,NA,NA,NA,NA,NA,NA,NA,NA,NA,NA,NA,NA,NA,NA,NA,NA,NA,NA,NA,NA
70923,"""Richtig""-Screen",canvas.Screen,1_1_2_1_1,NA,NA,skipped,NA,169435.3,NA,NA,169430.5,169435.60000001,2023-03-29T11:57:34Z,169439.881,"c(""distractor1"", ""distractor2"", ""distractor3"")",Rückhalt,msaada,s,muhula,auwali,kiwimbe,NA,NA,NA,NA,NA,NA,NA,NA,NA,NA,NA,NA,NA,NA,NA,NA,NA,NA,NA,NA,NA,NA,NA
70923,"""Falsch""-Screen",canvas.Screen,1_1_2_1_2,NA,NA,timeout,4995.094,169437.5,169423.175,169439.881,174418.269,174422,2023-03-29T11:57:39Z,174434.975,"c(""distractor1"", ""distractor2"", ""distractor3"")",Rückhalt,msaada,s,muhula,auwali,kiwimbe,NA,NA,0,NA,NA,NA,NA,NA,NA,NA,NA,NA,NA,NA,NA,NA,NA,NA,NA,NA,NA,NA,NA
70923,shallow,flow.Sequence,1_1_2_1,NA,NA,completion,12821.96,161593,161579.603,161596.309,174418.269,174422.5,2023-03-29T11:57:39Z,174434.975,"c(""distractor1"", ""distractor2"", ""distractor3"")",Rückhalt,msaada,s,muhula,auwali,kiwimbe,NA,NA,NA,NA,NA,NA,NA,NA,NA,NA,NA,NA,NA,NA,NA,NA,NA,NA,NA,NA,NA,NA,NA
70923,task,flow.Sequence,1_1_2,NA,NA,completion,12821.96,161592,161579.603,161596.309,174418.269,174422.8,2023-03-29T11:57:39Z,174434.975,"c(""distractor1"", ""distractor2"", ""distractor3"")",Rückhalt,msaada,s,muhula,auwali,kiwimbe,NA,NA,NA,NA,NA,NA,NA,NA,NA,NA,NA,NA,NA,NA,NA,NA,NA,NA,NA,NA,NA,NA,NA
70923,deep,flow.Sequence,1_1_3_0,NA,NA,skipped,NA,174423.10000001,NA,NA,174418.269,174423.3,2023-03-29T11:57:39Z,174434.975,"c(""distractor1"", ""distractor2"", ""distractor3"")",Gegenwart,hadhara,s,katiba,jokofu,mikopo,NA,NA,NA,NA,NA,NA,NA,NA,NA,NA,NA,NA,NA,NA,NA,NA,NA,NA,NA,NA,NA,NA,NA
70923,Shallow Question,html.Page,1_1_3_1_0,NA,NA,form submission,10276.625000009,174423.60000001,174418.269,174434.975,184711.60000001,184712,2023-03-29T11:57:49Z,184720.654,"c(""distractor1"", ""distractor2"", ""distractor3"")",Gegenwart,hadhara,s,katiba,jokofu,mikopo,hadhara,NA,NA,NA,NA,NA,NA,NA,NA,NA,NA,NA,NA,NA,NA,NA,NA,NA,NA,NA,NA,NA,NA
70923,"""Richtig""-Screen",canvas.Screen,1_1_3_1_1,NA,NA,timeout,4995.094,184715.7,184703.948,184720.654,189699.042,189702.60000001,2023-03-29T11:57:54Z,189715.748,"c(""distractor1"", ""distractor2"", ""distractor3"")",Gegenwart,hadhara,s,katiba,jokofu,mikopo,NA,NA,1,NA,NA,NA,NA,NA,NA,NA,NA,NA,NA,NA,NA,NA,NA,NA,NA,NA,NA,NA,NA
70923,"""Falsch""-Screen",canvas.Screen,1_1_3_1_2,NA,NA,skipped,NA,189707.60000001,NA,NA,189699.042,189707.90000001,2023-03-29T11:57:54Z,189715.748,"c(""distractor1"", ""distractor2"", ""distractor3"")",Gegenwart,hadhara,s,katiba,jokofu,mikopo,NA,NA,NA,NA,NA,NA,NA,NA,NA,NA,NA,NA,NA,NA,NA,NA,NA,NA,NA,NA,NA,NA,NA
70923,shallow,flow.Sequence,1_1_3_1,NA,NA,completion,15264.067,174423.60000001,174418.269,174434.975,189699.042,189708.2,2023-03-29T11:57:54Z,189715.748,"c(""distractor1"", ""distractor2"", ""distractor3"")",Gegenwart,hadhara,s,katiba,jokofu,mikopo,NA,NA,NA,NA,NA,NA,NA,NA,NA,NA,NA,NA,NA,NA,NA,NA,NA,NA,NA,NA,NA,NA,NA
70923,task,flow.Sequence,1_1_3,NA,NA,completion,15264.067,174423.10000001,174418.269,174434.975,189699.042,189708.5,2023-03-29T11:57:54Z,189715.748,"c(""distractor1"", ""distractor2"", ""distractor3"")",Gegenwart,hadhara,s,katiba,jokofu,mikopo,NA,NA,NA,NA,NA,NA,NA,NA,NA,NA,NA,NA,NA,NA,NA,NA,NA,NA,NA,NA,NA,NA,NA
70923,Deep Question,html.Page,1_1_4_0_0,NA,NA,form submission,5687.051999997,189708.8,189699.042,189715.748,195402.8,195403.5,2023-03-29T11:58:00Z,195401.519,"c(""distractor1"", ""distractor2"", ""distractor3"")",Gesundheit,salama,d,NA,NA,NA,j,NA,NA,NA,NA,NA,NA,NA,NA,NA,NA,NA,NA,NA,NA,NA,NA,NA,NA,NA,NA,NA,NA
70923,"""Richtig""-Screen",canvas.Screen,1_1_4_0_1,NA,NA,skipped,NA,195408.90000001,NA,NA,195402.8,195409.2,2023-03-29T11:58:00Z,195401.519,"c(""distractor1"", ""distractor2"", ""distractor3"")",Gesundheit,salama,d,NA,NA,NA,NA,NA,NA,NA,NA,NA,NA,NA,NA,NA,NA,NA,NA,NA,NA,NA,NA,NA,NA,NA,NA,NA,NA
70923,"""Falsch""-Screen",canvas.Screen,1_1_4_0_2,NA,NA,timeout,4995.094,195411.2,195384.813,195401.519,200379.907,200385,2023-03-29T11:58:05Z,200396.613,"c(""distractor1"", ""distractor2"", ""distractor3"")",Gesundheit,salama,d,NA,NA,NA,NA,NA,0,NA,NA,NA,NA,NA,NA,NA,NA,NA,NA,NA,NA,NA,NA,NA,NA,NA,NA,NA,NA
70923,deep,flow.Sequence,1_1_4_0,NA,NA,completion,10664.159,189708.7,189699.042,189715.748,200379.907,200385.3,2023-03-29T11:58:05Z,200396.613,"c(""distractor1"", ""distractor2"", ""distractor3"")",Gesundheit,salama,d,NA,NA,NA,NA,NA,NA,NA,NA,NA,NA,NA,NA,NA,NA,NA,NA,NA,NA,NA,NA,NA,NA,NA,NA,NA,NA
70923,shallow,flow.Sequence,1_1_4_1,NA,NA,skipped,NA,200385.60000001,NA,NA,200379.907,200385.7,2023-03-29T11:58:05Z,200396.613,"c(""distractor1"", ""distractor2"", ""distractor3"")",Gesundheit,salama,d,NA,NA,NA,NA,NA,NA,NA,NA,NA,NA,NA,NA,NA,NA,NA,NA,NA,NA,NA,NA,NA,NA,NA,NA,NA,NA
70923,task,flow.Sequence,1_1_4,NA,NA,completion,10664.159,189708.60000001,189699.042,189715.748,200379.907,200386.10000001,2023-03-29T11:58:05Z,200396.613,"c(""distractor1"", ""distractor2"", ""distractor3"")",Gesundheit,salama,d,NA,NA,NA,NA,NA,NA,NA,NA,NA,NA,NA,NA,NA,NA,NA,NA,NA,NA,NA,NA,NA,NA,NA,NA,NA,NA
70923,Deep Question,html.Page,1_1_5_0_0,NA,NA,form submission,4495.887,200386.40000001,200379.907,200396.613,204892.5,204893,2023-03-29T11:58:09Z,204907.233,"c(""distractor1"", ""distractor2"", ""distractor3"")",Qualität,mtindo,d,NA,NA,NA,z,NA,NA,NA,NA,NA,NA,NA,NA,NA,NA,NA,NA,NA,NA,NA,NA,NA,NA,NA,NA,NA,NA
70923,"""Richtig""-Screen",canvas.Screen,1_1_5_0_1,NA,NA,skipped,NA,204897.5,NA,NA,204892.5,204897.8,2023-03-29T11:58:09Z,204907.233,"c(""distractor1"", ""distractor2"", ""distractor3"")",Qualität,mtindo,d,NA,NA,NA,NA,NA,NA,NA,NA,NA,NA,NA,NA,NA,NA,NA,NA,NA,NA,NA,NA,NA,NA,NA,NA,NA,NA
70923,"""Falsch""-Screen",canvas.Screen,1_1_5_0_2,NA,NA,timeout,4995.094,204899.3,204890.527,204907.233,209885.621,209887.8,2023-03-29T11:58:14Z,209902.327,"c(""distractor1"", ""distractor2"", ""distractor3"")",Qualität,mtindo,d,NA,NA,NA,NA,NA,0,NA,NA,NA,NA,NA,NA,NA,NA,NA,NA,NA,NA,NA,NA,NA,NA,NA,NA,NA,NA
70923,deep,flow.Sequence,1_1_5_0,NA,NA,completion,9489.008,200386.40000001,200379.907,200396.613,209885.621,209888.3,2023-03-29T11:58:14Z,209902.327,"c(""distractor1"", ""distractor2"", ""distractor3"")",Qualität,mtindo,d,NA,NA,NA,NA,NA,NA,NA,NA,NA,NA,NA,NA,NA,NA,NA,NA,NA,NA,NA,NA,NA,NA,NA,NA,NA,NA
70923,shallow,flow.Sequence,1_1_5_1,NA,NA,skipped,NA,209888.5,NA,NA,209885.621,209888.7,2023-03-29T11:58:14Z,209902.327,"c(""distractor1"", ""distractor2"", ""distractor3"")",Qualität,mtindo,d,NA,NA,NA,NA,NA,NA,NA,NA,NA,NA,NA,NA,NA,NA,NA,NA,NA,NA,NA,NA,NA,NA,NA,NA,NA,NA
70923,task,flow.Sequence,1_1_5,NA,NA,completion,9489.008,200386.2,200379.907,200396.613,209885.621,209889,2023-03-29T11:58:14Z,209902.327,"c(""distractor1"", ""distractor2"", ""distractor3"")",Qualität,mtindo,d,NA,NA,NA,NA,NA,NA,NA,NA,NA,NA,NA,NA,NA,NA,NA,NA,NA,NA,NA,NA,NA,NA,NA,NA,NA,NA
70923,block,flow.Loop,1_1,NA,NA,completion,98361.06,111512.3,111507.855,111524.561,209885.621,209889.40000001,2023-03-29T11:58:14Z,209902.327,"c(""distractor1"", ""distractor2"", ""distractor3"")",NA,NA,NA,NA,NA,NA,NA,NA,NA,NA,NA,NA,NA,NA,NA,NA,NA,NA,NA,NA,NA,NA,NA,NA,NA,NA,NA,NA,NA
70923,Practice,flow.Sequence,1,NA,NA,completion,128824.686,81061.5,81044.229,81060.935,209885.621,209889.7,2023-03-29T11:58:14Z,209902.327,NULL,NA,NA,NA,NA,NA,NA,NA,NA,NA,NA,NA,NA,NA,NA,NA,NA,NA,NA,NA,NA,NA,NA,NA,NA,NA,NA,NA,NA,NA
70923,Experiment start,canvas.Screen,2,weiter,keypress(q),response,38231.873000003,209889.8,209885.621,209902.327,248134.2,248138.40000001,2023-03-29T11:58:53Z,248276.009,NULL,NA,NA,NA,NA,NA,NA,NA,NA,NA,NA,NA,NA,NA,NA,NA,NA,NA,NA,NA,NA,NA,NA,NA,NA,NA,NA,NA,NA,NA
70923,deep,flow.Sequence,3_0_0_0_0_0,NA,NA,skipped,NA,248285.60000001,NA,NA,248134.2,248285.90000001,2023-03-29T11:58:53Z,248276.009,NULL,Ergänzung,kijalizo,s,ulaghai,mustarehe,matangazo,NA,sdf,NA,0,NA,NA,NA,NA,NA,NA,NA,NA,NA,NA,NA,NA,NA,NA,NA,NA,NA,NA,NA
70923,Shallow Question,html.Page,3_0_0_0_0_1_0,NA,NA,form submission,8702.290999997,248286.2,248125.655,248276.009,256978.3,256978.8,2023-03-29T11:59:02Z,256977.906,NULL,Ergänzung,kijalizo,s,ulaghai,mustarehe,matangazo,matangazo,NA,NA,0,NA,NA,NA,NA,NA,NA,NA,NA,NA,NA,NA,NA,NA,NA,NA,NA,NA,NA,NA
70923,"""Richtig""-Screen",canvas.Screen,3_0_0_0_0_1_1,NA,NA,skipped,NA,256982.3,NA,NA,256978.3,256982.60000001,2023-03-29T11:59:02Z,256977.906,NULL,Ergänzung,kijalizo,s,ulaghai,mustarehe,matangazo,NA,sdf,NA,0,NA,NA,NA,NA,NA,NA,NA,NA,NA,NA,NA,NA,NA,NA,NA,NA,NA,NA,NA
70923,"""Falsch""-Screen",canvas.Screen,3_0_0_0_0_1_2,NA,NA,timeout,4995.094,256983.90000001,256961.2,256977.906,261956.294,261958.40000001,2023-03-29T11:59:07Z,261973,NULL,Ergänzung,kijalizo,s,ulaghai,mustarehe,matangazo,NA,sdf,0,0,NA,NA,NA,NA,NA,NA,NA,NA,NA,NA,NA,NA,NA,NA,NA,NA,NA,NA,NA
70923,shallow,flow.Sequence,3_0_0_0_0_1,NA,NA,completion,13680.285,248286.10000001,248125.655,248276.009,261956.294,261958.60000001,2023-03-29T11:59:07Z,261973,NULL,Ergänzung,kijalizo,s,ulaghai,mustarehe,matangazo,NA,sdf,NA,0,NA,NA,NA,NA,NA,NA,NA,NA,NA,NA,NA,NA,NA,NA,NA,NA,NA,NA,NA
70923,task,flow.Sequence,3_0_0_0_0,NA,NA,completion,13680.285,248285.60000001,248125.655,248276.009,261956.294,261958.8,2023-03-29T11:59:07Z,261973,NULL,Ergänzung,kijalizo,s,ulaghai,mustarehe,matangazo,NA,sdf,NA,0,NA,NA,NA,NA,NA,NA,NA,NA,NA,NA,NA,NA,NA,NA,NA,NA,NA,NA,NA
70923,Deep Question,html.Page,3_0_0_0_1_0_0,NA,NA,form submission,6067.5,261958.90000001,261956.294,261973,268040.5,268040.8,2023-03-29T11:59:13Z,268045.874,NULL,Respekt,heshima,d,NA,NA,NA,jp,NA,NA,0,NA,NA,NA,NA,NA,NA,NA,NA,NA,NA,NA,NA,NA,NA,NA,NA,NA,NA,NA
70923,"""Richtig""-Screen",canvas.Screen,3_0_0_0_1_0_1,NA,NA,skipped,NA,268044,NA,NA,268040.5,268044.2,2023-03-29T11:59:13Z,268045.874,NULL,Respekt,heshima,d,NA,NA,NA,NA,sdf,NA,0,NA,NA,NA,NA,NA,NA,NA,NA,NA,NA,NA,NA,NA,NA,NA,NA,NA,NA,NA
70923,"""Falsch""-Screen",canvas.Screen,3_0_0_0_1_0_2,NA,NA,timeout,4995.094,268045.3,268029.168,268045.874,273024.262,273027.7,2023-03-29T11:59:18Z,273040.968,NULL,Respekt,heshima,d,NA,NA,NA,NA,sdf,0,0,NA,NA,NA,NA,NA,NA,NA,NA,NA,NA,NA,NA,NA,NA,NA,NA,NA,NA,NA
70923,deep,flow.Sequence,3_0_0_0_1_0,NA,NA,completion,11051.262,261958.90000001,261956.294,261973,273024.262,273028,2023-03-29T11:59:18Z,273040.968,NULL,Respekt,heshima,d,NA,NA,NA,NA,sdf,NA,0,NA,NA,NA,NA,NA,NA,NA,NA,NA,NA,NA,NA,NA,NA,NA,NA,NA,NA,NA
70923,shallow,flow.Sequence,3_0_0_0_1_1,NA,NA,skipped,NA,273028.2,NA,NA,273024.262,273028.40000001,2023-03-29T11:59:18Z,273040.968,NULL,Respekt,heshima,d,NA,NA,NA,NA,sdf,NA,0,NA,NA,NA,NA,NA,NA,NA,NA,NA,NA,NA,NA,NA,NA,NA,NA,NA,NA,NA
70923,task,flow.Sequence,3_0_0_0_1,NA,NA,completion,11051.262,261958.90000001,261956.294,261973,273024.262,273028.60000001,2023-03-29T11:59:18Z,273040.968,NULL,Respekt,heshima,d,NA,NA,NA,NA,sdf,NA,0,NA,NA,NA,NA,NA,NA,NA,NA,NA,NA,NA,NA,NA,NA,NA,NA,NA,NA,NA
70923,Deep Question,html.Page,3_0_0_0_2_0_0,NA,NA,form submission,4175.532,273028.90000001,273024.262,273040.968,277216.5,277217,2023-03-29T11:59:22Z,277223.181,NULL,Vergnügen,kichekesho,d,NA,NA,NA,df,NA,NA,0,NA,NA,NA,NA,NA,NA,NA,NA,NA,NA,NA,NA,NA,NA,NA,NA,NA,NA,NA
70923,"""Richtig""-Screen",canvas.Screen,3_0_0_0_2_0_1,NA,NA,skipped,NA,277221.2,NA,NA,277216.5,277221.40000001,2023-03-29T11:59:22Z,277223.181,NULL,Vergnügen,kichekesho,d,NA,NA,NA,NA,sdf,NA,0,NA,NA,NA,NA,NA,NA,NA,NA,NA,NA,NA,NA,NA,NA,NA,NA,NA,NA,NA
70923,"""Falsch""-Screen",canvas.Screen,3_0_0_0_2_0_2,NA,NA,timeout,4995.094,277222.8,277206.475,277223.181,282201.569,282205.2,2023-03-29T11:59:27Z,282218.275,NULL,Vergnügen,kichekesho,d,NA,NA,NA,NA,sdf,0,0,NA,NA,NA,NA,NA,NA,NA,NA,NA,NA,NA,NA,NA,NA,NA,NA,NA,NA,NA
70923,deep,flow.Sequence,3_0_0_0_2_0,NA,NA,completion,9160.601,273028.90000001,273024.262,273040.968,282201.569,282205.60000001,2023-03-29T11:59:27Z,282218.275,NULL,Vergnügen,kichekesho,d,NA,NA,NA,NA,sdf,NA,0,NA,NA,NA,NA,NA,NA,NA,NA,NA,NA,NA,NA,NA,NA,NA,NA,NA,NA,NA
70923,shallow,flow.Sequence,3_0_0_0_2_1,NA,NA,skipped,NA,282205.8,NA,NA,282201.569,282205.90000001,2023-03-29T11:59:27Z,282218.275,NULL,Vergnügen,kichekesho,d,NA,NA,NA,NA,sdf,NA,0,NA,NA,NA,NA,NA,NA,NA,NA,NA,NA,NA,NA,NA,NA,NA,NA,NA,NA,NA
70923,task,flow.Sequence,3_0_0_0_2,NA,NA,completion,9160.601,273028.8,273024.262,273040.968,282201.569,282206.2,2023-03-29T11:59:27Z,282218.275,NULL,Vergnügen,kichekesho,d,NA,NA,NA,NA,sdf,NA,0,NA,NA,NA,NA,NA,NA,NA,NA,NA,NA,NA,NA,NA,NA,NA,NA,NA,NA,NA
70923,Deep Question,html.Page,3_0_0_0_3_0_0,NA,NA,form submission,3193.3250000089,282206.40000001,282201.569,282218.275,285411.60000001,285412.10000001,2023-03-29T11:59:30Z,285414.913,NULL,Notfall,dharura,d,NA,NA,NA,sos,NA,NA,0,NA,NA,NA,NA,NA,NA,NA,NA,NA,NA,NA,NA,NA,NA,NA,NA,NA,NA,NA
70923,"""Richtig""-Screen",canvas.Screen,3_0_0_0_3_0_1,NA,NA,skipped,NA,285415.60000001,NA,NA,285411.60000001,285416,2023-03-29T11:59:30Z,285414.913,NULL,Notfall,dharura,d,NA,NA,NA,NA,sdf,NA,0,NA,NA,NA,NA,NA,NA,NA,NA,NA,NA,NA,NA,NA,NA,NA,NA,NA,NA,NA
70923,"""Falsch""-Screen",canvas.Screen,3_0_0_0_3_0_2,NA,NA,timeout,4995.094,285417.3,285398.207,285414.913,290393.301,290397.60000001,2023-03-29T11:59:35Z,290410.007,NULL,Notfall,dharura,d,NA,NA,NA,NA,sdf,0,0,NA,NA,NA,NA,NA,NA,NA,NA,NA,NA,NA,NA,NA,NA,NA,NA,NA,NA,NA
70923,deep,flow.Sequence,3_0_0_0_3_0,NA,NA,completion,8175.026,282206.40000001,282201.569,282218.275,290393.301,290398.2,2023-03-29T11:59:35Z,290410.007,NULL,Notfall,dharura,d,NA,NA,NA,NA,sdf,NA,0,NA,NA,NA,NA,NA,NA,NA,NA,NA,NA,NA,NA,NA,NA,NA,NA,NA,NA,NA
70923,shallow,flow.Sequence,3_0_0_0_3_1,NA,NA,skipped,NA,290398.40000001,NA,NA,290393.301,290398.60000001,2023-03-29T11:59:35Z,290410.007,NULL,Notfall,dharura,d,NA,NA,NA,NA,sdf,NA,0,NA,NA,NA,NA,NA,NA,NA,NA,NA,NA,NA,NA,NA,NA,NA,NA,NA,NA,NA
70923,task,flow.Sequence,3_0_0_0_3,NA,NA,completion,8175.026,282206.40000001,282201.569,282218.275,290393.301,290398.90000001,2023-03-29T11:59:35Z,290410.007,NULL,Notfall,dharura,d,NA,NA,NA,NA,sdf,NA,0,NA,NA,NA,NA,NA,NA,NA,NA,NA,NA,NA,NA,NA,NA,NA,NA,NA,NA,NA
70923,deep,flow.Sequence,3_0_0_0_4_0,NA,NA,skipped,NA,290399.2,NA,NA,290393.301,290399.40000001,2023-03-29T11:59:35Z,290410.007,NULL,Wohlstand,mafanikio,s,chimbuko,kumbuko,mapwaji,NA,sdf,NA,0,NA,NA,NA,NA,NA,NA,NA,NA,NA,NA,NA,NA,NA,NA,NA,NA,NA,NA,NA
70923,Shallow Question,html.Page,3_0_0_0_4_1_0,NA,NA,form submission,6911.893000006,290399.60000001,290393.301,290410.007,297321.90000001,297322.3,2023-03-29T11:59:42Z,297332.024,NULL,Wohlstand,mafanikio,s,chimbuko,kumbuko,mapwaji,kumbuko,NA,NA,0,NA,NA,NA,NA,NA,NA,NA,NA,NA,NA,NA,NA,NA,NA,NA,NA,NA,NA,NA
70923,"""Richtig""-Screen",canvas.Screen,3_0_0_0_4_1_1,NA,NA,skipped,NA,297326.7,NA,NA,297321.90000001,297327,2023-03-29T11:59:42Z,297332.024,NULL,Wohlstand,mafanikio,s,chimbuko,kumbuko,mapwaji,NA,sdf,NA,0,NA,NA,NA,NA,NA,NA,NA,NA,NA,NA,NA,NA,NA,NA,NA,NA,NA,NA,NA
70923,"""Falsch""-Screen",canvas.Screen,3_0_0_0_4_1_2,NA,NA,timeout,4995.094,297328.5,297315.318,297332.024,302310.412,302315.2,2023-03-29T11:59:47Z,302327.118,NULL,Wohlstand,mafanikio,s,chimbuko,kumbuko,mapwaji,NA,sdf,0,0,NA,NA,NA,NA,NA,NA,NA,NA,NA,NA,NA,NA,NA,NA,NA,NA,NA,NA,NA
70923,shallow,flow.Sequence,3_0_0_0_4_1,NA,NA,completion,11900.405,290399.5,290393.301,290410.007,302310.412,302315.7,2023-03-29T11:59:47Z,302327.118,NULL,Wohlstand,mafanikio,s,chimbuko,kumbuko,mapwaji,NA,sdf,NA,0,NA,NA,NA,NA,NA,NA,NA,NA,NA,NA,NA,NA,NA,NA,NA,NA,NA,NA,NA
70923,task,flow.Sequence,3_0_0_0_4,NA,NA,completion,11900.405,290399,290393.301,290410.007,302310.412,302316,2023-03-29T11:59:47Z,302327.118,NULL,Wohlstand,mafanikio,s,chimbuko,kumbuko,mapwaji,NA,sdf,NA,0,NA,NA,NA,NA,NA,NA,NA,NA,NA,NA,NA,NA,NA,NA,NA,NA,NA,NA,NA
70923,Deep Question,html.Page,3_0_0_0_5_0_0,NA,NA,form submission,4361.4820000089,302316.3,302310.412,302327.118,306688.60000001,306689,2023-03-29T11:59:51Z,306693.113,NULL,Orientierung,urekebisho,d,NA,NA,NA,zz,NA,NA,0,NA,NA,NA,NA,NA,NA,NA,NA,NA,NA,NA,NA,NA,NA,NA,NA,NA,NA,NA
70923,"""Richtig""-Screen",canvas.Screen,3_0_0_0_5_0_1,NA,NA,skipped,NA,306692,NA,NA,306688.60000001,306692.2,2023-03-29T11:59:51Z,306693.113,NULL,Orientierung,urekebisho,d,NA,NA,NA,NA,sdf,NA,0,NA,NA,NA,NA,NA,NA,NA,NA,NA,NA,NA,NA,NA,NA,NA,NA,NA,NA,NA
70923,"""Falsch""-Screen",canvas.Screen,3_0_0_0_5_0_2,NA,NA,timeout,4995.094,306693.7,306676.407,306693.113,311671.501,311674.40000001,2023-03-29T11:59:56Z,311688.207,NULL,Orientierung,urekebisho,d,NA,NA,NA,NA,sdf,0,0,NA,NA,NA,NA,NA,NA,NA,NA,NA,NA,NA,NA,NA,NA,NA,NA,NA,NA,NA
70923,deep,flow.Sequence,3_0_0_0_5_0,NA,NA,completion,9344.383,302316.2,302310.412,302327.118,311671.501,311674.90000001,2023-03-29T11:59:56Z,311688.207,NULL,Orientierung,urekebisho,d,NA,NA,NA,NA,sdf,NA,0,NA,NA,NA,NA,NA,NA,NA,NA,NA,NA,NA,NA,NA,NA,NA,NA,NA,NA,NA
70923,shallow,flow.Sequence,3_0_0_0_5_1,NA,NA,skipped,NA,311675.2,NA,NA,311671.501,311675.3,2023-03-29T11:59:56Z,311688.207,NULL,Orientierung,urekebisho,d,NA,NA,NA,NA,sdf,NA,0,NA,NA,NA,NA,NA,NA,NA,NA,NA,NA,NA,NA,NA,NA,NA,NA,NA,NA,NA
70923,task,flow.Sequence,3_0_0_0_5,NA,NA,completion,9344.383,302316.2,302310.412,302327.118,311671.501,311675.7,2023-03-29T11:59:56Z,311688.207,NULL,Orientierung,urekebisho,d,NA,NA,NA,NA,sdf,NA,0,NA,NA,NA,NA,NA,NA,NA,NA,NA,NA,NA,NA,NA,NA,NA,NA,NA,NA,NA
70923,deep,flow.Sequence,3_0_0_0_6_0,NA,NA,skipped,NA,311675.90000001,NA,NA,311671.501,311676.2,2023-03-29T11:59:56Z,311688.207,NULL,Betrüger,mdanganyifu,s,mwanamuziki,wastani,mahakama,NA,sdf,NA,0,NA,NA,NA,NA,NA,NA,NA,NA,NA,NA,NA,NA,NA,NA,NA,NA,NA,NA,NA
70923,Shallow Question,html.Page,3_0_0_0_6_1_0,NA,NA,form submission,6206.293,311676.3,311671.501,311688.207,317894.5,317895,2023-03-29T12:00:02Z,317908.528,NULL,Betrüger,mdanganyifu,s,mwanamuziki,wastani,mahakama,mwanamuziki,NA,NA,0,NA,NA,NA,NA,NA,NA,NA,NA,NA,NA,NA,NA,NA,NA,NA,NA,NA,NA,NA
70923,"""Richtig""-Screen",canvas.Screen,3_0_0_0_6_1_1,NA,NA,skipped,NA,317899.10000001,NA,NA,317894.5,317899.40000001,2023-03-29T12:00:02Z,317908.528,NULL,Betrüger,mdanganyifu,s,mwanamuziki,wastani,mahakama,NA,sdf,NA,0,NA,NA,NA,NA,NA,NA,NA,NA,NA,NA,NA,NA,NA,NA,NA,NA,NA,NA,NA
70923,"""Falsch""-Screen",canvas.Screen,3_0_0_0_6_1_2,NA,NA,timeout,4995.094,317901.10000001,317891.822,317908.528,322886.916,322891.8,2023-03-29T12:00:07Z,322903.622,NULL,Betrüger,mdanganyifu,s,mwanamuziki,wastani,mahakama,NA,sdf,0,0,NA,NA,NA,NA,NA,NA,NA,NA,NA,NA,NA,NA,NA,NA,NA,NA,NA,NA,NA
70923,shallow,flow.Sequence,3_0_0_0_6_1,NA,NA,completion,11198.709,311676.3,311671.501,311688.207,322886.916,322892.10000001,2023-03-29T12:00:07Z,322903.622,NULL,Betrüger,mdanganyifu,s,mwanamuziki,wastani,mahakama,NA,sdf,NA,0,NA,NA,NA,NA,NA,NA,NA,NA,NA,NA,NA,NA,NA,NA,NA,NA,NA,NA,NA
70923,task,flow.Sequence,3_0_0_0_6,NA,NA,completion,11198.709,311675.90000001,311671.501,311688.207,322886.916,322892.5,2023-03-29T12:00:07Z,322903.622,NULL,Betrüger,mdanganyifu,s,mwanamuziki,wastani,mahakama,NA,sdf,NA,0,NA,NA,NA,NA,NA,NA,NA,NA,NA,NA,NA,NA,NA,NA,NA,NA,NA,NA,NA
70923,deep,flow.Sequence,3_0_0_0_7_0,NA,NA,skipped,NA,322892.7,NA,NA,322886.916,322892.90000001,2023-03-29T12:00:07Z,322903.622,NULL,Stimmung,kinyongo,s,kilekile,kisambo,madhehebu,NA,sdf,NA,0,NA,NA,NA,NA,NA,NA,NA,NA,NA,NA,NA,NA,NA,NA,NA,NA,NA,NA,NA
70923,Shallow Question,html.Page,3_0_0_0_7_1_0,NA,NA,form submission,4468.378,322893.10000001,322886.916,322903.622,327372,327372.40000001,2023-03-29T12:00:12Z,327386.605,NULL,Stimmung,kinyongo,s,kilekile,kisambo,madhehebu,kilekile,NA,NA,0,NA,NA,NA,NA,NA,NA,NA,NA,NA,NA,NA,NA,NA,NA,NA,NA,NA,NA,NA
70923,"""Richtig""-Screen",canvas.Screen,3_0_0_0_7_1_1,NA,NA,skipped,NA,327376.3,NA,NA,327372,327376.60000001,2023-03-29T12:00:12Z,327386.605,NULL,Stimmung,kinyongo,s,kilekile,kisambo,madhehebu,NA,sdf,NA,0,NA,NA,NA,NA,NA,NA,NA,NA,NA,NA,NA,NA,NA,NA,NA,NA,NA,NA,NA
70923,"""Falsch""-Screen",canvas.Screen,3_0_0_0_7_1_2,NA,NA,timeout,4995.094,327378,327369.899,327386.605,332364.993,332367.40000001,2023-03-29T12:00:17Z,332381.699,NULL,Stimmung,kinyongo,s,kilekile,kisambo,madhehebu,NA,sdf,0,0,NA,NA,NA,NA,NA,NA,NA,NA,NA,NA,NA,NA,NA,NA,NA,NA,NA,NA,NA
70923,shallow,flow.Sequence,3_0_0_0_7_1,NA,NA,completion,9461.371,322893.10000001,322886.916,322903.622,332364.993,332368,2023-03-29T12:00:17Z,332381.699,NULL,Stimmung,kinyongo,s,kilekile,kisambo,madhehebu,NA,sdf,NA,0,NA,NA,NA,NA,NA,NA,NA,NA,NA,NA,NA,NA,NA,NA,NA,NA,NA,NA,NA
70923,task,flow.Sequence,3_0_0_0_7,NA,NA,completion,9461.371,322892.60000001,322886.916,322903.622,332364.993,332368.3,2023-03-29T12:00:17Z,332381.699,NULL,Stimmung,kinyongo,s,kilekile,kisambo,madhehebu,NA,sdf,NA,0,NA,NA,NA,NA,NA,NA,NA,NA,NA,NA,NA,NA,NA,NA,NA,NA,NA,NA,NA
70923,block,flow.Loop,3_0_0_0,NA,NA,completion,84088.984,248285.60000001,248125.655,248276.009,332364.993,332368.7,2023-03-29T12:00:17Z,332381.699,NULL,NA,NA,NA,NA,NA,NA,NA,sdf,NA,0,NA,NA,NA,NA,NA,NA,NA,NA,NA,NA,NA,NA,NA,NA,NA,NA,NA,NA,NA
70923,weiter,canvas.Screen,3_0_0_1,sdf,keypress(Space),response,2632.501000003,332368.90000001,332364.993,332381.699,335014.2,335017.90000001,2023-03-29T12:00:20Z,335054.659,NULL,NA,NA,NA,NA,NA,NA,NA,sdf,NA,0,NA,NA,NA,NA,NA,NA,NA,NA,NA,NA,NA,NA,NA,NA,NA,NA,NA,NA,NA
70923,check continue,flow.Sequence,3_0_0,NA,NA,completion,86738.191000003,248285.5,248125.655,248276.009,335014.2,335018.2,2023-03-29T12:00:20Z,335054.659,NULL,NA,NA,NA,NA,NA,NA,NA,sdf,NA,0,NA,NA,NA,NA,NA,NA,NA,NA,NA,NA,NA,NA,NA,NA,NA,NA,NA,NA,NA
70923,deep,flow.Sequence,3_0_1_0_0_0,NA,NA,skipped,NA,335067,NA,NA,335014.2,335067.10000001,2023-03-29T12:00:20Z,335054.659,NULL,Ergänzung,kijalizo,s,ulaghai,mustarehe,matangazo,NA,sdfdsf,NA,1,NA,NA,NA,NA,NA,NA,NA,NA,NA,NA,NA,NA,NA,NA,NA,NA,NA,NA,NA
70923,Shallow Question,html.Page,3_0_1_0_0_1_0,NA,NA,form submission,8915.541000003,335067.3,335004.541,335054.659,343970.2,343970.60000001,2023-03-29T12:00:29Z,343984.203,NULL,Ergänzung,kijalizo,s,ulaghai,mustarehe,matangazo,kijalizo,NA,NA,1,NA,NA,NA,NA,NA,NA,NA,NA,NA,NA,NA,NA,NA,NA,NA,NA,NA,NA,NA
70923,"""Richtig""-Screen",canvas.Screen,3_0_1_0_0_1_1,NA,NA,timeout,4995.094,343974.60000001,343967.497,343984.203,348962.591,348963.90000001,2023-03-29T12:00:34Z,348979.297,NULL,Ergänzung,kijalizo,s,ulaghai,mustarehe,matangazo,NA,sdfdsf,1,1,NA,NA,NA,NA,NA,NA,NA,NA,NA,NA,NA,NA,NA,NA,NA,NA,NA,NA,NA
70923,"""Falsch""-Screen",canvas.Screen,3_0_1_0_0_1_2,NA,NA,skipped,NA,348968.40000001,NA,NA,348962.591,348968.90000001,2023-03-29T12:00:34Z,348979.297,NULL,Ergänzung,kijalizo,s,ulaghai,mustarehe,matangazo,NA,sdfdsf,NA,1,NA,NA,NA,NA,NA,NA,NA,NA,NA,NA,NA,NA,NA,NA,NA,NA,NA,NA,NA
70923,shallow,flow.Sequence,3_0_1_0_0_1,NA,NA,completion,13907.932,335067.3,335004.541,335054.659,348962.591,348969.10000001,2023-03-29T12:00:34Z,348979.297,NULL,Ergänzung,kijalizo,s,ulaghai,mustarehe,matangazo,NA,sdfdsf,NA,1,NA,NA,NA,NA,NA,NA,NA,NA,NA,NA,NA,NA,NA,NA,NA,NA,NA,NA,NA
70923,task,flow.Sequence,3_0_1_0_0,NA,NA,completion,13907.932,335067,335004.541,335054.659,348962.591,348969.40000001,2023-03-29T12:00:34Z,348979.297,NULL,Ergänzung,kijalizo,s,ulaghai,mustarehe,matangazo,NA,sdfdsf,NA,1,NA,NA,NA,NA,NA,NA,NA,NA,NA,NA,NA,NA,NA,NA,NA,NA,NA,NA,NA
70923,deep,flow.Sequence,3_0_1_0_1_0,NA,NA,skipped,NA,348969.5,NA,NA,348962.591,348969.60000001,2023-03-29T12:00:34Z,348979.297,NULL,Wohlstand,mafanikio,s,chimbuko,kumbuko,mapwaji,NA,sdfdsf,NA,1,NA,NA,NA,NA,NA,NA,NA,NA,NA,NA,NA,NA,NA,NA,NA,NA,NA,NA,NA
70923,Shallow Question,html.Page,3_0_1_0_1_1_0,NA,NA,form submission,13126.502999997,348969.8,348962.591,348979.297,362105.8,362106.5,2023-03-29T12:00:47Z,362104.97,NULL,Wohlstand,mafanikio,s,chimbuko,kumbuko,mapwaji,mafanikio,NA,NA,1,NA,NA,NA,NA,NA,NA,NA,NA,NA,NA,NA,NA,NA,NA,NA,NA,NA,NA,NA
70923,"""Richtig""-Screen",canvas.Screen,3_0_1_0_1_1_1,NA,NA,timeout,4995.094,362111,362088.264,362104.97,367083.358,367084.90000001,2023-03-29T12:00:52Z,367100.064,NULL,Wohlstand,mafanikio,s,chimbuko,kumbuko,mapwaji,NA,sdfdsf,1,1,NA,NA,NA,NA,NA,NA,NA,NA,NA,NA,NA,NA,NA,NA,NA,NA,NA,NA,NA
70923,"""Falsch""-Screen",canvas.Screen,3_0_1_0_1_1_2,NA,NA,skipped,NA,367088.2,NA,NA,367083.358,367088.40000001,2023-03-29T12:00:52Z,367100.064,NULL,Wohlstand,mafanikio,s,chimbuko,kumbuko,mapwaji,NA,sdfdsf,NA,1,NA,NA,NA,NA,NA,NA,NA,NA,NA,NA,NA,NA,NA,NA,NA,NA,NA,NA,NA
70923,shallow,flow.Sequence,3_0_1_0_1_1,NA,NA,completion,18104.061,348969.8,348962.591,348979.297,367083.358,367088.7,2023-03-29T12:00:52Z,367100.064,NULL,Wohlstand,mafanikio,s,chimbuko,kumbuko,mapwaji,NA,sdfdsf,NA,1,NA,NA,NA,NA,NA,NA,NA,NA,NA,NA,NA,NA,NA,NA,NA,NA,NA,NA,NA
70923,task,flow.Sequence,3_0_1_0_1,NA,NA,completion,18104.061,348969.5,348962.591,348979.297,367083.358,367089,2023-03-29T12:00:52Z,367100.064,NULL,Wohlstand,mafanikio,s,chimbuko,kumbuko,mapwaji,NA,sdfdsf,NA,1,NA,NA,NA,NA,NA,NA,NA,NA,NA,NA,NA,NA,NA,NA,NA,NA,NA,NA,NA
70923,Deep Question,html.Page,3_0_1_0_2_0_0,NA,NA,form submission,8740.5360000089,367089.3,367083.358,367100.064,375840.60000001,375841,2023-03-29T12:01:00Z,375843.033,NULL,Notfall,dharura,d,NA,NA,NA,fae,NA,NA,1,NA,NA,NA,NA,NA,NA,NA,NA,NA,NA,NA,NA,NA,NA,NA,NA,NA,NA,NA
70923,"""Richtig""-Screen",canvas.Screen,3_0_1_0_2_0_1,NA,NA,skipped,NA,375844.60000001,NA,NA,375840.60000001,375845.2,2023-03-29T12:01:00Z,375843.033,NULL,Notfall,dharura,d,NA,NA,NA,NA,sdfdsf,NA,1,NA,NA,NA,NA,NA,NA,NA,NA,NA,NA,NA,NA,NA,NA,NA,NA,NA,NA,NA
70923,"""Falsch""-Screen",canvas.Screen,3_0_1_0_2_0_2,NA,NA,timeout,4995.094,375847,375826.327,375843.033,380821.421,380824.3,2023-03-29T12:01:05Z,380838.127,NULL,Notfall,dharura,d,NA,NA,NA,NA,sdfdsf,0,1,NA,NA,NA,NA,NA,NA,NA,NA,NA,NA,NA,NA,NA,NA,NA,NA,NA,NA,NA
70923,deep,flow.Sequence,3_0_1_0_2_0,NA,NA,completion,13721.357,367089.10000001,367083.358,367100.064,380821.421,380824.8,2023-03-29T12:01:05Z,380838.127,NULL,Notfall,dharura,d,NA,NA,NA,NA,sdfdsf,NA,1,NA,NA,NA,NA,NA,NA,NA,NA,NA,NA,NA,NA,NA,NA,NA,NA,NA,NA,NA
70923,shallow,flow.Sequence,3_0_1_0_2_1,NA,NA,skipped,NA,380825,NA,NA,380821.421,380825.3,2023-03-29T12:01:05Z,380838.127,NULL,Notfall,dharura,d,NA,NA,NA,NA,sdfdsf,NA,1,NA,NA,NA,NA,NA,NA,NA,NA,NA,NA,NA,NA,NA,NA,NA,NA,NA,NA,NA
70923,task,flow.Sequence,3_0_1_0_2,NA,NA,completion,13721.357,367089.10000001,367083.358,367100.064,380821.421,380825.60000001,2023-03-29T12:01:05Z,380838.127,NULL,Notfall,dharura,d,NA,NA,NA,NA,sdfdsf,NA,1,NA,NA,NA,NA,NA,NA,NA,NA,NA,NA,NA,NA,NA,NA,NA,NA,NA,NA,NA
70923,Deep Question,html.Page,3_0_1_0_3_0_0,NA,NA,form submission,11927.973000009,380825.90000001,380821.421,380838.127,392766.10000001,392766.7,2023-03-29T12:01:17Z,392771.966,NULL,Respekt,heshima,d,NA,NA,NA,pajf,NA,NA,1,NA,NA,NA,NA,NA,NA,NA,NA,NA,NA,NA,NA,NA,NA,NA,NA,NA,NA,NA
70923,"""Richtig""-Screen",canvas.Screen,3_0_1_0_3_0_1,NA,NA,skipped,NA,392771.10000001,NA,NA,392766.10000001,392771.3,2023-03-29T12:01:17Z,392771.966,NULL,Respekt,heshima,d,NA,NA,NA,NA,sdfdsf,NA,1,NA,NA,NA,NA,NA,NA,NA,NA,NA,NA,NA,NA,NA,NA,NA,NA,NA,NA,NA
70923,"""Falsch""-Screen",canvas.Screen,3_0_1_0_3_0_2,NA,NA,timeout,4995.094,392773,392755.26,392771.966,397750.354,397755,2023-03-29T12:01:22Z,397767.06,NULL,Respekt,heshima,d,NA,NA,NA,NA,sdfdsf,0,1,NA,NA,NA,NA,NA,NA,NA,NA,NA,NA,NA,NA,NA,NA,NA,NA,NA,NA,NA
70923,deep,flow.Sequence,3_0_1_0_3_0,NA,NA,completion,16912.227,380825.8,380821.421,380838.127,397750.354,397755.40000001,2023-03-29T12:01:22Z,397767.06,NULL,Respekt,heshima,d,NA,NA,NA,NA,sdfdsf,NA,1,NA,NA,NA,NA,NA,NA,NA,NA,NA,NA,NA,NA,NA,NA,NA,NA,NA,NA,NA
70923,shallow,flow.Sequence,3_0_1_0_3_1,NA,NA,skipped,NA,397755.7,NA,NA,397750.354,397755.90000001,2023-03-29T12:01:22Z,397767.06,NULL,Respekt,heshima,d,NA,NA,NA,NA,sdfdsf,NA,1,NA,NA,NA,NA,NA,NA,NA,NA,NA,NA,NA,NA,NA,NA,NA,NA,NA,NA,NA
70923,task,flow.Sequence,3_0_1_0_3,NA,NA,completion,16912.227,380825.8,380821.421,380838.127,397750.354,397756.2,2023-03-29T12:01:22Z,397767.06,NULL,Respekt,heshima,d,NA,NA,NA,NA,sdfdsf,NA,1,NA,NA,NA,NA,NA,NA,NA,NA,NA,NA,NA,NA,NA,NA,NA,NA,NA,NA,NA
70923,Deep Question,html.Page,3_0_1_0_4_0_0,NA,NA,form submission,9319.5400000089,397756.5,397750.354,397767.06,407086.60000001,407087,2023-03-29T12:01:32Z,407086.584,NULL,Orientierung,urekebisho,d,NA,NA,NA,kijo,NA,NA,1,NA,NA,NA,NA,NA,NA,NA,NA,NA,NA,NA,NA,NA,NA,NA,NA,NA,NA,NA
70923,"""Richtig""-Screen",canvas.Screen,3_0_1_0_4_0_1,NA,NA,skipped,NA,407091.5,NA,NA,407086.60000001,407091.7,2023-03-29T12:01:32Z,407086.584,NULL,Orientierung,urekebisho,d,NA,NA,NA,NA,sdfdsf,NA,1,NA,NA,NA,NA,NA,NA,NA,NA,NA,NA,NA,NA,NA,NA,NA,NA,NA,NA,NA
70923,"""Falsch""-Screen",canvas.Screen,3_0_1_0_4_0_2,NA,NA,timeout,4995.094,407093.3,407069.878,407086.584,412064.972,412070.3,2023-03-29T12:01:37Z,412081.678,NULL,Orientierung,urekebisho,d,NA,NA,NA,NA,sdfdsf,0,1,NA,NA,NA,NA,NA,NA,NA,NA,NA,NA,NA,NA,NA,NA,NA,NA,NA,NA,NA
70923,deep,flow.Sequence,3_0_1_0_4_0,NA,NA,completion,14297.912,397756.40000001,397750.354,397767.06,412064.972,412070.7,2023-03-29T12:01:37Z,412081.678,NULL,Orientierung,urekebisho,d,NA,NA,NA,NA,sdfdsf,NA,1,NA,NA,NA,NA,NA,NA,NA,NA,NA,NA,NA,NA,NA,NA,NA,NA,NA,NA,NA
70923,shallow,flow.Sequence,3_0_1_0_4_1,NA,NA,skipped,NA,412071,NA,NA,412064.972,412071.3,2023-03-29T12:01:37Z,412081.678,NULL,Orientierung,urekebisho,d,NA,NA,NA,NA,sdfdsf,NA,1,NA,NA,NA,NA,NA,NA,NA,NA,NA,NA,NA,NA,NA,NA,NA,NA,NA,NA,NA
70923,task,flow.Sequence,3_0_1_0_4,NA,NA,completion,14297.912,397756.40000001,397750.354,397767.06,412064.972,412071.7,2023-03-29T12:01:37Z,412081.678,NULL,Orientierung,urekebisho,d,NA,NA,NA,NA,sdfdsf,NA,1,NA,NA,NA,NA,NA,NA,NA,NA,NA,NA,NA,NA,NA,NA,NA,NA,NA,NA,NA
70923,Deep Question,html.Page,3_0_1_0_5_0_0,NA,NA,form submission,7440.9220000089,412072,412064.972,412081.678,419522.60000001,419523,2023-03-29T12:01:44Z,419538.236,NULL,Vergnügen,kichekesho,d,NA,NA,NA,mlm,NA,NA,1,NA,NA,NA,NA,NA,NA,NA,NA,NA,NA,NA,NA,NA,NA,NA,NA,NA,NA,NA
70923,"""Richtig""-Screen",canvas.Screen,3_0_1_0_5_0_1,NA,NA,skipped,NA,419527.3,NA,NA,419522.60000001,419527.7,2023-03-29T12:01:44Z,419538.236,NULL,Vergnügen,kichekesho,d,NA,NA,NA,NA,sdfdsf,NA,1,NA,NA,NA,NA,NA,NA,NA,NA,NA,NA,NA,NA,NA,NA,NA,NA,NA,NA,NA
70923,"""Falsch""-Screen",canvas.Screen,3_0_1_0_5_0_2,NA,NA,timeout,4995.094,419529.10000001,419521.53,419538.236,424516.624,424518,2023-03-29T12:01:49Z,424533.33,NULL,Vergnügen,kichekesho,d,NA,NA,NA,NA,sdfdsf,0,1,NA,NA,NA,NA,NA,NA,NA,NA,NA,NA,NA,NA,NA,NA,NA,NA,NA,NA,NA
70923,deep,flow.Sequence,3_0_1_0_5_0,NA,NA,completion,12434.946,412072,412064.972,412081.678,424516.624,424518.3,2023-03-29T12:01:49Z,424533.33,NULL,Vergnügen,kichekesho,d,NA,NA,NA,NA,sdfdsf,NA,1,NA,NA,NA,NA,NA,NA,NA,NA,NA,NA,NA,NA,NA,NA,NA,NA,NA,NA,NA
70923,shallow,flow.Sequence,3_0_1_0_5_1,NA,NA,skipped,NA,424518.60000001,NA,NA,424516.624,424518.7,2023-03-29T12:01:49Z,424533.33,NULL,Vergnügen,kichekesho,d,NA,NA,NA,NA,sdfdsf,NA,1,NA,NA,NA,NA,NA,NA,NA,NA,NA,NA,NA,NA,NA,NA,NA,NA,NA,NA,NA
70923,task,flow.Sequence,3_0_1_0_5,NA,NA,completion,12434.946,412072,412064.972,412081.678,424516.624,424519,2023-03-29T12:01:49Z,424533.33,NULL,Vergnügen,kichekesho,d,NA,NA,NA,NA,sdfdsf,NA,1,NA,NA,NA,NA,NA,NA,NA,NA,NA,NA,NA,NA,NA,NA,NA,NA,NA,NA,NA
70923,deep,flow.Sequence,3_0_1_0_6_0,NA,NA,skipped,NA,424519.3,NA,NA,424516.624,424519.40000001,2023-03-29T12:01:49Z,424533.33,NULL,Stimmung,kinyongo,s,kilekile,kisambo,madhehebu,NA,sdfdsf,NA,1,NA,NA,NA,NA,NA,NA,NA,NA,NA,NA,NA,NA,NA,NA,NA,NA,NA,NA,NA
70923,Shallow Question,html.Page,3_0_1_0_6_1_0,NA,NA,form submission,12500.17,424519.7,424516.624,424533.33,437033.5,437033.90000001,2023-03-29T12:02:02Z,437040.961,NULL,Stimmung,kinyongo,s,kilekile,kisambo,madhehebu,kisambo,NA,NA,1,NA,NA,NA,NA,NA,NA,NA,NA,NA,NA,NA,NA,NA,NA,NA,NA,NA,NA,NA
70923,"""Richtig""-Screen",canvas.Screen,3_0_1_0_6_1_1,NA,NA,skipped,NA,437037.3,NA,NA,437033.5,437037.60000001,2023-03-29T12:02:02Z,437040.961,NULL,Stimmung,kinyongo,s,kilekile,kisambo,madhehebu,NA,sdfdsf,NA,1,NA,NA,NA,NA,NA,NA,NA,NA,NA,NA,NA,NA,NA,NA,NA,NA,NA,NA,NA
70923,"""Falsch""-Screen",canvas.Screen,3_0_1_0_6_1_2,NA,NA,timeout,4995.094,437039.2,437024.255,437040.961,442019.349,442023.5,2023-03-29T12:02:07Z,442036.055,NULL,Stimmung,kinyongo,s,kilekile,kisambo,madhehebu,NA,sdfdsf,0,1,NA,NA,NA,NA,NA,NA,NA,NA,NA,NA,NA,NA,NA,NA,NA,NA,NA,NA,NA
70923,shallow,flow.Sequence,3_0_1_0_6_1,NA,NA,completion,17486.019,424519.60000001,424516.624,424533.33,442019.349,442023.90000001,2023-03-29T12:02:07Z,442036.055,NULL,Stimmung,kinyongo,s,kilekile,kisambo,madhehebu,NA,sdfdsf,NA,1,NA,NA,NA,NA,NA,NA,NA,NA,NA,NA,NA,NA,NA,NA,NA,NA,NA,NA,NA
70923,task,flow.Sequence,3_0_1_0_6,NA,NA,completion,17486.019,424519.2,424516.624,424533.33,442019.349,442024.2,2023-03-29T12:02:07Z,442036.055,NULL,Stimmung,kinyongo,s,kilekile,kisambo,madhehebu,NA,sdfdsf,NA,1,NA,NA,NA,NA,NA,NA,NA,NA,NA,NA,NA,NA,NA,NA,NA,NA,NA,NA,NA
70923,deep,flow.Sequence,3_0_1_0_7_0,NA,NA,skipped,NA,442024.5,NA,NA,442019.349,442024.7,2023-03-29T12:02:07Z,442036.055,NULL,Betrüger,mdanganyifu,s,mwanamuziki,wastani,mahakama,NA,sdfdsf,NA,1,NA,NA,NA,NA,NA,NA,NA,NA,NA,NA,NA,NA,NA,NA,NA,NA,NA,NA,NA
70923,Shallow Question,html.Page,3_0_1_0_7_1_0,NA,NA,form submission,9236.244999997,442024.90000001,442019.349,442036.055,451272.3,451272.7,2023-03-29T12:02:16Z,451283.021,NULL,Betrüger,mdanganyifu,s,mwanamuziki,wastani,mahakama,mdanganyifu,NA,NA,1,NA,NA,NA,NA,NA,NA,NA,NA,NA,NA,NA,NA,NA,NA,NA,NA,NA,NA,NA
70923,"""Richtig""-Screen",canvas.Screen,3_0_1_0_7_1_1,NA,NA,timeout,4995.094,451276.8,451266.315,451283.021,456261.409,456263.3,2023-03-29T12:02:21Z,456278.115,NULL,Betrüger,mdanganyifu,s,mwanamuziki,wastani,mahakama,NA,sdfdsf,1,1,NA,NA,NA,NA,NA,NA,NA,NA,NA,NA,NA,NA,NA,NA,NA,NA,NA,NA,NA
70923,"""Falsch""-Screen",canvas.Screen,3_0_1_0_7_1_2,NA,NA,skipped,NA,456267.7,NA,NA,456261.409,456268.2,2023-03-29T12:02:21Z,456278.115,NULL,Betrüger,mdanganyifu,s,mwanamuziki,wastani,mahakama,NA,sdfdsf,NA,1,NA,NA,NA,NA,NA,NA,NA,NA,NA,NA,NA,NA,NA,NA,NA,NA,NA,NA,NA
70923,shallow,flow.Sequence,3_0_1_0_7_1,NA,NA,completion,14225.354,442024.90000001,442019.349,442036.055,456261.409,456268.5,2023-03-29T12:02:21Z,456278.115,NULL,Betrüger,mdanganyifu,s,mwanamuziki,wastani,mahakama,NA,sdfdsf,NA,1,NA,NA,NA,NA,NA,NA,NA,NA,NA,NA,NA,NA,NA,NA,NA,NA,NA,NA,NA
70923,task,flow.Sequence,3_0_1_0_7,NA,NA,completion,14225.354,442024.5,442019.349,442036.055,456261.409,456268.7,2023-03-29T12:02:21Z,456278.115,NULL,Betrüger,mdanganyifu,s,mwanamuziki,wastani,mahakama,NA,sdfdsf,NA,1,NA,NA,NA,NA,NA,NA,NA,NA,NA,NA,NA,NA,NA,NA,NA,NA,NA,NA,NA
70923,block,flow.Loop,3_0_1_0,NA,NA,completion,121206.75,335066.90000001,335004.541,335054.659,456261.409,456269,2023-03-29T12:02:21Z,456278.115,NULL,NA,NA,NA,NA,NA,NA,NA,sdfdsf,NA,1,NA,NA,NA,NA,NA,NA,NA,NA,NA,NA,NA,NA,NA,NA,NA,NA,NA,NA,NA
70923,weiter,canvas.Screen,3_0_1_1,sdf,keypress(Space),response,1496.184999997,456269.10000001,456261.409,456278.115,457774.3,457778.2,2023-03-29T12:02:22Z,457831.773,NULL,NA,NA,NA,NA,NA,NA,NA,sdfdsf,NA,1,NA,NA,NA,NA,NA,NA,NA,NA,NA,NA,NA,NA,NA,NA,NA,NA,NA,NA,NA
70923,check continue,flow.Sequence,3_0_1,NA,NA,completion,122719.641,335066.90000001,335004.541,335054.659,457774.3,457778.5,2023-03-29T12:02:22Z,457831.773,NULL,NA,NA,NA,NA,NA,NA,NA,sdfdsf,NA,1,NA,NA,NA,NA,NA,NA,NA,NA,NA,NA,NA,NA,NA,NA,NA,NA,NA,NA,NA
70923,deep,flow.Sequence,3_0_2_0_0_0,NA,NA,skipped,NA,457829.60000001,NA,NA,457774.3,457829.7,2023-03-29T12:02:22Z,457831.773,NULL,Ergänzung,kijalizo,s,ulaghai,mustarehe,matangazo,NA,sdf,NA,2,NA,NA,NA,NA,NA,NA,NA,NA,NA,NA,NA,NA,NA,NA,NA,NA,NA,NA,NA
70923,Shallow Question,html.Page,3_0_2_0_0_1_0,NA,NA,form submission,13205.927000003,457829.8,457764.949,457831.773,471037.7,471038.10000001,2023-03-29T12:02:36Z,471040.948,NULL,Ergänzung,kijalizo,s,ulaghai,mustarehe,matangazo,kijalizo,NA,NA,2,NA,NA,NA,NA,NA,NA,NA,NA,NA,NA,NA,NA,NA,NA,NA,NA,NA,NA,NA
70923,"""Richtig""-Screen",canvas.Screen,3_0_2_0_0_1_1,NA,NA,timeout,4995.094,471041.5,471024.242,471040.948,476019.336,476023.40000001,2023-03-29T12:02:41Z,476036.042,NULL,Ergänzung,kijalizo,s,ulaghai,mustarehe,matangazo,NA,sdf,1,2,NA,NA,NA,NA,NA,NA,NA,NA,NA,NA,NA,NA,NA,NA,NA,NA,NA,NA,NA
70923,"""Falsch""-Screen",canvas.Screen,3_0_2_0_0_1_2,NA,NA,skipped,NA,476027.90000001,NA,NA,476019.336,476028.40000001,2023-03-29T12:02:41Z,476036.042,NULL,Ergänzung,kijalizo,s,ulaghai,mustarehe,matangazo,NA,sdf,NA,2,NA,NA,NA,NA,NA,NA,NA,NA,NA,NA,NA,NA,NA,NA,NA,NA,NA,NA,NA
70923,shallow,flow.Sequence,3_0_2_0_0_1,NA,NA,completion,18187.563,457829.8,457764.949,457831.773,476019.336,476028.7,2023-03-29T12:02:41Z,476036.042,NULL,Ergänzung,kijalizo,s,ulaghai,mustarehe,matangazo,NA,sdf,NA,2,NA,NA,NA,NA,NA,NA,NA,NA,NA,NA,NA,NA,NA,NA,NA,NA,NA,NA,NA
70923,task,flow.Sequence,3_0_2_0_0,NA,NA,completion,18187.563,457829.60000001,457764.949,457831.773,476019.336,476028.90000001,2023-03-29T12:02:41Z,476036.042,NULL,Ergänzung,kijalizo,s,ulaghai,mustarehe,matangazo,NA,sdf,NA,2,NA,NA,NA,NA,NA,NA,NA,NA,NA,NA,NA,NA,NA,NA,NA,NA,NA,NA,NA
70923,Deep Question,html.Page,3_0_2_0_1_0_0,NA,NA,form submission,12305.358000006,476029.10000001,476019.336,476036.042,488341.40000001,488341.8,2023-03-29T12:02:53Z,488348.364,NULL,Respekt,heshima,d,NA,NA,NA,hashema,NA,NA,2,NA,NA,NA,NA,NA,NA,NA,NA,NA,NA,NA,NA,NA,NA,NA,NA,NA,NA,NA
70923,"""Richtig""-Screen",canvas.Screen,3_0_2_0_1_0_1,NA,NA,skipped,NA,488345.60000001,NA,NA,488341.40000001,488346.10000001,2023-03-29T12:02:53Z,488348.364,NULL,Respekt,heshima,d,NA,NA,NA,NA,sdf,NA,2,NA,NA,NA,NA,NA,NA,NA,NA,NA,NA,NA,NA,NA,NA,NA,NA,NA,NA,NA
70923,"""Falsch""-Screen",canvas.Screen,3_0_2_0_1_0_2,NA,NA,timeout,4995.094,488347.60000001,488331.658,488348.364,493326.752,493331.2,2023-03-29T12:02:58Z,493343.458,NULL,Respekt,heshima,d,NA,NA,NA,NA,sdf,0,2,NA,NA,NA,NA,NA,NA,NA,NA,NA,NA,NA,NA,NA,NA,NA,NA,NA,NA,NA
70923,deep,flow.Sequence,3_0_2_0_1_0,NA,NA,completion,17290.71,476029.10000001,476019.336,476036.042,493326.752,493331.7,2023-03-29T12:02:58Z,493343.458,NULL,Respekt,heshima,d,NA,NA,NA,NA,sdf,NA,2,NA,NA,NA,NA,NA,NA,NA,NA,NA,NA,NA,NA,NA,NA,NA,NA,NA,NA,NA
70923,shallow,flow.Sequence,3_0_2_0_1_1,NA,NA,skipped,NA,493331.90000001,NA,NA,493326.752,493332.10000001,2023-03-29T12:02:58Z,493343.458,NULL,Respekt,heshima,d,NA,NA,NA,NA,sdf,NA,2,NA,NA,NA,NA,NA,NA,NA,NA,NA,NA,NA,NA,NA,NA,NA,NA,NA,NA,NA
70923,task,flow.Sequence,3_0_2_0_1,NA,NA,completion,17290.71,476029,476019.336,476036.042,493326.752,493332.40000001,2023-03-29T12:02:58Z,493343.458,NULL,Respekt,heshima,d,NA,NA,NA,NA,sdf,NA,2,NA,NA,NA,NA,NA,NA,NA,NA,NA,NA,NA,NA,NA,NA,NA,NA,NA,NA,NA
70923,deep,flow.Sequence,3_0_2_0_2_0,NA,NA,skipped,NA,493332.7,NA,NA,493326.752,493332.90000001,2023-03-29T12:02:58Z,493343.458,NULL,Betrüger,mdanganyifu,s,mwanamuziki,wastani,mahakama,NA,sdf,NA,2,NA,NA,NA,NA,NA,NA,NA,NA,NA,NA,NA,NA,NA,NA,NA,NA,NA,NA,NA
70923,Shallow Question,html.Page,3_0_2_0_2_1_0,NA,NA,form submission,5548.942000006,493333.10000001,493326.752,493343.458,498892.40000001,498892.8,2023-03-29T12:03:03Z,498904.212,NULL,Betrüger,mdanganyifu,s,mwanamuziki,wastani,mahakama,mdanganyifu,NA,NA,2,NA,NA,NA,NA,NA,NA,NA,NA,NA,NA,NA,NA,NA,NA,NA,NA,NA,NA,NA
70923,"""Richtig""-Screen",canvas.Screen,3_0_2_0_2_1_1,NA,NA,timeout,4995.094,498897,498887.506,498904.212,503882.6,503886.7,2023-03-29T12:03:08Z,503899.306,NULL,Betrüger,mdanganyifu,s,mwanamuziki,wastani,mahakama,NA,sdf,1,2,NA,NA,NA,NA,NA,NA,NA,NA,NA,NA,NA,NA,NA,NA,NA,NA,NA,NA,NA
70923,"""Falsch""-Screen",canvas.Screen,3_0_2_0_2_1_2,NA,NA,skipped,NA,503889.60000001,NA,NA,503882.6,503889.7,2023-03-29T12:03:08Z,503899.306,NULL,Betrüger,mdanganyifu,s,mwanamuziki,wastani,mahakama,NA,sdf,NA,2,NA,NA,NA,NA,NA,NA,NA,NA,NA,NA,NA,NA,NA,NA,NA,NA,NA,NA,NA
70923,shallow,flow.Sequence,3_0_2_0_2_1,NA,NA,completion,10539.142,493333.10000001,493326.752,493343.458,503882.6,503890.10000001,2023-03-29T12:03:08Z,503899.306,NULL,Betrüger,mdanganyifu,s,mwanamuziki,wastani,mahakama,NA,sdf,NA,2,NA,NA,NA,NA,NA,NA,NA,NA,NA,NA,NA,NA,NA,NA,NA,NA,NA,NA,NA
70923,task,flow.Sequence,3_0_2_0_2,NA,NA,completion,10539.142,493332.60000001,493326.752,493343.458,503882.6,503890.3,2023-03-29T12:03:08Z,503899.306,NULL,Betrüger,mdanganyifu,s,mwanamuziki,wastani,mahakama,NA,sdf,NA,2,NA,NA,NA,NA,NA,NA,NA,NA,NA,NA,NA,NA,NA,NA,NA,NA,NA,NA,NA
70923,Deep Question,html.Page,3_0_2_0_3_0_0,NA,NA,form submission,8515.194,503890.60000001,503882.6,503899.306,512414.5,512414.8,2023-03-29T12:03:17Z,512425.099,NULL,Vergnügen,kichekesho,d,NA,NA,NA,jfpaw,NA,NA,2,NA,NA,NA,NA,NA,NA,NA,NA,NA,NA,NA,NA,NA,NA,NA,NA,NA,NA,NA
70923,"""Richtig""-Screen",canvas.Screen,3_0_2_0_3_0_1,NA,NA,skipped,NA,512418.10000001,NA,NA,512414.5,512418.3,2023-03-29T12:03:17Z,512425.099,NULL,Vergnügen,kichekesho,d,NA,NA,NA,NA,sdf,NA,2,NA,NA,NA,NA,NA,NA,NA,NA,NA,NA,NA,NA,NA,NA,NA,NA,NA,NA,NA
70923,"""Falsch""-Screen",canvas.Screen,3_0_2_0_3_0_2,NA,NA,timeout,4995.094,512419.40000001,512408.393,512425.099,517403.487,517406.60000001,2023-03-29T12:03:22Z,517420.193,NULL,Vergnügen,kichekesho,d,NA,NA,NA,NA,sdf,0,2,NA,NA,NA,NA,NA,NA,NA,NA,NA,NA,NA,NA,NA,NA,NA,NA,NA,NA,NA
70923,deep,flow.Sequence,3_0_2_0_3_0,NA,NA,completion,13504.181,503890.5,503882.6,503899.306,517403.487,517407.10000001,2023-03-29T12:03:22Z,517420.193,NULL,Vergnügen,kichekesho,d,NA,NA,NA,NA,sdf,NA,2,NA,NA,NA,NA,NA,NA,NA,NA,NA,NA,NA,NA,NA,NA,NA,NA,NA,NA,NA
70923,shallow,flow.Sequence,3_0_2_0_3_1,NA,NA,skipped,NA,517407.3,NA,NA,517403.487,517407.5,2023-03-29T12:03:22Z,517420.193,NULL,Vergnügen,kichekesho,d,NA,NA,NA,NA,sdf,NA,2,NA,NA,NA,NA,NA,NA,NA,NA,NA,NA,NA,NA,NA,NA,NA,NA,NA,NA,NA
70923,task,flow.Sequence,3_0_2_0_3,NA,NA,completion,13504.181,503890.40000001,503882.6,503899.306,517403.487,517407.8,2023-03-29T12:03:22Z,517420.193,NULL,Vergnügen,kichekesho,d,NA,NA,NA,NA,sdf,NA,2,NA,NA,NA,NA,NA,NA,NA,NA,NA,NA,NA,NA,NA,NA,NA,NA,NA,NA,NA
70923,deep,flow.Sequence,3_0_2_0_4_0,NA,NA,skipped,NA,517408,NA,NA,517403.487,517408.2,2023-03-29T12:03:22Z,517420.193,NULL,Wohlstand,mafanikio,s,chimbuko,kumbuko,mapwaji,NA,sdf,NA,2,NA,NA,NA,NA,NA,NA,NA,NA,NA,NA,NA,NA,NA,NA,NA,NA,NA,NA,NA
70923,Shallow Question,html.Page,3_0_2_0_4_1_0,NA,NA,form submission,14138.106999997,517408.40000001,517403.487,517420.193,531558.3,531558.60000001,2023-03-29T12:03:36Z,531567.824,NULL,Wohlstand,mafanikio,s,chimbuko,kumbuko,mapwaji,kumbuko,NA,NA,2,NA,NA,NA,NA,NA,NA,NA,NA,NA,NA,NA,NA,NA,NA,NA,NA,NA,NA,NA
70923,"""Richtig""-Screen",canvas.Screen,3_0_2_0_4_1_1,NA,NA,skipped,NA,531562.60000001,NA,NA,531558.3,531562.90000001,2023-03-29T12:03:36Z,531567.824,NULL,Wohlstand,mafanikio,s,chimbuko,kumbuko,mapwaji,NA,sdf,NA,2,NA,NA,NA,NA,NA,NA,NA,NA,NA,NA,NA,NA,NA,NA,NA,NA,NA,NA,NA
70923,"""Falsch""-Screen",canvas.Screen,3_0_2_0_4_1_2,NA,NA,timeout,4995.0939999999,531564.5,531551.118,531567.824,536546.212,536549.90000001,2023-03-29T12:03:41Z,536562.918,NULL,Wohlstand,mafanikio,s,chimbuko,kumbuko,mapwaji,NA,sdf,0,2,NA,NA,NA,NA,NA,NA,NA,NA,NA,NA,NA,NA,NA,NA,NA,NA,NA,NA,NA
70923,shallow,flow.Sequence,3_0_2_0_4_1,NA,NA,completion,19126.019,517408.40000001,517403.487,517420.193,536546.212,536550.3,2023-03-29T12:03:41Z,536562.918,NULL,Wohlstand,mafanikio,s,chimbuko,kumbuko,mapwaji,NA,sdf,NA,2,NA,NA,NA,NA,NA,NA,NA,NA,NA,NA,NA,NA,NA,NA,NA,NA,NA,NA,NA
70923,task,flow.Sequence,3_0_2_0_4,NA,NA,completion,19126.019,517407.90000001,517403.487,517420.193,536546.212,536550.60000001,2023-03-29T12:03:41Z,536562.918,NULL,Wohlstand,mafanikio,s,chimbuko,kumbuko,mapwaji,NA,sdf,NA,2,NA,NA,NA,NA,NA,NA,NA,NA,NA,NA,NA,NA,NA,NA,NA,NA,NA,NA,NA
70923,deep,flow.Sequence,3_0_2_0_5_0,NA,NA,skipped,NA,536550.8,NA,NA,536546.212,536551,2023-03-29T12:03:41Z,536562.918,NULL,Stimmung,kinyongo,s,kilekile,kisambo,madhehebu,NA,sdf,NA,2,NA,NA,NA,NA,NA,NA,NA,NA,NA,NA,NA,NA,NA,NA,NA,NA,NA,NA,NA
70923,Shallow Question,html.Page,3_0_2_0_5_1_0,NA,NA,form submission,22135.182000009,536551.2,536546.212,536562.918,558698.10000001,558698.5,2023-03-29T12:04:03Z,558709.82,NULL,Stimmung,kinyongo,s,kilekile,kisambo,madhehebu,kinyongo,NA,NA,2,NA,NA,NA,NA,NA,NA,NA,NA,NA,NA,NA,NA,NA,NA,NA,NA,NA,NA,NA
70923,"""Richtig""-Screen",canvas.Screen,3_0_2_0_5_1_1,NA,NA,timeout,4995.094,558702.60000001,558693.114,558709.82,563688.208,563690.60000001,2023-03-29T12:04:08Z,563704.914,NULL,Stimmung,kinyongo,s,kilekile,kisambo,madhehebu,NA,sdf,1,2,NA,NA,NA,NA,NA,NA,NA,NA,NA,NA,NA,NA,NA,NA,NA,NA,NA,NA,NA
70923,"""Falsch""-Screen",canvas.Screen,3_0_2_0_5_1_2,NA,NA,skipped,NA,563695.2,NA,NA,563688.208,563695.7,2023-03-29T12:04:08Z,563704.914,NULL,Stimmung,kinyongo,s,kilekile,kisambo,madhehebu,NA,sdf,NA,2,NA,NA,NA,NA,NA,NA,NA,NA,NA,NA,NA,NA,NA,NA,NA,NA,NA,NA,NA
70923,shallow,flow.Sequence,3_0_2_0_5_1,NA,NA,completion,27125.29,536551.2,536546.212,536562.918,563688.208,563695.90000001,2023-03-29T12:04:08Z,563704.914,NULL,Stimmung,kinyongo,s,kilekile,kisambo,madhehebu,NA,sdf,NA,2,NA,NA,NA,NA,NA,NA,NA,NA,NA,NA,NA,NA,NA,NA,NA,NA,NA,NA,NA
70923,task,flow.Sequence,3_0_2_0_5,NA,NA,completion,27125.29,536550.8,536546.212,536562.918,563688.208,563696.2,2023-03-29T12:04:08Z,563704.914,NULL,Stimmung,kinyongo,s,kilekile,kisambo,madhehebu,NA,sdf,NA,2,NA,NA,NA,NA,NA,NA,NA,NA,NA,NA,NA,NA,NA,NA,NA,NA,NA,NA,NA
70923,Deep Question,html.Page,3_0_2_0_6_0_0,NA,NA,form submission,4209.486000006,563696.5,563688.208,563704.914,567914.40000001,567914.7,2023-03-29T12:04:12Z,567923.328,NULL,Orientierung,urekebisho,d,NA,NA,NA,ml,NA,NA,2,NA,NA,NA,NA,NA,NA,NA,NA,NA,NA,NA,NA,NA,NA,NA,NA,NA,NA,NA
70923,"""Richtig""-Screen",canvas.Screen,3_0_2_0_6_0_1,NA,NA,skipped,NA,567917.7,NA,NA,567914.40000001,567917.8,2023-03-29T12:04:12Z,567923.328,NULL,Orientierung,urekebisho,d,NA,NA,NA,NA,sdf,NA,2,NA,NA,NA,NA,NA,NA,NA,NA,NA,NA,NA,NA,NA,NA,NA,NA,NA,NA,NA
70923,"""Falsch""-Screen",canvas.Screen,3_0_2_0_6_0_2,NA,NA,timeout,4995.094,567919,567906.622,567923.328,572901.716,572906.40000001,2023-03-29T12:04:17Z,572918.422,NULL,Orientierung,urekebisho,d,NA,NA,NA,NA,sdf,0,2,NA,NA,NA,NA,NA,NA,NA,NA,NA,NA,NA,NA,NA,NA,NA,NA,NA,NA,NA
70923,deep,flow.Sequence,3_0_2_0_6_0,NA,NA,completion,9196.802,563696.40000001,563688.208,563704.914,572901.716,572906.8,2023-03-29T12:04:17Z,572918.422,NULL,Orientierung,urekebisho,d,NA,NA,NA,NA,sdf,NA,2,NA,NA,NA,NA,NA,NA,NA,NA,NA,NA,NA,NA,NA,NA,NA,NA,NA,NA,NA
70923,shallow,flow.Sequence,3_0_2_0_6_1,NA,NA,skipped,NA,572907.2,NA,NA,572901.716,572907.5,2023-03-29T12:04:17Z,572918.422,NULL,Orientierung,urekebisho,d,NA,NA,NA,NA,sdf,NA,2,NA,NA,NA,NA,NA,NA,NA,NA,NA,NA,NA,NA,NA,NA,NA,NA,NA,NA,NA
70923,task,flow.Sequence,3_0_2_0_6,NA,NA,completion,9196.802,563696.40000001,563688.208,563704.914,572901.716,572907.7,2023-03-29T12:04:17Z,572918.422,NULL,Orientierung,urekebisho,d,NA,NA,NA,NA,sdf,NA,2,NA,NA,NA,NA,NA,NA,NA,NA,NA,NA,NA,NA,NA,NA,NA,NA,NA,NA,NA
70923,Deep Question,html.Page,3_0_2_0_7_0_0,NA,NA,form submission,6385.778000003,572908.10000001,572901.716,572918.422,579304.2,579304.8,2023-03-29T12:04:24Z,579305.913,NULL,Notfall,dharura,d,NA,NA,NA,mlo,NA,NA,2,NA,NA,NA,NA,NA,NA,NA,NA,NA,NA,NA,NA,NA,NA,NA,NA,NA,NA,NA
70923,"""Richtig""-Screen",canvas.Screen,3_0_2_0_7_0_1,NA,NA,skipped,NA,579309.10000001,NA,NA,579304.2,579309.3,2023-03-29T12:04:24Z,579305.913,NULL,Notfall,dharura,d,NA,NA,NA,NA,sdf,NA,2,NA,NA,NA,NA,NA,NA,NA,NA,NA,NA,NA,NA,NA,NA,NA,NA,NA,NA,NA
70923,"""Falsch""-Screen",canvas.Screen,3_0_2_0_7_0_2,NA,NA,timeout,4995.094,579310.90000001,579289.207,579305.913,584284.301,584285.90000001,2023-03-29T12:04:29Z,584301.007,NULL,Notfall,dharura,d,NA,NA,NA,NA,sdf,0,2,NA,NA,NA,NA,NA,NA,NA,NA,NA,NA,NA,NA,NA,NA,NA,NA,NA,NA,NA
70923,deep,flow.Sequence,3_0_2_0_7_0,NA,NA,completion,11365.879,572908,572901.716,572918.422,584284.301,584286.2,2023-03-29T12:04:29Z,584301.007,NULL,Notfall,dharura,d,NA,NA,NA,NA,sdf,NA,2,NA,NA,NA,NA,NA,NA,NA,NA,NA,NA,NA,NA,NA,NA,NA,NA,NA,NA,NA
70923,shallow,flow.Sequence,3_0_2_0_7_1,NA,NA,skipped,NA,584286.3,NA,NA,584284.301,584286.5,2023-03-29T12:04:29Z,584301.007,NULL,Notfall,dharura,d,NA,NA,NA,NA,sdf,NA,2,NA,NA,NA,NA,NA,NA,NA,NA,NA,NA,NA,NA,NA,NA,NA,NA,NA,NA,NA
70923,task,flow.Sequence,3_0_2_0_7,NA,NA,completion,11365.879,572907.90000001,572901.716,572918.422,584284.301,584286.7,2023-03-29T12:04:29Z,584301.007,NULL,Notfall,dharura,d,NA,NA,NA,NA,sdf,NA,2,NA,NA,NA,NA,NA,NA,NA,NA,NA,NA,NA,NA,NA,NA,NA,NA,NA,NA,NA
70923,block,flow.Loop,3_0_2_0,NA,NA,completion,126452.528,457829.40000001,457764.949,457831.773,584284.301,584286.90000001,2023-03-29T12:04:29Z,584301.007,NULL,NA,NA,NA,NA,NA,NA,NA,sdf,NA,2,NA,NA,NA,NA,NA,NA,NA,NA,NA,NA,NA,NA,NA,NA,NA,NA,NA,NA,NA
70923,weiter,canvas.Screen,3_0_2_1,sdf,keypress(Space),response,1110.893000006,584287,584284.301,584301.007,585411.90000001,585415.2,2023-03-29T12:04:30Z,585453.721,NULL,NA,NA,NA,NA,NA,NA,NA,sdf,NA,2,NA,NA,NA,NA,NA,NA,NA,NA,NA,NA,NA,NA,NA,NA,NA,NA,NA,NA,NA
70923,check continue,flow.Sequence,3_0_2,NA,NA,completion,127580.12700001,457829.40000001,457764.949,457831.773,585411.90000001,585415.5,2023-03-29T12:04:30Z,585453.721,NULL,NA,NA,NA,NA,NA,NA,NA,sdf,NA,2,NA,NA,NA,NA,NA,NA,NA,NA,NA,NA,NA,NA,NA,NA,NA,NA,NA,NA,NA
70923,deep,flow.Sequence,3_0_3_0_0_0,NA,NA,skipped,NA,585466.90000001,NA,NA,585411.90000001,585467,2023-03-29T12:04:30Z,585453.721,NULL,Wohlstand,mafanikio,s,chimbuko,kumbuko,mapwaji,NA,qt,NA,3,NA,NA,NA,NA,NA,NA,NA,NA,NA,NA,NA,NA,NA,NA,NA,NA,NA,NA,NA
70923,Shallow Question,html.Page,3_0_3_0_0_1_0,NA,NA,form submission,8074.578999997,585467.2,585403.603,585453.721,593528.3,593528.8,2023-03-29T12:04:38Z,593528.45,NULL,Wohlstand,mafanikio,s,chimbuko,kumbuko,mapwaji,mafanikio,NA,NA,3,NA,NA,NA,NA,NA,NA,NA,NA,NA,NA,NA,NA,NA,NA,NA,NA,NA,NA,NA
70923,"""Richtig""-Screen",canvas.Screen,3_0_3_0_0_1_1,NA,NA,timeout,4995.094,593532.60000001,593511.744,593528.45,598506.838,598508.90000001,2023-03-29T12:04:43Z,598523.544,NULL,Wohlstand,mafanikio,s,chimbuko,kumbuko,mapwaji,NA,qt,1,3,NA,NA,NA,NA,NA,NA,NA,NA,NA,NA,NA,NA,NA,NA,NA,NA,NA,NA,NA
70923,"""Falsch""-Screen",canvas.Screen,3_0_3_0_0_1_2,NA,NA,skipped,NA,598513.8,NA,NA,598506.838,598514.2,2023-03-29T12:04:43Z,598523.544,NULL,Wohlstand,mafanikio,s,chimbuko,kumbuko,mapwaji,NA,qt,NA,3,NA,NA,NA,NA,NA,NA,NA,NA,NA,NA,NA,NA,NA,NA,NA,NA,NA,NA,NA
70923,shallow,flow.Sequence,3_0_3_0_0_1,NA,NA,completion,13053.117,585467.10000001,585403.603,585453.721,598506.838,598514.40000001,2023-03-29T12:04:43Z,598523.544,NULL,Wohlstand,mafanikio,s,chimbuko,kumbuko,mapwaji,NA,qt,NA,3,NA,NA,NA,NA,NA,NA,NA,NA,NA,NA,NA,NA,NA,NA,NA,NA,NA,NA,NA
70923,task,flow.Sequence,3_0_3_0_0,NA,NA,completion,13053.117,585466.8,585403.603,585453.721,598506.838,598514.8,2023-03-29T12:04:43Z,598523.544,NULL,Wohlstand,mafanikio,s,chimbuko,kumbuko,mapwaji,NA,qt,NA,3,NA,NA,NA,NA,NA,NA,NA,NA,NA,NA,NA,NA,NA,NA,NA,NA,NA,NA,NA
70923,Deep Question,html.Page,3_0_3_0_1_0_0,NA,NA,form submission,9540.856000006,598515,598506.838,598523.544,608064.40000001,608064.90000001,2023-03-29T12:04:53Z,608071.238,NULL,Notfall,dharura,d,NA,NA,NA,dharara,NA,NA,3,NA,NA,NA,NA,NA,NA,NA,NA,NA,NA,NA,NA,NA,NA,NA,NA,NA,NA,NA
70923,"""Richtig""-Screen",canvas.Screen,3_0_3_0_1_0_1,NA,NA,skipped,NA,608068.8,NA,NA,608064.40000001,608069.10000001,2023-03-29T12:04:53Z,608071.238,NULL,Notfall,dharura,d,NA,NA,NA,NA,qt,NA,3,NA,NA,NA,NA,NA,NA,NA,NA,NA,NA,NA,NA,NA,NA,NA,NA,NA,NA,NA
70923,"""Falsch""-Screen",canvas.Screen,3_0_3_0_1_0_2,NA,NA,timeout,4995.094,608070.5,608054.532,608071.238,613049.626,613053.90000001,2023-03-29T12:04:58Z,613066.332,NULL,Notfall,dharura,d,NA,NA,NA,NA,qt,0,3,NA,NA,NA,NA,NA,NA,NA,NA,NA,NA,NA,NA,NA,NA,NA,NA,NA,NA,NA
70923,deep,flow.Sequence,3_0_3_0_1_0,NA,NA,completion,14526.082,598514.90000001,598506.838,598523.544,613049.626,613054.2,2023-03-29T12:04:58Z,613066.332,NULL,Notfall,dharura,d,NA,NA,NA,NA,qt,NA,3,NA,NA,NA,NA,NA,NA,NA,NA,NA,NA,NA,NA,NA,NA,NA,NA,NA,NA,NA
70923,shallow,flow.Sequence,3_0_3_0_1_1,NA,NA,skipped,NA,613054.40000001,NA,NA,613049.626,613054.5,2023-03-29T12:04:58Z,613066.332,NULL,Notfall,dharura,d,NA,NA,NA,NA,qt,NA,3,NA,NA,NA,NA,NA,NA,NA,NA,NA,NA,NA,NA,NA,NA,NA,NA,NA,NA,NA
70923,task,flow.Sequence,3_0_3_0_1,NA,NA,completion,14526.082,598514.8,598506.838,598523.544,613049.626,613054.7,2023-03-29T12:04:58Z,613066.332,NULL,Notfall,dharura,d,NA,NA,NA,NA,qt,NA,3,NA,NA,NA,NA,NA,NA,NA,NA,NA,NA,NA,NA,NA,NA,NA,NA,NA,NA,NA
70923,deep,flow.Sequence,3_0_3_0_2_0,NA,NA,skipped,NA,613054.90000001,NA,NA,613049.626,613055.10000001,2023-03-29T12:04:58Z,613066.332,NULL,Betrüger,mdanganyifu,s,mwanamuziki,wastani,mahakama,NA,qt,NA,3,NA,NA,NA,NA,NA,NA,NA,NA,NA,NA,NA,NA,NA,NA,NA,NA,NA,NA,NA
70923,Shallow Question,html.Page,3_0_3_0_2_1_0,NA,NA,form submission,7567.3680000029,613055.40000001,613049.626,613066.332,620633.7,620634.2,2023-03-29T12:05:05Z,620642.709,NULL,Betrüger,mdanganyifu,s,mwanamuziki,wastani,mahakama,mdanganyifu,NA,NA,3,NA,NA,NA,NA,NA,NA,NA,NA,NA,NA,NA,NA,NA,NA,NA,NA,NA,NA,NA
70923,"""Richtig""-Screen",canvas.Screen,3_0_3_0_2_1_1,NA,NA,timeout,4995.0939999999,620638.3,620626.003,620642.709,625621.097,625623.7,2023-03-29T12:05:10Z,625637.803,NULL,Betrüger,mdanganyifu,s,mwanamuziki,wastani,mahakama,NA,qt,1,3,NA,NA,NA,NA,NA,NA,NA,NA,NA,NA,NA,NA,NA,NA,NA,NA,NA,NA,NA
70923,"""Falsch""-Screen",canvas.Screen,3_0_3_0_2_1_2,NA,NA,skipped,NA,625628.10000001,NA,NA,625621.097,625628.5,2023-03-29T12:05:10Z,625637.803,NULL,Betrüger,mdanganyifu,s,mwanamuziki,wastani,mahakama,NA,qt,NA,3,NA,NA,NA,NA,NA,NA,NA,NA,NA,NA,NA,NA,NA,NA,NA,NA,NA,NA,NA
70923,shallow,flow.Sequence,3_0_3_0_2_1,NA,NA,completion,12554.765,613055.3,613049.626,613066.332,625621.097,625628.8,2023-03-29T12:05:10Z,625637.803,NULL,Betrüger,mdanganyifu,s,mwanamuziki,wastani,mahakama,NA,qt,NA,3,NA,NA,NA,NA,NA,NA,NA,NA,NA,NA,NA,NA,NA,NA,NA,NA,NA,NA,NA
70923,task,flow.Sequence,3_0_3_0_2,NA,NA,completion,12554.765,613054.90000001,613049.626,613066.332,625621.097,625629,2023-03-29T12:05:10Z,625637.803,NULL,Betrüger,mdanganyifu,s,mwanamuziki,wastani,mahakama,NA,qt,NA,3,NA,NA,NA,NA,NA,NA,NA,NA,NA,NA,NA,NA,NA,NA,NA,NA,NA,NA,NA
70923,Deep Question,html.Page,3_0_3_0_3_0_0,NA,NA,form submission,10219.197,625629.3,625621.097,625637.803,635857,635857.5,2023-03-29T12:05:20Z,635856.681,NULL,Orientierung,urekebisho,d,NA,NA,NA,ml,NA,NA,3,NA,NA,NA,NA,NA,NA,NA,NA,NA,NA,NA,NA,NA,NA,NA,NA,NA,NA,NA
70923,"""Richtig""-Screen",canvas.Screen,3_0_3_0_3_0_1,NA,NA,skipped,NA,635861.40000001,NA,NA,635857,635861.8,2023-03-29T12:05:20Z,635856.681,NULL,Orientierung,urekebisho,d,NA,NA,NA,NA,qt,NA,3,NA,NA,NA,NA,NA,NA,NA,NA,NA,NA,NA,NA,NA,NA,NA,NA,NA,NA,NA
70923,"""Falsch""-Screen",canvas.Screen,3_0_3_0_3_0_2,NA,NA,timeout,4995.094,635863.3,635839.975,635856.681,640835.069,640838,2023-03-29T12:05:25Z,640851.775,NULL,Orientierung,urekebisho,d,NA,NA,NA,NA,qt,0,3,NA,NA,NA,NA,NA,NA,NA,NA,NA,NA,NA,NA,NA,NA,NA,NA,NA,NA,NA
70923,deep,flow.Sequence,3_0_3_0_3_0,NA,NA,completion,15197.266,625629.2,625621.097,625637.803,640835.069,640838.40000001,2023-03-29T12:05:25Z,640851.775,NULL,Orientierung,urekebisho,d,NA,NA,NA,NA,qt,NA,3,NA,NA,NA,NA,NA,NA,NA,NA,NA,NA,NA,NA,NA,NA,NA,NA,NA,NA,NA
70923,shallow,flow.Sequence,3_0_3_0_3_1,NA,NA,skipped,NA,640838.5,NA,NA,640835.069,640838.8,2023-03-29T12:05:25Z,640851.775,NULL,Orientierung,urekebisho,d,NA,NA,NA,NA,qt,NA,3,NA,NA,NA,NA,NA,NA,NA,NA,NA,NA,NA,NA,NA,NA,NA,NA,NA,NA,NA
70923,task,flow.Sequence,3_0_3_0_3,NA,NA,completion,15197.266,625629.2,625621.097,625637.803,640835.069,640839,2023-03-29T12:05:25Z,640851.775,NULL,Orientierung,urekebisho,d,NA,NA,NA,NA,qt,NA,3,NA,NA,NA,NA,NA,NA,NA,NA,NA,NA,NA,NA,NA,NA,NA,NA,NA,NA,NA
70923,deep,flow.Sequence,3_0_3_0_4_0,NA,NA,skipped,NA,640839.40000001,NA,NA,640835.069,640839.60000001,2023-03-29T12:05:25Z,640851.775,NULL,Ergänzung,kijalizo,s,ulaghai,mustarehe,matangazo,NA,qt,NA,3,NA,NA,NA,NA,NA,NA,NA,NA,NA,NA,NA,NA,NA,NA,NA,NA,NA,NA,NA
70923,Shallow Question,html.Page,3_0_3_0_4_1_0,NA,NA,form submission,20117.524999997,640839.8,640835.069,640851.775,660969.3,660969.7,2023-03-29T12:05:46Z,660980.067,NULL,Ergänzung,kijalizo,s,ulaghai,mustarehe,matangazo,kijalizo,NA,NA,3,NA,NA,NA,NA,NA,NA,NA,NA,NA,NA,NA,NA,NA,NA,NA,NA,NA,NA,NA
70923,"""Richtig""-Screen",canvas.Screen,3_0_3_0_4_1_1,NA,NA,timeout,4995.0939999999,660973.7,660963.361,660980.067,665958.455,665962.7,2023-03-29T12:05:51Z,665975.161,NULL,Ergänzung,kijalizo,s,ulaghai,mustarehe,matangazo,NA,qt,1,3,NA,NA,NA,NA,NA,NA,NA,NA,NA,NA,NA,NA,NA,NA,NA,NA,NA,NA,NA
70923,"""Falsch""-Screen",canvas.Screen,3_0_3_0_4_1_2,NA,NA,skipped,NA,665967.5,NA,NA,665958.455,665967.90000001,2023-03-29T12:05:51Z,665975.161,NULL,Ergänzung,kijalizo,s,ulaghai,mustarehe,matangazo,NA,qt,NA,3,NA,NA,NA,NA,NA,NA,NA,NA,NA,NA,NA,NA,NA,NA,NA,NA,NA,NA,NA
70923,shallow,flow.Sequence,3_0_3_0_4_1,NA,NA,completion,25106.68,640839.7,640835.069,640851.775,665958.455,665968.2,2023-03-29T12:05:51Z,665975.161,NULL,Ergänzung,kijalizo,s,ulaghai,mustarehe,matangazo,NA,qt,NA,3,NA,NA,NA,NA,NA,NA,NA,NA,NA,NA,NA,NA,NA,NA,NA,NA,NA,NA,NA
70923,task,flow.Sequence,3_0_3_0_4,NA,NA,completion,25106.68,640839.2,640835.069,640851.775,665958.455,665968.40000001,2023-03-29T12:05:51Z,665975.161,NULL,Ergänzung,kijalizo,s,ulaghai,mustarehe,matangazo,NA,qt,NA,3,NA,NA,NA,NA,NA,NA,NA,NA,NA,NA,NA,NA,NA,NA,NA,NA,NA,NA,NA
70923,Deep Question,html.Page,3_0_3_0_5_0_0,NA,NA,form submission,7218.539000003,665968.60000001,665958.455,665975.161,673193.7,673194.2,2023-03-29T12:05:58Z,673197.888,NULL,Respekt,heshima,d,NA,NA,NA,kashema,NA,NA,3,NA,NA,NA,NA,NA,NA,NA,NA,NA,NA,NA,NA,NA,NA,NA,NA,NA,NA,NA
70923,"""Richtig""-Screen",canvas.Screen,3_0_3_0_5_0_1,NA,NA,skipped,NA,673197.90000001,NA,NA,673193.7,673198.3,2023-03-29T12:05:58Z,673197.888,NULL,Respekt,heshima,d,NA,NA,NA,NA,qt,NA,3,NA,NA,NA,NA,NA,NA,NA,NA,NA,NA,NA,NA,NA,NA,NA,NA,NA,NA,NA
70923,"""Falsch""-Screen",canvas.Screen,3_0_3_0_5_0_2,NA,NA,timeout,4995.0939999999,673199.90000001,673181.182,673197.888,678176.276,678178.8,2023-03-29T12:06:03Z,678192.982,NULL,Respekt,heshima,d,NA,NA,NA,NA,qt,0,3,NA,NA,NA,NA,NA,NA,NA,NA,NA,NA,NA,NA,NA,NA,NA,NA,NA,NA,NA
70923,deep,flow.Sequence,3_0_3_0_5_0,NA,NA,completion,12201.115,665968.5,665958.455,665975.161,678176.276,678179.2,2023-03-29T12:06:03Z,678192.982,NULL,Respekt,heshima,d,NA,NA,NA,NA,qt,NA,3,NA,NA,NA,NA,NA,NA,NA,NA,NA,NA,NA,NA,NA,NA,NA,NA,NA,NA,NA
70923,shallow,flow.Sequence,3_0_3_0_5_1,NA,NA,skipped,NA,678179.40000001,NA,NA,678176.276,678179.60000001,2023-03-29T12:06:03Z,678192.982,NULL,Respekt,heshima,d,NA,NA,NA,NA,qt,NA,3,NA,NA,NA,NA,NA,NA,NA,NA,NA,NA,NA,NA,NA,NA,NA,NA,NA,NA,NA
70923,task,flow.Sequence,3_0_3_0_5,NA,NA,completion,12201.115,665968.5,665958.455,665975.161,678176.276,678179.90000001,2023-03-29T12:06:03Z,678192.982,NULL,Respekt,heshima,d,NA,NA,NA,NA,qt,NA,3,NA,NA,NA,NA,NA,NA,NA,NA,NA,NA,NA,NA,NA,NA,NA,NA,NA,NA,NA
70923,Deep Question,html.Page,3_0_3_0_6_0_0,NA,NA,form submission,25006.718000003,678180.3,678176.276,678192.982,703199.7,703200.10000001,2023-03-29T12:06:28Z,703202.301,NULL,Vergnügen,kichekesho,d,NA,NA,NA,nk,NA,NA,3,NA,NA,NA,NA,NA,NA,NA,NA,NA,NA,NA,NA,NA,NA,NA,NA,NA,NA,NA
70923,"""Richtig""-Screen",canvas.Screen,3_0_3_0_6_0_1,NA,NA,skipped,NA,703204.40000001,NA,NA,703199.7,703204.7,2023-03-29T12:06:28Z,703202.301,NULL,Vergnügen,kichekesho,d,NA,NA,NA,NA,qt,NA,3,NA,NA,NA,NA,NA,NA,NA,NA,NA,NA,NA,NA,NA,NA,NA,NA,NA,NA,NA
70923,"""Falsch""-Screen",canvas.Screen,3_0_3_0_6_0_2,NA,NA,timeout,4995.094,703206.10000001,703185.595,703202.301,708180.689,708182.2,2023-03-29T12:06:33Z,708197.395,NULL,Vergnügen,kichekesho,d,NA,NA,NA,NA,qt,0,3,NA,NA,NA,NA,NA,NA,NA,NA,NA,NA,NA,NA,NA,NA,NA,NA,NA,NA,NA
70923,deep,flow.Sequence,3_0_3_0_6_0,NA,NA,completion,29987.707,678180.10000001,678176.276,678192.982,708180.689,708182.60000001,2023-03-29T12:06:33Z,708197.395,NULL,Vergnügen,kichekesho,d,NA,NA,NA,NA,qt,NA,3,NA,NA,NA,NA,NA,NA,NA,NA,NA,NA,NA,NA,NA,NA,NA,NA,NA,NA,NA
70923,shallow,flow.Sequence,3_0_3_0_6_1,NA,NA,skipped,NA,708182.7,NA,NA,708180.689,708182.90000001,2023-03-29T12:06:33Z,708197.395,NULL,Vergnügen,kichekesho,d,NA,NA,NA,NA,qt,NA,3,NA,NA,NA,NA,NA,NA,NA,NA,NA,NA,NA,NA,NA,NA,NA,NA,NA,NA,NA
70923,task,flow.Sequence,3_0_3_0_6,NA,NA,completion,29987.707,678180,678176.276,678192.982,708180.689,708183.10000001,2023-03-29T12:06:33Z,708197.395,NULL,Vergnügen,kichekesho,d,NA,NA,NA,NA,qt,NA,3,NA,NA,NA,NA,NA,NA,NA,NA,NA,NA,NA,NA,NA,NA,NA,NA,NA,NA,NA
70923,deep,flow.Sequence,3_0_3_0_7_0,NA,NA,skipped,NA,708183.3,NA,NA,708180.689,708183.40000001,2023-03-29T12:06:33Z,708197.395,NULL,Stimmung,kinyongo,s,kilekile,kisambo,madhehebu,NA,qt,NA,3,NA,NA,NA,NA,NA,NA,NA,NA,NA,NA,NA,NA,NA,NA,NA,NA,NA,NA,NA
70923,Shallow Question,html.Page,3_0_3_0_7_1_0,NA,NA,form submission,10683.404999997,708183.7,708180.689,708197.395,718880.8,718881.2,2023-03-29T12:06:43Z,718881.168,NULL,Stimmung,kinyongo,s,kilekile,kisambo,madhehebu,kinyongo,NA,NA,3,NA,NA,NA,NA,NA,NA,NA,NA,NA,NA,NA,NA,NA,NA,NA,NA,NA,NA,NA
70923,"""Richtig""-Screen",canvas.Screen,3_0_3_0_7_1_1,NA,NA,timeout,4995.094,718885.3,718864.462,718881.168,723859.556,723861.90000001,2023-03-29T12:06:48Z,723876.262,NULL,Stimmung,kinyongo,s,kilekile,kisambo,madhehebu,NA,qt,1,3,NA,NA,NA,NA,NA,NA,NA,NA,NA,NA,NA,NA,NA,NA,NA,NA,NA,NA,NA
70923,"""Falsch""-Screen",canvas.Screen,3_0_3_0_7_1_2,NA,NA,skipped,NA,723866.40000001,NA,NA,723859.556,723866.7,2023-03-29T12:06:48Z,723876.262,NULL,Stimmung,kinyongo,s,kilekile,kisambo,madhehebu,NA,qt,NA,3,NA,NA,NA,NA,NA,NA,NA,NA,NA,NA,NA,NA,NA,NA,NA,NA,NA,NA,NA
70923,shallow,flow.Sequence,3_0_3_0_7_1,NA,NA,completion,15662.161,708183.5,708180.689,708197.395,723859.556,723867.10000001,2023-03-29T12:06:48Z,723876.262,NULL,Stimmung,kinyongo,s,kilekile,kisambo,madhehebu,NA,qt,NA,3,NA,NA,NA,NA,NA,NA,NA,NA,NA,NA,NA,NA,NA,NA,NA,NA,NA,NA,NA
70923,task,flow.Sequence,3_0_3_0_7,NA,NA,completion,15662.161,708183.3,708180.689,708197.395,723859.556,723867.3,2023-03-29T12:06:48Z,723876.262,NULL,Stimmung,kinyongo,s,kilekile,kisambo,madhehebu,NA,qt,NA,3,NA,NA,NA,NA,NA,NA,NA,NA,NA,NA,NA,NA,NA,NA,NA,NA,NA,NA,NA
70923,block,flow.Loop,3_0_3_0,NA,NA,completion,138405.835,585466.8,585403.603,585453.721,723859.556,723867.5,2023-03-29T12:06:48Z,723876.262,NULL,NA,NA,NA,NA,NA,NA,NA,qt,NA,3,NA,NA,NA,NA,NA,NA,NA,NA,NA,NA,NA,NA,NA,NA,NA,NA,NA,NA,NA
70923,weiter,canvas.Screen,3_0_3_1,sdf,keypress(Space),response,1381.037999997,723867.60000001,723859.556,723876.262,725257.3,725261,2023-03-29T12:06:50Z,725318.714,NULL,NA,NA,NA,NA,NA,NA,NA,qt,NA,3,NA,NA,NA,NA,NA,NA,NA,NA,NA,NA,NA,NA,NA,NA,NA,NA,NA,NA,NA
70923,check continue,flow.Sequence,3_0_3,NA,NA,completion,139803.579,585466.8,585403.603,585453.721,725257.3,725261.3,2023-03-29T12:06:50Z,725318.714,NULL,NA,NA,NA,NA,NA,NA,NA,qt,NA,3,NA,NA,NA,NA,NA,NA,NA,NA,NA,NA,NA,NA,NA,NA,NA,NA,NA,NA,NA
70923,Deep Question,html.Page,3_0_4_0_0_0_0,NA,NA,form submission,11903.886000009,725323.40000001,725251.89,725318.714,737222.60000001,737223.10000001,2023-03-29T12:07:02Z,737235.839,NULL,Respekt,heshima,d,NA,NA,NA,hashema,NA,NA,4,NA,NA,NA,NA,NA,NA,NA,NA,NA,NA,NA,NA,NA,NA,NA,NA,NA,NA,NA
70923,"""Richtig""-Screen",canvas.Screen,3_0_4_0_0_0_1,NA,NA,skipped,NA,737226.10000001,NA,NA,737222.60000001,737226.40000001,2023-03-29T12:07:02Z,737235.839,NULL,Respekt,heshima,d,NA,NA,NA,NA,sd,NA,4,NA,NA,NA,NA,NA,NA,NA,NA,NA,NA,NA,NA,NA,NA,NA,NA,NA,NA,NA
70923,"""Falsch""-Screen",canvas.Screen,3_0_4_0_0_0_2,NA,NA,timeout,4995.0939999999,737227.7,737219.133,737235.839,742214.227,742216.60000001,2023-03-29T12:07:07Z,742230.933,NULL,Respekt,heshima,d,NA,NA,NA,NA,sd,0,4,NA,NA,NA,NA,NA,NA,NA,NA,NA,NA,NA,NA,NA,NA,NA,NA,NA,NA,NA
70923,deep,flow.Sequence,3_0_4_0_0_0,NA,NA,completion,16895.513,725323.3,725251.89,725318.714,742214.227,742216.8,2023-03-29T12:07:07Z,742230.933,NULL,Respekt,heshima,d,NA,NA,NA,NA,sd,NA,4,NA,NA,NA,NA,NA,NA,NA,NA,NA,NA,NA,NA,NA,NA,NA,NA,NA,NA,NA
70923,shallow,flow.Sequence,3_0_4_0_0_1,NA,NA,skipped,NA,742216.8,NA,NA,742214.227,742216.90000001,2023-03-29T12:07:07Z,742230.933,NULL,Respekt,heshima,d,NA,NA,NA,NA,sd,NA,4,NA,NA,NA,NA,NA,NA,NA,NA,NA,NA,NA,NA,NA,NA,NA,NA,NA,NA,NA
70923,task,flow.Sequence,3_0_4_0_0,NA,NA,completion,16895.513,725323.2,725251.89,725318.714,742214.227,742217,2023-03-29T12:07:07Z,742230.933,NULL,Respekt,heshima,d,NA,NA,NA,NA,sd,NA,4,NA,NA,NA,NA,NA,NA,NA,NA,NA,NA,NA,NA,NA,NA,NA,NA,NA,NA,NA
70923,deep,flow.Sequence,3_0_4_0_1_0,NA,NA,skipped,NA,742217.10000001,NA,NA,742214.227,742217.2,2023-03-29T12:07:07Z,742230.933,NULL,Stimmung,kinyongo,s,kilekile,kisambo,madhehebu,NA,sd,NA,4,NA,NA,NA,NA,NA,NA,NA,NA,NA,NA,NA,NA,NA,NA,NA,NA,NA,NA,NA
70923,Shallow Question,html.Page,3_0_4_0_1_1_0,NA,NA,form submission,10098.167000009,742217.3,742214.227,742230.933,752329.10000001,752329.3,2023-03-29T12:07:17Z,752343.714,NULL,Stimmung,kinyongo,s,kilekile,kisambo,madhehebu,kinyongo,NA,NA,4,NA,NA,NA,NA,NA,NA,NA,NA,NA,NA,NA,NA,NA,NA,NA,NA,NA,NA,NA
70923,"""Richtig""-Screen",canvas.Screen,3_0_4_0_1_1_1,NA,NA,timeout,4995.0939999999,752332.2,752327.008,752343.714,757322.102,757326.10000001,2023-03-29T12:07:22Z,757338.808,NULL,Stimmung,kinyongo,s,kilekile,kisambo,madhehebu,NA,sd,1,4,NA,NA,NA,NA,NA,NA,NA,NA,NA,NA,NA,NA,NA,NA,NA,NA,NA,NA,NA
70923,"""Falsch""-Screen",canvas.Screen,3_0_4_0_1_1_2,NA,NA,skipped,NA,757330.7,NA,NA,757322.102,757331.10000001,2023-03-29T12:07:22Z,757338.808,NULL,Stimmung,kinyongo,s,kilekile,kisambo,madhehebu,NA,sd,NA,4,NA,NA,NA,NA,NA,NA,NA,NA,NA,NA,NA,NA,NA,NA,NA,NA,NA,NA,NA
70923,shallow,flow.Sequence,3_0_4_0_1_1,NA,NA,completion,15091.169,742217.3,742214.227,742230.933,757322.102,757331.40000001,2023-03-29T12:07:22Z,757338.808,NULL,Stimmung,kinyongo,s,kilekile,kisambo,madhehebu,NA,sd,NA,4,NA,NA,NA,NA,NA,NA,NA,NA,NA,NA,NA,NA,NA,NA,NA,NA,NA,NA,NA
70923,task,flow.Sequence,3_0_4_0_1,NA,NA,completion,15091.169,742217.10000001,742214.227,742230.933,757322.102,757331.60000001,2023-03-29T12:07:22Z,757338.808,NULL,Stimmung,kinyongo,s,kilekile,kisambo,madhehebu,NA,sd,NA,4,NA,NA,NA,NA,NA,NA,NA,NA,NA,NA,NA,NA,NA,NA,NA,NA,NA,NA,NA
70923,Deep Question,html.Page,3_0_4_0_2_0_0,NA,NA,form submission,17010.292000009,757331.8,757322.102,757338.808,774349.10000001,774349.60000001,2023-03-29T12:07:39Z,774359.871,NULL,Vergnügen,kichekesho,d,NA,NA,NA,kasekechu,NA,NA,4,NA,NA,NA,NA,NA,NA,NA,NA,NA,NA,NA,NA,NA,NA,NA,NA,NA,NA,NA
70923,"""Richtig""-Screen",canvas.Screen,3_0_4_0_2_0_1,NA,NA,skipped,NA,774353.3,NA,NA,774349.10000001,774353.7,2023-03-29T12:07:39Z,774359.871,NULL,Vergnügen,kichekesho,d,NA,NA,NA,NA,sd,NA,4,NA,NA,NA,NA,NA,NA,NA,NA,NA,NA,NA,NA,NA,NA,NA,NA,NA,NA,NA
70923,"""Falsch""-Screen",canvas.Screen,3_0_4_0_2_0_2,NA,NA,timeout,4995.0939999999,774355.10000001,774343.165,774359.871,779338.259,779339.90000001,2023-03-29T12:07:44Z,779354.965,NULL,Vergnügen,kichekesho,d,NA,NA,NA,NA,sd,0,4,NA,NA,NA,NA,NA,NA,NA,NA,NA,NA,NA,NA,NA,NA,NA,NA,NA,NA,NA
70923,deep,flow.Sequence,3_0_4_0_2_0,NA,NA,completion,21999.451,757331.7,757322.102,757338.808,779338.259,779340.40000001,2023-03-29T12:07:44Z,779354.965,NULL,Vergnügen,kichekesho,d,NA,NA,NA,NA,sd,NA,4,NA,NA,NA,NA,NA,NA,NA,NA,NA,NA,NA,NA,NA,NA,NA,NA,NA,NA,NA
70923,shallow,flow.Sequence,3_0_4_0_2_1,NA,NA,skipped,NA,779340.5,NA,NA,779338.259,779340.7,2023-03-29T12:07:44Z,779354.965,NULL,Vergnügen,kichekesho,d,NA,NA,NA,NA,sd,NA,4,NA,NA,NA,NA,NA,NA,NA,NA,NA,NA,NA,NA,NA,NA,NA,NA,NA,NA,NA
70923,task,flow.Sequence,3_0_4_0_2,NA,NA,completion,21999.451,757331.60000001,757322.102,757338.808,779338.259,779341,2023-03-29T12:07:44Z,779354.965,NULL,Vergnügen,kichekesho,d,NA,NA,NA,NA,sd,NA,4,NA,NA,NA,NA,NA,NA,NA,NA,NA,NA,NA,NA,NA,NA,NA,NA,NA,NA,NA
70923,Deep Question,html.Page,3_0_4_0_3_0_0,NA,NA,form submission,7989.3349999971,779341.3,779338.259,779354.965,787344.3,787344.60000001,2023-03-29T12:07:52Z,787346.187,NULL,Notfall,dharura,d,NA,NA,NA,dharura,NA,NA,4,NA,NA,NA,NA,NA,NA,NA,NA,NA,NA,NA,NA,NA,NA,NA,NA,NA,NA,NA
70923,"""Richtig""-Screen",canvas.Screen,3_0_4_0_3_0_1,NA,NA,timeout,4995.0939999999,787348,787329.481,787346.187,792324.575,792330.5,2023-03-29T12:07:57Z,792341.281,NULL,Notfall,dharura,d,NA,NA,NA,NA,sd,1,4,NA,NA,NA,NA,NA,NA,NA,NA,NA,NA,NA,NA,NA,NA,NA,NA,NA,NA,NA
70923,"""Falsch""-Screen",canvas.Screen,3_0_4_0_3_0_2,NA,NA,skipped,NA,792334.90000001,NA,NA,792324.575,792335.3,2023-03-29T12:07:57Z,792341.281,NULL,Notfall,dharura,d,NA,NA,NA,NA,sd,NA,4,NA,NA,NA,NA,NA,NA,NA,NA,NA,NA,NA,NA,NA,NA,NA,NA,NA,NA,NA
70923,deep,flow.Sequence,3_0_4_0_3_0,NA,NA,completion,12969.61,779341.2,779338.259,779354.965,792324.575,792335.5,2023-03-29T12:07:57Z,792341.281,NULL,Notfall,dharura,d,NA,NA,NA,NA,sd,NA,4,NA,NA,NA,NA,NA,NA,NA,NA,NA,NA,NA,NA,NA,NA,NA,NA,NA,NA,NA
70923,shallow,flow.Sequence,3_0_4_0_3_1,NA,NA,skipped,NA,792335.60000001,NA,NA,792324.575,792335.7,2023-03-29T12:07:57Z,792341.281,NULL,Notfall,dharura,d,NA,NA,NA,NA,sd,NA,4,NA,NA,NA,NA,NA,NA,NA,NA,NA,NA,NA,NA,NA,NA,NA,NA,NA,NA,NA
70923,task,flow.Sequence,3_0_4_0_3,NA,NA,completion,12969.61,779341.10000001,779338.259,779354.965,792324.575,792336,2023-03-29T12:07:57Z,792341.281,NULL,Notfall,dharura,d,NA,NA,NA,NA,sd,NA,4,NA,NA,NA,NA,NA,NA,NA,NA,NA,NA,NA,NA,NA,NA,NA,NA,NA,NA,NA
70923,deep,flow.Sequence,3_0_4_0_4_0,NA,NA,skipped,NA,792336.10000001,NA,NA,792324.575,792336.3,2023-03-29T12:07:57Z,792341.281,NULL,Betrüger,mdanganyifu,s,mwanamuziki,wastani,mahakama,NA,sd,NA,4,NA,NA,NA,NA,NA,NA,NA,NA,NA,NA,NA,NA,NA,NA,NA,NA,NA,NA,NA
70923,Shallow Question,html.Page,3_0_4_0_4_1_0,NA,NA,form submission,4460.419000003,792336.40000001,792324.575,792341.281,796801.7,796802.10000001,2023-03-29T12:08:01Z,796810.335,NULL,Betrüger,mdanganyifu,s,mwanamuziki,wastani,mahakama,mdanganyifu,NA,NA,4,NA,NA,NA,NA,NA,NA,NA,NA,NA,NA,NA,NA,NA,NA,NA,NA,NA,NA,NA
70923,"""Richtig""-Screen",canvas.Screen,3_0_4_0_4_1_1,NA,NA,timeout,4995.094,796805.90000001,796793.629,796810.335,801788.723,801793.5,2023-03-29T12:08:06Z,801805.429,NULL,Betrüger,mdanganyifu,s,mwanamuziki,wastani,mahakama,NA,sd,1,4,NA,NA,NA,NA,NA,NA,NA,NA,NA,NA,NA,NA,NA,NA,NA,NA,NA,NA,NA
70923,"""Falsch""-Screen",canvas.Screen,3_0_4_0_4_1_2,NA,NA,skipped,NA,801798.8,NA,NA,801788.723,801799.2,2023-03-29T12:08:06Z,801805.429,NULL,Betrüger,mdanganyifu,s,mwanamuziki,wastani,mahakama,NA,sd,NA,4,NA,NA,NA,NA,NA,NA,NA,NA,NA,NA,NA,NA,NA,NA,NA,NA,NA,NA,NA
70923,shallow,flow.Sequence,3_0_4_0_4_1,NA,NA,completion,9447.442,792336.3,792324.575,792341.281,801788.723,801799.40000001,2023-03-29T12:08:06Z,801805.429,NULL,Betrüger,mdanganyifu,s,mwanamuziki,wastani,mahakama,NA,sd,NA,4,NA,NA,NA,NA,NA,NA,NA,NA,NA,NA,NA,NA,NA,NA,NA,NA,NA,NA,NA
70923,task,flow.Sequence,3_0_4_0_4,NA,NA,completion,9447.442,792336,792324.575,792341.281,801788.723,801799.7,2023-03-29T12:08:06Z,801805.429,NULL,Betrüger,mdanganyifu,s,mwanamuziki,wastani,mahakama,NA,sd,NA,4,NA,NA,NA,NA,NA,NA,NA,NA,NA,NA,NA,NA,NA,NA,NA,NA,NA,NA,NA
70923,deep,flow.Sequence,3_0_4_0_5_0,NA,NA,skipped,NA,801799.90000001,NA,NA,801788.723,801800.10000001,2023-03-29T12:08:06Z,801805.429,NULL,Ergänzung,kijalizo,s,ulaghai,mustarehe,matangazo,NA,sd,NA,4,NA,NA,NA,NA,NA,NA,NA,NA,NA,NA,NA,NA,NA,NA,NA,NA,NA,NA,NA
70923,Shallow Question,html.Page,3_0_4_0_5_1_0,NA,NA,form submission,10412.971000006,801800.3,801788.723,801805.429,812218.40000001,812218.7,2023-03-29T12:08:17Z,812219.011,NULL,Ergänzung,kijalizo,s,ulaghai,mustarehe,matangazo,kijalizo,NA,NA,4,NA,NA,NA,NA,NA,NA,NA,NA,NA,NA,NA,NA,NA,NA,NA,NA,NA,NA,NA
70923,"""Richtig""-Screen",canvas.Screen,3_0_4_0_5_1_1,NA,NA,timeout,4995.0939999999,812222.60000001,812202.305,812219.011,817197.399,817201.2,2023-03-29T12:08:22Z,817214.105,NULL,Ergänzung,kijalizo,s,ulaghai,mustarehe,matangazo,NA,sd,1,4,NA,NA,NA,NA,NA,NA,NA,NA,NA,NA,NA,NA,NA,NA,NA,NA,NA,NA,NA
70923,"""Falsch""-Screen",canvas.Screen,3_0_4_0_5_1_2,NA,NA,skipped,NA,817205.90000001,NA,NA,817197.399,817206.3,2023-03-29T12:08:22Z,817214.105,NULL,Ergänzung,kijalizo,s,ulaghai,mustarehe,matangazo,NA,sd,NA,4,NA,NA,NA,NA,NA,NA,NA,NA,NA,NA,NA,NA,NA,NA,NA,NA,NA,NA,NA
70923,shallow,flow.Sequence,3_0_4_0_5_1,NA,NA,completion,15391.97,801800.2,801788.723,801805.429,817197.399,817206.7,2023-03-29T12:08:22Z,817214.105,NULL,Ergänzung,kijalizo,s,ulaghai,mustarehe,matangazo,NA,sd,NA,4,NA,NA,NA,NA,NA,NA,NA,NA,NA,NA,NA,NA,NA,NA,NA,NA,NA,NA,NA
70923,task,flow.Sequence,3_0_4_0_5,NA,NA,completion,15391.97,801799.90000001,801788.723,801805.429,817197.399,817206.90000001,2023-03-29T12:08:22Z,817214.105,NULL,Ergänzung,kijalizo,s,ulaghai,mustarehe,matangazo,NA,sd,NA,4,NA,NA,NA,NA,NA,NA,NA,NA,NA,NA,NA,NA,NA,NA,NA,NA,NA,NA,NA
70923,deep,flow.Sequence,3_0_4_0_6_0,NA,NA,skipped,NA,817207.10000001,NA,NA,817197.399,817207.2,2023-03-29T12:08:22Z,817214.105,NULL,Wohlstand,mafanikio,s,chimbuko,kumbuko,mapwaji,NA,sd,NA,4,NA,NA,NA,NA,NA,NA,NA,NA,NA,NA,NA,NA,NA,NA,NA,NA,NA,NA,NA
70923,Shallow Question,html.Page,3_0_4_0_6_1_0,NA,NA,form submission,7928.194999997,817207.5,817197.399,817214.105,825142.3,825142.7,2023-03-29T12:08:30Z,825141.34,NULL,Wohlstand,mafanikio,s,chimbuko,kumbuko,mapwaji,mafanikio,NA,NA,4,NA,NA,NA,NA,NA,NA,NA,NA,NA,NA,NA,NA,NA,NA,NA,NA,NA,NA,NA
70923,"""Richtig""-Screen",canvas.Screen,3_0_4_0_6_1_1,NA,NA,timeout,4995.094,825146.5,825124.634,825141.34,830119.728,830122.10000001,2023-03-29T12:08:35Z,830136.434,NULL,Wohlstand,mafanikio,s,chimbuko,kumbuko,mapwaji,NA,sd,1,4,NA,NA,NA,NA,NA,NA,NA,NA,NA,NA,NA,NA,NA,NA,NA,NA,NA,NA,NA
70923,"""Falsch""-Screen",canvas.Screen,3_0_4_0_6_1_2,NA,NA,skipped,NA,830126.40000001,NA,NA,830119.728,830126.8,2023-03-29T12:08:35Z,830136.434,NULL,Wohlstand,mafanikio,s,chimbuko,kumbuko,mapwaji,NA,sd,NA,4,NA,NA,NA,NA,NA,NA,NA,NA,NA,NA,NA,NA,NA,NA,NA,NA,NA,NA,NA
70923,shallow,flow.Sequence,3_0_4_0_6_1,NA,NA,completion,12905.623,817207.40000001,817197.399,817214.105,830119.728,830127.10000001,2023-03-29T12:08:35Z,830136.434,NULL,Wohlstand,mafanikio,s,chimbuko,kumbuko,mapwaji,NA,sd,NA,4,NA,NA,NA,NA,NA,NA,NA,NA,NA,NA,NA,NA,NA,NA,NA,NA,NA,NA,NA
70923,task,flow.Sequence,3_0_4_0_6,NA,NA,completion,12905.623,817207,817197.399,817214.105,830119.728,830127.3,2023-03-29T12:08:35Z,830136.434,NULL,Wohlstand,mafanikio,s,chimbuko,kumbuko,mapwaji,NA,sd,NA,4,NA,NA,NA,NA,NA,NA,NA,NA,NA,NA,NA,NA,NA,NA,NA,NA,NA,NA,NA
70923,Deep Question,html.Page,3_0_4_0_7_0_0,NA,NA,form submission,10864.865999997,830127.5,830119.728,830136.434,841001.3,841001.5,2023-03-29T12:08:46Z,841006.825,NULL,Orientierung,urekebisho,d,NA,NA,NA,mkl,NA,NA,4,NA,NA,NA,NA,NA,NA,NA,NA,NA,NA,NA,NA,NA,NA,NA,NA,NA,NA,NA
70923,"""Richtig""-Screen",canvas.Screen,3_0_4_0_7_0_1,NA,NA,skipped,NA,841004.8,NA,NA,841001.3,841005,2023-03-29T12:08:46Z,841006.825,NULL,Orientierung,urekebisho,d,NA,NA,NA,NA,sd,NA,4,NA,NA,NA,NA,NA,NA,NA,NA,NA,NA,NA,NA,NA,NA,NA,NA,NA,NA,NA
70923,"""Falsch""-Screen",canvas.Screen,3_0_4_0_7_0_2,NA,NA,timeout,4995.094,841006.10000001,840990.119,841006.825,845985.213,845990.10000001,2023-03-29T12:08:51Z,846001.919,NULL,Orientierung,urekebisho,d,NA,NA,NA,NA,sd,0,4,NA,NA,NA,NA,NA,NA,NA,NA,NA,NA,NA,NA,NA,NA,NA,NA,NA,NA,NA
70923,deep,flow.Sequence,3_0_4_0_7_0,NA,NA,completion,15848.779,830127.5,830119.728,830136.434,845985.213,845990.7,2023-03-29T12:08:51Z,846001.919,NULL,Orientierung,urekebisho,d,NA,NA,NA,NA,sd,NA,4,NA,NA,NA,NA,NA,NA,NA,NA,NA,NA,NA,NA,NA,NA,NA,NA,NA,NA,NA
70923,shallow,flow.Sequence,3_0_4_0_7_1,NA,NA,skipped,NA,845990.90000001,NA,NA,845985.213,845991.10000001,2023-03-29T12:08:51Z,846001.919,NULL,Orientierung,urekebisho,d,NA,NA,NA,NA,sd,NA,4,NA,NA,NA,NA,NA,NA,NA,NA,NA,NA,NA,NA,NA,NA,NA,NA,NA,NA,NA
70923,task,flow.Sequence,3_0_4_0_7,NA,NA,completion,15848.779,830127.40000001,830119.728,830136.434,845985.213,845991.40000001,2023-03-29T12:08:51Z,846001.919,NULL,Orientierung,urekebisho,d,NA,NA,NA,NA,sd,NA,4,NA,NA,NA,NA,NA,NA,NA,NA,NA,NA,NA,NA,NA,NA,NA,NA,NA,NA,NA
70923,block,flow.Loop,3_0_4_0,NA,NA,completion,120666.499,725323.2,725251.89,725318.714,845985.213,845991.8,2023-03-29T12:08:51Z,846001.919,NULL,NA,NA,NA,NA,NA,NA,NA,sd,NA,4,NA,NA,NA,NA,NA,NA,NA,NA,NA,NA,NA,NA,NA,NA,NA,NA,NA,NA,NA
70923,weiter,canvas.Screen,3_0_4_1,sdf,keypress(Space),response,7790.1810000089,845992,845985.213,846001.919,853792.10000001,853794.5,2023-03-29T12:08:58Z,853870.445,NULL,NA,NA,NA,NA,NA,NA,NA,sd,NA,4,NA,NA,NA,NA,NA,NA,NA,NA,NA,NA,NA,NA,NA,NA,NA,NA,NA,NA,NA
70923,check continue,flow.Sequence,3_0_4,NA,NA,completion,128473.38600001,725323.10000001,725251.89,725318.714,853792.10000001,853794.90000001,2023-03-29T12:08:58Z,853870.445,NULL,NA,NA,NA,NA,NA,NA,NA,sd,NA,4,NA,NA,NA,NA,NA,NA,NA,NA,NA,NA,NA,NA,NA,NA,NA,NA,NA,NA,NA
70923,Deep Question,html.Page,3_0_5_0_0_0_0,NA,NA,form submission,20844.655000009,853862.40000001,853853.739,853870.445,874715.10000001,874715.60000001,2023-03-29T12:09:19Z,874722.895,NULL,Respekt,heshima,d,NA,NA,NA,heshema,NA,NA,5,NA,NA,NA,NA,NA,NA,NA,NA,NA,NA,NA,NA,NA,NA,NA,NA,NA,NA,NA
70923,"""Richtig""-Screen",canvas.Screen,3_0_5_0_0_0_1,NA,NA,skipped,NA,874719.3,NA,NA,874715.10000001,874719.60000001,2023-03-29T12:09:19Z,874722.895,NULL,Respekt,heshima,d,NA,NA,NA,NA,sdf,NA,5,NA,NA,NA,NA,NA,NA,NA,NA,NA,NA,NA,NA,NA,NA,NA,NA,NA,NA,NA
70923,"""Falsch""-Screen",canvas.Screen,3_0_5_0_0_0_2,NA,NA,timeout,4995.0939999999,874721.2,874706.189,874722.895,879701.283,879706.3,2023-03-29T12:09:24Z,879717.989,NULL,Respekt,heshima,d,NA,NA,NA,NA,sdf,0,5,NA,NA,NA,NA,NA,NA,NA,NA,NA,NA,NA,NA,NA,NA,NA,NA,NA,NA,NA
70923,deep,flow.Sequence,3_0_5_0_0_0,NA,NA,completion,25830.838,853862.3,853853.739,853870.445,879701.283,879706.7,2023-03-29T12:09:24Z,879717.989,NULL,Respekt,heshima,d,NA,NA,NA,NA,sdf,NA,5,NA,NA,NA,NA,NA,NA,NA,NA,NA,NA,NA,NA,NA,NA,NA,NA,NA,NA,NA
70923,shallow,flow.Sequence,3_0_5_0_0_1,NA,NA,skipped,NA,879706.90000001,NA,NA,879701.283,879707.10000001,2023-03-29T12:09:24Z,879717.989,NULL,Respekt,heshima,d,NA,NA,NA,NA,sdf,NA,5,NA,NA,NA,NA,NA,NA,NA,NA,NA,NA,NA,NA,NA,NA,NA,NA,NA,NA,NA
70923,task,flow.Sequence,3_0_5_0_0,NA,NA,completion,25830.838,853862.3,853853.739,853870.445,879701.283,879707.5,2023-03-29T12:09:24Z,879717.989,NULL,Respekt,heshima,d,NA,NA,NA,NA,sdf,NA,5,NA,NA,NA,NA,NA,NA,NA,NA,NA,NA,NA,NA,NA,NA,NA,NA,NA,NA,NA
70923,deep,flow.Sequence,3_0_5_0_1_0,NA,NA,skipped,NA,879707.7,NA,NA,879701.283,879707.90000001,2023-03-29T12:09:24Z,879717.989,NULL,Betrüger,mdanganyifu,s,mwanamuziki,wastani,mahakama,NA,sdf,NA,5,NA,NA,NA,NA,NA,NA,NA,NA,NA,NA,NA,NA,NA,NA,NA,NA,NA,NA,NA
70923,Shallow Question,html.Page,3_0_5_0_1_1_0,NA,NA,form submission,5812.111000009,879708.10000001,879701.283,879717.989,885530.10000001,885530.5,2023-03-29T12:09:30Z,885537.375,NULL,Betrüger,mdanganyifu,s,mwanamuziki,wastani,mahakama,mdanganyifu,NA,NA,5,NA,NA,NA,NA,NA,NA,NA,NA,NA,NA,NA,NA,NA,NA,NA,NA,NA,NA,NA
70923,"""Richtig""-Screen",canvas.Screen,3_0_5_0_1_1_1,NA,NA,timeout,4995.094,885534.10000001,885520.669,885537.375,890515.763,890520.90000001,2023-03-29T12:09:35Z,890532.469,NULL,Betrüger,mdanganyifu,s,mwanamuziki,wastani,mahakama,NA,sdf,1,5,NA,NA,NA,NA,NA,NA,NA,NA,NA,NA,NA,NA,NA,NA,NA,NA,NA,NA,NA
70923,"""Falsch""-Screen",canvas.Screen,3_0_5_0_1_1_2,NA,NA,skipped,NA,890525.40000001,NA,NA,890515.763,890525.8,2023-03-29T12:09:35Z,890532.469,NULL,Betrüger,mdanganyifu,s,mwanamuziki,wastani,mahakama,NA,sdf,NA,5,NA,NA,NA,NA,NA,NA,NA,NA,NA,NA,NA,NA,NA,NA,NA,NA,NA,NA,NA
70923,shallow,flow.Sequence,3_0_5_0_1_1,NA,NA,completion,10797.774,879707.90000001,879701.283,879717.989,890515.763,890526.10000001,2023-03-29T12:09:35Z,890532.469,NULL,Betrüger,mdanganyifu,s,mwanamuziki,wastani,mahakama,NA,sdf,NA,5,NA,NA,NA,NA,NA,NA,NA,NA,NA,NA,NA,NA,NA,NA,NA,NA,NA,NA,NA
70923,task,flow.Sequence,3_0_5_0_1,NA,NA,completion,10797.774,879707.60000001,879701.283,879717.989,890515.763,890526.3,2023-03-29T12:09:35Z,890532.469,NULL,Betrüger,mdanganyifu,s,mwanamuziki,wastani,mahakama,NA,sdf,NA,5,NA,NA,NA,NA,NA,NA,NA,NA,NA,NA,NA,NA,NA,NA,NA,NA,NA,NA,NA
70923,Deep Question,html.Page,3_0_5_0_2_0_0,NA,NA,form submission,14819.631000009,890526.5,890515.763,890532.469,905352.10000001,905352.7,2023-03-29T12:09:50Z,905356.422,NULL,Notfall,dharura,d,NA,NA,NA,dharura,NA,NA,5,NA,NA,NA,NA,NA,NA,NA,NA,NA,NA,NA,NA,NA,NA,NA,NA,NA,NA,NA
70923,"""Richtig""-Screen",canvas.Screen,3_0_5_0_2_0_1,NA,NA,timeout,5000.823,905356.2,905339.716,905356.422,910340.539,910344.40000001,2023-03-29T12:09:55Z,910357.245,NULL,Notfall,dharura,d,NA,NA,NA,NA,sdf,1,5,NA,NA,NA,NA,NA,NA,NA,NA,NA,NA,NA,NA,NA,NA,NA,NA,NA,NA,NA
70923,"""Falsch""-Screen",canvas.Screen,3_0_5_0_2_0_2,NA,NA,skipped,NA,910348.7,NA,NA,910340.539,910349,2023-03-29T12:09:55Z,910357.245,NULL,Notfall,dharura,d,NA,NA,NA,NA,sdf,NA,5,NA,NA,NA,NA,NA,NA,NA,NA,NA,NA,NA,NA,NA,NA,NA,NA,NA,NA,NA
70923,deep,flow.Sequence,3_0_5_0_2_0,NA,NA,completion,19808.07,890526.5,890515.763,890532.469,910340.539,910349.3,2023-03-29T12:09:55Z,910357.245,NULL,Notfall,dharura,d,NA,NA,NA,NA,sdf,NA,5,NA,NA,NA,NA,NA,NA,NA,NA,NA,NA,NA,NA,NA,NA,NA,NA,NA,NA,NA
70923,shallow,flow.Sequence,3_0_5_0_2_1,NA,NA,skipped,NA,910349.40000001,NA,NA,910340.539,910349.5,2023-03-29T12:09:55Z,910357.245,NULL,Notfall,dharura,d,NA,NA,NA,NA,sdf,NA,5,NA,NA,NA,NA,NA,NA,NA,NA,NA,NA,NA,NA,NA,NA,NA,NA,NA,NA,NA
70923,task,flow.Sequence,3_0_5_0_2,NA,NA,completion,19808.07,890526.40000001,890515.763,890532.469,910340.539,910349.7,2023-03-29T12:09:55Z,910357.245,NULL,Notfall,dharura,d,NA,NA,NA,NA,sdf,NA,5,NA,NA,NA,NA,NA,NA,NA,NA,NA,NA,NA,NA,NA,NA,NA,NA,NA,NA,NA
70923,deep,flow.Sequence,3_0_5_0_3_0,NA,NA,skipped,NA,910349.8,NA,NA,910340.539,910350,2023-03-29T12:09:55Z,910357.245,NULL,Wohlstand,mafanikio,s,chimbuko,kumbuko,mapwaji,NA,sdf,NA,5,NA,NA,NA,NA,NA,NA,NA,NA,NA,NA,NA,NA,NA,NA,NA,NA,NA,NA,NA
70923,Shallow Question,html.Page,3_0_5_0_3_1_0,NA,NA,form submission,5229.3550000089,910350,910340.539,910357.245,915586.60000001,915587.10000001,2023-03-29T12:10:00Z,915591.953,NULL,Wohlstand,mafanikio,s,chimbuko,kumbuko,mapwaji,mafanikio,NA,NA,5,NA,NA,NA,NA,NA,NA,NA,NA,NA,NA,NA,NA,NA,NA,NA,NA,NA,NA,NA
70923,"""Richtig""-Screen",canvas.Screen,3_0_5_0_3_1_1,NA,NA,timeout,4995.094,915591.2,915575.247,915591.953,920570.341,920573.8,2023-03-29T12:10:05Z,920587.047,NULL,Wohlstand,mafanikio,s,chimbuko,kumbuko,mapwaji,NA,sdf,1,5,NA,NA,NA,NA,NA,NA,NA,NA,NA,NA,NA,NA,NA,NA,NA,NA,NA,NA,NA
70923,"""Falsch""-Screen",canvas.Screen,3_0_5_0_3_1_2,NA,NA,skipped,NA,920578.10000001,NA,NA,920570.341,920578.5,2023-03-29T12:10:05Z,920587.047,NULL,Wohlstand,mafanikio,s,chimbuko,kumbuko,mapwaji,NA,sdf,NA,5,NA,NA,NA,NA,NA,NA,NA,NA,NA,NA,NA,NA,NA,NA,NA,NA,NA,NA,NA
70923,shallow,flow.Sequence,3_0_5_0_3_1,NA,NA,completion,10213.096,910350,910340.539,910357.245,920570.341,920578.90000001,2023-03-29T12:10:05Z,920587.047,NULL,Wohlstand,mafanikio,s,chimbuko,kumbuko,mapwaji,NA,sdf,NA,5,NA,NA,NA,NA,NA,NA,NA,NA,NA,NA,NA,NA,NA,NA,NA,NA,NA,NA,NA
70923,task,flow.Sequence,3_0_5_0_3,NA,NA,completion,10213.096,910349.8,910340.539,910357.245,920570.341,920579.10000001,2023-03-29T12:10:05Z,920587.047,NULL,Wohlstand,mafanikio,s,chimbuko,kumbuko,mapwaji,NA,sdf,NA,5,NA,NA,NA,NA,NA,NA,NA,NA,NA,NA,NA,NA,NA,NA,NA,NA,NA,NA,NA
70923,Deep Question,html.Page,3_0_5_0_4_0_0,NA,NA,form submission,15166.853000006,920579.40000001,920570.341,920587.047,935753.90000001,935754.40000001,2023-03-29T12:10:20Z,935761.827,NULL,Vergnügen,kichekesho,d,NA,NA,NA,kechekisho,NA,NA,5,NA,NA,NA,NA,NA,NA,NA,NA,NA,NA,NA,NA,NA,NA,NA,NA,NA,NA,NA
70923,"""Richtig""-Screen",canvas.Screen,3_0_5_0_4_0_1,NA,NA,skipped,NA,935758.10000001,NA,NA,935753.90000001,935758.40000001,2023-03-29T12:10:20Z,935761.827,NULL,Vergnügen,kichekesho,d,NA,NA,NA,NA,sdf,NA,5,NA,NA,NA,NA,NA,NA,NA,NA,NA,NA,NA,NA,NA,NA,NA,NA,NA,NA,NA
70923,"""Falsch""-Screen",canvas.Screen,3_0_5_0_4_0_2,NA,NA,timeout,4995.0939999999,935759.8,935745.121,935761.827,940740.215,940744.10000001,2023-03-29T12:10:25Z,940756.921,NULL,Vergnügen,kichekesho,d,NA,NA,NA,NA,sdf,0,5,NA,NA,NA,NA,NA,NA,NA,NA,NA,NA,NA,NA,NA,NA,NA,NA,NA,NA,NA
70923,deep,flow.Sequence,3_0_5_0_4_0,NA,NA,completion,20153.168,920579.40000001,920570.341,920587.047,940740.215,940744.5,2023-03-29T12:10:25Z,940756.921,NULL,Vergnügen,kichekesho,d,NA,NA,NA,NA,sdf,NA,5,NA,NA,NA,NA,NA,NA,NA,NA,NA,NA,NA,NA,NA,NA,NA,NA,NA,NA,NA
70923,shallow,flow.Sequence,3_0_5_0_4_1,NA,NA,skipped,NA,940744.7,NA,NA,940740.215,940744.8,2023-03-29T12:10:25Z,940756.921,NULL,Vergnügen,kichekesho,d,NA,NA,NA,NA,sdf,NA,5,NA,NA,NA,NA,NA,NA,NA,NA,NA,NA,NA,NA,NA,NA,NA,NA,NA,NA,NA
70923,task,flow.Sequence,3_0_5_0_4,NA,NA,completion,20153.168,920579.3,920570.341,920587.047,940740.215,940745.10000001,2023-03-29T12:10:25Z,940756.921,NULL,Vergnügen,kichekesho,d,NA,NA,NA,NA,sdf,NA,5,NA,NA,NA,NA,NA,NA,NA,NA,NA,NA,NA,NA,NA,NA,NA,NA,NA,NA,NA
70923,deep,flow.Sequence,3_0_5_0_5_0,NA,NA,skipped,NA,940745.3,NA,NA,940740.215,940745.40000001,2023-03-29T12:10:25Z,940756.921,NULL,Ergänzung,kijalizo,s,ulaghai,mustarehe,matangazo,NA,sdf,NA,5,NA,NA,NA,NA,NA,NA,NA,NA,NA,NA,NA,NA,NA,NA,NA,NA,NA,NA,NA
70923,Shallow Question,html.Page,3_0_5_0_5_1_0,NA,NA,form submission,15145.378999997,940745.5,940740.215,940756.921,955902.3,955902.7,2023-03-29T12:10:40Z,955909.727,NULL,Ergänzung,kijalizo,s,ulaghai,mustarehe,matangazo,kijalizo,NA,NA,5,NA,NA,NA,NA,NA,NA,NA,NA,NA,NA,NA,NA,NA,NA,NA,NA,NA,NA,NA
70923,"""Richtig""-Screen",canvas.Screen,3_0_5_0_5_1_1,NA,NA,timeout,4995.094,955907,955893.021,955909.727,960888.115,960890.90000001,2023-03-29T12:10:45Z,960904.821,NULL,Ergänzung,kijalizo,s,ulaghai,mustarehe,matangazo,NA,sdf,1,5,NA,NA,NA,NA,NA,NA,NA,NA,NA,NA,NA,NA,NA,NA,NA,NA,NA,NA,NA
70923,"""Falsch""-Screen",canvas.Screen,3_0_5_0_5_1_2,NA,NA,skipped,NA,960895.3,NA,NA,960888.115,960895.7,2023-03-29T12:10:45Z,960904.821,NULL,Ergänzung,kijalizo,s,ulaghai,mustarehe,matangazo,NA,sdf,NA,5,NA,NA,NA,NA,NA,NA,NA,NA,NA,NA,NA,NA,NA,NA,NA,NA,NA,NA,NA
70923,shallow,flow.Sequence,3_0_5_0_5_1,NA,NA,completion,20131.194,940745.5,940740.215,940756.921,960888.115,960896,2023-03-29T12:10:45Z,960904.821,NULL,Ergänzung,kijalizo,s,ulaghai,mustarehe,matangazo,NA,sdf,NA,5,NA,NA,NA,NA,NA,NA,NA,NA,NA,NA,NA,NA,NA,NA,NA,NA,NA,NA,NA
70923,task,flow.Sequence,3_0_5_0_5,NA,NA,completion,20131.194,940745.2,940740.215,940756.921,960888.115,960896.2,2023-03-29T12:10:45Z,960904.821,NULL,Ergänzung,kijalizo,s,ulaghai,mustarehe,matangazo,NA,sdf,NA,5,NA,NA,NA,NA,NA,NA,NA,NA,NA,NA,NA,NA,NA,NA,NA,NA,NA,NA,NA
70923,Deep Question,html.Page,3_0_5_0_6_0_0,NA,NA,form submission,15199.679,960896.40000001,960888.115,960904.821,976104.5,976104.90000001,2023-03-29T12:11:01Z,976118.74,NULL,Orientierung,urekebisho,d,NA,NA,NA,ure,NA,NA,5,NA,NA,NA,NA,NA,NA,NA,NA,NA,NA,NA,NA,NA,NA,NA,NA,NA,NA,NA
70923,"""Richtig""-Screen",canvas.Screen,3_0_5_0_6_0_1,NA,NA,skipped,NA,976107.7,NA,NA,976104.5,976108,2023-03-29T12:11:01Z,976118.74,NULL,Orientierung,urekebisho,d,NA,NA,NA,NA,sdf,NA,5,NA,NA,NA,NA,NA,NA,NA,NA,NA,NA,NA,NA,NA,NA,NA,NA,NA,NA,NA
70923,"""Falsch""-Screen",canvas.Screen,3_0_5_0_6_0_2,NA,NA,timeout,4995.094,976109,976102.034,976118.74,981097.128,981102.60000001,2023-03-29T12:11:06Z,981113.834,NULL,Orientierung,urekebisho,d,NA,NA,NA,NA,sdf,0,5,NA,NA,NA,NA,NA,NA,NA,NA,NA,NA,NA,NA,NA,NA,NA,NA,NA,NA,NA
70923,deep,flow.Sequence,3_0_5_0_6_0,NA,NA,completion,20192.307,960896.40000001,960888.115,960904.821,981097.128,981103,2023-03-29T12:11:06Z,981113.834,NULL,Orientierung,urekebisho,d,NA,NA,NA,NA,sdf,NA,5,NA,NA,NA,NA,NA,NA,NA,NA,NA,NA,NA,NA,NA,NA,NA,NA,NA,NA,NA
70923,shallow,flow.Sequence,3_0_5_0_6_1,NA,NA,skipped,NA,981103,NA,NA,981097.128,981103.10000001,2023-03-29T12:11:06Z,981113.834,NULL,Orientierung,urekebisho,d,NA,NA,NA,NA,sdf,NA,5,NA,NA,NA,NA,NA,NA,NA,NA,NA,NA,NA,NA,NA,NA,NA,NA,NA,NA,NA
70923,task,flow.Sequence,3_0_5_0_6,NA,NA,completion,20192.307,960896.3,960888.115,960904.821,981097.128,981103.3,2023-03-29T12:11:06Z,981113.834,NULL,Orientierung,urekebisho,d,NA,NA,NA,NA,sdf,NA,5,NA,NA,NA,NA,NA,NA,NA,NA,NA,NA,NA,NA,NA,NA,NA,NA,NA,NA,NA
70923,deep,flow.Sequence,3_0_5_0_7_0,NA,NA,skipped,NA,981103.5,NA,NA,981097.128,981103.60000001,2023-03-29T12:11:06Z,981113.834,NULL,Stimmung,kinyongo,s,kilekile,kisambo,madhehebu,NA,sdf,NA,5,NA,NA,NA,NA,NA,NA,NA,NA,NA,NA,NA,NA,NA,NA,NA,NA,NA,NA,NA
70923,Shallow Question,html.Page,3_0_5_0_7_1_0,NA,NA,form submission,22396.266000009,981103.8,981097.128,981113.834,1003510.1,1003510.5,2023-03-29T12:11:28Z,1003514.201,NULL,Stimmung,kinyongo,s,kilekile,kisambo,madhehebu,kinyongo,NA,NA,5,NA,NA,NA,NA,NA,NA,NA,NA,NA,NA,NA,NA,NA,NA,NA,NA,NA,NA,NA
70923,"""Richtig""-Screen",canvas.Screen,3_0_5_0_7_1_1,NA,NA,timeout,4995.094,1003514.9,1003497.495,1003514.201,1008492.589,1008497.6,2023-03-29T12:11:33Z,1008509.295,NULL,Stimmung,kinyongo,s,kilekile,kisambo,madhehebu,NA,sdf,1,5,NA,NA,NA,NA,NA,NA,NA,NA,NA,NA,NA,NA,NA,NA,NA,NA,NA,NA,NA
70923,"""Falsch""-Screen",canvas.Screen,3_0_5_0_7_1_2,NA,NA,skipped,NA,1008502,NA,NA,1008492.589,1008502.5,2023-03-29T12:11:33Z,1008509.295,NULL,Stimmung,kinyongo,s,kilekile,kisambo,madhehebu,NA,sdf,NA,5,NA,NA,NA,NA,NA,NA,NA,NA,NA,NA,NA,NA,NA,NA,NA,NA,NA,NA,NA
70923,shallow,flow.Sequence,3_0_5_0_7_1,NA,NA,completion,27378.755,981103.7,981097.128,981113.834,1008492.589,1008502.8,2023-03-29T12:11:33Z,1008509.295,NULL,Stimmung,kinyongo,s,kilekile,kisambo,madhehebu,NA,sdf,NA,5,NA,NA,NA,NA,NA,NA,NA,NA,NA,NA,NA,NA,NA,NA,NA,NA,NA,NA,NA
70923,task,flow.Sequence,3_0_5_0_7,NA,NA,completion,27378.755,981103.40000001,981097.128,981113.834,1008492.589,1008503,2023-03-29T12:11:33Z,1008509.295,NULL,Stimmung,kinyongo,s,kilekile,kisambo,madhehebu,NA,sdf,NA,5,NA,NA,NA,NA,NA,NA,NA,NA,NA,NA,NA,NA,NA,NA,NA,NA,NA,NA,NA
70923,block,flow.Loop,3_0_5_0,NA,NA,completion,154622.144,853862.3,853853.739,853870.445,1008492.589,1008503.3,2023-03-29T12:11:33Z,1008509.295,NULL,NA,NA,NA,NA,NA,NA,NA,sdf,NA,5,NA,NA,NA,NA,NA,NA,NA,NA,NA,NA,NA,NA,NA,NA,NA,NA,NA,NA,NA
70923,weiter,canvas.Screen,3_0_5_1,sdf,keypress(Space),response,2446.8050000089,1008503.4,1008492.589,1008509.295,1010956.1,1010959.6,2023-03-29T12:11:35Z,1010998.489,NULL,NA,NA,NA,NA,NA,NA,NA,sdf,NA,5,NA,NA,NA,NA,NA,NA,NA,NA,NA,NA,NA,NA,NA,NA,NA,NA,NA,NA,NA
70923,check continue,flow.Sequence,3_0_5,NA,NA,completion,157085.65500001,853862.2,853853.739,853870.445,1010956.1,1010959.9,2023-03-29T12:11:35Z,1010998.489,NULL,NA,NA,NA,NA,NA,NA,NA,sdf,NA,5,NA,NA,NA,NA,NA,NA,NA,NA,NA,NA,NA,NA,NA,NA,NA,NA,NA,NA,NA
70923,Deep Question,html.Page,3_0_6_0_0_0_0,NA,NA,form submission,23380.611000009,1011012,1010948.371,1010998.489,1034379.1,1034379.5,2023-03-29T12:11:59Z,1034387.367,NULL,Orientierung,urekebisho,d,NA,NA,NA,urekeshibo,NA,NA,6,NA,NA,NA,NA,NA,NA,NA,NA,NA,NA,NA,NA,NA,NA,NA,NA,NA,NA,NA
70923,"""Richtig""-Screen",canvas.Screen,3_0_6_0_0_0_1,NA,NA,skipped,NA,1034384.4,NA,NA,1034379.1,1034384.7,2023-03-29T12:11:59Z,1034387.367,NULL,Orientierung,urekebisho,d,NA,NA,NA,NA,dfs,NA,6,NA,NA,NA,NA,NA,NA,NA,NA,NA,NA,NA,NA,NA,NA,NA,NA,NA,NA,NA
70923,"""Falsch""-Screen",canvas.Screen,3_0_6_0_0_0_2,NA,NA,timeout,4995.094,1034386.4,1034370.661,1034387.367,1039365.755,1039368.9,2023-03-29T12:12:04Z,1039382.461,NULL,Orientierung,urekebisho,d,NA,NA,NA,NA,dfs,0,6,NA,NA,NA,NA,NA,NA,NA,NA,NA,NA,NA,NA,NA,NA,NA,NA,NA,NA,NA
70923,deep,flow.Sequence,3_0_6_0_0_0,NA,NA,completion,28367.266,1011012,1010948.371,1010998.489,1039365.755,1039369.3,2023-03-29T12:12:04Z,1039382.461,NULL,Orientierung,urekebisho,d,NA,NA,NA,NA,dfs,NA,6,NA,NA,NA,NA,NA,NA,NA,NA,NA,NA,NA,NA,NA,NA,NA,NA,NA,NA,NA
70923,shallow,flow.Sequence,3_0_6_0_0_1,NA,NA,skipped,NA,1039369.5,NA,NA,1039365.755,1039369.6,2023-03-29T12:12:04Z,1039382.461,NULL,Orientierung,urekebisho,d,NA,NA,NA,NA,dfs,NA,6,NA,NA,NA,NA,NA,NA,NA,NA,NA,NA,NA,NA,NA,NA,NA,NA,NA,NA,NA
70923,task,flow.Sequence,3_0_6_0_0,NA,NA,completion,28367.266,1011012,1010948.371,1010998.489,1039365.755,1039370,2023-03-29T12:12:04Z,1039382.461,NULL,Orientierung,urekebisho,d,NA,NA,NA,NA,dfs,NA,6,NA,NA,NA,NA,NA,NA,NA,NA,NA,NA,NA,NA,NA,NA,NA,NA,NA,NA,NA
70923,Deep Question,html.Page,3_0_6_0_1_0_0,NA,NA,form submission,21680.639000009,1039370.2,1039365.755,1039382.461,1061063.1,1061063.6,2023-03-29T12:12:26Z,1061064.428,NULL,Vergnügen,kichekesho,d,NA,NA,NA,kinyongo,NA,NA,6,NA,NA,NA,NA,NA,NA,NA,NA,NA,NA,NA,NA,NA,NA,NA,NA,NA,NA,NA
70923,"""Richtig""-Screen",canvas.Screen,3_0_6_0_1_0_1,NA,NA,skipped,NA,1061067.5,NA,NA,1061063.1,1061067.9,2023-03-29T12:12:26Z,1061064.428,NULL,Vergnügen,kichekesho,d,NA,NA,NA,NA,dfs,NA,6,NA,NA,NA,NA,NA,NA,NA,NA,NA,NA,NA,NA,NA,NA,NA,NA,NA,NA,NA
70923,"""Falsch""-Screen",canvas.Screen,3_0_6_0_1_0_2,NA,NA,timeout,4995.094,1061069,1061047.722,1061064.428,1066042.816,1066047.6,2023-03-29T12:12:31Z,1066059.522,NULL,Vergnügen,kichekesho,d,NA,NA,NA,NA,dfs,0,6,NA,NA,NA,NA,NA,NA,NA,NA,NA,NA,NA,NA,NA,NA,NA,NA,NA,NA,NA
70923,deep,flow.Sequence,3_0_6_0_1_0,NA,NA,completion,26660.355,1039370.1,1039365.755,1039382.461,1066042.816,1066048.1,2023-03-29T12:12:31Z,1066059.522,NULL,Vergnügen,kichekesho,d,NA,NA,NA,NA,dfs,NA,6,NA,NA,NA,NA,NA,NA,NA,NA,NA,NA,NA,NA,NA,NA,NA,NA,NA,NA,NA
70923,shallow,flow.Sequence,3_0_6_0_1_1,NA,NA,skipped,NA,1066048.2,NA,NA,1066042.816,1066048.5,2023-03-29T12:12:31Z,1066059.522,NULL,Vergnügen,kichekesho,d,NA,NA,NA,NA,dfs,NA,6,NA,NA,NA,NA,NA,NA,NA,NA,NA,NA,NA,NA,NA,NA,NA,NA,NA,NA,NA
70923,task,flow.Sequence,3_0_6_0_1,NA,NA,completion,26660.355,1039370.1,1039365.755,1039382.461,1066042.816,1066048.7,2023-03-29T12:12:31Z,1066059.522,NULL,Vergnügen,kichekesho,d,NA,NA,NA,NA,dfs,NA,6,NA,NA,NA,NA,NA,NA,NA,NA,NA,NA,NA,NA,NA,NA,NA,NA,NA,NA,NA
70923,deep,flow.Sequence,3_0_6_0_2_0,NA,NA,skipped,NA,1066048.9,NA,NA,1066042.816,1066049.1,2023-03-29T12:12:31Z,1066059.522,NULL,Stimmung,kinyongo,s,kilekile,kisambo,madhehebu,NA,dfs,NA,6,NA,NA,NA,NA,NA,NA,NA,NA,NA,NA,NA,NA,NA,NA,NA,NA,NA,NA,NA
70923,Shallow Question,html.Page,3_0_6_0_2_1_0,NA,NA,form submission,6594.5780000088,1066049.3,1066042.816,1066059.522,1072654.1,1072654.6,2023-03-29T12:12:37Z,1072664.149,NULL,Stimmung,kinyongo,s,kilekile,kisambo,madhehebu,kinyongo,NA,NA,6,NA,NA,NA,NA,NA,NA,NA,NA,NA,NA,NA,NA,NA,NA,NA,NA,NA,NA,NA
70923,"""Richtig""-Screen",canvas.Screen,3_0_6_0_2_1_1,NA,NA,timeout,4995.094,1072658.4,1072647.443,1072664.149,1077642.537,1077645,2023-03-29T12:12:42Z,1077659.243,NULL,Stimmung,kinyongo,s,kilekile,kisambo,madhehebu,NA,dfs,1,6,NA,NA,NA,NA,NA,NA,NA,NA,NA,NA,NA,NA,NA,NA,NA,NA,NA,NA,NA
70923,"""Falsch""-Screen",canvas.Screen,3_0_6_0_2_1_2,NA,NA,skipped,NA,1077648.7,NA,NA,1077642.537,1077649,2023-03-29T12:12:42Z,1077659.243,NULL,Stimmung,kinyongo,s,kilekile,kisambo,madhehebu,NA,dfs,NA,6,NA,NA,NA,NA,NA,NA,NA,NA,NA,NA,NA,NA,NA,NA,NA,NA,NA,NA,NA
70923,shallow,flow.Sequence,3_0_6_0_2_1,NA,NA,completion,11583.015,1066049.3,1066042.816,1066059.522,1077642.537,1077649.3,2023-03-29T12:12:42Z,1077659.243,NULL,Stimmung,kinyongo,s,kilekile,kisambo,madhehebu,NA,dfs,NA,6,NA,NA,NA,NA,NA,NA,NA,NA,NA,NA,NA,NA,NA,NA,NA,NA,NA,NA,NA
70923,task,flow.Sequence,3_0_6_0_2,NA,NA,completion,11583.015,1066048.9,1066042.816,1066059.522,1077642.537,1077649.4,2023-03-29T12:12:42Z,1077659.243,NULL,Stimmung,kinyongo,s,kilekile,kisambo,madhehebu,NA,dfs,NA,6,NA,NA,NA,NA,NA,NA,NA,NA,NA,NA,NA,NA,NA,NA,NA,NA,NA,NA,NA
70923,deep,flow.Sequence,3_0_6_0_3_0,NA,NA,skipped,NA,1077649.6,NA,NA,1077642.537,1077649.7,2023-03-29T12:12:42Z,1077659.243,NULL,Ergänzung,kijalizo,s,ulaghai,mustarehe,matangazo,NA,dfs,NA,6,NA,NA,NA,NA,NA,NA,NA,NA,NA,NA,NA,NA,NA,NA,NA,NA,NA,NA,NA
70923,Shallow Question,html.Page,3_0_6_0_3_1_0,NA,NA,form submission,10545.257,1077649.8,1077642.537,1077659.243,1088204.5,1088204.9,2023-03-29T12:12:53Z,1088215.013,NULL,Ergänzung,kijalizo,s,ulaghai,mustarehe,matangazo,kijalizo,NA,NA,6,NA,NA,NA,NA,NA,NA,NA,NA,NA,NA,NA,NA,NA,NA,NA,NA,NA,NA,NA
70923,"""Richtig""-Screen",canvas.Screen,3_0_6_0_3_1_1,NA,NA,timeout,4995.094,1088208.6,1088198.307,1088215.013,1093193.401,1093197,2023-03-29T12:12:58Z,1093210.107,NULL,Ergänzung,kijalizo,s,ulaghai,mustarehe,matangazo,NA,dfs,1,6,NA,NA,NA,NA,NA,NA,NA,NA,NA,NA,NA,NA,NA,NA,NA,NA,NA,NA,NA
