observation,sender,sender_type,sender_id,response,response_action,ended_on,duration,time_run,time_render,time_show,time_end,time_commit,timestamp,time_switch,distractors,german,swahili,enc,distractor1,distractor2,distractor3,response_2,x,correct,x_2,url_vp,url_sess,meta_labjs_version,meta_location,meta_user_agent,meta_platform,meta_language,meta_locale,meta_time_zone,meta_timezone_offset,meta_screen_width,meta_screen_height,meta_scroll_width,meta_scroll_height,meta_window_inner_width,meta_window_inner_height,meta_device_pixel_ratio,meta_labjs_build_flavor,meta_labjs_build_commit
d8f0d,Introduction general,canvas.Screen,0,weiter,keypress(q),response,51742.500000006,951.70000001788,1312.3,1328.9,53071.400000006,53074,2024-04-06T20:20:49Z,53080.7,NULL,NA,NA,NA,NA,NA,NA,NA,NA,NA,NA,142,3,20.2.4,https://neurocog.fernuni.ch/studies/vweber/aberisha/encoding_immediate/index.html?vp=142&sess=3,"Mozilla/5.0 (Windows NT 10.0; Win64; x64) AppleWebKit/537.36 (KHTML, like Gecko) Chrome/123.0.0.0 Safari/537.36",Win32,de-DE,de,Europe/Zurich,-120,1739,979,1740,763,1740,811,1.1041666269302,production,f5b4a49f956347addd546a832a3327688c2c0fef
d8f0d,Introduction practice,canvas.Screen,1_0,NA,keypress(Space),response,6526.1000000119,53074.700000018,53065.39,53080.7,59606.800000012,59607.800000012,2024-04-06T20:20:56Z,59627.1,NULL,NA,NA,NA,NA,NA,NA,NA,NA,NA,NA,NA,NA,NA,NA,NA,NA,NA,NA,NA,NA,NA,NA,NA,NA,NA,NA,NA,NA,NA
d8f0d,deep,flow.Sequence,1_1_0_0,NA,NA,skipped,NA,59608.300000012,NA,NA,59606.800000012,59608.800000012,2024-04-06T20:20:56Z,59627.1,"c(""distractor1"", ""distractor2"", ""distractor3"")",Rückhalt,msaada,s,muhula,auwali,kiwimbe,NA,NA,NA,NA,NA,NA,NA,NA,NA,NA,NA,NA,NA,NA,NA,NA,NA,NA,NA,NA,NA,NA,NA
d8f0d,Shallow Question,html.Page,1_1_0_1_0,NA,NA,form submission,5887.4,59609.100000024,59598.1,59627.1,65514.5,65514.800000012,2024-04-06T20:21:02Z,65522.9,"c(""distractor1"", ""distractor2"", ""distractor3"")",Rückhalt,msaada,s,muhula,auwali,kiwimbe,muhula,NA,NA,NA,NA,NA,NA,NA,NA,NA,NA,NA,NA,NA,NA,NA,NA,NA,NA,NA,NA,NA,NA
d8f0d,"""Richtig""-Screen",canvas.Screen,1_1_0_1_1,NA,NA,skipped,NA,65515.5,NA,NA,65514.5,65515.700000018,2024-04-06T20:21:02Z,65522.9,"c(""distractor1"", ""distractor2"", ""distractor3"")",Rückhalt,msaada,s,muhula,auwali,kiwimbe,NA,NA,NA,NA,NA,NA,NA,NA,NA,NA,NA,NA,NA,NA,NA,NA,NA,NA,NA,NA,NA,NA,NA
d8f0d,"""Falsch""-Screen",canvas.Screen,1_1_0_1_2,NA,NA,timeout,4997.1,65516.400000006,65507.202,65522.9,70503.5,70508.700000018,2024-04-06T20:21:07Z,70520,"c(""distractor1"", ""distractor2"", ""distractor3"")",Rückhalt,msaada,s,muhula,auwali,kiwimbe,NA,NA,0,NA,NA,NA,NA,NA,NA,NA,NA,NA,NA,NA,NA,NA,NA,NA,NA,NA,NA,NA,NA
d8f0d,shallow,flow.Sequence,1_1_0_1,NA,NA,completion,10876.4,59609,59598.1,59627.1,70503.5,70509.200000018,2024-04-06T20:21:07Z,70520,"c(""distractor1"", ""distractor2"", ""distractor3"")",Rückhalt,msaada,s,muhula,auwali,kiwimbe,NA,NA,NA,NA,NA,NA,NA,NA,NA,NA,NA,NA,NA,NA,NA,NA,NA,NA,NA,NA,NA,NA,NA
d8f0d,task,flow.Sequence,1_1_0,NA,NA,completion,10876.4,59608.300000012,59598.1,59627.1,70503.5,70509.200000018,2024-04-06T20:21:07Z,70520,"c(""distractor1"", ""distractor2"", ""distractor3"")",Rückhalt,msaada,s,muhula,auwali,kiwimbe,NA,NA,NA,NA,NA,NA,NA,NA,NA,NA,NA,NA,NA,NA,NA,NA,NA,NA,NA,NA,NA,NA,NA
d8f0d,Deep Question,html.Page,1_1_1_0_0,NA,NA,form submission,11798.100000024,70509.300000012,70503.5,70520,82318.100000024,82318.400000006,2024-04-06T20:21:19Z,82329.3,"c(""distractor1"", ""distractor2"", ""distractor3"")",Schatten,kivuli,d,NA,NA,NA,mihulili,NA,NA,NA,NA,NA,NA,NA,NA,NA,NA,NA,NA,NA,NA,NA,NA,NA,NA,NA,NA,NA,NA
d8f0d,"""Richtig""-Screen",canvas.Screen,1_1_1_0_1,NA,NA,skipped,NA,82322.100000024,NA,NA,82318.100000024,82322.400000006,2024-04-06T20:21:19Z,82329.3,"c(""distractor1"", ""distractor2"", ""distractor3"")",Schatten,kivuli,d,NA,NA,NA,NA,NA,NA,NA,NA,NA,NA,NA,NA,NA,NA,NA,NA,NA,NA,NA,NA,NA,NA,NA,NA,NA,NA
d8f0d,"""Falsch""-Screen",canvas.Screen,1_1_1_0_2,NA,NA,timeout,4997.2,82323.600000024,82313.3,82329.3,87309.7,87311.200000018,2024-04-06T20:21:24Z,87326.5,"c(""distractor1"", ""distractor2"", ""distractor3"")",Schatten,kivuli,d,NA,NA,NA,NA,NA,0,NA,NA,NA,NA,NA,NA,NA,NA,NA,NA,NA,NA,NA,NA,NA,NA,NA,NA,NA,NA
d8f0d,deep,flow.Sequence,1_1_1_0,NA,NA,completion,16789.7,70509.300000012,70503.5,70520,87309.7,87311.600000024,2024-04-06T20:21:24Z,87326.5,"c(""distractor1"", ""distractor2"", ""distractor3"")",Schatten,kivuli,d,NA,NA,NA,NA,NA,NA,NA,NA,NA,NA,NA,NA,NA,NA,NA,NA,NA,NA,NA,NA,NA,NA,NA,NA,NA,NA
d8f0d,shallow,flow.Sequence,1_1_1_1,NA,NA,skipped,NA,87311.800000012,NA,NA,87309.7,87312,2024-04-06T20:21:24Z,87326.5,"c(""distractor1"", ""distractor2"", ""distractor3"")",Schatten,kivuli,d,NA,NA,NA,NA,NA,NA,NA,NA,NA,NA,NA,NA,NA,NA,NA,NA,NA,NA,NA,NA,NA,NA,NA,NA,NA,NA
d8f0d,task,flow.Sequence,1_1_1,NA,NA,completion,16789.7,70509.300000012,70503.5,70520,87309.7,87312.200000018,2024-04-06T20:21:24Z,87326.5,"c(""distractor1"", ""distractor2"", ""distractor3"")",Schatten,kivuli,d,NA,NA,NA,NA,NA,NA,NA,NA,NA,NA,NA,NA,NA,NA,NA,NA,NA,NA,NA,NA,NA,NA,NA,NA,NA,NA
d8f0d,Deep Question,html.Page,1_1_2_0_0,NA,NA,form submission,6495.6000000238,87312.5,87309.7,87326.5,93822.100000024,93822.300000012,2024-04-06T20:21:30Z,93822.76,"c(""distractor1"", ""distractor2"", ""distractor3"")",Gesundheit,salama,d,NA,NA,NA,hatschii,NA,NA,NA,NA,NA,NA,NA,NA,NA,NA,NA,NA,NA,NA,NA,NA,NA,NA,NA,NA,NA,NA
d8f0d,"""Richtig""-Screen",canvas.Screen,1_1_2_0_1,NA,NA,skipped,NA,93825.600000024,NA,NA,93822.100000024,93825.800000012,2024-04-06T20:21:30Z,93822.76,"c(""distractor1"", ""distractor2"", ""distractor3"")",Gesundheit,salama,d,NA,NA,NA,NA,NA,NA,NA,NA,NA,NA,NA,NA,NA,NA,NA,NA,NA,NA,NA,NA,NA,NA,NA,NA,NA,NA
d8f0d,"""Falsch""-Screen",canvas.Screen,1_1_2_0_2,NA,NA,timeout,4996.84,93827,93822.76,93822.76,98802.6,98803.700000018,2024-04-06T20:21:35Z,98819.6,"c(""distractor1"", ""distractor2"", ""distractor3"")",Gesundheit,salama,d,NA,NA,NA,NA,NA,0,NA,NA,NA,NA,NA,NA,NA,NA,NA,NA,NA,NA,NA,NA,NA,NA,NA,NA,NA,NA
d8f0d,deep,flow.Sequence,1_1_2_0,NA,NA,completion,11476.1,87312.5,87309.7,87326.5,98802.6,98804.100000024,2024-04-06T20:21:35Z,98819.6,"c(""distractor1"", ""distractor2"", ""distractor3"")",Gesundheit,salama,d,NA,NA,NA,NA,NA,NA,NA,NA,NA,NA,NA,NA,NA,NA,NA,NA,NA,NA,NA,NA,NA,NA,NA,NA,NA,NA
d8f0d,shallow,flow.Sequence,1_1_2_1,NA,NA,skipped,NA,98804.200000018,NA,NA,98802.6,98804.400000006,2024-04-06T20:21:35Z,98819.6,"c(""distractor1"", ""distractor2"", ""distractor3"")",Gesundheit,salama,d,NA,NA,NA,NA,NA,NA,NA,NA,NA,NA,NA,NA,NA,NA,NA,NA,NA,NA,NA,NA,NA,NA,NA,NA,NA,NA
d8f0d,task,flow.Sequence,1_1_2,NA,NA,completion,11476.1,87312.400000006,87309.7,87326.5,98802.6,98804.600000024,2024-04-06T20:21:35Z,98819.6,"c(""distractor1"", ""distractor2"", ""distractor3"")",Gesundheit,salama,d,NA,NA,NA,NA,NA,NA,NA,NA,NA,NA,NA,NA,NA,NA,NA,NA,NA,NA,NA,NA,NA,NA,NA,NA,NA,NA
d8f0d,Deep Question,html.Page,1_1_3_0_0,NA,NA,form submission,7932.5000000238,98804.900000006,98802.6,98819.6,106752.10000002,106752.40000001,2024-04-06T20:21:43Z,106764.4,"c(""distractor1"", ""distractor2"", ""distractor3"")",Qualität,mtindo,d,NA,NA,NA,guudtopi,NA,NA,NA,NA,NA,NA,NA,NA,NA,NA,NA,NA,NA,NA,NA,NA,NA,NA,NA,NA,NA,NA
d8f0d,"""Richtig""-Screen",canvas.Screen,1_1_3_0_1,NA,NA,skipped,NA,106755.40000001,NA,NA,106752.10000002,106755.5,2024-04-06T20:21:43Z,106764.4,"c(""distractor1"", ""distractor2"", ""distractor3"")",Qualität,mtindo,d,NA,NA,NA,NA,NA,NA,NA,NA,NA,NA,NA,NA,NA,NA,NA,NA,NA,NA,NA,NA,NA,NA,NA,NA,NA,NA
d8f0d,"""Falsch""-Screen",canvas.Screen,1_1_3_0_2,NA,NA,timeout,4997.2,106756,106748.32,106764.4,111744.7,111745.70000002,2024-04-06T20:21:48Z,111761.6,"c(""distractor1"", ""distractor2"", ""distractor3"")",Qualität,mtindo,d,NA,NA,NA,NA,NA,0,NA,NA,NA,NA,NA,NA,NA,NA,NA,NA,NA,NA,NA,NA,NA,NA,NA,NA,NA,NA
d8f0d,deep,flow.Sequence,1_1_3_0,NA,NA,completion,12925.1,98804.900000006,98802.6,98819.6,111744.7,111745.90000001,2024-04-06T20:21:48Z,111761.6,"c(""distractor1"", ""distractor2"", ""distractor3"")",Qualität,mtindo,d,NA,NA,NA,NA,NA,NA,NA,NA,NA,NA,NA,NA,NA,NA,NA,NA,NA,NA,NA,NA,NA,NA,NA,NA,NA,NA
d8f0d,shallow,flow.Sequence,1_1_3_1,NA,NA,skipped,NA,111746.10000002,NA,NA,111744.7,111746.20000002,2024-04-06T20:21:48Z,111761.6,"c(""distractor1"", ""distractor2"", ""distractor3"")",Qualität,mtindo,d,NA,NA,NA,NA,NA,NA,NA,NA,NA,NA,NA,NA,NA,NA,NA,NA,NA,NA,NA,NA,NA,NA,NA,NA,NA,NA
d8f0d,task,flow.Sequence,1_1_3,NA,NA,completion,12925.1,98804.800000012,98802.6,98819.6,111744.7,111746.40000001,2024-04-06T20:21:48Z,111761.6,"c(""distractor1"", ""distractor2"", ""distractor3"")",Qualität,mtindo,d,NA,NA,NA,NA,NA,NA,NA,NA,NA,NA,NA,NA,NA,NA,NA,NA,NA,NA,NA,NA,NA,NA,NA,NA,NA,NA
d8f0d,deep,flow.Sequence,1_1_4_0,NA,NA,skipped,NA,111746.5,NA,NA,111744.7,111746.60000002,2024-04-06T20:21:48Z,111761.6,"c(""distractor1"", ""distractor2"", ""distractor3"")",Gegenwart,hadhara,s,katiba,jokofu,mikopo,NA,NA,NA,NA,NA,NA,NA,NA,NA,NA,NA,NA,NA,NA,NA,NA,NA,NA,NA,NA,NA,NA,NA
d8f0d,Shallow Question,html.Page,1_1_4_1_0,NA,NA,form submission,8435.6000000179,111746.80000001,111744.7,111761.6,120197.20000002,120197.40000001,2024-04-06T20:21:57Z,120206.878,"c(""distractor1"", ""distractor2"", ""distractor3"")",Gegenwart,hadhara,s,katiba,jokofu,mikopo,katiba,NA,NA,NA,NA,NA,NA,NA,NA,NA,NA,NA,NA,NA,NA,NA,NA,NA,NA,NA,NA,NA,NA
d8f0d,"""Richtig""-Screen",canvas.Screen,1_1_4_1_1,NA,NA,skipped,NA,120200.5,NA,NA,120197.20000002,120200.70000002,2024-04-06T20:21:57Z,120206.878,"c(""distractor1"", ""distractor2"", ""distractor3"")",Gegenwart,hadhara,s,katiba,jokofu,mikopo,NA,NA,NA,NA,NA,NA,NA,NA,NA,NA,NA,NA,NA,NA,NA,NA,NA,NA,NA,NA,NA,NA,NA
d8f0d,"""Falsch""-Screen",canvas.Screen,1_1_4_1_2,NA,NA,timeout,4996.622,120201.5,120206.878,120206.878,125186.5,125187.60000002,2024-04-06T20:22:02Z,125203.5,"c(""distractor1"", ""distractor2"", ""distractor3"")",Gegenwart,hadhara,s,katiba,jokofu,mikopo,NA,NA,0,NA,NA,NA,NA,NA,NA,NA,NA,NA,NA,NA,NA,NA,NA,NA,NA,NA,NA,NA,NA
d8f0d,shallow,flow.Sequence,1_1_4_1,NA,NA,completion,13424.9,111746.70000002,111744.7,111761.6,125186.5,125188,2024-04-06T20:22:02Z,125203.5,"c(""distractor1"", ""distractor2"", ""distractor3"")",Gegenwart,hadhara,s,katiba,jokofu,mikopo,NA,NA,NA,NA,NA,NA,NA,NA,NA,NA,NA,NA,NA,NA,NA,NA,NA,NA,NA,NA,NA,NA,NA
d8f0d,task,flow.Sequence,1_1_4,NA,NA,completion,13424.9,111746.5,111744.7,111761.6,125186.5,125188.30000001,2024-04-06T20:22:02Z,125203.5,"c(""distractor1"", ""distractor2"", ""distractor3"")",Gegenwart,hadhara,s,katiba,jokofu,mikopo,NA,NA,NA,NA,NA,NA,NA,NA,NA,NA,NA,NA,NA,NA,NA,NA,NA,NA,NA,NA,NA,NA,NA
d8f0d,deep,flow.Sequence,1_1_5_0,NA,NA,skipped,NA,125188.5,NA,NA,125186.5,125188.60000002,2024-04-06T20:22:02Z,125203.5,"c(""distractor1"", ""distractor2"", ""distractor3"")",Kritik,lawama,s,dereva,nafasi,mawazo,NA,NA,NA,NA,NA,NA,NA,NA,NA,NA,NA,NA,NA,NA,NA,NA,NA,NA,NA,NA,NA,NA,NA
d8f0d,Shallow Question,html.Page,1_1_5_1_0,NA,NA,form submission,11369.600000024,125188.80000001,125186.5,125203.5,136573.10000002,136573.30000001,2024-04-06T20:22:13Z,136579.4,"c(""distractor1"", ""distractor2"", ""distractor3"")",Kritik,lawama,s,dereva,nafasi,mawazo,nafasi,NA,NA,NA,NA,NA,NA,NA,NA,NA,NA,NA,NA,NA,NA,NA,NA,NA,NA,NA,NA,NA,NA
d8f0d,"""Richtig""-Screen",canvas.Screen,1_1_5_1_1,NA,NA,skipped,NA,136576.5,NA,NA,136573.10000002,136576.60000002,2024-04-06T20:22:13Z,136579.4,"c(""distractor1"", ""distractor2"", ""distractor3"")",Kritik,lawama,s,dereva,nafasi,mawazo,NA,NA,NA,NA,NA,NA,NA,NA,NA,NA,NA,NA,NA,NA,NA,NA,NA,NA,NA,NA,NA,NA,NA
d8f0d,"""Falsch""-Screen",canvas.Screen,1_1_5_1_2,NA,NA,timeout,4997.5,136577.40000001,136563.362,136579.4,141560.2,141561.20000002,2024-04-06T20:22:18Z,141576.9,"c(""distractor1"", ""distractor2"", ""distractor3"")",Kritik,lawama,s,dereva,nafasi,mawazo,NA,NA,0,NA,NA,NA,NA,NA,NA,NA,NA,NA,NA,NA,NA,NA,NA,NA,NA,NA,NA,NA,NA
d8f0d,shallow,flow.Sequence,1_1_5_1,NA,NA,completion,16356.7,125188.70000002,125186.5,125203.5,141560.2,141561.5,2024-04-06T20:22:18Z,141576.9,"c(""distractor1"", ""distractor2"", ""distractor3"")",Kritik,lawama,s,dereva,nafasi,mawazo,NA,NA,NA,NA,NA,NA,NA,NA,NA,NA,NA,NA,NA,NA,NA,NA,NA,NA,NA,NA,NA,NA,NA
d8f0d,task,flow.Sequence,1_1_5,NA,NA,completion,16356.7,125188.40000001,125186.5,125203.5,141560.2,141561.70000002,2024-04-06T20:22:18Z,141576.9,"c(""distractor1"", ""distractor2"", ""distractor3"")",Kritik,lawama,s,dereva,nafasi,mawazo,NA,NA,NA,NA,NA,NA,NA,NA,NA,NA,NA,NA,NA,NA,NA,NA,NA,NA,NA,NA,NA,NA,NA
d8f0d,block,flow.Loop,1_1,NA,NA,completion,81933.1,59608.100000024,59598.1,59627.1,141560.2,141562.10000002,2024-04-06T20:22:18Z,141576.9,"c(""distractor1"", ""distractor2"", ""distractor3"")",NA,NA,NA,NA,NA,NA,NA,NA,NA,NA,NA,NA,NA,NA,NA,NA,NA,NA,NA,NA,NA,NA,NA,NA,NA,NA,NA,NA,NA
d8f0d,Practice,flow.Sequence,1,NA,NA,completion,88479.5,53074.600000024,53065.39,53080.7,141560.2,141562.40000001,2024-04-06T20:22:18Z,141576.9,NULL,NA,NA,NA,NA,NA,NA,NA,NA,NA,NA,NA,NA,NA,NA,NA,NA,NA,NA,NA,NA,NA,NA,NA,NA,NA,NA,NA,NA,NA
d8f0d,Experiment start,canvas.Screen,2,weiter,keypress(q),response,39427.900000012,141562.60000002,141560.2,141576.9,181004.80000001,181005.30000001,2024-04-06T20:22:57Z,181056.034,NULL,NA,NA,NA,NA,NA,NA,NA,NA,NA,NA,NA,NA,NA,NA,NA,NA,NA,NA,NA,NA,NA,NA,NA,NA,NA,NA,NA,NA,NA
d8f0d,deep,flow.Sequence,3_0_0_0_0_0,NA,NA,skipped,NA,181064.30000001,NA,NA,181004.80000001,181064.40000001,2024-04-06T20:22:57Z,181056.034,NULL,Integrität,uadilifu,s,muungano,mtiririko,upunguaji,NA,sdf,NA,0,NA,NA,NA,NA,NA,NA,NA,NA,NA,NA,NA,NA,NA,NA,NA,NA,NA,NA,NA
d8f0d,Shallow Question,html.Page,3_0_0_0_0_1_0,NA,NA,form submission,42011.866000006,181064.40000001,181056.034,181056.034,223067.90000001,223068,2024-04-06T20:23:39Z,223076.4,NULL,Integrität,uadilifu,s,muungano,mtiririko,upunguaji,muungano,NA,NA,0,NA,NA,NA,NA,NA,NA,NA,NA,NA,NA,NA,NA,NA,NA,NA,NA,NA,NA,NA
d8f0d,"""Richtig""-Screen",canvas.Screen,3_0_0_0_0_1_1,NA,NA,skipped,NA,223069.40000001,NA,NA,223067.90000001,223069.60000002,2024-04-06T20:23:39Z,223076.4,NULL,Integrität,uadilifu,s,muungano,mtiririko,upunguaji,NA,sdf,NA,0,NA,NA,NA,NA,NA,NA,NA,NA,NA,NA,NA,NA,NA,NA,NA,NA,NA,NA,NA
d8f0d,"""Falsch""-Screen",canvas.Screen,3_0_0_0_0_1_2,NA,NA,timeout,4996.9,223070,223060.792,223076.4,228056.9,228057.90000001,2024-04-06T20:23:44Z,228073.3,NULL,Integrität,uadilifu,s,muungano,mtiririko,upunguaji,NA,sdf,0,0,NA,NA,NA,NA,NA,NA,NA,NA,NA,NA,NA,NA,NA,NA,NA,NA,NA,NA,NA
d8f0d,shallow,flow.Sequence,3_0_0_0_0_1,NA,NA,completion,47000.866,181064.40000001,181056.034,181056.034,228056.9,228058.30000001,2024-04-06T20:23:44Z,228073.3,NULL,Integrität,uadilifu,s,muungano,mtiririko,upunguaji,NA,sdf,NA,0,NA,NA,NA,NA,NA,NA,NA,NA,NA,NA,NA,NA,NA,NA,NA,NA,NA,NA,NA
d8f0d,task,flow.Sequence,3_0_0_0_0,NA,NA,completion,47000.866,181064.30000001,181056.034,181056.034,228056.9,228058.40000001,2024-04-06T20:23:44Z,228073.3,NULL,Integrität,uadilifu,s,muungano,mtiririko,upunguaji,NA,sdf,NA,0,NA,NA,NA,NA,NA,NA,NA,NA,NA,NA,NA,NA,NA,NA,NA,NA,NA,NA,NA
d8f0d,deep,flow.Sequence,3_0_0_0_1_0,NA,NA,skipped,NA,228058.60000002,NA,NA,228056.9,228058.70000002,2024-04-06T20:23:44Z,228073.3,NULL,Prüfung,mtihani,s,mkulima,mtizamo,ufumbuzi,NA,sdf,NA,0,NA,NA,NA,NA,NA,NA,NA,NA,NA,NA,NA,NA,NA,NA,NA,NA,NA,NA,NA
d8f0d,Shallow Question,html.Page,3_0_0_0_1_1_0,NA,NA,form submission,29302.000000012,228058.80000001,228056.9,228073.3,257375.30000001,257375.5,2024-04-06T20:24:14Z,257388.9,NULL,Prüfung,mtihani,s,mkulima,mtizamo,ufumbuzi,ufumbuzi,NA,NA,0,NA,NA,NA,NA,NA,NA,NA,NA,NA,NA,NA,NA,NA,NA,NA,NA,NA,NA,NA
d8f0d,"""Richtig""-Screen",canvas.Screen,3_0_0_0_1_1_1,NA,NA,skipped,NA,257378.70000002,NA,NA,257375.30000001,257378.80000001,2024-04-06T20:24:14Z,257388.9,NULL,Prüfung,mtihani,s,mkulima,mtizamo,ufumbuzi,NA,sdf,NA,0,NA,NA,NA,NA,NA,NA,NA,NA,NA,NA,NA,NA,NA,NA,NA,NA,NA,NA,NA
d8f0d,"""Falsch""-Screen",canvas.Screen,3_0_0_0_1_1_2,NA,NA,timeout,4996.8,257379.60000002,257372.934,257388.9,262369.5,262370.40000001,2024-04-06T20:24:19Z,262385.7,NULL,Prüfung,mtihani,s,mkulima,mtizamo,ufumbuzi,NA,sdf,0,0,NA,NA,NA,NA,NA,NA,NA,NA,NA,NA,NA,NA,NA,NA,NA,NA,NA,NA,NA
d8f0d,shallow,flow.Sequence,3_0_0_0_1_1,NA,NA,completion,34296.2,228058.80000001,228056.9,228073.3,262369.5,262370.70000002,2024-04-06T20:24:19Z,262385.7,NULL,Prüfung,mtihani,s,mkulima,mtizamo,ufumbuzi,NA,sdf,NA,0,NA,NA,NA,NA,NA,NA,NA,NA,NA,NA,NA,NA,NA,NA,NA,NA,NA,NA,NA
d8f0d,task,flow.Sequence,3_0_0_0_1,NA,NA,completion,34296.2,228058.5,228056.9,228073.3,262369.5,262370.90000001,2024-04-06T20:24:19Z,262385.7,NULL,Prüfung,mtihani,s,mkulima,mtizamo,ufumbuzi,NA,sdf,NA,0,NA,NA,NA,NA,NA,NA,NA,NA,NA,NA,NA,NA,NA,NA,NA,NA,NA,NA,NA
d8f0d,Deep Question,html.Page,3_0_0_0_2_0_0,NA,NA,form submission,39891.600000012,262371.20000002,262369.5,262385.7,302277.30000001,302277.60000002,2024-04-06T20:24:59Z,302279.138,NULL,Genehmigung,idhini,d,NA,NA,NA,halibu,NA,NA,0,NA,NA,NA,NA,NA,NA,NA,NA,NA,NA,NA,NA,NA,NA,NA,NA,NA,NA,NA
d8f0d,"""Richtig""-Screen",canvas.Screen,3_0_0_0_2_0_1,NA,NA,skipped,NA,302280.70000002,NA,NA,302277.30000001,302280.90000001,2024-04-06T20:24:59Z,302279.138,NULL,Genehmigung,idhini,d,NA,NA,NA,NA,sdf,NA,0,NA,NA,NA,NA,NA,NA,NA,NA,NA,NA,NA,NA,NA,NA,NA,NA,NA,NA,NA
d8f0d,"""Falsch""-Screen",canvas.Screen,3_0_0_0_2_0_2,NA,NA,timeout,4995.962,302281.60000002,302279.138,302279.138,307258.6,307259.60000002,2024-04-06T20:25:04Z,307275.1,NULL,Genehmigung,idhini,d,NA,NA,NA,NA,sdf,0,0,NA,NA,NA,NA,NA,NA,NA,NA,NA,NA,NA,NA,NA,NA,NA,NA,NA,NA,NA
d8f0d,deep,flow.Sequence,3_0_0_0_2_0,NA,NA,completion,44872.9,262371.10000002,262369.5,262385.7,307258.6,307259.80000001,2024-04-06T20:25:04Z,307275.1,NULL,Genehmigung,idhini,d,NA,NA,NA,NA,sdf,NA,0,NA,NA,NA,NA,NA,NA,NA,NA,NA,NA,NA,NA,NA,NA,NA,NA,NA,NA,NA
d8f0d,shallow,flow.Sequence,3_0_0_0_2_1,NA,NA,skipped,NA,307260,NA,NA,307258.6,307260.10000002,2024-04-06T20:25:04Z,307275.1,NULL,Genehmigung,idhini,d,NA,NA,NA,NA,sdf,NA,0,NA,NA,NA,NA,NA,NA,NA,NA,NA,NA,NA,NA,NA,NA,NA,NA,NA,NA,NA
d8f0d,task,flow.Sequence,3_0_0_0_2,NA,NA,completion,44872.9,262371,262369.5,262385.7,307258.6,307260.30000001,2024-04-06T20:25:04Z,307275.1,NULL,Genehmigung,idhini,d,NA,NA,NA,NA,sdf,NA,0,NA,NA,NA,NA,NA,NA,NA,NA,NA,NA,NA,NA,NA,NA,NA,NA,NA,NA,NA
d8f0d,deep,flow.Sequence,3_0_0_0_3_0,NA,NA,skipped,NA,307260.5,NA,NA,307258.6,307260.5,2024-04-06T20:25:04Z,307275.1,NULL,Aufstand,ugomaji,s,mazidio,msingi,kujieleza,NA,sdf,NA,0,NA,NA,NA,NA,NA,NA,NA,NA,NA,NA,NA,NA,NA,NA,NA,NA,NA,NA,NA
d8f0d,Shallow Question,html.Page,3_0_0_0_3_1_0,NA,NA,form submission,43139.600000018,307260.60000002,307258.6,307275.1,350414.70000002,350414.90000001,2024-04-06T20:25:47Z,350415.746,NULL,Aufstand,ugomaji,s,mazidio,msingi,kujieleza,kujieleza,NA,NA,0,NA,NA,NA,NA,NA,NA,NA,NA,NA,NA,NA,NA,NA,NA,NA,NA,NA,NA,NA
d8f0d,"""Richtig""-Screen",canvas.Screen,3_0_0_0_3_1_1,NA,NA,skipped,NA,350418.30000001,NA,NA,350414.70000002,350418.40000001,2024-04-06T20:25:47Z,350415.746,NULL,Aufstand,ugomaji,s,mazidio,msingi,kujieleza,NA,sdf,NA,0,NA,NA,NA,NA,NA,NA,NA,NA,NA,NA,NA,NA,NA,NA,NA,NA,NA,NA,NA
d8f0d,"""Falsch""-Screen",canvas.Screen,3_0_0_0_3_1_2,NA,NA,timeout,4996.454,350419.30000001,350415.746,350415.746,355395.3,355396.30000001,2024-04-06T20:25:52Z,355412.2,NULL,Aufstand,ugomaji,s,mazidio,msingi,kujieleza,NA,sdf,0,0,NA,NA,NA,NA,NA,NA,NA,NA,NA,NA,NA,NA,NA,NA,NA,NA,NA,NA,NA
d8f0d,shallow,flow.Sequence,3_0_0_0_3_1,NA,NA,completion,48120.2,307260.60000002,307258.6,307275.1,355395.3,355396.60000002,2024-04-06T20:25:52Z,355412.2,NULL,Aufstand,ugomaji,s,mazidio,msingi,kujieleza,NA,sdf,NA,0,NA,NA,NA,NA,NA,NA,NA,NA,NA,NA,NA,NA,NA,NA,NA,NA,NA,NA,NA
d8f0d,task,flow.Sequence,3_0_0_0_3,NA,NA,completion,48120.2,307260.40000001,307258.6,307275.1,355395.3,355396.80000001,2024-04-06T20:25:52Z,355412.2,NULL,Aufstand,ugomaji,s,mazidio,msingi,kujieleza,NA,sdf,NA,0,NA,NA,NA,NA,NA,NA,NA,NA,NA,NA,NA,NA,NA,NA,NA,NA,NA,NA,NA
d8f0d,Deep Question,html.Page,3_0_0_0_4_0_0,NA,NA,form submission,19236.000000018,355397,355395.3,355412.2,374648.20000002,374648.30000001,2024-04-06T20:26:11Z,374650.1,NULL,Begegnung,kukutana,d,NA,NA,NA,tuvio,NA,NA,0,NA,NA,NA,NA,NA,NA,NA,NA,NA,NA,NA,NA,NA,NA,NA,NA,NA,NA,NA
d8f0d,"""Richtig""-Screen",canvas.Screen,3_0_0_0_4_0_1,NA,NA,skipped,NA,374649.80000001,NA,NA,374648.20000002,374649.80000001,2024-04-06T20:26:11Z,374650.1,NULL,Begegnung,kukutana,d,NA,NA,NA,NA,sdf,NA,0,NA,NA,NA,NA,NA,NA,NA,NA,NA,NA,NA,NA,NA,NA,NA,NA,NA,NA,NA
d8f0d,"""Falsch""-Screen",canvas.Screen,3_0_0_0_4_0_2,NA,NA,timeout,4997.4,374650.20000002,374634.256,374650.1,379630.7,379631.60000002,2024-04-06T20:26:16Z,379647.5,NULL,Begegnung,kukutana,d,NA,NA,NA,NA,sdf,0,0,NA,NA,NA,NA,NA,NA,NA,NA,NA,NA,NA,NA,NA,NA,NA,NA,NA,NA,NA
d8f0d,deep,flow.Sequence,3_0_0_0_4_0,NA,NA,completion,24218.5,355397,355395.3,355412.2,379630.7,379632,2024-04-06T20:26:16Z,379647.5,NULL,Begegnung,kukutana,d,NA,NA,NA,NA,sdf,NA,0,NA,NA,NA,NA,NA,NA,NA,NA,NA,NA,NA,NA,NA,NA,NA,NA,NA,NA,NA
d8f0d,shallow,flow.Sequence,3_0_0_0_4_1,NA,NA,skipped,NA,379632.10000002,NA,NA,379630.7,379632.30000001,2024-04-06T20:26:16Z,379647.5,NULL,Begegnung,kukutana,d,NA,NA,NA,NA,sdf,NA,0,NA,NA,NA,NA,NA,NA,NA,NA,NA,NA,NA,NA,NA,NA,NA,NA,NA,NA,NA
d8f0d,task,flow.Sequence,3_0_0_0_4,NA,NA,completion,24218.5,355396.90000001,355395.3,355412.2,379630.7,379632.40000001,2024-04-06T20:26:16Z,379647.5,NULL,Begegnung,kukutana,d,NA,NA,NA,NA,sdf,NA,0,NA,NA,NA,NA,NA,NA,NA,NA,NA,NA,NA,NA,NA,NA,NA,NA,NA,NA,NA
d8f0d,Deep Question,html.Page,3_0_0_0_5_0_0,NA,NA,form submission,16233.5,379632.60000002,379630.7,379647.5,395881,395881.10000002,2024-04-06T20:26:32Z,395887.1,NULL,Kultur,utamaduni,d,NA,NA,NA,hejamoe,NA,NA,0,NA,NA,NA,NA,NA,NA,NA,NA,NA,NA,NA,NA,NA,NA,NA,NA,NA,NA,NA
d8f0d,"""Richtig""-Screen",canvas.Screen,3_0_0_0_5_0_1,NA,NA,skipped,NA,395884.20000002,NA,NA,395881,395884.40000001,2024-04-06T20:26:32Z,395887.1,NULL,Kultur,utamaduni,d,NA,NA,NA,NA,sdf,NA,0,NA,NA,NA,NA,NA,NA,NA,NA,NA,NA,NA,NA,NA,NA,NA,NA,NA,NA,NA
d8f0d,"""Falsch""-Screen",canvas.Screen,3_0_0_0_5_0_2,NA,NA,timeout,4997,395885.20000002,395871.402,395887.1,400867.9,400868.80000001,2024-04-06T20:26:37Z,400884.1,NULL,Kultur,utamaduni,d,NA,NA,NA,NA,sdf,0,0,NA,NA,NA,NA,NA,NA,NA,NA,NA,NA,NA,NA,NA,NA,NA,NA,NA,NA,NA
d8f0d,deep,flow.Sequence,3_0_0_0_5_0,NA,NA,completion,21220.4,379632.60000002,379630.7,379647.5,400867.9,400869.10000002,2024-04-06T20:26:37Z,400884.1,NULL,Kultur,utamaduni,d,NA,NA,NA,NA,sdf,NA,0,NA,NA,NA,NA,NA,NA,NA,NA,NA,NA,NA,NA,NA,NA,NA,NA,NA,NA,NA
d8f0d,shallow,flow.Sequence,3_0_0_0_5_1,NA,NA,skipped,NA,400869.20000002,NA,NA,400867.9,400869.40000001,2024-04-06T20:26:37Z,400884.1,NULL,Kultur,utamaduni,d,NA,NA,NA,NA,sdf,NA,0,NA,NA,NA,NA,NA,NA,NA,NA,NA,NA,NA,NA,NA,NA,NA,NA,NA,NA,NA
d8f0d,task,flow.Sequence,3_0_0_0_5,NA,NA,completion,21220.4,379632.5,379630.7,379647.5,400867.9,400869.60000002,2024-04-06T20:26:37Z,400884.1,NULL,Kultur,utamaduni,d,NA,NA,NA,NA,sdf,NA,0,NA,NA,NA,NA,NA,NA,NA,NA,NA,NA,NA,NA,NA,NA,NA,NA,NA,NA,NA
d8f0d,Deep Question,html.Page,3_0_0_0_6_0_0,NA,NA,form submission,23859.9,400869.70000002,400867.9,400884.1,424744,424744.30000001,2024-04-06T20:27:01Z,424752.8,NULL,Verzögerung,kuchelewa,d,NA,NA,NA,timoduni,NA,NA,0,NA,NA,NA,NA,NA,NA,NA,NA,NA,NA,NA,NA,NA,NA,NA,NA,NA,NA,NA
d8f0d,"""Richtig""-Screen",canvas.Screen,3_0_0_0_6_0_1,NA,NA,skipped,NA,424747.5,NA,NA,424744,424747.70000002,2024-04-06T20:27:01Z,424752.8,NULL,Verzögerung,kuchelewa,d,NA,NA,NA,NA,sdf,NA,0,NA,NA,NA,NA,NA,NA,NA,NA,NA,NA,NA,NA,NA,NA,NA,NA,NA,NA,NA
d8f0d,"""Falsch""-Screen",canvas.Screen,3_0_0_0_6_0_2,NA,NA,timeout,4997.5,424748.70000002,424736.764,424752.8,429733.5,429734,2024-04-06T20:27:06Z,429750.3,NULL,Verzögerung,kuchelewa,d,NA,NA,NA,NA,sdf,0,0,NA,NA,NA,NA,NA,NA,NA,NA,NA,NA,NA,NA,NA,NA,NA,NA,NA,NA,NA
d8f0d,deep,flow.Sequence,3_0_0_0_6_0,NA,NA,completion,28849.4,400869.70000002,400867.9,400884.1,429733.5,429734.10000002,2024-04-06T20:27:06Z,429750.3,NULL,Verzögerung,kuchelewa,d,NA,NA,NA,NA,sdf,NA,0,NA,NA,NA,NA,NA,NA,NA,NA,NA,NA,NA,NA,NA,NA,NA,NA,NA,NA,NA
d8f0d,shallow,flow.Sequence,3_0_0_0_6_1,NA,NA,skipped,NA,429734.10000002,NA,NA,429733.5,429734.10000002,2024-04-06T20:27:06Z,429750.3,NULL,Verzögerung,kuchelewa,d,NA,NA,NA,NA,sdf,NA,0,NA,NA,NA,NA,NA,NA,NA,NA,NA,NA,NA,NA,NA,NA,NA,NA,NA,NA,NA
d8f0d,task,flow.Sequence,3_0_0_0_6,NA,NA,completion,28849.4,400869.60000002,400867.9,400884.1,429733.5,429734.20000002,2024-04-06T20:27:06Z,429750.3,NULL,Verzögerung,kuchelewa,d,NA,NA,NA,NA,sdf,NA,0,NA,NA,NA,NA,NA,NA,NA,NA,NA,NA,NA,NA,NA,NA,NA,NA,NA,NA,NA
d8f0d,deep,flow.Sequence,3_0_0_0_7_0,NA,NA,skipped,NA,429734.20000002,NA,NA,429733.5,429734.20000002,2024-04-06T20:27:06Z,429750.3,NULL,Fleisch,mshakiki,s,kizunguzungu,mshikamano,angusho,NA,sdf,NA,0,NA,NA,NA,NA,NA,NA,NA,NA,NA,NA,NA,NA,NA,NA,NA,NA,NA,NA,NA
d8f0d,Shallow Question,html.Page,3_0_0_0_7_1_0,NA,NA,form submission,16260.400000018,429734.20000002,429733.5,429750.3,446010.70000002,446010.90000001,2024-04-06T20:27:22Z,446023.5,NULL,Fleisch,mshakiki,s,kizunguzungu,mshikamano,angusho,angusho,NA,NA,0,NA,NA,NA,NA,NA,NA,NA,NA,NA,NA,NA,NA,NA,NA,NA,NA,NA,NA,NA
d8f0d,"""Richtig""-Screen",canvas.Screen,3_0_0_0_7_1_1,NA,NA,skipped,NA,446013.90000001,NA,NA,446010.70000002,446014,2024-04-06T20:27:22Z,446023.5,NULL,Fleisch,mshakiki,s,kizunguzungu,mshikamano,angusho,NA,sdf,NA,0,NA,NA,NA,NA,NA,NA,NA,NA,NA,NA,NA,NA,NA,NA,NA,NA,NA,NA,NA
d8f0d,"""Falsch""-Screen",canvas.Screen,3_0_0_0_7_1_2,NA,NA,timeout,4997,446014.90000001,446006.7,446023.5,451003.8,451004.80000001,2024-04-06T20:27:27Z,451020.5,NULL,Fleisch,mshakiki,s,kizunguzungu,mshikamano,angusho,NA,sdf,0,0,NA,NA,NA,NA,NA,NA,NA,NA,NA,NA,NA,NA,NA,NA,NA,NA,NA,NA,NA
d8f0d,shallow,flow.Sequence,3_0_0_0_7_1,NA,NA,completion,21253.5,429734.20000002,429733.5,429750.3,451003.8,451005.10000002,2024-04-06T20:27:27Z,451020.5,NULL,Fleisch,mshakiki,s,kizunguzungu,mshikamano,angusho,NA,sdf,NA,0,NA,NA,NA,NA,NA,NA,NA,NA,NA,NA,NA,NA,NA,NA,NA,NA,NA,NA,NA
d8f0d,task,flow.Sequence,3_0_0_0_7,NA,NA,completion,21253.5,429734.20000002,429733.5,429750.3,451003.8,451005.30000001,2024-04-06T20:27:27Z,451020.5,NULL,Fleisch,mshakiki,s,kizunguzungu,mshikamano,angusho,NA,sdf,NA,0,NA,NA,NA,NA,NA,NA,NA,NA,NA,NA,NA,NA,NA,NA,NA,NA,NA,NA,NA
d8f0d,block,flow.Loop,3_0_0_0,NA,NA,completion,269947.766,181064.30000001,181056.034,181056.034,451003.8,451005.60000002,2024-04-06T20:27:27Z,451020.5,NULL,NA,NA,NA,NA,NA,NA,NA,sdf,NA,0,NA,NA,NA,NA,NA,NA,NA,NA,NA,NA,NA,NA,NA,NA,NA,NA,NA,NA,NA
d8f0d,weiter,canvas.Screen,3_0_0_1,sdf,keypress(Space),response,4278.400000006,451005.70000002,451003.8,451020.5,455298.90000001,455299.90000001,2024-04-06T20:27:32Z,455319.324,NULL,NA,NA,NA,NA,NA,NA,NA,sdf,NA,0,NA,NA,NA,NA,NA,NA,NA,NA,NA,NA,NA,NA,NA,NA,NA,NA,NA,NA,NA
d8f0d,check continue,flow.Sequence,3_0_0,NA,NA,completion,274242.86600001,181064.30000001,181056.034,181056.034,455298.90000001,455300.10000002,2024-04-06T20:27:32Z,455319.324,NULL,NA,NA,NA,NA,NA,NA,NA,sdf,NA,0,NA,NA,NA,NA,NA,NA,NA,NA,NA,NA,NA,NA,NA,NA,NA,NA,NA,NA,NA
d8f0d,Deep Question,html.Page,3_0_1_0_0_0_0,NA,NA,form submission,9227.8760000179,455326.5,455319.324,455319.324,464547.20000002,464547.40000001,2024-04-06T20:27:41Z,464562.1,NULL,Begegnung,kukutana,d,NA,NA,NA,kuributo,NA,NA,1,NA,NA,NA,NA,NA,NA,NA,NA,NA,NA,NA,NA,NA,NA,NA,NA,NA,NA,NA
d8f0d,"""Richtig""-Screen",canvas.Screen,3_0_1_0_0_0_1,NA,NA,skipped,NA,464549.30000001,NA,NA,464547.20000002,464549.5,2024-04-06T20:27:41Z,464562.1,NULL,Begegnung,kukutana,d,NA,NA,NA,NA,sdfdsf,NA,1,NA,NA,NA,NA,NA,NA,NA,NA,NA,NA,NA,NA,NA,NA,NA,NA,NA,NA,NA
d8f0d,"""Falsch""-Screen",canvas.Screen,3_0_1_0_0_0_2,NA,NA,timeout,4996.9,464549.90000001,464545.592,464562.1,469542.1,469544.60000002,2024-04-06T20:27:46Z,469559,NULL,Begegnung,kukutana,d,NA,NA,NA,NA,sdfdsf,0,1,NA,NA,NA,NA,NA,NA,NA,NA,NA,NA,NA,NA,NA,NA,NA,NA,NA,NA,NA
d8f0d,deep,flow.Sequence,3_0_1_0_0_0,NA,NA,completion,14222.776,455326.40000001,455319.324,455319.324,469542.1,469545,2024-04-06T20:27:46Z,469559,NULL,Begegnung,kukutana,d,NA,NA,NA,NA,sdfdsf,NA,1,NA,NA,NA,NA,NA,NA,NA,NA,NA,NA,NA,NA,NA,NA,NA,NA,NA,NA,NA
d8f0d,shallow,flow.Sequence,3_0_1_0_0_1,NA,NA,skipped,NA,469545.20000002,NA,NA,469542.1,469545.30000001,2024-04-06T20:27:46Z,469559,NULL,Begegnung,kukutana,d,NA,NA,NA,NA,sdfdsf,NA,1,NA,NA,NA,NA,NA,NA,NA,NA,NA,NA,NA,NA,NA,NA,NA,NA,NA,NA,NA
d8f0d,task,flow.Sequence,3_0_1_0_0,NA,NA,completion,14222.776,455326.40000001,455319.324,455319.324,469542.1,469545.5,2024-04-06T20:27:46Z,469559,NULL,Begegnung,kukutana,d,NA,NA,NA,NA,sdfdsf,NA,1,NA,NA,NA,NA,NA,NA,NA,NA,NA,NA,NA,NA,NA,NA,NA,NA,NA,NA,NA
d8f0d,Deep Question,html.Page,3_0_1_0_1_0_0,NA,NA,form submission,14332.100000024,469545.70000002,469542.1,469559,483891.10000002,483891.30000001,2024-04-06T20:28:00Z,483900,NULL,Genehmigung,idhini,d,NA,NA,NA,Haniveru,NA,NA,1,NA,NA,NA,NA,NA,NA,NA,NA,NA,NA,NA,NA,NA,NA,NA,NA,NA,NA,NA
d8f0d,"""Richtig""-Screen",canvas.Screen,3_0_1_0_1_0_1,NA,NA,skipped,NA,483893.10000002,NA,NA,483891.10000002,483893.10000002,2024-04-06T20:28:00Z,483900,NULL,Genehmigung,idhini,d,NA,NA,NA,NA,sdfdsf,NA,1,NA,NA,NA,NA,NA,NA,NA,NA,NA,NA,NA,NA,NA,NA,NA,NA,NA,NA,NA
d8f0d,"""Falsch""-Screen",canvas.Screen,3_0_1_0_1_0_2,NA,NA,timeout,4997.1,483893.60000002,483884.202,483900,488880.7,488881.60000002,2024-04-06T20:28:05Z,488897.1,NULL,Genehmigung,idhini,d,NA,NA,NA,NA,sdfdsf,0,1,NA,NA,NA,NA,NA,NA,NA,NA,NA,NA,NA,NA,NA,NA,NA,NA,NA,NA,NA
d8f0d,deep,flow.Sequence,3_0_1_0_1_0,NA,NA,completion,19321.7,469545.60000002,469542.1,469559,488880.7,488881.90000001,2024-04-06T20:28:05Z,488897.1,NULL,Genehmigung,idhini,d,NA,NA,NA,NA,sdfdsf,NA,1,NA,NA,NA,NA,NA,NA,NA,NA,NA,NA,NA,NA,NA,NA,NA,NA,NA,NA,NA
d8f0d,shallow,flow.Sequence,3_0_1_0_1_1,NA,NA,skipped,NA,488882.10000002,NA,NA,488880.7,488882.20000002,2024-04-06T20:28:05Z,488897.1,NULL,Genehmigung,idhini,d,NA,NA,NA,NA,sdfdsf,NA,1,NA,NA,NA,NA,NA,NA,NA,NA,NA,NA,NA,NA,NA,NA,NA,NA,NA,NA,NA
d8f0d,task,flow.Sequence,3_0_1_0_1,NA,NA,completion,19321.7,469545.60000002,469542.1,469559,488880.7,488882.40000001,2024-04-06T20:28:05Z,488897.1,NULL,Genehmigung,idhini,d,NA,NA,NA,NA,sdfdsf,NA,1,NA,NA,NA,NA,NA,NA,NA,NA,NA,NA,NA,NA,NA,NA,NA,NA,NA,NA,NA
d8f0d,deep,flow.Sequence,3_0_1_0_2_0,NA,NA,skipped,NA,488882.5,NA,NA,488880.7,488882.70000002,2024-04-06T20:28:05Z,488897.1,NULL,Prüfung,mtihani,s,mkulima,mtizamo,ufumbuzi,NA,sdfdsf,NA,1,NA,NA,NA,NA,NA,NA,NA,NA,NA,NA,NA,NA,NA,NA,NA,NA,NA,NA,NA
d8f0d,Shallow Question,html.Page,3_0_1_0_2_1_0,NA,NA,form submission,11103.4,488882.80000001,488880.7,488897.1,500000.5,500000.70000002,2024-04-06T20:28:16Z,500006.7,NULL,Prüfung,mtihani,s,mkulima,mtizamo,ufumbuzi,mkulima,NA,NA,1,NA,NA,NA,NA,NA,NA,NA,NA,NA,NA,NA,NA,NA,NA,NA,NA,NA,NA,NA
d8f0d,"""Richtig""-Screen",canvas.Screen,3_0_1_0_2_1_1,NA,NA,skipped,NA,500003.80000001,NA,NA,500000.5,500003.90000001,2024-04-06T20:28:16Z,500006.7,NULL,Prüfung,mtihani,s,mkulima,mtizamo,ufumbuzi,NA,sdfdsf,NA,1,NA,NA,NA,NA,NA,NA,NA,NA,NA,NA,NA,NA,NA,NA,NA,NA,NA,NA,NA
d8f0d,"""Falsch""-Screen",canvas.Screen,3_0_1_0_2_1_2,NA,NA,timeout,4997.4,500004.5,499990.682,500006.7,504986.9,504987.5,2024-04-06T20:28:21Z,505004.1,NULL,Prüfung,mtihani,s,mkulima,mtizamo,ufumbuzi,NA,sdfdsf,0,1,NA,NA,NA,NA,NA,NA,NA,NA,NA,NA,NA,NA,NA,NA,NA,NA,NA,NA,NA
d8f0d,shallow,flow.Sequence,3_0_1_0_2_1,NA,NA,completion,16089.8,488882.80000001,488880.7,488897.1,504986.9,504987.5,2024-04-06T20:28:21Z,505004.1,NULL,Prüfung,mtihani,s,mkulima,mtizamo,ufumbuzi,NA,sdfdsf,NA,1,NA,NA,NA,NA,NA,NA,NA,NA,NA,NA,NA,NA,NA,NA,NA,NA,NA,NA,NA
d8f0d,task,flow.Sequence,3_0_1_0_2,NA,NA,completion,16089.8,488882.5,488880.7,488897.1,504986.9,504987.60000002,2024-04-06T20:28:21Z,505004.1,NULL,Prüfung,mtihani,s,mkulima,mtizamo,ufumbuzi,NA,sdfdsf,NA,1,NA,NA,NA,NA,NA,NA,NA,NA,NA,NA,NA,NA,NA,NA,NA,NA,NA,NA,NA
d8f0d,deep,flow.Sequence,3_0_1_0_3_0,NA,NA,skipped,NA,504987.60000002,NA,NA,504986.9,504987.70000002,2024-04-06T20:28:21Z,505004.1,NULL,Integrität,uadilifu,s,muungano,mtiririko,upunguaji,NA,sdfdsf,NA,1,NA,NA,NA,NA,NA,NA,NA,NA,NA,NA,NA,NA,NA,NA,NA,NA,NA,NA,NA
d8f0d,Shallow Question,html.Page,3_0_1_0_3_1_0,NA,NA,form submission,20004.600000018,504987.70000002,504986.9,505004.1,525008.70000002,525009,2024-04-06T20:28:41Z,525025.2,NULL,Integrität,uadilifu,s,muungano,mtiririko,upunguaji,upunguaji,NA,NA,1,NA,NA,NA,NA,NA,NA,NA,NA,NA,NA,NA,NA,NA,NA,NA,NA,NA,NA,NA
d8f0d,"""Richtig""-Screen",canvas.Screen,3_0_1_0_3_1_1,NA,NA,skipped,NA,525012.20000002,NA,NA,525008.70000002,525012.30000001,2024-04-06T20:28:41Z,525025.2,NULL,Integrität,uadilifu,s,muungano,mtiririko,upunguaji,NA,sdfdsf,NA,1,NA,NA,NA,NA,NA,NA,NA,NA,NA,NA,NA,NA,NA,NA,NA,NA,NA,NA,NA
d8f0d,"""Falsch""-Screen",canvas.Screen,3_0_1_0_3_1_2,NA,NA,timeout,4996.7000000001,525013,525008.65,525025.2,530005,530006.10000002,2024-04-06T20:28:46Z,530021.9,NULL,Integrität,uadilifu,s,muungano,mtiririko,upunguaji,NA,sdfdsf,0,1,NA,NA,NA,NA,NA,NA,NA,NA,NA,NA,NA,NA,NA,NA,NA,NA,NA,NA,NA
d8f0d,shallow,flow.Sequence,3_0_1_0_3_1,NA,NA,completion,25000.9,504987.70000002,504986.9,505004.1,530005,530006.5,2024-04-06T20:28:46Z,530021.9,NULL,Integrität,uadilifu,s,muungano,mtiririko,upunguaji,NA,sdfdsf,NA,1,NA,NA,NA,NA,NA,NA,NA,NA,NA,NA,NA,NA,NA,NA,NA,NA,NA,NA,NA
d8f0d,task,flow.Sequence,3_0_1_0_3,NA,NA,completion,25000.9,504987.60000002,504986.9,505004.1,530005,530006.70000002,2024-04-06T20:28:46Z,530021.9,NULL,Integrität,uadilifu,s,muungano,mtiririko,upunguaji,NA,sdfdsf,NA,1,NA,NA,NA,NA,NA,NA,NA,NA,NA,NA,NA,NA,NA,NA,NA,NA,NA,NA,NA
d8f0d,Deep Question,html.Page,3_0_1_0_4_0_0,NA,NA,form submission,17162.500000006,530007,530005,530021.9,547184.40000001,547184.60000002,2024-04-06T20:29:04Z,547194.4,NULL,Kultur,utamaduni,d,NA,NA,NA,hatemuini,NA,NA,1,NA,NA,NA,NA,NA,NA,NA,NA,NA,NA,NA,NA,NA,NA,NA,NA,NA,NA,NA
d8f0d,"""Richtig""-Screen",canvas.Screen,3_0_1_0_4_0_1,NA,NA,skipped,NA,547187.60000002,NA,NA,547184.40000001,547187.70000002,2024-04-06T20:29:04Z,547194.4,NULL,Kultur,utamaduni,d,NA,NA,NA,NA,sdfdsf,NA,1,NA,NA,NA,NA,NA,NA,NA,NA,NA,NA,NA,NA,NA,NA,NA,NA,NA,NA,NA
d8f0d,"""Falsch""-Screen",canvas.Screen,3_0_1_0_4_0_2,NA,NA,timeout,4997,547188.30000001,547178.582,547194.4,552174.8,552175.80000001,2024-04-06T20:29:09Z,552191.4,NULL,Kultur,utamaduni,d,NA,NA,NA,NA,sdfdsf,0,1,NA,NA,NA,NA,NA,NA,NA,NA,NA,NA,NA,NA,NA,NA,NA,NA,NA,NA,NA
d8f0d,deep,flow.Sequence,3_0_1_0_4_0,NA,NA,completion,22152.9,530006.90000001,530005,530021.9,552174.8,552176.20000002,2024-04-06T20:29:09Z,552191.4,NULL,Kultur,utamaduni,d,NA,NA,NA,NA,sdfdsf,NA,1,NA,NA,NA,NA,NA,NA,NA,NA,NA,NA,NA,NA,NA,NA,NA,NA,NA,NA,NA
d8f0d,shallow,flow.Sequence,3_0_1_0_4_1,NA,NA,skipped,NA,552176.30000001,NA,NA,552174.8,552176.40000001,2024-04-06T20:29:09Z,552191.4,NULL,Kultur,utamaduni,d,NA,NA,NA,NA,sdfdsf,NA,1,NA,NA,NA,NA,NA,NA,NA,NA,NA,NA,NA,NA,NA,NA,NA,NA,NA,NA,NA
d8f0d,task,flow.Sequence,3_0_1_0_4,NA,NA,completion,22152.9,530006.90000001,530005,530021.9,552174.8,552176.60000002,2024-04-06T20:29:09Z,552191.4,NULL,Kultur,utamaduni,d,NA,NA,NA,NA,sdfdsf,NA,1,NA,NA,NA,NA,NA,NA,NA,NA,NA,NA,NA,NA,NA,NA,NA,NA,NA,NA,NA
d8f0d,deep,flow.Sequence,3_0_1_0_5_0,NA,NA,skipped,NA,552176.70000002,NA,NA,552174.8,552176.80000001,2024-04-06T20:29:09Z,552191.4,NULL,Fleisch,mshakiki,s,kizunguzungu,mshikamano,angusho,NA,sdfdsf,NA,1,NA,NA,NA,NA,NA,NA,NA,NA,NA,NA,NA,NA,NA,NA,NA,NA,NA,NA,NA
d8f0d,Shallow Question,html.Page,3_0_1_0_5_1_0,NA,NA,form submission,69551.6,552177,552174.8,552191.4,621743,621743.20000002,2024-04-06T20:30:18Z,621748.7,NULL,Fleisch,mshakiki,s,kizunguzungu,mshikamano,angusho,mshikamano,NA,NA,1,NA,NA,NA,NA,NA,NA,NA,NA,NA,NA,NA,NA,NA,NA,NA,NA,NA,NA,NA
d8f0d,"""Richtig""-Screen",canvas.Screen,3_0_1_0_5_1_1,NA,NA,skipped,NA,621744.80000001,NA,NA,621743,621744.90000001,2024-04-06T20:30:18Z,621748.7,NULL,Fleisch,mshakiki,s,kizunguzungu,mshikamano,angusho,NA,sdfdsf,NA,1,NA,NA,NA,NA,NA,NA,NA,NA,NA,NA,NA,NA,NA,NA,NA,NA,NA,NA,NA
d8f0d,"""Falsch""-Screen",canvas.Screen,3_0_1_0_5_1_2,NA,NA,timeout,4997,621745.40000001,621732.296,621748.7,626729.1,626729.60000002,2024-04-06T20:30:23Z,626745.7,NULL,Fleisch,mshakiki,s,kizunguzungu,mshikamano,angusho,NA,sdfdsf,0,1,NA,NA,NA,NA,NA,NA,NA,NA,NA,NA,NA,NA,NA,NA,NA,NA,NA,NA,NA
d8f0d,shallow,flow.Sequence,3_0_1_0_5_1,NA,NA,completion,74537.7,552176.90000001,552174.8,552191.4,626729.1,626729.70000002,2024-04-06T20:30:23Z,626745.7,NULL,Fleisch,mshakiki,s,kizunguzungu,mshikamano,angusho,NA,sdfdsf,NA,1,NA,NA,NA,NA,NA,NA,NA,NA,NA,NA,NA,NA,NA,NA,NA,NA,NA,NA,NA
d8f0d,task,flow.Sequence,3_0_1_0_5,NA,NA,completion,74537.7,552176.70000002,552174.8,552191.4,626729.1,626729.80000001,2024-04-06T20:30:23Z,626745.7,NULL,Fleisch,mshakiki,s,kizunguzungu,mshikamano,angusho,NA,sdfdsf,NA,1,NA,NA,NA,NA,NA,NA,NA,NA,NA,NA,NA,NA,NA,NA,NA,NA,NA,NA,NA
d8f0d,deep,flow.Sequence,3_0_1_0_6_0,NA,NA,skipped,NA,626729.90000001,NA,NA,626729.1,626730,2024-04-06T20:30:23Z,626745.7,NULL,Aufstand,ugomaji,s,mazidio,msingi,kujieleza,NA,sdfdsf,NA,1,NA,NA,NA,NA,NA,NA,NA,NA,NA,NA,NA,NA,NA,NA,NA,NA,NA,NA,NA
d8f0d,Shallow Question,html.Page,3_0_1_0_6_1_0,NA,NA,form submission,8637.600000012,626730,626729.1,626745.7,635383.30000001,635383.5,2024-04-06T20:30:32Z,635390.6,NULL,Aufstand,ugomaji,s,mazidio,msingi,kujieleza,kujieleza,NA,NA,1,NA,NA,NA,NA,NA,NA,NA,NA,NA,NA,NA,NA,NA,NA,NA,NA,NA,NA,NA
d8f0d,"""Richtig""-Screen",canvas.Screen,3_0_1_0_6_1_1,NA,NA,skipped,NA,635385,NA,NA,635383.30000001,635385.10000002,2024-04-06T20:30:32Z,635390.6,NULL,Aufstand,ugomaji,s,mazidio,msingi,kujieleza,NA,sdfdsf,NA,1,NA,NA,NA,NA,NA,NA,NA,NA,NA,NA,NA,NA,NA,NA,NA,NA,NA,NA,NA
d8f0d,"""Falsch""-Screen",canvas.Screen,3_0_1_0_6_1_2,NA,NA,timeout,4996.7000000001,635385.5,635374.446,635390.6,640370.7,640371.20000002,2024-04-06T20:30:37Z,640387.3,NULL,Aufstand,ugomaji,s,mazidio,msingi,kujieleza,NA,sdfdsf,0,1,NA,NA,NA,NA,NA,NA,NA,NA,NA,NA,NA,NA,NA,NA,NA,NA,NA,NA,NA
d8f0d,shallow,flow.Sequence,3_0_1_0_6_1,NA,NA,completion,13625,626730,626729.1,626745.7,640370.7,640371.40000001,2024-04-06T20:30:37Z,640387.3,NULL,Aufstand,ugomaji,s,mazidio,msingi,kujieleza,NA,sdfdsf,NA,1,NA,NA,NA,NA,NA,NA,NA,NA,NA,NA,NA,NA,NA,NA,NA,NA,NA,NA,NA
d8f0d,task,flow.Sequence,3_0_1_0_6,NA,NA,completion,13625,626729.90000001,626729.1,626745.7,640370.7,640371.5,2024-04-06T20:30:37Z,640387.3,NULL,Aufstand,ugomaji,s,mazidio,msingi,kujieleza,NA,sdfdsf,NA,1,NA,NA,NA,NA,NA,NA,NA,NA,NA,NA,NA,NA,NA,NA,NA,NA,NA,NA,NA
d8f0d,Deep Question,html.Page,3_0_1_0_7_0_0,NA,NA,form submission,6814.8000000238,640371.5,640370.7,640387.3,647202.10000002,647202.30000001,2024-04-06T20:30:44Z,647216.4,NULL,Verzögerung,kuchelewa,d,NA,NA,NA,timiduno,NA,NA,1,NA,NA,NA,NA,NA,NA,NA,NA,NA,NA,NA,NA,NA,NA,NA,NA,NA,NA,NA
d8f0d,"""Richtig""-Screen",canvas.Screen,3_0_1_0_7_0_1,NA,NA,skipped,NA,647203.60000002,NA,NA,647202.10000002,647203.80000000994,2024-04-06T20:30:44Z,647216.4,NULL,Verzögerung,kuchelewa,d,NA,NA,NA,NA,sdfdsf,NA,1,NA,NA,NA,NA,NA,NA,NA,NA,NA,NA,NA,NA,NA,NA,NA,NA,NA,NA,NA
d8f0d,"""Falsch""-Screen",canvas.Screen,3_0_1_0_7_0_2,NA,NA,timeout,4997,647204.10000002,647200.054,647216.4,652196.7,652197.30000001,2024-04-06T20:30:49Z,652213.4,NULL,Verzögerung,kuchelewa,d,NA,NA,NA,NA,sdfdsf,0,1,NA,NA,NA,NA,NA,NA,NA,NA,NA,NA,NA,NA,NA,NA,NA,NA,NA,NA,NA
d8f0d,deep,flow.Sequence,3_0_1_0_7_0,NA,NA,completion,11809.4,640371.5,640370.7,640387.3,652196.7,652197.40000001,2024-04-06T20:30:49Z,652213.4,NULL,Verzögerung,kuchelewa,d,NA,NA,NA,NA,sdfdsf,NA,1,NA,NA,NA,NA,NA,NA,NA,NA,NA,NA,NA,NA,NA,NA,NA,NA,NA,NA,NA
d8f0d,shallow,flow.Sequence,3_0_1_0_7_1,NA,NA,skipped,NA,652197.40000001,NA,NA,652196.7,652197.40000001,2024-04-06T20:30:49Z,652213.4,NULL,Verzögerung,kuchelewa,d,NA,NA,NA,NA,sdfdsf,NA,1,NA,NA,NA,NA,NA,NA,NA,NA,NA,NA,NA,NA,NA,NA,NA,NA,NA,NA,NA
d8f0d,task,flow.Sequence,3_0_1_0_7,NA,NA,completion,11809.4,640371.5,640370.7,640387.3,652196.7,652197.40000001,2024-04-06T20:30:49Z,652213.4,NULL,Verzögerung,kuchelewa,d,NA,NA,NA,NA,sdfdsf,NA,1,NA,NA,NA,NA,NA,NA,NA,NA,NA,NA,NA,NA,NA,NA,NA,NA,NA,NA,NA
d8f0d,block,flow.Loop,3_0_1_0,NA,NA,completion,196877.376,455326.40000001,455319.324,455319.324,652196.7,652197.60000002,2024-04-06T20:30:49Z,652213.4,NULL,NA,NA,NA,NA,NA,NA,NA,sdfdsf,NA,1,NA,NA,NA,NA,NA,NA,NA,NA,NA,NA,NA,NA,NA,NA,NA,NA,NA,NA,NA
d8f0d,weiter,canvas.Screen,3_0_1_1,sdf,keypress(Space),response,10504.6,652197.60000002,652196.7,652213.4,662718,662718.40000001,2024-04-06T20:30:59Z,662740.3,NULL,NA,NA,NA,NA,NA,NA,NA,sdfdsf,NA,1,NA,NA,NA,NA,NA,NA,NA,NA,NA,NA,NA,NA,NA,NA,NA,NA,NA,NA,NA
d8f0d,check continue,flow.Sequence,3_0_1,NA,NA,completion,207398.676,455326.40000001,455319.324,455319.324,662718,662718.60000002,2024-04-06T20:30:59Z,662740.3,NULL,NA,NA,NA,NA,NA,NA,NA,sdfdsf,NA,1,NA,NA,NA,NA,NA,NA,NA,NA,NA,NA,NA,NA,NA,NA,NA,NA,NA,NA,NA
d8f0d,deep,flow.Sequence,3_0_2_0_0_0,NA,NA,skipped,NA,662737.40000001,NA,NA,662718,662737.60000002,2024-04-06T20:30:59Z,662740.3,NULL,Aufstand,ugomaji,s,mazidio,msingi,kujieleza,NA,sdf,NA,2,NA,NA,NA,NA,NA,NA,NA,NA,NA,NA,NA,NA,NA,NA,NA,NA,NA,NA,NA
d8f0d,Shallow Question,html.Page,3_0_2_0_0_1_0,NA,NA,form submission,7951.2,662737.70000002,662724.098,662740.3,670691.5,670691.70000002,2024-04-06T20:31:07Z,670702.5,NULL,Aufstand,ugomaji,s,mazidio,msingi,kujieleza,kujieleza,NA,NA,2,NA,NA,NA,NA,NA,NA,NA,NA,NA,NA,NA,NA,NA,NA,NA,NA,NA,NA,NA
d8f0d,"""Richtig""-Screen",canvas.Screen,3_0_2_0_0_1_1,NA,NA,skipped,NA,670693.30000001,NA,NA,670691.5,670693.40000001,2024-04-06T20:31:07Z,670702.5,NULL,Aufstand,ugomaji,s,mazidio,msingi,kujieleza,NA,sdf,NA,2,NA,NA,NA,NA,NA,NA,NA,NA,NA,NA,NA,NA,NA,NA,NA,NA,NA,NA,NA
d8f0d,"""Falsch""-Screen",canvas.Screen,3_0_2_0_0_1_2,NA,NA,timeout,4996.7,670693.80000001,670686.022,670702.5,675682.8,675684.40000001,2024-04-06T20:31:12Z,675699.2,NULL,Aufstand,ugomaji,s,mazidio,msingi,kujieleza,NA,sdf,0,2,NA,NA,NA,NA,NA,NA,NA,NA,NA,NA,NA,NA,NA,NA,NA,NA,NA,NA,NA
d8f0d,shallow,flow.Sequence,3_0_2_0_0_1,NA,NA,completion,12942.5,662737.70000002,662724.098,662740.3,675682.8,675684.80000001,2024-04-06T20:31:12Z,675699.2,NULL,Aufstand,ugomaji,s,mazidio,msingi,kujieleza,NA,sdf,NA,2,NA,NA,NA,NA,NA,NA,NA,NA,NA,NA,NA,NA,NA,NA,NA,NA,NA,NA,NA
d8f0d,task,flow.Sequence,3_0_2_0_0,NA,NA,completion,12942.5,662737.40000001,662724.098,662740.3,675682.8,675685.10000002,2024-04-06T20:31:12Z,675699.2,NULL,Aufstand,ugomaji,s,mazidio,msingi,kujieleza,NA,sdf,NA,2,NA,NA,NA,NA,NA,NA,NA,NA,NA,NA,NA,NA,NA,NA,NA,NA,NA,NA,NA
d8f0d,deep,flow.Sequence,3_0_2_0_1_0,NA,NA,skipped,NA,675685.30000000994,NA,NA,675682.8,675685.5,2024-04-06T20:31:12Z,675699.2,NULL,Prüfung,mtihani,s,mkulima,mtizamo,ufumbuzi,NA,sdf,NA,2,NA,NA,NA,NA,NA,NA,NA,NA,NA,NA,NA,NA,NA,NA,NA,NA,NA,NA,NA
d8f0d,Shallow Question,html.Page,3_0_2_0_1_1_0,NA,NA,form submission,9965.5000000179,675685.60000002,675682.8,675699.2,685664.70000002,685664.90000001,2024-04-06T20:31:22Z,685676.3,NULL,Prüfung,mtihani,s,mkulima,mtizamo,ufumbuzi,mtihani,NA,NA,2,NA,NA,NA,NA,NA,NA,NA,NA,NA,NA,NA,NA,NA,NA,NA,NA,NA,NA,NA
d8f0d,"""Richtig""-Screen",canvas.Screen,3_0_2_0_1_1_1,NA,NA,timeout,4996.8999999999,685668.20000002,685660.384,685676.3,690656.7,690657.90000001,2024-04-06T20:31:27Z,690673.2,NULL,Prüfung,mtihani,s,mkulima,mtizamo,ufumbuzi,NA,sdf,1,2,NA,NA,NA,NA,NA,NA,NA,NA,NA,NA,NA,NA,NA,NA,NA,NA,NA,NA,NA
d8f0d,"""Falsch""-Screen",canvas.Screen,3_0_2_0_1_1_2,NA,NA,skipped,NA,690664.20000002,NA,NA,690656.7,690664.5,2024-04-06T20:31:27Z,690673.2,NULL,Prüfung,mtihani,s,mkulima,mtizamo,ufumbuzi,NA,sdf,NA,2,NA,NA,NA,NA,NA,NA,NA,NA,NA,NA,NA,NA,NA,NA,NA,NA,NA,NA,NA
d8f0d,shallow,flow.Sequence,3_0_2_0_1_1,NA,NA,completion,14957.5,675685.5,675682.8,675699.2,690656.7,690664.90000001,2024-04-06T20:31:27Z,690673.2,NULL,Prüfung,mtihani,s,mkulima,mtizamo,ufumbuzi,NA,sdf,NA,2,NA,NA,NA,NA,NA,NA,NA,NA,NA,NA,NA,NA,NA,NA,NA,NA,NA,NA,NA
d8f0d,task,flow.Sequence,3_0_2_0_1,NA,NA,completion,14957.5,675685.30000000994,675682.8,675699.2,690656.7,690665.20000002,2024-04-06T20:31:27Z,690673.2,NULL,Prüfung,mtihani,s,mkulima,mtizamo,ufumbuzi,NA,sdf,NA,2,NA,NA,NA,NA,NA,NA,NA,NA,NA,NA,NA,NA,NA,NA,NA,NA,NA,NA,NA
d8f0d,Deep Question,html.Page,3_0_2_0_2_0_0,NA,NA,form submission,8510.4000000239,690665.40000001,690656.7,690673.2,699183.60000002,699183.80000001,2024-04-06T20:31:36Z,699185.12,NULL,Verzögerung,kuchelewa,d,NA,NA,NA,ufimali,NA,NA,2,NA,NA,NA,NA,NA,NA,NA,NA,NA,NA,NA,NA,NA,NA,NA,NA,NA,NA,NA
d8f0d,"""Richtig""-Screen",canvas.Screen,3_0_2_0_2_0_1,NA,NA,skipped,NA,699186.60000002,NA,NA,699183.60000002,699186.80000001,2024-04-06T20:31:36Z,699185.12,NULL,Verzögerung,kuchelewa,d,NA,NA,NA,NA,sdf,NA,2,NA,NA,NA,NA,NA,NA,NA,NA,NA,NA,NA,NA,NA,NA,NA,NA,NA,NA,NA
d8f0d,"""Falsch""-Screen",canvas.Screen,3_0_2_0_2_0_2,NA,NA,timeout,4996.58,699187.30000001,699185.12,699185.12,704165.3,704165.90000001,2024-04-06T20:31:41Z,704181.7,NULL,Verzögerung,kuchelewa,d,NA,NA,NA,NA,sdf,0,2,NA,NA,NA,NA,NA,NA,NA,NA,NA,NA,NA,NA,NA,NA,NA,NA,NA,NA,NA
d8f0d,deep,flow.Sequence,3_0_2_0_2_0,NA,NA,completion,13492.1,690665.30000001,690656.7,690673.2,704165.3,704165.90000001,2024-04-06T20:31:41Z,704181.7,NULL,Verzögerung,kuchelewa,d,NA,NA,NA,NA,sdf,NA,2,NA,NA,NA,NA,NA,NA,NA,NA,NA,NA,NA,NA,NA,NA,NA,NA,NA,NA,NA
d8f0d,shallow,flow.Sequence,3_0_2_0_2_1,NA,NA,skipped,NA,704166,NA,NA,704165.3,704166,2024-04-06T20:31:41Z,704181.7,NULL,Verzögerung,kuchelewa,d,NA,NA,NA,NA,sdf,NA,2,NA,NA,NA,NA,NA,NA,NA,NA,NA,NA,NA,NA,NA,NA,NA,NA,NA,NA,NA
d8f0d,task,flow.Sequence,3_0_2_0_2,NA,NA,completion,13492.1,690665.30000001,690656.7,690673.2,704165.3,704166.10000002,2024-04-06T20:31:41Z,704181.7,NULL,Verzögerung,kuchelewa,d,NA,NA,NA,NA,sdf,NA,2,NA,NA,NA,NA,NA,NA,NA,NA,NA,NA,NA,NA,NA,NA,NA,NA,NA,NA,NA
d8f0d,Deep Question,html.Page,3_0_2_0_3_0_0,NA,NA,form submission,33799.600000012,704166.10000002,704165.3,704181.7,737981.30000001,737981.70000002,2024-04-06T20:32:14Z,737994.7,NULL,Kultur,utamaduni,d,NA,NA,NA,hanibinu,NA,NA,2,NA,NA,NA,NA,NA,NA,NA,NA,NA,NA,NA,NA,NA,NA,NA,NA,NA,NA,NA
d8f0d,"""Richtig""-Screen",canvas.Screen,3_0_2_0_3_0_1,NA,NA,skipped,NA,737984.40000001,NA,NA,737981.30000001,737984.5,2024-04-06T20:32:14Z,737994.7,NULL,Kultur,utamaduni,d,NA,NA,NA,NA,sdf,NA,2,NA,NA,NA,NA,NA,NA,NA,NA,NA,NA,NA,NA,NA,NA,NA,NA,NA,NA,NA
d8f0d,"""Falsch""-Screen",canvas.Screen,3_0_2_0_3_0_2,NA,NA,timeout,4996.6000000001,737984.90000001,737984.594,737994.7,742974.7,742977,2024-04-06T20:32:19Z,742991.3,NULL,Kultur,utamaduni,d,NA,NA,NA,NA,sdf,0,2,NA,NA,NA,NA,NA,NA,NA,NA,NA,NA,NA,NA,NA,NA,NA,NA,NA,NA,NA
d8f0d,deep,flow.Sequence,3_0_2_0_3_0,NA,NA,completion,38793,704166.10000002,704165.3,704181.7,742974.7,742977.20000002,2024-04-06T20:32:19Z,742991.3,NULL,Kultur,utamaduni,d,NA,NA,NA,NA,sdf,NA,2,NA,NA,NA,NA,NA,NA,NA,NA,NA,NA,NA,NA,NA,NA,NA,NA,NA,NA,NA
d8f0d,shallow,flow.Sequence,3_0_2_0_3_1,NA,NA,skipped,NA,742977.30000001,NA,NA,742974.7,742977.30000001,2024-04-06T20:32:19Z,742991.3,NULL,Kultur,utamaduni,d,NA,NA,NA,NA,sdf,NA,2,NA,NA,NA,NA,NA,NA,NA,NA,NA,NA,NA,NA,NA,NA,NA,NA,NA,NA,NA
d8f0d,task,flow.Sequence,3_0_2_0_3,NA,NA,completion,38793,704166.10000002,704165.3,704181.7,742974.7,742977.40000001,2024-04-06T20:32:19Z,742991.3,NULL,Kultur,utamaduni,d,NA,NA,NA,NA,sdf,NA,2,NA,NA,NA,NA,NA,NA,NA,NA,NA,NA,NA,NA,NA,NA,NA,NA,NA,NA,NA
d8f0d,deep,flow.Sequence,3_0_2_0_4_0,NA,NA,skipped,NA,742977.5,NA,NA,742974.7,742977.60000002,2024-04-06T20:32:19Z,742991.3,NULL,Integrität,uadilifu,s,muungano,mtiririko,upunguaji,NA,sdf,NA,2,NA,NA,NA,NA,NA,NA,NA,NA,NA,NA,NA,NA,NA,NA,NA,NA,NA,NA,NA
d8f0d,Shallow Question,html.Page,3_0_2_0_4_1_0,NA,NA,form submission,12165.800000024,742977.70000002,742974.7,742991.3,755157.10000002,755157.30000000994,2024-04-06T20:32:31Z,755167.3,NULL,Integrität,uadilifu,s,muungano,mtiririko,upunguaji,uadilifu,NA,NA,2,NA,NA,NA,NA,NA,NA,NA,NA,NA,NA,NA,NA,NA,NA,NA,NA,NA,NA,NA
d8f0d,"""Richtig""-Screen",canvas.Screen,3_0_2_0_4_1_1,NA,NA,timeout,4996.8999999999,755160.10000002,755150.922,755167.3,760147.3,760148.10000002,2024-04-06T20:32:36Z,760164.2,NULL,Integrität,uadilifu,s,muungano,mtiririko,upunguaji,NA,sdf,1,2,NA,NA,NA,NA,NA,NA,NA,NA,NA,NA,NA,NA,NA,NA,NA,NA,NA,NA,NA
d8f0d,"""Falsch""-Screen",canvas.Screen,3_0_2_0_4_1_2,NA,NA,skipped,NA,760153.30000001,NA,NA,760147.3,760153.60000002,2024-04-06T20:32:36Z,760164.2,NULL,Integrität,uadilifu,s,muungano,mtiririko,upunguaji,NA,sdf,NA,2,NA,NA,NA,NA,NA,NA,NA,NA,NA,NA,NA,NA,NA,NA,NA,NA,NA,NA,NA
d8f0d,shallow,flow.Sequence,3_0_2_0_4_1,NA,NA,completion,17156,742977.70000002,742974.7,742991.3,760147.3,760154,2024-04-06T20:32:36Z,760164.2,NULL,Integrität,uadilifu,s,muungano,mtiririko,upunguaji,NA,sdf,NA,2,NA,NA,NA,NA,NA,NA,NA,NA,NA,NA,NA,NA,NA,NA,NA,NA,NA,NA,NA
d8f0d,task,flow.Sequence,3_0_2_0_4,NA,NA,completion,17156,742977.5,742974.7,742991.3,760147.3,760154.10000002,2024-04-06T20:32:36Z,760164.2,NULL,Integrität,uadilifu,s,muungano,mtiririko,upunguaji,NA,sdf,NA,2,NA,NA,NA,NA,NA,NA,NA,NA,NA,NA,NA,NA,NA,NA,NA,NA,NA,NA,NA
d8f0d,deep,flow.Sequence,3_0_2_0_5_0,NA,NA,skipped,NA,760154.40000001,NA,NA,760147.3,760154.5,2024-04-06T20:32:36Z,760164.2,NULL,Fleisch,mshakiki,s,kizunguzungu,mshikamano,angusho,NA,sdf,NA,2,NA,NA,NA,NA,NA,NA,NA,NA,NA,NA,NA,NA,NA,NA,NA,NA,NA,NA,NA
d8f0d,Shallow Question,html.Page,3_0_2_0_5_1_0,NA,NA,form submission,7768.4000000239,760154.70000002,760147.3,760164.2,767932.60000002,767932.80000001,2024-04-06T20:32:44Z,767942.7,NULL,Fleisch,mshakiki,s,kizunguzungu,mshikamano,angusho,mshakiki,NA,NA,2,NA,NA,NA,NA,NA,NA,NA,NA,NA,NA,NA,NA,NA,NA,NA,NA,NA,NA,NA
d8f0d,"""Richtig""-Screen",canvas.Screen,3_0_2_0_5_1_1,NA,NA,timeout,4997.1000000001,767935.80000000994,767926.61,767942.7,772922.9,772923.80000000994,2024-04-06T20:32:49Z,772939.8,NULL,Fleisch,mshakiki,s,kizunguzungu,mshikamano,angusho,NA,sdf,1,2,NA,NA,NA,NA,NA,NA,NA,NA,NA,NA,NA,NA,NA,NA,NA,NA,NA,NA,NA
d8f0d,"""Falsch""-Screen",canvas.Screen,3_0_2_0_5_1_2,NA,NA,skipped,NA,772928.5,NA,NA,772922.9,772928.80000001,2024-04-06T20:32:49Z,772939.8,NULL,Fleisch,mshakiki,s,kizunguzungu,mshikamano,angusho,NA,sdf,NA,2,NA,NA,NA,NA,NA,NA,NA,NA,NA,NA,NA,NA,NA,NA,NA,NA,NA,NA,NA
d8f0d,shallow,flow.Sequence,3_0_2_0_5_1,NA,NA,completion,12758.7,760154.70000002,760147.3,760164.2,772922.9,772929,2024-04-06T20:32:49Z,772939.8,NULL,Fleisch,mshakiki,s,kizunguzungu,mshikamano,angusho,NA,sdf,NA,2,NA,NA,NA,NA,NA,NA,NA,NA,NA,NA,NA,NA,NA,NA,NA,NA,NA,NA,NA
d8f0d,task,flow.Sequence,3_0_2_0_5,NA,NA,completion,12758.7,760154.30000001,760147.3,760164.2,772922.9,772929,2024-04-06T20:32:49Z,772939.8,NULL,Fleisch,mshakiki,s,kizunguzungu,mshikamano,angusho,NA,sdf,NA,2,NA,NA,NA,NA,NA,NA,NA,NA,NA,NA,NA,NA,NA,NA,NA,NA,NA,NA,NA
d8f0d,Deep Question,html.Page,3_0_2_0_6_0_0,NA,NA,form submission,5766.5000000119,772929.10000002,772922.9,772939.8,778706.30000000994,778706.5,2024-04-06T20:32:55Z,778719.2,NULL,Genehmigung,idhini,d,NA,NA,NA,hanimu,NA,NA,2,NA,NA,NA,NA,NA,NA,NA,NA,NA,NA,NA,NA,NA,NA,NA,NA,NA,NA,NA
d8f0d,"""Richtig""-Screen",canvas.Screen,3_0_2_0_6_0_1,NA,NA,skipped,NA,778709.5,NA,NA,778706.30000000994,778709.60000002,2024-04-06T20:32:55Z,778719.2,NULL,Genehmigung,idhini,d,NA,NA,NA,NA,sdf,NA,2,NA,NA,NA,NA,NA,NA,NA,NA,NA,NA,NA,NA,NA,NA,NA,NA,NA,NA,NA
d8f0d,"""Falsch""-Screen",canvas.Screen,3_0_2_0_6_0_2,NA,NA,timeout,4997.4,778710.5,778703.222,778719.2,783699.7,783700.60000002,2024-04-06T20:33:00Z,783716.6,NULL,Genehmigung,idhini,d,NA,NA,NA,NA,sdf,0,2,NA,NA,NA,NA,NA,NA,NA,NA,NA,NA,NA,NA,NA,NA,NA,NA,NA,NA,NA
d8f0d,deep,flow.Sequence,3_0_2_0_6_0,NA,NA,completion,10759.9,772929.10000002,772922.9,772939.8,783699.7,783701,2024-04-06T20:33:00Z,783716.6,NULL,Genehmigung,idhini,d,NA,NA,NA,NA,sdf,NA,2,NA,NA,NA,NA,NA,NA,NA,NA,NA,NA,NA,NA,NA,NA,NA,NA,NA,NA,NA
d8f0d,shallow,flow.Sequence,3_0_2_0_6_1,NA,NA,skipped,NA,783701.10000002,NA,NA,783699.7,783701.20000002,2024-04-06T20:33:00Z,783716.6,NULL,Genehmigung,idhini,d,NA,NA,NA,NA,sdf,NA,2,NA,NA,NA,NA,NA,NA,NA,NA,NA,NA,NA,NA,NA,NA,NA,NA,NA,NA,NA
d8f0d,task,flow.Sequence,3_0_2_0_6,NA,NA,completion,10759.9,772929.10000002,772922.9,772939.8,783699.7,783701.40000001,2024-04-06T20:33:00Z,783716.6,NULL,Genehmigung,idhini,d,NA,NA,NA,NA,sdf,NA,2,NA,NA,NA,NA,NA,NA,NA,NA,NA,NA,NA,NA,NA,NA,NA,NA,NA,NA,NA
d8f0d,Deep Question,html.Page,3_0_2_0_7_0_0,NA,NA,form submission,10419.800000006,783701.60000002,783699.7,783716.6,794136.40000001,794136.60000002,2024-04-06T20:33:10Z,794143.688,NULL,Begegnung,kukutana,d,NA,NA,NA,milubi,NA,NA,2,NA,NA,NA,NA,NA,NA,NA,NA,NA,NA,NA,NA,NA,NA,NA,NA,NA,NA,NA
d8f0d,"""Richtig""-Screen",canvas.Screen,3_0_2_0_7_0_1,NA,NA,skipped,NA,794139.70000002,NA,NA,794136.40000001,794139.80000000994,2024-04-06T20:33:10Z,794143.688,NULL,Begegnung,kukutana,d,NA,NA,NA,NA,sdf,NA,2,NA,NA,NA,NA,NA,NA,NA,NA,NA,NA,NA,NA,NA,NA,NA,NA,NA,NA,NA
d8f0d,"""Falsch""-Screen",canvas.Screen,3_0_2_0_7_0_2,NA,NA,timeout,4996.912,794140.60000002,794143.688,794143.688,799123.6,799124.60000002,2024-04-06T20:33:15Z,799140.6,NULL,Begegnung,kukutana,d,NA,NA,NA,NA,sdf,0,2,NA,NA,NA,NA,NA,NA,NA,NA,NA,NA,NA,NA,NA,NA,NA,NA,NA,NA,NA
d8f0d,deep,flow.Sequence,3_0_2_0_7_0,NA,NA,completion,15407,783701.60000002,783699.7,783716.6,799123.6,799125,2024-04-06T20:33:15Z,799140.6,NULL,Begegnung,kukutana,d,NA,NA,NA,NA,sdf,NA,2,NA,NA,NA,NA,NA,NA,NA,NA,NA,NA,NA,NA,NA,NA,NA,NA,NA,NA,NA
d8f0d,shallow,flow.Sequence,3_0_2_0_7_1,NA,NA,skipped,NA,799125.10000002,NA,NA,799123.6,799125.20000002,2024-04-06T20:33:15Z,799140.6,NULL,Begegnung,kukutana,d,NA,NA,NA,NA,sdf,NA,2,NA,NA,NA,NA,NA,NA,NA,NA,NA,NA,NA,NA,NA,NA,NA,NA,NA,NA,NA
d8f0d,task,flow.Sequence,3_0_2_0_7,NA,NA,completion,15407,783701.5,783699.7,783716.6,799123.6,799125.5,2024-04-06T20:33:15Z,799140.6,NULL,Begegnung,kukutana,d,NA,NA,NA,NA,sdf,NA,2,NA,NA,NA,NA,NA,NA,NA,NA,NA,NA,NA,NA,NA,NA,NA,NA,NA,NA,NA
d8f0d,block,flow.Loop,3_0_2_0,NA,NA,completion,136383.3,662737.40000001,662724.098,662740.3,799123.6,799125.70000002,2024-04-06T20:33:15Z,799140.6,NULL,NA,NA,NA,NA,NA,NA,NA,sdf,NA,2,NA,NA,NA,NA,NA,NA,NA,NA,NA,NA,NA,NA,NA,NA,NA,NA,NA,NA,NA
d8f0d,weiter,canvas.Screen,3_0_2_1,sdf,keypress(Space),response,2436.9,799125.80000001,799123.6,799140.6,801577.5,801578.10000002,2024-04-06T20:33:18Z,801590.502,NULL,NA,NA,NA,NA,NA,NA,NA,sdf,NA,2,NA,NA,NA,NA,NA,NA,NA,NA,NA,NA,NA,NA,NA,NA,NA,NA,NA,NA,NA
d8f0d,check continue,flow.Sequence,3_0_2,NA,NA,completion,138837.2,662737.40000001,662724.098,662740.3,801577.5,801578.20000002,2024-04-06T20:33:18Z,801590.502,NULL,NA,NA,NA,NA,NA,NA,NA,sdf,NA,2,NA,NA,NA,NA,NA,NA,NA,NA,NA,NA,NA,NA,NA,NA,NA,NA,NA,NA,NA
d8f0d,deep,flow.Sequence,3_0_3_0_0_0,NA,NA,skipped,NA,801599.90000001,NA,NA,801577.5,801600,2024-04-06T20:33:18Z,801590.502,NULL,Integrität,uadilifu,s,muungano,mtiririko,upunguaji,NA,qt,NA,3,NA,NA,NA,NA,NA,NA,NA,NA,NA,NA,NA,NA,NA,NA,NA,NA,NA,NA,NA
d8f0d,Shallow Question,html.Page,3_0_3_0_0_1_0,NA,NA,form submission,13773.798000012,801600.10000002,801590.502,801590.502,815364.30000001,815364.70000002,2024-04-06T20:33:32Z,815380.7,NULL,Integrität,uadilifu,s,muungano,mtiririko,upunguaji,uadilifu,NA,NA,3,NA,NA,NA,NA,NA,NA,NA,NA,NA,NA,NA,NA,NA,NA,NA,NA,NA,NA,NA
d8f0d,"""Richtig""-Screen",canvas.Screen,3_0_3_0_0_1_1,NA,NA,timeout,4996.4,815367.70000002,815364.126,815380.7,820360.9,820361.90000001,2024-04-06T20:33:37Z,820377.1,NULL,Integrität,uadilifu,s,muungano,mtiririko,upunguaji,NA,qt,1,3,NA,NA,NA,NA,NA,NA,NA,NA,NA,NA,NA,NA,NA,NA,NA,NA,NA,NA,NA
d8f0d,"""Falsch""-Screen",canvas.Screen,3_0_3_0_0_1_2,NA,NA,skipped,NA,820367.20000002,NA,NA,820360.9,820367.40000001,2024-04-06T20:33:37Z,820377.1,NULL,Integrität,uadilifu,s,muungano,mtiririko,upunguaji,NA,qt,NA,3,NA,NA,NA,NA,NA,NA,NA,NA,NA,NA,NA,NA,NA,NA,NA,NA,NA,NA,NA
d8f0d,shallow,flow.Sequence,3_0_3_0_0_1,NA,NA,completion,18770.398,801600.10000002,801590.502,801590.502,820360.9,820367.70000002,2024-04-06T20:33:37Z,820377.1,NULL,Integrität,uadilifu,s,muungano,mtiririko,upunguaji,NA,qt,NA,3,NA,NA,NA,NA,NA,NA,NA,NA,NA,NA,NA,NA,NA,NA,NA,NA,NA,NA,NA
d8f0d,task,flow.Sequence,3_0_3_0_0,NA,NA,completion,18770.398,801599.90000001,801590.502,801590.502,820360.9,820367.90000001,2024-04-06T20:33:37Z,820377.1,NULL,Integrität,uadilifu,s,muungano,mtiririko,upunguaji,NA,qt,NA,3,NA,NA,NA,NA,NA,NA,NA,NA,NA,NA,NA,NA,NA,NA,NA,NA,NA,NA,NA
d8f0d,deep,flow.Sequence,3_0_3_0_1_0,NA,NA,skipped,NA,820368.10000002,NA,NA,820360.9,820368.20000002,2024-04-06T20:33:37Z,820377.1,NULL,Prüfung,mtihani,s,mkulima,mtizamo,ufumbuzi,NA,qt,NA,3,NA,NA,NA,NA,NA,NA,NA,NA,NA,NA,NA,NA,NA,NA,NA,NA,NA,NA,NA
d8f0d,Shallow Question,html.Page,3_0_3_0_1_1_0,NA,NA,form submission,9892.9,820368.30000001,820360.9,820377.1,830270,830270.30000001,2024-04-06T20:33:47Z,830271.65,NULL,Prüfung,mtihani,s,mkulima,mtizamo,ufumbuzi,mtihani,NA,NA,3,NA,NA,NA,NA,NA,NA,NA,NA,NA,NA,NA,NA,NA,NA,NA,NA,NA,NA,NA
d8f0d,"""Richtig""-Screen",canvas.Screen,3_0_3_0_1_1_1,NA,NA,timeout,4996.25,830273.40000001,830271.65,830271.65,835251.3,835252.30000001,2024-04-06T20:33:52Z,835267.9,NULL,Prüfung,mtihani,s,mkulima,mtizamo,ufumbuzi,NA,qt,1,3,NA,NA,NA,NA,NA,NA,NA,NA,NA,NA,NA,NA,NA,NA,NA,NA,NA,NA,NA
d8f0d,"""Falsch""-Screen",canvas.Screen,3_0_3_0_1_1_2,NA,NA,skipped,NA,835257.20000002,NA,NA,835251.3,835257.30000001,2024-04-06T20:33:52Z,835267.9,NULL,Prüfung,mtihani,s,mkulima,mtizamo,ufumbuzi,NA,qt,NA,3,NA,NA,NA,NA,NA,NA,NA,NA,NA,NA,NA,NA,NA,NA,NA,NA,NA,NA,NA
d8f0d,shallow,flow.Sequence,3_0_3_0_1_1,NA,NA,completion,14874.2,820368.30000001,820360.9,820377.1,835251.3,835257.5,2024-04-06T20:33:52Z,835267.9,NULL,Prüfung,mtihani,s,mkulima,mtizamo,ufumbuzi,NA,qt,NA,3,NA,NA,NA,NA,NA,NA,NA,NA,NA,NA,NA,NA,NA,NA,NA,NA,NA,NA,NA
d8f0d,task,flow.Sequence,3_0_3_0_1,NA,NA,completion,14874.2,820368.10000002,820360.9,820377.1,835251.3,835257.5,2024-04-06T20:33:52Z,835267.9,NULL,Prüfung,mtihani,s,mkulima,mtizamo,ufumbuzi,NA,qt,NA,3,NA,NA,NA,NA,NA,NA,NA,NA,NA,NA,NA,NA,NA,NA,NA,NA,NA,NA,NA
d8f0d,Deep Question,html.Page,3_0_3_0_2_0_0,NA,NA,form submission,8266.0000000059,835257.60000002,835251.3,835267.9,843533.90000001,843534.20000002,2024-04-06T20:34:00Z,843546.1,NULL,Kultur,utamaduni,d,NA,NA,NA,hanibu,NA,NA,3,NA,NA,NA,NA,NA,NA,NA,NA,NA,NA,NA,NA,NA,NA,NA,NA,NA,NA,NA
d8f0d,"""Richtig""-Screen",canvas.Screen,3_0_3_0_2_0_1,NA,NA,skipped,NA,843537.20000002,NA,NA,843533.90000001,843537.30000001,2024-04-06T20:34:00Z,843546.1,NULL,Kultur,utamaduni,d,NA,NA,NA,NA,qt,NA,3,NA,NA,NA,NA,NA,NA,NA,NA,NA,NA,NA,NA,NA,NA,NA,NA,NA,NA,NA
d8f0d,"""Falsch""-Screen",canvas.Screen,3_0_3_0_2_0_2,NA,NA,timeout,4997.4,843537.80000001,843530.1,843546.1,848526.7,848527.80000001,2024-04-06T20:34:05Z,848543.5,NULL,Kultur,utamaduni,d,NA,NA,NA,NA,qt,0,3,NA,NA,NA,NA,NA,NA,NA,NA,NA,NA,NA,NA,NA,NA,NA,NA,NA,NA,NA
d8f0d,deep,flow.Sequence,3_0_3_0_2_0,NA,NA,completion,13258.8,835257.60000002,835251.3,835267.9,848526.7,848528.30000001,2024-04-06T20:34:05Z,848543.5,NULL,Kultur,utamaduni,d,NA,NA,NA,NA,qt,NA,3,NA,NA,NA,NA,NA,NA,NA,NA,NA,NA,NA,NA,NA,NA,NA,NA,NA,NA,NA
d8f0d,shallow,flow.Sequence,3_0_3_0_2_1,NA,NA,skipped,NA,848528.40000001,NA,NA,848526.7,848528.60000002,2024-04-06T20:34:05Z,848543.5,NULL,Kultur,utamaduni,d,NA,NA,NA,NA,qt,NA,3,NA,NA,NA,NA,NA,NA,NA,NA,NA,NA,NA,NA,NA,NA,NA,NA,NA,NA,NA
d8f0d,task,flow.Sequence,3_0_3_0_2,NA,NA,completion,13258.8,835257.60000002,835251.3,835267.9,848526.7,848528.80000001,2024-04-06T20:34:05Z,848543.5,NULL,Kultur,utamaduni,d,NA,NA,NA,NA,qt,NA,3,NA,NA,NA,NA,NA,NA,NA,NA,NA,NA,NA,NA,NA,NA,NA,NA,NA,NA,NA
d8f0d,deep,flow.Sequence,3_0_3_0_3_0,NA,NA,skipped,NA,848529,NA,NA,848526.7,848529.10000002,2024-04-06T20:34:05Z,848543.5,NULL,Fleisch,mshakiki,s,kizunguzungu,mshikamano,angusho,NA,qt,NA,3,NA,NA,NA,NA,NA,NA,NA,NA,NA,NA,NA,NA,NA,NA,NA,NA,NA,NA,NA
d8f0d,Shallow Question,html.Page,3_0_3_0_3_1_0,NA,NA,form submission,28688.5,848529.20000002,848526.7,848543.5,877232,877232.30000001,2024-04-06T20:34:34Z,877242.3,NULL,Fleisch,mshakiki,s,kizunguzungu,mshikamano,angusho,mshakiki,NA,NA,3,NA,NA,NA,NA,NA,NA,NA,NA,NA,NA,NA,NA,NA,NA,NA,NA,NA,NA,NA
d8f0d,"""Richtig""-Screen",canvas.Screen,3_0_3_0_3_1_1,NA,NA,timeout,4997.2,877236.30000001,877226.372,877242.3,882222.8,882223.60000002,2024-04-06T20:34:39Z,882239.5,NULL,Fleisch,mshakiki,s,kizunguzungu,mshikamano,angusho,NA,qt,1,3,NA,NA,NA,NA,NA,NA,NA,NA,NA,NA,NA,NA,NA,NA,NA,NA,NA,NA,NA
d8f0d,"""Falsch""-Screen",canvas.Screen,3_0_3_0_3_1_2,NA,NA,skipped,NA,882228.5,NA,NA,882222.8,882228.70000002,2024-04-06T20:34:39Z,882239.5,NULL,Fleisch,mshakiki,s,kizunguzungu,mshikamano,angusho,NA,qt,NA,3,NA,NA,NA,NA,NA,NA,NA,NA,NA,NA,NA,NA,NA,NA,NA,NA,NA,NA,NA
d8f0d,shallow,flow.Sequence,3_0_3_0_3_1,NA,NA,completion,33679.3,848529.10000002,848526.7,848543.5,882222.8,882228.90000001,2024-04-06T20:34:39Z,882239.5,NULL,Fleisch,mshakiki,s,kizunguzungu,mshikamano,angusho,NA,qt,NA,3,NA,NA,NA,NA,NA,NA,NA,NA,NA,NA,NA,NA,NA,NA,NA,NA,NA,NA,NA
d8f0d,task,flow.Sequence,3_0_3_0_3,NA,NA,completion,33679.3,848528.90000001,848526.7,848543.5,882222.8,882229,2024-04-06T20:34:39Z,882239.5,NULL,Fleisch,mshakiki,s,kizunguzungu,mshikamano,angusho,NA,qt,NA,3,NA,NA,NA,NA,NA,NA,NA,NA,NA,NA,NA,NA,NA,NA,NA,NA,NA,NA,NA
d8f0d,Deep Question,html.Page,3_0_3_0_4_0_0,NA,NA,form submission,6088.1000000238,882229.10000002,882222.8,882239.5,888327.60000002,888327.80000001,2024-04-06T20:34:45Z,888335.5,NULL,Genehmigung,idhini,d,NA,NA,NA,hanibu,NA,NA,3,NA,NA,NA,NA,NA,NA,NA,NA,NA,NA,NA,NA,NA,NA,NA,NA,NA,NA,NA
d8f0d,"""Richtig""-Screen",canvas.Screen,3_0_3_0_4_0_1,NA,NA,skipped,NA,888329.80000001,NA,NA,888327.60000002,888329.80000001,2024-04-06T20:34:45Z,888335.5,NULL,Genehmigung,idhini,d,NA,NA,NA,NA,qt,NA,3,NA,NA,NA,NA,NA,NA,NA,NA,NA,NA,NA,NA,NA,NA,NA,NA,NA,NA,NA
d8f0d,"""Falsch""-Screen",canvas.Screen,3_0_3_0_4_0_2,NA,NA,timeout,4997,888330.40000001,888319.326,888335.5,893316.1,893317.10000002,2024-04-06T20:34:50Z,893332.5,NULL,Genehmigung,idhini,d,NA,NA,NA,NA,qt,0,3,NA,NA,NA,NA,NA,NA,NA,NA,NA,NA,NA,NA,NA,NA,NA,NA,NA,NA,NA
d8f0d,deep,flow.Sequence,3_0_3_0_4_0,NA,NA,completion,11076.6,882229.10000002,882222.8,882239.5,893316.1,893317.5,2024-04-06T20:34:50Z,893332.5,NULL,Genehmigung,idhini,d,NA,NA,NA,NA,qt,NA,3,NA,NA,NA,NA,NA,NA,NA,NA,NA,NA,NA,NA,NA,NA,NA,NA,NA,NA,NA
d8f0d,shallow,flow.Sequence,3_0_3_0_4_1,NA,NA,skipped,NA,893317.60000002,NA,NA,893316.1,893317.70000002,2024-04-06T20:34:50Z,893332.5,NULL,Genehmigung,idhini,d,NA,NA,NA,NA,qt,NA,3,NA,NA,NA,NA,NA,NA,NA,NA,NA,NA,NA,NA,NA,NA,NA,NA,NA,NA,NA
d8f0d,task,flow.Sequence,3_0_3_0_4,NA,NA,completion,11076.6,882229.10000002,882222.8,882239.5,893316.1,893317.90000001,2024-04-06T20:34:50Z,893332.5,NULL,Genehmigung,idhini,d,NA,NA,NA,NA,qt,NA,3,NA,NA,NA,NA,NA,NA,NA,NA,NA,NA,NA,NA,NA,NA,NA,NA,NA,NA,NA
d8f0d,Deep Question,html.Page,3_0_3_0_5_0_0,NA,NA,form submission,6593.6000000238,893318.20000002,893316.1,893332.5,899926.10000002,899926.40000001,2024-04-06T20:34:56Z,899929.028,NULL,Verzögerung,kuchelewa,d,NA,NA,NA,halibumi,NA,NA,3,NA,NA,NA,NA,NA,NA,NA,NA,NA,NA,NA,NA,NA,NA,NA,NA,NA,NA,NA
d8f0d,"""Richtig""-Screen",canvas.Screen,3_0_3_0_5_0_1,NA,NA,skipped,NA,899929.60000002,NA,NA,899926.10000002,899929.80000001,2024-04-06T20:34:56Z,899929.028,NULL,Verzögerung,kuchelewa,d,NA,NA,NA,NA,qt,NA,3,NA,NA,NA,NA,NA,NA,NA,NA,NA,NA,NA,NA,NA,NA,NA,NA,NA,NA,NA
d8f0d,"""Falsch""-Screen",canvas.Screen,3_0_3_0_5_0_2,NA,NA,timeout,4996.772,899930.60000002,899929.028,899929.028,904909.1,904909.60000002,2024-04-06T20:35:01Z,904925.8,NULL,Verzögerung,kuchelewa,d,NA,NA,NA,NA,qt,0,3,NA,NA,NA,NA,NA,NA,NA,NA,NA,NA,NA,NA,NA,NA,NA,NA,NA,NA,NA
d8f0d,deep,flow.Sequence,3_0_3_0_5_0,NA,NA,completion,11576.6,893318.10000002,893316.1,893332.5,904909.1,904909.70000002,2024-04-06T20:35:01Z,904925.8,NULL,Verzögerung,kuchelewa,d,NA,NA,NA,NA,qt,NA,3,NA,NA,NA,NA,NA,NA,NA,NA,NA,NA,NA,NA,NA,NA,NA,NA,NA,NA,NA
d8f0d,shallow,flow.Sequence,3_0_3_0_5_1,NA,NA,skipped,NA,904909.80000000994,NA,NA,904909.1,904909.80000000994,2024-04-06T20:35:01Z,904925.8,NULL,Verzögerung,kuchelewa,d,NA,NA,NA,NA,qt,NA,3,NA,NA,NA,NA,NA,NA,NA,NA,NA,NA,NA,NA,NA,NA,NA,NA,NA,NA,NA
d8f0d,task,flow.Sequence,3_0_3_0_5,NA,NA,completion,11576.6,893318,893316.1,893332.5,904909.1,904909.90000001,2024-04-06T20:35:01Z,904925.8,NULL,Verzögerung,kuchelewa,d,NA,NA,NA,NA,qt,NA,3,NA,NA,NA,NA,NA,NA,NA,NA,NA,NA,NA,NA,NA,NA,NA,NA,NA,NA,NA
d8f0d,deep,flow.Sequence,3_0_3_0_6_0,NA,NA,skipped,NA,904909.90000001,NA,NA,904909.1,904910,2024-04-06T20:35:01Z,904925.8,NULL,Aufstand,ugomaji,s,mazidio,msingi,kujieleza,NA,qt,NA,3,NA,NA,NA,NA,NA,NA,NA,NA,NA,NA,NA,NA,NA,NA,NA,NA,NA,NA,NA
d8f0d,Shallow Question,html.Page,3_0_3_0_6_1_0,NA,NA,form submission,8812.2,904910.10000002,904909.1,904925.8,913738,913738.20000002,2024-04-06T20:35:10Z,913770.4,NULL,Aufstand,ugomaji,s,mazidio,msingi,kujieleza,ugomaji,NA,NA,3,NA,NA,NA,NA,NA,NA,NA,NA,NA,NA,NA,NA,NA,NA,NA,NA,NA,NA,NA
d8f0d,"""Richtig""-Screen",canvas.Screen,3_0_3_0_6_1_1,NA,NA,timeout,4997,913741.20000002,913753.6,913770.4,918750.3,918751.40000001,2024-04-06T20:35:15Z,918767.4,NULL,Aufstand,ugomaji,s,mazidio,msingi,kujieleza,NA,qt,1,3,NA,NA,NA,NA,NA,NA,NA,NA,NA,NA,NA,NA,NA,NA,NA,NA,NA,NA,NA
d8f0d,"""Falsch""-Screen",canvas.Screen,3_0_3_0_6_1_2,NA,NA,skipped,NA,918756.60000002,NA,NA,918750.3,918756.80000000994,2024-04-06T20:35:15Z,918767.4,NULL,Aufstand,ugomaji,s,mazidio,msingi,kujieleza,NA,qt,NA,3,NA,NA,NA,NA,NA,NA,NA,NA,NA,NA,NA,NA,NA,NA,NA,NA,NA,NA,NA
d8f0d,shallow,flow.Sequence,3_0_3_0_6_1,NA,NA,completion,13824.5,904910,904909.1,904925.8,918750.3,918756.80000000994,2024-04-06T20:35:15Z,918767.4,NULL,Aufstand,ugomaji,s,mazidio,msingi,kujieleza,NA,qt,NA,3,NA,NA,NA,NA,NA,NA,NA,NA,NA,NA,NA,NA,NA,NA,NA,NA,NA,NA,NA
d8f0d,task,flow.Sequence,3_0_3_0_6,NA,NA,completion,13824.5,904909.90000001,904909.1,904925.8,918750.3,918756.90000001,2024-04-06T20:35:15Z,918767.4,NULL,Aufstand,ugomaji,s,mazidio,msingi,kujieleza,NA,qt,NA,3,NA,NA,NA,NA,NA,NA,NA,NA,NA,NA,NA,NA,NA,NA,NA,NA,NA,NA,NA
d8f0d,Deep Question,html.Page,3_0_3_0_7_0_0,NA,NA,form submission,46615.300000018004,918757,918750.3,918767.4,965382.70000002,965382.90000001,2024-04-06T20:36:02Z,965388.1,NULL,Begegnung,kukutana,d,NA,NA,NA,hanibuli,NA,NA,3,NA,NA,NA,NA,NA,NA,NA,NA,NA,NA,NA,NA,NA,NA,NA,NA,NA,NA,NA
d8f0d,"""Richtig""-Screen",canvas.Screen,3_0_3_0_7_0_1,NA,NA,skipped,NA,965384.90000001,NA,NA,965382.70000002,965385.10000002,2024-04-06T20:36:02Z,965388.1,NULL,Begegnung,kukutana,d,NA,NA,NA,NA,qt,NA,3,NA,NA,NA,NA,NA,NA,NA,NA,NA,NA,NA,NA,NA,NA,NA,NA,NA,NA,NA
d8f0d,"""Falsch""-Screen",canvas.Screen,3_0_3_0_7_0_2,NA,NA,timeout,4997,965385.70000002,965372.058,965388.1,970368.9,970369.5,2024-04-06T20:36:07Z,970385.1,NULL,Begegnung,kukutana,d,NA,NA,NA,NA,qt,0,3,NA,NA,NA,NA,NA,NA,NA,NA,NA,NA,NA,NA,NA,NA,NA,NA,NA,NA,NA
d8f0d,deep,flow.Sequence,3_0_3_0_7_0,NA,NA,completion,51601.5,918757,918750.3,918767.4,970368.9,970369.60000002,2024-04-06T20:36:07Z,970385.1,NULL,Begegnung,kukutana,d,NA,NA,NA,NA,qt,NA,3,NA,NA,NA,NA,NA,NA,NA,NA,NA,NA,NA,NA,NA,NA,NA,NA,NA,NA,NA
d8f0d,shallow,flow.Sequence,3_0_3_0_7_1,NA,NA,skipped,NA,970369.70000002,NA,NA,970368.9,970369.70000002,2024-04-06T20:36:07Z,970385.1,NULL,Begegnung,kukutana,d,NA,NA,NA,NA,qt,NA,3,NA,NA,NA,NA,NA,NA,NA,NA,NA,NA,NA,NA,NA,NA,NA,NA,NA,NA,NA
d8f0d,task,flow.Sequence,3_0_3_0_7,NA,NA,completion,51601.5,918756.90000001,918750.3,918767.4,970368.9,970369.80000001,2024-04-06T20:36:07Z,970385.1,NULL,Begegnung,kukutana,d,NA,NA,NA,NA,qt,NA,3,NA,NA,NA,NA,NA,NA,NA,NA,NA,NA,NA,NA,NA,NA,NA,NA,NA,NA,NA
d8f0d,block,flow.Loop,3_0_3_0,NA,NA,completion,168778.398,801599.90000001,801590.502,801590.502,970368.9,970369.80000001,2024-04-06T20:36:07Z,970385.1,NULL,NA,NA,NA,NA,NA,NA,NA,qt,NA,3,NA,NA,NA,NA,NA,NA,NA,NA,NA,NA,NA,NA,NA,NA,NA,NA,NA,NA,NA
d8f0d,weiter,canvas.Screen,3_0_3_1,sdf,keypress(Space),response,1745.2000000119,970369.90000001,970368.9,970385.1,972130.30000001,972130.80000001,2024-04-06T20:36:08Z,972150.7,NULL,NA,NA,NA,NA,NA,NA,NA,qt,NA,3,NA,NA,NA,NA,NA,NA,NA,NA,NA,NA,NA,NA,NA,NA,NA,NA,NA,NA,NA
d8f0d,check continue,flow.Sequence,3_0_3,NA,NA,completion,170539.79800001,801599.90000001,801590.502,801590.502,972130.30000001,972131,2024-04-06T20:36:08Z,972150.7,NULL,NA,NA,NA,NA,NA,NA,NA,qt,NA,3,NA,NA,NA,NA,NA,NA,NA,NA,NA,NA,NA,NA,NA,NA,NA,NA,NA,NA,NA
d8f0d,Deep Question,html.Page,3_0_4_0_0_0_0,NA,NA,form submission,8181.700000006,972149.30000001,972135.164,972150.7,980332.40000001,980332.60000002,2024-04-06T20:36:17Z,980346.1,NULL,Kultur,utamaduni,d,NA,NA,NA,kukutana,NA,NA,4,NA,NA,NA,NA,NA,NA,NA,NA,NA,NA,NA,NA,NA,NA,NA,NA,NA,NA,NA
d8f0d,"""Richtig""-Screen",canvas.Screen,3_0_4_0_0_0_1,NA,NA,skipped,NA,980335.90000001,NA,NA,980332.40000001,980336,2024-04-06T20:36:17Z,980346.1,NULL,Kultur,utamaduni,d,NA,NA,NA,NA,sd,NA,4,NA,NA,NA,NA,NA,NA,NA,NA,NA,NA,NA,NA,NA,NA,NA,NA,NA,NA,NA
d8f0d,"""Falsch""-Screen",canvas.Screen,3_0_4_0_0_0_2,NA,NA,timeout,4996.6,980336.80000001,980329.562,980346.1,985326.1,985327.30000001,2024-04-06T20:36:22Z,985342.7,NULL,Kultur,utamaduni,d,NA,NA,NA,NA,sd,0,4,NA,NA,NA,NA,NA,NA,NA,NA,NA,NA,NA,NA,NA,NA,NA,NA,NA,NA,NA
d8f0d,deep,flow.Sequence,3_0_4_0_0_0,NA,NA,completion,13175.4,972149.30000001,972135.164,972150.7,985326.1,985327.5,2024-04-06T20:36:22Z,985342.7,NULL,Kultur,utamaduni,d,NA,NA,NA,NA,sd,NA,4,NA,NA,NA,NA,NA,NA,NA,NA,NA,NA,NA,NA,NA,NA,NA,NA,NA,NA,NA
d8f0d,shallow,flow.Sequence,3_0_4_0_0_1,NA,NA,skipped,NA,985327.60000002,NA,NA,985326.1,985327.70000002,2024-04-06T20:36:22Z,985342.7,NULL,Kultur,utamaduni,d,NA,NA,NA,NA,sd,NA,4,NA,NA,NA,NA,NA,NA,NA,NA,NA,NA,NA,NA,NA,NA,NA,NA,NA,NA,NA
d8f0d,task,flow.Sequence,3_0_4_0_0,NA,NA,completion,13175.4,972149.30000001,972135.164,972150.7,985326.1,985327.80000001,2024-04-06T20:36:22Z,985342.7,NULL,Kultur,utamaduni,d,NA,NA,NA,NA,sd,NA,4,NA,NA,NA,NA,NA,NA,NA,NA,NA,NA,NA,NA,NA,NA,NA,NA,NA,NA,NA
d8f0d,deep,flow.Sequence,3_0_4_0_1_0,NA,NA,skipped,NA,985327.90000001,NA,NA,985326.1,985328,2024-04-06T20:36:22Z,985342.7,NULL,Fleisch,mshakiki,s,kizunguzungu,mshikamano,angusho,NA,sd,NA,4,NA,NA,NA,NA,NA,NA,NA,NA,NA,NA,NA,NA,NA,NA,NA,NA,NA,NA,NA
d8f0d,Shallow Question,html.Page,3_0_4_0_1_1_0,NA,NA,form submission,8298.600000012,985328,985326.1,985342.7,993641.30000001,993641.60000002,2024-04-06T20:36:30Z,993654.3,NULL,Fleisch,mshakiki,s,kizunguzungu,mshikamano,angusho,mshakiki,NA,NA,4,NA,NA,NA,NA,NA,NA,NA,NA,NA,NA,NA,NA,NA,NA,NA,NA,NA,NA,NA
d8f0d,"""Richtig""-Screen",canvas.Screen,3_0_4_0_1_1_1,NA,NA,timeout,4996.8999999999,993644.70000002,993638.87,993654.3,998634.8,998636.10000002,2024-04-06T20:36:35Z,998651.2,NULL,Fleisch,mshakiki,s,kizunguzungu,mshikamano,angusho,NA,sd,1,4,NA,NA,NA,NA,NA,NA,NA,NA,NA,NA,NA,NA,NA,NA,NA,NA,NA,NA,NA
d8f0d,"""Falsch""-Screen",canvas.Screen,3_0_4_0_1_1_2,NA,NA,skipped,NA,998642.40000001,NA,NA,998634.8,998642.70000002,2024-04-06T20:36:35Z,998651.2,NULL,Fleisch,mshakiki,s,kizunguzungu,mshikamano,angusho,NA,sd,NA,4,NA,NA,NA,NA,NA,NA,NA,NA,NA,NA,NA,NA,NA,NA,NA,NA,NA,NA,NA
d8f0d,shallow,flow.Sequence,3_0_4_0_1_1,NA,NA,completion,13292.1,985328,985326.1,985342.7,998634.8,998643,2024-04-06T20:36:35Z,998651.2,NULL,Fleisch,mshakiki,s,kizunguzungu,mshikamano,angusho,NA,sd,NA,4,NA,NA,NA,NA,NA,NA,NA,NA,NA,NA,NA,NA,NA,NA,NA,NA,NA,NA,NA
d8f0d,task,flow.Sequence,3_0_4_0_1,NA,NA,completion,13292.1,985327.80000001,985326.1,985342.7,998634.8,998643.30000000994,2024-04-06T20:36:35Z,998651.2,NULL,Fleisch,mshakiki,s,kizunguzungu,mshikamano,angusho,NA,sd,NA,4,NA,NA,NA,NA,NA,NA,NA,NA,NA,NA,NA,NA,NA,NA,NA,NA,NA,NA,NA
d8f0d,Deep Question,html.Page,3_0_4_0_2_0_0,NA,NA,form submission,29552.700000006,998643.40000001,998634.8,998651.2,1028203.9,1028204.2,2024-04-06T20:37:05Z,1028233.4,NULL,Genehmigung,idhini,d,NA,NA,NA,mhalibu,NA,NA,4,NA,NA,NA,NA,NA,NA,NA,NA,NA,NA,NA,NA,NA,NA,NA,NA,NA,NA,NA
d8f0d,"""Richtig""-Screen",canvas.Screen,3_0_4_0_2_0_1,NA,NA,skipped,NA,1028207.3,NA,NA,1028203.9,1028207.5,2024-04-06T20:37:05Z,1028233.4,NULL,Genehmigung,idhini,d,NA,NA,NA,NA,sd,NA,4,NA,NA,NA,NA,NA,NA,NA,NA,NA,NA,NA,NA,NA,NA,NA,NA,NA,NA,NA
d8f0d,"""Falsch""-Screen",canvas.Screen,3_0_4_0_2_0_2,NA,NA,timeout,4996.9,1028208.1,1028217.178,1028233.4,1033213.6,1033214.1,2024-04-06T20:37:10Z,1033230.3,NULL,Genehmigung,idhini,d,NA,NA,NA,NA,sd,0,4,NA,NA,NA,NA,NA,NA,NA,NA,NA,NA,NA,NA,NA,NA,NA,NA,NA,NA,NA
d8f0d,deep,flow.Sequence,3_0_4_0_2_0,NA,NA,completion,34562.4,998643.30000000994,998634.8,998651.2,1033213.6,1033214.2,2024-04-06T20:37:10Z,1033230.3,NULL,Genehmigung,idhini,d,NA,NA,NA,NA,sd,NA,4,NA,NA,NA,NA,NA,NA,NA,NA,NA,NA,NA,NA,NA,NA,NA,NA,NA,NA,NA
d8f0d,shallow,flow.Sequence,3_0_4_0_2_1,NA,NA,skipped,NA,1033214.2,NA,NA,1033213.6,1033214.3,2024-04-06T20:37:10Z,1033230.3,NULL,Genehmigung,idhini,d,NA,NA,NA,NA,sd,NA,4,NA,NA,NA,NA,NA,NA,NA,NA,NA,NA,NA,NA,NA,NA,NA,NA,NA,NA,NA
d8f0d,task,flow.Sequence,3_0_4_0_2,NA,NA,completion,34562.4,998643.30000000994,998634.8,998651.2,1033213.6,1033214.3,2024-04-06T20:37:10Z,1033230.3,NULL,Genehmigung,idhini,d,NA,NA,NA,NA,sd,NA,4,NA,NA,NA,NA,NA,NA,NA,NA,NA,NA,NA,NA,NA,NA,NA,NA,NA,NA,NA
d8f0d,deep,flow.Sequence,3_0_4_0_3_0,NA,NA,skipped,NA,1033214.4,NA,NA,1033213.6,1033214.4,2024-04-06T20:37:10Z,1033230.3,NULL,Aufstand,ugomaji,s,mazidio,msingi,kujieleza,NA,sd,NA,4,NA,NA,NA,NA,NA,NA,NA,NA,NA,NA,NA,NA,NA,NA,NA,NA,NA,NA,NA
d8f0d,Shallow Question,html.Page,3_0_4_0_3_1_0,NA,NA,form submission,8693.2,1033214.6,1033213.6,1033230.3,1041923.5,1041923.7,2024-04-06T20:37:18Z,1041925.258,NULL,Aufstand,ugomaji,s,mazidio,msingi,kujieleza,ugomaji,NA,NA,4,NA,NA,NA,NA,NA,NA,NA,NA,NA,NA,NA,NA,NA,NA,NA,NA,NA,NA,NA
d8f0d,"""Richtig""-Screen",canvas.Screen,3_0_4_0_3_1_1,NA,NA,timeout,4996.4419999999,1041926.9,1041925.258,1041925.258,1046904.9,1046906.6,2024-04-06T20:37:23Z,1046921.7,NULL,Aufstand,ugomaji,s,mazidio,msingi,kujieleza,NA,sd,1,4,NA,NA,NA,NA,NA,NA,NA,NA,NA,NA,NA,NA,NA,NA,NA,NA,NA,NA,NA
d8f0d,"""Falsch""-Screen",canvas.Screen,3_0_4_0_3_1_2,NA,NA,skipped,NA,1046911.3,NA,NA,1046904.9,1046911.4,2024-04-06T20:37:23Z,1046921.7,NULL,Aufstand,ugomaji,s,mazidio,msingi,kujieleza,NA,sd,NA,4,NA,NA,NA,NA,NA,NA,NA,NA,NA,NA,NA,NA,NA,NA,NA,NA,NA,NA,NA
d8f0d,shallow,flow.Sequence,3_0_4_0_3_1,NA,NA,completion,13674.6,1033214.5,1033213.6,1033230.3,1046904.9,1046911.6,2024-04-06T20:37:23Z,1046921.7,NULL,Aufstand,ugomaji,s,mazidio,msingi,kujieleza,NA,sd,NA,4,NA,NA,NA,NA,NA,NA,NA,NA,NA,NA,NA,NA,NA,NA,NA,NA,NA,NA,NA
d8f0d,task,flow.Sequence,3_0_4_0_3,NA,NA,completion,13674.6,1033214.3,1033213.6,1033230.3,1046904.9,1046911.7,2024-04-06T20:37:23Z,1046921.7,NULL,Aufstand,ugomaji,s,mazidio,msingi,kujieleza,NA,sd,NA,4,NA,NA,NA,NA,NA,NA,NA,NA,NA,NA,NA,NA,NA,NA,NA,NA,NA,NA,NA
d8f0d,deep,flow.Sequence,3_0_4_0_4_0,NA,NA,skipped,NA,1046911.8,NA,NA,1046904.9,1046911.9,2024-04-06T20:37:23Z,1046921.7,NULL,Prüfung,mtihani,s,mkulima,mtizamo,ufumbuzi,NA,sd,NA,4,NA,NA,NA,NA,NA,NA,NA,NA,NA,NA,NA,NA,NA,NA,NA,NA,NA,NA,NA
d8f0d,Shallow Question,html.Page,3_0_4_0_4_1_0,NA,NA,form submission,11694.000000018,1046911.9,1046904.9,1046921.7,1058615.7,1058615.9,2024-04-06T20:37:35Z,1058631.6,NULL,Prüfung,mtihani,s,mkulima,mtizamo,ufumbuzi,mtihani,NA,NA,4,NA,NA,NA,NA,NA,NA,NA,NA,NA,NA,NA,NA,NA,NA,NA,NA,NA,NA,NA
d8f0d,"""Richtig""-Screen",canvas.Screen,3_0_4_0_4_1_1,NA,NA,timeout,4996.7,1058618.9,1058614.928,1058631.6,1063611.6,1063612.6,2024-04-06T20:37:40Z,1063628.3,NULL,Prüfung,mtihani,s,mkulima,mtizamo,ufumbuzi,NA,sd,1,4,NA,NA,NA,NA,NA,NA,NA,NA,NA,NA,NA,NA,NA,NA,NA,NA,NA,NA,NA
d8f0d,"""Falsch""-Screen",canvas.Screen,3_0_4_0_4_1_2,NA,NA,skipped,NA,1063617.4,NA,NA,1063611.6,1063617.6,2024-04-06T20:37:40Z,1063628.3,NULL,Prüfung,mtihani,s,mkulima,mtizamo,ufumbuzi,NA,sd,NA,4,NA,NA,NA,NA,NA,NA,NA,NA,NA,NA,NA,NA,NA,NA,NA,NA,NA,NA,NA
d8f0d,shallow,flow.Sequence,3_0_4_0_4_1,NA,NA,completion,16689.9,1046911.9,1046904.9,1046921.7,1063611.6,1063617.7,2024-04-06T20:37:40Z,1063628.3,NULL,Prüfung,mtihani,s,mkulima,mtizamo,ufumbuzi,NA,sd,NA,4,NA,NA,NA,NA,NA,NA,NA,NA,NA,NA,NA,NA,NA,NA,NA,NA,NA,NA,NA
d8f0d,task,flow.Sequence,3_0_4_0_4,NA,NA,completion,16689.9,1046911.7,1046904.9,1046921.7,1063611.6,1063617.8,2024-04-06T20:37:40Z,1063628.3,NULL,Prüfung,mtihani,s,mkulima,mtizamo,ufumbuzi,NA,sd,NA,4,NA,NA,NA,NA,NA,NA,NA,NA,NA,NA,NA,NA,NA,NA,NA,NA,NA,NA,NA
d8f0d,Deep Question,html.Page,3_0_4_0_5_0_0,NA,NA,form submission,5943.3000000238,1063617.9,1063611.6,1063628.3,1069571.6,1069571.8,2024-04-06T20:37:46Z,1069575.056,NULL,Begegnung,kukutana,d,NA,NA,NA,kukulava,NA,NA,4,NA,NA,NA,NA,NA,NA,NA,NA,NA,NA,NA,NA,NA,NA,NA,NA,NA,NA,NA
d8f0d,"""Richtig""-Screen",canvas.Screen,3_0_4_0_5_0_1,NA,NA,skipped,NA,1069574.9,NA,NA,1069571.6,1069575,2024-04-06T20:37:46Z,1069575.056,NULL,Begegnung,kukutana,d,NA,NA,NA,NA,sd,NA,4,NA,NA,NA,NA,NA,NA,NA,NA,NA,NA,NA,NA,NA,NA,NA,NA,NA,NA,NA
d8f0d,"""Falsch""-Screen",canvas.Screen,3_0_4_0_5_0_2,NA,NA,timeout,4996.7439999999,1069575.9,1069575.056,1069575.056,1074555,1074555.9,2024-04-06T20:37:51Z,1074571.8,NULL,Begegnung,kukutana,d,NA,NA,NA,NA,sd,0,4,NA,NA,NA,NA,NA,NA,NA,NA,NA,NA,NA,NA,NA,NA,NA,NA,NA,NA,NA
d8f0d,deep,flow.Sequence,3_0_4_0_5_0,NA,NA,completion,10926.7,1063617.9,1063611.6,1063628.3,1074555,1074556.2,2024-04-06T20:37:51Z,1074571.8,NULL,Begegnung,kukutana,d,NA,NA,NA,NA,sd,NA,4,NA,NA,NA,NA,NA,NA,NA,NA,NA,NA,NA,NA,NA,NA,NA,NA,NA,NA,NA
d8f0d,shallow,flow.Sequence,3_0_4_0_5_1,NA,NA,skipped,NA,1074556.3,NA,NA,1074555,1074556.5,2024-04-06T20:37:51Z,1074571.8,NULL,Begegnung,kukutana,d,NA,NA,NA,NA,sd,NA,4,NA,NA,NA,NA,NA,NA,NA,NA,NA,NA,NA,NA,NA,NA,NA,NA,NA,NA,NA
d8f0d,task,flow.Sequence,3_0_4_0_5,NA,NA,completion,10926.7,1063617.9,1063611.6,1063628.3,1074555,1074556.7,2024-04-06T20:37:51Z,1074571.8,NULL,Begegnung,kukutana,d,NA,NA,NA,NA,sd,NA,4,NA,NA,NA,NA,NA,NA,NA,NA,NA,NA,NA,NA,NA,NA,NA,NA,NA,NA,NA
d8f0d,Deep Question,html.Page,3_0_4_0_6_0_0,NA,NA,form submission,12053.7,1074556.9,1074555,1074571.8,1086625.5,1086625.8,2024-04-06T20:38:03Z,1086630.6,NULL,Verzögerung,kuchelewa,d,NA,NA,NA,kuchageza,NA,NA,4,NA,NA,NA,NA,NA,NA,NA,NA,NA,NA,NA,NA,NA,NA,NA,NA,NA,NA,NA
d8f0d,"""Richtig""-Screen",canvas.Screen,3_0_4_0_6_0_1,NA,NA,skipped,NA,1086628.9,NA,NA,1086625.5,1086629.1,2024-04-06T20:38:03Z,1086630.6,NULL,Verzögerung,kuchelewa,d,NA,NA,NA,NA,sd,NA,4,NA,NA,NA,NA,NA,NA,NA,NA,NA,NA,NA,NA,NA,NA,NA,NA,NA,NA,NA
d8f0d,"""Falsch""-Screen",canvas.Screen,3_0_4_0_6_0_2,NA,NA,timeout,4997.2,1086629.6,1086614.428,1086630.6,1091611.2,1091612.2,2024-04-06T20:38:08Z,1091627.8,NULL,Verzögerung,kuchelewa,d,NA,NA,NA,NA,sd,0,4,NA,NA,NA,NA,NA,NA,NA,NA,NA,NA,NA,NA,NA,NA,NA,NA,NA,NA,NA
d8f0d,deep,flow.Sequence,3_0_4_0_6_0,NA,NA,completion,17039.4,1074556.8,1074555,1074571.8,1091611.2,1091612.6,2024-04-06T20:38:08Z,1091627.8,NULL,Verzögerung,kuchelewa,d,NA,NA,NA,NA,sd,NA,4,NA,NA,NA,NA,NA,NA,NA,NA,NA,NA,NA,NA,NA,NA,NA,NA,NA,NA,NA
d8f0d,shallow,flow.Sequence,3_0_4_0_6_1,NA,NA,skipped,NA,1091612.8,NA,NA,1091611.2,1091612.9,2024-04-06T20:38:08Z,1091627.8,NULL,Verzögerung,kuchelewa,d,NA,NA,NA,NA,sd,NA,4,NA,NA,NA,NA,NA,NA,NA,NA,NA,NA,NA,NA,NA,NA,NA,NA,NA,NA,NA
d8f0d,task,flow.Sequence,3_0_4_0_6,NA,NA,completion,17039.4,1074556.8,1074555,1074571.8,1091611.2,1091613,2024-04-06T20:38:08Z,1091627.8,NULL,Verzögerung,kuchelewa,d,NA,NA,NA,NA,sd,NA,4,NA,NA,NA,NA,NA,NA,NA,NA,NA,NA,NA,NA,NA,NA,NA,NA,NA,NA,NA
d8f0d,deep,flow.Sequence,3_0_4_0_7_0,NA,NA,skipped,NA,1091613.2,NA,NA,1091611.2,1091613.3,2024-04-06T20:38:08Z,1091627.8,NULL,Integrität,uadilifu,s,muungano,mtiririko,upunguaji,NA,sd,NA,4,NA,NA,NA,NA,NA,NA,NA,NA,NA,NA,NA,NA,NA,NA,NA,NA,NA,NA,NA
d8f0d,Shallow Question,html.Page,3_0_4_0_7_1_0,NA,NA,form submission,9329.2,1091613.5,1091611.2,1091627.8,1100957,1100957.2,2024-04-06T20:38:17Z,1100972.1,NULL,Integrität,uadilifu,s,muungano,mtiririko,upunguaji,uadilifu,NA,NA,4,NA,NA,NA,NA,NA,NA,NA,NA,NA,NA,NA,NA,NA,NA,NA,NA,NA,NA,NA
d8f0d,"""Richtig""-Screen",canvas.Screen,3_0_4_0_7_1_1,NA,NA,timeout,4996.5999999999,1100960.3,1100955.558,1100972.1,1105952.3,1105953.3,2024-04-06T20:38:22Z,1105968.7,NULL,Integrität,uadilifu,s,muungano,mtiririko,upunguaji,NA,sd,1,4,NA,NA,NA,NA,NA,NA,NA,NA,NA,NA,NA,NA,NA,NA,NA,NA,NA,NA,NA
d8f0d,"""Falsch""-Screen",canvas.Screen,3_0_4_0_7_1_2,NA,NA,skipped,NA,1105958.4,NA,NA,1105952.3,1105958.7,2024-04-06T20:38:22Z,1105968.7,NULL,Integrität,uadilifu,s,muungano,mtiririko,upunguaji,NA,sd,NA,4,NA,NA,NA,NA,NA,NA,NA,NA,NA,NA,NA,NA,NA,NA,NA,NA,NA,NA,NA
d8f0d,shallow,flow.Sequence,3_0_4_0_7_1,NA,NA,completion,14324.5,1091613.4,1091611.2,1091627.8,1105952.3,1105958.9,2024-04-06T20:38:22Z,1105968.7,NULL,Integrität,uadilifu,s,muungano,mtiririko,upunguaji,NA,sd,NA,4,NA,NA,NA,NA,NA,NA,NA,NA,NA,NA,NA,NA,NA,NA,NA,NA,NA,NA,NA
d8f0d,task,flow.Sequence,3_0_4_0_7,NA,NA,completion,14324.5,1091613.2,1091611.2,1091627.8,1105952.3,1105958.9,2024-04-06T20:38:22Z,1105968.7,NULL,Integrität,uadilifu,s,muungano,mtiririko,upunguaji,NA,sd,NA,4,NA,NA,NA,NA,NA,NA,NA,NA,NA,NA,NA,NA,NA,NA,NA,NA,NA,NA,NA
d8f0d,block,flow.Loop,3_0_4_0,NA,NA,completion,133801.6,972149,972135.164,972150.7,1105952.3,1105958.9,2024-04-06T20:38:22Z,1105968.7,NULL,NA,NA,NA,NA,NA,NA,NA,sd,NA,4,NA,NA,NA,NA,NA,NA,NA,NA,NA,NA,NA,NA,NA,NA,NA,NA,NA,NA,NA
d8f0d,weiter,canvas.Screen,3_0_4_1,sdf,keypress(Space),response,1625.8,1105958.9,1105952.3,1105968.7,1107594.5,1107595.9,2024-04-06T20:38:24Z,1107618.196,NULL,NA,NA,NA,NA,NA,NA,NA,sd,NA,4,NA,NA,NA,NA,NA,NA,NA,NA,NA,NA,NA,NA,NA,NA,NA,NA,NA,NA,NA
d8f0d,check continue,flow.Sequence,3_0_4,NA,NA,completion,135443.8,972149,972135.164,972150.7,1107594.5,1107596.3,2024-04-06T20:38:24Z,1107618.196,NULL,NA,NA,NA,NA,NA,NA,NA,sd,NA,4,NA,NA,NA,NA,NA,NA,NA,NA,NA,NA,NA,NA,NA,NA,NA,NA,NA,NA,NA
d8f0d,Deep Question,html.Page,3_0_5_0_0_0_0,NA,NA,form submission,9927.704000006,1107625.3,1107618.196,1107618.196,1117545.9,1117546,2024-04-06T20:38:34Z,1117561.9,NULL,Kultur,utamaduni,d,NA,NA,NA,mdhani,NA,NA,5,NA,NA,NA,NA,NA,NA,NA,NA,NA,NA,NA,NA,NA,NA,NA,NA,NA,NA,NA
d8f0d,"""Richtig""-Screen",canvas.Screen,3_0_5_0_0_0_1,NA,NA,skipped,NA,1117547.4,NA,NA,1117545.9,1117547.5,2024-04-06T20:38:34Z,1117561.9,NULL,Kultur,utamaduni,d,NA,NA,NA,NA,sdf,NA,5,NA,NA,NA,NA,NA,NA,NA,NA,NA,NA,NA,NA,NA,NA,NA,NA,NA,NA,NA
d8f0d,"""Falsch""-Screen",canvas.Screen,3_0_5_0_0_0_2,NA,NA,timeout,4996.8,1117547.8,1117545.69,1117561.9,1122542,1122543.1,2024-04-06T20:38:39Z,1122558.7,NULL,Kultur,utamaduni,d,NA,NA,NA,NA,sdf,0,5,NA,NA,NA,NA,NA,NA,NA,NA,NA,NA,NA,NA,NA,NA,NA,NA,NA,NA,NA
d8f0d,deep,flow.Sequence,3_0_5_0_0_0,NA,NA,completion,14923.804,1107625.3,1107618.196,1107618.196,1122542,1122543.5,2024-04-06T20:38:39Z,1122558.7,NULL,Kultur,utamaduni,d,NA,NA,NA,NA,sdf,NA,5,NA,NA,NA,NA,NA,NA,NA,NA,NA,NA,NA,NA,NA,NA,NA,NA,NA,NA,NA
d8f0d,shallow,flow.Sequence,3_0_5_0_0_1,NA,NA,skipped,NA,1122543.7,NA,NA,1122542,1122543.8,2024-04-06T20:38:39Z,1122558.7,NULL,Kultur,utamaduni,d,NA,NA,NA,NA,sdf,NA,5,NA,NA,NA,NA,NA,NA,NA,NA,NA,NA,NA,NA,NA,NA,NA,NA,NA,NA,NA
d8f0d,task,flow.Sequence,3_0_5_0_0,NA,NA,completion,14923.804,1107625.3,1107618.196,1107618.196,1122542,1122544.1,2024-04-06T20:38:39Z,1122558.7,NULL,Kultur,utamaduni,d,NA,NA,NA,NA,sdf,NA,5,NA,NA,NA,NA,NA,NA,NA,NA,NA,NA,NA,NA,NA,NA,NA,NA,NA,NA,NA
d8f0d,Deep Question,html.Page,3_0_5_0_1_0_0,NA,NA,form submission,12288.3,1122544.3,1122542,1122558.7,1134847,1134847.3,2024-04-06T20:38:51Z,1134851.596,NULL,Verzögerung,kuchelewa,d,NA,NA,NA,mhadini,NA,NA,5,NA,NA,NA,NA,NA,NA,NA,NA,NA,NA,NA,NA,NA,NA,NA,NA,NA,NA,NA
d8f0d,"""Richtig""-Screen",canvas.Screen,3_0_5_0_1_0_1,NA,NA,skipped,NA,1134850.4,NA,NA,1134847,1134850.5,2024-04-06T20:38:51Z,1134851.596,NULL,Verzögerung,kuchelewa,d,NA,NA,NA,NA,sdf,NA,5,NA,NA,NA,NA,NA,NA,NA,NA,NA,NA,NA,NA,NA,NA,NA,NA,NA,NA,NA
d8f0d,"""Falsch""-Screen",canvas.Screen,3_0_5_0_1_0_2,NA,NA,timeout,4996.9040000001,1134851.3,1134851.596,1134851.596,1139831.5,1139832.4,2024-04-06T20:38:56Z,1139848.5,NULL,Verzögerung,kuchelewa,d,NA,NA,NA,NA,sdf,0,5,NA,NA,NA,NA,NA,NA,NA,NA,NA,NA,NA,NA,NA,NA,NA,NA,NA,NA,NA
d8f0d,deep,flow.Sequence,3_0_5_0_1_0,NA,NA,completion,17272.8,1122544.3,1122542,1122558.7,1139831.5,1139832.8,2024-04-06T20:38:56Z,1139848.5,NULL,Verzögerung,kuchelewa,d,NA,NA,NA,NA,sdf,NA,5,NA,NA,NA,NA,NA,NA,NA,NA,NA,NA,NA,NA,NA,NA,NA,NA,NA,NA,NA
d8f0d,shallow,flow.Sequence,3_0_5_0_1_1,NA,NA,skipped,NA,1139833,NA,NA,1139831.5,1139833.1,2024-04-06T20:38:56Z,1139848.5,NULL,Verzögerung,kuchelewa,d,NA,NA,NA,NA,sdf,NA,5,NA,NA,NA,NA,NA,NA,NA,NA,NA,NA,NA,NA,NA,NA,NA,NA,NA,NA,NA
d8f0d,task,flow.Sequence,3_0_5_0_1,NA,NA,completion,17272.8,1122544.2,1122542,1122558.7,1139831.5,1139833.2,2024-04-06T20:38:56Z,1139848.5,NULL,Verzögerung,kuchelewa,d,NA,NA,NA,NA,sdf,NA,5,NA,NA,NA,NA,NA,NA,NA,NA,NA,NA,NA,NA,NA,NA,NA,NA,NA,NA,NA
d8f0d,deep,flow.Sequence,3_0_5_0_2_0,NA,NA,skipped,NA,1139833.4,NA,NA,1139831.5,1139833.5,2024-04-06T20:38:56Z,1139848.5,NULL,Prüfung,mtihani,s,mkulima,mtizamo,ufumbuzi,NA,sdf,NA,5,NA,NA,NA,NA,NA,NA,NA,NA,NA,NA,NA,NA,NA,NA,NA,NA,NA,NA,NA
d8f0d,Shallow Question,html.Page,3_0_5_0_2_1_0,NA,NA,form submission,5462.6000000238,1139833.7,1139831.5,1139848.5,1145311.1,1145311.3,2024-04-06T20:39:02Z,1145329.5,NULL,Prüfung,mtihani,s,mkulima,mtizamo,ufumbuzi,mtihani,NA,NA,5,NA,NA,NA,NA,NA,NA,NA,NA,NA,NA,NA,NA,NA,NA,NA,NA,NA,NA,NA
d8f0d,"""Richtig""-Screen",canvas.Screen,3_0_5_0_2_1_1,NA,NA,timeout,4995.8,1145314.3,1145311.856,1145329.5,1150308.7,1150309.7,2024-04-06T20:39:07Z,1150325.3,NULL,Prüfung,mtihani,s,mkulima,mtizamo,ufumbuzi,NA,sdf,1,5,NA,NA,NA,NA,NA,NA,NA,NA,NA,NA,NA,NA,NA,NA,NA,NA,NA,NA,NA
d8f0d,"""Falsch""-Screen",canvas.Screen,3_0_5_0_2_1_2,NA,NA,skipped,NA,1150315,NA,NA,1150308.7,1150315.1,2024-04-06T20:39:07Z,1150325.3,NULL,Prüfung,mtihani,s,mkulima,mtizamo,ufumbuzi,NA,sdf,NA,5,NA,NA,NA,NA,NA,NA,NA,NA,NA,NA,NA,NA,NA,NA,NA,NA,NA,NA,NA
d8f0d,shallow,flow.Sequence,3_0_5_0_2_1,NA,NA,completion,10460.2,1139833.6,1139831.5,1139848.5,1150308.7,1150315.2,2024-04-06T20:39:07Z,1150325.3,NULL,Prüfung,mtihani,s,mkulima,mtizamo,ufumbuzi,NA,sdf,NA,5,NA,NA,NA,NA,NA,NA,NA,NA,NA,NA,NA,NA,NA,NA,NA,NA,NA,NA,NA
d8f0d,task,flow.Sequence,3_0_5_0_2,NA,NA,completion,10460.2,1139833.4,1139831.5,1139848.5,1150308.7,1150315.3,2024-04-06T20:39:07Z,1150325.3,NULL,Prüfung,mtihani,s,mkulima,mtizamo,ufumbuzi,NA,sdf,NA,5,NA,NA,NA,NA,NA,NA,NA,NA,NA,NA,NA,NA,NA,NA,NA,NA,NA,NA,NA
d8f0d,Deep Question,html.Page,3_0_5_0_3_0_0,NA,NA,form submission,14884.400000018,1150315.3,1150308.7,1150325.3,1165209.7,1165210.1,2024-04-06T20:39:22Z,1165215.7,NULL,Genehmigung,idhini,d,NA,NA,NA,mhnaigu,NA,NA,5,NA,NA,NA,NA,NA,NA,NA,NA,NA,NA,NA,NA,NA,NA,NA,NA,NA,NA,NA
d8f0d,"""Richtig""-Screen",canvas.Screen,3_0_5_0_3_0_1,NA,NA,skipped,NA,1165213.2,NA,NA,1165209.7,1165213.3,2024-04-06T20:39:22Z,1165215.7,NULL,Genehmigung,idhini,d,NA,NA,NA,NA,sdf,NA,5,NA,NA,NA,NA,NA,NA,NA,NA,NA,NA,NA,NA,NA,NA,NA,NA,NA,NA,NA
d8f0d,"""Falsch""-Screen",canvas.Screen,3_0_5_0_3_0_2,NA,NA,timeout,4997.3,1165214.3,1165199.688,1165215.7,1170196.4,1170197.4,2024-04-06T20:39:27Z,1170213,NULL,Genehmigung,idhini,d,NA,NA,NA,NA,sdf,0,5,NA,NA,NA,NA,NA,NA,NA,NA,NA,NA,NA,NA,NA,NA,NA,NA,NA,NA,NA
d8f0d,deep,flow.Sequence,3_0_5_0_3_0,NA,NA,completion,19871.1,1150315.3,1150308.7,1150325.3,1170196.4,1170197.8,2024-04-06T20:39:27Z,1170213,NULL,Genehmigung,idhini,d,NA,NA,NA,NA,sdf,NA,5,NA,NA,NA,NA,NA,NA,NA,NA,NA,NA,NA,NA,NA,NA,NA,NA,NA,NA,NA
d8f0d,shallow,flow.Sequence,3_0_5_0_3_1,NA,NA,skipped,NA,1170198,NA,NA,1170196.4,1170198.1,2024-04-06T20:39:27Z,1170213,NULL,Genehmigung,idhini,d,NA,NA,NA,NA,sdf,NA,5,NA,NA,NA,NA,NA,NA,NA,NA,NA,NA,NA,NA,NA,NA,NA,NA,NA,NA,NA
d8f0d,task,flow.Sequence,3_0_5_0_3,NA,NA,completion,19871.1,1150315.3,1150308.7,1150325.3,1170196.4,1170198.3,2024-04-06T20:39:27Z,1170213,NULL,Genehmigung,idhini,d,NA,NA,NA,NA,sdf,NA,5,NA,NA,NA,NA,NA,NA,NA,NA,NA,NA,NA,NA,NA,NA,NA,NA,NA,NA,NA
d8f0d,Deep Question,html.Page,3_0_5_0_4_0_0,NA,NA,form submission,12300.5,1170198.5,1170196.4,1170213,1182513.5,1182513.7,2024-04-06T20:39:39Z,1182522,NULL,Begegnung,kukutana,d,NA,NA,NA,kukuleva,NA,NA,5,NA,NA,NA,NA,NA,NA,NA,NA,NA,NA,NA,NA,NA,NA,NA,NA,NA,NA,NA
d8f0d,"""Richtig""-Screen",canvas.Screen,3_0_5_0_4_0_1,NA,NA,skipped,NA,1182516.8,NA,NA,1182513.5,1182516.9,2024-04-06T20:39:39Z,1182522,NULL,Begegnung,kukutana,d,NA,NA,NA,NA,sdf,NA,5,NA,NA,NA,NA,NA,NA,NA,NA,NA,NA,NA,NA,NA,NA,NA,NA,NA,NA,NA
d8f0d,"""Falsch""-Screen",canvas.Screen,3_0_5_0_4_0_2,NA,NA,timeout,4997.3,1182517.3,1182505.842,1182522,1187502.4,1187503.6,2024-04-06T20:39:44Z,1187519.3,NULL,Begegnung,kukutana,d,NA,NA,NA,NA,sdf,0,5,NA,NA,NA,NA,NA,NA,NA,NA,NA,NA,NA,NA,NA,NA,NA,NA,NA,NA,NA
d8f0d,deep,flow.Sequence,3_0_5_0_4_0,NA,NA,completion,17289.4,1170198.5,1170196.4,1170213,1187502.4,1187504,2024-04-06T20:39:44Z,1187519.3,NULL,Begegnung,kukutana,d,NA,NA,NA,NA,sdf,NA,5,NA,NA,NA,NA,NA,NA,NA,NA,NA,NA,NA,NA,NA,NA,NA,NA,NA,NA,NA
d8f0d,shallow,flow.Sequence,3_0_5_0_4_1,NA,NA,skipped,NA,1187504.2,NA,NA,1187502.4,1187504.3,2024-04-06T20:39:44Z,1187519.3,NULL,Begegnung,kukutana,d,NA,NA,NA,NA,sdf,NA,5,NA,NA,NA,NA,NA,NA,NA,NA,NA,NA,NA,NA,NA,NA,NA,NA,NA,NA,NA
d8f0d,task,flow.Sequence,3_0_5_0_4,NA,NA,completion,17289.4,1170198.4,1170196.4,1170213,1187502.4,1187504.5,2024-04-06T20:39:44Z,1187519.3,NULL,Begegnung,kukutana,d,NA,NA,NA,NA,sdf,NA,5,NA,NA,NA,NA,NA,NA,NA,NA,NA,NA,NA,NA,NA,NA,NA,NA,NA,NA,NA
d8f0d,deep,flow.Sequence,3_0_5_0_5_0,NA,NA,skipped,NA,1187504.6,NA,NA,1187502.4,1187504.8,2024-04-06T20:39:44Z,1187519.3,NULL,Integrität,uadilifu,s,muungano,mtiririko,upunguaji,NA,sdf,NA,5,NA,NA,NA,NA,NA,NA,NA,NA,NA,NA,NA,NA,NA,NA,NA,NA,NA,NA,NA
d8f0d,Shallow Question,html.Page,3_0_5_0_5_1_0,NA,NA,form submission,8780.3000000238,1187504.9,1187502.4,1187519.3,1196299.6,1196299.8,2024-04-06T20:39:53Z,1196313.4,NULL,Integrität,uadilifu,s,muungano,mtiririko,upunguaji,uadilifu,NA,NA,5,NA,NA,NA,NA,NA,NA,NA,NA,NA,NA,NA,NA,NA,NA,NA,NA,NA,NA,NA
d8f0d,"""Richtig""-Screen",canvas.Screen,3_0_5_0_5_1_1,NA,NA,timeout,4997.5,1196302.8,1196297.392,1196313.4,1201294,1201295.1,2024-04-06T20:39:58Z,1201310.9,NULL,Integrität,uadilifu,s,muungano,mtiririko,upunguaji,NA,sdf,1,5,NA,NA,NA,NA,NA,NA,NA,NA,NA,NA,NA,NA,NA,NA,NA,NA,NA,NA,NA
d8f0d,"""Falsch""-Screen",canvas.Screen,3_0_5_0_5_1_2,NA,NA,skipped,NA,1201300.3,NA,NA,1201294,1201300.3,2024-04-06T20:39:58Z,1201310.9,NULL,Integrität,uadilifu,s,muungano,mtiririko,upunguaji,NA,sdf,NA,5,NA,NA,NA,NA,NA,NA,NA,NA,NA,NA,NA,NA,NA,NA,NA,NA,NA,NA,NA
d8f0d,shallow,flow.Sequence,3_0_5_0_5_1,NA,NA,completion,13774.7,1187504.9,1187502.4,1187519.3,1201294,1201300.5,2024-04-06T20:39:58Z,1201310.9,NULL,Integrität,uadilifu,s,muungano,mtiririko,upunguaji,NA,sdf,NA,5,NA,NA,NA,NA,NA,NA,NA,NA,NA,NA,NA,NA,NA,NA,NA,NA,NA,NA,NA
d8f0d,task,flow.Sequence,3_0_5_0_5,NA,NA,completion,13774.7,1187504.6,1187502.4,1187519.3,1201294,1201300.6,2024-04-06T20:39:58Z,1201310.9,NULL,Integrität,uadilifu,s,muungano,mtiririko,upunguaji,NA,sdf,NA,5,NA,NA,NA,NA,NA,NA,NA,NA,NA,NA,NA,NA,NA,NA,NA,NA,NA,NA,NA
d8f0d,deep,flow.Sequence,3_0_5_0_6_0,NA,NA,skipped,NA,1201300.6,NA,NA,1201294,1201300.6,2024-04-06T20:39:58Z,1201310.9,NULL,Fleisch,mshakiki,s,kizunguzungu,mshikamano,angusho,NA,sdf,NA,5,NA,NA,NA,NA,NA,NA,NA,NA,NA,NA,NA,NA,NA,NA,NA,NA,NA,NA,NA
d8f0d,Shallow Question,html.Page,3_0_5_0_6_1_0,NA,NA,form submission,5786.0000000061,1201300.6,1201294,1201310.9,1207096.9,1207097.2,2024-04-06T20:40:03Z,1207106.8,NULL,Fleisch,mshakiki,s,kizunguzungu,mshikamano,angusho,mshakiki,NA,NA,5,NA,NA,NA,NA,NA,NA,NA,NA,NA,NA,NA,NA,NA,NA,NA,NA,NA,NA,NA
d8f0d,"""Richtig""-Screen",canvas.Screen,3_0_5_0_6_1_1,NA,NA,timeout,4997.2,1207100,1207090.716,1207106.8,1212087.4,1212088.3,2024-04-06T20:40:08Z,1212104,NULL,Fleisch,mshakiki,s,kizunguzungu,mshikamano,angusho,NA,sdf,1,5,NA,NA,NA,NA,NA,NA,NA,NA,NA,NA,NA,NA,NA,NA,NA,NA,NA,NA,NA
d8f0d,"""Falsch""-Screen",canvas.Screen,3_0_5_0_6_1_2,NA,NA,skipped,NA,1212093.1,NA,NA,1212087.4,1212093.1,2024-04-06T20:40:08Z,1212104,NULL,Fleisch,mshakiki,s,kizunguzungu,mshikamano,angusho,NA,sdf,NA,5,NA,NA,NA,NA,NA,NA,NA,NA,NA,NA,NA,NA,NA,NA,NA,NA,NA,NA,NA
d8f0d,shallow,flow.Sequence,3_0_5_0_6_1,NA,NA,completion,10776.5,1201300.6,1201294,1201310.9,1212087.4,1212093.3,2024-04-06T20:40:08Z,1212104,NULL,Fleisch,mshakiki,s,kizunguzungu,mshikamano,angusho,NA,sdf,NA,5,NA,NA,NA,NA,NA,NA,NA,NA,NA,NA,NA,NA,NA,NA,NA,NA,NA,NA,NA
d8f0d,task,flow.Sequence,3_0_5_0_6,NA,NA,completion,10776.5,1201300.6,1201294,1201310.9,1212087.4,1212093.4,2024-04-06T20:40:08Z,1212104,NULL,Fleisch,mshakiki,s,kizunguzungu,mshikamano,angusho,NA,sdf,NA,5,NA,NA,NA,NA,NA,NA,NA,NA,NA,NA,NA,NA,NA,NA,NA,NA,NA,NA,NA
d8f0d,deep,flow.Sequence,3_0_5_0_7_0,NA,NA,skipped,NA,1212093.4,NA,NA,1212087.4,1212093.4,2024-04-06T20:40:08Z,1212104,NULL,Aufstand,ugomaji,s,mazidio,msingi,kujieleza,NA,sdf,NA,5,NA,NA,NA,NA,NA,NA,NA,NA,NA,NA,NA,NA,NA,NA,NA,NA,NA,NA,NA
d8f0d,Shallow Question,html.Page,3_0_5_0_7_1_0,NA,NA,form submission,7677,1212093.4,1212087.4,1212104,1219781,1219781.2,2024-04-06T20:40:16Z,1219783.02,NULL,Aufstand,ugomaji,s,mazidio,msingi,kujieleza,kujieleza,NA,NA,5,NA,NA,NA,NA,NA,NA,NA,NA,NA,NA,NA,NA,NA,NA,NA,NA,NA,NA,NA
d8f0d,"""Richtig""-Screen",canvas.Screen,3_0_5_0_7_1_1,NA,NA,skipped,NA,1219784.3,NA,NA,1219781,1219784.4,2024-04-06T20:40:16Z,1219783.02,NULL,Aufstand,ugomaji,s,mazidio,msingi,kujieleza,NA,sdf,NA,5,NA,NA,NA,NA,NA,NA,NA,NA,NA,NA,NA,NA,NA,NA,NA,NA,NA,NA,NA
d8f0d,"""Falsch""-Screen",canvas.Screen,3_0_5_0_7_1_2,NA,NA,timeout,4996.6799999999,1219785.2,1219783.02,1219783.02,1224762.8,1224763.7,2024-04-06T20:40:21Z,1224779.7,NULL,Aufstand,ugomaji,s,mazidio,msingi,kujieleza,NA,sdf,0,5,NA,NA,NA,NA,NA,NA,NA,NA,NA,NA,NA,NA,NA,NA,NA,NA,NA,NA,NA
d8f0d,shallow,flow.Sequence,3_0_5_0_7_1,NA,NA,completion,12658.8,1212093.4,1212087.4,1212104,1224762.8,1224764.1,2024-04-06T20:40:21Z,1224779.7,NULL,Aufstand,ugomaji,s,mazidio,msingi,kujieleza,NA,sdf,NA,5,NA,NA,NA,NA,NA,NA,NA,NA,NA,NA,NA,NA,NA,NA,NA,NA,NA,NA,NA
d8f0d,task,flow.Sequence,3_0_5_0_7,NA,NA,completion,12658.8,1212093.4,1212087.4,1212104,1224762.8,1224764.2,2024-04-06T20:40:21Z,1224779.7,NULL,Aufstand,ugomaji,s,mazidio,msingi,kujieleza,NA,sdf,NA,5,NA,NA,NA,NA,NA,NA,NA,NA,NA,NA,NA,NA,NA,NA,NA,NA,NA,NA,NA
d8f0d,block,flow.Loop,3_0_5_0,NA,NA,completion,117144.604,1107625.3,1107618.196,1107618.196,1224762.8,1224764.4,2024-04-06T20:40:21Z,1224779.7,NULL,NA,NA,NA,NA,NA,NA,NA,sdf,NA,5,NA,NA,NA,NA,NA,NA,NA,NA,NA,NA,NA,NA,NA,NA,NA,NA,NA,NA,NA
d8f0d,weiter,canvas.Screen,3_0_5_1,sdf,keypress(Space),response,1630.600000012,1224764.6,1224762.8,1224779.7,1226410.3,1226410.7,2024-04-06T20:40:23Z,1226429.016,NULL,NA,NA,NA,NA,NA,NA,NA,sdf,NA,5,NA,NA,NA,NA,NA,NA,NA,NA,NA,NA,NA,NA,NA,NA,NA,NA,NA,NA,NA
d8f0d,check continue,flow.Sequence,3_0_5,NA,NA,completion,118792.10400001,1107625.3,1107618.196,1107618.196,1226410.3,1226410.8,2024-04-06T20:40:23Z,1226429.016,NULL,NA,NA,NA,NA,NA,NA,NA,sdf,NA,5,NA,NA,NA,NA,NA,NA,NA,NA,NA,NA,NA,NA,NA,NA,NA,NA,NA,NA,NA
d8f0d,Deep Question,html.Page,3_0_6_0_0_0_0,NA,NA,form submission,22799.884000006,1226435.3,1226429.016,1226429.016,1249228.9,1249229.2,2024-04-06T20:40:46Z,1249231.614,NULL,Begegnung,kukutana,d,NA,NA,NA,kukulena,NA,NA,6,NA,NA,NA,NA,NA,NA,NA,NA,NA,NA,NA,NA,NA,NA,NA,NA,NA,NA,NA
d8f0d,"""Richtig""-Screen",canvas.Screen,3_0_6_0_0_0_1,NA,NA,skipped,NA,1249230.9,NA,NA,1249228.9,1249231.1,2024-04-06T20:40:46Z,1249231.614,NULL,Begegnung,kukutana,d,NA,NA,NA,NA,dfs,NA,6,NA,NA,NA,NA,NA,NA,NA,NA,NA,NA,NA,NA,NA,NA,NA,NA,NA,NA,NA
d8f0d,"""Falsch""-Screen",canvas.Screen,3_0_6_0_0_0_2,NA,NA,timeout,4996.686,1249231.7,1249231.614,1249231.614,1254211.3,1254213,2024-04-06T20:40:51Z,1254228.3,NULL,Begegnung,kukutana,d,NA,NA,NA,NA,dfs,0,6,NA,NA,NA,NA,NA,NA,NA,NA,NA,NA,NA,NA,NA,NA,NA,NA,NA,NA,NA
d8f0d,deep,flow.Sequence,3_0_6_0_0_0,NA,NA,completion,27782.284,1226435.3,1226429.016,1226429.016,1254211.3,1254213.4,2024-04-06T20:40:51Z,1254228.3,NULL,Begegnung,kukutana,d,NA,NA,NA,NA,dfs,NA,6,NA,NA,NA,NA,NA,NA,NA,NA,NA,NA,NA,NA,NA,NA,NA,NA,NA,NA,NA
d8f0d,shallow,flow.Sequence,3_0_6_0_0_1,NA,NA,skipped,NA,1254213.6,NA,NA,1254211.3,1254213.8,2024-04-06T20:40:51Z,1254228.3,NULL,Begegnung,kukutana,d,NA,NA,NA,NA,dfs,NA,6,NA,NA,NA,NA,NA,NA,NA,NA,NA,NA,NA,NA,NA,NA,NA,NA,NA,NA,NA
d8f0d,task,flow.Sequence,3_0_6_0_0,NA,NA,completion,27782.284,1226435.3,1226429.016,1226429.016,1254211.3,1254214,2024-04-06T20:40:51Z,1254228.3,NULL,Begegnung,kukutana,d,NA,NA,NA,NA,dfs,NA,6,NA,NA,NA,NA,NA,NA,NA,NA,NA,NA,NA,NA,NA,NA,NA,NA,NA,NA,NA
d8f0d,deep,flow.Sequence,3_0_6_0_1_0,NA,NA,skipped,NA,1254214.2,NA,NA,1254211.3,1254214.3,2024-04-06T20:40:51Z,1254228.3,NULL,Integrität,uadilifu,s,muungano,mtiririko,upunguaji,NA,dfs,NA,6,NA,NA,NA,NA,NA,NA,NA,NA,NA,NA,NA,NA,NA,NA,NA,NA,NA,NA,NA
d8f0d,Shallow Question,html.Page,3_0_6_0_1_1_0,NA,NA,form submission,40281.800000024,1254214.6,1254211.3,1254228.3,1294510.1,1294510.2,2024-04-06T20:41:31Z,1294520,NULL,Integrität,uadilifu,s,muungano,mtiririko,upunguaji,uadilifu,NA,NA,6,NA,NA,NA,NA,NA,NA,NA,NA,NA,NA,NA,NA,NA,NA,NA,NA,NA,NA,NA
d8f0d,"""Richtig""-Screen",canvas.Screen,3_0_6_0_1_1_1,NA,NA,timeout,4997.2,1294511.9,1294503.808,1294520,1299500.3,1299501.1,2024-04-06T20:41:36Z,1299517.2,NULL,Integrität,uadilifu,s,muungano,mtiririko,upunguaji,NA,dfs,1,6,NA,NA,NA,NA,NA,NA,NA,NA,NA,NA,NA,NA,NA,NA,NA,NA,NA,NA,NA
d8f0d,"""Falsch""-Screen",canvas.Screen,3_0_6_0_1_1_2,NA,NA,skipped,NA,1299505.9,NA,NA,1299500.3,1299506.1,2024-04-06T20:41:36Z,1299517.2,NULL,Integrität,uadilifu,s,muungano,mtiririko,upunguaji,NA,dfs,NA,6,NA,NA,NA,NA,NA,NA,NA,NA,NA,NA,NA,NA,NA,NA,NA,NA,NA,NA,NA
d8f0d,shallow,flow.Sequence,3_0_6_0_1_1,NA,NA,completion,45272,1254214.5,1254211.3,1254228.3,1299500.3,1299506.4,2024-04-06T20:41:36Z,1299517.2,NULL,Integrität,uadilifu,s,muungano,mtiririko,upunguaji,NA,dfs,NA,6,NA,NA,NA,NA,NA,NA,NA,NA,NA,NA,NA,NA,NA,NA,NA,NA,NA,NA,NA
d8f0d,task,flow.Sequence,3_0_6_0_1,NA,NA,completion,45272,1254214.1,1254211.3,1254228.3,1299500.3,1299506.4,2024-04-06T20:41:36Z,1299517.2,NULL,Integrität,uadilifu,s,muungano,mtiririko,upunguaji,NA,dfs,NA,6,NA,NA,NA,NA,NA,NA,NA,NA,NA,NA,NA,NA,NA,NA,NA,NA,NA,NA,NA
d8f0d,Deep Question,html.Page,3_0_6_0_2_0_0,NA,NA,form submission,9722.4000000239,1299506.4,1299500.3,1299517.2,1309239.6,1309239.8,2024-04-06T20:41:46Z,1309244.1,NULL,Verzögerung,kuchelewa,d,NA,NA,NA,mshani,NA,NA,6,NA,NA,NA,NA,NA,NA,NA,NA,NA,NA,NA,NA,NA,NA,NA,NA,NA,NA,NA
d8f0d,"""Richtig""-Screen",canvas.Screen,3_0_6_0_2_0_1,NA,NA,skipped,NA,1309241.4,NA,NA,1309239.6,1309241.5,2024-04-06T20:41:46Z,1309244.1,NULL,Verzögerung,kuchelewa,d,NA,NA,NA,NA,dfs,NA,6,NA,NA,NA,NA,NA,NA,NA,NA,NA,NA,NA,NA,NA,NA,NA,NA,NA,NA,NA
d8f0d,"""Falsch""-Screen",canvas.Screen,3_0_6_0_2_0_2,NA,NA,timeout,4997.3999999999,1309241.9,1309228.028,1309244.1,1314224.8,1314225.9,2024-04-06T20:41:51Z,1314241.5,NULL,Verzögerung,kuchelewa,d,NA,NA,NA,NA,dfs,0,6,NA,NA,NA,NA,NA,NA,NA,NA,NA,NA,NA,NA,NA,NA,NA,NA,NA,NA,NA
d8f0d,deep,flow.Sequence,3_0_6_0_2_0,NA,NA,completion,14707.6,1299506.4,1299500.3,1299517.2,1314224.8,1314226.4,2024-04-06T20:41:51Z,1314241.5,NULL,Verzögerung,kuchelewa,d,NA,NA,NA,NA,dfs,NA,6,NA,NA,NA,NA,NA,NA,NA,NA,NA,NA,NA,NA,NA,NA,NA,NA,NA,NA,NA
d8f0d,shallow,flow.Sequence,3_0_6_0_2_1,NA,NA,skipped,NA,1314226.6,NA,NA,1314224.8,1314226.8,2024-04-06T20:41:51Z,1314241.5,NULL,Verzögerung,kuchelewa,d,NA,NA,NA,NA,dfs,NA,6,NA,NA,NA,NA,NA,NA,NA,NA,NA,NA,NA,NA,NA,NA,NA,NA,NA,NA,NA
d8f0d,task,flow.Sequence,3_0_6_0_2,NA,NA,completion,14707.6,1299506.4,1299500.3,1299517.2,1314224.8,1314227.1,2024-04-06T20:41:51Z,1314241.5,NULL,Verzögerung,kuchelewa,d,NA,NA,NA,NA,dfs,NA,6,NA,NA,NA,NA,NA,NA,NA,NA,NA,NA,NA,NA,NA,NA,NA,NA,NA,NA,NA
d8f0d,Deep Question,html.Page,3_0_6_0_3_0_0,NA,NA,form submission,19591.900000006,1314227.3,1314224.8,1314241.5,1333833.4,1333833.6,2024-04-06T20:42:10Z,1333846.1,NULL,Genehmigung,idhini,d,NA,NA,NA,mshanibu,NA,NA,6,NA,NA,NA,NA,NA,NA,NA,NA,NA,NA,NA,NA,NA,NA,NA,NA,NA,NA,NA
d8f0d,"""Richtig""-Screen",canvas.Screen,3_0_6_0_3_0_1,NA,NA,skipped,NA,1333836.9,NA,NA,1333833.4,1333837.1,2024-04-06T20:42:10Z,1333846.1,NULL,Genehmigung,idhini,d,NA,NA,NA,NA,dfs,NA,6,NA,NA,NA,NA,NA,NA,NA,NA,NA,NA,NA,NA,NA,NA,NA,NA,NA,NA,NA
d8f0d,"""Falsch""-Screen",canvas.Screen,3_0_6_0_3_0_2,NA,NA,timeout,4997,1333837.5,1333829.624,1333846.1,1338826.3,1338827.3,2024-04-06T20:42:15Z,1338843.1,NULL,Genehmigung,idhini,d,NA,NA,NA,NA,dfs,0,6,NA,NA,NA,NA,NA,NA,NA,NA,NA,NA,NA,NA,NA,NA,NA,NA,NA,NA,NA
d8f0d,deep,flow.Sequence,3_0_6_0_3_0,NA,NA,completion,24584.8,1314227.3,1314224.8,1314241.5,1338826.3,1338827.8,2024-04-06T20:42:15Z,1338843.1,NULL,Genehmigung,idhini,d,NA,NA,NA,NA,dfs,NA,6,NA,NA,NA,NA,NA,NA,NA,NA,NA,NA,NA,NA,NA,NA,NA,NA,NA,NA,NA
d8f0d,shallow,flow.Sequence,3_0_6_0_3_1,NA,NA,skipped,NA,1338827.9,NA,NA,1338826.3,1338828.1,2024-04-06T20:42:15Z,1338843.1,NULL,Genehmigung,idhini,d,NA,NA,NA,NA,dfs,NA,6,NA,NA,NA,NA,NA,NA,NA,NA,NA,NA,NA,NA,NA,NA,NA,NA,NA,NA,NA
d8f0d,task,flow.Sequence,3_0_6_0_3,NA,NA,completion,24584.8,1314227.2,1314224.8,1314241.5,1338826.3,1338828.2,2024-04-06T20:42:15Z,1338843.1,NULL,Genehmigung,idhini,d,NA,NA,NA,NA,dfs,NA,6,NA,NA,NA,NA,NA,NA,NA,NA,NA,NA,NA,NA,NA,NA,NA,NA,NA,NA,NA
d8f0d,deep,flow.Sequence,3_0_6_0_4_0,NA,NA,skipped,NA,1338828.5,NA,NA,1338826.3,1338828.6,2024-04-06T20:42:15Z,1338843.1,NULL,Prüfung,mtihani,s,mkulima,mtizamo,ufumbuzi,NA,dfs,NA,6,NA,NA,NA,NA,NA,NA,NA,NA,NA,NA,NA,NA,NA,NA,NA,NA,NA,NA,NA
