observation,sender,sender_type,sender_id,response,response_action,ended_on,duration,time_run,time_render,time_show,time_end,time_commit,timestamp,time_switch,german,swahili,enc,distractor1,distractor2,distractor3,response_2,x,correct,distractors,url_vp,url_sess,meta_labjs_version,meta_location,meta_user_agent,meta_platform,meta_language,meta_locale,meta_time_zone,meta_timezone_offset,meta_screen_width,meta_screen_height,meta_scroll_width,meta_scroll_height,meta_window_inner_width,meta_window_inner_height,meta_device_pixel_ratio,meta_labjs_build_flavor,meta_labjs_build_commit
26719,Introduction delayed retrieval,canvas.Screen,0,weiter,keypress(Space),response,27190.599999994,1822.1999999881,1839.922,1856.5,29047.099999994,29051.5,2024-02-29T21:41:00Z,29059.8,NA,NA,NA,NA,NA,NA,NA,NA,NA,NULL,142,2,20.2.4,https://neurocog.fernuni.ch/studies/vweber/aberisha/delayed/index.html?vp=142&sess=2,"Mozilla/5.0 (Windows NT 10.0; Win64; x64) AppleWebKit/537.36 (KHTML, like Gecko) Chrome/122.0.0.0 Safari/537.36 Edg/122.0.0.0",Win32,de,de-CH,Europe/Zurich,-60,1852,1235,2405,1391,2405,1439,1.3125,production,f5b4a49f956347addd546a832a3327688c2c0fef
26719,Deep Question,html.Page,1_0_0_0,NA,NA,form submission,36237.2,29052.699999988,29043.2,29059.8,65297,65297.199999988,2024-02-29T21:41:36Z,65317.6,Symbol,kielezo,d,kinyume,nderemo,utayari,kieleni,NA,NA,NULL,NA,NA,NA,NA,NA,NA,NA,NA,NA,NA,NA,NA,NA,NA,NA,NA,NA,NA,NA
26719,Save data screen,canvas.Screen,1_0_0_1,NA,NA,timeout,494.50000000001,65298.099999994,65312.3,65317.6,65795.5,65797.699999988,2024-02-29T21:41:36Z,65812.1,Symbol,kielezo,d,kinyume,nderemo,utayari,NA,NA,0,NULL,NA,NA,NA,NA,NA,NA,NA,NA,NA,NA,NA,NA,NA,NA,NA,NA,NA,NA,NA
26719,deep,flow.Sequence,1_0_0,NA,NA,completion,36735.7,29052.599999994,29043.2,29059.8,65795.5,65798.299999982,2024-02-29T21:41:36Z,65812.1,Symbol,kielezo,d,kinyume,nderemo,utayari,NA,NA,NA,NULL,NA,NA,NA,NA,NA,NA,NA,NA,NA,NA,NA,NA,NA,NA,NA,NA,NA,NA,NA
26719,task,flow.Sequence,1_0,NA,NA,completion,36735.7,29052.5,29043.2,29059.8,65795.5,65798.699999988,2024-02-29T21:41:36Z,65812.1,Symbol,kielezo,d,kinyume,nderemo,utayari,NA,NA,NA,NULL,NA,NA,NA,NA,NA,NA,NA,NA,NA,NA,NA,NA,NA,NA,NA,NA,NA,NA,NA
26719,Deep Question,html.Page,1_1_0_0,NA,NA,form submission,11662.999999994,65799.099999994,65795.5,65812.1,77475.099999994,77475.5,2024-02-29T21:41:48Z,77496.1,Wettbewerb,ushindani,s,mapendezi,kichocheo,ubaguzi,ushindani,NA,NA,NULL,NA,NA,NA,NA,NA,NA,NA,NA,NA,NA,NA,NA,NA,NA,NA,NA,NA,NA,NA
26719,Save data screen,canvas.Screen,1_1_0_1,NA,NA,timeout,500.29999999999,77477.900000006,77489.026,77496.1,77979.7,77981.799999982,2024-02-29T21:41:49Z,77996.4,Wettbewerb,ushindani,s,mapendezi,kichocheo,ubaguzi,NA,NA,1,NULL,NA,NA,NA,NA,NA,NA,NA,NA,NA,NA,NA,NA,NA,NA,NA,NA,NA,NA,NA
26719,deep,flow.Sequence,1_1_0,NA,NA,completion,12167.6,65798.900000006,65795.5,65812.1,77979.7,77982.400000006,2024-02-29T21:41:49Z,77996.4,Wettbewerb,ushindani,s,mapendezi,kichocheo,ubaguzi,NA,NA,NA,NULL,NA,NA,NA,NA,NA,NA,NA,NA,NA,NA,NA,NA,NA,NA,NA,NA,NA,NA,NA
26719,task,flow.Sequence,1_1,NA,NA,completion,12167.6,65798.799999982,65795.5,65812.1,77979.7,77982.900000006,2024-02-29T21:41:49Z,77996.4,Wettbewerb,ushindani,s,mapendezi,kichocheo,ubaguzi,NA,NA,NA,NULL,NA,NA,NA,NA,NA,NA,NA,NA,NA,NA,NA,NA,NA,NA,NA,NA,NA,NA,NA
26719,Deep Question,html.Page,1_2_0_0,NA,NA,form submission,27117.699999994,77983.299999982,77979.7,77996.4,105114.09999999,105114.29999998,2024-02-29T21:42:16Z,105138.9,Zuwachs,nyongeza,d,matilaba,udhibiti,hudhurio,mawachsi,NA,NA,NULL,NA,NA,NA,NA,NA,NA,NA,NA,NA,NA,NA,NA,NA,NA,NA,NA,NA,NA,NA
26719,Save data screen,canvas.Screen,1_2_0_1,NA,NA,timeout,492.8,105116.59999999,105120.426,105138.9,105614.9,105616.79999998,2024-02-29T21:42:16Z,105631.7,Zuwachs,nyongeza,d,matilaba,udhibiti,hudhurio,NA,NA,0,NULL,NA,NA,NA,NA,NA,NA,NA,NA,NA,NA,NA,NA,NA,NA,NA,NA,NA,NA,NA
26719,deep,flow.Sequence,1_2_0,NA,NA,completion,27618.5,77983.299999982,77979.7,77996.4,105614.9,105617.40000001,2024-02-29T21:42:16Z,105631.7,Zuwachs,nyongeza,d,matilaba,udhibiti,hudhurio,NA,NA,NA,NULL,NA,NA,NA,NA,NA,NA,NA,NA,NA,NA,NA,NA,NA,NA,NA,NA,NA,NA,NA
26719,task,flow.Sequence,1_2,NA,NA,completion,27618.5,77983.099999994,77979.7,77996.4,105614.9,105617.69999999,2024-02-29T21:42:16Z,105631.7,Zuwachs,nyongeza,d,matilaba,udhibiti,hudhurio,NA,NA,NA,NULL,NA,NA,NA,NA,NA,NA,NA,NA,NA,NA,NA,NA,NA,NA,NA,NA,NA,NA,NA
26719,Deep Question,html.Page,1_3_0_0,NA,NA,form submission,14403.200000006,105618,105614.9,105631.7,120034.90000001,120035.09999999,2024-02-29T21:42:31Z,120066.428,Ausschluss,kutengwa,s,ununuzi,taratibu,madeni,wasibu,NA,NA,NULL,NA,NA,NA,NA,NA,NA,NA,NA,NA,NA,NA,NA,NA,NA,NA,NA,NA,NA,NA
26719,Save data screen,canvas.Screen,1_3_0_1,NA,NA,timeout,499.872,120037.90000001,120066.428,120066.428,120549.6,120551.79999998,2024-02-29T21:42:31Z,120566.3,Ausschluss,kutengwa,s,ununuzi,taratibu,madeni,NA,NA,0,NULL,NA,NA,NA,NA,NA,NA,NA,NA,NA,NA,NA,NA,NA,NA,NA,NA,NA,NA,NA
26719,deep,flow.Sequence,1_3_0,NA,NA,completion,14917.9,105618,105614.9,105631.7,120549.6,120552.29999998,2024-02-29T21:42:31Z,120566.3,Ausschluss,kutengwa,s,ununuzi,taratibu,madeni,NA,NA,NA,NULL,NA,NA,NA,NA,NA,NA,NA,NA,NA,NA,NA,NA,NA,NA,NA,NA,NA,NA,NA
26719,task,flow.Sequence,1_3,NA,NA,completion,14917.9,105617.79999998,105614.9,105631.7,120549.6,120552.59999999,2024-02-29T21:42:31Z,120566.3,Ausschluss,kutengwa,s,ununuzi,taratibu,madeni,NA,NA,NA,NULL,NA,NA,NA,NA,NA,NA,NA,NA,NA,NA,NA,NA,NA,NA,NA,NA,NA,NA,NA
26719,Deep Question,html.Page,1_4_0_0,NA,NA,form submission,31606.499999982,120552.90000001,120549.6,120566.3,152172.79999998,152173,2024-02-29T21:43:03Z,152199,Konkurrent,mshindani,s,msemaji,mvutaji,kipukusa,mshindani,NA,NA,NULL,NA,NA,NA,NA,NA,NA,NA,NA,NA,NA,NA,NA,NA,NA,NA,NA,NA,NA,NA
26719,Save data screen,canvas.Screen,1_4_0_1,NA,NA,timeout,503.5,152175.79999998,152189.892,152199,152685.9,152687.59999999,2024-02-29T21:43:03Z,152702.5,Konkurrent,mshindani,s,msemaji,mvutaji,kipukusa,NA,NA,1,NULL,NA,NA,NA,NA,NA,NA,NA,NA,NA,NA,NA,NA,NA,NA,NA,NA,NA,NA,NA
26719,deep,flow.Sequence,1_4_0,NA,NA,completion,32119.6,120552.90000001,120549.6,120566.3,152685.9,152687.69999999,2024-02-29T21:43:03Z,152702.5,Konkurrent,mshindani,s,msemaji,mvutaji,kipukusa,NA,NA,NA,NULL,NA,NA,NA,NA,NA,NA,NA,NA,NA,NA,NA,NA,NA,NA,NA,NA,NA,NA,NA
26719,task,flow.Sequence,1_4,NA,NA,completion,32119.6,120552.69999999,120549.6,120566.3,152685.9,152687.90000001,2024-02-29T21:43:03Z,152702.5,Konkurrent,mshindani,s,msemaji,mvutaji,kipukusa,NA,NA,NA,NULL,NA,NA,NA,NA,NA,NA,NA,NA,NA,NA,NA,NA,NA,NA,NA,NA,NA,NA,NA
26719,Deep Question,html.Page,1_5_0_0,NA,NA,form submission,42341.799999982,152688,152685.9,152702.5,195044.29999998,195044.5,2024-02-29T21:43:46Z,195065.4,Schönheit,kirembo,d,mahojiano,msisimko,jitihadi,kijambo,NA,NA,NULL,NA,NA,NA,NA,NA,NA,NA,NA,NA,NA,NA,NA,NA,NA,NA,NA,NA,NA,NA
26719,Save data screen,canvas.Screen,1_5_0_1,NA,NA,timeout,507.39999999999,195046.5,195055.818,195065.4,195556.2,195557.69999999,2024-02-29T21:43:46Z,195572.8,Schönheit,kirembo,d,mahojiano,msisimko,jitihadi,NA,NA,0,NULL,NA,NA,NA,NA,NA,NA,NA,NA,NA,NA,NA,NA,NA,NA,NA,NA,NA,NA,NA
26719,deep,flow.Sequence,1_5_0,NA,NA,completion,42853.7,152688,152685.9,152702.5,195556.2,195557.90000001,2024-02-29T21:43:46Z,195572.8,Schönheit,kirembo,d,mahojiano,msisimko,jitihadi,NA,NA,NA,NULL,NA,NA,NA,NA,NA,NA,NA,NA,NA,NA,NA,NA,NA,NA,NA,NA,NA,NA,NA
26719,task,flow.Sequence,1_5,NA,NA,completion,42853.7,152688,152685.9,152702.5,195556.2,195557.90000001,2024-02-29T21:43:46Z,195572.8,Schönheit,kirembo,d,mahojiano,msisimko,jitihadi,NA,NA,NA,NULL,NA,NA,NA,NA,NA,NA,NA,NA,NA,NA,NA,NA,NA,NA,NA,NA,NA,NA,NA
26719,Deep Question,html.Page,1_6_0_0,NA,NA,form submission,13513.299999994,195558,195556.2,195572.8,209086.09999999,209086.29999998,2024-02-29T21:44:00Z,209123.5,Zufall,kikuti,d,kukosekana,uchoraji,leseni,kaliku,NA,NA,NULL,NA,NA,NA,NA,NA,NA,NA,NA,NA,NA,NA,NA,NA,NA,NA,NA,NA,NA,NA
26719,Save data screen,canvas.Screen,1_6_0_1,NA,NA,timeout,500.29999999999,209088.90000001,209108.396,209123.5,209607,209608.5,2024-02-29T21:44:00Z,209623.8,Zufall,kikuti,d,kukosekana,uchoraji,leseni,NA,NA,0,NULL,NA,NA,NA,NA,NA,NA,NA,NA,NA,NA,NA,NA,NA,NA,NA,NA,NA,NA,NA
26719,deep,flow.Sequence,1_6_0,NA,NA,completion,14034.2,195558,195556.2,195572.8,209607,209608.69999999,2024-02-29T21:44:00Z,209623.8,Zufall,kikuti,d,kukosekana,uchoraji,leseni,NA,NA,NA,NULL,NA,NA,NA,NA,NA,NA,NA,NA,NA,NA,NA,NA,NA,NA,NA,NA,NA,NA,NA
26719,task,flow.Sequence,1_6,NA,NA,completion,14034.2,195557.90000001,195556.2,195572.8,209607,209608.79999998,2024-02-29T21:44:00Z,209623.8,Zufall,kikuti,d,kukosekana,uchoraji,leseni,NA,NA,NA,NULL,NA,NA,NA,NA,NA,NA,NA,NA,NA,NA,NA,NA,NA,NA,NA,NA,NA,NA,NA
26719,Deep Question,html.Page,1_7_0_0,NA,NA,form submission,7707.9999999821,209608.90000001,209607,209623.8,217331.79999998,217332.09999999,2024-02-29T21:44:08Z,217350.09,Gelegenheit,wakati,s,mchanganyiko,kipaumbele,kushuku,wakati,NA,NA,NULL,NA,NA,NA,NA,NA,NA,NA,NA,NA,NA,NA,NA,NA,NA,NA,NA,NA,NA,NA
26719,Save data screen,canvas.Screen,1_7_0_1,NA,NA,timeout,507.81,217334.29999998,217350.09,217350.09,217841.1,217842.29999998,2024-02-29T21:44:08Z,217857.9,Gelegenheit,wakati,s,mchanganyiko,kipaumbele,kushuku,NA,NA,1,NULL,NA,NA,NA,NA,NA,NA,NA,NA,NA,NA,NA,NA,NA,NA,NA,NA,NA,NA,NA
26719,deep,flow.Sequence,1_7_0,NA,NA,completion,8217.3,209608.79999998,209607,209623.8,217841.1,217842.40000001,2024-02-29T21:44:08Z,217857.9,Gelegenheit,wakati,s,mchanganyiko,kipaumbele,kushuku,NA,NA,NA,NULL,NA,NA,NA,NA,NA,NA,NA,NA,NA,NA,NA,NA,NA,NA,NA,NA,NA,NA,NA
26719,task,flow.Sequence,1_7,NA,NA,completion,8217.3,209608.79999998,209607,209623.8,217841.1,217842.5,2024-02-29T21:44:08Z,217857.9,Gelegenheit,wakati,s,mchanganyiko,kipaumbele,kushuku,NA,NA,NA,NULL,NA,NA,NA,NA,NA,NA,NA,NA,NA,NA,NA,NA,NA,NA,NA,NA,NA,NA,NA
26719,Deep Question,html.Page,1_8_0_0,NA,NA,form submission,23805.500000006,217842.59999999,217841.1,217857.9,241663.40000001,241663.69999999,2024-02-29T21:44:32Z,241678.9,Annäherung,maegesho,d,madahili,kujiamini,mapendekezo,maegesho,NA,NA,NULL,NA,NA,NA,NA,NA,NA,NA,NA,NA,NA,NA,NA,NA,NA,NA,NA,NA,NA,NA
26719,Save data screen,canvas.Screen,1_8_0_1,NA,NA,timeout,497.5,241666.69999999,241674.96,241678.9,242159.7,242162,2024-02-29T21:44:33Z,242176.4,Annäherung,maegesho,d,madahili,kujiamini,mapendekezo,NA,NA,1,NULL,NA,NA,NA,NA,NA,NA,NA,NA,NA,NA,NA,NA,NA,NA,NA,NA,NA,NA,NA
26719,deep,flow.Sequence,1_8_0,NA,NA,completion,24301.8,217842.59999999,217841.1,217857.9,242159.7,242162.40000001,2024-02-29T21:44:33Z,242176.4,Annäherung,maegesho,d,madahili,kujiamini,mapendekezo,NA,NA,NA,NULL,NA,NA,NA,NA,NA,NA,NA,NA,NA,NA,NA,NA,NA,NA,NA,NA,NA,NA,NA
26719,task,flow.Sequence,1_8,NA,NA,completion,24301.8,217842.59999999,217841.1,217857.9,242159.7,242162.69999999,2024-02-29T21:44:33Z,242176.4,Annäherung,maegesho,d,madahili,kujiamini,mapendekezo,NA,NA,NA,NULL,NA,NA,NA,NA,NA,NA,NA,NA,NA,NA,NA,NA,NA,NA,NA,NA,NA,NA,NA
26719,Deep Question,html.Page,1_9_0_0,NA,NA,form submission,65072.6,242163,242159.7,242176.4,307249,307249.19999999,2024-02-29T21:45:38Z,307266.5,Vorsorge,tahadhari,s,ufafanuzi,makini,mashambani,hanihad,NA,NA,NULL,NA,NA,NA,NA,NA,NA,NA,NA,NA,NA,NA,NA,NA,NA,NA,NA,NA,NA,NA
26719,Save data screen,canvas.Screen,1_9_0_1,NA,NA,timeout,498.90000000002,307251.19999999,307253.226,307266.5,307748.5,307749.5,2024-02-29T21:45:38Z,307765.4,Vorsorge,tahadhari,s,ufafanuzi,makini,mashambani,NA,NA,0,NULL,NA,NA,NA,NA,NA,NA,NA,NA,NA,NA,NA,NA,NA,NA,NA,NA,NA,NA,NA
26719,deep,flow.Sequence,1_9_0,NA,NA,completion,65572.1,242163,242159.7,242176.4,307748.5,307749.69999999,2024-02-29T21:45:38Z,307765.4,Vorsorge,tahadhari,s,ufafanuzi,makini,mashambani,NA,NA,NA,NULL,NA,NA,NA,NA,NA,NA,NA,NA,NA,NA,NA,NA,NA,NA,NA,NA,NA,NA,NA
26719,task,flow.Sequence,1_9,NA,NA,completion,65572.1,242162.79999998,242159.7,242176.4,307748.5,307749.79999998,2024-02-29T21:45:38Z,307765.4,Vorsorge,tahadhari,s,ufafanuzi,makini,mashambani,NA,NA,NA,NULL,NA,NA,NA,NA,NA,NA,NA,NA,NA,NA,NA,NA,NA,NA,NA,NA,NA,NA,NA
26719,Deep Question,html.Page,1_10_0_0,NA,NA,form submission,28323.299999988,307750,307748.5,307765.4,336088.69999999,336088.90000001,2024-02-29T21:46:07Z,336104.592,Polizist,msongora,s,simanzi,mandhari,nidhamu,msoligu,NA,NA,NULL,NA,NA,NA,NA,NA,NA,NA,NA,NA,NA,NA,NA,NA,NA,NA,NA,NA,NA,NA
26719,Save data screen,canvas.Screen,1_10_0_1,NA,NA,timeout,496.20799999998,336090.59999999,336104.592,336104.592,336584.1,336585.69999999,2024-02-29T21:46:07Z,336600.8,Polizist,msongora,s,simanzi,mandhari,nidhamu,NA,NA,0,NULL,NA,NA,NA,NA,NA,NA,NA,NA,NA,NA,NA,NA,NA,NA,NA,NA,NA,NA,NA
26719,deep,flow.Sequence,1_10_0,NA,NA,completion,28818.7,307749.90000001,307748.5,307765.4,336584.1,336586.09999999,2024-02-29T21:46:07Z,336600.8,Polizist,msongora,s,simanzi,mandhari,nidhamu,NA,NA,NA,NULL,NA,NA,NA,NA,NA,NA,NA,NA,NA,NA,NA,NA,NA,NA,NA,NA,NA,NA,NA
26719,task,flow.Sequence,1_10,NA,NA,completion,28818.7,307749.79999998,307748.5,307765.4,336584.1,336586.40000001,2024-02-29T21:46:07Z,336600.8,Polizist,msongora,s,simanzi,mandhari,nidhamu,NA,NA,NA,NULL,NA,NA,NA,NA,NA,NA,NA,NA,NA,NA,NA,NA,NA,NA,NA,NA,NA,NA,NA
26719,Deep Question,html.Page,1_11_0_0,NA,NA,form submission,27427.799999994,336586.69999999,336584.1,336600.8,364028.59999999,364028.79999998,2024-02-29T21:46:35Z,364046.762,Sympathie,mapendano,d,dhamiria,fungamano,maazimio,mapendano,NA,NA,NULL,NA,NA,NA,NA,NA,NA,NA,NA,NA,NA,NA,NA,NA,NA,NA,NA,NA,NA,NA
26719,Save data screen,canvas.Screen,1_11_0_1,NA,NA,timeout,506.43800000002,364031.19999999,364046.762,364046.762,364536.6,364539.59999999,2024-02-29T21:46:35Z,364553.2,Sympathie,mapendano,d,dhamiria,fungamano,maazimio,NA,NA,1,NULL,NA,NA,NA,NA,NA,NA,NA,NA,NA,NA,NA,NA,NA,NA,NA,NA,NA,NA,NA
26719,deep,flow.Sequence,1_11_0,NA,NA,completion,27935.8,336586.59999999,336584.1,336600.8,364536.6,364539.90000001,2024-02-29T21:46:35Z,364553.2,Sympathie,mapendano,d,dhamiria,fungamano,maazimio,NA,NA,NA,NULL,NA,NA,NA,NA,NA,NA,NA,NA,NA,NA,NA,NA,NA,NA,NA,NA,NA,NA,NA
26719,task,flow.Sequence,1_11,NA,NA,completion,27935.8,336586.5,336584.1,336600.8,364536.6,364540.29999998,2024-02-29T21:46:35Z,364553.2,Sympathie,mapendano,d,dhamiria,fungamano,maazimio,NA,NA,NA,NULL,NA,NA,NA,NA,NA,NA,NA,NA,NA,NA,NA,NA,NA,NA,NA,NA,NA,NA,NA
26719,Deep Question,html.Page,1_12_0_0,NA,NA,form submission,15477.399999994,364540.5,364536.6,364553.2,380030.59999999,380030.79999998,2024-02-29T21:46:51Z,380054.594,Widerstand,usulubu,d,kusababisha,mwalimu,mwenendo,usulubu,NA,NA,NULL,NA,NA,NA,NA,NA,NA,NA,NA,NA,NA,NA,NA,NA,NA,NA,NA,NA,NA,NA
26719,Save data screen,canvas.Screen,1_12_0_1,NA,NA,timeout,492.00599999999,380033.59999999,380054.594,380054.594,380529.9,380532.29999998,2024-02-29T21:46:51Z,380546.6,Widerstand,usulubu,d,kusababisha,mwalimu,mwenendo,NA,NA,1,NULL,NA,NA,NA,NA,NA,NA,NA,NA,NA,NA,NA,NA,NA,NA,NA,NA,NA,NA,NA
26719,deep,flow.Sequence,1_12_0,NA,NA,completion,15976.7,364540.40000001,364536.6,364553.2,380529.9,380532.69999999,2024-02-29T21:46:51Z,380546.6,Widerstand,usulubu,d,kusababisha,mwalimu,mwenendo,NA,NA,NA,NULL,NA,NA,NA,NA,NA,NA,NA,NA,NA,NA,NA,NA,NA,NA,NA,NA,NA,NA,NA
26719,task,flow.Sequence,1_12,NA,NA,completion,15976.7,364540.40000001,364536.6,364553.2,380529.9,380533,2024-02-29T21:46:51Z,380546.6,Widerstand,usulubu,d,kusababisha,mwalimu,mwenendo,NA,NA,NA,NULL,NA,NA,NA,NA,NA,NA,NA,NA,NA,NA,NA,NA,NA,NA,NA,NA,NA,NA,NA
26719,Deep Question,html.Page,1_13_0_0,NA,NA,form submission,16731.9,380533.40000001,380529.9,380546.6,397278.5,397278.59999999,2024-02-29T21:47:08Z,397291.996,Verstand,ufahamivu,d,shakawa,hadhari,mhandisi,malinafu,NA,NA,NULL,NA,NA,NA,NA,NA,NA,NA,NA,NA,NA,NA,NA,NA,NA,NA,NA,NA,NA,NA
26719,Save data screen,canvas.Screen,1_13_0_1,NA,NA,timeout,497.40400000004,397280.90000001,397291.996,397291.996,397772.7,397773.90000001,2024-02-29T21:47:08Z,397789.4,Verstand,ufahamivu,d,shakawa,hadhari,mhandisi,NA,NA,0,NULL,NA,NA,NA,NA,NA,NA,NA,NA,NA,NA,NA,NA,NA,NA,NA,NA,NA,NA,NA
26719,deep,flow.Sequence,1_13_0,NA,NA,completion,17226.1,380533.29999998,380529.9,380546.6,397772.7,397774,2024-02-29T21:47:08Z,397789.4,Verstand,ufahamivu,d,shakawa,hadhari,mhandisi,NA,NA,NA,NULL,NA,NA,NA,NA,NA,NA,NA,NA,NA,NA,NA,NA,NA,NA,NA,NA,NA,NA,NA
26719,task,flow.Sequence,1_13,NA,NA,completion,17226.1,380533.09999999,380529.9,380546.6,397772.7,397774.09999999,2024-02-29T21:47:08Z,397789.4,Verstand,ufahamivu,d,shakawa,hadhari,mhandisi,NA,NA,NA,NULL,NA,NA,NA,NA,NA,NA,NA,NA,NA,NA,NA,NA,NA,NA,NA,NA,NA,NA,NA
26719,Deep Question,html.Page,1_14_0_0,NA,NA,form submission,21071.500000006,397774.19999999,397772.7,397789.4,418860.90000001,418861.19999999,2024-02-29T21:47:29Z,418878.796,Beweis,ushahidi,s,marudio,kizuizi,mtendaji,msadula,NA,NA,NULL,NA,NA,NA,NA,NA,NA,NA,NA,NA,NA,NA,NA,NA,NA,NA,NA,NA,NA,NA
26719,Save data screen,canvas.Screen,1_14_0_1,NA,NA,timeout,495.40400000004,418863.59999999,418878.796,418878.796,419357.6,419359.69999999,2024-02-29T21:47:30Z,419374.2,Beweis,ushahidi,s,marudio,kizuizi,mtendaji,NA,NA,0,NULL,NA,NA,NA,NA,NA,NA,NA,NA,NA,NA,NA,NA,NA,NA,NA,NA,NA,NA,NA
26719,deep,flow.Sequence,1_14_0,NA,NA,completion,21568.2,397774.19999999,397772.7,397789.4,419357.6,419360,2024-02-29T21:47:30Z,419374.2,Beweis,ushahidi,s,marudio,kizuizi,mtendaji,NA,NA,NA,NULL,NA,NA,NA,NA,NA,NA,NA,NA,NA,NA,NA,NA,NA,NA,NA,NA,NA,NA,NA
26719,task,flow.Sequence,1_14,NA,NA,completion,21568.2,397774.09999999,397772.7,397789.4,419357.6,419360.29999998,2024-02-29T21:47:30Z,419374.2,Beweis,ushahidi,s,marudio,kizuizi,mtendaji,NA,NA,NA,NULL,NA,NA,NA,NA,NA,NA,NA,NA,NA,NA,NA,NA,NA,NA,NA,NA,NA,NA,NA
26719,Deep Question,html.Page,1_15_0_0,NA,NA,form submission,10074.200000006,419360.5,419357.6,419374.2,429448.40000001,429448.59999999,2024-02-29T21:47:40Z,429476.1,Auftrag,uagizaji,s,ghanima,kuzingatia,msukani,lamilabi,NA,NA,NULL,NA,NA,NA,NA,NA,NA,NA,NA,NA,NA,NA,NA,NA,NA,NA,NA,NA,NA,NA
26719,Save data screen,canvas.Screen,1_15_0_1,NA,NA,timeout,499,429450.79999998,429471.33,429476.1,429958.2,429959.19999999,2024-02-29T21:47:41Z,429975.1,Auftrag,uagizaji,s,ghanima,kuzingatia,msukani,NA,NA,0,NULL,NA,NA,NA,NA,NA,NA,NA,NA,NA,NA,NA,NA,NA,NA,NA,NA,NA,NA,NA
26719,deep,flow.Sequence,1_15_0,NA,NA,completion,10584,419360.40000001,419357.6,419374.2,429958.2,429959.5,2024-02-29T21:47:41Z,429975.1,Auftrag,uagizaji,s,ghanima,kuzingatia,msukani,NA,NA,NA,NULL,NA,NA,NA,NA,NA,NA,NA,NA,NA,NA,NA,NA,NA,NA,NA,NA,NA,NA,NA
26719,task,flow.Sequence,1_15,NA,NA,completion,10584,419360.40000001,419357.6,419374.2,429958.2,429959.5,2024-02-29T21:47:41Z,429975.1,Auftrag,uagizaji,s,ghanima,kuzingatia,msukani,NA,NA,NA,NULL,NA,NA,NA,NA,NA,NA,NA,NA,NA,NA,NA,NA,NA,NA,NA,NA,NA,NA,NA
26719,retrieval block 1 (cued recall),flow.Loop,1,NA,NA,completion,400898.4,29052.5,29043.2,29059.8,429958.2,429959.69999999,2024-02-29T21:47:41Z,429975.1,NA,NA,NA,NA,NA,NA,NA,NA,NA,NULL,NA,NA,NA,NA,NA,NA,NA,NA,NA,NA,NA,NA,NA,NA,NA,NA,NA,NA,NA
26719,Shallow Question,html.Page,2_0_0_0,NA,NA,form submission,21416.999999994,429959.79999998,429958.2,429975.1,451392.09999999,451392.5,2024-02-29T21:48:02Z,451410.43,Annäherung,maegesho,d,madahili,kujiamini,mapendekezo,maegesho,NA,NA,"c(""distractor1"", ""distractor2"", ""distractor3"")",NA,NA,NA,NA,NA,NA,NA,NA,NA,NA,NA,NA,NA,NA,NA,NA,NA,NA,NA
26719,Save data screen,canvas.Screen,2_0_0_1,NA,NA,timeout,499.97000000003,451394.5,451410.43,451410.43,451893.6,451897.19999999,2024-02-29T21:48:02Z,451910.4,Annäherung,maegesho,d,madahili,kujiamini,mapendekezo,NA,NA,1,"c(""distractor1"", ""distractor2"", ""distractor3"")",NA,NA,NA,NA,NA,NA,NA,NA,NA,NA,NA,NA,NA,NA,NA,NA,NA,NA,NA
26719,shallow,flow.Sequence,2_0_0,NA,NA,completion,21918.5,429959.79999998,429958.2,429975.1,451893.6,451897.79999998,2024-02-29T21:48:02Z,451910.4,Annäherung,maegesho,d,madahili,kujiamini,mapendekezo,NA,NA,NA,"c(""distractor1"", ""distractor2"", ""distractor3"")",NA,NA,NA,NA,NA,NA,NA,NA,NA,NA,NA,NA,NA,NA,NA,NA,NA,NA,NA
26719,task,flow.Sequence,2_0,NA,NA,completion,21918.5,429959.79999998,429958.2,429975.1,451893.6,451898,2024-02-29T21:48:02Z,451910.4,Annäherung,maegesho,d,madahili,kujiamini,mapendekezo,NA,NA,NA,"c(""distractor1"", ""distractor2"", ""distractor3"")",NA,NA,NA,NA,NA,NA,NA,NA,NA,NA,NA,NA,NA,NA,NA,NA,NA,NA,NA
26719,Shallow Question,html.Page,2_1_0_0,NA,NA,form submission,10214.399999982,451898.29999998,451893.6,451910.4,462124.79999998,462124.90000001,2024-02-29T21:48:13Z,462144.976,Vorsorge,tahadhari,s,ufafanuzi,makini,mashambani,tahadhari,NA,NA,"c(""distractor1"", ""distractor2"", ""distractor3"")",NA,NA,NA,NA,NA,NA,NA,NA,NA,NA,NA,NA,NA,NA,NA,NA,NA,NA,NA
26719,Save data screen,canvas.Screen,2_1_0_1,NA,NA,timeout,495.62399999995,462126.90000001,462144.976,462144.976,462624,462625.59999999,2024-02-29T21:48:13Z,462640.6,Vorsorge,tahadhari,s,ufafanuzi,makini,mashambani,NA,NA,1,"c(""distractor1"", ""distractor2"", ""distractor3"")",NA,NA,NA,NA,NA,NA,NA,NA,NA,NA,NA,NA,NA,NA,NA,NA,NA,NA,NA
26719,shallow,flow.Sequence,2_1_0,NA,NA,completion,10713.6,451898.19999999,451893.6,451910.4,462624,462626,2024-02-29T21:48:13Z,462640.6,Vorsorge,tahadhari,s,ufafanuzi,makini,mashambani,NA,NA,NA,"c(""distractor1"", ""distractor2"", ""distractor3"")",NA,NA,NA,NA,NA,NA,NA,NA,NA,NA,NA,NA,NA,NA,NA,NA,NA,NA,NA
26719,task,flow.Sequence,2_1,NA,NA,completion,10713.6,451898.19999999,451893.6,451910.4,462624,462626.29999998,2024-02-29T21:48:13Z,462640.6,Vorsorge,tahadhari,s,ufafanuzi,makini,mashambani,NA,NA,NA,"c(""distractor1"", ""distractor2"", ""distractor3"")",NA,NA,NA,NA,NA,NA,NA,NA,NA,NA,NA,NA,NA,NA,NA,NA,NA,NA,NA
26719,Shallow Question,html.Page,2_2_0_0,NA,NA,form submission,17850.4,462626.5,462624,462640.6,480491,480491.09999999,2024-02-29T21:48:31Z,480517.26,Ausschluss,kutengwa,s,ununuzi,taratibu,madeni,kutengwa,NA,NA,"c(""distractor1"", ""distractor2"", ""distractor3"")",NA,NA,NA,NA,NA,NA,NA,NA,NA,NA,NA,NA,NA,NA,NA,NA,NA,NA,NA
26719,Save data screen,canvas.Screen,2_2_0_1,NA,NA,timeout,495.73999999999,480492.90000001,480517.26,480517.26,480996.3,480999,2024-02-29T21:48:32Z,481013,Ausschluss,kutengwa,s,ununuzi,taratibu,madeni,NA,NA,1,"c(""distractor1"", ""distractor2"", ""distractor3"")",NA,NA,NA,NA,NA,NA,NA,NA,NA,NA,NA,NA,NA,NA,NA,NA,NA,NA,NA
26719,shallow,flow.Sequence,2_2_0,NA,NA,completion,18355.7,462626.5,462624,462640.6,480996.3,480999.40000001,2024-02-29T21:48:32Z,481013,Ausschluss,kutengwa,s,ununuzi,taratibu,madeni,NA,NA,NA,"c(""distractor1"", ""distractor2"", ""distractor3"")",NA,NA,NA,NA,NA,NA,NA,NA,NA,NA,NA,NA,NA,NA,NA,NA,NA,NA,NA
26719,task,flow.Sequence,2_2,NA,NA,completion,18355.7,462626.40000001,462624,462640.6,480996.3,480999.69999999,2024-02-29T21:48:32Z,481013,Ausschluss,kutengwa,s,ununuzi,taratibu,madeni,NA,NA,NA,"c(""distractor1"", ""distractor2"", ""distractor3"")",NA,NA,NA,NA,NA,NA,NA,NA,NA,NA,NA,NA,NA,NA,NA,NA,NA,NA,NA
26719,Shallow Question,html.Page,2_3_0_0,NA,NA,form submission,7589.900000006,481000.09999999,480996.3,481013,488602.90000001,488603.19999999,2024-02-29T21:48:39Z,488623.3,Konkurrent,mshindani,s,msemaji,mvutaji,kipukusa,mshindani,NA,NA,"c(""distractor1"", ""distractor2"", ""distractor3"")",NA,NA,NA,NA,NA,NA,NA,NA,NA,NA,NA,NA,NA,NA,NA,NA,NA,NA,NA
26719,Save data screen,canvas.Screen,2_3_0_1,NA,NA,timeout,495.29999999999,488605.59999999,488613.75,488623.3,489101.9,489104,2024-02-29T21:48:40Z,489118.6,Konkurrent,mshindani,s,msemaji,mvutaji,kipukusa,NA,NA,1,"c(""distractor1"", ""distractor2"", ""distractor3"")",NA,NA,NA,NA,NA,NA,NA,NA,NA,NA,NA,NA,NA,NA,NA,NA,NA,NA,NA
26719,shallow,flow.Sequence,2_3_0,NA,NA,completion,8088.9,481000,480996.3,481013,489101.9,489104.29999998,2024-02-29T21:48:40Z,489118.6,Konkurrent,mshindani,s,msemaji,mvutaji,kipukusa,NA,NA,NA,"c(""distractor1"", ""distractor2"", ""distractor3"")",NA,NA,NA,NA,NA,NA,NA,NA,NA,NA,NA,NA,NA,NA,NA,NA,NA,NA,NA
26719,task,flow.Sequence,2_3,NA,NA,completion,8088.9,481000,480996.3,481013,489101.9,489104.40000001,2024-02-29T21:48:40Z,489118.6,Konkurrent,mshindani,s,msemaji,mvutaji,kipukusa,NA,NA,NA,"c(""distractor1"", ""distractor2"", ""distractor3"")",NA,NA,NA,NA,NA,NA,NA,NA,NA,NA,NA,NA,NA,NA,NA,NA,NA,NA,NA
26719,Shallow Question,html.Page,2_4_0_0,NA,NA,form submission,10544.199999982,489104.5,489101.9,489118.6,499662.79999998,499663,2024-02-29T21:48:50Z,499681.228,Symbol,kielezo,d,kinyume,nderemo,utayari,kielezo,NA,NA,"c(""distractor1"", ""distractor2"", ""distractor3"")",NA,NA,NA,NA,NA,NA,NA,NA,NA,NA,NA,NA,NA,NA,NA,NA,NA,NA,NA
26719,Save data screen,canvas.Screen,2_4_0_1,NA,NA,timeout,499.67200000002,499665.5,499681.228,499681.228,500164.3,500166.59999999,2024-02-29T21:48:51Z,500180.9,Symbol,kielezo,d,kinyume,nderemo,utayari,NA,NA,1,"c(""distractor1"", ""distractor2"", ""distractor3"")",NA,NA,NA,NA,NA,NA,NA,NA,NA,NA,NA,NA,NA,NA,NA,NA,NA,NA,NA
26719,shallow,flow.Sequence,2_4_0,NA,NA,completion,11045.7,489104.5,489101.9,489118.6,500164.3,500166.90000001,2024-02-29T21:48:51Z,500180.9,Symbol,kielezo,d,kinyume,nderemo,utayari,NA,NA,NA,"c(""distractor1"", ""distractor2"", ""distractor3"")",NA,NA,NA,NA,NA,NA,NA,NA,NA,NA,NA,NA,NA,NA,NA,NA,NA,NA,NA
26719,task,flow.Sequence,2_4,NA,NA,completion,11045.7,489104.5,489101.9,489118.6,500164.3,500167.40000001,2024-02-29T21:48:51Z,500180.9,Symbol,kielezo,d,kinyume,nderemo,utayari,NA,NA,NA,"c(""distractor1"", ""distractor2"", ""distractor3"")",NA,NA,NA,NA,NA,NA,NA,NA,NA,NA,NA,NA,NA,NA,NA,NA,NA,NA,NA
26719,Shallow Question,html.Page,2_5_0_0,NA,NA,form submission,30065.1,500167.59999999,500164.3,500180.9,530246,530246.19999999006,2024-02-29T21:49:21Z,530271.128,Zufall,kikuti,d,kukosekana,uchoraji,leseni,kukosekana,NA,NA,"c(""distractor1"", ""distractor2"", ""distractor3"")",NA,NA,NA,NA,NA,NA,NA,NA,NA,NA,NA,NA,NA,NA,NA,NA,NA,NA,NA
26719,Save data screen,canvas.Screen,2_5_0_1,NA,NA,timeout,495.87199999997,530248.69999999006,530271.128,530271.128,530750.3,530752.59999999,2024-02-29T21:49:21Z,530767,Zufall,kikuti,d,kukosekana,uchoraji,leseni,NA,NA,0,"c(""distractor1"", ""distractor2"", ""distractor3"")",NA,NA,NA,NA,NA,NA,NA,NA,NA,NA,NA,NA,NA,NA,NA,NA,NA,NA,NA
26719,shallow,flow.Sequence,2_5_0,NA,NA,completion,30569.4,500167.59999999,500164.3,500180.9,530750.3,530753.09999999,2024-02-29T21:49:21Z,530767,Zufall,kikuti,d,kukosekana,uchoraji,leseni,NA,NA,NA,"c(""distractor1"", ""distractor2"", ""distractor3"")",NA,NA,NA,NA,NA,NA,NA,NA,NA,NA,NA,NA,NA,NA,NA,NA,NA,NA,NA
26719,task,flow.Sequence,2_5,NA,NA,completion,30569.4,500167.59999999,500164.3,500180.9,530750.3,530753.40000001,2024-02-29T21:49:21Z,530767,Zufall,kikuti,d,kukosekana,uchoraji,leseni,NA,NA,NA,"c(""distractor1"", ""distractor2"", ""distractor3"")",NA,NA,NA,NA,NA,NA,NA,NA,NA,NA,NA,NA,NA,NA,NA,NA,NA,NA,NA
26719,Shallow Question,html.Page,2_6_0_0,NA,NA,form submission,9403.599999994,530753.59999999,530750.3,530767,540170.59999999,540170.90000001,2024-02-29T21:49:31Z,540184.3,Zuwachs,nyongeza,d,matilaba,udhibiti,hudhurio,nyongeza,NA,NA,"c(""distractor1"", ""distractor2"", ""distractor3"")",NA,NA,NA,NA,NA,NA,NA,NA,NA,NA,NA,NA,NA,NA,NA,NA,NA,NA,NA
26719,Save data screen,canvas.Screen,2_6_0_1,NA,NA,timeout,500.19999999995,540173.69999999006,540184.018,540184.3,540667.7,540669.19999999006,2024-02-29T21:49:31Z,540684.5,Zuwachs,nyongeza,d,matilaba,udhibiti,hudhurio,NA,NA,1,"c(""distractor1"", ""distractor2"", ""distractor3"")",NA,NA,NA,NA,NA,NA,NA,NA,NA,NA,NA,NA,NA,NA,NA,NA,NA,NA,NA
26719,shallow,flow.Sequence,2_6_0,NA,NA,completion,9900.7,530753.59999999,530750.3,530767,540667.7,540669.40000001,2024-02-29T21:49:31Z,540684.5,Zuwachs,nyongeza,d,matilaba,udhibiti,hudhurio,NA,NA,NA,"c(""distractor1"", ""distractor2"", ""distractor3"")",NA,NA,NA,NA,NA,NA,NA,NA,NA,NA,NA,NA,NA,NA,NA,NA,NA,NA,NA
26719,task,flow.Sequence,2_6,NA,NA,completion,9900.7,530753.5,530750.3,530767,540667.7,540669.40000001,2024-02-29T21:49:31Z,540684.5,Zuwachs,nyongeza,d,matilaba,udhibiti,hudhurio,NA,NA,NA,"c(""distractor1"", ""distractor2"", ""distractor3"")",NA,NA,NA,NA,NA,NA,NA,NA,NA,NA,NA,NA,NA,NA,NA,NA,NA,NA,NA
26719,Shallow Question,html.Page,2_7_0_0,NA,NA,form submission,6372.400000006,540669.59999999,540667.7,540684.5,547056.90000001,547057.19999999006,2024-02-29T21:49:38Z,547084.8,Polizist,msongora,s,simanzi,mandhari,nidhamu,msongora,NA,NA,"c(""distractor1"", ""distractor2"", ""distractor3"")",NA,NA,NA,NA,NA,NA,NA,NA,NA,NA,NA,NA,NA,NA,NA,NA,NA,NA,NA
26719,Save data screen,canvas.Screen,2_7_0_1,NA,NA,timeout,504.5,547059.79999998,547071.698,547084.8,547572.6,547574.59999999,2024-02-29T21:49:38Z,547589.3,Polizist,msongora,s,simanzi,mandhari,nidhamu,NA,NA,1,"c(""distractor1"", ""distractor2"", ""distractor3"")",NA,NA,NA,NA,NA,NA,NA,NA,NA,NA,NA,NA,NA,NA,NA,NA,NA,NA,NA
26719,shallow,flow.Sequence,2_7_0,NA,NA,completion,6888.1,540669.59999999,540667.7,540684.5,547572.6,547575,2024-02-29T21:49:38Z,547589.3,Polizist,msongora,s,simanzi,mandhari,nidhamu,NA,NA,NA,"c(""distractor1"", ""distractor2"", ""distractor3"")",NA,NA,NA,NA,NA,NA,NA,NA,NA,NA,NA,NA,NA,NA,NA,NA,NA,NA,NA
26719,task,flow.Sequence,2_7,NA,NA,completion,6888.1,540669.59999999,540667.7,540684.5,547572.6,547575.29999998,2024-02-29T21:49:38Z,547589.3,Polizist,msongora,s,simanzi,mandhari,nidhamu,NA,NA,NA,"c(""distractor1"", ""distractor2"", ""distractor3"")",NA,NA,NA,NA,NA,NA,NA,NA,NA,NA,NA,NA,NA,NA,NA,NA,NA,NA,NA
26719,Shallow Question,html.Page,2_8_0_0,NA,NA,form submission,9256.7,547575.5,547572.6,547589.3,556846,556846.29999998,2024-02-29T21:49:47Z,556869.394,Schönheit,kirembo,d,mahojiano,msisimko,jitihadi,kirembo,NA,NA,"c(""distractor1"", ""distractor2"", ""distractor3"")",NA,NA,NA,NA,NA,NA,NA,NA,NA,NA,NA,NA,NA,NA,NA,NA,NA,NA,NA
26719,Save data screen,canvas.Screen,2_8_0_1,NA,NA,timeout,492.60600000003,556848.79999998,556869.394,556869.394,557345.3,557347,2024-02-29T21:49:48Z,557362,Schönheit,kirembo,d,mahojiano,msisimko,jitihadi,NA,NA,1,"c(""distractor1"", ""distractor2"", ""distractor3"")",NA,NA,NA,NA,NA,NA,NA,NA,NA,NA,NA,NA,NA,NA,NA,NA,NA,NA,NA
26719,shallow,flow.Sequence,2_8_0,NA,NA,completion,9756,547575.5,547572.6,547589.3,557345.3,557347.40000001,2024-02-29T21:49:48Z,557362,Schönheit,kirembo,d,mahojiano,msisimko,jitihadi,NA,NA,NA,"c(""distractor1"", ""distractor2"", ""distractor3"")",NA,NA,NA,NA,NA,NA,NA,NA,NA,NA,NA,NA,NA,NA,NA,NA,NA,NA,NA
26719,task,flow.Sequence,2_8,NA,NA,completion,9756,547575.40000001,547572.6,547589.3,557345.3,557347.69999999006,2024-02-29T21:49:48Z,557362,Schönheit,kirembo,d,mahojiano,msisimko,jitihadi,NA,NA,NA,"c(""distractor1"", ""distractor2"", ""distractor3"")",NA,NA,NA,NA,NA,NA,NA,NA,NA,NA,NA,NA,NA,NA,NA,NA,NA,NA,NA
26719,Shallow Question,html.Page,2_9_0_0,NA,NA,form submission,24011.699999988,557348,557345.3,557362,581373.69999999006,581373.90000001,2024-02-29T21:50:12Z,581387.622,Wettbewerb,ushindani,s,mapendezi,kichocheo,ubaguzi,ushindani,NA,NA,"c(""distractor1"", ""distractor2"", ""distractor3"")",NA,NA,NA,NA,NA,NA,NA,NA,NA,NA,NA,NA,NA,NA,NA,NA,NA,NA,NA
26719,Save data screen,canvas.Screen,2_9_0_1,NA,NA,timeout,501.87800000003,581376,581387.622,581387.622,581872.8,581874.59999999,2024-02-29T21:50:12Z,581889.5,Wettbewerb,ushindani,s,mapendezi,kichocheo,ubaguzi,NA,NA,1,"c(""distractor1"", ""distractor2"", ""distractor3"")",NA,NA,NA,NA,NA,NA,NA,NA,NA,NA,NA,NA,NA,NA,NA,NA,NA,NA,NA
26719,shallow,flow.Sequence,2_9_0,NA,NA,completion,24510.8,557347.90000001,557345.3,557362,581872.8,581875,2024-02-29T21:50:12Z,581889.5,Wettbewerb,ushindani,s,mapendezi,kichocheo,ubaguzi,NA,NA,NA,"c(""distractor1"", ""distractor2"", ""distractor3"")",NA,NA,NA,NA,NA,NA,NA,NA,NA,NA,NA,NA,NA,NA,NA,NA,NA,NA,NA
26719,task,flow.Sequence,2_9,NA,NA,completion,24510.8,557347.90000001,557345.3,557362,581872.8,581875.29999998,2024-02-29T21:50:12Z,581889.5,Wettbewerb,ushindani,s,mapendezi,kichocheo,ubaguzi,NA,NA,NA,"c(""distractor1"", ""distractor2"", ""distractor3"")",NA,NA,NA,NA,NA,NA,NA,NA,NA,NA,NA,NA,NA,NA,NA,NA,NA,NA,NA
26719,Shallow Question,html.Page,2_10_0_0,NA,NA,form submission,19312.5,581875.5,581872.8,581889.5,601202,601202.29999998,2024-02-29T21:50:32Z,601222.6,Verstand,ufahamivu,d,shakawa,hadhari,mhandisi,ufahamivu,NA,NA,"c(""distractor1"", ""distractor2"", ""distractor3"")",NA,NA,NA,NA,NA,NA,NA,NA,NA,NA,NA,NA,NA,NA,NA,NA,NA,NA,NA
26719,Save data screen,canvas.Screen,2_10_0_1,NA,NA,timeout,501.70000000007,601204.69999999006,601206.462,601222.6,601707.5,601709.29999998,2024-02-29T21:50:32Z,601724.3,Verstand,ufahamivu,d,shakawa,hadhari,mhandisi,NA,NA,1,"c(""distractor1"", ""distractor2"", ""distractor3"")",NA,NA,NA,NA,NA,NA,NA,NA,NA,NA,NA,NA,NA,NA,NA,NA,NA,NA,NA
26719,shallow,flow.Sequence,2_10_0,NA,NA,completion,19818,581875.40000001,581872.8,581889.5,601707.5,601709.69999999006,2024-02-29T21:50:32Z,601724.3,Verstand,ufahamivu,d,shakawa,hadhari,mhandisi,NA,NA,NA,"c(""distractor1"", ""distractor2"", ""distractor3"")",NA,NA,NA,NA,NA,NA,NA,NA,NA,NA,NA,NA,NA,NA,NA,NA,NA,NA,NA
26719,task,flow.Sequence,2_10,NA,NA,completion,19818,581875.40000001,581872.8,581889.5,601707.5,601710,2024-02-29T21:50:32Z,601724.3,Verstand,ufahamivu,d,shakawa,hadhari,mhandisi,NA,NA,NA,"c(""distractor1"", ""distractor2"", ""distractor3"")",NA,NA,NA,NA,NA,NA,NA,NA,NA,NA,NA,NA,NA,NA,NA,NA,NA,NA,NA
26719,Shallow Question,html.Page,2_11_0_0,NA,NA,form submission,7039.4999999821,601710.09999999,601707.5,601724.3,608763.79999998,608764,2024-02-29T21:50:39Z,608790.648,Beweis,ushahidi,s,marudio,kizuizi,mtendaji,ushahidi,NA,NA,"c(""distractor1"", ""distractor2"", ""distractor3"")",NA,NA,NA,NA,NA,NA,NA,NA,NA,NA,NA,NA,NA,NA,NA,NA,NA,NA,NA
26719,Save data screen,canvas.Screen,2_11_0_1,NA,NA,timeout,505.652,608766.29999998,608790.648,608790.648,609279.6,609282.09999999,2024-02-29T21:50:40Z,609296.3,Beweis,ushahidi,s,marudio,kizuizi,mtendaji,NA,NA,1,"c(""distractor1"", ""distractor2"", ""distractor3"")",NA,NA,NA,NA,NA,NA,NA,NA,NA,NA,NA,NA,NA,NA,NA,NA,NA,NA,NA
26719,shallow,flow.Sequence,2_11_0,NA,NA,completion,7555.2999999999,601710.09999999,601707.5,601724.3,609279.6,609282.59999999,2024-02-29T21:50:40Z,609296.3,Beweis,ushahidi,s,marudio,kizuizi,mtendaji,NA,NA,NA,"c(""distractor1"", ""distractor2"", ""distractor3"")",NA,NA,NA,NA,NA,NA,NA,NA,NA,NA,NA,NA,NA,NA,NA,NA,NA,NA,NA
26719,task,flow.Sequence,2_11,NA,NA,completion,7555.2999999999,601710.09999999,601707.5,601724.3,609279.6,609282.79999998,2024-02-29T21:50:40Z,609296.3,Beweis,ushahidi,s,marudio,kizuizi,mtendaji,NA,NA,NA,"c(""distractor1"", ""distractor2"", ""distractor3"")",NA,NA,NA,NA,NA,NA,NA,NA,NA,NA,NA,NA,NA,NA,NA,NA,NA,NA,NA
26719,Shallow Question,html.Page,2_12_0_0,NA,NA,form submission,12291.999999982,609283.09999999,609279.6,609296.3,621588.29999998,621588.40000001,2024-02-29T21:50:52Z,621607.8,Widerstand,usulubu,d,kusababisha,mwalimu,mwenendo,usulubu,NA,NA,"c(""distractor1"", ""distractor2"", ""distractor3"")",NA,NA,NA,NA,NA,NA,NA,NA,NA,NA,NA,NA,NA,NA,NA,NA,NA,NA,NA
26719,Save data screen,canvas.Screen,2_12_0_1,NA,NA,timeout,499.89999999991,621590.5,621591.06,621607.8,622091.1,622093.29999998,2024-02-29T21:50:53Z,622107.7,Widerstand,usulubu,d,kusababisha,mwalimu,mwenendo,NA,NA,1,"c(""distractor1"", ""distractor2"", ""distractor3"")",NA,NA,NA,NA,NA,NA,NA,NA,NA,NA,NA,NA,NA,NA,NA,NA,NA,NA,NA
26719,shallow,flow.Sequence,2_12_0,NA,NA,completion,12794.8,609283,609279.6,609296.3,622091.1,622093.69999999006,2024-02-29T21:50:53Z,622107.7,Widerstand,usulubu,d,kusababisha,mwalimu,mwenendo,NA,NA,NA,"c(""distractor1"", ""distractor2"", ""distractor3"")",NA,NA,NA,NA,NA,NA,NA,NA,NA,NA,NA,NA,NA,NA,NA,NA,NA,NA,NA
26719,task,flow.Sequence,2_12,NA,NA,completion,12794.8,609282.90000001,609279.6,609296.3,622091.1,622094,2024-02-29T21:50:53Z,622107.7,Widerstand,usulubu,d,kusababisha,mwalimu,mwenendo,NA,NA,NA,"c(""distractor1"", ""distractor2"", ""distractor3"")",NA,NA,NA,NA,NA,NA,NA,NA,NA,NA,NA,NA,NA,NA,NA,NA,NA,NA,NA
26719,Shallow Question,html.Page,2_13_0_0,NA,NA,form submission,7077.8999999941,622094.29999998,622091.1,622107.7,629185.59999999,629185.90000001,2024-02-29T21:51:00Z,629208.56,Sympathie,mapendano,d,dhamiria,fungamano,maazimio,mapendano,NA,NA,"c(""distractor1"", ""distractor2"", ""distractor3"")",NA,NA,NA,NA,NA,NA,NA,NA,NA,NA,NA,NA,NA,NA,NA,NA,NA,NA,NA
26719,Save data screen,canvas.Screen,2_13_0_1,NA,NA,timeout,499.6399999999,629188.5,629208.56,629208.56,629685.9,629687.09999999,2024-02-29T21:51:00Z,629708.2,Sympathie,mapendano,d,dhamiria,fungamano,maazimio,NA,NA,1,"c(""distractor1"", ""distractor2"", ""distractor3"")",NA,NA,NA,NA,NA,NA,NA,NA,NA,NA,NA,NA,NA,NA,NA,NA,NA,NA,NA
26719,shallow,flow.Sequence,2_13_0,NA,NA,completion,7578.2000000001,622094.19999999006,622091.1,622107.7,629685.9,629687.40000001,2024-02-29T21:51:00Z,629708.2,Sympathie,mapendano,d,dhamiria,fungamano,maazimio,NA,NA,NA,"c(""distractor1"", ""distractor2"", ""distractor3"")",NA,NA,NA,NA,NA,NA,NA,NA,NA,NA,NA,NA,NA,NA,NA,NA,NA,NA,NA
26719,task,flow.Sequence,2_13,NA,NA,completion,7578.2000000001,622094.19999999006,622091.1,622107.7,629685.9,629687.5,2024-02-29T21:51:00Z,629708.2,Sympathie,mapendano,d,dhamiria,fungamano,maazimio,NA,NA,NA,"c(""distractor1"", ""distractor2"", ""distractor3"")",NA,NA,NA,NA,NA,NA,NA,NA,NA,NA,NA,NA,NA,NA,NA,NA,NA,NA,NA
26719,Shallow Question,html.Page,2_14_0_0,NA,NA,form submission,10277.399999994,629687.69999999006,629685.9,629708.2,639985.59999999,639985.79999998,2024-02-29T21:51:11Z,640009.124,Gelegenheit,wakati,s,mchanganyiko,kipaumbele,kushuku,wakati,NA,NA,"c(""distractor1"", ""distractor2"", ""distractor3"")",NA,NA,NA,NA,NA,NA,NA,NA,NA,NA,NA,NA,NA,NA,NA,NA,NA,NA,NA
26719,Save data screen,canvas.Screen,2_14_0_1,NA,NA,timeout,500.076,639987.59999999,640009.124,640009.124,640492.5,640495.40000001,2024-02-29T21:51:11Z,640509.2,Gelegenheit,wakati,s,mchanganyiko,kipaumbele,kushuku,NA,NA,1,"c(""distractor1"", ""distractor2"", ""distractor3"")",NA,NA,NA,NA,NA,NA,NA,NA,NA,NA,NA,NA,NA,NA,NA,NA,NA,NA,NA
26719,shallow,flow.Sequence,2_14_0,NA,NA,completion,10784.3,629687.69999999006,629685.9,629708.2,640492.5,640495.90000001,2024-02-29T21:51:11Z,640509.2,Gelegenheit,wakati,s,mchanganyiko,kipaumbele,kushuku,NA,NA,NA,"c(""distractor1"", ""distractor2"", ""distractor3"")",NA,NA,NA,NA,NA,NA,NA,NA,NA,NA,NA,NA,NA,NA,NA,NA,NA,NA,NA
26719,task,flow.Sequence,2_14,NA,NA,completion,10784.3,629687.69999999006,629685.9,629708.2,640492.5,640496.09999999,2024-02-29T21:51:11Z,640509.2,Gelegenheit,wakati,s,mchanganyiko,kipaumbele,kushuku,NA,NA,NA,"c(""distractor1"", ""distractor2"", ""distractor3"")",NA,NA,NA,NA,NA,NA,NA,NA,NA,NA,NA,NA,NA,NA,NA,NA,NA,NA,NA
26719,Shallow Question,html.Page,2_15_0_0,NA,NA,form submission,11741.499999988,640496.40000001,640492.5,640509.2,652250.69999999006,652250.90000001,2024-02-29T21:51:23Z,652277.262,Auftrag,uagizaji,s,ghanima,kuzingatia,msukani,uagizaji,NA,NA,"c(""distractor1"", ""distractor2"", ""distractor3"")",NA,NA,NA,NA,NA,NA,NA,NA,NA,NA,NA,NA,NA,NA,NA,NA,NA,NA,NA
26719,Save data screen,canvas.Screen,2_15_0_1,NA,NA,timeout,516.23800000001,652253.09999999,652277.262,652277.262,652760.2,652762.40000001,2024-02-29T21:51:23Z,652793.5,Auftrag,uagizaji,s,ghanima,kuzingatia,msukani,NA,NA,1,"c(""distractor1"", ""distractor2"", ""distractor3"")",NA,NA,NA,NA,NA,NA,NA,NA,NA,NA,NA,NA,NA,NA,NA,NA,NA,NA,NA
26719,shallow,flow.Sequence,2_15_0,NA,NA,completion,12251,640496.29999998,640492.5,640509.2,652760.2,652762.79999998,2024-02-29T21:51:23Z,652793.5,Auftrag,uagizaji,s,ghanima,kuzingatia,msukani,NA,NA,NA,"c(""distractor1"", ""distractor2"", ""distractor3"")",NA,NA,NA,NA,NA,NA,NA,NA,NA,NA,NA,NA,NA,NA,NA,NA,NA,NA,NA
26719,task,flow.Sequence,2_15,NA,NA,completion,12251,640496.19999999006,640492.5,640509.2,652760.2,652763.09999999,2024-02-29T21:51:23Z,652793.5,Auftrag,uagizaji,s,ghanima,kuzingatia,msukani,NA,NA,NA,"c(""distractor1"", ""distractor2"", ""distractor3"")",NA,NA,NA,NA,NA,NA,NA,NA,NA,NA,NA,NA,NA,NA,NA,NA,NA,NA,NA
26719,retrieval block 2 (multiple choice),flow.Loop,2,NA,NA,completion,222785.1,429959.79999998,429958.2,429975.1,652760.2,652763.40000001,2024-02-29T21:51:23Z,652793.5,NA,NA,NA,NA,NA,NA,NA,NA,NA,"c(""distractor1"", ""distractor2"", ""distractor3"")",NA,NA,NA,NA,NA,NA,NA,NA,NA,NA,NA,NA,NA,NA,NA,NA,NA,NA,NA
26719,End,canvas.Screen,3,NA,keypress(Space),response,3303.5,652763.5,652760.2,652793.5,656097,656098.79999998,2024-02-29T21:51:27Z,656110.6,NA,NA,NA,NA,NA,NA,NA,NA,NA,NULL,NA,NA,NA,NA,NA,NA,NA,NA,NA,NA,NA,NA,NA,NA,NA,NA,NA,NA,NA
26719,root,flow.Sequence,NA,NA,NA,completion,654240.5,1822.099999994,1839.922,1856.5,656097,656100,2024-02-29T21:51:27Z,656110.6,NA,NA,NA,NA,NA,NA,NA,NA,NA,NULL,NA,NA,NA,NA,NA,NA,NA,NA,NA,NA,NA,NA,NA,NA,NA,NA,NA,NA,NA
