observation,sender,sender_type,sender_id,response,response_action,ended_on,duration,time_run,time_render,time_show,time_end,time_commit,timestamp,time_switch,distractors,german,swahili,enc,distractor1,distractor2,distractor3,response_2,x,correct,x_2,url_vp,url_sess,meta_labjs_version,meta_location,meta_user_agent,meta_platform,meta_language,meta_locale,meta_time_zone,meta_timezone_offset,meta_screen_width,meta_screen_height,meta_scroll_width,meta_scroll_height,meta_window_inner_width,meta_window_inner_height,meta_device_pixel_ratio,meta_labjs_build_flavor,meta_labjs_build_commit
b1e4d,Introduction general,canvas.Screen,0,weiter,keypress(q),response,66507.42,997,1031.56,1081.58,67589,67597,2023-04-28T12:28:19Z,67598.96,NULL,NA,NA,NA,NA,NA,NA,NA,NA,NA,NA,117,3,20.2.4,https://neurocog.fernuni.ch/studies/vweber/encoding_immediate/index.html?vp=117&sess=3,Mozilla/5.0 (Macintosh; Intel Mac OS X 10.15; rv:109.0) Gecko/20100101 Firefox/110.0,MacIntel,de,de-CH,Europe/Zurich,-120,1680,1050,1434,707,1434,755,2,production,f5b4a49f956347addd546a832a3327688c2c0fef
b1e4d,Introduction practice,canvas.Screen,1_0,NA,keypress(Space),response,9653.04,67599,67598.7,67598.96,77252,77258,2023-04-28T12:28:28Z,77259.88,NULL,NA,NA,NA,NA,NA,NA,NA,NA,NA,NA,NA,NA,NA,NA,NA,NA,NA,NA,NA,NA,NA,NA,NA,NA,NA,NA,NA,NA,NA
b1e4d,Deep Question,html.Page,1_1_0_0_0,NA,NA,form submission,11551.12,77260,77259.62,77259.88,88811,88812,2023-04-28T12:28:40Z,88822.48,"c(""distractor1"", ""distractor2"", ""distractor3"")",Qualität,mtindo,d,NA,NA,NA,kualshahi,NA,NA,NA,NA,NA,NA,NA,NA,NA,NA,NA,NA,NA,NA,NA,NA,NA,NA,NA,NA,NA,NA
b1e4d,"""Richtig""-Screen",canvas.Screen,1_1_0_0_1,NA,NA,skipped,NA,88817,NA,NA,88811,88817,2023-04-28T12:28:40Z,88822.48,"c(""distractor1"", ""distractor2"", ""distractor3"")",Qualität,mtindo,d,NA,NA,NA,NA,NA,NA,NA,NA,NA,NA,NA,NA,NA,NA,NA,NA,NA,NA,NA,NA,NA,NA,NA,NA,NA,NA
b1e4d,"""Falsch""-Screen",canvas.Screen,1_1_0_0_2,NA,NA,timeout,4999.98,88820,88808.24,88822.48,93805.08,93805,2023-04-28T12:28:45Z,93822.46,"c(""distractor1"", ""distractor2"", ""distractor3"")",Qualität,mtindo,d,NA,NA,NA,NA,NA,0,NA,NA,NA,NA,NA,NA,NA,NA,NA,NA,NA,NA,NA,NA,NA,NA,NA,NA,NA,NA
b1e4d,deep,flow.Sequence,1_1_0_0,NA,NA,completion,16545.2,77259,77259.62,77259.88,93805.08,93806,2023-04-28T12:28:45Z,93822.46,"c(""distractor1"", ""distractor2"", ""distractor3"")",Qualität,mtindo,d,NA,NA,NA,NA,NA,NA,NA,NA,NA,NA,NA,NA,NA,NA,NA,NA,NA,NA,NA,NA,NA,NA,NA,NA,NA,NA
b1e4d,shallow,flow.Sequence,1_1_0_1,NA,NA,skipped,NA,93806,NA,NA,93805.08,93806,2023-04-28T12:28:45Z,93822.46,"c(""distractor1"", ""distractor2"", ""distractor3"")",Qualität,mtindo,d,NA,NA,NA,NA,NA,NA,NA,NA,NA,NA,NA,NA,NA,NA,NA,NA,NA,NA,NA,NA,NA,NA,NA,NA,NA,NA
b1e4d,task,flow.Sequence,1_1_0,NA,NA,completion,16545.2,77259,77259.62,77259.88,93805.08,93806,2023-04-28T12:28:45Z,93822.46,"c(""distractor1"", ""distractor2"", ""distractor3"")",Qualität,mtindo,d,NA,NA,NA,NA,NA,NA,NA,NA,NA,NA,NA,NA,NA,NA,NA,NA,NA,NA,NA,NA,NA,NA,NA,NA,NA,NA
b1e4d,deep,flow.Sequence,1_1_1_0,NA,NA,skipped,NA,93807,NA,NA,93805.08,93807,2023-04-28T12:28:45Z,93822.46,"c(""distractor1"", ""distractor2"", ""distractor3"")",Gegenwart,hadhara,s,katiba,jokofu,mikopo,NA,NA,NA,NA,NA,NA,NA,NA,NA,NA,NA,NA,NA,NA,NA,NA,NA,NA,NA,NA,NA,NA,NA
b1e4d,Shallow Question,html.Page,1_1_1_1_0,NA,NA,form submission,8188.54,93807,93805.08,93822.46,102011,102012,2023-04-28T12:28:53Z,102009.92,"c(""distractor1"", ""distractor2"", ""distractor3"")",Gegenwart,hadhara,s,katiba,jokofu,mikopo,hadhara,NA,NA,NA,NA,NA,NA,NA,NA,NA,NA,NA,NA,NA,NA,NA,NA,NA,NA,NA,NA,NA,NA
b1e4d,"""Richtig""-Screen",canvas.Screen,1_1_1_1_1,NA,NA,timeout,5001.84,102013,102009.66,102009.92,106995.08,106996,2023-04-28T12:28:58Z,107011.76,"c(""distractor1"", ""distractor2"", ""distractor3"")",Gegenwart,hadhara,s,katiba,jokofu,mikopo,NA,NA,1,NA,NA,NA,NA,NA,NA,NA,NA,NA,NA,NA,NA,NA,NA,NA,NA,NA,NA,NA,NA
b1e4d,"""Falsch""-Screen",canvas.Screen,1_1_1_1_2,NA,NA,skipped,NA,106997,NA,NA,106995.08,106998,2023-04-28T12:28:58Z,107011.76,"c(""distractor1"", ""distractor2"", ""distractor3"")",Gegenwart,hadhara,s,katiba,jokofu,mikopo,NA,NA,NA,NA,NA,NA,NA,NA,NA,NA,NA,NA,NA,NA,NA,NA,NA,NA,NA,NA,NA,NA,NA
b1e4d,shallow,flow.Sequence,1_1_1_1,NA,NA,completion,13172.62,93807,93805.08,93822.46,106995.08,106998,2023-04-28T12:28:58Z,107011.76,"c(""distractor1"", ""distractor2"", ""distractor3"")",Gegenwart,hadhara,s,katiba,jokofu,mikopo,NA,NA,NA,NA,NA,NA,NA,NA,NA,NA,NA,NA,NA,NA,NA,NA,NA,NA,NA,NA,NA,NA,NA
b1e4d,task,flow.Sequence,1_1_1,NA,NA,completion,13172.62,93806,93805.08,93822.46,106995.08,106999,2023-04-28T12:28:58Z,107011.76,"c(""distractor1"", ""distractor2"", ""distractor3"")",Gegenwart,hadhara,s,katiba,jokofu,mikopo,NA,NA,NA,NA,NA,NA,NA,NA,NA,NA,NA,NA,NA,NA,NA,NA,NA,NA,NA,NA,NA,NA,NA
b1e4d,Deep Question,html.Page,1_1_2_0_0,NA,NA,form submission,10578.24,106999,106995.08,107011.76,117590,117590,2023-04-28T12:29:09Z,117601.12,"c(""distractor1"", ""distractor2"", ""distractor3"")",Schatten,kivuli,d,NA,NA,NA,shashara,NA,NA,NA,NA,NA,NA,NA,NA,NA,NA,NA,NA,NA,NA,NA,NA,NA,NA,NA,NA,NA,NA
b1e4d,"""Richtig""-Screen",canvas.Screen,1_1_2_0_1,NA,NA,skipped,NA,117591,NA,NA,117590,117592,2023-04-28T12:29:09Z,117601.12,"c(""distractor1"", ""distractor2"", ""distractor3"")",Schatten,kivuli,d,NA,NA,NA,NA,NA,NA,NA,NA,NA,NA,NA,NA,NA,NA,NA,NA,NA,NA,NA,NA,NA,NA,NA,NA,NA,NA
b1e4d,"""Falsch""-Screen",canvas.Screen,1_1_2_0_2,NA,NA,timeout,5004.72,117594,117588.14,117601.12,122590.1,122591,2023-04-28T12:29:14Z,122605.84,"c(""distractor1"", ""distractor2"", ""distractor3"")",Schatten,kivuli,d,NA,NA,NA,NA,NA,0,NA,NA,NA,NA,NA,NA,NA,NA,NA,NA,NA,NA,NA,NA,NA,NA,NA,NA,NA,NA
b1e4d,deep,flow.Sequence,1_1_2_0,NA,NA,completion,15578.34,106999,106995.08,107011.76,122590.1,122592,2023-04-28T12:29:14Z,122605.84,"c(""distractor1"", ""distractor2"", ""distractor3"")",Schatten,kivuli,d,NA,NA,NA,NA,NA,NA,NA,NA,NA,NA,NA,NA,NA,NA,NA,NA,NA,NA,NA,NA,NA,NA,NA,NA,NA,NA
b1e4d,shallow,flow.Sequence,1_1_2_1,NA,NA,skipped,NA,122593,NA,NA,122590.1,122593,2023-04-28T12:29:14Z,122605.84,"c(""distractor1"", ""distractor2"", ""distractor3"")",Schatten,kivuli,d,NA,NA,NA,NA,NA,NA,NA,NA,NA,NA,NA,NA,NA,NA,NA,NA,NA,NA,NA,NA,NA,NA,NA,NA,NA,NA
b1e4d,task,flow.Sequence,1_1_2,NA,NA,completion,15578.34,106999,106995.08,107011.76,122590.1,122593,2023-04-28T12:29:14Z,122605.84,"c(""distractor1"", ""distractor2"", ""distractor3"")",Schatten,kivuli,d,NA,NA,NA,NA,NA,NA,NA,NA,NA,NA,NA,NA,NA,NA,NA,NA,NA,NA,NA,NA,NA,NA,NA,NA,NA,NA
b1e4d,deep,flow.Sequence,1_1_3_0,NA,NA,skipped,NA,122594,NA,NA,122590.1,122594,2023-04-28T12:29:14Z,122605.84,"c(""distractor1"", ""distractor2"", ""distractor3"")",Rückhalt,msaada,s,muhula,auwali,kiwimbe,NA,NA,NA,NA,NA,NA,NA,NA,NA,NA,NA,NA,NA,NA,NA,NA,NA,NA,NA,NA,NA,NA,NA
b1e4d,Shallow Question,html.Page,1_1_3_1_0,NA,NA,form submission,10613.16,122594,122590.1,122605.84,133219,133220,2023-04-28T12:29:24Z,133224.94,"c(""distractor1"", ""distractor2"", ""distractor3"")",Rückhalt,msaada,s,muhula,auwali,kiwimbe,kiwimbe,NA,NA,NA,NA,NA,NA,NA,NA,NA,NA,NA,NA,NA,NA,NA,NA,NA,NA,NA,NA,NA,NA
b1e4d,"""Richtig""-Screen",canvas.Screen,1_1_3_1_1,NA,NA,skipped,NA,133224,NA,NA,133219,133224,2023-04-28T12:29:24Z,133224.94,"c(""distractor1"", ""distractor2"", ""distractor3"")",Rückhalt,msaada,s,muhula,auwali,kiwimbe,NA,NA,NA,NA,NA,NA,NA,NA,NA,NA,NA,NA,NA,NA,NA,NA,NA,NA,NA,NA,NA,NA,NA
b1e4d,"""Falsch""-Screen",canvas.Screen,1_1_3_1_2,NA,NA,timeout,5006.1,133228,133217.4,133224.94,138213.8,138215,2023-04-28T12:29:29Z,138231.04,"c(""distractor1"", ""distractor2"", ""distractor3"")",Rückhalt,msaada,s,muhula,auwali,kiwimbe,NA,NA,0,NA,NA,NA,NA,NA,NA,NA,NA,NA,NA,NA,NA,NA,NA,NA,NA,NA,NA,NA,NA
b1e4d,shallow,flow.Sequence,1_1_3_1,NA,NA,completion,15607.96,122594,122590.1,122605.84,138213.8,138215,2023-04-28T12:29:29Z,138231.04,"c(""distractor1"", ""distractor2"", ""distractor3"")",Rückhalt,msaada,s,muhula,auwali,kiwimbe,NA,NA,NA,NA,NA,NA,NA,NA,NA,NA,NA,NA,NA,NA,NA,NA,NA,NA,NA,NA,NA,NA,NA
b1e4d,task,flow.Sequence,1_1_3,NA,NA,completion,15607.96,122593,122590.1,122605.84,138213.8,138215,2023-04-28T12:29:29Z,138231.04,"c(""distractor1"", ""distractor2"", ""distractor3"")",Rückhalt,msaada,s,muhula,auwali,kiwimbe,NA,NA,NA,NA,NA,NA,NA,NA,NA,NA,NA,NA,NA,NA,NA,NA,NA,NA,NA,NA,NA,NA,NA
b1e4d,deep,flow.Sequence,1_1_4_0,NA,NA,skipped,NA,138216,NA,NA,138213.8,138216,2023-04-28T12:29:29Z,138231.04,"c(""distractor1"", ""distractor2"", ""distractor3"")",Kritik,lawama,s,dereva,nafasi,mawazo,NA,NA,NA,NA,NA,NA,NA,NA,NA,NA,NA,NA,NA,NA,NA,NA,NA,NA,NA,NA,NA,NA,NA
b1e4d,Shallow Question,html.Page,1_1_4_1_0,NA,NA,form submission,8344.96,138216,138213.8,138231.04,146576,146576,2023-04-28T12:29:38Z,146579.28,"c(""distractor1"", ""distractor2"", ""distractor3"")",Kritik,lawama,s,dereva,nafasi,mawazo,dereva,NA,NA,NA,NA,NA,NA,NA,NA,NA,NA,NA,NA,NA,NA,NA,NA,NA,NA,NA,NA,NA,NA
b1e4d,"""Richtig""-Screen",canvas.Screen,1_1_4_1_1,NA,NA,skipped,NA,146578,NA,NA,146576,146578,2023-04-28T12:29:38Z,146579.28,"c(""distractor1"", ""distractor2"", ""distractor3"")",Kritik,lawama,s,dereva,nafasi,mawazo,NA,NA,NA,NA,NA,NA,NA,NA,NA,NA,NA,NA,NA,NA,NA,NA,NA,NA,NA,NA,NA,NA,NA
b1e4d,"""Falsch""-Screen",canvas.Screen,1_1_4_1_2,NA,NA,timeout,4997.24,146581,146574.68,146579.28,151560.18,151561,2023-04-28T12:29:43Z,151576.52,"c(""distractor1"", ""distractor2"", ""distractor3"")",Kritik,lawama,s,dereva,nafasi,mawazo,NA,NA,0,NA,NA,NA,NA,NA,NA,NA,NA,NA,NA,NA,NA,NA,NA,NA,NA,NA,NA,NA,NA
b1e4d,shallow,flow.Sequence,1_1_4_1,NA,NA,completion,13329.14,138216,138213.8,138231.04,151560.18,151561,2023-04-28T12:29:43Z,151576.52,"c(""distractor1"", ""distractor2"", ""distractor3"")",Kritik,lawama,s,dereva,nafasi,mawazo,NA,NA,NA,NA,NA,NA,NA,NA,NA,NA,NA,NA,NA,NA,NA,NA,NA,NA,NA,NA,NA,NA,NA
b1e4d,task,flow.Sequence,1_1_4,NA,NA,completion,13329.14,138216,138213.8,138231.04,151560.18,151561,2023-04-28T12:29:43Z,151576.52,"c(""distractor1"", ""distractor2"", ""distractor3"")",Kritik,lawama,s,dereva,nafasi,mawazo,NA,NA,NA,NA,NA,NA,NA,NA,NA,NA,NA,NA,NA,NA,NA,NA,NA,NA,NA,NA,NA,NA,NA
b1e4d,Deep Question,html.Page,1_1_5_0_0,NA,NA,form submission,8316.48,151562,151560.18,151576.52,159893,159894,2023-04-28T12:29:51Z,159904.78,"c(""distractor1"", ""distractor2"", ""distractor3"")",Gesundheit,salama,d,NA,NA,NA,mwabali,NA,NA,NA,NA,NA,NA,NA,NA,NA,NA,NA,NA,NA,NA,NA,NA,NA,NA,NA,NA,NA,NA
b1e4d,"""Richtig""-Screen",canvas.Screen,1_1_5_0_1,NA,NA,skipped,NA,159895,NA,NA,159893,159895,2023-04-28T12:29:51Z,159904.78,"c(""distractor1"", ""distractor2"", ""distractor3"")",Gesundheit,salama,d,NA,NA,NA,NA,NA,NA,NA,NA,NA,NA,NA,NA,NA,NA,NA,NA,NA,NA,NA,NA,NA,NA,NA,NA,NA,NA
b1e4d,"""Falsch""-Screen",canvas.Screen,1_1_5_0_2,NA,NA,timeout,5000.18,159898,159891.14,159904.78,164888.22,164889,2023-04-28T12:29:56Z,164904.96,"c(""distractor1"", ""distractor2"", ""distractor3"")",Gesundheit,salama,d,NA,NA,NA,NA,NA,0,NA,NA,NA,NA,NA,NA,NA,NA,NA,NA,NA,NA,NA,NA,NA,NA,NA,NA,NA,NA
b1e4d,deep,flow.Sequence,1_1_5_0,NA,NA,completion,13311.7,151562,151560.18,151576.52,164888.22,164889,2023-04-28T12:29:56Z,164904.96,"c(""distractor1"", ""distractor2"", ""distractor3"")",Gesundheit,salama,d,NA,NA,NA,NA,NA,NA,NA,NA,NA,NA,NA,NA,NA,NA,NA,NA,NA,NA,NA,NA,NA,NA,NA,NA,NA,NA
b1e4d,shallow,flow.Sequence,1_1_5_1,NA,NA,skipped,NA,164889,NA,NA,164888.22,164889,2023-04-28T12:29:56Z,164904.96,"c(""distractor1"", ""distractor2"", ""distractor3"")",Gesundheit,salama,d,NA,NA,NA,NA,NA,NA,NA,NA,NA,NA,NA,NA,NA,NA,NA,NA,NA,NA,NA,NA,NA,NA,NA,NA,NA,NA
b1e4d,task,flow.Sequence,1_1_5,NA,NA,completion,13311.7,151561,151560.18,151576.52,164888.22,164889,2023-04-28T12:29:56Z,164904.96,"c(""distractor1"", ""distractor2"", ""distractor3"")",Gesundheit,salama,d,NA,NA,NA,NA,NA,NA,NA,NA,NA,NA,NA,NA,NA,NA,NA,NA,NA,NA,NA,NA,NA,NA,NA,NA,NA,NA
b1e4d,block,flow.Loop,1_1,NA,NA,completion,87628.34,77259,77259.62,77259.88,164888.22,164889,2023-04-28T12:29:56Z,164904.96,"c(""distractor1"", ""distractor2"", ""distractor3"")",NA,NA,NA,NA,NA,NA,NA,NA,NA,NA,NA,NA,NA,NA,NA,NA,NA,NA,NA,NA,NA,NA,NA,NA,NA,NA,NA,NA,NA
b1e4d,Practice,flow.Sequence,1,NA,NA,completion,97289.26,67598,67598.7,67598.96,164888.22,164889,2023-04-28T12:29:56Z,164904.96,NULL,NA,NA,NA,NA,NA,NA,NA,NA,NA,NA,NA,NA,NA,NA,NA,NA,NA,NA,NA,NA,NA,NA,NA,NA,NA,NA,NA,NA,NA
b1e4d,Experiment start,canvas.Screen,2,weiter,keypress(q),response,67011.04,164889,164888.22,164904.96,231916,231923,2023-04-28T12:31:03Z,232036.46,NULL,NA,NA,NA,NA,NA,NA,NA,NA,NA,NA,NA,NA,NA,NA,NA,NA,NA,NA,NA,NA,NA,NA,NA,NA,NA,NA,NA,NA,NA
b1e4d,Deep Question,html.Page,3_0_0_0_0_0_0,NA,NA,form submission,15328.54,232036,232036.16,232036.46,247365,247365,2023-04-28T12:31:18Z,247376.84,NULL,Beweis,ushahidi,d,NA,NA,NA,kerewa,NA,NA,0,NA,NA,NA,NA,NA,NA,NA,NA,NA,NA,NA,NA,NA,NA,NA,NA,NA,NA,NA
b1e4d,"""Richtig""-Screen",canvas.Screen,3_0_0_0_0_0_1,NA,NA,skipped,NA,247368,NA,NA,247365,247368,2023-04-28T12:31:19Z,247376.84,NULL,Beweis,ushahidi,d,NA,NA,NA,NA,sdf,NA,0,NA,NA,NA,NA,NA,NA,NA,NA,NA,NA,NA,NA,NA,NA,NA,NA,NA,NA,NA
b1e4d,"""Falsch""-Screen",canvas.Screen,3_0_0_0_0_0_2,NA,NA,timeout,4999.94,247369,247363.4,247376.84,252360.88,252362,2023-04-28T12:31:23Z,252376.78,NULL,Beweis,ushahidi,d,NA,NA,NA,NA,sdf,0,0,NA,NA,NA,NA,NA,NA,NA,NA,NA,NA,NA,NA,NA,NA,NA,NA,NA,NA,NA
b1e4d,deep,flow.Sequence,3_0_0_0_0_0,NA,NA,completion,20324.42,232036,232036.16,232036.46,252360.88,252362,2023-04-28T12:31:23Z,252376.78,NULL,Beweis,ushahidi,d,NA,NA,NA,NA,sdf,NA,0,NA,NA,NA,NA,NA,NA,NA,NA,NA,NA,NA,NA,NA,NA,NA,NA,NA,NA,NA
b1e4d,shallow,flow.Sequence,3_0_0_0_0_1,NA,NA,skipped,NA,252362,NA,NA,252360.88,252362,2023-04-28T12:31:23Z,252376.78,NULL,Beweis,ushahidi,d,NA,NA,NA,NA,sdf,NA,0,NA,NA,NA,NA,NA,NA,NA,NA,NA,NA,NA,NA,NA,NA,NA,NA,NA,NA,NA
b1e4d,task,flow.Sequence,3_0_0_0_0,NA,NA,completion,20324.42,232036,232036.16,232036.46,252360.88,252362,2023-04-28T12:31:23Z,252376.78,NULL,Beweis,ushahidi,d,NA,NA,NA,NA,sdf,NA,0,NA,NA,NA,NA,NA,NA,NA,NA,NA,NA,NA,NA,NA,NA,NA,NA,NA,NA,NA
b1e4d,Deep Question,html.Page,3_0_0_0_1_0_0,NA,NA,form submission,6917.22,252362,252360.88,252376.78,259294,259295,2023-04-28T12:31:30Z,259299.32,NULL,Prüfung,mtihani,d,NA,NA,NA,titisi,NA,NA,0,NA,NA,NA,NA,NA,NA,NA,NA,NA,NA,NA,NA,NA,NA,NA,NA,NA,NA,NA
b1e4d,"""Richtig""-Screen",canvas.Screen,3_0_0_0_1_0_1,NA,NA,skipped,NA,259296,NA,NA,259294,259296,2023-04-28T12:31:30Z,259299.32,NULL,Prüfung,mtihani,d,NA,NA,NA,NA,sdf,NA,0,NA,NA,NA,NA,NA,NA,NA,NA,NA,NA,NA,NA,NA,NA,NA,NA,NA,NA,NA
b1e4d,"""Falsch""-Screen",canvas.Screen,3_0_0_0_1_0_2,NA,NA,timeout,5005.1,259297,259292.14,259299.32,264287.24,264288,2023-04-28T12:31:35Z,264304.42,NULL,Prüfung,mtihani,d,NA,NA,NA,NA,sdf,0,0,NA,NA,NA,NA,NA,NA,NA,NA,NA,NA,NA,NA,NA,NA,NA,NA,NA,NA,NA
b1e4d,deep,flow.Sequence,3_0_0_0_1_0,NA,NA,completion,11910.46,252362,252360.88,252376.78,264287.24,264289,2023-04-28T12:31:35Z,264304.42,NULL,Prüfung,mtihani,d,NA,NA,NA,NA,sdf,NA,0,NA,NA,NA,NA,NA,NA,NA,NA,NA,NA,NA,NA,NA,NA,NA,NA,NA,NA,NA
b1e4d,shallow,flow.Sequence,3_0_0_0_1_1,NA,NA,skipped,NA,264289,NA,NA,264287.24,264289,2023-04-28T12:31:35Z,264304.42,NULL,Prüfung,mtihani,d,NA,NA,NA,NA,sdf,NA,0,NA,NA,NA,NA,NA,NA,NA,NA,NA,NA,NA,NA,NA,NA,NA,NA,NA,NA,NA
b1e4d,task,flow.Sequence,3_0_0_0_1,NA,NA,completion,11910.46,252362,252360.88,252376.78,264287.24,264290,2023-04-28T12:31:35Z,264304.42,NULL,Prüfung,mtihani,d,NA,NA,NA,NA,sdf,NA,0,NA,NA,NA,NA,NA,NA,NA,NA,NA,NA,NA,NA,NA,NA,NA,NA,NA,NA,NA
b1e4d,Deep Question,html.Page,3_0_0_0_2_0_0,NA,NA,form submission,7420.58,264290,264287.24,264304.42,271725,271726,2023-04-28T12:31:43Z,271726.76,NULL,Aufstand,ugomaji,d,NA,NA,NA,saramba,NA,NA,0,NA,NA,NA,NA,NA,NA,NA,NA,NA,NA,NA,NA,NA,NA,NA,NA,NA,NA,NA
b1e4d,"""Richtig""-Screen",canvas.Screen,3_0_0_0_2_0_1,NA,NA,skipped,NA,271729,NA,NA,271725,271729,2023-04-28T12:31:43Z,271726.76,NULL,Aufstand,ugomaji,d,NA,NA,NA,NA,sdf,NA,0,NA,NA,NA,NA,NA,NA,NA,NA,NA,NA,NA,NA,NA,NA,NA,NA,NA,NA,NA
b1e4d,"""Falsch""-Screen",canvas.Screen,3_0_0_0_2_0_2,NA,NA,timeout,4993.38,271732,271722.72,271726.76,276703.46,276704,2023-04-28T12:31:48Z,276720.14,NULL,Aufstand,ugomaji,d,NA,NA,NA,NA,sdf,0,0,NA,NA,NA,NA,NA,NA,NA,NA,NA,NA,NA,NA,NA,NA,NA,NA,NA,NA,NA
b1e4d,deep,flow.Sequence,3_0_0_0_2_0,NA,NA,completion,12399.04,264290,264287.24,264304.42,276703.46,276704,2023-04-28T12:31:48Z,276720.14,NULL,Aufstand,ugomaji,d,NA,NA,NA,NA,sdf,NA,0,NA,NA,NA,NA,NA,NA,NA,NA,NA,NA,NA,NA,NA,NA,NA,NA,NA,NA,NA
b1e4d,shallow,flow.Sequence,3_0_0_0_2_1,NA,NA,skipped,NA,276704,NA,NA,276703.46,276704,2023-04-28T12:31:48Z,276720.14,NULL,Aufstand,ugomaji,d,NA,NA,NA,NA,sdf,NA,0,NA,NA,NA,NA,NA,NA,NA,NA,NA,NA,NA,NA,NA,NA,NA,NA,NA,NA,NA
b1e4d,task,flow.Sequence,3_0_0_0_2,NA,NA,completion,12399.04,264290,264287.24,264304.42,276703.46,276704,2023-04-28T12:31:48Z,276720.14,NULL,Aufstand,ugomaji,d,NA,NA,NA,NA,sdf,NA,0,NA,NA,NA,NA,NA,NA,NA,NA,NA,NA,NA,NA,NA,NA,NA,NA,NA,NA,NA
b1e4d,Deep Question,html.Page,3_0_0_0_3_0_0,NA,NA,form submission,7587.86,276705,276703.46,276720.14,284308,284308,2023-04-28T12:31:55Z,284318.4,NULL,Polizist,msongora,d,NA,NA,NA,dembera,NA,NA,0,NA,NA,NA,NA,NA,NA,NA,NA,NA,NA,NA,NA,NA,NA,NA,NA,NA,NA,NA
b1e4d,"""Richtig""-Screen",canvas.Screen,3_0_0_0_3_0_1,NA,NA,skipped,NA,284310,NA,NA,284308,284310,2023-04-28T12:31:55Z,284318.4,NULL,Polizist,msongora,d,NA,NA,NA,NA,sdf,NA,0,NA,NA,NA,NA,NA,NA,NA,NA,NA,NA,NA,NA,NA,NA,NA,NA,NA,NA,NA
b1e4d,"""Falsch""-Screen",canvas.Screen,3_0_0_0_3_0_2,NA,NA,timeout,5001.8,284312,284305.94,284318.4,289303.84,289304,2023-04-28T12:32:00Z,289320.2,NULL,Polizist,msongora,d,NA,NA,NA,NA,sdf,0,0,NA,NA,NA,NA,NA,NA,NA,NA,NA,NA,NA,NA,NA,NA,NA,NA,NA,NA,NA
b1e4d,deep,flow.Sequence,3_0_0_0_3_0,NA,NA,completion,12583.7,276705,276703.46,276720.14,289303.84,289304,2023-04-28T12:32:00Z,289320.2,NULL,Polizist,msongora,d,NA,NA,NA,NA,sdf,NA,0,NA,NA,NA,NA,NA,NA,NA,NA,NA,NA,NA,NA,NA,NA,NA,NA,NA,NA,NA
b1e4d,shallow,flow.Sequence,3_0_0_0_3_1,NA,NA,skipped,NA,289305,NA,NA,289303.84,289305,2023-04-28T12:32:00Z,289320.2,NULL,Polizist,msongora,d,NA,NA,NA,NA,sdf,NA,0,NA,NA,NA,NA,NA,NA,NA,NA,NA,NA,NA,NA,NA,NA,NA,NA,NA,NA,NA
b1e4d,task,flow.Sequence,3_0_0_0_3,NA,NA,completion,12583.7,276705,276703.46,276720.14,289303.84,289305,2023-04-28T12:32:00Z,289320.2,NULL,Polizist,msongora,d,NA,NA,NA,NA,sdf,NA,0,NA,NA,NA,NA,NA,NA,NA,NA,NA,NA,NA,NA,NA,NA,NA,NA,NA,NA,NA
b1e4d,deep,flow.Sequence,3_0_0_0_4_0,NA,NA,skipped,NA,289305,NA,NA,289303.84,289305,2023-04-28T12:32:00Z,289320.2,NULL,Kultur,utamaduni,s,shetani,gerezani,mazingira,NA,sdf,NA,0,NA,NA,NA,NA,NA,NA,NA,NA,NA,NA,NA,NA,NA,NA,NA,NA,NA,NA,NA
b1e4d,Shallow Question,html.Page,3_0_0_0_4_1_0,NA,NA,form submission,9673.8,289305,289303.84,289320.2,298994,298994,2023-04-28T12:32:10Z,299000.98,NULL,Kultur,utamaduni,s,shetani,gerezani,mazingira,utamaduni,NA,NA,0,NA,NA,NA,NA,NA,NA,NA,NA,NA,NA,NA,NA,NA,NA,NA,NA,NA,NA,NA
b1e4d,"""Richtig""-Screen",canvas.Screen,3_0_0_0_4_1_1,NA,NA,timeout,5004.66,298996,298992.58,299000.98,303989.22,303989,2023-04-28T12:32:15Z,304005.64,NULL,Kultur,utamaduni,s,shetani,gerezani,mazingira,NA,sdf,1,0,NA,NA,NA,NA,NA,NA,NA,NA,NA,NA,NA,NA,NA,NA,NA,NA,NA,NA,NA
b1e4d,"""Falsch""-Screen",canvas.Screen,3_0_0_0_4_1_2,NA,NA,skipped,NA,303992,NA,NA,303989.22,303992,2023-04-28T12:32:15Z,304005.64,NULL,Kultur,utamaduni,s,shetani,gerezani,mazingira,NA,sdf,NA,0,NA,NA,NA,NA,NA,NA,NA,NA,NA,NA,NA,NA,NA,NA,NA,NA,NA,NA,NA
b1e4d,shallow,flow.Sequence,3_0_0_0_4_1,NA,NA,completion,14669.02,289305,289303.84,289320.2,303989.22,303992,2023-04-28T12:32:15Z,304005.64,NULL,Kultur,utamaduni,s,shetani,gerezani,mazingira,NA,sdf,NA,0,NA,NA,NA,NA,NA,NA,NA,NA,NA,NA,NA,NA,NA,NA,NA,NA,NA,NA,NA
b1e4d,task,flow.Sequence,3_0_0_0_4,NA,NA,completion,14669.02,289305,289303.84,289320.2,303989.22,303992,2023-04-28T12:32:15Z,304005.64,NULL,Kultur,utamaduni,s,shetani,gerezani,mazingira,NA,sdf,NA,0,NA,NA,NA,NA,NA,NA,NA,NA,NA,NA,NA,NA,NA,NA,NA,NA,NA,NA,NA
b1e4d,deep,flow.Sequence,3_0_0_0_5_0,NA,NA,skipped,NA,303994,NA,NA,303989.22,303994,2023-04-28T12:32:15Z,304005.64,NULL,Sympathie,mapendano,s,dhamiria,fungamano,maazimio,NA,sdf,NA,0,NA,NA,NA,NA,NA,NA,NA,NA,NA,NA,NA,NA,NA,NA,NA,NA,NA,NA,NA
b1e4d,Shallow Question,html.Page,3_0_0_0_5_1_0,NA,NA,form submission,9238.36,303994,303989.22,304005.64,313244,313244,2023-04-28T12:32:24Z,313243.86,NULL,Sympathie,mapendano,s,dhamiria,fungamano,maazimio,fungamano,NA,NA,0,NA,NA,NA,NA,NA,NA,NA,NA,NA,NA,NA,NA,NA,NA,NA,NA,NA,NA,NA
b1e4d,"""Richtig""-Screen",canvas.Screen,3_0_0_0_5_1_1,NA,NA,skipped,NA,313246,NA,NA,313244,313246,2023-04-28T12:32:24Z,313243.86,NULL,Sympathie,mapendano,s,dhamiria,fungamano,maazimio,NA,sdf,NA,0,NA,NA,NA,NA,NA,NA,NA,NA,NA,NA,NA,NA,NA,NA,NA,NA,NA,NA,NA
b1e4d,"""Falsch""-Screen",canvas.Screen,3_0_0_0_5_1_2,NA,NA,timeout,4996.38,313248,313242.46,313243.86,318223.58,318224,2023-04-28T12:32:29Z,318240.24,NULL,Sympathie,mapendano,s,dhamiria,fungamano,maazimio,NA,sdf,0,0,NA,NA,NA,NA,NA,NA,NA,NA,NA,NA,NA,NA,NA,NA,NA,NA,NA,NA,NA
b1e4d,shallow,flow.Sequence,3_0_0_0_5_1,NA,NA,completion,14217.94,303994,303989.22,304005.64,318223.58,318224,2023-04-28T12:32:29Z,318240.24,NULL,Sympathie,mapendano,s,dhamiria,fungamano,maazimio,NA,sdf,NA,0,NA,NA,NA,NA,NA,NA,NA,NA,NA,NA,NA,NA,NA,NA,NA,NA,NA,NA,NA
b1e4d,task,flow.Sequence,3_0_0_0_5,NA,NA,completion,14217.94,303994,303989.22,304005.64,318223.58,318224,2023-04-28T12:32:29Z,318240.24,NULL,Sympathie,mapendano,s,dhamiria,fungamano,maazimio,NA,sdf,NA,0,NA,NA,NA,NA,NA,NA,NA,NA,NA,NA,NA,NA,NA,NA,NA,NA,NA,NA,NA
b1e4d,deep,flow.Sequence,3_0_0_0_6_0,NA,NA,skipped,NA,318224,NA,NA,318223.58,318224,2023-04-28T12:32:29Z,318240.24,NULL,Verzögerung,kuchelewa,s,mwakilishi,mwanauchumi,jaribio,NA,sdf,NA,0,NA,NA,NA,NA,NA,NA,NA,NA,NA,NA,NA,NA,NA,NA,NA,NA,NA,NA,NA
b1e4d,Shallow Question,html.Page,3_0_0_0_6_1_0,NA,NA,form submission,17046.76,318225,318223.58,318240.24,335287,335288,2023-04-28T12:32:46Z,335297.38,NULL,Verzögerung,kuchelewa,s,mwakilishi,mwanauchumi,jaribio,mwakilishi,NA,NA,0,NA,NA,NA,NA,NA,NA,NA,NA,NA,NA,NA,NA,NA,NA,NA,NA,NA,NA,NA
b1e4d,"""Richtig""-Screen",canvas.Screen,3_0_0_0_6_1_1,NA,NA,skipped,NA,335293,NA,NA,335287,335293,2023-04-28T12:32:46Z,335297.38,NULL,Verzögerung,kuchelewa,s,mwakilishi,mwanauchumi,jaribio,NA,sdf,NA,0,NA,NA,NA,NA,NA,NA,NA,NA,NA,NA,NA,NA,NA,NA,NA,NA,NA,NA,NA
b1e4d,"""Falsch""-Screen",canvas.Screen,3_0_0_0_6_1_2,NA,NA,timeout,5002.1,335296,335284.92,335297.38,340282.8,340283,2023-04-28T12:32:51Z,340299.48,NULL,Verzögerung,kuchelewa,s,mwakilishi,mwanauchumi,jaribio,NA,sdf,0,0,NA,NA,NA,NA,NA,NA,NA,NA,NA,NA,NA,NA,NA,NA,NA,NA,NA,NA,NA
b1e4d,shallow,flow.Sequence,3_0_0_0_6_1,NA,NA,completion,22042.56,318225,318223.58,318240.24,340282.8,340284,2023-04-28T12:32:51Z,340299.48,NULL,Verzögerung,kuchelewa,s,mwakilishi,mwanauchumi,jaribio,NA,sdf,NA,0,NA,NA,NA,NA,NA,NA,NA,NA,NA,NA,NA,NA,NA,NA,NA,NA,NA,NA,NA
b1e4d,task,flow.Sequence,3_0_0_0_6,NA,NA,completion,22042.56,318224,318223.58,318240.24,340282.8,340284,2023-04-28T12:32:51Z,340299.48,NULL,Verzögerung,kuchelewa,s,mwakilishi,mwanauchumi,jaribio,NA,sdf,NA,0,NA,NA,NA,NA,NA,NA,NA,NA,NA,NA,NA,NA,NA,NA,NA,NA,NA,NA,NA
b1e4d,deep,flow.Sequence,3_0_0_0_7_0,NA,NA,skipped,NA,340284,NA,NA,340282.8,340285,2023-04-28T12:32:51Z,340299.48,NULL,Annäherung,maegesho,s,madahili,kujiamini,mapendekezo,NA,sdf,NA,0,NA,NA,NA,NA,NA,NA,NA,NA,NA,NA,NA,NA,NA,NA,NA,NA,NA,NA,NA
b1e4d,Shallow Question,html.Page,3_0_0_0_7_1_0,NA,NA,form submission,15086.52,340285,340282.8,340299.48,355386,355387,2023-04-28T12:33:07Z,355391.6,NULL,Annäherung,maegesho,s,madahili,kujiamini,mapendekezo,mapendekezo,NA,NA,0,NA,NA,NA,NA,NA,NA,NA,NA,NA,NA,NA,NA,NA,NA,NA,NA,NA,NA,NA
b1e4d,"""Richtig""-Screen",canvas.Screen,3_0_0_0_7_1_1,NA,NA,skipped,NA,355389,NA,NA,355386,355389,2023-04-28T12:33:07Z,355391.6,NULL,Annäherung,maegesho,s,madahili,kujiamini,mapendekezo,NA,sdf,NA,0,NA,NA,NA,NA,NA,NA,NA,NA,NA,NA,NA,NA,NA,NA,NA,NA,NA,NA,NA
b1e4d,"""Falsch""-Screen",canvas.Screen,3_0_0_0_7_1_2,NA,NA,timeout,4990.88,355391,355384.86,355391.6,360365.58,360367,2023-04-28T12:33:12Z,360382.48,NULL,Annäherung,maegesho,s,madahili,kujiamini,mapendekezo,NA,sdf,0,0,NA,NA,NA,NA,NA,NA,NA,NA,NA,NA,NA,NA,NA,NA,NA,NA,NA,NA,NA
b1e4d,shallow,flow.Sequence,3_0_0_0_7_1,NA,NA,completion,20066.1,340285,340282.8,340299.48,360365.58,360367,2023-04-28T12:33:12Z,360382.48,NULL,Annäherung,maegesho,s,madahili,kujiamini,mapendekezo,NA,sdf,NA,0,NA,NA,NA,NA,NA,NA,NA,NA,NA,NA,NA,NA,NA,NA,NA,NA,NA,NA,NA
b1e4d,task,flow.Sequence,3_0_0_0_7,NA,NA,completion,20066.1,340284,340282.8,340299.48,360365.58,360367,2023-04-28T12:33:12Z,360382.48,NULL,Annäherung,maegesho,s,madahili,kujiamini,mapendekezo,NA,sdf,NA,0,NA,NA,NA,NA,NA,NA,NA,NA,NA,NA,NA,NA,NA,NA,NA,NA,NA,NA,NA
b1e4d,block,flow.Loop,3_0_0_0,NA,NA,completion,128329.12,232036,232036.16,232036.46,360365.58,360367,2023-04-28T12:33:12Z,360382.48,NULL,NA,NA,NA,NA,NA,NA,NA,sdf,NA,0,NA,NA,NA,NA,NA,NA,NA,NA,NA,NA,NA,NA,NA,NA,NA,NA,NA,NA,NA
b1e4d,weiter,canvas.Screen,3_0_0_1,sdf,keypress(Space),response,1440.52,360367,360365.58,360382.48,361823,361829,2023-04-28T12:33:13Z,361897.92,NULL,NA,NA,NA,NA,NA,NA,NA,sdf,NA,0,NA,NA,NA,NA,NA,NA,NA,NA,NA,NA,NA,NA,NA,NA,NA,NA,NA,NA,NA
b1e4d,check continue,flow.Sequence,3_0_0,NA,NA,completion,129786.54,232036,232036.16,232036.46,361823,361831,2023-04-28T12:33:13Z,361897.92,NULL,NA,NA,NA,NA,NA,NA,NA,sdf,NA,0,NA,NA,NA,NA,NA,NA,NA,NA,NA,NA,NA,NA,NA,NA,NA,NA,NA,NA,NA
b1e4d,Deep Question,html.Page,3_0_1_0_0_0_0,NA,NA,form submission,15690.08,361896,361896.44,361897.92,377588,377588,2023-04-28T12:33:29Z,377600.06,NULL,Polizist,msongora,d,NA,NA,NA,nsorongano,NA,NA,1,NA,NA,NA,NA,NA,NA,NA,NA,NA,NA,NA,NA,NA,NA,NA,NA,NA,NA,NA
b1e4d,"""Richtig""-Screen",canvas.Screen,3_0_1_0_0_0_1,NA,NA,skipped,NA,377590,NA,NA,377588,377590,2023-04-28T12:33:29Z,377600.06,NULL,Polizist,msongora,d,NA,NA,NA,NA,sdfdsf,NA,1,NA,NA,NA,NA,NA,NA,NA,NA,NA,NA,NA,NA,NA,NA,NA,NA,NA,NA,NA
b1e4d,"""Falsch""-Screen",canvas.Screen,3_0_1_0_0_0_2,NA,NA,timeout,4998.46,377592,377585.48,377600.06,382582.84,382584,2023-04-28T12:33:34Z,382598.52,NULL,Polizist,msongora,d,NA,NA,NA,NA,sdfdsf,0,1,NA,NA,NA,NA,NA,NA,NA,NA,NA,NA,NA,NA,NA,NA,NA,NA,NA,NA,NA
b1e4d,deep,flow.Sequence,3_0_1_0_0_0,NA,NA,completion,20684.92,361896,361896.44,361897.92,382582.84,382584,2023-04-28T12:33:34Z,382598.52,NULL,Polizist,msongora,d,NA,NA,NA,NA,sdfdsf,NA,1,NA,NA,NA,NA,NA,NA,NA,NA,NA,NA,NA,NA,NA,NA,NA,NA,NA,NA,NA
b1e4d,shallow,flow.Sequence,3_0_1_0_0_1,NA,NA,skipped,NA,382584,NA,NA,382582.84,382584,2023-04-28T12:33:34Z,382598.52,NULL,Polizist,msongora,d,NA,NA,NA,NA,sdfdsf,NA,1,NA,NA,NA,NA,NA,NA,NA,NA,NA,NA,NA,NA,NA,NA,NA,NA,NA,NA,NA
b1e4d,task,flow.Sequence,3_0_1_0_0,NA,NA,completion,20684.92,361896,361896.44,361897.92,382582.84,382585,2023-04-28T12:33:34Z,382598.52,NULL,Polizist,msongora,d,NA,NA,NA,NA,sdfdsf,NA,1,NA,NA,NA,NA,NA,NA,NA,NA,NA,NA,NA,NA,NA,NA,NA,NA,NA,NA,NA
b1e4d,Deep Question,html.Page,3_0_1_0_1_0_0,NA,NA,form submission,12813.48,382585,382582.84,382598.52,395412,395412,2023-04-28T12:33:47Z,395417.58,NULL,Beweis,ushahidi,d,NA,NA,NA,mhualishi,NA,NA,1,NA,NA,NA,NA,NA,NA,NA,NA,NA,NA,NA,NA,NA,NA,NA,NA,NA,NA,NA
b1e4d,"""Richtig""-Screen",canvas.Screen,3_0_1_0_1_0_1,NA,NA,skipped,NA,395414,NA,NA,395412,395414,2023-04-28T12:33:47Z,395417.58,NULL,Beweis,ushahidi,d,NA,NA,NA,NA,sdfdsf,NA,1,NA,NA,NA,NA,NA,NA,NA,NA,NA,NA,NA,NA,NA,NA,NA,NA,NA,NA,NA
b1e4d,"""Falsch""-Screen",canvas.Screen,3_0_1_0_1_0_2,NA,NA,timeout,5006.94,395415,395410.68,395417.58,400408.02,400408,2023-04-28T12:33:52Z,400424.52,NULL,Beweis,ushahidi,d,NA,NA,NA,NA,sdfdsf,0,1,NA,NA,NA,NA,NA,NA,NA,NA,NA,NA,NA,NA,NA,NA,NA,NA,NA,NA,NA
b1e4d,deep,flow.Sequence,3_0_1_0_1_0,NA,NA,completion,17809.5,382585,382582.84,382598.52,400408.02,400409,2023-04-28T12:33:52Z,400424.52,NULL,Beweis,ushahidi,d,NA,NA,NA,NA,sdfdsf,NA,1,NA,NA,NA,NA,NA,NA,NA,NA,NA,NA,NA,NA,NA,NA,NA,NA,NA,NA,NA
b1e4d,shallow,flow.Sequence,3_0_1_0_1_1,NA,NA,skipped,NA,400409,NA,NA,400408.02,400409,2023-04-28T12:33:52Z,400424.52,NULL,Beweis,ushahidi,d,NA,NA,NA,NA,sdfdsf,NA,1,NA,NA,NA,NA,NA,NA,NA,NA,NA,NA,NA,NA,NA,NA,NA,NA,NA,NA,NA
b1e4d,task,flow.Sequence,3_0_1_0_1,NA,NA,completion,17809.5,382585,382582.84,382598.52,400408.02,400409,2023-04-28T12:33:52Z,400424.52,NULL,Beweis,ushahidi,d,NA,NA,NA,NA,sdfdsf,NA,1,NA,NA,NA,NA,NA,NA,NA,NA,NA,NA,NA,NA,NA,NA,NA,NA,NA,NA,NA
b1e4d,deep,flow.Sequence,3_0_1_0_2_0,NA,NA,skipped,NA,400409,NA,NA,400408.02,400410,2023-04-28T12:33:52Z,400424.52,NULL,Annäherung,maegesho,s,madahili,kujiamini,mapendekezo,NA,sdfdsf,NA,1,NA,NA,NA,NA,NA,NA,NA,NA,NA,NA,NA,NA,NA,NA,NA,NA,NA,NA,NA
b1e4d,Shallow Question,html.Page,3_0_1_0_2_1_0,NA,NA,form submission,5565.48,400410,400408.02,400424.52,405990,405991,2023-04-28T12:33:57Z,405991.94,NULL,Annäherung,maegesho,s,madahili,kujiamini,mapendekezo,maegesho,NA,NA,1,NA,NA,NA,NA,NA,NA,NA,NA,NA,NA,NA,NA,NA,NA,NA,NA,NA,NA,NA
b1e4d,"""Richtig""-Screen",canvas.Screen,3_0_1_0_2_1_1,NA,NA,timeout,4999.2,405992,405988.68,405991.94,410975.5,410976,2023-04-28T12:34:02Z,410991.14,NULL,Annäherung,maegesho,s,madahili,kujiamini,mapendekezo,NA,sdfdsf,1,1,NA,NA,NA,NA,NA,NA,NA,NA,NA,NA,NA,NA,NA,NA,NA,NA,NA,NA,NA
b1e4d,"""Falsch""-Screen",canvas.Screen,3_0_1_0_2_1_2,NA,NA,skipped,NA,410978,NA,NA,410975.5,410978,2023-04-28T12:34:02Z,410991.14,NULL,Annäherung,maegesho,s,madahili,kujiamini,mapendekezo,NA,sdfdsf,NA,1,NA,NA,NA,NA,NA,NA,NA,NA,NA,NA,NA,NA,NA,NA,NA,NA,NA,NA,NA
b1e4d,shallow,flow.Sequence,3_0_1_0_2_1,NA,NA,completion,10550.98,400410,400408.02,400424.52,410975.5,410978,2023-04-28T12:34:02Z,410991.14,NULL,Annäherung,maegesho,s,madahili,kujiamini,mapendekezo,NA,sdfdsf,NA,1,NA,NA,NA,NA,NA,NA,NA,NA,NA,NA,NA,NA,NA,NA,NA,NA,NA,NA,NA
b1e4d,task,flow.Sequence,3_0_1_0_2,NA,NA,completion,10550.98,400409,400408.02,400424.52,410975.5,410978,2023-04-28T12:34:02Z,410991.14,NULL,Annäherung,maegesho,s,madahili,kujiamini,mapendekezo,NA,sdfdsf,NA,1,NA,NA,NA,NA,NA,NA,NA,NA,NA,NA,NA,NA,NA,NA,NA,NA,NA,NA,NA
b1e4d,deep,flow.Sequence,3_0_1_0_3_0,NA,NA,skipped,NA,410978,NA,NA,410975.5,410978,2023-04-28T12:34:02Z,410991.14,NULL,Sympathie,mapendano,s,dhamiria,fungamano,maazimio,NA,sdfdsf,NA,1,NA,NA,NA,NA,NA,NA,NA,NA,NA,NA,NA,NA,NA,NA,NA,NA,NA,NA,NA
b1e4d,Shallow Question,html.Page,3_0_1_0_3_1_0,NA,NA,form submission,14027.86,410978,410975.5,410991.14,425019,425020,2023-04-28T12:34:16Z,425032.46,NULL,Sympathie,mapendano,s,dhamiria,fungamano,maazimio,mapendano,NA,NA,1,NA,NA,NA,NA,NA,NA,NA,NA,NA,NA,NA,NA,NA,NA,NA,NA,NA,NA,NA
b1e4d,"""Richtig""-Screen",canvas.Screen,3_0_1_0_3_1_1,NA,NA,timeout,4998.2,425025,425016.38,425032.46,430013.84,430014,2023-04-28T12:34:21Z,430030.66,NULL,Sympathie,mapendano,s,dhamiria,fungamano,maazimio,NA,sdfdsf,1,1,NA,NA,NA,NA,NA,NA,NA,NA,NA,NA,NA,NA,NA,NA,NA,NA,NA,NA,NA
b1e4d,"""Falsch""-Screen",canvas.Screen,3_0_1_0_3_1_2,NA,NA,skipped,NA,430018,NA,NA,430013.84,430018,2023-04-28T12:34:21Z,430030.66,NULL,Sympathie,mapendano,s,dhamiria,fungamano,maazimio,NA,sdfdsf,NA,1,NA,NA,NA,NA,NA,NA,NA,NA,NA,NA,NA,NA,NA,NA,NA,NA,NA,NA,NA
b1e4d,shallow,flow.Sequence,3_0_1_0_3_1,NA,NA,completion,19022.7,410978,410975.5,410991.14,430013.84,430018,2023-04-28T12:34:21Z,430030.66,NULL,Sympathie,mapendano,s,dhamiria,fungamano,maazimio,NA,sdfdsf,NA,1,NA,NA,NA,NA,NA,NA,NA,NA,NA,NA,NA,NA,NA,NA,NA,NA,NA,NA,NA
b1e4d,task,flow.Sequence,3_0_1_0_3,NA,NA,completion,19022.7,410978,410975.5,410991.14,430013.84,430018,2023-04-28T12:34:21Z,430030.66,NULL,Sympathie,mapendano,s,dhamiria,fungamano,maazimio,NA,sdfdsf,NA,1,NA,NA,NA,NA,NA,NA,NA,NA,NA,NA,NA,NA,NA,NA,NA,NA,NA,NA,NA
b1e4d,deep,flow.Sequence,3_0_1_0_4_0,NA,NA,skipped,NA,430019,NA,NA,430013.84,430019,2023-04-28T12:34:21Z,430030.66,NULL,Verzögerung,kuchelewa,s,mwakilishi,mwanauchumi,jaribio,NA,sdfdsf,NA,1,NA,NA,NA,NA,NA,NA,NA,NA,NA,NA,NA,NA,NA,NA,NA,NA,NA,NA,NA
b1e4d,Shallow Question,html.Page,3_0_1_0_4_1_0,NA,NA,form submission,3589.34,430019,430013.84,430030.66,433620,433620,2023-04-28T12:34:25Z,433621.46,NULL,Verzögerung,kuchelewa,s,mwakilishi,mwanauchumi,jaribio,kuchelewa,NA,NA,1,NA,NA,NA,NA,NA,NA,NA,NA,NA,NA,NA,NA,NA,NA,NA,NA,NA,NA,NA
b1e4d,"""Richtig""-Screen",canvas.Screen,3_0_1_0_4_1_1,NA,NA,timeout,4994.38,433622,433618.64,433621.46,438599.2,438599,2023-04-28T12:34:30Z,438615.84,NULL,Verzögerung,kuchelewa,s,mwakilishi,mwanauchumi,jaribio,NA,sdfdsf,1,1,NA,NA,NA,NA,NA,NA,NA,NA,NA,NA,NA,NA,NA,NA,NA,NA,NA,NA,NA
b1e4d,"""Falsch""-Screen",canvas.Screen,3_0_1_0_4_1_2,NA,NA,skipped,NA,438602,NA,NA,438599.2,438602,2023-04-28T12:34:30Z,438615.84,NULL,Verzögerung,kuchelewa,s,mwakilishi,mwanauchumi,jaribio,NA,sdfdsf,NA,1,NA,NA,NA,NA,NA,NA,NA,NA,NA,NA,NA,NA,NA,NA,NA,NA,NA,NA,NA
b1e4d,shallow,flow.Sequence,3_0_1_0_4_1,NA,NA,completion,8568.54,430019,430013.84,430030.66,438599.2,438602,2023-04-28T12:34:30Z,438615.84,NULL,Verzögerung,kuchelewa,s,mwakilishi,mwanauchumi,jaribio,NA,sdfdsf,NA,1,NA,NA,NA,NA,NA,NA,NA,NA,NA,NA,NA,NA,NA,NA,NA,NA,NA,NA,NA
b1e4d,task,flow.Sequence,3_0_1_0_4,NA,NA,completion,8568.54,430019,430013.84,430030.66,438599.2,438603,2023-04-28T12:34:30Z,438615.84,NULL,Verzögerung,kuchelewa,s,mwakilishi,mwanauchumi,jaribio,NA,sdfdsf,NA,1,NA,NA,NA,NA,NA,NA,NA,NA,NA,NA,NA,NA,NA,NA,NA,NA,NA,NA,NA
b1e4d,deep,flow.Sequence,3_0_1_0_5_0,NA,NA,skipped,NA,438603,NA,NA,438599.2,438603,2023-04-28T12:34:30Z,438615.84,NULL,Kultur,utamaduni,s,shetani,gerezani,mazingira,NA,sdfdsf,NA,1,NA,NA,NA,NA,NA,NA,NA,NA,NA,NA,NA,NA,NA,NA,NA,NA,NA,NA,NA
b1e4d,Shallow Question,html.Page,3_0_1_0_5_1_0,NA,NA,form submission,10426.16,438603,438599.2,438615.84,449042,449042,2023-04-28T12:34:40Z,449047.98,NULL,Kultur,utamaduni,s,shetani,gerezani,mazingira,utamaduni,NA,NA,1,NA,NA,NA,NA,NA,NA,NA,NA,NA,NA,NA,NA,NA,NA,NA,NA,NA,NA,NA
b1e4d,"""Richtig""-Screen",canvas.Screen,3_0_1_0_5_1_1,NA,NA,timeout,5006.76,449044,449040.62,449047.98,454037.78,454038,2023-04-28T12:34:45Z,454054.74,NULL,Kultur,utamaduni,s,shetani,gerezani,mazingira,NA,sdfdsf,1,1,NA,NA,NA,NA,NA,NA,NA,NA,NA,NA,NA,NA,NA,NA,NA,NA,NA,NA,NA
b1e4d,"""Falsch""-Screen",canvas.Screen,3_0_1_0_5_1_2,NA,NA,skipped,NA,454041,NA,NA,454037.78,454041,2023-04-28T12:34:45Z,454054.74,NULL,Kultur,utamaduni,s,shetani,gerezani,mazingira,NA,sdfdsf,NA,1,NA,NA,NA,NA,NA,NA,NA,NA,NA,NA,NA,NA,NA,NA,NA,NA,NA,NA,NA
b1e4d,shallow,flow.Sequence,3_0_1_0_5_1,NA,NA,completion,15421.94,438603,438599.2,438615.84,454037.78,454041,2023-04-28T12:34:45Z,454054.74,NULL,Kultur,utamaduni,s,shetani,gerezani,mazingira,NA,sdfdsf,NA,1,NA,NA,NA,NA,NA,NA,NA,NA,NA,NA,NA,NA,NA,NA,NA,NA,NA,NA,NA
b1e4d,task,flow.Sequence,3_0_1_0_5,NA,NA,completion,15421.94,438603,438599.2,438615.84,454037.78,454042,2023-04-28T12:34:45Z,454054.74,NULL,Kultur,utamaduni,s,shetani,gerezani,mazingira,NA,sdfdsf,NA,1,NA,NA,NA,NA,NA,NA,NA,NA,NA,NA,NA,NA,NA,NA,NA,NA,NA,NA,NA
b1e4d,Deep Question,html.Page,3_0_1_0_6_0_0,NA,NA,form submission,10633.26,454042,454037.78,454054.74,464688,464689,2023-04-28T12:34:56Z,464692.22,NULL,Aufstand,ugomaji,d,NA,NA,NA,mgarwani,NA,NA,1,NA,NA,NA,NA,NA,NA,NA,NA,NA,NA,NA,NA,NA,NA,NA,NA,NA,NA,NA
b1e4d,"""Richtig""-Screen",canvas.Screen,3_0_1_0_6_0_1,NA,NA,skipped,NA,464690,NA,NA,464688,464690,2023-04-28T12:34:56Z,464692.22,NULL,Aufstand,ugomaji,d,NA,NA,NA,NA,sdfdsf,NA,1,NA,NA,NA,NA,NA,NA,NA,NA,NA,NA,NA,NA,NA,NA,NA,NA,NA,NA,NA
b1e4d,"""Falsch""-Screen",canvas.Screen,3_0_1_0_6_0_2,NA,NA,timeout,4994.84,464692,464686.44,464692.22,469670.42,469671,2023-04-28T12:35:01Z,469687.06,NULL,Aufstand,ugomaji,d,NA,NA,NA,NA,sdfdsf,0,1,NA,NA,NA,NA,NA,NA,NA,NA,NA,NA,NA,NA,NA,NA,NA,NA,NA,NA,NA
b1e4d,deep,flow.Sequence,3_0_1_0_6_0,NA,NA,completion,15615.68,454042,454037.78,454054.74,469670.42,469671,2023-04-28T12:35:01Z,469687.06,NULL,Aufstand,ugomaji,d,NA,NA,NA,NA,sdfdsf,NA,1,NA,NA,NA,NA,NA,NA,NA,NA,NA,NA,NA,NA,NA,NA,NA,NA,NA,NA,NA
b1e4d,shallow,flow.Sequence,3_0_1_0_6_1,NA,NA,skipped,NA,469671,NA,NA,469670.42,469671,2023-04-28T12:35:01Z,469687.06,NULL,Aufstand,ugomaji,d,NA,NA,NA,NA,sdfdsf,NA,1,NA,NA,NA,NA,NA,NA,NA,NA,NA,NA,NA,NA,NA,NA,NA,NA,NA,NA,NA
b1e4d,task,flow.Sequence,3_0_1_0_6,NA,NA,completion,15615.68,454042,454037.78,454054.74,469670.42,469671,2023-04-28T12:35:01Z,469687.06,NULL,Aufstand,ugomaji,d,NA,NA,NA,NA,sdfdsf,NA,1,NA,NA,NA,NA,NA,NA,NA,NA,NA,NA,NA,NA,NA,NA,NA,NA,NA,NA,NA
b1e4d,Deep Question,html.Page,3_0_1_0_7_0_0,NA,NA,form submission,10711.94,469671,469670.42,469687.06,480399,480399,2023-04-28T12:35:12Z,480409.46,NULL,Prüfung,mtihani,d,NA,NA,NA,kitishani,NA,NA,1,NA,NA,NA,NA,NA,NA,NA,NA,NA,NA,NA,NA,NA,NA,NA,NA,NA,NA,NA
b1e4d,"""Richtig""-Screen",canvas.Screen,3_0_1_0_7_0_1,NA,NA,skipped,NA,480400,NA,NA,480399,480401,2023-04-28T12:35:12Z,480409.46,NULL,Prüfung,mtihani,d,NA,NA,NA,NA,sdfdsf,NA,1,NA,NA,NA,NA,NA,NA,NA,NA,NA,NA,NA,NA,NA,NA,NA,NA,NA,NA,NA
b1e4d,"""Falsch""-Screen",canvas.Screen,3_0_1_0_7_0_2,NA,NA,timeout,5001.34,480402,480397.12,480409.46,485395.1,485396,2023-04-28T12:35:17Z,485410.8,NULL,Prüfung,mtihani,d,NA,NA,NA,NA,sdfdsf,0,1,NA,NA,NA,NA,NA,NA,NA,NA,NA,NA,NA,NA,NA,NA,NA,NA,NA,NA,NA
b1e4d,deep,flow.Sequence,3_0_1_0_7_0,NA,NA,completion,15708.04,469671,469670.42,469687.06,485395.1,485396,2023-04-28T12:35:17Z,485410.8,NULL,Prüfung,mtihani,d,NA,NA,NA,NA,sdfdsf,NA,1,NA,NA,NA,NA,NA,NA,NA,NA,NA,NA,NA,NA,NA,NA,NA,NA,NA,NA,NA
b1e4d,shallow,flow.Sequence,3_0_1_0_7_1,NA,NA,skipped,NA,485396,NA,NA,485395.1,485396,2023-04-28T12:35:17Z,485410.8,NULL,Prüfung,mtihani,d,NA,NA,NA,NA,sdfdsf,NA,1,NA,NA,NA,NA,NA,NA,NA,NA,NA,NA,NA,NA,NA,NA,NA,NA,NA,NA,NA
b1e4d,task,flow.Sequence,3_0_1_0_7,NA,NA,completion,15708.04,469671,469670.42,469687.06,485395.1,485396,2023-04-28T12:35:17Z,485410.8,NULL,Prüfung,mtihani,d,NA,NA,NA,NA,sdfdsf,NA,1,NA,NA,NA,NA,NA,NA,NA,NA,NA,NA,NA,NA,NA,NA,NA,NA,NA,NA,NA
b1e4d,block,flow.Loop,3_0_1_0,NA,NA,completion,123497.18,361896,361896.44,361897.92,485395.1,485397,2023-04-28T12:35:17Z,485410.8,NULL,NA,NA,NA,NA,NA,NA,NA,sdfdsf,NA,1,NA,NA,NA,NA,NA,NA,NA,NA,NA,NA,NA,NA,NA,NA,NA,NA,NA,NA,NA
b1e4d,weiter,canvas.Screen,3_0_1_1,sdf,keypress(Space),response,1332.2,485397,485395.1,485410.8,486743,486749,2023-04-28T12:35:18Z,486803.42,NULL,NA,NA,NA,NA,NA,NA,NA,sdfdsf,NA,1,NA,NA,NA,NA,NA,NA,NA,NA,NA,NA,NA,NA,NA,NA,NA,NA,NA,NA,NA
b1e4d,check continue,flow.Sequence,3_0_1,NA,NA,completion,124845.08,361896,361896.44,361897.92,486743,486749,2023-04-28T12:35:18Z,486803.42,NULL,NA,NA,NA,NA,NA,NA,NA,sdfdsf,NA,1,NA,NA,NA,NA,NA,NA,NA,NA,NA,NA,NA,NA,NA,NA,NA,NA,NA,NA,NA
b1e4d,deep,flow.Sequence,3_0_2_0_0_0,NA,NA,skipped,NA,486803,NA,NA,486743,486803,2023-04-28T12:35:18Z,486803.42,NULL,Annäherung,maegesho,s,madahili,kujiamini,mapendekezo,NA,sdf,NA,2,NA,NA,NA,NA,NA,NA,NA,NA,NA,NA,NA,NA,NA,NA,NA,NA,NA,NA,NA
b1e4d,Shallow Question,html.Page,3_0_2_0_0_1_0,NA,NA,form submission,4893.58,486803,486803.12,486803.42,491697,491697,2023-04-28T12:35:23Z,491697.56,NULL,Annäherung,maegesho,s,madahili,kujiamini,mapendekezo,maegesho,NA,NA,2,NA,NA,NA,NA,NA,NA,NA,NA,NA,NA,NA,NA,NA,NA,NA,NA,NA,NA,NA
b1e4d,"""Richtig""-Screen",canvas.Screen,3_0_2_0_0_1_1,NA,NA,timeout,4995.26,491698,491695.08,491697.56,496675.44,496676,2023-04-28T12:35:28Z,496692.82,NULL,Annäherung,maegesho,s,madahili,kujiamini,mapendekezo,NA,sdf,1,2,NA,NA,NA,NA,NA,NA,NA,NA,NA,NA,NA,NA,NA,NA,NA,NA,NA,NA,NA
b1e4d,"""Falsch""-Screen",canvas.Screen,3_0_2_0_0_1_2,NA,NA,skipped,NA,496677,NA,NA,496675.44,496677,2023-04-28T12:35:28Z,496692.82,NULL,Annäherung,maegesho,s,madahili,kujiamini,mapendekezo,NA,sdf,NA,2,NA,NA,NA,NA,NA,NA,NA,NA,NA,NA,NA,NA,NA,NA,NA,NA,NA,NA,NA
b1e4d,shallow,flow.Sequence,3_0_2_0_0_1,NA,NA,completion,9872.02,486803,486803.12,486803.42,496675.44,496678,2023-04-28T12:35:28Z,496692.82,NULL,Annäherung,maegesho,s,madahili,kujiamini,mapendekezo,NA,sdf,NA,2,NA,NA,NA,NA,NA,NA,NA,NA,NA,NA,NA,NA,NA,NA,NA,NA,NA,NA,NA
b1e4d,task,flow.Sequence,3_0_2_0_0,NA,NA,completion,9872.02,486803,486803.12,486803.42,496675.44,496678,2023-04-28T12:35:28Z,496692.82,NULL,Annäherung,maegesho,s,madahili,kujiamini,mapendekezo,NA,sdf,NA,2,NA,NA,NA,NA,NA,NA,NA,NA,NA,NA,NA,NA,NA,NA,NA,NA,NA,NA,NA
b1e4d,Deep Question,html.Page,3_0_2_0_1_0_0,NA,NA,form submission,7494.18,496678,496675.44,496692.82,504187,504188,2023-04-28T12:35:35Z,504195.54,NULL,Prüfung,mtihani,d,NA,NA,NA,mtihani,NA,NA,2,NA,NA,NA,NA,NA,NA,NA,NA,NA,NA,NA,NA,NA,NA,NA,NA,NA,NA,NA
b1e4d,"""Richtig""-Screen",canvas.Screen,3_0_2_0_1_0_1,NA,NA,timeout,5002.58,504193,504185.08,504195.54,509182.22,509183,2023-04-28T12:35:40Z,509198.12,NULL,Prüfung,mtihani,d,NA,NA,NA,NA,sdf,1,2,NA,NA,NA,NA,NA,NA,NA,NA,NA,NA,NA,NA,NA,NA,NA,NA,NA,NA,NA
b1e4d,"""Falsch""-Screen",canvas.Screen,3_0_2_0_1_0_2,NA,NA,skipped,NA,509186,NA,NA,509182.22,509186,2023-04-28T12:35:40Z,509198.12,NULL,Prüfung,mtihani,d,NA,NA,NA,NA,sdf,NA,2,NA,NA,NA,NA,NA,NA,NA,NA,NA,NA,NA,NA,NA,NA,NA,NA,NA,NA,NA
b1e4d,deep,flow.Sequence,3_0_2_0_1_0,NA,NA,completion,12489.4,496678,496675.44,496692.82,509182.22,509186,2023-04-28T12:35:40Z,509198.12,NULL,Prüfung,mtihani,d,NA,NA,NA,NA,sdf,NA,2,NA,NA,NA,NA,NA,NA,NA,NA,NA,NA,NA,NA,NA,NA,NA,NA,NA,NA,NA
b1e4d,shallow,flow.Sequence,3_0_2_0_1_1,NA,NA,skipped,NA,509187,NA,NA,509182.22,509187,2023-04-28T12:35:40Z,509198.12,NULL,Prüfung,mtihani,d,NA,NA,NA,NA,sdf,NA,2,NA,NA,NA,NA,NA,NA,NA,NA,NA,NA,NA,NA,NA,NA,NA,NA,NA,NA,NA
b1e4d,task,flow.Sequence,3_0_2_0_1,NA,NA,completion,12489.4,496678,496675.44,496692.82,509182.22,509187,2023-04-28T12:35:40Z,509198.12,NULL,Prüfung,mtihani,d,NA,NA,NA,NA,sdf,NA,2,NA,NA,NA,NA,NA,NA,NA,NA,NA,NA,NA,NA,NA,NA,NA,NA,NA,NA,NA
b1e4d,Deep Question,html.Page,3_0_2_0_2_0_0,NA,NA,form submission,14674.88,509187,509182.22,509198.12,523873,523873,2023-04-28T12:35:55Z,523883.18,NULL,Beweis,ushahidi,d,NA,NA,NA,mguhani,NA,NA,2,NA,NA,NA,NA,NA,NA,NA,NA,NA,NA,NA,NA,NA,NA,NA,NA,NA,NA,NA
b1e4d,"""Richtig""-Screen",canvas.Screen,3_0_2_0_2_0_1,NA,NA,skipped,NA,523875,NA,NA,523873,523875,2023-04-28T12:35:55Z,523883.18,NULL,Beweis,ushahidi,d,NA,NA,NA,NA,sdf,NA,2,NA,NA,NA,NA,NA,NA,NA,NA,NA,NA,NA,NA,NA,NA,NA,NA,NA,NA,NA
b1e4d,"""Falsch""-Screen",canvas.Screen,3_0_2_0_2_0_2,NA,NA,timeout,5000.8800000001,523878,523869.96,523883.18,528867.5,528867,2023-04-28T12:36:00Z,528884.06,NULL,Beweis,ushahidi,d,NA,NA,NA,NA,sdf,0,2,NA,NA,NA,NA,NA,NA,NA,NA,NA,NA,NA,NA,NA,NA,NA,NA,NA,NA,NA
b1e4d,deep,flow.Sequence,3_0_2_0_2_0,NA,NA,completion,19669.38,509187,509182.22,509198.12,528867.5,528868,2023-04-28T12:36:00Z,528884.06,NULL,Beweis,ushahidi,d,NA,NA,NA,NA,sdf,NA,2,NA,NA,NA,NA,NA,NA,NA,NA,NA,NA,NA,NA,NA,NA,NA,NA,NA,NA,NA
b1e4d,shallow,flow.Sequence,3_0_2_0_2_1,NA,NA,skipped,NA,528868,NA,NA,528867.5,528869,2023-04-28T12:36:00Z,528884.06,NULL,Beweis,ushahidi,d,NA,NA,NA,NA,sdf,NA,2,NA,NA,NA,NA,NA,NA,NA,NA,NA,NA,NA,NA,NA,NA,NA,NA,NA,NA,NA
b1e4d,task,flow.Sequence,3_0_2_0_2,NA,NA,completion,19669.38,509187,509182.22,509198.12,528867.5,528869,2023-04-28T12:36:00Z,528884.06,NULL,Beweis,ushahidi,d,NA,NA,NA,NA,sdf,NA,2,NA,NA,NA,NA,NA,NA,NA,NA,NA,NA,NA,NA,NA,NA,NA,NA,NA,NA,NA
b1e4d,Deep Question,html.Page,3_0_2_0_3_0_0,NA,NA,form submission,12423.94,528869,528867.5,528884.06,541308,541308,2023-04-28T12:36:12Z,541305.58,NULL,Aufstand,ugomaji,d,NA,NA,NA,mguahni,NA,NA,2,NA,NA,NA,NA,NA,NA,NA,NA,NA,NA,NA,NA,NA,NA,NA,NA,NA,NA,NA
b1e4d,"""Richtig""-Screen",canvas.Screen,3_0_2_0_3_0_1,NA,NA,skipped,NA,541309,NA,NA,541308,541309,2023-04-28T12:36:12Z,541305.58,NULL,Aufstand,ugomaji,d,NA,NA,NA,NA,sdf,NA,2,NA,NA,NA,NA,NA,NA,NA,NA,NA,NA,NA,NA,NA,NA,NA,NA,NA,NA,NA
b1e4d,"""Falsch""-Screen",canvas.Screen,3_0_2_0_3_0_2,NA,NA,timeout,4996.78,541312,541305.56,541305.58,546286.54,546287,2023-04-28T12:36:17Z,546302.36,NULL,Aufstand,ugomaji,d,NA,NA,NA,NA,sdf,0,2,NA,NA,NA,NA,NA,NA,NA,NA,NA,NA,NA,NA,NA,NA,NA,NA,NA,NA,NA
b1e4d,deep,flow.Sequence,3_0_2_0_3_0,NA,NA,completion,17402.48,528869,528867.5,528884.06,546286.54,546288,2023-04-28T12:36:17Z,546302.36,NULL,Aufstand,ugomaji,d,NA,NA,NA,NA,sdf,NA,2,NA,NA,NA,NA,NA,NA,NA,NA,NA,NA,NA,NA,NA,NA,NA,NA,NA,NA,NA
b1e4d,shallow,flow.Sequence,3_0_2_0_3_1,NA,NA,skipped,NA,546288,NA,NA,546286.54,546288,2023-04-28T12:36:17Z,546302.36,NULL,Aufstand,ugomaji,d,NA,NA,NA,NA,sdf,NA,2,NA,NA,NA,NA,NA,NA,NA,NA,NA,NA,NA,NA,NA,NA,NA,NA,NA,NA,NA
b1e4d,task,flow.Sequence,3_0_2_0_3,NA,NA,completion,17402.48,528869,528867.5,528884.06,546286.54,546288,2023-04-28T12:36:17Z,546302.36,NULL,Aufstand,ugomaji,d,NA,NA,NA,NA,sdf,NA,2,NA,NA,NA,NA,NA,NA,NA,NA,NA,NA,NA,NA,NA,NA,NA,NA,NA,NA,NA
b1e4d,deep,flow.Sequence,3_0_2_0_4_0,NA,NA,skipped,NA,546288,NA,NA,546286.54,546288,2023-04-28T12:36:17Z,546302.36,NULL,Sympathie,mapendano,s,dhamiria,fungamano,maazimio,NA,sdf,NA,2,NA,NA,NA,NA,NA,NA,NA,NA,NA,NA,NA,NA,NA,NA,NA,NA,NA,NA,NA
b1e4d,Shallow Question,html.Page,3_0_2_0_4_1_0,NA,NA,form submission,6417.64,546288,546286.54,546302.36,552720,552721,2023-04-28T12:36:24Z,552731.2,NULL,Sympathie,mapendano,s,dhamiria,fungamano,maazimio,mapendano,NA,NA,2,NA,NA,NA,NA,NA,NA,NA,NA,NA,NA,NA,NA,NA,NA,NA,NA,NA,NA,NA
b1e4d,"""Richtig""-Screen",canvas.Screen,3_0_2_0_4_1_1,NA,NA,timeout,5000.8200000001,552722,552719.2,552731.2,557716.4,557717,2023-04-28T12:36:29Z,557732.02,NULL,Sympathie,mapendano,s,dhamiria,fungamano,maazimio,NA,sdf,1,2,NA,NA,NA,NA,NA,NA,NA,NA,NA,NA,NA,NA,NA,NA,NA,NA,NA,NA,NA
b1e4d,"""Falsch""-Screen",canvas.Screen,3_0_2_0_4_1_2,NA,NA,skipped,NA,557722,NA,NA,557716.4,557722,2023-04-28T12:36:29Z,557732.02,NULL,Sympathie,mapendano,s,dhamiria,fungamano,maazimio,NA,sdf,NA,2,NA,NA,NA,NA,NA,NA,NA,NA,NA,NA,NA,NA,NA,NA,NA,NA,NA,NA,NA
b1e4d,shallow,flow.Sequence,3_0_2_0_4_1,NA,NA,completion,11414.04,546288,546286.54,546302.36,557716.4,557723,2023-04-28T12:36:29Z,557732.02,NULL,Sympathie,mapendano,s,dhamiria,fungamano,maazimio,NA,sdf,NA,2,NA,NA,NA,NA,NA,NA,NA,NA,NA,NA,NA,NA,NA,NA,NA,NA,NA,NA,NA
b1e4d,task,flow.Sequence,3_0_2_0_4,NA,NA,completion,11414.04,546288,546286.54,546302.36,557716.4,557723,2023-04-28T12:36:29Z,557732.02,NULL,Sympathie,mapendano,s,dhamiria,fungamano,maazimio,NA,sdf,NA,2,NA,NA,NA,NA,NA,NA,NA,NA,NA,NA,NA,NA,NA,NA,NA,NA,NA,NA,NA
b1e4d,deep,flow.Sequence,3_0_2_0_5_0,NA,NA,skipped,NA,557723,NA,NA,557716.4,557723,2023-04-28T12:36:29Z,557732.02,NULL,Verzögerung,kuchelewa,s,mwakilishi,mwanauchumi,jaribio,NA,sdf,NA,2,NA,NA,NA,NA,NA,NA,NA,NA,NA,NA,NA,NA,NA,NA,NA,NA,NA,NA,NA
b1e4d,Shallow Question,html.Page,3_0_2_0_5_1_0,NA,NA,form submission,3020.98,557724,557716.4,557732.02,560753,560754,2023-04-28T12:36:32Z,560755.42,NULL,Verzögerung,kuchelewa,s,mwakilishi,mwanauchumi,jaribio,kuchelewa,NA,NA,2,NA,NA,NA,NA,NA,NA,NA,NA,NA,NA,NA,NA,NA,NA,NA,NA,NA,NA,NA
b1e4d,"""Richtig""-Screen",canvas.Screen,3_0_2_0_5_1_1,NA,NA,timeout,4992,560756,560751.12,560755.42,565731.34,565732,2023-04-28T12:36:37Z,565747.42,NULL,Verzögerung,kuchelewa,s,mwakilishi,mwanauchumi,jaribio,NA,sdf,1,2,NA,NA,NA,NA,NA,NA,NA,NA,NA,NA,NA,NA,NA,NA,NA,NA,NA,NA,NA
b1e4d,"""Falsch""-Screen",canvas.Screen,3_0_2_0_5_1_2,NA,NA,skipped,NA,565734,NA,NA,565731.34,565734,2023-04-28T12:36:37Z,565747.42,NULL,Verzögerung,kuchelewa,s,mwakilishi,mwanauchumi,jaribio,NA,sdf,NA,2,NA,NA,NA,NA,NA,NA,NA,NA,NA,NA,NA,NA,NA,NA,NA,NA,NA,NA,NA
b1e4d,shallow,flow.Sequence,3_0_2_0_5_1,NA,NA,completion,7999.3199999999,557724,557716.4,557732.02,565731.34,565734,2023-04-28T12:36:37Z,565747.42,NULL,Verzögerung,kuchelewa,s,mwakilishi,mwanauchumi,jaribio,NA,sdf,NA,2,NA,NA,NA,NA,NA,NA,NA,NA,NA,NA,NA,NA,NA,NA,NA,NA,NA,NA,NA
b1e4d,task,flow.Sequence,3_0_2_0_5,NA,NA,completion,7999.3199999999,557723,557716.4,557732.02,565731.34,565735,2023-04-28T12:36:37Z,565747.42,NULL,Verzögerung,kuchelewa,s,mwakilishi,mwanauchumi,jaribio,NA,sdf,NA,2,NA,NA,NA,NA,NA,NA,NA,NA,NA,NA,NA,NA,NA,NA,NA,NA,NA,NA,NA
b1e4d,Deep Question,html.Page,3_0_2_0_6_0_0,NA,NA,form submission,13128.58,565735,565731.34,565747.42,578876,578876,2023-04-28T12:36:50Z,578887.46,NULL,Polizist,msongora,d,NA,NA,NA,msongor,NA,NA,2,NA,NA,NA,NA,NA,NA,NA,NA,NA,NA,NA,NA,NA,NA,NA,NA,NA,NA,NA
b1e4d,"""Richtig""-Screen",canvas.Screen,3_0_2_0_6_0_1,NA,NA,skipped,NA,578879,NA,NA,578876,578879,2023-04-28T12:36:50Z,578887.46,NULL,Polizist,msongora,d,NA,NA,NA,NA,sdf,NA,2,NA,NA,NA,NA,NA,NA,NA,NA,NA,NA,NA,NA,NA,NA,NA,NA,NA,NA,NA
b1e4d,"""Falsch""-Screen",canvas.Screen,3_0_2_0_6_0_2,NA,NA,timeout,5001.3200000001,578881,578874.52,578887.46,583872.08,583873,2023-04-28T12:36:55Z,583888.78,NULL,Polizist,msongora,d,NA,NA,NA,NA,sdf,0,2,NA,NA,NA,NA,NA,NA,NA,NA,NA,NA,NA,NA,NA,NA,NA,NA,NA,NA,NA
b1e4d,deep,flow.Sequence,3_0_2_0_6_0,NA,NA,completion,18124.66,565735,565731.34,565747.42,583872.08,583873,2023-04-28T12:36:55Z,583888.78,NULL,Polizist,msongora,d,NA,NA,NA,NA,sdf,NA,2,NA,NA,NA,NA,NA,NA,NA,NA,NA,NA,NA,NA,NA,NA,NA,NA,NA,NA,NA
b1e4d,shallow,flow.Sequence,3_0_2_0_6_1,NA,NA,skipped,NA,583873,NA,NA,583872.08,583873,2023-04-28T12:36:55Z,583888.78,NULL,Polizist,msongora,d,NA,NA,NA,NA,sdf,NA,2,NA,NA,NA,NA,NA,NA,NA,NA,NA,NA,NA,NA,NA,NA,NA,NA,NA,NA,NA
b1e4d,task,flow.Sequence,3_0_2_0_6,NA,NA,completion,18124.66,565735,565731.34,565747.42,583872.08,583873,2023-04-28T12:36:55Z,583888.78,NULL,Polizist,msongora,d,NA,NA,NA,NA,sdf,NA,2,NA,NA,NA,NA,NA,NA,NA,NA,NA,NA,NA,NA,NA,NA,NA,NA,NA,NA,NA
b1e4d,deep,flow.Sequence,3_0_2_0_7_0,NA,NA,skipped,NA,583873,NA,NA,583872.08,583873,2023-04-28T12:36:55Z,583888.78,NULL,Kultur,utamaduni,s,shetani,gerezani,mazingira,NA,sdf,NA,2,NA,NA,NA,NA,NA,NA,NA,NA,NA,NA,NA,NA,NA,NA,NA,NA,NA,NA,NA
b1e4d,Shallow Question,html.Page,3_0_2_0_7_1_0,NA,NA,form submission,21215.22,583874,583872.08,583888.78,605104,605104,2023-04-28T12:37:16Z,605103.78,NULL,Kultur,utamaduni,s,shetani,gerezani,mazingira,gerezani,NA,NA,2,NA,NA,NA,NA,NA,NA,NA,NA,NA,NA,NA,NA,NA,NA,NA,NA,NA,NA,NA
b1e4d,"""Richtig""-Screen",canvas.Screen,3_0_2_0_7_1_1,NA,NA,skipped,NA,605106,NA,NA,605104,605106,2023-04-28T12:37:16Z,605103.78,NULL,Kultur,utamaduni,s,shetani,gerezani,mazingira,NA,sdf,NA,2,NA,NA,NA,NA,NA,NA,NA,NA,NA,NA,NA,NA,NA,NA,NA,NA,NA,NA,NA
b1e4d,"""Falsch""-Screen",canvas.Screen,3_0_2_0_7_1_2,NA,NA,timeout,4995.2999999999,605108,605102.36,605103.78,610083.22,610084,2023-04-28T12:37:21Z,610099.08,NULL,Kultur,utamaduni,s,shetani,gerezani,mazingira,NA,sdf,0,2,NA,NA,NA,NA,NA,NA,NA,NA,NA,NA,NA,NA,NA,NA,NA,NA,NA,NA,NA
b1e4d,shallow,flow.Sequence,3_0_2_0_7_1,NA,NA,completion,26194.44,583874,583872.08,583888.78,610083.22,610084,2023-04-28T12:37:21Z,610099.08,NULL,Kultur,utamaduni,s,shetani,gerezani,mazingira,NA,sdf,NA,2,NA,NA,NA,NA,NA,NA,NA,NA,NA,NA,NA,NA,NA,NA,NA,NA,NA,NA,NA
b1e4d,task,flow.Sequence,3_0_2_0_7,NA,NA,completion,26194.44,583873,583872.08,583888.78,610083.22,610084,2023-04-28T12:37:21Z,610099.08,NULL,Kultur,utamaduni,s,shetani,gerezani,mazingira,NA,sdf,NA,2,NA,NA,NA,NA,NA,NA,NA,NA,NA,NA,NA,NA,NA,NA,NA,NA,NA,NA,NA
b1e4d,block,flow.Loop,3_0_2_0,NA,NA,completion,123279.8,486803,486803.12,486803.42,610083.22,610085,2023-04-28T12:37:21Z,610099.08,NULL,NA,NA,NA,NA,NA,NA,NA,sdf,NA,2,NA,NA,NA,NA,NA,NA,NA,NA,NA,NA,NA,NA,NA,NA,NA,NA,NA,NA,NA
b1e4d,weiter,canvas.Screen,3_0_2_1,sdf,keypress(Space),response,1107.92,610085,610083.22,610099.08,611207,611212,2023-04-28T12:37:22Z,611269.8,NULL,NA,NA,NA,NA,NA,NA,NA,sdf,NA,2,NA,NA,NA,NA,NA,NA,NA,NA,NA,NA,NA,NA,NA,NA,NA,NA,NA,NA,NA
b1e4d,check continue,flow.Sequence,3_0_2,NA,NA,completion,124403.58,486803,486803.12,486803.42,611207,611212,2023-04-28T12:37:22Z,611269.8,NULL,NA,NA,NA,NA,NA,NA,NA,sdf,NA,2,NA,NA,NA,NA,NA,NA,NA,NA,NA,NA,NA,NA,NA,NA,NA,NA,NA,NA,NA
b1e4d,deep,flow.Sequence,3_0_3_0_0_0,NA,NA,skipped,NA,611269,NA,NA,611207,611269,2023-04-28T12:37:22Z,611269.8,NULL,Sympathie,mapendano,s,dhamiria,fungamano,maazimio,NA,qt,NA,3,NA,NA,NA,NA,NA,NA,NA,NA,NA,NA,NA,NA,NA,NA,NA,NA,NA,NA,NA
b1e4d,Shallow Question,html.Page,3_0_3_0_0_1_0,NA,NA,form submission,6427.2,611269,611269.52,611269.8,617697,617698,2023-04-28T12:37:29Z,617707.64,NULL,Sympathie,mapendano,s,dhamiria,fungamano,maazimio,mapendano,NA,NA,3,NA,NA,NA,NA,NA,NA,NA,NA,NA,NA,NA,NA,NA,NA,NA,NA,NA,NA,NA
b1e4d,"""Richtig""-Screen",canvas.Screen,3_0_3_0_0_1_1,NA,NA,timeout,4999.88,617702,617694.54,617707.64,622691.2,622692,2023-04-28T12:37:34Z,622707.52,NULL,Sympathie,mapendano,s,dhamiria,fungamano,maazimio,NA,qt,1,3,NA,NA,NA,NA,NA,NA,NA,NA,NA,NA,NA,NA,NA,NA,NA,NA,NA,NA,NA
b1e4d,"""Falsch""-Screen",canvas.Screen,3_0_3_0_0_1_2,NA,NA,skipped,NA,622695,NA,NA,622691.2,622695,2023-04-28T12:37:34Z,622707.52,NULL,Sympathie,mapendano,s,dhamiria,fungamano,maazimio,NA,qt,NA,3,NA,NA,NA,NA,NA,NA,NA,NA,NA,NA,NA,NA,NA,NA,NA,NA,NA,NA,NA
b1e4d,shallow,flow.Sequence,3_0_3_0_0_1,NA,NA,completion,11421.4,611269,611269.52,611269.8,622691.2,622695,2023-04-28T12:37:34Z,622707.52,NULL,Sympathie,mapendano,s,dhamiria,fungamano,maazimio,NA,qt,NA,3,NA,NA,NA,NA,NA,NA,NA,NA,NA,NA,NA,NA,NA,NA,NA,NA,NA,NA,NA
b1e4d,task,flow.Sequence,3_0_3_0_0,NA,NA,completion,11421.4,611269,611269.52,611269.8,622691.2,622695,2023-04-28T12:37:34Z,622707.52,NULL,Sympathie,mapendano,s,dhamiria,fungamano,maazimio,NA,qt,NA,3,NA,NA,NA,NA,NA,NA,NA,NA,NA,NA,NA,NA,NA,NA,NA,NA,NA,NA,NA
b1e4d,deep,flow.Sequence,3_0_3_0_1_0,NA,NA,skipped,NA,622696,NA,NA,622691.2,622696,2023-04-28T12:37:34Z,622707.52,NULL,Kultur,utamaduni,s,shetani,gerezani,mazingira,NA,qt,NA,3,NA,NA,NA,NA,NA,NA,NA,NA,NA,NA,NA,NA,NA,NA,NA,NA,NA,NA,NA
b1e4d,Shallow Question,html.Page,3_0_3_0_1_1_0,NA,NA,form submission,4981.48,622696,622691.2,622707.52,627689,627689,2023-04-28T12:37:39Z,627689.68,NULL,Kultur,utamaduni,s,shetani,gerezani,mazingira,utamaduni,NA,NA,3,NA,NA,NA,NA,NA,NA,NA,NA,NA,NA,NA,NA,NA,NA,NA,NA,NA,NA,NA
b1e4d,"""Richtig""-Screen",canvas.Screen,3_0_3_0_1_1_1,NA,NA,timeout,4993.22,627692,627686.94,627689.68,632665.82,632666,2023-04-28T12:37:44Z,632682.9,NULL,Kultur,utamaduni,s,shetani,gerezani,mazingira,NA,qt,1,3,NA,NA,NA,NA,NA,NA,NA,NA,NA,NA,NA,NA,NA,NA,NA,NA,NA,NA,NA
b1e4d,"""Falsch""-Screen",canvas.Screen,3_0_3_0_1_1_2,NA,NA,skipped,NA,632668,NA,NA,632665.82,632668,2023-04-28T12:37:44Z,632682.9,NULL,Kultur,utamaduni,s,shetani,gerezani,mazingira,NA,qt,NA,3,NA,NA,NA,NA,NA,NA,NA,NA,NA,NA,NA,NA,NA,NA,NA,NA,NA,NA,NA
b1e4d,shallow,flow.Sequence,3_0_3_0_1_1,NA,NA,completion,9958.2999999999,622696,622691.2,622707.52,632665.82,632668,2023-04-28T12:37:44Z,632682.9,NULL,Kultur,utamaduni,s,shetani,gerezani,mazingira,NA,qt,NA,3,NA,NA,NA,NA,NA,NA,NA,NA,NA,NA,NA,NA,NA,NA,NA,NA,NA,NA,NA
b1e4d,task,flow.Sequence,3_0_3_0_1,NA,NA,completion,9958.2999999999,622696,622691.2,622707.52,632665.82,632668,2023-04-28T12:37:44Z,632682.9,NULL,Kultur,utamaduni,s,shetani,gerezani,mazingira,NA,qt,NA,3,NA,NA,NA,NA,NA,NA,NA,NA,NA,NA,NA,NA,NA,NA,NA,NA,NA,NA,NA
b1e4d,Deep Question,html.Page,3_0_3_0_2_0_0,NA,NA,form submission,9683.1,632669,632665.82,632682.9,642366,642366,2023-04-28T12:37:54Z,642377.5,NULL,Prüfung,mtihani,d,NA,NA,NA,mtihani,NA,NA,3,NA,NA,NA,NA,NA,NA,NA,NA,NA,NA,NA,NA,NA,NA,NA,NA,NA,NA,NA
b1e4d,"""Richtig""-Screen",canvas.Screen,3_0_3_0_2_0_1,NA,NA,timeout,4999.08,642368,642363.38,642377.5,647360.28,647361,2023-04-28T12:37:59Z,647376.58,NULL,Prüfung,mtihani,d,NA,NA,NA,NA,qt,1,3,NA,NA,NA,NA,NA,NA,NA,NA,NA,NA,NA,NA,NA,NA,NA,NA,NA,NA,NA
b1e4d,"""Falsch""-Screen",canvas.Screen,3_0_3_0_2_0_2,NA,NA,skipped,NA,647364,NA,NA,647360.28,647364,2023-04-28T12:37:59Z,647376.58,NULL,Prüfung,mtihani,d,NA,NA,NA,NA,qt,NA,3,NA,NA,NA,NA,NA,NA,NA,NA,NA,NA,NA,NA,NA,NA,NA,NA,NA,NA,NA
b1e4d,deep,flow.Sequence,3_0_3_0_2_0,NA,NA,completion,14677.38,632669,632665.82,632682.9,647360.28,647364,2023-04-28T12:37:59Z,647376.58,NULL,Prüfung,mtihani,d,NA,NA,NA,NA,qt,NA,3,NA,NA,NA,NA,NA,NA,NA,NA,NA,NA,NA,NA,NA,NA,NA,NA,NA,NA,NA
b1e4d,shallow,flow.Sequence,3_0_3_0_2_1,NA,NA,skipped,NA,647364,NA,NA,647360.28,647365,2023-04-28T12:37:59Z,647376.58,NULL,Prüfung,mtihani,d,NA,NA,NA,NA,qt,NA,3,NA,NA,NA,NA,NA,NA,NA,NA,NA,NA,NA,NA,NA,NA,NA,NA,NA,NA,NA
b1e4d,task,flow.Sequence,3_0_3_0_2,NA,NA,completion,14677.38,632669,632665.82,632682.9,647360.28,647365,2023-04-28T12:37:59Z,647376.58,NULL,Prüfung,mtihani,d,NA,NA,NA,NA,qt,NA,3,NA,NA,NA,NA,NA,NA,NA,NA,NA,NA,NA,NA,NA,NA,NA,NA,NA,NA,NA
b1e4d,Deep Question,html.Page,3_0_3_0_3_0_0,NA,NA,form submission,7990.42,647365,647360.28,647376.58,655367,655367,2023-04-28T12:38:07Z,655377.96,NULL,Aufstand,ugomaji,d,NA,NA,NA,ugomaji,NA,NA,3,NA,NA,NA,NA,NA,NA,NA,NA,NA,NA,NA,NA,NA,NA,NA,NA,NA,NA,NA
b1e4d,"""Richtig""-Screen",canvas.Screen,3_0_3_0_3_0_1,NA,NA,timeout,5000.12,655369,655364.24,655377.96,660361.4,660362,2023-04-28T12:38:12Z,660378.08,NULL,Aufstand,ugomaji,d,NA,NA,NA,NA,qt,1,3,NA,NA,NA,NA,NA,NA,NA,NA,NA,NA,NA,NA,NA,NA,NA,NA,NA,NA,NA
b1e4d,"""Falsch""-Screen",canvas.Screen,3_0_3_0_3_0_2,NA,NA,skipped,NA,660363,NA,NA,660361.4,660363,2023-04-28T12:38:12Z,660378.08,NULL,Aufstand,ugomaji,d,NA,NA,NA,NA,qt,NA,3,NA,NA,NA,NA,NA,NA,NA,NA,NA,NA,NA,NA,NA,NA,NA,NA,NA,NA,NA
b1e4d,deep,flow.Sequence,3_0_3_0_3_0,NA,NA,completion,12984.82,647365,647360.28,647376.58,660361.4,660364,2023-04-28T12:38:12Z,660378.08,NULL,Aufstand,ugomaji,d,NA,NA,NA,NA,qt,NA,3,NA,NA,NA,NA,NA,NA,NA,NA,NA,NA,NA,NA,NA,NA,NA,NA,NA,NA,NA
b1e4d,shallow,flow.Sequence,3_0_3_0_3_1,NA,NA,skipped,NA,660364,NA,NA,660361.4,660365,2023-04-28T12:38:12Z,660378.08,NULL,Aufstand,ugomaji,d,NA,NA,NA,NA,qt,NA,3,NA,NA,NA,NA,NA,NA,NA,NA,NA,NA,NA,NA,NA,NA,NA,NA,NA,NA,NA
b1e4d,task,flow.Sequence,3_0_3_0_3,NA,NA,completion,12984.82,647365,647360.28,647376.58,660361.4,660365,2023-04-28T12:38:12Z,660378.08,NULL,Aufstand,ugomaji,d,NA,NA,NA,NA,qt,NA,3,NA,NA,NA,NA,NA,NA,NA,NA,NA,NA,NA,NA,NA,NA,NA,NA,NA,NA,NA
b1e4d,Deep Question,html.Page,3_0_3_0_4_0_0,NA,NA,form submission,5896.92,660365,660361.4,660378.08,666275,666275,2023-04-28T12:38:17Z,666273.38,NULL,Polizist,msongora,d,NA,NA,NA,msongora,NA,NA,3,NA,NA,NA,NA,NA,NA,NA,NA,NA,NA,NA,NA,NA,NA,NA,NA,NA,NA,NA
b1e4d,"""Richtig""-Screen",canvas.Screen,3_0_3_0_4_0_1,NA,NA,timeout,4996.46,666277,666273.34,666273.38,671254.14,671254,2023-04-28T12:38:22Z,671269.84,NULL,Polizist,msongora,d,NA,NA,NA,NA,qt,1,3,NA,NA,NA,NA,NA,NA,NA,NA,NA,NA,NA,NA,NA,NA,NA,NA,NA,NA,NA
b1e4d,"""Falsch""-Screen",canvas.Screen,3_0_3_0_4_0_2,NA,NA,skipped,NA,671257,NA,NA,671254.14,671257,2023-04-28T12:38:22Z,671269.84,NULL,Polizist,msongora,d,NA,NA,NA,NA,qt,NA,3,NA,NA,NA,NA,NA,NA,NA,NA,NA,NA,NA,NA,NA,NA,NA,NA,NA,NA,NA
b1e4d,deep,flow.Sequence,3_0_3_0_4_0,NA,NA,completion,10876.06,660365,660361.4,660378.08,671254.14,671257,2023-04-28T12:38:22Z,671269.84,NULL,Polizist,msongora,d,NA,NA,NA,NA,qt,NA,3,NA,NA,NA,NA,NA,NA,NA,NA,NA,NA,NA,NA,NA,NA,NA,NA,NA,NA,NA
b1e4d,shallow,flow.Sequence,3_0_3_0_4_1,NA,NA,skipped,NA,671257,NA,NA,671254.14,671257,2023-04-28T12:38:22Z,671269.84,NULL,Polizist,msongora,d,NA,NA,NA,NA,qt,NA,3,NA,NA,NA,NA,NA,NA,NA,NA,NA,NA,NA,NA,NA,NA,NA,NA,NA,NA,NA
b1e4d,task,flow.Sequence,3_0_3_0_4,NA,NA,completion,10876.06,660365,660361.4,660378.08,671254.14,671257,2023-04-28T12:38:22Z,671269.84,NULL,Polizist,msongora,d,NA,NA,NA,NA,qt,NA,3,NA,NA,NA,NA,NA,NA,NA,NA,NA,NA,NA,NA,NA,NA,NA,NA,NA,NA,NA
b1e4d,deep,flow.Sequence,3_0_3_0_5_0,NA,NA,skipped,NA,671257,NA,NA,671254.14,671257,2023-04-28T12:38:22Z,671269.84,NULL,Annäherung,maegesho,s,madahili,kujiamini,mapendekezo,NA,qt,NA,3,NA,NA,NA,NA,NA,NA,NA,NA,NA,NA,NA,NA,NA,NA,NA,NA,NA,NA,NA
b1e4d,Shallow Question,html.Page,3_0_3_0_5_1_0,NA,NA,form submission,12969.16,671258,671254.14,671269.84,684239,684239,2023-04-28T12:38:35Z,684240.78,NULL,Annäherung,maegesho,s,madahili,kujiamini,mapendekezo,maegesho,NA,NA,3,NA,NA,NA,NA,NA,NA,NA,NA,NA,NA,NA,NA,NA,NA,NA,NA,NA,NA,NA
b1e4d,"""Richtig""-Screen",canvas.Screen,3_0_3_0_5_1_1,NA,NA,timeout,4993.52,684240,684237.12,684240.78,689217.82,689219,2023-04-28T12:38:40Z,689234.3,NULL,Annäherung,maegesho,s,madahili,kujiamini,mapendekezo,NA,qt,1,3,NA,NA,NA,NA,NA,NA,NA,NA,NA,NA,NA,NA,NA,NA,NA,NA,NA,NA,NA
b1e4d,"""Falsch""-Screen",canvas.Screen,3_0_3_0_5_1_2,NA,NA,skipped,NA,689220,NA,NA,689217.82,689220,2023-04-28T12:38:40Z,689234.3,NULL,Annäherung,maegesho,s,madahili,kujiamini,mapendekezo,NA,qt,NA,3,NA,NA,NA,NA,NA,NA,NA,NA,NA,NA,NA,NA,NA,NA,NA,NA,NA,NA,NA
b1e4d,shallow,flow.Sequence,3_0_3_0_5_1,NA,NA,completion,17947.98,671258,671254.14,671269.84,689217.82,689221,2023-04-28T12:38:40Z,689234.3,NULL,Annäherung,maegesho,s,madahili,kujiamini,mapendekezo,NA,qt,NA,3,NA,NA,NA,NA,NA,NA,NA,NA,NA,NA,NA,NA,NA,NA,NA,NA,NA,NA,NA
b1e4d,task,flow.Sequence,3_0_3_0_5,NA,NA,completion,17947.98,671257,671254.14,671269.84,689217.82,689221,2023-04-28T12:38:40Z,689234.3,NULL,Annäherung,maegesho,s,madahili,kujiamini,mapendekezo,NA,qt,NA,3,NA,NA,NA,NA,NA,NA,NA,NA,NA,NA,NA,NA,NA,NA,NA,NA,NA,NA,NA
b1e4d,deep,flow.Sequence,3_0_3_0_6_0,NA,NA,skipped,NA,689221,NA,NA,689217.82,689221,2023-04-28T12:38:40Z,689234.3,NULL,Verzögerung,kuchelewa,s,mwakilishi,mwanauchumi,jaribio,NA,qt,NA,3,NA,NA,NA,NA,NA,NA,NA,NA,NA,NA,NA,NA,NA,NA,NA,NA,NA,NA,NA
b1e4d,Shallow Question,html.Page,3_0_3_0_6_1_0,NA,NA,form submission,3350.7,689221,689217.82,689234.3,692585,692585,2023-04-28T12:38:44Z,692593.48,NULL,Verzögerung,kuchelewa,s,mwakilishi,mwanauchumi,jaribio,kuchelewa,NA,NA,3,NA,NA,NA,NA,NA,NA,NA,NA,NA,NA,NA,NA,NA,NA,NA,NA,NA,NA,NA
b1e4d,"""Richtig""-Screen",canvas.Screen,3_0_3_0_6_1_1,NA,NA,timeout,5003.6800000001,692587,692584.18,692593.48,697581.58,697582,2023-04-28T12:38:49Z,697597.16,NULL,Verzögerung,kuchelewa,s,mwakilishi,mwanauchumi,jaribio,NA,qt,1,3,NA,NA,NA,NA,NA,NA,NA,NA,NA,NA,NA,NA,NA,NA,NA,NA,NA,NA,NA
b1e4d,"""Falsch""-Screen",canvas.Screen,3_0_3_0_6_1_2,NA,NA,skipped,NA,697584,NA,NA,697581.58,697584,2023-04-28T12:38:49Z,697597.16,NULL,Verzögerung,kuchelewa,s,mwakilishi,mwanauchumi,jaribio,NA,qt,NA,3,NA,NA,NA,NA,NA,NA,NA,NA,NA,NA,NA,NA,NA,NA,NA,NA,NA,NA,NA
b1e4d,shallow,flow.Sequence,3_0_3_0_6_1,NA,NA,completion,8347.2799999999,689221,689217.82,689234.3,697581.58,697584,2023-04-28T12:38:49Z,697597.16,NULL,Verzögerung,kuchelewa,s,mwakilishi,mwanauchumi,jaribio,NA,qt,NA,3,NA,NA,NA,NA,NA,NA,NA,NA,NA,NA,NA,NA,NA,NA,NA,NA,NA,NA,NA
b1e4d,task,flow.Sequence,3_0_3_0_6,NA,NA,completion,8347.2799999999,689221,689217.82,689234.3,697581.58,697584,2023-04-28T12:38:49Z,697597.16,NULL,Verzögerung,kuchelewa,s,mwakilishi,mwanauchumi,jaribio,NA,qt,NA,3,NA,NA,NA,NA,NA,NA,NA,NA,NA,NA,NA,NA,NA,NA,NA,NA,NA,NA,NA
b1e4d,Deep Question,html.Page,3_0_3_0_7_0_0,NA,NA,form submission,20484.84,697584,697581.58,697597.16,718082,718083,2023-04-28T12:39:09Z,718096.5,NULL,Beweis,ushahidi,d,NA,NA,NA,ugoshewo,NA,NA,3,NA,NA,NA,NA,NA,NA,NA,NA,NA,NA,NA,NA,NA,NA,NA,NA,NA,NA,NA
b1e4d,"""Richtig""-Screen",canvas.Screen,3_0_3_0_7_0_1,NA,NA,skipped,NA,718088,NA,NA,718082,718089,2023-04-28T12:39:09Z,718096.5,NULL,Beweis,ushahidi,d,NA,NA,NA,NA,qt,NA,3,NA,NA,NA,NA,NA,NA,NA,NA,NA,NA,NA,NA,NA,NA,NA,NA,NA,NA,NA
b1e4d,"""Falsch""-Screen",canvas.Screen,3_0_3_0_7_0_2,NA,NA,timeout,4996.3,718092,718079.26,718096.5,723075.82,723076,2023-04-28T12:39:14Z,723092.8,NULL,Beweis,ushahidi,d,NA,NA,NA,NA,qt,0,3,NA,NA,NA,NA,NA,NA,NA,NA,NA,NA,NA,NA,NA,NA,NA,NA,NA,NA,NA
b1e4d,deep,flow.Sequence,3_0_3_0_7_0,NA,NA,completion,25478.66,697584,697581.58,697597.16,723075.82,723077,2023-04-28T12:39:14Z,723092.8,NULL,Beweis,ushahidi,d,NA,NA,NA,NA,qt,NA,3,NA,NA,NA,NA,NA,NA,NA,NA,NA,NA,NA,NA,NA,NA,NA,NA,NA,NA,NA
b1e4d,shallow,flow.Sequence,3_0_3_0_7_1,NA,NA,skipped,NA,723077,NA,NA,723075.82,723077,2023-04-28T12:39:14Z,723092.8,NULL,Beweis,ushahidi,d,NA,NA,NA,NA,qt,NA,3,NA,NA,NA,NA,NA,NA,NA,NA,NA,NA,NA,NA,NA,NA,NA,NA,NA,NA,NA
b1e4d,task,flow.Sequence,3_0_3_0_7,NA,NA,completion,25478.66,697584,697581.58,697597.16,723075.82,723078,2023-04-28T12:39:14Z,723092.8,NULL,Beweis,ushahidi,d,NA,NA,NA,NA,qt,NA,3,NA,NA,NA,NA,NA,NA,NA,NA,NA,NA,NA,NA,NA,NA,NA,NA,NA,NA,NA
b1e4d,block,flow.Loop,3_0_3_0,NA,NA,completion,111806.02,611269,611269.52,611269.8,723075.82,723078,2023-04-28T12:39:14Z,723092.8,NULL,NA,NA,NA,NA,NA,NA,NA,qt,NA,3,NA,NA,NA,NA,NA,NA,NA,NA,NA,NA,NA,NA,NA,NA,NA,NA,NA,NA,NA
b1e4d,weiter,canvas.Screen,3_0_3_1,sdf,keypress(Space),response,1130.2,723078,723075.82,723092.8,724223,724228,2023-04-28T12:39:15Z,725088.48,NULL,NA,NA,NA,NA,NA,NA,NA,qt,NA,3,NA,NA,NA,NA,NA,NA,NA,NA,NA,NA,NA,NA,NA,NA,NA,NA,NA,NA,NA
b1e4d,check continue,flow.Sequence,3_0_3,NA,NA,completion,112953.2,611269,611269.52,611269.8,724223,724228,2023-04-28T12:39:15Z,725088.48,NULL,NA,NA,NA,NA,NA,NA,NA,qt,NA,3,NA,NA,NA,NA,NA,NA,NA,NA,NA,NA,NA,NA,NA,NA,NA,NA,NA,NA,NA
b1e4d,check continue,flow.Sequence,3_0_4,NA,NA,skipped,NA,724285,NA,NA,724223,724285,2023-04-28T12:39:15Z,725088.48,NULL,NA,NA,NA,NA,NA,NA,NA,sd,NA,4,NA,NA,NA,NA,NA,NA,NA,NA,NA,NA,NA,NA,NA,NA,NA,NA,NA,NA,NA
b1e4d,check continue,flow.Sequence,3_0_5,NA,NA,skipped,NA,724328,NA,NA,724223,724329,2023-04-28T12:39:15Z,725088.48,NULL,NA,NA,NA,NA,NA,NA,NA,sdf,NA,5,NA,NA,NA,NA,NA,NA,NA,NA,NA,NA,NA,NA,NA,NA,NA,NA,NA,NA,NA
b1e4d,check continue,flow.Sequence,3_0_6,NA,NA,skipped,NA,724366,NA,NA,724223,724366,2023-04-28T12:39:16Z,725088.48,NULL,NA,NA,NA,NA,NA,NA,NA,dfs,NA,6,NA,NA,NA,NA,NA,NA,NA,NA,NA,NA,NA,NA,NA,NA,NA,NA,NA,NA,NA
b1e4d,check continue,flow.Sequence,3_0_7,NA,NA,skipped,NA,724403,NA,NA,724223,724404,2023-04-28T12:39:16Z,725088.48,NULL,NA,NA,NA,NA,NA,NA,NA,df,NA,7,NA,NA,NA,NA,NA,NA,NA,NA,NA,NA,NA,NA,NA,NA,NA,NA,NA,NA,NA
b1e4d,check continue,flow.Sequence,3_0_8,NA,NA,skipped,NA,724436,NA,NA,724223,724436,2023-04-28T12:39:16Z,725088.48,NULL,NA,NA,NA,NA,NA,NA,NA,dfs,NA,8,NA,NA,NA,NA,NA,NA,NA,NA,NA,NA,NA,NA,NA,NA,NA,NA,NA,NA,NA
b1e4d,check continue,flow.Sequence,3_0_9,NA,NA,skipped,NA,724468,NA,NA,724223,724468,2023-04-28T12:39:16Z,725088.48,NULL,NA,NA,NA,NA,NA,NA,NA,dsf,NA,9,NA,NA,NA,NA,NA,NA,NA,NA,NA,NA,NA,NA,NA,NA,NA,NA,NA,NA,NA
b1e4d,check continue,flow.Sequence,3_0_10,NA,NA,skipped,NA,724501,NA,NA,724223,724501,2023-04-28T12:39:16Z,725088.48,NULL,NA,NA,NA,NA,NA,NA,NA,df,NA,10,NA,NA,NA,NA,NA,NA,NA,NA,NA,NA,NA,NA,NA,NA,NA,NA,NA,NA,NA
b1e4d,check continue,flow.Sequence,3_0_11,NA,NA,skipped,NA,724538,NA,NA,724223,724538,2023-04-28T12:39:16Z,725088.48,NULL,NA,NA,NA,NA,NA,NA,NA,dfs,NA,11,NA,NA,NA,NA,NA,NA,NA,NA,NA,NA,NA,NA,NA,NA,NA,NA,NA,NA,NA
b1e4d,check continue,flow.Sequence,3_0_12,NA,NA,skipped,NA,724568,NA,NA,724223,724568,2023-04-28T12:39:16Z,725088.48,NULL,NA,NA,NA,NA,NA,NA,NA,dsf,NA,12,NA,NA,NA,NA,NA,NA,NA,NA,NA,NA,NA,NA,NA,NA,NA,NA,NA,NA,NA
b1e4d,check continue,flow.Sequence,3_0_13,NA,NA,skipped,NA,724597,NA,NA,724223,724597,2023-04-28T12:39:16Z,725088.48,NULL,NA,NA,NA,NA,NA,NA,NA,dsf,NA,13,NA,NA,NA,NA,NA,NA,NA,NA,NA,NA,NA,NA,NA,NA,NA,NA,NA,NA,NA
b1e4d,check continue,flow.Sequence,3_0_14,NA,NA,skipped,NA,724629,NA,NA,724223,724629,2023-04-28T12:39:16Z,725088.48,NULL,NA,NA,NA,NA,NA,NA,NA,NA,NA,14,NA,NA,NA,NA,NA,NA,NA,NA,NA,NA,NA,NA,NA,NA,NA,NA,NA,NA,NA
b1e4d,check continue,flow.Sequence,3_0_15,NA,NA,skipped,NA,724662,NA,NA,724223,724662,2023-04-28T12:39:16Z,725088.48,NULL,NA,NA,NA,NA,NA,NA,NA,NA,NA,15,NA,NA,NA,NA,NA,NA,NA,NA,NA,NA,NA,NA,NA,NA,NA,NA,NA,NA,NA
b1e4d,check continue,flow.Sequence,3_0_16,NA,NA,skipped,NA,724695,NA,NA,724223,724695,2023-04-28T12:39:16Z,725088.48,NULL,NA,NA,NA,NA,NA,NA,NA,NA,NA,16,NA,NA,NA,NA,NA,NA,NA,NA,NA,NA,NA,NA,NA,NA,NA,NA,NA,NA,NA
b1e4d,check continue,flow.Sequence,3_0_17,NA,NA,skipped,NA,724723,NA,NA,724223,724723,2023-04-28T12:39:16Z,725088.48,NULL,NA,NA,NA,NA,NA,NA,NA,NA,NA,17,NA,NA,NA,NA,NA,NA,NA,NA,NA,NA,NA,NA,NA,NA,NA,NA,NA,NA,NA
b1e4d,check continue,flow.Sequence,3_0_18,NA,NA,skipped,NA,724753,NA,NA,724223,724753,2023-04-28T12:39:16Z,725088.48,NULL,NA,NA,NA,NA,NA,NA,NA,NA,NA,18,NA,NA,NA,NA,NA,NA,NA,NA,NA,NA,NA,NA,NA,NA,NA,NA,NA,NA,NA
b1e4d,check continue,flow.Sequence,3_0_19,NA,NA,skipped,NA,724786,NA,NA,724223,724786,2023-04-28T12:39:16Z,725088.48,NULL,NA,NA,NA,NA,NA,NA,NA,NA,NA,19,NA,NA,NA,NA,NA,NA,NA,NA,NA,NA,NA,NA,NA,NA,NA,NA,NA,NA,NA
b1e4d,check continue,flow.Sequence,3_0_20,NA,NA,skipped,NA,724817,NA,NA,724223,724817,2023-04-28T12:39:16Z,725088.48,NULL,NA,NA,NA,NA,NA,NA,NA,NA,NA,20,NA,NA,NA,NA,NA,NA,NA,NA,NA,NA,NA,NA,NA,NA,NA,NA,NA,NA,NA
b1e4d,check continue,flow.Sequence,3_0_21,NA,NA,skipped,NA,724849,NA,NA,724223,724849,2023-04-28T12:39:16Z,725088.48,NULL,NA,NA,NA,NA,NA,NA,NA,NA,NA,21,NA,NA,NA,NA,NA,NA,NA,NA,NA,NA,NA,NA,NA,NA,NA,NA,NA,NA,NA
b1e4d,check continue,flow.Sequence,3_0_22,NA,NA,skipped,NA,724878,NA,NA,724223,724878,2023-04-28T12:39:16Z,725088.48,NULL,NA,NA,NA,NA,NA,NA,NA,NA,NA,22,NA,NA,NA,NA,NA,NA,NA,NA,NA,NA,NA,NA,NA,NA,NA,NA,NA,NA,NA
b1e4d,check continue,flow.Sequence,3_0_23,NA,NA,skipped,NA,724906,NA,NA,724223,724906,2023-04-28T12:39:16Z,725088.48,NULL,NA,NA,NA,NA,NA,NA,NA,NA,NA,23,NA,NA,NA,NA,NA,NA,NA,NA,NA,NA,NA,NA,NA,NA,NA,NA,NA,NA,NA
b1e4d,check continue,flow.Sequence,3_0_24,NA,NA,skipped,NA,724940,NA,NA,724223,724940,2023-04-28T12:39:16Z,725088.48,NULL,NA,NA,NA,NA,NA,NA,NA,NA,NA,24,NA,NA,NA,NA,NA,NA,NA,NA,NA,NA,NA,NA,NA,NA,NA,NA,NA,NA,NA
b1e4d,check continue,flow.Sequence,3_0_25,NA,NA,skipped,NA,724969,NA,NA,724223,724969,2023-04-28T12:39:16Z,725088.48,NULL,NA,NA,NA,NA,NA,NA,NA,NA,NA,25,NA,NA,NA,NA,NA,NA,NA,NA,NA,NA,NA,NA,NA,NA,NA,NA,NA,NA,NA
b1e4d,check continue,flow.Sequence,3_0_26,NA,NA,skipped,NA,724999,NA,NA,724223,724999,2023-04-28T12:39:16Z,725088.48,NULL,NA,NA,NA,NA,NA,NA,NA,NA,NA,26,NA,NA,NA,NA,NA,NA,NA,NA,NA,NA,NA,NA,NA,NA,NA,NA,NA,NA,NA
b1e4d,check continue,flow.Sequence,3_0_27,NA,NA,skipped,NA,725029,NA,NA,724223,725029,2023-04-28T12:39:16Z,725088.48,NULL,NA,NA,NA,NA,NA,NA,NA,NA,NA,27,NA,NA,NA,NA,NA,NA,NA,NA,NA,NA,NA,NA,NA,NA,NA,NA,NA,NA,NA
b1e4d,check continue,flow.Sequence,3_0_28,NA,NA,skipped,NA,725057,NA,NA,724223,725057,2023-04-28T12:39:16Z,725088.48,NULL,NA,NA,NA,NA,NA,NA,NA,NA,NA,28,NA,NA,NA,NA,NA,NA,NA,NA,NA,NA,NA,NA,NA,NA,NA,NA,NA,NA,NA
b1e4d,check continue,flow.Sequence,3_0_29,NA,NA,skipped,NA,725088,NA,NA,724223,725088,2023-04-28T12:39:16Z,725088.48,NULL,NA,NA,NA,NA,NA,NA,NA,NA,NA,29,NA,NA,NA,NA,NA,NA,NA,NA,NA,NA,NA,NA,NA,NA,NA,NA,NA,NA,NA
b1e4d,until continue,flow.Loop,3_0,NA,NA,completion,492186.54,231987,232036.16,232036.46,724223,725088,2023-04-28T12:39:16Z,725088.48,NULL,NA,NA,NA,NA,NA,NA,NA,NA,NA,NA,NA,NA,NA,NA,NA,NA,NA,NA,NA,NA,NA,NA,NA,NA,NA,NA,NA,NA,NA
b1e4d,block 1,flow.Sequence,3,NA,NA,completion,492186.54,231987,232036.16,232036.46,724223,725088,2023-04-28T12:39:16Z,725088.48,NULL,NA,NA,NA,NA,NA,NA,NA,NA,NA,NA,NA,NA,NA,NA,NA,NA,NA,NA,NA,NA,NA,NA,NA,NA,NA,NA,NA,NA,NA
b1e4d,1.Part Over,canvas.Screen,4,NA,keypress(Space),response,2156.52,725088,725088.18,725088.48,727245,727250,2023-04-28T12:39:18Z,727312.6,NULL,NA,NA,NA,NA,NA,NA,NA,NA,NA,NA,NA,NA,NA,NA,NA,NA,NA,NA,NA,NA,NA,NA,NA,NA,NA,NA,NA,NA,NA
b1e4d,Deep Question,html.Page,5_0_0_0_0_0_0,NA,NA,form submission,14251.4,727313,727312.3,727312.6,741564,741564,2023-04-28T12:39:33Z,741571.7,NULL,Auftrag,uagizaji,d,NA,NA,NA,ushahawi,NA,NA,0,NA,NA,NA,NA,NA,NA,NA,NA,NA,NA,NA,NA,NA,NA,NA,NA,NA,NA,NA
b1e4d,"""Richtig""-Screen",canvas.Screen,5_0_0_0_0_0_1,NA,NA,skipped,NA,741566,NA,NA,741564,741566,2023-04-28T12:39:33Z,741571.7,NULL,Auftrag,uagizaji,d,NA,NA,NA,NA,sdf,NA,0,NA,NA,NA,NA,NA,NA,NA,NA,NA,NA,NA,NA,NA,NA,NA,NA,NA,NA,NA
b1e4d,"""Falsch""-Screen",canvas.Screen,5_0_0_0_0_0_2,NA,NA,timeout,5004.9400000001,741567,741562.2,741571.7,746559.84,746560,2023-04-28T12:39:38Z,746576.64,NULL,Auftrag,uagizaji,d,NA,NA,NA,NA,sdf,0,0,NA,NA,NA,NA,NA,NA,NA,NA,NA,NA,NA,NA,NA,NA,NA,NA,NA,NA,NA
b1e4d,deep,flow.Sequence,5_0_0_0_0_0,NA,NA,completion,19247.24,727313,727312.3,727312.6,746559.84,746561,2023-04-28T12:39:38Z,746576.64,NULL,Auftrag,uagizaji,d,NA,NA,NA,NA,sdf,NA,0,NA,NA,NA,NA,NA,NA,NA,NA,NA,NA,NA,NA,NA,NA,NA,NA,NA,NA,NA
b1e4d,shallow,flow.Sequence,5_0_0_0_0_1,NA,NA,skipped,NA,746561,NA,NA,746559.84,746561,2023-04-28T12:39:38Z,746576.64,NULL,Auftrag,uagizaji,d,NA,NA,NA,NA,sdf,NA,0,NA,NA,NA,NA,NA,NA,NA,NA,NA,NA,NA,NA,NA,NA,NA,NA,NA,NA,NA
b1e4d,task,flow.Sequence,5_0_0_0_0,NA,NA,completion,19247.24,727313,727312.3,727312.6,746559.84,746561,2023-04-28T12:39:38Z,746576.64,NULL,Auftrag,uagizaji,d,NA,NA,NA,NA,sdf,NA,0,NA,NA,NA,NA,NA,NA,NA,NA,NA,NA,NA,NA,NA,NA,NA,NA,NA,NA,NA
b1e4d,Deep Question,html.Page,5_0_0_0_1_0_0,NA,NA,form submission,23521.36,746561,746559.84,746576.64,770098,770098,2023-04-28T12:40:01Z,770106.52,NULL,Sänger,mwimbaji,d,NA,NA,NA,nsondara,NA,NA,0,NA,NA,NA,NA,NA,NA,NA,NA,NA,NA,NA,NA,NA,NA,NA,NA,NA,NA,NA
b1e4d,"""Richtig""-Screen",canvas.Screen,5_0_0_0_1_0_1,NA,NA,skipped,NA,770099,NA,NA,770098,770100,2023-04-28T12:40:01Z,770106.52,NULL,Sänger,mwimbaji,d,NA,NA,NA,NA,sdf,NA,0,NA,NA,NA,NA,NA,NA,NA,NA,NA,NA,NA,NA,NA,NA,NA,NA,NA,NA,NA
b1e4d,"""Falsch""-Screen",canvas.Screen,5_0_0_0_1_0_2,NA,NA,timeout,5003.84,770101,770096.22,770106.52,775093.7,775094,2023-04-28T12:40:06Z,775110.36,NULL,Sänger,mwimbaji,d,NA,NA,NA,NA,sdf,0,0,NA,NA,NA,NA,NA,NA,NA,NA,NA,NA,NA,NA,NA,NA,NA,NA,NA,NA,NA
b1e4d,deep,flow.Sequence,5_0_0_0_1_0,NA,NA,completion,28517.06,746561,746559.84,746576.64,775093.7,775095,2023-04-28T12:40:06Z,775110.36,NULL,Sänger,mwimbaji,d,NA,NA,NA,NA,sdf,NA,0,NA,NA,NA,NA,NA,NA,NA,NA,NA,NA,NA,NA,NA,NA,NA,NA,NA,NA,NA
b1e4d,shallow,flow.Sequence,5_0_0_0_1_1,NA,NA,skipped,NA,775095,NA,NA,775093.7,775095,2023-04-28T12:40:06Z,775110.36,NULL,Sänger,mwimbaji,d,NA,NA,NA,NA,sdf,NA,0,NA,NA,NA,NA,NA,NA,NA,NA,NA,NA,NA,NA,NA,NA,NA,NA,NA,NA,NA
b1e4d,task,flow.Sequence,5_0_0_0_1,NA,NA,completion,28517.06,746561,746559.84,746576.64,775093.7,775095,2023-04-28T12:40:06Z,775110.36,NULL,Sänger,mwimbaji,d,NA,NA,NA,NA,sdf,NA,0,NA,NA,NA,NA,NA,NA,NA,NA,NA,NA,NA,NA,NA,NA,NA,NA,NA,NA,NA
b1e4d,Deep Question,html.Page,5_0_0_0_2_0_0,NA,NA,form submission,9237.64,775095,775093.7,775110.36,784348,784348,2023-04-28T12:40:15Z,784360.4,NULL,Wettbewerb,ushindani,d,NA,NA,NA,mtihashi,NA,NA,0,NA,NA,NA,NA,NA,NA,NA,NA,NA,NA,NA,NA,NA,NA,NA,NA,NA,NA,NA
b1e4d,"""Richtig""-Screen",canvas.Screen,5_0_0_0_2_0_1,NA,NA,skipped,NA,784349,NA,NA,784348,784349,2023-04-28T12:40:15Z,784360.4,NULL,Wettbewerb,ushindani,d,NA,NA,NA,NA,sdf,NA,0,NA,NA,NA,NA,NA,NA,NA,NA,NA,NA,NA,NA,NA,NA,NA,NA,NA,NA,NA
b1e4d,"""Falsch""-Screen",canvas.Screen,5_0_0_0_2_0_2,NA,NA,timeout,4998.62,784350,784346.18,784360.4,789342.32,789343,2023-04-28T12:40:20Z,789359.02,NULL,Wettbewerb,ushindani,d,NA,NA,NA,NA,sdf,0,0,NA,NA,NA,NA,NA,NA,NA,NA,NA,NA,NA,NA,NA,NA,NA,NA,NA,NA,NA
b1e4d,deep,flow.Sequence,5_0_0_0_2_0,NA,NA,completion,14231.96,775095,775093.7,775110.36,789342.32,789345,2023-04-28T12:40:20Z,789359.02,NULL,Wettbewerb,ushindani,d,NA,NA,NA,NA,sdf,NA,0,NA,NA,NA,NA,NA,NA,NA,NA,NA,NA,NA,NA,NA,NA,NA,NA,NA,NA,NA
b1e4d,shallow,flow.Sequence,5_0_0_0_2_1,NA,NA,skipped,NA,789345,NA,NA,789342.32,789345,2023-04-28T12:40:20Z,789359.02,NULL,Wettbewerb,ushindani,d,NA,NA,NA,NA,sdf,NA,0,NA,NA,NA,NA,NA,NA,NA,NA,NA,NA,NA,NA,NA,NA,NA,NA,NA,NA,NA
b1e4d,task,flow.Sequence,5_0_0_0_2,NA,NA,completion,14231.96,775095,775093.7,775110.36,789342.32,789346,2023-04-28T12:40:20Z,789359.02,NULL,Wettbewerb,ushindani,d,NA,NA,NA,NA,sdf,NA,0,NA,NA,NA,NA,NA,NA,NA,NA,NA,NA,NA,NA,NA,NA,NA,NA,NA,NA,NA
b1e4d,deep,flow.Sequence,5_0_0_0_3_0,NA,NA,skipped,NA,789346,NA,NA,789342.32,789346,2023-04-28T12:40:20Z,789359.02,NULL,Schönheit,kirembo,s,mahojiano,msisimko,jitihadi,NA,sdf,NA,0,NA,NA,NA,NA,NA,NA,NA,NA,NA,NA,NA,NA,NA,NA,NA,NA,NA,NA,NA
b1e4d,Shallow Question,html.Page,5_0_0_0_3_1_0,NA,NA,form submission,9664.98,789347,789342.32,789359.02,799024,799024,2023-04-28T12:40:30Z,799024.74,NULL,Schönheit,kirembo,s,mahojiano,msisimko,jitihadi,kirembo,NA,NA,0,NA,NA,NA,NA,NA,NA,NA,NA,NA,NA,NA,NA,NA,NA,NA,NA,NA,NA,NA
b1e4d,"""Richtig""-Screen",canvas.Screen,5_0_0_0_3_1_1,NA,NA,timeout,4994.24,799028,799021.74,799024.74,804002.28,804003,2023-04-28T12:40:35Z,804018.98,NULL,Schönheit,kirembo,s,mahojiano,msisimko,jitihadi,NA,sdf,1,0,NA,NA,NA,NA,NA,NA,NA,NA,NA,NA,NA,NA,NA,NA,NA,NA,NA,NA,NA
b1e4d,"""Falsch""-Screen",canvas.Screen,5_0_0_0_3_1_2,NA,NA,skipped,NA,804006,NA,NA,804002.28,804007,2023-04-28T12:40:35Z,804018.98,NULL,Schönheit,kirembo,s,mahojiano,msisimko,jitihadi,NA,sdf,NA,0,NA,NA,NA,NA,NA,NA,NA,NA,NA,NA,NA,NA,NA,NA,NA,NA,NA,NA,NA
b1e4d,shallow,flow.Sequence,5_0_0_0_3_1,NA,NA,completion,14643.26,789346,789342.32,789359.02,804002.28,804007,2023-04-28T12:40:35Z,804018.98,NULL,Schönheit,kirembo,s,mahojiano,msisimko,jitihadi,NA,sdf,NA,0,NA,NA,NA,NA,NA,NA,NA,NA,NA,NA,NA,NA,NA,NA,NA,NA,NA,NA,NA
b1e4d,task,flow.Sequence,5_0_0_0_3,NA,NA,completion,14643.26,789346,789342.32,789359.02,804002.28,804007,2023-04-28T12:40:35Z,804018.98,NULL,Schönheit,kirembo,s,mahojiano,msisimko,jitihadi,NA,sdf,NA,0,NA,NA,NA,NA,NA,NA,NA,NA,NA,NA,NA,NA,NA,NA,NA,NA,NA,NA,NA
b1e4d,deep,flow.Sequence,5_0_0_0_4_0,NA,NA,skipped,NA,804007,NA,NA,804002.28,804008,2023-04-28T12:40:35Z,804018.98,NULL,Zufall,kikuti,s,kukosekana,uchoraji,leseni,NA,sdf,NA,0,NA,NA,NA,NA,NA,NA,NA,NA,NA,NA,NA,NA,NA,NA,NA,NA,NA,NA,NA
b1e4d,Shallow Question,html.Page,5_0_0_0_4_1_0,NA,NA,form submission,18861.02,804008,804002.28,804018.98,822880,822880,2023-04-28T12:40:54Z,822881.02,NULL,Zufall,kikuti,s,kukosekana,uchoraji,leseni,kikuti,NA,NA,0,NA,NA,NA,NA,NA,NA,NA,NA,NA,NA,NA,NA,NA,NA,NA,NA,NA,NA,NA
b1e4d,"""Richtig""-Screen",canvas.Screen,5_0_0_0_4_1_1,NA,NA,timeout,4995,822882,822878.58,822881.02,827858.68,827859,2023-04-28T12:40:59Z,827876.02,NULL,Zufall,kikuti,s,kukosekana,uchoraji,leseni,NA,sdf,1,0,NA,NA,NA,NA,NA,NA,NA,NA,NA,NA,NA,NA,NA,NA,NA,NA,NA,NA,NA
b1e4d,"""Falsch""-Screen",canvas.Screen,5_0_0_0_4_1_2,NA,NA,skipped,NA,827865,NA,NA,827858.68,827865,2023-04-28T12:40:59Z,827876.02,NULL,Zufall,kikuti,s,kukosekana,uchoraji,leseni,NA,sdf,NA,0,NA,NA,NA,NA,NA,NA,NA,NA,NA,NA,NA,NA,NA,NA,NA,NA,NA,NA,NA
b1e4d,shallow,flow.Sequence,5_0_0_0_4_1,NA,NA,completion,23839.7,804008,804002.28,804018.98,827858.68,827866,2023-04-28T12:40:59Z,827876.02,NULL,Zufall,kikuti,s,kukosekana,uchoraji,leseni,NA,sdf,NA,0,NA,NA,NA,NA,NA,NA,NA,NA,NA,NA,NA,NA,NA,NA,NA,NA,NA,NA,NA
b1e4d,task,flow.Sequence,5_0_0_0_4,NA,NA,completion,23839.7,804007,804002.28,804018.98,827858.68,827866,2023-04-28T12:40:59Z,827876.02,NULL,Zufall,kikuti,s,kukosekana,uchoraji,leseni,NA,sdf,NA,0,NA,NA,NA,NA,NA,NA,NA,NA,NA,NA,NA,NA,NA,NA,NA,NA,NA,NA,NA
b1e4d,deep,flow.Sequence,5_0_0_0_5_0,NA,NA,skipped,NA,827866,NA,NA,827858.68,827866,2023-04-28T12:40:59Z,827876.02,NULL,Kanzler,diwani,s,rasilmali,mahitaji,maabudu,NA,sdf,NA,0,NA,NA,NA,NA,NA,NA,NA,NA,NA,NA,NA,NA,NA,NA,NA,NA,NA,NA,NA
b1e4d,Shallow Question,html.Page,5_0_0_0_5_1_0,NA,NA,form submission,8897.98,827867,827858.68,827876.02,836774,836775,2023-04-28T12:41:08Z,836783.14,NULL,Kanzler,diwani,s,rasilmali,mahitaji,maabudu,maabudu,NA,NA,0,NA,NA,NA,NA,NA,NA,NA,NA,NA,NA,NA,NA,NA,NA,NA,NA,NA,NA,NA
b1e4d,"""Richtig""-Screen",canvas.Screen,5_0_0_0_5_1_1,NA,NA,skipped,NA,836779,NA,NA,836774,836779,2023-04-28T12:41:08Z,836783.14,NULL,Kanzler,diwani,s,rasilmali,mahitaji,maabudu,NA,sdf,NA,0,NA,NA,NA,NA,NA,NA,NA,NA,NA,NA,NA,NA,NA,NA,NA,NA,NA,NA,NA
b1e4d,"""Falsch""-Screen",canvas.Screen,5_0_0_0_5_1_2,NA,NA,timeout,5001.7999999999,836781,836771.9,836783.14,841769.26,841770,2023-04-28T12:41:13Z,841784.94,NULL,Kanzler,diwani,s,rasilmali,mahitaji,maabudu,NA,sdf,0,0,NA,NA,NA,NA,NA,NA,NA,NA,NA,NA,NA,NA,NA,NA,NA,NA,NA,NA,NA
b1e4d,shallow,flow.Sequence,5_0_0_0_5_1,NA,NA,completion,13893.24,827867,827858.68,827876.02,841769.26,841770,2023-04-28T12:41:13Z,841784.94,NULL,Kanzler,diwani,s,rasilmali,mahitaji,maabudu,NA,sdf,NA,0,NA,NA,NA,NA,NA,NA,NA,NA,NA,NA,NA,NA,NA,NA,NA,NA,NA,NA,NA
b1e4d,task,flow.Sequence,5_0_0_0_5,NA,NA,completion,13893.24,827866,827858.68,827876.02,841769.26,841771,2023-04-28T12:41:13Z,841784.94,NULL,Kanzler,diwani,s,rasilmali,mahitaji,maabudu,NA,sdf,NA,0,NA,NA,NA,NA,NA,NA,NA,NA,NA,NA,NA,NA,NA,NA,NA,NA,NA,NA,NA
b1e4d,Deep Question,html.Page,5_0_0_0_6_0_0,NA,NA,form submission,9785.0600000001,841771,841769.26,841784.94,851570,851570,2023-04-28T12:41:23Z,851576.76,NULL,Angreifer,mshambulizi,d,NA,NA,NA,kakatumbo,NA,NA,0,NA,NA,NA,NA,NA,NA,NA,NA,NA,NA,NA,NA,NA,NA,NA,NA,NA,NA,NA
b1e4d,"""Richtig""-Screen",canvas.Screen,5_0_0_0_6_0_1,NA,NA,skipped,NA,851572,NA,NA,851570,851573,2023-04-28T12:41:23Z,851576.76,NULL,Angreifer,mshambulizi,d,NA,NA,NA,NA,sdf,NA,0,NA,NA,NA,NA,NA,NA,NA,NA,NA,NA,NA,NA,NA,NA,NA,NA,NA,NA,NA
b1e4d,"""Falsch""-Screen",canvas.Screen,5_0_0_0_6_0_2,NA,NA,timeout,4995.62,851575,851568.74,851576.76,856555.72,856557,2023-04-28T12:41:28Z,856572.38,NULL,Angreifer,mshambulizi,d,NA,NA,NA,NA,sdf,0,0,NA,NA,NA,NA,NA,NA,NA,NA,NA,NA,NA,NA,NA,NA,NA,NA,NA,NA,NA
b1e4d,deep,flow.Sequence,5_0_0_0_6_0,NA,NA,completion,14770.78,841771,841769.26,841784.94,856555.72,856557,2023-04-28T12:41:28Z,856572.38,NULL,Angreifer,mshambulizi,d,NA,NA,NA,NA,sdf,NA,0,NA,NA,NA,NA,NA,NA,NA,NA,NA,NA,NA,NA,NA,NA,NA,NA,NA,NA,NA
b1e4d,shallow,flow.Sequence,5_0_0_0_6_1,NA,NA,skipped,NA,856557,NA,NA,856555.72,856557,2023-04-28T12:41:28Z,856572.38,NULL,Angreifer,mshambulizi,d,NA,NA,NA,NA,sdf,NA,0,NA,NA,NA,NA,NA,NA,NA,NA,NA,NA,NA,NA,NA,NA,NA,NA,NA,NA,NA
b1e4d,task,flow.Sequence,5_0_0_0_6,NA,NA,completion,14770.78,841771,841769.26,841784.94,856555.72,856557,2023-04-28T12:41:28Z,856572.38,NULL,Angreifer,mshambulizi,d,NA,NA,NA,NA,sdf,NA,0,NA,NA,NA,NA,NA,NA,NA,NA,NA,NA,NA,NA,NA,NA,NA,NA,NA,NA,NA
b1e4d,deep,flow.Sequence,5_0_0_0_7_0,NA,NA,skipped,NA,856557,NA,NA,856555.72,856557,2023-04-28T12:41:28Z,856572.38,NULL,Abrechnung,uhasibu,s,kusahihisha,mpambano,mashambulizi,NA,sdf,NA,0,NA,NA,NA,NA,NA,NA,NA,NA,NA,NA,NA,NA,NA,NA,NA,NA,NA,NA,NA
b1e4d,Shallow Question,html.Page,5_0_0_0_7_1_0,NA,NA,form submission,22779.62,856557,856555.72,856572.38,879352,879353,2023-04-28T12:41:51Z,879357.04,NULL,Abrechnung,uhasibu,s,kusahihisha,mpambano,mashambulizi,kusahihisha,NA,NA,0,NA,NA,NA,NA,NA,NA,NA,NA,NA,NA,NA,NA,NA,NA,NA,NA,NA,NA,NA
b1e4d,"""Richtig""-Screen",canvas.Screen,5_0_0_0_7_1_1,NA,NA,skipped,NA,879355,NA,NA,879352,879355,2023-04-28T12:41:51Z,879357.04,NULL,Abrechnung,uhasibu,s,kusahihisha,mpambano,mashambulizi,NA,sdf,NA,0,NA,NA,NA,NA,NA,NA,NA,NA,NA,NA,NA,NA,NA,NA,NA,NA,NA,NA,NA
b1e4d,"""Falsch""-Screen",canvas.Screen,5_0_0_0_7_1_2,NA,NA,timeout,4991.2,879357,879350.98,879357.04,884332.1,884333,2023-04-28T12:41:55Z,884348.24,NULL,Abrechnung,uhasibu,s,kusahihisha,mpambano,mashambulizi,NA,sdf,0,0,NA,NA,NA,NA,NA,NA,NA,NA,NA,NA,NA,NA,NA,NA,NA,NA,NA,NA,NA
b1e4d,shallow,flow.Sequence,5_0_0_0_7_1,NA,NA,completion,27759.72,856557,856555.72,856572.38,884332.1,884334,2023-04-28T12:41:55Z,884348.24,NULL,Abrechnung,uhasibu,s,kusahihisha,mpambano,mashambulizi,NA,sdf,NA,0,NA,NA,NA,NA,NA,NA,NA,NA,NA,NA,NA,NA,NA,NA,NA,NA,NA,NA,NA
b1e4d,task,flow.Sequence,5_0_0_0_7,NA,NA,completion,27759.72,856557,856555.72,856572.38,884332.1,884335,2023-04-28T12:41:55Z,884348.24,NULL,Abrechnung,uhasibu,s,kusahihisha,mpambano,mashambulizi,NA,sdf,NA,0,NA,NA,NA,NA,NA,NA,NA,NA,NA,NA,NA,NA,NA,NA,NA,NA,NA,NA,NA
b1e4d,block,flow.Loop,5_0_0_0,NA,NA,completion,157019.5,727313,727312.3,727312.6,884332.1,884336,2023-04-28T12:41:55Z,884348.24,NULL,NA,NA,NA,NA,NA,NA,NA,sdf,NA,0,NA,NA,NA,NA,NA,NA,NA,NA,NA,NA,NA,NA,NA,NA,NA,NA,NA,NA,NA
b1e4d,weiter,canvas.Screen,5_0_0_1,sdf,keypress(Space),response,916.76000000001,884336,884332.1,884348.24,885265,885268,2023-04-28T12:41:56Z,885332.98,NULL,NA,NA,NA,NA,NA,NA,NA,sdf,NA,0,NA,NA,NA,NA,NA,NA,NA,NA,NA,NA,NA,NA,NA,NA,NA,NA,NA,NA,NA
b1e4d,check continue,flow.Sequence,5_0_0,NA,NA,completion,157952.4,727313,727312.3,727312.6,885265,885269,2023-04-28T12:41:56Z,885332.98,NULL,NA,NA,NA,NA,NA,NA,NA,sdf,NA,0,NA,NA,NA,NA,NA,NA,NA,NA,NA,NA,NA,NA,NA,NA,NA,NA,NA,NA,NA
b1e4d,Deep Question,html.Page,5_0_1_0_0_0_0,NA,NA,form submission,17933.02,885332,885332.68,885332.98,903266,903267,2023-04-28T12:42:14Z,903279.22,NULL,Sänger,mwimbaji,d,NA,NA,NA,mwahabini,NA,NA,1,NA,NA,NA,NA,NA,NA,NA,NA,NA,NA,NA,NA,NA,NA,NA,NA,NA,NA,NA
b1e4d,"""Richtig""-Screen",canvas.Screen,5_0_1_0_0_0_1,NA,NA,skipped,NA,903269,NA,NA,903266,903269,2023-04-28T12:42:14Z,903279.22,NULL,Sänger,mwimbaji,d,NA,NA,NA,NA,sdfdsf,NA,1,NA,NA,NA,NA,NA,NA,NA,NA,NA,NA,NA,NA,NA,NA,NA,NA,NA,NA,NA
b1e4d,"""Falsch""-Screen",canvas.Screen,5_0_1_0_0_0_2,NA,NA,timeout,4998.9400000001,903271,903264.18,903279.22,908260.76,908261,2023-04-28T12:42:19Z,908278.16,NULL,Sänger,mwimbaji,d,NA,NA,NA,NA,sdfdsf,0,1,NA,NA,NA,NA,NA,NA,NA,NA,NA,NA,NA,NA,NA,NA,NA,NA,NA,NA,NA
b1e4d,deep,flow.Sequence,5_0_1_0_0_0,NA,NA,completion,22927.78,885332,885332.68,885332.98,908260.76,908261,2023-04-28T12:42:19Z,908278.16,NULL,Sänger,mwimbaji,d,NA,NA,NA,NA,sdfdsf,NA,1,NA,NA,NA,NA,NA,NA,NA,NA,NA,NA,NA,NA,NA,NA,NA,NA,NA,NA,NA
b1e4d,shallow,flow.Sequence,5_0_1_0_0_1,NA,NA,skipped,NA,908261,NA,NA,908260.76,908262,2023-04-28T12:42:19Z,908278.16,NULL,Sänger,mwimbaji,d,NA,NA,NA,NA,sdfdsf,NA,1,NA,NA,NA,NA,NA,NA,NA,NA,NA,NA,NA,NA,NA,NA,NA,NA,NA,NA,NA
b1e4d,task,flow.Sequence,5_0_1_0_0,NA,NA,completion,22927.78,885332,885332.68,885332.98,908260.76,908263,2023-04-28T12:42:19Z,908278.16,NULL,Sänger,mwimbaji,d,NA,NA,NA,NA,sdfdsf,NA,1,NA,NA,NA,NA,NA,NA,NA,NA,NA,NA,NA,NA,NA,NA,NA,NA,NA,NA,NA
b1e4d,deep,flow.Sequence,5_0_1_0_1_0,NA,NA,skipped,NA,908263,NA,NA,908260.76,908263,2023-04-28T12:42:19Z,908278.16,NULL,Schönheit,kirembo,s,mahojiano,msisimko,jitihadi,NA,sdfdsf,NA,1,NA,NA,NA,NA,NA,NA,NA,NA,NA,NA,NA,NA,NA,NA,NA,NA,NA,NA,NA
b1e4d,Shallow Question,html.Page,5_0_1_0_1_1_0,NA,NA,form submission,3345.84,908263,908260.76,908278.16,911624,911624,2023-04-28T12:42:23Z,911623.36,NULL,Schönheit,kirembo,s,mahojiano,msisimko,jitihadi,kirembo,NA,NA,1,NA,NA,NA,NA,NA,NA,NA,NA,NA,NA,NA,NA,NA,NA,NA,NA,NA,NA,NA
b1e4d,"""Richtig""-Screen",canvas.Screen,5_0_1_0_1_1_1,NA,NA,timeout,4994.5600000001,911626,911621.4,911623.36,916602.14,916602,2023-04-28T12:42:28Z,916617.92,NULL,Schönheit,kirembo,s,mahojiano,msisimko,jitihadi,NA,sdfdsf,1,1,NA,NA,NA,NA,NA,NA,NA,NA,NA,NA,NA,NA,NA,NA,NA,NA,NA,NA,NA
b1e4d,"""Falsch""-Screen",canvas.Screen,5_0_1_0_1_1_2,NA,NA,skipped,NA,916604,NA,NA,916602.14,916604,2023-04-28T12:42:28Z,916617.92,NULL,Schönheit,kirembo,s,mahojiano,msisimko,jitihadi,NA,sdfdsf,NA,1,NA,NA,NA,NA,NA,NA,NA,NA,NA,NA,NA,NA,NA,NA,NA,NA,NA,NA,NA
b1e4d,shallow,flow.Sequence,5_0_1_0_1_1,NA,NA,completion,8323.98,908263,908260.76,908278.16,916602.14,916605,2023-04-28T12:42:28Z,916617.92,NULL,Schönheit,kirembo,s,mahojiano,msisimko,jitihadi,NA,sdfdsf,NA,1,NA,NA,NA,NA,NA,NA,NA,NA,NA,NA,NA,NA,NA,NA,NA,NA,NA,NA,NA
b1e4d,task,flow.Sequence,5_0_1_0_1,NA,NA,completion,8323.98,908263,908260.76,908278.16,916602.14,916605,2023-04-28T12:42:28Z,916617.92,NULL,Schönheit,kirembo,s,mahojiano,msisimko,jitihadi,NA,sdfdsf,NA,1,NA,NA,NA,NA,NA,NA,NA,NA,NA,NA,NA,NA,NA,NA,NA,NA,NA,NA,NA
b1e4d,deep,flow.Sequence,5_0_1_0_2_0,NA,NA,skipped,NA,916605,NA,NA,916602.14,916605,2023-04-28T12:42:28Z,916617.92,NULL,Zufall,kikuti,s,kukosekana,uchoraji,leseni,NA,sdfdsf,NA,1,NA,NA,NA,NA,NA,NA,NA,NA,NA,NA,NA,NA,NA,NA,NA,NA,NA,NA,NA
b1e4d,Shallow Question,html.Page,5_0_1_0_2_1_0,NA,NA,form submission,4364.08,916605,916602.14,916617.92,920982,920982,2023-04-28T12:42:32Z,920993.88,NULL,Zufall,kikuti,s,kukosekana,uchoraji,leseni,kikuti,NA,NA,1,NA,NA,NA,NA,NA,NA,NA,NA,NA,NA,NA,NA,NA,NA,NA,NA,NA,NA,NA
b1e4d,"""Richtig""-Screen",canvas.Screen,5_0_1_0_2_1_1,NA,NA,timeout,5000.7,920984,920980.66,920993.88,925977.56,925978,2023-04-28T12:42:37Z,925994.58,NULL,Zufall,kikuti,s,kukosekana,uchoraji,leseni,NA,sdfdsf,1,1,NA,NA,NA,NA,NA,NA,NA,NA,NA,NA,NA,NA,NA,NA,NA,NA,NA,NA,NA
b1e4d,"""Falsch""-Screen",canvas.Screen,5_0_1_0_2_1_2,NA,NA,skipped,NA,925980,NA,NA,925977.56,925980,2023-04-28T12:42:37Z,925994.58,NULL,Zufall,kikuti,s,kukosekana,uchoraji,leseni,NA,sdfdsf,NA,1,NA,NA,NA,NA,NA,NA,NA,NA,NA,NA,NA,NA,NA,NA,NA,NA,NA,NA,NA
b1e4d,shallow,flow.Sequence,5_0_1_0_2_1,NA,NA,completion,9359.64,916605,916602.14,916617.92,925977.56,925980,2023-04-28T12:42:37Z,925994.58,NULL,Zufall,kikuti,s,kukosekana,uchoraji,leseni,NA,sdfdsf,NA,1,NA,NA,NA,NA,NA,NA,NA,NA,NA,NA,NA,NA,NA,NA,NA,NA,NA,NA,NA
b1e4d,task,flow.Sequence,5_0_1_0_2,NA,NA,completion,9359.64,916605,916602.14,916617.92,925977.56,925980,2023-04-28T12:42:37Z,925994.58,NULL,Zufall,kikuti,s,kukosekana,uchoraji,leseni,NA,sdfdsf,NA,1,NA,NA,NA,NA,NA,NA,NA,NA,NA,NA,NA,NA,NA,NA,NA,NA,NA,NA,NA
b1e4d,Deep Question,html.Page,5_0_1_0_3_0_0,NA,NA,form submission,14562.42,925980,925977.56,925994.58,940557,940557,2023-04-28T12:42:52Z,940572.3,NULL,Auftrag,uagizaji,d,NA,NA,NA,msherengo,NA,NA,1,NA,NA,NA,NA,NA,NA,NA,NA,NA,NA,NA,NA,NA,NA,NA,NA,NA,NA,NA
b1e4d,"""Richtig""-Screen",canvas.Screen,5_0_1_0_3_0_1,NA,NA,skipped,NA,940559,NA,NA,940557,940559,2023-04-28T12:42:52Z,940572.3,NULL,Auftrag,uagizaji,d,NA,NA,NA,NA,sdfdsf,NA,1,NA,NA,NA,NA,NA,NA,NA,NA,NA,NA,NA,NA,NA,NA,NA,NA,NA,NA,NA
b1e4d,"""Falsch""-Screen",canvas.Screen,5_0_1_0_3_0_2,NA,NA,timeout,4997.1,940560,940555.48,940572.3,945553.24,945553,2023-04-28T12:42:57Z,945569.4,NULL,Auftrag,uagizaji,d,NA,NA,NA,NA,sdfdsf,0,1,NA,NA,NA,NA,NA,NA,NA,NA,NA,NA,NA,NA,NA,NA,NA,NA,NA,NA,NA
b1e4d,deep,flow.Sequence,5_0_1_0_3_0,NA,NA,completion,19558.66,925980,925977.56,925994.58,945553.24,945554,2023-04-28T12:42:57Z,945569.4,NULL,Auftrag,uagizaji,d,NA,NA,NA,NA,sdfdsf,NA,1,NA,NA,NA,NA,NA,NA,NA,NA,NA,NA,NA,NA,NA,NA,NA,NA,NA,NA,NA
b1e4d,shallow,flow.Sequence,5_0_1_0_3_1,NA,NA,skipped,NA,945554,NA,NA,945553.24,945554,2023-04-28T12:42:57Z,945569.4,NULL,Auftrag,uagizaji,d,NA,NA,NA,NA,sdfdsf,NA,1,NA,NA,NA,NA,NA,NA,NA,NA,NA,NA,NA,NA,NA,NA,NA,NA,NA,NA,NA
b1e4d,task,flow.Sequence,5_0_1_0_3,NA,NA,completion,19558.66,925980,925977.56,925994.58,945553.24,945555,2023-04-28T12:42:57Z,945569.4,NULL,Auftrag,uagizaji,d,NA,NA,NA,NA,sdfdsf,NA,1,NA,NA,NA,NA,NA,NA,NA,NA,NA,NA,NA,NA,NA,NA,NA,NA,NA,NA,NA
b1e4d,Deep Question,html.Page,5_0_1_0_4_0_0,NA,NA,form submission,19937.6,945555,945553.24,945569.4,965507,965508,2023-04-28T12:43:17Z,965517.18,NULL,Wettbewerb,ushindani,d,NA,NA,NA,mboleno,NA,NA,1,NA,NA,NA,NA,NA,NA,NA,NA,NA,NA,NA,NA,NA,NA,NA,NA,NA,NA,NA
b1e4d,"""Richtig""-Screen",canvas.Screen,5_0_1_0_4_0_1,NA,NA,skipped,NA,965513,NA,NA,965507,965513,2023-04-28T12:43:17Z,965517.18,NULL,Wettbewerb,ushindani,d,NA,NA,NA,NA,sdfdsf,NA,1,NA,NA,NA,NA,NA,NA,NA,NA,NA,NA,NA,NA,NA,NA,NA,NA,NA,NA,NA
b1e4d,"""Falsch""-Screen",canvas.Screen,5_0_1_0_4_0_2,NA,NA,timeout,5000.0199999999,965517,965503.7,965517.18,970501.08,970502,2023-04-28T12:43:22Z,970517.2,NULL,Wettbewerb,ushindani,d,NA,NA,NA,NA,sdfdsf,0,1,NA,NA,NA,NA,NA,NA,NA,NA,NA,NA,NA,NA,NA,NA,NA,NA,NA,NA,NA
b1e4d,deep,flow.Sequence,5_0_1_0_4_0,NA,NA,completion,24931.68,945555,945553.24,945569.4,970501.08,970502,2023-04-28T12:43:22Z,970517.2,NULL,Wettbewerb,ushindani,d,NA,NA,NA,NA,sdfdsf,NA,1,NA,NA,NA,NA,NA,NA,NA,NA,NA,NA,NA,NA,NA,NA,NA,NA,NA,NA,NA
b1e4d,shallow,flow.Sequence,5_0_1_0_4_1,NA,NA,skipped,NA,970502,NA,NA,970501.08,970503,2023-04-28T12:43:22Z,970517.2,NULL,Wettbewerb,ushindani,d,NA,NA,NA,NA,sdfdsf,NA,1,NA,NA,NA,NA,NA,NA,NA,NA,NA,NA,NA,NA,NA,NA,NA,NA,NA,NA,NA
b1e4d,task,flow.Sequence,5_0_1_0_4,NA,NA,completion,24931.68,945555,945553.24,945569.4,970501.08,970503,2023-04-28T12:43:22Z,970517.2,NULL,Wettbewerb,ushindani,d,NA,NA,NA,NA,sdfdsf,NA,1,NA,NA,NA,NA,NA,NA,NA,NA,NA,NA,NA,NA,NA,NA,NA,NA,NA,NA,NA
b1e4d,deep,flow.Sequence,5_0_1_0_5_0,NA,NA,skipped,NA,970503,NA,NA,970501.08,970504,2023-04-28T12:43:22Z,970517.2,NULL,Kanzler,diwani,s,rasilmali,mahitaji,maabudu,NA,sdfdsf,NA,1,NA,NA,NA,NA,NA,NA,NA,NA,NA,NA,NA,NA,NA,NA,NA,NA,NA,NA,NA
b1e4d,Shallow Question,html.Page,5_0_1_0_5_1_0,NA,NA,form submission,3699.8,970504,970501.08,970517.2,974217,974217,2023-04-28T12:43:25Z,974222.66,NULL,Kanzler,diwani,s,rasilmali,mahitaji,maabudu,diwani,NA,NA,1,NA,NA,NA,NA,NA,NA,NA,NA,NA,NA,NA,NA,NA,NA,NA,NA,NA,NA,NA
b1e4d,"""Richtig""-Screen",canvas.Screen,5_0_1_0_5_1_1,NA,NA,timeout,5005.5599999999,974218,974215.04,974222.66,979212.26,979212,2023-04-28T12:43:30Z,979228.22,NULL,Kanzler,diwani,s,rasilmali,mahitaji,maabudu,NA,sdfdsf,1,1,NA,NA,NA,NA,NA,NA,NA,NA,NA,NA,NA,NA,NA,NA,NA,NA,NA,NA,NA
b1e4d,"""Falsch""-Screen",canvas.Screen,5_0_1_0_5_1_2,NA,NA,skipped,NA,979215,NA,NA,979212.26,979215,2023-04-28T12:43:30Z,979228.22,NULL,Kanzler,diwani,s,rasilmali,mahitaji,maabudu,NA,sdfdsf,NA,1,NA,NA,NA,NA,NA,NA,NA,NA,NA,NA,NA,NA,NA,NA,NA,NA,NA,NA,NA
b1e4d,shallow,flow.Sequence,5_0_1_0_5_1,NA,NA,completion,8695.0600000001,970504,970501.08,970517.2,979212.26,979215,2023-04-28T12:43:30Z,979228.22,NULL,Kanzler,diwani,s,rasilmali,mahitaji,maabudu,NA,sdfdsf,NA,1,NA,NA,NA,NA,NA,NA,NA,NA,NA,NA,NA,NA,NA,NA,NA,NA,NA,NA,NA
b1e4d,task,flow.Sequence,5_0_1_0_5,NA,NA,completion,8695.0600000001,970503,970501.08,970517.2,979212.26,979215,2023-04-28T12:43:30Z,979228.22,NULL,Kanzler,diwani,s,rasilmali,mahitaji,maabudu,NA,sdfdsf,NA,1,NA,NA,NA,NA,NA,NA,NA,NA,NA,NA,NA,NA,NA,NA,NA,NA,NA,NA,NA
b1e4d,deep,flow.Sequence,5_0_1_0_6_0,NA,NA,skipped,NA,979216,NA,NA,979212.26,979216,2023-04-28T12:43:30Z,979228.22,NULL,Abrechnung,uhasibu,s,kusahihisha,mpambano,mashambulizi,NA,sdfdsf,NA,1,NA,NA,NA,NA,NA,NA,NA,NA,NA,NA,NA,NA,NA,NA,NA,NA,NA,NA,NA
b1e4d,Shallow Question,html.Page,5_0_1_0_6_1_0,NA,NA,form submission,4678.78,979216,979212.26,979228.22,983907,983908,2023-04-28T12:43:35Z,983917.1,NULL,Abrechnung,uhasibu,s,kusahihisha,mpambano,mashambulizi,uhasibu,NA,NA,1,NA,NA,NA,NA,NA,NA,NA,NA,NA,NA,NA,NA,NA,NA,NA,NA,NA,NA,NA
b1e4d,"""Richtig""-Screen",canvas.Screen,5_0_1_0_6_1_1,NA,NA,timeout,5001.54,983909,983905.14,983917.1,988902.92,988903,2023-04-28T12:43:40Z,988918.64,NULL,Abrechnung,uhasibu,s,kusahihisha,mpambano,mashambulizi,NA,sdfdsf,1,1,NA,NA,NA,NA,NA,NA,NA,NA,NA,NA,NA,NA,NA,NA,NA,NA,NA,NA,NA
b1e4d,"""Falsch""-Screen",canvas.Screen,5_0_1_0_6_1_2,NA,NA,skipped,NA,988907,NA,NA,988902.92,988907,2023-04-28T12:43:40Z,988918.64,NULL,Abrechnung,uhasibu,s,kusahihisha,mpambano,mashambulizi,NA,sdfdsf,NA,1,NA,NA,NA,NA,NA,NA,NA,NA,NA,NA,NA,NA,NA,NA,NA,NA,NA,NA,NA
b1e4d,shallow,flow.Sequence,5_0_1_0_6_1,NA,NA,completion,9674.7000000001,979216,979212.26,979228.22,988902.92,988907,2023-04-28T12:43:40Z,988918.64,NULL,Abrechnung,uhasibu,s,kusahihisha,mpambano,mashambulizi,NA,sdfdsf,NA,1,NA,NA,NA,NA,NA,NA,NA,NA,NA,NA,NA,NA,NA,NA,NA,NA,NA,NA,NA
b1e4d,task,flow.Sequence,5_0_1_0_6,NA,NA,completion,9674.7000000001,979216,979212.26,979228.22,988902.92,988907,2023-04-28T12:43:40Z,988918.64,NULL,Abrechnung,uhasibu,s,kusahihisha,mpambano,mashambulizi,NA,sdfdsf,NA,1,NA,NA,NA,NA,NA,NA,NA,NA,NA,NA,NA,NA,NA,NA,NA,NA,NA,NA,NA
b1e4d,Deep Question,html.Page,5_0_1_0_7_0_0,NA,NA,form submission,8714.36,988908,988902.92,988918.64,997633,997633,2023-04-28T12:43:49Z,997639.42,NULL,Angreifer,mshambulizi,d,NA,NA,NA,msingoro,NA,NA,1,NA,NA,NA,NA,NA,NA,NA,NA,NA,NA,NA,NA,NA,NA,NA,NA,NA,NA,NA
b1e4d,"""Richtig""-Screen",canvas.Screen,5_0_1_0_7_0_1,NA,NA,skipped,NA,997635,NA,NA,997633,997635,2023-04-28T12:43:49Z,997639.42,NULL,Angreifer,mshambulizi,d,NA,NA,NA,NA,sdfdsf,NA,1,NA,NA,NA,NA,NA,NA,NA,NA,NA,NA,NA,NA,NA,NA,NA,NA,NA,NA,NA
b1e4d,"""Falsch""-Screen",canvas.Screen,5_0_1_0_7_0_2,NA,NA,timeout,5004.6799999999,997636,997630.82,997639.42,1002628.52,1002629,2023-04-28T12:43:54Z,1002644.1,NULL,Angreifer,mshambulizi,d,NA,NA,NA,NA,sdfdsf,0,1,NA,NA,NA,NA,NA,NA,NA,NA,NA,NA,NA,NA,NA,NA,NA,NA,NA,NA,NA
b1e4d,deep,flow.Sequence,5_0_1_0_7_0,NA,NA,completion,13709.88,988908,988902.92,988918.64,1002628.52,1002629,2023-04-28T12:43:54Z,1002644.1,NULL,Angreifer,mshambulizi,d,NA,NA,NA,NA,sdfdsf,NA,1,NA,NA,NA,NA,NA,NA,NA,NA,NA,NA,NA,NA,NA,NA,NA,NA,NA,NA,NA
b1e4d,shallow,flow.Sequence,5_0_1_0_7_1,NA,NA,skipped,NA,1002629,NA,NA,1002628.52,1002630,2023-04-28T12:43:54Z,1002644.1,NULL,Angreifer,mshambulizi,d,NA,NA,NA,NA,sdfdsf,NA,1,NA,NA,NA,NA,NA,NA,NA,NA,NA,NA,NA,NA,NA,NA,NA,NA,NA,NA,NA
b1e4d,task,flow.Sequence,5_0_1_0_7,NA,NA,completion,13709.88,988908,988902.92,988918.64,1002628.52,1002630,2023-04-28T12:43:54Z,1002644.1,NULL,Angreifer,mshambulizi,d,NA,NA,NA,NA,sdfdsf,NA,1,NA,NA,NA,NA,NA,NA,NA,NA,NA,NA,NA,NA,NA,NA,NA,NA,NA,NA,NA
b1e4d,block,flow.Loop,5_0_1_0,NA,NA,completion,117295.54,885332,885332.68,885332.98,1002628.52,1002630,2023-04-28T12:43:54Z,1002644.1,NULL,NA,NA,NA,NA,NA,NA,NA,sdfdsf,NA,1,NA,NA,NA,NA,NA,NA,NA,NA,NA,NA,NA,NA,NA,NA,NA,NA,NA,NA,NA
b1e4d,weiter,canvas.Screen,5_0_1_1,sdf,keypress(Space),response,1193.9,1002630,1002628.52,1002644.1,1003838,1003843,2023-04-28T12:43:55Z,1003898.5,NULL,NA,NA,NA,NA,NA,NA,NA,sdfdsf,NA,1,NA,NA,NA,NA,NA,NA,NA,NA,NA,NA,NA,NA,NA,NA,NA,NA,NA,NA,NA
b1e4d,check continue,flow.Sequence,5_0_1,NA,NA,completion,118505.02,885332,885332.68,885332.98,1003838,1003843,2023-04-28T12:43:55Z,1003898.5,NULL,NA,NA,NA,NA,NA,NA,NA,sdfdsf,NA,1,NA,NA,NA,NA,NA,NA,NA,NA,NA,NA,NA,NA,NA,NA,NA,NA,NA,NA,NA
b1e4d,Deep Question,html.Page,5_0_2_0_0_0_0,NA,NA,form submission,16318.5,1003898,1003898.2,1003898.5,1020217,1020217,2023-04-28T12:44:11Z,1020232.94,NULL,Sänger,mwimbaji,d,NA,NA,NA,mwamibi,NA,NA,2,NA,NA,NA,NA,NA,NA,NA,NA,NA,NA,NA,NA,NA,NA,NA,NA,NA,NA,NA
b1e4d,"""Richtig""-Screen",canvas.Screen,5_0_2_0_0_0_1,NA,NA,skipped,NA,1020220,NA,NA,1020217,1020220,2023-04-28T12:44:11Z,1020232.94,NULL,Sänger,mwimbaji,d,NA,NA,NA,NA,sdf,NA,2,NA,NA,NA,NA,NA,NA,NA,NA,NA,NA,NA,NA,NA,NA,NA,NA,NA,NA,NA
b1e4d,"""Falsch""-Screen",canvas.Screen,5_0_2_0_0_0_2,NA,NA,timeout,4996.9600000001,1020221,1020216.2,1020232.94,1025213.34,1025214,2023-04-28T12:44:16Z,1025229.9,NULL,Sänger,mwimbaji,d,NA,NA,NA,NA,sdf,0,2,NA,NA,NA,NA,NA,NA,NA,NA,NA,NA,NA,NA,NA,NA,NA,NA,NA,NA,NA
b1e4d,deep,flow.Sequence,5_0_2_0_0_0,NA,NA,completion,21314.84,1003898,1003898.2,1003898.5,1025213.34,1025214,2023-04-28T12:44:16Z,1025229.9,NULL,Sänger,mwimbaji,d,NA,NA,NA,NA,sdf,NA,2,NA,NA,NA,NA,NA,NA,NA,NA,NA,NA,NA,NA,NA,NA,NA,NA,NA,NA,NA
b1e4d,shallow,flow.Sequence,5_0_2_0_0_1,NA,NA,skipped,NA,1025214,NA,NA,1025213.34,1025215,2023-04-28T12:44:16Z,1025229.9,NULL,Sänger,mwimbaji,d,NA,NA,NA,NA,sdf,NA,2,NA,NA,NA,NA,NA,NA,NA,NA,NA,NA,NA,NA,NA,NA,NA,NA,NA,NA,NA
b1e4d,task,flow.Sequence,5_0_2_0_0,NA,NA,completion,21314.84,1003898,1003898.2,1003898.5,1025213.34,1025215,2023-04-28T12:44:16Z,1025229.9,NULL,Sänger,mwimbaji,d,NA,NA,NA,NA,sdf,NA,2,NA,NA,NA,NA,NA,NA,NA,NA,NA,NA,NA,NA,NA,NA,NA,NA,NA,NA,NA
b1e4d,deep,flow.Sequence,5_0_2_0_1_0,NA,NA,skipped,NA,1025215,NA,NA,1025213.34,1025215,2023-04-28T12:44:16Z,1025229.9,NULL,Kanzler,diwani,s,rasilmali,mahitaji,maabudu,NA,sdf,NA,2,NA,NA,NA,NA,NA,NA,NA,NA,NA,NA,NA,NA,NA,NA,NA,NA,NA,NA,NA
b1e4d,Shallow Question,html.Page,5_0_2_0_1_1_0,NA,NA,form submission,3695.1,1025215,1025213.34,1025229.9,1028925,1028925,2023-04-28T12:44:20Z,1028931,NULL,Kanzler,diwani,s,rasilmali,mahitaji,maabudu,diwani,NA,NA,2,NA,NA,NA,NA,NA,NA,NA,NA,NA,NA,NA,NA,NA,NA,NA,NA,NA,NA,NA
b1e4d,"""Richtig""-Screen",canvas.Screen,5_0_2_0_1_1_1,NA,NA,timeout,5004.14,1028926,1028922.74,1028931,1033918.38,1033919,2023-04-28T12:44:25Z,1033935.14,NULL,Kanzler,diwani,s,rasilmali,mahitaji,maabudu,NA,sdf,1,2,NA,NA,NA,NA,NA,NA,NA,NA,NA,NA,NA,NA,NA,NA,NA,NA,NA,NA,NA
b1e4d,"""Falsch""-Screen",canvas.Screen,5_0_2_0_1_1_2,NA,NA,skipped,NA,1033925,NA,NA,1033918.38,1033925,2023-04-28T12:44:25Z,1033935.14,NULL,Kanzler,diwani,s,rasilmali,mahitaji,maabudu,NA,sdf,NA,2,NA,NA,NA,NA,NA,NA,NA,NA,NA,NA,NA,NA,NA,NA,NA,NA,NA,NA,NA
b1e4d,shallow,flow.Sequence,5_0_2_0_1_1,NA,NA,completion,8688.48,1025215,1025213.34,1025229.9,1033918.38,1033926,2023-04-28T12:44:25Z,1033935.14,NULL,Kanzler,diwani,s,rasilmali,mahitaji,maabudu,NA,sdf,NA,2,NA,NA,NA,NA,NA,NA,NA,NA,NA,NA,NA,NA,NA,NA,NA,NA,NA,NA,NA
b1e4d,task,flow.Sequence,5_0_2_0_1,NA,NA,completion,8688.48,1025215,1025213.34,1025229.9,1033918.38,1033926,2023-04-28T12:44:25Z,1033935.14,NULL,Kanzler,diwani,s,rasilmali,mahitaji,maabudu,NA,sdf,NA,2,NA,NA,NA,NA,NA,NA,NA,NA,NA,NA,NA,NA,NA,NA,NA,NA,NA,NA,NA
b1e4d,Deep Question,html.Page,5_0_2_0_2_0_0,NA,NA,form submission,20583.86,1033926,1033918.38,1033935.14,1054519,1054520,2023-04-28T12:44:46Z,1054529.6,NULL,Wettbewerb,ushindani,d,NA,NA,NA,mshindaji,NA,NA,2,NA,NA,NA,NA,NA,NA,NA,NA,NA,NA,NA,NA,NA,NA,NA,NA,NA,NA,NA
b1e4d,"""Richtig""-Screen",canvas.Screen,5_0_2_0_2_0_1,NA,NA,skipped,NA,1054526,NA,NA,1054519,1054526,2023-04-28T12:44:46Z,1054529.6,NULL,Wettbewerb,ushindani,d,NA,NA,NA,NA,sdf,NA,2,NA,NA,NA,NA,NA,NA,NA,NA,NA,NA,NA,NA,NA,NA,NA,NA,NA,NA,NA
b1e4d,"""Falsch""-Screen",canvas.Screen,5_0_2_0_2_0_2,NA,NA,timeout,5000.2799999998,1054530,1054516.42,1054529.6,1059513.6,1059514,2023-04-28T12:44:51Z,1059529.88,NULL,Wettbewerb,ushindani,d,NA,NA,NA,NA,sdf,0,2,NA,NA,NA,NA,NA,NA,NA,NA,NA,NA,NA,NA,NA,NA,NA,NA,NA,NA,NA
b1e4d,deep,flow.Sequence,5_0_2_0_2_0,NA,NA,completion,25578.46,1033926,1033918.38,1033935.14,1059513.6,1059515,2023-04-28T12:44:51Z,1059529.88,NULL,Wettbewerb,ushindani,d,NA,NA,NA,NA,sdf,NA,2,NA,NA,NA,NA,NA,NA,NA,NA,NA,NA,NA,NA,NA,NA,NA,NA,NA,NA,NA
b1e4d,shallow,flow.Sequence,5_0_2_0_2_1,NA,NA,skipped,NA,1059515,NA,NA,1059513.6,1059515,2023-04-28T12:44:51Z,1059529.88,NULL,Wettbewerb,ushindani,d,NA,NA,NA,NA,sdf,NA,2,NA,NA,NA,NA,NA,NA,NA,NA,NA,NA,NA,NA,NA,NA,NA,NA,NA,NA,NA
b1e4d,task,flow.Sequence,5_0_2_0_2,NA,NA,completion,25578.46,1033926,1033918.38,1033935.14,1059513.6,1059515,2023-04-28T12:44:51Z,1059529.88,NULL,Wettbewerb,ushindani,d,NA,NA,NA,NA,sdf,NA,2,NA,NA,NA,NA,NA,NA,NA,NA,NA,NA,NA,NA,NA,NA,NA,NA,NA,NA,NA
b1e4d,Deep Question,html.Page,5_0_2_0_3_0_0,NA,NA,form submission,29655.12,1059516,1059513.6,1059529.88,1089185,1089186,2023-04-28T12:45:20Z,1089198.76,NULL,Angreifer,mshambulizi,d,NA,NA,NA,mshandaji,NA,NA,2,NA,NA,NA,NA,NA,NA,NA,NA,NA,NA,NA,NA,NA,NA,NA,NA,NA,NA,NA
