observation,sender,sender_type,sender_id,response,response_action,ended_on,duration,time_run,time_render,time_show,time_end,time_commit,timestamp,time_switch,german,swahili,enc,distractor1,distractor2,distractor3,response_2,x,correct,distractors,url_vp,url_sess,meta_labjs_version,meta_location,meta_user_agent,meta_platform,meta_language,meta_locale,meta_time_zone,meta_timezone_offset,meta_screen_width,meta_screen_height,meta_scroll_width,meta_scroll_height,meta_window_inner_width,meta_window_inner_height,meta_device_pixel_ratio,meta_labjs_build_flavor,meta_labjs_build_commit
1377,Introduction delayed retrieval,canvas.Screen,0,weiter,keypress(Space),response,23489.16,1322,1356.72,1389.84,24879,24889,2023-04-30T09:06:02Z,24890.64,NA,NA,NA,NA,NA,NA,NA,NA,NA,NULL,117,4,20.2.4,https://neurocog.fernuni.ch/studies/vweber/delayed/index.html?vp=117&sess=4,Mozilla/5.0 (Macintosh; Intel Mac OS X 10.15; rv:109.0) Gecko/20100101 Firefox/112.0,MacIntel,de,de-CH,Europe/Zurich,-120,1280,720,1434,707,1434,755,2,production,f5b4a49f956347addd546a832a3327688c2c0fef
1377,Deep Question,html.Page,1_0_0_0,NA,NA,form submission,19058.36,24891,24890.44,24890.64,43949,43949,2023-04-30T09:06:21Z,43964.52,System,maongozi,d,chokochoko,nuksani,mitaani,ufanghani,NA,NA,NULL,NA,NA,NA,NA,NA,NA,NA,NA,NA,NA,NA,NA,NA,NA,NA,NA,NA,NA,NA
1377,Save data screen,canvas.Screen,1_0_0_1,NA,NA,timeout,503.36,43952,43948.5,43964.52,44451.22,44454,2023-04-30T09:06:22Z,44467.88,System,maongozi,d,chokochoko,nuksani,mitaani,NA,NA,0,NULL,NA,NA,NA,NA,NA,NA,NA,NA,NA,NA,NA,NA,NA,NA,NA,NA,NA,NA,NA
1377,deep,flow.Sequence,1_0_0,NA,NA,completion,19560.58,24891,24890.44,24890.64,44451.22,44454,2023-04-30T09:06:22Z,44467.88,System,maongozi,d,chokochoko,nuksani,mitaani,NA,NA,NA,NULL,NA,NA,NA,NA,NA,NA,NA,NA,NA,NA,NA,NA,NA,NA,NA,NA,NA,NA,NA
1377,task,flow.Sequence,1_0,NA,NA,completion,19560.58,24890,24890.44,24890.64,44451.22,44455,2023-04-30T09:06:22Z,44467.88,System,maongozi,d,chokochoko,nuksani,mitaani,NA,NA,NA,NULL,NA,NA,NA,NA,NA,NA,NA,NA,NA,NA,NA,NA,NA,NA,NA,NA,NA,NA,NA
1377,Deep Question,html.Page,1_1_0_0,NA,NA,form submission,30312.12,44455,44451.22,44467.88,74780,74781,2023-04-30T09:06:52Z,74799.5,Kultur,utamaduni,s,shetani,gerezani,mazingira,wataki,NA,NA,NULL,NA,NA,NA,NA,NA,NA,NA,NA,NA,NA,NA,NA,NA,NA,NA,NA,NA,NA,NA
1377,Save data screen,canvas.Screen,1_1_0_1,NA,NA,timeout,500.17999999999,74785,74783.14,74799.5,75283.06,75283,2023-04-30T09:06:52Z,75299.68,Kultur,utamaduni,s,shetani,gerezani,mazingira,NA,NA,0,NULL,NA,NA,NA,NA,NA,NA,NA,NA,NA,NA,NA,NA,NA,NA,NA,NA,NA,NA,NA
1377,deep,flow.Sequence,1_1_0,NA,NA,completion,30815.18,44455,44451.22,44467.88,75283.06,75284,2023-04-30T09:06:52Z,75299.68,Kultur,utamaduni,s,shetani,gerezani,mazingira,NA,NA,NA,NULL,NA,NA,NA,NA,NA,NA,NA,NA,NA,NA,NA,NA,NA,NA,NA,NA,NA,NA,NA
1377,task,flow.Sequence,1_1,NA,NA,completion,30815.18,44455,44451.22,44467.88,75283.06,75284,2023-04-30T09:06:52Z,75299.68,Kultur,utamaduni,s,shetani,gerezani,mazingira,NA,NA,NA,NULL,NA,NA,NA,NA,NA,NA,NA,NA,NA,NA,NA,NA,NA,NA,NA,NA,NA,NA,NA
1377,Deep Question,html.Page,1_2_0_0,NA,NA,form submission,30249.32,75285,75283.06,75299.68,105549,105549,2023-04-30T09:07:23Z,105548.12,Gefährdung,kuhatarisha,s,uchokozi,udhaifu,makorowezo,mleogaji,NA,NA,NULL,NA,NA,NA,NA,NA,NA,NA,NA,NA,NA,NA,NA,NA,NA,NA,NA,NA,NA,NA
1377,Save data screen,canvas.Screen,1_2_0_1,NA,NA,timeout,508.12000000001,105550,105547.96,105548.12,106039.12,106040,2023-04-30T09:07:23Z,106056.24,Gefährdung,kuhatarisha,s,uchokozi,udhaifu,makorowezo,NA,NA,0,NULL,NA,NA,NA,NA,NA,NA,NA,NA,NA,NA,NA,NA,NA,NA,NA,NA,NA,NA,NA
1377,deep,flow.Sequence,1_2_0,NA,NA,completion,30739.44,75285,75283.06,75299.68,106039.12,106040,2023-04-30T09:07:23Z,106056.24,Gefährdung,kuhatarisha,s,uchokozi,udhaifu,makorowezo,NA,NA,NA,NULL,NA,NA,NA,NA,NA,NA,NA,NA,NA,NA,NA,NA,NA,NA,NA,NA,NA,NA,NA
1377,task,flow.Sequence,1_2,NA,NA,completion,30739.44,75284,75283.06,75299.68,106039.12,106040,2023-04-30T09:07:23Z,106056.24,Gefährdung,kuhatarisha,s,uchokozi,udhaifu,makorowezo,NA,NA,NA,NULL,NA,NA,NA,NA,NA,NA,NA,NA,NA,NA,NA,NA,NA,NA,NA,NA,NA,NA,NA
1377,Deep Question,html.Page,1_3_0_0,NA,NA,form submission,11306.76,106041,106039.12,106056.24,117363,117363,2023-04-30T09:07:34Z,117370.76,Körper,kiwiliwili,s,mapambano,mpatanishi,kiolezo,kiliwili,NA,NA,NULL,NA,NA,NA,NA,NA,NA,NA,NA,NA,NA,NA,NA,NA,NA,NA,NA,NA,NA,NA
1377,Save data screen,canvas.Screen,1_3_0_1,NA,NA,timeout,501.42,117365,117360.8,117370.76,117854.72,117856,2023-04-30T09:07:35Z,117872.18,Körper,kiwiliwili,s,mapambano,mpatanishi,kiolezo,NA,NA,0,NULL,NA,NA,NA,NA,NA,NA,NA,NA,NA,NA,NA,NA,NA,NA,NA,NA,NA,NA,NA
1377,deep,flow.Sequence,1_3_0,NA,NA,completion,11798.48,106041,106039.12,106056.24,117854.72,117858,2023-04-30T09:07:35Z,117872.18,Körper,kiwiliwili,s,mapambano,mpatanishi,kiolezo,NA,NA,NA,NULL,NA,NA,NA,NA,NA,NA,NA,NA,NA,NA,NA,NA,NA,NA,NA,NA,NA,NA,NA
1377,task,flow.Sequence,1_3,NA,NA,completion,11798.48,106040,106039.12,106056.24,117854.72,117858,2023-04-30T09:07:35Z,117872.18,Körper,kiwiliwili,s,mapambano,mpatanishi,kiolezo,NA,NA,NA,NULL,NA,NA,NA,NA,NA,NA,NA,NA,NA,NA,NA,NA,NA,NA,NA,NA,NA,NA,NA
1377,Deep Question,html.Page,1_4_0_0,NA,NA,form submission,39722.82,117859,117854.72,117872.18,157595,157595,2023-04-30T09:08:15Z,157597.04,Kreativität,ubunifu,d,mratibu,mwendelezo,makubaliano,udarai,NA,NA,NULL,NA,NA,NA,NA,NA,NA,NA,NA,NA,NA,NA,NA,NA,NA,NA,NA,NA,NA,NA
1377,Save data screen,canvas.Screen,1_4_0_1,NA,NA,timeout,503.12,157598,157593.02,157597.04,158083.48,158086,2023-04-30T09:08:15Z,158100.16,Kreativität,ubunifu,d,mratibu,mwendelezo,makubaliano,NA,NA,0,NULL,NA,NA,NA,NA,NA,NA,NA,NA,NA,NA,NA,NA,NA,NA,NA,NA,NA,NA,NA
1377,deep,flow.Sequence,1_4_0,NA,NA,completion,40211.3,117859,117854.72,117872.18,158083.48,158087,2023-04-30T09:08:15Z,158100.16,Kreativität,ubunifu,d,mratibu,mwendelezo,makubaliano,NA,NA,NA,NULL,NA,NA,NA,NA,NA,NA,NA,NA,NA,NA,NA,NA,NA,NA,NA,NA,NA,NA,NA
1377,task,flow.Sequence,1_4,NA,NA,completion,40211.3,117859,117854.72,117872.18,158083.48,158087,2023-04-30T09:08:15Z,158100.16,Kreativität,ubunifu,d,mratibu,mwendelezo,makubaliano,NA,NA,NA,NULL,NA,NA,NA,NA,NA,NA,NA,NA,NA,NA,NA,NA,NA,NA,NA,NA,NA,NA,NA
1377,Deep Question,html.Page,1_5_0_0,NA,NA,form submission,27929.84,158087,158083.48,158100.16,186030,186031,2023-04-30T09:08:43Z,186028.64,Sänger,mwimbaji,d,msichana,shughuli,mshirika,mbarawani,NA,NA,NULL,NA,NA,NA,NA,NA,NA,NA,NA,NA,NA,NA,NA,NA,NA,NA,NA,NA,NA,NA
1377,Save data screen,canvas.Screen,1_5_0_1,NA,NA,timeout,505.13999999998,186036,186028.54,186028.64,186517.12,186520,2023-04-30T09:08:44Z,186533.78,Sänger,mwimbaji,d,msichana,shughuli,mshirika,NA,NA,0,NULL,NA,NA,NA,NA,NA,NA,NA,NA,NA,NA,NA,NA,NA,NA,NA,NA,NA,NA,NA
1377,deep,flow.Sequence,1_5_0,NA,NA,completion,28416.96,158087,158083.48,158100.16,186517.12,186521,2023-04-30T09:08:44Z,186533.78,Sänger,mwimbaji,d,msichana,shughuli,mshirika,NA,NA,NA,NULL,NA,NA,NA,NA,NA,NA,NA,NA,NA,NA,NA,NA,NA,NA,NA,NA,NA,NA,NA
1377,task,flow.Sequence,1_5,NA,NA,completion,28416.96,158087,158083.48,158100.16,186517.12,186521,2023-04-30T09:08:44Z,186533.78,Sänger,mwimbaji,d,msichana,shughuli,mshirika,NA,NA,NA,NULL,NA,NA,NA,NA,NA,NA,NA,NA,NA,NA,NA,NA,NA,NA,NA,NA,NA,NA,NA
1377,Deep Question,html.Page,1_6_0_0,NA,NA,form submission,81756.22,186522,186517.12,186533.78,268290,268291,2023-04-30T09:10:05Z,268302.58,Lawine,banguko,d,maambukizi,usuluhishi,chekechea,kokibang,NA,NA,NULL,NA,NA,NA,NA,NA,NA,NA,NA,NA,NA,NA,NA,NA,NA,NA,NA,NA,NA,NA
1377,Save data screen,canvas.Screen,1_6_0_1,NA,NA,timeout,499.51999999996,268292,268289.06,268302.58,268785.92,268788,2023-04-30T09:10:06Z,268802.1,Lawine,banguko,d,maambukizi,usuluhishi,chekechea,NA,NA,0,NULL,NA,NA,NA,NA,NA,NA,NA,NA,NA,NA,NA,NA,NA,NA,NA,NA,NA,NA,NA
1377,deep,flow.Sequence,1_6_0,NA,NA,completion,82252.14,186521,186517.12,186533.78,268785.92,268788,2023-04-30T09:10:06Z,268802.1,Lawine,banguko,d,maambukizi,usuluhishi,chekechea,NA,NA,NA,NULL,NA,NA,NA,NA,NA,NA,NA,NA,NA,NA,NA,NA,NA,NA,NA,NA,NA,NA,NA
1377,task,flow.Sequence,1_6,NA,NA,completion,82252.14,186521,186517.12,186533.78,268785.92,268789,2023-04-30T09:10:06Z,268802.1,Lawine,banguko,d,maambukizi,usuluhishi,chekechea,NA,NA,NA,NULL,NA,NA,NA,NA,NA,NA,NA,NA,NA,NA,NA,NA,NA,NA,NA,NA,NA,NA,NA
1377,Deep Question,html.Page,1_7_0_0,NA,NA,form submission,7143.9,268789,268785.92,268802.1,275946,275947,2023-04-30T09:10:13Z,275955.56,Verzögerung,kuchelewa,s,mwakilishi,mwanauchumi,jaribio,dariwari,NA,NA,NULL,NA,NA,NA,NA,NA,NA,NA,NA,NA,NA,NA,NA,NA,NA,NA,NA,NA,NA,NA
1377,Save data screen,canvas.Screen,1_7_0_1,NA,NA,timeout,500.44,275948,275944.9,275955.56,276439.4,276443,2023-04-30T09:10:14Z,276456,Verzögerung,kuchelewa,s,mwakilishi,mwanauchumi,jaribio,NA,NA,0,NULL,NA,NA,NA,NA,NA,NA,NA,NA,NA,NA,NA,NA,NA,NA,NA,NA,NA,NA,NA
1377,deep,flow.Sequence,1_7_0,NA,NA,completion,7637.3,268789,268785.92,268802.1,276439.4,276444,2023-04-30T09:10:14Z,276456,Verzögerung,kuchelewa,s,mwakilishi,mwanauchumi,jaribio,NA,NA,NA,NULL,NA,NA,NA,NA,NA,NA,NA,NA,NA,NA,NA,NA,NA,NA,NA,NA,NA,NA,NA
1377,task,flow.Sequence,1_7,NA,NA,completion,7637.3,268789,268785.92,268802.1,276439.4,276444,2023-04-30T09:10:14Z,276456,Verzögerung,kuchelewa,s,mwakilishi,mwanauchumi,jaribio,NA,NA,NA,NULL,NA,NA,NA,NA,NA,NA,NA,NA,NA,NA,NA,NA,NA,NA,NA,NA,NA,NA,NA
1377,Deep Question,html.Page,1_8_0_0,NA,NA,form submission,47627,276445,276439.4,276456,324083,324084,2023-04-30T09:11:01Z,324090.24,Können,unaweza,d,kiongozi,bustani,mienendo,uderawi,NA,NA,NULL,NA,NA,NA,NA,NA,NA,NA,NA,NA,NA,NA,NA,NA,NA,NA,NA,NA,NA,NA
1377,Save data screen,canvas.Screen,1_8_0_1,NA,NA,timeout,500.82000000001,324087,324081.24,324090.24,324574.4,324576,2023-04-30T09:11:02Z,324591.06,Können,unaweza,d,kiongozi,bustani,mienendo,NA,NA,0,NULL,NA,NA,NA,NA,NA,NA,NA,NA,NA,NA,NA,NA,NA,NA,NA,NA,NA,NA,NA
1377,deep,flow.Sequence,1_8_0,NA,NA,completion,48118.4,276445,276439.4,276456,324574.4,324577,2023-04-30T09:11:02Z,324591.06,Können,unaweza,d,kiongozi,bustani,mienendo,NA,NA,NA,NULL,NA,NA,NA,NA,NA,NA,NA,NA,NA,NA,NA,NA,NA,NA,NA,NA,NA,NA,NA
1377,task,flow.Sequence,1_8,NA,NA,completion,48118.4,276445,276439.4,276456,324574.4,324577,2023-04-30T09:11:02Z,324591.06,Können,unaweza,d,kiongozi,bustani,mienendo,NA,NA,NA,NULL,NA,NA,NA,NA,NA,NA,NA,NA,NA,NA,NA,NA,NA,NA,NA,NA,NA,NA,NA
1377,Deep Question,html.Page,1_9_0_0,NA,NA,form submission,16868.94,324577,324574.4,324591.06,341460,341461,2023-04-30T09:11:19Z,341484.38,Prüfung,mtihani,d,mkulima,mtizamo,ufumbuzi,tikitashi,NA,NA,NULL,NA,NA,NA,NA,NA,NA,NA,NA,NA,NA,NA,NA,NA,NA,NA,NA,NA,NA,NA
1377,Save data screen,canvas.Screen,1_9_0_1,NA,NA,timeout,499.77999999997,341465,341467.72,341484.38,341967.72,341968,2023-04-30T09:11:19Z,341984.16,Prüfung,mtihani,d,mkulima,mtizamo,ufumbuzi,NA,NA,0,NULL,NA,NA,NA,NA,NA,NA,NA,NA,NA,NA,NA,NA,NA,NA,NA,NA,NA,NA,NA
1377,deep,flow.Sequence,1_9_0,NA,NA,completion,17376.66,324577,324574.4,324591.06,341967.72,341969,2023-04-30T09:11:19Z,341984.16,Prüfung,mtihani,d,mkulima,mtizamo,ufumbuzi,NA,NA,NA,NULL,NA,NA,NA,NA,NA,NA,NA,NA,NA,NA,NA,NA,NA,NA,NA,NA,NA,NA,NA
1377,task,flow.Sequence,1_9,NA,NA,completion,17376.66,324577,324574.4,324591.06,341967.72,341970,2023-04-30T09:11:19Z,341984.16,Prüfung,mtihani,d,mkulima,mtizamo,ufumbuzi,NA,NA,NA,NULL,NA,NA,NA,NA,NA,NA,NA,NA,NA,NA,NA,NA,NA,NA,NA,NA,NA,NA,NA
1377,Deep Question,html.Page,1_10_0_0,NA,NA,form submission,10217.84,341971,341967.72,341984.16,352202,352202,2023-04-30T09:11:29Z,352207,Abrechnung,uhasibu,s,kusahihisha,mpambano,mashambulizi,deriwan,NA,NA,NULL,NA,NA,NA,NA,NA,NA,NA,NA,NA,NA,NA,NA,NA,NA,NA,NA,NA,NA,NA
1377,Save data screen,canvas.Screen,1_10_0_1,NA,NA,timeout,501.21999999997,352204,352200.9,352207,352691.54,352693,2023-04-30T09:11:30Z,352708.22,Abrechnung,uhasibu,s,kusahihisha,mpambano,mashambulizi,NA,NA,0,NULL,NA,NA,NA,NA,NA,NA,NA,NA,NA,NA,NA,NA,NA,NA,NA,NA,NA,NA,NA
1377,deep,flow.Sequence,1_10_0,NA,NA,completion,10707.38,341971,341967.72,341984.16,352691.54,352694,2023-04-30T09:11:30Z,352708.22,Abrechnung,uhasibu,s,kusahihisha,mpambano,mashambulizi,NA,NA,NA,NULL,NA,NA,NA,NA,NA,NA,NA,NA,NA,NA,NA,NA,NA,NA,NA,NA,NA,NA,NA
1377,task,flow.Sequence,1_10,NA,NA,completion,10707.38,341970,341967.72,341984.16,352691.54,352694,2023-04-30T09:11:30Z,352708.22,Abrechnung,uhasibu,s,kusahihisha,mpambano,mashambulizi,NA,NA,NA,NULL,NA,NA,NA,NA,NA,NA,NA,NA,NA,NA,NA,NA,NA,NA,NA,NA,NA,NA,NA
1377,Deep Question,html.Page,1_11_0_0,NA,NA,form submission,12973.78,352694,352691.54,352708.22,365682,365683,2023-04-30T09:11:43Z,365697.1,Kontrolle,kudhibiti,s,mbinguni,kufunga,utegemezi,msongara,NA,NA,NULL,NA,NA,NA,NA,NA,NA,NA,NA,NA,NA,NA,NA,NA,NA,NA,NA,NA,NA,NA
1377,Save data screen,canvas.Screen,1_11_0_1,NA,NA,timeout,500.56,365683,365681,365697.1,366180.92,366182,2023-04-30T09:11:43Z,366197.66,Kontrolle,kudhibiti,s,mbinguni,kufunga,utegemezi,NA,NA,0,NULL,NA,NA,NA,NA,NA,NA,NA,NA,NA,NA,NA,NA,NA,NA,NA,NA,NA,NA,NA
1377,deep,flow.Sequence,1_11_0,NA,NA,completion,13472.7,352694,352691.54,352708.22,366180.92,366182,2023-04-30T09:11:43Z,366197.66,Kontrolle,kudhibiti,s,mbinguni,kufunga,utegemezi,NA,NA,NA,NULL,NA,NA,NA,NA,NA,NA,NA,NA,NA,NA,NA,NA,NA,NA,NA,NA,NA,NA,NA
1377,task,flow.Sequence,1_11,NA,NA,completion,13472.7,352694,352691.54,352708.22,366180.92,366182,2023-04-30T09:11:43Z,366197.66,Kontrolle,kudhibiti,s,mbinguni,kufunga,utegemezi,NA,NA,NA,NULL,NA,NA,NA,NA,NA,NA,NA,NA,NA,NA,NA,NA,NA,NA,NA,NA,NA,NA,NA
1377,Deep Question,html.Page,1_12_0_0,NA,NA,form submission,14221.34,366182,366180.92,366197.66,380419,380419,2023-04-30T09:11:58Z,380433.46,Aufstand,ugomaji,d,mazidio,msingi,kujieleza,kishitashi,NA,NA,NULL,NA,NA,NA,NA,NA,NA,NA,NA,NA,NA,NA,NA,NA,NA,NA,NA,NA,NA,NA
1377,Save data screen,canvas.Screen,1_12_0_1,NA,NA,timeout,500,380420,380416.8,380433.46,380916.8,380918,2023-04-30T09:11:58Z,380933.46,Aufstand,ugomaji,d,mazidio,msingi,kujieleza,NA,NA,0,NULL,NA,NA,NA,NA,NA,NA,NA,NA,NA,NA,NA,NA,NA,NA,NA,NA,NA,NA,NA
1377,deep,flow.Sequence,1_12_0,NA,NA,completion,14719.14,366182,366180.92,366197.66,380916.8,380918,2023-04-30T09:11:58Z,380933.46,Aufstand,ugomaji,d,mazidio,msingi,kujieleza,NA,NA,NA,NULL,NA,NA,NA,NA,NA,NA,NA,NA,NA,NA,NA,NA,NA,NA,NA,NA,NA,NA,NA
1377,task,flow.Sequence,1_12,NA,NA,completion,14719.14,366182,366180.92,366197.66,380916.8,380918,2023-04-30T09:11:58Z,380933.46,Aufstand,ugomaji,d,mazidio,msingi,kujieleza,NA,NA,NA,NULL,NA,NA,NA,NA,NA,NA,NA,NA,NA,NA,NA,NA,NA,NA,NA,NA,NA,NA,NA
1377,Deep Question,html.Page,1_13_0_0,NA,NA,form submission,58966.54,380918,380916.8,380933.46,439900,439900,2023-04-30T09:12:57Z,439906.12,Angreifer,mshambulizi,d,kitengo,tasinia,usafirishaji,mbulizi,NA,NA,NULL,NA,NA,NA,NA,NA,NA,NA,NA,NA,NA,NA,NA,NA,NA,NA,NA,NA,NA,NA
1377,Save data screen,canvas.Screen,1_13_0_1,NA,NA,timeout,500,439905,439896.98,439906.12,440389.04,440389,2023-04-30T09:12:57Z,440406.12,Angreifer,mshambulizi,d,kitengo,tasinia,usafirishaji,NA,NA,0,NULL,NA,NA,NA,NA,NA,NA,NA,NA,NA,NA,NA,NA,NA,NA,NA,NA,NA,NA,NA
1377,deep,flow.Sequence,1_13_0,NA,NA,completion,59455.58,380918,380916.8,380933.46,440389.04,440390,2023-04-30T09:12:57Z,440406.12,Angreifer,mshambulizi,d,kitengo,tasinia,usafirishaji,NA,NA,NA,NULL,NA,NA,NA,NA,NA,NA,NA,NA,NA,NA,NA,NA,NA,NA,NA,NA,NA,NA,NA
1377,task,flow.Sequence,1_13,NA,NA,completion,59455.58,380918,380916.8,380933.46,440389.04,440390,2023-04-30T09:12:57Z,440406.12,Angreifer,mshambulizi,d,kitengo,tasinia,usafirishaji,NA,NA,NA,NULL,NA,NA,NA,NA,NA,NA,NA,NA,NA,NA,NA,NA,NA,NA,NA,NA,NA,NA,NA
1377,Deep Question,html.Page,1_14_0_0,NA,NA,form submission,27540.88,440390,440389.04,440406.12,467947,467947,2023-04-30T09:13:25Z,467953.92,Übersicht,kilindo,s,mgusano,chipukizi,kulinganisha,udariwaji,NA,NA,NULL,NA,NA,NA,NA,NA,NA,NA,NA,NA,NA,NA,NA,NA,NA,NA,NA,NA,NA,NA
1377,Save data screen,canvas.Screen,1_14_0_1,NA,NA,timeout,500.60000000003,467948,467945.04,467953.92,468437.86,468439,2023-04-30T09:13:26Z,468454.52,Übersicht,kilindo,s,mgusano,chipukizi,kulinganisha,NA,NA,0,NULL,NA,NA,NA,NA,NA,NA,NA,NA,NA,NA,NA,NA,NA,NA,NA,NA,NA,NA,NA
1377,deep,flow.Sequence,1_14_0,NA,NA,completion,28031.74,440390,440389.04,440406.12,468437.86,468440,2023-04-30T09:13:26Z,468454.52,Übersicht,kilindo,s,mgusano,chipukizi,kulinganisha,NA,NA,NA,NULL,NA,NA,NA,NA,NA,NA,NA,NA,NA,NA,NA,NA,NA,NA,NA,NA,NA,NA,NA
1377,task,flow.Sequence,1_14,NA,NA,completion,28031.74,440390,440389.04,440406.12,468437.86,468440,2023-04-30T09:13:26Z,468454.52,Übersicht,kilindo,s,mgusano,chipukizi,kulinganisha,NA,NA,NA,NULL,NA,NA,NA,NA,NA,NA,NA,NA,NA,NA,NA,NA,NA,NA,NA,NA,NA,NA,NA
1377,Deep Question,html.Page,1_15_0_0,NA,NA,form submission,9747.48,468440,468437.86,468454.52,478202,478202,2023-04-30T09:13:35Z,478204.24,Kanzler,diwani,s,rasilmali,mahitaji,maabudu,diwani,NA,NA,NULL,NA,NA,NA,NA,NA,NA,NA,NA,NA,NA,NA,NA,NA,NA,NA,NA,NA,NA,NA
1377,Save data screen,canvas.Screen,1_15_0_1,NA,NA,timeout,500.02000000002,478204,478200.76,478204.24,478687.6,478692,2023-04-30T09:13:36Z,478704.26,Kanzler,diwani,s,rasilmali,mahitaji,maabudu,NA,NA,1,NULL,NA,NA,NA,NA,NA,NA,NA,NA,NA,NA,NA,NA,NA,NA,NA,NA,NA,NA,NA
1377,deep,flow.Sequence,1_15_0,NA,NA,completion,10233.08,468440,468437.86,468454.52,478687.6,478693,2023-04-30T09:13:36Z,478704.26,Kanzler,diwani,s,rasilmali,mahitaji,maabudu,NA,NA,NA,NULL,NA,NA,NA,NA,NA,NA,NA,NA,NA,NA,NA,NA,NA,NA,NA,NA,NA,NA,NA
1377,task,flow.Sequence,1_15,NA,NA,completion,10233.08,468440,468437.86,468454.52,478687.6,478694,2023-04-30T09:13:36Z,478704.26,Kanzler,diwani,s,rasilmali,mahitaji,maabudu,NA,NA,NA,NULL,NA,NA,NA,NA,NA,NA,NA,NA,NA,NA,NA,NA,NA,NA,NA,NA,NA,NA,NA
1377,retrieval block 1 (cued recall),flow.Loop,1,NA,NA,completion,453796.96,24890,24890.44,24890.64,478687.6,478694,2023-04-30T09:13:36Z,478704.26,NA,NA,NA,NA,NA,NA,NA,NA,NA,NULL,NA,NA,NA,NA,NA,NA,NA,NA,NA,NA,NA,NA,NA,NA,NA,NA,NA,NA,NA
1377,Shallow Question,html.Page,2_0_0_0,NA,NA,form submission,7450.74,478695,478687.6,478704.26,486155,486155,2023-04-30T09:13:43Z,486168.52,Lawine,banguko,d,maambukizi,usuluhishi,chekechea,banguko,NA,NA,"c(""distractor1"", ""distractor2"", ""distractor3"")",NA,NA,NA,NA,NA,NA,NA,NA,NA,NA,NA,NA,NA,NA,NA,NA,NA,NA,NA
1377,Save data screen,canvas.Screen,2_0_0_1,NA,NA,timeout,500.65999999997,486157,486153,486168.52,486652.52,486656,2023-04-30T09:13:44Z,486669.18,Lawine,banguko,d,maambukizi,usuluhishi,chekechea,NA,NA,1,"c(""distractor1"", ""distractor2"", ""distractor3"")",NA,NA,NA,NA,NA,NA,NA,NA,NA,NA,NA,NA,NA,NA,NA,NA,NA,NA,NA
1377,shallow,flow.Sequence,2_0_0,NA,NA,completion,7948.26,478695,478687.6,478704.26,486652.52,486656,2023-04-30T09:13:44Z,486669.18,Lawine,banguko,d,maambukizi,usuluhishi,chekechea,NA,NA,NA,"c(""distractor1"", ""distractor2"", ""distractor3"")",NA,NA,NA,NA,NA,NA,NA,NA,NA,NA,NA,NA,NA,NA,NA,NA,NA,NA,NA
1377,task,flow.Sequence,2_0,NA,NA,completion,7948.26,478695,478687.6,478704.26,486652.52,486657,2023-04-30T09:13:44Z,486669.18,Lawine,banguko,d,maambukizi,usuluhishi,chekechea,NA,NA,NA,"c(""distractor1"", ""distractor2"", ""distractor3"")",NA,NA,NA,NA,NA,NA,NA,NA,NA,NA,NA,NA,NA,NA,NA,NA,NA,NA,NA
1377,Shallow Question,html.Page,2_1_0_0,NA,NA,form submission,6012.82,486657,486652.52,486669.18,492682,492683,2023-04-30T09:13:50Z,492684.64,Verzögerung,kuchelewa,s,mwakilishi,mwanauchumi,jaribio,kuchelewa,NA,NA,"c(""distractor1"", ""distractor2"", ""distractor3"")",NA,NA,NA,NA,NA,NA,NA,NA,NA,NA,NA,NA,NA,NA,NA,NA,NA,NA,NA
1377,Save data screen,canvas.Screen,2_1_0_1,NA,NA,timeout,500.35999999999,492684,492681,492684.64,493168.32,493171,2023-04-30T09:13:50Z,493185,Verzögerung,kuchelewa,s,mwakilishi,mwanauchumi,jaribio,NA,NA,1,"c(""distractor1"", ""distractor2"", ""distractor3"")",NA,NA,NA,NA,NA,NA,NA,NA,NA,NA,NA,NA,NA,NA,NA,NA,NA,NA,NA
1377,shallow,flow.Sequence,2_1_0,NA,NA,completion,6499.14,486657,486652.52,486669.18,493168.32,493171,2023-04-30T09:13:50Z,493185,Verzögerung,kuchelewa,s,mwakilishi,mwanauchumi,jaribio,NA,NA,NA,"c(""distractor1"", ""distractor2"", ""distractor3"")",NA,NA,NA,NA,NA,NA,NA,NA,NA,NA,NA,NA,NA,NA,NA,NA,NA,NA,NA
1377,task,flow.Sequence,2_1,NA,NA,completion,6499.14,486657,486652.52,486669.18,493168.32,493171,2023-04-30T09:13:50Z,493185,Verzögerung,kuchelewa,s,mwakilishi,mwanauchumi,jaribio,NA,NA,NA,"c(""distractor1"", ""distractor2"", ""distractor3"")",NA,NA,NA,NA,NA,NA,NA,NA,NA,NA,NA,NA,NA,NA,NA,NA,NA,NA,NA
1377,Shallow Question,html.Page,2_2_0_0,NA,NA,form submission,3538,493172,493168.32,493185,496723,496723,2023-04-30T09:13:54Z,496731.74,Kanzler,diwani,s,rasilmali,mahitaji,maabudu,diwani,NA,NA,"c(""distractor1"", ""distractor2"", ""distractor3"")",NA,NA,NA,NA,NA,NA,NA,NA,NA,NA,NA,NA,NA,NA,NA,NA,NA,NA,NA
1377,Save data screen,canvas.Screen,2_2_0_1,NA,NA,timeout,500,496724,496714.78,496731.74,497215.06,497217,2023-04-30T09:13:54Z,497231.74,Kanzler,diwani,s,rasilmali,mahitaji,maabudu,NA,NA,1,"c(""distractor1"", ""distractor2"", ""distractor3"")",NA,NA,NA,NA,NA,NA,NA,NA,NA,NA,NA,NA,NA,NA,NA,NA,NA,NA,NA
1377,shallow,flow.Sequence,2_2_0,NA,NA,completion,4030.06,493172,493168.32,493185,497215.06,497217,2023-04-30T09:13:54Z,497231.74,Kanzler,diwani,s,rasilmali,mahitaji,maabudu,NA,NA,NA,"c(""distractor1"", ""distractor2"", ""distractor3"")",NA,NA,NA,NA,NA,NA,NA,NA,NA,NA,NA,NA,NA,NA,NA,NA,NA,NA,NA
1377,task,flow.Sequence,2_2,NA,NA,completion,4030.06,493171,493168.32,493185,497215.06,497217,2023-04-30T09:13:54Z,497231.74,Kanzler,diwani,s,rasilmali,mahitaji,maabudu,NA,NA,NA,"c(""distractor1"", ""distractor2"", ""distractor3"")",NA,NA,NA,NA,NA,NA,NA,NA,NA,NA,NA,NA,NA,NA,NA,NA,NA,NA,NA
1377,Shallow Question,html.Page,2_3_0_0,NA,NA,form submission,7194.26,497218,497215.06,497231.74,504426,504427,2023-04-30T09:14:02Z,504437.66,Prüfung,mtihani,d,mkulima,mtizamo,ufumbuzi,ufumbuzi,NA,NA,"c(""distractor1"", ""distractor2"", ""distractor3"")",NA,NA,NA,NA,NA,NA,NA,NA,NA,NA,NA,NA,NA,NA,NA,NA,NA,NA,NA
1377,Save data screen,canvas.Screen,2_3_0_1,NA,NA,timeout,500,504427,504424.9,504437.66,504920.98,504923,2023-04-30T09:14:02Z,504937.66,Prüfung,mtihani,d,mkulima,mtizamo,ufumbuzi,NA,NA,0,"c(""distractor1"", ""distractor2"", ""distractor3"")",NA,NA,NA,NA,NA,NA,NA,NA,NA,NA,NA,NA,NA,NA,NA,NA,NA,NA,NA
1377,shallow,flow.Sequence,2_3_0,NA,NA,completion,7689.24,497218,497215.06,497231.74,504920.98,504923,2023-04-30T09:14:02Z,504937.66,Prüfung,mtihani,d,mkulima,mtizamo,ufumbuzi,NA,NA,NA,"c(""distractor1"", ""distractor2"", ""distractor3"")",NA,NA,NA,NA,NA,NA,NA,NA,NA,NA,NA,NA,NA,NA,NA,NA,NA,NA,NA
1377,task,flow.Sequence,2_3,NA,NA,completion,7689.24,497218,497215.06,497231.74,504920.98,504923,2023-04-30T09:14:02Z,504937.66,Prüfung,mtihani,d,mkulima,mtizamo,ufumbuzi,NA,NA,NA,"c(""distractor1"", ""distractor2"", ""distractor3"")",NA,NA,NA,NA,NA,NA,NA,NA,NA,NA,NA,NA,NA,NA,NA,NA,NA,NA,NA
1377,Shallow Question,html.Page,2_4_0_0,NA,NA,form submission,6457.34,504924,504920.98,504937.66,511395,511395,2023-04-30T09:14:08Z,511405.88,Abrechnung,uhasibu,s,kusahihisha,mpambano,mashambulizi,uhasibu,NA,NA,"c(""distractor1"", ""distractor2"", ""distractor3"")",NA,NA,NA,NA,NA,NA,NA,NA,NA,NA,NA,NA,NA,NA,NA,NA,NA,NA,NA
1377,Save data screen,canvas.Screen,2_4_0_1,NA,NA,timeout,500,511396,511392.94,511405.88,511889.22,511893,2023-04-30T09:14:09Z,511905.88,Abrechnung,uhasibu,s,kusahihisha,mpambano,mashambulizi,NA,NA,1,"c(""distractor1"", ""distractor2"", ""distractor3"")",NA,NA,NA,NA,NA,NA,NA,NA,NA,NA,NA,NA,NA,NA,NA,NA,NA,NA,NA
1377,shallow,flow.Sequence,2_4_0,NA,NA,completion,6951.56,504924,504920.98,504937.66,511889.22,511894,2023-04-30T09:14:09Z,511905.88,Abrechnung,uhasibu,s,kusahihisha,mpambano,mashambulizi,NA,NA,NA,"c(""distractor1"", ""distractor2"", ""distractor3"")",NA,NA,NA,NA,NA,NA,NA,NA,NA,NA,NA,NA,NA,NA,NA,NA,NA,NA,NA
1377,task,flow.Sequence,2_4,NA,NA,completion,6951.56,504924,504920.98,504937.66,511889.22,511895,2023-04-30T09:14:09Z,511905.88,Abrechnung,uhasibu,s,kusahihisha,mpambano,mashambulizi,NA,NA,NA,"c(""distractor1"", ""distractor2"", ""distractor3"")",NA,NA,NA,NA,NA,NA,NA,NA,NA,NA,NA,NA,NA,NA,NA,NA,NA,NA,NA
1377,Shallow Question,html.Page,2_5_0_0,NA,NA,form submission,17297.12,511895,511889.22,511905.88,529203,529204,2023-04-30T09:14:26Z,529213.38,Kontrolle,kudhibiti,s,mbinguni,kufunga,utegemezi,kufunga,NA,NA,"c(""distractor1"", ""distractor2"", ""distractor3"")",NA,NA,NA,NA,NA,NA,NA,NA,NA,NA,NA,NA,NA,NA,NA,NA,NA,NA,NA
1377,Save data screen,canvas.Screen,2_5_0_1,NA,NA,timeout,499.80000000005,529207,529201.08,529213.38,529696.7,529699,2023-04-30T09:14:27Z,529713.18,Kontrolle,kudhibiti,s,mbinguni,kufunga,utegemezi,NA,NA,0,"c(""distractor1"", ""distractor2"", ""distractor3"")",NA,NA,NA,NA,NA,NA,NA,NA,NA,NA,NA,NA,NA,NA,NA,NA,NA,NA,NA
1377,shallow,flow.Sequence,2_5_0,NA,NA,completion,17790.82,511895,511889.22,511905.88,529696.7,529700,2023-04-30T09:14:27Z,529713.18,Kontrolle,kudhibiti,s,mbinguni,kufunga,utegemezi,NA,NA,NA,"c(""distractor1"", ""distractor2"", ""distractor3"")",NA,NA,NA,NA,NA,NA,NA,NA,NA,NA,NA,NA,NA,NA,NA,NA,NA,NA,NA
1377,task,flow.Sequence,2_5,NA,NA,completion,17790.82,511895,511889.22,511905.88,529696.7,529700,2023-04-30T09:14:27Z,529713.18,Kontrolle,kudhibiti,s,mbinguni,kufunga,utegemezi,NA,NA,NA,"c(""distractor1"", ""distractor2"", ""distractor3"")",NA,NA,NA,NA,NA,NA,NA,NA,NA,NA,NA,NA,NA,NA,NA,NA,NA,NA,NA
1377,Shallow Question,html.Page,2_6_0_0,NA,NA,form submission,9361.8199999999,529700,529696.7,529713.18,539075,539076,2023-04-30T09:14:36Z,539088.7,Aufstand,ugomaji,d,mazidio,msingi,kujieleza,ugomaji,NA,NA,"c(""distractor1"", ""distractor2"", ""distractor3"")",NA,NA,NA,NA,NA,NA,NA,NA,NA,NA,NA,NA,NA,NA,NA,NA,NA,NA,NA
1377,Save data screen,canvas.Screen,2_6_0_1,NA,NA,timeout,500.58000000007,539079,539072.62,539088.7,539572.62,539574,2023-04-30T09:14:37Z,539589.28,Aufstand,ugomaji,d,mazidio,msingi,kujieleza,NA,NA,1,"c(""distractor1"", ""distractor2"", ""distractor3"")",NA,NA,NA,NA,NA,NA,NA,NA,NA,NA,NA,NA,NA,NA,NA,NA,NA,NA,NA
1377,shallow,flow.Sequence,2_6_0,NA,NA,completion,9859.4399999999,529700,529696.7,529713.18,539572.62,539574,2023-04-30T09:14:37Z,539589.28,Aufstand,ugomaji,d,mazidio,msingi,kujieleza,NA,NA,NA,"c(""distractor1"", ""distractor2"", ""distractor3"")",NA,NA,NA,NA,NA,NA,NA,NA,NA,NA,NA,NA,NA,NA,NA,NA,NA,NA,NA
1377,task,flow.Sequence,2_6,NA,NA,completion,9859.4399999999,529700,529696.7,529713.18,539572.62,539575,2023-04-30T09:14:37Z,539589.28,Aufstand,ugomaji,d,mazidio,msingi,kujieleza,NA,NA,NA,"c(""distractor1"", ""distractor2"", ""distractor3"")",NA,NA,NA,NA,NA,NA,NA,NA,NA,NA,NA,NA,NA,NA,NA,NA,NA,NA,NA
1377,Shallow Question,html.Page,2_7_0_0,NA,NA,form submission,9692.72,539576,539572.62,539589.28,549282,549282,2023-04-30T09:14:46Z,549296.6,System,maongozi,d,chokochoko,nuksani,mitaani,maongozi,NA,NA,"c(""distractor1"", ""distractor2"", ""distractor3"")",NA,NA,NA,NA,NA,NA,NA,NA,NA,NA,NA,NA,NA,NA,NA,NA,NA,NA,NA
1377,Save data screen,canvas.Screen,2_7_0_1,NA,NA,timeout,500.52000000002,549285,549281.02,549296.6,549780.44,549783,2023-04-30T09:14:47Z,549797.12,System,maongozi,d,chokochoko,nuksani,mitaani,NA,NA,1,"c(""distractor1"", ""distractor2"", ""distractor3"")",NA,NA,NA,NA,NA,NA,NA,NA,NA,NA,NA,NA,NA,NA,NA,NA,NA,NA,NA
1377,shallow,flow.Sequence,2_7_0,NA,NA,completion,10191.16,539576,539572.62,539589.28,549780.44,549784,2023-04-30T09:14:47Z,549797.12,System,maongozi,d,chokochoko,nuksani,mitaani,NA,NA,NA,"c(""distractor1"", ""distractor2"", ""distractor3"")",NA,NA,NA,NA,NA,NA,NA,NA,NA,NA,NA,NA,NA,NA,NA,NA,NA,NA,NA
1377,task,flow.Sequence,2_7,NA,NA,completion,10191.16,539576,539572.62,539589.28,549780.44,549784,2023-04-30T09:14:47Z,549797.12,System,maongozi,d,chokochoko,nuksani,mitaani,NA,NA,NA,"c(""distractor1"", ""distractor2"", ""distractor3"")",NA,NA,NA,NA,NA,NA,NA,NA,NA,NA,NA,NA,NA,NA,NA,NA,NA,NA,NA
1377,Shallow Question,html.Page,2_8_0_0,NA,NA,form submission,10276.88,549784,549780.44,549797.12,560074,560074,2023-04-30T09:14:57Z,560075.84,Gefährdung,kuhatarisha,s,uchokozi,udhaifu,makorowezo,kuhatarisha,NA,NA,"c(""distractor1"", ""distractor2"", ""distractor3"")",NA,NA,NA,NA,NA,NA,NA,NA,NA,NA,NA,NA,NA,NA,NA,NA,NA,NA,NA
1377,Save data screen,canvas.Screen,2_8_0_1,NA,NA,timeout,500.90000000002,560075,560072.7,560075.84,560559.74,560560,2023-04-30T09:14:58Z,560576.74,Gefährdung,kuhatarisha,s,uchokozi,udhaifu,makorowezo,NA,NA,1,"c(""distractor1"", ""distractor2"", ""distractor3"")",NA,NA,NA,NA,NA,NA,NA,NA,NA,NA,NA,NA,NA,NA,NA,NA,NA,NA,NA
1377,shallow,flow.Sequence,2_8_0,NA,NA,completion,10762.62,549784,549780.44,549797.12,560559.74,560561,2023-04-30T09:14:58Z,560576.74,Gefährdung,kuhatarisha,s,uchokozi,udhaifu,makorowezo,NA,NA,NA,"c(""distractor1"", ""distractor2"", ""distractor3"")",NA,NA,NA,NA,NA,NA,NA,NA,NA,NA,NA,NA,NA,NA,NA,NA,NA,NA,NA
1377,task,flow.Sequence,2_8,NA,NA,completion,10762.62,549784,549780.44,549797.12,560559.74,560561,2023-04-30T09:14:58Z,560576.74,Gefährdung,kuhatarisha,s,uchokozi,udhaifu,makorowezo,NA,NA,NA,"c(""distractor1"", ""distractor2"", ""distractor3"")",NA,NA,NA,NA,NA,NA,NA,NA,NA,NA,NA,NA,NA,NA,NA,NA,NA,NA,NA
1377,Shallow Question,html.Page,2_9_0_0,NA,NA,form submission,8298.26,560561,560559.74,560576.74,568875,568875,2023-04-30T09:15:06Z,568884.6,Übersicht,kilindo,s,mgusano,chipukizi,kulinganisha,kilindo,NA,NA,"c(""distractor1"", ""distractor2"", ""distractor3"")",NA,NA,NA,NA,NA,NA,NA,NA,NA,NA,NA,NA,NA,NA,NA,NA,NA,NA,NA
1377,Save data screen,canvas.Screen,2_9_0_1,NA,NA,timeout,500,568876,568873.04,568884.6,569367.9,569368,2023-04-30T09:15:06Z,569384.6,Übersicht,kilindo,s,mgusano,chipukizi,kulinganisha,NA,NA,1,"c(""distractor1"", ""distractor2"", ""distractor3"")",NA,NA,NA,NA,NA,NA,NA,NA,NA,NA,NA,NA,NA,NA,NA,NA,NA,NA,NA
1377,shallow,flow.Sequence,2_9_0,NA,NA,completion,8791.16,560561,560559.74,560576.74,569367.9,569368,2023-04-30T09:15:06Z,569384.6,Übersicht,kilindo,s,mgusano,chipukizi,kulinganisha,NA,NA,NA,"c(""distractor1"", ""distractor2"", ""distractor3"")",NA,NA,NA,NA,NA,NA,NA,NA,NA,NA,NA,NA,NA,NA,NA,NA,NA,NA,NA
1377,task,flow.Sequence,2_9,NA,NA,completion,8791.16,560561,560559.74,560576.74,569367.9,569369,2023-04-30T09:15:06Z,569384.6,Übersicht,kilindo,s,mgusano,chipukizi,kulinganisha,NA,NA,NA,"c(""distractor1"", ""distractor2"", ""distractor3"")",NA,NA,NA,NA,NA,NA,NA,NA,NA,NA,NA,NA,NA,NA,NA,NA,NA,NA,NA
1377,Shallow Question,html.Page,2_10_0_0,NA,NA,form submission,21330.4,569369,569367.9,569384.6,590715,590715,2023-04-30T09:15:28Z,590724.4,Kreativität,ubunifu,d,mratibu,mwendelezo,makubaliano,ubunifu,NA,NA,"c(""distractor1"", ""distractor2"", ""distractor3"")",NA,NA,NA,NA,NA,NA,NA,NA,NA,NA,NA,NA,NA,NA,NA,NA,NA,NA,NA
1377,Save data screen,canvas.Screen,2_10_0_1,NA,NA,timeout,499.67999999993,590716,590712.9,590724.4,591207.74,591208,2023-04-30T09:15:28Z,591224.08,Kreativität,ubunifu,d,mratibu,mwendelezo,makubaliano,NA,NA,1,"c(""distractor1"", ""distractor2"", ""distractor3"")",NA,NA,NA,NA,NA,NA,NA,NA,NA,NA,NA,NA,NA,NA,NA,NA,NA,NA,NA
1377,shallow,flow.Sequence,2_10_0,NA,NA,completion,21823.14,569369,569367.9,569384.6,591207.74,591208,2023-04-30T09:15:28Z,591224.08,Kreativität,ubunifu,d,mratibu,mwendelezo,makubaliano,NA,NA,NA,"c(""distractor1"", ""distractor2"", ""distractor3"")",NA,NA,NA,NA,NA,NA,NA,NA,NA,NA,NA,NA,NA,NA,NA,NA,NA,NA,NA
1377,task,flow.Sequence,2_10,NA,NA,completion,21823.14,569369,569367.9,569384.6,591207.74,591208,2023-04-30T09:15:28Z,591224.08,Kreativität,ubunifu,d,mratibu,mwendelezo,makubaliano,NA,NA,NA,"c(""distractor1"", ""distractor2"", ""distractor3"")",NA,NA,NA,NA,NA,NA,NA,NA,NA,NA,NA,NA,NA,NA,NA,NA,NA,NA,NA
1377,Shallow Question,html.Page,2_11_0_0,NA,NA,form submission,6922.92,591209,591207.74,591224.08,598147,598147,2023-04-30T09:15:35Z,598149.78,Können,unaweza,d,kiongozi,bustani,mienendo,unaweza,NA,NA,"c(""distractor1"", ""distractor2"", ""distractor3"")",NA,NA,NA,NA,NA,NA,NA,NA,NA,NA,NA,NA,NA,NA,NA,NA,NA,NA,NA
1377,Save data screen,canvas.Screen,2_11_0_1,NA,NA,timeout,500,598148,598144.78,598149.78,598632.82,598633,2023-04-30T09:15:36Z,598649.78,Können,unaweza,d,kiongozi,bustani,mienendo,NA,NA,1,"c(""distractor1"", ""distractor2"", ""distractor3"")",NA,NA,NA,NA,NA,NA,NA,NA,NA,NA,NA,NA,NA,NA,NA,NA,NA,NA,NA
1377,shallow,flow.Sequence,2_11_0,NA,NA,completion,7408.74,591209,591207.74,591224.08,598632.82,598633,2023-04-30T09:15:36Z,598649.78,Können,unaweza,d,kiongozi,bustani,mienendo,NA,NA,NA,"c(""distractor1"", ""distractor2"", ""distractor3"")",NA,NA,NA,NA,NA,NA,NA,NA,NA,NA,NA,NA,NA,NA,NA,NA,NA,NA,NA
1377,task,flow.Sequence,2_11,NA,NA,completion,7408.74,591209,591207.74,591224.08,598632.82,598633,2023-04-30T09:15:36Z,598649.78,Können,unaweza,d,kiongozi,bustani,mienendo,NA,NA,NA,"c(""distractor1"", ""distractor2"", ""distractor3"")",NA,NA,NA,NA,NA,NA,NA,NA,NA,NA,NA,NA,NA,NA,NA,NA,NA,NA,NA
1377,Shallow Question,html.Page,2_12_0_0,NA,NA,form submission,14200.22,598634,598632.82,598649.78,612850,612850,2023-04-30T09:15:50Z,612850.96,Körper,kiwiliwili,s,mapambano,mpatanishi,kiolezo,kiwiliwili,NA,NA,"c(""distractor1"", ""distractor2"", ""distractor3"")",NA,NA,NA,NA,NA,NA,NA,NA,NA,NA,NA,NA,NA,NA,NA,NA,NA,NA,NA
1377,Save data screen,canvas.Screen,2_12_0_1,NA,NA,timeout,500.88,612851,612849.04,612850.96,613335.18,613336,2023-04-30T09:15:50Z,613351.84,Körper,kiwiliwili,s,mapambano,mpatanishi,kiolezo,NA,NA,1,"c(""distractor1"", ""distractor2"", ""distractor3"")",NA,NA,NA,NA,NA,NA,NA,NA,NA,NA,NA,NA,NA,NA,NA,NA,NA,NA,NA
1377,shallow,flow.Sequence,2_12_0,NA,NA,completion,14685.4,598634,598632.82,598649.78,613335.18,613337,2023-04-30T09:15:50Z,613351.84,Körper,kiwiliwili,s,mapambano,mpatanishi,kiolezo,NA,NA,NA,"c(""distractor1"", ""distractor2"", ""distractor3"")",NA,NA,NA,NA,NA,NA,NA,NA,NA,NA,NA,NA,NA,NA,NA,NA,NA,NA,NA
1377,task,flow.Sequence,2_12,NA,NA,completion,14685.4,598634,598632.82,598649.78,613335.18,613337,2023-04-30T09:15:50Z,613351.84,Körper,kiwiliwili,s,mapambano,mpatanishi,kiolezo,NA,NA,NA,"c(""distractor1"", ""distractor2"", ""distractor3"")",NA,NA,NA,NA,NA,NA,NA,NA,NA,NA,NA,NA,NA,NA,NA,NA,NA,NA,NA
1377,Shallow Question,html.Page,2_13_0_0,NA,NA,form submission,8676.16,613337,613335.18,613351.84,622028,622029,2023-04-30T09:15:59Z,622053.96,Sänger,mwimbaji,d,msichana,shughuli,mshirika,mwimbaji,NA,NA,"c(""distractor1"", ""distractor2"", ""distractor3"")",NA,NA,NA,NA,NA,NA,NA,NA,NA,NA,NA,NA,NA,NA,NA,NA,NA,NA,NA
1377,Save data screen,canvas.Screen,2_13_0_1,NA,NA,timeout,500,622033,622037.28,622053.96,622537.28,622542,2023-04-30T09:16:00Z,622553.96,Sänger,mwimbaji,d,msichana,shughuli,mshirika,NA,NA,1,"c(""distractor1"", ""distractor2"", ""distractor3"")",NA,NA,NA,NA,NA,NA,NA,NA,NA,NA,NA,NA,NA,NA,NA,NA,NA,NA,NA
1377,shallow,flow.Sequence,2_13_0,NA,NA,completion,9185.4400000001,613337,613335.18,613351.84,622537.28,622542,2023-04-30T09:16:00Z,622553.96,Sänger,mwimbaji,d,msichana,shughuli,mshirika,NA,NA,NA,"c(""distractor1"", ""distractor2"", ""distractor3"")",NA,NA,NA,NA,NA,NA,NA,NA,NA,NA,NA,NA,NA,NA,NA,NA,NA,NA,NA
1377,task,flow.Sequence,2_13,NA,NA,completion,9185.4400000001,613337,613335.18,613351.84,622537.28,622543,2023-04-30T09:16:00Z,622553.96,Sänger,mwimbaji,d,msichana,shughuli,mshirika,NA,NA,NA,"c(""distractor1"", ""distractor2"", ""distractor3"")",NA,NA,NA,NA,NA,NA,NA,NA,NA,NA,NA,NA,NA,NA,NA,NA,NA,NA,NA
1377,Shallow Question,html.Page,2_14_0_0,NA,NA,form submission,41585.04,622543,622537.28,622553.96,664139,664139,2023-04-30T09:16:41Z,664153.38,Kultur,utamaduni,s,shetani,gerezani,mazingira,gerezani,NA,NA,"c(""distractor1"", ""distractor2"", ""distractor3"")",NA,NA,NA,NA,NA,NA,NA,NA,NA,NA,NA,NA,NA,NA,NA,NA,NA,NA,NA
1377,Save data screen,canvas.Screen,2_14_0_1,NA,NA,timeout,500.40000000002,664140,664137.1,664153.38,664636.8,664638,2023-04-30T09:16:42Z,664653.78,Kultur,utamaduni,s,shetani,gerezani,mazingira,NA,NA,0,"c(""distractor1"", ""distractor2"", ""distractor3"")",NA,NA,NA,NA,NA,NA,NA,NA,NA,NA,NA,NA,NA,NA,NA,NA,NA,NA,NA
1377,shallow,flow.Sequence,2_14_0,NA,NA,completion,42082.84,622543,622537.28,622553.96,664636.8,664638,2023-04-30T09:16:42Z,664653.78,Kultur,utamaduni,s,shetani,gerezani,mazingira,NA,NA,NA,"c(""distractor1"", ""distractor2"", ""distractor3"")",NA,NA,NA,NA,NA,NA,NA,NA,NA,NA,NA,NA,NA,NA,NA,NA,NA,NA,NA
1377,task,flow.Sequence,2_14,NA,NA,completion,42082.84,622543,622537.28,622553.96,664636.8,664638,2023-04-30T09:16:42Z,664653.78,Kultur,utamaduni,s,shetani,gerezani,mazingira,NA,NA,NA,"c(""distractor1"", ""distractor2"", ""distractor3"")",NA,NA,NA,NA,NA,NA,NA,NA,NA,NA,NA,NA,NA,NA,NA,NA,NA,NA,NA
1377,Shallow Question,html.Page,2_15_0_0,NA,NA,form submission,14709.22,664638,664636.8,664653.78,679363,679363,2023-04-30T09:16:56Z,679361.38,Angreifer,mshambulizi,d,kitengo,tasinia,usafirishaji,mshambulizi,NA,NA,"c(""distractor1"", ""distractor2"", ""distractor3"")",NA,NA,NA,NA,NA,NA,NA,NA,NA,NA,NA,NA,NA,NA,NA,NA,NA,NA,NA
1377,Save data screen,canvas.Screen,2_15_0_1,NA,NA,timeout,500,679365,679361.12,679361.38,679844.64,679846,2023-04-30T09:16:57Z,679861.38,Angreifer,mshambulizi,d,kitengo,tasinia,usafirishaji,NA,NA,1,"c(""distractor1"", ""distractor2"", ""distractor3"")",NA,NA,NA,NA,NA,NA,NA,NA,NA,NA,NA,NA,NA,NA,NA,NA,NA,NA,NA
1377,shallow,flow.Sequence,2_15_0,NA,NA,completion,15190.86,664638,664636.8,664653.78,679844.64,679847,2023-04-30T09:16:57Z,679861.38,Angreifer,mshambulizi,d,kitengo,tasinia,usafirishaji,NA,NA,NA,"c(""distractor1"", ""distractor2"", ""distractor3"")",NA,NA,NA,NA,NA,NA,NA,NA,NA,NA,NA,NA,NA,NA,NA,NA,NA,NA,NA
1377,task,flow.Sequence,2_15,NA,NA,completion,15190.86,664638,664636.8,664653.78,679844.64,679848,2023-04-30T09:16:57Z,679861.38,Angreifer,mshambulizi,d,kitengo,tasinia,usafirishaji,NA,NA,NA,"c(""distractor1"", ""distractor2"", ""distractor3"")",NA,NA,NA,NA,NA,NA,NA,NA,NA,NA,NA,NA,NA,NA,NA,NA,NA,NA,NA
1377,retrieval block 2 (multiple choice),flow.Loop,2,NA,NA,completion,201140.38,478694,478687.6,478704.26,679844.64,679848,2023-04-30T09:16:57Z,679861.38,NA,NA,NA,NA,NA,NA,NA,NA,NA,"c(""distractor1"", ""distractor2"", ""distractor3"")",NA,NA,NA,NA,NA,NA,NA,NA,NA,NA,NA,NA,NA,NA,NA,NA,NA,NA,NA
1377,End,canvas.Screen,3,NA,keypress(Space),response,2825.62,679849,679844.64,679861.38,682687,682692,2023-04-30T09:17:00Z,682693.18,NA,NA,NA,NA,NA,NA,NA,NA,NA,NULL,NA,NA,NA,NA,NA,NA,NA,NA,NA,NA,NA,NA,NA,NA,NA,NA,NA,NA,NA
1377,root,flow.Sequence,NA,NA,NA,completion,681297.16,1322,1356.72,1389.84,682687,682693,2023-04-30T09:17:00Z,682693.18,NA,NA,NA,NA,NA,NA,NA,NA,NA,NULL,NA,NA,NA,NA,NA,NA,NA,NA,NA,NA,NA,NA,NA,NA,NA,NA,NA,NA,NA
