observation,sender,sender_type,sender_id,response,response_action,ended_on,duration,time_run,time_render,time_show,time_end,time_commit,timestamp,time_switch,distractors,german,swahili,enc,distractor1,distractor2,distractor3,response_2,x,correct,x_2,url_vp,url_sess,meta_labjs_version,meta_location,meta_user_agent,meta_platform,meta_language,meta_locale,meta_time_zone,meta_timezone_offset,meta_screen_width,meta_screen_height,meta_scroll_width,meta_scroll_height,meta_window_inner_width,meta_window_inner_height,meta_device_pixel_ratio,meta_labjs_build_flavor,meta_labjs_build_commit
3013,Introduction general,canvas.Screen,0,weiter,keypress(q),response,46263.7,394,403.64,420.3,46684,46705,2023-09-29T13:30:27Z,46705.02,NULL,NA,NA,NA,NA,NA,NA,NA,NA,NA,NA,184,1,20.2.4,https://neurocog.fernuni.ch/studies/vweber/sliechti/encoding_immediate/index.html?vp=184&sess=1,Mozilla/5.0 (Windows NT 10.0; Win64; x64; rv:109.0) Gecko/20100101 Firefox/118.0,Win32,de,de-CH,Europe/Zurich,-120,1280,720,1280,587,1280,587,1.5,production,f5b4a49f956347addd546a832a3327688c2c0fef
3013,Introduction practice,canvas.Screen,1_0,NA,keypress(Space),response,8150.98,46705,46704.78,46705.02,54856,54867,2023-09-29T13:30:35Z,54868.04,NULL,NA,NA,NA,NA,NA,NA,NA,NA,NA,NA,NA,NA,NA,NA,NA,NA,NA,NA,NA,NA,NA,NA,NA,NA,NA,NA,NA,NA,NA
3013,Deep Question,html.Page,1_1_0_0_0,NA,NA,form submission,16968.96,54867,54867.82,54868.04,71837,71838,2023-09-29T13:30:52Z,71844.56,"c(""distractor1"", ""distractor2"", ""distractor3"")",Gesundheit,salama,d,NA,NA,NA,kukuck,NA,NA,NA,NA,NA,NA,NA,NA,NA,NA,NA,NA,NA,NA,NA,NA,NA,NA,NA,NA,NA,NA
3013,"""Richtig""-Screen",canvas.Screen,1_1_0_0_1,NA,NA,skipped,NA,71840,NA,NA,71837,71841,2023-09-29T13:30:52Z,71844.56,"c(""distractor1"", ""distractor2"", ""distractor3"")",Gesundheit,salama,d,NA,NA,NA,NA,NA,NA,NA,NA,NA,NA,NA,NA,NA,NA,NA,NA,NA,NA,NA,NA,NA,NA,NA,NA,NA,NA
3013,"""Falsch""-Screen",canvas.Screen,1_1_0_0_2,NA,NA,timeout,4999.36,71842,71834.9,71844.56,76827.26,76829,2023-09-29T13:30:57Z,76843.92,"c(""distractor1"", ""distractor2"", ""distractor3"")",Gesundheit,salama,d,NA,NA,NA,NA,NA,0,NA,NA,NA,NA,NA,NA,NA,NA,NA,NA,NA,NA,NA,NA,NA,NA,NA,NA,NA,NA
3013,deep,flow.Sequence,1_1_0_0,NA,NA,completion,21959.22,54867,54867.82,54868.04,76827.26,76830,2023-09-29T13:30:57Z,76843.92,"c(""distractor1"", ""distractor2"", ""distractor3"")",Gesundheit,salama,d,NA,NA,NA,NA,NA,NA,NA,NA,NA,NA,NA,NA,NA,NA,NA,NA,NA,NA,NA,NA,NA,NA,NA,NA,NA,NA
3013,shallow,flow.Sequence,1_1_0_1,NA,NA,skipped,NA,76830,NA,NA,76827.26,76830,2023-09-29T13:30:57Z,76843.92,"c(""distractor1"", ""distractor2"", ""distractor3"")",Gesundheit,salama,d,NA,NA,NA,NA,NA,NA,NA,NA,NA,NA,NA,NA,NA,NA,NA,NA,NA,NA,NA,NA,NA,NA,NA,NA,NA,NA
3013,task,flow.Sequence,1_1_0,NA,NA,completion,21959.22,54867,54867.82,54868.04,76827.26,76830,2023-09-29T13:30:57Z,76843.92,"c(""distractor1"", ""distractor2"", ""distractor3"")",Gesundheit,salama,d,NA,NA,NA,NA,NA,NA,NA,NA,NA,NA,NA,NA,NA,NA,NA,NA,NA,NA,NA,NA,NA,NA,NA,NA,NA,NA
3013,deep,flow.Sequence,1_1_1_0,NA,NA,skipped,NA,76830,NA,NA,76827.26,76830,2023-09-29T13:30:57Z,76843.92,"c(""distractor1"", ""distractor2"", ""distractor3"")",Kritik,lawama,s,dereva,nafasi,mawazo,NA,NA,NA,NA,NA,NA,NA,NA,NA,NA,NA,NA,NA,NA,NA,NA,NA,NA,NA,NA,NA,NA,NA
3013,Shallow Question,html.Page,1_1_1_1_0,NA,NA,form submission,18555.08,76831,76827.26,76843.92,95399,95400,2023-09-29T13:31:15Z,95408.22,"c(""distractor1"", ""distractor2"", ""distractor3"")",Kritik,lawama,s,dereva,nafasi,mawazo,mawazo,NA,NA,NA,NA,NA,NA,NA,NA,NA,NA,NA,NA,NA,NA,NA,NA,NA,NA,NA,NA,NA,NA
3013,"""Richtig""-Screen",canvas.Screen,1_1_1_1_1,NA,NA,skipped,NA,95409,NA,NA,95399,95410,2023-09-29T13:31:15Z,95408.22,"c(""distractor1"", ""distractor2"", ""distractor3"")",Kritik,lawama,s,dereva,nafasi,mawazo,NA,NA,NA,NA,NA,NA,NA,NA,NA,NA,NA,NA,NA,NA,NA,NA,NA,NA,NA,NA,NA,NA,NA
3013,"""Falsch""-Screen",canvas.Screen,1_1_1_1_2,NA,NA,timeout,4999.34,95414,95392.7,95408.22,100391.02,100393,2023-09-29T13:31:20Z,100407.56,"c(""distractor1"", ""distractor2"", ""distractor3"")",Kritik,lawama,s,dereva,nafasi,mawazo,NA,NA,0,NA,NA,NA,NA,NA,NA,NA,NA,NA,NA,NA,NA,NA,NA,NA,NA,NA,NA,NA,NA
3013,shallow,flow.Sequence,1_1_1_1,NA,NA,completion,23547.1,76830,76827.26,76843.92,100391.02,100394,2023-09-29T13:31:20Z,100407.56,"c(""distractor1"", ""distractor2"", ""distractor3"")",Kritik,lawama,s,dereva,nafasi,mawazo,NA,NA,NA,NA,NA,NA,NA,NA,NA,NA,NA,NA,NA,NA,NA,NA,NA,NA,NA,NA,NA,NA,NA
3013,task,flow.Sequence,1_1_1,NA,NA,completion,23547.1,76830,76827.26,76843.92,100391.02,100395,2023-09-29T13:31:20Z,100407.56,"c(""distractor1"", ""distractor2"", ""distractor3"")",Kritik,lawama,s,dereva,nafasi,mawazo,NA,NA,NA,NA,NA,NA,NA,NA,NA,NA,NA,NA,NA,NA,NA,NA,NA,NA,NA,NA,NA,NA,NA
3013,Deep Question,html.Page,1_1_2_0_0,NA,NA,form submission,13066.44,100396,100391.02,100407.56,113474,113474,2023-09-29T13:31:33Z,113492.24,"c(""distractor1"", ""distractor2"", ""distractor3"")",Schatten,kivuli,d,NA,NA,NA,liluli,NA,NA,NA,NA,NA,NA,NA,NA,NA,NA,NA,NA,NA,NA,NA,NA,NA,NA,NA,NA,NA,NA
3013,"""Richtig""-Screen",canvas.Screen,1_1_2_0_1,NA,NA,skipped,NA,113481,NA,NA,113474,113481,2023-09-29T13:31:33Z,113492.24,"c(""distractor1"", ""distractor2"", ""distractor3"")",Schatten,kivuli,d,NA,NA,NA,NA,NA,NA,NA,NA,NA,NA,NA,NA,NA,NA,NA,NA,NA,NA,NA,NA,NA,NA,NA,NA,NA,NA
3013,"""Falsch""-Screen",canvas.Screen,1_1_2_0_2,NA,NA,timeout,4996.38,113487,113465.64,113492.24,118472,118474,2023-09-29T13:31:38Z,118488.62,"c(""distractor1"", ""distractor2"", ""distractor3"")",Schatten,kivuli,d,NA,NA,NA,NA,NA,0,NA,NA,NA,NA,NA,NA,NA,NA,NA,NA,NA,NA,NA,NA,NA,NA,NA,NA,NA,NA
3013,deep,flow.Sequence,1_1_2_0,NA,NA,completion,18064.44,100396,100391.02,100407.56,118472,118474,2023-09-29T13:31:38Z,118488.62,"c(""distractor1"", ""distractor2"", ""distractor3"")",Schatten,kivuli,d,NA,NA,NA,NA,NA,NA,NA,NA,NA,NA,NA,NA,NA,NA,NA,NA,NA,NA,NA,NA,NA,NA,NA,NA,NA,NA
3013,shallow,flow.Sequence,1_1_2_1,NA,NA,skipped,NA,118475,NA,NA,118472,118475,2023-09-29T13:31:38Z,118488.62,"c(""distractor1"", ""distractor2"", ""distractor3"")",Schatten,kivuli,d,NA,NA,NA,NA,NA,NA,NA,NA,NA,NA,NA,NA,NA,NA,NA,NA,NA,NA,NA,NA,NA,NA,NA,NA,NA,NA
3013,task,flow.Sequence,1_1_2,NA,NA,completion,18064.44,100395,100391.02,100407.56,118472,118475,2023-09-29T13:31:38Z,118488.62,"c(""distractor1"", ""distractor2"", ""distractor3"")",Schatten,kivuli,d,NA,NA,NA,NA,NA,NA,NA,NA,NA,NA,NA,NA,NA,NA,NA,NA,NA,NA,NA,NA,NA,NA,NA,NA,NA,NA
3013,Deep Question,html.Page,1_1_3_0_0,NA,NA,form submission,8609.38,118476,118472,118488.62,127098,127099,2023-09-29T13:31:47Z,127104.22,"c(""distractor1"", ""distractor2"", ""distractor3"")",Qualität,mtindo,d,NA,NA,NA,retsa,NA,NA,NA,NA,NA,NA,NA,NA,NA,NA,NA,NA,NA,NA,NA,NA,NA,NA,NA,NA,NA,NA
3013,"""Richtig""-Screen",canvas.Screen,1_1_3_0_1,NA,NA,skipped,NA,127101,NA,NA,127098,127102,2023-09-29T13:31:47Z,127104.22,"c(""distractor1"", ""distractor2"", ""distractor3"")",Qualität,mtindo,d,NA,NA,NA,NA,NA,NA,NA,NA,NA,NA,NA,NA,NA,NA,NA,NA,NA,NA,NA,NA,NA,NA,NA,NA,NA,NA
3013,"""Falsch""-Screen",canvas.Screen,1_1_3_0_2,NA,NA,timeout,4999.34,127105,127096.62,127104.22,132086.9,132088,2023-09-29T13:31:52Z,132103.56,"c(""distractor1"", ""distractor2"", ""distractor3"")",Qualität,mtindo,d,NA,NA,NA,NA,NA,0,NA,NA,NA,NA,NA,NA,NA,NA,NA,NA,NA,NA,NA,NA,NA,NA,NA,NA,NA,NA
3013,deep,flow.Sequence,1_1_3_0,NA,NA,completion,13598.28,118476,118472,118488.62,132086.9,132089,2023-09-29T13:31:52Z,132103.56,"c(""distractor1"", ""distractor2"", ""distractor3"")",Qualität,mtindo,d,NA,NA,NA,NA,NA,NA,NA,NA,NA,NA,NA,NA,NA,NA,NA,NA,NA,NA,NA,NA,NA,NA,NA,NA,NA,NA
3013,shallow,flow.Sequence,1_1_3_1,NA,NA,skipped,NA,132089,NA,NA,132086.9,132090,2023-09-29T13:31:52Z,132103.56,"c(""distractor1"", ""distractor2"", ""distractor3"")",Qualität,mtindo,d,NA,NA,NA,NA,NA,NA,NA,NA,NA,NA,NA,NA,NA,NA,NA,NA,NA,NA,NA,NA,NA,NA,NA,NA,NA,NA
3013,task,flow.Sequence,1_1_3,NA,NA,completion,13598.28,118476,118472,118488.62,132086.9,132091,2023-09-29T13:31:52Z,132103.56,"c(""distractor1"", ""distractor2"", ""distractor3"")",Qualität,mtindo,d,NA,NA,NA,NA,NA,NA,NA,NA,NA,NA,NA,NA,NA,NA,NA,NA,NA,NA,NA,NA,NA,NA,NA,NA,NA,NA
3013,deep,flow.Sequence,1_1_4_0,NA,NA,skipped,NA,132091,NA,NA,132086.9,132091,2023-09-29T13:31:52Z,132103.56,"c(""distractor1"", ""distractor2"", ""distractor3"")",Rückhalt,msaada,s,muhula,auwali,kiwimbe,NA,NA,NA,NA,NA,NA,NA,NA,NA,NA,NA,NA,NA,NA,NA,NA,NA,NA,NA,NA,NA,NA,NA
3013,Shallow Question,html.Page,1_1_4_1_0,NA,NA,form submission,6390.44,132092,132086.9,132103.56,138494,138494,2023-09-29T13:31:58Z,138493.36,"c(""distractor1"", ""distractor2"", ""distractor3"")",Rückhalt,msaada,s,muhula,auwali,kiwimbe,kiwimbe,NA,NA,NA,NA,NA,NA,NA,NA,NA,NA,NA,NA,NA,NA,NA,NA,NA,NA,NA,NA,NA,NA
3013,"""Richtig""-Screen",canvas.Screen,1_1_4_1_1,NA,NA,skipped,NA,138497,NA,NA,138494,138497,2023-09-29T13:31:58Z,138493.36,"c(""distractor1"", ""distractor2"", ""distractor3"")",Rückhalt,msaada,s,muhula,auwali,kiwimbe,NA,NA,NA,NA,NA,NA,NA,NA,NA,NA,NA,NA,NA,NA,NA,NA,NA,NA,NA,NA,NA,NA,NA
3013,"""Falsch""-Screen",canvas.Screen,1_1_4_1_2,NA,NA,timeout,4992.06,138500,138492.96,138493.36,143468.78,143470,2023-09-29T13:32:03Z,143485.42,"c(""distractor1"", ""distractor2"", ""distractor3"")",Rückhalt,msaada,s,muhula,auwali,kiwimbe,NA,NA,0,NA,NA,NA,NA,NA,NA,NA,NA,NA,NA,NA,NA,NA,NA,NA,NA,NA,NA,NA,NA
3013,shallow,flow.Sequence,1_1_4_1,NA,NA,completion,11365.22,132092,132086.9,132103.56,143468.78,143471,2023-09-29T13:32:03Z,143485.42,"c(""distractor1"", ""distractor2"", ""distractor3"")",Rückhalt,msaada,s,muhula,auwali,kiwimbe,NA,NA,NA,NA,NA,NA,NA,NA,NA,NA,NA,NA,NA,NA,NA,NA,NA,NA,NA,NA,NA,NA,NA
3013,task,flow.Sequence,1_1_4,NA,NA,completion,11365.22,132091,132086.9,132103.56,143468.78,143471,2023-09-29T13:32:03Z,143485.42,"c(""distractor1"", ""distractor2"", ""distractor3"")",Rückhalt,msaada,s,muhula,auwali,kiwimbe,NA,NA,NA,NA,NA,NA,NA,NA,NA,NA,NA,NA,NA,NA,NA,NA,NA,NA,NA,NA,NA,NA,NA
3013,deep,flow.Sequence,1_1_5_0,NA,NA,skipped,NA,143471,NA,NA,143468.78,143472,2023-09-29T13:32:03Z,143485.42,"c(""distractor1"", ""distractor2"", ""distractor3"")",Gegenwart,hadhara,s,katiba,jokofu,mikopo,NA,NA,NA,NA,NA,NA,NA,NA,NA,NA,NA,NA,NA,NA,NA,NA,NA,NA,NA,NA,NA,NA,NA
3013,Shallow Question,html.Page,1_1_5_1_0,NA,NA,form submission,9629.58,143472,143468.78,143485.42,153115,153116,2023-09-29T13:32:13Z,153117.5,"c(""distractor1"", ""distractor2"", ""distractor3"")",Gegenwart,hadhara,s,katiba,jokofu,mikopo,katiba,NA,NA,NA,NA,NA,NA,NA,NA,NA,NA,NA,NA,NA,NA,NA,NA,NA,NA,NA,NA,NA,NA
3013,"""Richtig""-Screen",canvas.Screen,1_1_5_1_1,NA,NA,skipped,NA,153118,NA,NA,153115,153118,2023-09-29T13:32:13Z,153117.5,"c(""distractor1"", ""distractor2"", ""distractor3"")",Gegenwart,hadhara,s,katiba,jokofu,mikopo,NA,NA,NA,NA,NA,NA,NA,NA,NA,NA,NA,NA,NA,NA,NA,NA,NA,NA,NA,NA,NA,NA,NA
3013,"""Falsch""-Screen",canvas.Screen,1_1_5_1_2,NA,NA,timeout,4999.36,153122,153110.84,153117.5,158100.2,158101,2023-09-29T13:32:18Z,158116.86,"c(""distractor1"", ""distractor2"", ""distractor3"")",Gegenwart,hadhara,s,katiba,jokofu,mikopo,NA,NA,0,NA,NA,NA,NA,NA,NA,NA,NA,NA,NA,NA,NA,NA,NA,NA,NA,NA,NA,NA,NA
3013,shallow,flow.Sequence,1_1_5_1,NA,NA,completion,14614.78,143472,143468.78,143485.42,158100.2,158102,2023-09-29T13:32:18Z,158116.86,"c(""distractor1"", ""distractor2"", ""distractor3"")",Gegenwart,hadhara,s,katiba,jokofu,mikopo,NA,NA,NA,NA,NA,NA,NA,NA,NA,NA,NA,NA,NA,NA,NA,NA,NA,NA,NA,NA,NA,NA,NA
3013,task,flow.Sequence,1_1_5,NA,NA,completion,14614.78,143471,143468.78,143485.42,158100.2,158103,2023-09-29T13:32:18Z,158116.86,"c(""distractor1"", ""distractor2"", ""distractor3"")",Gegenwart,hadhara,s,katiba,jokofu,mikopo,NA,NA,NA,NA,NA,NA,NA,NA,NA,NA,NA,NA,NA,NA,NA,NA,NA,NA,NA,NA,NA,NA,NA
3013,block,flow.Loop,1_1,NA,NA,completion,103232.16,54867,54867.82,54868.04,158100.2,158103,2023-09-29T13:32:18Z,158116.86,"c(""distractor1"", ""distractor2"", ""distractor3"")",NA,NA,NA,NA,NA,NA,NA,NA,NA,NA,NA,NA,NA,NA,NA,NA,NA,NA,NA,NA,NA,NA,NA,NA,NA,NA,NA,NA,NA
3013,Practice,flow.Sequence,1,NA,NA,completion,111395.18,46705,46704.78,46705.02,158100.2,158104,2023-09-29T13:32:18Z,158116.86,NULL,NA,NA,NA,NA,NA,NA,NA,NA,NA,NA,NA,NA,NA,NA,NA,NA,NA,NA,NA,NA,NA,NA,NA,NA,NA,NA,NA,NA,NA
3013,Experiment start,canvas.Screen,2,weiter,keypress(q),response,54692.14,158104,158100.2,158116.86,212809,212824,2023-09-29T13:33:13Z,212893.28,NULL,NA,NA,NA,NA,NA,NA,NA,NA,NA,NA,NA,NA,NA,NA,NA,NA,NA,NA,NA,NA,NA,NA,NA,NA,NA,NA,NA,NA,NA
3013,Deep Question,html.Page,3_0_0_0_0_0_0,NA,NA,form submission,9449.72,212893,212892.48,212893.28,222343,222343,2023-09-29T13:33:22Z,222341.8,NULL,Verpackung,ufungaji,d,NA,NA,NA,ertuli,NA,NA,0,NA,NA,NA,NA,NA,NA,NA,NA,NA,NA,NA,NA,NA,NA,NA,NA,NA,NA,NA
3013,"""Richtig""-Screen",canvas.Screen,3_0_0_0_0_0_1,NA,NA,skipped,NA,222346,NA,NA,222343,222346,2023-09-29T13:33:22Z,222341.8,NULL,Verpackung,ufungaji,d,NA,NA,NA,NA,sdf,NA,0,NA,NA,NA,NA,NA,NA,NA,NA,NA,NA,NA,NA,NA,NA,NA,NA,NA,NA,NA
3013,"""Falsch""-Screen",canvas.Screen,3_0_0_0_0_0_2,NA,NA,timeout,4999.52,222349,222341.42,222341.8,227324.66,227325,2023-09-29T13:33:27Z,227341.32,NULL,Verpackung,ufungaji,d,NA,NA,NA,NA,sdf,0,0,NA,NA,NA,NA,NA,NA,NA,NA,NA,NA,NA,NA,NA,NA,NA,NA,NA,NA,NA
3013,deep,flow.Sequence,3_0_0_0_0_0,NA,NA,completion,14431.38,212893,212892.48,212893.28,227324.66,227327,2023-09-29T13:33:27Z,227341.32,NULL,Verpackung,ufungaji,d,NA,NA,NA,NA,sdf,NA,0,NA,NA,NA,NA,NA,NA,NA,NA,NA,NA,NA,NA,NA,NA,NA,NA,NA,NA,NA
3013,shallow,flow.Sequence,3_0_0_0_0_1,NA,NA,skipped,NA,227327,NA,NA,227324.66,227327,2023-09-29T13:33:27Z,227341.32,NULL,Verpackung,ufungaji,d,NA,NA,NA,NA,sdf,NA,0,NA,NA,NA,NA,NA,NA,NA,NA,NA,NA,NA,NA,NA,NA,NA,NA,NA,NA,NA
3013,task,flow.Sequence,3_0_0_0_0,NA,NA,completion,14431.38,212893,212892.48,212893.28,227324.66,227328,2023-09-29T13:33:27Z,227341.32,NULL,Verpackung,ufungaji,d,NA,NA,NA,NA,sdf,NA,0,NA,NA,NA,NA,NA,NA,NA,NA,NA,NA,NA,NA,NA,NA,NA,NA,NA,NA,NA
3013,deep,flow.Sequence,3_0_0_0_1_0,NA,NA,skipped,NA,227328,NA,NA,227324.66,227328,2023-09-29T13:33:27Z,227341.32,NULL,Theorie,nadharia,s,ushungi,mkutano,uwakilishi,NA,sdf,NA,0,NA,NA,NA,NA,NA,NA,NA,NA,NA,NA,NA,NA,NA,NA,NA,NA,NA,NA,NA
3013,Shallow Question,html.Page,3_0_0_0_1_1_0,NA,NA,form submission,5395.68,227328,227324.66,227341.32,232737,232737,2023-09-29T13:33:33Z,232740.6,NULL,Theorie,nadharia,s,ushungi,mkutano,uwakilishi,mkutano,NA,NA,0,NA,NA,NA,NA,NA,NA,NA,NA,NA,NA,NA,NA,NA,NA,NA,NA,NA,NA,NA
3013,"""Richtig""-Screen",canvas.Screen,3_0_0_0_1_1_1,NA,NA,skipped,NA,232739,NA,NA,232737,232739,2023-09-29T13:33:33Z,232740.6,NULL,Theorie,nadharia,s,ushungi,mkutano,uwakilishi,NA,sdf,NA,0,NA,NA,NA,NA,NA,NA,NA,NA,NA,NA,NA,NA,NA,NA,NA,NA,NA,NA,NA
3013,"""Falsch""-Screen",canvas.Screen,3_0_0_0_1_1_2,NA,NA,timeout,4999.34,232741,232736.48,232740.6,237723.3,237729,2023-09-29T13:33:38Z,237739.94,NULL,Theorie,nadharia,s,ushungi,mkutano,uwakilishi,NA,sdf,0,0,NA,NA,NA,NA,NA,NA,NA,NA,NA,NA,NA,NA,NA,NA,NA,NA,NA,NA,NA
3013,shallow,flow.Sequence,3_0_0_0_1_1,NA,NA,completion,10381.98,227328,227324.66,227341.32,237723.3,237732,2023-09-29T13:33:38Z,237739.94,NULL,Theorie,nadharia,s,ushungi,mkutano,uwakilishi,NA,sdf,NA,0,NA,NA,NA,NA,NA,NA,NA,NA,NA,NA,NA,NA,NA,NA,NA,NA,NA,NA,NA
3013,task,flow.Sequence,3_0_0_0_1,NA,NA,completion,10381.98,227328,227324.66,227341.32,237723.3,237734,2023-09-29T13:33:38Z,237739.94,NULL,Theorie,nadharia,s,ushungi,mkutano,uwakilishi,NA,sdf,NA,0,NA,NA,NA,NA,NA,NA,NA,NA,NA,NA,NA,NA,NA,NA,NA,NA,NA,NA,NA
3013,Deep Question,html.Page,3_0_0_0_2_0_0,NA,NA,form submission,6709.06,237735,237723.3,237739.94,244449,244449,2023-09-29T13:33:44Z,244455.78,NULL,Wechsel,ugeuzaji,d,NA,NA,NA,retuli,NA,NA,0,NA,NA,NA,NA,NA,NA,NA,NA,NA,NA,NA,NA,NA,NA,NA,NA,NA,NA,NA
3013,"""Richtig""-Screen",canvas.Screen,3_0_0_0_2_0_1,NA,NA,skipped,NA,244456,NA,NA,244449,244456,2023-09-29T13:33:44Z,244455.78,NULL,Wechsel,ugeuzaji,d,NA,NA,NA,NA,sdf,NA,0,NA,NA,NA,NA,NA,NA,NA,NA,NA,NA,NA,NA,NA,NA,NA,NA,NA,NA,NA
3013,"""Falsch""-Screen",canvas.Screen,3_0_0_0_2_0_2,NA,NA,timeout,4999.34,244459,244447.52,244455.78,249438.46,249439,2023-09-29T13:33:49Z,249455.12,NULL,Wechsel,ugeuzaji,d,NA,NA,NA,NA,sdf,0,0,NA,NA,NA,NA,NA,NA,NA,NA,NA,NA,NA,NA,NA,NA,NA,NA,NA,NA,NA
3013,deep,flow.Sequence,3_0_0_0_2_0,NA,NA,completion,11698.52,237734,237723.3,237739.94,249438.46,249440,2023-09-29T13:33:49Z,249455.12,NULL,Wechsel,ugeuzaji,d,NA,NA,NA,NA,sdf,NA,0,NA,NA,NA,NA,NA,NA,NA,NA,NA,NA,NA,NA,NA,NA,NA,NA,NA,NA,NA
3013,shallow,flow.Sequence,3_0_0_0_2_1,NA,NA,skipped,NA,249441,NA,NA,249438.46,249441,2023-09-29T13:33:49Z,249455.12,NULL,Wechsel,ugeuzaji,d,NA,NA,NA,NA,sdf,NA,0,NA,NA,NA,NA,NA,NA,NA,NA,NA,NA,NA,NA,NA,NA,NA,NA,NA,NA,NA
3013,task,flow.Sequence,3_0_0_0_2,NA,NA,completion,11698.52,237734,237723.3,237739.94,249438.46,249442,2023-09-29T13:33:49Z,249455.12,NULL,Wechsel,ugeuzaji,d,NA,NA,NA,NA,sdf,NA,0,NA,NA,NA,NA,NA,NA,NA,NA,NA,NA,NA,NA,NA,NA,NA,NA,NA,NA,NA
3013,Deep Question,html.Page,3_0_0_0_3_0_0,NA,NA,form submission,5748.88,249442,249438.46,249455.12,255204,255205,2023-09-29T13:33:55Z,255204.36,NULL,Erneuerung,ukarabati,d,NA,NA,NA,pozu,NA,NA,0,NA,NA,NA,NA,NA,NA,NA,NA,NA,NA,NA,NA,NA,NA,NA,NA,NA,NA,NA
3013,"""Richtig""-Screen",canvas.Screen,3_0_0_0_3_0_1,NA,NA,skipped,NA,255208,NA,NA,255204,255208,2023-09-29T13:33:55Z,255204.36,NULL,Erneuerung,ukarabati,d,NA,NA,NA,NA,sdf,NA,0,NA,NA,NA,NA,NA,NA,NA,NA,NA,NA,NA,NA,NA,NA,NA,NA,NA,NA,NA
3013,"""Falsch""-Screen",canvas.Screen,3_0_0_0_3_0_2,NA,NA,timeout,4999.44,255211,255203.2,255204.36,260187.14,260189,2023-09-29T13:34:00Z,260203.8,NULL,Erneuerung,ukarabati,d,NA,NA,NA,NA,sdf,0,0,NA,NA,NA,NA,NA,NA,NA,NA,NA,NA,NA,NA,NA,NA,NA,NA,NA,NA,NA
3013,deep,flow.Sequence,3_0_0_0_3_0,NA,NA,completion,10732.02,249442,249438.46,249455.12,260187.14,260190,2023-09-29T13:34:00Z,260203.8,NULL,Erneuerung,ukarabati,d,NA,NA,NA,NA,sdf,NA,0,NA,NA,NA,NA,NA,NA,NA,NA,NA,NA,NA,NA,NA,NA,NA,NA,NA,NA,NA
3013,shallow,flow.Sequence,3_0_0_0_3_1,NA,NA,skipped,NA,260190,NA,NA,260187.14,260191,2023-09-29T13:34:00Z,260203.8,NULL,Erneuerung,ukarabati,d,NA,NA,NA,NA,sdf,NA,0,NA,NA,NA,NA,NA,NA,NA,NA,NA,NA,NA,NA,NA,NA,NA,NA,NA,NA,NA
3013,task,flow.Sequence,3_0_0_0_3,NA,NA,completion,10732.02,249442,249438.46,249455.12,260187.14,260192,2023-09-29T13:34:00Z,260203.8,NULL,Erneuerung,ukarabati,d,NA,NA,NA,NA,sdf,NA,0,NA,NA,NA,NA,NA,NA,NA,NA,NA,NA,NA,NA,NA,NA,NA,NA,NA,NA,NA
3013,deep,flow.Sequence,3_0_0_0_4_0,NA,NA,skipped,NA,260193,NA,NA,260187.14,260193,2023-09-29T13:34:00Z,260203.8,NULL,Schock,mshtuko,s,biashara,kukataza,vichekesho,NA,sdf,NA,0,NA,NA,NA,NA,NA,NA,NA,NA,NA,NA,NA,NA,NA,NA,NA,NA,NA,NA,NA
3013,Shallow Question,html.Page,3_0_0_0_4_1_0,NA,NA,form submission,5269.2,260194,260187.14,260203.8,265473,265474,2023-09-29T13:34:05Z,265472.84,NULL,Schock,mshtuko,s,biashara,kukataza,vichekesho,kukataza,NA,NA,0,NA,NA,NA,NA,NA,NA,NA,NA,NA,NA,NA,NA,NA,NA,NA,NA,NA,NA,NA
3013,"""Richtig""-Screen",canvas.Screen,3_0_0_0_4_1_1,NA,NA,skipped,NA,265476,NA,NA,265473,265477,2023-09-29T13:34:05Z,265472.84,NULL,Schock,mshtuko,s,biashara,kukataza,vichekesho,NA,sdf,NA,0,NA,NA,NA,NA,NA,NA,NA,NA,NA,NA,NA,NA,NA,NA,NA,NA,NA,NA,NA
3013,"""Falsch""-Screen",canvas.Screen,3_0_0_0_4_1_2,NA,NA,timeout,4996.26,265481,265472.48,265472.84,270452.46,270453,2023-09-29T13:34:10Z,270469.1,NULL,Schock,mshtuko,s,biashara,kukataza,vichekesho,NA,sdf,0,0,NA,NA,NA,NA,NA,NA,NA,NA,NA,NA,NA,NA,NA,NA,NA,NA,NA,NA,NA
3013,shallow,flow.Sequence,3_0_0_0_4_1,NA,NA,completion,10248.66,260193,260187.14,260203.8,270452.46,270454,2023-09-29T13:34:10Z,270469.1,NULL,Schock,mshtuko,s,biashara,kukataza,vichekesho,NA,sdf,NA,0,NA,NA,NA,NA,NA,NA,NA,NA,NA,NA,NA,NA,NA,NA,NA,NA,NA,NA,NA
3013,task,flow.Sequence,3_0_0_0_4,NA,NA,completion,10248.66,260193,260187.14,260203.8,270452.46,270455,2023-09-29T13:34:10Z,270469.1,NULL,Schock,mshtuko,s,biashara,kukataza,vichekesho,NA,sdf,NA,0,NA,NA,NA,NA,NA,NA,NA,NA,NA,NA,NA,NA,NA,NA,NA,NA,NA,NA,NA
3013,deep,flow.Sequence,3_0_0_0_5_0,NA,NA,skipped,NA,270455,NA,NA,270452.46,270455,2023-09-29T13:34:10Z,270469.1,NULL,Flexibilität,kubadilika,s,enjini,usikilivu,hesabu,NA,sdf,NA,0,NA,NA,NA,NA,NA,NA,NA,NA,NA,NA,NA,NA,NA,NA,NA,NA,NA,NA,NA
3013,Shallow Question,html.Page,3_0_0_0_5_1_0,NA,NA,form submission,7046.9,270456,270452.46,270469.1,277516,277517,2023-09-29T13:34:17Z,277518.18,NULL,Flexibilität,kubadilika,s,enjini,usikilivu,hesabu,hesabu,NA,NA,0,NA,NA,NA,NA,NA,NA,NA,NA,NA,NA,NA,NA,NA,NA,NA,NA,NA,NA,NA
3013,"""Richtig""-Screen",canvas.Screen,3_0_0_0_5_1_1,NA,NA,skipped,NA,277520,NA,NA,277516,277520,2023-09-29T13:34:17Z,277518.18,NULL,Flexibilität,kubadilika,s,enjini,usikilivu,hesabu,NA,sdf,NA,0,NA,NA,NA,NA,NA,NA,NA,NA,NA,NA,NA,NA,NA,NA,NA,NA,NA,NA,NA
3013,"""Falsch""-Screen",canvas.Screen,3_0_0_0_5_1_2,NA,NA,timeout,4999.4,277523,277515.76,277518.18,282500.92,282502,2023-09-29T13:34:22Z,282517.58,NULL,Flexibilität,kubadilika,s,enjini,usikilivu,hesabu,NA,sdf,0,0,NA,NA,NA,NA,NA,NA,NA,NA,NA,NA,NA,NA,NA,NA,NA,NA,NA,NA,NA
3013,shallow,flow.Sequence,3_0_0_0_5_1,NA,NA,completion,12031.82,270456,270452.46,270469.1,282500.92,282502,2023-09-29T13:34:22Z,282517.58,NULL,Flexibilität,kubadilika,s,enjini,usikilivu,hesabu,NA,sdf,NA,0,NA,NA,NA,NA,NA,NA,NA,NA,NA,NA,NA,NA,NA,NA,NA,NA,NA,NA,NA
3013,task,flow.Sequence,3_0_0_0_5,NA,NA,completion,12031.82,270455,270452.46,270469.1,282500.92,282503,2023-09-29T13:34:22Z,282517.58,NULL,Flexibilität,kubadilika,s,enjini,usikilivu,hesabu,NA,sdf,NA,0,NA,NA,NA,NA,NA,NA,NA,NA,NA,NA,NA,NA,NA,NA,NA,NA,NA,NA,NA
3013,Deep Question,html.Page,3_0_0_0_6_0_0,NA,NA,form submission,4723.42,282503,282500.92,282517.58,287241,287242,2023-09-29T13:34:27Z,287240.26,NULL,Hoffnung,matarajio,d,NA,NA,NA,wert,NA,NA,0,NA,NA,NA,NA,NA,NA,NA,NA,NA,NA,NA,NA,NA,NA,NA,NA,NA,NA,NA
3013,"""Richtig""-Screen",canvas.Screen,3_0_0_0_6_0_1,NA,NA,skipped,NA,287244,NA,NA,287241,287244,2023-09-29T13:34:27Z,287240.26,NULL,Hoffnung,matarajio,d,NA,NA,NA,NA,sdf,NA,0,NA,NA,NA,NA,NA,NA,NA,NA,NA,NA,NA,NA,NA,NA,NA,NA,NA,NA,NA
3013,"""Falsch""-Screen",canvas.Screen,3_0_0_0_6_0_2,NA,NA,timeout,4992.7,287247,287239.86,287240.26,292216.34,292218,2023-09-29T13:34:32Z,292232.96,NULL,Hoffnung,matarajio,d,NA,NA,NA,NA,sdf,0,0,NA,NA,NA,NA,NA,NA,NA,NA,NA,NA,NA,NA,NA,NA,NA,NA,NA,NA,NA
3013,deep,flow.Sequence,3_0_0_0_6_0,NA,NA,completion,9698.76,282503,282500.92,282517.58,292216.34,292218,2023-09-29T13:34:32Z,292232.96,NULL,Hoffnung,matarajio,d,NA,NA,NA,NA,sdf,NA,0,NA,NA,NA,NA,NA,NA,NA,NA,NA,NA,NA,NA,NA,NA,NA,NA,NA,NA,NA
3013,shallow,flow.Sequence,3_0_0_0_6_1,NA,NA,skipped,NA,292218,NA,NA,292216.34,292220,2023-09-29T13:34:32Z,292232.96,NULL,Hoffnung,matarajio,d,NA,NA,NA,NA,sdf,NA,0,NA,NA,NA,NA,NA,NA,NA,NA,NA,NA,NA,NA,NA,NA,NA,NA,NA,NA,NA
3013,task,flow.Sequence,3_0_0_0_6,NA,NA,completion,9698.76,282503,282500.92,282517.58,292216.34,292220,2023-09-29T13:34:32Z,292232.96,NULL,Hoffnung,matarajio,d,NA,NA,NA,NA,sdf,NA,0,NA,NA,NA,NA,NA,NA,NA,NA,NA,NA,NA,NA,NA,NA,NA,NA,NA,NA,NA
3013,deep,flow.Sequence,3_0_0_0_7_0,NA,NA,skipped,NA,292220,NA,NA,292216.34,292221,2023-09-29T13:34:32Z,292232.96,NULL,Atmosphäre,angahewa,s,kuteseka,usahihi,kutoamini,NA,sdf,NA,0,NA,NA,NA,NA,NA,NA,NA,NA,NA,NA,NA,NA,NA,NA,NA,NA,NA,NA,NA
3013,Shallow Question,html.Page,3_0_0_0_7_1_0,NA,NA,form submission,8159.04,292221,292216.34,292232.96,300392,300392,2023-09-29T13:34:40Z,300398.56,NULL,Atmosphäre,angahewa,s,kuteseka,usahihi,kutoamini,kuteseka,NA,NA,0,NA,NA,NA,NA,NA,NA,NA,NA,NA,NA,NA,NA,NA,NA,NA,NA,NA,NA,NA
3013,"""Richtig""-Screen",canvas.Screen,3_0_0_0_7_1_1,NA,NA,skipped,NA,300401,NA,NA,300392,300401,2023-09-29T13:34:40Z,300398.56,NULL,Atmosphäre,angahewa,s,kuteseka,usahihi,kutoamini,NA,sdf,NA,0,NA,NA,NA,NA,NA,NA,NA,NA,NA,NA,NA,NA,NA,NA,NA,NA,NA,NA,NA
3013,"""Falsch""-Screen",canvas.Screen,3_0_0_0_7_1_2,NA,NA,timeout,4999.36,300404,300389.78,300398.56,305381.32,305382,2023-09-29T13:34:45Z,305397.92,NULL,Atmosphäre,angahewa,s,kuteseka,usahihi,kutoamini,NA,sdf,0,0,NA,NA,NA,NA,NA,NA,NA,NA,NA,NA,NA,NA,NA,NA,NA,NA,NA,NA,NA
3013,shallow,flow.Sequence,3_0_0_0_7_1,NA,NA,completion,13148.36,292221,292216.34,292232.96,305381.32,305385,2023-09-29T13:34:45Z,305397.92,NULL,Atmosphäre,angahewa,s,kuteseka,usahihi,kutoamini,NA,sdf,NA,0,NA,NA,NA,NA,NA,NA,NA,NA,NA,NA,NA,NA,NA,NA,NA,NA,NA,NA,NA
3013,task,flow.Sequence,3_0_0_0_7,NA,NA,completion,13148.36,292220,292216.34,292232.96,305381.32,305386,2023-09-29T13:34:45Z,305397.92,NULL,Atmosphäre,angahewa,s,kuteseka,usahihi,kutoamini,NA,sdf,NA,0,NA,NA,NA,NA,NA,NA,NA,NA,NA,NA,NA,NA,NA,NA,NA,NA,NA,NA,NA
3013,block,flow.Loop,3_0_0_0,NA,NA,completion,92488.04,212893,212892.48,212893.28,305381.32,305386,2023-09-29T13:34:45Z,305397.92,NULL,NA,NA,NA,NA,NA,NA,NA,sdf,NA,0,NA,NA,NA,NA,NA,NA,NA,NA,NA,NA,NA,NA,NA,NA,NA,NA,NA,NA,NA
3013,weiter,canvas.Screen,3_0_0_1,sdf,keypress(Space),response,2818.08,305387,305381.32,305397.92,308216,308223,2023-09-29T13:34:48Z,308270.08,NULL,NA,NA,NA,NA,NA,NA,NA,sdf,NA,0,NA,NA,NA,NA,NA,NA,NA,NA,NA,NA,NA,NA,NA,NA,NA,NA,NA,NA,NA
3013,check continue,flow.Sequence,3_0_0,NA,NA,completion,95322.72,212893,212892.48,212893.28,308216,308224,2023-09-29T13:34:48Z,308270.08,NULL,NA,NA,NA,NA,NA,NA,NA,sdf,NA,0,NA,NA,NA,NA,NA,NA,NA,NA,NA,NA,NA,NA,NA,NA,NA,NA,NA,NA,NA
3013,deep,flow.Sequence,3_0_1_0_0_0,NA,NA,skipped,NA,308269,NA,NA,308216,308269,2023-09-29T13:34:48Z,308270.08,NULL,Theorie,nadharia,s,ushungi,mkutano,uwakilishi,NA,sdfdsf,NA,1,NA,NA,NA,NA,NA,NA,NA,NA,NA,NA,NA,NA,NA,NA,NA,NA,NA,NA,NA
3013,Shallow Question,html.Page,3_0_1_0_0_1_0,NA,NA,form submission,7461.92,308269,308269.86,308270.08,315732,315732,2023-09-29T13:34:56Z,315730.82,NULL,Theorie,nadharia,s,ushungi,mkutano,uwakilishi,nadharia,NA,NA,1,NA,NA,NA,NA,NA,NA,NA,NA,NA,NA,NA,NA,NA,NA,NA,NA,NA,NA,NA
3013,"""Richtig""-Screen",canvas.Screen,3_0_1_0_0_1_1,NA,NA,timeout,4998.48,315735,315730.64,315730.82,320712.64,320714,2023-09-29T13:35:01Z,320729.3,NULL,Theorie,nadharia,s,ushungi,mkutano,uwakilishi,NA,sdfdsf,1,1,NA,NA,NA,NA,NA,NA,NA,NA,NA,NA,NA,NA,NA,NA,NA,NA,NA,NA,NA
3013,"""Falsch""-Screen",canvas.Screen,3_0_1_0_0_1_2,NA,NA,skipped,NA,320719,NA,NA,320712.64,320720,2023-09-29T13:35:01Z,320729.3,NULL,Theorie,nadharia,s,ushungi,mkutano,uwakilishi,NA,sdfdsf,NA,1,NA,NA,NA,NA,NA,NA,NA,NA,NA,NA,NA,NA,NA,NA,NA,NA,NA,NA,NA
3013,shallow,flow.Sequence,3_0_1_0_0_1,NA,NA,completion,12442.56,308269,308269.86,308270.08,320712.64,320721,2023-09-29T13:35:01Z,320729.3,NULL,Theorie,nadharia,s,ushungi,mkutano,uwakilishi,NA,sdfdsf,NA,1,NA,NA,NA,NA,NA,NA,NA,NA,NA,NA,NA,NA,NA,NA,NA,NA,NA,NA,NA
3013,task,flow.Sequence,3_0_1_0_0,NA,NA,completion,12442.56,308269,308269.86,308270.08,320712.64,320721,2023-09-29T13:35:01Z,320729.3,NULL,Theorie,nadharia,s,ushungi,mkutano,uwakilishi,NA,sdfdsf,NA,1,NA,NA,NA,NA,NA,NA,NA,NA,NA,NA,NA,NA,NA,NA,NA,NA,NA,NA,NA
3013,deep,flow.Sequence,3_0_1_0_1_0,NA,NA,skipped,NA,320722,NA,NA,320712.64,320722,2023-09-29T13:35:01Z,320729.3,NULL,Atmosphäre,angahewa,s,kuteseka,usahihi,kutoamini,NA,sdfdsf,NA,1,NA,NA,NA,NA,NA,NA,NA,NA,NA,NA,NA,NA,NA,NA,NA,NA,NA,NA,NA
3013,Shallow Question,html.Page,3_0_1_0_1_1_0,NA,NA,form submission,5211.7,320723,320712.64,320729.3,325941,325941,2023-09-29T13:35:06Z,325945.26,NULL,Atmosphäre,angahewa,s,kuteseka,usahihi,kutoamini,angahewa,NA,NA,1,NA,NA,NA,NA,NA,NA,NA,NA,NA,NA,NA,NA,NA,NA,NA,NA,NA,NA,NA
3013,"""Richtig""-Screen",canvas.Screen,3_0_1_0_1_1_1,NA,NA,timeout,4999.36,325944,325939.82,325945.26,330927.96,330930,2023-09-29T13:35:11Z,330944.62,NULL,Atmosphäre,angahewa,s,kuteseka,usahihi,kutoamini,NA,sdfdsf,1,1,NA,NA,NA,NA,NA,NA,NA,NA,NA,NA,NA,NA,NA,NA,NA,NA,NA,NA,NA
3013,"""Falsch""-Screen",canvas.Screen,3_0_1_0_1_1_2,NA,NA,skipped,NA,330936,NA,NA,330927.96,330936,2023-09-29T13:35:11Z,330944.62,NULL,Atmosphäre,angahewa,s,kuteseka,usahihi,kutoamini,NA,sdfdsf,NA,1,NA,NA,NA,NA,NA,NA,NA,NA,NA,NA,NA,NA,NA,NA,NA,NA,NA,NA,NA
3013,shallow,flow.Sequence,3_0_1_0_1_1,NA,NA,completion,10198.66,320722,320712.64,320729.3,330927.96,330936,2023-09-29T13:35:11Z,330944.62,NULL,Atmosphäre,angahewa,s,kuteseka,usahihi,kutoamini,NA,sdfdsf,NA,1,NA,NA,NA,NA,NA,NA,NA,NA,NA,NA,NA,NA,NA,NA,NA,NA,NA,NA,NA
3013,task,flow.Sequence,3_0_1_0_1,NA,NA,completion,10198.66,320722,320712.64,320729.3,330927.96,330937,2023-09-29T13:35:11Z,330944.62,NULL,Atmosphäre,angahewa,s,kuteseka,usahihi,kutoamini,NA,sdfdsf,NA,1,NA,NA,NA,NA,NA,NA,NA,NA,NA,NA,NA,NA,NA,NA,NA,NA,NA,NA,NA
3013,Deep Question,html.Page,3_0_1_0_2_0_0,NA,NA,form submission,13249.38,330937,330927.96,330944.62,344194,344194,2023-09-29T13:35:24Z,344193.7,NULL,Erneuerung,ukarabati,d,NA,NA,NA,keine ahnung,NA,NA,1,NA,NA,NA,NA,NA,NA,NA,NA,NA,NA,NA,NA,NA,NA,NA,NA,NA,NA,NA
3013,"""Richtig""-Screen",canvas.Screen,3_0_1_0_2_0_1,NA,NA,skipped,NA,344197,NA,NA,344194,344197,2023-09-29T13:35:24Z,344193.7,NULL,Erneuerung,ukarabati,d,NA,NA,NA,NA,sdfdsf,NA,1,NA,NA,NA,NA,NA,NA,NA,NA,NA,NA,NA,NA,NA,NA,NA,NA,NA,NA,NA
3013,"""Falsch""-Screen",canvas.Screen,3_0_1_0_2_0_2,NA,NA,timeout,4998.56,344199,344193.34,344193.7,349175.64,349177,2023-09-29T13:35:29Z,349192.26,NULL,Erneuerung,ukarabati,d,NA,NA,NA,NA,sdfdsf,0,1,NA,NA,NA,NA,NA,NA,NA,NA,NA,NA,NA,NA,NA,NA,NA,NA,NA,NA,NA
3013,deep,flow.Sequence,3_0_1_0_2_0,NA,NA,completion,18231.02,330937,330927.96,330944.62,349175.64,349178,2023-09-29T13:35:29Z,349192.26,NULL,Erneuerung,ukarabati,d,NA,NA,NA,NA,sdfdsf,NA,1,NA,NA,NA,NA,NA,NA,NA,NA,NA,NA,NA,NA,NA,NA,NA,NA,NA,NA,NA
3013,shallow,flow.Sequence,3_0_1_0_2_1,NA,NA,skipped,NA,349178,NA,NA,349175.64,349178,2023-09-29T13:35:29Z,349192.26,NULL,Erneuerung,ukarabati,d,NA,NA,NA,NA,sdfdsf,NA,1,NA,NA,NA,NA,NA,NA,NA,NA,NA,NA,NA,NA,NA,NA,NA,NA,NA,NA,NA
3013,task,flow.Sequence,3_0_1_0_2,NA,NA,completion,18231.02,330937,330927.96,330944.62,349175.64,349178,2023-09-29T13:35:29Z,349192.26,NULL,Erneuerung,ukarabati,d,NA,NA,NA,NA,sdfdsf,NA,1,NA,NA,NA,NA,NA,NA,NA,NA,NA,NA,NA,NA,NA,NA,NA,NA,NA,NA,NA
3013,Deep Question,html.Page,3_0_1_0_3_0_0,NA,NA,form submission,13776.74,349179,349175.64,349192.26,362969,362969,2023-09-29T13:35:43Z,362973.88,NULL,Wechsel,ugeuzaji,d,NA,NA,NA,nope,NA,NA,1,NA,NA,NA,NA,NA,NA,NA,NA,NA,NA,NA,NA,NA,NA,NA,NA,NA,NA,NA
3013,"""Richtig""-Screen",canvas.Screen,3_0_1_0_3_0_1,NA,NA,skipped,NA,362971,NA,NA,362969,362971,2023-09-29T13:35:43Z,362973.88,NULL,Wechsel,ugeuzaji,d,NA,NA,NA,NA,sdfdsf,NA,1,NA,NA,NA,NA,NA,NA,NA,NA,NA,NA,NA,NA,NA,NA,NA,NA,NA,NA,NA
3013,"""Falsch""-Screen",canvas.Screen,3_0_1_0_3_0_2,NA,NA,timeout,4999.36,362974,362967.72,362973.88,367956.62,367959,2023-09-29T13:35:48Z,367973.24,NULL,Wechsel,ugeuzaji,d,NA,NA,NA,NA,sdfdsf,0,1,NA,NA,NA,NA,NA,NA,NA,NA,NA,NA,NA,NA,NA,NA,NA,NA,NA,NA,NA
3013,deep,flow.Sequence,3_0_1_0_3_0,NA,NA,completion,18764.36,349179,349175.64,349192.26,367956.62,367959,2023-09-29T13:35:48Z,367973.24,NULL,Wechsel,ugeuzaji,d,NA,NA,NA,NA,sdfdsf,NA,1,NA,NA,NA,NA,NA,NA,NA,NA,NA,NA,NA,NA,NA,NA,NA,NA,NA,NA,NA
3013,shallow,flow.Sequence,3_0_1_0_3_1,NA,NA,skipped,NA,367959,NA,NA,367956.62,367960,2023-09-29T13:35:48Z,367973.24,NULL,Wechsel,ugeuzaji,d,NA,NA,NA,NA,sdfdsf,NA,1,NA,NA,NA,NA,NA,NA,NA,NA,NA,NA,NA,NA,NA,NA,NA,NA,NA,NA,NA
3013,task,flow.Sequence,3_0_1_0_3,NA,NA,completion,18764.36,349178,349175.64,349192.26,367956.62,367960,2023-09-29T13:35:48Z,367973.24,NULL,Wechsel,ugeuzaji,d,NA,NA,NA,NA,sdfdsf,NA,1,NA,NA,NA,NA,NA,NA,NA,NA,NA,NA,NA,NA,NA,NA,NA,NA,NA,NA,NA
3013,Deep Question,html.Page,3_0_1_0_4_0_0,NA,NA,form submission,15650.76,367960,367956.62,367973.24,383624,383624,2023-09-29T13:36:04Z,383637.82,NULL,Verpackung,ufungaji,d,NA,NA,NA,no,NA,NA,1,NA,NA,NA,NA,NA,NA,NA,NA,NA,NA,NA,NA,NA,NA,NA,NA,NA,NA,NA
3013,"""Richtig""-Screen",canvas.Screen,3_0_1_0_4_0_1,NA,NA,skipped,NA,383626,NA,NA,383624,383626,2023-09-29T13:36:04Z,383637.82,NULL,Verpackung,ufungaji,d,NA,NA,NA,NA,sdfdsf,NA,1,NA,NA,NA,NA,NA,NA,NA,NA,NA,NA,NA,NA,NA,NA,NA,NA,NA,NA,NA
3013,"""Falsch""-Screen",canvas.Screen,3_0_1_0_4_0_2,NA,NA,timeout,4999.36,383629,383623.06,383637.82,388620.6,388626,2023-09-29T13:36:09Z,388637.18,NULL,Verpackung,ufungaji,d,NA,NA,NA,NA,sdfdsf,0,1,NA,NA,NA,NA,NA,NA,NA,NA,NA,NA,NA,NA,NA,NA,NA,NA,NA,NA,NA
3013,deep,flow.Sequence,3_0_1_0_4_0,NA,NA,completion,20647.36,367960,367956.62,367973.24,388620.6,388629,2023-09-29T13:36:09Z,388637.18,NULL,Verpackung,ufungaji,d,NA,NA,NA,NA,sdfdsf,NA,1,NA,NA,NA,NA,NA,NA,NA,NA,NA,NA,NA,NA,NA,NA,NA,NA,NA,NA,NA
3013,shallow,flow.Sequence,3_0_1_0_4_1,NA,NA,skipped,NA,388631,NA,NA,388620.6,388631,2023-09-29T13:36:09Z,388637.18,NULL,Verpackung,ufungaji,d,NA,NA,NA,NA,sdfdsf,NA,1,NA,NA,NA,NA,NA,NA,NA,NA,NA,NA,NA,NA,NA,NA,NA,NA,NA,NA,NA
3013,task,flow.Sequence,3_0_1_0_4,NA,NA,completion,20647.36,367960,367956.62,367973.24,388620.6,388632,2023-09-29T13:36:09Z,388637.18,NULL,Verpackung,ufungaji,d,NA,NA,NA,NA,sdfdsf,NA,1,NA,NA,NA,NA,NA,NA,NA,NA,NA,NA,NA,NA,NA,NA,NA,NA,NA,NA,NA
3013,deep,flow.Sequence,3_0_1_0_5_0,NA,NA,skipped,NA,388633,NA,NA,388620.6,388633,2023-09-29T13:36:09Z,388637.18,NULL,Flexibilität,kubadilika,s,enjini,usikilivu,hesabu,NA,sdfdsf,NA,1,NA,NA,NA,NA,NA,NA,NA,NA,NA,NA,NA,NA,NA,NA,NA,NA,NA,NA,NA
3013,Shallow Question,html.Page,3_0_1_0_5_1_0,NA,NA,form submission,9564.82,388633,388620.6,388637.18,398202,398207,2023-09-29T13:36:18Z,398219.28,NULL,Flexibilität,kubadilika,s,enjini,usikilivu,hesabu,kubadilika,NA,NA,1,NA,NA,NA,NA,NA,NA,NA,NA,NA,NA,NA,NA,NA,NA,NA,NA,NA,NA,NA
3013,"""Richtig""-Screen",canvas.Screen,3_0_1_0_5_1_1,NA,NA,timeout,4999.4,398218,398192.42,398219.28,403202.02,403203,2023-09-29T13:36:23Z,403218.68,NULL,Flexibilität,kubadilika,s,enjini,usikilivu,hesabu,NA,sdfdsf,1,1,NA,NA,NA,NA,NA,NA,NA,NA,NA,NA,NA,NA,NA,NA,NA,NA,NA,NA,NA
3013,"""Falsch""-Screen",canvas.Screen,3_0_1_0_5_1_2,NA,NA,skipped,NA,403211,NA,NA,403202.02,403212,2023-09-29T13:36:23Z,403218.68,NULL,Flexibilität,kubadilika,s,enjini,usikilivu,hesabu,NA,sdfdsf,NA,1,NA,NA,NA,NA,NA,NA,NA,NA,NA,NA,NA,NA,NA,NA,NA,NA,NA,NA,NA
3013,shallow,flow.Sequence,3_0_1_0_5_1,NA,NA,completion,14564.84,388633,388620.6,388637.18,403202.02,403212,2023-09-29T13:36:23Z,403218.68,NULL,Flexibilität,kubadilika,s,enjini,usikilivu,hesabu,NA,sdfdsf,NA,1,NA,NA,NA,NA,NA,NA,NA,NA,NA,NA,NA,NA,NA,NA,NA,NA,NA,NA,NA
3013,task,flow.Sequence,3_0_1_0_5,NA,NA,completion,14564.84,388632,388620.6,388637.18,403202.02,403212,2023-09-29T13:36:23Z,403218.68,NULL,Flexibilität,kubadilika,s,enjini,usikilivu,hesabu,NA,sdfdsf,NA,1,NA,NA,NA,NA,NA,NA,NA,NA,NA,NA,NA,NA,NA,NA,NA,NA,NA,NA,NA
3013,deep,flow.Sequence,3_0_1_0_6_0,NA,NA,skipped,NA,403213,NA,NA,403202.02,403214,2023-09-29T13:36:23Z,403218.68,NULL,Schock,mshtuko,s,biashara,kukataza,vichekesho,NA,sdfdsf,NA,1,NA,NA,NA,NA,NA,NA,NA,NA,NA,NA,NA,NA,NA,NA,NA,NA,NA,NA,NA
3013,Shallow Question,html.Page,3_0_1_0_6_1_0,NA,NA,form submission,5296.32,403215,403202.02,403218.68,408515,408516,2023-09-29T13:36:28Z,408518.02,NULL,Schock,mshtuko,s,biashara,kukataza,vichekesho,mshtuko,NA,NA,1,NA,NA,NA,NA,NA,NA,NA,NA,NA,NA,NA,NA,NA,NA,NA,NA,NA,NA,NA
3013,"""Richtig""-Screen",canvas.Screen,3_0_1_0_6_1_1,NA,NA,timeout,4999.34,408522,408508.88,408518.02,413500.72,413502,2023-09-29T13:36:33Z,413517.36,NULL,Schock,mshtuko,s,biashara,kukataza,vichekesho,NA,sdfdsf,1,1,NA,NA,NA,NA,NA,NA,NA,NA,NA,NA,NA,NA,NA,NA,NA,NA,NA,NA,NA
3013,"""Falsch""-Screen",canvas.Screen,3_0_1_0_6_1_2,NA,NA,skipped,NA,413510,NA,NA,413500.72,413510,2023-09-29T13:36:33Z,413517.36,NULL,Schock,mshtuko,s,biashara,kukataza,vichekesho,NA,sdfdsf,NA,1,NA,NA,NA,NA,NA,NA,NA,NA,NA,NA,NA,NA,NA,NA,NA,NA,NA,NA,NA
3013,shallow,flow.Sequence,3_0_1_0_6_1,NA,NA,completion,10282.04,403214,403202.02,403218.68,413500.72,413510,2023-09-29T13:36:33Z,413517.36,NULL,Schock,mshtuko,s,biashara,kukataza,vichekesho,NA,sdfdsf,NA,1,NA,NA,NA,NA,NA,NA,NA,NA,NA,NA,NA,NA,NA,NA,NA,NA,NA,NA,NA
3013,task,flow.Sequence,3_0_1_0_6,NA,NA,completion,10282.04,403212,403202.02,403218.68,413500.72,413511,2023-09-29T13:36:33Z,413517.36,NULL,Schock,mshtuko,s,biashara,kukataza,vichekesho,NA,sdfdsf,NA,1,NA,NA,NA,NA,NA,NA,NA,NA,NA,NA,NA,NA,NA,NA,NA,NA,NA,NA,NA
3013,Deep Question,html.Page,3_0_1_0_7_0_0,NA,NA,form submission,13621.64,413511,413500.72,413517.36,427139,427139,2023-09-29T13:36:47Z,427148.58,NULL,Hoffnung,matarajio,d,NA,NA,NA,no,NA,NA,1,NA,NA,NA,NA,NA,NA,NA,NA,NA,NA,NA,NA,NA,NA,NA,NA,NA,NA,NA
3013,"""Richtig""-Screen",canvas.Screen,3_0_1_0_7_0_1,NA,NA,skipped,NA,427142,NA,NA,427139,427142,2023-09-29T13:36:47Z,427148.58,NULL,Hoffnung,matarajio,d,NA,NA,NA,NA,sdfdsf,NA,1,NA,NA,NA,NA,NA,NA,NA,NA,NA,NA,NA,NA,NA,NA,NA,NA,NA,NA,NA
3013,"""Falsch""-Screen",canvas.Screen,3_0_1_0_7_0_2,NA,NA,timeout,4999.7,427145,427138.14,427148.58,432131.62,432132,2023-09-29T13:36:52Z,432148.28,NULL,Hoffnung,matarajio,d,NA,NA,NA,NA,sdfdsf,0,1,NA,NA,NA,NA,NA,NA,NA,NA,NA,NA,NA,NA,NA,NA,NA,NA,NA,NA,NA
3013,deep,flow.Sequence,3_0_1_0_7_0,NA,NA,completion,18614.26,413511,413500.72,413517.36,432131.62,432133,2023-09-29T13:36:52Z,432148.28,NULL,Hoffnung,matarajio,d,NA,NA,NA,NA,sdfdsf,NA,1,NA,NA,NA,NA,NA,NA,NA,NA,NA,NA,NA,NA,NA,NA,NA,NA,NA,NA,NA
3013,shallow,flow.Sequence,3_0_1_0_7_1,NA,NA,skipped,NA,432133,NA,NA,432131.62,432134,2023-09-29T13:36:52Z,432148.28,NULL,Hoffnung,matarajio,d,NA,NA,NA,NA,sdfdsf,NA,1,NA,NA,NA,NA,NA,NA,NA,NA,NA,NA,NA,NA,NA,NA,NA,NA,NA,NA,NA
3013,task,flow.Sequence,3_0_1_0_7,NA,NA,completion,18614.26,413511,413500.72,413517.36,432131.62,432134,2023-09-29T13:36:52Z,432148.28,NULL,Hoffnung,matarajio,d,NA,NA,NA,NA,sdfdsf,NA,1,NA,NA,NA,NA,NA,NA,NA,NA,NA,NA,NA,NA,NA,NA,NA,NA,NA,NA,NA
3013,block,flow.Loop,3_0_1_0,NA,NA,completion,123861.54,308269,308269.86,308270.08,432131.62,432135,2023-09-29T13:36:52Z,432148.28,NULL,NA,NA,NA,NA,NA,NA,NA,sdfdsf,NA,1,NA,NA,NA,NA,NA,NA,NA,NA,NA,NA,NA,NA,NA,NA,NA,NA,NA,NA,NA
3013,weiter,canvas.Screen,3_0_1_1,sdf,keypress(Space),response,1895.72,432136,432131.62,432148.28,434044,434056,2023-09-29T13:36:54Z,434122.26,NULL,NA,NA,NA,NA,NA,NA,NA,sdfdsf,NA,1,NA,NA,NA,NA,NA,NA,NA,NA,NA,NA,NA,NA,NA,NA,NA,NA,NA,NA,NA
3013,check continue,flow.Sequence,3_0_1,NA,NA,completion,125773.92,308269,308269.86,308270.08,434044,434057,2023-09-29T13:36:54Z,434122.26,NULL,NA,NA,NA,NA,NA,NA,NA,sdfdsf,NA,1,NA,NA,NA,NA,NA,NA,NA,NA,NA,NA,NA,NA,NA,NA,NA,NA,NA,NA,NA
3013,Deep Question,html.Page,3_0_2_0_0_0_0,NA,NA,form submission,6030.74,434122,434121.98,434122.26,440153,440153,2023-09-29T13:37:00Z,440163.92,NULL,Erneuerung,ukarabati,d,NA,NA,NA,ukarabati,NA,NA,2,NA,NA,NA,NA,NA,NA,NA,NA,NA,NA,NA,NA,NA,NA,NA,NA,NA,NA,NA
3013,"""Richtig""-Screen",canvas.Screen,3_0_2_0_0_0_1,NA,NA,timeout,4999.34,440155,440151.36,440163.92,445146.7,445147,2023-09-29T13:37:05Z,445163.26,NULL,Erneuerung,ukarabati,d,NA,NA,NA,NA,sdf,1,2,NA,NA,NA,NA,NA,NA,NA,NA,NA,NA,NA,NA,NA,NA,NA,NA,NA,NA,NA
3013,"""Falsch""-Screen",canvas.Screen,3_0_2_0_0_0_2,NA,NA,skipped,NA,445153,NA,NA,445146.7,445153,2023-09-29T13:37:05Z,445163.26,NULL,Erneuerung,ukarabati,d,NA,NA,NA,NA,sdf,NA,2,NA,NA,NA,NA,NA,NA,NA,NA,NA,NA,NA,NA,NA,NA,NA,NA,NA,NA,NA
3013,deep,flow.Sequence,3_0_2_0_0_0,NA,NA,completion,11024.44,434122,434121.98,434122.26,445146.7,445154,2023-09-29T13:37:05Z,445163.26,NULL,Erneuerung,ukarabati,d,NA,NA,NA,NA,sdf,NA,2,NA,NA,NA,NA,NA,NA,NA,NA,NA,NA,NA,NA,NA,NA,NA,NA,NA,NA,NA
3013,shallow,flow.Sequence,3_0_2_0_0_1,NA,NA,skipped,NA,445154,NA,NA,445146.7,445154,2023-09-29T13:37:05Z,445163.26,NULL,Erneuerung,ukarabati,d,NA,NA,NA,NA,sdf,NA,2,NA,NA,NA,NA,NA,NA,NA,NA,NA,NA,NA,NA,NA,NA,NA,NA,NA,NA,NA
3013,task,flow.Sequence,3_0_2_0_0,NA,NA,completion,11024.44,434122,434121.98,434122.26,445146.7,445154,2023-09-29T13:37:05Z,445163.26,NULL,Erneuerung,ukarabati,d,NA,NA,NA,NA,sdf,NA,2,NA,NA,NA,NA,NA,NA,NA,NA,NA,NA,NA,NA,NA,NA,NA,NA,NA,NA,NA
3013,deep,flow.Sequence,3_0_2_0_1_0,NA,NA,skipped,NA,445154,NA,NA,445146.7,445154,2023-09-29T13:37:05Z,445163.26,NULL,Theorie,nadharia,s,ushungi,mkutano,uwakilishi,NA,sdf,NA,2,NA,NA,NA,NA,NA,NA,NA,NA,NA,NA,NA,NA,NA,NA,NA,NA,NA,NA,NA
3013,Shallow Question,html.Page,3_0_2_0_1_1_0,NA,NA,form submission,5432.74,445155,445146.7,445163.26,450596,450597,2023-09-29T13:37:11Z,450596.04,NULL,Theorie,nadharia,s,ushungi,mkutano,uwakilishi,nadharia,NA,NA,2,NA,NA,NA,NA,NA,NA,NA,NA,NA,NA,NA,NA,NA,NA,NA,NA,NA,NA,NA
3013,"""Richtig""-Screen",canvas.Screen,3_0_2_0_1_1_1,NA,NA,timeout,4999.22,450604,450594.88,450596.04,455578.6,455581,2023-09-29T13:37:15Z,455595.26,NULL,Theorie,nadharia,s,ushungi,mkutano,uwakilishi,NA,sdf,1,2,NA,NA,NA,NA,NA,NA,NA,NA,NA,NA,NA,NA,NA,NA,NA,NA,NA,NA,NA
3013,"""Falsch""-Screen",canvas.Screen,3_0_2_0_1_1_2,NA,NA,skipped,NA,455588,NA,NA,455578.6,455589,2023-09-29T13:37:15Z,455595.26,NULL,Theorie,nadharia,s,ushungi,mkutano,uwakilishi,NA,sdf,NA,2,NA,NA,NA,NA,NA,NA,NA,NA,NA,NA,NA,NA,NA,NA,NA,NA,NA,NA,NA
3013,shallow,flow.Sequence,3_0_2_0_1_1,NA,NA,completion,10415.34,445155,445146.7,445163.26,455578.6,455590,2023-09-29T13:37:15Z,455595.26,NULL,Theorie,nadharia,s,ushungi,mkutano,uwakilishi,NA,sdf,NA,2,NA,NA,NA,NA,NA,NA,NA,NA,NA,NA,NA,NA,NA,NA,NA,NA,NA,NA,NA
3013,task,flow.Sequence,3_0_2_0_1,NA,NA,completion,10415.34,445154,445146.7,445163.26,455578.6,455590,2023-09-29T13:37:15Z,455595.26,NULL,Theorie,nadharia,s,ushungi,mkutano,uwakilishi,NA,sdf,NA,2,NA,NA,NA,NA,NA,NA,NA,NA,NA,NA,NA,NA,NA,NA,NA,NA,NA,NA,NA
3013,deep,flow.Sequence,3_0_2_0_2_0,NA,NA,skipped,NA,455591,NA,NA,455578.6,455591,2023-09-29T13:37:15Z,455595.26,NULL,Atmosphäre,angahewa,s,kuteseka,usahihi,kutoamini,NA,sdf,NA,2,NA,NA,NA,NA,NA,NA,NA,NA,NA,NA,NA,NA,NA,NA,NA,NA,NA,NA,NA
3013,Shallow Question,html.Page,3_0_2_0_2_1_0,NA,NA,form submission,7145.74,455592,455578.6,455595.26,462741,462742,2023-09-29T13:37:23Z,462744.36,NULL,Atmosphäre,angahewa,s,kuteseka,usahihi,kutoamini,angahewa,NA,NA,2,NA,NA,NA,NA,NA,NA,NA,NA,NA,NA,NA,NA,NA,NA,NA,NA,NA,NA,NA
3013,"""Richtig""-Screen",canvas.Screen,3_0_2_0_2_1_1,NA,NA,timeout,4999.3,462745,462740.34,462744.36,467727,467728,2023-09-29T13:37:28Z,467743.66,NULL,Atmosphäre,angahewa,s,kuteseka,usahihi,kutoamini,NA,sdf,1,2,NA,NA,NA,NA,NA,NA,NA,NA,NA,NA,NA,NA,NA,NA,NA,NA,NA,NA,NA
3013,"""Falsch""-Screen",canvas.Screen,3_0_2_0_2_1_2,NA,NA,skipped,NA,467735,NA,NA,467727,467736,2023-09-29T13:37:28Z,467743.66,NULL,Atmosphäre,angahewa,s,kuteseka,usahihi,kutoamini,NA,sdf,NA,2,NA,NA,NA,NA,NA,NA,NA,NA,NA,NA,NA,NA,NA,NA,NA,NA,NA,NA,NA
3013,shallow,flow.Sequence,3_0_2_0_2_1,NA,NA,completion,12131.74,455591,455578.6,455595.26,467727,467736,2023-09-29T13:37:28Z,467743.66,NULL,Atmosphäre,angahewa,s,kuteseka,usahihi,kutoamini,NA,sdf,NA,2,NA,NA,NA,NA,NA,NA,NA,NA,NA,NA,NA,NA,NA,NA,NA,NA,NA,NA,NA
3013,task,flow.Sequence,3_0_2_0_2,NA,NA,completion,12131.74,455590,455578.6,455595.26,467727,467738,2023-09-29T13:37:28Z,467743.66,NULL,Atmosphäre,angahewa,s,kuteseka,usahihi,kutoamini,NA,sdf,NA,2,NA,NA,NA,NA,NA,NA,NA,NA,NA,NA,NA,NA,NA,NA,NA,NA,NA,NA,NA
3013,Deep Question,html.Page,3_0_2_0_3_0_0,NA,NA,form submission,8767.34,467739,467727,467743.66,476511,476511,2023-09-29T13:37:36Z,476525.48,NULL,Verpackung,ufungaji,d,NA,NA,NA,nope,NA,NA,2,NA,NA,NA,NA,NA,NA,NA,NA,NA,NA,NA,NA,NA,NA,NA,NA,NA,NA,NA
3013,"""Richtig""-Screen",canvas.Screen,3_0_2_0_3_0_1,NA,NA,skipped,NA,476514,NA,NA,476511,476514,2023-09-29T13:37:36Z,476525.48,NULL,Verpackung,ufungaji,d,NA,NA,NA,NA,sdf,NA,2,NA,NA,NA,NA,NA,NA,NA,NA,NA,NA,NA,NA,NA,NA,NA,NA,NA,NA,NA
3013,"""Falsch""-Screen",canvas.Screen,3_0_2_0_3_0_2,NA,NA,timeout,4999.8,476517,476509.24,476525.48,481508.64,481510,2023-09-29T13:37:41Z,481525.28,NULL,Verpackung,ufungaji,d,NA,NA,NA,NA,sdf,0,2,NA,NA,NA,NA,NA,NA,NA,NA,NA,NA,NA,NA,NA,NA,NA,NA,NA,NA,NA
3013,deep,flow.Sequence,3_0_2_0_3_0,NA,NA,completion,13764.98,467739,467727,467743.66,481508.64,481511,2023-09-29T13:37:41Z,481525.28,NULL,Verpackung,ufungaji,d,NA,NA,NA,NA,sdf,NA,2,NA,NA,NA,NA,NA,NA,NA,NA,NA,NA,NA,NA,NA,NA,NA,NA,NA,NA,NA
3013,shallow,flow.Sequence,3_0_2_0_3_1,NA,NA,skipped,NA,481512,NA,NA,481508.64,481512,2023-09-29T13:37:41Z,481525.28,NULL,Verpackung,ufungaji,d,NA,NA,NA,NA,sdf,NA,2,NA,NA,NA,NA,NA,NA,NA,NA,NA,NA,NA,NA,NA,NA,NA,NA,NA,NA,NA
3013,task,flow.Sequence,3_0_2_0_3,NA,NA,completion,13764.98,467739,467727,467743.66,481508.64,481513,2023-09-29T13:37:41Z,481525.28,NULL,Verpackung,ufungaji,d,NA,NA,NA,NA,sdf,NA,2,NA,NA,NA,NA,NA,NA,NA,NA,NA,NA,NA,NA,NA,NA,NA,NA,NA,NA,NA
3013,deep,flow.Sequence,3_0_2_0_4_0,NA,NA,skipped,NA,481513,NA,NA,481508.64,481514,2023-09-29T13:37:41Z,481525.28,NULL,Flexibilität,kubadilika,s,enjini,usikilivu,hesabu,NA,sdf,NA,2,NA,NA,NA,NA,NA,NA,NA,NA,NA,NA,NA,NA,NA,NA,NA,NA,NA,NA,NA
3013,Shallow Question,html.Page,3_0_2_0_4_1_0,NA,NA,form submission,8913.72,481514,481508.64,481525.28,490439,490439,2023-09-29T13:37:50Z,490440.7,NULL,Flexibilität,kubadilika,s,enjini,usikilivu,hesabu,kubadilika,NA,NA,2,NA,NA,NA,NA,NA,NA,NA,NA,NA,NA,NA,NA,NA,NA,NA,NA,NA,NA,NA
3013,"""Richtig""-Screen",canvas.Screen,3_0_2_0_4_1_1,NA,NA,timeout,4999.42,490440,490437.4,490440.7,495423.48,495425,2023-09-29T13:37:55Z,495440.12,NULL,Flexibilität,kubadilika,s,enjini,usikilivu,hesabu,NA,sdf,1,2,NA,NA,NA,NA,NA,NA,NA,NA,NA,NA,NA,NA,NA,NA,NA,NA,NA,NA,NA
3013,"""Falsch""-Screen",canvas.Screen,3_0_2_0_4_1_2,NA,NA,skipped,NA,495431,NA,NA,495423.48,495431,2023-09-29T13:37:55Z,495440.12,NULL,Flexibilität,kubadilika,s,enjini,usikilivu,hesabu,NA,sdf,NA,2,NA,NA,NA,NA,NA,NA,NA,NA,NA,NA,NA,NA,NA,NA,NA,NA,NA,NA,NA
3013,shallow,flow.Sequence,3_0_2_0_4_1,NA,NA,completion,13898.2,481514,481508.64,481525.28,495423.48,495432,2023-09-29T13:37:55Z,495440.12,NULL,Flexibilität,kubadilika,s,enjini,usikilivu,hesabu,NA,sdf,NA,2,NA,NA,NA,NA,NA,NA,NA,NA,NA,NA,NA,NA,NA,NA,NA,NA,NA,NA,NA
3013,task,flow.Sequence,3_0_2_0_4,NA,NA,completion,13898.2,481513,481508.64,481525.28,495423.48,495432,2023-09-29T13:37:55Z,495440.12,NULL,Flexibilität,kubadilika,s,enjini,usikilivu,hesabu,NA,sdf,NA,2,NA,NA,NA,NA,NA,NA,NA,NA,NA,NA,NA,NA,NA,NA,NA,NA,NA,NA,NA
3013,Deep Question,html.Page,3_0_2_0_5_0_0,NA,NA,form submission,6150.88,495433,495423.48,495440.12,501591,501591,2023-09-29T13:38:01Z,501589.86,NULL,Hoffnung,matarajio,d,NA,NA,NA,nope,NA,NA,2,NA,NA,NA,NA,NA,NA,NA,NA,NA,NA,NA,NA,NA,NA,NA,NA,NA,NA,NA
3013,"""Richtig""-Screen",canvas.Screen,3_0_2_0_5_0_1,NA,NA,skipped,NA,501594,NA,NA,501591,501594,2023-09-29T13:38:02Z,501589.86,NULL,Hoffnung,matarajio,d,NA,NA,NA,NA,sdf,NA,2,NA,NA,NA,NA,NA,NA,NA,NA,NA,NA,NA,NA,NA,NA,NA,NA,NA,NA,NA
3013,"""Falsch""-Screen",canvas.Screen,3_0_2_0_5_0_2,NA,NA,timeout,4998.56,501596,501589.6,501589.86,506571.76,506573,2023-09-29T13:38:06Z,506588.42,NULL,Hoffnung,matarajio,d,NA,NA,NA,NA,sdf,0,2,NA,NA,NA,NA,NA,NA,NA,NA,NA,NA,NA,NA,NA,NA,NA,NA,NA,NA,NA
3013,deep,flow.Sequence,3_0_2_0_5_0,NA,NA,completion,11131.64,495433,495423.48,495440.12,506571.76,506574,2023-09-29T13:38:06Z,506588.42,NULL,Hoffnung,matarajio,d,NA,NA,NA,NA,sdf,NA,2,NA,NA,NA,NA,NA,NA,NA,NA,NA,NA,NA,NA,NA,NA,NA,NA,NA,NA,NA
3013,shallow,flow.Sequence,3_0_2_0_5_1,NA,NA,skipped,NA,506575,NA,NA,506571.76,506575,2023-09-29T13:38:06Z,506588.42,NULL,Hoffnung,matarajio,d,NA,NA,NA,NA,sdf,NA,2,NA,NA,NA,NA,NA,NA,NA,NA,NA,NA,NA,NA,NA,NA,NA,NA,NA,NA,NA
3013,task,flow.Sequence,3_0_2_0_5,NA,NA,completion,11131.64,495432,495423.48,495440.12,506571.76,506578,2023-09-29T13:38:06Z,506588.42,NULL,Hoffnung,matarajio,d,NA,NA,NA,NA,sdf,NA,2,NA,NA,NA,NA,NA,NA,NA,NA,NA,NA,NA,NA,NA,NA,NA,NA,NA,NA,NA
3013,Deep Question,html.Page,3_0_2_0_6_0_0,NA,NA,form submission,6641.58,506579,506571.76,506588.42,513230,513230,2023-09-29T13:38:13Z,513237.8,NULL,Wechsel,ugeuzaji,d,NA,NA,NA,nope,NA,NA,2,NA,NA,NA,NA,NA,NA,NA,NA,NA,NA,NA,NA,NA,NA,NA,NA,NA,NA,NA
3013,"""Richtig""-Screen",canvas.Screen,3_0_2_0_6_0_1,NA,NA,skipped,NA,513233,NA,NA,513230,513233,2023-09-29T13:38:13Z,513237.8,NULL,Wechsel,ugeuzaji,d,NA,NA,NA,NA,sdf,NA,2,NA,NA,NA,NA,NA,NA,NA,NA,NA,NA,NA,NA,NA,NA,NA,NA,NA,NA,NA
3013,"""Falsch""-Screen",canvas.Screen,3_0_2_0_6_0_2,NA,NA,timeout,4999.32,513236,513229.12,513237.8,518220.46,518221,2023-09-29T13:38:18Z,518237.12,NULL,Wechsel,ugeuzaji,d,NA,NA,NA,NA,sdf,0,2,NA,NA,NA,NA,NA,NA,NA,NA,NA,NA,NA,NA,NA,NA,NA,NA,NA,NA,NA
3013,deep,flow.Sequence,3_0_2_0_6_0,NA,NA,completion,11632.04,506579,506571.76,506588.42,518220.46,518222,2023-09-29T13:38:18Z,518237.12,NULL,Wechsel,ugeuzaji,d,NA,NA,NA,NA,sdf,NA,2,NA,NA,NA,NA,NA,NA,NA,NA,NA,NA,NA,NA,NA,NA,NA,NA,NA,NA,NA
3013,shallow,flow.Sequence,3_0_2_0_6_1,NA,NA,skipped,NA,518222,NA,NA,518220.46,518222,2023-09-29T13:38:18Z,518237.12,NULL,Wechsel,ugeuzaji,d,NA,NA,NA,NA,sdf,NA,2,NA,NA,NA,NA,NA,NA,NA,NA,NA,NA,NA,NA,NA,NA,NA,NA,NA,NA,NA
3013,task,flow.Sequence,3_0_2_0_6,NA,NA,completion,11632.04,506578,506571.76,506588.42,518220.46,518222,2023-09-29T13:38:18Z,518237.12,NULL,Wechsel,ugeuzaji,d,NA,NA,NA,NA,sdf,NA,2,NA,NA,NA,NA,NA,NA,NA,NA,NA,NA,NA,NA,NA,NA,NA,NA,NA,NA,NA
3013,deep,flow.Sequence,3_0_2_0_7_0,NA,NA,skipped,NA,518222,NA,NA,518220.46,518222,2023-09-29T13:38:18Z,518237.12,NULL,Schock,mshtuko,s,biashara,kukataza,vichekesho,NA,sdf,NA,2,NA,NA,NA,NA,NA,NA,NA,NA,NA,NA,NA,NA,NA,NA,NA,NA,NA,NA,NA
3013,Shallow Question,html.Page,3_0_2_0_7_1_0,NA,NA,form submission,4395.88,518222,518220.46,518237.12,522633,522633,2023-09-29T13:38:23Z,522636.62,NULL,Schock,mshtuko,s,biashara,kukataza,vichekesho,mshtuko,NA,NA,2,NA,NA,NA,NA,NA,NA,NA,NA,NA,NA,NA,NA,NA,NA,NA,NA,NA,NA,NA
3013,"""Richtig""-Screen",canvas.Screen,3_0_2_0_7_1_1,NA,NA,timeout,4999.42,522636,522631.8,522636.62,527619.38,527621,2023-09-29T13:38:28Z,527636.04,NULL,Schock,mshtuko,s,biashara,kukataza,vichekesho,NA,sdf,1,2,NA,NA,NA,NA,NA,NA,NA,NA,NA,NA,NA,NA,NA,NA,NA,NA,NA,NA,NA
3013,"""Falsch""-Screen",canvas.Screen,3_0_2_0_7_1_2,NA,NA,skipped,NA,527626,NA,NA,527619.38,527627,2023-09-29T13:38:28Z,527636.04,NULL,Schock,mshtuko,s,biashara,kukataza,vichekesho,NA,sdf,NA,2,NA,NA,NA,NA,NA,NA,NA,NA,NA,NA,NA,NA,NA,NA,NA,NA,NA,NA,NA
3013,shallow,flow.Sequence,3_0_2_0_7_1,NA,NA,completion,9382.26,518222,518220.46,518237.12,527619.38,527627,2023-09-29T13:38:28Z,527636.04,NULL,Schock,mshtuko,s,biashara,kukataza,vichekesho,NA,sdf,NA,2,NA,NA,NA,NA,NA,NA,NA,NA,NA,NA,NA,NA,NA,NA,NA,NA,NA,NA,NA
3013,task,flow.Sequence,3_0_2_0_7,NA,NA,completion,9382.26,518222,518220.46,518237.12,527619.38,527628,2023-09-29T13:38:28Z,527636.04,NULL,Schock,mshtuko,s,biashara,kukataza,vichekesho,NA,sdf,NA,2,NA,NA,NA,NA,NA,NA,NA,NA,NA,NA,NA,NA,NA,NA,NA,NA,NA,NA,NA
3013,block,flow.Loop,3_0_2_0,NA,NA,completion,93497.12,434122,434121.98,434122.26,527619.38,527628,2023-09-29T13:38:28Z,527636.04,NULL,NA,NA,NA,NA,NA,NA,NA,sdf,NA,2,NA,NA,NA,NA,NA,NA,NA,NA,NA,NA,NA,NA,NA,NA,NA,NA,NA,NA,NA
3013,weiter,canvas.Screen,3_0_2_1,sdf,keypress(Space),response,1110.96,527628,527619.38,527636.04,528747,528758,2023-09-29T13:38:29Z,528826.32,NULL,NA,NA,NA,NA,NA,NA,NA,sdf,NA,2,NA,NA,NA,NA,NA,NA,NA,NA,NA,NA,NA,NA,NA,NA,NA,NA,NA,NA,NA
3013,check continue,flow.Sequence,3_0_2,NA,NA,completion,94624.74,434122,434121.98,434122.26,528747,528759,2023-09-29T13:38:29Z,528826.32,NULL,NA,NA,NA,NA,NA,NA,NA,sdf,NA,2,NA,NA,NA,NA,NA,NA,NA,NA,NA,NA,NA,NA,NA,NA,NA,NA,NA,NA,NA
3013,deep,flow.Sequence,3_0_3_0_0_0,NA,NA,skipped,NA,528826,NA,NA,528747,528826,2023-09-29T13:38:29Z,528826.32,NULL,Theorie,nadharia,s,ushungi,mkutano,uwakilishi,NA,qt,NA,3,NA,NA,NA,NA,NA,NA,NA,NA,NA,NA,NA,NA,NA,NA,NA,NA,NA,NA,NA
3013,Shallow Question,html.Page,3_0_3_0_0_1_0,NA,NA,form submission,6224.6800000001,528826,528826.2,528826.32,535051,535051,2023-09-29T13:38:35Z,535051.72,NULL,Theorie,nadharia,s,ushungi,mkutano,uwakilishi,nadharia,NA,NA,3,NA,NA,NA,NA,NA,NA,NA,NA,NA,NA,NA,NA,NA,NA,NA,NA,NA,NA,NA
3013,"""Richtig""-Screen",canvas.Screen,3_0_3_0_0_1_1,NA,NA,timeout,4999.3,535054,535049.96,535051.72,540034.36,540040,2023-09-29T13:38:40Z,540051.02,NULL,Theorie,nadharia,s,ushungi,mkutano,uwakilishi,NA,qt,1,3,NA,NA,NA,NA,NA,NA,NA,NA,NA,NA,NA,NA,NA,NA,NA,NA,NA,NA,NA
3013,"""Falsch""-Screen",canvas.Screen,3_0_3_0_0_1_2,NA,NA,skipped,NA,540056,NA,NA,540034.36,540056,2023-09-29T13:38:40Z,540051.02,NULL,Theorie,nadharia,s,ushungi,mkutano,uwakilishi,NA,qt,NA,3,NA,NA,NA,NA,NA,NA,NA,NA,NA,NA,NA,NA,NA,NA,NA,NA,NA,NA,NA
3013,shallow,flow.Sequence,3_0_3_0_0_1,NA,NA,completion,11208.04,528826,528826.2,528826.32,540034.36,540057,2023-09-29T13:38:40Z,540051.02,NULL,Theorie,nadharia,s,ushungi,mkutano,uwakilishi,NA,qt,NA,3,NA,NA,NA,NA,NA,NA,NA,NA,NA,NA,NA,NA,NA,NA,NA,NA,NA,NA,NA
3013,task,flow.Sequence,3_0_3_0_0,NA,NA,completion,11208.04,528826,528826.2,528826.32,540034.36,540057,2023-09-29T13:38:40Z,540051.02,NULL,Theorie,nadharia,s,ushungi,mkutano,uwakilishi,NA,qt,NA,3,NA,NA,NA,NA,NA,NA,NA,NA,NA,NA,NA,NA,NA,NA,NA,NA,NA,NA,NA
3013,Deep Question,html.Page,3_0_3_0_1_0_0,NA,NA,form submission,4776.98,540057,540034.36,540051.02,544828,544829,2023-09-29T13:38:45Z,544833.76,NULL,Hoffnung,matarajio,d,NA,NA,NA,nope,NA,NA,3,NA,NA,NA,NA,NA,NA,NA,NA,NA,NA,NA,NA,NA,NA,NA,NA,NA,NA,NA
3013,"""Richtig""-Screen",canvas.Screen,3_0_3_0_1_0_1,NA,NA,skipped,NA,544832,NA,NA,544828,544832,2023-09-29T13:38:45Z,544833.76,NULL,Hoffnung,matarajio,d,NA,NA,NA,NA,qt,NA,3,NA,NA,NA,NA,NA,NA,NA,NA,NA,NA,NA,NA,NA,NA,NA,NA,NA,NA,NA
3013,"""Falsch""-Screen",canvas.Screen,3_0_3_0_1_0_2,NA,NA,timeout,4999.42,544836,544827.54,544833.76,549816.52,549818,2023-09-29T13:38:50Z,549833.18,NULL,Hoffnung,matarajio,d,NA,NA,NA,NA,qt,0,3,NA,NA,NA,NA,NA,NA,NA,NA,NA,NA,NA,NA,NA,NA,NA,NA,NA,NA,NA
3013,deep,flow.Sequence,3_0_3_0_1_0,NA,NA,completion,9765.5,540057,540034.36,540051.02,549816.52,549819,2023-09-29T13:38:50Z,549833.18,NULL,Hoffnung,matarajio,d,NA,NA,NA,NA,qt,NA,3,NA,NA,NA,NA,NA,NA,NA,NA,NA,NA,NA,NA,NA,NA,NA,NA,NA,NA,NA
3013,shallow,flow.Sequence,3_0_3_0_1_1,NA,NA,skipped,NA,549819,NA,NA,549816.52,549820,2023-09-29T13:38:50Z,549833.18,NULL,Hoffnung,matarajio,d,NA,NA,NA,NA,qt,NA,3,NA,NA,NA,NA,NA,NA,NA,NA,NA,NA,NA,NA,NA,NA,NA,NA,NA,NA,NA
3013,task,flow.Sequence,3_0_3_0_1,NA,NA,completion,9765.5,540057,540034.36,540051.02,549816.52,549820,2023-09-29T13:38:50Z,549833.18,NULL,Hoffnung,matarajio,d,NA,NA,NA,NA,qt,NA,3,NA,NA,NA,NA,NA,NA,NA,NA,NA,NA,NA,NA,NA,NA,NA,NA,NA,NA,NA
3013,Deep Question,html.Page,3_0_3_0_2_0_0,NA,NA,form submission,19031.82,549822,549816.52,549833.18,568865,568866,2023-09-29T13:39:09Z,568863.92,NULL,Erneuerung,ukarabati,d,NA,NA,NA,nope,NA,NA,3,NA,NA,NA,NA,NA,NA,NA,NA,NA,NA,NA,NA,NA,NA,NA,NA,NA,NA,NA
3013,"""Richtig""-Screen",canvas.Screen,3_0_3_0_2_0_1,NA,NA,skipped,NA,568868,NA,NA,568865,568869,2023-09-29T13:39:09Z,568863.92,NULL,Erneuerung,ukarabati,d,NA,NA,NA,NA,qt,NA,3,NA,NA,NA,NA,NA,NA,NA,NA,NA,NA,NA,NA,NA,NA,NA,NA,NA,NA,NA
3013,"""Falsch""-Screen",canvas.Screen,3_0_3_0_2_0_2,NA,NA,timeout,4999.48,568872,568863.42,568863.92,573846.76,573849,2023-09-29T13:39:14Z,573863.4,NULL,Erneuerung,ukarabati,d,NA,NA,NA,NA,qt,0,3,NA,NA,NA,NA,NA,NA,NA,NA,NA,NA,NA,NA,NA,NA,NA,NA,NA,NA,NA
3013,deep,flow.Sequence,3_0_3_0_2_0,NA,NA,completion,24013.58,549822,549816.52,549833.18,573846.76,573850,2023-09-29T13:39:14Z,573863.4,NULL,Erneuerung,ukarabati,d,NA,NA,NA,NA,qt,NA,3,NA,NA,NA,NA,NA,NA,NA,NA,NA,NA,NA,NA,NA,NA,NA,NA,NA,NA,NA
3013,shallow,flow.Sequence,3_0_3_0_2_1,NA,NA,skipped,NA,573850,NA,NA,573846.76,573850,2023-09-29T13:39:14Z,573863.4,NULL,Erneuerung,ukarabati,d,NA,NA,NA,NA,qt,NA,3,NA,NA,NA,NA,NA,NA,NA,NA,NA,NA,NA,NA,NA,NA,NA,NA,NA,NA,NA
3013,task,flow.Sequence,3_0_3_0_2,NA,NA,completion,24013.58,549822,549816.52,549833.18,573846.76,573851,2023-09-29T13:39:14Z,573863.4,NULL,Erneuerung,ukarabati,d,NA,NA,NA,NA,qt,NA,3,NA,NA,NA,NA,NA,NA,NA,NA,NA,NA,NA,NA,NA,NA,NA,NA,NA,NA,NA
3013,Deep Question,html.Page,3_0_3_0_3_0_0,NA,NA,form submission,12410.6,573851,573846.76,573863.4,586274,586275,2023-09-29T13:39:26Z,586278.44,NULL,Wechsel,ugeuzaji,d,NA,NA,NA,nope,NA,NA,3,NA,NA,NA,NA,NA,NA,NA,NA,NA,NA,NA,NA,NA,NA,NA,NA,NA,NA,NA
3013,"""Richtig""-Screen",canvas.Screen,3_0_3_0_3_0_1,NA,NA,skipped,NA,586276,NA,NA,586274,586276,2023-09-29T13:39:26Z,586278.44,NULL,Wechsel,ugeuzaji,d,NA,NA,NA,NA,qt,NA,3,NA,NA,NA,NA,NA,NA,NA,NA,NA,NA,NA,NA,NA,NA,NA,NA,NA,NA,NA
3013,"""Falsch""-Screen",canvas.Screen,3_0_3_0_3_0_2,NA,NA,timeout,4999.3400000001,586278,586272.88,586278.44,591261.12,591262,2023-09-29T13:39:31Z,591277.78,NULL,Wechsel,ugeuzaji,d,NA,NA,NA,NA,qt,0,3,NA,NA,NA,NA,NA,NA,NA,NA,NA,NA,NA,NA,NA,NA,NA,NA,NA,NA,NA
3013,deep,flow.Sequence,3_0_3_0_3_0,NA,NA,completion,17397.72,573851,573846.76,573863.4,591261.12,591262,2023-09-29T13:39:31Z,591277.78,NULL,Wechsel,ugeuzaji,d,NA,NA,NA,NA,qt,NA,3,NA,NA,NA,NA,NA,NA,NA,NA,NA,NA,NA,NA,NA,NA,NA,NA,NA,NA,NA
3013,shallow,flow.Sequence,3_0_3_0_3_1,NA,NA,skipped,NA,591263,NA,NA,591261.12,591263,2023-09-29T13:39:31Z,591277.78,NULL,Wechsel,ugeuzaji,d,NA,NA,NA,NA,qt,NA,3,NA,NA,NA,NA,NA,NA,NA,NA,NA,NA,NA,NA,NA,NA,NA,NA,NA,NA,NA
3013,task,flow.Sequence,3_0_3_0_3,NA,NA,completion,17397.72,573851,573846.76,573863.4,591261.12,591263,2023-09-29T13:39:31Z,591277.78,NULL,Wechsel,ugeuzaji,d,NA,NA,NA,NA,qt,NA,3,NA,NA,NA,NA,NA,NA,NA,NA,NA,NA,NA,NA,NA,NA,NA,NA,NA,NA,NA
3013,Deep Question,html.Page,3_0_3_0_4_0_0,NA,NA,form submission,6264.22,591264,591261.12,591277.78,597542,597544,2023-09-29T13:39:37Z,597543.68,NULL,Verpackung,ufungaji,d,NA,NA,NA,ufungaji,NA,NA,3,NA,NA,NA,NA,NA,NA,NA,NA,NA,NA,NA,NA,NA,NA,NA,NA,NA,NA,NA
3013,"""Richtig""-Screen",canvas.Screen,3_0_3_0_4_0_1,NA,NA,timeout,4999.3199999999,597551,597540.28,597543.68,602526.36,602528,2023-09-29T13:39:42Z,602543,NULL,Verpackung,ufungaji,d,NA,NA,NA,NA,qt,1,3,NA,NA,NA,NA,NA,NA,NA,NA,NA,NA,NA,NA,NA,NA,NA,NA,NA,NA,NA
3013,"""Falsch""-Screen",canvas.Screen,3_0_3_0_4_0_2,NA,NA,skipped,NA,602534,NA,NA,602526.36,602535,2023-09-29T13:39:42Z,602543,NULL,Verpackung,ufungaji,d,NA,NA,NA,NA,qt,NA,3,NA,NA,NA,NA,NA,NA,NA,NA,NA,NA,NA,NA,NA,NA,NA,NA,NA,NA,NA
3013,deep,flow.Sequence,3_0_3_0_4_0,NA,NA,completion,11248.58,591264,591261.12,591277.78,602526.36,602535,2023-09-29T13:39:42Z,602543,NULL,Verpackung,ufungaji,d,NA,NA,NA,NA,qt,NA,3,NA,NA,NA,NA,NA,NA,NA,NA,NA,NA,NA,NA,NA,NA,NA,NA,NA,NA,NA
3013,shallow,flow.Sequence,3_0_3_0_4_1,NA,NA,skipped,NA,602535,NA,NA,602526.36,602536,2023-09-29T13:39:42Z,602543,NULL,Verpackung,ufungaji,d,NA,NA,NA,NA,qt,NA,3,NA,NA,NA,NA,NA,NA,NA,NA,NA,NA,NA,NA,NA,NA,NA,NA,NA,NA,NA
3013,task,flow.Sequence,3_0_3_0_4,NA,NA,completion,11248.58,591264,591261.12,591277.78,602526.36,602536,2023-09-29T13:39:42Z,602543,NULL,Verpackung,ufungaji,d,NA,NA,NA,NA,qt,NA,3,NA,NA,NA,NA,NA,NA,NA,NA,NA,NA,NA,NA,NA,NA,NA,NA,NA,NA,NA
3013,deep,flow.Sequence,3_0_3_0_5_0,NA,NA,skipped,NA,602536,NA,NA,602526.36,602536,2023-09-29T13:39:42Z,602543,NULL,Atmosphäre,angahewa,s,kuteseka,usahihi,kutoamini,NA,qt,NA,3,NA,NA,NA,NA,NA,NA,NA,NA,NA,NA,NA,NA,NA,NA,NA,NA,NA,NA,NA
3013,Shallow Question,html.Page,3_0_3_0_5_1_0,NA,NA,form submission,5851,602537,602526.36,602543,608394,608394,2023-09-29T13:39:48Z,608393,NULL,Atmosphäre,angahewa,s,kuteseka,usahihi,kutoamini,angahewa,NA,NA,3,NA,NA,NA,NA,NA,NA,NA,NA,NA,NA,NA,NA,NA,NA,NA,NA,NA,NA,NA
3013,"""Richtig""-Screen",canvas.Screen,3_0_3_0_5_1_1,NA,NA,timeout,4998.64,608400,608392.62,608393,613374.98,613377,2023-09-29T13:39:53Z,613391.64,NULL,Atmosphäre,angahewa,s,kuteseka,usahihi,kutoamini,NA,qt,1,3,NA,NA,NA,NA,NA,NA,NA,NA,NA,NA,NA,NA,NA,NA,NA,NA,NA,NA,NA
3013,"""Falsch""-Screen",canvas.Screen,3_0_3_0_5_1_2,NA,NA,skipped,NA,613384,NA,NA,613374.98,613384,2023-09-29T13:39:53Z,613391.64,NULL,Atmosphäre,angahewa,s,kuteseka,usahihi,kutoamini,NA,qt,NA,3,NA,NA,NA,NA,NA,NA,NA,NA,NA,NA,NA,NA,NA,NA,NA,NA,NA,NA,NA
3013,shallow,flow.Sequence,3_0_3_0_5_1,NA,NA,completion,10831.98,602537,602526.36,602543,613374.98,613385,2023-09-29T13:39:53Z,613391.64,NULL,Atmosphäre,angahewa,s,kuteseka,usahihi,kutoamini,NA,qt,NA,3,NA,NA,NA,NA,NA,NA,NA,NA,NA,NA,NA,NA,NA,NA,NA,NA,NA,NA,NA
3013,task,flow.Sequence,3_0_3_0_5,NA,NA,completion,10831.98,602536,602526.36,602543,613374.98,613385,2023-09-29T13:39:53Z,613391.64,NULL,Atmosphäre,angahewa,s,kuteseka,usahihi,kutoamini,NA,qt,NA,3,NA,NA,NA,NA,NA,NA,NA,NA,NA,NA,NA,NA,NA,NA,NA,NA,NA,NA,NA
3013,deep,flow.Sequence,3_0_3_0_6_0,NA,NA,skipped,NA,613385,NA,NA,613374.98,613387,2023-09-29T13:39:53Z,613391.64,NULL,Flexibilität,kubadilika,s,enjini,usikilivu,hesabu,NA,qt,NA,3,NA,NA,NA,NA,NA,NA,NA,NA,NA,NA,NA,NA,NA,NA,NA,NA,NA,NA,NA
3013,Shallow Question,html.Page,3_0_3_0_6_1_0,NA,NA,form submission,14033.36,613387,613374.98,613391.64,627425,627426,2023-09-29T13:40:07Z,627424.8,NULL,Flexibilität,kubadilika,s,enjini,usikilivu,hesabu,kubadilika,NA,NA,3,NA,NA,NA,NA,NA,NA,NA,NA,NA,NA,NA,NA,NA,NA,NA,NA,NA,NA,NA
3013,"""Richtig""-Screen",canvas.Screen,3_0_3_0_6_1_1,NA,NA,timeout,4997.76,627429,627424.5,627424.8,632405.9,632408,2023-09-29T13:40:12Z,632422.56,NULL,Flexibilität,kubadilika,s,enjini,usikilivu,hesabu,NA,qt,1,3,NA,NA,NA,NA,NA,NA,NA,NA,NA,NA,NA,NA,NA,NA,NA,NA,NA,NA,NA
3013,"""Falsch""-Screen",canvas.Screen,3_0_3_0_6_1_2,NA,NA,skipped,NA,632416,NA,NA,632405.9,632416,2023-09-29T13:40:12Z,632422.56,NULL,Flexibilität,kubadilika,s,enjini,usikilivu,hesabu,NA,qt,NA,3,NA,NA,NA,NA,NA,NA,NA,NA,NA,NA,NA,NA,NA,NA,NA,NA,NA,NA,NA
3013,shallow,flow.Sequence,3_0_3_0_6_1,NA,NA,completion,19014.26,613387,613374.98,613391.64,632405.9,632416,2023-09-29T13:40:12Z,632422.56,NULL,Flexibilität,kubadilika,s,enjini,usikilivu,hesabu,NA,qt,NA,3,NA,NA,NA,NA,NA,NA,NA,NA,NA,NA,NA,NA,NA,NA,NA,NA,NA,NA,NA
3013,task,flow.Sequence,3_0_3_0_6,NA,NA,completion,19014.26,613385,613374.98,613391.64,632405.9,632417,2023-09-29T13:40:12Z,632422.56,NULL,Flexibilität,kubadilika,s,enjini,usikilivu,hesabu,NA,qt,NA,3,NA,NA,NA,NA,NA,NA,NA,NA,NA,NA,NA,NA,NA,NA,NA,NA,NA,NA,NA
3013,deep,flow.Sequence,3_0_3_0_7_0,NA,NA,skipped,NA,632418,NA,NA,632405.9,632418,2023-09-29T13:40:12Z,632422.56,NULL,Schock,mshtuko,s,biashara,kukataza,vichekesho,NA,qt,NA,3,NA,NA,NA,NA,NA,NA,NA,NA,NA,NA,NA,NA,NA,NA,NA,NA,NA,NA,NA
3013,Shallow Question,html.Page,3_0_3_0_7_1_0,NA,NA,form submission,3913.4399999999,632419,632405.9,632422.56,636336,636336,2023-09-29T13:40:16Z,636338.68,NULL,Schock,mshtuko,s,biashara,kukataza,vichekesho,mshtuko,NA,NA,3,NA,NA,NA,NA,NA,NA,NA,NA,NA,NA,NA,NA,NA,NA,NA,NA,NA,NA,NA
3013,"""Richtig""-Screen",canvas.Screen,3_0_3_0_7_1_1,NA,NA,timeout,4999.36,636339,636334.66,636338.68,641321.38,641323,2023-09-29T13:40:21Z,641338.04,NULL,Schock,mshtuko,s,biashara,kukataza,vichekesho,NA,qt,1,3,NA,NA,NA,NA,NA,NA,NA,NA,NA,NA,NA,NA,NA,NA,NA,NA,NA,NA,NA
3013,"""Falsch""-Screen",canvas.Screen,3_0_3_0_7_1_2,NA,NA,skipped,NA,641328,NA,NA,641321.38,641329,2023-09-29T13:40:21Z,641338.04,NULL,Schock,mshtuko,s,biashara,kukataza,vichekesho,NA,qt,NA,3,NA,NA,NA,NA,NA,NA,NA,NA,NA,NA,NA,NA,NA,NA,NA,NA,NA,NA,NA
3013,shallow,flow.Sequence,3_0_3_0_7_1,NA,NA,completion,8898.8199999999,632419,632405.9,632422.56,641321.38,641329,2023-09-29T13:40:21Z,641338.04,NULL,Schock,mshtuko,s,biashara,kukataza,vichekesho,NA,qt,NA,3,NA,NA,NA,NA,NA,NA,NA,NA,NA,NA,NA,NA,NA,NA,NA,NA,NA,NA,NA
3013,task,flow.Sequence,3_0_3_0_7,NA,NA,completion,8898.8199999999,632418,632405.9,632422.56,641321.38,641330,2023-09-29T13:40:21Z,641338.04,NULL,Schock,mshtuko,s,biashara,kukataza,vichekesho,NA,qt,NA,3,NA,NA,NA,NA,NA,NA,NA,NA,NA,NA,NA,NA,NA,NA,NA,NA,NA,NA,NA
3013,block,flow.Loop,3_0_3_0,NA,NA,completion,112495.06,528826,528826.2,528826.32,641321.38,641330,2023-09-29T13:40:21Z,641338.04,NULL,NA,NA,NA,NA,NA,NA,NA,qt,NA,3,NA,NA,NA,NA,NA,NA,NA,NA,NA,NA,NA,NA,NA,NA,NA,NA,NA,NA,NA
3013,weiter,canvas.Screen,3_0_3_1,sdf,keypress(Space),response,1345.96,641330,641321.38,641338.04,642684,642694,2023-09-29T13:40:23Z,642761.12,NULL,NA,NA,NA,NA,NA,NA,NA,qt,NA,3,NA,NA,NA,NA,NA,NA,NA,NA,NA,NA,NA,NA,NA,NA,NA,NA,NA,NA,NA
3013,check continue,flow.Sequence,3_0_3,NA,NA,completion,113857.68,528825,528826.2,528826.32,642684,642695,2023-09-29T13:40:23Z,642761.12,NULL,NA,NA,NA,NA,NA,NA,NA,qt,NA,3,NA,NA,NA,NA,NA,NA,NA,NA,NA,NA,NA,NA,NA,NA,NA,NA,NA,NA,NA
3013,deep,flow.Sequence,3_0_4_0_0_0,NA,NA,skipped,NA,642760,NA,NA,642684,642760,2023-09-29T13:40:23Z,642761.12,NULL,Flexibilität,kubadilika,s,enjini,usikilivu,hesabu,NA,sd,NA,4,NA,NA,NA,NA,NA,NA,NA,NA,NA,NA,NA,NA,NA,NA,NA,NA,NA,NA,NA
3013,Shallow Question,html.Page,3_0_4_0_0_1_0,NA,NA,form submission,4541.88,642760,642760.76,642761.12,647303,647304,2023-09-29T13:40:27Z,647303.92,NULL,Flexibilität,kubadilika,s,enjini,usikilivu,hesabu,kubadilika,NA,NA,4,NA,NA,NA,NA,NA,NA,NA,NA,NA,NA,NA,NA,NA,NA,NA,NA,NA,NA,NA
3013,"""Richtig""-Screen",canvas.Screen,3_0_4_0_0_1_1,NA,NA,timeout,4999.4399999999,647306,647301.96,647303.92,652286.7,652289,2023-09-29T13:40:32Z,652303.36,NULL,Flexibilität,kubadilika,s,enjini,usikilivu,hesabu,NA,sd,1,4,NA,NA,NA,NA,NA,NA,NA,NA,NA,NA,NA,NA,NA,NA,NA,NA,NA,NA,NA
3013,"""Falsch""-Screen",canvas.Screen,3_0_4_0_0_1_2,NA,NA,skipped,NA,652292,NA,NA,652286.7,652293,2023-09-29T13:40:32Z,652303.36,NULL,Flexibilität,kubadilika,s,enjini,usikilivu,hesabu,NA,sd,NA,4,NA,NA,NA,NA,NA,NA,NA,NA,NA,NA,NA,NA,NA,NA,NA,NA,NA,NA,NA
3013,shallow,flow.Sequence,3_0_4_0_0_1,NA,NA,completion,9525.58,642760,642760.76,642761.12,652286.7,652293,2023-09-29T13:40:32Z,652303.36,NULL,Flexibilität,kubadilika,s,enjini,usikilivu,hesabu,NA,sd,NA,4,NA,NA,NA,NA,NA,NA,NA,NA,NA,NA,NA,NA,NA,NA,NA,NA,NA,NA,NA
3013,task,flow.Sequence,3_0_4_0_0,NA,NA,completion,9525.58,642760,642760.76,642761.12,652286.7,652293,2023-09-29T13:40:32Z,652303.36,NULL,Flexibilität,kubadilika,s,enjini,usikilivu,hesabu,NA,sd,NA,4,NA,NA,NA,NA,NA,NA,NA,NA,NA,NA,NA,NA,NA,NA,NA,NA,NA,NA,NA
3013,Deep Question,html.Page,3_0_4_0_1_0_0,NA,NA,form submission,25187.64,652293,652286.7,652303.36,677491,677493,2023-09-29T13:40:57Z,677500.1,NULL,Erneuerung,ukarabati,d,NA,NA,NA,nope,NA,NA,4,NA,NA,NA,NA,NA,NA,NA,NA,NA,NA,NA,NA,NA,NA,NA,NA,NA,NA,NA
3013,"""Richtig""-Screen",canvas.Screen,3_0_4_0_1_0_1,NA,NA,skipped,NA,677501,NA,NA,677491,677502,2023-09-29T13:40:57Z,677500.1,NULL,Erneuerung,ukarabati,d,NA,NA,NA,NA,sd,NA,4,NA,NA,NA,NA,NA,NA,NA,NA,NA,NA,NA,NA,NA,NA,NA,NA,NA,NA,NA
3013,"""Falsch""-Screen",canvas.Screen,3_0_4_0_1_0_2,NA,NA,timeout,4999.3200000001,677505,677490.04,677500.1,682482.76,682484,2023-09-29T13:41:02Z,682499.42,NULL,Erneuerung,ukarabati,d,NA,NA,NA,NA,sd,0,4,NA,NA,NA,NA,NA,NA,NA,NA,NA,NA,NA,NA,NA,NA,NA,NA,NA,NA,NA
3013,deep,flow.Sequence,3_0_4_0_1_0,NA,NA,completion,30179.4,652293,652286.7,652303.36,682482.76,682485,2023-09-29T13:41:02Z,682499.42,NULL,Erneuerung,ukarabati,d,NA,NA,NA,NA,sd,NA,4,NA,NA,NA,NA,NA,NA,NA,NA,NA,NA,NA,NA,NA,NA,NA,NA,NA,NA,NA
3013,shallow,flow.Sequence,3_0_4_0_1_1,NA,NA,skipped,NA,682485,NA,NA,682482.76,682486,2023-09-29T13:41:02Z,682499.42,NULL,Erneuerung,ukarabati,d,NA,NA,NA,NA,sd,NA,4,NA,NA,NA,NA,NA,NA,NA,NA,NA,NA,NA,NA,NA,NA,NA,NA,NA,NA,NA
3013,task,flow.Sequence,3_0_4_0_1,NA,NA,completion,30179.4,652293,652286.7,652303.36,682482.76,682486,2023-09-29T13:41:02Z,682499.42,NULL,Erneuerung,ukarabati,d,NA,NA,NA,NA,sd,NA,4,NA,NA,NA,NA,NA,NA,NA,NA,NA,NA,NA,NA,NA,NA,NA,NA,NA,NA,NA
3013,deep,flow.Sequence,3_0_4_0_2_0,NA,NA,skipped,NA,682487,NA,NA,682482.76,682487,2023-09-29T13:41:02Z,682499.42,NULL,Theorie,nadharia,s,ushungi,mkutano,uwakilishi,NA,sd,NA,4,NA,NA,NA,NA,NA,NA,NA,NA,NA,NA,NA,NA,NA,NA,NA,NA,NA,NA,NA
3013,Shallow Question,html.Page,3_0_4_0_2_1_0,NA,NA,form submission,7931.58,682487,682482.76,682499.42,690431,690432,2023-09-29T13:41:10Z,690431.86,NULL,Theorie,nadharia,s,ushungi,mkutano,uwakilishi,nadharia,NA,NA,4,NA,NA,NA,NA,NA,NA,NA,NA,NA,NA,NA,NA,NA,NA,NA,NA,NA,NA,NA
3013,"""Richtig""-Screen",canvas.Screen,3_0_4_0_2_1_1,NA,NA,timeout,4999.24,690435,690430.44,690431.86,695414.46,695416,2023-09-29T13:41:15Z,695431.1,NULL,Theorie,nadharia,s,ushungi,mkutano,uwakilishi,NA,sd,1,4,NA,NA,NA,NA,NA,NA,NA,NA,NA,NA,NA,NA,NA,NA,NA,NA,NA,NA,NA
3013,"""Falsch""-Screen",canvas.Screen,3_0_4_0_2_1_2,NA,NA,skipped,NA,695423,NA,NA,695414.46,695424,2023-09-29T13:41:15Z,695431.1,NULL,Theorie,nadharia,s,ushungi,mkutano,uwakilishi,NA,sd,NA,4,NA,NA,NA,NA,NA,NA,NA,NA,NA,NA,NA,NA,NA,NA,NA,NA,NA,NA,NA
3013,shallow,flow.Sequence,3_0_4_0_2_1,NA,NA,completion,12915.04,682487,682482.76,682499.42,695414.46,695425,2023-09-29T13:41:15Z,695431.1,NULL,Theorie,nadharia,s,ushungi,mkutano,uwakilishi,NA,sd,NA,4,NA,NA,NA,NA,NA,NA,NA,NA,NA,NA,NA,NA,NA,NA,NA,NA,NA,NA,NA
3013,task,flow.Sequence,3_0_4_0_2,NA,NA,completion,12915.04,682486,682482.76,682499.42,695414.46,695426,2023-09-29T13:41:15Z,695431.1,NULL,Theorie,nadharia,s,ushungi,mkutano,uwakilishi,NA,sd,NA,4,NA,NA,NA,NA,NA,NA,NA,NA,NA,NA,NA,NA,NA,NA,NA,NA,NA,NA,NA
3013,deep,flow.Sequence,3_0_4_0_3_0,NA,NA,skipped,NA,695426,NA,NA,695414.46,695426,2023-09-29T13:41:15Z,695431.1,NULL,Atmosphäre,angahewa,s,kuteseka,usahihi,kutoamini,NA,sd,NA,4,NA,NA,NA,NA,NA,NA,NA,NA,NA,NA,NA,NA,NA,NA,NA,NA,NA,NA,NA
3013,Shallow Question,html.Page,3_0_4_0_3_1_0,NA,NA,form submission,2898.9,695427,695414.46,695431.1,698330,698331,2023-09-29T13:41:18Z,698330.72,NULL,Atmosphäre,angahewa,s,kuteseka,usahihi,kutoamini,angahewa,NA,NA,4,NA,NA,NA,NA,NA,NA,NA,NA,NA,NA,NA,NA,NA,NA,NA,NA,NA,NA,NA
3013,"""Richtig""-Screen",canvas.Screen,3_0_4_0_3_1_1,NA,NA,timeout,4999.38,698334,698328.9,698330.72,703313.48,703315,2023-09-29T13:41:23Z,703330.1,NULL,Atmosphäre,angahewa,s,kuteseka,usahihi,kutoamini,NA,sd,1,4,NA,NA,NA,NA,NA,NA,NA,NA,NA,NA,NA,NA,NA,NA,NA,NA,NA,NA,NA
3013,"""Falsch""-Screen",canvas.Screen,3_0_4_0_3_1_2,NA,NA,skipped,NA,703323,NA,NA,703313.48,703323,2023-09-29T13:41:23Z,703330.1,NULL,Atmosphäre,angahewa,s,kuteseka,usahihi,kutoamini,NA,sd,NA,4,NA,NA,NA,NA,NA,NA,NA,NA,NA,NA,NA,NA,NA,NA,NA,NA,NA,NA,NA
3013,shallow,flow.Sequence,3_0_4_0_3_1,NA,NA,completion,7882.38,695427,695414.46,695431.1,703313.48,703323,2023-09-29T13:41:23Z,703330.1,NULL,Atmosphäre,angahewa,s,kuteseka,usahihi,kutoamini,NA,sd,NA,4,NA,NA,NA,NA,NA,NA,NA,NA,NA,NA,NA,NA,NA,NA,NA,NA,NA,NA,NA
3013,task,flow.Sequence,3_0_4_0_3,NA,NA,completion,7882.38,695426,695414.46,695431.1,703313.48,703324,2023-09-29T13:41:23Z,703330.1,NULL,Atmosphäre,angahewa,s,kuteseka,usahihi,kutoamini,NA,sd,NA,4,NA,NA,NA,NA,NA,NA,NA,NA,NA,NA,NA,NA,NA,NA,NA,NA,NA,NA,NA
3013,Deep Question,html.Page,3_0_4_0_4_0_0,NA,NA,form submission,9849.9,703324,703313.48,703330.1,713180,713180,2023-09-29T13:41:33Z,713179.06,NULL,Wechsel,ugeuzaji,d,NA,NA,NA,nope,NA,NA,4,NA,NA,NA,NA,NA,NA,NA,NA,NA,NA,NA,NA,NA,NA,NA,NA,NA,NA,NA
3013,"""Richtig""-Screen",canvas.Screen,3_0_4_0_4_0_1,NA,NA,skipped,NA,713184,NA,NA,713180,713184,2023-09-29T13:41:33Z,713179.06,NULL,Wechsel,ugeuzaji,d,NA,NA,NA,NA,sd,NA,4,NA,NA,NA,NA,NA,NA,NA,NA,NA,NA,NA,NA,NA,NA,NA,NA,NA,NA,NA
3013,"""Falsch""-Screen",canvas.Screen,3_0_4_0_4_0_2,NA,NA,timeout,4999.12,713187,713178.72,713179.06,718161.52,718163,2023-09-29T13:41:38Z,718178.18,NULL,Wechsel,ugeuzaji,d,NA,NA,NA,NA,sd,0,4,NA,NA,NA,NA,NA,NA,NA,NA,NA,NA,NA,NA,NA,NA,NA,NA,NA,NA,NA
3013,deep,flow.Sequence,3_0_4_0_4_0,NA,NA,completion,14831.42,703324,703313.48,703330.1,718161.52,718163,2023-09-29T13:41:38Z,718178.18,NULL,Wechsel,ugeuzaji,d,NA,NA,NA,NA,sd,NA,4,NA,NA,NA,NA,NA,NA,NA,NA,NA,NA,NA,NA,NA,NA,NA,NA,NA,NA,NA
3013,shallow,flow.Sequence,3_0_4_0_4_1,NA,NA,skipped,NA,718164,NA,NA,718161.52,718164,2023-09-29T13:41:38Z,718178.18,NULL,Wechsel,ugeuzaji,d,NA,NA,NA,NA,sd,NA,4,NA,NA,NA,NA,NA,NA,NA,NA,NA,NA,NA,NA,NA,NA,NA,NA,NA,NA,NA
3013,task,flow.Sequence,3_0_4_0_4,NA,NA,completion,14831.42,703324,703313.48,703330.1,718161.52,718165,2023-09-29T13:41:38Z,718178.18,NULL,Wechsel,ugeuzaji,d,NA,NA,NA,NA,sd,NA,4,NA,NA,NA,NA,NA,NA,NA,NA,NA,NA,NA,NA,NA,NA,NA,NA,NA,NA,NA
3013,deep,flow.Sequence,3_0_4_0_5_0,NA,NA,skipped,NA,718165,NA,NA,718161.52,718165,2023-09-29T13:41:38Z,718178.18,NULL,Schock,mshtuko,s,biashara,kukataza,vichekesho,NA,sd,NA,4,NA,NA,NA,NA,NA,NA,NA,NA,NA,NA,NA,NA,NA,NA,NA,NA,NA,NA,NA
3013,Shallow Question,html.Page,3_0_4_0_5_1_0,NA,NA,form submission,8718.8199999999,718166,718161.52,718178.18,726897,726897,2023-09-29T13:41:47Z,726895.28,NULL,Schock,mshtuko,s,biashara,kukataza,vichekesho,mshtuko,NA,NA,4,NA,NA,NA,NA,NA,NA,NA,NA,NA,NA,NA,NA,NA,NA,NA,NA,NA,NA,NA
3013,"""Richtig""-Screen",canvas.Screen,3_0_4_0_5_1_1,NA,NA,timeout,4997.7999999999,726899,726894.98,726895.28,731876.42,731879,2023-09-29T13:41:52Z,731893.08,NULL,Schock,mshtuko,s,biashara,kukataza,vichekesho,NA,sd,1,4,NA,NA,NA,NA,NA,NA,NA,NA,NA,NA,NA,NA,NA,NA,NA,NA,NA,NA,NA
3013,"""Falsch""-Screen",canvas.Screen,3_0_4_0_5_1_2,NA,NA,skipped,NA,731885,NA,NA,731876.42,731886,2023-09-29T13:41:52Z,731893.08,NULL,Schock,mshtuko,s,biashara,kukataza,vichekesho,NA,sd,NA,4,NA,NA,NA,NA,NA,NA,NA,NA,NA,NA,NA,NA,NA,NA,NA,NA,NA,NA,NA
3013,shallow,flow.Sequence,3_0_4_0_5_1,NA,NA,completion,13698.24,718166,718161.52,718178.18,731876.42,731886,2023-09-29T13:41:52Z,731893.08,NULL,Schock,mshtuko,s,biashara,kukataza,vichekesho,NA,sd,NA,4,NA,NA,NA,NA,NA,NA,NA,NA,NA,NA,NA,NA,NA,NA,NA,NA,NA,NA,NA
3013,task,flow.Sequence,3_0_4_0_5,NA,NA,completion,13698.24,718165,718161.52,718178.18,731876.42,731887,2023-09-29T13:41:52Z,731893.08,NULL,Schock,mshtuko,s,biashara,kukataza,vichekesho,NA,sd,NA,4,NA,NA,NA,NA,NA,NA,NA,NA,NA,NA,NA,NA,NA,NA,NA,NA,NA,NA,NA
3013,Deep Question,html.Page,3_0_4_0_6_0_0,NA,NA,form submission,7072.92,731887,731876.42,731893.08,738966,738966,2023-09-29T13:41:59Z,738975.44,NULL,Verpackung,ufungaji,d,NA,NA,NA,ufungaji,NA,NA,4,NA,NA,NA,NA,NA,NA,NA,NA,NA,NA,NA,NA,NA,NA,NA,NA,NA,NA,NA
3013,"""Richtig""-Screen",canvas.Screen,3_0_4_0_6_0_1,NA,NA,timeout,4999.3400000001,738968,738964.62,738975.44,743958.12,743960,2023-09-29T13:42:04Z,743974.78,NULL,Verpackung,ufungaji,d,NA,NA,NA,NA,sd,1,4,NA,NA,NA,NA,NA,NA,NA,NA,NA,NA,NA,NA,NA,NA,NA,NA,NA,NA,NA
3013,"""Falsch""-Screen",canvas.Screen,3_0_4_0_6_0_2,NA,NA,skipped,NA,743967,NA,NA,743958.12,743967,2023-09-29T13:42:04Z,743974.78,NULL,Verpackung,ufungaji,d,NA,NA,NA,NA,sd,NA,4,NA,NA,NA,NA,NA,NA,NA,NA,NA,NA,NA,NA,NA,NA,NA,NA,NA,NA,NA
3013,deep,flow.Sequence,3_0_4_0_6_0,NA,NA,completion,12065.04,731887,731876.42,731893.08,743958.12,743967,2023-09-29T13:42:04Z,743974.78,NULL,Verpackung,ufungaji,d,NA,NA,NA,NA,sd,NA,4,NA,NA,NA,NA,NA,NA,NA,NA,NA,NA,NA,NA,NA,NA,NA,NA,NA,NA,NA
3013,shallow,flow.Sequence,3_0_4_0_6_1,NA,NA,skipped,NA,743968,NA,NA,743958.12,743968,2023-09-29T13:42:04Z,743974.78,NULL,Verpackung,ufungaji,d,NA,NA,NA,NA,sd,NA,4,NA,NA,NA,NA,NA,NA,NA,NA,NA,NA,NA,NA,NA,NA,NA,NA,NA,NA,NA
3013,task,flow.Sequence,3_0_4_0_6,NA,NA,completion,12065.04,731887,731876.42,731893.08,743958.12,743968,2023-09-29T13:42:04Z,743974.78,NULL,Verpackung,ufungaji,d,NA,NA,NA,NA,sd,NA,4,NA,NA,NA,NA,NA,NA,NA,NA,NA,NA,NA,NA,NA,NA,NA,NA,NA,NA,NA
3013,Deep Question,html.Page,3_0_4_0_7_0_0,NA,NA,form submission,12800.22,743969,743958.12,743974.78,756775,756776,2023-09-29T13:42:17Z,756789.82,NULL,Hoffnung,matarajio,d,NA,NA,NA,no,NA,NA,4,NA,NA,NA,NA,NA,NA,NA,NA,NA,NA,NA,NA,NA,NA,NA,NA,NA,NA,NA
3013,"""Richtig""-Screen",canvas.Screen,3_0_4_0_7_0_1,NA,NA,skipped,NA,756778,NA,NA,756775,756778,2023-09-29T13:42:17Z,756789.82,NULL,Hoffnung,matarajio,d,NA,NA,NA,NA,sd,NA,4,NA,NA,NA,NA,NA,NA,NA,NA,NA,NA,NA,NA,NA,NA,NA,NA,NA,NA,NA
3013,"""Falsch""-Screen",canvas.Screen,3_0_4_0_7_0_2,NA,NA,timeout,4999.42,756781,756774.08,756789.82,761772.58,761774,2023-09-29T13:42:22Z,761789.24,NULL,Hoffnung,matarajio,d,NA,NA,NA,NA,sd,0,4,NA,NA,NA,NA,NA,NA,NA,NA,NA,NA,NA,NA,NA,NA,NA,NA,NA,NA,NA
3013,deep,flow.Sequence,3_0_4_0_7_0,NA,NA,completion,17797.8,743969,743958.12,743974.78,761772.58,761774,2023-09-29T13:42:22Z,761789.24,NULL,Hoffnung,matarajio,d,NA,NA,NA,NA,sd,NA,4,NA,NA,NA,NA,NA,NA,NA,NA,NA,NA,NA,NA,NA,NA,NA,NA,NA,NA,NA
3013,shallow,flow.Sequence,3_0_4_0_7_1,NA,NA,skipped,NA,761775,NA,NA,761772.58,761775,2023-09-29T13:42:22Z,761789.24,NULL,Hoffnung,matarajio,d,NA,NA,NA,NA,sd,NA,4,NA,NA,NA,NA,NA,NA,NA,NA,NA,NA,NA,NA,NA,NA,NA,NA,NA,NA,NA
3013,task,flow.Sequence,3_0_4_0_7,NA,NA,completion,17797.8,743969,743958.12,743974.78,761772.58,761775,2023-09-29T13:42:22Z,761789.24,NULL,Hoffnung,matarajio,d,NA,NA,NA,NA,sd,NA,4,NA,NA,NA,NA,NA,NA,NA,NA,NA,NA,NA,NA,NA,NA,NA,NA,NA,NA,NA
3013,block,flow.Loop,3_0_4_0,NA,NA,completion,119011.46,642760,642760.76,642761.12,761772.58,761776,2023-09-29T13:42:22Z,761789.24,NULL,NA,NA,NA,NA,NA,NA,NA,sd,NA,4,NA,NA,NA,NA,NA,NA,NA,NA,NA,NA,NA,NA,NA,NA,NA,NA,NA,NA,NA
3013,weiter,canvas.Screen,3_0_4_1,sdf,keypress(Space),response,5081.76,761776,761772.58,761789.24,766871,766878,2023-09-29T13:42:27Z,767602.4,NULL,NA,NA,NA,NA,NA,NA,NA,sd,NA,4,NA,NA,NA,NA,NA,NA,NA,NA,NA,NA,NA,NA,NA,NA,NA,NA,NA,NA,NA
3013,check continue,flow.Sequence,3_0_4,NA,NA,completion,124109.88,642760,642760.76,642761.12,766871,766879,2023-09-29T13:42:27Z,767602.4,NULL,NA,NA,NA,NA,NA,NA,NA,sd,NA,4,NA,NA,NA,NA,NA,NA,NA,NA,NA,NA,NA,NA,NA,NA,NA,NA,NA,NA,NA
3013,check continue,flow.Sequence,3_0_5,NA,NA,skipped,NA,766936,NA,NA,766871,766936,2023-09-29T13:42:27Z,767602.4,NULL,NA,NA,NA,NA,NA,NA,NA,sdf,NA,5,NA,NA,NA,NA,NA,NA,NA,NA,NA,NA,NA,NA,NA,NA,NA,NA,NA,NA,NA
3013,check continue,flow.Sequence,3_0_6,NA,NA,skipped,NA,766975,NA,NA,766871,766975,2023-09-29T13:42:27Z,767602.4,NULL,NA,NA,NA,NA,NA,NA,NA,dfs,NA,6,NA,NA,NA,NA,NA,NA,NA,NA,NA,NA,NA,NA,NA,NA,NA,NA,NA,NA,NA
3013,check continue,flow.Sequence,3_0_7,NA,NA,skipped,NA,767003,NA,NA,766871,767003,2023-09-29T13:42:27Z,767602.4,NULL,NA,NA,NA,NA,NA,NA,NA,df,NA,7,NA,NA,NA,NA,NA,NA,NA,NA,NA,NA,NA,NA,NA,NA,NA,NA,NA,NA,NA
3013,check continue,flow.Sequence,3_0_8,NA,NA,skipped,NA,767031,NA,NA,766871,767031,2023-09-29T13:42:27Z,767602.4,NULL,NA,NA,NA,NA,NA,NA,NA,dfs,NA,8,NA,NA,NA,NA,NA,NA,NA,NA,NA,NA,NA,NA,NA,NA,NA,NA,NA,NA,NA
3013,check continue,flow.Sequence,3_0_9,NA,NA,skipped,NA,767063,NA,NA,766871,767063,2023-09-29T13:42:27Z,767602.4,NULL,NA,NA,NA,NA,NA,NA,NA,dsf,NA,9,NA,NA,NA,NA,NA,NA,NA,NA,NA,NA,NA,NA,NA,NA,NA,NA,NA,NA,NA
3013,check continue,flow.Sequence,3_0_10,NA,NA,skipped,NA,767089,NA,NA,766871,767089,2023-09-29T13:42:27Z,767602.4,NULL,NA,NA,NA,NA,NA,NA,NA,df,NA,10,NA,NA,NA,NA,NA,NA,NA,NA,NA,NA,NA,NA,NA,NA,NA,NA,NA,NA,NA
3013,check continue,flow.Sequence,3_0_11,NA,NA,skipped,NA,767121,NA,NA,766871,767121,2023-09-29T13:42:27Z,767602.4,NULL,NA,NA,NA,NA,NA,NA,NA,dfs,NA,11,NA,NA,NA,NA,NA,NA,NA,NA,NA,NA,NA,NA,NA,NA,NA,NA,NA,NA,NA
3013,check continue,flow.Sequence,3_0_12,NA,NA,skipped,NA,767149,NA,NA,766871,767149,2023-09-29T13:42:27Z,767602.4,NULL,NA,NA,NA,NA,NA,NA,NA,dsf,NA,12,NA,NA,NA,NA,NA,NA,NA,NA,NA,NA,NA,NA,NA,NA,NA,NA,NA,NA,NA
3013,check continue,flow.Sequence,3_0_13,NA,NA,skipped,NA,767179,NA,NA,766871,767179,2023-09-29T13:42:27Z,767602.4,NULL,NA,NA,NA,NA,NA,NA,NA,dsf,NA,13,NA,NA,NA,NA,NA,NA,NA,NA,NA,NA,NA,NA,NA,NA,NA,NA,NA,NA,NA
3013,check continue,flow.Sequence,3_0_14,NA,NA,skipped,NA,767204,NA,NA,766871,767204,2023-09-29T13:42:27Z,767602.4,NULL,NA,NA,NA,NA,NA,NA,NA,NA,NA,14,NA,NA,NA,NA,NA,NA,NA,NA,NA,NA,NA,NA,NA,NA,NA,NA,NA,NA,NA
3013,check continue,flow.Sequence,3_0_15,NA,NA,skipped,NA,767229,NA,NA,766871,767229,2023-09-29T13:42:27Z,767602.4,NULL,NA,NA,NA,NA,NA,NA,NA,NA,NA,15,NA,NA,NA,NA,NA,NA,NA,NA,NA,NA,NA,NA,NA,NA,NA,NA,NA,NA,NA
3013,check continue,flow.Sequence,3_0_16,NA,NA,skipped,NA,767257,NA,NA,766871,767257,2023-09-29T13:42:27Z,767602.4,NULL,NA,NA,NA,NA,NA,NA,NA,NA,NA,16,NA,NA,NA,NA,NA,NA,NA,NA,NA,NA,NA,NA,NA,NA,NA,NA,NA,NA,NA
3013,check continue,flow.Sequence,3_0_17,NA,NA,skipped,NA,767283,NA,NA,766871,767283,2023-09-29T13:42:27Z,767602.4,NULL,NA,NA,NA,NA,NA,NA,NA,NA,NA,17,NA,NA,NA,NA,NA,NA,NA,NA,NA,NA,NA,NA,NA,NA,NA,NA,NA,NA,NA
3013,check continue,flow.Sequence,3_0_18,NA,NA,skipped,NA,767312,NA,NA,766871,767312,2023-09-29T13:42:27Z,767602.4,NULL,NA,NA,NA,NA,NA,NA,NA,NA,NA,18,NA,NA,NA,NA,NA,NA,NA,NA,NA,NA,NA,NA,NA,NA,NA,NA,NA,NA,NA
3013,check continue,flow.Sequence,3_0_19,NA,NA,skipped,NA,767337,NA,NA,766871,767337,2023-09-29T13:42:27Z,767602.4,NULL,NA,NA,NA,NA,NA,NA,NA,NA,NA,19,NA,NA,NA,NA,NA,NA,NA,NA,NA,NA,NA,NA,NA,NA,NA,NA,NA,NA,NA
3013,check continue,flow.Sequence,3_0_20,NA,NA,skipped,NA,767365,NA,NA,766871,767365,2023-09-29T13:42:27Z,767602.4,NULL,NA,NA,NA,NA,NA,NA,NA,NA,NA,20,NA,NA,NA,NA,NA,NA,NA,NA,NA,NA,NA,NA,NA,NA,NA,NA,NA,NA,NA
3013,check continue,flow.Sequence,3_0_21,NA,NA,skipped,NA,767391,NA,NA,766871,767391,2023-09-29T13:42:27Z,767602.4,NULL,NA,NA,NA,NA,NA,NA,NA,NA,NA,21,NA,NA,NA,NA,NA,NA,NA,NA,NA,NA,NA,NA,NA,NA,NA,NA,NA,NA,NA
3013,check continue,flow.Sequence,3_0_22,NA,NA,skipped,NA,767416,NA,NA,766871,767416,2023-09-29T13:42:27Z,767602.4,NULL,NA,NA,NA,NA,NA,NA,NA,NA,NA,22,NA,NA,NA,NA,NA,NA,NA,NA,NA,NA,NA,NA,NA,NA,NA,NA,NA,NA,NA
3013,check continue,flow.Sequence,3_0_23,NA,NA,skipped,NA,767444,NA,NA,766871,767445,2023-09-29T13:42:27Z,767602.4,NULL,NA,NA,NA,NA,NA,NA,NA,NA,NA,23,NA,NA,NA,NA,NA,NA,NA,NA,NA,NA,NA,NA,NA,NA,NA,NA,NA,NA,NA
3013,check continue,flow.Sequence,3_0_24,NA,NA,skipped,NA,767473,NA,NA,766871,767473,2023-09-29T13:42:27Z,767602.4,NULL,NA,NA,NA,NA,NA,NA,NA,NA,NA,24,NA,NA,NA,NA,NA,NA,NA,NA,NA,NA,NA,NA,NA,NA,NA,NA,NA,NA,NA
3013,check continue,flow.Sequence,3_0_25,NA,NA,skipped,NA,767499,NA,NA,766871,767499,2023-09-29T13:42:27Z,767602.4,NULL,NA,NA,NA,NA,NA,NA,NA,NA,NA,25,NA,NA,NA,NA,NA,NA,NA,NA,NA,NA,NA,NA,NA,NA,NA,NA,NA,NA,NA
3013,check continue,flow.Sequence,3_0_26,NA,NA,skipped,NA,767526,NA,NA,766871,767526,2023-09-29T13:42:27Z,767602.4,NULL,NA,NA,NA,NA,NA,NA,NA,NA,NA,26,NA,NA,NA,NA,NA,NA,NA,NA,NA,NA,NA,NA,NA,NA,NA,NA,NA,NA,NA
3013,check continue,flow.Sequence,3_0_27,NA,NA,skipped,NA,767550,NA,NA,766871,767550,2023-09-29T13:42:27Z,767602.4,NULL,NA,NA,NA,NA,NA,NA,NA,NA,NA,27,NA,NA,NA,NA,NA,NA,NA,NA,NA,NA,NA,NA,NA,NA,NA,NA,NA,NA,NA
3013,check continue,flow.Sequence,3_0_28,NA,NA,skipped,NA,767575,NA,NA,766871,767575,2023-09-29T13:42:27Z,767602.4,NULL,NA,NA,NA,NA,NA,NA,NA,NA,NA,28,NA,NA,NA,NA,NA,NA,NA,NA,NA,NA,NA,NA,NA,NA,NA,NA,NA,NA,NA
3013,check continue,flow.Sequence,3_0_29,NA,NA,skipped,NA,767601,NA,NA,766871,767601,2023-09-29T13:42:28Z,767602.4,NULL,NA,NA,NA,NA,NA,NA,NA,NA,NA,29,NA,NA,NA,NA,NA,NA,NA,NA,NA,NA,NA,NA,NA,NA,NA,NA,NA,NA,NA
3013,until continue,flow.Loop,3_0,NA,NA,completion,553977.72,212860,212892.48,212893.28,766871,767602,2023-09-29T13:42:28Z,767602.4,NULL,NA,NA,NA,NA,NA,NA,NA,NA,NA,NA,NA,NA,NA,NA,NA,NA,NA,NA,NA,NA,NA,NA,NA,NA,NA,NA,NA,NA,NA
3013,block 1,flow.Sequence,3,NA,NA,completion,553977.72,212860,212892.48,212893.28,766871,767602,2023-09-29T13:42:28Z,767602.4,NULL,NA,NA,NA,NA,NA,NA,NA,NA,NA,NA,NA,NA,NA,NA,NA,NA,NA,NA,NA,NA,NA,NA,NA,NA,NA,NA,NA,NA,NA
3013,1.Part Over,canvas.Screen,4,NA,keypress(Space),response,9378.6,767602,767602.06,767602.4,776981,776995,2023-09-29T13:42:37Z,777070.74,NULL,NA,NA,NA,NA,NA,NA,NA,NA,NA,NA,NA,NA,NA,NA,NA,NA,NA,NA,NA,NA,NA,NA,NA,NA,NA,NA,NA,NA,NA
3013,deep,flow.Sequence,5_0_0_0_0_0,NA,NA,skipped,NA,777070,NA,NA,776981,777070,2023-09-29T13:42:37Z,777070.74,NULL,Ergänzung,kijalizo,s,ulaghai,mustarehe,matangazo,NA,sdf,NA,0,NA,NA,NA,NA,NA,NA,NA,NA,NA,NA,NA,NA,NA,NA,NA,NA,NA,NA,NA
3013,Shallow Question,html.Page,5_0_0_0_0_1_0,NA,NA,form submission,29693.26,777071,777070.42,777070.74,806764,806766,2023-09-29T13:43:07Z,806766.8,NULL,Ergänzung,kijalizo,s,ulaghai,mustarehe,matangazo,matangazo,NA,NA,0,NA,NA,NA,NA,NA,NA,NA,NA,NA,NA,NA,NA,NA,NA,NA,NA,NA,NA,NA
3013,"""Richtig""-Screen",canvas.Screen,5_0_0_0_0_1_1,NA,NA,skipped,NA,806773,NA,NA,806764,806773,2023-09-29T13:43:07Z,806766.8,NULL,Ergänzung,kijalizo,s,ulaghai,mustarehe,matangazo,NA,sdf,NA,0,NA,NA,NA,NA,NA,NA,NA,NA,NA,NA,NA,NA,NA,NA,NA,NA,NA,NA,NA
3013,"""Falsch""-Screen",canvas.Screen,5_0_0_0_0_1_2,NA,NA,timeout,4999.2799999999,806776,806761.94,806766.8,811749.56,811751,2023-09-29T13:43:12Z,811766.08,NULL,Ergänzung,kijalizo,s,ulaghai,mustarehe,matangazo,NA,sdf,0,0,NA,NA,NA,NA,NA,NA,NA,NA,NA,NA,NA,NA,NA,NA,NA,NA,NA,NA,NA
3013,shallow,flow.Sequence,5_0_0_0_0_1,NA,NA,completion,34678.82,777071,777070.42,777070.74,811749.56,811752,2023-09-29T13:43:12Z,811766.08,NULL,Ergänzung,kijalizo,s,ulaghai,mustarehe,matangazo,NA,sdf,NA,0,NA,NA,NA,NA,NA,NA,NA,NA,NA,NA,NA,NA,NA,NA,NA,NA,NA,NA,NA
3013,task,flow.Sequence,5_0_0_0_0,NA,NA,completion,34678.82,777070,777070.42,777070.74,811749.56,811753,2023-09-29T13:43:12Z,811766.08,NULL,Ergänzung,kijalizo,s,ulaghai,mustarehe,matangazo,NA,sdf,NA,0,NA,NA,NA,NA,NA,NA,NA,NA,NA,NA,NA,NA,NA,NA,NA,NA,NA,NA,NA
3013,Deep Question,html.Page,5_0_0_0_1_0_0,NA,NA,form submission,18688.92,811753,811749.56,811766.08,830455,830456,2023-09-29T13:43:30Z,830463.66,NULL,Orientierung,urekebisho,d,NA,NA,NA,nope,NA,NA,0,NA,NA,NA,NA,NA,NA,NA,NA,NA,NA,NA,NA,NA,NA,NA,NA,NA,NA,NA
3013,"""Richtig""-Screen",canvas.Screen,5_0_0_0_1_0_1,NA,NA,skipped,NA,830458,NA,NA,830455,830459,2023-09-29T13:43:30Z,830463.66,NULL,Orientierung,urekebisho,d,NA,NA,NA,NA,sdf,NA,0,NA,NA,NA,NA,NA,NA,NA,NA,NA,NA,NA,NA,NA,NA,NA,NA,NA,NA,NA
3013,"""Falsch""-Screen",canvas.Screen,5_0_0_0_1_0_2,NA,NA,timeout,4999.4,830462,830453.46,830463.66,835446.44,835448,2023-09-29T13:43:35Z,835463.06,NULL,Orientierung,urekebisho,d,NA,NA,NA,NA,sdf,0,0,NA,NA,NA,NA,NA,NA,NA,NA,NA,NA,NA,NA,NA,NA,NA,NA,NA,NA,NA
3013,deep,flow.Sequence,5_0_0_0_1_0,NA,NA,completion,23680.36,811753,811749.56,811766.08,835446.44,835449,2023-09-29T13:43:35Z,835463.06,NULL,Orientierung,urekebisho,d,NA,NA,NA,NA,sdf,NA,0,NA,NA,NA,NA,NA,NA,NA,NA,NA,NA,NA,NA,NA,NA,NA,NA,NA,NA,NA
3013,shallow,flow.Sequence,5_0_0_0_1_1,NA,NA,skipped,NA,835450,NA,NA,835446.44,835450,2023-09-29T13:43:35Z,835463.06,NULL,Orientierung,urekebisho,d,NA,NA,NA,NA,sdf,NA,0,NA,NA,NA,NA,NA,NA,NA,NA,NA,NA,NA,NA,NA,NA,NA,NA,NA,NA,NA
3013,task,flow.Sequence,5_0_0_0_1,NA,NA,completion,23680.36,811753,811749.56,811766.08,835446.44,835451,2023-09-29T13:43:35Z,835463.06,NULL,Orientierung,urekebisho,d,NA,NA,NA,NA,sdf,NA,0,NA,NA,NA,NA,NA,NA,NA,NA,NA,NA,NA,NA,NA,NA,NA,NA,NA,NA,NA
3013,Deep Question,html.Page,5_0_0_0_2_0_0,NA,NA,form submission,14359.94,835451,835446.44,835463.06,849823,849825,2023-09-29T13:43:50Z,849827.92,NULL,Vergnügen,kichekesho,d,NA,NA,NA,no,NA,NA,0,NA,NA,NA,NA,NA,NA,NA,NA,NA,NA,NA,NA,NA,NA,NA,NA,NA,NA,NA
3013,"""Richtig""-Screen",canvas.Screen,5_0_0_0_2_0_1,NA,NA,skipped,NA,849833,NA,NA,849823,849833,2023-09-29T13:43:50Z,849827.92,NULL,Vergnügen,kichekesho,d,NA,NA,NA,NA,sdf,NA,0,NA,NA,NA,NA,NA,NA,NA,NA,NA,NA,NA,NA,NA,NA,NA,NA,NA,NA,NA
3013,"""Falsch""-Screen",canvas.Screen,5_0_0_0_2_0_2,NA,NA,timeout,4999.2999999999,849837,849821.14,849827.92,854810.6,854812,2023-09-29T13:43:55Z,854827.22,NULL,Vergnügen,kichekesho,d,NA,NA,NA,NA,sdf,0,0,NA,NA,NA,NA,NA,NA,NA,NA,NA,NA,NA,NA,NA,NA,NA,NA,NA,NA,NA
3013,deep,flow.Sequence,5_0_0_0_2_0,NA,NA,completion,19347.54,835451,835446.44,835463.06,854810.6,854812,2023-09-29T13:43:55Z,854827.22,NULL,Vergnügen,kichekesho,d,NA,NA,NA,NA,sdf,NA,0,NA,NA,NA,NA,NA,NA,NA,NA,NA,NA,NA,NA,NA,NA,NA,NA,NA,NA,NA
3013,shallow,flow.Sequence,5_0_0_0_2_1,NA,NA,skipped,NA,854814,NA,NA,854810.6,854814,2023-09-29T13:43:55Z,854827.22,NULL,Vergnügen,kichekesho,d,NA,NA,NA,NA,sdf,NA,0,NA,NA,NA,NA,NA,NA,NA,NA,NA,NA,NA,NA,NA,NA,NA,NA,NA,NA,NA
3013,task,flow.Sequence,5_0_0_0_2,NA,NA,completion,19347.54,835451,835446.44,835463.06,854810.6,854814,2023-09-29T13:43:55Z,854827.22,NULL,Vergnügen,kichekesho,d,NA,NA,NA,NA,sdf,NA,0,NA,NA,NA,NA,NA,NA,NA,NA,NA,NA,NA,NA,NA,NA,NA,NA,NA,NA,NA
3013,Deep Question,html.Page,5_0_0_0_3_0_0,NA,NA,form submission,12075.78,854815,854810.6,854827.22,866903,866903,2023-09-29T13:44:07Z,866909.06,NULL,Notfall,dharura,d,NA,NA,NA,no,NA,NA,0,NA,NA,NA,NA,NA,NA,NA,NA,NA,NA,NA,NA,NA,NA,NA,NA,NA,NA,NA
3013,"""Richtig""-Screen",canvas.Screen,5_0_0_0_3_0_1,NA,NA,skipped,NA,866906,NA,NA,866903,866906,2023-09-29T13:44:07Z,866909.06,NULL,Notfall,dharura,d,NA,NA,NA,NA,sdf,NA,0,NA,NA,NA,NA,NA,NA,NA,NA,NA,NA,NA,NA,NA,NA,NA,NA,NA,NA,NA
3013,"""Falsch""-Screen",canvas.Screen,5_0_0_0_3_0_2,NA,NA,timeout,4999.34,866909,866901.3,866909.06,871891.74,871893,2023-09-29T13:44:12Z,871908.4,NULL,Notfall,dharura,d,NA,NA,NA,NA,sdf,0,0,NA,NA,NA,NA,NA,NA,NA,NA,NA,NA,NA,NA,NA,NA,NA,NA,NA,NA,NA
3013,deep,flow.Sequence,5_0_0_0_3_0,NA,NA,completion,17064.52,854815,854810.6,854827.22,871891.74,871894,2023-09-29T13:44:12Z,871908.4,NULL,Notfall,dharura,d,NA,NA,NA,NA,sdf,NA,0,NA,NA,NA,NA,NA,NA,NA,NA,NA,NA,NA,NA,NA,NA,NA,NA,NA,NA,NA
3013,shallow,flow.Sequence,5_0_0_0_3_1,NA,NA,skipped,NA,871895,NA,NA,871891.74,871895,2023-09-29T13:44:12Z,871908.4,NULL,Notfall,dharura,d,NA,NA,NA,NA,sdf,NA,0,NA,NA,NA,NA,NA,NA,NA,NA,NA,NA,NA,NA,NA,NA,NA,NA,NA,NA,NA
3013,task,flow.Sequence,5_0_0_0_3,NA,NA,completion,17064.52,854815,854810.6,854827.22,871891.74,871896,2023-09-29T13:44:12Z,871908.4,NULL,Notfall,dharura,d,NA,NA,NA,NA,sdf,NA,0,NA,NA,NA,NA,NA,NA,NA,NA,NA,NA,NA,NA,NA,NA,NA,NA,NA,NA,NA
3013,deep,flow.Sequence,5_0_0_0_4_0,NA,NA,skipped,NA,871897,NA,NA,871891.74,871897,2023-09-29T13:44:12Z,871908.4,NULL,Betrüger,mdanganyifu,s,mwanamuziki,wastani,mahakama,NA,sdf,NA,0,NA,NA,NA,NA,NA,NA,NA,NA,NA,NA,NA,NA,NA,NA,NA,NA,NA,NA,NA
3013,Shallow Question,html.Page,5_0_0_0_4_1_0,NA,NA,form submission,7258.6,871897,871891.74,871908.4,879167,879168,2023-09-29T13:44:19Z,879174.08,NULL,Betrüger,mdanganyifu,s,mwanamuziki,wastani,mahakama,mahakama,NA,NA,0,NA,NA,NA,NA,NA,NA,NA,NA,NA,NA,NA,NA,NA,NA,NA,NA,NA,NA,NA
3013,"""Richtig""-Screen",canvas.Screen,5_0_0_0_4_1_1,NA,NA,skipped,NA,879170,NA,NA,879167,879171,2023-09-29T13:44:19Z,879174.08,NULL,Betrüger,mdanganyifu,s,mwanamuziki,wastani,mahakama,NA,sdf,NA,0,NA,NA,NA,NA,NA,NA,NA,NA,NA,NA,NA,NA,NA,NA,NA,NA,NA,NA,NA
3013,"""Falsch""-Screen",canvas.Screen,5_0_0_0_4_1_2,NA,NA,timeout,4999.3400000001,879174,879166.34,879174.08,884156.82,884158,2023-09-29T13:44:24Z,884173.42,NULL,Betrüger,mdanganyifu,s,mwanamuziki,wastani,mahakama,NA,sdf,0,0,NA,NA,NA,NA,NA,NA,NA,NA,NA,NA,NA,NA,NA,NA,NA,NA,NA,NA,NA
3013,shallow,flow.Sequence,5_0_0_0_4_1,NA,NA,completion,12248.42,871897,871891.74,871908.4,884156.82,884159,2023-09-29T13:44:24Z,884173.42,NULL,Betrüger,mdanganyifu,s,mwanamuziki,wastani,mahakama,NA,sdf,NA,0,NA,NA,NA,NA,NA,NA,NA,NA,NA,NA,NA,NA,NA,NA,NA,NA,NA,NA,NA
3013,task,flow.Sequence,5_0_0_0_4,NA,NA,completion,12248.42,871896,871891.74,871908.4,884156.82,884159,2023-09-29T13:44:24Z,884173.42,NULL,Betrüger,mdanganyifu,s,mwanamuziki,wastani,mahakama,NA,sdf,NA,0,NA,NA,NA,NA,NA,NA,NA,NA,NA,NA,NA,NA,NA,NA,NA,NA,NA,NA,NA
3013,deep,flow.Sequence,5_0_0_0_5_0,NA,NA,skipped,NA,884160,NA,NA,884156.82,884161,2023-09-29T13:44:24Z,884173.42,NULL,Stimmung,kinyongo,s,kilekile,kisambo,madhehebu,NA,sdf,NA,0,NA,NA,NA,NA,NA,NA,NA,NA,NA,NA,NA,NA,NA,NA,NA,NA,NA,NA,NA
3013,Shallow Question,html.Page,5_0_0_0_5_1_0,NA,NA,form submission,6110.58,884161,884156.82,884173.42,890284,890285,2023-09-29T13:44:30Z,890289.38,NULL,Stimmung,kinyongo,s,kilekile,kisambo,madhehebu,kisambo,NA,NA,0,NA,NA,NA,NA,NA,NA,NA,NA,NA,NA,NA,NA,NA,NA,NA,NA,NA,NA,NA
3013,"""Richtig""-Screen",canvas.Screen,5_0_0_0_5_1_1,NA,NA,skipped,NA,890292,NA,NA,890284,890293,2023-09-29T13:44:30Z,890289.38,NULL,Stimmung,kinyongo,s,kilekile,kisambo,madhehebu,NA,sdf,NA,0,NA,NA,NA,NA,NA,NA,NA,NA,NA,NA,NA,NA,NA,NA,NA,NA,NA,NA,NA
3013,"""Falsch""-Screen",canvas.Screen,5_0_0_0_5_1_2,NA,NA,timeout,4999.3,890298,890278.04,890289.38,895272.02,895273,2023-09-29T13:44:35Z,895288.68,NULL,Stimmung,kinyongo,s,kilekile,kisambo,madhehebu,NA,sdf,0,0,NA,NA,NA,NA,NA,NA,NA,NA,NA,NA,NA,NA,NA,NA,NA,NA,NA,NA,NA
3013,shallow,flow.Sequence,5_0_0_0_5_1,NA,NA,completion,11098.6,884161,884156.82,884173.42,895272.02,895274,2023-09-29T13:44:35Z,895288.68,NULL,Stimmung,kinyongo,s,kilekile,kisambo,madhehebu,NA,sdf,NA,0,NA,NA,NA,NA,NA,NA,NA,NA,NA,NA,NA,NA,NA,NA,NA,NA,NA,NA,NA
3013,task,flow.Sequence,5_0_0_0_5,NA,NA,completion,11098.6,884160,884156.82,884173.42,895272.02,895274,2023-09-29T13:44:35Z,895288.68,NULL,Stimmung,kinyongo,s,kilekile,kisambo,madhehebu,NA,sdf,NA,0,NA,NA,NA,NA,NA,NA,NA,NA,NA,NA,NA,NA,NA,NA,NA,NA,NA,NA,NA
3013,deep,flow.Sequence,5_0_0_0_6_0,NA,NA,skipped,NA,895275,NA,NA,895272.02,895275,2023-09-29T13:44:35Z,895288.68,NULL,Wohlstand,mafanikio,s,chimbuko,kumbuko,mapwaji,NA,sdf,NA,0,NA,NA,NA,NA,NA,NA,NA,NA,NA,NA,NA,NA,NA,NA,NA,NA,NA,NA,NA
3013,Shallow Question,html.Page,5_0_0_0_6_1_0,NA,NA,form submission,5570.3199999999,895276,895272.02,895288.68,900859,900860,2023-09-29T13:44:41Z,900857.96,NULL,Wohlstand,mafanikio,s,chimbuko,kumbuko,mapwaji,chimbuko,NA,NA,0,NA,NA,NA,NA,NA,NA,NA,NA,NA,NA,NA,NA,NA,NA,NA,NA,NA,NA,NA
3013,"""Richtig""-Screen",canvas.Screen,5_0_0_0_6_1_1,NA,NA,skipped,NA,900863,NA,NA,900859,900863,2023-09-29T13:44:41Z,900857.96,NULL,Wohlstand,mafanikio,s,chimbuko,kumbuko,mapwaji,NA,sdf,NA,0,NA,NA,NA,NA,NA,NA,NA,NA,NA,NA,NA,NA,NA,NA,NA,NA,NA,NA,NA
3013,"""Falsch""-Screen",canvas.Screen,5_0_0_0_6_1_2,NA,NA,timeout,4996,900865,900857.6,900857.96,905837.44,905838,2023-09-29T13:44:46Z,905853.96,NULL,Wohlstand,mafanikio,s,chimbuko,kumbuko,mapwaji,NA,sdf,0,0,NA,NA,NA,NA,NA,NA,NA,NA,NA,NA,NA,NA,NA,NA,NA,NA,NA,NA,NA
3013,shallow,flow.Sequence,5_0_0_0_6_1,NA,NA,completion,10548.76,895275,895272.02,895288.68,905837.44,905839,2023-09-29T13:44:46Z,905853.96,NULL,Wohlstand,mafanikio,s,chimbuko,kumbuko,mapwaji,NA,sdf,NA,0,NA,NA,NA,NA,NA,NA,NA,NA,NA,NA,NA,NA,NA,NA,NA,NA,NA,NA,NA
3013,task,flow.Sequence,5_0_0_0_6,NA,NA,completion,10548.76,895275,895272.02,895288.68,905837.44,905839,2023-09-29T13:44:46Z,905853.96,NULL,Wohlstand,mafanikio,s,chimbuko,kumbuko,mapwaji,NA,sdf,NA,0,NA,NA,NA,NA,NA,NA,NA,NA,NA,NA,NA,NA,NA,NA,NA,NA,NA,NA,NA
3013,Deep Question,html.Page,5_0_0_0_7_0_0,NA,NA,form submission,4201.04,905840,905837.44,905853.96,910055,910056,2023-09-29T13:44:50Z,910070.12,NULL,Respekt,heshima,d,NA,NA,NA,no,NA,NA,0,NA,NA,NA,NA,NA,NA,NA,NA,NA,NA,NA,NA,NA,NA,NA,NA,NA,NA,NA
3013,"""Richtig""-Screen",canvas.Screen,5_0_0_0_7_0_1,NA,NA,skipped,NA,910058,NA,NA,910055,910058,2023-09-29T13:44:50Z,910070.12,NULL,Respekt,heshima,d,NA,NA,NA,NA,sdf,NA,0,NA,NA,NA,NA,NA,NA,NA,NA,NA,NA,NA,NA,NA,NA,NA,NA,NA,NA,NA
3013,"""Falsch""-Screen",canvas.Screen,5_0_0_0_7_0_2,NA,NA,timeout,4999.42,910061,910054.32,910070.12,915052.88,915054,2023-09-29T13:44:55Z,915069.54,NULL,Respekt,heshima,d,NA,NA,NA,NA,sdf,0,0,NA,NA,NA,NA,NA,NA,NA,NA,NA,NA,NA,NA,NA,NA,NA,NA,NA,NA,NA
3013,deep,flow.Sequence,5_0_0_0_7_0,NA,NA,completion,9198.92,905840,905837.44,905853.96,915052.88,915054,2023-09-29T13:44:55Z,915069.54,NULL,Respekt,heshima,d,NA,NA,NA,NA,sdf,NA,0,NA,NA,NA,NA,NA,NA,NA,NA,NA,NA,NA,NA,NA,NA,NA,NA,NA,NA,NA
3013,shallow,flow.Sequence,5_0_0_0_7_1,NA,NA,skipped,NA,915055,NA,NA,915052.88,915055,2023-09-29T13:44:55Z,915069.54,NULL,Respekt,heshima,d,NA,NA,NA,NA,sdf,NA,0,NA,NA,NA,NA,NA,NA,NA,NA,NA,NA,NA,NA,NA,NA,NA,NA,NA,NA,NA
3013,task,flow.Sequence,5_0_0_0_7,NA,NA,completion,9198.92,905840,905837.44,905853.96,915052.88,915055,2023-09-29T13:44:55Z,915069.54,NULL,Respekt,heshima,d,NA,NA,NA,NA,sdf,NA,0,NA,NA,NA,NA,NA,NA,NA,NA,NA,NA,NA,NA,NA,NA,NA,NA,NA,NA,NA
3013,block,flow.Loop,5_0_0_0,NA,NA,completion,137982.14,777070,777070.42,777070.74,915052.88,915055,2023-09-29T13:44:55Z,915069.54,NULL,NA,NA,NA,NA,NA,NA,NA,sdf,NA,0,NA,NA,NA,NA,NA,NA,NA,NA,NA,NA,NA,NA,NA,NA,NA,NA,NA,NA,NA
3013,weiter,canvas.Screen,5_0_0_1,sdf,keypress(Space),response,5535.46,915055,915052.88,915069.54,920605,920615,2023-09-29T13:45:01Z,920668.98,NULL,NA,NA,NA,NA,NA,NA,NA,sdf,NA,0,NA,NA,NA,NA,NA,NA,NA,NA,NA,NA,NA,NA,NA,NA,NA,NA,NA,NA,NA
3013,check continue,flow.Sequence,5_0_0,NA,NA,completion,143534.26,777070,777070.42,777070.74,920605,920616,2023-09-29T13:45:01Z,920668.98,NULL,NA,NA,NA,NA,NA,NA,NA,sdf,NA,0,NA,NA,NA,NA,NA,NA,NA,NA,NA,NA,NA,NA,NA,NA,NA,NA,NA,NA,NA
3013,Deep Question,html.Page,5_0_1_0_0_0_0,NA,NA,form submission,9941.02,920668,920668.74,920668.98,930610,930611,2023-09-29T13:45:11Z,930617.5,NULL,Vergnügen,kichekesho,d,NA,NA,NA,ufungaji,NA,NA,1,NA,NA,NA,NA,NA,NA,NA,NA,NA,NA,NA,NA,NA,NA,NA,NA,NA,NA,NA
3013,"""Richtig""-Screen",canvas.Screen,5_0_1_0_0_0_1,NA,NA,skipped,NA,930613,NA,NA,930610,930613,2023-09-29T13:45:11Z,930617.5,NULL,Vergnügen,kichekesho,d,NA,NA,NA,NA,sdfdsf,NA,1,NA,NA,NA,NA,NA,NA,NA,NA,NA,NA,NA,NA,NA,NA,NA,NA,NA,NA,NA
3013,"""Falsch""-Screen",canvas.Screen,5_0_1_0_0_0_2,NA,NA,timeout,4999.34,930615,930609.04,930617.5,935600.18,935603,2023-09-29T13:45:16Z,935616.84,NULL,Vergnügen,kichekesho,d,NA,NA,NA,NA,sdfdsf,0,1,NA,NA,NA,NA,NA,NA,NA,NA,NA,NA,NA,NA,NA,NA,NA,NA,NA,NA,NA
3013,deep,flow.Sequence,5_0_1_0_0_0,NA,NA,completion,14931.2,920668,920668.74,920668.98,935600.18,935606,2023-09-29T13:45:16Z,935616.84,NULL,Vergnügen,kichekesho,d,NA,NA,NA,NA,sdfdsf,NA,1,NA,NA,NA,NA,NA,NA,NA,NA,NA,NA,NA,NA,NA,NA,NA,NA,NA,NA,NA
3013,shallow,flow.Sequence,5_0_1_0_0_1,NA,NA,skipped,NA,935607,NA,NA,935600.18,935607,2023-09-29T13:45:16Z,935616.84,NULL,Vergnügen,kichekesho,d,NA,NA,NA,NA,sdfdsf,NA,1,NA,NA,NA,NA,NA,NA,NA,NA,NA,NA,NA,NA,NA,NA,NA,NA,NA,NA,NA
3013,task,flow.Sequence,5_0_1_0_0,NA,NA,completion,14931.2,920668,920668.74,920668.98,935600.18,935608,2023-09-29T13:45:16Z,935616.84,NULL,Vergnügen,kichekesho,d,NA,NA,NA,NA,sdfdsf,NA,1,NA,NA,NA,NA,NA,NA,NA,NA,NA,NA,NA,NA,NA,NA,NA,NA,NA,NA,NA
3013,Deep Question,html.Page,5_0_1_0_1_0_0,NA,NA,form submission,6540.16,935609,935600.18,935616.84,942157,942157,2023-09-29T13:45:22Z,942165.92,NULL,Respekt,heshima,d,NA,NA,NA,heshima,NA,NA,1,NA,NA,NA,NA,NA,NA,NA,NA,NA,NA,NA,NA,NA,NA,NA,NA,NA,NA,NA
3013,"""Richtig""-Screen",canvas.Screen,5_0_1_0_1_0_1,NA,NA,timeout,4999.48,942165,942155.6,942165.92,947148.74,947150,2023-09-29T13:45:27Z,947165.4,NULL,Respekt,heshima,d,NA,NA,NA,NA,sdfdsf,1,1,NA,NA,NA,NA,NA,NA,NA,NA,NA,NA,NA,NA,NA,NA,NA,NA,NA,NA,NA
3013,"""Falsch""-Screen",canvas.Screen,5_0_1_0_1_0_2,NA,NA,skipped,NA,947158,NA,NA,947148.74,947158,2023-09-29T13:45:27Z,947165.4,NULL,Respekt,heshima,d,NA,NA,NA,NA,sdfdsf,NA,1,NA,NA,NA,NA,NA,NA,NA,NA,NA,NA,NA,NA,NA,NA,NA,NA,NA,NA,NA
3013,deep,flow.Sequence,5_0_1_0_1_0,NA,NA,completion,11531.9,935609,935600.18,935616.84,947148.74,947159,2023-09-29T13:45:27Z,947165.4,NULL,Respekt,heshima,d,NA,NA,NA,NA,sdfdsf,NA,1,NA,NA,NA,NA,NA,NA,NA,NA,NA,NA,NA,NA,NA,NA,NA,NA,NA,NA,NA
3013,shallow,flow.Sequence,5_0_1_0_1_1,NA,NA,skipped,NA,947159,NA,NA,947148.74,947159,2023-09-29T13:45:27Z,947165.4,NULL,Respekt,heshima,d,NA,NA,NA,NA,sdfdsf,NA,1,NA,NA,NA,NA,NA,NA,NA,NA,NA,NA,NA,NA,NA,NA,NA,NA,NA,NA,NA
3013,task,flow.Sequence,5_0_1_0_1,NA,NA,completion,11531.9,935609,935600.18,935616.84,947148.74,947160,2023-09-29T13:45:27Z,947165.4,NULL,Respekt,heshima,d,NA,NA,NA,NA,sdfdsf,NA,1,NA,NA,NA,NA,NA,NA,NA,NA,NA,NA,NA,NA,NA,NA,NA,NA,NA,NA,NA
3013,Deep Question,html.Page,5_0_1_0_2_0_0,NA,NA,form submission,11897.6,947160,947148.74,947165.4,959063,959064,2023-09-29T13:45:39Z,959063.86,NULL,Notfall,dharura,d,NA,NA,NA,dharura,NA,NA,1,NA,NA,NA,NA,NA,NA,NA,NA,NA,NA,NA,NA,NA,NA,NA,NA,NA,NA,NA
3013,"""Richtig""-Screen",canvas.Screen,5_0_1_0_2_0_1,NA,NA,timeout,4999.36,959067,959061.92,959063.86,964046.58,964049,2023-09-29T13:45:44Z,964063.22,NULL,Notfall,dharura,d,NA,NA,NA,NA,sdfdsf,1,1,NA,NA,NA,NA,NA,NA,NA,NA,NA,NA,NA,NA,NA,NA,NA,NA,NA,NA,NA
3013,"""Falsch""-Screen",canvas.Screen,5_0_1_0_2_0_2,NA,NA,skipped,NA,964054,NA,NA,964046.58,964055,2023-09-29T13:45:44Z,964063.22,NULL,Notfall,dharura,d,NA,NA,NA,NA,sdfdsf,NA,1,NA,NA,NA,NA,NA,NA,NA,NA,NA,NA,NA,NA,NA,NA,NA,NA,NA,NA,NA
3013,deep,flow.Sequence,5_0_1_0_2_0,NA,NA,completion,16881.18,947160,947148.74,947165.4,964046.58,964055,2023-09-29T13:45:44Z,964063.22,NULL,Notfall,dharura,d,NA,NA,NA,NA,sdfdsf,NA,1,NA,NA,NA,NA,NA,NA,NA,NA,NA,NA,NA,NA,NA,NA,NA,NA,NA,NA,NA
3013,shallow,flow.Sequence,5_0_1_0_2_1,NA,NA,skipped,NA,964056,NA,NA,964046.58,964056,2023-09-29T13:45:44Z,964063.22,NULL,Notfall,dharura,d,NA,NA,NA,NA,sdfdsf,NA,1,NA,NA,NA,NA,NA,NA,NA,NA,NA,NA,NA,NA,NA,NA,NA,NA,NA,NA,NA
3013,task,flow.Sequence,5_0_1_0_2,NA,NA,completion,16881.18,947160,947148.74,947165.4,964046.58,964057,2023-09-29T13:45:44Z,964063.22,NULL,Notfall,dharura,d,NA,NA,NA,NA,sdfdsf,NA,1,NA,NA,NA,NA,NA,NA,NA,NA,NA,NA,NA,NA,NA,NA,NA,NA,NA,NA,NA
3013,Deep Question,html.Page,5_0_1_0_3_0_0,NA,NA,form submission,13393.78,964057,964046.58,964063.22,977457,977457,2023-09-29T13:45:57Z,977461.4,NULL,Orientierung,urekebisho,d,NA,NA,NA,urekebisho,NA,NA,1,NA,NA,NA,NA,NA,NA,NA,NA,NA,NA,NA,NA,NA,NA,NA,NA,NA,NA,NA
3013,"""Richtig""-Screen",canvas.Screen,5_0_1_0_3_0_1,NA,NA,timeout,4999.4399999999,977460,977455.56,977461.4,982444.22,982446,2023-09-29T13:46:02Z,982460.84,NULL,Orientierung,urekebisho,d,NA,NA,NA,NA,sdfdsf,1,1,NA,NA,NA,NA,NA,NA,NA,NA,NA,NA,NA,NA,NA,NA,NA,NA,NA,NA,NA
3013,"""Falsch""-Screen",canvas.Screen,5_0_1_0_3_0_2,NA,NA,skipped,NA,982454,NA,NA,982444.22,982454,2023-09-29T13:46:02Z,982460.84,NULL,Orientierung,urekebisho,d,NA,NA,NA,NA,sdfdsf,NA,1,NA,NA,NA,NA,NA,NA,NA,NA,NA,NA,NA,NA,NA,NA,NA,NA,NA,NA,NA
3013,deep,flow.Sequence,5_0_1_0_3_0,NA,NA,completion,18381,964057,964046.58,964063.22,982444.22,982455,2023-09-29T13:46:02Z,982460.84,NULL,Orientierung,urekebisho,d,NA,NA,NA,NA,sdfdsf,NA,1,NA,NA,NA,NA,NA,NA,NA,NA,NA,NA,NA,NA,NA,NA,NA,NA,NA,NA,NA
3013,shallow,flow.Sequence,5_0_1_0_3_1,NA,NA,skipped,NA,982456,NA,NA,982444.22,982456,2023-09-29T13:46:02Z,982460.84,NULL,Orientierung,urekebisho,d,NA,NA,NA,NA,sdfdsf,NA,1,NA,NA,NA,NA,NA,NA,NA,NA,NA,NA,NA,NA,NA,NA,NA,NA,NA,NA,NA
3013,task,flow.Sequence,5_0_1_0_3,NA,NA,completion,18381,964057,964046.58,964063.22,982444.22,982457,2023-09-29T13:46:02Z,982460.84,NULL,Orientierung,urekebisho,d,NA,NA,NA,NA,sdfdsf,NA,1,NA,NA,NA,NA,NA,NA,NA,NA,NA,NA,NA,NA,NA,NA,NA,NA,NA,NA,NA
