sender;sender_type;sender_id;response;response_action;ended_on;duration;time_run;time_render;time_show;time_end;time_commit;timestamp;time_switch;german;swahili;enc;distractor1;distractor2;distractor3;response_2;x;correct;distractors;url_vp;url_sess;meta_labjs_version;meta_location;meta_user_agent;meta_platform;meta_language;meta_locale;meta_time_zone;meta_timezone_offset;meta_screen_width;meta_screen_height;meta_scroll_width;meta_scroll_height;meta_window_inner_width;meta_window_inner_height;meta_device_pixel_ratio;meta_labjs_build_flavor;meta_labjs_build_commit
Introduction delayed retrieval;canvas.Screen;0;weiter;keypress(Space);response;9739.72;4403;4405.94;4439.28;14179;14198;2023-02-11T17:37:53Z;14206.18;NA;NA;NA;NA;NA;NA;NA;NA;NA;NULL;113;2;20.02.04;https://neurocog.fernuni.ch/studies/vweber/delayed/index.html?vp=113&sess=2;"Mozilla/5.0 (Windows NT 10.0; Win64; x64; rv:108.0) Gecko/20100101 Firefox/108.0";Win32;de;de-CH;Europe/Zurich;-60;1280;720;1280;595;1280;595;1.5;production;f5b4a49f956347addd546a832a3327688c2c0fef
Deep Question;html.Page;1_0_0_0;NA;NA;form submission;8408.82;14202;14201.28;14206.18;22615;22615;2023-02-11T17:38:01Z;22622.86;Respekt;heshima;s;changamnao;upinzani;ufanisi;mashtara;NA;NA;NULL;NA;NA;NA;NA;NA;NA;NA;NA;NA;NA;NA;NA;NA;NA;NA;NA;NA;NA;NA
Save data screen;canvas.Screen;1_0_0_1;NA;NA;timeout;500.04;22620;22614.1;22622.86;23106.24;23107;2023-02-11T17:38:02Z;23122.9;Respekt;heshima;s;changamnao;upinzani;ufanisi;NA;NA;0;NULL;NA;NA;NA;NA;NA;NA;NA;NA;NA;NA;NA;NA;NA;NA;NA;NA;NA;NA;NA
deep;flow.Sequence;1_0_0;NA;NA;completion;8900.06;14201;14201.28;14206.18;23106.24;23108;2023-02-11T17:38:02Z;23122.9;Respekt;heshima;s;changamnao;upinzani;ufanisi;NA;NA;NA;NULL;NA;NA;NA;NA;NA;NA;NA;NA;NA;NA;NA;NA;NA;NA;NA;NA;NA;NA;NA
task;flow.Sequence;1_0;NA;NA;completion;8900.06;14200;14201.28;14206.18;23106.24;23109;2023-02-11T17:38:02Z;23122.9;Respekt;heshima;s;changamnao;upinzani;ufanisi;NA;NA;NA;NULL;NA;NA;NA;NA;NA;NA;NA;NA;NA;NA;NA;NA;NA;NA;NA;NA;NA;NA;NA
Deep Question;html.Page;1_1_0_0;NA;NA;form submission;19310.1;23110;23106.24;23122.9;42433;42433;2023-02-11T17:38:21Z;42439.82;Integrität;uadilifu;s;muungano;mtiririko;upunguaji;efuduni;NA;NA;NULL;NA;NA;NA;NA;NA;NA;NA;NA;NA;NA;NA;NA;NA;NA;NA;NA;NA;NA;NA
Save data screen;canvas.Screen;1_1_0_1;NA;NA;timeout;499.98;42438;42432.52;42439.82;42923.14;42924;2023-02-11T17:38:22Z;42939.8;Integrität;uadilifu;s;muungano;mtiririko;upunguaji;NA;NA;0;NULL;NA;NA;NA;NA;NA;NA;NA;NA;NA;NA;NA;NA;NA;NA;NA;NA;NA;NA;NA
deep;flow.Sequence;1_1_0;NA;NA;completion;19800.24;23110;23106.24;23122.9;42923.14;42925;2023-02-11T17:38:22Z;42939.8;Integrität;uadilifu;s;muungano;mtiririko;upunguaji;NA;NA;NA;NULL;NA;NA;NA;NA;NA;NA;NA;NA;NA;NA;NA;NA;NA;NA;NA;NA;NA;NA;NA
task;flow.Sequence;1_1;NA;NA;completion;19800.24;23109;23106.24;23122.9;42923.14;42926;2023-02-11T17:38:22Z;42939.8;Integrität;uadilifu;s;muungano;mtiririko;upunguaji;NA;NA;NA;NULL;NA;NA;NA;NA;NA;NA;NA;NA;NA;NA;NA;NA;NA;NA;NA;NA;NA;NA;NA
Deep Question;html.Page;1_2_0_0;NA;NA;form submission;14217.2;42927;42923.14;42939.8;57157;57157;2023-02-11T17:38:36Z;57156.26;Stimmung;kinyongo;d;kilekile;kisambo;madhehebu;uatenga;NA;NA;NULL;NA;NA;NA;NA;NA;NA;NA;NA;NA;NA;NA;NA;NA;NA;NA;NA;NA;NA;NA
Save data screen;canvas.Screen;1_2_0_1;NA;NA;timeout;500.34;57160;57155.94;57156.26;57639.94;57641;2023-02-11T17:38:36Z;57656.6;Stimmung;kinyongo;d;kilekile;kisambo;madhehebu;NA;NA;0;NULL;NA;NA;NA;NA;NA;NA;NA;NA;NA;NA;NA;NA;NA;NA;NA;NA;NA;NA;NA
deep;flow.Sequence;1_2_0;NA;NA;completion;14700.14;42926;42923.14;42939.8;57639.94;57642;2023-02-11T17:38:36Z;57656.6;Stimmung;kinyongo;d;kilekile;kisambo;madhehebu;NA;NA;NA;NULL;NA;NA;NA;NA;NA;NA;NA;NA;NA;NA;NA;NA;NA;NA;NA;NA;NA;NA;NA
task;flow.Sequence;1_2;NA;NA;completion;14700.14;42926;42923.14;42939.8;57639.94;57643;2023-02-11T17:38:36Z;57656.6;Stimmung;kinyongo;d;kilekile;kisambo;madhehebu;NA;NA;NA;NULL;NA;NA;NA;NA;NA;NA;NA;NA;NA;NA;NA;NA;NA;NA;NA;NA;NA;NA;NA
Deep Question;html.Page;1_3_0_0;NA;NA;form submission;15319.4;57644;57639.94;57656.6;72976;72976;2023-02-11T17:38:52Z;72975.24;Vorwurf;mashtaka;d;msukumo;mtangulizi;uenyekiti;heretawe;NA;NA;NULL;NA;NA;NA;NA;NA;NA;NA;NA;NA;NA;NA;NA;NA;NA;NA;NA;NA;NA;NA
Save data screen;canvas.Screen;1_3_0_1;NA;NA;timeout;498.2;72978;72974.88;72975.24;73456.78;73457;2023-02-11T17:38:52Z;73473.44;Vorwurf;mashtaka;d;msukumo;mtangulizi;uenyekiti;NA;NA;0;NULL;NA;NA;NA;NA;NA;NA;NA;NA;NA;NA;NA;NA;NA;NA;NA;NA;NA;NA;NA
deep;flow.Sequence;1_3_0;NA;NA;completion;15800.18;57644;57639.94;57656.6;73456.78;73458;2023-02-11T17:38:52Z;73473.44;Vorwurf;mashtaka;d;msukumo;mtangulizi;uenyekiti;NA;NA;NA;NULL;NA;NA;NA;NA;NA;NA;NA;NA;NA;NA;NA;NA;NA;NA;NA;NA;NA;NA;NA
task;flow.Sequence;1_3;NA;NA;completion;15800.18;57644;57639.94;57656.6;73456.78;73459;2023-02-11T17:38:52Z;73473.44;Vorwurf;mashtaka;d;msukumo;mtangulizi;uenyekiti;NA;NA;NA;NULL;NA;NA;NA;NA;NA;NA;NA;NA;NA;NA;NA;NA;NA;NA;NA;NA;NA;NA;NA
Deep Question;html.Page;1_4_0_0;NA;NA;form submission;9195.56;73460;73456.78;73473.44;82669;82669;2023-02-11T17:39:01Z;82673.6;Niveau;kiwango;s;usimamizi;mwamali;mshairi;kiwingo;NA;NA;NULL;NA;NA;NA;NA;NA;NA;NA;NA;NA;NA;NA;NA;NA;NA;NA;NA;NA;NA;NA
Save data screen;canvas.Screen;1_4_0_1;NA;NA;timeout;499.98;82675;82666.48;82673.6;83156.94;83159;2023-02-11T17:39:02Z;83173.58;Niveau;kiwango;s;usimamizi;mwamali;mshairi;NA;NA;0;NULL;NA;NA;NA;NA;NA;NA;NA;NA;NA;NA;NA;NA;NA;NA;NA;NA;NA;NA;NA
deep;flow.Sequence;1_4_0;NA;NA;completion;9683.5;73460;73456.78;73473.44;83156.94;83160;2023-02-11T17:39:02Z;83173.58;Niveau;kiwango;s;usimamizi;mwamali;mshairi;NA;NA;NA;NULL;NA;NA;NA;NA;NA;NA;NA;NA;NA;NA;NA;NA;NA;NA;NA;NA;NA;NA;NA
task;flow.Sequence;1_4;NA;NA;completion;9683.5;73460;73456.78;73473.44;83156.94;83161;2023-02-11T17:39:02Z;83173.58;Niveau;kiwango;s;usimamizi;mwamali;mshairi;NA;NA;NA;NULL;NA;NA;NA;NA;NA;NA;NA;NA;NA;NA;NA;NA;NA;NA;NA;NA;NA;NA;NA
Deep Question;html.Page;1_5_0_0;NA;NA;form submission;9603.42;83162;83156.94;83173.58;92777;92777;2023-02-11T17:39:11Z;92776.16;Papier;karatasi;s;uchambuzi;usalama;kukataliwa;karast;NA;NA;NULL;NA;NA;NA;NA;NA;NA;NA;NA;NA;NA;NA;NA;NA;NA;NA;NA;NA;NA;NA
Save data screen;canvas.Screen;1_5_0_1;NA;NA;timeout;497.52;92781;92775.78;92776.16;93257.02;93258;2023-02-11T17:39:12Z;93273.68;Papier;karatasi;s;uchambuzi;usalama;kukataliwa;NA;NA;0;NULL;NA;NA;NA;NA;NA;NA;NA;NA;NA;NA;NA;NA;NA;NA;NA;NA;NA;NA;NA
deep;flow.Sequence;1_5_0;NA;NA;completion;10083.44;83161;83156.94;83173.58;93257.02;93258;2023-02-11T17:39:12Z;93273.68;Papier;karatasi;s;uchambuzi;usalama;kukataliwa;NA;NA;NA;NULL;NA;NA;NA;NA;NA;NA;NA;NA;NA;NA;NA;NA;NA;NA;NA;NA;NA;NA;NA
task;flow.Sequence;1_5;NA;NA;completion;10083.44;83161;83156.94;83173.58;93257.02;93260;2023-02-11T17:39:12Z;93273.68;Papier;karatasi;s;uchambuzi;usalama;kukataliwa;NA;NA;NA;NULL;NA;NA;NA;NA;NA;NA;NA;NA;NA;NA;NA;NA;NA;NA;NA;NA;NA;NA;NA
Deep Question;html.Page;1_6_0_0;NA;NA;form submission;30503.32;93261;93257.02;93273.68;123777;123777;2023-02-11T17:39:42Z;123776.24;Flexibilität;kubadilika;d;enjini;usikilivu;hesabu;huset;NA;NA;NULL;NA;NA;NA;NA;NA;NA;NA;NA;NA;NA;NA;NA;NA;NA;NA;NA;NA;NA;NA
Save data screen;canvas.Screen;1_6_0_1;NA;NA;timeout;497.8;123779;123775.88;123776.24;124257.38;124259;2023-02-11T17:39:43Z;124274.04;Flexibilität;kubadilika;d;enjini;usikilivu;hesabu;NA;NA;0;NULL;NA;NA;NA;NA;NA;NA;NA;NA;NA;NA;NA;NA;NA;NA;NA;NA;NA;NA;NA
deep;flow.Sequence;1_6_0;NA;NA;completion;30983.7;93261;93257.02;93273.68;124257.38;124259;2023-02-11T17:39:43Z;124274.04;Flexibilität;kubadilika;d;enjini;usikilivu;hesabu;NA;NA;NA;NULL;NA;NA;NA;NA;NA;NA;NA;NA;NA;NA;NA;NA;NA;NA;NA;NA;NA;NA;NA
task;flow.Sequence;1_6;NA;NA;completion;30983.7;93261;93257.02;93273.68;124257.38;124260;2023-02-11T17:39:43Z;124274.04;Flexibilität;kubadilika;d;enjini;usikilivu;hesabu;NA;NA;NA;NULL;NA;NA;NA;NA;NA;NA;NA;NA;NA;NA;NA;NA;NA;NA;NA;NA;NA;NA;NA
Deep Question;html.Page;1_7_0_0;NA;NA;form submission;8540.96;124261;124257.38;124274.04;132815;132815;2023-02-11T17:39:52Z;132824.14;Wechsel;ugeuzaji;s;utambulisho;kujenga;wasiwasi;uwaufe;NA;NA;NULL;NA;NA;NA;NA;NA;NA;NA;NA;NA;NA;NA;NA;NA;NA;NA;NA;NA;NA;NA
Save data screen;canvas.Screen;1_7_0_1;NA;NA;timeout;500;132818;132813.92;132824.14;133307.48;133308;2023-02-11T17:39:52Z;133324.14;Wechsel;ugeuzaji;s;utambulisho;kujenga;wasiwasi;NA;NA;0;NULL;NA;NA;NA;NA;NA;NA;NA;NA;NA;NA;NA;NA;NA;NA;NA;NA;NA;NA;NA
deep;flow.Sequence;1_7_0;NA;NA;completion;9033.44;124261;124257.38;124274.04;133307.48;133309;2023-02-11T17:39:52Z;133324.14;Wechsel;ugeuzaji;s;utambulisho;kujenga;wasiwasi;NA;NA;NA;NULL;NA;NA;NA;NA;NA;NA;NA;NA;NA;NA;NA;NA;NA;NA;NA;NA;NA;NA;NA
task;flow.Sequence;1_7;NA;NA;completion;9033.44;124261;124257.38;124274.04;133307.48;133309;2023-02-11T17:39:52Z;133324.14;Wechsel;ugeuzaji;s;utambulisho;kujenga;wasiwasi;NA;NA;NA;NULL;NA;NA;NA;NA;NA;NA;NA;NA;NA;NA;NA;NA;NA;NA;NA;NA;NA;NA;NA
Deep Question;html.Page;1_8_0_0;NA;NA;form submission;16620.86;133310;133307.48;133324.14;149945;149946;2023-02-11T17:40:09Z;149944.52;Betrüger;mdanganyifu;d;mwanamuziki;wastani;mahakama;hebulizi;NA;NA;NULL;NA;NA;NA;NA;NA;NA;NA;NA;NA;NA;NA;NA;NA;NA;NA;NA;NA;NA;NA
Save data screen;canvas.Screen;1_8_0_1;NA;NA;timeout;496.46;149947;149944.22;149944.52;150424.3;150426;2023-02-11T17:40:09Z;150440.98;Betrüger;mdanganyifu;d;mwanamuziki;wastani;mahakama;NA;NA;0;NULL;NA;NA;NA;NA;NA;NA;NA;NA;NA;NA;NA;NA;NA;NA;NA;NA;NA;NA;NA
deep;flow.Sequence;1_8_0;NA;NA;completion;17100.16;133310;133307.48;133324.14;150424.3;150426;2023-02-11T17:40:09Z;150440.98;Betrüger;mdanganyifu;d;mwanamuziki;wastani;mahakama;NA;NA;NA;NULL;NA;NA;NA;NA;NA;NA;NA;NA;NA;NA;NA;NA;NA;NA;NA;NA;NA;NA;NA
task;flow.Sequence;1_8;NA;NA;completion;17100.16;133310;133307.48;133324.14;150424.3;150427;2023-02-11T17:40:09Z;150440.98;Betrüger;mdanganyifu;d;mwanamuziki;wastani;mahakama;NA;NA;NA;NULL;NA;NA;NA;NA;NA;NA;NA;NA;NA;NA;NA;NA;NA;NA;NA;NA;NA;NA;NA
Deep Question;html.Page;1_9_0_0;NA;NA;form submission;9011.02;150427;150424.3;150440.98;159452;159452;2023-02-11T17:40:18Z;159457.76;Entwicklung;maendeleo;d;uangavu;mshindwa;badiliko;atenge;NA;NA;NULL;NA;NA;NA;NA;NA;NA;NA;NA;NA;NA;NA;NA;NA;NA;NA;NA;NA;NA;NA
Save data screen;canvas.Screen;1_9_0_1;NA;NA;timeout;500;159454;159451.2;159457.76;159941.08;159942;2023-02-11T17:40:19Z;159957.76;Entwicklung;maendeleo;d;uangavu;mshindwa;badiliko;NA;NA;0;NULL;NA;NA;NA;NA;NA;NA;NA;NA;NA;NA;NA;NA;NA;NA;NA;NA;NA;NA;NA
deep;flow.Sequence;1_9_0;NA;NA;completion;9500.1;150427;150424.3;150440.98;159941.08;159942;2023-02-11T17:40:19Z;159957.76;Entwicklung;maendeleo;d;uangavu;mshindwa;badiliko;NA;NA;NA;NULL;NA;NA;NA;NA;NA;NA;NA;NA;NA;NA;NA;NA;NA;NA;NA;NA;NA;NA;NA
task;flow.Sequence;1_9;NA;NA;completion;9500.1;150427;150424.3;150440.98;159941.08;159943;2023-02-11T17:40:19Z;159957.76;Entwicklung;maendeleo;d;uangavu;mshindwa;badiliko;NA;NA;NA;NULL;NA;NA;NA;NA;NA;NA;NA;NA;NA;NA;NA;NA;NA;NA;NA;NA;NA;NA;NA
Deep Question;html.Page;1_10_0_0;NA;NA;form submission;11713.24;159943;159941.08;159957.76;171671;171672;2023-02-11T17:40:30Z;171674.6;Atmosphäre;angahewa;d;kuteseka;usahihi;kutoamini;uwatenga;NA;NA;NULL;NA;NA;NA;NA;NA;NA;NA;NA;NA;NA;NA;NA;NA;NA;NA;NA;NA;NA;NA
Save data screen;canvas.Screen;1_10_0_1;NA;NA;timeout;500;171674;171671.18;171674.6;172157.92;172159;2023-02-11T17:40:31Z;172174.6;Atmosphäre;angahewa;d;kuteseka;usahihi;kutoamini;NA;NA;0;NULL;NA;NA;NA;NA;NA;NA;NA;NA;NA;NA;NA;NA;NA;NA;NA;NA;NA;NA;NA
deep;flow.Sequence;1_10_0;NA;NA;completion;12200.16;159943;159941.08;159957.76;172157.92;172160;2023-02-11T17:40:31Z;172174.6;Atmosphäre;angahewa;d;kuteseka;usahihi;kutoamini;NA;NA;NA;NULL;NA;NA;NA;NA;NA;NA;NA;NA;NA;NA;NA;NA;NA;NA;NA;NA;NA;NA;NA
task;flow.Sequence;1_10;NA;NA;completion;12200.16;159943;159941.08;159957.76;172157.92;172161;2023-02-11T17:40:31Z;172174.6;Atmosphäre;angahewa;d;kuteseka;usahihi;kutoamini;NA;NA;NA;NULL;NA;NA;NA;NA;NA;NA;NA;NA;NA;NA;NA;NA;NA;NA;NA;NA;NA;NA;NA
Deep Question;html.Page;1_11_0_0;NA;NA;form submission;10094.4;172162;172157.92;172174.6;182269;182270;2023-02-11T17:40:41Z;182274.68;Erneuerung;ukarabati;s;ushawishi;ukalifu;unyonyaji;defa;NA;NA;NULL;NA;NA;NA;NA;NA;NA;NA;NA;NA;NA;NA;NA;NA;NA;NA;NA;NA;NA;NA
Save data screen;canvas.Screen;1_11_0_1;NA;NA;timeout;499.98;182277;182266.46;182274.68;182757.98;182759;2023-02-11T17:40:41Z;182774.66;Erneuerung;ukarabati;s;ushawishi;ukalifu;unyonyaji;NA;NA;0;NULL;NA;NA;NA;NA;NA;NA;NA;NA;NA;NA;NA;NA;NA;NA;NA;NA;NA;NA;NA
deep;flow.Sequence;1_11_0;NA;NA;completion;10583.38;172162;172157.92;172174.6;182757.98;182761;2023-02-11T17:40:41Z;182774.66;Erneuerung;ukarabati;s;ushawishi;ukalifu;unyonyaji;NA;NA;NA;NULL;NA;NA;NA;NA;NA;NA;NA;NA;NA;NA;NA;NA;NA;NA;NA;NA;NA;NA;NA
task;flow.Sequence;1_11;NA;NA;completion;10583.38;172161;172157.92;172174.6;182757.98;182762;2023-02-11T17:40:41Z;182774.66;Erneuerung;ukarabati;s;ushawishi;ukalifu;unyonyaji;NA;NA;NA;NULL;NA;NA;NA;NA;NA;NA;NA;NA;NA;NA;NA;NA;NA;NA;NA;NA;NA;NA;NA
Deep Question;html.Page;1_12_0_0;NA;NA;form submission;11913.34;182763;182757.98;182774.66;194688;194688;2023-02-11T17:40:53Z;194691.5;Begegnung;kukutana;d;mmasihiya;mpiganaji;husiano;kuku;NA;NA;NULL;NA;NA;NA;NA;NA;NA;NA;NA;NA;NA;NA;NA;NA;NA;NA;NA;NA;NA;NA
Save data screen;canvas.Screen;1_12_0_1;NA;NA;timeout;500.12;194692;194687.28;194691.5;195174.96;195176;2023-02-11T17:40:54Z;195191.62;Begegnung;kukutana;d;mmasihiya;mpiganaji;husiano;NA;NA;0;NULL;NA;NA;NA;NA;NA;NA;NA;NA;NA;NA;NA;NA;NA;NA;NA;NA;NA;NA;NA
deep;flow.Sequence;1_12_0;NA;NA;completion;12400.3;182763;182757.98;182774.66;195174.96;195178;2023-02-11T17:40:54Z;195191.62;Begegnung;kukutana;d;mmasihiya;mpiganaji;husiano;NA;NA;NA;NULL;NA;NA;NA;NA;NA;NA;NA;NA;NA;NA;NA;NA;NA;NA;NA;NA;NA;NA;NA
task;flow.Sequence;1_12;NA;NA;completion;12400.3;182762;182757.98;182774.66;195174.96;195180;2023-02-11T17:40:54Z;195191.62;Begegnung;kukutana;d;mmasihiya;mpiganaji;husiano;NA;NA;NA;NULL;NA;NA;NA;NA;NA;NA;NA;NA;NA;NA;NA;NA;NA;NA;NA;NA;NA;NA;NA
Deep Question;html.Page;1_13_0_0;NA;NA;form submission;8740.38;195181;195174.96;195191.62;203932;203932;2023-02-11T17:41:03Z;203941.62;Genehmigung;idhini;d;mwanamke;itikadi;fedheha;bari;NA;NA;NULL;NA;NA;NA;NA;NA;NA;NA;NA;NA;NA;NA;NA;NA;NA;NA;NA;NA;NA;NA
Save data screen;canvas.Screen;1_13_0_1;NA;NA;timeout;500.02;203935;203930.84;203941.62;204424.98;204426;2023-02-11T17:41:03Z;204441.64;Genehmigung;idhini;d;mwanamke;itikadi;fedheha;NA;NA;0;NULL;NA;NA;NA;NA;NA;NA;NA;NA;NA;NA;NA;NA;NA;NA;NA;NA;NA;NA;NA
deep;flow.Sequence;1_13_0;NA;NA;completion;9233.36;195181;195174.96;195191.62;204424.98;204429;2023-02-11T17:41:03Z;204441.64;Genehmigung;idhini;d;mwanamke;itikadi;fedheha;NA;NA;NA;NULL;NA;NA;NA;NA;NA;NA;NA;NA;NA;NA;NA;NA;NA;NA;NA;NA;NA;NA;NA
task;flow.Sequence;1_13;NA;NA;completion;9233.36;195180;195174.96;195191.62;204424.98;204430;2023-02-11T17:41:03Z;204441.64;Genehmigung;idhini;d;mwanamke;itikadi;fedheha;NA;NA;NA;NULL;NA;NA;NA;NA;NA;NA;NA;NA;NA;NA;NA;NA;NA;NA;NA;NA;NA;NA;NA
Deep Question;html.Page;1_14_0_0;NA;NA;form submission;18968.36;204431;204424.98;204441.64;223410;223411;2023-02-11T17:41:22Z;223409.82;Orientierung;urekebisho;s;uelekeo;marekebisho;utunzaji;era;NA;NA;NULL;NA;NA;NA;NA;NA;NA;NA;NA;NA;NA;NA;NA;NA;NA;NA;NA;NA;NA;NA
Save data screen;canvas.Screen;1_14_0_1;NA;NA;timeout;498.7;223414;223409.52;223409.82;223891.86;223894;2023-02-11T17:41:23Z;223908.52;Orientierung;urekebisho;s;uelekeo;marekebisho;utunzaji;NA;NA;0;NULL;NA;NA;NA;NA;NA;NA;NA;NA;NA;NA;NA;NA;NA;NA;NA;NA;NA;NA;NA
deep;flow.Sequence;1_14_0;NA;NA;completion;19450.22;204431;204424.98;204441.64;223891.86;223895;2023-02-11T17:41:23Z;223908.52;Orientierung;urekebisho;s;uelekeo;marekebisho;utunzaji;NA;NA;NA;NULL;NA;NA;NA;NA;NA;NA;NA;NA;NA;NA;NA;NA;NA;NA;NA;NA;NA;NA;NA
task;flow.Sequence;1_14;NA;NA;completion;19450.22;204431;204424.98;204441.64;223891.86;223895;2023-02-11T17:41:23Z;223908.52;Orientierung;urekebisho;s;uelekeo;marekebisho;utunzaji;NA;NA;NA;NULL;NA;NA;NA;NA;NA;NA;NA;NA;NA;NA;NA;NA;NA;NA;NA;NA;NA;NA;NA
Deep Question;html.Page;1_15_0_0;NA;NA;form submission;11681.48;223896;223891.86;223908.52;235590;235590;2023-02-11T17:41:34Z;235591.96;Fleisch;mshakiki;s;kizunguzungu;mshikamano;angusho;mataka;NA;NA;NULL;NA;NA;NA;NA;NA;NA;NA;NA;NA;NA;NA;NA;NA;NA;NA;NA;NA;NA;NA
Save data screen;canvas.Screen;1_15_0_1;NA;NA;timeout;500.02;235597;235587.48;235591.96;236075.32;236078;2023-02-11T17:41:35Z;236091.98;Fleisch;mshakiki;s;kizunguzungu;mshikamano;angusho;NA;NA;0;NULL;NA;NA;NA;NA;NA;NA;NA;NA;NA;NA;NA;NA;NA;NA;NA;NA;NA;NA;NA
deep;flow.Sequence;1_15_0;NA;NA;completion;12166.8;223896;223891.86;223908.52;236075.32;236079;2023-02-11T17:41:35Z;236091.98;Fleisch;mshakiki;s;kizunguzungu;mshikamano;angusho;NA;NA;NA;NULL;NA;NA;NA;NA;NA;NA;NA;NA;NA;NA;NA;NA;NA;NA;NA;NA;NA;NA;NA
task;flow.Sequence;1_15;NA;NA;completion;12166.8;223896;223891.86;223908.52;236075.32;236080;2023-02-11T17:41:35Z;236091.98;Fleisch;mshakiki;s;kizunguzungu;mshikamano;angusho;NA;NA;NA;NULL;NA;NA;NA;NA;NA;NA;NA;NA;NA;NA;NA;NA;NA;NA;NA;NA;NA;NA;NA
retrieval block 1 (cued recall);flow.Loop;1;NA;NA;completion;221869.14;14200;14201.28;14206.18;236075.32;236082;2023-02-11T17:41:35Z;236091.98;NA;NA;NA;NA;NA;NA;NA;NA;NA;NULL;NA;NA;NA;NA;NA;NA;NA;NA;NA;NA;NA;NA;NA;NA;NA;NA;NA;NA;NA
Shallow Question;html.Page;2_0_0_0;NA;NA;form submission;6334.02;236084;236075.32;236091.98;242426;242427;2023-02-11T17:41:41Z;242442.06;Flexibilität;kubadilika;d;enjini;usikilivu;hesabu;usikilivu;NA;NA;"c(""distractor1"", ""distractor2"", ""distractor3"")";NA;NA;NA;NA;NA;NA;NA;NA;NA;NA;NA;NA;NA;NA;NA;NA;NA;NA;NA
Save data screen;canvas.Screen;2_0_0_1;NA;NA;timeout;499.94;242436;242416.72;242442.06;242925.34;242927;2023-02-11T17:41:42Z;242942;Flexibilität;kubadilika;d;enjini;usikilivu;hesabu;NA;NA;0;"c(""distractor1"", ""distractor2"", ""distractor3"")";NA;NA;NA;NA;NA;NA;NA;NA;NA;NA;NA;NA;NA;NA;NA;NA;NA;NA;NA
shallow;flow.Sequence;2_0_0;NA;NA;completion;6833.36;236084;236075.32;236091.98;242925.34;242929;2023-02-11T17:41:42Z;242942;Flexibilität;kubadilika;d;enjini;usikilivu;hesabu;NA;NA;NA;"c(""distractor1"", ""distractor2"", ""distractor3"")";NA;NA;NA;NA;NA;NA;NA;NA;NA;NA;NA;NA;NA;NA;NA;NA;NA;NA;NA
task;flow.Sequence;2_0;NA;NA;completion;6833.36;236083;236075.32;236091.98;242925.34;242930;2023-02-11T17:41:42Z;242942;Flexibilität;kubadilika;d;enjini;usikilivu;hesabu;NA;NA;NA;"c(""distractor1"", ""distractor2"", ""distractor3"")";NA;NA;NA;NA;NA;NA;NA;NA;NA;NA;NA;NA;NA;NA;NA;NA;NA;NA;NA
Shallow Question;html.Page;2_1_0_0;NA;NA;form submission;3346;242931;242925.34;242942;246288;246289;2023-02-11T17:41:45Z;246292.06;Niveau;kiwango;s;usimamizi;mwamali;mshairi;kiwango;NA;NA;"c(""distractor1"", ""distractor2"", ""distractor3"")";NA;NA;NA;NA;NA;NA;NA;NA;NA;NA;NA;NA;NA;NA;NA;NA;NA;NA;NA
Save data screen;canvas.Screen;2_1_0_1;NA;NA;timeout;500.04;246291;246287.3;246292.06;246775.44;246778;2023-02-11T17:41:45Z;246792.1;Niveau;kiwango;s;usimamizi;mwamali;mshairi;NA;NA;1;"c(""distractor1"", ""distractor2"", ""distractor3"")";NA;NA;NA;NA;NA;NA;NA;NA;NA;NA;NA;NA;NA;NA;NA;NA;NA;NA;NA
shallow;flow.Sequence;2_1_0;NA;NA;completion;3833.44;242931;242925.34;242942;246775.44;246779;2023-02-11T17:41:45Z;246792.1;Niveau;kiwango;s;usimamizi;mwamali;mshairi;NA;NA;NA;"c(""distractor1"", ""distractor2"", ""distractor3"")";NA;NA;NA;NA;NA;NA;NA;NA;NA;NA;NA;NA;NA;NA;NA;NA;NA;NA;NA
task;flow.Sequence;2_1;NA;NA;completion;3833.44;242930;242925.34;242942;246775.44;246780;2023-02-11T17:41:45Z;246792.1;Niveau;kiwango;s;usimamizi;mwamali;mshairi;NA;NA;NA;"c(""distractor1"", ""distractor2"", ""distractor3"")";NA;NA;NA;NA;NA;NA;NA;NA;NA;NA;NA;NA;NA;NA;NA;NA;NA;NA;NA
Shallow Question;html.Page;2_2_0_0;NA;NA;form submission;2831.9;246781;246775.44;246792.1;249624;249624;2023-02-11T17:41:48Z;249625.44;Papier;karatasi;s;uchambuzi;usalama;kukataliwa;karatasi;NA;NA;"c(""distractor1"", ""distractor2"", ""distractor3"")";NA;NA;NA;NA;NA;NA;NA;NA;NA;NA;NA;NA;NA;NA;NA;NA;NA;NA;NA
Save data screen;canvas.Screen;2_2_0_1;NA;NA;timeout;500.02;249626;249622.78;249625.44;250108.84;250110;2023-02-11T17:41:49Z;250125.46;Papier;karatasi;s;uchambuzi;usalama;kukataliwa;NA;NA;1;"c(""distractor1"", ""distractor2"", ""distractor3"")";NA;NA;NA;NA;NA;NA;NA;NA;NA;NA;NA;NA;NA;NA;NA;NA;NA;NA;NA
shallow;flow.Sequence;2_2_0;NA;NA;completion;3316.74;246781;246775.44;246792.1;250108.84;250111;2023-02-11T17:41:49Z;250125.46;Papier;karatasi;s;uchambuzi;usalama;kukataliwa;NA;NA;NA;"c(""distractor1"", ""distractor2"", ""distractor3"")";NA;NA;NA;NA;NA;NA;NA;NA;NA;NA;NA;NA;NA;NA;NA;NA;NA;NA;NA
task;flow.Sequence;2_2;NA;NA;completion;3316.74;246781;246775.44;246792.1;250108.84;250112;2023-02-11T17:41:49Z;250125.46;Papier;karatasi;s;uchambuzi;usalama;kukataliwa;NA;NA;NA;"c(""distractor1"", ""distractor2"", ""distractor3"")";NA;NA;NA;NA;NA;NA;NA;NA;NA;NA;NA;NA;NA;NA;NA;NA;NA;NA;NA
Shallow Question;html.Page;2_3_0_0;NA;NA;form submission;4531.54;250113;250108.84;250125.46;254657;254658;2023-02-11T17:41:53Z;254658.84;Vorwurf;mashtaka;d;msukumo;mtangulizi;uenyekiti;mashtaka;NA;NA;"c(""distractor1"", ""distractor2"", ""distractor3"")";NA;NA;NA;NA;NA;NA;NA;NA;NA;NA;NA;NA;NA;NA;NA;NA;NA;NA;NA
Save data screen;canvas.Screen;2_3_0_1;NA;NA;timeout;500.02;254660;254656.88;254658.84;255142.18;255144;2023-02-11T17:41:54Z;255158.86;Vorwurf;mashtaka;d;msukumo;mtangulizi;uenyekiti;NA;NA;1;"c(""distractor1"", ""distractor2"", ""distractor3"")";NA;NA;NA;NA;NA;NA;NA;NA;NA;NA;NA;NA;NA;NA;NA;NA;NA;NA;NA
shallow;flow.Sequence;2_3_0;NA;NA;completion;5016.72;250113;250108.84;250125.46;255142.18;255145;2023-02-11T17:41:54Z;255158.86;Vorwurf;mashtaka;d;msukumo;mtangulizi;uenyekiti;NA;NA;NA;"c(""distractor1"", ""distractor2"", ""distractor3"")";NA;NA;NA;NA;NA;NA;NA;NA;NA;NA;NA;NA;NA;NA;NA;NA;NA;NA;NA
task;flow.Sequence;2_3;NA;NA;completion;5016.72;250112;250108.84;250125.46;255142.18;255146;2023-02-11T17:41:54Z;255158.86;Vorwurf;mashtaka;d;msukumo;mtangulizi;uenyekiti;NA;NA;NA;"c(""distractor1"", ""distractor2"", ""distractor3"")";NA;NA;NA;NA;NA;NA;NA;NA;NA;NA;NA;NA;NA;NA;NA;NA;NA;NA;NA
Shallow Question;html.Page;2_4_0_0;NA;NA;form submission;9530.14;255147;255142.18;255158.86;264689;264690;2023-02-11T17:42:03Z;264692.3;Stimmung;kinyongo;d;kilekile;kisambo;madhehebu;kinyongo;NA;NA;"c(""distractor1"", ""distractor2"", ""distractor3"")";NA;NA;NA;NA;NA;NA;NA;NA;NA;NA;NA;NA;NA;NA;NA;NA;NA;NA;NA
Save data screen;canvas.Screen;2_4_0_1;NA;NA;timeout;500.02;264692;264688.38;264692.3;265175.64;265177;2023-02-11T17:42:04Z;265192.32;Stimmung;kinyongo;d;kilekile;kisambo;madhehebu;NA;NA;1;"c(""distractor1"", ""distractor2"", ""distractor3"")";NA;NA;NA;NA;NA;NA;NA;NA;NA;NA;NA;NA;NA;NA;NA;NA;NA;NA;NA
shallow;flow.Sequence;2_4_0;NA;NA;completion;10016.78;255147;255142.18;255158.86;265175.64;265178;2023-02-11T17:42:04Z;265192.32;Stimmung;kinyongo;d;kilekile;kisambo;madhehebu;NA;NA;NA;"c(""distractor1"", ""distractor2"", ""distractor3"")";NA;NA;NA;NA;NA;NA;NA;NA;NA;NA;NA;NA;NA;NA;NA;NA;NA;NA;NA
task;flow.Sequence;2_4;NA;NA;completion;10016.78;255146;255142.18;255158.86;265175.64;265179;2023-02-11T17:42:04Z;265192.32;Stimmung;kinyongo;d;kilekile;kisambo;madhehebu;NA;NA;NA;"c(""distractor1"", ""distractor2"", ""distractor3"")";NA;NA;NA;NA;NA;NA;NA;NA;NA;NA;NA;NA;NA;NA;NA;NA;NA;NA;NA
Shallow Question;html.Page;2_5_0_0;NA;NA;form submission;3412.68;265180;265175.64;265192.32;268605;268605;2023-02-11T17:42:07Z;268608.98;Begegnung;kukutana;d;mmasihiya;mpiganaji;husiano;kukutana;NA;NA;"c(""distractor1"", ""distractor2"", ""distractor3"")";NA;NA;NA;NA;NA;NA;NA;NA;NA;NA;NA;NA;NA;NA;NA;NA;NA;NA;NA
Save data screen;canvas.Screen;2_5_0_1;NA;NA;timeout;499.94;268606;268603.6;268608.98;269092.26;269094;2023-02-11T17:42:08Z;269108.92;Begegnung;kukutana;d;mmasihiya;mpiganaji;husiano;NA;NA;1;"c(""distractor1"", ""distractor2"", ""distractor3"")";NA;NA;NA;NA;NA;NA;NA;NA;NA;NA;NA;NA;NA;NA;NA;NA;NA;NA;NA
shallow;flow.Sequence;2_5_0;NA;NA;completion;3899.94;265179;265175.64;265192.32;269092.26;269095;2023-02-11T17:42:08Z;269108.92;Begegnung;kukutana;d;mmasihiya;mpiganaji;husiano;NA;NA;NA;"c(""distractor1"", ""distractor2"", ""distractor3"")";NA;NA;NA;NA;NA;NA;NA;NA;NA;NA;NA;NA;NA;NA;NA;NA;NA;NA;NA
task;flow.Sequence;2_5;NA;NA;completion;3899.94;265179;265175.64;265192.32;269092.26;269096;2023-02-11T17:42:08Z;269108.92;Begegnung;kukutana;d;mmasihiya;mpiganaji;husiano;NA;NA;NA;"c(""distractor1"", ""distractor2"", ""distractor3"")";NA;NA;NA;NA;NA;NA;NA;NA;NA;NA;NA;NA;NA;NA;NA;NA;NA;NA;NA
Shallow Question;html.Page;2_6_0_0;NA;NA;form submission;5781.08;269097;269092.26;269108.92;274890;274890;2023-02-11T17:42:14Z;274892.38;Orientierung;urekebisho;s;uelekeo;marekebisho;utunzaji;urekebisho;NA;NA;"c(""distractor1"", ""distractor2"", ""distractor3"")";NA;NA;NA;NA;NA;NA;NA;NA;NA;NA;NA;NA;NA;NA;NA;NA;NA;NA;NA
Save data screen;canvas.Screen;2_6_0_1;NA;NA;timeout;500.04;274893;274889.7;274892.38;275375.8;275378;2023-02-11T17:42:14Z;275392.42;Orientierung;urekebisho;s;uelekeo;marekebisho;utunzaji;NA;NA;1;"c(""distractor1"", ""distractor2"", ""distractor3"")";NA;NA;NA;NA;NA;NA;NA;NA;NA;NA;NA;NA;NA;NA;NA;NA;NA;NA;NA
shallow;flow.Sequence;2_6_0;NA;NA;completion;6266.88;269097;269092.26;269108.92;275375.8;275379;2023-02-11T17:42:14Z;275392.42;Orientierung;urekebisho;s;uelekeo;marekebisho;utunzaji;NA;NA;NA;"c(""distractor1"", ""distractor2"", ""distractor3"")";NA;NA;NA;NA;NA;NA;NA;NA;NA;NA;NA;NA;NA;NA;NA;NA;NA;NA;NA
task;flow.Sequence;2_6;NA;NA;completion;6266.88;269097;269092.26;269108.92;275375.8;275379;2023-02-11T17:42:14Z;275392.42;Orientierung;urekebisho;s;uelekeo;marekebisho;utunzaji;NA;NA;NA;"c(""distractor1"", ""distractor2"", ""distractor3"")";NA;NA;NA;NA;NA;NA;NA;NA;NA;NA;NA;NA;NA;NA;NA;NA;NA;NA;NA
Shallow Question;html.Page;2_7_0_0;NA;NA;form submission;5236.58;275379;275375.8;275392.42;280629;280629;2023-02-11T17:42:19Z;280628.34;Wechsel;ugeuzaji;s;utambulisho;kujenga;wasiwasi;ugeuzaji;NA;NA;"c(""distractor1"", ""distractor2"", ""distractor3"")";NA;NA;NA;NA;NA;NA;NA;NA;NA;NA;NA;NA;NA;NA;NA;NA;NA;NA;NA
Save data screen;canvas.Screen;2_7_0_1;NA;NA;timeout;497.48;280630;280628.06;280628.34;281109.14;281110;2023-02-11T17:42:20Z;281125.82;Wechsel;ugeuzaji;s;utambulisho;kujenga;wasiwasi;NA;NA;1;"c(""distractor1"", ""distractor2"", ""distractor3"")";NA;NA;NA;NA;NA;NA;NA;NA;NA;NA;NA;NA;NA;NA;NA;NA;NA;NA;NA
shallow;flow.Sequence;2_7_0;NA;NA;completion;5716.72;275379;275375.8;275392.42;281109.14;281111;2023-02-11T17:42:20Z;281125.82;Wechsel;ugeuzaji;s;utambulisho;kujenga;wasiwasi;NA;NA;NA;"c(""distractor1"", ""distractor2"", ""distractor3"")";NA;NA;NA;NA;NA;NA;NA;NA;NA;NA;NA;NA;NA;NA;NA;NA;NA;NA;NA
task;flow.Sequence;2_7;NA;NA;completion;5716.72;275379;275375.8;275392.42;281109.14;281112;2023-02-11T17:42:20Z;281125.82;Wechsel;ugeuzaji;s;utambulisho;kujenga;wasiwasi;NA;NA;NA;"c(""distractor1"", ""distractor2"", ""distractor3"")";NA;NA;NA;NA;NA;NA;NA;NA;NA;NA;NA;NA;NA;NA;NA;NA;NA;NA;NA
Shallow Question;html.Page;2_8_0_0;NA;NA;form submission;8654.18;281112;281109.14;281125.82;289780;289780;2023-02-11T17:42:28Z;289779.68;Integrität;uadilifu;s;muungano;mtiririko;upunguaji;uadilifu;NA;NA;"c(""distractor1"", ""distractor2"", ""distractor3"")";NA;NA;NA;NA;NA;NA;NA;NA;NA;NA;NA;NA;NA;NA;NA;NA;NA;NA;NA
Save data screen;canvas.Screen;2_8_0_1;NA;NA;timeout;496.26;289782;289779.34;289779.68;290259.3;290264;2023-02-11T17:42:29Z;290275.94;Integrität;uadilifu;s;muungano;mtiririko;upunguaji;NA;NA;1;"c(""distractor1"", ""distractor2"", ""distractor3"")";NA;NA;NA;NA;NA;NA;NA;NA;NA;NA;NA;NA;NA;NA;NA;NA;NA;NA;NA
shallow;flow.Sequence;2_8_0;NA;NA;completion;9133.48;281112;281109.14;281125.82;290259.3;290269;2023-02-11T17:42:29Z;290275.94;Integrität;uadilifu;s;muungano;mtiririko;upunguaji;NA;NA;NA;"c(""distractor1"", ""distractor2"", ""distractor3"")";NA;NA;NA;NA;NA;NA;NA;NA;NA;NA;NA;NA;NA;NA;NA;NA;NA;NA;NA
task;flow.Sequence;2_8;NA;NA;completion;9133.48;281112;281109.14;281125.82;290259.3;290271;2023-02-11T17:42:29Z;290275.94;Integrität;uadilifu;s;muungano;mtiririko;upunguaji;NA;NA;NA;"c(""distractor1"", ""distractor2"", ""distractor3"")";NA;NA;NA;NA;NA;NA;NA;NA;NA;NA;NA;NA;NA;NA;NA;NA;NA;NA;NA
Shallow Question;html.Page;2_9_0_0;NA;NA;form submission;5288.06;290273;290259.3;290275.94;295564;295565;2023-02-11T17:42:34Z;295562.32;Fleisch;mshakiki;s;kizunguzungu;mshikamano;angusho;mshakiki;NA;NA;"c(""distractor1"", ""distractor2"", ""distractor3"")";NA;NA;NA;NA;NA;NA;NA;NA;NA;NA;NA;NA;NA;NA;NA;NA;NA;NA;NA
Save data screen;canvas.Screen;2_9_0_1;NA;NA;timeout;497.02;295571;295562;295562.32;296042.68;296045;2023-02-11T17:42:35Z;296059.34;Fleisch;mshakiki;s;kizunguzungu;mshikamano;angusho;NA;NA;1;"c(""distractor1"", ""distractor2"", ""distractor3"")";NA;NA;NA;NA;NA;NA;NA;NA;NA;NA;NA;NA;NA;NA;NA;NA;NA;NA;NA
shallow;flow.Sequence;2_9_0;NA;NA;completion;5766.74;290273;290259.3;290275.94;296042.68;296047;2023-02-11T17:42:35Z;296059.34;Fleisch;mshakiki;s;kizunguzungu;mshikamano;angusho;NA;NA;NA;"c(""distractor1"", ""distractor2"", ""distractor3"")";NA;NA;NA;NA;NA;NA;NA;NA;NA;NA;NA;NA;NA;NA;NA;NA;NA;NA;NA
task;flow.Sequence;2_9;NA;NA;completion;5766.74;290273;290259.3;290275.94;296042.68;296048;2023-02-11T17:42:35Z;296059.34;Fleisch;mshakiki;s;kizunguzungu;mshikamano;angusho;NA;NA;NA;"c(""distractor1"", ""distractor2"", ""distractor3"")";NA;NA;NA;NA;NA;NA;NA;NA;NA;NA;NA;NA;NA;NA;NA;NA;NA;NA;NA
Shallow Question;html.Page;2_10_0_0;NA;NA;form submission;9534.66;296050;296042.68;296059.34;305594;305595;2023-02-11T17:42:44Z;305593.88;Atmosphäre;angahewa;d;kuteseka;usahihi;kutoamini;angahewa;NA;NA;"c(""distractor1"", ""distractor2"", ""distractor3"")";NA;NA;NA;NA;NA;NA;NA;NA;NA;NA;NA;NA;NA;NA;NA;NA;NA;NA;NA
Save data screen;canvas.Screen;2_10_0_1;NA;NA;timeout;498.88;305598;305593.54;305593.88;306076.1;306077;2023-02-11T17:42:45Z;306092.76;Atmosphäre;angahewa;d;kuteseka;usahihi;kutoamini;NA;NA;1;"c(""distractor1"", ""distractor2"", ""distractor3"")";NA;NA;NA;NA;NA;NA;NA;NA;NA;NA;NA;NA;NA;NA;NA;NA;NA;NA;NA
shallow;flow.Sequence;2_10_0;NA;NA;completion;10016.76;296050;296042.68;296059.34;306076.1;306079;2023-02-11T17:42:45Z;306092.76;Atmosphäre;angahewa;d;kuteseka;usahihi;kutoamini;NA;NA;NA;"c(""distractor1"", ""distractor2"", ""distractor3"")";NA;NA;NA;NA;NA;NA;NA;NA;NA;NA;NA;NA;NA;NA;NA;NA;NA;NA;NA
task;flow.Sequence;2_10;NA;NA;completion;10016.76;296049;296042.68;296059.34;306076.1;306081;2023-02-11T17:42:45Z;306092.76;Atmosphäre;angahewa;d;kuteseka;usahihi;kutoamini;NA;NA;NA;"c(""distractor1"", ""distractor2"", ""distractor3"")";NA;NA;NA;NA;NA;NA;NA;NA;NA;NA;NA;NA;NA;NA;NA;NA;NA;NA;NA
Shallow Question;html.Page;2_11_0_0;NA;NA;form submission;4502.24;306082;306076.1;306092.76;310595;310595;2023-02-11T17:42:49Z;310594.12;Betrüger;mdanganyifu;d;mwanamuziki;wastani;mahakama;mdanganyifu;NA;NA;"c(""distractor1"", ""distractor2"", ""distractor3"")";NA;NA;NA;NA;NA;NA;NA;NA;NA;NA;NA;NA;NA;NA;NA;NA;NA;NA;NA
Save data screen;canvas.Screen;2_11_0_1;NA;NA;timeout;498.68;310598;310593.74;310594.12;311076.14;311078;2023-02-11T17:42:50Z;311092.8;Betrüger;mdanganyifu;d;mwanamuziki;wastani;mahakama;NA;NA;1;"c(""distractor1"", ""distractor2"", ""distractor3"")";NA;NA;NA;NA;NA;NA;NA;NA;NA;NA;NA;NA;NA;NA;NA;NA;NA;NA;NA
shallow;flow.Sequence;2_11_0;NA;NA;completion;4983.38;306082;306076.1;306092.76;311076.14;311079;2023-02-11T17:42:50Z;311092.8;Betrüger;mdanganyifu;d;mwanamuziki;wastani;mahakama;NA;NA;NA;"c(""distractor1"", ""distractor2"", ""distractor3"")";NA;NA;NA;NA;NA;NA;NA;NA;NA;NA;NA;NA;NA;NA;NA;NA;NA;NA;NA
task;flow.Sequence;2_11;NA;NA;completion;4983.38;306081;306076.1;306092.76;311076.14;311080;2023-02-11T17:42:50Z;311092.8;Betrüger;mdanganyifu;d;mwanamuziki;wastani;mahakama;NA;NA;NA;"c(""distractor1"", ""distractor2"", ""distractor3"")";NA;NA;NA;NA;NA;NA;NA;NA;NA;NA;NA;NA;NA;NA;NA;NA;NA;NA;NA
Shallow Question;html.Page;2_12_0_0;NA;NA;form submission;4071.2;311081;311076.14;311092.8;315164;315164;2023-02-11T17:42:54Z;315163.92;Entwicklung;maendeleo;d;uangavu;mshindwa;badiliko;maendeleo;NA;NA;"c(""distractor1"", ""distractor2"", ""distractor3"")";NA;NA;NA;NA;NA;NA;NA;NA;NA;NA;NA;NA;NA;NA;NA;NA;NA;NA;NA
Save data screen;canvas.Screen;2_12_0_1;NA;NA;timeout;495.62;315166;315163.54;315163.92;315642.88;315645;2023-02-11T17:42:54Z;315659.54;Entwicklung;maendeleo;d;uangavu;mshindwa;badiliko;NA;NA;1;"c(""distractor1"", ""distractor2"", ""distractor3"")";NA;NA;NA;NA;NA;NA;NA;NA;NA;NA;NA;NA;NA;NA;NA;NA;NA;NA;NA
shallow;flow.Sequence;2_12_0;NA;NA;completion;4550.08;311081;311076.14;311092.8;315642.88;315646;2023-02-11T17:42:54Z;315659.54;Entwicklung;maendeleo;d;uangavu;mshindwa;badiliko;NA;NA;NA;"c(""distractor1"", ""distractor2"", ""distractor3"")";NA;NA;NA;NA;NA;NA;NA;NA;NA;NA;NA;NA;NA;NA;NA;NA;NA;NA;NA
task;flow.Sequence;2_12;NA;NA;completion;4550.08;311081;311076.14;311092.8;315642.88;315646;2023-02-11T17:42:54Z;315659.54;Entwicklung;maendeleo;d;uangavu;mshindwa;badiliko;NA;NA;NA;"c(""distractor1"", ""distractor2"", ""distractor3"")";NA;NA;NA;NA;NA;NA;NA;NA;NA;NA;NA;NA;NA;NA;NA;NA;NA;NA;NA
Shallow Question;html.Page;2_13_0_0;NA;NA;form submission;3237.46;315647;315642.88;315659.54;318897;318897;2023-02-11T17:42:58Z;318896.38;Genehmigung;idhini;d;mwanamke;itikadi;fedheha;idhini;NA;NA;"c(""distractor1"", ""distractor2"", ""distractor3"")";NA;NA;NA;NA;NA;NA;NA;NA;NA;NA;NA;NA;NA;NA;NA;NA;NA;NA;NA
Save data screen;canvas.Screen;2_13_0_1;NA;NA;timeout;496.5;318899;318896.04;318896.38;319376.34;319378;2023-02-11T17:42:58Z;319392.88;Genehmigung;idhini;d;mwanamke;itikadi;fedheha;NA;NA;1;"c(""distractor1"", ""distractor2"", ""distractor3"")";NA;NA;NA;NA;NA;NA;NA;NA;NA;NA;NA;NA;NA;NA;NA;NA;NA;NA;NA
shallow;flow.Sequence;2_13_0;NA;NA;completion;3716.8;315647;315642.88;315659.54;319376.34;319380;2023-02-11T17:42:58Z;319392.88;Genehmigung;idhini;d;mwanamke;itikadi;fedheha;NA;NA;NA;"c(""distractor1"", ""distractor2"", ""distractor3"")";NA;NA;NA;NA;NA;NA;NA;NA;NA;NA;NA;NA;NA;NA;NA;NA;NA;NA;NA
task;flow.Sequence;2_13;NA;NA;completion;3716.8;315646;315642.88;315659.54;319376.34;319380;2023-02-11T17:42:58Z;319392.88;Genehmigung;idhini;d;mwanamke;itikadi;fedheha;NA;NA;NA;"c(""distractor1"", ""distractor2"", ""distractor3"")";NA;NA;NA;NA;NA;NA;NA;NA;NA;NA;NA;NA;NA;NA;NA;NA;NA;NA;NA
Shallow Question;html.Page;2_14_0_0;NA;NA;form submission;5640.12;319381;319376.34;319392.88;325033;325034;2023-02-11T17:43:04Z;325033.06;Respekt;heshima;s;changamnao;upinzani;ufanisi;heshima;NA;NA;"c(""distractor1"", ""distractor2"", ""distractor3"")";NA;NA;NA;NA;NA;NA;NA;NA;NA;NA;NA;NA;NA;NA;NA;NA;NA;NA;NA
Save data screen;canvas.Screen;2_14_0_1;NA;NA;timeout;493.32;325036;325032.7;325033.06;325509.78;325511;2023-02-11T17:43:04Z;325526.38;Respekt;heshima;s;changamnao;upinzani;ufanisi;NA;NA;1;"c(""distractor1"", ""distractor2"", ""distractor3"")";NA;NA;NA;NA;NA;NA;NA;NA;NA;NA;NA;NA;NA;NA;NA;NA;NA;NA;NA
shallow;flow.Sequence;2_14_0;NA;NA;completion;6116.9;319381;319376.34;319392.88;325509.78;325512;2023-02-11T17:43:04Z;325526.38;Respekt;heshima;s;changamnao;upinzani;ufanisi;NA;NA;NA;"c(""distractor1"", ""distractor2"", ""distractor3"")";NA;NA;NA;NA;NA;NA;NA;NA;NA;NA;NA;NA;NA;NA;NA;NA;NA;NA;NA
task;flow.Sequence;2_14;NA;NA;completion;6116.9;319381;319376.34;319392.88;325509.78;325513;2023-02-11T17:43:04Z;325526.38;Respekt;heshima;s;changamnao;upinzani;ufanisi;NA;NA;NA;"c(""distractor1"", ""distractor2"", ""distractor3"")";NA;NA;NA;NA;NA;NA;NA;NA;NA;NA;NA;NA;NA;NA;NA;NA;NA;NA;NA
Shallow Question;html.Page;2_15_0_0;NA;NA;form submission;6836.62;325513;325509.78;325526.38;332363;332363;2023-02-11T17:43:11Z;332362.08;Erneuerung;ukarabati;s;ushawishi;ukalifu;unyonyaji;ukarabati;NA;NA;"c(""distractor1"", ""distractor2"", ""distractor3"")";NA;NA;NA;NA;NA;NA;NA;NA;NA;NA;NA;NA;NA;NA;NA;NA;NA;NA;NA
Save data screen;canvas.Screen;2_15_0_1;NA;NA;timeout;497.64;332364;332361.7;332362.08;332843.06;332845;2023-02-11T17:43:12Z;332859.72;Erneuerung;ukarabati;s;ushawishi;ukalifu;unyonyaji;NA;NA;1;"c(""distractor1"", ""distractor2"", ""distractor3"")";NA;NA;NA;NA;NA;NA;NA;NA;NA;NA;NA;NA;NA;NA;NA;NA;NA;NA;NA
shallow;flow.Sequence;2_15_0;NA;NA;completion;7316.68;325513;325509.78;325526.38;332843.06;332846;2023-02-11T17:43:12Z;332859.72;Erneuerung;ukarabati;s;ushawishi;ukalifu;unyonyaji;NA;NA;NA;"c(""distractor1"", ""distractor2"", ""distractor3"")";NA;NA;NA;NA;NA;NA;NA;NA;NA;NA;NA;NA;NA;NA;NA;NA;NA;NA;NA
task;flow.Sequence;2_15;NA;NA;completion;7316.68;325513;325509.78;325526.38;332843.06;332846;2023-02-11T17:43:12Z;332859.72;Erneuerung;ukarabati;s;ushawishi;ukalifu;unyonyaji;NA;NA;NA;"c(""distractor1"", ""distractor2"", ""distractor3"")";NA;NA;NA;NA;NA;NA;NA;NA;NA;NA;NA;NA;NA;NA;NA;NA;NA;NA;NA
retrieval block 2 (multiple choice);flow.Loop;2;NA;NA;completion;96751.08;236082;236075.32;236091.98;332843.06;332846;2023-02-11T17:43:12Z;332859.72;NA;NA;NA;NA;NA;NA;NA;NA;NA;"c(""distractor1"", ""distractor2"", ""distractor3"")";NA;NA;NA;NA;NA;NA;NA;NA;NA;NA;NA;NA;NA;NA;NA;NA;NA;NA;NA
End;canvas.Screen;3;NA;keypress(Space);response;1195.28;332847;332843.06;332859.72;334055;334071;2023-02-11T17:43:13Z;334072.8;NA;NA;NA;NA;NA;NA;NA;NA;NA;NULL;NA;NA;NA;NA;NA;NA;NA;NA;NA;NA;NA;NA;NA;NA;NA;NA;NA;NA;NA
root;flow.Sequence;NA;NA;NA;completion;329615.72;4403;4405.94;4439.28;334055;334072;2023-02-11T17:43:13Z;334072.8;NA;NA;NA;NA;NA;NA;NA;NA;NA;NULL;NA;NA;NA;NA;NA;NA;NA;NA;NA;NA;NA;NA;NA;NA;NA;NA;NA;NA;NA