observation,sender,sender_type,sender_id,response,response_action,ended_on,duration,time_run,time_render,time_show,time_end,time_commit,timestamp,time_switch,distractors,german,swahili,enc,distractor1,distractor2,distractor3,response_2,x,correct,x_2,url_vp,url_sess,meta_labjs_version,meta_location,meta_user_agent,meta_platform,meta_language,meta_locale,meta_time_zone,meta_timezone_offset,meta_screen_width,meta_screen_height,meta_scroll_width,meta_scroll_height,meta_window_inner_width,meta_window_inner_height,meta_device_pixel_ratio,meta_labjs_build_flavor,meta_labjs_build_commit
e76f8,Introduction general,canvas.Screen,0,weiter,keypress(q),response,25708.099999619,406.69999980927,398.324,414.8,26122.899999619,26123.799999714,2024-05-23T09:04:49Z,26132.6,NULL,NA,NA,NA,NA,NA,NA,NA,NA,NA,NA,225,3,20.2.4,https://neurocog.fernuni.ch/studies/vweber/aberisha/encoding_immediate/index.html?vp=225&sess=3,"Mozilla/5.0 (Windows NT 10.0; Win64; x64) AppleWebKit/537.36 (KHTML, like Gecko) Chrome/124.0.0.0 Safari/537.36",Win32,de-DE,de,Europe/Zurich,-120,1536,864,1536,682,1536,730,1.25,production,f5b4a49f956347addd546a832a3327688c2c0fef
e76f8,Introduction practice,canvas.Screen,1_0,NA,keypress(Space),response,4003.0999998093,26123.899999619,26122,26132.6,30135.699999809,30136.5,2024-05-23T09:04:53Z,30146.7,NULL,NA,NA,NA,NA,NA,NA,NA,NA,NA,NA,NA,NA,NA,NA,NA,NA,NA,NA,NA,NA,NA,NA,NA,NA,NA,NA,NA,NA,NA
e76f8,deep,flow.Sequence,1_1_0_0,NA,NA,skipped,NA,30136.799999714,NA,NA,30135.699999809,30137.199999809,2024-05-23T09:04:53Z,30146.7,"c(""distractor1"", ""distractor2"", ""distractor3"")",Gegenwart,hadhara,s,katiba,jokofu,mikopo,NA,NA,NA,NA,NA,NA,NA,NA,NA,NA,NA,NA,NA,NA,NA,NA,NA,NA,NA,NA,NA,NA,NA
e76f8,Shallow Question,html.Page,1_1_0_1_0,NA,NA,form submission,9986.6999996185,30137.599999905,30133.7,30146.7,40133.399999619,40133.799999714,2024-05-23T09:05:03Z,40157.3,"c(""distractor1"", ""distractor2"", ""distractor3"")",Gegenwart,hadhara,s,katiba,jokofu,mikopo,jokofu,NA,NA,NA,NA,NA,NA,NA,NA,NA,NA,NA,NA,NA,NA,NA,NA,NA,NA,NA,NA,NA,NA
e76f8,"""Richtig""-Screen",canvas.Screen,1_1_0_1_1,NA,NA,skipped,NA,40135.599999904996,NA,NA,40133.399999619,40135.699999809,2024-05-23T09:05:03Z,40157.3,"c(""distractor1"", ""distractor2"", ""distractor3"")",Gegenwart,hadhara,s,katiba,jokofu,mikopo,NA,NA,NA,NA,NA,NA,NA,NA,NA,NA,NA,NA,NA,NA,NA,NA,NA,NA,NA,NA,NA,NA,NA
e76f8,"""Falsch""-Screen",canvas.Screen,1_1_0_1_2,NA,NA,timeout,4997.2,40137.099999904996,40141,40157.3,45138,45139.399999619,2024-05-23T09:05:08Z,45154.5,"c(""distractor1"", ""distractor2"", ""distractor3"")",Gegenwart,hadhara,s,katiba,jokofu,mikopo,NA,NA,0,NA,NA,NA,NA,NA,NA,NA,NA,NA,NA,NA,NA,NA,NA,NA,NA,NA,NA,NA,NA
e76f8,shallow,flow.Sequence,1_1_0_1,NA,NA,completion,14991.3,30137.5,30133.7,30146.7,45138,45139.899999619,2024-05-23T09:05:08Z,45154.5,"c(""distractor1"", ""distractor2"", ""distractor3"")",Gegenwart,hadhara,s,katiba,jokofu,mikopo,NA,NA,NA,NA,NA,NA,NA,NA,NA,NA,NA,NA,NA,NA,NA,NA,NA,NA,NA,NA,NA,NA,NA
e76f8,task,flow.Sequence,1_1_0,NA,NA,completion,14991.3,30136.799999714,30133.7,30146.7,45138,45140.299999714,2024-05-23T09:05:08Z,45154.5,"c(""distractor1"", ""distractor2"", ""distractor3"")",Gegenwart,hadhara,s,katiba,jokofu,mikopo,NA,NA,NA,NA,NA,NA,NA,NA,NA,NA,NA,NA,NA,NA,NA,NA,NA,NA,NA,NA,NA,NA,NA
e76f8,deep,flow.Sequence,1_1_1_0,NA,NA,skipped,NA,45140.599999904996,NA,NA,45138,45141,2024-05-23T09:05:08Z,45154.5,"c(""distractor1"", ""distractor2"", ""distractor3"")",Kritik,lawama,s,dereva,nafasi,mawazo,NA,NA,NA,NA,NA,NA,NA,NA,NA,NA,NA,NA,NA,NA,NA,NA,NA,NA,NA,NA,NA,NA,NA
e76f8,Shallow Question,html.Page,1_1_1_1_0,NA,NA,form submission,5405.7999997139,45141.199999809,45138,45154.5,50560.299999714,50560.699999809,2024-05-23T09:05:14Z,50567.6,"c(""distractor1"", ""distractor2"", ""distractor3"")",Kritik,lawama,s,dereva,nafasi,mawazo,lawama,NA,NA,NA,NA,NA,NA,NA,NA,NA,NA,NA,NA,NA,NA,NA,NA,NA,NA,NA,NA,NA,NA
e76f8,"""Richtig""-Screen",canvas.Screen,1_1_1_1_1,NA,NA,timeout,4997.5,50561.899999619,50552.226,50567.6,55548.3,55549.899999619,2024-05-23T09:05:19Z,55565.1,"c(""distractor1"", ""distractor2"", ""distractor3"")",Kritik,lawama,s,dereva,nafasi,mawazo,NA,NA,1,NA,NA,NA,NA,NA,NA,NA,NA,NA,NA,NA,NA,NA,NA,NA,NA,NA,NA,NA,NA
e76f8,"""Falsch""-Screen",canvas.Screen,1_1_1_1_2,NA,NA,skipped,NA,55552.399999619,NA,NA,55548.3,55552.799999714,2024-05-23T09:05:19Z,55565.1,"c(""distractor1"", ""distractor2"", ""distractor3"")",Kritik,lawama,s,dereva,nafasi,mawazo,NA,NA,NA,NA,NA,NA,NA,NA,NA,NA,NA,NA,NA,NA,NA,NA,NA,NA,NA,NA,NA,NA,NA
e76f8,shallow,flow.Sequence,1_1_1_1,NA,NA,completion,10393.8,45141.099999904996,45138,45154.5,55548.3,55553.199999809,2024-05-23T09:05:19Z,55565.1,"c(""distractor1"", ""distractor2"", ""distractor3"")",Kritik,lawama,s,dereva,nafasi,mawazo,NA,NA,NA,NA,NA,NA,NA,NA,NA,NA,NA,NA,NA,NA,NA,NA,NA,NA,NA,NA,NA,NA,NA
e76f8,task,flow.Sequence,1_1_1,NA,NA,completion,10393.8,45140.599999904996,45138,45154.5,55548.3,55553.399999619,2024-05-23T09:05:19Z,55565.1,"c(""distractor1"", ""distractor2"", ""distractor3"")",Kritik,lawama,s,dereva,nafasi,mawazo,NA,NA,NA,NA,NA,NA,NA,NA,NA,NA,NA,NA,NA,NA,NA,NA,NA,NA,NA,NA,NA,NA,NA
e76f8,Deep Question,html.Page,1_1_2_0_0,NA,NA,form submission,5871.4,55553.699999809,55548.3,55565.1,61436.5,61436.799999714,2024-05-23T09:05:25Z,61444.3,"c(""distractor1"", ""distractor2"", ""distractor3"")",Qualität,mtindo,d,NA,NA,NA,opoko,NA,NA,NA,NA,NA,NA,NA,NA,NA,NA,NA,NA,NA,NA,NA,NA,NA,NA,NA,NA,NA,NA
e76f8,"""Richtig""-Screen",canvas.Screen,1_1_2_0_1,NA,NA,skipped,NA,61437.699999809,NA,NA,61436.5,61437.799999714,2024-05-23T09:05:25Z,61444.3,"c(""distractor1"", ""distractor2"", ""distractor3"")",Qualität,mtindo,d,NA,NA,NA,NA,NA,NA,NA,NA,NA,NA,NA,NA,NA,NA,NA,NA,NA,NA,NA,NA,NA,NA,NA,NA,NA,NA
e76f8,"""Falsch""-Screen",canvas.Screen,1_1_2_0_2,NA,NA,timeout,4997.5,61438.899999619,61428.704,61444.3,66425,66426,2024-05-23T09:05:30Z,66441.8,"c(""distractor1"", ""distractor2"", ""distractor3"")",Qualität,mtindo,d,NA,NA,NA,NA,NA,0,NA,NA,NA,NA,NA,NA,NA,NA,NA,NA,NA,NA,NA,NA,NA,NA,NA,NA,NA,NA
e76f8,deep,flow.Sequence,1_1_2_0,NA,NA,completion,10859.9,55553.699999809,55548.3,55565.1,66425,66426.399999619,2024-05-23T09:05:30Z,66441.8,"c(""distractor1"", ""distractor2"", ""distractor3"")",Qualität,mtindo,d,NA,NA,NA,NA,NA,NA,NA,NA,NA,NA,NA,NA,NA,NA,NA,NA,NA,NA,NA,NA,NA,NA,NA,NA,NA,NA
e76f8,shallow,flow.Sequence,1_1_2_1,NA,NA,skipped,NA,66426.599999905,NA,NA,66425,66426.699999809,2024-05-23T09:05:30Z,66441.8,"c(""distractor1"", ""distractor2"", ""distractor3"")",Qualität,mtindo,d,NA,NA,NA,NA,NA,NA,NA,NA,NA,NA,NA,NA,NA,NA,NA,NA,NA,NA,NA,NA,NA,NA,NA,NA,NA,NA
e76f8,task,flow.Sequence,1_1_2,NA,NA,completion,10859.9,55553.599999904996,55548.3,55565.1,66425,66427,2024-05-23T09:05:30Z,66441.8,"c(""distractor1"", ""distractor2"", ""distractor3"")",Qualität,mtindo,d,NA,NA,NA,NA,NA,NA,NA,NA,NA,NA,NA,NA,NA,NA,NA,NA,NA,NA,NA,NA,NA,NA,NA,NA,NA,NA
e76f8,Deep Question,html.Page,1_1_3_0_0,NA,NA,form submission,4555.7999999046,66427.199999809,66425,66441.8,70997.599999905,70997.899999619,2024-05-23T09:05:34Z,71005.81,"c(""distractor1"", ""distractor2"", ""distractor3"")",Gesundheit,salama,d,NA,NA,NA,mahawa,NA,NA,NA,NA,NA,NA,NA,NA,NA,NA,NA,NA,NA,NA,NA,NA,NA,NA,NA,NA,NA,NA
e76f8,"""Richtig""-Screen",canvas.Screen,1_1_3_0_1,NA,NA,skipped,NA,71001,NA,NA,70997.599999905,71001.099999905,2024-05-23T09:05:34Z,71005.81,"c(""distractor1"", ""distractor2"", ""distractor3"")",Gesundheit,salama,d,NA,NA,NA,NA,NA,NA,NA,NA,NA,NA,NA,NA,NA,NA,NA,NA,NA,NA,NA,NA,NA,NA,NA,NA,NA,NA
e76f8,"""Falsch""-Screen",canvas.Screen,1_1_3_0_2,NA,NA,timeout,4996.79,71002.199999809,71005.81,71005.81,75985.8,75986.799999714,2024-05-23T09:05:39Z,76002.6,"c(""distractor1"", ""distractor2"", ""distractor3"")",Gesundheit,salama,d,NA,NA,NA,NA,NA,0,NA,NA,NA,NA,NA,NA,NA,NA,NA,NA,NA,NA,NA,NA,NA,NA,NA,NA,NA,NA
e76f8,deep,flow.Sequence,1_1_3_0,NA,NA,completion,9544,66427.199999809,66425,66441.8,75985.8,75987.199999809,2024-05-23T09:05:39Z,76002.6,"c(""distractor1"", ""distractor2"", ""distractor3"")",Gesundheit,salama,d,NA,NA,NA,NA,NA,NA,NA,NA,NA,NA,NA,NA,NA,NA,NA,NA,NA,NA,NA,NA,NA,NA,NA,NA,NA,NA
e76f8,shallow,flow.Sequence,1_1_3_1,NA,NA,skipped,NA,75987.399999619,NA,NA,75985.8,75987.599999905,2024-05-23T09:05:39Z,76002.6,"c(""distractor1"", ""distractor2"", ""distractor3"")",Gesundheit,salama,d,NA,NA,NA,NA,NA,NA,NA,NA,NA,NA,NA,NA,NA,NA,NA,NA,NA,NA,NA,NA,NA,NA,NA,NA,NA,NA
e76f8,task,flow.Sequence,1_1_3,NA,NA,completion,9544,66427.099999905,66425,66441.8,75985.8,75987.799999714,2024-05-23T09:05:39Z,76002.6,"c(""distractor1"", ""distractor2"", ""distractor3"")",Gesundheit,salama,d,NA,NA,NA,NA,NA,NA,NA,NA,NA,NA,NA,NA,NA,NA,NA,NA,NA,NA,NA,NA,NA,NA,NA,NA,NA,NA
e76f8,deep,flow.Sequence,1_1_4_0,NA,NA,skipped,NA,75987.899999619,NA,NA,75985.8,75988,2024-05-23T09:05:39Z,76002.6,"c(""distractor1"", ""distractor2"", ""distractor3"")",Rückhalt,msaada,s,muhula,auwali,kiwimbe,NA,NA,NA,NA,NA,NA,NA,NA,NA,NA,NA,NA,NA,NA,NA,NA,NA,NA,NA,NA,NA,NA,NA
e76f8,Shallow Question,html.Page,1_1_4_1_0,NA,NA,form submission,6499.5999998093,75988.199999809,75985.8,76002.6,82502.199999809,82502.5,2024-05-23T09:05:46Z,82514.9,"c(""distractor1"", ""distractor2"", ""distractor3"")",Rückhalt,msaada,s,muhula,auwali,kiwimbe,kiwimbe,NA,NA,NA,NA,NA,NA,NA,NA,NA,NA,NA,NA,NA,NA,NA,NA,NA,NA,NA,NA,NA,NA
e76f8,"""Richtig""-Screen",canvas.Screen,1_1_4_1_1,NA,NA,skipped,NA,82505.599999905,NA,NA,82502.199999809,82505.799999714,2024-05-23T09:05:46Z,82514.9,"c(""distractor1"", ""distractor2"", ""distractor3"")",Rückhalt,msaada,s,muhula,auwali,kiwimbe,NA,NA,NA,NA,NA,NA,NA,NA,NA,NA,NA,NA,NA,NA,NA,NA,NA,NA,NA,NA,NA,NA,NA
e76f8,"""Falsch""-Screen",canvas.Screen,1_1_4_1_2,NA,NA,timeout,4997.2,82506.299999714,82498.6,82514.9,87495.4,87496.5,2024-05-23T09:05:51Z,87512.1,"c(""distractor1"", ""distractor2"", ""distractor3"")",Rückhalt,msaada,s,muhula,auwali,kiwimbe,NA,NA,0,NA,NA,NA,NA,NA,NA,NA,NA,NA,NA,NA,NA,NA,NA,NA,NA,NA,NA,NA,NA
e76f8,shallow,flow.Sequence,1_1_4_1,NA,NA,completion,11492.8,75988.099999905,75985.8,76002.6,87495.4,87496.799999714,2024-05-23T09:05:51Z,87512.1,"c(""distractor1"", ""distractor2"", ""distractor3"")",Rückhalt,msaada,s,muhula,auwali,kiwimbe,NA,NA,NA,NA,NA,NA,NA,NA,NA,NA,NA,NA,NA,NA,NA,NA,NA,NA,NA,NA,NA,NA,NA
e76f8,task,flow.Sequence,1_1_4,NA,NA,completion,11492.8,75987.899999619,75985.8,76002.6,87495.4,87496.899999619,2024-05-23T09:05:51Z,87512.1,"c(""distractor1"", ""distractor2"", ""distractor3"")",Rückhalt,msaada,s,muhula,auwali,kiwimbe,NA,NA,NA,NA,NA,NA,NA,NA,NA,NA,NA,NA,NA,NA,NA,NA,NA,NA,NA,NA,NA,NA,NA
e76f8,Deep Question,html.Page,1_1_5_0_0,NA,NA,form submission,5994.0999998093,87497.099999905,87495.4,87512.1,93506.199999809,93506.399999619,2024-05-23T09:05:57Z,93508.464,"c(""distractor1"", ""distractor2"", ""distractor3"")",Schatten,kivuli,d,NA,NA,NA,nada,NA,NA,NA,NA,NA,NA,NA,NA,NA,NA,NA,NA,NA,NA,NA,NA,NA,NA,NA,NA,NA,NA
e76f8,"""Richtig""-Screen",canvas.Screen,1_1_5_0_1,NA,NA,skipped,NA,93509.399999619,NA,NA,93506.199999809,93509.5,2024-05-23T09:05:57Z,93508.464,"c(""distractor1"", ""distractor2"", ""distractor3"")",Schatten,kivuli,d,NA,NA,NA,NA,NA,NA,NA,NA,NA,NA,NA,NA,NA,NA,NA,NA,NA,NA,NA,NA,NA,NA,NA,NA,NA,NA
e76f8,"""Falsch""-Screen",canvas.Screen,1_1_5_0_2,NA,NA,timeout,4997.136,93510.399999619,93508.464,93508.464,98488.6,98489.599999905,2024-05-23T09:06:02Z,98505.6,"c(""distractor1"", ""distractor2"", ""distractor3"")",Schatten,kivuli,d,NA,NA,NA,NA,NA,0,NA,NA,NA,NA,NA,NA,NA,NA,NA,NA,NA,NA,NA,NA,NA,NA,NA,NA,NA,NA
e76f8,deep,flow.Sequence,1_1_5_0,NA,NA,completion,10976.5,87497,87495.4,87512.1,98488.6,98489.899999619,2024-05-23T09:06:02Z,98505.6,"c(""distractor1"", ""distractor2"", ""distractor3"")",Schatten,kivuli,d,NA,NA,NA,NA,NA,NA,NA,NA,NA,NA,NA,NA,NA,NA,NA,NA,NA,NA,NA,NA,NA,NA,NA,NA,NA,NA
e76f8,shallow,flow.Sequence,1_1_5_1,NA,NA,skipped,NA,98490.099999905,NA,NA,98488.6,98490.199999809,2024-05-23T09:06:02Z,98505.6,"c(""distractor1"", ""distractor2"", ""distractor3"")",Schatten,kivuli,d,NA,NA,NA,NA,NA,NA,NA,NA,NA,NA,NA,NA,NA,NA,NA,NA,NA,NA,NA,NA,NA,NA,NA,NA,NA,NA
e76f8,task,flow.Sequence,1_1_5,NA,NA,completion,10976.5,87497,87495.4,87512.1,98488.6,98490.399999619,2024-05-23T09:06:02Z,98505.6,"c(""distractor1"", ""distractor2"", ""distractor3"")",Schatten,kivuli,d,NA,NA,NA,NA,NA,NA,NA,NA,NA,NA,NA,NA,NA,NA,NA,NA,NA,NA,NA,NA,NA,NA,NA,NA,NA,NA
e76f8,block,flow.Loop,1_1,NA,NA,completion,68341.9,30136.799999714,30133.7,30146.7,98488.6,98490.799999714,2024-05-23T09:06:02Z,98505.6,"c(""distractor1"", ""distractor2"", ""distractor3"")",NA,NA,NA,NA,NA,NA,NA,NA,NA,NA,NA,NA,NA,NA,NA,NA,NA,NA,NA,NA,NA,NA,NA,NA,NA,NA,NA,NA,NA
e76f8,Practice,flow.Sequence,1,NA,NA,completion,72356,26123.899999619,26122,26132.6,98488.6,98491.099999905,2024-05-23T09:06:02Z,98505.6,NULL,NA,NA,NA,NA,NA,NA,NA,NA,NA,NA,NA,NA,NA,NA,NA,NA,NA,NA,NA,NA,NA,NA,NA,NA,NA,NA,NA,NA,NA
e76f8,Experiment start,canvas.Screen,2,weiter,keypress(q),response,8672.9,98491.199999809,98488.6,98505.6,107178.5,107179.5999999,2024-05-23T09:06:11Z,107250.1,NULL,NA,NA,NA,NA,NA,NA,NA,NA,NA,NA,NA,NA,NA,NA,NA,NA,NA,NA,NA,NA,NA,NA,NA,NA,NA,NA,NA,NA,NA
e76f8,Deep Question,html.Page,3_0_0_0_0_0_0,NA,NA,form submission,13598.999999905,107233.19999980999,107218.58,107250.1,120849.0999999,120849.39999962,2024-05-23T09:06:24Z,120858,NULL,Ergänzung,kijalizo,d,NA,NA,NA,muhamA,NA,NA,0,NA,NA,NA,NA,NA,NA,NA,NA,NA,NA,NA,NA,NA,NA,NA,NA,NA,NA,NA
e76f8,"""Richtig""-Screen",canvas.Screen,3_0_0_0_0_0_1,NA,NA,skipped,NA,120852.29999971,NA,NA,120849.0999999,120852.39999962,2024-05-23T09:06:24Z,120858,NULL,Ergänzung,kijalizo,d,NA,NA,NA,NA,sdf,NA,0,NA,NA,NA,NA,NA,NA,NA,NA,NA,NA,NA,NA,NA,NA,NA,NA,NA,NA,NA
e76f8,"""Falsch""-Screen",canvas.Screen,3_0_0_0_0_0_2,NA,NA,timeout,4997.2,120853.29999971,120842.392,120858,125838.8,125840.19999980999,2024-05-23T09:06:29Z,125855.2,NULL,Ergänzung,kijalizo,d,NA,NA,NA,NA,sdf,0,0,NA,NA,NA,NA,NA,NA,NA,NA,NA,NA,NA,NA,NA,NA,NA,NA,NA,NA,NA
e76f8,deep,flow.Sequence,3_0_0_0_0_0,NA,NA,completion,18588.7,107233.19999980999,107218.58,107250.1,125838.8,125840.69999981,2024-05-23T09:06:29Z,125855.2,NULL,Ergänzung,kijalizo,d,NA,NA,NA,NA,sdf,NA,0,NA,NA,NA,NA,NA,NA,NA,NA,NA,NA,NA,NA,NA,NA,NA,NA,NA,NA,NA
e76f8,shallow,flow.Sequence,3_0_0_0_0_1,NA,NA,skipped,NA,125840.79999971,NA,NA,125838.8,125841,2024-05-23T09:06:29Z,125855.2,NULL,Ergänzung,kijalizo,d,NA,NA,NA,NA,sdf,NA,0,NA,NA,NA,NA,NA,NA,NA,NA,NA,NA,NA,NA,NA,NA,NA,NA,NA,NA,NA
e76f8,task,flow.Sequence,3_0_0_0_0,NA,NA,completion,18588.7,107233.19999980999,107218.58,107250.1,125838.8,125841.19999980999,2024-05-23T09:06:29Z,125855.2,NULL,Ergänzung,kijalizo,d,NA,NA,NA,NA,sdf,NA,0,NA,NA,NA,NA,NA,NA,NA,NA,NA,NA,NA,NA,NA,NA,NA,NA,NA,NA,NA
e76f8,deep,flow.Sequence,3_0_0_0_1_0,NA,NA,skipped,NA,125841.29999971,NA,NA,125838.8,125841.39999962,2024-05-23T09:06:29Z,125855.2,NULL,Notfall,dharura,s,rairai,malalamiko,ahueni,NA,sdf,NA,0,NA,NA,NA,NA,NA,NA,NA,NA,NA,NA,NA,NA,NA,NA,NA,NA,NA,NA,NA
e76f8,Shallow Question,html.Page,3_0_0_0_1_1_0,NA,NA,form submission,4838.9999998093,125841.5,125838.8,125855.2,130694.19999981,130694.29999971,2024-05-23T09:06:34Z,130702,NULL,Notfall,dharura,s,rairai,malalamiko,ahueni,ahueni,NA,NA,0,NA,NA,NA,NA,NA,NA,NA,NA,NA,NA,NA,NA,NA,NA,NA,NA,NA,NA,NA
e76f8,"""Richtig""-Screen",canvas.Screen,3_0_0_0_1_1_1,NA,NA,skipped,NA,130697.29999971,NA,NA,130694.19999981,130697.5,2024-05-23T09:06:34Z,130702,NULL,Notfall,dharura,s,rairai,malalamiko,ahueni,NA,sdf,NA,0,NA,NA,NA,NA,NA,NA,NA,NA,NA,NA,NA,NA,NA,NA,NA,NA,NA,NA,NA
e76f8,"""Falsch""-Screen",canvas.Screen,3_0_0_0_1_1_2,NA,NA,timeout,4997.3,130698.29999971,130685.954,130702,135682.4,135683.5,2024-05-23T09:06:39Z,135699.3,NULL,Notfall,dharura,s,rairai,malalamiko,ahueni,NA,sdf,0,0,NA,NA,NA,NA,NA,NA,NA,NA,NA,NA,NA,NA,NA,NA,NA,NA,NA,NA,NA
e76f8,shallow,flow.Sequence,3_0_0_0_1_1,NA,NA,completion,9827.2,125841.5,125838.8,125855.2,135682.4,135683.89999962,2024-05-23T09:06:39Z,135699.3,NULL,Notfall,dharura,s,rairai,malalamiko,ahueni,NA,sdf,NA,0,NA,NA,NA,NA,NA,NA,NA,NA,NA,NA,NA,NA,NA,NA,NA,NA,NA,NA,NA
e76f8,task,flow.Sequence,3_0_0_0_1,NA,NA,completion,9827.2,125841.19999980999,125838.8,125855.2,135682.4,135684.0999999,2024-05-23T09:06:39Z,135699.3,NULL,Notfall,dharura,s,rairai,malalamiko,ahueni,NA,sdf,NA,0,NA,NA,NA,NA,NA,NA,NA,NA,NA,NA,NA,NA,NA,NA,NA,NA,NA,NA,NA
e76f8,Deep Question,html.Page,3_0_0_0_2_0_0,NA,NA,form submission,3655.7999999046,135684.29999971,135682.4,135699.3,139355.0999999,139355.39999961999,2024-05-23T09:06:43Z,139363.4,NULL,Stimmung,kinyongo,d,NA,NA,NA,n,NA,NA,0,NA,NA,NA,NA,NA,NA,NA,NA,NA,NA,NA,NA,NA,NA,NA,NA,NA,NA,NA
e76f8,"""Richtig""-Screen",canvas.Screen,3_0_0_0_2_0_1,NA,NA,skipped,NA,139358.39999961999,NA,NA,139355.0999999,139358.5,2024-05-23T09:06:43Z,139363.4,NULL,Stimmung,kinyongo,d,NA,NA,NA,NA,sdf,NA,0,NA,NA,NA,NA,NA,NA,NA,NA,NA,NA,NA,NA,NA,NA,NA,NA,NA,NA,NA
e76f8,"""Falsch""-Screen",canvas.Screen,3_0_0_0_2_0_2,NA,NA,timeout,4997.3,139359.19999981,139347.33,139363.4,144344,144345.0999999,2024-05-23T09:06:48Z,144360.7,NULL,Stimmung,kinyongo,d,NA,NA,NA,NA,sdf,0,0,NA,NA,NA,NA,NA,NA,NA,NA,NA,NA,NA,NA,NA,NA,NA,NA,NA,NA,NA
e76f8,deep,flow.Sequence,3_0_0_0_2_0,NA,NA,completion,8644.7,135684.29999971,135682.4,135699.3,144344,144345.39999962,2024-05-23T09:06:48Z,144360.7,NULL,Stimmung,kinyongo,d,NA,NA,NA,NA,sdf,NA,0,NA,NA,NA,NA,NA,NA,NA,NA,NA,NA,NA,NA,NA,NA,NA,NA,NA,NA,NA
e76f8,shallow,flow.Sequence,3_0_0_0_2_1,NA,NA,skipped,NA,144345.5,NA,NA,144344,144345.69999981,2024-05-23T09:06:48Z,144360.7,NULL,Stimmung,kinyongo,d,NA,NA,NA,NA,sdf,NA,0,NA,NA,NA,NA,NA,NA,NA,NA,NA,NA,NA,NA,NA,NA,NA,NA,NA,NA,NA
e76f8,task,flow.Sequence,3_0_0_0_2,NA,NA,completion,8644.7,135684.19999981,135682.4,135699.3,144344,144345.89999961999,2024-05-23T09:06:48Z,144360.7,NULL,Stimmung,kinyongo,d,NA,NA,NA,NA,sdf,NA,0,NA,NA,NA,NA,NA,NA,NA,NA,NA,NA,NA,NA,NA,NA,NA,NA,NA,NA,NA
e76f8,deep,flow.Sequence,3_0_0_0_3_0,NA,NA,skipped,NA,144346,NA,NA,144344,144346.0999999,2024-05-23T09:06:48Z,144360.7,NULL,Respekt,heshima,s,changamnao,upinzani,ufanisi,NA,sdf,NA,0,NA,NA,NA,NA,NA,NA,NA,NA,NA,NA,NA,NA,NA,NA,NA,NA,NA,NA,NA
e76f8,Shallow Question,html.Page,3_0_0_0_3_1_0,NA,NA,form submission,1940.3999999046,144346.19999981,144344,144360.7,146301.0999999,146301.29999971,2024-05-23T09:06:50Z,146309.1,NULL,Respekt,heshima,s,changamnao,upinzani,ufanisi,upinzani,NA,NA,0,NA,NA,NA,NA,NA,NA,NA,NA,NA,NA,NA,NA,NA,NA,NA,NA,NA,NA,NA
e76f8,"""Richtig""-Screen",canvas.Screen,3_0_0_0_3_1_1,NA,NA,skipped,NA,146304.29999971,NA,NA,146301.0999999,146304.29999971,2024-05-23T09:06:50Z,146309.1,NULL,Respekt,heshima,s,changamnao,upinzani,ufanisi,NA,sdf,NA,0,NA,NA,NA,NA,NA,NA,NA,NA,NA,NA,NA,NA,NA,NA,NA,NA,NA,NA,NA
e76f8,"""Falsch""-Screen",canvas.Screen,3_0_0_0_3_1_2,NA,NA,timeout,4997.6,146305.29999971,146293.22,146309.1,151289.5,151290.69999981,2024-05-23T09:06:55Z,151306.7,NULL,Respekt,heshima,s,changamnao,upinzani,ufanisi,NA,sdf,0,0,NA,NA,NA,NA,NA,NA,NA,NA,NA,NA,NA,NA,NA,NA,NA,NA,NA,NA,NA
e76f8,shallow,flow.Sequence,3_0_0_0_3_1,NA,NA,completion,6928.8,144346.19999981,144344,144360.7,151289.5,151291,2024-05-23T09:06:55Z,151306.7,NULL,Respekt,heshima,s,changamnao,upinzani,ufanisi,NA,sdf,NA,0,NA,NA,NA,NA,NA,NA,NA,NA,NA,NA,NA,NA,NA,NA,NA,NA,NA,NA,NA
e76f8,task,flow.Sequence,3_0_0_0_3,NA,NA,completion,6928.8,144345.89999961999,144344,144360.7,151289.5,151291.19999981,2024-05-23T09:06:55Z,151306.7,NULL,Respekt,heshima,s,changamnao,upinzani,ufanisi,NA,sdf,NA,0,NA,NA,NA,NA,NA,NA,NA,NA,NA,NA,NA,NA,NA,NA,NA,NA,NA,NA,NA
e76f8,deep,flow.Sequence,3_0_0_0_4_0,NA,NA,skipped,NA,151291.39999962,NA,NA,151289.5,151291.5999999,2024-05-23T09:06:55Z,151306.7,NULL,Orientierung,urekebisho,s,uelekeo,marekebisho,utunzaji,NA,sdf,NA,0,NA,NA,NA,NA,NA,NA,NA,NA,NA,NA,NA,NA,NA,NA,NA,NA,NA,NA,NA
e76f8,Shallow Question,html.Page,3_0_0_0_4_1_0,NA,NA,form submission,2686.3,151291.69999981,151289.5,151306.7,153993,153993.19999981,2024-05-23T09:06:57Z,154004.4,NULL,Orientierung,urekebisho,s,uelekeo,marekebisho,utunzaji,marekebisho,NA,NA,0,NA,NA,NA,NA,NA,NA,NA,NA,NA,NA,NA,NA,NA,NA,NA,NA,NA,NA,NA
e76f8,"""Richtig""-Screen",canvas.Screen,3_0_0_0_4_1_1,NA,NA,skipped,NA,153996.0999999,NA,NA,153993,153996.29999971,2024-05-23T09:06:57Z,154004.4,NULL,Orientierung,urekebisho,s,uelekeo,marekebisho,utunzaji,NA,sdf,NA,0,NA,NA,NA,NA,NA,NA,NA,NA,NA,NA,NA,NA,NA,NA,NA,NA,NA,NA,NA
e76f8,"""Falsch""-Screen",canvas.Screen,3_0_0_0_4_1_2,NA,NA,timeout,4997.4,153997,153989.572,154004.4,158985.1,158986.5,2024-05-23T09:07:02Z,159001.8,NULL,Orientierung,urekebisho,s,uelekeo,marekebisho,utunzaji,NA,sdf,0,0,NA,NA,NA,NA,NA,NA,NA,NA,NA,NA,NA,NA,NA,NA,NA,NA,NA,NA,NA
e76f8,shallow,flow.Sequence,3_0_0_0_4_1,NA,NA,completion,7678.4,151291.69999981,151289.5,151306.7,158985.1,158987,2024-05-23T09:07:02Z,159001.8,NULL,Orientierung,urekebisho,s,uelekeo,marekebisho,utunzaji,NA,sdf,NA,0,NA,NA,NA,NA,NA,NA,NA,NA,NA,NA,NA,NA,NA,NA,NA,NA,NA,NA,NA
e76f8,task,flow.Sequence,3_0_0_0_4,NA,NA,completion,7678.4,151291.29999971,151289.5,151306.7,158985.1,158987.19999981,2024-05-23T09:07:02Z,159001.8,NULL,Orientierung,urekebisho,s,uelekeo,marekebisho,utunzaji,NA,sdf,NA,0,NA,NA,NA,NA,NA,NA,NA,NA,NA,NA,NA,NA,NA,NA,NA,NA,NA,NA,NA
e76f8,Deep Question,html.Page,3_0_0_0_5_0_0,NA,NA,form submission,2349.3999998093,158987.5,158985.1,159001.8,161351.19999981,161351.5,2024-05-23T09:07:05Z,161366.7,NULL,Wohlstand,mafanikio,d,NA,NA,NA,l,NA,NA,0,NA,NA,NA,NA,NA,NA,NA,NA,NA,NA,NA,NA,NA,NA,NA,NA,NA,NA,NA
e76f8,"""Richtig""-Screen",canvas.Screen,3_0_0_0_5_0_1,NA,NA,skipped,NA,161354.39999962,NA,NA,161351.19999981,161354.5,2024-05-23T09:07:05Z,161366.7,NULL,Wohlstand,mafanikio,d,NA,NA,NA,NA,sdf,NA,0,NA,NA,NA,NA,NA,NA,NA,NA,NA,NA,NA,NA,NA,NA,NA,NA,NA,NA,NA
e76f8,"""Falsch""-Screen",canvas.Screen,3_0_0_0_5_0_2,NA,NA,timeout,4997.4,161355.19999981,161350.532,161366.7,166347.5,166348.5,2024-05-23T09:07:10Z,166364.1,NULL,Wohlstand,mafanikio,d,NA,NA,NA,NA,sdf,0,0,NA,NA,NA,NA,NA,NA,NA,NA,NA,NA,NA,NA,NA,NA,NA,NA,NA,NA,NA
e76f8,deep,flow.Sequence,3_0_0_0_5_0,NA,NA,completion,7345.7,158987.5,158985.1,159001.8,166347.5,166348.79999971,2024-05-23T09:07:10Z,166364.1,NULL,Wohlstand,mafanikio,d,NA,NA,NA,NA,sdf,NA,0,NA,NA,NA,NA,NA,NA,NA,NA,NA,NA,NA,NA,NA,NA,NA,NA,NA,NA,NA
e76f8,shallow,flow.Sequence,3_0_0_0_5_1,NA,NA,skipped,NA,166348.89999962,NA,NA,166347.5,166349.0999999,2024-05-23T09:07:10Z,166364.1,NULL,Wohlstand,mafanikio,d,NA,NA,NA,NA,sdf,NA,0,NA,NA,NA,NA,NA,NA,NA,NA,NA,NA,NA,NA,NA,NA,NA,NA,NA,NA,NA
e76f8,task,flow.Sequence,3_0_0_0_5,NA,NA,completion,7345.7,158987.39999961999,158985.1,159001.8,166347.5,166349.29999971,2024-05-23T09:07:10Z,166364.1,NULL,Wohlstand,mafanikio,d,NA,NA,NA,NA,sdf,NA,0,NA,NA,NA,NA,NA,NA,NA,NA,NA,NA,NA,NA,NA,NA,NA,NA,NA,NA,NA
e76f8,deep,flow.Sequence,3_0_0_0_6_0,NA,NA,skipped,NA,166349.5,NA,NA,166347.5,166349.5999999,2024-05-23T09:07:10Z,166364.1,NULL,Vergnügen,kichekesho,s,dubwana,mpanuko,mtesaji,NA,sdf,NA,0,NA,NA,NA,NA,NA,NA,NA,NA,NA,NA,NA,NA,NA,NA,NA,NA,NA,NA,NA
e76f8,Shallow Question,html.Page,3_0_0_0_6_1_0,NA,NA,form submission,3944.4,166349.69999981,166347.5,166364.1,170308.5,170308.79999971,2024-05-23T09:07:14Z,170312.202,NULL,Vergnügen,kichekesho,s,dubwana,mpanuko,mtesaji,mpanuko,NA,NA,0,NA,NA,NA,NA,NA,NA,NA,NA,NA,NA,NA,NA,NA,NA,NA,NA,NA,NA,NA
e76f8,"""Richtig""-Screen",canvas.Screen,3_0_0_0_6_1_1,NA,NA,skipped,NA,170311.79999971,NA,NA,170308.5,170311.89999961999,2024-05-23T09:07:14Z,170312.202,NULL,Vergnügen,kichekesho,s,dubwana,mpanuko,mtesaji,NA,sdf,NA,0,NA,NA,NA,NA,NA,NA,NA,NA,NA,NA,NA,NA,NA,NA,NA,NA,NA,NA,NA
e76f8,"""Falsch""-Screen",canvas.Screen,3_0_0_0_6_1_2,NA,NA,timeout,4996.598,170312.5999999,170312.202,170312.202,175291.8,175292.69999981,2024-05-23T09:07:19Z,175308.8,NULL,Vergnügen,kichekesho,s,dubwana,mpanuko,mtesaji,NA,sdf,0,0,NA,NA,NA,NA,NA,NA,NA,NA,NA,NA,NA,NA,NA,NA,NA,NA,NA,NA,NA
e76f8,shallow,flow.Sequence,3_0_0_0_6_1,NA,NA,completion,8927.7,166349.5999999,166347.5,166364.1,175291.8,175293.0999999,2024-05-23T09:07:19Z,175308.8,NULL,Vergnügen,kichekesho,s,dubwana,mpanuko,mtesaji,NA,sdf,NA,0,NA,NA,NA,NA,NA,NA,NA,NA,NA,NA,NA,NA,NA,NA,NA,NA,NA,NA,NA
e76f8,task,flow.Sequence,3_0_0_0_6,NA,NA,completion,8927.7,166349.29999971,166347.5,166364.1,175291.8,175293.39999962,2024-05-23T09:07:19Z,175308.8,NULL,Vergnügen,kichekesho,s,dubwana,mpanuko,mtesaji,NA,sdf,NA,0,NA,NA,NA,NA,NA,NA,NA,NA,NA,NA,NA,NA,NA,NA,NA,NA,NA,NA,NA
e76f8,Deep Question,html.Page,3_0_0_0_7_0_0,NA,NA,form submission,3738.7,175293.5,175291.8,175308.8,179047.5,179047.69999981,2024-05-23T09:07:22Z,179055.8,NULL,Betrüger,mdanganyifu,d,NA,NA,NA,d,NA,NA,0,NA,NA,NA,NA,NA,NA,NA,NA,NA,NA,NA,NA,NA,NA,NA,NA,NA,NA,NA
e76f8,"""Richtig""-Screen",canvas.Screen,3_0_0_0_7_0_1,NA,NA,skipped,NA,179050.69999981,NA,NA,179047.5,179050.89999961999,2024-05-23T09:07:22Z,179055.8,NULL,Betrüger,mdanganyifu,d,NA,NA,NA,NA,sdf,NA,0,NA,NA,NA,NA,NA,NA,NA,NA,NA,NA,NA,NA,NA,NA,NA,NA,NA,NA,NA
e76f8,"""Falsch""-Screen",canvas.Screen,3_0_0_0_7_0_2,NA,NA,timeout,4997,179051.69999981,179040.154,179055.8,184036.5,184037.5,2024-05-23T09:07:27Z,184052.8,NULL,Betrüger,mdanganyifu,d,NA,NA,NA,NA,sdf,0,0,NA,NA,NA,NA,NA,NA,NA,NA,NA,NA,NA,NA,NA,NA,NA,NA,NA,NA,NA
e76f8,deep,flow.Sequence,3_0_0_0_7_0,NA,NA,completion,8727.7,175293.5,175291.8,175308.8,184036.5,184037.79999971,2024-05-23T09:07:27Z,184052.8,NULL,Betrüger,mdanganyifu,d,NA,NA,NA,NA,sdf,NA,0,NA,NA,NA,NA,NA,NA,NA,NA,NA,NA,NA,NA,NA,NA,NA,NA,NA,NA,NA
e76f8,shallow,flow.Sequence,3_0_0_0_7_1,NA,NA,skipped,NA,184038,NA,NA,184036.5,184038.0999999,2024-05-23T09:07:27Z,184052.8,NULL,Betrüger,mdanganyifu,d,NA,NA,NA,NA,sdf,NA,0,NA,NA,NA,NA,NA,NA,NA,NA,NA,NA,NA,NA,NA,NA,NA,NA,NA,NA,NA
e76f8,task,flow.Sequence,3_0_0_0_7,NA,NA,completion,8727.7,175293.39999962,175291.8,175308.8,184036.5,184038.29999971,2024-05-23T09:07:27Z,184052.8,NULL,Betrüger,mdanganyifu,d,NA,NA,NA,NA,sdf,NA,0,NA,NA,NA,NA,NA,NA,NA,NA,NA,NA,NA,NA,NA,NA,NA,NA,NA,NA,NA
e76f8,block,flow.Loop,3_0_0_0,NA,NA,completion,76786.4,107233.19999980999,107218.58,107250.1,184036.5,184038.5999999,2024-05-23T09:07:27Z,184052.8,NULL,NA,NA,NA,NA,NA,NA,NA,sdf,NA,0,NA,NA,NA,NA,NA,NA,NA,NA,NA,NA,NA,NA,NA,NA,NA,NA,NA,NA,NA
e76f8,weiter,canvas.Screen,3_0_0_1,sdf,keypress(Space),response,1752.7,184038.69999981,184036.5,184052.8,185805.5,185806.5,2024-05-23T09:07:29Z,185835.3,NULL,NA,NA,NA,NA,NA,NA,NA,sdf,NA,0,NA,NA,NA,NA,NA,NA,NA,NA,NA,NA,NA,NA,NA,NA,NA,NA,NA,NA,NA
e76f8,check continue,flow.Sequence,3_0_0,NA,NA,completion,78555.4,107233.19999980999,107218.58,107250.1,185805.5,185806.79999971,2024-05-23T09:07:29Z,185835.3,NULL,NA,NA,NA,NA,NA,NA,NA,sdf,NA,0,NA,NA,NA,NA,NA,NA,NA,NA,NA,NA,NA,NA,NA,NA,NA,NA,NA,NA,NA
e76f8,deep,flow.Sequence,3_0_1_0_0_0,NA,NA,skipped,NA,185826.19999981,NA,NA,185805.5,185826.29999971,2024-05-23T09:07:29Z,185835.3,NULL,Notfall,dharura,s,rairai,malalamiko,ahueni,NA,sdfdsf,NA,1,NA,NA,NA,NA,NA,NA,NA,NA,NA,NA,NA,NA,NA,NA,NA,NA,NA,NA,NA
e76f8,Shallow Question,html.Page,3_0_1_0_0_1_0,NA,NA,form submission,7658.8999998093,185826.39999962,185819.316,185835.3,193494.19999981,193494.39999961999,2024-05-23T09:07:37Z,193514.2,NULL,Notfall,dharura,s,rairai,malalamiko,ahueni,dharura,NA,NA,1,NA,NA,NA,NA,NA,NA,NA,NA,NA,NA,NA,NA,NA,NA,NA,NA,NA,NA,NA
e76f8,"""Richtig""-Screen",canvas.Screen,3_0_1_0_0_1_1,NA,NA,timeout,4996.8,193497.39999961999,193497.782,193514.2,198494.3,198495.39999962,2024-05-23T09:07:42Z,198511,NULL,Notfall,dharura,s,rairai,malalamiko,ahueni,NA,sdfdsf,1,1,NA,NA,NA,NA,NA,NA,NA,NA,NA,NA,NA,NA,NA,NA,NA,NA,NA,NA,NA
e76f8,"""Falsch""-Screen",canvas.Screen,3_0_1_0_0_1_2,NA,NA,skipped,NA,198500.69999981,NA,NA,198494.3,198500.69999981,2024-05-23T09:07:42Z,198511,NULL,Notfall,dharura,s,rairai,malalamiko,ahueni,NA,sdfdsf,NA,1,NA,NA,NA,NA,NA,NA,NA,NA,NA,NA,NA,NA,NA,NA,NA,NA,NA,NA,NA
e76f8,shallow,flow.Sequence,3_0_1_0_0_1,NA,NA,completion,12659,185826.39999962,185819.316,185835.3,198494.3,198500.89999961999,2024-05-23T09:07:42Z,198511,NULL,Notfall,dharura,s,rairai,malalamiko,ahueni,NA,sdfdsf,NA,1,NA,NA,NA,NA,NA,NA,NA,NA,NA,NA,NA,NA,NA,NA,NA,NA,NA,NA,NA
e76f8,task,flow.Sequence,3_0_1_0_0,NA,NA,completion,12659,185826.19999981,185819.316,185835.3,198494.3,198500.89999961999,2024-05-23T09:07:42Z,198511,NULL,Notfall,dharura,s,rairai,malalamiko,ahueni,NA,sdfdsf,NA,1,NA,NA,NA,NA,NA,NA,NA,NA,NA,NA,NA,NA,NA,NA,NA,NA,NA,NA,NA
e76f8,deep,flow.Sequence,3_0_1_0_1_0,NA,NA,skipped,NA,198500.89999961999,NA,NA,198494.3,198500.89999961999,2024-05-23T09:07:42Z,198511,NULL,Orientierung,urekebisho,s,uelekeo,marekebisho,utunzaji,NA,sdfdsf,NA,1,NA,NA,NA,NA,NA,NA,NA,NA,NA,NA,NA,NA,NA,NA,NA,NA,NA,NA,NA
e76f8,Shallow Question,html.Page,3_0_1_0_1_1_0,NA,NA,form submission,4749.2999997139,198500.89999961999,198494.3,198511,203260.29999971,203260.5,2024-05-23T09:07:47Z,203274.9,NULL,Orientierung,urekebisho,s,uelekeo,marekebisho,utunzaji,urekebisho,NA,NA,1,NA,NA,NA,NA,NA,NA,NA,NA,NA,NA,NA,NA,NA,NA,NA,NA,NA,NA,NA
e76f8,"""Richtig""-Screen",canvas.Screen,3_0_1_0_1_1_1,NA,NA,timeout,4996.9,203263.39999962,203258.326,203274.9,208255.1,208255.5999999,2024-05-23T09:07:52Z,208271.8,NULL,Orientierung,urekebisho,s,uelekeo,marekebisho,utunzaji,NA,sdfdsf,1,1,NA,NA,NA,NA,NA,NA,NA,NA,NA,NA,NA,NA,NA,NA,NA,NA,NA,NA,NA
e76f8,"""Falsch""-Screen",canvas.Screen,3_0_1_0_1_1_2,NA,NA,skipped,NA,208257.69999981,NA,NA,208255.1,208257.69999981,2024-05-23T09:07:52Z,208271.8,NULL,Orientierung,urekebisho,s,uelekeo,marekebisho,utunzaji,NA,sdfdsf,NA,1,NA,NA,NA,NA,NA,NA,NA,NA,NA,NA,NA,NA,NA,NA,NA,NA,NA,NA,NA
e76f8,shallow,flow.Sequence,3_0_1_0_1_1,NA,NA,completion,9744.1,198500.89999961999,198494.3,198511,208255.1,208257.89999962,2024-05-23T09:07:52Z,208271.8,NULL,Orientierung,urekebisho,s,uelekeo,marekebisho,utunzaji,NA,sdfdsf,NA,1,NA,NA,NA,NA,NA,NA,NA,NA,NA,NA,NA,NA,NA,NA,NA,NA,NA,NA,NA
e76f8,task,flow.Sequence,3_0_1_0_1,NA,NA,completion,9744.1,198500.89999961999,198494.3,198511,208255.1,208257.89999962,2024-05-23T09:07:52Z,208271.8,NULL,Orientierung,urekebisho,s,uelekeo,marekebisho,utunzaji,NA,sdfdsf,NA,1,NA,NA,NA,NA,NA,NA,NA,NA,NA,NA,NA,NA,NA,NA,NA,NA,NA,NA,NA
e76f8,deep,flow.Sequence,3_0_1_0_2_0,NA,NA,skipped,NA,208258,NA,NA,208255.1,208258,2024-05-23T09:07:52Z,208271.8,NULL,Respekt,heshima,s,changamnao,upinzani,ufanisi,NA,sdfdsf,NA,1,NA,NA,NA,NA,NA,NA,NA,NA,NA,NA,NA,NA,NA,NA,NA,NA,NA,NA,NA
e76f8,Shallow Question,html.Page,3_0_1_0_2_1_0,NA,NA,form submission,8304.2999999046,208258.0999999,208255.1,208271.8,216576.0999999,216576.29999971,2024-05-23T09:08:00Z,216582.9,NULL,Respekt,heshima,s,changamnao,upinzani,ufanisi,heshima,NA,NA,1,NA,NA,NA,NA,NA,NA,NA,NA,NA,NA,NA,NA,NA,NA,NA,NA,NA,NA,NA
e76f8,"""Richtig""-Screen",canvas.Screen,3_0_1_0_2_1_1,NA,NA,timeout,4997.3,216579.19999981,216566.894,216582.9,221563.4,221564.0999999,2024-05-23T09:08:05Z,221580.2,NULL,Respekt,heshima,s,changamnao,upinzani,ufanisi,NA,sdfdsf,1,1,NA,NA,NA,NA,NA,NA,NA,NA,NA,NA,NA,NA,NA,NA,NA,NA,NA,NA,NA
e76f8,"""Falsch""-Screen",canvas.Screen,3_0_1_0_2_1_2,NA,NA,skipped,NA,221565.29999971,NA,NA,221563.4,221565.5,2024-05-23T09:08:05Z,221580.2,NULL,Respekt,heshima,s,changamnao,upinzani,ufanisi,NA,sdfdsf,NA,1,NA,NA,NA,NA,NA,NA,NA,NA,NA,NA,NA,NA,NA,NA,NA,NA,NA,NA,NA
e76f8,shallow,flow.Sequence,3_0_1_0_2_1,NA,NA,completion,13291.6,208258.0999999,208255.1,208271.8,221563.4,221565.5999999,2024-05-23T09:08:05Z,221580.2,NULL,Respekt,heshima,s,changamnao,upinzani,ufanisi,NA,sdfdsf,NA,1,NA,NA,NA,NA,NA,NA,NA,NA,NA,NA,NA,NA,NA,NA,NA,NA,NA,NA,NA
e76f8,task,flow.Sequence,3_0_1_0_2,NA,NA,completion,13291.6,208258,208255.1,208271.8,221563.4,221565.69999981,2024-05-23T09:08:05Z,221580.2,NULL,Respekt,heshima,s,changamnao,upinzani,ufanisi,NA,sdfdsf,NA,1,NA,NA,NA,NA,NA,NA,NA,NA,NA,NA,NA,NA,NA,NA,NA,NA,NA,NA,NA
e76f8,Deep Question,html.Page,3_0_1_0_3_0_0,NA,NA,form submission,7273.9999998093,221565.69999981,221563.4,221580.2,228854.19999981,228854.39999962,2024-05-23T09:08:12Z,228858.8,NULL,Stimmung,kinyongo,d,NA,NA,NA,kinesho,NA,NA,1,NA,NA,NA,NA,NA,NA,NA,NA,NA,NA,NA,NA,NA,NA,NA,NA,NA,NA,NA
e76f8,"""Richtig""-Screen",canvas.Screen,3_0_1_0_3_0_1,NA,NA,skipped,NA,228857.39999962,NA,NA,228854.19999981,228857.5999999,2024-05-23T09:08:12Z,228858.8,NULL,Stimmung,kinyongo,d,NA,NA,NA,NA,sdfdsf,NA,1,NA,NA,NA,NA,NA,NA,NA,NA,NA,NA,NA,NA,NA,NA,NA,NA,NA,NA,NA
e76f8,"""Falsch""-Screen",canvas.Screen,3_0_1_0_3_0_2,NA,NA,timeout,4996.9,228858.19999981,228846.6,228858.8,233839.1,233839.29999971,2024-05-23T09:08:17Z,233855.7,NULL,Stimmung,kinyongo,d,NA,NA,NA,NA,sdfdsf,0,1,NA,NA,NA,NA,NA,NA,NA,NA,NA,NA,NA,NA,NA,NA,NA,NA,NA,NA,NA
e76f8,deep,flow.Sequence,3_0_1_0_3_0,NA,NA,completion,12258.9,221565.69999981,221563.4,221580.2,233839.1,233839.39999962,2024-05-23T09:08:17Z,233855.7,NULL,Stimmung,kinyongo,d,NA,NA,NA,NA,sdfdsf,NA,1,NA,NA,NA,NA,NA,NA,NA,NA,NA,NA,NA,NA,NA,NA,NA,NA,NA,NA,NA
e76f8,shallow,flow.Sequence,3_0_1_0_3_1,NA,NA,skipped,NA,233839.5,NA,NA,233839.1,233839.5,2024-05-23T09:08:17Z,233855.7,NULL,Stimmung,kinyongo,d,NA,NA,NA,NA,sdfdsf,NA,1,NA,NA,NA,NA,NA,NA,NA,NA,NA,NA,NA,NA,NA,NA,NA,NA,NA,NA,NA
e76f8,task,flow.Sequence,3_0_1_0_3,NA,NA,completion,12258.9,221565.69999981,221563.4,221580.2,233839.1,233839.5999999,2024-05-23T09:08:17Z,233855.7,NULL,Stimmung,kinyongo,d,NA,NA,NA,NA,sdfdsf,NA,1,NA,NA,NA,NA,NA,NA,NA,NA,NA,NA,NA,NA,NA,NA,NA,NA,NA,NA,NA
e76f8,Deep Question,html.Page,3_0_1_0_4_0_0,NA,NA,form submission,8400.8999999046,233839.5999999,233839.1,233855.7,242256.5999999,242256.89999962,2024-05-23T09:08:26Z,242267.4,NULL,Ergänzung,kijalizo,d,NA,NA,NA,haraba,NA,NA,1,NA,NA,NA,NA,NA,NA,NA,NA,NA,NA,NA,NA,NA,NA,NA,NA,NA,NA,NA
e76f8,"""Richtig""-Screen",canvas.Screen,3_0_1_0_4_0_1,NA,NA,skipped,NA,242260,NA,NA,242256.5999999,242260.0999999,2024-05-23T09:08:26Z,242267.4,NULL,Ergänzung,kijalizo,d,NA,NA,NA,NA,sdfdsf,NA,1,NA,NA,NA,NA,NA,NA,NA,NA,NA,NA,NA,NA,NA,NA,NA,NA,NA,NA,NA
e76f8,"""Falsch""-Screen",canvas.Screen,3_0_1_0_4_0_2,NA,NA,timeout,4996.8,242261,242251.546,242267.4,247248,247249.39999962,2024-05-23T09:08:31Z,247264.2,NULL,Ergänzung,kijalizo,d,NA,NA,NA,NA,sdfdsf,0,1,NA,NA,NA,NA,NA,NA,NA,NA,NA,NA,NA,NA,NA,NA,NA,NA,NA,NA,NA
e76f8,deep,flow.Sequence,3_0_1_0_4_0,NA,NA,completion,13392.3,233839.5999999,233839.1,233855.7,247248,247249.89999962,2024-05-23T09:08:31Z,247264.2,NULL,Ergänzung,kijalizo,d,NA,NA,NA,NA,sdfdsf,NA,1,NA,NA,NA,NA,NA,NA,NA,NA,NA,NA,NA,NA,NA,NA,NA,NA,NA,NA,NA
e76f8,shallow,flow.Sequence,3_0_1_0_4_1,NA,NA,skipped,NA,247250.19999981,NA,NA,247248,247250.5999999,2024-05-23T09:08:31Z,247264.2,NULL,Ergänzung,kijalizo,d,NA,NA,NA,NA,sdfdsf,NA,1,NA,NA,NA,NA,NA,NA,NA,NA,NA,NA,NA,NA,NA,NA,NA,NA,NA,NA,NA
e76f8,task,flow.Sequence,3_0_1_0_4,NA,NA,completion,13392.3,233839.5999999,233839.1,233855.7,247248,247250.89999961999,2024-05-23T09:08:31Z,247264.2,NULL,Ergänzung,kijalizo,d,NA,NA,NA,NA,sdfdsf,NA,1,NA,NA,NA,NA,NA,NA,NA,NA,NA,NA,NA,NA,NA,NA,NA,NA,NA,NA,NA
e76f8,Deep Question,html.Page,3_0_1_0_5_0_0,NA,NA,form submission,4258.0999997139,247251.19999981,247248,247264.2,251522.29999971,251522.5999999,2024-05-23T09:08:35Z,251528.3,NULL,Wohlstand,mafanikio,d,NA,NA,NA,harabara,NA,NA,1,NA,NA,NA,NA,NA,NA,NA,NA,NA,NA,NA,NA,NA,NA,NA,NA,NA,NA,NA
e76f8,"""Richtig""-Screen",canvas.Screen,3_0_1_0_5_0_1,NA,NA,skipped,NA,251525.69999981,NA,NA,251522.29999971,251525.79999971,2024-05-23T09:08:35Z,251528.3,NULL,Wohlstand,mafanikio,d,NA,NA,NA,NA,sdfdsf,NA,1,NA,NA,NA,NA,NA,NA,NA,NA,NA,NA,NA,NA,NA,NA,NA,NA,NA,NA,NA
e76f8,"""Falsch""-Screen",canvas.Screen,3_0_1_0_5_0_2,NA,NA,timeout,4997.5,251526.5,251512.434,251528.3,256509.1,256510.5,2024-05-23T09:08:40Z,256525.8,NULL,Wohlstand,mafanikio,d,NA,NA,NA,NA,sdfdsf,0,1,NA,NA,NA,NA,NA,NA,NA,NA,NA,NA,NA,NA,NA,NA,NA,NA,NA,NA,NA
e76f8,deep,flow.Sequence,3_0_1_0_5_0,NA,NA,completion,9244.9,247251.19999981,247248,247264.2,256509.1,256510.69999981,2024-05-23T09:08:40Z,256525.8,NULL,Wohlstand,mafanikio,d,NA,NA,NA,NA,sdfdsf,NA,1,NA,NA,NA,NA,NA,NA,NA,NA,NA,NA,NA,NA,NA,NA,NA,NA,NA,NA,NA
e76f8,shallow,flow.Sequence,3_0_1_0_5_1,NA,NA,skipped,NA,256510.89999961999,NA,NA,256509.1,256511.0999999,2024-05-23T09:08:40Z,256525.8,NULL,Wohlstand,mafanikio,d,NA,NA,NA,NA,sdfdsf,NA,1,NA,NA,NA,NA,NA,NA,NA,NA,NA,NA,NA,NA,NA,NA,NA,NA,NA,NA,NA
e76f8,task,flow.Sequence,3_0_1_0_5,NA,NA,completion,9244.9,247251.0999999,247248,247264.2,256509.1,256511.19999981,2024-05-23T09:08:40Z,256525.8,NULL,Wohlstand,mafanikio,d,NA,NA,NA,NA,sdfdsf,NA,1,NA,NA,NA,NA,NA,NA,NA,NA,NA,NA,NA,NA,NA,NA,NA,NA,NA,NA,NA
e76f8,Deep Question,html.Page,3_0_1_0_6_0_0,NA,NA,form submission,4595.2,256511.39999962,256509.1,256525.8,261121,261121.19999981,2024-05-23T09:08:44Z,261123.532,NULL,Betrüger,mdanganyifu,d,NA,NA,NA,ugu4,NA,NA,1,NA,NA,NA,NA,NA,NA,NA,NA,NA,NA,NA,NA,NA,NA,NA,NA,NA,NA,NA
e76f8,"""Richtig""-Screen",canvas.Screen,3_0_1_0_6_0_1,NA,NA,skipped,NA,261123.29999971,NA,NA,261121,261123.5,2024-05-23T09:08:44Z,261123.532,NULL,Betrüger,mdanganyifu,d,NA,NA,NA,NA,sdfdsf,NA,1,NA,NA,NA,NA,NA,NA,NA,NA,NA,NA,NA,NA,NA,NA,NA,NA,NA,NA,NA
e76f8,"""Falsch""-Screen",canvas.Screen,3_0_1_0_6_0_2,NA,NA,timeout,4996.568,261124,261123.532,261123.532,266103.1,266104.19999981,2024-05-23T09:08:49Z,266120.1,NULL,Betrüger,mdanganyifu,d,NA,NA,NA,NA,sdfdsf,0,1,NA,NA,NA,NA,NA,NA,NA,NA,NA,NA,NA,NA,NA,NA,NA,NA,NA,NA,NA
e76f8,deep,flow.Sequence,3_0_1_0_6_0,NA,NA,completion,9577.3,256511.39999962,256509.1,256525.8,266103.1,266104.5999999,2024-05-23T09:08:49Z,266120.1,NULL,Betrüger,mdanganyifu,d,NA,NA,NA,NA,sdfdsf,NA,1,NA,NA,NA,NA,NA,NA,NA,NA,NA,NA,NA,NA,NA,NA,NA,NA,NA,NA,NA
e76f8,shallow,flow.Sequence,3_0_1_0_6_1,NA,NA,skipped,NA,266104.79999971,NA,NA,266103.1,266104.89999962,2024-05-23T09:08:49Z,266120.1,NULL,Betrüger,mdanganyifu,d,NA,NA,NA,NA,sdfdsf,NA,1,NA,NA,NA,NA,NA,NA,NA,NA,NA,NA,NA,NA,NA,NA,NA,NA,NA,NA,NA
e76f8,task,flow.Sequence,3_0_1_0_6,NA,NA,completion,9577.3,256511.39999962,256509.1,256525.8,266103.1,266105.0999999,2024-05-23T09:08:49Z,266120.1,NULL,Betrüger,mdanganyifu,d,NA,NA,NA,NA,sdfdsf,NA,1,NA,NA,NA,NA,NA,NA,NA,NA,NA,NA,NA,NA,NA,NA,NA,NA,NA,NA,NA
e76f8,deep,flow.Sequence,3_0_1_0_7_0,NA,NA,skipped,NA,266105.19999981,NA,NA,266103.1,266105.39999962,2024-05-23T09:08:49Z,266120.1,NULL,Vergnügen,kichekesho,s,dubwana,mpanuko,mtesaji,NA,sdfdsf,NA,1,NA,NA,NA,NA,NA,NA,NA,NA,NA,NA,NA,NA,NA,NA,NA,NA,NA,NA,NA
e76f8,Shallow Question,html.Page,3_0_1_0_7_1_0,NA,NA,form submission,4574.9,266105.5,266103.1,266120.1,270695,270695.19999981,2024-05-23T09:08:54Z,270717.1,NULL,Vergnügen,kichekesho,s,dubwana,mpanuko,mtesaji,kichekesho,NA,NA,1,NA,NA,NA,NA,NA,NA,NA,NA,NA,NA,NA,NA,NA,NA,NA,NA,NA,NA,NA
e76f8,"""Richtig""-Screen",canvas.Screen,3_0_1_0_7_1_1,NA,NA,timeout,4996.5,270698.19999981,270700.744,270717.1,275697.1,275698.69999981,2024-05-23T09:08:59Z,275713.6,NULL,Vergnügen,kichekesho,s,dubwana,mpanuko,mtesaji,NA,sdfdsf,1,1,NA,NA,NA,NA,NA,NA,NA,NA,NA,NA,NA,NA,NA,NA,NA,NA,NA,NA,NA
e76f8,"""Falsch""-Screen",canvas.Screen,3_0_1_0_7_1_2,NA,NA,skipped,NA,275704.89999962,NA,NA,275697.1,275705.0999999,2024-05-23T09:08:59Z,275713.6,NULL,Vergnügen,kichekesho,s,dubwana,mpanuko,mtesaji,NA,sdfdsf,NA,1,NA,NA,NA,NA,NA,NA,NA,NA,NA,NA,NA,NA,NA,NA,NA,NA,NA,NA,NA
e76f8,shallow,flow.Sequence,3_0_1_0_7_1,NA,NA,completion,9577,266105.5,266103.1,266120.1,275697.1,275705.5,2024-05-23T09:08:59Z,275713.6,NULL,Vergnügen,kichekesho,s,dubwana,mpanuko,mtesaji,NA,sdfdsf,NA,1,NA,NA,NA,NA,NA,NA,NA,NA,NA,NA,NA,NA,NA,NA,NA,NA,NA,NA,NA
e76f8,task,flow.Sequence,3_0_1_0_7,NA,NA,completion,9577,266105.19999981,266103.1,266120.1,275697.1,275705.69999981,2024-05-23T09:08:59Z,275713.6,NULL,Vergnügen,kichekesho,s,dubwana,mpanuko,mtesaji,NA,sdfdsf,NA,1,NA,NA,NA,NA,NA,NA,NA,NA,NA,NA,NA,NA,NA,NA,NA,NA,NA,NA,NA
e76f8,block,flow.Loop,3_0_1_0,NA,NA,completion,89861.8,185826.19999981,185819.316,185835.3,275697.1,275706,2024-05-23T09:08:59Z,275713.6,NULL,NA,NA,NA,NA,NA,NA,NA,sdfdsf,NA,1,NA,NA,NA,NA,NA,NA,NA,NA,NA,NA,NA,NA,NA,NA,NA,NA,NA,NA,NA
e76f8,weiter,canvas.Screen,3_0_1_1,sdf,keypress(Space),response,1772.2999996186,275706.0999999,275697.1,275713.6,277485.89999962,277486.29999971,2024-05-23T09:09:01Z,277496.43,NULL,NA,NA,NA,NA,NA,NA,NA,sdfdsf,NA,1,NA,NA,NA,NA,NA,NA,NA,NA,NA,NA,NA,NA,NA,NA,NA,NA,NA,NA,NA
e76f8,check continue,flow.Sequence,3_0_1,NA,NA,completion,91650.599999619,185826.0999999,185819.316,185835.3,277485.89999962,277486.5,2024-05-23T09:09:01Z,277496.43,NULL,NA,NA,NA,NA,NA,NA,NA,sdfdsf,NA,1,NA,NA,NA,NA,NA,NA,NA,NA,NA,NA,NA,NA,NA,NA,NA,NA,NA,NA,NA
e76f8,Deep Question,html.Page,3_0_2_0_0_0_0,NA,NA,form submission,14637.57,277501.0999999,277496.43,277496.43,292134,292134.19999981,2024-05-23T09:09:15Z,292137.958,NULL,Stimmung,kinyongo,d,NA,NA,NA,bahara,NA,NA,2,NA,NA,NA,NA,NA,NA,NA,NA,NA,NA,NA,NA,NA,NA,NA,NA,NA,NA,NA
e76f8,"""Richtig""-Screen",canvas.Screen,3_0_2_0_0_0_1,NA,NA,skipped,NA,292137.19999981,NA,NA,292134,292137.29999971,2024-05-23T09:09:15Z,292137.958,NULL,Stimmung,kinyongo,d,NA,NA,NA,NA,sdf,NA,2,NA,NA,NA,NA,NA,NA,NA,NA,NA,NA,NA,NA,NA,NA,NA,NA,NA,NA,NA
e76f8,"""Falsch""-Screen",canvas.Screen,3_0_2_0_0_0_2,NA,NA,timeout,4996.342,292138,292137.958,292137.958,297117.6,297118.5,2024-05-23T09:09:20Z,297134.3,NULL,Stimmung,kinyongo,d,NA,NA,NA,NA,sdf,0,2,NA,NA,NA,NA,NA,NA,NA,NA,NA,NA,NA,NA,NA,NA,NA,NA,NA,NA,NA
e76f8,deep,flow.Sequence,3_0_2_0_0_0,NA,NA,completion,19621.17,277501.0999999,277496.43,277496.43,297117.6,297118.79999971,2024-05-23T09:09:20Z,297134.3,NULL,Stimmung,kinyongo,d,NA,NA,NA,NA,sdf,NA,2,NA,NA,NA,NA,NA,NA,NA,NA,NA,NA,NA,NA,NA,NA,NA,NA,NA,NA,NA
e76f8,shallow,flow.Sequence,3_0_2_0_0_1,NA,NA,skipped,NA,297119,NA,NA,297117.6,297119.19999981,2024-05-23T09:09:20Z,297134.3,NULL,Stimmung,kinyongo,d,NA,NA,NA,NA,sdf,NA,2,NA,NA,NA,NA,NA,NA,NA,NA,NA,NA,NA,NA,NA,NA,NA,NA,NA,NA,NA
e76f8,task,flow.Sequence,3_0_2_0_0,NA,NA,completion,19621.17,277501.0999999,277496.43,277496.43,297117.6,297119.29999971,2024-05-23T09:09:20Z,297134.3,NULL,Stimmung,kinyongo,d,NA,NA,NA,NA,sdf,NA,2,NA,NA,NA,NA,NA,NA,NA,NA,NA,NA,NA,NA,NA,NA,NA,NA,NA,NA,NA
e76f8,deep,flow.Sequence,3_0_2_0_1_0,NA,NA,skipped,NA,297119.39999962,NA,NA,297117.6,297119.5,2024-05-23T09:09:20Z,297134.3,NULL,Vergnügen,kichekesho,s,dubwana,mpanuko,mtesaji,NA,sdf,NA,2,NA,NA,NA,NA,NA,NA,NA,NA,NA,NA,NA,NA,NA,NA,NA,NA,NA,NA,NA
e76f8,Shallow Question,html.Page,3_0_2_0_1_1_0,NA,NA,form submission,6727.2999999046,297119.5999999,297117.6,297134.3,303861.5999999,303861.69999981,2024-05-23T09:09:27Z,303863.1,NULL,Vergnügen,kichekesho,s,dubwana,mpanuko,mtesaji,kichekesho,NA,NA,2,NA,NA,NA,NA,NA,NA,NA,NA,NA,NA,NA,NA,NA,NA,NA,NA,NA,NA,NA
e76f8,"""Richtig""-Screen",canvas.Screen,3_0_2_0_1_1_1,NA,NA,timeout,4996.9,303864.69999981,303860.432,303863.1,308843.8,308845.19999981,2024-05-23T09:09:32Z,308860,NULL,Vergnügen,kichekesho,s,dubwana,mpanuko,mtesaji,NA,sdf,1,2,NA,NA,NA,NA,NA,NA,NA,NA,NA,NA,NA,NA,NA,NA,NA,NA,NA,NA,NA
e76f8,"""Falsch""-Screen",canvas.Screen,3_0_2_0_1_1_2,NA,NA,skipped,NA,308850.29999971,NA,NA,308843.8,308850.5,2024-05-23T09:09:32Z,308860,NULL,Vergnügen,kichekesho,s,dubwana,mpanuko,mtesaji,NA,sdf,NA,2,NA,NA,NA,NA,NA,NA,NA,NA,NA,NA,NA,NA,NA,NA,NA,NA,NA,NA,NA
e76f8,shallow,flow.Sequence,3_0_2_0_1_1,NA,NA,completion,11709.5,297119.5999999,297117.6,297134.3,308843.8,308850.79999971,2024-05-23T09:09:32Z,308860,NULL,Vergnügen,kichekesho,s,dubwana,mpanuko,mtesaji,NA,sdf,NA,2,NA,NA,NA,NA,NA,NA,NA,NA,NA,NA,NA,NA,NA,NA,NA,NA,NA,NA,NA
e76f8,task,flow.Sequence,3_0_2_0_1,NA,NA,completion,11709.5,297119.39999962,297117.6,297134.3,308843.8,308851,2024-05-23T09:09:32Z,308860,NULL,Vergnügen,kichekesho,s,dubwana,mpanuko,mtesaji,NA,sdf,NA,2,NA,NA,NA,NA,NA,NA,NA,NA,NA,NA,NA,NA,NA,NA,NA,NA,NA,NA,NA
e76f8,deep,flow.Sequence,3_0_2_0_2_0,NA,NA,skipped,NA,308851.19999981,NA,NA,308843.8,308851.29999971,2024-05-23T09:09:32Z,308860,NULL,Orientierung,urekebisho,s,uelekeo,marekebisho,utunzaji,NA,sdf,NA,2,NA,NA,NA,NA,NA,NA,NA,NA,NA,NA,NA,NA,NA,NA,NA,NA,NA,NA,NA
e76f8,Shallow Question,html.Page,3_0_2_0_2_1_0,NA,NA,form submission,5224,308851.39999962,308843.8,308860,314084,314084.19999981,2024-05-23T09:09:37Z,314090.1,NULL,Orientierung,urekebisho,s,uelekeo,marekebisho,utunzaji,urekebisho,NA,NA,2,NA,NA,NA,NA,NA,NA,NA,NA,NA,NA,NA,NA,NA,NA,NA,NA,NA,NA,NA
e76f8,"""Richtig""-Screen",canvas.Screen,3_0_2_0_2_1_1,NA,NA,timeout,4997,314087,314073.894,314090.1,319070.6,319071.39999962,2024-05-23T09:09:42Z,319087.1,NULL,Orientierung,urekebisho,s,uelekeo,marekebisho,utunzaji,NA,sdf,1,2,NA,NA,NA,NA,NA,NA,NA,NA,NA,NA,NA,NA,NA,NA,NA,NA,NA,NA,NA
e76f8,"""Falsch""-Screen",canvas.Screen,3_0_2_0_2_1_2,NA,NA,skipped,NA,319076.79999971,NA,NA,319070.6,319077,2024-05-23T09:09:42Z,319087.1,NULL,Orientierung,urekebisho,s,uelekeo,marekebisho,utunzaji,NA,sdf,NA,2,NA,NA,NA,NA,NA,NA,NA,NA,NA,NA,NA,NA,NA,NA,NA,NA,NA,NA,NA
e76f8,shallow,flow.Sequence,3_0_2_0_2_1,NA,NA,completion,10210.6,308851.39999962,308843.8,308860,319070.6,319077.0999999,2024-05-23T09:09:42Z,319087.1,NULL,Orientierung,urekebisho,s,uelekeo,marekebisho,utunzaji,NA,sdf,NA,2,NA,NA,NA,NA,NA,NA,NA,NA,NA,NA,NA,NA,NA,NA,NA,NA,NA,NA,NA
e76f8,task,flow.Sequence,3_0_2_0_2,NA,NA,completion,10210.6,308851.0999999,308843.8,308860,319070.6,319077.0999999,2024-05-23T09:09:42Z,319087.1,NULL,Orientierung,urekebisho,s,uelekeo,marekebisho,utunzaji,NA,sdf,NA,2,NA,NA,NA,NA,NA,NA,NA,NA,NA,NA,NA,NA,NA,NA,NA,NA,NA,NA,NA
e76f8,deep,flow.Sequence,3_0_2_0_3_0,NA,NA,skipped,NA,319077.19999981,NA,NA,319070.6,319077.19999981,2024-05-23T09:09:42Z,319087.1,NULL,Notfall,dharura,s,rairai,malalamiko,ahueni,NA,sdf,NA,2,NA,NA,NA,NA,NA,NA,NA,NA,NA,NA,NA,NA,NA,NA,NA,NA,NA,NA,NA
e76f8,Shallow Question,html.Page,3_0_2_0_3_1_0,NA,NA,form submission,7014.9999999047,319077.19999981,319070.6,319087.1,326102.0999999,326102.39999962,2024-05-23T09:09:49Z,326116.7,NULL,Notfall,dharura,s,rairai,malalamiko,ahueni,dharura,NA,NA,2,NA,NA,NA,NA,NA,NA,NA,NA,NA,NA,NA,NA,NA,NA,NA,NA,NA,NA,NA
e76f8,"""Richtig""-Screen",canvas.Screen,3_0_2_0_3_1_1,NA,NA,timeout,4996.9,326105.29999971,326100.122,326116.7,331097,331097.89999962,2024-05-23T09:09:54Z,331113.6,NULL,Notfall,dharura,s,rairai,malalamiko,ahueni,NA,sdf,1,2,NA,NA,NA,NA,NA,NA,NA,NA,NA,NA,NA,NA,NA,NA,NA,NA,NA,NA,NA
e76f8,"""Falsch""-Screen",canvas.Screen,3_0_2_0_3_1_2,NA,NA,skipped,NA,331103.0999999,NA,NA,331097,331103.29999971,2024-05-23T09:09:54Z,331113.6,NULL,Notfall,dharura,s,rairai,malalamiko,ahueni,NA,sdf,NA,2,NA,NA,NA,NA,NA,NA,NA,NA,NA,NA,NA,NA,NA,NA,NA,NA,NA,NA,NA
e76f8,shallow,flow.Sequence,3_0_2_0_3_1,NA,NA,completion,12009.9,319077.19999981,319070.6,319087.1,331097,331103.39999962,2024-05-23T09:09:54Z,331113.6,NULL,Notfall,dharura,s,rairai,malalamiko,ahueni,NA,sdf,NA,2,NA,NA,NA,NA,NA,NA,NA,NA,NA,NA,NA,NA,NA,NA,NA,NA,NA,NA,NA
e76f8,task,flow.Sequence,3_0_2_0_3,NA,NA,completion,12009.9,319077.19999981,319070.6,319087.1,331097,331103.39999962,2024-05-23T09:09:54Z,331113.6,NULL,Notfall,dharura,s,rairai,malalamiko,ahueni,NA,sdf,NA,2,NA,NA,NA,NA,NA,NA,NA,NA,NA,NA,NA,NA,NA,NA,NA,NA,NA,NA,NA
e76f8,Deep Question,html.Page,3_0_2_0_4_0_0,NA,NA,form submission,10242.199999714,331103.5,331097,331113.6,341355.79999971,341356.0999999,2024-05-23T09:10:05Z,341358.104,NULL,Ergänzung,kijalizo,d,NA,NA,NA,kinyongo,NA,NA,2,NA,NA,NA,NA,NA,NA,NA,NA,NA,NA,NA,NA,NA,NA,NA,NA,NA,NA,NA
e76f8,"""Richtig""-Screen",canvas.Screen,3_0_2_0_4_0_1,NA,NA,skipped,NA,341359.0999999,NA,NA,341355.79999971,341359.19999981,2024-05-23T09:10:05Z,341358.104,NULL,Ergänzung,kijalizo,d,NA,NA,NA,NA,sdf,NA,2,NA,NA,NA,NA,NA,NA,NA,NA,NA,NA,NA,NA,NA,NA,NA,NA,NA,NA,NA
e76f8,"""Falsch""-Screen",canvas.Screen,3_0_2_0_4_0_2,NA,NA,timeout,4995.696,341360,341358.104,341358.104,346337.3,346338.29999971,2024-05-23T09:10:10Z,346353.8,NULL,Ergänzung,kijalizo,d,NA,NA,NA,NA,sdf,0,2,NA,NA,NA,NA,NA,NA,NA,NA,NA,NA,NA,NA,NA,NA,NA,NA,NA,NA,NA
e76f8,deep,flow.Sequence,3_0_2_0_4_0,NA,NA,completion,15223.7,331103.39999962,331097,331113.6,346337.3,346338.69999981,2024-05-23T09:10:10Z,346353.8,NULL,Ergänzung,kijalizo,d,NA,NA,NA,NA,sdf,NA,2,NA,NA,NA,NA,NA,NA,NA,NA,NA,NA,NA,NA,NA,NA,NA,NA,NA,NA,NA
e76f8,shallow,flow.Sequence,3_0_2_0_4_1,NA,NA,skipped,NA,346338.79999971,NA,NA,346337.3,346338.89999962,2024-05-23T09:10:10Z,346353.8,NULL,Ergänzung,kijalizo,d,NA,NA,NA,NA,sdf,NA,2,NA,NA,NA,NA,NA,NA,NA,NA,NA,NA,NA,NA,NA,NA,NA,NA,NA,NA,NA
e76f8,task,flow.Sequence,3_0_2_0_4,NA,NA,completion,15223.7,331103.39999962,331097,331113.6,346337.3,346339.0999999,2024-05-23T09:10:10Z,346353.8,NULL,Ergänzung,kijalizo,d,NA,NA,NA,NA,sdf,NA,2,NA,NA,NA,NA,NA,NA,NA,NA,NA,NA,NA,NA,NA,NA,NA,NA,NA,NA,NA
e76f8,Deep Question,html.Page,3_0_2_0_5_0_0,NA,NA,form submission,8779.7,346339.19999981,346337.3,346353.8,355133.5,355133.69999981,2024-05-23T09:10:18Z,355148.5,NULL,Wohlstand,mafanikio,d,NA,NA,NA,manifikio,NA,NA,2,NA,NA,NA,NA,NA,NA,NA,NA,NA,NA,NA,NA,NA,NA,NA,NA,NA,NA,NA
e76f8,"""Richtig""-Screen",canvas.Screen,3_0_2_0_5_0_1,NA,NA,skipped,NA,355136.79999971,NA,NA,355133.5,355136.89999962,2024-05-23T09:10:18Z,355148.5,NULL,Wohlstand,mafanikio,d,NA,NA,NA,NA,sdf,NA,2,NA,NA,NA,NA,NA,NA,NA,NA,NA,NA,NA,NA,NA,NA,NA,NA,NA,NA,NA
e76f8,"""Falsch""-Screen",canvas.Screen,3_0_2_0_5_0_2,NA,NA,timeout,4997,355137.5999999,355136.242,355148.5,360129.3,360130.69999981,2024-05-23T09:10:23Z,360145.5,NULL,Wohlstand,mafanikio,d,NA,NA,NA,NA,sdf,0,2,NA,NA,NA,NA,NA,NA,NA,NA,NA,NA,NA,NA,NA,NA,NA,NA,NA,NA,NA
e76f8,deep,flow.Sequence,3_0_2_0_5_0,NA,NA,completion,13775.5,346339.19999981,346337.3,346353.8,360129.3,360131.19999981,2024-05-23T09:10:23Z,360145.5,NULL,Wohlstand,mafanikio,d,NA,NA,NA,NA,sdf,NA,2,NA,NA,NA,NA,NA,NA,NA,NA,NA,NA,NA,NA,NA,NA,NA,NA,NA,NA,NA
e76f8,shallow,flow.Sequence,3_0_2_0_5_1,NA,NA,skipped,NA,360131.39999962,NA,NA,360129.3,360131.69999981,2024-05-23T09:10:23Z,360145.5,NULL,Wohlstand,mafanikio,d,NA,NA,NA,NA,sdf,NA,2,NA,NA,NA,NA,NA,NA,NA,NA,NA,NA,NA,NA,NA,NA,NA,NA,NA,NA,NA
e76f8,task,flow.Sequence,3_0_2_0_5,NA,NA,completion,13775.5,346339.19999981,346337.3,346353.8,360129.3,360132,2024-05-23T09:10:23Z,360145.5,NULL,Wohlstand,mafanikio,d,NA,NA,NA,NA,sdf,NA,2,NA,NA,NA,NA,NA,NA,NA,NA,NA,NA,NA,NA,NA,NA,NA,NA,NA,NA,NA
e76f8,deep,flow.Sequence,3_0_2_0_6_0,NA,NA,skipped,NA,360132.19999981,NA,NA,360129.3,360132.39999962,2024-05-23T09:10:23Z,360145.5,NULL,Respekt,heshima,s,changamnao,upinzani,ufanisi,NA,sdf,NA,2,NA,NA,NA,NA,NA,NA,NA,NA,NA,NA,NA,NA,NA,NA,NA,NA,NA,NA,NA
e76f8,Shallow Question,html.Page,3_0_2_0_6_1_0,NA,NA,form submission,5309,360132.39999962,360129.3,360145.5,365454.5,365454.69999981,2024-05-23T09:10:29Z,365459.522,NULL,Respekt,heshima,s,changamnao,upinzani,ufanisi,heshima,NA,NA,2,NA,NA,NA,NA,NA,NA,NA,NA,NA,NA,NA,NA,NA,NA,NA,NA,NA,NA,NA
e76f8,"""Richtig""-Screen",canvas.Screen,3_0_2_0_6_1_1,NA,NA,timeout,4996.778,365457.5999999,365459.522,365459.522,370439.4,370441.19999981,2024-05-23T09:10:34Z,370456.3,NULL,Respekt,heshima,s,changamnao,upinzani,ufanisi,NA,sdf,1,2,NA,NA,NA,NA,NA,NA,NA,NA,NA,NA,NA,NA,NA,NA,NA,NA,NA,NA,NA
e76f8,"""Falsch""-Screen",canvas.Screen,3_0_2_0_6_1_2,NA,NA,skipped,NA,370445.69999981,NA,NA,370439.4,370445.89999962,2024-05-23T09:10:34Z,370456.3,NULL,Respekt,heshima,s,changamnao,upinzani,ufanisi,NA,sdf,NA,2,NA,NA,NA,NA,NA,NA,NA,NA,NA,NA,NA,NA,NA,NA,NA,NA,NA,NA,NA
e76f8,shallow,flow.Sequence,3_0_2_0_6_1,NA,NA,completion,10293.9,360132.39999962,360129.3,360145.5,370439.4,370446,2024-05-23T09:10:34Z,370456.3,NULL,Respekt,heshima,s,changamnao,upinzani,ufanisi,NA,sdf,NA,2,NA,NA,NA,NA,NA,NA,NA,NA,NA,NA,NA,NA,NA,NA,NA,NA,NA,NA,NA
e76f8,task,flow.Sequence,3_0_2_0_6,NA,NA,completion,10293.9,360132.0999999,360129.3,360145.5,370439.4,370446,2024-05-23T09:10:34Z,370456.3,NULL,Respekt,heshima,s,changamnao,upinzani,ufanisi,NA,sdf,NA,2,NA,NA,NA,NA,NA,NA,NA,NA,NA,NA,NA,NA,NA,NA,NA,NA,NA,NA,NA
e76f8,Deep Question,html.Page,3_0_2_0_7_0_0,NA,NA,form submission,5845.3999998093,370446,370439.4,370456.3,376301.69999981,376301.89999962,2024-05-23T09:10:40Z,376319.4,NULL,Betrüger,mdanganyifu,d,NA,NA,NA,kinyongo,NA,NA,2,NA,NA,NA,NA,NA,NA,NA,NA,NA,NA,NA,NA,NA,NA,NA,NA,NA,NA,NA
e76f8,"""Richtig""-Screen",canvas.Screen,3_0_2_0_7_0_1,NA,NA,skipped,NA,376305,NA,NA,376301.69999981,376305.0999999,2024-05-23T09:10:40Z,376319.4,NULL,Betrüger,mdanganyifu,d,NA,NA,NA,NA,sdf,NA,2,NA,NA,NA,NA,NA,NA,NA,NA,NA,NA,NA,NA,NA,NA,NA,NA,NA,NA,NA
e76f8,"""Falsch""-Screen",canvas.Screen,3_0_2_0_7_0_2,NA,NA,timeout,4997,376305.89999962,376302.97,376319.4,381299.6,381300.5999999,2024-05-23T09:10:45Z,381316.4,NULL,Betrüger,mdanganyifu,d,NA,NA,NA,NA,sdf,0,2,NA,NA,NA,NA,NA,NA,NA,NA,NA,NA,NA,NA,NA,NA,NA,NA,NA,NA,NA
e76f8,deep,flow.Sequence,3_0_2_0_7_0,NA,NA,completion,10843.3,370446,370439.4,370456.3,381299.6,381301,2024-05-23T09:10:45Z,381316.4,NULL,Betrüger,mdanganyifu,d,NA,NA,NA,NA,sdf,NA,2,NA,NA,NA,NA,NA,NA,NA,NA,NA,NA,NA,NA,NA,NA,NA,NA,NA,NA,NA
e76f8,shallow,flow.Sequence,3_0_2_0_7_1,NA,NA,skipped,NA,381301.0999999,NA,NA,381299.6,381301.19999981,2024-05-23T09:10:45Z,381316.4,NULL,Betrüger,mdanganyifu,d,NA,NA,NA,NA,sdf,NA,2,NA,NA,NA,NA,NA,NA,NA,NA,NA,NA,NA,NA,NA,NA,NA,NA,NA,NA,NA
e76f8,task,flow.Sequence,3_0_2_0_7,NA,NA,completion,10843.3,370446,370439.4,370456.3,381299.6,381301.39999962,2024-05-23T09:10:45Z,381316.4,NULL,Betrüger,mdanganyifu,d,NA,NA,NA,NA,sdf,NA,2,NA,NA,NA,NA,NA,NA,NA,NA,NA,NA,NA,NA,NA,NA,NA,NA,NA,NA,NA
e76f8,block,flow.Loop,3_0_2_0,NA,NA,completion,103803.17,277501.0999999,277496.43,277496.43,381299.6,381301.69999981,2024-05-23T09:10:45Z,381316.4,NULL,NA,NA,NA,NA,NA,NA,NA,sdf,NA,2,NA,NA,NA,NA,NA,NA,NA,NA,NA,NA,NA,NA,NA,NA,NA,NA,NA,NA,NA
e76f8,weiter,canvas.Screen,3_0_2_1,sdf,keypress(Space),response,1027.6,381301.79999971,381299.6,381316.4,382344,382344.89999962,2024-05-23T09:10:46Z,382382.3,NULL,NA,NA,NA,NA,NA,NA,NA,sdf,NA,2,NA,NA,NA,NA,NA,NA,NA,NA,NA,NA,NA,NA,NA,NA,NA,NA,NA,NA,NA
e76f8,check continue,flow.Sequence,3_0_2,NA,NA,completion,104847.57,277501,277496.43,277496.43,382344,382345.19999981,2024-05-23T09:10:46Z,382382.3,NULL,NA,NA,NA,NA,NA,NA,NA,sdf,NA,2,NA,NA,NA,NA,NA,NA,NA,NA,NA,NA,NA,NA,NA,NA,NA,NA,NA,NA,NA
e76f8,Deep Question,html.Page,3_0_3_0_0_0_0,NA,NA,form submission,8551.7999999046,382364.69999981,382365.494,382382.3,390934.0999999,390934.29999971,2024-05-23T09:10:54Z,390943.3,NULL,Stimmung,kinyongo,d,NA,NA,NA,a,NA,NA,3,NA,NA,NA,NA,NA,NA,NA,NA,NA,NA,NA,NA,NA,NA,NA,NA,NA,NA,NA
e76f8,"""Richtig""-Screen",canvas.Screen,3_0_3_0_0_0_1,NA,NA,skipped,NA,390937.29999971,NA,NA,390934.0999999,390937.29999971,2024-05-23T09:10:54Z,390943.3,NULL,Stimmung,kinyongo,d,NA,NA,NA,NA,qt,NA,3,NA,NA,NA,NA,NA,NA,NA,NA,NA,NA,NA,NA,NA,NA,NA,NA,NA,NA,NA
e76f8,"""Falsch""-Screen",canvas.Screen,3_0_3_0_0_0_2,NA,NA,timeout,4997.3,390938.19999981,390927.626,390943.3,395923.8,395924.89999962,2024-05-23T09:10:59Z,395940.6,NULL,Stimmung,kinyongo,d,NA,NA,NA,NA,qt,0,3,NA,NA,NA,NA,NA,NA,NA,NA,NA,NA,NA,NA,NA,NA,NA,NA,NA,NA,NA
e76f8,deep,flow.Sequence,3_0_3_0_0_0,NA,NA,completion,13541.5,382364.69999981,382365.494,382382.3,395923.8,395925.39999962,2024-05-23T09:10:59Z,395940.6,NULL,Stimmung,kinyongo,d,NA,NA,NA,NA,qt,NA,3,NA,NA,NA,NA,NA,NA,NA,NA,NA,NA,NA,NA,NA,NA,NA,NA,NA,NA,NA
e76f8,shallow,flow.Sequence,3_0_3_0_0_1,NA,NA,skipped,NA,395925.5,NA,NA,395923.8,395925.5999999,2024-05-23T09:10:59Z,395940.6,NULL,Stimmung,kinyongo,d,NA,NA,NA,NA,qt,NA,3,NA,NA,NA,NA,NA,NA,NA,NA,NA,NA,NA,NA,NA,NA,NA,NA,NA,NA,NA
e76f8,task,flow.Sequence,3_0_3_0_0,NA,NA,completion,13541.5,382364.5999999,382365.494,382382.3,395923.8,395925.79999971,2024-05-23T09:10:59Z,395940.6,NULL,Stimmung,kinyongo,d,NA,NA,NA,NA,qt,NA,3,NA,NA,NA,NA,NA,NA,NA,NA,NA,NA,NA,NA,NA,NA,NA,NA,NA,NA,NA
e76f8,deep,flow.Sequence,3_0_3_0_1_0,NA,NA,skipped,NA,395926,NA,NA,395923.8,395926.0999999,2024-05-23T09:10:59Z,395940.6,NULL,Notfall,dharura,s,rairai,malalamiko,ahueni,NA,qt,NA,3,NA,NA,NA,NA,NA,NA,NA,NA,NA,NA,NA,NA,NA,NA,NA,NA,NA,NA,NA
e76f8,Shallow Question,html.Page,3_0_3_0_1_1_0,NA,NA,form submission,3155.6999997139,395926.29999971,395923.8,395940.6,399096.29999971,399096.5,2024-05-23T09:11:02Z,399104.9,NULL,Notfall,dharura,s,rairai,malalamiko,ahueni,dharura,NA,NA,3,NA,NA,NA,NA,NA,NA,NA,NA,NA,NA,NA,NA,NA,NA,NA,NA,NA,NA,NA
e76f8,"""Richtig""-Screen",canvas.Screen,3_0_3_0_1_1_1,NA,NA,timeout,4997.4,399099.5,399089.2,399104.9,404085.8,404086.79999971,2024-05-23T09:11:07Z,404102.3,NULL,Notfall,dharura,s,rairai,malalamiko,ahueni,NA,qt,1,3,NA,NA,NA,NA,NA,NA,NA,NA,NA,NA,NA,NA,NA,NA,NA,NA,NA,NA,NA
e76f8,"""Falsch""-Screen",canvas.Screen,3_0_3_0_1_1_2,NA,NA,skipped,NA,404091.39999962,NA,NA,404085.8,404091.39999962,2024-05-23T09:11:07Z,404102.3,NULL,Notfall,dharura,s,rairai,malalamiko,ahueni,NA,qt,NA,3,NA,NA,NA,NA,NA,NA,NA,NA,NA,NA,NA,NA,NA,NA,NA,NA,NA,NA,NA
e76f8,shallow,flow.Sequence,3_0_3_0_1_1,NA,NA,completion,8145.2,395926.19999981,395923.8,395940.6,404085.8,404091.5,2024-05-23T09:11:07Z,404102.3,NULL,Notfall,dharura,s,rairai,malalamiko,ahueni,NA,qt,NA,3,NA,NA,NA,NA,NA,NA,NA,NA,NA,NA,NA,NA,NA,NA,NA,NA,NA,NA,NA
e76f8,task,flow.Sequence,3_0_3_0_1,NA,NA,completion,8145.2,395925.89999962,395923.8,395940.6,404085.8,404091.69999981,2024-05-23T09:11:07Z,404102.3,NULL,Notfall,dharura,s,rairai,malalamiko,ahueni,NA,qt,NA,3,NA,NA,NA,NA,NA,NA,NA,NA,NA,NA,NA,NA,NA,NA,NA,NA,NA,NA,NA
e76f8,Deep Question,html.Page,3_0_3_0_2_0_0,NA,NA,form submission,6328.7,404091.69999981,404085.8,404102.3,410431,410431.19999981,2024-05-23T09:11:14Z,410448.7,NULL,Betrüger,mdanganyifu,d,NA,NA,NA,mdanganufo,NA,NA,3,NA,NA,NA,NA,NA,NA,NA,NA,NA,NA,NA,NA,NA,NA,NA,NA,NA,NA,NA
e76f8,"""Richtig""-Screen",canvas.Screen,3_0_3_0_2_0_1,NA,NA,skipped,NA,410434.0999999,NA,NA,410431,410434.19999981,2024-05-23T09:11:14Z,410448.7,NULL,Betrüger,mdanganyifu,d,NA,NA,NA,NA,qt,NA,3,NA,NA,NA,NA,NA,NA,NA,NA,NA,NA,NA,NA,NA,NA,NA,NA,NA,NA,NA
e76f8,"""Falsch""-Screen",canvas.Screen,3_0_3_0_2_0_2,NA,NA,timeout,4996.7,410435,410433.052,410448.7,415428.8,415429.29999971,2024-05-23T09:11:19Z,415445.4,NULL,Betrüger,mdanganyifu,d,NA,NA,NA,NA,qt,0,3,NA,NA,NA,NA,NA,NA,NA,NA,NA,NA,NA,NA,NA,NA,NA,NA,NA,NA,NA
e76f8,deep,flow.Sequence,3_0_3_0_2_0,NA,NA,completion,11326.5,404091.69999981,404085.8,404102.3,415428.8,415429.39999962,2024-05-23T09:11:19Z,415445.4,NULL,Betrüger,mdanganyifu,d,NA,NA,NA,NA,qt,NA,3,NA,NA,NA,NA,NA,NA,NA,NA,NA,NA,NA,NA,NA,NA,NA,NA,NA,NA,NA
e76f8,shallow,flow.Sequence,3_0_3_0_2_1,NA,NA,skipped,NA,415429.5,NA,NA,415428.8,415429.5999999,2024-05-23T09:11:19Z,415445.4,NULL,Betrüger,mdanganyifu,d,NA,NA,NA,NA,qt,NA,3,NA,NA,NA,NA,NA,NA,NA,NA,NA,NA,NA,NA,NA,NA,NA,NA,NA,NA,NA
e76f8,task,flow.Sequence,3_0_3_0_2,NA,NA,completion,11326.5,404091.69999981,404085.8,404102.3,415428.8,415429.5999999,2024-05-23T09:11:19Z,415445.4,NULL,Betrüger,mdanganyifu,d,NA,NA,NA,NA,qt,NA,3,NA,NA,NA,NA,NA,NA,NA,NA,NA,NA,NA,NA,NA,NA,NA,NA,NA,NA,NA
e76f8,deep,flow.Sequence,3_0_3_0_3_0,NA,NA,skipped,NA,415429.69999981,NA,NA,415428.8,415429.69999981,2024-05-23T09:11:19Z,415445.4,NULL,Vergnügen,kichekesho,s,dubwana,mpanuko,mtesaji,NA,qt,NA,3,NA,NA,NA,NA,NA,NA,NA,NA,NA,NA,NA,NA,NA,NA,NA,NA,NA,NA,NA
e76f8,Shallow Question,html.Page,3_0_3_0_3_1_0,NA,NA,form submission,2973.1999999046,415429.69999981,415428.8,415445.4,418418.5999999,418418.89999962,2024-05-23T09:11:22Z,418426.4,NULL,Vergnügen,kichekesho,s,dubwana,mpanuko,mtesaji,kichekesho,NA,NA,3,NA,NA,NA,NA,NA,NA,NA,NA,NA,NA,NA,NA,NA,NA,NA,NA,NA,NA,NA
e76f8,"""Richtig""-Screen",canvas.Screen,3_0_3_0_3_1_1,NA,NA,timeout,4997.5,418423.19999981,418410.514,418426.4,423407.3,423408.5999999,2024-05-23T09:11:27Z,423423.9,NULL,Vergnügen,kichekesho,s,dubwana,mpanuko,mtesaji,NA,qt,1,3,NA,NA,NA,NA,NA,NA,NA,NA,NA,NA,NA,NA,NA,NA,NA,NA,NA,NA,NA
e76f8,"""Falsch""-Screen",canvas.Screen,3_0_3_0_3_1_2,NA,NA,skipped,NA,423413.5999999,NA,NA,423407.3,423413.79999971,2024-05-23T09:11:27Z,423423.9,NULL,Vergnügen,kichekesho,s,dubwana,mpanuko,mtesaji,NA,qt,NA,3,NA,NA,NA,NA,NA,NA,NA,NA,NA,NA,NA,NA,NA,NA,NA,NA,NA,NA,NA
e76f8,shallow,flow.Sequence,3_0_3_0_3_1,NA,NA,completion,7961.9,415429.69999981,415428.8,415445.4,423407.3,423413.79999971,2024-05-23T09:11:27Z,423423.9,NULL,Vergnügen,kichekesho,s,dubwana,mpanuko,mtesaji,NA,qt,NA,3,NA,NA,NA,NA,NA,NA,NA,NA,NA,NA,NA,NA,NA,NA,NA,NA,NA,NA,NA
e76f8,task,flow.Sequence,3_0_3_0_3,NA,NA,completion,7961.9,415429.69999981,415428.8,415445.4,423407.3,423413.89999962,2024-05-23T09:11:27Z,423423.9,NULL,Vergnügen,kichekesho,s,dubwana,mpanuko,mtesaji,NA,qt,NA,3,NA,NA,NA,NA,NA,NA,NA,NA,NA,NA,NA,NA,NA,NA,NA,NA,NA,NA,NA
e76f8,deep,flow.Sequence,3_0_3_0_4_0,NA,NA,skipped,NA,423414,NA,NA,423407.3,423414,2024-05-23T09:11:27Z,423423.9,NULL,Respekt,heshima,s,changamnao,upinzani,ufanisi,NA,qt,NA,3,NA,NA,NA,NA,NA,NA,NA,NA,NA,NA,NA,NA,NA,NA,NA,NA,NA,NA,NA
e76f8,Shallow Question,html.Page,3_0_3_0_4_1_0,NA,NA,form submission,3434.6,423414,423407.3,423423.9,426858.5,426858.69999981,2024-05-23T09:11:30Z,426871.8,NULL,Respekt,heshima,s,changamnao,upinzani,ufanisi,heshima,NA,NA,3,NA,NA,NA,NA,NA,NA,NA,NA,NA,NA,NA,NA,NA,NA,NA,NA,NA,NA,NA
e76f8,"""Richtig""-Screen",canvas.Screen,3_0_3_0_4_1_1,NA,NA,timeout,4997,426861.5,426856.1,426871.8,431852,431852.89999962,2024-05-23T09:11:35Z,431868.8,NULL,Respekt,heshima,s,changamnao,upinzani,ufanisi,NA,qt,1,3,NA,NA,NA,NA,NA,NA,NA,NA,NA,NA,NA,NA,NA,NA,NA,NA,NA,NA,NA
e76f8,"""Falsch""-Screen",canvas.Screen,3_0_3_0_4_1_2,NA,NA,skipped,NA,431857.79999971,NA,NA,431852,431857.89999962,2024-05-23T09:11:35Z,431868.8,NULL,Respekt,heshima,s,changamnao,upinzani,ufanisi,NA,qt,NA,3,NA,NA,NA,NA,NA,NA,NA,NA,NA,NA,NA,NA,NA,NA,NA,NA,NA,NA,NA
e76f8,shallow,flow.Sequence,3_0_3_0_4_1,NA,NA,completion,8428.1,423414,423407.3,423423.9,431852,431857.89999962,2024-05-23T09:11:35Z,431868.8,NULL,Respekt,heshima,s,changamnao,upinzani,ufanisi,NA,qt,NA,3,NA,NA,NA,NA,NA,NA,NA,NA,NA,NA,NA,NA,NA,NA,NA,NA,NA,NA,NA
e76f8,task,flow.Sequence,3_0_3_0_4,NA,NA,completion,8428.1,423414,423407.3,423423.9,431852,431858,2024-05-23T09:11:35Z,431868.8,NULL,Respekt,heshima,s,changamnao,upinzani,ufanisi,NA,qt,NA,3,NA,NA,NA,NA,NA,NA,NA,NA,NA,NA,NA,NA,NA,NA,NA,NA,NA,NA,NA
e76f8,deep,flow.Sequence,3_0_3_0_5_0,NA,NA,skipped,NA,431858,NA,NA,431852,431858.0999999,2024-05-23T09:11:35Z,431868.8,NULL,Orientierung,urekebisho,s,uelekeo,marekebisho,utunzaji,NA,qt,NA,3,NA,NA,NA,NA,NA,NA,NA,NA,NA,NA,NA,NA,NA,NA,NA,NA,NA,NA,NA
e76f8,Shallow Question,html.Page,3_0_3_0_5_1_0,NA,NA,form submission,4323.2999999046,431858.0999999,431852,431868.8,436192.0999999,436192.29999971,2024-05-23T09:11:40Z,436199.724,NULL,Orientierung,urekebisho,s,uelekeo,marekebisho,utunzaji,urekebisho,NA,NA,3,NA,NA,NA,NA,NA,NA,NA,NA,NA,NA,NA,NA,NA,NA,NA,NA,NA,NA,NA
e76f8,"""Richtig""-Screen",canvas.Screen,3_0_3_0_5_1_1,NA,NA,timeout,4996.476,436195.0999999,436199.724,436199.724,441179.3,441180.79999971,2024-05-23T09:11:45Z,441196.2,NULL,Orientierung,urekebisho,s,uelekeo,marekebisho,utunzaji,NA,qt,1,3,NA,NA,NA,NA,NA,NA,NA,NA,NA,NA,NA,NA,NA,NA,NA,NA,NA,NA,NA
e76f8,"""Falsch""-Screen",canvas.Screen,3_0_3_0_5_1_2,NA,NA,skipped,NA,441186.19999981,NA,NA,441179.3,441186.39999962,2024-05-23T09:11:45Z,441196.2,NULL,Orientierung,urekebisho,s,uelekeo,marekebisho,utunzaji,NA,qt,NA,3,NA,NA,NA,NA,NA,NA,NA,NA,NA,NA,NA,NA,NA,NA,NA,NA,NA,NA,NA
e76f8,shallow,flow.Sequence,3_0_3_0_5_1,NA,NA,completion,9310.5,431858.0999999,431852,431868.8,441179.3,441186.69999981,2024-05-23T09:11:45Z,441196.2,NULL,Orientierung,urekebisho,s,uelekeo,marekebisho,utunzaji,NA,qt,NA,3,NA,NA,NA,NA,NA,NA,NA,NA,NA,NA,NA,NA,NA,NA,NA,NA,NA,NA,NA
e76f8,task,flow.Sequence,3_0_3_0_5,NA,NA,completion,9310.5,431858,431852,431868.8,441179.3,441186.89999962,2024-05-23T09:11:45Z,441196.2,NULL,Orientierung,urekebisho,s,uelekeo,marekebisho,utunzaji,NA,qt,NA,3,NA,NA,NA,NA,NA,NA,NA,NA,NA,NA,NA,NA,NA,NA,NA,NA,NA,NA,NA
e76f8,Deep Question,html.Page,3_0_3_0_6_0_0,NA,NA,form submission,5414.3999999046,441187.0999999,441179.3,441196.2,446610.5999999,446610.89999962,2024-05-23T09:11:50Z,446626.3,NULL,Wohlstand,mafanikio,d,NA,NA,NA,manafiko,NA,NA,3,NA,NA,NA,NA,NA,NA,NA,NA,NA,NA,NA,NA,NA,NA,NA,NA,NA,NA,NA
e76f8,"""Richtig""-Screen",canvas.Screen,3_0_3_0_6_0_1,NA,NA,skipped,NA,446613.79999971,NA,NA,446610.5999999,446613.79999971,2024-05-23T09:11:50Z,446626.3,NULL,Wohlstand,mafanikio,d,NA,NA,NA,NA,qt,NA,3,NA,NA,NA,NA,NA,NA,NA,NA,NA,NA,NA,NA,NA,NA,NA,NA,NA,NA,NA
e76f8,"""Falsch""-Screen",canvas.Screen,3_0_3_0_6_0_2,NA,NA,timeout,4996.7,446614.5999999,446612.106,446626.3,451606.4,451609.0999999,2024-05-23T09:11:55Z,451623,NULL,Wohlstand,mafanikio,d,NA,NA,NA,NA,qt,0,3,NA,NA,NA,NA,NA,NA,NA,NA,NA,NA,NA,NA,NA,NA,NA,NA,NA,NA,NA
e76f8,deep,flow.Sequence,3_0_3_0_6_0,NA,NA,completion,10410.2,441187.0999999,441179.3,441196.2,451606.4,451609.5999999,2024-05-23T09:11:55Z,451623,NULL,Wohlstand,mafanikio,d,NA,NA,NA,NA,qt,NA,3,NA,NA,NA,NA,NA,NA,NA,NA,NA,NA,NA,NA,NA,NA,NA,NA,NA,NA,NA
e76f8,shallow,flow.Sequence,3_0_3_0_6_1,NA,NA,skipped,NA,451609.79999971,NA,NA,451606.4,451610,2024-05-23T09:11:55Z,451623,NULL,Wohlstand,mafanikio,d,NA,NA,NA,NA,qt,NA,3,NA,NA,NA,NA,NA,NA,NA,NA,NA,NA,NA,NA,NA,NA,NA,NA,NA,NA,NA
e76f8,task,flow.Sequence,3_0_3_0_6,NA,NA,completion,10410.2,441187,441179.3,441196.2,451606.4,451610.19999981,2024-05-23T09:11:55Z,451623,NULL,Wohlstand,mafanikio,d,NA,NA,NA,NA,qt,NA,3,NA,NA,NA,NA,NA,NA,NA,NA,NA,NA,NA,NA,NA,NA,NA,NA,NA,NA,NA
e76f8,Deep Question,html.Page,3_0_3_0_7_0_0,NA,NA,form submission,5019.1999998093,451610.39999962,451606.4,451623,456642.19999981,456642.39999962,2024-05-23T09:12:00Z,456653.4,NULL,Ergänzung,kijalizo,d,NA,NA,NA,a,NA,NA,3,NA,NA,NA,NA,NA,NA,NA,NA,NA,NA,NA,NA,NA,NA,NA,NA,NA,NA,NA
e76f8,"""Richtig""-Screen",canvas.Screen,3_0_3_0_7_0_1,NA,NA,skipped,NA,456645.39999962,NA,NA,456642.19999981,456645.5999999,2024-05-23T09:12:00Z,456653.4,NULL,Ergänzung,kijalizo,d,NA,NA,NA,NA,qt,NA,3,NA,NA,NA,NA,NA,NA,NA,NA,NA,NA,NA,NA,NA,NA,NA,NA,NA,NA,NA
e76f8,"""Falsch""-Screen",canvas.Screen,3_0_3_0_7_0_2,NA,NA,timeout,4996.7,456646.19999981,456637.024,456653.4,461633.4,461635.5,2024-05-23T09:12:05Z,461650.1,NULL,Ergänzung,kijalizo,d,NA,NA,NA,NA,qt,0,3,NA,NA,NA,NA,NA,NA,NA,NA,NA,NA,NA,NA,NA,NA,NA,NA,NA,NA,NA
e76f8,deep,flow.Sequence,3_0_3_0_7_0,NA,NA,completion,10010.4,451610.29999971,451606.4,451623,461633.4,461635.69999981,2024-05-23T09:12:05Z,461650.1,NULL,Ergänzung,kijalizo,d,NA,NA,NA,NA,qt,NA,3,NA,NA,NA,NA,NA,NA,NA,NA,NA,NA,NA,NA,NA,NA,NA,NA,NA,NA,NA
e76f8,shallow,flow.Sequence,3_0_3_0_7_1,NA,NA,skipped,NA,461635.69999981,NA,NA,461633.4,461635.89999962,2024-05-23T09:12:05Z,461650.1,NULL,Ergänzung,kijalizo,d,NA,NA,NA,NA,qt,NA,3,NA,NA,NA,NA,NA,NA,NA,NA,NA,NA,NA,NA,NA,NA,NA,NA,NA,NA,NA
e76f8,task,flow.Sequence,3_0_3_0_7,NA,NA,completion,10010.4,451610.19999981,451606.4,451623,461633.4,461636,2024-05-23T09:12:05Z,461650.1,NULL,Ergänzung,kijalizo,d,NA,NA,NA,NA,qt,NA,3,NA,NA,NA,NA,NA,NA,NA,NA,NA,NA,NA,NA,NA,NA,NA,NA,NA,NA,NA
e76f8,block,flow.Loop,3_0_3_0,NA,NA,completion,79251.1,382364.5999999,382365.494,382382.3,461633.4,461636.0999999,2024-05-23T09:12:05Z,461650.1,NULL,NA,NA,NA,NA,NA,NA,NA,qt,NA,3,NA,NA,NA,NA,NA,NA,NA,NA,NA,NA,NA,NA,NA,NA,NA,NA,NA,NA,NA
e76f8,weiter,canvas.Screen,3_0_3_1,sdf,keypress(Space),response,583.49999990466,461636.0999999,461633.4,461650.1,462233.5999999,462234,2024-05-23T09:12:06Z,462266.9,NULL,NA,NA,NA,NA,NA,NA,NA,qt,NA,3,NA,NA,NA,NA,NA,NA,NA,NA,NA,NA,NA,NA,NA,NA,NA,NA,NA,NA,NA
e76f8,check continue,flow.Sequence,3_0_3,NA,NA,completion,79851.299999905,382364.5999999,382365.494,382382.3,462233.5999999,462234.0999999,2024-05-23T09:12:06Z,462266.9,NULL,NA,NA,NA,NA,NA,NA,NA,qt,NA,3,NA,NA,NA,NA,NA,NA,NA,NA,NA,NA,NA,NA,NA,NA,NA,NA,NA,NA,NA
e76f8,Deep Question,html.Page,3_0_4_0_0_0_0,NA,NA,form submission,7615.6,462249.89999962,462250.076,462266.9,469882.5,469882.79999971,2024-05-23T09:12:13Z,469895.1,NULL,Betrüger,mdanganyifu,d,NA,NA,NA,mdanganufo,NA,NA,4,NA,NA,NA,NA,NA,NA,NA,NA,NA,NA,NA,NA,NA,NA,NA,NA,NA,NA,NA
e76f8,"""Richtig""-Screen",canvas.Screen,3_0_4_0_0_0_1,NA,NA,skipped,NA,469885.69999981,NA,NA,469882.5,469885.79999971,2024-05-23T09:12:13Z,469895.1,NULL,Betrüger,mdanganyifu,d,NA,NA,NA,NA,sd,NA,4,NA,NA,NA,NA,NA,NA,NA,NA,NA,NA,NA,NA,NA,NA,NA,NA,NA,NA,NA
e76f8,"""Falsch""-Screen",canvas.Screen,3_0_4_0_0_0_2,NA,NA,timeout,4997.4,469886.5,469879.56,469895.1,474875.7,474876.69999981,2024-05-23T09:12:18Z,474892.5,NULL,Betrüger,mdanganyifu,d,NA,NA,NA,NA,sd,0,4,NA,NA,NA,NA,NA,NA,NA,NA,NA,NA,NA,NA,NA,NA,NA,NA,NA,NA,NA
e76f8,deep,flow.Sequence,3_0_4_0_0_0,NA,NA,completion,12608.8,462249.89999962,462250.076,462266.9,474875.7,474877.19999981,2024-05-23T09:12:18Z,474892.5,NULL,Betrüger,mdanganyifu,d,NA,NA,NA,NA,sd,NA,4,NA,NA,NA,NA,NA,NA,NA,NA,NA,NA,NA,NA,NA,NA,NA,NA,NA,NA,NA
e76f8,shallow,flow.Sequence,3_0_4_0_0_1,NA,NA,skipped,NA,474877.39999962,NA,NA,474875.7,474877.5,2024-05-23T09:12:18Z,474892.5,NULL,Betrüger,mdanganyifu,d,NA,NA,NA,NA,sd,NA,4,NA,NA,NA,NA,NA,NA,NA,NA,NA,NA,NA,NA,NA,NA,NA,NA,NA,NA,NA
e76f8,task,flow.Sequence,3_0_4_0_0,NA,NA,completion,12608.8,462249.89999962,462250.076,462266.9,474875.7,474877.79999971,2024-05-23T09:12:18Z,474892.5,NULL,Betrüger,mdanganyifu,d,NA,NA,NA,NA,sd,NA,4,NA,NA,NA,NA,NA,NA,NA,NA,NA,NA,NA,NA,NA,NA,NA,NA,NA,NA,NA
e76f8,deep,flow.Sequence,3_0_4_0_1_0,NA,NA,skipped,NA,474877.89999962,NA,NA,474875.7,474878,2024-05-23T09:12:18Z,474892.5,NULL,Orientierung,urekebisho,s,uelekeo,marekebisho,utunzaji,NA,sd,NA,4,NA,NA,NA,NA,NA,NA,NA,NA,NA,NA,NA,NA,NA,NA,NA,NA,NA,NA,NA
e76f8,Shallow Question,html.Page,3_0_4_0_1_1_0,NA,NA,form submission,3620.1999998093,474878.0999999,474875.7,474892.5,478512.69999981,478513,2024-05-23T09:12:22Z,478539.8,NULL,Orientierung,urekebisho,s,uelekeo,marekebisho,utunzaji,urekebisho,NA,NA,4,NA,NA,NA,NA,NA,NA,NA,NA,NA,NA,NA,NA,NA,NA,NA,NA,NA,NA,NA
e76f8,"""Richtig""-Screen",canvas.Screen,3_0_4_0_1_1_1,NA,NA,timeout,4997.6,478516.0999999,478523.566,478539.8,483520.2,483521.0999999,2024-05-23T09:12:27Z,483537.4,NULL,Orientierung,urekebisho,s,uelekeo,marekebisho,utunzaji,NA,sd,1,4,NA,NA,NA,NA,NA,NA,NA,NA,NA,NA,NA,NA,NA,NA,NA,NA,NA,NA,NA
e76f8,"""Falsch""-Screen",canvas.Screen,3_0_4_0_1_1_2,NA,NA,skipped,NA,483526.0999999,NA,NA,483520.2,483526.19999981,2024-05-23T09:12:27Z,483537.4,NULL,Orientierung,urekebisho,s,uelekeo,marekebisho,utunzaji,NA,sd,NA,4,NA,NA,NA,NA,NA,NA,NA,NA,NA,NA,NA,NA,NA,NA,NA,NA,NA,NA,NA
e76f8,shallow,flow.Sequence,3_0_4_0_1_1,NA,NA,completion,8627.7,474878.0999999,474875.7,474892.5,483520.2,483526.29999971,2024-05-23T09:12:27Z,483537.4,NULL,Orientierung,urekebisho,s,uelekeo,marekebisho,utunzaji,NA,sd,NA,4,NA,NA,NA,NA,NA,NA,NA,NA,NA,NA,NA,NA,NA,NA,NA,NA,NA,NA,NA
e76f8,task,flow.Sequence,3_0_4_0_1,NA,NA,completion,8627.7,474877.89999962,474875.7,474892.5,483520.2,483526.39999962,2024-05-23T09:12:27Z,483537.4,NULL,Orientierung,urekebisho,s,uelekeo,marekebisho,utunzaji,NA,sd,NA,4,NA,NA,NA,NA,NA,NA,NA,NA,NA,NA,NA,NA,NA,NA,NA,NA,NA,NA,NA
e76f8,Deep Question,html.Page,3_0_4_0_2_0_0,NA,NA,form submission,16973.499999619,483526.39999962,483520.2,483537.4,500510.89999962,500511.0999999,2024-05-23T09:12:44Z,500526.4,NULL,Stimmung,kinyongo,d,NA,NA,NA,kinyongo,NA,NA,4,NA,NA,NA,NA,NA,NA,NA,NA,NA,NA,NA,NA,NA,NA,NA,NA,NA,NA,NA
e76f8,"""Richtig""-Screen",canvas.Screen,3_0_4_0_2_0_1,NA,NA,timeout,4997.3,500513.0999999,500509.7,500526.4,505506.8,505507.79999971,2024-05-23T09:12:49Z,505523.7,NULL,Stimmung,kinyongo,d,NA,NA,NA,NA,sd,1,4,NA,NA,NA,NA,NA,NA,NA,NA,NA,NA,NA,NA,NA,NA,NA,NA,NA,NA,NA
e76f8,"""Falsch""-Screen",canvas.Screen,3_0_4_0_2_0_2,NA,NA,skipped,NA,505512.79999971,NA,NA,505506.8,505513.0999999,2024-05-23T09:12:49Z,505523.7,NULL,Stimmung,kinyongo,d,NA,NA,NA,NA,sd,NA,4,NA,NA,NA,NA,NA,NA,NA,NA,NA,NA,NA,NA,NA,NA,NA,NA,NA,NA,NA
e76f8,deep,flow.Sequence,3_0_4_0_2_0,NA,NA,completion,21969.4,483526.39999962,483520.2,483537.4,505506.8,505513.19999981,2024-05-23T09:12:49Z,505523.7,NULL,Stimmung,kinyongo,d,NA,NA,NA,NA,sd,NA,4,NA,NA,NA,NA,NA,NA,NA,NA,NA,NA,NA,NA,NA,NA,NA,NA,NA,NA,NA
e76f8,shallow,flow.Sequence,3_0_4_0_2_1,NA,NA,skipped,NA,505513.19999981,NA,NA,505506.8,505513.19999981,2024-05-23T09:12:49Z,505523.7,NULL,Stimmung,kinyongo,d,NA,NA,NA,NA,sd,NA,4,NA,NA,NA,NA,NA,NA,NA,NA,NA,NA,NA,NA,NA,NA,NA,NA,NA,NA,NA
e76f8,task,flow.Sequence,3_0_4_0_2,NA,NA,completion,21969.4,483526.39999962,483520.2,483537.4,505506.8,505513.29999971,2024-05-23T09:12:49Z,505523.7,NULL,Stimmung,kinyongo,d,NA,NA,NA,NA,sd,NA,4,NA,NA,NA,NA,NA,NA,NA,NA,NA,NA,NA,NA,NA,NA,NA,NA,NA,NA,NA
e76f8,Deep Question,html.Page,3_0_4_0_3_0_0,NA,NA,form submission,5131.3,505513.29999971,505506.8,505523.7,510655,510655.29999971,2024-05-23T09:12:54Z,510687.2,NULL,Ergänzung,kijalizo,d,NA,NA,NA,d,NA,NA,4,NA,NA,NA,NA,NA,NA,NA,NA,NA,NA,NA,NA,NA,NA,NA,NA,NA,NA,NA
e76f8,"""Richtig""-Screen",canvas.Screen,3_0_4_0_3_0_1,NA,NA,skipped,NA,510658.19999981,NA,NA,510655,510658.29999971,2024-05-23T09:12:54Z,510687.2,NULL,Ergänzung,kijalizo,d,NA,NA,NA,NA,sd,NA,4,NA,NA,NA,NA,NA,NA,NA,NA,NA,NA,NA,NA,NA,NA,NA,NA,NA,NA,NA
e76f8,"""Falsch""-Screen",canvas.Screen,3_0_4_0_3_0_2,NA,NA,timeout,4997.1,510658.89999962,510670.5,510687.2,515667.5,515668.5999999,2024-05-23T09:12:59Z,515684.3,NULL,Ergänzung,kijalizo,d,NA,NA,NA,NA,sd,0,4,NA,NA,NA,NA,NA,NA,NA,NA,NA,NA,NA,NA,NA,NA,NA,NA,NA,NA,NA
e76f8,deep,flow.Sequence,3_0_4_0_3_0,NA,NA,completion,10143.8,505513.29999971,505506.8,505523.7,515667.5,515669,2024-05-23T09:12:59Z,515684.3,NULL,Ergänzung,kijalizo,d,NA,NA,NA,NA,sd,NA,4,NA,NA,NA,NA,NA,NA,NA,NA,NA,NA,NA,NA,NA,NA,NA,NA,NA,NA,NA
e76f8,shallow,flow.Sequence,3_0_4_0_3_1,NA,NA,skipped,NA,515669.29999971,NA,NA,515667.5,515669.5,2024-05-23T09:12:59Z,515684.3,NULL,Ergänzung,kijalizo,d,NA,NA,NA,NA,sd,NA,4,NA,NA,NA,NA,NA,NA,NA,NA,NA,NA,NA,NA,NA,NA,NA,NA,NA,NA,NA
e76f8,task,flow.Sequence,3_0_4_0_3,NA,NA,completion,10143.8,505513.29999971,505506.8,505523.7,515667.5,515669.79999971,2024-05-23T09:12:59Z,515684.3,NULL,Ergänzung,kijalizo,d,NA,NA,NA,NA,sd,NA,4,NA,NA,NA,NA,NA,NA,NA,NA,NA,NA,NA,NA,NA,NA,NA,NA,NA,NA,NA
e76f8,deep,flow.Sequence,3_0_4_0_4_0,NA,NA,skipped,NA,515670,NA,NA,515667.5,515670.19999981,2024-05-23T09:12:59Z,515684.3,NULL,Respekt,heshima,s,changamnao,upinzani,ufanisi,NA,sd,NA,4,NA,NA,NA,NA,NA,NA,NA,NA,NA,NA,NA,NA,NA,NA,NA,NA,NA,NA,NA
e76f8,Shallow Question,html.Page,3_0_4_0_4_1_0,NA,NA,form submission,2767.9999997139,515670.39999962,515667.5,515684.3,518452.29999971,518452.5,2024-05-23T09:13:02Z,518482.1,NULL,Respekt,heshima,s,changamnao,upinzani,ufanisi,heshima,NA,NA,4,NA,NA,NA,NA,NA,NA,NA,NA,NA,NA,NA,NA,NA,NA,NA,NA,NA,NA,NA
e76f8,"""Richtig""-Screen",canvas.Screen,3_0_4_0_4_1_1,NA,NA,timeout,4997.2,518455.29999971,518466.056,518482.1,523462.6,523464.0999999,2024-05-23T09:13:07Z,523479.3,NULL,Respekt,heshima,s,changamnao,upinzani,ufanisi,NA,sd,1,4,NA,NA,NA,NA,NA,NA,NA,NA,NA,NA,NA,NA,NA,NA,NA,NA,NA,NA,NA
e76f8,"""Falsch""-Screen",canvas.Screen,3_0_4_0_4_1_2,NA,NA,skipped,NA,523469.19999981,NA,NA,523462.6,523469.29999971,2024-05-23T09:13:07Z,523479.3,NULL,Respekt,heshima,s,changamnao,upinzani,ufanisi,NA,sd,NA,4,NA,NA,NA,NA,NA,NA,NA,NA,NA,NA,NA,NA,NA,NA,NA,NA,NA,NA,NA
e76f8,shallow,flow.Sequence,3_0_4_0_4_1,NA,NA,completion,7778.3,515670.39999962,515667.5,515684.3,523462.6,523469.39999962,2024-05-23T09:13:07Z,523479.3,NULL,Respekt,heshima,s,changamnao,upinzani,ufanisi,NA,sd,NA,4,NA,NA,NA,NA,NA,NA,NA,NA,NA,NA,NA,NA,NA,NA,NA,NA,NA,NA,NA
e76f8,task,flow.Sequence,3_0_4_0_4,NA,NA,completion,7778.3,515669.89999962,515667.5,515684.3,523462.6,523469.5,2024-05-23T09:13:07Z,523479.3,NULL,Respekt,heshima,s,changamnao,upinzani,ufanisi,NA,sd,NA,4,NA,NA,NA,NA,NA,NA,NA,NA,NA,NA,NA,NA,NA,NA,NA,NA,NA,NA,NA
e76f8,deep,flow.Sequence,3_0_4_0_5_0,NA,NA,skipped,NA,523469.5,NA,NA,523462.6,523469.5,2024-05-23T09:13:07Z,523479.3,NULL,Notfall,dharura,s,rairai,malalamiko,ahueni,NA,sd,NA,4,NA,NA,NA,NA,NA,NA,NA,NA,NA,NA,NA,NA,NA,NA,NA,NA,NA,NA,NA
e76f8,Shallow Question,html.Page,3_0_4_0_5_1_0,NA,NA,form submission,3382.2999999046,523469.5,523462.6,523479.3,526861.5999999,526861.79999971,2024-05-23T09:13:10Z,526877.6,NULL,Notfall,dharura,s,rairai,malalamiko,ahueni,dharura,NA,NA,4,NA,NA,NA,NA,NA,NA,NA,NA,NA,NA,NA,NA,NA,NA,NA,NA,NA,NA,NA
e76f8,"""Richtig""-Screen",canvas.Screen,3_0_4_0_5_1_1,NA,NA,timeout,4996.4,526864.5999999,526860.928,526877.6,531857.4,531858.69999981,2024-05-23T09:13:15Z,531874,NULL,Notfall,dharura,s,rairai,malalamiko,ahueni,NA,sd,1,4,NA,NA,NA,NA,NA,NA,NA,NA,NA,NA,NA,NA,NA,NA,NA,NA,NA,NA,NA
e76f8,"""Falsch""-Screen",canvas.Screen,3_0_4_0_5_1_2,NA,NA,skipped,NA,531863.79999971,NA,NA,531857.4,531864.0999999,2024-05-23T09:13:15Z,531874,NULL,Notfall,dharura,s,rairai,malalamiko,ahueni,NA,sd,NA,4,NA,NA,NA,NA,NA,NA,NA,NA,NA,NA,NA,NA,NA,NA,NA,NA,NA,NA,NA
e76f8,shallow,flow.Sequence,3_0_4_0_5_1,NA,NA,completion,8378.1,523469.5,523462.6,523479.3,531857.4,531864.39999962,2024-05-23T09:13:15Z,531874,NULL,Notfall,dharura,s,rairai,malalamiko,ahueni,NA,sd,NA,4,NA,NA,NA,NA,NA,NA,NA,NA,NA,NA,NA,NA,NA,NA,NA,NA,NA,NA,NA
e76f8,task,flow.Sequence,3_0_4_0_5,NA,NA,completion,8378.1,523469.5,523462.6,523479.3,531857.4,531864.69999981,2024-05-23T09:13:15Z,531874,NULL,Notfall,dharura,s,rairai,malalamiko,ahueni,NA,sd,NA,4,NA,NA,NA,NA,NA,NA,NA,NA,NA,NA,NA,NA,NA,NA,NA,NA,NA,NA,NA
e76f8,Deep Question,html.Page,3_0_4_0_6_0_0,NA,NA,form submission,6328.7999997139,531864.79999971,531857.4,531874,538202.79999971,538203.0999999,2024-05-23T09:13:22Z,538221.3,NULL,Wohlstand,mafanikio,d,NA,NA,NA,manafikio,NA,NA,4,NA,NA,NA,NA,NA,NA,NA,NA,NA,NA,NA,NA,NA,NA,NA,NA,NA,NA,NA
e76f8,"""Richtig""-Screen",canvas.Screen,3_0_4_0_6_0_1,NA,NA,skipped,NA,538205.89999962,NA,NA,538202.79999971,538206,2024-05-23T09:13:22Z,538221.3,NULL,Wohlstand,mafanikio,d,NA,NA,NA,NA,sd,NA,4,NA,NA,NA,NA,NA,NA,NA,NA,NA,NA,NA,NA,NA,NA,NA,NA,NA,NA,NA
e76f8,"""Falsch""-Screen",canvas.Screen,3_0_4_0_6_0_2,NA,NA,timeout,4996.2,538206.69999981,538205.358,538221.3,543200.6,543201.0999999,2024-05-23T09:13:27Z,543217.5,NULL,Wohlstand,mafanikio,d,NA,NA,NA,NA,sd,0,4,NA,NA,NA,NA,NA,NA,NA,NA,NA,NA,NA,NA,NA,NA,NA,NA,NA,NA,NA
e76f8,deep,flow.Sequence,3_0_4_0_6_0,NA,NA,completion,11326.6,531864.69999981,531857.4,531874,543200.6,543201.29999971,2024-05-23T09:13:27Z,543217.5,NULL,Wohlstand,mafanikio,d,NA,NA,NA,NA,sd,NA,4,NA,NA,NA,NA,NA,NA,NA,NA,NA,NA,NA,NA,NA,NA,NA,NA,NA,NA,NA
e76f8,shallow,flow.Sequence,3_0_4_0_6_1,NA,NA,skipped,NA,543201.29999971,NA,NA,543200.6,543201.29999971,2024-05-23T09:13:27Z,543217.5,NULL,Wohlstand,mafanikio,d,NA,NA,NA,NA,sd,NA,4,NA,NA,NA,NA,NA,NA,NA,NA,NA,NA,NA,NA,NA,NA,NA,NA,NA,NA,NA
e76f8,task,flow.Sequence,3_0_4_0_6,NA,NA,completion,11326.6,531864.69999981,531857.4,531874,543200.6,543201.5,2024-05-23T09:13:27Z,543217.5,NULL,Wohlstand,mafanikio,d,NA,NA,NA,NA,sd,NA,4,NA,NA,NA,NA,NA,NA,NA,NA,NA,NA,NA,NA,NA,NA,NA,NA,NA,NA,NA
e76f8,deep,flow.Sequence,3_0_4_0_7_0,NA,NA,skipped,NA,543201.5,NA,NA,543200.6,543201.5999999,2024-05-23T09:13:27Z,543217.5,NULL,Vergnügen,kichekesho,s,dubwana,mpanuko,mtesaji,NA,sd,NA,4,NA,NA,NA,NA,NA,NA,NA,NA,NA,NA,NA,NA,NA,NA,NA,NA,NA,NA,NA
e76f8,Shallow Question,html.Page,3_0_4_0_7_1_0,NA,NA,form submission,4444.1999998093,543201.5999999,543200.6,543217.5,547661.69999981,547661.79999971,2024-05-23T09:13:31Z,547664.858,NULL,Vergnügen,kichekesho,s,dubwana,mpanuko,mtesaji,kichekesho,NA,NA,4,NA,NA,NA,NA,NA,NA,NA,NA,NA,NA,NA,NA,NA,NA,NA,NA,NA,NA,NA
e76f8,"""Richtig""-Screen",canvas.Screen,3_0_4_0_7_1_1,NA,NA,timeout,4996.3419999999,547664.79999971,547664.858,547664.858,552644.8,552645.79999971,2024-05-23T09:13:36Z,552661.2,NULL,Vergnügen,kichekesho,s,dubwana,mpanuko,mtesaji,NA,sd,1,4,NA,NA,NA,NA,NA,NA,NA,NA,NA,NA,NA,NA,NA,NA,NA,NA,NA,NA,NA
e76f8,"""Falsch""-Screen",canvas.Screen,3_0_4_0_7_1_2,NA,NA,skipped,NA,552650.89999962,NA,NA,552644.8,552651.0999999,2024-05-23T09:13:36Z,552661.2,NULL,Vergnügen,kichekesho,s,dubwana,mpanuko,mtesaji,NA,sd,NA,4,NA,NA,NA,NA,NA,NA,NA,NA,NA,NA,NA,NA,NA,NA,NA,NA,NA,NA,NA
e76f8,shallow,flow.Sequence,3_0_4_0_7_1,NA,NA,completion,9427.3,543201.5999999,543200.6,543217.5,552644.8,552651.0999999,2024-05-23T09:13:36Z,552661.2,NULL,Vergnügen,kichekesho,s,dubwana,mpanuko,mtesaji,NA,sd,NA,4,NA,NA,NA,NA,NA,NA,NA,NA,NA,NA,NA,NA,NA,NA,NA,NA,NA,NA,NA
e76f8,task,flow.Sequence,3_0_4_0_7,NA,NA,completion,9427.3,543201.5,543200.6,543217.5,552644.8,552651.19999981,2024-05-23T09:13:36Z,552661.2,NULL,Vergnügen,kichekesho,s,dubwana,mpanuko,mtesaji,NA,sd,NA,4,NA,NA,NA,NA,NA,NA,NA,NA,NA,NA,NA,NA,NA,NA,NA,NA,NA,NA,NA
e76f8,block,flow.Loop,3_0_4_0,NA,NA,completion,90377.9,462249.89999962,462250.076,462266.9,552644.8,552651.19999981,2024-05-23T09:13:36Z,552661.2,NULL,NA,NA,NA,NA,NA,NA,NA,sd,NA,4,NA,NA,NA,NA,NA,NA,NA,NA,NA,NA,NA,NA,NA,NA,NA,NA,NA,NA,NA
e76f8,weiter,canvas.Screen,3_0_4_1,sdf,keypress(Space),response,1214.9999998093,552651.19999981,552644.8,552661.2,553876.19999981,553877.19999981,2024-05-23T09:13:37Z,553894.768,NULL,NA,NA,NA,NA,NA,NA,NA,sd,NA,4,NA,NA,NA,NA,NA,NA,NA,NA,NA,NA,NA,NA,NA,NA,NA,NA,NA,NA,NA
e76f8,check continue,flow.Sequence,3_0_4,NA,NA,completion,91609.299999809,462249.89999962,462250.076,462266.9,553876.19999981,553877.5999999,2024-05-23T09:13:37Z,553894.768,NULL,NA,NA,NA,NA,NA,NA,NA,sd,NA,4,NA,NA,NA,NA,NA,NA,NA,NA,NA,NA,NA,NA,NA,NA,NA,NA,NA,NA,NA
e76f8,Deep Question,html.Page,3_0_5_0_0_0_0,NA,NA,form submission,11221.331999905,553898.39999962,553894.768,553894.768,565116.0999999,565116.19999981,2024-05-23T09:13:48Z,565120.3,NULL,Stimmung,kinyongo,d,NA,NA,NA,kinyongo,NA,NA,5,NA,NA,NA,NA,NA,NA,NA,NA,NA,NA,NA,NA,NA,NA,NA,NA,NA,NA,NA
e76f8,"""Richtig""-Screen",canvas.Screen,3_0_5_0_0_0_1,NA,NA,timeout,4997.5,565118,565104.74,565120.3,570100.8,570101.79999971,2024-05-23T09:13:53Z,570117.8,NULL,Stimmung,kinyongo,d,NA,NA,NA,NA,sdf,1,5,NA,NA,NA,NA,NA,NA,NA,NA,NA,NA,NA,NA,NA,NA,NA,NA,NA,NA,NA
e76f8,"""Falsch""-Screen",canvas.Screen,3_0_5_0_0_0_2,NA,NA,skipped,NA,570107,NA,NA,570100.8,570107.0999999,2024-05-23T09:13:53Z,570117.8,NULL,Stimmung,kinyongo,d,NA,NA,NA,NA,sdf,NA,5,NA,NA,NA,NA,NA,NA,NA,NA,NA,NA,NA,NA,NA,NA,NA,NA,NA,NA,NA
e76f8,deep,flow.Sequence,3_0_5_0_0_0,NA,NA,completion,16206.032,553898.29999971,553894.768,553894.768,570100.8,570107.19999981,2024-05-23T09:13:53Z,570117.8,NULL,Stimmung,kinyongo,d,NA,NA,NA,NA,sdf,NA,5,NA,NA,NA,NA,NA,NA,NA,NA,NA,NA,NA,NA,NA,NA,NA,NA,NA,NA,NA
e76f8,shallow,flow.Sequence,3_0_5_0_0_1,NA,NA,skipped,NA,570107.29999971,NA,NA,570100.8,570107.29999971,2024-05-23T09:13:53Z,570117.8,NULL,Stimmung,kinyongo,d,NA,NA,NA,NA,sdf,NA,5,NA,NA,NA,NA,NA,NA,NA,NA,NA,NA,NA,NA,NA,NA,NA,NA,NA,NA,NA
e76f8,task,flow.Sequence,3_0_5_0_0,NA,NA,completion,16206.032,553898.29999971,553894.768,553894.768,570100.8,570107.39999962,2024-05-23T09:13:53Z,570117.8,NULL,Stimmung,kinyongo,d,NA,NA,NA,NA,sdf,NA,5,NA,NA,NA,NA,NA,NA,NA,NA,NA,NA,NA,NA,NA,NA,NA,NA,NA,NA,NA
e76f8,deep,flow.Sequence,3_0_5_0_1_0,NA,NA,skipped,NA,570107.39999962,NA,NA,570100.8,570107.39999962,2024-05-23T09:13:53Z,570117.8,NULL,Orientierung,urekebisho,s,uelekeo,marekebisho,utunzaji,NA,sdf,NA,5,NA,NA,NA,NA,NA,NA,NA,NA,NA,NA,NA,NA,NA,NA,NA,NA,NA,NA,NA
e76f8,Shallow Question,html.Page,3_0_5_0_1_1_0,NA,NA,form submission,4464.2,570107.39999962,570100.8,570117.8,574582,574582.19999981,2024-05-23T09:13:58Z,574598.4,NULL,Orientierung,urekebisho,s,uelekeo,marekebisho,utunzaji,urekebisho,NA,NA,5,NA,NA,NA,NA,NA,NA,NA,NA,NA,NA,NA,NA,NA,NA,NA,NA,NA,NA,NA
e76f8,"""Richtig""-Screen",canvas.Screen,3_0_5_0_1_1_1,NA,NA,timeout,4997,574585,574581.724,574598.4,579578.7,579579.79999971,2024-05-23T09:14:03Z,579595.4,NULL,Orientierung,urekebisho,s,uelekeo,marekebisho,utunzaji,NA,sdf,1,5,NA,NA,NA,NA,NA,NA,NA,NA,NA,NA,NA,NA,NA,NA,NA,NA,NA,NA,NA
e76f8,"""Falsch""-Screen",canvas.Screen,3_0_5_0_1_1_2,NA,NA,skipped,NA,579584.89999962,NA,NA,579578.7,579585,2024-05-23T09:14:03Z,579595.4,NULL,Orientierung,urekebisho,s,uelekeo,marekebisho,utunzaji,NA,sdf,NA,5,NA,NA,NA,NA,NA,NA,NA,NA,NA,NA,NA,NA,NA,NA,NA,NA,NA,NA,NA
e76f8,shallow,flow.Sequence,3_0_5_0_1_1,NA,NA,completion,9460.8999999999,570107.39999962,570100.8,570117.8,579578.7,579585.0999999,2024-05-23T09:14:03Z,579595.4,NULL,Orientierung,urekebisho,s,uelekeo,marekebisho,utunzaji,NA,sdf,NA,5,NA,NA,NA,NA,NA,NA,NA,NA,NA,NA,NA,NA,NA,NA,NA,NA,NA,NA,NA
e76f8,task,flow.Sequence,3_0_5_0_1,NA,NA,completion,9460.8999999999,570107.39999962,570100.8,570117.8,579578.7,579585.19999981,2024-05-23T09:14:03Z,579595.4,NULL,Orientierung,urekebisho,s,uelekeo,marekebisho,utunzaji,NA,sdf,NA,5,NA,NA,NA,NA,NA,NA,NA,NA,NA,NA,NA,NA,NA,NA,NA,NA,NA,NA,NA
e76f8,Deep Question,html.Page,3_0_5_0_2_0_0,NA,NA,form submission,7273.4999996185,579585.19999981,579578.7,579595.4,586868.89999962,586869.19999981,2024-05-23T09:14:10Z,586873.7,NULL,Ergänzung,kijalizo,d,NA,NA,NA,kijalizo,NA,NA,5,NA,NA,NA,NA,NA,NA,NA,NA,NA,NA,NA,NA,NA,NA,NA,NA,NA,NA,NA
e76f8,"""Richtig""-Screen",canvas.Screen,3_0_5_0_2_0_1,NA,NA,timeout,4997,586872,586858.524,586873.7,591854.3,591855.5999999,2024-05-23T09:14:15Z,591870.7,NULL,Ergänzung,kijalizo,d,NA,NA,NA,NA,sdf,1,5,NA,NA,NA,NA,NA,NA,NA,NA,NA,NA,NA,NA,NA,NA,NA,NA,NA,NA,NA
e76f8,"""Falsch""-Screen",canvas.Screen,3_0_5_0_2_0_2,NA,NA,skipped,NA,591858.5,NA,NA,591854.3,591858.5,2024-05-23T09:14:15Z,591870.7,NULL,Ergänzung,kijalizo,d,NA,NA,NA,NA,sdf,NA,5,NA,NA,NA,NA,NA,NA,NA,NA,NA,NA,NA,NA,NA,NA,NA,NA,NA,NA,NA
e76f8,deep,flow.Sequence,3_0_5_0_2_0,NA,NA,completion,12258.9,579585.19999981,579578.7,579595.4,591854.3,591858.5999999,2024-05-23T09:14:15Z,591870.7,NULL,Ergänzung,kijalizo,d,NA,NA,NA,NA,sdf,NA,5,NA,NA,NA,NA,NA,NA,NA,NA,NA,NA,NA,NA,NA,NA,NA,NA,NA,NA,NA
e76f8,shallow,flow.Sequence,3_0_5_0_2_1,NA,NA,skipped,NA,591858.5999999,NA,NA,591854.3,591858.5999999,2024-05-23T09:14:15Z,591870.7,NULL,Ergänzung,kijalizo,d,NA,NA,NA,NA,sdf,NA,5,NA,NA,NA,NA,NA,NA,NA,NA,NA,NA,NA,NA,NA,NA,NA,NA,NA,NA,NA
e76f8,task,flow.Sequence,3_0_5_0_2,NA,NA,completion,12258.9,579585.19999981,579578.7,579595.4,591854.3,591858.69999981,2024-05-23T09:14:15Z,591870.7,NULL,Ergänzung,kijalizo,d,NA,NA,NA,NA,sdf,NA,5,NA,NA,NA,NA,NA,NA,NA,NA,NA,NA,NA,NA,NA,NA,NA,NA,NA,NA,NA
e76f8,deep,flow.Sequence,3_0_5_0_3_0,NA,NA,skipped,NA,591858.69999981,NA,NA,591854.3,591858.69999981,2024-05-23T09:14:15Z,591870.7,NULL,Vergnügen,kichekesho,s,dubwana,mpanuko,mtesaji,NA,sdf,NA,5,NA,NA,NA,NA,NA,NA,NA,NA,NA,NA,NA,NA,NA,NA,NA,NA,NA,NA,NA
e76f8,Shallow Question,html.Page,3_0_5_0_3_1_0,NA,NA,form submission,3413.3999999047,591858.79999971,591854.3,591870.7,595284.0999999,595284.39999962,2024-05-23T09:14:19Z,595285.856,NULL,Vergnügen,kichekesho,s,dubwana,mpanuko,mtesaji,kichekesho,NA,NA,5,NA,NA,NA,NA,NA,NA,NA,NA,NA,NA,NA,NA,NA,NA,NA,NA,NA,NA,NA
e76f8,"""Richtig""-Screen",canvas.Screen,3_0_5_0_3_1_1,NA,NA,timeout,4996.444,595287.19999981,595285.856,595285.856,600265.9,600267,2024-05-23T09:14:24Z,600282.3,NULL,Vergnügen,kichekesho,s,dubwana,mpanuko,mtesaji,NA,sdf,1,5,NA,NA,NA,NA,NA,NA,NA,NA,NA,NA,NA,NA,NA,NA,NA,NA,NA,NA,NA
e76f8,"""Falsch""-Screen",canvas.Screen,3_0_5_0_3_1_2,NA,NA,skipped,NA,600272.39999962,NA,NA,600265.9,600272.5,2024-05-23T09:14:24Z,600282.3,NULL,Vergnügen,kichekesho,s,dubwana,mpanuko,mtesaji,NA,sdf,NA,5,NA,NA,NA,NA,NA,NA,NA,NA,NA,NA,NA,NA,NA,NA,NA,NA,NA,NA,NA
e76f8,shallow,flow.Sequence,3_0_5_0_3_1,NA,NA,completion,8395.2000000001,591858.79999971,591854.3,591870.7,600265.9,600272.5999999,2024-05-23T09:14:24Z,600282.3,NULL,Vergnügen,kichekesho,s,dubwana,mpanuko,mtesaji,NA,sdf,NA,5,NA,NA,NA,NA,NA,NA,NA,NA,NA,NA,NA,NA,NA,NA,NA,NA,NA,NA,NA
e76f8,task,flow.Sequence,3_0_5_0_3,NA,NA,completion,8395.2000000001,591858.69999981,591854.3,591870.7,600265.9,600272.5999999,2024-05-23T09:14:24Z,600282.3,NULL,Vergnügen,kichekesho,s,dubwana,mpanuko,mtesaji,NA,sdf,NA,5,NA,NA,NA,NA,NA,NA,NA,NA,NA,NA,NA,NA,NA,NA,NA,NA,NA,NA,NA
e76f8,deep,flow.Sequence,3_0_5_0_4_0,NA,NA,skipped,NA,600272.69999981,NA,NA,600265.9,600272.69999981,2024-05-23T09:14:24Z,600282.3,NULL,Respekt,heshima,s,changamnao,upinzani,ufanisi,NA,sdf,NA,5,NA,NA,NA,NA,NA,NA,NA,NA,NA,NA,NA,NA,NA,NA,NA,NA,NA,NA,NA
e76f8,Shallow Question,html.Page,3_0_5_0_4_1_0,NA,NA,form submission,2935.8999998092,600272.79999971,600265.9,600282.3,603218.19999981,603218.5,2024-05-23T09:14:27Z,603230.7,NULL,Respekt,heshima,s,changamnao,upinzani,ufanisi,heshima,NA,NA,5,NA,NA,NA,NA,NA,NA,NA,NA,NA,NA,NA,NA,NA,NA,NA,NA,NA,NA,NA
e76f8,"""Richtig""-Screen",canvas.Screen,3_0_5_0_4_1_1,NA,NA,timeout,4997.2000000001,603221.39999962,603214.2,603230.7,608210.9,608212,2024-05-23T09:14:32Z,608227.9,NULL,Respekt,heshima,s,changamnao,upinzani,ufanisi,NA,sdf,1,5,NA,NA,NA,NA,NA,NA,NA,NA,NA,NA,NA,NA,NA,NA,NA,NA,NA,NA,NA
e76f8,"""Falsch""-Screen",canvas.Screen,3_0_5_0_4_1_2,NA,NA,skipped,NA,608216.89999962,NA,NA,608210.9,608217,2024-05-23T09:14:32Z,608227.9,NULL,Respekt,heshima,s,changamnao,upinzani,ufanisi,NA,sdf,NA,5,NA,NA,NA,NA,NA,NA,NA,NA,NA,NA,NA,NA,NA,NA,NA,NA,NA,NA,NA
e76f8,shallow,flow.Sequence,3_0_5_0_4_1,NA,NA,completion,7928.6,600272.79999971,600265.9,600282.3,608210.9,608217,2024-05-23T09:14:32Z,608227.9,NULL,Respekt,heshima,s,changamnao,upinzani,ufanisi,NA,sdf,NA,5,NA,NA,NA,NA,NA,NA,NA,NA,NA,NA,NA,NA,NA,NA,NA,NA,NA,NA,NA
e76f8,task,flow.Sequence,3_0_5_0_4,NA,NA,completion,7928.6,600272.5999999,600265.9,600282.3,608210.9,608217.19999981,2024-05-23T09:14:32Z,608227.9,NULL,Respekt,heshima,s,changamnao,upinzani,ufanisi,NA,sdf,NA,5,NA,NA,NA,NA,NA,NA,NA,NA,NA,NA,NA,NA,NA,NA,NA,NA,NA,NA,NA
e76f8,Deep Question,html.Page,3_0_5_0_5_0_0,NA,NA,form submission,11721.399999714,608217.19999981,608210.9,608227.9,619949.29999971,619949.5999999,2024-05-23T09:14:43Z,619953.5,NULL,Betrüger,mdanganyifu,d,NA,NA,NA,mdanayifu,NA,NA,5,NA,NA,NA,NA,NA,NA,NA,NA,NA,NA,NA,NA,NA,NA,NA,NA,NA,NA,NA
e76f8,"""Richtig""-Screen",canvas.Screen,3_0_5_0_5_0_1,NA,NA,skipped,NA,619952.5,NA,NA,619949.29999971,619952.5999999,2024-05-23T09:14:43Z,619953.5,NULL,Betrüger,mdanganyifu,d,NA,NA,NA,NA,sdf,NA,5,NA,NA,NA,NA,NA,NA,NA,NA,NA,NA,NA,NA,NA,NA,NA,NA,NA,NA,NA
e76f8,"""Falsch""-Screen",canvas.Screen,3_0_5_0_5_0_2,NA,NA,timeout,4997.3,619953.39999962,619938.408,619953.5,624934.1,624935.0999999,2024-05-23T09:14:48Z,624950.8,NULL,Betrüger,mdanganyifu,d,NA,NA,NA,NA,sdf,0,5,NA,NA,NA,NA,NA,NA,NA,NA,NA,NA,NA,NA,NA,NA,NA,NA,NA,NA,NA
e76f8,deep,flow.Sequence,3_0_5_0_5_0,NA,NA,completion,16706.2,608217.19999981,608210.9,608227.9,624934.1,624935.39999962,2024-05-23T09:14:48Z,624950.8,NULL,Betrüger,mdanganyifu,d,NA,NA,NA,NA,sdf,NA,5,NA,NA,NA,NA,NA,NA,NA,NA,NA,NA,NA,NA,NA,NA,NA,NA,NA,NA,NA
e76f8,shallow,flow.Sequence,3_0_5_0_5_1,NA,NA,skipped,NA,624935.5999999,NA,NA,624934.1,624935.69999981,2024-05-23T09:14:48Z,624950.8,NULL,Betrüger,mdanganyifu,d,NA,NA,NA,NA,sdf,NA,5,NA,NA,NA,NA,NA,NA,NA,NA,NA,NA,NA,NA,NA,NA,NA,NA,NA,NA,NA
e76f8,task,flow.Sequence,3_0_5_0_5,NA,NA,completion,16706.2,608217.19999981,608210.9,608227.9,624934.1,624935.89999962,2024-05-23T09:14:48Z,624950.8,NULL,Betrüger,mdanganyifu,d,NA,NA,NA,NA,sdf,NA,5,NA,NA,NA,NA,NA,NA,NA,NA,NA,NA,NA,NA,NA,NA,NA,NA,NA,NA,NA
e76f8,deep,flow.Sequence,3_0_5_0_6_0,NA,NA,skipped,NA,624936.0999999,NA,NA,624934.1,624936.19999981,2024-05-23T09:14:48Z,624950.8,NULL,Notfall,dharura,s,rairai,malalamiko,ahueni,NA,sdf,NA,5,NA,NA,NA,NA,NA,NA,NA,NA,NA,NA,NA,NA,NA,NA,NA,NA,NA,NA,NA
e76f8,Shallow Question,html.Page,3_0_5_0_6_1_0,NA,NA,form submission,3199.8999998092,624936.29999971,624934.1,624950.8,628150.69999981,628151,2024-05-23T09:14:51Z,628165.2,NULL,Notfall,dharura,s,rairai,malalamiko,ahueni,dharura,NA,NA,5,NA,NA,NA,NA,NA,NA,NA,NA,NA,NA,NA,NA,NA,NA,NA,NA,NA,NA,NA
e76f8,"""Richtig""-Screen",canvas.Screen,3_0_5_0_6_1_1,NA,NA,timeout,4997,628153.89999962,628149.194,628165.2,633145.9,633146.69999981,2024-05-23T09:14:56Z,633162.2,NULL,Notfall,dharura,s,rairai,malalamiko,ahueni,NA,sdf,1,5,NA,NA,NA,NA,NA,NA,NA,NA,NA,NA,NA,NA,NA,NA,NA,NA,NA,NA,NA
e76f8,"""Falsch""-Screen",canvas.Screen,3_0_5_0_6_1_2,NA,NA,skipped,NA,633149.79999971,NA,NA,633145.9,633150,2024-05-23T09:14:56Z,633162.2,NULL,Notfall,dharura,s,rairai,malalamiko,ahueni,NA,sdf,NA,5,NA,NA,NA,NA,NA,NA,NA,NA,NA,NA,NA,NA,NA,NA,NA,NA,NA,NA,NA
e76f8,shallow,flow.Sequence,3_0_5_0_6_1,NA,NA,completion,8195.1,624936.29999971,624934.1,624950.8,633145.9,633150.19999981,2024-05-23T09:14:56Z,633162.2,NULL,Notfall,dharura,s,rairai,malalamiko,ahueni,NA,sdf,NA,5,NA,NA,NA,NA,NA,NA,NA,NA,NA,NA,NA,NA,NA,NA,NA,NA,NA,NA,NA
e76f8,task,flow.Sequence,3_0_5_0_6,NA,NA,completion,8195.1,624936,624934.1,624950.8,633145.9,633150.39999962,2024-05-23T09:14:56Z,633162.2,NULL,Notfall,dharura,s,rairai,malalamiko,ahueni,NA,sdf,NA,5,NA,NA,NA,NA,NA,NA,NA,NA,NA,NA,NA,NA,NA,NA,NA,NA,NA,NA,NA
e76f8,Deep Question,html.Page,3_0_5_0_7_0_0,NA,NA,form submission,6355.1999996186,633150.5,633145.9,633162.2,639517.39999962,639517.5999999,2024-05-23T09:15:03Z,639524.8,NULL,Wohlstand,mafanikio,d,NA,NA,NA,mafanikio,NA,NA,5,NA,NA,NA,NA,NA,NA,NA,NA,NA,NA,NA,NA,NA,NA,NA,NA,NA,NA,NA
e76f8,"""Richtig""-Screen",canvas.Screen,3_0_5_0_7_0_1,NA,NA,timeout,4997.5,639520.39999962,639509.996,639524.8,644505.6,644506.69999981,2024-05-23T09:15:08Z,644522.3,NULL,Wohlstand,mafanikio,d,NA,NA,NA,NA,sdf,1,5,NA,NA,NA,NA,NA,NA,NA,NA,NA,NA,NA,NA,NA,NA,NA,NA,NA,NA,NA
e76f8,"""Falsch""-Screen",canvas.Screen,3_0_5_0_7_0_2,NA,NA,skipped,NA,644512,NA,NA,644505.6,644512,2024-05-23T09:15:08Z,644522.3,NULL,Wohlstand,mafanikio,d,NA,NA,NA,NA,sdf,NA,5,NA,NA,NA,NA,NA,NA,NA,NA,NA,NA,NA,NA,NA,NA,NA,NA,NA,NA,NA
e76f8,deep,flow.Sequence,3_0_5_0_7_0,NA,NA,completion,11343.4,633150.5,633145.9,633162.2,644505.6,644512.19999981,2024-05-23T09:15:08Z,644522.3,NULL,Wohlstand,mafanikio,d,NA,NA,NA,NA,sdf,NA,5,NA,NA,NA,NA,NA,NA,NA,NA,NA,NA,NA,NA,NA,NA,NA,NA,NA,NA,NA
e76f8,shallow,flow.Sequence,3_0_5_0_7_1,NA,NA,skipped,NA,644512.19999981,NA,NA,644505.6,644512.19999981,2024-05-23T09:15:08Z,644522.3,NULL,Wohlstand,mafanikio,d,NA,NA,NA,NA,sdf,NA,5,NA,NA,NA,NA,NA,NA,NA,NA,NA,NA,NA,NA,NA,NA,NA,NA,NA,NA,NA
e76f8,task,flow.Sequence,3_0_5_0_7,NA,NA,completion,11343.4,633150.5,633145.9,633162.2,644505.6,644512.29999971,2024-05-23T09:15:08Z,644522.3,NULL,Wohlstand,mafanikio,d,NA,NA,NA,NA,sdf,NA,5,NA,NA,NA,NA,NA,NA,NA,NA,NA,NA,NA,NA,NA,NA,NA,NA,NA,NA,NA
e76f8,block,flow.Loop,3_0_5_0,NA,NA,completion,90610.832,553897.69999981,553894.768,553894.768,644505.6,644512.29999971,2024-05-23T09:15:08Z,644522.3,NULL,NA,NA,NA,NA,NA,NA,NA,sdf,NA,5,NA,NA,NA,NA,NA,NA,NA,NA,NA,NA,NA,NA,NA,NA,NA,NA,NA,NA,NA
e76f8,weiter,canvas.Screen,3_0_5_1,sdf,keypress(Space),response,1104.5999996185,644512.29999971,644505.6,644522.3,645626.89999962,645628,2024-05-23T09:15:09Z,645954.2,NULL,NA,NA,NA,NA,NA,NA,NA,sdf,NA,5,NA,NA,NA,NA,NA,NA,NA,NA,NA,NA,NA,NA,NA,NA,NA,NA,NA,NA,NA
e76f8,check continue,flow.Sequence,3_0_5,NA,NA,completion,91732.131999618,553897.69999981,553894.768,553894.768,645626.89999962,645628.29999971,2024-05-23T09:15:09Z,645954.2,NULL,NA,NA,NA,NA,NA,NA,NA,sdf,NA,5,NA,NA,NA,NA,NA,NA,NA,NA,NA,NA,NA,NA,NA,NA,NA,NA,NA,NA,NA
e76f8,check continue,flow.Sequence,3_0_6,NA,NA,skipped,NA,645648.89999962,NA,NA,645626.89999962,645649,2024-05-23T09:15:09Z,645954.2,NULL,NA,NA,NA,NA,NA,NA,NA,dfs,NA,6,NA,NA,NA,NA,NA,NA,NA,NA,NA,NA,NA,NA,NA,NA,NA,NA,NA,NA,NA
e76f8,check continue,flow.Sequence,3_0_7,NA,NA,skipped,NA,645662.89999962,NA,NA,645626.89999962,645662.89999962,2024-05-23T09:15:09Z,645954.2,NULL,NA,NA,NA,NA,NA,NA,NA,df,NA,7,NA,NA,NA,NA,NA,NA,NA,NA,NA,NA,NA,NA,NA,NA,NA,NA,NA,NA,NA
e76f8,check continue,flow.Sequence,3_0_8,NA,NA,skipped,NA,645676.0999999,NA,NA,645626.89999962,645676.0999999,2024-05-23T09:15:09Z,645954.2,NULL,NA,NA,NA,NA,NA,NA,NA,dfs,NA,8,NA,NA,NA,NA,NA,NA,NA,NA,NA,NA,NA,NA,NA,NA,NA,NA,NA,NA,NA
e76f8,check continue,flow.Sequence,3_0_9,NA,NA,skipped,NA,645688.19999981,NA,NA,645626.89999962,645688.29999971,2024-05-23T09:15:09Z,645954.2,NULL,NA,NA,NA,NA,NA,NA,NA,dsf,NA,9,NA,NA,NA,NA,NA,NA,NA,NA,NA,NA,NA,NA,NA,NA,NA,NA,NA,NA,NA
e76f8,check continue,flow.Sequence,3_0_10,NA,NA,skipped,NA,645711.19999981,NA,NA,645626.89999962,645711.29999971,2024-05-23T09:15:09Z,645954.2,NULL,NA,NA,NA,NA,NA,NA,NA,df,NA,10,NA,NA,NA,NA,NA,NA,NA,NA,NA,NA,NA,NA,NA,NA,NA,NA,NA,NA,NA
e76f8,check continue,flow.Sequence,3_0_11,NA,NA,skipped,NA,645730.5,NA,NA,645626.89999962,645730.69999981,2024-05-23T09:15:09Z,645954.2,NULL,NA,NA,NA,NA,NA,NA,NA,dfs,NA,11,NA,NA,NA,NA,NA,NA,NA,NA,NA,NA,NA,NA,NA,NA,NA,NA,NA,NA,NA
e76f8,check continue,flow.Sequence,3_0_12,NA,NA,skipped,NA,645749.89999962,NA,NA,645626.89999962,645750,2024-05-23T09:15:09Z,645954.2,NULL,NA,NA,NA,NA,NA,NA,NA,dsf,NA,12,NA,NA,NA,NA,NA,NA,NA,NA,NA,NA,NA,NA,NA,NA,NA,NA,NA,NA,NA
e76f8,check continue,flow.Sequence,3_0_13,NA,NA,skipped,NA,645764.39999962,NA,NA,645626.89999962,645764.39999962,2024-05-23T09:15:09Z,645954.2,NULL,NA,NA,NA,NA,NA,NA,NA,dsf,NA,13,NA,NA,NA,NA,NA,NA,NA,NA,NA,NA,NA,NA,NA,NA,NA,NA,NA,NA,NA
e76f8,check continue,flow.Sequence,3_0_14,NA,NA,skipped,NA,645777.0999999,NA,NA,645626.89999962,645777.0999999,2024-05-23T09:15:09Z,645954.2,NULL,NA,NA,NA,NA,NA,NA,NA,NA,NA,14,NA,NA,NA,NA,NA,NA,NA,NA,NA,NA,NA,NA,NA,NA,NA,NA,NA,NA,NA
e76f8,check continue,flow.Sequence,3_0_15,NA,NA,skipped,NA,645788.39999962,NA,NA,645626.89999962,645788.39999962,2024-05-23T09:15:09Z,645954.2,NULL,NA,NA,NA,NA,NA,NA,NA,NA,NA,15,NA,NA,NA,NA,NA,NA,NA,NA,NA,NA,NA,NA,NA,NA,NA,NA,NA,NA,NA
e76f8,check continue,flow.Sequence,3_0_16,NA,NA,skipped,NA,645800,NA,NA,645626.89999962,645800.0999999,2024-05-23T09:15:09Z,645954.2,NULL,NA,NA,NA,NA,NA,NA,NA,NA,NA,16,NA,NA,NA,NA,NA,NA,NA,NA,NA,NA,NA,NA,NA,NA,NA,NA,NA,NA,NA
e76f8,check continue,flow.Sequence,3_0_17,NA,NA,skipped,NA,645811.0999999,NA,NA,645626.89999962,645811.19999981,2024-05-23T09:15:09Z,645954.2,NULL,NA,NA,NA,NA,NA,NA,NA,NA,NA,17,NA,NA,NA,NA,NA,NA,NA,NA,NA,NA,NA,NA,NA,NA,NA,NA,NA,NA,NA
e76f8,check continue,flow.Sequence,3_0_18,NA,NA,skipped,NA,645823.5,NA,NA,645626.89999962,645823.5,2024-05-23T09:15:09Z,645954.2,NULL,NA,NA,NA,NA,NA,NA,NA,NA,NA,18,NA,NA,NA,NA,NA,NA,NA,NA,NA,NA,NA,NA,NA,NA,NA,NA,NA,NA,NA
e76f8,check continue,flow.Sequence,3_0_19,NA,NA,skipped,NA,645834.79999971,NA,NA,645626.89999962,645834.89999962,2024-05-23T09:15:09Z,645954.2,NULL,NA,NA,NA,NA,NA,NA,NA,NA,NA,19,NA,NA,NA,NA,NA,NA,NA,NA,NA,NA,NA,NA,NA,NA,NA,NA,NA,NA,NA
e76f8,check continue,flow.Sequence,3_0_20,NA,NA,skipped,NA,645847.39999962,NA,NA,645626.89999962,645847.5,2024-05-23T09:15:09Z,645954.2,NULL,NA,NA,NA,NA,NA,NA,NA,NA,NA,20,NA,NA,NA,NA,NA,NA,NA,NA,NA,NA,NA,NA,NA,NA,NA,NA,NA,NA,NA
e76f8,check continue,flow.Sequence,3_0_21,NA,NA,skipped,NA,645858.29999971,NA,NA,645626.89999962,645858.39999962,2024-05-23T09:15:09Z,645954.2,NULL,NA,NA,NA,NA,NA,NA,NA,NA,NA,21,NA,NA,NA,NA,NA,NA,NA,NA,NA,NA,NA,NA,NA,NA,NA,NA,NA,NA,NA
e76f8,check continue,flow.Sequence,3_0_22,NA,NA,skipped,NA,645868.5,NA,NA,645626.89999962,645868.5,2024-05-23T09:15:09Z,645954.2,NULL,NA,NA,NA,NA,NA,NA,NA,NA,NA,22,NA,NA,NA,NA,NA,NA,NA,NA,NA,NA,NA,NA,NA,NA,NA,NA,NA,NA,NA
e76f8,check continue,flow.Sequence,3_0_23,NA,NA,skipped,NA,645880,NA,NA,645626.89999962,645880.0999999,2024-05-23T09:15:09Z,645954.2,NULL,NA,NA,NA,NA,NA,NA,NA,NA,NA,23,NA,NA,NA,NA,NA,NA,NA,NA,NA,NA,NA,NA,NA,NA,NA,NA,NA,NA,NA
e76f8,check continue,flow.Sequence,3_0_24,NA,NA,skipped,NA,645890.5999999,NA,NA,645626.89999962,645890.5999999,2024-05-23T09:15:09Z,645954.2,NULL,NA,NA,NA,NA,NA,NA,NA,NA,NA,24,NA,NA,NA,NA,NA,NA,NA,NA,NA,NA,NA,NA,NA,NA,NA,NA,NA,NA,NA
e76f8,check continue,flow.Sequence,3_0_25,NA,NA,skipped,NA,645902.0999999,NA,NA,645626.89999962,645902.19999981,2024-05-23T09:15:09Z,645954.2,NULL,NA,NA,NA,NA,NA,NA,NA,NA,NA,25,NA,NA,NA,NA,NA,NA,NA,NA,NA,NA,NA,NA,NA,NA,NA,NA,NA,NA,NA
e76f8,check continue,flow.Sequence,3_0_26,NA,NA,skipped,NA,645912.19999981,NA,NA,645626.89999962,645912.29999971,2024-05-23T09:15:09Z,645954.2,NULL,NA,NA,NA,NA,NA,NA,NA,NA,NA,26,NA,NA,NA,NA,NA,NA,NA,NA,NA,NA,NA,NA,NA,NA,NA,NA,NA,NA,NA
e76f8,check continue,flow.Sequence,3_0_27,NA,NA,skipped,NA,645924.39999962,NA,NA,645626.89999962,645924.5,2024-05-23T09:15:09Z,645954.2,NULL,NA,NA,NA,NA,NA,NA,NA,NA,NA,27,NA,NA,NA,NA,NA,NA,NA,NA,NA,NA,NA,NA,NA,NA,NA,NA,NA,NA,NA
e76f8,check continue,flow.Sequence,3_0_28,NA,NA,skipped,NA,645935,NA,NA,645626.89999962,645935,2024-05-23T09:15:09Z,645954.2,NULL,NA,NA,NA,NA,NA,NA,NA,NA,NA,28,NA,NA,NA,NA,NA,NA,NA,NA,NA,NA,NA,NA,NA,NA,NA,NA,NA,NA,NA
e76f8,check continue,flow.Sequence,3_0_29,NA,NA,skipped,NA,645947,NA,NA,645626.89999962,645947,2024-05-23T09:15:09Z,645954.2,NULL,NA,NA,NA,NA,NA,NA,NA,NA,NA,29,NA,NA,NA,NA,NA,NA,NA,NA,NA,NA,NA,NA,NA,NA,NA,NA,NA,NA,NA
e76f8,until continue,flow.Loop,3_0,NA,NA,completion,538376.79999962,107218.39999962,107218.58,107250.1,645626.89999962,645947.0999999,2024-05-23T09:15:09Z,645954.2,NULL,NA,NA,NA,NA,NA,NA,NA,NA,NA,NA,NA,NA,NA,NA,NA,NA,NA,NA,NA,NA,NA,NA,NA,NA,NA,NA,NA,NA,NA
e76f8,block 1,flow.Sequence,3,NA,NA,completion,538376.79999962,107218.29999971,107218.58,107250.1,645626.89999962,645947.19999981,2024-05-23T09:15:09Z,645954.2,NULL,NA,NA,NA,NA,NA,NA,NA,NA,NA,NA,NA,NA,NA,NA,NA,NA,NA,NA,NA,NA,NA,NA,NA,NA,NA,NA,NA,NA,NA
