observation,sender,sender_type,sender_id,response,response_action,ended_on,duration,time_run,time_render,time_show,time_end,time_commit,timestamp,time_switch,distractors,german,swahili,enc,distractor1,distractor2,distractor3,response_2,x,correct,x_2,url_vp,url_sess,meta_labjs_version,meta_location,meta_user_agent,meta_platform,meta_language,meta_locale,meta_time_zone,meta_timezone_offset,meta_screen_width,meta_screen_height,meta_scroll_width,meta_scroll_height,meta_window_inner_width,meta_window_inner_height,meta_device_pixel_ratio,meta_labjs_build_flavor,meta_labjs_build_commit
25540,Introduction general,canvas.Screen,0,weiter,keypress(q),response,165728.73299999,1703.599999994,1378.981,1728.967,167457.69999999,167473.59999999,2023-03-07T13:14:47Z,167475.14,NULL,NA,NA,NA,NA,NA,NA,NA,NA,NA,NA,117,1,20.2.4,https://neurocog.fernuni.ch/studies/vweber/encoding_immediate/index.html?vp=117&sess=1,"Mozilla/5.0 (Macintosh; Intel Mac OS X 10_15_7) AppleWebKit/537.36 (KHTML, like Gecko) Chrome/110.0.0.0 Safari/537.36",MacIntel,de-DE,de,Europe/Rome,-60,1440,900,1309,676,1309,723,2.2000000476837,production,f5b4a49f956347addd546a832a3327688c2c0fef
25540,Introduction practice,canvas.Screen,1_0,NA,keypress(Space),response,6444.5599999881,167473.89999998,167458.474,167475.14,173919.69999999,173929,2023-03-07T13:14:53Z,173943.1,NULL,NA,NA,NA,NA,NA,NA,NA,NA,NA,NA,NA,NA,NA,NA,NA,NA,NA,NA,NA,NA,NA,NA,NA,NA,NA,NA,NA,NA,NA
25540,Deep Question,html.Page,1_1_0_0_0,NA,NA,form submission,3257.5999999881,173929.59999999,173926.434,173943.1,177200.69999999,177201.39999998,2023-03-07T13:14:56Z,177209.636,"c(""distractor1"", ""distractor2"", ""distractor3"")",Gesundheit,salama,d,NA,NA,NA,bla,NA,NA,NA,NA,NA,NA,NA,NA,NA,NA,NA,NA,NA,NA,NA,NA,NA,NA,NA,NA,NA,NA
25540,"""Richtig""-Screen",canvas.Screen,1_1_0_0_1,NA,NA,skipped,NA,177202.89999998,NA,NA,177200.69999999,177203.09999999,2023-03-07T13:14:56Z,177209.636,"c(""distractor1"", ""distractor2"", ""distractor3"")",Gesundheit,salama,d,NA,NA,NA,NA,NA,NA,NA,NA,NA,NA,NA,NA,NA,NA,NA,NA,NA,NA,NA,NA,NA,NA,NA,NA,NA,NA
25540,"""Falsch""-Screen",canvas.Screen,1_1_0_0_2,NA,NA,timeout,4999.8,177204.29999998,177192.97,177209.636,182192.77,182195.89999998,2023-03-07T13:15:01Z,182209.436,"c(""distractor1"", ""distractor2"", ""distractor3"")",Gesundheit,salama,d,NA,NA,NA,NA,NA,0,NA,NA,NA,NA,NA,NA,NA,NA,NA,NA,NA,NA,NA,NA,NA,NA,NA,NA,NA,NA
25540,deep,flow.Sequence,1_1_0_0,NA,NA,completion,8249.67,173929.59999999,173926.434,173943.1,182192.77,182196.19999999,2023-03-07T13:15:01Z,182209.436,"c(""distractor1"", ""distractor2"", ""distractor3"")",Gesundheit,salama,d,NA,NA,NA,NA,NA,NA,NA,NA,NA,NA,NA,NA,NA,NA,NA,NA,NA,NA,NA,NA,NA,NA,NA,NA,NA,NA
25540,shallow,flow.Sequence,1_1_0_1,NA,NA,skipped,NA,182196.19999999,NA,NA,182192.77,182196.29999998,2023-03-07T13:15:01Z,182209.436,"c(""distractor1"", ""distractor2"", ""distractor3"")",Gesundheit,salama,d,NA,NA,NA,NA,NA,NA,NA,NA,NA,NA,NA,NA,NA,NA,NA,NA,NA,NA,NA,NA,NA,NA,NA,NA,NA,NA
25540,task,flow.Sequence,1_1_0,NA,NA,completion,8249.67,173929.5,173926.434,173943.1,182192.77,182196.5,2023-03-07T13:15:01Z,182209.436,"c(""distractor1"", ""distractor2"", ""distractor3"")",Gesundheit,salama,d,NA,NA,NA,NA,NA,NA,NA,NA,NA,NA,NA,NA,NA,NA,NA,NA,NA,NA,NA,NA,NA,NA,NA,NA,NA,NA
25540,Deep Question,html.Page,1_1_1_0_0,NA,NA,form submission,2837.7639999881,182196.69999999,182192.77,182209.436,185047.19999999,185047.59999999,2023-03-07T13:15:04Z,185059.707,"c(""distractor1"", ""distractor2"", ""distractor3"")",Qualität,mtindo,d,NA,NA,NA,blu,NA,NA,NA,NA,NA,NA,NA,NA,NA,NA,NA,NA,NA,NA,NA,NA,NA,NA,NA,NA,NA,NA
25540,"""Richtig""-Screen",canvas.Screen,1_1_1_0_1,NA,NA,skipped,NA,185049.39999998,NA,NA,185047.19999999,185049.69999999,2023-03-07T13:15:04Z,185059.707,"c(""distractor1"", ""distractor2"", ""distractor3"")",Qualität,mtindo,d,NA,NA,NA,NA,NA,NA,NA,NA,NA,NA,NA,NA,NA,NA,NA,NA,NA,NA,NA,NA,NA,NA,NA,NA,NA,NA
25540,"""Falsch""-Screen",canvas.Screen,1_1_1_0_2,NA,NA,timeout,4999.8,185051.09999999,185043.041,185059.707,190042.841,190045.5,2023-03-07T13:15:09Z,190059.507,"c(""distractor1"", ""distractor2"", ""distractor3"")",Qualität,mtindo,d,NA,NA,NA,NA,NA,0,NA,NA,NA,NA,NA,NA,NA,NA,NA,NA,NA,NA,NA,NA,NA,NA,NA,NA,NA,NA
25540,deep,flow.Sequence,1_1_1_0,NA,NA,completion,7833.405,182196.69999999,182192.77,182209.436,190042.841,190046,2023-03-07T13:15:09Z,190059.507,"c(""distractor1"", ""distractor2"", ""distractor3"")",Qualität,mtindo,d,NA,NA,NA,NA,NA,NA,NA,NA,NA,NA,NA,NA,NA,NA,NA,NA,NA,NA,NA,NA,NA,NA,NA,NA,NA,NA
25540,shallow,flow.Sequence,1_1_1_1,NA,NA,skipped,NA,190046.19999999,NA,NA,190042.841,190046.5,2023-03-07T13:15:09Z,190059.507,"c(""distractor1"", ""distractor2"", ""distractor3"")",Qualität,mtindo,d,NA,NA,NA,NA,NA,NA,NA,NA,NA,NA,NA,NA,NA,NA,NA,NA,NA,NA,NA,NA,NA,NA,NA,NA,NA,NA
25540,task,flow.Sequence,1_1_1,NA,NA,completion,7833.405,182196.59999999,182192.77,182209.436,190042.841,190046.69999999,2023-03-07T13:15:09Z,190059.507,"c(""distractor1"", ""distractor2"", ""distractor3"")",Qualität,mtindo,d,NA,NA,NA,NA,NA,NA,NA,NA,NA,NA,NA,NA,NA,NA,NA,NA,NA,NA,NA,NA,NA,NA,NA,NA,NA,NA
25540,deep,flow.Sequence,1_1_2_0,NA,NA,skipped,NA,190047,NA,NA,190042.841,190047.29999998,2023-03-07T13:15:09Z,190059.507,"c(""distractor1"", ""distractor2"", ""distractor3"")",Rückhalt,msaada,s,muhula,auwali,kiwimbe,NA,NA,NA,NA,NA,NA,NA,NA,NA,NA,NA,NA,NA,NA,NA,NA,NA,NA,NA,NA,NA,NA,NA
25540,Shallow Question,html.Page,1_1_2_1_0,NA,NA,form submission,7579.1929999881,190047.59999999,190042.841,190059.507,197638.69999999,197639.09999999,2023-03-07T13:15:17Z,197642.8,"c(""distractor1"", ""distractor2"", ""distractor3"")",Rückhalt,msaada,s,muhula,auwali,kiwimbe,msaada,NA,NA,NA,NA,NA,NA,NA,NA,NA,NA,NA,NA,NA,NA,NA,NA,NA,NA,NA,NA,NA,NA
25540,"""Richtig""-Screen",canvas.Screen,1_1_2_1_1,NA,NA,timeout,4999.8,197644.09999999,197626.134,197642.8,202625.934,202628.29999998,2023-03-07T13:15:22Z,202642.6,"c(""distractor1"", ""distractor2"", ""distractor3"")",Rückhalt,msaada,s,muhula,auwali,kiwimbe,NA,NA,1,NA,NA,NA,NA,NA,NA,NA,NA,NA,NA,NA,NA,NA,NA,NA,NA,NA,NA,NA,NA
25540,"""Falsch""-Screen",canvas.Screen,1_1_2_1_2,NA,NA,skipped,NA,202632.89999998,NA,NA,202625.934,202633,2023-03-07T13:15:22Z,202642.6,"c(""distractor1"", ""distractor2"", ""distractor3"")",Rückhalt,msaada,s,muhula,auwali,kiwimbe,NA,NA,NA,NA,NA,NA,NA,NA,NA,NA,NA,NA,NA,NA,NA,NA,NA,NA,NA,NA,NA,NA,NA
25540,shallow,flow.Sequence,1_1_2_1,NA,NA,completion,12566.427,190047.5,190042.841,190059.507,202625.934,202633.29999998,2023-03-07T13:15:22Z,202642.6,"c(""distractor1"", ""distractor2"", ""distractor3"")",Rückhalt,msaada,s,muhula,auwali,kiwimbe,NA,NA,NA,NA,NA,NA,NA,NA,NA,NA,NA,NA,NA,NA,NA,NA,NA,NA,NA,NA,NA,NA,NA
25540,task,flow.Sequence,1_1_2,NA,NA,completion,12566.427,190046.89999998,190042.841,190059.507,202625.934,202633.39999998,2023-03-07T13:15:22Z,202642.6,"c(""distractor1"", ""distractor2"", ""distractor3"")",Rückhalt,msaada,s,muhula,auwali,kiwimbe,NA,NA,NA,NA,NA,NA,NA,NA,NA,NA,NA,NA,NA,NA,NA,NA,NA,NA,NA,NA,NA,NA,NA
25540,deep,flow.Sequence,1_1_3_0,NA,NA,skipped,NA,202633.59999999,NA,NA,202625.934,202633.59999999,2023-03-07T13:15:22Z,202642.6,"c(""distractor1"", ""distractor2"", ""distractor3"")",Kritik,lawama,s,dereva,nafasi,mawazo,NA,NA,NA,NA,NA,NA,NA,NA,NA,NA,NA,NA,NA,NA,NA,NA,NA,NA,NA,NA,NA,NA,NA
25540,Shallow Question,html.Page,1_1_3_1_0,NA,NA,form submission,3774.5999999881,202633.79999998,202625.934,202642.6,206417.19999999,206417.5,2023-03-07T13:15:26Z,206426.054,"c(""distractor1"", ""distractor2"", ""distractor3"")",Kritik,lawama,s,dereva,nafasi,mawazo,nafasi,NA,NA,NA,NA,NA,NA,NA,NA,NA,NA,NA,NA,NA,NA,NA,NA,NA,NA,NA,NA,NA,NA
25540,"""Richtig""-Screen",canvas.Screen,1_1_3_1_1,NA,NA,skipped,NA,206420.39999998,NA,NA,206417.19999999,206420.5,2023-03-07T13:15:26Z,206426.054,"c(""distractor1"", ""distractor2"", ""distractor3"")",Kritik,lawama,s,dereva,nafasi,mawazo,NA,NA,NA,NA,NA,NA,NA,NA,NA,NA,NA,NA,NA,NA,NA,NA,NA,NA,NA,NA,NA,NA,NA
25540,"""Falsch""-Screen",canvas.Screen,1_1_3_1_2,NA,NA,timeout,4999.8,206421.59999999,206409.388,206426.054,211409.188,211411.29999998,2023-03-07T13:15:31Z,211425.854,"c(""distractor1"", ""distractor2"", ""distractor3"")",Kritik,lawama,s,dereva,nafasi,mawazo,NA,NA,0,NA,NA,NA,NA,NA,NA,NA,NA,NA,NA,NA,NA,NA,NA,NA,NA,NA,NA,NA,NA
25540,shallow,flow.Sequence,1_1_3_1,NA,NA,completion,8766.588,202633.69999999,202625.934,202642.6,211409.188,211411.69999999,2023-03-07T13:15:31Z,211425.854,"c(""distractor1"", ""distractor2"", ""distractor3"")",Kritik,lawama,s,dereva,nafasi,mawazo,NA,NA,NA,NA,NA,NA,NA,NA,NA,NA,NA,NA,NA,NA,NA,NA,NA,NA,NA,NA,NA,NA,NA
25540,task,flow.Sequence,1_1_3,NA,NA,completion,8766.588,202633.5,202625.934,202642.6,211409.188,211411.89999998,2023-03-07T13:15:31Z,211425.854,"c(""distractor1"", ""distractor2"", ""distractor3"")",Kritik,lawama,s,dereva,nafasi,mawazo,NA,NA,NA,NA,NA,NA,NA,NA,NA,NA,NA,NA,NA,NA,NA,NA,NA,NA,NA,NA,NA,NA,NA
25540,Deep Question,html.Page,1_1_4_0_0,NA,NA,form submission,3246.146,211412.19999999,211409.188,211425.854,214672,214672.29999998,2023-03-07T13:15:34Z,214675.994,"c(""distractor1"", ""distractor2"", ""distractor3"")",Schatten,kivuli,d,NA,NA,NA,blö,NA,NA,NA,NA,NA,NA,NA,NA,NA,NA,NA,NA,NA,NA,NA,NA,NA,NA,NA,NA,NA,NA
25540,"""Richtig""-Screen",canvas.Screen,1_1_4_0_1,NA,NA,skipped,NA,214675.29999998,NA,NA,214672,214675.5,2023-03-07T13:15:34Z,214675.994,"c(""distractor1"", ""distractor2"", ""distractor3"")",Schatten,kivuli,d,NA,NA,NA,NA,NA,NA,NA,NA,NA,NA,NA,NA,NA,NA,NA,NA,NA,NA,NA,NA,NA,NA,NA,NA,NA,NA
25540,"""Falsch""-Screen",canvas.Screen,1_1_4_0_2,NA,NA,timeout,4999.8,214676.39999998,214659.328,214675.994,219659.128,219661.29999998,2023-03-07T13:15:39Z,219675.794,"c(""distractor1"", ""distractor2"", ""distractor3"")",Schatten,kivuli,d,NA,NA,NA,NA,NA,0,NA,NA,NA,NA,NA,NA,NA,NA,NA,NA,NA,NA,NA,NA,NA,NA,NA,NA,NA,NA
25540,deep,flow.Sequence,1_1_4_0,NA,NA,completion,8233.274,211412.09999999,211409.188,211425.854,219659.128,219661.59999999,2023-03-07T13:15:39Z,219675.794,"c(""distractor1"", ""distractor2"", ""distractor3"")",Schatten,kivuli,d,NA,NA,NA,NA,NA,NA,NA,NA,NA,NA,NA,NA,NA,NA,NA,NA,NA,NA,NA,NA,NA,NA,NA,NA,NA,NA
25540,shallow,flow.Sequence,1_1_4_1,NA,NA,skipped,NA,219661.79999998,NA,NA,219659.128,219661.89999998,2023-03-07T13:15:39Z,219675.794,"c(""distractor1"", ""distractor2"", ""distractor3"")",Schatten,kivuli,d,NA,NA,NA,NA,NA,NA,NA,NA,NA,NA,NA,NA,NA,NA,NA,NA,NA,NA,NA,NA,NA,NA,NA,NA,NA,NA
25540,task,flow.Sequence,1_1_4,NA,NA,completion,8233.274,211412,211409.188,211425.854,219659.128,219662.09999999,2023-03-07T13:15:39Z,219675.794,"c(""distractor1"", ""distractor2"", ""distractor3"")",Schatten,kivuli,d,NA,NA,NA,NA,NA,NA,NA,NA,NA,NA,NA,NA,NA,NA,NA,NA,NA,NA,NA,NA,NA,NA,NA,NA,NA,NA
25540,deep,flow.Sequence,1_1_5_0,NA,NA,skipped,NA,219662.39999998,NA,NA,219659.128,219662.39999998,2023-03-07T13:15:39Z,219675.794,"c(""distractor1"", ""distractor2"", ""distractor3"")",Gegenwart,hadhara,s,katiba,jokofu,mikopo,NA,NA,NA,NA,NA,NA,NA,NA,NA,NA,NA,NA,NA,NA,NA,NA,NA,NA,NA,NA,NA,NA,NA
25540,Shallow Question,html.Page,1_1_5_1_0,NA,NA,form submission,4546.4059999881,219662.59999999,219659.128,219675.794,224222.19999999,224222.5,2023-03-07T13:15:43Z,224225.876,"c(""distractor1"", ""distractor2"", ""distractor3"")",Gegenwart,hadhara,s,katiba,jokofu,mikopo,jokofu,NA,NA,NA,NA,NA,NA,NA,NA,NA,NA,NA,NA,NA,NA,NA,NA,NA,NA,NA,NA,NA,NA
25540,"""Richtig""-Screen",canvas.Screen,1_1_5_1_1,NA,NA,skipped,NA,224225.39999998,NA,NA,224222.19999999,224225.69999999,2023-03-07T13:15:43Z,224225.876,"c(""distractor1"", ""distractor2"", ""distractor3"")",Gegenwart,hadhara,s,katiba,jokofu,mikopo,NA,NA,NA,NA,NA,NA,NA,NA,NA,NA,NA,NA,NA,NA,NA,NA,NA,NA,NA,NA,NA,NA,NA
25540,"""Falsch""-Screen",canvas.Screen,1_1_5_1_2,NA,NA,timeout,4999.8,224227,224209.21,224225.876,229209.01,229210.59999999,2023-03-07T13:15:48Z,229225.676,"c(""distractor1"", ""distractor2"", ""distractor3"")",Gegenwart,hadhara,s,katiba,jokofu,mikopo,NA,NA,0,NA,NA,NA,NA,NA,NA,NA,NA,NA,NA,NA,NA,NA,NA,NA,NA,NA,NA,NA,NA
25540,shallow,flow.Sequence,1_1_5_1,NA,NA,completion,9533.216,219662.59999999,219659.128,219675.794,229209.01,229211,2023-03-07T13:15:48Z,229225.676,"c(""distractor1"", ""distractor2"", ""distractor3"")",Gegenwart,hadhara,s,katiba,jokofu,mikopo,NA,NA,NA,NA,NA,NA,NA,NA,NA,NA,NA,NA,NA,NA,NA,NA,NA,NA,NA,NA,NA,NA,NA
25540,task,flow.Sequence,1_1_5,NA,NA,completion,9533.216,219662.29999998,219659.128,219675.794,229209.01,229211.29999998,2023-03-07T13:15:48Z,229225.676,"c(""distractor1"", ""distractor2"", ""distractor3"")",Gegenwart,hadhara,s,katiba,jokofu,mikopo,NA,NA,NA,NA,NA,NA,NA,NA,NA,NA,NA,NA,NA,NA,NA,NA,NA,NA,NA,NA,NA,NA,NA
25540,block,flow.Loop,1_1,NA,NA,completion,55265.91,173929.39999998,173926.434,173943.1,229209.01,229211.59999999,2023-03-07T13:15:48Z,229225.676,"c(""distractor1"", ""distractor2"", ""distractor3"")",NA,NA,NA,NA,NA,NA,NA,NA,NA,NA,NA,NA,NA,NA,NA,NA,NA,NA,NA,NA,NA,NA,NA,NA,NA,NA,NA,NA,NA
25540,Practice,flow.Sequence,1,NA,NA,completion,61733.87,167473.89999998,167458.474,167475.14,229209.01,229211.79999998,2023-03-07T13:15:48Z,229225.676,NULL,NA,NA,NA,NA,NA,NA,NA,NA,NA,NA,NA,NA,NA,NA,NA,NA,NA,NA,NA,NA,NA,NA,NA,NA,NA,NA,NA,NA,NA
25540,Experiment start,canvas.Screen,2,weiter,keypress(q),response,33957.423999994,229212,229209.01,229225.676,263183.09999999,263192.69999999,2023-03-07T13:16:22Z,263257.983,NULL,NA,NA,NA,NA,NA,NA,NA,NA,NA,NA,NA,NA,NA,NA,NA,NA,NA,NA,NA,NA,NA,NA,NA,NA,NA,NA,NA,NA,NA
25540,deep,flow.Sequence,3_0_0_0_0_0,NA,NA,skipped,NA,263269,NA,NA,263183.09999999,263269,2023-03-07T13:16:22Z,263257.983,NULL,Toleranz,kuvumiliana,s,maombolezo,ujasusi,mchekeshaji,NA,sdf,NA,0,NA,NA,NA,NA,NA,NA,NA,NA,NA,NA,NA,NA,NA,NA,NA,NA,NA,NA,NA
25540,Shallow Question,html.Page,3_0_0_0_0_1_0,NA,NA,form submission,5282.116999994,263269.09999999,263174.653,263257.983,268540.09999999,268540.29999998,2023-03-07T13:16:28Z,268541.822,NULL,Toleranz,kuvumiliana,s,maombolezo,ujasusi,mchekeshaji,ujasusi,NA,NA,0,NA,NA,NA,NA,NA,NA,NA,NA,NA,NA,NA,NA,NA,NA,NA,NA,NA,NA,NA
25540,"""Richtig""-Screen",canvas.Screen,3_0_0_0_0_1_1,NA,NA,skipped,NA,268542.29999998,NA,NA,268540.09999999,268542.5,2023-03-07T13:16:28Z,268541.822,NULL,Toleranz,kuvumiliana,s,maombolezo,ujasusi,mchekeshaji,NA,sdf,NA,0,NA,NA,NA,NA,NA,NA,NA,NA,NA,NA,NA,NA,NA,NA,NA,NA,NA,NA,NA
25540,"""Falsch""-Screen",canvas.Screen,3_0_0_0_0_1_2,NA,NA,timeout,4999.8,268543,268525.156,268541.822,273524.956,273526.09999999,2023-03-07T13:16:33Z,273541.622,NULL,Toleranz,kuvumiliana,s,maombolezo,ujasusi,mchekeshaji,NA,sdf,0,0,NA,NA,NA,NA,NA,NA,NA,NA,NA,NA,NA,NA,NA,NA,NA,NA,NA,NA,NA
25540,shallow,flow.Sequence,3_0_0_0_0_1,NA,NA,completion,10266.973,263269.09999999,263174.653,263257.983,273524.956,273526.39999998,2023-03-07T13:16:33Z,273541.622,NULL,Toleranz,kuvumiliana,s,maombolezo,ujasusi,mchekeshaji,NA,sdf,NA,0,NA,NA,NA,NA,NA,NA,NA,NA,NA,NA,NA,NA,NA,NA,NA,NA,NA,NA,NA
25540,task,flow.Sequence,3_0_0_0_0,NA,NA,completion,10266.973,263268.89999998,263174.653,263257.983,273524.956,273526.59999999,2023-03-07T13:16:33Z,273541.622,NULL,Toleranz,kuvumiliana,s,maombolezo,ujasusi,mchekeshaji,NA,sdf,NA,0,NA,NA,NA,NA,NA,NA,NA,NA,NA,NA,NA,NA,NA,NA,NA,NA,NA,NA,NA
25540,deep,flow.Sequence,3_0_0_0_1_0,NA,NA,skipped,NA,273526.79999998,NA,NA,273524.956,273526.79999998,2023-03-07T13:16:33Z,273541.622,NULL,Genehmigung,idhini,s,mwanamke,itikadi,fedheha,NA,sdf,NA,0,NA,NA,NA,NA,NA,NA,NA,NA,NA,NA,NA,NA,NA,NA,NA,NA,NA,NA,NA
25540,Shallow Question,html.Page,3_0_0_0_1_1_0,NA,NA,form submission,3166.0779999881,273526.89999998,273524.956,273541.622,276707.69999999,276708.09999999,2023-03-07T13:16:36Z,276708.43,NULL,Genehmigung,idhini,s,mwanamke,itikadi,fedheha,fedheha,NA,NA,0,NA,NA,NA,NA,NA,NA,NA,NA,NA,NA,NA,NA,NA,NA,NA,NA,NA,NA,NA
25540,"""Richtig""-Screen",canvas.Screen,3_0_0_0_1_1_1,NA,NA,skipped,NA,276711.59999999,NA,NA,276707.69999999,276711.69999999,2023-03-07T13:16:36Z,276708.43,NULL,Genehmigung,idhini,s,mwanamke,itikadi,fedheha,NA,sdf,NA,0,NA,NA,NA,NA,NA,NA,NA,NA,NA,NA,NA,NA,NA,NA,NA,NA,NA,NA,NA
25540,"""Falsch""-Screen",canvas.Screen,3_0_0_0_1_1_2,NA,NA,timeout,4999.8,276712.69999999,276691.764,276708.43,281691.564,281693.89999998,2023-03-07T13:16:41Z,281708.23,NULL,Genehmigung,idhini,s,mwanamke,itikadi,fedheha,NA,sdf,0,0,NA,NA,NA,NA,NA,NA,NA,NA,NA,NA,NA,NA,NA,NA,NA,NA,NA,NA,NA
25540,shallow,flow.Sequence,3_0_0_0_1_1,NA,NA,completion,8149.942,273526.89999998,273524.956,273541.622,281691.564,281694.29999998,2023-03-07T13:16:41Z,281708.23,NULL,Genehmigung,idhini,s,mwanamke,itikadi,fedheha,NA,sdf,NA,0,NA,NA,NA,NA,NA,NA,NA,NA,NA,NA,NA,NA,NA,NA,NA,NA,NA,NA,NA
25540,task,flow.Sequence,3_0_0_0_1,NA,NA,completion,8149.942,273526.69999999,273524.956,273541.622,281691.564,281694.5,2023-03-07T13:16:41Z,281708.23,NULL,Genehmigung,idhini,s,mwanamke,itikadi,fedheha,NA,sdf,NA,0,NA,NA,NA,NA,NA,NA,NA,NA,NA,NA,NA,NA,NA,NA,NA,NA,NA,NA,NA
25540,Deep Question,html.Page,3_0_0_0_2_0_0,NA,NA,form submission,4159.8699999941,281694.69999999,281691.564,281708.23,285868.09999999,285868.5,2023-03-07T13:16:45Z,285874.997,NULL,Inhalt,yaliyomo,d,NA,NA,NA,vedhasi,NA,NA,0,NA,NA,NA,NA,NA,NA,NA,NA,NA,NA,NA,NA,NA,NA,NA,NA,NA,NA,NA
25540,"""Richtig""-Screen",canvas.Screen,3_0_0_0_2_0_1,NA,NA,skipped,NA,285871.59999999,NA,NA,285868.09999999,285871.69999999,2023-03-07T13:16:45Z,285874.997,NULL,Inhalt,yaliyomo,d,NA,NA,NA,NA,sdf,NA,0,NA,NA,NA,NA,NA,NA,NA,NA,NA,NA,NA,NA,NA,NA,NA,NA,NA,NA,NA
25540,"""Falsch""-Screen",canvas.Screen,3_0_0_0_2_0_2,NA,NA,timeout,4999.8,285872.79999998,285858.331,285874.997,290858.131,290860.39999998,2023-03-07T13:16:50Z,290874.797,NULL,Inhalt,yaliyomo,d,NA,NA,NA,NA,sdf,0,0,NA,NA,NA,NA,NA,NA,NA,NA,NA,NA,NA,NA,NA,NA,NA,NA,NA,NA,NA
25540,deep,flow.Sequence,3_0_0_0_2_0,NA,NA,completion,9149.901,281694.59999999,281691.564,281708.23,290858.131,290860.69999999,2023-03-07T13:16:50Z,290874.797,NULL,Inhalt,yaliyomo,d,NA,NA,NA,NA,sdf,NA,0,NA,NA,NA,NA,NA,NA,NA,NA,NA,NA,NA,NA,NA,NA,NA,NA,NA,NA,NA
25540,shallow,flow.Sequence,3_0_0_0_2_1,NA,NA,skipped,NA,290860.79999998,NA,NA,290858.131,290861,2023-03-07T13:16:50Z,290874.797,NULL,Inhalt,yaliyomo,d,NA,NA,NA,NA,sdf,NA,0,NA,NA,NA,NA,NA,NA,NA,NA,NA,NA,NA,NA,NA,NA,NA,NA,NA,NA,NA
25540,task,flow.Sequence,3_0_0_0_2,NA,NA,completion,9149.901,281694.59999999,281691.564,281708.23,290858.131,290861.29999998,2023-03-07T13:16:50Z,290874.797,NULL,Inhalt,yaliyomo,d,NA,NA,NA,NA,sdf,NA,0,NA,NA,NA,NA,NA,NA,NA,NA,NA,NA,NA,NA,NA,NA,NA,NA,NA,NA,NA
25540,deep,flow.Sequence,3_0_0_0_3_0,NA,NA,skipped,NA,290861.29999998,NA,NA,290858.131,290861.39999998,2023-03-07T13:16:50Z,290874.797,NULL,Begegnung,kukutana,s,mmasihiya,mpiganaji,husiano,NA,sdf,NA,0,NA,NA,NA,NA,NA,NA,NA,NA,NA,NA,NA,NA,NA,NA,NA,NA,NA,NA,NA
25540,Shallow Question,html.Page,3_0_0_0_3_1_0,NA,NA,form submission,3973.0029999821,290861.59999999,290858.131,290874.797,294847.79999998,294848.09999999,2023-03-07T13:16:54Z,294857.971,NULL,Begegnung,kukutana,s,mmasihiya,mpiganaji,husiano,husiano,NA,NA,0,NA,NA,NA,NA,NA,NA,NA,NA,NA,NA,NA,NA,NA,NA,NA,NA,NA,NA,NA
25540,"""Richtig""-Screen",canvas.Screen,3_0_0_0_3_1_1,NA,NA,skipped,NA,294850.89999998,NA,NA,294847.79999998,294851,2023-03-07T13:16:54Z,294857.971,NULL,Begegnung,kukutana,s,mmasihiya,mpiganaji,husiano,NA,sdf,NA,0,NA,NA,NA,NA,NA,NA,NA,NA,NA,NA,NA,NA,NA,NA,NA,NA,NA,NA,NA
25540,"""Falsch""-Screen",canvas.Screen,3_0_0_0_3_1_2,NA,NA,timeout,4999.8,294852,294841.305,294857.971,299841.105,299843.19999999,2023-03-07T13:16:59Z,299857.771,NULL,Begegnung,kukutana,s,mmasihiya,mpiganaji,husiano,NA,sdf,0,0,NA,NA,NA,NA,NA,NA,NA,NA,NA,NA,NA,NA,NA,NA,NA,NA,NA,NA,NA
25540,shallow,flow.Sequence,3_0_0_0_3_1,NA,NA,completion,8966.308,290861.59999999,290858.131,290874.797,299841.105,299843.59999999,2023-03-07T13:16:59Z,299857.771,NULL,Begegnung,kukutana,s,mmasihiya,mpiganaji,husiano,NA,sdf,NA,0,NA,NA,NA,NA,NA,NA,NA,NA,NA,NA,NA,NA,NA,NA,NA,NA,NA,NA,NA
25540,task,flow.Sequence,3_0_0_0_3,NA,NA,completion,8966.308,290861.29999998,290858.131,290874.797,299841.105,299843.89999998,2023-03-07T13:16:59Z,299857.771,NULL,Begegnung,kukutana,s,mmasihiya,mpiganaji,husiano,NA,sdf,NA,0,NA,NA,NA,NA,NA,NA,NA,NA,NA,NA,NA,NA,NA,NA,NA,NA,NA,NA,NA
25540,Deep Question,html.Page,3_0_0_0_4_0_0,NA,NA,form submission,5093.9289999881,299844.19999999,299841.105,299857.771,304951.69999999,304952.09999999,2023-03-07T13:17:04Z,304958.095,NULL,Integrität,uadilifu,d,NA,NA,NA,valiamo,NA,NA,0,NA,NA,NA,NA,NA,NA,NA,NA,NA,NA,NA,NA,NA,NA,NA,NA,NA,NA,NA
25540,"""Richtig""-Screen",canvas.Screen,3_0_0_0_4_0_1,NA,NA,skipped,NA,304955.59999999,NA,NA,304951.69999999,304955.69999999,2023-03-07T13:17:04Z,304958.095,NULL,Integrität,uadilifu,d,NA,NA,NA,NA,sdf,NA,0,NA,NA,NA,NA,NA,NA,NA,NA,NA,NA,NA,NA,NA,NA,NA,NA,NA,NA,NA
25540,"""Falsch""-Screen",canvas.Screen,3_0_0_0_4_0_2,NA,NA,timeout,4999.8,304956.59999999,304941.429,304958.095,309941.229,309942.79999998,2023-03-07T13:17:09Z,309957.895,NULL,Integrität,uadilifu,d,NA,NA,NA,NA,sdf,0,0,NA,NA,NA,NA,NA,NA,NA,NA,NA,NA,NA,NA,NA,NA,NA,NA,NA,NA,NA
25540,deep,flow.Sequence,3_0_0_0_4_0,NA,NA,completion,10083.458,299844.09999999,299841.105,299857.771,309941.229,309943.29999998,2023-03-07T13:17:09Z,309957.895,NULL,Integrität,uadilifu,d,NA,NA,NA,NA,sdf,NA,0,NA,NA,NA,NA,NA,NA,NA,NA,NA,NA,NA,NA,NA,NA,NA,NA,NA,NA,NA
25540,shallow,flow.Sequence,3_0_0_0_4_1,NA,NA,skipped,NA,309943.29999998,NA,NA,309941.229,309943.59999999,2023-03-07T13:17:09Z,309957.895,NULL,Integrität,uadilifu,d,NA,NA,NA,NA,sdf,NA,0,NA,NA,NA,NA,NA,NA,NA,NA,NA,NA,NA,NA,NA,NA,NA,NA,NA,NA,NA
25540,task,flow.Sequence,3_0_0_0_4,NA,NA,completion,10083.458,299844.09999999,299841.105,299857.771,309941.229,309943.69999999,2023-03-07T13:17:09Z,309957.895,NULL,Integrität,uadilifu,d,NA,NA,NA,NA,sdf,NA,0,NA,NA,NA,NA,NA,NA,NA,NA,NA,NA,NA,NA,NA,NA,NA,NA,NA,NA,NA
25540,deep,flow.Sequence,3_0_0_0_5_0,NA,NA,skipped,NA,309943.89999998,NA,NA,309941.229,309944,2023-03-07T13:17:09Z,309957.895,NULL,Schlange,foleni,s,uvumilivu,uteuzi,muuzaji,NA,sdf,NA,0,NA,NA,NA,NA,NA,NA,NA,NA,NA,NA,NA,NA,NA,NA,NA,NA,NA,NA,NA
25540,Shallow Question,html.Page,3_0_0_0_5_1_0,NA,NA,form submission,3681.105,309944.09999999,309941.229,309957.895,313639,313639.29999998,2023-03-07T13:17:13Z,313641.081,NULL,Schlange,foleni,s,uvumilivu,uteuzi,muuzaji,foleni,NA,NA,0,NA,NA,NA,NA,NA,NA,NA,NA,NA,NA,NA,NA,NA,NA,NA,NA,NA,NA,NA
25540,"""Richtig""-Screen",canvas.Screen,3_0_0_0_5_1_1,NA,NA,timeout,4999.8,313641.29999998,313624.415,313641.081,318624.215,318626.79999998,2023-03-07T13:17:18Z,318640.881,NULL,Schlange,foleni,s,uvumilivu,uteuzi,muuzaji,NA,sdf,1,0,NA,NA,NA,NA,NA,NA,NA,NA,NA,NA,NA,NA,NA,NA,NA,NA,NA,NA,NA
25540,"""Falsch""-Screen",canvas.Screen,3_0_0_0_5_1_2,NA,NA,skipped,NA,318630.89999998,NA,NA,318624.215,318631.09999999,2023-03-07T13:17:18Z,318640.881,NULL,Schlange,foleni,s,uvumilivu,uteuzi,muuzaji,NA,sdf,NA,0,NA,NA,NA,NA,NA,NA,NA,NA,NA,NA,NA,NA,NA,NA,NA,NA,NA,NA,NA
25540,shallow,flow.Sequence,3_0_0_0_5_1,NA,NA,completion,8666.32,309944.09999999,309941.229,309957.895,318624.215,318631.19999999,2023-03-07T13:17:18Z,318640.881,NULL,Schlange,foleni,s,uvumilivu,uteuzi,muuzaji,NA,sdf,NA,0,NA,NA,NA,NA,NA,NA,NA,NA,NA,NA,NA,NA,NA,NA,NA,NA,NA,NA,NA
25540,task,flow.Sequence,3_0_0_0_5,NA,NA,completion,8666.32,309943.89999998,309941.229,309957.895,318624.215,318631.39999998,2023-03-07T13:17:18Z,318640.881,NULL,Schlange,foleni,s,uvumilivu,uteuzi,muuzaji,NA,sdf,NA,0,NA,NA,NA,NA,NA,NA,NA,NA,NA,NA,NA,NA,NA,NA,NA,NA,NA,NA,NA
25540,Deep Question,html.Page,3_0_0_0_6_0_0,NA,NA,form submission,3780.0189999762,318631.5,318624.215,318640.881,322420.89999998,322421.29999998,2023-03-07T13:17:22Z,322424.448,NULL,Vermutung,udhanifu,d,NA,NA,NA,vi,NA,NA,0,NA,NA,NA,NA,NA,NA,NA,NA,NA,NA,NA,NA,NA,NA,NA,NA,NA,NA,NA
25540,"""Richtig""-Screen",canvas.Screen,3_0_0_0_6_0_1,NA,NA,skipped,NA,322424.19999999,NA,NA,322420.89999998,322424.39999998,2023-03-07T13:17:22Z,322424.448,NULL,Vermutung,udhanifu,d,NA,NA,NA,NA,sdf,NA,0,NA,NA,NA,NA,NA,NA,NA,NA,NA,NA,NA,NA,NA,NA,NA,NA,NA,NA,NA
25540,"""Falsch""-Screen",canvas.Screen,3_0_0_0_6_0_2,NA,NA,timeout,4999.8,322425.29999998,322407.782,322424.448,327407.582,327409.59999999,2023-03-07T13:17:27Z,327424.248,NULL,Vermutung,udhanifu,d,NA,NA,NA,NA,sdf,0,0,NA,NA,NA,NA,NA,NA,NA,NA,NA,NA,NA,NA,NA,NA,NA,NA,NA,NA,NA
25540,deep,flow.Sequence,3_0_0_0_6_0,NA,NA,completion,8766.701,318631.5,318624.215,318640.881,327407.582,327409.89999998,2023-03-07T13:17:27Z,327424.248,NULL,Vermutung,udhanifu,d,NA,NA,NA,NA,sdf,NA,0,NA,NA,NA,NA,NA,NA,NA,NA,NA,NA,NA,NA,NA,NA,NA,NA,NA,NA,NA
25540,shallow,flow.Sequence,3_0_0_0_6_1,NA,NA,skipped,NA,327410,NA,NA,327407.582,327410.19999999,2023-03-07T13:17:27Z,327424.248,NULL,Vermutung,udhanifu,d,NA,NA,NA,NA,sdf,NA,0,NA,NA,NA,NA,NA,NA,NA,NA,NA,NA,NA,NA,NA,NA,NA,NA,NA,NA,NA
25540,task,flow.Sequence,3_0_0_0_6,NA,NA,completion,8766.701,318631.5,318624.215,318640.881,327407.582,327410.39999998,2023-03-07T13:17:27Z,327424.248,NULL,Vermutung,udhanifu,d,NA,NA,NA,NA,sdf,NA,0,NA,NA,NA,NA,NA,NA,NA,NA,NA,NA,NA,NA,NA,NA,NA,NA,NA,NA,NA
25540,Deep Question,html.Page,3_0_0_0_7_0_0,NA,NA,form submission,2689.1519999761,327410.59999999,327407.582,327424.248,330113.39999998,330113.79999998,2023-03-07T13:17:29Z,330124.408,NULL,Fleisch,mshakiki,d,NA,NA,NA,ga,NA,NA,0,NA,NA,NA,NA,NA,NA,NA,NA,NA,NA,NA,NA,NA,NA,NA,NA,NA,NA,NA
25540,"""Richtig""-Screen",canvas.Screen,3_0_0_0_7_0_1,NA,NA,skipped,NA,330117,NA,NA,330113.39999998,330117.19999999,2023-03-07T13:17:29Z,330124.408,NULL,Fleisch,mshakiki,d,NA,NA,NA,NA,sdf,NA,0,NA,NA,NA,NA,NA,NA,NA,NA,NA,NA,NA,NA,NA,NA,NA,NA,NA,NA,NA
25540,"""Falsch""-Screen",canvas.Screen,3_0_0_0_7_0_2,NA,NA,timeout,4999.8,330118.09999999,330107.742,330124.408,335107.542,335109.79999998,2023-03-07T13:17:34Z,335124.208,NULL,Fleisch,mshakiki,d,NA,NA,NA,NA,sdf,0,0,NA,NA,NA,NA,NA,NA,NA,NA,NA,NA,NA,NA,NA,NA,NA,NA,NA,NA,NA
25540,deep,flow.Sequence,3_0_0_0_7_0,NA,NA,completion,7683.294,327410.59999999,327407.582,327424.248,335107.542,335110.19999999,2023-03-07T13:17:34Z,335124.208,NULL,Fleisch,mshakiki,d,NA,NA,NA,NA,sdf,NA,0,NA,NA,NA,NA,NA,NA,NA,NA,NA,NA,NA,NA,NA,NA,NA,NA,NA,NA,NA
25540,shallow,flow.Sequence,3_0_0_0_7_1,NA,NA,skipped,NA,335110.39999998,NA,NA,335107.542,335110.59999999,2023-03-07T13:17:34Z,335124.208,NULL,Fleisch,mshakiki,d,NA,NA,NA,NA,sdf,NA,0,NA,NA,NA,NA,NA,NA,NA,NA,NA,NA,NA,NA,NA,NA,NA,NA,NA,NA,NA
25540,task,flow.Sequence,3_0_0_0_7,NA,NA,completion,7683.294,327410.59999999,327407.582,327424.248,335107.542,335110.69999999,2023-03-07T13:17:34Z,335124.208,NULL,Fleisch,mshakiki,d,NA,NA,NA,NA,sdf,NA,0,NA,NA,NA,NA,NA,NA,NA,NA,NA,NA,NA,NA,NA,NA,NA,NA,NA,NA,NA
25540,block,flow.Loop,3_0_0_0,NA,NA,completion,71849.559,263268.89999998,263174.653,263257.983,335107.542,335111,2023-03-07T13:17:34Z,335124.208,NULL,NA,NA,NA,NA,NA,NA,NA,sdf,NA,0,NA,NA,NA,NA,NA,NA,NA,NA,NA,NA,NA,NA,NA,NA,NA,NA,NA,NA,NA
25540,weiter,canvas.Screen,3_0_0_1,sdf,keypress(Space),response,2240.292,335111.09999999,335107.542,335124.208,337364.5,337375.5,2023-03-07T13:17:36Z,337424.116,NULL,NA,NA,NA,NA,NA,NA,NA,sdf,NA,0,NA,NA,NA,NA,NA,NA,NA,NA,NA,NA,NA,NA,NA,NA,NA,NA,NA,NA,NA
25540,check continue,flow.Sequence,3_0_0,NA,NA,completion,74106.517,263268.89999998,263174.653,263257.983,337364.5,337375.69999999,2023-03-07T13:17:36Z,337424.116,NULL,NA,NA,NA,NA,NA,NA,NA,sdf,NA,0,NA,NA,NA,NA,NA,NA,NA,NA,NA,NA,NA,NA,NA,NA,NA,NA,NA,NA,NA
25540,Deep Question,html.Page,3_0_1_0_0_0_0,NA,NA,form submission,4841.5839999881,337410,337407.45,337424.116,342265.69999999,342266.09999999,2023-03-07T13:17:41Z,342274.191,NULL,Integrität,uadilifu,d,NA,NA,NA,mhukaki,NA,NA,1,NA,NA,NA,NA,NA,NA,NA,NA,NA,NA,NA,NA,NA,NA,NA,NA,NA,NA,NA
25540,"""Richtig""-Screen",canvas.Screen,3_0_1_0_0_0_1,NA,NA,skipped,NA,342269.5,NA,NA,342265.69999999,342269.59999999,2023-03-07T13:17:41Z,342274.191,NULL,Integrität,uadilifu,d,NA,NA,NA,NA,sdfdsf,NA,1,NA,NA,NA,NA,NA,NA,NA,NA,NA,NA,NA,NA,NA,NA,NA,NA,NA,NA,NA
25540,"""Falsch""-Screen",canvas.Screen,3_0_1_0_0_0_2,NA,NA,timeout,4999.8,342270.59999999,342257.525,342274.191,347257.325,347259.59999999,2023-03-07T13:17:46Z,347273.991,NULL,Integrität,uadilifu,d,NA,NA,NA,NA,sdfdsf,0,1,NA,NA,NA,NA,NA,NA,NA,NA,NA,NA,NA,NA,NA,NA,NA,NA,NA,NA,NA
25540,deep,flow.Sequence,3_0_1_0_0_0,NA,NA,completion,9833.209,337410,337407.45,337424.116,347257.325,347260,2023-03-07T13:17:46Z,347273.991,NULL,Integrität,uadilifu,d,NA,NA,NA,NA,sdfdsf,NA,1,NA,NA,NA,NA,NA,NA,NA,NA,NA,NA,NA,NA,NA,NA,NA,NA,NA,NA,NA
25540,shallow,flow.Sequence,3_0_1_0_0_1,NA,NA,skipped,NA,347260.09999999,NA,NA,347257.325,347260.19999999,2023-03-07T13:17:46Z,347273.991,NULL,Integrität,uadilifu,d,NA,NA,NA,NA,sdfdsf,NA,1,NA,NA,NA,NA,NA,NA,NA,NA,NA,NA,NA,NA,NA,NA,NA,NA,NA,NA,NA
25540,task,flow.Sequence,3_0_1_0_0,NA,NA,completion,9833.209,337409.89999998,337407.45,337424.116,347257.325,347260.39999998,2023-03-07T13:17:46Z,347273.991,NULL,Integrität,uadilifu,d,NA,NA,NA,NA,sdfdsf,NA,1,NA,NA,NA,NA,NA,NA,NA,NA,NA,NA,NA,NA,NA,NA,NA,NA,NA,NA,NA
25540,Deep Question,html.Page,3_0_1_0_1_0_0,NA,NA,form submission,5860.009,347260.59999999,347257.325,347273.991,353134,353134.39999998,2023-03-07T13:17:52Z,353140.689,NULL,Fleisch,mshakiki,d,NA,NA,NA,lakiki,NA,NA,1,NA,NA,NA,NA,NA,NA,NA,NA,NA,NA,NA,NA,NA,NA,NA,NA,NA,NA,NA
25540,"""Richtig""-Screen",canvas.Screen,3_0_1_0_1_0_1,NA,NA,skipped,NA,353137.89999998,NA,NA,353134,353138.19999999,2023-03-07T13:17:52Z,353140.689,NULL,Fleisch,mshakiki,d,NA,NA,NA,NA,sdfdsf,NA,1,NA,NA,NA,NA,NA,NA,NA,NA,NA,NA,NA,NA,NA,NA,NA,NA,NA,NA,NA
25540,"""Falsch""-Screen",canvas.Screen,3_0_1_0_1_0_2,NA,NA,timeout,4999.8,353139.09999999,353124.023,353140.689,358123.823,358126.19999999,2023-03-07T13:17:57Z,358140.489,NULL,Fleisch,mshakiki,d,NA,NA,NA,NA,sdfdsf,0,1,NA,NA,NA,NA,NA,NA,NA,NA,NA,NA,NA,NA,NA,NA,NA,NA,NA,NA,NA
25540,deep,flow.Sequence,3_0_1_0_1_0,NA,NA,completion,10849.832,347260.59999999,347257.325,347273.991,358123.823,358126.59999999,2023-03-07T13:17:57Z,358140.489,NULL,Fleisch,mshakiki,d,NA,NA,NA,NA,sdfdsf,NA,1,NA,NA,NA,NA,NA,NA,NA,NA,NA,NA,NA,NA,NA,NA,NA,NA,NA,NA,NA
25540,shallow,flow.Sequence,3_0_1_0_1_1,NA,NA,skipped,NA,358126.69999999,NA,NA,358123.823,358126.79999998,2023-03-07T13:17:57Z,358140.489,NULL,Fleisch,mshakiki,d,NA,NA,NA,NA,sdfdsf,NA,1,NA,NA,NA,NA,NA,NA,NA,NA,NA,NA,NA,NA,NA,NA,NA,NA,NA,NA,NA
25540,task,flow.Sequence,3_0_1_0_1,NA,NA,completion,10849.832,347260.5,347257.325,347273.991,358123.823,358127.09999999,2023-03-07T13:17:57Z,358140.489,NULL,Fleisch,mshakiki,d,NA,NA,NA,NA,sdfdsf,NA,1,NA,NA,NA,NA,NA,NA,NA,NA,NA,NA,NA,NA,NA,NA,NA,NA,NA,NA,NA
25540,Deep Question,html.Page,3_0_1_0_2_0_0,NA,NA,form submission,3992.2109999881,358127.19999999,358123.823,358140.489,362132.69999999,362133,2023-03-07T13:18:01Z,362140.606,NULL,Vermutung,udhanifu,d,NA,NA,NA,blu,NA,NA,1,NA,NA,NA,NA,NA,NA,NA,NA,NA,NA,NA,NA,NA,NA,NA,NA,NA,NA,NA
25540,"""Richtig""-Screen",canvas.Screen,3_0_1_0_2_0_1,NA,NA,skipped,NA,362136,NA,NA,362132.69999999,362136.09999999,2023-03-07T13:18:01Z,362140.606,NULL,Vermutung,udhanifu,d,NA,NA,NA,NA,sdfdsf,NA,1,NA,NA,NA,NA,NA,NA,NA,NA,NA,NA,NA,NA,NA,NA,NA,NA,NA,NA,NA
25540,"""Falsch""-Screen",canvas.Screen,3_0_1_0_2_0_2,NA,NA,timeout,4999.8,362137,362123.94,362140.606,367123.74,367125.69999999,2023-03-07T13:18:06Z,367140.406,NULL,Vermutung,udhanifu,d,NA,NA,NA,NA,sdfdsf,0,1,NA,NA,NA,NA,NA,NA,NA,NA,NA,NA,NA,NA,NA,NA,NA,NA,NA,NA,NA
25540,deep,flow.Sequence,3_0_1_0_2_0,NA,NA,completion,8983.251,358127.19999999,358123.823,358140.489,367123.74,367126.19999999,2023-03-07T13:18:06Z,367140.406,NULL,Vermutung,udhanifu,d,NA,NA,NA,NA,sdfdsf,NA,1,NA,NA,NA,NA,NA,NA,NA,NA,NA,NA,NA,NA,NA,NA,NA,NA,NA,NA,NA
25540,shallow,flow.Sequence,3_0_1_0_2_1,NA,NA,skipped,NA,367126.29999998,NA,NA,367123.74,367126.5,2023-03-07T13:18:06Z,367140.406,NULL,Vermutung,udhanifu,d,NA,NA,NA,NA,sdfdsf,NA,1,NA,NA,NA,NA,NA,NA,NA,NA,NA,NA,NA,NA,NA,NA,NA,NA,NA,NA,NA
25540,task,flow.Sequence,3_0_1_0_2,NA,NA,completion,8983.251,358127.19999999,358123.823,358140.489,367123.74,367126.69999999,2023-03-07T13:18:06Z,367140.406,NULL,Vermutung,udhanifu,d,NA,NA,NA,NA,sdfdsf,NA,1,NA,NA,NA,NA,NA,NA,NA,NA,NA,NA,NA,NA,NA,NA,NA,NA,NA,NA,NA
25540,Deep Question,html.Page,3_0_1_0_3_0_0,NA,NA,form submission,4288.094,367126.89999998,367123.74,367140.406,371428.5,371428.89999998,2023-03-07T13:18:11Z,371440.506,NULL,Inhalt,yaliyomo,d,NA,NA,NA,FA,NA,NA,1,NA,NA,NA,NA,NA,NA,NA,NA,NA,NA,NA,NA,NA,NA,NA,NA,NA,NA,NA
25540,"""Richtig""-Screen",canvas.Screen,3_0_1_0_3_0_1,NA,NA,skipped,NA,371432.29999998,NA,NA,371428.5,371432.5,2023-03-07T13:18:11Z,371440.506,NULL,Inhalt,yaliyomo,d,NA,NA,NA,NA,sdfdsf,NA,1,NA,NA,NA,NA,NA,NA,NA,NA,NA,NA,NA,NA,NA,NA,NA,NA,NA,NA,NA
25540,"""Falsch""-Screen",canvas.Screen,3_0_1_0_3_0_2,NA,NA,timeout,4999.8,371433.39999998,371423.84,371440.506,376423.64,376425.79999998,2023-03-07T13:18:16Z,376440.306,NULL,Inhalt,yaliyomo,d,NA,NA,NA,NA,sdfdsf,0,1,NA,NA,NA,NA,NA,NA,NA,NA,NA,NA,NA,NA,NA,NA,NA,NA,NA,NA,NA
25540,deep,flow.Sequence,3_0_1_0_3_0,NA,NA,completion,9283.234,367126.89999998,367123.74,367140.406,376423.64,376426.19999999,2023-03-07T13:18:16Z,376440.306,NULL,Inhalt,yaliyomo,d,NA,NA,NA,NA,sdfdsf,NA,1,NA,NA,NA,NA,NA,NA,NA,NA,NA,NA,NA,NA,NA,NA,NA,NA,NA,NA,NA
25540,shallow,flow.Sequence,3_0_1_0_3_1,NA,NA,skipped,NA,376426.29999998,NA,NA,376423.64,376426.5,2023-03-07T13:18:16Z,376440.306,NULL,Inhalt,yaliyomo,d,NA,NA,NA,NA,sdfdsf,NA,1,NA,NA,NA,NA,NA,NA,NA,NA,NA,NA,NA,NA,NA,NA,NA,NA,NA,NA,NA
25540,task,flow.Sequence,3_0_1_0_3,NA,NA,completion,9283.234,367126.79999998,367123.74,367140.406,376423.64,376426.59999999,2023-03-07T13:18:16Z,376440.306,NULL,Inhalt,yaliyomo,d,NA,NA,NA,NA,sdfdsf,NA,1,NA,NA,NA,NA,NA,NA,NA,NA,NA,NA,NA,NA,NA,NA,NA,NA,NA,NA,NA
25540,deep,flow.Sequence,3_0_1_0_4_0,NA,NA,skipped,NA,376426.79999998,NA,NA,376423.64,376427,2023-03-07T13:18:16Z,376440.306,NULL,Toleranz,kuvumiliana,s,maombolezo,ujasusi,mchekeshaji,NA,sdfdsf,NA,1,NA,NA,NA,NA,NA,NA,NA,NA,NA,NA,NA,NA,NA,NA,NA,NA,NA,NA,NA
25540,Shallow Question,html.Page,3_0_1_0_4_1_0,NA,NA,form submission,10145.393999988,376427.09999999,376423.64,376440.306,386585.69999999,386586.09999999,2023-03-07T13:18:26Z,386590.206,NULL,Toleranz,kuvumiliana,s,maombolezo,ujasusi,mchekeshaji,kuvumiliana,NA,NA,1,NA,NA,NA,NA,NA,NA,NA,NA,NA,NA,NA,NA,NA,NA,NA,NA,NA,NA,NA
25540,"""Richtig""-Screen",canvas.Screen,3_0_1_0_4_1_1,NA,NA,timeout,4999.8,386589.39999998,386573.54,386590.206,391573.34,391575.69999999,2023-03-07T13:18:31Z,391590.006,NULL,Toleranz,kuvumiliana,s,maombolezo,ujasusi,mchekeshaji,NA,sdfdsf,1,1,NA,NA,NA,NA,NA,NA,NA,NA,NA,NA,NA,NA,NA,NA,NA,NA,NA,NA,NA
25540,"""Falsch""-Screen",canvas.Screen,3_0_1_0_4_1_2,NA,NA,skipped,NA,391580.09999999,NA,NA,391573.34,391580.29999998,2023-03-07T13:18:31Z,391590.006,NULL,Toleranz,kuvumiliana,s,maombolezo,ujasusi,mchekeshaji,NA,sdfdsf,NA,1,NA,NA,NA,NA,NA,NA,NA,NA,NA,NA,NA,NA,NA,NA,NA,NA,NA,NA,NA
25540,shallow,flow.Sequence,3_0_1_0_4_1,NA,NA,completion,15133.034,376427.09999999,376423.64,376440.306,391573.34,391580.5,2023-03-07T13:18:31Z,391590.006,NULL,Toleranz,kuvumiliana,s,maombolezo,ujasusi,mchekeshaji,NA,sdfdsf,NA,1,NA,NA,NA,NA,NA,NA,NA,NA,NA,NA,NA,NA,NA,NA,NA,NA,NA,NA,NA
25540,task,flow.Sequence,3_0_1_0_4,NA,NA,completion,15133.034,376426.69999999,376423.64,376440.306,391573.34,391580.69999999,2023-03-07T13:18:31Z,391590.006,NULL,Toleranz,kuvumiliana,s,maombolezo,ujasusi,mchekeshaji,NA,sdfdsf,NA,1,NA,NA,NA,NA,NA,NA,NA,NA,NA,NA,NA,NA,NA,NA,NA,NA,NA,NA,NA
25540,deep,flow.Sequence,3_0_1_0_5_0,NA,NA,skipped,NA,391580.79999998,NA,NA,391573.34,391580.89999998,2023-03-07T13:18:31Z,391590.006,NULL,Begegnung,kukutana,s,mmasihiya,mpiganaji,husiano,NA,sdfdsf,NA,1,NA,NA,NA,NA,NA,NA,NA,NA,NA,NA,NA,NA,NA,NA,NA,NA,NA,NA,NA
25540,Shallow Question,html.Page,3_0_1_0_5_1_0,NA,NA,form submission,9508.2939999821,391581,391573.34,391590.006,401098.29999998,401098.69999999,2023-03-07T13:18:40Z,401106.555,NULL,Begegnung,kukutana,s,mmasihiya,mpiganaji,husiano,kukutana,NA,NA,1,NA,NA,NA,NA,NA,NA,NA,NA,NA,NA,NA,NA,NA,NA,NA,NA,NA,NA,NA
25540,"""Richtig""-Screen",canvas.Screen,3_0_1_0_5_1_1,NA,NA,timeout,4999.8,401101.59999999,401089.889,401106.555,406089.689,406091.5,2023-03-07T13:18:45Z,406106.355,NULL,Begegnung,kukutana,s,mmasihiya,mpiganaji,husiano,NA,sdfdsf,1,1,NA,NA,NA,NA,NA,NA,NA,NA,NA,NA,NA,NA,NA,NA,NA,NA,NA,NA,NA
25540,"""Falsch""-Screen",canvas.Screen,3_0_1_0_5_1_2,NA,NA,skipped,NA,406095.19999999,NA,NA,406089.689,406095.39999998,2023-03-07T13:18:45Z,406106.355,NULL,Begegnung,kukutana,s,mmasihiya,mpiganaji,husiano,NA,sdfdsf,NA,1,NA,NA,NA,NA,NA,NA,NA,NA,NA,NA,NA,NA,NA,NA,NA,NA,NA,NA,NA
25540,shallow,flow.Sequence,3_0_1_0_5_1,NA,NA,completion,14499.683,391581,391573.34,391590.006,406089.689,406095.5,2023-03-07T13:18:45Z,406106.355,NULL,Begegnung,kukutana,s,mmasihiya,mpiganaji,husiano,NA,sdfdsf,NA,1,NA,NA,NA,NA,NA,NA,NA,NA,NA,NA,NA,NA,NA,NA,NA,NA,NA,NA,NA
25540,task,flow.Sequence,3_0_1_0_5,NA,NA,completion,14499.683,391580.79999998,391573.34,391590.006,406089.689,406095.69999999,2023-03-07T13:18:45Z,406106.355,NULL,Begegnung,kukutana,s,mmasihiya,mpiganaji,husiano,NA,sdfdsf,NA,1,NA,NA,NA,NA,NA,NA,NA,NA,NA,NA,NA,NA,NA,NA,NA,NA,NA,NA,NA
25540,deep,flow.Sequence,3_0_1_0_6_0,NA,NA,skipped,NA,406095.79999998,NA,NA,406089.689,406095.89999998,2023-03-07T13:18:45Z,406106.355,NULL,Schlange,foleni,s,uvumilivu,uteuzi,muuzaji,NA,sdfdsf,NA,1,NA,NA,NA,NA,NA,NA,NA,NA,NA,NA,NA,NA,NA,NA,NA,NA,NA,NA,NA
25540,Shallow Question,html.Page,3_0_1_0_6_1_0,NA,NA,form submission,1684.8449999881,406096.09999999,406089.689,406106.355,407791.19999999,407791.5,2023-03-07T13:18:47Z,407806.654,NULL,Schlange,foleni,s,uvumilivu,uteuzi,muuzaji,foleni,NA,NA,1,NA,NA,NA,NA,NA,NA,NA,NA,NA,NA,NA,NA,NA,NA,NA,NA,NA,NA,NA
25540,"""Richtig""-Screen",canvas.Screen,3_0_1_0_6_1_1,NA,NA,timeout,4999.8,407792.89999998,407789.988,407806.654,412789.788,412792.5,2023-03-07T13:18:52Z,412806.454,NULL,Schlange,foleni,s,uvumilivu,uteuzi,muuzaji,NA,sdfdsf,1,1,NA,NA,NA,NA,NA,NA,NA,NA,NA,NA,NA,NA,NA,NA,NA,NA,NA,NA,NA
25540,"""Falsch""-Screen",canvas.Screen,3_0_1_0_6_1_2,NA,NA,skipped,NA,412796.39999998,NA,NA,412789.788,412796.59999999,2023-03-07T13:18:52Z,412806.454,NULL,Schlange,foleni,s,uvumilivu,uteuzi,muuzaji,NA,sdfdsf,NA,1,NA,NA,NA,NA,NA,NA,NA,NA,NA,NA,NA,NA,NA,NA,NA,NA,NA,NA,NA
25540,shallow,flow.Sequence,3_0_1_0_6_1,NA,NA,completion,6683.433,406096.09999999,406089.689,406106.355,412789.788,412796.89999998,2023-03-07T13:18:52Z,412806.454,NULL,Schlange,foleni,s,uvumilivu,uteuzi,muuzaji,NA,sdfdsf,NA,1,NA,NA,NA,NA,NA,NA,NA,NA,NA,NA,NA,NA,NA,NA,NA,NA,NA,NA,NA
25540,task,flow.Sequence,3_0_1_0_6,NA,NA,completion,6683.433,406095.79999998,406089.689,406106.355,412789.788,412797,2023-03-07T13:18:52Z,412806.454,NULL,Schlange,foleni,s,uvumilivu,uteuzi,muuzaji,NA,sdfdsf,NA,1,NA,NA,NA,NA,NA,NA,NA,NA,NA,NA,NA,NA,NA,NA,NA,NA,NA,NA,NA
25540,deep,flow.Sequence,3_0_1_0_7_0,NA,NA,skipped,NA,412797.09999999,NA,NA,412789.788,412797.19999999,2023-03-07T13:18:52Z,412806.454,NULL,Genehmigung,idhini,s,mwanamke,itikadi,fedheha,NA,sdfdsf,NA,1,NA,NA,NA,NA,NA,NA,NA,NA,NA,NA,NA,NA,NA,NA,NA,NA,NA,NA,NA
25540,Shallow Question,html.Page,3_0_1_0_7_1_0,NA,NA,form submission,4354.4459999761,412797.29999998,412789.788,412806.454,417160.89999998,417161.39999998,2023-03-07T13:18:56Z,417173.213,NULL,Genehmigung,idhini,s,mwanamke,itikadi,fedheha,fedheha,NA,NA,1,NA,NA,NA,NA,NA,NA,NA,NA,NA,NA,NA,NA,NA,NA,NA,NA,NA,NA,NA
25540,"""Richtig""-Screen",canvas.Screen,3_0_1_0_7_1_1,NA,NA,skipped,NA,417164.29999998,NA,NA,417160.89999998,417164.59999999,2023-03-07T13:18:56Z,417173.213,NULL,Genehmigung,idhini,s,mwanamke,itikadi,fedheha,NA,sdfdsf,NA,1,NA,NA,NA,NA,NA,NA,NA,NA,NA,NA,NA,NA,NA,NA,NA,NA,NA,NA,NA
25540,"""Falsch""-Screen",canvas.Screen,3_0_1_0_7_1_2,NA,NA,timeout,4999.8,417165.39999998,417156.547,417173.213,422156.347,422158.5,2023-03-07T13:19:01Z,422173.013,NULL,Genehmigung,idhini,s,mwanamke,itikadi,fedheha,NA,sdfdsf,0,1,NA,NA,NA,NA,NA,NA,NA,NA,NA,NA,NA,NA,NA,NA,NA,NA,NA,NA,NA
25540,shallow,flow.Sequence,3_0_1_0_7_1,NA,NA,completion,9349.893,412797.29999998,412789.788,412806.454,422156.347,422158.79999998,2023-03-07T13:19:01Z,422173.013,NULL,Genehmigung,idhini,s,mwanamke,itikadi,fedheha,NA,sdfdsf,NA,1,NA,NA,NA,NA,NA,NA,NA,NA,NA,NA,NA,NA,NA,NA,NA,NA,NA,NA,NA
25540,task,flow.Sequence,3_0_1_0_7,NA,NA,completion,9349.893,412797.09999999,412789.788,412806.454,422156.347,422159.09999999,2023-03-07T13:19:01Z,422173.013,NULL,Genehmigung,idhini,s,mwanamke,itikadi,fedheha,NA,sdfdsf,NA,1,NA,NA,NA,NA,NA,NA,NA,NA,NA,NA,NA,NA,NA,NA,NA,NA,NA,NA,NA
25540,block,flow.Loop,3_0_1_0,NA,NA,completion,84732.231,337409.89999998,337407.45,337424.116,422156.347,422159.29999998,2023-03-07T13:19:01Z,422173.013,NULL,NA,NA,NA,NA,NA,NA,NA,sdfdsf,NA,1,NA,NA,NA,NA,NA,NA,NA,NA,NA,NA,NA,NA,NA,NA,NA,NA,NA,NA,NA
25540,weiter,canvas.Screen,3_0_1_1,sdf,keypress(Space),response,4171.487,422159.39999998,422156.347,422173.013,426344.5,426354.5,2023-03-07T13:19:05Z,426389.511,NULL,NA,NA,NA,NA,NA,NA,NA,sdfdsf,NA,1,NA,NA,NA,NA,NA,NA,NA,NA,NA,NA,NA,NA,NA,NA,NA,NA,NA,NA,NA
25540,check continue,flow.Sequence,3_0_1,NA,NA,completion,88920.384,337409.89999998,337407.45,337424.116,426344.5,426354.79999998,2023-03-07T13:19:05Z,426389.511,NULL,NA,NA,NA,NA,NA,NA,NA,sdfdsf,NA,1,NA,NA,NA,NA,NA,NA,NA,NA,NA,NA,NA,NA,NA,NA,NA,NA,NA,NA,NA
25540,Deep Question,html.Page,3_0_2_0_0_0_0,NA,NA,form submission,6153.989,426386.89999998,426372.845,426389.511,432543.5,432543.69999999,2023-03-07T13:19:12Z,432556.195,NULL,Fleisch,mshakiki,d,NA,NA,NA,vhakiki,NA,NA,2,NA,NA,NA,NA,NA,NA,NA,NA,NA,NA,NA,NA,NA,NA,NA,NA,NA,NA,NA
25540,"""Richtig""-Screen",canvas.Screen,3_0_2_0_0_0_1,NA,NA,skipped,NA,432546.39999998,NA,NA,432543.5,432546.59999999,2023-03-07T13:19:12Z,432556.195,NULL,Fleisch,mshakiki,d,NA,NA,NA,NA,sdf,NA,2,NA,NA,NA,NA,NA,NA,NA,NA,NA,NA,NA,NA,NA,NA,NA,NA,NA,NA,NA
25540,"""Falsch""-Screen",canvas.Screen,3_0_2_0_0_0_2,NA,NA,timeout,4999.8,432547.69999999,432539.529,432556.195,437539.329,437540.79999998,2023-03-07T13:19:17Z,437555.995,NULL,Fleisch,mshakiki,d,NA,NA,NA,NA,sdf,0,2,NA,NA,NA,NA,NA,NA,NA,NA,NA,NA,NA,NA,NA,NA,NA,NA,NA,NA,NA
25540,deep,flow.Sequence,3_0_2_0_0_0,NA,NA,completion,11149.818,426386.89999998,426372.845,426389.511,437539.329,437541.19999999,2023-03-07T13:19:17Z,437555.995,NULL,Fleisch,mshakiki,d,NA,NA,NA,NA,sdf,NA,2,NA,NA,NA,NA,NA,NA,NA,NA,NA,NA,NA,NA,NA,NA,NA,NA,NA,NA,NA
25540,shallow,flow.Sequence,3_0_2_0_0_1,NA,NA,skipped,NA,437541.29999998,NA,NA,437539.329,437541.5,2023-03-07T13:19:17Z,437555.995,NULL,Fleisch,mshakiki,d,NA,NA,NA,NA,sdf,NA,2,NA,NA,NA,NA,NA,NA,NA,NA,NA,NA,NA,NA,NA,NA,NA,NA,NA,NA,NA
25540,task,flow.Sequence,3_0_2_0_0,NA,NA,completion,11149.818,426386.79999998,426372.845,426389.511,437539.329,437541.59999999,2023-03-07T13:19:17Z,437555.995,NULL,Fleisch,mshakiki,d,NA,NA,NA,NA,sdf,NA,2,NA,NA,NA,NA,NA,NA,NA,NA,NA,NA,NA,NA,NA,NA,NA,NA,NA,NA,NA
25540,deep,flow.Sequence,3_0_2_0_1_0,NA,NA,skipped,NA,437541.79999998,NA,NA,437539.329,437541.79999998,2023-03-07T13:19:17Z,437555.995,NULL,Genehmigung,idhini,s,mwanamke,itikadi,fedheha,NA,sdf,NA,2,NA,NA,NA,NA,NA,NA,NA,NA,NA,NA,NA,NA,NA,NA,NA,NA,NA,NA,NA
25540,Shallow Question,html.Page,3_0_2_0_1_1_0,NA,NA,form submission,4656.104999994,437542,437539.329,437555.995,442212.09999999,442212.5,2023-03-07T13:19:21Z,442222.767,NULL,Genehmigung,idhini,s,mwanamke,itikadi,fedheha,idhini,NA,NA,2,NA,NA,NA,NA,NA,NA,NA,NA,NA,NA,NA,NA,NA,NA,NA,NA,NA,NA,NA
25540,"""Richtig""-Screen",canvas.Screen,3_0_2_0_1_1_1,NA,NA,timeout,4999.8,442214.89999998,442206.101,442222.767,447205.901,447207.79999998,2023-03-07T13:19:26Z,447222.567,NULL,Genehmigung,idhini,s,mwanamke,itikadi,fedheha,NA,sdf,1,2,NA,NA,NA,NA,NA,NA,NA,NA,NA,NA,NA,NA,NA,NA,NA,NA,NA,NA,NA
25540,"""Falsch""-Screen",canvas.Screen,3_0_2_0_1_1_2,NA,NA,skipped,NA,447211.89999998,NA,NA,447205.901,447212.19999999,2023-03-07T13:19:26Z,447222.567,NULL,Genehmigung,idhini,s,mwanamke,itikadi,fedheha,NA,sdf,NA,2,NA,NA,NA,NA,NA,NA,NA,NA,NA,NA,NA,NA,NA,NA,NA,NA,NA,NA,NA
25540,shallow,flow.Sequence,3_0_2_0_1_1,NA,NA,completion,9649.906,437542,437539.329,437555.995,447205.901,447212.39999998,2023-03-07T13:19:26Z,447222.567,NULL,Genehmigung,idhini,s,mwanamke,itikadi,fedheha,NA,sdf,NA,2,NA,NA,NA,NA,NA,NA,NA,NA,NA,NA,NA,NA,NA,NA,NA,NA,NA,NA,NA
25540,task,flow.Sequence,3_0_2_0_1,NA,NA,completion,9649.906,437541.79999998,437539.329,437555.995,447205.901,447212.5,2023-03-07T13:19:26Z,447222.567,NULL,Genehmigung,idhini,s,mwanamke,itikadi,fedheha,NA,sdf,NA,2,NA,NA,NA,NA,NA,NA,NA,NA,NA,NA,NA,NA,NA,NA,NA,NA,NA,NA,NA
25540,Deep Question,html.Page,3_0_2_0_2_0_0,NA,NA,form submission,5749.5329999941,447212.59999999,447205.901,447222.567,452972.09999999,452972.39999998,2023-03-07T13:19:32Z,452972.608,NULL,Vermutung,udhanifu,d,NA,NA,NA,valiana,NA,NA,2,NA,NA,NA,NA,NA,NA,NA,NA,NA,NA,NA,NA,NA,NA,NA,NA,NA,NA,NA
25540,"""Richtig""-Screen",canvas.Screen,3_0_2_0_2_0_1,NA,NA,skipped,NA,452974.89999998,NA,NA,452972.09999999,452975.09999999,2023-03-07T13:19:32Z,452972.608,NULL,Vermutung,udhanifu,d,NA,NA,NA,NA,sdf,NA,2,NA,NA,NA,NA,NA,NA,NA,NA,NA,NA,NA,NA,NA,NA,NA,NA,NA,NA,NA
25540,"""Falsch""-Screen",canvas.Screen,3_0_2_0_2_0_2,NA,NA,timeout,4999.8,452975.79999998,452955.942,452972.608,457955.742,457958.19999999,2023-03-07T13:19:37Z,457972.408,NULL,Vermutung,udhanifu,d,NA,NA,NA,NA,sdf,0,2,NA,NA,NA,NA,NA,NA,NA,NA,NA,NA,NA,NA,NA,NA,NA,NA,NA,NA,NA
25540,deep,flow.Sequence,3_0_2_0_2_0,NA,NA,completion,10733.175,447212.59999999,447205.901,447222.567,457955.742,457958.69999999,2023-03-07T13:19:37Z,457972.408,NULL,Vermutung,udhanifu,d,NA,NA,NA,NA,sdf,NA,2,NA,NA,NA,NA,NA,NA,NA,NA,NA,NA,NA,NA,NA,NA,NA,NA,NA,NA,NA
25540,shallow,flow.Sequence,3_0_2_0_2_1,NA,NA,skipped,NA,457958.69999999,NA,NA,457955.742,457958.89999998,2023-03-07T13:19:37Z,457972.408,NULL,Vermutung,udhanifu,d,NA,NA,NA,NA,sdf,NA,2,NA,NA,NA,NA,NA,NA,NA,NA,NA,NA,NA,NA,NA,NA,NA,NA,NA,NA,NA
25540,task,flow.Sequence,3_0_2_0_2,NA,NA,completion,10733.175,447212.59999999,447205.901,447222.567,457955.742,457959.09999999,2023-03-07T13:19:37Z,457972.408,NULL,Vermutung,udhanifu,d,NA,NA,NA,NA,sdf,NA,2,NA,NA,NA,NA,NA,NA,NA,NA,NA,NA,NA,NA,NA,NA,NA,NA,NA,NA,NA
25540,Deep Question,html.Page,3_0_2_0_3_0_0,NA,NA,form submission,4479.7919999881,457959.29999998,457955.742,457972.408,462452.19999999,462452.59999999,2023-03-07T13:19:42Z,462455.825,NULL,Inhalt,yaliyomo,d,NA,NA,NA,de,NA,NA,2,NA,NA,NA,NA,NA,NA,NA,NA,NA,NA,NA,NA,NA,NA,NA,NA,NA,NA,NA
25540,"""Richtig""-Screen",canvas.Screen,3_0_2_0_3_0_1,NA,NA,skipped,NA,462456,NA,NA,462452.19999999,462456.09999999,2023-03-07T13:19:42Z,462455.825,NULL,Inhalt,yaliyomo,d,NA,NA,NA,NA,sdf,NA,2,NA,NA,NA,NA,NA,NA,NA,NA,NA,NA,NA,NA,NA,NA,NA,NA,NA,NA,NA
25540,"""Falsch""-Screen",canvas.Screen,3_0_2_0_3_0_2,NA,NA,timeout,4999.8,462457.09999999,462439.159,462455.825,467438.959,467440.79999998,2023-03-07T13:19:47Z,467455.625,NULL,Inhalt,yaliyomo,d,NA,NA,NA,NA,sdf,0,2,NA,NA,NA,NA,NA,NA,NA,NA,NA,NA,NA,NA,NA,NA,NA,NA,NA,NA,NA
25540,deep,flow.Sequence,3_0_2_0_3_0,NA,NA,completion,9466.551,457959.29999998,457955.742,457972.408,467438.959,467441.19999999,2023-03-07T13:19:47Z,467455.625,NULL,Inhalt,yaliyomo,d,NA,NA,NA,NA,sdf,NA,2,NA,NA,NA,NA,NA,NA,NA,NA,NA,NA,NA,NA,NA,NA,NA,NA,NA,NA,NA
25540,shallow,flow.Sequence,3_0_2_0_3_1,NA,NA,skipped,NA,467441.39999998,NA,NA,467438.959,467441.5,2023-03-07T13:19:47Z,467455.625,NULL,Inhalt,yaliyomo,d,NA,NA,NA,NA,sdf,NA,2,NA,NA,NA,NA,NA,NA,NA,NA,NA,NA,NA,NA,NA,NA,NA,NA,NA,NA,NA
25540,task,flow.Sequence,3_0_2_0_3,NA,NA,completion,9466.551,457959.19999999,457955.742,457972.408,467438.959,467441.69999999,2023-03-07T13:19:47Z,467455.625,NULL,Inhalt,yaliyomo,d,NA,NA,NA,NA,sdf,NA,2,NA,NA,NA,NA,NA,NA,NA,NA,NA,NA,NA,NA,NA,NA,NA,NA,NA,NA,NA
25540,deep,flow.Sequence,3_0_2_0_4_0,NA,NA,skipped,NA,467441.89999998,NA,NA,467438.959,467441.89999998,2023-03-07T13:19:47Z,467455.625,NULL,Schlange,foleni,s,uvumilivu,uteuzi,muuzaji,NA,sdf,NA,2,NA,NA,NA,NA,NA,NA,NA,NA,NA,NA,NA,NA,NA,NA,NA,NA,NA,NA,NA
25540,Shallow Question,html.Page,3_0_2_0_4_1_0,NA,NA,form submission,3286.474999994,467442.09999999,467438.959,467455.625,470742.09999999,470742.5,2023-03-07T13:19:50Z,470755.785,NULL,Schlange,foleni,s,uvumilivu,uteuzi,muuzaji,foleni,NA,NA,2,NA,NA,NA,NA,NA,NA,NA,NA,NA,NA,NA,NA,NA,NA,NA,NA,NA,NA,NA
25540,"""Richtig""-Screen",canvas.Screen,3_0_2_0_4_1_1,NA,NA,timeout,4999.8,470745.69999999,470739.119,470755.785,475738.919,475740.79999998,2023-03-07T13:19:55Z,475755.585,NULL,Schlange,foleni,s,uvumilivu,uteuzi,muuzaji,NA,sdf,1,2,NA,NA,NA,NA,NA,NA,NA,NA,NA,NA,NA,NA,NA,NA,NA,NA,NA,NA,NA
25540,"""Falsch""-Screen",canvas.Screen,3_0_2_0_4_1_2,NA,NA,skipped,NA,475745,NA,NA,475738.919,475745.19999999,2023-03-07T13:19:55Z,475755.585,NULL,Schlange,foleni,s,uvumilivu,uteuzi,muuzaji,NA,sdf,NA,2,NA,NA,NA,NA,NA,NA,NA,NA,NA,NA,NA,NA,NA,NA,NA,NA,NA,NA,NA
25540,shallow,flow.Sequence,3_0_2_0_4_1,NA,NA,completion,8283.294,467442,467438.959,467455.625,475738.919,475745.39999998,2023-03-07T13:19:55Z,475755.585,NULL,Schlange,foleni,s,uvumilivu,uteuzi,muuzaji,NA,sdf,NA,2,NA,NA,NA,NA,NA,NA,NA,NA,NA,NA,NA,NA,NA,NA,NA,NA,NA,NA,NA
25540,task,flow.Sequence,3_0_2_0_4,NA,NA,completion,8283.294,467441.79999998,467438.959,467455.625,475738.919,475745.5,2023-03-07T13:19:55Z,475755.585,NULL,Schlange,foleni,s,uvumilivu,uteuzi,muuzaji,NA,sdf,NA,2,NA,NA,NA,NA,NA,NA,NA,NA,NA,NA,NA,NA,NA,NA,NA,NA,NA,NA,NA
25540,Deep Question,html.Page,3_0_2_0_5_0_0,NA,NA,form submission,4115.3149999761,475745.69999999,475738.919,475755.585,479870.89999998,479871.29999998,2023-03-07T13:19:59Z,479872.353,NULL,Integrität,uadilifu,d,NA,NA,NA,valiofu,NA,NA,2,NA,NA,NA,NA,NA,NA,NA,NA,NA,NA,NA,NA,NA,NA,NA,NA,NA,NA,NA
25540,"""Richtig""-Screen",canvas.Screen,3_0_2_0_5_0_1,NA,NA,skipped,NA,479874.69999999,NA,NA,479870.89999998,479874.89999998,2023-03-07T13:19:59Z,479872.353,NULL,Integrität,uadilifu,d,NA,NA,NA,NA,sdf,NA,2,NA,NA,NA,NA,NA,NA,NA,NA,NA,NA,NA,NA,NA,NA,NA,NA,NA,NA,NA
25540,"""Falsch""-Screen",canvas.Screen,3_0_2_0_5_0_2,NA,NA,timeout,4999.8,479875.79999998,479855.687,479872.353,484855.487,484858.19999999,2023-03-07T13:20:04Z,484872.153,NULL,Integrität,uadilifu,d,NA,NA,NA,NA,sdf,0,2,NA,NA,NA,NA,NA,NA,NA,NA,NA,NA,NA,NA,NA,NA,NA,NA,NA,NA,NA
25540,deep,flow.Sequence,3_0_2_0_5_0,NA,NA,completion,9099.902,475745.59999999,475738.919,475755.585,484855.487,484858.59999999,2023-03-07T13:20:04Z,484872.153,NULL,Integrität,uadilifu,d,NA,NA,NA,NA,sdf,NA,2,NA,NA,NA,NA,NA,NA,NA,NA,NA,NA,NA,NA,NA,NA,NA,NA,NA,NA,NA
25540,shallow,flow.Sequence,3_0_2_0_5_1,NA,NA,skipped,NA,484858.79999998,NA,NA,484855.487,484858.89999998,2023-03-07T13:20:04Z,484872.153,NULL,Integrität,uadilifu,d,NA,NA,NA,NA,sdf,NA,2,NA,NA,NA,NA,NA,NA,NA,NA,NA,NA,NA,NA,NA,NA,NA,NA,NA,NA,NA
25540,task,flow.Sequence,3_0_2_0_5,NA,NA,completion,9099.902,475745.59999999,475738.919,475755.585,484855.487,484859.09999999,2023-03-07T13:20:04Z,484872.153,NULL,Integrität,uadilifu,d,NA,NA,NA,NA,sdf,NA,2,NA,NA,NA,NA,NA,NA,NA,NA,NA,NA,NA,NA,NA,NA,NA,NA,NA,NA,NA
25540,deep,flow.Sequence,3_0_2_0_6_0,NA,NA,skipped,NA,484859.29999998,NA,NA,484855.487,484859.39999998,2023-03-07T13:20:04Z,484872.153,NULL,Begegnung,kukutana,s,mmasihiya,mpiganaji,husiano,NA,sdf,NA,2,NA,NA,NA,NA,NA,NA,NA,NA,NA,NA,NA,NA,NA,NA,NA,NA,NA,NA,NA
25540,Shallow Question,html.Page,3_0_2_0_6_1_0,NA,NA,form submission,6890.0469999881,484859.59999999,484855.487,484872.153,491762.19999999,491762.5,2023-03-07T13:20:11Z,491772.143,NULL,Begegnung,kukutana,s,mmasihiya,mpiganaji,husiano,kukutana,NA,NA,2,NA,NA,NA,NA,NA,NA,NA,NA,NA,NA,NA,NA,NA,NA,NA,NA,NA,NA,NA
25540,"""Richtig""-Screen",canvas.Screen,3_0_2_0_6_1_1,NA,NA,timeout,4999.8,491765.39999998,491755.477,491772.143,496755.277,496756.29999998,2023-03-07T13:20:16Z,496771.943,NULL,Begegnung,kukutana,s,mmasihiya,mpiganaji,husiano,NA,sdf,1,2,NA,NA,NA,NA,NA,NA,NA,NA,NA,NA,NA,NA,NA,NA,NA,NA,NA,NA,NA
25540,"""Falsch""-Screen",canvas.Screen,3_0_2_0_6_1_2,NA,NA,skipped,NA,496760.19999999,NA,NA,496755.277,496760.29999998,2023-03-07T13:20:16Z,496771.943,NULL,Begegnung,kukutana,s,mmasihiya,mpiganaji,husiano,NA,sdf,NA,2,NA,NA,NA,NA,NA,NA,NA,NA,NA,NA,NA,NA,NA,NA,NA,NA,NA,NA,NA
25540,shallow,flow.Sequence,3_0_2_0_6_1,NA,NA,completion,11883.124,484859.5,484855.487,484872.153,496755.277,496760.5,2023-03-07T13:20:16Z,496771.943,NULL,Begegnung,kukutana,s,mmasihiya,mpiganaji,husiano,NA,sdf,NA,2,NA,NA,NA,NA,NA,NA,NA,NA,NA,NA,NA,NA,NA,NA,NA,NA,NA,NA,NA
25540,task,flow.Sequence,3_0_2_0_6,NA,NA,completion,11883.124,484859.29999998,484855.487,484872.153,496755.277,496760.69999999,2023-03-07T13:20:16Z,496771.943,NULL,Begegnung,kukutana,s,mmasihiya,mpiganaji,husiano,NA,sdf,NA,2,NA,NA,NA,NA,NA,NA,NA,NA,NA,NA,NA,NA,NA,NA,NA,NA,NA,NA,NA
25540,deep,flow.Sequence,3_0_2_0_7_0,NA,NA,skipped,NA,496760.79999998,NA,NA,496755.277,496760.79999998,2023-03-07T13:20:16Z,496771.943,NULL,Toleranz,kuvumiliana,s,maombolezo,ujasusi,mchekeshaji,NA,sdf,NA,2,NA,NA,NA,NA,NA,NA,NA,NA,NA,NA,NA,NA,NA,NA,NA,NA,NA,NA,NA
25540,Shallow Question,html.Page,3_0_2_0_7_1_0,NA,NA,form submission,10885.256999988,496761,496755.277,496771.943,507657.19999999,507657.59999999,2023-03-07T13:20:27Z,507671.825,NULL,Toleranz,kuvumiliana,s,maombolezo,ujasusi,mchekeshaji,kuvumiliana,NA,NA,2,NA,NA,NA,NA,NA,NA,NA,NA,NA,NA,NA,NA,NA,NA,NA,NA,NA,NA,NA
25540,"""Richtig""-Screen",canvas.Screen,3_0_2_0_7_1_1,NA,NA,timeout,4999.8,507661.69999999,507655.159,507671.825,512654.959,512656.29999998,2023-03-07T13:20:32Z,512671.625,NULL,Toleranz,kuvumiliana,s,maombolezo,ujasusi,mchekeshaji,NA,sdf,1,2,NA,NA,NA,NA,NA,NA,NA,NA,NA,NA,NA,NA,NA,NA,NA,NA,NA,NA,NA
25540,"""Falsch""-Screen",canvas.Screen,3_0_2_0_7_1_2,NA,NA,skipped,NA,512660.59999999,NA,NA,512654.959,512660.69999999,2023-03-07T13:20:32Z,512671.625,NULL,Toleranz,kuvumiliana,s,maombolezo,ujasusi,mchekeshaji,NA,sdf,NA,2,NA,NA,NA,NA,NA,NA,NA,NA,NA,NA,NA,NA,NA,NA,NA,NA,NA,NA,NA
25540,shallow,flow.Sequence,3_0_2_0_7_1,NA,NA,completion,15883.016,496761,496755.277,496771.943,512654.959,512660.89999998,2023-03-07T13:20:32Z,512671.625,NULL,Toleranz,kuvumiliana,s,maombolezo,ujasusi,mchekeshaji,NA,sdf,NA,2,NA,NA,NA,NA,NA,NA,NA,NA,NA,NA,NA,NA,NA,NA,NA,NA,NA,NA,NA
25540,task,flow.Sequence,3_0_2_0_7,NA,NA,completion,15883.016,496760.79999998,496755.277,496771.943,512654.959,512661,2023-03-07T13:20:32Z,512671.625,NULL,Toleranz,kuvumiliana,s,maombolezo,ujasusi,mchekeshaji,NA,sdf,NA,2,NA,NA,NA,NA,NA,NA,NA,NA,NA,NA,NA,NA,NA,NA,NA,NA,NA,NA,NA
25540,block,flow.Loop,3_0_2_0,NA,NA,completion,86265.448,426386.79999998,426372.845,426389.511,512654.959,512661.19999999,2023-03-07T13:20:32Z,512671.625,NULL,NA,NA,NA,NA,NA,NA,NA,sdf,NA,2,NA,NA,NA,NA,NA,NA,NA,NA,NA,NA,NA,NA,NA,NA,NA,NA,NA,NA,NA
25540,weiter,canvas.Screen,3_0_2_1,sdf,keypress(Space),response,902.57499998808,512661.29999998,512654.959,512671.625,513574.19999999,513582.39999998,2023-03-07T13:20:33Z,513605.21,NULL,NA,NA,NA,NA,NA,NA,NA,sdf,NA,2,NA,NA,NA,NA,NA,NA,NA,NA,NA,NA,NA,NA,NA,NA,NA,NA,NA,NA,NA
25540,check continue,flow.Sequence,3_0_2,NA,NA,completion,87184.688999988,426386.69999999,426372.845,426389.511,513574.19999999,513582.69999999,2023-03-07T13:20:33Z,513605.21,NULL,NA,NA,NA,NA,NA,NA,NA,sdf,NA,2,NA,NA,NA,NA,NA,NA,NA,NA,NA,NA,NA,NA,NA,NA,NA,NA,NA,NA,NA
25540,deep,flow.Sequence,3_0_3_0_0_0,NA,NA,skipped,NA,513615.59999999,NA,NA,513574.19999999,513615.69999999,2023-03-07T13:20:33Z,513605.21,NULL,Begegnung,kukutana,s,mmasihiya,mpiganaji,husiano,NA,qt,NA,3,NA,NA,NA,NA,NA,NA,NA,NA,NA,NA,NA,NA,NA,NA,NA,NA,NA,NA,NA
25540,Shallow Question,html.Page,3_0_3_0_0_1_0,NA,NA,form submission,5345.6899999761,513615.79999998,513571.878,513605.21,518950.89999998,518951.19999999,2023-03-07T13:20:38Z,518954.996,NULL,Begegnung,kukutana,s,mmasihiya,mpiganaji,husiano,kukutana,NA,NA,3,NA,NA,NA,NA,NA,NA,NA,NA,NA,NA,NA,NA,NA,NA,NA,NA,NA,NA,NA
25540,"""Richtig""-Screen",canvas.Screen,3_0_3_0_0_1_1,NA,NA,timeout,4999.8,518954.89999998,518938.33,518954.996,523938.13,523940.89999998,2023-03-07T13:20:43Z,523954.796,NULL,Begegnung,kukutana,s,mmasihiya,mpiganaji,husiano,NA,qt,1,3,NA,NA,NA,NA,NA,NA,NA,NA,NA,NA,NA,NA,NA,NA,NA,NA,NA,NA,NA
25540,"""Falsch""-Screen",canvas.Screen,3_0_3_0_0_1_2,NA,NA,skipped,NA,523945.09999999,NA,NA,523938.13,523945.29999998,2023-03-07T13:20:43Z,523954.796,NULL,Begegnung,kukutana,s,mmasihiya,mpiganaji,husiano,NA,qt,NA,3,NA,NA,NA,NA,NA,NA,NA,NA,NA,NA,NA,NA,NA,NA,NA,NA,NA,NA,NA
25540,shallow,flow.Sequence,3_0_3_0_0_1,NA,NA,completion,10332.92,513615.79999998,513571.878,513605.21,523938.13,523945.5,2023-03-07T13:20:43Z,523954.796,NULL,Begegnung,kukutana,s,mmasihiya,mpiganaji,husiano,NA,qt,NA,3,NA,NA,NA,NA,NA,NA,NA,NA,NA,NA,NA,NA,NA,NA,NA,NA,NA,NA,NA
25540,task,flow.Sequence,3_0_3_0_0,NA,NA,completion,10332.92,513615.59999999,513571.878,513605.21,523938.13,523945.59999999,2023-03-07T13:20:43Z,523954.796,NULL,Begegnung,kukutana,s,mmasihiya,mpiganaji,husiano,NA,qt,NA,3,NA,NA,NA,NA,NA,NA,NA,NA,NA,NA,NA,NA,NA,NA,NA,NA,NA,NA,NA
25540,Deep Question,html.Page,3_0_3_0_1_0_0,NA,NA,form submission,4774.5039999821,523945.79999998,523938.13,523954.796,528729.29999998,528729.59999999,2023-03-07T13:20:48Z,528738.233,NULL,Integrität,uadilifu,d,NA,NA,NA,vualifu,NA,NA,3,NA,NA,NA,NA,NA,NA,NA,NA,NA,NA,NA,NA,NA,NA,NA,NA,NA,NA,NA
25540,"""Richtig""-Screen",canvas.Screen,3_0_3_0_1_0_1,NA,NA,skipped,NA,528732.29999998,NA,NA,528729.29999998,528732.5,2023-03-07T13:20:48Z,528738.233,NULL,Integrität,uadilifu,d,NA,NA,NA,NA,qt,NA,3,NA,NA,NA,NA,NA,NA,NA,NA,NA,NA,NA,NA,NA,NA,NA,NA,NA,NA,NA
25540,"""Falsch""-Screen",canvas.Screen,3_0_3_0_1_0_2,NA,NA,timeout,4999.8,528733.69999999006,528721.567,528738.233,533721.367,533723.39999998,2023-03-07T13:20:53Z,533738.033,NULL,Integrität,uadilifu,d,NA,NA,NA,NA,qt,0,3,NA,NA,NA,NA,NA,NA,NA,NA,NA,NA,NA,NA,NA,NA,NA,NA,NA,NA,NA
25540,deep,flow.Sequence,3_0_3_0_1_0,NA,NA,completion,9766.571,523945.79999998,523938.13,523954.796,533721.367,533723.79999998,2023-03-07T13:20:53Z,533738.033,NULL,Integrität,uadilifu,d,NA,NA,NA,NA,qt,NA,3,NA,NA,NA,NA,NA,NA,NA,NA,NA,NA,NA,NA,NA,NA,NA,NA,NA,NA,NA
25540,shallow,flow.Sequence,3_0_3_0_1_1,NA,NA,skipped,NA,533723.89999998,NA,NA,533721.367,533724.09999999,2023-03-07T13:20:53Z,533738.033,NULL,Integrität,uadilifu,d,NA,NA,NA,NA,qt,NA,3,NA,NA,NA,NA,NA,NA,NA,NA,NA,NA,NA,NA,NA,NA,NA,NA,NA,NA,NA
25540,task,flow.Sequence,3_0_3_0_1,NA,NA,completion,9766.571,523945.79999998,523938.13,523954.796,533721.367,533724.29999998,2023-03-07T13:20:53Z,533738.033,NULL,Integrität,uadilifu,d,NA,NA,NA,NA,qt,NA,3,NA,NA,NA,NA,NA,NA,NA,NA,NA,NA,NA,NA,NA,NA,NA,NA,NA,NA,NA
25540,deep,flow.Sequence,3_0_3_0_2_0,NA,NA,skipped,NA,533724.5,NA,NA,533721.367,533724.59999999,2023-03-07T13:20:53Z,533738.033,NULL,Toleranz,kuvumiliana,s,maombolezo,ujasusi,mchekeshaji,NA,qt,NA,3,NA,NA,NA,NA,NA,NA,NA,NA,NA,NA,NA,NA,NA,NA,NA,NA,NA,NA,NA
25540,Shallow Question,html.Page,3_0_3_0_2_1_0,NA,NA,form submission,5725.9669999999,533724.59999999,533721.367,533738.033,539464,539464.5,2023-03-07T13:20:59Z,539471.413,NULL,Toleranz,kuvumiliana,s,maombolezo,ujasusi,mchekeshaji,kuvumiliana,NA,NA,3,NA,NA,NA,NA,NA,NA,NA,NA,NA,NA,NA,NA,NA,NA,NA,NA,NA,NA,NA
25540,"""Richtig""-Screen",canvas.Screen,3_0_3_0_2_1_1,NA,NA,timeout,4999.8,539467.5,539454.747,539471.413,544454.547,544456.29999998,2023-03-07T13:21:04Z,544471.213,NULL,Toleranz,kuvumiliana,s,maombolezo,ujasusi,mchekeshaji,NA,qt,1,3,NA,NA,NA,NA,NA,NA,NA,NA,NA,NA,NA,NA,NA,NA,NA,NA,NA,NA,NA
25540,"""Falsch""-Screen",canvas.Screen,3_0_3_0_2_1_2,NA,NA,skipped,NA,544460.59999999,NA,NA,544454.547,544460.79999998,2023-03-07T13:21:04Z,544471.213,NULL,Toleranz,kuvumiliana,s,maombolezo,ujasusi,mchekeshaji,NA,qt,NA,3,NA,NA,NA,NA,NA,NA,NA,NA,NA,NA,NA,NA,NA,NA,NA,NA,NA,NA,NA
25540,shallow,flow.Sequence,3_0_3_0_2_1,NA,NA,completion,10716.514,533724.59999999,533721.367,533738.033,544454.547,544461,2023-03-07T13:21:04Z,544471.213,NULL,Toleranz,kuvumiliana,s,maombolezo,ujasusi,mchekeshaji,NA,qt,NA,3,NA,NA,NA,NA,NA,NA,NA,NA,NA,NA,NA,NA,NA,NA,NA,NA,NA,NA,NA
25540,task,flow.Sequence,3_0_3_0_2,NA,NA,completion,10716.514,533724.39999998,533721.367,533738.033,544454.547,544461.09999999,2023-03-07T13:21:04Z,544471.213,NULL,Toleranz,kuvumiliana,s,maombolezo,ujasusi,mchekeshaji,NA,qt,NA,3,NA,NA,NA,NA,NA,NA,NA,NA,NA,NA,NA,NA,NA,NA,NA,NA,NA,NA,NA
25540,Deep Question,html.Page,3_0_3_0_3_0_0,NA,NA,form submission,10578.986999988,544461.19999999006,544454.547,544471.213,555050.19999999006,555050.59999999,2023-03-07T13:21:14Z,555054.399,NULL,Inhalt,yaliyomo,d,NA,NA,NA,lomeli,NA,NA,3,NA,NA,NA,NA,NA,NA,NA,NA,NA,NA,NA,NA,NA,NA,NA,NA,NA,NA,NA
25540,"""Richtig""-Screen",canvas.Screen,3_0_3_0_3_0_1,NA,NA,skipped,NA,555053.5,NA,NA,555050.19999999006,555053.69999999006,2023-03-07T13:21:14Z,555054.399,NULL,Inhalt,yaliyomo,d,NA,NA,NA,NA,qt,NA,3,NA,NA,NA,NA,NA,NA,NA,NA,NA,NA,NA,NA,NA,NA,NA,NA,NA,NA,NA
25540,"""Falsch""-Screen",canvas.Screen,3_0_3_0_3_0_2,NA,NA,timeout,5000.0630000001,555054.59999999,555037.733,555054.399,560037.796,560039.89999998,2023-03-07T13:21:19Z,560054.462,NULL,Inhalt,yaliyomo,d,NA,NA,NA,NA,qt,0,3,NA,NA,NA,NA,NA,NA,NA,NA,NA,NA,NA,NA,NA,NA,NA,NA,NA,NA,NA
25540,deep,flow.Sequence,3_0_3_0_3_0,NA,NA,completion,15566.583,544461.19999999006,544454.547,544471.213,560037.796,560040.09999999,2023-03-07T13:21:19Z,560054.462,NULL,Inhalt,yaliyomo,d,NA,NA,NA,NA,qt,NA,3,NA,NA,NA,NA,NA,NA,NA,NA,NA,NA,NA,NA,NA,NA,NA,NA,NA,NA,NA
25540,shallow,flow.Sequence,3_0_3_0_3_1,NA,NA,skipped,NA,560040.29999998,NA,NA,560037.796,560040.5,2023-03-07T13:21:19Z,560054.462,NULL,Inhalt,yaliyomo,d,NA,NA,NA,NA,qt,NA,3,NA,NA,NA,NA,NA,NA,NA,NA,NA,NA,NA,NA,NA,NA,NA,NA,NA,NA,NA
25540,task,flow.Sequence,3_0_3_0_3,NA,NA,completion,15566.583,544461.19999999006,544454.547,544471.213,560037.796,560040.59999999,2023-03-07T13:21:19Z,560054.462,NULL,Inhalt,yaliyomo,d,NA,NA,NA,NA,qt,NA,3,NA,NA,NA,NA,NA,NA,NA,NA,NA,NA,NA,NA,NA,NA,NA,NA,NA,NA,NA
25540,Deep Question,html.Page,3_0_3_0_4_0_0,NA,NA,form submission,12851.337999982,560040.89999998,560037.796,560054.462,572905.79999998,572906,2023-03-07T13:21:32Z,572920.88,NULL,Vermutung,udhanifu,d,NA,NA,NA,yhaomo,NA,NA,3,NA,NA,NA,NA,NA,NA,NA,NA,NA,NA,NA,NA,NA,NA,NA,NA,NA,NA,NA
25540,"""Richtig""-Screen",canvas.Screen,3_0_3_0_4_0_1,NA,NA,skipped,NA,572907.39999998,NA,NA,572905.79999998,572907.59999999,2023-03-07T13:21:32Z,572920.88,NULL,Vermutung,udhanifu,d,NA,NA,NA,NA,qt,NA,3,NA,NA,NA,NA,NA,NA,NA,NA,NA,NA,NA,NA,NA,NA,NA,NA,NA,NA,NA
25540,"""Falsch""-Screen",canvas.Screen,3_0_3_0_4_0_2,NA,NA,timeout,4999.8,572908,572904.214,572920.88,577904.014,577906.29999998,2023-03-07T13:21:37Z,577920.68,NULL,Vermutung,udhanifu,d,NA,NA,NA,NA,qt,0,3,NA,NA,NA,NA,NA,NA,NA,NA,NA,NA,NA,NA,NA,NA,NA,NA,NA,NA,NA
25540,deep,flow.Sequence,3_0_3_0_4_0,NA,NA,completion,17849.552,560040.79999998,560037.796,560054.462,577904.014,577906.69999999006,2023-03-07T13:21:37Z,577920.68,NULL,Vermutung,udhanifu,d,NA,NA,NA,NA,qt,NA,3,NA,NA,NA,NA,NA,NA,NA,NA,NA,NA,NA,NA,NA,NA,NA,NA,NA,NA,NA
25540,shallow,flow.Sequence,3_0_3_0_4_1,NA,NA,skipped,NA,577906.79999998,NA,NA,577904.014,577907,2023-03-07T13:21:37Z,577920.68,NULL,Vermutung,udhanifu,d,NA,NA,NA,NA,qt,NA,3,NA,NA,NA,NA,NA,NA,NA,NA,NA,NA,NA,NA,NA,NA,NA,NA,NA,NA,NA
25540,task,flow.Sequence,3_0_3_0_4,NA,NA,completion,17849.552,560040.79999998,560037.796,560054.462,577904.014,577907.09999999,2023-03-07T13:21:37Z,577920.68,NULL,Vermutung,udhanifu,d,NA,NA,NA,NA,qt,NA,3,NA,NA,NA,NA,NA,NA,NA,NA,NA,NA,NA,NA,NA,NA,NA,NA,NA,NA,NA
25540,deep,flow.Sequence,3_0_3_0_5_0,NA,NA,skipped,NA,577907.29999998,NA,NA,577904.014,577907.5,2023-03-07T13:21:37Z,577920.68,NULL,Genehmigung,idhini,s,mwanamke,itikadi,fedheha,NA,qt,NA,3,NA,NA,NA,NA,NA,NA,NA,NA,NA,NA,NA,NA,NA,NA,NA,NA,NA,NA,NA
25540,Shallow Question,html.Page,3_0_3_0_5_1_0,NA,NA,form submission,3147.6199999821,577907.59999999,577904.014,577920.68,581068.29999998,581068.69999999006,2023-03-07T13:21:40Z,581070.885,NULL,Genehmigung,idhini,s,mwanamke,itikadi,fedheha,idhini,NA,NA,3,NA,NA,NA,NA,NA,NA,NA,NA,NA,NA,NA,NA,NA,NA,NA,NA,NA,NA,NA
25540,"""Richtig""-Screen",canvas.Screen,3_0_3_0_5_1_1,NA,NA,timeout,4999.8,581071.5,581054.219,581070.885,586054.019,586056.39999998,2023-03-07T13:21:45Z,586070.685,NULL,Genehmigung,idhini,s,mwanamke,itikadi,fedheha,NA,qt,1,3,NA,NA,NA,NA,NA,NA,NA,NA,NA,NA,NA,NA,NA,NA,NA,NA,NA,NA,NA
25540,"""Falsch""-Screen",canvas.Screen,3_0_3_0_5_1_2,NA,NA,skipped,NA,586060.79999998,NA,NA,586054.019,586060.89999998,2023-03-07T13:21:45Z,586070.685,NULL,Genehmigung,idhini,s,mwanamke,itikadi,fedheha,NA,qt,NA,3,NA,NA,NA,NA,NA,NA,NA,NA,NA,NA,NA,NA,NA,NA,NA,NA,NA,NA,NA
25540,shallow,flow.Sequence,3_0_3_0_5_1,NA,NA,completion,8133.3389999999,577907.5,577904.014,577920.68,586054.019,586061.09999999,2023-03-07T13:21:45Z,586070.685,NULL,Genehmigung,idhini,s,mwanamke,itikadi,fedheha,NA,qt,NA,3,NA,NA,NA,NA,NA,NA,NA,NA,NA,NA,NA,NA,NA,NA,NA,NA,NA,NA,NA
25540,task,flow.Sequence,3_0_3_0_5,NA,NA,completion,8133.3389999999,577907.19999999006,577904.014,577920.68,586054.019,586061.29999998,2023-03-07T13:21:45Z,586070.685,NULL,Genehmigung,idhini,s,mwanamke,itikadi,fedheha,NA,qt,NA,3,NA,NA,NA,NA,NA,NA,NA,NA,NA,NA,NA,NA,NA,NA,NA,NA,NA,NA,NA
25540,Deep Question,html.Page,3_0_3_0_6_0_0,NA,NA,form submission,8981.3149999999,586061.39999998,586054.019,586070.685,595052,595052.39999998,2023-03-07T13:21:54Z,595053.924,NULL,Fleisch,mshakiki,d,NA,NA,NA,mshakiki,NA,NA,3,NA,NA,NA,NA,NA,NA,NA,NA,NA,NA,NA,NA,NA,NA,NA,NA,NA,NA,NA
25540,"""Richtig""-Screen",canvas.Screen,3_0_3_0_6_0_1,NA,NA,timeout,4999.8,595055.69999999006,595037.258,595053.924,600037.058,600038.09999999,2023-03-07T13:21:59Z,600053.724,NULL,Fleisch,mshakiki,d,NA,NA,NA,NA,qt,1,3,NA,NA,NA,NA,NA,NA,NA,NA,NA,NA,NA,NA,NA,NA,NA,NA,NA,NA,NA
25540,"""Falsch""-Screen",canvas.Screen,3_0_3_0_6_0_2,NA,NA,skipped,NA,600042.09999999,NA,NA,600037.058,600042.29999998,2023-03-07T13:21:59Z,600053.724,NULL,Fleisch,mshakiki,d,NA,NA,NA,NA,qt,NA,3,NA,NA,NA,NA,NA,NA,NA,NA,NA,NA,NA,NA,NA,NA,NA,NA,NA,NA,NA
25540,deep,flow.Sequence,3_0_3_0_6_0,NA,NA,completion,13966.373,586061.39999998,586054.019,586070.685,600037.058,600042.59999999,2023-03-07T13:21:59Z,600053.724,NULL,Fleisch,mshakiki,d,NA,NA,NA,NA,qt,NA,3,NA,NA,NA,NA,NA,NA,NA,NA,NA,NA,NA,NA,NA,NA,NA,NA,NA,NA,NA
25540,shallow,flow.Sequence,3_0_3_0_6_1,NA,NA,skipped,NA,600042.59999999,NA,NA,600037.058,600042.69999999006,2023-03-07T13:21:59Z,600053.724,NULL,Fleisch,mshakiki,d,NA,NA,NA,NA,qt,NA,3,NA,NA,NA,NA,NA,NA,NA,NA,NA,NA,NA,NA,NA,NA,NA,NA,NA,NA,NA
25540,task,flow.Sequence,3_0_3_0_6,NA,NA,completion,13966.373,586061.39999998,586054.019,586070.685,600037.058,600042.79999998,2023-03-07T13:21:59Z,600053.724,NULL,Fleisch,mshakiki,d,NA,NA,NA,NA,qt,NA,3,NA,NA,NA,NA,NA,NA,NA,NA,NA,NA,NA,NA,NA,NA,NA,NA,NA,NA,NA
25540,deep,flow.Sequence,3_0_3_0_7_0,NA,NA,skipped,NA,600042.89999998,NA,NA,600037.058,600043.09999999,2023-03-07T13:21:59Z,600053.724,NULL,Schlange,foleni,s,uvumilivu,uteuzi,muuzaji,NA,qt,NA,3,NA,NA,NA,NA,NA,NA,NA,NA,NA,NA,NA,NA,NA,NA,NA,NA,NA,NA,NA
25540,Shallow Question,html.Page,3_0_3_0_7_1_0,NA,NA,form submission,2981.475999988,600043.09999999,600037.058,600053.724,603035.19999999006,603035.59999999,2023-03-07T13:22:02Z,603037.252,NULL,Schlange,foleni,s,uvumilivu,uteuzi,muuzaji,foleni,NA,NA,3,NA,NA,NA,NA,NA,NA,NA,NA,NA,NA,NA,NA,NA,NA,NA,NA,NA,NA,NA
25540,"""Richtig""-Screen",canvas.Screen,3_0_3_0_7_1_1,NA,NA,timeout,4999.8,603037.09999999,603020.586,603037.252,608020.386,608022.29999998,2023-03-07T13:22:07Z,608037.052,NULL,Schlange,foleni,s,uvumilivu,uteuzi,muuzaji,NA,qt,1,3,NA,NA,NA,NA,NA,NA,NA,NA,NA,NA,NA,NA,NA,NA,NA,NA,NA,NA,NA
25540,"""Falsch""-Screen",canvas.Screen,3_0_3_0_7_1_2,NA,NA,skipped,NA,608026.5,NA,NA,608020.386,608026.69999999006,2023-03-07T13:22:07Z,608037.052,NULL,Schlange,foleni,s,uvumilivu,uteuzi,muuzaji,NA,qt,NA,3,NA,NA,NA,NA,NA,NA,NA,NA,NA,NA,NA,NA,NA,NA,NA,NA,NA,NA,NA
25540,shallow,flow.Sequence,3_0_3_0_7_1,NA,NA,completion,7966.662,600043.09999999,600037.058,600053.724,608020.386,608026.89999998,2023-03-07T13:22:07Z,608037.052,NULL,Schlange,foleni,s,uvumilivu,uteuzi,muuzaji,NA,qt,NA,3,NA,NA,NA,NA,NA,NA,NA,NA,NA,NA,NA,NA,NA,NA,NA,NA,NA,NA,NA
25540,task,flow.Sequence,3_0_3_0_7,NA,NA,completion,7966.662,600042.89999998,600037.058,600053.724,608020.386,608027,2023-03-07T13:22:07Z,608037.052,NULL,Schlange,foleni,s,uvumilivu,uteuzi,muuzaji,NA,qt,NA,3,NA,NA,NA,NA,NA,NA,NA,NA,NA,NA,NA,NA,NA,NA,NA,NA,NA,NA,NA
25540,block,flow.Loop,3_0_3_0,NA,NA,completion,94415.176,513615.59999999,513571.878,513605.21,608020.386,608027.19999999006,2023-03-07T13:22:07Z,608037.052,NULL,NA,NA,NA,NA,NA,NA,NA,qt,NA,3,NA,NA,NA,NA,NA,NA,NA,NA,NA,NA,NA,NA,NA,NA,NA,NA,NA,NA,NA
25540,weiter,canvas.Screen,3_0_3_1,sdf,keypress(Space),response,778.94799999997,608027.29999998,608020.386,608037.052,608816,608824.39999998,2023-03-07T13:22:08Z,608853.686,NULL,NA,NA,NA,NA,NA,NA,NA,qt,NA,3,NA,NA,NA,NA,NA,NA,NA,NA,NA,NA,NA,NA,NA,NA,NA,NA,NA,NA,NA
25540,check continue,flow.Sequence,3_0_3,NA,NA,completion,95210.79,513615.59999999,513571.878,513605.21,608816,608824.59999999,2023-03-07T13:22:08Z,608853.686,NULL,NA,NA,NA,NA,NA,NA,NA,qt,NA,3,NA,NA,NA,NA,NA,NA,NA,NA,NA,NA,NA,NA,NA,NA,NA,NA,NA,NA,NA
25540,deep,flow.Sequence,3_0_4_0_0_0,NA,NA,skipped,NA,608856.59999999,NA,NA,608816,608856.69999999006,2023-03-07T13:22:08Z,608853.686,NULL,Toleranz,kuvumiliana,s,maombolezo,ujasusi,mchekeshaji,NA,sd,NA,4,NA,NA,NA,NA,NA,NA,NA,NA,NA,NA,NA,NA,NA,NA,NA,NA,NA,NA,NA
25540,Shallow Question,html.Page,3_0_4_0_0_1_0,NA,NA,form submission,4092.314,608857.19999999006,608820.354,608853.686,612946,612946.39999998,2023-03-07T13:22:12Z,612953.786,NULL,Toleranz,kuvumiliana,s,maombolezo,ujasusi,mchekeshaji,kuvumiliana,NA,NA,4,NA,NA,NA,NA,NA,NA,NA,NA,NA,NA,NA,NA,NA,NA,NA,NA,NA,NA,NA
25540,"""Richtig""-Screen",canvas.Screen,3_0_4_0_0_1_1,NA,NA,timeout,4999.8,612949.29999998,612937.12,612953.786,617936.92,617938.89999998,2023-03-07T13:22:17Z,617953.586,NULL,Toleranz,kuvumiliana,s,maombolezo,ujasusi,mchekeshaji,NA,sd,1,4,NA,NA,NA,NA,NA,NA,NA,NA,NA,NA,NA,NA,NA,NA,NA,NA,NA,NA,NA
25540,"""Falsch""-Screen",canvas.Screen,3_0_4_0_0_1_2,NA,NA,skipped,NA,617943,NA,NA,617936.92,617943.19999999006,2023-03-07T13:22:17Z,617953.586,NULL,Toleranz,kuvumiliana,s,maombolezo,ujasusi,mchekeshaji,NA,sd,NA,4,NA,NA,NA,NA,NA,NA,NA,NA,NA,NA,NA,NA,NA,NA,NA,NA,NA,NA,NA
25540,shallow,flow.Sequence,3_0_4_0_0_1,NA,NA,completion,9083.2340000001,608857.19999999006,608820.354,608853.686,617936.92,617943.39999998,2023-03-07T13:22:17Z,617953.586,NULL,Toleranz,kuvumiliana,s,maombolezo,ujasusi,mchekeshaji,NA,sd,NA,4,NA,NA,NA,NA,NA,NA,NA,NA,NA,NA,NA,NA,NA,NA,NA,NA,NA,NA,NA
25540,task,flow.Sequence,3_0_4_0_0,NA,NA,completion,9083.2340000001,608856.59999999,608820.354,608853.686,617936.92,617943.5,2023-03-07T13:22:17Z,617953.586,NULL,Toleranz,kuvumiliana,s,maombolezo,ujasusi,mchekeshaji,NA,sd,NA,4,NA,NA,NA,NA,NA,NA,NA,NA,NA,NA,NA,NA,NA,NA,NA,NA,NA,NA,NA
25540,Deep Question,html.Page,3_0_4_0_1_0_0,NA,NA,form submission,7310.513999994,617943.59999999,617936.92,617953.586,625264.09999999,625264.59999999,2023-03-07T13:22:24Z,625270.225,NULL,Integrität,uadilifu,d,NA,NA,NA,ufalombo,NA,NA,4,NA,NA,NA,NA,NA,NA,NA,NA,NA,NA,NA,NA,NA,NA,NA,NA,NA,NA,NA
25540,"""Richtig""-Screen",canvas.Screen,3_0_4_0_1_0_1,NA,NA,skipped,NA,625267.69999999006,NA,NA,625264.09999999,625268,2023-03-07T13:22:24Z,625270.225,NULL,Integrität,uadilifu,d,NA,NA,NA,NA,sd,NA,4,NA,NA,NA,NA,NA,NA,NA,NA,NA,NA,NA,NA,NA,NA,NA,NA,NA,NA,NA
25540,"""Falsch""-Screen",canvas.Screen,3_0_4_0_1_0_2,NA,NA,timeout,4999.8,625268.79999998,625253.559,625270.225,630253.359,630255.59999999,2023-03-07T13:22:29Z,630270.025,NULL,Integrität,uadilifu,d,NA,NA,NA,NA,sd,0,4,NA,NA,NA,NA,NA,NA,NA,NA,NA,NA,NA,NA,NA,NA,NA,NA,NA,NA,NA
25540,deep,flow.Sequence,3_0_4_0_1_0,NA,NA,completion,12299.773,617943.59999999,617936.92,617953.586,630253.359,630256.09999999,2023-03-07T13:22:29Z,630270.025,NULL,Integrität,uadilifu,d,NA,NA,NA,NA,sd,NA,4,NA,NA,NA,NA,NA,NA,NA,NA,NA,NA,NA,NA,NA,NA,NA,NA,NA,NA,NA
25540,shallow,flow.Sequence,3_0_4_0_1_1,NA,NA,skipped,NA,630256.09999999,NA,NA,630253.359,630256.29999998,2023-03-07T13:22:29Z,630270.025,NULL,Integrität,uadilifu,d,NA,NA,NA,NA,sd,NA,4,NA,NA,NA,NA,NA,NA,NA,NA,NA,NA,NA,NA,NA,NA,NA,NA,NA,NA,NA
25540,task,flow.Sequence,3_0_4_0_1,NA,NA,completion,12299.773,617943.59999999,617936.92,617953.586,630253.359,630256.5,2023-03-07T13:22:29Z,630270.025,NULL,Integrität,uadilifu,d,NA,NA,NA,NA,sd,NA,4,NA,NA,NA,NA,NA,NA,NA,NA,NA,NA,NA,NA,NA,NA,NA,NA,NA,NA,NA
25540,deep,flow.Sequence,3_0_4_0_2_0,NA,NA,skipped,NA,630256.69999999006,NA,NA,630253.359,630256.79999998,2023-03-07T13:22:29Z,630270.025,NULL,Begegnung,kukutana,s,mmasihiya,mpiganaji,husiano,NA,sd,NA,4,NA,NA,NA,NA,NA,NA,NA,NA,NA,NA,NA,NA,NA,NA,NA,NA,NA,NA,NA
25540,Shallow Question,html.Page,3_0_4_0_2_1_0,NA,NA,form submission,2900.6749999881,630256.89999998,630253.359,630270.025,633170.69999999006,633171,2023-03-07T13:22:32Z,633186.575,NULL,Begegnung,kukutana,s,mmasihiya,mpiganaji,husiano,kukutana,NA,NA,4,NA,NA,NA,NA,NA,NA,NA,NA,NA,NA,NA,NA,NA,NA,NA,NA,NA,NA,NA
25540,"""Richtig""-Screen",canvas.Screen,3_0_4_0_2_1_1,NA,NA,timeout,4999.8,633173.89999998,633169.909,633186.575,638169.709,638171.89999998,2023-03-07T13:22:37Z,638186.375,NULL,Begegnung,kukutana,s,mmasihiya,mpiganaji,husiano,NA,sd,1,4,NA,NA,NA,NA,NA,NA,NA,NA,NA,NA,NA,NA,NA,NA,NA,NA,NA,NA,NA
25540,"""Falsch""-Screen",canvas.Screen,3_0_4_0_2_1_2,NA,NA,skipped,NA,638176.09999999,NA,NA,638169.709,638176.29999998,2023-03-07T13:22:37Z,638186.375,NULL,Begegnung,kukutana,s,mmasihiya,mpiganaji,husiano,NA,sd,NA,4,NA,NA,NA,NA,NA,NA,NA,NA,NA,NA,NA,NA,NA,NA,NA,NA,NA,NA,NA
25540,shallow,flow.Sequence,3_0_4_0_2_1,NA,NA,completion,7899.684,630256.89999998,630253.359,630270.025,638169.709,638176.5,2023-03-07T13:22:37Z,638186.375,NULL,Begegnung,kukutana,s,mmasihiya,mpiganaji,husiano,NA,sd,NA,4,NA,NA,NA,NA,NA,NA,NA,NA,NA,NA,NA,NA,NA,NA,NA,NA,NA,NA,NA
25540,task,flow.Sequence,3_0_4_0_2,NA,NA,completion,7899.684,630256.59999999,630253.359,630270.025,638169.709,638176.59999999,2023-03-07T13:22:37Z,638186.375,NULL,Begegnung,kukutana,s,mmasihiya,mpiganaji,husiano,NA,sd,NA,4,NA,NA,NA,NA,NA,NA,NA,NA,NA,NA,NA,NA,NA,NA,NA,NA,NA,NA,NA
25540,deep,flow.Sequence,3_0_4_0_3_0,NA,NA,skipped,NA,638176.69999999006,NA,NA,638169.709,638176.79999998,2023-03-07T13:22:37Z,638186.375,NULL,Schlange,foleni,s,uvumilivu,uteuzi,muuzaji,NA,sd,NA,4,NA,NA,NA,NA,NA,NA,NA,NA,NA,NA,NA,NA,NA,NA,NA,NA,NA,NA,NA
25540,Shallow Question,html.Page,3_0_4_0_3_1_0,NA,NA,form submission,2249.3249999881,638177,638169.709,638186.375,640435.69999999006,640436,2023-03-07T13:22:40Z,640436.285,NULL,Schlange,foleni,s,uvumilivu,uteuzi,muuzaji,foleni,NA,NA,4,NA,NA,NA,NA,NA,NA,NA,NA,NA,NA,NA,NA,NA,NA,NA,NA,NA,NA,NA
25540,"""Richtig""-Screen",canvas.Screen,3_0_4_0_3_1_1,NA,NA,timeout,5000.328,640437,640419.619,640436.285,645419.947,645421.69999999006,2023-03-07T13:22:45Z,645436.613,NULL,Schlange,foleni,s,uvumilivu,uteuzi,muuzaji,NA,sd,1,4,NA,NA,NA,NA,NA,NA,NA,NA,NA,NA,NA,NA,NA,NA,NA,NA,NA,NA,NA
25540,"""Falsch""-Screen",canvas.Screen,3_0_4_0_3_1_2,NA,NA,skipped,NA,645425.59999999,NA,NA,645419.947,645425.79999998,2023-03-07T13:22:45Z,645436.613,NULL,Schlange,foleni,s,uvumilivu,uteuzi,muuzaji,NA,sd,NA,4,NA,NA,NA,NA,NA,NA,NA,NA,NA,NA,NA,NA,NA,NA,NA,NA,NA,NA,NA
25540,shallow,flow.Sequence,3_0_4_0_3_1,NA,NA,completion,7233.572,638176.89999998,638169.709,638186.375,645419.947,645426,2023-03-07T13:22:45Z,645436.613,NULL,Schlange,foleni,s,uvumilivu,uteuzi,muuzaji,NA,sd,NA,4,NA,NA,NA,NA,NA,NA,NA,NA,NA,NA,NA,NA,NA,NA,NA,NA,NA,NA,NA
25540,task,flow.Sequence,3_0_4_0_3,NA,NA,completion,7233.572,638176.69999999006,638169.709,638186.375,645419.947,645426.09999999,2023-03-07T13:22:45Z,645436.613,NULL,Schlange,foleni,s,uvumilivu,uteuzi,muuzaji,NA,sd,NA,4,NA,NA,NA,NA,NA,NA,NA,NA,NA,NA,NA,NA,NA,NA,NA,NA,NA,NA,NA
25540,Deep Question,html.Page,3_0_4_0_4_0_0,NA,NA,form submission,4903.6869999821,645426.29999998,645419.947,645436.613,650340.29999998,650340.69999999006,2023-03-07T13:22:49Z,650353.083,NULL,Inhalt,yaliyomo,d,NA,NA,NA,yhaomo,NA,NA,4,NA,NA,NA,NA,NA,NA,NA,NA,NA,NA,NA,NA,NA,NA,NA,NA,NA,NA,NA
25540,"""Richtig""-Screen",canvas.Screen,3_0_4_0_4_0_1,NA,NA,skipped,NA,650344.39999998,NA,NA,650340.29999998,650344.59999999,2023-03-07T13:22:49Z,650353.083,NULL,Inhalt,yaliyomo,d,NA,NA,NA,NA,sd,NA,4,NA,NA,NA,NA,NA,NA,NA,NA,NA,NA,NA,NA,NA,NA,NA,NA,NA,NA,NA
25540,"""Falsch""-Screen",canvas.Screen,3_0_4_0_4_0_2,NA,NA,timeout,4999.8,650345.69999999006,650336.417,650353.083,655336.217,655338.29999998,2023-03-07T13:22:54Z,655352.883,NULL,Inhalt,yaliyomo,d,NA,NA,NA,NA,sd,0,4,NA,NA,NA,NA,NA,NA,NA,NA,NA,NA,NA,NA,NA,NA,NA,NA,NA,NA,NA
25540,deep,flow.Sequence,3_0_4_0_4_0,NA,NA,completion,9899.6039999999,645426.29999998,645419.947,645436.613,655336.217,655338.69999999006,2023-03-07T13:22:54Z,655352.883,NULL,Inhalt,yaliyomo,d,NA,NA,NA,NA,sd,NA,4,NA,NA,NA,NA,NA,NA,NA,NA,NA,NA,NA,NA,NA,NA,NA,NA,NA,NA,NA
25540,shallow,flow.Sequence,3_0_4_0_4_1,NA,NA,skipped,NA,655338.89999998,NA,NA,655336.217,655339,2023-03-07T13:22:54Z,655352.883,NULL,Inhalt,yaliyomo,d,NA,NA,NA,NA,sd,NA,4,NA,NA,NA,NA,NA,NA,NA,NA,NA,NA,NA,NA,NA,NA,NA,NA,NA,NA,NA
25540,task,flow.Sequence,3_0_4_0_4,NA,NA,completion,9899.6039999999,645426.29999998,645419.947,645436.613,655336.217,655339.29999998,2023-03-07T13:22:54Z,655352.883,NULL,Inhalt,yaliyomo,d,NA,NA,NA,NA,sd,NA,4,NA,NA,NA,NA,NA,NA,NA,NA,NA,NA,NA,NA,NA,NA,NA,NA,NA,NA,NA
25540,Deep Question,html.Page,3_0_4_0_5_0_0,NA,NA,form submission,8068.9169999821,655339.5,655336.217,655352.883,663421.79999998,663422.19999999006,2023-03-07T13:23:03Z,663436.282,NULL,Vermutung,udhanifu,d,NA,NA,NA,ujyombo,NA,NA,4,NA,NA,NA,NA,NA,NA,NA,NA,NA,NA,NA,NA,NA,NA,NA,NA,NA,NA,NA
25540,"""Richtig""-Screen",canvas.Screen,3_0_4_0_5_0_1,NA,NA,skipped,NA,663425.59999999,NA,NA,663421.79999998,663425.69999999006,2023-03-07T13:23:03Z,663436.282,NULL,Vermutung,udhanifu,d,NA,NA,NA,NA,sd,NA,4,NA,NA,NA,NA,NA,NA,NA,NA,NA,NA,NA,NA,NA,NA,NA,NA,NA,NA,NA
25540,"""Falsch""-Screen",canvas.Screen,3_0_4_0_5_0_2,NA,NA,timeout,4999.8,663426.79999998,663419.616,663436.282,668419.416,668421.59999999,2023-03-07T13:23:08Z,668436.082,NULL,Vermutung,udhanifu,d,NA,NA,NA,NA,sd,0,4,NA,NA,NA,NA,NA,NA,NA,NA,NA,NA,NA,NA,NA,NA,NA,NA,NA,NA,NA
25540,deep,flow.Sequence,3_0_4_0_5_0,NA,NA,completion,13066.533,655339.39999998,655336.217,655352.883,668419.416,668422,2023-03-07T13:23:08Z,668436.082,NULL,Vermutung,udhanifu,d,NA,NA,NA,NA,sd,NA,4,NA,NA,NA,NA,NA,NA,NA,NA,NA,NA,NA,NA,NA,NA,NA,NA,NA,NA,NA
25540,shallow,flow.Sequence,3_0_4_0_5_1,NA,NA,skipped,NA,668422.09999999,NA,NA,668419.416,668422.19999999006,2023-03-07T13:23:08Z,668436.082,NULL,Vermutung,udhanifu,d,NA,NA,NA,NA,sd,NA,4,NA,NA,NA,NA,NA,NA,NA,NA,NA,NA,NA,NA,NA,NA,NA,NA,NA,NA,NA
25540,task,flow.Sequence,3_0_4_0_5,NA,NA,completion,13066.533,655339.29999998,655336.217,655352.883,668419.416,668422.5,2023-03-07T13:23:08Z,668436.082,NULL,Vermutung,udhanifu,d,NA,NA,NA,NA,sd,NA,4,NA,NA,NA,NA,NA,NA,NA,NA,NA,NA,NA,NA,NA,NA,NA,NA,NA,NA,NA
25540,deep,flow.Sequence,3_0_4_0_6_0,NA,NA,skipped,NA,668422.59999999,NA,NA,668419.416,668422.69999999006,2023-03-07T13:23:08Z,668436.082,NULL,Genehmigung,idhini,s,mwanamke,itikadi,fedheha,NA,sd,NA,4,NA,NA,NA,NA,NA,NA,NA,NA,NA,NA,NA,NA,NA,NA,NA,NA,NA,NA,NA
25540,Shallow Question,html.Page,3_0_4_0_6_1_0,NA,NA,form submission,2228.617999988,668422.89999998,668419.416,668436.082,670664.69999999006,670665,2023-03-07T13:23:10Z,670669.669,NULL,Genehmigung,idhini,s,mwanamke,itikadi,fedheha,idhini,NA,NA,4,NA,NA,NA,NA,NA,NA,NA,NA,NA,NA,NA,NA,NA,NA,NA,NA,NA,NA,NA
25540,"""Richtig""-Screen",canvas.Screen,3_0_4_0_6_1_1,NA,NA,timeout,4999.8,670667.79999998,670653.003,670669.669,675652.803,675654.09999999,2023-03-07T13:23:15Z,675669.469,NULL,Genehmigung,idhini,s,mwanamke,itikadi,fedheha,NA,sd,1,4,NA,NA,NA,NA,NA,NA,NA,NA,NA,NA,NA,NA,NA,NA,NA,NA,NA,NA,NA
25540,"""Falsch""-Screen",canvas.Screen,3_0_4_0_6_1_2,NA,NA,skipped,NA,675658,NA,NA,675652.803,675658.29999998,2023-03-07T13:23:15Z,675669.469,NULL,Genehmigung,idhini,s,mwanamke,itikadi,fedheha,NA,sd,NA,4,NA,NA,NA,NA,NA,NA,NA,NA,NA,NA,NA,NA,NA,NA,NA,NA,NA,NA,NA
25540,shallow,flow.Sequence,3_0_4_0_6_1,NA,NA,completion,7216.7209999999,668422.79999998,668419.416,668436.082,675652.803,675658.5,2023-03-07T13:23:15Z,675669.469,NULL,Genehmigung,idhini,s,mwanamke,itikadi,fedheha,NA,sd,NA,4,NA,NA,NA,NA,NA,NA,NA,NA,NA,NA,NA,NA,NA,NA,NA,NA,NA,NA,NA
25540,task,flow.Sequence,3_0_4_0_6,NA,NA,completion,7216.7209999999,668422.5,668419.416,668436.082,675652.803,675658.69999999006,2023-03-07T13:23:15Z,675669.469,NULL,Genehmigung,idhini,s,mwanamke,itikadi,fedheha,NA,sd,NA,4,NA,NA,NA,NA,NA,NA,NA,NA,NA,NA,NA,NA,NA,NA,NA,NA,NA,NA,NA
25540,Deep Question,html.Page,3_0_4_0_7_0_0,NA,NA,form submission,4121.130999994,675658.69999999006,675652.803,675669.469,679790.59999999,679790.89999998,2023-03-07T13:23:19Z,679802.903,NULL,Fleisch,mshakiki,d,NA,NA,NA,mshakiki,NA,NA,4,NA,NA,NA,NA,NA,NA,NA,NA,NA,NA,NA,NA,NA,NA,NA,NA,NA,NA,NA
25540,"""Richtig""-Screen",canvas.Screen,3_0_4_0_7_0_1,NA,NA,timeout,4999.7999999999,679794,679786.237,679802.903,684786.037,684788,2023-03-07T13:23:24Z,684802.703,NULL,Fleisch,mshakiki,d,NA,NA,NA,NA,sd,1,4,NA,NA,NA,NA,NA,NA,NA,NA,NA,NA,NA,NA,NA,NA,NA,NA,NA,NA,NA
25540,"""Falsch""-Screen",canvas.Screen,3_0_4_0_7_0_2,NA,NA,skipped,NA,684792.09999999,NA,NA,684786.037,684792.19999999006,2023-03-07T13:23:24Z,684802.703,NULL,Fleisch,mshakiki,d,NA,NA,NA,NA,sd,NA,4,NA,NA,NA,NA,NA,NA,NA,NA,NA,NA,NA,NA,NA,NA,NA,NA,NA,NA,NA
25540,deep,flow.Sequence,3_0_4_0_7_0,NA,NA,completion,9116.568,675658.69999999006,675652.803,675669.469,684786.037,684792.5,2023-03-07T13:23:24Z,684802.703,NULL,Fleisch,mshakiki,d,NA,NA,NA,NA,sd,NA,4,NA,NA,NA,NA,NA,NA,NA,NA,NA,NA,NA,NA,NA,NA,NA,NA,NA,NA,NA
25540,shallow,flow.Sequence,3_0_4_0_7_1,NA,NA,skipped,NA,684792.5,NA,NA,684786.037,684792.59999999,2023-03-07T13:23:24Z,684802.703,NULL,Fleisch,mshakiki,d,NA,NA,NA,NA,sd,NA,4,NA,NA,NA,NA,NA,NA,NA,NA,NA,NA,NA,NA,NA,NA,NA,NA,NA,NA,NA
25540,task,flow.Sequence,3_0_4_0_7,NA,NA,completion,9116.568,675658.69999999006,675652.803,675669.469,684786.037,684792.69999999006,2023-03-07T13:23:24Z,684802.703,NULL,Fleisch,mshakiki,d,NA,NA,NA,NA,sd,NA,4,NA,NA,NA,NA,NA,NA,NA,NA,NA,NA,NA,NA,NA,NA,NA,NA,NA,NA,NA
25540,block,flow.Loop,3_0_4_0,NA,NA,completion,75932.351,608856.59999999,608820.354,608853.686,684786.037,684792.79999998,2023-03-07T13:23:24Z,684802.703,NULL,NA,NA,NA,NA,NA,NA,NA,sd,NA,4,NA,NA,NA,NA,NA,NA,NA,NA,NA,NA,NA,NA,NA,NA,NA,NA,NA,NA,NA
25540,weiter,canvas.Screen,3_0_4_1,sdf,keypress(Space),response,730.29700000002,684792.89999998,684786.037,684802.703,685533,685541.59999999,2023-03-07T13:23:25Z,685586.005,NULL,NA,NA,NA,NA,NA,NA,NA,sd,NA,4,NA,NA,NA,NA,NA,NA,NA,NA,NA,NA,NA,NA,NA,NA,NA,NA,NA,NA,NA
25540,check continue,flow.Sequence,3_0_4,NA,NA,completion,76679.314,608856.59999999,608820.354,608853.686,685533,685541.79999998,2023-03-07T13:23:25Z,685586.005,NULL,NA,NA,NA,NA,NA,NA,NA,sd,NA,4,NA,NA,NA,NA,NA,NA,NA,NA,NA,NA,NA,NA,NA,NA,NA,NA,NA,NA,NA
25540,Deep Question,html.Page,3_0_5_0_0_0_0,NA,NA,form submission,8331.3949999762,685575.09999999,685569.339,685586.005,693917.39999998,693917.79999998,2023-03-07T13:23:33Z,693919.274,NULL,Integrität,uadilifu,d,NA,NA,NA,uidhana,NA,NA,5,NA,NA,NA,NA,NA,NA,NA,NA,NA,NA,NA,NA,NA,NA,NA,NA,NA,NA,NA
25540,"""Richtig""-Screen",canvas.Screen,3_0_5_0_0_0_1,NA,NA,skipped,NA,693921.59999999,NA,NA,693917.39999998,693921.79999998,2023-03-07T13:23:33Z,693919.274,NULL,Integrität,uadilifu,d,NA,NA,NA,NA,sdf,NA,5,NA,NA,NA,NA,NA,NA,NA,NA,NA,NA,NA,NA,NA,NA,NA,NA,NA,NA,NA
25540,"""Falsch""-Screen",canvas.Screen,3_0_5_0_0_0_2,NA,NA,timeout,4999.8,693922.79999998,693902.608,693919.274,698902.408,698904.79999998,2023-03-07T13:23:38Z,698919.074,NULL,Integrität,uadilifu,d,NA,NA,NA,NA,sdf,0,5,NA,NA,NA,NA,NA,NA,NA,NA,NA,NA,NA,NA,NA,NA,NA,NA,NA,NA,NA
25540,deep,flow.Sequence,3_0_5_0_0_0,NA,NA,completion,13316.403,685575.09999999,685569.339,685586.005,698902.408,698905.09999999,2023-03-07T13:23:38Z,698919.074,NULL,Integrität,uadilifu,d,NA,NA,NA,NA,sdf,NA,5,NA,NA,NA,NA,NA,NA,NA,NA,NA,NA,NA,NA,NA,NA,NA,NA,NA,NA,NA
25540,shallow,flow.Sequence,3_0_5_0_0_1,NA,NA,skipped,NA,698905.09999999,NA,NA,698902.408,698905.29999998,2023-03-07T13:23:38Z,698919.074,NULL,Integrität,uadilifu,d,NA,NA,NA,NA,sdf,NA,5,NA,NA,NA,NA,NA,NA,NA,NA,NA,NA,NA,NA,NA,NA,NA,NA,NA,NA,NA
25540,task,flow.Sequence,3_0_5_0_0,NA,NA,completion,13316.403,685575.09999999,685569.339,685586.005,698902.408,698905.5,2023-03-07T13:23:38Z,698919.074,NULL,Integrität,uadilifu,d,NA,NA,NA,NA,sdf,NA,5,NA,NA,NA,NA,NA,NA,NA,NA,NA,NA,NA,NA,NA,NA,NA,NA,NA,NA,NA
25540,deep,flow.Sequence,3_0_5_0_1_0,NA,NA,skipped,NA,698905.69999999006,NA,NA,698902.408,698905.79999998,2023-03-07T13:23:38Z,698919.074,NULL,Toleranz,kuvumiliana,s,maombolezo,ujasusi,mchekeshaji,NA,sdf,NA,5,NA,NA,NA,NA,NA,NA,NA,NA,NA,NA,NA,NA,NA,NA,NA,NA,NA,NA,NA
25540,Shallow Question,html.Page,3_0_5_0_1_1_0,NA,NA,form submission,4271.8259999761,698905.89999998,698902.408,698919.074,703190.89999998,703191.19999999006,2023-03-07T13:23:42Z,703202.499,NULL,Toleranz,kuvumiliana,s,maombolezo,ujasusi,mchekeshaji,kuvumiliana,NA,NA,5,NA,NA,NA,NA,NA,NA,NA,NA,NA,NA,NA,NA,NA,NA,NA,NA,NA,NA,NA
25540,"""Richtig""-Screen",canvas.Screen,3_0_5_0_1_1_1,NA,NA,timeout,4999.8,703194,703185.833,703202.499,708185.633,708187.39999998,2023-03-07T13:23:47Z,708202.299,NULL,Toleranz,kuvumiliana,s,maombolezo,ujasusi,mchekeshaji,NA,sdf,1,5,NA,NA,NA,NA,NA,NA,NA,NA,NA,NA,NA,NA,NA,NA,NA,NA,NA,NA,NA
25540,"""Falsch""-Screen",canvas.Screen,3_0_5_0_1_1_2,NA,NA,skipped,NA,708191.29999998,NA,NA,708185.633,708191.59999999,2023-03-07T13:23:47Z,708202.299,NULL,Toleranz,kuvumiliana,s,maombolezo,ujasusi,mchekeshaji,NA,sdf,NA,5,NA,NA,NA,NA,NA,NA,NA,NA,NA,NA,NA,NA,NA,NA,NA,NA,NA,NA,NA
25540,shallow,flow.Sequence,3_0_5_0_1_1,NA,NA,completion,9266.559,698905.89999998,698902.408,698919.074,708185.633,708191.79999998,2023-03-07T13:23:47Z,708202.299,NULL,Toleranz,kuvumiliana,s,maombolezo,ujasusi,mchekeshaji,NA,sdf,NA,5,NA,NA,NA,NA,NA,NA,NA,NA,NA,NA,NA,NA,NA,NA,NA,NA,NA,NA,NA
25540,task,flow.Sequence,3_0_5_0_1,NA,NA,completion,9266.559,698905.59999999,698902.408,698919.074,708185.633,708191.89999998,2023-03-07T13:23:47Z,708202.299,NULL,Toleranz,kuvumiliana,s,maombolezo,ujasusi,mchekeshaji,NA,sdf,NA,5,NA,NA,NA,NA,NA,NA,NA,NA,NA,NA,NA,NA,NA,NA,NA,NA,NA,NA,NA
25540,Deep Question,html.Page,3_0_5_0_2_0_0,NA,NA,form submission,6749.800999994,708192.09999999,708185.633,708202.299,714952.09999999,714952.5,2023-03-07T13:23:54Z,714952.308,NULL,Inhalt,yaliyomo,d,NA,NA,NA,uyaomo,NA,NA,5,NA,NA,NA,NA,NA,NA,NA,NA,NA,NA,NA,NA,NA,NA,NA,NA,NA,NA,NA
25540,"""Richtig""-Screen",canvas.Screen,3_0_5_0_2_0_1,NA,NA,skipped,NA,714955.39999998,NA,NA,714952.09999999,714955.59999999,2023-03-07T13:23:54Z,714952.308,NULL,Inhalt,yaliyomo,d,NA,NA,NA,NA,sdf,NA,5,NA,NA,NA,NA,NA,NA,NA,NA,NA,NA,NA,NA,NA,NA,NA,NA,NA,NA,NA
25540,"""Falsch""-Screen",canvas.Screen,3_0_5_0_2_0_2,NA,NA,timeout,4999.8,714956.5,714935.642,714952.308,719935.442,719937.69999999006,2023-03-07T13:23:59Z,719952.108,NULL,Inhalt,yaliyomo,d,NA,NA,NA,NA,sdf,0,5,NA,NA,NA,NA,NA,NA,NA,NA,NA,NA,NA,NA,NA,NA,NA,NA,NA,NA,NA
25540,deep,flow.Sequence,3_0_5_0_2_0,NA,NA,completion,11733.143,708192,708185.633,708202.299,719935.442,719938.09999999,2023-03-07T13:23:59Z,719952.108,NULL,Inhalt,yaliyomo,d,NA,NA,NA,NA,sdf,NA,5,NA,NA,NA,NA,NA,NA,NA,NA,NA,NA,NA,NA,NA,NA,NA,NA,NA,NA,NA
25540,shallow,flow.Sequence,3_0_5_0_2_1,NA,NA,skipped,NA,719938.19999999006,NA,NA,719935.442,719938.39999998,2023-03-07T13:23:59Z,719952.108,NULL,Inhalt,yaliyomo,d,NA,NA,NA,NA,sdf,NA,5,NA,NA,NA,NA,NA,NA,NA,NA,NA,NA,NA,NA,NA,NA,NA,NA,NA,NA,NA
25540,task,flow.Sequence,3_0_5_0_2,NA,NA,completion,11733.143,708192,708185.633,708202.299,719935.442,719938.5,2023-03-07T13:23:59Z,719952.108,NULL,Inhalt,yaliyomo,d,NA,NA,NA,NA,sdf,NA,5,NA,NA,NA,NA,NA,NA,NA,NA,NA,NA,NA,NA,NA,NA,NA,NA,NA,NA,NA
25540,deep,flow.Sequence,3_0_5_0_3_0,NA,NA,skipped,NA,719938.79999998,NA,NA,719935.442,719938.79999998,2023-03-07T13:23:59Z,719952.108,NULL,Schlange,foleni,s,uvumilivu,uteuzi,muuzaji,NA,sdf,NA,5,NA,NA,NA,NA,NA,NA,NA,NA,NA,NA,NA,NA,NA,NA,NA,NA,NA,NA,NA
25540,Shallow Question,html.Page,3_0_5_0_3_1_0,NA,NA,form submission,2054.892,719939,719935.442,719952.108,722007,722007.39999998,2023-03-07T13:24:01Z,722018.962,NULL,Schlange,foleni,s,uvumilivu,uteuzi,muuzaji,foleni,NA,NA,5,NA,NA,NA,NA,NA,NA,NA,NA,NA,NA,NA,NA,NA,NA,NA,NA,NA,NA,NA
25540,"""Richtig""-Screen",canvas.Screen,3_0_5_0_3_1_1,NA,NA,timeout,4999.7999999999,722010.39999998,722002.296,722018.962,727002.096,727003.5,2023-03-07T13:24:06Z,727018.762,NULL,Schlange,foleni,s,uvumilivu,uteuzi,muuzaji,NA,sdf,1,5,NA,NA,NA,NA,NA,NA,NA,NA,NA,NA,NA,NA,NA,NA,NA,NA,NA,NA,NA
25540,"""Falsch""-Screen",canvas.Screen,3_0_5_0_3_1_2,NA,NA,skipped,NA,727007.5,NA,NA,727002.096,727007.69999999006,2023-03-07T13:24:06Z,727018.762,NULL,Schlange,foleni,s,uvumilivu,uteuzi,muuzaji,NA,sdf,NA,5,NA,NA,NA,NA,NA,NA,NA,NA,NA,NA,NA,NA,NA,NA,NA,NA,NA,NA,NA
25540,shallow,flow.Sequence,3_0_5_0_3_1,NA,NA,completion,7049.988,719939,719935.442,719952.108,727002.096,727007.89999998,2023-03-07T13:24:06Z,727018.762,NULL,Schlange,foleni,s,uvumilivu,uteuzi,muuzaji,NA,sdf,NA,5,NA,NA,NA,NA,NA,NA,NA,NA,NA,NA,NA,NA,NA,NA,NA,NA,NA,NA,NA
25540,task,flow.Sequence,3_0_5_0_3,NA,NA,completion,7049.988,719938.69999999006,719935.442,719952.108,727002.096,727008,2023-03-07T13:24:06Z,727018.762,NULL,Schlange,foleni,s,uvumilivu,uteuzi,muuzaji,NA,sdf,NA,5,NA,NA,NA,NA,NA,NA,NA,NA,NA,NA,NA,NA,NA,NA,NA,NA,NA,NA,NA
25540,Deep Question,html.Page,3_0_5_0_4_0_0,NA,NA,form submission,9826.1379999762,727008.09999999,727002.096,727018.762,736844.89999998,736845.39999998,2023-03-07T13:24:16Z,736851.974,NULL,Vermutung,udhanifu,d,NA,NA,NA,uihanogo,NA,NA,5,NA,NA,NA,NA,NA,NA,NA,NA,NA,NA,NA,NA,NA,NA,NA,NA,NA,NA,NA
25540,"""Richtig""-Screen",canvas.Screen,3_0_5_0_4_0_1,NA,NA,skipped,NA,736848.19999999006,NA,NA,736844.89999998,736848.29999998,2023-03-07T13:24:16Z,736851.974,NULL,Vermutung,udhanifu,d,NA,NA,NA,NA,sdf,NA,5,NA,NA,NA,NA,NA,NA,NA,NA,NA,NA,NA,NA,NA,NA,NA,NA,NA,NA,NA
25540,"""Falsch""-Screen",canvas.Screen,3_0_5_0_4_0_2,NA,NA,timeout,4999.7999999999,736849.19999999006,736835.308,736851.974,741835.108,741837.89999998,2023-03-07T13:24:21Z,741851.774,NULL,Vermutung,udhanifu,d,NA,NA,NA,NA,sdf,0,5,NA,NA,NA,NA,NA,NA,NA,NA,NA,NA,NA,NA,NA,NA,NA,NA,NA,NA,NA
25540,deep,flow.Sequence,3_0_5_0_4_0,NA,NA,completion,14816.346,727008.09999999,727002.096,727018.762,741835.108,741838.19999999006,2023-03-07T13:24:21Z,741851.774,NULL,Vermutung,udhanifu,d,NA,NA,NA,NA,sdf,NA,5,NA,NA,NA,NA,NA,NA,NA,NA,NA,NA,NA,NA,NA,NA,NA,NA,NA,NA,NA
25540,shallow,flow.Sequence,3_0_5_0_4_1,NA,NA,skipped,NA,741838.39999998,NA,NA,741835.108,741838.59999999,2023-03-07T13:24:21Z,741851.774,NULL,Vermutung,udhanifu,d,NA,NA,NA,NA,sdf,NA,5,NA,NA,NA,NA,NA,NA,NA,NA,NA,NA,NA,NA,NA,NA,NA,NA,NA,NA,NA
25540,task,flow.Sequence,3_0_5_0_4,NA,NA,completion,14816.346,727008.09999999,727002.096,727018.762,741835.108,741838.79999998,2023-03-07T13:24:21Z,741851.774,NULL,Vermutung,udhanifu,d,NA,NA,NA,NA,sdf,NA,5,NA,NA,NA,NA,NA,NA,NA,NA,NA,NA,NA,NA,NA,NA,NA,NA,NA,NA,NA
25540,Deep Question,html.Page,3_0_5_0_5_0_0,NA,NA,form submission,3309.5259999821,741838.89999998,741835.108,741851.774,745161.29999998,745161.69999999006,2023-03-07T13:24:24Z,745168.609,NULL,Fleisch,mshakiki,d,NA,NA,NA,mshakiki,NA,NA,5,NA,NA,NA,NA,NA,NA,NA,NA,NA,NA,NA,NA,NA,NA,NA,NA,NA,NA,NA
25540,"""Richtig""-Screen",canvas.Screen,3_0_5_0_5_0_1,NA,NA,timeout,4999.7999999999,745165.39999998,745151.943,745168.609,750151.743,750154,2023-03-07T13:24:29Z,750168.409,NULL,Fleisch,mshakiki,d,NA,NA,NA,NA,sdf,1,5,NA,NA,NA,NA,NA,NA,NA,NA,NA,NA,NA,NA,NA,NA,NA,NA,NA,NA,NA
25540,"""Falsch""-Screen",canvas.Screen,3_0_5_0_5_0_2,NA,NA,skipped,NA,750158.19999999006,NA,NA,750151.743,750158.29999998,2023-03-07T13:24:29Z,750168.409,NULL,Fleisch,mshakiki,d,NA,NA,NA,NA,sdf,NA,5,NA,NA,NA,NA,NA,NA,NA,NA,NA,NA,NA,NA,NA,NA,NA,NA,NA,NA,NA
25540,deep,flow.Sequence,3_0_5_0_5_0,NA,NA,completion,8299.969,741838.89999998,741835.108,741851.774,750151.743,750158.5,2023-03-07T13:24:29Z,750168.409,NULL,Fleisch,mshakiki,d,NA,NA,NA,NA,sdf,NA,5,NA,NA,NA,NA,NA,NA,NA,NA,NA,NA,NA,NA,NA,NA,NA,NA,NA,NA,NA
25540,shallow,flow.Sequence,3_0_5_0_5_1,NA,NA,skipped,NA,750158.59999999,NA,NA,750151.743,750158.69999999006,2023-03-07T13:24:29Z,750168.409,NULL,Fleisch,mshakiki,d,NA,NA,NA,NA,sdf,NA,5,NA,NA,NA,NA,NA,NA,NA,NA,NA,NA,NA,NA,NA,NA,NA,NA,NA,NA,NA
25540,task,flow.Sequence,3_0_5_0_5,NA,NA,completion,8299.969,741838.89999998,741835.108,741851.774,750151.743,750158.89999998,2023-03-07T13:24:29Z,750168.409,NULL,Fleisch,mshakiki,d,NA,NA,NA,NA,sdf,NA,5,NA,NA,NA,NA,NA,NA,NA,NA,NA,NA,NA,NA,NA,NA,NA,NA,NA,NA,NA
25540,deep,flow.Sequence,3_0_5_0_6_0,NA,NA,skipped,NA,750159,NA,NA,750151.743,750159,2023-03-07T13:24:29Z,750168.409,NULL,Genehmigung,idhini,s,mwanamke,itikadi,fedheha,NA,sdf,NA,5,NA,NA,NA,NA,NA,NA,NA,NA,NA,NA,NA,NA,NA,NA,NA,NA,NA,NA,NA
25540,Shallow Question,html.Page,3_0_5_0_6_1_0,NA,NA,form submission,1983.4909999762,750159.09999999,750151.743,750168.409,752151.89999998,752152.19999999006,2023-03-07T13:24:31Z,752151.663,NULL,Genehmigung,idhini,s,mwanamke,itikadi,fedheha,idhini,NA,NA,5,NA,NA,NA,NA,NA,NA,NA,NA,NA,NA,NA,NA,NA,NA,NA,NA,NA,NA,NA
25540,"""Richtig""-Screen",canvas.Screen,3_0_5_0_6_1_1,NA,NA,timeout,5000.0710000001,752153.79999998,752134.997,752151.663,757135.068,757136.89999998,2023-03-07T13:24:36Z,757151.734,NULL,Genehmigung,idhini,s,mwanamke,itikadi,fedheha,NA,sdf,1,5,NA,NA,NA,NA,NA,NA,NA,NA,NA,NA,NA,NA,NA,NA,NA,NA,NA,NA,NA
25540,"""Falsch""-Screen",canvas.Screen,3_0_5_0_6_1_2,NA,NA,skipped,NA,757141,NA,NA,757135.068,757141.09999999,2023-03-07T13:24:36Z,757151.734,NULL,Genehmigung,idhini,s,mwanamke,itikadi,fedheha,NA,sdf,NA,5,NA,NA,NA,NA,NA,NA,NA,NA,NA,NA,NA,NA,NA,NA,NA,NA,NA,NA,NA
25540,shallow,flow.Sequence,3_0_5_0_6_1,NA,NA,completion,6966.659,750159.09999999,750151.743,750168.409,757135.068,757141.29999998,2023-03-07T13:24:36Z,757151.734,NULL,Genehmigung,idhini,s,mwanamke,itikadi,fedheha,NA,sdf,NA,5,NA,NA,NA,NA,NA,NA,NA,NA,NA,NA,NA,NA,NA,NA,NA,NA,NA,NA,NA
25540,task,flow.Sequence,3_0_5_0_6,NA,NA,completion,6966.659,750158.89999998,750151.743,750168.409,757135.068,757141.5,2023-03-07T13:24:36Z,757151.734,NULL,Genehmigung,idhini,s,mwanamke,itikadi,fedheha,NA,sdf,NA,5,NA,NA,NA,NA,NA,NA,NA,NA,NA,NA,NA,NA,NA,NA,NA,NA,NA,NA,NA
25540,deep,flow.Sequence,3_0_5_0_7_0,NA,NA,skipped,NA,757141.5,NA,NA,757135.068,757141.59999999,2023-03-07T13:24:36Z,757151.734,NULL,Begegnung,kukutana,s,mmasihiya,mpiganaji,husiano,NA,sdf,NA,5,NA,NA,NA,NA,NA,NA,NA,NA,NA,NA,NA,NA,NA,NA,NA,NA,NA,NA,NA
25540,Shallow Question,html.Page,3_0_5_0_7_1_0,NA,NA,form submission,2953.1659999761,757141.79999998,757135.068,757151.734,760104.89999998,760105.09999999,2023-03-07T13:24:39Z,760118.282,NULL,Begegnung,kukutana,s,mmasihiya,mpiganaji,husiano,kukutana,NA,NA,5,NA,NA,NA,NA,NA,NA,NA,NA,NA,NA,NA,NA,NA,NA,NA,NA,NA,NA,NA
25540,"""Richtig""-Screen",canvas.Screen,3_0_5_0_7_1_1,NA,NA,timeout,4999.8,760106.09999999,760101.616,760118.282,765101.416,765103.5,2023-03-07T13:24:44Z,765118.082,NULL,Begegnung,kukutana,s,mmasihiya,mpiganaji,husiano,NA,sdf,1,5,NA,NA,NA,NA,NA,NA,NA,NA,NA,NA,NA,NA,NA,NA,NA,NA,NA,NA,NA
25540,"""Falsch""-Screen",canvas.Screen,3_0_5_0_7_1_2,NA,NA,skipped,NA,765107.5,NA,NA,765101.416,765107.69999999006,2023-03-07T13:24:44Z,765118.082,NULL,Begegnung,kukutana,s,mmasihiya,mpiganaji,husiano,NA,sdf,NA,5,NA,NA,NA,NA,NA,NA,NA,NA,NA,NA,NA,NA,NA,NA,NA,NA,NA,NA,NA
25540,shallow,flow.Sequence,3_0_5_0_7_1,NA,NA,completion,7949.6819999999,757141.79999998,757135.068,757151.734,765101.416,765107.89999998,2023-03-07T13:24:44Z,765118.082,NULL,Begegnung,kukutana,s,mmasihiya,mpiganaji,husiano,NA,sdf,NA,5,NA,NA,NA,NA,NA,NA,NA,NA,NA,NA,NA,NA,NA,NA,NA,NA,NA,NA,NA
25540,task,flow.Sequence,3_0_5_0_7,NA,NA,completion,7949.6819999999,757141.5,757135.068,757151.734,765101.416,765108,2023-03-07T13:24:44Z,765118.082,NULL,Begegnung,kukutana,s,mmasihiya,mpiganaji,husiano,NA,sdf,NA,5,NA,NA,NA,NA,NA,NA,NA,NA,NA,NA,NA,NA,NA,NA,NA,NA,NA,NA,NA
25540,block,flow.Loop,3_0_5_0,NA,NA,completion,79515.411,685575.09999999,685569.339,685586.005,765101.416,765108.19999999006,2023-03-07T13:24:44Z,765118.082,NULL,NA,NA,NA,NA,NA,NA,NA,sdf,NA,5,NA,NA,NA,NA,NA,NA,NA,NA,NA,NA,NA,NA,NA,NA,NA,NA,NA,NA,NA
25540,weiter,canvas.Screen,3_0_5_1,sdf,keypress(Space),response,732.41799999995,765108.29999998,765101.416,765118.082,765850.5,765858.5,2023-03-07T13:24:45Z,766285.04,NULL,NA,NA,NA,NA,NA,NA,NA,sdf,NA,5,NA,NA,NA,NA,NA,NA,NA,NA,NA,NA,NA,NA,NA,NA,NA,NA,NA,NA,NA
25540,check continue,flow.Sequence,3_0_5,NA,NA,completion,80264.495,685575,685569.339,685586.005,765850.5,765858.79999998,2023-03-07T13:24:45Z,766285.04,NULL,NA,NA,NA,NA,NA,NA,NA,sdf,NA,5,NA,NA,NA,NA,NA,NA,NA,NA,NA,NA,NA,NA,NA,NA,NA,NA,NA,NA,NA
25540,check continue,flow.Sequence,3_0_6,NA,NA,skipped,NA,765897,NA,NA,765850.5,765900.39999998,2023-03-07T13:24:45Z,766285.04,NULL,NA,NA,NA,NA,NA,NA,NA,dfs,NA,6,NA,NA,NA,NA,NA,NA,NA,NA,NA,NA,NA,NA,NA,NA,NA,NA,NA,NA,NA
25540,check continue,flow.Sequence,3_0_7,NA,NA,skipped,NA,765919,NA,NA,765850.5,765919.09999999,2023-03-07T13:24:45Z,766285.04,NULL,NA,NA,NA,NA,NA,NA,NA,df,NA,7,NA,NA,NA,NA,NA,NA,NA,NA,NA,NA,NA,NA,NA,NA,NA,NA,NA,NA,NA
25540,check continue,flow.Sequence,3_0_8,NA,NA,skipped,NA,765937.29999998,NA,NA,765850.5,765937.39999998,2023-03-07T13:24:45Z,766285.04,NULL,NA,NA,NA,NA,NA,NA,NA,dfs,NA,8,NA,NA,NA,NA,NA,NA,NA,NA,NA,NA,NA,NA,NA,NA,NA,NA,NA,NA,NA
25540,check continue,flow.Sequence,3_0_9,NA,NA,skipped,NA,765956.89999998,NA,NA,765850.5,765957,2023-03-07T13:24:45Z,766285.04,NULL,NA,NA,NA,NA,NA,NA,NA,dsf,NA,9,NA,NA,NA,NA,NA,NA,NA,NA,NA,NA,NA,NA,NA,NA,NA,NA,NA,NA,NA
25540,check continue,flow.Sequence,3_0_10,NA,NA,skipped,NA,765971.5,NA,NA,765850.5,765971.59999999,2023-03-07T13:24:45Z,766285.04,NULL,NA,NA,NA,NA,NA,NA,NA,df,NA,10,NA,NA,NA,NA,NA,NA,NA,NA,NA,NA,NA,NA,NA,NA,NA,NA,NA,NA,NA
25540,check continue,flow.Sequence,3_0_11,NA,NA,skipped,NA,765986.5,NA,NA,765850.5,765986.59999999,2023-03-07T13:24:45Z,766285.04,NULL,NA,NA,NA,NA,NA,NA,NA,dfs,NA,11,NA,NA,NA,NA,NA,NA,NA,NA,NA,NA,NA,NA,NA,NA,NA,NA,NA,NA,NA
25540,check continue,flow.Sequence,3_0_12,NA,NA,skipped,NA,766001.69999999006,NA,NA,765850.5,766001.89999998,2023-03-07T13:24:45Z,766285.04,NULL,NA,NA,NA,NA,NA,NA,NA,dsf,NA,12,NA,NA,NA,NA,NA,NA,NA,NA,NA,NA,NA,NA,NA,NA,NA,NA,NA,NA,NA
25540,check continue,flow.Sequence,3_0_13,NA,NA,skipped,NA,766019.59999999,NA,NA,765850.5,766019.69999999006,2023-03-07T13:24:45Z,766285.04,NULL,NA,NA,NA,NA,NA,NA,NA,dsf,NA,13,NA,NA,NA,NA,NA,NA,NA,NA,NA,NA,NA,NA,NA,NA,NA,NA,NA,NA,NA
25540,check continue,flow.Sequence,3_0_14,NA,NA,skipped,NA,766035.59999999,NA,NA,765850.5,766035.69999999006,2023-03-07T13:24:45Z,766285.04,NULL,NA,NA,NA,NA,NA,NA,NA,NA,NA,14,NA,NA,NA,NA,NA,NA,NA,NA,NA,NA,NA,NA,NA,NA,NA,NA,NA,NA,NA
25540,check continue,flow.Sequence,3_0_15,NA,NA,skipped,NA,766050.09999999,NA,NA,765850.5,766050.19999999006,2023-03-07T13:24:45Z,766285.04,NULL,NA,NA,NA,NA,NA,NA,NA,NA,NA,15,NA,NA,NA,NA,NA,NA,NA,NA,NA,NA,NA,NA,NA,NA,NA,NA,NA,NA,NA
25540,check continue,flow.Sequence,3_0_16,NA,NA,skipped,NA,766064.69999999006,NA,NA,765850.5,766064.79999998,2023-03-07T13:24:45Z,766285.04,NULL,NA,NA,NA,NA,NA,NA,NA,NA,NA,16,NA,NA,NA,NA,NA,NA,NA,NA,NA,NA,NA,NA,NA,NA,NA,NA,NA,NA,NA
25540,check continue,flow.Sequence,3_0_17,NA,NA,skipped,NA,766078.19999999006,NA,NA,765850.5,766078.29999998,2023-03-07T13:24:45Z,766285.04,NULL,NA,NA,NA,NA,NA,NA,NA,NA,NA,17,NA,NA,NA,NA,NA,NA,NA,NA,NA,NA,NA,NA,NA,NA,NA,NA,NA,NA,NA
25540,check continue,flow.Sequence,3_0_18,NA,NA,skipped,NA,766091.79999998,NA,NA,765850.5,766091.89999998,2023-03-07T13:24:45Z,766285.04,NULL,NA,NA,NA,NA,NA,NA,NA,NA,NA,18,NA,NA,NA,NA,NA,NA,NA,NA,NA,NA,NA,NA,NA,NA,NA,NA,NA,NA,NA
25540,check continue,flow.Sequence,3_0_19,NA,NA,skipped,NA,766105.89999998,NA,NA,765850.5,766106,2023-03-07T13:24:45Z,766285.04,NULL,NA,NA,NA,NA,NA,NA,NA,NA,NA,19,NA,NA,NA,NA,NA,NA,NA,NA,NA,NA,NA,NA,NA,NA,NA,NA,NA,NA,NA
25540,check continue,flow.Sequence,3_0_20,NA,NA,skipped,NA,766120.09999999,NA,NA,765850.5,766120.19999999006,2023-03-07T13:24:45Z,766285.04,NULL,NA,NA,NA,NA,NA,NA,NA,NA,NA,20,NA,NA,NA,NA,NA,NA,NA,NA,NA,NA,NA,NA,NA,NA,NA,NA,NA,NA,NA
25540,check continue,flow.Sequence,3_0_21,NA,NA,skipped,NA,766137.59999999,NA,NA,765850.5,766137.69999999006,2023-03-07T13:24:45Z,766285.04,NULL,NA,NA,NA,NA,NA,NA,NA,NA,NA,21,NA,NA,NA,NA,NA,NA,NA,NA,NA,NA,NA,NA,NA,NA,NA,NA,NA,NA,NA
