observation,sender,sender_type,sender_id,response,response_action,ended_on,duration,time_run,time_render,time_show,time_end,time_commit,timestamp,time_switch,distractors,german,swahili,enc,distractor1,distractor2,distractor3,response_2,x,correct,x_2,url_vp,url_sess,meta_labjs_version,meta_location,meta_user_agent,meta_platform,meta_language,meta_locale,meta_time_zone,meta_timezone_offset,meta_screen_width,meta_screen_height,meta_scroll_width,meta_scroll_height,meta_window_inner_width,meta_window_inner_height,meta_device_pixel_ratio,meta_labjs_build_flavor,meta_labjs_build_commit
cc2c5,Introduction general,canvas.Screen,0,weiter,keypress(q),response,300092.967,818.5,418.717,852.033,300945,300976.90000001,2023-04-03T08:05:54Z,300987.319,NULL,NA,NA,NA,NA,NA,NA,NA,NA,NA,NA,123,1,20.2.4,https://neurocog.fernuni.ch/studies/vweber/encoding_immediate/index.html?vp=123&sess=1,"Mozilla/5.0 (Macintosh; Intel Mac OS X 10_15_7) AppleWebKit/537.36 (KHTML, like Gecko) Chrome/111.0.0.0 Safari/537.36",MacIntel,de-DE,de,Europe/Zurich,-120,1440,900,1440,649,1440,697,2,production,f5b4a49f956347addd546a832a3327688c2c0fef
cc2c5,Introduction practice,canvas.Screen,1_0,NA,keypress(Space),response,12010.081000006,300977.5,300953.987,300987.319,312997.40000001,313004,2023-04-03T08:06:07Z,313020.171,NULL,NA,NA,NA,NA,NA,NA,NA,NA,NA,NA,NA,NA,NA,NA,NA,NA,NA,NA,NA,NA,NA,NA,NA,NA,NA,NA,NA,NA,NA
cc2c5,Deep Question,html.Page,1_1_0_0_0,NA,NA,form submission,11165.428999994,313004.30000001,313003.505,313020.171,324185.59999999,324186.59999999,2023-04-03T08:06:18Z,324190.731,"c(""distractor1"", ""distractor2"", ""distractor3"")",Gesundheit,salama,d,NA,NA,NA,l,NA,NA,NA,NA,NA,NA,NA,NA,NA,NA,NA,NA,NA,NA,NA,NA,NA,NA,NA,NA,NA,NA
cc2c5,"""Richtig""-Screen",canvas.Screen,1_1_0_0_1,NA,NA,skipped,NA,324188,NA,NA,324185.59999999,324188.30000001,2023-04-03T08:06:18Z,324190.731,"c(""distractor1"", ""distractor2"", ""distractor3"")",Gesundheit,salama,d,NA,NA,NA,NA,NA,NA,NA,NA,NA,NA,NA,NA,NA,NA,NA,NA,NA,NA,NA,NA,NA,NA,NA,NA,NA,NA
cc2c5,"""Falsch""-Screen",canvas.Screen,1_1_0_0_2,NA,NA,timeout,4999.8,324189.5,324174.065,324190.731,329173.865,329181.40000001,2023-04-03T08:06:23Z,329190.531,"c(""distractor1"", ""distractor2"", ""distractor3"")",Gesundheit,salama,d,NA,NA,NA,NA,NA,0,NA,NA,NA,NA,NA,NA,NA,NA,NA,NA,NA,NA,NA,NA,NA,NA,NA,NA,NA,NA
cc2c5,deep,flow.Sequence,1_1_0_0,NA,NA,completion,16153.694,313004.30000001,313003.505,313020.171,329173.865,329181.80000001,2023-04-03T08:06:23Z,329190.531,"c(""distractor1"", ""distractor2"", ""distractor3"")",Gesundheit,salama,d,NA,NA,NA,NA,NA,NA,NA,NA,NA,NA,NA,NA,NA,NA,NA,NA,NA,NA,NA,NA,NA,NA,NA,NA,NA,NA
cc2c5,shallow,flow.Sequence,1_1_0_1,NA,NA,skipped,NA,329182,NA,NA,329173.865,329182.09999999,2023-04-03T08:06:23Z,329190.531,"c(""distractor1"", ""distractor2"", ""distractor3"")",Gesundheit,salama,d,NA,NA,NA,NA,NA,NA,NA,NA,NA,NA,NA,NA,NA,NA,NA,NA,NA,NA,NA,NA,NA,NA,NA,NA,NA,NA
cc2c5,task,flow.Sequence,1_1_0,NA,NA,completion,16153.694,313004.30000001,313003.505,313020.171,329173.865,329182.40000001,2023-04-03T08:06:23Z,329190.531,"c(""distractor1"", ""distractor2"", ""distractor3"")",Gesundheit,salama,d,NA,NA,NA,NA,NA,NA,NA,NA,NA,NA,NA,NA,NA,NA,NA,NA,NA,NA,NA,NA,NA,NA,NA,NA,NA,NA
cc2c5,deep,flow.Sequence,1_1_1_0,NA,NA,skipped,NA,329182.59999999,NA,NA,329173.865,329182.80000001,2023-04-03T08:06:23Z,329190.531,"c(""distractor1"", ""distractor2"", ""distractor3"")",Kritik,lawama,s,dereva,nafasi,mawazo,NA,NA,NA,NA,NA,NA,NA,NA,NA,NA,NA,NA,NA,NA,NA,NA,NA,NA,NA,NA,NA,NA,NA
cc2c5,Shallow Question,html.Page,1_1_1_1_0,NA,NA,form submission,9175.7690000119,329183.09999999,329173.865,329190.531,338366.30000001,338366.80000001,2023-04-03T08:06:32Z,338371.322,"c(""distractor1"", ""distractor2"", ""distractor3"")",Kritik,lawama,s,dereva,nafasi,mawazo,mawazo,NA,NA,NA,NA,NA,NA,NA,NA,NA,NA,NA,NA,NA,NA,NA,NA,NA,NA,NA,NA,NA,NA
cc2c5,"""Richtig""-Screen",canvas.Screen,1_1_1_1_1,NA,NA,skipped,NA,338370.59999999,NA,NA,338366.30000001,338370.80000001,2023-04-03T08:06:32Z,338371.322,"c(""distractor1"", ""distractor2"", ""distractor3"")",Kritik,lawama,s,dereva,nafasi,mawazo,NA,NA,NA,NA,NA,NA,NA,NA,NA,NA,NA,NA,NA,NA,NA,NA,NA,NA,NA,NA,NA,NA,NA
cc2c5,"""Falsch""-Screen",canvas.Screen,1_1_1_1_2,NA,NA,timeout,4999.8,338372.59999999,338354.656,338371.322,343354.456,343358,2023-04-03T08:06:37Z,343371.122,"c(""distractor1"", ""distractor2"", ""distractor3"")",Kritik,lawama,s,dereva,nafasi,mawazo,NA,NA,0,NA,NA,NA,NA,NA,NA,NA,NA,NA,NA,NA,NA,NA,NA,NA,NA,NA,NA,NA,NA
cc2c5,shallow,flow.Sequence,1_1_1_1,NA,NA,completion,14163.925,329183,329173.865,329190.531,343354.456,343358.40000001,2023-04-03T08:06:37Z,343371.122,"c(""distractor1"", ""distractor2"", ""distractor3"")",Kritik,lawama,s,dereva,nafasi,mawazo,NA,NA,NA,NA,NA,NA,NA,NA,NA,NA,NA,NA,NA,NA,NA,NA,NA,NA,NA,NA,NA,NA,NA
cc2c5,task,flow.Sequence,1_1_1,NA,NA,completion,14163.925,329182.5,329173.865,329190.531,343354.456,343358.80000001,2023-04-03T08:06:37Z,343371.122,"c(""distractor1"", ""distractor2"", ""distractor3"")",Kritik,lawama,s,dereva,nafasi,mawazo,NA,NA,NA,NA,NA,NA,NA,NA,NA,NA,NA,NA,NA,NA,NA,NA,NA,NA,NA,NA,NA,NA,NA
cc2c5,Deep Question,html.Page,1_1_2_0_0,NA,NA,form submission,8689.6780000119,343359,343354.456,343371.122,352060.80000001,352061.30000001,2023-04-03T08:06:46Z,352077.366,"c(""distractor1"", ""distractor2"", ""distractor3"")",Qualität,mtindo,d,NA,NA,NA,r,NA,NA,NA,NA,NA,NA,NA,NA,NA,NA,NA,NA,NA,NA,NA,NA,NA,NA,NA,NA,NA,NA
cc2c5,"""Richtig""-Screen",canvas.Screen,1_1_2_0_1,NA,NA,skipped,NA,352063.80000001,NA,NA,352060.80000001,352064,2023-04-03T08:06:46Z,352077.366,"c(""distractor1"", ""distractor2"", ""distractor3"")",Qualität,mtindo,d,NA,NA,NA,NA,NA,NA,NA,NA,NA,NA,NA,NA,NA,NA,NA,NA,NA,NA,NA,NA,NA,NA,NA,NA,NA,NA
cc2c5,"""Falsch""-Screen",canvas.Screen,1_1_2_0_2,NA,NA,timeout,4999.8,352064.90000001,352060.7,352077.366,357060.5,357063.30000001,2023-04-03T08:06:51Z,357077.166,"c(""distractor1"", ""distractor2"", ""distractor3"")",Qualität,mtindo,d,NA,NA,NA,NA,NA,0,NA,NA,NA,NA,NA,NA,NA,NA,NA,NA,NA,NA,NA,NA,NA,NA,NA,NA,NA,NA
cc2c5,deep,flow.Sequence,1_1_2_0,NA,NA,completion,13689.378,343359,343354.456,343371.122,357060.5,357063.69999999,2023-04-03T08:06:51Z,357077.166,"c(""distractor1"", ""distractor2"", ""distractor3"")",Qualität,mtindo,d,NA,NA,NA,NA,NA,NA,NA,NA,NA,NA,NA,NA,NA,NA,NA,NA,NA,NA,NA,NA,NA,NA,NA,NA,NA,NA
cc2c5,shallow,flow.Sequence,1_1_2_1,NA,NA,skipped,NA,357063.90000001,NA,NA,357060.5,357064.09999999,2023-04-03T08:06:51Z,357077.166,"c(""distractor1"", ""distractor2"", ""distractor3"")",Qualität,mtindo,d,NA,NA,NA,NA,NA,NA,NA,NA,NA,NA,NA,NA,NA,NA,NA,NA,NA,NA,NA,NA,NA,NA,NA,NA,NA,NA
cc2c5,task,flow.Sequence,1_1_2,NA,NA,completion,13689.378,343358.90000001,343354.456,343371.122,357060.5,357064.30000001,2023-04-03T08:06:51Z,357077.166,"c(""distractor1"", ""distractor2"", ""distractor3"")",Qualität,mtindo,d,NA,NA,NA,NA,NA,NA,NA,NA,NA,NA,NA,NA,NA,NA,NA,NA,NA,NA,NA,NA,NA,NA,NA,NA,NA,NA
cc2c5,deep,flow.Sequence,1_1_3_0,NA,NA,skipped,NA,357064.5,NA,NA,357060.5,357064.59999999,2023-04-03T08:06:51Z,357077.166,"c(""distractor1"", ""distractor2"", ""distractor3"")",Gegenwart,hadhara,s,katiba,jokofu,mikopo,NA,NA,NA,NA,NA,NA,NA,NA,NA,NA,NA,NA,NA,NA,NA,NA,NA,NA,NA,NA,NA,NA,NA
cc2c5,Shallow Question,html.Page,1_1_3_1_0,NA,NA,form submission,6597.2340000059,357064.80000001,357060.5,357077.166,363674.40000001,363674.69999999,2023-04-03T08:06:57Z,363687.315,"c(""distractor1"", ""distractor2"", ""distractor3"")",Gegenwart,hadhara,s,katiba,jokofu,mikopo,hadhara,NA,NA,NA,NA,NA,NA,NA,NA,NA,NA,NA,NA,NA,NA,NA,NA,NA,NA,NA,NA,NA,NA
cc2c5,"""Richtig""-Screen",canvas.Screen,1_1_3_1_1,NA,NA,timeout,4999.8,363677.69999999,363670.649,363687.315,368670.449,368674.09999999,2023-04-03T08:07:02Z,368687.115,"c(""distractor1"", ""distractor2"", ""distractor3"")",Gegenwart,hadhara,s,katiba,jokofu,mikopo,NA,NA,1,NA,NA,NA,NA,NA,NA,NA,NA,NA,NA,NA,NA,NA,NA,NA,NA,NA,NA,NA,NA
cc2c5,"""Falsch""-Screen",canvas.Screen,1_1_3_1_2,NA,NA,skipped,NA,368678.19999999,NA,NA,368670.449,368678.90000001,2023-04-03T08:07:02Z,368687.115,"c(""distractor1"", ""distractor2"", ""distractor3"")",Gegenwart,hadhara,s,katiba,jokofu,mikopo,NA,NA,NA,NA,NA,NA,NA,NA,NA,NA,NA,NA,NA,NA,NA,NA,NA,NA,NA,NA,NA,NA,NA
cc2c5,shallow,flow.Sequence,1_1_3_1,NA,NA,completion,11593.283,357064.69999999,357060.5,357077.166,368670.449,368679.19999999,2023-04-03T08:07:02Z,368687.115,"c(""distractor1"", ""distractor2"", ""distractor3"")",Gegenwart,hadhara,s,katiba,jokofu,mikopo,NA,NA,NA,NA,NA,NA,NA,NA,NA,NA,NA,NA,NA,NA,NA,NA,NA,NA,NA,NA,NA,NA,NA
cc2c5,task,flow.Sequence,1_1_3,NA,NA,completion,11593.283,357064.5,357060.5,357077.166,368670.449,368679.5,2023-04-03T08:07:02Z,368687.115,"c(""distractor1"", ""distractor2"", ""distractor3"")",Gegenwart,hadhara,s,katiba,jokofu,mikopo,NA,NA,NA,NA,NA,NA,NA,NA,NA,NA,NA,NA,NA,NA,NA,NA,NA,NA,NA,NA,NA,NA,NA
cc2c5,deep,flow.Sequence,1_1_4_0,NA,NA,skipped,NA,368679.59999999,NA,NA,368670.449,368679.80000001,2023-04-03T08:07:02Z,368687.115,"c(""distractor1"", ""distractor2"", ""distractor3"")",Rückhalt,msaada,s,muhula,auwali,kiwimbe,NA,NA,NA,NA,NA,NA,NA,NA,NA,NA,NA,NA,NA,NA,NA,NA,NA,NA,NA,NA,NA,NA,NA
cc2c5,Shallow Question,html.Page,1_1_4_1_0,NA,NA,form submission,5592.385,368680,368670.449,368687.115,374279.5,374279.80000001,2023-04-03T08:07:08Z,374287.098,"c(""distractor1"", ""distractor2"", ""distractor3"")",Rückhalt,msaada,s,muhula,auwali,kiwimbe,msaada,NA,NA,NA,NA,NA,NA,NA,NA,NA,NA,NA,NA,NA,NA,NA,NA,NA,NA,NA,NA,NA,NA
cc2c5,"""Richtig""-Screen",canvas.Screen,1_1_4_1_1,NA,NA,timeout,4999.8,374283.5,374270.432,374287.098,379270.232,379275.5,2023-04-03T08:07:13Z,379286.898,"c(""distractor1"", ""distractor2"", ""distractor3"")",Rückhalt,msaada,s,muhula,auwali,kiwimbe,NA,NA,1,NA,NA,NA,NA,NA,NA,NA,NA,NA,NA,NA,NA,NA,NA,NA,NA,NA,NA,NA,NA
cc2c5,"""Falsch""-Screen",canvas.Screen,1_1_4_1_2,NA,NA,skipped,NA,379279.40000001,NA,NA,379270.232,379279.69999999,2023-04-03T08:07:13Z,379286.898,"c(""distractor1"", ""distractor2"", ""distractor3"")",Rückhalt,msaada,s,muhula,auwali,kiwimbe,NA,NA,NA,NA,NA,NA,NA,NA,NA,NA,NA,NA,NA,NA,NA,NA,NA,NA,NA,NA,NA,NA,NA
cc2c5,shallow,flow.Sequence,1_1_4_1,NA,NA,completion,10583.117,368679.80000001,368670.449,368687.115,379270.232,379280.09999999,2023-04-03T08:07:13Z,379286.898,"c(""distractor1"", ""distractor2"", ""distractor3"")",Rückhalt,msaada,s,muhula,auwali,kiwimbe,NA,NA,NA,NA,NA,NA,NA,NA,NA,NA,NA,NA,NA,NA,NA,NA,NA,NA,NA,NA,NA,NA,NA
cc2c5,task,flow.Sequence,1_1_4,NA,NA,completion,10583.117,368679.59999999,368670.449,368687.115,379270.232,379280.19999999,2023-04-03T08:07:13Z,379286.898,"c(""distractor1"", ""distractor2"", ""distractor3"")",Rückhalt,msaada,s,muhula,auwali,kiwimbe,NA,NA,NA,NA,NA,NA,NA,NA,NA,NA,NA,NA,NA,NA,NA,NA,NA,NA,NA,NA,NA,NA,NA
cc2c5,Deep Question,html.Page,1_1_5_0_0,NA,NA,form submission,3520.7019999941,379280.5,379270.232,379286.898,382807.59999999,382808.19999999,2023-04-03T08:07:16Z,382809.397,"c(""distractor1"", ""distractor2"", ""distractor3"")",Schatten,kivuli,d,NA,NA,NA,e,NA,NA,NA,NA,NA,NA,NA,NA,NA,NA,NA,NA,NA,NA,NA,NA,NA,NA,NA,NA,NA,NA
cc2c5,"""Richtig""-Screen",canvas.Screen,1_1_5_0_1,NA,NA,skipped,NA,382811.19999999,NA,NA,382807.59999999,382811.40000001,2023-04-03T08:07:16Z,382809.397,"c(""distractor1"", ""distractor2"", ""distractor3"")",Schatten,kivuli,d,NA,NA,NA,NA,NA,NA,NA,NA,NA,NA,NA,NA,NA,NA,NA,NA,NA,NA,NA,NA,NA,NA,NA,NA,NA,NA
cc2c5,"""Falsch""-Screen",canvas.Screen,1_1_5_0_2,NA,NA,timeout,4999.8,382812.80000001,382792.731,382809.397,387792.531,387794.09999999,2023-04-03T08:07:21Z,387809.197,"c(""distractor1"", ""distractor2"", ""distractor3"")",Schatten,kivuli,d,NA,NA,NA,NA,NA,0,NA,NA,NA,NA,NA,NA,NA,NA,NA,NA,NA,NA,NA,NA,NA,NA,NA,NA,NA,NA
cc2c5,deep,flow.Sequence,1_1_5_0,NA,NA,completion,8505.633,379280.40000001,379270.232,379286.898,387792.531,387794.5,2023-04-03T08:07:21Z,387809.197,"c(""distractor1"", ""distractor2"", ""distractor3"")",Schatten,kivuli,d,NA,NA,NA,NA,NA,NA,NA,NA,NA,NA,NA,NA,NA,NA,NA,NA,NA,NA,NA,NA,NA,NA,NA,NA,NA,NA
cc2c5,shallow,flow.Sequence,1_1_5_1,NA,NA,skipped,NA,387794.69999999,NA,NA,387792.531,387794.90000001,2023-04-03T08:07:21Z,387809.197,"c(""distractor1"", ""distractor2"", ""distractor3"")",Schatten,kivuli,d,NA,NA,NA,NA,NA,NA,NA,NA,NA,NA,NA,NA,NA,NA,NA,NA,NA,NA,NA,NA,NA,NA,NA,NA,NA,NA
cc2c5,task,flow.Sequence,1_1_5,NA,NA,completion,8505.633,379280.40000001,379270.232,379286.898,387792.531,387795.5,2023-04-03T08:07:21Z,387809.197,"c(""distractor1"", ""distractor2"", ""distractor3"")",Schatten,kivuli,d,NA,NA,NA,NA,NA,NA,NA,NA,NA,NA,NA,NA,NA,NA,NA,NA,NA,NA,NA,NA,NA,NA,NA,NA,NA,NA
cc2c5,block,flow.Loop,1_1,NA,NA,completion,74772.36,313004.09999999,313003.505,313020.171,387792.531,387796,2023-04-03T08:07:21Z,387809.197,"c(""distractor1"", ""distractor2"", ""distractor3"")",NA,NA,NA,NA,NA,NA,NA,NA,NA,NA,NA,NA,NA,NA,NA,NA,NA,NA,NA,NA,NA,NA,NA,NA,NA,NA,NA,NA,NA
cc2c5,Practice,flow.Sequence,1,NA,NA,completion,86805.212,300977.40000001,300953.987,300987.319,387792.531,387796.30000001,2023-04-03T08:07:21Z,387809.197,NULL,NA,NA,NA,NA,NA,NA,NA,NA,NA,NA,NA,NA,NA,NA,NA,NA,NA,NA,NA,NA,NA,NA,NA,NA,NA,NA,NA,NA,NA
cc2c5,Experiment start,canvas.Screen,2,weiter,keypress(q),response,11856.502999988,387796.40000001,387792.531,387809.197,399665.69999999,399676.40000001,2023-04-03T08:07:33Z,399792.051,NULL,NA,NA,NA,NA,NA,NA,NA,NA,NA,NA,NA,NA,NA,NA,NA,NA,NA,NA,NA,NA,NA,NA,NA,NA,NA,NA,NA,NA,NA
cc2c5,Deep Question,html.Page,3_0_0_0_0_0_0,NA,NA,form submission,3084.1489999881,399777.5,399775.385,399792.051,402876.19999999,402876.5,2023-04-03T08:07:36Z,402889.269,NULL,Papier,karatasi,d,NA,NA,NA,z,NA,NA,0,NA,NA,NA,NA,NA,NA,NA,NA,NA,NA,NA,NA,NA,NA,NA,NA,NA,NA,NA
cc2c5,"""Richtig""-Screen",canvas.Screen,3_0_0_0_0_0_1,NA,NA,skipped,NA,402877.80000001,NA,NA,402876.19999999,402877.90000001,2023-04-03T08:07:36Z,402889.269,NULL,Papier,karatasi,d,NA,NA,NA,NA,sdf,NA,0,NA,NA,NA,NA,NA,NA,NA,NA,NA,NA,NA,NA,NA,NA,NA,NA,NA,NA,NA
cc2c5,"""Falsch""-Screen",canvas.Screen,3_0_0_0_0_0_2,NA,NA,timeout,4999.8,402878.69999999,402872.603,402889.269,407872.403,407873.90000001,2023-04-03T08:07:41Z,407889.069,NULL,Papier,karatasi,d,NA,NA,NA,NA,sdf,0,0,NA,NA,NA,NA,NA,NA,NA,NA,NA,NA,NA,NA,NA,NA,NA,NA,NA,NA,NA
cc2c5,deep,flow.Sequence,3_0_0_0_0_0,NA,NA,completion,8080.352,399777.5,399775.385,399792.051,407872.403,407874.30000001,2023-04-03T08:07:41Z,407889.069,NULL,Papier,karatasi,d,NA,NA,NA,NA,sdf,NA,0,NA,NA,NA,NA,NA,NA,NA,NA,NA,NA,NA,NA,NA,NA,NA,NA,NA,NA,NA
cc2c5,shallow,flow.Sequence,3_0_0_0_0_1,NA,NA,skipped,NA,407874.40000001,NA,NA,407872.403,407874.5,2023-04-03T08:07:41Z,407889.069,NULL,Papier,karatasi,d,NA,NA,NA,NA,sdf,NA,0,NA,NA,NA,NA,NA,NA,NA,NA,NA,NA,NA,NA,NA,NA,NA,NA,NA,NA,NA
cc2c5,task,flow.Sequence,3_0_0_0_0,NA,NA,completion,8080.352,399777.5,399775.385,399792.051,407872.403,407874.69999999,2023-04-03T08:07:41Z,407889.069,NULL,Papier,karatasi,d,NA,NA,NA,NA,sdf,NA,0,NA,NA,NA,NA,NA,NA,NA,NA,NA,NA,NA,NA,NA,NA,NA,NA,NA,NA,NA
cc2c5,deep,flow.Sequence,3_0_0_0_1_0,NA,NA,skipped,NA,407874.80000001,NA,NA,407872.403,407875,2023-04-03T08:07:41Z,407889.069,NULL,Vorwurf,mashtaka,s,msukumo,mtangulizi,uenyekiti,NA,sdf,NA,0,NA,NA,NA,NA,NA,NA,NA,NA,NA,NA,NA,NA,NA,NA,NA,NA,NA,NA,NA
cc2c5,Shallow Question,html.Page,3_0_0_0_1_1_0,NA,NA,form submission,4928.2310000119,407875,407872.403,407889.069,412817.30000001,412817.59999999,2023-04-03T08:07:46Z,412833.029,NULL,Vorwurf,mashtaka,s,msukumo,mtangulizi,uenyekiti,uenyekiti,NA,NA,0,NA,NA,NA,NA,NA,NA,NA,NA,NA,NA,NA,NA,NA,NA,NA,NA,NA,NA,NA
cc2c5,"""Richtig""-Screen",canvas.Screen,3_0_0_0_1_1_1,NA,NA,skipped,NA,412821.80000001,NA,NA,412817.30000001,412822.09999999,2023-04-03T08:07:46Z,412833.029,NULL,Vorwurf,mashtaka,s,msukumo,mtangulizi,uenyekiti,NA,sdf,NA,0,NA,NA,NA,NA,NA,NA,NA,NA,NA,NA,NA,NA,NA,NA,NA,NA,NA,NA,NA
cc2c5,"""Falsch""-Screen",canvas.Screen,3_0_0_0_1_1_2,NA,NA,timeout,4999.8,412822.90000001,412816.363,412833.029,417816.163,417820.40000001,2023-04-03T08:07:51Z,417832.829,NULL,Vorwurf,mashtaka,s,msukumo,mtangulizi,uenyekiti,NA,sdf,0,0,NA,NA,NA,NA,NA,NA,NA,NA,NA,NA,NA,NA,NA,NA,NA,NA,NA,NA,NA
cc2c5,shallow,flow.Sequence,3_0_0_0_1_1,NA,NA,completion,9927.094,407875,407872.403,407889.069,417816.163,417820.90000001,2023-04-03T08:07:51Z,417832.829,NULL,Vorwurf,mashtaka,s,msukumo,mtangulizi,uenyekiti,NA,sdf,NA,0,NA,NA,NA,NA,NA,NA,NA,NA,NA,NA,NA,NA,NA,NA,NA,NA,NA,NA,NA
cc2c5,task,flow.Sequence,3_0_0_0_1,NA,NA,completion,9927.094,407874.80000001,407872.403,407889.069,417816.163,417821.09999999,2023-04-03T08:07:51Z,417832.829,NULL,Vorwurf,mashtaka,s,msukumo,mtangulizi,uenyekiti,NA,sdf,NA,0,NA,NA,NA,NA,NA,NA,NA,NA,NA,NA,NA,NA,NA,NA,NA,NA,NA,NA,NA
cc2c5,Deep Question,html.Page,3_0_0_0_2_0_0,NA,NA,form submission,2675.5710000059,417821.30000001,417816.163,417832.829,420508.40000001,420508.90000001,2023-04-03T08:07:54Z,420536.982,NULL,Schüler,mwanafunzi,d,NA,NA,NA,z,NA,NA,0,NA,NA,NA,NA,NA,NA,NA,NA,NA,NA,NA,NA,NA,NA,NA,NA,NA,NA,NA
cc2c5,"""Richtig""-Screen",canvas.Screen,3_0_0_0_2_0_1,NA,NA,skipped,NA,420511.59999999,NA,NA,420508.40000001,420511.80000001,2023-04-03T08:07:54Z,420536.982,NULL,Schüler,mwanafunzi,d,NA,NA,NA,NA,sdf,NA,0,NA,NA,NA,NA,NA,NA,NA,NA,NA,NA,NA,NA,NA,NA,NA,NA,NA,NA,NA
cc2c5,"""Falsch""-Screen",canvas.Screen,3_0_0_0_2_0_2,NA,NA,timeout,4999.8,420512.59999999,420520.316,420536.982,425520.116,425522,2023-04-03T08:07:59Z,425536.782,NULL,Schüler,mwanafunzi,d,NA,NA,NA,NA,sdf,0,0,NA,NA,NA,NA,NA,NA,NA,NA,NA,NA,NA,NA,NA,NA,NA,NA,NA,NA,NA
cc2c5,deep,flow.Sequence,3_0_0_0_2_0,NA,NA,completion,7687.287,417821.30000001,417816.163,417832.829,425520.116,425522.5,2023-04-03T08:07:59Z,425536.782,NULL,Schüler,mwanafunzi,d,NA,NA,NA,NA,sdf,NA,0,NA,NA,NA,NA,NA,NA,NA,NA,NA,NA,NA,NA,NA,NA,NA,NA,NA,NA,NA
cc2c5,shallow,flow.Sequence,3_0_0_0_2_1,NA,NA,skipped,NA,425522.69999999,NA,NA,425520.116,425522.80000001,2023-04-03T08:07:59Z,425536.782,NULL,Schüler,mwanafunzi,d,NA,NA,NA,NA,sdf,NA,0,NA,NA,NA,NA,NA,NA,NA,NA,NA,NA,NA,NA,NA,NA,NA,NA,NA,NA,NA
cc2c5,task,flow.Sequence,3_0_0_0_2,NA,NA,completion,7687.287,417821.30000001,417816.163,417832.829,425520.116,425523,2023-04-03T08:07:59Z,425536.782,NULL,Schüler,mwanafunzi,d,NA,NA,NA,NA,sdf,NA,0,NA,NA,NA,NA,NA,NA,NA,NA,NA,NA,NA,NA,NA,NA,NA,NA,NA,NA,NA
cc2c5,deep,flow.Sequence,3_0_0_0_3_0,NA,NA,skipped,NA,425523.09999999,NA,NA,425520.116,425523.19999999,2023-04-03T08:07:59Z,425536.782,NULL,Fenster,dirisha,s,walakini,tasawari,maarifa,NA,sdf,NA,0,NA,NA,NA,NA,NA,NA,NA,NA,NA,NA,NA,NA,NA,NA,NA,NA,NA,NA,NA
cc2c5,Shallow Question,html.Page,3_0_0_0_3_1_0,NA,NA,form submission,5458.317999994,425523.40000001,425520.116,425536.782,430995.09999999,430995.30000001,2023-04-03T08:08:05Z,431000.393,NULL,Fenster,dirisha,s,walakini,tasawari,maarifa,tasawari,NA,NA,0,NA,NA,NA,NA,NA,NA,NA,NA,NA,NA,NA,NA,NA,NA,NA,NA,NA,NA,NA
cc2c5,"""Richtig""-Screen",canvas.Screen,3_0_0_0_3_1_1,NA,NA,skipped,NA,430997.59999999,NA,NA,430995.09999999,430997.69999999,2023-04-03T08:08:05Z,431000.393,NULL,Fenster,dirisha,s,walakini,tasawari,maarifa,NA,sdf,NA,0,NA,NA,NA,NA,NA,NA,NA,NA,NA,NA,NA,NA,NA,NA,NA,NA,NA,NA,NA
cc2c5,"""Falsch""-Screen",canvas.Screen,3_0_0_0_3_1_2,NA,NA,timeout,4999.8,430998.69999999,430983.727,431000.393,435983.527,435985.59999999,2023-04-03T08:08:10Z,436000.193,NULL,Fenster,dirisha,s,walakini,tasawari,maarifa,NA,sdf,0,0,NA,NA,NA,NA,NA,NA,NA,NA,NA,NA,NA,NA,NA,NA,NA,NA,NA,NA,NA
cc2c5,shallow,flow.Sequence,3_0_0_0_3_1,NA,NA,completion,10446.745,425523.40000001,425520.116,425536.782,435983.527,435985.90000001,2023-04-03T08:08:10Z,436000.193,NULL,Fenster,dirisha,s,walakini,tasawari,maarifa,NA,sdf,NA,0,NA,NA,NA,NA,NA,NA,NA,NA,NA,NA,NA,NA,NA,NA,NA,NA,NA,NA,NA
cc2c5,task,flow.Sequence,3_0_0_0_3,NA,NA,completion,10446.745,425523,425520.116,425536.782,435983.527,435986.09999999,2023-04-03T08:08:10Z,436000.193,NULL,Fenster,dirisha,s,walakini,tasawari,maarifa,NA,sdf,NA,0,NA,NA,NA,NA,NA,NA,NA,NA,NA,NA,NA,NA,NA,NA,NA,NA,NA,NA,NA
cc2c5,Deep Question,html.Page,3_0_0_0_4_0_0,NA,NA,form submission,3597.807,435986.30000001,435983.527,436000.193,439598,439598.59999999,2023-04-03T08:08:13Z,439600.049,NULL,Tester,wanaojaribu,d,NA,NA,NA,a,NA,NA,0,NA,NA,NA,NA,NA,NA,NA,NA,NA,NA,NA,NA,NA,NA,NA,NA,NA,NA,NA
cc2c5,"""Richtig""-Screen",canvas.Screen,3_0_0_0_4_0_1,NA,NA,skipped,NA,439601.5,NA,NA,439598,439601.80000001,2023-04-03T08:08:13Z,439600.049,NULL,Tester,wanaojaribu,d,NA,NA,NA,NA,sdf,NA,0,NA,NA,NA,NA,NA,NA,NA,NA,NA,NA,NA,NA,NA,NA,NA,NA,NA,NA,NA
cc2c5,"""Falsch""-Screen",canvas.Screen,3_0_0_0_4_0_2,NA,NA,timeout,4999.8,439602.69999999,439583.383,439600.049,444583.183,444587.30000001,2023-04-03T08:08:18Z,444599.849,NULL,Tester,wanaojaribu,d,NA,NA,NA,NA,sdf,0,0,NA,NA,NA,NA,NA,NA,NA,NA,NA,NA,NA,NA,NA,NA,NA,NA,NA,NA,NA
cc2c5,deep,flow.Sequence,3_0_0_0_4_0,NA,NA,completion,8582.99,435986.19999999,435983.527,436000.193,444583.183,444587.69999999,2023-04-03T08:08:18Z,444599.849,NULL,Tester,wanaojaribu,d,NA,NA,NA,NA,sdf,NA,0,NA,NA,NA,NA,NA,NA,NA,NA,NA,NA,NA,NA,NA,NA,NA,NA,NA,NA,NA
cc2c5,shallow,flow.Sequence,3_0_0_0_4_1,NA,NA,skipped,NA,444587.80000001,NA,NA,444583.183,444588,2023-04-03T08:08:18Z,444599.849,NULL,Tester,wanaojaribu,d,NA,NA,NA,NA,sdf,NA,0,NA,NA,NA,NA,NA,NA,NA,NA,NA,NA,NA,NA,NA,NA,NA,NA,NA,NA,NA
cc2c5,task,flow.Sequence,3_0_0_0_4,NA,NA,completion,8582.99,435986.19999999,435983.527,436000.193,444583.183,444588.09999999,2023-04-03T08:08:18Z,444599.849,NULL,Tester,wanaojaribu,d,NA,NA,NA,NA,sdf,NA,0,NA,NA,NA,NA,NA,NA,NA,NA,NA,NA,NA,NA,NA,NA,NA,NA,NA,NA,NA
cc2c5,deep,flow.Sequence,3_0_0_0_5_0,NA,NA,skipped,NA,444588.30000001,NA,NA,444583.183,444588.40000001,2023-04-03T08:08:18Z,444599.849,NULL,Spionage,upelelezi,s,maslahi,utokazo,magangao,NA,sdf,NA,0,NA,NA,NA,NA,NA,NA,NA,NA,NA,NA,NA,NA,NA,NA,NA,NA,NA,NA,NA
cc2c5,Shallow Question,html.Page,3_0_0_0_5_1_0,NA,NA,form submission,5483.551000006,444588.5,444583.183,444599.849,450083.40000001,450083.69999999,2023-04-03T08:08:24Z,450089.794,NULL,Spionage,upelelezi,s,maslahi,utokazo,magangao,upelelezi,NA,NA,0,NA,NA,NA,NA,NA,NA,NA,NA,NA,NA,NA,NA,NA,NA,NA,NA,NA,NA,NA
cc2c5,"""Richtig""-Screen",canvas.Screen,3_0_0_0_5_1_1,NA,NA,timeout,4999.8,450086.80000001,450073.128,450089.794,455072.928,455078.69999999,2023-04-03T08:08:29Z,455089.594,NULL,Spionage,upelelezi,s,maslahi,utokazo,magangao,NA,sdf,1,0,NA,NA,NA,NA,NA,NA,NA,NA,NA,NA,NA,NA,NA,NA,NA,NA,NA,NA,NA
cc2c5,"""Falsch""-Screen",canvas.Screen,3_0_0_0_5_1_2,NA,NA,skipped,NA,455083,NA,NA,455072.928,455083.30000001,2023-04-03T08:08:29Z,455089.594,NULL,Spionage,upelelezi,s,maslahi,utokazo,magangao,NA,sdf,NA,0,NA,NA,NA,NA,NA,NA,NA,NA,NA,NA,NA,NA,NA,NA,NA,NA,NA,NA,NA
cc2c5,shallow,flow.Sequence,3_0_0_0_5_1,NA,NA,completion,10473.079,444588.5,444583.183,444599.849,455072.928,455083.59999999,2023-04-03T08:08:29Z,455089.594,NULL,Spionage,upelelezi,s,maslahi,utokazo,magangao,NA,sdf,NA,0,NA,NA,NA,NA,NA,NA,NA,NA,NA,NA,NA,NA,NA,NA,NA,NA,NA,NA,NA
cc2c5,task,flow.Sequence,3_0_0_0_5,NA,NA,completion,10473.079,444588.30000001,444583.183,444599.849,455072.928,455083.80000001,2023-04-03T08:08:29Z,455089.594,NULL,Spionage,upelelezi,s,maslahi,utokazo,magangao,NA,sdf,NA,0,NA,NA,NA,NA,NA,NA,NA,NA,NA,NA,NA,NA,NA,NA,NA,NA,NA,NA,NA
cc2c5,deep,flow.Sequence,3_0_0_0_6_0,NA,NA,skipped,NA,455084,NA,NA,455072.928,455084.09999999,2023-04-03T08:08:29Z,455089.594,NULL,Entwicklung,maendeleo,s,uangavu,mshindwa,badiliko,NA,sdf,NA,0,NA,NA,NA,NA,NA,NA,NA,NA,NA,NA,NA,NA,NA,NA,NA,NA,NA,NA,NA
cc2c5,Shallow Question,html.Page,3_0_0_0_6_1_0,NA,NA,form submission,6510.7060000119,455084.30000001,455072.928,455089.594,461600.30000001,461600.59999999,2023-04-03T08:08:35Z,461614.105,NULL,Entwicklung,maendeleo,s,uangavu,mshindwa,badiliko,uangavu,NA,NA,0,NA,NA,NA,NA,NA,NA,NA,NA,NA,NA,NA,NA,NA,NA,NA,NA,NA,NA,NA
cc2c5,"""Richtig""-Screen",canvas.Screen,3_0_0_0_6_1_1,NA,NA,skipped,NA,461603.19999999,NA,NA,461600.30000001,461603.5,2023-04-03T08:08:35Z,461614.105,NULL,Entwicklung,maendeleo,s,uangavu,mshindwa,badiliko,NA,sdf,NA,0,NA,NA,NA,NA,NA,NA,NA,NA,NA,NA,NA,NA,NA,NA,NA,NA,NA,NA,NA
cc2c5,"""Falsch""-Screen",canvas.Screen,3_0_0_0_6_1_2,NA,NA,timeout,4999.8,461604.09999999,461597.439,461614.105,466597.239,466598.40000001,2023-04-03T08:08:40Z,466613.905,NULL,Entwicklung,maendeleo,s,uangavu,mshindwa,badiliko,NA,sdf,0,0,NA,NA,NA,NA,NA,NA,NA,NA,NA,NA,NA,NA,NA,NA,NA,NA,NA,NA,NA
cc2c5,shallow,flow.Sequence,3_0_0_0_6_1,NA,NA,completion,11507.645,455084.19999999,455072.928,455089.594,466597.239,466598.80000001,2023-04-03T08:08:40Z,466613.905,NULL,Entwicklung,maendeleo,s,uangavu,mshindwa,badiliko,NA,sdf,NA,0,NA,NA,NA,NA,NA,NA,NA,NA,NA,NA,NA,NA,NA,NA,NA,NA,NA,NA,NA
cc2c5,task,flow.Sequence,3_0_0_0_6,NA,NA,completion,11507.645,455084,455072.928,455089.594,466597.239,466599.09999999,2023-04-03T08:08:40Z,466613.905,NULL,Entwicklung,maendeleo,s,uangavu,mshindwa,badiliko,NA,sdf,NA,0,NA,NA,NA,NA,NA,NA,NA,NA,NA,NA,NA,NA,NA,NA,NA,NA,NA,NA,NA
cc2c5,Deep Question,html.Page,3_0_0_0_7_0_0,NA,NA,form submission,2962.6949999940002,466599.30000001,466597.239,466613.905,469576.59999999,469576.90000001,2023-04-03T08:08:43Z,469587.502,NULL,Niveau,kiwango,d,NA,NA,NA,u,NA,NA,0,NA,NA,NA,NA,NA,NA,NA,NA,NA,NA,NA,NA,NA,NA,NA,NA,NA,NA,NA
cc2c5,"""Richtig""-Screen",canvas.Screen,3_0_0_0_7_0_1,NA,NA,skipped,NA,469579.80000001,NA,NA,469576.59999999,469580.09999999,2023-04-03T08:08:43Z,469587.502,NULL,Niveau,kiwango,d,NA,NA,NA,NA,sdf,NA,0,NA,NA,NA,NA,NA,NA,NA,NA,NA,NA,NA,NA,NA,NA,NA,NA,NA,NA,NA
cc2c5,"""Falsch""-Screen",canvas.Screen,3_0_0_0_7_0_2,NA,NA,timeout,4999.8,469580.90000001,469570.836,469587.502,474570.636,474574.69999999,2023-04-03T08:08:48Z,474587.302,NULL,Niveau,kiwango,d,NA,NA,NA,NA,sdf,0,0,NA,NA,NA,NA,NA,NA,NA,NA,NA,NA,NA,NA,NA,NA,NA,NA,NA,NA,NA
cc2c5,deep,flow.Sequence,3_0_0_0_7_0,NA,NA,completion,7956.731,466599.30000001,466597.239,466613.905,474570.636,474575.19999999,2023-04-03T08:08:48Z,474587.302,NULL,Niveau,kiwango,d,NA,NA,NA,NA,sdf,NA,0,NA,NA,NA,NA,NA,NA,NA,NA,NA,NA,NA,NA,NA,NA,NA,NA,NA,NA,NA
cc2c5,shallow,flow.Sequence,3_0_0_0_7_1,NA,NA,skipped,NA,474575.40000001,NA,NA,474570.636,474575.5,2023-04-03T08:08:48Z,474587.302,NULL,Niveau,kiwango,d,NA,NA,NA,NA,sdf,NA,0,NA,NA,NA,NA,NA,NA,NA,NA,NA,NA,NA,NA,NA,NA,NA,NA,NA,NA,NA
cc2c5,task,flow.Sequence,3_0_0_0_7,NA,NA,completion,7956.731,466599.19999999,466597.239,466613.905,474570.636,474575.59999999,2023-04-03T08:08:48Z,474587.302,NULL,Niveau,kiwango,d,NA,NA,NA,NA,sdf,NA,0,NA,NA,NA,NA,NA,NA,NA,NA,NA,NA,NA,NA,NA,NA,NA,NA,NA,NA,NA
cc2c5,block,flow.Loop,3_0_0_0,NA,NA,completion,74778.585,399777.40000001,399775.385,399792.051,474570.636,474575.90000001,2023-04-03T08:08:48Z,474587.302,NULL,NA,NA,NA,NA,NA,NA,NA,sdf,NA,0,NA,NA,NA,NA,NA,NA,NA,NA,NA,NA,NA,NA,NA,NA,NA,NA,NA,NA,NA
cc2c5,weiter,canvas.Screen,3_0_0_1,sdf,keypress(Space),response,1225.4980000119,474576,474570.636,474587.302,475812.80000001,475823.69999999,2023-04-03T08:08:49Z,475887.25,NULL,NA,NA,NA,NA,NA,NA,NA,sdf,NA,0,NA,NA,NA,NA,NA,NA,NA,NA,NA,NA,NA,NA,NA,NA,NA,NA,NA,NA,NA
cc2c5,check continue,flow.Sequence,3_0_0,NA,NA,completion,76020.749000012,399777.40000001,399775.385,399792.051,475812.80000001,475823.80000001,2023-04-03T08:08:49Z,475887.25,NULL,NA,NA,NA,NA,NA,NA,NA,sdf,NA,0,NA,NA,NA,NA,NA,NA,NA,NA,NA,NA,NA,NA,NA,NA,NA,NA,NA,NA,NA
cc2c5,Deep Question,html.Page,3_0_1_0_0_0_0,NA,NA,form submission,7677.9499999881,475870.90000001,475870.584,475887.25,483565.19999999,483565.80000001,2023-04-03T08:08:57Z,483580.808,NULL,Schüler,mwanafunzi,d,NA,NA,NA,funzi,NA,NA,1,NA,NA,NA,NA,NA,NA,NA,NA,NA,NA,NA,NA,NA,NA,NA,NA,NA,NA,NA
cc2c5,"""Richtig""-Screen",canvas.Screen,3_0_1_0_0_0_1,NA,NA,skipped,NA,483569,NA,NA,483565.19999999,483569.09999999,2023-04-03T08:08:57Z,483580.808,NULL,Schüler,mwanafunzi,d,NA,NA,NA,NA,sdfdsf,NA,1,NA,NA,NA,NA,NA,NA,NA,NA,NA,NA,NA,NA,NA,NA,NA,NA,NA,NA,NA
cc2c5,"""Falsch""-Screen",canvas.Screen,3_0_1_0_0_0_2,NA,NA,timeout,4999.8,483570.09999999,483564.142,483580.808,488563.942,488567.30000001,2023-04-03T08:09:02Z,488580.608,NULL,Schüler,mwanafunzi,d,NA,NA,NA,NA,sdfdsf,0,1,NA,NA,NA,NA,NA,NA,NA,NA,NA,NA,NA,NA,NA,NA,NA,NA,NA,NA,NA
cc2c5,deep,flow.Sequence,3_0_1_0_0_0,NA,NA,completion,12676.692,475870.90000001,475870.584,475887.25,488563.942,488567.59999999,2023-04-03T08:09:02Z,488580.608,NULL,Schüler,mwanafunzi,d,NA,NA,NA,NA,sdfdsf,NA,1,NA,NA,NA,NA,NA,NA,NA,NA,NA,NA,NA,NA,NA,NA,NA,NA,NA,NA,NA
cc2c5,shallow,flow.Sequence,3_0_1_0_0_1,NA,NA,skipped,NA,488567.69999999,NA,NA,488563.942,488567.90000001,2023-04-03T08:09:02Z,488580.608,NULL,Schüler,mwanafunzi,d,NA,NA,NA,NA,sdfdsf,NA,1,NA,NA,NA,NA,NA,NA,NA,NA,NA,NA,NA,NA,NA,NA,NA,NA,NA,NA,NA
cc2c5,task,flow.Sequence,3_0_1_0_0,NA,NA,completion,12676.692,475870.90000001,475870.584,475887.25,488563.942,488568.09999999,2023-04-03T08:09:02Z,488580.608,NULL,Schüler,mwanafunzi,d,NA,NA,NA,NA,sdfdsf,NA,1,NA,NA,NA,NA,NA,NA,NA,NA,NA,NA,NA,NA,NA,NA,NA,NA,NA,NA,NA
cc2c5,Deep Question,html.Page,3_0_1_0_1_0_0,NA,NA,form submission,7437.6920000119,488568.19999999,488563.942,488580.608,496018.30000001,496018.80000001,2023-04-03T08:09:10Z,496029.349,NULL,Niveau,kiwango,d,NA,NA,NA,u,NA,NA,1,NA,NA,NA,NA,NA,NA,NA,NA,NA,NA,NA,NA,NA,NA,NA,NA,NA,NA,NA
cc2c5,"""Richtig""-Screen",canvas.Screen,3_0_1_0_1_0_1,NA,NA,skipped,NA,496021.09999999,NA,NA,496018.30000001,496021.19999999,2023-04-03T08:09:10Z,496029.349,NULL,Niveau,kiwango,d,NA,NA,NA,NA,sdfdsf,NA,1,NA,NA,NA,NA,NA,NA,NA,NA,NA,NA,NA,NA,NA,NA,NA,NA,NA,NA,NA
cc2c5,"""Falsch""-Screen",canvas.Screen,3_0_1_0_1_0_2,NA,NA,timeout,4999.8,496022,496012.683,496029.349,501012.483,501015.09999999,2023-04-03T08:09:15Z,501029.149,NULL,Niveau,kiwango,d,NA,NA,NA,NA,sdfdsf,0,1,NA,NA,NA,NA,NA,NA,NA,NA,NA,NA,NA,NA,NA,NA,NA,NA,NA,NA,NA
cc2c5,deep,flow.Sequence,3_0_1_0_1_0,NA,NA,completion,12431.875,488568.19999999,488563.942,488580.608,501012.483,501015.90000001,2023-04-03T08:09:15Z,501029.149,NULL,Niveau,kiwango,d,NA,NA,NA,NA,sdfdsf,NA,1,NA,NA,NA,NA,NA,NA,NA,NA,NA,NA,NA,NA,NA,NA,NA,NA,NA,NA,NA
cc2c5,shallow,flow.Sequence,3_0_1_0_1_1,NA,NA,skipped,NA,501016,NA,NA,501012.483,501016.09999999,2023-04-03T08:09:15Z,501029.149,NULL,Niveau,kiwango,d,NA,NA,NA,NA,sdfdsf,NA,1,NA,NA,NA,NA,NA,NA,NA,NA,NA,NA,NA,NA,NA,NA,NA,NA,NA,NA,NA
cc2c5,task,flow.Sequence,3_0_1_0_1,NA,NA,completion,12431.875,488568.09999999,488563.942,488580.608,501012.483,501016.19999999,2023-04-03T08:09:15Z,501029.149,NULL,Niveau,kiwango,d,NA,NA,NA,NA,sdfdsf,NA,1,NA,NA,NA,NA,NA,NA,NA,NA,NA,NA,NA,NA,NA,NA,NA,NA,NA,NA,NA
cc2c5,Deep Question,html.Page,3_0_1_0_2_0_0,NA,NA,form submission,4964.1510000119,501016.30000001,501012.483,501029.149,505993.30000001,505993.69999999,2023-04-03T08:09:19Z,506001.944,NULL,Tester,wanaojaribu,d,NA,NA,NA,m,NA,NA,1,NA,NA,NA,NA,NA,NA,NA,NA,NA,NA,NA,NA,NA,NA,NA,NA,NA,NA,NA
cc2c5,"""Richtig""-Screen",canvas.Screen,3_0_1_0_2_0_1,NA,NA,skipped,NA,505996.59999999,NA,NA,505993.30000001,505996.90000001,2023-04-03T08:09:19Z,506001.944,NULL,Tester,wanaojaribu,d,NA,NA,NA,NA,sdfdsf,NA,1,NA,NA,NA,NA,NA,NA,NA,NA,NA,NA,NA,NA,NA,NA,NA,NA,NA,NA,NA
cc2c5,"""Falsch""-Screen",canvas.Screen,3_0_1_0_2_0_2,NA,NA,timeout,4999.8,505997.69999999,505985.278,506001.944,510985.078,510988.69999999,2023-04-03T08:09:24Z,511001.744,NULL,Tester,wanaojaribu,d,NA,NA,NA,NA,sdfdsf,0,1,NA,NA,NA,NA,NA,NA,NA,NA,NA,NA,NA,NA,NA,NA,NA,NA,NA,NA,NA
cc2c5,deep,flow.Sequence,3_0_1_0_2_0,NA,NA,completion,9955.929,501016.30000001,501012.483,501029.149,510985.078,510989,2023-04-03T08:09:24Z,511001.744,NULL,Tester,wanaojaribu,d,NA,NA,NA,NA,sdfdsf,NA,1,NA,NA,NA,NA,NA,NA,NA,NA,NA,NA,NA,NA,NA,NA,NA,NA,NA,NA,NA
cc2c5,shallow,flow.Sequence,3_0_1_0_2_1,NA,NA,skipped,NA,510989.19999999,NA,NA,510985.078,510989.30000001,2023-04-03T08:09:24Z,511001.744,NULL,Tester,wanaojaribu,d,NA,NA,NA,NA,sdfdsf,NA,1,NA,NA,NA,NA,NA,NA,NA,NA,NA,NA,NA,NA,NA,NA,NA,NA,NA,NA,NA
cc2c5,task,flow.Sequence,3_0_1_0_2,NA,NA,completion,9955.929,501016.30000001,501012.483,501029.149,510985.078,510989.5,2023-04-03T08:09:24Z,511001.744,NULL,Tester,wanaojaribu,d,NA,NA,NA,NA,sdfdsf,NA,1,NA,NA,NA,NA,NA,NA,NA,NA,NA,NA,NA,NA,NA,NA,NA,NA,NA,NA,NA
cc2c5,deep,flow.Sequence,3_0_1_0_3_0,NA,NA,skipped,NA,510989.59999999,NA,NA,510985.078,510989.69999999,2023-04-03T08:09:24Z,511001.744,NULL,Vorwurf,mashtaka,s,msukumo,mtangulizi,uenyekiti,NA,sdfdsf,NA,1,NA,NA,NA,NA,NA,NA,NA,NA,NA,NA,NA,NA,NA,NA,NA,NA,NA,NA,NA
cc2c5,Shallow Question,html.Page,3_0_1_0_3_1_0,NA,NA,form submission,6261.355999994,510989.90000001,510985.078,511001.744,517263.09999999,517263.5,2023-04-03T08:09:31Z,517269.325,NULL,Vorwurf,mashtaka,s,msukumo,mtangulizi,uenyekiti,mashtaka,NA,NA,1,NA,NA,NA,NA,NA,NA,NA,NA,NA,NA,NA,NA,NA,NA,NA,NA,NA,NA,NA
cc2c5,"""Richtig""-Screen",canvas.Screen,3_0_1_0_3_1_1,NA,NA,timeout,4999.8,517266.69999999,517252.659,517269.325,522252.459,522253.90000001,2023-04-03T08:09:36Z,522269.125,NULL,Vorwurf,mashtaka,s,msukumo,mtangulizi,uenyekiti,NA,sdfdsf,1,1,NA,NA,NA,NA,NA,NA,NA,NA,NA,NA,NA,NA,NA,NA,NA,NA,NA,NA,NA
cc2c5,"""Falsch""-Screen",canvas.Screen,3_0_1_0_3_1_2,NA,NA,skipped,NA,522257.40000001,NA,NA,522252.459,522257.5,2023-04-03T08:09:36Z,522269.125,NULL,Vorwurf,mashtaka,s,msukumo,mtangulizi,uenyekiti,NA,sdfdsf,NA,1,NA,NA,NA,NA,NA,NA,NA,NA,NA,NA,NA,NA,NA,NA,NA,NA,NA,NA,NA
cc2c5,shallow,flow.Sequence,3_0_1_0_3_1,NA,NA,completion,11250.715,510989.90000001,510985.078,511001.744,522252.459,522257.69999999,2023-04-03T08:09:36Z,522269.125,NULL,Vorwurf,mashtaka,s,msukumo,mtangulizi,uenyekiti,NA,sdfdsf,NA,1,NA,NA,NA,NA,NA,NA,NA,NA,NA,NA,NA,NA,NA,NA,NA,NA,NA,NA,NA
cc2c5,task,flow.Sequence,3_0_1_0_3,NA,NA,completion,11250.715,510989.59999999,510985.078,511001.744,522252.459,522257.90000001,2023-04-03T08:09:36Z,522269.125,NULL,Vorwurf,mashtaka,s,msukumo,mtangulizi,uenyekiti,NA,sdfdsf,NA,1,NA,NA,NA,NA,NA,NA,NA,NA,NA,NA,NA,NA,NA,NA,NA,NA,NA,NA,NA
cc2c5,deep,flow.Sequence,3_0_1_0_4_0,NA,NA,skipped,NA,522258,NA,NA,522252.459,522258.09999999,2023-04-03T08:09:36Z,522269.125,NULL,Entwicklung,maendeleo,s,uangavu,mshindwa,badiliko,NA,sdfdsf,NA,1,NA,NA,NA,NA,NA,NA,NA,NA,NA,NA,NA,NA,NA,NA,NA,NA,NA,NA,NA
cc2c5,Shallow Question,html.Page,3_0_1_0_4_1_0,NA,NA,form submission,4607.875,522258.19999999,522252.459,522269.125,526877,526877.30000000994,2023-04-03T08:09:40Z,526878.646,NULL,Entwicklung,maendeleo,s,uangavu,mshindwa,badiliko,maendeleo,NA,NA,1,NA,NA,NA,NA,NA,NA,NA,NA,NA,NA,NA,NA,NA,NA,NA,NA,NA,NA,NA
cc2c5,"""Richtig""-Screen",canvas.Screen,3_0_1_0_4_1_1,NA,NA,timeout,4999.8,526881.09999999,526861.98,526878.646,531861.78,531865.80000001,2023-04-03T08:09:45Z,531878.446,NULL,Entwicklung,maendeleo,s,uangavu,mshindwa,badiliko,NA,sdfdsf,1,1,NA,NA,NA,NA,NA,NA,NA,NA,NA,NA,NA,NA,NA,NA,NA,NA,NA,NA,NA
cc2c5,"""Falsch""-Screen",canvas.Screen,3_0_1_0_4_1_2,NA,NA,skipped,NA,531870,NA,NA,531861.78,531870.30000001,2023-04-03T08:09:45Z,531878.446,NULL,Entwicklung,maendeleo,s,uangavu,mshindwa,badiliko,NA,sdfdsf,NA,1,NA,NA,NA,NA,NA,NA,NA,NA,NA,NA,NA,NA,NA,NA,NA,NA,NA,NA,NA
cc2c5,shallow,flow.Sequence,3_0_1_0_4_1,NA,NA,completion,9592.655,522258.09999999,522252.459,522269.125,531861.78,531870.59999999,2023-04-03T08:09:45Z,531878.446,NULL,Entwicklung,maendeleo,s,uangavu,mshindwa,badiliko,NA,sdfdsf,NA,1,NA,NA,NA,NA,NA,NA,NA,NA,NA,NA,NA,NA,NA,NA,NA,NA,NA,NA,NA
cc2c5,task,flow.Sequence,3_0_1_0_4,NA,NA,completion,9592.655,522258,522252.459,522269.125,531861.78,531870.69999999006,2023-04-03T08:09:45Z,531878.446,NULL,Entwicklung,maendeleo,s,uangavu,mshindwa,badiliko,NA,sdfdsf,NA,1,NA,NA,NA,NA,NA,NA,NA,NA,NA,NA,NA,NA,NA,NA,NA,NA,NA,NA,NA
cc2c5,deep,flow.Sequence,3_0_1_0_5_0,NA,NA,skipped,NA,531870.90000001,NA,NA,531861.78,531871,2023-04-03T08:09:45Z,531878.446,NULL,Fenster,dirisha,s,walakini,tasawari,maarifa,NA,sdfdsf,NA,1,NA,NA,NA,NA,NA,NA,NA,NA,NA,NA,NA,NA,NA,NA,NA,NA,NA,NA,NA
cc2c5,Shallow Question,html.Page,3_0_1_0_5_1_0,NA,NA,form submission,3359.454000006,531871.19999999006,531861.78,531878.446,535237.90000001,535238.19999999006,2023-04-03T08:09:49Z,535237.736,NULL,Fenster,dirisha,s,walakini,tasawari,maarifa,dirisha,NA,NA,1,NA,NA,NA,NA,NA,NA,NA,NA,NA,NA,NA,NA,NA,NA,NA,NA,NA,NA,NA
cc2c5,"""Richtig""-Screen",canvas.Screen,3_0_1_0_5_1_1,NA,NA,timeout,4999.7999999999,535239.59999999,535221.07,535237.736,540220.87,540225.30000001,2023-04-03T08:09:54Z,540237.536,NULL,Fenster,dirisha,s,walakini,tasawari,maarifa,NA,sdfdsf,1,1,NA,NA,NA,NA,NA,NA,NA,NA,NA,NA,NA,NA,NA,NA,NA,NA,NA,NA,NA
cc2c5,"""Falsch""-Screen",canvas.Screen,3_0_1_0_5_1_2,NA,NA,skipped,NA,540229.69999999006,NA,NA,540220.87,540230.09999999,2023-04-03T08:09:54Z,540237.536,NULL,Fenster,dirisha,s,walakini,tasawari,maarifa,NA,sdfdsf,NA,1,NA,NA,NA,NA,NA,NA,NA,NA,NA,NA,NA,NA,NA,NA,NA,NA,NA,NA,NA
cc2c5,shallow,flow.Sequence,3_0_1_0_5_1,NA,NA,completion,8342.424,531871.09999999,531861.78,531878.446,540220.87,540230.30000001,2023-04-03T08:09:54Z,540237.536,NULL,Fenster,dirisha,s,walakini,tasawari,maarifa,NA,sdfdsf,NA,1,NA,NA,NA,NA,NA,NA,NA,NA,NA,NA,NA,NA,NA,NA,NA,NA,NA,NA,NA
cc2c5,task,flow.Sequence,3_0_1_0_5,NA,NA,completion,8342.424,531870.80000001,531861.78,531878.446,540220.87,540230.5,2023-04-03T08:09:54Z,540237.536,NULL,Fenster,dirisha,s,walakini,tasawari,maarifa,NA,sdfdsf,NA,1,NA,NA,NA,NA,NA,NA,NA,NA,NA,NA,NA,NA,NA,NA,NA,NA,NA,NA,NA
cc2c5,deep,flow.Sequence,3_0_1_0_6_0,NA,NA,skipped,NA,540230.69999999006,NA,NA,540220.87,540230.80000001,2023-04-03T08:09:54Z,540237.536,NULL,Spionage,upelelezi,s,maslahi,utokazo,magangao,NA,sdfdsf,NA,1,NA,NA,NA,NA,NA,NA,NA,NA,NA,NA,NA,NA,NA,NA,NA,NA,NA,NA,NA
cc2c5,Shallow Question,html.Page,3_0_1_0_6_1_0,NA,NA,form submission,3553.964,540230.90000001,540220.87,540237.536,543791.5,543791.90000001,2023-04-03T08:09:57Z,543804.06,NULL,Spionage,upelelezi,s,maslahi,utokazo,magangao,upelelezi,NA,NA,1,NA,NA,NA,NA,NA,NA,NA,NA,NA,NA,NA,NA,NA,NA,NA,NA,NA,NA,NA
cc2c5,"""Richtig""-Screen",canvas.Screen,3_0_1_0_6_1_1,NA,NA,timeout,4999.7999999999,543794.90000001,543787.394,543804.06,548787.194,548791.19999999006,2023-04-03T08:10:02Z,548803.86,NULL,Spionage,upelelezi,s,maslahi,utokazo,magangao,NA,sdfdsf,1,1,NA,NA,NA,NA,NA,NA,NA,NA,NA,NA,NA,NA,NA,NA,NA,NA,NA,NA,NA
cc2c5,"""Falsch""-Screen",canvas.Screen,3_0_1_0_6_1_2,NA,NA,skipped,NA,548795.19999999006,NA,NA,548787.194,548795.5,2023-04-03T08:10:02Z,548803.86,NULL,Spionage,upelelezi,s,maslahi,utokazo,magangao,NA,sdfdsf,NA,1,NA,NA,NA,NA,NA,NA,NA,NA,NA,NA,NA,NA,NA,NA,NA,NA,NA,NA,NA
cc2c5,shallow,flow.Sequence,3_0_1_0_6_1,NA,NA,completion,8549.6580000001,540230.90000001,540220.87,540237.536,548787.194,548795.80000000994,2023-04-03T08:10:02Z,548803.86,NULL,Spionage,upelelezi,s,maslahi,utokazo,magangao,NA,sdfdsf,NA,1,NA,NA,NA,NA,NA,NA,NA,NA,NA,NA,NA,NA,NA,NA,NA,NA,NA,NA,NA
cc2c5,task,flow.Sequence,3_0_1_0_6,NA,NA,completion,8549.6580000001,540230.59999999,540220.87,540237.536,548787.194,548796,2023-04-03T08:10:02Z,548803.86,NULL,Spionage,upelelezi,s,maslahi,utokazo,magangao,NA,sdfdsf,NA,1,NA,NA,NA,NA,NA,NA,NA,NA,NA,NA,NA,NA,NA,NA,NA,NA,NA,NA,NA
cc2c5,Deep Question,html.Page,3_0_1_0_7_0_0,NA,NA,form submission,4352.4400000119,548796.19999999006,548787.194,548803.86,553156.30000000994,553156.69999999006,2023-04-03T08:10:07Z,553170.798,NULL,Papier,karatasi,d,NA,NA,NA,k,NA,NA,1,NA,NA,NA,NA,NA,NA,NA,NA,NA,NA,NA,NA,NA,NA,NA,NA,NA,NA,NA
cc2c5,"""Richtig""-Screen",canvas.Screen,3_0_1_0_7_0_1,NA,NA,skipped,NA,553159.40000001,NA,NA,553156.30000000994,553159.59999999,2023-04-03T08:10:07Z,553170.798,NULL,Papier,karatasi,d,NA,NA,NA,NA,sdfdsf,NA,1,NA,NA,NA,NA,NA,NA,NA,NA,NA,NA,NA,NA,NA,NA,NA,NA,NA,NA,NA
cc2c5,"""Falsch""-Screen",canvas.Screen,3_0_1_0_7_0_2,NA,NA,timeout,4999.8,553160.40000001,553154.132,553170.798,558153.932,558156.5,2023-04-03T08:10:12Z,558170.598,NULL,Papier,karatasi,d,NA,NA,NA,NA,sdfdsf,0,1,NA,NA,NA,NA,NA,NA,NA,NA,NA,NA,NA,NA,NA,NA,NA,NA,NA,NA,NA
cc2c5,deep,flow.Sequence,3_0_1_0_7_0,NA,NA,completion,9350.072,548796.19999999006,548787.194,548803.86,558153.932,558156.90000001,2023-04-03T08:10:12Z,558170.598,NULL,Papier,karatasi,d,NA,NA,NA,NA,sdfdsf,NA,1,NA,NA,NA,NA,NA,NA,NA,NA,NA,NA,NA,NA,NA,NA,NA,NA,NA,NA,NA
cc2c5,shallow,flow.Sequence,3_0_1_0_7_1,NA,NA,skipped,NA,558157.09999999,NA,NA,558153.932,558157.19999999006,2023-04-03T08:10:12Z,558170.598,NULL,Papier,karatasi,d,NA,NA,NA,NA,sdfdsf,NA,1,NA,NA,NA,NA,NA,NA,NA,NA,NA,NA,NA,NA,NA,NA,NA,NA,NA,NA,NA
cc2c5,task,flow.Sequence,3_0_1_0_7,NA,NA,completion,9350.072,548796.09999999,548787.194,548803.86,558153.932,558157.5,2023-04-03T08:10:12Z,558170.598,NULL,Papier,karatasi,d,NA,NA,NA,NA,sdfdsf,NA,1,NA,NA,NA,NA,NA,NA,NA,NA,NA,NA,NA,NA,NA,NA,NA,NA,NA,NA,NA
cc2c5,block,flow.Loop,3_0_1_0,NA,NA,completion,82266.682,475870.90000001,475870.584,475887.25,558153.932,558157.69999999006,2023-04-03T08:10:12Z,558170.598,NULL,NA,NA,NA,NA,NA,NA,NA,sdfdsf,NA,1,NA,NA,NA,NA,NA,NA,NA,NA,NA,NA,NA,NA,NA,NA,NA,NA,NA,NA,NA
cc2c5,weiter,canvas.Screen,3_0_1_1,sdf,keypress(Space),response,1122.802000006,558157.69999999006,558153.932,558170.598,559293.40000001,559303.59999999,2023-04-03T08:10:13Z,559353.884,NULL,NA,NA,NA,NA,NA,NA,NA,sdfdsf,NA,1,NA,NA,NA,NA,NA,NA,NA,NA,NA,NA,NA,NA,NA,NA,NA,NA,NA,NA,NA
cc2c5,check continue,flow.Sequence,3_0_1,NA,NA,completion,83406.150000006,475870.80000001,475870.584,475887.25,559293.40000001,559303.90000001,2023-04-03T08:10:13Z,559353.884,NULL,NA,NA,NA,NA,NA,NA,NA,sdfdsf,NA,1,NA,NA,NA,NA,NA,NA,NA,NA,NA,NA,NA,NA,NA,NA,NA,NA,NA,NA,NA
cc2c5,deep,flow.Sequence,3_0_2_0_0_0,NA,NA,skipped,NA,559343.40000001,NA,NA,559293.40000001,559343.59999999,2023-04-03T08:10:13Z,559353.884,NULL,Spionage,upelelezi,s,maslahi,utokazo,magangao,NA,sdf,NA,2,NA,NA,NA,NA,NA,NA,NA,NA,NA,NA,NA,NA,NA,NA,NA,NA,NA,NA,NA
cc2c5,Shallow Question,html.Page,3_0_2_0_0_1_0,NA,NA,form submission,2951.016000006,559343.59999999,559337.218,559353.884,562304.90000001,562305.30000001,2023-04-03T08:10:16Z,562317.87,NULL,Spionage,upelelezi,s,maslahi,utokazo,magangao,upelelezi,NA,NA,2,NA,NA,NA,NA,NA,NA,NA,NA,NA,NA,NA,NA,NA,NA,NA,NA,NA,NA,NA
cc2c5,"""Richtig""-Screen",canvas.Screen,3_0_2_0_0_1_1,NA,NA,timeout,4999.8,562307.90000001,562301.204,562317.87,567301.004,567303.19999999006,2023-04-03T08:10:21Z,567317.67,NULL,Spionage,upelelezi,s,maslahi,utokazo,magangao,NA,sdf,1,2,NA,NA,NA,NA,NA,NA,NA,NA,NA,NA,NA,NA,NA,NA,NA,NA,NA,NA,NA
cc2c5,"""Falsch""-Screen",canvas.Screen,3_0_2_0_0_1_2,NA,NA,skipped,NA,567307.40000001,NA,NA,567301.004,567307.5,2023-04-03T08:10:21Z,567317.67,NULL,Spionage,upelelezi,s,maslahi,utokazo,magangao,NA,sdf,NA,2,NA,NA,NA,NA,NA,NA,NA,NA,NA,NA,NA,NA,NA,NA,NA,NA,NA,NA,NA
cc2c5,shallow,flow.Sequence,3_0_2_0_0_1,NA,NA,completion,7947.12,559343.59999999,559337.218,559353.884,567301.004,567307.69999999006,2023-04-03T08:10:21Z,567317.67,NULL,Spionage,upelelezi,s,maslahi,utokazo,magangao,NA,sdf,NA,2,NA,NA,NA,NA,NA,NA,NA,NA,NA,NA,NA,NA,NA,NA,NA,NA,NA,NA,NA
cc2c5,task,flow.Sequence,3_0_2_0_0,NA,NA,completion,7947.12,559343.40000001,559337.218,559353.884,567301.004,567307.80000001,2023-04-03T08:10:21Z,567317.67,NULL,Spionage,upelelezi,s,maslahi,utokazo,magangao,NA,sdf,NA,2,NA,NA,NA,NA,NA,NA,NA,NA,NA,NA,NA,NA,NA,NA,NA,NA,NA,NA,NA
cc2c5,deep,flow.Sequence,3_0_2_0_1_0,NA,NA,skipped,NA,567307.90000001,NA,NA,567301.004,567308,2023-04-03T08:10:21Z,567317.67,NULL,Fenster,dirisha,s,walakini,tasawari,maarifa,NA,sdf,NA,2,NA,NA,NA,NA,NA,NA,NA,NA,NA,NA,NA,NA,NA,NA,NA,NA,NA,NA,NA
cc2c5,Shallow Question,html.Page,3_0_2_0_1_1_0,NA,NA,form submission,2779.83,567308.19999999006,567301.004,567317.67,570097.5,570097.80000001,2023-04-03T08:10:24Z,570104.845,NULL,Fenster,dirisha,s,walakini,tasawari,maarifa,dirisha,NA,NA,2,NA,NA,NA,NA,NA,NA,NA,NA,NA,NA,NA,NA,NA,NA,NA,NA,NA,NA,NA
cc2c5,"""Richtig""-Screen",canvas.Screen,3_0_2_0_1_1_1,NA,NA,timeout,4999.8,570101,570088.179,570104.845,575087.979,575090,2023-04-03T08:10:29Z,575104.645,NULL,Fenster,dirisha,s,walakini,tasawari,maarifa,NA,sdf,1,2,NA,NA,NA,NA,NA,NA,NA,NA,NA,NA,NA,NA,NA,NA,NA,NA,NA,NA,NA
cc2c5,"""Falsch""-Screen",canvas.Screen,3_0_2_0_1_1_2,NA,NA,skipped,NA,575094,NA,NA,575087.979,575094.19999999006,2023-04-03T08:10:29Z,575104.645,NULL,Fenster,dirisha,s,walakini,tasawari,maarifa,NA,sdf,NA,2,NA,NA,NA,NA,NA,NA,NA,NA,NA,NA,NA,NA,NA,NA,NA,NA,NA,NA,NA
cc2c5,shallow,flow.Sequence,3_0_2_0_1_1,NA,NA,completion,7770.309,567308.09999999,567301.004,567317.67,575087.979,575094.5,2023-04-03T08:10:29Z,575104.645,NULL,Fenster,dirisha,s,walakini,tasawari,maarifa,NA,sdf,NA,2,NA,NA,NA,NA,NA,NA,NA,NA,NA,NA,NA,NA,NA,NA,NA,NA,NA,NA,NA
cc2c5,task,flow.Sequence,3_0_2_0_1,NA,NA,completion,7770.309,567307.90000001,567301.004,567317.67,575087.979,575094.59999999,2023-04-03T08:10:29Z,575104.645,NULL,Fenster,dirisha,s,walakini,tasawari,maarifa,NA,sdf,NA,2,NA,NA,NA,NA,NA,NA,NA,NA,NA,NA,NA,NA,NA,NA,NA,NA,NA,NA,NA
cc2c5,Deep Question,html.Page,3_0_2_0_2_0_0,NA,NA,form submission,10410.155000012,575094.69999999006,575087.979,575104.645,585514.80000001,585515.30000000994,2023-04-03T08:10:39Z,585519.069,NULL,Tester,wanaojaribu,d,NA,NA,NA,woe,NA,NA,2,NA,NA,NA,NA,NA,NA,NA,NA,NA,NA,NA,NA,NA,NA,NA,NA,NA,NA,NA
cc2c5,"""Richtig""-Screen",canvas.Screen,3_0_2_0_2_0_1,NA,NA,skipped,NA,585518.30000000994,NA,NA,585514.80000001,585518.5,2023-04-03T08:10:39Z,585519.069,NULL,Tester,wanaojaribu,d,NA,NA,NA,NA,sdf,NA,2,NA,NA,NA,NA,NA,NA,NA,NA,NA,NA,NA,NA,NA,NA,NA,NA,NA,NA,NA
cc2c5,"""Falsch""-Screen",canvas.Screen,3_0_2_0_2_0_2,NA,NA,timeout,4999.7999999999,585519.40000001,585502.403,585519.069,590502.203,590508.09999999,2023-04-03T08:10:44Z,590518.869,NULL,Tester,wanaojaribu,d,NA,NA,NA,NA,sdf,0,2,NA,NA,NA,NA,NA,NA,NA,NA,NA,NA,NA,NA,NA,NA,NA,NA,NA,NA,NA
cc2c5,deep,flow.Sequence,3_0_2_0_2_0,NA,NA,completion,15397.558,575094.69999999006,575087.979,575104.645,590502.203,590508.5,2023-04-03T08:10:44Z,590518.869,NULL,Tester,wanaojaribu,d,NA,NA,NA,NA,sdf,NA,2,NA,NA,NA,NA,NA,NA,NA,NA,NA,NA,NA,NA,NA,NA,NA,NA,NA,NA,NA
cc2c5,shallow,flow.Sequence,3_0_2_0_2_1,NA,NA,skipped,NA,590508.59999999,NA,NA,590502.203,590508.80000001,2023-04-03T08:10:44Z,590518.869,NULL,Tester,wanaojaribu,d,NA,NA,NA,NA,sdf,NA,2,NA,NA,NA,NA,NA,NA,NA,NA,NA,NA,NA,NA,NA,NA,NA,NA,NA,NA,NA
cc2c5,task,flow.Sequence,3_0_2_0_2,NA,NA,completion,15397.558,575094.69999999006,575087.979,575104.645,590502.203,590509,2023-04-03T08:10:44Z,590518.869,NULL,Tester,wanaojaribu,d,NA,NA,NA,NA,sdf,NA,2,NA,NA,NA,NA,NA,NA,NA,NA,NA,NA,NA,NA,NA,NA,NA,NA,NA,NA,NA
cc2c5,Deep Question,html.Page,3_0_2_0_3_0_0,NA,NA,form submission,13974.931000012,590509.09999999,590502.203,590518.869,604493.80000001,604494.19999999006,2023-04-03T08:10:58Z,604500.981,NULL,Schüler,mwanafunzi,d,NA,NA,NA,tawafunzii,NA,NA,2,NA,NA,NA,NA,NA,NA,NA,NA,NA,NA,NA,NA,NA,NA,NA,NA,NA,NA,NA
cc2c5,"""Richtig""-Screen",canvas.Screen,3_0_2_0_3_0_1,NA,NA,skipped,NA,604497,NA,NA,604493.80000001,604497.30000001,2023-04-03T08:10:58Z,604500.981,NULL,Schüler,mwanafunzi,d,NA,NA,NA,NA,sdf,NA,2,NA,NA,NA,NA,NA,NA,NA,NA,NA,NA,NA,NA,NA,NA,NA,NA,NA,NA,NA
cc2c5,"""Falsch""-Screen",canvas.Screen,3_0_2_0_3_0_2,NA,NA,timeout,4999.7999999999,604498,604484.315,604500.981,609484.115,609487.59999999,2023-04-03T08:11:03Z,609500.781,NULL,Schüler,mwanafunzi,d,NA,NA,NA,NA,sdf,0,2,NA,NA,NA,NA,NA,NA,NA,NA,NA,NA,NA,NA,NA,NA,NA,NA,NA,NA,NA
cc2c5,deep,flow.Sequence,3_0_2_0_3_0,NA,NA,completion,18965.246,590509.09999999,590502.203,590518.869,609484.115,609488,2023-04-03T08:11:03Z,609500.781,NULL,Schüler,mwanafunzi,d,NA,NA,NA,NA,sdf,NA,2,NA,NA,NA,NA,NA,NA,NA,NA,NA,NA,NA,NA,NA,NA,NA,NA,NA,NA,NA
cc2c5,shallow,flow.Sequence,3_0_2_0_3_1,NA,NA,skipped,NA,609488.09999999,NA,NA,609484.115,609488.30000000994,2023-04-03T08:11:03Z,609500.781,NULL,Schüler,mwanafunzi,d,NA,NA,NA,NA,sdf,NA,2,NA,NA,NA,NA,NA,NA,NA,NA,NA,NA,NA,NA,NA,NA,NA,NA,NA,NA,NA
cc2c5,task,flow.Sequence,3_0_2_0_3,NA,NA,completion,18965.246,590509.09999999,590502.203,590518.869,609484.115,609488.5,2023-04-03T08:11:03Z,609500.781,NULL,Schüler,mwanafunzi,d,NA,NA,NA,NA,sdf,NA,2,NA,NA,NA,NA,NA,NA,NA,NA,NA,NA,NA,NA,NA,NA,NA,NA,NA,NA,NA
cc2c5,deep,flow.Sequence,3_0_2_0_4_0,NA,NA,skipped,NA,609488.59999999,NA,NA,609484.115,609488.69999999006,2023-04-03T08:11:03Z,609500.781,NULL,Entwicklung,maendeleo,s,uangavu,mshindwa,badiliko,NA,sdf,NA,2,NA,NA,NA,NA,NA,NA,NA,NA,NA,NA,NA,NA,NA,NA,NA,NA,NA,NA,NA
cc2c5,Shallow Question,html.Page,3_0_2_0_4_1_0,NA,NA,form submission,4388.219,609488.80000000994,609484.115,609500.781,613889,613889.40000001,2023-04-03T08:11:07Z,613894.319,NULL,Entwicklung,maendeleo,s,uangavu,mshindwa,badiliko,maendeleo,NA,NA,2,NA,NA,NA,NA,NA,NA,NA,NA,NA,NA,NA,NA,NA,NA,NA,NA,NA,NA,NA
cc2c5,"""Richtig""-Screen",canvas.Screen,3_0_2_0_4_1_1,NA,NA,timeout,4999.7999999999,613893.40000001,613877.653,613894.319,618877.453,618882,2023-04-03T08:11:12Z,618894.119,NULL,Entwicklung,maendeleo,s,uangavu,mshindwa,badiliko,NA,sdf,1,2,NA,NA,NA,NA,NA,NA,NA,NA,NA,NA,NA,NA,NA,NA,NA,NA,NA,NA,NA
cc2c5,"""Falsch""-Screen",canvas.Screen,3_0_2_0_4_1_2,NA,NA,skipped,NA,618886,NA,NA,618877.453,618886.30000001,2023-04-03T08:11:12Z,618894.119,NULL,Entwicklung,maendeleo,s,uangavu,mshindwa,badiliko,NA,sdf,NA,2,NA,NA,NA,NA,NA,NA,NA,NA,NA,NA,NA,NA,NA,NA,NA,NA,NA,NA,NA
cc2c5,shallow,flow.Sequence,3_0_2_0_4_1,NA,NA,completion,9376.672,609488.80000000994,609484.115,609500.781,618877.453,618886.59999999,2023-04-03T08:11:12Z,618894.119,NULL,Entwicklung,maendeleo,s,uangavu,mshindwa,badiliko,NA,sdf,NA,2,NA,NA,NA,NA,NA,NA,NA,NA,NA,NA,NA,NA,NA,NA,NA,NA,NA,NA,NA
cc2c5,task,flow.Sequence,3_0_2_0_4,NA,NA,completion,9376.672,609488.5,609484.115,609500.781,618877.453,618886.80000001,2023-04-03T08:11:12Z,618894.119,NULL,Entwicklung,maendeleo,s,uangavu,mshindwa,badiliko,NA,sdf,NA,2,NA,NA,NA,NA,NA,NA,NA,NA,NA,NA,NA,NA,NA,NA,NA,NA,NA,NA,NA
cc2c5,Deep Question,html.Page,3_0_2_0_5_0_0,NA,NA,form submission,5293.181000012,618887,618877.453,618894.119,624187.30000001,624187.59999999,2023-04-03T08:11:18Z,624198.901,NULL,Niveau,kiwango,d,NA,NA,NA,kitango,NA,NA,2,NA,NA,NA,NA,NA,NA,NA,NA,NA,NA,NA,NA,NA,NA,NA,NA,NA,NA,NA
cc2c5,"""Richtig""-Screen",canvas.Screen,3_0_2_0_5_0_1,NA,NA,skipped,NA,624190.30000000994,NA,NA,624187.30000001,624190.5,2023-04-03T08:11:18Z,624198.901,NULL,Niveau,kiwango,d,NA,NA,NA,NA,sdf,NA,2,NA,NA,NA,NA,NA,NA,NA,NA,NA,NA,NA,NA,NA,NA,NA,NA,NA,NA,NA
cc2c5,"""Falsch""-Screen",canvas.Screen,3_0_2_0_5_0_2,NA,NA,timeout,4999.8,624191.30000001,624182.235,624198.901,629182.035,629186,2023-04-03T08:11:23Z,629198.701,NULL,Niveau,kiwango,d,NA,NA,NA,NA,sdf,0,2,NA,NA,NA,NA,NA,NA,NA,NA,NA,NA,NA,NA,NA,NA,NA,NA,NA,NA,NA
cc2c5,deep,flow.Sequence,3_0_2_0_5_0,NA,NA,completion,10287.916,618887,618877.453,618894.119,629182.035,629186.30000001,2023-04-03T08:11:23Z,629198.701,NULL,Niveau,kiwango,d,NA,NA,NA,NA,sdf,NA,2,NA,NA,NA,NA,NA,NA,NA,NA,NA,NA,NA,NA,NA,NA,NA,NA,NA,NA,NA
cc2c5,shallow,flow.Sequence,3_0_2_0_5_1,NA,NA,skipped,NA,629186.5,NA,NA,629182.035,629186.59999999,2023-04-03T08:11:23Z,629198.701,NULL,Niveau,kiwango,d,NA,NA,NA,NA,sdf,NA,2,NA,NA,NA,NA,NA,NA,NA,NA,NA,NA,NA,NA,NA,NA,NA,NA,NA,NA,NA
cc2c5,task,flow.Sequence,3_0_2_0_5,NA,NA,completion,10287.916,618887,618877.453,618894.119,629182.035,629186.69999999006,2023-04-03T08:11:23Z,629198.701,NULL,Niveau,kiwango,d,NA,NA,NA,NA,sdf,NA,2,NA,NA,NA,NA,NA,NA,NA,NA,NA,NA,NA,NA,NA,NA,NA,NA,NA,NA,NA
cc2c5,Deep Question,html.Page,3_0_2_0_6_0_0,NA,NA,form submission,5066.299,629187,629182.035,629198.701,634265,634265.5,2023-04-03T08:11:28Z,634268.614,NULL,Papier,karatasi,d,NA,NA,NA,kari,NA,NA,2,NA,NA,NA,NA,NA,NA,NA,NA,NA,NA,NA,NA,NA,NA,NA,NA,NA,NA,NA
cc2c5,"""Richtig""-Screen",canvas.Screen,3_0_2_0_6_0_1,NA,NA,skipped,NA,634268.5,NA,NA,634265,634268.69999999006,2023-04-03T08:11:28Z,634268.614,NULL,Papier,karatasi,d,NA,NA,NA,NA,sdf,NA,2,NA,NA,NA,NA,NA,NA,NA,NA,NA,NA,NA,NA,NA,NA,NA,NA,NA,NA,NA
cc2c5,"""Falsch""-Screen",canvas.Screen,3_0_2_0_6_0_2,NA,NA,timeout,4999.8,634269.80000001,634251.948,634268.614,639251.748,639255.19999999006,2023-04-03T08:11:33Z,639268.414,NULL,Papier,karatasi,d,NA,NA,NA,NA,sdf,0,2,NA,NA,NA,NA,NA,NA,NA,NA,NA,NA,NA,NA,NA,NA,NA,NA,NA,NA,NA
cc2c5,deep,flow.Sequence,3_0_2_0_6_0,NA,NA,completion,10053.047,629186.90000001,629182.035,629198.701,639251.748,639255.59999999,2023-04-03T08:11:33Z,639268.414,NULL,Papier,karatasi,d,NA,NA,NA,NA,sdf,NA,2,NA,NA,NA,NA,NA,NA,NA,NA,NA,NA,NA,NA,NA,NA,NA,NA,NA,NA,NA
cc2c5,shallow,flow.Sequence,3_0_2_0_6_1,NA,NA,skipped,NA,639255.80000000994,NA,NA,639251.748,639255.90000001,2023-04-03T08:11:33Z,639268.414,NULL,Papier,karatasi,d,NA,NA,NA,NA,sdf,NA,2,NA,NA,NA,NA,NA,NA,NA,NA,NA,NA,NA,NA,NA,NA,NA,NA,NA,NA,NA
cc2c5,task,flow.Sequence,3_0_2_0_6,NA,NA,completion,10053.047,629186.90000001,629182.035,629198.701,639251.748,639256.09999999,2023-04-03T08:11:33Z,639268.414,NULL,Papier,karatasi,d,NA,NA,NA,NA,sdf,NA,2,NA,NA,NA,NA,NA,NA,NA,NA,NA,NA,NA,NA,NA,NA,NA,NA,NA,NA,NA
cc2c5,deep,flow.Sequence,3_0_2_0_7_0,NA,NA,skipped,NA,639256.30000001,NA,NA,639251.748,639256.30000001,2023-04-03T08:11:33Z,639268.414,NULL,Vorwurf,mashtaka,s,msukumo,mtangulizi,uenyekiti,NA,sdf,NA,2,NA,NA,NA,NA,NA,NA,NA,NA,NA,NA,NA,NA,NA,NA,NA,NA,NA,NA,NA
cc2c5,Shallow Question,html.Page,3_0_2_0_7_1_0,NA,NA,form submission,5857.986000006,639256.5,639251.748,639268.414,645126.40000001,645126.80000001,2023-04-03T08:11:39Z,645134.846,NULL,Vorwurf,mashtaka,s,msukumo,mtangulizi,uenyekiti,mashtaka,NA,NA,2,NA,NA,NA,NA,NA,NA,NA,NA,NA,NA,NA,NA,NA,NA,NA,NA,NA,NA,NA
cc2c5,"""Richtig""-Screen",canvas.Screen,3_0_2_0_7_1_1,NA,NA,timeout,4999.7999999999,645130.19999999006,645118.18,645134.846,650117.98,650119.40000001,2023-04-03T08:11:44Z,650134.646,NULL,Vorwurf,mashtaka,s,msukumo,mtangulizi,uenyekiti,NA,sdf,1,2,NA,NA,NA,NA,NA,NA,NA,NA,NA,NA,NA,NA,NA,NA,NA,NA,NA,NA,NA
cc2c5,"""Falsch""-Screen",canvas.Screen,3_0_2_0_7_1_2,NA,NA,skipped,NA,650123.5,NA,NA,650117.98,650123.69999999006,2023-04-03T08:11:44Z,650134.646,NULL,Vorwurf,mashtaka,s,msukumo,mtangulizi,uenyekiti,NA,sdf,NA,2,NA,NA,NA,NA,NA,NA,NA,NA,NA,NA,NA,NA,NA,NA,NA,NA,NA,NA,NA
cc2c5,shallow,flow.Sequence,3_0_2_0_7_1,NA,NA,completion,10849.566,639256.40000001,639251.748,639268.414,650117.98,650124,2023-04-03T08:11:44Z,650134.646,NULL,Vorwurf,mashtaka,s,msukumo,mtangulizi,uenyekiti,NA,sdf,NA,2,NA,NA,NA,NA,NA,NA,NA,NA,NA,NA,NA,NA,NA,NA,NA,NA,NA,NA,NA
cc2c5,task,flow.Sequence,3_0_2_0_7,NA,NA,completion,10849.566,639256.19999999006,639251.748,639268.414,650117.98,650124.19999999006,2023-04-03T08:11:44Z,650134.646,NULL,Vorwurf,mashtaka,s,msukumo,mtangulizi,uenyekiti,NA,sdf,NA,2,NA,NA,NA,NA,NA,NA,NA,NA,NA,NA,NA,NA,NA,NA,NA,NA,NA,NA,NA
cc2c5,block,flow.Loop,3_0_2_0,NA,NA,completion,90764.096,559343.30000000994,559337.218,559353.884,650117.98,650124.40000001,2023-04-03T08:11:44Z,650134.646,NULL,NA,NA,NA,NA,NA,NA,NA,sdf,NA,2,NA,NA,NA,NA,NA,NA,NA,NA,NA,NA,NA,NA,NA,NA,NA,NA,NA,NA,NA
cc2c5,weiter,canvas.Screen,3_0_2_1,sdf,keypress(Space),response,1024.4539999941,650124.5,650117.98,650134.646,651159.09999999,651168.30000001,2023-04-03T08:11:45Z,651201.27,NULL,NA,NA,NA,NA,NA,NA,NA,sdf,NA,2,NA,NA,NA,NA,NA,NA,NA,NA,NA,NA,NA,NA,NA,NA,NA,NA,NA,NA,NA
cc2c5,check continue,flow.Sequence,3_0_2,NA,NA,completion,91805.215999994,559343.30000000994,559337.218,559353.884,651159.09999999,651168.80000001,2023-04-03T08:11:45Z,651201.27,NULL,NA,NA,NA,NA,NA,NA,NA,sdf,NA,2,NA,NA,NA,NA,NA,NA,NA,NA,NA,NA,NA,NA,NA,NA,NA,NA,NA,NA,NA
cc2c5,Deep Question,html.Page,3_0_3_0_0_0_0,NA,NA,form submission,10443.329999994,651209.19999999006,651167.938,651201.27,661644.59999999,661645.09999999,2023-04-03T08:11:55Z,661656.936,NULL,Niveau,kiwango,d,NA,NA,NA,mashuewoko,NA,NA,3,NA,NA,NA,NA,NA,NA,NA,NA,NA,NA,NA,NA,NA,NA,NA,NA,NA,NA,NA
cc2c5,"""Richtig""-Screen",canvas.Screen,3_0_3_0_0_0_1,NA,NA,skipped,NA,661648,NA,NA,661644.59999999,661648.19999999006,2023-04-03T08:11:55Z,661656.936,NULL,Niveau,kiwango,d,NA,NA,NA,NA,qt,NA,3,NA,NA,NA,NA,NA,NA,NA,NA,NA,NA,NA,NA,NA,NA,NA,NA,NA,NA,NA
cc2c5,"""Falsch""-Screen",canvas.Screen,3_0_3_0_0_0_2,NA,NA,timeout,4999.8,661649.09999999,661640.27,661656.936,666640.07,666642,2023-04-03T08:12:00Z,666656.736,NULL,Niveau,kiwango,d,NA,NA,NA,NA,qt,0,3,NA,NA,NA,NA,NA,NA,NA,NA,NA,NA,NA,NA,NA,NA,NA,NA,NA,NA,NA
cc2c5,deep,flow.Sequence,3_0_3_0_0_0,NA,NA,completion,15438.8,651209.19999999006,651167.938,651201.27,666640.07,666642.40000001,2023-04-03T08:12:00Z,666656.736,NULL,Niveau,kiwango,d,NA,NA,NA,NA,qt,NA,3,NA,NA,NA,NA,NA,NA,NA,NA,NA,NA,NA,NA,NA,NA,NA,NA,NA,NA,NA
cc2c5,shallow,flow.Sequence,3_0_3_0_0_1,NA,NA,skipped,NA,666642.5,NA,NA,666640.07,666642.69999999006,2023-04-03T08:12:00Z,666656.736,NULL,Niveau,kiwango,d,NA,NA,NA,NA,qt,NA,3,NA,NA,NA,NA,NA,NA,NA,NA,NA,NA,NA,NA,NA,NA,NA,NA,NA,NA,NA
cc2c5,task,flow.Sequence,3_0_3_0_0,NA,NA,completion,15438.8,651209.19999999006,651167.938,651201.27,666640.07,666642.80000001,2023-04-03T08:12:00Z,666656.736,NULL,Niveau,kiwango,d,NA,NA,NA,NA,qt,NA,3,NA,NA,NA,NA,NA,NA,NA,NA,NA,NA,NA,NA,NA,NA,NA,NA,NA,NA,NA
cc2c5,deep,flow.Sequence,3_0_3_0_1_0,NA,NA,skipped,NA,666643,NA,NA,666640.07,666643,2023-04-03T08:12:00Z,666656.736,NULL,Entwicklung,maendeleo,s,uangavu,mshindwa,badiliko,NA,qt,NA,3,NA,NA,NA,NA,NA,NA,NA,NA,NA,NA,NA,NA,NA,NA,NA,NA,NA,NA,NA
cc2c5,Shallow Question,html.Page,3_0_3_0_1_1_0,NA,NA,form submission,5477.863999994,666643.19999999006,666640.07,666656.736,672134.59999999,672135.19999999006,2023-04-03T08:12:06Z,672148.601,NULL,Entwicklung,maendeleo,s,uangavu,mshindwa,badiliko,maendeleo,NA,NA,3,NA,NA,NA,NA,NA,NA,NA,NA,NA,NA,NA,NA,NA,NA,NA,NA,NA,NA,NA
cc2c5,"""Richtig""-Screen",canvas.Screen,3_0_3_0_1_1_1,NA,NA,timeout,4999.7999999999,672138.80000000994,672131.935,672148.601,677131.735,677137.5,2023-04-03T08:12:11Z,677148.401,NULL,Entwicklung,maendeleo,s,uangavu,mshindwa,badiliko,NA,qt,1,3,NA,NA,NA,NA,NA,NA,NA,NA,NA,NA,NA,NA,NA,NA,NA,NA,NA,NA,NA
cc2c5,"""Falsch""-Screen",canvas.Screen,3_0_3_0_1_1_2,NA,NA,skipped,NA,677141.5,NA,NA,677131.735,677141.90000001,2023-04-03T08:12:11Z,677148.401,NULL,Entwicklung,maendeleo,s,uangavu,mshindwa,badiliko,NA,qt,NA,3,NA,NA,NA,NA,NA,NA,NA,NA,NA,NA,NA,NA,NA,NA,NA,NA,NA,NA,NA
cc2c5,shallow,flow.Sequence,3_0_3_0_1_1,NA,NA,completion,10474.999,666643.19999999006,666640.07,666656.736,677131.735,677142.09999999,2023-04-03T08:12:11Z,677148.401,NULL,Entwicklung,maendeleo,s,uangavu,mshindwa,badiliko,NA,qt,NA,3,NA,NA,NA,NA,NA,NA,NA,NA,NA,NA,NA,NA,NA,NA,NA,NA,NA,NA,NA
cc2c5,task,flow.Sequence,3_0_3_0_1,NA,NA,completion,10474.999,666642.90000001,666640.07,666656.736,677131.735,677142.40000001,2023-04-03T08:12:11Z,677148.401,NULL,Entwicklung,maendeleo,s,uangavu,mshindwa,badiliko,NA,qt,NA,3,NA,NA,NA,NA,NA,NA,NA,NA,NA,NA,NA,NA,NA,NA,NA,NA,NA,NA,NA
cc2c5,deep,flow.Sequence,3_0_3_0_2_0,NA,NA,skipped,NA,677142.5,NA,NA,677131.735,677142.59999999,2023-04-03T08:12:11Z,677148.401,NULL,Fenster,dirisha,s,walakini,tasawari,maarifa,NA,qt,NA,3,NA,NA,NA,NA,NA,NA,NA,NA,NA,NA,NA,NA,NA,NA,NA,NA,NA,NA,NA
cc2c5,Shallow Question,html.Page,3_0_3_0_2_1_0,NA,NA,form submission,3092.1989999941,677142.80000001,677131.735,677148.401,680240.59999999,680241,2023-04-03T08:12:14Z,680245.501,NULL,Fenster,dirisha,s,walakini,tasawari,maarifa,dirisha,NA,NA,3,NA,NA,NA,NA,NA,NA,NA,NA,NA,NA,NA,NA,NA,NA,NA,NA,NA,NA,NA
cc2c5,"""Richtig""-Screen",canvas.Screen,3_0_3_0_2_1_1,NA,NA,timeout,4999.7999999999,680243.90000001,680228.835,680245.501,685228.635,685233.90000001,2023-04-03T08:12:19Z,685245.301,NULL,Fenster,dirisha,s,walakini,tasawari,maarifa,NA,qt,1,3,NA,NA,NA,NA,NA,NA,NA,NA,NA,NA,NA,NA,NA,NA,NA,NA,NA,NA,NA
cc2c5,"""Falsch""-Screen",canvas.Screen,3_0_3_0_2_1_2,NA,NA,skipped,NA,685238.30000001,NA,NA,685228.635,685238.5,2023-04-03T08:12:19Z,685245.301,NULL,Fenster,dirisha,s,walakini,tasawari,maarifa,NA,qt,NA,3,NA,NA,NA,NA,NA,NA,NA,NA,NA,NA,NA,NA,NA,NA,NA,NA,NA,NA,NA
cc2c5,shallow,flow.Sequence,3_0_3_0_2_1,NA,NA,completion,8080.2340000001,677142.80000001,677131.735,677148.401,685228.635,685238.90000001,2023-04-03T08:12:19Z,685245.301,NULL,Fenster,dirisha,s,walakini,tasawari,maarifa,NA,qt,NA,3,NA,NA,NA,NA,NA,NA,NA,NA,NA,NA,NA,NA,NA,NA,NA,NA,NA,NA,NA
cc2c5,task,flow.Sequence,3_0_3_0_2,NA,NA,completion,8080.2340000001,677142.5,677131.735,677148.401,685228.635,685239,2023-04-03T08:12:19Z,685245.301,NULL,Fenster,dirisha,s,walakini,tasawari,maarifa,NA,qt,NA,3,NA,NA,NA,NA,NA,NA,NA,NA,NA,NA,NA,NA,NA,NA,NA,NA,NA,NA,NA
cc2c5,Deep Question,html.Page,3_0_3_0_3_0_0,NA,NA,form submission,9051.8989999881,685239.19999999006,685228.635,685245.301,694297.19999999006,694297.40000001,2023-04-03T08:12:28Z,694313.384,NULL,Tester,wanaojaribu,d,NA,NA,NA,wakamuoko,NA,NA,3,NA,NA,NA,NA,NA,NA,NA,NA,NA,NA,NA,NA,NA,NA,NA,NA,NA,NA,NA
cc2c5,"""Richtig""-Screen",canvas.Screen,3_0_3_0_3_0_1,NA,NA,skipped,NA,694299.59999999,NA,NA,694297.19999999006,694299.69999999006,2023-04-03T08:12:28Z,694313.384,NULL,Tester,wanaojaribu,d,NA,NA,NA,NA,qt,NA,3,NA,NA,NA,NA,NA,NA,NA,NA,NA,NA,NA,NA,NA,NA,NA,NA,NA,NA,NA
cc2c5,"""Falsch""-Screen",canvas.Screen,3_0_3_0_3_0_2,NA,NA,timeout,4999.8,694300.30000001,694296.718,694313.384,699296.518,699298,2023-04-03T08:12:33Z,699313.184,NULL,Tester,wanaojaribu,d,NA,NA,NA,NA,qt,0,3,NA,NA,NA,NA,NA,NA,NA,NA,NA,NA,NA,NA,NA,NA,NA,NA,NA,NA,NA
cc2c5,deep,flow.Sequence,3_0_3_0_3_0,NA,NA,completion,14051.217,685239.19999999006,685228.635,685245.301,699296.518,699298.40000001,2023-04-03T08:12:33Z,699313.184,NULL,Tester,wanaojaribu,d,NA,NA,NA,NA,qt,NA,3,NA,NA,NA,NA,NA,NA,NA,NA,NA,NA,NA,NA,NA,NA,NA,NA,NA,NA,NA
cc2c5,shallow,flow.Sequence,3_0_3_0_3_1,NA,NA,skipped,NA,699298.59999999,NA,NA,699296.518,699298.69999999006,2023-04-03T08:12:33Z,699313.184,NULL,Tester,wanaojaribu,d,NA,NA,NA,NA,qt,NA,3,NA,NA,NA,NA,NA,NA,NA,NA,NA,NA,NA,NA,NA,NA,NA,NA,NA,NA,NA
cc2c5,task,flow.Sequence,3_0_3_0_3,NA,NA,completion,14051.217,685239.19999999006,685228.635,685245.301,699296.518,699298.90000001,2023-04-03T08:12:33Z,699313.184,NULL,Tester,wanaojaribu,d,NA,NA,NA,NA,qt,NA,3,NA,NA,NA,NA,NA,NA,NA,NA,NA,NA,NA,NA,NA,NA,NA,NA,NA,NA,NA
cc2c5,Deep Question,html.Page,3_0_3_0_4_0_0,NA,NA,form submission,4585.1160000119,699299.09999999,699296.518,699313.184,703898.30000001,703898.90000001,2023-04-03T08:12:37Z,703899.75,NULL,Papier,karatasi,d,NA,NA,NA,karatasi,NA,NA,3,NA,NA,NA,NA,NA,NA,NA,NA,NA,NA,NA,NA,NA,NA,NA,NA,NA,NA,NA
cc2c5,"""Richtig""-Screen",canvas.Screen,3_0_3_0_4_0_1,NA,NA,timeout,4999.8,703901.80000001,703883.084,703899.75,708882.884,708887.19999999006,2023-04-03T08:12:42Z,708899.55,NULL,Papier,karatasi,d,NA,NA,NA,NA,qt,1,3,NA,NA,NA,NA,NA,NA,NA,NA,NA,NA,NA,NA,NA,NA,NA,NA,NA,NA,NA
cc2c5,"""Falsch""-Screen",canvas.Screen,3_0_3_0_4_0_2,NA,NA,skipped,NA,708891,NA,NA,708882.884,708891.30000001,2023-04-03T08:12:42Z,708899.55,NULL,Papier,karatasi,d,NA,NA,NA,NA,qt,NA,3,NA,NA,NA,NA,NA,NA,NA,NA,NA,NA,NA,NA,NA,NA,NA,NA,NA,NA,NA
cc2c5,deep,flow.Sequence,3_0_3_0_4_0,NA,NA,completion,9569.7,699299,699296.518,699313.184,708882.884,708891.5,2023-04-03T08:12:42Z,708899.55,NULL,Papier,karatasi,d,NA,NA,NA,NA,qt,NA,3,NA,NA,NA,NA,NA,NA,NA,NA,NA,NA,NA,NA,NA,NA,NA,NA,NA,NA,NA
cc2c5,shallow,flow.Sequence,3_0_3_0_4_1,NA,NA,skipped,NA,708891.69999999006,NA,NA,708882.884,708891.80000001,2023-04-03T08:12:42Z,708899.55,NULL,Papier,karatasi,d,NA,NA,NA,NA,qt,NA,3,NA,NA,NA,NA,NA,NA,NA,NA,NA,NA,NA,NA,NA,NA,NA,NA,NA,NA,NA
cc2c5,task,flow.Sequence,3_0_3_0_4,NA,NA,completion,9569.7,699298.90000001,699296.518,699313.184,708882.884,708891.90000001,2023-04-03T08:12:42Z,708899.55,NULL,Papier,karatasi,d,NA,NA,NA,NA,qt,NA,3,NA,NA,NA,NA,NA,NA,NA,NA,NA,NA,NA,NA,NA,NA,NA,NA,NA,NA,NA
cc2c5,deep,flow.Sequence,3_0_3_0_5_0,NA,NA,skipped,NA,708892.09999999,NA,NA,708882.884,708892.30000000994,2023-04-03T08:12:42Z,708899.55,NULL,Vorwurf,mashtaka,s,msukumo,mtangulizi,uenyekiti,NA,qt,NA,3,NA,NA,NA,NA,NA,NA,NA,NA,NA,NA,NA,NA,NA,NA,NA,NA,NA,NA,NA
cc2c5,Shallow Question,html.Page,3_0_3_0_5_1_0,NA,NA,form submission,3554.7500000119,708892.40000001,708882.884,708899.55,712454.30000001,712454.59999999,2023-04-03T08:12:46Z,712460.143,NULL,Vorwurf,mashtaka,s,msukumo,mtangulizi,uenyekiti,mashtaka,NA,NA,3,NA,NA,NA,NA,NA,NA,NA,NA,NA,NA,NA,NA,NA,NA,NA,NA,NA,NA,NA
cc2c5,"""Richtig""-Screen",canvas.Screen,3_0_3_0_5_1_1,NA,NA,timeout,4999.7999999999,712458.5,712443.477,712460.143,717443.277,717447.40000001,2023-04-03T08:12:51Z,717459.943,NULL,Vorwurf,mashtaka,s,msukumo,mtangulizi,uenyekiti,NA,qt,1,3,NA,NA,NA,NA,NA,NA,NA,NA,NA,NA,NA,NA,NA,NA,NA,NA,NA,NA,NA
cc2c5,"""Falsch""-Screen",canvas.Screen,3_0_3_0_5_1_2,NA,NA,skipped,NA,717451.40000001,NA,NA,717443.277,717451.59999999,2023-04-03T08:12:51Z,717459.943,NULL,Vorwurf,mashtaka,s,msukumo,mtangulizi,uenyekiti,NA,qt,NA,3,NA,NA,NA,NA,NA,NA,NA,NA,NA,NA,NA,NA,NA,NA,NA,NA,NA,NA,NA
cc2c5,shallow,flow.Sequence,3_0_3_0_5_1,NA,NA,completion,8543.727,708892.40000001,708882.884,708899.55,717443.277,717452,2023-04-03T08:12:51Z,717459.943,NULL,Vorwurf,mashtaka,s,msukumo,mtangulizi,uenyekiti,NA,qt,NA,3,NA,NA,NA,NA,NA,NA,NA,NA,NA,NA,NA,NA,NA,NA,NA,NA,NA,NA,NA
cc2c5,task,flow.Sequence,3_0_3_0_5,NA,NA,completion,8543.727,708892.09999999,708882.884,708899.55,717443.277,717452.19999999006,2023-04-03T08:12:51Z,717459.943,NULL,Vorwurf,mashtaka,s,msukumo,mtangulizi,uenyekiti,NA,qt,NA,3,NA,NA,NA,NA,NA,NA,NA,NA,NA,NA,NA,NA,NA,NA,NA,NA,NA,NA,NA
cc2c5,Deep Question,html.Page,3_0_3_0_6_0_0,NA,NA,form submission,11010.156999994,717452.40000001,717443.277,717459.943,728470.09999999,728470.19999999006,2023-04-03T08:13:02Z,728485.348,NULL,Schüler,mwanafunzi,d,NA,NA,NA,twanafunzi,NA,NA,3,NA,NA,NA,NA,NA,NA,NA,NA,NA,NA,NA,NA,NA,NA,NA,NA,NA,NA,NA
cc2c5,"""Richtig""-Screen",canvas.Screen,3_0_3_0_6_0_1,NA,NA,skipped,NA,728471.80000001,NA,NA,728470.09999999,728472,2023-04-03T08:13:02Z,728485.348,NULL,Schüler,mwanafunzi,d,NA,NA,NA,NA,qt,NA,3,NA,NA,NA,NA,NA,NA,NA,NA,NA,NA,NA,NA,NA,NA,NA,NA,NA,NA,NA
cc2c5,"""Falsch""-Screen",canvas.Screen,3_0_3_0_6_0_2,NA,NA,timeout,4999.8,728472.5,728468.682,728485.348,733468.482,733471.19999999006,2023-04-03T08:13:07Z,733485.148,NULL,Schüler,mwanafunzi,d,NA,NA,NA,NA,qt,0,3,NA,NA,NA,NA,NA,NA,NA,NA,NA,NA,NA,NA,NA,NA,NA,NA,NA,NA,NA
cc2c5,deep,flow.Sequence,3_0_3_0_6_0,NA,NA,completion,16008.539,717452.30000001,717443.277,717459.943,733468.482,733471.69999999006,2023-04-03T08:13:07Z,733485.148,NULL,Schüler,mwanafunzi,d,NA,NA,NA,NA,qt,NA,3,NA,NA,NA,NA,NA,NA,NA,NA,NA,NA,NA,NA,NA,NA,NA,NA,NA,NA,NA
cc2c5,shallow,flow.Sequence,3_0_3_0_6_1,NA,NA,skipped,NA,733471.80000001,NA,NA,733468.482,733471.90000001,2023-04-03T08:13:07Z,733485.148,NULL,Schüler,mwanafunzi,d,NA,NA,NA,NA,qt,NA,3,NA,NA,NA,NA,NA,NA,NA,NA,NA,NA,NA,NA,NA,NA,NA,NA,NA,NA,NA
cc2c5,task,flow.Sequence,3_0_3_0_6,NA,NA,completion,16008.539,717452.30000001,717443.277,717459.943,733468.482,733472.09999999,2023-04-03T08:13:07Z,733485.148,NULL,Schüler,mwanafunzi,d,NA,NA,NA,NA,qt,NA,3,NA,NA,NA,NA,NA,NA,NA,NA,NA,NA,NA,NA,NA,NA,NA,NA,NA,NA,NA
cc2c5,deep,flow.Sequence,3_0_3_0_7_0,NA,NA,skipped,NA,733472.30000001,NA,NA,733468.482,733472.40000001,2023-04-03T08:13:07Z,733485.148,NULL,Spionage,upelelezi,s,maslahi,utokazo,magangao,NA,qt,NA,3,NA,NA,NA,NA,NA,NA,NA,NA,NA,NA,NA,NA,NA,NA,NA,NA,NA,NA,NA
cc2c5,Shallow Question,html.Page,3_0_3_0_7_1_0,NA,NA,form submission,3618.051999988,733472.5,733468.482,733485.148,737103.19999999006,737103.80000001,2023-04-03T08:13:11Z,737117.557,NULL,Spionage,upelelezi,s,maslahi,utokazo,magangao,upelelezi,NA,NA,3,NA,NA,NA,NA,NA,NA,NA,NA,NA,NA,NA,NA,NA,NA,NA,NA,NA,NA,NA
cc2c5,"""Richtig""-Screen",canvas.Screen,3_0_3_0_7_1_1,NA,NA,timeout,4999.7999999999,737107.59999999,737100.891,737117.557,742100.691,742103.40000001,2023-04-03T08:13:16Z,742117.357,NULL,Spionage,upelelezi,s,maslahi,utokazo,magangao,NA,qt,1,3,NA,NA,NA,NA,NA,NA,NA,NA,NA,NA,NA,NA,NA,NA,NA,NA,NA,NA,NA
cc2c5,"""Falsch""-Screen",canvas.Screen,3_0_3_0_7_1_2,NA,NA,skipped,NA,742107.5,NA,NA,742100.691,742107.80000001,2023-04-03T08:13:16Z,742117.357,NULL,Spionage,upelelezi,s,maslahi,utokazo,magangao,NA,qt,NA,3,NA,NA,NA,NA,NA,NA,NA,NA,NA,NA,NA,NA,NA,NA,NA,NA,NA,NA,NA
cc2c5,shallow,flow.Sequence,3_0_3_0_7_1,NA,NA,completion,8615.5429999999,733472.40000001,733468.482,733485.148,742100.691,742108.19999999006,2023-04-03T08:13:16Z,742117.357,NULL,Spionage,upelelezi,s,maslahi,utokazo,magangao,NA,qt,NA,3,NA,NA,NA,NA,NA,NA,NA,NA,NA,NA,NA,NA,NA,NA,NA,NA,NA,NA,NA
cc2c5,task,flow.Sequence,3_0_3_0_7,NA,NA,completion,8615.5429999999,733472.30000001,733468.482,733485.148,742100.691,742108.40000001,2023-04-03T08:13:16Z,742117.357,NULL,Spionage,upelelezi,s,maslahi,utokazo,magangao,NA,qt,NA,3,NA,NA,NA,NA,NA,NA,NA,NA,NA,NA,NA,NA,NA,NA,NA,NA,NA,NA,NA
cc2c5,block,flow.Loop,3_0_3_0,NA,NA,completion,90899.421,651208.5,651167.938,651201.27,742100.691,742108.5,2023-04-03T08:13:16Z,742117.357,NULL,NA,NA,NA,NA,NA,NA,NA,qt,NA,3,NA,NA,NA,NA,NA,NA,NA,NA,NA,NA,NA,NA,NA,NA,NA,NA,NA,NA,NA
cc2c5,weiter,canvas.Screen,3_0_3_1,sdf,keypress(Space),response,929.04300000600006,742108.59999999,742100.691,742117.357,743046.40000001,743055.19999999006,2023-04-03T08:13:17Z,743083.985,NULL,NA,NA,NA,NA,NA,NA,NA,qt,NA,3,NA,NA,NA,NA,NA,NA,NA,NA,NA,NA,NA,NA,NA,NA,NA,NA,NA,NA,NA
cc2c5,check continue,flow.Sequence,3_0_3,NA,NA,completion,91845.130000006,651208.5,651167.938,651201.27,743046.40000001,743055.69999999006,2023-04-03T08:13:17Z,743083.985,NULL,NA,NA,NA,NA,NA,NA,NA,qt,NA,3,NA,NA,NA,NA,NA,NA,NA,NA,NA,NA,NA,NA,NA,NA,NA,NA,NA,NA,NA
cc2c5,Deep Question,html.Page,3_0_4_0_0_0_0,NA,NA,form submission,4974.515,743091.59999999,743050.653,743083.985,748058.5,748058.90000001,2023-04-03T08:13:22Z,748061.723,NULL,Niveau,kiwango,d,NA,NA,NA,kiwango,NA,NA,4,NA,NA,NA,NA,NA,NA,NA,NA,NA,NA,NA,NA,NA,NA,NA,NA,NA,NA,NA
cc2c5,"""Richtig""-Screen",canvas.Screen,3_0_4_0_0_0_1,NA,NA,timeout,4999.8,748061.19999999006,748045.057,748061.723,753044.857,753045.80000001,2023-04-03T08:13:27Z,753061.523,NULL,Niveau,kiwango,d,NA,NA,NA,NA,sd,1,4,NA,NA,NA,NA,NA,NA,NA,NA,NA,NA,NA,NA,NA,NA,NA,NA,NA,NA,NA
cc2c5,"""Falsch""-Screen",canvas.Screen,3_0_4_0_0_0_2,NA,NA,skipped,NA,753047.90000001,NA,NA,753044.857,753048.09999999,2023-04-03T08:13:27Z,753061.523,NULL,Niveau,kiwango,d,NA,NA,NA,NA,sd,NA,4,NA,NA,NA,NA,NA,NA,NA,NA,NA,NA,NA,NA,NA,NA,NA,NA,NA,NA,NA
cc2c5,deep,flow.Sequence,3_0_4_0_0_0,NA,NA,completion,9960.872,743090.90000001,743050.653,743083.985,753044.857,753048.30000001,2023-04-03T08:13:27Z,753061.523,NULL,Niveau,kiwango,d,NA,NA,NA,NA,sd,NA,4,NA,NA,NA,NA,NA,NA,NA,NA,NA,NA,NA,NA,NA,NA,NA,NA,NA,NA,NA
cc2c5,shallow,flow.Sequence,3_0_4_0_0_1,NA,NA,skipped,NA,753048.30000001,NA,NA,753044.857,753048.5,2023-04-03T08:13:27Z,753061.523,NULL,Niveau,kiwango,d,NA,NA,NA,NA,sd,NA,4,NA,NA,NA,NA,NA,NA,NA,NA,NA,NA,NA,NA,NA,NA,NA,NA,NA,NA,NA
cc2c5,task,flow.Sequence,3_0_4_0_0,NA,NA,completion,9960.872,743090.90000001,743050.653,743083.985,753044.857,753048.5,2023-04-03T08:13:27Z,753061.523,NULL,Niveau,kiwango,d,NA,NA,NA,NA,sd,NA,4,NA,NA,NA,NA,NA,NA,NA,NA,NA,NA,NA,NA,NA,NA,NA,NA,NA,NA,NA
cc2c5,deep,flow.Sequence,3_0_4_0_1_0,NA,NA,skipped,NA,753048.5,NA,NA,753044.857,753048.59999999,2023-04-03T08:13:27Z,753061.523,NULL,Fenster,dirisha,s,walakini,tasawari,maarifa,NA,sd,NA,4,NA,NA,NA,NA,NA,NA,NA,NA,NA,NA,NA,NA,NA,NA,NA,NA,NA,NA,NA
cc2c5,Shallow Question,html.Page,3_0_4_0_1_1_0,NA,NA,form submission,2641.3770000059,753048.69999999006,753044.857,753061.523,755702.90000001,755703.30000001,2023-04-03T08:13:29Z,755709.384,NULL,Fenster,dirisha,s,walakini,tasawari,maarifa,dirisha,NA,NA,4,NA,NA,NA,NA,NA,NA,NA,NA,NA,NA,NA,NA,NA,NA,NA,NA,NA,NA,NA
cc2c5,"""Richtig""-Screen",canvas.Screen,3_0_4_0_1_1_1,NA,NA,timeout,4999.8,755706.09999999,755692.718,755709.384,760692.518,760695.5,2023-04-03T08:13:34Z,760709.184,NULL,Fenster,dirisha,s,walakini,tasawari,maarifa,NA,sd,1,4,NA,NA,NA,NA,NA,NA,NA,NA,NA,NA,NA,NA,NA,NA,NA,NA,NA,NA,NA
cc2c5,"""Falsch""-Screen",canvas.Screen,3_0_4_0_1_1_2,NA,NA,skipped,NA,760699.30000001,NA,NA,760692.518,760699.59999999,2023-04-03T08:13:34Z,760709.184,NULL,Fenster,dirisha,s,walakini,tasawari,maarifa,NA,sd,NA,4,NA,NA,NA,NA,NA,NA,NA,NA,NA,NA,NA,NA,NA,NA,NA,NA,NA,NA,NA
cc2c5,shallow,flow.Sequence,3_0_4_0_1_1,NA,NA,completion,7630.995,753048.59999999,753044.857,753061.523,760692.518,760699.80000000994,2023-04-03T08:13:34Z,760709.184,NULL,Fenster,dirisha,s,walakini,tasawari,maarifa,NA,sd,NA,4,NA,NA,NA,NA,NA,NA,NA,NA,NA,NA,NA,NA,NA,NA,NA,NA,NA,NA,NA
cc2c5,task,flow.Sequence,3_0_4_0_1,NA,NA,completion,7630.995,753048.5,753044.857,753061.523,760692.518,760699.90000001,2023-04-03T08:13:34Z,760709.184,NULL,Fenster,dirisha,s,walakini,tasawari,maarifa,NA,sd,NA,4,NA,NA,NA,NA,NA,NA,NA,NA,NA,NA,NA,NA,NA,NA,NA,NA,NA,NA,NA
cc2c5,deep,flow.Sequence,3_0_4_0_2_0,NA,NA,skipped,NA,760700.09999999,NA,NA,760692.518,760700.19999999006,2023-04-03T08:13:34Z,760709.184,NULL,Vorwurf,mashtaka,s,msukumo,mtangulizi,uenyekiti,NA,sd,NA,4,NA,NA,NA,NA,NA,NA,NA,NA,NA,NA,NA,NA,NA,NA,NA,NA,NA,NA,NA
cc2c5,Shallow Question,html.Page,3_0_4_0_2_1_0,NA,NA,form submission,3637.1160000119,760700.40000001,760692.518,760709.184,764346.30000001,764346.80000001,2023-04-03T08:13:38Z,764349.746,NULL,Vorwurf,mashtaka,s,msukumo,mtangulizi,uenyekiti,mashtaka,NA,NA,4,NA,NA,NA,NA,NA,NA,NA,NA,NA,NA,NA,NA,NA,NA,NA,NA,NA,NA,NA
cc2c5,"""Richtig""-Screen",canvas.Screen,3_0_4_0_2_1_1,NA,NA,timeout,4999.7999999999,764350.59999999,764333.08,764349.746,769332.88,769335.40000001,2023-04-03T08:13:43Z,769349.546,NULL,Vorwurf,mashtaka,s,msukumo,mtangulizi,uenyekiti,NA,sd,1,4,NA,NA,NA,NA,NA,NA,NA,NA,NA,NA,NA,NA,NA,NA,NA,NA,NA,NA,NA
cc2c5,"""Falsch""-Screen",canvas.Screen,3_0_4_0_2_1_2,NA,NA,skipped,NA,769339.30000001,NA,NA,769332.88,769339.69999999006,2023-04-03T08:13:43Z,769349.546,NULL,Vorwurf,mashtaka,s,msukumo,mtangulizi,uenyekiti,NA,sd,NA,4,NA,NA,NA,NA,NA,NA,NA,NA,NA,NA,NA,NA,NA,NA,NA,NA,NA,NA,NA
cc2c5,shallow,flow.Sequence,3_0_4_0_2_1,NA,NA,completion,8623.696,760700.40000001,760692.518,760709.184,769332.88,769340,2023-04-03T08:13:43Z,769349.546,NULL,Vorwurf,mashtaka,s,msukumo,mtangulizi,uenyekiti,NA,sd,NA,4,NA,NA,NA,NA,NA,NA,NA,NA,NA,NA,NA,NA,NA,NA,NA,NA,NA,NA,NA
cc2c5,task,flow.Sequence,3_0_4_0_2,NA,NA,completion,8623.696,760700.09999999,760692.518,760709.184,769332.88,769340.09999999,2023-04-03T08:13:43Z,769349.546,NULL,Vorwurf,mashtaka,s,msukumo,mtangulizi,uenyekiti,NA,sd,NA,4,NA,NA,NA,NA,NA,NA,NA,NA,NA,NA,NA,NA,NA,NA,NA,NA,NA,NA,NA
cc2c5,Deep Question,html.Page,3_0_4_0_3_0_0,NA,NA,form submission,14758.754000012,769340.40000001,769332.88,769349.546,784108.30000000994,784108.90000001,2023-04-03T08:13:58Z,784110.87,NULL,Tester,wanaojaribu,d,NA,NA,NA,wao,NA,NA,4,NA,NA,NA,NA,NA,NA,NA,NA,NA,NA,NA,NA,NA,NA,NA,NA,NA,NA,NA
cc2c5,"""Richtig""-Screen",canvas.Screen,3_0_4_0_3_0_1,NA,NA,skipped,NA,784112,NA,NA,784108.30000000994,784112.19999999006,2023-04-03T08:13:58Z,784110.87,NULL,Tester,wanaojaribu,d,NA,NA,NA,NA,sd,NA,4,NA,NA,NA,NA,NA,NA,NA,NA,NA,NA,NA,NA,NA,NA,NA,NA,NA,NA,NA
cc2c5,"""Falsch""-Screen",canvas.Screen,3_0_4_0_3_0_2,NA,NA,timeout,4999.8,784113.19999999006,784094.204,784110.87,789094.004,789095.30000001,2023-04-03T08:14:03Z,789110.67,NULL,Tester,wanaojaribu,d,NA,NA,NA,NA,sd,0,4,NA,NA,NA,NA,NA,NA,NA,NA,NA,NA,NA,NA,NA,NA,NA,NA,NA,NA,NA
cc2c5,deep,flow.Sequence,3_0_4_0_3_0,NA,NA,completion,19744.458,769340.40000001,769332.88,769349.546,789094.004,789095.59999999,2023-04-03T08:14:03Z,789110.67,NULL,Tester,wanaojaribu,d,NA,NA,NA,NA,sd,NA,4,NA,NA,NA,NA,NA,NA,NA,NA,NA,NA,NA,NA,NA,NA,NA,NA,NA,NA,NA
cc2c5,shallow,flow.Sequence,3_0_4_0_3_1,NA,NA,skipped,NA,789095.69999999006,NA,NA,789094.004,789095.90000001,2023-04-03T08:14:03Z,789110.67,NULL,Tester,wanaojaribu,d,NA,NA,NA,NA,sd,NA,4,NA,NA,NA,NA,NA,NA,NA,NA,NA,NA,NA,NA,NA,NA,NA,NA,NA,NA,NA
cc2c5,task,flow.Sequence,3_0_4_0_3,NA,NA,completion,19744.458,769340.30000001,769332.88,769349.546,789094.004,789096,2023-04-03T08:14:03Z,789110.67,NULL,Tester,wanaojaribu,d,NA,NA,NA,NA,sd,NA,4,NA,NA,NA,NA,NA,NA,NA,NA,NA,NA,NA,NA,NA,NA,NA,NA,NA,NA,NA
cc2c5,deep,flow.Sequence,3_0_4_0_4_0,NA,NA,skipped,NA,789096.19999999006,NA,NA,789094.004,789096.30000000994,2023-04-03T08:14:03Z,789110.67,NULL,Spionage,upelelezi,s,maslahi,utokazo,magangao,NA,sd,NA,4,NA,NA,NA,NA,NA,NA,NA,NA,NA,NA,NA,NA,NA,NA,NA,NA,NA,NA,NA
cc2c5,Shallow Question,html.Page,3_0_4_0_4_1_0,NA,NA,form submission,4308.029999988,789096.5,789094.004,789110.67,793418.69999999006,793419.19999999006,2023-04-03T08:14:07Z,793427.003,NULL,Spionage,upelelezi,s,maslahi,utokazo,magangao,upelelezi,NA,NA,4,NA,NA,NA,NA,NA,NA,NA,NA,NA,NA,NA,NA,NA,NA,NA,NA,NA,NA,NA
cc2c5,"""Richtig""-Screen",canvas.Screen,3_0_4_0_4_1_1,NA,NA,timeout,4999.7999999999,793423.59999999,793410.337,793427.003,798410.137,798412.59999999,2023-04-03T08:14:12Z,798426.803,NULL,Spionage,upelelezi,s,maslahi,utokazo,magangao,NA,sd,1,4,NA,NA,NA,NA,NA,NA,NA,NA,NA,NA,NA,NA,NA,NA,NA,NA,NA,NA,NA
cc2c5,"""Falsch""-Screen",canvas.Screen,3_0_4_0_4_1_2,NA,NA,skipped,NA,798416.40000001,NA,NA,798410.137,798416.80000001,2023-04-03T08:14:12Z,798426.803,NULL,Spionage,upelelezi,s,maslahi,utokazo,magangao,NA,sd,NA,4,NA,NA,NA,NA,NA,NA,NA,NA,NA,NA,NA,NA,NA,NA,NA,NA,NA,NA,NA
cc2c5,shallow,flow.Sequence,3_0_4_0_4_1,NA,NA,completion,9299.4669999999,789096.40000001,789094.004,789110.67,798410.137,798417,2023-04-03T08:14:12Z,798426.803,NULL,Spionage,upelelezi,s,maslahi,utokazo,magangao,NA,sd,NA,4,NA,NA,NA,NA,NA,NA,NA,NA,NA,NA,NA,NA,NA,NA,NA,NA,NA,NA,NA
cc2c5,task,flow.Sequence,3_0_4_0_4,NA,NA,completion,9299.4669999999,789096.19999999006,789094.004,789110.67,798410.137,798417.30000001,2023-04-03T08:14:12Z,798426.803,NULL,Spionage,upelelezi,s,maslahi,utokazo,magangao,NA,sd,NA,4,NA,NA,NA,NA,NA,NA,NA,NA,NA,NA,NA,NA,NA,NA,NA,NA,NA,NA,NA
cc2c5,Deep Question,html.Page,3_0_4_0_5_0_0,NA,NA,form submission,4681.097000006,798417.40000001,798410.137,798426.803,803107.90000001,803108.40000001,2023-04-03T08:14:17Z,803114.387,NULL,Papier,karatasi,d,NA,NA,NA,karatasi,NA,NA,4,NA,NA,NA,NA,NA,NA,NA,NA,NA,NA,NA,NA,NA,NA,NA,NA,NA,NA,NA
cc2c5,"""Richtig""-Screen",canvas.Screen,3_0_4_0_5_0_1,NA,NA,timeout,4999.8,803111.30000001,803097.721,803114.387,808097.521,808102.90000001,2023-04-03T08:14:22Z,808114.187,NULL,Papier,karatasi,d,NA,NA,NA,NA,sd,1,4,NA,NA,NA,NA,NA,NA,NA,NA,NA,NA,NA,NA,NA,NA,NA,NA,NA,NA,NA
cc2c5,"""Falsch""-Screen",canvas.Screen,3_0_4_0_5_0_2,NA,NA,skipped,NA,808107,NA,NA,808097.521,808107.30000001,2023-04-03T08:14:22Z,808114.187,NULL,Papier,karatasi,d,NA,NA,NA,NA,sd,NA,4,NA,NA,NA,NA,NA,NA,NA,NA,NA,NA,NA,NA,NA,NA,NA,NA,NA,NA,NA
cc2c5,deep,flow.Sequence,3_0_4_0_5_0,NA,NA,completion,9670.718,798417.40000001,798410.137,798426.803,808097.521,808107.69999999006,2023-04-03T08:14:22Z,808114.187,NULL,Papier,karatasi,d,NA,NA,NA,NA,sd,NA,4,NA,NA,NA,NA,NA,NA,NA,NA,NA,NA,NA,NA,NA,NA,NA,NA,NA,NA,NA
cc2c5,shallow,flow.Sequence,3_0_4_0_5_1,NA,NA,skipped,NA,808107.80000000994,NA,NA,808097.521,808107.90000001,2023-04-03T08:14:22Z,808114.187,NULL,Papier,karatasi,d,NA,NA,NA,NA,sd,NA,4,NA,NA,NA,NA,NA,NA,NA,NA,NA,NA,NA,NA,NA,NA,NA,NA,NA,NA,NA
cc2c5,task,flow.Sequence,3_0_4_0_5,NA,NA,completion,9670.718,798417.40000001,798410.137,798426.803,808097.521,808108.09999999,2023-04-03T08:14:22Z,808114.187,NULL,Papier,karatasi,d,NA,NA,NA,NA,sd,NA,4,NA,NA,NA,NA,NA,NA,NA,NA,NA,NA,NA,NA,NA,NA,NA,NA,NA,NA,NA
cc2c5,Deep Question,html.Page,3_0_4_0_6_0_0,NA,NA,form submission,7853.912999994,808108.30000001,808097.521,808114.187,815968.09999999,815968.5,2023-04-03T08:14:29Z,815976.47,NULL,Schüler,mwanafunzi,d,NA,NA,NA,mwanafunzi,NA,NA,4,NA,NA,NA,NA,NA,NA,NA,NA,NA,NA,NA,NA,NA,NA,NA,NA,NA,NA,NA
cc2c5,"""Richtig""-Screen",canvas.Screen,3_0_4_0_6_0_1,NA,NA,timeout,4999.8,815971.30000000994,815959.804,815976.47,820959.604,820962.19999999006,2023-04-03T08:14:34Z,820976.27,NULL,Schüler,mwanafunzi,d,NA,NA,NA,NA,sd,1,4,NA,NA,NA,NA,NA,NA,NA,NA,NA,NA,NA,NA,NA,NA,NA,NA,NA,NA,NA
cc2c5,"""Falsch""-Screen",canvas.Screen,3_0_4_0_6_0_2,NA,NA,skipped,NA,820966.19999999006,NA,NA,820959.604,820966.40000001,2023-04-03T08:14:34Z,820976.27,NULL,Schüler,mwanafunzi,d,NA,NA,NA,NA,sd,NA,4,NA,NA,NA,NA,NA,NA,NA,NA,NA,NA,NA,NA,NA,NA,NA,NA,NA,NA,NA
cc2c5,deep,flow.Sequence,3_0_4_0_6_0,NA,NA,completion,12845.417,808108.30000001,808097.521,808114.187,820959.604,820966.69999999006,2023-04-03T08:14:34Z,820976.27,NULL,Schüler,mwanafunzi,d,NA,NA,NA,NA,sd,NA,4,NA,NA,NA,NA,NA,NA,NA,NA,NA,NA,NA,NA,NA,NA,NA,NA,NA,NA,NA
cc2c5,shallow,flow.Sequence,3_0_4_0_6_1,NA,NA,skipped,NA,820966.90000001,NA,NA,820959.604,820966.90000001,2023-04-03T08:14:34Z,820976.27,NULL,Schüler,mwanafunzi,d,NA,NA,NA,NA,sd,NA,4,NA,NA,NA,NA,NA,NA,NA,NA,NA,NA,NA,NA,NA,NA,NA,NA,NA,NA,NA
cc2c5,task,flow.Sequence,3_0_4_0_6,NA,NA,completion,12845.417,808108.19999999006,808097.521,808114.187,820959.604,820967.19999999006,2023-04-03T08:14:34Z,820976.27,NULL,Schüler,mwanafunzi,d,NA,NA,NA,NA,sd,NA,4,NA,NA,NA,NA,NA,NA,NA,NA,NA,NA,NA,NA,NA,NA,NA,NA,NA,NA,NA
cc2c5,deep,flow.Sequence,3_0_4_0_7_0,NA,NA,skipped,NA,820967.30000001,NA,NA,820959.604,820967.40000001,2023-04-03T08:14:34Z,820976.27,NULL,Entwicklung,maendeleo,s,uangavu,mshindwa,badiliko,NA,sd,NA,4,NA,NA,NA,NA,NA,NA,NA,NA,NA,NA,NA,NA,NA,NA,NA,NA,NA,NA,NA
cc2c5,Shallow Question,html.Page,3_0_4_0_7_1_0,NA,NA,form submission,3123.6300000059,820967.5,820959.604,820976.27,824099.90000001,824100.30000001,2023-04-03T08:14:38Z,824111.297,NULL,Entwicklung,maendeleo,s,uangavu,mshindwa,badiliko,maendeleo,NA,NA,4,NA,NA,NA,NA,NA,NA,NA,NA,NA,NA,NA,NA,NA,NA,NA,NA,NA,NA,NA
cc2c5,"""Richtig""-Screen",canvas.Screen,3_0_4_0_7_1_1,NA,NA,timeout,4999.7999999999,824103,824094.631,824111.297,829094.431,829100.19999999006,2023-04-03T08:14:43Z,829111.097,NULL,Entwicklung,maendeleo,s,uangavu,mshindwa,badiliko,NA,sd,1,4,NA,NA,NA,NA,NA,NA,NA,NA,NA,NA,NA,NA,NA,NA,NA,NA,NA,NA,NA
cc2c5,"""Falsch""-Screen",canvas.Screen,3_0_4_0_7_1_2,NA,NA,skipped,NA,829104.59999999,NA,NA,829094.431,829104.80000001,2023-04-03T08:14:43Z,829111.097,NULL,Entwicklung,maendeleo,s,uangavu,mshindwa,badiliko,NA,sd,NA,4,NA,NA,NA,NA,NA,NA,NA,NA,NA,NA,NA,NA,NA,NA,NA,NA,NA,NA,NA
cc2c5,shallow,flow.Sequence,3_0_4_0_7_1,NA,NA,completion,8118.161,820967.5,820959.604,820976.27,829094.431,829105.19999999006,2023-04-03T08:14:43Z,829111.097,NULL,Entwicklung,maendeleo,s,uangavu,mshindwa,badiliko,NA,sd,NA,4,NA,NA,NA,NA,NA,NA,NA,NA,NA,NA,NA,NA,NA,NA,NA,NA,NA,NA,NA
cc2c5,task,flow.Sequence,3_0_4_0_7,NA,NA,completion,8118.161,820967.19999999006,820959.604,820976.27,829094.431,829105.5,2023-04-03T08:14:43Z,829111.097,NULL,Entwicklung,maendeleo,s,uangavu,mshindwa,badiliko,NA,sd,NA,4,NA,NA,NA,NA,NA,NA,NA,NA,NA,NA,NA,NA,NA,NA,NA,NA,NA,NA,NA
cc2c5,block,flow.Loop,3_0_4_0,NA,NA,completion,86010.446,743090.80000000994,743050.653,743083.985,829094.431,829105.69999999006,2023-04-03T08:14:43Z,829111.097,NULL,NA,NA,NA,NA,NA,NA,NA,sd,NA,4,NA,NA,NA,NA,NA,NA,NA,NA,NA,NA,NA,NA,NA,NA,NA,NA,NA,NA,NA
cc2c5,weiter,canvas.Screen,3_0_4_1,sdf,keypress(Space),response,983.20300001197,829105.80000000994,829094.431,829111.097,830094.30000000994,830102.69999999006,2023-04-03T08:14:44Z,830644.369,NULL,NA,NA,NA,NA,NA,NA,NA,sd,NA,4,NA,NA,NA,NA,NA,NA,NA,NA,NA,NA,NA,NA,NA,NA,NA,NA,NA,NA,NA
cc2c5,check continue,flow.Sequence,3_0_4,NA,NA,completion,87010.315000012,743090.80000000994,743050.653,743083.985,830094.30000000994,830103,2023-04-03T08:14:44Z,830644.369,NULL,NA,NA,NA,NA,NA,NA,NA,sd,NA,4,NA,NA,NA,NA,NA,NA,NA,NA,NA,NA,NA,NA,NA,NA,NA,NA,NA,NA,NA
cc2c5,check continue,flow.Sequence,3_0_5,NA,NA,skipped,NA,830135.59999999,NA,NA,830094.30000000994,830135.69999999006,2023-04-03T08:14:44Z,830644.369,NULL,NA,NA,NA,NA,NA,NA,NA,sdf,NA,5,NA,NA,NA,NA,NA,NA,NA,NA,NA,NA,NA,NA,NA,NA,NA,NA,NA,NA,NA
cc2c5,check continue,flow.Sequence,3_0_6,NA,NA,skipped,NA,830161.09999999,NA,NA,830094.30000000994,830161.19999999006,2023-04-03T08:14:44Z,830644.369,NULL,NA,NA,NA,NA,NA,NA,NA,dfs,NA,6,NA,NA,NA,NA,NA,NA,NA,NA,NA,NA,NA,NA,NA,NA,NA,NA,NA,NA,NA
cc2c5,check continue,flow.Sequence,3_0_7,NA,NA,skipped,NA,830184.80000001,NA,NA,830094.30000000994,830184.90000001,2023-04-03T08:14:44Z,830644.369,NULL,NA,NA,NA,NA,NA,NA,NA,df,NA,7,NA,NA,NA,NA,NA,NA,NA,NA,NA,NA,NA,NA,NA,NA,NA,NA,NA,NA,NA
cc2c5,check continue,flow.Sequence,3_0_8,NA,NA,skipped,NA,830206.69999999006,NA,NA,830094.30000000994,830207,2023-04-03T08:14:44Z,830644.369,NULL,NA,NA,NA,NA,NA,NA,NA,dfs,NA,8,NA,NA,NA,NA,NA,NA,NA,NA,NA,NA,NA,NA,NA,NA,NA,NA,NA,NA,NA
cc2c5,check continue,flow.Sequence,3_0_9,NA,NA,skipped,NA,830228.40000001,NA,NA,830094.30000000994,830228.59999999,2023-04-03T08:14:44Z,830644.369,NULL,NA,NA,NA,NA,NA,NA,NA,dsf,NA,9,NA,NA,NA,NA,NA,NA,NA,NA,NA,NA,NA,NA,NA,NA,NA,NA,NA,NA,NA
cc2c5,check continue,flow.Sequence,3_0_10,NA,NA,skipped,NA,830246.09999999,NA,NA,830094.30000000994,830246.19999999006,2023-04-03T08:14:44Z,830644.369,NULL,NA,NA,NA,NA,NA,NA,NA,df,NA,10,NA,NA,NA,NA,NA,NA,NA,NA,NA,NA,NA,NA,NA,NA,NA,NA,NA,NA,NA
cc2c5,check continue,flow.Sequence,3_0_11,NA,NA,skipped,NA,830268.59999999,NA,NA,830094.30000000994,830268.69999999006,2023-04-03T08:14:44Z,830644.369,NULL,NA,NA,NA,NA,NA,NA,NA,dfs,NA,11,NA,NA,NA,NA,NA,NA,NA,NA,NA,NA,NA,NA,NA,NA,NA,NA,NA,NA,NA
cc2c5,check continue,flow.Sequence,3_0_12,NA,NA,skipped,NA,830288.90000001,NA,NA,830094.30000000994,830289,2023-04-03T08:14:44Z,830644.369,NULL,NA,NA,NA,NA,NA,NA,NA,dsf,NA,12,NA,NA,NA,NA,NA,NA,NA,NA,NA,NA,NA,NA,NA,NA,NA,NA,NA,NA,NA
cc2c5,check continue,flow.Sequence,3_0_13,NA,NA,skipped,NA,830308.30000001,NA,NA,830094.30000000994,830308.5,2023-04-03T08:14:44Z,830644.369,NULL,NA,NA,NA,NA,NA,NA,NA,dsf,NA,13,NA,NA,NA,NA,NA,NA,NA,NA,NA,NA,NA,NA,NA,NA,NA,NA,NA,NA,NA
cc2c5,check continue,flow.Sequence,3_0_14,NA,NA,skipped,NA,830325.90000001,NA,NA,830094.30000000994,830326,2023-04-03T08:14:44Z,830644.369,NULL,NA,NA,NA,NA,NA,NA,NA,NA,NA,14,NA,NA,NA,NA,NA,NA,NA,NA,NA,NA,NA,NA,NA,NA,NA,NA,NA,NA,NA
cc2c5,check continue,flow.Sequence,3_0_15,NA,NA,skipped,NA,830350.59999999,NA,NA,830094.30000000994,830350.80000000994,2023-04-03T08:14:44Z,830644.369,NULL,NA,NA,NA,NA,NA,NA,NA,NA,NA,15,NA,NA,NA,NA,NA,NA,NA,NA,NA,NA,NA,NA,NA,NA,NA,NA,NA,NA,NA
cc2c5,check continue,flow.Sequence,3_0_16,NA,NA,skipped,NA,830368.19999999006,NA,NA,830094.30000000994,830368.40000001,2023-04-03T08:14:44Z,830644.369,NULL,NA,NA,NA,NA,NA,NA,NA,NA,NA,16,NA,NA,NA,NA,NA,NA,NA,NA,NA,NA,NA,NA,NA,NA,NA,NA,NA,NA,NA
cc2c5,check continue,flow.Sequence,3_0_17,NA,NA,skipped,NA,830386,NA,NA,830094.30000000994,830386.19999999006,2023-04-03T08:14:44Z,830644.369,NULL,NA,NA,NA,NA,NA,NA,NA,NA,NA,17,NA,NA,NA,NA,NA,NA,NA,NA,NA,NA,NA,NA,NA,NA,NA,NA,NA,NA,NA
cc2c5,check continue,flow.Sequence,3_0_18,NA,NA,skipped,NA,830402,NA,NA,830094.30000000994,830402.09999999,2023-04-03T08:14:44Z,830644.369,NULL,NA,NA,NA,NA,NA,NA,NA,NA,NA,18,NA,NA,NA,NA,NA,NA,NA,NA,NA,NA,NA,NA,NA,NA,NA,NA,NA,NA,NA
cc2c5,check continue,flow.Sequence,3_0_19,NA,NA,skipped,NA,830424,NA,NA,830094.30000000994,830424.19999999006,2023-04-03T08:14:44Z,830644.369,NULL,NA,NA,NA,NA,NA,NA,NA,NA,NA,19,NA,NA,NA,NA,NA,NA,NA,NA,NA,NA,NA,NA,NA,NA,NA,NA,NA,NA,NA
cc2c5,check continue,flow.Sequence,3_0_20,NA,NA,skipped,NA,830441.90000001,NA,NA,830094.30000000994,830442,2023-04-03T08:14:44Z,830644.369,NULL,NA,NA,NA,NA,NA,NA,NA,NA,NA,20,NA,NA,NA,NA,NA,NA,NA,NA,NA,NA,NA,NA,NA,NA,NA,NA,NA,NA,NA
cc2c5,check continue,flow.Sequence,3_0_21,NA,NA,skipped,NA,830458.09999999,NA,NA,830094.30000000994,830458.19999999006,2023-04-03T08:14:44Z,830644.369,NULL,NA,NA,NA,NA,NA,NA,NA,NA,NA,21,NA,NA,NA,NA,NA,NA,NA,NA,NA,NA,NA,NA,NA,NA,NA,NA,NA,NA,NA
cc2c5,check continue,flow.Sequence,3_0_22,NA,NA,skipped,NA,830475.5,NA,NA,830094.30000000994,830475.59999999,2023-04-03T08:14:44Z,830644.369,NULL,NA,NA,NA,NA,NA,NA,NA,NA,NA,22,NA,NA,NA,NA,NA,NA,NA,NA,NA,NA,NA,NA,NA,NA,NA,NA,NA,NA,NA
cc2c5,check continue,flow.Sequence,3_0_23,NA,NA,skipped,NA,830489.19999999006,NA,NA,830094.30000000994,830489.40000001,2023-04-03T08:14:44Z,830644.369,NULL,NA,NA,NA,NA,NA,NA,NA,NA,NA,23,NA,NA,NA,NA,NA,NA,NA,NA,NA,NA,NA,NA,NA,NA,NA,NA,NA,NA,NA
cc2c5,check continue,flow.Sequence,3_0_24,NA,NA,skipped,NA,830505.5,NA,NA,830094.30000000994,830505.5,2023-04-03T08:14:44Z,830644.369,NULL,NA,NA,NA,NA,NA,NA,NA,NA,NA,24,NA,NA,NA,NA,NA,NA,NA,NA,NA,NA,NA,NA,NA,NA,NA,NA,NA,NA,NA
cc2c5,check continue,flow.Sequence,3_0_25,NA,NA,skipped,NA,830521.5,NA,NA,830094.30000000994,830521.69999999006,2023-04-03T08:14:44Z,830644.369,NULL,NA,NA,NA,NA,NA,NA,NA,NA,NA,25,NA,NA,NA,NA,NA,NA,NA,NA,NA,NA,NA,NA,NA,NA,NA,NA,NA,NA,NA
cc2c5,check continue,flow.Sequence,3_0_26,NA,NA,skipped,NA,830538.09999999,NA,NA,830094.30000000994,830538.19999999006,2023-04-03T08:14:44Z,830644.369,NULL,NA,NA,NA,NA,NA,NA,NA,NA,NA,26,NA,NA,NA,NA,NA,NA,NA,NA,NA,NA,NA,NA,NA,NA,NA,NA,NA,NA,NA
cc2c5,check continue,flow.Sequence,3_0_27,NA,NA,skipped,NA,830558.80000001,NA,NA,830094.30000000994,830558.90000001,2023-04-03T08:14:44Z,830644.369,NULL,NA,NA,NA,NA,NA,NA,NA,NA,NA,27,NA,NA,NA,NA,NA,NA,NA,NA,NA,NA,NA,NA,NA,NA,NA,NA,NA,NA,NA
cc2c5,check continue,flow.Sequence,3_0_28,NA,NA,skipped,NA,830603.5,NA,NA,830094.30000000994,830603.59999999,2023-04-03T08:14:44Z,830644.369,NULL,NA,NA,NA,NA,NA,NA,NA,NA,NA,28,NA,NA,NA,NA,NA,NA,NA,NA,NA,NA,NA,NA,NA,NA,NA,NA,NA,NA,NA
cc2c5,check continue,flow.Sequence,3_0_29,NA,NA,skipped,NA,830626.59999999,NA,NA,830094.30000000994,830626.80000000994,2023-04-03T08:14:44Z,830644.369,NULL,NA,NA,NA,NA,NA,NA,NA,NA,NA,29,NA,NA,NA,NA,NA,NA,NA,NA,NA,NA,NA,NA,NA,NA,NA,NA,NA,NA,NA
cc2c5,until continue,flow.Loop,3_0,NA,NA,completion,430302.24900001,399748.30000001,399775.385,399792.051,830094.30000000994,830626.90000001,2023-04-03T08:14:44Z,830644.369,NULL,NA,NA,NA,NA,NA,NA,NA,NA,NA,NA,NA,NA,NA,NA,NA,NA,NA,NA,NA,NA,NA,NA,NA,NA,NA,NA,NA,NA,NA
cc2c5,block 1,flow.Sequence,3,NA,NA,completion,430302.24900001,399748.19999999,399775.385,399792.051,830094.30000000994,830626.90000001,2023-04-03T08:14:44Z,830644.369,NULL,NA,NA,NA,NA,NA,NA,NA,NA,NA,NA,NA,NA,NA,NA,NA,NA,NA,NA,NA,NA,NA,NA,NA,NA,NA,NA,NA,NA,NA
cc2c5,1.Part Over,canvas.Screen,4,NA,keypress(Space),response,2519.8309999881,830627,830094.391,830644.369,833164.19999999006,833172.69999999006,2023-04-03T08:14:47Z,833260.931,NULL,NA,NA,NA,NA,NA,NA,NA,NA,NA,NA,NA,NA,NA,NA,NA,NA,NA,NA,NA,NA,NA,NA,NA,NA,NA,NA,NA,NA,NA
cc2c5,Deep Question,html.Page,5_0_0_0_0_0_0,NA,NA,form submission,2754.069,833254.40000001,833244.265,833260.931,836015,836015.40000001,2023-04-03T08:14:50Z,836028.873,NULL,Fleisch,mshakiki,d,NA,NA,NA,u,NA,NA,0,NA,NA,NA,NA,NA,NA,NA,NA,NA,NA,NA,NA,NA,NA,NA,NA,NA,NA,NA
cc2c5,"""Richtig""-Screen",canvas.Screen,5_0_0_0_0_0_1,NA,NA,skipped,NA,836016.19999999006,NA,NA,836015,836016.40000001,2023-04-03T08:14:50Z,836028.873,NULL,Fleisch,mshakiki,d,NA,NA,NA,NA,sdf,NA,0,NA,NA,NA,NA,NA,NA,NA,NA,NA,NA,NA,NA,NA,NA,NA,NA,NA,NA,NA
cc2c5,"""Falsch""-Screen",canvas.Screen,5_0_0_0_0_0_2,NA,NA,timeout,4999.7999999999,836016.90000001,836012.207,836028.873,841012.007,841013.90000001,2023-04-03T08:14:55Z,841028.673,NULL,Fleisch,mshakiki,d,NA,NA,NA,NA,sdf,0,0,NA,NA,NA,NA,NA,NA,NA,NA,NA,NA,NA,NA,NA,NA,NA,NA,NA,NA,NA
cc2c5,deep,flow.Sequence,5_0_0_0_0_0,NA,NA,completion,7751.076,833254.40000001,833244.265,833260.931,841012.007,841014.09999999,2023-04-03T08:14:55Z,841028.673,NULL,Fleisch,mshakiki,d,NA,NA,NA,NA,sdf,NA,0,NA,NA,NA,NA,NA,NA,NA,NA,NA,NA,NA,NA,NA,NA,NA,NA,NA,NA,NA
cc2c5,shallow,flow.Sequence,5_0_0_0_0_1,NA,NA,skipped,NA,841014.19999999006,NA,NA,841012.007,841014.19999999006,2023-04-03T08:14:55Z,841028.673,NULL,Fleisch,mshakiki,d,NA,NA,NA,NA,sdf,NA,0,NA,NA,NA,NA,NA,NA,NA,NA,NA,NA,NA,NA,NA,NA,NA,NA,NA,NA,NA
cc2c5,task,flow.Sequence,5_0_0_0_0,NA,NA,completion,7751.076,833254.40000001,833244.265,833260.931,841012.007,841014.30000001,2023-04-03T08:14:55Z,841028.673,NULL,Fleisch,mshakiki,d,NA,NA,NA,NA,sdf,NA,0,NA,NA,NA,NA,NA,NA,NA,NA,NA,NA,NA,NA,NA,NA,NA,NA,NA,NA,NA
cc2c5,Deep Question,html.Page,5_0_0_0_1_0_0,NA,NA,form submission,2453.5269999881,841014.40000001,841012.007,841028.673,843482.19999999006,843482.59999999,2023-04-03T08:14:57Z,843495.241,NULL,Inhalt,yaliyomo,d,NA,NA,NA,i,NA,NA,0,NA,NA,NA,NA,NA,NA,NA,NA,NA,NA,NA,NA,NA,NA,NA,NA,NA,NA,NA
cc2c5,"""Richtig""-Screen",canvas.Screen,5_0_0_0_1_0_1,NA,NA,skipped,NA,843485.5,NA,NA,843482.19999999006,843485.69999999006,2023-04-03T08:14:57Z,843495.241,NULL,Inhalt,yaliyomo,d,NA,NA,NA,NA,sdf,NA,0,NA,NA,NA,NA,NA,NA,NA,NA,NA,NA,NA,NA,NA,NA,NA,NA,NA,NA,NA
cc2c5,"""Falsch""-Screen",canvas.Screen,5_0_0_0_1_0_2,NA,NA,timeout,5014.2189999999,843486.40000001,843478.575,843495.241,848476.128,848481.59999999,2023-04-03T08:15:02Z,848509.46,NULL,Inhalt,yaliyomo,d,NA,NA,NA,NA,sdf,0,0,NA,NA,NA,NA,NA,NA,NA,NA,NA,NA,NA,NA,NA,NA,NA,NA,NA,NA,NA
cc2c5,deep,flow.Sequence,5_0_0_0_1_0,NA,NA,completion,7447.4550000001,841014.40000001,841012.007,841028.673,848476.128,848518.5,2023-04-03T08:15:02Z,848509.46,NULL,Inhalt,yaliyomo,d,NA,NA,NA,NA,sdf,NA,0,NA,NA,NA,NA,NA,NA,NA,NA,NA,NA,NA,NA,NA,NA,NA,NA,NA,NA,NA
cc2c5,shallow,flow.Sequence,5_0_0_0_1_1,NA,NA,skipped,NA,848518.69999999006,NA,NA,848476.128,848518.80000001,2023-04-03T08:15:02Z,848509.46,NULL,Inhalt,yaliyomo,d,NA,NA,NA,NA,sdf,NA,0,NA,NA,NA,NA,NA,NA,NA,NA,NA,NA,NA,NA,NA,NA,NA,NA,NA,NA,NA
cc2c5,task,flow.Sequence,5_0_0_0_1,NA,NA,completion,7447.4550000001,841014.30000001,841012.007,841028.673,848476.128,848519,2023-04-03T08:15:02Z,848509.46,NULL,Inhalt,yaliyomo,d,NA,NA,NA,NA,sdf,NA,0,NA,NA,NA,NA,NA,NA,NA,NA,NA,NA,NA,NA,NA,NA,NA,NA,NA,NA,NA
cc2c5,deep,flow.Sequence,5_0_0_0_2_0,NA,NA,skipped,NA,848519,NA,NA,848476.128,848519.09999999,2023-04-03T08:15:02Z,848509.46,NULL,Begegnung,kukutana,s,mmasihiya,mpiganaji,husiano,NA,sdf,NA,0,NA,NA,NA,NA,NA,NA,NA,NA,NA,NA,NA,NA,NA,NA,NA,NA,NA,NA,NA
cc2c5,Shallow Question,html.Page,5_0_0_0_2_1_0,NA,NA,form submission,9402.7399999881,848519.09999999,848476.128,848509.46,857912.19999999006,857912.90000001,2023-04-03T08:15:11Z,857935.341,NULL,Begegnung,kukutana,s,mmasihiya,mpiganaji,husiano,kukutana,NA,NA,0,NA,NA,NA,NA,NA,NA,NA,NA,NA,NA,NA,NA,NA,NA,NA,NA,NA,NA,NA
cc2c5,"""Richtig""-Screen",canvas.Screen,5_0_0_0_2_1_1,NA,NA,timeout,4999.7999999999,857916,857902.009,857935.341,862918.475,862924.09999999,2023-04-03T08:15:16Z,862935.141,NULL,Begegnung,kukutana,s,mmasihiya,mpiganaji,husiano,NA,sdf,1,0,NA,NA,NA,NA,NA,NA,NA,NA,NA,NA,NA,NA,NA,NA,NA,NA,NA,NA,NA
cc2c5,"""Falsch""-Screen",canvas.Screen,5_0_0_0_2_1_2,NA,NA,skipped,NA,862928.5,NA,NA,862918.475,862928.90000001,2023-04-03T08:15:16Z,862935.141,NULL,Begegnung,kukutana,s,mmasihiya,mpiganaji,husiano,NA,sdf,NA,0,NA,NA,NA,NA,NA,NA,NA,NA,NA,NA,NA,NA,NA,NA,NA,NA,NA,NA,NA
cc2c5,shallow,flow.Sequence,5_0_0_0_2_1,NA,NA,completion,14409.015,848519.09999999,848476.128,848509.46,862918.475,862929.09999999,2023-04-03T08:15:16Z,862935.141,NULL,Begegnung,kukutana,s,mmasihiya,mpiganaji,husiano,NA,sdf,NA,0,NA,NA,NA,NA,NA,NA,NA,NA,NA,NA,NA,NA,NA,NA,NA,NA,NA,NA,NA
cc2c5,task,flow.Sequence,5_0_0_0_2,NA,NA,completion,14409.015,848519,848476.128,848509.46,862918.475,862929.30000001,2023-04-03T08:15:16Z,862935.141,NULL,Begegnung,kukutana,s,mmasihiya,mpiganaji,husiano,NA,sdf,NA,0,NA,NA,NA,NA,NA,NA,NA,NA,NA,NA,NA,NA,NA,NA,NA,NA,NA,NA,NA
cc2c5,deep,flow.Sequence,5_0_0_0_3_0,NA,NA,skipped,NA,862929.5,NA,NA,862918.475,862929.59999999,2023-04-03T08:15:16Z,862935.141,NULL,Schlange,foleni,s,uvumilivu,uteuzi,muuzaji,NA,sdf,NA,0,NA,NA,NA,NA,NA,NA,NA,NA,NA,NA,NA,NA,NA,NA,NA,NA,NA,NA,NA
cc2c5,Shallow Question,html.Page,5_0_0_0_3_1_0,NA,NA,form submission,5541.0589999881,862929.80000001,862918.475,862935.141,868476.19999999006,868476.90000001,2023-04-03T08:15:22Z,868481.635,NULL,Schlange,foleni,s,uvumilivu,uteuzi,muuzaji,foleni,NA,NA,0,NA,NA,NA,NA,NA,NA,NA,NA,NA,NA,NA,NA,NA,NA,NA,NA,NA,NA,NA
cc2c5,"""Richtig""-Screen",canvas.Screen,5_0_0_0_3_1_1,NA,NA,timeout,4999.8,868480.5,868464.969,868481.635,873464.769,873468.59999999,2023-04-03T08:15:27Z,873481.435,NULL,Schlange,foleni,s,uvumilivu,uteuzi,muuzaji,NA,sdf,1,0,NA,NA,NA,NA,NA,NA,NA,NA,NA,NA,NA,NA,NA,NA,NA,NA,NA,NA,NA
cc2c5,"""Falsch""-Screen",canvas.Screen,5_0_0_0_3_1_2,NA,NA,skipped,NA,873472.69999999006,NA,NA,873464.769,873473,2023-04-03T08:15:27Z,873481.435,NULL,Schlange,foleni,s,uvumilivu,uteuzi,muuzaji,NA,sdf,NA,0,NA,NA,NA,NA,NA,NA,NA,NA,NA,NA,NA,NA,NA,NA,NA,NA,NA,NA,NA
cc2c5,shallow,flow.Sequence,5_0_0_0_3_1,NA,NA,completion,10529.628,862929.69999999006,862918.475,862935.141,873464.769,873473.30000000994,2023-04-03T08:15:27Z,873481.435,NULL,Schlange,foleni,s,uvumilivu,uteuzi,muuzaji,NA,sdf,NA,0,NA,NA,NA,NA,NA,NA,NA,NA,NA,NA,NA,NA,NA,NA,NA,NA,NA,NA,NA
cc2c5,task,flow.Sequence,5_0_0_0_3,NA,NA,completion,10529.628,862929.5,862918.475,862935.141,873464.769,873473.59999999,2023-04-03T08:15:27Z,873481.435,NULL,Schlange,foleni,s,uvumilivu,uteuzi,muuzaji,NA,sdf,NA,0,NA,NA,NA,NA,NA,NA,NA,NA,NA,NA,NA,NA,NA,NA,NA,NA,NA,NA,NA
cc2c5,Deep Question,html.Page,5_0_0_0_4_0_0,NA,NA,form submission,3846.4650000059,873473.80000000994,873464.769,873481.435,877327.90000001,877328.30000001,2023-04-03T08:15:31Z,877329.693,NULL,Integrität,uadilifu,d,NA,NA,NA,f,NA,NA,0,NA,NA,NA,NA,NA,NA,NA,NA,NA,NA,NA,NA,NA,NA,NA,NA,NA,NA,NA
cc2c5,"""Richtig""-Screen",canvas.Screen,5_0_0_0_4_0_1,NA,NA,skipped,NA,877331.5,NA,NA,877327.90000001,877331.69999999006,2023-04-03T08:15:31Z,877329.693,NULL,Integrität,uadilifu,d,NA,NA,NA,NA,sdf,NA,0,NA,NA,NA,NA,NA,NA,NA,NA,NA,NA,NA,NA,NA,NA,NA,NA,NA,NA,NA
cc2c5,"""Falsch""-Screen",canvas.Screen,5_0_0_0_4_0_2,NA,NA,timeout,4999.8,877332.69999999006,877313.027,877329.693,882312.827,882316.69999999006,2023-04-03T08:15:36Z,882329.493,NULL,Integrität,uadilifu,d,NA,NA,NA,NA,sdf,0,0,NA,NA,NA,NA,NA,NA,NA,NA,NA,NA,NA,NA,NA,NA,NA,NA,NA,NA,NA
cc2c5,deep,flow.Sequence,5_0_0_0_4_0,NA,NA,completion,8831.392,873473.69999999006,873464.769,873481.435,882312.827,882317.19999999006,2023-04-03T08:15:36Z,882329.493,NULL,Integrität,uadilifu,d,NA,NA,NA,NA,sdf,NA,0,NA,NA,NA,NA,NA,NA,NA,NA,NA,NA,NA,NA,NA,NA,NA,NA,NA,NA,NA
cc2c5,shallow,flow.Sequence,5_0_0_0_4_1,NA,NA,skipped,NA,882317.30000001,NA,NA,882312.827,882317.5,2023-04-03T08:15:36Z,882329.493,NULL,Integrität,uadilifu,d,NA,NA,NA,NA,sdf,NA,0,NA,NA,NA,NA,NA,NA,NA,NA,NA,NA,NA,NA,NA,NA,NA,NA,NA,NA,NA
cc2c5,task,flow.Sequence,5_0_0_0_4,NA,NA,completion,8831.392,873473.59999999,873464.769,873481.435,882312.827,882317.59999999,2023-04-03T08:15:36Z,882329.493,NULL,Integrität,uadilifu,d,NA,NA,NA,NA,sdf,NA,0,NA,NA,NA,NA,NA,NA,NA,NA,NA,NA,NA,NA,NA,NA,NA,NA,NA,NA,NA
cc2c5,deep,flow.Sequence,5_0_0_0_5_0,NA,NA,skipped,NA,882317.80000000994,NA,NA,882312.827,882317.90000001,2023-04-03T08:15:36Z,882329.493,NULL,Toleranz,kuvumiliana,s,maombolezo,ujasusi,mchekeshaji,NA,sdf,NA,0,NA,NA,NA,NA,NA,NA,NA,NA,NA,NA,NA,NA,NA,NA,NA,NA,NA,NA,NA
cc2c5,Shallow Question,html.Page,5_0_0_0_5_1_0,NA,NA,form submission,6047.2069999881,882318,882312.827,882329.493,888376.69999999006,888377.40000001,2023-04-03T08:15:42Z,888380.249,NULL,Toleranz,kuvumiliana,s,maombolezo,ujasusi,mchekeshaji,ujasusi,NA,NA,0,NA,NA,NA,NA,NA,NA,NA,NA,NA,NA,NA,NA,NA,NA,NA,NA,NA,NA,NA
cc2c5,"""Richtig""-Screen",canvas.Screen,5_0_0_0_5_1_1,NA,NA,skipped,NA,888380.59999999,NA,NA,888376.69999999006,888380.80000001,2023-04-03T08:15:42Z,888380.249,NULL,Toleranz,kuvumiliana,s,maombolezo,ujasusi,mchekeshaji,NA,sdf,NA,0,NA,NA,NA,NA,NA,NA,NA,NA,NA,NA,NA,NA,NA,NA,NA,NA,NA,NA,NA
cc2c5,"""Falsch""-Screen",canvas.Screen,5_0_0_0_5_1_2,NA,NA,timeout,4999.8,888382.09999999,888363.583,888380.249,893363.383,893367.30000001,2023-04-03T08:15:47Z,893380.049,NULL,Toleranz,kuvumiliana,s,maombolezo,ujasusi,mchekeshaji,NA,sdf,0,0,NA,NA,NA,NA,NA,NA,NA,NA,NA,NA,NA,NA,NA,NA,NA,NA,NA,NA,NA
cc2c5,shallow,flow.Sequence,5_0_0_0_5_1,NA,NA,completion,11033.89,882318,882312.827,882329.493,893363.383,893367.80000001,2023-04-03T08:15:47Z,893380.049,NULL,Toleranz,kuvumiliana,s,maombolezo,ujasusi,mchekeshaji,NA,sdf,NA,0,NA,NA,NA,NA,NA,NA,NA,NA,NA,NA,NA,NA,NA,NA,NA,NA,NA,NA,NA
cc2c5,task,flow.Sequence,5_0_0_0_5,NA,NA,completion,11033.89,882317.80000000994,882312.827,882329.493,893363.383,893367.90000001,2023-04-03T08:15:47Z,893380.049,NULL,Toleranz,kuvumiliana,s,maombolezo,ujasusi,mchekeshaji,NA,sdf,NA,0,NA,NA,NA,NA,NA,NA,NA,NA,NA,NA,NA,NA,NA,NA,NA,NA,NA,NA,NA
cc2c5,Deep Question,html.Page,5_0_0_0_6_0_0,NA,NA,form submission,3246.6509999881,893368.19999999006,893363.383,893380.049,896626.69999999006,896627.09999999,2023-04-03T08:15:50Z,896629.919,NULL,Vermutung,udhanifu,d,NA,NA,NA,j,NA,NA,0,NA,NA,NA,NA,NA,NA,NA,NA,NA,NA,NA,NA,NA,NA,NA,NA,NA,NA,NA
cc2c5,"""Richtig""-Screen",canvas.Screen,5_0_0_0_6_0_1,NA,NA,skipped,NA,896629.09999999,NA,NA,896626.69999999006,896629.30000001,2023-04-03T08:15:50Z,896629.919,NULL,Vermutung,udhanifu,d,NA,NA,NA,NA,sdf,NA,0,NA,NA,NA,NA,NA,NA,NA,NA,NA,NA,NA,NA,NA,NA,NA,NA,NA,NA,NA
cc2c5,"""Falsch""-Screen",canvas.Screen,5_0_0_0_6_0_2,NA,NA,timeout,5005.034,896629.90000001,896613.253,896629.919,901618.287,901623.30000001,2023-04-03T08:15:55Z,901634.953,NULL,Vermutung,udhanifu,d,NA,NA,NA,NA,sdf,0,0,NA,NA,NA,NA,NA,NA,NA,NA,NA,NA,NA,NA,NA,NA,NA,NA,NA,NA,NA
