observation,sender,sender_type,sender_id,response,response_action,ended_on,duration,time_run,time_render,time_show,time_end,time_commit,timestamp,time_switch,distractors,german,swahili,enc,distractor1,distractor2,distractor3,response_2,x,correct,x_2,url_vp,url_sess,meta_labjs_version,meta_location,meta_user_agent,meta_platform,meta_language,meta_locale,meta_time_zone,meta_timezone_offset,meta_screen_width,meta_screen_height,meta_scroll_width,meta_scroll_height,meta_window_inner_width,meta_window_inner_height,meta_device_pixel_ratio,meta_labjs_build_flavor,meta_labjs_build_commit
f6014,Introduction general,canvas.Screen,0,weiter,keypress(q),response,35493.099999999,624,620.624,637.1,36130.199999999,36133.6,2024-05-26T13:20:04Z,36132.2,NULL,NA,NA,NA,NA,NA,NA,NA,NA,NA,NA,199,1,20.2.4,https://neurocog.fernuni.ch/studies/vweber/aberisha/encoding_immediate/index.html?vp=199&sess=1,"Mozilla/5.0 (Windows NT 10.0; Win64; x64) AppleWebKit/537.36 (KHTML, like Gecko) Chrome/125.0.0.0 Safari/537.36",Win32,de-DE,de,Europe/Zurich,-120,1536,864,1536,682,1536,730,1.25,production,f5b4a49f956347addd546a832a3327688c2c0fef
f6014,Introduction practice,canvas.Screen,1_0,NA,keypress(Space),response,8070.5999999989,36134.299999999,36125,36132.2,44202.799999999,44203.799999999,2024-05-26T13:20:12Z,44210.6,NULL,NA,NA,NA,NA,NA,NA,NA,NA,NA,NA,NA,NA,NA,NA,NA,NA,NA,NA,NA,NA,NA,NA,NA,NA,NA,NA,NA,NA,NA
f6014,Deep Question,html.Page,1_1_0_0_0,NA,NA,form submission,14036.199999999,44204.299999999,44202.4,44210.6,58246.799999999,58246.9,2024-05-26T13:20:26Z,58252,"c(""distractor1"", ""distractor2"", ""distractor3"")",Qualität,mtindo,d,NA,NA,NA,gvg,NA,NA,NA,NA,NA,NA,NA,NA,NA,NA,NA,NA,NA,NA,NA,NA,NA,NA,NA,NA,NA,NA
f6014,"""Richtig""-Screen",canvas.Screen,1_1_0_0_1,NA,NA,skipped,NA,58247.699999999,NA,NA,58246.799999999,58247.9,2024-05-26T13:20:26Z,58252,"c(""distractor1"", ""distractor2"", ""distractor3"")",Qualität,mtindo,d,NA,NA,NA,NA,NA,NA,NA,NA,NA,NA,NA,NA,NA,NA,NA,NA,NA,NA,NA,NA,NA,NA,NA,NA,NA,NA
f6014,"""Falsch""-Screen",canvas.Screen,1_1_0_0_2,NA,NA,timeout,4997.5,58248.6,58236.384,58252,63232.4,63235.5,2024-05-26T13:20:31Z,63249.5,"c(""distractor1"", ""distractor2"", ""distractor3"")",Qualität,mtindo,d,NA,NA,NA,NA,NA,0,NA,NA,NA,NA,NA,NA,NA,NA,NA,NA,NA,NA,NA,NA,NA,NA,NA,NA,NA,NA
f6014,deep,flow.Sequence,1_1_0_0,NA,NA,completion,19021.8,44204.199999999,44202.4,44210.6,63232.4,63235.699999999,2024-05-26T13:20:31Z,63249.5,"c(""distractor1"", ""distractor2"", ""distractor3"")",Qualität,mtindo,d,NA,NA,NA,NA,NA,NA,NA,NA,NA,NA,NA,NA,NA,NA,NA,NA,NA,NA,NA,NA,NA,NA,NA,NA,NA,NA
f6014,shallow,flow.Sequence,1_1_0_1,NA,NA,skipped,NA,63235.699999999,NA,NA,63232.4,63235.699999999,2024-05-26T13:20:31Z,63249.5,"c(""distractor1"", ""distractor2"", ""distractor3"")",Qualität,mtindo,d,NA,NA,NA,NA,NA,NA,NA,NA,NA,NA,NA,NA,NA,NA,NA,NA,NA,NA,NA,NA,NA,NA,NA,NA,NA,NA
f6014,task,flow.Sequence,1_1_0,NA,NA,completion,19021.8,44204.199999999,44202.4,44210.6,63232.4,63235.799999999,2024-05-26T13:20:31Z,63249.5,"c(""distractor1"", ""distractor2"", ""distractor3"")",Qualität,mtindo,d,NA,NA,NA,NA,NA,NA,NA,NA,NA,NA,NA,NA,NA,NA,NA,NA,NA,NA,NA,NA,NA,NA,NA,NA,NA,NA
f6014,deep,flow.Sequence,1_1_1_0,NA,NA,skipped,NA,63235.9,NA,NA,63232.4,63235.9,2024-05-26T13:20:31Z,63249.5,"c(""distractor1"", ""distractor2"", ""distractor3"")",Rückhalt,msaada,s,muhula,auwali,kiwimbe,NA,NA,NA,NA,NA,NA,NA,NA,NA,NA,NA,NA,NA,NA,NA,NA,NA,NA,NA,NA,NA,NA,NA
f6014,Shallow Question,html.Page,1_1_1_1_0,NA,NA,form submission,16165.1,63236,63232.4,63249.5,79414.6,79415,2024-05-26T13:20:47Z,79422.4,"c(""distractor1"", ""distractor2"", ""distractor3"")",Rückhalt,msaada,s,muhula,auwali,kiwimbe,msaada,NA,NA,NA,NA,NA,NA,NA,NA,NA,NA,NA,NA,NA,NA,NA,NA,NA,NA,NA,NA,NA,NA
f6014,"""Richtig""-Screen",canvas.Screen,1_1_1_1_1,NA,NA,timeout,4997.4,79418.9,79406.146,79422.4,84403.1,84404.199999999,2024-05-26T13:20:52Z,84419.8,"c(""distractor1"", ""distractor2"", ""distractor3"")",Rückhalt,msaada,s,muhula,auwali,kiwimbe,NA,NA,1,NA,NA,NA,NA,NA,NA,NA,NA,NA,NA,NA,NA,NA,NA,NA,NA,NA,NA,NA,NA
f6014,"""Falsch""-Screen",canvas.Screen,1_1_1_1_2,NA,NA,skipped,NA,84409.6,NA,NA,84403.1,84409.699999999,2024-05-26T13:20:52Z,84419.8,"c(""distractor1"", ""distractor2"", ""distractor3"")",Rückhalt,msaada,s,muhula,auwali,kiwimbe,NA,NA,NA,NA,NA,NA,NA,NA,NA,NA,NA,NA,NA,NA,NA,NA,NA,NA,NA,NA,NA,NA,NA
f6014,shallow,flow.Sequence,1_1_1_1,NA,NA,completion,21153.6,63235.9,63232.4,63249.5,84403.1,84409.799999999,2024-05-26T13:20:52Z,84419.8,"c(""distractor1"", ""distractor2"", ""distractor3"")",Rückhalt,msaada,s,muhula,auwali,kiwimbe,NA,NA,NA,NA,NA,NA,NA,NA,NA,NA,NA,NA,NA,NA,NA,NA,NA,NA,NA,NA,NA,NA,NA
f6014,task,flow.Sequence,1_1_1,NA,NA,completion,21153.6,63235.9,63232.4,63249.5,84403.1,84409.9,2024-05-26T13:20:52Z,84419.8,"c(""distractor1"", ""distractor2"", ""distractor3"")",Rückhalt,msaada,s,muhula,auwali,kiwimbe,NA,NA,NA,NA,NA,NA,NA,NA,NA,NA,NA,NA,NA,NA,NA,NA,NA,NA,NA,NA,NA,NA,NA
f6014,deep,flow.Sequence,1_1_2_0,NA,NA,skipped,NA,84410,NA,NA,84403.1,84410.1,2024-05-26T13:20:52Z,84419.8,"c(""distractor1"", ""distractor2"", ""distractor3"")",Gegenwart,hadhara,s,katiba,jokofu,mikopo,NA,NA,NA,NA,NA,NA,NA,NA,NA,NA,NA,NA,NA,NA,NA,NA,NA,NA,NA,NA,NA,NA,NA
f6014,Shallow Question,html.Page,1_1_2_1_0,NA,NA,form submission,24521.6,84410.1,84403.1,84419.8,108941.4,108941.5,2024-05-26T13:21:17Z,108954.4,"c(""distractor1"", ""distractor2"", ""distractor3"")",Gegenwart,hadhara,s,katiba,jokofu,mikopo,jokofu,NA,NA,NA,NA,NA,NA,NA,NA,NA,NA,NA,NA,NA,NA,NA,NA,NA,NA,NA,NA,NA,NA
f6014,"""Richtig""-Screen",canvas.Screen,1_1_2_1_1,NA,NA,skipped,NA,108943.1,NA,NA,108941.4,108943.2,2024-05-26T13:21:17Z,108954.4,"c(""distractor1"", ""distractor2"", ""distractor3"")",Gegenwart,hadhara,s,katiba,jokofu,mikopo,NA,NA,NA,NA,NA,NA,NA,NA,NA,NA,NA,NA,NA,NA,NA,NA,NA,NA,NA,NA,NA,NA,NA
f6014,"""Falsch""-Screen",canvas.Screen,1_1_2_1_2,NA,NA,timeout,4997.4,108943.8,108938.028,108954.4,113934.9,113935.9,2024-05-26T13:21:22Z,113951.8,"c(""distractor1"", ""distractor2"", ""distractor3"")",Gegenwart,hadhara,s,katiba,jokofu,mikopo,NA,NA,0,NA,NA,NA,NA,NA,NA,NA,NA,NA,NA,NA,NA,NA,NA,NA,NA,NA,NA,NA,NA
f6014,shallow,flow.Sequence,1_1_2_1,NA,NA,completion,29515.1,84410.1,84403.1,84419.8,113934.9,113936.2,2024-05-26T13:21:22Z,113951.8,"c(""distractor1"", ""distractor2"", ""distractor3"")",Gegenwart,hadhara,s,katiba,jokofu,mikopo,NA,NA,NA,NA,NA,NA,NA,NA,NA,NA,NA,NA,NA,NA,NA,NA,NA,NA,NA,NA,NA,NA,NA
f6014,task,flow.Sequence,1_1_2,NA,NA,completion,29515.1,84410,84403.1,84419.8,113934.9,113936.6,2024-05-26T13:21:22Z,113951.8,"c(""distractor1"", ""distractor2"", ""distractor3"")",Gegenwart,hadhara,s,katiba,jokofu,mikopo,NA,NA,NA,NA,NA,NA,NA,NA,NA,NA,NA,NA,NA,NA,NA,NA,NA,NA,NA,NA,NA,NA,NA
f6014,Deep Question,html.Page,1_1_3_0_0,NA,NA,form submission,4867.7999999996,113936.9,113934.9,113951.8,118819.6,118819.8,2024-05-26T13:21:27Z,118831.7,"c(""distractor1"", ""distractor2"", ""distractor3"")",Schatten,kivuli,d,NA,NA,NA,fgf,NA,NA,NA,NA,NA,NA,NA,NA,NA,NA,NA,NA,NA,NA,NA,NA,NA,NA,NA,NA,NA,NA
f6014,"""Richtig""-Screen",canvas.Screen,1_1_3_0_1,NA,NA,skipped,NA,118823,NA,NA,118819.6,118823.2,2024-05-26T13:21:27Z,118831.7,"c(""distractor1"", ""distractor2"", ""distractor3"")",Schatten,kivuli,d,NA,NA,NA,NA,NA,NA,NA,NA,NA,NA,NA,NA,NA,NA,NA,NA,NA,NA,NA,NA,NA,NA,NA,NA,NA,NA
f6014,"""Falsch""-Screen",canvas.Screen,1_1_3_0_2,NA,NA,timeout,4997.4,118824.1,118815.726,118831.7,123812.4,123813.4,2024-05-26T13:21:32Z,123829.1,"c(""distractor1"", ""distractor2"", ""distractor3"")",Schatten,kivuli,d,NA,NA,NA,NA,NA,0,NA,NA,NA,NA,NA,NA,NA,NA,NA,NA,NA,NA,NA,NA,NA,NA,NA,NA,NA,NA
f6014,deep,flow.Sequence,1_1_3_0,NA,NA,completion,9860.6,113936.8,113934.9,113951.8,123812.4,123813.7,2024-05-26T13:21:32Z,123829.1,"c(""distractor1"", ""distractor2"", ""distractor3"")",Schatten,kivuli,d,NA,NA,NA,NA,NA,NA,NA,NA,NA,NA,NA,NA,NA,NA,NA,NA,NA,NA,NA,NA,NA,NA,NA,NA,NA,NA
f6014,shallow,flow.Sequence,1_1_3_1,NA,NA,skipped,NA,123813.8,NA,NA,123812.4,123814,2024-05-26T13:21:32Z,123829.1,"c(""distractor1"", ""distractor2"", ""distractor3"")",Schatten,kivuli,d,NA,NA,NA,NA,NA,NA,NA,NA,NA,NA,NA,NA,NA,NA,NA,NA,NA,NA,NA,NA,NA,NA,NA,NA,NA,NA
f6014,task,flow.Sequence,1_1_3,NA,NA,completion,9860.6,113936.7,113934.9,113951.8,123812.4,123814.2,2024-05-26T13:21:32Z,123829.1,"c(""distractor1"", ""distractor2"", ""distractor3"")",Schatten,kivuli,d,NA,NA,NA,NA,NA,NA,NA,NA,NA,NA,NA,NA,NA,NA,NA,NA,NA,NA,NA,NA,NA,NA,NA,NA,NA,NA
f6014,Deep Question,html.Page,1_1_4_0_0,NA,NA,form submission,5911.9999999996,123814.4,123812.4,123829.1,129741.1,129741.4,2024-05-26T13:21:37Z,129742.43,"c(""distractor1"", ""distractor2"", ""distractor3"")",Gesundheit,salama,d,NA,NA,NA,ghv,NA,NA,NA,NA,NA,NA,NA,NA,NA,NA,NA,NA,NA,NA,NA,NA,NA,NA,NA,NA,NA,NA
f6014,"""Richtig""-Screen",canvas.Screen,1_1_4_0_1,NA,NA,skipped,NA,129744.5,NA,NA,129741.1,129744.6,2024-05-26T13:21:37Z,129742.43,"c(""distractor1"", ""distractor2"", ""distractor3"")",Gesundheit,salama,d,NA,NA,NA,NA,NA,NA,NA,NA,NA,NA,NA,NA,NA,NA,NA,NA,NA,NA,NA,NA,NA,NA,NA,NA,NA,NA
f6014,"""Falsch""-Screen",canvas.Screen,1_1_4_0_2,NA,NA,timeout,4996.67,129745.4,129742.43,129742.43,134722.5,134723.5,2024-05-26T13:21:42Z,134739.1,"c(""distractor1"", ""distractor2"", ""distractor3"")",Gesundheit,salama,d,NA,NA,NA,NA,NA,0,NA,NA,NA,NA,NA,NA,NA,NA,NA,NA,NA,NA,NA,NA,NA,NA,NA,NA,NA,NA
f6014,deep,flow.Sequence,1_1_4_0,NA,NA,completion,10893.4,123814.3,123812.4,123829.1,134722.5,134723.8,2024-05-26T13:21:42Z,134739.1,"c(""distractor1"", ""distractor2"", ""distractor3"")",Gesundheit,salama,d,NA,NA,NA,NA,NA,NA,NA,NA,NA,NA,NA,NA,NA,NA,NA,NA,NA,NA,NA,NA,NA,NA,NA,NA,NA,NA
f6014,shallow,flow.Sequence,1_1_4_1,NA,NA,skipped,NA,134724,NA,NA,134722.5,134724.1,2024-05-26T13:21:42Z,134739.1,"c(""distractor1"", ""distractor2"", ""distractor3"")",Gesundheit,salama,d,NA,NA,NA,NA,NA,NA,NA,NA,NA,NA,NA,NA,NA,NA,NA,NA,NA,NA,NA,NA,NA,NA,NA,NA,NA,NA
f6014,task,flow.Sequence,1_1_4,NA,NA,completion,10893.4,123814.3,123812.4,123829.1,134722.5,134724.3,2024-05-26T13:21:42Z,134739.1,"c(""distractor1"", ""distractor2"", ""distractor3"")",Gesundheit,salama,d,NA,NA,NA,NA,NA,NA,NA,NA,NA,NA,NA,NA,NA,NA,NA,NA,NA,NA,NA,NA,NA,NA,NA,NA,NA,NA
f6014,deep,flow.Sequence,1_1_5_0,NA,NA,skipped,NA,134724.5,NA,NA,134722.5,134724.6,2024-05-26T13:21:42Z,134739.1,"c(""distractor1"", ""distractor2"", ""distractor3"")",Kritik,lawama,s,dereva,nafasi,mawazo,NA,NA,NA,NA,NA,NA,NA,NA,NA,NA,NA,NA,NA,NA,NA,NA,NA,NA,NA,NA,NA,NA,NA
f6014,Shallow Question,html.Page,1_1_5_1_0,NA,NA,form submission,9958.6999999989,134724.8,134722.5,134739.1,144697.8,144698.1,2024-05-26T13:21:52Z,144716.2,"c(""distractor1"", ""distractor2"", ""distractor3"")",Kritik,lawama,s,dereva,nafasi,mawazo,nafasi,NA,NA,NA,NA,NA,NA,NA,NA,NA,NA,NA,NA,NA,NA,NA,NA,NA,NA,NA,NA,NA,NA
f6014,"""Richtig""-Screen",canvas.Screen,1_1_5_1_1,NA,NA,skipped,NA,144701.3,NA,NA,144697.8,144701.5,2024-05-26T13:21:52Z,144716.2,"c(""distractor1"", ""distractor2"", ""distractor3"")",Kritik,lawama,s,dereva,nafasi,mawazo,NA,NA,NA,NA,NA,NA,NA,NA,NA,NA,NA,NA,NA,NA,NA,NA,NA,NA,NA,NA,NA,NA,NA
f6014,"""Falsch""-Screen",canvas.Screen,1_1_5_1_2,NA,NA,timeout,4997.2,144702,144699.366,144716.2,149696.9,149697.3,2024-05-26T13:21:57Z,149713.4,"c(""distractor1"", ""distractor2"", ""distractor3"")",Kritik,lawama,s,dereva,nafasi,mawazo,NA,NA,0,NA,NA,NA,NA,NA,NA,NA,NA,NA,NA,NA,NA,NA,NA,NA,NA,NA,NA,NA,NA
f6014,shallow,flow.Sequence,1_1_5_1,NA,NA,completion,14957.8,134724.7,134722.5,134739.1,149696.9,149697.5,2024-05-26T13:21:57Z,149713.4,"c(""distractor1"", ""distractor2"", ""distractor3"")",Kritik,lawama,s,dereva,nafasi,mawazo,NA,NA,NA,NA,NA,NA,NA,NA,NA,NA,NA,NA,NA,NA,NA,NA,NA,NA,NA,NA,NA,NA,NA
f6014,task,flow.Sequence,1_1_5,NA,NA,completion,14957.8,134724.5,134722.5,134739.1,149696.9,149697.6,2024-05-26T13:21:57Z,149713.4,"c(""distractor1"", ""distractor2"", ""distractor3"")",Kritik,lawama,s,dereva,nafasi,mawazo,NA,NA,NA,NA,NA,NA,NA,NA,NA,NA,NA,NA,NA,NA,NA,NA,NA,NA,NA,NA,NA,NA,NA
f6014,block,flow.Loop,1_1,NA,NA,completion,105486.3,44204.1,44202.4,44210.6,149696.9,149697.7,2024-05-26T13:21:57Z,149713.4,"c(""distractor1"", ""distractor2"", ""distractor3"")",NA,NA,NA,NA,NA,NA,NA,NA,NA,NA,NA,NA,NA,NA,NA,NA,NA,NA,NA,NA,NA,NA,NA,NA,NA,NA,NA,NA,NA
f6014,Practice,flow.Sequence,1,NA,NA,completion,113564.7,36134.199999999,36125,36132.2,149696.9,149697.7,2024-05-26T13:21:57Z,149713.4,NULL,NA,NA,NA,NA,NA,NA,NA,NA,NA,NA,NA,NA,NA,NA,NA,NA,NA,NA,NA,NA,NA,NA,NA,NA,NA,NA,NA,NA,NA
f6014,Experiment start,canvas.Screen,2,weiter,keypress(q),response,6374.2999999993,149697.7,149696.9,149713.4,156087.7,156088.6,2024-05-26T13:22:04Z,156159.6,NULL,NA,NA,NA,NA,NA,NA,NA,NA,NA,NA,NA,NA,NA,NA,NA,NA,NA,NA,NA,NA,NA,NA,NA,NA,NA,NA,NA,NA,NA
f6014,deep,flow.Sequence,3_0_0_0_0_0,NA,NA,skipped,NA,156146,NA,NA,156087.7,156146,2024-05-26T13:22:04Z,156159.6,NULL,Schock,mshtuko,s,biashara,kukataza,vichekesho,NA,sdf,NA,0,NA,NA,NA,NA,NA,NA,NA,NA,NA,NA,NA,NA,NA,NA,NA,NA,NA,NA,NA
f6014,Shallow Question,html.Page,3_0_0_0_0_1_0,NA,NA,form submission,39629.699999999,156146.2,156144.416,156159.6,195789.3,195789.5,2024-05-26T13:22:44Z,195801.6,NULL,Schock,mshtuko,s,biashara,kukataza,vichekesho,mshtuko,NA,NA,0,NA,NA,NA,NA,NA,NA,NA,NA,NA,NA,NA,NA,NA,NA,NA,NA,NA,NA,NA
f6014,"""Richtig""-Screen",canvas.Screen,3_0_0_0_0_1_1,NA,NA,timeout,4997.2,195792.6,195785.492,195801.6,200782.2,200783.3,2024-05-26T13:22:48Z,200798.8,NULL,Schock,mshtuko,s,biashara,kukataza,vichekesho,NA,sdf,1,0,NA,NA,NA,NA,NA,NA,NA,NA,NA,NA,NA,NA,NA,NA,NA,NA,NA,NA,NA
f6014,"""Falsch""-Screen",canvas.Screen,3_0_0_0_0_1_2,NA,NA,skipped,NA,200788.5,NA,NA,200782.2,200788.7,2024-05-26T13:22:49Z,200798.8,NULL,Schock,mshtuko,s,biashara,kukataza,vichekesho,NA,sdf,NA,0,NA,NA,NA,NA,NA,NA,NA,NA,NA,NA,NA,NA,NA,NA,NA,NA,NA,NA,NA
f6014,shallow,flow.Sequence,3_0_0_0_0_1,NA,NA,completion,44622.6,156146.2,156144.416,156159.6,200782.2,200788.7,2024-05-26T13:22:49Z,200798.8,NULL,Schock,mshtuko,s,biashara,kukataza,vichekesho,NA,sdf,NA,0,NA,NA,NA,NA,NA,NA,NA,NA,NA,NA,NA,NA,NA,NA,NA,NA,NA,NA,NA
f6014,task,flow.Sequence,3_0_0_0_0,NA,NA,completion,44622.6,156145.9,156144.416,156159.6,200782.2,200788.8,2024-05-26T13:22:49Z,200798.8,NULL,Schock,mshtuko,s,biashara,kukataza,vichekesho,NA,sdf,NA,0,NA,NA,NA,NA,NA,NA,NA,NA,NA,NA,NA,NA,NA,NA,NA,NA,NA,NA,NA
f6014,Deep Question,html.Page,3_0_0_0_1_0_0,NA,NA,form submission,8857.2999999996,200788.8,200782.2,200798.8,209656.1,209656.3,2024-05-26T13:22:57Z,209660.162,NULL,Wettbewerb,ushindani,d,NA,NA,NA,fghfhg,NA,NA,0,NA,NA,NA,NA,NA,NA,NA,NA,NA,NA,NA,NA,NA,NA,NA,NA,NA,NA,NA
f6014,"""Richtig""-Screen",canvas.Screen,3_0_0_0_1_0_1,NA,NA,skipped,NA,209659.4,NA,NA,209656.1,209659.6,2024-05-26T13:22:57Z,209660.162,NULL,Wettbewerb,ushindani,d,NA,NA,NA,NA,sdf,NA,0,NA,NA,NA,NA,NA,NA,NA,NA,NA,NA,NA,NA,NA,NA,NA,NA,NA,NA,NA
f6014,"""Falsch""-Screen",canvas.Screen,3_0_0_0_1_0_2,NA,NA,timeout,4997.038,209660.4,209660.162,209660.162,214640.2,214641.3,2024-05-26T13:23:02Z,214657.2,NULL,Wettbewerb,ushindani,d,NA,NA,NA,NA,sdf,0,0,NA,NA,NA,NA,NA,NA,NA,NA,NA,NA,NA,NA,NA,NA,NA,NA,NA,NA,NA
f6014,deep,flow.Sequence,3_0_0_0_1_0,NA,NA,completion,13841.4,200788.8,200782.2,200798.8,214640.2,214641.6,2024-05-26T13:23:02Z,214657.2,NULL,Wettbewerb,ushindani,d,NA,NA,NA,NA,sdf,NA,0,NA,NA,NA,NA,NA,NA,NA,NA,NA,NA,NA,NA,NA,NA,NA,NA,NA,NA,NA
f6014,shallow,flow.Sequence,3_0_0_0_1_1,NA,NA,skipped,NA,214641.7,NA,NA,214640.2,214641.9,2024-05-26T13:23:02Z,214657.2,NULL,Wettbewerb,ushindani,d,NA,NA,NA,NA,sdf,NA,0,NA,NA,NA,NA,NA,NA,NA,NA,NA,NA,NA,NA,NA,NA,NA,NA,NA,NA,NA
f6014,task,flow.Sequence,3_0_0_0_1,NA,NA,completion,13841.4,200788.8,200782.2,200798.8,214640.2,214642.1,2024-05-26T13:23:02Z,214657.2,NULL,Wettbewerb,ushindani,d,NA,NA,NA,NA,sdf,NA,0,NA,NA,NA,NA,NA,NA,NA,NA,NA,NA,NA,NA,NA,NA,NA,NA,NA,NA,NA
f6014,Deep Question,html.Page,3_0_0_0_2_0_0,NA,NA,form submission,5104.8999999996,214642.3,214640.2,214657.2,219762.1,219762.3,2024-05-26T13:23:07Z,219770.4,NULL,Auftrag,uagizaji,d,NA,NA,NA,jgg,NA,NA,0,NA,NA,NA,NA,NA,NA,NA,NA,NA,NA,NA,NA,NA,NA,NA,NA,NA,NA,NA
f6014,"""Richtig""-Screen",canvas.Screen,3_0_0_0_2_0_1,NA,NA,skipped,NA,219765.4,NA,NA,219762.1,219765.5,2024-05-26T13:23:07Z,219770.4,NULL,Auftrag,uagizaji,d,NA,NA,NA,NA,sdf,NA,0,NA,NA,NA,NA,NA,NA,NA,NA,NA,NA,NA,NA,NA,NA,NA,NA,NA,NA,NA
f6014,"""Falsch""-Screen",canvas.Screen,3_0_0_0_2_0_2,NA,NA,timeout,4997.4,219766.3,219757.594,219770.4,224750.7,224751.7,2024-05-26T13:23:12Z,224767.8,NULL,Auftrag,uagizaji,d,NA,NA,NA,NA,sdf,0,0,NA,NA,NA,NA,NA,NA,NA,NA,NA,NA,NA,NA,NA,NA,NA,NA,NA,NA,NA
f6014,deep,flow.Sequence,3_0_0_0_2_0,NA,NA,completion,10093.5,214642.2,214640.2,214657.2,224750.7,224752,2024-05-26T13:23:12Z,224767.8,NULL,Auftrag,uagizaji,d,NA,NA,NA,NA,sdf,NA,0,NA,NA,NA,NA,NA,NA,NA,NA,NA,NA,NA,NA,NA,NA,NA,NA,NA,NA,NA
f6014,shallow,flow.Sequence,3_0_0_0_2_1,NA,NA,skipped,NA,224752.1,NA,NA,224750.7,224752.3,2024-05-26T13:23:12Z,224767.8,NULL,Auftrag,uagizaji,d,NA,NA,NA,NA,sdf,NA,0,NA,NA,NA,NA,NA,NA,NA,NA,NA,NA,NA,NA,NA,NA,NA,NA,NA,NA,NA
f6014,task,flow.Sequence,3_0_0_0_2,NA,NA,completion,10093.5,214642.2,214640.2,214657.2,224750.7,224752.4,2024-05-26T13:23:12Z,224767.8,NULL,Auftrag,uagizaji,d,NA,NA,NA,NA,sdf,NA,0,NA,NA,NA,NA,NA,NA,NA,NA,NA,NA,NA,NA,NA,NA,NA,NA,NA,NA,NA
f6014,Deep Question,html.Page,3_0_0_0_3_0_0,NA,NA,form submission,3593.4999999989,224752.6,224750.7,224767.8,228361.3,228361.5,2024-05-26T13:23:16Z,228366.998,NULL,Hoffnung,matarajio,d,NA,NA,NA,khh,NA,NA,0,NA,NA,NA,NA,NA,NA,NA,NA,NA,NA,NA,NA,NA,NA,NA,NA,NA,NA,NA
f6014,"""Richtig""-Screen",canvas.Screen,3_0_0_0_3_0_1,NA,NA,skipped,NA,228368.8,NA,NA,228361.3,228369.1,2024-05-26T13:23:16Z,228366.998,NULL,Hoffnung,matarajio,d,NA,NA,NA,NA,sdf,NA,0,NA,NA,NA,NA,NA,NA,NA,NA,NA,NA,NA,NA,NA,NA,NA,NA,NA,NA,NA
f6014,"""Falsch""-Screen",canvas.Screen,3_0_0_0_3_0_2,NA,NA,timeout,4995.402,228369.6,228366.998,228366.998,233345.5,233346.7,2024-05-26T13:23:21Z,233362.4,NULL,Hoffnung,matarajio,d,NA,NA,NA,NA,sdf,0,0,NA,NA,NA,NA,NA,NA,NA,NA,NA,NA,NA,NA,NA,NA,NA,NA,NA,NA,NA
f6014,deep,flow.Sequence,3_0_0_0_3_0,NA,NA,completion,8577.7,224752.6,224750.7,224767.8,233345.5,233347.1,2024-05-26T13:23:21Z,233362.4,NULL,Hoffnung,matarajio,d,NA,NA,NA,NA,sdf,NA,0,NA,NA,NA,NA,NA,NA,NA,NA,NA,NA,NA,NA,NA,NA,NA,NA,NA,NA,NA
f6014,shallow,flow.Sequence,3_0_0_0_3_1,NA,NA,skipped,NA,233347.3,NA,NA,233345.5,233347.4,2024-05-26T13:23:21Z,233362.4,NULL,Hoffnung,matarajio,d,NA,NA,NA,NA,sdf,NA,0,NA,NA,NA,NA,NA,NA,NA,NA,NA,NA,NA,NA,NA,NA,NA,NA,NA,NA,NA
f6014,task,flow.Sequence,3_0_0_0_3,NA,NA,completion,8577.7,224752.5,224750.7,224767.8,233345.5,233347.6,2024-05-26T13:23:21Z,233362.4,NULL,Hoffnung,matarajio,d,NA,NA,NA,NA,sdf,NA,0,NA,NA,NA,NA,NA,NA,NA,NA,NA,NA,NA,NA,NA,NA,NA,NA,NA,NA,NA
f6014,Deep Question,html.Page,3_0_0_0_4_0_0,NA,NA,form submission,3990.8999999989,233347.8,233345.5,233362.4,237353.3,237353.5,2024-05-26T13:23:25Z,237359.4,NULL,Verpackung,ufungaji,d,NA,NA,NA,khgg,NA,NA,0,NA,NA,NA,NA,NA,NA,NA,NA,NA,NA,NA,NA,NA,NA,NA,NA,NA,NA,NA
f6014,"""Richtig""-Screen",canvas.Screen,3_0_0_0_4_0_1,NA,NA,skipped,NA,237356.7,NA,NA,237353.3,237356.8,2024-05-26T13:23:25Z,237359.4,NULL,Verpackung,ufungaji,d,NA,NA,NA,NA,sdf,NA,0,NA,NA,NA,NA,NA,NA,NA,NA,NA,NA,NA,NA,NA,NA,NA,NA,NA,NA,NA
f6014,"""Falsch""-Screen",canvas.Screen,3_0_0_0_4_0_2,NA,NA,timeout,4997.4,237357.6,237343.86,237359.4,242339.8,242340.9,2024-05-26T13:23:30Z,242356.8,NULL,Verpackung,ufungaji,d,NA,NA,NA,NA,sdf,0,0,NA,NA,NA,NA,NA,NA,NA,NA,NA,NA,NA,NA,NA,NA,NA,NA,NA,NA,NA
f6014,deep,flow.Sequence,3_0_0_0_4_0,NA,NA,completion,8977.4,233347.7,233345.5,233362.4,242339.8,242341.3,2024-05-26T13:23:30Z,242356.8,NULL,Verpackung,ufungaji,d,NA,NA,NA,NA,sdf,NA,0,NA,NA,NA,NA,NA,NA,NA,NA,NA,NA,NA,NA,NA,NA,NA,NA,NA,NA,NA
f6014,shallow,flow.Sequence,3_0_0_0_4_1,NA,NA,skipped,NA,242341.4,NA,NA,242339.8,242341.7,2024-05-26T13:23:30Z,242356.8,NULL,Verpackung,ufungaji,d,NA,NA,NA,NA,sdf,NA,0,NA,NA,NA,NA,NA,NA,NA,NA,NA,NA,NA,NA,NA,NA,NA,NA,NA,NA,NA
f6014,task,flow.Sequence,3_0_0_0_4,NA,NA,completion,8977.4,233347.7,233345.5,233362.4,242339.8,242341.8,2024-05-26T13:23:30Z,242356.8,NULL,Verpackung,ufungaji,d,NA,NA,NA,NA,sdf,NA,0,NA,NA,NA,NA,NA,NA,NA,NA,NA,NA,NA,NA,NA,NA,NA,NA,NA,NA,NA
f6014,deep,flow.Sequence,3_0_0_0_5_0,NA,NA,skipped,NA,242341.9,NA,NA,242339.8,242342,2024-05-26T13:23:30Z,242356.8,NULL,Theorie,nadharia,s,ushungi,mkutano,uwakilishi,NA,sdf,NA,0,NA,NA,NA,NA,NA,NA,NA,NA,NA,NA,NA,NA,NA,NA,NA,NA,NA,NA,NA
f6014,Shallow Question,html.Page,3_0_0_0_5_1_0,NA,NA,form submission,9188.6000000004,242342.2,242339.8,242356.8,251545.4,251545.5,2024-05-26T13:23:39Z,251550.8,NULL,Theorie,nadharia,s,ushungi,mkutano,uwakilishi,uwakilishi,NA,NA,0,NA,NA,NA,NA,NA,NA,NA,NA,NA,NA,NA,NA,NA,NA,NA,NA,NA,NA,NA
f6014,"""Richtig""-Screen",canvas.Screen,3_0_0_0_5_1_1,NA,NA,skipped,NA,251548.7,NA,NA,251545.4,251548.8,2024-05-26T13:23:39Z,251550.8,NULL,Theorie,nadharia,s,ushungi,mkutano,uwakilishi,NA,sdf,NA,0,NA,NA,NA,NA,NA,NA,NA,NA,NA,NA,NA,NA,NA,NA,NA,NA,NA,NA,NA
f6014,"""Falsch""-Screen",canvas.Screen,3_0_0_0_5_1_2,NA,NA,timeout,4997.3,251549.5,251534.818,251550.8,256531.5,256532.7,2024-05-26T13:23:44Z,256548.1,NULL,Theorie,nadharia,s,ushungi,mkutano,uwakilishi,NA,sdf,0,0,NA,NA,NA,NA,NA,NA,NA,NA,NA,NA,NA,NA,NA,NA,NA,NA,NA,NA,NA
f6014,shallow,flow.Sequence,3_0_0_0_5_1,NA,NA,completion,14174.7,242342.1,242339.8,242356.8,256531.5,256533.1,2024-05-26T13:23:44Z,256548.1,NULL,Theorie,nadharia,s,ushungi,mkutano,uwakilishi,NA,sdf,NA,0,NA,NA,NA,NA,NA,NA,NA,NA,NA,NA,NA,NA,NA,NA,NA,NA,NA,NA,NA
f6014,task,flow.Sequence,3_0_0_0_5,NA,NA,completion,14174.7,242341.9,242339.8,242356.8,256531.5,256533.4,2024-05-26T13:23:44Z,256548.1,NULL,Theorie,nadharia,s,ushungi,mkutano,uwakilishi,NA,sdf,NA,0,NA,NA,NA,NA,NA,NA,NA,NA,NA,NA,NA,NA,NA,NA,NA,NA,NA,NA,NA
f6014,deep,flow.Sequence,3_0_0_0_6_0,NA,NA,skipped,NA,256533.5,NA,NA,256531.5,256533.6,2024-05-26T13:23:44Z,256548.1,NULL,Zufall,kikuti,s,kukosekana,uchoraji,leseni,NA,sdf,NA,0,NA,NA,NA,NA,NA,NA,NA,NA,NA,NA,NA,NA,NA,NA,NA,NA,NA,NA,NA
f6014,Shallow Question,html.Page,3_0_0_0_6_1_0,NA,NA,form submission,5785.0999999992,256533.8,256531.5,256548.1,262333.2,262333.4,2024-05-26T13:23:50Z,262344.5,NULL,Zufall,kikuti,s,kukosekana,uchoraji,leseni,kikuti,NA,NA,0,NA,NA,NA,NA,NA,NA,NA,NA,NA,NA,NA,NA,NA,NA,NA,NA,NA,NA,NA
f6014,"""Richtig""-Screen",canvas.Screen,3_0_0_0_6_1_1,NA,NA,timeout,4996.7,262336.7,262327.996,262344.5,267324.8,267326.2,2024-05-26T13:23:55Z,267341.2,NULL,Zufall,kikuti,s,kukosekana,uchoraji,leseni,NA,sdf,1,0,NA,NA,NA,NA,NA,NA,NA,NA,NA,NA,NA,NA,NA,NA,NA,NA,NA,NA,NA
f6014,"""Falsch""-Screen",canvas.Screen,3_0_0_0_6_1_2,NA,NA,skipped,NA,267331.9,NA,NA,267324.8,267332.2,2024-05-26T13:23:55Z,267341.2,NULL,Zufall,kikuti,s,kukosekana,uchoraji,leseni,NA,sdf,NA,0,NA,NA,NA,NA,NA,NA,NA,NA,NA,NA,NA,NA,NA,NA,NA,NA,NA,NA,NA
f6014,shallow,flow.Sequence,3_0_0_0_6_1,NA,NA,completion,10776.7,256533.8,256531.5,256548.1,267324.8,267332.5,2024-05-26T13:23:55Z,267341.2,NULL,Zufall,kikuti,s,kukosekana,uchoraji,leseni,NA,sdf,NA,0,NA,NA,NA,NA,NA,NA,NA,NA,NA,NA,NA,NA,NA,NA,NA,NA,NA,NA,NA
f6014,task,flow.Sequence,3_0_0_0_6,NA,NA,completion,10776.7,256533.5,256531.5,256548.1,267324.8,267332.7,2024-05-26T13:23:55Z,267341.2,NULL,Zufall,kikuti,s,kukosekana,uchoraji,leseni,NA,sdf,NA,0,NA,NA,NA,NA,NA,NA,NA,NA,NA,NA,NA,NA,NA,NA,NA,NA,NA,NA,NA
f6014,deep,flow.Sequence,3_0_0_0_7_0,NA,NA,skipped,NA,267332.8,NA,NA,267324.8,267332.9,2024-05-26T13:23:55Z,267341.2,NULL,Schönheit,kirembo,s,mahojiano,msisimko,jitihadi,NA,sdf,NA,0,NA,NA,NA,NA,NA,NA,NA,NA,NA,NA,NA,NA,NA,NA,NA,NA,NA,NA,NA
f6014,Shallow Question,html.Page,3_0_0_0_7_1_0,NA,NA,form submission,6964.0999999989,267333.1,267324.8,267341.2,274305.3,274305.6,2024-05-26T13:24:02Z,274320.8,NULL,Schönheit,kirembo,s,mahojiano,msisimko,jitihadi,mahojiano,NA,NA,0,NA,NA,NA,NA,NA,NA,NA,NA,NA,NA,NA,NA,NA,NA,NA,NA,NA,NA,NA
f6014,"""Richtig""-Screen",canvas.Screen,3_0_0_0_7_1_1,NA,NA,skipped,NA,274308.6,NA,NA,274305.3,274308.7,2024-05-26T13:24:02Z,274320.8,NULL,Schönheit,kirembo,s,mahojiano,msisimko,jitihadi,NA,sdf,NA,0,NA,NA,NA,NA,NA,NA,NA,NA,NA,NA,NA,NA,NA,NA,NA,NA,NA,NA,NA
f6014,"""Falsch""-Screen",canvas.Screen,3_0_0_0_7_1_2,NA,NA,timeout,4997,274309.4,274304.262,274320.8,279300.9,279302.2,2024-05-26T13:24:07Z,279317.8,NULL,Schönheit,kirembo,s,mahojiano,msisimko,jitihadi,NA,sdf,0,0,NA,NA,NA,NA,NA,NA,NA,NA,NA,NA,NA,NA,NA,NA,NA,NA,NA,NA,NA
f6014,shallow,flow.Sequence,3_0_0_0_7_1,NA,NA,completion,11959.7,267333.1,267324.8,267341.2,279300.9,279302.6,2024-05-26T13:24:07Z,279317.8,NULL,Schönheit,kirembo,s,mahojiano,msisimko,jitihadi,NA,sdf,NA,0,NA,NA,NA,NA,NA,NA,NA,NA,NA,NA,NA,NA,NA,NA,NA,NA,NA,NA,NA
f6014,task,flow.Sequence,3_0_0_0_7,NA,NA,completion,11959.7,267332.8,267324.8,267341.2,279300.9,279302.8,2024-05-26T13:24:07Z,279317.8,NULL,Schönheit,kirembo,s,mahojiano,msisimko,jitihadi,NA,sdf,NA,0,NA,NA,NA,NA,NA,NA,NA,NA,NA,NA,NA,NA,NA,NA,NA,NA,NA,NA,NA
f6014,block,flow.Loop,3_0_0_0,NA,NA,completion,123141.3,156145.9,156144.416,156159.6,279300.9,279303.1,2024-05-26T13:24:07Z,279317.8,NULL,NA,NA,NA,NA,NA,NA,NA,sdf,NA,0,NA,NA,NA,NA,NA,NA,NA,NA,NA,NA,NA,NA,NA,NA,NA,NA,NA,NA,NA
f6014,weiter,canvas.Screen,3_0_0_1,sdf,keypress(Space),response,3580.1000000004,279303.3,279300.9,279317.8,282897.9,282898.8,2024-05-26T13:24:11Z,282917.098,NULL,NA,NA,NA,NA,NA,NA,NA,sdf,NA,0,NA,NA,NA,NA,NA,NA,NA,NA,NA,NA,NA,NA,NA,NA,NA,NA,NA,NA,NA
f6014,check continue,flow.Sequence,3_0_0,NA,NA,completion,126738.3,156145.9,156144.416,156159.6,282897.9,282899.1,2024-05-26T13:24:11Z,282917.098,NULL,NA,NA,NA,NA,NA,NA,NA,sdf,NA,0,NA,NA,NA,NA,NA,NA,NA,NA,NA,NA,NA,NA,NA,NA,NA,NA,NA,NA,NA
f6014,deep,flow.Sequence,3_0_1_0_0_0,NA,NA,skipped,NA,282918.4,NA,NA,282897.9,282918.4,2024-05-26T13:24:11Z,282917.098,NULL,Zufall,kikuti,s,kukosekana,uchoraji,leseni,NA,sdfdsf,NA,1,NA,NA,NA,NA,NA,NA,NA,NA,NA,NA,NA,NA,NA,NA,NA,NA,NA,NA,NA
f6014,Shallow Question,html.Page,3_0_1_0_0_1_0,NA,NA,form submission,7448.2019999989,282918.6,282917.098,282917.098,290365.3,290365.5,2024-05-26T13:24:18Z,290377.5,NULL,Zufall,kikuti,s,kukosekana,uchoraji,leseni,kikuti,NA,NA,1,NA,NA,NA,NA,NA,NA,NA,NA,NA,NA,NA,NA,NA,NA,NA,NA,NA,NA,NA
f6014,"""Richtig""-Screen",canvas.Screen,3_0_1_0_0_1_1,NA,NA,timeout,4997.1,290368.5,290361.1,290377.5,295357.5,295358.5,2024-05-26T13:24:23Z,295374.6,NULL,Zufall,kikuti,s,kukosekana,uchoraji,leseni,NA,sdfdsf,1,1,NA,NA,NA,NA,NA,NA,NA,NA,NA,NA,NA,NA,NA,NA,NA,NA,NA,NA,NA
f6014,"""Falsch""-Screen",canvas.Screen,3_0_1_0_0_1_2,NA,NA,skipped,NA,295363.9,NA,NA,295357.5,295364,2024-05-26T13:24:23Z,295374.6,NULL,Zufall,kikuti,s,kukosekana,uchoraji,leseni,NA,sdfdsf,NA,1,NA,NA,NA,NA,NA,NA,NA,NA,NA,NA,NA,NA,NA,NA,NA,NA,NA,NA,NA
f6014,shallow,flow.Sequence,3_0_1_0_0_1,NA,NA,completion,12440.402,282918.6,282917.098,282917.098,295357.5,295364.1,2024-05-26T13:24:23Z,295374.6,NULL,Zufall,kikuti,s,kukosekana,uchoraji,leseni,NA,sdfdsf,NA,1,NA,NA,NA,NA,NA,NA,NA,NA,NA,NA,NA,NA,NA,NA,NA,NA,NA,NA,NA
f6014,task,flow.Sequence,3_0_1_0_0,NA,NA,completion,12440.402,282918.4,282917.098,282917.098,295357.5,295364.2,2024-05-26T13:24:23Z,295374.6,NULL,Zufall,kikuti,s,kukosekana,uchoraji,leseni,NA,sdfdsf,NA,1,NA,NA,NA,NA,NA,NA,NA,NA,NA,NA,NA,NA,NA,NA,NA,NA,NA,NA,NA
f6014,Deep Question,html.Page,3_0_1_0_1_0_0,NA,NA,form submission,5237.8000000004,295364.2,295357.5,295374.6,300612.4,300612.6,2024-05-26T13:24:28Z,300620.9,NULL,Wettbewerb,ushindani,d,NA,NA,NA,jgg,NA,NA,1,NA,NA,NA,NA,NA,NA,NA,NA,NA,NA,NA,NA,NA,NA,NA,NA,NA,NA,NA
f6014,"""Richtig""-Screen",canvas.Screen,3_0_1_0_1_0_1,NA,NA,skipped,NA,300615.6,NA,NA,300612.4,300615.7,2024-05-26T13:24:28Z,300620.9,NULL,Wettbewerb,ushindani,d,NA,NA,NA,NA,sdfdsf,NA,1,NA,NA,NA,NA,NA,NA,NA,NA,NA,NA,NA,NA,NA,NA,NA,NA,NA,NA,NA
f6014,"""Falsch""-Screen",canvas.Screen,3_0_1_0_1_0_2,NA,NA,timeout,4997.6,300616.4,300606.548,300620.9,305601.5,305602.6,2024-05-26T13:24:33Z,305618.5,NULL,Wettbewerb,ushindani,d,NA,NA,NA,NA,sdfdsf,0,1,NA,NA,NA,NA,NA,NA,NA,NA,NA,NA,NA,NA,NA,NA,NA,NA,NA,NA,NA
f6014,deep,flow.Sequence,3_0_1_0_1_0,NA,NA,completion,10226.9,295364.2,295357.5,295374.6,305601.5,305603,2024-05-26T13:24:33Z,305618.5,NULL,Wettbewerb,ushindani,d,NA,NA,NA,NA,sdfdsf,NA,1,NA,NA,NA,NA,NA,NA,NA,NA,NA,NA,NA,NA,NA,NA,NA,NA,NA,NA,NA
f6014,shallow,flow.Sequence,3_0_1_0_1_1,NA,NA,skipped,NA,305603.2,NA,NA,305601.5,305603.3,2024-05-26T13:24:33Z,305618.5,NULL,Wettbewerb,ushindani,d,NA,NA,NA,NA,sdfdsf,NA,1,NA,NA,NA,NA,NA,NA,NA,NA,NA,NA,NA,NA,NA,NA,NA,NA,NA,NA,NA
f6014,task,flow.Sequence,3_0_1_0_1,NA,NA,completion,10226.9,295364.2,295357.5,295374.6,305601.5,305603.6,2024-05-26T13:24:33Z,305618.5,NULL,Wettbewerb,ushindani,d,NA,NA,NA,NA,sdfdsf,NA,1,NA,NA,NA,NA,NA,NA,NA,NA,NA,NA,NA,NA,NA,NA,NA,NA,NA,NA,NA
f6014,deep,flow.Sequence,3_0_1_0_2_0,NA,NA,skipped,NA,305603.7,NA,NA,305601.5,305603.9,2024-05-26T13:24:33Z,305618.5,NULL,Theorie,nadharia,s,ushungi,mkutano,uwakilishi,NA,sdfdsf,NA,1,NA,NA,NA,NA,NA,NA,NA,NA,NA,NA,NA,NA,NA,NA,NA,NA,NA,NA,NA
f6014,Shallow Question,html.Page,3_0_1_0_2_1_0,NA,NA,form submission,6383,305603.9,305601.5,305618.5,312001.5,312001.7,2024-05-26T13:24:40Z,312014.3,NULL,Theorie,nadharia,s,ushungi,mkutano,uwakilishi,mkutano,NA,NA,1,NA,NA,NA,NA,NA,NA,NA,NA,NA,NA,NA,NA,NA,NA,NA,NA,NA,NA,NA
f6014,"""Richtig""-Screen",canvas.Screen,3_0_1_0_2_1_1,NA,NA,skipped,NA,312004.9,NA,NA,312001.5,312005,2024-05-26T13:24:40Z,312014.3,NULL,Theorie,nadharia,s,ushungi,mkutano,uwakilishi,NA,sdfdsf,NA,1,NA,NA,NA,NA,NA,NA,NA,NA,NA,NA,NA,NA,NA,NA,NA,NA,NA,NA,NA
f6014,"""Falsch""-Screen",canvas.Screen,3_0_1_0_2_1_2,NA,NA,timeout,4996.6,312005.8,311998.086,312014.3,316994.7,316995.5,2024-05-26T13:24:45Z,317010.9,NULL,Theorie,nadharia,s,ushungi,mkutano,uwakilishi,NA,sdfdsf,0,1,NA,NA,NA,NA,NA,NA,NA,NA,NA,NA,NA,NA,NA,NA,NA,NA,NA,NA,NA
f6014,shallow,flow.Sequence,3_0_1_0_2_1,NA,NA,completion,11376.2,305603.9,305601.5,305618.5,316994.7,316995.8,2024-05-26T13:24:45Z,317010.9,NULL,Theorie,nadharia,s,ushungi,mkutano,uwakilishi,NA,sdfdsf,NA,1,NA,NA,NA,NA,NA,NA,NA,NA,NA,NA,NA,NA,NA,NA,NA,NA,NA,NA,NA
f6014,task,flow.Sequence,3_0_1_0_2,NA,NA,completion,11376.2,305603.7,305601.5,305618.5,316994.7,316996.1,2024-05-26T13:24:45Z,317010.9,NULL,Theorie,nadharia,s,ushungi,mkutano,uwakilishi,NA,sdfdsf,NA,1,NA,NA,NA,NA,NA,NA,NA,NA,NA,NA,NA,NA,NA,NA,NA,NA,NA,NA,NA
f6014,Deep Question,html.Page,3_0_1_0_3_0_0,NA,NA,form submission,5823.1999999996,316996.2,316994.7,317010.9,322834.1,322834.3,2024-05-26T13:24:51Z,322840.8,NULL,Verpackung,ufungaji,d,NA,NA,NA,gjh,NA,NA,1,NA,NA,NA,NA,NA,NA,NA,NA,NA,NA,NA,NA,NA,NA,NA,NA,NA,NA,NA
f6014,"""Richtig""-Screen",canvas.Screen,3_0_1_0_3_0_1,NA,NA,skipped,NA,322835.8,NA,NA,322834.1,322835.9,2024-05-26T13:24:51Z,322840.8,NULL,Verpackung,ufungaji,d,NA,NA,NA,NA,sdfdsf,NA,1,NA,NA,NA,NA,NA,NA,NA,NA,NA,NA,NA,NA,NA,NA,NA,NA,NA,NA,NA
f6014,"""Falsch""-Screen",canvas.Screen,3_0_1_0_3_0_2,NA,NA,timeout,4997.2,322836.2,322824.8,322840.8,327821,327822,2024-05-26T13:24:56Z,327838,NULL,Verpackung,ufungaji,d,NA,NA,NA,NA,sdfdsf,0,1,NA,NA,NA,NA,NA,NA,NA,NA,NA,NA,NA,NA,NA,NA,NA,NA,NA,NA,NA
f6014,deep,flow.Sequence,3_0_1_0_3_0,NA,NA,completion,10810.1,316996.2,316994.7,317010.9,327821,327822.2,2024-05-26T13:24:56Z,327838,NULL,Verpackung,ufungaji,d,NA,NA,NA,NA,sdfdsf,NA,1,NA,NA,NA,NA,NA,NA,NA,NA,NA,NA,NA,NA,NA,NA,NA,NA,NA,NA,NA
f6014,shallow,flow.Sequence,3_0_1_0_3_1,NA,NA,skipped,NA,327822.4,NA,NA,327821,327822.5,2024-05-26T13:24:56Z,327838,NULL,Verpackung,ufungaji,d,NA,NA,NA,NA,sdfdsf,NA,1,NA,NA,NA,NA,NA,NA,NA,NA,NA,NA,NA,NA,NA,NA,NA,NA,NA,NA,NA
f6014,task,flow.Sequence,3_0_1_0_3,NA,NA,completion,10810.1,316996.2,316994.7,317010.9,327821,327822.7,2024-05-26T13:24:56Z,327838,NULL,Verpackung,ufungaji,d,NA,NA,NA,NA,sdfdsf,NA,1,NA,NA,NA,NA,NA,NA,NA,NA,NA,NA,NA,NA,NA,NA,NA,NA,NA,NA,NA
f6014,Deep Question,html.Page,3_0_1_0_4_0_0,NA,NA,form submission,3136.1999999993,327822.8,327821,327838,330974.2,330974.3,2024-05-26T13:24:59Z,331002.8,NULL,Hoffnung,matarajio,d,NA,NA,NA,hh,NA,NA,1,NA,NA,NA,NA,NA,NA,NA,NA,NA,NA,NA,NA,NA,NA,NA,NA,NA,NA,NA
f6014,"""Richtig""-Screen",canvas.Screen,3_0_1_0_4_0_1,NA,NA,skipped,NA,330977.5,NA,NA,330974.2,330977.7,2024-05-26T13:24:59Z,331002.8,NULL,Hoffnung,matarajio,d,NA,NA,NA,NA,sdfdsf,NA,1,NA,NA,NA,NA,NA,NA,NA,NA,NA,NA,NA,NA,NA,NA,NA,NA,NA,NA,NA
f6014,"""Falsch""-Screen",canvas.Screen,3_0_1_0_4_0_2,NA,NA,timeout,4996.8,330978.5,330986.1,331002.8,335983.1,335984,2024-05-26T13:25:04Z,335999.6,NULL,Hoffnung,matarajio,d,NA,NA,NA,NA,sdfdsf,0,1,NA,NA,NA,NA,NA,NA,NA,NA,NA,NA,NA,NA,NA,NA,NA,NA,NA,NA,NA
f6014,deep,flow.Sequence,3_0_1_0_4_0,NA,NA,completion,8145.1,327822.8,327821,327838,335983.1,335984.4,2024-05-26T13:25:04Z,335999.6,NULL,Hoffnung,matarajio,d,NA,NA,NA,NA,sdfdsf,NA,1,NA,NA,NA,NA,NA,NA,NA,NA,NA,NA,NA,NA,NA,NA,NA,NA,NA,NA,NA
f6014,shallow,flow.Sequence,3_0_1_0_4_1,NA,NA,skipped,NA,335984.5,NA,NA,335983.1,335984.7,2024-05-26T13:25:04Z,335999.6,NULL,Hoffnung,matarajio,d,NA,NA,NA,NA,sdfdsf,NA,1,NA,NA,NA,NA,NA,NA,NA,NA,NA,NA,NA,NA,NA,NA,NA,NA,NA,NA,NA
f6014,task,flow.Sequence,3_0_1_0_4,NA,NA,completion,8145.1,327822.8,327821,327838,335983.1,335984.8,2024-05-26T13:25:04Z,335999.6,NULL,Hoffnung,matarajio,d,NA,NA,NA,NA,sdfdsf,NA,1,NA,NA,NA,NA,NA,NA,NA,NA,NA,NA,NA,NA,NA,NA,NA,NA,NA,NA,NA
f6014,deep,flow.Sequence,3_0_1_0_5_0,NA,NA,skipped,NA,335985,NA,NA,335983.1,335985.1,2024-05-26T13:25:04Z,335999.6,NULL,Schock,mshtuko,s,biashara,kukataza,vichekesho,NA,sdfdsf,NA,1,NA,NA,NA,NA,NA,NA,NA,NA,NA,NA,NA,NA,NA,NA,NA,NA,NA,NA,NA
f6014,Shallow Question,html.Page,3_0_1_0_5_1_0,NA,NA,form submission,7259.5999999993,335985.3,335983.1,335999.6,343259.2,343259.5,2024-05-26T13:25:11Z,343263.396,NULL,Schock,mshtuko,s,biashara,kukataza,vichekesho,biashara,NA,NA,1,NA,NA,NA,NA,NA,NA,NA,NA,NA,NA,NA,NA,NA,NA,NA,NA,NA,NA,NA
f6014,"""Richtig""-Screen",canvas.Screen,3_0_1_0_5_1_1,NA,NA,skipped,NA,343262.7,NA,NA,343259.2,343262.9,2024-05-26T13:25:11Z,343263.396,NULL,Schock,mshtuko,s,biashara,kukataza,vichekesho,NA,sdfdsf,NA,1,NA,NA,NA,NA,NA,NA,NA,NA,NA,NA,NA,NA,NA,NA,NA,NA,NA,NA,NA
f6014,"""Falsch""-Screen",canvas.Screen,3_0_1_0_5_1_2,NA,NA,timeout,4995.304,343263.7,343263.396,343263.396,348242.1,348243.1,2024-05-26T13:25:16Z,348258.7,NULL,Schock,mshtuko,s,biashara,kukataza,vichekesho,NA,sdfdsf,0,1,NA,NA,NA,NA,NA,NA,NA,NA,NA,NA,NA,NA,NA,NA,NA,NA,NA,NA,NA
f6014,shallow,flow.Sequence,3_0_1_0_5_1,NA,NA,completion,12242.5,335985.2,335983.1,335999.6,348242.1,348243.4,2024-05-26T13:25:16Z,348258.7,NULL,Schock,mshtuko,s,biashara,kukataza,vichekesho,NA,sdfdsf,NA,1,NA,NA,NA,NA,NA,NA,NA,NA,NA,NA,NA,NA,NA,NA,NA,NA,NA,NA,NA
f6014,task,flow.Sequence,3_0_1_0_5,NA,NA,completion,12242.5,335985,335983.1,335999.6,348242.1,348243.6,2024-05-26T13:25:16Z,348258.7,NULL,Schock,mshtuko,s,biashara,kukataza,vichekesho,NA,sdfdsf,NA,1,NA,NA,NA,NA,NA,NA,NA,NA,NA,NA,NA,NA,NA,NA,NA,NA,NA,NA,NA
f6014,Deep Question,html.Page,3_0_1_0_6_0_0,NA,NA,form submission,3334.8,348243.9,348242.1,348258.7,351593.5,351593.8,2024-05-26T13:25:19Z,351606.6,NULL,Auftrag,uagizaji,d,NA,NA,NA,gg,NA,NA,1,NA,NA,NA,NA,NA,NA,NA,NA,NA,NA,NA,NA,NA,NA,NA,NA,NA,NA,NA
f6014,"""Richtig""-Screen",canvas.Screen,3_0_1_0_6_0_1,NA,NA,skipped,NA,351597,NA,NA,351593.5,351597.1,2024-05-26T13:25:19Z,351606.6,NULL,Auftrag,uagizaji,d,NA,NA,NA,NA,sdfdsf,NA,1,NA,NA,NA,NA,NA,NA,NA,NA,NA,NA,NA,NA,NA,NA,NA,NA,NA,NA,NA
f6014,"""Falsch""-Screen",canvas.Screen,3_0_1_0_6_0_2,NA,NA,timeout,4997.2,351598.2,351590.428,351606.6,356587.3,356588.2,2024-05-26T13:25:24Z,356603.8,NULL,Auftrag,uagizaji,d,NA,NA,NA,NA,sdfdsf,0,1,NA,NA,NA,NA,NA,NA,NA,NA,NA,NA,NA,NA,NA,NA,NA,NA,NA,NA,NA
f6014,deep,flow.Sequence,3_0_1_0_6_0,NA,NA,completion,8328.6,348243.9,348242.1,348258.7,356587.3,356588.5,2024-05-26T13:25:24Z,356603.8,NULL,Auftrag,uagizaji,d,NA,NA,NA,NA,sdfdsf,NA,1,NA,NA,NA,NA,NA,NA,NA,NA,NA,NA,NA,NA,NA,NA,NA,NA,NA,NA,NA
f6014,shallow,flow.Sequence,3_0_1_0_6_1,NA,NA,skipped,NA,356588.6,NA,NA,356587.3,356588.8,2024-05-26T13:25:24Z,356603.8,NULL,Auftrag,uagizaji,d,NA,NA,NA,NA,sdfdsf,NA,1,NA,NA,NA,NA,NA,NA,NA,NA,NA,NA,NA,NA,NA,NA,NA,NA,NA,NA,NA
f6014,task,flow.Sequence,3_0_1_0_6,NA,NA,completion,8328.6,348243.8,348242.1,348258.7,356587.3,356588.9,2024-05-26T13:25:24Z,356603.8,NULL,Auftrag,uagizaji,d,NA,NA,NA,NA,sdfdsf,NA,1,NA,NA,NA,NA,NA,NA,NA,NA,NA,NA,NA,NA,NA,NA,NA,NA,NA,NA,NA
f6014,deep,flow.Sequence,3_0_1_0_7_0,NA,NA,skipped,NA,356589,NA,NA,356587.3,356589.1,2024-05-26T13:25:24Z,356603.8,NULL,Schönheit,kirembo,s,mahojiano,msisimko,jitihadi,NA,sdfdsf,NA,1,NA,NA,NA,NA,NA,NA,NA,NA,NA,NA,NA,NA,NA,NA,NA,NA,NA,NA,NA
f6014,Shallow Question,html.Page,3_0_1_0_7_1_0,NA,NA,form submission,10609.6,356589.2,356587.3,356603.8,367213.4,367213.6,2024-05-26T13:25:35Z,367231.7,NULL,Schönheit,kirembo,s,mahojiano,msisimko,jitihadi,kirembo,NA,NA,1,NA,NA,NA,NA,NA,NA,NA,NA,NA,NA,NA,NA,NA,NA,NA,NA,NA,NA,NA
f6014,"""Richtig""-Screen",canvas.Screen,3_0_1_0_7_1_1,NA,NA,timeout,4996.1,367216.8,367215.994,367231.7,372210.8,372211.7,2024-05-26T13:25:40Z,372227.8,NULL,Schönheit,kirembo,s,mahojiano,msisimko,jitihadi,NA,sdfdsf,1,1,NA,NA,NA,NA,NA,NA,NA,NA,NA,NA,NA,NA,NA,NA,NA,NA,NA,NA,NA
f6014,"""Falsch""-Screen",canvas.Screen,3_0_1_0_7_1_2,NA,NA,skipped,NA,372216.7,NA,NA,372210.8,372216.7,2024-05-26T13:25:40Z,372227.8,NULL,Schönheit,kirembo,s,mahojiano,msisimko,jitihadi,NA,sdfdsf,NA,1,NA,NA,NA,NA,NA,NA,NA,NA,NA,NA,NA,NA,NA,NA,NA,NA,NA,NA,NA
f6014,shallow,flow.Sequence,3_0_1_0_7_1,NA,NA,completion,15607,356589.2,356587.3,356603.8,372210.8,372216.8,2024-05-26T13:25:40Z,372227.8,NULL,Schönheit,kirembo,s,mahojiano,msisimko,jitihadi,NA,sdfdsf,NA,1,NA,NA,NA,NA,NA,NA,NA,NA,NA,NA,NA,NA,NA,NA,NA,NA,NA,NA,NA
f6014,task,flow.Sequence,3_0_1_0_7,NA,NA,completion,15607,356589,356587.3,356603.8,372210.8,372216.9,2024-05-26T13:25:40Z,372227.8,NULL,Schönheit,kirembo,s,mahojiano,msisimko,jitihadi,NA,sdfdsf,NA,1,NA,NA,NA,NA,NA,NA,NA,NA,NA,NA,NA,NA,NA,NA,NA,NA,NA,NA,NA
f6014,block,flow.Loop,3_0_1_0,NA,NA,completion,89293.702,282918.4,282917.098,282917.098,372210.8,372216.9,2024-05-26T13:25:40Z,372227.8,NULL,NA,NA,NA,NA,NA,NA,NA,sdfdsf,NA,1,NA,NA,NA,NA,NA,NA,NA,NA,NA,NA,NA,NA,NA,NA,NA,NA,NA,NA,NA
f6014,weiter,canvas.Screen,3_0_1_1,sdf,keypress(Space),response,2114.4999999989,372217,372210.8,372227.8,374342.3,374343.3,2024-05-26T13:25:42Z,374361.048,NULL,NA,NA,NA,NA,NA,NA,NA,sdfdsf,NA,1,NA,NA,NA,NA,NA,NA,NA,NA,NA,NA,NA,NA,NA,NA,NA,NA,NA,NA,NA
f6014,check continue,flow.Sequence,3_0_1,NA,NA,completion,91425.201999999,282918.4,282917.098,282917.098,374342.3,374343.5,2024-05-26T13:25:42Z,374361.048,NULL,NA,NA,NA,NA,NA,NA,NA,sdfdsf,NA,1,NA,NA,NA,NA,NA,NA,NA,NA,NA,NA,NA,NA,NA,NA,NA,NA,NA,NA,NA
f6014,deep,flow.Sequence,3_0_2_0_0_0,NA,NA,skipped,NA,374366,NA,NA,374342.3,374366.3,2024-05-26T13:25:42Z,374361.048,NULL,Zufall,kikuti,s,kukosekana,uchoraji,leseni,NA,sdf,NA,2,NA,NA,NA,NA,NA,NA,NA,NA,NA,NA,NA,NA,NA,NA,NA,NA,NA,NA,NA
f6014,Shallow Question,html.Page,3_0_2_0_0_1_0,NA,NA,form submission,5732.3520000004,374366.3,374361.048,374361.048,380093.4,380093.7,2024-05-26T13:25:48Z,380106.2,NULL,Zufall,kikuti,s,kukosekana,uchoraji,leseni,uchoraji,NA,NA,2,NA,NA,NA,NA,NA,NA,NA,NA,NA,NA,NA,NA,NA,NA,NA,NA,NA,NA,NA
f6014,"""Richtig""-Screen",canvas.Screen,3_0_2_0_0_1_1,NA,NA,skipped,NA,380096.7,NA,NA,380093.4,380096.8,2024-05-26T13:25:48Z,380106.2,NULL,Zufall,kikuti,s,kukosekana,uchoraji,leseni,NA,sdf,NA,2,NA,NA,NA,NA,NA,NA,NA,NA,NA,NA,NA,NA,NA,NA,NA,NA,NA,NA,NA
f6014,"""Falsch""-Screen",canvas.Screen,3_0_2_0_0_1_2,NA,NA,timeout,4996.6,380097.3,380089.762,380106.2,385086.6,385087.4,2024-05-26T13:25:53Z,385102.8,NULL,Zufall,kikuti,s,kukosekana,uchoraji,leseni,NA,sdf,0,2,NA,NA,NA,NA,NA,NA,NA,NA,NA,NA,NA,NA,NA,NA,NA,NA,NA,NA,NA
f6014,shallow,flow.Sequence,3_0_2_0_0_1,NA,NA,completion,10725.552,374366.3,374361.048,374361.048,385086.6,385087.8,2024-05-26T13:25:53Z,385102.8,NULL,Zufall,kikuti,s,kukosekana,uchoraji,leseni,NA,sdf,NA,2,NA,NA,NA,NA,NA,NA,NA,NA,NA,NA,NA,NA,NA,NA,NA,NA,NA,NA,NA
f6014,task,flow.Sequence,3_0_2_0_0,NA,NA,completion,10725.552,374366,374361.048,374361.048,385086.6,385088,2024-05-26T13:25:53Z,385102.8,NULL,Zufall,kikuti,s,kukosekana,uchoraji,leseni,NA,sdf,NA,2,NA,NA,NA,NA,NA,NA,NA,NA,NA,NA,NA,NA,NA,NA,NA,NA,NA,NA,NA
f6014,deep,flow.Sequence,3_0_2_0_1_0,NA,NA,skipped,NA,385088.1,NA,NA,385086.6,385088.2,2024-05-26T13:25:53Z,385102.8,NULL,Theorie,nadharia,s,ushungi,mkutano,uwakilishi,NA,sdf,NA,2,NA,NA,NA,NA,NA,NA,NA,NA,NA,NA,NA,NA,NA,NA,NA,NA,NA,NA,NA
f6014,Shallow Question,html.Page,3_0_2_0_1_1_0,NA,NA,form submission,7394.6000000004,385088.4,385086.6,385102.8,392497.4,392497.6,2024-05-26T13:26:00Z,392498.696,NULL,Theorie,nadharia,s,ushungi,mkutano,uwakilishi,mkutano,NA,NA,2,NA,NA,NA,NA,NA,NA,NA,NA,NA,NA,NA,NA,NA,NA,NA,NA,NA,NA,NA
f6014,"""Richtig""-Screen",canvas.Screen,3_0_2_0_1_1_1,NA,NA,skipped,NA,392500.8,NA,NA,392497.4,392500.8,2024-05-26T13:26:00Z,392498.696,NULL,Theorie,nadharia,s,ushungi,mkutano,uwakilishi,NA,sdf,NA,2,NA,NA,NA,NA,NA,NA,NA,NA,NA,NA,NA,NA,NA,NA,NA,NA,NA,NA,NA
f6014,"""Falsch""-Screen",canvas.Screen,3_0_2_0_1_1_2,NA,NA,timeout,4997.104,392501.6,392498.696,392498.696,397478.8,397479.7,2024-05-26T13:26:05Z,397495.8,NULL,Theorie,nadharia,s,ushungi,mkutano,uwakilishi,NA,sdf,0,2,NA,NA,NA,NA,NA,NA,NA,NA,NA,NA,NA,NA,NA,NA,NA,NA,NA,NA,NA
f6014,shallow,flow.Sequence,3_0_2_0_1_1,NA,NA,completion,12376,385088.4,385086.6,385102.8,397478.8,397480,2024-05-26T13:26:05Z,397495.8,NULL,Theorie,nadharia,s,ushungi,mkutano,uwakilishi,NA,sdf,NA,2,NA,NA,NA,NA,NA,NA,NA,NA,NA,NA,NA,NA,NA,NA,NA,NA,NA,NA,NA
f6014,task,flow.Sequence,3_0_2_0_1,NA,NA,completion,12376,385088.1,385086.6,385102.8,397478.8,397480.3,2024-05-26T13:26:05Z,397495.8,NULL,Theorie,nadharia,s,ushungi,mkutano,uwakilishi,NA,sdf,NA,2,NA,NA,NA,NA,NA,NA,NA,NA,NA,NA,NA,NA,NA,NA,NA,NA,NA,NA,NA
f6014,deep,flow.Sequence,3_0_2_0_2_0,NA,NA,skipped,NA,397480.4,NA,NA,397478.8,397480.5,2024-05-26T13:26:05Z,397495.8,NULL,Schock,mshtuko,s,biashara,kukataza,vichekesho,NA,sdf,NA,2,NA,NA,NA,NA,NA,NA,NA,NA,NA,NA,NA,NA,NA,NA,NA,NA,NA,NA,NA
f6014,Shallow Question,html.Page,3_0_2_0_2_1_0,NA,NA,form submission,4301.4999999989,397480.7,397478.8,397495.8,401797.3,401797.5,2024-05-26T13:26:10Z,401809.2,NULL,Schock,mshtuko,s,biashara,kukataza,vichekesho,mshtuko,NA,NA,2,NA,NA,NA,NA,NA,NA,NA,NA,NA,NA,NA,NA,NA,NA,NA,NA,NA,NA,NA
f6014,"""Richtig""-Screen",canvas.Screen,3_0_2_0_2_1_1,NA,NA,timeout,4997.3,401800.6,401793.2,401809.2,406789.6,406790.6,2024-05-26T13:26:15Z,406806.5,NULL,Schock,mshtuko,s,biashara,kukataza,vichekesho,NA,sdf,1,2,NA,NA,NA,NA,NA,NA,NA,NA,NA,NA,NA,NA,NA,NA,NA,NA,NA,NA,NA
f6014,"""Falsch""-Screen",canvas.Screen,3_0_2_0_2_1_2,NA,NA,skipped,NA,406795.7,NA,NA,406789.6,406795.9,2024-05-26T13:26:15Z,406806.5,NULL,Schock,mshtuko,s,biashara,kukataza,vichekesho,NA,sdf,NA,2,NA,NA,NA,NA,NA,NA,NA,NA,NA,NA,NA,NA,NA,NA,NA,NA,NA,NA,NA
f6014,shallow,flow.Sequence,3_0_2_0_2_1,NA,NA,completion,9293.8,397480.6,397478.8,397495.8,406789.6,406796,2024-05-26T13:26:15Z,406806.5,NULL,Schock,mshtuko,s,biashara,kukataza,vichekesho,NA,sdf,NA,2,NA,NA,NA,NA,NA,NA,NA,NA,NA,NA,NA,NA,NA,NA,NA,NA,NA,NA,NA
f6014,task,flow.Sequence,3_0_2_0_2,NA,NA,completion,9293.8,397480.4,397478.8,397495.8,406789.6,406796,2024-05-26T13:26:15Z,406806.5,NULL,Schock,mshtuko,s,biashara,kukataza,vichekesho,NA,sdf,NA,2,NA,NA,NA,NA,NA,NA,NA,NA,NA,NA,NA,NA,NA,NA,NA,NA,NA,NA,NA
f6014,deep,flow.Sequence,3_0_2_0_3_0,NA,NA,skipped,NA,406796,NA,NA,406789.6,406796.1,2024-05-26T13:26:15Z,406806.5,NULL,Schönheit,kirembo,s,mahojiano,msisimko,jitihadi,NA,sdf,NA,2,NA,NA,NA,NA,NA,NA,NA,NA,NA,NA,NA,NA,NA,NA,NA,NA,NA,NA,NA
f6014,Shallow Question,html.Page,3_0_2_0_3_1_0,NA,NA,form submission,5461.0999999996,406796.1,406789.6,406806.5,412267.6,412267.7,2024-05-26T13:26:20Z,412269.794,NULL,Schönheit,kirembo,s,mahojiano,msisimko,jitihadi,kirembo,NA,NA,2,NA,NA,NA,NA,NA,NA,NA,NA,NA,NA,NA,NA,NA,NA,NA,NA,NA,NA,NA
f6014,"""Richtig""-Screen",canvas.Screen,3_0_2_0_3_1_1,NA,NA,timeout,4997.006,412270.7,412269.794,412269.794,417250.1,417251.7,2024-05-26T13:26:25Z,417266.8,NULL,Schönheit,kirembo,s,mahojiano,msisimko,jitihadi,NA,sdf,1,2,NA,NA,NA,NA,NA,NA,NA,NA,NA,NA,NA,NA,NA,NA,NA,NA,NA,NA,NA
f6014,"""Falsch""-Screen",canvas.Screen,3_0_2_0_3_1_2,NA,NA,skipped,NA,417253.7,NA,NA,417250.1,417253.8,2024-05-26T13:26:25Z,417266.8,NULL,Schönheit,kirembo,s,mahojiano,msisimko,jitihadi,NA,sdf,NA,2,NA,NA,NA,NA,NA,NA,NA,NA,NA,NA,NA,NA,NA,NA,NA,NA,NA,NA,NA
f6014,shallow,flow.Sequence,3_0_2_0_3_1,NA,NA,completion,10443.6,406796.1,406789.6,406806.5,417250.1,417253.8,2024-05-26T13:26:25Z,417266.8,NULL,Schönheit,kirembo,s,mahojiano,msisimko,jitihadi,NA,sdf,NA,2,NA,NA,NA,NA,NA,NA,NA,NA,NA,NA,NA,NA,NA,NA,NA,NA,NA,NA,NA
f6014,task,flow.Sequence,3_0_2_0_3,NA,NA,completion,10443.6,406796,406789.6,406806.5,417250.1,417254,2024-05-26T13:26:25Z,417266.8,NULL,Schönheit,kirembo,s,mahojiano,msisimko,jitihadi,NA,sdf,NA,2,NA,NA,NA,NA,NA,NA,NA,NA,NA,NA,NA,NA,NA,NA,NA,NA,NA,NA,NA
f6014,Deep Question,html.Page,3_0_2_0_4_0_0,NA,NA,form submission,3297.3999999993,417254.1,417250.1,417266.8,420564.2,420564.4,2024-05-26T13:26:28Z,420581.6,NULL,Auftrag,uagizaji,d,NA,NA,NA,h,NA,NA,2,NA,NA,NA,NA,NA,NA,NA,NA,NA,NA,NA,NA,NA,NA,NA,NA,NA,NA,NA
f6014,"""Richtig""-Screen",canvas.Screen,3_0_2_0_4_0_1,NA,NA,skipped,NA,420565.9,NA,NA,420564.2,420565.9,2024-05-26T13:26:28Z,420581.6,NULL,Auftrag,uagizaji,d,NA,NA,NA,NA,sdf,NA,2,NA,NA,NA,NA,NA,NA,NA,NA,NA,NA,NA,NA,NA,NA,NA,NA,NA,NA,NA
f6014,"""Falsch""-Screen",canvas.Screen,3_0_2_0_4_0_2,NA,NA,timeout,4997,420566.3,420564.992,420581.6,425561.6,425562.5,2024-05-26T13:26:33Z,425578.6,NULL,Auftrag,uagizaji,d,NA,NA,NA,NA,sdf,0,2,NA,NA,NA,NA,NA,NA,NA,NA,NA,NA,NA,NA,NA,NA,NA,NA,NA,NA,NA
f6014,deep,flow.Sequence,3_0_2_0_4_0,NA,NA,completion,8294.8,417254,417250.1,417266.8,425561.6,425562.8,2024-05-26T13:26:33Z,425578.6,NULL,Auftrag,uagizaji,d,NA,NA,NA,NA,sdf,NA,2,NA,NA,NA,NA,NA,NA,NA,NA,NA,NA,NA,NA,NA,NA,NA,NA,NA,NA,NA
f6014,shallow,flow.Sequence,3_0_2_0_4_1,NA,NA,skipped,NA,425562.9,NA,NA,425561.6,425563.1,2024-05-26T13:26:33Z,425578.6,NULL,Auftrag,uagizaji,d,NA,NA,NA,NA,sdf,NA,2,NA,NA,NA,NA,NA,NA,NA,NA,NA,NA,NA,NA,NA,NA,NA,NA,NA,NA,NA
f6014,task,flow.Sequence,3_0_2_0_4,NA,NA,completion,8294.8,417254,417250.1,417266.8,425561.6,425563.3,2024-05-26T13:26:33Z,425578.6,NULL,Auftrag,uagizaji,d,NA,NA,NA,NA,sdf,NA,2,NA,NA,NA,NA,NA,NA,NA,NA,NA,NA,NA,NA,NA,NA,NA,NA,NA,NA,NA
f6014,Deep Question,html.Page,3_0_2_0_5_0_0,NA,NA,form submission,3963.5999999993,425563.4,425561.6,425578.6,429542.2,429542.4,2024-05-26T13:26:37Z,429560.4,NULL,Hoffnung,matarajio,d,NA,NA,NA,hhj,NA,NA,2,NA,NA,NA,NA,NA,NA,NA,NA,NA,NA,NA,NA,NA,NA,NA,NA,NA,NA,NA
f6014,"""Richtig""-Screen",canvas.Screen,3_0_2_0_5_0_1,NA,NA,skipped,NA,429545.7,NA,NA,429542.2,429545.8,2024-05-26T13:26:37Z,429560.4,NULL,Hoffnung,matarajio,d,NA,NA,NA,NA,sdf,NA,2,NA,NA,NA,NA,NA,NA,NA,NA,NA,NA,NA,NA,NA,NA,NA,NA,NA,NA,NA
f6014,"""Falsch""-Screen",canvas.Screen,3_0_2_0_5_0_2,NA,NA,timeout,4996.2,429546.5,429543.052,429560.4,434539.3,434540.3,2024-05-26T13:26:42Z,434556.6,NULL,Hoffnung,matarajio,d,NA,NA,NA,NA,sdf,0,2,NA,NA,NA,NA,NA,NA,NA,NA,NA,NA,NA,NA,NA,NA,NA,NA,NA,NA,NA
f6014,deep,flow.Sequence,3_0_2_0_5_0,NA,NA,completion,8960.7,425563.4,425561.6,425578.6,434539.3,434540.6,2024-05-26T13:26:42Z,434556.6,NULL,Hoffnung,matarajio,d,NA,NA,NA,NA,sdf,NA,2,NA,NA,NA,NA,NA,NA,NA,NA,NA,NA,NA,NA,NA,NA,NA,NA,NA,NA,NA
f6014,shallow,flow.Sequence,3_0_2_0_5_1,NA,NA,skipped,NA,434540.7,NA,NA,434539.3,434540.9,2024-05-26T13:26:42Z,434556.6,NULL,Hoffnung,matarajio,d,NA,NA,NA,NA,sdf,NA,2,NA,NA,NA,NA,NA,NA,NA,NA,NA,NA,NA,NA,NA,NA,NA,NA,NA,NA,NA
f6014,task,flow.Sequence,3_0_2_0_5,NA,NA,completion,8960.7,425563.4,425561.6,425578.6,434539.3,434541.1,2024-05-26T13:26:42Z,434556.6,NULL,Hoffnung,matarajio,d,NA,NA,NA,NA,sdf,NA,2,NA,NA,NA,NA,NA,NA,NA,NA,NA,NA,NA,NA,NA,NA,NA,NA,NA,NA,NA
f6014,Deep Question,html.Page,3_0_2_0_6_0_0,NA,NA,form submission,28882.8,434541.3,434539.3,434556.6,463439.4,463439.4,2024-05-26T13:27:11Z,463455,NULL,Verpackung,ufungaji,d,NA,NA,NA,nadharia,NA,NA,2,NA,NA,NA,NA,NA,NA,NA,NA,NA,NA,NA,NA,NA,NA,NA,NA,NA,NA,NA
f6014,"""Richtig""-Screen",canvas.Screen,3_0_2_0_6_0_1,NA,NA,skipped,NA,463441.3,NA,NA,463439.4,463441.4,2024-05-26T13:27:11Z,463455,NULL,Verpackung,ufungaji,d,NA,NA,NA,NA,sdf,NA,2,NA,NA,NA,NA,NA,NA,NA,NA,NA,NA,NA,NA,NA,NA,NA,NA,NA,NA,NA
f6014,"""Falsch""-Screen",canvas.Screen,3_0_2_0_6_0_2,NA,NA,timeout,4997.2,463441.7,463438.366,463455,468435.3,468436.3,2024-05-26T13:27:16Z,468452.2,NULL,Verpackung,ufungaji,d,NA,NA,NA,NA,sdf,0,2,NA,NA,NA,NA,NA,NA,NA,NA,NA,NA,NA,NA,NA,NA,NA,NA,NA,NA,NA
f6014,deep,flow.Sequence,3_0_2_0_6_0,NA,NA,completion,33878.7,434541.2,434539.3,434556.6,468435.3,468436.6,2024-05-26T13:27:16Z,468452.2,NULL,Verpackung,ufungaji,d,NA,NA,NA,NA,sdf,NA,2,NA,NA,NA,NA,NA,NA,NA,NA,NA,NA,NA,NA,NA,NA,NA,NA,NA,NA,NA
f6014,shallow,flow.Sequence,3_0_2_0_6_1,NA,NA,skipped,NA,468436.7,NA,NA,468435.3,468436.9,2024-05-26T13:27:16Z,468452.2,NULL,Verpackung,ufungaji,d,NA,NA,NA,NA,sdf,NA,2,NA,NA,NA,NA,NA,NA,NA,NA,NA,NA,NA,NA,NA,NA,NA,NA,NA,NA,NA
f6014,task,flow.Sequence,3_0_2_0_6,NA,NA,completion,33878.7,434541.2,434539.3,434556.6,468435.3,468437.1,2024-05-26T13:27:16Z,468452.2,NULL,Verpackung,ufungaji,d,NA,NA,NA,NA,sdf,NA,2,NA,NA,NA,NA,NA,NA,NA,NA,NA,NA,NA,NA,NA,NA,NA,NA,NA,NA,NA
f6014,Deep Question,html.Page,3_0_2_0_7_0_0,NA,NA,form submission,14244.999999999,468437.3,468435.3,468452.2,482697.2,482697.4,2024-05-26T13:27:30Z,482709.8,NULL,Wettbewerb,ushindani,d,NA,NA,NA,fgf,NA,NA,2,NA,NA,NA,NA,NA,NA,NA,NA,NA,NA,NA,NA,NA,NA,NA,NA,NA,NA,NA
f6014,"""Richtig""-Screen",canvas.Screen,3_0_2_0_7_0_1,NA,NA,skipped,NA,482700.5,NA,NA,482697.2,482700.7,2024-05-26T13:27:30Z,482709.8,NULL,Wettbewerb,ushindani,d,NA,NA,NA,NA,sdf,NA,2,NA,NA,NA,NA,NA,NA,NA,NA,NA,NA,NA,NA,NA,NA,NA,NA,NA,NA,NA
f6014,"""Falsch""-Screen",canvas.Screen,3_0_2_0_7_0_2,NA,NA,timeout,4997.3,482701.4,482694.684,482709.8,487690.3,487691.6,2024-05-26T13:27:35Z,487707.1,NULL,Wettbewerb,ushindani,d,NA,NA,NA,NA,sdf,0,2,NA,NA,NA,NA,NA,NA,NA,NA,NA,NA,NA,NA,NA,NA,NA,NA,NA,NA,NA
f6014,deep,flow.Sequence,3_0_2_0_7_0,NA,NA,completion,19238.1,468437.2,468435.3,468452.2,487690.3,487692.1,2024-05-26T13:27:35Z,487707.1,NULL,Wettbewerb,ushindani,d,NA,NA,NA,NA,sdf,NA,2,NA,NA,NA,NA,NA,NA,NA,NA,NA,NA,NA,NA,NA,NA,NA,NA,NA,NA,NA
f6014,shallow,flow.Sequence,3_0_2_0_7_1,NA,NA,skipped,NA,487692.3,NA,NA,487690.3,487692.4,2024-05-26T13:27:35Z,487707.1,NULL,Wettbewerb,ushindani,d,NA,NA,NA,NA,sdf,NA,2,NA,NA,NA,NA,NA,NA,NA,NA,NA,NA,NA,NA,NA,NA,NA,NA,NA,NA,NA
f6014,task,flow.Sequence,3_0_2_0_7,NA,NA,completion,19238.1,468437.2,468435.3,468452.2,487690.3,487692.6,2024-05-26T13:27:35Z,487707.1,NULL,Wettbewerb,ushindani,d,NA,NA,NA,NA,sdf,NA,2,NA,NA,NA,NA,NA,NA,NA,NA,NA,NA,NA,NA,NA,NA,NA,NA,NA,NA,NA
f6014,block,flow.Loop,3_0_2_0,NA,NA,completion,113329.252,374366,374361.048,374361.048,487690.3,487692.8,2024-05-26T13:27:35Z,487707.1,NULL,NA,NA,NA,NA,NA,NA,NA,sdf,NA,2,NA,NA,NA,NA,NA,NA,NA,NA,NA,NA,NA,NA,NA,NA,NA,NA,NA,NA,NA
f6014,weiter,canvas.Screen,3_0_2_1,sdf,keypress(Space),response,1099.9,487692.9,487690.3,487707.1,488807,488807.9,2024-05-26T13:27:37Z,488839.9,NULL,NA,NA,NA,NA,NA,NA,NA,sdf,NA,2,NA,NA,NA,NA,NA,NA,NA,NA,NA,NA,NA,NA,NA,NA,NA,NA,NA,NA,NA
f6014,check continue,flow.Sequence,3_0_2,NA,NA,completion,114445.952,374365.9,374361.048,374361.048,488807,488808.2,2024-05-26T13:27:37Z,488839.9,NULL,NA,NA,NA,NA,NA,NA,NA,sdf,NA,2,NA,NA,NA,NA,NA,NA,NA,NA,NA,NA,NA,NA,NA,NA,NA,NA,NA,NA,NA
f6014,deep,flow.Sequence,3_0_3_0_0_0,NA,NA,skipped,NA,488827.6,NA,NA,488807,488827.6,2024-05-26T13:27:37Z,488839.9,NULL,Schönheit,kirembo,s,mahojiano,msisimko,jitihadi,NA,qt,NA,3,NA,NA,NA,NA,NA,NA,NA,NA,NA,NA,NA,NA,NA,NA,NA,NA,NA,NA,NA
f6014,Shallow Question,html.Page,3_0_3_0_0_1_0,NA,NA,form submission,7483.6,488827.7,488823.58,488839.9,496323.5,496323.7,2024-05-26T13:27:44Z,496335.3,NULL,Schönheit,kirembo,s,mahojiano,msisimko,jitihadi,kirembo,NA,NA,3,NA,NA,NA,NA,NA,NA,NA,NA,NA,NA,NA,NA,NA,NA,NA,NA,NA,NA,NA
f6014,"""Richtig""-Screen",canvas.Screen,3_0_3_0_0_1_1,NA,NA,timeout,4997,496326.8,496318.8,496335.3,501315.5,501316.5,2024-05-26T13:27:49Z,501332.3,NULL,Schönheit,kirembo,s,mahojiano,msisimko,jitihadi,NA,qt,1,3,NA,NA,NA,NA,NA,NA,NA,NA,NA,NA,NA,NA,NA,NA,NA,NA,NA,NA,NA
f6014,"""Falsch""-Screen",canvas.Screen,3_0_3_0_0_1_2,NA,NA,skipped,NA,501321.8,NA,NA,501315.5,501321.9,2024-05-26T13:27:49Z,501332.3,NULL,Schönheit,kirembo,s,mahojiano,msisimko,jitihadi,NA,qt,NA,3,NA,NA,NA,NA,NA,NA,NA,NA,NA,NA,NA,NA,NA,NA,NA,NA,NA,NA,NA
f6014,shallow,flow.Sequence,3_0_3_0_0_1,NA,NA,completion,12475.6,488827.7,488823.58,488839.9,501315.5,501322,2024-05-26T13:27:49Z,501332.3,NULL,Schönheit,kirembo,s,mahojiano,msisimko,jitihadi,NA,qt,NA,3,NA,NA,NA,NA,NA,NA,NA,NA,NA,NA,NA,NA,NA,NA,NA,NA,NA,NA,NA
f6014,task,flow.Sequence,3_0_3_0_0,NA,NA,completion,12475.6,488827.4,488823.58,488839.9,501315.5,501322.1,2024-05-26T13:27:49Z,501332.3,NULL,Schönheit,kirembo,s,mahojiano,msisimko,jitihadi,NA,qt,NA,3,NA,NA,NA,NA,NA,NA,NA,NA,NA,NA,NA,NA,NA,NA,NA,NA,NA,NA,NA
f6014,Deep Question,html.Page,3_0_3_0_1_0_0,NA,NA,form submission,18613.399999999,501322.1,501315.5,501332.3,519945.7,519945.9,2024-05-26T13:28:08Z,519953.8,NULL,Verpackung,ufungaji,d,NA,NA,NA,ufungaji,NA,NA,3,NA,NA,NA,NA,NA,NA,NA,NA,NA,NA,NA,NA,NA,NA,NA,NA,NA,NA,NA
f6014,"""Richtig""-Screen",canvas.Screen,3_0_3_0_1_0_1,NA,NA,timeout,4997.5000000001,519949.2,519940.7,519953.8,524934.5,524935.6,2024-05-26T13:28:13Z,524951.3,NULL,Verpackung,ufungaji,d,NA,NA,NA,NA,qt,1,3,NA,NA,NA,NA,NA,NA,NA,NA,NA,NA,NA,NA,NA,NA,NA,NA,NA,NA,NA
f6014,"""Falsch""-Screen",canvas.Screen,3_0_3_0_1_0_2,NA,NA,skipped,NA,524940.5,NA,NA,524934.5,524940.7,2024-05-26T13:28:13Z,524951.3,NULL,Verpackung,ufungaji,d,NA,NA,NA,NA,qt,NA,3,NA,NA,NA,NA,NA,NA,NA,NA,NA,NA,NA,NA,NA,NA,NA,NA,NA,NA,NA
f6014,deep,flow.Sequence,3_0_3_0_1_0,NA,NA,completion,23602.2,501322.1,501315.5,501332.3,524934.5,524940.8,2024-05-26T13:28:13Z,524951.3,NULL,Verpackung,ufungaji,d,NA,NA,NA,NA,qt,NA,3,NA,NA,NA,NA,NA,NA,NA,NA,NA,NA,NA,NA,NA,NA,NA,NA,NA,NA,NA
f6014,shallow,flow.Sequence,3_0_3_0_1_1,NA,NA,skipped,NA,524940.9,NA,NA,524934.5,524940.9,2024-05-26T13:28:13Z,524951.3,NULL,Verpackung,ufungaji,d,NA,NA,NA,NA,qt,NA,3,NA,NA,NA,NA,NA,NA,NA,NA,NA,NA,NA,NA,NA,NA,NA,NA,NA,NA,NA
f6014,task,flow.Sequence,3_0_3_0_1,NA,NA,completion,23602.2,501322.1,501315.5,501332.3,524934.5,524941,2024-05-26T13:28:13Z,524951.3,NULL,Verpackung,ufungaji,d,NA,NA,NA,NA,qt,NA,3,NA,NA,NA,NA,NA,NA,NA,NA,NA,NA,NA,NA,NA,NA,NA,NA,NA,NA,NA
f6014,deep,flow.Sequence,3_0_3_0_2_0,NA,NA,skipped,NA,524941.1,NA,NA,524934.5,524941.1,2024-05-26T13:28:13Z,524951.3,NULL,Schock,mshtuko,s,biashara,kukataza,vichekesho,NA,qt,NA,3,NA,NA,NA,NA,NA,NA,NA,NA,NA,NA,NA,NA,NA,NA,NA,NA,NA,NA,NA
f6014,Shallow Question,html.Page,3_0_3_0_2_1_0,NA,NA,form submission,14320.8,524941.1,524934.5,524951.3,539272.1,539272.2,2024-05-26T13:28:27Z,539292.3,NULL,Schock,mshtuko,s,biashara,kukataza,vichekesho,mshtuko,NA,NA,3,NA,NA,NA,NA,NA,NA,NA,NA,NA,NA,NA,NA,NA,NA,NA,NA,NA,NA,NA
f6014,"""Richtig""-Screen",canvas.Screen,3_0_3_0_2_1_1,NA,NA,timeout,4997.1,539275.1,539275.96,539292.3,544272.7,544273.7,2024-05-26T13:28:32Z,544289.4,NULL,Schock,mshtuko,s,biashara,kukataza,vichekesho,NA,qt,1,3,NA,NA,NA,NA,NA,NA,NA,NA,NA,NA,NA,NA,NA,NA,NA,NA,NA,NA,NA
f6014,"""Falsch""-Screen",canvas.Screen,3_0_3_0_2_1_2,NA,NA,skipped,NA,544279,NA,NA,544272.7,544279.1,2024-05-26T13:28:32Z,544289.4,NULL,Schock,mshtuko,s,biashara,kukataza,vichekesho,NA,qt,NA,3,NA,NA,NA,NA,NA,NA,NA,NA,NA,NA,NA,NA,NA,NA,NA,NA,NA,NA,NA
f6014,shallow,flow.Sequence,3_0_3_0_2_1,NA,NA,completion,19321.4,524941.1,524934.5,524951.3,544272.7,544279.3,2024-05-26T13:28:32Z,544289.4,NULL,Schock,mshtuko,s,biashara,kukataza,vichekesho,NA,qt,NA,3,NA,NA,NA,NA,NA,NA,NA,NA,NA,NA,NA,NA,NA,NA,NA,NA,NA,NA,NA
f6014,task,flow.Sequence,3_0_3_0_2,NA,NA,completion,19321.4,524941.1,524934.5,524951.3,544272.7,544279.3,2024-05-26T13:28:32Z,544289.4,NULL,Schock,mshtuko,s,biashara,kukataza,vichekesho,NA,qt,NA,3,NA,NA,NA,NA,NA,NA,NA,NA,NA,NA,NA,NA,NA,NA,NA,NA,NA,NA,NA
f6014,deep,flow.Sequence,3_0_3_0_3_0,NA,NA,skipped,NA,544279.4,NA,NA,544272.7,544279.4,2024-05-26T13:28:32Z,544289.4,NULL,Theorie,nadharia,s,ushungi,mkutano,uwakilishi,NA,qt,NA,3,NA,NA,NA,NA,NA,NA,NA,NA,NA,NA,NA,NA,NA,NA,NA,NA,NA,NA,NA
f6014,Shallow Question,html.Page,3_0_3_0_3_1_0,NA,NA,form submission,30004.2,544279.4,544272.7,544289.4,574293.6,574293.7,2024-05-26T13:29:02Z,574304.2,NULL,Theorie,nadharia,s,ushungi,mkutano,uwakilishi,ushungi,NA,NA,3,NA,NA,NA,NA,NA,NA,NA,NA,NA,NA,NA,NA,NA,NA,NA,NA,NA,NA,NA
f6014,"""Richtig""-Screen",canvas.Screen,3_0_3_0_3_1_1,NA,NA,skipped,NA,574296.9,NA,NA,574293.6,574297,2024-05-26T13:29:02Z,574304.2,NULL,Theorie,nadharia,s,ushungi,mkutano,uwakilishi,NA,qt,NA,3,NA,NA,NA,NA,NA,NA,NA,NA,NA,NA,NA,NA,NA,NA,NA,NA,NA,NA,NA
f6014,"""Falsch""-Screen",canvas.Screen,3_0_3_0_3_1_2,NA,NA,timeout,4997,574297.8,574290.16,574304.2,579284.4,579285.4,2024-05-26T13:29:07Z,579301.2,NULL,Theorie,nadharia,s,ushungi,mkutano,uwakilishi,NA,qt,0,3,NA,NA,NA,NA,NA,NA,NA,NA,NA,NA,NA,NA,NA,NA,NA,NA,NA,NA,NA
f6014,shallow,flow.Sequence,3_0_3_0_3_1,NA,NA,completion,34995,544279.4,544272.7,544289.4,579284.4,579285.7,2024-05-26T13:29:07Z,579301.2,NULL,Theorie,nadharia,s,ushungi,mkutano,uwakilishi,NA,qt,NA,3,NA,NA,NA,NA,NA,NA,NA,NA,NA,NA,NA,NA,NA,NA,NA,NA,NA,NA,NA
f6014,task,flow.Sequence,3_0_3_0_3,NA,NA,completion,34995,544279.3,544272.7,544289.4,579284.4,579285.9,2024-05-26T13:29:07Z,579301.2,NULL,Theorie,nadharia,s,ushungi,mkutano,uwakilishi,NA,qt,NA,3,NA,NA,NA,NA,NA,NA,NA,NA,NA,NA,NA,NA,NA,NA,NA,NA,NA,NA,NA
f6014,Deep Question,html.Page,3_0_3_0_4_0_0,NA,NA,form submission,21803.099999999,579286.1,579284.4,579301.2,601104.3,601104.5,2024-05-26T13:29:29Z,601121.5,NULL,Wettbewerb,ushindani,d,NA,NA,NA,nadharia,NA,NA,3,NA,NA,NA,NA,NA,NA,NA,NA,NA,NA,NA,NA,NA,NA,NA,NA,NA,NA,NA
f6014,"""Richtig""-Screen",canvas.Screen,3_0_3_0_4_0_1,NA,NA,skipped,NA,601107.5,NA,NA,601104.3,601107.7,2024-05-26T13:29:29Z,601121.5,NULL,Wettbewerb,ushindani,d,NA,NA,NA,NA,qt,NA,3,NA,NA,NA,NA,NA,NA,NA,NA,NA,NA,NA,NA,NA,NA,NA,NA,NA,NA,NA
f6014,"""Falsch""-Screen",canvas.Screen,3_0_3_0_4_0_2,NA,NA,timeout,4996.7,601108.5,601105.506,601121.5,606101.4,606103.6,2024-05-26T13:29:34Z,606118.2,NULL,Wettbewerb,ushindani,d,NA,NA,NA,NA,qt,0,3,NA,NA,NA,NA,NA,NA,NA,NA,NA,NA,NA,NA,NA,NA,NA,NA,NA,NA,NA
f6014,deep,flow.Sequence,3_0_3_0_4_0,NA,NA,completion,26800.2,579286.1,579284.4,579301.2,606101.4,606103.7,2024-05-26T13:29:34Z,606118.2,NULL,Wettbewerb,ushindani,d,NA,NA,NA,NA,qt,NA,3,NA,NA,NA,NA,NA,NA,NA,NA,NA,NA,NA,NA,NA,NA,NA,NA,NA,NA,NA
f6014,shallow,flow.Sequence,3_0_3_0_4_1,NA,NA,skipped,NA,606103.8,NA,NA,606101.4,606103.9,2024-05-26T13:29:34Z,606118.2,NULL,Wettbewerb,ushindani,d,NA,NA,NA,NA,qt,NA,3,NA,NA,NA,NA,NA,NA,NA,NA,NA,NA,NA,NA,NA,NA,NA,NA,NA,NA,NA
f6014,task,flow.Sequence,3_0_3_0_4,NA,NA,completion,26800.2,579286,579284.4,579301.2,606101.4,606103.9,2024-05-26T13:29:34Z,606118.2,NULL,Wettbewerb,ushindani,d,NA,NA,NA,NA,qt,NA,3,NA,NA,NA,NA,NA,NA,NA,NA,NA,NA,NA,NA,NA,NA,NA,NA,NA,NA,NA
f6014,deep,flow.Sequence,3_0_3_0_5_0,NA,NA,skipped,NA,606104.1,NA,NA,606101.4,606104.1,2024-05-26T13:29:34Z,606118.2,NULL,Zufall,kikuti,s,kukosekana,uchoraji,leseni,NA,qt,NA,3,NA,NA,NA,NA,NA,NA,NA,NA,NA,NA,NA,NA,NA,NA,NA,NA,NA,NA,NA
f6014,Shallow Question,html.Page,3_0_3_0_5_1_0,NA,NA,form submission,43907.599999999,606104.1,606101.4,606118.2,650025.8,650026.1,2024-05-26T13:30:18Z,650058.5,NULL,Zufall,kikuti,s,kukosekana,uchoraji,leseni,uchoraji,NA,NA,3,NA,NA,NA,NA,NA,NA,NA,NA,NA,NA,NA,NA,NA,NA,NA,NA,NA,NA,NA
f6014,"""Richtig""-Screen",canvas.Screen,3_0_3_0_5_1_1,NA,NA,skipped,NA,650029.3,NA,NA,650025.8,650029.3,2024-05-26T13:30:18Z,650058.5,NULL,Zufall,kikuti,s,kukosekana,uchoraji,leseni,NA,qt,NA,3,NA,NA,NA,NA,NA,NA,NA,NA,NA,NA,NA,NA,NA,NA,NA,NA,NA,NA,NA
f6014,"""Falsch""-Screen",canvas.Screen,3_0_3_0_5_1_2,NA,NA,timeout,4996.8,650030.1,650041.6,650058.5,655038.4,655039.3,2024-05-26T13:30:23Z,655055.3,NULL,Zufall,kikuti,s,kukosekana,uchoraji,leseni,NA,qt,0,3,NA,NA,NA,NA,NA,NA,NA,NA,NA,NA,NA,NA,NA,NA,NA,NA,NA,NA,NA
f6014,shallow,flow.Sequence,3_0_3_0_5_1,NA,NA,completion,48920.2,606104.1,606101.4,606118.2,655038.4,655039.7,2024-05-26T13:30:23Z,655055.3,NULL,Zufall,kikuti,s,kukosekana,uchoraji,leseni,NA,qt,NA,3,NA,NA,NA,NA,NA,NA,NA,NA,NA,NA,NA,NA,NA,NA,NA,NA,NA,NA,NA
f6014,task,flow.Sequence,3_0_3_0_5,NA,NA,completion,48920.2,606104,606101.4,606118.2,655038.4,655039.9,2024-05-26T13:30:23Z,655055.3,NULL,Zufall,kikuti,s,kukosekana,uchoraji,leseni,NA,qt,NA,3,NA,NA,NA,NA,NA,NA,NA,NA,NA,NA,NA,NA,NA,NA,NA,NA,NA,NA,NA
f6014,Deep Question,html.Page,3_0_3_0_6_0_0,NA,NA,form submission,12036.399999999,655040.1,655038.4,655055.3,667091.7,667091.9,2024-05-26T13:30:35Z,667097.4,NULL,Hoffnung,matarajio,d,NA,NA,NA,fg,NA,NA,3,NA,NA,NA,NA,NA,NA,NA,NA,NA,NA,NA,NA,NA,NA,NA,NA,NA,NA,NA
f6014,"""Richtig""-Screen",canvas.Screen,3_0_3_0_6_0_1,NA,NA,skipped,NA,667095,NA,NA,667091.7,667095.2,2024-05-26T13:30:35Z,667097.4,NULL,Hoffnung,matarajio,d,NA,NA,NA,NA,qt,NA,3,NA,NA,NA,NA,NA,NA,NA,NA,NA,NA,NA,NA,NA,NA,NA,NA,NA,NA,NA
f6014,"""Falsch""-Screen",canvas.Screen,3_0_3_0_6_0_2,NA,NA,timeout,4997.5,667095.9,667081.558,667097.4,672077.8,672078.7,2024-05-26T13:30:40Z,672094.9,NULL,Hoffnung,matarajio,d,NA,NA,NA,NA,qt,0,3,NA,NA,NA,NA,NA,NA,NA,NA,NA,NA,NA,NA,NA,NA,NA,NA,NA,NA,NA
f6014,deep,flow.Sequence,3_0_3_0_6_0,NA,NA,completion,17022.5,655040.1,655038.4,655055.3,672077.8,672079,2024-05-26T13:30:40Z,672094.9,NULL,Hoffnung,matarajio,d,NA,NA,NA,NA,qt,NA,3,NA,NA,NA,NA,NA,NA,NA,NA,NA,NA,NA,NA,NA,NA,NA,NA,NA,NA,NA
f6014,shallow,flow.Sequence,3_0_3_0_6_1,NA,NA,skipped,NA,672079.1,NA,NA,672077.8,672079.2,2024-05-26T13:30:40Z,672094.9,NULL,Hoffnung,matarajio,d,NA,NA,NA,NA,qt,NA,3,NA,NA,NA,NA,NA,NA,NA,NA,NA,NA,NA,NA,NA,NA,NA,NA,NA,NA,NA
f6014,task,flow.Sequence,3_0_3_0_6,NA,NA,completion,17022.5,655039.9,655038.4,655055.3,672077.8,672079.4,2024-05-26T13:30:40Z,672094.9,NULL,Hoffnung,matarajio,d,NA,NA,NA,NA,qt,NA,3,NA,NA,NA,NA,NA,NA,NA,NA,NA,NA,NA,NA,NA,NA,NA,NA,NA,NA,NA
f6014,Deep Question,html.Page,3_0_3_0_7_0_0,NA,NA,form submission,19347.899999999,672079.6,672077.8,672094.9,691442.8,691443,2024-05-26T13:30:59Z,691449.3,NULL,Auftrag,uagizaji,d,NA,NA,NA,dg,NA,NA,3,NA,NA,NA,NA,NA,NA,NA,NA,NA,NA,NA,NA,NA,NA,NA,NA,NA,NA,NA
f6014,"""Richtig""-Screen",canvas.Screen,3_0_3_0_7_0_1,NA,NA,skipped,NA,691446.1,NA,NA,691442.8,691446.2,2024-05-26T13:30:59Z,691449.3,NULL,Auftrag,uagizaji,d,NA,NA,NA,NA,qt,NA,3,NA,NA,NA,NA,NA,NA,NA,NA,NA,NA,NA,NA,NA,NA,NA,NA,NA,NA,NA
f6014,"""Falsch""-Screen",canvas.Screen,3_0_3_0_7_0_2,NA,NA,timeout,4997.2999999999,691447,691433.5,691449.3,696429.8,696430.8,2024-05-26T13:31:04Z,696446.6,NULL,Auftrag,uagizaji,d,NA,NA,NA,NA,qt,0,3,NA,NA,NA,NA,NA,NA,NA,NA,NA,NA,NA,NA,NA,NA,NA,NA,NA,NA,NA
f6014,deep,flow.Sequence,3_0_3_0_7_0,NA,NA,completion,24334.9,672079.6,672077.8,672094.9,696429.8,696431,2024-05-26T13:31:04Z,696446.6,NULL,Auftrag,uagizaji,d,NA,NA,NA,NA,qt,NA,3,NA,NA,NA,NA,NA,NA,NA,NA,NA,NA,NA,NA,NA,NA,NA,NA,NA,NA,NA
f6014,shallow,flow.Sequence,3_0_3_0_7_1,NA,NA,skipped,NA,696431.1,NA,NA,696429.8,696431.3,2024-05-26T13:31:04Z,696446.6,NULL,Auftrag,uagizaji,d,NA,NA,NA,NA,qt,NA,3,NA,NA,NA,NA,NA,NA,NA,NA,NA,NA,NA,NA,NA,NA,NA,NA,NA,NA,NA
f6014,task,flow.Sequence,3_0_3_0_7,NA,NA,completion,24334.9,672079.6,672077.8,672094.9,696429.8,696431.4,2024-05-26T13:31:04Z,696446.6,NULL,Auftrag,uagizaji,d,NA,NA,NA,NA,qt,NA,3,NA,NA,NA,NA,NA,NA,NA,NA,NA,NA,NA,NA,NA,NA,NA,NA,NA,NA,NA
f6014,block,flow.Loop,3_0_3_0,NA,NA,completion,207589.9,488827.4,488823.58,488839.9,696429.8,696431.7,2024-05-26T13:31:04Z,696446.6,NULL,NA,NA,NA,NA,NA,NA,NA,qt,NA,3,NA,NA,NA,NA,NA,NA,NA,NA,NA,NA,NA,NA,NA,NA,NA,NA,NA,NA,NA
f6014,weiter,canvas.Screen,3_0_3_1,sdf,keypress(Space),response,4145.8000000004,696431.8,696429.8,696446.6,700592.4,700593.4,2024-05-26T13:31:08Z,700627.1,NULL,NA,NA,NA,NA,NA,NA,NA,qt,NA,3,NA,NA,NA,NA,NA,NA,NA,NA,NA,NA,NA,NA,NA,NA,NA,NA,NA,NA,NA
f6014,check continue,flow.Sequence,3_0_3,NA,NA,completion,211752.5,488827.4,488823.58,488839.9,700592.4,700593.7,2024-05-26T13:31:08Z,700627.1,NULL,NA,NA,NA,NA,NA,NA,NA,qt,NA,3,NA,NA,NA,NA,NA,NA,NA,NA,NA,NA,NA,NA,NA,NA,NA,NA,NA,NA,NA
f6014,Deep Question,html.Page,3_0_4_0_0_0_0,NA,NA,form submission,8465.6999999989,700612.7,700611.396,700627.1,709092.8,709093.1,2024-05-26T13:31:17Z,709105.2,NULL,Verpackung,ufungaji,d,NA,NA,NA,cgh,NA,NA,4,NA,NA,NA,NA,NA,NA,NA,NA,NA,NA,NA,NA,NA,NA,NA,NA,NA,NA,NA
f6014,"""Richtig""-Screen",canvas.Screen,3_0_4_0_0_0_1,NA,NA,skipped,NA,709096.3,NA,NA,709092.8,709096.4,2024-05-26T13:31:17Z,709105.2,NULL,Verpackung,ufungaji,d,NA,NA,NA,NA,sd,NA,4,NA,NA,NA,NA,NA,NA,NA,NA,NA,NA,NA,NA,NA,NA,NA,NA,NA,NA,NA
f6014,"""Falsch""-Screen",canvas.Screen,3_0_4_0_0_0_2,NA,NA,timeout,4997.3,709097.4,709089.058,709105.2,714085.5,714086.5,2024-05-26T13:31:22Z,714102.5,NULL,Verpackung,ufungaji,d,NA,NA,NA,NA,sd,0,4,NA,NA,NA,NA,NA,NA,NA,NA,NA,NA,NA,NA,NA,NA,NA,NA,NA,NA,NA
f6014,deep,flow.Sequence,3_0_4_0_0_0,NA,NA,completion,13458.4,700612.7,700611.396,700627.1,714085.5,714086.7,2024-05-26T13:31:22Z,714102.5,NULL,Verpackung,ufungaji,d,NA,NA,NA,NA,sd,NA,4,NA,NA,NA,NA,NA,NA,NA,NA,NA,NA,NA,NA,NA,NA,NA,NA,NA,NA,NA
f6014,shallow,flow.Sequence,3_0_4_0_0_1,NA,NA,skipped,NA,714086.9,NA,NA,714085.5,714087,2024-05-26T13:31:22Z,714102.5,NULL,Verpackung,ufungaji,d,NA,NA,NA,NA,sd,NA,4,NA,NA,NA,NA,NA,NA,NA,NA,NA,NA,NA,NA,NA,NA,NA,NA,NA,NA,NA
f6014,task,flow.Sequence,3_0_4_0_0,NA,NA,completion,13458.4,700612.7,700611.396,700627.1,714085.5,714087.1,2024-05-26T13:31:22Z,714102.5,NULL,Verpackung,ufungaji,d,NA,NA,NA,NA,sd,NA,4,NA,NA,NA,NA,NA,NA,NA,NA,NA,NA,NA,NA,NA,NA,NA,NA,NA,NA,NA
f6014,deep,flow.Sequence,3_0_4_0_1_0,NA,NA,skipped,NA,714087.3,NA,NA,714085.5,714087.4,2024-05-26T13:31:22Z,714102.5,NULL,Schock,mshtuko,s,biashara,kukataza,vichekesho,NA,sd,NA,4,NA,NA,NA,NA,NA,NA,NA,NA,NA,NA,NA,NA,NA,NA,NA,NA,NA,NA,NA
f6014,Shallow Question,html.Page,3_0_4_0_1_1_0,NA,NA,form submission,12408.799999999,714087.5,714085.5,714102.5,726511.3,726511.6,2024-05-26T13:31:34Z,726528.4,NULL,Schock,mshtuko,s,biashara,kukataza,vichekesho,mshtuko,NA,NA,4,NA,NA,NA,NA,NA,NA,NA,NA,NA,NA,NA,NA,NA,NA,NA,NA,NA,NA,NA
f6014,"""Richtig""-Screen",canvas.Screen,3_0_4_0_1_1_1,NA,NA,timeout,4996.7999999999,726514.6,726511.828,726528.4,731508.4,731509.3,2024-05-26T13:31:39Z,731525.2,NULL,Schock,mshtuko,s,biashara,kukataza,vichekesho,NA,sd,1,4,NA,NA,NA,NA,NA,NA,NA,NA,NA,NA,NA,NA,NA,NA,NA,NA,NA,NA,NA
f6014,"""Falsch""-Screen",canvas.Screen,3_0_4_0_1_1_2,NA,NA,skipped,NA,731514,NA,NA,731508.4,731514.1,2024-05-26T13:31:39Z,731525.2,NULL,Schock,mshtuko,s,biashara,kukataza,vichekesho,NA,sd,NA,4,NA,NA,NA,NA,NA,NA,NA,NA,NA,NA,NA,NA,NA,NA,NA,NA,NA,NA,NA
f6014,shallow,flow.Sequence,3_0_4_0_1_1,NA,NA,completion,17405.9,714087.4,714085.5,714102.5,731508.4,731514.3,2024-05-26T13:31:39Z,731525.2,NULL,Schock,mshtuko,s,biashara,kukataza,vichekesho,NA,sd,NA,4,NA,NA,NA,NA,NA,NA,NA,NA,NA,NA,NA,NA,NA,NA,NA,NA,NA,NA,NA
f6014,task,flow.Sequence,3_0_4_0_1,NA,NA,completion,17405.9,714087.3,714085.5,714102.5,731508.4,731514.3,2024-05-26T13:31:39Z,731525.2,NULL,Schock,mshtuko,s,biashara,kukataza,vichekesho,NA,sd,NA,4,NA,NA,NA,NA,NA,NA,NA,NA,NA,NA,NA,NA,NA,NA,NA,NA,NA,NA,NA
f6014,deep,flow.Sequence,3_0_4_0_2_0,NA,NA,skipped,NA,731514.3,NA,NA,731508.4,731514.3,2024-05-26T13:31:39Z,731525.2,NULL,Zufall,kikuti,s,kukosekana,uchoraji,leseni,NA,sd,NA,4,NA,NA,NA,NA,NA,NA,NA,NA,NA,NA,NA,NA,NA,NA,NA,NA,NA,NA,NA
f6014,Shallow Question,html.Page,3_0_4_0_2_1_0,NA,NA,form submission,4638.4999999993,731514.3,731508.4,731525.2,736163.7,736164,2024-05-26T13:31:44Z,736172.2,NULL,Zufall,kikuti,s,kukosekana,uchoraji,leseni,kikuti,NA,NA,4,NA,NA,NA,NA,NA,NA,NA,NA,NA,NA,NA,NA,NA,NA,NA,NA,NA,NA,NA
f6014,"""Richtig""-Screen",canvas.Screen,3_0_4_0_2_1_1,NA,NA,timeout,4996.9,736166.9,736155.994,736172.2,741152.7,741153.7,2024-05-26T13:31:49Z,741169.1,NULL,Zufall,kikuti,s,kukosekana,uchoraji,leseni,NA,sd,1,4,NA,NA,NA,NA,NA,NA,NA,NA,NA,NA,NA,NA,NA,NA,NA,NA,NA,NA,NA
f6014,"""Falsch""-Screen",canvas.Screen,3_0_4_0_2_1_2,NA,NA,skipped,NA,741159.1,NA,NA,741152.7,741159.4,2024-05-26T13:31:49Z,741169.1,NULL,Zufall,kikuti,s,kukosekana,uchoraji,leseni,NA,sd,NA,4,NA,NA,NA,NA,NA,NA,NA,NA,NA,NA,NA,NA,NA,NA,NA,NA,NA,NA,NA
f6014,shallow,flow.Sequence,3_0_4_0_2_1,NA,NA,completion,9627.5,731514.3,731508.4,731525.2,741152.7,741159.6,2024-05-26T13:31:49Z,741169.1,NULL,Zufall,kikuti,s,kukosekana,uchoraji,leseni,NA,sd,NA,4,NA,NA,NA,NA,NA,NA,NA,NA,NA,NA,NA,NA,NA,NA,NA,NA,NA,NA,NA
f6014,task,flow.Sequence,3_0_4_0_2,NA,NA,completion,9627.5,731514.3,731508.4,731525.2,741152.7,741159.8,2024-05-26T13:31:49Z,741169.1,NULL,Zufall,kikuti,s,kukosekana,uchoraji,leseni,NA,sd,NA,4,NA,NA,NA,NA,NA,NA,NA,NA,NA,NA,NA,NA,NA,NA,NA,NA,NA,NA,NA
f6014,Deep Question,html.Page,3_0_4_0_3_0_0,NA,NA,form submission,10803.199999999,741160,741152.7,741169.1,751972.3,751972.5,2024-05-26T13:32:00Z,751979,NULL,Auftrag,uagizaji,d,NA,NA,NA,uagizaj,NA,NA,4,NA,NA,NA,NA,NA,NA,NA,NA,NA,NA,NA,NA,NA,NA,NA,NA,NA,NA,NA
f6014,"""Richtig""-Screen",canvas.Screen,3_0_4_0_3_0_1,NA,NA,skipped,NA,751975.6,NA,NA,751972.3,751975.7,2024-05-26T13:32:00Z,751979,NULL,Auftrag,uagizaji,d,NA,NA,NA,NA,sd,NA,4,NA,NA,NA,NA,NA,NA,NA,NA,NA,NA,NA,NA,NA,NA,NA,NA,NA,NA,NA
f6014,"""Falsch""-Screen",canvas.Screen,3_0_4_0_3_0_2,NA,NA,timeout,4997.6,751976.5,751964.702,751979,756959.5,756960.5,2024-05-26T13:32:05Z,756976.6,NULL,Auftrag,uagizaji,d,NA,NA,NA,NA,sd,0,4,NA,NA,NA,NA,NA,NA,NA,NA,NA,NA,NA,NA,NA,NA,NA,NA,NA,NA,NA
f6014,deep,flow.Sequence,3_0_4_0_3_0,NA,NA,completion,15790.4,741160,741152.7,741169.1,756959.5,756960.9,2024-05-26T13:32:05Z,756976.6,NULL,Auftrag,uagizaji,d,NA,NA,NA,NA,sd,NA,4,NA,NA,NA,NA,NA,NA,NA,NA,NA,NA,NA,NA,NA,NA,NA,NA,NA,NA,NA
f6014,shallow,flow.Sequence,3_0_4_0_3_1,NA,NA,skipped,NA,756961,NA,NA,756959.5,756961.2,2024-05-26T13:32:05Z,756976.6,NULL,Auftrag,uagizaji,d,NA,NA,NA,NA,sd,NA,4,NA,NA,NA,NA,NA,NA,NA,NA,NA,NA,NA,NA,NA,NA,NA,NA,NA,NA,NA
f6014,task,flow.Sequence,3_0_4_0_3,NA,NA,completion,15790.4,741160,741152.7,741169.1,756959.5,756961.4,2024-05-26T13:32:05Z,756976.6,NULL,Auftrag,uagizaji,d,NA,NA,NA,NA,sd,NA,4,NA,NA,NA,NA,NA,NA,NA,NA,NA,NA,NA,NA,NA,NA,NA,NA,NA,NA,NA
f6014,deep,flow.Sequence,3_0_4_0_4_0,NA,NA,skipped,NA,756961.6,NA,NA,756959.5,756961.7,2024-05-26T13:32:05Z,756976.6,NULL,Schönheit,kirembo,s,mahojiano,msisimko,jitihadi,NA,sd,NA,4,NA,NA,NA,NA,NA,NA,NA,NA,NA,NA,NA,NA,NA,NA,NA,NA,NA,NA,NA
f6014,Shallow Question,html.Page,3_0_4_0_4_1_0,NA,NA,form submission,21147.699999999,756961.8,756959.5,756976.6,778124.3,778124.6,2024-05-26T13:32:26Z,778146.8,NULL,Schönheit,kirembo,s,mahojiano,msisimko,jitihadi,kirembo,NA,NA,4,NA,NA,NA,NA,NA,NA,NA,NA,NA,NA,NA,NA,NA,NA,NA,NA,NA,NA,NA
f6014,"""Richtig""-Screen",canvas.Screen,3_0_4_0_4_1_1,NA,NA,timeout,4997.1,778127.7,778130.45,778146.8,783127.2,783128.1,2024-05-26T13:32:31Z,783143.9,NULL,Schönheit,kirembo,s,mahojiano,msisimko,jitihadi,NA,sd,1,4,NA,NA,NA,NA,NA,NA,NA,NA,NA,NA,NA,NA,NA,NA,NA,NA,NA,NA,NA
f6014,"""Falsch""-Screen",canvas.Screen,3_0_4_0_4_1_2,NA,NA,skipped,NA,783132.8,NA,NA,783127.2,783133.1,2024-05-26T13:32:31Z,783143.9,NULL,Schönheit,kirembo,s,mahojiano,msisimko,jitihadi,NA,sd,NA,4,NA,NA,NA,NA,NA,NA,NA,NA,NA,NA,NA,NA,NA,NA,NA,NA,NA,NA,NA
f6014,shallow,flow.Sequence,3_0_4_0_4_1,NA,NA,completion,26150.6,756961.8,756959.5,756976.6,783127.2,783133.4,2024-05-26T13:32:31Z,783143.9,NULL,Schönheit,kirembo,s,mahojiano,msisimko,jitihadi,NA,sd,NA,4,NA,NA,NA,NA,NA,NA,NA,NA,NA,NA,NA,NA,NA,NA,NA,NA,NA,NA,NA
f6014,task,flow.Sequence,3_0_4_0_4,NA,NA,completion,26150.6,756961.5,756959.5,756976.6,783127.2,783133.6,2024-05-26T13:32:31Z,783143.9,NULL,Schönheit,kirembo,s,mahojiano,msisimko,jitihadi,NA,sd,NA,4,NA,NA,NA,NA,NA,NA,NA,NA,NA,NA,NA,NA,NA,NA,NA,NA,NA,NA,NA
f6014,Deep Question,html.Page,3_0_4_0_5_0_0,NA,NA,form submission,31655.1,783133.6,783127.2,783143.9,814799,814799.1,2024-05-26T13:33:03Z,814824.3,NULL,Hoffnung,matarajio,d,NA,NA,NA,matarajio,NA,NA,4,NA,NA,NA,NA,NA,NA,NA,NA,NA,NA,NA,NA,NA,NA,NA,NA,NA,NA,NA
f6014,"""Richtig""-Screen",canvas.Screen,3_0_4_0_5_0_1,NA,NA,timeout,4997.1,814801.1,814807.6,814824.3,819804.7,819805.8,2024-05-26T13:33:08Z,819821.4,NULL,Hoffnung,matarajio,d,NA,NA,NA,NA,sd,1,4,NA,NA,NA,NA,NA,NA,NA,NA,NA,NA,NA,NA,NA,NA,NA,NA,NA,NA,NA
f6014,"""Falsch""-Screen",canvas.Screen,3_0_4_0_5_0_2,NA,NA,skipped,NA,819811,NA,NA,819804.7,819811.2,2024-05-26T13:33:08Z,819821.4,NULL,Hoffnung,matarajio,d,NA,NA,NA,NA,sd,NA,4,NA,NA,NA,NA,NA,NA,NA,NA,NA,NA,NA,NA,NA,NA,NA,NA,NA,NA,NA
f6014,deep,flow.Sequence,3_0_4_0_5_0,NA,NA,completion,36660.8,783133.6,783127.2,783143.9,819804.7,819811.2,2024-05-26T13:33:08Z,819821.4,NULL,Hoffnung,matarajio,d,NA,NA,NA,NA,sd,NA,4,NA,NA,NA,NA,NA,NA,NA,NA,NA,NA,NA,NA,NA,NA,NA,NA,NA,NA,NA
f6014,shallow,flow.Sequence,3_0_4_0_5_1,NA,NA,skipped,NA,819811.3,NA,NA,819804.7,819811.3,2024-05-26T13:33:08Z,819821.4,NULL,Hoffnung,matarajio,d,NA,NA,NA,NA,sd,NA,4,NA,NA,NA,NA,NA,NA,NA,NA,NA,NA,NA,NA,NA,NA,NA,NA,NA,NA,NA
f6014,task,flow.Sequence,3_0_4_0_5,NA,NA,completion,36660.8,783133.6,783127.2,783143.9,819804.7,819811.3,2024-05-26T13:33:08Z,819821.4,NULL,Hoffnung,matarajio,d,NA,NA,NA,NA,sd,NA,4,NA,NA,NA,NA,NA,NA,NA,NA,NA,NA,NA,NA,NA,NA,NA,NA,NA,NA,NA
f6014,Deep Question,html.Page,3_0_4_0_6_0_0,NA,NA,form submission,10863,819811.4,819804.7,819821.4,830684.4,830684.6,2024-05-26T13:33:18Z,830697.9,NULL,Wettbewerb,ushindani,d,NA,NA,NA,gh,NA,NA,4,NA,NA,NA,NA,NA,NA,NA,NA,NA,NA,NA,NA,NA,NA,NA,NA,NA,NA,NA
f6014,"""Richtig""-Screen",canvas.Screen,3_0_4_0_6_0_1,NA,NA,skipped,NA,830687.8,NA,NA,830684.4,830687.9,2024-05-26T13:33:18Z,830697.9,NULL,Wettbewerb,ushindani,d,NA,NA,NA,NA,sd,NA,4,NA,NA,NA,NA,NA,NA,NA,NA,NA,NA,NA,NA,NA,NA,NA,NA,NA,NA,NA
f6014,"""Falsch""-Screen",canvas.Screen,3_0_4_0_6_0_2,NA,NA,timeout,4996.7999999999,830688.6,830683.548,830697.9,835678.1,835679,2024-05-26T13:33:23Z,835694.7,NULL,Wettbewerb,ushindani,d,NA,NA,NA,NA,sd,0,4,NA,NA,NA,NA,NA,NA,NA,NA,NA,NA,NA,NA,NA,NA,NA,NA,NA,NA,NA
f6014,deep,flow.Sequence,3_0_4_0_6_0,NA,NA,completion,15856.7,819811.4,819804.7,819821.4,835678.1,835679.3,2024-05-26T13:33:23Z,835694.7,NULL,Wettbewerb,ushindani,d,NA,NA,NA,NA,sd,NA,4,NA,NA,NA,NA,NA,NA,NA,NA,NA,NA,NA,NA,NA,NA,NA,NA,NA,NA,NA
f6014,shallow,flow.Sequence,3_0_4_0_6_1,NA,NA,skipped,NA,835679.5,NA,NA,835678.1,835679.5,2024-05-26T13:33:23Z,835694.7,NULL,Wettbewerb,ushindani,d,NA,NA,NA,NA,sd,NA,4,NA,NA,NA,NA,NA,NA,NA,NA,NA,NA,NA,NA,NA,NA,NA,NA,NA,NA,NA
f6014,task,flow.Sequence,3_0_4_0_6,NA,NA,completion,15856.7,819811.4,819804.7,819821.4,835678.1,835679.8,2024-05-26T13:33:23Z,835694.7,NULL,Wettbewerb,ushindani,d,NA,NA,NA,NA,sd,NA,4,NA,NA,NA,NA,NA,NA,NA,NA,NA,NA,NA,NA,NA,NA,NA,NA,NA,NA,NA
f6014,deep,flow.Sequence,3_0_4_0_7_0,NA,NA,skipped,NA,835679.8,NA,NA,835678.1,835679.9,2024-05-26T13:33:23Z,835694.7,NULL,Theorie,nadharia,s,ushungi,mkutano,uwakilishi,NA,sd,NA,4,NA,NA,NA,NA,NA,NA,NA,NA,NA,NA,NA,NA,NA,NA,NA,NA,NA,NA,NA
f6014,Shallow Question,html.Page,3_0_4_0_7_1_0,NA,NA,form submission,14156.9,835680.1,835678.1,835694.7,849851.6,849851.9,2024-05-26T13:33:38Z,849853.056,NULL,Theorie,nadharia,s,ushungi,mkutano,uwakilishi,mkutano,NA,NA,4,NA,NA,NA,NA,NA,NA,NA,NA,NA,NA,NA,NA,NA,NA,NA,NA,NA,NA,NA
f6014,"""Richtig""-Screen",canvas.Screen,3_0_4_0_7_1_1,NA,NA,skipped,NA,849854.9,NA,NA,849851.6,849855.1,2024-05-26T13:33:38Z,849853.056,NULL,Theorie,nadharia,s,ushungi,mkutano,uwakilishi,NA,sd,NA,4,NA,NA,NA,NA,NA,NA,NA,NA,NA,NA,NA,NA,NA,NA,NA,NA,NA,NA,NA
f6014,"""Falsch""-Screen",canvas.Screen,3_0_4_0_7_1_2,NA,NA,timeout,4996.944,849855.7,849853.056,849853.056,854833,854834,2024-05-26T13:33:43Z,854850,NULL,Theorie,nadharia,s,ushungi,mkutano,uwakilishi,NA,sd,0,4,NA,NA,NA,NA,NA,NA,NA,NA,NA,NA,NA,NA,NA,NA,NA,NA,NA,NA,NA
f6014,shallow,flow.Sequence,3_0_4_0_7_1,NA,NA,completion,19138.3,835680,835678.1,835694.7,854833,854834.4,2024-05-26T13:33:43Z,854850,NULL,Theorie,nadharia,s,ushungi,mkutano,uwakilishi,NA,sd,NA,4,NA,NA,NA,NA,NA,NA,NA,NA,NA,NA,NA,NA,NA,NA,NA,NA,NA,NA,NA
f6014,task,flow.Sequence,3_0_4_0_7,NA,NA,completion,19138.3,835679.8,835678.1,835694.7,854833,854834.5,2024-05-26T13:33:43Z,854850,NULL,Theorie,nadharia,s,ushungi,mkutano,uwakilishi,NA,sd,NA,4,NA,NA,NA,NA,NA,NA,NA,NA,NA,NA,NA,NA,NA,NA,NA,NA,NA,NA,NA
f6014,block,flow.Loop,3_0_4_0,NA,NA,completion,154205.9,700612.7,700611.396,700627.1,854833,854834.8,2024-05-26T13:33:43Z,854850,NULL,NA,NA,NA,NA,NA,NA,NA,sd,NA,4,NA,NA,NA,NA,NA,NA,NA,NA,NA,NA,NA,NA,NA,NA,NA,NA,NA,NA,NA
f6014,weiter,canvas.Screen,3_0_4_1,sdf,keypress(Space),response,1302,854834.8,854833,854850,856152,856152.8,2024-05-26T13:33:44Z,856166.212,NULL,NA,NA,NA,NA,NA,NA,NA,sd,NA,4,NA,NA,NA,NA,NA,NA,NA,NA,NA,NA,NA,NA,NA,NA,NA,NA,NA,NA,NA
f6014,check continue,flow.Sequence,3_0_4,NA,NA,completion,155524.9,700612.7,700611.396,700627.1,856152,856153.1,2024-05-26T13:33:44Z,856166.212,NULL,NA,NA,NA,NA,NA,NA,NA,sd,NA,4,NA,NA,NA,NA,NA,NA,NA,NA,NA,NA,NA,NA,NA,NA,NA,NA,NA,NA,NA
f6014,Deep Question,html.Page,3_0_5_0_0_0_0,NA,NA,form submission,8535.6880000003,856170.7,856166.212,856166.212,864701.9,864702.2,2024-05-26T13:33:52Z,864710.3,NULL,Wettbewerb,ushindani,d,NA,NA,NA,ushndani,NA,NA,5,NA,NA,NA,NA,NA,NA,NA,NA,NA,NA,NA,NA,NA,NA,NA,NA,NA,NA,NA
f6014,"""Richtig""-Screen",canvas.Screen,3_0_5_0_0_0_1,NA,NA,skipped,NA,864705.3,NA,NA,864701.9,864705.4,2024-05-26T13:33:52Z,864710.3,NULL,Wettbewerb,ushindani,d,NA,NA,NA,NA,sdf,NA,5,NA,NA,NA,NA,NA,NA,NA,NA,NA,NA,NA,NA,NA,NA,NA,NA,NA,NA,NA
f6014,"""Falsch""-Screen",canvas.Screen,3_0_5_0_0_0_2,NA,NA,timeout,4997.2,864706.2,864695.382,864710.3,869690.6,869691.6,2024-05-26T13:33:57Z,869707.5,NULL,Wettbewerb,ushindani,d,NA,NA,NA,NA,sdf,0,5,NA,NA,NA,NA,NA,NA,NA,NA,NA,NA,NA,NA,NA,NA,NA,NA,NA,NA,NA
f6014,deep,flow.Sequence,3_0_5_0_0_0,NA,NA,completion,13524.388,856170.7,856166.212,856166.212,869690.6,869691.8,2024-05-26T13:33:57Z,869707.5,NULL,Wettbewerb,ushindani,d,NA,NA,NA,NA,sdf,NA,5,NA,NA,NA,NA,NA,NA,NA,NA,NA,NA,NA,NA,NA,NA,NA,NA,NA,NA,NA
f6014,shallow,flow.Sequence,3_0_5_0_0_1,NA,NA,skipped,NA,869692,NA,NA,869690.6,869692.1,2024-05-26T13:33:57Z,869707.5,NULL,Wettbewerb,ushindani,d,NA,NA,NA,NA,sdf,NA,5,NA,NA,NA,NA,NA,NA,NA,NA,NA,NA,NA,NA,NA,NA,NA,NA,NA,NA,NA
f6014,task,flow.Sequence,3_0_5_0_0,NA,NA,completion,13524.388,856170.7,856166.212,856166.212,869690.6,869692.4,2024-05-26T13:33:57Z,869707.5,NULL,Wettbewerb,ushindani,d,NA,NA,NA,NA,sdf,NA,5,NA,NA,NA,NA,NA,NA,NA,NA,NA,NA,NA,NA,NA,NA,NA,NA,NA,NA,NA
f6014,Deep Question,html.Page,3_0_5_0_1_0_0,NA,NA,form submission,21063.1,869692.6,869690.6,869707.5,890770.6,890770.8,2024-05-26T13:34:18Z,890777.7,NULL,Verpackung,ufungaji,d,NA,NA,NA,ufungaji,NA,NA,5,NA,NA,NA,NA,NA,NA,NA,NA,NA,NA,NA,NA,NA,NA,NA,NA,NA,NA,NA
f6014,"""Richtig""-Screen",canvas.Screen,3_0_5_0_1_0_1,NA,NA,timeout,4997.6000000001,890773.9,890761.724,890777.7,895758.2,895759.4,2024-05-26T13:34:23Z,895775.3,NULL,Verpackung,ufungaji,d,NA,NA,NA,NA,sdf,1,5,NA,NA,NA,NA,NA,NA,NA,NA,NA,NA,NA,NA,NA,NA,NA,NA,NA,NA,NA
f6014,"""Falsch""-Screen",canvas.Screen,3_0_5_0_1_0_2,NA,NA,skipped,NA,895764.6,NA,NA,895758.2,895764.7,2024-05-26T13:34:23Z,895775.3,NULL,Verpackung,ufungaji,d,NA,NA,NA,NA,sdf,NA,5,NA,NA,NA,NA,NA,NA,NA,NA,NA,NA,NA,NA,NA,NA,NA,NA,NA,NA,NA
f6014,deep,flow.Sequence,3_0_5_0_1_0,NA,NA,completion,26050.7,869692.5,869690.6,869707.5,895758.2,895764.8,2024-05-26T13:34:23Z,895775.3,NULL,Verpackung,ufungaji,d,NA,NA,NA,NA,sdf,NA,5,NA,NA,NA,NA,NA,NA,NA,NA,NA,NA,NA,NA,NA,NA,NA,NA,NA,NA,NA
f6014,shallow,flow.Sequence,3_0_5_0_1_1,NA,NA,skipped,NA,895764.9,NA,NA,895758.2,895764.9,2024-05-26T13:34:23Z,895775.3,NULL,Verpackung,ufungaji,d,NA,NA,NA,NA,sdf,NA,5,NA,NA,NA,NA,NA,NA,NA,NA,NA,NA,NA,NA,NA,NA,NA,NA,NA,NA,NA
f6014,task,flow.Sequence,3_0_5_0_1,NA,NA,completion,26050.7,869692.4,869690.6,869707.5,895758.2,895765,2024-05-26T13:34:23Z,895775.3,NULL,Verpackung,ufungaji,d,NA,NA,NA,NA,sdf,NA,5,NA,NA,NA,NA,NA,NA,NA,NA,NA,NA,NA,NA,NA,NA,NA,NA,NA,NA,NA
f6014,deep,flow.Sequence,3_0_5_0_2_0,NA,NA,skipped,NA,895765,NA,NA,895758.2,895765,2024-05-26T13:34:23Z,895775.3,NULL,Schönheit,kirembo,s,mahojiano,msisimko,jitihadi,NA,sdf,NA,5,NA,NA,NA,NA,NA,NA,NA,NA,NA,NA,NA,NA,NA,NA,NA,NA,NA,NA,NA
f6014,Shallow Question,html.Page,3_0_5_0_2_1_0,NA,NA,form submission,5244.7999999996,895765,895758.2,895775.3,901020.1,901020.4,2024-05-26T13:34:29Z,901021.96,NULL,Schönheit,kirembo,s,mahojiano,msisimko,jitihadi,kirembo,NA,NA,5,NA,NA,NA,NA,NA,NA,NA,NA,NA,NA,NA,NA,NA,NA,NA,NA,NA,NA,NA
f6014,"""Richtig""-Screen",canvas.Screen,3_0_5_0_2_1_1,NA,NA,timeout,4997.04,901023.3,901021.96,901021.96,906002.2,906003.1,2024-05-26T13:34:34Z,906019,NULL,Schönheit,kirembo,s,mahojiano,msisimko,jitihadi,NA,sdf,1,5,NA,NA,NA,NA,NA,NA,NA,NA,NA,NA,NA,NA,NA,NA,NA,NA,NA,NA,NA
f6014,"""Falsch""-Screen",canvas.Screen,3_0_5_0_2_1_2,NA,NA,skipped,NA,906008.2,NA,NA,906002.2,906008.2,2024-05-26T13:34:34Z,906019,NULL,Schönheit,kirembo,s,mahojiano,msisimko,jitihadi,NA,sdf,NA,5,NA,NA,NA,NA,NA,NA,NA,NA,NA,NA,NA,NA,NA,NA,NA,NA,NA,NA,NA
f6014,shallow,flow.Sequence,3_0_5_0_2_1,NA,NA,completion,10226.9,895765,895758.2,895775.3,906002.2,906008.3,2024-05-26T13:34:34Z,906019,NULL,Schönheit,kirembo,s,mahojiano,msisimko,jitihadi,NA,sdf,NA,5,NA,NA,NA,NA,NA,NA,NA,NA,NA,NA,NA,NA,NA,NA,NA,NA,NA,NA,NA
f6014,task,flow.Sequence,3_0_5_0_2,NA,NA,completion,10226.9,895765,895758.2,895775.3,906002.2,906008.4,2024-05-26T13:34:34Z,906019,NULL,Schönheit,kirembo,s,mahojiano,msisimko,jitihadi,NA,sdf,NA,5,NA,NA,NA,NA,NA,NA,NA,NA,NA,NA,NA,NA,NA,NA,NA,NA,NA,NA,NA
f6014,Deep Question,html.Page,3_0_5_0_3_0_0,NA,NA,form submission,22684.199999999,906008.4,906002.2,906019,928703.2,928703.4,2024-05-26T13:34:56Z,928705.47,NULL,Auftrag,uagizaji,d,NA,NA,NA,uagizaj,NA,NA,5,NA,NA,NA,NA,NA,NA,NA,NA,NA,NA,NA,NA,NA,NA,NA,NA,NA,NA,NA
f6014,"""Richtig""-Screen",canvas.Screen,3_0_5_0_3_0_1,NA,NA,skipped,NA,928706.5,NA,NA,928703.2,928706.6,2024-05-26T13:34:56Z,928705.47,NULL,Auftrag,uagizaji,d,NA,NA,NA,NA,sdf,NA,5,NA,NA,NA,NA,NA,NA,NA,NA,NA,NA,NA,NA,NA,NA,NA,NA,NA,NA,NA
f6014,"""Falsch""-Screen",canvas.Screen,3_0_5_0_3_0_2,NA,NA,timeout,4996.53,928707.5,928705.47,928705.47,933685.1,933687,2024-05-26T13:35:01Z,933702,NULL,Auftrag,uagizaji,d,NA,NA,NA,NA,sdf,0,5,NA,NA,NA,NA,NA,NA,NA,NA,NA,NA,NA,NA,NA,NA,NA,NA,NA,NA,NA
f6014,deep,flow.Sequence,3_0_5_0_3_0,NA,NA,completion,27666.1,906008.4,906002.2,906019,933685.1,933687.2,2024-05-26T13:35:01Z,933702,NULL,Auftrag,uagizaji,d,NA,NA,NA,NA,sdf,NA,5,NA,NA,NA,NA,NA,NA,NA,NA,NA,NA,NA,NA,NA,NA,NA,NA,NA,NA,NA
f6014,shallow,flow.Sequence,3_0_5_0_3_1,NA,NA,skipped,NA,933687.4,NA,NA,933685.1,933687.5,2024-05-26T13:35:01Z,933702,NULL,Auftrag,uagizaji,d,NA,NA,NA,NA,sdf,NA,5,NA,NA,NA,NA,NA,NA,NA,NA,NA,NA,NA,NA,NA,NA,NA,NA,NA,NA,NA
f6014,task,flow.Sequence,3_0_5_0_3,NA,NA,completion,27666.1,906008.4,906002.2,906019,933685.1,933687.7,2024-05-26T13:35:01Z,933702,NULL,Auftrag,uagizaji,d,NA,NA,NA,NA,sdf,NA,5,NA,NA,NA,NA,NA,NA,NA,NA,NA,NA,NA,NA,NA,NA,NA,NA,NA,NA,NA
f6014,Deep Question,html.Page,3_0_5_0_4_0_0,NA,NA,form submission,76995,933687.8,933685.1,933702,1010697,1010697.1,2024-05-26T13:36:18Z,1010704.8,NULL,Hoffnung,matarajio,d,NA,NA,NA,matarajio,NA,NA,5,NA,NA,NA,NA,NA,NA,NA,NA,NA,NA,NA,NA,NA,NA,NA,NA,NA,NA,NA
f6014,"""Richtig""-Screen",canvas.Screen,3_0_5_0_4_0_1,NA,NA,timeout,4997.1,1010698.5,1010688.626,1010704.8,1015685.2,1015685.8,2024-05-26T13:36:23Z,1015701.9,NULL,Hoffnung,matarajio,d,NA,NA,NA,NA,sdf,1,5,NA,NA,NA,NA,NA,NA,NA,NA,NA,NA,NA,NA,NA,NA,NA,NA,NA,NA,NA
f6014,"""Falsch""-Screen",canvas.Screen,3_0_5_0_4_0_2,NA,NA,skipped,NA,1015687.9,NA,NA,1015685.2,1015688,2024-05-26T13:36:23Z,1015701.9,NULL,Hoffnung,matarajio,d,NA,NA,NA,NA,sdf,NA,5,NA,NA,NA,NA,NA,NA,NA,NA,NA,NA,NA,NA,NA,NA,NA,NA,NA,NA,NA
f6014,deep,flow.Sequence,3_0_5_0_4_0,NA,NA,completion,81983.2,933687.8,933685.1,933702,1015685.2,1015688.1,2024-05-26T13:36:23Z,1015701.9,NULL,Hoffnung,matarajio,d,NA,NA,NA,NA,sdf,NA,5,NA,NA,NA,NA,NA,NA,NA,NA,NA,NA,NA,NA,NA,NA,NA,NA,NA,NA,NA
f6014,shallow,flow.Sequence,3_0_5_0_4_1,NA,NA,skipped,NA,1015688.1,NA,NA,1015685.2,1015688.2,2024-05-26T13:36:23Z,1015701.9,NULL,Hoffnung,matarajio,d,NA,NA,NA,NA,sdf,NA,5,NA,NA,NA,NA,NA,NA,NA,NA,NA,NA,NA,NA,NA,NA,NA,NA,NA,NA,NA
f6014,task,flow.Sequence,3_0_5_0_4,NA,NA,completion,81983.2,933687.8,933685.1,933702,1015685.2,1015688.3,2024-05-26T13:36:23Z,1015701.9,NULL,Hoffnung,matarajio,d,NA,NA,NA,NA,sdf,NA,5,NA,NA,NA,NA,NA,NA,NA,NA,NA,NA,NA,NA,NA,NA,NA,NA,NA,NA,NA
f6014,deep,flow.Sequence,3_0_5_0_5_0,NA,NA,skipped,NA,1015688.3,NA,NA,1015685.2,1015688.3,2024-05-26T13:36:23Z,1015701.9,NULL,Zufall,kikuti,s,kukosekana,uchoraji,leseni,NA,sdf,NA,5,NA,NA,NA,NA,NA,NA,NA,NA,NA,NA,NA,NA,NA,NA,NA,NA,NA,NA,NA
f6014,Shallow Question,html.Page,3_0_5_0_5_1_0,NA,NA,form submission,5465.7999999992,1015688.4,1015685.2,1015701.9,1021167.7,1021167.9,2024-05-26T13:36:29Z,1021181.6,NULL,Zufall,kikuti,s,kukosekana,uchoraji,leseni,kikuti,NA,NA,5,NA,NA,NA,NA,NA,NA,NA,NA,NA,NA,NA,NA,NA,NA,NA,NA,NA,NA,NA
f6014,"""Richtig""-Screen",canvas.Screen,3_0_5_0_5_1_1,NA,NA,timeout,4996.9,1021170.7,1021165.654,1021181.6,1026162.2,1026163.5,2024-05-26T13:36:34Z,1026178.5,NULL,Zufall,kikuti,s,kukosekana,uchoraji,leseni,NA,sdf,1,5,NA,NA,NA,NA,NA,NA,NA,NA,NA,NA,NA,NA,NA,NA,NA,NA,NA,NA,NA
f6014,"""Falsch""-Screen",canvas.Screen,3_0_5_0_5_1_2,NA,NA,skipped,NA,1026168.9,NA,NA,1026162.2,1026169.2,2024-05-26T13:36:34Z,1026178.5,NULL,Zufall,kikuti,s,kukosekana,uchoraji,leseni,NA,sdf,NA,5,NA,NA,NA,NA,NA,NA,NA,NA,NA,NA,NA,NA,NA,NA,NA,NA,NA,NA,NA
f6014,shallow,flow.Sequence,3_0_5_0_5_1,NA,NA,completion,10460.3,1015688.4,1015685.2,1015701.9,1026162.2,1026169.4,2024-05-26T13:36:34Z,1026178.5,NULL,Zufall,kikuti,s,kukosekana,uchoraji,leseni,NA,sdf,NA,5,NA,NA,NA,NA,NA,NA,NA,NA,NA,NA,NA,NA,NA,NA,NA,NA,NA,NA,NA
f6014,task,flow.Sequence,3_0_5_0_5,NA,NA,completion,10460.3,1015688.3,1015685.2,1015701.9,1026162.2,1026169.6,2024-05-26T13:36:34Z,1026178.5,NULL,Zufall,kikuti,s,kukosekana,uchoraji,leseni,NA,sdf,NA,5,NA,NA,NA,NA,NA,NA,NA,NA,NA,NA,NA,NA,NA,NA,NA,NA,NA,NA,NA
f6014,deep,flow.Sequence,3_0_5_0_6_0,NA,NA,skipped,NA,1026169.9,NA,NA,1026162.2,1026170,2024-05-26T13:36:34Z,1026178.5,NULL,Schock,mshtuko,s,biashara,kukataza,vichekesho,NA,sdf,NA,5,NA,NA,NA,NA,NA,NA,NA,NA,NA,NA,NA,NA,NA,NA,NA,NA,NA,NA,NA
f6014,Shallow Question,html.Page,3_0_5_0_6_1_0,NA,NA,form submission,5090.1999999993,1026170.1,1026162.2,1026178.5,1031268.7,1031268.9,2024-05-26T13:36:39Z,1031275.4,NULL,Schock,mshtuko,s,biashara,kukataza,vichekesho,mshtuko,NA,NA,5,NA,NA,NA,NA,NA,NA,NA,NA,NA,NA,NA,NA,NA,NA,NA,NA,NA,NA,NA
f6014,"""Richtig""-Screen",canvas.Screen,3_0_5_0_6_1_1,NA,NA,timeout,4997,1031270.4,1031261.596,1031275.4,1036256,1036257.5,2024-05-26T13:36:44Z,1036272.4,NULL,Schock,mshtuko,s,biashara,kukataza,vichekesho,NA,sdf,1,5,NA,NA,NA,NA,NA,NA,NA,NA,NA,NA,NA,NA,NA,NA,NA,NA,NA,NA,NA
f6014,"""Falsch""-Screen",canvas.Screen,3_0_5_0_6_1_2,NA,NA,skipped,NA,1036263.3,NA,NA,1036256,1036263.5,2024-05-26T13:36:44Z,1036272.4,NULL,Schock,mshtuko,s,biashara,kukataza,vichekesho,NA,sdf,NA,5,NA,NA,NA,NA,NA,NA,NA,NA,NA,NA,NA,NA,NA,NA,NA,NA,NA,NA,NA
f6014,shallow,flow.Sequence,3_0_5_0_6_1,NA,NA,completion,10077.5,1026170.1,1026162.2,1026178.5,1036256,1036263.9,2024-05-26T13:36:44Z,1036272.4,NULL,Schock,mshtuko,s,biashara,kukataza,vichekesho,NA,sdf,NA,5,NA,NA,NA,NA,NA,NA,NA,NA,NA,NA,NA,NA,NA,NA,NA,NA,NA,NA,NA
f6014,task,flow.Sequence,3_0_5_0_6,NA,NA,completion,10077.5,1026169.9,1026162.2,1026178.5,1036256,1036264.1,2024-05-26T13:36:44Z,1036272.4,NULL,Schock,mshtuko,s,biashara,kukataza,vichekesho,NA,sdf,NA,5,NA,NA,NA,NA,NA,NA,NA,NA,NA,NA,NA,NA,NA,NA,NA,NA,NA,NA,NA
f6014,deep,flow.Sequence,3_0_5_0_7_0,NA,NA,skipped,NA,1036264.3,NA,NA,1036256,1036264.3,2024-05-26T13:36:44Z,1036272.4,NULL,Theorie,nadharia,s,ushungi,mkutano,uwakilishi,NA,sdf,NA,5,NA,NA,NA,NA,NA,NA,NA,NA,NA,NA,NA,NA,NA,NA,NA,NA,NA,NA,NA
f6014,Shallow Question,html.Page,3_0_5_0_7_1_0,NA,NA,form submission,5543.7999999992,1036264.5,1036256,1036272.4,1041816.2,1041816.4,2024-05-26T13:36:50Z,1041819.558,NULL,Theorie,nadharia,s,ushungi,mkutano,uwakilishi,nadharia,NA,NA,5,NA,NA,NA,NA,NA,NA,NA,NA,NA,NA,NA,NA,NA,NA,NA,NA,NA,NA,NA
f6014,"""Richtig""-Screen",canvas.Screen,3_0_5_0_7_1_1,NA,NA,timeout,4996.642,1041819.3,1041819.558,1041819.558,1046799.3,1046801,2024-05-26T13:36:55Z,1046816.2,NULL,Theorie,nadharia,s,ushungi,mkutano,uwakilishi,NA,sdf,1,5,NA,NA,NA,NA,NA,NA,NA,NA,NA,NA,NA,NA,NA,NA,NA,NA,NA,NA,NA
f6014,"""Falsch""-Screen",canvas.Screen,3_0_5_0_7_1_2,NA,NA,skipped,NA,1046805.3,NA,NA,1046799.3,1046805.4,2024-05-26T13:36:55Z,1046816.2,NULL,Theorie,nadharia,s,ushungi,mkutano,uwakilishi,NA,sdf,NA,5,NA,NA,NA,NA,NA,NA,NA,NA,NA,NA,NA,NA,NA,NA,NA,NA,NA,NA,NA
f6014,shallow,flow.Sequence,3_0_5_0_7_1,NA,NA,completion,10526.9,1036264.5,1036256,1036272.4,1046799.3,1046805.7,2024-05-26T13:36:55Z,1046816.2,NULL,Theorie,nadharia,s,ushungi,mkutano,uwakilishi,NA,sdf,NA,5,NA,NA,NA,NA,NA,NA,NA,NA,NA,NA,NA,NA,NA,NA,NA,NA,NA,NA,NA
f6014,task,flow.Sequence,3_0_5_0_7,NA,NA,completion,10526.9,1036264.2,1036256,1036272.4,1046799.3,1046805.8,2024-05-26T13:36:55Z,1046816.2,NULL,Theorie,nadharia,s,ushungi,mkutano,uwakilishi,NA,sdf,NA,5,NA,NA,NA,NA,NA,NA,NA,NA,NA,NA,NA,NA,NA,NA,NA,NA,NA,NA,NA
f6014,block,flow.Loop,3_0_5_0,NA,NA,completion,190633.088,856170.7,856166.212,856166.212,1046799.3,1046806,2024-05-26T13:36:55Z,1046816.2,NULL,NA,NA,NA,NA,NA,NA,NA,sdf,NA,5,NA,NA,NA,NA,NA,NA,NA,NA,NA,NA,NA,NA,NA,NA,NA,NA,NA,NA,NA
f6014,weiter,canvas.Screen,3_0_5_1,sdf,keypress(Space),response,1291.3999999997,1046806.2,1046799.3,1046816.2,1048107.6,1048108.6,2024-05-26T13:36:56Z,1048399.47,NULL,NA,NA,NA,NA,NA,NA,NA,sdf,NA,5,NA,NA,NA,NA,NA,NA,NA,NA,NA,NA,NA,NA,NA,NA,NA,NA,NA,NA,NA
f6014,check continue,flow.Sequence,3_0_5,NA,NA,completion,191941.388,856170.6,856166.212,856166.212,1048107.6,1048108.8,2024-05-26T13:36:56Z,1048399.47,NULL,NA,NA,NA,NA,NA,NA,NA,sdf,NA,5,NA,NA,NA,NA,NA,NA,NA,NA,NA,NA,NA,NA,NA,NA,NA,NA,NA,NA,NA
f6014,check continue,flow.Sequence,3_0_6,NA,NA,skipped,NA,1048125.3,NA,NA,1048107.6,1048125.3,2024-05-26T13:36:56Z,1048399.47,NULL,NA,NA,NA,NA,NA,NA,NA,dfs,NA,6,NA,NA,NA,NA,NA,NA,NA,NA,NA,NA,NA,NA,NA,NA,NA,NA,NA,NA,NA
f6014,check continue,flow.Sequence,3_0_7,NA,NA,skipped,NA,1048139.4,NA,NA,1048107.6,1048139.5,2024-05-26T13:36:56Z,1048399.47,NULL,NA,NA,NA,NA,NA,NA,NA,df,NA,7,NA,NA,NA,NA,NA,NA,NA,NA,NA,NA,NA,NA,NA,NA,NA,NA,NA,NA,NA
f6014,check continue,flow.Sequence,3_0_8,NA,NA,skipped,NA,1048158.3,NA,NA,1048107.6,1048158.4,2024-05-26T13:36:56Z,1048399.47,NULL,NA,NA,NA,NA,NA,NA,NA,dfs,NA,8,NA,NA,NA,NA,NA,NA,NA,NA,NA,NA,NA,NA,NA,NA,NA,NA,NA,NA,NA
f6014,check continue,flow.Sequence,3_0_9,NA,NA,skipped,NA,1048171.5,NA,NA,1048107.6,1048171.6,2024-05-26T13:36:56Z,1048399.47,NULL,NA,NA,NA,NA,NA,NA,NA,dsf,NA,9,NA,NA,NA,NA,NA,NA,NA,NA,NA,NA,NA,NA,NA,NA,NA,NA,NA,NA,NA
f6014,check continue,flow.Sequence,3_0_10,NA,NA,skipped,NA,1048184,NA,NA,1048107.6,1048184,2024-05-26T13:36:56Z,1048399.47,NULL,NA,NA,NA,NA,NA,NA,NA,df,NA,10,NA,NA,NA,NA,NA,NA,NA,NA,NA,NA,NA,NA,NA,NA,NA,NA,NA,NA,NA
f6014,check continue,flow.Sequence,3_0_11,NA,NA,skipped,NA,1048195.9,NA,NA,1048107.6,1048196,2024-05-26T13:36:56Z,1048399.47,NULL,NA,NA,NA,NA,NA,NA,NA,dfs,NA,11,NA,NA,NA,NA,NA,NA,NA,NA,NA,NA,NA,NA,NA,NA,NA,NA,NA,NA,NA
f6014,check continue,flow.Sequence,3_0_12,NA,NA,skipped,NA,1048208.7,NA,NA,1048107.6,1048208.7,2024-05-26T13:36:56Z,1048399.47,NULL,NA,NA,NA,NA,NA,NA,NA,dsf,NA,12,NA,NA,NA,NA,NA,NA,NA,NA,NA,NA,NA,NA,NA,NA,NA,NA,NA,NA,NA
f6014,check continue,flow.Sequence,3_0_13,NA,NA,skipped,NA,1048221.5,NA,NA,1048107.6,1048221.6,2024-05-26T13:36:56Z,1048399.47,NULL,NA,NA,NA,NA,NA,NA,NA,dsf,NA,13,NA,NA,NA,NA,NA,NA,NA,NA,NA,NA,NA,NA,NA,NA,NA,NA,NA,NA,NA
f6014,check continue,flow.Sequence,3_0_14,NA,NA,skipped,NA,1048234.3,NA,NA,1048107.6,1048234.4,2024-05-26T13:36:56Z,1048399.47,NULL,NA,NA,NA,NA,NA,NA,NA,NA,NA,14,NA,NA,NA,NA,NA,NA,NA,NA,NA,NA,NA,NA,NA,NA,NA,NA,NA,NA,NA
f6014,check continue,flow.Sequence,3_0_15,NA,NA,skipped,NA,1048246.1,NA,NA,1048107.6,1048246.2,2024-05-26T13:36:56Z,1048399.47,NULL,NA,NA,NA,NA,NA,NA,NA,NA,NA,15,NA,NA,NA,NA,NA,NA,NA,NA,NA,NA,NA,NA,NA,NA,NA,NA,NA,NA,NA
f6014,check continue,flow.Sequence,3_0_16,NA,NA,skipped,NA,1048257.5,NA,NA,1048107.6,1048257.7,2024-05-26T13:36:56Z,1048399.47,NULL,NA,NA,NA,NA,NA,NA,NA,NA,NA,16,NA,NA,NA,NA,NA,NA,NA,NA,NA,NA,NA,NA,NA,NA,NA,NA,NA,NA,NA
f6014,check continue,flow.Sequence,3_0_17,NA,NA,skipped,NA,1048268.9,NA,NA,1048107.6,1048269,2024-05-26T13:36:56Z,1048399.47,NULL,NA,NA,NA,NA,NA,NA,NA,NA,NA,17,NA,NA,NA,NA,NA,NA,NA,NA,NA,NA,NA,NA,NA,NA,NA,NA,NA,NA,NA
f6014,check continue,flow.Sequence,3_0_18,NA,NA,skipped,NA,1048279.9,NA,NA,1048107.6,1048279.9,2024-05-26T13:36:56Z,1048399.47,NULL,NA,NA,NA,NA,NA,NA,NA,NA,NA,18,NA,NA,NA,NA,NA,NA,NA,NA,NA,NA,NA,NA,NA,NA,NA,NA,NA,NA,NA
f6014,check continue,flow.Sequence,3_0_19,NA,NA,skipped,NA,1048291.1,NA,NA,1048107.6,1048291.2,2024-05-26T13:36:56Z,1048399.47,NULL,NA,NA,NA,NA,NA,NA,NA,NA,NA,19,NA,NA,NA,NA,NA,NA,NA,NA,NA,NA,NA,NA,NA,NA,NA,NA,NA,NA,NA
f6014,check continue,flow.Sequence,3_0_20,NA,NA,skipped,NA,1048302.5,NA,NA,1048107.6,1048302.5,2024-05-26T13:36:56Z,1048399.47,NULL,NA,NA,NA,NA,NA,NA,NA,NA,NA,20,NA,NA,NA,NA,NA,NA,NA,NA,NA,NA,NA,NA,NA,NA,NA,NA,NA,NA,NA
f6014,check continue,flow.Sequence,3_0_21,NA,NA,skipped,NA,1048313.3,NA,NA,1048107.6,1048313.3,2024-05-26T13:36:56Z,1048399.47,NULL,NA,NA,NA,NA,NA,NA,NA,NA,NA,21,NA,NA,NA,NA,NA,NA,NA,NA,NA,NA,NA,NA,NA,NA,NA,NA,NA,NA,NA
f6014,check continue,flow.Sequence,3_0_22,NA,NA,skipped,NA,1048326.4,NA,NA,1048107.6,1048326.4,2024-05-26T13:36:56Z,1048399.47,NULL,NA,NA,NA,NA,NA,NA,NA,NA,NA,22,NA,NA,NA,NA,NA,NA,NA,NA,NA,NA,NA,NA,NA,NA,NA,NA,NA,NA,NA
f6014,check continue,flow.Sequence,3_0_23,NA,NA,skipped,NA,1048337.1,NA,NA,1048107.6,1048337.2,2024-05-26T13:36:56Z,1048399.47,NULL,NA,NA,NA,NA,NA,NA,NA,NA,NA,23,NA,NA,NA,NA,NA,NA,NA,NA,NA,NA,NA,NA,NA,NA,NA,NA,NA,NA,NA
f6014,check continue,flow.Sequence,3_0_24,NA,NA,skipped,NA,1048349,NA,NA,1048107.6,1048349.1,2024-05-26T13:36:56Z,1048399.47,NULL,NA,NA,NA,NA,NA,NA,NA,NA,NA,24,NA,NA,NA,NA,NA,NA,NA,NA,NA,NA,NA,NA,NA,NA,NA,NA,NA,NA,NA
f6014,check continue,flow.Sequence,3_0_25,NA,NA,skipped,NA,1048360.5,NA,NA,1048107.6,1048360.6,2024-05-26T13:36:56Z,1048399.47,NULL,NA,NA,NA,NA,NA,NA,NA,NA,NA,25,NA,NA,NA,NA,NA,NA,NA,NA,NA,NA,NA,NA,NA,NA,NA,NA,NA,NA,NA
f6014,check continue,flow.Sequence,3_0_26,NA,NA,skipped,NA,1048371.5,NA,NA,1048107.6,1048371.6,2024-05-26T13:36:56Z,1048399.47,NULL,NA,NA,NA,NA,NA,NA,NA,NA,NA,26,NA,NA,NA,NA,NA,NA,NA,NA,NA,NA,NA,NA,NA,NA,NA,NA,NA,NA,NA
f6014,check continue,flow.Sequence,3_0_27,NA,NA,skipped,NA,1048383.5,NA,NA,1048107.6,1048383.6,2024-05-26T13:36:56Z,1048399.47,NULL,NA,NA,NA,NA,NA,NA,NA,NA,NA,27,NA,NA,NA,NA,NA,NA,NA,NA,NA,NA,NA,NA,NA,NA,NA,NA,NA,NA,NA
f6014,check continue,flow.Sequence,3_0_28,NA,NA,skipped,NA,1048394.1,NA,NA,1048107.6,1048394.1,2024-05-26T13:36:56Z,1048399.47,NULL,NA,NA,NA,NA,NA,NA,NA,NA,NA,28,NA,NA,NA,NA,NA,NA,NA,NA,NA,NA,NA,NA,NA,NA,NA,NA,NA,NA,NA
f6014,check continue,flow.Sequence,3_0_29,NA,NA,skipped,NA,1048407,NA,NA,1048107.6,1048407,2024-05-26T13:36:56Z,1048399.47,NULL,NA,NA,NA,NA,NA,NA,NA,NA,NA,29,NA,NA,NA,NA,NA,NA,NA,NA,NA,NA,NA,NA,NA,NA,NA,NA,NA,NA,NA
f6014,until continue,flow.Loop,3_0,NA,NA,completion,891948,156126.5,156144.416,156159.6,1048107.6,1048407,2024-05-26T13:36:56Z,1048399.47,NULL,NA,NA,NA,NA,NA,NA,NA,NA,NA,NA,NA,NA,NA,NA,NA,NA,NA,NA,NA,NA,NA,NA,NA,NA,NA,NA,NA,NA,NA
f6014,block 1,flow.Sequence,3,NA,NA,completion,891948,156126.5,156144.416,156159.6,1048107.6,1048407.1,2024-05-26T13:36:56Z,1048399.47,NULL,NA,NA,NA,NA,NA,NA,NA,NA,NA,NA,NA,NA,NA,NA,NA,NA,NA,NA,NA,NA,NA,NA,NA,NA,NA,NA,NA,NA,NA
f6014,1.Part Over,canvas.Screen,4,NA,keypress(Space),response,4956.7299999993,1048407.1,1048399.47,1048399.47,1053356.2,1053357,2024-05-26T13:37:01Z,1053412,NULL,NA,NA,NA,NA,NA,NA,NA,NA,NA,NA,NA,NA,NA,NA,NA,NA,NA,NA,NA,NA,NA,NA,NA,NA,NA,NA,NA,NA,NA
f6014,Deep Question,html.Page,5_0_0_0_0_0_0,NA,NA,form submission,10458.699999999,1053400.1,1053397.9,1053412,1063870.7,1063870.9,2024-05-26T13:37:12Z,1063873.54,NULL,Gelegenheit,wakati,d,NA,NA,NA,gg,NA,NA,0,NA,NA,NA,NA,NA,NA,NA,NA,NA,NA,NA,NA,NA,NA,NA,NA,NA,NA,NA
f6014,"""Richtig""-Screen",canvas.Screen,5_0_0_0_0_0_1,NA,NA,skipped,NA,1063874.3,NA,NA,1063870.7,1063874.5,2024-05-26T13:37:12Z,1063873.54,NULL,Gelegenheit,wakati,d,NA,NA,NA,NA,sdf,NA,0,NA,NA,NA,NA,NA,NA,NA,NA,NA,NA,NA,NA,NA,NA,NA,NA,NA,NA,NA
f6014,"""Falsch""-Screen",canvas.Screen,5_0_0_0_0_0_2,NA,NA,timeout,4995.6599999999,1063875.7,1063873.54,1063873.54,1068853,1068853.5,2024-05-26T13:37:17Z,1068869.2,NULL,Gelegenheit,wakati,d,NA,NA,NA,NA,sdf,0,0,NA,NA,NA,NA,NA,NA,NA,NA,NA,NA,NA,NA,NA,NA,NA,NA,NA,NA,NA
f6014,deep,flow.Sequence,5_0_0_0_0_0,NA,NA,completion,15441,1053400.1,1053397.9,1053412,1068853,1068853.6,2024-05-26T13:37:17Z,1068869.2,NULL,Gelegenheit,wakati,d,NA,NA,NA,NA,sdf,NA,0,NA,NA,NA,NA,NA,NA,NA,NA,NA,NA,NA,NA,NA,NA,NA,NA,NA,NA,NA
f6014,shallow,flow.Sequence,5_0_0_0_0_1,NA,NA,skipped,NA,1068853.7,NA,NA,1068853,1068853.7,2024-05-26T13:37:17Z,1068869.2,NULL,Gelegenheit,wakati,d,NA,NA,NA,NA,sdf,NA,0,NA,NA,NA,NA,NA,NA,NA,NA,NA,NA,NA,NA,NA,NA,NA,NA,NA,NA,NA
f6014,task,flow.Sequence,5_0_0_0_0,NA,NA,completion,15441,1053400.1,1053397.9,1053412,1068853,1068853.8,2024-05-26T13:37:17Z,1068869.2,NULL,Gelegenheit,wakati,d,NA,NA,NA,NA,sdf,NA,0,NA,NA,NA,NA,NA,NA,NA,NA,NA,NA,NA,NA,NA,NA,NA,NA,NA,NA,NA
f6014,Deep Question,html.Page,5_0_0_0_1_0_0,NA,NA,form submission,8764.8,1068853.8,1068853,1068869.2,1077634,1077634.3,2024-05-26T13:37:25Z,1077647.3,NULL,Notfall,dharura,d,NA,NA,NA,gh,NA,NA,0,NA,NA,NA,NA,NA,NA,NA,NA,NA,NA,NA,NA,NA,NA,NA,NA,NA,NA,NA
f6014,"""Richtig""-Screen",canvas.Screen,5_0_0_0_1_0_1,NA,NA,skipped,NA,1077637.5,NA,NA,1077634,1077637.6,2024-05-26T13:37:25Z,1077647.3,NULL,Notfall,dharura,d,NA,NA,NA,NA,sdf,NA,0,NA,NA,NA,NA,NA,NA,NA,NA,NA,NA,NA,NA,NA,NA,NA,NA,NA,NA,NA
f6014,"""Falsch""-Screen",canvas.Screen,5_0_0_0_1_0_2,NA,NA,timeout,4997.2,1077638.5,1077633.608,1077647.3,1082627.7,1082628.6,2024-05-26T13:37:30Z,1082644.5,NULL,Notfall,dharura,d,NA,NA,NA,NA,sdf,0,0,NA,NA,NA,NA,NA,NA,NA,NA,NA,NA,NA,NA,NA,NA,NA,NA,NA,NA,NA
f6014,deep,flow.Sequence,5_0_0_0_1_0,NA,NA,completion,13758.5,1068853.8,1068853,1068869.2,1082627.7,1082629.1,2024-05-26T13:37:30Z,1082644.5,NULL,Notfall,dharura,d,NA,NA,NA,NA,sdf,NA,0,NA,NA,NA,NA,NA,NA,NA,NA,NA,NA,NA,NA,NA,NA,NA,NA,NA,NA,NA
f6014,shallow,flow.Sequence,5_0_0_0_1_1,NA,NA,skipped,NA,1082629.2,NA,NA,1082627.7,1082629.4,2024-05-26T13:37:30Z,1082644.5,NULL,Notfall,dharura,d,NA,NA,NA,NA,sdf,NA,0,NA,NA,NA,NA,NA,NA,NA,NA,NA,NA,NA,NA,NA,NA,NA,NA,NA,NA,NA
f6014,task,flow.Sequence,5_0_0_0_1,NA,NA,completion,13758.5,1068853.8,1068853,1068869.2,1082627.7,1082629.5,2024-05-26T13:37:30Z,1082644.5,NULL,Notfall,dharura,d,NA,NA,NA,NA,sdf,NA,0,NA,NA,NA,NA,NA,NA,NA,NA,NA,NA,NA,NA,NA,NA,NA,NA,NA,NA,NA
f6014,deep,flow.Sequence,5_0_0_0_2_0,NA,NA,skipped,NA,1082629.7,NA,NA,1082627.7,1082629.8,2024-05-26T13:37:30Z,1082644.5,NULL,Verstand,ufahamivu,s,shakawa,hadhari,mhandisi,NA,sdf,NA,0,NA,NA,NA,NA,NA,NA,NA,NA,NA,NA,NA,NA,NA,NA,NA,NA,NA,NA,NA
f6014,Shallow Question,html.Page,5_0_0_0_2_1_0,NA,NA,form submission,10881.6,1082630,1082627.7,1082644.5,1093526.1,1093526.2,2024-05-26T13:37:41Z,1093554.6,NULL,Verstand,ufahamivu,s,shakawa,hadhari,mhandisi,hadhari,NA,NA,0,NA,NA,NA,NA,NA,NA,NA,NA,NA,NA,NA,NA,NA,NA,NA,NA,NA,NA,NA
f6014,"""Richtig""-Screen",canvas.Screen,5_0_0_0_2_1_1,NA,NA,skipped,NA,1093529.5,NA,NA,1093526.1,1093529.7,2024-05-26T13:37:41Z,1093554.6,NULL,Verstand,ufahamivu,s,shakawa,hadhari,mhandisi,NA,sdf,NA,0,NA,NA,NA,NA,NA,NA,NA,NA,NA,NA,NA,NA,NA,NA,NA,NA,NA,NA,NA
f6014,"""Falsch""-Screen",canvas.Screen,5_0_0_0_2_1_2,NA,NA,timeout,4996.7999999998,1093530.4,1093538.1,1093554.6,1098534.5,1098536.7,2024-05-26T13:37:46Z,1098551.4,NULL,Verstand,ufahamivu,s,shakawa,hadhari,mhandisi,NA,sdf,0,0,NA,NA,NA,NA,NA,NA,NA,NA,NA,NA,NA,NA,NA,NA,NA,NA,NA,NA,NA
f6014,shallow,flow.Sequence,5_0_0_0_2_1,NA,NA,completion,15890,1082629.9,1082627.7,1082644.5,1098534.5,1098536.8,2024-05-26T13:37:46Z,1098551.4,NULL,Verstand,ufahamivu,s,shakawa,hadhari,mhandisi,NA,sdf,NA,0,NA,NA,NA,NA,NA,NA,NA,NA,NA,NA,NA,NA,NA,NA,NA,NA,NA,NA,NA
f6014,task,flow.Sequence,5_0_0_0_2,NA,NA,completion,15890,1082629.7,1082627.7,1082644.5,1098534.5,1098536.9,2024-05-26T13:37:46Z,1098551.4,NULL,Verstand,ufahamivu,s,shakawa,hadhari,mhandisi,NA,sdf,NA,0,NA,NA,NA,NA,NA,NA,NA,NA,NA,NA,NA,NA,NA,NA,NA,NA,NA,NA,NA
