observation,sender,sender_type,sender_id,response,response_action,ended_on,duration,time_run,time_render,time_show,time_end,time_commit,timestamp,time_switch,german,swahili,enc,distractor1,distractor2,distractor3,response_2,x,correct,distractors,url_vp,url_sess,meta_labjs_version,meta_location,meta_user_agent,meta_platform,meta_language,meta_locale,meta_time_zone,meta_timezone_offset,meta_screen_width,meta_screen_height,meta_scroll_width,meta_scroll_height,meta_window_inner_width,meta_window_inner_height,meta_device_pixel_ratio,meta_labjs_build_flavor,meta_labjs_build_commit
b1722,Introduction delayed retrieval,canvas.Screen,0,weiter,keypress(Space),response,33497.405000072,950.20000004768,963.659,980.395,34477.800000072,34490.100000024,2023-10-22T20:57:43Z,34503.669,NA,NA,NA,NA,NA,NA,NA,NA,NA,NULL,190,2,20.2.4,https://neurocog.fernuni.ch/studies/vweber/sliechti/delayed%203/index.html?vp=190&sess=2,"Mozilla/5.0 (Windows NT 10.0; Win64; x64) AppleWebKit/537.36 (KHTML, like Gecko) Chrome/118.0.0.0 Safari/537.36",Win32,de-DE,de,Europe/Zurich,-120,1368,912,1368,707,1368,755,2,production,f5b4a49f956347addd546a832a3327688c2c0fef
b1722,Deep Question,html.Page,1_0_0_0,NA,NA,form submission,5136.0310000477,34491.200000048,34469.248,34503.669,39639.700000048,39640.300000072,2023-10-22T20:57:48Z,39640.516,Vergnügen,kichekesho,s,dubwana,mpanuko,mtesaji,lk,NA,NA,NULL,NA,NA,NA,NA,NA,NA,NA,NA,NA,NA,NA,NA,NA,NA,NA,NA,NA,NA,NA
b1722,Save data screen,canvas.Screen,1_0_0_1,NA,NA,timeout,500.355,39642.899999976,39623.907,39640.516,40124.183,40126.800000072,2023-10-22T20:57:49Z,40140.871,Vergnügen,kichekesho,s,dubwana,mpanuko,mtesaji,NA,NA,0,NULL,NA,NA,NA,NA,NA,NA,NA,NA,NA,NA,NA,NA,NA,NA,NA,NA,NA,NA,NA
b1722,deep,flow.Sequence,1_0_0,NA,NA,completion,5620.514,34491.100000024,34469.248,34503.669,40124.183,40127.200000048,2023-10-22T20:57:49Z,40140.871,Vergnügen,kichekesho,s,dubwana,mpanuko,mtesaji,NA,NA,NA,NULL,NA,NA,NA,NA,NA,NA,NA,NA,NA,NA,NA,NA,NA,NA,NA,NA,NA,NA,NA
b1722,task,flow.Sequence,1_0,NA,NA,completion,5620.514,34491.100000024,34469.248,34503.669,40124.183,40127.399999976,2023-10-22T20:57:49Z,40140.871,Vergnügen,kichekesho,s,dubwana,mpanuko,mtesaji,NA,NA,NA,NULL,NA,NA,NA,NA,NA,NA,NA,NA,NA,NA,NA,NA,NA,NA,NA,NA,NA,NA,NA
b1722,Deep Question,html.Page,1_1_0_0,NA,NA,form submission,3520.2290000238,40127.700000048,40124.183,40140.871,43661.100000024,43661.600000024,2023-10-22T20:57:52Z,43693.535,Tester,wanaojaribu,s,sherti,sihiri,mlipuko,x,NA,NA,NULL,NA,NA,NA,NA,NA,NA,NA,NA,NA,NA,NA,NA,NA,NA,NA,NA,NA,NA,NA
b1722,Save data screen,canvas.Screen,1_1_0_1,NA,NA,timeout,500.206,43666.200000048,43676.611,43693.535,44177.324,44178.700000048,2023-10-22T20:57:53Z,44193.741,Tester,wanaojaribu,s,sherti,sihiri,mlipuko,NA,NA,0,NULL,NA,NA,NA,NA,NA,NA,NA,NA,NA,NA,NA,NA,NA,NA,NA,NA,NA,NA,NA
b1722,deep,flow.Sequence,1_1_0,NA,NA,completion,4036.453,40127.600000024,40124.183,40140.871,44177.324,44179.300000072,2023-10-22T20:57:53Z,44193.741,Tester,wanaojaribu,s,sherti,sihiri,mlipuko,NA,NA,NA,NULL,NA,NA,NA,NA,NA,NA,NA,NA,NA,NA,NA,NA,NA,NA,NA,NA,NA,NA,NA
b1722,task,flow.Sequence,1_1,NA,NA,completion,4036.453,40127.5,40124.183,40140.871,44177.324,44179.700000048,2023-10-22T20:57:53Z,44193.741,Tester,wanaojaribu,s,sherti,sihiri,mlipuko,NA,NA,NA,NULL,NA,NA,NA,NA,NA,NA,NA,NA,NA,NA,NA,NA,NA,NA,NA,NA,NA,NA,NA
b1722,Deep Question,html.Page,1_2_0_0,NA,NA,form submission,3835.5590000715,44180.100000024,44177.324,44193.741,48029.300000072,48030.300000072,2023-10-22T20:57:57Z,48046.338,Verpackung,ufungaji,s,uhusiano,upimaji,uchunguzi,x,NA,NA,NULL,NA,NA,NA,NA,NA,NA,NA,NA,NA,NA,NA,NA,NA,NA,NA,NA,NA,NA,NA
b1722,Save data screen,canvas.Screen,1_2_0_1,NA,NA,timeout,500.88499999999,48034.899999976,48013.154,48046.338,48530.346,48531.800000072,2023-10-22T20:57:57Z,48547.223,Verpackung,ufungaji,s,uhusiano,upimaji,uchunguzi,NA,NA,0,NULL,NA,NA,NA,NA,NA,NA,NA,NA,NA,NA,NA,NA,NA,NA,NA,NA,NA,NA,NA
b1722,deep,flow.Sequence,1_2_0,NA,NA,completion,4336.605,44180,44177.324,44193.741,48530.346,48532.5,2023-10-22T20:57:57Z,48547.223,Verpackung,ufungaji,s,uhusiano,upimaji,uchunguzi,NA,NA,NA,NULL,NA,NA,NA,NA,NA,NA,NA,NA,NA,NA,NA,NA,NA,NA,NA,NA,NA,NA,NA
b1722,task,flow.Sequence,1_2,NA,NA,completion,4336.605,44180,44177.324,44193.741,48530.346,48533,2023-10-22T20:57:57Z,48547.223,Verpackung,ufungaji,s,uhusiano,upimaji,uchunguzi,NA,NA,NA,NULL,NA,NA,NA,NA,NA,NA,NA,NA,NA,NA,NA,NA,NA,NA,NA,NA,NA,NA,NA
b1722,Deep Question,html.Page,1_3_0_0,NA,NA,form submission,2932.1769999762,48533.200000048,48530.346,48547.223,51479.399999976,51479.899999976,2023-10-22T20:58:00Z,51482.047,Spionage,upelelezi,d,maslahi,utokazo,magangao,x,NA,NA,NULL,NA,NA,NA,NA,NA,NA,NA,NA,NA,NA,NA,NA,NA,NA,NA,NA,NA,NA,NA
b1722,Save data screen,canvas.Screen,1_3_0_1,NA,NA,timeout,500.377,51483.899999976,51465.413,51482.047,51965.863,51966.700000048,2023-10-22T20:58:00Z,51982.424,Spionage,upelelezi,d,maslahi,utokazo,magangao,NA,NA,0,NULL,NA,NA,NA,NA,NA,NA,NA,NA,NA,NA,NA,NA,NA,NA,NA,NA,NA,NA,NA
b1722,deep,flow.Sequence,1_3_0,NA,NA,completion,3418.64,48533.200000048,48530.346,48547.223,51965.863,51967,2023-10-22T20:58:00Z,51982.424,Spionage,upelelezi,d,maslahi,utokazo,magangao,NA,NA,NA,NULL,NA,NA,NA,NA,NA,NA,NA,NA,NA,NA,NA,NA,NA,NA,NA,NA,NA,NA,NA
b1722,task,flow.Sequence,1_3,NA,NA,completion,3418.64,48533,48530.346,48547.223,51965.863,51967.100000024,2023-10-22T20:58:00Z,51982.424,Spionage,upelelezi,d,maslahi,utokazo,magangao,NA,NA,NA,NULL,NA,NA,NA,NA,NA,NA,NA,NA,NA,NA,NA,NA,NA,NA,NA,NA,NA,NA,NA
b1722,Deep Question,html.Page,1_4_0_0,NA,NA,form submission,1886.7760000477,51967.300000072,51965.863,51982.424,53869.200000048,53869.800000072,2023-10-22T20:58:02Z,53883.756,Notfall,dharura,s,rairai,malalamiko,ahueni,x,NA,NA,NULL,NA,NA,NA,NA,NA,NA,NA,NA,NA,NA,NA,NA,NA,NA,NA,NA,NA,NA,NA
b1722,Save data screen,canvas.Screen,1_4_0_1,NA,NA,timeout,500.49,53871.300000072,53867.124,53883.756,54367.423,54368.800000072,2023-10-22T20:58:03Z,54384.246,Notfall,dharura,s,rairai,malalamiko,ahueni,NA,NA,0,NULL,NA,NA,NA,NA,NA,NA,NA,NA,NA,NA,NA,NA,NA,NA,NA,NA,NA,NA,NA
b1722,deep,flow.Sequence,1_4_0,NA,NA,completion,2384.999,51967.300000072,51965.863,51982.424,54367.423,54369.200000048,2023-10-22T20:58:03Z,54384.246,Notfall,dharura,s,rairai,malalamiko,ahueni,NA,NA,NA,NULL,NA,NA,NA,NA,NA,NA,NA,NA,NA,NA,NA,NA,NA,NA,NA,NA,NA,NA,NA
b1722,task,flow.Sequence,1_4,NA,NA,completion,2384.999,51967.200000048,51965.863,51982.424,54367.423,54369.399999976,2023-10-22T20:58:03Z,54384.246,Notfall,dharura,s,rairai,malalamiko,ahueni,NA,NA,NA,NULL,NA,NA,NA,NA,NA,NA,NA,NA,NA,NA,NA,NA,NA,NA,NA,NA,NA,NA,NA
b1722,Deep Question,html.Page,1_5_0_0,NA,NA,form submission,5354.6539999762,54369.800000072,54367.423,54384.246,59738.899999976,59739.600000024,2023-10-22T20:58:08Z,59754.441,Vermutung,udhanifu,s,haramia,tikisho,itifaki,x,NA,NA,NULL,NA,NA,NA,NA,NA,NA,NA,NA,NA,NA,NA,NA,NA,NA,NA,NA,NA,NA,NA
b1722,Save data screen,canvas.Screen,1_5_0_1,NA,NA,timeout,500.442,59743.300000072,59737.768,59754.441,60238.111,60239,2023-10-22T20:58:09Z,60254.883,Vermutung,udhanifu,s,haramia,tikisho,itifaki,NA,NA,0,NULL,NA,NA,NA,NA,NA,NA,NA,NA,NA,NA,NA,NA,NA,NA,NA,NA,NA,NA,NA
b1722,deep,flow.Sequence,1_5_0,NA,NA,completion,5853.865,54369.700000048,54367.423,54384.246,60238.111,60239.200000048,2023-10-22T20:58:09Z,60254.883,Vermutung,udhanifu,s,haramia,tikisho,itifaki,NA,NA,NA,NULL,NA,NA,NA,NA,NA,NA,NA,NA,NA,NA,NA,NA,NA,NA,NA,NA,NA,NA,NA
b1722,task,flow.Sequence,1_5,NA,NA,completion,5853.865,54369.700000048,54367.423,54384.246,60238.111,60239.300000072,2023-10-22T20:58:09Z,60254.883,Vermutung,udhanifu,s,haramia,tikisho,itifaki,NA,NA,NA,NULL,NA,NA,NA,NA,NA,NA,NA,NA,NA,NA,NA,NA,NA,NA,NA,NA,NA,NA,NA
b1722,Deep Question,html.Page,1_6_0_0,NA,NA,form submission,1644.3170000477,60239.5,60238.111,60254.883,61899.200000048,61899.600000024,2023-10-22T20:58:10Z,61905.974,Wohlstand,mafanikio,d,chimbuko,kumbuko,mapwaji,x,NA,NA,NULL,NA,NA,NA,NA,NA,NA,NA,NA,NA,NA,NA,NA,NA,NA,NA,NA,NA,NA,NA
b1722,Save data screen,canvas.Screen,1_6_0_1,NA,NA,timeout,500.453,61901.100000024,61889.689,61905.974,62389.92,62393.5,2023-10-22T20:58:11Z,62406.427,Wohlstand,mafanikio,d,chimbuko,kumbuko,mapwaji,NA,NA,0,NULL,NA,NA,NA,NA,NA,NA,NA,NA,NA,NA,NA,NA,NA,NA,NA,NA,NA,NA,NA
b1722,deep,flow.Sequence,1_6_0,NA,NA,completion,2135.037,60239.399999976,60238.111,60254.883,62389.92,62393.800000072,2023-10-22T20:58:11Z,62406.427,Wohlstand,mafanikio,d,chimbuko,kumbuko,mapwaji,NA,NA,NA,NULL,NA,NA,NA,NA,NA,NA,NA,NA,NA,NA,NA,NA,NA,NA,NA,NA,NA,NA,NA
b1722,task,flow.Sequence,1_6,NA,NA,completion,2135.037,60239.399999976,60238.111,60254.883,62389.92,62394,2023-10-22T20:58:11Z,62406.427,Wohlstand,mafanikio,d,chimbuko,kumbuko,mapwaji,NA,NA,NA,NULL,NA,NA,NA,NA,NA,NA,NA,NA,NA,NA,NA,NA,NA,NA,NA,NA,NA,NA,NA
b1722,Deep Question,html.Page,1_7_0_0,NA,NA,form submission,3352.2730000477,62394.200000048,62389.92,62406.427,65758.700000048,65759.100000024,2023-10-22T20:58:14Z,65780.227,Inhalt,yaliyomo,s,kishawishi,hifadhi,kutembea,x,NA,NA,NULL,NA,NA,NA,NA,NA,NA,NA,NA,NA,NA,NA,NA,NA,NA,NA,NA,NA,NA,NA
b1722,Save data screen,canvas.Screen,1_7_0_1,NA,NA,timeout,495.45699999999,65762.399999976,65742.027,65780.227,66259.172,66260.399999976,2023-10-22T20:58:15Z,66275.684,Inhalt,yaliyomo,s,kishawishi,hifadhi,kutembea,NA,NA,0,NULL,NA,NA,NA,NA,NA,NA,NA,NA,NA,NA,NA,NA,NA,NA,NA,NA,NA,NA,NA
b1722,deep,flow.Sequence,1_7_0,NA,NA,completion,3852.745,62394.100000024,62389.92,62406.427,66259.172,66260.899999976,2023-10-22T20:58:15Z,66275.684,Inhalt,yaliyomo,s,kishawishi,hifadhi,kutembea,NA,NA,NA,NULL,NA,NA,NA,NA,NA,NA,NA,NA,NA,NA,NA,NA,NA,NA,NA,NA,NA,NA,NA
b1722,task,flow.Sequence,1_7,NA,NA,completion,3852.745,62394.100000024,62389.92,62406.427,66259.172,66261.100000024,2023-10-22T20:58:15Z,66275.684,Inhalt,yaliyomo,s,kishawishi,hifadhi,kutembea,NA,NA,NA,NULL,NA,NA,NA,NA,NA,NA,NA,NA,NA,NA,NA,NA,NA,NA,NA,NA,NA,NA,NA
b1722,Deep Question,html.Page,1_8_0_0,NA,NA,form submission,1363.6160000715,66261.300000072,66259.172,66275.684,67639.300000072,67639.899999976,2023-10-22T20:58:16Z,67643.333,Hoffnung,matarajio,s,kutaalamika,uratibu,mvumbuzi,x,NA,NA,NULL,NA,NA,NA,NA,NA,NA,NA,NA,NA,NA,NA,NA,NA,NA,NA,NA,NA,NA,NA
b1722,Save data screen,canvas.Screen,1_8_0_1,NA,NA,timeout,500.59300000001,67641.200000048,67627.032,67643.333,68126.942,68128.300000072,2023-10-22T20:58:17Z,68143.926,Hoffnung,matarajio,s,kutaalamika,uratibu,mvumbuzi,NA,NA,0,NULL,NA,NA,NA,NA,NA,NA,NA,NA,NA,NA,NA,NA,NA,NA,NA,NA,NA,NA,NA
b1722,deep,flow.Sequence,1_8_0,NA,NA,completion,1851.258,66261.300000072,66259.172,66275.684,68126.942,68128.700000048,2023-10-22T20:58:17Z,68143.926,Hoffnung,matarajio,s,kutaalamika,uratibu,mvumbuzi,NA,NA,NA,NULL,NA,NA,NA,NA,NA,NA,NA,NA,NA,NA,NA,NA,NA,NA,NA,NA,NA,NA,NA
b1722,task,flow.Sequence,1_8,NA,NA,completion,1851.258,66261.300000072,66259.172,66275.684,68126.942,68129,2023-10-22T20:58:17Z,68143.926,Hoffnung,matarajio,s,kutaalamika,uratibu,mvumbuzi,NA,NA,NA,NULL,NA,NA,NA,NA,NA,NA,NA,NA,NA,NA,NA,NA,NA,NA,NA,NA,NA,NA,NA
b1722,Deep Question,html.Page,1_9_0_0,NA,NA,form submission,3115.8740000715,68129.300000072,68126.942,68143.926,71259.800000072,71260.300000072,2023-10-22T20:58:20Z,71279.188,Schüler,mwanafunzi,s,mwekezaji,matumizi,uaminifu,x,NA,NA,NULL,NA,NA,NA,NA,NA,NA,NA,NA,NA,NA,NA,NA,NA,NA,NA,NA,NA,NA,NA
b1722,Save data screen,canvas.Screen,1_9_0_1,NA,NA,timeout,501.06300000001,71264.300000072,71245.708,71279.188,71763.143,71764.600000024,2023-10-22T20:58:20Z,71780.251,Schüler,mwanafunzi,s,mwekezaji,matumizi,uaminifu,NA,NA,0,NULL,NA,NA,NA,NA,NA,NA,NA,NA,NA,NA,NA,NA,NA,NA,NA,NA,NA,NA,NA
b1722,deep,flow.Sequence,1_9_0,NA,NA,completion,3619.217,68129.300000072,68126.942,68143.926,71763.143,71765.100000024,2023-10-22T20:58:20Z,71780.251,Schüler,mwanafunzi,s,mwekezaji,matumizi,uaminifu,NA,NA,NA,NULL,NA,NA,NA,NA,NA,NA,NA,NA,NA,NA,NA,NA,NA,NA,NA,NA,NA,NA,NA
b1722,task,flow.Sequence,1_9,NA,NA,completion,3619.217,68129.200000048,68126.942,68143.926,71763.143,71765.399999976,2023-10-22T20:58:20Z,71780.251,Schüler,mwanafunzi,s,mwekezaji,matumizi,uaminifu,NA,NA,NA,NULL,NA,NA,NA,NA,NA,NA,NA,NA,NA,NA,NA,NA,NA,NA,NA,NA,NA,NA,NA
b1722,Deep Question,html.Page,1_10_0_0,NA,NA,form submission,14650.148999976,71765.800000072,71763.143,71780.251,86430.399999976,86430.899999976,2023-10-22T20:58:35Z,86440.179,Toleranz,kuvumiliana,d,maombolezo,ujasusi,mchekeshaji,kulumbuya,NA,NA,NULL,NA,NA,NA,NA,NA,NA,NA,NA,NA,NA,NA,NA,NA,NA,NA,NA,NA,NA,NA
b1722,Save data screen,canvas.Screen,1_10_0_1,NA,NA,timeout,500.246,86435.800000072,86423.22,86440.179,86923.678,86925,2023-10-22T20:58:35Z,86940.425,Toleranz,kuvumiliana,d,maombolezo,ujasusi,mchekeshaji,NA,NA,0,NULL,NA,NA,NA,NA,NA,NA,NA,NA,NA,NA,NA,NA,NA,NA,NA,NA,NA,NA,NA
b1722,deep,flow.Sequence,1_10_0,NA,NA,completion,15143.427,71765.700000048,71763.143,71780.251,86923.678,86926.700000048,2023-10-22T20:58:35Z,86940.425,Toleranz,kuvumiliana,d,maombolezo,ujasusi,mchekeshaji,NA,NA,NA,NULL,NA,NA,NA,NA,NA,NA,NA,NA,NA,NA,NA,NA,NA,NA,NA,NA,NA,NA,NA
b1722,task,flow.Sequence,1_10,NA,NA,completion,15143.427,71765.5,71763.143,71780.251,86923.678,86927,2023-10-22T20:58:35Z,86940.425,Toleranz,kuvumiliana,d,maombolezo,ujasusi,mchekeshaji,NA,NA,NA,NULL,NA,NA,NA,NA,NA,NA,NA,NA,NA,NA,NA,NA,NA,NA,NA,NA,NA,NA,NA
b1722,Deep Question,html.Page,1_11_0_0,NA,NA,form submission,2180.1750000238,86927.399999976,86923.678,86940.425,89120.600000024,89121,2023-10-22T20:58:38Z,89124.816,Ergänzung,kijalizo,d,ulaghai,mustarehe,matangazo,x,NA,NA,NULL,NA,NA,NA,NA,NA,NA,NA,NA,NA,NA,NA,NA,NA,NA,NA,NA,NA,NA,NA
b1722,Save data screen,canvas.Screen,1_11_0_1,NA,NA,timeout,500.72799999999,89122.300000072,89108.567,89124.816,89608.841,89610.200000048,2023-10-22T20:58:38Z,89625.544,Ergänzung,kijalizo,d,ulaghai,mustarehe,matangazo,NA,NA,0,NULL,NA,NA,NA,NA,NA,NA,NA,NA,NA,NA,NA,NA,NA,NA,NA,NA,NA,NA,NA
b1722,deep,flow.Sequence,1_11_0,NA,NA,completion,2668.416,86927.300000072,86923.678,86940.425,89608.841,89610.700000048,2023-10-22T20:58:38Z,89625.544,Ergänzung,kijalizo,d,ulaghai,mustarehe,matangazo,NA,NA,NA,NULL,NA,NA,NA,NA,NA,NA,NA,NA,NA,NA,NA,NA,NA,NA,NA,NA,NA,NA,NA
b1722,task,flow.Sequence,1_11,NA,NA,completion,2668.416,86927.200000048,86923.678,86940.425,89608.841,89611.300000072,2023-10-22T20:58:38Z,89625.544,Ergänzung,kijalizo,d,ulaghai,mustarehe,matangazo,NA,NA,NA,NULL,NA,NA,NA,NA,NA,NA,NA,NA,NA,NA,NA,NA,NA,NA,NA,NA,NA,NA,NA
b1722,Deep Question,html.Page,1_12_0_0,NA,NA,form submission,2364.5560000238,89611.800000072,89608.841,89625.544,91990.100000024,91990.5,2023-10-22T20:58:40Z,91993.498,Theorie,nadharia,d,ushungi,mkutano,uwakilishi,x,NA,NA,NULL,NA,NA,NA,NA,NA,NA,NA,NA,NA,NA,NA,NA,NA,NA,NA,NA,NA,NA,NA
b1722,Save data screen,canvas.Screen,1_12_0_1,NA,NA,timeout,500.34199999999,91991.899999976,91976.893,91993.498,92477.487,92478.600000024,2023-10-22T20:58:41Z,92493.84,Theorie,nadharia,d,ushungi,mkutano,uwakilishi,NA,NA,0,NULL,NA,NA,NA,NA,NA,NA,NA,NA,NA,NA,NA,NA,NA,NA,NA,NA,NA,NA,NA
b1722,deep,flow.Sequence,1_12_0,NA,NA,completion,2851.943,89611.700000048,89608.841,89625.544,92477.487,92479,2023-10-22T20:58:41Z,92493.84,Theorie,nadharia,d,ushungi,mkutano,uwakilishi,NA,NA,NA,NULL,NA,NA,NA,NA,NA,NA,NA,NA,NA,NA,NA,NA,NA,NA,NA,NA,NA,NA,NA
b1722,task,flow.Sequence,1_12,NA,NA,completion,2851.943,89611.5,89608.841,89625.544,92477.487,92479.600000024,2023-10-22T20:58:41Z,92493.84,Theorie,nadharia,d,ushungi,mkutano,uwakilishi,NA,NA,NA,NULL,NA,NA,NA,NA,NA,NA,NA,NA,NA,NA,NA,NA,NA,NA,NA,NA,NA,NA,NA
b1722,Deep Question,html.Page,1_13_0_0,NA,NA,form submission,14286.360000048,92479.899999976,92477.487,92493.84,106780.20000005,106780.80000007,2023-10-22T20:58:55Z,106787.114,Schlange,foleni,d,uvumilivu,uteuzi,muuzaji,kijmata,NA,NA,NULL,NA,NA,NA,NA,NA,NA,NA,NA,NA,NA,NA,NA,NA,NA,NA,NA,NA,NA,NA
b1722,Save data screen,canvas.Screen,1_13_0_1,NA,NA,timeout,500.651,106785.60000002,106770.383,106787.114,107271.088,107272.39999998,2023-10-22T20:58:56Z,107287.765,Schlange,foleni,d,uvumilivu,uteuzi,muuzaji,NA,NA,0,NULL,NA,NA,NA,NA,NA,NA,NA,NA,NA,NA,NA,NA,NA,NA,NA,NA,NA,NA,NA
b1722,deep,flow.Sequence,1_13_0,NA,NA,completion,14777.248,92479.800000072,92477.487,92493.84,107271.088,107272.89999998,2023-10-22T20:58:56Z,107287.765,Schlange,foleni,d,uvumilivu,uteuzi,muuzaji,NA,NA,NA,NULL,NA,NA,NA,NA,NA,NA,NA,NA,NA,NA,NA,NA,NA,NA,NA,NA,NA,NA,NA
b1722,task,flow.Sequence,1_13,NA,NA,completion,14777.248,92479.700000048,92477.487,92493.84,107271.088,107273.30000007,2023-10-22T20:58:56Z,107287.765,Schlange,foleni,d,uvumilivu,uteuzi,muuzaji,NA,NA,NA,NULL,NA,NA,NA,NA,NA,NA,NA,NA,NA,NA,NA,NA,NA,NA,NA,NA,NA,NA,NA
b1722,Deep Question,html.Page,1_14_0_0,NA,NA,form submission,1622.4350000477,107273.5,107271.088,107287.765,108910.20000005,108910.60000002,2023-10-22T20:58:57Z,108925.614,Schock,mshtuko,d,biashara,kukataza,vichekesho,x,NA,NA,NULL,NA,NA,NA,NA,NA,NA,NA,NA,NA,NA,NA,NA,NA,NA,NA,NA,NA,NA,NA
b1722,Save data screen,canvas.Screen,1_14_0_1,NA,NA,timeout,497.618,108911.70000005,108904.859,108925.614,109405.913,109407.10000002,2023-10-22T20:58:58Z,109423.232,Schock,mshtuko,d,biashara,kukataza,vichekesho,NA,NA,0,NULL,NA,NA,NA,NA,NA,NA,NA,NA,NA,NA,NA,NA,NA,NA,NA,NA,NA,NA,NA
b1722,deep,flow.Sequence,1_14_0,NA,NA,completion,2118.148,107273.5,107271.088,107287.765,109405.913,109407.5,2023-10-22T20:58:58Z,109423.232,Schock,mshtuko,d,biashara,kukataza,vichekesho,NA,NA,NA,NULL,NA,NA,NA,NA,NA,NA,NA,NA,NA,NA,NA,NA,NA,NA,NA,NA,NA,NA,NA
b1722,task,flow.Sequence,1_14,NA,NA,completion,2118.148,107273.39999998,107271.088,107287.765,109405.913,109407.80000007,2023-10-22T20:58:58Z,109423.232,Schock,mshtuko,d,biashara,kukataza,vichekesho,NA,NA,NA,NULL,NA,NA,NA,NA,NA,NA,NA,NA,NA,NA,NA,NA,NA,NA,NA,NA,NA,NA,NA
b1722,Deep Question,html.Page,1_15_0_0,NA,NA,form submission,2877.6679999762,109408,109405.913,109423.232,112300.89999998,112301.30000007,2023-10-22T20:59:01Z,112307.552,Fenster,dirisha,d,walakini,tasawari,maarifa,dirishi,NA,NA,NULL,NA,NA,NA,NA,NA,NA,NA,NA,NA,NA,NA,NA,NA,NA,NA,NA,NA,NA,NA
b1722,Save data screen,canvas.Screen,1_15_0_1,NA,NA,timeout,500.459,112302.80000007,112291.174,112307.552,112791.624,112792.89999998,2023-10-22T20:59:01Z,112808.011,Fenster,dirisha,d,walakini,tasawari,maarifa,NA,NA,0,NULL,NA,NA,NA,NA,NA,NA,NA,NA,NA,NA,NA,NA,NA,NA,NA,NA,NA,NA,NA
b1722,deep,flow.Sequence,1_15_0,NA,NA,completion,3368.392,109408,109405.913,109423.232,112791.624,112793.60000002,2023-10-22T20:59:01Z,112808.011,Fenster,dirisha,d,walakini,tasawari,maarifa,NA,NA,NA,NULL,NA,NA,NA,NA,NA,NA,NA,NA,NA,NA,NA,NA,NA,NA,NA,NA,NA,NA,NA
b1722,task,flow.Sequence,1_15,NA,NA,completion,3368.392,109407.89999998,109405.913,109423.232,112791.624,112793.80000007,2023-10-22T20:59:01Z,112808.011,Fenster,dirisha,d,walakini,tasawari,maarifa,NA,NA,NA,NULL,NA,NA,NA,NA,NA,NA,NA,NA,NA,NA,NA,NA,NA,NA,NA,NA,NA,NA,NA
b1722,retrieval block 1 (cued recall),flow.Loop,1,NA,NA,completion,78287.955,34490.899999976,34469.248,34503.669,112791.624,112794.39999998,2023-10-22T20:59:01Z,112808.011,NA,NA,NA,NA,NA,NA,NA,NA,NA,NULL,NA,NA,NA,NA,NA,NA,NA,NA,NA,NA,NA,NA,NA,NA,NA,NA,NA,NA,NA
b1722,Shallow Question,html.Page,2_0_0_0,NA,NA,form submission,4942.6890000477,112794.70000005,112791.624,112808.011,117750.70000005,117751,2023-10-22T20:59:06Z,117761.339,Inhalt,yaliyomo,s,kishawishi,hifadhi,kutembea,yaliyomo,NA,NA,"c(""distractor1"", ""distractor2"", ""distractor3"")",NA,NA,NA,NA,NA,NA,NA,NA,NA,NA,NA,NA,NA,NA,NA,NA,NA,NA,NA
b1722,Save data screen,canvas.Screen,2_0_0_1,NA,NA,timeout,500.36899999999,117754.60000002,117744.491,117761.339,118245.039,118246.30000007,2023-10-22T20:59:07Z,118261.708,Inhalt,yaliyomo,s,kishawishi,hifadhi,kutembea,NA,NA,1,"c(""distractor1"", ""distractor2"", ""distractor3"")",NA,NA,NA,NA,NA,NA,NA,NA,NA,NA,NA,NA,NA,NA,NA,NA,NA,NA,NA
b1722,shallow,flow.Sequence,2_0_0,NA,NA,completion,5437.028,112794.70000005,112791.624,112808.011,118245.039,118246.80000007,2023-10-22T20:59:07Z,118261.708,Inhalt,yaliyomo,s,kishawishi,hifadhi,kutembea,NA,NA,NA,"c(""distractor1"", ""distractor2"", ""distractor3"")",NA,NA,NA,NA,NA,NA,NA,NA,NA,NA,NA,NA,NA,NA,NA,NA,NA,NA,NA
b1722,task,flow.Sequence,2_0,NA,NA,completion,5437.028,112794.70000005,112791.624,112808.011,118245.039,118247.10000002,2023-10-22T20:59:07Z,118261.708,Inhalt,yaliyomo,s,kishawishi,hifadhi,kutembea,NA,NA,NA,"c(""distractor1"", ""distractor2"", ""distractor3"")",NA,NA,NA,NA,NA,NA,NA,NA,NA,NA,NA,NA,NA,NA,NA,NA,NA,NA,NA
b1722,Shallow Question,html.Page,2_1_0_0,NA,NA,form submission,8722.3920000238,118247.60000002,118245.039,118261.708,126984.10000002,126984.80000007,2023-10-22T20:59:15Z,126984.396,Wohlstand,mafanikio,d,chimbuko,kumbuko,mapwaji,mafanikio,NA,NA,"c(""distractor1"", ""distractor2"", ""distractor3"")",NA,NA,NA,NA,NA,NA,NA,NA,NA,NA,NA,NA,NA,NA,NA,NA,NA,NA,NA
b1722,Save data screen,canvas.Screen,2_1_0_1,NA,NA,timeout,500.54500000001,126990.10000002,126967.814,126984.396,127468.369,127469.60000002,2023-10-22T20:59:16Z,127484.941,Wohlstand,mafanikio,d,chimbuko,kumbuko,mapwaji,NA,NA,1,"c(""distractor1"", ""distractor2"", ""distractor3"")",NA,NA,NA,NA,NA,NA,NA,NA,NA,NA,NA,NA,NA,NA,NA,NA,NA,NA,NA
b1722,shallow,flow.Sequence,2_1_0,NA,NA,completion,9206.661,118247.5,118245.039,118261.708,127468.369,127471,2023-10-22T20:59:16Z,127484.941,Wohlstand,mafanikio,d,chimbuko,kumbuko,mapwaji,NA,NA,NA,"c(""distractor1"", ""distractor2"", ""distractor3"")",NA,NA,NA,NA,NA,NA,NA,NA,NA,NA,NA,NA,NA,NA,NA,NA,NA,NA,NA
b1722,task,flow.Sequence,2_1,NA,NA,completion,9206.661,118247.39999998,118245.039,118261.708,127468.369,127471.30000007,2023-10-22T20:59:16Z,127484.941,Wohlstand,mafanikio,d,chimbuko,kumbuko,mapwaji,NA,NA,NA,"c(""distractor1"", ""distractor2"", ""distractor3"")",NA,NA,NA,NA,NA,NA,NA,NA,NA,NA,NA,NA,NA,NA,NA,NA,NA,NA,NA
b1722,Shallow Question,html.Page,2_2_0_0,NA,NA,form submission,11684.559,127471.5,127468.369,127484.941,139169.5,139170.20000005,2023-10-22T20:59:28Z,139176.602,Vergnügen,kichekesho,s,dubwana,mpanuko,mtesaji,kichekesho,NA,NA,"c(""distractor1"", ""distractor2"", ""distractor3"")",NA,NA,NA,NA,NA,NA,NA,NA,NA,NA,NA,NA,NA,NA,NA,NA,NA,NA,NA
b1722,Save data screen,canvas.Screen,2_2_0_1,NA,NA,timeout,499.93899999998,139174.70000005,139159.543,139176.602,139660.338,139661.5,2023-10-22T20:59:28Z,139676.541,Vergnügen,kichekesho,s,dubwana,mpanuko,mtesaji,NA,NA,1,"c(""distractor1"", ""distractor2"", ""distractor3"")",NA,NA,NA,NA,NA,NA,NA,NA,NA,NA,NA,NA,NA,NA,NA,NA,NA,NA,NA
b1722,shallow,flow.Sequence,2_2_0,NA,NA,completion,12175.397,127471.5,127468.369,127484.941,139660.338,139662.39999998,2023-10-22T20:59:28Z,139676.541,Vergnügen,kichekesho,s,dubwana,mpanuko,mtesaji,NA,NA,NA,"c(""distractor1"", ""distractor2"", ""distractor3"")",NA,NA,NA,NA,NA,NA,NA,NA,NA,NA,NA,NA,NA,NA,NA,NA,NA,NA,NA
b1722,task,flow.Sequence,2_2,NA,NA,completion,12175.397,127471.39999998,127468.369,127484.941,139660.338,139662.70000005,2023-10-22T20:59:28Z,139676.541,Vergnügen,kichekesho,s,dubwana,mpanuko,mtesaji,NA,NA,NA,"c(""distractor1"", ""distractor2"", ""distractor3"")",NA,NA,NA,NA,NA,NA,NA,NA,NA,NA,NA,NA,NA,NA,NA,NA,NA,NA,NA
b1722,Shallow Question,html.Page,2_3_0_0,NA,NA,form submission,4351.5590000238,139663.70000005,139660.338,139676.541,144028.10000002,144028.5,2023-10-22T20:59:33Z,144046.403,Schlange,foleni,d,uvumilivu,uteuzi,muuzaji,foleni,NA,NA,"c(""distractor1"", ""distractor2"", ""distractor3"")",NA,NA,NA,NA,NA,NA,NA,NA,NA,NA,NA,NA,NA,NA,NA,NA,NA,NA,NA
b1722,Save data screen,canvas.Screen,2_3_0_1,NA,NA,timeout,500.179,144032.89999998,144012.898,144046.403,144529.939,144531,2023-10-22T20:59:33Z,144546.582,Schlange,foleni,d,uvumilivu,uteuzi,muuzaji,NA,NA,1,"c(""distractor1"", ""distractor2"", ""distractor3"")",NA,NA,NA,NA,NA,NA,NA,NA,NA,NA,NA,NA,NA,NA,NA,NA,NA,NA,NA
b1722,shallow,flow.Sequence,2_3_0,NA,NA,completion,4853.398,139663.30000007,139660.338,139676.541,144529.939,144531.60000002,2023-10-22T20:59:33Z,144546.582,Schlange,foleni,d,uvumilivu,uteuzi,muuzaji,NA,NA,NA,"c(""distractor1"", ""distractor2"", ""distractor3"")",NA,NA,NA,NA,NA,NA,NA,NA,NA,NA,NA,NA,NA,NA,NA,NA,NA,NA,NA
b1722,task,flow.Sequence,2_3,NA,NA,completion,4853.398,139663.30000007,139660.338,139676.541,144529.939,144532,2023-10-22T20:59:33Z,144546.582,Schlange,foleni,d,uvumilivu,uteuzi,muuzaji,NA,NA,NA,"c(""distractor1"", ""distractor2"", ""distractor3"")",NA,NA,NA,NA,NA,NA,NA,NA,NA,NA,NA,NA,NA,NA,NA,NA,NA,NA,NA
b1722,Shallow Question,html.Page,2_4_0_0,NA,NA,form submission,10051.918,144532.20000005,144529.939,144546.582,154598.5,154598.89999998,2023-10-22T20:59:43Z,154603.557,Schock,mshtuko,d,biashara,kukataza,vichekesho,mshtuko,NA,NA,"c(""distractor1"", ""distractor2"", ""distractor3"")",NA,NA,NA,NA,NA,NA,NA,NA,NA,NA,NA,NA,NA,NA,NA,NA,NA,NA,NA
b1722,Save data screen,canvas.Screen,2_4_0_1,NA,NA,timeout,500.33199999999,154603,154587.066,154603.557,155087.246,155088.20000005,2023-10-22T20:59:44Z,155103.889,Schock,mshtuko,d,biashara,kukataza,vichekesho,NA,NA,1,"c(""distractor1"", ""distractor2"", ""distractor3"")",NA,NA,NA,NA,NA,NA,NA,NA,NA,NA,NA,NA,NA,NA,NA,NA,NA,NA,NA
b1722,shallow,flow.Sequence,2_4_0,NA,NA,completion,10540.664,144532.10000002,144529.939,144546.582,155087.246,155088.60000002,2023-10-22T20:59:44Z,155103.889,Schock,mshtuko,d,biashara,kukataza,vichekesho,NA,NA,NA,"c(""distractor1"", ""distractor2"", ""distractor3"")",NA,NA,NA,NA,NA,NA,NA,NA,NA,NA,NA,NA,NA,NA,NA,NA,NA,NA,NA
b1722,task,flow.Sequence,2_4,NA,NA,completion,10540.664,144532.10000002,144529.939,144546.582,155087.246,155088.89999998,2023-10-22T20:59:44Z,155103.889,Schock,mshtuko,d,biashara,kukataza,vichekesho,NA,NA,NA,"c(""distractor1"", ""distractor2"", ""distractor3"")",NA,NA,NA,NA,NA,NA,NA,NA,NA,NA,NA,NA,NA,NA,NA,NA,NA,NA,NA
b1722,Shallow Question,html.Page,2_5_0_0,NA,NA,form submission,14521.711000024,155089.20000005,155087.246,155103.889,169625.60000002,169625.89999998,2023-10-22T20:59:58Z,169647.348,Tester,wanaojaribu,s,sherti,sihiri,mlipuko,wanaojaribu,NA,NA,"c(""distractor1"", ""distractor2"", ""distractor3"")",NA,NA,NA,NA,NA,NA,NA,NA,NA,NA,NA,NA,NA,NA,NA,NA,NA,NA,NA
b1722,Save data screen,canvas.Screen,2_5_0_1,NA,NA,timeout,500.886,169631.89999998,169614.018,169647.348,170131.008,170132.60000002,2023-10-22T20:59:59Z,170148.234,Tester,wanaojaribu,s,sherti,sihiri,mlipuko,NA,NA,1,"c(""distractor1"", ""distractor2"", ""distractor3"")",NA,NA,NA,NA,NA,NA,NA,NA,NA,NA,NA,NA,NA,NA,NA,NA,NA,NA,NA
b1722,shallow,flow.Sequence,2_5_0,NA,NA,completion,15027.119,155089.10000002,155087.246,155103.889,170131.008,170133.60000002,2023-10-22T20:59:59Z,170148.234,Tester,wanaojaribu,s,sherti,sihiri,mlipuko,NA,NA,NA,"c(""distractor1"", ""distractor2"", ""distractor3"")",NA,NA,NA,NA,NA,NA,NA,NA,NA,NA,NA,NA,NA,NA,NA,NA,NA,NA,NA
b1722,task,flow.Sequence,2_5,NA,NA,completion,15027.119,155089,155087.246,155103.889,170131.008,170134,2023-10-22T20:59:59Z,170148.234,Tester,wanaojaribu,s,sherti,sihiri,mlipuko,NA,NA,NA,"c(""distractor1"", ""distractor2"", ""distractor3"")",NA,NA,NA,NA,NA,NA,NA,NA,NA,NA,NA,NA,NA,NA,NA,NA,NA,NA,NA
b1722,Shallow Question,html.Page,2_6_0_0,NA,NA,form submission,4185.1659999762,170134.60000002,170131.008,170148.234,174333.39999998,174334.20000005,2023-10-22T21:00:03Z,174350.571,Fenster,dirisha,d,walakini,tasawari,maarifa,dirisha,NA,NA,"c(""distractor1"", ""distractor2"", ""distractor3"")",NA,NA,NA,NA,NA,NA,NA,NA,NA,NA,NA,NA,NA,NA,NA,NA,NA,NA,NA
b1722,Save data screen,canvas.Screen,2_6_0_1,NA,NA,timeout,500.372,174338.70000005,174317.219,174350.571,174834.278,174835.30000007,2023-10-22T21:00:03Z,174850.943,Fenster,dirisha,d,walakini,tasawari,maarifa,NA,NA,1,"c(""distractor1"", ""distractor2"", ""distractor3"")",NA,NA,NA,NA,NA,NA,NA,NA,NA,NA,NA,NA,NA,NA,NA,NA,NA,NA,NA
b1722,shallow,flow.Sequence,2_6_0,NA,NA,completion,4686.044,170134.30000007,170131.008,170148.234,174834.278,174835.80000007,2023-10-22T21:00:03Z,174850.943,Fenster,dirisha,d,walakini,tasawari,maarifa,NA,NA,NA,"c(""distractor1"", ""distractor2"", ""distractor3"")",NA,NA,NA,NA,NA,NA,NA,NA,NA,NA,NA,NA,NA,NA,NA,NA,NA,NA,NA
b1722,task,flow.Sequence,2_6,NA,NA,completion,4686.044,170134.30000007,170131.008,170148.234,174834.278,174836.10000002,2023-10-22T21:00:03Z,174850.943,Fenster,dirisha,d,walakini,tasawari,maarifa,NA,NA,NA,"c(""distractor1"", ""distractor2"", ""distractor3"")",NA,NA,NA,NA,NA,NA,NA,NA,NA,NA,NA,NA,NA,NA,NA,NA,NA,NA,NA
b1722,Shallow Question,html.Page,2_7_0_0,NA,NA,form submission,5490.557,174836.30000007,174834.278,174850.943,180341.5,180341.89999998,2023-10-22T21:00:09Z,180354.727,Schüler,mwanafunzi,s,mwekezaji,matumizi,uaminifu,mwekezaji,NA,NA,"c(""distractor1"", ""distractor2"", ""distractor3"")",NA,NA,NA,NA,NA,NA,NA,NA,NA,NA,NA,NA,NA,NA,NA,NA,NA,NA,NA
b1722,Save data screen,canvas.Screen,2_7_0_1,NA,NA,timeout,500.36299999998,180343.60000002,180338.103,180354.727,180838.38,180839.10000002,2023-10-22T21:00:09Z,180855.09,Schüler,mwanafunzi,s,mwekezaji,matumizi,uaminifu,NA,NA,0,"c(""distractor1"", ""distractor2"", ""distractor3"")",NA,NA,NA,NA,NA,NA,NA,NA,NA,NA,NA,NA,NA,NA,NA,NA,NA,NA,NA
b1722,shallow,flow.Sequence,2_7_0,NA,NA,completion,5987.437,174836.30000007,174834.278,174850.943,180838.38,180839.30000007,2023-10-22T21:00:09Z,180855.09,Schüler,mwanafunzi,s,mwekezaji,matumizi,uaminifu,NA,NA,NA,"c(""distractor1"", ""distractor2"", ""distractor3"")",NA,NA,NA,NA,NA,NA,NA,NA,NA,NA,NA,NA,NA,NA,NA,NA,NA,NA,NA
b1722,task,flow.Sequence,2_7,NA,NA,completion,5987.437,174836.30000007,174834.278,174850.943,180838.38,180839.5,2023-10-22T21:00:09Z,180855.09,Schüler,mwanafunzi,s,mwekezaji,matumizi,uaminifu,NA,NA,NA,"c(""distractor1"", ""distractor2"", ""distractor3"")",NA,NA,NA,NA,NA,NA,NA,NA,NA,NA,NA,NA,NA,NA,NA,NA,NA,NA,NA
b1722,Shallow Question,html.Page,2_8_0_0,NA,NA,form submission,6446.8099999762,180839.60000002,180838.38,180855.09,187301.89999998,187302.30000007,2023-10-22T21:00:16Z,187309.572,Theorie,nadharia,d,ushungi,mkutano,uwakilishi,ushungi,NA,NA,"c(""distractor1"", ""distractor2"", ""distractor3"")",NA,NA,NA,NA,NA,NA,NA,NA,NA,NA,NA,NA,NA,NA,NA,NA,NA,NA,NA
b1722,Save data screen,canvas.Screen,2_8_0_1,NA,NA,timeout,501.53200000001,187306.20000005,187292.898,187309.572,187793.521,187795.20000005,2023-10-22T21:00:16Z,187811.104,Theorie,nadharia,d,ushungi,mkutano,uwakilishi,NA,NA,0,"c(""distractor1"", ""distractor2"", ""distractor3"")",NA,NA,NA,NA,NA,NA,NA,NA,NA,NA,NA,NA,NA,NA,NA,NA,NA,NA,NA
b1722,shallow,flow.Sequence,2_8_0,NA,NA,completion,6938.431,180839.60000002,180838.38,180855.09,187793.521,187795.5,2023-10-22T21:00:16Z,187811.104,Theorie,nadharia,d,ushungi,mkutano,uwakilishi,NA,NA,NA,"c(""distractor1"", ""distractor2"", ""distractor3"")",NA,NA,NA,NA,NA,NA,NA,NA,NA,NA,NA,NA,NA,NA,NA,NA,NA,NA,NA
b1722,task,flow.Sequence,2_8,NA,NA,completion,6938.431,180839.60000002,180838.38,180855.09,187793.521,187795.89999998,2023-10-22T21:00:16Z,187811.104,Theorie,nadharia,d,ushungi,mkutano,uwakilishi,NA,NA,NA,"c(""distractor1"", ""distractor2"", ""distractor3"")",NA,NA,NA,NA,NA,NA,NA,NA,NA,NA,NA,NA,NA,NA,NA,NA,NA,NA,NA
b1722,Shallow Question,html.Page,2_9_0_0,NA,NA,form submission,11984.596000048,187796.20000005,187793.521,187811.104,199795.70000005,199796.30000007,2023-10-22T21:00:28Z,199803.383,Spionage,upelelezi,d,maslahi,utokazo,magangao,utokazo,NA,NA,"c(""distractor1"", ""distractor2"", ""distractor3"")",NA,NA,NA,NA,NA,NA,NA,NA,NA,NA,NA,NA,NA,NA,NA,NA,NA,NA,NA
b1722,Save data screen,canvas.Screen,2_9_0_1,NA,NA,timeout,498.54399999999,199801.5,199784.886,199803.383,200285.244,200286.10000002,2023-10-22T21:00:29Z,200301.927,Spionage,upelelezi,d,maslahi,utokazo,magangao,NA,NA,0,"c(""distractor1"", ""distractor2"", ""distractor3"")",NA,NA,NA,NA,NA,NA,NA,NA,NA,NA,NA,NA,NA,NA,NA,NA,NA,NA,NA
b1722,shallow,flow.Sequence,2_9_0,NA,NA,completion,12474.14,187796.20000005,187793.521,187811.104,200285.244,200286.60000002,2023-10-22T21:00:29Z,200301.927,Spionage,upelelezi,d,maslahi,utokazo,magangao,NA,NA,NA,"c(""distractor1"", ""distractor2"", ""distractor3"")",NA,NA,NA,NA,NA,NA,NA,NA,NA,NA,NA,NA,NA,NA,NA,NA,NA,NA,NA
b1722,task,flow.Sequence,2_9,NA,NA,completion,12474.14,187796.10000002,187793.521,187811.104,200285.244,200287,2023-10-22T21:00:29Z,200301.927,Spionage,upelelezi,d,maslahi,utokazo,magangao,NA,NA,NA,"c(""distractor1"", ""distractor2"", ""distractor3"")",NA,NA,NA,NA,NA,NA,NA,NA,NA,NA,NA,NA,NA,NA,NA,NA,NA,NA,NA
b1722,Shallow Question,html.Page,2_10_0_0,NA,NA,form submission,5373.1730000238,200287.30000007,200285.244,200301.927,205675.10000002,205675.80000007,2023-10-22T21:00:34Z,205690.512,Vermutung,udhanifu,s,haramia,tikisho,itifaki,udhanifu,NA,NA,"c(""distractor1"", ""distractor2"", ""distractor3"")",NA,NA,NA,NA,NA,NA,NA,NA,NA,NA,NA,NA,NA,NA,NA,NA,NA,NA,NA
b1722,Save data screen,canvas.Screen,2_10_0_1,NA,NA,timeout,498.85100000002,205679.70000005,205672.349,205690.512,206172.713,206174,2023-10-22T21:00:35Z,206189.363,Vermutung,udhanifu,s,haramia,tikisho,itifaki,NA,NA,1,"c(""distractor1"", ""distractor2"", ""distractor3"")",NA,NA,NA,NA,NA,NA,NA,NA,NA,NA,NA,NA,NA,NA,NA,NA,NA,NA,NA
b1722,shallow,flow.Sequence,2_10_0,NA,NA,completion,5870.786,200287.30000007,200285.244,200301.927,206172.713,206174.30000007,2023-10-22T21:00:35Z,206189.363,Vermutung,udhanifu,s,haramia,tikisho,itifaki,NA,NA,NA,"c(""distractor1"", ""distractor2"", ""distractor3"")",NA,NA,NA,NA,NA,NA,NA,NA,NA,NA,NA,NA,NA,NA,NA,NA,NA,NA,NA
b1722,task,flow.Sequence,2_10,NA,NA,completion,5870.786,200287.20000005,200285.244,200301.927,206172.713,206174.60000002,2023-10-22T21:00:35Z,206189.363,Vermutung,udhanifu,s,haramia,tikisho,itifaki,NA,NA,NA,"c(""distractor1"", ""distractor2"", ""distractor3"")",NA,NA,NA,NA,NA,NA,NA,NA,NA,NA,NA,NA,NA,NA,NA,NA,NA,NA,NA
b1722,Shallow Question,html.Page,2_11_0_0,NA,NA,form submission,6113.637,206174.80000007,206172.713,206189.363,212303,212303.30000007,2023-10-22T21:00:41Z,212310.319,Verpackung,ufungaji,s,uhusiano,upimaji,uchunguzi,ufungaji,NA,NA,"c(""distractor1"", ""distractor2"", ""distractor3"")",NA,NA,NA,NA,NA,NA,NA,NA,NA,NA,NA,NA,NA,NA,NA,NA,NA,NA,NA
b1722,Save data screen,canvas.Screen,2_11_0_1,NA,NA,timeout,500.334,212307.30000007,212293.576,212310.319,212794.241,212795.70000005,2023-10-22T21:00:41Z,212810.653,Verpackung,ufungaji,s,uhusiano,upimaji,uchunguzi,NA,NA,1,"c(""distractor1"", ""distractor2"", ""distractor3"")",NA,NA,NA,NA,NA,NA,NA,NA,NA,NA,NA,NA,NA,NA,NA,NA,NA,NA,NA
b1722,shallow,flow.Sequence,2_11_0,NA,NA,completion,6604.878,206174.80000007,206172.713,206189.363,212794.241,212796.60000002,2023-10-22T21:00:41Z,212810.653,Verpackung,ufungaji,s,uhusiano,upimaji,uchunguzi,NA,NA,NA,"c(""distractor1"", ""distractor2"", ""distractor3"")",NA,NA,NA,NA,NA,NA,NA,NA,NA,NA,NA,NA,NA,NA,NA,NA,NA,NA,NA
b1722,task,flow.Sequence,2_11,NA,NA,completion,6604.878,206174.70000005,206172.713,206189.363,212794.241,212796.70000005,2023-10-22T21:00:41Z,212810.653,Verpackung,ufungaji,s,uhusiano,upimaji,uchunguzi,NA,NA,NA,"c(""distractor1"", ""distractor2"", ""distractor3"")",NA,NA,NA,NA,NA,NA,NA,NA,NA,NA,NA,NA,NA,NA,NA,NA,NA,NA,NA
b1722,Shallow Question,html.Page,2_12_0_0,NA,NA,form submission,7253.5470000477,212796.89999998,212794.241,212810.653,220064.20000005,220064.60000002,2023-10-22T21:00:49Z,220082.308,Ergänzung,kijalizo,d,ulaghai,mustarehe,matangazo,kijalizo,NA,NA,"c(""distractor1"", ""distractor2"", ""distractor3"")",NA,NA,NA,NA,NA,NA,NA,NA,NA,NA,NA,NA,NA,NA,NA,NA,NA,NA,NA
b1722,Save data screen,canvas.Screen,2_12_0_1,NA,NA,timeout,500.61800000002,220070.10000002,220049.34,220082.308,220566.353,220567.5,2023-10-22T21:00:49Z,220582.926,Ergänzung,kijalizo,d,ulaghai,mustarehe,matangazo,NA,NA,1,"c(""distractor1"", ""distractor2"", ""distractor3"")",NA,NA,NA,NA,NA,NA,NA,NA,NA,NA,NA,NA,NA,NA,NA,NA,NA,NA,NA
b1722,shallow,flow.Sequence,2_12_0,NA,NA,completion,7755.7,212796.89999998,212794.241,212810.653,220566.353,220568,2023-10-22T21:00:49Z,220582.926,Ergänzung,kijalizo,d,ulaghai,mustarehe,matangazo,NA,NA,NA,"c(""distractor1"", ""distractor2"", ""distractor3"")",NA,NA,NA,NA,NA,NA,NA,NA,NA,NA,NA,NA,NA,NA,NA,NA,NA,NA,NA
b1722,task,flow.Sequence,2_12,NA,NA,completion,7755.7,212796.80000007,212794.241,212810.653,220566.353,220568.30000007,2023-10-22T21:00:49Z,220582.926,Ergänzung,kijalizo,d,ulaghai,mustarehe,matangazo,NA,NA,NA,"c(""distractor1"", ""distractor2"", ""distractor3"")",NA,NA,NA,NA,NA,NA,NA,NA,NA,NA,NA,NA,NA,NA,NA,NA,NA,NA,NA
b1722,Shallow Question,html.Page,2_13_0_0,NA,NA,form submission,6571.8740000715,220568.5,220566.353,220582.926,227154.80000007,227155.80000007,2023-10-22T21:00:56Z,227170.838,Hoffnung,matarajio,s,kutaalamika,uratibu,mvumbuzi,matarajio,NA,NA,"c(""distractor1"", ""distractor2"", ""distractor3"")",NA,NA,NA,NA,NA,NA,NA,NA,NA,NA,NA,NA,NA,NA,NA,NA,NA,NA,NA
b1722,Save data screen,canvas.Screen,2_13_0_1,NA,NA,timeout,500.05500000002,227160.89999998,227153.865,227170.838,227654.575,227655.80000007,2023-10-22T21:00:56Z,227670.893,Hoffnung,matarajio,s,kutaalamika,uratibu,mvumbuzi,NA,NA,1,"c(""distractor1"", ""distractor2"", ""distractor3"")",NA,NA,NA,NA,NA,NA,NA,NA,NA,NA,NA,NA,NA,NA,NA,NA,NA,NA,NA
b1722,shallow,flow.Sequence,2_13_0,NA,NA,completion,7071.649,220568.5,220566.353,220582.926,227654.575,227656.20000005,2023-10-22T21:00:56Z,227670.893,Hoffnung,matarajio,s,kutaalamika,uratibu,mvumbuzi,NA,NA,NA,"c(""distractor1"", ""distractor2"", ""distractor3"")",NA,NA,NA,NA,NA,NA,NA,NA,NA,NA,NA,NA,NA,NA,NA,NA,NA,NA,NA
b1722,task,flow.Sequence,2_13,NA,NA,completion,7071.649,220568.39999998,220566.353,220582.926,227654.575,227656.39999998,2023-10-22T21:00:56Z,227670.893,Hoffnung,matarajio,s,kutaalamika,uratibu,mvumbuzi,NA,NA,NA,"c(""distractor1"", ""distractor2"", ""distractor3"")",NA,NA,NA,NA,NA,NA,NA,NA,NA,NA,NA,NA,NA,NA,NA,NA,NA,NA,NA
b1722,Shallow Question,html.Page,2_14_0_0,NA,NA,form submission,5643.7070000238,227656.70000005,227654.575,227670.893,233314.60000002,233315.10000002,2023-10-22T21:01:02Z,233324.827,Notfall,dharura,s,rairai,malalamiko,ahueni,dharura,NA,NA,"c(""distractor1"", ""distractor2"", ""distractor3"")",NA,NA,NA,NA,NA,NA,NA,NA,NA,NA,NA,NA,NA,NA,NA,NA,NA,NA,NA
b1722,Save data screen,canvas.Screen,2_14_0_1,NA,NA,timeout,500.72500000001,233319.10000002,233308.157,233324.827,233808.546,233809.70000005,2023-10-22T21:01:02Z,233825.552,Notfall,dharura,s,rairai,malalamiko,ahueni,NA,NA,1,"c(""distractor1"", ""distractor2"", ""distractor3"")",NA,NA,NA,NA,NA,NA,NA,NA,NA,NA,NA,NA,NA,NA,NA,NA,NA,NA,NA
b1722,shallow,flow.Sequence,2_14_0,NA,NA,completion,6137.653,227656.70000005,227654.575,227670.893,233808.546,233810.20000005,2023-10-22T21:01:02Z,233825.552,Notfall,dharura,s,rairai,malalamiko,ahueni,NA,NA,NA,"c(""distractor1"", ""distractor2"", ""distractor3"")",NA,NA,NA,NA,NA,NA,NA,NA,NA,NA,NA,NA,NA,NA,NA,NA,NA,NA,NA
b1722,task,flow.Sequence,2_14,NA,NA,completion,6137.653,227656.70000005,227654.575,227670.893,233808.546,233810.5,2023-10-22T21:01:02Z,233825.552,Notfall,dharura,s,rairai,malalamiko,ahueni,NA,NA,NA,"c(""distractor1"", ""distractor2"", ""distractor3"")",NA,NA,NA,NA,NA,NA,NA,NA,NA,NA,NA,NA,NA,NA,NA,NA,NA,NA,NA
b1722,Shallow Question,html.Page,2_15_0_0,NA,NA,form submission,10778.148000048,233810.80000007,233808.546,233825.552,244603.70000005,244604.20000005,2023-10-22T21:01:13Z,244616.115,Toleranz,kuvumiliana,d,maombolezo,ujasusi,mchekeshaji,maombolezo,NA,NA,"c(""distractor1"", ""distractor2"", ""distractor3"")",NA,NA,NA,NA,NA,NA,NA,NA,NA,NA,NA,NA,NA,NA,NA,NA,NA,NA,NA
b1722,Save data screen,canvas.Screen,2_15_0_1,NA,NA,timeout,500.20300000001,244609.60000002,244599.282,244616.115,245099.939,245101.5,2023-10-22T21:01:14Z,245116.318,Toleranz,kuvumiliana,d,maombolezo,ujasusi,mchekeshaji,NA,NA,0,"c(""distractor1"", ""distractor2"", ""distractor3"")",NA,NA,NA,NA,NA,NA,NA,NA,NA,NA,NA,NA,NA,NA,NA,NA,NA,NA,NA
b1722,shallow,flow.Sequence,2_15_0,NA,NA,completion,11274.387,233810.70000005,233808.546,233825.552,245099.939,245102.5,2023-10-22T21:01:14Z,245116.318,Toleranz,kuvumiliana,d,maombolezo,ujasusi,mchekeshaji,NA,NA,NA,"c(""distractor1"", ""distractor2"", ""distractor3"")",NA,NA,NA,NA,NA,NA,NA,NA,NA,NA,NA,NA,NA,NA,NA,NA,NA,NA,NA
b1722,task,flow.Sequence,2_15,NA,NA,completion,11274.387,233810.70000005,233808.546,233825.552,245099.939,245102.89999998,2023-10-22T21:01:14Z,245116.318,Toleranz,kuvumiliana,d,maombolezo,ujasusi,mchekeshaji,NA,NA,NA,"c(""distractor1"", ""distractor2"", ""distractor3"")",NA,NA,NA,NA,NA,NA,NA,NA,NA,NA,NA,NA,NA,NA,NA,NA,NA,NA,NA
b1722,retrieval block 2 (multiple choice),flow.Loop,2,NA,NA,completion,132291.928,112794.70000005,112791.624,112808.011,245099.939,245103.20000005,2023-10-22T21:01:14Z,245116.318,NA,NA,NA,NA,NA,NA,NA,NA,NA,"c(""distractor1"", ""distractor2"", ""distractor3"")",NA,NA,NA,NA,NA,NA,NA,NA,NA,NA,NA,NA,NA,NA,NA,NA,NA,NA,NA
b1722,End,canvas.Screen,3,NA,keypress(Space),response,2104.2820000238,245103.30000007,245099.939,245116.318,247220.60000002,247223.20000005,2023-10-22T21:01:16Z,247234.782,NA,NA,NA,NA,NA,NA,NA,NA,NA,NULL,NA,NA,NA,NA,NA,NA,NA,NA,NA,NA,NA,NA,NA,NA,NA,NA,NA,NA,NA
b1722,root,flow.Sequence,NA,NA,NA,completion,246240.20500002,949.89999997616,963.659,980.395,247220.60000002,247223.89999998,2023-10-22T21:01:16Z,247234.782,NA,NA,NA,NA,NA,NA,NA,NA,NA,NULL,NA,NA,NA,NA,NA,NA,NA,NA,NA,NA,NA,NA,NA,NA,NA,NA,NA,NA,NA
