observation;sender;sender_type;sender_id;response;response_action;ended_on;duration;time_run;time_render;time_show;time_end;time_commit;timestamp;time_switch;distractors;german;swahili;enc;distractor1;distractor2;distractor3;response_2;x;correct;x_2;url_vp;url_sess;meta_labjs_version;meta_location;meta_user_agent;meta_platform;meta_language;meta_locale;meta_time_zone;meta_timezone_offset;meta_screen_width;meta_screen_height;meta_scroll_width;meta_scroll_height;meta_window_inner_width;meta_window_inner_height;meta_device_pixel_ratio;meta_labjs_build_flavor;meta_labjs_build_commit;;;;
a247c;Introduction;general;canvas.Screen;0;weiter;keypress(q);response;59121.56;717;728.68;745.44;59867;59887;2023-05-07T09:27:09Z;59891.86;NULL;NA;NA;NA;NA;NA;NA;NA;NA;NA;NA;170;1;20.02.2004;https://neurocog.fernuni.ch/studies/vweber/sliechti/encoding_immediate/index.html?vp=170&sess=1;Mozilla/5.0;(Windows;NT;10;;;;;;;;;;;;;;
a247c;Introduction;practice;canvas.Screen;1_0;NA;keypress(Space);response;11600.14;59891;59891.26;59891.86;71492;71503;2023-05-07T09:27:21Z;71505.94;NULL;NA;NA;NA;NA;NA;NA;NA;NA;NA;NA;NA;NA;NA;NA;NA;NA;NA;NA;NA;NA;NA;NA;NA;NA;NA;NA;NA;NA;NA;;;
a247c;Deep;Question;html.Page;1_1_0_0_0;NA;NA;form;submission;8109.06;71504;71505.56;71505.94;79615;79615;2023-05-07T09:27:29Z;79618.62;"c(""distractor1"", ""distractor2"", ""distractor3"")";Gesundheit;salama;d;NA;NA;NA;health;NA;NA;NA;NA;NA;NA;NA;NA;NA;NA;NA;NA;NA;NA;NA;NA;NA;NA;NA;NA;NA;NA;;
a247c;"""Richtig""-Screen";canvas.Screen;1_1_0_0_1;NA;NA;skipped;NA;79619;NA;NA;79615;79619;2023-05-07T09:27:29Z;79618.62;"c(""distractor1"", ""distractor2"", ""distractor3"")";Gesundheit;salama;d;NA;NA;NA;NA;NA;NA;NA;NA;NA;NA;NA;NA;NA;NA;NA;NA;NA;NA;NA;NA;NA;NA;NA;NA;NA;NA;;;;
a247c;"""Falsch""-Screen";canvas.Screen;1_1_0_0_2;NA;NA;timeout;4999.36;79622;79605.54;79618.62;84601.46;84604;2023-05-07T09:27:34Z;84617.98;"c(""distractor1"", ""distractor2"", ""distractor3"")";Gesundheit;salama;d;NA;NA;NA;NA;NA;0;NA;NA;NA;NA;NA;NA;NA;NA;NA;NA;NA;NA;NA;NA;NA;NA;NA;NA;NA;NA;;;;
a247c;deep;flow.Sequence;1_1_0_0;NA;NA;completion;13095.52;71504;71505.56;71505.94;84601.46;84604;2023-05-07T09:27:34Z;84617.98;"c(""distractor1"", ""distractor2"", ""distractor3"")";Gesundheit;salama;d;NA;NA;NA;NA;NA;NA;NA;NA;NA;NA;NA;NA;NA;NA;NA;NA;NA;NA;NA;NA;NA;NA;NA;NA;NA;NA;;;;
a247c;shallow;flow.Sequence;1_1_0_1;NA;NA;skipped;NA;84605;NA;NA;84601.46;84606;2023-05-07T09:27:34Z;84617.98;"c(""distractor1"", ""distractor2"", ""distractor3"")";Gesundheit;salama;d;NA;NA;NA;NA;NA;NA;NA;NA;NA;NA;NA;NA;NA;NA;NA;NA;NA;NA;NA;NA;NA;NA;NA;NA;NA;NA;;;;
a247c;task;flow.Sequence;1_1_0;NA;NA;completion;13095.52;71504;71505.56;71505.94;84601.46;84606;2023-05-07T09:27:34Z;84617.98;"c(""distractor1"", ""distractor2"", ""distractor3"")";Gesundheit;salama;d;NA;NA;NA;NA;NA;NA;NA;NA;NA;NA;NA;NA;NA;NA;NA;NA;NA;NA;NA;NA;NA;NA;NA;NA;NA;NA;;;;
a247c;Deep;Question;html.Page;1_1_1_0_0;NA;NA;form;submission;9787.02;84607;84601.46;84617.98;94405;94406;2023-05-07T09:27:44Z;94416.84;"c(""distractor1"", ""distractor2"", ""distractor3"")";Qualität;mtindo;d;NA;NA;NA;sfdg;NA;NA;NA;NA;NA;NA;NA;NA;NA;NA;NA;NA;NA;NA;NA;NA;NA;NA;NA;NA;NA;NA;;
a247c;"""Richtig""-Screen";canvas.Screen;1_1_1_0_1;NA;NA;skipped;NA;94411;NA;NA;94405;94411;2023-05-07T09:27:44Z;94416.84;"c(""distractor1"", ""distractor2"", ""distractor3"")";Qualität;mtindo;d;NA;NA;NA;NA;NA;NA;NA;NA;NA;NA;NA;NA;NA;NA;NA;NA;NA;NA;NA;NA;NA;NA;NA;NA;NA;NA;;;;
a247c;"""Falsch""-Screen";canvas.Screen;1_1_1_0_2;NA;NA;timeout;4999.26;94414;94400.48;94416.84;99399.62;99402;2023-05-07T09:27:49Z;99416.1;"c(""distractor1"", ""distractor2"", ""distractor3"")";Qualität;mtindo;d;NA;NA;NA;NA;NA;0;NA;NA;NA;NA;NA;NA;NA;NA;NA;NA;NA;NA;NA;NA;NA;NA;NA;NA;NA;NA;;;;
a247c;deep;flow.Sequence;1_1_1_0;NA;NA;completion;14781.64;84607;84601.46;84617.98;99399.62;99403;2023-05-07T09:27:49Z;99416.1;"c(""distractor1"", ""distractor2"", ""distractor3"")";Qualität;mtindo;d;NA;NA;NA;NA;NA;NA;NA;NA;NA;NA;NA;NA;NA;NA;NA;NA;NA;NA;NA;NA;NA;NA;NA;NA;NA;NA;;;;
a247c;shallow;flow.Sequence;1_1_1_1;NA;NA;skipped;NA;99404;NA;NA;99399.62;99404;2023-05-07T09:27:49Z;99416.1;"c(""distractor1"", ""distractor2"", ""distractor3"")";Qualität;mtindo;d;NA;NA;NA;NA;NA;NA;NA;NA;NA;NA;NA;NA;NA;NA;NA;NA;NA;NA;NA;NA;NA;NA;NA;NA;NA;NA;;;;
a247c;task;flow.Sequence;1_1_1;NA;NA;completion;14781.64;84607;84601.46;84617.98;99399.62;99405;2023-05-07T09:27:49Z;99416.1;"c(""distractor1"", ""distractor2"", ""distractor3"")";Qualität;mtindo;d;NA;NA;NA;NA;NA;NA;NA;NA;NA;NA;NA;NA;NA;NA;NA;NA;NA;NA;NA;NA;NA;NA;NA;NA;NA;NA;;;;
a247c;Deep;Question;html.Page;1_1_2_0_0;NA;NA;form;submission;6669.9;99406;99399.62;99416.1;106086;106087;2023-05-07T09:27:55Z;106098.7;"c(""distractor1"", ""distractor2"", ""distractor3"")";Schatten;kivuli;d;NA;NA;NA;sfs;NA;NA;NA;NA;NA;NA;NA;NA;NA;NA;NA;NA;NA;NA;NA;NA;NA;NA;NA;NA;NA;NA;;
a247c;"""Richtig""-Screen";canvas.Screen;1_1_2_0_1;NA;NA;skipped;NA;106092;NA;NA;106086;106093;2023-05-07T09:27:55Z;106098.7;"c(""distractor1"", ""distractor2"", ""distractor3"")";Schatten;kivuli;d;NA;NA;NA;NA;NA;NA;NA;NA;NA;NA;NA;NA;NA;NA;NA;NA;NA;NA;NA;NA;NA;NA;NA;NA;NA;NA;;;;
a247c;"""Falsch""-Screen";canvas.Screen;1_1_2_0_2;NA;NA;timeout;4999.46;106098;106077.82;106098.7;111081.74;111084;2023-05-07T09:28:00Z;111098.16;"c(""distractor1"", ""distractor2"", ""distractor3"")";Schatten;kivuli;d;NA;NA;NA;NA;NA;0;NA;NA;NA;NA;NA;NA;NA;NA;NA;NA;NA;NA;NA;NA;NA;NA;NA;NA;NA;NA;;;;
a247c;deep;flow.Sequence;1_1_2_0;NA;NA;completion;11665.64;99406;99399.62;99416.1;111081.74;111084;2023-05-07T09:28:00Z;111098.16;"c(""distractor1"", ""distractor2"", ""distractor3"")";Schatten;kivuli;d;NA;NA;NA;NA;NA;NA;NA;NA;NA;NA;NA;NA;NA;NA;NA;NA;NA;NA;NA;NA;NA;NA;NA;NA;NA;NA;;;;
a247c;shallow;flow.Sequence;1_1_2_1;NA;NA;skipped;NA;111084;NA;NA;111081.74;111085;2023-05-07T09:28:00Z;111098.16;"c(""distractor1"", ""distractor2"", ""distractor3"")";Schatten;kivuli;d;NA;NA;NA;NA;NA;NA;NA;NA;NA;NA;NA;NA;NA;NA;NA;NA;NA;NA;NA;NA;NA;NA;NA;NA;NA;NA;;;;
a247c;task;flow.Sequence;1_1_2;NA;NA;completion;11665.64;99405;99399.62;99416.1;111081.74;111086;2023-05-07T09:28:00Z;111098.16;"c(""distractor1"", ""distractor2"", ""distractor3"")";Schatten;kivuli;d;NA;NA;NA;NA;NA;NA;NA;NA;NA;NA;NA;NA;NA;NA;NA;NA;NA;NA;NA;NA;NA;NA;NA;NA;NA;NA;;;;
a247c;deep;flow.Sequence;1_1_3_0;NA;NA;skipped;NA;111086;NA;NA;111081.74;111086;2023-05-07T09:28:00Z;111098.16;"c(""distractor1"", ""distractor2"", ""distractor3"")";Gegenwart;hadhara;s;katiba;jokofu;mikopo;NA;NA;NA;NA;NA;NA;NA;NA;NA;NA;NA;NA;NA;NA;NA;NA;NA;NA;NA;NA;NA;NA;NA;;;;
a247c;Shallow;Question;html.Page;1_1_3_1_0;NA;NA;form;submission;11052.84;111089;111081.74;111098.16;122151;122152;2023-05-07T09:28:11Z;122163.32;"c(""distractor1"", ""distractor2"", ""distractor3"")";Gegenwart;hadhara;s;katiba;jokofu;mikopo;katiba;NA;NA;NA;NA;NA;NA;NA;NA;NA;NA;NA;NA;NA;NA;NA;NA;NA;NA;NA;NA;NA;NA;;
a247c;"""Richtig""-Screen";canvas.Screen;1_1_3_1_1;NA;NA;skipped;NA;122154;NA;NA;122151;122154;2023-05-07T09:28:11Z;122163.32;"c(""distractor1"", ""distractor2"", ""distractor3"")";Gegenwart;hadhara;s;katiba;jokofu;mikopo;NA;NA;NA;NA;NA;NA;NA;NA;NA;NA;NA;NA;NA;NA;NA;NA;NA;NA;NA;NA;NA;NA;NA;;;;
a247c;"""Falsch""-Screen";canvas.Screen;1_1_3_1_2;NA;NA;timeout;4999.42;122155;122150.38;122163.32;127146.2;127147;2023-05-07T09:28:16Z;127162.74;"c(""distractor1"", ""distractor2"", ""distractor3"")";Gegenwart;hadhara;s;katiba;jokofu;mikopo;NA;NA;0;NA;NA;NA;NA;NA;NA;NA;NA;NA;NA;NA;NA;NA;NA;NA;NA;NA;NA;NA;NA;;;;
a247c;shallow;flow.Sequence;1_1_3_1;NA;NA;completion;16048.04;111089;111081.74;111098.16;127146.2;127148;2023-05-07T09:28:16Z;127162.74;"c(""distractor1"", ""distractor2"", ""distractor3"")";Gegenwart;hadhara;s;katiba;jokofu;mikopo;NA;NA;NA;NA;NA;NA;NA;NA;NA;NA;NA;NA;NA;NA;NA;NA;NA;NA;NA;NA;NA;NA;NA;;;;
a247c;task;flow.Sequence;1_1_3;NA;NA;completion;16048.04;111086;111081.74;111098.16;127146.2;127149;2023-05-07T09:28:16Z;127162.74;"c(""distractor1"", ""distractor2"", ""distractor3"")";Gegenwart;hadhara;s;katiba;jokofu;mikopo;NA;NA;NA;NA;NA;NA;NA;NA;NA;NA;NA;NA;NA;NA;NA;NA;NA;NA;NA;NA;NA;NA;NA;;;;
a247c;deep;flow.Sequence;1_1_4_0;NA;NA;skipped;NA;127150;NA;NA;127146.2;127150;2023-05-07T09:28:16Z;127162.74;"c(""distractor1"", ""distractor2"", ""distractor3"")";Kritik;lawama;s;dereva;nafasi;mawazo;NA;NA;NA;NA;NA;NA;NA;NA;NA;NA;NA;NA;NA;NA;NA;NA;NA;NA;NA;NA;NA;NA;NA;;;;
a247c;Shallow;Question;html.Page;1_1_4_1_0;NA;NA;form;submission;8089.26;127150;127146.2;127162.74;135252;135253;2023-05-07T09:28:24Z;135261.66;"c(""distractor1"", ""distractor2"", ""distractor3"")";Kritik;lawama;s;dereva;nafasi;mawazo;nafasi;NA;NA;NA;NA;NA;NA;NA;NA;NA;NA;NA;NA;NA;NA;NA;NA;NA;NA;NA;NA;NA;NA;;
a247c;"""Richtig""-Screen";canvas.Screen;1_1_4_1_1;NA;NA;skipped;NA;135257;NA;NA;135252;135257;2023-05-07T09:28:24Z;135261.66;"c(""distractor1"", ""distractor2"", ""distractor3"")";Kritik;lawama;s;dereva;nafasi;mawazo;NA;NA;NA;NA;NA;NA;NA;NA;NA;NA;NA;NA;NA;NA;NA;NA;NA;NA;NA;NA;NA;NA;NA;;;;
a247c;"""Falsch""-Screen";canvas.Screen;1_1_4_1_2;NA;NA;timeout;4999.34;135260;135249.3;135261.66;140244.48;140247;2023-05-07T09:28:29Z;140261;"c(""distractor1"", ""distractor2"", ""distractor3"")";Kritik;lawama;s;dereva;nafasi;mawazo;NA;NA;0;NA;NA;NA;NA;NA;NA;NA;NA;NA;NA;NA;NA;NA;NA;NA;NA;NA;NA;NA;NA;;;;
a247c;shallow;flow.Sequence;1_1_4_1;NA;NA;completion;13081.74;127150;127146.2;127162.74;140244.48;140248;2023-05-07T09:28:29Z;140261;"c(""distractor1"", ""distractor2"", ""distractor3"")";Kritik;lawama;s;dereva;nafasi;mawazo;NA;NA;NA;NA;NA;NA;NA;NA;NA;NA;NA;NA;NA;NA;NA;NA;NA;NA;NA;NA;NA;NA;NA;;;;
a247c;task;flow.Sequence;1_1_4;NA;NA;completion;13081.74;127150;127146.2;127162.74;140244.48;140248;2023-05-07T09:28:29Z;140261;"c(""distractor1"", ""distractor2"", ""distractor3"")";Kritik;lawama;s;dereva;nafasi;mawazo;NA;NA;NA;NA;NA;NA;NA;NA;NA;NA;NA;NA;NA;NA;NA;NA;NA;NA;NA;NA;NA;NA;NA;;;;
a247c;deep;flow.Sequence;1_1_5_0;NA;NA;skipped;NA;140249;NA;NA;140244.48;140249;2023-05-07T09:28:29Z;140261;"c(""distractor1"", ""distractor2"", ""distractor3"")";Rückhalt;msaada;s;muhula;auwali;kiwimbe;NA;NA;NA;NA;NA;NA;NA;NA;NA;NA;NA;NA;NA;NA;NA;NA;NA;NA;NA;NA;NA;NA;NA;;;;
a247c;Shallow;Question;html.Page;1_1_5_1_0;NA;NA;form;submission;9808;140250;140244.48;140261;150069;150069;2023-05-07T09:28:39Z;150076.44;"c(""distractor1"", ""distractor2"", ""distractor3"")";Rückhalt;msaada;s;muhula;auwali;kiwimbe;muhula;NA;NA;NA;NA;NA;NA;NA;NA;NA;NA;NA;NA;NA;NA;NA;NA;NA;NA;NA;NA;NA;NA;;
a247c;"""Richtig""-Screen";canvas.Screen;1_1_5_1_1;NA;NA;skipped;NA;150071;NA;NA;150069;150071;2023-05-07T09:28:39Z;150076.44;"c(""distractor1"", ""distractor2"", ""distractor3"")";Rückhalt;msaada;s;muhula;auwali;kiwimbe;NA;NA;NA;NA;NA;NA;NA;NA;NA;NA;NA;NA;NA;NA;NA;NA;NA;NA;NA;NA;NA;NA;NA;;;;
a247c;"""Falsch""-Screen";canvas.Screen;1_1_5_1_2;NA;NA;timeout;4999.38;150073;150066.38;150076.44;155059.24;155061;2023-05-07T09:28:44Z;155075.82;"c(""distractor1"", ""distractor2"", ""distractor3"")";Rückhalt;msaada;s;muhula;auwali;kiwimbe;NA;NA;0;NA;NA;NA;NA;NA;NA;NA;NA;NA;NA;NA;NA;NA;NA;NA;NA;NA;NA;NA;NA;;;;
a247c;shallow;flow.Sequence;1_1_5_1;NA;NA;completion;14798.24;140249;140244.48;140261;155059.24;155062;2023-05-07T09:28:44Z;155075.82;"c(""distractor1"", ""distractor2"", ""distractor3"")";Rückhalt;msaada;s;muhula;auwali;kiwimbe;NA;NA;NA;NA;NA;NA;NA;NA;NA;NA;NA;NA;NA;NA;NA;NA;NA;NA;NA;NA;NA;NA;NA;;;;
a247c;task;flow.Sequence;1_1_5;NA;NA;completion;14798.24;140249;140244.48;140261;155059.24;155063;2023-05-07T09:28:44Z;155075.82;"c(""distractor1"", ""distractor2"", ""distractor3"")";Rückhalt;msaada;s;muhula;auwali;kiwimbe;NA;NA;NA;NA;NA;NA;NA;NA;NA;NA;NA;NA;NA;NA;NA;NA;NA;NA;NA;NA;NA;NA;NA;;;;
a247c;block;flow.Loop;1_1;NA;NA;completion;83553.3;71504;71505.56;71505.94;155059.24;155063;2023-05-07T09:28:44Z;155075.82;"c(""distractor1"", ""distractor2"", ""distractor3"")";NA;NA;NA;NA;NA;NA;NA;NA;NA;NA;NA;NA;NA;NA;NA;NA;NA;NA;NA;NA;NA;NA;NA;NA;NA;NA;NA;NA;NA;;;;
a247c;Practice;flow.Sequence;1;NA;NA;completion;95167.38;59890;59891.26;59891.86;155059.24;155064;2023-05-07T09:28:44Z;155075.82;NULL;NA;NA;NA;NA;NA;NA;NA;NA;NA;NA;NA;NA;NA;NA;NA;NA;NA;NA;NA;NA;NA;NA;NA;NA;NA;NA;NA;NA;NA;;;;
a247c;Experiment;start;canvas.Screen;2;weiter;keypress(q);response;16759.18;155064;155059.24;155075.82;171835;171851;2023-05-07T09:29:01Z;171956.9;NULL;NA;NA;NA;NA;NA;NA;NA;NA;NA;NA;NA;NA;NA;NA;NA;NA;NA;NA;NA;NA;NA;NA;NA;NA;NA;NA;NA;NA;NA;;;
a247c;deep;flow.Sequence;3_0_0_0_0_0;NA;NA;skipped;NA;171956;NA;NA;171835;171956;2023-05-07T09:29:01Z;171956.9;NULL;Betrüger;mdanganyifu;s;mwanamuziki;wastani;mahakama;NA;sdf;NA;0;NA;NA;NA;NA;NA;NA;NA;NA;NA;NA;NA;NA;NA;NA;NA;NA;NA;NA;NA;;;;
a247c;Shallow;Question;html.Page;3_0_0_0_0_1_0;NA;NA;form;submission;8350.1;171956;171955.94;171956.9;180307;180308;2023-05-07T09:29:10Z;180306.1;NULL;Betrüger;mdanganyifu;s;mwanamuziki;wastani;mahakama;wastani;NA;NA;0;NA;NA;NA;NA;NA;NA;NA;NA;NA;NA;NA;NA;NA;NA;NA;NA;NA;NA;NA;;
a247c;"""Richtig""-Screen";canvas.Screen;3_0_0_0_0_1_1;NA;NA;skipped;NA;180312;NA;NA;180307;180312;2023-05-07T09:29:10Z;180306.1;NULL;Betrüger;mdanganyifu;s;mwanamuziki;wastani;mahakama;NA;sdf;NA;0;NA;NA;NA;NA;NA;NA;NA;NA;NA;NA;NA;NA;NA;NA;NA;NA;NA;NA;NA;;;;
a247c;"""Falsch""-Screen";canvas.Screen;3_0_0_0_0_1_2;NA;NA;timeout;4999.18;180315;180302.74;180306.1;185288.8;185290;2023-05-07T09:29:14Z;185305.28;NULL;Betrüger;mdanganyifu;s;mwanamuziki;wastani;mahakama;NA;sdf;0;0;NA;NA;NA;NA;NA;NA;NA;NA;NA;NA;NA;NA;NA;NA;NA;NA;NA;NA;NA;;;;
a247c;shallow;flow.Sequence;3_0_0_0_0_1;NA;NA;completion;13331.9;171956;171955.94;171956.9;185288.8;185291;2023-05-07T09:29:14Z;185305.28;NULL;Betrüger;mdanganyifu;s;mwanamuziki;wastani;mahakama;NA;sdf;NA;0;NA;NA;NA;NA;NA;NA;NA;NA;NA;NA;NA;NA;NA;NA;NA;NA;NA;NA;NA;;;;
a247c;task;flow.Sequence;3_0_0_0_0;NA;NA;completion;13331.9;171956;171955.94;171956.9;185288.8;185292;2023-05-07T09:29:14Z;185305.28;NULL;Betrüger;mdanganyifu;s;mwanamuziki;wastani;mahakama;NA;sdf;NA;0;NA;NA;NA;NA;NA;NA;NA;NA;NA;NA;NA;NA;NA;NA;NA;NA;NA;NA;NA;;;;
a247c;Deep;Question;html.Page;3_0_0_0_1_0_0;NA;NA;form;submission;6312.72;185292;185288.8;185305.28;191618;191619;2023-05-07T09:29:21Z;191621.18;NULL;Respekt;heshima;d;NA;NA;NA;dgg;NA;NA;0;NA;NA;NA;NA;NA;NA;NA;NA;NA;NA;NA;NA;NA;NA;NA;NA;NA;NA;NA;;
a247c;"""Richtig""-Screen";canvas.Screen;3_0_0_0_1_0_1;NA;NA;skipped;NA;191620;NA;NA;191618;191621;2023-05-07T09:29:21Z;191621.18;NULL;Respekt;heshima;d;NA;NA;NA;NA;sdf;NA;0;NA;NA;NA;NA;NA;NA;NA;NA;NA;NA;NA;NA;NA;NA;NA;NA;NA;NA;NA;;;;
a247c;"""Falsch""-Screen";canvas.Screen;3_0_0_0_1_0_2;NA;NA;timeout;4999.42;191621;191617.16;191621.18;196604.02;196609;2023-05-07T09:29:26Z;196620.6;NULL;Respekt;heshima;d;NA;NA;NA;NA;sdf;0;0;NA;NA;NA;NA;NA;NA;NA;NA;NA;NA;NA;NA;NA;NA;NA;NA;NA;NA;NA;;;;
a247c;deep;flow.Sequence;3_0_0_0_1_0;NA;NA;completion;11298.74;185292;185288.8;185305.28;196604.02;196613;2023-05-07T09:29:26Z;196620.6;NULL;Respekt;heshima;d;NA;NA;NA;NA;sdf;NA;0;NA;NA;NA;NA;NA;NA;NA;NA;NA;NA;NA;NA;NA;NA;NA;NA;NA;NA;NA;;;;
a247c;shallow;flow.Sequence;3_0_0_0_1_1;NA;NA;skipped;NA;196615;NA;NA;196604.02;196616;2023-05-07T09:29:26Z;196620.6;NULL;Respekt;heshima;d;NA;NA;NA;NA;sdf;NA;0;NA;NA;NA;NA;NA;NA;NA;NA;NA;NA;NA;NA;NA;NA;NA;NA;NA;NA;NA;;;;
a247c;task;flow.Sequence;3_0_0_0_1;NA;NA;completion;11298.74;185292;185288.8;185305.28;196604.02;196617;2023-05-07T09:29:26Z;196620.6;NULL;Respekt;heshima;d;NA;NA;NA;NA;sdf;NA;0;NA;NA;NA;NA;NA;NA;NA;NA;NA;NA;NA;NA;NA;NA;NA;NA;NA;NA;NA;;;;
a247c;Deep;Question;html.Page;3_0_0_0_2_0_0;NA;NA;form;submission;9391.4;196619;196604.02;196620.6;206012;206013;2023-05-07T09:29:35Z;206019.46;NULL;Orientierung;urekebisho;d;NA;NA;NA;ffe;NA;NA;0;NA;NA;NA;NA;NA;NA;NA;NA;NA;NA;NA;NA;NA;NA;NA;NA;NA;NA;NA;;
a247c;"""Richtig""-Screen";canvas.Screen;3_0_0_0_2_0_1;NA;NA;skipped;NA;206025;NA;NA;206012;206025;2023-05-07T09:29:35Z;206019.46;NULL;Orientierung;urekebisho;d;NA;NA;NA;NA;sdf;NA;0;NA;NA;NA;NA;NA;NA;NA;NA;NA;NA;NA;NA;NA;NA;NA;NA;NA;NA;NA;;;;
a247c;"""Falsch""-Screen";canvas.Screen;3_0_0_0_2_0_2;NA;NA;timeout;4999.3;206030;206003.52;206019.46;211002.12;211004;2023-05-07T09:29:40Z;211018.76;NULL;Orientierung;urekebisho;d;NA;NA;NA;NA;sdf;0;0;NA;NA;NA;NA;NA;NA;NA;NA;NA;NA;NA;NA;NA;NA;NA;NA;NA;NA;NA;;;;
a247c;deep;flow.Sequence;3_0_0_0_2_0;NA;NA;completion;14381.52;196618;196604.02;196620.6;211002.12;211005;2023-05-07T09:29:40Z;211018.76;NULL;Orientierung;urekebisho;d;NA;NA;NA;NA;sdf;NA;0;NA;NA;NA;NA;NA;NA;NA;NA;NA;NA;NA;NA;NA;NA;NA;NA;NA;NA;NA;;;;
a247c;shallow;flow.Sequence;3_0_0_0_2_1;NA;NA;skipped;NA;211006;NA;NA;211002.12;211006;2023-05-07T09:29:40Z;211018.76;NULL;Orientierung;urekebisho;d;NA;NA;NA;NA;sdf;NA;0;NA;NA;NA;NA;NA;NA;NA;NA;NA;NA;NA;NA;NA;NA;NA;NA;NA;NA;NA;;;;
a247c;task;flow.Sequence;3_0_0_0_2;NA;NA;completion;14381.52;196618;196604.02;196620.6;211002.12;211007;2023-05-07T09:29:40Z;211018.76;NULL;Orientierung;urekebisho;d;NA;NA;NA;NA;sdf;NA;0;NA;NA;NA;NA;NA;NA;NA;NA;NA;NA;NA;NA;NA;NA;NA;NA;NA;NA;NA;;;;
a247c;deep;flow.Sequence;3_0_0_0_3_0;NA;NA;skipped;NA;211009;NA;NA;211002.12;211010;2023-05-07T09:29:40Z;211018.76;NULL;Stimmung;kinyongo;s;kilekile;kisambo;madhehebu;NA;sdf;NA;0;NA;NA;NA;NA;NA;NA;NA;NA;NA;NA;NA;NA;NA;NA;NA;NA;NA;NA;NA;;;;
a247c;Shallow;Question;html.Page;3_0_0_0_3_1_0;NA;NA;form;submission;7004.24;211011;211002.12;211018.76;218023;218024;2023-05-07T09:29:47Z;218034.52;NULL;Stimmung;kinyongo;s;kilekile;kisambo;madhehebu;kilekile;NA;NA;0;NA;NA;NA;NA;NA;NA;NA;NA;NA;NA;NA;NA;NA;NA;NA;NA;NA;NA;NA;;
a247c;"""Richtig""-Screen";canvas.Screen;3_0_0_0_3_1_1;NA;NA;skipped;NA;218027;NA;NA;218023;218028;2023-05-07T09:29:47Z;218034.52;NULL;Stimmung;kinyongo;s;kilekile;kisambo;madhehebu;NA;sdf;NA;0;NA;NA;NA;NA;NA;NA;NA;NA;NA;NA;NA;NA;NA;NA;NA;NA;NA;NA;NA;;;;
a247c;"""Falsch""-Screen";canvas.Screen;3_0_0_0_3_1_2;NA;NA;timeout;4999.36;218032;218018.38;218034.52;223017.14;223019;2023-05-07T09:29:52Z;223033.88;NULL;Stimmung;kinyongo;s;kilekile;kisambo;madhehebu;NA;sdf;0;0;NA;NA;NA;NA;NA;NA;NA;NA;NA;NA;NA;NA;NA;NA;NA;NA;NA;NA;NA;;;;
a247c;shallow;flow.Sequence;3_0_0_0_3_1;NA;NA;completion;11998.38;211011;211002.12;211018.76;223017.14;223021;2023-05-07T09:29:52Z;223033.88;NULL;Stimmung;kinyongo;s;kilekile;kisambo;madhehebu;NA;sdf;NA;0;NA;NA;NA;NA;NA;NA;NA;NA;NA;NA;NA;NA;NA;NA;NA;NA;NA;NA;NA;;;;
a247c;task;flow.Sequence;3_0_0_0_3;NA;NA;completion;11998.38;211008;211002.12;211018.76;223017.14;223021;2023-05-07T09:29:52Z;223033.88;NULL;Stimmung;kinyongo;s;kilekile;kisambo;madhehebu;NA;sdf;NA;0;NA;NA;NA;NA;NA;NA;NA;NA;NA;NA;NA;NA;NA;NA;NA;NA;NA;NA;NA;;;;
a247c;deep;flow.Sequence;3_0_0_0_4_0;NA;NA;skipped;NA;223022;NA;NA;223017.14;223022;2023-05-07T09:29:52Z;223033.88;NULL;Gefährdung;kuhatarisha;s;uchokozi;udhaifu;makorowezo;NA;sdf;NA;0;NA;NA;NA;NA;NA;NA;NA;NA;NA;NA;NA;NA;NA;NA;NA;NA;NA;NA;NA;;;;
a247c;Shallow;Question;html.Page;3_0_0_0_4_1_0;NA;NA;form;submission;5729.12;223022;223017.14;223033.88;228763;228765;2023-05-07T09:29:58Z;228766.58;NULL;Gefährdung;kuhatarisha;s;uchokozi;udhaifu;makorowezo;udhaifu;NA;NA;0;NA;NA;NA;NA;NA;NA;NA;NA;NA;NA;NA;NA;NA;NA;NA;NA;NA;NA;NA;;
a247c;"""Richtig""-Screen";canvas.Screen;3_0_0_0_4_1_1;NA;NA;skipped;NA;228770;NA;NA;228763;228771;2023-05-07T09:29:58Z;228766.58;NULL;Gefährdung;kuhatarisha;s;uchokozi;udhaifu;makorowezo;NA;sdf;NA;0;NA;NA;NA;NA;NA;NA;NA;NA;NA;NA;NA;NA;NA;NA;NA;NA;NA;NA;NA;;;;
a247c;"""Falsch""-Screen";canvas.Screen;3_0_0_0_4_1_2;NA;NA;timeout;4999.26;228777;228754.98;228766.58;233749.26;233751;2023-05-07T09:30:03Z;233765.84;NULL;Gefährdung;kuhatarisha;s;uchokozi;udhaifu;makorowezo;NA;sdf;0;0;NA;NA;NA;NA;NA;NA;NA;NA;NA;NA;NA;NA;NA;NA;NA;NA;NA;NA;NA;;;;
a247c;shallow;flow.Sequence;3_0_0_0_4_1;NA;NA;completion;10715.38;223022;223017.14;223033.88;233749.26;233752;2023-05-07T09:30:03Z;233765.84;NULL;Gefährdung;kuhatarisha;s;uchokozi;udhaifu;makorowezo;NA;sdf;NA;0;NA;NA;NA;NA;NA;NA;NA;NA;NA;NA;NA;NA;NA;NA;NA;NA;NA;NA;NA;;;;
a247c;task;flow.Sequence;3_0_0_0_4;NA;NA;completion;10715.38;223022;223017.14;223033.88;233749.26;233753;2023-05-07T09:30:03Z;233765.84;NULL;Gefährdung;kuhatarisha;s;uchokozi;udhaifu;makorowezo;NA;sdf;NA;0;NA;NA;NA;NA;NA;NA;NA;NA;NA;NA;NA;NA;NA;NA;NA;NA;NA;NA;NA;;;;
a247c;Deep;Question;html.Page;3_0_0_0_5_0_0;NA;NA;form;submission;7891.16;233753;233749.26;233765.84;241657;241657;2023-05-07T09:30:11Z;241664.76;NULL;Kreativität;ubunifu;d;NA;NA;NA;uguu;NA;NA;0;NA;NA;NA;NA;NA;NA;NA;NA;NA;NA;NA;NA;NA;NA;NA;NA;NA;NA;NA;;
a247c;"""Richtig""-Screen";canvas.Screen;3_0_0_0_5_0_1;NA;NA;skipped;NA;241661;NA;NA;241657;241661;2023-05-07T09:30:11Z;241664.76;NULL;Kreativität;ubunifu;d;NA;NA;NA;NA;sdf;NA;0;NA;NA;NA;NA;NA;NA;NA;NA;NA;NA;NA;NA;NA;NA;NA;NA;NA;NA;NA;;;;
a247c;"""Falsch""-Screen";canvas.Screen;3_0_0_0_5_0_2;NA;NA;timeout;4999.48;241664;241653.86;241664.76;246647.56;246649;2023-05-07T09:30:16Z;246664.24;NULL;Kreativität;ubunifu;d;NA;NA;NA;NA;sdf;0;0;NA;NA;NA;NA;NA;NA;NA;NA;NA;NA;NA;NA;NA;NA;NA;NA;NA;NA;NA;;;;
a247c;deep;flow.Sequence;3_0_0_0_5_0;NA;NA;completion;12881.72;233753;233749.26;233765.84;246647.56;246649;2023-05-07T09:30:16Z;246664.24;NULL;Kreativität;ubunifu;d;NA;NA;NA;NA;sdf;NA;0;NA;NA;NA;NA;NA;NA;NA;NA;NA;NA;NA;NA;NA;NA;NA;NA;NA;NA;NA;;;;
a247c;shallow;flow.Sequence;3_0_0_0_5_1;NA;NA;skipped;NA;246650;NA;NA;246647.56;246650;2023-05-07T09:30:16Z;246664.24;NULL;Kreativität;ubunifu;d;NA;NA;NA;NA;sdf;NA;0;NA;NA;NA;NA;NA;NA;NA;NA;NA;NA;NA;NA;NA;NA;NA;NA;NA;NA;NA;;;;
a247c;task;flow.Sequence;3_0_0_0_5;NA;NA;completion;12881.72;233753;233749.26;233765.84;246647.56;246651;2023-05-07T09:30:16Z;246664.24;NULL;Kreativität;ubunifu;d;NA;NA;NA;NA;sdf;NA;0;NA;NA;NA;NA;NA;NA;NA;NA;NA;NA;NA;NA;NA;NA;NA;NA;NA;NA;NA;;;;
a247c;deep;flow.Sequence;3_0_0_0_6_0;NA;NA;skipped;NA;246651;NA;NA;246647.56;246651;2023-05-07T09:30:16Z;246664.24;NULL;Kontrolle;kudhibiti;s;mbinguni;kufunga;utegemezi;NA;sdf;NA;0;NA;NA;NA;NA;NA;NA;NA;NA;NA;NA;NA;NA;NA;NA;NA;NA;NA;NA;NA;;;;
a247c;Shallow;Question;html.Page;3_0_0_0_6_1_0;NA;NA;form;submission;7998.76;246652;246647.56;246664.24;254663;254669;2023-05-07T09:30:24Z;254679.74;NULL;Kontrolle;kudhibiti;s;mbinguni;kufunga;utegemezi;mbinguni;NA;NA;0;NA;NA;NA;NA;NA;NA;NA;NA;NA;NA;NA;NA;NA;NA;NA;NA;NA;NA;NA;;
a247c;"""Richtig""-Screen";canvas.Screen;3_0_0_0_6_1_1;NA;NA;skipped;NA;254681;NA;NA;254663;254681;2023-05-07T09:30:24Z;254679.74;NULL;Kontrolle;kudhibiti;s;mbinguni;kufunga;utegemezi;NA;sdf;NA;0;NA;NA;NA;NA;NA;NA;NA;NA;NA;NA;NA;NA;NA;NA;NA;NA;NA;NA;NA;;;;
a247c;"""Falsch""-Screen";canvas.Screen;3_0_0_0_6_1_2;NA;NA;timeout;4999.62;254684;254650.66;254679.74;259662.74;259665;2023-05-07T09:30:29Z;259679.36;NULL;Kontrolle;kudhibiti;s;mbinguni;kufunga;utegemezi;NA;sdf;0;0;NA;NA;NA;NA;NA;NA;NA;NA;NA;NA;NA;NA;NA;NA;NA;NA;NA;NA;NA;;;;
a247c;shallow;flow.Sequence;3_0_0_0_6_1;NA;NA;completion;12998.5;246651;246647.56;246664.24;259662.74;259668;2023-05-07T09:30:29Z;259679.36;NULL;Kontrolle;kudhibiti;s;mbinguni;kufunga;utegemezi;NA;sdf;NA;0;NA;NA;NA;NA;NA;NA;NA;NA;NA;NA;NA;NA;NA;NA;NA;NA;NA;NA;NA;;;;
a247c;task;flow.Sequence;3_0_0_0_6;NA;NA;completion;12998.5;246651;246647.56;246664.24;259662.74;259670;2023-05-07T09:30:29Z;259679.36;NULL;Kontrolle;kudhibiti;s;mbinguni;kufunga;utegemezi;NA;sdf;NA;0;NA;NA;NA;NA;NA;NA;NA;NA;NA;NA;NA;NA;NA;NA;NA;NA;NA;NA;NA;;;;
a247c;Deep;Question;html.Page;3_0_0_0_7_0_0;NA;NA;form;submission;5915.64;259673;259662.74;259679.36;265595;265595;2023-05-07T09:30:35Z;265595.14;NULL;Können;unaweza;d;NA;NA;NA;llll;NA;NA;0;NA;NA;NA;NA;NA;NA;NA;NA;NA;NA;NA;NA;NA;NA;NA;NA;NA;NA;NA;;
a247c;"""Richtig""-Screen";canvas.Screen;3_0_0_0_7_0_1;NA;NA;skipped;NA;265598;NA;NA;265595;265598;2023-05-07T09:30:35Z;265595.14;NULL;Können;unaweza;d;NA;NA;NA;NA;sdf;NA;0;NA;NA;NA;NA;NA;NA;NA;NA;NA;NA;NA;NA;NA;NA;NA;NA;NA;NA;NA;;;;
a247c;"""Falsch""-Screen";canvas.Screen;3_0_0_0_7_0_2;NA;NA;timeout;4999.4;265600;265592.52;265595.14;270578.1;270581;2023-05-07T09:30:40Z;270594.54;NULL;Können;unaweza;d;NA;NA;NA;NA;sdf;0;0;NA;NA;NA;NA;NA;NA;NA;NA;NA;NA;NA;NA;NA;NA;NA;NA;NA;NA;NA;;;;
a247c;deep;flow.Sequence;3_0_0_0_7_0;NA;NA;completion;10898.74;259671;259662.74;259679.36;270578.1;270582;2023-05-07T09:30:40Z;270594.54;NULL;Können;unaweza;d;NA;NA;NA;NA;sdf;NA;0;NA;NA;NA;NA;NA;NA;NA;NA;NA;NA;NA;NA;NA;NA;NA;NA;NA;NA;NA;;;;
a247c;shallow;flow.Sequence;3_0_0_0_7_1;NA;NA;skipped;NA;270582;NA;NA;270578.1;270582;2023-05-07T09:30:40Z;270594.54;NULL;Können;unaweza;d;NA;NA;NA;NA;sdf;NA;0;NA;NA;NA;NA;NA;NA;NA;NA;NA;NA;NA;NA;NA;NA;NA;NA;NA;NA;NA;;;;
a247c;task;flow.Sequence;3_0_0_0_7;NA;NA;completion;10898.74;259671;259662.74;259679.36;270578.1;270583;2023-05-07T09:30:40Z;270594.54;NULL;Können;unaweza;d;NA;NA;NA;NA;sdf;NA;0;NA;NA;NA;NA;NA;NA;NA;NA;NA;NA;NA;NA;NA;NA;NA;NA;NA;NA;NA;;;;
a247c;block;flow.Loop;3_0_0_0;NA;NA;completion;98621.2;171956;171955.94;171956.9;270578.1;270585;2023-05-07T09:30:40Z;270594.54;NULL;NA;NA;NA;NA;NA;NA;NA;sdf;NA;0;NA;NA;NA;NA;NA;NA;NA;NA;NA;NA;NA;NA;NA;NA;NA;NA;NA;NA;NA;;;;
a247c;weiter;canvas.Screen;3_0_0_1;sdf;keypress(Space);response;1553.46;270586;270578.1;270594.54;272148;272154;2023-05-07T09:30:41Z;272216.24;NULL;NA;NA;NA;NA;NA;NA;NA;sdf;NA;0;NA;NA;NA;NA;NA;NA;NA;NA;NA;NA;NA;NA;NA;NA;NA;NA;NA;NA;NA;;;;
a247c;check;continue;flow.Sequence;3_0_0;NA;NA;completion;100191.1;171956;171955.94;171956.9;272148;272155;2023-05-07T09:30:41Z;272216.24;NULL;NA;NA;NA;NA;NA;NA;NA;sdf;NA;0;NA;NA;NA;NA;NA;NA;NA;NA;NA;NA;NA;NA;NA;NA;NA;NA;NA;NA;NA;;;
a247c;deep;flow.Sequence;3_0_1_0_0_0;NA;NA;skipped;NA;272216;NA;NA;272148;272216;2023-05-07T09:30:41Z;272216.24;NULL;Stimmung;kinyongo;s;kilekile;kisambo;madhehebu;NA;sdfdsf;NA;1;NA;NA;NA;NA;NA;NA;NA;NA;NA;NA;NA;NA;NA;NA;NA;NA;NA;NA;NA;;;;
a247c;Shallow;Question;html.Page;3_0_1_0_0_1_0;NA;NA;form;submission;7125.76;272216;272215.86;272216.24;279342;279343;2023-05-07T09:30:49Z;279343.56;NULL;Stimmung;kinyongo;s;kilekile;kisambo;madhehebu;kinyongo;NA;NA;1;NA;NA;NA;NA;NA;NA;NA;NA;NA;NA;NA;NA;NA;NA;NA;NA;NA;NA;NA;;
a247c;"""Richtig""-Screen";canvas.Screen;3_0_1_0_0_1_1;NA;NA;timeout;4999.26;279349;279335.28;279343.56;284326.24;284328;2023-05-07T09:30:54Z;284342.82;NULL;Stimmung;kinyongo;s;kilekile;kisambo;madhehebu;NA;sdfdsf;1;1;NA;NA;NA;NA;NA;NA;NA;NA;NA;NA;NA;NA;NA;NA;NA;NA;NA;NA;NA;;;;
a247c;"""Falsch""-Screen";canvas.Screen;3_0_1_0_0_1_2;NA;NA;skipped;NA;284336;NA;NA;284326.24;284336;2023-05-07T09:30:54Z;284342.82;NULL;Stimmung;kinyongo;s;kilekile;kisambo;madhehebu;NA;sdfdsf;NA;1;NA;NA;NA;NA;NA;NA;NA;NA;NA;NA;NA;NA;NA;NA;NA;NA;NA;NA;NA;;;;
a247c;shallow;flow.Sequence;3_0_1_0_0_1;NA;NA;completion;12110;272216;272215.86;272216.24;284326.24;284337;2023-05-07T09:30:54Z;284342.82;NULL;Stimmung;kinyongo;s;kilekile;kisambo;madhehebu;NA;sdfdsf;NA;1;NA;NA;NA;NA;NA;NA;NA;NA;NA;NA;NA;NA;NA;NA;NA;NA;NA;NA;NA;;;;
a247c;task;flow.Sequence;3_0_1_0_0;NA;NA;completion;12110;272216;272215.86;272216.24;284326.24;284337;2023-05-07T09:30:54Z;284342.82;NULL;Stimmung;kinyongo;s;kilekile;kisambo;madhehebu;NA;sdfdsf;NA;1;NA;NA;NA;NA;NA;NA;NA;NA;NA;NA;NA;NA;NA;NA;NA;NA;NA;NA;NA;;;;
a247c;deep;flow.Sequence;3_0_1_0_1_0;NA;NA;skipped;NA;284337;NA;NA;284326.24;284337;2023-05-07T09:30:54Z;284342.82;NULL;Kontrolle;kudhibiti;s;mbinguni;kufunga;utegemezi;NA;sdfdsf;NA;1;NA;NA;NA;NA;NA;NA;NA;NA;NA;NA;NA;NA;NA;NA;NA;NA;NA;NA;NA;;;;
a247c;Shallow;Question;html.Page;3_0_1_0_1_1_0;NA;NA;form;submission;10518.18;284338;284326.24;284342.82;294861;294862;2023-05-07T09:31:04Z;294874.8;NULL;Kontrolle;kudhibiti;s;mbinguni;kufunga;utegemezi;mbinguni;NA;NA;1;NA;NA;NA;NA;NA;NA;NA;NA;NA;NA;NA;NA;NA;NA;NA;NA;NA;NA;NA;;
a247c;"""Richtig""-Screen";canvas.Screen;3_0_1_0_1_1_1;NA;NA;skipped;NA;294872;NA;NA;294861;294873;2023-05-07T09:31:04Z;294874.8;NULL;Kontrolle;kudhibiti;s;mbinguni;kufunga;utegemezi;NA;sdfdsf;NA;1;NA;NA;NA;NA;NA;NA;NA;NA;NA;NA;NA;NA;NA;NA;NA;NA;NA;NA;NA;;;;
a247c;"""Falsch""-Screen";canvas.Screen;3_0_1_0_1_1_2;NA;NA;timeout;4999.38;294880;294855.12;294874.8;299857.56;299859;2023-05-07T09:31:09Z;299874.18;NULL;Kontrolle;kudhibiti;s;mbinguni;kufunga;utegemezi;NA;sdfdsf;0;1;NA;NA;NA;NA;NA;NA;NA;NA;NA;NA;NA;NA;NA;NA;NA;NA;NA;NA;NA;;;;
a247c;shallow;flow.Sequence;3_0_1_0_1_1;NA;NA;completion;15514.74;284337;284326.24;284342.82;299857.56;299861;2023-05-07T09:31:09Z;299874.18;NULL;Kontrolle;kudhibiti;s;mbinguni;kufunga;utegemezi;NA;sdfdsf;NA;1;NA;NA;NA;NA;NA;NA;NA;NA;NA;NA;NA;NA;NA;NA;NA;NA;NA;NA;NA;;;;
a247c;task;flow.Sequence;3_0_1_0_1;NA;NA;completion;15514.74;284337;284326.24;284342.82;299857.56;299861;2023-05-07T09:31:09Z;299874.18;NULL;Kontrolle;kudhibiti;s;mbinguni;kufunga;utegemezi;NA;sdfdsf;NA;1;NA;NA;NA;NA;NA;NA;NA;NA;NA;NA;NA;NA;NA;NA;NA;NA;NA;NA;NA;;;;
a247c;deep;flow.Sequence;3_0_1_0_2_0;NA;NA;skipped;NA;299863;NA;NA;299857.56;299863;2023-05-07T09:31:09Z;299874.18;NULL;Gefährdung;kuhatarisha;s;uchokozi;udhaifu;makorowezo;NA;sdfdsf;NA;1;NA;NA;NA;NA;NA;NA;NA;NA;NA;NA;NA;NA;NA;NA;NA;NA;NA;NA;NA;;;;
a247c;Shallow;Question;html.Page;3_0_1_0_2_1_0;NA;NA;form;submission;11559.82;299864;299857.56;299874.18;311434;311434;2023-05-07T09:31:21Z;311439.44;NULL;Gefährdung;kuhatarisha;s;uchokozi;udhaifu;makorowezo;kuhatarisha;NA;NA;1;NA;NA;NA;NA;NA;NA;NA;NA;NA;NA;NA;NA;NA;NA;NA;NA;NA;NA;NA;;
a247c;"""Richtig""-Screen";canvas.Screen;3_0_1_0_2_1_1;NA;NA;timeout;4999.3;311436;311430.74;311439.44;316422.1;316424;2023-05-07T09:31:26Z;316438.74;NULL;Gefährdung;kuhatarisha;s;uchokozi;udhaifu;makorowezo;NA;sdfdsf;1;1;NA;NA;NA;NA;NA;NA;NA;NA;NA;NA;NA;NA;NA;NA;NA;NA;NA;NA;NA;;;;
a247c;"""Falsch""-Screen";canvas.Screen;3_0_1_0_2_1_2;NA;NA;skipped;NA;316434;NA;NA;316422.1;316434;2023-05-07T09:31:26Z;316438.74;NULL;Gefährdung;kuhatarisha;s;uchokozi;udhaifu;makorowezo;NA;sdfdsf;NA;1;NA;NA;NA;NA;NA;NA;NA;NA;NA;NA;NA;NA;NA;NA;NA;NA;NA;NA;NA;;;;
a247c;shallow;flow.Sequence;3_0_1_0_2_1;NA;NA;completion;16547.92;299864;299857.56;299874.18;316422.1;316436;2023-05-07T09:31:26Z;316438.74;NULL;Gefährdung;kuhatarisha;s;uchokozi;udhaifu;makorowezo;NA;sdfdsf;NA;1;NA;NA;NA;NA;NA;NA;NA;NA;NA;NA;NA;NA;NA;NA;NA;NA;NA;NA;NA;;;;
a247c;task;flow.Sequence;3_0_1_0_2;NA;NA;completion;16547.92;299862;299857.56;299874.18;316422.1;316437;2023-05-07T09:31:26Z;316438.74;NULL;Gefährdung;kuhatarisha;s;uchokozi;udhaifu;makorowezo;NA;sdfdsf;NA;1;NA;NA;NA;NA;NA;NA;NA;NA;NA;NA;NA;NA;NA;NA;NA;NA;NA;NA;NA;;;;
a247c;deep;flow.Sequence;3_0_1_0_3_0;NA;NA;skipped;NA;316438;NA;NA;316422.1;316439;2023-05-07T09:31:26Z;316438.74;NULL;Betrüger;mdanganyifu;s;mwanamuziki;wastani;mahakama;NA;sdfdsf;NA;1;NA;NA;NA;NA;NA;NA;NA;NA;NA;NA;NA;NA;NA;NA;NA;NA;NA;NA;NA;;;;
a247c;Shallow;Question;html.Page;3_0_1_0_3_1_0;NA;NA;form;submission;7564.26;316439;316422.1;316438.74;324003;324004;2023-05-07T09:31:33Z;324004.46;NULL;Betrüger;mdanganyifu;s;mwanamuziki;wastani;mahakama;mdanganyifu;NA;NA;1;NA;NA;NA;NA;NA;NA;NA;NA;NA;NA;NA;NA;NA;NA;NA;NA;NA;NA;NA;;
a247c;"""Richtig""-Screen";canvas.Screen;3_0_1_0_3_1_1;NA;NA;timeout;4999.26;324010;323998.86;324004.46;328987.3;328989;2023-05-07T09:31:38Z;329003.72;NULL;Betrüger;mdanganyifu;s;mwanamuziki;wastani;mahakama;NA;sdfdsf;1;1;NA;NA;NA;NA;NA;NA;NA;NA;NA;NA;NA;NA;NA;NA;NA;NA;NA;NA;NA;;;;
a247c;"""Falsch""-Screen";canvas.Screen;3_0_1_0_3_1_2;NA;NA;skipped;NA;329001;NA;NA;328987.3;329001;2023-05-07T09:31:38Z;329003.72;NULL;Betrüger;mdanganyifu;s;mwanamuziki;wastani;mahakama;NA;sdfdsf;NA;1;NA;NA;NA;NA;NA;NA;NA;NA;NA;NA;NA;NA;NA;NA;NA;NA;NA;NA;NA;;;;
a247c;shallow;flow.Sequence;3_0_1_0_3_1;NA;NA;completion;12548.56;316439;316422.1;316438.74;328987.3;329002;2023-05-07T09:31:38Z;329003.72;NULL;Betrüger;mdanganyifu;s;mwanamuziki;wastani;mahakama;NA;sdfdsf;NA;1;NA;NA;NA;NA;NA;NA;NA;NA;NA;NA;NA;NA;NA;NA;NA;NA;NA;NA;NA;;;;
a247c;task;flow.Sequence;3_0_1_0_3;NA;NA;completion;12548.56;316438;316422.1;316438.74;328987.3;329002;2023-05-07T09:31:38Z;329003.72;NULL;Betrüger;mdanganyifu;s;mwanamuziki;wastani;mahakama;NA;sdfdsf;NA;1;NA;NA;NA;NA;NA;NA;NA;NA;NA;NA;NA;NA;NA;NA;NA;NA;NA;NA;NA;;;;
a247c;Deep;Question;html.Page;3_0_1_0_4_0_0;NA;NA;form;submission;13202.28;329003;328987.3;329003.72;342206;342207;2023-05-07T09:31:51Z;342218.74;NULL;Orientierung;urekebisho;d;NA;NA;NA;kuhati;NA;NA;1;NA;NA;NA;NA;NA;NA;NA;NA;NA;NA;NA;NA;NA;NA;NA;NA;NA;NA;NA;;
a247c;"""Richtig""-Screen";canvas.Screen;3_0_1_0_4_0_1;NA;NA;skipped;NA;342213;NA;NA;342206;342213;2023-05-07T09:31:51Z;342218.74;NULL;Orientierung;urekebisho;d;NA;NA;NA;NA;sdfdsf;NA;1;NA;NA;NA;NA;NA;NA;NA;NA;NA;NA;NA;NA;NA;NA;NA;NA;NA;NA;NA;;;;
a247c;"""Falsch""-Screen";canvas.Screen;3_0_1_0_4_0_2;NA;NA;timeout;4999.4;342216;342203.34;342218.74;347201.62;347204;2023-05-07T09:31:56Z;347218.14;NULL;Orientierung;urekebisho;d;NA;NA;NA;NA;sdfdsf;0;1;NA;NA;NA;NA;NA;NA;NA;NA;NA;NA;NA;NA;NA;NA;NA;NA;NA;NA;NA;;;;
a247c;deep;flow.Sequence;3_0_1_0_4_0;NA;NA;completion;18197.9;329003;328987.3;329003.72;347201.62;347206;2023-05-07T09:31:56Z;347218.14;NULL;Orientierung;urekebisho;d;NA;NA;NA;NA;sdfdsf;NA;1;NA;NA;NA;NA;NA;NA;NA;NA;NA;NA;NA;NA;NA;NA;NA;NA;NA;NA;NA;;;;
a247c;shallow;flow.Sequence;3_0_1_0_4_1;NA;NA;skipped;NA;347207;NA;NA;347201.62;347208;2023-05-07T09:31:56Z;347218.14;NULL;Orientierung;urekebisho;d;NA;NA;NA;NA;sdfdsf;NA;1;NA;NA;NA;NA;NA;NA;NA;NA;NA;NA;NA;NA;NA;NA;NA;NA;NA;NA;NA;;;;
a247c;task;flow.Sequence;3_0_1_0_4;NA;NA;completion;18197.9;329003;328987.3;329003.72;347201.62;347210;2023-05-07T09:31:56Z;347218.14;NULL;Orientierung;urekebisho;d;NA;NA;NA;NA;sdfdsf;NA;1;NA;NA;NA;NA;NA;NA;NA;NA;NA;NA;NA;NA;NA;NA;NA;NA;NA;NA;NA;;;;
a247c;Deep;Question;html.Page;3_0_1_0_5_0_0;NA;NA;form;submission;8681.86;347211;347201.62;347218.14;355900;355901;2023-05-07T09:32:05Z;355900.38;NULL;Respekt;heshima;d;NA;NA;NA;ttt;NA;NA;1;NA;NA;NA;NA;NA;NA;NA;NA;NA;NA;NA;NA;NA;NA;NA;NA;NA;NA;NA;;
a247c;"""Richtig""-Screen";canvas.Screen;3_0_1_0_5_0_1;NA;NA;skipped;NA;355906;NA;NA;355900;355906;2023-05-07T09:32:05Z;355900.38;NULL;Respekt;heshima;d;NA;NA;NA;NA;sdfdsf;NA;1;NA;NA;NA;NA;NA;NA;NA;NA;NA;NA;NA;NA;NA;NA;NA;NA;NA;NA;NA;;;;
a247c;"""Falsch""-Screen";canvas.Screen;3_0_1_0_5_0_2;NA;NA;timeout;4999.26;355909;355895.46;355900.38;360883.28;360886;2023-05-07T09:32:10Z;360899.64;NULL;Respekt;heshima;d;NA;NA;NA;NA;sdfdsf;0;1;NA;NA;NA;NA;NA;NA;NA;NA;NA;NA;NA;NA;NA;NA;NA;NA;NA;NA;NA;;;;
a247c;deep;flow.Sequence;3_0_1_0_5_0;NA;NA;completion;13665.14;347211;347201.62;347218.14;360883.28;360887;2023-05-07T09:32:10Z;360899.64;NULL;Respekt;heshima;d;NA;NA;NA;NA;sdfdsf;NA;1;NA;NA;NA;NA;NA;NA;NA;NA;NA;NA;NA;NA;NA;NA;NA;NA;NA;NA;NA;;;;
a247c;shallow;flow.Sequence;3_0_1_0_5_1;NA;NA;skipped;NA;360888;NA;NA;360883.28;360890;2023-05-07T09:32:10Z;360899.64;NULL;Respekt;heshima;d;NA;NA;NA;NA;sdfdsf;NA;1;NA;NA;NA;NA;NA;NA;NA;NA;NA;NA;NA;NA;NA;NA;NA;NA;NA;NA;NA;;;;
a247c;task;flow.Sequence;3_0_1_0_5;NA;NA;completion;13665.14;347211;347201.62;347218.14;360883.28;360893;2023-05-07T09:32:10Z;360899.64;NULL;Respekt;heshima;d;NA;NA;NA;NA;sdfdsf;NA;1;NA;NA;NA;NA;NA;NA;NA;NA;NA;NA;NA;NA;NA;NA;NA;NA;NA;NA;NA;;;;
a247c;Deep;Question;html.Page;3_0_1_0_6_0_0;NA;NA;form;submission;7412.36;360895;360883.28;360899.64;368312;368313;2023-05-07T09:32:18Z;368315.38;NULL;Kreativität;ubunifu;d;NA;NA;NA;heshima;NA;NA;1;NA;NA;NA;NA;NA;NA;NA;NA;NA;NA;NA;NA;NA;NA;NA;NA;NA;NA;NA;;
a247c;"""Richtig""-Screen";canvas.Screen;3_0_1_0_6_0_1;NA;NA;skipped;NA;368316;NA;NA;368312;368316;2023-05-07T09:32:18Z;368315.38;NULL;Kreativität;ubunifu;d;NA;NA;NA;NA;sdfdsf;NA;1;NA;NA;NA;NA;NA;NA;NA;NA;NA;NA;NA;NA;NA;NA;NA;NA;NA;NA;NA;;;;
a247c;"""Falsch""-Screen";canvas.Screen;3_0_1_0_6_0_2;NA;NA;timeout;4999.56;368318;368310.56;368315.38;373298.48;373301;2023-05-07T09:32:23Z;373314.94;NULL;Kreativität;ubunifu;d;NA;NA;NA;NA;sdfdsf;0;1;NA;NA;NA;NA;NA;NA;NA;NA;NA;NA;NA;NA;NA;NA;NA;NA;NA;NA;NA;;;;
a247c;deep;flow.Sequence;3_0_1_0_6_0;NA;NA;completion;12398.84;360895;360883.28;360899.64;373298.48;373302;2023-05-07T09:32:23Z;373314.94;NULL;Kreativität;ubunifu;d;NA;NA;NA;NA;sdfdsf;NA;1;NA;NA;NA;NA;NA;NA;NA;NA;NA;NA;NA;NA;NA;NA;NA;NA;NA;NA;NA;;;;
a247c;shallow;flow.Sequence;3_0_1_0_6_1;NA;NA;skipped;NA;373302;NA;NA;373298.48;373302;2023-05-07T09:32:23Z;373314.94;NULL;Kreativität;ubunifu;d;NA;NA;NA;NA;sdfdsf;NA;1;NA;NA;NA;NA;NA;NA;NA;NA;NA;NA;NA;NA;NA;NA;NA;NA;NA;NA;NA;;;;
a247c;task;flow.Sequence;3_0_1_0_6;NA;NA;completion;12398.84;360894;360883.28;360899.64;373298.48;373303;2023-05-07T09:32:23Z;373314.94;NULL;Kreativität;ubunifu;d;NA;NA;NA;NA;sdfdsf;NA;1;NA;NA;NA;NA;NA;NA;NA;NA;NA;NA;NA;NA;NA;NA;NA;NA;NA;NA;NA;;;;
a247c;Deep;Question;html.Page;3_0_1_0_7_0_0;NA;NA;form;submission;6792.06;373304;373298.48;373314.94;380107;380107;2023-05-07T09:32:29Z;380114.02;NULL;Können;unaweza;d;NA;NA;NA;ubunifu;NA;NA;1;NA;NA;NA;NA;NA;NA;NA;NA;NA;NA;NA;NA;NA;NA;NA;NA;NA;NA;NA;;
a247c;"""Richtig""-Screen";canvas.Screen;3_0_1_0_7_0_1;NA;NA;skipped;NA;380109;NA;NA;380107;380109;2023-05-07T09:32:29Z;380114.02;NULL;Können;unaweza;d;NA;NA;NA;NA;sdfdsf;NA;1;NA;NA;NA;NA;NA;NA;NA;NA;NA;NA;NA;NA;NA;NA;NA;NA;NA;NA;NA;;;;
a247c;"""Falsch""-Screen";canvas.Screen;3_0_1_0_7_0_2;NA;NA;timeout;4999.34;380111;380105.58;380114.02;385096.62;385097;2023-05-07T09:32:34Z;385113.36;NULL;Können;unaweza;d;NA;NA;NA;NA;sdfdsf;0;1;NA;NA;NA;NA;NA;NA;NA;NA;NA;NA;NA;NA;NA;NA;NA;NA;NA;NA;NA;;;;
a247c;deep;flow.Sequence;3_0_1_0_7_0;NA;NA;completion;11781.68;373304;373298.48;373314.94;385096.62;385098;2023-05-07T09:32:34Z;385113.36;NULL;Können;unaweza;d;NA;NA;NA;NA;sdfdsf;NA;1;NA;NA;NA;NA;NA;NA;NA;NA;NA;NA;NA;NA;NA;NA;NA;NA;NA;NA;NA;;;;
a247c;shallow;flow.Sequence;3_0_1_0_7_1;NA;NA;skipped;NA;385099;NA;NA;385096.62;385099;2023-05-07T09:32:34Z;385113.36;NULL;Können;unaweza;d;NA;NA;NA;NA;sdfdsf;NA;1;NA;NA;NA;NA;NA;NA;NA;NA;NA;NA;NA;NA;NA;NA;NA;NA;NA;NA;NA;;;;
a247c;task;flow.Sequence;3_0_1_0_7;NA;NA;completion;11781.68;373303;373298.48;373314.94;385096.62;385099;2023-05-07T09:32:34Z;385113.36;NULL;Können;unaweza;d;NA;NA;NA;NA;sdfdsf;NA;1;NA;NA;NA;NA;NA;NA;NA;NA;NA;NA;NA;NA;NA;NA;NA;NA;NA;NA;NA;;;;
a247c;block;flow.Loop;3_0_1_0;NA;NA;completion;112880.38;272216;272215.86;272216.24;385096.62;385100;2023-05-07T09:32:34Z;385113.36;NULL;NA;NA;NA;NA;NA;NA;NA;sdfdsf;NA;1;NA;NA;NA;NA;NA;NA;NA;NA;NA;NA;NA;NA;NA;NA;NA;NA;NA;NA;NA;;;;
a247c;weiter;canvas.Screen;3_0_1_1;sdf;keypress(Space);response;1221.64;385100;385096.62;385113.36;386335;386339;2023-05-07T09:32:36Z;386424.6;NULL;NA;NA;NA;NA;NA;NA;NA;sdfdsf;NA;1;NA;NA;NA;NA;NA;NA;NA;NA;NA;NA;NA;NA;NA;NA;NA;NA;NA;NA;NA;;;;
a247c;check;continue;flow.Sequence;3_0_1;NA;NA;completion;114118.76;272216;272215.86;272216.24;386335;386340;2023-05-07T09:32:36Z;386424.6;NULL;NA;NA;NA;NA;NA;NA;NA;sdfdsf;NA;1;NA;NA;NA;NA;NA;NA;NA;NA;NA;NA;NA;NA;NA;NA;NA;NA;NA;NA;NA;;;
a247c;deep;flow.Sequence;3_0_2_0_0_0;NA;NA;skipped;NA;386424;NA;NA;386335;386424;2023-05-07T09:32:36Z;386424.6;NULL;Betrüger;mdanganyifu;s;mwanamuziki;wastani;mahakama;NA;sdf;NA;2;NA;NA;NA;NA;NA;NA;NA;NA;NA;NA;NA;NA;NA;NA;NA;NA;NA;NA;NA;;;;
a247c;Shallow;Question;html.Page;3_0_2_0_0_1_0;NA;NA;form;submission;9097.4;386424;386424.24;386424.6;395522;395523;2023-05-07T09:32:45Z;395528.72;NULL;Betrüger;mdanganyifu;s;mwanamuziki;wastani;mahakama;mdanganyifu;NA;NA;2;NA;NA;NA;NA;NA;NA;NA;NA;NA;NA;NA;NA;NA;NA;NA;NA;NA;NA;NA;;
a247c;"""Richtig""-Screen";canvas.Screen;3_0_2_0_0_1_1;NA;NA;timeout;4999.04;395528;395516.2;395528.72;400511.02;400513;2023-05-07T09:32:50Z;400527.76;NULL;Betrüger;mdanganyifu;s;mwanamuziki;wastani;mahakama;NA;sdf;1;2;NA;NA;NA;NA;NA;NA;NA;NA;NA;NA;NA;NA;NA;NA;NA;NA;NA;NA;NA;;;;
a247c;"""Falsch""-Screen";canvas.Screen;3_0_2_0_0_1_2;NA;NA;skipped;NA;400517;NA;NA;400511.02;400517;2023-05-07T09:32:50Z;400527.76;NULL;Betrüger;mdanganyifu;s;mwanamuziki;wastani;mahakama;NA;sdf;NA;2;NA;NA;NA;NA;NA;NA;NA;NA;NA;NA;NA;NA;NA;NA;NA;NA;NA;NA;NA;;;;
a247c;shallow;flow.Sequence;3_0_2_0_0_1;NA;NA;completion;14086.42;386424;386424.24;386424.6;400511.02;400518;2023-05-07T09:32:50Z;400527.76;NULL;Betrüger;mdanganyifu;s;mwanamuziki;wastani;mahakama;NA;sdf;NA;2;NA;NA;NA;NA;NA;NA;NA;NA;NA;NA;NA;NA;NA;NA;NA;NA;NA;NA;NA;;;;
a247c;task;flow.Sequence;3_0_2_0_0;NA;NA;completion;14086.42;386424;386424.24;386424.6;400511.02;400518;2023-05-07T09:32:50Z;400527.76;NULL;Betrüger;mdanganyifu;s;mwanamuziki;wastani;mahakama;NA;sdf;NA;2;NA;NA;NA;NA;NA;NA;NA;NA;NA;NA;NA;NA;NA;NA;NA;NA;NA;NA;NA;;;;
a247c;Deep;Question;html.Page;3_0_2_0_1_0_0;NA;NA;form;submission;4471.24;400519;400511.02;400527.76;404999;404999;2023-05-07T09:32:54Z;405010.82;NULL;Können;unaweza;d;NA;NA;NA;sdf;NA;NA;2;NA;NA;NA;NA;NA;NA;NA;NA;NA;NA;NA;NA;NA;NA;NA;NA;NA;NA;NA;;
a247c;"""Richtig""-Screen";canvas.Screen;3_0_2_0_1_0_1;NA;NA;skipped;NA;405001;NA;NA;404999;405001;2023-05-07T09:32:54Z;405010.82;NULL;Können;unaweza;d;NA;NA;NA;NA;sdf;NA;2;NA;NA;NA;NA;NA;NA;NA;NA;NA;NA;NA;NA;NA;NA;NA;NA;NA;NA;NA;;;;
a247c;"""Falsch""-Screen";canvas.Screen;3_0_2_0_1_0_2;NA;NA;timeout;4999.46;405002;404996.66;405010.82;409993.8;409996;2023-05-07T09:32:59Z;410010.28;NULL;Können;unaweza;d;NA;NA;NA;NA;sdf;0;2;NA;NA;NA;NA;NA;NA;NA;NA;NA;NA;NA;NA;NA;NA;NA;NA;NA;NA;NA;;;;
a247c;deep;flow.Sequence;3_0_2_0_1_0;NA;NA;completion;9466.04;400519;400511.02;400527.76;409993.8;409996;2023-05-07T09:32:59Z;410010.28;NULL;Können;unaweza;d;NA;NA;NA;NA;sdf;NA;2;NA;NA;NA;NA;NA;NA;NA;NA;NA;NA;NA;NA;NA;NA;NA;NA;NA;NA;NA;;;;
a247c;shallow;flow.Sequence;3_0_2_0_1_1;NA;NA;skipped;NA;409997;NA;NA;409993.8;409997;2023-05-07T09:32:59Z;410010.28;NULL;Können;unaweza;d;NA;NA;NA;NA;sdf;NA;2;NA;NA;NA;NA;NA;NA;NA;NA;NA;NA;NA;NA;NA;NA;NA;NA;NA;NA;NA;;;;
a247c;task;flow.Sequence;3_0_2_0_1;NA;NA;completion;9466.04;400519;400511.02;400527.76;409993.8;409998;2023-05-07T09:32:59Z;410010.28;NULL;Können;unaweza;d;NA;NA;NA;NA;sdf;NA;2;NA;NA;NA;NA;NA;NA;NA;NA;NA;NA;NA;NA;NA;NA;NA;NA;NA;NA;NA;;;;
a247c;Deep;Question;html.Page;3_0_2_0_2_0_0;NA;NA;form;submission;6621.72;409998;409993.8;410010.28;416632;416632;2023-05-07T09:33:06Z;416642.62;NULL;Orientierung;urekebisho;d;NA;NA;NA;sdfklj;NA;NA;2;NA;NA;NA;NA;NA;NA;NA;NA;NA;NA;NA;NA;NA;NA;NA;NA;NA;NA;NA;;
a247c;"""Richtig""-Screen";canvas.Screen;3_0_2_0_2_0_1;NA;NA;skipped;NA;416634;NA;NA;416632;416634;2023-05-07T09:33:06Z;416642.62;NULL;Orientierung;urekebisho;d;NA;NA;NA;NA;sdf;NA;2;NA;NA;NA;NA;NA;NA;NA;NA;NA;NA;NA;NA;NA;NA;NA;NA;NA;NA;NA;;;;
a247c;"""Falsch""-Screen";canvas.Screen;3_0_2_0_2_0_2;NA;NA;timeout;4999.62;416637;416628.84;416642.62;421625.5;421627;2023-05-07T09:33:11Z;421642.24;NULL;Orientierung;urekebisho;d;NA;NA;NA;NA;sdf;0;2;NA;NA;NA;NA;NA;NA;NA;NA;NA;NA;NA;NA;NA;NA;NA;NA;NA;NA;NA;;;;
a247c;deep;flow.Sequence;3_0_2_0_2_0;NA;NA;completion;11615.22;409998;409993.8;410010.28;421625.5;421628;2023-05-07T09:33:11Z;421642.24;NULL;Orientierung;urekebisho;d;NA;NA;NA;NA;sdf;NA;2;NA;NA;NA;NA;NA;NA;NA;NA;NA;NA;NA;NA;NA;NA;NA;NA;NA;NA;NA;;;;
a247c;shallow;flow.Sequence;3_0_2_0_2_1;NA;NA;skipped;NA;421629;NA;NA;421625.5;421630;2023-05-07T09:33:11Z;421642.24;NULL;Orientierung;urekebisho;d;NA;NA;NA;NA;sdf;NA;2;NA;NA;NA;NA;NA;NA;NA;NA;NA;NA;NA;NA;NA;NA;NA;NA;NA;NA;NA;;;;
a247c;task;flow.Sequence;3_0_2_0_2;NA;NA;completion;11615.22;409998;409993.8;410010.28;421625.5;421630;2023-05-07T09:33:11Z;421642.24;NULL;Orientierung;urekebisho;d;NA;NA;NA;NA;sdf;NA;2;NA;NA;NA;NA;NA;NA;NA;NA;NA;NA;NA;NA;NA;NA;NA;NA;NA;NA;NA;;;;
a247c;deep;flow.Sequence;3_0_2_0_3_0;NA;NA;skipped;NA;421631;NA;NA;421625.5;421631;2023-05-07T09:33:11Z;421642.24;NULL;Kontrolle;kudhibiti;s;mbinguni;kufunga;utegemezi;NA;sdf;NA;2;NA;NA;NA;NA;NA;NA;NA;NA;NA;NA;NA;NA;NA;NA;NA;NA;NA;NA;NA;;;;
a247c;Shallow;Question;html.Page;3_0_2_0_3_1_0;NA;NA;form;submission;7619.76;421632;421625.5;421642.24;429262;429262;2023-05-07T09:33:18Z;429257.88;NULL;Kontrolle;kudhibiti;s;mbinguni;kufunga;utegemezi;kudhibiti;NA;NA;2;NA;NA;NA;NA;NA;NA;NA;NA;NA;NA;NA;NA;NA;NA;NA;NA;NA;NA;NA;;
a247c;"""Richtig""-Screen";canvas.Screen;3_0_2_0_3_1_1;NA;NA;timeout;4998.96;429268;429256.32;429257.88;434240.54;434241;2023-05-07T09:33:23Z;434256.84;NULL;Kontrolle;kudhibiti;s;mbinguni;kufunga;utegemezi;NA;sdf;1;2;NA;NA;NA;NA;NA;NA;NA;NA;NA;NA;NA;NA;NA;NA;NA;NA;NA;NA;NA;;;;
a247c;"""Falsch""-Screen";canvas.Screen;3_0_2_0_3_1_2;NA;NA;skipped;NA;434247;NA;NA;434240.54;434247;2023-05-07T09:33:23Z;434256.84;NULL;Kontrolle;kudhibiti;s;mbinguni;kufunga;utegemezi;NA;sdf;NA;2;NA;NA;NA;NA;NA;NA;NA;NA;NA;NA;NA;NA;NA;NA;NA;NA;NA;NA;NA;;;;
a247c;shallow;flow.Sequence;3_0_2_0_3_1;NA;NA;completion;12598.3;421632;421625.5;421642.24;434240.54;434248;2023-05-07T09:33:23Z;434256.84;NULL;Kontrolle;kudhibiti;s;mbinguni;kufunga;utegemezi;NA;sdf;NA;2;NA;NA;NA;NA;NA;NA;NA;NA;NA;NA;NA;NA;NA;NA;NA;NA;NA;NA;NA;;;;
a247c;task;flow.Sequence;3_0_2_0_3;NA;NA;completion;12598.3;421630;421625.5;421642.24;434240.54;434248;2023-05-07T09:33:23Z;434256.84;NULL;Kontrolle;kudhibiti;s;mbinguni;kufunga;utegemezi;NA;sdf;NA;2;NA;NA;NA;NA;NA;NA;NA;NA;NA;NA;NA;NA;NA;NA;NA;NA;NA;NA;NA;;;;
a247c;deep;flow.Sequence;3_0_2_0_4_0;NA;NA;skipped;NA;434248;NA;NA;434240.54;434248;2023-05-07T09:33:23Z;434256.84;NULL;Stimmung;kinyongo;s;kilekile;kisambo;madhehebu;NA;sdf;NA;2;NA;NA;NA;NA;NA;NA;NA;NA;NA;NA;NA;NA;NA;NA;NA;NA;NA;NA;NA;;;;
a247c;Shallow;Question;html.Page;3_0_2_0_4_1_0;NA;NA;form;submission;11739.16;434249;434240.54;434256.84;445996;445996;2023-05-07T09:33:35Z;446005.7;NULL;Stimmung;kinyongo;s;kilekile;kisambo;madhehebu;kinyongo;NA;NA;2;NA;NA;NA;NA;NA;NA;NA;NA;NA;NA;NA;NA;NA;NA;NA;NA;NA;NA;NA;;
a247c;"""Richtig""-Screen";canvas.Screen;3_0_2_0_4_1_1;NA;NA;timeout;4999.4;445998;445994.38;446005.7;450988.46;450994;2023-05-07T09:33:40Z;451005.1;NULL;Stimmung;kinyongo;s;kilekile;kisambo;madhehebu;NA;sdf;1;2;NA;NA;NA;NA;NA;NA;NA;NA;NA;NA;NA;NA;NA;NA;NA;NA;NA;NA;NA;;;;
a247c;"""Falsch""-Screen";canvas.Screen;3_0_2_0_4_1_2;NA;NA;skipped;NA;451012;NA;NA;450988.46;451012;2023-05-07T09:33:40Z;451005.1;NULL;Stimmung;kinyongo;s;kilekile;kisambo;madhehebu;NA;sdf;NA;2;NA;NA;NA;NA;NA;NA;NA;NA;NA;NA;NA;NA;NA;NA;NA;NA;NA;NA;NA;;;;
a247c;shallow;flow.Sequence;3_0_2_0_4_1;NA;NA;completion;16731.62;434248;434240.54;434256.84;450988.46;451013;2023-05-07T09:33:40Z;451005.1;NULL;Stimmung;kinyongo;s;kilekile;kisambo;madhehebu;NA;sdf;NA;2;NA;NA;NA;NA;NA;NA;NA;NA;NA;NA;NA;NA;NA;NA;NA;NA;NA;NA;NA;;;;
a247c;task;flow.Sequence;3_0_2_0_4;NA;NA;completion;16731.62;434248;434240.54;434256.84;450988.46;451014;2023-05-07T09:33:40Z;451005.1;NULL;Stimmung;kinyongo;s;kilekile;kisambo;madhehebu;NA;sdf;NA;2;NA;NA;NA;NA;NA;NA;NA;NA;NA;NA;NA;NA;NA;NA;NA;NA;NA;NA;NA;;;;
a247c;Deep;Question;html.Page;3_0_2_0_5_0_0;NA;NA;form;submission;6842.9;451015;450988.46;451005.1;457848;457849;2023-05-07T09:33:47Z;457853.08;NULL;Respekt;heshima;d;NA;NA;NA;kjlk;NA;NA;2;NA;NA;NA;NA;NA;NA;NA;NA;NA;NA;NA;NA;NA;NA;NA;NA;NA;NA;NA;;
a247c;"""Richtig""-Screen";canvas.Screen;3_0_2_0_5_0_1;NA;NA;skipped;NA;457857;NA;NA;457848;457858;2023-05-07T09:33:47Z;457853.08;NULL;Respekt;heshima;d;NA;NA;NA;NA;sdf;NA;2;NA;NA;NA;NA;NA;NA;NA;NA;NA;NA;NA;NA;NA;NA;NA;NA;NA;NA;NA;;;;
a247c;"""Falsch""-Screen";canvas.Screen;3_0_2_0_5_0_2;NA;NA;timeout;4999.76;457864;457839.94;457853.08;462836.1;462839;2023-05-07T09:33:52Z;462852.84;NULL;Respekt;heshima;d;NA;NA;NA;NA;sdf;0;2;NA;NA;NA;NA;NA;NA;NA;NA;NA;NA;NA;NA;NA;NA;NA;NA;NA;NA;NA;;;;
a247c;deep;flow.Sequence;3_0_2_0_5_0;NA;NA;completion;11831;451014;450988.46;451005.1;462836.1;462840;2023-05-07T09:33:52Z;462852.84;NULL;Respekt;heshima;d;NA;NA;NA;NA;sdf;NA;2;NA;NA;NA;NA;NA;NA;NA;NA;NA;NA;NA;NA;NA;NA;NA;NA;NA;NA;NA;;;;
a247c;shallow;flow.Sequence;3_0_2_0_5_1;NA;NA;skipped;NA;462841;NA;NA;462836.1;462841;2023-05-07T09:33:52Z;462852.84;NULL;Respekt;heshima;d;NA;NA;NA;NA;sdf;NA;2;NA;NA;NA;NA;NA;NA;NA;NA;NA;NA;NA;NA;NA;NA;NA;NA;NA;NA;NA;;;;
a247c;task;flow.Sequence;3_0_2_0_5;NA;NA;completion;11831;451014;450988.46;451005.1;462836.1;462842;2023-05-07T09:33:52Z;462852.84;NULL;Respekt;heshima;d;NA;NA;NA;NA;sdf;NA;2;NA;NA;NA;NA;NA;NA;NA;NA;NA;NA;NA;NA;NA;NA;NA;NA;NA;NA;NA;;;;
a247c;Deep;Question;html.Page;3_0_2_0_6_0_0;NA;NA;form;submission;6224.16;462844;462836.1;462852.84;469077;469077;2023-05-07T09:33:58Z;469086.1;NULL;Kreativität;ubunifu;d;NA;NA;NA;lkn;NA;NA;2;NA;NA;NA;NA;NA;NA;NA;NA;NA;NA;NA;NA;NA;NA;NA;NA;NA;NA;NA;;
a247c;"""Richtig""-Screen";canvas.Screen;3_0_2_0_6_0_1;NA;NA;skipped;NA;469081;NA;NA;469077;469081;2023-05-07T09:33:58Z;469086.1;NULL;Kreativität;ubunifu;d;NA;NA;NA;NA;sdf;NA;2;NA;NA;NA;NA;NA;NA;NA;NA;NA;NA;NA;NA;NA;NA;NA;NA;NA;NA;NA;;;;
a247c;"""Falsch""-Screen";canvas.Screen;3_0_2_0_6_0_2;NA;NA;timeout;4999.36;469085;469072.74;469086.1;474068.9;474070;2023-05-07T09:34:03Z;474085.46;NULL;Kreativität;ubunifu;d;NA;NA;NA;NA;sdf;0;2;NA;NA;NA;NA;NA;NA;NA;NA;NA;NA;NA;NA;NA;NA;NA;NA;NA;NA;NA;;;;
a247c;deep;flow.Sequence;3_0_2_0_6_0;NA;NA;completion;11216.06;462843;462836.1;462852.84;474068.9;474071;2023-05-07T09:34:03Z;474085.46;NULL;Kreativität;ubunifu;d;NA;NA;NA;NA;sdf;NA;2;NA;NA;NA;NA;NA;NA;NA;NA;NA;NA;NA;NA;NA;NA;NA;NA;NA;NA;NA;;;;
a247c;shallow;flow.Sequence;3_0_2_0_6_1;NA;NA;skipped;NA;474072;NA;NA;474068.9;474072;2023-05-07T09:34:03Z;474085.46;NULL;Kreativität;ubunifu;d;NA;NA;NA;NA;sdf;NA;2;NA;NA;NA;NA;NA;NA;NA;NA;NA;NA;NA;NA;NA;NA;NA;NA;NA;NA;NA;;;;
a247c;task;flow.Sequence;3_0_2_0_6;NA;NA;completion;11216.06;462843;462836.1;462852.84;474068.9;474073;2023-05-07T09:34:03Z;474085.46;NULL;Kreativität;ubunifu;d;NA;NA;NA;NA;sdf;NA;2;NA;NA;NA;NA;NA;NA;NA;NA;NA;NA;NA;NA;NA;NA;NA;NA;NA;NA;NA;;;;
a247c;deep;flow.Sequence;3_0_2_0_7_0;NA;NA;skipped;NA;474073;NA;NA;474068.9;474074;2023-05-07T09:34:03Z;474085.46;NULL;Gefährdung;kuhatarisha;s;uchokozi;udhaifu;makorowezo;NA;sdf;NA;2;NA;NA;NA;NA;NA;NA;NA;NA;NA;NA;NA;NA;NA;NA;NA;NA;NA;NA;NA;;;;
a247c;Shallow;Question;html.Page;3_0_2_0_7_1_0;NA;NA;form;submission;14586.54;474075;474068.9;474085.46;488672;488673;2023-05-07T09:34:18Z;488683.48;NULL;Gefährdung;kuhatarisha;s;uchokozi;udhaifu;makorowezo;udhaifu;NA;NA;2;NA;NA;NA;NA;NA;NA;NA;NA;NA;NA;NA;NA;NA;NA;NA;NA;NA;NA;NA;;
a247c;"""Richtig""-Screen";canvas.Screen;3_0_2_0_7_1_1;NA;NA;skipped;NA;488679;NA;NA;488672;488679;2023-05-07T09:34:18Z;488683.48;NULL;Gefährdung;kuhatarisha;s;uchokozi;udhaifu;makorowezo;NA;sdf;NA;2;NA;NA;NA;NA;NA;NA;NA;NA;NA;NA;NA;NA;NA;NA;NA;NA;NA;NA;NA;;;;
a247c;"""Falsch""-Screen";canvas.Screen;3_0_2_0_7_1_2;NA;NA;timeout;4999.16;488682;488667.04;488683.48;493666.46;493669;2023-05-07T09:34:23Z;493682.64;NULL;Gefährdung;kuhatarisha;s;uchokozi;udhaifu;makorowezo;NA;sdf;0;2;NA;NA;NA;NA;NA;NA;NA;NA;NA;NA;NA;NA;NA;NA;NA;NA;NA;NA;NA;;;;
a247c;shallow;flow.Sequence;3_0_2_0_7_1;NA;NA;completion;19581;474074;474068.9;474085.46;493666.46;493670;2023-05-07T09:34:23Z;493682.64;NULL;Gefährdung;kuhatarisha;s;uchokozi;udhaifu;makorowezo;NA;sdf;NA;2;NA;NA;NA;NA;NA;NA;NA;NA;NA;NA;NA;NA;NA;NA;NA;NA;NA;NA;NA;;;;
a247c;task;flow.Sequence;3_0_2_0_7;NA;NA;completion;19581;474073;474068.9;474085.46;493666.46;493671;2023-05-07T09:34:23Z;493682.64;NULL;Gefährdung;kuhatarisha;s;uchokozi;udhaifu;makorowezo;NA;sdf;NA;2;NA;NA;NA;NA;NA;NA;NA;NA;NA;NA;NA;NA;NA;NA;NA;NA;NA;NA;NA;;;;
a247c;block;flow.Loop;3_0_2_0;NA;NA;completion;107241.86;386424;386424.24;386424.6;493666.46;493672;2023-05-07T09:34:23Z;493682.64;NULL;NA;NA;NA;NA;NA;NA;NA;sdf;NA;2;NA;NA;NA;NA;NA;NA;NA;NA;NA;NA;NA;NA;NA;NA;NA;NA;NA;NA;NA;;;;
a247c;weiter;canvas.Screen;3_0_2_1;sdf;keypress(Space);response;1432.36;493672;493666.46;493682.64;495115;495132;2023-05-07T09:34:24Z;495199.14;NULL;NA;NA;NA;NA;NA;NA;NA;sdf;NA;2;NA;NA;NA;NA;NA;NA;NA;NA;NA;NA;NA;NA;NA;NA;NA;NA;NA;NA;NA;;;;
a247c;check;continue;flow.Sequence;3_0_2;NA;NA;completion;108690.4;386424;386424.24;386424.6;495115;495133;2023-05-07T09:34:24Z;495199.14;NULL;NA;NA;NA;NA;NA;NA;NA;sdf;NA;2;NA;NA;NA;NA;NA;NA;NA;NA;NA;NA;NA;NA;NA;NA;NA;NA;NA;NA;NA;;;
a247c;deep;flow.Sequence;3_0_3_0_0_0;NA;NA;skipped;NA;495199;NA;NA;495115;495199;2023-05-07T09:34:24Z;495199.14;NULL;Gefährdung;kuhatarisha;s;uchokozi;udhaifu;makorowezo;NA;qt;NA;3;NA;NA;NA;NA;NA;NA;NA;NA;NA;NA;NA;NA;NA;NA;NA;NA;NA;NA;NA;;;;
a247c;Shallow;Question;html.Page;3_0_3_0_0_1_0;NA;NA;form;submission;7269.86;495199;495198.84;495199.14;502469;502469;2023-05-07T09:34:32Z;502465;NULL;Gefährdung;kuhatarisha;s;uchokozi;udhaifu;makorowezo;kuhatarisha;NA;NA;3;NA;NA;NA;NA;NA;NA;NA;NA;NA;NA;NA;NA;NA;NA;NA;NA;NA;NA;NA;;
a247c;"""Richtig""-Screen";canvas.Screen;3_0_3_0_0_1_1;NA;NA;timeout;4999.38;502474;502461.9;502465;507447.98;507453;2023-05-07T09:34:37Z;507464.38;NULL;Gefährdung;kuhatarisha;s;uchokozi;udhaifu;makorowezo;NA;qt;1;3;NA;NA;NA;NA;NA;NA;NA;NA;NA;NA;NA;NA;NA;NA;NA;NA;NA;NA;NA;;;;
a247c;"""Falsch""-Screen";canvas.Screen;3_0_3_0_0_1_2;NA;NA;skipped;NA;507471;NA;NA;507447.98;507472;2023-05-07T09:34:37Z;507464.38;NULL;Gefährdung;kuhatarisha;s;uchokozi;udhaifu;makorowezo;NA;qt;NA;3;NA;NA;NA;NA;NA;NA;NA;NA;NA;NA;NA;NA;NA;NA;NA;NA;NA;NA;NA;;;;
a247c;shallow;flow.Sequence;3_0_3_0_0_1;NA;NA;completion;12248.84;495199;495198.84;495199.14;507447.98;507472;2023-05-07T09:34:37Z;507464.38;NULL;Gefährdung;kuhatarisha;s;uchokozi;udhaifu;makorowezo;NA;qt;NA;3;NA;NA;NA;NA;NA;NA;NA;NA;NA;NA;NA;NA;NA;NA;NA;NA;NA;NA;NA;;;;
a247c;task;flow.Sequence;3_0_3_0_0;NA;NA;completion;12248.84;495199;495198.84;495199.14;507447.98;507473;2023-05-07T09:34:37Z;507464.38;NULL;Gefährdung;kuhatarisha;s;uchokozi;udhaifu;makorowezo;NA;qt;NA;3;NA;NA;NA;NA;NA;NA;NA;NA;NA;NA;NA;NA;NA;NA;NA;NA;NA;NA;NA;;;;
a247c;deep;flow.Sequence;3_0_3_0_1_0;NA;NA;skipped;NA;507474;NA;NA;507447.98;507474;2023-05-07T09:34:37Z;507464.38;NULL;Kontrolle;kudhibiti;s;mbinguni;kufunga;utegemezi;NA;qt;NA;3;NA;NA;NA;NA;NA;NA;NA;NA;NA;NA;NA;NA;NA;NA;NA;NA;NA;NA;NA;;;;
a247c;Shallow;Question;html.Page;3_0_3_0_1_1_0;NA;NA;form;submission;9918.62;507475;507447.98;507464.38;517383;517384;2023-05-07T09:34:47Z;517379.66;NULL;Kontrolle;kudhibiti;s;mbinguni;kufunga;utegemezi;mbinguni;NA;NA;3;NA;NA;NA;NA;NA;NA;NA;NA;NA;NA;NA;NA;NA;NA;NA;NA;NA;NA;NA;;
a247c;"""Richtig""-Screen";canvas.Screen;3_0_3_0_1_1_1;NA;NA;skipped;NA;517387;NA;NA;517383;517388;2023-05-07T09:34:47Z;517379.66;NULL;Kontrolle;kudhibiti;s;mbinguni;kufunga;utegemezi;NA;qt;NA;3;NA;NA;NA;NA;NA;NA;NA;NA;NA;NA;NA;NA;NA;NA;NA;NA;NA;NA;NA;;;;
a247c;"""Falsch""-Screen";canvas.Screen;3_0_3_0_1_1_2;NA;NA;timeout;4999.54;517391;517378;517379.66;522362.88;522365;2023-05-07T09:34:52Z;522379.2;NULL;Kontrolle;kudhibiti;s;mbinguni;kufunga;utegemezi;NA;qt;0;3;NA;NA;NA;NA;NA;NA;NA;NA;NA;NA;NA;NA;NA;NA;NA;NA;NA;NA;NA;;;;
a247c;shallow;flow.Sequence;3_0_3_0_1_1;NA;NA;completion;14898.5;507474;507447.98;507464.38;522362.88;522366;2023-05-07T09:34:52Z;522379.2;NULL;Kontrolle;kudhibiti;s;mbinguni;kufunga;utegemezi;NA;qt;NA;3;NA;NA;NA;NA;NA;NA;NA;NA;NA;NA;NA;NA;NA;NA;NA;NA;NA;NA;NA;;;;
a247c;task;flow.Sequence;3_0_3_0_1;NA;NA;completion;14898.5;507474;507447.98;507464.38;522362.88;522367;2023-05-07T09:34:52Z;522379.2;NULL;Kontrolle;kudhibiti;s;mbinguni;kufunga;utegemezi;NA;qt;NA;3;NA;NA;NA;NA;NA;NA;NA;NA;NA;NA;NA;NA;NA;NA;NA;NA;NA;NA;NA;;;;
a247c;Deep;Question;html.Page;3_0_3_0_2_0_0;NA;NA;form;submission;5535.8;522368;522362.88;522379.2;527915;527916;2023-05-07T09:34:57Z;527928.54;NULL;Kreativität;ubunifu;d;NA;NA;NA;lkh;NA;NA;3;NA;NA;NA;NA;NA;NA;NA;NA;NA;NA;NA;NA;NA;NA;NA;NA;NA;NA;NA;;
a247c;"""Richtig""-Screen";canvas.Screen;3_0_3_0_2_0_1;NA;NA;skipped;NA;527918;NA;NA;527915;527918;2023-05-07T09:34:57Z;527928.54;NULL;Kreativität;ubunifu;d;NA;NA;NA;NA;qt;NA;3;NA;NA;NA;NA;NA;NA;NA;NA;NA;NA;NA;NA;NA;NA;NA;NA;NA;NA;NA;;;;
a247c;"""Falsch""-Screen";canvas.Screen;3_0_3_0_2_0_2;NA;NA;timeout;4999.48;527921;527912.54;527928.54;532911.56;532913;2023-05-07T09:35:02Z;532928.02;NULL;Kreativität;ubunifu;d;NA;NA;NA;NA;qt;0;3;NA;NA;NA;NA;NA;NA;NA;NA;NA;NA;NA;NA;NA;NA;NA;NA;NA;NA;NA;;;;
a247c;deep;flow.Sequence;3_0_3_0_2_0;NA;NA;completion;10532.36;522368;522362.88;522379.2;532911.56;532914;2023-05-07T09:35:02Z;532928.02;NULL;Kreativität;ubunifu;d;NA;NA;NA;NA;qt;NA;3;NA;NA;NA;NA;NA;NA;NA;NA;NA;NA;NA;NA;NA;NA;NA;NA;NA;NA;NA;;;;
a247c;shallow;flow.Sequence;3_0_3_0_2_1;NA;NA;skipped;NA;532915;NA;NA;532911.56;532915;2023-05-07T09:35:02Z;532928.02;NULL;Kreativität;ubunifu;d;NA;NA;NA;NA;qt;NA;3;NA;NA;NA;NA;NA;NA;NA;NA;NA;NA;NA;NA;NA;NA;NA;NA;NA;NA;NA;;;;
a247c;task;flow.Sequence;3_0_3_0_2;NA;NA;completion;10532.36;522368;522362.88;522379.2;532911.56;532916;2023-05-07T09:35:02Z;532928.02;NULL;Kreativität;ubunifu;d;NA;NA;NA;NA;qt;NA;3;NA;NA;NA;NA;NA;NA;NA;NA;NA;NA;NA;NA;NA;NA;NA;NA;NA;NA;NA;;;;
a247c;deep;flow.Sequence;3_0_3_0_3_0;NA;NA;skipped;NA;532917;NA;NA;532911.56;532917;2023-05-07T09:35:02Z;532928.02;NULL;Betrüger;mdanganyifu;s;mwanamuziki;wastani;mahakama;NA;qt;NA;3;NA;NA;NA;NA;NA;NA;NA;NA;NA;NA;NA;NA;NA;NA;NA;NA;NA;NA;NA;;;;
a247c;Shallow;Question;html.Page;3_0_3_0_3_1_0;NA;NA;form;submission;11212.98;532918;532911.56;532928.02;544141;544142;2023-05-07T09:35:13Z;544143.28;NULL;Betrüger;mdanganyifu;s;mwanamuziki;wastani;mahakama;mdanganyifu;NA;NA;3;NA;NA;NA;NA;NA;NA;NA;NA;NA;NA;NA;NA;NA;NA;NA;NA;NA;NA;NA;;
a247c;"""Richtig""-Screen";canvas.Screen;3_0_3_0_3_1_1;NA;NA;timeout;4999.34;544148;544133.96;544143.28;549126.08;549128;2023-05-07T09:35:18Z;549142.62;NULL;Betrüger;mdanganyifu;s;mwanamuziki;wastani;mahakama;NA;qt;1;3;NA;NA;NA;NA;NA;NA;NA;NA;NA;NA;NA;NA;NA;NA;NA;NA;NA;NA;NA;;;;
a247c;"""Falsch""-Screen";canvas.Screen;3_0_3_0_3_1_2;NA;NA;skipped;NA;549136;NA;NA;549126.08;549137;2023-05-07T09:35:18Z;549142.62;NULL;Betrüger;mdanganyifu;s;mwanamuziki;wastani;mahakama;NA;qt;NA;3;NA;NA;NA;NA;NA;NA;NA;NA;NA;NA;NA;NA;NA;NA;NA;NA;NA;NA;NA;;;;
a247c;shallow;flow.Sequence;3_0_3_0_3_1;NA;NA;completion;16198.06;532918;532911.56;532928.02;549126.08;549138;2023-05-07T09:35:18Z;549142.62;NULL;Betrüger;mdanganyifu;s;mwanamuziki;wastani;mahakama;NA;qt;NA;3;NA;NA;NA;NA;NA;NA;NA;NA;NA;NA;NA;NA;NA;NA;NA;NA;NA;NA;NA;;;;
a247c;task;flow.Sequence;3_0_3_0_3;NA;NA;completion;16198.06;532916;532911.56;532928.02;549126.08;549138;2023-05-07T09:35:18Z;549142.62;NULL;Betrüger;mdanganyifu;s;mwanamuziki;wastani;mahakama;NA;qt;NA;3;NA;NA;NA;NA;NA;NA;NA;NA;NA;NA;NA;NA;NA;NA;NA;NA;NA;NA;NA;;;;
a247c;Deep;Question;html.Page;3_0_3_0_4_0_0;NA;NA;form;submission;4999.38;549139;549126.08;549142.62;554142;554142;2023-05-07T09:35:23Z;554141.94;NULL;Orientierung;urekebisho;d;NA;NA;NA;sdf;NA;NA;3;NA;NA;NA;NA;NA;NA;NA;NA;NA;NA;NA;NA;NA;NA;NA;NA;NA;NA;NA;;
a247c;"""Richtig""-Screen";canvas.Screen;3_0_3_0_4_0_1;NA;NA;skipped;NA;554146;NA;NA;554142;554147;2023-05-07T09:35:23Z;554141.94;NULL;Orientierung;urekebisho;d;NA;NA;NA;NA;qt;NA;3;NA;NA;NA;NA;NA;NA;NA;NA;NA;NA;NA;NA;NA;NA;NA;NA;NA;NA;NA;;;;
a247c;"""Falsch""-Screen";canvas.Screen;3_0_3_0_4_0_2;NA;NA;timeout;4999.38;554149;554138.74;554141.94;559124.88;559127;2023-05-07T09:35:28Z;559141.32;NULL;Orientierung;urekebisho;d;NA;NA;NA;NA;qt;0;3;NA;NA;NA;NA;NA;NA;NA;NA;NA;NA;NA;NA;NA;NA;NA;NA;NA;NA;NA;;;;
a247c;deep;flow.Sequence;3_0_3_0_4_0;NA;NA;completion;9982.26;549139;549126.08;549142.62;559124.88;559129;2023-05-07T09:35:28Z;559141.32;NULL;Orientierung;urekebisho;d;NA;NA;NA;NA;qt;NA;3;NA;NA;NA;NA;NA;NA;NA;NA;NA;NA;NA;NA;NA;NA;NA;NA;NA;NA;NA;;;;
a247c;shallow;flow.Sequence;3_0_3_0_4_1;NA;NA;skipped;NA;559130;NA;NA;559124.88;559131;2023-05-07T09:35:28Z;559141.32;NULL;Orientierung;urekebisho;d;NA;NA;NA;NA;qt;NA;3;NA;NA;NA;NA;NA;NA;NA;NA;NA;NA;NA;NA;NA;NA;NA;NA;NA;NA;NA;;;;
a247c;task;flow.Sequence;3_0_3_0_4;NA;NA;completion;9982.26;549139;549126.08;549142.62;559124.88;559133;2023-05-07T09:35:28Z;559141.32;NULL;Orientierung;urekebisho;d;NA;NA;NA;NA;qt;NA;3;NA;NA;NA;NA;NA;NA;NA;NA;NA;NA;NA;NA;NA;NA;NA;NA;NA;NA;NA;;;;
a247c;deep;flow.Sequence;3_0_3_0_5_0;NA;NA;skipped;NA;559134;NA;NA;559124.88;559135;2023-05-07T09:35:28Z;559141.32;NULL;Stimmung;kinyongo;s;kilekile;kisambo;madhehebu;NA;qt;NA;3;NA;NA;NA;NA;NA;NA;NA;NA;NA;NA;NA;NA;NA;NA;NA;NA;NA;NA;NA;;;;
a247c;Shallow;Question;html.Page;3_0_3_0_5_1_0;NA;NA;form;submission;12870.68;559136;559124.88;559141.32;572012;572012;2023-05-07T09:35:41Z;572023.1;NULL;Stimmung;kinyongo;s;kilekile;kisambo;madhehebu;kinyongo;NA;NA;3;NA;NA;NA;NA;NA;NA;NA;NA;NA;NA;NA;NA;NA;NA;NA;NA;NA;NA;NA;;
a247c;"""Richtig""-Screen";canvas.Screen;3_0_3_0_5_1_1;NA;NA;timeout;4999.4;572016;572008.74;572023.1;577005.92;577007;2023-05-07T09:35:46Z;577022.5;NULL;Stimmung;kinyongo;s;kilekile;kisambo;madhehebu;NA;qt;1;3;NA;NA;NA;NA;NA;NA;NA;NA;NA;NA;NA;NA;NA;NA;NA;NA;NA;NA;NA;;;;
a247c;"""Falsch""-Screen";canvas.Screen;3_0_3_0_5_1_2;NA;NA;skipped;NA;577018;NA;NA;577005.92;577019;2023-05-07T09:35:46Z;577022.5;NULL;Stimmung;kinyongo;s;kilekile;kisambo;madhehebu;NA;qt;NA;3;NA;NA;NA;NA;NA;NA;NA;NA;NA;NA;NA;NA;NA;NA;NA;NA;NA;NA;NA;;;;
a247c;shallow;flow.Sequence;3_0_3_0_5_1;NA;NA;completion;17864.6;559136;559124.88;559141.32;577005.92;577021;2023-05-07T09:35:46Z;577022.5;NULL;Stimmung;kinyongo;s;kilekile;kisambo;madhehebu;NA;qt;NA;3;NA;NA;NA;NA;NA;NA;NA;NA;NA;NA;NA;NA;NA;NA;NA;NA;NA;NA;NA;;;;
a247c;task;flow.Sequence;3_0_3_0_5;NA;NA;completion;17864.6;559134;559124.88;559141.32;577005.92;577021;2023-05-07T09:35:46Z;577022.5;NULL;Stimmung;kinyongo;s;kilekile;kisambo;madhehebu;NA;qt;NA;3;NA;NA;NA;NA;NA;NA;NA;NA;NA;NA;NA;NA;NA;NA;NA;NA;NA;NA;NA;;;;
a247c;Deep;Question;html.Page;3_0_3_0_6_0_0;NA;NA;form;submission;5396.5;577023;577005.92;577022.5;582419;582419;2023-05-07T09:35:52Z;582421.68;NULL;Können;unaweza;d;NA;NA;NA;xzj;NA;NA;3;NA;NA;NA;NA;NA;NA;NA;NA;NA;NA;NA;NA;NA;NA;NA;NA;NA;NA;NA;;
a247c;"""Richtig""-Screen";canvas.Screen;3_0_3_0_6_0_1;NA;NA;skipped;NA;582421;NA;NA;582419;582421;2023-05-07T09:35:52Z;582421.68;NULL;Können;unaweza;d;NA;NA;NA;NA;qt;NA;3;NA;NA;NA;NA;NA;NA;NA;NA;NA;NA;NA;NA;NA;NA;NA;NA;NA;NA;NA;;;;
a247c;"""Falsch""-Screen";canvas.Screen;3_0_3_0_6_0_2;NA;NA;timeout;4999.48;582424;582417.22;582421.68;587404.46;587407;2023-05-07T09:35:57Z;587421.16;NULL;Können;unaweza;d;NA;NA;NA;NA;qt;0;3;NA;NA;NA;NA;NA;NA;NA;NA;NA;NA;NA;NA;NA;NA;NA;NA;NA;NA;NA;;;;
a247c;deep;flow.Sequence;3_0_3_0_6_0;NA;NA;completion;10381.96;577023;577005.92;577022.5;587404.46;587407;2023-05-07T09:35:57Z;587421.16;NULL;Können;unaweza;d;NA;NA;NA;NA;qt;NA;3;NA;NA;NA;NA;NA;NA;NA;NA;NA;NA;NA;NA;NA;NA;NA;NA;NA;NA;NA;;;;
a247c;shallow;flow.Sequence;3_0_3_0_6_1;NA;NA;skipped;NA;587408;NA;NA;587404.46;587408;2023-05-07T09:35:57Z;587421.16;NULL;Können;unaweza;d;NA;NA;NA;NA;qt;NA;3;NA;NA;NA;NA;NA;NA;NA;NA;NA;NA;NA;NA;NA;NA;NA;NA;NA;NA;NA;;;;
a247c;task;flow.Sequence;3_0_3_0_6;NA;NA;completion;10381.96;577021;577005.92;577022.5;587404.46;587409;2023-05-07T09:35:57Z;587421.16;NULL;Können;unaweza;d;NA;NA;NA;NA;qt;NA;3;NA;NA;NA;NA;NA;NA;NA;NA;NA;NA;NA;NA;NA;NA;NA;NA;NA;NA;NA;;;;
a247c;Deep;Question;html.Page;3_0_3_0_7_0_0;NA;NA;form;submission;9945.84;587410;587404.46;587421.16;597367;597368;2023-05-07T09:36:07Z;597369.8;NULL;Respekt;heshima;d;NA;NA;NA;ukushima;NA;NA;3;NA;NA;NA;NA;NA;NA;NA;NA;NA;NA;NA;NA;NA;NA;NA;NA;NA;NA;NA;;
a247c;"""Richtig""-Screen";canvas.Screen;3_0_3_0_7_0_1;NA;NA;skipped;NA;597373;NA;NA;597367;597374;2023-05-07T09:36:07Z;597369.8;NULL;Respekt;heshima;d;NA;NA;NA;NA;qt;NA;3;NA;NA;NA;NA;NA;NA;NA;NA;NA;NA;NA;NA;NA;NA;NA;NA;NA;NA;NA;;;;
a247c;"""Falsch""-Screen";canvas.Screen;3_0_3_0_7_0_2;NA;NA;timeout;4999.5;597378;597364.74;597369.8;602352.62;602355;2023-05-07T09:36:12Z;602369.3;NULL;Respekt;heshima;d;NA;NA;NA;NA;qt;0;3;NA;NA;NA;NA;NA;NA;NA;NA;NA;NA;NA;NA;NA;NA;NA;NA;NA;NA;NA;;;;
a247c;deep;flow.Sequence;3_0_3_0_7_0;NA;NA;completion;14931.46;587410;587404.46;587421.16;602352.62;602357;2023-05-07T09:36:12Z;602369.3;NULL;Respekt;heshima;d;NA;NA;NA;NA;qt;NA;3;NA;NA;NA;NA;NA;NA;NA;NA;NA;NA;NA;NA;NA;NA;NA;NA;NA;NA;NA;;;;
a247c;shallow;flow.Sequence;3_0_3_0_7_1;NA;NA;skipped;NA;602357;NA;NA;602352.62;602359;2023-05-07T09:36:12Z;602369.3;NULL;Respekt;heshima;d;NA;NA;NA;NA;qt;NA;3;NA;NA;NA;NA;NA;NA;NA;NA;NA;NA;NA;NA;NA;NA;NA;NA;NA;NA;NA;;;;
a247c;task;flow.Sequence;3_0_3_0_7;NA;NA;completion;14931.46;587410;587404.46;587421.16;602352.62;602361;2023-05-07T09:36:12Z;602369.3;NULL;Respekt;heshima;d;NA;NA;NA;NA;qt;NA;3;NA;NA;NA;NA;NA;NA;NA;NA;NA;NA;NA;NA;NA;NA;NA;NA;NA;NA;NA;;;;
a247c;block;flow.Loop;3_0_3_0;NA;NA;completion;107153.48;495199;495198.84;495199.14;602352.62;602362;2023-05-07T09:36:12Z;602369.3;NULL;NA;NA;NA;NA;NA;NA;NA;qt;NA;3;NA;NA;NA;NA;NA;NA;NA;NA;NA;NA;NA;NA;NA;NA;NA;NA;NA;NA;NA;;;;
a247c;weiter;canvas.Screen;3_0_3_1;sdf;keypress(Space);response;1167.7;602363;602352.62;602369.3;603537;603552;2023-05-07T09:36:13Z;603625.58;NULL;NA;NA;NA;NA;NA;NA;NA;qt;NA;3;NA;NA;NA;NA;NA;NA;NA;NA;NA;NA;NA;NA;NA;NA;NA;NA;NA;NA;NA;;;;
a247c;check;continue;flow.Sequence;3_0_3;NA;NA;completion;108337.86;495199;495198.84;495199.14;603537;603553;2023-05-07T09:36:13Z;603625.58;NULL;NA;NA;NA;NA;NA;NA;NA;qt;NA;3;NA;NA;NA;NA;NA;NA;NA;NA;NA;NA;NA;NA;NA;NA;NA;NA;NA;NA;NA;;;
a247c;deep;flow.Sequence;3_0_4_0_0_0;NA;NA;skipped;NA;603625;NA;NA;603537;603625;2023-05-07T09:36:13Z;603625.58;NULL;Betrüger;mdanganyifu;s;mwanamuziki;wastani;mahakama;NA;sd;NA;4;NA;NA;NA;NA;NA;NA;NA;NA;NA;NA;NA;NA;NA;NA;NA;NA;NA;NA;NA;;;;
a247c;Shallow;Question;html.Page;3_0_4_0_0_1_0;NA;NA;form;submission;11538.42;603625;603625.26;603625.58;615164;615167;2023-05-07T09:36:24Z;615167.58;NULL;Betrüger;mdanganyifu;s;mwanamuziki;wastani;mahakama;mdanganyifu;NA;NA;4;NA;NA;NA;NA;NA;NA;NA;NA;NA;NA;NA;NA;NA;NA;NA;NA;NA;NA;NA;;
a247c;"""Richtig""-Screen";canvas.Screen;3_0_4_0_0_1_1;NA;NA;timeout;4999.24;615179;615151;615167.58;620150.46;620152;2023-05-07T09:36:29Z;620166.82;NULL;Betrüger;mdanganyifu;s;mwanamuziki;wastani;mahakama;NA;sd;1;4;NA;NA;NA;NA;NA;NA;NA;NA;NA;NA;NA;NA;NA;NA;NA;NA;NA;NA;NA;;;;
a247c;"""Falsch""-Screen";canvas.Screen;3_0_4_0_0_1_2;NA;NA;skipped;NA;620165;NA;NA;620150.46;620166;2023-05-07T09:36:29Z;620166.82;NULL;Betrüger;mdanganyifu;s;mwanamuziki;wastani;mahakama;NA;sd;NA;4;NA;NA;NA;NA;NA;NA;NA;NA;NA;NA;NA;NA;NA;NA;NA;NA;NA;NA;NA;;;;
a247c;shallow;flow.Sequence;3_0_4_0_0_1;NA;NA;completion;16524.88;603625;603625.26;603625.58;620150.46;620166;2023-05-07T09:36:29Z;620166.82;NULL;Betrüger;mdanganyifu;s;mwanamuziki;wastani;mahakama;NA;sd;NA;4;NA;NA;NA;NA;NA;NA;NA;NA;NA;NA;NA;NA;NA;NA;NA;NA;NA;NA;NA;;;;
a247c;task;flow.Sequence;3_0_4_0_0;NA;NA;completion;16524.88;603625;603625.26;603625.58;620150.46;620167;2023-05-07T09:36:29Z;620166.82;NULL;Betrüger;mdanganyifu;s;mwanamuziki;wastani;mahakama;NA;sd;NA;4;NA;NA;NA;NA;NA;NA;NA;NA;NA;NA;NA;NA;NA;NA;NA;NA;NA;NA;NA;;;;
a247c;deep;flow.Sequence;3_0_4_0_1_0;NA;NA;skipped;NA;620169;NA;NA;620150.46;620169;2023-05-07T09:36:29Z;620166.82;NULL;Kontrolle;kudhibiti;s;mbinguni;kufunga;utegemezi;NA;sd;NA;4;NA;NA;NA;NA;NA;NA;NA;NA;NA;NA;NA;NA;NA;NA;NA;NA;NA;NA;NA;;;;
a247c;Shallow;Question;html.Page;3_0_4_0_1_1_0;NA;NA;form;submission;12569.18;620170;620150.46;620166.82;632736;632737;2023-05-07T09:36:42Z;632732.1;NULL;Kontrolle;kudhibiti;s;mbinguni;kufunga;utegemezi;kudhibiti;NA;NA;4;NA;NA;NA;NA;NA;NA;NA;NA;NA;NA;NA;NA;NA;NA;NA;NA;NA;NA;NA;;
a247c;"""Richtig""-Screen";canvas.Screen;3_0_4_0_1_1_1;NA;NA;timeout;4999.36;632744;632727.46;632732.1;637715.04;637716;2023-05-07T09:36:47Z;637731.46;NULL;Kontrolle;kudhibiti;s;mbinguni;kufunga;utegemezi;NA;sd;1;4;NA;NA;NA;NA;NA;NA;NA;NA;NA;NA;NA;NA;NA;NA;NA;NA;NA;NA;NA;;;;
a247c;"""Falsch""-Screen";canvas.Screen;3_0_4_0_1_1_2;NA;NA;skipped;NA;637727;NA;NA;637715.04;637728;2023-05-07T09:36:47Z;637731.46;NULL;Kontrolle;kudhibiti;s;mbinguni;kufunga;utegemezi;NA;sd;NA;4;NA;NA;NA;NA;NA;NA;NA;NA;NA;NA;NA;NA;NA;NA;NA;NA;NA;NA;NA;;;;
a247c;shallow;flow.Sequence;3_0_4_0_1_1;NA;NA;completion;17548.22;620169;620150.46;620166.82;637715.04;637729;2023-05-07T09:36:47Z;637731.46;NULL;Kontrolle;kudhibiti;s;mbinguni;kufunga;utegemezi;NA;sd;NA;4;NA;NA;NA;NA;NA;NA;NA;NA;NA;NA;NA;NA;NA;NA;NA;NA;NA;NA;NA;;;;
a247c;task;flow.Sequence;3_0_4_0_1;NA;NA;completion;17548.22;620169;620150.46;620166.82;637715.04;637730;2023-05-07T09:36:47Z;637731.46;NULL;Kontrolle;kudhibiti;s;mbinguni;kufunga;utegemezi;NA;sd;NA;4;NA;NA;NA;NA;NA;NA;NA;NA;NA;NA;NA;NA;NA;NA;NA;NA;NA;NA;NA;;;;
a247c;Deep;Question;html.Page;3_0_4_0_2_0_0;NA;NA;form;submission;5991.54;637731;637715.04;637731.46;643723;643723;2023-05-07T09:36:53Z;643747.36;NULL;Können;unaweza;d;NA;NA;NA;heshima;NA;NA;4;NA;NA;NA;NA;NA;NA;NA;NA;NA;NA;NA;NA;NA;NA;NA;NA;NA;NA;NA;;
a247c;"""Richtig""-Screen";canvas.Screen;3_0_4_0_2_0_1;NA;NA;skipped;NA;643726;NA;NA;643723;643726;2023-05-07T09:36:53Z;643747.36;NULL;Können;unaweza;d;NA;NA;NA;NA;sd;NA;4;NA;NA;NA;NA;NA;NA;NA;NA;NA;NA;NA;NA;NA;NA;NA;NA;NA;NA;NA;;;;
a247c;"""Falsch""-Screen";canvas.Screen;3_0_4_0_2_0_2;NA;NA;timeout;4999.52;643729;643730.6;643747.36;648730.12;648731;2023-05-07T09:36:58Z;648746.88;NULL;Können;unaweza;d;NA;NA;NA;NA;sd;0;4;NA;NA;NA;NA;NA;NA;NA;NA;NA;NA;NA;NA;NA;NA;NA;NA;NA;NA;NA;;;;
a247c;deep;flow.Sequence;3_0_4_0_2_0;NA;NA;completion;10998.66;637731;637715.04;637731.46;648730.12;648732;2023-05-07T09:36:58Z;648746.88;NULL;Können;unaweza;d;NA;NA;NA;NA;sd;NA;4;NA;NA;NA;NA;NA;NA;NA;NA;NA;NA;NA;NA;NA;NA;NA;NA;NA;NA;NA;;;;
a247c;shallow;flow.Sequence;3_0_4_0_2_1;NA;NA;skipped;NA;648732;NA;NA;648730.12;648732;2023-05-07T09:36:58Z;648746.88;NULL;Können;unaweza;d;NA;NA;NA;NA;sd;NA;4;NA;NA;NA;NA;NA;NA;NA;NA;NA;NA;NA;NA;NA;NA;NA;NA;NA;NA;NA;;;;
a247c;task;flow.Sequence;3_0_4_0_2;NA;NA;completion;10998.66;637730;637715.04;637731.46;648730.12;648732;2023-05-07T09:36:58Z;648746.88;NULL;Können;unaweza;d;NA;NA;NA;NA;sd;NA;4;NA;NA;NA;NA;NA;NA;NA;NA;NA;NA;NA;NA;NA;NA;NA;NA;NA;NA;NA;;;;
a247c;deep;flow.Sequence;3_0_4_0_3_0;NA;NA;skipped;NA;648732;NA;NA;648730.12;648733;2023-05-07T09:36:58Z;648746.88;NULL;Stimmung;kinyongo;s;kilekile;kisambo;madhehebu;NA;sd;NA;4;NA;NA;NA;NA;NA;NA;NA;NA;NA;NA;NA;NA;NA;NA;NA;NA;NA;NA;NA;;;;
a247c;Shallow;Question;html.Page;3_0_4_0_3_1_0;NA;NA;form;submission;8874.12;648733;648730.12;648746.88;657621;657622;2023-05-07T09:37:07Z;657628.84;NULL;Stimmung;kinyongo;s;kilekile;kisambo;madhehebu;kinyongo;NA;NA;4;NA;NA;NA;NA;NA;NA;NA;NA;NA;NA;NA;NA;NA;NA;NA;NA;NA;NA;NA;;
a247c;"""Richtig""-Screen";canvas.Screen;3_0_4_0_3_1_1;NA;NA;timeout;4999.4;657624;657619.72;657628.84;662611.66;662613;2023-05-07T09:37:12Z;662628.24;NULL;Stimmung;kinyongo;s;kilekile;kisambo;madhehebu;NA;sd;1;4;NA;NA;NA;NA;NA;NA;NA;NA;NA;NA;NA;NA;NA;NA;NA;NA;NA;NA;NA;;;;
a247c;"""Falsch""-Screen";canvas.Screen;3_0_4_0_3_1_2;NA;NA;skipped;NA;662621;NA;NA;662611.66;662622;2023-05-07T09:37:12Z;662628.24;NULL;Stimmung;kinyongo;s;kilekile;kisambo;madhehebu;NA;sd;NA;4;NA;NA;NA;NA;NA;NA;NA;NA;NA;NA;NA;NA;NA;NA;NA;NA;NA;NA;NA;;;;
a247c;shallow;flow.Sequence;3_0_4_0_3_1;NA;NA;completion;13864.78;648733;648730.12;648746.88;662611.66;662622;2023-05-07T09:37:12Z;662628.24;NULL;Stimmung;kinyongo;s;kilekile;kisambo;madhehebu;NA;sd;NA;4;NA;NA;NA;NA;NA;NA;NA;NA;NA;NA;NA;NA;NA;NA;NA;NA;NA;NA;NA;;;;
a247c;task;flow.Sequence;3_0_4_0_3;NA;NA;completion;13864.78;648732;648730.12;648746.88;662611.66;662622;2023-05-07T09:37:12Z;662628.24;NULL;Stimmung;kinyongo;s;kilekile;kisambo;madhehebu;NA;sd;NA;4;NA;NA;NA;NA;NA;NA;NA;NA;NA;NA;NA;NA;NA;NA;NA;NA;NA;NA;NA;;;;
a247c;deep;flow.Sequence;3_0_4_0_4_0;NA;NA;skipped;NA;662623;NA;NA;662611.66;662623;2023-05-07T09:37:12Z;662628.24;NULL;Gefährdung;kuhatarisha;s;uchokozi;udhaifu;makorowezo;NA;sd;NA;4;NA;NA;NA;NA;NA;NA;NA;NA;NA;NA;NA;NA;NA;NA;NA;NA;NA;NA;NA;;;;
a247c;Shallow;Question;html.Page;3_0_4_0_4_1_0;NA;NA;form;submission;8919.76;662623;662611.66;662628.24;671548;671549;2023-05-07T09:37:21Z;671560.4;NULL;Gefährdung;kuhatarisha;s;uchokozi;udhaifu;makorowezo;kuhatarisha;NA;NA;4;NA;NA;NA;NA;NA;NA;NA;NA;NA;NA;NA;NA;NA;NA;NA;NA;NA;NA;NA;;
a247c;"""Richtig""-Screen";canvas.Screen;3_0_4_0_4_1_1;NA;NA;timeout;4999.46;671552;671545.92;671560.4;676543.42;676545;2023-05-07T09:37:26Z;676559.86;NULL;Gefährdung;kuhatarisha;s;uchokozi;udhaifu;makorowezo;NA;sd;1;4;NA;NA;NA;NA;NA;NA;NA;NA;NA;NA;NA;NA;NA;NA;NA;NA;NA;NA;NA;;;;
a247c;"""Falsch""-Screen";canvas.Screen;3_0_4_0_4_1_2;NA;NA;skipped;NA;676553;NA;NA;676543.42;676554;2023-05-07T09:37:26Z;676559.86;NULL;Gefährdung;kuhatarisha;s;uchokozi;udhaifu;makorowezo;NA;sd;NA;4;NA;NA;NA;NA;NA;NA;NA;NA;NA;NA;NA;NA;NA;NA;NA;NA;NA;NA;NA;;;;
a247c;shallow;flow.Sequence;3_0_4_0_4_1;NA;NA;completion;13915.18;662623;662611.66;662628.24;676543.42;676554;2023-05-07T09:37:26Z;676559.86;NULL;Gefährdung;kuhatarisha;s;uchokozi;udhaifu;makorowezo;NA;sd;NA;4;NA;NA;NA;NA;NA;NA;NA;NA;NA;NA;NA;NA;NA;NA;NA;NA;NA;NA;NA;;;;
a247c;task;flow.Sequence;3_0_4_0_4;NA;NA;completion;13915.18;662623;662611.66;662628.24;676543.42;676555;2023-05-07T09:37:26Z;676559.86;NULL;Gefährdung;kuhatarisha;s;uchokozi;udhaifu;makorowezo;NA;sd;NA;4;NA;NA;NA;NA;NA;NA;NA;NA;NA;NA;NA;NA;NA;NA;NA;NA;NA;NA;NA;;;;
a247c;Deep;Question;html.Page;3_0_4_0_5_0_0;NA;NA;form;submission;5686.14;676556;676543.42;676559.86;682246;682247;2023-05-07T09:37:31Z;682259.12;NULL;Orientierung;urekebisho;d;NA;NA;NA;cgh;NA;NA;4;NA;NA;NA;NA;NA;NA;NA;NA;NA;NA;NA;NA;NA;NA;NA;NA;NA;NA;NA;;
a247c;"""Richtig""-Screen";canvas.Screen;3_0_4_0_5_0_1;NA;NA;skipped;NA;682251;NA;NA;682246;682252;2023-05-07T09:37:31Z;682259.12;NULL;Orientierung;urekebisho;d;NA;NA;NA;NA;sd;NA;4;NA;NA;NA;NA;NA;NA;NA;NA;NA;NA;NA;NA;NA;NA;NA;NA;NA;NA;NA;;;;
a247c;"""Falsch""-Screen";canvas.Screen;3_0_4_0_5_0_2;NA;NA;timeout;4999.48;682255;682243.96;682259.12;687242.02;687243;2023-05-07T09:37:36Z;687258.6;NULL;Orientierung;urekebisho;d;NA;NA;NA;NA;sd;0;4;NA;NA;NA;NA;NA;NA;NA;NA;NA;NA;NA;NA;NA;NA;NA;NA;NA;NA;NA;;;;
a247c;deep;flow.Sequence;3_0_4_0_5_0;NA;NA;completion;10682.16;676556;676543.42;676559.86;687242.02;687245;2023-05-07T09:37:36Z;687258.6;NULL;Orientierung;urekebisho;d;NA;NA;NA;NA;sd;NA;4;NA;NA;NA;NA;NA;NA;NA;NA;NA;NA;NA;NA;NA;NA;NA;NA;NA;NA;NA;;;;
a247c;shallow;flow.Sequence;3_0_4_0_5_1;NA;NA;skipped;NA;687245;NA;NA;687242.02;687246;2023-05-07T09:37:36Z;687258.6;NULL;Orientierung;urekebisho;d;NA;NA;NA;NA;sd;NA;4;NA;NA;NA;NA;NA;NA;NA;NA;NA;NA;NA;NA;NA;NA;NA;NA;NA;NA;NA;;;;
a247c;task;flow.Sequence;3_0_4_0_5;NA;NA;completion;10682.16;676555;676543.42;676559.86;687242.02;687246;2023-05-07T09:37:36Z;687258.6;NULL;Orientierung;urekebisho;d;NA;NA;NA;NA;sd;NA;4;NA;NA;NA;NA;NA;NA;NA;NA;NA;NA;NA;NA;NA;NA;NA;NA;NA;NA;NA;;;;
a247c;Deep;Question;html.Page;3_0_4_0_6_0_0;NA;NA;form;submission;4735.4;687247;687242.02;687258.6;691994;691995;2023-05-07T09:37:41Z;692007.78;NULL;Kreativität;ubunifu;d;NA;NA;NA;x;gf;NA;NA;4;NA;NA;NA;NA;NA;NA;NA;NA;NA;NA;NA;NA;NA;NA;NA;NA;NA;NA;NA;
a247c;"""Richtig""-Screen";canvas.Screen;3_0_4_0_6_0_1;NA;NA;skipped;NA;692001;NA;NA;691994;692001;2023-05-07T09:37:41Z;692007.78;NULL;Kreativität;ubunifu;d;NA;NA;NA;NA;sd;NA;4;NA;NA;NA;NA;NA;NA;NA;NA;NA;NA;NA;NA;NA;NA;NA;NA;NA;NA;NA;;;;
a247c;"""Falsch""-Screen";canvas.Screen;3_0_4_0_6_0_2;NA;NA;timeout;4999.46;692007;691988.74;692007.78;696990.64;696992;2023-05-07T09:37:46Z;697007.24;NULL;Kreativität;ubunifu;d;NA;NA;NA;NA;sd;0;4;NA;NA;NA;NA;NA;NA;NA;NA;NA;NA;NA;NA;NA;NA;NA;NA;NA;NA;NA;;;;
a247c;deep;flow.Sequence;3_0_4_0_6_0;NA;NA;completion;9732.04;687247;687242.02;687258.6;696990.64;696993;2023-05-07T09:37:46Z;697007.24;NULL;Kreativität;ubunifu;d;NA;NA;NA;NA;sd;NA;4;NA;NA;NA;NA;NA;NA;NA;NA;NA;NA;NA;NA;NA;NA;NA;NA;NA;NA;NA;;;;
a247c;shallow;flow.Sequence;3_0_4_0_6_1;NA;NA;skipped;NA;696994;NA;NA;696990.64;696994;2023-05-07T09:37:46Z;697007.24;NULL;Kreativität;ubunifu;d;NA;NA;NA;NA;sd;NA;4;NA;NA;NA;NA;NA;NA;NA;NA;NA;NA;NA;NA;NA;NA;NA;NA;NA;NA;NA;;;;
a247c;task;flow.Sequence;3_0_4_0_6;NA;NA;completion;9732.04;687247;687242.02;687258.6;696990.64;696994;2023-05-07T09:37:46Z;697007.24;NULL;Kreativität;ubunifu;d;NA;NA;NA;NA;sd;NA;4;NA;NA;NA;NA;NA;NA;NA;NA;NA;NA;NA;NA;NA;NA;NA;NA;NA;NA;NA;;;;
a247c;Deep;Question;html.Page;3_0_4_0_7_0_0;NA;NA;form;submission;7697.76;696994;696990.64;697007.24;704705;704705;2023-05-07T09:37:54Z;704706.28;NULL;Respekt;heshima;d;NA;NA;NA;heshima;NA;NA;4;NA;NA;NA;NA;NA;NA;NA;NA;NA;NA;NA;NA;NA;NA;NA;NA;NA;NA;NA;;
a247c;"""Richtig""-Screen";canvas.Screen;3_0_4_0_7_0_1;NA;NA;timeout;4999.18;704712;704699.72;704706.28;709688.88;709690;2023-05-07T09:37:59Z;709705.46;NULL;Respekt;heshima;d;NA;NA;NA;NA;sd;1;4;NA;NA;NA;NA;NA;NA;NA;NA;NA;NA;NA;NA;NA;NA;NA;NA;NA;NA;NA;;;;
a247c;"""Falsch""-Screen";canvas.Screen;3_0_4_0_7_0_2;NA;NA;skipped;NA;709697;NA;NA;709688.88;709698;2023-05-07T09:37:59Z;709705.46;NULL;Respekt;heshima;d;NA;NA;NA;NA;sd;NA;4;NA;NA;NA;NA;NA;NA;NA;NA;NA;NA;NA;NA;NA;NA;NA;NA;NA;NA;NA;;;;
a247c;deep;flow.Sequence;3_0_4_0_7_0;NA;NA;completion;12681.64;696994;696990.64;697007.24;709688.88;709699;2023-05-07T09:37:59Z;709705.46;NULL;Respekt;heshima;d;NA;NA;NA;NA;sd;NA;4;NA;NA;NA;NA;NA;NA;NA;NA;NA;NA;NA;NA;NA;NA;NA;NA;NA;NA;NA;;;;
a247c;shallow;flow.Sequence;3_0_4_0_7_1;NA;NA;skipped;NA;709699;NA;NA;709688.88;709699;2023-05-07T09:37:59Z;709705.46;NULL;Respekt;heshima;d;NA;NA;NA;NA;sd;NA;4;NA;NA;NA;NA;NA;NA;NA;NA;NA;NA;NA;NA;NA;NA;NA;NA;NA;NA;NA;;;;
a247c;task;flow.Sequence;3_0_4_0_7;NA;NA;completion;12681.64;696994;696990.64;697007.24;709688.88;709699;2023-05-07T09:37:59Z;709705.46;NULL;Respekt;heshima;d;NA;NA;NA;NA;sd;NA;4;NA;NA;NA;NA;NA;NA;NA;NA;NA;NA;NA;NA;NA;NA;NA;NA;NA;NA;NA;;;;
a247c;block;flow.Loop;3_0_4_0;NA;NA;completion;106063.3;603625;603625.26;603625.58;709688.88;709700;2023-05-07T09:37:59Z;709705.46;NULL;NA;NA;NA;NA;NA;NA;NA;sd;NA;4;NA;NA;NA;NA;NA;NA;NA;NA;NA;NA;NA;NA;NA;NA;NA;NA;NA;NA;NA;;;;
a247c;weiter;canvas.Screen;3_0_4_1;sdf;keypress(Space);response;1378.54;709700;709688.88;709705.46;711084;711096;2023-05-07T09:38:00Z;711174.16;NULL;NA;NA;NA;NA;NA;NA;NA;sd;NA;4;NA;NA;NA;NA;NA;NA;NA;NA;NA;NA;NA;NA;NA;NA;NA;NA;NA;NA;NA;;;;
a247c;check;continue;flow.Sequence;3_0_4;NA;NA;completion;107458.42;603625;603625.26;603625.58;711084;711101;2023-05-07T09:38:00Z;711174.16;NULL;NA;NA;NA;NA;NA;NA;NA;sd;NA;4;NA;NA;NA;NA;NA;NA;NA;NA;NA;NA;NA;NA;NA;NA;NA;NA;NA;NA;NA;;;
a247c;deep;flow.Sequence;3_0_5_0_0_0;NA;NA;skipped;NA;711173;NA;NA;711084;711174;2023-05-07T09:38:00Z;711174.16;NULL;Gefährdung;kuhatarisha;s;uchokozi;udhaifu;makorowezo;NA;sdf;NA;5;NA;NA;NA;NA;NA;NA;NA;NA;NA;NA;NA;NA;NA;NA;NA;NA;NA;NA;NA;;;;
a247c;Shallow;Question;html.Page;3_0_5_0_0_1_0;NA;NA;form;submission;6584.84;711174;711173.84;711174.16;717759;717760;2023-05-07T09:38:07Z;717754.56;NULL;Gefährdung;kuhatarisha;s;uchokozi;udhaifu;makorowezo;kuhatarisha;NA;NA;5;NA;NA;NA;NA;NA;NA;NA;NA;NA;NA;NA;NA;NA;NA;NA;NA;NA;NA;NA;;
a247c;"""Richtig""-Screen";canvas.Screen;3_0_5_0_0_1_1;NA;NA;timeout;4999.3;717766;717753.4;717754.56;722737.36;722739;2023-05-07T09:38:12Z;722753.86;NULL;Gefährdung;kuhatarisha;s;uchokozi;udhaifu;makorowezo;NA;sdf;1;5;NA;NA;NA;NA;NA;NA;NA;NA;NA;NA;NA;NA;NA;NA;NA;NA;NA;NA;NA;;;;
a247c;"""Falsch""-Screen";canvas.Screen;3_0_5_0_0_1_2;NA;NA;skipped;NA;722747;NA;NA;722737.36;722747;2023-05-07T09:38:12Z;722753.86;NULL;Gefährdung;kuhatarisha;s;uchokozi;udhaifu;makorowezo;NA;sdf;NA;5;NA;NA;NA;NA;NA;NA;NA;NA;NA;NA;NA;NA;NA;NA;NA;NA;NA;NA;NA;;;;
a247c;shallow;flow.Sequence;3_0_5_0_0_1;NA;NA;completion;11563.2;711174;711173.84;711174.16;722737.36;722748;2023-05-07T09:38:12Z;722753.86;NULL;Gefährdung;kuhatarisha;s;uchokozi;udhaifu;makorowezo;NA;sdf;NA;5;NA;NA;NA;NA;NA;NA;NA;NA;NA;NA;NA;NA;NA;NA;NA;NA;NA;NA;NA;;;;
a247c;task;flow.Sequence;3_0_5_0_0;NA;NA;completion;11563.2;711173;711173.84;711174.16;722737.36;722749;2023-05-07T09:38:12Z;722753.86;NULL;Gefährdung;kuhatarisha;s;uchokozi;udhaifu;makorowezo;NA;sdf;NA;5;NA;NA;NA;NA;NA;NA;NA;NA;NA;NA;NA;NA;NA;NA;NA;NA;NA;NA;NA;;;;
a247c;deep;flow.Sequence;3_0_5_0_1_0;NA;NA;skipped;NA;722750;NA;NA;722737.36;722750;2023-05-07T09:38:12Z;722753.86;NULL;Stimmung;kinyongo;s;kilekile;kisambo;madhehebu;NA;sdf;NA;5;NA;NA;NA;NA;NA;NA;NA;NA;NA;NA;NA;NA;NA;NA;NA;NA;NA;NA;NA;;;;
a247c;Shallow;Question;html.Page;3_0_5_0_1_1_0;NA;NA;form;submission;7177.14;722751;722737.36;722753.86;729931;729931;2023-05-07T09:38:19Z;729936.32;NULL;Stimmung;kinyongo;s;kilekile;kisambo;madhehebu;kinyongo;NA;NA;5;NA;NA;NA;NA;NA;NA;NA;NA;NA;NA;NA;NA;NA;NA;NA;NA;NA;NA;NA;;
a247c;"""Richtig""-Screen";canvas.Screen;3_0_5_0_1_1_1;NA;NA;timeout;4999.3;729937;729925.66;729936.32;734919.2;734922;2023-05-07T09:38:24Z;734935.62;NULL;Stimmung;kinyongo;s;kilekile;kisambo;madhehebu;NA;sdf;1;5;NA;NA;NA;NA;NA;NA;NA;NA;NA;NA;NA;NA;NA;NA;NA;NA;NA;NA;NA;;;;
a247c;"""Falsch""-Screen";canvas.Screen;3_0_5_0_1_1_2;NA;NA;skipped;NA;734929;NA;NA;734919.2;734929;2023-05-07T09:38:24Z;734935.62;NULL;Stimmung;kinyongo;s;kilekile;kisambo;madhehebu;NA;sdf;NA;5;NA;NA;NA;NA;NA;NA;NA;NA;NA;NA;NA;NA;NA;NA;NA;NA;NA;NA;NA;;;;
a247c;shallow;flow.Sequence;3_0_5_0_1_1;NA;NA;completion;12165.34;722751;722737.36;722753.86;734919.2;734930;2023-05-07T09:38:24Z;734935.62;NULL;Stimmung;kinyongo;s;kilekile;kisambo;madhehebu;NA;sdf;NA;5;NA;NA;NA;NA;NA;NA;NA;NA;NA;NA;NA;NA;NA;NA;NA;NA;NA;NA;NA;;;;
a247c;task;flow.Sequence;3_0_5_0_1;NA;NA;completion;12165.34;722750;722737.36;722753.86;734919.2;734931;2023-05-07T09:38:24Z;734935.62;NULL;Stimmung;kinyongo;s;kilekile;kisambo;madhehebu;NA;sdf;NA;5;NA;NA;NA;NA;NA;NA;NA;NA;NA;NA;NA;NA;NA;NA;NA;NA;NA;NA;NA;;;;
a247c;Deep;Question;html.Page;3_0_5_0_2_0_0;NA;NA;form;submission;10414.38;734931;734919.2;734935.62;745350;745350;2023-05-07T09:38:35Z;745351.14;NULL;Können;unaweza;d;NA;NA;NA;un;NA;NA;5;NA;NA;NA;NA;NA;NA;NA;NA;NA;NA;NA;NA;NA;NA;NA;NA;NA;NA;NA;;
a247c;"""Richtig""-Screen";canvas.Screen;3_0_5_0_2_0_1;NA;NA;skipped;NA;745355;NA;NA;745350;745355;2023-05-07T09:38:35Z;745351.14;NULL;Können;unaweza;d;NA;NA;NA;NA;sdf;NA;5;NA;NA;NA;NA;NA;NA;NA;NA;NA;NA;NA;NA;NA;NA;NA;NA;NA;NA;NA;;;;
a247c;"""Falsch""-Screen";canvas.Screen;3_0_5_0_2_0_2;NA;NA;timeout;4999.34;745360;745344.18;745351.14;750333.92;750335;2023-05-07T09:38:40Z;750350.48;NULL;Können;unaweza;d;NA;NA;NA;NA;sdf;0;5;NA;NA;NA;NA;NA;NA;NA;NA;NA;NA;NA;NA;NA;NA;NA;NA;NA;NA;NA;;;;
a247c;deep;flow.Sequence;3_0_5_0_2_0;NA;NA;completion;15398.3;734931;734919.2;734935.62;750333.92;750336;2023-05-07T09:38:40Z;750350.48;NULL;Können;unaweza;d;NA;NA;NA;NA;sdf;NA;5;NA;NA;NA;NA;NA;NA;NA;NA;NA;NA;NA;NA;NA;NA;NA;NA;NA;NA;NA;;;;
a247c;shallow;flow.Sequence;3_0_5_0_2_1;NA;NA;skipped;NA;750336;NA;NA;750333.92;750337;2023-05-07T09:38:40Z;750350.48;NULL;Können;unaweza;d;NA;NA;NA;NA;sdf;NA;5;NA;NA;NA;NA;NA;NA;NA;NA;NA;NA;NA;NA;NA;NA;NA;NA;NA;NA;NA;;;;
a247c;task;flow.Sequence;3_0_5_0_2;NA;NA;completion;15398.3;734931;734919.2;734935.62;750333.92;750337;2023-05-07T09:38:40Z;750350.48;NULL;Können;unaweza;d;NA;NA;NA;NA;sdf;NA;5;NA;NA;NA;NA;NA;NA;NA;NA;NA;NA;NA;NA;NA;NA;NA;NA;NA;NA;NA;;;;
a247c;Deep;Question;html.Page;3_0_5_0_3_0_0;NA;NA;form;submission;5490.52;750338;750333.92;750350.48;755841;755842;2023-05-07T09:38:45Z;755849.78;NULL;Orientierung;urekebisho;d;NA;NA;NA;ydfg;NA;NA;5;NA;NA;NA;NA;NA;NA;NA;NA;NA;NA;NA;NA;NA;NA;NA;NA;NA;NA;NA;;
a247c;"""Richtig""-Screen";canvas.Screen;3_0_5_0_3_0_1;NA;NA;skipped;NA;755847;NA;NA;755841;755847;2023-05-07T09:38:45Z;755849.78;NULL;Orientierung;urekebisho;d;NA;NA;NA;NA;sdf;NA;5;NA;NA;NA;NA;NA;NA;NA;NA;NA;NA;NA;NA;NA;NA;NA;NA;NA;NA;NA;;;;
a247c;"""Falsch""-Screen";canvas.Screen;3_0_5_0_3_0_2;NA;NA;timeout;4999.42;755852;755829.52;755849.78;760832.52;760834;2023-05-07T09:38:50Z;760849.2;NULL;Orientierung;urekebisho;d;NA;NA;NA;NA;sdf;0;5;NA;NA;NA;NA;NA;NA;NA;NA;NA;NA;NA;NA;NA;NA;NA;NA;NA;NA;NA;;;;
a247c;deep;flow.Sequence;3_0_5_0_3_0;NA;NA;completion;10482.04;750338;750333.92;750350.48;760832.52;760835;2023-05-07T09:38:50Z;760849.2;NULL;Orientierung;urekebisho;d;NA;NA;NA;NA;sdf;NA;5;NA;NA;NA;NA;NA;NA;NA;NA;NA;NA;NA;NA;NA;NA;NA;NA;NA;NA;NA;;;;
a247c;shallow;flow.Sequence;3_0_5_0_3_1;NA;NA;skipped;NA;760835;NA;NA;760832.52;760835;2023-05-07T09:38:50Z;760849.2;NULL;Orientierung;urekebisho;d;NA;NA;NA;NA;sdf;NA;5;NA;NA;NA;NA;NA;NA;NA;NA;NA;NA;NA;NA;NA;NA;NA;NA;NA;NA;NA;;;;
a247c;task;flow.Sequence;3_0_5_0_3;NA;NA;completion;10482.04;750338;750333.92;750350.48;760832.52;760836;2023-05-07T09:38:50Z;760849.2;NULL;Orientierung;urekebisho;d;NA;NA;NA;NA;sdf;NA;5;NA;NA;NA;NA;NA;NA;NA;NA;NA;NA;NA;NA;NA;NA;NA;NA;NA;NA;NA;;;;
a247c;Deep;Question;html.Page;3_0_5_0_4_0_0;NA;NA;form;submission;7090.8;760837;760832.52;760849.2;767940;767941;2023-05-07T09:38:57Z;767948.22;NULL;Respekt;heshima;d;NA;NA;NA;heshima;NA;NA;5;NA;NA;NA;NA;NA;NA;NA;NA;NA;NA;NA;NA;NA;NA;NA;NA;NA;NA;NA;;
a247c;"""Richtig""-Screen";canvas.Screen;3_0_5_0_4_0_1;NA;NA;timeout;4999.42;767946;767933.82;767948.22;772930.98;772935;2023-05-07T09:39:02Z;772947.64;NULL;Respekt;heshima;d;NA;NA;NA;NA;sdf;1;5;NA;NA;NA;NA;NA;NA;NA;NA;NA;NA;NA;NA;NA;NA;NA;NA;NA;NA;NA;;;;
a247c;"""Falsch""-Screen";canvas.Screen;3_0_5_0_4_0_2;NA;NA;skipped;NA;772951;NA;NA;772930.98;772952;2023-05-07T09:39:02Z;772947.64;NULL;Respekt;heshima;d;NA;NA;NA;NA;sdf;NA;5;NA;NA;NA;NA;NA;NA;NA;NA;NA;NA;NA;NA;NA;NA;NA;NA;NA;NA;NA;;;;
a247c;deep;flow.Sequence;3_0_5_0_4_0;NA;NA;completion;12081.78;760836;760832.52;760849.2;772930.98;772952;2023-05-07T09:39:02Z;772947.64;NULL;Respekt;heshima;d;NA;NA;NA;NA;sdf;NA;5;NA;NA;NA;NA;NA;NA;NA;NA;NA;NA;NA;NA;NA;NA;NA;NA;NA;NA;NA;;;;
a247c;shallow;flow.Sequence;3_0_5_0_4_1;NA;NA;skipped;NA;772953;NA;NA;772930.98;772953;2023-05-07T09:39:02Z;772947.64;NULL;Respekt;heshima;d;NA;NA;NA;NA;sdf;NA;5;NA;NA;NA;NA;NA;NA;NA;NA;NA;NA;NA;NA;NA;NA;NA;NA;NA;NA;NA;;;;
a247c;task;flow.Sequence;3_0_5_0_4;NA;NA;completion;12081.78;760836;760832.52;760849.2;772930.98;772953;2023-05-07T09:39:02Z;772947.64;NULL;Respekt;heshima;d;NA;NA;NA;NA;sdf;NA;5;NA;NA;NA;NA;NA;NA;NA;NA;NA;NA;NA;NA;NA;NA;NA;NA;NA;NA;NA;;;;
a247c;deep;flow.Sequence;3_0_5_0_5_0;NA;NA;skipped;NA;772954;NA;NA;772930.98;772954;2023-05-07T09:39:02Z;772947.64;NULL;Betrüger;mdanganyifu;s;mwanamuziki;wastani;mahakama;NA;sdf;NA;5;NA;NA;NA;NA;NA;NA;NA;NA;NA;NA;NA;NA;NA;NA;NA;NA;NA;NA;NA;;;;
a247c;Shallow;Question;html.Page;3_0_5_0_5_1_0;NA;NA;form;submission;11400.36;772955;772930.98;772947.64;784348;784349;2023-05-07T09:39:14Z;784346.22;NULL;Betrüger;mdanganyifu;s;mwanamuziki;wastani;mahakama;mdanganyifu;NA;NA;5;NA;NA;NA;NA;NA;NA;NA;NA;NA;NA;NA;NA;NA;NA;NA;NA;NA;NA;NA;;
a247c;"""Richtig""-Screen";canvas.Screen;3_0_5_0_5_1_1;NA;NA;timeout;4999.24;784356;784338.78;784346.22;789328.84;789330;2023-05-07T09:39:19Z;789345.46;NULL;Betrüger;mdanganyifu;s;mwanamuziki;wastani;mahakama;NA;sdf;1;5;NA;NA;NA;NA;NA;NA;NA;NA;NA;NA;NA;NA;NA;NA;NA;NA;NA;NA;NA;;;;
a247c;"""Falsch""-Screen";canvas.Screen;3_0_5_0_5_1_2;NA;NA;skipped;NA;789335;NA;NA;789328.84;789335;2023-05-07T09:39:19Z;789345.46;NULL;Betrüger;mdanganyifu;s;mwanamuziki;wastani;mahakama;NA;sdf;NA;5;NA;NA;NA;NA;NA;NA;NA;NA;NA;NA;NA;NA;NA;NA;NA;NA;NA;NA;NA;;;;
a247c;shallow;flow.Sequence;3_0_5_0_5_1;NA;NA;completion;16381.2;772954;772930.98;772947.64;789328.84;789336;2023-05-07T09:39:19Z;789345.46;NULL;Betrüger;mdanganyifu;s;mwanamuziki;wastani;mahakama;NA;sdf;NA;5;NA;NA;NA;NA;NA;NA;NA;NA;NA;NA;NA;NA;NA;NA;NA;NA;NA;NA;NA;;;;
a247c;task;flow.Sequence;3_0_5_0_5;NA;NA;completion;16381.2;772954;772930.98;772947.64;789328.84;789336;2023-05-07T09:39:19Z;789345.46;NULL;Betrüger;mdanganyifu;s;mwanamuziki;wastani;mahakama;NA;sdf;NA;5;NA;NA;NA;NA;NA;NA;NA;NA;NA;NA;NA;NA;NA;NA;NA;NA;NA;NA;NA;;;;
a247c;Deep;Question;html.Page;3_0_5_0_6_0_0;NA;NA;form;submission;8119.54;789338;789328.84;789345.46;797465;797466;2023-05-07T09:39:27Z;797477.84;NULL;Kreativität;ubunifu;d;NA;NA;NA;ulubunu;NA;NA;5;NA;NA;NA;NA;NA;NA;NA;NA;NA;NA;NA;NA;NA;NA;NA;NA;NA;NA;NA;;
a247c;"""Richtig""-Screen";canvas.Screen;3_0_5_0_6_0_1;NA;NA;skipped;NA;797470;NA;NA;797465;797471;2023-05-07T09:39:27Z;797477.84;NULL;Kreativität;ubunifu;d;NA;NA;NA;NA;sdf;NA;5;NA;NA;NA;NA;NA;NA;NA;NA;NA;NA;NA;NA;NA;NA;NA;NA;NA;NA;NA;;;;
a247c;"""Falsch""-Screen";canvas.Screen;3_0_5_0_6_0_2;NA;NA;timeout;4999.36;797476;797460.76;797477.84;802460.66;802463;2023-05-07T09:39:32Z;802477.2;NULL;Kreativität;ubunifu;d;NA;NA;NA;NA;sdf;0;5;NA;NA;NA;NA;NA;NA;NA;NA;NA;NA;NA;NA;NA;NA;NA;NA;NA;NA;NA;;;;
a247c;deep;flow.Sequence;3_0_5_0_6_0;NA;NA;completion;13115.2;789337;789328.84;789345.46;802460.66;802463;2023-05-07T09:39:32Z;802477.2;NULL;Kreativität;ubunifu;d;NA;NA;NA;NA;sdf;NA;5;NA;NA;NA;NA;NA;NA;NA;NA;NA;NA;NA;NA;NA;NA;NA;NA;NA;NA;NA;;;;
a247c;shallow;flow.Sequence;3_0_5_0_6_1;NA;NA;skipped;NA;802464;NA;NA;802460.66;802464;2023-05-07T09:39:32Z;802477.2;NULL;Kreativität;ubunifu;d;NA;NA;NA;NA;sdf;NA;5;NA;NA;NA;NA;NA;NA;NA;NA;NA;NA;NA;NA;NA;NA;NA;NA;NA;NA;NA;;;;
a247c;task;flow.Sequence;3_0_5_0_6;NA;NA;completion;13115.2;789337;789328.84;789345.46;802460.66;802464;2023-05-07T09:39:32Z;802477.2;NULL;Kreativität;ubunifu;d;NA;NA;NA;NA;sdf;NA;5;NA;NA;NA;NA;NA;NA;NA;NA;NA;NA;NA;NA;NA;NA;NA;NA;NA;NA;NA;;;;
a247c;deep;flow.Sequence;3_0_5_0_7_0;NA;NA;skipped;NA;802465;NA;NA;802460.66;802465;2023-05-07T09:39:32Z;802477.2;NULL;Kontrolle;kudhibiti;s;mbinguni;kufunga;utegemezi;NA;sdf;NA;5;NA;NA;NA;NA;NA;NA;NA;NA;NA;NA;NA;NA;NA;NA;NA;NA;NA;NA;NA;;;;
a247c;Shallow;Question;html.Page;3_0_5_0_7_1_0;NA;NA;form;submission;11392.8;802466;802460.66;802477.2;813870;813871;2023-05-07T09:39:43Z;813875.76;NULL;Kontrolle;kudhibiti;s;mbinguni;kufunga;utegemezi;kudhibiti;NA;NA;5;NA;NA;NA;NA;NA;NA;NA;NA;NA;NA;NA;NA;NA;NA;NA;NA;NA;NA;NA;;
a247c;"""Richtig""-Screen";canvas.Screen;3_0_5_0_7_1_1;NA;NA;timeout;4999.44;813876;813866.62;813875.76;818858.76;818861;2023-05-07T09:39:48Z;818875.2;NULL;Kontrolle;kudhibiti;s;mbinguni;kufunga;utegemezi;NA;sdf;1;5;NA;NA;NA;NA;NA;NA;NA;NA;NA;NA;NA;NA;NA;NA;NA;NA;NA;NA;NA;;;;
a247c;"""Falsch""-Screen";canvas.Screen;3_0_5_0_7_1_2;NA;NA;skipped;NA;818868;NA;NA;818858.76;818869;2023-05-07T09:39:48Z;818875.2;NULL;Kontrolle;kudhibiti;s;mbinguni;kufunga;utegemezi;NA;sdf;NA;5;NA;NA;NA;NA;NA;NA;NA;NA;NA;NA;NA;NA;NA;NA;NA;NA;NA;NA;NA;;;;
a247c;shallow;flow.Sequence;3_0_5_0_7_1;NA;NA;completion;16381.56;802466;802460.66;802477.2;818858.76;818869;2023-05-07T09:39:48Z;818875.2;NULL;Kontrolle;kudhibiti;s;mbinguni;kufunga;utegemezi;NA;sdf;NA;5;NA;NA;NA;NA;NA;NA;NA;NA;NA;NA;NA;NA;NA;NA;NA;NA;NA;NA;NA;;;;
a247c;task;flow.Sequence;3_0_5_0_7;NA;NA;completion;16381.56;802465;802460.66;802477.2;818858.76;818870;2023-05-07T09:39:48Z;818875.2;NULL;Kontrolle;kudhibiti;s;mbinguni;kufunga;utegemezi;NA;sdf;NA;5;NA;NA;NA;NA;NA;NA;NA;NA;NA;NA;NA;NA;NA;NA;NA;NA;NA;NA;NA;;;;
a247c;block;flow.Loop;3_0_5_0;NA;NA;completion;107684.6;711173;711173.84;711174.16;818858.76;818871;2023-05-07T09:39:48Z;818875.2;NULL;NA;NA;NA;NA;NA;NA;NA;sdf;NA;5;NA;NA;NA;NA;NA;NA;NA;NA;NA;NA;NA;NA;NA;NA;NA;NA;NA;NA;NA;;;;
a247c;weiter;canvas.Screen;3_0_5_1;sdf;keypress(Space);response;1583.8;818871;818858.76;818875.2;820459;820471;2023-05-07T09:39:50Z;820535.8;NULL;NA;NA;NA;NA;NA;NA;NA;sdf;NA;5;NA;NA;NA;NA;NA;NA;NA;NA;NA;NA;NA;NA;NA;NA;NA;NA;NA;NA;NA;;;;
a247c;check;continue;flow.Sequence;3_0_5;NA;NA;completion;109284.84;711173;711173.84;711174.16;820459;820471;2023-05-07T09:39:50Z;820535.8;NULL;NA;NA;NA;NA;NA;NA;NA;sdf;NA;5;NA;NA;NA;NA;NA;NA;NA;NA;NA;NA;NA;NA;NA;NA;NA;NA;NA;NA;NA;;;
a247c;Deep;Question;html.Page;3_0_6_0_0_0_0;NA;NA;form;submission;7454.2;820535;820535.48;820535.8;827990;827990;2023-05-07T09:39:57Z;827990.64;NULL;Können;unaweza;d;NA;NA;NA;unaweza;NA;NA;6;NA;NA;NA;NA;NA;NA;NA;NA;NA;NA;NA;NA;NA;NA;NA;NA;NA;NA;NA;;
a247c;"""Richtig""-Screen";canvas.Screen;3_0_6_0_0_0_1;NA;NA;timeout;4999.42;827992;827987.56;827990.64;832973.48;832976;2023-05-07T09:40:02Z;832990.06;NULL;Können;unaweza;d;NA;NA;NA;NA;dfs;1;6;NA;NA;NA;NA;NA;NA;NA;NA;NA;NA;NA;NA;NA;NA;NA;NA;NA;NA;NA;;;;
a247c;"""Falsch""-Screen";canvas.Screen;3_0_6_0_0_0_2;NA;NA;skipped;NA;832982;NA;NA;832973.48;832983;2023-05-07T09:40:02Z;832990.06;NULL;Können;unaweza;d;NA;NA;NA;NA;dfs;NA;6;NA;NA;NA;NA;NA;NA;NA;NA;NA;NA;NA;NA;NA;NA;NA;NA;NA;NA;NA;;;;
a247c;deep;flow.Sequence;3_0_6_0_0_0;NA;NA;completion;12437.68;820535;820535.48;820535.8;832973.48;832983;2023-05-07T09:40:02Z;832990.06;NULL;Können;unaweza;d;NA;NA;NA;NA;dfs;NA;6;NA;NA;NA;NA;NA;NA;NA;NA;NA;NA;NA;NA;NA;NA;NA;NA;NA;NA;NA;;;;
a247c;shallow;flow.Sequence;3_0_6_0_0_1;NA;NA;skipped;NA;832984;NA;NA;832973.48;832985;2023-05-07T09:40:02Z;832990.06;NULL;Können;unaweza;d;NA;NA;NA;NA;dfs;NA;6;NA;NA;NA;NA;NA;NA;NA;NA;NA;NA;NA;NA;NA;NA;NA;NA;NA;NA;NA;;;;
a247c;task;flow.Sequence;3_0_6_0_0;NA;NA;completion;12437.68;820535;820535.48;820535.8;832973.48;832985;2023-05-07T09:40:02Z;832990.06;NULL;Können;unaweza;d;NA;NA;NA;NA;dfs;NA;6;NA;NA;NA;NA;NA;NA;NA;NA;NA;NA;NA;NA;NA;NA;NA;NA;NA;NA;NA;;;;
a247c;deep;flow.Sequence;3_0_6_0_1_0;NA;NA;skipped;NA;832986;NA;NA;832973.48;832986;2023-05-07T09:40:02Z;832990.06;NULL;Betrüger;mdanganyifu;s;mwanamuziki;wastani;mahakama;NA;dfs;NA;6;NA;NA;NA;NA;NA;NA;NA;NA;NA;NA;NA;NA;NA;NA;NA;NA;NA;NA;NA;;;;
a247c;Shallow;Question;html.Page;3_0_6_0_1_1_0;NA;NA;form;submission;5183.94;832986;832973.48;832990.06;838174;838174;2023-05-07T09:40:07Z;838172.66;NULL;Betrüger;mdanganyifu;s;mwanamuziki;wastani;mahakama;mdanganyifu;NA;NA;6;NA;NA;NA;NA;NA;NA;NA;NA;NA;NA;NA;NA;NA;NA;NA;NA;NA;NA;NA;;
a247c;"""Richtig""-Screen";canvas.Screen;3_0_6_0_1_1_1;NA;NA;timeout;4999.22;838177;838171;838172.66;843155.42;843156;2023-05-07T09:40:12Z;843171.88;NULL;Betrüger;mdanganyifu;s;mwanamuziki;wastani;mahakama;NA;dfs;1;6;NA;NA;NA;NA;NA;NA;NA;NA;NA;NA;NA;NA;NA;NA;NA;NA;NA;NA;NA;;;;
a247c;"""Falsch""-Screen";canvas.Screen;3_0_6_0_1_1_2;NA;NA;skipped;NA;843165;NA;NA;843155.42;843165;2023-05-07T09:40:12Z;843171.88;NULL;Betrüger;mdanganyifu;s;mwanamuziki;wastani;mahakama;NA;dfs;NA;6;NA;NA;NA;NA;NA;NA;NA;NA;NA;NA;NA;NA;NA;NA;NA;NA;NA;NA;NA;;;;
a247c;shallow;flow.Sequence;3_0_6_0_1_1;NA;NA;completion;10165.36;832986;832973.48;832990.06;843155.42;843166;2023-05-07T09:40:12Z;843171.88;NULL;Betrüger;mdanganyifu;s;mwanamuziki;wastani;mahakama;NA;dfs;NA;6;NA;NA;NA;NA;NA;NA;NA;NA;NA;NA;NA;NA;NA;NA;NA;NA;NA;NA;NA;;;;
a247c;task;flow.Sequence;3_0_6_0_1;NA;NA;completion;10165.36;832985;832973.48;832990.06;843155.42;843166;2023-05-07T09:40:12Z;843171.88;NULL;Betrüger;mdanganyifu;s;mwanamuziki;wastani;mahakama;NA;dfs;NA;6;NA;NA;NA;NA;NA;NA;NA;NA;NA;NA;NA;NA;NA;NA;NA;NA;NA;NA;NA;;;;
a247c;deep;flow.Sequence;3_0_6_0_2_0;NA;NA;skipped;NA;843166;NA;NA;843155.42;843166;2023-05-07T09:40:12Z;843171.88;NULL;Gefährdung;kuhatarisha;s;uchokozi;udhaifu;makorowezo;NA;dfs;NA;6;NA;NA;NA;NA;NA;NA;NA;NA;NA;NA;NA;NA;NA;NA;NA;NA;NA;NA;NA;;;;
a247c;Shallow;Question;html.Page;3_0_6_0_2_1_0;NA;NA;form;submission;3981.12;843166;843155.42;843171.88;847153;847153;2023-05-07T09:40:16Z;847154.8;NULL;Gefährdung;kuhatarisha;s;uchokozi;udhaifu;makorowezo;kuhatarisha;NA;NA;6;NA;NA;NA;NA;NA;NA;NA;NA;NA;NA;NA;NA;NA;NA;NA;NA;NA;NA;NA;;
a247c;"""Richtig""-Screen";canvas.Screen;3_0_6_0_2_1_1;NA;NA;timeout;4999.44;847153;847150.62;847154.8;852137.72;852144;2023-05-07T09:40:21Z;852154.24;NULL;Gefährdung;kuhatarisha;s;uchokozi;udhaifu;makorowezo;NA;dfs;1;6;NA;NA;NA;NA;NA;NA;NA;NA;NA;NA;NA;NA;NA;NA;NA;NA;NA;NA;NA;;;;
a247c;"""Falsch""-Screen";canvas.Screen;3_0_6_0_2_1_2;NA;NA;skipped;NA;852159;NA;NA;852137.72;852160;2023-05-07T09:40:21Z;852154.24;NULL;Gefährdung;kuhatarisha;s;uchokozi;udhaifu;makorowezo;NA;dfs;NA;6;NA;NA;NA;NA;NA;NA;NA;NA;NA;NA;NA;NA;NA;NA;NA;NA;NA;NA;NA;;;;
a247c;shallow;flow.Sequence;3_0_6_0_2_1;NA;NA;completion;8965.84;843166;843155.42;843171.88;852137.72;852160;2023-05-07T09:40:21Z;852154.24;NULL;Gefährdung;kuhatarisha;s;uchokozi;udhaifu;makorowezo;NA;dfs;NA;6;NA;NA;NA;NA;NA;NA;NA;NA;NA;NA;NA;NA;NA;NA;NA;NA;NA;NA;NA;;;;
a247c;task;flow.Sequence;3_0_6_0_2;NA;NA;completion;8965.84;843166;843155.42;843171.88;852137.72;852162;2023-05-07T09:40:21Z;852154.24;NULL;Gefährdung;kuhatarisha;s;uchokozi;udhaifu;makorowezo;NA;dfs;NA;6;NA;NA;NA;NA;NA;NA;NA;NA;NA;NA;NA;NA;NA;NA;NA;NA;NA;NA;NA;;;;
a247c;Deep;Question;html.Page;3_0_6_0_3_0_0;NA;NA;form;submission;6309.76;852162;852137.72;852154.24;858464;858464;2023-05-07T09:40:28Z;858470.06;NULL;Orientierung;urekebisho;d;NA;NA;NA;sfd;NA;NA;6;NA;NA;NA;NA;NA;NA;NA;NA;NA;NA;NA;NA;NA;NA;NA;NA;NA;NA;NA;;
a247c;"""Richtig""-Screen";canvas.Screen;3_0_6_0_3_0_1;NA;NA;skipped;NA;858467;NA;NA;858464;858467;2023-05-07T09:40:28Z;858470.06;NULL;Orientierung;urekebisho;d;NA;NA;NA;NA;dfs;NA;6;NA;NA;NA;NA;NA;NA;NA;NA;NA;NA;NA;NA;NA;NA;NA;NA;NA;NA;NA;;;;
a247c;"""Falsch""-Screen";canvas.Screen;3_0_6_0_3_0_2;NA;NA;timeout;4999.28;858469;858460.76;858470.06;863452.84;863454;2023-05-07T09:40:33Z;863469.34;NULL;Orientierung;urekebisho;d;NA;NA;NA;NA;dfs;0;6;NA;NA;NA;NA;NA;NA;NA;NA;NA;NA;NA;NA;NA;NA;NA;NA;NA;NA;NA;;;;
a247c;deep;flow.Sequence;3_0_6_0_3_0;NA;NA;completion;11298.6;852162;852137.72;852154.24;863452.84;863455;2023-05-07T09:40:33Z;863469.34;NULL;Orientierung;urekebisho;d;NA;NA;NA;NA;dfs;NA;6;NA;NA;NA;NA;NA;NA;NA;NA;NA;NA;NA;NA;NA;NA;NA;NA;NA;NA;NA;;;;
a247c;shallow;flow.Sequence;3_0_6_0_3_1;NA;NA;skipped;NA;863455;NA;NA;863452.84;863455;2023-05-07T09:40:33Z;863469.34;NULL;Orientierung;urekebisho;d;NA;NA;NA;NA;dfs;NA;6;NA;NA;NA;NA;NA;NA;NA;NA;NA;NA;NA;NA;NA;NA;NA;NA;NA;NA;NA;;;;
a247c;task;flow.Sequence;3_0_6_0_3;NA;NA;completion;11298.6;852162;852137.72;852154.24;863452.84;863456;2023-05-07T09:40:33Z;863469.34;NULL;Orientierung;urekebisho;d;NA;NA;NA;NA;dfs;NA;6;NA;NA;NA;NA;NA;NA;NA;NA;NA;NA;NA;NA;NA;NA;NA;NA;NA;NA;NA;;;;
a247c;deep;flow.Sequence;3_0_6_0_4_0;NA;NA;skipped;NA;863456;NA;NA;863452.84;863457;2023-05-07T09:40:33Z;863469.34;NULL;Stimmung;kinyongo;s;kilekile;kisambo;madhehebu;NA;dfs;NA;6;NA;NA;NA;NA;NA;NA;NA;NA;NA;NA;NA;NA;NA;NA;NA;NA;NA;NA;NA;;;;
a247c;Shallow;Question;html.Page;3_0_6_0_4_1_0;NA;NA;form;submission;8327.66;863458;863452.84;863469.34;871797;871797;2023-05-07T09:40:41Z;871801.66;NULL;Stimmung;kinyongo;s;kilekile;kisambo;madhehebu;kinyongo;NA;NA;6;NA;NA;NA;NA;NA;NA;NA;NA;NA;NA;NA;NA;NA;NA;NA;NA;NA;NA;NA;;
a247c;"""Richtig""-Screen";canvas.Screen;3_0_6_0_4_1_1;NA;NA;timeout;4999.48;871802;871793.06;871801.66;876784.8;876787;2023-05-07T09:40:46Z;876801.14;NULL;Stimmung;kinyongo;s;kilekile;kisambo;madhehebu;NA;dfs;1;6;NA;NA;NA;NA;NA;NA;NA;NA;NA;NA;NA;NA;NA;NA;NA;NA;NA;NA;NA;;;;
a247c;"""Falsch""-Screen";canvas.Screen;3_0_6_0_4_1_2;NA;NA;skipped;NA;876796;NA;NA;876784.8;876797;2023-05-07T09:40:46Z;876801.14;NULL;Stimmung;kinyongo;s;kilekile;kisambo;madhehebu;NA;dfs;NA;6;NA;NA;NA;NA;NA;NA;NA;NA;NA;NA;NA;NA;NA;NA;NA;NA;NA;NA;NA;;;;
a247c;shallow;flow.Sequence;3_0_6_0_4_1;NA;NA;completion;13315.46;863457;863452.84;863469.34;876784.8;876798;2023-05-07T09:40:46Z;876801.14;NULL;Stimmung;kinyongo;s;kilekile;kisambo;madhehebu;NA;dfs;NA;6;NA;NA;NA;NA;NA;NA;NA;NA;NA;NA;NA;NA;NA;NA;NA;NA;NA;NA;NA;;;;
a247c;task;flow.Sequence;3_0_6_0_4;NA;NA;completion;13315.46;863456;863452.84;863469.34;876784.8;876798;2023-05-07T09:40:46Z;876801.14;NULL;Stimmung;kinyongo;s;kilekile;kisambo;madhehebu;NA;dfs;NA;6;NA;NA;NA;NA;NA;NA;NA;NA;NA;NA;NA;NA;NA;NA;NA;NA;NA;NA;NA;;;;
a247c;deep;flow.Sequence;3_0_6_0_5_0;NA;NA;skipped;NA;876799;NA;NA;876784.8;876799;2023-05-07T09:40:46Z;876801.14;NULL;Kontrolle;kudhibiti;s;mbinguni;kufunga;utegemezi;NA;dfs;NA;6;NA;NA;NA;NA;NA;NA;NA;NA;NA;NA;NA;NA;NA;NA;NA;NA;NA;NA;NA;;;;
a247c;Shallow;Question;html.Page;3_0_6_0_5_1_0;NA;NA;form;submission;6179.86;876800;876784.8;876801.14;882981;882981;2023-05-07T09:40:52Z;882983.52;NULL;Kontrolle;kudhibiti;s;mbinguni;kufunga;utegemezi;kudhibiti;NA;NA;6;NA;NA;NA;NA;NA;NA;NA;NA;NA;NA;NA;NA;NA;NA;NA;NA;NA;NA;NA;;
a247c;"""Richtig""-Screen";canvas.Screen;3_0_6_0_5_1_1;NA;NA;timeout;4999.6;882987;882977.16;882983.52;887966.54;887968;2023-05-07T09:40:57Z;887983.12;NULL;Kontrolle;kudhibiti;s;mbinguni;kufunga;utegemezi;NA;dfs;1;6;NA;NA;NA;NA;NA;NA;NA;NA;NA;NA;NA;NA;NA;NA;NA;NA;NA;NA;NA;;;;
a247c;"""Falsch""-Screen";canvas.Screen;3_0_6_0_5_1_2;NA;NA;skipped;NA;887979;NA;NA;887966.54;887979;2023-05-07T09:40:57Z;887983.12;NULL;Kontrolle;kudhibiti;s;mbinguni;kufunga;utegemezi;NA;dfs;NA;6;NA;NA;NA;NA;NA;NA;NA;NA;NA;NA;NA;NA;NA;NA;NA;NA;NA;NA;NA;;;;
a247c;shallow;flow.Sequence;3_0_6_0_5_1;NA;NA;completion;11165.4;876799;876784.8;876801.14;887966.54;887980;2023-05-07T09:40:57Z;887983.12;NULL;Kontrolle;kudhibiti;s;mbinguni;kufunga;utegemezi;NA;dfs;NA;6;NA;NA;NA;NA;NA;NA;NA;NA;NA;NA;NA;NA;NA;NA;NA;NA;NA;NA;NA;;;;
a247c;task;flow.Sequence;3_0_6_0_5;NA;NA;completion;11165.4;876798;876784.8;876801.14;887966.54;887980;2023-05-07T09:40:57Z;887983.12;NULL;Kontrolle;kudhibiti;s;mbinguni;kufunga;utegemezi;NA;dfs;NA;6;NA;NA;NA;NA;NA;NA;NA;NA;NA;NA;NA;NA;NA;NA;NA;NA;NA;NA;NA;;;;
a247c;Deep;Question;html.Page;3_0_6_0_6_0_0;NA;NA;form;submission;10521.88;887981;887966.54;887983.12;898505;898506;2023-05-07T09:41:08Z;898515.04;NULL;Kreativität;ubunifu;d;NA;NA;NA;ubunefi;NA;NA;6;NA;NA;NA;NA;NA;NA;NA;NA;NA;NA;NA;NA;NA;NA;NA;NA;NA;NA;NA;;
