observation;sender;sender_type;sender_id;response;response_action;ended_on;duration;time_run;time_render;time_show;time_end;time_commit;timestamp;time_switch;german;swahili;enc;distractor1;distractor2;distractor3;response_2;x;correct;distractors;url_vp;url_sess;meta_labjs_version;meta_location;meta_user_agent;meta_platform;meta_language;meta_locale;meta_time_zone;meta_timezone_offset;meta_screen_width;meta_screen_height;meta_scroll_width;meta_scroll_height;meta_window_inner_width;meta_window_inner_height;meta_device_pixel_ratio;meta_labjs_build_flavor;meta_labjs_build_commit;;;;
ac614;Introduction;delayed;retrieval;canvas.Screen;0;weiter;keypress(Space);response;9715.946;1208.4;1197.644;1231.054;10947;10948.6;2023-06-18T12:05:10Z;10956.22;NA;NA;NA;NA;NA;NA;NA;NA;NA;NULL;172;4;20.02.2004;https://neurocog.fernuni.ch/studies/vweber/sliechti/delayed/index.html?vp=172&sess=4;Mozilla/5.0 (Windows NT 10.0;;;;;;;;;;;;;;;;
ac614;Deep;Question;html.Page;1_0_0_0;NA;NA;form;submission;3363.08;10948.8;10941.616;10956.22;14319.3;14319.7;2023-06-18T12:05:13Z;14320.123;Konkurrent;mshindani;d;msemaji;mvutaji;kipukusa;lkfjda;NA;NA;NULL;NA;NA;NA;NA;NA;NA;NA;NA;NA;NA;NA;NA;NA;NA;NA;NA;NA;NA;NA;;
ac614;Save;data;screen;canvas.Screen;1_0_0_1;NA;NA;timeout;499.839;14320.5;14303.994;14320.123;14803.346;14804.3;2023-06-18T12:05:13Z;14819.962;Konkurrent;mshindani;d;msemaji;mvutaji;kipukusa;NA;NA;0;NULL;NA;NA;NA;NA;NA;NA;NA;NA;NA;NA;NA;NA;NA;NA;NA;NA;NA;NA;NA;;
ac614;deep;flow.Sequence;1_0_0;NA;NA;completion;3847.126;10948.8;10941.616;10956.22;14803.346;14804.5;2023-06-18T12:05:13Z;14819.962;Konkurrent;mshindani;d;msemaji;mvutaji;kipukusa;NA;NA;NA;NULL;NA;NA;NA;NA;NA;NA;NA;NA;NA;NA;NA;NA;NA;NA;NA;NA;NA;NA;NA;;;;
ac614;task;flow.Sequence;1_0;NA;NA;completion;3847.126;10948.8;10941.616;10956.22;14803.346;14804.6;2023-06-18T12:05:13Z;14819.962;Konkurrent;mshindani;d;msemaji;mvutaji;kipukusa;NA;NA;NA;NULL;NA;NA;NA;NA;NA;NA;NA;NA;NA;NA;NA;NA;NA;NA;NA;NA;NA;NA;NA;;;;
ac614;Deep;Question;html.Page;1_1_0_0;NA;NA;form;submission;3814.238;14804.7;14803.346;14819.962;18634.2;18634.5;2023-06-18T12:05:17Z;18650.27;Annäherung;maegesho;s;madahili;kujiamini;mapendekezo;mgonkuk;NA;NA;NULL;NA;NA;NA;NA;NA;NA;NA;NA;NA;NA;NA;NA;NA;NA;NA;NA;NA;NA;NA;;
ac614;Save;data;screen;canvas.Screen;1_1_0_1;NA;NA;timeout;499.234;18635.3;18633.408;18650.27;19132.874;19141.5;2023-06-18T12:05:18Z;19149.504;Annäherung;maegesho;s;madahili;kujiamini;mapendekezo;NA;NA;0;NULL;NA;NA;NA;NA;NA;NA;NA;NA;NA;NA;NA;NA;NA;NA;NA;NA;NA;NA;NA;;
ac614;deep;flow.Sequence;1_1_0;NA;NA;completion;4312.912;14804.7;14803.346;14819.962;19132.874;19141.7;2023-06-18T12:05:18Z;19149.504;Annäherung;maegesho;s;madahili;kujiamini;mapendekezo;NA;NA;NA;NULL;NA;NA;NA;NA;NA;NA;NA;NA;NA;NA;NA;NA;NA;NA;NA;NA;NA;NA;NA;;;;
ac614;task;flow.Sequence;1_1;NA;NA;completion;4312.912;14804.7;14803.346;14819.962;19132.874;19141.9;2023-06-18T12:05:18Z;19149.504;Annäherung;maegesho;s;madahili;kujiamini;mapendekezo;NA;NA;NA;NULL;NA;NA;NA;NA;NA;NA;NA;NA;NA;NA;NA;NA;NA;NA;NA;NA;NA;NA;NA;;;;
ac614;Deep;Question;html.Page;1_2_0_0;NA;NA;form;submission;5313.196;19142.3;19132.874;19149.504;24462.7;24462.9;2023-06-18T12:05:23Z;24478.632;Polizist;msongora;d;simanzi;mandhari;nidhamu;msoroa;NA;NA;NULL;NA;NA;NA;NA;NA;NA;NA;NA;NA;NA;NA;NA;NA;NA;NA;NA;NA;NA;NA;;
ac614;Save;data;screen;canvas.Screen;1_2_0_1;NA;NA;timeout;499.656;24463.3;24461.205;24478.632;24962.239;24963.2;2023-06-18T12:05:24Z;24978.288;Polizist;msongora;d;simanzi;mandhari;nidhamu;NA;NA;0;NULL;NA;NA;NA;NA;NA;NA;NA;NA;NA;NA;NA;NA;NA;NA;NA;NA;NA;NA;NA;;
ac614;deep;flow.Sequence;1_2_0;NA;NA;completion;5812.735;19142.2;19132.874;19149.504;24962.239;24963.5;2023-06-18T12:05:24Z;24978.288;Polizist;msongora;d;simanzi;mandhari;nidhamu;NA;NA;NA;NULL;NA;NA;NA;NA;NA;NA;NA;NA;NA;NA;NA;NA;NA;NA;NA;NA;NA;NA;NA;;;;
ac614;task;flow.Sequence;1_2;NA;NA;completion;5812.735;19142.1;19132.874;19149.504;24962.239;24963.7;2023-06-18T12:05:24Z;24978.288;Polizist;msongora;d;simanzi;mandhari;nidhamu;NA;NA;NA;NULL;NA;NA;NA;NA;NA;NA;NA;NA;NA;NA;NA;NA;NA;NA;NA;NA;NA;NA;NA;;;;
ac614;Deep;Question;html.Page;1_3_0_0;NA;NA;form;submission;2717.812;24963.9;24962.239;24978.288;27696.1;27696.3;2023-06-18T12:05:26Z;27709.44;Zufall;kikuti;s;kukosekana;uchoraji;leseni;fjödk;NA;NA;NULL;NA;NA;NA;NA;NA;NA;NA;NA;NA;NA;NA;NA;NA;NA;NA;NA;NA;NA;NA;;
ac614;Save;data;screen;canvas.Screen;1_3_0_1;NA;NA;timeout;499.302;27696.7;27692.422;27709.44;28192.139;28192.6;2023-06-18T12:05:27Z;28208.742;Zufall;kikuti;s;kukosekana;uchoraji;leseni;NA;NA;0;NULL;NA;NA;NA;NA;NA;NA;NA;NA;NA;NA;NA;NA;NA;NA;NA;NA;NA;NA;NA;;
ac614;deep;flow.Sequence;1_3_0;NA;NA;completion;3213.851;24963.8;24962.239;24978.288;28192.139;28192.9;2023-06-18T12:05:27Z;28208.742;Zufall;kikuti;s;kukosekana;uchoraji;leseni;NA;NA;NA;NULL;NA;NA;NA;NA;NA;NA;NA;NA;NA;NA;NA;NA;NA;NA;NA;NA;NA;NA;NA;;;;
ac614;task;flow.Sequence;1_3;NA;NA;completion;3213.851;24963.7;24962.239;24978.288;28192.139;28192.9;2023-06-18T12:05:27Z;28208.742;Zufall;kikuti;s;kukosekana;uchoraji;leseni;NA;NA;NA;NULL;NA;NA;NA;NA;NA;NA;NA;NA;NA;NA;NA;NA;NA;NA;NA;NA;NA;NA;NA;;;;
ac614;Deep;Question;html.Page;1_4_0_0;NA;NA;form;submission;1919.758;28193;28192.139;28208.742;30128.5;30128.8;2023-06-18T12:05:29Z;30140.559;Beweis;ushahidi;d;marudio;kizuizi;mtendaji;dfd;NA;NA;NULL;NA;NA;NA;NA;NA;NA;NA;NA;NA;NA;NA;NA;NA;NA;NA;NA;NA;NA;NA;;
ac614;Save;data;screen;canvas.Screen;1_4_0_1;NA;NA;timeout;499.846;30129.3;30125.052;30140.559;30623.683;30624.5;2023-06-18T12:05:29Z;30640.405;Beweis;ushahidi;d;marudio;kizuizi;mtendaji;NA;NA;0;NULL;NA;NA;NA;NA;NA;NA;NA;NA;NA;NA;NA;NA;NA;NA;NA;NA;NA;NA;NA;;
ac614;deep;flow.Sequence;1_4_0;NA;NA;completion;2414.941;28193;28192.139;28208.742;30623.683;30624.7;2023-06-18T12:05:29Z;30640.405;Beweis;ushahidi;d;marudio;kizuizi;mtendaji;NA;NA;NA;NULL;NA;NA;NA;NA;NA;NA;NA;NA;NA;NA;NA;NA;NA;NA;NA;NA;NA;NA;NA;;;;
ac614;task;flow.Sequence;1_4;NA;NA;completion;2414.941;28193;28192.139;28208.742;30623.683;30624.9;2023-06-18T12:05:29Z;30640.405;Beweis;ushahidi;d;marudio;kizuizi;mtendaji;NA;NA;NA;NULL;NA;NA;NA;NA;NA;NA;NA;NA;NA;NA;NA;NA;NA;NA;NA;NA;NA;NA;NA;;;;
ac614;Deep;Question;html.Page;1_5_0_0;NA;NA;form;submission;3800.795;30625.3;30623.683;30640.405;34441.2;34441.4;2023-06-18T12:05:33Z;34453.787;Vorsorge;tahadhari;d;ufafanuzi;makini;mashambani;mshalibuon;NA;NA;NULL;NA;NA;NA;NA;NA;NA;NA;NA;NA;NA;NA;NA;NA;NA;NA;NA;NA;NA;NA;;
ac614;Save;data;screen;canvas.Screen;1_5_0_1;NA;NA;timeout;499.438;34442.1;34437.072;34453.787;34936.612;34937.3;2023-06-18T12:05:34Z;34953.225;Vorsorge;tahadhari;d;ufafanuzi;makini;mashambani;NA;NA;0;NULL;NA;NA;NA;NA;NA;NA;NA;NA;NA;NA;NA;NA;NA;NA;NA;NA;NA;NA;NA;;
ac614;deep;flow.Sequence;1_5_0;NA;NA;completion;4296.207;30625.2;30623.683;30640.405;34936.612;34937.4;2023-06-18T12:05:34Z;34953.225;Vorsorge;tahadhari;d;ufafanuzi;makini;mashambani;NA;NA;NA;NULL;NA;NA;NA;NA;NA;NA;NA;NA;NA;NA;NA;NA;NA;NA;NA;NA;NA;NA;NA;;;;
ac614;task;flow.Sequence;1_5;NA;NA;completion;4296.207;30625.1;30623.683;30640.405;34936.612;34937.5;2023-06-18T12:05:34Z;34953.225;Vorsorge;tahadhari;d;ufafanuzi;makini;mashambani;NA;NA;NA;NULL;NA;NA;NA;NA;NA;NA;NA;NA;NA;NA;NA;NA;NA;NA;NA;NA;NA;NA;NA;;;;
ac614;Deep;Question;html.Page;1_6_0_0;NA;NA;form;submission;2813.575;34937.5;34936.612;34953.225;37766.8;37767.1;2023-06-18T12:05:36Z;37767.517;Zuwachs;nyongeza;s;matilaba;udhibiti;hudhurio;mguezo;NA;NA;NULL;NA;NA;NA;NA;NA;NA;NA;NA;NA;NA;NA;NA;NA;NA;NA;NA;NA;NA;NA;;
ac614;Save;data;screen;canvas.Screen;1_6_0_1;NA;NA;timeout;499.753;37767.7;37752.552;37767.517;38250.527;38251.3;2023-06-18T12:05:37Z;38267.27;Zuwachs;nyongeza;s;matilaba;udhibiti;hudhurio;NA;NA;0;NULL;NA;NA;NA;NA;NA;NA;NA;NA;NA;NA;NA;NA;NA;NA;NA;NA;NA;NA;NA;;
ac614;deep;flow.Sequence;1_6_0;NA;NA;completion;3297.302;34937.5;34936.612;34953.225;38250.527;38251.6;2023-06-18T12:05:37Z;38267.27;Zuwachs;nyongeza;s;matilaba;udhibiti;hudhurio;NA;NA;NA;NULL;NA;NA;NA;NA;NA;NA;NA;NA;NA;NA;NA;NA;NA;NA;NA;NA;NA;NA;NA;;;;
ac614;task;flow.Sequence;1_6;NA;NA;completion;3297.302;34937.5;34936.612;34953.225;38250.527;38251.8;2023-06-18T12:05:37Z;38267.27;Zuwachs;nyongeza;s;matilaba;udhibiti;hudhurio;NA;NA;NA;NULL;NA;NA;NA;NA;NA;NA;NA;NA;NA;NA;NA;NA;NA;NA;NA;NA;NA;NA;NA;;;;
ac614;Deep;Question;html.Page;1_7_0_0;NA;NA;form;submission;3911.13;38251.9;38250.527;38267.27;42178.4;42178.6;2023-06-18T12:05:41Z;42180.573;Symbol;kielezo;s;kinyume;nderemo;utayari;kahiti;NA;NA;NULL;NA;NA;NA;NA;NA;NA;NA;NA;NA;NA;NA;NA;NA;NA;NA;NA;NA;NA;NA;;
ac614;Save;data;screen;canvas.Screen;1_7_0_1;NA;NA;timeout;499.984;42179.2;42165.41;42180.573;42663.915;42664.7;2023-06-18T12:05:41Z;42680.557;Symbol;kielezo;s;kinyume;nderemo;utayari;NA;NA;0;NULL;NA;NA;NA;NA;NA;NA;NA;NA;NA;NA;NA;NA;NA;NA;NA;NA;NA;NA;NA;;
ac614;deep;flow.Sequence;1_7_0;NA;NA;completion;4396.645;38251.9;38250.527;38267.27;42663.915;42665;2023-06-18T12:05:41Z;42680.557;Symbol;kielezo;s;kinyume;nderemo;utayari;NA;NA;NA;NULL;NA;NA;NA;NA;NA;NA;NA;NA;NA;NA;NA;NA;NA;NA;NA;NA;NA;NA;NA;;;;
ac614;task;flow.Sequence;1_7;NA;NA;completion;4396.645;38251.9;38250.527;38267.27;42663.915;42665.2;2023-06-18T12:05:41Z;42680.557;Symbol;kielezo;s;kinyume;nderemo;utayari;NA;NA;NA;NULL;NA;NA;NA;NA;NA;NA;NA;NA;NA;NA;NA;NA;NA;NA;NA;NA;NA;NA;NA;;;;
ac614;Deep;Question;html.Page;1_8_0_0;NA;NA;form;submission;3364.943;42665.4;42663.915;42680.557;46045.5;46045.7;2023-06-18T12:05:45Z;46060.944;Schönheit;kirembo;s;mahojiano;msisimko;jitihadi;ödsjf;NA;NA;NULL;NA;NA;NA;NA;NA;NA;NA;NA;NA;NA;NA;NA;NA;NA;NA;NA;NA;NA;NA;;
ac614;Save;data;screen;canvas.Screen;1_8_0_1;NA;NA;timeout;499.685;46046.2;46044.843;46060.944;46543.947;46544.8;2023-06-18T12:05:45Z;46560.629;Schönheit;kirembo;s;mahojiano;msisimko;jitihadi;NA;NA;0;NULL;NA;NA;NA;NA;NA;NA;NA;NA;NA;NA;NA;NA;NA;NA;NA;NA;NA;NA;NA;;
ac614;deep;flow.Sequence;1_8_0;NA;NA;completion;3863.39;42665.3;42663.915;42680.557;46543.947;46545.1;2023-06-18T12:05:45Z;46560.629;Schönheit;kirembo;s;mahojiano;msisimko;jitihadi;NA;NA;NA;NULL;NA;NA;NA;NA;NA;NA;NA;NA;NA;NA;NA;NA;NA;NA;NA;NA;NA;NA;NA;;;;
ac614;task;flow.Sequence;1_8;NA;NA;completion;3863.39;42665.3;42663.915;42680.557;46543.947;46545.4;2023-06-18T12:05:45Z;46560.629;Schönheit;kirembo;s;mahojiano;msisimko;jitihadi;NA;NA;NA;NULL;NA;NA;NA;NA;NA;NA;NA;NA;NA;NA;NA;NA;NA;NA;NA;NA;NA;NA;NA;;;;
ac614;Deep;Question;html.Page;1_9_0_0;NA;NA;form;submission;3551.071;46545.7;46543.947;46560.629;50111.7;50112;2023-06-18T12:05:49Z;50124.171;Wettbewerb;ushindani;d;mapendezi;kichocheo;ubaguzi;mshania;NA;NA;NULL;NA;NA;NA;NA;NA;NA;NA;NA;NA;NA;NA;NA;NA;NA;NA;NA;NA;NA;NA;;
ac614;Save;data;screen;canvas.Screen;1_9_0_1;NA;NA;timeout;499.681;50112.4;50107.448;50124.171;50607.338;50608.1;2023-06-18T12:05:49Z;50623.852;Wettbewerb;ushindani;d;mapendezi;kichocheo;ubaguzi;NA;NA;0;NULL;NA;NA;NA;NA;NA;NA;NA;NA;NA;NA;NA;NA;NA;NA;NA;NA;NA;NA;NA;;
ac614;deep;flow.Sequence;1_9_0;NA;NA;completion;4046.709;46545.7;46543.947;46560.629;50607.338;50608.4;2023-06-18T12:05:49Z;50623.852;Wettbewerb;ushindani;d;mapendezi;kichocheo;ubaguzi;NA;NA;NA;NULL;NA;NA;NA;NA;NA;NA;NA;NA;NA;NA;NA;NA;NA;NA;NA;NA;NA;NA;NA;;;;
ac614;task;flow.Sequence;1_9;NA;NA;completion;4046.709;46545.6;46543.947;46560.629;50607.338;50608.5;2023-06-18T12:05:49Z;50623.852;Wettbewerb;ushindani;d;mapendezi;kichocheo;ubaguzi;NA;NA;NA;NULL;NA;NA;NA;NA;NA;NA;NA;NA;NA;NA;NA;NA;NA;NA;NA;NA;NA;NA;NA;;;;
ac614;Deep;Question;html.Page;1_10_0_0;NA;NA;form;submission;4365.448;50608.6;50607.338;50623.852;54989.3;54989.4;2023-06-18T12:05:54Z;55003.506;Ausschluss;kutengwa;d;ununuzi;taratibu;madeni;msohonal;NA;NA;NULL;NA;NA;NA;NA;NA;NA;NA;NA;NA;NA;NA;NA;NA;NA;NA;NA;NA;NA;NA;;
ac614;Save;data;screen;canvas.Screen;1_10_0_1;NA;NA;timeout;499.543;54989.9;54972.468;55003.506;55486.384;55487.3;2023-06-18T12:05:54Z;55503.049;Ausschluss;kutengwa;d;ununuzi;taratibu;madeni;NA;NA;0;NULL;NA;NA;NA;NA;NA;NA;NA;NA;NA;NA;NA;NA;NA;NA;NA;NA;NA;NA;NA;;
ac614;deep;flow.Sequence;1_10_0;NA;NA;completion;4862.532;50608.6;50607.338;50623.852;55486.384;55487.5;2023-06-18T12:05:54Z;55503.049;Ausschluss;kutengwa;d;ununuzi;taratibu;madeni;NA;NA;NA;NULL;NA;NA;NA;NA;NA;NA;NA;NA;NA;NA;NA;NA;NA;NA;NA;NA;NA;NA;NA;;;;
ac614;task;flow.Sequence;1_10;NA;NA;completion;4862.532;50608.6;50607.338;50623.852;55486.384;55487.8;2023-06-18T12:05:54Z;55503.049;Ausschluss;kutengwa;d;ununuzi;taratibu;madeni;NA;NA;NA;NULL;NA;NA;NA;NA;NA;NA;NA;NA;NA;NA;NA;NA;NA;NA;NA;NA;NA;NA;NA;;;;
ac614;Deep;Question;html.Page;1_11_0_0;NA;NA;form;submission;3514.651;55487.9;55486.384;55503.049;59017.7;59017.9;2023-06-18T12:05:58Z;59033.446;Verstand;ufahamivu;s;shakawa;hadhari;mhandisi;gerono;NA;NA;NULL;NA;NA;NA;NA;NA;NA;NA;NA;NA;NA;NA;NA;NA;NA;NA;NA;NA;NA;NA;;
ac614;Save;data;screen;canvas.Screen;1_11_0_1;NA;NA;timeout;499.811;59018.5;59016.458;59033.446;59516.631;59517.4;2023-06-18T12:05:58Z;59533.257;Verstand;ufahamivu;s;shakawa;hadhari;mhandisi;NA;NA;0;NULL;NA;NA;NA;NA;NA;NA;NA;NA;NA;NA;NA;NA;NA;NA;NA;NA;NA;NA;NA;;
ac614;deep;flow.Sequence;1_11_0;NA;NA;completion;4013.582;55487.9;55486.384;55503.049;59516.631;59517.6;2023-06-18T12:05:58Z;59533.257;Verstand;ufahamivu;s;shakawa;hadhari;mhandisi;NA;NA;NA;NULL;NA;NA;NA;NA;NA;NA;NA;NA;NA;NA;NA;NA;NA;NA;NA;NA;NA;NA;NA;;;;
ac614;task;flow.Sequence;1_11;NA;NA;completion;4013.582;55487.9;55486.384;55503.049;59516.631;59517.8;2023-06-18T12:05:58Z;59533.257;Verstand;ufahamivu;s;shakawa;hadhari;mhandisi;NA;NA;NA;NULL;NA;NA;NA;NA;NA;NA;NA;NA;NA;NA;NA;NA;NA;NA;NA;NA;NA;NA;NA;;;;
ac614;Deep;Question;html.Page;1_12_0_0;NA;NA;form;submission;10503.443;59518;59516.631;59533.257;70036.7;70036.9;2023-06-18T12:06:09Z;70041.128;Gelegenheit;wakati;d;mchanganyiko;kipaumbele;kushuku;watai;NA;NA;NULL;NA;NA;NA;NA;NA;NA;NA;NA;NA;NA;NA;NA;NA;NA;NA;NA;NA;NA;NA;;
ac614;Save;data;screen;canvas.Screen;1_12_0_1;NA;NA;timeout;499.768;70038.5;70025.938;70041.128;70524.371;70525.1;2023-06-18T12:06:09Z;70540.896;Gelegenheit;wakati;d;mchanganyiko;kipaumbele;kushuku;NA;NA;0;NULL;NA;NA;NA;NA;NA;NA;NA;NA;NA;NA;NA;NA;NA;NA;NA;NA;NA;NA;NA;;
ac614;deep;flow.Sequence;1_12_0;NA;NA;completion;10991.114;59517.9;59516.631;59533.257;70524.371;70525.3;2023-06-18T12:06:09Z;70540.896;Gelegenheit;wakati;d;mchanganyiko;kipaumbele;kushuku;NA;NA;NA;NULL;NA;NA;NA;NA;NA;NA;NA;NA;NA;NA;NA;NA;NA;NA;NA;NA;NA;NA;NA;;;;
ac614;task;flow.Sequence;1_12;NA;NA;completion;10991.114;59517.9;59516.631;59533.257;70524.371;70525.5;2023-06-18T12:06:09Z;70540.896;Gelegenheit;wakati;d;mchanganyiko;kipaumbele;kushuku;NA;NA;NA;NULL;NA;NA;NA;NA;NA;NA;NA;NA;NA;NA;NA;NA;NA;NA;NA;NA;NA;NA;NA;;;;
ac614;Deep;Question;html.Page;1_13_0_0;NA;NA;form;submission;2622.004;70525.6;70524.371;70540.896;73162.9;73163.2;2023-06-18T12:06:12Z;73172.038;Sympathie;mapendano;s;dhamiria;fungamano;maazimio;beloh;NA;NA;NULL;NA;NA;NA;NA;NA;NA;NA;NA;NA;NA;NA;NA;NA;NA;NA;NA;NA;NA;NA;;
ac614;Save;data;screen;canvas.Screen;1_13_0_1;NA;NA;timeout;499.532;73163.6;73157.093;73172.038;73654.824;73655.9;2023-06-18T12:06:12Z;73671.57;Sympathie;mapendano;s;dhamiria;fungamano;maazimio;NA;NA;0;NULL;NA;NA;NA;NA;NA;NA;NA;NA;NA;NA;NA;NA;NA;NA;NA;NA;NA;NA;NA;;
ac614;deep;flow.Sequence;1_13_0;NA;NA;completion;3113.928;70525.6;70524.371;70540.896;73654.824;73656.1;2023-06-18T12:06:12Z;73671.57;Sympathie;mapendano;s;dhamiria;fungamano;maazimio;NA;NA;NA;NULL;NA;NA;NA;NA;NA;NA;NA;NA;NA;NA;NA;NA;NA;NA;NA;NA;NA;NA;NA;;;;
ac614;task;flow.Sequence;1_13;NA;NA;completion;3113.928;70525.5;70524.371;70540.896;73654.824;73656.3;2023-06-18T12:06:12Z;73671.57;Sympathie;mapendano;s;dhamiria;fungamano;maazimio;NA;NA;NA;NULL;NA;NA;NA;NA;NA;NA;NA;NA;NA;NA;NA;NA;NA;NA;NA;NA;NA;NA;NA;;;;
ac614;Deep;Question;html.Page;1_14_0_0;NA;NA;form;submission;2125.53;73656.4;73654.824;73671.57;75797.1;75797.2;2023-06-18T12:06:14Z;75802.999;Auftrag;uagizaji;d;ghanima;kuzingatia;msukani;dasfd;NA;NA;NULL;NA;NA;NA;NA;NA;NA;NA;NA;NA;NA;NA;NA;NA;NA;NA;NA;NA;NA;NA;;
ac614;Save;data;screen;canvas.Screen;1_14_0_1;NA;NA;timeout;499.99;75797.8;75790.738;75802.999;76286.335;76287.1;2023-06-18T12:06:15Z;76302.989;Auftrag;uagizaji;d;ghanima;kuzingatia;msukani;NA;NA;0;NULL;NA;NA;NA;NA;NA;NA;NA;NA;NA;NA;NA;NA;NA;NA;NA;NA;NA;NA;NA;;
ac614;deep;flow.Sequence;1_14_0;NA;NA;completion;2614.765;73656.4;73654.824;73671.57;76286.335;76287.4;2023-06-18T12:06:15Z;76302.989;Auftrag;uagizaji;d;ghanima;kuzingatia;msukani;NA;NA;NA;NULL;NA;NA;NA;NA;NA;NA;NA;NA;NA;NA;NA;NA;NA;NA;NA;NA;NA;NA;NA;;;;
ac614;task;flow.Sequence;1_14;NA;NA;completion;2614.765;73656.3;73654.824;73671.57;76286.335;76287.5;2023-06-18T12:06:15Z;76302.989;Auftrag;uagizaji;d;ghanima;kuzingatia;msukani;NA;NA;NA;NULL;NA;NA;NA;NA;NA;NA;NA;NA;NA;NA;NA;NA;NA;NA;NA;NA;NA;NA;NA;;;;
ac614;Deep;Question;html.Page;1_15_0_0;NA;NA;form;submission;8331.911;76287.7;76286.335;76302.989;84634.9;84635.1;2023-06-18T12:06:23Z;84646.073;Widerstand;usulubu;s;kusababisha;mwalimu;mwenendo;mahadi;NA;NA;NULL;NA;NA;NA;NA;NA;NA;NA;NA;NA;NA;NA;NA;NA;NA;NA;NA;NA;NA;NA;;
ac614;Save;data;screen;canvas.Screen;1_15_0_1;NA;NA;timeout;499.415;84636.9;84630.039;84646.073;85128.951;85129.7;2023-06-18T12:06:24Z;85145.488;Widerstand;usulubu;s;kusababisha;mwalimu;mwenendo;NA;NA;0;NULL;NA;NA;NA;NA;NA;NA;NA;NA;NA;NA;NA;NA;NA;NA;NA;NA;NA;NA;NA;;
ac614;deep;flow.Sequence;1_15_0;NA;NA;completion;8825.962;76287.6;76286.335;76302.989;85128.951;85130;2023-06-18T12:06:24Z;85145.488;Widerstand;usulubu;s;kusababisha;mwalimu;mwenendo;NA;NA;NA;NULL;NA;NA;NA;NA;NA;NA;NA;NA;NA;NA;NA;NA;NA;NA;NA;NA;NA;NA;NA;;;;
ac614;task;flow.Sequence;1_15;NA;NA;completion;8825.962;76287.6;76286.335;76302.989;85128.951;85130.1;2023-06-18T12:06:24Z;85145.488;Widerstand;usulubu;s;kusababisha;mwalimu;mwenendo;NA;NA;NA;NULL;NA;NA;NA;NA;NA;NA;NA;NA;NA;NA;NA;NA;NA;NA;NA;NA;NA;NA;NA;;;;
ac614;retrieval;block;1;(cued;recall);flow.Loop;1;NA;NA;completion;74172.731;10948.8;10941.616;10956.22;85128.951;85130.3;2023-06-18T12:06:24Z;85145.488;NA;NA;NA;NA;NA;NA;NA;NA;NA;NULL;NA;NA;NA;NA;NA;NA;NA;NA;NA;NA;NA;NA;NA;NA;NA;NA;NA;NA;NA
ac614;Shallow;Question;html.Page;2_0_0_0;NA;NA;form;submission;3416.912;85130.5;85128.951;85145.488;88562.4;88562.7;2023-06-18T12:06:27Z;88576.12;Gelegenheit;wakati;d;mchanganyiko;kipaumbele;kushuku;wakati;NA;NA;"c(""distractor1"", ""distractor2"", ""distractor3"")";NA;NA;NA;NA;NA;NA;NA;NA;NA;NA;NA;NA;NA;NA;NA;NA;NA;NA;NA;;
ac614;Save;data;screen;canvas.Screen;2_0_0_1;NA;NA;timeout;499.314;88563.1;88559.533;88576.12;89059.191;89060;2023-06-18T12:06:28Z;89075.434;Gelegenheit;wakati;d;mchanganyiko;kipaumbele;kushuku;NA;NA;1;"c(""distractor1"", ""distractor2"", ""distractor3"")";NA;NA;NA;NA;NA;NA;NA;NA;NA;NA;NA;NA;NA;NA;NA;NA;NA;NA;NA;;
ac614;shallow;flow.Sequence;2_0_0;NA;NA;completion;3913.703;85130.4;85128.951;85145.488;89059.191;89060.2;2023-06-18T12:06:28Z;89075.434;Gelegenheit;wakati;d;mchanganyiko;kipaumbele;kushuku;NA;NA;NA;"c(""distractor1"", ""distractor2"", ""distractor3"")";NA;NA;NA;NA;NA;NA;NA;NA;NA;NA;NA;NA;NA;NA;NA;NA;NA;NA;NA;;;;
ac614;task;flow.Sequence;2_0;NA;NA;completion;3913.703;85130.4;85128.951;85145.488;89059.191;89060.4;2023-06-18T12:06:28Z;89075.434;Gelegenheit;wakati;d;mchanganyiko;kipaumbele;kushuku;NA;NA;NA;"c(""distractor1"", ""distractor2"", ""distractor3"")";NA;NA;NA;NA;NA;NA;NA;NA;NA;NA;NA;NA;NA;NA;NA;NA;NA;NA;NA;;;;
ac614;Shallow;Question;html.Page;2_1_0_0;NA;NA;form;submission;8748.566;89060.6;89059.191;89075.434;97824;97824.4;2023-06-18T12:06:36Z;97834.941;Wettbewerb;ushindani;d;mapendezi;kichocheo;ubaguzi;ushindani;NA;NA;"c(""distractor1"", ""distractor2"", ""distractor3"")";NA;NA;NA;NA;NA;NA;NA;NA;NA;NA;NA;NA;NA;NA;NA;NA;NA;NA;NA;;
ac614;Save;data;screen;canvas.Screen;2_1_0_1;NA;NA;timeout;499.944;97825.8;97818.966;97834.941;98318.254;98319.7;2023-06-18T12:06:37Z;98334.885;Wettbewerb;ushindani;d;mapendezi;kichocheo;ubaguzi;NA;NA;1;"c(""distractor1"", ""distractor2"", ""distractor3"")";NA;NA;NA;NA;NA;NA;NA;NA;NA;NA;NA;NA;NA;NA;NA;NA;NA;NA;NA;;
ac614;shallow;flow.Sequence;2_1_0;NA;NA;completion;9242.82;89060.6;89059.191;89075.434;98318.254;98320.1;2023-06-18T12:06:37Z;98334.885;Wettbewerb;ushindani;d;mapendezi;kichocheo;ubaguzi;NA;NA;NA;"c(""distractor1"", ""distractor2"", ""distractor3"")";NA;NA;NA;NA;NA;NA;NA;NA;NA;NA;NA;NA;NA;NA;NA;NA;NA;NA;NA;;;;
ac614;task;flow.Sequence;2_1;NA;NA;completion;9242.82;89060.5;89059.191;89075.434;98318.254;98320.4;2023-06-18T12:06:37Z;98334.885;Wettbewerb;ushindani;d;mapendezi;kichocheo;ubaguzi;NA;NA;NA;"c(""distractor1"", ""distractor2"", ""distractor3"")";NA;NA;NA;NA;NA;NA;NA;NA;NA;NA;NA;NA;NA;NA;NA;NA;NA;NA;NA;;;;
ac614;Shallow;Question;html.Page;2_2_0_0;NA;NA;form;submission;4013.915;98320.6;98318.254;98334.885;102348.8;102349;2023-06-18T12:06:41Z;102364.644;Widerstand;usulubu;s;kusababisha;mwalimu;mwenendo;usulubu;NA;NA;"c(""distractor1"", ""distractor2"", ""distractor3"")";NA;NA;NA;NA;NA;NA;NA;NA;NA;NA;NA;NA;NA;NA;NA;NA;NA;NA;NA;;
ac614;Save;data;screen;canvas.Screen;2_2_0_1;NA;NA;timeout;499.787;102350.3;102331.514;102364.644;102847.846;102854.3;2023-06-18T12:06:42Z;102864.431;Widerstand;usulubu;s;kusababisha;mwalimu;mwenendo;NA;NA;1;"c(""distractor1"", ""distractor2"", ""distractor3"")";NA;NA;NA;NA;NA;NA;NA;NA;NA;NA;NA;NA;NA;NA;NA;NA;NA;NA;NA;;
ac614;shallow;flow.Sequence;2_2_0;NA;NA;completion;4512.961;98320.6;98318.254;98334.885;102847.846;102854.4;2023-06-18T12:06:42Z;102864.431;Widerstand;usulubu;s;kusababisha;mwalimu;mwenendo;NA;NA;NA;"c(""distractor1"", ""distractor2"", ""distractor3"")";NA;NA;NA;NA;NA;NA;NA;NA;NA;NA;NA;NA;NA;NA;NA;NA;NA;NA;NA;;;;
ac614;task;flow.Sequence;2_2;NA;NA;completion;4512.961;98320.5;98318.254;98334.885;102847.846;102854.4;2023-06-18T12:06:42Z;102864.431;Widerstand;usulubu;s;kusababisha;mwalimu;mwenendo;NA;NA;NA;"c(""distractor1"", ""distractor2"", ""distractor3"")";NA;NA;NA;NA;NA;NA;NA;NA;NA;NA;NA;NA;NA;NA;NA;NA;NA;NA;NA;;;;
ac614;Shallow;Question;html.Page;2_3_0_0;NA;NA;form;submission;2570.769;102854.5;102847.846;102864.431;105435.2;105435.5;2023-06-18T12:06:44Z;105445.674;Konkurrent;mshindani;d;msemaji;mvutaji;kipukusa;mshindani;NA;NA;"c(""distractor1"", ""distractor2"", ""distractor3"")";NA;NA;NA;NA;NA;NA;NA;NA;NA;NA;NA;NA;NA;NA;NA;NA;NA;NA;NA;;
ac614;Save;data;screen;canvas.Screen;2_3_0_1;NA;NA;timeout;499.327;105435.9;105429.031;105445.674;105928.358;105929.5;2023-06-18T12:06:45Z;105945.001;Konkurrent;mshindani;d;msemaji;mvutaji;kipukusa;NA;NA;1;"c(""distractor1"", ""distractor2"", ""distractor3"")";NA;NA;NA;NA;NA;NA;NA;NA;NA;NA;NA;NA;NA;NA;NA;NA;NA;NA;NA;;
ac614;shallow;flow.Sequence;2_3_0;NA;NA;completion;3063.927;102854.5;102847.846;102864.431;105928.358;105929.8;2023-06-18T12:06:45Z;105945.001;Konkurrent;mshindani;d;msemaji;mvutaji;kipukusa;NA;NA;NA;"c(""distractor1"", ""distractor2"", ""distractor3"")";NA;NA;NA;NA;NA;NA;NA;NA;NA;NA;NA;NA;NA;NA;NA;NA;NA;NA;NA;;;;
ac614;task;flow.Sequence;2_3;NA;NA;completion;3063.927;102854.5;102847.846;102864.431;105928.358;105929.9;2023-06-18T12:06:45Z;105945.001;Konkurrent;mshindani;d;msemaji;mvutaji;kipukusa;NA;NA;NA;"c(""distractor1"", ""distractor2"", ""distractor3"")";NA;NA;NA;NA;NA;NA;NA;NA;NA;NA;NA;NA;NA;NA;NA;NA;NA;NA;NA;;;;
ac614;Shallow;Question;html.Page;2_4_0_0;NA;NA;form;submission;2325.399;105930.1;105928.358;105945.001;108270.4;108270.7;2023-06-18T12:06:47Z;108293.358;Sympathie;mapendano;s;dhamiria;fungamano;maazimio;mapendano;NA;NA;"c(""distractor1"", ""distractor2"", ""distractor3"")";NA;NA;NA;NA;NA;NA;NA;NA;NA;NA;NA;NA;NA;NA;NA;NA;NA;NA;NA;;
ac614;Save;data;screen;canvas.Screen;2_4_0_1;NA;NA;timeout;499.647;108272.6;108276.696;108293.358;108776.328;108777.1;2023-06-18T12:06:47Z;108793.005;Sympathie;mapendano;s;dhamiria;fungamano;maazimio;NA;NA;1;"c(""distractor1"", ""distractor2"", ""distractor3"")";NA;NA;NA;NA;NA;NA;NA;NA;NA;NA;NA;NA;NA;NA;NA;NA;NA;NA;NA;;
ac614;shallow;flow.Sequence;2_4_0;NA;NA;completion;2831.327;105930.1;105928.358;105945.001;108776.328;108777.4;2023-06-18T12:06:47Z;108793.005;Sympathie;mapendano;s;dhamiria;fungamano;maazimio;NA;NA;NA;"c(""distractor1"", ""distractor2"", ""distractor3"")";NA;NA;NA;NA;NA;NA;NA;NA;NA;NA;NA;NA;NA;NA;NA;NA;NA;NA;NA;;;;
ac614;task;flow.Sequence;2_4;NA;NA;completion;2831.327;105930;105928.358;105945.001;108776.328;108777.6;2023-06-18T12:06:47Z;108793.005;Sympathie;mapendano;s;dhamiria;fungamano;maazimio;NA;NA;NA;"c(""distractor1"", ""distractor2"", ""distractor3"")";NA;NA;NA;NA;NA;NA;NA;NA;NA;NA;NA;NA;NA;NA;NA;NA;NA;NA;NA;;;;
ac614;Shallow;Question;html.Page;2_5_0_0;NA;NA;form;submission;2183.095;108777.7;108776.328;108793.005;110976.1;110976.3;2023-06-18T12:06:50Z;110991.138;Annäherung;maegesho;s;madahili;kujiamini;mapendekezo;maegesho;NA;NA;"c(""distractor1"", ""distractor2"", ""distractor3"")";NA;NA;NA;NA;NA;NA;NA;NA;NA;NA;NA;NA;NA;NA;NA;NA;NA;NA;NA;;
ac614;Save;data;screen;canvas.Screen;2_5_0_1;NA;NA;timeout;499.637;110976.7;110974.634;110991.138;111473.985;111475.1;2023-06-18T12:06:50Z;111490.775;Annäherung;maegesho;s;madahili;kujiamini;mapendekezo;NA;NA;1;"c(""distractor1"", ""distractor2"", ""distractor3"")";NA;NA;NA;NA;NA;NA;NA;NA;NA;NA;NA;NA;NA;NA;NA;NA;NA;NA;NA;;
ac614;shallow;flow.Sequence;2_5_0;NA;NA;completion;2680.98;108777.7;108776.328;108793.005;111473.985;111475.2;2023-06-18T12:06:50Z;111490.775;Annäherung;maegesho;s;madahili;kujiamini;mapendekezo;NA;NA;NA;"c(""distractor1"", ""distractor2"", ""distractor3"")";NA;NA;NA;NA;NA;NA;NA;NA;NA;NA;NA;NA;NA;NA;NA;NA;NA;NA;NA;;;;
ac614;task;flow.Sequence;2_5;NA;NA;completion;2680.98;108777.7;108776.328;108793.005;111473.985;111475.5;2023-06-18T12:06:50Z;111490.775;Annäherung;maegesho;s;madahili;kujiamini;mapendekezo;NA;NA;NA;"c(""distractor1"", ""distractor2"", ""distractor3"")";NA;NA;NA;NA;NA;NA;NA;NA;NA;NA;NA;NA;NA;NA;NA;NA;NA;NA;NA;;;;
ac614;Shallow;Question;html.Page;2_6_0_0;NA;NA;form;submission;2049.225;111475.6;111473.985;111490.775;113540;113540.3;2023-06-18T12:06:52Z;113555.446;Polizist;msongora;d;simanzi;mandhari;nidhamu;msongora;NA;NA;"c(""distractor1"", ""distractor2"", ""distractor3"")";NA;NA;NA;NA;NA;NA;NA;NA;NA;NA;NA;NA;NA;NA;NA;NA;NA;NA;NA;;
ac614;Save;data;screen;canvas.Screen;2_6_0_1;NA;NA;timeout;499.923;113540.7;113522.868;113555.446;114038.666;114039.4;2023-06-18T12:06:53Z;114055.369;Polizist;msongora;d;simanzi;mandhari;nidhamu;NA;NA;1;"c(""distractor1"", ""distractor2"", ""distractor3"")";NA;NA;NA;NA;NA;NA;NA;NA;NA;NA;NA;NA;NA;NA;NA;NA;NA;NA;NA;;
ac614;shallow;flow.Sequence;2_6_0;NA;NA;completion;2547.891;111475.6;111473.985;111490.775;114038.666;114039.6;2023-06-18T12:06:53Z;114055.369;Polizist;msongora;d;simanzi;mandhari;nidhamu;NA;NA;NA;"c(""distractor1"", ""distractor2"", ""distractor3"")";NA;NA;NA;NA;NA;NA;NA;NA;NA;NA;NA;NA;NA;NA;NA;NA;NA;NA;NA;;;;
ac614;task;flow.Sequence;2_6;NA;NA;completion;2547.891;111475.6;111473.985;111490.775;114038.666;114039.7;2023-06-18T12:06:53Z;114055.369;Polizist;msongora;d;simanzi;mandhari;nidhamu;NA;NA;NA;"c(""distractor1"", ""distractor2"", ""distractor3"")";NA;NA;NA;NA;NA;NA;NA;NA;NA;NA;NA;NA;NA;NA;NA;NA;NA;NA;NA;;;;
ac614;Shallow;Question;html.Page;2_7_0_0;NA;NA;form;submission;2581.631;114039.9;114038.666;114055.369;116637;116637.4;2023-06-18T12:06:55Z;116636.214;Verstand;ufahamivu;s;shakawa;hadhari;mhandisi;hadhari;NA;NA;"c(""distractor1"", ""distractor2"", ""distractor3"")";NA;NA;NA;NA;NA;NA;NA;NA;NA;NA;NA;NA;NA;NA;NA;NA;NA;NA;NA;;
ac614;Save;data;screen;canvas.Screen;2_7_0_1;NA;NA;timeout;499.609;116638.7;116626.024;116636.214;117119.198;117128.1;2023-06-18T12:06:56Z;117135.823;Verstand;ufahamivu;s;shakawa;hadhari;mhandisi;NA;NA;0;"c(""distractor1"", ""distractor2"", ""distractor3"")";NA;NA;NA;NA;NA;NA;NA;NA;NA;NA;NA;NA;NA;NA;NA;NA;NA;NA;NA;;
ac614;shallow;flow.Sequence;2_7_0;NA;NA;completion;3063.829;114039.9;114038.666;114055.369;117119.198;117128.3;2023-06-18T12:06:56Z;117135.823;Verstand;ufahamivu;s;shakawa;hadhari;mhandisi;NA;NA;NA;"c(""distractor1"", ""distractor2"", ""distractor3"")";NA;NA;NA;NA;NA;NA;NA;NA;NA;NA;NA;NA;NA;NA;NA;NA;NA;NA;NA;;;;
ac614;task;flow.Sequence;2_7;NA;NA;completion;3063.829;114039.9;114038.666;114055.369;117119.198;117128.6;2023-06-18T12:06:56Z;117135.823;Verstand;ufahamivu;s;shakawa;hadhari;mhandisi;NA;NA;NA;"c(""distractor1"", ""distractor2"", ""distractor3"")";NA;NA;NA;NA;NA;NA;NA;NA;NA;NA;NA;NA;NA;NA;NA;NA;NA;NA;NA;;;;
ac614;Shallow;Question;html.Page;2_8_0_0;NA;NA;form;submission;1128.577;117128.7;117119.198;117135.823;118264.4;118264.7;2023-06-18T12:06:57Z;118268.167;Symbol;kielezo;s;kinyume;nderemo;utayari;kielezo;NA;NA;"c(""distractor1"", ""distractor2"", ""distractor3"")";NA;NA;NA;NA;NA;NA;NA;NA;NA;NA;NA;NA;NA;NA;NA;NA;NA;NA;NA;;
ac614;Save;data;screen;canvas.Screen;2_8_0_1;NA;NA;timeout;499.986;118265.1;118252.024;118268.167;118751.483;118752.2;2023-06-18T12:06:57Z;118768.153;Symbol;kielezo;s;kinyume;nderemo;utayari;NA;NA;1;"c(""distractor1"", ""distractor2"", ""distractor3"")";NA;NA;NA;NA;NA;NA;NA;NA;NA;NA;NA;NA;NA;NA;NA;NA;NA;NA;NA;;
ac614;shallow;flow.Sequence;2_8_0;NA;NA;completion;1615.66;117128.7;117119.198;117135.823;118751.483;118752.4;2023-06-18T12:06:57Z;118768.153;Symbol;kielezo;s;kinyume;nderemo;utayari;NA;NA;NA;"c(""distractor1"", ""distractor2"", ""distractor3"")";NA;NA;NA;NA;NA;NA;NA;NA;NA;NA;NA;NA;NA;NA;NA;NA;NA;NA;NA;;;;
ac614;task;flow.Sequence;2_8;NA;NA;completion;1615.66;117128.7;117119.198;117135.823;118751.483;118752.6;2023-06-18T12:06:57Z;118768.153;Symbol;kielezo;s;kinyume;nderemo;utayari;NA;NA;NA;"c(""distractor1"", ""distractor2"", ""distractor3"")";NA;NA;NA;NA;NA;NA;NA;NA;NA;NA;NA;NA;NA;NA;NA;NA;NA;NA;NA;;;;
ac614;Shallow;Question;html.Page;2_9_0_0;NA;NA;form;submission;1310.147;118752.7;118751.483;118768.153;120078.3;120078.5;2023-06-18T12:06:59Z;120083.491;Auftrag;uagizaji;d;ghanima;kuzingatia;msukani;uagizaji;NA;NA;"c(""distractor1"", ""distractor2"", ""distractor3"")";NA;NA;NA;NA;NA;NA;NA;NA;NA;NA;NA;NA;NA;NA;NA;NA;NA;NA;NA;;
ac614;Save;data;screen;canvas.Screen;2_9_0_1;NA;NA;timeout;499.864;120079;120067.453;120083.491;120566.665;120567.5;2023-06-18T12:06:59Z;120583.355;Auftrag;uagizaji;d;ghanima;kuzingatia;msukani;NA;NA;1;"c(""distractor1"", ""distractor2"", ""distractor3"")";NA;NA;NA;NA;NA;NA;NA;NA;NA;NA;NA;NA;NA;NA;NA;NA;NA;NA;NA;;
ac614;shallow;flow.Sequence;2_9_0;NA;NA;completion;1798.512;118752.7;118751.483;118768.153;120566.665;120567.9;2023-06-18T12:06:59Z;120583.355;Auftrag;uagizaji;d;ghanima;kuzingatia;msukani;NA;NA;NA;"c(""distractor1"", ""distractor2"", ""distractor3"")";NA;NA;NA;NA;NA;NA;NA;NA;NA;NA;NA;NA;NA;NA;NA;NA;NA;NA;NA;;;;
ac614;task;flow.Sequence;2_9;NA;NA;completion;1798.512;118752.7;118751.483;118768.153;120566.665;120568.3;2023-06-18T12:06:59Z;120583.355;Auftrag;uagizaji;d;ghanima;kuzingatia;msukani;NA;NA;NA;"c(""distractor1"", ""distractor2"", ""distractor3"")";NA;NA;NA;NA;NA;NA;NA;NA;NA;NA;NA;NA;NA;NA;NA;NA;NA;NA;NA;;;;
ac614;Shallow;Question;html.Page;2_10_0_0;NA;NA;form;submission;3860.145;120568.4;120566.665;120583.355;124443.5;124443.8;2023-06-18T12:07:03Z;124446.479;Vorsorge;tahadhari;d;ufafanuzi;makini;mashambani;tahadhari;NA;NA;"c(""distractor1"", ""distractor2"", ""distractor3"")";NA;NA;NA;NA;NA;NA;NA;NA;NA;NA;NA;NA;NA;NA;NA;NA;NA;NA;NA;;
ac614;Save;data;screen;canvas.Screen;2_10_0_1;NA;NA;timeout;499.604;124445.2;124430.161;124446.479;124929.417;124930.4;2023-06-18T12:07:04Z;124946.083;Vorsorge;tahadhari;d;ufafanuzi;makini;mashambani;NA;NA;1;"c(""distractor1"", ""distractor2"", ""distractor3"")";NA;NA;NA;NA;NA;NA;NA;NA;NA;NA;NA;NA;NA;NA;NA;NA;NA;NA;NA;;
ac614;shallow;flow.Sequence;2_10_0;NA;NA;completion;4346.062;120568.4;120566.665;120583.355;124929.417;124930.7;2023-06-18T12:07:04Z;124946.083;Vorsorge;tahadhari;d;ufafanuzi;makini;mashambani;NA;NA;NA;"c(""distractor1"", ""distractor2"", ""distractor3"")";NA;NA;NA;NA;NA;NA;NA;NA;NA;NA;NA;NA;NA;NA;NA;NA;NA;NA;NA;;;;
ac614;task;flow.Sequence;2_10;NA;NA;completion;4346.062;120568.4;120566.665;120583.355;124929.417;124930.8;2023-06-18T12:07:04Z;124946.083;Vorsorge;tahadhari;d;ufafanuzi;makini;mashambani;NA;NA;NA;"c(""distractor1"", ""distractor2"", ""distractor3"")";NA;NA;NA;NA;NA;NA;NA;NA;NA;NA;NA;NA;NA;NA;NA;NA;NA;NA;NA;;;;
ac614;Shallow;Question;html.Page;2_11_0_0;NA;NA;form;submission;3098.417;124930.9;124929.417;124946.083;128044.5;128044.8;2023-06-18T12:07:07Z;128060.461;Zuwachs;nyongeza;s;matilaba;udhibiti;hudhurio;nyongeza;NA;NA;"c(""distractor1"", ""distractor2"", ""distractor3"")";NA;NA;NA;NA;NA;NA;NA;NA;NA;NA;NA;NA;NA;NA;NA;NA;NA;NA;NA;;
ac614;Save;data;screen;canvas.Screen;2_11_0_1;NA;NA;timeout;499.649;128046.1;128029.016;128060.461;128543.455;128544.1;2023-06-18T12:07:07Z;128560.11;Zuwachs;nyongeza;s;matilaba;udhibiti;hudhurio;NA;NA;1;"c(""distractor1"", ""distractor2"", ""distractor3"")";NA;NA;NA;NA;NA;NA;NA;NA;NA;NA;NA;NA;NA;NA;NA;NA;NA;NA;NA;;
ac614;shallow;flow.Sequence;2_11_0;NA;NA;completion;3597.372;124930.9;124929.417;124946.083;128543.455;128544.4;2023-06-18T12:07:07Z;128560.11;Zuwachs;nyongeza;s;matilaba;udhibiti;hudhurio;NA;NA;NA;"c(""distractor1"", ""distractor2"", ""distractor3"")";NA;NA;NA;NA;NA;NA;NA;NA;NA;NA;NA;NA;NA;NA;NA;NA;NA;NA;NA;;;;
ac614;task;flow.Sequence;2_11;NA;NA;completion;3597.372;124930.9;124929.417;124946.083;128543.455;128544.5;2023-06-18T12:07:07Z;128560.11;Zuwachs;nyongeza;s;matilaba;udhibiti;hudhurio;NA;NA;NA;"c(""distractor1"", ""distractor2"", ""distractor3"")";NA;NA;NA;NA;NA;NA;NA;NA;NA;NA;NA;NA;NA;NA;NA;NA;NA;NA;NA;;;;
ac614;Shallow;Question;html.Page;2_12_0_0;NA;NA;form;submission;2812.39;128544.7;128543.455;128560.11;131372.5;131372.8;2023-06-18T12:07:10Z;131374.101;Schönheit;kirembo;s;mahojiano;msisimko;jitihadi;kirembo;NA;NA;"c(""distractor1"", ""distractor2"", ""distractor3"")";NA;NA;NA;NA;NA;NA;NA;NA;NA;NA;NA;NA;NA;NA;NA;NA;NA;NA;NA;;
ac614;Save;data;screen;canvas.Screen;2_12_0_1;NA;NA;timeout;499.608;131373.2;131357.817;131374.101;131857.491;131858.6;2023-06-18T12:07:11Z;131873.709;Schönheit;kirembo;s;mahojiano;msisimko;jitihadi;NA;NA;1;"c(""distractor1"", ""distractor2"", ""distractor3"")";NA;NA;NA;NA;NA;NA;NA;NA;NA;NA;NA;NA;NA;NA;NA;NA;NA;NA;NA;;
ac614;shallow;flow.Sequence;2_12_0;NA;NA;completion;3297.381;128544.7;128543.455;128560.11;131857.491;131858.8;2023-06-18T12:07:11Z;131873.709;Schönheit;kirembo;s;mahojiano;msisimko;jitihadi;NA;NA;NA;"c(""distractor1"", ""distractor2"", ""distractor3"")";NA;NA;NA;NA;NA;NA;NA;NA;NA;NA;NA;NA;NA;NA;NA;NA;NA;NA;NA;;;;
ac614;task;flow.Sequence;2_12;NA;NA;completion;3297.381;128544.7;128543.455;128560.11;131857.491;131859.1;2023-06-18T12:07:11Z;131873.709;Schönheit;kirembo;s;mahojiano;msisimko;jitihadi;NA;NA;NA;"c(""distractor1"", ""distractor2"", ""distractor3"")";NA;NA;NA;NA;NA;NA;NA;NA;NA;NA;NA;NA;NA;NA;NA;NA;NA;NA;NA;;;;
ac614;Shallow;Question;html.Page;2_13_0_0;NA;NA;form;submission;5307.791;131859.2;131857.491;131873.709;137181.5;137181.9;2023-06-18T12:07:16Z;137185.986;Ausschluss;kutengwa;d;ununuzi;taratibu;madeni;taratibu;NA;NA;"c(""distractor1"", ""distractor2"", ""distractor3"")";NA;NA;NA;NA;NA;NA;NA;NA;NA;NA;NA;NA;NA;NA;NA;NA;NA;NA;NA;;
ac614;Save;data;screen;canvas.Screen;2_13_0_1;NA;NA;timeout;499.976;137183.3;137171.296;137185.986;137669.305;137670.2;2023-06-18T12:07:16Z;137685.962;Ausschluss;kutengwa;d;ununuzi;taratibu;madeni;NA;NA;0;"c(""distractor1"", ""distractor2"", ""distractor3"")";NA;NA;NA;NA;NA;NA;NA;NA;NA;NA;NA;NA;NA;NA;NA;NA;NA;NA;NA;;
ac614;shallow;flow.Sequence;2_13_0;NA;NA;completion;5795.596;131859.2;131857.491;131873.709;137669.305;137670.6;2023-06-18T12:07:16Z;137685.962;Ausschluss;kutengwa;d;ununuzi;taratibu;madeni;NA;NA;NA;"c(""distractor1"", ""distractor2"", ""distractor3"")";NA;NA;NA;NA;NA;NA;NA;NA;NA;NA;NA;NA;NA;NA;NA;NA;NA;NA;NA;;;;
ac614;task;flow.Sequence;2_13;NA;NA;completion;5795.596;131859.1;131857.491;131873.709;137669.305;137670.9;2023-06-18T12:07:16Z;137685.962;Ausschluss;kutengwa;d;ununuzi;taratibu;madeni;NA;NA;NA;"c(""distractor1"", ""distractor2"", ""distractor3"")";NA;NA;NA;NA;NA;NA;NA;NA;NA;NA;NA;NA;NA;NA;NA;NA;NA;NA;NA;;;;
ac614;Shallow;Question;html.Page;2_14_0_0;NA;NA;form;submission;2135.738;137671.1;137669.305;137685.962;139821.7;139821.8;2023-06-18T12:07:18Z;139833.922;Zufall;kikuti;s;kukosekana;uchoraji;leseni;kikuti;NA;NA;"c(""distractor1"", ""distractor2"", ""distractor3"")";NA;NA;NA;NA;NA;NA;NA;NA;NA;NA;NA;NA;NA;NA;NA;NA;NA;NA;NA;;
ac614;Save;data;screen;canvas.Screen;2_14_0_1;NA;NA;timeout;499.832;139822.3;139817.747;139833.922;140317.258;140318.6;2023-06-18T12:07:19Z;140333.754;Zufall;kikuti;s;kukosekana;uchoraji;leseni;NA;NA;1;"c(""distractor1"", ""distractor2"", ""distractor3"")";NA;NA;NA;NA;NA;NA;NA;NA;NA;NA;NA;NA;NA;NA;NA;NA;NA;NA;NA;;
ac614;shallow;flow.Sequence;2_14_0;NA;NA;completion;2631.296;137671;137669.305;137685.962;140317.258;140318.8;2023-06-18T12:07:19Z;140333.754;Zufall;kikuti;s;kukosekana;uchoraji;leseni;NA;NA;NA;"c(""distractor1"", ""distractor2"", ""distractor3"")";NA;NA;NA;NA;NA;NA;NA;NA;NA;NA;NA;NA;NA;NA;NA;NA;NA;NA;NA;;;;
ac614;task;flow.Sequence;2_14;NA;NA;completion;2631.296;137671;137669.305;137685.962;140317.258;140319.1;2023-06-18T12:07:19Z;140333.754;Zufall;kikuti;s;kukosekana;uchoraji;leseni;NA;NA;NA;"c(""distractor1"", ""distractor2"", ""distractor3"")";NA;NA;NA;NA;NA;NA;NA;NA;NA;NA;NA;NA;NA;NA;NA;NA;NA;NA;NA;;;;
ac614;Shallow;Question;html.Page;2_15_0_0;NA;NA;form;submission;3196.746;140319.2;140317.258;140333.754;143530.5;143530.8;2023-06-18T12:07:22Z;143530.816;Beweis;ushahidi;d;marudio;kizuizi;mtendaji;ushahidi;NA;NA;"c(""distractor1"", ""distractor2"", ""distractor3"")";NA;NA;NA;NA;NA;NA;NA;NA;NA;NA;NA;NA;NA;NA;NA;NA;NA;NA;NA;;
ac614;Save;data;screen;canvas.Screen;2_15_0_1;NA;NA;timeout;499.636;143532.3;143514.568;143530.816;144014.054;144015.1;2023-06-18T12:07:23Z;144030.452;Beweis;ushahidi;d;marudio;kizuizi;mtendaji;NA;NA;1;"c(""distractor1"", ""distractor2"", ""distractor3"")";NA;NA;NA;NA;NA;NA;NA;NA;NA;NA;NA;NA;NA;NA;NA;NA;NA;NA;NA;;
ac614;shallow;flow.Sequence;2_15_0;NA;NA;completion;3680.3;140319.2;140317.258;140333.754;144014.054;144015.3;2023-06-18T12:07:23Z;144030.452;Beweis;ushahidi;d;marudio;kizuizi;mtendaji;NA;NA;NA;"c(""distractor1"", ""distractor2"", ""distractor3"")";NA;NA;NA;NA;NA;NA;NA;NA;NA;NA;NA;NA;NA;NA;NA;NA;NA;NA;NA;;;;
ac614;task;flow.Sequence;2_15;NA;NA;completion;3680.3;140319.1;140317.258;140333.754;144014.054;144015.5;2023-06-18T12:07:23Z;144030.452;Beweis;ushahidi;d;marudio;kizuizi;mtendaji;NA;NA;NA;"c(""distractor1"", ""distractor2"", ""distractor3"")";NA;NA;NA;NA;NA;NA;NA;NA;NA;NA;NA;NA;NA;NA;NA;NA;NA;NA;NA;;;;
ac614;retrieval;block;2;(multiple;choice);flow.Loop;2;NA;NA;completion;58868.566;85130.4;85128.951;85145.488;144014.054;144015.7;2023-06-18T12:07:23Z;144030.452;NA;NA;NA;NA;NA;NA;NA;NA;NA;"c(""distractor1"", ""distractor2"", ""distractor3"")";NA;NA;NA;NA;NA;NA;NA;NA;NA;NA;NA;NA;NA;NA;NA;NA;NA;NA;NA
ac614;End;canvas.Screen;3;NA;keypress(Space);response;1644.348;144015.9;144014.054;144030.452;145674.8;145676.4;2023-06-18T12:07:24Z;145679.39;NA;NA;NA;NA;NA;NA;NA;NA;NA;NULL;NA;NA;NA;NA;NA;NA;NA;NA;NA;NA;NA;NA;NA;NA;NA;NA;NA;NA;NA;;;;
ac614;root;flow.Sequence;NA;NA;NA;completion;144443.746;1208.2;1197.644;1231.054;145674.8;145677;2023-06-18T12:07:24Z;145679.39;NA;NA;NA;NA;NA;NA;NA;NA;NA;NULL;NA;NA;NA;NA;NA;NA;NA;NA;NA;NA;NA;NA;NA;NA;NA;NA;NA;NA;NA;;;;
