observation;sender;sender_type;sender_id;response;response_action;ended_on;duration;time_run;time_render;time_show;time_end;time_commit;timestamp;time_switch;distractors;german;swahili;enc;distractor1;distractor2;distractor3;response_2;x;correct;x_2;url_vp;url_sess;meta_labjs_version;meta_location;meta_user_agent;meta_platform;meta_language;meta_locale;meta_time_zone;meta_timezone_offset;meta_screen_width;meta_screen_height;meta_scroll_width;meta_scroll_height;meta_window_inner_width;meta_window_inner_height;meta_device_pixel_ratio;meta_labjs_build_flavor;meta_labjs_build_commit;;;;
f2dbe;Introduction;general;canvas.Screen;0;weiter;keypress(q);response;8893.72;541;535.6;552.28;9446;9468;2023-06-16T11:31:59Z;9472.8;NULL;NA;NA;NA;NA;NA;NA;NA;NA;NA;NA;172;3;20.02.2004;https://neurocog.fernuni.ch/studies/vweber/sliechti/encoding_immediate/index.html?vp=172&sess=3;Mozilla/5.0;(Windows;NT;10;;;;;;;;;;;;;;
f2dbe;Introduction;practice;canvas.Screen;1_0;NA;keypress(Space);response;4068.2;9472;9472.24;9472.8;13541;13563;2023-06-16T11:32:04Z;13567.3;NULL;NA;NA;NA;NA;NA;NA;NA;NA;NA;NA;NA;NA;NA;NA;NA;NA;NA;NA;NA;NA;NA;NA;NA;NA;NA;NA;NA;NA;NA;;;
f2dbe;deep;flow.Sequence;1_1_0_0;NA;NA;skipped;NA;13565;NA;NA;13541;13565;2023-06-16T11:32:04Z;13567.3;"c(""distractor1"", ""distractor2"", ""distractor3"")";Gegenwart;hadhara;s;katiba;jokofu;mikopo;NA;NA;NA;NA;NA;NA;NA;NA;NA;NA;NA;NA;NA;NA;NA;NA;NA;NA;NA;NA;NA;NA;NA;;;;
f2dbe;Shallow;Question;html.Page;1_1_0_1_0;NA;NA;form;submission;11753.7;13566;13565.74;13567.3;25321;25321;2023-06-16T11:32:15Z;25315.84;"c(""distractor1"", ""distractor2"", ""distractor3"")";Gegenwart;hadhara;s;katiba;jokofu;mikopo;hadhara;NA;NA;NA;NA;NA;NA;NA;NA;NA;NA;NA;NA;NA;NA;NA;NA;NA;NA;NA;NA;NA;NA;;
f2dbe;"""Richtig""-Screen";canvas.Screen;1_1_0_1_1;NA;NA;timeout;4999.34;25326;25297.6;25315.84;30298.5;30301;2023-06-16T11:32:20Z;30315.18;"c(""distractor1"", ""distractor2"", ""distractor3"")";Gegenwart;hadhara;s;katiba;jokofu;mikopo;NA;NA;1;NA;NA;NA;NA;NA;NA;NA;NA;NA;NA;NA;NA;NA;NA;NA;NA;NA;NA;NA;NA;;;;
f2dbe;"""Falsch""-Screen";canvas.Screen;1_1_0_1_2;NA;NA;skipped;NA;30309;NA;NA;30298.5;30309;2023-06-16T11:32:20Z;30315.18;"c(""distractor1"", ""distractor2"", ""distractor3"")";Gegenwart;hadhara;s;katiba;jokofu;mikopo;NA;NA;NA;NA;NA;NA;NA;NA;NA;NA;NA;NA;NA;NA;NA;NA;NA;NA;NA;NA;NA;NA;NA;;;;
f2dbe;shallow;flow.Sequence;1_1_0_1;NA;NA;completion;16731.2;13566;13565.74;13567.3;30298.5;30310;2023-06-16T11:32:20Z;30315.18;"c(""distractor1"", ""distractor2"", ""distractor3"")";Gegenwart;hadhara;s;katiba;jokofu;mikopo;NA;NA;NA;NA;NA;NA;NA;NA;NA;NA;NA;NA;NA;NA;NA;NA;NA;NA;NA;NA;NA;NA;NA;;;;
f2dbe;task;flow.Sequence;1_1_0;NA;NA;completion;16731.2;13565;13565.74;13567.3;30298.5;30311;2023-06-16T11:32:20Z;30315.18;"c(""distractor1"", ""distractor2"", ""distractor3"")";Gegenwart;hadhara;s;katiba;jokofu;mikopo;NA;NA;NA;NA;NA;NA;NA;NA;NA;NA;NA;NA;NA;NA;NA;NA;NA;NA;NA;NA;NA;NA;NA;;;;
f2dbe;deep;flow.Sequence;1_1_1_0;NA;NA;skipped;NA;30311;NA;NA;30298.5;30312;2023-06-16T11:32:20Z;30315.18;"c(""distractor1"", ""distractor2"", ""distractor3"")";Kritik;lawama;s;dereva;nafasi;mawazo;NA;NA;NA;NA;NA;NA;NA;NA;NA;NA;NA;NA;NA;NA;NA;NA;NA;NA;NA;NA;NA;NA;NA;;;;
f2dbe;Shallow;Question;html.Page;1_1_1_1_0;NA;NA;form;submission;5258.82;30312;30298.5;30315.18;35574;35574;2023-06-16T11:32:26Z;35581.22;"c(""distractor1"", ""distractor2"", ""distractor3"")";Kritik;lawama;s;dereva;nafasi;mawazo;mawazo;NA;NA;NA;NA;NA;NA;NA;NA;NA;NA;NA;NA;NA;NA;NA;NA;NA;NA;NA;NA;NA;NA;;
f2dbe;"""Richtig""-Screen";canvas.Screen;1_1_1_1_1;NA;NA;skipped;NA;35576;NA;NA;35574;35577;2023-06-16T11:32:26Z;35581.22;"c(""distractor1"", ""distractor2"", ""distractor3"")";Kritik;lawama;s;dereva;nafasi;mawazo;NA;NA;NA;NA;NA;NA;NA;NA;NA;NA;NA;NA;NA;NA;NA;NA;NA;NA;NA;NA;NA;NA;NA;;;;
f2dbe;"""Falsch""-Screen";canvas.Screen;1_1_1_1_2;NA;NA;timeout;4999.3;35580;35572.32;35581.22;40563.88;40565;2023-06-16T11:32:31Z;40580.52;"c(""distractor1"", ""distractor2"", ""distractor3"")";Kritik;lawama;s;dereva;nafasi;mawazo;NA;NA;0;NA;NA;NA;NA;NA;NA;NA;NA;NA;NA;NA;NA;NA;NA;NA;NA;NA;NA;NA;NA;;;;
f2dbe;shallow;flow.Sequence;1_1_1_1;NA;NA;completion;10248.7;30312;30298.5;30315.18;40563.88;40566;2023-06-16T11:32:31Z;40580.52;"c(""distractor1"", ""distractor2"", ""distractor3"")";Kritik;lawama;s;dereva;nafasi;mawazo;NA;NA;NA;NA;NA;NA;NA;NA;NA;NA;NA;NA;NA;NA;NA;NA;NA;NA;NA;NA;NA;NA;NA;;;;
f2dbe;task;flow.Sequence;1_1_1;NA;NA;completion;10248.7;30311;30298.5;30315.18;40563.88;40567;2023-06-16T11:32:31Z;40580.52;"c(""distractor1"", ""distractor2"", ""distractor3"")";Kritik;lawama;s;dereva;nafasi;mawazo;NA;NA;NA;NA;NA;NA;NA;NA;NA;NA;NA;NA;NA;NA;NA;NA;NA;NA;NA;NA;NA;NA;NA;;;;
f2dbe;deep;flow.Sequence;1_1_2_0;NA;NA;skipped;NA;40567;NA;NA;40563.88;40567;2023-06-16T11:32:31Z;40580.52;"c(""distractor1"", ""distractor2"", ""distractor3"")";Rückhalt;msaada;s;muhula;auwali;kiwimbe;NA;NA;NA;NA;NA;NA;NA;NA;NA;NA;NA;NA;NA;NA;NA;NA;NA;NA;NA;NA;NA;NA;NA;;;;
f2dbe;Shallow;Question;html.Page;1_1_2_1_0;NA;NA;form;submission;4718.48;40568;40563.88;40580.52;45299;45300;2023-06-16T11:32:35Z;45313.28;"c(""distractor1"", ""distractor2"", ""distractor3"")";Rückhalt;msaada;s;muhula;auwali;kiwimbe;kiwimbe;NA;NA;NA;NA;NA;NA;NA;NA;NA;NA;NA;NA;NA;NA;NA;NA;NA;NA;NA;NA;NA;NA;;
f2dbe;"""Richtig""-Screen";canvas.Screen;1_1_2_1_1;NA;NA;skipped;NA;45306;NA;NA;45299;45307;2023-06-16T11:32:35Z;45313.28;"c(""distractor1"", ""distractor2"", ""distractor3"")";Rückhalt;msaada;s;muhula;auwali;kiwimbe;NA;NA;NA;NA;NA;NA;NA;NA;NA;NA;NA;NA;NA;NA;NA;NA;NA;NA;NA;NA;NA;NA;NA;;;;
f2dbe;"""Falsch""-Screen";canvas.Screen;1_1_2_1_2;NA;NA;timeout;4999.36;45313;45292.88;45313.28;50296.08;50297;2023-06-16T11:32:40Z;50312.64;"c(""distractor1"", ""distractor2"", ""distractor3"")";Rückhalt;msaada;s;muhula;auwali;kiwimbe;NA;NA;0;NA;NA;NA;NA;NA;NA;NA;NA;NA;NA;NA;NA;NA;NA;NA;NA;NA;NA;NA;NA;;;;
f2dbe;shallow;flow.Sequence;1_1_2_1;NA;NA;completion;9715.56;40567;40563.88;40580.52;50296.08;50298;2023-06-16T11:32:40Z;50312.64;"c(""distractor1"", ""distractor2"", ""distractor3"")";Rückhalt;msaada;s;muhula;auwali;kiwimbe;NA;NA;NA;NA;NA;NA;NA;NA;NA;NA;NA;NA;NA;NA;NA;NA;NA;NA;NA;NA;NA;NA;NA;;;;
f2dbe;task;flow.Sequence;1_1_2;NA;NA;completion;9715.56;40567;40563.88;40580.52;50296.08;50299;2023-06-16T11:32:40Z;50312.64;"c(""distractor1"", ""distractor2"", ""distractor3"")";Rückhalt;msaada;s;muhula;auwali;kiwimbe;NA;NA;NA;NA;NA;NA;NA;NA;NA;NA;NA;NA;NA;NA;NA;NA;NA;NA;NA;NA;NA;NA;NA;;;;
f2dbe;Deep;Question;html.Page;1_1_3_0_0;NA;NA;form;submission;4201.36;50300;50296.08;50312.64;54514;54514;2023-06-16T11:32:44Z;54528.78;"c(""distractor1"", ""distractor2"", ""distractor3"")";Gesundheit;salama;d;NA;NA;NA;kj;NA;NA;NA;NA;NA;NA;NA;NA;NA;NA;NA;NA;NA;NA;NA;NA;NA;NA;NA;NA;NA;NA;;
f2dbe;"""Richtig""-Screen";canvas.Screen;1_1_3_0_1;NA;NA;skipped;NA;54516;NA;NA;54514;54516;2023-06-16T11:32:44Z;54528.78;"c(""distractor1"", ""distractor2"", ""distractor3"")";Gesundheit;salama;d;NA;NA;NA;NA;NA;NA;NA;NA;NA;NA;NA;NA;NA;NA;NA;NA;NA;NA;NA;NA;NA;NA;NA;NA;NA;NA;;;;
f2dbe;"""Falsch""-Screen";canvas.Screen;1_1_3_0_2;NA;NA;timeout;4999.4;54518;54513.06;54528.78;59511.54;59513;2023-06-16T11:32:49Z;59528.18;"c(""distractor1"", ""distractor2"", ""distractor3"")";Gesundheit;salama;d;NA;NA;NA;NA;NA;0;NA;NA;NA;NA;NA;NA;NA;NA;NA;NA;NA;NA;NA;NA;NA;NA;NA;NA;NA;NA;;;;
f2dbe;deep;flow.Sequence;1_1_3_0;NA;NA;completion;9198.9;50300;50296.08;50312.64;59511.54;59514;2023-06-16T11:32:49Z;59528.18;"c(""distractor1"", ""distractor2"", ""distractor3"")";Gesundheit;salama;d;NA;NA;NA;NA;NA;NA;NA;NA;NA;NA;NA;NA;NA;NA;NA;NA;NA;NA;NA;NA;NA;NA;NA;NA;NA;NA;;;;
f2dbe;shallow;flow.Sequence;1_1_3_1;NA;NA;skipped;NA;59515;NA;NA;59511.54;59515;2023-06-16T11:32:49Z;59528.18;"c(""distractor1"", ""distractor2"", ""distractor3"")";Gesundheit;salama;d;NA;NA;NA;NA;NA;NA;NA;NA;NA;NA;NA;NA;NA;NA;NA;NA;NA;NA;NA;NA;NA;NA;NA;NA;NA;NA;;;;
f2dbe;task;flow.Sequence;1_1_3;NA;NA;completion;9198.9;50300;50296.08;50312.64;59511.54;59516;2023-06-16T11:32:49Z;59528.18;"c(""distractor1"", ""distractor2"", ""distractor3"")";Gesundheit;salama;d;NA;NA;NA;NA;NA;NA;NA;NA;NA;NA;NA;NA;NA;NA;NA;NA;NA;NA;NA;NA;NA;NA;NA;NA;NA;NA;;;;
f2dbe;Deep;Question;html.Page;1_1_4_0_0;NA;NA;form;submission;2308.82;59516;59511.54;59528.18;61837;61837;2023-06-16T11:32:52Z;61844.46;"c(""distractor1"", ""distractor2"", ""distractor3"")";Schatten;kivuli;d;NA;NA;NA;jföasdkj;NA;NA;NA;NA;NA;NA;NA;NA;NA;NA;NA;NA;NA;NA;NA;NA;NA;NA;NA;NA;NA;NA;;
f2dbe;"""Richtig""-Screen";canvas.Screen;1_1_4_0_1;NA;NA;skipped;NA;61840;NA;NA;61837;61840;2023-06-16T11:32:52Z;61844.46;"c(""distractor1"", ""distractor2"", ""distractor3"")";Schatten;kivuli;d;NA;NA;NA;NA;NA;NA;NA;NA;NA;NA;NA;NA;NA;NA;NA;NA;NA;NA;NA;NA;NA;NA;NA;NA;NA;NA;;;;
f2dbe;"""Falsch""-Screen";canvas.Screen;1_1_4_0_2;NA;NA;timeout;4999.48;61843;61835.5;61844.46;66827.26;66829;2023-06-16T11:32:57Z;66843.94;"c(""distractor1"", ""distractor2"", ""distractor3"")";Schatten;kivuli;d;NA;NA;NA;NA;NA;0;NA;NA;NA;NA;NA;NA;NA;NA;NA;NA;NA;NA;NA;NA;NA;NA;NA;NA;NA;NA;;;;
f2dbe;deep;flow.Sequence;1_1_4_0;NA;NA;completion;7299.08;59516;59511.54;59528.18;66827.26;66830;2023-06-16T11:32:57Z;66843.94;"c(""distractor1"", ""distractor2"", ""distractor3"")";Schatten;kivuli;d;NA;NA;NA;NA;NA;NA;NA;NA;NA;NA;NA;NA;NA;NA;NA;NA;NA;NA;NA;NA;NA;NA;NA;NA;NA;NA;;;;
f2dbe;shallow;flow.Sequence;1_1_4_1;NA;NA;skipped;NA;66830;NA;NA;66827.26;66830;2023-06-16T11:32:57Z;66843.94;"c(""distractor1"", ""distractor2"", ""distractor3"")";Schatten;kivuli;d;NA;NA;NA;NA;NA;NA;NA;NA;NA;NA;NA;NA;NA;NA;NA;NA;NA;NA;NA;NA;NA;NA;NA;NA;NA;NA;;;;
f2dbe;task;flow.Sequence;1_1_4;NA;NA;completion;7299.08;59516;59511.54;59528.18;66827.26;66831;2023-06-16T11:32:57Z;66843.94;"c(""distractor1"", ""distractor2"", ""distractor3"")";Schatten;kivuli;d;NA;NA;NA;NA;NA;NA;NA;NA;NA;NA;NA;NA;NA;NA;NA;NA;NA;NA;NA;NA;NA;NA;NA;NA;NA;NA;;;;
f2dbe;Deep;Question;html.Page;1_1_5_0_0;NA;NA;form;submission;2735.06;66831;66827.26;66843.94;69579;69580;2023-06-16T11:33:00Z;69593.54;"c(""distractor1"", ""distractor2"", ""distractor3"")";Qualität;mtindo;d;NA;NA;NA;djf;NA;NA;NA;NA;NA;NA;NA;NA;NA;NA;NA;NA;NA;NA;NA;NA;NA;NA;NA;NA;NA;NA;;
f2dbe;"""Richtig""-Screen";canvas.Screen;1_1_5_0_1;NA;NA;skipped;NA;69582;NA;NA;69579;69582;2023-06-16T11:33:00Z;69593.54;"c(""distractor1"", ""distractor2"", ""distractor3"")";Qualität;mtindo;d;NA;NA;NA;NA;NA;NA;NA;NA;NA;NA;NA;NA;NA;NA;NA;NA;NA;NA;NA;NA;NA;NA;NA;NA;NA;NA;;;;
f2dbe;"""Falsch""-Screen";canvas.Screen;1_1_5_0_2;NA;NA;timeout;4999.4;69584;69578.06;69593.54;74576.3;74585;2023-06-16T11:33:05Z;74592.94;"c(""distractor1"", ""distractor2"", ""distractor3"")";Qualität;mtindo;d;NA;NA;NA;NA;NA;0;NA;NA;NA;NA;NA;NA;NA;NA;NA;NA;NA;NA;NA;NA;NA;NA;NA;NA;NA;NA;;;;
f2dbe;deep;flow.Sequence;1_1_5_0;NA;NA;completion;7732.36;66831;66827.26;66843.94;74576.3;74589;2023-06-16T11:33:05Z;74592.94;"c(""distractor1"", ""distractor2"", ""distractor3"")";Qualität;mtindo;d;NA;NA;NA;NA;NA;NA;NA;NA;NA;NA;NA;NA;NA;NA;NA;NA;NA;NA;NA;NA;NA;NA;NA;NA;NA;NA;;;;
f2dbe;shallow;flow.Sequence;1_1_5_1;NA;NA;skipped;NA;74589;NA;NA;74576.3;74590;2023-06-16T11:33:05Z;74592.94;"c(""distractor1"", ""distractor2"", ""distractor3"")";Qualität;mtindo;d;NA;NA;NA;NA;NA;NA;NA;NA;NA;NA;NA;NA;NA;NA;NA;NA;NA;NA;NA;NA;NA;NA;NA;NA;NA;NA;;;;
f2dbe;task;flow.Sequence;1_1_5;NA;NA;completion;7732.36;66831;66827.26;66843.94;74576.3;74590;2023-06-16T11:33:05Z;74592.94;"c(""distractor1"", ""distractor2"", ""distractor3"")";Qualität;mtindo;d;NA;NA;NA;NA;NA;NA;NA;NA;NA;NA;NA;NA;NA;NA;NA;NA;NA;NA;NA;NA;NA;NA;NA;NA;NA;NA;;;;
f2dbe;block;flow.Loop;1_1;NA;NA;completion;61009;13565;13565.74;13567.3;74576.3;74591;2023-06-16T11:33:05Z;74592.94;"c(""distractor1"", ""distractor2"", ""distractor3"")";NA;NA;NA;NA;NA;NA;NA;NA;NA;NA;NA;NA;NA;NA;NA;NA;NA;NA;NA;NA;NA;NA;NA;NA;NA;NA;NA;NA;NA;;;;
f2dbe;Practice;flow.Sequence;1;NA;NA;completion;65103.5;9472;9472.24;9472.8;74576.3;74591;2023-06-16T11:33:05Z;74592.94;NULL;NA;NA;NA;NA;NA;NA;NA;NA;NA;NA;NA;NA;NA;NA;NA;NA;NA;NA;NA;NA;NA;NA;NA;NA;NA;NA;NA;NA;NA;;;;
f2dbe;Experiment;start;canvas.Screen;2;weiter;keypress(q);response;6666.06;74591;74576.3;74592.94;81259;81275;2023-06-16T11:33:11Z;81377.32;NULL;NA;NA;NA;NA;NA;NA;NA;NA;NA;NA;NA;NA;NA;NA;NA;NA;NA;NA;NA;NA;NA;NA;NA;NA;NA;NA;NA;NA;NA;;;
f2dbe;deep;flow.Sequence;3_0_0_0_0_0;NA;NA;skipped;NA;81376;NA;NA;81259;81376;2023-06-16T11:33:11Z;81377.32;NULL;Spionage;upelelezi;s;maslahi;utokazo;magangao;NA;sdf;NA;0;NA;NA;NA;NA;NA;NA;NA;NA;NA;NA;NA;NA;NA;NA;NA;NA;NA;NA;NA;;;;
f2dbe;Shallow;Question;html.Page;3_0_0_0_0_1_0;NA;NA;form;submission;5648.68;81377;81377;81377.32;87026;87026;2023-06-16T11:33:17Z;87024.58;NULL;Spionage;upelelezi;s;maslahi;utokazo;magangao;maslahi;NA;NA;0;NA;NA;NA;NA;NA;NA;NA;NA;NA;NA;NA;NA;NA;NA;NA;NA;NA;NA;NA;;
f2dbe;"""Richtig""-Screen";canvas.Screen;3_0_0_0_0_1_1;NA;NA;skipped;NA;87029;NA;NA;87026;87030;2023-06-16T11:33:17Z;87024.58;NULL;Spionage;upelelezi;s;maslahi;utokazo;magangao;NA;sdf;NA;0;NA;NA;NA;NA;NA;NA;NA;NA;NA;NA;NA;NA;NA;NA;NA;NA;NA;NA;NA;;;;
f2dbe;"""Falsch""-Screen";canvas.Screen;3_0_0_0_0_1_2;NA;NA;timeout;4999.46;87033;87024.12;87024.58;92007.38;92009;2023-06-16T11:33:22Z;92024.04;NULL;Spionage;upelelezi;s;maslahi;utokazo;magangao;NA;sdf;0;0;NA;NA;NA;NA;NA;NA;NA;NA;NA;NA;NA;NA;NA;NA;NA;NA;NA;NA;NA;;;;
f2dbe;shallow;flow.Sequence;3_0_0_0_0_1;NA;NA;completion;10630.06;81376;81377;81377.32;92007.38;92010;2023-06-16T11:33:22Z;92024.04;NULL;Spionage;upelelezi;s;maslahi;utokazo;magangao;NA;sdf;NA;0;NA;NA;NA;NA;NA;NA;NA;NA;NA;NA;NA;NA;NA;NA;NA;NA;NA;NA;NA;;;;
f2dbe;task;flow.Sequence;3_0_0_0_0;NA;NA;completion;10630.06;81376;81377;81377.32;92007.38;92010;2023-06-16T11:33:22Z;92024.04;NULL;Spionage;upelelezi;s;maslahi;utokazo;magangao;NA;sdf;NA;0;NA;NA;NA;NA;NA;NA;NA;NA;NA;NA;NA;NA;NA;NA;NA;NA;NA;NA;NA;;;;
f2dbe;deep;flow.Sequence;3_0_0_0_1_0;NA;NA;skipped;NA;92011;NA;NA;92007.38;92011;2023-06-16T11:33:22Z;92024.04;NULL;Fenster;dirisha;s;walakini;tasawari;maarifa;NA;sdf;NA;0;NA;NA;NA;NA;NA;NA;NA;NA;NA;NA;NA;NA;NA;NA;NA;NA;NA;NA;NA;;;;
f2dbe;Shallow;Question;html.Page;3_0_0_0_1_1_0;NA;NA;form;submission;4896.96;92012;92007.38;92024.04;96921;96922;2023-06-16T11:33:27Z;96923.44;NULL;Fenster;dirisha;s;walakini;tasawari;maarifa;walakini;NA;NA;0;NA;NA;NA;NA;NA;NA;NA;NA;NA;NA;NA;NA;NA;NA;NA;NA;NA;NA;NA;;
f2dbe;"""Richtig""-Screen";canvas.Screen;3_0_0_0_1_1_1;NA;NA;skipped;NA;96924;NA;NA;96921;96924;2023-06-16T11:33:27Z;96923.44;NULL;Fenster;dirisha;s;walakini;tasawari;maarifa;NA;sdf;NA;0;NA;NA;NA;NA;NA;NA;NA;NA;NA;NA;NA;NA;NA;NA;NA;NA;NA;NA;NA;;;;
f2dbe;"""Falsch""-Screen";canvas.Screen;3_0_0_0_1_1_2;NA;NA;timeout;4999.3;96927;96920.2;96923.44;101906.18;101908;2023-06-16T11:33:32Z;101922.74;NULL;Fenster;dirisha;s;walakini;tasawari;maarifa;NA;sdf;0;0;NA;NA;NA;NA;NA;NA;NA;NA;NA;NA;NA;NA;NA;NA;NA;NA;NA;NA;NA;;;;
f2dbe;shallow;flow.Sequence;3_0_0_0_1_1;NA;NA;completion;9882.14;92012;92007.38;92024.04;101906.18;101909;2023-06-16T11:33:32Z;101922.74;NULL;Fenster;dirisha;s;walakini;tasawari;maarifa;NA;sdf;NA;0;NA;NA;NA;NA;NA;NA;NA;NA;NA;NA;NA;NA;NA;NA;NA;NA;NA;NA;NA;;;;
f2dbe;task;flow.Sequence;3_0_0_0_1;NA;NA;completion;9882.14;92011;92007.38;92024.04;101906.18;101910;2023-06-16T11:33:32Z;101922.74;NULL;Fenster;dirisha;s;walakini;tasawari;maarifa;NA;sdf;NA;0;NA;NA;NA;NA;NA;NA;NA;NA;NA;NA;NA;NA;NA;NA;NA;NA;NA;NA;NA;;;;
f2dbe;deep;flow.Sequence;3_0_0_0_2_0;NA;NA;skipped;NA;101910;NA;NA;101906.18;101912;2023-06-16T11:33:32Z;101922.74;NULL;Symbol;kielezo;s;kinyume;nderemo;utayari;NA;sdf;NA;0;NA;NA;NA;NA;NA;NA;NA;NA;NA;NA;NA;NA;NA;NA;NA;NA;NA;NA;NA;;;;
f2dbe;Shallow;Question;html.Page;3_0_0_0_2_1_0;NA;NA;form;submission;3514.26;101912;101906.18;101922.74;105437;105437;2023-06-16T11:33:35Z;105438.98;NULL;Symbol;kielezo;s;kinyume;nderemo;utayari;utayari;NA;NA;0;NA;NA;NA;NA;NA;NA;NA;NA;NA;NA;NA;NA;NA;NA;NA;NA;NA;NA;NA;;
f2dbe;"""Richtig""-Screen";canvas.Screen;3_0_0_0_2_1_1;NA;NA;skipped;NA;105440;NA;NA;105437;105440;2023-06-16T11:33:35Z;105438.98;NULL;Symbol;kielezo;s;kinyume;nderemo;utayari;NA;sdf;NA;0;NA;NA;NA;NA;NA;NA;NA;NA;NA;NA;NA;NA;NA;NA;NA;NA;NA;NA;NA;;;;
f2dbe;"""Falsch""-Screen";canvas.Screen;3_0_0_0_2_1_2;NA;NA;timeout;4999.38;105442;105435.48;105438.98;110421.72;110423;2023-06-16T11:33:40Z;110438.36;NULL;Symbol;kielezo;s;kinyume;nderemo;utayari;NA;sdf;0;0;NA;NA;NA;NA;NA;NA;NA;NA;NA;NA;NA;NA;NA;NA;NA;NA;NA;NA;NA;;;;
f2dbe;shallow;flow.Sequence;3_0_0_0_2_1;NA;NA;completion;8498.98;101912;101906.18;101922.74;110421.72;110424;2023-06-16T11:33:40Z;110438.36;NULL;Symbol;kielezo;s;kinyume;nderemo;utayari;NA;sdf;NA;0;NA;NA;NA;NA;NA;NA;NA;NA;NA;NA;NA;NA;NA;NA;NA;NA;NA;NA;NA;;;;
f2dbe;task;flow.Sequence;3_0_0_0_2;NA;NA;completion;8498.98;101910;101906.18;101922.74;110421.72;110425;2023-06-16T11:33:40Z;110438.36;NULL;Symbol;kielezo;s;kinyume;nderemo;utayari;NA;sdf;NA;0;NA;NA;NA;NA;NA;NA;NA;NA;NA;NA;NA;NA;NA;NA;NA;NA;NA;NA;NA;;;;
f2dbe;Deep;Question;html.Page;3_0_0_0_3_0_0;NA;NA;form;submission;2078.64;110425;110421.72;110438.36;112517;112518;2023-06-16T11:33:42Z;112521.44;NULL;Schüler;mwanafunzi;d;NA;NA;NA;öjdf;NA;NA;0;NA;NA;NA;NA;NA;NA;NA;NA;NA;NA;NA;NA;NA;NA;NA;NA;NA;NA;NA;;
f2dbe;"""Richtig""-Screen";canvas.Screen;3_0_0_0_3_0_1;NA;NA;skipped;NA;112521;NA;NA;112517;112521;2023-06-16T11:33:42Z;112521.44;NULL;Schüler;mwanafunzi;d;NA;NA;NA;NA;sdf;NA;0;NA;NA;NA;NA;NA;NA;NA;NA;NA;NA;NA;NA;NA;NA;NA;NA;NA;NA;NA;;;;
f2dbe;"""Falsch""-Screen";canvas.Screen;3_0_0_0_3_0_2;NA;NA;timeout;4999.42;112524;112516.44;112521.44;117504.22;117505;2023-06-16T11:33:47Z;117520.86;NULL;Schüler;mwanafunzi;d;NA;NA;NA;NA;sdf;0;0;NA;NA;NA;NA;NA;NA;NA;NA;NA;NA;NA;NA;NA;NA;NA;NA;NA;NA;NA;;;;
f2dbe;deep;flow.Sequence;3_0_0_0_3_0;NA;NA;completion;7065.86;110425;110421.72;110438.36;117504.22;117506;2023-06-16T11:33:47Z;117520.86;NULL;Schüler;mwanafunzi;d;NA;NA;NA;NA;sdf;NA;0;NA;NA;NA;NA;NA;NA;NA;NA;NA;NA;NA;NA;NA;NA;NA;NA;NA;NA;NA;;;;
f2dbe;shallow;flow.Sequence;3_0_0_0_3_1;NA;NA;skipped;NA;117506;NA;NA;117504.22;117506;2023-06-16T11:33:47Z;117520.86;NULL;Schüler;mwanafunzi;d;NA;NA;NA;NA;sdf;NA;0;NA;NA;NA;NA;NA;NA;NA;NA;NA;NA;NA;NA;NA;NA;NA;NA;NA;NA;NA;;;;
f2dbe;task;flow.Sequence;3_0_0_0_3;NA;NA;completion;7065.86;110425;110421.72;110438.36;117504.22;117507;2023-06-16T11:33:47Z;117520.86;NULL;Schüler;mwanafunzi;d;NA;NA;NA;NA;sdf;NA;0;NA;NA;NA;NA;NA;NA;NA;NA;NA;NA;NA;NA;NA;NA;NA;NA;NA;NA;NA;;;;
f2dbe;Deep;Question;html.Page;3_0_0_0_4_0_0;NA;NA;form;submission;1957.14;117507;117504.22;117520.86;119478;119479;2023-06-16T11:33:49Z;119487.16;NULL;Vorsorge;tahadhari;d;NA;NA;NA;fkjsö;NA;NA;0;NA;NA;NA;NA;NA;NA;NA;NA;NA;NA;NA;NA;NA;NA;NA;NA;NA;NA;NA;;
f2dbe;"""Richtig""-Screen";canvas.Screen;3_0_0_0_4_0_1;NA;NA;skipped;NA;119481;NA;NA;119478;119481;2023-06-16T11:33:49Z;119487.16;NULL;Vorsorge;tahadhari;d;NA;NA;NA;NA;sdf;NA;0;NA;NA;NA;NA;NA;NA;NA;NA;NA;NA;NA;NA;NA;NA;NA;NA;NA;NA;NA;;;;
f2dbe;"""Falsch""-Screen";canvas.Screen;3_0_0_0_4_0_2;NA;NA;timeout;4999.4;119485;119476.82;119487.16;124470;124472;2023-06-16T11:33:54Z;124486.56;NULL;Vorsorge;tahadhari;d;NA;NA;NA;NA;sdf;0;0;NA;NA;NA;NA;NA;NA;NA;NA;NA;NA;NA;NA;NA;NA;NA;NA;NA;NA;NA;;;;
f2dbe;deep;flow.Sequence;3_0_0_0_4_0;NA;NA;completion;6949.14;117507;117504.22;117520.86;124470;124472;2023-06-16T11:33:54Z;124486.56;NULL;Vorsorge;tahadhari;d;NA;NA;NA;NA;sdf;NA;0;NA;NA;NA;NA;NA;NA;NA;NA;NA;NA;NA;NA;NA;NA;NA;NA;NA;NA;NA;;;;
f2dbe;shallow;flow.Sequence;3_0_0_0_4_1;NA;NA;skipped;NA;124472;NA;NA;124470;124473;2023-06-16T11:33:54Z;124486.56;NULL;Vorsorge;tahadhari;d;NA;NA;NA;NA;sdf;NA;0;NA;NA;NA;NA;NA;NA;NA;NA;NA;NA;NA;NA;NA;NA;NA;NA;NA;NA;NA;;;;
f2dbe;task;flow.Sequence;3_0_0_0_4;NA;NA;completion;6949.14;117507;117504.22;117520.86;124470;124473;2023-06-16T11:33:54Z;124486.56;NULL;Vorsorge;tahadhari;d;NA;NA;NA;NA;sdf;NA;0;NA;NA;NA;NA;NA;NA;NA;NA;NA;NA;NA;NA;NA;NA;NA;NA;NA;NA;NA;;;;
f2dbe;Deep;Question;html.Page;3_0_0_0_5_0_0;NA;NA;form;submission;5058.44;124474;124470;124486.56;129545;129545;2023-06-16T11:34:00Z;129552.58;NULL;Tester;wanaojaribu;d;NA;NA;NA;fsödkj;NA;NA;0;NA;NA;NA;NA;NA;NA;NA;NA;NA;NA;NA;NA;NA;NA;NA;NA;NA;NA;NA;;
f2dbe;"""Richtig""-Screen";canvas.Screen;3_0_0_0_5_0_1;NA;NA;skipped;NA;129554;NA;NA;129545;129555;2023-06-16T11:34:00Z;129552.58;NULL;Tester;wanaojaribu;d;NA;NA;NA;NA;sdf;NA;0;NA;NA;NA;NA;NA;NA;NA;NA;NA;NA;NA;NA;NA;NA;NA;NA;NA;NA;NA;;;;
f2dbe;"""Falsch""-Screen";canvas.Screen;3_0_0_0_5_0_2;NA;NA;timeout;4999.4;129557;129543.4;129552.58;134535.32;134537;2023-06-16T11:34:04Z;134551.98;NULL;Tester;wanaojaribu;d;NA;NA;NA;NA;sdf;0;0;NA;NA;NA;NA;NA;NA;NA;NA;NA;NA;NA;NA;NA;NA;NA;NA;NA;NA;NA;;;;
f2dbe;deep;flow.Sequence;3_0_0_0_5_0;NA;NA;completion;10048.76;124474;124470;124486.56;134535.32;134537;2023-06-16T11:34:05Z;134551.98;NULL;Tester;wanaojaribu;d;NA;NA;NA;NA;sdf;NA;0;NA;NA;NA;NA;NA;NA;NA;NA;NA;NA;NA;NA;NA;NA;NA;NA;NA;NA;NA;;;;
f2dbe;shallow;flow.Sequence;3_0_0_0_5_1;NA;NA;skipped;NA;134538;NA;NA;134535.32;134538;2023-06-16T11:34:05Z;134551.98;NULL;Tester;wanaojaribu;d;NA;NA;NA;NA;sdf;NA;0;NA;NA;NA;NA;NA;NA;NA;NA;NA;NA;NA;NA;NA;NA;NA;NA;NA;NA;NA;;;;
f2dbe;task;flow.Sequence;3_0_0_0_5;NA;NA;completion;10048.76;124474;124470;124486.56;134535.32;134540;2023-06-16T11:34:05Z;134551.98;NULL;Tester;wanaojaribu;d;NA;NA;NA;NA;sdf;NA;0;NA;NA;NA;NA;NA;NA;NA;NA;NA;NA;NA;NA;NA;NA;NA;NA;NA;NA;NA;;;;
f2dbe;Deep;Question;html.Page;3_0_0_0_6_0_0;NA;NA;form;submission;2829.02;134540;134535.32;134551.98;137381;137381;2023-06-16T11:34:07Z;137384.86;NULL;Konkurrent;mshindani;d;NA;NA;NA;ködlsjf;NA;NA;0;NA;NA;NA;NA;NA;NA;NA;NA;NA;NA;NA;NA;NA;NA;NA;NA;NA;NA;NA;;
f2dbe;"""Richtig""-Screen";canvas.Screen;3_0_0_0_6_0_1;NA;NA;skipped;NA;137384;NA;NA;137381;137384;2023-06-16T11:34:07Z;137384.86;NULL;Konkurrent;mshindani;d;NA;NA;NA;NA;sdf;NA;0;NA;NA;NA;NA;NA;NA;NA;NA;NA;NA;NA;NA;NA;NA;NA;NA;NA;NA;NA;;;;
f2dbe;"""Falsch""-Screen";canvas.Screen;3_0_0_0_6_0_2;NA;NA;timeout;4999.4;137387;137380;137384.86;142367.76;142373;2023-06-16T11:34:12Z;142384.26;NULL;Konkurrent;mshindani;d;NA;NA;NA;NA;sdf;0;0;NA;NA;NA;NA;NA;NA;NA;NA;NA;NA;NA;NA;NA;NA;NA;NA;NA;NA;NA;;;;
f2dbe;deep;flow.Sequence;3_0_0_0_6_0;NA;NA;completion;7815.78;134540;134535.32;134551.98;142367.76;142376;2023-06-16T11:34:12Z;142384.26;NULL;Konkurrent;mshindani;d;NA;NA;NA;NA;sdf;NA;0;NA;NA;NA;NA;NA;NA;NA;NA;NA;NA;NA;NA;NA;NA;NA;NA;NA;NA;NA;;;;
f2dbe;shallow;flow.Sequence;3_0_0_0_6_1;NA;NA;skipped;NA;142376;NA;NA;142367.76;142376;2023-06-16T11:34:12Z;142384.26;NULL;Konkurrent;mshindani;d;NA;NA;NA;NA;sdf;NA;0;NA;NA;NA;NA;NA;NA;NA;NA;NA;NA;NA;NA;NA;NA;NA;NA;NA;NA;NA;;;;
f2dbe;task;flow.Sequence;3_0_0_0_6;NA;NA;completion;7815.78;134540;134535.32;134551.98;142367.76;142377;2023-06-16T11:34:12Z;142384.26;NULL;Konkurrent;mshindani;d;NA;NA;NA;NA;sdf;NA;0;NA;NA;NA;NA;NA;NA;NA;NA;NA;NA;NA;NA;NA;NA;NA;NA;NA;NA;NA;;;;
f2dbe;deep;flow.Sequence;3_0_0_0_7_0;NA;NA;skipped;NA;142377;NA;NA;142367.76;142377;2023-06-16T11:34:12Z;142384.26;NULL;Zuwachs;nyongeza;s;matilaba;udhibiti;hudhurio;NA;sdf;NA;0;NA;NA;NA;NA;NA;NA;NA;NA;NA;NA;NA;NA;NA;NA;NA;NA;NA;NA;NA;;;;
f2dbe;Shallow;Question;html.Page;3_0_0_0_7_1_0;NA;NA;form;submission;2999.74;142378;142367.76;142384.26;145384;145384;2023-06-16T11:34:15Z;145383.9;NULL;Zuwachs;nyongeza;s;matilaba;udhibiti;hudhurio;udhibiti;NA;NA;0;NA;NA;NA;NA;NA;NA;NA;NA;NA;NA;NA;NA;NA;NA;NA;NA;NA;NA;NA;;
f2dbe;"""Richtig""-Screen";canvas.Screen;3_0_0_0_7_1_1;NA;NA;skipped;NA;145392;NA;NA;145384;145392;2023-06-16T11:34:15Z;145383.9;NULL;Zuwachs;nyongeza;s;matilaba;udhibiti;hudhurio;NA;sdf;NA;0;NA;NA;NA;NA;NA;NA;NA;NA;NA;NA;NA;NA;NA;NA;NA;NA;NA;NA;NA;;;;
f2dbe;"""Falsch""-Screen";canvas.Screen;3_0_0_0_7_1_2;NA;NA;timeout;4999.42;145396;145382.16;145383.9;150366.66;150368;2023-06-16T11:34:20Z;150383.32;NULL;Zuwachs;nyongeza;s;matilaba;udhibiti;hudhurio;NA;sdf;0;0;NA;NA;NA;NA;NA;NA;NA;NA;NA;NA;NA;NA;NA;NA;NA;NA;NA;NA;NA;;;;
f2dbe;shallow;flow.Sequence;3_0_0_0_7_1;NA;NA;completion;7982.4;142378;142367.76;142384.26;150366.66;150369;2023-06-16T11:34:20Z;150383.32;NULL;Zuwachs;nyongeza;s;matilaba;udhibiti;hudhurio;NA;sdf;NA;0;NA;NA;NA;NA;NA;NA;NA;NA;NA;NA;NA;NA;NA;NA;NA;NA;NA;NA;NA;;;;
f2dbe;task;flow.Sequence;3_0_0_0_7;NA;NA;completion;7982.4;142377;142367.76;142384.26;150366.66;150370;2023-06-16T11:34:20Z;150383.32;NULL;Zuwachs;nyongeza;s;matilaba;udhibiti;hudhurio;NA;sdf;NA;0;NA;NA;NA;NA;NA;NA;NA;NA;NA;NA;NA;NA;NA;NA;NA;NA;NA;NA;NA;;;;
f2dbe;block;flow.Loop;3_0_0_0;NA;NA;completion;68989.34;81376;81377;81377.32;150366.66;150371;2023-06-16T11:34:20Z;150383.32;NULL;NA;NA;NA;NA;NA;NA;NA;sdf;NA;0;NA;NA;NA;NA;NA;NA;NA;NA;NA;NA;NA;NA;NA;NA;NA;NA;NA;NA;NA;;;;
f2dbe;weiter;canvas.Screen;3_0_0_1;sdf;keypress(Space);response;688.68;150372;150366.66;150383.32;151072;151084;2023-06-16T11:34:21Z;151152.96;NULL;NA;NA;NA;NA;NA;NA;NA;sdf;NA;0;NA;NA;NA;NA;NA;NA;NA;NA;NA;NA;NA;NA;NA;NA;NA;NA;NA;NA;NA;;;;
f2dbe;check;continue;flow.Sequence;3_0_0;NA;NA;completion;69694.68;81376;81377;81377.32;151072;151086;2023-06-16T11:34:21Z;151152.96;NULL;NA;NA;NA;NA;NA;NA;NA;sdf;NA;0;NA;NA;NA;NA;NA;NA;NA;NA;NA;NA;NA;NA;NA;NA;NA;NA;NA;NA;NA;;;
f2dbe;Deep;Question;html.Page;3_0_1_0_0_0_0;NA;NA;form;submission;4472.04;151152;151152.6;151152.96;155625;155626;2023-06-16T11:34:26Z;155632.56;NULL;Schüler;mwanafunzi;d;NA;NA;NA;manawazala;NA;NA;1;NA;NA;NA;NA;NA;NA;NA;NA;NA;NA;NA;NA;NA;NA;NA;NA;NA;NA;NA;;
f2dbe;"""Richtig""-Screen";canvas.Screen;3_0_1_0_0_0_1;NA;NA;skipped;NA;155628;NA;NA;155625;155628;2023-06-16T11:34:26Z;155632.56;NULL;Schüler;mwanafunzi;d;NA;NA;NA;NA;sdfdsf;NA;1;NA;NA;NA;NA;NA;NA;NA;NA;NA;NA;NA;NA;NA;NA;NA;NA;NA;NA;NA;;;;
f2dbe;"""Falsch""-Screen";canvas.Screen;3_0_1_0_0_0_2;NA;NA;timeout;4999.44;155631;155624.18;155632.56;160615.34;160617;2023-06-16T11:34:31Z;160632;NULL;Schüler;mwanafunzi;d;NA;NA;NA;NA;sdfdsf;0;1;NA;NA;NA;NA;NA;NA;NA;NA;NA;NA;NA;NA;NA;NA;NA;NA;NA;NA;NA;;;;
f2dbe;deep;flow.Sequence;3_0_1_0_0_0;NA;NA;completion;9462.38;151152;151152.6;151152.96;160615.34;160617;2023-06-16T11:34:31Z;160632;NULL;Schüler;mwanafunzi;d;NA;NA;NA;NA;sdfdsf;NA;1;NA;NA;NA;NA;NA;NA;NA;NA;NA;NA;NA;NA;NA;NA;NA;NA;NA;NA;NA;;;;
f2dbe;shallow;flow.Sequence;3_0_1_0_0_1;NA;NA;skipped;NA;160617;NA;NA;160615.34;160618;2023-06-16T11:34:31Z;160632;NULL;Schüler;mwanafunzi;d;NA;NA;NA;NA;sdfdsf;NA;1;NA;NA;NA;NA;NA;NA;NA;NA;NA;NA;NA;NA;NA;NA;NA;NA;NA;NA;NA;;;;
f2dbe;task;flow.Sequence;3_0_1_0_0;NA;NA;completion;9462.38;151152;151152.6;151152.96;160615.34;160618;2023-06-16T11:34:31Z;160632;NULL;Schüler;mwanafunzi;d;NA;NA;NA;NA;sdfdsf;NA;1;NA;NA;NA;NA;NA;NA;NA;NA;NA;NA;NA;NA;NA;NA;NA;NA;NA;NA;NA;;;;
f2dbe;Deep;Question;html.Page;3_0_1_0_1_0_0;NA;NA;form;submission;4881;160618;160615.34;160632;165513;165513;2023-06-16T11:34:35Z;165514.62;NULL;Vorsorge;tahadhari;d;NA;NA;NA;maloma;NA;NA;1;NA;NA;NA;NA;NA;NA;NA;NA;NA;NA;NA;NA;NA;NA;NA;NA;NA;NA;NA;;
f2dbe;"""Richtig""-Screen";canvas.Screen;3_0_1_0_1_0_1;NA;NA;skipped;NA;165515;NA;NA;165513;165515;2023-06-16T11:34:35Z;165514.62;NULL;Vorsorge;tahadhari;d;NA;NA;NA;NA;sdfdsf;NA;1;NA;NA;NA;NA;NA;NA;NA;NA;NA;NA;NA;NA;NA;NA;NA;NA;NA;NA;NA;;;;
f2dbe;"""Falsch""-Screen";canvas.Screen;3_0_1_0_1_0_2;NA;NA;timeout;4999.48;165519;165510.72;165514.62;170497.46;170499;2023-06-16T11:34:40Z;170514.1;NULL;Vorsorge;tahadhari;d;NA;NA;NA;NA;sdfdsf;0;1;NA;NA;NA;NA;NA;NA;NA;NA;NA;NA;NA;NA;NA;NA;NA;NA;NA;NA;NA;;;;
f2dbe;deep;flow.Sequence;3_0_1_0_1_0;NA;NA;completion;9865.46;160618;160615.34;160632;170497.46;170500;2023-06-16T11:34:40Z;170514.1;NULL;Vorsorge;tahadhari;d;NA;NA;NA;NA;sdfdsf;NA;1;NA;NA;NA;NA;NA;NA;NA;NA;NA;NA;NA;NA;NA;NA;NA;NA;NA;NA;NA;;;;
f2dbe;shallow;flow.Sequence;3_0_1_0_1_1;NA;NA;skipped;NA;170501;NA;NA;170497.46;170501;2023-06-16T11:34:40Z;170514.1;NULL;Vorsorge;tahadhari;d;NA;NA;NA;NA;sdfdsf;NA;1;NA;NA;NA;NA;NA;NA;NA;NA;NA;NA;NA;NA;NA;NA;NA;NA;NA;NA;NA;;;;
f2dbe;task;flow.Sequence;3_0_1_0_1;NA;NA;completion;9865.46;160618;160615.34;160632;170497.46;170502;2023-06-16T11:34:40Z;170514.1;NULL;Vorsorge;tahadhari;d;NA;NA;NA;NA;sdfdsf;NA;1;NA;NA;NA;NA;NA;NA;NA;NA;NA;NA;NA;NA;NA;NA;NA;NA;NA;NA;NA;;;;
f2dbe;Deep;Question;html.Page;3_0_1_0_2_0_0;NA;NA;form;submission;6871.9;170502;170497.46;170514.1;177386;177386;2023-06-16T11:34:47Z;177385.82;NULL;Konkurrent;mshindani;d;NA;NA;NA;mayangol;NA;NA;1;NA;NA;NA;NA;NA;NA;NA;NA;NA;NA;NA;NA;NA;NA;NA;NA;NA;NA;NA;;
f2dbe;"""Richtig""-Screen";canvas.Screen;3_0_1_0_2_0_1;NA;NA;skipped;NA;177389;NA;NA;177386;177389;2023-06-16T11:34:47Z;177385.82;NULL;Konkurrent;mshindani;d;NA;NA;NA;NA;sdfdsf;NA;1;NA;NA;NA;NA;NA;NA;NA;NA;NA;NA;NA;NA;NA;NA;NA;NA;NA;NA;NA;;;;
f2dbe;"""Falsch""-Screen";canvas.Screen;3_0_1_0_2_0_2;NA;NA;timeout;4993.44;177392;177385.46;177385.82;182362.6;182365;2023-06-16T11:34:52Z;182379.26;NULL;Konkurrent;mshindani;d;NA;NA;NA;NA;sdfdsf;0;1;NA;NA;NA;NA;NA;NA;NA;NA;NA;NA;NA;NA;NA;NA;NA;NA;NA;NA;NA;;;;
f2dbe;deep;flow.Sequence;3_0_1_0_2_0;NA;NA;completion;11848.5;170502;170497.46;170514.1;182362.6;182365;2023-06-16T11:34:52Z;182379.26;NULL;Konkurrent;mshindani;d;NA;NA;NA;NA;sdfdsf;NA;1;NA;NA;NA;NA;NA;NA;NA;NA;NA;NA;NA;NA;NA;NA;NA;NA;NA;NA;NA;;;;
f2dbe;shallow;flow.Sequence;3_0_1_0_2_1;NA;NA;skipped;NA;182366;NA;NA;182362.6;182366;2023-06-16T11:34:52Z;182379.26;NULL;Konkurrent;mshindani;d;NA;NA;NA;NA;sdfdsf;NA;1;NA;NA;NA;NA;NA;NA;NA;NA;NA;NA;NA;NA;NA;NA;NA;NA;NA;NA;NA;;;;
f2dbe;task;flow.Sequence;3_0_1_0_2;NA;NA;completion;11848.5;170502;170497.46;170514.1;182362.6;182366;2023-06-16T11:34:52Z;182379.26;NULL;Konkurrent;mshindani;d;NA;NA;NA;NA;sdfdsf;NA;1;NA;NA;NA;NA;NA;NA;NA;NA;NA;NA;NA;NA;NA;NA;NA;NA;NA;NA;NA;;;;
f2dbe;deep;flow.Sequence;3_0_1_0_3_0;NA;NA;skipped;NA;182366;NA;NA;182362.6;182366;2023-06-16T11:34:52Z;182379.26;NULL;Symbol;kielezo;s;kinyume;nderemo;utayari;NA;sdfdsf;NA;1;NA;NA;NA;NA;NA;NA;NA;NA;NA;NA;NA;NA;NA;NA;NA;NA;NA;NA;NA;;;;
f2dbe;Shallow;Question;html.Page;3_0_1_0_3_1_0;NA;NA;form;submission;3808.74;182367;182362.6;182379.26;186188;186189;2023-06-16T11:34:56Z;186187;NULL;Symbol;kielezo;s;kinyume;nderemo;utayari;kielezo;NA;NA;1;NA;NA;NA;NA;NA;NA;NA;NA;NA;NA;NA;NA;NA;NA;NA;NA;NA;NA;NA;;
f2dbe;"""Richtig""-Screen";canvas.Screen;3_0_1_0_3_1_1;NA;NA;timeout;5007.72;186191;186186.72;186187;191178.08;191180;2023-06-16T11:35:01Z;191194.72;NULL;Symbol;kielezo;s;kinyume;nderemo;utayari;NA;sdfdsf;1;1;NA;NA;NA;NA;NA;NA;NA;NA;NA;NA;NA;NA;NA;NA;NA;NA;NA;NA;NA;;;;
f2dbe;"""Falsch""-Screen";canvas.Screen;3_0_1_0_3_1_2;NA;NA;skipped;NA;191186;NA;NA;191178.08;191186;2023-06-16T11:35:01Z;191194.72;NULL;Symbol;kielezo;s;kinyume;nderemo;utayari;NA;sdfdsf;NA;1;NA;NA;NA;NA;NA;NA;NA;NA;NA;NA;NA;NA;NA;NA;NA;NA;NA;NA;NA;;;;
f2dbe;shallow;flow.Sequence;3_0_1_0_3_1;NA;NA;completion;8798.82;182367;182362.6;182379.26;191178.08;191186;2023-06-16T11:35:01Z;191194.72;NULL;Symbol;kielezo;s;kinyume;nderemo;utayari;NA;sdfdsf;NA;1;NA;NA;NA;NA;NA;NA;NA;NA;NA;NA;NA;NA;NA;NA;NA;NA;NA;NA;NA;;;;
f2dbe;task;flow.Sequence;3_0_1_0_3;NA;NA;completion;8798.82;182366;182362.6;182379.26;191178.08;191187;2023-06-16T11:35:01Z;191194.72;NULL;Symbol;kielezo;s;kinyume;nderemo;utayari;NA;sdfdsf;NA;1;NA;NA;NA;NA;NA;NA;NA;NA;NA;NA;NA;NA;NA;NA;NA;NA;NA;NA;NA;;;;
f2dbe;deep;flow.Sequence;3_0_1_0_4_0;NA;NA;skipped;NA;191187;NA;NA;191178.08;191187;2023-06-16T11:35:01Z;191194.72;NULL;Zuwachs;nyongeza;s;matilaba;udhibiti;hudhurio;NA;sdfdsf;NA;1;NA;NA;NA;NA;NA;NA;NA;NA;NA;NA;NA;NA;NA;NA;NA;NA;NA;NA;NA;;;;
f2dbe;Shallow;Question;html.Page;3_0_1_0_4_1_0;NA;NA;form;submission;5406.28;191188;191178.08;191194.72;196601;196601;2023-06-16T11:35:07Z;196600.42;NULL;Zuwachs;nyongeza;s;matilaba;udhibiti;hudhurio;nyongeza;NA;NA;1;NA;NA;NA;NA;NA;NA;NA;NA;NA;NA;NA;NA;NA;NA;NA;NA;NA;NA;NA;;
f2dbe;"""Richtig""-Screen";canvas.Screen;3_0_1_0_4_1_1;NA;NA;timeout;4993.04;196603;196599.98;196600.42;201576.78;201583;2023-06-16T11:35:12Z;201593.46;NULL;Zuwachs;nyongeza;s;matilaba;udhibiti;hudhurio;NA;sdfdsf;1;1;NA;NA;NA;NA;NA;NA;NA;NA;NA;NA;NA;NA;NA;NA;NA;NA;NA;NA;NA;;;;
f2dbe;"""Falsch""-Screen";canvas.Screen;3_0_1_0_4_1_2;NA;NA;skipped;NA;201601;NA;NA;201576.78;201601;2023-06-16T11:35:12Z;201593.46;NULL;Zuwachs;nyongeza;s;matilaba;udhibiti;hudhurio;NA;sdfdsf;NA;1;NA;NA;NA;NA;NA;NA;NA;NA;NA;NA;NA;NA;NA;NA;NA;NA;NA;NA;NA;;;;
f2dbe;shallow;flow.Sequence;3_0_1_0_4_1;NA;NA;completion;10382.06;191188;191178.08;191194.72;201576.78;201601;2023-06-16T11:35:12Z;201593.46;NULL;Zuwachs;nyongeza;s;matilaba;udhibiti;hudhurio;NA;sdfdsf;NA;1;NA;NA;NA;NA;NA;NA;NA;NA;NA;NA;NA;NA;NA;NA;NA;NA;NA;NA;NA;;;;
f2dbe;task;flow.Sequence;3_0_1_0_4;NA;NA;completion;10382.06;191187;191178.08;191194.72;201576.78;201601;2023-06-16T11:35:12Z;201593.46;NULL;Zuwachs;nyongeza;s;matilaba;udhibiti;hudhurio;NA;sdfdsf;NA;1;NA;NA;NA;NA;NA;NA;NA;NA;NA;NA;NA;NA;NA;NA;NA;NA;NA;NA;NA;;;;
f2dbe;deep;flow.Sequence;3_0_1_0_5_0;NA;NA;skipped;NA;201601;NA;NA;201576.78;201601;2023-06-16T11:35:12Z;201593.46;NULL;Fenster;dirisha;s;walakini;tasawari;maarifa;NA;sdfdsf;NA;1;NA;NA;NA;NA;NA;NA;NA;NA;NA;NA;NA;NA;NA;NA;NA;NA;NA;NA;NA;;;;
f2dbe;Shallow;Question;html.Page;3_0_1_0_5_1_0;NA;NA;form;submission;5707.54;201602;201576.78;201593.46;207301;207302;2023-06-16T11:35:17Z;207309.3;NULL;Fenster;dirisha;s;walakini;tasawari;maarifa;dirisha;NA;NA;1;NA;NA;NA;NA;NA;NA;NA;NA;NA;NA;NA;NA;NA;NA;NA;NA;NA;NA;NA;;
f2dbe;"""Richtig""-Screen";canvas.Screen;3_0_1_0_5_1_1;NA;NA;timeout;4999.44;207304;207299.9;207309.3;212292.08;212294;2023-06-16T11:35:22Z;212308.74;NULL;Fenster;dirisha;s;walakini;tasawari;maarifa;NA;sdfdsf;1;1;NA;NA;NA;NA;NA;NA;NA;NA;NA;NA;NA;NA;NA;NA;NA;NA;NA;NA;NA;;;;
f2dbe;"""Falsch""-Screen";canvas.Screen;3_0_1_0_5_1_2;NA;NA;skipped;NA;212302;NA;NA;212292.08;212303;2023-06-16T11:35:22Z;212308.74;NULL;Fenster;dirisha;s;walakini;tasawari;maarifa;NA;sdfdsf;NA;1;NA;NA;NA;NA;NA;NA;NA;NA;NA;NA;NA;NA;NA;NA;NA;NA;NA;NA;NA;;;;
f2dbe;shallow;flow.Sequence;3_0_1_0_5_1;NA;NA;completion;10698.62;201602;201576.78;201593.46;212292.08;212304;2023-06-16T11:35:22Z;212308.74;NULL;Fenster;dirisha;s;walakini;tasawari;maarifa;NA;sdfdsf;NA;1;NA;NA;NA;NA;NA;NA;NA;NA;NA;NA;NA;NA;NA;NA;NA;NA;NA;NA;NA;;;;
f2dbe;task;flow.Sequence;3_0_1_0_5;NA;NA;completion;10698.62;201601;201576.78;201593.46;212292.08;212304;2023-06-16T11:35:22Z;212308.74;NULL;Fenster;dirisha;s;walakini;tasawari;maarifa;NA;sdfdsf;NA;1;NA;NA;NA;NA;NA;NA;NA;NA;NA;NA;NA;NA;NA;NA;NA;NA;NA;NA;NA;;;;
f2dbe;Deep;Question;html.Page;3_0_1_0_6_0_0;NA;NA;form;submission;1753.26;212305;212292.08;212308.74;214062;214062;2023-06-16T11:35:24Z;214061.52;NULL;Tester;wanaojaribu;d;NA;NA;NA;döfjs;NA;NA;1;NA;NA;NA;NA;NA;NA;NA;NA;NA;NA;NA;NA;NA;NA;NA;NA;NA;NA;NA;;
f2dbe;"""Richtig""-Screen";canvas.Screen;3_0_1_0_6_0_1;NA;NA;skipped;NA;214064;NA;NA;214062;214064;2023-06-16T11:35:24Z;214061.52;NULL;Tester;wanaojaribu;d;NA;NA;NA;NA;sdfdsf;NA;1;NA;NA;NA;NA;NA;NA;NA;NA;NA;NA;NA;NA;NA;NA;NA;NA;NA;NA;NA;;;;
f2dbe;"""Falsch""-Screen";canvas.Screen;3_0_1_0_6_0_2;NA;NA;timeout;4996.36;214066;214061.28;214061.52;219041.28;219043;2023-06-16T11:35:29Z;219057.88;NULL;Tester;wanaojaribu;d;NA;NA;NA;NA;sdfdsf;0;1;NA;NA;NA;NA;NA;NA;NA;NA;NA;NA;NA;NA;NA;NA;NA;NA;NA;NA;NA;;;;
f2dbe;deep;flow.Sequence;3_0_1_0_6_0;NA;NA;completion;6732.54;212305;212292.08;212308.74;219041.28;219044;2023-06-16T11:35:29Z;219057.88;NULL;Tester;wanaojaribu;d;NA;NA;NA;NA;sdfdsf;NA;1;NA;NA;NA;NA;NA;NA;NA;NA;NA;NA;NA;NA;NA;NA;NA;NA;NA;NA;NA;;;;
f2dbe;shallow;flow.Sequence;3_0_1_0_6_1;NA;NA;skipped;NA;219044;NA;NA;219041.28;219045;2023-06-16T11:35:29Z;219057.88;NULL;Tester;wanaojaribu;d;NA;NA;NA;NA;sdfdsf;NA;1;NA;NA;NA;NA;NA;NA;NA;NA;NA;NA;NA;NA;NA;NA;NA;NA;NA;NA;NA;;;;
f2dbe;task;flow.Sequence;3_0_1_0_6;NA;NA;completion;6732.54;212305;212292.08;212308.74;219041.28;219045;2023-06-16T11:35:29Z;219057.88;NULL;Tester;wanaojaribu;d;NA;NA;NA;NA;sdfdsf;NA;1;NA;NA;NA;NA;NA;NA;NA;NA;NA;NA;NA;NA;NA;NA;NA;NA;NA;NA;NA;;;;
f2dbe;deep;flow.Sequence;3_0_1_0_7_0;NA;NA;skipped;NA;219046;NA;NA;219041.28;219046;2023-06-16T11:35:29Z;219057.88;NULL;Spionage;upelelezi;s;maslahi;utokazo;magangao;NA;sdfdsf;NA;1;NA;NA;NA;NA;NA;NA;NA;NA;NA;NA;NA;NA;NA;NA;NA;NA;NA;NA;NA;;;;
f2dbe;Shallow;Question;html.Page;3_0_1_0_7_1_0;NA;NA;form;submission;3474.12;219046;219041.28;219057.88;222532;222532;2023-06-16T11:35:32Z;222540.84;NULL;Spionage;upelelezi;s;maslahi;utokazo;magangao;upelelezi;NA;NA;1;NA;NA;NA;NA;NA;NA;NA;NA;NA;NA;NA;NA;NA;NA;NA;NA;NA;NA;NA;;
f2dbe;"""Richtig""-Screen";canvas.Screen;3_0_1_0_7_1_1;NA;NA;timeout;4999.3;222536;222530.44;222540.84;227523.54;227525;2023-06-16T11:35:37Z;227540.14;NULL;Spionage;upelelezi;s;maslahi;utokazo;magangao;NA;sdfdsf;1;1;NA;NA;NA;NA;NA;NA;NA;NA;NA;NA;NA;NA;NA;NA;NA;NA;NA;NA;NA;;;;
f2dbe;"""Falsch""-Screen";canvas.Screen;3_0_1_0_7_1_2;NA;NA;skipped;NA;227533;NA;NA;227523.54;227534;2023-06-16T11:35:37Z;227540.14;NULL;Spionage;upelelezi;s;maslahi;utokazo;magangao;NA;sdfdsf;NA;1;NA;NA;NA;NA;NA;NA;NA;NA;NA;NA;NA;NA;NA;NA;NA;NA;NA;NA;NA;;;;
f2dbe;shallow;flow.Sequence;3_0_1_0_7_1;NA;NA;completion;8465.66;219046;219041.28;219057.88;227523.54;227535;2023-06-16T11:35:37Z;227540.14;NULL;Spionage;upelelezi;s;maslahi;utokazo;magangao;NA;sdfdsf;NA;1;NA;NA;NA;NA;NA;NA;NA;NA;NA;NA;NA;NA;NA;NA;NA;NA;NA;NA;NA;;;;
f2dbe;task;flow.Sequence;3_0_1_0_7;NA;NA;completion;8465.66;219045;219041.28;219057.88;227523.54;227535;2023-06-16T11:35:37Z;227540.14;NULL;Spionage;upelelezi;s;maslahi;utokazo;magangao;NA;sdfdsf;NA;1;NA;NA;NA;NA;NA;NA;NA;NA;NA;NA;NA;NA;NA;NA;NA;NA;NA;NA;NA;;;;
f2dbe;block;flow.Loop;3_0_1_0;NA;NA;completion;76370.58;151152;151152.6;151152.96;227523.54;227536;2023-06-16T11:35:37Z;227540.14;NULL;NA;NA;NA;NA;NA;NA;NA;sdfdsf;NA;1;NA;NA;NA;NA;NA;NA;NA;NA;NA;NA;NA;NA;NA;NA;NA;NA;NA;NA;NA;;;;
f2dbe;weiter;canvas.Screen;3_0_1_1;sdf;keypress(Space);response;905.86;227536;227523.54;227540.14;228446;228452;2023-06-16T11:35:38Z;228523.34;NULL;NA;NA;NA;NA;NA;NA;NA;sdfdsf;NA;1;NA;NA;NA;NA;NA;NA;NA;NA;NA;NA;NA;NA;NA;NA;NA;NA;NA;NA;NA;;;;
f2dbe;check;continue;flow.Sequence;3_0_1;NA;NA;completion;77293.04;151152;151152.6;151152.96;228446;228453;2023-06-16T11:35:38Z;228523.34;NULL;NA;NA;NA;NA;NA;NA;NA;sdfdsf;NA;1;NA;NA;NA;NA;NA;NA;NA;NA;NA;NA;NA;NA;NA;NA;NA;NA;NA;NA;NA;;;
f2dbe;deep;flow.Sequence;3_0_2_0_0_0;NA;NA;skipped;NA;228521;NA;NA;228446;228521;2023-06-16T11:35:38Z;228523.34;NULL;Fenster;dirisha;s;walakini;tasawari;maarifa;NA;sdf;NA;2;NA;NA;NA;NA;NA;NA;NA;NA;NA;NA;NA;NA;NA;NA;NA;NA;NA;NA;NA;;;;
f2dbe;Shallow;Question;html.Page;3_0_2_0_0_1_0;NA;NA;form;submission;3933.66;228522;228522.02;228523.34;232457;232457;2023-06-16T11:35:42Z;232456.2;NULL;Fenster;dirisha;s;walakini;tasawari;maarifa;dirisha;NA;NA;2;NA;NA;NA;NA;NA;NA;NA;NA;NA;NA;NA;NA;NA;NA;NA;NA;NA;NA;NA;;
f2dbe;"""Richtig""-Screen";canvas.Screen;3_0_2_0_0_1_1;NA;NA;timeout;4999.28;232460;232455.44;232456.2;237438.84;237440;2023-06-16T11:35:47Z;237455.48;NULL;Fenster;dirisha;s;walakini;tasawari;maarifa;NA;sdf;1;2;NA;NA;NA;NA;NA;NA;NA;NA;NA;NA;NA;NA;NA;NA;NA;NA;NA;NA;NA;;;;
f2dbe;"""Falsch""-Screen";canvas.Screen;3_0_2_0_0_1_2;NA;NA;skipped;NA;237443;NA;NA;237438.84;237444;2023-06-16T11:35:47Z;237455.48;NULL;Fenster;dirisha;s;walakini;tasawari;maarifa;NA;sdf;NA;2;NA;NA;NA;NA;NA;NA;NA;NA;NA;NA;NA;NA;NA;NA;NA;NA;NA;NA;NA;;;;
f2dbe;shallow;flow.Sequence;3_0_2_0_0_1;NA;NA;completion;8915.5;228522;228522.02;228523.34;237438.84;237444;2023-06-16T11:35:47Z;237455.48;NULL;Fenster;dirisha;s;walakini;tasawari;maarifa;NA;sdf;NA;2;NA;NA;NA;NA;NA;NA;NA;NA;NA;NA;NA;NA;NA;NA;NA;NA;NA;NA;NA;;;;
f2dbe;task;flow.Sequence;3_0_2_0_0;NA;NA;completion;8915.5;228521;228522.02;228523.34;237438.84;237444;2023-06-16T11:35:47Z;237455.48;NULL;Fenster;dirisha;s;walakini;tasawari;maarifa;NA;sdf;NA;2;NA;NA;NA;NA;NA;NA;NA;NA;NA;NA;NA;NA;NA;NA;NA;NA;NA;NA;NA;;;;
f2dbe;Deep;Question;html.Page;3_0_2_0_1_0_0;NA;NA;form;submission;5330.52;237445;237438.84;237455.48;242786;242786;2023-06-16T11:35:53Z;242788.06;NULL;Vorsorge;tahadhari;d;NA;NA;NA;mshinia;NA;NA;2;NA;NA;NA;NA;NA;NA;NA;NA;NA;NA;NA;NA;NA;NA;NA;NA;NA;NA;NA;;
f2dbe;"""Richtig""-Screen";canvas.Screen;3_0_2_0_1_0_1;NA;NA;skipped;NA;242789;NA;NA;242786;242789;2023-06-16T11:35:53Z;242788.06;NULL;Vorsorge;tahadhari;d;NA;NA;NA;NA;sdf;NA;2;NA;NA;NA;NA;NA;NA;NA;NA;NA;NA;NA;NA;NA;NA;NA;NA;NA;NA;NA;;;;
f2dbe;"""Falsch""-Screen";canvas.Screen;3_0_2_0_1_0_2;NA;NA;timeout;4999.56;242792;242783.98;242788.06;247771.02;247773;2023-06-16T11:35:58Z;247787.62;NULL;Vorsorge;tahadhari;d;NA;NA;NA;NA;sdf;0;2;NA;NA;NA;NA;NA;NA;NA;NA;NA;NA;NA;NA;NA;NA;NA;NA;NA;NA;NA;;;;
f2dbe;deep;flow.Sequence;3_0_2_0_1_0;NA;NA;completion;10315.54;237445;237438.84;237455.48;247771.02;247774;2023-06-16T11:35:58Z;247787.62;NULL;Vorsorge;tahadhari;d;NA;NA;NA;NA;sdf;NA;2;NA;NA;NA;NA;NA;NA;NA;NA;NA;NA;NA;NA;NA;NA;NA;NA;NA;NA;NA;;;;
f2dbe;shallow;flow.Sequence;3_0_2_0_1_1;NA;NA;skipped;NA;247774;NA;NA;247771.02;247774;2023-06-16T11:35:58Z;247787.62;NULL;Vorsorge;tahadhari;d;NA;NA;NA;NA;sdf;NA;2;NA;NA;NA;NA;NA;NA;NA;NA;NA;NA;NA;NA;NA;NA;NA;NA;NA;NA;NA;;;;
f2dbe;task;flow.Sequence;3_0_2_0_1;NA;NA;completion;10315.54;237445;237438.84;237455.48;247771.02;247775;2023-06-16T11:35:58Z;247787.62;NULL;Vorsorge;tahadhari;d;NA;NA;NA;NA;sdf;NA;2;NA;NA;NA;NA;NA;NA;NA;NA;NA;NA;NA;NA;NA;NA;NA;NA;NA;NA;NA;;;;
f2dbe;Deep;Question;html.Page;3_0_2_0_2_0_0;NA;NA;form;submission;9667.38;247775;247771.02;247787.62;257455;257455;2023-06-16T11:36:07Z;257469.7;NULL;Konkurrent;mshindani;d;NA;NA;NA;myongeza;NA;NA;2;NA;NA;NA;NA;NA;NA;NA;NA;NA;NA;NA;NA;NA;NA;NA;NA;NA;NA;NA;;
f2dbe;"""Richtig""-Screen";canvas.Screen;3_0_2_0_2_0_1;NA;NA;skipped;NA;257456;NA;NA;257455;257456;2023-06-16T11:36:07Z;257469.7;NULL;Konkurrent;mshindani;d;NA;NA;NA;NA;sdf;NA;2;NA;NA;NA;NA;NA;NA;NA;NA;NA;NA;NA;NA;NA;NA;NA;NA;NA;NA;NA;;;;
f2dbe;"""Falsch""-Screen";canvas.Screen;3_0_2_0_2_0_2;NA;NA;timeout;4999.32;257459;257452.98;257469.7;262452.4;262454;2023-06-16T11:36:12Z;262469.02;NULL;Konkurrent;mshindani;d;NA;NA;NA;NA;sdf;0;2;NA;NA;NA;NA;NA;NA;NA;NA;NA;NA;NA;NA;NA;NA;NA;NA;NA;NA;NA;;;;
f2dbe;deep;flow.Sequence;3_0_2_0_2_0;NA;NA;completion;14664.78;247775;247771.02;247787.62;262452.4;262454;2023-06-16T11:36:12Z;262469.02;NULL;Konkurrent;mshindani;d;NA;NA;NA;NA;sdf;NA;2;NA;NA;NA;NA;NA;NA;NA;NA;NA;NA;NA;NA;NA;NA;NA;NA;NA;NA;NA;;;;
f2dbe;shallow;flow.Sequence;3_0_2_0_2_1;NA;NA;skipped;NA;262454;NA;NA;262452.4;262454;2023-06-16T11:36:12Z;262469.02;NULL;Konkurrent;mshindani;d;NA;NA;NA;NA;sdf;NA;2;NA;NA;NA;NA;NA;NA;NA;NA;NA;NA;NA;NA;NA;NA;NA;NA;NA;NA;NA;;;;
f2dbe;task;flow.Sequence;3_0_2_0_2;NA;NA;completion;14664.78;247775;247771.02;247787.62;262452.4;262455;2023-06-16T11:36:12Z;262469.02;NULL;Konkurrent;mshindani;d;NA;NA;NA;NA;sdf;NA;2;NA;NA;NA;NA;NA;NA;NA;NA;NA;NA;NA;NA;NA;NA;NA;NA;NA;NA;NA;;;;
f2dbe;deep;flow.Sequence;3_0_2_0_3_0;NA;NA;skipped;NA;262455;NA;NA;262452.4;262455;2023-06-16T11:36:12Z;262469.02;NULL;Symbol;kielezo;s;kinyume;nderemo;utayari;NA;sdf;NA;2;NA;NA;NA;NA;NA;NA;NA;NA;NA;NA;NA;NA;NA;NA;NA;NA;NA;NA;NA;;;;
f2dbe;Shallow;Question;html.Page;3_0_2_0_3_1_0;NA;NA;form;submission;5057.98;262456;262452.4;262469.02;267527;267527;2023-06-16T11:36:17Z;267526.1;NULL;Symbol;kielezo;s;kinyume;nderemo;utayari;kielezo;NA;NA;2;NA;NA;NA;NA;NA;NA;NA;NA;NA;NA;NA;NA;NA;NA;NA;NA;NA;NA;NA;;
f2dbe;"""Richtig""-Screen";canvas.Screen;3_0_2_0_3_1_1;NA;NA;timeout;5008.3;267529;267525.78;267526.1;272501.2;272511;2023-06-16T11:36:22Z;272534.4;NULL;Symbol;kielezo;s;kinyume;nderemo;utayari;NA;sdf;1;2;NA;NA;NA;NA;NA;NA;NA;NA;NA;NA;NA;NA;NA;NA;NA;NA;NA;NA;NA;;;;
f2dbe;"""Falsch""-Screen";canvas.Screen;3_0_2_0_3_1_2;NA;NA;skipped;NA;272530;NA;NA;272501.2;272531;2023-06-16T11:36:22Z;272534.4;NULL;Symbol;kielezo;s;kinyume;nderemo;utayari;NA;sdf;NA;2;NA;NA;NA;NA;NA;NA;NA;NA;NA;NA;NA;NA;NA;NA;NA;NA;NA;NA;NA;;;;
f2dbe;shallow;flow.Sequence;3_0_2_0_3_1;NA;NA;completion;10032.18;262456;262452.4;262469.02;272501.2;272532;2023-06-16T11:36:22Z;272534.4;NULL;Symbol;kielezo;s;kinyume;nderemo;utayari;NA;sdf;NA;2;NA;NA;NA;NA;NA;NA;NA;NA;NA;NA;NA;NA;NA;NA;NA;NA;NA;NA;NA;;;;
f2dbe;task;flow.Sequence;3_0_2_0_3;NA;NA;completion;10032.18;262455;262452.4;262469.02;272501.2;272532;2023-06-16T11:36:22Z;272534.4;NULL;Symbol;kielezo;s;kinyume;nderemo;utayari;NA;sdf;NA;2;NA;NA;NA;NA;NA;NA;NA;NA;NA;NA;NA;NA;NA;NA;NA;NA;NA;NA;NA;;;;
f2dbe;deep;flow.Sequence;3_0_2_0_4_0;NA;NA;skipped;NA;272533;NA;NA;272501.2;272533;2023-06-16T11:36:22Z;272534.4;NULL;Zuwachs;nyongeza;s;matilaba;udhibiti;hudhurio;NA;sdf;NA;2;NA;NA;NA;NA;NA;NA;NA;NA;NA;NA;NA;NA;NA;NA;NA;NA;NA;NA;NA;;;;
f2dbe;Shallow;Question;html.Page;3_0_2_0_4_1_0;NA;NA;form;submission;3550.6;272533;272501.2;272534.4;276085;276087;2023-06-16T11:36:26Z;276083.96;NULL;Zuwachs;nyongeza;s;matilaba;udhibiti;hudhurio;nyongeza;NA;NA;2;NA;NA;NA;NA;NA;NA;NA;NA;NA;NA;NA;NA;NA;NA;NA;NA;NA;NA;NA;;
f2dbe;"""Richtig""-Screen";canvas.Screen;3_0_2_0_4_1_1;NA;NA;timeout;4999.48;276090;276083.54;276083.96;281066.76;281068;2023-06-16T11:36:31Z;281083.44;NULL;Zuwachs;nyongeza;s;matilaba;udhibiti;hudhurio;NA;sdf;1;2;NA;NA;NA;NA;NA;NA;NA;NA;NA;NA;NA;NA;NA;NA;NA;NA;NA;NA;NA;;;;
f2dbe;"""Falsch""-Screen";canvas.Screen;3_0_2_0_4_1_2;NA;NA;skipped;NA;281077;NA;NA;281066.76;281077;2023-06-16T11:36:31Z;281083.44;NULL;Zuwachs;nyongeza;s;matilaba;udhibiti;hudhurio;NA;sdf;NA;2;NA;NA;NA;NA;NA;NA;NA;NA;NA;NA;NA;NA;NA;NA;NA;NA;NA;NA;NA;;;;
f2dbe;shallow;flow.Sequence;3_0_2_0_4_1;NA;NA;completion;8532.36;272533;272501.2;272534.4;281066.76;281078;2023-06-16T11:36:31Z;281083.44;NULL;Zuwachs;nyongeza;s;matilaba;udhibiti;hudhurio;NA;sdf;NA;2;NA;NA;NA;NA;NA;NA;NA;NA;NA;NA;NA;NA;NA;NA;NA;NA;NA;NA;NA;;;;
f2dbe;task;flow.Sequence;3_0_2_0_4;NA;NA;completion;8532.36;272532;272501.2;272534.4;281066.76;281079;2023-06-16T11:36:31Z;281083.44;NULL;Zuwachs;nyongeza;s;matilaba;udhibiti;hudhurio;NA;sdf;NA;2;NA;NA;NA;NA;NA;NA;NA;NA;NA;NA;NA;NA;NA;NA;NA;NA;NA;NA;NA;;;;
f2dbe;Deep;Question;html.Page;3_0_2_0_5_0_0;NA;NA;form;submission;6541.56;281079;281066.76;281083.44;287625;287626;2023-06-16T11:36:38Z;287632.46;NULL;Schüler;mwanafunzi;d;NA;NA;NA;manafulenzi;NA;NA;2;NA;NA;NA;NA;NA;NA;NA;NA;NA;NA;NA;NA;NA;NA;NA;NA;NA;NA;NA;;
f2dbe;"""Richtig""-Screen";canvas.Screen;3_0_2_0_5_0_1;NA;NA;skipped;NA;287628;NA;NA;287625;287628;2023-06-16T11:36:38Z;287632.46;NULL;Schüler;mwanafunzi;d;NA;NA;NA;NA;sdf;NA;2;NA;NA;NA;NA;NA;NA;NA;NA;NA;NA;NA;NA;NA;NA;NA;NA;NA;NA;NA;;;;
f2dbe;"""Falsch""-Screen";canvas.Screen;3_0_2_0_5_0_2;NA;NA;timeout;4999.46;287631;287624.12;287632.46;292615.26;292617;2023-06-16T11:36:43Z;292631.92;NULL;Schüler;mwanafunzi;d;NA;NA;NA;NA;sdf;0;2;NA;NA;NA;NA;NA;NA;NA;NA;NA;NA;NA;NA;NA;NA;NA;NA;NA;NA;NA;;;;
f2dbe;deep;flow.Sequence;3_0_2_0_5_0;NA;NA;completion;11531.82;281079;281066.76;281083.44;292615.26;292618;2023-06-16T11:36:43Z;292631.92;NULL;Schüler;mwanafunzi;d;NA;NA;NA;NA;sdf;NA;2;NA;NA;NA;NA;NA;NA;NA;NA;NA;NA;NA;NA;NA;NA;NA;NA;NA;NA;NA;;;;
f2dbe;shallow;flow.Sequence;3_0_2_0_5_1;NA;NA;skipped;NA;292618;NA;NA;292615.26;292618;2023-06-16T11:36:43Z;292631.92;NULL;Schüler;mwanafunzi;d;NA;NA;NA;NA;sdf;NA;2;NA;NA;NA;NA;NA;NA;NA;NA;NA;NA;NA;NA;NA;NA;NA;NA;NA;NA;NA;;;;
f2dbe;task;flow.Sequence;3_0_2_0_5;NA;NA;completion;11531.82;281079;281066.76;281083.44;292615.26;292619;2023-06-16T11:36:43Z;292631.92;NULL;Schüler;mwanafunzi;d;NA;NA;NA;NA;sdf;NA;2;NA;NA;NA;NA;NA;NA;NA;NA;NA;NA;NA;NA;NA;NA;NA;NA;NA;NA;NA;;;;
f2dbe;deep;flow.Sequence;3_0_2_0_6_0;NA;NA;skipped;NA;292620;NA;NA;292615.26;292620;2023-06-16T11:36:43Z;292631.92;NULL;Spionage;upelelezi;s;maslahi;utokazo;magangao;NA;sdf;NA;2;NA;NA;NA;NA;NA;NA;NA;NA;NA;NA;NA;NA;NA;NA;NA;NA;NA;NA;NA;;;;
f2dbe;Shallow;Question;html.Page;3_0_2_0_6_1_0;NA;NA;form;submission;3379.08;292621;292615.26;292631.92;296011;296012;2023-06-16T11:36:46Z;296014.76;NULL;Spionage;upelelezi;s;maslahi;utokazo;magangao;upelelezi;NA;NA;2;NA;NA;NA;NA;NA;NA;NA;NA;NA;NA;NA;NA;NA;NA;NA;NA;NA;NA;NA;;
f2dbe;"""Richtig""-Screen";canvas.Screen;3_0_2_0_6_1_1;NA;NA;timeout;4999.24;296015;296009.42;296014.76;300997.34;300999;2023-06-16T11:36:51Z;301014;NULL;Spionage;upelelezi;s;maslahi;utokazo;magangao;NA;sdf;1;2;NA;NA;NA;NA;NA;NA;NA;NA;NA;NA;NA;NA;NA;NA;NA;NA;NA;NA;NA;;;;
f2dbe;"""Falsch""-Screen";canvas.Screen;3_0_2_0_6_1_2;NA;NA;skipped;NA;301006;NA;NA;300997.34;301006;2023-06-16T11:36:51Z;301014;NULL;Spionage;upelelezi;s;maslahi;utokazo;magangao;NA;sdf;NA;2;NA;NA;NA;NA;NA;NA;NA;NA;NA;NA;NA;NA;NA;NA;NA;NA;NA;NA;NA;;;;
f2dbe;shallow;flow.Sequence;3_0_2_0_6_1;NA;NA;completion;8365.42;292621;292615.26;292631.92;300997.34;301008;2023-06-16T11:36:51Z;301014;NULL;Spionage;upelelezi;s;maslahi;utokazo;magangao;NA;sdf;NA;2;NA;NA;NA;NA;NA;NA;NA;NA;NA;NA;NA;NA;NA;NA;NA;NA;NA;NA;NA;;;;
f2dbe;task;flow.Sequence;3_0_2_0_6;NA;NA;completion;8365.42;292620;292615.26;292631.92;300997.34;301008;2023-06-16T11:36:51Z;301014;NULL;Spionage;upelelezi;s;maslahi;utokazo;magangao;NA;sdf;NA;2;NA;NA;NA;NA;NA;NA;NA;NA;NA;NA;NA;NA;NA;NA;NA;NA;NA;NA;NA;;;;
f2dbe;Deep;Question;html.Page;3_0_2_0_7_0_0;NA;NA;form;submission;8856;301009;300997.34;301014;309870;309870;2023-06-16T11:37:00Z;309879.48;NULL;Tester;wanaojaribu;d;NA;NA;NA;obajordu;NA;NA;2;NA;NA;NA;NA;NA;NA;NA;NA;NA;NA;NA;NA;NA;NA;NA;NA;NA;NA;NA;;
f2dbe;"""Richtig""-Screen";canvas.Screen;3_0_2_0_7_0_1;NA;NA;skipped;NA;309874;NA;NA;309870;309874;2023-06-16T11:37:00Z;309879.48;NULL;Tester;wanaojaribu;d;NA;NA;NA;NA;sdf;NA;2;NA;NA;NA;NA;NA;NA;NA;NA;NA;NA;NA;NA;NA;NA;NA;NA;NA;NA;NA;;;;
f2dbe;"""Falsch""-Screen";canvas.Screen;3_0_2_0_7_0_2;NA;NA;timeout;4999.54;309877;309869.08;309879.48;314862.46;314864;2023-06-16T11:37:05Z;314879.02;NULL;Tester;wanaojaribu;d;NA;NA;NA;NA;sdf;0;2;NA;NA;NA;NA;NA;NA;NA;NA;NA;NA;NA;NA;NA;NA;NA;NA;NA;NA;NA;;;;
f2dbe;deep;flow.Sequence;3_0_2_0_7_0;NA;NA;completion;13848.46;301009;300997.34;301014;314862.46;314865;2023-06-16T11:37:05Z;314879.02;NULL;Tester;wanaojaribu;d;NA;NA;NA;NA;sdf;NA;2;NA;NA;NA;NA;NA;NA;NA;NA;NA;NA;NA;NA;NA;NA;NA;NA;NA;NA;NA;;;;
f2dbe;shallow;flow.Sequence;3_0_2_0_7_1;NA;NA;skipped;NA;314865;NA;NA;314862.46;314865;2023-06-16T11:37:05Z;314879.02;NULL;Tester;wanaojaribu;d;NA;NA;NA;NA;sdf;NA;2;NA;NA;NA;NA;NA;NA;NA;NA;NA;NA;NA;NA;NA;NA;NA;NA;NA;NA;NA;;;;
f2dbe;task;flow.Sequence;3_0_2_0_7;NA;NA;completion;13848.46;301009;300997.34;301014;314862.46;314866;2023-06-16T11:37:05Z;314879.02;NULL;Tester;wanaojaribu;d;NA;NA;NA;NA;sdf;NA;2;NA;NA;NA;NA;NA;NA;NA;NA;NA;NA;NA;NA;NA;NA;NA;NA;NA;NA;NA;;;;
f2dbe;block;flow.Loop;3_0_2_0;NA;NA;completion;86339.12;228521;228522.02;228523.34;314862.46;314867;2023-06-16T11:37:05Z;314879.02;NULL;NA;NA;NA;NA;NA;NA;NA;sdf;NA;2;NA;NA;NA;NA;NA;NA;NA;NA;NA;NA;NA;NA;NA;NA;NA;NA;NA;NA;NA;;;;
f2dbe;weiter;canvas.Screen;3_0_2_1;sdf;keypress(Space);response;801.98;314867;314862.46;314879.02;315681;315686;2023-06-16T11:37:06Z;315760.08;NULL;NA;NA;NA;NA;NA;NA;NA;sdf;NA;2;NA;NA;NA;NA;NA;NA;NA;NA;NA;NA;NA;NA;NA;NA;NA;NA;NA;NA;NA;;;;
f2dbe;check;continue;flow.Sequence;3_0_2;NA;NA;completion;87157.66;228521;228522.02;228523.34;315681;315687;2023-06-16T11:37:06Z;315760.08;NULL;NA;NA;NA;NA;NA;NA;NA;sdf;NA;2;NA;NA;NA;NA;NA;NA;NA;NA;NA;NA;NA;NA;NA;NA;NA;NA;NA;NA;NA;;;
f2dbe;deep;flow.Sequence;3_0_3_0_0_0;NA;NA;skipped;NA;315759;NA;NA;315681;315759;2023-06-16T11:37:06Z;315760.08;NULL;Spionage;upelelezi;s;maslahi;utokazo;magangao;NA;qt;NA;3;NA;NA;NA;NA;NA;NA;NA;NA;NA;NA;NA;NA;NA;NA;NA;NA;NA;NA;NA;;;;
f2dbe;Shallow;Question;html.Page;3_0_3_0_0_1_0;NA;NA;form;submission;3387.92;315759;315759.7;315760.08;319148;319148;2023-06-16T11:37:09Z;319147.04;NULL;Spionage;upelelezi;s;maslahi;utokazo;magangao;upelelezi;NA;NA;3;NA;NA;NA;NA;NA;NA;NA;NA;NA;NA;NA;NA;NA;NA;NA;NA;NA;NA;NA;;
f2dbe;"""Richtig""-Screen";canvas.Screen;3_0_3_0_0_1_1;NA;NA;timeout;4997.52;319151;319146.78;319147.04;324127.98;324129;2023-06-16T11:37:14Z;324144.56;NULL;Spionage;upelelezi;s;maslahi;utokazo;magangao;NA;qt;1;3;NA;NA;NA;NA;NA;NA;NA;NA;NA;NA;NA;NA;NA;NA;NA;NA;NA;NA;NA;;;;
f2dbe;"""Falsch""-Screen";canvas.Screen;3_0_3_0_0_1_2;NA;NA;skipped;NA;324138;NA;NA;324127.98;324138;2023-06-16T11:37:14Z;324144.56;NULL;Spionage;upelelezi;s;maslahi;utokazo;magangao;NA;qt;NA;3;NA;NA;NA;NA;NA;NA;NA;NA;NA;NA;NA;NA;NA;NA;NA;NA;NA;NA;NA;;;;
f2dbe;shallow;flow.Sequence;3_0_3_0_0_1;NA;NA;completion;8367.9;315759;315759.7;315760.08;324127.98;324139;2023-06-16T11:37:14Z;324144.56;NULL;Spionage;upelelezi;s;maslahi;utokazo;magangao;NA;qt;NA;3;NA;NA;NA;NA;NA;NA;NA;NA;NA;NA;NA;NA;NA;NA;NA;NA;NA;NA;NA;;;;
f2dbe;task;flow.Sequence;3_0_3_0_0;NA;NA;completion;8367.9;315759;315759.7;315760.08;324127.98;324140;2023-06-16T11:37:14Z;324144.56;NULL;Spionage;upelelezi;s;maslahi;utokazo;magangao;NA;qt;NA;3;NA;NA;NA;NA;NA;NA;NA;NA;NA;NA;NA;NA;NA;NA;NA;NA;NA;NA;NA;;;;
f2dbe;Deep;Question;html.Page;3_0_3_0_1_0_0;NA;NA;form;submission;5818.44;324140;324127.98;324144.56;329963;329966;2023-06-16T11:37:20Z;329977.06;NULL;Vorsorge;tahadhari;d;NA;NA;NA;mshanini;NA;NA;3;NA;NA;NA;NA;NA;NA;NA;NA;NA;NA;NA;NA;NA;NA;NA;NA;NA;NA;NA;;
f2dbe;"""Richtig""-Screen";canvas.Screen;3_0_3_0_1_0_1;NA;NA;skipped;NA;329973;NA;NA;329963;329974;2023-06-16T11:37:20Z;329977.06;NULL;Vorsorge;tahadhari;d;NA;NA;NA;NA;qt;NA;3;NA;NA;NA;NA;NA;NA;NA;NA;NA;NA;NA;NA;NA;NA;NA;NA;NA;NA;NA;;;;
f2dbe;"""Falsch""-Screen";canvas.Screen;3_0_3_0_1_0_2;NA;NA;timeout;4999.5;329976;329961.02;329977.06;334959.92;334961;2023-06-16T11:37:25Z;334976.56;NULL;Vorsorge;tahadhari;d;NA;NA;NA;NA;qt;0;3;NA;NA;NA;NA;NA;NA;NA;NA;NA;NA;NA;NA;NA;NA;NA;NA;NA;NA;NA;;;;
f2dbe;deep;flow.Sequence;3_0_3_0_1_0;NA;NA;completion;10815.36;324140;324127.98;324144.56;334959.92;334962;2023-06-16T11:37:25Z;334976.56;NULL;Vorsorge;tahadhari;d;NA;NA;NA;NA;qt;NA;3;NA;NA;NA;NA;NA;NA;NA;NA;NA;NA;NA;NA;NA;NA;NA;NA;NA;NA;NA;;;;
f2dbe;shallow;flow.Sequence;3_0_3_0_1_1;NA;NA;skipped;NA;334963;NA;NA;334959.92;334963;2023-06-16T11:37:25Z;334976.56;NULL;Vorsorge;tahadhari;d;NA;NA;NA;NA;qt;NA;3;NA;NA;NA;NA;NA;NA;NA;NA;NA;NA;NA;NA;NA;NA;NA;NA;NA;NA;NA;;;;
f2dbe;task;flow.Sequence;3_0_3_0_1;NA;NA;completion;10815.36;324140;324127.98;324144.56;334959.92;334964;2023-06-16T11:37:25Z;334976.56;NULL;Vorsorge;tahadhari;d;NA;NA;NA;NA;qt;NA;3;NA;NA;NA;NA;NA;NA;NA;NA;NA;NA;NA;NA;NA;NA;NA;NA;NA;NA;NA;;;;
f2dbe;deep;flow.Sequence;3_0_3_0_2_0;NA;NA;skipped;NA;334965;NA;NA;334959.92;334965;2023-06-16T11:37:25Z;334976.56;NULL;Symbol;kielezo;s;kinyume;nderemo;utayari;NA;qt;NA;3;NA;NA;NA;NA;NA;NA;NA;NA;NA;NA;NA;NA;NA;NA;NA;NA;NA;NA;NA;;;;
f2dbe;Shallow;Question;html.Page;3_0_3_0_2_1_0;NA;NA;form;submission;3897.44;334966;334959.92;334976.56;338874;338875;2023-06-16T11:37:29Z;338875.98;NULL;Symbol;kielezo;s;kinyume;nderemo;utayari;kielezo;NA;NA;3;NA;NA;NA;NA;NA;NA;NA;NA;NA;NA;NA;NA;NA;NA;NA;NA;NA;NA;NA;;
f2dbe;"""Richtig""-Screen";canvas.Screen;3_0_3_0_2_1_1;NA;NA;timeout;4999.38;338878;338872.74;338875.98;343858.74;343860;2023-06-16T11:37:34Z;343875.36;NULL;Symbol;kielezo;s;kinyume;nderemo;utayari;NA;qt;1;3;NA;NA;NA;NA;NA;NA;NA;NA;NA;NA;NA;NA;NA;NA;NA;NA;NA;NA;NA;;;;
f2dbe;"""Falsch""-Screen";canvas.Screen;3_0_3_0_2_1_2;NA;NA;skipped;NA;343868;NA;NA;343858.74;343868;2023-06-16T11:37:34Z;343875.36;NULL;Symbol;kielezo;s;kinyume;nderemo;utayari;NA;qt;NA;3;NA;NA;NA;NA;NA;NA;NA;NA;NA;NA;NA;NA;NA;NA;NA;NA;NA;NA;NA;;;;
f2dbe;shallow;flow.Sequence;3_0_3_0_2_1;NA;NA;completion;8882.18;334966;334959.92;334976.56;343858.74;343870;2023-06-16T11:37:34Z;343875.36;NULL;Symbol;kielezo;s;kinyume;nderemo;utayari;NA;qt;NA;3;NA;NA;NA;NA;NA;NA;NA;NA;NA;NA;NA;NA;NA;NA;NA;NA;NA;NA;NA;;;;
f2dbe;task;flow.Sequence;3_0_3_0_2;NA;NA;completion;8882.18;334965;334959.92;334976.56;343858.74;343871;2023-06-16T11:37:34Z;343875.36;NULL;Symbol;kielezo;s;kinyume;nderemo;utayari;NA;qt;NA;3;NA;NA;NA;NA;NA;NA;NA;NA;NA;NA;NA;NA;NA;NA;NA;NA;NA;NA;NA;;;;
f2dbe;deep;flow.Sequence;3_0_3_0_3_0;NA;NA;skipped;NA;343871;NA;NA;343858.74;343872;2023-06-16T11:37:34Z;343875.36;NULL;Fenster;dirisha;s;walakini;tasawari;maarifa;NA;qt;NA;3;NA;NA;NA;NA;NA;NA;NA;NA;NA;NA;NA;NA;NA;NA;NA;NA;NA;NA;NA;;;;
f2dbe;Shallow;Question;html.Page;3_0_3_0_3_1_0;NA;NA;form;submission;2187.64;343873;343858.74;343875.36;346063;346064;2023-06-16T11:37:36Z;346075.06;NULL;Fenster;dirisha;s;walakini;tasawari;maarifa;dirisha;NA;NA;3;NA;NA;NA;NA;NA;NA;NA;NA;NA;NA;NA;NA;NA;NA;NA;NA;NA;NA;NA;;
f2dbe;"""Richtig""-Screen";canvas.Screen;3_0_3_0_3_1_1;NA;NA;timeout;4999.4;346066;346061.32;346075.06;351057.8;351059;2023-06-16T11:37:41Z;351074.46;NULL;Fenster;dirisha;s;walakini;tasawari;maarifa;NA;qt;1;3;NA;NA;NA;NA;NA;NA;NA;NA;NA;NA;NA;NA;NA;NA;NA;NA;NA;NA;NA;;;;
f2dbe;"""Falsch""-Screen";canvas.Screen;3_0_3_0_3_1_2;NA;NA;skipped;NA;351069;NA;NA;351057.8;351070;2023-06-16T11:37:41Z;351074.46;NULL;Fenster;dirisha;s;walakini;tasawari;maarifa;NA;qt;NA;3;NA;NA;NA;NA;NA;NA;NA;NA;NA;NA;NA;NA;NA;NA;NA;NA;NA;NA;NA;;;;
f2dbe;shallow;flow.Sequence;3_0_3_0_3_1;NA;NA;completion;7182.44;343873;343858.74;343875.36;351057.8;351070;2023-06-16T11:37:41Z;351074.46;NULL;Fenster;dirisha;s;walakini;tasawari;maarifa;NA;qt;NA;3;NA;NA;NA;NA;NA;NA;NA;NA;NA;NA;NA;NA;NA;NA;NA;NA;NA;NA;NA;;;;
f2dbe;task;flow.Sequence;3_0_3_0_3;NA;NA;completion;7182.44;343871;343858.74;343875.36;351057.8;351070;2023-06-16T11:37:41Z;351074.46;NULL;Fenster;dirisha;s;walakini;tasawari;maarifa;NA;qt;NA;3;NA;NA;NA;NA;NA;NA;NA;NA;NA;NA;NA;NA;NA;NA;NA;NA;NA;NA;NA;;;;
f2dbe;Deep;Question;html.Page;3_0_3_0_4_0_0;NA;NA;form;submission;5535.54;351071;351057.8;351074.46;356610;356610;2023-06-16T11:37:47Z;356623.68;NULL;Konkurrent;mshindani;d;NA;NA;NA;ajokelkd;NA;NA;3;NA;NA;NA;NA;NA;NA;NA;NA;NA;NA;NA;NA;NA;NA;NA;NA;NA;NA;NA;;
f2dbe;"""Richtig""-Screen";canvas.Screen;3_0_3_0_4_0_1;NA;NA;skipped;NA;356611;NA;NA;356610;356612;2023-06-16T11:37:47Z;356623.68;NULL;Konkurrent;mshindani;d;NA;NA;NA;NA;qt;NA;3;NA;NA;NA;NA;NA;NA;NA;NA;NA;NA;NA;NA;NA;NA;NA;NA;NA;NA;NA;;;;
f2dbe;"""Falsch""-Screen";canvas.Screen;3_0_3_0_4_0_2;NA;NA;timeout;4999.38;356614;356608.94;356623.68;361606.4;361608;2023-06-16T11:37:52Z;361623.06;NULL;Konkurrent;mshindani;d;NA;NA;NA;NA;qt;0;3;NA;NA;NA;NA;NA;NA;NA;NA;NA;NA;NA;NA;NA;NA;NA;NA;NA;NA;NA;;;;
f2dbe;deep;flow.Sequence;3_0_3_0_4_0;NA;NA;completion;10531.94;351071;351057.8;351074.46;361606.4;361610;2023-06-16T11:37:52Z;361623.06;NULL;Konkurrent;mshindani;d;NA;NA;NA;NA;qt;NA;3;NA;NA;NA;NA;NA;NA;NA;NA;NA;NA;NA;NA;NA;NA;NA;NA;NA;NA;NA;;;;
f2dbe;shallow;flow.Sequence;3_0_3_0_4_1;NA;NA;skipped;NA;361610;NA;NA;361606.4;361611;2023-06-16T11:37:52Z;361623.06;NULL;Konkurrent;mshindani;d;NA;NA;NA;NA;qt;NA;3;NA;NA;NA;NA;NA;NA;NA;NA;NA;NA;NA;NA;NA;NA;NA;NA;NA;NA;NA;;;;
f2dbe;task;flow.Sequence;3_0_3_0_4;NA;NA;completion;10531.94;351071;351057.8;351074.46;361606.4;361612;2023-06-16T11:37:52Z;361623.06;NULL;Konkurrent;mshindani;d;NA;NA;NA;NA;qt;NA;3;NA;NA;NA;NA;NA;NA;NA;NA;NA;NA;NA;NA;NA;NA;NA;NA;NA;NA;NA;;;;
f2dbe;deep;flow.Sequence;3_0_3_0_5_0;NA;NA;skipped;NA;361612;NA;NA;361606.4;361613;2023-06-16T11:37:52Z;361623.06;NULL;Zuwachs;nyongeza;s;matilaba;udhibiti;hudhurio;NA;qt;NA;3;NA;NA;NA;NA;NA;NA;NA;NA;NA;NA;NA;NA;NA;NA;NA;NA;NA;NA;NA;;;;
f2dbe;Shallow;Question;html.Page;3_0_3_0_5_1_0;NA;NA;form;submission;4602.94;361613;361606.4;361623.06;366226;366226;2023-06-16T11:37:56Z;366239.2;NULL;Zuwachs;nyongeza;s;matilaba;udhibiti;hudhurio;nyongeza;NA;NA;3;NA;NA;NA;NA;NA;NA;NA;NA;NA;NA;NA;NA;NA;NA;NA;NA;NA;NA;NA;;
f2dbe;"""Richtig""-Screen";canvas.Screen;3_0_3_0_5_1_1;NA;NA;timeout;4999.1;366228;366224.48;366239.2;371221.62;371224;2023-06-16T11:38:01Z;371238.3;NULL;Zuwachs;nyongeza;s;matilaba;udhibiti;hudhurio;NA;qt;1;3;NA;NA;NA;NA;NA;NA;NA;NA;NA;NA;NA;NA;NA;NA;NA;NA;NA;NA;NA;;;;
f2dbe;"""Falsch""-Screen";canvas.Screen;3_0_3_0_5_1_2;NA;NA;skipped;NA;371230;NA;NA;371221.62;371230;2023-06-16T11:38:01Z;371238.3;NULL;Zuwachs;nyongeza;s;matilaba;udhibiti;hudhurio;NA;qt;NA;3;NA;NA;NA;NA;NA;NA;NA;NA;NA;NA;NA;NA;NA;NA;NA;NA;NA;NA;NA;;;;
f2dbe;shallow;flow.Sequence;3_0_3_0_5_1;NA;NA;completion;9598.56;361613;361606.4;361623.06;371221.62;371230;2023-06-16T11:38:01Z;371238.3;NULL;Zuwachs;nyongeza;s;matilaba;udhibiti;hudhurio;NA;qt;NA;3;NA;NA;NA;NA;NA;NA;NA;NA;NA;NA;NA;NA;NA;NA;NA;NA;NA;NA;NA;;;;
f2dbe;task;flow.Sequence;3_0_3_0_5;NA;NA;completion;9598.56;361612;361606.4;361623.06;371221.62;371231;2023-06-16T11:38:01Z;371238.3;NULL;Zuwachs;nyongeza;s;matilaba;udhibiti;hudhurio;NA;qt;NA;3;NA;NA;NA;NA;NA;NA;NA;NA;NA;NA;NA;NA;NA;NA;NA;NA;NA;NA;NA;;;;
f2dbe;Deep;Question;html.Page;3_0_3_0_6_0_0;NA;NA;form;submission;4186.7;371231;371221.62;371238.3;375425;375425;2023-06-16T11:38:05Z;375424.18;NULL;Tester;wanaojaribu;d;NA;NA;NA;tahadhari;NA;NA;3;NA;NA;NA;NA;NA;NA;NA;NA;NA;NA;NA;NA;NA;NA;NA;NA;NA;NA;NA;;
f2dbe;"""Richtig""-Screen";canvas.Screen;3_0_3_0_6_0_1;NA;NA;skipped;NA;375428;NA;NA;375425;375428;2023-06-16T11:38:05Z;375424.18;NULL;Tester;wanaojaribu;d;NA;NA;NA;NA;qt;NA;3;NA;NA;NA;NA;NA;NA;NA;NA;NA;NA;NA;NA;NA;NA;NA;NA;NA;NA;NA;;;;
f2dbe;"""Falsch""-Screen";canvas.Screen;3_0_3_0_6_0_2;NA;NA;timeout;4996.52;375431;375423.88;375424.18;380404.02;380405;2023-06-16T11:38:10Z;380420.7;NULL;Tester;wanaojaribu;d;NA;NA;NA;NA;qt;0;3;NA;NA;NA;NA;NA;NA;NA;NA;NA;NA;NA;NA;NA;NA;NA;NA;NA;NA;NA;;;;
f2dbe;deep;flow.Sequence;3_0_3_0_6_0;NA;NA;completion;9165.72;371231;371221.62;371238.3;380404.02;380407;2023-06-16T11:38:10Z;380420.7;NULL;Tester;wanaojaribu;d;NA;NA;NA;NA;qt;NA;3;NA;NA;NA;NA;NA;NA;NA;NA;NA;NA;NA;NA;NA;NA;NA;NA;NA;NA;NA;;;;
f2dbe;shallow;flow.Sequence;3_0_3_0_6_1;NA;NA;skipped;NA;380407;NA;NA;380404.02;380407;2023-06-16T11:38:10Z;380420.7;NULL;Tester;wanaojaribu;d;NA;NA;NA;NA;qt;NA;3;NA;NA;NA;NA;NA;NA;NA;NA;NA;NA;NA;NA;NA;NA;NA;NA;NA;NA;NA;;;;
f2dbe;task;flow.Sequence;3_0_3_0_6;NA;NA;completion;9165.72;371231;371221.62;371238.3;380404.02;380407;2023-06-16T11:38:10Z;380420.7;NULL;Tester;wanaojaribu;d;NA;NA;NA;NA;qt;NA;3;NA;NA;NA;NA;NA;NA;NA;NA;NA;NA;NA;NA;NA;NA;NA;NA;NA;NA;NA;;;;
f2dbe;Deep;Question;html.Page;3_0_3_0_7_0_0;NA;NA;form;submission;4864.3;380408;380404.02;380420.7;385285;385285;2023-06-16T11:38:15Z;385286.76;NULL;Schüler;mwanafunzi;d;NA;NA;NA;mwanafulenz;NA;NA;3;NA;NA;NA;NA;NA;NA;NA;NA;NA;NA;NA;NA;NA;NA;NA;NA;NA;NA;NA;;
f2dbe;"""Richtig""-Screen";canvas.Screen;3_0_3_0_7_0_1;NA;NA;skipped;NA;385288;NA;NA;385285;385288;2023-06-16T11:38:15Z;385286.76;NULL;Schüler;mwanafunzi;d;NA;NA;NA;NA;qt;NA;3;NA;NA;NA;NA;NA;NA;NA;NA;NA;NA;NA;NA;NA;NA;NA;NA;NA;NA;NA;;;;
f2dbe;"""Falsch""-Screen";canvas.Screen;3_0_3_0_7_0_2;NA;NA;timeout;4999.38;385291;385283.58;385286.76;390269.48;390271;2023-06-16T11:38:20Z;390286.14;NULL;Schüler;mwanafunzi;d;NA;NA;NA;NA;qt;0;3;NA;NA;NA;NA;NA;NA;NA;NA;NA;NA;NA;NA;NA;NA;NA;NA;NA;NA;NA;;;;
f2dbe;deep;flow.Sequence;3_0_3_0_7_0;NA;NA;completion;9848.78;380408;380404.02;380420.7;390269.48;390272;2023-06-16T11:38:20Z;390286.14;NULL;Schüler;mwanafunzi;d;NA;NA;NA;NA;qt;NA;3;NA;NA;NA;NA;NA;NA;NA;NA;NA;NA;NA;NA;NA;NA;NA;NA;NA;NA;NA;;;;
f2dbe;shallow;flow.Sequence;3_0_3_0_7_1;NA;NA;skipped;NA;390273;NA;NA;390269.48;390273;2023-06-16T11:38:20Z;390286.14;NULL;Schüler;mwanafunzi;d;NA;NA;NA;NA;qt;NA;3;NA;NA;NA;NA;NA;NA;NA;NA;NA;NA;NA;NA;NA;NA;NA;NA;NA;NA;NA;;;;
f2dbe;task;flow.Sequence;3_0_3_0_7;NA;NA;completion;9848.78;380407;380404.02;380420.7;390269.48;390273;2023-06-16T11:38:20Z;390286.14;NULL;Schüler;mwanafunzi;d;NA;NA;NA;NA;qt;NA;3;NA;NA;NA;NA;NA;NA;NA;NA;NA;NA;NA;NA;NA;NA;NA;NA;NA;NA;NA;;;;
f2dbe;block;flow.Loop;3_0_3_0;NA;NA;completion;74509.4;315759;315759.7;315760.08;390269.48;390273;2023-06-16T11:38:20Z;390286.14;NULL;NA;NA;NA;NA;NA;NA;NA;qt;NA;3;NA;NA;NA;NA;NA;NA;NA;NA;NA;NA;NA;NA;NA;NA;NA;NA;NA;NA;NA;;;;
f2dbe;weiter;canvas.Screen;3_0_3_1;sdf;keypress(Space);response;691.86;390274;390269.48;390286.14;390978;390984;2023-06-16T11:38:21Z;391056.46;NULL;NA;NA;NA;NA;NA;NA;NA;qt;NA;3;NA;NA;NA;NA;NA;NA;NA;NA;NA;NA;NA;NA;NA;NA;NA;NA;NA;NA;NA;;;;
f2dbe;check;continue;flow.Sequence;3_0_3;NA;NA;completion;75217.92;315759;315759.7;315760.08;390978;390985;2023-06-16T11:38:21Z;391056.46;NULL;NA;NA;NA;NA;NA;NA;NA;qt;NA;3;NA;NA;NA;NA;NA;NA;NA;NA;NA;NA;NA;NA;NA;NA;NA;NA;NA;NA;NA;;;
f2dbe;deep;flow.Sequence;3_0_4_0_0_0;NA;NA;skipped;NA;391056;NA;NA;390978;391056;2023-06-16T11:38:21Z;391056.46;NULL;Fenster;dirisha;s;walakini;tasawari;maarifa;NA;sd;NA;4;NA;NA;NA;NA;NA;NA;NA;NA;NA;NA;NA;NA;NA;NA;NA;NA;NA;NA;NA;;;;
f2dbe;Shallow;Question;html.Page;3_0_4_0_0_1_0;NA;NA;form;submission;3391.54;391056;391056.1;391056.46;394448;394448;2023-06-16T11:38:24Z;394447.28;NULL;Fenster;dirisha;s;walakini;tasawari;maarifa;dirisha;NA;NA;4;NA;NA;NA;NA;NA;NA;NA;NA;NA;NA;NA;NA;NA;NA;NA;NA;NA;NA;NA;;
f2dbe;"""Richtig""-Screen";canvas.Screen;3_0_4_0_0_1_1;NA;NA;timeout;5004.46;394449;394447.06;394447.28;399435.08;399444;2023-06-16T11:38:29Z;399451.74;NULL;Fenster;dirisha;s;walakini;tasawari;maarifa;NA;sd;1;4;NA;NA;NA;NA;NA;NA;NA;NA;NA;NA;NA;NA;NA;NA;NA;NA;NA;NA;NA;;;;
f2dbe;"""Falsch""-Screen";canvas.Screen;3_0_4_0_0_1_2;NA;NA;skipped;NA;399462;NA;NA;399435.08;399462;2023-06-16T11:38:29Z;399451.74;NULL;Fenster;dirisha;s;walakini;tasawari;maarifa;NA;sd;NA;4;NA;NA;NA;NA;NA;NA;NA;NA;NA;NA;NA;NA;NA;NA;NA;NA;NA;NA;NA;;;;
f2dbe;shallow;flow.Sequence;3_0_4_0_0_1;NA;NA;completion;8378.62;391056;391056.1;391056.46;399435.08;399463;2023-06-16T11:38:29Z;399451.74;NULL;Fenster;dirisha;s;walakini;tasawari;maarifa;NA;sd;NA;4;NA;NA;NA;NA;NA;NA;NA;NA;NA;NA;NA;NA;NA;NA;NA;NA;NA;NA;NA;;;;
f2dbe;task;flow.Sequence;3_0_4_0_0;NA;NA;completion;8378.62;391056;391056.1;391056.46;399435.08;399463;2023-06-16T11:38:29Z;399451.74;NULL;Fenster;dirisha;s;walakini;tasawari;maarifa;NA;sd;NA;4;NA;NA;NA;NA;NA;NA;NA;NA;NA;NA;NA;NA;NA;NA;NA;NA;NA;NA;NA;;;;
f2dbe;deep;flow.Sequence;3_0_4_0_1_0;NA;NA;skipped;NA;399464;NA;NA;399435.08;399464;2023-06-16T11:38:29Z;399451.74;NULL;Zuwachs;nyongeza;s;matilaba;udhibiti;hudhurio;NA;sd;NA;4;NA;NA;NA;NA;NA;NA;NA;NA;NA;NA;NA;NA;NA;NA;NA;NA;NA;NA;NA;;;;
f2dbe;Shallow;Question;html.Page;3_0_4_0_1_1_0;NA;NA;form;submission;2637.26;399464;399435.08;399451.74;402089;402091;2023-06-16T11:38:32Z;402088.72;NULL;Zuwachs;nyongeza;s;matilaba;udhibiti;hudhurio;nyongeza;NA;NA;4;NA;NA;NA;NA;NA;NA;NA;NA;NA;NA;NA;NA;NA;NA;NA;NA;NA;NA;NA;;
f2dbe;"""Richtig""-Screen";canvas.Screen;3_0_4_0_1_1_1;NA;NA;timeout;4995.3;402092;402088.44;402088.72;407067.38;407069;2023-06-16T11:38:37Z;407084.02;NULL;Zuwachs;nyongeza;s;matilaba;udhibiti;hudhurio;NA;sd;1;4;NA;NA;NA;NA;NA;NA;NA;NA;NA;NA;NA;NA;NA;NA;NA;NA;NA;NA;NA;;;;
f2dbe;"""Falsch""-Screen";canvas.Screen;3_0_4_0_1_1_2;NA;NA;skipped;NA;407078;NA;NA;407067.38;407078;2023-06-16T11:38:37Z;407084.02;NULL;Zuwachs;nyongeza;s;matilaba;udhibiti;hudhurio;NA;sd;NA;4;NA;NA;NA;NA;NA;NA;NA;NA;NA;NA;NA;NA;NA;NA;NA;NA;NA;NA;NA;;;;
f2dbe;shallow;flow.Sequence;3_0_4_0_1_1;NA;NA;completion;7615.64;399464;399435.08;399451.74;407067.38;407079;2023-06-16T11:38:37Z;407084.02;NULL;Zuwachs;nyongeza;s;matilaba;udhibiti;hudhurio;NA;sd;NA;4;NA;NA;NA;NA;NA;NA;NA;NA;NA;NA;NA;NA;NA;NA;NA;NA;NA;NA;NA;;;;
f2dbe;task;flow.Sequence;3_0_4_0_1;NA;NA;completion;7615.64;399464;399435.08;399451.74;407067.38;407080;2023-06-16T11:38:37Z;407084.02;NULL;Zuwachs;nyongeza;s;matilaba;udhibiti;hudhurio;NA;sd;NA;4;NA;NA;NA;NA;NA;NA;NA;NA;NA;NA;NA;NA;NA;NA;NA;NA;NA;NA;NA;;;;
f2dbe;Deep;Question;html.Page;3_0_4_0_2_0_0;NA;NA;form;submission;8625.98;407081;407067.38;407084.02;415710;415711;2023-06-16T11:38:46Z;415716.18;NULL;Vorsorge;tahadhari;d;NA;NA;NA;tahadhari;NA;NA;4;NA;NA;NA;NA;NA;NA;NA;NA;NA;NA;NA;NA;NA;NA;NA;NA;NA;NA;NA;;
f2dbe;"""Richtig""-Screen";canvas.Screen;3_0_4_0_2_0_1;NA;NA;timeout;4999.38;415715;415699.54;415716.18;420698.9;420701;2023-06-16T11:38:51Z;420715.56;NULL;Vorsorge;tahadhari;d;NA;NA;NA;NA;sd;1;4;NA;NA;NA;NA;NA;NA;NA;NA;NA;NA;NA;NA;NA;NA;NA;NA;NA;NA;NA;;;;
f2dbe;"""Falsch""-Screen";canvas.Screen;3_0_4_0_2_0_2;NA;NA;skipped;NA;420710;NA;NA;420698.9;420710;2023-06-16T11:38:51Z;420715.56;NULL;Vorsorge;tahadhari;d;NA;NA;NA;NA;sd;NA;4;NA;NA;NA;NA;NA;NA;NA;NA;NA;NA;NA;NA;NA;NA;NA;NA;NA;NA;NA;;;;
f2dbe;deep;flow.Sequence;3_0_4_0_2_0;NA;NA;completion;13614.88;407081;407067.38;407084.02;420698.9;420711;2023-06-16T11:38:51Z;420715.56;NULL;Vorsorge;tahadhari;d;NA;NA;NA;NA;sd;NA;4;NA;NA;NA;NA;NA;NA;NA;NA;NA;NA;NA;NA;NA;NA;NA;NA;NA;NA;NA;;;;
f2dbe;shallow;flow.Sequence;3_0_4_0_2_1;NA;NA;skipped;NA;420711;NA;NA;420698.9;420712;2023-06-16T11:38:51Z;420715.56;NULL;Vorsorge;tahadhari;d;NA;NA;NA;NA;sd;NA;4;NA;NA;NA;NA;NA;NA;NA;NA;NA;NA;NA;NA;NA;NA;NA;NA;NA;NA;NA;;;;
f2dbe;task;flow.Sequence;3_0_4_0_2;NA;NA;completion;13614.88;407081;407067.38;407084.02;420698.9;420712;2023-06-16T11:38:51Z;420715.56;NULL;Vorsorge;tahadhari;d;NA;NA;NA;NA;sd;NA;4;NA;NA;NA;NA;NA;NA;NA;NA;NA;NA;NA;NA;NA;NA;NA;NA;NA;NA;NA;;;;
f2dbe;deep;flow.Sequence;3_0_4_0_3_0;NA;NA;skipped;NA;420712;NA;NA;420698.9;420712;2023-06-16T11:38:51Z;420715.56;NULL;Symbol;kielezo;s;kinyume;nderemo;utayari;NA;sd;NA;4;NA;NA;NA;NA;NA;NA;NA;NA;NA;NA;NA;NA;NA;NA;NA;NA;NA;NA;NA;;;;
f2dbe;Shallow;Question;html.Page;3_0_4_0_3_1_0;NA;NA;form;submission;2446.44;420713;420698.9;420715.56;423162;423162;2023-06-16T11:38:53Z;423165.3;NULL;Symbol;kielezo;s;kinyume;nderemo;utayari;kielezo;NA;NA;4;NA;NA;NA;NA;NA;NA;NA;NA;NA;NA;NA;NA;NA;NA;NA;NA;NA;NA;NA;;
f2dbe;"""Richtig""-Screen";canvas.Screen;3_0_4_0_3_1_1;NA;NA;timeout;4999.32;423166;423160.24;423165.3;428148;428150;2023-06-16T11:38:58Z;428164.62;NULL;Symbol;kielezo;s;kinyume;nderemo;utayari;NA;sd;1;4;NA;NA;NA;NA;NA;NA;NA;NA;NA;NA;NA;NA;NA;NA;NA;NA;NA;NA;NA;;;;
f2dbe;"""Falsch""-Screen";canvas.Screen;3_0_4_0_3_1_2;NA;NA;skipped;NA;428156;NA;NA;428148;428156;2023-06-16T11:38:58Z;428164.62;NULL;Symbol;kielezo;s;kinyume;nderemo;utayari;NA;sd;NA;4;NA;NA;NA;NA;NA;NA;NA;NA;NA;NA;NA;NA;NA;NA;NA;NA;NA;NA;NA;;;;
f2dbe;shallow;flow.Sequence;3_0_4_0_3_1;NA;NA;completion;7432.44;420713;420698.9;420715.56;428148;428156;2023-06-16T11:38:58Z;428164.62;NULL;Symbol;kielezo;s;kinyume;nderemo;utayari;NA;sd;NA;4;NA;NA;NA;NA;NA;NA;NA;NA;NA;NA;NA;NA;NA;NA;NA;NA;NA;NA;NA;;;;
f2dbe;task;flow.Sequence;3_0_4_0_3;NA;NA;completion;7432.44;420712;420698.9;420715.56;428148;428158;2023-06-16T11:38:58Z;428164.62;NULL;Symbol;kielezo;s;kinyume;nderemo;utayari;NA;sd;NA;4;NA;NA;NA;NA;NA;NA;NA;NA;NA;NA;NA;NA;NA;NA;NA;NA;NA;NA;NA;;;;
f2dbe;Deep;Question;html.Page;3_0_4_0_4_0_0;NA;NA;form;submission;5239.38;428158;428148;428164.62;433404;433404;2023-06-16T11:39:03Z;433403.72;NULL;Schüler;mwanafunzi;d;NA;NA;NA;mwanafunzi;NA;NA;4;NA;NA;NA;NA;NA;NA;NA;NA;NA;NA;NA;NA;NA;NA;NA;NA;NA;NA;NA;;
f2dbe;"""Richtig""-Screen";canvas.Screen;3_0_4_0_4_0_1;NA;NA;timeout;4992.96;433407;433403.38;433403.72;438380.06;438382;2023-06-16T11:39:08Z;438396.68;NULL;Schüler;mwanafunzi;d;NA;NA;NA;NA;sd;1;4;NA;NA;NA;NA;NA;NA;NA;NA;NA;NA;NA;NA;NA;NA;NA;NA;NA;NA;NA;;;;
f2dbe;"""Falsch""-Screen";canvas.Screen;3_0_4_0_4_0_2;NA;NA;skipped;NA;438389;NA;NA;438380.06;438389;2023-06-16T11:39:08Z;438396.68;NULL;Schüler;mwanafunzi;d;NA;NA;NA;NA;sd;NA;4;NA;NA;NA;NA;NA;NA;NA;NA;NA;NA;NA;NA;NA;NA;NA;NA;NA;NA;NA;;;;
f2dbe;deep;flow.Sequence;3_0_4_0_4_0;NA;NA;completion;10215.44;428158;428148;428164.62;438380.06;438390;2023-06-16T11:39:08Z;438396.68;NULL;Schüler;mwanafunzi;d;NA;NA;NA;NA;sd;NA;4;NA;NA;NA;NA;NA;NA;NA;NA;NA;NA;NA;NA;NA;NA;NA;NA;NA;NA;NA;;;;
f2dbe;shallow;flow.Sequence;3_0_4_0_4_1;NA;NA;skipped;NA;438390;NA;NA;438380.06;438390;2023-06-16T11:39:08Z;438396.68;NULL;Schüler;mwanafunzi;d;NA;NA;NA;NA;sd;NA;4;NA;NA;NA;NA;NA;NA;NA;NA;NA;NA;NA;NA;NA;NA;NA;NA;NA;NA;NA;;;;
f2dbe;task;flow.Sequence;3_0_4_0_4;NA;NA;completion;10215.44;428158;428148;428164.62;438380.06;438390;2023-06-16T11:39:08Z;438396.68;NULL;Schüler;mwanafunzi;d;NA;NA;NA;NA;sd;NA;4;NA;NA;NA;NA;NA;NA;NA;NA;NA;NA;NA;NA;NA;NA;NA;NA;NA;NA;NA;;;;
f2dbe;Deep;Question;html.Page;3_0_4_0_5_0_0;NA;NA;form;submission;3279.32;438390;438380.06;438396.68;441676;441677;2023-06-16T11:39:12Z;441679.58;NULL;Konkurrent;mshindani;d;NA;NA;NA;mshinia;NA;NA;4;NA;NA;NA;NA;NA;NA;NA;NA;NA;NA;NA;NA;NA;NA;NA;NA;NA;NA;NA;;
f2dbe;"""Richtig""-Screen";canvas.Screen;3_0_4_0_5_0_1;NA;NA;skipped;NA;441680;NA;NA;441676;441680;2023-06-16T11:39:12Z;441679.58;NULL;Konkurrent;mshindani;d;NA;NA;NA;NA;sd;NA;4;NA;NA;NA;NA;NA;NA;NA;NA;NA;NA;NA;NA;NA;NA;NA;NA;NA;NA;NA;;;;
f2dbe;"""Falsch""-Screen";canvas.Screen;3_0_4_0_5_0_2;NA;NA;timeout;4999.34;441683;441675.24;441679.58;446662.38;446663;2023-06-16T11:39:17Z;446678.92;NULL;Konkurrent;mshindani;d;NA;NA;NA;NA;sd;0;4;NA;NA;NA;NA;NA;NA;NA;NA;NA;NA;NA;NA;NA;NA;NA;NA;NA;NA;NA;;;;
f2dbe;deep;flow.Sequence;3_0_4_0_5_0;NA;NA;completion;8265.7;438390;438380.06;438396.68;446662.38;446664;2023-06-16T11:39:17Z;446678.92;NULL;Konkurrent;mshindani;d;NA;NA;NA;NA;sd;NA;4;NA;NA;NA;NA;NA;NA;NA;NA;NA;NA;NA;NA;NA;NA;NA;NA;NA;NA;NA;;;;
f2dbe;shallow;flow.Sequence;3_0_4_0_5_1;NA;NA;skipped;NA;446664;NA;NA;446662.38;446665;2023-06-16T11:39:17Z;446678.92;NULL;Konkurrent;mshindani;d;NA;NA;NA;NA;sd;NA;4;NA;NA;NA;NA;NA;NA;NA;NA;NA;NA;NA;NA;NA;NA;NA;NA;NA;NA;NA;;;;
f2dbe;task;flow.Sequence;3_0_4_0_5;NA;NA;completion;8265.7;438390;438380.06;438396.68;446662.38;446666;2023-06-16T11:39:17Z;446678.92;NULL;Konkurrent;mshindani;d;NA;NA;NA;NA;sd;NA;4;NA;NA;NA;NA;NA;NA;NA;NA;NA;NA;NA;NA;NA;NA;NA;NA;NA;NA;NA;;;;
f2dbe;Deep;Question;html.Page;3_0_4_0_6_0_0;NA;NA;form;submission;7279.08;446667;446662.38;446678.92;453958;453958;2023-06-16T11:39:24Z;453961.18;NULL;Tester;wanaojaribu;d;NA;NA;NA;mwanaobjura;NA;NA;4;NA;NA;NA;NA;NA;NA;NA;NA;NA;NA;NA;NA;NA;NA;NA;NA;NA;NA;NA;;
f2dbe;"""Richtig""-Screen";canvas.Screen;3_0_4_0_6_0_1;NA;NA;skipped;NA;453961;NA;NA;453958;453961;2023-06-16T11:39:24Z;453961.18;NULL;Tester;wanaojaribu;d;NA;NA;NA;NA;sd;NA;4;NA;NA;NA;NA;NA;NA;NA;NA;NA;NA;NA;NA;NA;NA;NA;NA;NA;NA;NA;;;;
f2dbe;"""Falsch""-Screen";canvas.Screen;3_0_4_0_6_0_2;NA;NA;timeout;4999.5;453964;453956.18;453961.18;458944.12;458947;2023-06-16T11:39:29Z;458960.68;NULL;Tester;wanaojaribu;d;NA;NA;NA;NA;sd;0;4;NA;NA;NA;NA;NA;NA;NA;NA;NA;NA;NA;NA;NA;NA;NA;NA;NA;NA;NA;;;;
f2dbe;deep;flow.Sequence;3_0_4_0_6_0;NA;NA;completion;12265.2;446666;446662.38;446678.92;458944.12;458949;2023-06-16T11:39:29Z;458960.68;NULL;Tester;wanaojaribu;d;NA;NA;NA;NA;sd;NA;4;NA;NA;NA;NA;NA;NA;NA;NA;NA;NA;NA;NA;NA;NA;NA;NA;NA;NA;NA;;;;
f2dbe;shallow;flow.Sequence;3_0_4_0_6_1;NA;NA;skipped;NA;458951;NA;NA;458944.12;458951;2023-06-16T11:39:29Z;458960.68;NULL;Tester;wanaojaribu;d;NA;NA;NA;NA;sd;NA;4;NA;NA;NA;NA;NA;NA;NA;NA;NA;NA;NA;NA;NA;NA;NA;NA;NA;NA;NA;;;;
f2dbe;task;flow.Sequence;3_0_4_0_6;NA;NA;completion;12265.2;446666;446662.38;446678.92;458944.12;458951;2023-06-16T11:39:29Z;458960.68;NULL;Tester;wanaojaribu;d;NA;NA;NA;NA;sd;NA;4;NA;NA;NA;NA;NA;NA;NA;NA;NA;NA;NA;NA;NA;NA;NA;NA;NA;NA;NA;;;;
f2dbe;deep;flow.Sequence;3_0_4_0_7_0;NA;NA;skipped;NA;458952;NA;NA;458944.12;458952;2023-06-16T11:39:29Z;458960.68;NULL;Spionage;upelelezi;s;maslahi;utokazo;magangao;NA;sd;NA;4;NA;NA;NA;NA;NA;NA;NA;NA;NA;NA;NA;NA;NA;NA;NA;NA;NA;NA;NA;;;;
f2dbe;Shallow;Question;html.Page;3_0_4_0_7_1_0;NA;NA;form;submission;3010.32;458952;458944.12;458960.68;461971;461971;2023-06-16T11:39:32Z;461977.04;NULL;Spionage;upelelezi;s;maslahi;utokazo;magangao;upelelezi;NA;NA;4;NA;NA;NA;NA;NA;NA;NA;NA;NA;NA;NA;NA;NA;NA;NA;NA;NA;NA;NA;;
f2dbe;"""Richtig""-Screen";canvas.Screen;3_0_4_0_7_1_1;NA;NA;timeout;4999.38;461979;461969.12;461977.04;466959.76;466961;2023-06-16T11:39:37Z;466976.42;NULL;Spionage;upelelezi;s;maslahi;utokazo;magangao;NA;sd;1;4;NA;NA;NA;NA;NA;NA;NA;NA;NA;NA;NA;NA;NA;NA;NA;NA;NA;NA;NA;;;;
f2dbe;"""Falsch""-Screen";canvas.Screen;3_0_4_0_7_1_2;NA;NA;skipped;NA;466971;NA;NA;466959.76;466971;2023-06-16T11:39:37Z;466976.42;NULL;Spionage;upelelezi;s;maslahi;utokazo;magangao;NA;sd;NA;4;NA;NA;NA;NA;NA;NA;NA;NA;NA;NA;NA;NA;NA;NA;NA;NA;NA;NA;NA;;;;
f2dbe;shallow;flow.Sequence;3_0_4_0_7_1;NA;NA;completion;7999.08;458952;458944.12;458960.68;466959.76;466972;2023-06-16T11:39:37Z;466976.42;NULL;Spionage;upelelezi;s;maslahi;utokazo;magangao;NA;sd;NA;4;NA;NA;NA;NA;NA;NA;NA;NA;NA;NA;NA;NA;NA;NA;NA;NA;NA;NA;NA;;;;
f2dbe;task;flow.Sequence;3_0_4_0_7;NA;NA;completion;7999.08;458952;458944.12;458960.68;466959.76;466973;2023-06-16T11:39:37Z;466976.42;NULL;Spionage;upelelezi;s;maslahi;utokazo;magangao;NA;sd;NA;4;NA;NA;NA;NA;NA;NA;NA;NA;NA;NA;NA;NA;NA;NA;NA;NA;NA;NA;NA;;;;
f2dbe;block;flow.Loop;3_0_4_0;NA;NA;completion;75903.3;391056;391056.1;391056.46;466959.76;466975;2023-06-16T11:39:37Z;466976.42;NULL;NA;NA;NA;NA;NA;NA;NA;sd;NA;4;NA;NA;NA;NA;NA;NA;NA;NA;NA;NA;NA;NA;NA;NA;NA;NA;NA;NA;NA;;;;
f2dbe;weiter;canvas.Screen;3_0_4_1;sdf;keypress(Space);response;2626.58;466976;466959.76;466976.42;469603;469613;2023-06-16T11:39:40Z;469673.22;NULL;NA;NA;NA;NA;NA;NA;NA;sd;NA;4;NA;NA;NA;NA;NA;NA;NA;NA;NA;NA;NA;NA;NA;NA;NA;NA;NA;NA;NA;;;;
f2dbe;check;continue;flow.Sequence;3_0_4;NA;NA;completion;78546.54;391055;391056.1;391056.46;469603;469615;2023-06-16T11:39:40Z;469673.22;NULL;NA;NA;NA;NA;NA;NA;NA;sd;NA;4;NA;NA;NA;NA;NA;NA;NA;NA;NA;NA;NA;NA;NA;NA;NA;NA;NA;NA;NA;;;
f2dbe;deep;flow.Sequence;3_0_5_0_0_0;NA;NA;skipped;NA;469672;NA;NA;469603;469673;2023-06-16T11:39:40Z;469673.22;NULL;Fenster;dirisha;s;walakini;tasawari;maarifa;NA;sdf;NA;5;NA;NA;NA;NA;NA;NA;NA;NA;NA;NA;NA;NA;NA;NA;NA;NA;NA;NA;NA;;;;
f2dbe;Shallow;Question;html.Page;3_0_5_0_0_1_0;NA;NA;form;submission;3926.78;469673;469672.84;469673.22;473600;473600;2023-06-16T11:39:44Z;473598.7;NULL;Fenster;dirisha;s;walakini;tasawari;maarifa;dirisha;NA;NA;5;NA;NA;NA;NA;NA;NA;NA;NA;NA;NA;NA;NA;NA;NA;NA;NA;NA;NA;NA;;
f2dbe;"""Richtig""-Screen";canvas.Screen;3_0_5_0_0_1_1;NA;NA;timeout;4992.82;473602;473598.36;473598.7;478574.98;478577;2023-06-16T11:39:49Z;478591.52;NULL;Fenster;dirisha;s;walakini;tasawari;maarifa;NA;sdf;1;5;NA;NA;NA;NA;NA;NA;NA;NA;NA;NA;NA;NA;NA;NA;NA;NA;NA;NA;NA;;;;
f2dbe;"""Falsch""-Screen";canvas.Screen;3_0_5_0_0_1_2;NA;NA;skipped;NA;478584;NA;NA;478574.98;478585;2023-06-16T11:39:49Z;478591.52;NULL;Fenster;dirisha;s;walakini;tasawari;maarifa;NA;sdf;NA;5;NA;NA;NA;NA;NA;NA;NA;NA;NA;NA;NA;NA;NA;NA;NA;NA;NA;NA;NA;;;;
f2dbe;shallow;flow.Sequence;3_0_5_0_0_1;NA;NA;completion;8901.76;469673;469672.84;469673.22;478574.98;478585;2023-06-16T11:39:49Z;478591.52;NULL;Fenster;dirisha;s;walakini;tasawari;maarifa;NA;sdf;NA;5;NA;NA;NA;NA;NA;NA;NA;NA;NA;NA;NA;NA;NA;NA;NA;NA;NA;NA;NA;;;;
f2dbe;task;flow.Sequence;3_0_5_0_0;NA;NA;completion;8901.76;469672;469672.84;469673.22;478574.98;478585;2023-06-16T11:39:49Z;478591.52;NULL;Fenster;dirisha;s;walakini;tasawari;maarifa;NA;sdf;NA;5;NA;NA;NA;NA;NA;NA;NA;NA;NA;NA;NA;NA;NA;NA;NA;NA;NA;NA;NA;;;;
f2dbe;Deep;Question;html.Page;3_0_5_0_1_0_0;NA;NA;form;submission;5403.48;478585;478574.98;478591.52;483995;483996;2023-06-16T11:39:54Z;483994.12;NULL;Schüler;mwanafunzi;d;NA;NA;NA;mwanafunzi;NA;NA;5;NA;NA;NA;NA;NA;NA;NA;NA;NA;NA;NA;NA;NA;NA;NA;NA;NA;NA;NA;;
f2dbe;"""Richtig""-Screen";canvas.Screen;3_0_5_0_1_0_1;NA;NA;timeout;4996.12;483999;483993.76;483994.12;488973.62;488975;2023-06-16T11:39:59Z;488990.24;NULL;Schüler;mwanafunzi;d;NA;NA;NA;NA;sdf;1;5;NA;NA;NA;NA;NA;NA;NA;NA;NA;NA;NA;NA;NA;NA;NA;NA;NA;NA;NA;;;;
f2dbe;"""Falsch""-Screen";canvas.Screen;3_0_5_0_1_0_2;NA;NA;skipped;NA;488983;NA;NA;488973.62;488983;2023-06-16T11:39:59Z;488990.24;NULL;Schüler;mwanafunzi;d;NA;NA;NA;NA;sdf;NA;5;NA;NA;NA;NA;NA;NA;NA;NA;NA;NA;NA;NA;NA;NA;NA;NA;NA;NA;NA;;;;
f2dbe;deep;flow.Sequence;3_0_5_0_1_0;NA;NA;completion;10382.1;478585;478574.98;478591.52;488973.62;488984;2023-06-16T11:39:59Z;488990.24;NULL;Schüler;mwanafunzi;d;NA;NA;NA;NA;sdf;NA;5;NA;NA;NA;NA;NA;NA;NA;NA;NA;NA;NA;NA;NA;NA;NA;NA;NA;NA;NA;;;;
f2dbe;shallow;flow.Sequence;3_0_5_0_1_1;NA;NA;skipped;NA;488984;NA;NA;488973.62;488984;2023-06-16T11:39:59Z;488990.24;NULL;Schüler;mwanafunzi;d;NA;NA;NA;NA;sdf;NA;5;NA;NA;NA;NA;NA;NA;NA;NA;NA;NA;NA;NA;NA;NA;NA;NA;NA;NA;NA;;;;
f2dbe;task;flow.Sequence;3_0_5_0_1;NA;NA;completion;10382.1;478585;478574.98;478591.52;488973.62;488985;2023-06-16T11:39:59Z;488990.24;NULL;Schüler;mwanafunzi;d;NA;NA;NA;NA;sdf;NA;5;NA;NA;NA;NA;NA;NA;NA;NA;NA;NA;NA;NA;NA;NA;NA;NA;NA;NA;NA;;;;
f2dbe;deep;flow.Sequence;3_0_5_0_2_0;NA;NA;skipped;NA;488986;NA;NA;488973.62;488986;2023-06-16T11:39:59Z;488990.24;NULL;Spionage;upelelezi;s;maslahi;utokazo;magangao;NA;sdf;NA;5;NA;NA;NA;NA;NA;NA;NA;NA;NA;NA;NA;NA;NA;NA;NA;NA;NA;NA;NA;;;;
f2dbe;Shallow;Question;html.Page;3_0_5_0_2_1_0;NA;NA;form;submission;2372.76;488986;488973.62;488990.24;491363;491364;2023-06-16T11:40:01Z;491362.2;NULL;Spionage;upelelezi;s;maslahi;utokazo;magangao;upelelezi;NA;NA;5;NA;NA;NA;NA;NA;NA;NA;NA;NA;NA;NA;NA;NA;NA;NA;NA;NA;NA;NA;;
f2dbe;"""Richtig""-Screen";canvas.Screen;3_0_5_0_2_1_1;NA;NA;timeout;4993.76;491366;491361.94;491362.2;496339.28;496340;2023-06-16T11:40:06Z;496355.96;NULL;Spionage;upelelezi;s;maslahi;utokazo;magangao;NA;sdf;1;5;NA;NA;NA;NA;NA;NA;NA;NA;NA;NA;NA;NA;NA;NA;NA;NA;NA;NA;NA;;;;
f2dbe;"""Falsch""-Screen";canvas.Screen;3_0_5_0_2_1_2;NA;NA;skipped;NA;496346;NA;NA;496339.28;496347;2023-06-16T11:40:06Z;496355.96;NULL;Spionage;upelelezi;s;maslahi;utokazo;magangao;NA;sdf;NA;5;NA;NA;NA;NA;NA;NA;NA;NA;NA;NA;NA;NA;NA;NA;NA;NA;NA;NA;NA;;;;
f2dbe;shallow;flow.Sequence;3_0_5_0_2_1;NA;NA;completion;7349.04;488986;488973.62;488990.24;496339.28;496347;2023-06-16T11:40:06Z;496355.96;NULL;Spionage;upelelezi;s;maslahi;utokazo;magangao;NA;sdf;NA;5;NA;NA;NA;NA;NA;NA;NA;NA;NA;NA;NA;NA;NA;NA;NA;NA;NA;NA;NA;;;;
f2dbe;task;flow.Sequence;3_0_5_0_2;NA;NA;completion;7349.04;488985;488973.62;488990.24;496339.28;496348;2023-06-16T11:40:06Z;496355.96;NULL;Spionage;upelelezi;s;maslahi;utokazo;magangao;NA;sdf;NA;5;NA;NA;NA;NA;NA;NA;NA;NA;NA;NA;NA;NA;NA;NA;NA;NA;NA;NA;NA;;;;
f2dbe;Deep;Question;html.Page;3_0_5_0_3_0_0;NA;NA;form;submission;6024.04;496348;496339.28;496355.96;502380;502380;2023-06-16T11:40:12Z;502388.52;NULL;Tester;wanaojaribu;d;NA;NA;NA;wanaobjua;NA;NA;5;NA;NA;NA;NA;NA;NA;NA;NA;NA;NA;NA;NA;NA;NA;NA;NA;NA;NA;NA;;
f2dbe;"""Richtig""-Screen";canvas.Screen;3_0_5_0_3_0_1;NA;NA;skipped;NA;502383;NA;NA;502380;502383;2023-06-16T11:40:12Z;502388.52;NULL;Tester;wanaojaribu;d;NA;NA;NA;NA;sdf;NA;5;NA;NA;NA;NA;NA;NA;NA;NA;NA;NA;NA;NA;NA;NA;NA;NA;NA;NA;NA;;;;
f2dbe;"""Falsch""-Screen";canvas.Screen;3_0_5_0_3_0_2;NA;NA;timeout;4999.42;502386;502378.84;502388.52;507371.36;507373;2023-06-16T11:40:17Z;507387.94;NULL;Tester;wanaojaribu;d;NA;NA;NA;NA;sdf;0;5;NA;NA;NA;NA;NA;NA;NA;NA;NA;NA;NA;NA;NA;NA;NA;NA;NA;NA;NA;;;;
f2dbe;deep;flow.Sequence;3_0_5_0_3_0;NA;NA;completion;11015.4;496348;496339.28;496355.96;507371.36;507374;2023-06-16T11:40:17Z;507387.94;NULL;Tester;wanaojaribu;d;NA;NA;NA;NA;sdf;NA;5;NA;NA;NA;NA;NA;NA;NA;NA;NA;NA;NA;NA;NA;NA;NA;NA;NA;NA;NA;;;;
f2dbe;shallow;flow.Sequence;3_0_5_0_3_1;NA;NA;skipped;NA;507374;NA;NA;507371.36;507374;2023-06-16T11:40:17Z;507387.94;NULL;Tester;wanaojaribu;d;NA;NA;NA;NA;sdf;NA;5;NA;NA;NA;NA;NA;NA;NA;NA;NA;NA;NA;NA;NA;NA;NA;NA;NA;NA;NA;;;;
f2dbe;task;flow.Sequence;3_0_5_0_3;NA;NA;completion;11015.4;496348;496339.28;496355.96;507371.36;507375;2023-06-16T11:40:17Z;507387.94;NULL;Tester;wanaojaribu;d;NA;NA;NA;NA;sdf;NA;5;NA;NA;NA;NA;NA;NA;NA;NA;NA;NA;NA;NA;NA;NA;NA;NA;NA;NA;NA;;;;
f2dbe;Deep;Question;html.Page;3_0_5_0_4_0_0;NA;NA;form;submission;5504.06;507375;507371.36;507387.94;512892;512892;2023-06-16T11:40:23Z;512903.8;NULL;Konkurrent;mshindani;d;NA;NA;NA;mshiwina;NA;NA;5;NA;NA;NA;NA;NA;NA;NA;NA;NA;NA;NA;NA;NA;NA;NA;NA;NA;NA;NA;;
f2dbe;"""Richtig""-Screen";canvas.Screen;3_0_5_0_4_0_1;NA;NA;skipped;NA;512894;NA;NA;512892;512894;2023-06-16T11:40:23Z;512903.8;NULL;Konkurrent;mshindani;d;NA;NA;NA;NA;sdf;NA;5;NA;NA;NA;NA;NA;NA;NA;NA;NA;NA;NA;NA;NA;NA;NA;NA;NA;NA;NA;;;;
f2dbe;"""Falsch""-Screen";canvas.Screen;3_0_5_0_4_0_2;NA;NA;timeout;4999.44;512897;512890.4;512903.8;517886.66;517889;2023-06-16T11:40:28Z;517903.24;NULL;Konkurrent;mshindani;d;NA;NA;NA;NA;sdf;0;5;NA;NA;NA;NA;NA;NA;NA;NA;NA;NA;NA;NA;NA;NA;NA;NA;NA;NA;NA;;;;
f2dbe;deep;flow.Sequence;3_0_5_0_4_0;NA;NA;completion;10498.72;507375;507371.36;507387.94;517886.66;517890;2023-06-16T11:40:28Z;517903.24;NULL;Konkurrent;mshindani;d;NA;NA;NA;NA;sdf;NA;5;NA;NA;NA;NA;NA;NA;NA;NA;NA;NA;NA;NA;NA;NA;NA;NA;NA;NA;NA;;;;
f2dbe;shallow;flow.Sequence;3_0_5_0_4_1;NA;NA;skipped;NA;517890;NA;NA;517886.66;517891;2023-06-16T11:40:28Z;517903.24;NULL;Konkurrent;mshindani;d;NA;NA;NA;NA;sdf;NA;5;NA;NA;NA;NA;NA;NA;NA;NA;NA;NA;NA;NA;NA;NA;NA;NA;NA;NA;NA;;;;
f2dbe;task;flow.Sequence;3_0_5_0_4;NA;NA;completion;10498.72;507375;507371.36;507387.94;517886.66;517891;2023-06-16T11:40:28Z;517903.24;NULL;Konkurrent;mshindani;d;NA;NA;NA;NA;sdf;NA;5;NA;NA;NA;NA;NA;NA;NA;NA;NA;NA;NA;NA;NA;NA;NA;NA;NA;NA;NA;;;;
f2dbe;deep;flow.Sequence;3_0_5_0_5_0;NA;NA;skipped;NA;517891;NA;NA;517886.66;517891;2023-06-16T11:40:28Z;517903.24;NULL;Zuwachs;nyongeza;s;matilaba;udhibiti;hudhurio;NA;sdf;NA;5;NA;NA;NA;NA;NA;NA;NA;NA;NA;NA;NA;NA;NA;NA;NA;NA;NA;NA;NA;;;;
f2dbe;Shallow;Question;html.Page;3_0_5_0_5_1_0;NA;NA;form;submission;2458.76;517892;517886.66;517903.24;520362;520363;2023-06-16T11:40:30Z;520369.6;NULL;Zuwachs;nyongeza;s;matilaba;udhibiti;hudhurio;nyongeza;NA;NA;5;NA;NA;NA;NA;NA;NA;NA;NA;NA;NA;NA;NA;NA;NA;NA;NA;NA;NA;NA;;
f2dbe;"""Richtig""-Screen";canvas.Screen;3_0_5_0_5_1_1;NA;NA;timeout;4999.36;520365;520361.22;520369.6;525352.3;525362;2023-06-16T11:40:35Z;525368.96;NULL;Zuwachs;nyongeza;s;matilaba;udhibiti;hudhurio;NA;sdf;1;5;NA;NA;NA;NA;NA;NA;NA;NA;NA;NA;NA;NA;NA;NA;NA;NA;NA;NA;NA;;;;
f2dbe;"""Falsch""-Screen";canvas.Screen;3_0_5_0_5_1_2;NA;NA;skipped;NA;525377;NA;NA;525352.3;525377;2023-06-16T11:40:35Z;525368.96;NULL;Zuwachs;nyongeza;s;matilaba;udhibiti;hudhurio;NA;sdf;NA;5;NA;NA;NA;NA;NA;NA;NA;NA;NA;NA;NA;NA;NA;NA;NA;NA;NA;NA;NA;;;;
f2dbe;shallow;flow.Sequence;3_0_5_0_5_1;NA;NA;completion;7449.06;517892;517886.66;517903.24;525352.3;525378;2023-06-16T11:40:35Z;525368.96;NULL;Zuwachs;nyongeza;s;matilaba;udhibiti;hudhurio;NA;sdf;NA;5;NA;NA;NA;NA;NA;NA;NA;NA;NA;NA;NA;NA;NA;NA;NA;NA;NA;NA;NA;;;;
f2dbe;task;flow.Sequence;3_0_5_0_5;NA;NA;completion;7449.06;517891;517886.66;517903.24;525352.3;525378;2023-06-16T11:40:35Z;525368.96;NULL;Zuwachs;nyongeza;s;matilaba;udhibiti;hudhurio;NA;sdf;NA;5;NA;NA;NA;NA;NA;NA;NA;NA;NA;NA;NA;NA;NA;NA;NA;NA;NA;NA;NA;;;;
f2dbe;Deep;Question;html.Page;3_0_5_0_6_0_0;NA;NA;form;submission;2980.04;525379;525352.3;525368.96;528349;528350;2023-06-16T11:40:38Z;528351.94;NULL;Vorsorge;tahadhari;d;NA;NA;NA;tahadhari;NA;NA;5;NA;NA;NA;NA;NA;NA;NA;NA;NA;NA;NA;NA;NA;NA;NA;NA;NA;NA;NA;;
f2dbe;"""Richtig""-Screen";canvas.Screen;3_0_5_0_6_0_1;NA;NA;timeout;4999.3;528353;528348.26;528351.94;533334.66;533336;2023-06-16T11:40:43Z;533351.24;NULL;Vorsorge;tahadhari;d;NA;NA;NA;NA;sdf;1;5;NA;NA;NA;NA;NA;NA;NA;NA;NA;NA;NA;NA;NA;NA;NA;NA;NA;NA;NA;;;;
f2dbe;"""Falsch""-Screen";canvas.Screen;3_0_5_0_6_0_2;NA;NA;skipped;NA;533342;NA;NA;533334.66;533342;2023-06-16T11:40:43Z;533351.24;NULL;Vorsorge;tahadhari;d;NA;NA;NA;NA;sdf;NA;5;NA;NA;NA;NA;NA;NA;NA;NA;NA;NA;NA;NA;NA;NA;NA;NA;NA;NA;NA;;;;
f2dbe;deep;flow.Sequence;3_0_5_0_6_0;NA;NA;completion;7965.7;525379;525352.3;525368.96;533334.66;533343;2023-06-16T11:40:43Z;533351.24;NULL;Vorsorge;tahadhari;d;NA;NA;NA;NA;sdf;NA;5;NA;NA;NA;NA;NA;NA;NA;NA;NA;NA;NA;NA;NA;NA;NA;NA;NA;NA;NA;;;;
f2dbe;shallow;flow.Sequence;3_0_5_0_6_1;NA;NA;skipped;NA;533343;NA;NA;533334.66;533343;2023-06-16T11:40:43Z;533351.24;NULL;Vorsorge;tahadhari;d;NA;NA;NA;NA;sdf;NA;5;NA;NA;NA;NA;NA;NA;NA;NA;NA;NA;NA;NA;NA;NA;NA;NA;NA;NA;NA;;;;
f2dbe;task;flow.Sequence;3_0_5_0_6;NA;NA;completion;7965.7;525379;525352.3;525368.96;533334.66;533344;2023-06-16T11:40:43Z;533351.24;NULL;Vorsorge;tahadhari;d;NA;NA;NA;NA;sdf;NA;5;NA;NA;NA;NA;NA;NA;NA;NA;NA;NA;NA;NA;NA;NA;NA;NA;NA;NA;NA;;;;
f2dbe;deep;flow.Sequence;3_0_5_0_7_0;NA;NA;skipped;NA;533344;NA;NA;533334.66;533345;2023-06-16T11:40:43Z;533351.24;NULL;Symbol;kielezo;s;kinyume;nderemo;utayari;NA;sdf;NA;5;NA;NA;NA;NA;NA;NA;NA;NA;NA;NA;NA;NA;NA;NA;NA;NA;NA;NA;NA;;;;
f2dbe;Shallow;Question;html.Page;3_0_5_0_7_1_0;NA;NA;form;submission;3698.76;533345;533334.66;533351.24;537050;537050;2023-06-16T11:40:47Z;537050.82;NULL;Symbol;kielezo;s;kinyume;nderemo;utayari;kielezo;NA;NA;5;NA;NA;NA;NA;NA;NA;NA;NA;NA;NA;NA;NA;NA;NA;NA;NA;NA;NA;NA;;
f2dbe;"""Richtig""-Screen";canvas.Screen;3_0_5_0_7_1_1;NA;NA;timeout;4999.38;537053;537048.26;537050.82;542033.6;542036;2023-06-16T11:40:52Z;542050.2;NULL;Symbol;kielezo;s;kinyume;nderemo;utayari;NA;sdf;1;5;NA;NA;NA;NA;NA;NA;NA;NA;NA;NA;NA;NA;NA;NA;NA;NA;NA;NA;NA;;;;
f2dbe;"""Falsch""-Screen";canvas.Screen;3_0_5_0_7_1_2;NA;NA;skipped;NA;542044;NA;NA;542033.6;542044;2023-06-16T11:40:52Z;542050.2;NULL;Symbol;kielezo;s;kinyume;nderemo;utayari;NA;sdf;NA;5;NA;NA;NA;NA;NA;NA;NA;NA;NA;NA;NA;NA;NA;NA;NA;NA;NA;NA;NA;;;;
f2dbe;shallow;flow.Sequence;3_0_5_0_7_1;NA;NA;completion;8682.36;533345;533334.66;533351.24;542033.6;542045;2023-06-16T11:40:52Z;542050.2;NULL;Symbol;kielezo;s;kinyume;nderemo;utayari;NA;sdf;NA;5;NA;NA;NA;NA;NA;NA;NA;NA;NA;NA;NA;NA;NA;NA;NA;NA;NA;NA;NA;;;;
f2dbe;task;flow.Sequence;3_0_5_0_7;NA;NA;completion;8682.36;533344;533334.66;533351.24;542033.6;542046;2023-06-16T11:40:52Z;542050.2;NULL;Symbol;kielezo;s;kinyume;nderemo;utayari;NA;sdf;NA;5;NA;NA;NA;NA;NA;NA;NA;NA;NA;NA;NA;NA;NA;NA;NA;NA;NA;NA;NA;;;;
f2dbe;block;flow.Loop;3_0_5_0;NA;NA;completion;72360.38;469672;469672.84;469673.22;542033.6;542047;2023-06-16T11:40:52Z;542050.2;NULL;NA;NA;NA;NA;NA;NA;NA;sdf;NA;5;NA;NA;NA;NA;NA;NA;NA;NA;NA;NA;NA;NA;NA;NA;NA;NA;NA;NA;NA;;;;
f2dbe;weiter;canvas.Screen;3_0_5_1;sdf;keypress(Space);response;1256.8;542047;542033.6;542050.2;543307;543316;2023-06-16T11:40:53Z;544053.26;NULL;NA;NA;NA;NA;NA;NA;NA;sdf;NA;5;NA;NA;NA;NA;NA;NA;NA;NA;NA;NA;NA;NA;NA;NA;NA;NA;NA;NA;NA;;;;
f2dbe;check;continue;flow.Sequence;3_0_5;NA;NA;completion;73633.78;469672;469672.84;469673.22;543307;543316;2023-06-16T11:40:53Z;544053.26;NULL;NA;NA;NA;NA;NA;NA;NA;sdf;NA;5;NA;NA;NA;NA;NA;NA;NA;NA;NA;NA;NA;NA;NA;NA;NA;NA;NA;NA;NA;;;
f2dbe;check;continue;flow.Sequence;3_0_6;NA;NA;skipped;NA;543377;NA;NA;543307;543378;2023-06-16T11:40:53Z;544053.26;NULL;NA;NA;NA;NA;NA;NA;NA;dfs;NA;6;NA;NA;NA;NA;NA;NA;NA;NA;NA;NA;NA;NA;NA;NA;NA;NA;NA;NA;NA;;;
f2dbe;check;continue;flow.Sequence;3_0_7;NA;NA;skipped;NA;543412;NA;NA;543307;543412;2023-06-16T11:40:53Z;544053.26;NULL;NA;NA;NA;NA;NA;NA;NA;df;NA;7;NA;NA;NA;NA;NA;NA;NA;NA;NA;NA;NA;NA;NA;NA;NA;NA;NA;NA;NA;;;
f2dbe;check;continue;flow.Sequence;3_0_8;NA;NA;skipped;NA;543444;NA;NA;543307;543445;2023-06-16T11:40:53Z;544053.26;NULL;NA;NA;NA;NA;NA;NA;NA;dfs;NA;8;NA;NA;NA;NA;NA;NA;NA;NA;NA;NA;NA;NA;NA;NA;NA;NA;NA;NA;NA;;;
f2dbe;check;continue;flow.Sequence;3_0_9;NA;NA;skipped;NA;543479;NA;NA;543307;543480;2023-06-16T11:40:53Z;544053.26;NULL;NA;NA;NA;NA;NA;NA;NA;dsf;NA;9;NA;NA;NA;NA;NA;NA;NA;NA;NA;NA;NA;NA;NA;NA;NA;NA;NA;NA;NA;;;
f2dbe;check;continue;flow.Sequence;3_0_10;NA;NA;skipped;NA;543509;NA;NA;543307;543509;2023-06-16T11:40:53Z;544053.26;NULL;NA;NA;NA;NA;NA;NA;NA;df;NA;10;NA;NA;NA;NA;NA;NA;NA;NA;NA;NA;NA;NA;NA;NA;NA;NA;NA;NA;NA;;;
f2dbe;check;continue;flow.Sequence;3_0_11;NA;NA;skipped;NA;543539;NA;NA;543307;543539;2023-06-16T11:40:54Z;544053.26;NULL;NA;NA;NA;NA;NA;NA;NA;dfs;NA;11;NA;NA;NA;NA;NA;NA;NA;NA;NA;NA;NA;NA;NA;NA;NA;NA;NA;NA;NA;;;
f2dbe;check;continue;flow.Sequence;3_0_12;NA;NA;skipped;NA;543567;NA;NA;543307;543567;2023-06-16T11:40:54Z;544053.26;NULL;NA;NA;NA;NA;NA;NA;NA;dsf;NA;12;NA;NA;NA;NA;NA;NA;NA;NA;NA;NA;NA;NA;NA;NA;NA;NA;NA;NA;NA;;;
f2dbe;check;continue;flow.Sequence;3_0_13;NA;NA;skipped;NA;543595;NA;NA;543307;543595;2023-06-16T11:40:54Z;544053.26;NULL;NA;NA;NA;NA;NA;NA;NA;dsf;NA;13;NA;NA;NA;NA;NA;NA;NA;NA;NA;NA;NA;NA;NA;NA;NA;NA;NA;NA;NA;;;
f2dbe;check;continue;flow.Sequence;3_0_14;NA;NA;skipped;NA;543631;NA;NA;543307;543631;2023-06-16T11:40:54Z;544053.26;NULL;NA;NA;NA;NA;NA;NA;NA;NA;NA;14;NA;NA;NA;NA;NA;NA;NA;NA;NA;NA;NA;NA;NA;NA;NA;NA;NA;NA;NA;;;
f2dbe;check;continue;flow.Sequence;3_0_15;NA;NA;skipped;NA;543658;NA;NA;543307;543658;2023-06-16T11:40:54Z;544053.26;NULL;NA;NA;NA;NA;NA;NA;NA;NA;NA;15;NA;NA;NA;NA;NA;NA;NA;NA;NA;NA;NA;NA;NA;NA;NA;NA;NA;NA;NA;;;
f2dbe;check;continue;flow.Sequence;3_0_16;NA;NA;skipped;NA;543685;NA;NA;543307;543685;2023-06-16T11:40:54Z;544053.26;NULL;NA;NA;NA;NA;NA;NA;NA;NA;NA;16;NA;NA;NA;NA;NA;NA;NA;NA;NA;NA;NA;NA;NA;NA;NA;NA;NA;NA;NA;;;
f2dbe;check;continue;flow.Sequence;3_0_17;NA;NA;skipped;NA;543715;NA;NA;543307;543715;2023-06-16T11:40:54Z;544053.26;NULL;NA;NA;NA;NA;NA;NA;NA;NA;NA;17;NA;NA;NA;NA;NA;NA;NA;NA;NA;NA;NA;NA;NA;NA;NA;NA;NA;NA;NA;;;
f2dbe;check;continue;flow.Sequence;3_0_18;NA;NA;skipped;NA;543741;NA;NA;543307;543741;2023-06-16T11:40:54Z;544053.26;NULL;NA;NA;NA;NA;NA;NA;NA;NA;NA;18;NA;NA;NA;NA;NA;NA;NA;NA;NA;NA;NA;NA;NA;NA;NA;NA;NA;NA;NA;;;
f2dbe;check;continue;flow.Sequence;3_0_19;NA;NA;skipped;NA;543770;NA;NA;543307;543770;2023-06-16T11:40:54Z;544053.26;NULL;NA;NA;NA;NA;NA;NA;NA;NA;NA;19;NA;NA;NA;NA;NA;NA;NA;NA;NA;NA;NA;NA;NA;NA;NA;NA;NA;NA;NA;;;
f2dbe;check;continue;flow.Sequence;3_0_20;NA;NA;skipped;NA;543796;NA;NA;543307;543796;2023-06-16T11:40:54Z;544053.26;NULL;NA;NA;NA;NA;NA;NA;NA;NA;NA;20;NA;NA;NA;NA;NA;NA;NA;NA;NA;NA;NA;NA;NA;NA;NA;NA;NA;NA;NA;;;
f2dbe;check;continue;flow.Sequence;3_0_21;NA;NA;skipped;NA;543826;NA;NA;543307;543826;2023-06-16T11:40:54Z;544053.26;NULL;NA;NA;NA;NA;NA;NA;NA;NA;NA;21;NA;NA;NA;NA;NA;NA;NA;NA;NA;NA;NA;NA;NA;NA;NA;NA;NA;NA;NA;;;
f2dbe;check;continue;flow.Sequence;3_0_22;NA;NA;skipped;NA;543856;NA;NA;543307;543856;2023-06-16T11:40:54Z;544053.26;NULL;NA;NA;NA;NA;NA;NA;NA;NA;NA;22;NA;NA;NA;NA;NA;NA;NA;NA;NA;NA;NA;NA;NA;NA;NA;NA;NA;NA;NA;;;
f2dbe;check;continue;flow.Sequence;3_0_23;NA;NA;skipped;NA;543883;NA;NA;543307;543883;2023-06-16T11:40:54Z;544053.26;NULL;NA;NA;NA;NA;NA;NA;NA;NA;NA;23;NA;NA;NA;NA;NA;NA;NA;NA;NA;NA;NA;NA;NA;NA;NA;NA;NA;NA;NA;;;
f2dbe;check;continue;flow.Sequence;3_0_24;NA;NA;skipped;NA;543913;NA;NA;543307;543913;2023-06-16T11:40:54Z;544053.26;NULL;NA;NA;NA;NA;NA;NA;NA;NA;NA;24;NA;NA;NA;NA;NA;NA;NA;NA;NA;NA;NA;NA;NA;NA;NA;NA;NA;NA;NA;;;
f2dbe;check;continue;flow.Sequence;3_0_25;NA;NA;skipped;NA;543940;NA;NA;543307;543940;2023-06-16T11:40:54Z;544053.26;NULL;NA;NA;NA;NA;NA;NA;NA;NA;NA;25;NA;NA;NA;NA;NA;NA;NA;NA;NA;NA;NA;NA;NA;NA;NA;NA;NA;NA;NA;;;
f2dbe;check;continue;flow.Sequence;3_0_26;NA;NA;skipped;NA;543967;NA;NA;543307;543967;2023-06-16T11:40:54Z;544053.26;NULL;NA;NA;NA;NA;NA;NA;NA;NA;NA;26;NA;NA;NA;NA;NA;NA;NA;NA;NA;NA;NA;NA;NA;NA;NA;NA;NA;NA;NA;;;
f2dbe;check;continue;flow.Sequence;3_0_27;NA;NA;skipped;NA;543999;NA;NA;543307;543999;2023-06-16T11:40:54Z;544053.26;NULL;NA;NA;NA;NA;NA;NA;NA;NA;NA;27;NA;NA;NA;NA;NA;NA;NA;NA;NA;NA;NA;NA;NA;NA;NA;NA;NA;NA;NA;;;
f2dbe;check;continue;flow.Sequence;3_0_28;NA;NA;skipped;NA;544025;NA;NA;543307;544025;2023-06-16T11:40:54Z;544053.26;NULL;NA;NA;NA;NA;NA;NA;NA;NA;NA;28;NA;NA;NA;NA;NA;NA;NA;NA;NA;NA;NA;NA;NA;NA;NA;NA;NA;NA;NA;;;
f2dbe;check;continue;flow.Sequence;3_0_29;NA;NA;skipped;NA;544052;NA;NA;543307;544052;2023-06-16T11:40:54Z;544053.26;NULL;NA;NA;NA;NA;NA;NA;NA;NA;NA;29;NA;NA;NA;NA;NA;NA;NA;NA;NA;NA;NA;NA;NA;NA;NA;NA;NA;NA;NA;;;
f2dbe;until;continue;flow.Loop;3_0;NA;NA;completion;461929.68;81337;81377;81377.32;543307;544052;2023-06-16T11:40:54Z;544053.26;NULL;NA;NA;NA;NA;NA;NA;NA;NA;NA;NA;NA;NA;NA;NA;NA;NA;NA;NA;NA;NA;NA;NA;NA;NA;NA;NA;NA;NA;NA;;;
f2dbe;block;1;flow.Sequence;3;NA;NA;completion;461929.68;81337;81377;81377.32;543307;544053;2023-06-16T11:40:54Z;544053.26;NULL;NA;NA;NA;NA;NA;NA;NA;NA;NA;NA;NA;NA;NA;NA;NA;NA;NA;NA;NA;NA;NA;NA;NA;NA;NA;NA;NA;NA;NA;;;
f2dbe;1.Part;Over;canvas.Screen;4;NA;keypress(Space);response;236.74;544053;544052.92;544053.26;544290;544297;2023-06-16T11:40:54Z;544367.34;NULL;NA;NA;NA;NA;NA;NA;NA;NA;NA;NA;NA;NA;NA;NA;NA;NA;NA;NA;NA;NA;NA;NA;NA;NA;NA;NA;NA;NA;NA;;;
f2dbe;deep;flow.Sequence;5_0_0_0_0_0;NA;NA;skipped;NA;544366;NA;NA;544290;544366;2023-06-16T11:40:54Z;544367.34;NULL;Sympathie;mapendano;s;dhamiria;fungamano;maazimio;NA;sdf;NA;0;NA;NA;NA;NA;NA;NA;NA;NA;NA;NA;NA;NA;NA;NA;NA;NA;NA;NA;NA;;;;
f2dbe;Shallow;Question;html.Page;5_0_0_0_0_1_0;NA;NA;form;submission;5070.66;544367;544367.06;544367.34;549438;549439;2023-06-16T11:40:59Z;549438.14;NULL;Sympathie;mapendano;s;dhamiria;fungamano;maazimio;dhamiria;NA;NA;0;NA;NA;NA;NA;NA;NA;NA;NA;NA;NA;NA;NA;NA;NA;NA;NA;NA;NA;NA;;
f2dbe;"""Richtig""-Screen";canvas.Screen;5_0_0_0_0_1_1;NA;NA;skipped;NA;549440;NA;NA;549438;549440;2023-06-16T11:40:59Z;549438.14;NULL;Sympathie;mapendano;s;dhamiria;fungamano;maazimio;NA;sdf;NA;0;NA;NA;NA;NA;NA;NA;NA;NA;NA;NA;NA;NA;NA;NA;NA;NA;NA;NA;NA;;;;
f2dbe;"""Falsch""-Screen";canvas.Screen;5_0_0_0_0_1_2;NA;NA;timeout;4993.82;549442;549437.86;549438.14;554415.3;554417;2023-06-16T11:41:04Z;554431.96;NULL;Sympathie;mapendano;s;dhamiria;fungamano;maazimio;NA;sdf;0;0;NA;NA;NA;NA;NA;NA;NA;NA;NA;NA;NA;NA;NA;NA;NA;NA;NA;NA;NA;;;;
f2dbe;shallow;flow.Sequence;5_0_0_0_0_1;NA;NA;completion;10047.96;544367;544367.06;544367.34;554415.3;554418;2023-06-16T11:41:04Z;554431.96;NULL;Sympathie;mapendano;s;dhamiria;fungamano;maazimio;NA;sdf;NA;0;NA;NA;NA;NA;NA;NA;NA;NA;NA;NA;NA;NA;NA;NA;NA;NA;NA;NA;NA;;;;
f2dbe;task;flow.Sequence;5_0_0_0_0;NA;NA;completion;10047.96;544366;544367.06;544367.34;554415.3;554418;2023-06-16T11:41:04Z;554431.96;NULL;Sympathie;mapendano;s;dhamiria;fungamano;maazimio;NA;sdf;NA;0;NA;NA;NA;NA;NA;NA;NA;NA;NA;NA;NA;NA;NA;NA;NA;NA;NA;NA;NA;;;;
f2dbe;deep;flow.Sequence;5_0_0_0_1_0;NA;NA;skipped;NA;554419;NA;NA;554415.3;554419;2023-06-16T11:41:04Z;554431.96;NULL;Toleranz;kuvumiliana;s;maombolezo;ujasusi;mchekeshaji;NA;sdf;NA;0;NA;NA;NA;NA;NA;NA;NA;NA;NA;NA;NA;NA;NA;NA;NA;NA;NA;NA;NA;;;;
f2dbe;Shallow;Question;html.Page;5_0_0_0_1_1_0;NA;NA;form;submission;6157.04;554420;554415.3;554431.96;560589;560589;2023-06-16T11:41:11Z;560588;NULL;Toleranz;kuvumiliana;s;maombolezo;ujasusi;mchekeshaji;mchekeshaji;NA;NA;0;NA;NA;NA;NA;NA;NA;NA;NA;NA;NA;NA;NA;NA;NA;NA;NA;NA;NA;NA;;
f2dbe;"""Richtig""-Screen";canvas.Screen;5_0_0_0_1_1_1;NA;NA;skipped;NA;560591;NA;NA;560589;560591;2023-06-16T11:41:11Z;560588;NULL;Toleranz;kuvumiliana;s;maombolezo;ujasusi;mchekeshaji;NA;sdf;NA;0;NA;NA;NA;NA;NA;NA;NA;NA;NA;NA;NA;NA;NA;NA;NA;NA;NA;NA;NA;;;;
f2dbe;"""Falsch""-Screen";canvas.Screen;5_0_0_0_1_1_2;NA;NA;timeout;4992.56;560594;560587.7;560588;565563.88;565565;2023-06-16T11:41:16Z;565580.56;NULL;Toleranz;kuvumiliana;s;maombolezo;ujasusi;mchekeshaji;NA;sdf;0;0;NA;NA;NA;NA;NA;NA;NA;NA;NA;NA;NA;NA;NA;NA;NA;NA;NA;NA;NA;;;;
f2dbe;shallow;flow.Sequence;5_0_0_0_1_1;NA;NA;completion;11131.92;554420;554415.3;554431.96;565563.88;565566;2023-06-16T11:41:16Z;565580.56;NULL;Toleranz;kuvumiliana;s;maombolezo;ujasusi;mchekeshaji;NA;sdf;NA;0;NA;NA;NA;NA;NA;NA;NA;NA;NA;NA;NA;NA;NA;NA;NA;NA;NA;NA;NA;;;;
f2dbe;task;flow.Sequence;5_0_0_0_1;NA;NA;completion;11131.92;554419;554415.3;554431.96;565563.88;565566;2023-06-16T11:41:16Z;565580.56;NULL;Toleranz;kuvumiliana;s;maombolezo;ujasusi;mchekeshaji;NA;sdf;NA;0;NA;NA;NA;NA;NA;NA;NA;NA;NA;NA;NA;NA;NA;NA;NA;NA;NA;NA;NA;;;;
f2dbe;Deep;Question;html.Page;5_0_0_0_2_0_0;NA;NA;form;submission;3084.44;565566;565563.88;565580.56;568665;568665;2023-06-16T11:41:19Z;568665.06;NULL;Vermutung;udhanifu;d;NA;NA;NA;dfljas;NA;NA;0;NA;NA;NA;NA;NA;NA;NA;NA;NA;NA;NA;NA;NA;NA;NA;NA;NA;NA;NA;;
f2dbe;"""Richtig""-Screen";canvas.Screen;5_0_0_0_2_0_1;NA;NA;skipped;NA;568667;NA;NA;568665;568667;2023-06-16T11:41:19Z;568665.06;NULL;Vermutung;udhanifu;d;NA;NA;NA;NA;sdf;NA;0;NA;NA;NA;NA;NA;NA;NA;NA;NA;NA;NA;NA;NA;NA;NA;NA;NA;NA;NA;;;;
f2dbe;"""Falsch""-Screen";canvas.Screen;5_0_0_0_2_0_2;NA;NA;timeout;4997.76;568670;568664.12;568665.06;573646.16;573651;2023-06-16T11:41:24Z;573662.82;NULL;Vermutung;udhanifu;d;NA;NA;NA;NA;sdf;0;0;NA;NA;NA;NA;NA;NA;NA;NA;NA;NA;NA;NA;NA;NA;NA;NA;NA;NA;NA;;;;
f2dbe;deep;flow.Sequence;5_0_0_0_2_0;NA;NA;completion;8065.6;565566;565563.88;565580.56;573646.16;573653;2023-06-16T11:41:24Z;573662.82;NULL;Vermutung;udhanifu;d;NA;NA;NA;NA;sdf;NA;0;NA;NA;NA;NA;NA;NA;NA;NA;NA;NA;NA;NA;NA;NA;NA;NA;NA;NA;NA;;;;
f2dbe;shallow;flow.Sequence;5_0_0_0_2_1;NA;NA;skipped;NA;573655;NA;NA;573646.16;573656;2023-06-16T11:41:24Z;573662.82;NULL;Vermutung;udhanifu;d;NA;NA;NA;NA;sdf;NA;0;NA;NA;NA;NA;NA;NA;NA;NA;NA;NA;NA;NA;NA;NA;NA;NA;NA;NA;NA;;;;
f2dbe;task;flow.Sequence;5_0_0_0_2;NA;NA;completion;8065.6;565566;565563.88;565580.56;573646.16;573657;2023-06-16T11:41:24Z;573662.82;NULL;Vermutung;udhanifu;d;NA;NA;NA;NA;sdf;NA;0;NA;NA;NA;NA;NA;NA;NA;NA;NA;NA;NA;NA;NA;NA;NA;NA;NA;NA;NA;;;;
f2dbe;Deep;Question;html.Page;5_0_0_0_3_0_0;NA;NA;form;submission;2989.18;573658;573646.16;573662.82;576652;576652;2023-06-16T11:41:27Z;576662.4;NULL;Polizist;msongora;d;NA;NA;NA;dfj;NA;NA;0;NA;NA;NA;NA;NA;NA;NA;NA;NA;NA;NA;NA;NA;NA;NA;NA;NA;NA;NA;;
