observation;sender;sender_type;sender_id;response;response_action;ended_on;duration;time_run;time_render;time_show;time_end;time_commit;timestamp;time_switch;german;swahili;enc;distractor1;distractor2;distractor3;response_2;x;correct;distractors;url_vp;url_sess;meta_labjs_version;meta_location;meta_user_agent;meta_platform;meta_language;meta_locale;meta_time_zone;meta_timezone_offset;meta_screen_width;meta_screen_height;meta_scroll_width;meta_scroll_height;meta_window_inner_width;meta_window_inner_height;meta_device_pixel_ratio;meta_labjs_build_flavor;meta_labjs_build_commit;;;;
054fb;Introduction;delayed;retrieval;canvas.Screen;0;weiter;keypress(Space);response;6967.676;633.9;628.378;645.224;7612.9;7614.6;2023-05-28T13:19:58Z;7622.497;NA;NA;NA;NA;NA;NA;NA;NA;NA;NULL;172;2;20.02.2004;https://neurocog.fernuni.ch/studies/vweber/sliechti/delayed/index.html?vp=172&sess=2;Mozilla/5.0 (Windows NT 10.0;;;;;;;;;;;;;;;;
054fb;Deep;Question;html.Page;1_0_0_0;NA;NA;form;submission;27854.403;7615.1;7606.225;7622.497;35476.9;35477.2;2023-05-28T13:20:26Z;35482.924;Genehmigung;idhini;s;mwanamke;itikadi;fedheha;öklj;NA;NA;NULL;NA;NA;NA;NA;NA;NA;NA;NA;NA;NA;NA;NA;NA;NA;NA;NA;NA;NA;NA;;
054fb;Save;data;screen;canvas.Screen;1_0_0_1;NA;NA;timeout;499.812;35478.9;35466.272;35482.924;35965.84;35966.9;2023-05-28T13:20:27Z;35982.736;Genehmigung;idhini;s;mwanamke;itikadi;fedheha;NA;NA;0;NULL;NA;NA;NA;NA;NA;NA;NA;NA;NA;NA;NA;NA;NA;NA;NA;NA;NA;NA;NA;;
054fb;deep;flow.Sequence;1_0_0;NA;NA;completion;28343.343;7615;7606.225;7622.497;35965.84;35967.3;2023-05-28T13:20:27Z;35982.736;Genehmigung;idhini;s;mwanamke;itikadi;fedheha;NA;NA;NA;NULL;NA;NA;NA;NA;NA;NA;NA;NA;NA;NA;NA;NA;NA;NA;NA;NA;NA;NA;NA;;;;
054fb;task;flow.Sequence;1_0;NA;NA;completion;28343.343;7615;7606.225;7622.497;35965.84;35967.5;2023-05-28T13:20:27Z;35982.736;Genehmigung;idhini;s;mwanamke;itikadi;fedheha;NA;NA;NA;NULL;NA;NA;NA;NA;NA;NA;NA;NA;NA;NA;NA;NA;NA;NA;NA;NA;NA;NA;NA;;;;
054fb;Deep;Question;html.Page;1_1_0_0;NA;NA;form;submission;5608.264;35967.8;35965.84;35982.736;41591;41591.2;2023-05-28T13:20:32Z;41594.498;Betrüger;mdanganyifu;s;mwanamuziki;wastani;mahakama;mdafangoyiu;NA;NA;NULL;NA;NA;NA;NA;NA;NA;NA;NA;NA;NA;NA;NA;NA;NA;NA;NA;NA;NA;NA;;
054fb;Save;data;screen;canvas.Screen;1_1_0_1;NA;NA;timeout;499.985;41592.6;41577.695;41594.498;42077.782;42078.4;2023-05-28T13:20:33Z;42094.483;Betrüger;mdanganyifu;s;mwanamuziki;wastani;mahakama;NA;NA;0;NULL;NA;NA;NA;NA;NA;NA;NA;NA;NA;NA;NA;NA;NA;NA;NA;NA;NA;NA;NA;;
054fb;deep;flow.Sequence;1_1_0;NA;NA;completion;6095.046;35967.7;35965.84;35982.736;42077.782;42078.5;2023-05-28T13:20:33Z;42094.483;Betrüger;mdanganyifu;s;mwanamuziki;wastani;mahakama;NA;NA;NA;NULL;NA;NA;NA;NA;NA;NA;NA;NA;NA;NA;NA;NA;NA;NA;NA;NA;NA;NA;NA;;;;
054fb;task;flow.Sequence;1_1;NA;NA;completion;6095.046;35967.6;35965.84;35982.736;42077.782;42078.6;2023-05-28T13:20:33Z;42094.483;Betrüger;mdanganyifu;s;mwanamuziki;wastani;mahakama;NA;NA;NA;NULL;NA;NA;NA;NA;NA;NA;NA;NA;NA;NA;NA;NA;NA;NA;NA;NA;NA;NA;NA;;;;
054fb;Deep;Question;html.Page;1_2_0_0;NA;NA;form;submission;6016.017;42078.7;42077.782;42094.483;48110.5;48110.8;2023-05-28T13:20:39Z;48122.431;Erneuerung;ukarabati;d;ushawishi;ukalifu;unyonyaji;ohinli;NA;NA;NULL;NA;NA;NA;NA;NA;NA;NA;NA;NA;NA;NA;NA;NA;NA;NA;NA;NA;NA;NA;;
054fb;Save;data;screen;canvas.Screen;1_2_0_1;NA;NA;timeout;499.851;48112.2;48105.993;48122.431;48605.569;48606.5;2023-05-28T13:20:39Z;48622.282;Erneuerung;ukarabati;d;ushawishi;ukalifu;unyonyaji;NA;NA;0;NULL;NA;NA;NA;NA;NA;NA;NA;NA;NA;NA;NA;NA;NA;NA;NA;NA;NA;NA;NA;;
054fb;deep;flow.Sequence;1_2_0;NA;NA;completion;6511.086;42078.7;42077.782;42094.483;48605.569;48606.8;2023-05-28T13:20:39Z;48622.282;Erneuerung;ukarabati;d;ushawishi;ukalifu;unyonyaji;NA;NA;NA;NULL;NA;NA;NA;NA;NA;NA;NA;NA;NA;NA;NA;NA;NA;NA;NA;NA;NA;NA;NA;;;;
054fb;task;flow.Sequence;1_2;NA;NA;completion;6511.086;42078.6;42077.782;42094.483;48605.569;48606.9;2023-05-28T13:20:39Z;48622.282;Erneuerung;ukarabati;d;ushawishi;ukalifu;unyonyaji;NA;NA;NA;NULL;NA;NA;NA;NA;NA;NA;NA;NA;NA;NA;NA;NA;NA;NA;NA;NA;NA;NA;NA;;;;
054fb;Deep;Question;html.Page;1_3_0_0;NA;NA;form;submission;5302.118;48607.1;48605.569;48622.282;53924.4;53924.6;2023-05-28T13:20:45Z;53934.301;Respekt;heshima;d;changamnao;upinzani;ufanisi;heshima;NA;NA;NULL;NA;NA;NA;NA;NA;NA;NA;NA;NA;NA;NA;NA;NA;NA;NA;NA;NA;NA;NA;;
054fb;Save;data;screen;canvas.Screen;1_3_0_1;NA;NA;timeout;500.069;53926.2;53918.049;53934.301;54417.675;54418.7;2023-05-28T13:20:45Z;54434.37;Respekt;heshima;d;changamnao;upinzani;ufanisi;NA;NA;1;NULL;NA;NA;NA;NA;NA;NA;NA;NA;NA;NA;NA;NA;NA;NA;NA;NA;NA;NA;NA;;
054fb;deep;flow.Sequence;1_3_0;NA;NA;completion;5795.393;48607.1;48605.569;48622.282;54417.675;54418.9;2023-05-28T13:20:45Z;54434.37;Respekt;heshima;d;changamnao;upinzani;ufanisi;NA;NA;NA;NULL;NA;NA;NA;NA;NA;NA;NA;NA;NA;NA;NA;NA;NA;NA;NA;NA;NA;NA;NA;;;;
054fb;task;flow.Sequence;1_3;NA;NA;completion;5795.393;48607;48605.569;48622.282;54417.675;54419;2023-05-28T13:20:45Z;54434.37;Respekt;heshima;d;changamnao;upinzani;ufanisi;NA;NA;NA;NULL;NA;NA;NA;NA;NA;NA;NA;NA;NA;NA;NA;NA;NA;NA;NA;NA;NA;NA;NA;;;;
054fb;Deep;Question;html.Page;1_4_0_0;NA;NA;form;submission;5079.23;54419.2;54417.675;54434.37;59513.6;59513.8;2023-05-28T13:20:50Z;59546.362;Niveau;kiwango;d;usimamizi;mwamali;mshairi;katamandu;NA;NA;NULL;NA;NA;NA;NA;NA;NA;NA;NA;NA;NA;NA;NA;NA;NA;NA;NA;NA;NA;NA;;
054fb;Save;data;screen;canvas.Screen;1_4_0_1;NA;NA;timeout;500.038;59515.3;59529.778;59546.362;60029.524;60030.4;2023-05-28T13:20:51Z;60046.4;Niveau;kiwango;d;usimamizi;mwamali;mshairi;NA;NA;0;NULL;NA;NA;NA;NA;NA;NA;NA;NA;NA;NA;NA;NA;NA;NA;NA;NA;NA;NA;NA;;
054fb;deep;flow.Sequence;1_4_0;NA;NA;completion;5595.154;54419.2;54417.675;54434.37;60029.524;60030.7;2023-05-28T13:20:51Z;60046.4;Niveau;kiwango;d;usimamizi;mwamali;mshairi;NA;NA;NA;NULL;NA;NA;NA;NA;NA;NA;NA;NA;NA;NA;NA;NA;NA;NA;NA;NA;NA;NA;NA;;;;
054fb;task;flow.Sequence;1_4;NA;NA;completion;5595.154;54419.1;54417.675;54434.37;60029.524;60030.8;2023-05-28T13:20:51Z;60046.4;Niveau;kiwango;d;usimamizi;mwamali;mshairi;NA;NA;NA;NULL;NA;NA;NA;NA;NA;NA;NA;NA;NA;NA;NA;NA;NA;NA;NA;NA;NA;NA;NA;;;;
054fb;Deep;Question;html.Page;1_5_0_0;NA;NA;form;submission;7859.3;60031;60029.524;60046.4;67905.7;67906;2023-05-28T13:20:59Z;67925.36;Stimmung;kinyongo;s;kilekile;kisambo;madhehebu;mshangoyu;NA;NA;NULL;NA;NA;NA;NA;NA;NA;NA;NA;NA;NA;NA;NA;NA;NA;NA;NA;NA;NA;NA;;
054fb;Save;data;screen;canvas.Screen;1_5_0_1;NA;NA;timeout;497.502;67907.5;67889.62;67925.36;68406.192;68407.2;2023-05-28T13:20:59Z;68422.862;Stimmung;kinyongo;s;kilekile;kisambo;madhehebu;NA;NA;0;NULL;NA;NA;NA;NA;NA;NA;NA;NA;NA;NA;NA;NA;NA;NA;NA;NA;NA;NA;NA;;
054fb;deep;flow.Sequence;1_5_0;NA;NA;completion;8359.792;60030.9;60029.524;60046.4;68406.192;68407.5;2023-05-28T13:20:59Z;68422.862;Stimmung;kinyongo;s;kilekile;kisambo;madhehebu;NA;NA;NA;NULL;NA;NA;NA;NA;NA;NA;NA;NA;NA;NA;NA;NA;NA;NA;NA;NA;NA;NA;NA;;;;
054fb;task;flow.Sequence;1_5;NA;NA;completion;8359.792;60030.9;60029.524;60046.4;68406.192;68407.6;2023-05-28T13:20:59Z;68422.862;Stimmung;kinyongo;s;kilekile;kisambo;madhehebu;NA;NA;NA;NULL;NA;NA;NA;NA;NA;NA;NA;NA;NA;NA;NA;NA;NA;NA;NA;NA;NA;NA;NA;;;;
054fb;Deep;Question;html.Page;1_6_0_0;NA;NA;form;submission;2371.238;68407.8;68406.192;68422.862;70794.1;70794.2;2023-05-28T13:21:01Z;70803.771;Integrität;uadilifu;d;muungano;mtiririko;upunguaji;kjö;NA;NA;NULL;NA;NA;NA;NA;NA;NA;NA;NA;NA;NA;NA;NA;NA;NA;NA;NA;NA;NA;NA;;
054fb;Save;data;screen;canvas.Screen;1_6_0_1;NA;NA;timeout;499.825;70794.7;70787.435;70803.771;71287.031;71292.5;2023-05-28T13:21:02Z;71303.596;Integrität;uadilifu;d;muungano;mtiririko;upunguaji;NA;NA;0;NULL;NA;NA;NA;NA;NA;NA;NA;NA;NA;NA;NA;NA;NA;NA;NA;NA;NA;NA;NA;;
054fb;deep;flow.Sequence;1_6_0;NA;NA;completion;2864.169;68407.8;68406.192;68422.862;71287.031;71292.8;2023-05-28T13:21:02Z;71303.596;Integrität;uadilifu;d;muungano;mtiririko;upunguaji;NA;NA;NA;NULL;NA;NA;NA;NA;NA;NA;NA;NA;NA;NA;NA;NA;NA;NA;NA;NA;NA;NA;NA;;;;
054fb;task;flow.Sequence;1_6;NA;NA;completion;2864.169;68407.8;68406.192;68422.862;71287.031;71293.1;2023-05-28T13:21:02Z;71303.596;Integrität;uadilifu;d;muungano;mtiririko;upunguaji;NA;NA;NA;NULL;NA;NA;NA;NA;NA;NA;NA;NA;NA;NA;NA;NA;NA;NA;NA;NA;NA;NA;NA;;;;
054fb;Deep;Question;html.Page;1_7_0_0;NA;NA;form;submission;3569.604;71293.2;71287.031;71303.596;74873.2;74873.4;2023-05-28T13:21:05Z;74883.769;Papier;karatasi;d;uchambuzi;usalama;kukataliwa;kartasi;NA;NA;NULL;NA;NA;NA;NA;NA;NA;NA;NA;NA;NA;NA;NA;NA;NA;NA;NA;NA;NA;NA;;
054fb;Save;data;screen;canvas.Screen;1_7_0_1;NA;NA;timeout;499.811;74874.7;74867.458;74883.769;75367.133;75368.1;2023-05-28T13:21:06Z;75383.58;Papier;karatasi;d;uchambuzi;usalama;kukataliwa;NA;NA;0;NULL;NA;NA;NA;NA;NA;NA;NA;NA;NA;NA;NA;NA;NA;NA;NA;NA;NA;NA;NA;;
054fb;deep;flow.Sequence;1_7_0;NA;NA;completion;4063.537;71293.1;71287.031;71303.596;75367.133;75368.4;2023-05-28T13:21:06Z;75383.58;Papier;karatasi;d;uchambuzi;usalama;kukataliwa;NA;NA;NA;NULL;NA;NA;NA;NA;NA;NA;NA;NA;NA;NA;NA;NA;NA;NA;NA;NA;NA;NA;NA;;;;
054fb;task;flow.Sequence;1_7;NA;NA;completion;4063.537;71293.1;71287.031;71303.596;75367.133;75368.5;2023-05-28T13:21:06Z;75383.58;Papier;karatasi;d;uchambuzi;usalama;kukataliwa;NA;NA;NA;NULL;NA;NA;NA;NA;NA;NA;NA;NA;NA;NA;NA;NA;NA;NA;NA;NA;NA;NA;NA;;;;
054fb;Deep;Question;html.Page;1_8_0_0;NA;NA;form;submission;3291.22;75368.6;75367.133;75383.58;78674.8;78675;2023-05-28T13:21:09Z;78680.742;Fleisch;mshakiki;d;kizunguzungu;mshikamano;angusho;mshakiki;NA;NA;NULL;NA;NA;NA;NA;NA;NA;NA;NA;NA;NA;NA;NA;NA;NA;NA;NA;NA;NA;NA;;
054fb;Save;data;screen;canvas.Screen;1_8_0_1;NA;NA;timeout;499.946;78676.3;78664.392;78680.742;79164.025;79165;2023-05-28T13:21:10Z;79180.688;Fleisch;mshakiki;d;kizunguzungu;mshikamano;angusho;NA;NA;1;NULL;NA;NA;NA;NA;NA;NA;NA;NA;NA;NA;NA;NA;NA;NA;NA;NA;NA;NA;NA;;
054fb;deep;flow.Sequence;1_8_0;NA;NA;completion;3780.445;75368.6;75367.133;75383.58;79164.025;79165.3;2023-05-28T13:21:10Z;79180.688;Fleisch;mshakiki;d;kizunguzungu;mshikamano;angusho;NA;NA;NA;NULL;NA;NA;NA;NA;NA;NA;NA;NA;NA;NA;NA;NA;NA;NA;NA;NA;NA;NA;NA;;;;
054fb;task;flow.Sequence;1_8;NA;NA;completion;3780.445;75368.6;75367.133;75383.58;79164.025;79165.4;2023-05-28T13:21:10Z;79180.688;Fleisch;mshakiki;d;kizunguzungu;mshikamano;angusho;NA;NA;NA;NULL;NA;NA;NA;NA;NA;NA;NA;NA;NA;NA;NA;NA;NA;NA;NA;NA;NA;NA;NA;;;;
054fb;Deep;Question;html.Page;1_9_0_0;NA;NA;form;submission;8288.412;79165.6;79164.025;79180.688;87469.1;87469.4;2023-05-28T13:21:18Z;87473.514;Vorwurf;mashtaka;s;msukumo;mtangulizi;uenyekiti;mshataka;NA;NA;NULL;NA;NA;NA;NA;NA;NA;NA;NA;NA;NA;NA;NA;NA;NA;NA;NA;NA;NA;NA;;
054fb;Save;data;screen;canvas.Screen;1_9_0_1;NA;NA;timeout;499.933;87470.9;87457.086;87473.514;87956.784;87957.8;2023-05-28T13:21:19Z;87973.447;Vorwurf;mashtaka;s;msukumo;mtangulizi;uenyekiti;NA;NA;0;NULL;NA;NA;NA;NA;NA;NA;NA;NA;NA;NA;NA;NA;NA;NA;NA;NA;NA;NA;NA;;
054fb;deep;flow.Sequence;1_9_0;NA;NA;completion;8776.096;79165.6;79164.025;79180.688;87956.784;87958;2023-05-28T13:21:19Z;87973.447;Vorwurf;mashtaka;s;msukumo;mtangulizi;uenyekiti;NA;NA;NA;NULL;NA;NA;NA;NA;NA;NA;NA;NA;NA;NA;NA;NA;NA;NA;NA;NA;NA;NA;NA;;;;
054fb;task;flow.Sequence;1_9;NA;NA;completion;8776.096;79165.5;79164.025;79180.688;87956.784;87958.1;2023-05-28T13:21:19Z;87973.447;Vorwurf;mashtaka;s;msukumo;mtangulizi;uenyekiti;NA;NA;NA;NULL;NA;NA;NA;NA;NA;NA;NA;NA;NA;NA;NA;NA;NA;NA;NA;NA;NA;NA;NA;;;;
054fb;Deep;Question;html.Page;1_10_0_0;NA;NA;form;submission;4643.953;87958.4;87956.784;87973.447;92617.4;92617.6;2023-05-28T13:21:23Z;92619.334;Atmosphäre;angahewa;s;kuteseka;usahihi;kutoamini;angehewa;NA;NA;NULL;NA;NA;NA;NA;NA;NA;NA;NA;NA;NA;NA;NA;NA;NA;NA;NA;NA;NA;NA;;
054fb;Save;data;screen;canvas.Screen;1_10_0_1;NA;NA;timeout;499.893;92619;92602.691;92619.334;93102.562;93103.5;2023-05-28T13:21:24Z;93119.227;Atmosphäre;angahewa;s;kuteseka;usahihi;kutoamini;NA;NA;0;NULL;NA;NA;NA;NA;NA;NA;NA;NA;NA;NA;NA;NA;NA;NA;NA;NA;NA;NA;NA;;
054fb;deep;flow.Sequence;1_10_0;NA;NA;completion;5129.115;87958.3;87956.784;87973.447;93102.562;93103.8;2023-05-28T13:21:24Z;93119.227;Atmosphäre;angahewa;s;kuteseka;usahihi;kutoamini;NA;NA;NA;NULL;NA;NA;NA;NA;NA;NA;NA;NA;NA;NA;NA;NA;NA;NA;NA;NA;NA;NA;NA;;;;
054fb;task;flow.Sequence;1_10;NA;NA;completion;5129.115;87958.3;87956.784;87973.447;93102.562;93104;2023-05-28T13:21:24Z;93119.227;Atmosphäre;angahewa;s;kuteseka;usahihi;kutoamini;NA;NA;NA;NULL;NA;NA;NA;NA;NA;NA;NA;NA;NA;NA;NA;NA;NA;NA;NA;NA;NA;NA;NA;;;;
054fb;Deep;Question;html.Page;1_11_0_0;NA;NA;form;submission;1639.473;93104.1;93102.562;93119.227;94758.7;94758.8;2023-05-28T13:21:25Z;94767.398;Flexibilität;kubadilika;s;enjini;usikilivu;hesabu;fdfj;NA;NA;NULL;NA;NA;NA;NA;NA;NA;NA;NA;NA;NA;NA;NA;NA;NA;NA;NA;NA;NA;NA;;
054fb;Save;data;screen;canvas.Screen;1_11_0_1;NA;NA;timeout;499.776;94759.3;94744.806;94767.398;95250.669;95251.6;2023-05-28T13:21:26Z;95267.174;Flexibilität;kubadilika;s;enjini;usikilivu;hesabu;NA;NA;0;NULL;NA;NA;NA;NA;NA;NA;NA;NA;NA;NA;NA;NA;NA;NA;NA;NA;NA;NA;NA;;
054fb;deep;flow.Sequence;1_11_0;NA;NA;completion;2131.442;93104.1;93102.562;93119.227;95250.669;95251.9;2023-05-28T13:21:26Z;95267.174;Flexibilität;kubadilika;s;enjini;usikilivu;hesabu;NA;NA;NA;NULL;NA;NA;NA;NA;NA;NA;NA;NA;NA;NA;NA;NA;NA;NA;NA;NA;NA;NA;NA;;;;
054fb;task;flow.Sequence;1_11;NA;NA;completion;2131.442;93104.1;93102.562;93119.227;95250.669;95252.1;2023-05-28T13:21:26Z;95267.174;Flexibilität;kubadilika;s;enjini;usikilivu;hesabu;NA;NA;NA;NULL;NA;NA;NA;NA;NA;NA;NA;NA;NA;NA;NA;NA;NA;NA;NA;NA;NA;NA;NA;;;;
054fb;Deep;Question;html.Page;1_12_0_0;NA;NA;form;submission;5280.326;95252.3;95250.669;95267.174;100547.5;100547.7;2023-05-28T13:21:31Z;100562.699;Begegnung;kukutana;s;mmasihiya;mpiganaji;husiano;kolajoijik;NA;NA;NULL;NA;NA;NA;NA;NA;NA;NA;NA;NA;NA;NA;NA;NA;NA;NA;NA;NA;NA;NA;;
054fb;Save;data;screen;canvas.Screen;1_12_0_1;NA;NA;timeout;500.033;100549.2;100546.541;100562.699;101046.032;101046.9;2023-05-28T13:21:32Z;101062.732;Begegnung;kukutana;s;mmasihiya;mpiganaji;husiano;NA;NA;0;NULL;NA;NA;NA;NA;NA;NA;NA;NA;NA;NA;NA;NA;NA;NA;NA;NA;NA;NA;NA;;
054fb;deep;flow.Sequence;1_12_0;NA;NA;completion;5778.858;95252.2;95250.669;95267.174;101046.032;101047.3;2023-05-28T13:21:32Z;101062.732;Begegnung;kukutana;s;mmasihiya;mpiganaji;husiano;NA;NA;NA;NULL;NA;NA;NA;NA;NA;NA;NA;NA;NA;NA;NA;NA;NA;NA;NA;NA;NA;NA;NA;;;;
054fb;task;flow.Sequence;1_12;NA;NA;completion;5778.858;95252.2;95250.669;95267.174;101046.032;101047.4;2023-05-28T13:21:32Z;101062.732;Begegnung;kukutana;s;mmasihiya;mpiganaji;husiano;NA;NA;NA;NULL;NA;NA;NA;NA;NA;NA;NA;NA;NA;NA;NA;NA;NA;NA;NA;NA;NA;NA;NA;;;;
054fb;Deep;Question;html.Page;1_13_0_0;NA;NA;form;submission;2334.168;101047.6;101046.032;101062.732;103396.9;103397.2;2023-05-28T13:21:34Z;103410.409;Orientierung;urekebisho;d;uelekeo;marekebisho;utunzaji;fdsfa;NA;NA;NULL;NA;NA;NA;NA;NA;NA;NA;NA;NA;NA;NA;NA;NA;NA;NA;NA;NA;NA;NA;;
054fb;Save;data;screen;canvas.Screen;1_13_0_1;NA;NA;timeout;499.661;103397.5;103393.739;103410.409;103893.455;103894.3;2023-05-28T13:21:34Z;103910.07;Orientierung;urekebisho;d;uelekeo;marekebisho;utunzaji;NA;NA;0;NULL;NA;NA;NA;NA;NA;NA;NA;NA;NA;NA;NA;NA;NA;NA;NA;NA;NA;NA;NA;;
054fb;deep;flow.Sequence;1_13_0;NA;NA;completion;2830.723;101047.6;101046.032;101062.732;103893.455;103894.5;2023-05-28T13:21:34Z;103910.07;Orientierung;urekebisho;d;uelekeo;marekebisho;utunzaji;NA;NA;NA;NULL;NA;NA;NA;NA;NA;NA;NA;NA;NA;NA;NA;NA;NA;NA;NA;NA;NA;NA;NA;;;;
054fb;task;flow.Sequence;1_13;NA;NA;completion;2830.723;101047.5;101046.032;101062.732;103893.455;103894.6;2023-05-28T13:21:34Z;103910.07;Orientierung;urekebisho;d;uelekeo;marekebisho;utunzaji;NA;NA;NA;NULL;NA;NA;NA;NA;NA;NA;NA;NA;NA;NA;NA;NA;NA;NA;NA;NA;NA;NA;NA;;;;
054fb;Deep;Question;html.Page;1_14_0_0;NA;NA;form;submission;2127.53;103894.8;103893.455;103910.07;106037.6;106037.7;2023-05-28T13:21:37Z;106041.518;Entwicklung;maendeleo;s;uangavu;mshindwa;badiliko;fjödljf;NA;NA;NULL;NA;NA;NA;NA;NA;NA;NA;NA;NA;NA;NA;NA;NA;NA;NA;NA;NA;NA;NA;;
054fb;Save;data;screen;canvas.Screen;1_14_0_1;NA;NA;timeout;499.671;106039;106024.94;106041.518;106524.868;106525.9;2023-05-28T13:21:37Z;106541.189;Entwicklung;maendeleo;s;uangavu;mshindwa;badiliko;NA;NA;0;NULL;NA;NA;NA;NA;NA;NA;NA;NA;NA;NA;NA;NA;NA;NA;NA;NA;NA;NA;NA;;
054fb;deep;flow.Sequence;1_14_0;NA;NA;completion;2614.798;103894.8;103893.455;103910.07;106524.868;106526.1;2023-05-28T13:21:37Z;106541.189;Entwicklung;maendeleo;s;uangavu;mshindwa;badiliko;NA;NA;NA;NULL;NA;NA;NA;NA;NA;NA;NA;NA;NA;NA;NA;NA;NA;NA;NA;NA;NA;NA;NA;;;;
054fb;task;flow.Sequence;1_14;NA;NA;completion;2614.798;103894.8;103893.455;103910.07;106524.868;106526.3;2023-05-28T13:21:37Z;106541.189;Entwicklung;maendeleo;s;uangavu;mshindwa;badiliko;NA;NA;NA;NULL;NA;NA;NA;NA;NA;NA;NA;NA;NA;NA;NA;NA;NA;NA;NA;NA;NA;NA;NA;;;;
054fb;Deep;Question;html.Page;1_15_0_0;NA;NA;form;submission;3921.111;106526.5;106524.868;106541.189;110462.3;110462.5;2023-05-28T13:21:41Z;110471.179;Wechsel;ugeuzaji;d;utambulisho;kujenga;wasiwasi;lkjads;NA;NA;NULL;NA;NA;NA;NA;NA;NA;NA;NA;NA;NA;NA;NA;NA;NA;NA;NA;NA;NA;NA;;
054fb;Save;data;screen;canvas.Screen;1_15_0_1;NA;NA;timeout;499.775;110464;110445.35;110471.179;110954.437;110955.4;2023-05-28T13:21:42Z;110970.954;Wechsel;ugeuzaji;d;utambulisho;kujenga;wasiwasi;NA;NA;0;NULL;NA;NA;NA;NA;NA;NA;NA;NA;NA;NA;NA;NA;NA;NA;NA;NA;NA;NA;NA;;
054fb;deep;flow.Sequence;1_15_0;NA;NA;completion;4413.248;106526.4;106524.868;106541.189;110954.437;110955.8;2023-05-28T13:21:42Z;110970.954;Wechsel;ugeuzaji;d;utambulisho;kujenga;wasiwasi;NA;NA;NA;NULL;NA;NA;NA;NA;NA;NA;NA;NA;NA;NA;NA;NA;NA;NA;NA;NA;NA;NA;NA;;;;
054fb;task;flow.Sequence;1_15;NA;NA;completion;4413.248;106526.4;106524.868;106541.189;110954.437;110956;2023-05-28T13:21:42Z;110970.954;Wechsel;ugeuzaji;d;utambulisho;kujenga;wasiwasi;NA;NA;NA;NULL;NA;NA;NA;NA;NA;NA;NA;NA;NA;NA;NA;NA;NA;NA;NA;NA;NA;NA;NA;;;;
054fb;retrieval;block;1;(cued;recall);flow.Loop;1;NA;NA;completion;103331.94;7614.9;7606.225;7622.497;110954.437;110956.1;2023-05-28T13:21:42Z;110970.954;NA;NA;NA;NA;NA;NA;NA;NA;NA;NULL;NA;NA;NA;NA;NA;NA;NA;NA;NA;NA;NA;NA;NA;NA;NA;NA;NA;NA;NA
054fb;Shallow;Question;html.Page;2_0_0_0;NA;NA;form;submission;3204.746;110956.3;110954.437;110970.954;114175.7;114175.9;2023-05-28T13:21:45Z;114184.97;Betrüger;mdanganyifu;s;mwanamuziki;wastani;mahakama;mdanganyifu;NA;NA;"c(""distractor1"", ""distractor2"", ""distractor3"")";NA;NA;NA;NA;NA;NA;NA;NA;NA;NA;NA;NA;NA;NA;NA;NA;NA;NA;NA;;
054fb;Save;data;screen;canvas.Screen;2_0_0_1;NA;NA;timeout;499.836;114176.8;114168.468;114184.97;114668.165;114669.2;2023-05-28T13:21:45Z;114684.806;Betrüger;mdanganyifu;s;mwanamuziki;wastani;mahakama;NA;NA;1;"c(""distractor1"", ""distractor2"", ""distractor3"")";NA;NA;NA;NA;NA;NA;NA;NA;NA;NA;NA;NA;NA;NA;NA;NA;NA;NA;NA;;
054fb;shallow;flow.Sequence;2_0_0;NA;NA;completion;3697.211;110956.2;110954.437;110970.954;114668.165;114669.5;2023-05-28T13:21:45Z;114684.806;Betrüger;mdanganyifu;s;mwanamuziki;wastani;mahakama;NA;NA;NA;"c(""distractor1"", ""distractor2"", ""distractor3"")";NA;NA;NA;NA;NA;NA;NA;NA;NA;NA;NA;NA;NA;NA;NA;NA;NA;NA;NA;;;;
054fb;task;flow.Sequence;2_0;NA;NA;completion;3697.211;110956.2;110954.437;110970.954;114668.165;114669.7;2023-05-28T13:21:45Z;114684.806;Betrüger;mdanganyifu;s;mwanamuziki;wastani;mahakama;NA;NA;NA;"c(""distractor1"", ""distractor2"", ""distractor3"")";NA;NA;NA;NA;NA;NA;NA;NA;NA;NA;NA;NA;NA;NA;NA;NA;NA;NA;NA;;;;
054fb;Shallow;Question;html.Page;2_1_0_0;NA;NA;form;submission;3514.794;114669.9;114668.165;114684.806;118199.6;118199.8;2023-05-28T13:21:49Z;118215.097;Wechsel;ugeuzaji;d;utambulisho;kujenga;wasiwasi;ugeuzaji;NA;NA;"c(""distractor1"", ""distractor2"", ""distractor3"")";NA;NA;NA;NA;NA;NA;NA;NA;NA;NA;NA;NA;NA;NA;NA;NA;NA;NA;NA;;
054fb;Save;data;screen;canvas.Screen;2_1_0_1;NA;NA;timeout;499.632;118201.1;118183.223;118215.097;118697.903;118699.1;2023-05-28T13:21:49Z;118714.729;Wechsel;ugeuzaji;d;utambulisho;kujenga;wasiwasi;NA;NA;1;"c(""distractor1"", ""distractor2"", ""distractor3"")";NA;NA;NA;NA;NA;NA;NA;NA;NA;NA;NA;NA;NA;NA;NA;NA;NA;NA;NA;;
054fb;shallow;flow.Sequence;2_1_0;NA;NA;completion;4013.097;114669.9;114668.165;114684.806;118697.903;118699.3;2023-05-28T13:21:49Z;118714.729;Wechsel;ugeuzaji;d;utambulisho;kujenga;wasiwasi;NA;NA;NA;"c(""distractor1"", ""distractor2"", ""distractor3"")";NA;NA;NA;NA;NA;NA;NA;NA;NA;NA;NA;NA;NA;NA;NA;NA;NA;NA;NA;;;;
054fb;task;flow.Sequence;2_1;NA;NA;completion;4013.097;114669.8;114668.165;114684.806;118697.903;118699.6;2023-05-28T13:21:49Z;118714.729;Wechsel;ugeuzaji;d;utambulisho;kujenga;wasiwasi;NA;NA;NA;"c(""distractor1"", ""distractor2"", ""distractor3"")";NA;NA;NA;NA;NA;NA;NA;NA;NA;NA;NA;NA;NA;NA;NA;NA;NA;NA;NA;;;;
054fb;Shallow;Question;html.Page;2_2_0_0;NA;NA;form;submission;13923.471;118699.8;118697.903;118714.729;132638.2;132638.5;2023-05-28T13:22:03Z;132653.024;Flexibilität;kubadilika;s;enjini;usikilivu;hesabu;kubadilika;NA;NA;"c(""distractor1"", ""distractor2"", ""distractor3"")";NA;NA;NA;NA;NA;NA;NA;NA;NA;NA;NA;NA;NA;NA;NA;NA;NA;NA;NA;;
054fb;Save;data;screen;canvas.Screen;2_2_0_1;NA;NA;timeout;499.839;132640.1;132620.913;132653.024;133136.334;133137.3;2023-05-28T13:22:04Z;133152.863;Flexibilität;kubadilika;s;enjini;usikilivu;hesabu;NA;NA;1;"c(""distractor1"", ""distractor2"", ""distractor3"")";NA;NA;NA;NA;NA;NA;NA;NA;NA;NA;NA;NA;NA;NA;NA;NA;NA;NA;NA;;
054fb;shallow;flow.Sequence;2_2_0;NA;NA;completion;14421.605;118699.8;118697.903;118714.729;133136.334;133137.5;2023-05-28T13:22:04Z;133152.863;Flexibilität;kubadilika;s;enjini;usikilivu;hesabu;NA;NA;NA;"c(""distractor1"", ""distractor2"", ""distractor3"")";NA;NA;NA;NA;NA;NA;NA;NA;NA;NA;NA;NA;NA;NA;NA;NA;NA;NA;NA;;;;
054fb;task;flow.Sequence;2_2;NA;NA;completion;14421.605;118699.8;118697.903;118714.729;133136.334;133137.7;2023-05-28T13:22:04Z;133152.863;Flexibilität;kubadilika;s;enjini;usikilivu;hesabu;NA;NA;NA;"c(""distractor1"", ""distractor2"", ""distractor3"")";NA;NA;NA;NA;NA;NA;NA;NA;NA;NA;NA;NA;NA;NA;NA;NA;NA;NA;NA;;;;
054fb;Shallow;Question;html.Page;2_3_0_0;NA;NA;form;submission;6301.637;133137.9;133136.334;133152.863;139454.5;139454.7;2023-05-28T13:22:10Z;139464.173;Erneuerung;ukarabati;d;ushawishi;ukalifu;unyonyaji;ukarabati;NA;NA;"c(""distractor1"", ""distractor2"", ""distractor3"")";NA;NA;NA;NA;NA;NA;NA;NA;NA;NA;NA;NA;NA;NA;NA;NA;NA;NA;NA;;
054fb;Save;data;screen;canvas.Screen;2_3_0_1;NA;NA;timeout;499.875;139456.2;139446.57;139464.173;139947.388;139948.4;2023-05-28T13:22:11Z;139964.048;Erneuerung;ukarabati;d;ushawishi;ukalifu;unyonyaji;NA;NA;1;"c(""distractor1"", ""distractor2"", ""distractor3"")";NA;NA;NA;NA;NA;NA;NA;NA;NA;NA;NA;NA;NA;NA;NA;NA;NA;NA;NA;;
054fb;shallow;flow.Sequence;2_3_0;NA;NA;completion;6794.525;133137.8;133136.334;133152.863;139947.388;139948.6;2023-05-28T13:22:11Z;139964.048;Erneuerung;ukarabati;d;ushawishi;ukalifu;unyonyaji;NA;NA;NA;"c(""distractor1"", ""distractor2"", ""distractor3"")";NA;NA;NA;NA;NA;NA;NA;NA;NA;NA;NA;NA;NA;NA;NA;NA;NA;NA;NA;;;;
054fb;task;flow.Sequence;2_3;NA;NA;completion;6794.525;133137.8;133136.334;133152.863;139947.388;139948.8;2023-05-28T13:22:11Z;139964.048;Erneuerung;ukarabati;d;ushawishi;ukalifu;unyonyaji;NA;NA;NA;"c(""distractor1"", ""distractor2"", ""distractor3"")";NA;NA;NA;NA;NA;NA;NA;NA;NA;NA;NA;NA;NA;NA;NA;NA;NA;NA;NA;;;;
054fb;Shallow;Question;html.Page;2_4_0_0;NA;NA;form;submission;5162.252;139948.9;139947.388;139964.048;145126.3;145126.5;2023-05-28T13:22:16Z;145143.976;Vorwurf;mashtaka;s;msukumo;mtangulizi;uenyekiti;mashtaka;NA;NA;"c(""distractor1"", ""distractor2"", ""distractor3"")";NA;NA;NA;NA;NA;NA;NA;NA;NA;NA;NA;NA;NA;NA;NA;NA;NA;NA;NA;;
054fb;Save;data;screen;canvas.Screen;2_4_0_1;NA;NA;timeout;498.729;145127.8;145109.582;145143.976;145626.053;145627;2023-05-28T13:22:16Z;145642.705;Vorwurf;mashtaka;s;msukumo;mtangulizi;uenyekiti;NA;NA;1;"c(""distractor1"", ""distractor2"", ""distractor3"")";NA;NA;NA;NA;NA;NA;NA;NA;NA;NA;NA;NA;NA;NA;NA;NA;NA;NA;NA;;
054fb;shallow;flow.Sequence;2_4_0;NA;NA;completion;5662.005;139948.9;139947.388;139964.048;145626.053;145627.4;2023-05-28T13:22:16Z;145642.705;Vorwurf;mashtaka;s;msukumo;mtangulizi;uenyekiti;NA;NA;NA;"c(""distractor1"", ""distractor2"", ""distractor3"")";NA;NA;NA;NA;NA;NA;NA;NA;NA;NA;NA;NA;NA;NA;NA;NA;NA;NA;NA;;;;
054fb;task;flow.Sequence;2_4;NA;NA;completion;5662.005;139948.9;139947.388;139964.048;145626.053;145627.6;2023-05-28T13:22:16Z;145642.705;Vorwurf;mashtaka;s;msukumo;mtangulizi;uenyekiti;NA;NA;NA;"c(""distractor1"", ""distractor2"", ""distractor3"")";NA;NA;NA;NA;NA;NA;NA;NA;NA;NA;NA;NA;NA;NA;NA;NA;NA;NA;NA;;;;
054fb;Shallow;Question;html.Page;2_5_0_0;NA;NA;form;submission;17475.795;145627.8;145626.053;145642.705;163118.5;163118.7;2023-05-28T13:22:34Z;163128.08;Entwicklung;maendeleo;s;uangavu;mshindwa;badiliko;badiliko;NA;NA;"c(""distractor1"", ""distractor2"", ""distractor3"")";NA;NA;NA;NA;NA;NA;NA;NA;NA;NA;NA;NA;NA;NA;NA;NA;NA;NA;NA;;
054fb;Save;data;screen;canvas.Screen;2_5_0_1;NA;NA;timeout;499.641;163120.3;163111.504;163128.08;163611.303;163612.1;2023-05-28T13:22:34Z;163627.721;Entwicklung;maendeleo;s;uangavu;mshindwa;badiliko;NA;NA;0;"c(""distractor1"", ""distractor2"", ""distractor3"")";NA;NA;NA;NA;NA;NA;NA;NA;NA;NA;NA;NA;NA;NA;NA;NA;NA;NA;NA;;
054fb;shallow;flow.Sequence;2_5_0;NA;NA;completion;17968.598;145627.7;145626.053;145642.705;163611.303;163612.4;2023-05-28T13:22:34Z;163627.721;Entwicklung;maendeleo;s;uangavu;mshindwa;badiliko;NA;NA;NA;"c(""distractor1"", ""distractor2"", ""distractor3"")";NA;NA;NA;NA;NA;NA;NA;NA;NA;NA;NA;NA;NA;NA;NA;NA;NA;NA;NA;;;;
054fb;task;flow.Sequence;2_5;NA;NA;completion;17968.598;145627.7;145626.053;145642.705;163611.303;163612.5;2023-05-28T13:22:34Z;163627.721;Entwicklung;maendeleo;s;uangavu;mshindwa;badiliko;NA;NA;NA;"c(""distractor1"", ""distractor2"", ""distractor3"")";NA;NA;NA;NA;NA;NA;NA;NA;NA;NA;NA;NA;NA;NA;NA;NA;NA;NA;NA;;;;
054fb;Shallow;Question;html.Page;2_6_0_0;NA;NA;form;submission;3826.779;163612.6;163611.303;163627.721;167454.5;167454.7;2023-05-28T13:22:38Z;167457.757;Niveau;kiwango;d;usimamizi;mwamali;mshairi;kiwango;NA;NA;"c(""distractor1"", ""distractor2"", ""distractor3"")";NA;NA;NA;NA;NA;NA;NA;NA;NA;NA;NA;NA;NA;NA;NA;NA;NA;NA;NA;;
054fb;Save;data;screen;canvas.Screen;2_6_0_1;NA;NA;timeout;499.951;167455.9;167441.842;167457.757;167941.049;167942;2023-05-28T13:22:39Z;167957.708;Niveau;kiwango;d;usimamizi;mwamali;mshairi;NA;NA;1;"c(""distractor1"", ""distractor2"", ""distractor3"")";NA;NA;NA;NA;NA;NA;NA;NA;NA;NA;NA;NA;NA;NA;NA;NA;NA;NA;NA;;
054fb;shallow;flow.Sequence;2_6_0;NA;NA;completion;4313.328;163612.6;163611.303;163627.721;167941.049;167942.2;2023-05-28T13:22:39Z;167957.708;Niveau;kiwango;d;usimamizi;mwamali;mshairi;NA;NA;NA;"c(""distractor1"", ""distractor2"", ""distractor3"")";NA;NA;NA;NA;NA;NA;NA;NA;NA;NA;NA;NA;NA;NA;NA;NA;NA;NA;NA;;;;
054fb;task;flow.Sequence;2_6;NA;NA;completion;4313.328;163612.6;163611.303;163627.721;167941.049;167942.3;2023-05-28T13:22:39Z;167957.708;Niveau;kiwango;d;usimamizi;mwamali;mshairi;NA;NA;NA;"c(""distractor1"", ""distractor2"", ""distractor3"")";NA;NA;NA;NA;NA;NA;NA;NA;NA;NA;NA;NA;NA;NA;NA;NA;NA;NA;NA;;;;
054fb;Shallow;Question;html.Page;2_7_0_0;NA;NA;form;submission;4336.292;167942.5;167941.049;167957.708;172294;172294.3;2023-05-28T13:22:43Z;172303.995;Orientierung;urekebisho;d;uelekeo;marekebisho;utunzaji;uelekeo;NA;NA;"c(""distractor1"", ""distractor2"", ""distractor3"")";NA;NA;NA;NA;NA;NA;NA;NA;NA;NA;NA;NA;NA;NA;NA;NA;NA;NA;NA;;
054fb;Save;data;screen;canvas.Screen;2_7_0_1;NA;NA;timeout;499.725;172295.7;172286.624;172303.995;172787.087;172788.3;2023-05-28T13:22:43Z;172803.72;Orientierung;urekebisho;d;uelekeo;marekebisho;utunzaji;NA;NA;0;"c(""distractor1"", ""distractor2"", ""distractor3"")";NA;NA;NA;NA;NA;NA;NA;NA;NA;NA;NA;NA;NA;NA;NA;NA;NA;NA;NA;;
054fb;shallow;flow.Sequence;2_7_0;NA;NA;completion;4829.379;167942.5;167941.049;167957.708;172787.087;172788.6;2023-05-28T13:22:43Z;172803.72;Orientierung;urekebisho;d;uelekeo;marekebisho;utunzaji;NA;NA;NA;"c(""distractor1"", ""distractor2"", ""distractor3"")";NA;NA;NA;NA;NA;NA;NA;NA;NA;NA;NA;NA;NA;NA;NA;NA;NA;NA;NA;;;;
054fb;task;flow.Sequence;2_7;NA;NA;completion;4829.379;167942.5;167941.049;167957.708;172787.087;172788.8;2023-05-28T13:22:43Z;172803.72;Orientierung;urekebisho;d;uelekeo;marekebisho;utunzaji;NA;NA;NA;"c(""distractor1"", ""distractor2"", ""distractor3"")";NA;NA;NA;NA;NA;NA;NA;NA;NA;NA;NA;NA;NA;NA;NA;NA;NA;NA;NA;;;;
054fb;Shallow;Question;html.Page;2_8_0_0;NA;NA;form;submission;14210.58;172788.9;172787.087;172803.72;187014.3;187014.6;2023-05-28T13:22:58Z;187025.287;Stimmung;kinyongo;s;kilekile;kisambo;madhehebu;kinyongo;NA;NA;"c(""distractor1"", ""distractor2"", ""distractor3"")";NA;NA;NA;NA;NA;NA;NA;NA;NA;NA;NA;NA;NA;NA;NA;NA;NA;NA;NA;;
054fb;Save;data;screen;canvas.Screen;2_8_0_1;NA;NA;timeout;499.441;187016.2;187008.713;187025.287;187508.289;187509.1;2023-05-28T13:22:58Z;187524.728;Stimmung;kinyongo;s;kilekile;kisambo;madhehebu;NA;NA;1;"c(""distractor1"", ""distractor2"", ""distractor3"")";NA;NA;NA;NA;NA;NA;NA;NA;NA;NA;NA;NA;NA;NA;NA;NA;NA;NA;NA;;
054fb;shallow;flow.Sequence;2_8_0;NA;NA;completion;14704.569;172788.9;172787.087;172803.72;187508.289;187509.3;2023-05-28T13:22:58Z;187524.728;Stimmung;kinyongo;s;kilekile;kisambo;madhehebu;NA;NA;NA;"c(""distractor1"", ""distractor2"", ""distractor3"")";NA;NA;NA;NA;NA;NA;NA;NA;NA;NA;NA;NA;NA;NA;NA;NA;NA;NA;NA;;;;
054fb;task;flow.Sequence;2_8;NA;NA;completion;14704.569;172788.8;172787.087;172803.72;187508.289;187509.5;2023-05-28T13:22:58Z;187524.728;Stimmung;kinyongo;s;kilekile;kisambo;madhehebu;NA;NA;NA;"c(""distractor1"", ""distractor2"", ""distractor3"")";NA;NA;NA;NA;NA;NA;NA;NA;NA;NA;NA;NA;NA;NA;NA;NA;NA;NA;NA;;;;
054fb;Shallow;Question;html.Page;2_9_0_0;NA;NA;form;submission;18563.372;187509.6;187508.289;187524.728;206088.1;206088.3;2023-05-28T13:23:17Z;206109.655;Atmosphäre;angahewa;s;kuteseka;usahihi;kutoamini;angahewa;NA;NA;"c(""distractor1"", ""distractor2"", ""distractor3"")";NA;NA;NA;NA;NA;NA;NA;NA;NA;NA;NA;NA;NA;NA;NA;NA;NA;NA;NA;;
054fb;Save;data;screen;canvas.Screen;2_9_0_1;NA;NA;timeout;499.615;206089.2;206092.673;206109.655;206592.518;206593.6;2023-05-28T13:23:17Z;206609.27;Atmosphäre;angahewa;s;kuteseka;usahihi;kutoamini;NA;NA;1;"c(""distractor1"", ""distractor2"", ""distractor3"")";NA;NA;NA;NA;NA;NA;NA;NA;NA;NA;NA;NA;NA;NA;NA;NA;NA;NA;NA;;
054fb;shallow;flow.Sequence;2_9_0;NA;NA;completion;19067.79;187509.5;187508.289;187524.728;206592.518;206593.8;2023-05-28T13:23:17Z;206609.27;Atmosphäre;angahewa;s;kuteseka;usahihi;kutoamini;NA;NA;NA;"c(""distractor1"", ""distractor2"", ""distractor3"")";NA;NA;NA;NA;NA;NA;NA;NA;NA;NA;NA;NA;NA;NA;NA;NA;NA;NA;NA;;;;
054fb;task;flow.Sequence;2_9;NA;NA;completion;19067.79;187509.5;187508.289;187524.728;206592.518;206594;2023-05-28T13:23:17Z;206609.27;Atmosphäre;angahewa;s;kuteseka;usahihi;kutoamini;NA;NA;NA;"c(""distractor1"", ""distractor2"", ""distractor3"")";NA;NA;NA;NA;NA;NA;NA;NA;NA;NA;NA;NA;NA;NA;NA;NA;NA;NA;NA;;;;
054fb;Shallow;Question;html.Page;2_10_0_0;NA;NA;form;submission;6109.13;206594.1;206592.518;206609.27;212718.4;212718.6;2023-05-28T13:23:23Z;212737.541;Begegnung;kukutana;s;mmasihiya;mpiganaji;husiano;kukutana;NA;NA;"c(""distractor1"", ""distractor2"", ""distractor3"")";NA;NA;NA;NA;NA;NA;NA;NA;NA;NA;NA;NA;NA;NA;NA;NA;NA;NA;NA;;
054fb;Save;data;screen;canvas.Screen;2_10_0_1;NA;NA;timeout;499.604;212720;212720.522;212737.541;213220.412;213221.5;2023-05-28T13:23:24Z;213237.145;Begegnung;kukutana;s;mmasihiya;mpiganaji;husiano;NA;NA;1;"c(""distractor1"", ""distractor2"", ""distractor3"")";NA;NA;NA;NA;NA;NA;NA;NA;NA;NA;NA;NA;NA;NA;NA;NA;NA;NA;NA;;
054fb;shallow;flow.Sequence;2_10_0;NA;NA;completion;6611.142;206594.1;206592.518;206609.27;213220.412;213221.8;2023-05-28T13:23:24Z;213237.145;Begegnung;kukutana;s;mmasihiya;mpiganaji;husiano;NA;NA;NA;"c(""distractor1"", ""distractor2"", ""distractor3"")";NA;NA;NA;NA;NA;NA;NA;NA;NA;NA;NA;NA;NA;NA;NA;NA;NA;NA;NA;;;;
054fb;task;flow.Sequence;2_10;NA;NA;completion;6611.142;206594;206592.518;206609.27;213220.412;213222;2023-05-28T13:23:24Z;213237.145;Begegnung;kukutana;s;mmasihiya;mpiganaji;husiano;NA;NA;NA;"c(""distractor1"", ""distractor2"", ""distractor3"")";NA;NA;NA;NA;NA;NA;NA;NA;NA;NA;NA;NA;NA;NA;NA;NA;NA;NA;NA;;;;
054fb;Shallow;Question;html.Page;2_11_0_0;NA;NA;form;submission;4673.155;213222.2;213220.412;213237.145;217910.3;217910.5;2023-05-28T13:23:29Z;217916.421;Genehmigung;idhini;s;mwanamke;itikadi;fedheha;idhini;NA;NA;"c(""distractor1"", ""distractor2"", ""distractor3"")";NA;NA;NA;NA;NA;NA;NA;NA;NA;NA;NA;NA;NA;NA;NA;NA;NA;NA;NA;;
054fb;Save;data;screen;canvas.Screen;2_11_0_1;NA;NA;timeout;499.605;217911.7;217899.845;217916.421;218399.262;218400.2;2023-05-28T13:23:29Z;218416.026;Genehmigung;idhini;s;mwanamke;itikadi;fedheha;NA;NA;1;"c(""distractor1"", ""distractor2"", ""distractor3"")";NA;NA;NA;NA;NA;NA;NA;NA;NA;NA;NA;NA;NA;NA;NA;NA;NA;NA;NA;;
054fb;shallow;flow.Sequence;2_11_0;NA;NA;completion;5162.117;213222.1;213220.412;213237.145;218399.262;218400.3;2023-05-28T13:23:29Z;218416.026;Genehmigung;idhini;s;mwanamke;itikadi;fedheha;NA;NA;NA;"c(""distractor1"", ""distractor2"", ""distractor3"")";NA;NA;NA;NA;NA;NA;NA;NA;NA;NA;NA;NA;NA;NA;NA;NA;NA;NA;NA;;;;
054fb;task;flow.Sequence;2_11;NA;NA;completion;5162.117;213222.1;213220.412;213237.145;218399.262;218400.6;2023-05-28T13:23:29Z;218416.026;Genehmigung;idhini;s;mwanamke;itikadi;fedheha;NA;NA;NA;"c(""distractor1"", ""distractor2"", ""distractor3"")";NA;NA;NA;NA;NA;NA;NA;NA;NA;NA;NA;NA;NA;NA;NA;NA;NA;NA;NA;;;;
054fb;Shallow;Question;html.Page;2_12_0_0;NA;NA;form;submission;3229.674;218400.7;218399.262;218416.026;221645.7;221645.9;2023-05-28T13:23:32Z;221663.533;Papier;karatasi;d;uchambuzi;usalama;kukataliwa;karatasi;NA;NA;"c(""distractor1"", ""distractor2"", ""distractor3"")";NA;NA;NA;NA;NA;NA;NA;NA;NA;NA;NA;NA;NA;NA;NA;NA;NA;NA;NA;;
054fb;Save;data;screen;canvas.Screen;2_12_0_1;NA;NA;timeout;499.597;221647.2;221646.604;221663.533;222146.479;222147.3;2023-05-28T13:23:33Z;222163.13;Papier;karatasi;d;uchambuzi;usalama;kukataliwa;NA;NA;1;"c(""distractor1"", ""distractor2"", ""distractor3"")";NA;NA;NA;NA;NA;NA;NA;NA;NA;NA;NA;NA;NA;NA;NA;NA;NA;NA;NA;;
054fb;shallow;flow.Sequence;2_12_0;NA;NA;completion;3730.453;218400.7;218399.262;218416.026;222146.479;222147.5;2023-05-28T13:23:33Z;222163.13;Papier;karatasi;d;uchambuzi;usalama;kukataliwa;NA;NA;NA;"c(""distractor1"", ""distractor2"", ""distractor3"")";NA;NA;NA;NA;NA;NA;NA;NA;NA;NA;NA;NA;NA;NA;NA;NA;NA;NA;NA;;;;
054fb;task;flow.Sequence;2_12;NA;NA;completion;3730.453;218400.6;218399.262;218416.026;222146.479;222147.7;2023-05-28T13:23:33Z;222163.13;Papier;karatasi;d;uchambuzi;usalama;kukataliwa;NA;NA;NA;"c(""distractor1"", ""distractor2"", ""distractor3"")";NA;NA;NA;NA;NA;NA;NA;NA;NA;NA;NA;NA;NA;NA;NA;NA;NA;NA;NA;;;;
054fb;Shallow;Question;html.Page;2_13_0_0;NA;NA;form;submission;3011.27;222147.9;222146.479;222163.13;225174.4;225174.6;2023-05-28T13:23:36Z;225176.959;Integrität;uadilifu;d;muungano;mtiririko;upunguaji;uadilifu;NA;NA;"c(""distractor1"", ""distractor2"", ""distractor3"")";NA;NA;NA;NA;NA;NA;NA;NA;NA;NA;NA;NA;NA;NA;NA;NA;NA;NA;NA;;
054fb;Save;data;screen;canvas.Screen;2_13_0_1;NA;NA;timeout;499.701;225176;225160.751;225176.959;225660.184;225661.4;2023-05-28T13:23:36Z;225676.66;Integrität;uadilifu;d;muungano;mtiririko;upunguaji;NA;NA;1;"c(""distractor1"", ""distractor2"", ""distractor3"")";NA;NA;NA;NA;NA;NA;NA;NA;NA;NA;NA;NA;NA;NA;NA;NA;NA;NA;NA;;
054fb;shallow;flow.Sequence;2_13_0;NA;NA;completion;3497.054;222147.8;222146.479;222163.13;225660.184;225661.7;2023-05-28T13:23:36Z;225676.66;Integrität;uadilifu;d;muungano;mtiririko;upunguaji;NA;NA;NA;"c(""distractor1"", ""distractor2"", ""distractor3"")";NA;NA;NA;NA;NA;NA;NA;NA;NA;NA;NA;NA;NA;NA;NA;NA;NA;NA;NA;;;;
054fb;task;flow.Sequence;2_13;NA;NA;completion;3497.054;222147.8;222146.479;222163.13;225660.184;225661.9;2023-05-28T13:23:36Z;225676.66;Integrität;uadilifu;d;muungano;mtiririko;upunguaji;NA;NA;NA;"c(""distractor1"", ""distractor2"", ""distractor3"")";NA;NA;NA;NA;NA;NA;NA;NA;NA;NA;NA;NA;NA;NA;NA;NA;NA;NA;NA;;;;
054fb;Shallow;Question;html.Page;2_14_0_0;NA;NA;form;submission;5057.64;225662;225660.184;225676.66;230734.3;230734.6;2023-05-28T13:23:41Z;230739.045;Respekt;heshima;d;changamnao;upinzani;ufanisi;heshima;NA;NA;"c(""distractor1"", ""distractor2"", ""distractor3"")";NA;NA;NA;NA;NA;NA;NA;NA;NA;NA;NA;NA;NA;NA;NA;NA;NA;NA;NA;;
054fb;Save;data;screen;canvas.Screen;2_14_0_1;NA;NA;timeout;499.692;230736;230722.718;230739.045;231222.042;231223;2023-05-28T13:23:42Z;231238.737;Respekt;heshima;d;changamnao;upinzani;ufanisi;NA;NA;1;"c(""distractor1"", ""distractor2"", ""distractor3"")";NA;NA;NA;NA;NA;NA;NA;NA;NA;NA;NA;NA;NA;NA;NA;NA;NA;NA;NA;;
054fb;shallow;flow.Sequence;2_14_0;NA;NA;completion;5545.382;225661.9;225660.184;225676.66;231222.042;231223.1;2023-05-28T13:23:42Z;231238.737;Respekt;heshima;d;changamnao;upinzani;ufanisi;NA;NA;NA;"c(""distractor1"", ""distractor2"", ""distractor3"")";NA;NA;NA;NA;NA;NA;NA;NA;NA;NA;NA;NA;NA;NA;NA;NA;NA;NA;NA;;;;
054fb;task;flow.Sequence;2_14;NA;NA;completion;5545.382;225661.9;225660.184;225676.66;231222.042;231223.3;2023-05-28T13:23:42Z;231238.737;Respekt;heshima;d;changamnao;upinzani;ufanisi;NA;NA;NA;"c(""distractor1"", ""distractor2"", ""distractor3"")";NA;NA;NA;NA;NA;NA;NA;NA;NA;NA;NA;NA;NA;NA;NA;NA;NA;NA;NA;;;;
054fb;Shallow;Question;html.Page;2_15_0_0;NA;NA;form;submission;2128.563;231223.5;231222.042;231238.737;233367.3;233367.6;2023-05-28T13:23:44Z;233370.195;Fleisch;mshakiki;d;kizunguzungu;mshikamano;angusho;mshakiki;NA;NA;"c(""distractor1"", ""distractor2"", ""distractor3"")";NA;NA;NA;NA;NA;NA;NA;NA;NA;NA;NA;NA;NA;NA;NA;NA;NA;NA;NA;;
054fb;Save;data;screen;canvas.Screen;2_15_0_1;NA;NA;timeout;499.992;233367.9;233353.928;233370.195;233853.543;233854.4;2023-05-28T13:23:44Z;233870.187;Fleisch;mshakiki;d;kizunguzungu;mshikamano;angusho;NA;NA;1;"c(""distractor1"", ""distractor2"", ""distractor3"")";NA;NA;NA;NA;NA;NA;NA;NA;NA;NA;NA;NA;NA;NA;NA;NA;NA;NA;NA;;
054fb;shallow;flow.Sequence;2_15_0;NA;NA;completion;2614.806;231223.4;231222.042;231238.737;233853.543;233854.6;2023-05-28T13:23:44Z;233870.187;Fleisch;mshakiki;d;kizunguzungu;mshikamano;angusho;NA;NA;NA;"c(""distractor1"", ""distractor2"", ""distractor3"")";NA;NA;NA;NA;NA;NA;NA;NA;NA;NA;NA;NA;NA;NA;NA;NA;NA;NA;NA;;;;
054fb;task;flow.Sequence;2_15;NA;NA;completion;2614.806;231223.4;231222.042;231238.737;233853.543;233854.7;2023-05-28T13:23:44Z;233870.187;Fleisch;mshakiki;d;kizunguzungu;mshikamano;angusho;NA;NA;NA;"c(""distractor1"", ""distractor2"", ""distractor3"")";NA;NA;NA;NA;NA;NA;NA;NA;NA;NA;NA;NA;NA;NA;NA;NA;NA;NA;NA;;;;
054fb;retrieval;block;2;(multiple;choice);flow.Loop;2;NA;NA;completion;122882.589;110956.1;110954.437;110970.954;233853.543;233854.9;2023-05-28T13:23:44Z;233870.187;NA;NA;NA;NA;NA;NA;NA;NA;NA;"c(""distractor1"", ""distractor2"", ""distractor3"")";NA;NA;NA;NA;NA;NA;NA;NA;NA;NA;NA;NA;NA;NA;NA;NA;NA;NA;NA
054fb;End;canvas.Screen;3;NA;keypress(Space);response;1631.513;233855;233853.543;233870.187;235501.7;235502.8;2023-05-28T13:23:46Z;235518.826;NA;NA;NA;NA;NA;NA;NA;NA;NA;NULL;NA;NA;NA;NA;NA;NA;NA;NA;NA;NA;NA;NA;NA;NA;NA;NA;NA;NA;NA;;;;
054fb;root;flow.Sequence;NA;NA;NA;completion;234856.476;633.7;628.378;645.224;235501.7;235503.3;2023-05-28T13:23:46Z;235518.826;NA;NA;NA;NA;NA;NA;NA;NA;NA;NULL;NA;NA;NA;NA;NA;NA;NA;NA;NA;NA;NA;NA;NA;NA;NA;NA;NA;NA;NA;;;;
5d66f;Introduction;delayed;retrieval;canvas.Screen;0;weiter;keypress(Space);response;15741.15;1046.9;1031.948;1065.25;16806.4;16809.3;2023-05-28T13:16:09Z;16818.973;NA;NA;NA;NA;NA;NA;NA;NA;NA;NULL;172;2;20.02.2004;https://neurocog.fernuni.ch/studies/vweber/sliechti/delayed/index.html?vp=172&sess=2;Mozilla/5.0 (Windows NT 10.0;;;;;;;;;;;;;;;;
5d66f;Deep;Question;html.Page;1_0_0_0;NA;NA;form;submission;5096.427;16809.8;16802.327;16818.973;21915.4;21915.5;2023-05-28T13:16:14Z;21931.479;Fleisch;mshakiki;d;kizunguzungu;mshikamano;angusho;mshakiki;NA;NA;NULL;NA;NA;NA;NA;NA;NA;NA;NA;NA;NA;NA;NA;NA;NA;NA;NA;NA;NA;NA;;
5d66f;Save;data;screen;canvas.Screen;1_0_0_1;NA;NA;timeout;499.602;21916.2;21898.512;21931.479;22414.726;22416.1;2023-05-28T13:16:15Z;22431.081;Fleisch;mshakiki;d;kizunguzungu;mshikamano;angusho;NA;NA;1;NULL;NA;NA;NA;NA;NA;NA;NA;NA;NA;NA;NA;NA;NA;NA;NA;NA;NA;NA;NA;;
5d66f;deep;flow.Sequence;1_0_0;NA;NA;completion;5595.753;16809.8;16802.327;16818.973;22414.726;22416.4;2023-05-28T13:16:15Z;22431.081;Fleisch;mshakiki;d;kizunguzungu;mshikamano;angusho;NA;NA;NA;NULL;NA;NA;NA;NA;NA;NA;NA;NA;NA;NA;NA;NA;NA;NA;NA;NA;NA;NA;NA;;;;
5d66f;task;flow.Sequence;1_0;NA;NA;completion;5595.753;16809.7;16802.327;16818.973;22414.726;22416.6;2023-05-28T13:16:15Z;22431.081;Fleisch;mshakiki;d;kizunguzungu;mshikamano;angusho;NA;NA;NA;NULL;NA;NA;NA;NA;NA;NA;NA;NA;NA;NA;NA;NA;NA;NA;NA;NA;NA;NA;NA;;;;
5d66f;Deep;Question;html.Page;1_1_0_0;NA;NA;form;submission;4866.719;22416.7;22414.726;22431.081;27297.8;27298.3;2023-05-28T13:16:20Z;27310.316;Entwicklung;maendeleo;s;uangavu;mshindwa;badiliko;utamandi;NA;NA;NULL;NA;NA;NA;NA;NA;NA;NA;NA;NA;NA;NA;NA;NA;NA;NA;NA;NA;NA;NA;;
5d66f;Save;data;screen;canvas.Screen;1_1_0_1;NA;NA;timeout;499.92;27298.9;27293.925;27310.316;27793.683;27794.8;2023-05-28T13:16:20Z;27810.236;Entwicklung;maendeleo;s;uangavu;mshindwa;badiliko;NA;NA;0;NULL;NA;NA;NA;NA;NA;NA;NA;NA;NA;NA;NA;NA;NA;NA;NA;NA;NA;NA;NA;;
5d66f;deep;flow.Sequence;1_1_0;NA;NA;completion;5362.602;22416.7;22414.726;22431.081;27793.683;27795.1;2023-05-28T13:16:20Z;27810.236;Entwicklung;maendeleo;s;uangavu;mshindwa;badiliko;NA;NA;NA;NULL;NA;NA;NA;NA;NA;NA;NA;NA;NA;NA;NA;NA;NA;NA;NA;NA;NA;NA;NA;;;;
5d66f;task;flow.Sequence;1_1;NA;NA;completion;5362.602;22416.6;22414.726;22431.081;27793.683;27795.4;2023-05-28T13:16:20Z;27810.236;Entwicklung;maendeleo;s;uangavu;mshindwa;badiliko;NA;NA;NA;NULL;NA;NA;NA;NA;NA;NA;NA;NA;NA;NA;NA;NA;NA;NA;NA;NA;NA;NA;NA;;;;
5d66f;Deep;Question;html.Page;1_2_0_0;NA;NA;form;submission;9033.864;27795.6;27793.683;27810.236;36844.1;36844.5;2023-05-28T13:16:29Z;36852.459;Papier;karatasi;d;uchambuzi;usalama;kukataliwa;katamandi;NA;NA;NULL;NA;NA;NA;NA;NA;NA;NA;NA;NA;NA;NA;NA;NA;NA;NA;NA;NA;NA;NA;;
5d66f;Save;data;screen;canvas.Screen;1_2_0_1;NA;NA;timeout;500.022;36845;36836.198;36852.459;37335.74;37337;2023-05-28T13:16:30Z;37352.481;Papier;karatasi;d;uchambuzi;usalama;kukataliwa;NA;NA;0;NULL;NA;NA;NA;NA;NA;NA;NA;NA;NA;NA;NA;NA;NA;NA;NA;NA;NA;NA;NA;;
5d66f;deep;flow.Sequence;1_2_0;NA;NA;completion;9525.504;27795.5;27793.683;27810.236;37335.74;37337.3;2023-05-28T13:16:30Z;37352.481;Papier;karatasi;d;uchambuzi;usalama;kukataliwa;NA;NA;NA;NULL;NA;NA;NA;NA;NA;NA;NA;NA;NA;NA;NA;NA;NA;NA;NA;NA;NA;NA;NA;;;;
5d66f;task;flow.Sequence;1_2;NA;NA;completion;9525.504;27795.4;27793.683;27810.236;37335.74;37337.6;2023-05-28T13:16:30Z;37352.481;Papier;karatasi;d;uchambuzi;usalama;kukataliwa;NA;NA;NA;NULL;NA;NA;NA;NA;NA;NA;NA;NA;NA;NA;NA;NA;NA;NA;NA;NA;NA;NA;NA;;;;
5d66f;Deep;Question;html.Page;1_3_0_0;NA;NA;form;submission;5867.319;37337.8;37335.74;37352.481;43219.8;43219.9;2023-05-28T13:16:36Z;43230.52;Vorwurf;mashtaka;s;msukumo;mtangulizi;uenyekiti;mshaezogu;NA;NA;NULL;NA;NA;NA;NA;NA;NA;NA;NA;NA;NA;NA;NA;NA;NA;NA;NA;NA;NA;NA;;
5d66f;Save;data;screen;canvas.Screen;1_3_0_1;NA;NA;timeout;500.063;43220.4;43213.995;43230.52;43713.83;43714.9;2023-05-28T13:16:36Z;43730.583;Vorwurf;mashtaka;s;msukumo;mtangulizi;uenyekiti;NA;NA;0;NULL;NA;NA;NA;NA;NA;NA;NA;NA;NA;NA;NA;NA;NA;NA;NA;NA;NA;NA;NA;;
5d66f;deep;flow.Sequence;1_3_0;NA;NA;completion;6361.349;37337.8;37335.74;37352.481;43713.83;43715.1;2023-05-28T13:16:36Z;43730.583;Vorwurf;mashtaka;s;msukumo;mtangulizi;uenyekiti;NA;NA;NA;NULL;NA;NA;NA;NA;NA;NA;NA;NA;NA;NA;NA;NA;NA;NA;NA;NA;NA;NA;NA;;;;
5d66f;task;flow.Sequence;1_3;NA;NA;completion;6361.349;37337.8;37335.74;37352.481;43713.83;43715.3;2023-05-28T13:16:36Z;43730.583;Vorwurf;mashtaka;s;msukumo;mtangulizi;uenyekiti;NA;NA;NA;NULL;NA;NA;NA;NA;NA;NA;NA;NA;NA;NA;NA;NA;NA;NA;NA;NA;NA;NA;NA;;;;
5d66f;Deep;Question;html.Page;1_4_0_0;NA;NA;form;submission;11618.017;43715.5;43713.83;43730.583;55348.6;55348.9;2023-05-28T13:16:48Z;55353.95;Betrüger;mdanganyifu;s;mwanamuziki;wastani;mahakama;mshabulizi;NA;NA;NULL;NA;NA;NA;NA;NA;NA;NA;NA;NA;NA;NA;NA;NA;NA;NA;NA;NA;NA;NA;;
5d66f;Save;data;screen;canvas.Screen;1_4_0_1;NA;NA;timeout;500.012;55349.3;55337.61;55353.95;55837.292;55838.4;2023-05-28T13:16:48Z;55853.962;Betrüger;mdanganyifu;s;mwanamuziki;wastani;mahakama;NA;NA;0;NULL;NA;NA;NA;NA;NA;NA;NA;NA;NA;NA;NA;NA;NA;NA;NA;NA;NA;NA;NA;;
5d66f;deep;flow.Sequence;1_4_0;NA;NA;completion;12106.709;43715.5;43713.83;43730.583;55837.292;55838.6;2023-05-28T13:16:48Z;55853.962;Betrüger;mdanganyifu;s;mwanamuziki;wastani;mahakama;NA;NA;NA;NULL;NA;NA;NA;NA;NA;NA;NA;NA;NA;NA;NA;NA;NA;NA;NA;NA;NA;NA;NA;;;;
5d66f;task;flow.Sequence;1_4;NA;NA;completion;12106.709;43715.5;43713.83;43730.583;55837.292;55838.8;2023-05-28T13:16:48Z;55853.962;Betrüger;mdanganyifu;s;mwanamuziki;wastani;mahakama;NA;NA;NA;NULL;NA;NA;NA;NA;NA;NA;NA;NA;NA;NA;NA;NA;NA;NA;NA;NA;NA;NA;NA;;;;
5d66f;Deep;Question;html.Page;1_5_0_0;NA;NA;form;submission;2447.238;55839;55837.292;55853.962;58301.2;58301.4;2023-05-28T13:16:51Z;58322.949;Orientierung;urekebisho;d;uelekeo;marekebisho;utunzaji;fökdj;NA;NA;NULL;NA;NA;NA;NA;NA;NA;NA;NA;NA;NA;NA;NA;NA;NA;NA;NA;NA;NA;NA;;
5d66f;Save;data;screen;canvas.Screen;1_5_0_1;NA;NA;timeout;495.147;58302.1;58284.971;58322.949;58801.443;58802.5;2023-05-28T13:16:51Z;58818.096;Orientierung;urekebisho;d;uelekeo;marekebisho;utunzaji;NA;NA;0;NULL;NA;NA;NA;NA;NA;NA;NA;NA;NA;NA;NA;NA;NA;NA;NA;NA;NA;NA;NA;;
5d66f;deep;flow.Sequence;1_5_0;NA;NA;completion;2947.481;55839;55837.292;55853.962;58801.443;58802.7;2023-05-28T13:16:51Z;58818.096;Orientierung;urekebisho;d;uelekeo;marekebisho;utunzaji;NA;NA;NA;NULL;NA;NA;NA;NA;NA;NA;NA;NA;NA;NA;NA;NA;NA;NA;NA;NA;NA;NA;NA;;;;
5d66f;task;flow.Sequence;1_5;NA;NA;completion;2947.481;55838.9;55837.292;55853.962;58801.443;58802.9;2023-05-28T13:16:51Z;58818.096;Orientierung;urekebisho;d;uelekeo;marekebisho;utunzaji;NA;NA;NA;NULL;NA;NA;NA;NA;NA;NA;NA;NA;NA;NA;NA;NA;NA;NA;NA;NA;NA;NA;NA;;;;
5d66f;Deep;Question;html.Page;1_6_0_0;NA;NA;form;submission;2437.204;58803.1;58801.443;58818.096;61255.3;61255.5;2023-05-28T13:16:54Z;61265.722;Genehmigung;idhini;s;mwanamke;itikadi;fedheha;jfdöklafj;NA;NA;NULL;NA;NA;NA;NA;NA;NA;NA;NA;NA;NA;NA;NA;NA;NA;NA;NA;NA;NA;NA;;
5d66f;Save;data;screen;canvas.Screen;1_6_0_1;NA;NA;timeout;500.053;61255.9;61249.25;61265.722;61749.121;61750.1;2023-05-28T13:16:54Z;61765.775;Genehmigung;idhini;s;mwanamke;itikadi;fedheha;NA;NA;0;NULL;NA;NA;NA;NA;NA;NA;NA;NA;NA;NA;NA;NA;NA;NA;NA;NA;NA;NA;NA;;
5d66f;deep;flow.Sequence;1_6_0;NA;NA;completion;2931.025;58803.1;58801.443;58818.096;61749.121;61750.4;2023-05-28T13:16:54Z;61765.775;Genehmigung;idhini;s;mwanamke;itikadi;fedheha;NA;NA;NA;NULL;NA;NA;NA;NA;NA;NA;NA;NA;NA;NA;NA;NA;NA;NA;NA;NA;NA;NA;NA;;;;
5d66f;task;flow.Sequence;1_6;NA;NA;completion;2931.025;58803.1;58801.443;58818.096;61749.121;61750.5;2023-05-28T13:16:54Z;61765.775;Genehmigung;idhini;s;mwanamke;itikadi;fedheha;NA;NA;NA;NULL;NA;NA;NA;NA;NA;NA;NA;NA;NA;NA;NA;NA;NA;NA;NA;NA;NA;NA;NA;;;;
5d66f;Deep;Question;html.Page;1_7_0_0;NA;NA;form;submission;16494.325;61750.7;61749.121;61765.775;78260.1;78260.4;2023-05-28T13:17:11Z;78268.506;Wechsel;ugeuzaji;d;utambulisho;kujenga;wasiwasi;ukata;NA;NA;NULL;NA;NA;NA;NA;NA;NA;NA;NA;NA;NA;NA;NA;NA;NA;NA;NA;NA;NA;NA;;
5d66f;Save;data;screen;canvas.Screen;1_7_0_1;NA;NA;timeout;499.645;78262.1;78251.899;78268.506;78751.485;78752.5;2023-05-28T13:17:11Z;78768.151;Wechsel;ugeuzaji;d;utambulisho;kujenga;wasiwasi;NA;NA;0;NULL;NA;NA;NA;NA;NA;NA;NA;NA;NA;NA;NA;NA;NA;NA;NA;NA;NA;NA;NA;;
5d66f;deep;flow.Sequence;1_7_0;NA;NA;completion;16985.71;61750.7;61749.121;61765.775;78751.485;78752.7;2023-05-28T13:17:11Z;78768.151;Wechsel;ugeuzaji;d;utambulisho;kujenga;wasiwasi;NA;NA;NA;NULL;NA;NA;NA;NA;NA;NA;NA;NA;NA;NA;NA;NA;NA;NA;NA;NA;NA;NA;NA;;;;
5d66f;task;flow.Sequence;1_7;NA;NA;completion;16985.71;61750.6;61749.121;61765.775;78751.485;78752.9;2023-05-28T13:17:11Z;78768.151;Wechsel;ugeuzaji;d;utambulisho;kujenga;wasiwasi;NA;NA;NA;NULL;NA;NA;NA;NA;NA;NA;NA;NA;NA;NA;NA;NA;NA;NA;NA;NA;NA;NA;NA;;;;
5d66f;Deep;Question;html.Page;1_8_0_0;NA;NA;form;submission;3849.249;78753.1;78751.485;78768.151;82617.4;82617.6;2023-05-28T13:17:15Z;82631.548;Flexibilität;kubadilika;s;enjini;usikilivu;hesabu;dkjf;NA;NA;NULL;NA;NA;NA;NA;NA;NA;NA;NA;NA;NA;NA;NA;NA;NA;NA;NA;NA;NA;NA;;
5d66f;Save;data;screen;canvas.Screen;1_8_0_1;NA;NA;timeout;499.973;82618.9;82615.035;82631.548;83114.855;83115.9;2023-05-28T13:17:15Z;83131.521;Flexibilität;kubadilika;s;enjini;usikilivu;hesabu;NA;NA;0;NULL;NA;NA;NA;NA;NA;NA;NA;NA;NA;NA;NA;NA;NA;NA;NA;NA;NA;NA;NA;;
5d66f;deep;flow.Sequence;1_8_0;NA;NA;completion;4346.704;78753;78751.485;78768.151;83114.855;83116.1;2023-05-28T13:17:15Z;83131.521;Flexibilität;kubadilika;s;enjini;usikilivu;hesabu;NA;NA;NA;NULL;NA;NA;NA;NA;NA;NA;NA;NA;NA;NA;NA;NA;NA;NA;NA;NA;NA;NA;NA;;;;
5d66f;task;flow.Sequence;1_8;NA;NA;completion;4346.704;78753;78751.485;78768.151;83114.855;83116.3;2023-05-28T13:17:15Z;83131.521;Flexibilität;kubadilika;s;enjini;usikilivu;hesabu;NA;NA;NA;NULL;NA;NA;NA;NA;NA;NA;NA;NA;NA;NA;NA;NA;NA;NA;NA;NA;NA;NA;NA;;;;
5d66f;Deep;Question;html.Page;1_9_0_0;NA;NA;form;submission;5255.679;83116.5;83114.855;83131.521;88387.2;88387.4;2023-05-28T13:17:21Z;88393.536;Begegnung;kukutana;s;mmasihiya;mpiganaji;husiano;shamandi;NA;NA;NULL;NA;NA;NA;NA;NA;NA;NA;NA;NA;NA;NA;NA;NA;NA;NA;NA;NA;NA;NA;;
5d66f;Save;data;screen;canvas.Screen;1_9_0_1;NA;NA;timeout;499.809;88389;88377.339;88393.536;88876.796;88877.7;2023-05-28T13:17:21Z;88893.345;Begegnung;kukutana;s;mmasihiya;mpiganaji;husiano;NA;NA;0;NULL;NA;NA;NA;NA;NA;NA;NA;NA;NA;NA;NA;NA;NA;NA;NA;NA;NA;NA;NA;;
5d66f;deep;flow.Sequence;1_9_0;NA;NA;completion;5745.275;83116.5;83114.855;83131.521;88876.796;88877.9;2023-05-28T13:17:21Z;88893.345;Begegnung;kukutana;s;mmasihiya;mpiganaji;husiano;NA;NA;NA;NULL;NA;NA;NA;NA;NA;NA;NA;NA;NA;NA;NA;NA;NA;NA;NA;NA;NA;NA;NA;;;;
5d66f;task;flow.Sequence;1_9;NA;NA;completion;5745.275;83116.4;83114.855;83131.521;88876.796;88878.1;2023-05-28T13:17:21Z;88893.345;Begegnung;kukutana;s;mmasihiya;mpiganaji;husiano;NA;NA;NA;NULL;NA;NA;NA;NA;NA;NA;NA;NA;NA;NA;NA;NA;NA;NA;NA;NA;NA;NA;NA;;;;
5d66f;Deep;Question;html.Page;1_10_0_0;NA;NA;form;submission;11760.955;88878.2;88876.796;88893.345;100654.3;100654.4;2023-05-28T13:17:33Z;100666.657;Atmosphäre;angahewa;s;kuteseka;usahihi;kutoamini;hengewa;NA;NA;NULL;NA;NA;NA;NA;NA;NA;NA;NA;NA;NA;NA;NA;NA;NA;NA;NA;NA;NA;NA;;
5d66f;Save;data;screen;canvas.Screen;1_10_0_1;NA;NA;timeout;499.744;100656;100650.338;100666.657;101149.644;101157.9;2023-05-28T13:17:33Z;101166.401;Atmosphäre;angahewa;s;kuteseka;usahihi;kutoamini;NA;NA;0;NULL;NA;NA;NA;NA;NA;NA;NA;NA;NA;NA;NA;NA;NA;NA;NA;NA;NA;NA;NA;;
5d66f;deep;flow.Sequence;1_10_0;NA;NA;completion;12256.299;88878.2;88876.796;88893.345;101149.644;101158.2;2023-05-28T13:17:33Z;101166.401;Atmosphäre;angahewa;s;kuteseka;usahihi;kutoamini;NA;NA;NA;NULL;NA;NA;NA;NA;NA;NA;NA;NA;NA;NA;NA;NA;NA;NA;NA;NA;NA;NA;NA;;;;
5d66f;task;flow.Sequence;1_10;NA;NA;completion;12256.299;88878.2;88876.796;88893.345;101149.644;101158.3;2023-05-28T13:17:33Z;101166.401;Atmosphäre;angahewa;s;kuteseka;usahihi;kutoamini;NA;NA;NA;NULL;NA;NA;NA;NA;NA;NA;NA;NA;NA;NA;NA;NA;NA;NA;NA;NA;NA;NA;NA;;;;
5d66f;Deep;Question;html.Page;1_11_0_0;NA;NA;form;submission;13898.599;101158.4;101149.644;101166.401;115065;115065.3;2023-05-28T13:17:47Z;115071.53;Niveau;kiwango;d;usimamizi;mwamali;mshairi;marla;NA;NA;NULL;NA;NA;NA;NA;NA;NA;NA;NA;NA;NA;NA;NA;NA;NA;NA;NA;NA;NA;NA;;
5d66f;Save;data;screen;canvas.Screen;1_11_0_1;NA;NA;timeout;500.015;115067;115055.31;115071.53;115554.891;115555.7;2023-05-28T13:17:48Z;115571.545;Niveau;kiwango;d;usimamizi;mwamali;mshairi;NA;NA;0;NULL;NA;NA;NA;NA;NA;NA;NA;NA;NA;NA;NA;NA;NA;NA;NA;NA;NA;NA;NA;;
5d66f;deep;flow.Sequence;1_11_0;NA;NA;completion;14388.49;101158.4;101149.644;101166.401;115554.891;115555.9;2023-05-28T13:17:48Z;115571.545;Niveau;kiwango;d;usimamizi;mwamali;mshairi;NA;NA;NA;NULL;NA;NA;NA;NA;NA;NA;NA;NA;NA;NA;NA;NA;NA;NA;NA;NA;NA;NA;NA;;;;
5d66f;task;flow.Sequence;1_11;NA;NA;completion;14388.49;101158.4;101149.644;101166.401;115554.891;115556.1;2023-05-28T13:17:48Z;115571.545;Niveau;kiwango;d;usimamizi;mwamali;mshairi;NA;NA;NA;NULL;NA;NA;NA;NA;NA;NA;NA;NA;NA;NA;NA;NA;NA;NA;NA;NA;NA;NA;NA;;;;
5d66f;Deep;Question;html.Page;1_12_0_0;NA;NA;form;submission;3778.755;115556.3;115554.891;115571.545;119350.3;119350.5;2023-05-28T13:17:52Z;119351.408;Respekt;heshima;d;changamnao;upinzani;ufanisi;heshima;NA;NA;NULL;NA;NA;NA;NA;NA;NA;NA;NA;NA;NA;NA;NA;NA;NA;NA;NA;NA;NA;NA;;
5d66f;Save;data;screen;canvas.Screen;1_12_0_1;NA;NA;timeout;499.639;119351.9;119334.776;119351.408;119834.685;119835.8;2023-05-28T13:17:52Z;119851.047;Respekt;heshima;d;changamnao;upinzani;ufanisi;NA;NA;1;NULL;NA;NA;NA;NA;NA;NA;NA;NA;NA;NA;NA;NA;NA;NA;NA;NA;NA;NA;NA;;
5d66f;deep;flow.Sequence;1_12_0;NA;NA;completion;4263.14;115556.2;115554.891;115571.545;119834.685;119835.9;2023-05-28T13:17:52Z;119851.047;Respekt;heshima;d;changamnao;upinzani;ufanisi;NA;NA;NA;NULL;NA;NA;NA;NA;NA;NA;NA;NA;NA;NA;NA;NA;NA;NA;NA;NA;NA;NA;NA;;;;
5d66f;task;flow.Sequence;1_12;NA;NA;completion;4263.14;115556.2;115554.891;115571.545;119834.685;119836.1;2023-05-28T13:17:52Z;119851.047;Respekt;heshima;d;changamnao;upinzani;ufanisi;NA;NA;NA;NULL;NA;NA;NA;NA;NA;NA;NA;NA;NA;NA;NA;NA;NA;NA;NA;NA;NA;NA;NA;;;;
5d66f;Deep;Question;html.Page;1_13_0_0;NA;NA;form;submission;9356.853;119836.2;119834.685;119851.047;129207.9;129208;2023-05-28T13:18:02Z;129210;Erneuerung;ukarabati;d;ushawishi;ukalifu;unyonyaji;jkl;NA;NA;NULL;NA;NA;NA;NA;NA;NA;NA;NA;NA;NA;NA;NA;NA;NA;NA;NA;NA;NA;NA;;
5d66f;Save;data;screen;canvas.Screen;1_13_0_1;NA;NA;timeout;499.79;129209.6;129193.644;129210;129693.263;129694.3;2023-05-28T13:18:02Z;129709.79;Erneuerung;ukarabati;d;ushawishi;ukalifu;unyonyaji;NA;NA;0;NULL;NA;NA;NA;NA;NA;NA;NA;NA;NA;NA;NA;NA;NA;NA;NA;NA;NA;NA;NA;;
5d66f;deep;flow.Sequence;1_13_0;NA;NA;completion;9842.216;119836.1;119834.685;119851.047;129693.263;129694.4;2023-05-28T13:18:02Z;129709.79;Erneuerung;ukarabati;d;ushawishi;ukalifu;unyonyaji;NA;NA;NA;NULL;NA;NA;NA;NA;NA;NA;NA;NA;NA;NA;NA;NA;NA;NA;NA;NA;NA;NA;NA;;;;
5d66f;task;flow.Sequence;1_13;NA;NA;completion;9842.216;119836.1;119834.685;119851.047;129693.263;129694.5;2023-05-28T13:18:02Z;129709.79;Erneuerung;ukarabati;d;ushawishi;ukalifu;unyonyaji;NA;NA;NA;NULL;NA;NA;NA;NA;NA;NA;NA;NA;NA;NA;NA;NA;NA;NA;NA;NA;NA;NA;NA;;;;
5d66f;Deep;Question;html.Page;1_14_0_0;NA;NA;form;submission;5229.31;129694.7;129693.263;129709.79;134939.1;134939.3;2023-05-28T13:18:07Z;134971.905;Integrität;uadilifu;d;muungano;mtiririko;upunguaji;aranto;NA;NA;NULL;NA;NA;NA;NA;NA;NA;NA;NA;NA;NA;NA;NA;NA;NA;NA;NA;NA;NA;NA;;
5d66f;Save;data;screen;canvas.Screen;1_14_0_1;NA;NA;timeout;499.69;134940.6;134955.582;134971.905;135454.967;135456;2023-05-28T13:18:08Z;135471.595;Integrität;uadilifu;d;muungano;mtiririko;upunguaji;NA;NA;0;NULL;NA;NA;NA;NA;NA;NA;NA;NA;NA;NA;NA;NA;NA;NA;NA;NA;NA;NA;NA;;
5d66f;deep;flow.Sequence;1_14_0;NA;NA;completion;5745.177;129694.7;129693.263;129709.79;135454.967;135456.3;2023-05-28T13:18:08Z;135471.595;Integrität;uadilifu;d;muungano;mtiririko;upunguaji;NA;NA;NA;NULL;NA;NA;NA;NA;NA;NA;NA;NA;NA;NA;NA;NA;NA;NA;NA;NA;NA;NA;NA;;;;
5d66f;task;flow.Sequence;1_14;NA;NA;completion;5745.177;129694.6;129693.263;129709.79;135454.967;135456.4;2023-05-28T13:18:08Z;135471.595;Integrität;uadilifu;d;muungano;mtiririko;upunguaji;NA;NA;NA;NULL;NA;NA;NA;NA;NA;NA;NA;NA;NA;NA;NA;NA;NA;NA;NA;NA;NA;NA;NA;;;;
5d66f;Deep;Question;html.Page;1_15_0_0;NA;NA;form;submission;6647.705;135456.5;135454.967;135471.595;142119.3;142119.5;2023-05-28T13:18:14Z;142132.575;Stimmung;kinyongo;s;kilekile;kisambo;madhehebu;polyno;NA;NA;NULL;NA;NA;NA;NA;NA;NA;NA;NA;NA;NA;NA;NA;NA;NA;NA;NA;NA;NA;NA;;
5d66f;Save;data;screen;canvas.Screen;1_15_0_1;NA;NA;timeout;499.729;142121.1;142116.29;142132.575;142615.905;142616.7;2023-05-28T13:18:15Z;142632.304;Stimmung;kinyongo;s;kilekile;kisambo;madhehebu;NA;NA;0;NULL;NA;NA;NA;NA;NA;NA;NA;NA;NA;NA;NA;NA;NA;NA;NA;NA;NA;NA;NA;;
5d66f;deep;flow.Sequence;1_15_0;NA;NA;completion;7144.31;135456.5;135454.967;135471.595;142615.905;142617;2023-05-28T13:18:15Z;142632.304;Stimmung;kinyongo;s;kilekile;kisambo;madhehebu;NA;NA;NA;NULL;NA;NA;NA;NA;NA;NA;NA;NA;NA;NA;NA;NA;NA;NA;NA;NA;NA;NA;NA;;;;
5d66f;task;flow.Sequence;1_15;NA;NA;completion;7144.31;135456.5;135454.967;135471.595;142615.905;142617.1;2023-05-28T13:18:15Z;142632.304;Stimmung;kinyongo;s;kilekile;kisambo;madhehebu;NA;NA;NA;NULL;NA;NA;NA;NA;NA;NA;NA;NA;NA;NA;NA;NA;NA;NA;NA;NA;NA;NA;NA;;;;
5d66f;retrieval;block;1;(cued;recall);flow.Loop;1;NA;NA;completion;125796.932;16809.7;16802.327;16818.973;142615.905;142617.3;2023-05-28T13:18:15Z;142632.304;NA;NA;NA;NA;NA;NA;NA;NA;NA;NULL;NA;NA;NA;NA;NA;NA;NA;NA;NA;NA;NA;NA;NA;NA;NA;NA;NA;NA;NA
5d66f;Shallow;Question;html.Page;2_0_0_0;NA;NA;form;submission;3616.296;142617.5;142615.905;142632.304;146248.6;146248.9;2023-05-28T13:18:19Z;146262.916;Atmosphäre;angahewa;s;kuteseka;usahihi;kutoamini;angahewa;NA;NA;"c(""distractor1"", ""distractor2"", ""distractor3"")";NA;NA;NA;NA;NA;NA;NA;NA;NA;NA;NA;NA;NA;NA;NA;NA;NA;NA;NA;;
5d66f;Save;data;screen;canvas.Screen;2_0_0_1;NA;NA;timeout;499.426;146250.1;146246.312;146262.916;146745.548;146746.6;2023-05-28T13:18:19Z;146762.342;Atmosphäre;angahewa;s;kuteseka;usahihi;kutoamini;NA;NA;1;"c(""distractor1"", ""distractor2"", ""distractor3"")";NA;NA;NA;NA;NA;NA;NA;NA;NA;NA;NA;NA;NA;NA;NA;NA;NA;NA;NA;;
5d66f;shallow;flow.Sequence;2_0_0;NA;NA;completion;4113.244;142617.5;142615.905;142632.304;146745.548;146746.9;2023-05-28T13:18:19Z;146762.342;Atmosphäre;angahewa;s;kuteseka;usahihi;kutoamini;NA;NA;NA;"c(""distractor1"", ""distractor2"", ""distractor3"")";NA;NA;NA;NA;NA;NA;NA;NA;NA;NA;NA;NA;NA;NA;NA;NA;NA;NA;NA;;;;
5d66f;task;flow.Sequence;2_0;NA;NA;completion;4113.244;142617.4;142615.905;142632.304;146745.548;146747;2023-05-28T13:18:19Z;146762.342;Atmosphäre;angahewa;s;kuteseka;usahihi;kutoamini;NA;NA;NA;"c(""distractor1"", ""distractor2"", ""distractor3"")";NA;NA;NA;NA;NA;NA;NA;NA;NA;NA;NA;NA;NA;NA;NA;NA;NA;NA;NA;;;;
5d66f;Shallow;Question;html.Page;2_1_0_0;NA;NA;form;submission;4408.858;146747.2;146745.548;146762.342;151171.2;151171.4;2023-05-28T13:18:23Z;151191.96;Respekt;heshima;d;changamnao;upinzani;ufanisi;heshima;NA;NA;"c(""distractor1"", ""distractor2"", ""distractor3"")";NA;NA;NA;NA;NA;NA;NA;NA;NA;NA;NA;NA;NA;NA;NA;NA;NA;NA;NA;;
5d66f;Save;data;screen;canvas.Screen;2_1_0_1;NA;NA;timeout;499.872;151172.7;151175.543;151191.96;151675.18;151676.3;2023-05-28T13:18:24Z;151691.832;Respekt;heshima;d;changamnao;upinzani;ufanisi;NA;NA;1;"c(""distractor1"", ""distractor2"", ""distractor3"")";NA;NA;NA;NA;NA;NA;NA;NA;NA;NA;NA;NA;NA;NA;NA;NA;NA;NA;NA;;
5d66f;shallow;flow.Sequence;2_1_0;NA;NA;completion;4912.838;146747.2;146745.548;146762.342;151675.18;151676.6;2023-05-28T13:18:24Z;151691.832;Respekt;heshima;d;changamnao;upinzani;ufanisi;NA;NA;NA;"c(""distractor1"", ""distractor2"", ""distractor3"")";NA;NA;NA;NA;NA;NA;NA;NA;NA;NA;NA;NA;NA;NA;NA;NA;NA;NA;NA;;;;
5d66f;task;flow.Sequence;2_1;NA;NA;completion;4912.838;146747.1;146745.548;146762.342;151675.18;151676.7;2023-05-28T13:18:24Z;151691.832;Respekt;heshima;d;changamnao;upinzani;ufanisi;NA;NA;NA;"c(""distractor1"", ""distractor2"", ""distractor3"")";NA;NA;NA;NA;NA;NA;NA;NA;NA;NA;NA;NA;NA;NA;NA;NA;NA;NA;NA;;;;
5d66f;Shallow;Question;html.Page;2_2_0_0;NA;NA;form;submission;2638.768;151676.8;151675.18;151691.832;154330.6;154330.8;2023-05-28T13:18:27Z;154356.271;Stimmung;kinyongo;s;kilekile;kisambo;madhehebu;kinyongo;NA;NA;"c(""distractor1"", ""distractor2"", ""distractor3"")";NA;NA;NA;NA;NA;NA;NA;NA;NA;NA;NA;NA;NA;NA;NA;NA;NA;NA;NA;;
5d66f;Save;data;screen;canvas.Screen;2_2_0_1;NA;NA;timeout;499.378;154332.1;154339.604;154356.271;154839.272;154840.5;2023-05-28T13:18:27Z;154855.649;Stimmung;kinyongo;s;kilekile;kisambo;madhehebu;NA;NA;1;"c(""distractor1"", ""distractor2"", ""distractor3"")";NA;NA;NA;NA;NA;NA;NA;NA;NA;NA;NA;NA;NA;NA;NA;NA;NA;NA;NA;;
5d66f;shallow;flow.Sequence;2_2_0;NA;NA;completion;3147.44;151676.8;151675.18;151691.832;154839.272;154840.9;2023-05-28T13:18:27Z;154855.649;Stimmung;kinyongo;s;kilekile;kisambo;madhehebu;NA;NA;NA;"c(""distractor1"", ""distractor2"", ""distractor3"")";NA;NA;NA;NA;NA;NA;NA;NA;NA;NA;NA;NA;NA;NA;NA;NA;NA;NA;NA;;;;
5d66f;task;flow.Sequence;2_2;NA;NA;completion;3147.44;151676.8;151675.18;151691.832;154839.272;154841.1;2023-05-28T13:18:27Z;154855.649;Stimmung;kinyongo;s;kilekile;kisambo;madhehebu;NA;NA;NA;"c(""distractor1"", ""distractor2"", ""distractor3"")";NA;NA;NA;NA;NA;NA;NA;NA;NA;NA;NA;NA;NA;NA;NA;NA;NA;NA;NA;;;;
5d66f;Shallow;Question;html.Page;2_3_0_0;NA;NA;form;submission;7210.751;154841.3;154839.272;154855.649;162066.4;162066.7;2023-05-28T13:18:34Z;162083.289;Orientierung;urekebisho;d;uelekeo;marekebisho;utunzaji;urekebisho;NA;NA;"c(""distractor1"", ""distractor2"", ""distractor3"")";NA;NA;NA;NA;NA;NA;NA;NA;NA;NA;NA;NA;NA;NA;NA;NA;NA;NA;NA;;
5d66f;Save;data;screen;canvas.Screen;2_3_0_1;NA;NA;timeout;499.607;162068.2;162066.343;162083.289;162566.214;162567.2;2023-05-28T13:18:35Z;162582.896;Orientierung;urekebisho;d;uelekeo;marekebisho;utunzaji;NA;NA;1;"c(""distractor1"", ""distractor2"", ""distractor3"")";NA;NA;NA;NA;NA;NA;NA;NA;NA;NA;NA;NA;NA;NA;NA;NA;NA;NA;NA;;
5d66f;shallow;flow.Sequence;2_3_0;NA;NA;completion;7710.565;154841.2;154839.272;154855.649;162566.214;162567.4;2023-05-28T13:18:35Z;162582.896;Orientierung;urekebisho;d;uelekeo;marekebisho;utunzaji;NA;NA;NA;"c(""distractor1"", ""distractor2"", ""distractor3"")";NA;NA;NA;NA;NA;NA;NA;NA;NA;NA;NA;NA;NA;NA;NA;NA;NA;NA;NA;;;;
5d66f;task;flow.Sequence;2_3;NA;NA;completion;7710.565;154841.2;154839.272;154855.649;162566.214;162567.6;2023-05-28T13:18:35Z;162582.896;Orientierung;urekebisho;d;uelekeo;marekebisho;utunzaji;NA;NA;NA;"c(""distractor1"", ""distractor2"", ""distractor3"")";NA;NA;NA;NA;NA;NA;NA;NA;NA;NA;NA;NA;NA;NA;NA;NA;NA;NA;NA;;;;
5d66f;Shallow;Question;html.Page;2_4_0_0;NA;NA;form;submission;4211.604;162567.7;162566.214;162582.896;166794.5;166794.7;2023-05-28T13:18:39Z;166795.778;Vorwurf;mashtaka;s;msukumo;mtangulizi;uenyekiti;mashtaka;NA;NA;"c(""distractor1"", ""distractor2"", ""distractor3"")";NA;NA;NA;NA;NA;NA;NA;NA;NA;NA;NA;NA;NA;NA;NA;NA;NA;NA;NA;;
5d66f;Save;data;screen;canvas.Screen;2_4_0_1;NA;NA;timeout;499.631;166796.2;166779.363;166795.778;167279.037;167280.2;2023-05-28T13:18:40Z;167295.409;Vorwurf;mashtaka;s;msukumo;mtangulizi;uenyekiti;NA;NA;1;"c(""distractor1"", ""distractor2"", ""distractor3"")";NA;NA;NA;NA;NA;NA;NA;NA;NA;NA;NA;NA;NA;NA;NA;NA;NA;NA;NA;;
5d66f;shallow;flow.Sequence;2_4_0;NA;NA;completion;4696.141;162567.7;162566.214;162582.896;167279.037;167280.5;2023-05-28T13:18:40Z;167295.409;Vorwurf;mashtaka;s;msukumo;mtangulizi;uenyekiti;NA;NA;NA;"c(""distractor1"", ""distractor2"", ""distractor3"")";NA;NA;NA;NA;NA;NA;NA;NA;NA;NA;NA;NA;NA;NA;NA;NA;NA;NA;NA;;;;
5d66f;task;flow.Sequence;2_4;NA;NA;completion;4696.141;162567.7;162566.214;162582.896;167279.037;167280.7;2023-05-28T13:18:40Z;167295.409;Vorwurf;mashtaka;s;msukumo;mtangulizi;uenyekiti;NA;NA;NA;"c(""distractor1"", ""distractor2"", ""distractor3"")";NA;NA;NA;NA;NA;NA;NA;NA;NA;NA;NA;NA;NA;NA;NA;NA;NA;NA;NA;;;;
5d66f;Shallow;Question;html.Page;2_5_0_0;NA;NA;form;submission;3387.691;167281;167279.037;167295.409;170683.1;170683.3;2023-05-28T13:18:43Z;170692.446;Papier;karatasi;d;uchambuzi;usalama;kukataliwa;kukataliwa;NA;NA;"c(""distractor1"", ""distractor2"", ""distractor3"")";NA;NA;NA;NA;NA;NA;NA;NA;NA;NA;NA;NA;NA;NA;NA;NA;NA;NA;NA;;
5d66f;Save;data;screen;canvas.Screen;2_5_0_1;NA;NA;timeout;500.045;170684.7;170675.55;170692.446;171175.805;171176.8;2023-05-28T13:18:43Z;171192.491;Papier;karatasi;d;uchambuzi;usalama;kukataliwa;NA;NA;0;"c(""distractor1"", ""distractor2"", ""distractor3"")";NA;NA;NA;NA;NA;NA;NA;NA;NA;NA;NA;NA;NA;NA;NA;NA;NA;NA;NA;;
5d66f;shallow;flow.Sequence;2_5_0;NA;NA;completion;3880.396;167280.9;167279.037;167295.409;171175.805;171177.2;2023-05-28T13:18:43Z;171192.491;Papier;karatasi;d;uchambuzi;usalama;kukataliwa;NA;NA;NA;"c(""distractor1"", ""distractor2"", ""distractor3"")";NA;NA;NA;NA;NA;NA;NA;NA;NA;NA;NA;NA;NA;NA;NA;NA;NA;NA;NA;;;;
5d66f;task;flow.Sequence;2_5;NA;NA;completion;3880.396;167280.9;167279.037;167295.409;171175.805;171177.3;2023-05-28T13:18:43Z;171192.491;Papier;karatasi;d;uchambuzi;usalama;kukataliwa;NA;NA;NA;"c(""distractor1"", ""distractor2"", ""distractor3"")";NA;NA;NA;NA;NA;NA;NA;NA;NA;NA;NA;NA;NA;NA;NA;NA;NA;NA;NA;;;;
5d66f;Shallow;Question;html.Page;2_6_0_0;NA;NA;form;submission;3747.509;171177.4;171175.805;171192.491;174940;174940.3;2023-05-28T13:18:47Z;174939.118;Flexibilität;kubadilika;s;enjini;usikilivu;hesabu;kubadilika;NA;NA;"c(""distractor1"", ""distractor2"", ""distractor3"")";NA;NA;NA;NA;NA;NA;NA;NA;NA;NA;NA;NA;NA;NA;NA;NA;NA;NA;NA;;
5d66f;Save;data;screen;canvas.Screen;2_6_0_1;NA;NA;timeout;499.781;174941.7;174922.622;174939.118;175422.118;175423.1;2023-05-28T13:18:48Z;175438.899;Flexibilität;kubadilika;s;enjini;usikilivu;hesabu;NA;NA;1;"c(""distractor1"", ""distractor2"", ""distractor3"")";NA;NA;NA;NA;NA;NA;NA;NA;NA;NA;NA;NA;NA;NA;NA;NA;NA;NA;NA;;
5d66f;shallow;flow.Sequence;2_6_0;NA;NA;completion;4229.627;171177.4;171175.805;171192.491;175422.118;175423.4;2023-05-28T13:18:48Z;175438.899;Flexibilität;kubadilika;s;enjini;usikilivu;hesabu;NA;NA;NA;"c(""distractor1"", ""distractor2"", ""distractor3"")";NA;NA;NA;NA;NA;NA;NA;NA;NA;NA;NA;NA;NA;NA;NA;NA;NA;NA;NA;;;;
5d66f;task;flow.Sequence;2_6;NA;NA;completion;4229.627;171177.3;171175.805;171192.491;175422.118;175423.6;2023-05-28T13:18:48Z;175438.899;Flexibilität;kubadilika;s;enjini;usikilivu;hesabu;NA;NA;NA;"c(""distractor1"", ""distractor2"", ""distractor3"")";NA;NA;NA;NA;NA;NA;NA;NA;NA;NA;NA;NA;NA;NA;NA;NA;NA;NA;NA;;;;
5d66f;Shallow;Question;html.Page;2_7_0_0;NA;NA;form;submission;1616.101;175423.9;175422.118;175438.899;177055;177055.2;2023-05-28T13:18:49Z;177070.924;Fleisch;mshakiki;d;kizunguzungu;mshikamano;angusho;mshakiki;NA;NA;"c(""distractor1"", ""distractor2"", ""distractor3"")";NA;NA;NA;NA;NA;NA;NA;NA;NA;NA;NA;NA;NA;NA;NA;NA;NA;NA;NA;;
5d66f;Save;data;screen;canvas.Screen;2_7_0_1;NA;NA;timeout;499.402;177055.7;177053.94;177070.924;177553.655;177554.6;2023-05-28T13:18:50Z;177570.326;Fleisch;mshakiki;d;kizunguzungu;mshikamano;angusho;NA;NA;1;"c(""distractor1"", ""distractor2"", ""distractor3"")";NA;NA;NA;NA;NA;NA;NA;NA;NA;NA;NA;NA;NA;NA;NA;NA;NA;NA;NA;;
5d66f;shallow;flow.Sequence;2_7_0;NA;NA;completion;2114.756;175423.8;175422.118;175438.899;177553.655;177554.8;2023-05-28T13:18:50Z;177570.326;Fleisch;mshakiki;d;kizunguzungu;mshikamano;angusho;NA;NA;NA;"c(""distractor1"", ""distractor2"", ""distractor3"")";NA;NA;NA;NA;NA;NA;NA;NA;NA;NA;NA;NA;NA;NA;NA;NA;NA;NA;NA;;;;
5d66f;task;flow.Sequence;2_7;NA;NA;completion;2114.756;175423.7;175422.118;175438.899;177553.655;177555.1;2023-05-28T13:18:50Z;177570.326;Fleisch;mshakiki;d;kizunguzungu;mshikamano;angusho;NA;NA;NA;"c(""distractor1"", ""distractor2"", ""distractor3"")";NA;NA;NA;NA;NA;NA;NA;NA;NA;NA;NA;NA;NA;NA;NA;NA;NA;NA;NA;;;;
5d66f;Shallow;Question;html.Page;2_8_0_0;NA;NA;form;submission;3192.774;177555.3;177553.655;177570.326;180763.1;180763.3;2023-05-28T13:18:53Z;180767.548;Entwicklung;maendeleo;s;uangavu;mshindwa;badiliko;badiliko;NA;NA;"c(""distractor1"", ""distractor2"", ""distractor3"")";NA;NA;NA;NA;NA;NA;NA;NA;NA;NA;NA;NA;NA;NA;NA;NA;NA;NA;NA;;
5d66f;Save;data;screen;canvas.Screen;2_8_0_1;NA;NA;timeout;499.989;180764.5;180751.082;180767.548;181250.585;181256.4;2023-05-28T13:18:54Z;181267.537;Entwicklung;maendeleo;s;uangavu;mshindwa;badiliko;NA;NA;0;"c(""distractor1"", ""distractor2"", ""distractor3"")";NA;NA;NA;NA;NA;NA;NA;NA;NA;NA;NA;NA;NA;NA;NA;NA;NA;NA;NA;;
5d66f;shallow;flow.Sequence;2_8_0;NA;NA;completion;3680.259;177555.3;177553.655;177570.326;181250.585;181256.7;2023-05-28T13:18:54Z;181267.537;Entwicklung;maendeleo;s;uangavu;mshindwa;badiliko;NA;NA;NA;"c(""distractor1"", ""distractor2"", ""distractor3"")";NA;NA;NA;NA;NA;NA;NA;NA;NA;NA;NA;NA;NA;NA;NA;NA;NA;NA;NA;;;;
5d66f;task;flow.Sequence;2_8;NA;NA;completion;3680.259;177555.2;177553.655;177570.326;181250.585;181256.8;2023-05-28T13:18:54Z;181267.537;Entwicklung;maendeleo;s;uangavu;mshindwa;badiliko;NA;NA;NA;"c(""distractor1"", ""distractor2"", ""distractor3"")";NA;NA;NA;NA;NA;NA;NA;NA;NA;NA;NA;NA;NA;NA;NA;NA;NA;NA;NA;;;;
5d66f;Shallow;Question;html.Page;2_9_0_0;NA;NA;form;submission;2840.163;181256.9;181250.585;181267.537;184107.7;184108;2023-05-28T13:18:56Z;184114.895;Erneuerung;ukarabati;d;ushawishi;ukalifu;unyonyaji;ukarabati;NA;NA;"c(""distractor1"", ""distractor2"", ""distractor3"")";NA;NA;NA;NA;NA;NA;NA;NA;NA;NA;NA;NA;NA;NA;NA;NA;NA;NA;NA;;
5d66f;Save;data;screen;canvas.Screen;2_9_0_1;NA;NA;timeout;499.488;184109.1;184098.261;184114.895;184597.852;184598.9;2023-05-28T13:18:57Z;184614.383;Erneuerung;ukarabati;d;ushawishi;ukalifu;unyonyaji;NA;NA;1;"c(""distractor1"", ""distractor2"", ""distractor3"")";NA;NA;NA;NA;NA;NA;NA;NA;NA;NA;NA;NA;NA;NA;NA;NA;NA;NA;NA;;
5d66f;shallow;flow.Sequence;2_9_0;NA;NA;completion;3330.315;181256.9;181250.585;181267.537;184597.852;184599;2023-05-28T13:18:57Z;184614.383;Erneuerung;ukarabati;d;ushawishi;ukalifu;unyonyaji;NA;NA;NA;"c(""distractor1"", ""distractor2"", ""distractor3"")";NA;NA;NA;NA;NA;NA;NA;NA;NA;NA;NA;NA;NA;NA;NA;NA;NA;NA;NA;;;;
5d66f;task;flow.Sequence;2_9;NA;NA;completion;3330.315;181256.9;181250.585;181267.537;184597.852;184599.1;2023-05-28T13:18:57Z;184614.383;Erneuerung;ukarabati;d;ushawishi;ukalifu;unyonyaji;NA;NA;NA;"c(""distractor1"", ""distractor2"", ""distractor3"")";NA;NA;NA;NA;NA;NA;NA;NA;NA;NA;NA;NA;NA;NA;NA;NA;NA;NA;NA;;;;
5d66f;Shallow;Question;html.Page;2_10_0_0;NA;NA;form;submission;5784.817;184599.3;184597.852;184614.383;190399.2;190399.4;2023-05-28T13:19:03Z;190426.666;Betrüger;mdanganyifu;s;mwanamuziki;wastani;mahakama;mdanganyifu;NA;NA;"c(""distractor1"", ""distractor2"", ""distractor3"")";NA;NA;NA;NA;NA;NA;NA;NA;NA;NA;NA;NA;NA;NA;NA;NA;NA;NA;NA;;
5d66f;Save;data;screen;canvas.Screen;2_10_0_1;NA;NA;timeout;499.595;190400.9;190409.956;190426.666;190909.604;190910.7;2023-05-28T13:19:03Z;190926.261;Betrüger;mdanganyifu;s;mwanamuziki;wastani;mahakama;NA;NA;1;"c(""distractor1"", ""distractor2"", ""distractor3"")";NA;NA;NA;NA;NA;NA;NA;NA;NA;NA;NA;NA;NA;NA;NA;NA;NA;NA;NA;;
5d66f;shallow;flow.Sequence;2_10_0;NA;NA;completion;6295.221;184599.3;184597.852;184614.383;190909.604;190910.9;2023-05-28T13:19:03Z;190926.261;Betrüger;mdanganyifu;s;mwanamuziki;wastani;mahakama;NA;NA;NA;"c(""distractor1"", ""distractor2"", ""distractor3"")";NA;NA;NA;NA;NA;NA;NA;NA;NA;NA;NA;NA;NA;NA;NA;NA;NA;NA;NA;;;;
5d66f;task;flow.Sequence;2_10;NA;NA;completion;6295.221;184599.2;184597.852;184614.383;190909.604;190911;2023-05-28T13:19:03Z;190926.261;Betrüger;mdanganyifu;s;mwanamuziki;wastani;mahakama;NA;NA;NA;"c(""distractor1"", ""distractor2"", ""distractor3"")";NA;NA;NA;NA;NA;NA;NA;NA;NA;NA;NA;NA;NA;NA;NA;NA;NA;NA;NA;;;;
5d66f;Shallow;Question;html.Page;2_11_0_0;NA;NA;form;submission;4577.639;190911.2;190909.604;190926.261;195503.9;195504.1;2023-05-28T13:19:08Z;195505.554;Begegnung;kukutana;s;mmasihiya;mpiganaji;husiano;husiano;NA;NA;"c(""distractor1"", ""distractor2"", ""distractor3"")";NA;NA;NA;NA;NA;NA;NA;NA;NA;NA;NA;NA;NA;NA;NA;NA;NA;NA;NA;;
5d66f;Save;data;screen;canvas.Screen;2_11_0_1;NA;NA;timeout;499.855;195505.5;195489.09;195505.554;195988.765;195989.8;2023-05-28T13:19:08Z;196005.409;Begegnung;kukutana;s;mmasihiya;mpiganaji;husiano;NA;NA;0;"c(""distractor1"", ""distractor2"", ""distractor3"")";NA;NA;NA;NA;NA;NA;NA;NA;NA;NA;NA;NA;NA;NA;NA;NA;NA;NA;NA;;
5d66f;shallow;flow.Sequence;2_11_0;NA;NA;completion;5062.504;190911.2;190909.604;190926.261;195988.765;195990;2023-05-28T13:19:08Z;196005.409;Begegnung;kukutana;s;mmasihiya;mpiganaji;husiano;NA;NA;NA;"c(""distractor1"", ""distractor2"", ""distractor3"")";NA;NA;NA;NA;NA;NA;NA;NA;NA;NA;NA;NA;NA;NA;NA;NA;NA;NA;NA;;;;
5d66f;task;flow.Sequence;2_11;NA;NA;completion;5062.504;190911.1;190909.604;190926.261;195988.765;195990.2;2023-05-28T13:19:08Z;196005.409;Begegnung;kukutana;s;mmasihiya;mpiganaji;husiano;NA;NA;NA;"c(""distractor1"", ""distractor2"", ""distractor3"")";NA;NA;NA;NA;NA;NA;NA;NA;NA;NA;NA;NA;NA;NA;NA;NA;NA;NA;NA;;;;
5d66f;Shallow;Question;html.Page;2_12_0_0;NA;NA;form;submission;4473.191;195990.3;195988.765;196005.409;200478.6;200478.7;2023-05-28T13:19:13Z;200484.701;Genehmigung;idhini;s;mwanamke;itikadi;fedheha;idhini;NA;NA;"c(""distractor1"", ""distractor2"", ""distractor3"")";NA;NA;NA;NA;NA;NA;NA;NA;NA;NA;NA;NA;NA;NA;NA;NA;NA;NA;NA;;
5d66f;Save;data;screen;canvas.Screen;2_12_0_1;NA;NA;timeout;499.702;200480;200468.203;200484.701;200967.716;200968.8;2023-05-28T13:19:13Z;200984.403;Genehmigung;idhini;s;mwanamke;itikadi;fedheha;NA;NA;1;"c(""distractor1"", ""distractor2"", ""distractor3"")";NA;NA;NA;NA;NA;NA;NA;NA;NA;NA;NA;NA;NA;NA;NA;NA;NA;NA;NA;;
5d66f;shallow;flow.Sequence;2_12_0;NA;NA;completion;4962.307;195990.3;195988.765;196005.409;200967.716;200969;2023-05-28T13:19:13Z;200984.403;Genehmigung;idhini;s;mwanamke;itikadi;fedheha;NA;NA;NA;"c(""distractor1"", ""distractor2"", ""distractor3"")";NA;NA;NA;NA;NA;NA;NA;NA;NA;NA;NA;NA;NA;NA;NA;NA;NA;NA;NA;;;;
5d66f;task;flow.Sequence;2_12;NA;NA;completion;4962.307;195990.3;195988.765;196005.409;200967.716;200969.3;2023-05-28T13:19:13Z;200984.403;Genehmigung;idhini;s;mwanamke;itikadi;fedheha;NA;NA;NA;"c(""distractor1"", ""distractor2"", ""distractor3"")";NA;NA;NA;NA;NA;NA;NA;NA;NA;NA;NA;NA;NA;NA;NA;NA;NA;NA;NA;;;;
5d66f;Shallow;Question;html.Page;2_13_0_0;NA;NA;form;submission;4227.597;200969.4;200967.716;200984.403;205212;205212.2;2023-05-28T13:19:18Z;205231.182;Integrität;uadilifu;d;muungano;mtiririko;upunguaji;uadilifu;NA;NA;"c(""distractor1"", ""distractor2"", ""distractor3"")";NA;NA;NA;NA;NA;NA;NA;NA;NA;NA;NA;NA;NA;NA;NA;NA;NA;NA;NA;;
5d66f;Save;data;screen;canvas.Screen;2_13_0_1;NA;NA;timeout;499.567;205213.5;205214.172;205231.182;205714.111;205715.1;2023-05-28T13:19:18Z;205730.749;Integrität;uadilifu;d;muungano;mtiririko;upunguaji;NA;NA;1;"c(""distractor1"", ""distractor2"", ""distractor3"")";NA;NA;NA;NA;NA;NA;NA;NA;NA;NA;NA;NA;NA;NA;NA;NA;NA;NA;NA;;
5d66f;shallow;flow.Sequence;2_13_0;NA;NA;completion;4729.708;200969.4;200967.716;200984.403;205714.111;205715.3;2023-05-28T13:19:18Z;205730.749;Integrität;uadilifu;d;muungano;mtiririko;upunguaji;NA;NA;NA;"c(""distractor1"", ""distractor2"", ""distractor3"")";NA;NA;NA;NA;NA;NA;NA;NA;NA;NA;NA;NA;NA;NA;NA;NA;NA;NA;NA;;;;
5d66f;task;flow.Sequence;2_13;NA;NA;completion;4729.708;200969.3;200967.716;200984.403;205714.111;205715.4;2023-05-28T13:19:18Z;205730.749;Integrität;uadilifu;d;muungano;mtiririko;upunguaji;NA;NA;NA;"c(""distractor1"", ""distractor2"", ""distractor3"")";NA;NA;NA;NA;NA;NA;NA;NA;NA;NA;NA;NA;NA;NA;NA;NA;NA;NA;NA;;;;
5d66f;Shallow;Question;html.Page;2_14_0_0;NA;NA;form;submission;9836.751;205715.6;205714.111;205730.749;215567.5;215567.7;2023-05-28T13:19:28Z;215589.272;Wechsel;ugeuzaji;d;utambulisho;kujenga;wasiwasi;ugeuzaji;NA;NA;"c(""distractor1"", ""distractor2"", ""distractor3"")";NA;NA;NA;NA;NA;NA;NA;NA;NA;NA;NA;NA;NA;NA;NA;NA;NA;NA;NA;;
5d66f;Save;data;screen;canvas.Screen;2_14_0_1;NA;NA;timeout;499.639;215569.2;215572.594;215589.272;216072.256;216073.3;2023-05-28T13:19:28Z;216088.911;Wechsel;ugeuzaji;d;utambulisho;kujenga;wasiwasi;NA;NA;1;"c(""distractor1"", ""distractor2"", ""distractor3"")";NA;NA;NA;NA;NA;NA;NA;NA;NA;NA;NA;NA;NA;NA;NA;NA;NA;NA;NA;;
5d66f;shallow;flow.Sequence;2_14_0;NA;NA;completion;10341.507;205715.5;205714.111;205730.749;216072.256;216073.5;2023-05-28T13:19:28Z;216088.911;Wechsel;ugeuzaji;d;utambulisho;kujenga;wasiwasi;NA;NA;NA;"c(""distractor1"", ""distractor2"", ""distractor3"")";NA;NA;NA;NA;NA;NA;NA;NA;NA;NA;NA;NA;NA;NA;NA;NA;NA;NA;NA;;;;
5d66f;task;flow.Sequence;2_14;NA;NA;completion;10341.507;205715.5;205714.111;205730.749;216072.256;216073.7;2023-05-28T13:19:28Z;216088.911;Wechsel;ugeuzaji;d;utambulisho;kujenga;wasiwasi;NA;NA;NA;"c(""distractor1"", ""distractor2"", ""distractor3"")";NA;NA;NA;NA;NA;NA;NA;NA;NA;NA;NA;NA;NA;NA;NA;NA;NA;NA;NA;;;;
5d66f;Shallow;Question;html.Page;2_15_0_0;NA;NA;form;submission;3875.789;216073.8;216072.256;216088.911;219964.7;219964.9;2023-05-28T13:19:32Z;219985.353;Niveau;kiwango;d;usimamizi;mwamali;mshairi;kiwango;NA;NA;"c(""distractor1"", ""distractor2"", ""distractor3"")";NA;NA;NA;NA;NA;NA;NA;NA;NA;NA;NA;NA;NA;NA;NA;NA;NA;NA;NA;;
5d66f;Save;data;screen;canvas.Screen;2_15_0_1;NA;NA;timeout;499.911;219965.7;219968.78;219985.353;220468.645;220469.6;2023-05-28T13:19:33Z;220485.264;Niveau;kiwango;d;usimamizi;mwamali;mshairi;NA;NA;1;"c(""distractor1"", ""distractor2"", ""distractor3"")";NA;NA;NA;NA;NA;NA;NA;NA;NA;NA;NA;NA;NA;NA;NA;NA;NA;NA;NA;;
5d66f;shallow;flow.Sequence;2_15_0;NA;NA;completion;4379.734;216073.7;216072.256;216088.911;220468.645;220469.9;2023-05-28T13:19:33Z;220485.264;Niveau;kiwango;d;usimamizi;mwamali;mshairi;NA;NA;NA;"c(""distractor1"", ""distractor2"", ""distractor3"")";NA;NA;NA;NA;NA;NA;NA;NA;NA;NA;NA;NA;NA;NA;NA;NA;NA;NA;NA;;;;
5d66f;task;flow.Sequence;2_15;NA;NA;completion;4379.734;216073.7;216072.256;216088.911;220468.645;220470.1;2023-05-28T13:19:33Z;220485.264;Niveau;kiwango;d;usimamizi;mwamali;mshairi;NA;NA;NA;"c(""distractor1"", ""distractor2"", ""distractor3"")";NA;NA;NA;NA;NA;NA;NA;NA;NA;NA;NA;NA;NA;NA;NA;NA;NA;NA;NA;;;;
5d66f;retrieval;block;2;(multiple;choice);flow.Loop;2;NA;NA;completion;77836.341;142617.4;142615.905;142632.304;220468.645;220470.2;2023-05-28T13:19:33Z;220485.264;NA;NA;NA;NA;NA;NA;NA;NA;NA;"c(""distractor1"", ""distractor2"", ""distractor3"")";NA;NA;NA;NA;NA;NA;NA;NA;NA;NA;NA;NA;NA;NA;NA;NA;NA;NA;NA
5d66f;End;canvas.Screen;3;NA;keypress(Space);response;1773.036;220470.3;220468.645;220485.264;222258.3;222259.4;2023-05-28T13:19:35Z;222283.825;NA;NA;NA;NA;NA;NA;NA;NA;NA;NULL;NA;NA;NA;NA;NA;NA;NA;NA;NA;NA;NA;NA;NA;NA;NA;NA;NA;NA;NA;;;;
5d66f;root;flow.Sequence;NA;NA;NA;completion;221193.05;1046.7;1031.948;1065.25;222258.3;222259.9;2023-05-28T13:19:35Z;222283.825;NA;NA;NA;NA;NA;NA;NA;NA;NA;NULL;NA;NA;NA;NA;NA;NA;NA;NA;NA;NA;NA;NA;NA;NA;NA;NA;NA;NA;NA;;;;
