observation,sender,sender_type,sender_id,response,response_action,ended_on,duration,time_run,time_render,time_show,time_end,time_commit,timestamp,time_switch,german,swahili,enc,distractor1,distractor2,distractor3,response_2,x,correct,distractors,url_vp,url_sess,meta_labjs_version,meta_location,meta_user_agent,meta_platform,meta_language,meta_locale,meta_time_zone,meta_timezone_offset,meta_screen_width,meta_screen_height,meta_scroll_width,meta_scroll_height,meta_window_inner_width,meta_window_inner_height,meta_device_pixel_ratio,meta_labjs_build_flavor,meta_labjs_build_commit
2afd3,Introduction delayed retrieval,canvas.Screen,0,weiter,keypress(Space),response,24538.18,1325,1335.22,1351.82,25890,25920,2023-05-03T16:49:32Z,25968.98,NA,NA,NA,NA,NA,NA,NA,NA,NA,NULL,213,2,20.2.4,https://neurocog.fernuni.ch/studies/vweber/sfink/delayed/index.html?vp=213&sess=2,Mozilla/5.0 (Windows NT 10.0; Win64; x64; rv:109.0) Gecko/20100101 Firefox/112.0,Win32,de,de-CH,Europe/Zurich,-120,1368,912,1368,731,1368,779,2,production,f5b4a49f956347addd546a832a3327688c2c0fef
2afd3,Deep Question,html.Page,1_0_0_0,NA,NA,form submission,28090.02,25926,25926.52,25968.98,54059,54060,2023-05-03T16:50:00Z,54088.12,Übersicht,kilindo,s,mgusano,chipukizi,kulinganisha,maegesho,NA,NA,NULL,NA,NA,NA,NA,NA,NA,NA,NA,NA,NA,NA,NA,NA,NA,NA,NA,NA,NA,NA
2afd3,Save data screen,canvas.Screen,1_0_0_1,NA,NA,timeout,500.02,54066,54058.46,54088.12,54571.52,54575,2023-05-03T16:50:00Z,54588.14,Übersicht,kilindo,s,mgusano,chipukizi,kulinganisha,NA,NA,0,NULL,NA,NA,NA,NA,NA,NA,NA,NA,NA,NA,NA,NA,NA,NA,NA,NA,NA,NA,NA
2afd3,deep,flow.Sequence,1_0_0,NA,NA,completion,28602.54,25925,25926.52,25968.98,54571.52,54576,2023-05-03T16:50:00Z,54588.14,Übersicht,kilindo,s,mgusano,chipukizi,kulinganisha,NA,NA,NA,NULL,NA,NA,NA,NA,NA,NA,NA,NA,NA,NA,NA,NA,NA,NA,NA,NA,NA,NA,NA
2afd3,task,flow.Sequence,1_0,NA,NA,completion,28602.54,25924,25926.52,25968.98,54571.52,54577,2023-05-03T16:50:00Z,54588.14,Übersicht,kilindo,s,mgusano,chipukizi,kulinganisha,NA,NA,NA,NULL,NA,NA,NA,NA,NA,NA,NA,NA,NA,NA,NA,NA,NA,NA,NA,NA,NA,NA,NA
2afd3,Deep Question,html.Page,1_1_0_0,NA,NA,form submission,32021.86,54579,54571.52,54588.14,86610,86611,2023-05-03T16:50:32Z,86610.86,Lawine,banguko,d,maambukizi,usuluhishi,chekechea,imusij,NA,NA,NULL,NA,NA,NA,NA,NA,NA,NA,NA,NA,NA,NA,NA,NA,NA,NA,NA,NA,NA,NA
2afd3,Save data screen,canvas.Screen,1_1_0_1,NA,NA,timeout,499.72,86620,86607.02,86610.86,87093.96,87096,2023-05-03T16:50:33Z,87110.58,Lawine,banguko,d,maambukizi,usuluhishi,chekechea,NA,NA,0,NULL,NA,NA,NA,NA,NA,NA,NA,NA,NA,NA,NA,NA,NA,NA,NA,NA,NA,NA,NA
2afd3,deep,flow.Sequence,1_1_0,NA,NA,completion,32505.82,54579,54571.52,54588.14,87093.96,87098,2023-05-03T16:50:33Z,87110.58,Lawine,banguko,d,maambukizi,usuluhishi,chekechea,NA,NA,NA,NULL,NA,NA,NA,NA,NA,NA,NA,NA,NA,NA,NA,NA,NA,NA,NA,NA,NA,NA,NA
2afd3,task,flow.Sequence,1_1,NA,NA,completion,32505.82,54578,54571.52,54588.14,87093.96,87100,2023-05-03T16:50:33Z,87110.58,Lawine,banguko,d,maambukizi,usuluhishi,chekechea,NA,NA,NA,NULL,NA,NA,NA,NA,NA,NA,NA,NA,NA,NA,NA,NA,NA,NA,NA,NA,NA,NA,NA
2afd3,Deep Question,html.Page,1_2_0_0,NA,NA,form submission,17637.42,87102,87093.96,87110.58,104748,104748,2023-05-03T16:50:50Z,104747.3,Abrechnung,uhasibu,s,kusahihisha,mpambano,mashambulizi,jj,NA,NA,NULL,NA,NA,NA,NA,NA,NA,NA,NA,NA,NA,NA,NA,NA,NA,NA,NA,NA,NA,NA
2afd3,Save data screen,canvas.Screen,1_2_0_1,NA,NA,timeout,492.45999999999,104752,104746.84,104747.3,105223.16,105225,2023-05-03T16:50:51Z,105239.76,Abrechnung,uhasibu,s,kusahihisha,mpambano,mashambulizi,NA,NA,0,NULL,NA,NA,NA,NA,NA,NA,NA,NA,NA,NA,NA,NA,NA,NA,NA,NA,NA,NA,NA
2afd3,deep,flow.Sequence,1_2_0,NA,NA,completion,18112.58,87102,87093.96,87110.58,105223.16,105229,2023-05-03T16:50:51Z,105239.76,Abrechnung,uhasibu,s,kusahihisha,mpambano,mashambulizi,NA,NA,NA,NULL,NA,NA,NA,NA,NA,NA,NA,NA,NA,NA,NA,NA,NA,NA,NA,NA,NA,NA,NA
2afd3,task,flow.Sequence,1_2,NA,NA,completion,18112.58,87102,87093.96,87110.58,105223.16,105230,2023-05-03T16:50:51Z,105239.76,Abrechnung,uhasibu,s,kusahihisha,mpambano,mashambulizi,NA,NA,NA,NULL,NA,NA,NA,NA,NA,NA,NA,NA,NA,NA,NA,NA,NA,NA,NA,NA,NA,NA,NA
2afd3,Deep Question,html.Page,1_3_0_0,NA,NA,form submission,74458.24,105231,105223.16,105239.76,179698,179699,2023-05-03T16:52:05Z,179697.94,Sänger,mwimbaji,d,msichana,shughuli,mshirika,msawena,NA,NA,NULL,NA,NA,NA,NA,NA,NA,NA,NA,NA,NA,NA,NA,NA,NA,NA,NA,NA,NA,NA
2afd3,Save data screen,canvas.Screen,1_3_0_1,NA,NA,timeout,493.22,179702,179697.54,179697.94,180174.56,180177,2023-05-03T16:52:06Z,180191.16,Sänger,mwimbaji,d,msichana,shughuli,mshirika,NA,NA,0,NULL,NA,NA,NA,NA,NA,NA,NA,NA,NA,NA,NA,NA,NA,NA,NA,NA,NA,NA,NA
2afd3,deep,flow.Sequence,1_3_0,NA,NA,completion,74934.8,105231,105223.16,105239.76,180174.56,180178,2023-05-03T16:52:06Z,180191.16,Sänger,mwimbaji,d,msichana,shughuli,mshirika,NA,NA,NA,NULL,NA,NA,NA,NA,NA,NA,NA,NA,NA,NA,NA,NA,NA,NA,NA,NA,NA,NA,NA
2afd3,task,flow.Sequence,1_3,NA,NA,completion,74934.8,105230,105223.16,105239.76,180174.56,180179,2023-05-03T16:52:06Z,180191.16,Sänger,mwimbaji,d,msichana,shughuli,mshirika,NA,NA,NA,NULL,NA,NA,NA,NA,NA,NA,NA,NA,NA,NA,NA,NA,NA,NA,NA,NA,NA,NA,NA
2afd3,Deep Question,html.Page,1_4_0_0,NA,NA,form submission,110881.84,180180,180174.56,180191.16,291073,291074,2023-05-03T16:53:57Z,291073.28,Kultur,utamaduni,s,shetani,gerezani,mazingira,jj,NA,NA,NULL,NA,NA,NA,NA,NA,NA,NA,NA,NA,NA,NA,NA,NA,NA,NA,NA,NA,NA,NA
2afd3,Save data screen,canvas.Screen,1_4_0_1,NA,NA,timeout,494.77999999997,291077,291072.98,291073.28,291551.44,291557,2023-05-03T16:53:57Z,291568.06,Kultur,utamaduni,s,shetani,gerezani,mazingira,NA,NA,0,NULL,NA,NA,NA,NA,NA,NA,NA,NA,NA,NA,NA,NA,NA,NA,NA,NA,NA,NA,NA
2afd3,deep,flow.Sequence,1_4_0,NA,NA,completion,111360.28,180179,180174.56,180191.16,291551.44,291563,2023-05-03T16:53:57Z,291568.06,Kultur,utamaduni,s,shetani,gerezani,mazingira,NA,NA,NA,NULL,NA,NA,NA,NA,NA,NA,NA,NA,NA,NA,NA,NA,NA,NA,NA,NA,NA,NA,NA
2afd3,task,flow.Sequence,1_4,NA,NA,completion,111360.28,180179,180174.56,180191.16,291551.44,291565,2023-05-03T16:53:57Z,291568.06,Kultur,utamaduni,s,shetani,gerezani,mazingira,NA,NA,NA,NULL,NA,NA,NA,NA,NA,NA,NA,NA,NA,NA,NA,NA,NA,NA,NA,NA,NA,NA,NA
2afd3,Deep Question,html.Page,1_5_0_0,NA,NA,form submission,22300.94,291567,291551.44,291568.06,313869,313869,2023-05-03T16:54:19Z,313883.74,Angreifer,mshambulizi,d,kitengo,tasinia,usafirishaji,mshindani,NA,NA,NULL,NA,NA,NA,NA,NA,NA,NA,NA,NA,NA,NA,NA,NA,NA,NA,NA,NA,NA,NA
2afd3,Save data screen,canvas.Screen,1_5_0_1,NA,NA,timeout,499.91999999998,313876,313867.4,313883.74,314367.06,314369,2023-05-03T16:54:20Z,314383.66,Angreifer,mshambulizi,d,kitengo,tasinia,usafirishaji,NA,NA,0,NULL,NA,NA,NA,NA,NA,NA,NA,NA,NA,NA,NA,NA,NA,NA,NA,NA,NA,NA,NA
2afd3,deep,flow.Sequence,1_5_0,NA,NA,completion,22799,291566,291551.44,291568.06,314367.06,314371,2023-05-03T16:54:20Z,314383.66,Angreifer,mshambulizi,d,kitengo,tasinia,usafirishaji,NA,NA,NA,NULL,NA,NA,NA,NA,NA,NA,NA,NA,NA,NA,NA,NA,NA,NA,NA,NA,NA,NA,NA
2afd3,task,flow.Sequence,1_5,NA,NA,completion,22799,291566,291551.44,291568.06,314367.06,314373,2023-05-03T16:54:20Z,314383.66,Angreifer,mshambulizi,d,kitengo,tasinia,usafirishaji,NA,NA,NA,NULL,NA,NA,NA,NA,NA,NA,NA,NA,NA,NA,NA,NA,NA,NA,NA,NA,NA,NA,NA
2afd3,Deep Question,html.Page,1_6_0_0,NA,NA,form submission,13952.34,314374,314367.06,314383.66,328336,328337,2023-05-03T16:54:34Z,328343.16,Kontrolle,kudhibiti,s,mbinguni,kufunga,utegemezi,jj,NA,NA,NULL,NA,NA,NA,NA,NA,NA,NA,NA,NA,NA,NA,NA,NA,NA,NA,NA,NA,NA,NA
2afd3,Save data screen,canvas.Screen,1_6_0_1,NA,NA,timeout,500.32000000001,328341,328335.44,328343.16,328826.86,328829,2023-05-03T16:54:34Z,328843.48,Kontrolle,kudhibiti,s,mbinguni,kufunga,utegemezi,NA,NA,0,NULL,NA,NA,NA,NA,NA,NA,NA,NA,NA,NA,NA,NA,NA,NA,NA,NA,NA,NA,NA
2afd3,deep,flow.Sequence,1_6_0,NA,NA,completion,14443.2,314374,314367.06,314383.66,328826.86,328830,2023-05-03T16:54:34Z,328843.48,Kontrolle,kudhibiti,s,mbinguni,kufunga,utegemezi,NA,NA,NA,NULL,NA,NA,NA,NA,NA,NA,NA,NA,NA,NA,NA,NA,NA,NA,NA,NA,NA,NA,NA
2afd3,task,flow.Sequence,1_6,NA,NA,completion,14443.2,314373,314367.06,314383.66,328826.86,328832,2023-05-03T16:54:34Z,328843.48,Kontrolle,kudhibiti,s,mbinguni,kufunga,utegemezi,NA,NA,NA,NULL,NA,NA,NA,NA,NA,NA,NA,NA,NA,NA,NA,NA,NA,NA,NA,NA,NA,NA,NA
2afd3,Deep Question,html.Page,1_7_0_0,NA,NA,form submission,43106.52,328834,328826.86,328843.48,371950,371952,2023-05-03T16:55:18Z,371957.2,Prüfung,mtihani,d,mkulima,mtizamo,ufumbuzi,jj,NA,NA,NULL,NA,NA,NA,NA,NA,NA,NA,NA,NA,NA,NA,NA,NA,NA,NA,NA,NA,NA,NA
2afd3,Save data screen,canvas.Screen,1_7_0_1,NA,NA,timeout,499.58000000002,371960,371946.84,371957.2,372440.16,372443,2023-05-03T16:55:18Z,372456.78,Prüfung,mtihani,d,mkulima,mtizamo,ufumbuzi,NA,NA,0,NULL,NA,NA,NA,NA,NA,NA,NA,NA,NA,NA,NA,NA,NA,NA,NA,NA,NA,NA,NA
2afd3,deep,flow.Sequence,1_7_0,NA,NA,completion,43596.68,328834,328826.86,328843.48,372440.16,372445,2023-05-03T16:55:18Z,372456.78,Prüfung,mtihani,d,mkulima,mtizamo,ufumbuzi,NA,NA,NA,NULL,NA,NA,NA,NA,NA,NA,NA,NA,NA,NA,NA,NA,NA,NA,NA,NA,NA,NA,NA
2afd3,task,flow.Sequence,1_7,NA,NA,completion,43596.68,328834,328826.86,328843.48,372440.16,372447,2023-05-03T16:55:18Z,372456.78,Prüfung,mtihani,d,mkulima,mtizamo,ufumbuzi,NA,NA,NA,NULL,NA,NA,NA,NA,NA,NA,NA,NA,NA,NA,NA,NA,NA,NA,NA,NA,NA,NA,NA
2afd3,Deep Question,html.Page,1_8_0_0,NA,NA,form submission,19491.22,372448,372440.16,372456.78,391948,391948,2023-05-03T16:55:38Z,391954.22,Kreativität,ubunifu,d,mratibu,mwendelezo,makubaliano,ubunifun,NA,NA,NULL,NA,NA,NA,NA,NA,NA,NA,NA,NA,NA,NA,NA,NA,NA,NA,NA,NA,NA,NA
2afd3,Save data screen,canvas.Screen,1_8_0_1,NA,NA,timeout,499.76000000001,391952,391946.86,391954.22,392437.36,392439,2023-05-03T16:55:38Z,392453.98,Kreativität,ubunifu,d,mratibu,mwendelezo,makubaliano,NA,NA,0,NULL,NA,NA,NA,NA,NA,NA,NA,NA,NA,NA,NA,NA,NA,NA,NA,NA,NA,NA,NA
2afd3,deep,flow.Sequence,1_8_0,NA,NA,completion,19980.58,372448,372440.16,372456.78,392437.36,392443,2023-05-03T16:55:38Z,392453.98,Kreativität,ubunifu,d,mratibu,mwendelezo,makubaliano,NA,NA,NA,NULL,NA,NA,NA,NA,NA,NA,NA,NA,NA,NA,NA,NA,NA,NA,NA,NA,NA,NA,NA
2afd3,task,flow.Sequence,1_8,NA,NA,completion,19980.58,372448,372440.16,372456.78,392437.36,392445,2023-05-03T16:55:38Z,392453.98,Kreativität,ubunifu,d,mratibu,mwendelezo,makubaliano,NA,NA,NA,NULL,NA,NA,NA,NA,NA,NA,NA,NA,NA,NA,NA,NA,NA,NA,NA,NA,NA,NA,NA
2afd3,Deep Question,html.Page,1_9_0_0,NA,NA,form submission,20334.02,392446,392437.36,392453.98,412788,412789,2023-05-03T16:55:58Z,412787.98,Können,unaweza,d,kiongozi,bustani,mienendo,unaweza,NA,NA,NULL,NA,NA,NA,NA,NA,NA,NA,NA,NA,NA,NA,NA,NA,NA,NA,NA,NA,NA,NA
2afd3,Save data screen,canvas.Screen,1_9_0_1,NA,NA,timeout,497.06,412792,412787.58,412787.98,413268.42,413270,2023-05-03T16:55:59Z,413285.04,Können,unaweza,d,kiongozi,bustani,mienendo,NA,NA,1,NULL,NA,NA,NA,NA,NA,NA,NA,NA,NA,NA,NA,NA,NA,NA,NA,NA,NA,NA,NA
2afd3,deep,flow.Sequence,1_9_0,NA,NA,completion,20814.44,392446,392437.36,392453.98,413268.42,413273,2023-05-03T16:55:59Z,413285.04,Können,unaweza,d,kiongozi,bustani,mienendo,NA,NA,NA,NULL,NA,NA,NA,NA,NA,NA,NA,NA,NA,NA,NA,NA,NA,NA,NA,NA,NA,NA,NA
2afd3,task,flow.Sequence,1_9,NA,NA,completion,20814.44,392446,392437.36,392453.98,413268.42,413275,2023-05-03T16:55:59Z,413285.04,Können,unaweza,d,kiongozi,bustani,mienendo,NA,NA,NA,NULL,NA,NA,NA,NA,NA,NA,NA,NA,NA,NA,NA,NA,NA,NA,NA,NA,NA,NA,NA
2afd3,Deep Question,html.Page,1_10_0_0,NA,NA,form submission,66303.96,413276,413268.42,413285.04,479589,479590,2023-05-03T16:57:05Z,479597.56,Gefährdung,kuhatarisha,s,uchokozi,udhaifu,makorowezo,mahilis,NA,NA,NULL,NA,NA,NA,NA,NA,NA,NA,NA,NA,NA,NA,NA,NA,NA,NA,NA,NA,NA,NA
2afd3,Save data screen,canvas.Screen,1_10_0_1,NA,NA,timeout,499.91999999998,479593,479588.28,479597.56,480080.88,480088,2023-05-03T16:57:06Z,480097.48,Gefährdung,kuhatarisha,s,uchokozi,udhaifu,makorowezo,NA,NA,0,NULL,NA,NA,NA,NA,NA,NA,NA,NA,NA,NA,NA,NA,NA,NA,NA,NA,NA,NA,NA
2afd3,deep,flow.Sequence,1_10_0,NA,NA,completion,66795.84,413276,413268.42,413285.04,480080.88,480093,2023-05-03T16:57:06Z,480097.48,Gefährdung,kuhatarisha,s,uchokozi,udhaifu,makorowezo,NA,NA,NA,NULL,NA,NA,NA,NA,NA,NA,NA,NA,NA,NA,NA,NA,NA,NA,NA,NA,NA,NA,NA
2afd3,task,flow.Sequence,1_10,NA,NA,completion,66795.84,413275,413268.42,413285.04,480080.88,480095,2023-05-03T16:57:06Z,480097.48,Gefährdung,kuhatarisha,s,uchokozi,udhaifu,makorowezo,NA,NA,NA,NULL,NA,NA,NA,NA,NA,NA,NA,NA,NA,NA,NA,NA,NA,NA,NA,NA,NA,NA,NA
2afd3,Deep Question,html.Page,1_11_0_0,NA,NA,form submission,52134.52,480101,480080.88,480097.48,532232,532233,2023-05-03T16:57:58Z,532234.12,Aufstand,ugomaji,d,mazidio,msingi,kujieleza,ugodihi,NA,NA,NULL,NA,NA,NA,NA,NA,NA,NA,NA,NA,NA,NA,NA,NA,NA,NA,NA,NA,NA,NA
2afd3,Save data screen,canvas.Screen,1_11_0_1,NA,NA,timeout,499.68000000005,532239,532230.04,532234.12,532717.2,532720,2023-05-03T16:57:58Z,532733.8,Aufstand,ugomaji,d,mazidio,msingi,kujieleza,NA,NA,0,NULL,NA,NA,NA,NA,NA,NA,NA,NA,NA,NA,NA,NA,NA,NA,NA,NA,NA,NA,NA
2afd3,deep,flow.Sequence,1_11_0,NA,NA,completion,52619.72,480101,480080.88,480097.48,532717.2,532721,2023-05-03T16:57:58Z,532733.8,Aufstand,ugomaji,d,mazidio,msingi,kujieleza,NA,NA,NA,NULL,NA,NA,NA,NA,NA,NA,NA,NA,NA,NA,NA,NA,NA,NA,NA,NA,NA,NA,NA
2afd3,task,flow.Sequence,1_11,NA,NA,completion,52619.72,480101,480080.88,480097.48,532717.2,532723,2023-05-03T16:57:58Z,532733.8,Aufstand,ugomaji,d,mazidio,msingi,kujieleza,NA,NA,NA,NULL,NA,NA,NA,NA,NA,NA,NA,NA,NA,NA,NA,NA,NA,NA,NA,NA,NA,NA,NA
2afd3,Deep Question,html.Page,1_12_0_0,NA,NA,form submission,35090.2,532724,532717.2,532733.8,567824,567827,2023-05-03T16:58:33Z,567841.38,Körper,kiwiliwili,s,mapambano,mpatanishi,kiolezo,hiwiliwili,NA,NA,NULL,NA,NA,NA,NA,NA,NA,NA,NA,NA,NA,NA,NA,NA,NA,NA,NA,NA,NA,NA
2afd3,Save data screen,canvas.Screen,1_12_0_1,NA,NA,timeout,500.21999999997,567838,567821.06,567841.38,568324.98,568328,2023-05-03T16:58:34Z,568341.6,Körper,kiwiliwili,s,mapambano,mpatanishi,kiolezo,NA,NA,0,NULL,NA,NA,NA,NA,NA,NA,NA,NA,NA,NA,NA,NA,NA,NA,NA,NA,NA,NA,NA
2afd3,deep,flow.Sequence,1_12_0,NA,NA,completion,35591.18,532723,532717.2,532733.8,568324.98,568330,2023-05-03T16:58:34Z,568341.6,Körper,kiwiliwili,s,mapambano,mpatanishi,kiolezo,NA,NA,NA,NULL,NA,NA,NA,NA,NA,NA,NA,NA,NA,NA,NA,NA,NA,NA,NA,NA,NA,NA,NA
2afd3,task,flow.Sequence,1_12,NA,NA,completion,35591.18,532723,532717.2,532733.8,568324.98,568333,2023-05-03T16:58:34Z,568341.6,Körper,kiwiliwili,s,mapambano,mpatanishi,kiolezo,NA,NA,NA,NULL,NA,NA,NA,NA,NA,NA,NA,NA,NA,NA,NA,NA,NA,NA,NA,NA,NA,NA,NA
2afd3,Deep Question,html.Page,1_13_0_0,NA,NA,form submission,26529.4,568335,568324.98,568341.6,594871,594872,2023-05-03T16:59:00Z,594877.2,Kanzler,diwani,s,rasilmali,mahitaji,maabudu,ashini,NA,NA,NULL,NA,NA,NA,NA,NA,NA,NA,NA,NA,NA,NA,NA,NA,NA,NA,NA,NA,NA,NA
2afd3,Save data screen,canvas.Screen,1_13_0_1,NA,NA,timeout,499.66000000003,594875,594870.18,594877.2,595360.24,595363,2023-05-03T16:59:01Z,595376.86,Kanzler,diwani,s,rasilmali,mahitaji,maabudu,NA,NA,0,NULL,NA,NA,NA,NA,NA,NA,NA,NA,NA,NA,NA,NA,NA,NA,NA,NA,NA,NA,NA
2afd3,deep,flow.Sequence,1_13_0,NA,NA,completion,27018.64,568335,568324.98,568341.6,595360.24,595364,2023-05-03T16:59:01Z,595376.86,Kanzler,diwani,s,rasilmali,mahitaji,maabudu,NA,NA,NA,NULL,NA,NA,NA,NA,NA,NA,NA,NA,NA,NA,NA,NA,NA,NA,NA,NA,NA,NA,NA
2afd3,task,flow.Sequence,1_13,NA,NA,completion,27018.64,568334,568324.98,568341.6,595360.24,595366,2023-05-03T16:59:01Z,595376.86,Kanzler,diwani,s,rasilmali,mahitaji,maabudu,NA,NA,NA,NULL,NA,NA,NA,NA,NA,NA,NA,NA,NA,NA,NA,NA,NA,NA,NA,NA,NA,NA,NA
2afd3,Deep Question,html.Page,1_14_0_0,NA,NA,form submission,30294.14,595367,595360.24,595376.86,625671,625671,2023-05-03T16:59:31Z,625681.54,System,maongozi,d,chokochoko,nuksani,mitaani,uongozij,NA,NA,NULL,NA,NA,NA,NA,NA,NA,NA,NA,NA,NA,NA,NA,NA,NA,NA,NA,NA,NA,NA
2afd3,Save data screen,canvas.Screen,1_14_0_1,NA,NA,timeout,499.76000000001,625673,625670,625681.54,626164.68,626167,2023-05-03T16:59:32Z,626181.3,System,maongozi,d,chokochoko,nuksani,mitaani,NA,NA,0,NULL,NA,NA,NA,NA,NA,NA,NA,NA,NA,NA,NA,NA,NA,NA,NA,NA,NA,NA,NA
2afd3,deep,flow.Sequence,1_14_0,NA,NA,completion,30787.82,595367,595360.24,595376.86,626164.68,626168,2023-05-03T16:59:32Z,626181.3,System,maongozi,d,chokochoko,nuksani,mitaani,NA,NA,NA,NULL,NA,NA,NA,NA,NA,NA,NA,NA,NA,NA,NA,NA,NA,NA,NA,NA,NA,NA,NA
2afd3,task,flow.Sequence,1_14,NA,NA,completion,30787.82,595366,595360.24,595376.86,626164.68,626170,2023-05-03T16:59:32Z,626181.3,System,maongozi,d,chokochoko,nuksani,mitaani,NA,NA,NA,NULL,NA,NA,NA,NA,NA,NA,NA,NA,NA,NA,NA,NA,NA,NA,NA,NA,NA,NA,NA
2afd3,Deep Question,html.Page,1_15_0_0,NA,NA,form submission,14849.7,626171,626164.68,626181.3,641031,641032,2023-05-03T16:59:47Z,641042.22,Verzögerung,kuchelewa,s,mwakilishi,mwanauchumi,jaribio,kuchelewa,NA,NA,NULL,NA,NA,NA,NA,NA,NA,NA,NA,NA,NA,NA,NA,NA,NA,NA,NA,NA,NA,NA
2afd3,Save data screen,canvas.Screen,1_15_0_1,NA,NA,timeout,499.90000000002,641034,641030.64,641042.22,641525.5,641531,2023-05-03T16:59:47Z,641542.12,Verzögerung,kuchelewa,s,mwakilishi,mwanauchumi,jaribio,NA,NA,1,NULL,NA,NA,NA,NA,NA,NA,NA,NA,NA,NA,NA,NA,NA,NA,NA,NA,NA,NA,NA
2afd3,deep,flow.Sequence,1_15_0,NA,NA,completion,15344.2,626170,626164.68,626181.3,641525.5,641536,2023-05-03T16:59:47Z,641542.12,Verzögerung,kuchelewa,s,mwakilishi,mwanauchumi,jaribio,NA,NA,NA,NULL,NA,NA,NA,NA,NA,NA,NA,NA,NA,NA,NA,NA,NA,NA,NA,NA,NA,NA,NA
2afd3,task,flow.Sequence,1_15,NA,NA,completion,15344.2,626170,626164.68,626181.3,641525.5,641538,2023-05-03T16:59:47Z,641542.12,Verzögerung,kuchelewa,s,mwakilishi,mwanauchumi,jaribio,NA,NA,NA,NULL,NA,NA,NA,NA,NA,NA,NA,NA,NA,NA,NA,NA,NA,NA,NA,NA,NA,NA,NA
2afd3,retrieval block 1 (cued recall),flow.Loop,1,NA,NA,completion,615556.52,25924,25926.52,25968.98,641525.5,641540,2023-05-03T16:59:47Z,641542.12,NA,NA,NA,NA,NA,NA,NA,NA,NA,NULL,NA,NA,NA,NA,NA,NA,NA,NA,NA,NA,NA,NA,NA,NA,NA,NA,NA,NA,NA
2afd3,Shallow Question,html.Page,2_0_0_0,NA,NA,form submission,6441.88,641543,641525.5,641542.12,647984,647985,2023-05-03T16:59:54Z,647983.08,Können,unaweza,d,kiongozi,bustani,mienendo,unaweza,NA,NA,"c(""distractor1"", ""distractor2"", ""distractor3"")",NA,NA,NA,NA,NA,NA,NA,NA,NA,NA,NA,NA,NA,NA,NA,NA,NA,NA,NA
2afd3,Save data screen,canvas.Screen,2_0_0_1,NA,NA,timeout,497.16000000003,647989,647982.54,647983.08,648463.62,648466,2023-05-03T16:59:54Z,648480.24,Können,unaweza,d,kiongozi,bustani,mienendo,NA,NA,1,"c(""distractor1"", ""distractor2"", ""distractor3"")",NA,NA,NA,NA,NA,NA,NA,NA,NA,NA,NA,NA,NA,NA,NA,NA,NA,NA,NA
2afd3,shallow,flow.Sequence,2_0_0,NA,NA,completion,6921.5,641543,641525.5,641542.12,648463.62,648470,2023-05-03T16:59:54Z,648480.24,Können,unaweza,d,kiongozi,bustani,mienendo,NA,NA,NA,"c(""distractor1"", ""distractor2"", ""distractor3"")",NA,NA,NA,NA,NA,NA,NA,NA,NA,NA,NA,NA,NA,NA,NA,NA,NA,NA,NA
2afd3,task,flow.Sequence,2_0,NA,NA,completion,6921.5,641542,641525.5,641542.12,648463.62,648473,2023-05-03T16:59:54Z,648480.24,Können,unaweza,d,kiongozi,bustani,mienendo,NA,NA,NA,"c(""distractor1"", ""distractor2"", ""distractor3"")",NA,NA,NA,NA,NA,NA,NA,NA,NA,NA,NA,NA,NA,NA,NA,NA,NA,NA,NA
2afd3,Shallow Question,html.Page,2_1_0_0,NA,NA,form submission,4461.76,648476,648463.62,648480.24,652942,652942,2023-05-03T16:59:59Z,652941.54,Kultur,utamaduni,s,shetani,gerezani,mazingira,utamaduni,NA,NA,"c(""distractor1"", ""distractor2"", ""distractor3"")",NA,NA,NA,NA,NA,NA,NA,NA,NA,NA,NA,NA,NA,NA,NA,NA,NA,NA,NA
2afd3,Save data screen,canvas.Screen,2_1_0_1,NA,NA,timeout,491.88,652945,652941.08,652941.54,653416.8,653419,2023-05-03T16:59:59Z,653433.42,Kultur,utamaduni,s,shetani,gerezani,mazingira,NA,NA,1,"c(""distractor1"", ""distractor2"", ""distractor3"")",NA,NA,NA,NA,NA,NA,NA,NA,NA,NA,NA,NA,NA,NA,NA,NA,NA,NA,NA
2afd3,shallow,flow.Sequence,2_1_0,NA,NA,completion,4936.5600000001,648475,648463.62,648480.24,653416.8,653421,2023-05-03T16:59:59Z,653433.42,Kultur,utamaduni,s,shetani,gerezani,mazingira,NA,NA,NA,"c(""distractor1"", ""distractor2"", ""distractor3"")",NA,NA,NA,NA,NA,NA,NA,NA,NA,NA,NA,NA,NA,NA,NA,NA,NA,NA,NA
2afd3,task,flow.Sequence,2_1,NA,NA,completion,4936.5600000001,648475,648463.62,648480.24,653416.8,653422,2023-05-03T16:59:59Z,653433.42,Kultur,utamaduni,s,shetani,gerezani,mazingira,NA,NA,NA,"c(""distractor1"", ""distractor2"", ""distractor3"")",NA,NA,NA,NA,NA,NA,NA,NA,NA,NA,NA,NA,NA,NA,NA,NA,NA,NA,NA
2afd3,Shallow Question,html.Page,2_2_0_0,NA,NA,form submission,18299.58,653424,653416.8,653433.42,671733,671733,2023-05-03T17:00:17Z,671731.56,Abrechnung,uhasibu,s,kusahihisha,mpambano,mashambulizi,kusahihisha,NA,NA,"c(""distractor1"", ""distractor2"", ""distractor3"")",NA,NA,NA,NA,NA,NA,NA,NA,NA,NA,NA,NA,NA,NA,NA,NA,NA,NA,NA
2afd3,Save data screen,canvas.Screen,2_2_0_1,NA,NA,timeout,497.47999999998,671735,671731.08,671731.56,672212.42,672216,2023-05-03T17:00:18Z,672229.04,Abrechnung,uhasibu,s,kusahihisha,mpambano,mashambulizi,NA,NA,0,"c(""distractor1"", ""distractor2"", ""distractor3"")",NA,NA,NA,NA,NA,NA,NA,NA,NA,NA,NA,NA,NA,NA,NA,NA,NA,NA,NA
2afd3,shallow,flow.Sequence,2_2_0,NA,NA,completion,18779,653424,653416.8,653433.42,672212.42,672216,2023-05-03T17:00:18Z,672229.04,Abrechnung,uhasibu,s,kusahihisha,mpambano,mashambulizi,NA,NA,NA,"c(""distractor1"", ""distractor2"", ""distractor3"")",NA,NA,NA,NA,NA,NA,NA,NA,NA,NA,NA,NA,NA,NA,NA,NA,NA,NA,NA
2afd3,task,flow.Sequence,2_2,NA,NA,completion,18779,653423,653416.8,653433.42,672212.42,672218,2023-05-03T17:00:18Z,672229.04,Abrechnung,uhasibu,s,kusahihisha,mpambano,mashambulizi,NA,NA,NA,"c(""distractor1"", ""distractor2"", ""distractor3"")",NA,NA,NA,NA,NA,NA,NA,NA,NA,NA,NA,NA,NA,NA,NA,NA,NA,NA,NA
2afd3,Shallow Question,html.Page,2_3_0_0,NA,NA,form submission,3801.96,672219,672212.42,672229.04,676031,676032,2023-05-03T17:00:22Z,676032.5,Kreativität,ubunifu,d,mratibu,mwendelezo,makubaliano,ubunifu,NA,NA,"c(""distractor1"", ""distractor2"", ""distractor3"")",NA,NA,NA,NA,NA,NA,NA,NA,NA,NA,NA,NA,NA,NA,NA,NA,NA,NA,NA
2afd3,Save data screen,canvas.Screen,2_3_0_1,NA,NA,timeout,500.09999999998,676034,676031.02,676032.5,676515.98,676519,2023-05-03T17:00:22Z,676532.6,Kreativität,ubunifu,d,mratibu,mwendelezo,makubaliano,NA,NA,1,"c(""distractor1"", ""distractor2"", ""distractor3"")",NA,NA,NA,NA,NA,NA,NA,NA,NA,NA,NA,NA,NA,NA,NA,NA,NA,NA,NA
2afd3,shallow,flow.Sequence,2_3_0,NA,NA,completion,4286.9399999999,672219,672212.42,672229.04,676515.98,676520,2023-05-03T17:00:22Z,676532.6,Kreativität,ubunifu,d,mratibu,mwendelezo,makubaliano,NA,NA,NA,"c(""distractor1"", ""distractor2"", ""distractor3"")",NA,NA,NA,NA,NA,NA,NA,NA,NA,NA,NA,NA,NA,NA,NA,NA,NA,NA,NA
2afd3,task,flow.Sequence,2_3,NA,NA,completion,4286.9399999999,672219,672212.42,672229.04,676515.98,676520,2023-05-03T17:00:22Z,676532.6,Kreativität,ubunifu,d,mratibu,mwendelezo,makubaliano,NA,NA,NA,"c(""distractor1"", ""distractor2"", ""distractor3"")",NA,NA,NA,NA,NA,NA,NA,NA,NA,NA,NA,NA,NA,NA,NA,NA,NA,NA,NA
2afd3,Shallow Question,html.Page,2_4_0_0,NA,NA,form submission,7729.4,676521,676515.98,676532.6,684262,684263,2023-05-03T17:00:30Z,684262.3,Körper,kiwiliwili,s,mapambano,mpatanishi,kiolezo,kiwiliwili,NA,NA,"c(""distractor1"", ""distractor2"", ""distractor3"")",NA,NA,NA,NA,NA,NA,NA,NA,NA,NA,NA,NA,NA,NA,NA,NA,NA,NA,NA
2afd3,Save data screen,canvas.Screen,2_4_0_1,NA,NA,timeout,492.88,684265,684261.86,684262.3,684738.56,684741,2023-05-03T17:00:30Z,684755.18,Körper,kiwiliwili,s,mapambano,mpatanishi,kiolezo,NA,NA,1,"c(""distractor1"", ""distractor2"", ""distractor3"")",NA,NA,NA,NA,NA,NA,NA,NA,NA,NA,NA,NA,NA,NA,NA,NA,NA,NA,NA
2afd3,shallow,flow.Sequence,2_4_0,NA,NA,completion,8205.9600000001,676521,676515.98,676532.6,684738.56,684741,2023-05-03T17:00:30Z,684755.18,Körper,kiwiliwili,s,mapambano,mpatanishi,kiolezo,NA,NA,NA,"c(""distractor1"", ""distractor2"", ""distractor3"")",NA,NA,NA,NA,NA,NA,NA,NA,NA,NA,NA,NA,NA,NA,NA,NA,NA,NA,NA
2afd3,task,flow.Sequence,2_4,NA,NA,completion,8205.9600000001,676521,676515.98,676532.6,684738.56,684742,2023-05-03T17:00:30Z,684755.18,Körper,kiwiliwili,s,mapambano,mpatanishi,kiolezo,NA,NA,NA,"c(""distractor1"", ""distractor2"", ""distractor3"")",NA,NA,NA,NA,NA,NA,NA,NA,NA,NA,NA,NA,NA,NA,NA,NA,NA,NA,NA
2afd3,Shallow Question,html.Page,2_5_0_0,NA,NA,form submission,27871.82,684743,684738.56,684755.18,712627,712629,2023-05-03T17:00:58Z,712641.08,Lawine,banguko,d,maambukizi,usuluhishi,chekechea,usuluhishi,NA,NA,"c(""distractor1"", ""distractor2"", ""distractor3"")",NA,NA,NA,NA,NA,NA,NA,NA,NA,NA,NA,NA,NA,NA,NA,NA,NA,NA,NA
2afd3,Save data screen,canvas.Screen,2_5_0_1,NA,NA,timeout,500.16000000003,712637,712624.32,712641.08,713124.62,713128,2023-05-03T17:00:59Z,713141.24,Lawine,banguko,d,maambukizi,usuluhishi,chekechea,NA,NA,0,"c(""distractor1"", ""distractor2"", ""distractor3"")",NA,NA,NA,NA,NA,NA,NA,NA,NA,NA,NA,NA,NA,NA,NA,NA,NA,NA,NA
2afd3,shallow,flow.Sequence,2_5_0,NA,NA,completion,28369.44,684743,684738.56,684755.18,713124.62,713130,2023-05-03T17:00:59Z,713141.24,Lawine,banguko,d,maambukizi,usuluhishi,chekechea,NA,NA,NA,"c(""distractor1"", ""distractor2"", ""distractor3"")",NA,NA,NA,NA,NA,NA,NA,NA,NA,NA,NA,NA,NA,NA,NA,NA,NA,NA,NA
2afd3,task,flow.Sequence,2_5,NA,NA,completion,28369.44,684743,684738.56,684755.18,713124.62,713130,2023-05-03T17:00:59Z,713141.24,Lawine,banguko,d,maambukizi,usuluhishi,chekechea,NA,NA,NA,"c(""distractor1"", ""distractor2"", ""distractor3"")",NA,NA,NA,NA,NA,NA,NA,NA,NA,NA,NA,NA,NA,NA,NA,NA,NA,NA,NA
2afd3,Shallow Question,html.Page,2_6_0_0,NA,NA,form submission,9203.76,713133,713124.62,713141.24,722345,722345,2023-05-03T17:01:08Z,722348.18,System,maongozi,d,chokochoko,nuksani,mitaani,maongozi,NA,NA,"c(""distractor1"", ""distractor2"", ""distractor3"")",NA,NA,NA,NA,NA,NA,NA,NA,NA,NA,NA,NA,NA,NA,NA,NA,NA,NA,NA
2afd3,Save data screen,canvas.Screen,2_6_0_1,NA,NA,timeout,499.45999999996,722349,722344.24,722348.18,722831.04,722834,2023-05-03T17:01:08Z,722847.64,System,maongozi,d,chokochoko,nuksani,mitaani,NA,NA,1,"c(""distractor1"", ""distractor2"", ""distractor3"")",NA,NA,NA,NA,NA,NA,NA,NA,NA,NA,NA,NA,NA,NA,NA,NA,NA,NA,NA
2afd3,shallow,flow.Sequence,2_6_0,NA,NA,completion,9689.8,713132,713124.62,713141.24,722831.04,722835,2023-05-03T17:01:08Z,722847.64,System,maongozi,d,chokochoko,nuksani,mitaani,NA,NA,NA,"c(""distractor1"", ""distractor2"", ""distractor3"")",NA,NA,NA,NA,NA,NA,NA,NA,NA,NA,NA,NA,NA,NA,NA,NA,NA,NA,NA
2afd3,task,flow.Sequence,2_6,NA,NA,completion,9689.8,713132,713124.62,713141.24,722831.04,722836,2023-05-03T17:01:08Z,722847.64,System,maongozi,d,chokochoko,nuksani,mitaani,NA,NA,NA,"c(""distractor1"", ""distractor2"", ""distractor3"")",NA,NA,NA,NA,NA,NA,NA,NA,NA,NA,NA,NA,NA,NA,NA,NA,NA,NA,NA
2afd3,Shallow Question,html.Page,2_7_0_0,NA,NA,form submission,4544.36,722839,722831.04,722847.64,727392,727394,2023-05-03T17:01:13Z,727391.98,Verzögerung,kuchelewa,s,mwakilishi,mwanauchumi,jaribio,kuchelewa,NA,NA,"c(""distractor1"", ""distractor2"", ""distractor3"")",NA,NA,NA,NA,NA,NA,NA,NA,NA,NA,NA,NA,NA,NA,NA,NA,NA,NA,NA
2afd3,Save data screen,canvas.Screen,2_7_0_1,NA,NA,timeout,492.78000000003,727397,727391.54,727391.98,727868.14,727871,2023-05-03T17:01:13Z,727884.76,Verzögerung,kuchelewa,s,mwakilishi,mwanauchumi,jaribio,NA,NA,1,"c(""distractor1"", ""distractor2"", ""distractor3"")",NA,NA,NA,NA,NA,NA,NA,NA,NA,NA,NA,NA,NA,NA,NA,NA,NA,NA,NA
2afd3,shallow,flow.Sequence,2_7_0,NA,NA,completion,5020.5,722837,722831.04,722847.64,727868.14,727872,2023-05-03T17:01:13Z,727884.76,Verzögerung,kuchelewa,s,mwakilishi,mwanauchumi,jaribio,NA,NA,NA,"c(""distractor1"", ""distractor2"", ""distractor3"")",NA,NA,NA,NA,NA,NA,NA,NA,NA,NA,NA,NA,NA,NA,NA,NA,NA,NA,NA
2afd3,task,flow.Sequence,2_7,NA,NA,completion,5020.5,722837,722831.04,722847.64,727868.14,727874,2023-05-03T17:01:13Z,727884.76,Verzögerung,kuchelewa,s,mwakilishi,mwanauchumi,jaribio,NA,NA,NA,"c(""distractor1"", ""distractor2"", ""distractor3"")",NA,NA,NA,NA,NA,NA,NA,NA,NA,NA,NA,NA,NA,NA,NA,NA,NA,NA,NA
2afd3,Shallow Question,html.Page,2_8_0_0,NA,NA,form submission,9227.24,727875,727868.14,727884.76,737112,737113,2023-05-03T17:01:23Z,737112.04,Sänger,mwimbaji,d,msichana,shughuli,mshirika,mwimbaji,NA,NA,"c(""distractor1"", ""distractor2"", ""distractor3"")",NA,NA,NA,NA,NA,NA,NA,NA,NA,NA,NA,NA,NA,NA,NA,NA,NA,NA,NA
2afd3,Save data screen,canvas.Screen,2_8_0_1,NA,NA,timeout,495.77999999991,737115,737111.68,737112.04,737591.2,737599,2023-05-03T17:01:23Z,737607.82,Sänger,mwimbaji,d,msichana,shughuli,mshirika,NA,NA,1,"c(""distractor1"", ""distractor2"", ""distractor3"")",NA,NA,NA,NA,NA,NA,NA,NA,NA,NA,NA,NA,NA,NA,NA,NA,NA,NA,NA
2afd3,shallow,flow.Sequence,2_8_0,NA,NA,completion,9706.4399999999,727874,727868.14,727884.76,737591.2,737605,2023-05-03T17:01:23Z,737607.82,Sänger,mwimbaji,d,msichana,shughuli,mshirika,NA,NA,NA,"c(""distractor1"", ""distractor2"", ""distractor3"")",NA,NA,NA,NA,NA,NA,NA,NA,NA,NA,NA,NA,NA,NA,NA,NA,NA,NA,NA
2afd3,task,flow.Sequence,2_8,NA,NA,completion,9706.4399999999,727874,727868.14,727884.76,737591.2,737609,2023-05-03T17:01:23Z,737607.82,Sänger,mwimbaji,d,msichana,shughuli,mshirika,NA,NA,NA,"c(""distractor1"", ""distractor2"", ""distractor3"")",NA,NA,NA,NA,NA,NA,NA,NA,NA,NA,NA,NA,NA,NA,NA,NA,NA,NA,NA
2afd3,Shallow Question,html.Page,2_9_0_0,NA,NA,form submission,17907.18,737612,737591.2,737607.82,755515,755516,2023-05-03T17:01:41Z,755520.46,Angreifer,mshambulizi,d,kitengo,tasinia,usafirishaji,mshambulizi,NA,NA,"c(""distractor1"", ""distractor2"", ""distractor3"")",NA,NA,NA,NA,NA,NA,NA,NA,NA,NA,NA,NA,NA,NA,NA,NA,NA,NA,NA
2afd3,Save data screen,canvas.Screen,2_9_0_1,NA,NA,timeout,499.94000000006,755521,755513.62,755520.46,756003.78,756007,2023-05-03T17:01:42Z,756020.4,Angreifer,mshambulizi,d,kitengo,tasinia,usafirishaji,NA,NA,1,"c(""distractor1"", ""distractor2"", ""distractor3"")",NA,NA,NA,NA,NA,NA,NA,NA,NA,NA,NA,NA,NA,NA,NA,NA,NA,NA,NA
2afd3,shallow,flow.Sequence,2_9_0,NA,NA,completion,18395.96,737611,737591.2,737607.82,756003.78,756009,2023-05-03T17:01:42Z,756020.4,Angreifer,mshambulizi,d,kitengo,tasinia,usafirishaji,NA,NA,NA,"c(""distractor1"", ""distractor2"", ""distractor3"")",NA,NA,NA,NA,NA,NA,NA,NA,NA,NA,NA,NA,NA,NA,NA,NA,NA,NA,NA
2afd3,task,flow.Sequence,2_9,NA,NA,completion,18395.96,737610,737591.2,737607.82,756003.78,756010,2023-05-03T17:01:42Z,756020.4,Angreifer,mshambulizi,d,kitengo,tasinia,usafirishaji,NA,NA,NA,"c(""distractor1"", ""distractor2"", ""distractor3"")",NA,NA,NA,NA,NA,NA,NA,NA,NA,NA,NA,NA,NA,NA,NA,NA,NA,NA,NA
2afd3,Shallow Question,html.Page,2_10_0_0,NA,NA,form submission,9614.6,756012,756003.78,756020.4,765635,765636,2023-05-03T17:01:51Z,765634.62,Kanzler,diwani,s,rasilmali,mahitaji,maabudu,diwani,NA,NA,"c(""distractor1"", ""distractor2"", ""distractor3"")",NA,NA,NA,NA,NA,NA,NA,NA,NA,NA,NA,NA,NA,NA,NA,NA,NA,NA,NA
2afd3,Save data screen,canvas.Screen,2_10_0_1,NA,NA,timeout,492.59999999998,765639,765634.06,765634.62,766110.6,766114,2023-05-03T17:01:52Z,766127.22,Kanzler,diwani,s,rasilmali,mahitaji,maabudu,NA,NA,1,"c(""distractor1"", ""distractor2"", ""distractor3"")",NA,NA,NA,NA,NA,NA,NA,NA,NA,NA,NA,NA,NA,NA,NA,NA,NA,NA,NA
2afd3,shallow,flow.Sequence,2_10_0,NA,NA,completion,10090.2,756011,756003.78,756020.4,766110.6,766115,2023-05-03T17:01:52Z,766127.22,Kanzler,diwani,s,rasilmali,mahitaji,maabudu,NA,NA,NA,"c(""distractor1"", ""distractor2"", ""distractor3"")",NA,NA,NA,NA,NA,NA,NA,NA,NA,NA,NA,NA,NA,NA,NA,NA,NA,NA,NA
2afd3,task,flow.Sequence,2_10,NA,NA,completion,10090.2,756011,756003.78,756020.4,766110.6,766117,2023-05-03T17:01:52Z,766127.22,Kanzler,diwani,s,rasilmali,mahitaji,maabudu,NA,NA,NA,"c(""distractor1"", ""distractor2"", ""distractor3"")",NA,NA,NA,NA,NA,NA,NA,NA,NA,NA,NA,NA,NA,NA,NA,NA,NA,NA,NA
2afd3,Shallow Question,html.Page,2_11_0_0,NA,NA,form submission,7846.78,766119,766110.6,766127.22,773974,773975,2023-05-03T17:02:00Z,773973.02,Aufstand,ugomaji,d,mazidio,msingi,kujieleza,ugomaji,NA,NA,"c(""distractor1"", ""distractor2"", ""distractor3"")",NA,NA,NA,NA,NA,NA,NA,NA,NA,NA,NA,NA,NA,NA,NA,NA,NA,NA,NA
2afd3,Save data screen,canvas.Screen,2_11_0_1,NA,NA,timeout,493.59999999998,773978,773972.64,773973.02,774450,774453,2023-05-03T17:02:00Z,774466.62,Aufstand,ugomaji,d,mazidio,msingi,kujieleza,NA,NA,1,"c(""distractor1"", ""distractor2"", ""distractor3"")",NA,NA,NA,NA,NA,NA,NA,NA,NA,NA,NA,NA,NA,NA,NA,NA,NA,NA,NA
2afd3,shallow,flow.Sequence,2_11_0,NA,NA,completion,8322.78,766119,766110.6,766127.22,774450,774454,2023-05-03T17:02:00Z,774466.62,Aufstand,ugomaji,d,mazidio,msingi,kujieleza,NA,NA,NA,"c(""distractor1"", ""distractor2"", ""distractor3"")",NA,NA,NA,NA,NA,NA,NA,NA,NA,NA,NA,NA,NA,NA,NA,NA,NA,NA,NA
2afd3,task,flow.Sequence,2_11,NA,NA,completion,8322.78,766118,766110.6,766127.22,774450,774455,2023-05-03T17:02:00Z,774466.62,Aufstand,ugomaji,d,mazidio,msingi,kujieleza,NA,NA,NA,"c(""distractor1"", ""distractor2"", ""distractor3"")",NA,NA,NA,NA,NA,NA,NA,NA,NA,NA,NA,NA,NA,NA,NA,NA,NA,NA,NA
2afd3,Shallow Question,html.Page,2_12_0_0,NA,NA,form submission,14378.38,774456,774450,774466.62,788845,788845,2023-05-03T17:02:14Z,788844.26,Prüfung,mtihani,d,mkulima,mtizamo,ufumbuzi,mtihani,NA,NA,"c(""distractor1"", ""distractor2"", ""distractor3"")",NA,NA,NA,NA,NA,NA,NA,NA,NA,NA,NA,NA,NA,NA,NA,NA,NA,NA,NA
2afd3,Save data screen,canvas.Screen,2_12_0_1,NA,NA,timeout,498.97999999998,788847,788843.82,788844.26,789326.62,789329,2023-05-03T17:02:15Z,789343.24,Prüfung,mtihani,d,mkulima,mtizamo,ufumbuzi,NA,NA,1,"c(""distractor1"", ""distractor2"", ""distractor3"")",NA,NA,NA,NA,NA,NA,NA,NA,NA,NA,NA,NA,NA,NA,NA,NA,NA,NA,NA
2afd3,shallow,flow.Sequence,2_12_0,NA,NA,completion,14860,774456,774450,774466.62,789326.62,789330,2023-05-03T17:02:15Z,789343.24,Prüfung,mtihani,d,mkulima,mtizamo,ufumbuzi,NA,NA,NA,"c(""distractor1"", ""distractor2"", ""distractor3"")",NA,NA,NA,NA,NA,NA,NA,NA,NA,NA,NA,NA,NA,NA,NA,NA,NA,NA,NA
2afd3,task,flow.Sequence,2_12,NA,NA,completion,14860,774455,774450,774466.62,789326.62,789331,2023-05-03T17:02:15Z,789343.24,Prüfung,mtihani,d,mkulima,mtizamo,ufumbuzi,NA,NA,NA,"c(""distractor1"", ""distractor2"", ""distractor3"")",NA,NA,NA,NA,NA,NA,NA,NA,NA,NA,NA,NA,NA,NA,NA,NA,NA,NA,NA
2afd3,Shallow Question,html.Page,2_13_0_0,NA,NA,form submission,13003.76,789332,789326.62,789343.24,802347,802349,2023-05-03T17:02:28Z,802353.22,Übersicht,kilindo,s,mgusano,chipukizi,kulinganisha,kilindo,NA,NA,"c(""distractor1"", ""distractor2"", ""distractor3"")",NA,NA,NA,NA,NA,NA,NA,NA,NA,NA,NA,NA,NA,NA,NA,NA,NA,NA,NA
2afd3,Save data screen,canvas.Screen,2_13_0_1,NA,NA,timeout,499.78000000003,802355,802344.24,802353.22,802836.38,802840,2023-05-03T17:02:28Z,802853,Übersicht,kilindo,s,mgusano,chipukizi,kulinganisha,NA,NA,1,"c(""distractor1"", ""distractor2"", ""distractor3"")",NA,NA,NA,NA,NA,NA,NA,NA,NA,NA,NA,NA,NA,NA,NA,NA,NA,NA,NA
2afd3,shallow,flow.Sequence,2_13_0,NA,NA,completion,13493.14,789332,789326.62,789343.24,802836.38,802842,2023-05-03T17:02:28Z,802853,Übersicht,kilindo,s,mgusano,chipukizi,kulinganisha,NA,NA,NA,"c(""distractor1"", ""distractor2"", ""distractor3"")",NA,NA,NA,NA,NA,NA,NA,NA,NA,NA,NA,NA,NA,NA,NA,NA,NA,NA,NA
2afd3,task,flow.Sequence,2_13,NA,NA,completion,13493.14,789332,789326.62,789343.24,802836.38,802843,2023-05-03T17:02:28Z,802853,Übersicht,kilindo,s,mgusano,chipukizi,kulinganisha,NA,NA,NA,"c(""distractor1"", ""distractor2"", ""distractor3"")",NA,NA,NA,NA,NA,NA,NA,NA,NA,NA,NA,NA,NA,NA,NA,NA,NA,NA,NA
2afd3,Shallow Question,html.Page,2_14_0_0,NA,NA,form submission,24084,802845,802836.38,802853,826937,826937,2023-05-03T17:02:53Z,826936.14,Kontrolle,kudhibiti,s,mbinguni,kufunga,utegemezi,kudhibiti,NA,NA,"c(""distractor1"", ""distractor2"", ""distractor3"")",NA,NA,NA,NA,NA,NA,NA,NA,NA,NA,NA,NA,NA,NA,NA,NA,NA,NA,NA
2afd3,Save data screen,canvas.Screen,2_14_0_1,NA,NA,timeout,500.19999999995,826941,826935.7,826936.14,827419.72,827422,2023-05-03T17:02:53Z,827436.34,Kontrolle,kudhibiti,s,mbinguni,kufunga,utegemezi,NA,NA,1,"c(""distractor1"", ""distractor2"", ""distractor3"")",NA,NA,NA,NA,NA,NA,NA,NA,NA,NA,NA,NA,NA,NA,NA,NA,NA,NA,NA
2afd3,shallow,flow.Sequence,2_14_0,NA,NA,completion,24566.72,802845,802836.38,802853,827419.72,827424,2023-05-03T17:02:53Z,827436.34,Kontrolle,kudhibiti,s,mbinguni,kufunga,utegemezi,NA,NA,NA,"c(""distractor1"", ""distractor2"", ""distractor3"")",NA,NA,NA,NA,NA,NA,NA,NA,NA,NA,NA,NA,NA,NA,NA,NA,NA,NA,NA
2afd3,task,flow.Sequence,2_14,NA,NA,completion,24566.72,802845,802836.38,802853,827419.72,827425,2023-05-03T17:02:53Z,827436.34,Kontrolle,kudhibiti,s,mbinguni,kufunga,utegemezi,NA,NA,NA,"c(""distractor1"", ""distractor2"", ""distractor3"")",NA,NA,NA,NA,NA,NA,NA,NA,NA,NA,NA,NA,NA,NA,NA,NA,NA,NA,NA
2afd3,Shallow Question,html.Page,2_15_0_0,NA,NA,form submission,14788.66,827427,827419.72,827436.34,842225,842226,2023-05-03T17:03:08Z,842224.36,Gefährdung,kuhatarisha,s,uchokozi,udhaifu,makorowezo,kuhatarisha,NA,NA,"c(""distractor1"", ""distractor2"", ""distractor3"")",NA,NA,NA,NA,NA,NA,NA,NA,NA,NA,NA,NA,NA,NA,NA,NA,NA,NA,NA
2afd3,Save data screen,canvas.Screen,2_15_0_1,NA,NA,timeout,506.82000000007,842228,842224.02,842224.36,842713.72,842716,2023-05-03T17:03:08Z,842731.18,Gefährdung,kuhatarisha,s,uchokozi,udhaifu,makorowezo,NA,NA,1,"c(""distractor1"", ""distractor2"", ""distractor3"")",NA,NA,NA,NA,NA,NA,NA,NA,NA,NA,NA,NA,NA,NA,NA,NA,NA,NA,NA
2afd3,shallow,flow.Sequence,2_15_0,NA,NA,completion,15277.38,827427,827419.72,827436.34,842713.72,842719,2023-05-03T17:03:08Z,842731.18,Gefährdung,kuhatarisha,s,uchokozi,udhaifu,makorowezo,NA,NA,NA,"c(""distractor1"", ""distractor2"", ""distractor3"")",NA,NA,NA,NA,NA,NA,NA,NA,NA,NA,NA,NA,NA,NA,NA,NA,NA,NA,NA
2afd3,task,flow.Sequence,2_15,NA,NA,completion,15277.38,827426,827419.72,827436.34,842713.72,842720,2023-05-03T17:03:08Z,842731.18,Gefährdung,kuhatarisha,s,uchokozi,udhaifu,makorowezo,NA,NA,NA,"c(""distractor1"", ""distractor2"", ""distractor3"")",NA,NA,NA,NA,NA,NA,NA,NA,NA,NA,NA,NA,NA,NA,NA,NA,NA,NA,NA
2afd3,retrieval block 2 (multiple choice),flow.Loop,2,NA,NA,completion,201171.6,641540,641525.5,641542.12,842713.72,842721,2023-05-03T17:03:08Z,842731.18,NA,NA,NA,NA,NA,NA,NA,NA,NA,"c(""distractor1"", ""distractor2"", ""distractor3"")",NA,NA,NA,NA,NA,NA,NA,NA,NA,NA,NA,NA,NA,NA,NA,NA,NA,NA,NA
2afd3,End,canvas.Screen,3,NA,keypress(Space),response,1453.8199999999,842722,842713.72,842731.18,844185,844210,2023-05-03T17:03:10Z,844217.4,NA,NA,NA,NA,NA,NA,NA,NA,NA,NULL,NA,NA,NA,NA,NA,NA,NA,NA,NA,NA,NA,NA,NA,NA,NA,NA,NA,NA,NA
2afd3,root,flow.Sequence,NA,NA,NA,completion,842833.18,1324,1335.22,1351.82,844185,844215,2023-05-03T17:03:10Z,844217.4,NA,NA,NA,NA,NA,NA,NA,NA,NA,NULL,NA,NA,NA,NA,NA,NA,NA,NA,NA,NA,NA,NA,NA,NA,NA,NA,NA,NA,NA
