observation,sender,sender_type,sender_id,response,response_action,ended_on,duration,time_run,time_render,time_show,time_end,time_commit,timestamp,time_switch,german,swahili,enc,distractor1,distractor2,distractor3,response_2,x,correct,distractors,url_vp,url_sess,meta_labjs_version,meta_location,meta_user_agent,meta_platform,meta_language,meta_locale,meta_time_zone,meta_timezone_offset,meta_screen_width,meta_screen_height,meta_scroll_width,meta_scroll_height,meta_window_inner_width,meta_window_inner_height,meta_device_pixel_ratio,meta_labjs_build_flavor,meta_labjs_build_commit
421f7,Introduction delayed retrieval,canvas.Screen,0,weiter,keypress(Space),response,942.89999999404,990,991.308,1007.7,1950.599999994,1953.299999997,2025-01-17T07:23:04Z,2056.3,NA,NA,NA,NA,NA,NA,NA,NA,NA,NULL,166,2,20.2.4,https://neurocog.fernuni.ch/studies/vweber/delayed/index.html?vp=166&sess=2,"Mozilla/5.0 (Windows NT 10.0; Win64; x64) AppleWebKit/537.36 (KHTML, like Gecko) Chrome/130.0.0.0 Safari/537.36 Edg/130.0.0.0",Win32,de,de-CH,Europe/Zurich,-60,1536,960,1528,796,1528,844,1.25,production,f5b4a49f956347addd546a832a3327688c2c0fef
421f7,Deep Question,html.Page,1_0_0_0,NA,NA,form submission,9291.8999999881,1953.799999997,1948.256,2056.3,11348.199999988,11348.699999988,2025-01-17T07:23:13Z,11376,Integrität,uadilifu,d,muungano,mtiririko,upunguaji,a,NA,NA,NULL,NA,NA,NA,NA,NA,NA,NA,NA,NA,NA,NA,NA,NA,NA,NA,NA,NA,NA,NA
421f7,Save data screen,canvas.Screen,1_0_0_1,NA,NA,timeout,500,11350.599999994,11359.7,11376,11859.2,11860.899999991,2025-01-17T07:23:14Z,11876,Integrität,uadilifu,d,muungano,mtiririko,upunguaji,NA,NA,0,NULL,NA,NA,NA,NA,NA,NA,NA,NA,NA,NA,NA,NA,NA,NA,NA,NA,NA,NA,NA
421f7,deep,flow.Sequence,1_0_0,NA,NA,completion,9802.9,1953.799999997,1948.256,2056.3,11859.2,11861.399999991,2025-01-17T07:23:14Z,11876,Integrität,uadilifu,d,muungano,mtiririko,upunguaji,NA,NA,NA,NULL,NA,NA,NA,NA,NA,NA,NA,NA,NA,NA,NA,NA,NA,NA,NA,NA,NA,NA,NA
421f7,task,flow.Sequence,1_0,NA,NA,completion,9802.9,1953.799999997,1948.256,2056.3,11859.2,11861.699999988,2025-01-17T07:23:14Z,11876,Integrität,uadilifu,d,muungano,mtiririko,upunguaji,NA,NA,NA,NULL,NA,NA,NA,NA,NA,NA,NA,NA,NA,NA,NA,NA,NA,NA,NA,NA,NA,NA,NA
421f7,Deep Question,html.Page,1_1_0_0,NA,NA,form submission,2105.8999999911,11862,11859.2,11876,13981.899999991,13982.199999988,2025-01-17T07:23:16Z,13988.2,Wechsel,ugeuzaji,d,utambulisho,kujenga,wasiwasi,sd,NA,NA,NULL,NA,NA,NA,NA,NA,NA,NA,NA,NA,NA,NA,NA,NA,NA,NA,NA,NA,NA,NA
421f7,Save data screen,canvas.Screen,1_1_0_1,NA,NA,timeout,499.7,13983.299999997,13971.694,13988.2,14469.5,14471.599999994,2025-01-17T07:23:16Z,14487.9,Wechsel,ugeuzaji,d,utambulisho,kujenga,wasiwasi,NA,NA,0,NULL,NA,NA,NA,NA,NA,NA,NA,NA,NA,NA,NA,NA,NA,NA,NA,NA,NA,NA,NA
421f7,deep,flow.Sequence,1_1_0,NA,NA,completion,2593.5,11861.799999997,11859.2,11876,14469.5,14472,2025-01-17T07:23:16Z,14487.9,Wechsel,ugeuzaji,d,utambulisho,kujenga,wasiwasi,NA,NA,NA,NULL,NA,NA,NA,NA,NA,NA,NA,NA,NA,NA,NA,NA,NA,NA,NA,NA,NA,NA,NA
421f7,task,flow.Sequence,1_1,NA,NA,completion,2593.5,11861.799999997,11859.2,11876,14469.5,14472.399999991,2025-01-17T07:23:16Z,14487.9,Wechsel,ugeuzaji,d,utambulisho,kujenga,wasiwasi,NA,NA,NA,NULL,NA,NA,NA,NA,NA,NA,NA,NA,NA,NA,NA,NA,NA,NA,NA,NA,NA,NA,NA
421f7,Deep Question,html.Page,1_2_0_0,NA,NA,form submission,1561.1,14472.599999994,14469.5,14487.9,16049,16049.5,2025-01-17T07:23:18Z,16059.82,Atmosphäre,angahewa,s,kuteseka,usahihi,kutoamini,sdf,NA,NA,NULL,NA,NA,NA,NA,NA,NA,NA,NA,NA,NA,NA,NA,NA,NA,NA,NA,NA,NA,NA
421f7,Save data screen,canvas.Screen,1_2_0_1,NA,NA,timeout,506.38,16050.799999997,16059.82,16059.82,16549.3,16552.299999997,2025-01-17T07:23:18Z,16566.2,Atmosphäre,angahewa,s,kuteseka,usahihi,kutoamini,NA,NA,0,NULL,NA,NA,NA,NA,NA,NA,NA,NA,NA,NA,NA,NA,NA,NA,NA,NA,NA,NA,NA
421f7,deep,flow.Sequence,1_2_0,NA,NA,completion,2061.4,14472.599999994,14469.5,14487.9,16549.3,16553.099999994,2025-01-17T07:23:18Z,16566.2,Atmosphäre,angahewa,s,kuteseka,usahihi,kutoamini,NA,NA,NA,NULL,NA,NA,NA,NA,NA,NA,NA,NA,NA,NA,NA,NA,NA,NA,NA,NA,NA,NA,NA
421f7,task,flow.Sequence,1_2,NA,NA,completion,2061.4,14472.599999994,14469.5,14487.9,16549.3,16553.5,2025-01-17T07:23:18Z,16566.2,Atmosphäre,angahewa,s,kuteseka,usahihi,kutoamini,NA,NA,NA,NULL,NA,NA,NA,NA,NA,NA,NA,NA,NA,NA,NA,NA,NA,NA,NA,NA,NA,NA,NA
421f7,Deep Question,html.Page,1_3_0_0,NA,NA,form submission,1917.9999999881,16553.799999997,16549.3,16566.2,18484.199999988,18484.599999994,2025-01-17T07:23:20Z,18504.4,Fleisch,mshakiki,d,kizunguzungu,mshikamano,angusho,sdf,NA,NA,NULL,NA,NA,NA,NA,NA,NA,NA,NA,NA,NA,NA,NA,NA,NA,NA,NA,NA,NA,NA
421f7,Save data screen,canvas.Screen,1_3_0_1,NA,NA,timeout,495.3,18486,18488.092,18504.4,18983.1,18984,2025-01-17T07:23:21Z,18999.7,Fleisch,mshakiki,d,kizunguzungu,mshikamano,angusho,NA,NA,0,NULL,NA,NA,NA,NA,NA,NA,NA,NA,NA,NA,NA,NA,NA,NA,NA,NA,NA,NA,NA
421f7,deep,flow.Sequence,1_3_0,NA,NA,completion,2416.9,16553.799999997,16549.3,16566.2,18983.1,18984.099999994,2025-01-17T07:23:21Z,18999.7,Fleisch,mshakiki,d,kizunguzungu,mshikamano,angusho,NA,NA,NA,NULL,NA,NA,NA,NA,NA,NA,NA,NA,NA,NA,NA,NA,NA,NA,NA,NA,NA,NA,NA
421f7,task,flow.Sequence,1_3,NA,NA,completion,2416.9,16553.699999988,16549.3,16566.2,18983.1,18984.299999997,2025-01-17T07:23:21Z,18999.7,Fleisch,mshakiki,d,kizunguzungu,mshikamano,angusho,NA,NA,NA,NULL,NA,NA,NA,NA,NA,NA,NA,NA,NA,NA,NA,NA,NA,NA,NA,NA,NA,NA,NA
421f7,Deep Question,html.Page,1_4_0_0,NA,NA,form submission,2106.3,18984.699999988,18983.1,18999.7,21106,21106.199999988,2025-01-17T07:23:23Z,21182.3,Genehmigung,idhini,s,mwanamke,itikadi,fedheha,sdf,NA,NA,NULL,NA,NA,NA,NA,NA,NA,NA,NA,NA,NA,NA,NA,NA,NA,NA,NA,NA,NA,NA
421f7,Save data screen,canvas.Screen,1_4_0_1,NA,NA,timeout,504.3,21107.299999997,21107.79,21182.3,21669.7,21672.5,2025-01-17T07:23:23Z,21686.6,Genehmigung,idhini,s,mwanamke,itikadi,fedheha,NA,NA,0,NULL,NA,NA,NA,NA,NA,NA,NA,NA,NA,NA,NA,NA,NA,NA,NA,NA,NA,NA,NA
421f7,deep,flow.Sequence,1_4_0,NA,NA,completion,2670,18984.599999994,18983.1,18999.7,21669.7,21672.899999991,2025-01-17T07:23:23Z,21686.6,Genehmigung,idhini,s,mwanamke,itikadi,fedheha,NA,NA,NA,NULL,NA,NA,NA,NA,NA,NA,NA,NA,NA,NA,NA,NA,NA,NA,NA,NA,NA,NA,NA
421f7,task,flow.Sequence,1_4,NA,NA,completion,2670,18984.599999994,18983.1,18999.7,21669.7,21673.299999997,2025-01-17T07:23:23Z,21686.6,Genehmigung,idhini,s,mwanamke,itikadi,fedheha,NA,NA,NA,NULL,NA,NA,NA,NA,NA,NA,NA,NA,NA,NA,NA,NA,NA,NA,NA,NA,NA,NA,NA
421f7,Deep Question,html.Page,1_5_0_0,NA,NA,form submission,5416.499999994,21673.399999991,21669.7,21686.6,27103.099999994,27103.299999997,2025-01-17T07:23:29Z,27122.3,Erneuerung,ukarabati,d,ushawishi,ukalifu,unyonyaji,ugomaji,NA,NA,NULL,NA,NA,NA,NA,NA,NA,NA,NA,NA,NA,NA,NA,NA,NA,NA,NA,NA,NA,NA
421f7,Save data screen,canvas.Screen,1_5_0_1,NA,NA,timeout,497.7,27104.099999994,27097.5,27122.3,27603.5,27605.199999988,2025-01-17T07:23:29Z,27620,Erneuerung,ukarabati,d,ushawishi,ukalifu,unyonyaji,NA,NA,0,NULL,NA,NA,NA,NA,NA,NA,NA,NA,NA,NA,NA,NA,NA,NA,NA,NA,NA,NA,NA
421f7,deep,flow.Sequence,1_5_0,NA,NA,completion,5916.9,21673.399999991,21669.7,21686.6,27603.5,27605.699999988,2025-01-17T07:23:29Z,27620,Erneuerung,ukarabati,d,ushawishi,ukalifu,unyonyaji,NA,NA,NA,NULL,NA,NA,NA,NA,NA,NA,NA,NA,NA,NA,NA,NA,NA,NA,NA,NA,NA,NA,NA
421f7,task,flow.Sequence,1_5,NA,NA,completion,5916.9,21673.399999991,21669.7,21686.6,27603.5,27606.299999997,2025-01-17T07:23:29Z,27620,Erneuerung,ukarabati,d,ushawishi,ukalifu,unyonyaji,NA,NA,NA,NULL,NA,NA,NA,NA,NA,NA,NA,NA,NA,NA,NA,NA,NA,NA,NA,NA,NA,NA,NA
421f7,Deep Question,html.Page,1_6_0_0,NA,NA,form submission,3261.599999994,27606.699999988,27603.5,27620,30881.599999994,30881.899999991,2025-01-17T07:23:33Z,30898,Niveau,kiwango,d,usimamizi,mwamali,mshairi,ugomaji,NA,NA,NULL,NA,NA,NA,NA,NA,NA,NA,NA,NA,NA,NA,NA,NA,NA,NA,NA,NA,NA,NA
421f7,Save data screen,canvas.Screen,1_6_0_1,NA,NA,timeout,496.3,30882.899999991,30881.5,30898,31377.2,31378.899999991,2025-01-17T07:23:33Z,31394.3,Niveau,kiwango,d,usimamizi,mwamali,mshairi,NA,NA,0,NULL,NA,NA,NA,NA,NA,NA,NA,NA,NA,NA,NA,NA,NA,NA,NA,NA,NA,NA,NA
421f7,deep,flow.Sequence,1_6_0,NA,NA,completion,3757.2,27606.599999994,27603.5,27620,31377.2,31379.299999997,2025-01-17T07:23:33Z,31394.3,Niveau,kiwango,d,usimamizi,mwamali,mshairi,NA,NA,NA,NULL,NA,NA,NA,NA,NA,NA,NA,NA,NA,NA,NA,NA,NA,NA,NA,NA,NA,NA,NA
421f7,task,flow.Sequence,1_6,NA,NA,completion,3757.2,27606.599999994,27603.5,27620,31377.2,31379.799999997,2025-01-17T07:23:33Z,31394.3,Niveau,kiwango,d,usimamizi,mwamali,mshairi,NA,NA,NA,NULL,NA,NA,NA,NA,NA,NA,NA,NA,NA,NA,NA,NA,NA,NA,NA,NA,NA,NA,NA
421f7,Deep Question,html.Page,1_7_0_0,NA,NA,form submission,1756.8999999881,31380.099999994,31377.2,31394.3,33151.199999988,33151.5,2025-01-17T07:23:35Z,33222,Begegnung,kukutana,s,mmasihiya,mpiganaji,husiano,sdf,NA,NA,NULL,NA,NA,NA,NA,NA,NA,NA,NA,NA,NA,NA,NA,NA,NA,NA,NA,NA,NA,NA
421f7,Save data screen,canvas.Screen,1_7_0_1,NA,NA,timeout,497.3,33152.399999991,33147,33222,33703.1,33704.599999994,2025-01-17T07:23:36Z,33719.3,Begegnung,kukutana,s,mmasihiya,mpiganaji,husiano,NA,NA,0,NULL,NA,NA,NA,NA,NA,NA,NA,NA,NA,NA,NA,NA,NA,NA,NA,NA,NA,NA,NA
421f7,deep,flow.Sequence,1_7_0,NA,NA,completion,2308.8,31380.099999994,31377.2,31394.3,33703.1,33705,2025-01-17T07:23:36Z,33719.3,Begegnung,kukutana,s,mmasihiya,mpiganaji,husiano,NA,NA,NA,NULL,NA,NA,NA,NA,NA,NA,NA,NA,NA,NA,NA,NA,NA,NA,NA,NA,NA,NA,NA
421f7,task,flow.Sequence,1_7,NA,NA,completion,2308.8,31380,31377.2,31394.3,33703.1,33705.599999994,2025-01-17T07:23:36Z,33719.3,Begegnung,kukutana,s,mmasihiya,mpiganaji,husiano,NA,NA,NA,NULL,NA,NA,NA,NA,NA,NA,NA,NA,NA,NA,NA,NA,NA,NA,NA,NA,NA,NA,NA
421f7,Deep Question,html.Page,1_8_0_0,NA,NA,form submission,1212.8999999881,33706.099999994,33703.1,33719.3,34932.199999988,34932.5,2025-01-17T07:23:37Z,34953.8,Betrüger,mdanganyifu,s,mwanamuziki,wastani,mahakama,sdf,NA,NA,NULL,NA,NA,NA,NA,NA,NA,NA,NA,NA,NA,NA,NA,NA,NA,NA,NA,NA,NA,NA
421f7,Save data screen,canvas.Screen,1_8_0_1,NA,NA,timeout,494,34933.699999988,34929.024,34953.8,35431.5,35433.199999988,2025-01-17T07:23:37Z,35447.8,Betrüger,mdanganyifu,s,mwanamuziki,wastani,mahakama,NA,NA,0,NULL,NA,NA,NA,NA,NA,NA,NA,NA,NA,NA,NA,NA,NA,NA,NA,NA,NA,NA,NA
421f7,deep,flow.Sequence,1_8_0,NA,NA,completion,1712.2,33706,33703.1,33719.3,35431.5,35434.199999988,2025-01-17T07:23:37Z,35447.8,Betrüger,mdanganyifu,s,mwanamuziki,wastani,mahakama,NA,NA,NA,NULL,NA,NA,NA,NA,NA,NA,NA,NA,NA,NA,NA,NA,NA,NA,NA,NA,NA,NA,NA
421f7,task,flow.Sequence,1_8,NA,NA,completion,1712.2,33705.899999991,33703.1,33719.3,35431.5,35434.799999997,2025-01-17T07:23:37Z,35447.8,Betrüger,mdanganyifu,s,mwanamuziki,wastani,mahakama,NA,NA,NA,NULL,NA,NA,NA,NA,NA,NA,NA,NA,NA,NA,NA,NA,NA,NA,NA,NA,NA,NA,NA
421f7,Deep Question,html.Page,1_9_0_0,NA,NA,form submission,1611.8999999881,35435.099999994,35431.5,35447.8,37059.699999988,37060,2025-01-17T07:23:39Z,37072.6,Vorwurf,mashtaka,s,msukumo,mtangulizi,uenyekiti,sdf,NA,NA,NULL,NA,NA,NA,NA,NA,NA,NA,NA,NA,NA,NA,NA,NA,NA,NA,NA,NA,NA,NA
421f7,Save data screen,canvas.Screen,1_9_0_1,NA,NA,timeout,505.5,37061.299999997,37056.228,37072.6,37561.5,37562.799999997,2025-01-17T07:23:39Z,37578.1,Vorwurf,mashtaka,s,msukumo,mtangulizi,uenyekiti,NA,NA,0,NULL,NA,NA,NA,NA,NA,NA,NA,NA,NA,NA,NA,NA,NA,NA,NA,NA,NA,NA,NA
421f7,deep,flow.Sequence,1_9_0,NA,NA,completion,2113.7,35435.099999994,35431.5,35447.8,37561.5,37563.299999997,2025-01-17T07:23:39Z,37578.1,Vorwurf,mashtaka,s,msukumo,mtangulizi,uenyekiti,NA,NA,NA,NULL,NA,NA,NA,NA,NA,NA,NA,NA,NA,NA,NA,NA,NA,NA,NA,NA,NA,NA,NA
421f7,task,flow.Sequence,1_9,NA,NA,completion,2113.7,35435,35431.5,35447.8,37561.5,37563.599999994,2025-01-17T07:23:39Z,37578.1,Vorwurf,mashtaka,s,msukumo,mtangulizi,uenyekiti,NA,NA,NA,NULL,NA,NA,NA,NA,NA,NA,NA,NA,NA,NA,NA,NA,NA,NA,NA,NA,NA,NA,NA
421f7,Deep Question,html.Page,1_10_0_0,NA,NA,form submission,9235.199999997,37564,37561.5,37578.1,46813.299999997,46813.5,2025-01-17T07:23:49Z,46828.6,Respekt,heshima,d,changamnao,upinzani,ufanisi,sf,NA,NA,NULL,NA,NA,NA,NA,NA,NA,NA,NA,NA,NA,NA,NA,NA,NA,NA,NA,NA,NA,NA
421f7,Save data screen,canvas.Screen,1_10_0_1,NA,NA,timeout,494.3,46813.799999997,46812.03,46828.6,47306.3,47306.799999997,2025-01-17T07:23:49Z,47322.9,Respekt,heshima,d,changamnao,upinzani,ufanisi,NA,NA,0,NULL,NA,NA,NA,NA,NA,NA,NA,NA,NA,NA,NA,NA,NA,NA,NA,NA,NA,NA,NA
421f7,deep,flow.Sequence,1_10_0,NA,NA,completion,9728.2,37563.899999991,37561.5,37578.1,47306.3,47307,2025-01-17T07:23:49Z,47322.9,Respekt,heshima,d,changamnao,upinzani,ufanisi,NA,NA,NA,NULL,NA,NA,NA,NA,NA,NA,NA,NA,NA,NA,NA,NA,NA,NA,NA,NA,NA,NA,NA
421f7,task,flow.Sequence,1_10,NA,NA,completion,9728.2,37563.799999997,37561.5,37578.1,47306.3,47307,2025-01-17T07:23:49Z,47322.9,Respekt,heshima,d,changamnao,upinzani,ufanisi,NA,NA,NA,NULL,NA,NA,NA,NA,NA,NA,NA,NA,NA,NA,NA,NA,NA,NA,NA,NA,NA,NA,NA
421f7,Deep Question,html.Page,1_11_0_0,NA,NA,form submission,1482.2999999881,47307.199999988,47306.3,47322.9,48805.199999988,48805.5,2025-01-17T07:23:51Z,48826.7,Orientierung,urekebisho,d,uelekeo,marekebisho,utunzaji,sdf,NA,NA,NULL,NA,NA,NA,NA,NA,NA,NA,NA,NA,NA,NA,NA,NA,NA,NA,NA,NA,NA,NA
421f7,Save data screen,canvas.Screen,1_11_0_1,NA,NA,timeout,501.8,48806.799999997,48793.5,48826.7,49311.8,49315.599999994,2025-01-17T07:23:51Z,49328.5,Orientierung,urekebisho,d,uelekeo,marekebisho,utunzaji,NA,NA,0,NULL,NA,NA,NA,NA,NA,NA,NA,NA,NA,NA,NA,NA,NA,NA,NA,NA,NA,NA,NA
421f7,deep,flow.Sequence,1_11_0,NA,NA,completion,1988.9,47307.099999994,47306.3,47322.9,49311.8,49315.799999997,2025-01-17T07:23:51Z,49328.5,Orientierung,urekebisho,d,uelekeo,marekebisho,utunzaji,NA,NA,NA,NULL,NA,NA,NA,NA,NA,NA,NA,NA,NA,NA,NA,NA,NA,NA,NA,NA,NA,NA,NA
421f7,task,flow.Sequence,1_11,NA,NA,completion,1988.9,47307.099999994,47306.3,47322.9,49311.8,49316.099999994,2025-01-17T07:23:51Z,49328.5,Orientierung,urekebisho,d,uelekeo,marekebisho,utunzaji,NA,NA,NA,NULL,NA,NA,NA,NA,NA,NA,NA,NA,NA,NA,NA,NA,NA,NA,NA,NA,NA,NA,NA
421f7,Deep Question,html.Page,1_12_0_0,NA,NA,form submission,1758.3999999911,49316.199999988,49311.8,49328.5,51086.899999991,51087.199999988,2025-01-17T07:23:53Z,51097.6,Entwicklung,maendeleo,s,uangavu,mshindwa,badiliko,sdf,NA,NA,NULL,NA,NA,NA,NA,NA,NA,NA,NA,NA,NA,NA,NA,NA,NA,NA,NA,NA,NA,NA
421f7,Save data screen,canvas.Screen,1_12_0_1,NA,NA,timeout,494.7,51087.899999991,51081.1,51097.6,51576,51577.299999997,2025-01-17T07:23:53Z,51592.3,Entwicklung,maendeleo,s,uangavu,mshindwa,badiliko,NA,NA,0,NULL,NA,NA,NA,NA,NA,NA,NA,NA,NA,NA,NA,NA,NA,NA,NA,NA,NA,NA,NA
421f7,deep,flow.Sequence,1_12_0,NA,NA,completion,2247.5,49316.199999988,49311.8,49328.5,51576,51577.799999997,2025-01-17T07:23:53Z,51592.3,Entwicklung,maendeleo,s,uangavu,mshindwa,badiliko,NA,NA,NA,NULL,NA,NA,NA,NA,NA,NA,NA,NA,NA,NA,NA,NA,NA,NA,NA,NA,NA,NA,NA
421f7,task,flow.Sequence,1_12,NA,NA,completion,2247.5,49316.099999994,49311.8,49328.5,51576,51578.599999994,2025-01-17T07:23:53Z,51592.3,Entwicklung,maendeleo,s,uangavu,mshindwa,badiliko,NA,NA,NA,NULL,NA,NA,NA,NA,NA,NA,NA,NA,NA,NA,NA,NA,NA,NA,NA,NA,NA,NA,NA
421f7,Deep Question,html.Page,1_13_0_0,NA,NA,form submission,6435.799999994,51579,51576,51592.3,58028.099999994,58028.299999997,2025-01-17T07:24:00Z,58034.8,Papier,karatasi,d,uchambuzi,usalama,kukataliwa,katarasi,NA,NA,NULL,NA,NA,NA,NA,NA,NA,NA,NA,NA,NA,NA,NA,NA,NA,NA,NA,NA,NA,NA
421f7,Save data screen,canvas.Screen,1_13_0_1,NA,NA,timeout,499.8,58029.299999997,58018.128,58034.8,58517.9,58519.5,2025-01-17T07:24:00Z,58534.6,Papier,karatasi,d,uchambuzi,usalama,kukataliwa,NA,NA,0,NULL,NA,NA,NA,NA,NA,NA,NA,NA,NA,NA,NA,NA,NA,NA,NA,NA,NA,NA,NA
421f7,deep,flow.Sequence,1_13_0,NA,NA,completion,6925.6,51579,51576,51592.3,58517.9,58519.699999988,2025-01-17T07:24:00Z,58534.6,Papier,karatasi,d,uchambuzi,usalama,kukataliwa,NA,NA,NA,NULL,NA,NA,NA,NA,NA,NA,NA,NA,NA,NA,NA,NA,NA,NA,NA,NA,NA,NA,NA
421f7,task,flow.Sequence,1_13,NA,NA,completion,6925.6,51578.899999991,51576,51592.3,58517.9,58519.799999997,2025-01-17T07:24:00Z,58534.6,Papier,karatasi,d,uchambuzi,usalama,kukataliwa,NA,NA,NA,NULL,NA,NA,NA,NA,NA,NA,NA,NA,NA,NA,NA,NA,NA,NA,NA,NA,NA,NA,NA
421f7,Deep Question,html.Page,1_14_0_0,NA,NA,form submission,1105.0999999881,58520,58517.9,58534.6,59639.699999988,59639.899999991,2025-01-17T07:24:01Z,59652.3,Flexibilität,kubadilika,s,enjini,usikilivu,hesabu,sdf,NA,NA,NULL,NA,NA,NA,NA,NA,NA,NA,NA,NA,NA,NA,NA,NA,NA,NA,NA,NA,NA,NA
421f7,Save data screen,canvas.Screen,1_14_0_1,NA,NA,timeout,499.8,59640.699999988,59636.83,59652.3,60135.4,60135.799999997,2025-01-17T07:24:02Z,60152.1,Flexibilität,kubadilika,s,enjini,usikilivu,hesabu,NA,NA,0,NULL,NA,NA,NA,NA,NA,NA,NA,NA,NA,NA,NA,NA,NA,NA,NA,NA,NA,NA,NA
421f7,deep,flow.Sequence,1_14_0,NA,NA,completion,1600.8,58520,58517.9,58534.6,60135.4,60135.899999991,2025-01-17T07:24:02Z,60152.1,Flexibilität,kubadilika,s,enjini,usikilivu,hesabu,NA,NA,NA,NULL,NA,NA,NA,NA,NA,NA,NA,NA,NA,NA,NA,NA,NA,NA,NA,NA,NA,NA,NA
421f7,task,flow.Sequence,1_14,NA,NA,completion,1600.8,58519.899999991,58517.9,58534.6,60135.4,60136,2025-01-17T07:24:02Z,60152.1,Flexibilität,kubadilika,s,enjini,usikilivu,hesabu,NA,NA,NA,NULL,NA,NA,NA,NA,NA,NA,NA,NA,NA,NA,NA,NA,NA,NA,NA,NA,NA,NA,NA
421f7,Deep Question,html.Page,1_15_0_0,NA,NA,form submission,987.29999999106,60136,60135.4,60152.1,61139.399999991,61139.599999994,2025-01-17T07:24:03Z,61172.9,Stimmung,kinyongo,s,kilekile,kisambo,madhehebu,sdf,NA,NA,NULL,NA,NA,NA,NA,NA,NA,NA,NA,NA,NA,NA,NA,NA,NA,NA,NA,NA,NA,NA
421f7,Save data screen,canvas.Screen,1_15_0_1,NA,NA,timeout,503.9,61140.399999991,61139.76,61172.9,61660.2,61660.699999988,2025-01-17T07:24:04Z,61676.8,Stimmung,kinyongo,s,kilekile,kisambo,madhehebu,NA,NA,0,NULL,NA,NA,NA,NA,NA,NA,NA,NA,NA,NA,NA,NA,NA,NA,NA,NA,NA,NA,NA
421f7,deep,flow.Sequence,1_15_0,NA,NA,completion,1508.1,60136,60135.4,60152.1,61660.2,61660.799999997,2025-01-17T07:24:04Z,61676.8,Stimmung,kinyongo,s,kilekile,kisambo,madhehebu,NA,NA,NA,NULL,NA,NA,NA,NA,NA,NA,NA,NA,NA,NA,NA,NA,NA,NA,NA,NA,NA,NA,NA
421f7,task,flow.Sequence,1_15,NA,NA,completion,1508.1,60136,60135.4,60152.1,61660.2,61660.899999991,2025-01-17T07:24:04Z,61676.8,Stimmung,kinyongo,s,kilekile,kisambo,madhehebu,NA,NA,NA,NULL,NA,NA,NA,NA,NA,NA,NA,NA,NA,NA,NA,NA,NA,NA,NA,NA,NA,NA,NA
421f7,retrieval block 1 (cued recall),flow.Loop,1,NA,NA,completion,59603.9,1953.6999999881,1948.256,2056.3,61660.2,61661,2025-01-17T07:24:04Z,61676.8,NA,NA,NA,NA,NA,NA,NA,NA,NA,NULL,NA,NA,NA,NA,NA,NA,NA,NA,NA,NA,NA,NA,NA,NA,NA,NA,NA,NA,NA
421f7,Shallow Question,html.Page,2_0_0_0,NA,NA,form submission,3623.2,61661.099999994,61660.2,61676.8,65300,65300.5,2025-01-17T07:24:07Z,65348.9,Integrität,uadilifu,d,muungano,mtiririko,upunguaji,uadilifu,NA,NA,"c(""distractor1"", ""distractor2"", ""distractor3"")",NA,NA,NA,NA,NA,NA,NA,NA,NA,NA,NA,NA,NA,NA,NA,NA,NA,NA,NA
421f7,Save data screen,canvas.Screen,2_0_0_1,NA,NA,timeout,497.6,65301.599999994,65293.252,65348.9,65829.4,65833.599999994,2025-01-17T07:24:08Z,65846.5,Integrität,uadilifu,d,muungano,mtiririko,upunguaji,NA,NA,1,"c(""distractor1"", ""distractor2"", ""distractor3"")",NA,NA,NA,NA,NA,NA,NA,NA,NA,NA,NA,NA,NA,NA,NA,NA,NA,NA,NA
421f7,shallow,flow.Sequence,2_0_0,NA,NA,completion,4152.6,61661,61660.2,61676.8,65829.4,65834,2025-01-17T07:24:08Z,65846.5,Integrität,uadilifu,d,muungano,mtiririko,upunguaji,NA,NA,NA,"c(""distractor1"", ""distractor2"", ""distractor3"")",NA,NA,NA,NA,NA,NA,NA,NA,NA,NA,NA,NA,NA,NA,NA,NA,NA,NA,NA
421f7,task,flow.Sequence,2_0,NA,NA,completion,4152.6,61661,61660.2,61676.8,65829.4,65834.299999997,2025-01-17T07:24:08Z,65846.5,Integrität,uadilifu,d,muungano,mtiririko,upunguaji,NA,NA,NA,"c(""distractor1"", ""distractor2"", ""distractor3"")",NA,NA,NA,NA,NA,NA,NA,NA,NA,NA,NA,NA,NA,NA,NA,NA,NA,NA,NA
421f7,Shallow Question,html.Page,2_1_0_0,NA,NA,form submission,6508.799999997,65834.5,65829.4,65846.5,72355.299999997,72355.599999994,2025-01-17T07:24:14Z,72391.1,Betrüger,mdanganyifu,s,mwanamuziki,wastani,mahakama,wastani,NA,NA,"c(""distractor1"", ""distractor2"", ""distractor3"")",NA,NA,NA,NA,NA,NA,NA,NA,NA,NA,NA,NA,NA,NA,NA,NA,NA,NA,NA
421f7,Save data screen,canvas.Screen,2_1_0_1,NA,NA,timeout,505,72356.799999997,72349.984,72391.1,72879.5,72880.899999991,2025-01-17T07:24:15Z,72896.1,Betrüger,mdanganyifu,s,mwanamuziki,wastani,mahakama,NA,NA,0,"c(""distractor1"", ""distractor2"", ""distractor3"")",NA,NA,NA,NA,NA,NA,NA,NA,NA,NA,NA,NA,NA,NA,NA,NA,NA,NA,NA
421f7,shallow,flow.Sequence,2_1_0,NA,NA,completion,7033,65834.5,65829.4,65846.5,72879.5,72881.399999991,2025-01-17T07:24:15Z,72896.1,Betrüger,mdanganyifu,s,mwanamuziki,wastani,mahakama,NA,NA,NA,"c(""distractor1"", ""distractor2"", ""distractor3"")",NA,NA,NA,NA,NA,NA,NA,NA,NA,NA,NA,NA,NA,NA,NA,NA,NA,NA,NA
421f7,task,flow.Sequence,2_1,NA,NA,completion,7033,65834.399999991,65829.4,65846.5,72879.5,72881.899999991,2025-01-17T07:24:15Z,72896.1,Betrüger,mdanganyifu,s,mwanamuziki,wastani,mahakama,NA,NA,NA,"c(""distractor1"", ""distractor2"", ""distractor3"")",NA,NA,NA,NA,NA,NA,NA,NA,NA,NA,NA,NA,NA,NA,NA,NA,NA,NA,NA
421f7,Shallow Question,html.Page,2_2_0_0,NA,NA,form submission,3123.199999997,72882.199999988,72879.5,72896.1,76019.299999997,76019.699999988,2025-01-17T07:24:18Z,76037,Orientierung,urekebisho,d,uelekeo,marekebisho,utunzaji,urekebisho,NA,NA,"c(""distractor1"", ""distractor2"", ""distractor3"")",NA,NA,NA,NA,NA,NA,NA,NA,NA,NA,NA,NA,NA,NA,NA,NA,NA,NA,NA
421f7,Save data screen,canvas.Screen,2_2_0_1,NA,NA,timeout,494.3,76020.799999997,76021.01,76037,76515.1,76516.699999988,2025-01-17T07:24:19Z,76531.3,Orientierung,urekebisho,d,uelekeo,marekebisho,utunzaji,NA,NA,1,"c(""distractor1"", ""distractor2"", ""distractor3"")",NA,NA,NA,NA,NA,NA,NA,NA,NA,NA,NA,NA,NA,NA,NA,NA,NA,NA,NA
421f7,shallow,flow.Sequence,2_2_0,NA,NA,completion,3619,72882.099999994,72879.5,72896.1,76515.1,76517.399999991,2025-01-17T07:24:19Z,76531.3,Orientierung,urekebisho,d,uelekeo,marekebisho,utunzaji,NA,NA,NA,"c(""distractor1"", ""distractor2"", ""distractor3"")",NA,NA,NA,NA,NA,NA,NA,NA,NA,NA,NA,NA,NA,NA,NA,NA,NA,NA,NA
421f7,task,flow.Sequence,2_2,NA,NA,completion,3619,72882.099999994,72879.5,72896.1,76515.1,76517.799999997,2025-01-17T07:24:19Z,76531.3,Orientierung,urekebisho,d,uelekeo,marekebisho,utunzaji,NA,NA,NA,"c(""distractor1"", ""distractor2"", ""distractor3"")",NA,NA,NA,NA,NA,NA,NA,NA,NA,NA,NA,NA,NA,NA,NA,NA,NA,NA,NA
421f7,Shallow Question,html.Page,2_3_0_0,NA,NA,form submission,3711.799999994,76518.199999988,76515.1,76531.3,80243.099999994,80243.199999988,2025-01-17T07:24:22Z,80292.8,Begegnung,kukutana,s,mmasihiya,mpiganaji,husiano,kukutana,NA,NA,"c(""distractor1"", ""distractor2"", ""distractor3"")",NA,NA,NA,NA,NA,NA,NA,NA,NA,NA,NA,NA,NA,NA,NA,NA,NA,NA,NA
421f7,Save data screen,canvas.Screen,2_3_0_1,NA,NA,timeout,506.89999999999,80243.699999988,80239.142,80292.8,80783,80783.5,2025-01-17T07:24:23Z,80799.7,Begegnung,kukutana,s,mmasihiya,mpiganaji,husiano,NA,NA,1,"c(""distractor1"", ""distractor2"", ""distractor3"")",NA,NA,NA,NA,NA,NA,NA,NA,NA,NA,NA,NA,NA,NA,NA,NA,NA,NA,NA
421f7,shallow,flow.Sequence,2_3_0,NA,NA,completion,4251.7,76518,76515.1,76531.3,80783,80783.599999994,2025-01-17T07:24:23Z,80799.7,Begegnung,kukutana,s,mmasihiya,mpiganaji,husiano,NA,NA,NA,"c(""distractor1"", ""distractor2"", ""distractor3"")",NA,NA,NA,NA,NA,NA,NA,NA,NA,NA,NA,NA,NA,NA,NA,NA,NA,NA,NA
421f7,task,flow.Sequence,2_3,NA,NA,completion,4251.7,76518,76515.1,76531.3,80783,80783.699999988,2025-01-17T07:24:23Z,80799.7,Begegnung,kukutana,s,mmasihiya,mpiganaji,husiano,NA,NA,NA,"c(""distractor1"", ""distractor2"", ""distractor3"")",NA,NA,NA,NA,NA,NA,NA,NA,NA,NA,NA,NA,NA,NA,NA,NA,NA,NA,NA
421f7,Shallow Question,html.Page,2_4_0_0,NA,NA,form submission,4058.4999999881,80783.699999988,80783,80799.7,84858.199999988,84858.399999991,2025-01-17T07:24:27Z,84907.3,Niveau,kiwango,d,usimamizi,mwamali,mshairi,kiwango,NA,NA,"c(""distractor1"", ""distractor2"", ""distractor3"")",NA,NA,NA,NA,NA,NA,NA,NA,NA,NA,NA,NA,NA,NA,NA,NA,NA,NA,NA
421f7,Save data screen,canvas.Screen,2_4_0_1,NA,NA,timeout,503.2,84859.5,84851.5,84907.3,85394.2,85395.799999997,2025-01-17T07:24:27Z,85410.5,Niveau,kiwango,d,usimamizi,mwamali,mshairi,NA,NA,1,"c(""distractor1"", ""distractor2"", ""distractor3"")",NA,NA,NA,NA,NA,NA,NA,NA,NA,NA,NA,NA,NA,NA,NA,NA,NA,NA,NA
421f7,shallow,flow.Sequence,2_4_0,NA,NA,completion,4594.5,80783.699999988,80783,80799.7,85394.2,85396.199999988,2025-01-17T07:24:27Z,85410.5,Niveau,kiwango,d,usimamizi,mwamali,mshairi,NA,NA,NA,"c(""distractor1"", ""distractor2"", ""distractor3"")",NA,NA,NA,NA,NA,NA,NA,NA,NA,NA,NA,NA,NA,NA,NA,NA,NA,NA,NA
421f7,task,flow.Sequence,2_4,NA,NA,completion,4594.5,80783.699999988,80783,80799.7,85394.2,85396.799999997,2025-01-17T07:24:27Z,85410.5,Niveau,kiwango,d,usimamizi,mwamali,mshairi,NA,NA,NA,"c(""distractor1"", ""distractor2"", ""distractor3"")",NA,NA,NA,NA,NA,NA,NA,NA,NA,NA,NA,NA,NA,NA,NA,NA,NA,NA,NA
421f7,Shallow Question,html.Page,2_5_0_0,NA,NA,form submission,3034.8999999911,85397.199999988,85394.2,85410.5,88445.399999991,88445.599999994,2025-01-17T07:24:30Z,88461,Wechsel,ugeuzaji,d,utambulisho,kujenga,wasiwasi,ugeuzaji,NA,NA,"c(""distractor1"", ""distractor2"", ""distractor3"")",NA,NA,NA,NA,NA,NA,NA,NA,NA,NA,NA,NA,NA,NA,NA,NA,NA,NA,NA
421f7,Save data screen,canvas.Screen,2_5_0_1,NA,NA,timeout,498.10000000001,88446.799999997,88444.606,88461,88942.4,88943,2025-01-17T07:24:31Z,88959.1,Wechsel,ugeuzaji,d,utambulisho,kujenga,wasiwasi,NA,NA,1,"c(""distractor1"", ""distractor2"", ""distractor3"")",NA,NA,NA,NA,NA,NA,NA,NA,NA,NA,NA,NA,NA,NA,NA,NA,NA,NA,NA
421f7,shallow,flow.Sequence,2_5_0,NA,NA,completion,3531.9,85397.099999994,85394.2,85410.5,88942.4,88943,2025-01-17T07:24:31Z,88959.1,Wechsel,ugeuzaji,d,utambulisho,kujenga,wasiwasi,NA,NA,NA,"c(""distractor1"", ""distractor2"", ""distractor3"")",NA,NA,NA,NA,NA,NA,NA,NA,NA,NA,NA,NA,NA,NA,NA,NA,NA,NA,NA
421f7,task,flow.Sequence,2_5,NA,NA,completion,3531.9,85397.099999994,85394.2,85410.5,88942.4,88943.199999988,2025-01-17T07:24:31Z,88959.1,Wechsel,ugeuzaji,d,utambulisho,kujenga,wasiwasi,NA,NA,NA,"c(""distractor1"", ""distractor2"", ""distractor3"")",NA,NA,NA,NA,NA,NA,NA,NA,NA,NA,NA,NA,NA,NA,NA,NA,NA,NA,NA
421f7,Shallow Question,html.Page,2_6_0_0,NA,NA,form submission,1828.4,88943.199999988,88942.4,88959.1,90787.5,90787.799999997,2025-01-17T07:24:33Z,90800.4,Atmosphäre,angahewa,s,kuteseka,usahihi,kutoamini,angahewa,NA,NA,"c(""distractor1"", ""distractor2"", ""distractor3"")",NA,NA,NA,NA,NA,NA,NA,NA,NA,NA,NA,NA,NA,NA,NA,NA,NA,NA,NA
421f7,Save data screen,canvas.Screen,2_6_0_1,NA,NA,timeout,500.3,90788.799999997,90783.9,90800.4,91284,91284.599999994,2025-01-17T07:24:33Z,91300.7,Atmosphäre,angahewa,s,kuteseka,usahihi,kutoamini,NA,NA,1,"c(""distractor1"", ""distractor2"", ""distractor3"")",NA,NA,NA,NA,NA,NA,NA,NA,NA,NA,NA,NA,NA,NA,NA,NA,NA,NA,NA
421f7,shallow,flow.Sequence,2_6_0,NA,NA,completion,2324.9,88943.199999988,88942.4,88959.1,91284,91284.799999997,2025-01-17T07:24:33Z,91300.7,Atmosphäre,angahewa,s,kuteseka,usahihi,kutoamini,NA,NA,NA,"c(""distractor1"", ""distractor2"", ""distractor3"")",NA,NA,NA,NA,NA,NA,NA,NA,NA,NA,NA,NA,NA,NA,NA,NA,NA,NA,NA
421f7,task,flow.Sequence,2_6,NA,NA,completion,2324.9,88943.199999988,88942.4,88959.1,91284,91284.899999991,2025-01-17T07:24:33Z,91300.7,Atmosphäre,angahewa,s,kuteseka,usahihi,kutoamini,NA,NA,NA,"c(""distractor1"", ""distractor2"", ""distractor3"")",NA,NA,NA,NA,NA,NA,NA,NA,NA,NA,NA,NA,NA,NA,NA,NA,NA,NA,NA
421f7,Shallow Question,html.Page,2_7_0_0,NA,NA,form submission,1615.6999999911,91285,91284,91300.7,92916.399999991,92916.5,2025-01-17T07:24:35Z,92965.7,Stimmung,kinyongo,s,kilekile,kisambo,madhehebu,kinyongo,NA,NA,"c(""distractor1"", ""distractor2"", ""distractor3"")",NA,NA,NA,NA,NA,NA,NA,NA,NA,NA,NA,NA,NA,NA,NA,NA,NA,NA,NA
421f7,Save data screen,canvas.Screen,2_7_0_1,NA,NA,timeout,501.2,92916.899999991,92910.13,92965.7,93450.3,93451,2025-01-17T07:24:35Z,93466.9,Stimmung,kinyongo,s,kilekile,kisambo,madhehebu,NA,NA,1,"c(""distractor1"", ""distractor2"", ""distractor3"")",NA,NA,NA,NA,NA,NA,NA,NA,NA,NA,NA,NA,NA,NA,NA,NA,NA,NA,NA
421f7,shallow,flow.Sequence,2_7_0,NA,NA,completion,2149.6,91285,91284,91300.7,93450.3,93451.199999988,2025-01-17T07:24:35Z,93466.9,Stimmung,kinyongo,s,kilekile,kisambo,madhehebu,NA,NA,NA,"c(""distractor1"", ""distractor2"", ""distractor3"")",NA,NA,NA,NA,NA,NA,NA,NA,NA,NA,NA,NA,NA,NA,NA,NA,NA,NA,NA
421f7,task,flow.Sequence,2_7,NA,NA,completion,2149.6,91285,91284,91300.7,93450.3,93451.299999997,2025-01-17T07:24:35Z,93466.9,Stimmung,kinyongo,s,kilekile,kisambo,madhehebu,NA,NA,NA,"c(""distractor1"", ""distractor2"", ""distractor3"")",NA,NA,NA,NA,NA,NA,NA,NA,NA,NA,NA,NA,NA,NA,NA,NA,NA,NA,NA
421f7,Shallow Question,html.Page,2_8_0_0,NA,NA,form submission,3482.6,93451.399999991,93450.3,93466.9,96949.5,96949.599999994,2025-01-17T07:24:39Z,96959,Vorwurf,mashtaka,s,msukumo,mtangulizi,uenyekiti,mashtaka,NA,NA,"c(""distractor1"", ""distractor2"", ""distractor3"")",NA,NA,NA,NA,NA,NA,NA,NA,NA,NA,NA,NA,NA,NA,NA,NA,NA,NA,NA
421f7,Save data screen,canvas.Screen,2_8_0_1,NA,NA,timeout,497.39999999999,96950,96942.3,96959,97439.8,97440.5,2025-01-17T07:24:39Z,97456.4,Vorwurf,mashtaka,s,msukumo,mtangulizi,uenyekiti,NA,NA,1,"c(""distractor1"", ""distractor2"", ""distractor3"")",NA,NA,NA,NA,NA,NA,NA,NA,NA,NA,NA,NA,NA,NA,NA,NA,NA,NA,NA
421f7,shallow,flow.Sequence,2_8_0,NA,NA,completion,3972.9,93451.399999991,93450.3,93466.9,97439.8,97440.599999994,2025-01-17T07:24:39Z,97456.4,Vorwurf,mashtaka,s,msukumo,mtangulizi,uenyekiti,NA,NA,NA,"c(""distractor1"", ""distractor2"", ""distractor3"")",NA,NA,NA,NA,NA,NA,NA,NA,NA,NA,NA,NA,NA,NA,NA,NA,NA,NA,NA
421f7,task,flow.Sequence,2_8,NA,NA,completion,3972.9,93451.299999997,93450.3,93466.9,97439.8,97440.699999988,2025-01-17T07:24:39Z,97456.4,Vorwurf,mashtaka,s,msukumo,mtangulizi,uenyekiti,NA,NA,NA,"c(""distractor1"", ""distractor2"", ""distractor3"")",NA,NA,NA,NA,NA,NA,NA,NA,NA,NA,NA,NA,NA,NA,NA,NA,NA,NA,NA
421f7,Shallow Question,html.Page,2_9_0_0,NA,NA,form submission,3765.7999999881,97440.799999997,97439.8,97456.4,101222.19999999,101222.39999999,2025-01-17T07:24:43Z,101271.3,Erneuerung,ukarabati,d,ushawishi,ukalifu,unyonyaji,ukarabati,NA,NA,"c(""distractor1"", ""distractor2"", ""distractor3"")",NA,NA,NA,NA,NA,NA,NA,NA,NA,NA,NA,NA,NA,NA,NA,NA,NA,NA,NA
421f7,Save data screen,canvas.Screen,2_9_0_1,NA,NA,timeout,501.8,101222.89999999,101217.454,101271.3,101756.4,101756.89999999,2025-01-17T07:24:44Z,101773.1,Erneuerung,ukarabati,d,ushawishi,ukalifu,unyonyaji,NA,NA,1,"c(""distractor1"", ""distractor2"", ""distractor3"")",NA,NA,NA,NA,NA,NA,NA,NA,NA,NA,NA,NA,NA,NA,NA,NA,NA,NA,NA
421f7,shallow,flow.Sequence,2_9_0,NA,NA,completion,4300,97440.799999997,97439.8,97456.4,101756.4,101757.09999999,2025-01-17T07:24:44Z,101773.1,Erneuerung,ukarabati,d,ushawishi,ukalifu,unyonyaji,NA,NA,NA,"c(""distractor1"", ""distractor2"", ""distractor3"")",NA,NA,NA,NA,NA,NA,NA,NA,NA,NA,NA,NA,NA,NA,NA,NA,NA,NA,NA
421f7,task,flow.Sequence,2_9,NA,NA,completion,4300,97440.799999997,97439.8,97456.4,101756.4,101757.3,2025-01-17T07:24:44Z,101773.1,Erneuerung,ukarabati,d,ushawishi,ukalifu,unyonyaji,NA,NA,NA,"c(""distractor1"", ""distractor2"", ""distractor3"")",NA,NA,NA,NA,NA,NA,NA,NA,NA,NA,NA,NA,NA,NA,NA,NA,NA,NA,NA
421f7,Shallow Question,html.Page,2_10_0_0,NA,NA,form submission,3361.2999999911,101757.3,101756.4,101773.1,105134.39999999,105134.59999999,2025-01-17T07:24:47Z,105183.8,Fleisch,mshakiki,d,kizunguzungu,mshikamano,angusho,mshakiki,NA,NA,"c(""distractor1"", ""distractor2"", ""distractor3"")",NA,NA,NA,NA,NA,NA,NA,NA,NA,NA,NA,NA,NA,NA,NA,NA,NA,NA,NA
421f7,Save data screen,canvas.Screen,2_10_0_1,NA,NA,timeout,494.09999999999,105135.09999999,105135.286,105183.8,105661.2,105662.19999999,2025-01-17T07:24:48Z,105677.9,Fleisch,mshakiki,d,kizunguzungu,mshikamano,angusho,NA,NA,1,"c(""distractor1"", ""distractor2"", ""distractor3"")",NA,NA,NA,NA,NA,NA,NA,NA,NA,NA,NA,NA,NA,NA,NA,NA,NA,NA,NA
421f7,shallow,flow.Sequence,2_10_0,NA,NA,completion,3888.1,101757.3,101756.4,101773.1,105661.2,105662.3,2025-01-17T07:24:48Z,105677.9,Fleisch,mshakiki,d,kizunguzungu,mshikamano,angusho,NA,NA,NA,"c(""distractor1"", ""distractor2"", ""distractor3"")",NA,NA,NA,NA,NA,NA,NA,NA,NA,NA,NA,NA,NA,NA,NA,NA,NA,NA,NA
421f7,task,flow.Sequence,2_10,NA,NA,completion,3888.1,101757.3,101756.4,101773.1,105661.2,105662.39999999,2025-01-17T07:24:48Z,105677.9,Fleisch,mshakiki,d,kizunguzungu,mshikamano,angusho,NA,NA,NA,"c(""distractor1"", ""distractor2"", ""distractor3"")",NA,NA,NA,NA,NA,NA,NA,NA,NA,NA,NA,NA,NA,NA,NA,NA,NA,NA,NA
421f7,Shallow Question,html.Page,2_11_0_0,NA,NA,form submission,2952.199999994,105662.59999999,105661.2,105677.9,108630.09999999,108630.39999999,2025-01-17T07:24:51Z,108640.5,Genehmigung,idhini,s,mwanamke,itikadi,fedheha,idhini,NA,NA,"c(""distractor1"", ""distractor2"", ""distractor3"")",NA,NA,NA,NA,NA,NA,NA,NA,NA,NA,NA,NA,NA,NA,NA,NA,NA,NA,NA
421f7,Save data screen,canvas.Screen,2_11_0_1,NA,NA,timeout,508.60000000001,108631.19999999,108624.2,108640.5,109132.5,109133.09999999,2025-01-17T07:24:51Z,109149.1,Genehmigung,idhini,s,mwanamke,itikadi,fedheha,NA,NA,1,"c(""distractor1"", ""distractor2"", ""distractor3"")",NA,NA,NA,NA,NA,NA,NA,NA,NA,NA,NA,NA,NA,NA,NA,NA,NA,NA,NA
421f7,shallow,flow.Sequence,2_11_0,NA,NA,completion,3454.6,105662.59999999,105661.2,105677.9,109132.5,109133.3,2025-01-17T07:24:51Z,109149.1,Genehmigung,idhini,s,mwanamke,itikadi,fedheha,NA,NA,NA,"c(""distractor1"", ""distractor2"", ""distractor3"")",NA,NA,NA,NA,NA,NA,NA,NA,NA,NA,NA,NA,NA,NA,NA,NA,NA,NA,NA
421f7,task,flow.Sequence,2_11,NA,NA,completion,3454.6,105662.5,105661.2,105677.9,109132.5,109133.39999999,2025-01-17T07:24:51Z,109149.1,Genehmigung,idhini,s,mwanamke,itikadi,fedheha,NA,NA,NA,"c(""distractor1"", ""distractor2"", ""distractor3"")",NA,NA,NA,NA,NA,NA,NA,NA,NA,NA,NA,NA,NA,NA,NA,NA,NA,NA,NA
421f7,Shallow Question,html.Page,2_12_0_0,NA,NA,form submission,3076.9,109133.59999999,109132.5,109149.1,112226,112226.3,2025-01-17T07:24:54Z,112304,Entwicklung,maendeleo,s,uangavu,mshindwa,badiliko,maendeleo,NA,NA,"c(""distractor1"", ""distractor2"", ""distractor3"")",NA,NA,NA,NA,NA,NA,NA,NA,NA,NA,NA,NA,NA,NA,NA,NA,NA,NA,NA
421f7,Save data screen,canvas.Screen,2_12_0_1,NA,NA,timeout,502.2,112227,112212.54,112304,112789.9,112795.09999999,2025-01-17T07:24:55Z,112806.2,Entwicklung,maendeleo,s,uangavu,mshindwa,badiliko,NA,NA,1,"c(""distractor1"", ""distractor2"", ""distractor3"")",NA,NA,NA,NA,NA,NA,NA,NA,NA,NA,NA,NA,NA,NA,NA,NA,NA,NA,NA
421f7,shallow,flow.Sequence,2_12_0,NA,NA,completion,3640.8,109133.5,109132.5,109149.1,112789.9,112795.59999999,2025-01-17T07:24:55Z,112806.2,Entwicklung,maendeleo,s,uangavu,mshindwa,badiliko,NA,NA,NA,"c(""distractor1"", ""distractor2"", ""distractor3"")",NA,NA,NA,NA,NA,NA,NA,NA,NA,NA,NA,NA,NA,NA,NA,NA,NA,NA,NA
421f7,task,flow.Sequence,2_12,NA,NA,completion,3640.8,109133.5,109132.5,109149.1,112789.9,112795.89999999,2025-01-17T07:24:55Z,112806.2,Entwicklung,maendeleo,s,uangavu,mshindwa,badiliko,NA,NA,NA,"c(""distractor1"", ""distractor2"", ""distractor3"")",NA,NA,NA,NA,NA,NA,NA,NA,NA,NA,NA,NA,NA,NA,NA,NA,NA,NA,NA
421f7,Shallow Question,html.Page,2_13_0_0,NA,NA,form submission,3472.6999999911,112796.19999999,112789.9,112806.2,116278.89999999,116279.09999999,2025-01-17T07:24:58Z,116328.3,Papier,karatasi,d,uchambuzi,usalama,kukataliwa,karatasi,NA,NA,"c(""distractor1"", ""distractor2"", ""distractor3"")",NA,NA,NA,NA,NA,NA,NA,NA,NA,NA,NA,NA,NA,NA,NA,NA,NA,NA,NA
421f7,Save data screen,canvas.Screen,2_13_0_1,NA,NA,timeout,508.2,116279.5,116276.514,116328.3,116819.8,116820.59999999,2025-01-17T07:24:59Z,116836.5,Papier,karatasi,d,uchambuzi,usalama,kukataliwa,NA,NA,1,"c(""distractor1"", ""distractor2"", ""distractor3"")",NA,NA,NA,NA,NA,NA,NA,NA,NA,NA,NA,NA,NA,NA,NA,NA,NA,NA,NA
421f7,shallow,flow.Sequence,2_13_0,NA,NA,completion,4013.6,112796.19999999,112789.9,112806.2,116819.8,116820.89999999,2025-01-17T07:24:59Z,116836.5,Papier,karatasi,d,uchambuzi,usalama,kukataliwa,NA,NA,NA,"c(""distractor1"", ""distractor2"", ""distractor3"")",NA,NA,NA,NA,NA,NA,NA,NA,NA,NA,NA,NA,NA,NA,NA,NA,NA,NA,NA
421f7,task,flow.Sequence,2_13,NA,NA,completion,4013.6,112796.09999999,112789.9,112806.2,116819.8,116821.09999999,2025-01-17T07:24:59Z,116836.5,Papier,karatasi,d,uchambuzi,usalama,kukataliwa,NA,NA,NA,"c(""distractor1"", ""distractor2"", ""distractor3"")",NA,NA,NA,NA,NA,NA,NA,NA,NA,NA,NA,NA,NA,NA,NA,NA,NA,NA,NA
421f7,Shallow Question,html.Page,2_14_0_0,NA,NA,form submission,2872,116821.19999999,116819.8,116836.5,119708.5,119708.69999999,2025-01-17T07:25:02Z,119757.9,Respekt,heshima,d,changamnao,upinzani,ufanisi,heshima,NA,NA,"c(""distractor1"", ""distractor2"", ""distractor3"")",NA,NA,NA,NA,NA,NA,NA,NA,NA,NA,NA,NA,NA,NA,NA,NA,NA,NA,NA
421f7,Save data screen,canvas.Screen,2_14_0_1,NA,NA,timeout,491.90000000001,119709.59999999,119711.156,119757.9,120233.1,120233.69999999,2025-01-17T07:25:02Z,120249.8,Respekt,heshima,d,changamnao,upinzani,ufanisi,NA,NA,1,"c(""distractor1"", ""distractor2"", ""distractor3"")",NA,NA,NA,NA,NA,NA,NA,NA,NA,NA,NA,NA,NA,NA,NA,NA,NA,NA,NA
421f7,shallow,flow.Sequence,2_14_0,NA,NA,completion,3396.6,116821.19999999,116819.8,116836.5,120233.1,120233.89999999,2025-01-17T07:25:02Z,120249.8,Respekt,heshima,d,changamnao,upinzani,ufanisi,NA,NA,NA,"c(""distractor1"", ""distractor2"", ""distractor3"")",NA,NA,NA,NA,NA,NA,NA,NA,NA,NA,NA,NA,NA,NA,NA,NA,NA,NA,NA
421f7,task,flow.Sequence,2_14,NA,NA,completion,3396.6,116821.19999999,116819.8,116836.5,120233.1,120234.09999999,2025-01-17T07:25:02Z,120249.8,Respekt,heshima,d,changamnao,upinzani,ufanisi,NA,NA,NA,"c(""distractor1"", ""distractor2"", ""distractor3"")",NA,NA,NA,NA,NA,NA,NA,NA,NA,NA,NA,NA,NA,NA,NA,NA,NA,NA,NA
421f7,Shallow Question,html.Page,2_15_0_0,NA,NA,form submission,3978.0999999911,120234.19999999,120233.1,120249.8,124227.89999999,124228.09999999,2025-01-17T07:25:06Z,124231.5,Flexibilität,kubadilika,s,enjini,usikilivu,hesabu,hesabu,NA,NA,"c(""distractor1"", ""distractor2"", ""distractor3"")",NA,NA,NA,NA,NA,NA,NA,NA,NA,NA,NA,NA,NA,NA,NA,NA,NA,NA,NA
421f7,Save data screen,canvas.Screen,2_15_0_1,NA,NA,timeout,504.8,124229,124227.434,124231.5,124719.8,124721.5,2025-01-17T07:25:07Z,124736.3,Flexibilität,kubadilika,s,enjini,usikilivu,hesabu,NA,NA,0,"c(""distractor1"", ""distractor2"", ""distractor3"")",NA,NA,NA,NA,NA,NA,NA,NA,NA,NA,NA,NA,NA,NA,NA,NA,NA,NA,NA
421f7,shallow,flow.Sequence,2_15_0,NA,NA,completion,4470,120234.19999999,120233.1,120249.8,124719.8,124722.09999999,2025-01-17T07:25:07Z,124736.3,Flexibilität,kubadilika,s,enjini,usikilivu,hesabu,NA,NA,NA,"c(""distractor1"", ""distractor2"", ""distractor3"")",NA,NA,NA,NA,NA,NA,NA,NA,NA,NA,NA,NA,NA,NA,NA,NA,NA,NA,NA
421f7,task,flow.Sequence,2_15,NA,NA,completion,4470,120234.09999999,120233.1,120249.8,124719.8,124722.69999999,2025-01-17T07:25:07Z,124736.3,Flexibilität,kubadilika,s,enjini,usikilivu,hesabu,NA,NA,NA,"c(""distractor1"", ""distractor2"", ""distractor3"")",NA,NA,NA,NA,NA,NA,NA,NA,NA,NA,NA,NA,NA,NA,NA,NA,NA,NA,NA
421f7,retrieval block 2 (multiple choice),flow.Loop,2,NA,NA,completion,63043,61661,61660.2,61676.8,124719.8,124723.09999999,2025-01-17T07:25:07Z,124736.3,NA,NA,NA,NA,NA,NA,NA,NA,NA,"c(""distractor1"", ""distractor2"", ""distractor3"")",NA,NA,NA,NA,NA,NA,NA,NA,NA,NA,NA,NA,NA,NA,NA,NA,NA,NA,NA
421f7,End,canvas.Screen,3,NA,keypress(Space),response,1025.299999994,124723.39999999,124719.8,124736.3,125761.59999999,125763.39999999,2025-01-17T07:25:08Z,125814.6,NA,NA,NA,NA,NA,NA,NA,NA,NA,NULL,NA,NA,NA,NA,NA,NA,NA,NA,NA,NA,NA,NA,NA,NA,NA,NA,NA,NA,NA
421f7,root,flow.Sequence,NA,NA,NA,completion,124753.89999999,989.89999999106,991.308,1007.7,125761.59999999,125764.3,2025-01-17T07:25:08Z,125814.6,NA,NA,NA,NA,NA,NA,NA,NA,NA,NULL,NA,NA,NA,NA,NA,NA,NA,NA,NA,NA,NA,NA,NA,NA,NA,NA,NA,NA,NA