observation,sender,sender_type,sender_id,response,response_action,ended_on,duration,time_run,time_render,time_show,time_end,time_commit,timestamp,time_switch,distractors,german,swahili,enc,distractor1,distractor2,distractor3,response_2,x,correct,x_2,url_vp,url_sess,meta_labjs_version,meta_location,meta_user_agent,meta_platform,meta_language,meta_locale,meta_time_zone,meta_timezone_offset,meta_screen_width,meta_screen_height,meta_scroll_width,meta_scroll_height,meta_window_inner_width,meta_window_inner_height,meta_device_pixel_ratio,meta_labjs_build_flavor,meta_labjs_build_commit
ec291,Introduction general,canvas.Screen,0,weiter,keypress(q),response,2732.846,1379.7000000002,1381.154,1381.154,4114,4117.5,2025-01-15T16:13:50Z,4131.8,NULL,NA,NA,NA,NA,NA,NA,NA,NA,NA,NA,166,1,20.2.4,https://neurocog.fernuni.ch/studies/vweber/encoding_immediate/index.html?vp=166&sess=1,"Mozilla/5.0 (Macintosh; Intel Mac OS X 10_15_7) AppleWebKit/537.36 (KHTML, like Gecko) Chrome/131.0.0.0 Safari/537.36",MacIntel,de-DE,de,Europe/Zurich,-60,1440,900,1260,609,1260,657,2,production,f5b4a49f956347addd546a832a3327688c2c0fef
ec291,Introduction practice,canvas.Screen,1_0,NA,keypress(Space),response,1056.1000000004,4117.8000000007,4115.3,4131.8,5187.9000000004,5191,2025-01-15T16:13:51Z,5214.4,NULL,NA,NA,NA,NA,NA,NA,NA,NA,NA,NA,NA,NA,NA,NA,NA,NA,NA,NA,NA,NA,NA,NA,NA,NA,NA,NA,NA,NA,NA
ec291,deep,flow.Sequence,1_1_0_0,NA,NA,skipped,NA,5191.4000000004,NA,NA,5187.9000000004,5191.6000000006,2025-01-15T16:13:51Z,5214.4,"c(""distractor1"", ""distractor2"", ""distractor3"")",Rückhalt,msaada,s,muhula,auwali,kiwimbe,NA,NA,NA,NA,NA,NA,NA,NA,NA,NA,NA,NA,NA,NA,NA,NA,NA,NA,NA,NA,NA,NA,NA
ec291,Shallow Question,html.Page,1_1_0_1_0,NA,NA,form submission,1638.0000000004,5191.8000000007,5182.03,5214.4,6852.4000000004,6852.8000000007,2025-01-15T16:13:53Z,6864.5,"c(""distractor1"", ""distractor2"", ""distractor3"")",Rückhalt,msaada,s,muhula,auwali,kiwimbe,muhula,NA,NA,NA,NA,NA,NA,NA,NA,NA,NA,NA,NA,NA,NA,NA,NA,NA,NA,NA,NA,NA,NA
ec291,"""Richtig""-Screen",canvas.Screen,1_1_0_1_1,NA,NA,skipped,NA,6854.1000000006,NA,NA,6852.4000000004,6854.3000000007,2025-01-15T16:13:53Z,6864.5,"c(""distractor1"", ""distractor2"", ""distractor3"")",Rückhalt,msaada,s,muhula,auwali,kiwimbe,NA,NA,NA,NA,NA,NA,NA,NA,NA,NA,NA,NA,NA,NA,NA,NA,NA,NA,NA,NA,NA,NA,NA
ec291,"""Falsch""-Screen",canvas.Screen,1_1_0_1_2,NA,NA,timeout,5000.7,6855.4000000004,6848.6,6864.5,11848.5,11849,2025-01-15T16:13:58Z,11865.2,"c(""distractor1"", ""distractor2"", ""distractor3"")",Rückhalt,msaada,s,muhula,auwali,kiwimbe,NA,NA,0,NA,NA,NA,NA,NA,NA,NA,NA,NA,NA,NA,NA,NA,NA,NA,NA,NA,NA,NA,NA
ec291,shallow,flow.Sequence,1_1_0_1,NA,NA,completion,6634.1,5191.7000000002,5182.03,5214.4,11848.5,11849.100000001,2025-01-15T16:13:58Z,11865.2,"c(""distractor1"", ""distractor2"", ""distractor3"")",Rückhalt,msaada,s,muhula,auwali,kiwimbe,NA,NA,NA,NA,NA,NA,NA,NA,NA,NA,NA,NA,NA,NA,NA,NA,NA,NA,NA,NA,NA,NA,NA
ec291,task,flow.Sequence,1_1_0,NA,NA,completion,6634.1,5191.4000000004,5182.03,5214.4,11848.5,11849.2,2025-01-15T16:13:58Z,11865.2,"c(""distractor1"", ""distractor2"", ""distractor3"")",Rückhalt,msaada,s,muhula,auwali,kiwimbe,NA,NA,NA,NA,NA,NA,NA,NA,NA,NA,NA,NA,NA,NA,NA,NA,NA,NA,NA,NA,NA,NA,NA
ec291,Deep Question,html.Page,1_1_1_0_0,NA,NA,form submission,1676.3,11849.300000001,11848.5,11865.2,13541.5,13541.9,2025-01-15T16:13:59Z,13548,"c(""distractor1"", ""distractor2"", ""distractor3"")",Gesundheit,salama,d,NA,NA,NA,df,NA,NA,NA,NA,NA,NA,NA,NA,NA,NA,NA,NA,NA,NA,NA,NA,NA,NA,NA,NA,NA,NA
ec291,"""Richtig""-Screen",canvas.Screen,1_1_1_0_1,NA,NA,skipped,NA,13542.9,NA,NA,13541.5,13543,2025-01-15T16:13:59Z,13548,"c(""distractor1"", ""distractor2"", ""distractor3"")",Gesundheit,salama,d,NA,NA,NA,NA,NA,NA,NA,NA,NA,NA,NA,NA,NA,NA,NA,NA,NA,NA,NA,NA,NA,NA,NA,NA,NA,NA
ec291,"""Falsch""-Screen",canvas.Screen,1_1_1_0_2,NA,NA,timeout,5000.4,13543.800000001,13531.892,13548,18531.8,18532.600000001,2025-01-15T16:14:04Z,18548.4,"c(""distractor1"", ""distractor2"", ""distractor3"")",Gesundheit,salama,d,NA,NA,NA,NA,NA,0,NA,NA,NA,NA,NA,NA,NA,NA,NA,NA,NA,NA,NA,NA,NA,NA,NA,NA,NA,NA
ec291,deep,flow.Sequence,1_1_1_0,NA,NA,completion,6666.6,11849.300000001,11848.5,11865.2,18531.8,18532.9,2025-01-15T16:14:04Z,18548.4,"c(""distractor1"", ""distractor2"", ""distractor3"")",Gesundheit,salama,d,NA,NA,NA,NA,NA,NA,NA,NA,NA,NA,NA,NA,NA,NA,NA,NA,NA,NA,NA,NA,NA,NA,NA,NA,NA,NA
ec291,shallow,flow.Sequence,1_1_1_1,NA,NA,skipped,NA,18532.9,NA,NA,18531.8,18532.9,2025-01-15T16:14:04Z,18548.4,"c(""distractor1"", ""distractor2"", ""distractor3"")",Gesundheit,salama,d,NA,NA,NA,NA,NA,NA,NA,NA,NA,NA,NA,NA,NA,NA,NA,NA,NA,NA,NA,NA,NA,NA,NA,NA,NA,NA
ec291,task,flow.Sequence,1_1_1,NA,NA,completion,6666.6,11849.300000001,11848.5,11865.2,18531.8,18533,2025-01-15T16:14:04Z,18548.4,"c(""distractor1"", ""distractor2"", ""distractor3"")",Gesundheit,salama,d,NA,NA,NA,NA,NA,NA,NA,NA,NA,NA,NA,NA,NA,NA,NA,NA,NA,NA,NA,NA,NA,NA,NA,NA,NA,NA
ec291,deep,flow.Sequence,1_1_2_0,NA,NA,skipped,NA,18533.2,NA,NA,18531.8,18533.2,2025-01-15T16:14:04Z,18548.4,"c(""distractor1"", ""distractor2"", ""distractor3"")",Kritik,lawama,s,dereva,nafasi,mawazo,NA,NA,NA,NA,NA,NA,NA,NA,NA,NA,NA,NA,NA,NA,NA,NA,NA,NA,NA,NA,NA,NA,NA
ec291,Shallow Question,html.Page,1_1_2_1_0,NA,NA,form submission,1182.3000000002,18533.2,18531.8,18548.4,19730.7,19731,2025-01-15T16:14:05Z,19731.84,"c(""distractor1"", ""distractor2"", ""distractor3"")",Kritik,lawama,s,dereva,nafasi,mawazo,mawazo,NA,NA,NA,NA,NA,NA,NA,NA,NA,NA,NA,NA,NA,NA,NA,NA,NA,NA,NA,NA,NA,NA
ec291,"""Richtig""-Screen",canvas.Screen,1_1_2_1_1,NA,NA,skipped,NA,19731.800000001,NA,NA,19730.7,19732,2025-01-15T16:14:05Z,19731.84,"c(""distractor1"", ""distractor2"", ""distractor3"")",Kritik,lawama,s,dereva,nafasi,mawazo,NA,NA,NA,NA,NA,NA,NA,NA,NA,NA,NA,NA,NA,NA,NA,NA,NA,NA,NA,NA,NA,NA,NA
ec291,"""Falsch""-Screen",canvas.Screen,1_1_2_1_2,NA,NA,timeout,4999.86,19732.7,19731.84,19731.84,24715,24715.600000001,2025-01-15T16:14:10Z,24731.7,"c(""distractor1"", ""distractor2"", ""distractor3"")",Kritik,lawama,s,dereva,nafasi,mawazo,NA,NA,0,NA,NA,NA,NA,NA,NA,NA,NA,NA,NA,NA,NA,NA,NA,NA,NA,NA,NA,NA,NA
ec291,shallow,flow.Sequence,1_1_2_1,NA,NA,completion,6166.6,18533.2,18531.8,18548.4,24715,24715.800000001,2025-01-15T16:14:10Z,24731.7,"c(""distractor1"", ""distractor2"", ""distractor3"")",Kritik,lawama,s,dereva,nafasi,mawazo,NA,NA,NA,NA,NA,NA,NA,NA,NA,NA,NA,NA,NA,NA,NA,NA,NA,NA,NA,NA,NA,NA,NA
ec291,task,flow.Sequence,1_1_2,NA,NA,completion,6166.6,18533.100000001,18531.8,18548.4,24715,24715.800000001,2025-01-15T16:14:10Z,24731.7,"c(""distractor1"", ""distractor2"", ""distractor3"")",Kritik,lawama,s,dereva,nafasi,mawazo,NA,NA,NA,NA,NA,NA,NA,NA,NA,NA,NA,NA,NA,NA,NA,NA,NA,NA,NA,NA,NA,NA,NA
ec291,deep,flow.Sequence,1_1_3_0,NA,NA,skipped,NA,24715.9,NA,NA,24715,24716,2025-01-15T16:14:10Z,24731.7,"c(""distractor1"", ""distractor2"", ""distractor3"")",Gegenwart,hadhara,s,katiba,jokofu,mikopo,NA,NA,NA,NA,NA,NA,NA,NA,NA,NA,NA,NA,NA,NA,NA,NA,NA,NA,NA,NA,NA,NA,NA
ec291,Shallow Question,html.Page,1_1_3_1_0,NA,NA,form submission,1162.0000000002,24716,24715,24731.7,25893.7,25893.9,2025-01-15T16:14:12Z,25898.3,"c(""distractor1"", ""distractor2"", ""distractor3"")",Gegenwart,hadhara,s,katiba,jokofu,mikopo,mikopo,NA,NA,NA,NA,NA,NA,NA,NA,NA,NA,NA,NA,NA,NA,NA,NA,NA,NA,NA,NA,NA,NA
ec291,"""Richtig""-Screen",canvas.Screen,1_1_3_1_1,NA,NA,skipped,NA,25894.5,NA,NA,25893.7,25894.7,2025-01-15T16:14:12Z,25898.3,"c(""distractor1"", ""distractor2"", ""distractor3"")",Gegenwart,hadhara,s,katiba,jokofu,mikopo,NA,NA,NA,NA,NA,NA,NA,NA,NA,NA,NA,NA,NA,NA,NA,NA,NA,NA,NA,NA,NA,NA,NA
ec291,"""Falsch""-Screen",canvas.Screen,1_1_3_1_2,NA,NA,timeout,5000,25895.2,25881.72,25898.3,30881.6,30882.2,2025-01-15T16:14:17Z,30898.3,"c(""distractor1"", ""distractor2"", ""distractor3"")",Gegenwart,hadhara,s,katiba,jokofu,mikopo,NA,NA,0,NA,NA,NA,NA,NA,NA,NA,NA,NA,NA,NA,NA,NA,NA,NA,NA,NA,NA,NA,NA
ec291,shallow,flow.Sequence,1_1_3_1,NA,NA,completion,6149.9,24716,24715,24731.7,30881.6,30882.300000001,2025-01-15T16:14:17Z,30898.3,"c(""distractor1"", ""distractor2"", ""distractor3"")",Gegenwart,hadhara,s,katiba,jokofu,mikopo,NA,NA,NA,NA,NA,NA,NA,NA,NA,NA,NA,NA,NA,NA,NA,NA,NA,NA,NA,NA,NA,NA,NA
ec291,task,flow.Sequence,1_1_3,NA,NA,completion,6149.9,24715.9,24715,24731.7,30881.6,30882.4,2025-01-15T16:14:17Z,30898.3,"c(""distractor1"", ""distractor2"", ""distractor3"")",Gegenwart,hadhara,s,katiba,jokofu,mikopo,NA,NA,NA,NA,NA,NA,NA,NA,NA,NA,NA,NA,NA,NA,NA,NA,NA,NA,NA,NA,NA,NA,NA
ec291,Deep Question,html.Page,1_1_4_0_0,NA,NA,form submission,1456.6000000004,30882.5,30881.6,30898.3,32354.9,32355.2,2025-01-15T16:14:18Z,32381.5,"c(""distractor1"", ""distractor2"", ""distractor3"")",Qualität,mtindo,d,NA,NA,NA,sf,NA,NA,NA,NA,NA,NA,NA,NA,NA,NA,NA,NA,NA,NA,NA,NA,NA,NA,NA,NA,NA,NA
ec291,"""Richtig""-Screen",canvas.Screen,1_1_4_0_1,NA,NA,skipped,NA,32356,NA,NA,32354.9,32356.100000001,2025-01-15T16:14:18Z,32381.5,"c(""distractor1"", ""distractor2"", ""distractor3"")",Qualität,mtindo,d,NA,NA,NA,NA,NA,NA,NA,NA,NA,NA,NA,NA,NA,NA,NA,NA,NA,NA,NA,NA,NA,NA,NA,NA,NA,NA
ec291,"""Falsch""-Screen",canvas.Screen,1_1_4_0_2,NA,NA,timeout,4999.1,32356.7,32363.9,32381.5,37364.8,37365.4,2025-01-15T16:14:23Z,37380.6,"c(""distractor1"", ""distractor2"", ""distractor3"")",Qualität,mtindo,d,NA,NA,NA,NA,NA,0,NA,NA,NA,NA,NA,NA,NA,NA,NA,NA,NA,NA,NA,NA,NA,NA,NA,NA,NA,NA
ec291,deep,flow.Sequence,1_1_4_0,NA,NA,completion,6466.5,30882.5,30881.6,30898.3,37364.8,37365.600000001,2025-01-15T16:14:23Z,37380.6,"c(""distractor1"", ""distractor2"", ""distractor3"")",Qualität,mtindo,d,NA,NA,NA,NA,NA,NA,NA,NA,NA,NA,NA,NA,NA,NA,NA,NA,NA,NA,NA,NA,NA,NA,NA,NA,NA,NA
ec291,shallow,flow.Sequence,1_1_4_1,NA,NA,skipped,NA,37365.7,NA,NA,37364.8,37365.7,2025-01-15T16:14:23Z,37380.6,"c(""distractor1"", ""distractor2"", ""distractor3"")",Qualität,mtindo,d,NA,NA,NA,NA,NA,NA,NA,NA,NA,NA,NA,NA,NA,NA,NA,NA,NA,NA,NA,NA,NA,NA,NA,NA,NA,NA
ec291,task,flow.Sequence,1_1_4,NA,NA,completion,6466.5,30882.5,30881.6,30898.3,37364.8,37365.800000001,2025-01-15T16:14:23Z,37380.6,"c(""distractor1"", ""distractor2"", ""distractor3"")",Qualität,mtindo,d,NA,NA,NA,NA,NA,NA,NA,NA,NA,NA,NA,NA,NA,NA,NA,NA,NA,NA,NA,NA,NA,NA,NA,NA,NA,NA
ec291,Deep Question,html.Page,1_1_5_0_0,NA,NA,form submission,4408.5000000006,37365.9,37364.8,37380.6,41789.100000001,41789.2,2025-01-15T16:14:27Z,41798,"c(""distractor1"", ""distractor2"", ""distractor3"")",Schatten,kivuli,d,NA,NA,NA,sd,NA,NA,NA,NA,NA,NA,NA,NA,NA,NA,NA,NA,NA,NA,NA,NA,NA,NA,NA,NA,NA,NA
ec291,"""Richtig""-Screen",canvas.Screen,1_1_5_0_1,NA,NA,skipped,NA,41790.300000001,NA,NA,41789.100000001,41790.300000001,2025-01-15T16:14:27Z,41798,"c(""distractor1"", ""distractor2"", ""distractor3"")",Schatten,kivuli,d,NA,NA,NA,NA,NA,NA,NA,NA,NA,NA,NA,NA,NA,NA,NA,NA,NA,NA,NA,NA,NA,NA,NA,NA,NA,NA
ec291,"""Falsch""-Screen",canvas.Screen,1_1_5_0_2,NA,NA,timeout,5000,41790.9,41781.4,41798,46781.3,46782,2025-01-15T16:14:32Z,46798,"c(""distractor1"", ""distractor2"", ""distractor3"")",Schatten,kivuli,d,NA,NA,NA,NA,NA,0,NA,NA,NA,NA,NA,NA,NA,NA,NA,NA,NA,NA,NA,NA,NA,NA,NA,NA,NA,NA
ec291,deep,flow.Sequence,1_1_5_0,NA,NA,completion,9400.7,37365.9,37364.8,37380.6,46781.3,46782.100000001,2025-01-15T16:14:32Z,46798,"c(""distractor1"", ""distractor2"", ""distractor3"")",Schatten,kivuli,d,NA,NA,NA,NA,NA,NA,NA,NA,NA,NA,NA,NA,NA,NA,NA,NA,NA,NA,NA,NA,NA,NA,NA,NA,NA,NA
ec291,shallow,flow.Sequence,1_1_5_1,NA,NA,skipped,NA,46782.2,NA,NA,46781.3,46782.300000001,2025-01-15T16:14:32Z,46798,"c(""distractor1"", ""distractor2"", ""distractor3"")",Schatten,kivuli,d,NA,NA,NA,NA,NA,NA,NA,NA,NA,NA,NA,NA,NA,NA,NA,NA,NA,NA,NA,NA,NA,NA,NA,NA,NA,NA
ec291,task,flow.Sequence,1_1_5,NA,NA,completion,9400.7,37365.800000001,37364.8,37380.6,46781.3,46782.4,2025-01-15T16:14:32Z,46798,"c(""distractor1"", ""distractor2"", ""distractor3"")",Schatten,kivuli,d,NA,NA,NA,NA,NA,NA,NA,NA,NA,NA,NA,NA,NA,NA,NA,NA,NA,NA,NA,NA,NA,NA,NA,NA,NA,NA
ec291,block,flow.Loop,1_1,NA,NA,completion,41566.9,5191.3000000007,5182.03,5214.4,46781.3,46782.5,2025-01-15T16:14:32Z,46798,"c(""distractor1"", ""distractor2"", ""distractor3"")",NA,NA,NA,NA,NA,NA,NA,NA,NA,NA,NA,NA,NA,NA,NA,NA,NA,NA,NA,NA,NA,NA,NA,NA,NA,NA,NA,NA,NA
ec291,Practice,flow.Sequence,1,NA,NA,completion,42649.5,4117.7000000002,4115.3,4131.8,46781.3,46782.600000001,2025-01-15T16:14:32Z,46798,NULL,NA,NA,NA,NA,NA,NA,NA,NA,NA,NA,NA,NA,NA,NA,NA,NA,NA,NA,NA,NA,NA,NA,NA,NA,NA,NA,NA,NA,NA
ec291,Experiment start,canvas.Screen,2,weiter,keypress(q),response,2841.6000000006,46782.7,46781.3,46798,49639.600000001,49641.4,2025-01-15T16:14:35Z,49697.9,NULL,NA,NA,NA,NA,NA,NA,NA,NA,NA,NA,NA,NA,NA,NA,NA,NA,NA,NA,NA,NA,NA,NA,NA,NA,NA,NA,NA,NA,NA
ec291,Deep Question,html.Page,3_0_0_0_0_0_0,NA,NA,form submission,1772.4000000007,49680.4,49664.512,49697.9,51470.300000001,51470.5,2025-01-15T16:14:37Z,51497.8,NULL,Fleisch,mshakiki,d,NA,NA,NA,f,NA,NA,0,NA,NA,NA,NA,NA,NA,NA,NA,NA,NA,NA,NA,NA,NA,NA,NA,NA,NA,NA
ec291,"""Richtig""-Screen",canvas.Screen,3_0_0_0_0_0_1,NA,NA,skipped,NA,51471.4,NA,NA,51470.300000001,51471.4,2025-01-15T16:14:37Z,51497.8,NULL,Fleisch,mshakiki,d,NA,NA,NA,NA,sdf,NA,0,NA,NA,NA,NA,NA,NA,NA,NA,NA,NA,NA,NA,NA,NA,NA,NA,NA,NA,NA
ec291,"""Falsch""-Screen",canvas.Screen,3_0_0_0_0_0_2,NA,NA,timeout,4999.9,51472,51481.2,51497.8,56481,56481.600000001,2025-01-15T16:14:42Z,56497.7,NULL,Fleisch,mshakiki,d,NA,NA,NA,NA,sdf,0,0,NA,NA,NA,NA,NA,NA,NA,NA,NA,NA,NA,NA,NA,NA,NA,NA,NA,NA,NA
ec291,deep,flow.Sequence,3_0_0_0_0_0,NA,NA,completion,6783.1,49680.4,49664.512,49697.9,56481,56481.800000001,2025-01-15T16:14:42Z,56497.7,NULL,Fleisch,mshakiki,d,NA,NA,NA,NA,sdf,NA,0,NA,NA,NA,NA,NA,NA,NA,NA,NA,NA,NA,NA,NA,NA,NA,NA,NA,NA,NA
ec291,shallow,flow.Sequence,3_0_0_0_0_1,NA,NA,skipped,NA,56481.9,NA,NA,56481,56481.9,2025-01-15T16:14:42Z,56497.7,NULL,Fleisch,mshakiki,d,NA,NA,NA,NA,sdf,NA,0,NA,NA,NA,NA,NA,NA,NA,NA,NA,NA,NA,NA,NA,NA,NA,NA,NA,NA,NA
ec291,task,flow.Sequence,3_0_0_0_0,NA,NA,completion,6783.1,49680.4,49664.512,49697.9,56481,56482,2025-01-15T16:14:42Z,56497.7,NULL,Fleisch,mshakiki,d,NA,NA,NA,NA,sdf,NA,0,NA,NA,NA,NA,NA,NA,NA,NA,NA,NA,NA,NA,NA,NA,NA,NA,NA,NA,NA
ec291,deep,flow.Sequence,3_0_0_0_1_0,NA,NA,skipped,NA,56482.100000001,NA,NA,56481,56482.2,2025-01-15T16:14:42Z,56497.7,NULL,Begegnung,kukutana,s,mmasihiya,mpiganaji,husiano,NA,sdf,NA,0,NA,NA,NA,NA,NA,NA,NA,NA,NA,NA,NA,NA,NA,NA,NA,NA,NA,NA,NA
ec291,Shallow Question,html.Page,3_0_0_0_1_1_0,NA,NA,form submission,1346.1000000007,56482.2,56481,56497.7,57843.800000001,57844,2025-01-15T16:14:44Z,57847.7,NULL,Begegnung,kukutana,s,mmasihiya,mpiganaji,husiano,mpiganaji,NA,NA,0,NA,NA,NA,NA,NA,NA,NA,NA,NA,NA,NA,NA,NA,NA,NA,NA,NA,NA,NA
ec291,"""Richtig""-Screen",canvas.Screen,3_0_0_0_1_1_1,NA,NA,skipped,NA,57844.800000001,NA,NA,57843.800000001,57844.9,2025-01-15T16:14:44Z,57847.7,NULL,Begegnung,kukutana,s,mmasihiya,mpiganaji,husiano,NA,sdf,NA,0,NA,NA,NA,NA,NA,NA,NA,NA,NA,NA,NA,NA,NA,NA,NA,NA,NA,NA,NA
ec291,"""Falsch""-Screen",canvas.Screen,3_0_0_0_1_1_2,NA,NA,timeout,4999.8,57845.7,57831.028,57847.7,62830.9,62831.2,2025-01-15T16:14:49Z,62847.5,NULL,Begegnung,kukutana,s,mmasihiya,mpiganaji,husiano,NA,sdf,0,0,NA,NA,NA,NA,NA,NA,NA,NA,NA,NA,NA,NA,NA,NA,NA,NA,NA,NA,NA
ec291,shallow,flow.Sequence,3_0_0_0_1_1,NA,NA,completion,6333.2,56482.2,56481,56497.7,62830.9,62831.300000001,2025-01-15T16:14:49Z,62847.5,NULL,Begegnung,kukutana,s,mmasihiya,mpiganaji,husiano,NA,sdf,NA,0,NA,NA,NA,NA,NA,NA,NA,NA,NA,NA,NA,NA,NA,NA,NA,NA,NA,NA,NA
ec291,task,flow.Sequence,3_0_0_0_1,NA,NA,completion,6333.2,56482.100000001,56481,56497.7,62830.9,62831.4,2025-01-15T16:14:49Z,62847.5,NULL,Begegnung,kukutana,s,mmasihiya,mpiganaji,husiano,NA,sdf,NA,0,NA,NA,NA,NA,NA,NA,NA,NA,NA,NA,NA,NA,NA,NA,NA,NA,NA,NA,NA
ec291,deep,flow.Sequence,3_0_0_0_2_0,NA,NA,skipped,NA,62831.4,NA,NA,62830.9,62831.4,2025-01-15T16:14:49Z,62847.5,NULL,Verzögerung,kuchelewa,s,mwakilishi,mwanauchumi,jaribio,NA,sdf,NA,0,NA,NA,NA,NA,NA,NA,NA,NA,NA,NA,NA,NA,NA,NA,NA,NA,NA,NA,NA
ec291,Shallow Question,html.Page,3_0_0_0_2_1_0,NA,NA,form submission,969.40000000037,62831.4,62830.9,62847.5,63816.9,63817,2025-01-15T16:14:50Z,63830,NULL,Verzögerung,kuchelewa,s,mwakilishi,mwanauchumi,jaribio,kuchelewa,NA,NA,0,NA,NA,NA,NA,NA,NA,NA,NA,NA,NA,NA,NA,NA,NA,NA,NA,NA,NA,NA
ec291,"""Richtig""-Screen",canvas.Screen,3_0_0_0_2_1_1,NA,NA,timeout,4999.8,63817.9,63814.2,63830,68814.1,68814.4,2025-01-15T16:14:55Z,68829.8,NULL,Verzögerung,kuchelewa,s,mwakilishi,mwanauchumi,jaribio,NA,sdf,1,0,NA,NA,NA,NA,NA,NA,NA,NA,NA,NA,NA,NA,NA,NA,NA,NA,NA,NA,NA
ec291,"""Falsch""-Screen",canvas.Screen,3_0_0_0_2_1_2,NA,NA,skipped,NA,68814.9,NA,NA,68814.1,68814.9,2025-01-15T16:14:55Z,68829.8,NULL,Verzögerung,kuchelewa,s,mwakilishi,mwanauchumi,jaribio,NA,sdf,NA,0,NA,NA,NA,NA,NA,NA,NA,NA,NA,NA,NA,NA,NA,NA,NA,NA,NA,NA,NA
ec291,shallow,flow.Sequence,3_0_0_0_2_1,NA,NA,completion,5966.6,62831.4,62830.9,62847.5,68814.1,68815,2025-01-15T16:14:55Z,68829.8,NULL,Verzögerung,kuchelewa,s,mwakilishi,mwanauchumi,jaribio,NA,sdf,NA,0,NA,NA,NA,NA,NA,NA,NA,NA,NA,NA,NA,NA,NA,NA,NA,NA,NA,NA,NA
ec291,task,flow.Sequence,3_0_0_0_2,NA,NA,completion,5966.6,62831.4,62830.9,62847.5,68814.1,68815,2025-01-15T16:14:55Z,68829.8,NULL,Verzögerung,kuchelewa,s,mwakilishi,mwanauchumi,jaribio,NA,sdf,NA,0,NA,NA,NA,NA,NA,NA,NA,NA,NA,NA,NA,NA,NA,NA,NA,NA,NA,NA,NA
ec291,deep,flow.Sequence,3_0_0_0_3_0,NA,NA,skipped,NA,68815,NA,NA,68814.1,68815.100000001,2025-01-15T16:14:55Z,68829.8,NULL,Genehmigung,idhini,s,mwanamke,itikadi,fedheha,NA,sdf,NA,0,NA,NA,NA,NA,NA,NA,NA,NA,NA,NA,NA,NA,NA,NA,NA,NA,NA,NA,NA
ec291,Shallow Question,html.Page,3_0_0_0_3_1_0,NA,NA,form submission,3035.4000000002,68815.100000001,68814.1,68829.8,71865.2,71865.5,2025-01-15T16:14:58Z,71880.7,NULL,Genehmigung,idhini,s,mwanamke,itikadi,fedheha,idhini,NA,NA,0,NA,NA,NA,NA,NA,NA,NA,NA,NA,NA,NA,NA,NA,NA,NA,NA,NA,NA,NA
ec291,"""Richtig""-Screen",canvas.Screen,3_0_0_0_3_1_1,NA,NA,timeout,4999.8,71866.2,71864.01,71880.7,76863.8,76864.4,2025-01-15T16:15:03Z,76880.5,NULL,Genehmigung,idhini,s,mwanamke,itikadi,fedheha,NA,sdf,1,0,NA,NA,NA,NA,NA,NA,NA,NA,NA,NA,NA,NA,NA,NA,NA,NA,NA,NA,NA
ec291,"""Falsch""-Screen",canvas.Screen,3_0_0_0_3_1_2,NA,NA,skipped,NA,76865.2,NA,NA,76863.8,76865.300000001,2025-01-15T16:15:03Z,76880.5,NULL,Genehmigung,idhini,s,mwanamke,itikadi,fedheha,NA,sdf,NA,0,NA,NA,NA,NA,NA,NA,NA,NA,NA,NA,NA,NA,NA,NA,NA,NA,NA,NA,NA
ec291,shallow,flow.Sequence,3_0_0_0_3_1,NA,NA,completion,8034,68815.100000001,68814.1,68829.8,76863.8,76865.4,2025-01-15T16:15:03Z,76880.5,NULL,Genehmigung,idhini,s,mwanamke,itikadi,fedheha,NA,sdf,NA,0,NA,NA,NA,NA,NA,NA,NA,NA,NA,NA,NA,NA,NA,NA,NA,NA,NA,NA,NA
ec291,task,flow.Sequence,3_0_0_0_3,NA,NA,completion,8034,68815,68814.1,68829.8,76863.8,76865.4,2025-01-15T16:15:03Z,76880.5,NULL,Genehmigung,idhini,s,mwanamke,itikadi,fedheha,NA,sdf,NA,0,NA,NA,NA,NA,NA,NA,NA,NA,NA,NA,NA,NA,NA,NA,NA,NA,NA,NA,NA
ec291,Deep Question,html.Page,3_0_0_0_4_0_0,NA,NA,form submission,2210.3000000007,76865.5,76863.8,76880.5,79090.800000001,79091.100000001,2025-01-15T16:15:05Z,79097.132,NULL,Prüfung,mtihani,d,NA,NA,NA,sdf,NA,NA,0,NA,NA,NA,NA,NA,NA,NA,NA,NA,NA,NA,NA,NA,NA,NA,NA,NA,NA,NA
ec291,"""Richtig""-Screen",canvas.Screen,3_0_0_0_4_0_1,NA,NA,skipped,NA,79091.800000001,NA,NA,79090.800000001,79091.9,2025-01-15T16:15:05Z,79097.132,NULL,Prüfung,mtihani,d,NA,NA,NA,NA,sdf,NA,0,NA,NA,NA,NA,NA,NA,NA,NA,NA,NA,NA,NA,NA,NA,NA,NA,NA,NA,NA
ec291,"""Falsch""-Screen",canvas.Screen,3_0_0_0_4_0_2,NA,NA,timeout,4999.068,79092.600000001,79097.132,79097.132,84080.3,84080.9,2025-01-15T16:15:10Z,84096.2,NULL,Prüfung,mtihani,d,NA,NA,NA,NA,sdf,0,0,NA,NA,NA,NA,NA,NA,NA,NA,NA,NA,NA,NA,NA,NA,NA,NA,NA,NA,NA
ec291,deep,flow.Sequence,3_0_0_0_4_0,NA,NA,completion,7199.8,76865.4,76863.8,76880.5,84080.3,84081.100000001,2025-01-15T16:15:10Z,84096.2,NULL,Prüfung,mtihani,d,NA,NA,NA,NA,sdf,NA,0,NA,NA,NA,NA,NA,NA,NA,NA,NA,NA,NA,NA,NA,NA,NA,NA,NA,NA,NA
ec291,shallow,flow.Sequence,3_0_0_0_4_1,NA,NA,skipped,NA,84081.100000001,NA,NA,84080.3,84081.2,2025-01-15T16:15:10Z,84096.2,NULL,Prüfung,mtihani,d,NA,NA,NA,NA,sdf,NA,0,NA,NA,NA,NA,NA,NA,NA,NA,NA,NA,NA,NA,NA,NA,NA,NA,NA,NA,NA
ec291,task,flow.Sequence,3_0_0_0_4,NA,NA,completion,7199.8,76865.4,76863.8,76880.5,84080.3,84081.300000001,2025-01-15T16:15:10Z,84096.2,NULL,Prüfung,mtihani,d,NA,NA,NA,NA,sdf,NA,0,NA,NA,NA,NA,NA,NA,NA,NA,NA,NA,NA,NA,NA,NA,NA,NA,NA,NA,NA
ec291,Deep Question,html.Page,3_0_0_0_5_0_0,NA,NA,form submission,6187.2000000004,84081.300000001,84080.3,84096.2,90283.4,90283.600000001,2025-01-15T16:15:16Z,90296.8,NULL,Aufstand,ugomaji,d,NA,NA,NA,sdf,NA,NA,0,NA,NA,NA,NA,NA,NA,NA,NA,NA,NA,NA,NA,NA,NA,NA,NA,NA,NA,NA
ec291,"""Richtig""-Screen",canvas.Screen,3_0_0_0_5_0_1,NA,NA,skipped,NA,90284.4,NA,NA,90283.4,90284.4,2025-01-15T16:15:16Z,90296.8,NULL,Aufstand,ugomaji,d,NA,NA,NA,NA,sdf,NA,0,NA,NA,NA,NA,NA,NA,NA,NA,NA,NA,NA,NA,NA,NA,NA,NA,NA,NA,NA
ec291,"""Falsch""-Screen",canvas.Screen,3_0_0_0_5_0_2,NA,NA,timeout,4999.9,90285.2,90280.24,90296.8,95280,95280.600000001,2025-01-15T16:15:21Z,95296.7,NULL,Aufstand,ugomaji,d,NA,NA,NA,NA,sdf,0,0,NA,NA,NA,NA,NA,NA,NA,NA,NA,NA,NA,NA,NA,NA,NA,NA,NA,NA,NA
ec291,deep,flow.Sequence,3_0_0_0_5_0,NA,NA,completion,11183.8,84081.300000001,84080.3,84096.2,95280,95280.7,2025-01-15T16:15:21Z,95296.7,NULL,Aufstand,ugomaji,d,NA,NA,NA,NA,sdf,NA,0,NA,NA,NA,NA,NA,NA,NA,NA,NA,NA,NA,NA,NA,NA,NA,NA,NA,NA,NA
ec291,shallow,flow.Sequence,3_0_0_0_5_1,NA,NA,skipped,NA,95280.7,NA,NA,95280,95280.800000001,2025-01-15T16:15:21Z,95296.7,NULL,Aufstand,ugomaji,d,NA,NA,NA,NA,sdf,NA,0,NA,NA,NA,NA,NA,NA,NA,NA,NA,NA,NA,NA,NA,NA,NA,NA,NA,NA,NA
ec291,task,flow.Sequence,3_0_0_0_5,NA,NA,completion,11183.8,84081.300000001,84080.3,84096.2,95280,95280.9,2025-01-15T16:15:21Z,95296.7,NULL,Aufstand,ugomaji,d,NA,NA,NA,NA,sdf,NA,0,NA,NA,NA,NA,NA,NA,NA,NA,NA,NA,NA,NA,NA,NA,NA,NA,NA,NA,NA
ec291,Deep Question,html.Page,3_0_0_0_6_0_0,NA,NA,form submission,2793.3,95281,95280,95296.7,98090,98090.2,2025-01-15T16:15:24Z,98096.5,NULL,Integrität,uadilifu,d,NA,NA,NA,sdf,NA,NA,0,NA,NA,NA,NA,NA,NA,NA,NA,NA,NA,NA,NA,NA,NA,NA,NA,NA,NA,NA
ec291,"""Richtig""-Screen",canvas.Screen,3_0_0_0_6_0_1,NA,NA,skipped,NA,98090.9,NA,NA,98090,98091.100000001,2025-01-15T16:15:24Z,98096.5,NULL,Integrität,uadilifu,d,NA,NA,NA,NA,sdf,NA,0,NA,NA,NA,NA,NA,NA,NA,NA,NA,NA,NA,NA,NA,NA,NA,NA,NA,NA,NA
ec291,"""Falsch""-Screen",canvas.Screen,3_0_0_0_6_0_2,NA,NA,timeout,4999.1,98091.7,98079.9,98096.5,103079.8,103080.4,2025-01-15T16:15:29Z,103095.6,NULL,Integrität,uadilifu,d,NA,NA,NA,NA,sdf,0,0,NA,NA,NA,NA,NA,NA,NA,NA,NA,NA,NA,NA,NA,NA,NA,NA,NA,NA,NA
ec291,deep,flow.Sequence,3_0_0_0_6_0,NA,NA,completion,7783.1,95281,95280,95296.7,103079.8,103080.6,2025-01-15T16:15:29Z,103095.6,NULL,Integrität,uadilifu,d,NA,NA,NA,NA,sdf,NA,0,NA,NA,NA,NA,NA,NA,NA,NA,NA,NA,NA,NA,NA,NA,NA,NA,NA,NA,NA
ec291,shallow,flow.Sequence,3_0_0_0_6_1,NA,NA,skipped,NA,103080.7,NA,NA,103079.8,103080.7,2025-01-15T16:15:29Z,103095.6,NULL,Integrität,uadilifu,d,NA,NA,NA,NA,sdf,NA,0,NA,NA,NA,NA,NA,NA,NA,NA,NA,NA,NA,NA,NA,NA,NA,NA,NA,NA,NA
ec291,task,flow.Sequence,3_0_0_0_6,NA,NA,completion,7783.1,95281,95280,95296.7,103079.8,103080.8,2025-01-15T16:15:29Z,103095.6,NULL,Integrität,uadilifu,d,NA,NA,NA,NA,sdf,NA,0,NA,NA,NA,NA,NA,NA,NA,NA,NA,NA,NA,NA,NA,NA,NA,NA,NA,NA,NA
ec291,deep,flow.Sequence,3_0_0_0_7_0,NA,NA,skipped,NA,103080.8,NA,NA,103079.8,103080.8,2025-01-15T16:15:29Z,103095.6,NULL,Kultur,utamaduni,s,shetani,gerezani,mazingira,NA,sdf,NA,0,NA,NA,NA,NA,NA,NA,NA,NA,NA,NA,NA,NA,NA,NA,NA,NA,NA,NA,NA
ec291,Shallow Question,html.Page,3_0_0_0_7_1_0,NA,NA,form submission,4697.0000000006,103081,103079.8,103095.6,107792.6,107792.9,2025-01-15T16:15:33Z,107813,NULL,Kultur,utamaduni,s,shetani,gerezani,mazingira,gerezani,NA,NA,0,NA,NA,NA,NA,NA,NA,NA,NA,NA,NA,NA,NA,NA,NA,NA,NA,NA,NA,NA
ec291,"""Richtig""-Screen",canvas.Screen,3_0_0_0_7_1_1,NA,NA,skipped,NA,107794,NA,NA,107792.6,107794.1,2025-01-15T16:15:33Z,107813,NULL,Kultur,utamaduni,s,shetani,gerezani,mazingira,NA,sdf,NA,0,NA,NA,NA,NA,NA,NA,NA,NA,NA,NA,NA,NA,NA,NA,NA,NA,NA,NA,NA
ec291,"""Falsch""-Screen",canvas.Screen,3_0_0_0_7_1_2,NA,NA,timeout,4999.8,107794.9,107779.768,107813,112796.2,112796.7,2025-01-15T16:15:38Z,112812.8,NULL,Kultur,utamaduni,s,shetani,gerezani,mazingira,NA,sdf,0,0,NA,NA,NA,NA,NA,NA,NA,NA,NA,NA,NA,NA,NA,NA,NA,NA,NA,NA,NA
ec291,shallow,flow.Sequence,3_0_0_0_7_1,NA,NA,completion,9700.6,103080.9,103079.8,103095.6,112796.2,112796.9,2025-01-15T16:15:38Z,112812.8,NULL,Kultur,utamaduni,s,shetani,gerezani,mazingira,NA,sdf,NA,0,NA,NA,NA,NA,NA,NA,NA,NA,NA,NA,NA,NA,NA,NA,NA,NA,NA,NA,NA
ec291,task,flow.Sequence,3_0_0_0_7,NA,NA,completion,9700.6,103080.8,103079.8,103095.6,112796.2,112796.9,2025-01-15T16:15:38Z,112812.8,NULL,Kultur,utamaduni,s,shetani,gerezani,mazingira,NA,sdf,NA,0,NA,NA,NA,NA,NA,NA,NA,NA,NA,NA,NA,NA,NA,NA,NA,NA,NA,NA,NA
ec291,block,flow.Loop,3_0_0_0,NA,NA,completion,63098.3,49680.4,49664.512,49697.9,112796.2,112797,2025-01-15T16:15:38Z,112812.8,NULL,NA,NA,NA,NA,NA,NA,NA,sdf,NA,0,NA,NA,NA,NA,NA,NA,NA,NA,NA,NA,NA,NA,NA,NA,NA,NA,NA,NA,NA
ec291,weiter,canvas.Screen,3_0_0_1,sdf,keypress(Space),response,689.90000000018,112797,112796.2,112812.8,113502.7,113504.7,2025-01-15T16:15:39Z,113529.5,NULL,NA,NA,NA,NA,NA,NA,NA,sdf,NA,0,NA,NA,NA,NA,NA,NA,NA,NA,NA,NA,NA,NA,NA,NA,NA,NA,NA,NA,NA
ec291,check continue,flow.Sequence,3_0_0,NA,NA,completion,63804.8,49680.4,49664.512,49697.9,113502.7,113504.9,2025-01-15T16:15:39Z,113529.5,NULL,NA,NA,NA,NA,NA,NA,NA,sdf,NA,0,NA,NA,NA,NA,NA,NA,NA,NA,NA,NA,NA,NA,NA,NA,NA,NA,NA,NA,NA
ec291,Deep Question,html.Page,3_0_1_0_0_0_0,NA,NA,form submission,6314.5,113521.6,113512.9,113529.5,119844,119844.2,2025-01-15T16:15:46Z,119846.062,NULL,Integrität,uadilifu,d,NA,NA,NA,igishu,NA,NA,1,NA,NA,NA,NA,NA,NA,NA,NA,NA,NA,NA,NA,NA,NA,NA,NA,NA,NA,NA
ec291,"""Richtig""-Screen",canvas.Screen,3_0_1_0_0_0_1,NA,NA,skipped,NA,119844.9,NA,NA,119844,119845.1,2025-01-15T16:15:46Z,119846.062,NULL,Integrität,uadilifu,d,NA,NA,NA,NA,sdfdsf,NA,1,NA,NA,NA,NA,NA,NA,NA,NA,NA,NA,NA,NA,NA,NA,NA,NA,NA,NA,NA
ec291,"""Falsch""-Screen",canvas.Screen,3_0_1_0_0_0_2,NA,NA,timeout,4999.738,119845.6,119846.062,119846.062,124829.2,124829.7,2025-01-15T16:15:51Z,124845.8,NULL,Integrität,uadilifu,d,NA,NA,NA,NA,sdfdsf,0,1,NA,NA,NA,NA,NA,NA,NA,NA,NA,NA,NA,NA,NA,NA,NA,NA,NA,NA,NA
ec291,deep,flow.Sequence,3_0_1_0_0_0,NA,NA,completion,11299.7,113521.6,113512.9,113529.5,124829.2,124829.8,2025-01-15T16:15:51Z,124845.8,NULL,Integrität,uadilifu,d,NA,NA,NA,NA,sdfdsf,NA,1,NA,NA,NA,NA,NA,NA,NA,NA,NA,NA,NA,NA,NA,NA,NA,NA,NA,NA,NA
ec291,shallow,flow.Sequence,3_0_1_0_0_1,NA,NA,skipped,NA,124830,NA,NA,124829.2,124830,2025-01-15T16:15:51Z,124845.8,NULL,Integrität,uadilifu,d,NA,NA,NA,NA,sdfdsf,NA,1,NA,NA,NA,NA,NA,NA,NA,NA,NA,NA,NA,NA,NA,NA,NA,NA,NA,NA,NA
ec291,task,flow.Sequence,3_0_1_0_0,NA,NA,completion,11299.7,113521.6,113512.9,113529.5,124829.2,124830,2025-01-15T16:15:51Z,124845.8,NULL,Integrität,uadilifu,d,NA,NA,NA,NA,sdfdsf,NA,1,NA,NA,NA,NA,NA,NA,NA,NA,NA,NA,NA,NA,NA,NA,NA,NA,NA,NA,NA
ec291,deep,flow.Sequence,3_0_1_0_1_0,NA,NA,skipped,NA,124830.1,NA,NA,124829.2,124830.1,2025-01-15T16:15:51Z,124845.8,NULL,Genehmigung,idhini,s,mwanamke,itikadi,fedheha,NA,sdfdsf,NA,1,NA,NA,NA,NA,NA,NA,NA,NA,NA,NA,NA,NA,NA,NA,NA,NA,NA,NA,NA
ec291,Shallow Question,html.Page,3_0_1_0_1_1_0,NA,NA,form submission,3040.2,124830.1,124829.2,124845.8,127886,127886.2,2025-01-15T16:15:54Z,127895.4,NULL,Genehmigung,idhini,s,mwanamke,itikadi,fedheha,itikadi,NA,NA,1,NA,NA,NA,NA,NA,NA,NA,NA,NA,NA,NA,NA,NA,NA,NA,NA,NA,NA,NA
ec291,"""Richtig""-Screen",canvas.Screen,3_0_1_0_1_1_1,NA,NA,skipped,NA,127887,NA,NA,127886,127887.1,2025-01-15T16:15:54Z,127895.4,NULL,Genehmigung,idhini,s,mwanamke,itikadi,fedheha,NA,sdfdsf,NA,1,NA,NA,NA,NA,NA,NA,NA,NA,NA,NA,NA,NA,NA,NA,NA,NA,NA,NA,NA
ec291,"""Falsch""-Screen",canvas.Screen,3_0_1_0_1_1_2,NA,NA,timeout,5000.2,127887.7,127879.1,127895.4,132878.9,132879.5,2025-01-15T16:15:59Z,132895.6,NULL,Genehmigung,idhini,s,mwanamke,itikadi,fedheha,NA,sdfdsf,0,1,NA,NA,NA,NA,NA,NA,NA,NA,NA,NA,NA,NA,NA,NA,NA,NA,NA,NA,NA
ec291,shallow,flow.Sequence,3_0_1_0_1_1,NA,NA,completion,8033.1,124830.1,124829.2,124845.8,132878.9,132879.6,2025-01-15T16:15:59Z,132895.6,NULL,Genehmigung,idhini,s,mwanamke,itikadi,fedheha,NA,sdfdsf,NA,1,NA,NA,NA,NA,NA,NA,NA,NA,NA,NA,NA,NA,NA,NA,NA,NA,NA,NA,NA
ec291,task,flow.Sequence,3_0_1_0_1,NA,NA,completion,8033.1,124830.1,124829.2,124845.8,132878.9,132879.7,2025-01-15T16:15:59Z,132895.6,NULL,Genehmigung,idhini,s,mwanamke,itikadi,fedheha,NA,sdfdsf,NA,1,NA,NA,NA,NA,NA,NA,NA,NA,NA,NA,NA,NA,NA,NA,NA,NA,NA,NA,NA
ec291,Deep Question,html.Page,3_0_1_0_2_0_0,NA,NA,form submission,4454.0000000006,132879.8,132878.9,132895.6,137349.6,137349.9,2025-01-15T16:16:03Z,137378.7,NULL,Fleisch,mshakiki,d,NA,NA,NA,ugomaji,NA,NA,1,NA,NA,NA,NA,NA,NA,NA,NA,NA,NA,NA,NA,NA,NA,NA,NA,NA,NA,NA
ec291,"""Richtig""-Screen",canvas.Screen,3_0_1_0_2_0_1,NA,NA,skipped,NA,137350.6,NA,NA,137349.6,137350.6,2025-01-15T16:16:03Z,137378.7,NULL,Fleisch,mshakiki,d,NA,NA,NA,NA,sdfdsf,NA,1,NA,NA,NA,NA,NA,NA,NA,NA,NA,NA,NA,NA,NA,NA,NA,NA,NA,NA,NA
ec291,"""Falsch""-Screen",canvas.Screen,3_0_1_0_2_0_2,NA,NA,timeout,4999.9,137351.2,137362.166,137378.7,142361.9,142362.6,2025-01-15T16:16:08Z,142378.6,NULL,Fleisch,mshakiki,d,NA,NA,NA,NA,sdfdsf,0,1,NA,NA,NA,NA,NA,NA,NA,NA,NA,NA,NA,NA,NA,NA,NA,NA,NA,NA,NA
ec291,deep,flow.Sequence,3_0_1_0_2_0,NA,NA,completion,9466.3,132879.8,132878.9,132895.6,142361.9,142362.7,2025-01-15T16:16:08Z,142378.6,NULL,Fleisch,mshakiki,d,NA,NA,NA,NA,sdfdsf,NA,1,NA,NA,NA,NA,NA,NA,NA,NA,NA,NA,NA,NA,NA,NA,NA,NA,NA,NA,NA
ec291,shallow,flow.Sequence,3_0_1_0_2_1,NA,NA,skipped,NA,142362.8,NA,NA,142361.9,142362.8,2025-01-15T16:16:08Z,142378.6,NULL,Fleisch,mshakiki,d,NA,NA,NA,NA,sdfdsf,NA,1,NA,NA,NA,NA,NA,NA,NA,NA,NA,NA,NA,NA,NA,NA,NA,NA,NA,NA,NA
ec291,task,flow.Sequence,3_0_1_0_2,NA,NA,completion,9466.3,132879.8,132878.9,132895.6,142361.9,142362.9,2025-01-15T16:16:08Z,142378.6,NULL,Fleisch,mshakiki,d,NA,NA,NA,NA,sdfdsf,NA,1,NA,NA,NA,NA,NA,NA,NA,NA,NA,NA,NA,NA,NA,NA,NA,NA,NA,NA,NA
ec291,deep,flow.Sequence,3_0_1_0_3_0,NA,NA,skipped,NA,142363,NA,NA,142361.9,142363.1,2025-01-15T16:16:08Z,142378.6,NULL,Kultur,utamaduni,s,shetani,gerezani,mazingira,NA,sdfdsf,NA,1,NA,NA,NA,NA,NA,NA,NA,NA,NA,NA,NA,NA,NA,NA,NA,NA,NA,NA,NA
ec291,Shallow Question,html.Page,3_0_1_0_3_1_0,NA,NA,form submission,2919.5000000006,142363.1,142361.9,142378.6,145298.1,145298.3,2025-01-15T16:16:11Z,145311.8,NULL,Kultur,utamaduni,s,shetani,gerezani,mazingira,utamaduni,NA,NA,1,NA,NA,NA,NA,NA,NA,NA,NA,NA,NA,NA,NA,NA,NA,NA,NA,NA,NA,NA
ec291,"""Richtig""-Screen",canvas.Screen,3_0_1_0_3_1_1,NA,NA,timeout,4999.9,145299.1,145295.2,145311.8,150295,150295.7,2025-01-15T16:16:16Z,150311.7,NULL,Kultur,utamaduni,s,shetani,gerezani,mazingira,NA,sdfdsf,1,1,NA,NA,NA,NA,NA,NA,NA,NA,NA,NA,NA,NA,NA,NA,NA,NA,NA,NA,NA
ec291,"""Falsch""-Screen",canvas.Screen,3_0_1_0_3_1_2,NA,NA,skipped,NA,150296.6,NA,NA,150295,150296.8,2025-01-15T16:16:16Z,150311.7,NULL,Kultur,utamaduni,s,shetani,gerezani,mazingira,NA,sdfdsf,NA,1,NA,NA,NA,NA,NA,NA,NA,NA,NA,NA,NA,NA,NA,NA,NA,NA,NA,NA,NA
ec291,shallow,flow.Sequence,3_0_1_0_3_1,NA,NA,completion,7916.4,142363.1,142361.9,142378.6,150295,150296.9,2025-01-15T16:16:16Z,150311.7,NULL,Kultur,utamaduni,s,shetani,gerezani,mazingira,NA,sdfdsf,NA,1,NA,NA,NA,NA,NA,NA,NA,NA,NA,NA,NA,NA,NA,NA,NA,NA,NA,NA,NA
ec291,task,flow.Sequence,3_0_1_0_3,NA,NA,completion,7916.4,142363,142361.9,142378.6,150295,150297,2025-01-15T16:16:16Z,150311.7,NULL,Kultur,utamaduni,s,shetani,gerezani,mazingira,NA,sdfdsf,NA,1,NA,NA,NA,NA,NA,NA,NA,NA,NA,NA,NA,NA,NA,NA,NA,NA,NA,NA,NA
ec291,deep,flow.Sequence,3_0_1_0_4_0,NA,NA,skipped,NA,150297.1,NA,NA,150295,150297.1,2025-01-15T16:16:16Z,150311.7,NULL,Verzögerung,kuchelewa,s,mwakilishi,mwanauchumi,jaribio,NA,sdfdsf,NA,1,NA,NA,NA,NA,NA,NA,NA,NA,NA,NA,NA,NA,NA,NA,NA,NA,NA,NA,NA
ec291,Shallow Question,html.Page,3_0_1_0_4_1_0,NA,NA,form submission,2325.6000000007,150297.1,150295,150311.7,152637.3,152637.4,2025-01-15T16:16:18Z,152645,NULL,Verzögerung,kuchelewa,s,mwakilishi,mwanauchumi,jaribio,jaribio,NA,NA,1,NA,NA,NA,NA,NA,NA,NA,NA,NA,NA,NA,NA,NA,NA,NA,NA,NA,NA,NA
ec291,"""Richtig""-Screen",canvas.Screen,3_0_1_0_4_1_1,NA,NA,skipped,NA,152638.2,NA,NA,152637.3,152638.2,2025-01-15T16:16:18Z,152645,NULL,Verzögerung,kuchelewa,s,mwakilishi,mwanauchumi,jaribio,NA,sdfdsf,NA,1,NA,NA,NA,NA,NA,NA,NA,NA,NA,NA,NA,NA,NA,NA,NA,NA,NA,NA,NA
ec291,"""Falsch""-Screen",canvas.Screen,3_0_1_0_4_1_2,NA,NA,timeout,4999.8,152638.8,152628.324,152645,157628.2,157628.7,2025-01-15T16:16:23Z,157644.8,NULL,Verzögerung,kuchelewa,s,mwakilishi,mwanauchumi,jaribio,NA,sdfdsf,0,1,NA,NA,NA,NA,NA,NA,NA,NA,NA,NA,NA,NA,NA,NA,NA,NA,NA,NA,NA
ec291,shallow,flow.Sequence,3_0_1_0_4_1,NA,NA,completion,7316.5,150297.1,150295,150311.7,157628.2,157628.9,2025-01-15T16:16:23Z,157644.8,NULL,Verzögerung,kuchelewa,s,mwakilishi,mwanauchumi,jaribio,NA,sdfdsf,NA,1,NA,NA,NA,NA,NA,NA,NA,NA,NA,NA,NA,NA,NA,NA,NA,NA,NA,NA,NA
ec291,task,flow.Sequence,3_0_1_0_4,NA,NA,completion,7316.5,150297.1,150295,150311.7,157628.2,157629,2025-01-15T16:16:23Z,157644.8,NULL,Verzögerung,kuchelewa,s,mwakilishi,mwanauchumi,jaribio,NA,sdfdsf,NA,1,NA,NA,NA,NA,NA,NA,NA,NA,NA,NA,NA,NA,NA,NA,NA,NA,NA,NA,NA
ec291,Deep Question,html.Page,3_0_1_0_5_0_0,NA,NA,form submission,2899.9000000002,157629.1,157628.2,157644.8,160544.7,160545.1,2025-01-15T16:16:26Z,160561.1,NULL,Aufstand,ugomaji,d,NA,NA,NA,sdf,NA,NA,1,NA,NA,NA,NA,NA,NA,NA,NA,NA,NA,NA,NA,NA,NA,NA,NA,NA,NA,NA
ec291,"""Richtig""-Screen",canvas.Screen,3_0_1_0_5_0_1,NA,NA,skipped,NA,160546,NA,NA,160544.7,160546,2025-01-15T16:16:26Z,160561.1,NULL,Aufstand,ugomaji,d,NA,NA,NA,NA,sdfdsf,NA,1,NA,NA,NA,NA,NA,NA,NA,NA,NA,NA,NA,NA,NA,NA,NA,NA,NA,NA,NA
ec291,"""Falsch""-Screen",canvas.Screen,3_0_1_0_5_0_2,NA,NA,timeout,5000.3,160546.7,160544.856,160561.1,165544.7,165545.4,2025-01-15T16:16:31Z,165561.4,NULL,Aufstand,ugomaji,d,NA,NA,NA,NA,sdfdsf,0,1,NA,NA,NA,NA,NA,NA,NA,NA,NA,NA,NA,NA,NA,NA,NA,NA,NA,NA,NA
ec291,deep,flow.Sequence,3_0_1_0_5_0,NA,NA,completion,7899.9,157629,157628.2,157644.8,165544.7,165545.6,2025-01-15T16:16:31Z,165561.4,NULL,Aufstand,ugomaji,d,NA,NA,NA,NA,sdfdsf,NA,1,NA,NA,NA,NA,NA,NA,NA,NA,NA,NA,NA,NA,NA,NA,NA,NA,NA,NA,NA
ec291,shallow,flow.Sequence,3_0_1_0_5_1,NA,NA,skipped,NA,165545.7,NA,NA,165544.7,165545.8,2025-01-15T16:16:31Z,165561.4,NULL,Aufstand,ugomaji,d,NA,NA,NA,NA,sdfdsf,NA,1,NA,NA,NA,NA,NA,NA,NA,NA,NA,NA,NA,NA,NA,NA,NA,NA,NA,NA,NA
ec291,task,flow.Sequence,3_0_1_0_5,NA,NA,completion,7899.9,157629,157628.2,157644.8,165544.7,165545.8,2025-01-15T16:16:31Z,165561.4,NULL,Aufstand,ugomaji,d,NA,NA,NA,NA,sdfdsf,NA,1,NA,NA,NA,NA,NA,NA,NA,NA,NA,NA,NA,NA,NA,NA,NA,NA,NA,NA,NA
ec291,deep,flow.Sequence,3_0_1_0_6_0,NA,NA,skipped,NA,165546,NA,NA,165544.7,165546,2025-01-15T16:16:31Z,165561.4,NULL,Begegnung,kukutana,s,mmasihiya,mpiganaji,husiano,NA,sdfdsf,NA,1,NA,NA,NA,NA,NA,NA,NA,NA,NA,NA,NA,NA,NA,NA,NA,NA,NA,NA,NA
ec291,Shallow Question,html.Page,3_0_1_0_6_1_0,NA,NA,form submission,3028.2000000006,165546,165544.7,165561.4,168589.6,168590,2025-01-15T16:16:34Z,168594.2,NULL,Begegnung,kukutana,s,mmasihiya,mpiganaji,husiano,husiano,NA,NA,1,NA,NA,NA,NA,NA,NA,NA,NA,NA,NA,NA,NA,NA,NA,NA,NA,NA,NA,NA
ec291,"""Richtig""-Screen",canvas.Screen,3_0_1_0_6_1_1,NA,NA,skipped,NA,168591.1,NA,NA,168589.6,168591.1,2025-01-15T16:16:34Z,168594.2,NULL,Begegnung,kukutana,s,mmasihiya,mpiganaji,husiano,NA,sdfdsf,NA,1,NA,NA,NA,NA,NA,NA,NA,NA,NA,NA,NA,NA,NA,NA,NA,NA,NA,NA,NA
ec291,"""Falsch""-Screen",canvas.Screen,3_0_1_0_6_1_2,NA,NA,timeout,5000.4,168591.8,168578.076,168594.2,173577.9,173578.7,2025-01-15T16:16:39Z,173594.6,NULL,Begegnung,kukutana,s,mmasihiya,mpiganaji,husiano,NA,sdfdsf,0,1,NA,NA,NA,NA,NA,NA,NA,NA,NA,NA,NA,NA,NA,NA,NA,NA,NA,NA,NA
ec291,shallow,flow.Sequence,3_0_1_0_6_1,NA,NA,completion,8016.5,165546,165544.7,165561.4,173577.9,173578.9,2025-01-15T16:16:39Z,173594.6,NULL,Begegnung,kukutana,s,mmasihiya,mpiganaji,husiano,NA,sdfdsf,NA,1,NA,NA,NA,NA,NA,NA,NA,NA,NA,NA,NA,NA,NA,NA,NA,NA,NA,NA,NA
ec291,task,flow.Sequence,3_0_1_0_6,NA,NA,completion,8016.5,165546,165544.7,165561.4,173577.9,173579,2025-01-15T16:16:39Z,173594.6,NULL,Begegnung,kukutana,s,mmasihiya,mpiganaji,husiano,NA,sdfdsf,NA,1,NA,NA,NA,NA,NA,NA,NA,NA,NA,NA,NA,NA,NA,NA,NA,NA,NA,NA,NA
ec291,Deep Question,html.Page,3_0_1_0_7_0_0,NA,NA,form submission,4847.7000000007,173579.2,173577.9,173594.6,178442.3,178442.5,2025-01-15T16:16:44Z,178460.5,NULL,Prüfung,mtihani,d,NA,NA,NA,mtiani,NA,NA,1,NA,NA,NA,NA,NA,NA,NA,NA,NA,NA,NA,NA,NA,NA,NA,NA,NA,NA,NA
ec291,"""Richtig""-Screen",canvas.Screen,3_0_1_0_7_0_1,NA,NA,skipped,NA,178443.4,NA,NA,178442.3,178443.4,2025-01-15T16:16:44Z,178460.5,NULL,Prüfung,mtihani,d,NA,NA,NA,NA,sdfdsf,NA,1,NA,NA,NA,NA,NA,NA,NA,NA,NA,NA,NA,NA,NA,NA,NA,NA,NA,NA,NA
ec291,"""Falsch""-Screen",canvas.Screen,3_0_1_0_7_0_2,NA,NA,timeout,5000.6,178444,178444.594,178460.5,183444.4,183445.1,2025-01-15T16:16:49Z,183461.1,NULL,Prüfung,mtihani,d,NA,NA,NA,NA,sdfdsf,0,1,NA,NA,NA,NA,NA,NA,NA,NA,NA,NA,NA,NA,NA,NA,NA,NA,NA,NA,NA
ec291,deep,flow.Sequence,3_0_1_0_7_0,NA,NA,completion,9849.8,173579.2,173577.9,173594.6,183444.4,183445.2,2025-01-15T16:16:49Z,183461.1,NULL,Prüfung,mtihani,d,NA,NA,NA,NA,sdfdsf,NA,1,NA,NA,NA,NA,NA,NA,NA,NA,NA,NA,NA,NA,NA,NA,NA,NA,NA,NA,NA
ec291,shallow,flow.Sequence,3_0_1_0_7_1,NA,NA,skipped,NA,183445.3,NA,NA,183444.4,183445.3,2025-01-15T16:16:49Z,183461.1,NULL,Prüfung,mtihani,d,NA,NA,NA,NA,sdfdsf,NA,1,NA,NA,NA,NA,NA,NA,NA,NA,NA,NA,NA,NA,NA,NA,NA,NA,NA,NA,NA
ec291,task,flow.Sequence,3_0_1_0_7,NA,NA,completion,9849.8,173579.1,173577.9,173594.6,183444.4,183445.4,2025-01-15T16:16:49Z,183461.1,NULL,Prüfung,mtihani,d,NA,NA,NA,NA,sdfdsf,NA,1,NA,NA,NA,NA,NA,NA,NA,NA,NA,NA,NA,NA,NA,NA,NA,NA,NA,NA,NA
ec291,block,flow.Loop,3_0_1_0,NA,NA,completion,69914.9,113521.6,113512.9,113529.5,183444.4,183445.5,2025-01-15T16:16:49Z,183461.1,NULL,NA,NA,NA,NA,NA,NA,NA,sdfdsf,NA,1,NA,NA,NA,NA,NA,NA,NA,NA,NA,NA,NA,NA,NA,NA,NA,NA,NA,NA,NA
ec291,weiter,canvas.Screen,3_0_1_1,sdf,keypress(Space),response,845.80000000037,183445.5,183444.4,183461.1,184306.9,184309.9,2025-01-15T16:16:50Z,184344.5,NULL,NA,NA,NA,NA,NA,NA,NA,sdfdsf,NA,1,NA,NA,NA,NA,NA,NA,NA,NA,NA,NA,NA,NA,NA,NA,NA,NA,NA,NA,NA
ec291,check continue,flow.Sequence,3_0_1,NA,NA,completion,70777.4,113521.6,113512.9,113529.5,184306.9,184310.1,2025-01-15T16:16:50Z,184344.5,NULL,NA,NA,NA,NA,NA,NA,NA,sdfdsf,NA,1,NA,NA,NA,NA,NA,NA,NA,NA,NA,NA,NA,NA,NA,NA,NA,NA,NA,NA,NA
ec291,deep,flow.Sequence,3_0_2_0_0_0,NA,NA,skipped,NA,184332.9,NA,NA,184306.9,184333,2025-01-15T16:16:50Z,184344.5,NULL,Kultur,utamaduni,s,shetani,gerezani,mazingira,NA,sdf,NA,2,NA,NA,NA,NA,NA,NA,NA,NA,NA,NA,NA,NA,NA,NA,NA,NA,NA,NA,NA
ec291,Shallow Question,html.Page,3_0_2_0_0_1_0,NA,NA,form submission,2285.1000000006,184333.1,184327.81,184344.5,186629.6,186630,2025-01-15T16:16:52Z,186644.4,NULL,Kultur,utamaduni,s,shetani,gerezani,mazingira,gerezani,NA,NA,2,NA,NA,NA,NA,NA,NA,NA,NA,NA,NA,NA,NA,NA,NA,NA,NA,NA,NA,NA
ec291,"""Richtig""-Screen",canvas.Screen,3_0_2_0_0_1_1,NA,NA,skipped,NA,186631,NA,NA,186629.6,186631.1,2025-01-15T16:16:52Z,186644.4,NULL,Kultur,utamaduni,s,shetani,gerezani,mazingira,NA,sdf,NA,2,NA,NA,NA,NA,NA,NA,NA,NA,NA,NA,NA,NA,NA,NA,NA,NA,NA,NA,NA
ec291,"""Falsch""-Screen",canvas.Screen,3_0_2_0_0_1_2,NA,NA,timeout,5000,186631.7,186627.8,186644.4,191627.6,191628.5,2025-01-15T16:16:57Z,191644.4,NULL,Kultur,utamaduni,s,shetani,gerezani,mazingira,NA,sdf,0,2,NA,NA,NA,NA,NA,NA,NA,NA,NA,NA,NA,NA,NA,NA,NA,NA,NA,NA,NA
ec291,shallow,flow.Sequence,3_0_2_0_0_1,NA,NA,completion,7283.1,184333.1,184327.81,184344.5,191627.6,191628.7,2025-01-15T16:16:57Z,191644.4,NULL,Kultur,utamaduni,s,shetani,gerezani,mazingira,NA,sdf,NA,2,NA,NA,NA,NA,NA,NA,NA,NA,NA,NA,NA,NA,NA,NA,NA,NA,NA,NA,NA
ec291,task,flow.Sequence,3_0_2_0_0,NA,NA,completion,7283.1,184332.9,184327.81,184344.5,191627.6,191628.9,2025-01-15T16:16:57Z,191644.4,NULL,Kultur,utamaduni,s,shetani,gerezani,mazingira,NA,sdf,NA,2,NA,NA,NA,NA,NA,NA,NA,NA,NA,NA,NA,NA,NA,NA,NA,NA,NA,NA,NA
ec291,Deep Question,html.Page,3_0_2_0_1_0_0,NA,NA,form submission,7970.8000000002,191629,191627.6,191644.4,199615.2,199615.5,2025-01-15T16:17:05Z,199627.7,NULL,Integrität,uadilifu,d,NA,NA,NA,sf,NA,NA,2,NA,NA,NA,NA,NA,NA,NA,NA,NA,NA,NA,NA,NA,NA,NA,NA,NA,NA,NA
ec291,"""Richtig""-Screen",canvas.Screen,3_0_2_0_1_0_1,NA,NA,skipped,NA,199616.5,NA,NA,199615.2,199616.6,2025-01-15T16:17:05Z,199627.7,NULL,Integrität,uadilifu,d,NA,NA,NA,NA,sdf,NA,2,NA,NA,NA,NA,NA,NA,NA,NA,NA,NA,NA,NA,NA,NA,NA,NA,NA,NA,NA
ec291,"""Falsch""-Screen",canvas.Screen,3_0_2_0_1_0_2,NA,NA,timeout,4999.9,199617.3,199611.018,199627.7,204610.9,204611.5,2025-01-15T16:17:10Z,204627.6,NULL,Integrität,uadilifu,d,NA,NA,NA,NA,sdf,0,2,NA,NA,NA,NA,NA,NA,NA,NA,NA,NA,NA,NA,NA,NA,NA,NA,NA,NA,NA
ec291,deep,flow.Sequence,3_0_2_0_1_0,NA,NA,completion,12966.5,191628.9,191627.6,191644.4,204610.9,204611.7,2025-01-15T16:17:10Z,204627.6,NULL,Integrität,uadilifu,d,NA,NA,NA,NA,sdf,NA,2,NA,NA,NA,NA,NA,NA,NA,NA,NA,NA,NA,NA,NA,NA,NA,NA,NA,NA,NA
ec291,shallow,flow.Sequence,3_0_2_0_1_1,NA,NA,skipped,NA,204611.7,NA,NA,204610.9,204611.8,2025-01-15T16:17:10Z,204627.6,NULL,Integrität,uadilifu,d,NA,NA,NA,NA,sdf,NA,2,NA,NA,NA,NA,NA,NA,NA,NA,NA,NA,NA,NA,NA,NA,NA,NA,NA,NA,NA
ec291,task,flow.Sequence,3_0_2_0_1,NA,NA,completion,12966.5,191628.9,191627.6,191644.4,204610.9,204611.8,2025-01-15T16:17:10Z,204627.6,NULL,Integrität,uadilifu,d,NA,NA,NA,NA,sdf,NA,2,NA,NA,NA,NA,NA,NA,NA,NA,NA,NA,NA,NA,NA,NA,NA,NA,NA,NA,NA
ec291,Deep Question,html.Page,3_0_2_0_2_0_0,NA,NA,form submission,3594.5000000006,204611.9,204610.9,204627.6,208222.1,208222.4,2025-01-15T16:17:14Z,208227.6,NULL,Aufstand,ugomaji,d,NA,NA,NA,ugomaji,NA,NA,2,NA,NA,NA,NA,NA,NA,NA,NA,NA,NA,NA,NA,NA,NA,NA,NA,NA,NA,NA
ec291,"""Richtig""-Screen",canvas.Screen,3_0_2_0_2_0_1,NA,NA,timeout,4999.4,208223.1,208210.9,208227.6,213210.9,213211.5,2025-01-15T16:17:19Z,213227,NULL,Aufstand,ugomaji,d,NA,NA,NA,NA,sdf,1,2,NA,NA,NA,NA,NA,NA,NA,NA,NA,NA,NA,NA,NA,NA,NA,NA,NA,NA,NA
ec291,"""Falsch""-Screen",canvas.Screen,3_0_2_0_2_0_2,NA,NA,skipped,NA,213212.6,NA,NA,213210.9,213212.7,2025-01-15T16:17:19Z,213227,NULL,Aufstand,ugomaji,d,NA,NA,NA,NA,sdf,NA,2,NA,NA,NA,NA,NA,NA,NA,NA,NA,NA,NA,NA,NA,NA,NA,NA,NA,NA,NA
ec291,deep,flow.Sequence,3_0_2_0_2_0,NA,NA,completion,8583.3,204611.9,204610.9,204627.6,213210.9,213212.8,2025-01-15T16:17:19Z,213227,NULL,Aufstand,ugomaji,d,NA,NA,NA,NA,sdf,NA,2,NA,NA,NA,NA,NA,NA,NA,NA,NA,NA,NA,NA,NA,NA,NA,NA,NA,NA,NA
ec291,shallow,flow.Sequence,3_0_2_0_2_1,NA,NA,skipped,NA,213212.8,NA,NA,213210.9,213212.9,2025-01-15T16:17:19Z,213227,NULL,Aufstand,ugomaji,d,NA,NA,NA,NA,sdf,NA,2,NA,NA,NA,NA,NA,NA,NA,NA,NA,NA,NA,NA,NA,NA,NA,NA,NA,NA,NA
ec291,task,flow.Sequence,3_0_2_0_2,NA,NA,completion,8583.3,204611.9,204610.9,204627.6,213210.9,213213,2025-01-15T16:17:19Z,213227,NULL,Aufstand,ugomaji,d,NA,NA,NA,NA,sdf,NA,2,NA,NA,NA,NA,NA,NA,NA,NA,NA,NA,NA,NA,NA,NA,NA,NA,NA,NA,NA
ec291,deep,flow.Sequence,3_0_2_0_3_0,NA,NA,skipped,NA,213213.1,NA,NA,213210.9,213213.1,2025-01-15T16:17:19Z,213227,NULL,Verzögerung,kuchelewa,s,mwakilishi,mwanauchumi,jaribio,NA,sdf,NA,2,NA,NA,NA,NA,NA,NA,NA,NA,NA,NA,NA,NA,NA,NA,NA,NA,NA,NA,NA
ec291,Shallow Question,html.Page,3_0_2_0_3_1_0,NA,NA,form submission,2505.5,213213.2,213210.9,213227,215732.5,215732.9,2025-01-15T16:17:21Z,215744.1,NULL,Verzögerung,kuchelewa,s,mwakilishi,mwanauchumi,jaribio,mwanauchumi,NA,NA,2,NA,NA,NA,NA,NA,NA,NA,NA,NA,NA,NA,NA,NA,NA,NA,NA,NA,NA,NA
ec291,"""Richtig""-Screen",canvas.Screen,3_0_2_0_3_1_1,NA,NA,skipped,NA,215734.1,NA,NA,215732.5,215734.2,2025-01-15T16:17:21Z,215744.1,NULL,Verzögerung,kuchelewa,s,mwakilishi,mwanauchumi,jaribio,NA,sdf,NA,2,NA,NA,NA,NA,NA,NA,NA,NA,NA,NA,NA,NA,NA,NA,NA,NA,NA,NA,NA
ec291,"""Falsch""-Screen",canvas.Screen,3_0_2_0_3_1_2,NA,NA,timeout,5000,215735,215727.528,215744.1,220727.5,220728.1,2025-01-15T16:17:26Z,220744.1,NULL,Verzögerung,kuchelewa,s,mwakilishi,mwanauchumi,jaribio,NA,sdf,0,2,NA,NA,NA,NA,NA,NA,NA,NA,NA,NA,NA,NA,NA,NA,NA,NA,NA,NA,NA
ec291,shallow,flow.Sequence,3_0_2_0_3_1,NA,NA,completion,7500.5,213213.1,213210.9,213227,220727.5,220728.4,2025-01-15T16:17:26Z,220744.1,NULL,Verzögerung,kuchelewa,s,mwakilishi,mwanauchumi,jaribio,NA,sdf,NA,2,NA,NA,NA,NA,NA,NA,NA,NA,NA,NA,NA,NA,NA,NA,NA,NA,NA,NA,NA
ec291,task,flow.Sequence,3_0_2_0_3,NA,NA,completion,7500.5,213213,213210.9,213227,220727.5,220728.5,2025-01-15T16:17:26Z,220744.1,NULL,Verzögerung,kuchelewa,s,mwakilishi,mwanauchumi,jaribio,NA,sdf,NA,2,NA,NA,NA,NA,NA,NA,NA,NA,NA,NA,NA,NA,NA,NA,NA,NA,NA,NA,NA
ec291,deep,flow.Sequence,3_0_2_0_4_0,NA,NA,skipped,NA,220728.6,NA,NA,220727.5,220728.6,2025-01-15T16:17:26Z,220744.1,NULL,Begegnung,kukutana,s,mmasihiya,mpiganaji,husiano,NA,sdf,NA,2,NA,NA,NA,NA,NA,NA,NA,NA,NA,NA,NA,NA,NA,NA,NA,NA,NA,NA,NA
ec291,Shallow Question,html.Page,3_0_2_0_4_1_0,NA,NA,form submission,3397.9,220728.7,220727.5,220744.1,224142,224142.2,2025-01-15T16:17:30Z,224144.1,NULL,Begegnung,kukutana,s,mmasihiya,mpiganaji,husiano,kukutana,NA,NA,2,NA,NA,NA,NA,NA,NA,NA,NA,NA,NA,NA,NA,NA,NA,NA,NA,NA,NA,NA
ec291,"""Richtig""-Screen",canvas.Screen,3_0_2_0_4_1_1,NA,NA,timeout,4999.4,224143.1,224127.512,224144.1,229127.4,229128.1,2025-01-15T16:17:35Z,229143.5,NULL,Begegnung,kukutana,s,mmasihiya,mpiganaji,husiano,NA,sdf,1,2,NA,NA,NA,NA,NA,NA,NA,NA,NA,NA,NA,NA,NA,NA,NA,NA,NA,NA,NA
ec291,"""Falsch""-Screen",canvas.Screen,3_0_2_0_4_1_2,NA,NA,skipped,NA,229129.2,NA,NA,229127.4,229129.2,2025-01-15T16:17:35Z,229143.5,NULL,Begegnung,kukutana,s,mmasihiya,mpiganaji,husiano,NA,sdf,NA,2,NA,NA,NA,NA,NA,NA,NA,NA,NA,NA,NA,NA,NA,NA,NA,NA,NA,NA,NA
ec291,shallow,flow.Sequence,3_0_2_0_4_1,NA,NA,completion,8383.3,220728.7,220727.5,220744.1,229127.4,229129.3,2025-01-15T16:17:35Z,229143.5,NULL,Begegnung,kukutana,s,mmasihiya,mpiganaji,husiano,NA,sdf,NA,2,NA,NA,NA,NA,NA,NA,NA,NA,NA,NA,NA,NA,NA,NA,NA,NA,NA,NA,NA
ec291,task,flow.Sequence,3_0_2_0_4,NA,NA,completion,8383.3,220728.6,220727.5,220744.1,229127.4,229129.4,2025-01-15T16:17:35Z,229143.5,NULL,Begegnung,kukutana,s,mmasihiya,mpiganaji,husiano,NA,sdf,NA,2,NA,NA,NA,NA,NA,NA,NA,NA,NA,NA,NA,NA,NA,NA,NA,NA,NA,NA,NA
ec291,Deep Question,html.Page,3_0_2_0_5_0_0,NA,NA,form submission,3598,229129.5,229127.4,229143.5,232741.5,232741.7,2025-01-15T16:17:38Z,232744.124,NULL,Fleisch,mshakiki,d,NA,NA,NA,udadilfu,NA,NA,2,NA,NA,NA,NA,NA,NA,NA,NA,NA,NA,NA,NA,NA,NA,NA,NA,NA,NA,NA
ec291,"""Richtig""-Screen",canvas.Screen,3_0_2_0_5_0_1,NA,NA,skipped,NA,232742.6,NA,NA,232741.5,232742.7,2025-01-15T16:17:38Z,232744.124,NULL,Fleisch,mshakiki,d,NA,NA,NA,NA,sdf,NA,2,NA,NA,NA,NA,NA,NA,NA,NA,NA,NA,NA,NA,NA,NA,NA,NA,NA,NA,NA
ec291,"""Falsch""-Screen",canvas.Screen,3_0_2_0_5_0_2,NA,NA,timeout,4999.876,232743.3,232744.124,232744.124,237727.4,237728,2025-01-15T16:17:43Z,237744,NULL,Fleisch,mshakiki,d,NA,NA,NA,NA,sdf,0,2,NA,NA,NA,NA,NA,NA,NA,NA,NA,NA,NA,NA,NA,NA,NA,NA,NA,NA,NA
ec291,deep,flow.Sequence,3_0_2_0_5_0,NA,NA,completion,8583.9,229129.5,229127.4,229143.5,237727.4,237728.1,2025-01-15T16:17:43Z,237744,NULL,Fleisch,mshakiki,d,NA,NA,NA,NA,sdf,NA,2,NA,NA,NA,NA,NA,NA,NA,NA,NA,NA,NA,NA,NA,NA,NA,NA,NA,NA,NA
ec291,shallow,flow.Sequence,3_0_2_0_5_1,NA,NA,skipped,NA,237728.2,NA,NA,237727.4,237728.2,2025-01-15T16:17:43Z,237744,NULL,Fleisch,mshakiki,d,NA,NA,NA,NA,sdf,NA,2,NA,NA,NA,NA,NA,NA,NA,NA,NA,NA,NA,NA,NA,NA,NA,NA,NA,NA,NA
ec291,task,flow.Sequence,3_0_2_0_5,NA,NA,completion,8583.9,229129.5,229127.4,229143.5,237727.4,237728.4,2025-01-15T16:17:43Z,237744,NULL,Fleisch,mshakiki,d,NA,NA,NA,NA,sdf,NA,2,NA,NA,NA,NA,NA,NA,NA,NA,NA,NA,NA,NA,NA,NA,NA,NA,NA,NA,NA
ec291,deep,flow.Sequence,3_0_2_0_6_0,NA,NA,skipped,NA,237728.4,NA,NA,237727.4,237728.4,2025-01-15T16:17:43Z,237744,NULL,Genehmigung,idhini,s,mwanamke,itikadi,fedheha,NA,sdf,NA,2,NA,NA,NA,NA,NA,NA,NA,NA,NA,NA,NA,NA,NA,NA,NA,NA,NA,NA,NA
ec291,Shallow Question,html.Page,3_0_2_0_6_1_0,NA,NA,form submission,2443.1000000006,237728.4,237727.4,237744,240187.1,240187.5,2025-01-15T16:17:46Z,240210.7,NULL,Genehmigung,idhini,s,mwanamke,itikadi,fedheha,idhini,NA,NA,2,NA,NA,NA,NA,NA,NA,NA,NA,NA,NA,NA,NA,NA,NA,NA,NA,NA,NA,NA
ec291,"""Richtig""-Screen",canvas.Screen,3_0_2_0_6_1_1,NA,NA,timeout,5000,240188.4,240194.1,240210.7,245194,245194.9,2025-01-15T16:17:51Z,245210.7,NULL,Genehmigung,idhini,s,mwanamke,itikadi,fedheha,NA,sdf,1,2,NA,NA,NA,NA,NA,NA,NA,NA,NA,NA,NA,NA,NA,NA,NA,NA,NA,NA,NA
ec291,"""Falsch""-Screen",canvas.Screen,3_0_2_0_6_1_2,NA,NA,skipped,NA,245195.9,NA,NA,245194,245196,2025-01-15T16:17:51Z,245210.7,NULL,Genehmigung,idhini,s,mwanamke,itikadi,fedheha,NA,sdf,NA,2,NA,NA,NA,NA,NA,NA,NA,NA,NA,NA,NA,NA,NA,NA,NA,NA,NA,NA,NA
ec291,shallow,flow.Sequence,3_0_2_0_6_1,NA,NA,completion,7450,237728.4,237727.4,237744,245194,245196.1,2025-01-15T16:17:51Z,245210.7,NULL,Genehmigung,idhini,s,mwanamke,itikadi,fedheha,NA,sdf,NA,2,NA,NA,NA,NA,NA,NA,NA,NA,NA,NA,NA,NA,NA,NA,NA,NA,NA,NA,NA
ec291,task,flow.Sequence,3_0_2_0_6,NA,NA,completion,7450,237728.4,237727.4,237744,245194,245196.1,2025-01-15T16:17:51Z,245210.7,NULL,Genehmigung,idhini,s,mwanamke,itikadi,fedheha,NA,sdf,NA,2,NA,NA,NA,NA,NA,NA,NA,NA,NA,NA,NA,NA,NA,NA,NA,NA,NA,NA,NA
ec291,Deep Question,html.Page,3_0_2_0_7_0_0,NA,NA,form submission,2471.8,245196.3,245194,245210.7,247682.5,247682.8,2025-01-15T16:17:53Z,247710.7,NULL,Prüfung,mtihani,d,NA,NA,NA,mashakiki,NA,NA,2,NA,NA,NA,NA,NA,NA,NA,NA,NA,NA,NA,NA,NA,NA,NA,NA,NA,NA,NA
ec291,"""Richtig""-Screen",canvas.Screen,3_0_2_0_7_0_1,NA,NA,skipped,NA,247683.5,NA,NA,247682.5,247683.7,2025-01-15T16:17:53Z,247710.7,NULL,Prüfung,mtihani,d,NA,NA,NA,NA,sdf,NA,2,NA,NA,NA,NA,NA,NA,NA,NA,NA,NA,NA,NA,NA,NA,NA,NA,NA,NA,NA
ec291,"""Falsch""-Screen",canvas.Screen,3_0_2_0_7_0_2,NA,NA,timeout,5000,247684.2,247694.026,247710.7,252694,252694.9,2025-01-15T16:17:58Z,252710.7,NULL,Prüfung,mtihani,d,NA,NA,NA,NA,sdf,0,2,NA,NA,NA,NA,NA,NA,NA,NA,NA,NA,NA,NA,NA,NA,NA,NA,NA,NA,NA
ec291,deep,flow.Sequence,3_0_2_0_7_0,NA,NA,completion,7483.3,245196.2,245194,245210.7,252694,252695,2025-01-15T16:17:58Z,252710.7,NULL,Prüfung,mtihani,d,NA,NA,NA,NA,sdf,NA,2,NA,NA,NA,NA,NA,NA,NA,NA,NA,NA,NA,NA,NA,NA,NA,NA,NA,NA,NA
ec291,shallow,flow.Sequence,3_0_2_0_7_1,NA,NA,skipped,NA,252695.2,NA,NA,252694,252695.2,2025-01-15T16:17:58Z,252710.7,NULL,Prüfung,mtihani,d,NA,NA,NA,NA,sdf,NA,2,NA,NA,NA,NA,NA,NA,NA,NA,NA,NA,NA,NA,NA,NA,NA,NA,NA,NA,NA
ec291,task,flow.Sequence,3_0_2_0_7,NA,NA,completion,7483.3,245196.2,245194,245210.7,252694,252695.3,2025-01-15T16:17:58Z,252710.7,NULL,Prüfung,mtihani,d,NA,NA,NA,NA,sdf,NA,2,NA,NA,NA,NA,NA,NA,NA,NA,NA,NA,NA,NA,NA,NA,NA,NA,NA,NA,NA
ec291,block,flow.Loop,3_0_2_0,NA,NA,completion,68349.5,184332.8,184327.81,184344.5,252694,252695.4,2025-01-15T16:17:58Z,252710.7,NULL,NA,NA,NA,NA,NA,NA,NA,sdf,NA,2,NA,NA,NA,NA,NA,NA,NA,NA,NA,NA,NA,NA,NA,NA,NA,NA,NA,NA,NA
ec291,weiter,canvas.Screen,3_0_2_1,sdf,keypress(Space),response,1030.0000000002,252695.5,252694,252710.7,253740.7,253745.7,2025-01-15T16:17:59Z,253794,NULL,NA,NA,NA,NA,NA,NA,NA,sdf,NA,2,NA,NA,NA,NA,NA,NA,NA,NA,NA,NA,NA,NA,NA,NA,NA,NA,NA,NA,NA
ec291,check continue,flow.Sequence,3_0_2,NA,NA,completion,69396.2,184332.8,184327.81,184344.5,253740.7,253746,2025-01-15T16:17:59Z,253794,NULL,NA,NA,NA,NA,NA,NA,NA,sdf,NA,2,NA,NA,NA,NA,NA,NA,NA,NA,NA,NA,NA,NA,NA,NA,NA,NA,NA,NA,NA
ec291,Deep Question,html.Page,3_0_3_0_0_0_0,NA,NA,form submission,4086.1000000006,253770.5,253760.658,253794,257880.1,257880.5,2025-01-15T16:18:04Z,257893.9,NULL,Aufstand,ugomaji,d,NA,NA,NA,ugomaji,NA,NA,3,NA,NA,NA,NA,NA,NA,NA,NA,NA,NA,NA,NA,NA,NA,NA,NA,NA,NA,NA
ec291,"""Richtig""-Screen",canvas.Screen,3_0_3_0_0_0_1,NA,NA,timeout,5000,257881.4,257877.338,257893.9,262877.3,262878.1,2025-01-15T16:18:09Z,262893.9,NULL,Aufstand,ugomaji,d,NA,NA,NA,NA,qt,1,3,NA,NA,NA,NA,NA,NA,NA,NA,NA,NA,NA,NA,NA,NA,NA,NA,NA,NA,NA
ec291,"""Falsch""-Screen",canvas.Screen,3_0_3_0_0_0_2,NA,NA,skipped,NA,262880.2,NA,NA,262877.3,262880.4,2025-01-15T16:18:09Z,262893.9,NULL,Aufstand,ugomaji,d,NA,NA,NA,NA,qt,NA,3,NA,NA,NA,NA,NA,NA,NA,NA,NA,NA,NA,NA,NA,NA,NA,NA,NA,NA,NA
ec291,deep,flow.Sequence,3_0_3_0_0_0,NA,NA,completion,9083.3,253770.5,253760.658,253794,262877.3,262880.6,2025-01-15T16:18:09Z,262893.9,NULL,Aufstand,ugomaji,d,NA,NA,NA,NA,qt,NA,3,NA,NA,NA,NA,NA,NA,NA,NA,NA,NA,NA,NA,NA,NA,NA,NA,NA,NA,NA
ec291,shallow,flow.Sequence,3_0_3_0_0_1,NA,NA,skipped,NA,262880.7,NA,NA,262877.3,262880.8,2025-01-15T16:18:09Z,262893.9,NULL,Aufstand,ugomaji,d,NA,NA,NA,NA,qt,NA,3,NA,NA,NA,NA,NA,NA,NA,NA,NA,NA,NA,NA,NA,NA,NA,NA,NA,NA,NA
ec291,task,flow.Sequence,3_0_3_0_0,NA,NA,completion,9083.3,253770.5,253760.658,253794,262877.3,262880.9,2025-01-15T16:18:09Z,262893.9,NULL,Aufstand,ugomaji,d,NA,NA,NA,NA,qt,NA,3,NA,NA,NA,NA,NA,NA,NA,NA,NA,NA,NA,NA,NA,NA,NA,NA,NA,NA,NA
ec291,Deep Question,html.Page,3_0_3_0_1_0_0,NA,NA,form submission,2709.4000000007,262881.2,262877.3,262893.9,265603.3,265603.8,2025-01-15T16:18:11Z,265610.6,NULL,Fleisch,mshakiki,d,NA,NA,NA,mshakiki,NA,NA,3,NA,NA,NA,NA,NA,NA,NA,NA,NA,NA,NA,NA,NA,NA,NA,NA,NA,NA,NA
ec291,"""Richtig""-Screen",canvas.Screen,3_0_3_0_1_0_1,NA,NA,timeout,5000,265604.7,265593.972,265610.6,270593.9,270594.7,2025-01-15T16:18:16Z,270610.6,NULL,Fleisch,mshakiki,d,NA,NA,NA,NA,qt,1,3,NA,NA,NA,NA,NA,NA,NA,NA,NA,NA,NA,NA,NA,NA,NA,NA,NA,NA,NA
ec291,"""Falsch""-Screen",canvas.Screen,3_0_3_0_1_0_2,NA,NA,skipped,NA,270596.7,NA,NA,270593.9,270596.8,2025-01-15T16:18:16Z,270610.6,NULL,Fleisch,mshakiki,d,NA,NA,NA,NA,qt,NA,3,NA,NA,NA,NA,NA,NA,NA,NA,NA,NA,NA,NA,NA,NA,NA,NA,NA,NA,NA
ec291,deep,flow.Sequence,3_0_3_0_1_0,NA,NA,completion,7700,262881.1,262877.3,262893.9,270593.9,270597,2025-01-15T16:18:16Z,270610.6,NULL,Fleisch,mshakiki,d,NA,NA,NA,NA,qt,NA,3,NA,NA,NA,NA,NA,NA,NA,NA,NA,NA,NA,NA,NA,NA,NA,NA,NA,NA,NA
ec291,shallow,flow.Sequence,3_0_3_0_1_1,NA,NA,skipped,NA,270597.1,NA,NA,270593.9,270597.2,2025-01-15T16:18:16Z,270610.6,NULL,Fleisch,mshakiki,d,NA,NA,NA,NA,qt,NA,3,NA,NA,NA,NA,NA,NA,NA,NA,NA,NA,NA,NA,NA,NA,NA,NA,NA,NA,NA
ec291,task,flow.Sequence,3_0_3_0_1,NA,NA,completion,7700,262881,262877.3,262893.9,270593.9,270597.3,2025-01-15T16:18:16Z,270610.6,NULL,Fleisch,mshakiki,d,NA,NA,NA,NA,qt,NA,3,NA,NA,NA,NA,NA,NA,NA,NA,NA,NA,NA,NA,NA,NA,NA,NA,NA,NA,NA
ec291,deep,flow.Sequence,3_0_3_0_2_0,NA,NA,skipped,NA,270597.5,NA,NA,270593.9,270597.6,2025-01-15T16:18:16Z,270610.6,NULL,Begegnung,kukutana,s,mmasihiya,mpiganaji,husiano,NA,qt,NA,3,NA,NA,NA,NA,NA,NA,NA,NA,NA,NA,NA,NA,NA,NA,NA,NA,NA,NA,NA
ec291,Shallow Question,html.Page,3_0_3_0_2_1_0,NA,NA,form submission,3309.6000000002,270597.7,270593.9,270610.6,273920.2,273920.4,2025-01-15T16:18:20Z,273927.2,NULL,Begegnung,kukutana,s,mmasihiya,mpiganaji,husiano,kukutana,NA,NA,3,NA,NA,NA,NA,NA,NA,NA,NA,NA,NA,NA,NA,NA,NA,NA,NA,NA,NA,NA
ec291,"""Richtig""-Screen",canvas.Screen,3_0_3_0_2_1_1,NA,NA,timeout,5000,273921.2,273910.626,273927.2,278910.6,278911.3,2025-01-15T16:18:25Z,278927.2,NULL,Begegnung,kukutana,s,mmasihiya,mpiganaji,husiano,NA,qt,1,3,NA,NA,NA,NA,NA,NA,NA,NA,NA,NA,NA,NA,NA,NA,NA,NA,NA,NA,NA
ec291,"""Falsch""-Screen",canvas.Screen,3_0_3_0_2_1_2,NA,NA,skipped,NA,278913,NA,NA,278910.6,278913.2,2025-01-15T16:18:25Z,278927.2,NULL,Begegnung,kukutana,s,mmasihiya,mpiganaji,husiano,NA,qt,NA,3,NA,NA,NA,NA,NA,NA,NA,NA,NA,NA,NA,NA,NA,NA,NA,NA,NA,NA,NA
ec291,shallow,flow.Sequence,3_0_3_0_2_1,NA,NA,completion,8300,270597.7,270593.9,270610.6,278910.6,278913.3,2025-01-15T16:18:25Z,278927.2,NULL,Begegnung,kukutana,s,mmasihiya,mpiganaji,husiano,NA,qt,NA,3,NA,NA,NA,NA,NA,NA,NA,NA,NA,NA,NA,NA,NA,NA,NA,NA,NA,NA,NA
ec291,task,flow.Sequence,3_0_3_0_2,NA,NA,completion,8300,270597.4,270593.9,270610.6,278910.6,278913.4,2025-01-15T16:18:25Z,278927.2,NULL,Begegnung,kukutana,s,mmasihiya,mpiganaji,husiano,NA,qt,NA,3,NA,NA,NA,NA,NA,NA,NA,NA,NA,NA,NA,NA,NA,NA,NA,NA,NA,NA,NA
ec291,deep,flow.Sequence,3_0_3_0_3_0,NA,NA,skipped,NA,278913.5,NA,NA,278910.6,278913.7,2025-01-15T16:18:25Z,278927.2,NULL,Verzögerung,kuchelewa,s,mwakilishi,mwanauchumi,jaribio,NA,qt,NA,3,NA,NA,NA,NA,NA,NA,NA,NA,NA,NA,NA,NA,NA,NA,NA,NA,NA,NA,NA
ec291,Shallow Question,html.Page,3_0_3_0_3_1_0,NA,NA,form submission,2013.0000000002,278913.8,278910.6,278927.2,280940.2,280940.6,2025-01-15T16:18:27Z,280960.6,NULL,Verzögerung,kuchelewa,s,mwakilishi,mwanauchumi,jaribio,kuchelewa,NA,NA,3,NA,NA,NA,NA,NA,NA,NA,NA,NA,NA,NA,NA,NA,NA,NA,NA,NA,NA,NA
ec291,"""Richtig""-Screen",canvas.Screen,3_0_3_0_3_1_1,NA,NA,timeout,5000,280942,280927.252,280960.6,285943.9,285944.4,2025-01-15T16:18:32Z,285960.6,NULL,Verzögerung,kuchelewa,s,mwakilishi,mwanauchumi,jaribio,NA,qt,1,3,NA,NA,NA,NA,NA,NA,NA,NA,NA,NA,NA,NA,NA,NA,NA,NA,NA,NA,NA
ec291,"""Falsch""-Screen",canvas.Screen,3_0_3_0_3_1_2,NA,NA,skipped,NA,285945.5,NA,NA,285943.9,285945.7,2025-01-15T16:18:32Z,285960.6,NULL,Verzögerung,kuchelewa,s,mwakilishi,mwanauchumi,jaribio,NA,qt,NA,3,NA,NA,NA,NA,NA,NA,NA,NA,NA,NA,NA,NA,NA,NA,NA,NA,NA,NA,NA
ec291,shallow,flow.Sequence,3_0_3_0_3_1,NA,NA,completion,7016.7,278913.7,278910.6,278927.2,285943.9,285946,2025-01-15T16:18:32Z,285960.6,NULL,Verzögerung,kuchelewa,s,mwakilishi,mwanauchumi,jaribio,NA,qt,NA,3,NA,NA,NA,NA,NA,NA,NA,NA,NA,NA,NA,NA,NA,NA,NA,NA,NA,NA,NA
ec291,task,flow.Sequence,3_0_3_0_3,NA,NA,completion,7016.7,278913.5,278910.6,278927.2,285943.9,285946.1,2025-01-15T16:18:32Z,285960.6,NULL,Verzögerung,kuchelewa,s,mwakilishi,mwanauchumi,jaribio,NA,qt,NA,3,NA,NA,NA,NA,NA,NA,NA,NA,NA,NA,NA,NA,NA,NA,NA,NA,NA,NA,NA
ec291,deep,flow.Sequence,3_0_3_0_4_0,NA,NA,skipped,NA,285946.2,NA,NA,285943.9,285946.3,2025-01-15T16:18:32Z,285960.6,NULL,Kultur,utamaduni,s,shetani,gerezani,mazingira,NA,qt,NA,3,NA,NA,NA,NA,NA,NA,NA,NA,NA,NA,NA,NA,NA,NA,NA,NA,NA,NA,NA
ec291,Shallow Question,html.Page,3_0_3_0_4_1_0,NA,NA,form submission,2693.1000000002,285946.4,285943.9,285960.6,288653.7,288654.1,2025-01-15T16:18:34Z,288677.2,NULL,Kultur,utamaduni,s,shetani,gerezani,mazingira,utamaduni,NA,NA,3,NA,NA,NA,NA,NA,NA,NA,NA,NA,NA,NA,NA,NA,NA,NA,NA,NA,NA,NA
ec291,"""Richtig""-Screen",canvas.Screen,3_0_3_0_4_1_1,NA,NA,timeout,5000,288655.5,288660.632,288677.2,293660.5,293661.3,2025-01-15T16:18:39Z,293677.2,NULL,Kultur,utamaduni,s,shetani,gerezani,mazingira,NA,qt,1,3,NA,NA,NA,NA,NA,NA,NA,NA,NA,NA,NA,NA,NA,NA,NA,NA,NA,NA,NA
ec291,"""Falsch""-Screen",canvas.Screen,3_0_3_0_4_1_2,NA,NA,skipped,NA,293662.6,NA,NA,293660.5,293662.8,2025-01-15T16:18:39Z,293677.2,NULL,Kultur,utamaduni,s,shetani,gerezani,mazingira,NA,qt,NA,3,NA,NA,NA,NA,NA,NA,NA,NA,NA,NA,NA,NA,NA,NA,NA,NA,NA,NA,NA
ec291,shallow,flow.Sequence,3_0_3_0_4_1,NA,NA,completion,7699.9,285946.4,285943.9,285960.6,293660.5,293662.9,2025-01-15T16:18:39Z,293677.2,NULL,Kultur,utamaduni,s,shetani,gerezani,mazingira,NA,qt,NA,3,NA,NA,NA,NA,NA,NA,NA,NA,NA,NA,NA,NA,NA,NA,NA,NA,NA,NA,NA
ec291,task,flow.Sequence,3_0_3_0_4,NA,NA,completion,7699.9,285946.2,285943.9,285960.6,293660.5,293663,2025-01-15T16:18:39Z,293677.2,NULL,Kultur,utamaduni,s,shetani,gerezani,mazingira,NA,qt,NA,3,NA,NA,NA,NA,NA,NA,NA,NA,NA,NA,NA,NA,NA,NA,NA,NA,NA,NA,NA
ec291,Deep Question,html.Page,3_0_3_0_5_0_0,NA,NA,form submission,5953.1000000007,293663.1,293660.5,293677.2,299630.3,299630.7,2025-01-15T16:18:45Z,299643.928,NULL,Integrität,uadilifu,d,NA,NA,NA,uadilifu,NA,NA,3,NA,NA,NA,NA,NA,NA,NA,NA,NA,NA,NA,NA,NA,NA,NA,NA,NA,NA,NA
ec291,"""Richtig""-Screen",canvas.Screen,3_0_3_0_5_0_1,NA,NA,timeout,4999.972,299631.8,299643.928,299643.928,304627.3,304628.4,2025-01-15T16:18:50Z,304643.9,NULL,Integrität,uadilifu,d,NA,NA,NA,NA,qt,1,3,NA,NA,NA,NA,NA,NA,NA,NA,NA,NA,NA,NA,NA,NA,NA,NA,NA,NA,NA
ec291,"""Falsch""-Screen",canvas.Screen,3_0_3_0_5_0_2,NA,NA,skipped,NA,304630.8,NA,NA,304627.3,304630.9,2025-01-15T16:18:50Z,304643.9,NULL,Integrität,uadilifu,d,NA,NA,NA,NA,qt,NA,3,NA,NA,NA,NA,NA,NA,NA,NA,NA,NA,NA,NA,NA,NA,NA,NA,NA,NA,NA
ec291,deep,flow.Sequence,3_0_3_0_5_0,NA,NA,completion,10950.1,293663.1,293660.5,293677.2,304627.3,304631,2025-01-15T16:18:50Z,304643.9,NULL,Integrität,uadilifu,d,NA,NA,NA,NA,qt,NA,3,NA,NA,NA,NA,NA,NA,NA,NA,NA,NA,NA,NA,NA,NA,NA,NA,NA,NA,NA
ec291,shallow,flow.Sequence,3_0_3_0_5_1,NA,NA,skipped,NA,304631.1,NA,NA,304627.3,304631.1,2025-01-15T16:18:50Z,304643.9,NULL,Integrität,uadilifu,d,NA,NA,NA,NA,qt,NA,3,NA,NA,NA,NA,NA,NA,NA,NA,NA,NA,NA,NA,NA,NA,NA,NA,NA,NA,NA
ec291,task,flow.Sequence,3_0_3_0_5,NA,NA,completion,10950.1,293663.1,293660.5,293677.2,304627.3,304631.2,2025-01-15T16:18:50Z,304643.9,NULL,Integrität,uadilifu,d,NA,NA,NA,NA,qt,NA,3,NA,NA,NA,NA,NA,NA,NA,NA,NA,NA,NA,NA,NA,NA,NA,NA,NA,NA,NA
ec291,deep,flow.Sequence,3_0_3_0_6_0,NA,NA,skipped,NA,304631.2,NA,NA,304627.3,304631.3,2025-01-15T16:18:50Z,304643.9,NULL,Genehmigung,idhini,s,mwanamke,itikadi,fedheha,NA,qt,NA,3,NA,NA,NA,NA,NA,NA,NA,NA,NA,NA,NA,NA,NA,NA,NA,NA,NA,NA,NA
ec291,Shallow Question,html.Page,3_0_3_0_6_1_0,NA,NA,form submission,2088.7000000005,304631.4,304627.3,304643.9,306732.6,306733,2025-01-15T16:18:52Z,306743.9,NULL,Genehmigung,idhini,s,mwanamke,itikadi,fedheha,idhini,NA,NA,3,NA,NA,NA,NA,NA,NA,NA,NA,NA,NA,NA,NA,NA,NA,NA,NA,NA,NA,NA
ec291,"""Richtig""-Screen",canvas.Screen,3_0_3_0_6_1_1,NA,NA,timeout,5000,306734.1,306727.252,306743.9,311727.2,311728.1,2025-01-15T16:18:57Z,311743.9,NULL,Genehmigung,idhini,s,mwanamke,itikadi,fedheha,NA,qt,1,3,NA,NA,NA,NA,NA,NA,NA,NA,NA,NA,NA,NA,NA,NA,NA,NA,NA,NA,NA
ec291,"""Falsch""-Screen",canvas.Screen,3_0_3_0_6_1_2,NA,NA,skipped,NA,311730.4,NA,NA,311727.2,311730.6,2025-01-15T16:18:57Z,311743.9,NULL,Genehmigung,idhini,s,mwanamke,itikadi,fedheha,NA,qt,NA,3,NA,NA,NA,NA,NA,NA,NA,NA,NA,NA,NA,NA,NA,NA,NA,NA,NA,NA,NA
ec291,shallow,flow.Sequence,3_0_3_0_6_1,NA,NA,completion,7083.3,304631.3,304627.3,304643.9,311727.2,311730.6,2025-01-15T16:18:57Z,311743.9,NULL,Genehmigung,idhini,s,mwanamke,itikadi,fedheha,NA,qt,NA,3,NA,NA,NA,NA,NA,NA,NA,NA,NA,NA,NA,NA,NA,NA,NA,NA,NA,NA,NA
ec291,task,flow.Sequence,3_0_3_0_6,NA,NA,completion,7083.3,304631.2,304627.3,304643.9,311727.2,311730.7,2025-01-15T16:18:57Z,311743.9,NULL,Genehmigung,idhini,s,mwanamke,itikadi,fedheha,NA,qt,NA,3,NA,NA,NA,NA,NA,NA,NA,NA,NA,NA,NA,NA,NA,NA,NA,NA,NA,NA,NA
ec291,Deep Question,html.Page,3_0_3_0_7_0_0,NA,NA,form submission,4361.4000000007,311730.9,311727.2,311743.9,316105.3,316105.7,2025-01-15T16:19:02Z,316110.6,NULL,Prüfung,mtihani,d,NA,NA,NA,mtihani,NA,NA,3,NA,NA,NA,NA,NA,NA,NA,NA,NA,NA,NA,NA,NA,NA,NA,NA,NA,NA,NA
ec291,"""Richtig""-Screen",canvas.Screen,3_0_3_0_7_0_1,NA,NA,timeout,4999.7,316106.5,316093.946,316110.6,321093.9,321094.6,2025-01-15T16:19:07Z,321110.3,NULL,Prüfung,mtihani,d,NA,NA,NA,NA,qt,1,3,NA,NA,NA,NA,NA,NA,NA,NA,NA,NA,NA,NA,NA,NA,NA,NA,NA,NA,NA
ec291,"""Falsch""-Screen",canvas.Screen,3_0_3_0_7_0_2,NA,NA,skipped,NA,321096.5,NA,NA,321093.9,321096.6,2025-01-15T16:19:07Z,321110.3,NULL,Prüfung,mtihani,d,NA,NA,NA,NA,qt,NA,3,NA,NA,NA,NA,NA,NA,NA,NA,NA,NA,NA,NA,NA,NA,NA,NA,NA,NA,NA
ec291,deep,flow.Sequence,3_0_3_0_7_0,NA,NA,completion,9350,311730.9,311727.2,311743.9,321093.9,321096.8,2025-01-15T16:19:07Z,321110.3,NULL,Prüfung,mtihani,d,NA,NA,NA,NA,qt,NA,3,NA,NA,NA,NA,NA,NA,NA,NA,NA,NA,NA,NA,NA,NA,NA,NA,NA,NA,NA
ec291,shallow,flow.Sequence,3_0_3_0_7_1,NA,NA,skipped,NA,321096.9,NA,NA,321093.9,321097,2025-01-15T16:19:07Z,321110.3,NULL,Prüfung,mtihani,d,NA,NA,NA,NA,qt,NA,3,NA,NA,NA,NA,NA,NA,NA,NA,NA,NA,NA,NA,NA,NA,NA,NA,NA,NA,NA
ec291,task,flow.Sequence,3_0_3_0_7,NA,NA,completion,9350,311730.9,311727.2,311743.9,321093.9,321097.1,2025-01-15T16:19:07Z,321110.3,NULL,Prüfung,mtihani,d,NA,NA,NA,NA,qt,NA,3,NA,NA,NA,NA,NA,NA,NA,NA,NA,NA,NA,NA,NA,NA,NA,NA,NA,NA,NA
ec291,block,flow.Loop,3_0_3_0,NA,NA,completion,67299.9,253770.4,253760.658,253794,321093.9,321097.2,2025-01-15T16:19:07Z,321110.3,NULL,NA,NA,NA,NA,NA,NA,NA,qt,NA,3,NA,NA,NA,NA,NA,NA,NA,NA,NA,NA,NA,NA,NA,NA,NA,NA,NA,NA,NA
ec291,weiter,canvas.Screen,3_0_3_1,sdf,keypress(Space),response,788.20000000001,321097.3,321093.9,321110.3,321898.5,321901.9,2025-01-15T16:19:08Z,322127.2,NULL,NA,NA,NA,NA,NA,NA,NA,qt,NA,3,NA,NA,NA,NA,NA,NA,NA,NA,NA,NA,NA,NA,NA,NA,NA,NA,NA,NA,NA
ec291,check continue,flow.Sequence,3_0_3,NA,NA,completion,68104.5,253770.4,253760.658,253794,321898.5,321902.1,2025-01-15T16:19:08Z,322127.2,NULL,NA,NA,NA,NA,NA,NA,NA,qt,NA,3,NA,NA,NA,NA,NA,NA,NA,NA,NA,NA,NA,NA,NA,NA,NA,NA,NA,NA,NA
ec291,check continue,flow.Sequence,3_0_4,NA,NA,skipped,NA,321930.8,NA,NA,321898.5,321933.3,2025-01-15T16:19:08Z,322127.2,NULL,NA,NA,NA,NA,NA,NA,NA,sd,NA,4,NA,NA,NA,NA,NA,NA,NA,NA,NA,NA,NA,NA,NA,NA,NA,NA,NA,NA,NA
ec291,check continue,flow.Sequence,3_0_5,NA,NA,skipped,NA,321947.5,NA,NA,321898.5,321947.6,2025-01-15T16:19:08Z,322127.2,NULL,NA,NA,NA,NA,NA,NA,NA,sdf,NA,5,NA,NA,NA,NA,NA,NA,NA,NA,NA,NA,NA,NA,NA,NA,NA,NA,NA,NA,NA
ec291,check continue,flow.Sequence,3_0_6,NA,NA,skipped,NA,321958.2,NA,NA,321898.5,321958.3,2025-01-15T16:19:08Z,322127.2,NULL,NA,NA,NA,NA,NA,NA,NA,dfs,NA,6,NA,NA,NA,NA,NA,NA,NA,NA,NA,NA,NA,NA,NA,NA,NA,NA,NA,NA,NA
ec291,check continue,flow.Sequence,3_0_7,NA,NA,skipped,NA,321967.6,NA,NA,321898.5,321967.7,2025-01-15T16:19:08Z,322127.2,NULL,NA,NA,NA,NA,NA,NA,NA,df,NA,7,NA,NA,NA,NA,NA,NA,NA,NA,NA,NA,NA,NA,NA,NA,NA,NA,NA,NA,NA
ec291,check continue,flow.Sequence,3_0_8,NA,NA,skipped,NA,321975.7,NA,NA,321898.5,321975.7,2025-01-15T16:19:08Z,322127.2,NULL,NA,NA,NA,NA,NA,NA,NA,dfs,NA,8,NA,NA,NA,NA,NA,NA,NA,NA,NA,NA,NA,NA,NA,NA,NA,NA,NA,NA,NA
ec291,check continue,flow.Sequence,3_0_9,NA,NA,skipped,NA,321982.9,NA,NA,321898.5,321982.9,2025-01-15T16:19:08Z,322127.2,NULL,NA,NA,NA,NA,NA,NA,NA,dsf,NA,9,NA,NA,NA,NA,NA,NA,NA,NA,NA,NA,NA,NA,NA,NA,NA,NA,NA,NA,NA
ec291,check continue,flow.Sequence,3_0_10,NA,NA,skipped,NA,321989.9,NA,NA,321898.5,321990,2025-01-15T16:19:08Z,322127.2,NULL,NA,NA,NA,NA,NA,NA,NA,df,NA,10,NA,NA,NA,NA,NA,NA,NA,NA,NA,NA,NA,NA,NA,NA,NA,NA,NA,NA,NA
ec291,check continue,flow.Sequence,3_0_11,NA,NA,skipped,NA,321996.8,NA,NA,321898.5,321996.8,2025-01-15T16:19:08Z,322127.2,NULL,NA,NA,NA,NA,NA,NA,NA,dfs,NA,11,NA,NA,NA,NA,NA,NA,NA,NA,NA,NA,NA,NA,NA,NA,NA,NA,NA,NA,NA
ec291,check continue,flow.Sequence,3_0_12,NA,NA,skipped,NA,322003,NA,NA,321898.5,322003,2025-01-15T16:19:08Z,322127.2,NULL,NA,NA,NA,NA,NA,NA,NA,dsf,NA,12,NA,NA,NA,NA,NA,NA,NA,NA,NA,NA,NA,NA,NA,NA,NA,NA,NA,NA,NA
ec291,check continue,flow.Sequence,3_0_13,NA,NA,skipped,NA,322009.1,NA,NA,321898.5,322009.1,2025-01-15T16:19:08Z,322127.2,NULL,NA,NA,NA,NA,NA,NA,NA,dsf,NA,13,NA,NA,NA,NA,NA,NA,NA,NA,NA,NA,NA,NA,NA,NA,NA,NA,NA,NA,NA
ec291,check continue,flow.Sequence,3_0_14,NA,NA,skipped,NA,322014.9,NA,NA,321898.5,322014.9,2025-01-15T16:19:08Z,322127.2,NULL,NA,NA,NA,NA,NA,NA,NA,NA,NA,14,NA,NA,NA,NA,NA,NA,NA,NA,NA,NA,NA,NA,NA,NA,NA,NA,NA,NA,NA
ec291,check continue,flow.Sequence,3_0_15,NA,NA,skipped,NA,322020.6,NA,NA,321898.5,322020.6,2025-01-15T16:19:08Z,322127.2,NULL,NA,NA,NA,NA,NA,NA,NA,NA,NA,15,NA,NA,NA,NA,NA,NA,NA,NA,NA,NA,NA,NA,NA,NA,NA,NA,NA,NA,NA
ec291,check continue,flow.Sequence,3_0_16,NA,NA,skipped,NA,322026.4,NA,NA,321898.5,322026.5,2025-01-15T16:19:08Z,322127.2,NULL,NA,NA,NA,NA,NA,NA,NA,NA,NA,16,NA,NA,NA,NA,NA,NA,NA,NA,NA,NA,NA,NA,NA,NA,NA,NA,NA,NA,NA
ec291,check continue,flow.Sequence,3_0_17,NA,NA,skipped,NA,322031.8,NA,NA,321898.5,322031.9,2025-01-15T16:19:08Z,322127.2,NULL,NA,NA,NA,NA,NA,NA,NA,NA,NA,17,NA,NA,NA,NA,NA,NA,NA,NA,NA,NA,NA,NA,NA,NA,NA,NA,NA,NA,NA
ec291,check continue,flow.Sequence,3_0_18,NA,NA,skipped,NA,322037.9,NA,NA,321898.5,322037.9,2025-01-15T16:19:08Z,322127.2,NULL,NA,NA,NA,NA,NA,NA,NA,NA,NA,18,NA,NA,NA,NA,NA,NA,NA,NA,NA,NA,NA,NA,NA,NA,NA,NA,NA,NA,NA
ec291,check continue,flow.Sequence,3_0_19,NA,NA,skipped,NA,322043.1,NA,NA,321898.5,322043.2,2025-01-15T16:19:08Z,322127.2,NULL,NA,NA,NA,NA,NA,NA,NA,NA,NA,19,NA,NA,NA,NA,NA,NA,NA,NA,NA,NA,NA,NA,NA,NA,NA,NA,NA,NA,NA
ec291,check continue,flow.Sequence,3_0_20,NA,NA,skipped,NA,322049.2,NA,NA,321898.5,322049.3,2025-01-15T16:19:08Z,322127.2,NULL,NA,NA,NA,NA,NA,NA,NA,NA,NA,20,NA,NA,NA,NA,NA,NA,NA,NA,NA,NA,NA,NA,NA,NA,NA,NA,NA,NA,NA
ec291,check continue,flow.Sequence,3_0_21,NA,NA,skipped,NA,322054.7,NA,NA,321898.5,322054.8,2025-01-15T16:19:08Z,322127.2,NULL,NA,NA,NA,NA,NA,NA,NA,NA,NA,21,NA,NA,NA,NA,NA,NA,NA,NA,NA,NA,NA,NA,NA,NA,NA,NA,NA,NA,NA
ec291,check continue,flow.Sequence,3_0_22,NA,NA,skipped,NA,322060.6,NA,NA,321898.5,322060.7,2025-01-15T16:19:08Z,322127.2,NULL,NA,NA,NA,NA,NA,NA,NA,NA,NA,22,NA,NA,NA,NA,NA,NA,NA,NA,NA,NA,NA,NA,NA,NA,NA,NA,NA,NA,NA
ec291,check continue,flow.Sequence,3_0_23,NA,NA,skipped,NA,322065.9,NA,NA,321898.5,322066,2025-01-15T16:19:08Z,322127.2,NULL,NA,NA,NA,NA,NA,NA,NA,NA,NA,23,NA,NA,NA,NA,NA,NA,NA,NA,NA,NA,NA,NA,NA,NA,NA,NA,NA,NA,NA
ec291,check continue,flow.Sequence,3_0_24,NA,NA,skipped,NA,322071.8,NA,NA,321898.5,322071.8,2025-01-15T16:19:08Z,322127.2,NULL,NA,NA,NA,NA,NA,NA,NA,NA,NA,24,NA,NA,NA,NA,NA,NA,NA,NA,NA,NA,NA,NA,NA,NA,NA,NA,NA,NA,NA
ec291,check continue,flow.Sequence,3_0_25,NA,NA,skipped,NA,322077.1,NA,NA,321898.5,322077.1,2025-01-15T16:19:08Z,322127.2,NULL,NA,NA,NA,NA,NA,NA,NA,NA,NA,25,NA,NA,NA,NA,NA,NA,NA,NA,NA,NA,NA,NA,NA,NA,NA,NA,NA,NA,NA
ec291,check continue,flow.Sequence,3_0_26,NA,NA,skipped,NA,322082.8,NA,NA,321898.5,322082.8,2025-01-15T16:19:08Z,322127.2,NULL,NA,NA,NA,NA,NA,NA,NA,NA,NA,26,NA,NA,NA,NA,NA,NA,NA,NA,NA,NA,NA,NA,NA,NA,NA,NA,NA,NA,NA
ec291,check continue,flow.Sequence,3_0_27,NA,NA,skipped,NA,322088.3,NA,NA,321898.5,322088.3,2025-01-15T16:19:08Z,322127.2,NULL,NA,NA,NA,NA,NA,NA,NA,NA,NA,27,NA,NA,NA,NA,NA,NA,NA,NA,NA,NA,NA,NA,NA,NA,NA,NA,NA,NA,NA
ec291,check continue,flow.Sequence,3_0_28,NA,NA,skipped,NA,322094.8,NA,NA,321898.5,322094.9,2025-01-15T16:19:08Z,322127.2,NULL,NA,NA,NA,NA,NA,NA,NA,NA,NA,28,NA,NA,NA,NA,NA,NA,NA,NA,NA,NA,NA,NA,NA,NA,NA,NA,NA,NA,NA
ec291,check continue,flow.Sequence,3_0_29,NA,NA,skipped,NA,322101.8,NA,NA,321898.5,322101.9,2025-01-15T16:19:08Z,322127.2,NULL,NA,NA,NA,NA,NA,NA,NA,NA,NA,29,NA,NA,NA,NA,NA,NA,NA,NA,NA,NA,NA,NA,NA,NA,NA,NA,NA,NA,NA
ec291,until continue,flow.Loop,3_0,NA,NA,completion,272200.6,49668.7,49664.512,49697.9,321898.5,322101.9,2025-01-15T16:19:08Z,322127.2,NULL,NA,NA,NA,NA,NA,NA,NA,NA,NA,NA,NA,NA,NA,NA,NA,NA,NA,NA,NA,NA,NA,NA,NA,NA,NA,NA,NA,NA,NA
ec291,block 1,flow.Sequence,3,NA,NA,completion,272200.6,49668.7,49664.512,49697.9,321898.5,322101.9,2025-01-15T16:19:08Z,322127.2,NULL,NA,NA,NA,NA,NA,NA,NA,NA,NA,NA,NA,NA,NA,NA,NA,NA,NA,NA,NA,NA,NA,NA,NA,NA,NA,NA,NA,NA,NA
ec291,1.Part Over,canvas.Screen,4,NA,keypress(Space),response,2190.6000000007,322102,322093.866,322127.2,324317.8,324321.5,2025-01-15T16:19:10Z,324377.2,NULL,NA,NA,NA,NA,NA,NA,NA,NA,NA,NA,NA,NA,NA,NA,NA,NA,NA,NA,NA,NA,NA,NA,NA,NA,NA,NA,NA,NA,NA
ec291,Deep Question,html.Page,5_0_0_0_0_0_0,NA,NA,form submission,1913.7000000004,324364.5,324360.444,324377.2,326290.9,326291.3,2025-01-15T16:19:12Z,326293.958,NULL,Wechsel,ugeuzaji,d,NA,NA,NA,sdf,NA,NA,0,NA,NA,NA,NA,NA,NA,NA,NA,NA,NA,NA,NA,NA,NA,NA,NA,NA,NA,NA
ec291,"""Richtig""-Screen",canvas.Screen,5_0_0_0_0_0_1,NA,NA,skipped,NA,326292.5,NA,NA,326290.9,326292.6,2025-01-15T16:19:12Z,326293.958,NULL,Wechsel,ugeuzaji,d,NA,NA,NA,NA,sdf,NA,0,NA,NA,NA,NA,NA,NA,NA,NA,NA,NA,NA,NA,NA,NA,NA,NA,NA,NA,NA
ec291,"""Falsch""-Screen",canvas.Screen,5_0_0_0_0_0_2,NA,NA,timeout,4999.942,326293.2,326293.958,326293.958,331277.2,331278.1,2025-01-15T16:19:17Z,331293.9,NULL,Wechsel,ugeuzaji,d,NA,NA,NA,NA,sdf,0,0,NA,NA,NA,NA,NA,NA,NA,NA,NA,NA,NA,NA,NA,NA,NA,NA,NA,NA,NA
ec291,deep,flow.Sequence,5_0_0_0_0_0,NA,NA,completion,6900,324364.5,324360.444,324377.2,331277.2,331278.6,2025-01-15T16:19:17Z,331293.9,NULL,Wechsel,ugeuzaji,d,NA,NA,NA,NA,sdf,NA,0,NA,NA,NA,NA,NA,NA,NA,NA,NA,NA,NA,NA,NA,NA,NA,NA,NA,NA,NA
ec291,shallow,flow.Sequence,5_0_0_0_0_1,NA,NA,skipped,NA,331278.8,NA,NA,331277.2,331278.9,2025-01-15T16:19:17Z,331293.9,NULL,Wechsel,ugeuzaji,d,NA,NA,NA,NA,sdf,NA,0,NA,NA,NA,NA,NA,NA,NA,NA,NA,NA,NA,NA,NA,NA,NA,NA,NA,NA,NA
ec291,task,flow.Sequence,5_0_0_0_0,NA,NA,completion,6900,324364.5,324360.444,324377.2,331277.2,331279.1,2025-01-15T16:19:17Z,331293.9,NULL,Wechsel,ugeuzaji,d,NA,NA,NA,NA,sdf,NA,0,NA,NA,NA,NA,NA,NA,NA,NA,NA,NA,NA,NA,NA,NA,NA,NA,NA,NA,NA
ec291,deep,flow.Sequence,5_0_0_0_1_0,NA,NA,skipped,NA,331279.2,NA,NA,331277.2,331279.3,2025-01-15T16:19:17Z,331293.9,NULL,Abrechnung,uhasibu,s,kusahihisha,mpambano,mashambulizi,NA,sdf,NA,0,NA,NA,NA,NA,NA,NA,NA,NA,NA,NA,NA,NA,NA,NA,NA,NA,NA,NA,NA
ec291,Shallow Question,html.Page,5_0_0_0_1_1_0,NA,NA,form submission,2697.7000000005,331279.5,331277.2,331293.9,333991.6,333991.9,2025-01-15T16:19:20Z,333993.894,NULL,Abrechnung,uhasibu,s,kusahihisha,mpambano,mashambulizi,mashambulizi,NA,NA,0,NA,NA,NA,NA,NA,NA,NA,NA,NA,NA,NA,NA,NA,NA,NA,NA,NA,NA,NA
ec291,"""Richtig""-Screen",canvas.Screen,5_0_0_0_1_1_1,NA,NA,skipped,NA,333993.4,NA,NA,333991.6,333993.5,2025-01-15T16:19:20Z,333993.894,NULL,Abrechnung,uhasibu,s,kusahihisha,mpambano,mashambulizi,NA,sdf,NA,0,NA,NA,NA,NA,NA,NA,NA,NA,NA,NA,NA,NA,NA,NA,NA,NA,NA,NA,NA
ec291,"""Falsch""-Screen",canvas.Screen,5_0_0_0_1_1_2,NA,NA,timeout,5000.0060000001,333994.2,333993.894,333993.894,338977.2,338978.1,2025-01-15T16:19:25Z,338993.9,NULL,Abrechnung,uhasibu,s,kusahihisha,mpambano,mashambulizi,NA,sdf,0,0,NA,NA,NA,NA,NA,NA,NA,NA,NA,NA,NA,NA,NA,NA,NA,NA,NA,NA,NA
ec291,shallow,flow.Sequence,5_0_0_0_1_1,NA,NA,completion,7683.3,331279.4,331277.2,331293.9,338977.2,338978.5,2025-01-15T16:19:25Z,338993.9,NULL,Abrechnung,uhasibu,s,kusahihisha,mpambano,mashambulizi,NA,sdf,NA,0,NA,NA,NA,NA,NA,NA,NA,NA,NA,NA,NA,NA,NA,NA,NA,NA,NA,NA,NA
ec291,task,flow.Sequence,5_0_0_0_1,NA,NA,completion,7683.3,331279.2,331277.2,331293.9,338977.2,338978.7,2025-01-15T16:19:25Z,338993.9,NULL,Abrechnung,uhasibu,s,kusahihisha,mpambano,mashambulizi,NA,sdf,NA,0,NA,NA,NA,NA,NA,NA,NA,NA,NA,NA,NA,NA,NA,NA,NA,NA,NA,NA,NA
ec291,Deep Question,html.Page,5_0_0_0_2_0_0,NA,NA,form submission,2250.6,338979,338977.2,338993.9,341244.5,341244.8,2025-01-15T16:19:27Z,341260.6,NULL,Angreifer,mshambulizi,d,NA,NA,NA,fssd,NA,NA,0,NA,NA,NA,NA,NA,NA,NA,NA,NA,NA,NA,NA,NA,NA,NA,NA,NA,NA,NA
ec291,"""Richtig""-Screen",canvas.Screen,5_0_0_0_2_0_1,NA,NA,skipped,NA,341245.5,NA,NA,341244.5,341245.6,2025-01-15T16:19:27Z,341260.6,NULL,Angreifer,mshambulizi,d,NA,NA,NA,NA,sdf,NA,0,NA,NA,NA,NA,NA,NA,NA,NA,NA,NA,NA,NA,NA,NA,NA,NA,NA,NA,NA
ec291,"""Falsch""-Screen",canvas.Screen,5_0_0_0_2_0_2,NA,NA,timeout,4999.5,341246.3,341243.92,341260.6,346243.9,346244.6,2025-01-15T16:19:32Z,346260.1,NULL,Angreifer,mshambulizi,d,NA,NA,NA,NA,sdf,0,0,NA,NA,NA,NA,NA,NA,NA,NA,NA,NA,NA,NA,NA,NA,NA,NA,NA,NA,NA
ec291,deep,flow.Sequence,5_0_0_0_2_0,NA,NA,completion,7250,338979,338977.2,338993.9,346243.9,346245,2025-01-15T16:19:32Z,346260.1,NULL,Angreifer,mshambulizi,d,NA,NA,NA,NA,sdf,NA,0,NA,NA,NA,NA,NA,NA,NA,NA,NA,NA,NA,NA,NA,NA,NA,NA,NA,NA,NA
ec291,shallow,flow.Sequence,5_0_0_0_2_1,NA,NA,skipped,NA,346245.1,NA,NA,346243.9,346245.3,2025-01-15T16:19:32Z,346260.1,NULL,Angreifer,mshambulizi,d,NA,NA,NA,NA,sdf,NA,0,NA,NA,NA,NA,NA,NA,NA,NA,NA,NA,NA,NA,NA,NA,NA,NA,NA,NA,NA
ec291,task,flow.Sequence,5_0_0_0_2,NA,NA,completion,7250,338978.9,338977.2,338993.9,346243.9,346245.4,2025-01-15T16:19:32Z,346260.1,NULL,Angreifer,mshambulizi,d,NA,NA,NA,NA,sdf,NA,0,NA,NA,NA,NA,NA,NA,NA,NA,NA,NA,NA,NA,NA,NA,NA,NA,NA,NA,NA
ec291,Deep Question,html.Page,5_0_0_0_3_0_0,NA,NA,form submission,2706.1000000002,346245.6,346243.9,346260.1,348966.2,348966.4,2025-01-15T16:19:35Z,348993.9,NULL,Sänger,mwimbaji,d,NA,NA,NA,sdf,NA,NA,0,NA,NA,NA,NA,NA,NA,NA,NA,NA,NA,NA,NA,NA,NA,NA,NA,NA,NA,NA
ec291,"""Richtig""-Screen",canvas.Screen,5_0_0_0_3_0_1,NA,NA,skipped,NA,348967.4,NA,NA,348966.2,348967.5,2025-01-15T16:19:35Z,348993.9,NULL,Sänger,mwimbaji,d,NA,NA,NA,NA,sdf,NA,0,NA,NA,NA,NA,NA,NA,NA,NA,NA,NA,NA,NA,NA,NA,NA,NA,NA,NA,NA
ec291,"""Falsch""-Screen",canvas.Screen,5_0_0_0_3_0_2,NA,NA,timeout,5000,348968.4,348977.278,348993.9,353977.2,353978.3,2025-01-15T16:19:40Z,353993.9,NULL,Sänger,mwimbaji,d,NA,NA,NA,NA,sdf,0,0,NA,NA,NA,NA,NA,NA,NA,NA,NA,NA,NA,NA,NA,NA,NA,NA,NA,NA,NA
ec291,deep,flow.Sequence,5_0_0_0_3_0,NA,NA,completion,7717.1,346245.6,346243.9,346260.1,353977.2,353978.7,2025-01-15T16:19:40Z,353993.9,NULL,Sänger,mwimbaji,d,NA,NA,NA,NA,sdf,NA,0,NA,NA,NA,NA,NA,NA,NA,NA,NA,NA,NA,NA,NA,NA,NA,NA,NA,NA,NA
ec291,shallow,flow.Sequence,5_0_0_0_3_1,NA,NA,skipped,NA,353978.9,NA,NA,353977.2,353979,2025-01-15T16:19:40Z,353993.9,NULL,Sänger,mwimbaji,d,NA,NA,NA,NA,sdf,NA,0,NA,NA,NA,NA,NA,NA,NA,NA,NA,NA,NA,NA,NA,NA,NA,NA,NA,NA,NA
ec291,task,flow.Sequence,5_0_0_0_3,NA,NA,completion,7717.1,346245.5,346243.9,346260.1,353977.2,353979.1,2025-01-15T16:19:40Z,353993.9,NULL,Sänger,mwimbaji,d,NA,NA,NA,NA,sdf,NA,0,NA,NA,NA,NA,NA,NA,NA,NA,NA,NA,NA,NA,NA,NA,NA,NA,NA,NA,NA
ec291,deep,flow.Sequence,5_0_0_0_4_0,NA,NA,skipped,NA,353979.2,NA,NA,353977.2,353979.4,2025-01-15T16:19:40Z,353993.9,NULL,Kanzler,diwani,s,rasilmali,mahitaji,maabudu,NA,sdf,NA,0,NA,NA,NA,NA,NA,NA,NA,NA,NA,NA,NA,NA,NA,NA,NA,NA,NA,NA,NA
ec291,Shallow Question,html.Page,5_0_0_0_4_1_0,NA,NA,form submission,4503.8000000002,353979.4,353977.2,353993.9,358497.7,358498.1,2025-01-15T16:19:44Z,358510.6,NULL,Kanzler,diwani,s,rasilmali,mahitaji,maabudu,diwani,NA,NA,0,NA,NA,NA,NA,NA,NA,NA,NA,NA,NA,NA,NA,NA,NA,NA,NA,NA,NA,NA
ec291,"""Richtig""-Screen",canvas.Screen,5_0_0_0_4_1_1,NA,NA,timeout,4999.3,358499.4,358493.958,358510.6,363493.9,363494.8,2025-01-15T16:19:49Z,363509.9,NULL,Kanzler,diwani,s,rasilmali,mahitaji,maabudu,NA,sdf,1,0,NA,NA,NA,NA,NA,NA,NA,NA,NA,NA,NA,NA,NA,NA,NA,NA,NA,NA,NA
ec291,"""Falsch""-Screen",canvas.Screen,5_0_0_0_4_1_2,NA,NA,skipped,NA,363496.8,NA,NA,363493.9,363496.8,2025-01-15T16:19:49Z,363509.9,NULL,Kanzler,diwani,s,rasilmali,mahitaji,maabudu,NA,sdf,NA,0,NA,NA,NA,NA,NA,NA,NA,NA,NA,NA,NA,NA,NA,NA,NA,NA,NA,NA,NA
ec291,shallow,flow.Sequence,5_0_0_0_4_1,NA,NA,completion,9500,353979.4,353977.2,353993.9,363493.9,363497.1,2025-01-15T16:19:49Z,363509.9,NULL,Kanzler,diwani,s,rasilmali,mahitaji,maabudu,NA,sdf,NA,0,NA,NA,NA,NA,NA,NA,NA,NA,NA,NA,NA,NA,NA,NA,NA,NA,NA,NA,NA
ec291,task,flow.Sequence,5_0_0_0_4,NA,NA,completion,9500,353979.2,353977.2,353993.9,363493.9,363497.3,2025-01-15T16:19:49Z,363509.9,NULL,Kanzler,diwani,s,rasilmali,mahitaji,maabudu,NA,sdf,NA,0,NA,NA,NA,NA,NA,NA,NA,NA,NA,NA,NA,NA,NA,NA,NA,NA,NA,NA,NA
ec291,deep,flow.Sequence,5_0_0_0_5_0,NA,NA,skipped,NA,363497.4,NA,NA,363493.9,363497.5,2025-01-15T16:19:49Z,363509.9,NULL,Flexibilität,kubadilika,s,enjini,usikilivu,hesabu,NA,sdf,NA,0,NA,NA,NA,NA,NA,NA,NA,NA,NA,NA,NA,NA,NA,NA,NA,NA,NA,NA,NA
ec291,Shallow Question,html.Page,5_0_0_0_5_1_0,NA,NA,form submission,2138.6,363497.7,363493.9,363509.9,365648.5,365648.9,2025-01-15T16:19:51Z,365660.65,NULL,Flexibilität,kubadilika,s,enjini,usikilivu,hesabu,hesabu,NA,NA,0,NA,NA,NA,NA,NA,NA,NA,NA,NA,NA,NA,NA,NA,NA,NA,NA,NA,NA,NA
ec291,"""Richtig""-Screen",canvas.Screen,5_0_0_0_5_1_1,NA,NA,skipped,NA,365649.9,NA,NA,365648.5,365650,2025-01-15T16:19:51Z,365660.65,NULL,Flexibilität,kubadilika,s,enjini,usikilivu,hesabu,NA,sdf,NA,0,NA,NA,NA,NA,NA,NA,NA,NA,NA,NA,NA,NA,NA,NA,NA,NA,NA,NA,NA
ec291,"""Falsch""-Screen",canvas.Screen,5_0_0_0_5_1_2,NA,NA,timeout,4999.95,365650.8,365660.65,365660.65,370643.9,370644.7,2025-01-15T16:19:56Z,370660.6,NULL,Flexibilität,kubadilika,s,enjini,usikilivu,hesabu,NA,sdf,0,0,NA,NA,NA,NA,NA,NA,NA,NA,NA,NA,NA,NA,NA,NA,NA,NA,NA,NA,NA
ec291,shallow,flow.Sequence,5_0_0_0_5_1,NA,NA,completion,7134,363497.6,363493.9,363509.9,370643.9,370645.1,2025-01-15T16:19:56Z,370660.6,NULL,Flexibilität,kubadilika,s,enjini,usikilivu,hesabu,NA,sdf,NA,0,NA,NA,NA,NA,NA,NA,NA,NA,NA,NA,NA,NA,NA,NA,NA,NA,NA,NA,NA
ec291,task,flow.Sequence,5_0_0_0_5,NA,NA,completion,7134,363497.4,363493.9,363509.9,370643.9,370645.3,2025-01-15T16:19:56Z,370660.6,NULL,Flexibilität,kubadilika,s,enjini,usikilivu,hesabu,NA,sdf,NA,0,NA,NA,NA,NA,NA,NA,NA,NA,NA,NA,NA,NA,NA,NA,NA,NA,NA,NA,NA
ec291,deep,flow.Sequence,5_0_0_0_6_0,NA,NA,skipped,NA,370645.5,NA,NA,370643.9,370645.6,2025-01-15T16:19:56Z,370660.6,NULL,Atmosphäre,angahewa,s,kuteseka,usahihi,kutoamini,NA,sdf,NA,0,NA,NA,NA,NA,NA,NA,NA,NA,NA,NA,NA,NA,NA,NA,NA,NA,NA,NA,NA
ec291,Shallow Question,html.Page,5_0_0_0_6_1_0,NA,NA,form submission,3783.3000000004,370645.7,370643.9,370660.6,374443.9,374444.4,2025-01-15T16:20:00Z,374443.932,NULL,Atmosphäre,angahewa,s,kuteseka,usahihi,kutoamini,kutoamini,NA,NA,0,NA,NA,NA,NA,NA,NA,NA,NA,NA,NA,NA,NA,NA,NA,NA,NA,NA,NA,NA
ec291,"""Richtig""-Screen",canvas.Screen,5_0_0_0_6_1_1,NA,NA,skipped,NA,374446.1,NA,NA,374443.9,374446.2,2025-01-15T16:20:00Z,374443.932,NULL,Atmosphäre,angahewa,s,kuteseka,usahihi,kutoamini,NA,sdf,NA,0,NA,NA,NA,NA,NA,NA,NA,NA,NA,NA,NA,NA,NA,NA,NA,NA,NA,NA,NA
ec291,"""Falsch""-Screen",canvas.Screen,5_0_0_0_6_1_2,NA,NA,timeout,4999.9680000001,374446.7,374443.932,374443.932,379427.3,379428.1,2025-01-15T16:20:05Z,379443.9,NULL,Atmosphäre,angahewa,s,kuteseka,usahihi,kutoamini,NA,sdf,0,0,NA,NA,NA,NA,NA,NA,NA,NA,NA,NA,NA,NA,NA,NA,NA,NA,NA,NA,NA
ec291,shallow,flow.Sequence,5_0_0_0_6_1,NA,NA,completion,8766.7,370645.7,370643.9,370660.6,379427.3,379428.5,2025-01-15T16:20:05Z,379443.9,NULL,Atmosphäre,angahewa,s,kuteseka,usahihi,kutoamini,NA,sdf,NA,0,NA,NA,NA,NA,NA,NA,NA,NA,NA,NA,NA,NA,NA,NA,NA,NA,NA,NA,NA
ec291,task,flow.Sequence,5_0_0_0_6,NA,NA,completion,8766.7,370645.4,370643.9,370660.6,379427.3,379428.7,2025-01-15T16:20:05Z,379443.9,NULL,Atmosphäre,angahewa,s,kuteseka,usahihi,kutoamini,NA,sdf,NA,0,NA,NA,NA,NA,NA,NA,NA,NA,NA,NA,NA,NA,NA,NA,NA,NA,NA,NA,NA
ec291,Deep Question,html.Page,5_0_0_0_7_0_0,NA,NA,form submission,2554.4000000007,379428.9,379427.3,379443.9,381998.3,381998.5,2025-01-15T16:20:08Z,382010.6,NULL,Erneuerung,ukarabati,d,NA,NA,NA,sdf,NA,NA,0,NA,NA,NA,NA,NA,NA,NA,NA,NA,NA,NA,NA,NA,NA,NA,NA,NA,NA,NA
ec291,"""Richtig""-Screen",canvas.Screen,5_0_0_0_7_0_1,NA,NA,skipped,NA,381999.2,NA,NA,381998.3,381999.3,2025-01-15T16:20:08Z,382010.6,NULL,Erneuerung,ukarabati,d,NA,NA,NA,NA,sdf,NA,0,NA,NA,NA,NA,NA,NA,NA,NA,NA,NA,NA,NA,NA,NA,NA,NA,NA,NA,NA
ec291,"""Falsch""-Screen",canvas.Screen,5_0_0_0_7_0_2,NA,NA,timeout,5000,381999.8,381993.962,382010.6,386994,386994.6,2025-01-15T16:20:13Z,387010.6,NULL,Erneuerung,ukarabati,d,NA,NA,NA,NA,sdf,0,0,NA,NA,NA,NA,NA,NA,NA,NA,NA,NA,NA,NA,NA,NA,NA,NA,NA,NA,NA
ec291,deep,flow.Sequence,5_0_0_0_7_0,NA,NA,completion,7550.1,379428.9,379427.3,379443.9,386994,386994.7,2025-01-15T16:20:13Z,387010.6,NULL,Erneuerung,ukarabati,d,NA,NA,NA,NA,sdf,NA,0,NA,NA,NA,NA,NA,NA,NA,NA,NA,NA,NA,NA,NA,NA,NA,NA,NA,NA,NA
ec291,shallow,flow.Sequence,5_0_0_0_7_1,NA,NA,skipped,NA,386994.8,NA,NA,386994,386994.9,2025-01-15T16:20:13Z,387010.6,NULL,Erneuerung,ukarabati,d,NA,NA,NA,NA,sdf,NA,0,NA,NA,NA,NA,NA,NA,NA,NA,NA,NA,NA,NA,NA,NA,NA,NA,NA,NA,NA
ec291,task,flow.Sequence,5_0_0_0_7,NA,NA,completion,7550.1,379428.8,379427.3,379443.9,386994,386994.9,2025-01-15T16:20:13Z,387010.6,NULL,Erneuerung,ukarabati,d,NA,NA,NA,NA,sdf,NA,0,NA,NA,NA,NA,NA,NA,NA,NA,NA,NA,NA,NA,NA,NA,NA,NA,NA,NA,NA
ec291,block,flow.Loop,5_0_0_0,NA,NA,completion,62616.8,324364.4,324360.444,324377.2,386994,386995.1,2025-01-15T16:20:13Z,387010.6,NULL,NA,NA,NA,NA,NA,NA,NA,sdf,NA,0,NA,NA,NA,NA,NA,NA,NA,NA,NA,NA,NA,NA,NA,NA,NA,NA,NA,NA,NA
ec291,weiter,canvas.Screen,5_0_0_1,sdf,keypress(Space),response,1918.6000000002,386995.1,386994,387010.6,388929.2,388933.5,2025-01-15T16:20:15Z,388977.2,NULL,NA,NA,NA,NA,NA,NA,NA,sdf,NA,0,NA,NA,NA,NA,NA,NA,NA,NA,NA,NA,NA,NA,NA,NA,NA,NA,NA,NA,NA
ec291,check continue,flow.Sequence,5_0_0,NA,NA,completion,64552,324364.4,324360.444,324377.2,388929.2,388933.7,2025-01-15T16:20:15Z,388977.2,NULL,NA,NA,NA,NA,NA,NA,NA,sdf,NA,0,NA,NA,NA,NA,NA,NA,NA,NA,NA,NA,NA,NA,NA,NA,NA,NA,NA,NA,NA
ec291,deep,flow.Sequence,5_0_1_0_0_0,NA,NA,skipped,NA,388962.7,NA,NA,388929.2,388962.8,2025-01-15T16:20:15Z,388977.2,NULL,Abrechnung,uhasibu,s,kusahihisha,mpambano,mashambulizi,NA,sdfdsf,NA,1,NA,NA,NA,NA,NA,NA,NA,NA,NA,NA,NA,NA,NA,NA,NA,NA,NA,NA,NA
ec291,Shallow Question,html.Page,5_0_1_0_0_1_0,NA,NA,form submission,1795.0000000002,388962.9,388960.674,388977.2,390772.2,390772.6,2025-01-15T16:20:16Z,390793.9,NULL,Abrechnung,uhasibu,s,kusahihisha,mpambano,mashambulizi,uhasibu,NA,NA,1,NA,NA,NA,NA,NA,NA,NA,NA,NA,NA,NA,NA,NA,NA,NA,NA,NA,NA,NA
ec291,"""Richtig""-Screen",canvas.Screen,5_0_1_0_0_1_1,NA,NA,timeout,5000,390773.6,390777.3,390793.9,395777.3,395778.1,2025-01-15T16:20:21Z,395793.9,NULL,Abrechnung,uhasibu,s,kusahihisha,mpambano,mashambulizi,NA,sdfdsf,1,1,NA,NA,NA,NA,NA,NA,NA,NA,NA,NA,NA,NA,NA,NA,NA,NA,NA,NA,NA
ec291,"""Falsch""-Screen",canvas.Screen,5_0_1_0_0_1_2,NA,NA,skipped,NA,395780,NA,NA,395777.3,395780.1,2025-01-15T16:20:21Z,395793.9,NULL,Abrechnung,uhasibu,s,kusahihisha,mpambano,mashambulizi,NA,sdfdsf,NA,1,NA,NA,NA,NA,NA,NA,NA,NA,NA,NA,NA,NA,NA,NA,NA,NA,NA,NA,NA
ec291,shallow,flow.Sequence,5_0_1_0_0_1,NA,NA,completion,6800.1,388962.9,388960.674,388977.2,395777.3,395780.4,2025-01-15T16:20:21Z,395793.9,NULL,Abrechnung,uhasibu,s,kusahihisha,mpambano,mashambulizi,NA,sdfdsf,NA,1,NA,NA,NA,NA,NA,NA,NA,NA,NA,NA,NA,NA,NA,NA,NA,NA,NA,NA,NA
ec291,task,flow.Sequence,5_0_1_0_0,NA,NA,completion,6800.1,388962.7,388960.674,388977.2,395777.3,395780.5,2025-01-15T16:20:21Z,395793.9,NULL,Abrechnung,uhasibu,s,kusahihisha,mpambano,mashambulizi,NA,sdfdsf,NA,1,NA,NA,NA,NA,NA,NA,NA,NA,NA,NA,NA,NA,NA,NA,NA,NA,NA,NA,NA
ec291,Deep Question,html.Page,5_0_1_0_1_0_0,NA,NA,form submission,7292.9000000007,395780.7,395777.3,395793.9,403086.8,403087.1,2025-01-15T16:20:29Z,403110.6,NULL,Erneuerung,ukarabati,d,NA,NA,NA,mshambulizi,NA,NA,1,NA,NA,NA,NA,NA,NA,NA,NA,NA,NA,NA,NA,NA,NA,NA,NA,NA,NA,NA
ec291,"""Richtig""-Screen",canvas.Screen,5_0_1_0_1_0_1,NA,NA,skipped,NA,403088,NA,NA,403086.8,403088,2025-01-15T16:20:29Z,403110.6,NULL,Erneuerung,ukarabati,d,NA,NA,NA,NA,sdfdsf,NA,1,NA,NA,NA,NA,NA,NA,NA,NA,NA,NA,NA,NA,NA,NA,NA,NA,NA,NA,NA
ec291,"""Falsch""-Screen",canvas.Screen,5_0_1_0_1_0_2,NA,NA,timeout,5000.1,403088.7,403093.966,403110.6,408094,408094.4,2025-01-15T16:20:34Z,408110.7,NULL,Erneuerung,ukarabati,d,NA,NA,NA,NA,sdfdsf,0,1,NA,NA,NA,NA,NA,NA,NA,NA,NA,NA,NA,NA,NA,NA,NA,NA,NA,NA,NA
ec291,deep,flow.Sequence,5_0_1_0_1_0,NA,NA,completion,12300.1,395780.6,395777.3,395793.9,408094,408094.6,2025-01-15T16:20:34Z,408110.7,NULL,Erneuerung,ukarabati,d,NA,NA,NA,NA,sdfdsf,NA,1,NA,NA,NA,NA,NA,NA,NA,NA,NA,NA,NA,NA,NA,NA,NA,NA,NA,NA,NA
ec291,shallow,flow.Sequence,5_0_1_0_1_1,NA,NA,skipped,NA,408094.8,NA,NA,408094,408094.8,2025-01-15T16:20:34Z,408110.7,NULL,Erneuerung,ukarabati,d,NA,NA,NA,NA,sdfdsf,NA,1,NA,NA,NA,NA,NA,NA,NA,NA,NA,NA,NA,NA,NA,NA,NA,NA,NA,NA,NA
ec291,task,flow.Sequence,5_0_1_0_1,NA,NA,completion,12300.1,395780.6,395777.3,395793.9,408094,408094.8,2025-01-15T16:20:34Z,408110.7,NULL,Erneuerung,ukarabati,d,NA,NA,NA,NA,sdfdsf,NA,1,NA,NA,NA,NA,NA,NA,NA,NA,NA,NA,NA,NA,NA,NA,NA,NA,NA,NA,NA
ec291,Deep Question,html.Page,5_0_1_0_2_0_0,NA,NA,form submission,4151.2000000004,408094.9,408094,408110.7,412261.9,412262.3,2025-01-15T16:20:38Z,412277.3,NULL,Wechsel,ugeuzaji,d,NA,NA,NA,mshamubilzi,NA,NA,1,NA,NA,NA,NA,NA,NA,NA,NA,NA,NA,NA,NA,NA,NA,NA,NA,NA,NA,NA
ec291,"""Richtig""-Screen",canvas.Screen,5_0_1_0_2_0_1,NA,NA,skipped,NA,412263.4,NA,NA,412261.9,412263.5,2025-01-15T16:20:38Z,412277.3,NULL,Wechsel,ugeuzaji,d,NA,NA,NA,NA,sdfdsf,NA,1,NA,NA,NA,NA,NA,NA,NA,NA,NA,NA,NA,NA,NA,NA,NA,NA,NA,NA,NA
ec291,"""Falsch""-Screen",canvas.Screen,5_0_1_0_2_0_2,NA,NA,timeout,4999.6,412264.8,412260.72,412277.3,417260.7,417261.2,2025-01-15T16:20:43Z,417276.9,NULL,Wechsel,ugeuzaji,d,NA,NA,NA,NA,sdfdsf,0,1,NA,NA,NA,NA,NA,NA,NA,NA,NA,NA,NA,NA,NA,NA,NA,NA,NA,NA,NA
ec291,deep,flow.Sequence,5_0_1_0_2_0,NA,NA,completion,9150,408094.9,408094,408110.7,417260.7,417261.3,2025-01-15T16:20:43Z,417276.9,NULL,Wechsel,ugeuzaji,d,NA,NA,NA,NA,sdfdsf,NA,1,NA,NA,NA,NA,NA,NA,NA,NA,NA,NA,NA,NA,NA,NA,NA,NA,NA,NA,NA
ec291,shallow,flow.Sequence,5_0_1_0_2_1,NA,NA,skipped,NA,417261.4,NA,NA,417260.7,417261.5,2025-01-15T16:20:43Z,417276.9,NULL,Wechsel,ugeuzaji,d,NA,NA,NA,NA,sdfdsf,NA,1,NA,NA,NA,NA,NA,NA,NA,NA,NA,NA,NA,NA,NA,NA,NA,NA,NA,NA,NA
ec291,task,flow.Sequence,5_0_1_0_2,NA,NA,completion,9150,408094.9,408094,408110.7,417260.7,417261.5,2025-01-15T16:20:43Z,417276.9,NULL,Wechsel,ugeuzaji,d,NA,NA,NA,NA,sdfdsf,NA,1,NA,NA,NA,NA,NA,NA,NA,NA,NA,NA,NA,NA,NA,NA,NA,NA,NA,NA,NA
ec291,deep,flow.Sequence,5_0_1_0_3_0,NA,NA,skipped,NA,417261.7,NA,NA,417260.7,417261.7,2025-01-15T16:20:43Z,417276.9,NULL,Atmosphäre,angahewa,s,kuteseka,usahihi,kutoamini,NA,sdfdsf,NA,1,NA,NA,NA,NA,NA,NA,NA,NA,NA,NA,NA,NA,NA,NA,NA,NA,NA,NA,NA
ec291,Shallow Question,html.Page,5_0_1_0_3_1_0,NA,NA,form submission,5092.4000000007,417261.7,417260.7,417276.9,422369.3,422369.8,2025-01-15T16:20:48Z,422377.3,NULL,Atmosphäre,angahewa,s,kuteseka,usahihi,kutoamini,usahihi,NA,NA,1,NA,NA,NA,NA,NA,NA,NA,NA,NA,NA,NA,NA,NA,NA,NA,NA,NA,NA,NA
ec291,"""Richtig""-Screen",canvas.Screen,5_0_1_0_3_1_1,NA,NA,skipped,NA,422370.8,NA,NA,422369.3,422370.8,2025-01-15T16:20:48Z,422377.3,NULL,Atmosphäre,angahewa,s,kuteseka,usahihi,kutoamini,NA,sdfdsf,NA,1,NA,NA,NA,NA,NA,NA,NA,NA,NA,NA,NA,NA,NA,NA,NA,NA,NA,NA,NA
ec291,"""Falsch""-Screen",canvas.Screen,5_0_1_0_3_1_2,NA,NA,timeout,5000.1,422371.7,422360.73,422377.3,427360.7,427361.9,2025-01-15T16:20:53Z,427377.4,NULL,Atmosphäre,angahewa,s,kuteseka,usahihi,kutoamini,NA,sdfdsf,0,1,NA,NA,NA,NA,NA,NA,NA,NA,NA,NA,NA,NA,NA,NA,NA,NA,NA,NA,NA
ec291,shallow,flow.Sequence,5_0_1_0_3_1,NA,NA,completion,10083.8,417261.7,417260.7,417276.9,427360.7,427362.3,2025-01-15T16:20:53Z,427377.4,NULL,Atmosphäre,angahewa,s,kuteseka,usahihi,kutoamini,NA,sdfdsf,NA,1,NA,NA,NA,NA,NA,NA,NA,NA,NA,NA,NA,NA,NA,NA,NA,NA,NA,NA,NA
ec291,task,flow.Sequence,5_0_1_0_3,NA,NA,completion,10083.8,417261.6,417260.7,417276.9,427360.7,427362.4,2025-01-15T16:20:53Z,427377.4,NULL,Atmosphäre,angahewa,s,kuteseka,usahihi,kutoamini,NA,sdfdsf,NA,1,NA,NA,NA,NA,NA,NA,NA,NA,NA,NA,NA,NA,NA,NA,NA,NA,NA,NA,NA
ec291,deep,flow.Sequence,5_0_1_0_4_0,NA,NA,skipped,NA,427362.6,NA,NA,427360.7,427362.7,2025-01-15T16:20:53Z,427377.4,NULL,Kanzler,diwani,s,rasilmali,mahitaji,maabudu,NA,sdfdsf,NA,1,NA,NA,NA,NA,NA,NA,NA,NA,NA,NA,NA,NA,NA,NA,NA,NA,NA,NA,NA
ec291,Shallow Question,html.Page,5_0_1_0_4_1_0,NA,NA,form submission,1701.7000000005,427362.9,427360.7,427377.4,429079.1,429079.5,2025-01-15T16:20:55Z,429094.1,NULL,Kanzler,diwani,s,rasilmali,mahitaji,maabudu,diwani,NA,NA,1,NA,NA,NA,NA,NA,NA,NA,NA,NA,NA,NA,NA,NA,NA,NA,NA,NA,NA,NA
ec291,"""Richtig""-Screen",canvas.Screen,5_0_1_0_4_1_1,NA,NA,timeout,4999.9,429081,429077.298,429094.1,434077.3,434078.3,2025-01-15T16:21:00Z,434094,NULL,Kanzler,diwani,s,rasilmali,mahitaji,maabudu,NA,sdfdsf,1,1,NA,NA,NA,NA,NA,NA,NA,NA,NA,NA,NA,NA,NA,NA,NA,NA,NA,NA,NA
ec291,"""Falsch""-Screen",canvas.Screen,5_0_1_0_4_1_2,NA,NA,skipped,NA,434080.1,NA,NA,434077.3,434080.2,2025-01-15T16:21:00Z,434094,NULL,Kanzler,diwani,s,rasilmali,mahitaji,maabudu,NA,sdfdsf,NA,1,NA,NA,NA,NA,NA,NA,NA,NA,NA,NA,NA,NA,NA,NA,NA,NA,NA,NA,NA
ec291,shallow,flow.Sequence,5_0_1_0_4_1,NA,NA,completion,6699.9,427362.8,427360.7,427377.4,434077.3,434080.5,2025-01-15T16:21:00Z,434094,NULL,Kanzler,diwani,s,rasilmali,mahitaji,maabudu,NA,sdfdsf,NA,1,NA,NA,NA,NA,NA,NA,NA,NA,NA,NA,NA,NA,NA,NA,NA,NA,NA,NA,NA
ec291,task,flow.Sequence,5_0_1_0_4,NA,NA,completion,6699.9,427362.6,427360.7,427377.4,434077.3,434080.7,2025-01-15T16:21:00Z,434094,NULL,Kanzler,diwani,s,rasilmali,mahitaji,maabudu,NA,sdfdsf,NA,1,NA,NA,NA,NA,NA,NA,NA,NA,NA,NA,NA,NA,NA,NA,NA,NA,NA,NA,NA
ec291,Deep Question,html.Page,5_0_1_0_5_0_0,NA,NA,form submission,6445.9000000004,434080.9,434077.3,434094,440539.9,440540.2,2025-01-15T16:21:06Z,440544,NULL,Angreifer,mshambulizi,d,NA,NA,NA,ugeuzaji,NA,NA,1,NA,NA,NA,NA,NA,NA,NA,NA,NA,NA,NA,NA,NA,NA,NA,NA,NA,NA,NA
ec291,"""Richtig""-Screen",canvas.Screen,5_0_1_0_5_0_1,NA,NA,skipped,NA,440541.1,NA,NA,440539.9,440541.2,2025-01-15T16:21:06Z,440544,NULL,Angreifer,mshambulizi,d,NA,NA,NA,NA,sdfdsf,NA,1,NA,NA,NA,NA,NA,NA,NA,NA,NA,NA,NA,NA,NA,NA,NA,NA,NA,NA,NA
ec291,"""Falsch""-Screen",canvas.Screen,5_0_1_0_5_0_2,NA,NA,timeout,5000,440541.8,440527.428,440544,445526.6,445528.2,2025-01-15T16:21:11Z,445544,NULL,Angreifer,mshambulizi,d,NA,NA,NA,NA,sdfdsf,0,1,NA,NA,NA,NA,NA,NA,NA,NA,NA,NA,NA,NA,NA,NA,NA,NA,NA,NA,NA
ec291,deep,flow.Sequence,5_0_1_0_5_0,NA,NA,completion,11432.6,434080.9,434077.3,434094,445526.6,445528.4,2025-01-15T16:21:11Z,445544,NULL,Angreifer,mshambulizi,d,NA,NA,NA,NA,sdfdsf,NA,1,NA,NA,NA,NA,NA,NA,NA,NA,NA,NA,NA,NA,NA,NA,NA,NA,NA,NA,NA
ec291,shallow,flow.Sequence,5_0_1_0_5_1,NA,NA,skipped,NA,445528.4,NA,NA,445526.6,445528.5,2025-01-15T16:21:11Z,445544,NULL,Angreifer,mshambulizi,d,NA,NA,NA,NA,sdfdsf,NA,1,NA,NA,NA,NA,NA,NA,NA,NA,NA,NA,NA,NA,NA,NA,NA,NA,NA,NA,NA
ec291,task,flow.Sequence,5_0_1_0_5,NA,NA,completion,11432.6,434080.7,434077.3,434094,445526.6,445528.5,2025-01-15T16:21:11Z,445544,NULL,Angreifer,mshambulizi,d,NA,NA,NA,NA,sdfdsf,NA,1,NA,NA,NA,NA,NA,NA,NA,NA,NA,NA,NA,NA,NA,NA,NA,NA,NA,NA,NA
ec291,deep,flow.Sequence,5_0_1_0_6_0,NA,NA,skipped,NA,445528.6,NA,NA,445526.6,445528.6,2025-01-15T16:21:11Z,445544,NULL,Flexibilität,kubadilika,s,enjini,usikilivu,hesabu,NA,sdfdsf,NA,1,NA,NA,NA,NA,NA,NA,NA,NA,NA,NA,NA,NA,NA,NA,NA,NA,NA,NA,NA
ec291,Shallow Question,html.Page,5_0_1_0_6_1_0,NA,NA,form submission,3814.5,445528.7,445526.6,445544,449358.5,449359,2025-01-15T16:21:15Z,449377.454,NULL,Flexibilität,kubadilika,s,enjini,usikilivu,hesabu,kubadilika,NA,NA,1,NA,NA,NA,NA,NA,NA,NA,NA,NA,NA,NA,NA,NA,NA,NA,NA,NA,NA,NA
ec291,"""Richtig""-Screen",canvas.Screen,5_0_1_0_6_1_1,NA,NA,timeout,4999.946,449360.2,449377.454,449377.454,454360.7,454361.8,2025-01-15T16:21:20Z,454377.4,NULL,Flexibilität,kubadilika,s,enjini,usikilivu,hesabu,NA,sdfdsf,1,1,NA,NA,NA,NA,NA,NA,NA,NA,NA,NA,NA,NA,NA,NA,NA,NA,NA,NA,NA
ec291,"""Falsch""-Screen",canvas.Screen,5_0_1_0_6_1_2,NA,NA,skipped,NA,454363.9,NA,NA,454360.7,454364,2025-01-15T16:21:20Z,454377.4,NULL,Flexibilität,kubadilika,s,enjini,usikilivu,hesabu,NA,sdfdsf,NA,1,NA,NA,NA,NA,NA,NA,NA,NA,NA,NA,NA,NA,NA,NA,NA,NA,NA,NA,NA
ec291,shallow,flow.Sequence,5_0_1_0_6_1,NA,NA,completion,8816.7,445528.6,445526.6,445544,454360.7,454364.2,2025-01-15T16:21:20Z,454377.4,NULL,Flexibilität,kubadilika,s,enjini,usikilivu,hesabu,NA,sdfdsf,NA,1,NA,NA,NA,NA,NA,NA,NA,NA,NA,NA,NA,NA,NA,NA,NA,NA,NA,NA,NA
ec291,task,flow.Sequence,5_0_1_0_6,NA,NA,completion,8816.7,445528.6,445526.6,445544,454360.7,454364.3,2025-01-15T16:21:20Z,454377.4,NULL,Flexibilität,kubadilika,s,enjini,usikilivu,hesabu,NA,sdfdsf,NA,1,NA,NA,NA,NA,NA,NA,NA,NA,NA,NA,NA,NA,NA,NA,NA,NA,NA,NA,NA
ec291,Deep Question,html.Page,5_0_1_0_7_0_0,NA,NA,form submission,4248.7000000005,454364.5,454360.7,454377.4,458626.1,458626.6,2025-01-15T16:21:24Z,458627.46,NULL,Sänger,mwimbaji,d,NA,NA,NA,mshambulizi,NA,NA,1,NA,NA,NA,NA,NA,NA,NA,NA,NA,NA,NA,NA,NA,NA,NA,NA,NA,NA,NA
ec291,"""Richtig""-Screen",canvas.Screen,5_0_1_0_7_0_1,NA,NA,skipped,NA,458627.5,NA,NA,458626.1,458627.5,2025-01-15T16:21:24Z,458627.46,NULL,Sänger,mwimbaji,d,NA,NA,NA,NA,sdfdsf,NA,1,NA,NA,NA,NA,NA,NA,NA,NA,NA,NA,NA,NA,NA,NA,NA,NA,NA,NA,NA
ec291,"""Falsch""-Screen",canvas.Screen,5_0_1_0_7_0_2,NA,NA,timeout,4999.74,458628.2,458627.46,458627.46,463610.8,463611.6,2025-01-15T16:21:29Z,463627.2,NULL,Sänger,mwimbaji,d,NA,NA,NA,NA,sdfdsf,0,1,NA,NA,NA,NA,NA,NA,NA,NA,NA,NA,NA,NA,NA,NA,NA,NA,NA,NA,NA
ec291,deep,flow.Sequence,5_0_1_0_7_0,NA,NA,completion,9233.4,454364.5,454360.7,454377.4,463610.8,463612,2025-01-15T16:21:29Z,463627.2,NULL,Sänger,mwimbaji,d,NA,NA,NA,NA,sdfdsf,NA,1,NA,NA,NA,NA,NA,NA,NA,NA,NA,NA,NA,NA,NA,NA,NA,NA,NA,NA,NA
ec291,shallow,flow.Sequence,5_0_1_0_7_1,NA,NA,skipped,NA,463612.1,NA,NA,463610.8,463612.2,2025-01-15T16:21:29Z,463627.2,NULL,Sänger,mwimbaji,d,NA,NA,NA,NA,sdfdsf,NA,1,NA,NA,NA,NA,NA,NA,NA,NA,NA,NA,NA,NA,NA,NA,NA,NA,NA,NA,NA
ec291,task,flow.Sequence,5_0_1_0_7,NA,NA,completion,9233.4,454364.5,454360.7,454377.4,463610.8,463612.3,2025-01-15T16:21:29Z,463627.2,NULL,Sänger,mwimbaji,d,NA,NA,NA,NA,sdfdsf,NA,1,NA,NA,NA,NA,NA,NA,NA,NA,NA,NA,NA,NA,NA,NA,NA,NA,NA,NA,NA
ec291,block,flow.Loop,5_0_1_0,NA,NA,completion,74633.6,388962.6,388960.674,388977.2,463610.8,463612.4,2025-01-15T16:21:29Z,463627.2,NULL,NA,NA,NA,NA,NA,NA,NA,sdfdsf,NA,1,NA,NA,NA,NA,NA,NA,NA,NA,NA,NA,NA,NA,NA,NA,NA,NA,NA,NA,NA
ec291,weiter,canvas.Screen,5_0_1_1,sdf,keypress(Space),response,820.70000000036,463612.5,463610.8,463627.2,464447.9,464452.3,2025-01-15T16:21:30Z,464494.1,NULL,NA,NA,NA,NA,NA,NA,NA,sdfdsf,NA,1,NA,NA,NA,NA,NA,NA,NA,NA,NA,NA,NA,NA,NA,NA,NA,NA,NA,NA,NA
ec291,check continue,flow.Sequence,5_0_1,NA,NA,completion,75470.7,388962.6,388960.674,388977.2,464447.9,464452.7,2025-01-15T16:21:30Z,464494.1,NULL,NA,NA,NA,NA,NA,NA,NA,sdfdsf,NA,1,NA,NA,NA,NA,NA,NA,NA,NA,NA,NA,NA,NA,NA,NA,NA,NA,NA,NA,NA
ec291,deep,flow.Sequence,5_0_2_0_0_0,NA,NA,skipped,NA,464482.6,NA,NA,464447.9,464482.7,2025-01-15T16:21:30Z,464494.1,NULL,Atmosphäre,angahewa,s,kuteseka,usahihi,kutoamini,NA,sdf,NA,2,NA,NA,NA,NA,NA,NA,NA,NA,NA,NA,NA,NA,NA,NA,NA,NA,NA,NA,NA
ec291,Shallow Question,html.Page,5_0_2_0_0_1_0,NA,NA,form submission,2931.9,464482.8,464477.456,464494.1,467426,467426.5,2025-01-15T16:21:33Z,467427.5,NULL,Atmosphäre,angahewa,s,kuteseka,usahihi,kutoamini,angahewa,NA,NA,2,NA,NA,NA,NA,NA,NA,NA,NA,NA,NA,NA,NA,NA,NA,NA,NA,NA,NA,NA
ec291,"""Richtig""-Screen",canvas.Screen,5_0_2_0_0_1_1,NA,NA,timeout,5000,467427.8,467427.492,467427.5,472410.7,472411.7,2025-01-15T16:21:38Z,472427.5,NULL,Atmosphäre,angahewa,s,kuteseka,usahihi,kutoamini,NA,sdf,1,2,NA,NA,NA,NA,NA,NA,NA,NA,NA,NA,NA,NA,NA,NA,NA,NA,NA,NA,NA
ec291,"""Falsch""-Screen",canvas.Screen,5_0_2_0_0_1_2,NA,NA,skipped,NA,472414,NA,NA,472410.7,472414.1,2025-01-15T16:21:38Z,472427.5,NULL,Atmosphäre,angahewa,s,kuteseka,usahihi,kutoamini,NA,sdf,NA,2,NA,NA,NA,NA,NA,NA,NA,NA,NA,NA,NA,NA,NA,NA,NA,NA,NA,NA,NA
ec291,shallow,flow.Sequence,5_0_2_0_0_1,NA,NA,completion,7916.6,464482.8,464477.456,464494.1,472410.7,472414.2,2025-01-15T16:21:38Z,472427.5,NULL,Atmosphäre,angahewa,s,kuteseka,usahihi,kutoamini,NA,sdf,NA,2,NA,NA,NA,NA,NA,NA,NA,NA,NA,NA,NA,NA,NA,NA,NA,NA,NA,NA,NA
ec291,task,flow.Sequence,5_0_2_0_0,NA,NA,completion,7916.6,464482.6,464477.456,464494.1,472410.7,472414.3,2025-01-15T16:21:38Z,472427.5,NULL,Atmosphäre,angahewa,s,kuteseka,usahihi,kutoamini,NA,sdf,NA,2,NA,NA,NA,NA,NA,NA,NA,NA,NA,NA,NA,NA,NA,NA,NA,NA,NA,NA,NA
ec291,deep,flow.Sequence,5_0_2_0_1_0,NA,NA,skipped,NA,472414.4,NA,NA,472410.7,472414.5,2025-01-15T16:21:38Z,472427.5,NULL,Flexibilität,kubadilika,s,enjini,usikilivu,hesabu,NA,sdf,NA,2,NA,NA,NA,NA,NA,NA,NA,NA,NA,NA,NA,NA,NA,NA,NA,NA,NA,NA,NA
ec291,Shallow Question,html.Page,5_0_2_0_1_1_0,NA,NA,form submission,2230.7000000002,472414.5,472410.7,472427.5,474658.2,474658.6,2025-01-15T16:21:40Z,474660.8,NULL,Flexibilität,kubadilika,s,enjini,usikilivu,hesabu,kubadilika,NA,NA,2,NA,NA,NA,NA,NA,NA,NA,NA,NA,NA,NA,NA,NA,NA,NA,NA,NA,NA,NA
ec291,"""Richtig""-Screen",canvas.Screen,5_0_2_0_1_1_1,NA,NA,timeout,4999.9,474659.3,474644.18,474660.8,479644.1,479644.9,2025-01-15T16:21:45Z,479660.7,NULL,Flexibilität,kubadilika,s,enjini,usikilivu,hesabu,NA,sdf,1,2,NA,NA,NA,NA,NA,NA,NA,NA,NA,NA,NA,NA,NA,NA,NA,NA,NA,NA,NA
ec291,"""Falsch""-Screen",canvas.Screen,5_0_2_0_1_1_2,NA,NA,skipped,NA,479646.8,NA,NA,479644.1,479647,2025-01-15T16:21:45Z,479660.7,NULL,Flexibilität,kubadilika,s,enjini,usikilivu,hesabu,NA,sdf,NA,2,NA,NA,NA,NA,NA,NA,NA,NA,NA,NA,NA,NA,NA,NA,NA,NA,NA,NA,NA
ec291,shallow,flow.Sequence,5_0_2_0_1_1,NA,NA,completion,7216.6,472414.5,472410.7,472427.5,479644.1,479647.1,2025-01-15T16:21:45Z,479660.7,NULL,Flexibilität,kubadilika,s,enjini,usikilivu,hesabu,NA,sdf,NA,2,NA,NA,NA,NA,NA,NA,NA,NA,NA,NA,NA,NA,NA,NA,NA,NA,NA,NA,NA
ec291,task,flow.Sequence,5_0_2_0_1,NA,NA,completion,7216.6,472414.4,472410.7,472427.5,479644.1,479647.2,2025-01-15T16:21:45Z,479660.7,NULL,Flexibilität,kubadilika,s,enjini,usikilivu,hesabu,NA,sdf,NA,2,NA,NA,NA,NA,NA,NA,NA,NA,NA,NA,NA,NA,NA,NA,NA,NA,NA,NA,NA
ec291,Deep Question,html.Page,5_0_2_0_2_0_0,NA,NA,form submission,5980.0000000002,479647.4,479644.1,479660.7,485640.7,485641,2025-01-15T16:21:51Z,485644.1,NULL,Wechsel,ugeuzaji,d,NA,NA,NA,ugeuzaji,NA,NA,2,NA,NA,NA,NA,NA,NA,NA,NA,NA,NA,NA,NA,NA,NA,NA,NA,NA,NA,NA
ec291,"""Richtig""-Screen",canvas.Screen,5_0_2_0_2_0_1,NA,NA,timeout,5000.1,485641.8,485627.5,485644.1,490627.5,490628.4,2025-01-15T16:21:56Z,490644.2,NULL,Wechsel,ugeuzaji,d,NA,NA,NA,NA,sdf,1,2,NA,NA,NA,NA,NA,NA,NA,NA,NA,NA,NA,NA,NA,NA,NA,NA,NA,NA,NA
ec291,"""Falsch""-Screen",canvas.Screen,5_0_2_0_2_0_2,NA,NA,skipped,NA,490630.1,NA,NA,490627.5,490630.3,2025-01-15T16:21:56Z,490644.2,NULL,Wechsel,ugeuzaji,d,NA,NA,NA,NA,sdf,NA,2,NA,NA,NA,NA,NA,NA,NA,NA,NA,NA,NA,NA,NA,NA,NA,NA,NA,NA,NA
ec291,deep,flow.Sequence,5_0_2_0_2_0,NA,NA,completion,10966.8,479647.4,479644.1,479660.7,490627.5,490630.5,2025-01-15T16:21:56Z,490644.2,NULL,Wechsel,ugeuzaji,d,NA,NA,NA,NA,sdf,NA,2,NA,NA,NA,NA,NA,NA,NA,NA,NA,NA,NA,NA,NA,NA,NA,NA,NA,NA,NA
