observation,sender,sender_type,sender_id,response,response_action,ended_on,duration,time_run,time_render,time_show,time_end,time_commit,timestamp,time_switch,distractors,german,swahili,enc,distractor1,distractor2,distractor3,response_2,x,correct,x_2,url_vp,url_sess,meta_labjs_version,meta_location,meta_user_agent,meta_platform,meta_language,meta_locale,meta_time_zone,meta_timezone_offset,meta_screen_width,meta_screen_height,meta_scroll_width,meta_scroll_height,meta_window_inner_width,meta_window_inner_height,meta_device_pixel_ratio,meta_labjs_build_flavor,meta_labjs_build_commit
8e4dd,Introduction general,canvas.Screen,0,weiter,keypress(q),response,60590.099999904996,1108.7000000477,2631.7,2648,63238.099999904996,63244.700000048,2024-02-17T19:16:22Z,63244.3,NULL,NA,NA,NA,NA,NA,NA,NA,NA,NA,NA,140,1,20.2.4,https://neurocog.fernuni.ch/studies/vweber/aberisha/encoding_immediate/index.html?vp=140&sess=1,"Mozilla/5.0 (Windows NT 10.0; Win64; x64) AppleWebKit/537.36 (KHTML, like Gecko) Chrome/121.0.0.0 Safari/537.36",Win32,de-DE,de,Europe/Zurich,-60,1739,979,1740,763,1740,811,1.1041666269302,production,f5b4a49f956347addd546a832a3327688c2c0fef
8e4dd,Introduction practice,canvas.Screen,1_0,NA,keypress(Space),response,11855.100000095,63245.299999952,63238.6,63244.3,75099.400000095,75100.5,2024-02-17T19:16:33Z,75120.5,NULL,NA,NA,NA,NA,NA,NA,NA,NA,NA,NA,NA,NA,NA,NA,NA,NA,NA,NA,NA,NA,NA,NA,NA,NA,NA,NA,NA,NA,NA
8e4dd,deep,flow.Sequence,1_1_0_0,NA,NA,skipped,NA,75100.900000095,NA,NA,75099.400000095,75104.700000048,2024-02-17T19:16:33Z,75120.5,"c(""distractor1"", ""distractor2"", ""distractor3"")",Gegenwart,hadhara,s,katiba,jokofu,mikopo,NA,NA,NA,NA,NA,NA,NA,NA,NA,NA,NA,NA,NA,NA,NA,NA,NA,NA,NA,NA,NA,NA,NA
8e4dd,Shallow Question,html.Page,1_1_0_1_0,NA,NA,form submission,21327.099999905,75105.700000048,75104.4,75120.5,96447.599999905,96447.900000095,2024-02-17T19:16:55Z,96457.3,"c(""distractor1"", ""distractor2"", ""distractor3"")",Gegenwart,hadhara,s,katiba,jokofu,mikopo,hadhara,NA,NA,NA,NA,NA,NA,NA,NA,NA,NA,NA,NA,NA,NA,NA,NA,NA,NA,NA,NA,NA,NA
8e4dd,"""Richtig""-Screen",canvas.Screen,1_1_0_1_1,NA,NA,timeout,4996.9,96448.900000095,96441.222,96457.3,101438,101443.0999999,2024-02-17T19:17:00Z,101454.2,"c(""distractor1"", ""distractor2"", ""distractor3"")",Gegenwart,hadhara,s,katiba,jokofu,mikopo,NA,NA,1,NA,NA,NA,NA,NA,NA,NA,NA,NA,NA,NA,NA,NA,NA,NA,NA,NA,NA,NA,NA
8e4dd,"""Falsch""-Screen",canvas.Screen,1_1_0_1_2,NA,NA,skipped,NA,101444.5999999,NA,NA,101438,101444.70000005,2024-02-17T19:17:00Z,101454.2,"c(""distractor1"", ""distractor2"", ""distractor3"")",Gegenwart,hadhara,s,katiba,jokofu,mikopo,NA,NA,NA,NA,NA,NA,NA,NA,NA,NA,NA,NA,NA,NA,NA,NA,NA,NA,NA,NA,NA,NA,NA
8e4dd,shallow,flow.Sequence,1_1_0_1,NA,NA,completion,26317.5,75105.700000048,75104.4,75120.5,101438,101444.79999995,2024-02-17T19:17:00Z,101454.2,"c(""distractor1"", ""distractor2"", ""distractor3"")",Gegenwart,hadhara,s,katiba,jokofu,mikopo,NA,NA,NA,NA,NA,NA,NA,NA,NA,NA,NA,NA,NA,NA,NA,NA,NA,NA,NA,NA,NA,NA,NA
8e4dd,task,flow.Sequence,1_1_0,NA,NA,completion,26317.5,75100.799999952,75104.4,75120.5,101438,101444.79999995,2024-02-17T19:17:00Z,101454.2,"c(""distractor1"", ""distractor2"", ""distractor3"")",Gegenwart,hadhara,s,katiba,jokofu,mikopo,NA,NA,NA,NA,NA,NA,NA,NA,NA,NA,NA,NA,NA,NA,NA,NA,NA,NA,NA,NA,NA,NA,NA
8e4dd,deep,flow.Sequence,1_1_1_0,NA,NA,skipped,NA,101444.9000001,NA,NA,101438,101445,2024-02-17T19:17:00Z,101454.2,"c(""distractor1"", ""distractor2"", ""distractor3"")",Rückhalt,msaada,s,muhula,auwali,kiwimbe,NA,NA,NA,NA,NA,NA,NA,NA,NA,NA,NA,NA,NA,NA,NA,NA,NA,NA,NA,NA,NA,NA,NA
8e4dd,Shallow Question,html.Page,1_1_1_1_0,NA,NA,form submission,18362.899999905,101445.0999999,101438,101454.2,119817.0999999,119817.29999995,2024-02-17T19:17:18Z,119826.3,"c(""distractor1"", ""distractor2"", ""distractor3"")",Rückhalt,msaada,s,muhula,auwali,kiwimbe,muhula,NA,NA,NA,NA,NA,NA,NA,NA,NA,NA,NA,NA,NA,NA,NA,NA,NA,NA,NA,NA,NA,NA
8e4dd,"""Richtig""-Screen",canvas.Screen,1_1_1_1_1,NA,NA,skipped,NA,119820.79999995,NA,NA,119817.0999999,119821,2024-02-17T19:17:18Z,119826.3,"c(""distractor1"", ""distractor2"", ""distractor3"")",Rückhalt,msaada,s,muhula,auwali,kiwimbe,NA,NA,NA,NA,NA,NA,NA,NA,NA,NA,NA,NA,NA,NA,NA,NA,NA,NA,NA,NA,NA,NA,NA
8e4dd,"""Falsch""-Screen",canvas.Screen,1_1_1_1_2,NA,NA,timeout,4997.5,119821.5999999,119810.562,119826.3,124807.1,124808.0999999,2024-02-17T19:17:23Z,124823.8,"c(""distractor1"", ""distractor2"", ""distractor3"")",Rückhalt,msaada,s,muhula,auwali,kiwimbe,NA,NA,0,NA,NA,NA,NA,NA,NA,NA,NA,NA,NA,NA,NA,NA,NA,NA,NA,NA,NA,NA,NA
8e4dd,shallow,flow.Sequence,1_1_1_1,NA,NA,completion,23352.9,101445.0999999,101438,101454.2,124807.1,124808.70000005,2024-02-17T19:17:23Z,124823.8,"c(""distractor1"", ""distractor2"", ""distractor3"")",Rückhalt,msaada,s,muhula,auwali,kiwimbe,NA,NA,NA,NA,NA,NA,NA,NA,NA,NA,NA,NA,NA,NA,NA,NA,NA,NA,NA,NA,NA,NA,NA
8e4dd,task,flow.Sequence,1_1_1,NA,NA,completion,23352.9,101444.9000001,101438,101454.2,124807.1,124809,2024-02-17T19:17:23Z,124823.8,"c(""distractor1"", ""distractor2"", ""distractor3"")",Rückhalt,msaada,s,muhula,auwali,kiwimbe,NA,NA,NA,NA,NA,NA,NA,NA,NA,NA,NA,NA,NA,NA,NA,NA,NA,NA,NA,NA,NA,NA,NA
8e4dd,Deep Question,html.Page,1_1_2_0_0,NA,NA,form submission,11475.600000095,124809.29999995,124807.1,124823.8,136299.4000001,136299.70000005,2024-02-17T19:17:35Z,136317.5,"c(""distractor1"", ""distractor2"", ""distractor3"")",Qualität,mtindo,d,NA,NA,NA,"gfz,",NA,NA,NA,NA,NA,NA,NA,NA,NA,NA,NA,NA,NA,NA,NA,NA,NA,NA,NA,NA,NA,NA
8e4dd,"""Richtig""-Screen",canvas.Screen,1_1_2_0_1,NA,NA,skipped,NA,136303.0999999,NA,NA,136299.4000001,136303.20000005,2024-02-17T19:17:35Z,136317.5,"c(""distractor1"", ""distractor2"", ""distractor3"")",Qualität,mtindo,d,NA,NA,NA,NA,NA,NA,NA,NA,NA,NA,NA,NA,NA,NA,NA,NA,NA,NA,NA,NA,NA,NA,NA,NA,NA,NA
8e4dd,"""Falsch""-Screen",canvas.Screen,1_1_2_0_2,NA,NA,timeout,4996.1,136304.29999995,136300.65,136317.5,141296.6,141297.5999999,2024-02-17T19:17:40Z,141313.6,"c(""distractor1"", ""distractor2"", ""distractor3"")",Qualität,mtindo,d,NA,NA,NA,NA,NA,0,NA,NA,NA,NA,NA,NA,NA,NA,NA,NA,NA,NA,NA,NA,NA,NA,NA,NA,NA,NA
8e4dd,deep,flow.Sequence,1_1_2_0,NA,NA,completion,16472.8,124809.29999995,124807.1,124823.8,141296.6,141297.9000001,2024-02-17T19:17:40Z,141313.6,"c(""distractor1"", ""distractor2"", ""distractor3"")",Qualität,mtindo,d,NA,NA,NA,NA,NA,NA,NA,NA,NA,NA,NA,NA,NA,NA,NA,NA,NA,NA,NA,NA,NA,NA,NA,NA,NA,NA
8e4dd,shallow,flow.Sequence,1_1_2_1,NA,NA,skipped,NA,141298.0999999,NA,NA,141296.6,141298.29999995,2024-02-17T19:17:40Z,141313.6,"c(""distractor1"", ""distractor2"", ""distractor3"")",Qualität,mtindo,d,NA,NA,NA,NA,NA,NA,NA,NA,NA,NA,NA,NA,NA,NA,NA,NA,NA,NA,NA,NA,NA,NA,NA,NA,NA,NA
8e4dd,task,flow.Sequence,1_1_2,NA,NA,completion,16472.8,124809.20000005,124807.1,124823.8,141296.6,141298.5,2024-02-17T19:17:40Z,141313.6,"c(""distractor1"", ""distractor2"", ""distractor3"")",Qualität,mtindo,d,NA,NA,NA,NA,NA,NA,NA,NA,NA,NA,NA,NA,NA,NA,NA,NA,NA,NA,NA,NA,NA,NA,NA,NA,NA,NA
8e4dd,Deep Question,html.Page,1_1_3_0_0,NA,NA,form submission,6800.4999999046,141298.79999995,141296.6,141313.6,148114.0999999,148114.20000005,2024-02-17T19:17:46Z,148125.9,"c(""distractor1"", ""distractor2"", ""distractor3"")",Schatten,kivuli,d,NA,NA,NA,hjvj,NA,NA,NA,NA,NA,NA,NA,NA,NA,NA,NA,NA,NA,NA,NA,NA,NA,NA,NA,NA,NA,NA
8e4dd,"""Richtig""-Screen",canvas.Screen,1_1_3_0_1,NA,NA,skipped,NA,148117,NA,NA,148114.0999999,148117.20000005,2024-02-17T19:17:46Z,148125.9,"c(""distractor1"", ""distractor2"", ""distractor3"")",Schatten,kivuli,d,NA,NA,NA,NA,NA,NA,NA,NA,NA,NA,NA,NA,NA,NA,NA,NA,NA,NA,NA,NA,NA,NA,NA,NA,NA,NA
8e4dd,"""Falsch""-Screen",canvas.Screen,1_1_3_0_2,NA,NA,timeout,4996.9,148118.29999995,148116.624,148125.9,153106.5,153107.4000001,2024-02-17T19:17:51Z,153122.8,"c(""distractor1"", ""distractor2"", ""distractor3"")",Schatten,kivuli,d,NA,NA,NA,NA,NA,0,NA,NA,NA,NA,NA,NA,NA,NA,NA,NA,NA,NA,NA,NA,NA,NA,NA,NA,NA,NA
8e4dd,deep,flow.Sequence,1_1_3_0,NA,NA,completion,11792.9,141298.70000005,141296.6,141313.6,153106.5,153107.79999995,2024-02-17T19:17:51Z,153122.8,"c(""distractor1"", ""distractor2"", ""distractor3"")",Schatten,kivuli,d,NA,NA,NA,NA,NA,NA,NA,NA,NA,NA,NA,NA,NA,NA,NA,NA,NA,NA,NA,NA,NA,NA,NA,NA,NA,NA
8e4dd,shallow,flow.Sequence,1_1_3_1,NA,NA,skipped,NA,153107.9000001,NA,NA,153106.5,153108.0999999,2024-02-17T19:17:51Z,153122.8,"c(""distractor1"", ""distractor2"", ""distractor3"")",Schatten,kivuli,d,NA,NA,NA,NA,NA,NA,NA,NA,NA,NA,NA,NA,NA,NA,NA,NA,NA,NA,NA,NA,NA,NA,NA,NA,NA,NA
8e4dd,task,flow.Sequence,1_1_3,NA,NA,completion,11792.9,141298.70000005,141296.6,141313.6,153106.5,153108.29999995,2024-02-17T19:17:51Z,153122.8,"c(""distractor1"", ""distractor2"", ""distractor3"")",Schatten,kivuli,d,NA,NA,NA,NA,NA,NA,NA,NA,NA,NA,NA,NA,NA,NA,NA,NA,NA,NA,NA,NA,NA,NA,NA,NA,NA,NA
8e4dd,Deep Question,html.Page,1_1_4_0_0,NA,NA,form submission,5028.2,153108.5,153106.5,153122.8,158151,158151.20000005,2024-02-17T19:17:57Z,158153.354,"c(""distractor1"", ""distractor2"", ""distractor3"")",Gesundheit,salama,d,NA,NA,NA,gjgj,NA,NA,NA,NA,NA,NA,NA,NA,NA,NA,NA,NA,NA,NA,NA,NA,NA,NA,NA,NA,NA,NA
8e4dd,"""Richtig""-Screen",canvas.Screen,1_1_4_0_1,NA,NA,skipped,NA,158154.5999999,NA,NA,158151,158154.70000005,2024-02-17T19:17:57Z,158153.354,"c(""distractor1"", ""distractor2"", ""distractor3"")",Gesundheit,salama,d,NA,NA,NA,NA,NA,NA,NA,NA,NA,NA,NA,NA,NA,NA,NA,NA,NA,NA,NA,NA,NA,NA,NA,NA,NA,NA
8e4dd,"""Falsch""-Screen",canvas.Screen,1_1_4_0_2,NA,NA,timeout,4997.046,158155.4000001,158153.354,158153.354,163133.7,163134.79999995,2024-02-17T19:18:02Z,163150.4,"c(""distractor1"", ""distractor2"", ""distractor3"")",Gesundheit,salama,d,NA,NA,NA,NA,NA,0,NA,NA,NA,NA,NA,NA,NA,NA,NA,NA,NA,NA,NA,NA,NA,NA,NA,NA,NA,NA
8e4dd,deep,flow.Sequence,1_1_4_0,NA,NA,completion,10010.9,153108.5,153106.5,153122.8,163133.7,163135.20000005,2024-02-17T19:18:02Z,163150.4,"c(""distractor1"", ""distractor2"", ""distractor3"")",Gesundheit,salama,d,NA,NA,NA,NA,NA,NA,NA,NA,NA,NA,NA,NA,NA,NA,NA,NA,NA,NA,NA,NA,NA,NA,NA,NA,NA,NA
8e4dd,shallow,flow.Sequence,1_1_4_1,NA,NA,skipped,NA,163135.4000001,NA,NA,163133.7,163135.70000005,2024-02-17T19:18:02Z,163150.4,"c(""distractor1"", ""distractor2"", ""distractor3"")",Gesundheit,salama,d,NA,NA,NA,NA,NA,NA,NA,NA,NA,NA,NA,NA,NA,NA,NA,NA,NA,NA,NA,NA,NA,NA,NA,NA,NA,NA
8e4dd,task,flow.Sequence,1_1_4,NA,NA,completion,10010.9,153108.5,153106.5,153122.8,163133.7,163136,2024-02-17T19:18:02Z,163150.4,"c(""distractor1"", ""distractor2"", ""distractor3"")",Gesundheit,salama,d,NA,NA,NA,NA,NA,NA,NA,NA,NA,NA,NA,NA,NA,NA,NA,NA,NA,NA,NA,NA,NA,NA,NA,NA,NA,NA
8e4dd,deep,flow.Sequence,1_1_5_0,NA,NA,skipped,NA,163136.0999999,NA,NA,163133.7,163136.20000005,2024-02-17T19:18:02Z,163150.4,"c(""distractor1"", ""distractor2"", ""distractor3"")",Kritik,lawama,s,dereva,nafasi,mawazo,NA,NA,NA,NA,NA,NA,NA,NA,NA,NA,NA,NA,NA,NA,NA,NA,NA,NA,NA,NA,NA,NA,NA
8e4dd,Shallow Question,html.Page,1_1_5_1_0,NA,NA,form submission,12353.699999905,163136.5,163133.7,163150.4,175504.0999999,175504.29999995,2024-02-17T19:18:14Z,175509,"c(""distractor1"", ""distractor2"", ""distractor3"")",Kritik,lawama,s,dereva,nafasi,mawazo,mawazo,NA,NA,NA,NA,NA,NA,NA,NA,NA,NA,NA,NA,NA,NA,NA,NA,NA,NA,NA,NA,NA,NA
8e4dd,"""Richtig""-Screen",canvas.Screen,1_1_5_1_1,NA,NA,skipped,NA,175507.29999995,NA,NA,175504.0999999,175507.4000001,2024-02-17T19:18:14Z,175509,"c(""distractor1"", ""distractor2"", ""distractor3"")",Kritik,lawama,s,dereva,nafasi,mawazo,NA,NA,NA,NA,NA,NA,NA,NA,NA,NA,NA,NA,NA,NA,NA,NA,NA,NA,NA,NA,NA,NA,NA
8e4dd,"""Falsch""-Screen",canvas.Screen,1_1_5_1_2,NA,NA,timeout,4997.3,175508,175493.056,175509,180489.3,180490.4000001,2024-02-17T19:18:19Z,180506.3,"c(""distractor1"", ""distractor2"", ""distractor3"")",Kritik,lawama,s,dereva,nafasi,mawazo,NA,NA,0,NA,NA,NA,NA,NA,NA,NA,NA,NA,NA,NA,NA,NA,NA,NA,NA,NA,NA,NA,NA
8e4dd,shallow,flow.Sequence,1_1_5_1,NA,NA,completion,17338.9,163136.4000001,163133.7,163150.4,180489.3,180490.70000005,2024-02-17T19:18:19Z,180506.3,"c(""distractor1"", ""distractor2"", ""distractor3"")",Kritik,lawama,s,dereva,nafasi,mawazo,NA,NA,NA,NA,NA,NA,NA,NA,NA,NA,NA,NA,NA,NA,NA,NA,NA,NA,NA,NA,NA,NA,NA
8e4dd,task,flow.Sequence,1_1_5,NA,NA,completion,17338.9,163136,163133.7,163150.4,180489.3,180491,2024-02-17T19:18:19Z,180506.3,"c(""distractor1"", ""distractor2"", ""distractor3"")",Kritik,lawama,s,dereva,nafasi,mawazo,NA,NA,NA,NA,NA,NA,NA,NA,NA,NA,NA,NA,NA,NA,NA,NA,NA,NA,NA,NA,NA,NA,NA
8e4dd,block,flow.Loop,1_1,NA,NA,completion,105368.8,75100.799999952,75104.4,75120.5,180489.3,180491.29999995,2024-02-17T19:18:19Z,180506.3,"c(""distractor1"", ""distractor2"", ""distractor3"")",NA,NA,NA,NA,NA,NA,NA,NA,NA,NA,NA,NA,NA,NA,NA,NA,NA,NA,NA,NA,NA,NA,NA,NA,NA,NA,NA,NA,NA
8e4dd,Practice,flow.Sequence,1,NA,NA,completion,117245,63245.299999952,63238.6,63244.3,180489.3,180491.5,2024-02-17T19:18:19Z,180506.3,NULL,NA,NA,NA,NA,NA,NA,NA,NA,NA,NA,NA,NA,NA,NA,NA,NA,NA,NA,NA,NA,NA,NA,NA,NA,NA,NA,NA,NA,NA
8e4dd,Experiment start,canvas.Screen,2,weiter,keypress(q),response,31190.499999952,180491.70000005,180489.3,180506.3,211696.79999995,211698,2024-02-17T19:18:50Z,211754.93,NULL,NA,NA,NA,NA,NA,NA,NA,NA,NA,NA,NA,NA,NA,NA,NA,NA,NA,NA,NA,NA,NA,NA,NA,NA,NA,NA,NA,NA,NA
8e4dd,Deep Question,html.Page,3_0_0_0_0_0_0,NA,NA,form submission,15746.169999905,211767.70000005,211754.93,211754.93,227501.0999999,227501.4000001,2024-02-17T19:19:06Z,227510.7,NULL,Tester,wanaojaribu,d,NA,NA,NA,nbjju,NA,NA,0,NA,NA,NA,NA,NA,NA,NA,NA,NA,NA,NA,NA,NA,NA,NA,NA,NA,NA,NA
8e4dd,"""Richtig""-Screen",canvas.Screen,3_0_0_0_0_0_1,NA,NA,skipped,NA,227503.29999995,NA,NA,227501.0999999,227503.4000001,2024-02-17T19:19:06Z,227510.7,NULL,Tester,wanaojaribu,d,NA,NA,NA,NA,sdf,NA,0,NA,NA,NA,NA,NA,NA,NA,NA,NA,NA,NA,NA,NA,NA,NA,NA,NA,NA,NA
8e4dd,"""Falsch""-Screen",canvas.Screen,3_0_0_0_0_0_2,NA,NA,timeout,4996.8,227503.9000001,227497.426,227510.7,232491.1,232492.5,2024-02-17T19:19:11Z,232507.5,NULL,Tester,wanaojaribu,d,NA,NA,NA,NA,sdf,0,0,NA,NA,NA,NA,NA,NA,NA,NA,NA,NA,NA,NA,NA,NA,NA,NA,NA,NA,NA
8e4dd,deep,flow.Sequence,3_0_0_0_0_0,NA,NA,completion,20736.17,211767.5999999,211754.93,211754.93,232491.1,232492.79999995,2024-02-17T19:19:11Z,232507.5,NULL,Tester,wanaojaribu,d,NA,NA,NA,NA,sdf,NA,0,NA,NA,NA,NA,NA,NA,NA,NA,NA,NA,NA,NA,NA,NA,NA,NA,NA,NA,NA
8e4dd,shallow,flow.Sequence,3_0_0_0_0_1,NA,NA,skipped,NA,232492.9000001,NA,NA,232491.1,232493.0999999,2024-02-17T19:19:11Z,232507.5,NULL,Tester,wanaojaribu,d,NA,NA,NA,NA,sdf,NA,0,NA,NA,NA,NA,NA,NA,NA,NA,NA,NA,NA,NA,NA,NA,NA,NA,NA,NA,NA
8e4dd,task,flow.Sequence,3_0_0_0_0,NA,NA,completion,20736.17,211767.5999999,211754.93,211754.93,232491.1,232493.29999995,2024-02-17T19:19:11Z,232507.5,NULL,Tester,wanaojaribu,d,NA,NA,NA,NA,sdf,NA,0,NA,NA,NA,NA,NA,NA,NA,NA,NA,NA,NA,NA,NA,NA,NA,NA,NA,NA,NA
8e4dd,Deep Question,html.Page,3_0_0_0_1_0_0,NA,NA,form submission,15961.599999905,232493.5,232491.1,232507.5,248469.0999999,248469.4000001,2024-02-17T19:19:27Z,248481.2,NULL,Vorsorge,tahadhari,d,NA,NA,NA,njju,NA,NA,0,NA,NA,NA,NA,NA,NA,NA,NA,NA,NA,NA,NA,NA,NA,NA,NA,NA,NA,NA
8e4dd,"""Richtig""-Screen",canvas.Screen,3_0_0_0_1_0_1,NA,NA,skipped,NA,248472.4000001,NA,NA,248469.0999999,248472.5,2024-02-17T19:19:27Z,248481.2,NULL,Vorsorge,tahadhari,d,NA,NA,NA,NA,sdf,NA,0,NA,NA,NA,NA,NA,NA,NA,NA,NA,NA,NA,NA,NA,NA,NA,NA,NA,NA,NA
8e4dd,"""Falsch""-Screen",canvas.Screen,3_0_0_0_1_0_2,NA,NA,timeout,4997.1,248473.29999995,248465.394,248481.2,253461.3,253462,2024-02-17T19:19:32Z,253478.3,NULL,Vorsorge,tahadhari,d,NA,NA,NA,NA,sdf,0,0,NA,NA,NA,NA,NA,NA,NA,NA,NA,NA,NA,NA,NA,NA,NA,NA,NA,NA,NA
8e4dd,deep,flow.Sequence,3_0_0_0_1_0,NA,NA,completion,20953.8,232493.5,232491.1,232507.5,253461.3,253462.0999999,2024-02-17T19:19:32Z,253478.3,NULL,Vorsorge,tahadhari,d,NA,NA,NA,NA,sdf,NA,0,NA,NA,NA,NA,NA,NA,NA,NA,NA,NA,NA,NA,NA,NA,NA,NA,NA,NA,NA
8e4dd,shallow,flow.Sequence,3_0_0_0_1_1,NA,NA,skipped,NA,253462.20000005,NA,NA,253461.3,253462.29999995,2024-02-17T19:19:32Z,253478.3,NULL,Vorsorge,tahadhari,d,NA,NA,NA,NA,sdf,NA,0,NA,NA,NA,NA,NA,NA,NA,NA,NA,NA,NA,NA,NA,NA,NA,NA,NA,NA,NA
8e4dd,task,flow.Sequence,3_0_0_0_1,NA,NA,completion,20953.8,232493.4000001,232491.1,232507.5,253461.3,253462.4000001,2024-02-17T19:19:32Z,253478.3,NULL,Vorsorge,tahadhari,d,NA,NA,NA,NA,sdf,NA,0,NA,NA,NA,NA,NA,NA,NA,NA,NA,NA,NA,NA,NA,NA,NA,NA,NA,NA,NA
8e4dd,deep,flow.Sequence,3_0_0_0_2_0,NA,NA,skipped,NA,253462.5,NA,NA,253461.3,253462.5,2024-02-17T19:19:32Z,253478.3,NULL,Symbol,kielezo,s,kinyume,nderemo,utayari,NA,sdf,NA,0,NA,NA,NA,NA,NA,NA,NA,NA,NA,NA,NA,NA,NA,NA,NA,NA,NA,NA,NA
8e4dd,Shallow Question,html.Page,3_0_0_0_2_1_0,NA,NA,form submission,9296.4000000477,253462.5999999,253461.3,253478.3,262774.70000005,262774.9000001,2024-02-17T19:19:41Z,262789,NULL,Symbol,kielezo,s,kinyume,nderemo,utayari,utayari,NA,NA,0,NA,NA,NA,NA,NA,NA,NA,NA,NA,NA,NA,NA,NA,NA,NA,NA,NA,NA,NA
8e4dd,"""Richtig""-Screen",canvas.Screen,3_0_0_0_2_1_1,NA,NA,skipped,NA,262778,NA,NA,262774.70000005,262778.29999995,2024-02-17T19:19:41Z,262789,NULL,Symbol,kielezo,s,kinyume,nderemo,utayari,NA,sdf,NA,0,NA,NA,NA,NA,NA,NA,NA,NA,NA,NA,NA,NA,NA,NA,NA,NA,NA,NA,NA
8e4dd,"""Falsch""-Screen",canvas.Screen,3_0_0_0_2_1_2,NA,NA,timeout,4997.3,262778.9000001,262772.96,262789,267769.3,267770.5,2024-02-17T19:19:46Z,267786.3,NULL,Symbol,kielezo,s,kinyume,nderemo,utayari,NA,sdf,0,0,NA,NA,NA,NA,NA,NA,NA,NA,NA,NA,NA,NA,NA,NA,NA,NA,NA,NA,NA
8e4dd,shallow,flow.Sequence,3_0_0_0_2_1,NA,NA,completion,14291,253462.5,253461.3,253478.3,267769.3,267771,2024-02-17T19:19:46Z,267786.3,NULL,Symbol,kielezo,s,kinyume,nderemo,utayari,NA,sdf,NA,0,NA,NA,NA,NA,NA,NA,NA,NA,NA,NA,NA,NA,NA,NA,NA,NA,NA,NA,NA
8e4dd,task,flow.Sequence,3_0_0_0_2,NA,NA,completion,14291,253462.4000001,253461.3,253478.3,267769.3,267771.29999995,2024-02-17T19:19:46Z,267786.3,NULL,Symbol,kielezo,s,kinyume,nderemo,utayari,NA,sdf,NA,0,NA,NA,NA,NA,NA,NA,NA,NA,NA,NA,NA,NA,NA,NA,NA,NA,NA,NA,NA
8e4dd,deep,flow.Sequence,3_0_0_0_3_0,NA,NA,skipped,NA,267771.5,NA,NA,267769.3,267771.70000005,2024-02-17T19:19:46Z,267786.3,NULL,Fenster,dirisha,s,walakini,tasawari,maarifa,NA,sdf,NA,0,NA,NA,NA,NA,NA,NA,NA,NA,NA,NA,NA,NA,NA,NA,NA,NA,NA,NA,NA
8e4dd,Shallow Question,html.Page,3_0_0_0_3_1_0,NA,NA,form submission,6603.6000000954,267771.9000001,267769.3,267786.3,274389.9000001,274390.0999999,2024-02-17T19:19:53Z,274398.7,NULL,Fenster,dirisha,s,walakini,tasawari,maarifa,tasawari,NA,NA,0,NA,NA,NA,NA,NA,NA,NA,NA,NA,NA,NA,NA,NA,NA,NA,NA,NA,NA,NA
8e4dd,"""Richtig""-Screen",canvas.Screen,3_0_0_0_3_1_1,NA,NA,skipped,NA,274392,NA,NA,274389.9000001,274392.0999999,2024-02-17T19:19:53Z,274398.7,NULL,Fenster,dirisha,s,walakini,tasawari,maarifa,NA,sdf,NA,0,NA,NA,NA,NA,NA,NA,NA,NA,NA,NA,NA,NA,NA,NA,NA,NA,NA,NA,NA
8e4dd,"""Falsch""-Screen",canvas.Screen,3_0_0_0_3_1_2,NA,NA,timeout,4997.1,274392.70000005,274382.678,274398.7,279378.8,279380.0999999,2024-02-17T19:19:58Z,279395.8,NULL,Fenster,dirisha,s,walakini,tasawari,maarifa,NA,sdf,0,0,NA,NA,NA,NA,NA,NA,NA,NA,NA,NA,NA,NA,NA,NA,NA,NA,NA,NA,NA
8e4dd,shallow,flow.Sequence,3_0_0_0_3_1,NA,NA,completion,11592.5,267771.79999995,267769.3,267786.3,279378.8,279380.4000001,2024-02-17T19:19:58Z,279395.8,NULL,Fenster,dirisha,s,walakini,tasawari,maarifa,NA,sdf,NA,0,NA,NA,NA,NA,NA,NA,NA,NA,NA,NA,NA,NA,NA,NA,NA,NA,NA,NA,NA
8e4dd,task,flow.Sequence,3_0_0_0_3,NA,NA,completion,11592.5,267771.4000001,267769.3,267786.3,279378.8,279380.70000005,2024-02-17T19:19:58Z,279395.8,NULL,Fenster,dirisha,s,walakini,tasawari,maarifa,NA,sdf,NA,0,NA,NA,NA,NA,NA,NA,NA,NA,NA,NA,NA,NA,NA,NA,NA,NA,NA,NA,NA
8e4dd,deep,flow.Sequence,3_0_0_0_4_0,NA,NA,skipped,NA,279380.9000001,NA,NA,279378.8,279381,2024-02-17T19:19:58Z,279395.8,NULL,Spionage,upelelezi,s,maslahi,utokazo,magangao,NA,sdf,NA,0,NA,NA,NA,NA,NA,NA,NA,NA,NA,NA,NA,NA,NA,NA,NA,NA,NA,NA,NA
8e4dd,Shallow Question,html.Page,3_0_0_0_4_1_0,NA,NA,form submission,7570.9000000477,279381.20000005,279378.8,279395.8,286966.70000005,286967,2024-02-17T19:20:05Z,286974.4,NULL,Spionage,upelelezi,s,maslahi,utokazo,magangao,upelelezi,NA,NA,0,NA,NA,NA,NA,NA,NA,NA,NA,NA,NA,NA,NA,NA,NA,NA,NA,NA,NA,NA
8e4dd,"""Richtig""-Screen",canvas.Screen,3_0_0_0_4_1_1,NA,NA,timeout,4996.8,286970.29999995,286957.988,286974.4,291954.6,291955.9000001,2024-02-17T19:20:10Z,291971.2,NULL,Spionage,upelelezi,s,maslahi,utokazo,magangao,NA,sdf,1,0,NA,NA,NA,NA,NA,NA,NA,NA,NA,NA,NA,NA,NA,NA,NA,NA,NA,NA,NA
8e4dd,"""Falsch""-Screen",canvas.Screen,3_0_0_0_4_1_2,NA,NA,skipped,NA,291961.5,NA,NA,291954.6,291961.79999995,2024-02-17T19:20:10Z,291971.2,NULL,Spionage,upelelezi,s,maslahi,utokazo,magangao,NA,sdf,NA,0,NA,NA,NA,NA,NA,NA,NA,NA,NA,NA,NA,NA,NA,NA,NA,NA,NA,NA,NA
8e4dd,shallow,flow.Sequence,3_0_0_0_4_1,NA,NA,completion,12558.8,279381.20000005,279378.8,279395.8,291954.6,291962.0999999,2024-02-17T19:20:10Z,291971.2,NULL,Spionage,upelelezi,s,maslahi,utokazo,magangao,NA,sdf,NA,0,NA,NA,NA,NA,NA,NA,NA,NA,NA,NA,NA,NA,NA,NA,NA,NA,NA,NA,NA
8e4dd,task,flow.Sequence,3_0_0_0_4,NA,NA,completion,12558.8,279380.9000001,279378.8,279395.8,291954.6,291962.4000001,2024-02-17T19:20:10Z,291971.2,NULL,Spionage,upelelezi,s,maslahi,utokazo,magangao,NA,sdf,NA,0,NA,NA,NA,NA,NA,NA,NA,NA,NA,NA,NA,NA,NA,NA,NA,NA,NA,NA,NA
8e4dd,deep,flow.Sequence,3_0_0_0_5_0,NA,NA,skipped,NA,291962.5999999,NA,NA,291954.6,291962.79999995,2024-02-17T19:20:10Z,291971.2,NULL,Zuwachs,nyongeza,s,matilaba,udhibiti,hudhurio,NA,sdf,NA,0,NA,NA,NA,NA,NA,NA,NA,NA,NA,NA,NA,NA,NA,NA,NA,NA,NA,NA,NA
8e4dd,Shallow Question,html.Page,3_0_0_0_5_1_0,NA,NA,form submission,7983.8999999046,291963,291954.6,291971.2,299955.0999999,299955.29999995,2024-02-17T19:20:18Z,299966.4,NULL,Zuwachs,nyongeza,s,matilaba,udhibiti,hudhurio,matilaba,NA,NA,0,NA,NA,NA,NA,NA,NA,NA,NA,NA,NA,NA,NA,NA,NA,NA,NA,NA,NA,NA
8e4dd,"""Richtig""-Screen",canvas.Screen,3_0_0_0_5_1_1,NA,NA,skipped,NA,299958.4000001,NA,NA,299955.0999999,299958.5,2024-02-17T19:20:18Z,299966.4,NULL,Zuwachs,nyongeza,s,matilaba,udhibiti,hudhurio,NA,sdf,NA,0,NA,NA,NA,NA,NA,NA,NA,NA,NA,NA,NA,NA,NA,NA,NA,NA,NA,NA,NA
8e4dd,"""Falsch""-Screen",canvas.Screen,3_0_0_0_5_1_2,NA,NA,timeout,4996.8,299959.20000005,299950.284,299966.4,304947.2,304949.70000005,2024-02-17T19:20:23Z,304963.2,NULL,Zuwachs,nyongeza,s,matilaba,udhibiti,hudhurio,NA,sdf,0,0,NA,NA,NA,NA,NA,NA,NA,NA,NA,NA,NA,NA,NA,NA,NA,NA,NA,NA,NA
8e4dd,shallow,flow.Sequence,3_0_0_0_5_1,NA,NA,completion,12976,291963,291954.6,291971.2,304947.2,304950,2024-02-17T19:20:23Z,304963.2,NULL,Zuwachs,nyongeza,s,matilaba,udhibiti,hudhurio,NA,sdf,NA,0,NA,NA,NA,NA,NA,NA,NA,NA,NA,NA,NA,NA,NA,NA,NA,NA,NA,NA,NA
8e4dd,task,flow.Sequence,3_0_0_0_5,NA,NA,completion,12976,291962.5,291954.6,291971.2,304947.2,304950.29999995,2024-02-17T19:20:23Z,304963.2,NULL,Zuwachs,nyongeza,s,matilaba,udhibiti,hudhurio,NA,sdf,NA,0,NA,NA,NA,NA,NA,NA,NA,NA,NA,NA,NA,NA,NA,NA,NA,NA,NA,NA,NA
8e4dd,Deep Question,html.Page,3_0_0_0_6_0_0,NA,NA,form submission,5953.5000000477,304950.4000001,304947.2,304963.2,310916.70000005,310916.79999995,2024-02-17T19:20:29Z,310926.2,NULL,Schüler,mwanafunzi,d,NA,NA,NA,khgr,NA,NA,0,NA,NA,NA,NA,NA,NA,NA,NA,NA,NA,NA,NA,NA,NA,NA,NA,NA,NA,NA
8e4dd,"""Richtig""-Screen",canvas.Screen,3_0_0_0_6_0_1,NA,NA,skipped,NA,310918.29999995,NA,NA,310916.70000005,310918.4000001,2024-02-17T19:20:29Z,310926.2,NULL,Schüler,mwanafunzi,d,NA,NA,NA,NA,sdf,NA,0,NA,NA,NA,NA,NA,NA,NA,NA,NA,NA,NA,NA,NA,NA,NA,NA,NA,NA,NA
8e4dd,"""Falsch""-Screen",canvas.Screen,3_0_0_0_6_0_2,NA,NA,timeout,4997.2,310918.79999995,310910.3,310926.2,315906.6,315907.20000005,2024-02-17T19:20:34Z,315923.4,NULL,Schüler,mwanafunzi,d,NA,NA,NA,NA,sdf,0,0,NA,NA,NA,NA,NA,NA,NA,NA,NA,NA,NA,NA,NA,NA,NA,NA,NA,NA,NA
8e4dd,deep,flow.Sequence,3_0_0_0_6_0,NA,NA,completion,10943.4,304950.4000001,304947.2,304963.2,315906.6,315907.4000001,2024-02-17T19:20:34Z,315923.4,NULL,Schüler,mwanafunzi,d,NA,NA,NA,NA,sdf,NA,0,NA,NA,NA,NA,NA,NA,NA,NA,NA,NA,NA,NA,NA,NA,NA,NA,NA,NA,NA
8e4dd,shallow,flow.Sequence,3_0_0_0_6_1,NA,NA,skipped,NA,315907.4000001,NA,NA,315906.6,315907.5,2024-02-17T19:20:34Z,315923.4,NULL,Schüler,mwanafunzi,d,NA,NA,NA,NA,sdf,NA,0,NA,NA,NA,NA,NA,NA,NA,NA,NA,NA,NA,NA,NA,NA,NA,NA,NA,NA,NA
8e4dd,task,flow.Sequence,3_0_0_0_6,NA,NA,completion,10943.4,304950.4000001,304947.2,304963.2,315906.6,315907.70000005,2024-02-17T19:20:34Z,315923.4,NULL,Schüler,mwanafunzi,d,NA,NA,NA,NA,sdf,NA,0,NA,NA,NA,NA,NA,NA,NA,NA,NA,NA,NA,NA,NA,NA,NA,NA,NA,NA,NA
8e4dd,Deep Question,html.Page,3_0_0_0_7_0_0,NA,NA,form submission,8086.6,315907.70000005,315906.6,315923.4,324010,324010.29999995,2024-02-17T19:20:42Z,324034.7,NULL,Konkurrent,mshindani,d,NA,NA,NA,dvv,NA,NA,0,NA,NA,NA,NA,NA,NA,NA,NA,NA,NA,NA,NA,NA,NA,NA,NA,NA,NA,NA
8e4dd,"""Richtig""-Screen",canvas.Screen,3_0_0_0_7_0_1,NA,NA,skipped,NA,324013.5999999,NA,NA,324010,324013.79999995,2024-02-17T19:20:42Z,324034.7,NULL,Konkurrent,mshindani,d,NA,NA,NA,NA,sdf,NA,0,NA,NA,NA,NA,NA,NA,NA,NA,NA,NA,NA,NA,NA,NA,NA,NA,NA,NA,NA
8e4dd,"""Falsch""-Screen",canvas.Screen,3_0_0_0_7_0_2,NA,NA,timeout,4997.6,324015.0999999,324018.3,324034.7,329015.6,329016.29999995,2024-02-17T19:20:47Z,329032.3,NULL,Konkurrent,mshindani,d,NA,NA,NA,NA,sdf,0,0,NA,NA,NA,NA,NA,NA,NA,NA,NA,NA,NA,NA,NA,NA,NA,NA,NA,NA,NA
8e4dd,deep,flow.Sequence,3_0_0_0_7_0,NA,NA,completion,13092.2,315907.70000005,315906.6,315923.4,329015.6,329016.5,2024-02-17T19:20:47Z,329032.3,NULL,Konkurrent,mshindani,d,NA,NA,NA,NA,sdf,NA,0,NA,NA,NA,NA,NA,NA,NA,NA,NA,NA,NA,NA,NA,NA,NA,NA,NA,NA,NA
8e4dd,shallow,flow.Sequence,3_0_0_0_7_1,NA,NA,skipped,NA,329016.5999999,NA,NA,329015.6,329016.70000005,2024-02-17T19:20:47Z,329032.3,NULL,Konkurrent,mshindani,d,NA,NA,NA,NA,sdf,NA,0,NA,NA,NA,NA,NA,NA,NA,NA,NA,NA,NA,NA,NA,NA,NA,NA,NA,NA,NA
8e4dd,task,flow.Sequence,3_0_0_0_7,NA,NA,completion,13092.2,315907.70000005,315906.6,315923.4,329015.6,329016.79999995,2024-02-17T19:20:47Z,329032.3,NULL,Konkurrent,mshindani,d,NA,NA,NA,NA,sdf,NA,0,NA,NA,NA,NA,NA,NA,NA,NA,NA,NA,NA,NA,NA,NA,NA,NA,NA,NA,NA
8e4dd,block,flow.Loop,3_0_0_0,NA,NA,completion,117260.67,211767.5999999,211754.93,211754.93,329015.6,329017,2024-02-17T19:20:47Z,329032.3,NULL,NA,NA,NA,NA,NA,NA,NA,sdf,NA,0,NA,NA,NA,NA,NA,NA,NA,NA,NA,NA,NA,NA,NA,NA,NA,NA,NA,NA,NA
8e4dd,weiter,canvas.Screen,3_0_0_1,sdf,keypress(Space),response,2634.2,329017.0999999,329015.6,329032.3,331666.5,331669.29999995,2024-02-17T19:20:50Z,331681.32,NULL,NA,NA,NA,NA,NA,NA,NA,sdf,NA,0,NA,NA,NA,NA,NA,NA,NA,NA,NA,NA,NA,NA,NA,NA,NA,NA,NA,NA,NA
8e4dd,check continue,flow.Sequence,3_0_0,NA,NA,completion,119911.57,211767.5999999,211754.93,211754.93,331666.5,331669.79999995,2024-02-17T19:20:50Z,331681.32,NULL,NA,NA,NA,NA,NA,NA,NA,sdf,NA,0,NA,NA,NA,NA,NA,NA,NA,NA,NA,NA,NA,NA,NA,NA,NA,NA,NA,NA,NA
8e4dd,deep,flow.Sequence,3_0_1_0_0_0,NA,NA,skipped,NA,331693.29999995,NA,NA,331666.5,331693.29999995,2024-02-17T19:20:50Z,331681.32,NULL,Spionage,upelelezi,s,maslahi,utokazo,magangao,NA,sdfdsf,NA,1,NA,NA,NA,NA,NA,NA,NA,NA,NA,NA,NA,NA,NA,NA,NA,NA,NA,NA,NA
8e4dd,Shallow Question,html.Page,3_0_1_0_0_1_0,NA,NA,form submission,10979.580000095,331693.4000001,331681.32,331681.32,342660.9000001,342661.0999999,2024-02-17T19:21:01Z,342673.8,NULL,Spionage,upelelezi,s,maslahi,utokazo,magangao,utokazo,NA,NA,1,NA,NA,NA,NA,NA,NA,NA,NA,NA,NA,NA,NA,NA,NA,NA,NA,NA,NA,NA
8e4dd,"""Richtig""-Screen",canvas.Screen,3_0_1_0_0_1_1,NA,NA,skipped,NA,342664.5,NA,NA,342660.9000001,342664.5999999,2024-02-17T19:21:01Z,342673.8,NULL,Spionage,upelelezi,s,maslahi,utokazo,magangao,NA,sdfdsf,NA,1,NA,NA,NA,NA,NA,NA,NA,NA,NA,NA,NA,NA,NA,NA,NA,NA,NA,NA,NA
8e4dd,"""Falsch""-Screen",canvas.Screen,3_0_1_0_0_1_2,NA,NA,timeout,4996.6,342665.0999999,342657.5,342673.8,347653.7,347654.29999995,2024-02-17T19:21:06Z,347670.4,NULL,Spionage,upelelezi,s,maslahi,utokazo,magangao,NA,sdfdsf,0,1,NA,NA,NA,NA,NA,NA,NA,NA,NA,NA,NA,NA,NA,NA,NA,NA,NA,NA,NA
8e4dd,shallow,flow.Sequence,3_0_1_0_0_1,NA,NA,completion,15972.38,331693.4000001,331681.32,331681.32,347653.7,347654.4000001,2024-02-17T19:21:06Z,347670.4,NULL,Spionage,upelelezi,s,maslahi,utokazo,magangao,NA,sdfdsf,NA,1,NA,NA,NA,NA,NA,NA,NA,NA,NA,NA,NA,NA,NA,NA,NA,NA,NA,NA,NA
8e4dd,task,flow.Sequence,3_0_1_0_0,NA,NA,completion,15972.38,331693.29999995,331681.32,331681.32,347653.7,347654.5999999,2024-02-17T19:21:06Z,347670.4,NULL,Spionage,upelelezi,s,maslahi,utokazo,magangao,NA,sdfdsf,NA,1,NA,NA,NA,NA,NA,NA,NA,NA,NA,NA,NA,NA,NA,NA,NA,NA,NA,NA,NA
8e4dd,Deep Question,html.Page,3_0_1_0_1_0_0,NA,NA,form submission,16602.500000095,347654.5999999,347653.7,347670.4,364272.9000001,364273.0999999,2024-02-17T19:21:23Z,364277.456,NULL,Vorsorge,tahadhari,d,NA,NA,NA,ddvbh,NA,NA,1,NA,NA,NA,NA,NA,NA,NA,NA,NA,NA,NA,NA,NA,NA,NA,NA,NA,NA,NA
8e4dd,"""Richtig""-Screen",canvas.Screen,3_0_1_0_1_0_1,NA,NA,skipped,NA,364275.9000001,NA,NA,364272.9000001,364276,2024-02-17T19:21:23Z,364277.456,NULL,Vorsorge,tahadhari,d,NA,NA,NA,NA,sdfdsf,NA,1,NA,NA,NA,NA,NA,NA,NA,NA,NA,NA,NA,NA,NA,NA,NA,NA,NA,NA,NA
8e4dd,"""Falsch""-Screen",canvas.Screen,3_0_1_0_1_0_2,NA,NA,timeout,4996.744,364276.9000001,364277.456,364277.456,369257.6,369258.0999999,2024-02-17T19:21:28Z,369274.2,NULL,Vorsorge,tahadhari,d,NA,NA,NA,NA,sdfdsf,0,1,NA,NA,NA,NA,NA,NA,NA,NA,NA,NA,NA,NA,NA,NA,NA,NA,NA,NA,NA
8e4dd,deep,flow.Sequence,3_0_1_0_1_0,NA,NA,completion,21587.2,347654.5999999,347653.7,347670.4,369257.6,369258.29999995,2024-02-17T19:21:28Z,369274.2,NULL,Vorsorge,tahadhari,d,NA,NA,NA,NA,sdfdsf,NA,1,NA,NA,NA,NA,NA,NA,NA,NA,NA,NA,NA,NA,NA,NA,NA,NA,NA,NA,NA
8e4dd,shallow,flow.Sequence,3_0_1_0_1_1,NA,NA,skipped,NA,369258.29999995,NA,NA,369257.6,369258.4000001,2024-02-17T19:21:28Z,369274.2,NULL,Vorsorge,tahadhari,d,NA,NA,NA,NA,sdfdsf,NA,1,NA,NA,NA,NA,NA,NA,NA,NA,NA,NA,NA,NA,NA,NA,NA,NA,NA,NA,NA
8e4dd,task,flow.Sequence,3_0_1_0_1,NA,NA,completion,21587.2,347654.5999999,347653.7,347670.4,369257.6,369258.4000001,2024-02-17T19:21:28Z,369274.2,NULL,Vorsorge,tahadhari,d,NA,NA,NA,NA,sdfdsf,NA,1,NA,NA,NA,NA,NA,NA,NA,NA,NA,NA,NA,NA,NA,NA,NA,NA,NA,NA,NA
8e4dd,Deep Question,html.Page,3_0_1_0_2_0_0,NA,NA,form submission,8188.3999999046,369258.5,369257.6,369274.2,377462.5999999,377462.9000001,2024-02-17T19:21:36Z,377485.9,NULL,Schüler,mwanafunzi,d,NA,NA,NA,ffff,NA,NA,1,NA,NA,NA,NA,NA,NA,NA,NA,NA,NA,NA,NA,NA,NA,NA,NA,NA,NA,NA
8e4dd,"""Richtig""-Screen",canvas.Screen,3_0_1_0_2_0_1,NA,NA,skipped,NA,377465.9000001,NA,NA,377462.5999999,377466,2024-02-17T19:21:36Z,377485.9,NULL,Schüler,mwanafunzi,d,NA,NA,NA,NA,sdfdsf,NA,1,NA,NA,NA,NA,NA,NA,NA,NA,NA,NA,NA,NA,NA,NA,NA,NA,NA,NA,NA
8e4dd,"""Falsch""-Screen",canvas.Screen,3_0_1_0_2_0_2,NA,NA,timeout,4996.9,377466.9000001,377468.8,377485.9,382465.9,382467,2024-02-17T19:21:41Z,382482.8,NULL,Schüler,mwanafunzi,d,NA,NA,NA,NA,sdfdsf,0,1,NA,NA,NA,NA,NA,NA,NA,NA,NA,NA,NA,NA,NA,NA,NA,NA,NA,NA,NA
8e4dd,deep,flow.Sequence,3_0_1_0_2_0,NA,NA,completion,13191.7,369258.5,369257.6,369274.2,382465.9,382467.4000001,2024-02-17T19:21:41Z,382482.8,NULL,Schüler,mwanafunzi,d,NA,NA,NA,NA,sdfdsf,NA,1,NA,NA,NA,NA,NA,NA,NA,NA,NA,NA,NA,NA,NA,NA,NA,NA,NA,NA,NA
8e4dd,shallow,flow.Sequence,3_0_1_0_2_1,NA,NA,skipped,NA,382467.5,NA,NA,382465.9,382467.79999995,2024-02-17T19:21:41Z,382482.8,NULL,Schüler,mwanafunzi,d,NA,NA,NA,NA,sdfdsf,NA,1,NA,NA,NA,NA,NA,NA,NA,NA,NA,NA,NA,NA,NA,NA,NA,NA,NA,NA,NA
8e4dd,task,flow.Sequence,3_0_1_0_2,NA,NA,completion,13191.7,369258.5,369257.6,369274.2,382465.9,382467.9000001,2024-02-17T19:21:41Z,382482.8,NULL,Schüler,mwanafunzi,d,NA,NA,NA,NA,sdfdsf,NA,1,NA,NA,NA,NA,NA,NA,NA,NA,NA,NA,NA,NA,NA,NA,NA,NA,NA,NA,NA
8e4dd,Deep Question,html.Page,3_0_1_0_3_0_0,NA,NA,form submission,3170.2,382468.20000005,382465.9,382482.8,385653,385653.29999995,2024-02-17T19:21:44Z,385664,NULL,Konkurrent,mshindani,d,NA,NA,NA,bbb,NA,NA,1,NA,NA,NA,NA,NA,NA,NA,NA,NA,NA,NA,NA,NA,NA,NA,NA,NA,NA,NA
8e4dd,"""Richtig""-Screen",canvas.Screen,3_0_1_0_3_0_1,NA,NA,skipped,NA,385656.29999995,NA,NA,385653,385656.5,2024-02-17T19:21:44Z,385664,NULL,Konkurrent,mshindani,d,NA,NA,NA,NA,sdfdsf,NA,1,NA,NA,NA,NA,NA,NA,NA,NA,NA,NA,NA,NA,NA,NA,NA,NA,NA,NA,NA
8e4dd,"""Falsch""-Screen",canvas.Screen,3_0_1_0_3_0_2,NA,NA,timeout,4996.8,385657.29999995,385647.9,385664,390644.5,390645.79999995,2024-02-17T19:21:49Z,390660.8,NULL,Konkurrent,mshindani,d,NA,NA,NA,NA,sdfdsf,0,1,NA,NA,NA,NA,NA,NA,NA,NA,NA,NA,NA,NA,NA,NA,NA,NA,NA,NA,NA
8e4dd,deep,flow.Sequence,3_0_1_0_3_0,NA,NA,completion,8161.7,382468.0999999,382465.9,382482.8,390644.5,390646.29999995,2024-02-17T19:21:49Z,390660.8,NULL,Konkurrent,mshindani,d,NA,NA,NA,NA,sdfdsf,NA,1,NA,NA,NA,NA,NA,NA,NA,NA,NA,NA,NA,NA,NA,NA,NA,NA,NA,NA,NA
8e4dd,shallow,flow.Sequence,3_0_1_0_3_1,NA,NA,skipped,NA,390646.5,NA,NA,390644.5,390646.79999995,2024-02-17T19:21:49Z,390660.8,NULL,Konkurrent,mshindani,d,NA,NA,NA,NA,sdfdsf,NA,1,NA,NA,NA,NA,NA,NA,NA,NA,NA,NA,NA,NA,NA,NA,NA,NA,NA,NA,NA
8e4dd,task,flow.Sequence,3_0_1_0_3,NA,NA,completion,8161.7,382468,382465.9,382482.8,390644.5,390647,2024-02-17T19:21:49Z,390660.8,NULL,Konkurrent,mshindani,d,NA,NA,NA,NA,sdfdsf,NA,1,NA,NA,NA,NA,NA,NA,NA,NA,NA,NA,NA,NA,NA,NA,NA,NA,NA,NA,NA
8e4dd,deep,flow.Sequence,3_0_1_0_4_0,NA,NA,skipped,NA,390647.20000005,NA,NA,390644.5,390647.29999995,2024-02-17T19:21:49Z,390660.8,NULL,Zuwachs,nyongeza,s,matilaba,udhibiti,hudhurio,NA,sdfdsf,NA,1,NA,NA,NA,NA,NA,NA,NA,NA,NA,NA,NA,NA,NA,NA,NA,NA,NA,NA,NA
8e4dd,Shallow Question,html.Page,3_0_1_0_4_1_0,NA,NA,form submission,10675.2,390647.5,390644.5,390660.8,401336,401336.20000005,2024-02-17T19:22:00Z,401354.3,NULL,Zuwachs,nyongeza,s,matilaba,udhibiti,hudhurio,hudhurio,NA,NA,1,NA,NA,NA,NA,NA,NA,NA,NA,NA,NA,NA,NA,NA,NA,NA,NA,NA,NA,NA
8e4dd,"""Richtig""-Screen",canvas.Screen,3_0_1_0_4_1_1,NA,NA,skipped,NA,401339.5,NA,NA,401336,401339.70000005,2024-02-17T19:22:00Z,401354.3,NULL,Zuwachs,nyongeza,s,matilaba,udhibiti,hudhurio,NA,sdfdsf,NA,1,NA,NA,NA,NA,NA,NA,NA,NA,NA,NA,NA,NA,NA,NA,NA,NA,NA,NA,NA
8e4dd,"""Falsch""-Screen",canvas.Screen,3_0_1_0_4_1_2,NA,NA,timeout,4997,401340.5999999,401337.632,401354.3,406334.5,406335.5999999,2024-02-17T19:22:05Z,406351.3,NULL,Zuwachs,nyongeza,s,matilaba,udhibiti,hudhurio,NA,sdfdsf,0,1,NA,NA,NA,NA,NA,NA,NA,NA,NA,NA,NA,NA,NA,NA,NA,NA,NA,NA,NA
8e4dd,shallow,flow.Sequence,3_0_1_0_4_1,NA,NA,completion,15673.7,390647.4000001,390644.5,390660.8,406334.5,406336.0999999,2024-02-17T19:22:05Z,406351.3,NULL,Zuwachs,nyongeza,s,matilaba,udhibiti,hudhurio,NA,sdfdsf,NA,1,NA,NA,NA,NA,NA,NA,NA,NA,NA,NA,NA,NA,NA,NA,NA,NA,NA,NA,NA
8e4dd,task,flow.Sequence,3_0_1_0_4,NA,NA,completion,15673.7,390647.0999999,390644.5,390660.8,406334.5,406336.29999995,2024-02-17T19:22:05Z,406351.3,NULL,Zuwachs,nyongeza,s,matilaba,udhibiti,hudhurio,NA,sdfdsf,NA,1,NA,NA,NA,NA,NA,NA,NA,NA,NA,NA,NA,NA,NA,NA,NA,NA,NA,NA,NA
8e4dd,Deep Question,html.Page,3_0_1_0_5_0_0,NA,NA,form submission,5645.9000000477,406336.70000005,406334.5,406351.3,411997.20000005,411997.5,2024-02-17T19:22:10Z,411998.324,NULL,Tester,wanaojaribu,d,NA,NA,NA,vgg,NA,NA,1,NA,NA,NA,NA,NA,NA,NA,NA,NA,NA,NA,NA,NA,NA,NA,NA,NA,NA,NA
8e4dd,"""Richtig""-Screen",canvas.Screen,3_0_1_0_5_0_1,NA,NA,skipped,NA,412000.9000001,NA,NA,411997.20000005,412001.0999999,2024-02-17T19:22:10Z,411998.324,NULL,Tester,wanaojaribu,d,NA,NA,NA,NA,sdfdsf,NA,1,NA,NA,NA,NA,NA,NA,NA,NA,NA,NA,NA,NA,NA,NA,NA,NA,NA,NA,NA
8e4dd,"""Falsch""-Screen",canvas.Screen,3_0_1_0_5_0_2,NA,NA,timeout,4996.376,412001.5,411998.324,411998.324,416978.3,416979.20000005,2024-02-17T19:22:15Z,416994.7,NULL,Tester,wanaojaribu,d,NA,NA,NA,NA,sdfdsf,0,1,NA,NA,NA,NA,NA,NA,NA,NA,NA,NA,NA,NA,NA,NA,NA,NA,NA,NA,NA
8e4dd,deep,flow.Sequence,3_0_1_0_5_0,NA,NA,completion,10627,406336.5999999,406334.5,406351.3,416978.3,416979.5,2024-02-17T19:22:15Z,416994.7,NULL,Tester,wanaojaribu,d,NA,NA,NA,NA,sdfdsf,NA,1,NA,NA,NA,NA,NA,NA,NA,NA,NA,NA,NA,NA,NA,NA,NA,NA,NA,NA,NA
8e4dd,shallow,flow.Sequence,3_0_1_0_5_1,NA,NA,skipped,NA,416979.70000005,NA,NA,416978.3,416979.79999995,2024-02-17T19:22:15Z,416994.7,NULL,Tester,wanaojaribu,d,NA,NA,NA,NA,sdfdsf,NA,1,NA,NA,NA,NA,NA,NA,NA,NA,NA,NA,NA,NA,NA,NA,NA,NA,NA,NA,NA
8e4dd,task,flow.Sequence,3_0_1_0_5,NA,NA,completion,10627,406336.5,406334.5,406351.3,416978.3,416980,2024-02-17T19:22:15Z,416994.7,NULL,Tester,wanaojaribu,d,NA,NA,NA,NA,sdfdsf,NA,1,NA,NA,NA,NA,NA,NA,NA,NA,NA,NA,NA,NA,NA,NA,NA,NA,NA,NA,NA
8e4dd,deep,flow.Sequence,3_0_1_0_6_0,NA,NA,skipped,NA,416980.20000005,NA,NA,416978.3,416980.29999995,2024-02-17T19:22:15Z,416994.7,NULL,Symbol,kielezo,s,kinyume,nderemo,utayari,NA,sdfdsf,NA,1,NA,NA,NA,NA,NA,NA,NA,NA,NA,NA,NA,NA,NA,NA,NA,NA,NA,NA,NA
8e4dd,Shallow Question,html.Page,3_0_1_0_6_1_0,NA,NA,form submission,7643.7000000954,416980.5,416978.3,416994.7,424638.4000001,424638.79999995,2024-02-17T19:22:23Z,424640.66,NULL,Symbol,kielezo,s,kinyume,nderemo,utayari,kinyume,NA,NA,1,NA,NA,NA,NA,NA,NA,NA,NA,NA,NA,NA,NA,NA,NA,NA,NA,NA,NA,NA
8e4dd,"""Richtig""-Screen",canvas.Screen,3_0_1_0_6_1_1,NA,NA,skipped,NA,424642,NA,NA,424638.4000001,424642.0999999,2024-02-17T19:22:23Z,424640.66,NULL,Symbol,kielezo,s,kinyume,nderemo,utayari,NA,sdfdsf,NA,1,NA,NA,NA,NA,NA,NA,NA,NA,NA,NA,NA,NA,NA,NA,NA,NA,NA,NA,NA
8e4dd,"""Falsch""-Screen",canvas.Screen,3_0_1_0_6_1_2,NA,NA,timeout,4996.24,424642.70000005,424640.66,424640.66,429620.7,429621.70000005,2024-02-17T19:22:28Z,429636.9,NULL,Symbol,kielezo,s,kinyume,nderemo,utayari,NA,sdfdsf,0,1,NA,NA,NA,NA,NA,NA,NA,NA,NA,NA,NA,NA,NA,NA,NA,NA,NA,NA,NA
8e4dd,shallow,flow.Sequence,3_0_1_0_6_1,NA,NA,completion,12626,416980.5,416978.3,416994.7,429620.7,429622.0999999,2024-02-17T19:22:28Z,429636.9,NULL,Symbol,kielezo,s,kinyume,nderemo,utayari,NA,sdfdsf,NA,1,NA,NA,NA,NA,NA,NA,NA,NA,NA,NA,NA,NA,NA,NA,NA,NA,NA,NA,NA
8e4dd,task,flow.Sequence,3_0_1_0_6,NA,NA,completion,12626,416980.20000005,416978.3,416994.7,429620.7,429622.29999995,2024-02-17T19:22:28Z,429636.9,NULL,Symbol,kielezo,s,kinyume,nderemo,utayari,NA,sdfdsf,NA,1,NA,NA,NA,NA,NA,NA,NA,NA,NA,NA,NA,NA,NA,NA,NA,NA,NA,NA,NA
8e4dd,deep,flow.Sequence,3_0_1_0_7_0,NA,NA,skipped,NA,429622.5,NA,NA,429620.7,429622.5999999,2024-02-17T19:22:28Z,429636.9,NULL,Fenster,dirisha,s,walakini,tasawari,maarifa,NA,sdfdsf,NA,1,NA,NA,NA,NA,NA,NA,NA,NA,NA,NA,NA,NA,NA,NA,NA,NA,NA,NA,NA
8e4dd,Shallow Question,html.Page,3_0_1_0_7_1_0,NA,NA,form submission,5791.6,429622.79999995,429620.7,429636.9,435428.5,435428.70000005,2024-02-17T19:22:34Z,435433.4,NULL,Fenster,dirisha,s,walakini,tasawari,maarifa,dirisha,NA,NA,1,NA,NA,NA,NA,NA,NA,NA,NA,NA,NA,NA,NA,NA,NA,NA,NA,NA,NA,NA
8e4dd,"""Richtig""-Screen",canvas.Screen,3_0_1_0_7_1_1,NA,NA,timeout,4997.1,435431.70000005,435417.39,435433.4,440414.1,440415.4000001,2024-02-17T19:22:39Z,440430.5,NULL,Fenster,dirisha,s,walakini,tasawari,maarifa,NA,sdfdsf,1,1,NA,NA,NA,NA,NA,NA,NA,NA,NA,NA,NA,NA,NA,NA,NA,NA,NA,NA,NA
8e4dd,"""Falsch""-Screen",canvas.Screen,3_0_1_0_7_1_2,NA,NA,skipped,NA,440421,NA,NA,440414.1,440421.29999995,2024-02-17T19:22:39Z,440430.5,NULL,Fenster,dirisha,s,walakini,tasawari,maarifa,NA,sdfdsf,NA,1,NA,NA,NA,NA,NA,NA,NA,NA,NA,NA,NA,NA,NA,NA,NA,NA,NA,NA,NA
8e4dd,shallow,flow.Sequence,3_0_1_0_7_1,NA,NA,completion,10777.2,429622.79999995,429620.7,429636.9,440414.1,440421.5999999,2024-02-17T19:22:39Z,440430.5,NULL,Fenster,dirisha,s,walakini,tasawari,maarifa,NA,sdfdsf,NA,1,NA,NA,NA,NA,NA,NA,NA,NA,NA,NA,NA,NA,NA,NA,NA,NA,NA,NA,NA
8e4dd,task,flow.Sequence,3_0_1_0_7,NA,NA,completion,10777.2,429622.4000001,429620.7,429636.9,440414.1,440421.79999995,2024-02-17T19:22:39Z,440430.5,NULL,Fenster,dirisha,s,walakini,tasawari,maarifa,NA,sdfdsf,NA,1,NA,NA,NA,NA,NA,NA,NA,NA,NA,NA,NA,NA,NA,NA,NA,NA,NA,NA,NA
8e4dd,block,flow.Loop,3_0_1_0,NA,NA,completion,108732.78,331693.29999995,331681.32,331681.32,440414.1,440422.20000005,2024-02-17T19:22:39Z,440430.5,NULL,NA,NA,NA,NA,NA,NA,NA,sdfdsf,NA,1,NA,NA,NA,NA,NA,NA,NA,NA,NA,NA,NA,NA,NA,NA,NA,NA,NA,NA,NA
8e4dd,weiter,canvas.Screen,3_0_1_1,sdf,keypress(Space),response,2431.4000000954,440422.29999995,440414.1,440430.5,442861.9000001,442862.9000001,2024-02-17T19:22:41Z,442880.022,NULL,NA,NA,NA,NA,NA,NA,NA,sdfdsf,NA,1,NA,NA,NA,NA,NA,NA,NA,NA,NA,NA,NA,NA,NA,NA,NA,NA,NA,NA,NA
8e4dd,check continue,flow.Sequence,3_0_1,NA,NA,completion,111180.5800001,331693.20000005,331681.32,331681.32,442861.9000001,442863.20000005,2024-02-17T19:22:41Z,442880.022,NULL,NA,NA,NA,NA,NA,NA,NA,sdfdsf,NA,1,NA,NA,NA,NA,NA,NA,NA,NA,NA,NA,NA,NA,NA,NA,NA,NA,NA,NA,NA
8e4dd,Deep Question,html.Page,3_0_2_0_0_0_0,NA,NA,form submission,7269.1780000477,442883.29999995,442880.022,442880.022,450149.20000005,450149.4000001,2024-02-17T19:22:49Z,450175,NULL,Konkurrent,mshindani,d,NA,NA,NA,ccffff,NA,NA,2,NA,NA,NA,NA,NA,NA,NA,NA,NA,NA,NA,NA,NA,NA,NA,NA,NA,NA,NA
8e4dd,"""Richtig""-Screen",canvas.Screen,3_0_2_0_0_0_1,NA,NA,skipped,NA,450153.0999999,NA,NA,450149.20000005,450153.20000005,2024-02-17T19:22:49Z,450175,NULL,Konkurrent,mshindani,d,NA,NA,NA,NA,sdf,NA,2,NA,NA,NA,NA,NA,NA,NA,NA,NA,NA,NA,NA,NA,NA,NA,NA,NA,NA,NA
8e4dd,"""Falsch""-Screen",canvas.Screen,3_0_2_0_0_0_2,NA,NA,timeout,4996.8,450154,450157.962,450175,455155.1,455157.9000001,2024-02-17T19:22:54Z,455171.8,NULL,Konkurrent,mshindani,d,NA,NA,NA,NA,sdf,0,2,NA,NA,NA,NA,NA,NA,NA,NA,NA,NA,NA,NA,NA,NA,NA,NA,NA,NA,NA
8e4dd,deep,flow.Sequence,3_0_2_0_0_0,NA,NA,completion,12275.078,442883.29999995,442880.022,442880.022,455155.1,455158.29999995,2024-02-17T19:22:54Z,455171.8,NULL,Konkurrent,mshindani,d,NA,NA,NA,NA,sdf,NA,2,NA,NA,NA,NA,NA,NA,NA,NA,NA,NA,NA,NA,NA,NA,NA,NA,NA,NA,NA
8e4dd,shallow,flow.Sequence,3_0_2_0_0_1,NA,NA,skipped,NA,455158.70000005,NA,NA,455155.1,455158.9000001,2024-02-17T19:22:54Z,455171.8,NULL,Konkurrent,mshindani,d,NA,NA,NA,NA,sdf,NA,2,NA,NA,NA,NA,NA,NA,NA,NA,NA,NA,NA,NA,NA,NA,NA,NA,NA,NA,NA
8e4dd,task,flow.Sequence,3_0_2_0_0,NA,NA,completion,12275.078,442883.29999995,442880.022,442880.022,455155.1,455159.0999999,2024-02-17T19:22:54Z,455171.8,NULL,Konkurrent,mshindani,d,NA,NA,NA,NA,sdf,NA,2,NA,NA,NA,NA,NA,NA,NA,NA,NA,NA,NA,NA,NA,NA,NA,NA,NA,NA,NA
8e4dd,deep,flow.Sequence,3_0_2_0_1_0,NA,NA,skipped,NA,455159.4000001,NA,NA,455155.1,455159.5,2024-02-17T19:22:54Z,455171.8,NULL,Zuwachs,nyongeza,s,matilaba,udhibiti,hudhurio,NA,sdf,NA,2,NA,NA,NA,NA,NA,NA,NA,NA,NA,NA,NA,NA,NA,NA,NA,NA,NA,NA,NA
8e4dd,Shallow Question,html.Page,3_0_2_0_1_1_0,NA,NA,form submission,5934.9000000477,455159.5999999,455155.1,455171.8,461106.70000005,461106.79999995,2024-02-17T19:22:59Z,461118.1,NULL,Zuwachs,nyongeza,s,matilaba,udhibiti,hudhurio,nyongeza,NA,NA,2,NA,NA,NA,NA,NA,NA,NA,NA,NA,NA,NA,NA,NA,NA,NA,NA,NA,NA,NA
8e4dd,"""Richtig""-Screen",canvas.Screen,3_0_2_0_1_1_1,NA,NA,timeout,4997.1,461108.20000005,461101.56,461118.1,466098.2,466099.5999999,2024-02-17T19:23:04Z,466115.2,NULL,Zuwachs,nyongeza,s,matilaba,udhibiti,hudhurio,NA,sdf,1,2,NA,NA,NA,NA,NA,NA,NA,NA,NA,NA,NA,NA,NA,NA,NA,NA,NA,NA,NA
8e4dd,"""Falsch""-Screen",canvas.Screen,3_0_2_0_1_1_2,NA,NA,skipped,NA,466104.5999999,NA,NA,466098.2,466104.70000005,2024-02-17T19:23:04Z,466115.2,NULL,Zuwachs,nyongeza,s,matilaba,udhibiti,hudhurio,NA,sdf,NA,2,NA,NA,NA,NA,NA,NA,NA,NA,NA,NA,NA,NA,NA,NA,NA,NA,NA,NA,NA
8e4dd,shallow,flow.Sequence,3_0_2_0_1_1,NA,NA,completion,10926.4,455159.5999999,455155.1,455171.8,466098.2,466104.79999995,2024-02-17T19:23:04Z,466115.2,NULL,Zuwachs,nyongeza,s,matilaba,udhibiti,hudhurio,NA,sdf,NA,2,NA,NA,NA,NA,NA,NA,NA,NA,NA,NA,NA,NA,NA,NA,NA,NA,NA,NA,NA
8e4dd,task,flow.Sequence,3_0_2_0_1,NA,NA,completion,10926.4,455159.29999995,455155.1,455171.8,466098.2,466104.9000001,2024-02-17T19:23:04Z,466115.2,NULL,Zuwachs,nyongeza,s,matilaba,udhibiti,hudhurio,NA,sdf,NA,2,NA,NA,NA,NA,NA,NA,NA,NA,NA,NA,NA,NA,NA,NA,NA,NA,NA,NA,NA
8e4dd,Deep Question,html.Page,3_0_2_0_2_0_0,NA,NA,form submission,6041.8,466105,466098.2,466115.2,472157,472157.29999995,2024-02-17T19:23:11Z,472160.9,NULL,Schüler,mwanafunzi,d,NA,NA,NA,gg,NA,NA,2,NA,NA,NA,NA,NA,NA,NA,NA,NA,NA,NA,NA,NA,NA,NA,NA,NA,NA,NA
8e4dd,"""Richtig""-Screen",canvas.Screen,3_0_2_0_2_0_1,NA,NA,skipped,NA,472159,NA,NA,472157,472159.20000005,2024-02-17T19:23:11Z,472160.9,NULL,Schüler,mwanafunzi,d,NA,NA,NA,NA,sdf,NA,2,NA,NA,NA,NA,NA,NA,NA,NA,NA,NA,NA,NA,NA,NA,NA,NA,NA,NA,NA
8e4dd,"""Falsch""-Screen",canvas.Screen,3_0_2_0_2_0_2,NA,NA,timeout,4997.4,472159.5999999,472144.89,472160.9,477141.8,477142.4000001,2024-02-17T19:23:16Z,477158.3,NULL,Schüler,mwanafunzi,d,NA,NA,NA,NA,sdf,0,2,NA,NA,NA,NA,NA,NA,NA,NA,NA,NA,NA,NA,NA,NA,NA,NA,NA,NA,NA
8e4dd,deep,flow.Sequence,3_0_2_0_2_0,NA,NA,completion,11026.6,466104.9000001,466098.2,466115.2,477141.8,477142.5999999,2024-02-17T19:23:16Z,477158.3,NULL,Schüler,mwanafunzi,d,NA,NA,NA,NA,sdf,NA,2,NA,NA,NA,NA,NA,NA,NA,NA,NA,NA,NA,NA,NA,NA,NA,NA,NA,NA,NA
8e4dd,shallow,flow.Sequence,3_0_2_0_2_1,NA,NA,skipped,NA,477142.70000005,NA,NA,477141.8,477142.79999995,2024-02-17T19:23:16Z,477158.3,NULL,Schüler,mwanafunzi,d,NA,NA,NA,NA,sdf,NA,2,NA,NA,NA,NA,NA,NA,NA,NA,NA,NA,NA,NA,NA,NA,NA,NA,NA,NA,NA
8e4dd,task,flow.Sequence,3_0_2_0_2,NA,NA,completion,11026.6,466104.9000001,466098.2,466115.2,477141.8,477142.79999995,2024-02-17T19:23:16Z,477158.3,NULL,Schüler,mwanafunzi,d,NA,NA,NA,NA,sdf,NA,2,NA,NA,NA,NA,NA,NA,NA,NA,NA,NA,NA,NA,NA,NA,NA,NA,NA,NA,NA
8e4dd,Deep Question,html.Page,3_0_2_0_3_0_0,NA,NA,form submission,4236.9000000477,477142.9000001,477141.8,477158.3,481395.20000005,481395.5,2024-02-17T19:23:20Z,481405.5,NULL,Vorsorge,tahadhari,d,NA,NA,NA,cddd,NA,NA,2,NA,NA,NA,NA,NA,NA,NA,NA,NA,NA,NA,NA,NA,NA,NA,NA,NA,NA,NA
8e4dd,"""Richtig""-Screen",canvas.Screen,3_0_2_0_3_0_1,NA,NA,skipped,NA,481398.79999995,NA,NA,481395.20000005,481398.9000001,2024-02-17T19:23:20Z,481405.5,NULL,Vorsorge,tahadhari,d,NA,NA,NA,NA,sdf,NA,2,NA,NA,NA,NA,NA,NA,NA,NA,NA,NA,NA,NA,NA,NA,NA,NA,NA,NA,NA
8e4dd,"""Falsch""-Screen",canvas.Screen,3_0_2_0_3_0_2,NA,NA,timeout,4997,481399.4000001,481389.324,481405.5,486385.9,486387.20000005,2024-02-17T19:23:25Z,486402.5,NULL,Vorsorge,tahadhari,d,NA,NA,NA,NA,sdf,0,2,NA,NA,NA,NA,NA,NA,NA,NA,NA,NA,NA,NA,NA,NA,NA,NA,NA,NA,NA
8e4dd,deep,flow.Sequence,3_0_2_0_3_0,NA,NA,completion,9227.6,477142.9000001,477141.8,477158.3,486385.9,486387.5,2024-02-17T19:23:25Z,486402.5,NULL,Vorsorge,tahadhari,d,NA,NA,NA,NA,sdf,NA,2,NA,NA,NA,NA,NA,NA,NA,NA,NA,NA,NA,NA,NA,NA,NA,NA,NA,NA,NA
8e4dd,shallow,flow.Sequence,3_0_2_0_3_1,NA,NA,skipped,NA,486387.70000005,NA,NA,486385.9,486387.9000001,2024-02-17T19:23:25Z,486402.5,NULL,Vorsorge,tahadhari,d,NA,NA,NA,NA,sdf,NA,2,NA,NA,NA,NA,NA,NA,NA,NA,NA,NA,NA,NA,NA,NA,NA,NA,NA,NA,NA
8e4dd,task,flow.Sequence,3_0_2_0_3,NA,NA,completion,9227.6,477142.9000001,477141.8,477158.3,486385.9,486388.0999999,2024-02-17T19:23:25Z,486402.5,NULL,Vorsorge,tahadhari,d,NA,NA,NA,NA,sdf,NA,2,NA,NA,NA,NA,NA,NA,NA,NA,NA,NA,NA,NA,NA,NA,NA,NA,NA,NA,NA
8e4dd,deep,flow.Sequence,3_0_2_0_4_0,NA,NA,skipped,NA,486388.29999995,NA,NA,486385.9,486388.4000001,2024-02-17T19:23:25Z,486402.5,NULL,Symbol,kielezo,s,kinyume,nderemo,utayari,NA,sdf,NA,2,NA,NA,NA,NA,NA,NA,NA,NA,NA,NA,NA,NA,NA,NA,NA,NA,NA,NA,NA
8e4dd,Shallow Question,html.Page,3_0_2_0_4_1_0,NA,NA,form submission,6844.0999999046,486388.5999999,486385.9,486402.5,493246.5999999,493246.79999995,2024-02-17T19:23:32Z,493248.724,NULL,Symbol,kielezo,s,kinyume,nderemo,utayari,kielezo,NA,NA,2,NA,NA,NA,NA,NA,NA,NA,NA,NA,NA,NA,NA,NA,NA,NA,NA,NA,NA,NA
8e4dd,"""Richtig""-Screen",canvas.Screen,3_0_2_0_4_1_1,NA,NA,timeout,4996.276,493250,493248.724,493248.724,498228.3,498228.70000005,2024-02-17T19:23:37Z,498245,NULL,Symbol,kielezo,s,kinyume,nderemo,utayari,NA,sdf,1,2,NA,NA,NA,NA,NA,NA,NA,NA,NA,NA,NA,NA,NA,NA,NA,NA,NA,NA,NA
8e4dd,"""Falsch""-Screen",canvas.Screen,3_0_2_0_4_1_2,NA,NA,skipped,NA,498230.29999995,NA,NA,498228.3,498230.29999995,2024-02-17T19:23:37Z,498245,NULL,Symbol,kielezo,s,kinyume,nderemo,utayari,NA,sdf,NA,2,NA,NA,NA,NA,NA,NA,NA,NA,NA,NA,NA,NA,NA,NA,NA,NA,NA,NA,NA
8e4dd,shallow,flow.Sequence,3_0_2_0_4_1,NA,NA,completion,11825.8,486388.5999999,486385.9,486402.5,498228.3,498230.4000001,2024-02-17T19:23:37Z,498245,NULL,Symbol,kielezo,s,kinyume,nderemo,utayari,NA,sdf,NA,2,NA,NA,NA,NA,NA,NA,NA,NA,NA,NA,NA,NA,NA,NA,NA,NA,NA,NA,NA
8e4dd,task,flow.Sequence,3_0_2_0_4,NA,NA,completion,11825.8,486388.20000005,486385.9,486402.5,498228.3,498230.5,2024-02-17T19:23:37Z,498245,NULL,Symbol,kielezo,s,kinyume,nderemo,utayari,NA,sdf,NA,2,NA,NA,NA,NA,NA,NA,NA,NA,NA,NA,NA,NA,NA,NA,NA,NA,NA,NA,NA
8e4dd,deep,flow.Sequence,3_0_2_0_5_0,NA,NA,skipped,NA,498230.5,NA,NA,498228.3,498230.5,2024-02-17T19:23:37Z,498245,NULL,Spionage,upelelezi,s,maslahi,utokazo,magangao,NA,sdf,NA,2,NA,NA,NA,NA,NA,NA,NA,NA,NA,NA,NA,NA,NA,NA,NA,NA,NA,NA,NA
8e4dd,Shallow Question,html.Page,3_0_2_0_5_1_0,NA,NA,form submission,6531.5,498230.5999999,498228.3,498245,504776.5,504776.79999995,2024-02-17T19:23:43Z,504791.4,NULL,Spionage,upelelezi,s,maslahi,utokazo,magangao,upelelezi,NA,NA,2,NA,NA,NA,NA,NA,NA,NA,NA,NA,NA,NA,NA,NA,NA,NA,NA,NA,NA,NA
8e4dd,"""Richtig""-Screen",canvas.Screen,3_0_2_0_5_1_1,NA,NA,timeout,4996.9,504779.79999995,504774.988,504791.4,509771.7,509772.5999999,2024-02-17T19:23:48Z,509788.3,NULL,Spionage,upelelezi,s,maslahi,utokazo,magangao,NA,sdf,1,2,NA,NA,NA,NA,NA,NA,NA,NA,NA,NA,NA,NA,NA,NA,NA,NA,NA,NA,NA
8e4dd,"""Falsch""-Screen",canvas.Screen,3_0_2_0_5_1_2,NA,NA,skipped,NA,509777.0999999,NA,NA,509771.7,509777.20000005,2024-02-17T19:23:48Z,509788.3,NULL,Spionage,upelelezi,s,maslahi,utokazo,magangao,NA,sdf,NA,2,NA,NA,NA,NA,NA,NA,NA,NA,NA,NA,NA,NA,NA,NA,NA,NA,NA,NA,NA
8e4dd,shallow,flow.Sequence,3_0_2_0_5_1,NA,NA,completion,11526.7,498230.5999999,498228.3,498245,509771.7,509777.29999995,2024-02-17T19:23:48Z,509788.3,NULL,Spionage,upelelezi,s,maslahi,utokazo,magangao,NA,sdf,NA,2,NA,NA,NA,NA,NA,NA,NA,NA,NA,NA,NA,NA,NA,NA,NA,NA,NA,NA,NA
8e4dd,task,flow.Sequence,3_0_2_0_5,NA,NA,completion,11526.7,498230.5,498228.3,498245,509771.7,509777.4000001,2024-02-17T19:23:48Z,509788.3,NULL,Spionage,upelelezi,s,maslahi,utokazo,magangao,NA,sdf,NA,2,NA,NA,NA,NA,NA,NA,NA,NA,NA,NA,NA,NA,NA,NA,NA,NA,NA,NA,NA
8e4dd,Deep Question,html.Page,3_0_2_0_6_0_0,NA,NA,form submission,3710.7999999046,509777.5,509771.7,509788.3,513499.0999999,513499.29999995,2024-02-17T19:23:52Z,513502.3,NULL,Tester,wanaojaribu,d,NA,NA,NA,ddd,NA,NA,2,NA,NA,NA,NA,NA,NA,NA,NA,NA,NA,NA,NA,NA,NA,NA,NA,NA,NA,NA
8e4dd,"""Richtig""-Screen",canvas.Screen,3_0_2_0_6_0_1,NA,NA,skipped,NA,513501,NA,NA,513499.0999999,513501.0999999,2024-02-17T19:23:52Z,513502.3,NULL,Tester,wanaojaribu,d,NA,NA,NA,NA,sdf,NA,2,NA,NA,NA,NA,NA,NA,NA,NA,NA,NA,NA,NA,NA,NA,NA,NA,NA,NA,NA
8e4dd,"""Falsch""-Screen",canvas.Screen,3_0_2_0_6_0_2,NA,NA,timeout,4997.4,513501.5999999,513486.1,513502.3,518482.8,518483.9000001,2024-02-17T19:23:57Z,518499.7,NULL,Tester,wanaojaribu,d,NA,NA,NA,NA,sdf,0,2,NA,NA,NA,NA,NA,NA,NA,NA,NA,NA,NA,NA,NA,NA,NA,NA,NA,NA,NA
8e4dd,deep,flow.Sequence,3_0_2_0_6_0,NA,NA,completion,8694.5,509777.4000001,509771.7,509788.3,518482.8,518484.29999995,2024-02-17T19:23:57Z,518499.7,NULL,Tester,wanaojaribu,d,NA,NA,NA,NA,sdf,NA,2,NA,NA,NA,NA,NA,NA,NA,NA,NA,NA,NA,NA,NA,NA,NA,NA,NA,NA,NA
8e4dd,shallow,flow.Sequence,3_0_2_0_6_1,NA,NA,skipped,NA,518484.5,NA,NA,518482.8,518484.5999999,2024-02-17T19:23:57Z,518499.7,NULL,Tester,wanaojaribu,d,NA,NA,NA,NA,sdf,NA,2,NA,NA,NA,NA,NA,NA,NA,NA,NA,NA,NA,NA,NA,NA,NA,NA,NA,NA,NA
8e4dd,task,flow.Sequence,3_0_2_0_6,NA,NA,completion,8694.5,509777.4000001,509771.7,509788.3,518482.8,518484.9000001,2024-02-17T19:23:57Z,518499.7,NULL,Tester,wanaojaribu,d,NA,NA,NA,NA,sdf,NA,2,NA,NA,NA,NA,NA,NA,NA,NA,NA,NA,NA,NA,NA,NA,NA,NA,NA,NA,NA
8e4dd,deep,flow.Sequence,3_0_2_0_7_0,NA,NA,skipped,NA,518485,NA,NA,518482.8,518485.20000005,2024-02-17T19:23:57Z,518499.7,NULL,Fenster,dirisha,s,walakini,tasawari,maarifa,NA,sdf,NA,2,NA,NA,NA,NA,NA,NA,NA,NA,NA,NA,NA,NA,NA,NA,NA,NA,NA,NA,NA
8e4dd,Shallow Question,html.Page,3_0_2_0_7_1_0,NA,NA,form submission,7365.5999999523,518485.29999995,518482.8,518499.7,525865.29999995,525865.4000001,2024-02-17T19:24:04Z,525895.3,NULL,Fenster,dirisha,s,walakini,tasawari,maarifa,tasawari,NA,NA,2,NA,NA,NA,NA,NA,NA,NA,NA,NA,NA,NA,NA,NA,NA,NA,NA,NA,NA,NA
8e4dd,"""Richtig""-Screen",canvas.Screen,3_0_2_0_7_1_1,NA,NA,skipped,NA,525868.5,NA,NA,525865.29999995,525868.70000005,2024-02-17T19:24:04Z,525895.3,NULL,Fenster,dirisha,s,walakini,tasawari,maarifa,NA,sdf,NA,2,NA,NA,NA,NA,NA,NA,NA,NA,NA,NA,NA,NA,NA,NA,NA,NA,NA,NA,NA
8e4dd,"""Falsch""-Screen",canvas.Screen,3_0_2_0_7_1_2,NA,NA,timeout,4996.7999999999,525869.20000005,525878.5,525895.3,530875.4,530876.70000005,2024-02-17T19:24:09Z,530892.1,NULL,Fenster,dirisha,s,walakini,tasawari,maarifa,NA,sdf,0,2,NA,NA,NA,NA,NA,NA,NA,NA,NA,NA,NA,NA,NA,NA,NA,NA,NA,NA,NA
8e4dd,shallow,flow.Sequence,3_0_2_0_7_1,NA,NA,completion,12375.7,518485.29999995,518482.8,518499.7,530875.4,530877.0999999,2024-02-17T19:24:09Z,530892.1,NULL,Fenster,dirisha,s,walakini,tasawari,maarifa,NA,sdf,NA,2,NA,NA,NA,NA,NA,NA,NA,NA,NA,NA,NA,NA,NA,NA,NA,NA,NA,NA,NA
8e4dd,task,flow.Sequence,3_0_2_0_7,NA,NA,completion,12375.7,518485,518482.8,518499.7,530875.4,530877.4000001,2024-02-17T19:24:09Z,530892.1,NULL,Fenster,dirisha,s,walakini,tasawari,maarifa,NA,sdf,NA,2,NA,NA,NA,NA,NA,NA,NA,NA,NA,NA,NA,NA,NA,NA,NA,NA,NA,NA,NA
8e4dd,block,flow.Loop,3_0_2_0,NA,NA,completion,87995.378,442883.29999995,442880.022,442880.022,530875.4,530877.5999999,2024-02-17T19:24:09Z,530892.1,NULL,NA,NA,NA,NA,NA,NA,NA,sdf,NA,2,NA,NA,NA,NA,NA,NA,NA,NA,NA,NA,NA,NA,NA,NA,NA,NA,NA,NA,NA
8e4dd,weiter,canvas.Screen,3_0_2_1,sdf,keypress(Space),response,1311.8000000954,530877.79999995,530875.4,530892.1,532203.9000001,532204.9000001,2024-02-17T19:24:11Z,532225.082,NULL,NA,NA,NA,NA,NA,NA,NA,sdf,NA,2,NA,NA,NA,NA,NA,NA,NA,NA,NA,NA,NA,NA,NA,NA,NA,NA,NA,NA,NA
8e4dd,check continue,flow.Sequence,3_0_2,NA,NA,completion,89323.878000095,442883.29999995,442880.022,442880.022,532203.9000001,532205.0999999,2024-02-17T19:24:11Z,532225.082,NULL,NA,NA,NA,NA,NA,NA,NA,sdf,NA,2,NA,NA,NA,NA,NA,NA,NA,NA,NA,NA,NA,NA,NA,NA,NA,NA,NA,NA,NA
8e4dd,deep,flow.Sequence,3_0_3_0_0_0,NA,NA,skipped,NA,532230.5,NA,NA,532203.9000001,532230.5999999,2024-02-17T19:24:11Z,532225.082,NULL,Fenster,dirisha,s,walakini,tasawari,maarifa,NA,qt,NA,3,NA,NA,NA,NA,NA,NA,NA,NA,NA,NA,NA,NA,NA,NA,NA,NA,NA,NA,NA
8e4dd,Shallow Question,html.Page,3_0_3_0_0_1_0,NA,NA,form submission,5392.8180000953,532230.70000005,532225.082,532225.082,537617.9000001,537618.0999999,2024-02-17T19:24:16Z,537620.9,NULL,Fenster,dirisha,s,walakini,tasawari,maarifa,dirisha,NA,NA,3,NA,NA,NA,NA,NA,NA,NA,NA,NA,NA,NA,NA,NA,NA,NA,NA,NA,NA,NA
8e4dd,"""Richtig""-Screen",canvas.Screen,3_0_3_0_0_1_1,NA,NA,timeout,4997,537620.20000005,537604.928,537620.9,542601.2,542601.5999999,2024-02-17T19:24:21Z,542617.9,NULL,Fenster,dirisha,s,walakini,tasawari,maarifa,NA,qt,1,3,NA,NA,NA,NA,NA,NA,NA,NA,NA,NA,NA,NA,NA,NA,NA,NA,NA,NA,NA
8e4dd,"""Falsch""-Screen",canvas.Screen,3_0_3_0_0_1_2,NA,NA,skipped,NA,542603.0999999,NA,NA,542601.2,542603.20000005,2024-02-17T19:24:21Z,542617.9,NULL,Fenster,dirisha,s,walakini,tasawari,maarifa,NA,qt,NA,3,NA,NA,NA,NA,NA,NA,NA,NA,NA,NA,NA,NA,NA,NA,NA,NA,NA,NA,NA
8e4dd,shallow,flow.Sequence,3_0_3_0_0_1,NA,NA,completion,10376.118,532230.70000005,532225.082,532225.082,542601.2,542603.29999995,2024-02-17T19:24:21Z,542617.9,NULL,Fenster,dirisha,s,walakini,tasawari,maarifa,NA,qt,NA,3,NA,NA,NA,NA,NA,NA,NA,NA,NA,NA,NA,NA,NA,NA,NA,NA,NA,NA,NA
8e4dd,task,flow.Sequence,3_0_3_0_0,NA,NA,completion,10376.118,532230.5,532225.082,532225.082,542601.2,542603.29999995,2024-02-17T19:24:21Z,542617.9,NULL,Fenster,dirisha,s,walakini,tasawari,maarifa,NA,qt,NA,3,NA,NA,NA,NA,NA,NA,NA,NA,NA,NA,NA,NA,NA,NA,NA,NA,NA,NA,NA
8e4dd,Deep Question,html.Page,3_0_3_0_1_0_0,NA,NA,form submission,25626.699999905,542603.4000001,542601.2,542617.9,568244.5999999,568244.79999995,2024-02-17T19:24:47Z,568252.2,NULL,Schüler,mwanafunzi,d,NA,NA,NA,fff,NA,NA,3,NA,NA,NA,NA,NA,NA,NA,NA,NA,NA,NA,NA,NA,NA,NA,NA,NA,NA,NA
8e4dd,"""Richtig""-Screen",canvas.Screen,3_0_3_0_1_0_1,NA,NA,skipped,NA,568248,NA,NA,568244.5999999,568248.20000005,2024-02-17T19:24:47Z,568252.2,NULL,Schüler,mwanafunzi,d,NA,NA,NA,NA,qt,NA,3,NA,NA,NA,NA,NA,NA,NA,NA,NA,NA,NA,NA,NA,NA,NA,NA,NA,NA,NA
8e4dd,"""Falsch""-Screen",canvas.Screen,3_0_3_0_1_0_2,NA,NA,timeout,4997.3,568249.0999999,568236,568252.2,573232.8,573233.5999999,2024-02-17T19:24:52Z,573249.5,NULL,Schüler,mwanafunzi,d,NA,NA,NA,NA,qt,0,3,NA,NA,NA,NA,NA,NA,NA,NA,NA,NA,NA,NA,NA,NA,NA,NA,NA,NA,NA
8e4dd,deep,flow.Sequence,3_0_3_0_1_0,NA,NA,completion,30614.9,542603.4000001,542601.2,542617.9,573232.8,573233.9000001,2024-02-17T19:24:52Z,573249.5,NULL,Schüler,mwanafunzi,d,NA,NA,NA,NA,qt,NA,3,NA,NA,NA,NA,NA,NA,NA,NA,NA,NA,NA,NA,NA,NA,NA,NA,NA,NA,NA
8e4dd,shallow,flow.Sequence,3_0_3_0_1_1,NA,NA,skipped,NA,573234.0999999,NA,NA,573232.8,573234.20000005,2024-02-17T19:24:52Z,573249.5,NULL,Schüler,mwanafunzi,d,NA,NA,NA,NA,qt,NA,3,NA,NA,NA,NA,NA,NA,NA,NA,NA,NA,NA,NA,NA,NA,NA,NA,NA,NA,NA
8e4dd,task,flow.Sequence,3_0_3_0_1,NA,NA,completion,30614.9,542603.4000001,542601.2,542617.9,573232.8,573234.4000001,2024-02-17T19:24:52Z,573249.5,NULL,Schüler,mwanafunzi,d,NA,NA,NA,NA,qt,NA,3,NA,NA,NA,NA,NA,NA,NA,NA,NA,NA,NA,NA,NA,NA,NA,NA,NA,NA,NA
8e4dd,Deep Question,html.Page,3_0_3_0_2_0_0,NA,NA,form submission,9520.0999999046,573234.70000005,573232.8,573249.5,582769.5999999,582769.9000001,2024-02-17T19:25:01Z,582776.6,NULL,Konkurrent,mshindani,d,NA,NA,NA,dd,NA,NA,3,NA,NA,NA,NA,NA,NA,NA,NA,NA,NA,NA,NA,NA,NA,NA,NA,NA,NA,NA
8e4dd,"""Richtig""-Screen",canvas.Screen,3_0_3_0_2_0_1,NA,NA,skipped,NA,582772.20000005,NA,NA,582769.5999999,582772.29999995,2024-02-17T19:25:01Z,582776.6,NULL,Konkurrent,mshindani,d,NA,NA,NA,NA,qt,NA,3,NA,NA,NA,NA,NA,NA,NA,NA,NA,NA,NA,NA,NA,NA,NA,NA,NA,NA,NA
8e4dd,"""Falsch""-Screen",canvas.Screen,3_0_3_0_2_0_2,NA,NA,timeout,4997.1,582772.5999999,582760.496,582776.6,587757,587758.29999995,2024-02-17T19:25:06Z,587773.7,NULL,Konkurrent,mshindani,d,NA,NA,NA,NA,qt,0,3,NA,NA,NA,NA,NA,NA,NA,NA,NA,NA,NA,NA,NA,NA,NA,NA,NA,NA,NA
8e4dd,deep,flow.Sequence,3_0_3_0_2_0,NA,NA,completion,14507.5,573234.5999999,573232.8,573249.5,587757,587758.5999999,2024-02-17T19:25:06Z,587773.7,NULL,Konkurrent,mshindani,d,NA,NA,NA,NA,qt,NA,3,NA,NA,NA,NA,NA,NA,NA,NA,NA,NA,NA,NA,NA,NA,NA,NA,NA,NA,NA
8e4dd,shallow,flow.Sequence,3_0_3_0_2_1,NA,NA,skipped,NA,587758.9000001,NA,NA,587757,587759,2024-02-17T19:25:06Z,587773.7,NULL,Konkurrent,mshindani,d,NA,NA,NA,NA,qt,NA,3,NA,NA,NA,NA,NA,NA,NA,NA,NA,NA,NA,NA,NA,NA,NA,NA,NA,NA,NA
8e4dd,task,flow.Sequence,3_0_3_0_2,NA,NA,completion,14507.5,573234.5,573232.8,573249.5,587757,587759.29999995,2024-02-17T19:25:06Z,587773.7,NULL,Konkurrent,mshindani,d,NA,NA,NA,NA,qt,NA,3,NA,NA,NA,NA,NA,NA,NA,NA,NA,NA,NA,NA,NA,NA,NA,NA,NA,NA,NA
8e4dd,Deep Question,html.Page,3_0_3_0_3_0_0,NA,NA,form submission,4573.5000000477,587759.5,587757,587773.7,592347.20000005,592347.5,2024-02-17T19:25:11Z,592354.1,NULL,Vorsorge,tahadhari,d,NA,NA,NA,dd,NA,NA,3,NA,NA,NA,NA,NA,NA,NA,NA,NA,NA,NA,NA,NA,NA,NA,NA,NA,NA,NA
8e4dd,"""Richtig""-Screen",canvas.Screen,3_0_3_0_3_0_1,NA,NA,skipped,NA,592350.79999995,NA,NA,592347.20000005,592350.9000001,2024-02-17T19:25:11Z,592354.1,NULL,Vorsorge,tahadhari,d,NA,NA,NA,NA,qt,NA,3,NA,NA,NA,NA,NA,NA,NA,NA,NA,NA,NA,NA,NA,NA,NA,NA,NA,NA,NA
8e4dd,"""Falsch""-Screen",canvas.Screen,3_0_3_0_3_0_2,NA,NA,timeout,4997,592351.29999995,592338.054,592354.1,597334.6,597335.9000001,2024-02-17T19:25:16Z,597351.1,NULL,Vorsorge,tahadhari,d,NA,NA,NA,NA,qt,0,3,NA,NA,NA,NA,NA,NA,NA,NA,NA,NA,NA,NA,NA,NA,NA,NA,NA,NA,NA
8e4dd,deep,flow.Sequence,3_0_3_0_3_0,NA,NA,completion,9560.9,587759.4000001,587757,587773.7,597334.6,597336.29999995,2024-02-17T19:25:16Z,597351.1,NULL,Vorsorge,tahadhari,d,NA,NA,NA,NA,qt,NA,3,NA,NA,NA,NA,NA,NA,NA,NA,NA,NA,NA,NA,NA,NA,NA,NA,NA,NA,NA
8e4dd,shallow,flow.Sequence,3_0_3_0_3_1,NA,NA,skipped,NA,597336.5,NA,NA,597334.6,597336.5999999,2024-02-17T19:25:16Z,597351.1,NULL,Vorsorge,tahadhari,d,NA,NA,NA,NA,qt,NA,3,NA,NA,NA,NA,NA,NA,NA,NA,NA,NA,NA,NA,NA,NA,NA,NA,NA,NA,NA
8e4dd,task,flow.Sequence,3_0_3_0_3,NA,NA,completion,9560.9,587759.4000001,587757,587773.7,597334.6,597336.9000001,2024-02-17T19:25:16Z,597351.1,NULL,Vorsorge,tahadhari,d,NA,NA,NA,NA,qt,NA,3,NA,NA,NA,NA,NA,NA,NA,NA,NA,NA,NA,NA,NA,NA,NA,NA,NA,NA,NA
8e4dd,deep,flow.Sequence,3_0_3_0_4_0,NA,NA,skipped,NA,597337.0999999,NA,NA,597334.6,597337.20000005,2024-02-17T19:25:16Z,597351.1,NULL,Symbol,kielezo,s,kinyume,nderemo,utayari,NA,qt,NA,3,NA,NA,NA,NA,NA,NA,NA,NA,NA,NA,NA,NA,NA,NA,NA,NA,NA,NA,NA
8e4dd,Shallow Question,html.Page,3_0_3_0_4_1_0,NA,NA,form submission,8461.3000000954,597337.4000001,597334.6,597351.1,605812.4000001,605812.70000005,2024-02-17T19:25:24Z,605829.7,NULL,Symbol,kielezo,s,kinyume,nderemo,utayari,kielezo,NA,NA,3,NA,NA,NA,NA,NA,NA,NA,NA,NA,NA,NA,NA,NA,NA,NA,NA,NA,NA,NA
8e4dd,"""Richtig""-Screen",canvas.Screen,3_0_3_0_4_1_1,NA,NA,timeout,4996.8,605815.9000001,605813.354,605829.7,610809.5,610810.20000005,2024-02-17T19:25:29Z,610826.5,NULL,Symbol,kielezo,s,kinyume,nderemo,utayari,NA,qt,1,3,NA,NA,NA,NA,NA,NA,NA,NA,NA,NA,NA,NA,NA,NA,NA,NA,NA,NA,NA
8e4dd,"""Falsch""-Screen",canvas.Screen,3_0_3_0_4_1_2,NA,NA,skipped,NA,610813.79999995,NA,NA,610809.5,610813.9000001,2024-02-17T19:25:29Z,610826.5,NULL,Symbol,kielezo,s,kinyume,nderemo,utayari,NA,qt,NA,3,NA,NA,NA,NA,NA,NA,NA,NA,NA,NA,NA,NA,NA,NA,NA,NA,NA,NA,NA
8e4dd,shallow,flow.Sequence,3_0_3_0_4_1,NA,NA,completion,13458.4,597337.4000001,597334.6,597351.1,610809.5,610814.0999999,2024-02-17T19:25:29Z,610826.5,NULL,Symbol,kielezo,s,kinyume,nderemo,utayari,NA,qt,NA,3,NA,NA,NA,NA,NA,NA,NA,NA,NA,NA,NA,NA,NA,NA,NA,NA,NA,NA,NA
8e4dd,task,flow.Sequence,3_0_3_0_4,NA,NA,completion,13458.4,597337.0999999,597334.6,597351.1,610809.5,610814.20000005,2024-02-17T19:25:29Z,610826.5,NULL,Symbol,kielezo,s,kinyume,nderemo,utayari,NA,qt,NA,3,NA,NA,NA,NA,NA,NA,NA,NA,NA,NA,NA,NA,NA,NA,NA,NA,NA,NA,NA
8e4dd,deep,flow.Sequence,3_0_3_0_5_0,NA,NA,skipped,NA,610814.29999995,NA,NA,610809.5,610814.4000001,2024-02-17T19:25:29Z,610826.5,NULL,Spionage,upelelezi,s,maslahi,utokazo,magangao,NA,qt,NA,3,NA,NA,NA,NA,NA,NA,NA,NA,NA,NA,NA,NA,NA,NA,NA,NA,NA,NA,NA
8e4dd,Shallow Question,html.Page,3_0_3_0_5_1_0,NA,NA,form submission,4060.2000000477,610814.4000001,610809.5,610826.5,614886.70000005,614886.9000001,2024-02-17T19:25:33Z,614907,NULL,Spionage,upelelezi,s,maslahi,utokazo,magangao,upelelezi,NA,NA,3,NA,NA,NA,NA,NA,NA,NA,NA,NA,NA,NA,NA,NA,NA,NA,NA,NA,NA,NA
8e4dd,"""Richtig""-Screen",canvas.Screen,3_0_3_0_5_1_1,NA,NA,timeout,4997,614889.9000001,614890.952,614907,619887.3,619888.5999999,2024-02-17T19:25:38Z,619904,NULL,Spionage,upelelezi,s,maslahi,utokazo,magangao,NA,qt,1,3,NA,NA,NA,NA,NA,NA,NA,NA,NA,NA,NA,NA,NA,NA,NA,NA,NA,NA,NA
8e4dd,"""Falsch""-Screen",canvas.Screen,3_0_3_0_5_1_2,NA,NA,skipped,NA,619894.0999999,NA,NA,619887.3,619894.4000001,2024-02-17T19:25:38Z,619904,NULL,Spionage,upelelezi,s,maslahi,utokazo,magangao,NA,qt,NA,3,NA,NA,NA,NA,NA,NA,NA,NA,NA,NA,NA,NA,NA,NA,NA,NA,NA,NA,NA
8e4dd,shallow,flow.Sequence,3_0_3_0_5_1,NA,NA,completion,9060.8,610814.4000001,610809.5,610826.5,619887.3,619894.70000005,2024-02-17T19:25:38Z,619904,NULL,Spionage,upelelezi,s,maslahi,utokazo,magangao,NA,qt,NA,3,NA,NA,NA,NA,NA,NA,NA,NA,NA,NA,NA,NA,NA,NA,NA,NA,NA,NA,NA
8e4dd,task,flow.Sequence,3_0_3_0_5,NA,NA,completion,9060.8,610814.29999995,610809.5,610826.5,619887.3,619894.9000001,2024-02-17T19:25:38Z,619904,NULL,Spionage,upelelezi,s,maslahi,utokazo,magangao,NA,qt,NA,3,NA,NA,NA,NA,NA,NA,NA,NA,NA,NA,NA,NA,NA,NA,NA,NA,NA,NA,NA
8e4dd,deep,flow.Sequence,3_0_3_0_6_0,NA,NA,skipped,NA,619895.0999999,NA,NA,619887.3,619895.29999995,2024-02-17T19:25:38Z,619904,NULL,Zuwachs,nyongeza,s,matilaba,udhibiti,hudhurio,NA,qt,NA,3,NA,NA,NA,NA,NA,NA,NA,NA,NA,NA,NA,NA,NA,NA,NA,NA,NA,NA,NA
8e4dd,Shallow Question,html.Page,3_0_3_0_6_1_0,NA,NA,form submission,8370.9000000954,619895.5,619887.3,619904,628274.9000001,628275.0999999,2024-02-17T19:25:47Z,628282.1,NULL,Zuwachs,nyongeza,s,matilaba,udhibiti,hudhurio,hudhurio,NA,NA,3,NA,NA,NA,NA,NA,NA,NA,NA,NA,NA,NA,NA,NA,NA,NA,NA,NA,NA,NA
8e4dd,"""Richtig""-Screen",canvas.Screen,3_0_3_0_6_1_1,NA,NA,skipped,NA,628277.0999999,NA,NA,628274.9000001,628277.20000005,2024-02-17T19:25:47Z,628282.1,NULL,Zuwachs,nyongeza,s,matilaba,udhibiti,hudhurio,NA,qt,NA,3,NA,NA,NA,NA,NA,NA,NA,NA,NA,NA,NA,NA,NA,NA,NA,NA,NA,NA,NA
8e4dd,"""Falsch""-Screen",canvas.Screen,3_0_3_0_6_1_2,NA,NA,timeout,4997,628277.79999995,628266.03,628282.1,633263,633263.9000001,2024-02-17T19:25:52Z,633279.1,NULL,Zuwachs,nyongeza,s,matilaba,udhibiti,hudhurio,NA,qt,0,3,NA,NA,NA,NA,NA,NA,NA,NA,NA,NA,NA,NA,NA,NA,NA,NA,NA,NA,NA
8e4dd,shallow,flow.Sequence,3_0_3_0_6_1,NA,NA,completion,13359,619895.4000001,619887.3,619904,633263,633264.29999995,2024-02-17T19:25:52Z,633279.1,NULL,Zuwachs,nyongeza,s,matilaba,udhibiti,hudhurio,NA,qt,NA,3,NA,NA,NA,NA,NA,NA,NA,NA,NA,NA,NA,NA,NA,NA,NA,NA,NA,NA,NA
8e4dd,task,flow.Sequence,3_0_3_0_6,NA,NA,completion,13359,619895.0999999,619887.3,619904,633263,633264.5,2024-02-17T19:25:52Z,633279.1,NULL,Zuwachs,nyongeza,s,matilaba,udhibiti,hudhurio,NA,qt,NA,3,NA,NA,NA,NA,NA,NA,NA,NA,NA,NA,NA,NA,NA,NA,NA,NA,NA,NA,NA
8e4dd,Deep Question,html.Page,3_0_3_0_7_0_0,NA,NA,form submission,12803.300000095,633264.79999995,633263,633279.1,646082.4000001,646082.5,2024-02-17T19:26:04Z,646105.1,NULL,Tester,wanaojaribu,d,NA,NA,NA,ddd,NA,NA,3,NA,NA,NA,NA,NA,NA,NA,NA,NA,NA,NA,NA,NA,NA,NA,NA,NA,NA,NA
8e4dd,"""Richtig""-Screen",canvas.Screen,3_0_3_0_7_0_1,NA,NA,skipped,NA,646085.70000005,NA,NA,646082.4000001,646085.9000001,2024-02-17T19:26:04Z,646105.1,NULL,Tester,wanaojaribu,d,NA,NA,NA,NA,qt,NA,3,NA,NA,NA,NA,NA,NA,NA,NA,NA,NA,NA,NA,NA,NA,NA,NA,NA,NA,NA
8e4dd,"""Falsch""-Screen",canvas.Screen,3_0_3_0_7_0_2,NA,NA,timeout,4996.8,646086.70000005,646087.9,646105.1,651085.4,651086.29999995,2024-02-17T19:26:09Z,651101.9,NULL,Tester,wanaojaribu,d,NA,NA,NA,NA,qt,0,3,NA,NA,NA,NA,NA,NA,NA,NA,NA,NA,NA,NA,NA,NA,NA,NA,NA,NA,NA
8e4dd,deep,flow.Sequence,3_0_3_0_7_0,NA,NA,completion,17806.3,633264.79999995,633263,633279.1,651085.4,651086.70000005,2024-02-17T19:26:09Z,651101.9,NULL,Tester,wanaojaribu,d,NA,NA,NA,NA,qt,NA,3,NA,NA,NA,NA,NA,NA,NA,NA,NA,NA,NA,NA,NA,NA,NA,NA,NA,NA,NA
8e4dd,shallow,flow.Sequence,3_0_3_0_7_1,NA,NA,skipped,NA,651086.79999995,NA,NA,651085.4,651086.9000001,2024-02-17T19:26:09Z,651101.9,NULL,Tester,wanaojaribu,d,NA,NA,NA,NA,qt,NA,3,NA,NA,NA,NA,NA,NA,NA,NA,NA,NA,NA,NA,NA,NA,NA,NA,NA,NA,NA
8e4dd,task,flow.Sequence,3_0_3_0_7,NA,NA,completion,17806.3,633264.70000005,633263,633279.1,651085.4,651087.20000005,2024-02-17T19:26:09Z,651101.9,NULL,Tester,wanaojaribu,d,NA,NA,NA,NA,qt,NA,3,NA,NA,NA,NA,NA,NA,NA,NA,NA,NA,NA,NA,NA,NA,NA,NA,NA,NA,NA
8e4dd,block,flow.Loop,3_0_3_0,NA,NA,completion,118860.318,532230.5,532225.082,532225.082,651085.4,651087.4000001,2024-02-17T19:26:09Z,651101.9,NULL,NA,NA,NA,NA,NA,NA,NA,qt,NA,3,NA,NA,NA,NA,NA,NA,NA,NA,NA,NA,NA,NA,NA,NA,NA,NA,NA,NA,NA
8e4dd,weiter,canvas.Screen,3_0_3_1,sdf,keypress(Space),response,8418.3999999523,651087.5999999,651085.4,651101.9,659520.29999995,659520.79999995,2024-02-17T19:26:18Z,659547.032,NULL,NA,NA,NA,NA,NA,NA,NA,qt,NA,3,NA,NA,NA,NA,NA,NA,NA,NA,NA,NA,NA,NA,NA,NA,NA,NA,NA,NA,NA
8e4dd,check continue,flow.Sequence,3_0_3,NA,NA,completion,127295.21799995,532230.5,532225.082,532225.082,659520.29999995,659521,2024-02-17T19:26:18Z,659547.032,NULL,NA,NA,NA,NA,NA,NA,NA,qt,NA,3,NA,NA,NA,NA,NA,NA,NA,NA,NA,NA,NA,NA,NA,NA,NA,NA,NA,NA,NA
8e4dd,deep,flow.Sequence,3_0_4_0_0_0,NA,NA,skipped,NA,659542.9000001,NA,NA,659520.29999995,659543,2024-02-17T19:26:18Z,659547.032,NULL,Spionage,upelelezi,s,maslahi,utokazo,magangao,NA,sd,NA,4,NA,NA,NA,NA,NA,NA,NA,NA,NA,NA,NA,NA,NA,NA,NA,NA,NA,NA,NA
8e4dd,Shallow Question,html.Page,3_0_4_0_0_1_0,NA,NA,form submission,6068.5679999046,659543.0999999,659547.032,659547.032,665615.5999999,665615.9000001,2024-02-17T19:26:24Z,665643.1,NULL,Spionage,upelelezi,s,maslahi,utokazo,magangao,upelelezi,NA,NA,4,NA,NA,NA,NA,NA,NA,NA,NA,NA,NA,NA,NA,NA,NA,NA,NA,NA,NA,NA
8e4dd,"""Richtig""-Screen",canvas.Screen,3_0_4_0_0_1_1,NA,NA,timeout,4996.7000000001,665619,665626.3,665643.1,670623.4,670624.29999995,2024-02-17T19:26:29Z,670639.8,NULL,Spionage,upelelezi,s,maslahi,utokazo,magangao,NA,sd,1,4,NA,NA,NA,NA,NA,NA,NA,NA,NA,NA,NA,NA,NA,NA,NA,NA,NA,NA,NA
8e4dd,"""Falsch""-Screen",canvas.Screen,3_0_4_0_0_1_2,NA,NA,skipped,NA,670627.29999995,NA,NA,670623.4,670627.5,2024-02-17T19:26:29Z,670639.8,NULL,Spionage,upelelezi,s,maslahi,utokazo,magangao,NA,sd,NA,4,NA,NA,NA,NA,NA,NA,NA,NA,NA,NA,NA,NA,NA,NA,NA,NA,NA,NA,NA
8e4dd,shallow,flow.Sequence,3_0_4_0_0_1,NA,NA,completion,11076.368,659543.0999999,659547.032,659547.032,670623.4,670627.5999999,2024-02-17T19:26:29Z,670639.8,NULL,Spionage,upelelezi,s,maslahi,utokazo,magangao,NA,sd,NA,4,NA,NA,NA,NA,NA,NA,NA,NA,NA,NA,NA,NA,NA,NA,NA,NA,NA,NA,NA
8e4dd,task,flow.Sequence,3_0_4_0_0,NA,NA,completion,11076.368,659542.9000001,659547.032,659547.032,670623.4,670627.70000005,2024-02-17T19:26:29Z,670639.8,NULL,Spionage,upelelezi,s,maslahi,utokazo,magangao,NA,sd,NA,4,NA,NA,NA,NA,NA,NA,NA,NA,NA,NA,NA,NA,NA,NA,NA,NA,NA,NA,NA
8e4dd,deep,flow.Sequence,3_0_4_0_1_0,NA,NA,skipped,NA,670627.79999995,NA,NA,670623.4,670627.9000001,2024-02-17T19:26:29Z,670639.8,NULL,Symbol,kielezo,s,kinyume,nderemo,utayari,NA,sd,NA,4,NA,NA,NA,NA,NA,NA,NA,NA,NA,NA,NA,NA,NA,NA,NA,NA,NA,NA,NA
8e4dd,Shallow Question,html.Page,3_0_4_0_1_1_0,NA,NA,form submission,7164.9999999523,670627.9000001,670623.4,670639.8,677804.79999995,677805.0999999,2024-02-17T19:26:36Z,677835.1,NULL,Symbol,kielezo,s,kinyume,nderemo,utayari,kielezo,NA,NA,4,NA,NA,NA,NA,NA,NA,NA,NA,NA,NA,NA,NA,NA,NA,NA,NA,NA,NA,NA
8e4dd,"""Richtig""-Screen",canvas.Screen,3_0_4_0_1_1_1,NA,NA,timeout,4997.6,677808.0999999,677819.158,677835.1,682815.9,682817.0999999,2024-02-17T19:26:41Z,682832.7,NULL,Symbol,kielezo,s,kinyume,nderemo,utayari,NA,sd,1,4,NA,NA,NA,NA,NA,NA,NA,NA,NA,NA,NA,NA,NA,NA,NA,NA,NA,NA,NA
8e4dd,"""Falsch""-Screen",canvas.Screen,3_0_4_0_1_1_2,NA,NA,skipped,NA,682821.9000001,NA,NA,682815.9,682822.0999999,2024-02-17T19:26:41Z,682832.7,NULL,Symbol,kielezo,s,kinyume,nderemo,utayari,NA,sd,NA,4,NA,NA,NA,NA,NA,NA,NA,NA,NA,NA,NA,NA,NA,NA,NA,NA,NA,NA,NA
8e4dd,shallow,flow.Sequence,3_0_4_0_1_1,NA,NA,completion,12176.1,670627.9000001,670623.4,670639.8,682815.9,682822.20000005,2024-02-17T19:26:41Z,682832.7,NULL,Symbol,kielezo,s,kinyume,nderemo,utayari,NA,sd,NA,4,NA,NA,NA,NA,NA,NA,NA,NA,NA,NA,NA,NA,NA,NA,NA,NA,NA,NA,NA
8e4dd,task,flow.Sequence,3_0_4_0_1,NA,NA,completion,12176.1,670627.79999995,670623.4,670639.8,682815.9,682822.20000005,2024-02-17T19:26:41Z,682832.7,NULL,Symbol,kielezo,s,kinyume,nderemo,utayari,NA,sd,NA,4,NA,NA,NA,NA,NA,NA,NA,NA,NA,NA,NA,NA,NA,NA,NA,NA,NA,NA,NA
8e4dd,deep,flow.Sequence,3_0_4_0_2_0,NA,NA,skipped,NA,682822.20000005,NA,NA,682815.9,682822.29999995,2024-02-17T19:26:41Z,682832.7,NULL,Fenster,dirisha,s,walakini,tasawari,maarifa,NA,sd,NA,4,NA,NA,NA,NA,NA,NA,NA,NA,NA,NA,NA,NA,NA,NA,NA,NA,NA,NA,NA
8e4dd,Shallow Question,html.Page,3_0_4_0_2_1_0,NA,NA,form submission,4114.5000000477,682822.29999995,682815.9,682832.7,686947.20000005,686947.29999995,2024-02-17T19:26:45Z,686980.1,NULL,Fenster,dirisha,s,walakini,tasawari,maarifa,dirisha,NA,NA,4,NA,NA,NA,NA,NA,NA,NA,NA,NA,NA,NA,NA,NA,NA,NA,NA,NA,NA,NA
8e4dd,"""Richtig""-Screen",canvas.Screen,3_0_4_0_2_1_1,NA,NA,timeout,4996.7000000001,686948.79999995,686963.3,686980.1,691959.8,691969,2024-02-17T19:26:50Z,691976.8,NULL,Fenster,dirisha,s,walakini,tasawari,maarifa,NA,sd,1,4,NA,NA,NA,NA,NA,NA,NA,NA,NA,NA,NA,NA,NA,NA,NA,NA,NA,NA,NA
8e4dd,"""Falsch""-Screen",canvas.Screen,3_0_4_0_2_1_2,NA,NA,skipped,NA,691970.4000001,NA,NA,691959.8,691970.5,2024-02-17T19:26:50Z,691976.8,NULL,Fenster,dirisha,s,walakini,tasawari,maarifa,NA,sd,NA,4,NA,NA,NA,NA,NA,NA,NA,NA,NA,NA,NA,NA,NA,NA,NA,NA,NA,NA,NA
8e4dd,shallow,flow.Sequence,3_0_4_0_2_1,NA,NA,completion,9127.1000000001,682822.29999995,682815.9,682832.7,691959.8,691970.5999999,2024-02-17T19:26:50Z,691976.8,NULL,Fenster,dirisha,s,walakini,tasawari,maarifa,NA,sd,NA,4,NA,NA,NA,NA,NA,NA,NA,NA,NA,NA,NA,NA,NA,NA,NA,NA,NA,NA,NA
8e4dd,task,flow.Sequence,3_0_4_0_2,NA,NA,completion,9127.1000000001,682822.20000005,682815.9,682832.7,691959.8,691970.5999999,2024-02-17T19:26:50Z,691976.8,NULL,Fenster,dirisha,s,walakini,tasawari,maarifa,NA,sd,NA,4,NA,NA,NA,NA,NA,NA,NA,NA,NA,NA,NA,NA,NA,NA,NA,NA,NA,NA,NA
8e4dd,Deep Question,html.Page,3_0_4_0_3_0_0,NA,NA,form submission,9580.2999999046,691970.70000005,691959.8,691976.8,701557.0999999,701557.4000001,2024-02-17T19:27:00Z,701587.4,NULL,Konkurrent,mshindani,d,NA,NA,NA,ff,NA,NA,4,NA,NA,NA,NA,NA,NA,NA,NA,NA,NA,NA,NA,NA,NA,NA,NA,NA,NA,NA
8e4dd,"""Richtig""-Screen",canvas.Screen,3_0_4_0_3_0_1,NA,NA,skipped,NA,701559.0999999,NA,NA,701557.0999999,701559.29999995,2024-02-17T19:27:00Z,701587.4,NULL,Konkurrent,mshindani,d,NA,NA,NA,NA,sd,NA,4,NA,NA,NA,NA,NA,NA,NA,NA,NA,NA,NA,NA,NA,NA,NA,NA,NA,NA,NA
8e4dd,"""Falsch""-Screen",canvas.Screen,3_0_4_0_3_0_2,NA,NA,timeout,4997.4,701559.70000005,701570.7,701587.4,706567.6,706568.4000001,2024-02-17T19:27:05Z,706584.8,NULL,Konkurrent,mshindani,d,NA,NA,NA,NA,sd,0,4,NA,NA,NA,NA,NA,NA,NA,NA,NA,NA,NA,NA,NA,NA,NA,NA,NA,NA,NA
8e4dd,deep,flow.Sequence,3_0_4_0_3_0,NA,NA,completion,14590.8,691970.70000005,691959.8,691976.8,706567.6,706568.5,2024-02-17T19:27:05Z,706584.8,NULL,Konkurrent,mshindani,d,NA,NA,NA,NA,sd,NA,4,NA,NA,NA,NA,NA,NA,NA,NA,NA,NA,NA,NA,NA,NA,NA,NA,NA,NA,NA
8e4dd,shallow,flow.Sequence,3_0_4_0_3_1,NA,NA,skipped,NA,706568.70000005,NA,NA,706567.6,706568.70000005,2024-02-17T19:27:05Z,706584.8,NULL,Konkurrent,mshindani,d,NA,NA,NA,NA,sd,NA,4,NA,NA,NA,NA,NA,NA,NA,NA,NA,NA,NA,NA,NA,NA,NA,NA,NA,NA,NA
8e4dd,task,flow.Sequence,3_0_4_0_3,NA,NA,completion,14590.8,691970.70000005,691959.8,691976.8,706567.6,706568.9000001,2024-02-17T19:27:05Z,706584.8,NULL,Konkurrent,mshindani,d,NA,NA,NA,NA,sd,NA,4,NA,NA,NA,NA,NA,NA,NA,NA,NA,NA,NA,NA,NA,NA,NA,NA,NA,NA,NA
8e4dd,Deep Question,html.Page,3_0_4_0_4_0_0,NA,NA,form submission,14406.100000095,706569,706567.6,706584.8,720990.9000001,720991.0999999,2024-02-17T19:27:19Z,720992.892,NULL,Tester,wanaojaribu,d,NA,NA,NA,dddd,NA,NA,4,NA,NA,NA,NA,NA,NA,NA,NA,NA,NA,NA,NA,NA,NA,NA,NA,NA,NA,NA
8e4dd,"""Richtig""-Screen",canvas.Screen,3_0_4_0_4_0_1,NA,NA,skipped,NA,720994.29999995,NA,NA,720990.9000001,720994.5,2024-02-17T19:27:19Z,720992.892,NULL,Tester,wanaojaribu,d,NA,NA,NA,NA,sd,NA,4,NA,NA,NA,NA,NA,NA,NA,NA,NA,NA,NA,NA,NA,NA,NA,NA,NA,NA,NA
8e4dd,"""Falsch""-Screen",canvas.Screen,3_0_4_0_4_0_2,NA,NA,timeout,4996.508,720995.20000005,720992.892,720992.892,725973,725973.5,2024-02-17T19:27:24Z,725989.4,NULL,Tester,wanaojaribu,d,NA,NA,NA,NA,sd,0,4,NA,NA,NA,NA,NA,NA,NA,NA,NA,NA,NA,NA,NA,NA,NA,NA,NA,NA,NA
8e4dd,deep,flow.Sequence,3_0_4_0_4_0,NA,NA,completion,19388.2,706569,706567.6,706584.8,725973,725973.70000005,2024-02-17T19:27:24Z,725989.4,NULL,Tester,wanaojaribu,d,NA,NA,NA,NA,sd,NA,4,NA,NA,NA,NA,NA,NA,NA,NA,NA,NA,NA,NA,NA,NA,NA,NA,NA,NA,NA
8e4dd,shallow,flow.Sequence,3_0_4_0_4_1,NA,NA,skipped,NA,725973.70000005,NA,NA,725973,725973.79999995,2024-02-17T19:27:24Z,725989.4,NULL,Tester,wanaojaribu,d,NA,NA,NA,NA,sd,NA,4,NA,NA,NA,NA,NA,NA,NA,NA,NA,NA,NA,NA,NA,NA,NA,NA,NA,NA,NA
8e4dd,task,flow.Sequence,3_0_4_0_4,NA,NA,completion,19388.2,706569,706567.6,706584.8,725973,725973.9000001,2024-02-17T19:27:24Z,725989.4,NULL,Tester,wanaojaribu,d,NA,NA,NA,NA,sd,NA,4,NA,NA,NA,NA,NA,NA,NA,NA,NA,NA,NA,NA,NA,NA,NA,NA,NA,NA,NA
8e4dd,Deep Question,html.Page,3_0_4_0_5_0_0,NA,NA,form submission,12716.500000095,725974,725973,725989.4,738705.9000001,738706.20000005,2024-02-17T19:27:37Z,738731.8,NULL,Schüler,mwanafunzi,d,NA,NA,NA,fff,NA,NA,4,NA,NA,NA,NA,NA,NA,NA,NA,NA,NA,NA,NA,NA,NA,NA,NA,NA,NA,NA
8e4dd,"""Richtig""-Screen",canvas.Screen,3_0_4_0_5_0_1,NA,NA,skipped,NA,738709.5999999,NA,NA,738705.9000001,738709.70000005,2024-02-17T19:27:37Z,738731.8,NULL,Schüler,mwanafunzi,d,NA,NA,NA,NA,sd,NA,4,NA,NA,NA,NA,NA,NA,NA,NA,NA,NA,NA,NA,NA,NA,NA,NA,NA,NA,NA
8e4dd,"""Falsch""-Screen",canvas.Screen,3_0_4_0_5_0_2,NA,NA,timeout,4996.7999999999,738710.5999999,738714.6,738731.8,743711.8,743712.70000005,2024-02-17T19:27:42Z,743728.6,NULL,Schüler,mwanafunzi,d,NA,NA,NA,NA,sd,0,4,NA,NA,NA,NA,NA,NA,NA,NA,NA,NA,NA,NA,NA,NA,NA,NA,NA,NA,NA
8e4dd,deep,flow.Sequence,3_0_4_0_5_0,NA,NA,completion,17722.4,725974,725973,725989.4,743711.8,743713.0999999,2024-02-17T19:27:42Z,743728.6,NULL,Schüler,mwanafunzi,d,NA,NA,NA,NA,sd,NA,4,NA,NA,NA,NA,NA,NA,NA,NA,NA,NA,NA,NA,NA,NA,NA,NA,NA,NA,NA
8e4dd,shallow,flow.Sequence,3_0_4_0_5_1,NA,NA,skipped,NA,743713.29999995,NA,NA,743711.8,743713.4000001,2024-02-17T19:27:42Z,743728.6,NULL,Schüler,mwanafunzi,d,NA,NA,NA,NA,sd,NA,4,NA,NA,NA,NA,NA,NA,NA,NA,NA,NA,NA,NA,NA,NA,NA,NA,NA,NA,NA
8e4dd,task,flow.Sequence,3_0_4_0_5,NA,NA,completion,17722.4,725974,725973,725989.4,743711.8,743713.5999999,2024-02-17T19:27:42Z,743728.6,NULL,Schüler,mwanafunzi,d,NA,NA,NA,NA,sd,NA,4,NA,NA,NA,NA,NA,NA,NA,NA,NA,NA,NA,NA,NA,NA,NA,NA,NA,NA,NA
8e4dd,deep,flow.Sequence,3_0_4_0_6_0,NA,NA,skipped,NA,743713.79999995,NA,NA,743711.8,743713.9000001,2024-02-17T19:27:42Z,743728.6,NULL,Zuwachs,nyongeza,s,matilaba,udhibiti,hudhurio,NA,sd,NA,4,NA,NA,NA,NA,NA,NA,NA,NA,NA,NA,NA,NA,NA,NA,NA,NA,NA,NA,NA
8e4dd,Shallow Question,html.Page,3_0_4_0_6_1_0,NA,NA,form submission,19219.9,743714,743711.8,743728.6,762948.5,762948.70000005,2024-02-17T19:28:01Z,762950.49,NULL,Zuwachs,nyongeza,s,matilaba,udhibiti,hudhurio,nyongeza,NA,NA,4,NA,NA,NA,NA,NA,NA,NA,NA,NA,NA,NA,NA,NA,NA,NA,NA,NA,NA,NA
8e4dd,"""Richtig""-Screen",canvas.Screen,3_0_4_0_6_1_1,NA,NA,timeout,4996.3100000001,762951.9000001,762950.49,762950.49,767930.6,767931.5,2024-02-17T19:28:06Z,767946.8,NULL,Zuwachs,nyongeza,s,matilaba,udhibiti,hudhurio,NA,sd,1,4,NA,NA,NA,NA,NA,NA,NA,NA,NA,NA,NA,NA,NA,NA,NA,NA,NA,NA,NA
8e4dd,"""Falsch""-Screen",canvas.Screen,3_0_4_0_6_1_2,NA,NA,skipped,NA,767936.4000001,NA,NA,767930.6,767936.5,2024-02-17T19:28:06Z,767946.8,NULL,Zuwachs,nyongeza,s,matilaba,udhibiti,hudhurio,NA,sd,NA,4,NA,NA,NA,NA,NA,NA,NA,NA,NA,NA,NA,NA,NA,NA,NA,NA,NA,NA,NA
8e4dd,shallow,flow.Sequence,3_0_4_0_6_1,NA,NA,completion,24202,743714,743711.8,743728.6,767930.6,767936.5999999,2024-02-17T19:28:06Z,767946.8,NULL,Zuwachs,nyongeza,s,matilaba,udhibiti,hudhurio,NA,sd,NA,4,NA,NA,NA,NA,NA,NA,NA,NA,NA,NA,NA,NA,NA,NA,NA,NA,NA,NA,NA
8e4dd,task,flow.Sequence,3_0_4_0_6,NA,NA,completion,24202,743713.79999995,743711.8,743728.6,767930.6,767936.70000005,2024-02-17T19:28:06Z,767946.8,NULL,Zuwachs,nyongeza,s,matilaba,udhibiti,hudhurio,NA,sd,NA,4,NA,NA,NA,NA,NA,NA,NA,NA,NA,NA,NA,NA,NA,NA,NA,NA,NA,NA,NA
8e4dd,Deep Question,html.Page,3_0_4_0_7_0_0,NA,NA,form submission,8898.4999999523,767936.70000005,767930.6,767946.8,776845.29999995,776845.70000005,2024-02-17T19:28:15Z,776858.2,NULL,Vorsorge,tahadhari,d,NA,NA,NA,fff,NA,NA,4,NA,NA,NA,NA,NA,NA,NA,NA,NA,NA,NA,NA,NA,NA,NA,NA,NA,NA,NA
8e4dd,"""Richtig""-Screen",canvas.Screen,3_0_4_0_7_0_1,NA,NA,skipped,NA,776848.70000005,NA,NA,776845.29999995,776848.9000001,2024-02-17T19:28:15Z,776858.2,NULL,Vorsorge,tahadhari,d,NA,NA,NA,NA,sd,NA,4,NA,NA,NA,NA,NA,NA,NA,NA,NA,NA,NA,NA,NA,NA,NA,NA,NA,NA,NA
8e4dd,"""Falsch""-Screen",canvas.Screen,3_0_4_0_7_0_2,NA,NA,timeout,4996.6000000001,776849.70000005,776841.89,776858.2,781838.3,781839.4000001,2024-02-17T19:28:20Z,781854.8,NULL,Vorsorge,tahadhari,d,NA,NA,NA,NA,sd,0,4,NA,NA,NA,NA,NA,NA,NA,NA,NA,NA,NA,NA,NA,NA,NA,NA,NA,NA,NA
8e4dd,deep,flow.Sequence,3_0_4_0_7_0,NA,NA,completion,13891.5,767936.70000005,767930.6,767946.8,781838.3,781839.70000005,2024-02-17T19:28:20Z,781854.8,NULL,Vorsorge,tahadhari,d,NA,NA,NA,NA,sd,NA,4,NA,NA,NA,NA,NA,NA,NA,NA,NA,NA,NA,NA,NA,NA,NA,NA,NA,NA,NA
8e4dd,shallow,flow.Sequence,3_0_4_0_7_1,NA,NA,skipped,NA,781839.9000001,NA,NA,781838.3,781840,2024-02-17T19:28:20Z,781854.8,NULL,Vorsorge,tahadhari,d,NA,NA,NA,NA,sd,NA,4,NA,NA,NA,NA,NA,NA,NA,NA,NA,NA,NA,NA,NA,NA,NA,NA,NA,NA,NA
8e4dd,task,flow.Sequence,3_0_4_0_7,NA,NA,completion,13891.5,767936.70000005,767930.6,767946.8,781838.3,781840.0999999,2024-02-17T19:28:20Z,781854.8,NULL,Vorsorge,tahadhari,d,NA,NA,NA,NA,sd,NA,4,NA,NA,NA,NA,NA,NA,NA,NA,NA,NA,NA,NA,NA,NA,NA,NA,NA,NA,NA
8e4dd,block,flow.Loop,3_0_4_0,NA,NA,completion,122291.268,659542.9000001,659547.032,659547.032,781838.3,781840.4000001,2024-02-17T19:28:20Z,781854.8,NULL,NA,NA,NA,NA,NA,NA,NA,sd,NA,4,NA,NA,NA,NA,NA,NA,NA,NA,NA,NA,NA,NA,NA,NA,NA,NA,NA,NA,NA
8e4dd,weiter,canvas.Screen,3_0_4_1,sdf,keypress(Space),response,1041.2,781840.5,781838.3,781854.8,782896,782896.9000001,2024-02-17T19:28:21Z,782921.398,NULL,NA,NA,NA,NA,NA,NA,NA,sd,NA,4,NA,NA,NA,NA,NA,NA,NA,NA,NA,NA,NA,NA,NA,NA,NA,NA,NA,NA,NA
8e4dd,check continue,flow.Sequence,3_0_4,NA,NA,completion,123348.968,659542.9000001,659547.032,659547.032,782896,782897.29999995,2024-02-17T19:28:21Z,782921.398,NULL,NA,NA,NA,NA,NA,NA,NA,sd,NA,4,NA,NA,NA,NA,NA,NA,NA,NA,NA,NA,NA,NA,NA,NA,NA,NA,NA,NA,NA
8e4dd,Deep Question,html.Page,3_0_5_0_0_0_0,NA,NA,form submission,9062.0020000953,782933.5,782921.398,782921.398,791983.4000001,791983.5,2024-02-17T19:28:30Z,792015.3,NULL,Vorsorge,tahadhari,d,NA,NA,NA,ccc,NA,NA,5,NA,NA,NA,NA,NA,NA,NA,NA,NA,NA,NA,NA,NA,NA,NA,NA,NA,NA,NA
8e4dd,"""Richtig""-Screen",canvas.Screen,3_0_5_0_0_0_1,NA,NA,skipped,NA,791985.0999999,NA,NA,791983.4000001,791985.0999999,2024-02-17T19:28:30Z,792015.3,NULL,Vorsorge,tahadhari,d,NA,NA,NA,NA,sdf,NA,5,NA,NA,NA,NA,NA,NA,NA,NA,NA,NA,NA,NA,NA,NA,NA,NA,NA,NA,NA
8e4dd,"""Falsch""-Screen",canvas.Screen,3_0_5_0_0_0_2,NA,NA,timeout,4997.5,791985.5999999,791998.762,792015.3,796996.1,796996.79999995,2024-02-17T19:28:35Z,797012.8,NULL,Vorsorge,tahadhari,d,NA,NA,NA,NA,sdf,0,5,NA,NA,NA,NA,NA,NA,NA,NA,NA,NA,NA,NA,NA,NA,NA,NA,NA,NA,NA
8e4dd,deep,flow.Sequence,3_0_5_0_0_0,NA,NA,completion,14074.702,782933.5,782921.398,782921.398,796996.1,796997.0999999,2024-02-17T19:28:35Z,797012.8,NULL,Vorsorge,tahadhari,d,NA,NA,NA,NA,sdf,NA,5,NA,NA,NA,NA,NA,NA,NA,NA,NA,NA,NA,NA,NA,NA,NA,NA,NA,NA,NA
8e4dd,shallow,flow.Sequence,3_0_5_0_0_1,NA,NA,skipped,NA,796997.29999995,NA,NA,796996.1,796997.4000001,2024-02-17T19:28:35Z,797012.8,NULL,Vorsorge,tahadhari,d,NA,NA,NA,NA,sdf,NA,5,NA,NA,NA,NA,NA,NA,NA,NA,NA,NA,NA,NA,NA,NA,NA,NA,NA,NA,NA
8e4dd,task,flow.Sequence,3_0_5_0_0,NA,NA,completion,14074.702,782933.5,782921.398,782921.398,796996.1,796997.5,2024-02-17T19:28:35Z,797012.8,NULL,Vorsorge,tahadhari,d,NA,NA,NA,NA,sdf,NA,5,NA,NA,NA,NA,NA,NA,NA,NA,NA,NA,NA,NA,NA,NA,NA,NA,NA,NA,NA
8e4dd,deep,flow.Sequence,3_0_5_0_1_0,NA,NA,skipped,NA,796997.5999999,NA,NA,796996.1,796997.70000005,2024-02-17T19:28:35Z,797012.8,NULL,Spionage,upelelezi,s,maslahi,utokazo,magangao,NA,sdf,NA,5,NA,NA,NA,NA,NA,NA,NA,NA,NA,NA,NA,NA,NA,NA,NA,NA,NA,NA,NA
8e4dd,Shallow Question,html.Page,3_0_5_0_1_1_0,NA,NA,form submission,5479.7,796997.79999995,796996.1,797012.8,802492.5,802492.70000005,2024-02-17T19:28:41Z,802510.8,NULL,Spionage,upelelezi,s,maslahi,utokazo,magangao,upelelezi,NA,NA,5,NA,NA,NA,NA,NA,NA,NA,NA,NA,NA,NA,NA,NA,NA,NA,NA,NA,NA,NA
8e4dd,"""Richtig""-Screen",canvas.Screen,3_0_5_0_1_1_1,NA,NA,timeout,4995.6,802496,802492.856,802510.8,807489.6,807490.5999999,2024-02-17T19:28:46Z,807506.4,NULL,Spionage,upelelezi,s,maslahi,utokazo,magangao,NA,sdf,1,5,NA,NA,NA,NA,NA,NA,NA,NA,NA,NA,NA,NA,NA,NA,NA,NA,NA,NA,NA
8e4dd,"""Falsch""-Screen",canvas.Screen,3_0_5_0_1_1_2,NA,NA,skipped,NA,807495.4000001,NA,NA,807489.6,807495.5999999,2024-02-17T19:28:46Z,807506.4,NULL,Spionage,upelelezi,s,maslahi,utokazo,magangao,NA,sdf,NA,5,NA,NA,NA,NA,NA,NA,NA,NA,NA,NA,NA,NA,NA,NA,NA,NA,NA,NA,NA
8e4dd,shallow,flow.Sequence,3_0_5_0_1_1,NA,NA,completion,10476.8,796997.70000005,796996.1,797012.8,807489.6,807495.70000005,2024-02-17T19:28:46Z,807506.4,NULL,Spionage,upelelezi,s,maslahi,utokazo,magangao,NA,sdf,NA,5,NA,NA,NA,NA,NA,NA,NA,NA,NA,NA,NA,NA,NA,NA,NA,NA,NA,NA,NA
8e4dd,task,flow.Sequence,3_0_5_0_1,NA,NA,completion,10476.8,796997.5999999,796996.1,797012.8,807489.6,807495.70000005,2024-02-17T19:28:46Z,807506.4,NULL,Spionage,upelelezi,s,maslahi,utokazo,magangao,NA,sdf,NA,5,NA,NA,NA,NA,NA,NA,NA,NA,NA,NA,NA,NA,NA,NA,NA,NA,NA,NA,NA
8e4dd,Deep Question,html.Page,3_0_5_0_2_0_0,NA,NA,form submission,13976.199999905,807495.70000005,807489.6,807506.4,821482.5999999,821482.9000001,2024-02-17T19:29:00Z,821497.7,NULL,Konkurrent,mshindani,d,NA,NA,NA,mshidani,NA,NA,5,NA,NA,NA,NA,NA,NA,NA,NA,NA,NA,NA,NA,NA,NA,NA,NA,NA,NA,NA
8e4dd,"""Richtig""-Screen",canvas.Screen,3_0_5_0_2_0_1,NA,NA,skipped,NA,821486.0999999,NA,NA,821482.5999999,821486.20000005,2024-02-17T19:29:00Z,821497.7,NULL,Konkurrent,mshindani,d,NA,NA,NA,NA,sdf,NA,5,NA,NA,NA,NA,NA,NA,NA,NA,NA,NA,NA,NA,NA,NA,NA,NA,NA,NA,NA
8e4dd,"""Falsch""-Screen",canvas.Screen,3_0_5_0_2_0_2,NA,NA,timeout,4997.2000000001,821486.9000001,821481.262,821497.7,826477.6,826478,2024-02-17T19:29:05Z,826494.9,NULL,Konkurrent,mshindani,d,NA,NA,NA,NA,sdf,0,5,NA,NA,NA,NA,NA,NA,NA,NA,NA,NA,NA,NA,NA,NA,NA,NA,NA,NA,NA
8e4dd,deep,flow.Sequence,3_0_5_0_2_0,NA,NA,completion,18971.2,807495.70000005,807489.6,807506.4,826477.6,826478.20000005,2024-02-17T19:29:05Z,826494.9,NULL,Konkurrent,mshindani,d,NA,NA,NA,NA,sdf,NA,5,NA,NA,NA,NA,NA,NA,NA,NA,NA,NA,NA,NA,NA,NA,NA,NA,NA,NA,NA
8e4dd,shallow,flow.Sequence,3_0_5_0_2_1,NA,NA,skipped,NA,826478.20000005,NA,NA,826477.6,826478.20000005,2024-02-17T19:29:05Z,826494.9,NULL,Konkurrent,mshindani,d,NA,NA,NA,NA,sdf,NA,5,NA,NA,NA,NA,NA,NA,NA,NA,NA,NA,NA,NA,NA,NA,NA,NA,NA,NA,NA
8e4dd,task,flow.Sequence,3_0_5_0_2,NA,NA,completion,18971.2,807495.70000005,807489.6,807506.4,826477.6,826478.29999995,2024-02-17T19:29:05Z,826494.9,NULL,Konkurrent,mshindani,d,NA,NA,NA,NA,sdf,NA,5,NA,NA,NA,NA,NA,NA,NA,NA,NA,NA,NA,NA,NA,NA,NA,NA,NA,NA,NA
8e4dd,deep,flow.Sequence,3_0_5_0_3_0,NA,NA,skipped,NA,826478.4000001,NA,NA,826477.6,826478.4000001,2024-02-17T19:29:05Z,826494.9,NULL,Zuwachs,nyongeza,s,matilaba,udhibiti,hudhurio,NA,sdf,NA,5,NA,NA,NA,NA,NA,NA,NA,NA,NA,NA,NA,NA,NA,NA,NA,NA,NA,NA,NA
8e4dd,Shallow Question,html.Page,3_0_5_0_3_1_0,NA,NA,form submission,5926.6999999046,826478.4000001,826477.6,826494.9,832421.5999999,832421.9000001,2024-02-17T19:29:11Z,832441.2,NULL,Zuwachs,nyongeza,s,matilaba,udhibiti,hudhurio,nyongeza,NA,NA,5,NA,NA,NA,NA,NA,NA,NA,NA,NA,NA,NA,NA,NA,NA,NA,NA,NA,NA,NA
8e4dd,"""Richtig""-Screen",canvas.Screen,3_0_5_0_3_1_1,NA,NA,timeout,4996.8,832425.29999995,832424.624,832441.2,837421.5,837422.70000005,2024-02-17T19:29:16Z,837438,NULL,Zuwachs,nyongeza,s,matilaba,udhibiti,hudhurio,NA,sdf,1,5,NA,NA,NA,NA,NA,NA,NA,NA,NA,NA,NA,NA,NA,NA,NA,NA,NA,NA,NA
8e4dd,"""Falsch""-Screen",canvas.Screen,3_0_5_0_3_1_2,NA,NA,skipped,NA,837428,NA,NA,837421.5,837428.0999999,2024-02-17T19:29:16Z,837438,NULL,Zuwachs,nyongeza,s,matilaba,udhibiti,hudhurio,NA,sdf,NA,5,NA,NA,NA,NA,NA,NA,NA,NA,NA,NA,NA,NA,NA,NA,NA,NA,NA,NA,NA
8e4dd,shallow,flow.Sequence,3_0_5_0_3_1,NA,NA,completion,10926.6,826478.4000001,826477.6,826494.9,837421.5,837428.29999995,2024-02-17T19:29:16Z,837438,NULL,Zuwachs,nyongeza,s,matilaba,udhibiti,hudhurio,NA,sdf,NA,5,NA,NA,NA,NA,NA,NA,NA,NA,NA,NA,NA,NA,NA,NA,NA,NA,NA,NA,NA
8e4dd,task,flow.Sequence,3_0_5_0_3,NA,NA,completion,10926.6,826478.29999995,826477.6,826494.9,837421.5,837428.29999995,2024-02-17T19:29:16Z,837438,NULL,Zuwachs,nyongeza,s,matilaba,udhibiti,hudhurio,NA,sdf,NA,5,NA,NA,NA,NA,NA,NA,NA,NA,NA,NA,NA,NA,NA,NA,NA,NA,NA,NA,NA
8e4dd,deep,flow.Sequence,3_0_5_0_4_0,NA,NA,skipped,NA,837428.4000001,NA,NA,837421.5,837428.4000001,2024-02-17T19:29:16Z,837438,NULL,Fenster,dirisha,s,walakini,tasawari,maarifa,NA,sdf,NA,5,NA,NA,NA,NA,NA,NA,NA,NA,NA,NA,NA,NA,NA,NA,NA,NA,NA,NA,NA
8e4dd,Shallow Question,html.Page,3_0_5_0_4_1_0,NA,NA,form submission,5564.7000000477,837428.4000001,837421.5,837438,843002.70000005,843003.0999999,2024-02-17T19:29:21Z,843017.6,NULL,Fenster,dirisha,s,walakini,tasawari,maarifa,dirisha,NA,NA,5,NA,NA,NA,NA,NA,NA,NA,NA,NA,NA,NA,NA,NA,NA,NA,NA,NA,NA,NA
8e4dd,"""Richtig""-Screen",canvas.Screen,3_0_5_0_4_1_1,NA,NA,timeout,4997.4,843005.79999995,843000.8,843017.6,847997.9,847998.9000001,2024-02-17T19:29:26Z,848015,NULL,Fenster,dirisha,s,walakini,tasawari,maarifa,NA,sdf,1,5,NA,NA,NA,NA,NA,NA,NA,NA,NA,NA,NA,NA,NA,NA,NA,NA,NA,NA,NA
8e4dd,"""Falsch""-Screen",canvas.Screen,3_0_5_0_4_1_2,NA,NA,skipped,NA,848004.20000005,NA,NA,847997.9,848004.29999995,2024-02-17T19:29:26Z,848015,NULL,Fenster,dirisha,s,walakini,tasawari,maarifa,NA,sdf,NA,5,NA,NA,NA,NA,NA,NA,NA,NA,NA,NA,NA,NA,NA,NA,NA,NA,NA,NA,NA
8e4dd,shallow,flow.Sequence,3_0_5_0_4_1,NA,NA,completion,10559.9,837428.4000001,837421.5,837438,847997.9,848004.4000001,2024-02-17T19:29:26Z,848015,NULL,Fenster,dirisha,s,walakini,tasawari,maarifa,NA,sdf,NA,5,NA,NA,NA,NA,NA,NA,NA,NA,NA,NA,NA,NA,NA,NA,NA,NA,NA,NA,NA
8e4dd,task,flow.Sequence,3_0_5_0_4,NA,NA,completion,10559.9,837428.29999995,837421.5,837438,847997.9,848004.5,2024-02-17T19:29:26Z,848015,NULL,Fenster,dirisha,s,walakini,tasawari,maarifa,NA,sdf,NA,5,NA,NA,NA,NA,NA,NA,NA,NA,NA,NA,NA,NA,NA,NA,NA,NA,NA,NA,NA
8e4dd,deep,flow.Sequence,3_0_5_0_5_0,NA,NA,skipped,NA,848004.5999999,NA,NA,847997.9,848004.5999999,2024-02-17T19:29:26Z,848015,NULL,Symbol,kielezo,s,kinyume,nderemo,utayari,NA,sdf,NA,5,NA,NA,NA,NA,NA,NA,NA,NA,NA,NA,NA,NA,NA,NA,NA,NA,NA,NA,NA
8e4dd,Shallow Question,html.Page,3_0_5_0_5_1_0,NA,NA,form submission,6271.2000000477,848004.5999999,847997.9,848015,854286.20000005,854286.4000001,2024-02-17T19:29:33Z,854294,NULL,Symbol,kielezo,s,kinyume,nderemo,utayari,kielezo,NA,NA,5,NA,NA,NA,NA,NA,NA,NA,NA,NA,NA,NA,NA,NA,NA,NA,NA,NA,NA,NA
8e4dd,"""Richtig""-Screen",canvas.Screen,3_0_5_0_5_1_1,NA,NA,timeout,4997.4,854289.4000001,854277.8,854294,859274.7,859275.29999995,2024-02-17T19:29:38Z,859291.4,NULL,Symbol,kielezo,s,kinyume,nderemo,utayari,NA,sdf,1,5,NA,NA,NA,NA,NA,NA,NA,NA,NA,NA,NA,NA,NA,NA,NA,NA,NA,NA,NA
8e4dd,"""Falsch""-Screen",canvas.Screen,3_0_5_0_5_1_2,NA,NA,skipped,NA,859277.70000005,NA,NA,859274.7,859277.79999995,2024-02-17T19:29:38Z,859291.4,NULL,Symbol,kielezo,s,kinyume,nderemo,utayari,NA,sdf,NA,5,NA,NA,NA,NA,NA,NA,NA,NA,NA,NA,NA,NA,NA,NA,NA,NA,NA,NA,NA
8e4dd,shallow,flow.Sequence,3_0_5_0_5_1,NA,NA,completion,11259.7,848004.5999999,847997.9,848015,859274.7,859277.9000001,2024-02-17T19:29:38Z,859291.4,NULL,Symbol,kielezo,s,kinyume,nderemo,utayari,NA,sdf,NA,5,NA,NA,NA,NA,NA,NA,NA,NA,NA,NA,NA,NA,NA,NA,NA,NA,NA,NA,NA
8e4dd,task,flow.Sequence,3_0_5_0_5,NA,NA,completion,11259.7,848004.5999999,847997.9,848015,859274.7,859277.9000001,2024-02-17T19:29:38Z,859291.4,NULL,Symbol,kielezo,s,kinyume,nderemo,utayari,NA,sdf,NA,5,NA,NA,NA,NA,NA,NA,NA,NA,NA,NA,NA,NA,NA,NA,NA,NA,NA,NA,NA
8e4dd,Deep Question,html.Page,3_0_5_0_6_0_0,NA,NA,form submission,17479.800000048,859278.0999999,859274.7,859291.4,876771.20000005,876771.5,2024-02-17T19:29:55Z,876780.2,NULL,Schüler,mwanafunzi,d,NA,NA,NA,sss,NA,NA,5,NA,NA,NA,NA,NA,NA,NA,NA,NA,NA,NA,NA,NA,NA,NA,NA,NA,NA,NA
8e4dd,"""Richtig""-Screen",canvas.Screen,3_0_5_0_6_0_1,NA,NA,skipped,NA,876775.20000005,NA,NA,876771.20000005,876775.4000001,2024-02-17T19:29:55Z,876780.2,NULL,Schüler,mwanafunzi,d,NA,NA,NA,NA,sdf,NA,5,NA,NA,NA,NA,NA,NA,NA,NA,NA,NA,NA,NA,NA,NA,NA,NA,NA,NA,NA
8e4dd,"""Falsch""-Screen",canvas.Screen,3_0_5_0_6_0_2,NA,NA,timeout,4997.3,876775.9000001,876764.126,876780.2,881761,881761.5,2024-02-17T19:30:00Z,881777.5,NULL,Schüler,mwanafunzi,d,NA,NA,NA,NA,sdf,0,5,NA,NA,NA,NA,NA,NA,NA,NA,NA,NA,NA,NA,NA,NA,NA,NA,NA,NA,NA
8e4dd,deep,flow.Sequence,3_0_5_0_6_0,NA,NA,completion,22469.6,859278.0999999,859274.7,859291.4,881761,881761.70000005,2024-02-17T19:30:00Z,881777.5,NULL,Schüler,mwanafunzi,d,NA,NA,NA,NA,sdf,NA,5,NA,NA,NA,NA,NA,NA,NA,NA,NA,NA,NA,NA,NA,NA,NA,NA,NA,NA,NA
8e4dd,shallow,flow.Sequence,3_0_5_0_6_1,NA,NA,skipped,NA,881761.79999995,NA,NA,881761,881761.9000001,2024-02-17T19:30:00Z,881777.5,NULL,Schüler,mwanafunzi,d,NA,NA,NA,NA,sdf,NA,5,NA,NA,NA,NA,NA,NA,NA,NA,NA,NA,NA,NA,NA,NA,NA,NA,NA,NA,NA
8e4dd,task,flow.Sequence,3_0_5_0_6,NA,NA,completion,22469.6,859278.0999999,859274.7,859291.4,881761,881761.9000001,2024-02-17T19:30:00Z,881777.5,NULL,Schüler,mwanafunzi,d,NA,NA,NA,NA,sdf,NA,5,NA,NA,NA,NA,NA,NA,NA,NA,NA,NA,NA,NA,NA,NA,NA,NA,NA,NA,NA
8e4dd,Deep Question,html.Page,3_0_5_0_7_0_0,NA,NA,form submission,22463.299999952,881762.0999999,881761,881777.5,904240.79999995,904241.0999999,2024-02-17T19:30:23Z,904246.83,NULL,Tester,wanaojaribu,d,NA,NA,NA,wahaojaibi,NA,NA,5,NA,NA,NA,NA,NA,NA,NA,NA,NA,NA,NA,NA,NA,NA,NA,NA,NA,NA,NA
8e4dd,"""Richtig""-Screen",canvas.Screen,3_0_5_0_7_0_1,NA,NA,skipped,NA,904245.20000005,NA,NA,904240.79999995,904245.5,2024-02-17T19:30:23Z,904246.83,NULL,Tester,wanaojaribu,d,NA,NA,NA,NA,sdf,NA,5,NA,NA,NA,NA,NA,NA,NA,NA,NA,NA,NA,NA,NA,NA,NA,NA,NA,NA,NA
8e4dd,"""Falsch""-Screen",canvas.Screen,3_0_5_0_7_0_2,NA,NA,timeout,4997.0700000001,904245.9000001,904246.83,904246.83,909227,909227.5999999,2024-02-17T19:30:28Z,909243.9,NULL,Tester,wanaojaribu,d,NA,NA,NA,NA,sdf,0,5,NA,NA,NA,NA,NA,NA,NA,NA,NA,NA,NA,NA,NA,NA,NA,NA,NA,NA,NA
8e4dd,deep,flow.Sequence,3_0_5_0_7_0,NA,NA,completion,27449.5,881762.0999999,881761,881777.5,909227,909227.70000005,2024-02-17T19:30:28Z,909243.9,NULL,Tester,wanaojaribu,d,NA,NA,NA,NA,sdf,NA,5,NA,NA,NA,NA,NA,NA,NA,NA,NA,NA,NA,NA,NA,NA,NA,NA,NA,NA,NA
8e4dd,shallow,flow.Sequence,3_0_5_0_7_1,NA,NA,skipped,NA,909227.79999995,NA,NA,909227,909227.79999995,2024-02-17T19:30:28Z,909243.9,NULL,Tester,wanaojaribu,d,NA,NA,NA,NA,sdf,NA,5,NA,NA,NA,NA,NA,NA,NA,NA,NA,NA,NA,NA,NA,NA,NA,NA,NA,NA,NA
8e4dd,task,flow.Sequence,3_0_5_0_7,NA,NA,completion,27449.5,881762.0999999,881761,881777.5,909227,909227.79999995,2024-02-17T19:30:28Z,909243.9,NULL,Tester,wanaojaribu,d,NA,NA,NA,NA,sdf,NA,5,NA,NA,NA,NA,NA,NA,NA,NA,NA,NA,NA,NA,NA,NA,NA,NA,NA,NA,NA
8e4dd,block,flow.Loop,3_0_5_0,NA,NA,completion,126305.602,782933.5,782921.398,782921.398,909227,909227.9000001,2024-02-17T19:30:28Z,909243.9,NULL,NA,NA,NA,NA,NA,NA,NA,sdf,NA,5,NA,NA,NA,NA,NA,NA,NA,NA,NA,NA,NA,NA,NA,NA,NA,NA,NA,NA,NA
8e4dd,weiter,canvas.Screen,3_0_5_1,sdf,keypress(Space),response,5743.1999999046,909227.9000001,909227,909243.9,914987.0999999,914992.70000005,2024-02-17T19:30:33Z,915007.412,NULL,NA,NA,NA,NA,NA,NA,NA,sdf,NA,5,NA,NA,NA,NA,NA,NA,NA,NA,NA,NA,NA,NA,NA,NA,NA,NA,NA,NA,NA
8e4dd,check continue,flow.Sequence,3_0_5,NA,NA,completion,132065.7019999,782933.5,782921.398,782921.398,914987.0999999,914993.0999999,2024-02-17T19:30:33Z,915007.412,NULL,NA,NA,NA,NA,NA,NA,NA,sdf,NA,5,NA,NA,NA,NA,NA,NA,NA,NA,NA,NA,NA,NA,NA,NA,NA,NA,NA,NA,NA
8e4dd,Deep Question,html.Page,3_0_6_0_0_0_0,NA,NA,form submission,14596.288000048,915012.5,915007.412,915007.412,929603.70000005,929603.79999995,2024-02-17T19:30:48Z,929614.6,NULL,Schüler,mwanafunzi,d,NA,NA,NA,jj,NA,NA,6,NA,NA,NA,NA,NA,NA,NA,NA,NA,NA,NA,NA,NA,NA,NA,NA,NA,NA,NA
8e4dd,"""Richtig""-Screen",canvas.Screen,3_0_6_0_0_0_1,NA,NA,skipped,NA,929605.70000005,NA,NA,929603.70000005,929605.79999995,2024-02-17T19:30:48Z,929614.6,NULL,Schüler,mwanafunzi,d,NA,NA,NA,NA,dfs,NA,6,NA,NA,NA,NA,NA,NA,NA,NA,NA,NA,NA,NA,NA,NA,NA,NA,NA,NA,NA
8e4dd,"""Falsch""-Screen",canvas.Screen,3_0_6_0_0_0_2,NA,NA,timeout,4997.2000000001,929606.20000005,929598.526,929614.6,934595.4,934596,2024-02-17T19:30:53Z,934611.8,NULL,Schüler,mwanafunzi,d,NA,NA,NA,NA,dfs,0,6,NA,NA,NA,NA,NA,NA,NA,NA,NA,NA,NA,NA,NA,NA,NA,NA,NA,NA,NA
8e4dd,deep,flow.Sequence,3_0_6_0_0_0,NA,NA,completion,19587.988,915012.5,915007.412,915007.412,934595.4,934596.20000005,2024-02-17T19:30:53Z,934611.8,NULL,Schüler,mwanafunzi,d,NA,NA,NA,NA,dfs,NA,6,NA,NA,NA,NA,NA,NA,NA,NA,NA,NA,NA,NA,NA,NA,NA,NA,NA,NA,NA
8e4dd,shallow,flow.Sequence,3_0_6_0_0_1,NA,NA,skipped,NA,934596.29999995,NA,NA,934595.4,934596.4000001,2024-02-17T19:30:53Z,934611.8,NULL,Schüler,mwanafunzi,d,NA,NA,NA,NA,dfs,NA,6,NA,NA,NA,NA,NA,NA,NA,NA,NA,NA,NA,NA,NA,NA,NA,NA,NA,NA,NA
8e4dd,task,flow.Sequence,3_0_6_0_0,NA,NA,completion,19587.988,915012.5,915007.412,915007.412,934595.4,934596.5,2024-02-17T19:30:53Z,934611.8,NULL,Schüler,mwanafunzi,d,NA,NA,NA,NA,dfs,NA,6,NA,NA,NA,NA,NA,NA,NA,NA,NA,NA,NA,NA,NA,NA,NA,NA,NA,NA,NA
8e4dd,deep,flow.Sequence,3_0_6_0_1_0,NA,NA,skipped,NA,934596.5999999,NA,NA,934595.4,934596.5999999,2024-02-17T19:30:53Z,934611.8,NULL,Spionage,upelelezi,s,maslahi,utokazo,magangao,NA,dfs,NA,6,NA,NA,NA,NA,NA,NA,NA,NA,NA,NA,NA,NA,NA,NA,NA,NA,NA,NA,NA
8e4dd,Shallow Question,html.Page,3_0_6_0_1_1_0,NA,NA,form submission,4757.1000000953,934596.70000005,934595.4,934611.8,939368.9000001,939369.0999999,2024-02-17T19:30:58Z,939392.3,NULL,Spionage,upelelezi,s,maslahi,utokazo,magangao,upelelezi,NA,NA,6,NA,NA,NA,NA,NA,NA,NA,NA,NA,NA,NA,NA,NA,NA,NA,NA,NA,NA,NA
8e4dd,"""Richtig""-Screen",canvas.Screen,3_0_6_0_1_1_1,NA,NA,timeout,4997.1,939372.5,939375.2,939392.3,944372.8,944373.70000005,2024-02-17T19:31:03Z,944389.4,NULL,Spionage,upelelezi,s,maslahi,utokazo,magangao,NA,dfs,1,6,NA,NA,NA,NA,NA,NA,NA,NA,NA,NA,NA,NA,NA,NA,NA,NA,NA,NA,NA
8e4dd,"""Falsch""-Screen",canvas.Screen,3_0_6_0_1_1_2,NA,NA,skipped,NA,944379,NA,NA,944372.8,944379,2024-02-17T19:31:03Z,944389.4,NULL,Spionage,upelelezi,s,maslahi,utokazo,magangao,NA,dfs,NA,6,NA,NA,NA,NA,NA,NA,NA,NA,NA,NA,NA,NA,NA,NA,NA,NA,NA,NA,NA
8e4dd,shallow,flow.Sequence,3_0_6_0_1_1,NA,NA,completion,9761,934596.70000005,934595.4,934611.8,944372.8,944379.0999999,2024-02-17T19:31:03Z,944389.4,NULL,Spionage,upelelezi,s,maslahi,utokazo,magangao,NA,dfs,NA,6,NA,NA,NA,NA,NA,NA,NA,NA,NA,NA,NA,NA,NA,NA,NA,NA,NA,NA,NA
8e4dd,task,flow.Sequence,3_0_6_0_1,NA,NA,completion,9761,934596.5,934595.4,934611.8,944372.8,944379.29999995,2024-02-17T19:31:03Z,944389.4,NULL,Spionage,upelelezi,s,maslahi,utokazo,magangao,NA,dfs,NA,6,NA,NA,NA,NA,NA,NA,NA,NA,NA,NA,NA,NA,NA,NA,NA,NA,NA,NA,NA
8e4dd,deep,flow.Sequence,3_0_6_0_2_0,NA,NA,skipped,NA,944379.29999995,NA,NA,944372.8,944379.29999995,2024-02-17T19:31:03Z,944389.4,NULL,Zuwachs,nyongeza,s,matilaba,udhibiti,hudhurio,NA,dfs,NA,6,NA,NA,NA,NA,NA,NA,NA,NA,NA,NA,NA,NA,NA,NA,NA,NA,NA,NA,NA
8e4dd,Shallow Question,html.Page,3_0_6_0_2_1_0,NA,NA,form submission,5830.8000000477,944379.29999995,944372.8,944389.4,950220.20000005,950220.5,2024-02-17T19:31:09Z,950235.8,NULL,Zuwachs,nyongeza,s,matilaba,udhibiti,hudhurio,nyongeza,NA,NA,6,NA,NA,NA,NA,NA,NA,NA,NA,NA,NA,NA,NA,NA,NA,NA,NA,NA,NA,NA
8e4dd,"""Richtig""-Screen",canvas.Screen,3_0_6_0_2_1_1,NA,NA,timeout,4997,950223.5,950219,950235.8,955215.8,955216.79999995,2024-02-17T19:31:14Z,955232.8,NULL,Zuwachs,nyongeza,s,matilaba,udhibiti,hudhurio,NA,dfs,1,6,NA,NA,NA,NA,NA,NA,NA,NA,NA,NA,NA,NA,NA,NA,NA,NA,NA,NA,NA
8e4dd,"""Falsch""-Screen",canvas.Screen,3_0_6_0_2_1_2,NA,NA,skipped,NA,955222.29999995,NA,NA,955215.8,955222.29999995,2024-02-17T19:31:14Z,955232.8,NULL,Zuwachs,nyongeza,s,matilaba,udhibiti,hudhurio,NA,dfs,NA,6,NA,NA,NA,NA,NA,NA,NA,NA,NA,NA,NA,NA,NA,NA,NA,NA,NA,NA,NA
8e4dd,shallow,flow.Sequence,3_0_6_0_2_1,NA,NA,completion,10826.4,944379.29999995,944372.8,944389.4,955215.8,955222.5,2024-02-17T19:31:14Z,955232.8,NULL,Zuwachs,nyongeza,s,matilaba,udhibiti,hudhurio,NA,dfs,NA,6,NA,NA,NA,NA,NA,NA,NA,NA,NA,NA,NA,NA,NA,NA,NA,NA,NA,NA,NA
8e4dd,task,flow.Sequence,3_0_6_0_2,NA,NA,completion,10826.4,944379.29999995,944372.8,944389.4,955215.8,955222.5,2024-02-17T19:31:14Z,955232.8,NULL,Zuwachs,nyongeza,s,matilaba,udhibiti,hudhurio,NA,dfs,NA,6,NA,NA,NA,NA,NA,NA,NA,NA,NA,NA,NA,NA,NA,NA,NA,NA,NA,NA,NA
8e4dd,deep,flow.Sequence,3_0_6_0_3_0,NA,NA,skipped,NA,955222.5999999,NA,NA,955215.8,955222.5999999,2024-02-17T19:31:14Z,955232.8,NULL,Symbol,kielezo,s,kinyume,nderemo,utayari,NA,dfs,NA,6,NA,NA,NA,NA,NA,NA,NA,NA,NA,NA,NA,NA,NA,NA,NA,NA,NA,NA,NA
8e4dd,Shallow Question,html.Page,3_0_6_0_3_1_0,NA,NA,form submission,4896.9000000476,955222.5999999,955215.8,955232.8,960129.70000005,960130,2024-02-17T19:31:19Z,960146.3,NULL,Symbol,kielezo,s,kinyume,nderemo,utayari,kielezo,NA,NA,6,NA,NA,NA,NA,NA,NA,NA,NA,NA,NA,NA,NA,NA,NA,NA,NA,NA,NA,NA
8e4dd,"""Richtig""-Screen",canvas.Screen,3_0_6_0_3_1_1,NA,NA,timeout,4997.1,960133.0999999,960129.666,960146.3,965126.7,965127.5999999,2024-02-17T19:31:24Z,965143.4,NULL,Symbol,kielezo,s,kinyume,nderemo,utayari,NA,dfs,1,6,NA,NA,NA,NA,NA,NA,NA,NA,NA,NA,NA,NA,NA,NA,NA,NA,NA,NA,NA
8e4dd,"""Falsch""-Screen",canvas.Screen,3_0_6_0_3_1_2,NA,NA,skipped,NA,965132.79999995,NA,NA,965126.7,965133,2024-02-17T19:31:24Z,965143.4,NULL,Symbol,kielezo,s,kinyume,nderemo,utayari,NA,dfs,NA,6,NA,NA,NA,NA,NA,NA,NA,NA,NA,NA,NA,NA,NA,NA,NA,NA,NA,NA,NA
8e4dd,shallow,flow.Sequence,3_0_6_0_3_1,NA,NA,completion,9893.8999999999,955222.5999999,955215.8,955232.8,965126.7,965133,2024-02-17T19:31:24Z,965143.4,NULL,Symbol,kielezo,s,kinyume,nderemo,utayari,NA,dfs,NA,6,NA,NA,NA,NA,NA,NA,NA,NA,NA,NA,NA,NA,NA,NA,NA,NA,NA,NA,NA
8e4dd,task,flow.Sequence,3_0_6_0_3,NA,NA,completion,9893.8999999999,955222.5999999,955215.8,955232.8,965126.7,965133.20000005,2024-02-17T19:31:24Z,965143.4,NULL,Symbol,kielezo,s,kinyume,nderemo,utayari,NA,dfs,NA,6,NA,NA,NA,NA,NA,NA,NA,NA,NA,NA,NA,NA,NA,NA,NA,NA,NA,NA,NA
