observation,sender,sender_type,sender_id,response,response_action,ended_on,duration,time_run,time_render,time_show,time_end,time_commit,timestamp,time_switch,distractors,german,swahili,enc,distractor1,distractor2,distractor3,response_2,x,correct,x_2,url_vp,url_sess,meta_labjs_version,meta_location,meta_user_agent,meta_platform,meta_language,meta_locale,meta_time_zone,meta_timezone_offset,meta_screen_width,meta_screen_height,meta_scroll_width,meta_scroll_height,meta_window_inner_width,meta_window_inner_height,meta_device_pixel_ratio,meta_labjs_build_flavor,meta_labjs_build_commit
c5479,Introduction general,canvas.Screen,0,weiter,keypress(q),response,190471.5979999,2426.0999999046,4079196.674,4079230.002,4269701.5999999,4269704.8,2023-05-01T16:29:14Z,4269706.784,NULL,NA,NA,NA,NA,NA,NA,NA,NA,NA,NA,213,1,20.2.4,https://neurocog.fernuni.ch/studies/vweber/sfink/encoding_immediate/index.html?vp=213&sess=1,"Mozilla/5.0 (Windows NT 10.0; Win64; x64) AppleWebKit/537.36 (KHTML, like Gecko) Chrome/112.0.0.0 Safari/537.36",Win32,de-CH,de,Europe/Zurich,-120,1536,864,1536,706,1536,754,1.25,production,f5b4a49f956347addd546a832a3327688c2c0fef
c5479,Introduction practice,canvas.Screen,1_0,NA,keypress(Space),response,10619.216,4269705.3999999,4269696.396,4269706.784,4280326,4280327.5999999,2023-05-01T16:29:24Z,4280352.952,NULL,NA,NA,NA,NA,NA,NA,NA,NA,NA,NA,NA,NA,NA,NA,NA,NA,NA,NA,NA,NA,NA,NA,NA,NA,NA,NA,NA,NA,NA
c5479,deep,flow.Sequence,1_1_0_0,NA,NA,skipped,NA,4280328.3999999,NA,NA,4280326,4280330,2023-05-01T16:29:24Z,4280352.952,"c(""distractor1"", ""distractor2"", ""distractor3"")",Rückhalt,msaada,s,muhula,auwali,kiwimbe,NA,NA,NA,NA,NA,NA,NA,NA,NA,NA,NA,NA,NA,NA,NA,NA,NA,NA,NA,NA,NA,NA,NA
c5479,Shallow Question,html.Page,1_1_0_1_0,NA,NA,form submission,18110.647999905,4280330.1999998,4280330.76,4280352.952,4298463.5999999,4298463.8,2023-05-01T16:29:43Z,4298466.446,"c(""distractor1"", ""distractor2"", ""distractor3"")",Rückhalt,msaada,s,muhula,auwali,kiwimbe,kiwimbe,NA,NA,NA,NA,NA,NA,NA,NA,NA,NA,NA,NA,NA,NA,NA,NA,NA,NA,NA,NA,NA,NA
c5479,"""Richtig""-Screen",canvas.Screen,1_1_0_1_1,NA,NA,skipped,NA,4298465.1999998,NA,NA,4298463.5999999,4298465.3,2023-05-01T16:29:43Z,4298466.446,"c(""distractor1"", ""distractor2"", ""distractor3"")",Rückhalt,msaada,s,muhula,auwali,kiwimbe,NA,NA,NA,NA,NA,NA,NA,NA,NA,NA,NA,NA,NA,NA,NA,NA,NA,NA,NA,NA,NA,NA,NA
c5479,"""Falsch""-Screen",canvas.Screen,1_1_0_1_2,NA,NA,timeout,4996.318,4298466.1999998,4298449.788,4298466.446,4303445.825,4303448.8999999,2023-05-01T16:29:48Z,4303462.764,"c(""distractor1"", ""distractor2"", ""distractor3"")",Rückhalt,msaada,s,muhula,auwali,kiwimbe,NA,NA,0,NA,NA,NA,NA,NA,NA,NA,NA,NA,NA,NA,NA,NA,NA,NA,NA,NA,NA,NA,NA
c5479,shallow,flow.Sequence,1_1_0_1,NA,NA,completion,23092.873000001,4280330.1999998,4280330.76,4280352.952,4303445.825,4303449,2023-05-01T16:29:48Z,4303462.764,"c(""distractor1"", ""distractor2"", ""distractor3"")",Rückhalt,msaada,s,muhula,auwali,kiwimbe,NA,NA,NA,NA,NA,NA,NA,NA,NA,NA,NA,NA,NA,NA,NA,NA,NA,NA,NA,NA,NA,NA,NA
c5479,task,flow.Sequence,1_1_0,NA,NA,completion,23092.873000001,4280328.3,4280330.76,4280352.952,4303445.825,4303449.0999999,2023-05-01T16:29:48Z,4303462.764,"c(""distractor1"", ""distractor2"", ""distractor3"")",Rückhalt,msaada,s,muhula,auwali,kiwimbe,NA,NA,NA,NA,NA,NA,NA,NA,NA,NA,NA,NA,NA,NA,NA,NA,NA,NA,NA,NA,NA,NA,NA
c5479,deep,flow.Sequence,1_1_1_0,NA,NA,skipped,NA,4303449.1999998,NA,NA,4303445.825,4303449.3,2023-05-01T16:29:48Z,4303462.764,"c(""distractor1"", ""distractor2"", ""distractor3"")",Gegenwart,hadhara,s,katiba,jokofu,mikopo,NA,NA,NA,NA,NA,NA,NA,NA,NA,NA,NA,NA,NA,NA,NA,NA,NA,NA,NA,NA,NA,NA,NA
c5479,Shallow Question,html.Page,1_1_1_1_0,NA,NA,form submission,13811.135999857,4303449.3999999,4303445.825,4303462.764,4317273.8999999,4317274.1999998,2023-05-01T16:30:01Z,4317284.344,"c(""distractor1"", ""distractor2"", ""distractor3"")",Gegenwart,hadhara,s,katiba,jokofu,mikopo,jokofu,NA,NA,NA,NA,NA,NA,NA,NA,NA,NA,NA,NA,NA,NA,NA,NA,NA,NA,NA,NA,NA,NA
c5479,"""Richtig""-Screen",canvas.Screen,1_1_1_1_1,NA,NA,skipped,NA,4317276.0999999,NA,NA,4317273.8999999,4317276.3,2023-05-01T16:30:01Z,4317284.344,"c(""distractor1"", ""distractor2"", ""distractor3"")",Gegenwart,hadhara,s,katiba,jokofu,mikopo,NA,NA,NA,NA,NA,NA,NA,NA,NA,NA,NA,NA,NA,NA,NA,NA,NA,NA,NA,NA,NA,NA,NA
c5479,"""Falsch""-Screen",canvas.Screen,1_1_1_1_2,NA,NA,timeout,4996.29,4317277.0999999,4317267.996,4317284.344,4322264.209,4322265.1999998,2023-05-01T16:30:06Z,4322280.634,"c(""distractor1"", ""distractor2"", ""distractor3"")",Gegenwart,hadhara,s,katiba,jokofu,mikopo,NA,NA,0,NA,NA,NA,NA,NA,NA,NA,NA,NA,NA,NA,NA,NA,NA,NA,NA,NA,NA,NA,NA
c5479,shallow,flow.Sequence,1_1_1_1,NA,NA,completion,18801.444999999,4303449.3999999,4303445.825,4303462.764,4322264.209,4322265.6999998,2023-05-01T16:30:06Z,4322280.634,"c(""distractor1"", ""distractor2"", ""distractor3"")",Gegenwart,hadhara,s,katiba,jokofu,mikopo,NA,NA,NA,NA,NA,NA,NA,NA,NA,NA,NA,NA,NA,NA,NA,NA,NA,NA,NA,NA,NA,NA,NA
c5479,task,flow.Sequence,1_1_1,NA,NA,completion,18801.444999999,4303449.1999998,4303445.825,4303462.764,4322264.209,4322266.0999999,2023-05-01T16:30:06Z,4322280.634,"c(""distractor1"", ""distractor2"", ""distractor3"")",Gegenwart,hadhara,s,katiba,jokofu,mikopo,NA,NA,NA,NA,NA,NA,NA,NA,NA,NA,NA,NA,NA,NA,NA,NA,NA,NA,NA,NA,NA,NA,NA
c5479,deep,flow.Sequence,1_1_2_0,NA,NA,skipped,NA,4322266.3999999,NA,NA,4322264.209,4322266.5,2023-05-01T16:30:06Z,4322280.634,"c(""distractor1"", ""distractor2"", ""distractor3"")",Kritik,lawama,s,dereva,nafasi,mawazo,NA,NA,NA,NA,NA,NA,NA,NA,NA,NA,NA,NA,NA,NA,NA,NA,NA,NA,NA,NA,NA,NA,NA
c5479,Shallow Question,html.Page,1_1_2_1_0,NA,NA,form submission,10602.465999905,4322266.8,4322264.209,4322280.634,4332883.0999999,4332883.3999999,2023-05-01T16:30:17Z,4332888.179,"c(""distractor1"", ""distractor2"", ""distractor3"")",Kritik,lawama,s,dereva,nafasi,mawazo,lawama,NA,NA,NA,NA,NA,NA,NA,NA,NA,NA,NA,NA,NA,NA,NA,NA,NA,NA,NA,NA,NA,NA
c5479,"""Richtig""-Screen",canvas.Screen,1_1_2_1_1,NA,NA,timeout,4996.6420000009,4332885.3,4332871.836,4332888.179,4337867.485,4337868.5,2023-05-01T16:30:22Z,4337884.821,"c(""distractor1"", ""distractor2"", ""distractor3"")",Kritik,lawama,s,dereva,nafasi,mawazo,NA,NA,1,NA,NA,NA,NA,NA,NA,NA,NA,NA,NA,NA,NA,NA,NA,NA,NA,NA,NA,NA,NA
c5479,"""Falsch""-Screen",canvas.Screen,1_1_2_1_2,NA,NA,skipped,NA,4337872.3,NA,NA,4337867.485,4337872.3999999,2023-05-01T16:30:22Z,4337884.821,"c(""distractor1"", ""distractor2"", ""distractor3"")",Kritik,lawama,s,dereva,nafasi,mawazo,NA,NA,NA,NA,NA,NA,NA,NA,NA,NA,NA,NA,NA,NA,NA,NA,NA,NA,NA,NA,NA,NA,NA
c5479,shallow,flow.Sequence,1_1_2_1,NA,NA,completion,15586.851000001,4322266.8,4322264.209,4322280.634,4337867.485,4337872.6999998,2023-05-01T16:30:22Z,4337884.821,"c(""distractor1"", ""distractor2"", ""distractor3"")",Kritik,lawama,s,dereva,nafasi,mawazo,NA,NA,NA,NA,NA,NA,NA,NA,NA,NA,NA,NA,NA,NA,NA,NA,NA,NA,NA,NA,NA,NA,NA
c5479,task,flow.Sequence,1_1_2,NA,NA,completion,15586.851000001,4322266.3,4322264.209,4322280.634,4337867.485,4337872.8999999,2023-05-01T16:30:22Z,4337884.821,"c(""distractor1"", ""distractor2"", ""distractor3"")",Kritik,lawama,s,dereva,nafasi,mawazo,NA,NA,NA,NA,NA,NA,NA,NA,NA,NA,NA,NA,NA,NA,NA,NA,NA,NA,NA,NA,NA,NA,NA
c5479,Deep Question,html.Page,1_1_3_0_0,NA,NA,form submission,10359.878999809,4337872.8999999,4337867.485,4337884.821,4348244.6999998,4348245,2023-05-01T16:30:32Z,4348259.185,"c(""distractor1"", ""distractor2"", ""distractor3"")",Schatten,kivuli,d,NA,NA,NA,jj,NA,NA,NA,NA,NA,NA,NA,NA,NA,NA,NA,NA,NA,NA,NA,NA,NA,NA,NA,NA,NA,NA
c5479,"""Richtig""-Screen",canvas.Screen,1_1_3_0_1,NA,NA,skipped,NA,4348247.1999998,NA,NA,4348244.6999998,4348247.3999999,2023-05-01T16:30:32Z,4348259.185,"c(""distractor1"", ""distractor2"", ""distractor3"")",Schatten,kivuli,d,NA,NA,NA,NA,NA,NA,NA,NA,NA,NA,NA,NA,NA,NA,NA,NA,NA,NA,NA,NA,NA,NA,NA,NA,NA,NA
c5479,"""Falsch""-Screen",canvas.Screen,1_1_3_0_2,NA,NA,timeout,4995.9650000008,4348248.0999999,4348242.504,4348259.185,4353238.294,4353239.3999999,2023-05-01T16:30:37Z,4353255.15,"c(""distractor1"", ""distractor2"", ""distractor3"")",Schatten,kivuli,d,NA,NA,NA,NA,NA,0,NA,NA,NA,NA,NA,NA,NA,NA,NA,NA,NA,NA,NA,NA,NA,NA,NA,NA,NA,NA
c5479,deep,flow.Sequence,1_1_3_0,NA,NA,completion,15353.472999999,4337872.8999999,4337867.485,4337884.821,4353238.294,4353239.8,2023-05-01T16:30:37Z,4353255.15,"c(""distractor1"", ""distractor2"", ""distractor3"")",Schatten,kivuli,d,NA,NA,NA,NA,NA,NA,NA,NA,NA,NA,NA,NA,NA,NA,NA,NA,NA,NA,NA,NA,NA,NA,NA,NA,NA,NA
c5479,shallow,flow.Sequence,1_1_3_1,NA,NA,skipped,NA,4353239.8999999,NA,NA,4353238.294,4353240.0999999,2023-05-01T16:30:37Z,4353255.15,"c(""distractor1"", ""distractor2"", ""distractor3"")",Schatten,kivuli,d,NA,NA,NA,NA,NA,NA,NA,NA,NA,NA,NA,NA,NA,NA,NA,NA,NA,NA,NA,NA,NA,NA,NA,NA,NA,NA
c5479,task,flow.Sequence,1_1_3,NA,NA,completion,15353.472999999,4337872.8999999,4337867.485,4337884.821,4353238.294,4353240.5,2023-05-01T16:30:37Z,4353255.15,"c(""distractor1"", ""distractor2"", ""distractor3"")",Schatten,kivuli,d,NA,NA,NA,NA,NA,NA,NA,NA,NA,NA,NA,NA,NA,NA,NA,NA,NA,NA,NA,NA,NA,NA,NA,NA,NA,NA
c5479,Deep Question,html.Page,1_1_4_0_0,NA,NA,form submission,6442.2499998566,4353240.6999998,4353238.294,4353255.15,4359697.3999999,4359697.6999998,2023-05-01T16:30:44Z,4359699.443,"c(""distractor1"", ""distractor2"", ""distractor3"")",Gesundheit,salama,d,NA,NA,NA,jjj,NA,NA,NA,NA,NA,NA,NA,NA,NA,NA,NA,NA,NA,NA,NA,NA,NA,NA,NA,NA,NA,NA
c5479,"""Richtig""-Screen",canvas.Screen,1_1_4_0_1,NA,NA,skipped,NA,4359699.8999999,NA,NA,4359697.3999999,4359700.0999999,2023-05-01T16:30:44Z,4359699.443,"c(""distractor1"", ""distractor2"", ""distractor3"")",Gesundheit,salama,d,NA,NA,NA,NA,NA,NA,NA,NA,NA,NA,NA,NA,NA,NA,NA,NA,NA,NA,NA,NA,NA,NA,NA,NA,NA,NA
c5479,"""Falsch""-Screen",canvas.Screen,1_1_4_0_2,NA,NA,timeout,4996.0030000005,4359701.1999998,4359682.94,4359699.443,4364679.099,4364680.0999999,2023-05-01T16:30:49Z,4364695.446,"c(""distractor1"", ""distractor2"", ""distractor3"")",Gesundheit,salama,d,NA,NA,NA,NA,NA,0,NA,NA,NA,NA,NA,NA,NA,NA,NA,NA,NA,NA,NA,NA,NA,NA,NA,NA,NA,NA
c5479,deep,flow.Sequence,1_1_4_0,NA,NA,completion,11423.949,4353240.6999998,4353238.294,4353255.15,4364679.099,4364680.5,2023-05-01T16:30:49Z,4364695.446,"c(""distractor1"", ""distractor2"", ""distractor3"")",Gesundheit,salama,d,NA,NA,NA,NA,NA,NA,NA,NA,NA,NA,NA,NA,NA,NA,NA,NA,NA,NA,NA,NA,NA,NA,NA,NA,NA,NA
c5479,shallow,flow.Sequence,1_1_4_1,NA,NA,skipped,NA,4364680.6999998,NA,NA,4364679.099,4364680.8999999,2023-05-01T16:30:49Z,4364695.446,"c(""distractor1"", ""distractor2"", ""distractor3"")",Gesundheit,salama,d,NA,NA,NA,NA,NA,NA,NA,NA,NA,NA,NA,NA,NA,NA,NA,NA,NA,NA,NA,NA,NA,NA,NA,NA,NA,NA
c5479,task,flow.Sequence,1_1_4,NA,NA,completion,11423.949,4353240.5999999,4353238.294,4353255.15,4364679.099,4364681.0999999,2023-05-01T16:30:49Z,4364695.446,"c(""distractor1"", ""distractor2"", ""distractor3"")",Gesundheit,salama,d,NA,NA,NA,NA,NA,NA,NA,NA,NA,NA,NA,NA,NA,NA,NA,NA,NA,NA,NA,NA,NA,NA,NA,NA,NA,NA
c5479,Deep Question,html.Page,1_1_5_0_0,NA,NA,form submission,7817.7539998088,4364681.3999999,4364679.099,4364695.446,4372513.1999998,4372513.5,2023-05-01T16:30:57Z,4372522.245,"c(""distractor1"", ""distractor2"", ""distractor3"")",Qualität,mtindo,d,NA,NA,NA,z,NA,NA,NA,NA,NA,NA,NA,NA,NA,NA,NA,NA,NA,NA,NA,NA,NA,NA,NA,NA,NA,NA
c5479,"""Richtig""-Screen",canvas.Screen,1_1_5_0_1,NA,NA,skipped,NA,4372515.5999999,NA,NA,4372513.1999998,4372515.6999998,2023-05-01T16:30:57Z,4372522.245,"c(""distractor1"", ""distractor2"", ""distractor3"")",Qualität,mtindo,d,NA,NA,NA,NA,NA,NA,NA,NA,NA,NA,NA,NA,NA,NA,NA,NA,NA,NA,NA,NA,NA,NA,NA,NA,NA,NA
c5479,"""Falsch""-Screen",canvas.Screen,1_1_5_0_2,NA,NA,timeout,4995.9160000002,4372516.6999998,4372506.298,4372522.245,4377501.56,4377502.5999999,2023-05-01T16:31:02Z,4377518.161,"c(""distractor1"", ""distractor2"", ""distractor3"")",Qualität,mtindo,d,NA,NA,NA,NA,NA,0,NA,NA,NA,NA,NA,NA,NA,NA,NA,NA,NA,NA,NA,NA,NA,NA,NA,NA,NA,NA
c5479,deep,flow.Sequence,1_1_5_0,NA,NA,completion,12806.113999999,4364681.3999999,4364679.099,4364695.446,4377501.56,4377503.0999999,2023-05-01T16:31:02Z,4377518.161,"c(""distractor1"", ""distractor2"", ""distractor3"")",Qualität,mtindo,d,NA,NA,NA,NA,NA,NA,NA,NA,NA,NA,NA,NA,NA,NA,NA,NA,NA,NA,NA,NA,NA,NA,NA,NA,NA,NA
c5479,shallow,flow.Sequence,1_1_5_1,NA,NA,skipped,NA,4377503.3,NA,NA,4377501.56,4377503.5999999,2023-05-01T16:31:02Z,4377518.161,"c(""distractor1"", ""distractor2"", ""distractor3"")",Qualität,mtindo,d,NA,NA,NA,NA,NA,NA,NA,NA,NA,NA,NA,NA,NA,NA,NA,NA,NA,NA,NA,NA,NA,NA,NA,NA,NA,NA
c5479,task,flow.Sequence,1_1_5,NA,NA,completion,12806.113999999,4364681.3,4364679.099,4364695.446,4377501.56,4377504,2023-05-01T16:31:02Z,4377518.161,"c(""distractor1"", ""distractor2"", ""distractor3"")",Qualität,mtindo,d,NA,NA,NA,NA,NA,NA,NA,NA,NA,NA,NA,NA,NA,NA,NA,NA,NA,NA,NA,NA,NA,NA,NA,NA,NA,NA
c5479,block,flow.Loop,1_1,NA,NA,completion,97148.608,4280328.1999998,4280330.76,4280352.952,4377501.56,4377504.5999999,2023-05-01T16:31:02Z,4377518.161,"c(""distractor1"", ""distractor2"", ""distractor3"")",NA,NA,NA,NA,NA,NA,NA,NA,NA,NA,NA,NA,NA,NA,NA,NA,NA,NA,NA,NA,NA,NA,NA,NA,NA,NA,NA,NA,NA
c5479,Practice,flow.Sequence,1,NA,NA,completion,107794.776,4269705.3,4269696.396,4269706.784,4377501.56,4377505,2023-05-01T16:31:02Z,4377518.161,NULL,NA,NA,NA,NA,NA,NA,NA,NA,NA,NA,NA,NA,NA,NA,NA,NA,NA,NA,NA,NA,NA,NA,NA,NA,NA,NA,NA,NA,NA
c5479,Experiment start,canvas.Screen,2,weiter,keypress(q),response,9405.4389999043,4377505.0999999,4377501.56,4377518.161,4386923.5999999,4386925.0999999,2023-05-01T16:31:11Z,4387026.98,NULL,NA,NA,NA,NA,NA,NA,NA,NA,NA,NA,NA,NA,NA,NA,NA,NA,NA,NA,NA,NA,NA,NA,NA,NA,NA,NA,NA,NA,NA
c5479,deep,flow.Sequence,3_0_0_0_0_0,NA,NA,skipped,NA,4387021,NA,NA,4386923.5999999,4387021.1999998,2023-05-01T16:31:11Z,4387026.98,NULL,Sympathie,mapendano,s,dhamiria,fungamano,maazimio,NA,sdf,NA,0,NA,NA,NA,NA,NA,NA,NA,NA,NA,NA,NA,NA,NA,NA,NA,NA,NA,NA,NA
c5479,Shallow Question,html.Page,3_0_0_0_0_1_0,NA,NA,form submission,14225.02,4387021.1999998,4387010.469,4387026.98,4401252,4401252.1999998,2023-05-01T16:31:25Z,4401265.72,NULL,Sympathie,mapendano,s,dhamiria,fungamano,maazimio,maazimio,NA,NA,0,NA,NA,NA,NA,NA,NA,NA,NA,NA,NA,NA,NA,NA,NA,NA,NA,NA,NA,NA
c5479,"""Richtig""-Screen",canvas.Screen,3_0_0_0_0_1_1,NA,NA,skipped,NA,4401254.0999999,NA,NA,4401252,4401254.1999998,2023-05-01T16:31:25Z,4401265.72,NULL,Sympathie,mapendano,s,dhamiria,fungamano,maazimio,NA,sdf,NA,0,NA,NA,NA,NA,NA,NA,NA,NA,NA,NA,NA,NA,NA,NA,NA,NA,NA,NA,NA
c5479,"""Falsch""-Screen",canvas.Screen,3_0_0_0_0_1_2,NA,NA,timeout,4996.0260000005,4401254.8,4401249.243,4401265.72,4406244.864,4406245.6999998,2023-05-01T16:31:30Z,4406261.746,NULL,Sympathie,mapendano,s,dhamiria,fungamano,maazimio,NA,sdf,0,0,NA,NA,NA,NA,NA,NA,NA,NA,NA,NA,NA,NA,NA,NA,NA,NA,NA,NA,NA
c5479,shallow,flow.Sequence,3_0_0_0_0_1,NA,NA,completion,19217.884,4387021.1999998,4387010.469,4387026.98,4406244.864,4406246.1999998,2023-05-01T16:31:30Z,4406261.746,NULL,Sympathie,mapendano,s,dhamiria,fungamano,maazimio,NA,sdf,NA,0,NA,NA,NA,NA,NA,NA,NA,NA,NA,NA,NA,NA,NA,NA,NA,NA,NA,NA,NA
c5479,task,flow.Sequence,3_0_0_0_0,NA,NA,completion,19217.884,4387021,4387010.469,4387026.98,4406244.864,4406246.5,2023-05-01T16:31:30Z,4406261.746,NULL,Sympathie,mapendano,s,dhamiria,fungamano,maazimio,NA,sdf,NA,0,NA,NA,NA,NA,NA,NA,NA,NA,NA,NA,NA,NA,NA,NA,NA,NA,NA,NA,NA
c5479,Deep Question,html.Page,3_0_0_0_1_0_0,NA,NA,form submission,6364.453999809,4406246.6999998,4406244.864,4406261.746,4412626.1999998,4412626.3999999,2023-05-01T16:31:37Z,4412639.533,NULL,Polizist,msongora,d,NA,NA,NA,uf,NA,NA,0,NA,NA,NA,NA,NA,NA,NA,NA,NA,NA,NA,NA,NA,NA,NA,NA,NA,NA,NA
c5479,"""Richtig""-Screen",canvas.Screen,3_0_0_0_1_0_1,NA,NA,skipped,NA,4412628.3,NA,NA,4412626.1999998,4412628.5,2023-05-01T16:31:37Z,4412639.533,NULL,Polizist,msongora,d,NA,NA,NA,NA,sdf,NA,0,NA,NA,NA,NA,NA,NA,NA,NA,NA,NA,NA,NA,NA,NA,NA,NA,NA,NA,NA
c5479,"""Falsch""-Screen",canvas.Screen,3_0_0_0_1_0_2,NA,NA,timeout,4996.2369999997,4412629,4412622.912,4412639.533,4417618.848,4417619.8999999,2023-05-01T16:31:42Z,4417635.77,NULL,Polizist,msongora,d,NA,NA,NA,NA,sdf,0,0,NA,NA,NA,NA,NA,NA,NA,NA,NA,NA,NA,NA,NA,NA,NA,NA,NA,NA,NA
c5479,deep,flow.Sequence,3_0_0_0_1_0,NA,NA,completion,11357.102,4406246.5999999,4406244.864,4406261.746,4417618.848,4417620.3,2023-05-01T16:31:42Z,4417635.77,NULL,Polizist,msongora,d,NA,NA,NA,NA,sdf,NA,0,NA,NA,NA,NA,NA,NA,NA,NA,NA,NA,NA,NA,NA,NA,NA,NA,NA,NA,NA
c5479,shallow,flow.Sequence,3_0_0_0_1_1,NA,NA,skipped,NA,4417620.3999999,NA,NA,4417618.848,4417620.5999999,2023-05-01T16:31:42Z,4417635.77,NULL,Polizist,msongora,d,NA,NA,NA,NA,sdf,NA,0,NA,NA,NA,NA,NA,NA,NA,NA,NA,NA,NA,NA,NA,NA,NA,NA,NA,NA,NA
c5479,task,flow.Sequence,3_0_0_0_1,NA,NA,completion,11357.102,4406246.5,4406244.864,4406261.746,4417618.848,4417620.8,2023-05-01T16:31:42Z,4417635.77,NULL,Polizist,msongora,d,NA,NA,NA,NA,sdf,NA,0,NA,NA,NA,NA,NA,NA,NA,NA,NA,NA,NA,NA,NA,NA,NA,NA,NA,NA,NA
c5479,deep,flow.Sequence,3_0_0_0_2_0,NA,NA,skipped,NA,4417620.8999999,NA,NA,4417618.848,4417621.0999999,2023-05-01T16:31:42Z,4417635.77,NULL,Kultur,utamaduni,s,shetani,gerezani,mazingira,NA,sdf,NA,0,NA,NA,NA,NA,NA,NA,NA,NA,NA,NA,NA,NA,NA,NA,NA,NA,NA,NA,NA
c5479,Shallow Question,html.Page,3_0_0_0_2_1_0,NA,NA,form submission,9078.0299999528,4417621.3,4417618.848,4417635.77,4426713.8,4426713.8999999,2023-05-01T16:31:51Z,4426728.36,NULL,Kultur,utamaduni,s,shetani,gerezani,mazingira,utamaduni,NA,NA,0,NA,NA,NA,NA,NA,NA,NA,NA,NA,NA,NA,NA,NA,NA,NA,NA,NA,NA,NA
c5479,"""Richtig""-Screen",canvas.Screen,3_0_0_0_2_1_1,NA,NA,timeout,4995.9979999997,4426715.8,4426711.565,4426728.36,4431707.38,4431708.3,2023-05-01T16:31:56Z,4431724.358,NULL,Kultur,utamaduni,s,shetani,gerezani,mazingira,NA,sdf,1,0,NA,NA,NA,NA,NA,NA,NA,NA,NA,NA,NA,NA,NA,NA,NA,NA,NA,NA,NA
c5479,"""Falsch""-Screen",canvas.Screen,3_0_0_0_2_1_2,NA,NA,skipped,NA,4431712.8999999,NA,NA,4431707.38,4431713,2023-05-01T16:31:56Z,4431724.358,NULL,Kultur,utamaduni,s,shetani,gerezani,mazingira,NA,sdf,NA,0,NA,NA,NA,NA,NA,NA,NA,NA,NA,NA,NA,NA,NA,NA,NA,NA,NA,NA,NA
c5479,shallow,flow.Sequence,3_0_0_0_2_1,NA,NA,completion,14071.61,4417621.1999998,4417618.848,4417635.77,4431707.38,4431713.0999999,2023-05-01T16:31:56Z,4431724.358,NULL,Kultur,utamaduni,s,shetani,gerezani,mazingira,NA,sdf,NA,0,NA,NA,NA,NA,NA,NA,NA,NA,NA,NA,NA,NA,NA,NA,NA,NA,NA,NA,NA
c5479,task,flow.Sequence,3_0_0_0_2,NA,NA,completion,14071.61,4417620.8999999,4417618.848,4417635.77,4431707.38,4431713.0999999,2023-05-01T16:31:56Z,4431724.358,NULL,Kultur,utamaduni,s,shetani,gerezani,mazingira,NA,sdf,NA,0,NA,NA,NA,NA,NA,NA,NA,NA,NA,NA,NA,NA,NA,NA,NA,NA,NA,NA,NA
c5479,Deep Question,html.Page,3_0_0_0_3_0_0,NA,NA,form submission,9527.2419999046,4431713.1999998,4431707.38,4431724.358,4441251.5999999,4441251.8,2023-05-01T16:32:05Z,4441266.039,NULL,Beweis,ushahidi,d,NA,NA,NA,gg,NA,NA,0,NA,NA,NA,NA,NA,NA,NA,NA,NA,NA,NA,NA,NA,NA,NA,NA,NA,NA,NA
c5479,"""Richtig""-Screen",canvas.Screen,3_0_0_0_3_0_1,NA,NA,skipped,NA,4441253.8999999,NA,NA,4441251.5999999,4441254,2023-05-01T16:32:05Z,4441266.039,NULL,Beweis,ushahidi,d,NA,NA,NA,NA,sdf,NA,0,NA,NA,NA,NA,NA,NA,NA,NA,NA,NA,NA,NA,NA,NA,NA,NA,NA,NA,NA
c5479,"""Falsch""-Screen",canvas.Screen,3_0_0_0_3_0_2,NA,NA,timeout,4996.074,4441254.8,4441249.666,4441266.039,4446245.216,4446246.1999998,2023-05-01T16:32:10Z,4446262.113,NULL,Beweis,ushahidi,d,NA,NA,NA,NA,sdf,0,0,NA,NA,NA,NA,NA,NA,NA,NA,NA,NA,NA,NA,NA,NA,NA,NA,NA,NA,NA
c5479,deep,flow.Sequence,3_0_0_0_3_0,NA,NA,completion,14520.858,4431713.1999998,4431707.38,4431724.358,4446245.216,4446246.5999999,2023-05-01T16:32:10Z,4446262.113,NULL,Beweis,ushahidi,d,NA,NA,NA,NA,sdf,NA,0,NA,NA,NA,NA,NA,NA,NA,NA,NA,NA,NA,NA,NA,NA,NA,NA,NA,NA,NA
c5479,shallow,flow.Sequence,3_0_0_0_3_1,NA,NA,skipped,NA,4446246.8,NA,NA,4446245.216,4446247,2023-05-01T16:32:10Z,4446262.113,NULL,Beweis,ushahidi,d,NA,NA,NA,NA,sdf,NA,0,NA,NA,NA,NA,NA,NA,NA,NA,NA,NA,NA,NA,NA,NA,NA,NA,NA,NA,NA
c5479,task,flow.Sequence,3_0_0_0_3,NA,NA,completion,14520.858,4431713.1999998,4431707.38,4431724.358,4446245.216,4446247.3,2023-05-01T16:32:10Z,4446262.113,NULL,Beweis,ushahidi,d,NA,NA,NA,NA,sdf,NA,0,NA,NA,NA,NA,NA,NA,NA,NA,NA,NA,NA,NA,NA,NA,NA,NA,NA,NA,NA
c5479,deep,flow.Sequence,3_0_0_0_4_0,NA,NA,skipped,NA,4446247.5999999,NA,NA,4446245.216,4446247.6999998,2023-05-01T16:32:10Z,4446262.113,NULL,Verzögerung,kuchelewa,s,mwakilishi,mwanauchumi,jaribio,NA,sdf,NA,0,NA,NA,NA,NA,NA,NA,NA,NA,NA,NA,NA,NA,NA,NA,NA,NA,NA,NA,NA
c5479,Shallow Question,html.Page,3_0_0_0_4_1_0,NA,NA,form submission,13774.986999905,4446247.8999999,4446245.216,4446262.113,4460037.0999999,4460037.5,2023-05-01T16:32:24Z,4460050.41,NULL,Verzögerung,kuchelewa,s,mwakilishi,mwanauchumi,jaribio,kuchelewa,NA,NA,0,NA,NA,NA,NA,NA,NA,NA,NA,NA,NA,NA,NA,NA,NA,NA,NA,NA,NA,NA
c5479,"""Richtig""-Screen",canvas.Screen,3_0_0_0_4_1_1,NA,NA,timeout,4995.8739999998,4460041.5999999,4460034.107,4460050.41,4465030.161,4465030.5,2023-05-01T16:32:29Z,4465046.284,NULL,Verzögerung,kuchelewa,s,mwakilishi,mwanauchumi,jaribio,NA,sdf,1,0,NA,NA,NA,NA,NA,NA,NA,NA,NA,NA,NA,NA,NA,NA,NA,NA,NA,NA,NA
c5479,"""Falsch""-Screen",canvas.Screen,3_0_0_0_4_1_2,NA,NA,skipped,NA,4465032.3,NA,NA,4465030.161,4465032.5,2023-05-01T16:32:29Z,4465046.284,NULL,Verzögerung,kuchelewa,s,mwakilishi,mwanauchumi,jaribio,NA,sdf,NA,0,NA,NA,NA,NA,NA,NA,NA,NA,NA,NA,NA,NA,NA,NA,NA,NA,NA,NA,NA
c5479,shallow,flow.Sequence,3_0_0_0_4_1,NA,NA,completion,18768.048,4446247.8999999,4446245.216,4446262.113,4465030.161,4465032.5999999,2023-05-01T16:32:29Z,4465046.284,NULL,Verzögerung,kuchelewa,s,mwakilishi,mwanauchumi,jaribio,NA,sdf,NA,0,NA,NA,NA,NA,NA,NA,NA,NA,NA,NA,NA,NA,NA,NA,NA,NA,NA,NA,NA
c5479,task,flow.Sequence,3_0_0_0_4,NA,NA,completion,18768.048,4446247.5,4446245.216,4446262.113,4465030.161,4465032.6999998,2023-05-01T16:32:29Z,4465046.284,NULL,Verzögerung,kuchelewa,s,mwakilishi,mwanauchumi,jaribio,NA,sdf,NA,0,NA,NA,NA,NA,NA,NA,NA,NA,NA,NA,NA,NA,NA,NA,NA,NA,NA,NA,NA
c5479,Deep Question,html.Page,3_0_0_0_5_0_0,NA,NA,form submission,8699.115999857,4465032.8,4465030.161,4465046.284,4473745.3999999,4473745.5,2023-05-01T16:32:38Z,4473755.716,NULL,Aufstand,ugomaji,d,NA,NA,NA,jj,NA,NA,0,NA,NA,NA,NA,NA,NA,NA,NA,NA,NA,NA,NA,NA,NA,NA,NA,NA,NA,NA
c5479,"""Richtig""-Screen",canvas.Screen,3_0_0_0_5_0_1,NA,NA,skipped,NA,4473747.5,NA,NA,4473745.3999999,4473747.6999998,2023-05-01T16:32:38Z,4473755.716,NULL,Aufstand,ugomaji,d,NA,NA,NA,NA,sdf,NA,0,NA,NA,NA,NA,NA,NA,NA,NA,NA,NA,NA,NA,NA,NA,NA,NA,NA,NA,NA
c5479,"""Falsch""-Screen",canvas.Screen,3_0_0_0_5_0_2,NA,NA,timeout,4996.3540000003,4473748.3,4473739.742,4473755.716,4478735.501,4478736.3999999,2023-05-01T16:32:43Z,4478752.07,NULL,Aufstand,ugomaji,d,NA,NA,NA,NA,sdf,0,0,NA,NA,NA,NA,NA,NA,NA,NA,NA,NA,NA,NA,NA,NA,NA,NA,NA,NA,NA
c5479,deep,flow.Sequence,3_0_0_0_5_0,NA,NA,completion,13689.217,4465032.8,4465030.161,4465046.284,4478735.501,4478737,2023-05-01T16:32:43Z,4478752.07,NULL,Aufstand,ugomaji,d,NA,NA,NA,NA,sdf,NA,0,NA,NA,NA,NA,NA,NA,NA,NA,NA,NA,NA,NA,NA,NA,NA,NA,NA,NA,NA
c5479,shallow,flow.Sequence,3_0_0_0_5_1,NA,NA,skipped,NA,4478737.1999998,NA,NA,4478735.501,4478737.3,2023-05-01T16:32:43Z,4478752.07,NULL,Aufstand,ugomaji,d,NA,NA,NA,NA,sdf,NA,0,NA,NA,NA,NA,NA,NA,NA,NA,NA,NA,NA,NA,NA,NA,NA,NA,NA,NA,NA
c5479,task,flow.Sequence,3_0_0_0_5,NA,NA,completion,13689.217,4465032.6999998,4465030.161,4465046.284,4478735.501,4478737.5999999,2023-05-01T16:32:43Z,4478752.07,NULL,Aufstand,ugomaji,d,NA,NA,NA,NA,sdf,NA,0,NA,NA,NA,NA,NA,NA,NA,NA,NA,NA,NA,NA,NA,NA,NA,NA,NA,NA,NA
c5479,Deep Question,html.Page,3_0_0_0_6_0_0,NA,NA,form submission,10115.43,4478737.8999999,4478735.501,4478752.07,4488867.5,4488867.8,2023-05-01T16:32:53Z,4488876.689,NULL,Prüfung,mtihani,d,NA,NA,NA,i,NA,NA,0,NA,NA,NA,NA,NA,NA,NA,NA,NA,NA,NA,NA,NA,NA,NA,NA,NA,NA,NA
c5479,"""Richtig""-Screen",canvas.Screen,3_0_0_0_6_0_1,NA,NA,skipped,NA,4488869.8999999,NA,NA,4488867.5,4488870.0999999,2023-05-01T16:32:53Z,4488876.689,NULL,Prüfung,mtihani,d,NA,NA,NA,NA,sdf,NA,0,NA,NA,NA,NA,NA,NA,NA,NA,NA,NA,NA,NA,NA,NA,NA,NA,NA,NA,NA
c5479,"""Falsch""-Screen",canvas.Screen,3_0_0_0_6_0_2,NA,NA,timeout,4996.3089999994,4488870.6999998,4488860.553,4488876.689,4493855.994,4493857.1999998,2023-05-01T16:32:58Z,4493872.998,NULL,Prüfung,mtihani,d,NA,NA,NA,NA,sdf,0,0,NA,NA,NA,NA,NA,NA,NA,NA,NA,NA,NA,NA,NA,NA,NA,NA,NA,NA,NA
c5479,deep,flow.Sequence,3_0_0_0_6_0,NA,NA,completion,15103.924,4478737.8,4478735.501,4478752.07,4493855.994,4493857.5999999,2023-05-01T16:32:58Z,4493872.998,NULL,Prüfung,mtihani,d,NA,NA,NA,NA,sdf,NA,0,NA,NA,NA,NA,NA,NA,NA,NA,NA,NA,NA,NA,NA,NA,NA,NA,NA,NA,NA
c5479,shallow,flow.Sequence,3_0_0_0_6_1,NA,NA,skipped,NA,4493857.8,NA,NA,4493855.994,4493857.8999999,2023-05-01T16:32:58Z,4493872.998,NULL,Prüfung,mtihani,d,NA,NA,NA,NA,sdf,NA,0,NA,NA,NA,NA,NA,NA,NA,NA,NA,NA,NA,NA,NA,NA,NA,NA,NA,NA,NA
c5479,task,flow.Sequence,3_0_0_0_6,NA,NA,completion,15103.924,4478737.6999998,4478735.501,4478752.07,4493855.994,4493858.1999998,2023-05-01T16:32:58Z,4493872.998,NULL,Prüfung,mtihani,d,NA,NA,NA,NA,sdf,NA,0,NA,NA,NA,NA,NA,NA,NA,NA,NA,NA,NA,NA,NA,NA,NA,NA,NA,NA,NA
c5479,deep,flow.Sequence,3_0_0_0_7_0,NA,NA,skipped,NA,4493858.3999999,NA,NA,4493855.994,4493858.5,2023-05-01T16:32:58Z,4493872.998,NULL,Annäherung,maegesho,s,madahili,kujiamini,mapendekezo,NA,sdf,NA,0,NA,NA,NA,NA,NA,NA,NA,NA,NA,NA,NA,NA,NA,NA,NA,NA,NA,NA,NA
c5479,Shallow Question,html.Page,3_0_0_0_7_1_0,NA,NA,form submission,12965.301999953,4493858.6999998,4493855.994,4493872.998,4506838.3,4506838.5,2023-05-01T16:33:11Z,4506845.166,NULL,Annäherung,maegesho,s,madahili,kujiamini,mapendekezo,mapendekezo,NA,NA,0,NA,NA,NA,NA,NA,NA,NA,NA,NA,NA,NA,NA,NA,NA,NA,NA,NA,NA,NA
c5479,"""Richtig""-Screen",canvas.Screen,3_0_0_0_7_1_1,NA,NA,skipped,NA,4506840.3999999,NA,NA,4506838.3,4506840.5,2023-05-01T16:33:11Z,4506845.166,NULL,Annäherung,maegesho,s,madahili,kujiamini,mapendekezo,NA,sdf,NA,0,NA,NA,NA,NA,NA,NA,NA,NA,NA,NA,NA,NA,NA,NA,NA,NA,NA,NA,NA
c5479,"""Falsch""-Screen",canvas.Screen,3_0_0_0_7_1_2,NA,NA,timeout,4996.2390000001,4506841.0999999,4506828.821,4506845.166,4511824.814,4511825.8999999,2023-05-01T16:33:16Z,4511841.405,NULL,Annäherung,maegesho,s,madahili,kujiamini,mapendekezo,NA,sdf,0,0,NA,NA,NA,NA,NA,NA,NA,NA,NA,NA,NA,NA,NA,NA,NA,NA,NA,NA,NA
c5479,shallow,flow.Sequence,3_0_0_0_7_1,NA,NA,completion,17951.816000001,4493858.6999998,4493855.994,4493872.998,4511824.814,4511826.1999998,2023-05-01T16:33:16Z,4511841.405,NULL,Annäherung,maegesho,s,madahili,kujiamini,mapendekezo,NA,sdf,NA,0,NA,NA,NA,NA,NA,NA,NA,NA,NA,NA,NA,NA,NA,NA,NA,NA,NA,NA,NA
c5479,task,flow.Sequence,3_0_0_0_7,NA,NA,completion,17951.816000001,4493858.3999999,4493855.994,4493872.998,4511824.814,4511826.5,2023-05-01T16:33:16Z,4511841.405,NULL,Annäherung,maegesho,s,madahili,kujiamini,mapendekezo,NA,sdf,NA,0,NA,NA,NA,NA,NA,NA,NA,NA,NA,NA,NA,NA,NA,NA,NA,NA,NA,NA,NA
c5479,block,flow.Loop,3_0_0_0,NA,NA,completion,124797.834,4387021,4387010.469,4387026.98,4511824.814,4511826.8999999,2023-05-01T16:33:16Z,4511841.405,NULL,NA,NA,NA,NA,NA,NA,NA,sdf,NA,0,NA,NA,NA,NA,NA,NA,NA,NA,NA,NA,NA,NA,NA,NA,NA,NA,NA,NA,NA
c5479,weiter,canvas.Screen,3_0_0_1,sdf,keypress(Space),response,4481.8949999521,4511827.0999999,4511824.814,4511841.405,4516323.3,4516324.5999999,2023-05-01T16:33:20Z,4516370.7,NULL,NA,NA,NA,NA,NA,NA,NA,sdf,NA,0,NA,NA,NA,NA,NA,NA,NA,NA,NA,NA,NA,NA,NA,NA,NA,NA,NA,NA,NA
c5479,check continue,flow.Sequence,3_0_0,NA,NA,completion,129296.31999995,4387021,4387010.469,4387026.98,4516323.3,4516324.8999999,2023-05-01T16:33:20Z,4516370.7,NULL,NA,NA,NA,NA,NA,NA,NA,sdf,NA,0,NA,NA,NA,NA,NA,NA,NA,NA,NA,NA,NA,NA,NA,NA,NA,NA,NA,NA,NA
c5479,Deep Question,html.Page,3_0_1_0_0_0_0,NA,NA,form submission,15682.099999952,4516366.8999999,4516353.864,4516370.7,4532052.8,4532053,2023-05-01T16:33:36Z,4532057.786,NULL,Polizist,msongora,d,NA,NA,NA,e,NA,NA,1,NA,NA,NA,NA,NA,NA,NA,NA,NA,NA,NA,NA,NA,NA,NA,NA,NA,NA,NA
c5479,"""Richtig""-Screen",canvas.Screen,3_0_1_0_0_0_1,NA,NA,skipped,NA,4532055.1999998,NA,NA,4532052.8,4532055.3,2023-05-01T16:33:36Z,4532057.786,NULL,Polizist,msongora,d,NA,NA,NA,NA,sdfdsf,NA,1,NA,NA,NA,NA,NA,NA,NA,NA,NA,NA,NA,NA,NA,NA,NA,NA,NA,NA,NA
c5479,"""Falsch""-Screen",canvas.Screen,3_0_1_0_0_0_2,NA,NA,timeout,4995.9890000001,4532056,4532041.783,4532057.786,4537037.332,4537038.3,2023-05-01T16:33:41Z,4537053.775,NULL,Polizist,msongora,d,NA,NA,NA,NA,sdfdsf,0,1,NA,NA,NA,NA,NA,NA,NA,NA,NA,NA,NA,NA,NA,NA,NA,NA,NA,NA,NA
c5479,deep,flow.Sequence,3_0_1_0_0_0,NA,NA,completion,20666.632,4516366.8,4516353.864,4516370.7,4537037.332,4537038.6999998,2023-05-01T16:33:41Z,4537053.775,NULL,Polizist,msongora,d,NA,NA,NA,NA,sdfdsf,NA,1,NA,NA,NA,NA,NA,NA,NA,NA,NA,NA,NA,NA,NA,NA,NA,NA,NA,NA,NA
c5479,shallow,flow.Sequence,3_0_1_0_0_1,NA,NA,skipped,NA,4537038.8999999,NA,NA,4537037.332,4537039.0999999,2023-05-01T16:33:41Z,4537053.775,NULL,Polizist,msongora,d,NA,NA,NA,NA,sdfdsf,NA,1,NA,NA,NA,NA,NA,NA,NA,NA,NA,NA,NA,NA,NA,NA,NA,NA,NA,NA,NA
c5479,task,flow.Sequence,3_0_1_0_0,NA,NA,completion,20666.632,4516366.8,4516353.864,4516370.7,4537037.332,4537039.3,2023-05-01T16:33:41Z,4537053.775,NULL,Polizist,msongora,d,NA,NA,NA,NA,sdfdsf,NA,1,NA,NA,NA,NA,NA,NA,NA,NA,NA,NA,NA,NA,NA,NA,NA,NA,NA,NA,NA
c5479,deep,flow.Sequence,3_0_1_0_1_0,NA,NA,skipped,NA,4537039.5,NA,NA,4537037.332,4537039.6999998,2023-05-01T16:33:41Z,4537053.775,NULL,Kultur,utamaduni,s,shetani,gerezani,mazingira,NA,sdfdsf,NA,1,NA,NA,NA,NA,NA,NA,NA,NA,NA,NA,NA,NA,NA,NA,NA,NA,NA,NA,NA
c5479,Shallow Question,html.Page,3_0_1_0_1_1_0,NA,NA,form submission,9668.2249999996,4537039.8999999,4537037.332,4537053.775,4546722,4546722.1999998,2023-05-01T16:33:51Z,4546729.272,NULL,Kultur,utamaduni,s,shetani,gerezani,mazingira,utamaduni,NA,NA,1,NA,NA,NA,NA,NA,NA,NA,NA,NA,NA,NA,NA,NA,NA,NA,NA,NA,NA,NA
c5479,"""Richtig""-Screen",canvas.Screen,3_0_1_0_1_1_1,NA,NA,timeout,4996.3080000002,4546724.0999999,4546712.82,4546729.272,4551709.036,4551709.5,2023-05-01T16:33:56Z,4551725.58,NULL,Kultur,utamaduni,s,shetani,gerezani,mazingira,NA,sdfdsf,1,1,NA,NA,NA,NA,NA,NA,NA,NA,NA,NA,NA,NA,NA,NA,NA,NA,NA,NA,NA
c5479,"""Falsch""-Screen",canvas.Screen,3_0_1_0_1_1_2,NA,NA,skipped,NA,4551711.1999998,NA,NA,4551709.036,4551711.3999999,2023-05-01T16:33:56Z,4551725.58,NULL,Kultur,utamaduni,s,shetani,gerezani,mazingira,NA,sdfdsf,NA,1,NA,NA,NA,NA,NA,NA,NA,NA,NA,NA,NA,NA,NA,NA,NA,NA,NA,NA,NA
c5479,shallow,flow.Sequence,3_0_1_0_1_1,NA,NA,completion,14655.261,4537039.8,4537037.332,4537053.775,4551709.036,4551711.5,2023-05-01T16:33:56Z,4551725.58,NULL,Kultur,utamaduni,s,shetani,gerezani,mazingira,NA,sdfdsf,NA,1,NA,NA,NA,NA,NA,NA,NA,NA,NA,NA,NA,NA,NA,NA,NA,NA,NA,NA,NA
c5479,task,flow.Sequence,3_0_1_0_1,NA,NA,completion,14655.261,4537039.5,4537037.332,4537053.775,4551709.036,4551711.5999999,2023-05-01T16:33:56Z,4551725.58,NULL,Kultur,utamaduni,s,shetani,gerezani,mazingira,NA,sdfdsf,NA,1,NA,NA,NA,NA,NA,NA,NA,NA,NA,NA,NA,NA,NA,NA,NA,NA,NA,NA,NA
c5479,Deep Question,html.Page,3_0_1_0_2_0_0,NA,NA,form submission,17845.519999905,4551711.8,4551709.036,4551725.58,4569571.0999999,4569571.3,2023-05-01T16:34:14Z,4569576.945,NULL,Aufstand,ugomaji,d,NA,NA,NA,maspeda,NA,NA,1,NA,NA,NA,NA,NA,NA,NA,NA,NA,NA,NA,NA,NA,NA,NA,NA,NA,NA,NA
c5479,"""Richtig""-Screen",canvas.Screen,3_0_1_0_2_0_1,NA,NA,skipped,NA,4569573.3999999,NA,NA,4569571.0999999,4569573.5,2023-05-01T16:34:14Z,4569576.945,NULL,Aufstand,ugomaji,d,NA,NA,NA,NA,sdfdsf,NA,1,NA,NA,NA,NA,NA,NA,NA,NA,NA,NA,NA,NA,NA,NA,NA,NA,NA,NA,NA
c5479,"""Falsch""-Screen",canvas.Screen,3_0_1_0_2_0_2,NA,NA,timeout,4996.477,4569574.1999998,4569560.68,4569576.945,4574556.301,4574557.3,2023-05-01T16:34:19Z,4574573.422,NULL,Aufstand,ugomaji,d,NA,NA,NA,NA,sdfdsf,0,1,NA,NA,NA,NA,NA,NA,NA,NA,NA,NA,NA,NA,NA,NA,NA,NA,NA,NA,NA
c5479,deep,flow.Sequence,3_0_1_0_2_0,NA,NA,completion,22830.721,4551711.6999998,4551709.036,4551725.58,4574556.301,4574557.8,2023-05-01T16:34:19Z,4574573.422,NULL,Aufstand,ugomaji,d,NA,NA,NA,NA,sdfdsf,NA,1,NA,NA,NA,NA,NA,NA,NA,NA,NA,NA,NA,NA,NA,NA,NA,NA,NA,NA,NA
c5479,shallow,flow.Sequence,3_0_1_0_2_1,NA,NA,skipped,NA,4574558,NA,NA,4574556.301,4574558.1999998,2023-05-01T16:34:19Z,4574573.422,NULL,Aufstand,ugomaji,d,NA,NA,NA,NA,sdfdsf,NA,1,NA,NA,NA,NA,NA,NA,NA,NA,NA,NA,NA,NA,NA,NA,NA,NA,NA,NA,NA
c5479,task,flow.Sequence,3_0_1_0_2,NA,NA,completion,22830.721,4551711.6999998,4551709.036,4551725.58,4574556.301,4574558.5,2023-05-01T16:34:19Z,4574573.422,NULL,Aufstand,ugomaji,d,NA,NA,NA,NA,sdfdsf,NA,1,NA,NA,NA,NA,NA,NA,NA,NA,NA,NA,NA,NA,NA,NA,NA,NA,NA,NA,NA
c5479,deep,flow.Sequence,3_0_1_0_3_0,NA,NA,skipped,NA,4574558.5999999,NA,NA,4574556.301,4574558.8,2023-05-01T16:34:19Z,4574573.422,NULL,Verzögerung,kuchelewa,s,mwakilishi,mwanauchumi,jaribio,NA,sdfdsf,NA,1,NA,NA,NA,NA,NA,NA,NA,NA,NA,NA,NA,NA,NA,NA,NA,NA,NA,NA,NA
c5479,Shallow Question,html.Page,3_0_1_0_3_1_0,NA,NA,form submission,10981.578,4574559,4574556.301,4574573.422,4585555,4585555.6999998,2023-05-01T16:34:30Z,4585563.912,NULL,Verzögerung,kuchelewa,s,mwakilishi,mwanauchumi,jaribio,kuchelewa,NA,NA,1,NA,NA,NA,NA,NA,NA,NA,NA,NA,NA,NA,NA,NA,NA,NA,NA,NA,NA,NA
c5479,"""Richtig""-Screen",canvas.Screen,3_0_1_0_3_1_1,NA,NA,timeout,4996.4880000008,4585558.6999998,4585547.745,4585563.912,4590543.084,4590543.5,2023-05-01T16:34:35Z,4590560.4,NULL,Verzögerung,kuchelewa,s,mwakilishi,mwanauchumi,jaribio,NA,sdfdsf,1,1,NA,NA,NA,NA,NA,NA,NA,NA,NA,NA,NA,NA,NA,NA,NA,NA,NA,NA,NA
c5479,"""Falsch""-Screen",canvas.Screen,3_0_1_0_3_1_2,NA,NA,skipped,NA,4590545.0999999,NA,NA,4590543.084,4590545.1999998,2023-05-01T16:34:35Z,4590560.4,NULL,Verzögerung,kuchelewa,s,mwakilishi,mwanauchumi,jaribio,NA,sdfdsf,NA,1,NA,NA,NA,NA,NA,NA,NA,NA,NA,NA,NA,NA,NA,NA,NA,NA,NA,NA,NA
c5479,shallow,flow.Sequence,3_0_1_0_3_1,NA,NA,completion,15969.662,4574558.8999999,4574556.301,4574573.422,4590543.084,4590545.3,2023-05-01T16:34:35Z,4590560.4,NULL,Verzögerung,kuchelewa,s,mwakilishi,mwanauchumi,jaribio,NA,sdfdsf,NA,1,NA,NA,NA,NA,NA,NA,NA,NA,NA,NA,NA,NA,NA,NA,NA,NA,NA,NA,NA
c5479,task,flow.Sequence,3_0_1_0_3,NA,NA,completion,15969.662,4574558.5999999,4574556.301,4574573.422,4590543.084,4590545.3999999,2023-05-01T16:34:35Z,4590560.4,NULL,Verzögerung,kuchelewa,s,mwakilishi,mwanauchumi,jaribio,NA,sdfdsf,NA,1,NA,NA,NA,NA,NA,NA,NA,NA,NA,NA,NA,NA,NA,NA,NA,NA,NA,NA,NA
c5479,deep,flow.Sequence,3_0_1_0_4_0,NA,NA,skipped,NA,4590545.5,NA,NA,4590543.084,4590545.5,2023-05-01T16:34:35Z,4590560.4,NULL,Sympathie,mapendano,s,dhamiria,fungamano,maazimio,NA,sdfdsf,NA,1,NA,NA,NA,NA,NA,NA,NA,NA,NA,NA,NA,NA,NA,NA,NA,NA,NA,NA,NA
c5479,Shallow Question,html.Page,3_0_1_0_4_1_0,NA,NA,form submission,14105.499999857,4590545.5999999,4590543.084,4590560.4,4604665.8999999,4604666,2023-05-01T16:34:49Z,4604682.084,NULL,Sympathie,mapendano,s,dhamiria,fungamano,maazimio,mapendano,NA,NA,1,NA,NA,NA,NA,NA,NA,NA,NA,NA,NA,NA,NA,NA,NA,NA,NA,NA,NA,NA
c5479,"""Richtig""-Screen",canvas.Screen,3_0_1_0_4_1_1,NA,NA,timeout,4995.7659999998,4604668,4604648.68,4604682.084,4609660.834,4609662.5999999,2023-05-01T16:34:54Z,4609677.85,NULL,Sympathie,mapendano,s,dhamiria,fungamano,maazimio,NA,sdfdsf,1,1,NA,NA,NA,NA,NA,NA,NA,NA,NA,NA,NA,NA,NA,NA,NA,NA,NA,NA,NA
c5479,"""Falsch""-Screen",canvas.Screen,3_0_1_0_4_1_2,NA,NA,skipped,NA,4609665.0999999,NA,NA,4609660.834,4609665.3,2023-05-01T16:34:54Z,4609677.85,NULL,Sympathie,mapendano,s,dhamiria,fungamano,maazimio,NA,sdfdsf,NA,1,NA,NA,NA,NA,NA,NA,NA,NA,NA,NA,NA,NA,NA,NA,NA,NA,NA,NA,NA
c5479,shallow,flow.Sequence,3_0_1_0_4_1,NA,NA,completion,19100.433999999,4590545.5999999,4590543.084,4590560.4,4609660.834,4609665.5,2023-05-01T16:34:54Z,4609677.85,NULL,Sympathie,mapendano,s,dhamiria,fungamano,maazimio,NA,sdfdsf,NA,1,NA,NA,NA,NA,NA,NA,NA,NA,NA,NA,NA,NA,NA,NA,NA,NA,NA,NA,NA
c5479,task,flow.Sequence,3_0_1_0_4,NA,NA,completion,19100.433999999,4590545.5,4590543.084,4590560.4,4609660.834,4609665.6999998,2023-05-01T16:34:54Z,4609677.85,NULL,Sympathie,mapendano,s,dhamiria,fungamano,maazimio,NA,sdfdsf,NA,1,NA,NA,NA,NA,NA,NA,NA,NA,NA,NA,NA,NA,NA,NA,NA,NA,NA,NA,NA
c5479,deep,flow.Sequence,3_0_1_0_5_0,NA,NA,skipped,NA,4609665.6999998,NA,NA,4609660.834,4609665.8999999,2023-05-01T16:34:54Z,4609677.85,NULL,Annäherung,maegesho,s,madahili,kujiamini,mapendekezo,NA,sdfdsf,NA,1,NA,NA,NA,NA,NA,NA,NA,NA,NA,NA,NA,NA,NA,NA,NA,NA,NA,NA,NA
c5479,Shallow Question,html.Page,3_0_1_0_5_1_0,NA,NA,form submission,25401.449999953,4609666,4609660.834,4609677.85,4635079.3,4635079.5,2023-05-01T16:35:19Z,4635089.961,NULL,Annäherung,maegesho,s,madahili,kujiamini,mapendekezo,maegesho,NA,NA,1,NA,NA,NA,NA,NA,NA,NA,NA,NA,NA,NA,NA,NA,NA,NA,NA,NA,NA,NA
c5479,"""Richtig""-Screen",canvas.Screen,3_0_1_0_5_1_1,NA,NA,timeout,4995.8889999995,4635081.3999999,4635073.743,4635089.961,4640069.148,4640071.8,2023-05-01T16:35:24Z,4640085.85,NULL,Annäherung,maegesho,s,madahili,kujiamini,mapendekezo,NA,sdfdsf,1,1,NA,NA,NA,NA,NA,NA,NA,NA,NA,NA,NA,NA,NA,NA,NA,NA,NA,NA,NA
c5479,"""Falsch""-Screen",canvas.Screen,3_0_1_0_5_1_2,NA,NA,skipped,NA,4640076.3999999,NA,NA,4640069.148,4640076.5999999,2023-05-01T16:35:24Z,4640085.85,NULL,Annäherung,maegesho,s,madahili,kujiamini,mapendekezo,NA,sdfdsf,NA,1,NA,NA,NA,NA,NA,NA,NA,NA,NA,NA,NA,NA,NA,NA,NA,NA,NA,NA,NA
c5479,shallow,flow.Sequence,3_0_1_0_5_1,NA,NA,completion,30391.298,4609665.8999999,4609660.834,4609677.85,4640069.148,4640076.5999999,2023-05-01T16:35:24Z,4640085.85,NULL,Annäherung,maegesho,s,madahili,kujiamini,mapendekezo,NA,sdfdsf,NA,1,NA,NA,NA,NA,NA,NA,NA,NA,NA,NA,NA,NA,NA,NA,NA,NA,NA,NA,NA
c5479,task,flow.Sequence,3_0_1_0_5,NA,NA,completion,30391.298,4609665.6999998,4609660.834,4609677.85,4640069.148,4640076.8,2023-05-01T16:35:24Z,4640085.85,NULL,Annäherung,maegesho,s,madahili,kujiamini,mapendekezo,NA,sdfdsf,NA,1,NA,NA,NA,NA,NA,NA,NA,NA,NA,NA,NA,NA,NA,NA,NA,NA,NA,NA,NA
c5479,Deep Question,html.Page,3_0_1_0_6_0_0,NA,NA,form submission,11275.249999905,4640076.8,4640069.148,4640085.85,4651361.0999999,4651361.3999999,2023-05-01T16:35:35Z,4651376.84,NULL,Beweis,ushahidi,d,NA,NA,NA,j,NA,NA,1,NA,NA,NA,NA,NA,NA,NA,NA,NA,NA,NA,NA,NA,NA,NA,NA,NA,NA,NA
c5479,"""Richtig""-Screen",canvas.Screen,3_0_1_0_6_0_1,NA,NA,skipped,NA,4651363.3999999,NA,NA,4651361.0999999,4651363.5,2023-05-01T16:35:35Z,4651376.84,NULL,Beweis,ushahidi,d,NA,NA,NA,NA,sdfdsf,NA,1,NA,NA,NA,NA,NA,NA,NA,NA,NA,NA,NA,NA,NA,NA,NA,NA,NA,NA,NA
c5479,"""Falsch""-Screen",canvas.Screen,3_0_1_0_6_0_2,NA,NA,timeout,4996.1550000003,4651364,4651360.16,4651376.84,4656355.742,4656356.5,2023-05-01T16:35:40Z,4656372.995,NULL,Beweis,ushahidi,d,NA,NA,NA,NA,sdfdsf,0,1,NA,NA,NA,NA,NA,NA,NA,NA,NA,NA,NA,NA,NA,NA,NA,NA,NA,NA,NA
c5479,deep,flow.Sequence,3_0_1_0_6_0,NA,NA,completion,16269.892,4640076.8,4640069.148,4640085.85,4656355.742,4656356.8999999,2023-05-01T16:35:40Z,4656372.995,NULL,Beweis,ushahidi,d,NA,NA,NA,NA,sdfdsf,NA,1,NA,NA,NA,NA,NA,NA,NA,NA,NA,NA,NA,NA,NA,NA,NA,NA,NA,NA,NA
c5479,shallow,flow.Sequence,3_0_1_0_6_1,NA,NA,skipped,NA,4656357.0999999,NA,NA,4656355.742,4656357.1999998,2023-05-01T16:35:40Z,4656372.995,NULL,Beweis,ushahidi,d,NA,NA,NA,NA,sdfdsf,NA,1,NA,NA,NA,NA,NA,NA,NA,NA,NA,NA,NA,NA,NA,NA,NA,NA,NA,NA,NA
c5479,task,flow.Sequence,3_0_1_0_6,NA,NA,completion,16269.892,4640076.8,4640069.148,4640085.85,4656355.742,4656357.5,2023-05-01T16:35:40Z,4656372.995,NULL,Beweis,ushahidi,d,NA,NA,NA,NA,sdfdsf,NA,1,NA,NA,NA,NA,NA,NA,NA,NA,NA,NA,NA,NA,NA,NA,NA,NA,NA,NA,NA
c5479,Deep Question,html.Page,3_0_1_0_7_0_0,NA,NA,form submission,22552.104999905,4656357.8,4656355.742,4656372.995,4678925.0999999,4678925.3999999,2023-05-01T16:36:03Z,4678937.305,NULL,Prüfung,mtihani,d,NA,NA,NA,j,NA,NA,1,NA,NA,NA,NA,NA,NA,NA,NA,NA,NA,NA,NA,NA,NA,NA,NA,NA,NA,NA
c5479,"""Richtig""-Screen",canvas.Screen,3_0_1_0_7_0_1,NA,NA,skipped,NA,4678927.5,NA,NA,4678925.0999999,4678927.6999998,2023-05-01T16:36:03Z,4678937.305,NULL,Prüfung,mtihani,d,NA,NA,NA,NA,sdfdsf,NA,1,NA,NA,NA,NA,NA,NA,NA,NA,NA,NA,NA,NA,NA,NA,NA,NA,NA,NA,NA
c5479,"""Falsch""-Screen",canvas.Screen,3_0_1_0_7_0_2,NA,NA,timeout,4996.2300000004,4678928.1999998,4678920.872,4678937.305,4683916.363,4683918.0999999,2023-05-01T16:36:08Z,4683933.535,NULL,Prüfung,mtihani,d,NA,NA,NA,NA,sdfdsf,0,1,NA,NA,NA,NA,NA,NA,NA,NA,NA,NA,NA,NA,NA,NA,NA,NA,NA,NA,NA
c5479,deep,flow.Sequence,3_0_1_0_7_0,NA,NA,completion,27543.368,4656357.6999998,4656355.742,4656372.995,4683916.363,4683918.3999999,2023-05-01T16:36:08Z,4683933.535,NULL,Prüfung,mtihani,d,NA,NA,NA,NA,sdfdsf,NA,1,NA,NA,NA,NA,NA,NA,NA,NA,NA,NA,NA,NA,NA,NA,NA,NA,NA,NA,NA
c5479,shallow,flow.Sequence,3_0_1_0_7_1,NA,NA,skipped,NA,4683918.6999998,NA,NA,4683916.363,4683918.8999999,2023-05-01T16:36:08Z,4683933.535,NULL,Prüfung,mtihani,d,NA,NA,NA,NA,sdfdsf,NA,1,NA,NA,NA,NA,NA,NA,NA,NA,NA,NA,NA,NA,NA,NA,NA,NA,NA,NA,NA
c5479,task,flow.Sequence,3_0_1_0_7,NA,NA,completion,27543.368,4656357.5999999,4656355.742,4656372.995,4683916.363,4683919.1999998,2023-05-01T16:36:08Z,4683933.535,NULL,Prüfung,mtihani,d,NA,NA,NA,NA,sdfdsf,NA,1,NA,NA,NA,NA,NA,NA,NA,NA,NA,NA,NA,NA,NA,NA,NA,NA,NA,NA,NA
c5479,block,flow.Loop,3_0_1_0,NA,NA,completion,167545.663,4516366.8,4516353.864,4516370.7,4683916.363,4683919.5,2023-05-01T16:36:08Z,4683933.535,NULL,NA,NA,NA,NA,NA,NA,NA,sdfdsf,NA,1,NA,NA,NA,NA,NA,NA,NA,NA,NA,NA,NA,NA,NA,NA,NA,NA,NA,NA,NA
c5479,weiter,canvas.Screen,3_0_1_1,sdf,keypress(Space),response,2225.7649999522,4683919.5999999,4683916.363,4683933.535,4686159.3,4686160.3999999,2023-05-01T16:36:10Z,4686197.762,NULL,NA,NA,NA,NA,NA,NA,NA,sdfdsf,NA,1,NA,NA,NA,NA,NA,NA,NA,NA,NA,NA,NA,NA,NA,NA,NA,NA,NA,NA,NA
c5479,check continue,flow.Sequence,3_0_1,NA,NA,completion,169788.59999995,4516366.8,4516353.864,4516370.7,4686159.3,4686160.8,2023-05-01T16:36:10Z,4686197.762,NULL,NA,NA,NA,NA,NA,NA,NA,sdfdsf,NA,1,NA,NA,NA,NA,NA,NA,NA,NA,NA,NA,NA,NA,NA,NA,NA,NA,NA,NA,NA
c5479,deep,flow.Sequence,3_0_2_0_0_0,NA,NA,skipped,NA,4686190.3999999,NA,NA,4686159.3,4686190.5,2023-05-01T16:36:10Z,4686197.762,NULL,Annäherung,maegesho,s,madahili,kujiamini,mapendekezo,NA,sdf,NA,2,NA,NA,NA,NA,NA,NA,NA,NA,NA,NA,NA,NA,NA,NA,NA,NA,NA,NA,NA
c5479,Shallow Question,html.Page,3_0_2_0_0_1_0,NA,NA,form submission,19790.037999952,4686190.5999999,4686181.017,4686197.762,4705987.8,4705988,2023-05-01T16:36:30Z,4705998.207,NULL,Annäherung,maegesho,s,madahili,kujiamini,mapendekezo,maegesho,NA,NA,2,NA,NA,NA,NA,NA,NA,NA,NA,NA,NA,NA,NA,NA,NA,NA,NA,NA,NA,NA
c5479,"""Richtig""-Screen",canvas.Screen,3_0_2_0_0_1_1,NA,NA,timeout,4996.3599999994,4705989.8999999,4705982.075,4705998.207,4710977.956,4710978.5999999,2023-05-01T16:36:35Z,4710994.567,NULL,Annäherung,maegesho,s,madahili,kujiamini,mapendekezo,NA,sdf,1,2,NA,NA,NA,NA,NA,NA,NA,NA,NA,NA,NA,NA,NA,NA,NA,NA,NA,NA,NA
c5479,"""Falsch""-Screen",canvas.Screen,3_0_2_0_0_1_2,NA,NA,skipped,NA,4710981.1999998,NA,NA,4710977.956,4710981.3999999,2023-05-01T16:36:35Z,4710994.567,NULL,Annäherung,maegesho,s,madahili,kujiamini,mapendekezo,NA,sdf,NA,2,NA,NA,NA,NA,NA,NA,NA,NA,NA,NA,NA,NA,NA,NA,NA,NA,NA,NA,NA
c5479,shallow,flow.Sequence,3_0_2_0_0_1,NA,NA,completion,24780.194,4686190.5999999,4686181.017,4686197.762,4710977.956,4710981.6999998,2023-05-01T16:36:35Z,4710994.567,NULL,Annäherung,maegesho,s,madahili,kujiamini,mapendekezo,NA,sdf,NA,2,NA,NA,NA,NA,NA,NA,NA,NA,NA,NA,NA,NA,NA,NA,NA,NA,NA,NA,NA
c5479,task,flow.Sequence,3_0_2_0_0,NA,NA,completion,24780.194,4686190.3,4686181.017,4686197.762,4710977.956,4710981.8,2023-05-01T16:36:35Z,4710994.567,NULL,Annäherung,maegesho,s,madahili,kujiamini,mapendekezo,NA,sdf,NA,2,NA,NA,NA,NA,NA,NA,NA,NA,NA,NA,NA,NA,NA,NA,NA,NA,NA,NA,NA
c5479,deep,flow.Sequence,3_0_2_0_1_0,NA,NA,skipped,NA,4710981.8999999,NA,NA,4710977.956,4710982,2023-05-01T16:36:35Z,4710994.567,NULL,Sympathie,mapendano,s,dhamiria,fungamano,maazimio,NA,sdf,NA,2,NA,NA,NA,NA,NA,NA,NA,NA,NA,NA,NA,NA,NA,NA,NA,NA,NA,NA,NA
c5479,Shallow Question,html.Page,3_0_2_0_1_1_0,NA,NA,form submission,8384.3329998571,4710982.0999999,4710977.956,4710994.567,4719378.8999999,4719379.0999999,2023-05-01T16:36:43Z,4719387.469,NULL,Sympathie,mapendano,s,dhamiria,fungamano,maazimio,mapendano,NA,NA,2,NA,NA,NA,NA,NA,NA,NA,NA,NA,NA,NA,NA,NA,NA,NA,NA,NA,NA,NA
c5479,"""Richtig""-Screen",canvas.Screen,3_0_2_0_1_1_1,NA,NA,timeout,4995.9880000008,4719380.8999999,4719371.016,4719387.469,4724366.546,4724367.5,2023-05-01T16:36:48Z,4724383.457,NULL,Sympathie,mapendano,s,dhamiria,fungamano,maazimio,NA,sdf,1,2,NA,NA,NA,NA,NA,NA,NA,NA,NA,NA,NA,NA,NA,NA,NA,NA,NA,NA,NA
c5479,"""Falsch""-Screen",canvas.Screen,3_0_2_0_1_1_2,NA,NA,skipped,NA,4724372.0999999,NA,NA,4724366.546,4724372.3,2023-05-01T16:36:48Z,4724383.457,NULL,Sympathie,mapendano,s,dhamiria,fungamano,maazimio,NA,sdf,NA,2,NA,NA,NA,NA,NA,NA,NA,NA,NA,NA,NA,NA,NA,NA,NA,NA,NA,NA,NA
c5479,shallow,flow.Sequence,3_0_2_0_1_1,NA,NA,completion,13371.979,4710982.0999999,4710977.956,4710994.567,4724366.546,4724372.3999999,2023-05-01T16:36:48Z,4724383.457,NULL,Sympathie,mapendano,s,dhamiria,fungamano,maazimio,NA,sdf,NA,2,NA,NA,NA,NA,NA,NA,NA,NA,NA,NA,NA,NA,NA,NA,NA,NA,NA,NA,NA
c5479,task,flow.Sequence,3_0_2_0_1,NA,NA,completion,13371.979,4710981.8999999,4710977.956,4710994.567,4724366.546,4724372.5,2023-05-01T16:36:48Z,4724383.457,NULL,Sympathie,mapendano,s,dhamiria,fungamano,maazimio,NA,sdf,NA,2,NA,NA,NA,NA,NA,NA,NA,NA,NA,NA,NA,NA,NA,NA,NA,NA,NA,NA,NA
c5479,Deep Question,html.Page,3_0_2_0_2_0_0,NA,NA,form submission,24209.242999809,4724372.5999999,4724366.546,4724383.457,4748592.6999998,4748593,2023-05-01T16:37:13Z,4748596.516,NULL,Polizist,msongora,d,NA,NA,NA,esh,NA,NA,2,NA,NA,NA,NA,NA,NA,NA,NA,NA,NA,NA,NA,NA,NA,NA,NA,NA,NA,NA
c5479,"""Richtig""-Screen",canvas.Screen,3_0_2_0_2_0_1,NA,NA,skipped,NA,4748595,NA,NA,4748592.6999998,4748595.1999998,2023-05-01T16:37:13Z,4748596.516,NULL,Polizist,msongora,d,NA,NA,NA,NA,sdf,NA,2,NA,NA,NA,NA,NA,NA,NA,NA,NA,NA,NA,NA,NA,NA,NA,NA,NA,NA,NA
c5479,"""Falsch""-Screen",canvas.Screen,3_0_2_0_2_0_2,NA,NA,timeout,4996.54,4748596.0999999,4748579.911,4748596.516,4753575.809,4753577.5,2023-05-01T16:37:18Z,4753593.056,NULL,Polizist,msongora,d,NA,NA,NA,NA,sdf,0,2,NA,NA,NA,NA,NA,NA,NA,NA,NA,NA,NA,NA,NA,NA,NA,NA,NA,NA,NA
c5479,deep,flow.Sequence,3_0_2_0_2_0,NA,NA,completion,29192.352,4724372.5999999,4724366.546,4724383.457,4753575.809,4753577.8999999,2023-05-01T16:37:18Z,4753593.056,NULL,Polizist,msongora,d,NA,NA,NA,NA,sdf,NA,2,NA,NA,NA,NA,NA,NA,NA,NA,NA,NA,NA,NA,NA,NA,NA,NA,NA,NA,NA
c5479,shallow,flow.Sequence,3_0_2_0_2_1,NA,NA,skipped,NA,4753578,NA,NA,4753575.809,4753578.0999999,2023-05-01T16:37:18Z,4753593.056,NULL,Polizist,msongora,d,NA,NA,NA,NA,sdf,NA,2,NA,NA,NA,NA,NA,NA,NA,NA,NA,NA,NA,NA,NA,NA,NA,NA,NA,NA,NA
c5479,task,flow.Sequence,3_0_2_0_2,NA,NA,completion,29192.352,4724372.5999999,4724366.546,4724383.457,4753575.809,4753578.3,2023-05-01T16:37:18Z,4753593.056,NULL,Polizist,msongora,d,NA,NA,NA,NA,sdf,NA,2,NA,NA,NA,NA,NA,NA,NA,NA,NA,NA,NA,NA,NA,NA,NA,NA,NA,NA,NA
c5479,deep,flow.Sequence,3_0_2_0_3_0,NA,NA,skipped,NA,4753578.3999999,NA,NA,4753575.809,4753578.5,2023-05-01T16:37:18Z,4753593.056,NULL,Verzögerung,kuchelewa,s,mwakilishi,mwanauchumi,jaribio,NA,sdf,NA,2,NA,NA,NA,NA,NA,NA,NA,NA,NA,NA,NA,NA,NA,NA,NA,NA,NA,NA,NA
c5479,Shallow Question,html.Page,3_0_2_0_3_1_0,NA,NA,form submission,8097.9440000001,4753578.5999999,4753575.809,4753593.056,4761691,4761691.6999998,2023-05-01T16:37:26Z,4761702.61,NULL,Verzögerung,kuchelewa,s,mwakilishi,mwanauchumi,jaribio,kuchelewa,NA,NA,2,NA,NA,NA,NA,NA,NA,NA,NA,NA,NA,NA,NA,NA,NA,NA,NA,NA,NA,NA
c5479,"""Richtig""-Screen",canvas.Screen,3_0_2_0_3_1_1,NA,NA,timeout,4996.0699999994,4761694.3,4761685.81,4761702.61,4766682.168,4766683.8,2023-05-01T16:37:31Z,4766698.68,NULL,Verzögerung,kuchelewa,s,mwakilishi,mwanauchumi,jaribio,NA,sdf,1,2,NA,NA,NA,NA,NA,NA,NA,NA,NA,NA,NA,NA,NA,NA,NA,NA,NA,NA,NA
c5479,"""Falsch""-Screen",canvas.Screen,3_0_2_0_3_1_2,NA,NA,skipped,NA,4766686.1999998,NA,NA,4766682.168,4766686.3,2023-05-01T16:37:31Z,4766698.68,NULL,Verzögerung,kuchelewa,s,mwakilishi,mwanauchumi,jaribio,NA,sdf,NA,2,NA,NA,NA,NA,NA,NA,NA,NA,NA,NA,NA,NA,NA,NA,NA,NA,NA,NA,NA
c5479,shallow,flow.Sequence,3_0_2_0_3_1,NA,NA,completion,13089.112,4753578.5,4753575.809,4753593.056,4766682.168,4766686.3999999,2023-05-01T16:37:31Z,4766698.68,NULL,Verzögerung,kuchelewa,s,mwakilishi,mwanauchumi,jaribio,NA,sdf,NA,2,NA,NA,NA,NA,NA,NA,NA,NA,NA,NA,NA,NA,NA,NA,NA,NA,NA,NA,NA
c5479,task,flow.Sequence,3_0_2_0_3,NA,NA,completion,13089.112,4753578.3,4753575.809,4753593.056,4766682.168,4766686.5,2023-05-01T16:37:31Z,4766698.68,NULL,Verzögerung,kuchelewa,s,mwakilishi,mwanauchumi,jaribio,NA,sdf,NA,2,NA,NA,NA,NA,NA,NA,NA,NA,NA,NA,NA,NA,NA,NA,NA,NA,NA,NA,NA
c5479,Deep Question,html.Page,3_0_2_0_4_0_0,NA,NA,form submission,22455.82,4766686.5999999,4766682.168,4766698.68,4789154.5,4789154.6999998,2023-05-01T16:37:53Z,4789163.141,NULL,Beweis,ushahidi,d,NA,NA,NA,j,NA,NA,2,NA,NA,NA,NA,NA,NA,NA,NA,NA,NA,NA,NA,NA,NA,NA,NA,NA,NA,NA
c5479,"""Richtig""-Screen",canvas.Screen,3_0_2_0_4_0_1,NA,NA,skipped,NA,4789156.5999999,NA,NA,4789154.5,4789156.8,2023-05-01T16:37:53Z,4789163.141,NULL,Beweis,ushahidi,d,NA,NA,NA,NA,sdf,NA,2,NA,NA,NA,NA,NA,NA,NA,NA,NA,NA,NA,NA,NA,NA,NA,NA,NA,NA,NA
c5479,"""Falsch""-Screen",canvas.Screen,3_0_2_0_4_0_2,NA,NA,timeout,4996.0109999999,4789157.3999999,4789146.774,4789163.141,4794142.524,4794143.5999999,2023-05-01T16:37:58Z,4794159.152,NULL,Beweis,ushahidi,d,NA,NA,NA,NA,sdf,0,2,NA,NA,NA,NA,NA,NA,NA,NA,NA,NA,NA,NA,NA,NA,NA,NA,NA,NA,NA
c5479,deep,flow.Sequence,3_0_2_0_4_0,NA,NA,completion,27443.844000001,4766686.5999999,4766682.168,4766698.68,4794142.524,4794144,2023-05-01T16:37:58Z,4794159.152,NULL,Beweis,ushahidi,d,NA,NA,NA,NA,sdf,NA,2,NA,NA,NA,NA,NA,NA,NA,NA,NA,NA,NA,NA,NA,NA,NA,NA,NA,NA,NA
c5479,shallow,flow.Sequence,3_0_2_0_4_1,NA,NA,skipped,NA,4794144.1999998,NA,NA,4794142.524,4794144.3999999,2023-05-01T16:37:58Z,4794159.152,NULL,Beweis,ushahidi,d,NA,NA,NA,NA,sdf,NA,2,NA,NA,NA,NA,NA,NA,NA,NA,NA,NA,NA,NA,NA,NA,NA,NA,NA,NA,NA
c5479,task,flow.Sequence,3_0_2_0_4,NA,NA,completion,27443.844000001,4766686.5999999,4766682.168,4766698.68,4794142.524,4794144.5,2023-05-01T16:37:58Z,4794159.152,NULL,Beweis,ushahidi,d,NA,NA,NA,NA,sdf,NA,2,NA,NA,NA,NA,NA,NA,NA,NA,NA,NA,NA,NA,NA,NA,NA,NA,NA,NA,NA
c5479,Deep Question,html.Page,3_0_2_0_5_0_0,NA,NA,form submission,14874.547999809,4794144.8,4794142.524,4794159.152,4809033.6999998,4809033.8999999,2023-05-01T16:38:13Z,4809046.771,NULL,Prüfung,mtihani,d,NA,NA,NA,j,NA,NA,2,NA,NA,NA,NA,NA,NA,NA,NA,NA,NA,NA,NA,NA,NA,NA,NA,NA,NA,NA
c5479,"""Richtig""-Screen",canvas.Screen,3_0_2_0_5_0_1,NA,NA,skipped,NA,4809035.8,NA,NA,4809033.6999998,4809036,2023-05-01T16:38:13Z,4809046.771,NULL,Prüfung,mtihani,d,NA,NA,NA,NA,sdf,NA,2,NA,NA,NA,NA,NA,NA,NA,NA,NA,NA,NA,NA,NA,NA,NA,NA,NA,NA,NA
c5479,"""Falsch""-Screen",canvas.Screen,3_0_2_0_5_0_2,NA,NA,timeout,4996.6809999999,4809036.8999999,4809030.747,4809046.771,4814026.34,4814028.6999998,2023-05-01T16:38:18Z,4814043.452,NULL,Prüfung,mtihani,d,NA,NA,NA,NA,sdf,0,2,NA,NA,NA,NA,NA,NA,NA,NA,NA,NA,NA,NA,NA,NA,NA,NA,NA,NA,NA
c5479,deep,flow.Sequence,3_0_2_0_5_0,NA,NA,completion,19867.188,4794144.6999998,4794142.524,4794159.152,4814026.34,4814029.1999998,2023-05-01T16:38:18Z,4814043.452,NULL,Prüfung,mtihani,d,NA,NA,NA,NA,sdf,NA,2,NA,NA,NA,NA,NA,NA,NA,NA,NA,NA,NA,NA,NA,NA,NA,NA,NA,NA,NA
c5479,shallow,flow.Sequence,3_0_2_0_5_1,NA,NA,skipped,NA,4814029.3999999,NA,NA,4814026.34,4814029.5,2023-05-01T16:38:18Z,4814043.452,NULL,Prüfung,mtihani,d,NA,NA,NA,NA,sdf,NA,2,NA,NA,NA,NA,NA,NA,NA,NA,NA,NA,NA,NA,NA,NA,NA,NA,NA,NA,NA
c5479,task,flow.Sequence,3_0_2_0_5,NA,NA,completion,19867.188,4794144.6999998,4794142.524,4794159.152,4814026.34,4814029.8999999,2023-05-01T16:38:18Z,4814043.452,NULL,Prüfung,mtihani,d,NA,NA,NA,NA,sdf,NA,2,NA,NA,NA,NA,NA,NA,NA,NA,NA,NA,NA,NA,NA,NA,NA,NA,NA,NA,NA
c5479,Deep Question,html.Page,3_0_2_0_6_0_0,NA,NA,form submission,23169.24799981,4814030.0999999,4814026.34,4814043.452,4837212.6999998,4837213,2023-05-01T16:38:41Z,4837223.74,NULL,Aufstand,ugomaji,d,NA,NA,NA,mapenazo,NA,NA,2,NA,NA,NA,NA,NA,NA,NA,NA,NA,NA,NA,NA,NA,NA,NA,NA,NA,NA,NA
c5479,"""Richtig""-Screen",canvas.Screen,3_0_2_0_6_0_1,NA,NA,skipped,NA,4837215.0999999,NA,NA,4837212.6999998,4837215.1999998,2023-05-01T16:38:41Z,4837223.74,NULL,Aufstand,ugomaji,d,NA,NA,NA,NA,sdf,NA,2,NA,NA,NA,NA,NA,NA,NA,NA,NA,NA,NA,NA,NA,NA,NA,NA,NA,NA,NA
c5479,"""Falsch""-Screen",canvas.Screen,3_0_2_0_6_0_2,NA,NA,timeout,4996.1979999999,4837215.8999999,4837207.717,4837223.74,4842203.226,4842204.1999998,2023-05-01T16:38:46Z,4842219.938,NULL,Aufstand,ugomaji,d,NA,NA,NA,NA,sdf,0,2,NA,NA,NA,NA,NA,NA,NA,NA,NA,NA,NA,NA,NA,NA,NA,NA,NA,NA,NA
c5479,deep,flow.Sequence,3_0_2_0_6_0,NA,NA,completion,28159.774,4814030,4814026.34,4814043.452,4842203.226,4842204.5,2023-05-01T16:38:46Z,4842219.938,NULL,Aufstand,ugomaji,d,NA,NA,NA,NA,sdf,NA,2,NA,NA,NA,NA,NA,NA,NA,NA,NA,NA,NA,NA,NA,NA,NA,NA,NA,NA,NA
c5479,shallow,flow.Sequence,3_0_2_0_6_1,NA,NA,skipped,NA,4842204.6999998,NA,NA,4842203.226,4842205,2023-05-01T16:38:46Z,4842219.938,NULL,Aufstand,ugomaji,d,NA,NA,NA,NA,sdf,NA,2,NA,NA,NA,NA,NA,NA,NA,NA,NA,NA,NA,NA,NA,NA,NA,NA,NA,NA,NA
c5479,task,flow.Sequence,3_0_2_0_6,NA,NA,completion,28159.774,4814029.8999999,4814026.34,4814043.452,4842203.226,4842205.1999998,2023-05-01T16:38:46Z,4842219.938,NULL,Aufstand,ugomaji,d,NA,NA,NA,NA,sdf,NA,2,NA,NA,NA,NA,NA,NA,NA,NA,NA,NA,NA,NA,NA,NA,NA,NA,NA,NA,NA
c5479,deep,flow.Sequence,3_0_2_0_7_0,NA,NA,skipped,NA,4842205.3999999,NA,NA,4842203.226,4842205.5,2023-05-01T16:38:46Z,4842219.938,NULL,Kultur,utamaduni,s,shetani,gerezani,mazingira,NA,sdf,NA,2,NA,NA,NA,NA,NA,NA,NA,NA,NA,NA,NA,NA,NA,NA,NA,NA,NA,NA,NA
c5479,Shallow Question,html.Page,3_0_2_0_7_1_0,NA,NA,form submission,8995.4619998569,4842205.6999998,4842203.226,4842219.938,4851215.3999999,4851215.8999999,2023-05-01T16:38:55Z,4851228.896,NULL,Kultur,utamaduni,s,shetani,gerezani,mazingira,utamaduni,NA,NA,2,NA,NA,NA,NA,NA,NA,NA,NA,NA,NA,NA,NA,NA,NA,NA,NA,NA,NA,NA
c5479,"""Richtig""-Screen",canvas.Screen,3_0_2_0_7_1_1,NA,NA,timeout,4995.8820000002,4851221.3,4851212.745,4851228.896,4856208.684,4856209.6999998,2023-05-01T16:39:00Z,4856224.778,NULL,Kultur,utamaduni,s,shetani,gerezani,mazingira,NA,sdf,1,2,NA,NA,NA,NA,NA,NA,NA,NA,NA,NA,NA,NA,NA,NA,NA,NA,NA,NA,NA
c5479,"""Falsch""-Screen",canvas.Screen,3_0_2_0_7_1_2,NA,NA,skipped,NA,4856215.3,NA,NA,4856208.684,4856215.6999998,2023-05-01T16:39:00Z,4856224.778,NULL,Kultur,utamaduni,s,shetani,gerezani,mazingira,NA,sdf,NA,2,NA,NA,NA,NA,NA,NA,NA,NA,NA,NA,NA,NA,NA,NA,NA,NA,NA,NA,NA
c5479,shallow,flow.Sequence,3_0_2_0_7_1,NA,NA,completion,13988.746,4842205.5999999,4842203.226,4842219.938,4856208.684,4856216.1999998,2023-05-01T16:39:00Z,4856224.778,NULL,Kultur,utamaduni,s,shetani,gerezani,mazingira,NA,sdf,NA,2,NA,NA,NA,NA,NA,NA,NA,NA,NA,NA,NA,NA,NA,NA,NA,NA,NA,NA,NA
c5479,task,flow.Sequence,3_0_2_0_7,NA,NA,completion,13988.746,4842205.3,4842203.226,4842219.938,4856208.684,4856216.5,2023-05-01T16:39:00Z,4856224.778,NULL,Kultur,utamaduni,s,shetani,gerezani,mazingira,NA,sdf,NA,2,NA,NA,NA,NA,NA,NA,NA,NA,NA,NA,NA,NA,NA,NA,NA,NA,NA,NA,NA
c5479,block,flow.Loop,3_0_2_0,NA,NA,completion,170010.922,4686190.3,4686181.017,4686197.762,4856208.684,4856216.8,2023-05-01T16:39:00Z,4856224.778,NULL,NA,NA,NA,NA,NA,NA,NA,sdf,NA,2,NA,NA,NA,NA,NA,NA,NA,NA,NA,NA,NA,NA,NA,NA,NA,NA,NA,NA,NA
c5479,weiter,canvas.Screen,3_0_2_1,sdf,keypress(Space),response,5800.9219998093,4856217,4856208.684,4856224.778,4862025.6999998,4862026.5,2023-05-01T16:39:06Z,4862053.232,NULL,NA,NA,NA,NA,NA,NA,NA,sdf,NA,2,NA,NA,NA,NA,NA,NA,NA,NA,NA,NA,NA,NA,NA,NA,NA,NA,NA,NA,NA
c5479,check continue,flow.Sequence,3_0_2,NA,NA,completion,175827.93799981,4686190.3,4686181.017,4686197.762,4862025.6999998,4862026.5999999,2023-05-01T16:39:06Z,4862053.232,NULL,NA,NA,NA,NA,NA,NA,NA,sdf,NA,2,NA,NA,NA,NA,NA,NA,NA,NA,NA,NA,NA,NA,NA,NA,NA,NA,NA,NA,NA
c5479,Deep Question,html.Page,3_0_3_0_0_0_0,NA,NA,form submission,21478.567999952,4862055.6999998,4862019.873,4862053.232,4883531.8,4883532.0999999,2023-05-01T16:39:28Z,4883535.571,NULL,Prüfung,mtihani,d,NA,NA,NA,j,NA,NA,3,NA,NA,NA,NA,NA,NA,NA,NA,NA,NA,NA,NA,NA,NA,NA,NA,NA,NA,NA
c5479,"""Richtig""-Screen",canvas.Screen,3_0_3_0_0_0_1,NA,NA,skipped,NA,4883535,NA,NA,4883531.8,4883535.1999998,2023-05-01T16:39:28Z,4883535.571,NULL,Prüfung,mtihani,d,NA,NA,NA,NA,qt,NA,3,NA,NA,NA,NA,NA,NA,NA,NA,NA,NA,NA,NA,NA,NA,NA,NA,NA,NA,NA
c5479,"""Falsch""-Screen",canvas.Screen,3_0_3_0_0_0_2,NA,NA,timeout,4996.392,4883536,4883519.508,4883535.571,4888515.114,4888516.0999999,2023-05-01T16:39:33Z,4888531.963,NULL,Prüfung,mtihani,d,NA,NA,NA,NA,qt,0,3,NA,NA,NA,NA,NA,NA,NA,NA,NA,NA,NA,NA,NA,NA,NA,NA,NA,NA,NA
c5479,deep,flow.Sequence,3_0_3_0_0_0,NA,NA,completion,26461.882,4862055.6999998,4862019.873,4862053.232,4888515.114,4888516.5999999,2023-05-01T16:39:33Z,4888531.963,NULL,Prüfung,mtihani,d,NA,NA,NA,NA,qt,NA,3,NA,NA,NA,NA,NA,NA,NA,NA,NA,NA,NA,NA,NA,NA,NA,NA,NA,NA,NA
c5479,shallow,flow.Sequence,3_0_3_0_0_1,NA,NA,skipped,NA,4888516.6999998,NA,NA,4888515.114,4888516.8999999,2023-05-01T16:39:33Z,4888531.963,NULL,Prüfung,mtihani,d,NA,NA,NA,NA,qt,NA,3,NA,NA,NA,NA,NA,NA,NA,NA,NA,NA,NA,NA,NA,NA,NA,NA,NA,NA,NA
c5479,task,flow.Sequence,3_0_3_0_0,NA,NA,completion,26461.882,4862055.0999999,4862019.873,4862053.232,4888515.114,4888517.1999998,2023-05-01T16:39:33Z,4888531.963,NULL,Prüfung,mtihani,d,NA,NA,NA,NA,qt,NA,3,NA,NA,NA,NA,NA,NA,NA,NA,NA,NA,NA,NA,NA,NA,NA,NA,NA,NA,NA
c5479,deep,flow.Sequence,3_0_3_0_1_0,NA,NA,skipped,NA,4888517.3999999,NA,NA,4888515.114,4888517.5,2023-05-01T16:39:33Z,4888531.963,NULL,Kultur,utamaduni,s,shetani,gerezani,mazingira,NA,qt,NA,3,NA,NA,NA,NA,NA,NA,NA,NA,NA,NA,NA,NA,NA,NA,NA,NA,NA,NA,NA
c5479,Shallow Question,html.Page,3_0_3_0_1_1_0,NA,NA,form submission,7421.1369999042,4888517.6999998,4888515.114,4888531.963,4895953.0999999,4895953.5999999,2023-05-01T16:39:40Z,4895958.739,NULL,Kultur,utamaduni,s,shetani,gerezani,mazingira,utamaduni,NA,NA,3,NA,NA,NA,NA,NA,NA,NA,NA,NA,NA,NA,NA,NA,NA,NA,NA,NA,NA,NA
c5479,"""Richtig""-Screen",canvas.Screen,3_0_3_0_1_1_1,NA,NA,timeout,4995.9570000004,4895959.3,4895942.044,4895958.739,4900938.019,4900939.3,2023-05-01T16:39:45Z,4900954.696,NULL,Kultur,utamaduni,s,shetani,gerezani,mazingira,NA,qt,1,3,NA,NA,NA,NA,NA,NA,NA,NA,NA,NA,NA,NA,NA,NA,NA,NA,NA,NA,NA
c5479,"""Falsch""-Screen",canvas.Screen,3_0_3_0_1_1_2,NA,NA,skipped,NA,4900944.5999999,NA,NA,4900938.019,4900944.8999999,2023-05-01T16:39:45Z,4900954.696,NULL,Kultur,utamaduni,s,shetani,gerezani,mazingira,NA,qt,NA,3,NA,NA,NA,NA,NA,NA,NA,NA,NA,NA,NA,NA,NA,NA,NA,NA,NA,NA,NA
c5479,shallow,flow.Sequence,3_0_3_0_1_1,NA,NA,completion,12406.056,4888517.6999998,4888515.114,4888531.963,4900938.019,4900945.3999999,2023-05-01T16:39:45Z,4900954.696,NULL,Kultur,utamaduni,s,shetani,gerezani,mazingira,NA,qt,NA,3,NA,NA,NA,NA,NA,NA,NA,NA,NA,NA,NA,NA,NA,NA,NA,NA,NA,NA,NA
c5479,task,flow.Sequence,3_0_3_0_1,NA,NA,completion,12406.056,4888517.3,4888515.114,4888531.963,4900938.019,4900945.5999999,2023-05-01T16:39:45Z,4900954.696,NULL,Kultur,utamaduni,s,shetani,gerezani,mazingira,NA,qt,NA,3,NA,NA,NA,NA,NA,NA,NA,NA,NA,NA,NA,NA,NA,NA,NA,NA,NA,NA,NA
c5479,deep,flow.Sequence,3_0_3_0_2_0,NA,NA,skipped,NA,4900945.8,NA,NA,4900938.019,4900946.0999999,2023-05-01T16:39:45Z,4900954.696,NULL,Verzögerung,kuchelewa,s,mwakilishi,mwanauchumi,jaribio,NA,qt,NA,3,NA,NA,NA,NA,NA,NA,NA,NA,NA,NA,NA,NA,NA,NA,NA,NA,NA,NA,NA
c5479,Shallow Question,html.Page,3_0_3_0_2_1_0,NA,NA,form submission,5246.1039999519,4900946.5,4900938.019,4900954.696,4906200.8,4906201.3,2023-05-01T16:39:50Z,4906200.319,NULL,Verzögerung,kuchelewa,s,mwakilishi,mwanauchumi,jaribio,kuchelewa,NA,NA,3,NA,NA,NA,NA,NA,NA,NA,NA,NA,NA,NA,NA,NA,NA,NA,NA,NA,NA,NA
c5479,"""Richtig""-Screen",canvas.Screen,3_0_3_0_2_1_1,NA,NA,timeout,4996.2659999998,4906206.3,4906184.283,4906200.319,4911179.679,4911180.1999998,2023-05-01T16:39:55Z,4911196.585,NULL,Verzögerung,kuchelewa,s,mwakilishi,mwanauchumi,jaribio,NA,qt,1,3,NA,NA,NA,NA,NA,NA,NA,NA,NA,NA,NA,NA,NA,NA,NA,NA,NA,NA,NA
c5479,"""Falsch""-Screen",canvas.Screen,3_0_3_0_2_1_2,NA,NA,skipped,NA,4911181.8999999,NA,NA,4911179.679,4911182.0999999,2023-05-01T16:39:55Z,4911196.585,NULL,Verzögerung,kuchelewa,s,mwakilishi,mwanauchumi,jaribio,NA,qt,NA,3,NA,NA,NA,NA,NA,NA,NA,NA,NA,NA,NA,NA,NA,NA,NA,NA,NA,NA,NA
c5479,shallow,flow.Sequence,3_0_3_0_2_1,NA,NA,completion,10224.982999999,4900946.3999999,4900938.019,4900954.696,4911179.679,4911182.1999998,2023-05-01T16:39:55Z,4911196.585,NULL,Verzögerung,kuchelewa,s,mwakilishi,mwanauchumi,jaribio,NA,qt,NA,3,NA,NA,NA,NA,NA,NA,NA,NA,NA,NA,NA,NA,NA,NA,NA,NA,NA,NA,NA
c5479,task,flow.Sequence,3_0_3_0_2,NA,NA,completion,10224.982999999,4900945.8,4900938.019,4900954.696,4911179.679,4911182.3,2023-05-01T16:39:55Z,4911196.585,NULL,Verzögerung,kuchelewa,s,mwakilishi,mwanauchumi,jaribio,NA,qt,NA,3,NA,NA,NA,NA,NA,NA,NA,NA,NA,NA,NA,NA,NA,NA,NA,NA,NA,NA,NA
c5479,deep,flow.Sequence,3_0_3_0_3_0,NA,NA,skipped,NA,4911182.3999999,NA,NA,4911179.679,4911182.3999999,2023-05-01T16:39:55Z,4911196.585,NULL,Sympathie,mapendano,s,dhamiria,fungamano,maazimio,NA,qt,NA,3,NA,NA,NA,NA,NA,NA,NA,NA,NA,NA,NA,NA,NA,NA,NA,NA,NA,NA,NA
c5479,Shallow Question,html.Page,3_0_3_0_3_1_0,NA,NA,form submission,8744.6149998093,4911182.3999999,4911179.679,4911196.585,4919941.1999998,4919941.6999998,2023-05-01T16:40:04Z,4919972.977,NULL,Sympathie,mapendano,s,dhamiria,fungamano,maazimio,mapendano,NA,NA,3,NA,NA,NA,NA,NA,NA,NA,NA,NA,NA,NA,NA,NA,NA,NA,NA,NA,NA,NA
c5479,"""Richtig""-Screen",canvas.Screen,3_0_3_0_3_1_1,NA,NA,timeout,4995.2470000004,4919944.3,4919955.934,4919972.977,4924952.18,4924953.0999999,2023-05-01T16:40:09Z,4924968.224,NULL,Sympathie,mapendano,s,dhamiria,fungamano,maazimio,NA,qt,1,3,NA,NA,NA,NA,NA,NA,NA,NA,NA,NA,NA,NA,NA,NA,NA,NA,NA,NA,NA
c5479,"""Falsch""-Screen",canvas.Screen,3_0_3_0_3_1_2,NA,NA,skipped,NA,4924958.8999999,NA,NA,4924952.18,4924959.1999998,2023-05-01T16:40:09Z,4924968.224,NULL,Sympathie,mapendano,s,dhamiria,fungamano,maazimio,NA,qt,NA,3,NA,NA,NA,NA,NA,NA,NA,NA,NA,NA,NA,NA,NA,NA,NA,NA,NA,NA,NA
c5479,shallow,flow.Sequence,3_0_3_0_3_1,NA,NA,completion,13755.595,4911182.3999999,4911179.679,4911196.585,4924952.18,4924959.6999998,2023-05-01T16:40:09Z,4924968.224,NULL,Sympathie,mapendano,s,dhamiria,fungamano,maazimio,NA,qt,NA,3,NA,NA,NA,NA,NA,NA,NA,NA,NA,NA,NA,NA,NA,NA,NA,NA,NA,NA,NA
c5479,task,flow.Sequence,3_0_3_0_3,NA,NA,completion,13755.595,4911182.3999999,4911179.679,4911196.585,4924952.18,4924959.8999999,2023-05-01T16:40:09Z,4924968.224,NULL,Sympathie,mapendano,s,dhamiria,fungamano,maazimio,NA,qt,NA,3,NA,NA,NA,NA,NA,NA,NA,NA,NA,NA,NA,NA,NA,NA,NA,NA,NA,NA,NA
c5479,Deep Question,html.Page,3_0_3_0_4_0_0,NA,NA,form submission,28067.975999809,4924960.0999999,4924952.18,4924968.224,4953036.1999998,4953036.5,2023-05-01T16:40:37Z,4953045.105,NULL,Beweis,ushahidi,d,NA,NA,NA,j,NA,NA,3,NA,NA,NA,NA,NA,NA,NA,NA,NA,NA,NA,NA,NA,NA,NA,NA,NA,NA,NA
c5479,"""Richtig""-Screen",canvas.Screen,3_0_3_0_4_0_1,NA,NA,skipped,NA,4953038.5999999,NA,NA,4953036.1999998,4953038.6999998,2023-05-01T16:40:37Z,4953045.105,NULL,Beweis,ushahidi,d,NA,NA,NA,NA,qt,NA,3,NA,NA,NA,NA,NA,NA,NA,NA,NA,NA,NA,NA,NA,NA,NA,NA,NA,NA,NA
c5479,"""Falsch""-Screen",canvas.Screen,3_0_3_0_4_0_2,NA,NA,timeout,4996.4439999992,4953039.3,4953028.667,4953045.105,4958024.899,4958025.8,2023-05-01T16:40:42Z,4958041.549,NULL,Beweis,ushahidi,d,NA,NA,NA,NA,qt,0,3,NA,NA,NA,NA,NA,NA,NA,NA,NA,NA,NA,NA,NA,NA,NA,NA,NA,NA,NA
c5479,deep,flow.Sequence,3_0_3_0_4_0,NA,NA,completion,33056.675,4924960.0999999,4924952.18,4924968.224,4958024.899,4958026.3,2023-05-01T16:40:42Z,4958041.549,NULL,Beweis,ushahidi,d,NA,NA,NA,NA,qt,NA,3,NA,NA,NA,NA,NA,NA,NA,NA,NA,NA,NA,NA,NA,NA,NA,NA,NA,NA,NA
c5479,shallow,flow.Sequence,3_0_3_0_4_1,NA,NA,skipped,NA,4958026.3,NA,NA,4958024.899,4958026.5999999,2023-05-01T16:40:42Z,4958041.549,NULL,Beweis,ushahidi,d,NA,NA,NA,NA,qt,NA,3,NA,NA,NA,NA,NA,NA,NA,NA,NA,NA,NA,NA,NA,NA,NA,NA,NA,NA,NA
c5479,task,flow.Sequence,3_0_3_0_4,NA,NA,completion,33056.675,4924960,4924952.18,4924968.224,4958024.899,4958026.8,2023-05-01T16:40:42Z,4958041.549,NULL,Beweis,ushahidi,d,NA,NA,NA,NA,qt,NA,3,NA,NA,NA,NA,NA,NA,NA,NA,NA,NA,NA,NA,NA,NA,NA,NA,NA,NA,NA
c5479,deep,flow.Sequence,3_0_3_0_5_0,NA,NA,skipped,NA,4958027,NA,NA,4958024.899,4958027.0999999,2023-05-01T16:40:42Z,4958041.549,NULL,Annäherung,maegesho,s,madahili,kujiamini,mapendekezo,NA,qt,NA,3,NA,NA,NA,NA,NA,NA,NA,NA,NA,NA,NA,NA,NA,NA,NA,NA,NA,NA,NA
c5479,Shallow Question,html.Page,3_0_3_0_5_1_0,NA,NA,form submission,12943.350999857,4958027.3,4958024.899,4958041.549,4970984.8999999,4970985.0999999,2023-05-01T16:40:55Z,4970997.557,NULL,Annäherung,maegesho,s,madahili,kujiamini,mapendekezo,maegesho,NA,NA,3,NA,NA,NA,NA,NA,NA,NA,NA,NA,NA,NA,NA,NA,NA,NA,NA,NA,NA,NA
c5479,"""Richtig""-Screen",canvas.Screen,3_0_3_0_5_1_1,NA,NA,timeout,4996.1140000001,4970986.8999999,4970980.223,4970997.557,4975976.756,4975977.3999999,2023-05-01T16:41:00Z,4975993.671,NULL,Annäherung,maegesho,s,madahili,kujiamini,mapendekezo,NA,qt,1,3,NA,NA,NA,NA,NA,NA,NA,NA,NA,NA,NA,NA,NA,NA,NA,NA,NA,NA,NA
c5479,"""Falsch""-Screen",canvas.Screen,3_0_3_0_5_1_2,NA,NA,skipped,NA,4975979.1999998,NA,NA,4975976.756,4975979.3999999,2023-05-01T16:41:00Z,4975993.671,NULL,Annäherung,maegesho,s,madahili,kujiamini,mapendekezo,NA,qt,NA,3,NA,NA,NA,NA,NA,NA,NA,NA,NA,NA,NA,NA,NA,NA,NA,NA,NA,NA,NA
c5479,shallow,flow.Sequence,3_0_3_0_5_1,NA,NA,completion,17935.207,4958027.1999998,4958024.899,4958041.549,4975976.756,4975979.5999999,2023-05-01T16:41:00Z,4975993.671,NULL,Annäherung,maegesho,s,madahili,kujiamini,mapendekezo,NA,qt,NA,3,NA,NA,NA,NA,NA,NA,NA,NA,NA,NA,NA,NA,NA,NA,NA,NA,NA,NA,NA
c5479,task,flow.Sequence,3_0_3_0_5,NA,NA,completion,17935.207,4958027,4958024.899,4958041.549,4975976.756,4975979.5999999,2023-05-01T16:41:00Z,4975993.671,NULL,Annäherung,maegesho,s,madahili,kujiamini,mapendekezo,NA,qt,NA,3,NA,NA,NA,NA,NA,NA,NA,NA,NA,NA,NA,NA,NA,NA,NA,NA,NA,NA,NA
c5479,Deep Question,html.Page,3_0_3_0_6_0_0,NA,NA,form submission,30682.928999905,4975979.6999998,4975976.756,4975993.671,5006676.5999999,5006676.8,2023-05-01T16:41:31Z,5006701.668,NULL,Polizist,msongora,d,NA,NA,NA,b,NA,NA,3,NA,NA,NA,NA,NA,NA,NA,NA,NA,NA,NA,NA,NA,NA,NA,NA,NA,NA,NA
c5479,"""Richtig""-Screen",canvas.Screen,3_0_3_0_6_0_1,NA,NA,skipped,NA,5006678.8,NA,NA,5006676.5999999,5006679,2023-05-01T16:41:31Z,5006701.668,NULL,Polizist,msongora,d,NA,NA,NA,NA,qt,NA,3,NA,NA,NA,NA,NA,NA,NA,NA,NA,NA,NA,NA,NA,NA,NA,NA,NA,NA,NA
c5479,"""Falsch""-Screen",canvas.Screen,3_0_3_0_6_0_2,NA,NA,timeout,4995.6090000002,5006679.5999999,5006684.845,5006701.668,5011680.891,5011681.3999999,2023-05-01T16:41:36Z,5011697.277,NULL,Polizist,msongora,d,NA,NA,NA,NA,qt,0,3,NA,NA,NA,NA,NA,NA,NA,NA,NA,NA,NA,NA,NA,NA,NA,NA,NA,NA,NA
c5479,deep,flow.Sequence,3_0_3_0_6_0,NA,NA,completion,35687.22,4975979.6999998,4975976.756,4975993.671,5011680.891,5011681.6999998,2023-05-01T16:41:36Z,5011697.277,NULL,Polizist,msongora,d,NA,NA,NA,NA,qt,NA,3,NA,NA,NA,NA,NA,NA,NA,NA,NA,NA,NA,NA,NA,NA,NA,NA,NA,NA,NA
c5479,shallow,flow.Sequence,3_0_3_0_6_1,NA,NA,skipped,NA,5011681.8,NA,NA,5011680.891,5011681.8999999,2023-05-01T16:41:36Z,5011697.277,NULL,Polizist,msongora,d,NA,NA,NA,NA,qt,NA,3,NA,NA,NA,NA,NA,NA,NA,NA,NA,NA,NA,NA,NA,NA,NA,NA,NA,NA,NA
c5479,task,flow.Sequence,3_0_3_0_6,NA,NA,completion,35687.22,4975979.6999998,4975976.756,4975993.671,5011680.891,5011682,2023-05-01T16:41:36Z,5011697.277,NULL,Polizist,msongora,d,NA,NA,NA,NA,qt,NA,3,NA,NA,NA,NA,NA,NA,NA,NA,NA,NA,NA,NA,NA,NA,NA,NA,NA,NA,NA
c5479,Deep Question,html.Page,3_0_3_0_7_0_0,NA,NA,form submission,31066.822999905,5011682.0999999,5011680.891,5011697.277,5042764.0999999,5042764.1999998,2023-05-01T16:42:07Z,5042771.348,NULL,Aufstand,ugomaji,d,NA,NA,NA,e,NA,NA,3,NA,NA,NA,NA,NA,NA,NA,NA,NA,NA,NA,NA,NA,NA,NA,NA,NA,NA,NA
c5479,"""Richtig""-Screen",canvas.Screen,3_0_3_0_7_0_1,NA,NA,skipped,NA,5042766.1999998,NA,NA,5042764.0999999,5042766.3,2023-05-01T16:42:07Z,5042771.348,NULL,Aufstand,ugomaji,d,NA,NA,NA,NA,qt,NA,3,NA,NA,NA,NA,NA,NA,NA,NA,NA,NA,NA,NA,NA,NA,NA,NA,NA,NA,NA
c5479,"""Falsch""-Screen",canvas.Screen,3_0_3_0_7_0_2,NA,NA,timeout,4996.5120000001,5042766.8999999,5042755.316,5042771.348,5047750.758,5047751.6999998,2023-05-01T16:42:12Z,5047767.86,NULL,Aufstand,ugomaji,d,NA,NA,NA,NA,qt,0,3,NA,NA,NA,NA,NA,NA,NA,NA,NA,NA,NA,NA,NA,NA,NA,NA,NA,NA,NA
c5479,deep,flow.Sequence,3_0_3_0_7_0,NA,NA,completion,36053.481000001,5011682.0999999,5011680.891,5011697.277,5047750.758,5047752.1999998,2023-05-01T16:42:12Z,5047767.86,NULL,Aufstand,ugomaji,d,NA,NA,NA,NA,qt,NA,3,NA,NA,NA,NA,NA,NA,NA,NA,NA,NA,NA,NA,NA,NA,NA,NA,NA,NA,NA
c5479,shallow,flow.Sequence,3_0_3_0_7_1,NA,NA,skipped,NA,5047752.3999999,NA,NA,5047750.758,5047752.5,2023-05-01T16:42:12Z,5047767.86,NULL,Aufstand,ugomaji,d,NA,NA,NA,NA,qt,NA,3,NA,NA,NA,NA,NA,NA,NA,NA,NA,NA,NA,NA,NA,NA,NA,NA,NA,NA,NA
c5479,task,flow.Sequence,3_0_3_0_7,NA,NA,completion,36053.481000001,5011682.0999999,5011680.891,5011697.277,5047750.758,5047752.8,2023-05-01T16:42:12Z,5047767.86,NULL,Aufstand,ugomaji,d,NA,NA,NA,NA,qt,NA,3,NA,NA,NA,NA,NA,NA,NA,NA,NA,NA,NA,NA,NA,NA,NA,NA,NA,NA,NA
c5479,block,flow.Loop,3_0_3_0,NA,NA,completion,185697.526,4862055.0999999,4862019.873,4862053.232,5047750.758,5047753.0999999,2023-05-01T16:42:12Z,5047767.86,NULL,NA,NA,NA,NA,NA,NA,NA,qt,NA,3,NA,NA,NA,NA,NA,NA,NA,NA,NA,NA,NA,NA,NA,NA,NA,NA,NA,NA,NA
c5479,weiter,canvas.Screen,3_0_3_1,sdf,keypress(Space),response,1878.7399999043,5047753.1999998,5047750.758,5047767.86,5049646.5999999,5049647.6999998,2023-05-01T16:42:14Z,5049699.329,NULL,NA,NA,NA,NA,NA,NA,NA,qt,NA,3,NA,NA,NA,NA,NA,NA,NA,NA,NA,NA,NA,NA,NA,NA,NA,NA,NA,NA,NA
c5479,check continue,flow.Sequence,3_0_3,NA,NA,completion,187593.3679999,4862055.0999999,4862019.873,4862053.232,5049646.5999999,5049648.0999999,2023-05-01T16:42:14Z,5049699.329,NULL,NA,NA,NA,NA,NA,NA,NA,qt,NA,3,NA,NA,NA,NA,NA,NA,NA,NA,NA,NA,NA,NA,NA,NA,NA,NA,NA,NA,NA
c5479,Deep Question,html.Page,3_0_4_0_0_0_0,NA,NA,form submission,16811.370999809,5049684.3,5049682.923,5049699.329,5066510.6999998,5066511.3999999,2023-05-01T16:42:31Z,5066518.558,NULL,Polizist,msongora,d,NA,NA,NA,msongera,NA,NA,4,NA,NA,NA,NA,NA,NA,NA,NA,NA,NA,NA,NA,NA,NA,NA,NA,NA,NA,NA
c5479,"""Richtig""-Screen",canvas.Screen,3_0_4_0_0_0_1,NA,NA,skipped,NA,5066517.3999999,NA,NA,5066510.6999998,5066517.8,2023-05-01T16:42:31Z,5066518.558,NULL,Polizist,msongora,d,NA,NA,NA,NA,sd,NA,4,NA,NA,NA,NA,NA,NA,NA,NA,NA,NA,NA,NA,NA,NA,NA,NA,NA,NA,NA
c5479,"""Falsch""-Screen",canvas.Screen,3_0_4_0_0_0_2,NA,NA,timeout,4996.0839999998,5066520.6999998,5066502.385,5066518.558,5071497.861,5071498.8,2023-05-01T16:42:36Z,5071514.642,NULL,Polizist,msongora,d,NA,NA,NA,NA,sd,0,4,NA,NA,NA,NA,NA,NA,NA,NA,NA,NA,NA,NA,NA,NA,NA,NA,NA,NA,NA
c5479,deep,flow.Sequence,3_0_4_0_0_0,NA,NA,completion,21798.532,5049684.3,5049682.923,5049699.329,5071497.861,5071499.3999999,2023-05-01T16:42:36Z,5071514.642,NULL,Polizist,msongora,d,NA,NA,NA,NA,sd,NA,4,NA,NA,NA,NA,NA,NA,NA,NA,NA,NA,NA,NA,NA,NA,NA,NA,NA,NA,NA
c5479,shallow,flow.Sequence,3_0_4_0_0_1,NA,NA,skipped,NA,5071499.5999999,NA,NA,5071497.861,5071499.8999999,2023-05-01T16:42:36Z,5071514.642,NULL,Polizist,msongora,d,NA,NA,NA,NA,sd,NA,4,NA,NA,NA,NA,NA,NA,NA,NA,NA,NA,NA,NA,NA,NA,NA,NA,NA,NA,NA
c5479,task,flow.Sequence,3_0_4_0_0,NA,NA,completion,21798.532,5049684.3,5049682.923,5049699.329,5071497.861,5071500.3,2023-05-01T16:42:36Z,5071514.642,NULL,Polizist,msongora,d,NA,NA,NA,NA,sd,NA,4,NA,NA,NA,NA,NA,NA,NA,NA,NA,NA,NA,NA,NA,NA,NA,NA,NA,NA,NA
c5479,deep,flow.Sequence,3_0_4_0_1_0,NA,NA,skipped,NA,5071500.6999998,NA,NA,5071497.861,5071500.8,2023-05-01T16:42:36Z,5071514.642,NULL,Sympathie,mapendano,s,dhamiria,fungamano,maazimio,NA,sd,NA,4,NA,NA,NA,NA,NA,NA,NA,NA,NA,NA,NA,NA,NA,NA,NA,NA,NA,NA,NA
c5479,Shallow Question,html.Page,3_0_4_0_1_1_0,NA,NA,form submission,6590.0579998093,5071501.1999998,5071497.861,5071514.642,5078104.6999998,5078105.0999999,2023-05-01T16:42:42Z,5078109.066,NULL,Sympathie,mapendano,s,dhamiria,fungamano,maazimio,mapendano,NA,NA,4,NA,NA,NA,NA,NA,NA,NA,NA,NA,NA,NA,NA,NA,NA,NA,NA,NA,NA,NA
c5479,"""Richtig""-Screen",canvas.Screen,3_0_4_0_1_1_1,NA,NA,timeout,4995.8470000001,5078111,5078092.905,5078109.066,5083088.362,5083089.3999999,2023-05-01T16:42:47Z,5083104.913,NULL,Sympathie,mapendano,s,dhamiria,fungamano,maazimio,NA,sd,1,4,NA,NA,NA,NA,NA,NA,NA,NA,NA,NA,NA,NA,NA,NA,NA,NA,NA,NA,NA
c5479,"""Falsch""-Screen",canvas.Screen,3_0_4_0_1_1_2,NA,NA,skipped,NA,5083094.6999998,NA,NA,5083088.362,5083095,2023-05-01T16:42:47Z,5083104.913,NULL,Sympathie,mapendano,s,dhamiria,fungamano,maazimio,NA,sd,NA,4,NA,NA,NA,NA,NA,NA,NA,NA,NA,NA,NA,NA,NA,NA,NA,NA,NA,NA,NA
c5479,shallow,flow.Sequence,3_0_4_0_1_1,NA,NA,completion,11573.72,5071501.0999999,5071497.861,5071514.642,5083088.362,5083095.5,2023-05-01T16:42:47Z,5083104.913,NULL,Sympathie,mapendano,s,dhamiria,fungamano,maazimio,NA,sd,NA,4,NA,NA,NA,NA,NA,NA,NA,NA,NA,NA,NA,NA,NA,NA,NA,NA,NA,NA,NA
c5479,task,flow.Sequence,3_0_4_0_1,NA,NA,completion,11573.72,5071500.5,5071497.861,5071514.642,5083088.362,5083095.8,2023-05-01T16:42:47Z,5083104.913,NULL,Sympathie,mapendano,s,dhamiria,fungamano,maazimio,NA,sd,NA,4,NA,NA,NA,NA,NA,NA,NA,NA,NA,NA,NA,NA,NA,NA,NA,NA,NA,NA,NA
c5479,deep,flow.Sequence,3_0_4_0_2_0,NA,NA,skipped,NA,5083095.8999999,NA,NA,5083088.362,5083096.0999999,2023-05-01T16:42:47Z,5083104.913,NULL,Verzögerung,kuchelewa,s,mwakilishi,mwanauchumi,jaribio,NA,sd,NA,4,NA,NA,NA,NA,NA,NA,NA,NA,NA,NA,NA,NA,NA,NA,NA,NA,NA,NA,NA
c5479,Shallow Question,html.Page,3_0_4_0_2_1_0,NA,NA,form submission,5613.9869998572,5083096.3,5083088.362,5083104.913,5088718.8999999,5088719.3999999,2023-05-01T16:42:53Z,5088733.623,NULL,Verzögerung,kuchelewa,s,mwakilishi,mwanauchumi,jaribio,kuchelewa,NA,NA,4,NA,NA,NA,NA,NA,NA,NA,NA,NA,NA,NA,NA,NA,NA,NA,NA,NA,NA,NA
c5479,"""Richtig""-Screen",canvas.Screen,3_0_4_0_2_1_1,NA,NA,timeout,4995.8900000006,5088722.5999999,5088717.025,5088733.623,5093713.116,5093714,2023-05-01T16:42:58Z,5093729.513,NULL,Verzögerung,kuchelewa,s,mwakilishi,mwanauchumi,jaribio,NA,sd,1,4,NA,NA,NA,NA,NA,NA,NA,NA,NA,NA,NA,NA,NA,NA,NA,NA,NA,NA,NA
c5479,"""Falsch""-Screen",canvas.Screen,3_0_4_0_2_1_2,NA,NA,skipped,NA,5093719.0999999,NA,NA,5093713.116,5093719.5,2023-05-01T16:42:58Z,5093729.513,NULL,Verzögerung,kuchelewa,s,mwakilishi,mwanauchumi,jaribio,NA,sd,NA,4,NA,NA,NA,NA,NA,NA,NA,NA,NA,NA,NA,NA,NA,NA,NA,NA,NA,NA,NA
c5479,shallow,flow.Sequence,3_0_4_0_2_1,NA,NA,completion,10608.203000001,5083096.3,5083088.362,5083104.913,5093713.116,5093719.8,2023-05-01T16:42:58Z,5093729.513,NULL,Verzögerung,kuchelewa,s,mwakilishi,mwanauchumi,jaribio,NA,sd,NA,4,NA,NA,NA,NA,NA,NA,NA,NA,NA,NA,NA,NA,NA,NA,NA,NA,NA,NA,NA
c5479,task,flow.Sequence,3_0_4_0_2,NA,NA,completion,10608.203000001,5083095.8999999,5083088.362,5083104.913,5093713.116,5093720.0999999,2023-05-01T16:42:58Z,5093729.513,NULL,Verzögerung,kuchelewa,s,mwakilishi,mwanauchumi,jaribio,NA,sd,NA,4,NA,NA,NA,NA,NA,NA,NA,NA,NA,NA,NA,NA,NA,NA,NA,NA,NA,NA,NA
c5479,deep,flow.Sequence,3_0_4_0_3_0,NA,NA,skipped,NA,5093720.3,NA,NA,5093713.116,5093720.3,2023-05-01T16:42:58Z,5093729.513,NULL,Annäherung,maegesho,s,madahili,kujiamini,mapendekezo,NA,sd,NA,4,NA,NA,NA,NA,NA,NA,NA,NA,NA,NA,NA,NA,NA,NA,NA,NA,NA,NA,NA
c5479,Shallow Question,html.Page,3_0_4_0_3_1_0,NA,NA,form submission,6754.5869999044,5093720.5,5093713.116,5093729.513,5100484.0999999,5100484.5999999,2023-05-01T16:43:05Z,5100490.683,NULL,Annäherung,maegesho,s,madahili,kujiamini,mapendekezo,maegesho,NA,NA,4,NA,NA,NA,NA,NA,NA,NA,NA,NA,NA,NA,NA,NA,NA,NA,NA,NA,NA,NA
c5479,"""Richtig""-Screen",canvas.Screen,3_0_4_0_3_1_1,NA,NA,timeout,4995.8369999994,5100489.6999998,5100474.515,5100490.683,5105469.937,5105471.6999998,2023-05-01T16:43:10Z,5105486.52,NULL,Annäherung,maegesho,s,madahili,kujiamini,mapendekezo,NA,sd,1,4,NA,NA,NA,NA,NA,NA,NA,NA,NA,NA,NA,NA,NA,NA,NA,NA,NA,NA,NA
c5479,"""Falsch""-Screen",canvas.Screen,3_0_4_0_3_1_2,NA,NA,skipped,NA,5105480,NA,NA,5105469.937,5105480.5,2023-05-01T16:43:10Z,5105486.52,NULL,Annäherung,maegesho,s,madahili,kujiamini,mapendekezo,NA,sd,NA,4,NA,NA,NA,NA,NA,NA,NA,NA,NA,NA,NA,NA,NA,NA,NA,NA,NA,NA,NA
c5479,shallow,flow.Sequence,3_0_4_0_3_1,NA,NA,completion,11740.424,5093720.3999999,5093713.116,5093729.513,5105469.937,5105481.0999999,2023-05-01T16:43:10Z,5105486.52,NULL,Annäherung,maegesho,s,madahili,kujiamini,mapendekezo,NA,sd,NA,4,NA,NA,NA,NA,NA,NA,NA,NA,NA,NA,NA,NA,NA,NA,NA,NA,NA,NA,NA
c5479,task,flow.Sequence,3_0_4_0_3,NA,NA,completion,11740.424,5093720.1999998,5093713.116,5093729.513,5105469.937,5105481.6999998,2023-05-01T16:43:10Z,5105486.52,NULL,Annäherung,maegesho,s,madahili,kujiamini,mapendekezo,NA,sd,NA,4,NA,NA,NA,NA,NA,NA,NA,NA,NA,NA,NA,NA,NA,NA,NA,NA,NA,NA,NA
c5479,Deep Question,html.Page,3_0_4_0_4_0_0,NA,NA,form submission,18336.779999953,5105482.1999998,5105469.937,5105486.52,5123823.3,5123823.5999999,2023-05-01T16:43:28Z,5123838.578,NULL,Prüfung,mtihani,d,NA,NA,NA,mthanisho,NA,NA,4,NA,NA,NA,NA,NA,NA,NA,NA,NA,NA,NA,NA,NA,NA,NA,NA,NA,NA,NA
c5479,"""Richtig""-Screen",canvas.Screen,3_0_4_0_4_0_1,NA,NA,skipped,NA,5123826.3,NA,NA,5123823.3,5123826.5,2023-05-01T16:43:28Z,5123838.578,NULL,Prüfung,mtihani,d,NA,NA,NA,NA,sd,NA,4,NA,NA,NA,NA,NA,NA,NA,NA,NA,NA,NA,NA,NA,NA,NA,NA,NA,NA,NA
c5479,"""Falsch""-Screen",canvas.Screen,3_0_4_0_4_0_2,NA,NA,timeout,4995.8810000001,5123827.5,5123821.998,5123838.578,5128817.773,5128818.5999999,2023-05-01T16:43:33Z,5128834.459,NULL,Prüfung,mtihani,d,NA,NA,NA,NA,sd,0,4,NA,NA,NA,NA,NA,NA,NA,NA,NA,NA,NA,NA,NA,NA,NA,NA,NA,NA,NA
c5479,deep,flow.Sequence,3_0_4_0_4_0,NA,NA,completion,23331.253,5105482.0999999,5105469.937,5105486.52,5128817.773,5128819,2023-05-01T16:43:33Z,5128834.459,NULL,Prüfung,mtihani,d,NA,NA,NA,NA,sd,NA,4,NA,NA,NA,NA,NA,NA,NA,NA,NA,NA,NA,NA,NA,NA,NA,NA,NA,NA,NA
c5479,shallow,flow.Sequence,3_0_4_0_4_1,NA,NA,skipped,NA,5128819.1999998,NA,NA,5128817.773,5128819.3999999,2023-05-01T16:43:33Z,5128834.459,NULL,Prüfung,mtihani,d,NA,NA,NA,NA,sd,NA,4,NA,NA,NA,NA,NA,NA,NA,NA,NA,NA,NA,NA,NA,NA,NA,NA,NA,NA,NA
c5479,task,flow.Sequence,3_0_4_0_4,NA,NA,completion,23331.253,5105481.8999999,5105469.937,5105486.52,5128817.773,5128819.5,2023-05-01T16:43:33Z,5128834.459,NULL,Prüfung,mtihani,d,NA,NA,NA,NA,sd,NA,4,NA,NA,NA,NA,NA,NA,NA,NA,NA,NA,NA,NA,NA,NA,NA,NA,NA,NA,NA
c5479,Deep Question,html.Page,3_0_4_0_5_0_0,NA,NA,form submission,21329.041,5128819.6999998,5128817.773,5128834.459,5150163.5,5150163.6999998,2023-05-01T16:43:54Z,5150183.088,NULL,Aufstand,ugomaji,d,NA,NA,NA,usumji,NA,NA,4,NA,NA,NA,NA,NA,NA,NA,NA,NA,NA,NA,NA,NA,NA,NA,NA,NA,NA,NA
c5479,"""Richtig""-Screen",canvas.Screen,3_0_4_0_5_0_1,NA,NA,skipped,NA,5150165.5999999,NA,NA,5150163.5,5150165.6999998,2023-05-01T16:43:54Z,5150183.088,NULL,Aufstand,ugomaji,d,NA,NA,NA,NA,sd,NA,4,NA,NA,NA,NA,NA,NA,NA,NA,NA,NA,NA,NA,NA,NA,NA,NA,NA,NA,NA
c5479,"""Falsch""-Screen",canvas.Screen,3_0_4_0_5_0_2,NA,NA,timeout,4996.4749999996,5150166.8,5150166.429,5150183.088,5155162.728,5155163.5999999,2023-05-01T16:43:59Z,5155179.563,NULL,Aufstand,ugomaji,d,NA,NA,NA,NA,sd,0,4,NA,NA,NA,NA,NA,NA,NA,NA,NA,NA,NA,NA,NA,NA,NA,NA,NA,NA,NA
c5479,deep,flow.Sequence,3_0_4_0_5_0,NA,NA,completion,26328.269,5128819.6999998,5128817.773,5128834.459,5155162.728,5155164,2023-05-01T16:43:59Z,5155179.563,NULL,Aufstand,ugomaji,d,NA,NA,NA,NA,sd,NA,4,NA,NA,NA,NA,NA,NA,NA,NA,NA,NA,NA,NA,NA,NA,NA,NA,NA,NA,NA
c5479,shallow,flow.Sequence,3_0_4_0_5_1,NA,NA,skipped,NA,5155164.3,NA,NA,5155162.728,5155164.3999999,2023-05-01T16:43:59Z,5155179.563,NULL,Aufstand,ugomaji,d,NA,NA,NA,NA,sd,NA,4,NA,NA,NA,NA,NA,NA,NA,NA,NA,NA,NA,NA,NA,NA,NA,NA,NA,NA,NA
c5479,task,flow.Sequence,3_0_4_0_5,NA,NA,completion,26328.269,5128819.6999998,5128817.773,5128834.459,5155162.728,5155164.6999998,2023-05-01T16:43:59Z,5155179.563,NULL,Aufstand,ugomaji,d,NA,NA,NA,NA,sd,NA,4,NA,NA,NA,NA,NA,NA,NA,NA,NA,NA,NA,NA,NA,NA,NA,NA,NA,NA,NA
c5479,deep,flow.Sequence,3_0_4_0_6_0,NA,NA,skipped,NA,5155164.8,NA,NA,5155162.728,5155165,2023-05-01T16:43:59Z,5155179.563,NULL,Kultur,utamaduni,s,shetani,gerezani,mazingira,NA,sd,NA,4,NA,NA,NA,NA,NA,NA,NA,NA,NA,NA,NA,NA,NA,NA,NA,NA,NA,NA,NA
c5479,Shallow Question,html.Page,3_0_4_0_6_1_0,NA,NA,form submission,6311.6369998092,5155165.0999999,5155162.728,5155179.563,5161491.1999998,5161491.3999999,2023-05-01T16:44:06Z,5161507.584,NULL,Kultur,utamaduni,s,shetani,gerezani,mazingira,utamaduni,NA,NA,4,NA,NA,NA,NA,NA,NA,NA,NA,NA,NA,NA,NA,NA,NA,NA,NA,NA,NA,NA
c5479,"""Richtig""-Screen",canvas.Screen,3_0_4_0_6_1_1,NA,NA,timeout,4996.0060000001,5161493.3999999,5161474.39,5161507.584,5166486.434,5166488.6999998,2023-05-01T16:44:11Z,5166503.59,NULL,Kultur,utamaduni,s,shetani,gerezani,mazingira,NA,sd,1,4,NA,NA,NA,NA,NA,NA,NA,NA,NA,NA,NA,NA,NA,NA,NA,NA,NA,NA,NA
c5479,"""Falsch""-Screen",canvas.Screen,3_0_4_0_6_1_2,NA,NA,skipped,NA,5166491.5,NA,NA,5166486.434,5166491.5999999,2023-05-01T16:44:11Z,5166503.59,NULL,Kultur,utamaduni,s,shetani,gerezani,mazingira,NA,sd,NA,4,NA,NA,NA,NA,NA,NA,NA,NA,NA,NA,NA,NA,NA,NA,NA,NA,NA,NA,NA
c5479,shallow,flow.Sequence,3_0_4_0_6_1,NA,NA,completion,11306.871,5155165.0999999,5155162.728,5155179.563,5166486.434,5166491.8999999,2023-05-01T16:44:11Z,5166503.59,NULL,Kultur,utamaduni,s,shetani,gerezani,mazingira,NA,sd,NA,4,NA,NA,NA,NA,NA,NA,NA,NA,NA,NA,NA,NA,NA,NA,NA,NA,NA,NA,NA
c5479,task,flow.Sequence,3_0_4_0_6,NA,NA,completion,11306.871,5155164.8,5155162.728,5155179.563,5166486.434,5166492,2023-05-01T16:44:11Z,5166503.59,NULL,Kultur,utamaduni,s,shetani,gerezani,mazingira,NA,sd,NA,4,NA,NA,NA,NA,NA,NA,NA,NA,NA,NA,NA,NA,NA,NA,NA,NA,NA,NA,NA
c5479,Deep Question,html.Page,3_0_4_0_7_0_0,NA,NA,form submission,23674.209999952,5166492.0999999,5166486.434,5166503.59,5190177.8,5190177.8999999,2023-05-01T16:44:34Z,5190183.549,NULL,Beweis,ushahidi,d,NA,NA,NA,j,NA,NA,4,NA,NA,NA,NA,NA,NA,NA,NA,NA,NA,NA,NA,NA,NA,NA,NA,NA,NA,NA
c5479,"""Richtig""-Screen",canvas.Screen,3_0_4_0_7_0_1,NA,NA,skipped,NA,5190180,NA,NA,5190177.8,5190180.0999999,2023-05-01T16:44:34Z,5190183.549,NULL,Beweis,ushahidi,d,NA,NA,NA,NA,sd,NA,4,NA,NA,NA,NA,NA,NA,NA,NA,NA,NA,NA,NA,NA,NA,NA,NA,NA,NA,NA
c5479,"""Falsch""-Screen",canvas.Screen,3_0_4_0_7_0_2,NA,NA,timeout,4996.4780000001,5190180.6999998,5190167.155,5190183.549,5195163.163,5195164.0999999,2023-05-01T16:44:39Z,5195180.027,NULL,Beweis,ushahidi,d,NA,NA,NA,NA,sd,0,4,NA,NA,NA,NA,NA,NA,NA,NA,NA,NA,NA,NA,NA,NA,NA,NA,NA,NA,NA
c5479,deep,flow.Sequence,3_0_4_0_7_0,NA,NA,completion,28659.573,5166492.0999999,5166486.434,5166503.59,5195163.163,5195164.5,2023-05-01T16:44:39Z,5195180.027,NULL,Beweis,ushahidi,d,NA,NA,NA,NA,sd,NA,4,NA,NA,NA,NA,NA,NA,NA,NA,NA,NA,NA,NA,NA,NA,NA,NA,NA,NA,NA
c5479,shallow,flow.Sequence,3_0_4_0_7_1,NA,NA,skipped,NA,5195164.6999998,NA,NA,5195163.163,5195164.8,2023-05-01T16:44:39Z,5195180.027,NULL,Beweis,ushahidi,d,NA,NA,NA,NA,sd,NA,4,NA,NA,NA,NA,NA,NA,NA,NA,NA,NA,NA,NA,NA,NA,NA,NA,NA,NA,NA
c5479,task,flow.Sequence,3_0_4_0_7,NA,NA,completion,28659.573,5166492.0999999,5166486.434,5166503.59,5195163.163,5195165,2023-05-01T16:44:39Z,5195180.027,NULL,Beweis,ushahidi,d,NA,NA,NA,NA,sd,NA,4,NA,NA,NA,NA,NA,NA,NA,NA,NA,NA,NA,NA,NA,NA,NA,NA,NA,NA,NA
c5479,block,flow.Loop,3_0_4_0,NA,NA,completion,145463.834,5049684.3,5049682.923,5049699.329,5195163.163,5195165.3,2023-05-01T16:44:39Z,5195180.027,NULL,NA,NA,NA,NA,NA,NA,NA,sd,NA,4,NA,NA,NA,NA,NA,NA,NA,NA,NA,NA,NA,NA,NA,NA,NA,NA,NA,NA,NA
c5479,weiter,canvas.Screen,3_0_4_1,sdf,keypress(Space),response,4001.0729999049,5195165.5,5195163.163,5195180.027,5199181.0999999,5199182.1999998,2023-05-01T16:44:43Z,5199226.579,NULL,NA,NA,NA,NA,NA,NA,NA,sd,NA,4,NA,NA,NA,NA,NA,NA,NA,NA,NA,NA,NA,NA,NA,NA,NA,NA,NA,NA,NA
c5479,check continue,flow.Sequence,3_0_4,NA,NA,completion,149481.7709999,5049684.1999998,5049682.923,5049699.329,5199181.0999999,5199182.6999998,2023-05-01T16:44:43Z,5199226.579,NULL,NA,NA,NA,NA,NA,NA,NA,sd,NA,4,NA,NA,NA,NA,NA,NA,NA,NA,NA,NA,NA,NA,NA,NA,NA,NA,NA,NA,NA
c5479,deep,flow.Sequence,3_0_5_0_0_0,NA,NA,skipped,NA,5199210,NA,NA,5199181.0999999,5199210.0999999,2023-05-01T16:44:43Z,5199226.579,NULL,Verzögerung,kuchelewa,s,mwakilishi,mwanauchumi,jaribio,NA,sdf,NA,5,NA,NA,NA,NA,NA,NA,NA,NA,NA,NA,NA,NA,NA,NA,NA,NA,NA,NA,NA
c5479,Shallow Question,html.Page,3_0_5_0_0_1_0,NA,NA,form submission,5090.2209999524,5199210.1999998,5199209.978,5199226.579,5204316.8,5204317,2023-05-01T16:44:48Z,5204321.913,NULL,Verzögerung,kuchelewa,s,mwakilishi,mwanauchumi,jaribio,kuchelewa,NA,NA,5,NA,NA,NA,NA,NA,NA,NA,NA,NA,NA,NA,NA,NA,NA,NA,NA,NA,NA,NA
c5479,"""Richtig""-Screen",canvas.Screen,3_0_5_0_0_1_1,NA,NA,timeout,4996.5120000001,5204318.8999999,5204305.729,5204321.913,5209301.999,5209302.6999998,2023-05-01T16:44:53Z,5209318.425,NULL,Verzögerung,kuchelewa,s,mwakilishi,mwanauchumi,jaribio,NA,sdf,1,5,NA,NA,NA,NA,NA,NA,NA,NA,NA,NA,NA,NA,NA,NA,NA,NA,NA,NA,NA
c5479,"""Falsch""-Screen",canvas.Screen,3_0_5_0_0_1_2,NA,NA,skipped,NA,5209304.5,NA,NA,5209301.999,5209304.5,2023-05-01T16:44:53Z,5209318.425,NULL,Verzögerung,kuchelewa,s,mwakilishi,mwanauchumi,jaribio,NA,sdf,NA,5,NA,NA,NA,NA,NA,NA,NA,NA,NA,NA,NA,NA,NA,NA,NA,NA,NA,NA,NA
c5479,shallow,flow.Sequence,3_0_5_0_0_1,NA,NA,completion,10075.42,5199210.1999998,5199209.978,5199226.579,5209301.999,5209304.6999998,2023-05-01T16:44:53Z,5209318.425,NULL,Verzögerung,kuchelewa,s,mwakilishi,mwanauchumi,jaribio,NA,sdf,NA,5,NA,NA,NA,NA,NA,NA,NA,NA,NA,NA,NA,NA,NA,NA,NA,NA,NA,NA,NA
c5479,task,flow.Sequence,3_0_5_0_0,NA,NA,completion,10075.42,5199210,5199209.978,5199226.579,5209301.999,5209304.8,2023-05-01T16:44:53Z,5209318.425,NULL,Verzögerung,kuchelewa,s,mwakilishi,mwanauchumi,jaribio,NA,sdf,NA,5,NA,NA,NA,NA,NA,NA,NA,NA,NA,NA,NA,NA,NA,NA,NA,NA,NA,NA,NA
c5479,Deep Question,html.Page,3_0_5_0_1_0_0,NA,NA,form submission,33027.075,5209304.8999999,5209301.999,5209318.425,5242345.5,5242345.6999998,2023-05-01T16:45:26Z,5242357.69,NULL,Prüfung,mtihani,d,NA,NA,NA,mthanid,NA,NA,5,NA,NA,NA,NA,NA,NA,NA,NA,NA,NA,NA,NA,NA,NA,NA,NA,NA,NA,NA
c5479,"""Richtig""-Screen",canvas.Screen,3_0_5_0_1_0_1,NA,NA,skipped,NA,5242347.8,NA,NA,5242345.5,5242348,2023-05-01T16:45:26Z,5242357.69,NULL,Prüfung,mtihani,d,NA,NA,NA,NA,sdf,NA,5,NA,NA,NA,NA,NA,NA,NA,NA,NA,NA,NA,NA,NA,NA,NA,NA,NA,NA,NA
c5479,"""Falsch""-Screen",canvas.Screen,3_0_5_0_1_0_2,NA,NA,timeout,4996.1409999998,5242348.5999999,5242340.782,5242357.69,5247336.802,5247337.8,2023-05-01T16:45:31Z,5247353.831,NULL,Prüfung,mtihani,d,NA,NA,NA,NA,sdf,0,5,NA,NA,NA,NA,NA,NA,NA,NA,NA,NA,NA,NA,NA,NA,NA,NA,NA,NA,NA
c5479,deep,flow.Sequence,3_0_5_0_1_0,NA,NA,completion,38018.377,5209304.8999999,5209301.999,5209318.425,5247336.802,5247338.1999998,2023-05-01T16:45:31Z,5247353.831,NULL,Prüfung,mtihani,d,NA,NA,NA,NA,sdf,NA,5,NA,NA,NA,NA,NA,NA,NA,NA,NA,NA,NA,NA,NA,NA,NA,NA,NA,NA,NA
c5479,shallow,flow.Sequence,3_0_5_0_1_1,NA,NA,skipped,NA,5247338.3,NA,NA,5247336.802,5247338.5999999,2023-05-01T16:45:31Z,5247353.831,NULL,Prüfung,mtihani,d,NA,NA,NA,NA,sdf,NA,5,NA,NA,NA,NA,NA,NA,NA,NA,NA,NA,NA,NA,NA,NA,NA,NA,NA,NA,NA
c5479,task,flow.Sequence,3_0_5_0_1,NA,NA,completion,38018.377,5209304.8999999,5209301.999,5209318.425,5247336.802,5247338.6999998,2023-05-01T16:45:31Z,5247353.831,NULL,Prüfung,mtihani,d,NA,NA,NA,NA,sdf,NA,5,NA,NA,NA,NA,NA,NA,NA,NA,NA,NA,NA,NA,NA,NA,NA,NA,NA,NA,NA
c5479,deep,flow.Sequence,3_0_5_0_2_0,NA,NA,skipped,NA,5247338.8999999,NA,NA,5247336.802,5247339.0999999,2023-05-01T16:45:31Z,5247353.831,NULL,Kultur,utamaduni,s,shetani,gerezani,mazingira,NA,sdf,NA,5,NA,NA,NA,NA,NA,NA,NA,NA,NA,NA,NA,NA,NA,NA,NA,NA,NA,NA,NA
c5479,Shallow Question,html.Page,3_0_5_0_2_1_0,NA,NA,form submission,4858.368999809,5247339.3,5247336.802,5247353.831,5252212.1999998,5252212.5,2023-05-01T16:45:36Z,5252215.888,NULL,Kultur,utamaduni,s,shetani,gerezani,mazingira,utamaduni,NA,NA,5,NA,NA,NA,NA,NA,NA,NA,NA,NA,NA,NA,NA,NA,NA,NA,NA,NA,NA,NA
c5479,"""Richtig""-Screen",canvas.Screen,3_0_5_0_2_1_1,NA,NA,timeout,4995.9969999995,5252215.1999998,5252199.395,5252215.888,5257195.704,5257196.5,2023-05-01T16:45:41Z,5257211.885,NULL,Kultur,utamaduni,s,shetani,gerezani,mazingira,NA,sdf,1,5,NA,NA,NA,NA,NA,NA,NA,NA,NA,NA,NA,NA,NA,NA,NA,NA,NA,NA,NA
c5479,"""Falsch""-Screen",canvas.Screen,3_0_5_0_2_1_2,NA,NA,skipped,NA,5257201,NA,NA,5257195.704,5257201.3,2023-05-01T16:45:41Z,5257211.885,NULL,Kultur,utamaduni,s,shetani,gerezani,mazingira,NA,sdf,NA,5,NA,NA,NA,NA,NA,NA,NA,NA,NA,NA,NA,NA,NA,NA,NA,NA,NA,NA,NA
c5479,shallow,flow.Sequence,3_0_5_0_2_1,NA,NA,completion,9841.8729999997,5247339.3,5247336.802,5247353.831,5257195.704,5257201.5999999,2023-05-01T16:45:41Z,5257211.885,NULL,Kultur,utamaduni,s,shetani,gerezani,mazingira,NA,sdf,NA,5,NA,NA,NA,NA,NA,NA,NA,NA,NA,NA,NA,NA,NA,NA,NA,NA,NA,NA,NA
c5479,task,flow.Sequence,3_0_5_0_2,NA,NA,completion,9841.8729999997,5247338.8999999,5247336.802,5247353.831,5257195.704,5257201.8,2023-05-01T16:45:41Z,5257211.885,NULL,Kultur,utamaduni,s,shetani,gerezani,mazingira,NA,sdf,NA,5,NA,NA,NA,NA,NA,NA,NA,NA,NA,NA,NA,NA,NA,NA,NA,NA,NA,NA,NA
c5479,deep,flow.Sequence,3_0_5_0_3_0,NA,NA,skipped,NA,5257201.8999999,NA,NA,5257195.704,5257202.0999999,2023-05-01T16:45:41Z,5257211.885,NULL,Sympathie,mapendano,s,dhamiria,fungamano,maazimio,NA,sdf,NA,5,NA,NA,NA,NA,NA,NA,NA,NA,NA,NA,NA,NA,NA,NA,NA,NA,NA,NA,NA
c5479,Shallow Question,html.Page,3_0_5_0_3_1_0,NA,NA,form submission,4347.3149998095,5257202.1999998,5257195.704,5257211.885,5261559.1999998,5261559.8,2023-05-01T16:45:46Z,5261587.764,NULL,Sympathie,mapendano,s,dhamiria,fungamano,maazimio,mapendano,NA,NA,5,NA,NA,NA,NA,NA,NA,NA,NA,NA,NA,NA,NA,NA,NA,NA,NA,NA,NA,NA
c5479,"""Richtig""-Screen",canvas.Screen,3_0_5_0_3_1_1,NA,NA,timeout,4999.7039999999,5261562.8999999,5261541.994,5261587.764,5266571.048,5266572.0999999,2023-05-01T16:45:51Z,5266587.468,NULL,Sympathie,mapendano,s,dhamiria,fungamano,maazimio,NA,sdf,1,5,NA,NA,NA,NA,NA,NA,NA,NA,NA,NA,NA,NA,NA,NA,NA,NA,NA,NA,NA
c5479,"""Falsch""-Screen",canvas.Screen,3_0_5_0_3_1_2,NA,NA,skipped,NA,5266577.1999998,NA,NA,5266571.048,5266577.5999999,2023-05-01T16:45:51Z,5266587.468,NULL,Sympathie,mapendano,s,dhamiria,fungamano,maazimio,NA,sdf,NA,5,NA,NA,NA,NA,NA,NA,NA,NA,NA,NA,NA,NA,NA,NA,NA,NA,NA,NA,NA
c5479,shallow,flow.Sequence,3_0_5_0_3_1,NA,NA,completion,9359.1630000006,5257202.1999998,5257195.704,5257211.885,5266571.048,5266578,2023-05-01T16:45:51Z,5266587.468,NULL,Sympathie,mapendano,s,dhamiria,fungamano,maazimio,NA,sdf,NA,5,NA,NA,NA,NA,NA,NA,NA,NA,NA,NA,NA,NA,NA,NA,NA,NA,NA,NA,NA
c5479,task,flow.Sequence,3_0_5_0_3,NA,NA,completion,9359.1630000006,5257201.8999999,5257195.704,5257211.885,5266571.048,5266578.3,2023-05-01T16:45:51Z,5266587.468,NULL,Sympathie,mapendano,s,dhamiria,fungamano,maazimio,NA,sdf,NA,5,NA,NA,NA,NA,NA,NA,NA,NA,NA,NA,NA,NA,NA,NA,NA,NA,NA,NA,NA
c5479,Deep Question,html.Page,3_0_5_0_4_0_0,NA,NA,form submission,42507.731999809,5266578.5,5266571.048,5266587.468,5309095.1999998,5309095.3999999,2023-05-01T16:46:33Z,5309102.468,NULL,Polizist,msongora,d,NA,NA,NA,usoj,NA,NA,5,NA,NA,NA,NA,NA,NA,NA,NA,NA,NA,NA,NA,NA,NA,NA,NA,NA,NA,NA
c5479,"""Richtig""-Screen",canvas.Screen,3_0_5_0_4_0_1,NA,NA,skipped,NA,5309097.3999999,NA,NA,5309095.1999998,5309097.5999999,2023-05-01T16:46:33Z,5309102.468,NULL,Polizist,msongora,d,NA,NA,NA,NA,sdf,NA,5,NA,NA,NA,NA,NA,NA,NA,NA,NA,NA,NA,NA,NA,NA,NA,NA,NA,NA,NA
c5479,"""Falsch""-Screen",canvas.Screen,3_0_5_0_4_0_2,NA,NA,timeout,4996.3089999994,5309098.1999998,5309086.375,5309102.468,5314082.3,5314083.3,2023-05-01T16:46:38Z,5314098.777,NULL,Polizist,msongora,d,NA,NA,NA,NA,sdf,0,5,NA,NA,NA,NA,NA,NA,NA,NA,NA,NA,NA,NA,NA,NA,NA,NA,NA,NA,NA
c5479,deep,flow.Sequence,3_0_5_0_4_0,NA,NA,completion,47494.831999999,5266578.5,5266571.048,5266587.468,5314082.3,5314083.6999998,2023-05-01T16:46:38Z,5314098.777,NULL,Polizist,msongora,d,NA,NA,NA,NA,sdf,NA,5,NA,NA,NA,NA,NA,NA,NA,NA,NA,NA,NA,NA,NA,NA,NA,NA,NA,NA,NA
c5479,shallow,flow.Sequence,3_0_5_0_4_1,NA,NA,skipped,NA,5314083.8999999,NA,NA,5314082.3,5314084,2023-05-01T16:46:38Z,5314098.777,NULL,Polizist,msongora,d,NA,NA,NA,NA,sdf,NA,5,NA,NA,NA,NA,NA,NA,NA,NA,NA,NA,NA,NA,NA,NA,NA,NA,NA,NA,NA
c5479,task,flow.Sequence,3_0_5_0_4,NA,NA,completion,47494.831999999,5266578.3999999,5266571.048,5266587.468,5314082.3,5314084.3,2023-05-01T16:46:38Z,5314098.777,NULL,Polizist,msongora,d,NA,NA,NA,NA,sdf,NA,5,NA,NA,NA,NA,NA,NA,NA,NA,NA,NA,NA,NA,NA,NA,NA,NA,NA,NA,NA
c5479,deep,flow.Sequence,3_0_5_0_5_0,NA,NA,skipped,NA,5314084.5,NA,NA,5314082.3,5314084.5999999,2023-05-01T16:46:38Z,5314098.777,NULL,Annäherung,maegesho,s,madahili,kujiamini,mapendekezo,NA,sdf,NA,5,NA,NA,NA,NA,NA,NA,NA,NA,NA,NA,NA,NA,NA,NA,NA,NA,NA,NA,NA
c5479,Shallow Question,html.Page,3_0_5_0_5_1_0,NA,NA,form submission,10016.922999809,5314084.6999998,5314082.3,5314098.777,5324115.6999998,5324115.8999999,2023-05-01T16:46:48Z,5324123.546,NULL,Annäherung,maegesho,s,madahili,kujiamini,mapendekezo,maegesho,NA,NA,5,NA,NA,NA,NA,NA,NA,NA,NA,NA,NA,NA,NA,NA,NA,NA,NA,NA,NA,NA
c5479,"""Richtig""-Screen",canvas.Screen,3_0_5_0_5_1_1,NA,NA,timeout,4996.4440000001,5324118.3999999,5324106.9,5324123.546,5329103.213,5329103.5999999,2023-05-01T16:46:53Z,5329119.99,NULL,Annäherung,maegesho,s,madahili,kujiamini,mapendekezo,NA,sdf,1,5,NA,NA,NA,NA,NA,NA,NA,NA,NA,NA,NA,NA,NA,NA,NA,NA,NA,NA,NA
c5479,"""Falsch""-Screen",canvas.Screen,3_0_5_0_5_1_2,NA,NA,skipped,NA,5329105.3999999,NA,NA,5329103.213,5329105.5,2023-05-01T16:46:53Z,5329119.99,NULL,Annäherung,maegesho,s,madahili,kujiamini,mapendekezo,NA,sdf,NA,5,NA,NA,NA,NA,NA,NA,NA,NA,NA,NA,NA,NA,NA,NA,NA,NA,NA,NA,NA
c5479,shallow,flow.Sequence,3_0_5_0_5_1,NA,NA,completion,15004.436000001,5314084.6999998,5314082.3,5314098.777,5329103.213,5329105.6999998,2023-05-01T16:46:53Z,5329119.99,NULL,Annäherung,maegesho,s,madahili,kujiamini,mapendekezo,NA,sdf,NA,5,NA,NA,NA,NA,NA,NA,NA,NA,NA,NA,NA,NA,NA,NA,NA,NA,NA,NA,NA
c5479,task,flow.Sequence,3_0_5_0_5,NA,NA,completion,15004.436000001,5314084.3999999,5314082.3,5314098.777,5329103.213,5329105.8,2023-05-01T16:46:53Z,5329119.99,NULL,Annäherung,maegesho,s,madahili,kujiamini,mapendekezo,NA,sdf,NA,5,NA,NA,NA,NA,NA,NA,NA,NA,NA,NA,NA,NA,NA,NA,NA,NA,NA,NA,NA
c5479,Deep Question,html.Page,3_0_5_0_6_0_0,NA,NA,form submission,33595.01,5329105.8,5329103.213,5329119.99,5362715,5362715.3,2023-05-01T16:47:27Z,5362725.255,NULL,Beweis,ushahidi,d,NA,NA,NA,eso,NA,NA,5,NA,NA,NA,NA,NA,NA,NA,NA,NA,NA,NA,NA,NA,NA,NA,NA,NA,NA,NA
c5479,"""Richtig""-Screen",canvas.Screen,3_0_5_0_6_0_1,NA,NA,skipped,NA,5362717.3999999,NA,NA,5362715,5362717.5,2023-05-01T16:47:27Z,5362725.255,NULL,Beweis,ushahidi,d,NA,NA,NA,NA,sdf,NA,5,NA,NA,NA,NA,NA,NA,NA,NA,NA,NA,NA,NA,NA,NA,NA,NA,NA,NA,NA
c5479,"""Falsch""-Screen",canvas.Screen,3_0_5_0_6_0_2,NA,NA,timeout,4995.9580000006,5362718.0999999,5362709.064,5362725.255,5367704.895,5367705.5,2023-05-01T16:47:32Z,5367721.213,NULL,Beweis,ushahidi,d,NA,NA,NA,NA,sdf,0,5,NA,NA,NA,NA,NA,NA,NA,NA,NA,NA,NA,NA,NA,NA,NA,NA,NA,NA,NA
c5479,deep,flow.Sequence,3_0_5_0_6_0,NA,NA,completion,38584.904999999,5329105.8,5329103.213,5329119.99,5367704.895,5367705.8,2023-05-01T16:47:32Z,5367721.213,NULL,Beweis,ushahidi,d,NA,NA,NA,NA,sdf,NA,5,NA,NA,NA,NA,NA,NA,NA,NA,NA,NA,NA,NA,NA,NA,NA,NA,NA,NA,NA
c5479,shallow,flow.Sequence,3_0_5_0_6_1,NA,NA,skipped,NA,5367705.8,NA,NA,5367704.895,5367705.8999999,2023-05-01T16:47:32Z,5367721.213,NULL,Beweis,ushahidi,d,NA,NA,NA,NA,sdf,NA,5,NA,NA,NA,NA,NA,NA,NA,NA,NA,NA,NA,NA,NA,NA,NA,NA,NA,NA,NA
c5479,task,flow.Sequence,3_0_5_0_6,NA,NA,completion,38584.904999999,5329105.8,5329103.213,5329119.99,5367704.895,5367706,2023-05-01T16:47:32Z,5367721.213,NULL,Beweis,ushahidi,d,NA,NA,NA,NA,sdf,NA,5,NA,NA,NA,NA,NA,NA,NA,NA,NA,NA,NA,NA,NA,NA,NA,NA,NA,NA,NA
c5479,Deep Question,html.Page,3_0_5_0_7_0_0,NA,NA,form submission,44188.586999952,5367706.1999998,5367704.895,5367721.213,5411909.8,5411909.8999999,2023-05-01T16:48:16Z,5411918.03,NULL,Aufstand,ugomaji,d,NA,NA,NA,esugohi,NA,NA,5,NA,NA,NA,NA,NA,NA,NA,NA,NA,NA,NA,NA,NA,NA,NA,NA,NA,NA,NA
c5479,"""Richtig""-Screen",canvas.Screen,3_0_5_0_7_0_1,NA,NA,skipped,NA,5411911.8999999,NA,NA,5411909.8,5411911.8999999,2023-05-01T16:48:16Z,5411918.03,NULL,Aufstand,ugomaji,d,NA,NA,NA,NA,sdf,NA,5,NA,NA,NA,NA,NA,NA,NA,NA,NA,NA,NA,NA,NA,NA,NA,NA,NA,NA,NA
c5479,"""Falsch""-Screen",canvas.Screen,3_0_5_0_7_0_2,NA,NA,timeout,4995.8049999997,5411912.5999999,5411901.884,5411918.03,5416897.34,5416898.3999999,2023-05-01T16:48:21Z,5416913.835,NULL,Aufstand,ugomaji,d,NA,NA,NA,NA,sdf,0,5,NA,NA,NA,NA,NA,NA,NA,NA,NA,NA,NA,NA,NA,NA,NA,NA,NA,NA,NA
c5479,deep,flow.Sequence,3_0_5_0_7_0,NA,NA,completion,49176.126999999,5367706.1999998,5367704.895,5367721.213,5416897.34,5416898.8,2023-05-01T16:48:21Z,5416913.835,NULL,Aufstand,ugomaji,d,NA,NA,NA,NA,sdf,NA,5,NA,NA,NA,NA,NA,NA,NA,NA,NA,NA,NA,NA,NA,NA,NA,NA,NA,NA,NA
c5479,shallow,flow.Sequence,3_0_5_0_7_1,NA,NA,skipped,NA,5416899.0999999,NA,NA,5416897.34,5416899.3,2023-05-01T16:48:21Z,5416913.835,NULL,Aufstand,ugomaji,d,NA,NA,NA,NA,sdf,NA,5,NA,NA,NA,NA,NA,NA,NA,NA,NA,NA,NA,NA,NA,NA,NA,NA,NA,NA,NA
c5479,task,flow.Sequence,3_0_5_0_7,NA,NA,completion,49176.126999999,5367706.1999998,5367704.895,5367721.213,5416897.34,5416899.5,2023-05-01T16:48:21Z,5416913.835,NULL,Aufstand,ugomaji,d,NA,NA,NA,NA,sdf,NA,5,NA,NA,NA,NA,NA,NA,NA,NA,NA,NA,NA,NA,NA,NA,NA,NA,NA,NA,NA
c5479,block,flow.Loop,3_0_5_0,NA,NA,completion,217670.761,5199210,5199209.978,5199226.579,5416897.34,5416899.8,2023-05-01T16:48:21Z,5416913.835,NULL,NA,NA,NA,NA,NA,NA,NA,sdf,NA,5,NA,NA,NA,NA,NA,NA,NA,NA,NA,NA,NA,NA,NA,NA,NA,NA,NA,NA,NA
c5479,weiter,canvas.Screen,3_0_5_1,sdf,keypress(Space),response,1168.665,5416899.8999999,5416897.34,5416913.835,5418082.5,5418083.8,2023-05-01T16:48:22Z,5418129.83,NULL,NA,NA,NA,NA,NA,NA,NA,sdf,NA,5,NA,NA,NA,NA,NA,NA,NA,NA,NA,NA,NA,NA,NA,NA,NA,NA,NA,NA,NA
c5479,check continue,flow.Sequence,3_0_5,NA,NA,completion,218855.921,5199209.8,5199209.978,5199226.579,5418082.5,5418084.1999998,2023-05-01T16:48:22Z,5418129.83,NULL,NA,NA,NA,NA,NA,NA,NA,sdf,NA,5,NA,NA,NA,NA,NA,NA,NA,NA,NA,NA,NA,NA,NA,NA,NA,NA,NA,NA,NA
c5479,deep,flow.Sequence,3_0_6_0_0_0,NA,NA,skipped,NA,5418123.1999998,NA,NA,5418082.5,5418123.3,2023-05-01T16:48:22Z,5418129.83,NULL,Verzögerung,kuchelewa,s,mwakilishi,mwanauchumi,jaribio,NA,dfs,NA,6,NA,NA,NA,NA,NA,NA,NA,NA,NA,NA,NA,NA,NA,NA,NA,NA,NA,NA,NA
c5479,Shallow Question,html.Page,3_0_6_0_0_1_0,NA,NA,form submission,4452.5699998569,5418123.3999999,5418113.298,5418129.83,5422582.3999999,5422582.8,2023-05-01T16:48:27Z,5422592.818,NULL,Verzögerung,kuchelewa,s,mwakilishi,mwanauchumi,jaribio,kuchelewa,NA,NA,6,NA,NA,NA,NA,NA,NA,NA,NA,NA,NA,NA,NA,NA,NA,NA,NA,NA,NA,NA
c5479,"""Richtig""-Screen",canvas.Screen,3_0_6_0_0_1_1,NA,NA,timeout,4995.6320000002,5422586.5999999,5422575.96,5422592.818,5427572.192,5427573.0999999,2023-05-01T16:48:32Z,5427588.45,NULL,Verzögerung,kuchelewa,s,mwakilishi,mwanauchumi,jaribio,NA,dfs,1,6,NA,NA,NA,NA,NA,NA,NA,NA,NA,NA,NA,NA,NA,NA,NA,NA,NA,NA,NA
c5479,"""Falsch""-Screen",canvas.Screen,3_0_6_0_0_1_2,NA,NA,skipped,NA,5427578.8,NA,NA,5427572.192,5427579.0999999,2023-05-01T16:48:32Z,5427588.45,NULL,Verzögerung,kuchelewa,s,mwakilishi,mwanauchumi,jaribio,NA,dfs,NA,6,NA,NA,NA,NA,NA,NA,NA,NA,NA,NA,NA,NA,NA,NA,NA,NA,NA,NA,NA
c5479,shallow,flow.Sequence,3_0_6_0_0_1,NA,NA,completion,9442.3619999997,5418123.3999999,5418113.298,5418129.83,5427572.192,5427579.5999999,2023-05-01T16:48:32Z,5427588.45,NULL,Verzögerung,kuchelewa,s,mwakilishi,mwanauchumi,jaribio,NA,dfs,NA,6,NA,NA,NA,NA,NA,NA,NA,NA,NA,NA,NA,NA,NA,NA,NA,NA,NA,NA,NA
c5479,task,flow.Sequence,3_0_6_0_0,NA,NA,completion,9442.3619999997,5418123.1999998,5418113.298,5418129.83,5427572.192,5427579.8,2023-05-01T16:48:32Z,5427588.45,NULL,Verzögerung,kuchelewa,s,mwakilishi,mwanauchumi,jaribio,NA,dfs,NA,6,NA,NA,NA,NA,NA,NA,NA,NA,NA,NA,NA,NA,NA,NA,NA,NA,NA,NA,NA
c5479,deep,flow.Sequence,3_0_6_0_1_0,NA,NA,skipped,NA,5427579.8999999,NA,NA,5427572.192,5427580,2023-05-01T16:48:32Z,5427588.45,NULL,Annäherung,maegesho,s,madahili,kujiamini,mapendekezo,NA,dfs,NA,6,NA,NA,NA,NA,NA,NA,NA,NA,NA,NA,NA,NA,NA,NA,NA,NA,NA,NA,NA
c5479,Shallow Question,html.Page,3_0_6_0_1_1_0,NA,NA,form submission,6576.4499998568,5427580.3,5427572.192,5427588.45,5434164.8999999,5434165.5,2023-05-01T16:48:38Z,5434166.412,NULL,Annäherung,maegesho,s,madahili,kujiamini,mapendekezo,maegesho,NA,NA,6,NA,NA,NA,NA,NA,NA,NA,NA,NA,NA,NA,NA,NA,NA,NA,NA,NA,NA,NA
c5479,"""Richtig""-Screen",canvas.Screen,3_0_6_0_1_1_1,NA,NA,timeout,4996.0870000003,5434171.5,5434149.993,5434166.412,5439145.692,5439147.1999998,2023-05-01T16:48:43Z,5439162.499,NULL,Annäherung,maegesho,s,madahili,kujiamini,mapendekezo,NA,dfs,1,6,NA,NA,NA,NA,NA,NA,NA,NA,NA,NA,NA,NA,NA,NA,NA,NA,NA,NA,NA
