observation,sender,sender_type,sender_id,response,response_action,ended_on,duration,time_run,time_render,time_show,time_end,time_commit,timestamp,time_switch,distractors,german,swahili,enc,distractor1,distractor2,distractor3,response_2,x,correct,x_2,url_vp,url_sess,meta_labjs_version,meta_location,meta_user_agent,meta_platform,meta_language,meta_locale,meta_time_zone,meta_timezone_offset,meta_screen_width,meta_screen_height,meta_scroll_width,meta_scroll_height,meta_window_inner_width,meta_window_inner_height,meta_device_pixel_ratio,meta_labjs_build_flavor,meta_labjs_build_commit
a3e80,Introduction general,canvas.Screen,0,weiter,keypress(q),response,37905.888,458.29999999981,238.554,455.212,38361.1,38391.3,2023-10-17T15:36:57Z,38403.694,NULL,NA,NA,NA,NA,NA,NA,NA,NA,NA,NA,131,3,20.2.4,https://neurocog.fernuni.ch/studies/vweber/encoding_immediate/index.html?vp=131&sess=3,"Mozilla/5.0 (Macintosh; Intel Mac OS X 10_15_7) AppleWebKit/537.36 (KHTML, like Gecko) Chrome/118.0.0.0 Safari/537.36",MacIntel,de-DE,de,Europe/Zurich,-120,1440,900,1440,654,1440,702,2,production,f5b4a49f956347addd546a832a3327688c2c0fef
a3e80,Introduction practice,canvas.Screen,1_0,NA,keypress(Space),response,1649.4059999999,38391.5,38387.028,38403.694,40053.1,40056.5,2023-10-17T15:36:59Z,40072.333,NULL,NA,NA,NA,NA,NA,NA,NA,NA,NA,NA,NA,NA,NA,NA,NA,NA,NA,NA,NA,NA,NA,NA,NA,NA,NA,NA,NA,NA,NA
a3e80,deep,flow.Sequence,1_1_0_0,NA,NA,skipped,NA,40056.9,NA,NA,40053.1,40057.2,2023-10-17T15:36:59Z,40072.333,"c(""distractor1"", ""distractor2"", ""distractor3"")",Rückhalt,msaada,s,muhula,auwali,kiwimbe,NA,NA,NA,NA,NA,NA,NA,NA,NA,NA,NA,NA,NA,NA,NA,NA,NA,NA,NA,NA,NA,NA,NA
a3e80,Shallow Question,html.Page,1_1_0_1_0,NA,NA,form submission,30410.067,40057.4,40055.667,40072.333,70482.4,70482.7,2023-10-17T15:37:29Z,70505.74,"c(""distractor1"", ""distractor2"", ""distractor3"")",Rückhalt,msaada,s,muhula,auwali,kiwimbe,kiwimbe,NA,NA,NA,NA,NA,NA,NA,NA,NA,NA,NA,NA,NA,NA,NA,NA,NA,NA,NA,NA,NA,NA
a3e80,"""Richtig""-Screen",canvas.Screen,1_1_0_1_1,NA,NA,skipped,NA,70484.1,NA,NA,70482.4,70484.2,2023-10-17T15:37:29Z,70505.74,"c(""distractor1"", ""distractor2"", ""distractor3"")",Rückhalt,msaada,s,muhula,auwali,kiwimbe,NA,NA,NA,NA,NA,NA,NA,NA,NA,NA,NA,NA,NA,NA,NA,NA,NA,NA,NA,NA,NA,NA,NA
a3e80,"""Falsch""-Screen",canvas.Screen,1_1_0_1_2,NA,NA,timeout,5000.272,70485,70489.074,70505.74,75489.346,75496.2,2023-10-17T15:37:35Z,75506.012,"c(""distractor1"", ""distractor2"", ""distractor3"")",Rückhalt,msaada,s,muhula,auwali,kiwimbe,NA,NA,0,NA,NA,NA,NA,NA,NA,NA,NA,NA,NA,NA,NA,NA,NA,NA,NA,NA,NA,NA,NA
a3e80,shallow,flow.Sequence,1_1_0_1,NA,NA,completion,35417.013,40057.3,40055.667,40072.333,75489.346,75496.8,2023-10-17T15:37:35Z,75506.012,"c(""distractor1"", ""distractor2"", ""distractor3"")",Rückhalt,msaada,s,muhula,auwali,kiwimbe,NA,NA,NA,NA,NA,NA,NA,NA,NA,NA,NA,NA,NA,NA,NA,NA,NA,NA,NA,NA,NA,NA,NA
a3e80,task,flow.Sequence,1_1_0,NA,NA,completion,35417.013,40056.8,40055.667,40072.333,75489.346,75497,2023-10-17T15:37:35Z,75506.012,"c(""distractor1"", ""distractor2"", ""distractor3"")",Rückhalt,msaada,s,muhula,auwali,kiwimbe,NA,NA,NA,NA,NA,NA,NA,NA,NA,NA,NA,NA,NA,NA,NA,NA,NA,NA,NA,NA,NA,NA,NA
a3e80,Deep Question,html.Page,1_1_1_0_0,NA,NA,form submission,9511.688,75497.3,75489.346,75506.012,85017.7,85018,2023-10-17T15:37:44Z,85022.908,"c(""distractor1"", ""distractor2"", ""distractor3"")",Qualität,mtindo,d,NA,NA,NA,d,NA,NA,NA,NA,NA,NA,NA,NA,NA,NA,NA,NA,NA,NA,NA,NA,NA,NA,NA,NA,NA,NA
a3e80,"""Richtig""-Screen",canvas.Screen,1_1_1_0_1,NA,NA,skipped,NA,85021.5,NA,NA,85017.7,85021.7,2023-10-17T15:37:44Z,85022.908,"c(""distractor1"", ""distractor2"", ""distractor3"")",Qualität,mtindo,d,NA,NA,NA,NA,NA,NA,NA,NA,NA,NA,NA,NA,NA,NA,NA,NA,NA,NA,NA,NA,NA,NA,NA,NA,NA,NA
a3e80,"""Falsch""-Screen",canvas.Screen,1_1_1_0_2,NA,NA,timeout,4999.8,85022.5,85006.242,85022.908,90006.042,90009,2023-10-17T15:37:49Z,90022.708,"c(""distractor1"", ""distractor2"", ""distractor3"")",Qualität,mtindo,d,NA,NA,NA,NA,NA,0,NA,NA,NA,NA,NA,NA,NA,NA,NA,NA,NA,NA,NA,NA,NA,NA,NA,NA,NA,NA
a3e80,deep,flow.Sequence,1_1_1_0,NA,NA,completion,14500.03,75497.3,75489.346,75506.012,90006.042,90009.5,2023-10-17T15:37:49Z,90022.708,"c(""distractor1"", ""distractor2"", ""distractor3"")",Qualität,mtindo,d,NA,NA,NA,NA,NA,NA,NA,NA,NA,NA,NA,NA,NA,NA,NA,NA,NA,NA,NA,NA,NA,NA,NA,NA,NA,NA
a3e80,shallow,flow.Sequence,1_1_1_1,NA,NA,skipped,NA,90009.7,NA,NA,90006.042,90009.9,2023-10-17T15:37:49Z,90022.708,"c(""distractor1"", ""distractor2"", ""distractor3"")",Qualität,mtindo,d,NA,NA,NA,NA,NA,NA,NA,NA,NA,NA,NA,NA,NA,NA,NA,NA,NA,NA,NA,NA,NA,NA,NA,NA,NA,NA
a3e80,task,flow.Sequence,1_1_1,NA,NA,completion,14500.03,75497.2,75489.346,75506.012,90006.042,90010,2023-10-17T15:37:49Z,90022.708,"c(""distractor1"", ""distractor2"", ""distractor3"")",Qualität,mtindo,d,NA,NA,NA,NA,NA,NA,NA,NA,NA,NA,NA,NA,NA,NA,NA,NA,NA,NA,NA,NA,NA,NA,NA,NA,NA,NA
a3e80,deep,flow.Sequence,1_1_2_0,NA,NA,skipped,NA,90010.3,NA,NA,90006.042,90010.4,2023-10-17T15:37:49Z,90022.708,"c(""distractor1"", ""distractor2"", ""distractor3"")",Gegenwart,hadhara,s,katiba,jokofu,mikopo,NA,NA,NA,NA,NA,NA,NA,NA,NA,NA,NA,NA,NA,NA,NA,NA,NA,NA,NA,NA,NA,NA,NA
a3e80,Shallow Question,html.Page,1_1_2_1_0,NA,NA,form submission,3942.6919999999,90010.5,90006.042,90022.708,93965.4,93965.9,2023-10-17T15:37:53Z,93973.092,"c(""distractor1"", ""distractor2"", ""distractor3"")",Gegenwart,hadhara,s,katiba,jokofu,mikopo,jokofu,NA,NA,NA,NA,NA,NA,NA,NA,NA,NA,NA,NA,NA,NA,NA,NA,NA,NA,NA,NA,NA,NA
a3e80,"""Richtig""-Screen",canvas.Screen,1_1_2_1_1,NA,NA,skipped,NA,93968.3,NA,NA,93965.4,93968.4,2023-10-17T15:37:53Z,93973.092,"c(""distractor1"", ""distractor2"", ""distractor3"")",Gegenwart,hadhara,s,katiba,jokofu,mikopo,NA,NA,NA,NA,NA,NA,NA,NA,NA,NA,NA,NA,NA,NA,NA,NA,NA,NA,NA,NA,NA,NA,NA
a3e80,"""Falsch""-Screen",canvas.Screen,1_1_2_1_2,NA,NA,timeout,4999.8,93969.9,93956.426,93973.092,98956.226,98960.3,2023-10-17T15:37:58Z,98972.892,"c(""distractor1"", ""distractor2"", ""distractor3"")",Gegenwart,hadhara,s,katiba,jokofu,mikopo,NA,NA,0,NA,NA,NA,NA,NA,NA,NA,NA,NA,NA,NA,NA,NA,NA,NA,NA,NA,NA,NA,NA
a3e80,shallow,flow.Sequence,1_1_2_1,NA,NA,completion,8933.518,90010.5,90006.042,90022.708,98956.226,98960.8,2023-10-17T15:37:58Z,98972.892,"c(""distractor1"", ""distractor2"", ""distractor3"")",Gegenwart,hadhara,s,katiba,jokofu,mikopo,NA,NA,NA,NA,NA,NA,NA,NA,NA,NA,NA,NA,NA,NA,NA,NA,NA,NA,NA,NA,NA,NA,NA
a3e80,task,flow.Sequence,1_1_2,NA,NA,completion,8933.518,90010.2,90006.042,90022.708,98956.226,98961,2023-10-17T15:37:58Z,98972.892,"c(""distractor1"", ""distractor2"", ""distractor3"")",Gegenwart,hadhara,s,katiba,jokofu,mikopo,NA,NA,NA,NA,NA,NA,NA,NA,NA,NA,NA,NA,NA,NA,NA,NA,NA,NA,NA,NA,NA,NA,NA
a3e80,Deep Question,html.Page,1_1_3_0_0,NA,NA,form submission,4172.9079999998,98961.3,98956.226,98972.892,103145.8,103146,2023-10-17T15:38:02Z,103156.583,"c(""distractor1"", ""distractor2"", ""distractor3"")",Schatten,kivuli,d,NA,NA,NA,s,NA,NA,NA,NA,NA,NA,NA,NA,NA,NA,NA,NA,NA,NA,NA,NA,NA,NA,NA,NA,NA,NA
a3e80,"""Richtig""-Screen",canvas.Screen,1_1_3_0_1,NA,NA,skipped,NA,103148.2,NA,NA,103145.8,103148.2,2023-10-17T15:38:02Z,103156.583,"c(""distractor1"", ""distractor2"", ""distractor3"")",Schatten,kivuli,d,NA,NA,NA,NA,NA,NA,NA,NA,NA,NA,NA,NA,NA,NA,NA,NA,NA,NA,NA,NA,NA,NA,NA,NA,NA,NA
a3e80,"""Falsch""-Screen",canvas.Screen,1_1_3_0_2,NA,NA,timeout,4999.8,103148.7,103139.917,103156.583,108139.717,108142.2,2023-10-17T15:38:07Z,108156.383,"c(""distractor1"", ""distractor2"", ""distractor3"")",Schatten,kivuli,d,NA,NA,NA,NA,NA,0,NA,NA,NA,NA,NA,NA,NA,NA,NA,NA,NA,NA,NA,NA,NA,NA,NA,NA,NA,NA
a3e80,deep,flow.Sequence,1_1_3_0,NA,NA,completion,9166.825,98961.2,98956.226,98972.892,108139.717,108142.6,2023-10-17T15:38:07Z,108156.383,"c(""distractor1"", ""distractor2"", ""distractor3"")",Schatten,kivuli,d,NA,NA,NA,NA,NA,NA,NA,NA,NA,NA,NA,NA,NA,NA,NA,NA,NA,NA,NA,NA,NA,NA,NA,NA,NA,NA
a3e80,shallow,flow.Sequence,1_1_3_1,NA,NA,skipped,NA,108142.8,NA,NA,108139.717,108142.9,2023-10-17T15:38:07Z,108156.383,"c(""distractor1"", ""distractor2"", ""distractor3"")",Schatten,kivuli,d,NA,NA,NA,NA,NA,NA,NA,NA,NA,NA,NA,NA,NA,NA,NA,NA,NA,NA,NA,NA,NA,NA,NA,NA,NA,NA
a3e80,task,flow.Sequence,1_1_3,NA,NA,completion,9166.825,98961.1,98956.226,98972.892,108139.717,108143.1,2023-10-17T15:38:07Z,108156.383,"c(""distractor1"", ""distractor2"", ""distractor3"")",Schatten,kivuli,d,NA,NA,NA,NA,NA,NA,NA,NA,NA,NA,NA,NA,NA,NA,NA,NA,NA,NA,NA,NA,NA,NA,NA,NA,NA,NA
a3e80,Deep Question,html.Page,1_1_4_0_0,NA,NA,form submission,3182.317,108143.3,108139.717,108156.383,111338.7,111338.9,2023-10-17T15:38:10Z,111339.589,"c(""distractor1"", ""distractor2"", ""distractor3"")",Gesundheit,salama,d,NA,NA,NA,d,NA,NA,NA,NA,NA,NA,NA,NA,NA,NA,NA,NA,NA,NA,NA,NA,NA,NA,NA,NA,NA,NA
a3e80,"""Richtig""-Screen",canvas.Screen,1_1_4_0_1,NA,NA,skipped,NA,111341.1,NA,NA,111338.7,111341.2,2023-10-17T15:38:10Z,111339.589,"c(""distractor1"", ""distractor2"", ""distractor3"")",Gesundheit,salama,d,NA,NA,NA,NA,NA,NA,NA,NA,NA,NA,NA,NA,NA,NA,NA,NA,NA,NA,NA,NA,NA,NA,NA,NA,NA,NA
a3e80,"""Falsch""-Screen",canvas.Screen,1_1_4_0_2,NA,NA,timeout,5000.268,111341.6,111322.923,111339.589,116323.191,116327.6,2023-10-17T15:38:15Z,116339.857,"c(""distractor1"", ""distractor2"", ""distractor3"")",Gesundheit,salama,d,NA,NA,NA,NA,NA,0,NA,NA,NA,NA,NA,NA,NA,NA,NA,NA,NA,NA,NA,NA,NA,NA,NA,NA,NA,NA
a3e80,deep,flow.Sequence,1_1_4_0,NA,NA,completion,8166.808,108143.3,108139.717,108156.383,116323.191,116328,2023-10-17T15:38:15Z,116339.857,"c(""distractor1"", ""distractor2"", ""distractor3"")",Gesundheit,salama,d,NA,NA,NA,NA,NA,NA,NA,NA,NA,NA,NA,NA,NA,NA,NA,NA,NA,NA,NA,NA,NA,NA,NA,NA,NA,NA
a3e80,shallow,flow.Sequence,1_1_4_1,NA,NA,skipped,NA,116328.1,NA,NA,116323.191,116328.3,2023-10-17T15:38:15Z,116339.857,"c(""distractor1"", ""distractor2"", ""distractor3"")",Gesundheit,salama,d,NA,NA,NA,NA,NA,NA,NA,NA,NA,NA,NA,NA,NA,NA,NA,NA,NA,NA,NA,NA,NA,NA,NA,NA,NA,NA
a3e80,task,flow.Sequence,1_1_4,NA,NA,completion,8166.808,108143.3,108139.717,108156.383,116323.191,116328.5,2023-10-17T15:38:15Z,116339.857,"c(""distractor1"", ""distractor2"", ""distractor3"")",Gesundheit,salama,d,NA,NA,NA,NA,NA,NA,NA,NA,NA,NA,NA,NA,NA,NA,NA,NA,NA,NA,NA,NA,NA,NA,NA,NA,NA,NA
a3e80,deep,flow.Sequence,1_1_5_0,NA,NA,skipped,NA,116328.6,NA,NA,116323.191,116328.7,2023-10-17T15:38:15Z,116339.857,"c(""distractor1"", ""distractor2"", ""distractor3"")",Kritik,lawama,s,dereva,nafasi,mawazo,NA,NA,NA,NA,NA,NA,NA,NA,NA,NA,NA,NA,NA,NA,NA,NA,NA,NA,NA,NA,NA,NA,NA
a3e80,Shallow Question,html.Page,1_1_5_1_0,NA,NA,form submission,7406.3429999999,116328.9,116323.191,116339.857,123746.2,123746.4,2023-10-17T15:38:23Z,123773.485,"c(""distractor1"", ""distractor2"", ""distractor3"")",Kritik,lawama,s,dereva,nafasi,mawazo,mawazo,NA,NA,NA,NA,NA,NA,NA,NA,NA,NA,NA,NA,NA,NA,NA,NA,NA,NA,NA,NA,NA,NA
a3e80,"""Richtig""-Screen",canvas.Screen,1_1_5_1_1,NA,NA,skipped,NA,123749.1,NA,NA,123746.2,123749.3,2023-10-17T15:38:23Z,123773.485,"c(""distractor1"", ""distractor2"", ""distractor3"")",Kritik,lawama,s,dereva,nafasi,mawazo,NA,NA,NA,NA,NA,NA,NA,NA,NA,NA,NA,NA,NA,NA,NA,NA,NA,NA,NA,NA,NA,NA,NA
a3e80,"""Falsch""-Screen",canvas.Screen,1_1_5_1_2,NA,NA,timeout,4999.8,123749.8,123756.819,123773.485,128756.619,128761.6,2023-10-17T15:38:28Z,128773.285,"c(""distractor1"", ""distractor2"", ""distractor3"")",Kritik,lawama,s,dereva,nafasi,mawazo,NA,NA,0,NA,NA,NA,NA,NA,NA,NA,NA,NA,NA,NA,NA,NA,NA,NA,NA,NA,NA,NA,NA
a3e80,shallow,flow.Sequence,1_1_5_1,NA,NA,completion,12416.762,116328.9,116323.191,116339.857,128756.619,128762.1,2023-10-17T15:38:28Z,128773.285,"c(""distractor1"", ""distractor2"", ""distractor3"")",Kritik,lawama,s,dereva,nafasi,mawazo,NA,NA,NA,NA,NA,NA,NA,NA,NA,NA,NA,NA,NA,NA,NA,NA,NA,NA,NA,NA,NA,NA,NA
a3e80,task,flow.Sequence,1_1_5,NA,NA,completion,12416.762,116328.5,116323.191,116339.857,128756.619,128762.2,2023-10-17T15:38:28Z,128773.285,"c(""distractor1"", ""distractor2"", ""distractor3"")",Kritik,lawama,s,dereva,nafasi,mawazo,NA,NA,NA,NA,NA,NA,NA,NA,NA,NA,NA,NA,NA,NA,NA,NA,NA,NA,NA,NA,NA,NA,NA
a3e80,block,flow.Loop,1_1,NA,NA,completion,88684.286,40056.7,40055.667,40072.333,128756.619,128762.6,2023-10-17T15:38:28Z,128773.285,"c(""distractor1"", ""distractor2"", ""distractor3"")",NA,NA,NA,NA,NA,NA,NA,NA,NA,NA,NA,NA,NA,NA,NA,NA,NA,NA,NA,NA,NA,NA,NA,NA,NA,NA,NA,NA,NA
a3e80,Practice,flow.Sequence,1,NA,NA,completion,90352.925,38391.5,38387.028,38403.694,128756.619,128762.8,2023-10-17T15:38:28Z,128773.285,NULL,NA,NA,NA,NA,NA,NA,NA,NA,NA,NA,NA,NA,NA,NA,NA,NA,NA,NA,NA,NA,NA,NA,NA,NA,NA,NA,NA,NA,NA
a3e80,Experiment start,canvas.Screen,2,weiter,keypress(q),response,140739.315,128763,128756.619,128773.285,269512.6,269519.2,2023-10-17T15:40:49Z,269567.653,NULL,NA,NA,NA,NA,NA,NA,NA,NA,NA,NA,NA,NA,NA,NA,NA,NA,NA,NA,NA,NA,NA,NA,NA,NA,NA,NA,NA,NA,NA
a3e80,Deep Question,html.Page,3_0_0_0_0_0_0,NA,NA,form submission,6706.847,269560,269550.987,269567.653,276274.5,276274.8,2023-10-17T15:40:55Z,276275.098,NULL,Symbol,kielezo,d,NA,NA,NA,d,NA,NA,0,NA,NA,NA,NA,NA,NA,NA,NA,NA,NA,NA,NA,NA,NA,NA,NA,NA,NA,NA
a3e80,"""Richtig""-Screen",canvas.Screen,3_0_0_0_0_0_1,NA,NA,skipped,NA,276276.8,NA,NA,276274.5,276276.9,2023-10-17T15:40:55Z,276275.098,NULL,Symbol,kielezo,d,NA,NA,NA,NA,sdf,NA,0,NA,NA,NA,NA,NA,NA,NA,NA,NA,NA,NA,NA,NA,NA,NA,NA,NA,NA,NA
a3e80,"""Falsch""-Screen",canvas.Screen,3_0_0_0_0_0_2,NA,NA,timeout,5000.365,276277.4,276258.432,276275.098,281258.797,281263.3,2023-10-17T15:41:00Z,281275.463,NULL,Symbol,kielezo,d,NA,NA,NA,NA,sdf,0,0,NA,NA,NA,NA,NA,NA,NA,NA,NA,NA,NA,NA,NA,NA,NA,NA,NA,NA,NA
a3e80,deep,flow.Sequence,3_0_0_0_0_0,NA,NA,completion,11691.144,269560,269550.987,269567.653,281258.797,281263.7,2023-10-17T15:41:00Z,281275.463,NULL,Symbol,kielezo,d,NA,NA,NA,NA,sdf,NA,0,NA,NA,NA,NA,NA,NA,NA,NA,NA,NA,NA,NA,NA,NA,NA,NA,NA,NA,NA
a3e80,shallow,flow.Sequence,3_0_0_0_0_1,NA,NA,skipped,NA,281263.8,NA,NA,281258.797,281264,2023-10-17T15:41:00Z,281275.463,NULL,Symbol,kielezo,d,NA,NA,NA,NA,sdf,NA,0,NA,NA,NA,NA,NA,NA,NA,NA,NA,NA,NA,NA,NA,NA,NA,NA,NA,NA,NA
a3e80,task,flow.Sequence,3_0_0_0_0,NA,NA,completion,11691.144,269560,269550.987,269567.653,281258.797,281264,2023-10-17T15:41:00Z,281275.463,NULL,Symbol,kielezo,d,NA,NA,NA,NA,sdf,NA,0,NA,NA,NA,NA,NA,NA,NA,NA,NA,NA,NA,NA,NA,NA,NA,NA,NA,NA,NA
a3e80,deep,flow.Sequence,3_0_0_0_1_0,NA,NA,skipped,NA,281264.2,NA,NA,281258.797,281264.3,2023-10-17T15:41:00Z,281275.463,NULL,Lawine,banguko,s,maambukizi,usuluhishi,chekechea,NA,sdf,NA,0,NA,NA,NA,NA,NA,NA,NA,NA,NA,NA,NA,NA,NA,NA,NA,NA,NA,NA,NA
a3e80,Shallow Question,html.Page,3_0_0_0_1_1_0,NA,NA,form submission,6573.537,281264.5,281258.797,281275.463,287849,287849.3,2023-10-17T15:41:07Z,287875.199,NULL,Lawine,banguko,s,maambukizi,usuluhishi,chekechea,usuluhishi,NA,NA,0,NA,NA,NA,NA,NA,NA,NA,NA,NA,NA,NA,NA,NA,NA,NA,NA,NA,NA,NA
a3e80,"""Richtig""-Screen",canvas.Screen,3_0_0_0_1_1_1,NA,NA,skipped,NA,287852.4,NA,NA,287849,287852.5,2023-10-17T15:41:07Z,287875.199,NULL,Lawine,banguko,s,maambukizi,usuluhishi,chekechea,NA,sdf,NA,0,NA,NA,NA,NA,NA,NA,NA,NA,NA,NA,NA,NA,NA,NA,NA,NA,NA,NA,NA
a3e80,"""Falsch""-Screen",canvas.Screen,3_0_0_0_1_1_2,NA,NA,timeout,5000.197,287853.1,287858.533,287875.199,292858.73,292863.3,2023-10-17T15:41:12Z,292875.396,NULL,Lawine,banguko,s,maambukizi,usuluhishi,chekechea,NA,sdf,0,0,NA,NA,NA,NA,NA,NA,NA,NA,NA,NA,NA,NA,NA,NA,NA,NA,NA,NA,NA
a3e80,shallow,flow.Sequence,3_0_0_0_1_1,NA,NA,completion,11583.267,281264.4,281258.797,281275.463,292858.73,292863.6,2023-10-17T15:41:12Z,292875.396,NULL,Lawine,banguko,s,maambukizi,usuluhishi,chekechea,NA,sdf,NA,0,NA,NA,NA,NA,NA,NA,NA,NA,NA,NA,NA,NA,NA,NA,NA,NA,NA,NA,NA
a3e80,task,flow.Sequence,3_0_0_0_1,NA,NA,completion,11583.267,281264.2,281258.797,281275.463,292858.73,292863.7,2023-10-17T15:41:12Z,292875.396,NULL,Lawine,banguko,s,maambukizi,usuluhishi,chekechea,NA,sdf,NA,0,NA,NA,NA,NA,NA,NA,NA,NA,NA,NA,NA,NA,NA,NA,NA,NA,NA,NA,NA
a3e80,deep,flow.Sequence,3_0_0_0_2_0,NA,NA,skipped,NA,292863.9,NA,NA,292858.73,292864,2023-10-17T15:41:12Z,292875.396,NULL,System,maongozi,s,chokochoko,nuksani,mitaani,NA,sdf,NA,0,NA,NA,NA,NA,NA,NA,NA,NA,NA,NA,NA,NA,NA,NA,NA,NA,NA,NA,NA
a3e80,Shallow Question,html.Page,3_0_0_0_2_1_0,NA,NA,form submission,8956.604,292864.1,292858.73,292875.396,301832,301832.3,2023-10-17T15:41:21Z,301858.37,NULL,System,maongozi,s,chokochoko,nuksani,mitaani,maongozi,NA,NA,0,NA,NA,NA,NA,NA,NA,NA,NA,NA,NA,NA,NA,NA,NA,NA,NA,NA,NA,NA
a3e80,"""Richtig""-Screen",canvas.Screen,3_0_0_0_2_1_1,NA,NA,timeout,5000.532,301835,301841.704,301858.37,306842.236,306846.7,2023-10-17T15:41:26Z,306858.902,NULL,System,maongozi,s,chokochoko,nuksani,mitaani,NA,sdf,1,0,NA,NA,NA,NA,NA,NA,NA,NA,NA,NA,NA,NA,NA,NA,NA,NA,NA,NA,NA
a3e80,"""Falsch""-Screen",canvas.Screen,3_0_0_0_2_1_2,NA,NA,skipped,NA,306851.1,NA,NA,306842.236,306851.3,2023-10-17T15:41:26Z,306858.902,NULL,System,maongozi,s,chokochoko,nuksani,mitaani,NA,sdf,NA,0,NA,NA,NA,NA,NA,NA,NA,NA,NA,NA,NA,NA,NA,NA,NA,NA,NA,NA,NA
a3e80,shallow,flow.Sequence,3_0_0_0_2_1,NA,NA,completion,13966.84,292864.1,292858.73,292875.396,306842.236,306851.4,2023-10-17T15:41:26Z,306858.902,NULL,System,maongozi,s,chokochoko,nuksani,mitaani,NA,sdf,NA,0,NA,NA,NA,NA,NA,NA,NA,NA,NA,NA,NA,NA,NA,NA,NA,NA,NA,NA,NA
a3e80,task,flow.Sequence,3_0_0_0_2,NA,NA,completion,13966.84,292863.9,292858.73,292875.396,306842.236,306851.5,2023-10-17T15:41:26Z,306858.902,NULL,System,maongozi,s,chokochoko,nuksani,mitaani,NA,sdf,NA,0,NA,NA,NA,NA,NA,NA,NA,NA,NA,NA,NA,NA,NA,NA,NA,NA,NA,NA,NA
a3e80,deep,flow.Sequence,3_0_0_0_3_0,NA,NA,skipped,NA,306851.7,NA,NA,306842.236,306851.8,2023-10-17T15:41:26Z,306858.902,NULL,Vorsorge,tahadhari,s,ufafanuzi,makini,mashambani,NA,sdf,NA,0,NA,NA,NA,NA,NA,NA,NA,NA,NA,NA,NA,NA,NA,NA,NA,NA,NA,NA,NA
a3e80,Shallow Question,html.Page,3_0_0_0_3_1_0,NA,NA,form submission,6439.598,306851.9,306842.236,306858.902,313298.5,313298.7,2023-10-17T15:41:32Z,313325.818,NULL,Vorsorge,tahadhari,s,ufafanuzi,makini,mashambani,mashambani,NA,NA,0,NA,NA,NA,NA,NA,NA,NA,NA,NA,NA,NA,NA,NA,NA,NA,NA,NA,NA,NA
a3e80,"""Richtig""-Screen",canvas.Screen,3_0_0_0_3_1_1,NA,NA,skipped,NA,313301.2,NA,NA,313298.5,313301.3,2023-10-17T15:41:32Z,313325.818,NULL,Vorsorge,tahadhari,s,ufafanuzi,makini,mashambani,NA,sdf,NA,0,NA,NA,NA,NA,NA,NA,NA,NA,NA,NA,NA,NA,NA,NA,NA,NA,NA,NA,NA
a3e80,"""Falsch""-Screen",canvas.Screen,3_0_0_0_3_1_2,NA,NA,timeout,4999.8,313301.9,313309.152,313325.818,318308.952,318314.4,2023-10-17T15:41:37Z,318325.618,NULL,Vorsorge,tahadhari,s,ufafanuzi,makini,mashambani,NA,sdf,0,0,NA,NA,NA,NA,NA,NA,NA,NA,NA,NA,NA,NA,NA,NA,NA,NA,NA,NA,NA
a3e80,shallow,flow.Sequence,3_0_0_0_3_1,NA,NA,completion,11450.05,306851.9,306842.236,306858.902,318308.952,318314.9,2023-10-17T15:41:37Z,318325.618,NULL,Vorsorge,tahadhari,s,ufafanuzi,makini,mashambani,NA,sdf,NA,0,NA,NA,NA,NA,NA,NA,NA,NA,NA,NA,NA,NA,NA,NA,NA,NA,NA,NA,NA
a3e80,task,flow.Sequence,3_0_0_0_3,NA,NA,completion,11450.05,306851.7,306842.236,306858.902,318308.952,318315,2023-10-17T15:41:37Z,318325.618,NULL,Vorsorge,tahadhari,s,ufafanuzi,makini,mashambani,NA,sdf,NA,0,NA,NA,NA,NA,NA,NA,NA,NA,NA,NA,NA,NA,NA,NA,NA,NA,NA,NA,NA
a3e80,Deep Question,html.Page,3_0_0_0_4_0_0,NA,NA,form submission,4215.4819999998,318315.2,318308.952,318325.618,322541.1,322541.3,2023-10-17T15:41:42Z,322542.116,NULL,Körper,kiwiliwili,d,NA,NA,NA,b,NA,NA,0,NA,NA,NA,NA,NA,NA,NA,NA,NA,NA,NA,NA,NA,NA,NA,NA,NA,NA,NA
a3e80,"""Richtig""-Screen",canvas.Screen,3_0_0_0_4_0_1,NA,NA,skipped,NA,322543.5,NA,NA,322541.1,322543.5,2023-10-17T15:41:42Z,322542.116,NULL,Körper,kiwiliwili,d,NA,NA,NA,NA,sdf,NA,0,NA,NA,NA,NA,NA,NA,NA,NA,NA,NA,NA,NA,NA,NA,NA,NA,NA,NA,NA
a3e80,"""Falsch""-Screen",canvas.Screen,3_0_0_0_4_0_2,NA,NA,timeout,5000.377,322544,322525.45,322542.116,327525.827,327529.9,2023-10-17T15:41:47Z,327542.493,NULL,Körper,kiwiliwili,d,NA,NA,NA,NA,sdf,0,0,NA,NA,NA,NA,NA,NA,NA,NA,NA,NA,NA,NA,NA,NA,NA,NA,NA,NA,NA
a3e80,deep,flow.Sequence,3_0_0_0_4_0,NA,NA,completion,9200.209,318315.2,318308.952,318325.618,327525.827,327530.3,2023-10-17T15:41:47Z,327542.493,NULL,Körper,kiwiliwili,d,NA,NA,NA,NA,sdf,NA,0,NA,NA,NA,NA,NA,NA,NA,NA,NA,NA,NA,NA,NA,NA,NA,NA,NA,NA,NA
a3e80,shallow,flow.Sequence,3_0_0_0_4_1,NA,NA,skipped,NA,327530.5,NA,NA,327525.827,327530.6,2023-10-17T15:41:47Z,327542.493,NULL,Körper,kiwiliwili,d,NA,NA,NA,NA,sdf,NA,0,NA,NA,NA,NA,NA,NA,NA,NA,NA,NA,NA,NA,NA,NA,NA,NA,NA,NA,NA
a3e80,task,flow.Sequence,3_0_0_0_4,NA,NA,completion,9200.209,318315.1,318308.952,318325.618,327525.827,327530.7,2023-10-17T15:41:47Z,327542.493,NULL,Körper,kiwiliwili,d,NA,NA,NA,NA,sdf,NA,0,NA,NA,NA,NA,NA,NA,NA,NA,NA,NA,NA,NA,NA,NA,NA,NA,NA,NA,NA
a3e80,Deep Question,html.Page,3_0_0_0_5_0_0,NA,NA,form submission,3866.9069999999,327530.9,327525.827,327542.493,331409.4,331409.6,2023-10-17T15:41:50Z,331409.005,NULL,Übersicht,kilindo,d,NA,NA,NA,d,NA,NA,0,NA,NA,NA,NA,NA,NA,NA,NA,NA,NA,NA,NA,NA,NA,NA,NA,NA,NA,NA
a3e80,"""Richtig""-Screen",canvas.Screen,3_0_0_0_5_0_1,NA,NA,skipped,NA,331411.8,NA,NA,331409.4,331411.8,2023-10-17T15:41:50Z,331409.005,NULL,Übersicht,kilindo,d,NA,NA,NA,NA,sdf,NA,0,NA,NA,NA,NA,NA,NA,NA,NA,NA,NA,NA,NA,NA,NA,NA,NA,NA,NA,NA
a3e80,"""Falsch""-Screen",canvas.Screen,3_0_0_0_5_0_2,NA,NA,timeout,5000.378,331412.3,331392.339,331409.005,336392.717,336397.8,2023-10-17T15:41:55Z,336409.383,NULL,Übersicht,kilindo,d,NA,NA,NA,NA,sdf,0,0,NA,NA,NA,NA,NA,NA,NA,NA,NA,NA,NA,NA,NA,NA,NA,NA,NA,NA,NA
a3e80,deep,flow.Sequence,3_0_0_0_5_0,NA,NA,completion,8850.224,327530.9,327525.827,327542.493,336392.717,336398.3,2023-10-17T15:41:55Z,336409.383,NULL,Übersicht,kilindo,d,NA,NA,NA,NA,sdf,NA,0,NA,NA,NA,NA,NA,NA,NA,NA,NA,NA,NA,NA,NA,NA,NA,NA,NA,NA,NA
a3e80,shallow,flow.Sequence,3_0_0_0_5_1,NA,NA,skipped,NA,336398.4,NA,NA,336392.717,336398.5,2023-10-17T15:41:55Z,336409.383,NULL,Übersicht,kilindo,d,NA,NA,NA,NA,sdf,NA,0,NA,NA,NA,NA,NA,NA,NA,NA,NA,NA,NA,NA,NA,NA,NA,NA,NA,NA,NA
a3e80,task,flow.Sequence,3_0_0_0_5,NA,NA,completion,8850.224,327530.8,327525.827,327542.493,336392.717,336398.6,2023-10-17T15:41:55Z,336409.383,NULL,Übersicht,kilindo,d,NA,NA,NA,NA,sdf,NA,0,NA,NA,NA,NA,NA,NA,NA,NA,NA,NA,NA,NA,NA,NA,NA,NA,NA,NA,NA
a3e80,deep,flow.Sequence,3_0_0_0_6_0,NA,NA,skipped,NA,336398.8,NA,NA,336392.717,336398.8,2023-10-17T15:41:55Z,336409.383,NULL,Konkurrent,mshindani,s,msemaji,mvutaji,kipukusa,NA,sdf,NA,0,NA,NA,NA,NA,NA,NA,NA,NA,NA,NA,NA,NA,NA,NA,NA,NA,NA,NA,NA
a3e80,Shallow Question,html.Page,3_0_0_0_6_1_0,NA,NA,form submission,6789.5169999999,336399,336392.717,336409.383,343198.9,343199.2,2023-10-17T15:42:02Z,343225.777,NULL,Konkurrent,mshindani,s,msemaji,mvutaji,kipukusa,kipukusa,NA,NA,0,NA,NA,NA,NA,NA,NA,NA,NA,NA,NA,NA,NA,NA,NA,NA,NA,NA,NA,NA
a3e80,"""Richtig""-Screen",canvas.Screen,3_0_0_0_6_1_1,NA,NA,skipped,NA,343201.8,NA,NA,343198.9,343201.8,2023-10-17T15:42:02Z,343225.777,NULL,Konkurrent,mshindani,s,msemaji,mvutaji,kipukusa,NA,sdf,NA,0,NA,NA,NA,NA,NA,NA,NA,NA,NA,NA,NA,NA,NA,NA,NA,NA,NA,NA,NA
a3e80,"""Falsch""-Screen",canvas.Screen,3_0_0_0_6_1_2,NA,NA,timeout,5000.305,343202.4,343209.111,343225.777,348209.416,348213.5,2023-10-17T15:42:07Z,348226.082,NULL,Konkurrent,mshindani,s,msemaji,mvutaji,kipukusa,NA,sdf,0,0,NA,NA,NA,NA,NA,NA,NA,NA,NA,NA,NA,NA,NA,NA,NA,NA,NA,NA,NA
a3e80,shallow,flow.Sequence,3_0_0_0_6_1,NA,NA,completion,11800.033,336398.9,336392.717,336409.383,348209.416,348213.8,2023-10-17T15:42:07Z,348226.082,NULL,Konkurrent,mshindani,s,msemaji,mvutaji,kipukusa,NA,sdf,NA,0,NA,NA,NA,NA,NA,NA,NA,NA,NA,NA,NA,NA,NA,NA,NA,NA,NA,NA,NA
a3e80,task,flow.Sequence,3_0_0_0_6,NA,NA,completion,11800.033,336398.8,336392.717,336409.383,348209.416,348214,2023-10-17T15:42:07Z,348226.082,NULL,Konkurrent,mshindani,s,msemaji,mvutaji,kipukusa,NA,sdf,NA,0,NA,NA,NA,NA,NA,NA,NA,NA,NA,NA,NA,NA,NA,NA,NA,NA,NA,NA,NA
a3e80,Deep Question,html.Page,3_0_0_0_7_0_0,NA,NA,form submission,4248.3179999999,348214.3,348209.416,348226.082,352474.4,352474.6,2023-10-17T15:42:11Z,352475.912,NULL,Zuwachs,nyongeza,d,NA,NA,NA,dd,NA,NA,0,NA,NA,NA,NA,NA,NA,NA,NA,NA,NA,NA,NA,NA,NA,NA,NA,NA,NA,NA
a3e80,"""Richtig""-Screen",canvas.Screen,3_0_0_0_7_0_1,NA,NA,skipped,NA,352476.8,NA,NA,352474.4,352477,2023-10-17T15:42:11Z,352475.912,NULL,Zuwachs,nyongeza,d,NA,NA,NA,NA,sdf,NA,0,NA,NA,NA,NA,NA,NA,NA,NA,NA,NA,NA,NA,NA,NA,NA,NA,NA,NA,NA
a3e80,"""Falsch""-Screen",canvas.Screen,3_0_0_0_7_0_2,NA,NA,timeout,4999.8,352477.3,352459.246,352475.912,357459.046,357463.8,2023-10-17T15:42:16Z,357475.712,NULL,Zuwachs,nyongeza,d,NA,NA,NA,NA,sdf,0,0,NA,NA,NA,NA,NA,NA,NA,NA,NA,NA,NA,NA,NA,NA,NA,NA,NA,NA,NA
a3e80,deep,flow.Sequence,3_0_0_0_7_0,NA,NA,completion,9232.964,348214.2,348209.416,348226.082,357459.046,357464,2023-10-17T15:42:16Z,357475.712,NULL,Zuwachs,nyongeza,d,NA,NA,NA,NA,sdf,NA,0,NA,NA,NA,NA,NA,NA,NA,NA,NA,NA,NA,NA,NA,NA,NA,NA,NA,NA,NA
a3e80,shallow,flow.Sequence,3_0_0_0_7_1,NA,NA,skipped,NA,357464.1,NA,NA,357459.046,357464.1,2023-10-17T15:42:16Z,357475.712,NULL,Zuwachs,nyongeza,d,NA,NA,NA,NA,sdf,NA,0,NA,NA,NA,NA,NA,NA,NA,NA,NA,NA,NA,NA,NA,NA,NA,NA,NA,NA,NA
a3e80,task,flow.Sequence,3_0_0_0_7,NA,NA,completion,9232.964,348214.1,348209.416,348226.082,357459.046,357464.2,2023-10-17T15:42:16Z,357475.712,NULL,Zuwachs,nyongeza,d,NA,NA,NA,NA,sdf,NA,0,NA,NA,NA,NA,NA,NA,NA,NA,NA,NA,NA,NA,NA,NA,NA,NA,NA,NA,NA
a3e80,block,flow.Loop,3_0_0_0,NA,NA,completion,87891.393,269560,269550.987,269567.653,357459.046,357464.3,2023-10-17T15:42:16Z,357475.712,NULL,NA,NA,NA,NA,NA,NA,NA,sdf,NA,0,NA,NA,NA,NA,NA,NA,NA,NA,NA,NA,NA,NA,NA,NA,NA,NA,NA,NA,NA
a3e80,weiter,canvas.Screen,3_0_0_1,sdf,keypress(Space),response,1070.3879999999,357464.4,357459.046,357475.712,358546.1,358550.2,2023-10-17T15:42:18Z,358576.404,NULL,NA,NA,NA,NA,NA,NA,NA,sdf,NA,0,NA,NA,NA,NA,NA,NA,NA,NA,NA,NA,NA,NA,NA,NA,NA,NA,NA,NA,NA
a3e80,check continue,flow.Sequence,3_0_0,NA,NA,completion,88978.447,269560,269550.987,269567.653,358546.1,358550.5,2023-10-17T15:42:18Z,358576.404,NULL,NA,NA,NA,NA,NA,NA,NA,sdf,NA,0,NA,NA,NA,NA,NA,NA,NA,NA,NA,NA,NA,NA,NA,NA,NA,NA,NA,NA,NA
a3e80,deep,flow.Sequence,3_0_1_0_0_0,NA,NA,skipped,NA,358575.1,NA,NA,358546.1,358575.2,2023-10-17T15:42:18Z,358576.404,NULL,Vorsorge,tahadhari,s,ufafanuzi,makini,mashambani,NA,sdfdsf,NA,1,NA,NA,NA,NA,NA,NA,NA,NA,NA,NA,NA,NA,NA,NA,NA,NA,NA,NA,NA
a3e80,Shallow Question,html.Page,3_0_1_0_0_1_0,NA,NA,form submission,5590.596,358575.3,358543.072,358576.404,364167,364167.5,2023-10-17T15:42:23Z,364192.846,NULL,Vorsorge,tahadhari,s,ufafanuzi,makini,mashambani,tahadhari,NA,NA,1,NA,NA,NA,NA,NA,NA,NA,NA,NA,NA,NA,NA,NA,NA,NA,NA,NA,NA,NA
a3e80,"""Richtig""-Screen",canvas.Screen,3_0_1_0_0_1_1,NA,NA,timeout,5000.163,364170.4,364176.18,364192.846,369176.343,369177.7,2023-10-17T15:42:28Z,369193.009,NULL,Vorsorge,tahadhari,s,ufafanuzi,makini,mashambani,NA,sdfdsf,1,1,NA,NA,NA,NA,NA,NA,NA,NA,NA,NA,NA,NA,NA,NA,NA,NA,NA,NA,NA
a3e80,"""Falsch""-Screen",canvas.Screen,3_0_1_0_0_1_2,NA,NA,skipped,NA,369182,NA,NA,369176.343,369182.2,2023-10-17T15:42:28Z,369193.009,NULL,Vorsorge,tahadhari,s,ufafanuzi,makini,mashambani,NA,sdfdsf,NA,1,NA,NA,NA,NA,NA,NA,NA,NA,NA,NA,NA,NA,NA,NA,NA,NA,NA,NA,NA
a3e80,shallow,flow.Sequence,3_0_1_0_0_1,NA,NA,completion,10599.939,358575.3,358543.072,358576.404,369176.343,369182.4,2023-10-17T15:42:28Z,369193.009,NULL,Vorsorge,tahadhari,s,ufafanuzi,makini,mashambani,NA,sdfdsf,NA,1,NA,NA,NA,NA,NA,NA,NA,NA,NA,NA,NA,NA,NA,NA,NA,NA,NA,NA,NA
a3e80,task,flow.Sequence,3_0_1_0_0,NA,NA,completion,10599.939,358575.1,358543.072,358576.404,369176.343,369182.6,2023-10-17T15:42:28Z,369193.009,NULL,Vorsorge,tahadhari,s,ufafanuzi,makini,mashambani,NA,sdfdsf,NA,1,NA,NA,NA,NA,NA,NA,NA,NA,NA,NA,NA,NA,NA,NA,NA,NA,NA,NA,NA
a3e80,Deep Question,html.Page,3_0_1_0_1_0_0,NA,NA,form submission,4714.5909999998,369182.7,369176.343,369193.009,373907.6,373907.9,2023-10-17T15:42:33Z,373909.487,NULL,Übersicht,kilindo,d,NA,NA,NA,d,NA,NA,1,NA,NA,NA,NA,NA,NA,NA,NA,NA,NA,NA,NA,NA,NA,NA,NA,NA,NA,NA
a3e80,"""Richtig""-Screen",canvas.Screen,3_0_1_0_1_0_1,NA,NA,skipped,NA,373909.9,NA,NA,373907.6,373909.9,2023-10-17T15:42:33Z,373909.487,NULL,Übersicht,kilindo,d,NA,NA,NA,NA,sdfdsf,NA,1,NA,NA,NA,NA,NA,NA,NA,NA,NA,NA,NA,NA,NA,NA,NA,NA,NA,NA,NA
a3e80,"""Falsch""-Screen",canvas.Screen,3_0_1_0_1_0_2,NA,NA,timeout,5000.31,373910.4,373892.821,373909.487,378893.131,378897.8,2023-10-17T15:42:38Z,378909.797,NULL,Übersicht,kilindo,d,NA,NA,NA,NA,sdfdsf,0,1,NA,NA,NA,NA,NA,NA,NA,NA,NA,NA,NA,NA,NA,NA,NA,NA,NA,NA,NA
a3e80,deep,flow.Sequence,3_0_1_0_1_0,NA,NA,completion,9700.122,369182.7,369176.343,369193.009,378893.131,378898.3,2023-10-17T15:42:38Z,378909.797,NULL,Übersicht,kilindo,d,NA,NA,NA,NA,sdfdsf,NA,1,NA,NA,NA,NA,NA,NA,NA,NA,NA,NA,NA,NA,NA,NA,NA,NA,NA,NA,NA
a3e80,shallow,flow.Sequence,3_0_1_0_1_1,NA,NA,skipped,NA,378898.5,NA,NA,378893.131,378898.6,2023-10-17T15:42:38Z,378909.797,NULL,Übersicht,kilindo,d,NA,NA,NA,NA,sdfdsf,NA,1,NA,NA,NA,NA,NA,NA,NA,NA,NA,NA,NA,NA,NA,NA,NA,NA,NA,NA,NA
a3e80,task,flow.Sequence,3_0_1_0_1,NA,NA,completion,9700.122,369182.6,369176.343,369193.009,378893.131,378898.7,2023-10-17T15:42:38Z,378909.797,NULL,Übersicht,kilindo,d,NA,NA,NA,NA,sdfdsf,NA,1,NA,NA,NA,NA,NA,NA,NA,NA,NA,NA,NA,NA,NA,NA,NA,NA,NA,NA,NA
a3e80,Deep Question,html.Page,3_0_1_0_2_0_0,NA,NA,form submission,3927.4029999999,378898.9,378893.131,378909.797,382837.2,382837.8,2023-10-17T15:42:42Z,382842.973,NULL,Symbol,kielezo,d,NA,NA,NA,d,NA,NA,1,NA,NA,NA,NA,NA,NA,NA,NA,NA,NA,NA,NA,NA,NA,NA,NA,NA,NA,NA
a3e80,"""Richtig""-Screen",canvas.Screen,3_0_1_0_2_0_1,NA,NA,skipped,NA,382840.2,NA,NA,382837.2,382840.4,2023-10-17T15:42:42Z,382842.973,NULL,Symbol,kielezo,d,NA,NA,NA,NA,sdfdsf,NA,1,NA,NA,NA,NA,NA,NA,NA,NA,NA,NA,NA,NA,NA,NA,NA,NA,NA,NA,NA
a3e80,"""Falsch""-Screen",canvas.Screen,3_0_1_0_2_0_2,NA,NA,timeout,4999.8,382841.2,382826.307,382842.973,387826.107,387831.1,2023-10-17T15:42:47Z,387842.773,NULL,Symbol,kielezo,d,NA,NA,NA,NA,sdfdsf,0,1,NA,NA,NA,NA,NA,NA,NA,NA,NA,NA,NA,NA,NA,NA,NA,NA,NA,NA,NA
a3e80,deep,flow.Sequence,3_0_1_0_2_0,NA,NA,completion,8916.31,378898.8,378893.131,378909.797,387826.107,387831.6,2023-10-17T15:42:47Z,387842.773,NULL,Symbol,kielezo,d,NA,NA,NA,NA,sdfdsf,NA,1,NA,NA,NA,NA,NA,NA,NA,NA,NA,NA,NA,NA,NA,NA,NA,NA,NA,NA,NA
a3e80,shallow,flow.Sequence,3_0_1_0_2_1,NA,NA,skipped,NA,387831.8,NA,NA,387826.107,387831.9,2023-10-17T15:42:47Z,387842.773,NULL,Symbol,kielezo,d,NA,NA,NA,NA,sdfdsf,NA,1,NA,NA,NA,NA,NA,NA,NA,NA,NA,NA,NA,NA,NA,NA,NA,NA,NA,NA,NA
a3e80,task,flow.Sequence,3_0_1_0_2,NA,NA,completion,8916.31,378898.8,378893.131,378909.797,387826.107,387832.1,2023-10-17T15:42:47Z,387842.773,NULL,Symbol,kielezo,d,NA,NA,NA,NA,sdfdsf,NA,1,NA,NA,NA,NA,NA,NA,NA,NA,NA,NA,NA,NA,NA,NA,NA,NA,NA,NA,NA
a3e80,deep,flow.Sequence,3_0_1_0_3_0,NA,NA,skipped,NA,387832.2,NA,NA,387826.107,387832.4,2023-10-17T15:42:47Z,387842.773,NULL,Konkurrent,mshindani,s,msemaji,mvutaji,kipukusa,NA,sdfdsf,NA,1,NA,NA,NA,NA,NA,NA,NA,NA,NA,NA,NA,NA,NA,NA,NA,NA,NA,NA,NA
a3e80,Shallow Question,html.Page,3_0_1_0_3_1_0,NA,NA,form submission,6056.727,387832.6,387826.107,387842.773,393899.5,393899.8,2023-10-17T15:42:53Z,393926.592,NULL,Konkurrent,mshindani,s,msemaji,mvutaji,kipukusa,mshindani,NA,NA,1,NA,NA,NA,NA,NA,NA,NA,NA,NA,NA,NA,NA,NA,NA,NA,NA,NA,NA,NA
a3e80,"""Richtig""-Screen",canvas.Screen,3_0_1_0_3_1_1,NA,NA,timeout,5000.117,393902.4,393909.926,393926.592,398910.043,398915.7,2023-10-17T15:42:58Z,398926.709,NULL,Konkurrent,mshindani,s,msemaji,mvutaji,kipukusa,NA,sdfdsf,1,1,NA,NA,NA,NA,NA,NA,NA,NA,NA,NA,NA,NA,NA,NA,NA,NA,NA,NA,NA
a3e80,"""Falsch""-Screen",canvas.Screen,3_0_1_0_3_1_2,NA,NA,skipped,NA,398920.1,NA,NA,398910.043,398920.2,2023-10-17T15:42:58Z,398926.709,NULL,Konkurrent,mshindani,s,msemaji,mvutaji,kipukusa,NA,sdfdsf,NA,1,NA,NA,NA,NA,NA,NA,NA,NA,NA,NA,NA,NA,NA,NA,NA,NA,NA,NA,NA
a3e80,shallow,flow.Sequence,3_0_1_0_3_1,NA,NA,completion,11067.27,387832.5,387826.107,387842.773,398910.043,398920.5,2023-10-17T15:42:58Z,398926.709,NULL,Konkurrent,mshindani,s,msemaji,mvutaji,kipukusa,NA,sdfdsf,NA,1,NA,NA,NA,NA,NA,NA,NA,NA,NA,NA,NA,NA,NA,NA,NA,NA,NA,NA,NA
a3e80,task,flow.Sequence,3_0_1_0_3,NA,NA,completion,11067.27,387832.2,387826.107,387842.773,398910.043,398920.6,2023-10-17T15:42:58Z,398926.709,NULL,Konkurrent,mshindani,s,msemaji,mvutaji,kipukusa,NA,sdfdsf,NA,1,NA,NA,NA,NA,NA,NA,NA,NA,NA,NA,NA,NA,NA,NA,NA,NA,NA,NA,NA
a3e80,deep,flow.Sequence,3_0_1_0_4_0,NA,NA,skipped,NA,398920.7,NA,NA,398910.043,398920.8,2023-10-17T15:42:58Z,398926.709,NULL,System,maongozi,s,chokochoko,nuksani,mitaani,NA,sdfdsf,NA,1,NA,NA,NA,NA,NA,NA,NA,NA,NA,NA,NA,NA,NA,NA,NA,NA,NA,NA,NA
a3e80,Shallow Question,html.Page,3_0_1_0_4_1_0,NA,NA,form submission,12123.091,398920.9,398910.043,398926.709,411049.8,411050.1,2023-10-17T15:43:10Z,411077,NULL,System,maongozi,s,chokochoko,nuksani,mitaani,maongozi,NA,NA,1,NA,NA,NA,NA,NA,NA,NA,NA,NA,NA,NA,NA,NA,NA,NA,NA,NA,NA,NA
a3e80,"""Richtig""-Screen",canvas.Screen,3_0_1_0_4_1_1,NA,NA,timeout,4999.8,411052.6,411060.334,411077,416060.134,416065.1,2023-10-17T15:43:15Z,416076.8,NULL,System,maongozi,s,chokochoko,nuksani,mitaani,NA,sdfdsf,1,1,NA,NA,NA,NA,NA,NA,NA,NA,NA,NA,NA,NA,NA,NA,NA,NA,NA,NA,NA
a3e80,"""Falsch""-Screen",canvas.Screen,3_0_1_0_4_1_2,NA,NA,skipped,NA,416069,NA,NA,416060.134,416069.3,2023-10-17T15:43:15Z,416076.8,NULL,System,maongozi,s,chokochoko,nuksani,mitaani,NA,sdfdsf,NA,1,NA,NA,NA,NA,NA,NA,NA,NA,NA,NA,NA,NA,NA,NA,NA,NA,NA,NA,NA
a3e80,shallow,flow.Sequence,3_0_1_0_4_1,NA,NA,completion,17133.425,398920.8,398910.043,398926.709,416060.134,416069.5,2023-10-17T15:43:15Z,416076.8,NULL,System,maongozi,s,chokochoko,nuksani,mitaani,NA,sdfdsf,NA,1,NA,NA,NA,NA,NA,NA,NA,NA,NA,NA,NA,NA,NA,NA,NA,NA,NA,NA,NA
a3e80,task,flow.Sequence,3_0_1_0_4,NA,NA,completion,17133.425,398920.7,398910.043,398926.709,416060.134,416069.6,2023-10-17T15:43:15Z,416076.8,NULL,System,maongozi,s,chokochoko,nuksani,mitaani,NA,sdfdsf,NA,1,NA,NA,NA,NA,NA,NA,NA,NA,NA,NA,NA,NA,NA,NA,NA,NA,NA,NA,NA
a3e80,Deep Question,html.Page,3_0_1_0_5_0_0,NA,NA,form submission,7304.4999999998,416069.8,416060.134,416076.8,423381.3,423381.6,2023-10-17T15:43:22Z,423393.711,NULL,Körper,kiwiliwili,d,NA,NA,NA,kiwililli,NA,NA,1,NA,NA,NA,NA,NA,NA,NA,NA,NA,NA,NA,NA,NA,NA,NA,NA,NA,NA,NA
a3e80,"""Richtig""-Screen",canvas.Screen,3_0_1_0_5_0_1,NA,NA,skipped,NA,423384.1,NA,NA,423381.3,423384.2,2023-10-17T15:43:22Z,423393.711,NULL,Körper,kiwiliwili,d,NA,NA,NA,NA,sdfdsf,NA,1,NA,NA,NA,NA,NA,NA,NA,NA,NA,NA,NA,NA,NA,NA,NA,NA,NA,NA,NA
a3e80,"""Falsch""-Screen",canvas.Screen,3_0_1_0_5_0_2,NA,NA,timeout,4999.8,423385.1,423377.045,423393.711,428376.845,428381.6,2023-10-17T15:43:27Z,428393.511,NULL,Körper,kiwiliwili,d,NA,NA,NA,NA,sdfdsf,0,1,NA,NA,NA,NA,NA,NA,NA,NA,NA,NA,NA,NA,NA,NA,NA,NA,NA,NA,NA
a3e80,deep,flow.Sequence,3_0_1_0_5_0,NA,NA,completion,12300.045,416069.8,416060.134,416076.8,428376.845,428382.1,2023-10-17T15:43:27Z,428393.511,NULL,Körper,kiwiliwili,d,NA,NA,NA,NA,sdfdsf,NA,1,NA,NA,NA,NA,NA,NA,NA,NA,NA,NA,NA,NA,NA,NA,NA,NA,NA,NA,NA
a3e80,shallow,flow.Sequence,3_0_1_0_5_1,NA,NA,skipped,NA,428382.2,NA,NA,428376.845,428382.3,2023-10-17T15:43:27Z,428393.511,NULL,Körper,kiwiliwili,d,NA,NA,NA,NA,sdfdsf,NA,1,NA,NA,NA,NA,NA,NA,NA,NA,NA,NA,NA,NA,NA,NA,NA,NA,NA,NA,NA
a3e80,task,flow.Sequence,3_0_1_0_5,NA,NA,completion,12300.045,416069.7,416060.134,416076.8,428376.845,428382.5,2023-10-17T15:43:27Z,428393.511,NULL,Körper,kiwiliwili,d,NA,NA,NA,NA,sdfdsf,NA,1,NA,NA,NA,NA,NA,NA,NA,NA,NA,NA,NA,NA,NA,NA,NA,NA,NA,NA,NA
a3e80,deep,flow.Sequence,3_0_1_0_6_0,NA,NA,skipped,NA,428382.7,NA,NA,428376.845,428382.8,2023-10-17T15:43:27Z,428393.511,NULL,Lawine,banguko,s,maambukizi,usuluhishi,chekechea,NA,sdfdsf,NA,1,NA,NA,NA,NA,NA,NA,NA,NA,NA,NA,NA,NA,NA,NA,NA,NA,NA,NA,NA
a3e80,Shallow Question,html.Page,3_0_1_0_6_1_0,NA,NA,form submission,9243.3889999999,428382.9,428376.845,428393.511,437636.9,437637.4,2023-10-17T15:43:37Z,437643.619,NULL,Lawine,banguko,s,maambukizi,usuluhishi,chekechea,banguko,NA,NA,1,NA,NA,NA,NA,NA,NA,NA,NA,NA,NA,NA,NA,NA,NA,NA,NA,NA,NA,NA
a3e80,"""Richtig""-Screen",canvas.Screen,3_0_1_0_6_1_1,NA,NA,timeout,5000.295,437641,437626.953,437643.619,442627.248,442630.1,2023-10-17T15:43:42Z,442643.914,NULL,Lawine,banguko,s,maambukizi,usuluhishi,chekechea,NA,sdfdsf,1,1,NA,NA,NA,NA,NA,NA,NA,NA,NA,NA,NA,NA,NA,NA,NA,NA,NA,NA,NA
a3e80,"""Falsch""-Screen",canvas.Screen,3_0_1_0_6_1_2,NA,NA,skipped,NA,442633.2,NA,NA,442627.248,442633.5,2023-10-17T15:43:42Z,442643.914,NULL,Lawine,banguko,s,maambukizi,usuluhishi,chekechea,NA,sdfdsf,NA,1,NA,NA,NA,NA,NA,NA,NA,NA,NA,NA,NA,NA,NA,NA,NA,NA,NA,NA,NA
a3e80,shallow,flow.Sequence,3_0_1_0_6_1,NA,NA,completion,14233.737,428382.9,428376.845,428393.511,442627.248,442633.5,2023-10-17T15:43:42Z,442643.914,NULL,Lawine,banguko,s,maambukizi,usuluhishi,chekechea,NA,sdfdsf,NA,1,NA,NA,NA,NA,NA,NA,NA,NA,NA,NA,NA,NA,NA,NA,NA,NA,NA,NA,NA
a3e80,task,flow.Sequence,3_0_1_0_6,NA,NA,completion,14233.737,428382.6,428376.845,428393.511,442627.248,442633.7,2023-10-17T15:43:42Z,442643.914,NULL,Lawine,banguko,s,maambukizi,usuluhishi,chekechea,NA,sdfdsf,NA,1,NA,NA,NA,NA,NA,NA,NA,NA,NA,NA,NA,NA,NA,NA,NA,NA,NA,NA,NA
a3e80,Deep Question,html.Page,3_0_1_0_7_0_0,NA,NA,form submission,3932.1859999999,442633.8,442627.248,442643.914,446576.1,446576.3,2023-10-17T15:43:46Z,446577.09,NULL,Zuwachs,nyongeza,d,NA,NA,NA,d,NA,NA,1,NA,NA,NA,NA,NA,NA,NA,NA,NA,NA,NA,NA,NA,NA,NA,NA,NA,NA,NA
a3e80,"""Richtig""-Screen",canvas.Screen,3_0_1_0_7_0_1,NA,NA,skipped,NA,446578.6,NA,NA,446576.1,446578.7,2023-10-17T15:43:46Z,446577.09,NULL,Zuwachs,nyongeza,d,NA,NA,NA,NA,sdfdsf,NA,1,NA,NA,NA,NA,NA,NA,NA,NA,NA,NA,NA,NA,NA,NA,NA,NA,NA,NA,NA
a3e80,"""Falsch""-Screen",canvas.Screen,3_0_1_0_7_0_2,NA,NA,timeout,4999.8,446579.2,446560.424,446577.09,451560.224,451565.2,2023-10-17T15:43:51Z,451576.89,NULL,Zuwachs,nyongeza,d,NA,NA,NA,NA,sdfdsf,0,1,NA,NA,NA,NA,NA,NA,NA,NA,NA,NA,NA,NA,NA,NA,NA,NA,NA,NA,NA
a3e80,deep,flow.Sequence,3_0_1_0_7_0,NA,NA,completion,8916.31,442633.8,442627.248,442643.914,451560.224,451565.6,2023-10-17T15:43:51Z,451576.89,NULL,Zuwachs,nyongeza,d,NA,NA,NA,NA,sdfdsf,NA,1,NA,NA,NA,NA,NA,NA,NA,NA,NA,NA,NA,NA,NA,NA,NA,NA,NA,NA,NA
a3e80,shallow,flow.Sequence,3_0_1_0_7_1,NA,NA,skipped,NA,451565.6,NA,NA,451560.224,451565.8,2023-10-17T15:43:51Z,451576.89,NULL,Zuwachs,nyongeza,d,NA,NA,NA,NA,sdfdsf,NA,1,NA,NA,NA,NA,NA,NA,NA,NA,NA,NA,NA,NA,NA,NA,NA,NA,NA,NA,NA
a3e80,task,flow.Sequence,3_0_1_0_7,NA,NA,completion,8916.31,442633.8,442627.248,442643.914,451560.224,451566,2023-10-17T15:43:51Z,451576.89,NULL,Zuwachs,nyongeza,d,NA,NA,NA,NA,sdfdsf,NA,1,NA,NA,NA,NA,NA,NA,NA,NA,NA,NA,NA,NA,NA,NA,NA,NA,NA,NA,NA
a3e80,block,flow.Loop,3_0_1_0,NA,NA,completion,92983.82,358575.1,358543.072,358576.404,451560.224,451566.2,2023-10-17T15:43:51Z,451576.89,NULL,NA,NA,NA,NA,NA,NA,NA,sdfdsf,NA,1,NA,NA,NA,NA,NA,NA,NA,NA,NA,NA,NA,NA,NA,NA,NA,NA,NA,NA,NA
a3e80,weiter,canvas.Screen,3_0_1_1,sdf,keypress(Space),response,1290.9099999998,451566.3,451560.224,451576.89,452867.8,452871.7,2023-10-17T15:43:52Z,452894.222,NULL,NA,NA,NA,NA,NA,NA,NA,sdfdsf,NA,1,NA,NA,NA,NA,NA,NA,NA,NA,NA,NA,NA,NA,NA,NA,NA,NA,NA,NA,NA
a3e80,check continue,flow.Sequence,3_0_1,NA,NA,completion,94291.396,358575.1,358543.072,358576.404,452867.8,452872,2023-10-17T15:43:52Z,452894.222,NULL,NA,NA,NA,NA,NA,NA,NA,sdfdsf,NA,1,NA,NA,NA,NA,NA,NA,NA,NA,NA,NA,NA,NA,NA,NA,NA,NA,NA,NA,NA
a3e80,deep,flow.Sequence,3_0_2_0_0_0,NA,NA,skipped,NA,452896,NA,NA,452867.8,452896.1,2023-10-17T15:43:52Z,452894.222,NULL,Lawine,banguko,s,maambukizi,usuluhishi,chekechea,NA,sdf,NA,2,NA,NA,NA,NA,NA,NA,NA,NA,NA,NA,NA,NA,NA,NA,NA,NA,NA,NA,NA
a3e80,Shallow Question,html.Page,3_0_2_0_0_1_0,NA,NA,form submission,3726.5779999998,452896.2,452860.89,452894.222,456620.8,456621.3,2023-10-17T15:43:56Z,456627.406,NULL,Lawine,banguko,s,maambukizi,usuluhishi,chekechea,banguko,NA,NA,2,NA,NA,NA,NA,NA,NA,NA,NA,NA,NA,NA,NA,NA,NA,NA,NA,NA,NA,NA
a3e80,"""Richtig""-Screen",canvas.Screen,3_0_2_0_0_1_1,NA,NA,timeout,4999.8,456623.4,456610.74,456627.406,461610.54,461614.8,2023-10-17T15:44:01Z,461627.206,NULL,Lawine,banguko,s,maambukizi,usuluhishi,chekechea,NA,sdf,1,2,NA,NA,NA,NA,NA,NA,NA,NA,NA,NA,NA,NA,NA,NA,NA,NA,NA,NA,NA
a3e80,"""Falsch""-Screen",canvas.Screen,3_0_2_0_0_1_2,NA,NA,skipped,NA,461618.4,NA,NA,461610.54,461618.6,2023-10-17T15:44:01Z,461627.206,NULL,Lawine,banguko,s,maambukizi,usuluhishi,chekechea,NA,sdf,NA,2,NA,NA,NA,NA,NA,NA,NA,NA,NA,NA,NA,NA,NA,NA,NA,NA,NA,NA,NA
a3e80,shallow,flow.Sequence,3_0_2_0_0_1,NA,NA,completion,8716.318,452896.1,452860.89,452894.222,461610.54,461618.7,2023-10-17T15:44:01Z,461627.206,NULL,Lawine,banguko,s,maambukizi,usuluhishi,chekechea,NA,sdf,NA,2,NA,NA,NA,NA,NA,NA,NA,NA,NA,NA,NA,NA,NA,NA,NA,NA,NA,NA,NA
a3e80,task,flow.Sequence,3_0_2_0_0,NA,NA,completion,8716.318,452896,452860.89,452894.222,461610.54,461618.8,2023-10-17T15:44:01Z,461627.206,NULL,Lawine,banguko,s,maambukizi,usuluhishi,chekechea,NA,sdf,NA,2,NA,NA,NA,NA,NA,NA,NA,NA,NA,NA,NA,NA,NA,NA,NA,NA,NA,NA,NA
a3e80,deep,flow.Sequence,3_0_2_0_1_0,NA,NA,skipped,NA,461618.9,NA,NA,461610.54,461618.9,2023-10-17T15:44:01Z,461627.206,NULL,System,maongozi,s,chokochoko,nuksani,mitaani,NA,sdf,NA,2,NA,NA,NA,NA,NA,NA,NA,NA,NA,NA,NA,NA,NA,NA,NA,NA,NA,NA,NA
a3e80,Shallow Question,html.Page,3_0_2_0_1_1_0,NA,NA,form submission,7606.5939999998,461619.1,461610.54,461627.206,469233.8,469234,2023-10-17T15:44:08Z,469260.759,NULL,System,maongozi,s,chokochoko,nuksani,mitaani,maongozi,NA,NA,2,NA,NA,NA,NA,NA,NA,NA,NA,NA,NA,NA,NA,NA,NA,NA,NA,NA,NA,NA
a3e80,"""Richtig""-Screen",canvas.Screen,3_0_2_0_1_1_1,NA,NA,timeout,5000.21,469236.6,469244.093,469260.759,474244.303,474248.6,2023-10-17T15:44:13Z,474260.969,NULL,System,maongozi,s,chokochoko,nuksani,mitaani,NA,sdf,1,2,NA,NA,NA,NA,NA,NA,NA,NA,NA,NA,NA,NA,NA,NA,NA,NA,NA,NA,NA
a3e80,"""Falsch""-Screen",canvas.Screen,3_0_2_0_1_1_2,NA,NA,skipped,NA,474251.3,NA,NA,474244.303,474251.5,2023-10-17T15:44:13Z,474260.969,NULL,System,maongozi,s,chokochoko,nuksani,mitaani,NA,sdf,NA,2,NA,NA,NA,NA,NA,NA,NA,NA,NA,NA,NA,NA,NA,NA,NA,NA,NA,NA,NA
a3e80,shallow,flow.Sequence,3_0_2_0_1_1,NA,NA,completion,12617.097,461619.1,461610.54,461627.206,474244.303,474251.6,2023-10-17T15:44:13Z,474260.969,NULL,System,maongozi,s,chokochoko,nuksani,mitaani,NA,sdf,NA,2,NA,NA,NA,NA,NA,NA,NA,NA,NA,NA,NA,NA,NA,NA,NA,NA,NA,NA,NA
a3e80,task,flow.Sequence,3_0_2_0_1,NA,NA,completion,12617.097,461618.9,461610.54,461627.206,474244.303,474251.6,2023-10-17T15:44:13Z,474260.969,NULL,System,maongozi,s,chokochoko,nuksani,mitaani,NA,sdf,NA,2,NA,NA,NA,NA,NA,NA,NA,NA,NA,NA,NA,NA,NA,NA,NA,NA,NA,NA,NA
a3e80,deep,flow.Sequence,3_0_2_0_2_0,NA,NA,skipped,NA,474251.8,NA,NA,474244.303,474251.8,2023-10-17T15:44:13Z,474260.969,NULL,Vorsorge,tahadhari,s,ufafanuzi,makini,mashambani,NA,sdf,NA,2,NA,NA,NA,NA,NA,NA,NA,NA,NA,NA,NA,NA,NA,NA,NA,NA,NA,NA,NA
a3e80,Shallow Question,html.Page,3_0_2_0_2_1_0,NA,NA,form submission,6177.1309999999,474251.9,474244.303,474260.969,480438.1,480438.6,2023-10-17T15:44:19Z,480444.055,NULL,Vorsorge,tahadhari,s,ufafanuzi,makini,mashambani,tahadhari,NA,NA,2,NA,NA,NA,NA,NA,NA,NA,NA,NA,NA,NA,NA,NA,NA,NA,NA,NA,NA,NA
a3e80,"""Richtig""-Screen",canvas.Screen,3_0_2_0_2_1_1,NA,NA,timeout,5000.377,480440.6,480427.389,480444.055,485427.766,485430.6,2023-10-17T15:44:24Z,485444.432,NULL,Vorsorge,tahadhari,s,ufafanuzi,makini,mashambani,NA,sdf,1,2,NA,NA,NA,NA,NA,NA,NA,NA,NA,NA,NA,NA,NA,NA,NA,NA,NA,NA,NA
a3e80,"""Falsch""-Screen",canvas.Screen,3_0_2_0_2_1_2,NA,NA,skipped,NA,485434.7,NA,NA,485427.766,485434.8,2023-10-17T15:44:24Z,485444.432,NULL,Vorsorge,tahadhari,s,ufafanuzi,makini,mashambani,NA,sdf,NA,2,NA,NA,NA,NA,NA,NA,NA,NA,NA,NA,NA,NA,NA,NA,NA,NA,NA,NA,NA
a3e80,shallow,flow.Sequence,3_0_2_0_2_1,NA,NA,completion,11166.797,474251.9,474244.303,474260.969,485427.766,485435,2023-10-17T15:44:24Z,485444.432,NULL,Vorsorge,tahadhari,s,ufafanuzi,makini,mashambani,NA,sdf,NA,2,NA,NA,NA,NA,NA,NA,NA,NA,NA,NA,NA,NA,NA,NA,NA,NA,NA,NA,NA
a3e80,task,flow.Sequence,3_0_2_0_2,NA,NA,completion,11166.797,474251.7,474244.303,474260.969,485427.766,485435.1,2023-10-17T15:44:24Z,485444.432,NULL,Vorsorge,tahadhari,s,ufafanuzi,makini,mashambani,NA,sdf,NA,2,NA,NA,NA,NA,NA,NA,NA,NA,NA,NA,NA,NA,NA,NA,NA,NA,NA,NA,NA
a3e80,Deep Question,html.Page,3_0_2_0_3_0_0,NA,NA,form submission,6487.568,485435.2,485427.766,485444.432,491932,491932.5,2023-10-17T15:44:31Z,491944.172,NULL,Zuwachs,nyongeza,d,NA,NA,NA,nyongezi,NA,NA,2,NA,NA,NA,NA,NA,NA,NA,NA,NA,NA,NA,NA,NA,NA,NA,NA,NA,NA,NA
a3e80,"""Richtig""-Screen",canvas.Screen,3_0_2_0_3_0_1,NA,NA,skipped,NA,491935.9,NA,NA,491932,491936,2023-10-17T15:44:31Z,491944.172,NULL,Zuwachs,nyongeza,d,NA,NA,NA,NA,sdf,NA,2,NA,NA,NA,NA,NA,NA,NA,NA,NA,NA,NA,NA,NA,NA,NA,NA,NA,NA,NA
a3e80,"""Falsch""-Screen",canvas.Screen,3_0_2_0_3_0_2,NA,NA,timeout,5000.408,491936.7,491927.506,491944.172,496927.914,496932.6,2023-10-17T15:44:36Z,496944.58,NULL,Zuwachs,nyongeza,d,NA,NA,NA,NA,sdf,0,2,NA,NA,NA,NA,NA,NA,NA,NA,NA,NA,NA,NA,NA,NA,NA,NA,NA,NA,NA
a3e80,deep,flow.Sequence,3_0_2_0_3_0,NA,NA,completion,11483.482,485435.1,485427.766,485444.432,496927.914,496933,2023-10-17T15:44:36Z,496944.58,NULL,Zuwachs,nyongeza,d,NA,NA,NA,NA,sdf,NA,2,NA,NA,NA,NA,NA,NA,NA,NA,NA,NA,NA,NA,NA,NA,NA,NA,NA,NA,NA
a3e80,shallow,flow.Sequence,3_0_2_0_3_1,NA,NA,skipped,NA,496933,NA,NA,496927.914,496933.2,2023-10-17T15:44:36Z,496944.58,NULL,Zuwachs,nyongeza,d,NA,NA,NA,NA,sdf,NA,2,NA,NA,NA,NA,NA,NA,NA,NA,NA,NA,NA,NA,NA,NA,NA,NA,NA,NA,NA
a3e80,task,flow.Sequence,3_0_2_0_3,NA,NA,completion,11483.482,485435.1,485427.766,485444.432,496927.914,496933.4,2023-10-17T15:44:36Z,496944.58,NULL,Zuwachs,nyongeza,d,NA,NA,NA,NA,sdf,NA,2,NA,NA,NA,NA,NA,NA,NA,NA,NA,NA,NA,NA,NA,NA,NA,NA,NA,NA,NA
a3e80,deep,flow.Sequence,3_0_2_0_4_0,NA,NA,skipped,NA,496933.5,NA,NA,496927.914,496933.7,2023-10-17T15:44:36Z,496944.58,NULL,Konkurrent,mshindani,s,msemaji,mvutaji,kipukusa,NA,sdf,NA,2,NA,NA,NA,NA,NA,NA,NA,NA,NA,NA,NA,NA,NA,NA,NA,NA,NA,NA,NA
a3e80,Shallow Question,html.Page,3_0_2_0_4_1_0,NA,NA,form submission,5906.3199999999,496933.8,496927.914,496944.58,502850.9,502851.2,2023-10-17T15:44:42Z,502877.676,NULL,Konkurrent,mshindani,s,msemaji,mvutaji,kipukusa,mshindani,NA,NA,2,NA,NA,NA,NA,NA,NA,NA,NA,NA,NA,NA,NA,NA,NA,NA,NA,NA,NA,NA
a3e80,"""Richtig""-Screen",canvas.Screen,3_0_2_0_4_1_1,NA,NA,timeout,5000.369,502853.8,502861.01,502877.676,507861.379,507864.8,2023-10-17T15:44:47Z,507878.045,NULL,Konkurrent,mshindani,s,msemaji,mvutaji,kipukusa,NA,sdf,1,2,NA,NA,NA,NA,NA,NA,NA,NA,NA,NA,NA,NA,NA,NA,NA,NA,NA,NA,NA
a3e80,"""Falsch""-Screen",canvas.Screen,3_0_2_0_4_1_2,NA,NA,skipped,NA,507869.2,NA,NA,507861.379,507869.3,2023-10-17T15:44:47Z,507878.045,NULL,Konkurrent,mshindani,s,msemaji,mvutaji,kipukusa,NA,sdf,NA,2,NA,NA,NA,NA,NA,NA,NA,NA,NA,NA,NA,NA,NA,NA,NA,NA,NA,NA,NA
a3e80,shallow,flow.Sequence,3_0_2_0_4_1,NA,NA,completion,10916.799,496933.7,496927.914,496944.58,507861.379,507869.4,2023-10-17T15:44:47Z,507878.045,NULL,Konkurrent,mshindani,s,msemaji,mvutaji,kipukusa,NA,sdf,NA,2,NA,NA,NA,NA,NA,NA,NA,NA,NA,NA,NA,NA,NA,NA,NA,NA,NA,NA,NA
a3e80,task,flow.Sequence,3_0_2_0_4,NA,NA,completion,10916.799,496933.5,496927.914,496944.58,507861.379,507869.5,2023-10-17T15:44:47Z,507878.045,NULL,Konkurrent,mshindani,s,msemaji,mvutaji,kipukusa,NA,sdf,NA,2,NA,NA,NA,NA,NA,NA,NA,NA,NA,NA,NA,NA,NA,NA,NA,NA,NA,NA,NA
a3e80,Deep Question,html.Page,3_0_2_0_5_0_0,NA,NA,form submission,3306.0549999999,507869.7,507861.379,507878.045,511184.1,511184.3,2023-10-17T15:44:50Z,511211.245,NULL,Symbol,kielezo,d,NA,NA,NA,d,NA,NA,2,NA,NA,NA,NA,NA,NA,NA,NA,NA,NA,NA,NA,NA,NA,NA,NA,NA,NA,NA
a3e80,"""Richtig""-Screen",canvas.Screen,3_0_2_0_5_0_1,NA,NA,skipped,NA,511186.3,NA,NA,511184.1,511186.3,2023-10-17T15:44:50Z,511211.245,NULL,Symbol,kielezo,d,NA,NA,NA,NA,sdf,NA,2,NA,NA,NA,NA,NA,NA,NA,NA,NA,NA,NA,NA,NA,NA,NA,NA,NA,NA,NA
a3e80,"""Falsch""-Screen",canvas.Screen,3_0_2_0_5_0_2,NA,NA,timeout,4999.8,511186.7,511194.579,511211.245,516194.379,516199,2023-10-17T15:44:55Z,516211.045,NULL,Symbol,kielezo,d,NA,NA,NA,NA,sdf,0,2,NA,NA,NA,NA,NA,NA,NA,NA,NA,NA,NA,NA,NA,NA,NA,NA,NA,NA,NA
a3e80,deep,flow.Sequence,3_0_2_0_5_0,NA,NA,completion,8316.334,507869.7,507861.379,507878.045,516194.379,516199.4,2023-10-17T15:44:55Z,516211.045,NULL,Symbol,kielezo,d,NA,NA,NA,NA,sdf,NA,2,NA,NA,NA,NA,NA,NA,NA,NA,NA,NA,NA,NA,NA,NA,NA,NA,NA,NA,NA
a3e80,shallow,flow.Sequence,3_0_2_0_5_1,NA,NA,skipped,NA,516199.6,NA,NA,516194.379,516199.7,2023-10-17T15:44:55Z,516211.045,NULL,Symbol,kielezo,d,NA,NA,NA,NA,sdf,NA,2,NA,NA,NA,NA,NA,NA,NA,NA,NA,NA,NA,NA,NA,NA,NA,NA,NA,NA,NA
a3e80,task,flow.Sequence,3_0_2_0_5,NA,NA,completion,8316.334,507869.7,507861.379,507878.045,516194.379,516199.8,2023-10-17T15:44:55Z,516211.045,NULL,Symbol,kielezo,d,NA,NA,NA,NA,sdf,NA,2,NA,NA,NA,NA,NA,NA,NA,NA,NA,NA,NA,NA,NA,NA,NA,NA,NA,NA,NA
a3e80,Deep Question,html.Page,3_0_2_0_6_0_0,NA,NA,form submission,5032.655,516200,516194.379,516211.045,521243.7,521244.2,2023-10-17T15:45:00Z,521244.936,NULL,Körper,kiwiliwili,d,NA,NA,NA,kiwiliwili,NA,NA,2,NA,NA,NA,NA,NA,NA,NA,NA,NA,NA,NA,NA,NA,NA,NA,NA,NA,NA,NA
a3e80,"""Richtig""-Screen",canvas.Screen,3_0_2_0_6_0_1,NA,NA,timeout,4999.8,521246.5,521228.27,521244.936,526228.07,526232.8,2023-10-17T15:45:05Z,526244.736,NULL,Körper,kiwiliwili,d,NA,NA,NA,NA,sdf,1,2,NA,NA,NA,NA,NA,NA,NA,NA,NA,NA,NA,NA,NA,NA,NA,NA,NA,NA,NA
a3e80,"""Falsch""-Screen",canvas.Screen,3_0_2_0_6_0_2,NA,NA,skipped,NA,526237.4,NA,NA,526228.07,526237.5,2023-10-17T15:45:05Z,526244.736,NULL,Körper,kiwiliwili,d,NA,NA,NA,NA,sdf,NA,2,NA,NA,NA,NA,NA,NA,NA,NA,NA,NA,NA,NA,NA,NA,NA,NA,NA,NA,NA
a3e80,deep,flow.Sequence,3_0_2_0_6_0,NA,NA,completion,10017.025,516200,516194.379,516211.045,526228.07,526237.7,2023-10-17T15:45:05Z,526244.736,NULL,Körper,kiwiliwili,d,NA,NA,NA,NA,sdf,NA,2,NA,NA,NA,NA,NA,NA,NA,NA,NA,NA,NA,NA,NA,NA,NA,NA,NA,NA,NA
a3e80,shallow,flow.Sequence,3_0_2_0_6_1,NA,NA,skipped,NA,526237.8,NA,NA,526228.07,526237.9,2023-10-17T15:45:05Z,526244.736,NULL,Körper,kiwiliwili,d,NA,NA,NA,NA,sdf,NA,2,NA,NA,NA,NA,NA,NA,NA,NA,NA,NA,NA,NA,NA,NA,NA,NA,NA,NA,NA
a3e80,task,flow.Sequence,3_0_2_0_6,NA,NA,completion,10017.025,516200,516194.379,516211.045,526228.07,526238,2023-10-17T15:45:05Z,526244.736,NULL,Körper,kiwiliwili,d,NA,NA,NA,NA,sdf,NA,2,NA,NA,NA,NA,NA,NA,NA,NA,NA,NA,NA,NA,NA,NA,NA,NA,NA,NA,NA
a3e80,Deep Question,html.Page,3_0_2_0_7_0_0,NA,NA,form submission,5475.764,526238.2,526228.07,526244.736,531720.5,531720.9,2023-10-17T15:45:11Z,531728.435,NULL,Übersicht,kilindo,d,NA,NA,NA,tanhari,NA,NA,2,NA,NA,NA,NA,NA,NA,NA,NA,NA,NA,NA,NA,NA,NA,NA,NA,NA,NA,NA
a3e80,"""Richtig""-Screen",canvas.Screen,3_0_2_0_7_0_1,NA,NA,skipped,NA,531723.8,NA,NA,531720.5,531723.9,2023-10-17T15:45:11Z,531728.435,NULL,Übersicht,kilindo,d,NA,NA,NA,NA,sdf,NA,2,NA,NA,NA,NA,NA,NA,NA,NA,NA,NA,NA,NA,NA,NA,NA,NA,NA,NA,NA
a3e80,"""Falsch""-Screen",canvas.Screen,3_0_2_0_7_0_2,NA,NA,timeout,4999.7999999999,531725.3,531711.769,531728.435,536711.569,536716,2023-10-17T15:45:16Z,536728.235,NULL,Übersicht,kilindo,d,NA,NA,NA,NA,sdf,0,2,NA,NA,NA,NA,NA,NA,NA,NA,NA,NA,NA,NA,NA,NA,NA,NA,NA,NA,NA
a3e80,deep,flow.Sequence,3_0_2_0_7_0,NA,NA,completion,10466.833,526238.1,526228.07,526244.736,536711.569,536716.4,2023-10-17T15:45:16Z,536728.235,NULL,Übersicht,kilindo,d,NA,NA,NA,NA,sdf,NA,2,NA,NA,NA,NA,NA,NA,NA,NA,NA,NA,NA,NA,NA,NA,NA,NA,NA,NA,NA
a3e80,shallow,flow.Sequence,3_0_2_0_7_1,NA,NA,skipped,NA,536716.6,NA,NA,536711.569,536716.7,2023-10-17T15:45:16Z,536728.235,NULL,Übersicht,kilindo,d,NA,NA,NA,NA,sdf,NA,2,NA,NA,NA,NA,NA,NA,NA,NA,NA,NA,NA,NA,NA,NA,NA,NA,NA,NA,NA
a3e80,task,flow.Sequence,3_0_2_0_7,NA,NA,completion,10466.833,526238.1,526228.07,526244.736,536711.569,536716.8,2023-10-17T15:45:16Z,536728.235,NULL,Übersicht,kilindo,d,NA,NA,NA,NA,sdf,NA,2,NA,NA,NA,NA,NA,NA,NA,NA,NA,NA,NA,NA,NA,NA,NA,NA,NA,NA,NA
a3e80,block,flow.Loop,3_0_2_0,NA,NA,completion,83817.347,452896,452860.89,452894.222,536711.569,536717.1,2023-10-17T15:45:16Z,536728.235,NULL,NA,NA,NA,NA,NA,NA,NA,sdf,NA,2,NA,NA,NA,NA,NA,NA,NA,NA,NA,NA,NA,NA,NA,NA,NA,NA,NA,NA,NA
a3e80,weiter,canvas.Screen,3_0_2_1,sdf,keypress(Space),response,764.96499999997,536717.7,536711.569,536728.235,537493.2,537496.9,2023-10-17T15:45:17Z,537528.203,NULL,NA,NA,NA,NA,NA,NA,NA,sdf,NA,2,NA,NA,NA,NA,NA,NA,NA,NA,NA,NA,NA,NA,NA,NA,NA,NA,NA,NA,NA
a3e80,check continue,flow.Sequence,3_0_2,NA,NA,completion,84598.978,452895.9,452860.89,452894.222,537493.2,537497.1,2023-10-17T15:45:17Z,537528.203,NULL,NA,NA,NA,NA,NA,NA,NA,sdf,NA,2,NA,NA,NA,NA,NA,NA,NA,NA,NA,NA,NA,NA,NA,NA,NA,NA,NA,NA,NA
a3e80,deep,flow.Sequence,3_0_3_0_0_0,NA,NA,skipped,NA,537522.7,NA,NA,537493.2,537522.7,2023-10-17T15:45:17Z,537528.203,NULL,Konkurrent,mshindani,s,msemaji,mvutaji,kipukusa,NA,qt,NA,3,NA,NA,NA,NA,NA,NA,NA,NA,NA,NA,NA,NA,NA,NA,NA,NA,NA,NA,NA
a3e80,Shallow Question,html.Page,3_0_3_0_0_1_0,NA,NA,form submission,3339.5969999998,537522.8,537511.537,537528.203,540867.8,540868.1,2023-10-17T15:45:20Z,540895.261,NULL,Konkurrent,mshindani,s,msemaji,mvutaji,kipukusa,mshindani,NA,NA,3,NA,NA,NA,NA,NA,NA,NA,NA,NA,NA,NA,NA,NA,NA,NA,NA,NA,NA,NA
a3e80,"""Richtig""-Screen",canvas.Screen,3_0_3_0_0_1_1,NA,NA,timeout,4999.7999999999,540868.8,540878.595,540895.261,545878.395,545882.7,2023-10-17T15:45:25Z,545895.061,NULL,Konkurrent,mshindani,s,msemaji,mvutaji,kipukusa,NA,qt,1,3,NA,NA,NA,NA,NA,NA,NA,NA,NA,NA,NA,NA,NA,NA,NA,NA,NA,NA,NA
a3e80,"""Falsch""-Screen",canvas.Screen,3_0_3_0_0_1_2,NA,NA,skipped,NA,545886.7,NA,NA,545878.395,545886.8,2023-10-17T15:45:25Z,545895.061,NULL,Konkurrent,mshindani,s,msemaji,mvutaji,kipukusa,NA,qt,NA,3,NA,NA,NA,NA,NA,NA,NA,NA,NA,NA,NA,NA,NA,NA,NA,NA,NA,NA,NA
a3e80,shallow,flow.Sequence,3_0_3_0_0_1,NA,NA,completion,8350.192,537522.8,537511.537,537528.203,545878.395,545886.9,2023-10-17T15:45:25Z,545895.061,NULL,Konkurrent,mshindani,s,msemaji,mvutaji,kipukusa,NA,qt,NA,3,NA,NA,NA,NA,NA,NA,NA,NA,NA,NA,NA,NA,NA,NA,NA,NA,NA,NA,NA
a3e80,task,flow.Sequence,3_0_3_0_0,NA,NA,completion,8350.192,537522.7,537511.537,537528.203,545878.395,545887,2023-10-17T15:45:25Z,545895.061,NULL,Konkurrent,mshindani,s,msemaji,mvutaji,kipukusa,NA,qt,NA,3,NA,NA,NA,NA,NA,NA,NA,NA,NA,NA,NA,NA,NA,NA,NA,NA,NA,NA,NA
a3e80,Deep Question,html.Page,3_0_3_0_1_0_0,NA,NA,form submission,5186.0389999999,545887.2,545878.395,545895.061,551081.1,551081.3,2023-10-17T15:45:30Z,551095.372,NULL,Symbol,kielezo,d,NA,NA,NA,ele,NA,NA,3,NA,NA,NA,NA,NA,NA,NA,NA,NA,NA,NA,NA,NA,NA,NA,NA,NA,NA,NA
a3e80,"""Richtig""-Screen",canvas.Screen,3_0_3_0_1_0_1,NA,NA,skipped,NA,551082.2,NA,NA,551081.1,551082.2,2023-10-17T15:45:30Z,551095.372,NULL,Symbol,kielezo,d,NA,NA,NA,NA,qt,NA,3,NA,NA,NA,NA,NA,NA,NA,NA,NA,NA,NA,NA,NA,NA,NA,NA,NA,NA,NA
a3e80,"""Falsch""-Screen",canvas.Screen,3_0_3_0_1_0_2,NA,NA,timeout,4999.8,551082.5,551078.706,551095.372,556078.506,556083,2023-10-17T15:45:35Z,556095.172,NULL,Symbol,kielezo,d,NA,NA,NA,NA,qt,0,3,NA,NA,NA,NA,NA,NA,NA,NA,NA,NA,NA,NA,NA,NA,NA,NA,NA,NA,NA
a3e80,deep,flow.Sequence,3_0_3_0_1_0,NA,NA,completion,10183.445,545887.2,545878.395,545895.061,556078.506,556083.4,2023-10-17T15:45:35Z,556095.172,NULL,Symbol,kielezo,d,NA,NA,NA,NA,qt,NA,3,NA,NA,NA,NA,NA,NA,NA,NA,NA,NA,NA,NA,NA,NA,NA,NA,NA,NA,NA
a3e80,shallow,flow.Sequence,3_0_3_0_1_1,NA,NA,skipped,NA,556083.5,NA,NA,556078.506,556083.6,2023-10-17T15:45:35Z,556095.172,NULL,Symbol,kielezo,d,NA,NA,NA,NA,qt,NA,3,NA,NA,NA,NA,NA,NA,NA,NA,NA,NA,NA,NA,NA,NA,NA,NA,NA,NA,NA
a3e80,task,flow.Sequence,3_0_3_0_1,NA,NA,completion,10183.445,545887.1,545878.395,545895.061,556078.506,556083.8,2023-10-17T15:45:35Z,556095.172,NULL,Symbol,kielezo,d,NA,NA,NA,NA,qt,NA,3,NA,NA,NA,NA,NA,NA,NA,NA,NA,NA,NA,NA,NA,NA,NA,NA,NA,NA,NA
a3e80,Deep Question,html.Page,3_0_3_0_2_0_0,NA,NA,form submission,5045.4279999998,556084,556078.506,556095.172,561140.6,561141,2023-10-17T15:45:40Z,561145.568,NULL,Übersicht,kilindo,d,NA,NA,NA,d,NA,NA,3,NA,NA,NA,NA,NA,NA,NA,NA,NA,NA,NA,NA,NA,NA,NA,NA,NA,NA,NA
a3e80,"""Richtig""-Screen",canvas.Screen,3_0_3_0_2_0_1,NA,NA,skipped,NA,561143.6,NA,NA,561140.6,561143.8,2023-10-17T15:45:40Z,561145.568,NULL,Übersicht,kilindo,d,NA,NA,NA,NA,qt,NA,3,NA,NA,NA,NA,NA,NA,NA,NA,NA,NA,NA,NA,NA,NA,NA,NA,NA,NA,NA
a3e80,"""Falsch""-Screen",canvas.Screen,3_0_3_0_2_0_2,NA,NA,timeout,4999.8,561144.7,561128.902,561145.568,566128.702,566132.9,2023-10-17T15:45:45Z,566145.368,NULL,Übersicht,kilindo,d,NA,NA,NA,NA,qt,0,3,NA,NA,NA,NA,NA,NA,NA,NA,NA,NA,NA,NA,NA,NA,NA,NA,NA,NA,NA
a3e80,deep,flow.Sequence,3_0_3_0_2_0,NA,NA,completion,10033.53,556084,556078.506,556095.172,566128.702,566133.4,2023-10-17T15:45:45Z,566145.368,NULL,Übersicht,kilindo,d,NA,NA,NA,NA,qt,NA,3,NA,NA,NA,NA,NA,NA,NA,NA,NA,NA,NA,NA,NA,NA,NA,NA,NA,NA,NA
a3e80,shallow,flow.Sequence,3_0_3_0_2_1,NA,NA,skipped,NA,566133.5,NA,NA,566128.702,566133.6,2023-10-17T15:45:45Z,566145.368,NULL,Übersicht,kilindo,d,NA,NA,NA,NA,qt,NA,3,NA,NA,NA,NA,NA,NA,NA,NA,NA,NA,NA,NA,NA,NA,NA,NA,NA,NA,NA
a3e80,task,flow.Sequence,3_0_3_0_2,NA,NA,completion,10033.53,556083.9,556078.506,556095.172,566128.702,566133.8,2023-10-17T15:45:45Z,566145.368,NULL,Übersicht,kilindo,d,NA,NA,NA,NA,qt,NA,3,NA,NA,NA,NA,NA,NA,NA,NA,NA,NA,NA,NA,NA,NA,NA,NA,NA,NA,NA
a3e80,Deep Question,html.Page,3_0_3_0_3_0_0,NA,NA,form submission,5070.632,566134,566128.702,566145.368,571216,571216.6,2023-10-17T15:45:50Z,571229.034,NULL,Zuwachs,nyongeza,d,NA,NA,NA,nyongeza,NA,NA,3,NA,NA,NA,NA,NA,NA,NA,NA,NA,NA,NA,NA,NA,NA,NA,NA,NA,NA,NA
a3e80,"""Richtig""-Screen",canvas.Screen,3_0_3_0_3_0_1,NA,NA,timeout,4999.8,571219.5,571212.368,571229.034,576212.168,576216.8,2023-10-17T15:45:55Z,576228.834,NULL,Zuwachs,nyongeza,d,NA,NA,NA,NA,qt,1,3,NA,NA,NA,NA,NA,NA,NA,NA,NA,NA,NA,NA,NA,NA,NA,NA,NA,NA,NA
a3e80,"""Falsch""-Screen",canvas.Screen,3_0_3_0_3_0_2,NA,NA,skipped,NA,576220.4,NA,NA,576212.168,576220.5,2023-10-17T15:45:55Z,576228.834,NULL,Zuwachs,nyongeza,d,NA,NA,NA,NA,qt,NA,3,NA,NA,NA,NA,NA,NA,NA,NA,NA,NA,NA,NA,NA,NA,NA,NA,NA,NA,NA
a3e80,deep,flow.Sequence,3_0_3_0_3_0,NA,NA,completion,10066.8,566134,566128.702,566145.368,576212.168,576220.6,2023-10-17T15:45:55Z,576228.834,NULL,Zuwachs,nyongeza,d,NA,NA,NA,NA,qt,NA,3,NA,NA,NA,NA,NA,NA,NA,NA,NA,NA,NA,NA,NA,NA,NA,NA,NA,NA,NA
a3e80,shallow,flow.Sequence,3_0_3_0_3_1,NA,NA,skipped,NA,576220.6,NA,NA,576212.168,576220.7,2023-10-17T15:45:55Z,576228.834,NULL,Zuwachs,nyongeza,d,NA,NA,NA,NA,qt,NA,3,NA,NA,NA,NA,NA,NA,NA,NA,NA,NA,NA,NA,NA,NA,NA,NA,NA,NA,NA
a3e80,task,flow.Sequence,3_0_3_0_3,NA,NA,completion,10066.8,566133.9,566128.702,566145.368,576212.168,576220.8,2023-10-17T15:45:55Z,576228.834,NULL,Zuwachs,nyongeza,d,NA,NA,NA,NA,qt,NA,3,NA,NA,NA,NA,NA,NA,NA,NA,NA,NA,NA,NA,NA,NA,NA,NA,NA,NA,NA
a3e80,deep,flow.Sequence,3_0_3_0_4_0,NA,NA,skipped,NA,576220.9,NA,NA,576212.168,576220.9,2023-10-17T15:45:55Z,576228.834,NULL,Vorsorge,tahadhari,s,ufafanuzi,makini,mashambani,NA,qt,NA,3,NA,NA,NA,NA,NA,NA,NA,NA,NA,NA,NA,NA,NA,NA,NA,NA,NA,NA,NA
a3e80,Shallow Question,html.Page,3_0_3_0_4_1_0,NA,NA,form submission,6189.666,576221,576212.168,576228.834,582418.5,582418.8,2023-10-17T15:46:01Z,582445.783,NULL,Vorsorge,tahadhari,s,ufafanuzi,makini,mashambani,tahadhari,NA,NA,3,NA,NA,NA,NA,NA,NA,NA,NA,NA,NA,NA,NA,NA,NA,NA,NA,NA,NA,NA
a3e80,"""Richtig""-Screen",canvas.Screen,3_0_3_0_4_1_1,NA,NA,timeout,4999.7999999999,582421.1,582429.117,582445.783,587428.917,587430.9,2023-10-17T15:46:06Z,587445.583,NULL,Vorsorge,tahadhari,s,ufafanuzi,makini,mashambani,NA,qt,1,3,NA,NA,NA,NA,NA,NA,NA,NA,NA,NA,NA,NA,NA,NA,NA,NA,NA,NA,NA
a3e80,"""Falsch""-Screen",canvas.Screen,3_0_3_0_4_1_2,NA,NA,skipped,NA,587435.5,NA,NA,587428.917,587435.6,2023-10-17T15:46:06Z,587445.583,NULL,Vorsorge,tahadhari,s,ufafanuzi,makini,mashambani,NA,qt,NA,3,NA,NA,NA,NA,NA,NA,NA,NA,NA,NA,NA,NA,NA,NA,NA,NA,NA,NA,NA
a3e80,shallow,flow.Sequence,3_0_3_0_4_1,NA,NA,completion,11200.083,576221,576212.168,576228.834,587428.917,587435.7,2023-10-17T15:46:06Z,587445.583,NULL,Vorsorge,tahadhari,s,ufafanuzi,makini,mashambani,NA,qt,NA,3,NA,NA,NA,NA,NA,NA,NA,NA,NA,NA,NA,NA,NA,NA,NA,NA,NA,NA,NA
a3e80,task,flow.Sequence,3_0_3_0_4,NA,NA,completion,11200.083,576220.9,576212.168,576228.834,587428.917,587435.8,2023-10-17T15:46:06Z,587445.583,NULL,Vorsorge,tahadhari,s,ufafanuzi,makini,mashambani,NA,qt,NA,3,NA,NA,NA,NA,NA,NA,NA,NA,NA,NA,NA,NA,NA,NA,NA,NA,NA,NA,NA
a3e80,deep,flow.Sequence,3_0_3_0_5_0,NA,NA,skipped,NA,587435.9,NA,NA,587428.917,587436,2023-10-17T15:46:06Z,587445.583,NULL,Lawine,banguko,s,maambukizi,usuluhishi,chekechea,NA,qt,NA,3,NA,NA,NA,NA,NA,NA,NA,NA,NA,NA,NA,NA,NA,NA,NA,NA,NA,NA,NA
a3e80,Shallow Question,html.Page,3_0_3_0_5_1_0,NA,NA,form submission,5189.7169999998,587436,587428.917,587445.583,592635.3,592635.7,2023-10-17T15:46:12Z,592662.563,NULL,Lawine,banguko,s,maambukizi,usuluhishi,chekechea,banguko,NA,NA,3,NA,NA,NA,NA,NA,NA,NA,NA,NA,NA,NA,NA,NA,NA,NA,NA,NA,NA,NA
a3e80,"""Richtig""-Screen",canvas.Screen,3_0_3_0_5_1_1,NA,NA,timeout,4999.8,592638.1,592645.897,592662.563,597645.697,597651.1,2023-10-17T15:46:17Z,597662.363,NULL,Lawine,banguko,s,maambukizi,usuluhishi,chekechea,NA,qt,1,3,NA,NA,NA,NA,NA,NA,NA,NA,NA,NA,NA,NA,NA,NA,NA,NA,NA,NA,NA
a3e80,"""Falsch""-Screen",canvas.Screen,3_0_3_0_5_1_2,NA,NA,skipped,NA,597654.8,NA,NA,597645.697,597654.9,2023-10-17T15:46:17Z,597662.363,NULL,Lawine,banguko,s,maambukizi,usuluhishi,chekechea,NA,qt,NA,3,NA,NA,NA,NA,NA,NA,NA,NA,NA,NA,NA,NA,NA,NA,NA,NA,NA,NA,NA
a3e80,shallow,flow.Sequence,3_0_3_0_5_1,NA,NA,completion,10200.114,587436,587428.917,587445.583,597645.697,597654.9,2023-10-17T15:46:17Z,597662.363,NULL,Lawine,banguko,s,maambukizi,usuluhishi,chekechea,NA,qt,NA,3,NA,NA,NA,NA,NA,NA,NA,NA,NA,NA,NA,NA,NA,NA,NA,NA,NA,NA,NA
a3e80,task,flow.Sequence,3_0_3_0_5,NA,NA,completion,10200.114,587435.8,587428.917,587445.583,597645.697,597655.1,2023-10-17T15:46:17Z,597662.363,NULL,Lawine,banguko,s,maambukizi,usuluhishi,chekechea,NA,qt,NA,3,NA,NA,NA,NA,NA,NA,NA,NA,NA,NA,NA,NA,NA,NA,NA,NA,NA,NA,NA
a3e80,Deep Question,html.Page,3_0_3_0_6_0_0,NA,NA,form submission,4713.2370000001,597655.2,597645.697,597662.363,602375.6,602376,2023-10-17T15:46:21Z,602396.025,NULL,Körper,kiwiliwili,d,NA,NA,NA,kiwiliwili,NA,NA,3,NA,NA,NA,NA,NA,NA,NA,NA,NA,NA,NA,NA,NA,NA,NA,NA,NA,NA,NA
a3e80,"""Richtig""-Screen",canvas.Screen,3_0_3_0_6_0_1,NA,NA,timeout,4999.7999999999,602378.7,602379.359,602396.025,607379.159,607383.4,2023-10-17T15:46:26Z,607395.825,NULL,Körper,kiwiliwili,d,NA,NA,NA,NA,qt,1,3,NA,NA,NA,NA,NA,NA,NA,NA,NA,NA,NA,NA,NA,NA,NA,NA,NA,NA,NA
a3e80,"""Falsch""-Screen",canvas.Screen,3_0_3_0_6_0_2,NA,NA,skipped,NA,607387,NA,NA,607379.159,607387.1,2023-10-17T15:46:26Z,607395.825,NULL,Körper,kiwiliwili,d,NA,NA,NA,NA,qt,NA,3,NA,NA,NA,NA,NA,NA,NA,NA,NA,NA,NA,NA,NA,NA,NA,NA,NA,NA,NA
a3e80,deep,flow.Sequence,3_0_3_0_6_0,NA,NA,completion,9716.796,597655.2,597645.697,597662.363,607379.159,607387.3,2023-10-17T15:46:26Z,607395.825,NULL,Körper,kiwiliwili,d,NA,NA,NA,NA,qt,NA,3,NA,NA,NA,NA,NA,NA,NA,NA,NA,NA,NA,NA,NA,NA,NA,NA,NA,NA,NA
a3e80,shallow,flow.Sequence,3_0_3_0_6_1,NA,NA,skipped,NA,607387.3,NA,NA,607379.159,607387.4,2023-10-17T15:46:26Z,607395.825,NULL,Körper,kiwiliwili,d,NA,NA,NA,NA,qt,NA,3,NA,NA,NA,NA,NA,NA,NA,NA,NA,NA,NA,NA,NA,NA,NA,NA,NA,NA,NA
a3e80,task,flow.Sequence,3_0_3_0_6,NA,NA,completion,9716.796,597655.1,597645.697,597662.363,607379.159,607387.5,2023-10-17T15:46:26Z,607395.825,NULL,Körper,kiwiliwili,d,NA,NA,NA,NA,qt,NA,3,NA,NA,NA,NA,NA,NA,NA,NA,NA,NA,NA,NA,NA,NA,NA,NA,NA,NA,NA
a3e80,deep,flow.Sequence,3_0_3_0_7_0,NA,NA,skipped,NA,607387.5,NA,NA,607379.159,607387.7,2023-10-17T15:46:26Z,607395.825,NULL,System,maongozi,s,chokochoko,nuksani,mitaani,NA,qt,NA,3,NA,NA,NA,NA,NA,NA,NA,NA,NA,NA,NA,NA,NA,NA,NA,NA,NA,NA,NA
a3e80,Shallow Question,html.Page,3_0_3_0_7_1_0,NA,NA,form submission,8506.575,607387.7,607379.159,607395.825,615902.4,615902.7,2023-10-17T15:46:35Z,615912.728,NULL,System,maongozi,s,chokochoko,nuksani,mitaani,maongozi,NA,NA,3,NA,NA,NA,NA,NA,NA,NA,NA,NA,NA,NA,NA,NA,NA,NA,NA,NA,NA,NA
a3e80,"""Richtig""-Screen",canvas.Screen,3_0_3_0_7_1_1,NA,NA,timeout,4999.8,615905.6,615896.062,615912.728,620895.862,620900.1,2023-10-17T15:46:40Z,620912.528,NULL,System,maongozi,s,chokochoko,nuksani,mitaani,NA,qt,1,3,NA,NA,NA,NA,NA,NA,NA,NA,NA,NA,NA,NA,NA,NA,NA,NA,NA,NA,NA
a3e80,"""Falsch""-Screen",canvas.Screen,3_0_3_0_7_1_2,NA,NA,skipped,NA,620904.4,NA,NA,620895.862,620904.5,2023-10-17T15:46:40Z,620912.528,NULL,System,maongozi,s,chokochoko,nuksani,mitaani,NA,qt,NA,3,NA,NA,NA,NA,NA,NA,NA,NA,NA,NA,NA,NA,NA,NA,NA,NA,NA,NA,NA
a3e80,shallow,flow.Sequence,3_0_3_0_7_1,NA,NA,completion,13500.037,607387.7,607379.159,607395.825,620895.862,620904.6,2023-10-17T15:46:40Z,620912.528,NULL,System,maongozi,s,chokochoko,nuksani,mitaani,NA,qt,NA,3,NA,NA,NA,NA,NA,NA,NA,NA,NA,NA,NA,NA,NA,NA,NA,NA,NA,NA,NA
a3e80,task,flow.Sequence,3_0_3_0_7,NA,NA,completion,13500.037,607387.5,607379.159,607395.825,620895.862,620904.7,2023-10-17T15:46:40Z,620912.528,NULL,System,maongozi,s,chokochoko,nuksani,mitaani,NA,qt,NA,3,NA,NA,NA,NA,NA,NA,NA,NA,NA,NA,NA,NA,NA,NA,NA,NA,NA,NA,NA
a3e80,block,flow.Loop,3_0_3_0,NA,NA,completion,83367.659,537522.6,537511.537,537528.203,620895.862,620904.8,2023-10-17T15:46:40Z,620912.528,NULL,NA,NA,NA,NA,NA,NA,NA,qt,NA,3,NA,NA,NA,NA,NA,NA,NA,NA,NA,NA,NA,NA,NA,NA,NA,NA,NA,NA,NA
a3e80,weiter,canvas.Screen,3_0_3_1,sdf,keypress(Space),response,884.17199999967,620904.9,620895.862,620912.528,621796.7,621800.1,2023-10-17T15:46:41Z,621996.295,NULL,NA,NA,NA,NA,NA,NA,NA,qt,NA,3,NA,NA,NA,NA,NA,NA,NA,NA,NA,NA,NA,NA,NA,NA,NA,NA,NA,NA,NA
a3e80,check continue,flow.Sequence,3_0_3,NA,NA,completion,84268.497,537522.6,537511.537,537528.203,621796.7,621800.5,2023-10-17T15:46:41Z,621996.295,NULL,NA,NA,NA,NA,NA,NA,NA,qt,NA,3,NA,NA,NA,NA,NA,NA,NA,NA,NA,NA,NA,NA,NA,NA,NA,NA,NA,NA,NA
a3e80,check continue,flow.Sequence,3_0_4,NA,NA,skipped,NA,621826.6,NA,NA,621796.7,621826.8,2023-10-17T15:46:41Z,621996.295,NULL,NA,NA,NA,NA,NA,NA,NA,sd,NA,4,NA,NA,NA,NA,NA,NA,NA,NA,NA,NA,NA,NA,NA,NA,NA,NA,NA,NA,NA
a3e80,check continue,flow.Sequence,3_0_5,NA,NA,skipped,NA,621841.2,NA,NA,621796.7,621841.3,2023-10-17T15:46:41Z,621996.295,NULL,NA,NA,NA,NA,NA,NA,NA,sdf,NA,5,NA,NA,NA,NA,NA,NA,NA,NA,NA,NA,NA,NA,NA,NA,NA,NA,NA,NA,NA
a3e80,check continue,flow.Sequence,3_0_6,NA,NA,skipped,NA,621852.7,NA,NA,621796.7,621852.7,2023-10-17T15:46:41Z,621996.295,NULL,NA,NA,NA,NA,NA,NA,NA,dfs,NA,6,NA,NA,NA,NA,NA,NA,NA,NA,NA,NA,NA,NA,NA,NA,NA,NA,NA,NA,NA
a3e80,check continue,flow.Sequence,3_0_7,NA,NA,skipped,NA,621862.5,NA,NA,621796.7,621862.5,2023-10-17T15:46:41Z,621996.295,NULL,NA,NA,NA,NA,NA,NA,NA,df,NA,7,NA,NA,NA,NA,NA,NA,NA,NA,NA,NA,NA,NA,NA,NA,NA,NA,NA,NA,NA
a3e80,check continue,flow.Sequence,3_0_8,NA,NA,skipped,NA,621870.6,NA,NA,621796.7,621870.6,2023-10-17T15:46:41Z,621996.295,NULL,NA,NA,NA,NA,NA,NA,NA,dfs,NA,8,NA,NA,NA,NA,NA,NA,NA,NA,NA,NA,NA,NA,NA,NA,NA,NA,NA,NA,NA
a3e80,check continue,flow.Sequence,3_0_9,NA,NA,skipped,NA,621878.1,NA,NA,621796.7,621878.2,2023-10-17T15:46:41Z,621996.295,NULL,NA,NA,NA,NA,NA,NA,NA,dsf,NA,9,NA,NA,NA,NA,NA,NA,NA,NA,NA,NA,NA,NA,NA,NA,NA,NA,NA,NA,NA
a3e80,check continue,flow.Sequence,3_0_10,NA,NA,skipped,NA,621885.1,NA,NA,621796.7,621885.2,2023-10-17T15:46:41Z,621996.295,NULL,NA,NA,NA,NA,NA,NA,NA,df,NA,10,NA,NA,NA,NA,NA,NA,NA,NA,NA,NA,NA,NA,NA,NA,NA,NA,NA,NA,NA
a3e80,check continue,flow.Sequence,3_0_11,NA,NA,skipped,NA,621891.8,NA,NA,621796.7,621891.9,2023-10-17T15:46:41Z,621996.295,NULL,NA,NA,NA,NA,NA,NA,NA,dfs,NA,11,NA,NA,NA,NA,NA,NA,NA,NA,NA,NA,NA,NA,NA,NA,NA,NA,NA,NA,NA
a3e80,check continue,flow.Sequence,3_0_12,NA,NA,skipped,NA,621898,NA,NA,621796.7,621898,2023-10-17T15:46:41Z,621996.295,NULL,NA,NA,NA,NA,NA,NA,NA,dsf,NA,12,NA,NA,NA,NA,NA,NA,NA,NA,NA,NA,NA,NA,NA,NA,NA,NA,NA,NA,NA
a3e80,check continue,flow.Sequence,3_0_13,NA,NA,skipped,NA,621904.5,NA,NA,621796.7,621904.5,2023-10-17T15:46:41Z,621996.295,NULL,NA,NA,NA,NA,NA,NA,NA,dsf,NA,13,NA,NA,NA,NA,NA,NA,NA,NA,NA,NA,NA,NA,NA,NA,NA,NA,NA,NA,NA
a3e80,check continue,flow.Sequence,3_0_14,NA,NA,skipped,NA,621910.8,NA,NA,621796.7,621910.9,2023-10-17T15:46:41Z,621996.295,NULL,NA,NA,NA,NA,NA,NA,NA,NA,NA,14,NA,NA,NA,NA,NA,NA,NA,NA,NA,NA,NA,NA,NA,NA,NA,NA,NA,NA,NA
a3e80,check continue,flow.Sequence,3_0_15,NA,NA,skipped,NA,621916.6,NA,NA,621796.7,621916.6,2023-10-17T15:46:41Z,621996.295,NULL,NA,NA,NA,NA,NA,NA,NA,NA,NA,15,NA,NA,NA,NA,NA,NA,NA,NA,NA,NA,NA,NA,NA,NA,NA,NA,NA,NA,NA
a3e80,check continue,flow.Sequence,3_0_16,NA,NA,skipped,NA,621924.5,NA,NA,621796.7,621924.5,2023-10-17T15:46:41Z,621996.295,NULL,NA,NA,NA,NA,NA,NA,NA,NA,NA,16,NA,NA,NA,NA,NA,NA,NA,NA,NA,NA,NA,NA,NA,NA,NA,NA,NA,NA,NA
a3e80,check continue,flow.Sequence,3_0_17,NA,NA,skipped,NA,621930.6,NA,NA,621796.7,621930.6,2023-10-17T15:46:41Z,621996.295,NULL,NA,NA,NA,NA,NA,NA,NA,NA,NA,17,NA,NA,NA,NA,NA,NA,NA,NA,NA,NA,NA,NA,NA,NA,NA,NA,NA,NA,NA
a3e80,check continue,flow.Sequence,3_0_18,NA,NA,skipped,NA,621936.2,NA,NA,621796.7,621936.3,2023-10-17T15:46:41Z,621996.295,NULL,NA,NA,NA,NA,NA,NA,NA,NA,NA,18,NA,NA,NA,NA,NA,NA,NA,NA,NA,NA,NA,NA,NA,NA,NA,NA,NA,NA,NA
a3e80,check continue,flow.Sequence,3_0_19,NA,NA,skipped,NA,621942.3,NA,NA,621796.7,621942.4,2023-10-17T15:46:41Z,621996.295,NULL,NA,NA,NA,NA,NA,NA,NA,NA,NA,19,NA,NA,NA,NA,NA,NA,NA,NA,NA,NA,NA,NA,NA,NA,NA,NA,NA,NA,NA
a3e80,check continue,flow.Sequence,3_0_20,NA,NA,skipped,NA,621947.9,NA,NA,621796.7,621947.9,2023-10-17T15:46:41Z,621996.295,NULL,NA,NA,NA,NA,NA,NA,NA,NA,NA,20,NA,NA,NA,NA,NA,NA,NA,NA,NA,NA,NA,NA,NA,NA,NA,NA,NA,NA,NA
a3e80,check continue,flow.Sequence,3_0_21,NA,NA,skipped,NA,621954,NA,NA,621796.7,621954.1,2023-10-17T15:46:41Z,621996.295,NULL,NA,NA,NA,NA,NA,NA,NA,NA,NA,21,NA,NA,NA,NA,NA,NA,NA,NA,NA,NA,NA,NA,NA,NA,NA,NA,NA,NA,NA
a3e80,check continue,flow.Sequence,3_0_22,NA,NA,skipped,NA,621960.2,NA,NA,621796.7,621960.2,2023-10-17T15:46:41Z,621996.295,NULL,NA,NA,NA,NA,NA,NA,NA,NA,NA,22,NA,NA,NA,NA,NA,NA,NA,NA,NA,NA,NA,NA,NA,NA,NA,NA,NA,NA,NA
a3e80,check continue,flow.Sequence,3_0_23,NA,NA,skipped,NA,621965.5,NA,NA,621796.7,621965.6,2023-10-17T15:46:41Z,621996.295,NULL,NA,NA,NA,NA,NA,NA,NA,NA,NA,23,NA,NA,NA,NA,NA,NA,NA,NA,NA,NA,NA,NA,NA,NA,NA,NA,NA,NA,NA
a3e80,check continue,flow.Sequence,3_0_24,NA,NA,skipped,NA,621971.8,NA,NA,621796.7,621971.8,2023-10-17T15:46:41Z,621996.295,NULL,NA,NA,NA,NA,NA,NA,NA,NA,NA,24,NA,NA,NA,NA,NA,NA,NA,NA,NA,NA,NA,NA,NA,NA,NA,NA,NA,NA,NA
a3e80,check continue,flow.Sequence,3_0_25,NA,NA,skipped,NA,621977.3,NA,NA,621796.7,621977.3,2023-10-17T15:46:41Z,621996.295,NULL,NA,NA,NA,NA,NA,NA,NA,NA,NA,25,NA,NA,NA,NA,NA,NA,NA,NA,NA,NA,NA,NA,NA,NA,NA,NA,NA,NA,NA
a3e80,check continue,flow.Sequence,3_0_26,NA,NA,skipped,NA,621983.2,NA,NA,621796.7,621983.2,2023-10-17T15:46:41Z,621996.295,NULL,NA,NA,NA,NA,NA,NA,NA,NA,NA,26,NA,NA,NA,NA,NA,NA,NA,NA,NA,NA,NA,NA,NA,NA,NA,NA,NA,NA,NA
a3e80,check continue,flow.Sequence,3_0_27,NA,NA,skipped,NA,621988.5,NA,NA,621796.7,621988.6,2023-10-17T15:46:41Z,621996.295,NULL,NA,NA,NA,NA,NA,NA,NA,NA,NA,27,NA,NA,NA,NA,NA,NA,NA,NA,NA,NA,NA,NA,NA,NA,NA,NA,NA,NA,NA
a3e80,check continue,flow.Sequence,3_0_28,NA,NA,skipped,NA,621994.4,NA,NA,621796.7,621994.4,2023-10-17T15:46:41Z,621996.295,NULL,NA,NA,NA,NA,NA,NA,NA,NA,NA,28,NA,NA,NA,NA,NA,NA,NA,NA,NA,NA,NA,NA,NA,NA,NA,NA,NA,NA,NA
a3e80,check continue,flow.Sequence,3_0_29,NA,NA,skipped,NA,622000.3,NA,NA,621796.7,622000.3,2023-10-17T15:46:41Z,621996.295,NULL,NA,NA,NA,NA,NA,NA,NA,NA,NA,29,NA,NA,NA,NA,NA,NA,NA,NA,NA,NA,NA,NA,NA,NA,NA,NA,NA,NA,NA
a3e80,until continue,flow.Loop,3_0,NA,NA,completion,352229.047,269546.1,269550.987,269567.653,621796.7,622000.3,2023-10-17T15:46:41Z,621996.295,NULL,NA,NA,NA,NA,NA,NA,NA,NA,NA,NA,NA,NA,NA,NA,NA,NA,NA,NA,NA,NA,NA,NA,NA,NA,NA,NA,NA,NA,NA
a3e80,block 1,flow.Sequence,3,NA,NA,completion,352229.047,269546.1,269550.987,269567.653,621796.7,622000.4,2023-10-17T15:46:41Z,621996.295,NULL,NA,NA,NA,NA,NA,NA,NA,NA,NA,NA,NA,NA,NA,NA,NA,NA,NA,NA,NA,NA,NA,NA,NA,NA,NA,NA,NA,NA,NA
a3e80,1.Part Over,canvas.Screen,4,NA,keypress(Space),response,1654.1049999999,622000.4,621796.303,621996.295,623650.4,623652.7,2023-10-17T15:46:43Z,623712.893,NULL,NA,NA,NA,NA,NA,NA,NA,NA,NA,NA,NA,NA,NA,NA,NA,NA,NA,NA,NA,NA,NA,NA,NA,NA,NA,NA,NA,NA,NA
a3e80,deep,flow.Sequence,5_0_0_0_0_0,NA,NA,skipped,NA,623696.9,NA,NA,623650.4,623696.9,2023-10-17T15:46:43Z,623712.893,NULL,Beweis,ushahidi,s,marudio,kizuizi,mtendaji,NA,sdf,NA,0,NA,NA,NA,NA,NA,NA,NA,NA,NA,NA,NA,NA,NA,NA,NA,NA,NA,NA,NA
a3e80,Shallow Question,html.Page,5_0_0_0_0_1_0,NA,NA,form submission,8489.607,623697,623696.227,623712.893,632202.5,632202.7,2023-10-17T15:46:51Z,632229.767,NULL,Beweis,ushahidi,s,marudio,kizuizi,mtendaji,kizuizi,NA,NA,0,NA,NA,NA,NA,NA,NA,NA,NA,NA,NA,NA,NA,NA,NA,NA,NA,NA,NA,NA
a3e80,"""Richtig""-Screen",canvas.Screen,5_0_0_0_0_1_1,NA,NA,skipped,NA,632205.7,NA,NA,632202.5,632205.8,2023-10-17T15:46:51Z,632229.767,NULL,Beweis,ushahidi,s,marudio,kizuizi,mtendaji,NA,sdf,NA,0,NA,NA,NA,NA,NA,NA,NA,NA,NA,NA,NA,NA,NA,NA,NA,NA,NA,NA,NA
a3e80,"""Falsch""-Screen",canvas.Screen,5_0_0_0_0_1_2,NA,NA,timeout,4999.8,632206.4,632213.101,632229.767,637212.901,637217.7,2023-10-17T15:46:56Z,637229.567,NULL,Beweis,ushahidi,s,marudio,kizuizi,mtendaji,NA,sdf,0,0,NA,NA,NA,NA,NA,NA,NA,NA,NA,NA,NA,NA,NA,NA,NA,NA,NA,NA,NA
a3e80,shallow,flow.Sequence,5_0_0_0_0_1,NA,NA,completion,13500.008,623697,623696.227,623712.893,637212.901,637218.1,2023-10-17T15:46:56Z,637229.567,NULL,Beweis,ushahidi,s,marudio,kizuizi,mtendaji,NA,sdf,NA,0,NA,NA,NA,NA,NA,NA,NA,NA,NA,NA,NA,NA,NA,NA,NA,NA,NA,NA,NA
a3e80,task,flow.Sequence,5_0_0_0_0,NA,NA,completion,13500.008,623696.9,623696.227,623712.893,637212.901,637218.3,2023-10-17T15:46:56Z,637229.567,NULL,Beweis,ushahidi,s,marudio,kizuizi,mtendaji,NA,sdf,NA,0,NA,NA,NA,NA,NA,NA,NA,NA,NA,NA,NA,NA,NA,NA,NA,NA,NA,NA,NA
a3e80,Deep Question,html.Page,5_0_0_0_1_0_0,NA,NA,form submission,2793.6329999997,637218.5,637212.901,637229.567,640023.2,640023.5,2023-10-17T15:46:59Z,640029.455,NULL,Kultur,utamaduni,d,NA,NA,NA,d,NA,NA,0,NA,NA,NA,NA,NA,NA,NA,NA,NA,NA,NA,NA,NA,NA,NA,NA,NA,NA,NA
a3e80,"""Richtig""-Screen",canvas.Screen,5_0_0_0_1_0_1,NA,NA,skipped,NA,640026.2,NA,NA,640023.2,640026.4,2023-10-17T15:46:59Z,640029.455,NULL,Kultur,utamaduni,d,NA,NA,NA,NA,sdf,NA,0,NA,NA,NA,NA,NA,NA,NA,NA,NA,NA,NA,NA,NA,NA,NA,NA,NA,NA,NA
a3e80,"""Falsch""-Screen",canvas.Screen,5_0_0_0_1_0_2,NA,NA,timeout,5000.282,640027.5,640012.789,640029.455,645013.071,645017.4,2023-10-17T15:47:04Z,645029.737,NULL,Kultur,utamaduni,d,NA,NA,NA,NA,sdf,0,0,NA,NA,NA,NA,NA,NA,NA,NA,NA,NA,NA,NA,NA,NA,NA,NA,NA,NA,NA
a3e80,deep,flow.Sequence,5_0_0_0_1_0,NA,NA,completion,7783.504,637218.5,637212.901,637229.567,645013.071,645017.8,2023-10-17T15:47:04Z,645029.737,NULL,Kultur,utamaduni,d,NA,NA,NA,NA,sdf,NA,0,NA,NA,NA,NA,NA,NA,NA,NA,NA,NA,NA,NA,NA,NA,NA,NA,NA,NA,NA
a3e80,shallow,flow.Sequence,5_0_0_0_1_1,NA,NA,skipped,NA,645017.9,NA,NA,645013.071,645018,2023-10-17T15:47:04Z,645029.737,NULL,Kultur,utamaduni,d,NA,NA,NA,NA,sdf,NA,0,NA,NA,NA,NA,NA,NA,NA,NA,NA,NA,NA,NA,NA,NA,NA,NA,NA,NA,NA
a3e80,task,flow.Sequence,5_0_0_0_1,NA,NA,completion,7783.504,637218.5,637212.901,637229.567,645013.071,645018.2,2023-10-17T15:47:04Z,645029.737,NULL,Kultur,utamaduni,d,NA,NA,NA,NA,sdf,NA,0,NA,NA,NA,NA,NA,NA,NA,NA,NA,NA,NA,NA,NA,NA,NA,NA,NA,NA,NA
a3e80,Deep Question,html.Page,5_0_0_0_2_0_0,NA,NA,form submission,4293.4629999998,645018.4,645013.071,645029.737,649323.2,649323.6,2023-10-17T15:47:08Z,649329.565,NULL,Annäherung,maegesho,d,NA,NA,NA,d,NA,NA,0,NA,NA,NA,NA,NA,NA,NA,NA,NA,NA,NA,NA,NA,NA,NA,NA,NA,NA,NA
a3e80,"""Richtig""-Screen",canvas.Screen,5_0_0_0_2_0_1,NA,NA,skipped,NA,649327.2,NA,NA,649323.2,649327.4,2023-10-17T15:47:08Z,649329.565,NULL,Annäherung,maegesho,d,NA,NA,NA,NA,sdf,NA,0,NA,NA,NA,NA,NA,NA,NA,NA,NA,NA,NA,NA,NA,NA,NA,NA,NA,NA,NA
a3e80,"""Falsch""-Screen",canvas.Screen,5_0_0_0_2_0_2,NA,NA,timeout,4999.8,649328.1,649312.899,649329.565,654312.699,654316.7,2023-10-17T15:47:13Z,654329.365,NULL,Annäherung,maegesho,d,NA,NA,NA,NA,sdf,0,0,NA,NA,NA,NA,NA,NA,NA,NA,NA,NA,NA,NA,NA,NA,NA,NA,NA,NA,NA
a3e80,deep,flow.Sequence,5_0_0_0_2_0,NA,NA,completion,9282.9620000001,645018.3,645013.071,645029.737,654312.699,654317.2,2023-10-17T15:47:13Z,654329.365,NULL,Annäherung,maegesho,d,NA,NA,NA,NA,sdf,NA,0,NA,NA,NA,NA,NA,NA,NA,NA,NA,NA,NA,NA,NA,NA,NA,NA,NA,NA,NA
a3e80,shallow,flow.Sequence,5_0_0_0_2_1,NA,NA,skipped,NA,654317.4,NA,NA,654312.699,654317.6,2023-10-17T15:47:13Z,654329.365,NULL,Annäherung,maegesho,d,NA,NA,NA,NA,sdf,NA,0,NA,NA,NA,NA,NA,NA,NA,NA,NA,NA,NA,NA,NA,NA,NA,NA,NA,NA,NA
a3e80,task,flow.Sequence,5_0_0_0_2,NA,NA,completion,9282.9620000001,645018.3,645013.071,645029.737,654312.699,654317.8,2023-10-17T15:47:13Z,654329.365,NULL,Annäherung,maegesho,d,NA,NA,NA,NA,sdf,NA,0,NA,NA,NA,NA,NA,NA,NA,NA,NA,NA,NA,NA,NA,NA,NA,NA,NA,NA,NA
a3e80,Deep Question,html.Page,5_0_0_0_3_0_0,NA,NA,form submission,2482.9349999998,654318,654312.699,654329.365,656812.3,656812.5,2023-10-17T15:47:16Z,656813.308,NULL,Verzögerung,kuchelewa,d,NA,NA,NA,d,NA,NA,0,NA,NA,NA,NA,NA,NA,NA,NA,NA,NA,NA,NA,NA,NA,NA,NA,NA,NA,NA
a3e80,"""Richtig""-Screen",canvas.Screen,5_0_0_0_3_0_1,NA,NA,skipped,NA,656814.8,NA,NA,656812.3,656814.9,2023-10-17T15:47:16Z,656813.308,NULL,Verzögerung,kuchelewa,d,NA,NA,NA,NA,sdf,NA,0,NA,NA,NA,NA,NA,NA,NA,NA,NA,NA,NA,NA,NA,NA,NA,NA,NA,NA,NA
a3e80,"""Falsch""-Screen",canvas.Screen,5_0_0_0_3_0_2,NA,NA,timeout,4999.8,656815.3,656796.642,656813.308,661796.442,661800.8,2023-10-17T15:47:21Z,661813.108,NULL,Verzögerung,kuchelewa,d,NA,NA,NA,NA,sdf,0,0,NA,NA,NA,NA,NA,NA,NA,NA,NA,NA,NA,NA,NA,NA,NA,NA,NA,NA,NA
a3e80,deep,flow.Sequence,5_0_0_0_3_0,NA,NA,completion,7467.077,654317.9,654312.699,654329.365,661796.442,661801.2,2023-10-17T15:47:21Z,661813.108,NULL,Verzögerung,kuchelewa,d,NA,NA,NA,NA,sdf,NA,0,NA,NA,NA,NA,NA,NA,NA,NA,NA,NA,NA,NA,NA,NA,NA,NA,NA,NA,NA
a3e80,shallow,flow.Sequence,5_0_0_0_3_1,NA,NA,skipped,NA,661801.3,NA,NA,661796.442,661801.4,2023-10-17T15:47:21Z,661813.108,NULL,Verzögerung,kuchelewa,d,NA,NA,NA,NA,sdf,NA,0,NA,NA,NA,NA,NA,NA,NA,NA,NA,NA,NA,NA,NA,NA,NA,NA,NA,NA,NA
a3e80,task,flow.Sequence,5_0_0_0_3,NA,NA,completion,7467.077,654317.9,654312.699,654329.365,661796.442,661801.6,2023-10-17T15:47:21Z,661813.108,NULL,Verzögerung,kuchelewa,d,NA,NA,NA,NA,sdf,NA,0,NA,NA,NA,NA,NA,NA,NA,NA,NA,NA,NA,NA,NA,NA,NA,NA,NA,NA,NA
a3e80,deep,flow.Sequence,5_0_0_0_4_0,NA,NA,skipped,NA,661801.8,NA,NA,661796.442,661801.9,2023-10-17T15:47:21Z,661813.108,NULL,Polizist,msongora,s,simanzi,mandhari,nidhamu,NA,sdf,NA,0,NA,NA,NA,NA,NA,NA,NA,NA,NA,NA,NA,NA,NA,NA,NA,NA,NA,NA,NA
a3e80,Shallow Question,html.Page,5_0_0_0_4_1_0,NA,NA,form submission,5659.9920000001,661802,661796.442,661813.108,667473.1,667473.5,2023-10-17T15:47:26Z,667480.117,NULL,Polizist,msongora,s,simanzi,mandhari,nidhamu,msongora,NA,NA,0,NA,NA,NA,NA,NA,NA,NA,NA,NA,NA,NA,NA,NA,NA,NA,NA,NA,NA,NA
a3e80,"""Richtig""-Screen",canvas.Screen,5_0_0_0_4_1_1,NA,NA,timeout,4999.8,667477.5,667463.451,667480.117,672463.251,672468,2023-10-17T15:47:31Z,672479.917,NULL,Polizist,msongora,s,simanzi,mandhari,nidhamu,NA,sdf,1,0,NA,NA,NA,NA,NA,NA,NA,NA,NA,NA,NA,NA,NA,NA,NA,NA,NA,NA,NA
a3e80,"""Falsch""-Screen",canvas.Screen,5_0_0_0_4_1_2,NA,NA,skipped,NA,672472.5,NA,NA,672463.251,672472.6,2023-10-17T15:47:31Z,672479.917,NULL,Polizist,msongora,s,simanzi,mandhari,nidhamu,NA,sdf,NA,0,NA,NA,NA,NA,NA,NA,NA,NA,NA,NA,NA,NA,NA,NA,NA,NA,NA,NA,NA
a3e80,shallow,flow.Sequence,5_0_0_0_4_1,NA,NA,completion,10650.143,661801.9,661796.442,661813.108,672463.251,672472.8,2023-10-17T15:47:31Z,672479.917,NULL,Polizist,msongora,s,simanzi,mandhari,nidhamu,NA,sdf,NA,0,NA,NA,NA,NA,NA,NA,NA,NA,NA,NA,NA,NA,NA,NA,NA,NA,NA,NA,NA
a3e80,task,flow.Sequence,5_0_0_0_4,NA,NA,completion,10650.143,661801.7,661796.442,661813.108,672463.251,672472.9,2023-10-17T15:47:31Z,672479.917,NULL,Polizist,msongora,s,simanzi,mandhari,nidhamu,NA,sdf,NA,0,NA,NA,NA,NA,NA,NA,NA,NA,NA,NA,NA,NA,NA,NA,NA,NA,NA,NA,NA
a3e80,deep,flow.Sequence,5_0_0_0_5_0,NA,NA,skipped,NA,672473,NA,NA,672463.251,672473.1,2023-10-17T15:47:31Z,672479.917,NULL,Aufstand,ugomaji,s,mazidio,msingi,kujieleza,NA,sdf,NA,0,NA,NA,NA,NA,NA,NA,NA,NA,NA,NA,NA,NA,NA,NA,NA,NA,NA,NA,NA
a3e80,Shallow Question,html.Page,5_0_0_0_5_1_0,NA,NA,form submission,6873.083,672473.2,672463.251,672479.917,679353,679353.2,2023-10-17T15:47:38Z,679380.16,NULL,Aufstand,ugomaji,s,mazidio,msingi,kujieleza,msingi,NA,NA,0,NA,NA,NA,NA,NA,NA,NA,NA,NA,NA,NA,NA,NA,NA,NA,NA,NA,NA,NA
a3e80,"""Richtig""-Screen",canvas.Screen,5_0_0_0_5_1_1,NA,NA,skipped,NA,679355.7,NA,NA,679353,679355.8,2023-10-17T15:47:38Z,679380.16,NULL,Aufstand,ugomaji,s,mazidio,msingi,kujieleza,NA,sdf,NA,0,NA,NA,NA,NA,NA,NA,NA,NA,NA,NA,NA,NA,NA,NA,NA,NA,NA,NA,NA
a3e80,"""Falsch""-Screen",canvas.Screen,5_0_0_0_5_1_2,NA,NA,timeout,4999.7999999999,679356.4,679363.494,679380.16,684363.294,684366.3,2023-10-17T15:47:43Z,684379.96,NULL,Aufstand,ugomaji,s,mazidio,msingi,kujieleza,NA,sdf,0,0,NA,NA,NA,NA,NA,NA,NA,NA,NA,NA,NA,NA,NA,NA,NA,NA,NA,NA,NA
a3e80,shallow,flow.Sequence,5_0_0_0_5_1,NA,NA,completion,11883.377,672473.2,672463.251,672479.917,684363.294,684366.8,2023-10-17T15:47:43Z,684379.96,NULL,Aufstand,ugomaji,s,mazidio,msingi,kujieleza,NA,sdf,NA,0,NA,NA,NA,NA,NA,NA,NA,NA,NA,NA,NA,NA,NA,NA,NA,NA,NA,NA,NA
a3e80,task,flow.Sequence,5_0_0_0_5,NA,NA,completion,11883.377,672473,672463.251,672479.917,684363.294,684366.9,2023-10-17T15:47:43Z,684379.96,NULL,Aufstand,ugomaji,s,mazidio,msingi,kujieleza,NA,sdf,NA,0,NA,NA,NA,NA,NA,NA,NA,NA,NA,NA,NA,NA,NA,NA,NA,NA,NA,NA,NA
a3e80,Deep Question,html.Page,5_0_0_0_6_0_0,NA,NA,form submission,2400.7399999998,684367.2,684363.294,684379.96,686780.7,686781,2023-10-17T15:47:46Z,686780.391,NULL,Sympathie,mapendano,d,NA,NA,NA,d,NA,NA,0,NA,NA,NA,NA,NA,NA,NA,NA,NA,NA,NA,NA,NA,NA,NA,NA,NA,NA,NA
a3e80,"""Richtig""-Screen",canvas.Screen,5_0_0_0_6_0_1,NA,NA,skipped,NA,686783.2,NA,NA,686780.7,686783.3,2023-10-17T15:47:46Z,686780.391,NULL,Sympathie,mapendano,d,NA,NA,NA,NA,sdf,NA,0,NA,NA,NA,NA,NA,NA,NA,NA,NA,NA,NA,NA,NA,NA,NA,NA,NA,NA,NA
a3e80,"""Falsch""-Screen",canvas.Screen,5_0_0_0_6_0_2,NA,NA,timeout,4999.8,686783.8,686763.725,686780.391,691763.525,691767.9,2023-10-17T15:47:51Z,691780.191,NULL,Sympathie,mapendano,d,NA,NA,NA,NA,sdf,0,0,NA,NA,NA,NA,NA,NA,NA,NA,NA,NA,NA,NA,NA,NA,NA,NA,NA,NA,NA
a3e80,deep,flow.Sequence,5_0_0_0_6_0,NA,NA,completion,7383.5650000001,684367.2,684363.294,684379.96,691763.525,691768.2,2023-10-17T15:47:51Z,691780.191,NULL,Sympathie,mapendano,d,NA,NA,NA,NA,sdf,NA,0,NA,NA,NA,NA,NA,NA,NA,NA,NA,NA,NA,NA,NA,NA,NA,NA,NA,NA,NA
a3e80,shallow,flow.Sequence,5_0_0_0_6_1,NA,NA,skipped,NA,691768.4,NA,NA,691763.525,691768.5,2023-10-17T15:47:51Z,691780.191,NULL,Sympathie,mapendano,d,NA,NA,NA,NA,sdf,NA,0,NA,NA,NA,NA,NA,NA,NA,NA,NA,NA,NA,NA,NA,NA,NA,NA,NA,NA,NA
a3e80,task,flow.Sequence,5_0_0_0_6,NA,NA,completion,7383.5650000001,684367.1,684363.294,684379.96,691763.525,691768.7,2023-10-17T15:47:51Z,691780.191,NULL,Sympathie,mapendano,d,NA,NA,NA,NA,sdf,NA,0,NA,NA,NA,NA,NA,NA,NA,NA,NA,NA,NA,NA,NA,NA,NA,NA,NA,NA,NA
a3e80,deep,flow.Sequence,5_0_0_0_7_0,NA,NA,skipped,NA,691768.8,NA,NA,691763.525,691768.9,2023-10-17T15:47:51Z,691780.191,NULL,Prüfung,mtihani,s,mkulima,mtizamo,ufumbuzi,NA,sdf,NA,0,NA,NA,NA,NA,NA,NA,NA,NA,NA,NA,NA,NA,NA,NA,NA,NA,NA,NA,NA
a3e80,Shallow Question,html.Page,5_0_0_0_7_1_0,NA,NA,form submission,3872.9090000001,691769,691763.525,691780.191,695653.1,695653.4,2023-10-17T15:47:55Z,695680.558,NULL,Prüfung,mtihani,s,mkulima,mtizamo,ufumbuzi,mtizamo,NA,NA,0,NA,NA,NA,NA,NA,NA,NA,NA,NA,NA,NA,NA,NA,NA,NA,NA,NA,NA,NA
a3e80,"""Richtig""-Screen",canvas.Screen,5_0_0_0_7_1_1,NA,NA,skipped,NA,695655.9,NA,NA,695653.1,695655.9,2023-10-17T15:47:55Z,695680.558,NULL,Prüfung,mtihani,s,mkulima,mtizamo,ufumbuzi,NA,sdf,NA,0,NA,NA,NA,NA,NA,NA,NA,NA,NA,NA,NA,NA,NA,NA,NA,NA,NA,NA,NA
a3e80,"""Falsch""-Screen",canvas.Screen,5_0_0_0_7_1_2,NA,NA,timeout,4999.8,695656.5,695663.892,695680.558,700663.692,700667,2023-10-17T15:48:00Z,700680.358,NULL,Prüfung,mtihani,s,mkulima,mtizamo,ufumbuzi,NA,sdf,0,0,NA,NA,NA,NA,NA,NA,NA,NA,NA,NA,NA,NA,NA,NA,NA,NA,NA,NA,NA
a3e80,shallow,flow.Sequence,5_0_0_0_7_1,NA,NA,completion,8883.501,691769,691763.525,691780.191,700663.692,700667.4,2023-10-17T15:48:00Z,700680.358,NULL,Prüfung,mtihani,s,mkulima,mtizamo,ufumbuzi,NA,sdf,NA,0,NA,NA,NA,NA,NA,NA,NA,NA,NA,NA,NA,NA,NA,NA,NA,NA,NA,NA,NA
a3e80,task,flow.Sequence,5_0_0_0_7,NA,NA,completion,8883.501,691768.8,691763.525,691780.191,700663.692,700667.7,2023-10-17T15:48:00Z,700680.358,NULL,Prüfung,mtihani,s,mkulima,mtizamo,ufumbuzi,NA,sdf,NA,0,NA,NA,NA,NA,NA,NA,NA,NA,NA,NA,NA,NA,NA,NA,NA,NA,NA,NA,NA
a3e80,block,flow.Loop,5_0_0_0,NA,NA,completion,76950.799,623696.9,623696.227,623712.893,700663.692,700668,2023-10-17T15:48:00Z,700680.358,NULL,NA,NA,NA,NA,NA,NA,NA,sdf,NA,0,NA,NA,NA,NA,NA,NA,NA,NA,NA,NA,NA,NA,NA,NA,NA,NA,NA,NA,NA
a3e80,weiter,canvas.Screen,5_0_0_1,sdf,keypress(Space),response,1046.642,700668.1,700663.692,700680.358,701727,701732.2,2023-10-17T15:48:01Z,701746.982,NULL,NA,NA,NA,NA,NA,NA,NA,sdf,NA,0,NA,NA,NA,NA,NA,NA,NA,NA,NA,NA,NA,NA,NA,NA,NA,NA,NA,NA,NA
a3e80,check continue,flow.Sequence,5_0_0,NA,NA,completion,78014.107,623696.9,623696.227,623712.893,701727,701732.6,2023-10-17T15:48:01Z,701746.982,NULL,NA,NA,NA,NA,NA,NA,NA,sdf,NA,0,NA,NA,NA,NA,NA,NA,NA,NA,NA,NA,NA,NA,NA,NA,NA,NA,NA,NA,NA
a3e80,Deep Question,html.Page,5_0_1_0_0_0_0,NA,NA,form submission,7120.3179999999,701757.4,701713.65,701746.982,708867.3,708867.8,2023-10-17T15:48:08Z,708880.477,NULL,Kultur,utamaduni,d,NA,NA,NA,uta,NA,NA,1,NA,NA,NA,NA,NA,NA,NA,NA,NA,NA,NA,NA,NA,NA,NA,NA,NA,NA,NA
a3e80,"""Richtig""-Screen",canvas.Screen,5_0_1_0_0_0_1,NA,NA,skipped,NA,708870.4,NA,NA,708867.3,708870.4,2023-10-17T15:48:08Z,708880.477,NULL,Kultur,utamaduni,d,NA,NA,NA,NA,sdfdsf,NA,1,NA,NA,NA,NA,NA,NA,NA,NA,NA,NA,NA,NA,NA,NA,NA,NA,NA,NA,NA
a3e80,"""Falsch""-Screen",canvas.Screen,5_0_1_0_0_0_2,NA,NA,timeout,4999.8,708871.3,708863.811,708880.477,713863.611,713869,2023-10-17T15:48:13Z,713880.277,NULL,Kultur,utamaduni,d,NA,NA,NA,NA,sdfdsf,0,1,NA,NA,NA,NA,NA,NA,NA,NA,NA,NA,NA,NA,NA,NA,NA,NA,NA,NA,NA
a3e80,deep,flow.Sequence,5_0_1_0_0_0,NA,NA,completion,12116.629,701757.4,701713.65,701746.982,713863.611,713869.5,2023-10-17T15:48:13Z,713880.277,NULL,Kultur,utamaduni,d,NA,NA,NA,NA,sdfdsf,NA,1,NA,NA,NA,NA,NA,NA,NA,NA,NA,NA,NA,NA,NA,NA,NA,NA,NA,NA,NA
a3e80,shallow,flow.Sequence,5_0_1_0_0_1,NA,NA,skipped,NA,713869.5,NA,NA,713863.611,713869.7,2023-10-17T15:48:13Z,713880.277,NULL,Kultur,utamaduni,d,NA,NA,NA,NA,sdfdsf,NA,1,NA,NA,NA,NA,NA,NA,NA,NA,NA,NA,NA,NA,NA,NA,NA,NA,NA,NA,NA
a3e80,task,flow.Sequence,5_0_1_0_0,NA,NA,completion,12116.629,701757.4,701713.65,701746.982,713863.611,713869.9,2023-10-17T15:48:13Z,713880.277,NULL,Kultur,utamaduni,d,NA,NA,NA,NA,sdfdsf,NA,1,NA,NA,NA,NA,NA,NA,NA,NA,NA,NA,NA,NA,NA,NA,NA,NA,NA,NA,NA
a3e80,deep,flow.Sequence,5_0_1_0_1_0,NA,NA,skipped,NA,713870,NA,NA,713863.611,713870.1,2023-10-17T15:48:13Z,713880.277,NULL,Prüfung,mtihani,s,mkulima,mtizamo,ufumbuzi,NA,sdfdsf,NA,1,NA,NA,NA,NA,NA,NA,NA,NA,NA,NA,NA,NA,NA,NA,NA,NA,NA,NA,NA
a3e80,Shallow Question,html.Page,5_0_1_0_1_1_0,NA,NA,form submission,9340.0229999998,713870.3,713863.611,713880.277,723220.3,723220.5,2023-10-17T15:48:22Z,723247.159,NULL,Prüfung,mtihani,s,mkulima,mtizamo,ufumbuzi,mtihani,NA,NA,1,NA,NA,NA,NA,NA,NA,NA,NA,NA,NA,NA,NA,NA,NA,NA,NA,NA,NA,NA
a3e80,"""Richtig""-Screen",canvas.Screen,5_0_1_0_1_1_1,NA,NA,timeout,5000.3370000001,723223.2,723230.493,723247.159,728230.83,728235.4,2023-10-17T15:48:27Z,728247.496,NULL,Prüfung,mtihani,s,mkulima,mtizamo,ufumbuzi,NA,sdfdsf,1,1,NA,NA,NA,NA,NA,NA,NA,NA,NA,NA,NA,NA,NA,NA,NA,NA,NA,NA,NA
a3e80,"""Falsch""-Screen",canvas.Screen,5_0_1_0_1_1_2,NA,NA,skipped,NA,728238.9,NA,NA,728230.83,728239,2023-10-17T15:48:27Z,728247.496,NULL,Prüfung,mtihani,s,mkulima,mtizamo,ufumbuzi,NA,sdfdsf,NA,1,NA,NA,NA,NA,NA,NA,NA,NA,NA,NA,NA,NA,NA,NA,NA,NA,NA,NA,NA
a3e80,shallow,flow.Sequence,5_0_1_0_1_1,NA,NA,completion,14350.553,713870.2,713863.611,713880.277,728230.83,728239.1,2023-10-17T15:48:27Z,728247.496,NULL,Prüfung,mtihani,s,mkulima,mtizamo,ufumbuzi,NA,sdfdsf,NA,1,NA,NA,NA,NA,NA,NA,NA,NA,NA,NA,NA,NA,NA,NA,NA,NA,NA,NA,NA
a3e80,task,flow.Sequence,5_0_1_0_1,NA,NA,completion,14350.553,713870,713863.611,713880.277,728230.83,728239.2,2023-10-17T15:48:27Z,728247.496,NULL,Prüfung,mtihani,s,mkulima,mtizamo,ufumbuzi,NA,sdfdsf,NA,1,NA,NA,NA,NA,NA,NA,NA,NA,NA,NA,NA,NA,NA,NA,NA,NA,NA,NA,NA
a3e80,Deep Question,html.Page,5_0_1_0_2_0_0,NA,NA,form submission,2765.8039999998,728239.4,728230.83,728247.496,731013.3,731013.5,2023-10-17T15:48:30Z,731014.052,NULL,Sympathie,mapendano,d,NA,NA,NA,d,NA,NA,1,NA,NA,NA,NA,NA,NA,NA,NA,NA,NA,NA,NA,NA,NA,NA,NA,NA,NA,NA
a3e80,"""Richtig""-Screen",canvas.Screen,5_0_1_0_2_0_1,NA,NA,skipped,NA,731014,NA,NA,731013.3,731014.1,2023-10-17T15:48:30Z,731014.052,NULL,Sympathie,mapendano,d,NA,NA,NA,NA,sdfdsf,NA,1,NA,NA,NA,NA,NA,NA,NA,NA,NA,NA,NA,NA,NA,NA,NA,NA,NA,NA,NA
a3e80,"""Falsch""-Screen",canvas.Screen,5_0_1_0_2_0_2,NA,NA,timeout,4999.7999999999,731014.5,730997.386,731014.052,735997.186,736002.1,2023-10-17T15:48:35Z,736013.852,NULL,Sympathie,mapendano,d,NA,NA,NA,NA,sdfdsf,0,1,NA,NA,NA,NA,NA,NA,NA,NA,NA,NA,NA,NA,NA,NA,NA,NA,NA,NA,NA
a3e80,deep,flow.Sequence,5_0_1_0_2_0,NA,NA,completion,7749.6899999999,728239.4,728230.83,728247.496,735997.186,736002.6,2023-10-17T15:48:35Z,736013.852,NULL,Sympathie,mapendano,d,NA,NA,NA,NA,sdfdsf,NA,1,NA,NA,NA,NA,NA,NA,NA,NA,NA,NA,NA,NA,NA,NA,NA,NA,NA,NA,NA
a3e80,shallow,flow.Sequence,5_0_1_0_2_1,NA,NA,skipped,NA,736002.7,NA,NA,735997.186,736002.9,2023-10-17T15:48:35Z,736013.852,NULL,Sympathie,mapendano,d,NA,NA,NA,NA,sdfdsf,NA,1,NA,NA,NA,NA,NA,NA,NA,NA,NA,NA,NA,NA,NA,NA,NA,NA,NA,NA,NA
a3e80,task,flow.Sequence,5_0_1_0_2,NA,NA,completion,7749.6899999999,728239.4,728230.83,728247.496,735997.186,736003,2023-10-17T15:48:35Z,736013.852,NULL,Sympathie,mapendano,d,NA,NA,NA,NA,sdfdsf,NA,1,NA,NA,NA,NA,NA,NA,NA,NA,NA,NA,NA,NA,NA,NA,NA,NA,NA,NA,NA
a3e80,Deep Question,html.Page,5_0_1_0_3_0_0,NA,NA,form submission,4494.048,736003.3,735997.186,736013.852,740507.9,740508.3,2023-10-17T15:48:40Z,740514.321,NULL,Verzögerung,kuchelewa,d,NA,NA,NA,d,NA,NA,1,NA,NA,NA,NA,NA,NA,NA,NA,NA,NA,NA,NA,NA,NA,NA,NA,NA,NA,NA
a3e80,"""Richtig""-Screen",canvas.Screen,5_0_1_0_3_0_1,NA,NA,skipped,NA,740511.3,NA,NA,740507.9,740511.6,2023-10-17T15:48:40Z,740514.321,NULL,Verzögerung,kuchelewa,d,NA,NA,NA,NA,sdfdsf,NA,1,NA,NA,NA,NA,NA,NA,NA,NA,NA,NA,NA,NA,NA,NA,NA,NA,NA,NA,NA
a3e80,"""Falsch""-Screen",canvas.Screen,5_0_1_0_3_0_2,NA,NA,timeout,4999.8,740512.4,740497.655,740514.321,745497.455,745502.2,2023-10-17T15:48:45Z,745514.121,NULL,Verzögerung,kuchelewa,d,NA,NA,NA,NA,sdfdsf,0,1,NA,NA,NA,NA,NA,NA,NA,NA,NA,NA,NA,NA,NA,NA,NA,NA,NA,NA,NA
a3e80,deep,flow.Sequence,5_0_1_0_3_0,NA,NA,completion,9483.603,736003.2,735997.186,736013.852,745497.455,745502.6,2023-10-17T15:48:45Z,745514.121,NULL,Verzögerung,kuchelewa,d,NA,NA,NA,NA,sdfdsf,NA,1,NA,NA,NA,NA,NA,NA,NA,NA,NA,NA,NA,NA,NA,NA,NA,NA,NA,NA,NA
a3e80,shallow,flow.Sequence,5_0_1_0_3_1,NA,NA,skipped,NA,745502.8,NA,NA,745497.455,745502.9,2023-10-17T15:48:45Z,745514.121,NULL,Verzögerung,kuchelewa,d,NA,NA,NA,NA,sdfdsf,NA,1,NA,NA,NA,NA,NA,NA,NA,NA,NA,NA,NA,NA,NA,NA,NA,NA,NA,NA,NA
a3e80,task,flow.Sequence,5_0_1_0_3,NA,NA,completion,9483.603,736003.1,735997.186,736013.852,745497.455,745503.1,2023-10-17T15:48:45Z,745514.121,NULL,Verzögerung,kuchelewa,d,NA,NA,NA,NA,sdfdsf,NA,1,NA,NA,NA,NA,NA,NA,NA,NA,NA,NA,NA,NA,NA,NA,NA,NA,NA,NA,NA
a3e80,Deep Question,html.Page,5_0_1_0_4_0_0,NA,NA,form submission,5483.1789999998,745503.3,745497.455,745514.121,750997.3,750997.4,2023-10-17T15:48:50Z,750997.621,NULL,Annäherung,maegesho,d,NA,NA,NA,d,NA,NA,1,NA,NA,NA,NA,NA,NA,NA,NA,NA,NA,NA,NA,NA,NA,NA,NA,NA,NA,NA
a3e80,"""Richtig""-Screen",canvas.Screen,5_0_1_0_4_0_1,NA,NA,skipped,NA,750999.7,NA,NA,750997.3,750999.8,2023-10-17T15:48:50Z,750997.621,NULL,Annäherung,maegesho,d,NA,NA,NA,NA,sdfdsf,NA,1,NA,NA,NA,NA,NA,NA,NA,NA,NA,NA,NA,NA,NA,NA,NA,NA,NA,NA,NA
a3e80,"""Falsch""-Screen",canvas.Screen,5_0_1_0_4_0_2,NA,NA,timeout,4999.7999999999,751000.2,750980.955,750997.621,755980.755,755985.4,2023-10-17T15:48:55Z,755997.421,NULL,Annäherung,maegesho,d,NA,NA,NA,NA,sdfdsf,0,1,NA,NA,NA,NA,NA,NA,NA,NA,NA,NA,NA,NA,NA,NA,NA,NA,NA,NA,NA
a3e80,deep,flow.Sequence,5_0_1_0_4_0,NA,NA,completion,10466.634,745503.3,745497.455,745514.121,755980.755,755985.7,2023-10-17T15:48:55Z,755997.421,NULL,Annäherung,maegesho,d,NA,NA,NA,NA,sdfdsf,NA,1,NA,NA,NA,NA,NA,NA,NA,NA,NA,NA,NA,NA,NA,NA,NA,NA,NA,NA,NA
a3e80,shallow,flow.Sequence,5_0_1_0_4_1,NA,NA,skipped,NA,755985.9,NA,NA,755980.755,755986,2023-10-17T15:48:55Z,755997.421,NULL,Annäherung,maegesho,d,NA,NA,NA,NA,sdfdsf,NA,1,NA,NA,NA,NA,NA,NA,NA,NA,NA,NA,NA,NA,NA,NA,NA,NA,NA,NA,NA
a3e80,task,flow.Sequence,5_0_1_0_4,NA,NA,completion,10466.634,745503.2,745497.455,745514.121,755980.755,755986.2,2023-10-17T15:48:55Z,755997.421,NULL,Annäherung,maegesho,d,NA,NA,NA,NA,sdfdsf,NA,1,NA,NA,NA,NA,NA,NA,NA,NA,NA,NA,NA,NA,NA,NA,NA,NA,NA,NA,NA
a3e80,deep,flow.Sequence,5_0_1_0_5_0,NA,NA,skipped,NA,755986.4,NA,NA,755980.755,755986.4,2023-10-17T15:48:55Z,755997.421,NULL,Polizist,msongora,s,simanzi,mandhari,nidhamu,NA,sdfdsf,NA,1,NA,NA,NA,NA,NA,NA,NA,NA,NA,NA,NA,NA,NA,NA,NA,NA,NA,NA,NA
a3e80,Shallow Question,html.Page,5_0_1_0_5_1_0,NA,NA,form submission,6190.079,755986.6,755980.755,755997.421,762187.5,762187.8,2023-10-17T15:49:01Z,762214.554,NULL,Polizist,msongora,s,simanzi,mandhari,nidhamu,msongora,NA,NA,1,NA,NA,NA,NA,NA,NA,NA,NA,NA,NA,NA,NA,NA,NA,NA,NA,NA,NA,NA
a3e80,"""Richtig""-Screen",canvas.Screen,5_0_1_0_5_1_1,NA,NA,timeout,4999.8,762190.5,762197.888,762214.554,767197.688,767202.9,2023-10-17T15:49:06Z,767214.354,NULL,Polizist,msongora,s,simanzi,mandhari,nidhamu,NA,sdfdsf,1,1,NA,NA,NA,NA,NA,NA,NA,NA,NA,NA,NA,NA,NA,NA,NA,NA,NA,NA,NA
a3e80,"""Falsch""-Screen",canvas.Screen,5_0_1_0_5_1_2,NA,NA,skipped,NA,767207.6,NA,NA,767197.688,767207.7,2023-10-17T15:49:06Z,767214.354,NULL,Polizist,msongora,s,simanzi,mandhari,nidhamu,NA,sdfdsf,NA,1,NA,NA,NA,NA,NA,NA,NA,NA,NA,NA,NA,NA,NA,NA,NA,NA,NA,NA,NA
a3e80,shallow,flow.Sequence,5_0_1_0_5_1,NA,NA,completion,11200.267,755986.6,755980.755,755997.421,767197.688,767207.9,2023-10-17T15:49:06Z,767214.354,NULL,Polizist,msongora,s,simanzi,mandhari,nidhamu,NA,sdfdsf,NA,1,NA,NA,NA,NA,NA,NA,NA,NA,NA,NA,NA,NA,NA,NA,NA,NA,NA,NA,NA
a3e80,task,flow.Sequence,5_0_1_0_5,NA,NA,completion,11200.267,755986.3,755980.755,755997.421,767197.688,767208,2023-10-17T15:49:06Z,767214.354,NULL,Polizist,msongora,s,simanzi,mandhari,nidhamu,NA,sdfdsf,NA,1,NA,NA,NA,NA,NA,NA,NA,NA,NA,NA,NA,NA,NA,NA,NA,NA,NA,NA,NA
a3e80,deep,flow.Sequence,5_0_1_0_6_0,NA,NA,skipped,NA,767208.2,NA,NA,767197.688,767208.2,2023-10-17T15:49:06Z,767214.354,NULL,Aufstand,ugomaji,s,mazidio,msingi,kujieleza,NA,sdfdsf,NA,1,NA,NA,NA,NA,NA,NA,NA,NA,NA,NA,NA,NA,NA,NA,NA,NA,NA,NA,NA
a3e80,Shallow Question,html.Page,5_0_1_0_6_1_0,NA,NA,form submission,3707.5459999999,767208.2,767197.688,767214.354,770921.9,770922.4,2023-10-17T15:49:10Z,770948.05,NULL,Aufstand,ugomaji,s,mazidio,msingi,kujieleza,ugomaji,NA,NA,1,NA,NA,NA,NA,NA,NA,NA,NA,NA,NA,NA,NA,NA,NA,NA,NA,NA,NA,NA
a3e80,"""Richtig""-Screen",canvas.Screen,5_0_1_0_6_1_1,NA,NA,timeout,4999.7999999999,770925.5,770931.384,770948.05,775931.184,775936.1,2023-10-17T15:49:15Z,775947.85,NULL,Aufstand,ugomaji,s,mazidio,msingi,kujieleza,NA,sdfdsf,1,1,NA,NA,NA,NA,NA,NA,NA,NA,NA,NA,NA,NA,NA,NA,NA,NA,NA,NA,NA
a3e80,"""Falsch""-Screen",canvas.Screen,5_0_1_0_6_1_2,NA,NA,skipped,NA,775940.1,NA,NA,775931.184,775954.2,2023-10-17T15:49:15Z,775947.85,NULL,Aufstand,ugomaji,s,mazidio,msingi,kujieleza,NA,sdfdsf,NA,1,NA,NA,NA,NA,NA,NA,NA,NA,NA,NA,NA,NA,NA,NA,NA,NA,NA,NA,NA
a3e80,shallow,flow.Sequence,5_0_1_0_6_1,NA,NA,completion,8716.83,767208.2,767197.688,767214.354,775931.184,775954.4,2023-10-17T15:49:15Z,775947.85,NULL,Aufstand,ugomaji,s,mazidio,msingi,kujieleza,NA,sdfdsf,NA,1,NA,NA,NA,NA,NA,NA,NA,NA,NA,NA,NA,NA,NA,NA,NA,NA,NA,NA,NA
a3e80,task,flow.Sequence,5_0_1_0_6,NA,NA,completion,8716.83,767208.1,767197.688,767214.354,775931.184,775954.6,2023-10-17T15:49:15Z,775947.85,NULL,Aufstand,ugomaji,s,mazidio,msingi,kujieleza,NA,sdfdsf,NA,1,NA,NA,NA,NA,NA,NA,NA,NA,NA,NA,NA,NA,NA,NA,NA,NA,NA,NA,NA
a3e80,deep,flow.Sequence,5_0_1_0_7_0,NA,NA,skipped,NA,775954.6,NA,NA,775931.184,775954.6,2023-10-17T15:49:15Z,775947.85,NULL,Beweis,ushahidi,s,marudio,kizuizi,mtendaji,NA,sdfdsf,NA,1,NA,NA,NA,NA,NA,NA,NA,NA,NA,NA,NA,NA,NA,NA,NA,NA,NA,NA,NA
a3e80,Shallow Question,html.Page,5_0_1_0_7_1_0,NA,NA,form submission,12506.85,775954.7,775931.184,775947.85,788454.7,788455,2023-10-17T15:49:27Z,788481.106,NULL,Beweis,ushahidi,s,marudio,kizuizi,mtendaji,kizuizi,NA,NA,1,NA,NA,NA,NA,NA,NA,NA,NA,NA,NA,NA,NA,NA,NA,NA,NA,NA,NA,NA
a3e80,"""Richtig""-Screen",canvas.Screen,5_0_1_0_7_1_1,NA,NA,skipped,NA,788457.6,NA,NA,788454.7,788457.7,2023-10-17T15:49:27Z,788481.106,NULL,Beweis,ushahidi,s,marudio,kizuizi,mtendaji,NA,sdfdsf,NA,1,NA,NA,NA,NA,NA,NA,NA,NA,NA,NA,NA,NA,NA,NA,NA,NA,NA,NA,NA
a3e80,"""Falsch""-Screen",canvas.Screen,5_0_1_0_7_1_2,NA,NA,timeout,5000.4639999999,788458.1,788464.44,788481.106,793464.904,793469.7,2023-10-17T15:49:32Z,793481.57,NULL,Beweis,ushahidi,s,marudio,kizuizi,mtendaji,NA,sdfdsf,0,1,NA,NA,NA,NA,NA,NA,NA,NA,NA,NA,NA,NA,NA,NA,NA,NA,NA,NA,NA
a3e80,shallow,flow.Sequence,5_0_1_0_7_1,NA,NA,completion,17517.054,775954.7,775931.184,775947.85,793464.904,793470.1,2023-10-17T15:49:32Z,793481.57,NULL,Beweis,ushahidi,s,marudio,kizuizi,mtendaji,NA,sdfdsf,NA,1,NA,NA,NA,NA,NA,NA,NA,NA,NA,NA,NA,NA,NA,NA,NA,NA,NA,NA,NA
a3e80,task,flow.Sequence,5_0_1_0_7,NA,NA,completion,17517.054,775954.6,775931.184,775947.85,793464.904,793470.2,2023-10-17T15:49:32Z,793481.57,NULL,Beweis,ushahidi,s,marudio,kizuizi,mtendaji,NA,sdfdsf,NA,1,NA,NA,NA,NA,NA,NA,NA,NA,NA,NA,NA,NA,NA,NA,NA,NA,NA,NA,NA
a3e80,block,flow.Loop,5_0_1_0,NA,NA,completion,91717.922,701757.4,701713.65,701746.982,793464.904,793470.3,2023-10-17T15:49:32Z,793481.57,NULL,NA,NA,NA,NA,NA,NA,NA,sdfdsf,NA,1,NA,NA,NA,NA,NA,NA,NA,NA,NA,NA,NA,NA,NA,NA,NA,NA,NA,NA,NA
a3e80,weiter,canvas.Screen,5_0_1_1,sdf,keypress(Space),response,894.03000000014,793470.4,793464.904,793481.57,794375.6,794381,2023-10-17T15:49:33Z,794398.2,NULL,NA,NA,NA,NA,NA,NA,NA,sdfdsf,NA,1,NA,NA,NA,NA,NA,NA,NA,NA,NA,NA,NA,NA,NA,NA,NA,NA,NA,NA,NA
a3e80,check continue,flow.Sequence,5_0_1,NA,NA,completion,92628.618,701757.4,701713.65,701746.982,794375.6,794381.3,2023-10-17T15:49:33Z,794398.2,NULL,NA,NA,NA,NA,NA,NA,NA,sdfdsf,NA,1,NA,NA,NA,NA,NA,NA,NA,NA,NA,NA,NA,NA,NA,NA,NA,NA,NA,NA,NA
a3e80,deep,flow.Sequence,5_0_2_0_0_0,NA,NA,skipped,NA,794405.3,NA,NA,794375.6,794405.4,2023-10-17T15:49:33Z,794398.2,NULL,Beweis,ushahidi,s,marudio,kizuizi,mtendaji,NA,sdf,NA,2,NA,NA,NA,NA,NA,NA,NA,NA,NA,NA,NA,NA,NA,NA,NA,NA,NA,NA,NA
a3e80,Shallow Question,html.Page,5_0_2_0_0_1_0,NA,NA,form submission,6106.3,794405.5,794364.868,794398.2,800504.5,800504.7,2023-10-17T15:49:40Z,800531.288,NULL,Beweis,ushahidi,s,marudio,kizuizi,mtendaji,ushahidi,NA,NA,2,NA,NA,NA,NA,NA,NA,NA,NA,NA,NA,NA,NA,NA,NA,NA,NA,NA,NA,NA
a3e80,"""Richtig""-Screen",canvas.Screen,5_0_2_0_0_1_1,NA,NA,timeout,5000.3550000001,800507.4,800514.622,800531.288,805514.977,805518.1,2023-10-17T15:49:45Z,805531.643,NULL,Beweis,ushahidi,s,marudio,kizuizi,mtendaji,NA,sdf,1,2,NA,NA,NA,NA,NA,NA,NA,NA,NA,NA,NA,NA,NA,NA,NA,NA,NA,NA,NA
a3e80,"""Falsch""-Screen",canvas.Screen,5_0_2_0_0_1_2,NA,NA,skipped,NA,805522.1,NA,NA,805514.977,805522.1,2023-10-17T15:49:45Z,805531.643,NULL,Beweis,ushahidi,s,marudio,kizuizi,mtendaji,NA,sdf,NA,2,NA,NA,NA,NA,NA,NA,NA,NA,NA,NA,NA,NA,NA,NA,NA,NA,NA,NA,NA
a3e80,shallow,flow.Sequence,5_0_2_0_0_1,NA,NA,completion,11116.777,794405.5,794364.868,794398.2,805514.977,805522.3,2023-10-17T15:49:45Z,805531.643,NULL,Beweis,ushahidi,s,marudio,kizuizi,mtendaji,NA,sdf,NA,2,NA,NA,NA,NA,NA,NA,NA,NA,NA,NA,NA,NA,NA,NA,NA,NA,NA,NA,NA
a3e80,task,flow.Sequence,5_0_2_0_0,NA,NA,completion,11116.777,794405.3,794364.868,794398.2,805514.977,805522.4,2023-10-17T15:49:45Z,805531.643,NULL,Beweis,ushahidi,s,marudio,kizuizi,mtendaji,NA,sdf,NA,2,NA,NA,NA,NA,NA,NA,NA,NA,NA,NA,NA,NA,NA,NA,NA,NA,NA,NA,NA
a3e80,deep,flow.Sequence,5_0_2_0_1_0,NA,NA,skipped,NA,805522.4,NA,NA,805514.977,805522.5,2023-10-17T15:49:45Z,805531.643,NULL,Aufstand,ugomaji,s,mazidio,msingi,kujieleza,NA,sdf,NA,2,NA,NA,NA,NA,NA,NA,NA,NA,NA,NA,NA,NA,NA,NA,NA,NA,NA,NA,NA
a3e80,Shallow Question,html.Page,5_0_2_0_1_1_0,NA,NA,form submission,3456.0569999997,805522.5,805514.977,805531.643,808987.7,808988,2023-10-17T15:49:48Z,809014.837,NULL,Aufstand,ugomaji,s,mazidio,msingi,kujieleza,ugomaji,NA,NA,2,NA,NA,NA,NA,NA,NA,NA,NA,NA,NA,NA,NA,NA,NA,NA,NA,NA,NA,NA
