observation,sender,sender_type,sender_id,response,response_action,ended_on,duration,time_run,time_render,time_show,time_end,time_commit,timestamp,time_switch,distractors,german,swahili,enc,distractor1,distractor2,distractor3,response_2,x,correct,x_2,url_vp,url_sess,meta_labjs_version,meta_location,meta_user_agent,meta_platform,meta_language,meta_locale,meta_time_zone,meta_timezone_offset,meta_screen_width,meta_screen_height,meta_scroll_width,meta_scroll_height,meta_window_inner_width,meta_window_inner_height,meta_device_pixel_ratio,meta_labjs_build_flavor,meta_labjs_build_commit
53c89,Introduction general,canvas.Screen,0,weiter,keypress(q),response,93448.529999976,680.59999996424,607.702,674.37,94122.899999976,94132.5,2023-09-25T15:43:15Z,94143.144,NULL,NA,NA,NA,NA,NA,NA,NA,NA,NA,NA,131,1,20.2.4,https://neurocog.fernuni.ch/studies/vweber/encoding_immediate/index.html?vp=131&sess=1,"Mozilla/5.0 (Macintosh; Intel Mac OS X 10_15_7) AppleWebKit/537.36 (KHTML, like Gecko) Chrome/116.0.0.0 Safari/537.36",MacIntel,de-DE,de,Europe/Zurich,-120,1440,900,1440,673,1440,721,2,production,f5b4a49f956347addd546a832a3327688c2c0fef
53c89,Introduction practice,canvas.Screen,1_0,NA,keypress(Space),response,3858.0559999881,94132.800000012,94126.477,94143.144,98001.199999988,98004.099999964,2023-09-25T15:43:19Z,98010.234,NULL,NA,NA,NA,NA,NA,NA,NA,NA,NA,NA,NA,NA,NA,NA,NA,NA,NA,NA,NA,NA,NA,NA,NA,NA,NA,NA,NA,NA,NA
53c89,deep,flow.Sequence,1_1_0_0,NA,NA,skipped,NA,98004.399999976,NA,NA,98001.199999988,98004.699999988,2023-09-25T15:43:19Z,98010.234,"c(""distractor1"", ""distractor2"", ""distractor3"")",Kritik,lawama,s,dereva,nafasi,mawazo,NA,NA,NA,NA,NA,NA,NA,NA,NA,NA,NA,NA,NA,NA,NA,NA,NA,NA,NA,NA,NA,NA,NA
53c89,Shallow Question,html.Page,1_1_0_1_0,NA,NA,form submission,17967.665999976,98004.800000012,97993.567,98010.234,115977.89999998,115978.09999996,2023-09-25T15:43:37Z,115977.289,"c(""distractor1"", ""distractor2"", ""distractor3"")",Kritik,lawama,s,dereva,nafasi,mawazo,mawazo,NA,NA,NA,NA,NA,NA,NA,NA,NA,NA,NA,NA,NA,NA,NA,NA,NA,NA,NA,NA,NA,NA
53c89,"""Richtig""-Screen",canvas.Screen,1_1_0_1_1,NA,NA,skipped,NA,115979.39999998,NA,NA,115977.89999998,115979.5,2023-09-25T15:43:37Z,115977.289,"c(""distractor1"", ""distractor2"", ""distractor3"")",Kritik,lawama,s,dereva,nafasi,mawazo,NA,NA,NA,NA,NA,NA,NA,NA,NA,NA,NA,NA,NA,NA,NA,NA,NA,NA,NA,NA,NA,NA,NA
53c89,"""Falsch""-Screen",canvas.Screen,1_1_0_1_2,NA,NA,timeout,5000.1,115980.39999998,115960.622,115977.289,120960.722,120964.89999998,2023-09-25T15:43:42Z,120977.389,"c(""distractor1"", ""distractor2"", ""distractor3"")",Kritik,lawama,s,dereva,nafasi,mawazo,NA,NA,0,NA,NA,NA,NA,NA,NA,NA,NA,NA,NA,NA,NA,NA,NA,NA,NA,NA,NA,NA,NA
53c89,shallow,flow.Sequence,1_1_0_1,NA,NA,completion,22950.488,98004.800000012,97993.567,98010.234,120960.722,120965.39999998,2023-09-25T15:43:42Z,120977.389,"c(""distractor1"", ""distractor2"", ""distractor3"")",Kritik,lawama,s,dereva,nafasi,mawazo,NA,NA,NA,NA,NA,NA,NA,NA,NA,NA,NA,NA,NA,NA,NA,NA,NA,NA,NA,NA,NA,NA,NA
53c89,task,flow.Sequence,1_1_0,NA,NA,completion,22950.488,98004.300000012,97993.567,98010.234,120960.722,120965.59999996,2023-09-25T15:43:42Z,120977.389,"c(""distractor1"", ""distractor2"", ""distractor3"")",Kritik,lawama,s,dereva,nafasi,mawazo,NA,NA,NA,NA,NA,NA,NA,NA,NA,NA,NA,NA,NA,NA,NA,NA,NA,NA,NA,NA,NA,NA,NA
53c89,deep,flow.Sequence,1_1_1_0,NA,NA,skipped,NA,120965.89999998,NA,NA,120960.722,120966.09999996,2023-09-25T15:43:42Z,120977.389,"c(""distractor1"", ""distractor2"", ""distractor3"")",Gegenwart,hadhara,s,katiba,jokofu,mikopo,NA,NA,NA,NA,NA,NA,NA,NA,NA,NA,NA,NA,NA,NA,NA,NA,NA,NA,NA,NA,NA,NA,NA
53c89,Shallow Question,html.Page,1_1_1_1_0,NA,NA,form submission,16381.111,120966.30000001,120960.722,120977.389,137358.5,137359.09999996,2023-09-25T15:43:59Z,137361.131,"c(""distractor1"", ""distractor2"", ""distractor3"")",Gegenwart,hadhara,s,katiba,jokofu,mikopo,katiba,NA,NA,NA,NA,NA,NA,NA,NA,NA,NA,NA,NA,NA,NA,NA,NA,NA,NA,NA,NA,NA,NA
53c89,"""Richtig""-Screen",canvas.Screen,1_1_1_1_1,NA,NA,skipped,NA,137362.19999999,NA,NA,137358.5,137362.30000001,2023-09-25T15:43:59Z,137361.131,"c(""distractor1"", ""distractor2"", ""distractor3"")",Gegenwart,hadhara,s,katiba,jokofu,mikopo,NA,NA,NA,NA,NA,NA,NA,NA,NA,NA,NA,NA,NA,NA,NA,NA,NA,NA,NA,NA,NA,NA,NA
53c89,"""Falsch""-Screen",canvas.Screen,1_1_1_1_2,NA,NA,timeout,5000.142,137363.09999996,137344.464,137361.131,142344.606,142347.80000001,2023-09-25T15:44:04Z,142361.273,"c(""distractor1"", ""distractor2"", ""distractor3"")",Gegenwart,hadhara,s,katiba,jokofu,mikopo,NA,NA,0,NA,NA,NA,NA,NA,NA,NA,NA,NA,NA,NA,NA,NA,NA,NA,NA,NA,NA,NA,NA
53c89,shallow,flow.Sequence,1_1_1_1,NA,NA,completion,21367.217,120966.30000001,120960.722,120977.389,142344.606,142348.30000001,2023-09-25T15:44:04Z,142361.273,"c(""distractor1"", ""distractor2"", ""distractor3"")",Gegenwart,hadhara,s,katiba,jokofu,mikopo,NA,NA,NA,NA,NA,NA,NA,NA,NA,NA,NA,NA,NA,NA,NA,NA,NA,NA,NA,NA,NA,NA,NA
53c89,task,flow.Sequence,1_1_1,NA,NA,completion,21367.217,120965.89999998,120960.722,120977.389,142344.606,142348.59999996,2023-09-25T15:44:04Z,142361.273,"c(""distractor1"", ""distractor2"", ""distractor3"")",Gegenwart,hadhara,s,katiba,jokofu,mikopo,NA,NA,NA,NA,NA,NA,NA,NA,NA,NA,NA,NA,NA,NA,NA,NA,NA,NA,NA,NA,NA,NA,NA
53c89,Deep Question,html.Page,1_1_2_0_0,NA,NA,form submission,9171.8269999643,142349,142344.606,142361.273,151533.09999996,151533.5,2023-09-25T15:44:13Z,151544.79,"c(""distractor1"", ""distractor2"", ""distractor3"")",Schatten,kivuli,d,NA,NA,NA,f,NA,NA,NA,NA,NA,NA,NA,NA,NA,NA,NA,NA,NA,NA,NA,NA,NA,NA,NA,NA,NA,NA
53c89,"""Richtig""-Screen",canvas.Screen,1_1_2_0_1,NA,NA,skipped,NA,151536.39999998,NA,NA,151533.09999996,151536.5,2023-09-25T15:44:13Z,151544.79,"c(""distractor1"", ""distractor2"", ""distractor3"")",Schatten,kivuli,d,NA,NA,NA,NA,NA,NA,NA,NA,NA,NA,NA,NA,NA,NA,NA,NA,NA,NA,NA,NA,NA,NA,NA,NA,NA,NA
53c89,"""Falsch""-Screen",canvas.Screen,1_1_2_0_2,NA,NA,timeout,5000.11,151537.5,151528.123,151544.79,156528.233,156532.5,2023-09-25T15:44:18Z,156544.9,"c(""distractor1"", ""distractor2"", ""distractor3"")",Schatten,kivuli,d,NA,NA,NA,NA,NA,0,NA,NA,NA,NA,NA,NA,NA,NA,NA,NA,NA,NA,NA,NA,NA,NA,NA,NA,NA,NA
53c89,deep,flow.Sequence,1_1_2_0,NA,NA,completion,14166.96,142348.89999998,142344.606,142361.273,156528.233,156533,2023-09-25T15:44:18Z,156544.9,"c(""distractor1"", ""distractor2"", ""distractor3"")",Schatten,kivuli,d,NA,NA,NA,NA,NA,NA,NA,NA,NA,NA,NA,NA,NA,NA,NA,NA,NA,NA,NA,NA,NA,NA,NA,NA,NA,NA
53c89,shallow,flow.Sequence,1_1_2_1,NA,NA,skipped,NA,156533.09999996,NA,NA,156528.233,156533.19999999,2023-09-25T15:44:18Z,156544.9,"c(""distractor1"", ""distractor2"", ""distractor3"")",Schatten,kivuli,d,NA,NA,NA,NA,NA,NA,NA,NA,NA,NA,NA,NA,NA,NA,NA,NA,NA,NA,NA,NA,NA,NA,NA,NA,NA,NA
53c89,task,flow.Sequence,1_1_2,NA,NA,completion,14166.96,142348.80000001,142344.606,142361.273,156528.233,156533.39999998,2023-09-25T15:44:18Z,156544.9,"c(""distractor1"", ""distractor2"", ""distractor3"")",Schatten,kivuli,d,NA,NA,NA,NA,NA,NA,NA,NA,NA,NA,NA,NA,NA,NA,NA,NA,NA,NA,NA,NA,NA,NA,NA,NA,NA,NA
53c89,Deep Question,html.Page,1_1_3_0_0,NA,NA,form submission,10793.299999988,156533.59999996,156528.233,156544.9,167338.19999999,167338.59999996,2023-09-25T15:44:29Z,167345.13,"c(""distractor1"", ""distractor2"", ""distractor3"")",Qualität,mtindo,d,NA,NA,NA,qua,NA,NA,NA,NA,NA,NA,NA,NA,NA,NA,NA,NA,NA,NA,NA,NA,NA,NA,NA,NA,NA,NA
53c89,"""Richtig""-Screen",canvas.Screen,1_1_3_0_1,NA,NA,skipped,NA,167341.69999999,NA,NA,167338.19999999,167341.69999999,2023-09-25T15:44:29Z,167345.13,"c(""distractor1"", ""distractor2"", ""distractor3"")",Qualität,mtindo,d,NA,NA,NA,NA,NA,NA,NA,NA,NA,NA,NA,NA,NA,NA,NA,NA,NA,NA,NA,NA,NA,NA,NA,NA,NA,NA
53c89,"""Falsch""-Screen",canvas.Screen,1_1_3_0_2,NA,NA,timeout,5000.1,167342.59999996,167328.463,167345.13,172328.563,172333,2023-09-25T15:44:34Z,172345.23,"c(""distractor1"", ""distractor2"", ""distractor3"")",Qualität,mtindo,d,NA,NA,NA,NA,NA,0,NA,NA,NA,NA,NA,NA,NA,NA,NA,NA,NA,NA,NA,NA,NA,NA,NA,NA,NA,NA
53c89,deep,flow.Sequence,1_1_3_0,NA,NA,completion,15783.663,156533.59999996,156528.233,156544.9,172328.563,172333.30000001,2023-09-25T15:44:34Z,172345.23,"c(""distractor1"", ""distractor2"", ""distractor3"")",Qualität,mtindo,d,NA,NA,NA,NA,NA,NA,NA,NA,NA,NA,NA,NA,NA,NA,NA,NA,NA,NA,NA,NA,NA,NA,NA,NA,NA,NA
53c89,shallow,flow.Sequence,1_1_3_1,NA,NA,skipped,NA,172333.39999998,NA,NA,172328.563,172333.59999996,2023-09-25T15:44:34Z,172345.23,"c(""distractor1"", ""distractor2"", ""distractor3"")",Qualität,mtindo,d,NA,NA,NA,NA,NA,NA,NA,NA,NA,NA,NA,NA,NA,NA,NA,NA,NA,NA,NA,NA,NA,NA,NA,NA,NA,NA
53c89,task,flow.Sequence,1_1_3,NA,NA,completion,15783.663,156533.59999996,156528.233,156544.9,172328.563,172333.69999999,2023-09-25T15:44:34Z,172345.23,"c(""distractor1"", ""distractor2"", ""distractor3"")",Qualität,mtindo,d,NA,NA,NA,NA,NA,NA,NA,NA,NA,NA,NA,NA,NA,NA,NA,NA,NA,NA,NA,NA,NA,NA,NA,NA,NA,NA
53c89,Deep Question,html.Page,1_1_4_0_0,NA,NA,form submission,4457.5700000119,172333.89999998,172328.563,172345.23,176802.80000001,176803.19999999,2023-09-25T15:44:38Z,176812.028,"c(""distractor1"", ""distractor2"", ""distractor3"")",Gesundheit,salama,d,NA,NA,NA,d,NA,NA,NA,NA,NA,NA,NA,NA,NA,NA,NA,NA,NA,NA,NA,NA,NA,NA,NA,NA,NA,NA
53c89,"""Richtig""-Screen",canvas.Screen,1_1_4_0_1,NA,NA,skipped,NA,176804.39999998,NA,NA,176802.80000001,176804.59999996,2023-09-25T15:44:38Z,176812.028,"c(""distractor1"", ""distractor2"", ""distractor3"")",Gesundheit,salama,d,NA,NA,NA,NA,NA,NA,NA,NA,NA,NA,NA,NA,NA,NA,NA,NA,NA,NA,NA,NA,NA,NA,NA,NA,NA,NA
53c89,"""Falsch""-Screen",canvas.Screen,1_1_4_0_2,NA,NA,timeout,5000.1,176805.19999999,176795.361,176812.028,181795.461,181800.30000001,2023-09-25T15:44:43Z,181812.128,"c(""distractor1"", ""distractor2"", ""distractor3"")",Gesundheit,salama,d,NA,NA,NA,NA,NA,0,NA,NA,NA,NA,NA,NA,NA,NA,NA,NA,NA,NA,NA,NA,NA,NA,NA,NA,NA,NA
53c89,deep,flow.Sequence,1_1_4_0,NA,NA,completion,9450.231,172333.89999998,172328.563,172345.23,181795.461,181800.59999996,2023-09-25T15:44:43Z,181812.128,"c(""distractor1"", ""distractor2"", ""distractor3"")",Gesundheit,salama,d,NA,NA,NA,NA,NA,NA,NA,NA,NA,NA,NA,NA,NA,NA,NA,NA,NA,NA,NA,NA,NA,NA,NA,NA,NA,NA
53c89,shallow,flow.Sequence,1_1_4_1,NA,NA,skipped,NA,181800.80000001,NA,NA,181795.461,181800.89999998,2023-09-25T15:44:43Z,181812.128,"c(""distractor1"", ""distractor2"", ""distractor3"")",Gesundheit,salama,d,NA,NA,NA,NA,NA,NA,NA,NA,NA,NA,NA,NA,NA,NA,NA,NA,NA,NA,NA,NA,NA,NA,NA,NA,NA,NA
53c89,task,flow.Sequence,1_1_4,NA,NA,completion,9450.231,172333.80000001,172328.563,172345.23,181795.461,181801.09999996,2023-09-25T15:44:43Z,181812.128,"c(""distractor1"", ""distractor2"", ""distractor3"")",Gesundheit,salama,d,NA,NA,NA,NA,NA,NA,NA,NA,NA,NA,NA,NA,NA,NA,NA,NA,NA,NA,NA,NA,NA,NA,NA,NA,NA,NA
53c89,deep,flow.Sequence,1_1_5_0,NA,NA,skipped,NA,181801.30000001,NA,NA,181795.461,181801.30000001,2023-09-25T15:44:43Z,181812.128,"c(""distractor1"", ""distractor2"", ""distractor3"")",Rückhalt,msaada,s,muhula,auwali,kiwimbe,NA,NA,NA,NA,NA,NA,NA,NA,NA,NA,NA,NA,NA,NA,NA,NA,NA,NA,NA,NA,NA,NA,NA
53c89,Shallow Question,html.Page,1_1_5_1_0,NA,NA,form submission,4705.2719999762,181801.59999996,181795.461,181812.128,186517.39999998,186517.80000001,2023-09-25T15:44:48Z,186528.976,"c(""distractor1"", ""distractor2"", ""distractor3"")",Rückhalt,msaada,s,muhula,auwali,kiwimbe,msaada,NA,NA,NA,NA,NA,NA,NA,NA,NA,NA,NA,NA,NA,NA,NA,NA,NA,NA,NA,NA,NA,NA
53c89,"""Richtig""-Screen",canvas.Screen,1_1_5_1_1,NA,NA,timeout,5000.1,186519.30000001,186512.309,186528.976,191512.409,191517.30000001,2023-09-25T15:44:53Z,191529.076,"c(""distractor1"", ""distractor2"", ""distractor3"")",Rückhalt,msaada,s,muhula,auwali,kiwimbe,NA,NA,1,NA,NA,NA,NA,NA,NA,NA,NA,NA,NA,NA,NA,NA,NA,NA,NA,NA,NA,NA,NA
53c89,"""Falsch""-Screen",canvas.Screen,1_1_5_1_2,NA,NA,skipped,NA,191519.5,NA,NA,191512.409,191519.69999999,2023-09-25T15:44:53Z,191529.076,"c(""distractor1"", ""distractor2"", ""distractor3"")",Rückhalt,msaada,s,muhula,auwali,kiwimbe,NA,NA,NA,NA,NA,NA,NA,NA,NA,NA,NA,NA,NA,NA,NA,NA,NA,NA,NA,NA,NA,NA,NA
53c89,shallow,flow.Sequence,1_1_5_1,NA,NA,completion,9700.281,181801.5,181795.461,181812.128,191512.409,191519.80000001,2023-09-25T15:44:53Z,191529.076,"c(""distractor1"", ""distractor2"", ""distractor3"")",Rückhalt,msaada,s,muhula,auwali,kiwimbe,NA,NA,NA,NA,NA,NA,NA,NA,NA,NA,NA,NA,NA,NA,NA,NA,NA,NA,NA,NA,NA,NA,NA
53c89,task,flow.Sequence,1_1_5,NA,NA,completion,9700.281,181801.19999999,181795.461,181812.128,191512.409,191519.89999998,2023-09-25T15:44:53Z,191529.076,"c(""distractor1"", ""distractor2"", ""distractor3"")",Rückhalt,msaada,s,muhula,auwali,kiwimbe,NA,NA,NA,NA,NA,NA,NA,NA,NA,NA,NA,NA,NA,NA,NA,NA,NA,NA,NA,NA,NA,NA,NA
53c89,block,flow.Loop,1_1,NA,NA,completion,93502.175,98004.300000012,97993.567,98010.234,191512.409,191520.09999996,2023-09-25T15:44:53Z,191529.076,"c(""distractor1"", ""distractor2"", ""distractor3"")",NA,NA,NA,NA,NA,NA,NA,NA,NA,NA,NA,NA,NA,NA,NA,NA,NA,NA,NA,NA,NA,NA,NA,NA,NA,NA,NA,NA,NA
53c89,Practice,flow.Sequence,1,NA,NA,completion,97369.265,94132.800000012,94126.477,94143.144,191512.409,191520.19999999,2023-09-25T15:44:53Z,191529.076,NULL,NA,NA,NA,NA,NA,NA,NA,NA,NA,NA,NA,NA,NA,NA,NA,NA,NA,NA,NA,NA,NA,NA,NA,NA,NA,NA,NA,NA,NA
53c89,Experiment start,canvas.Screen,2,weiter,keypress(q),response,32205.724000012,191520.30000001,191512.409,191529.076,223734.80000001,223740.69999999,2023-09-25T15:45:25Z,223796.501,NULL,NA,NA,NA,NA,NA,NA,NA,NA,NA,NA,NA,NA,NA,NA,NA,NA,NA,NA,NA,NA,NA,NA,NA,NA,NA,NA,NA,NA,NA
53c89,deep,flow.Sequence,3_0_0_0_0_0,NA,NA,skipped,NA,223793.89999998,NA,NA,223734.80000001,223793.89999998,2023-09-25T15:45:25Z,223796.501,NULL,Niveau,kiwango,s,usimamizi,mwamali,mshairi,NA,sdf,NA,0,NA,NA,NA,NA,NA,NA,NA,NA,NA,NA,NA,NA,NA,NA,NA,NA,NA,NA,NA
53c89,Shallow Question,html.Page,3_0_0_0_0_1_0,NA,NA,form submission,9805.999,223794,223779.834,223796.501,233602.5,233603,2023-09-25T15:45:35Z,233613.402,NULL,Niveau,kiwango,s,usimamizi,mwamali,mshairi,mshairi,NA,NA,0,NA,NA,NA,NA,NA,NA,NA,NA,NA,NA,NA,NA,NA,NA,NA,NA,NA,NA,NA
53c89,"""Richtig""-Screen",canvas.Screen,3_0_0_0_0_1_1,NA,NA,skipped,NA,233606.09999996,NA,NA,233602.5,233606.30000001,2023-09-25T15:45:35Z,233613.402,NULL,Niveau,kiwango,s,usimamizi,mwamali,mshairi,NA,sdf,NA,0,NA,NA,NA,NA,NA,NA,NA,NA,NA,NA,NA,NA,NA,NA,NA,NA,NA,NA,NA
53c89,"""Falsch""-Screen",canvas.Screen,3_0_0_0_0_1_2,NA,NA,timeout,5000.263,233607.30000001,233596.735,233613.402,238596.998,238601.09999996,2023-09-25T15:45:40Z,238613.665,NULL,Niveau,kiwango,s,usimamizi,mwamali,mshairi,NA,sdf,0,0,NA,NA,NA,NA,NA,NA,NA,NA,NA,NA,NA,NA,NA,NA,NA,NA,NA,NA,NA
53c89,shallow,flow.Sequence,3_0_0_0_0_1,NA,NA,completion,14800.497,223794,223779.834,223796.501,238596.998,238601.5,2023-09-25T15:45:40Z,238613.665,NULL,Niveau,kiwango,s,usimamizi,mwamali,mshairi,NA,sdf,NA,0,NA,NA,NA,NA,NA,NA,NA,NA,NA,NA,NA,NA,NA,NA,NA,NA,NA,NA,NA
53c89,task,flow.Sequence,3_0_0_0_0,NA,NA,completion,14800.497,223793.89999998,223779.834,223796.501,238596.998,238601.69999999,2023-09-25T15:45:40Z,238613.665,NULL,Niveau,kiwango,s,usimamizi,mwamali,mshairi,NA,sdf,NA,0,NA,NA,NA,NA,NA,NA,NA,NA,NA,NA,NA,NA,NA,NA,NA,NA,NA,NA,NA
53c89,Deep Question,html.Page,3_0_0_0_1_0_0,NA,NA,form submission,9384.4349999642,238601.89999998,238596.998,238613.665,247998.09999996,247998.5,2023-09-25T15:45:49Z,248013.853,NULL,Fenster,dirisha,d,NA,NA,NA,a,NA,NA,0,NA,NA,NA,NA,NA,NA,NA,NA,NA,NA,NA,NA,NA,NA,NA,NA,NA,NA,NA
53c89,"""Richtig""-Screen",canvas.Screen,3_0_0_0_1_0_1,NA,NA,skipped,NA,247999.59999996,NA,NA,247998.09999996,247999.59999996,2023-09-25T15:45:49Z,248013.853,NULL,Fenster,dirisha,d,NA,NA,NA,NA,sdf,NA,0,NA,NA,NA,NA,NA,NA,NA,NA,NA,NA,NA,NA,NA,NA,NA,NA,NA,NA,NA
53c89,"""Falsch""-Screen",canvas.Screen,3_0_0_0_1_0_2,NA,NA,timeout,5000.102,248000.09999996,247997.186,248013.853,252997.288,253002,2023-09-25T15:45:54Z,253013.955,NULL,Fenster,dirisha,d,NA,NA,NA,NA,sdf,0,0,NA,NA,NA,NA,NA,NA,NA,NA,NA,NA,NA,NA,NA,NA,NA,NA,NA,NA,NA
53c89,deep,flow.Sequence,3_0_0_0_1_0,NA,NA,completion,14383.623,238601.89999998,238596.998,238613.665,252997.288,253002.5,2023-09-25T15:45:54Z,253013.955,NULL,Fenster,dirisha,d,NA,NA,NA,NA,sdf,NA,0,NA,NA,NA,NA,NA,NA,NA,NA,NA,NA,NA,NA,NA,NA,NA,NA,NA,NA,NA
53c89,shallow,flow.Sequence,3_0_0_0_1_1,NA,NA,skipped,NA,253002.5,NA,NA,252997.288,253002.69999999,2023-09-25T15:45:54Z,253013.955,NULL,Fenster,dirisha,d,NA,NA,NA,NA,sdf,NA,0,NA,NA,NA,NA,NA,NA,NA,NA,NA,NA,NA,NA,NA,NA,NA,NA,NA,NA,NA
53c89,task,flow.Sequence,3_0_0_0_1,NA,NA,completion,14383.623,238601.89999998,238596.998,238613.665,252997.288,253002.80000001,2023-09-25T15:45:54Z,253013.955,NULL,Fenster,dirisha,d,NA,NA,NA,NA,sdf,NA,0,NA,NA,NA,NA,NA,NA,NA,NA,NA,NA,NA,NA,NA,NA,NA,NA,NA,NA,NA
53c89,Deep Question,html.Page,3_0_0_0_2_0_0,NA,NA,form submission,4702.3450000119,253003,252997.288,253013.955,257716.30000001,257716.80000001,2023-09-25T15:45:59Z,257730.716,NULL,Entwicklung,maendeleo,d,NA,NA,NA,ent,NA,NA,0,NA,NA,NA,NA,NA,NA,NA,NA,NA,NA,NA,NA,NA,NA,NA,NA,NA,NA,NA
53c89,"""Richtig""-Screen",canvas.Screen,3_0_0_0_2_0_1,NA,NA,skipped,NA,257718,NA,NA,257716.30000001,257718.09999996,2023-09-25T15:45:59Z,257730.716,NULL,Entwicklung,maendeleo,d,NA,NA,NA,NA,sdf,NA,0,NA,NA,NA,NA,NA,NA,NA,NA,NA,NA,NA,NA,NA,NA,NA,NA,NA,NA,NA
53c89,"""Falsch""-Screen",canvas.Screen,3_0_0_0_2_0_2,NA,NA,timeout,5000.152,257718.89999998,257714.049,257730.716,262714.201,262719.19999999,2023-09-25T15:46:04Z,262730.868,NULL,Entwicklung,maendeleo,d,NA,NA,NA,NA,sdf,0,0,NA,NA,NA,NA,NA,NA,NA,NA,NA,NA,NA,NA,NA,NA,NA,NA,NA,NA,NA
53c89,deep,flow.Sequence,3_0_0_0_2_0,NA,NA,completion,9700.246,253003,252997.288,253013.955,262714.201,262719.59999996,2023-09-25T15:46:04Z,262730.868,NULL,Entwicklung,maendeleo,d,NA,NA,NA,NA,sdf,NA,0,NA,NA,NA,NA,NA,NA,NA,NA,NA,NA,NA,NA,NA,NA,NA,NA,NA,NA,NA
53c89,shallow,flow.Sequence,3_0_0_0_2_1,NA,NA,skipped,NA,262719.80000001,NA,NA,262714.201,262719.89999998,2023-09-25T15:46:04Z,262730.868,NULL,Entwicklung,maendeleo,d,NA,NA,NA,NA,sdf,NA,0,NA,NA,NA,NA,NA,NA,NA,NA,NA,NA,NA,NA,NA,NA,NA,NA,NA,NA,NA
53c89,task,flow.Sequence,3_0_0_0_2,NA,NA,completion,9700.246,253002.89999998,252997.288,253013.955,262714.201,262720,2023-09-25T15:46:04Z,262730.868,NULL,Entwicklung,maendeleo,d,NA,NA,NA,NA,sdf,NA,0,NA,NA,NA,NA,NA,NA,NA,NA,NA,NA,NA,NA,NA,NA,NA,NA,NA,NA,NA
53c89,deep,flow.Sequence,3_0_0_0_3_0,NA,NA,skipped,NA,262720.19999999,NA,NA,262714.201,262720.30000001,2023-09-25T15:46:04Z,262730.868,NULL,Schüler,mwanafunzi,s,mwekezaji,matumizi,uaminifu,NA,sdf,NA,0,NA,NA,NA,NA,NA,NA,NA,NA,NA,NA,NA,NA,NA,NA,NA,NA,NA,NA,NA
53c89,Shallow Question,html.Page,3_0_0_0_3_1_0,NA,NA,form submission,9204.632,262720.5,262714.201,262730.868,271935.5,271936,2023-09-25T15:46:13Z,271947.719,NULL,Schüler,mwanafunzi,s,mwekezaji,matumizi,uaminifu,matumizi,NA,NA,0,NA,NA,NA,NA,NA,NA,NA,NA,NA,NA,NA,NA,NA,NA,NA,NA,NA,NA,NA
53c89,"""Richtig""-Screen",canvas.Screen,3_0_0_0_3_1_1,NA,NA,skipped,NA,271938.59999996,NA,NA,271935.5,271938.59999996,2023-09-25T15:46:13Z,271947.719,NULL,Schüler,mwanafunzi,s,mwekezaji,matumizi,uaminifu,NA,sdf,NA,0,NA,NA,NA,NA,NA,NA,NA,NA,NA,NA,NA,NA,NA,NA,NA,NA,NA,NA,NA
53c89,"""Falsch""-Screen",canvas.Screen,3_0_0_0_3_1_2,NA,NA,timeout,5000.107,271939.19999999,271931.052,271947.719,276931.159,276935.09999996,2023-09-25T15:46:18Z,276947.826,NULL,Schüler,mwanafunzi,s,mwekezaji,matumizi,uaminifu,NA,sdf,0,0,NA,NA,NA,NA,NA,NA,NA,NA,NA,NA,NA,NA,NA,NA,NA,NA,NA,NA,NA
53c89,shallow,flow.Sequence,3_0_0_0_3_1,NA,NA,completion,14200.291,262720.5,262714.201,262730.868,276931.159,276935.5,2023-09-25T15:46:18Z,276947.826,NULL,Schüler,mwanafunzi,s,mwekezaji,matumizi,uaminifu,NA,sdf,NA,0,NA,NA,NA,NA,NA,NA,NA,NA,NA,NA,NA,NA,NA,NA,NA,NA,NA,NA,NA
53c89,task,flow.Sequence,3_0_0_0_3,NA,NA,completion,14200.291,262720.19999999,262714.201,262730.868,276931.159,276935.59999996,2023-09-25T15:46:18Z,276947.826,NULL,Schüler,mwanafunzi,s,mwekezaji,matumizi,uaminifu,NA,sdf,NA,0,NA,NA,NA,NA,NA,NA,NA,NA,NA,NA,NA,NA,NA,NA,NA,NA,NA,NA,NA
53c89,deep,flow.Sequence,3_0_0_0_4_0,NA,NA,skipped,NA,276935.80000001,NA,NA,276931.159,276936,2023-09-25T15:46:18Z,276947.826,NULL,Tester,wanaojaribu,s,sherti,sihiri,mlipuko,NA,sdf,NA,0,NA,NA,NA,NA,NA,NA,NA,NA,NA,NA,NA,NA,NA,NA,NA,NA,NA,NA,NA
53c89,Shallow Question,html.Page,3_0_0_0_4_1_0,NA,NA,form submission,4419.8739999881,276936,276931.159,276947.826,281367.69999999,281368.19999999,2023-09-25T15:46:23Z,281381.248,NULL,Tester,wanaojaribu,s,sherti,sihiri,mlipuko,sihiri,NA,NA,0,NA,NA,NA,NA,NA,NA,NA,NA,NA,NA,NA,NA,NA,NA,NA,NA,NA,NA,NA
53c89,"""Richtig""-Screen",canvas.Screen,3_0_0_0_4_1_1,NA,NA,skipped,NA,281369.59999996,NA,NA,281367.69999999,281369.69999999,2023-09-25T15:46:23Z,281381.248,NULL,Tester,wanaojaribu,s,sherti,sihiri,mlipuko,NA,sdf,NA,0,NA,NA,NA,NA,NA,NA,NA,NA,NA,NA,NA,NA,NA,NA,NA,NA,NA,NA,NA
53c89,"""Falsch""-Screen",canvas.Screen,3_0_0_0_4_1_2,NA,NA,timeout,5000.1,281370.30000001,281364.581,281381.248,286364.681,286366.09999996,2023-09-25T15:46:28Z,286381.348,NULL,Tester,wanaojaribu,s,sherti,sihiri,mlipuko,NA,sdf,0,0,NA,NA,NA,NA,NA,NA,NA,NA,NA,NA,NA,NA,NA,NA,NA,NA,NA,NA,NA
53c89,shallow,flow.Sequence,3_0_0_0_4_1,NA,NA,completion,9416.855,276936,276931.159,276947.826,286364.681,286366.39999998,2023-09-25T15:46:28Z,286381.348,NULL,Tester,wanaojaribu,s,sherti,sihiri,mlipuko,NA,sdf,NA,0,NA,NA,NA,NA,NA,NA,NA,NA,NA,NA,NA,NA,NA,NA,NA,NA,NA,NA,NA
53c89,task,flow.Sequence,3_0_0_0_4,NA,NA,completion,9416.855,276935.80000001,276931.159,276947.826,286364.681,286366.5,2023-09-25T15:46:28Z,286381.348,NULL,Tester,wanaojaribu,s,sherti,sihiri,mlipuko,NA,sdf,NA,0,NA,NA,NA,NA,NA,NA,NA,NA,NA,NA,NA,NA,NA,NA,NA,NA,NA,NA,NA
53c89,Deep Question,html.Page,3_0_0_0_5_0_0,NA,NA,form submission,3011.4520000119,286366.69999999,286364.681,286381.348,289392.80000001,289393.30000001,2023-09-25T15:46:31Z,289398.111,NULL,Spionage,upelelezi,d,NA,NA,NA,x,NA,NA,0,NA,NA,NA,NA,NA,NA,NA,NA,NA,NA,NA,NA,NA,NA,NA,NA,NA,NA,NA
53c89,"""Richtig""-Screen",canvas.Screen,3_0_0_0_5_0_1,NA,NA,skipped,NA,289394.5,NA,NA,289392.80000001,289394.59999996,2023-09-25T15:46:31Z,289398.111,NULL,Spionage,upelelezi,d,NA,NA,NA,NA,sdf,NA,0,NA,NA,NA,NA,NA,NA,NA,NA,NA,NA,NA,NA,NA,NA,NA,NA,NA,NA,NA
53c89,"""Falsch""-Screen",canvas.Screen,3_0_0_0_5_0_2,NA,NA,timeout,5000.1,289395.5,289381.444,289398.111,294381.544,294384.69999999,2023-09-25T15:46:36Z,294398.211,NULL,Spionage,upelelezi,d,NA,NA,NA,NA,sdf,0,0,NA,NA,NA,NA,NA,NA,NA,NA,NA,NA,NA,NA,NA,NA,NA,NA,NA,NA,NA
53c89,deep,flow.Sequence,3_0_0_0_5_0,NA,NA,completion,8000.196,286366.69999999,286364.681,286381.348,294381.544,294385.19999999,2023-09-25T15:46:36Z,294398.211,NULL,Spionage,upelelezi,d,NA,NA,NA,NA,sdf,NA,0,NA,NA,NA,NA,NA,NA,NA,NA,NA,NA,NA,NA,NA,NA,NA,NA,NA,NA,NA
53c89,shallow,flow.Sequence,3_0_0_0_5_1,NA,NA,skipped,NA,294385.30000001,NA,NA,294381.544,294385.39999998,2023-09-25T15:46:36Z,294398.211,NULL,Spionage,upelelezi,d,NA,NA,NA,NA,sdf,NA,0,NA,NA,NA,NA,NA,NA,NA,NA,NA,NA,NA,NA,NA,NA,NA,NA,NA,NA,NA
53c89,task,flow.Sequence,3_0_0_0_5,NA,NA,completion,8000.196,286366.69999999,286364.681,286381.348,294381.544,294385.59999996,2023-09-25T15:46:36Z,294398.211,NULL,Spionage,upelelezi,d,NA,NA,NA,NA,sdf,NA,0,NA,NA,NA,NA,NA,NA,NA,NA,NA,NA,NA,NA,NA,NA,NA,NA,NA,NA,NA
53c89,deep,flow.Sequence,3_0_0_0_6_0,NA,NA,skipped,NA,294385.80000001,NA,NA,294381.544,294385.89999998,2023-09-25T15:46:36Z,294398.211,NULL,Papier,karatasi,s,uchambuzi,usalama,kukataliwa,NA,sdf,NA,0,NA,NA,NA,NA,NA,NA,NA,NA,NA,NA,NA,NA,NA,NA,NA,NA,NA,NA,NA
53c89,Shallow Question,html.Page,3_0_0_0_6_1_0,NA,NA,form submission,4626.1889999761,294386,294381.544,294398.211,299024.39999998,299024.80000001,2023-09-25T15:46:40Z,299031.791,NULL,Papier,karatasi,s,uchambuzi,usalama,kukataliwa,kukataliwa,NA,NA,0,NA,NA,NA,NA,NA,NA,NA,NA,NA,NA,NA,NA,NA,NA,NA,NA,NA,NA,NA
53c89,"""Richtig""-Screen",canvas.Screen,3_0_0_0_6_1_1,NA,NA,skipped,NA,299026.19999999,NA,NA,299024.39999998,299026.30000001,2023-09-25T15:46:40Z,299031.791,NULL,Papier,karatasi,s,uchambuzi,usalama,kukataliwa,NA,sdf,NA,0,NA,NA,NA,NA,NA,NA,NA,NA,NA,NA,NA,NA,NA,NA,NA,NA,NA,NA,NA
53c89,"""Falsch""-Screen",canvas.Screen,3_0_0_0_6_1_2,NA,NA,timeout,5000.1,299026.89999998,299015.124,299031.791,304015.224,304020.09999996,2023-09-25T15:46:45Z,304031.891,NULL,Papier,karatasi,s,uchambuzi,usalama,kukataliwa,NA,sdf,0,0,NA,NA,NA,NA,NA,NA,NA,NA,NA,NA,NA,NA,NA,NA,NA,NA,NA,NA,NA
53c89,shallow,flow.Sequence,3_0_0_0_6_1,NA,NA,completion,9617.013,294385.89999998,294381.544,294398.211,304015.224,304020.39999998,2023-09-25T15:46:45Z,304031.891,NULL,Papier,karatasi,s,uchambuzi,usalama,kukataliwa,NA,sdf,NA,0,NA,NA,NA,NA,NA,NA,NA,NA,NA,NA,NA,NA,NA,NA,NA,NA,NA,NA,NA
53c89,task,flow.Sequence,3_0_0_0_6,NA,NA,completion,9617.013,294385.69999999,294381.544,294398.211,304015.224,304020.59999996,2023-09-25T15:46:45Z,304031.891,NULL,Papier,karatasi,s,uchambuzi,usalama,kukataliwa,NA,sdf,NA,0,NA,NA,NA,NA,NA,NA,NA,NA,NA,NA,NA,NA,NA,NA,NA,NA,NA,NA,NA
53c89,Deep Question,html.Page,3_0_0_0_7_0_0,NA,NA,form submission,2850.3089999881,304020.89999998,304015.224,304031.891,306882.19999999,306882.69999999,2023-09-25T15:46:48Z,306881.948,NULL,Vorwurf,mashtaka,d,NA,NA,NA,er,NA,NA,0,NA,NA,NA,NA,NA,NA,NA,NA,NA,NA,NA,NA,NA,NA,NA,NA,NA,NA,NA
53c89,"""Richtig""-Screen",canvas.Screen,3_0_0_0_7_0_1,NA,NA,skipped,NA,306883.69999999,NA,NA,306882.19999999,306883.89999998,2023-09-25T15:46:48Z,306881.948,NULL,Vorwurf,mashtaka,d,NA,NA,NA,NA,sdf,NA,0,NA,NA,NA,NA,NA,NA,NA,NA,NA,NA,NA,NA,NA,NA,NA,NA,NA,NA,NA
53c89,"""Falsch""-Screen",canvas.Screen,3_0_0_0_7_0_2,NA,NA,timeout,5000.122,306884.5,306865.281,306881.948,311865.403,311870.19999999,2023-09-25T15:46:53Z,311882.07,NULL,Vorwurf,mashtaka,d,NA,NA,NA,NA,sdf,0,0,NA,NA,NA,NA,NA,NA,NA,NA,NA,NA,NA,NA,NA,NA,NA,NA,NA,NA,NA
53c89,deep,flow.Sequence,3_0_0_0_7_0,NA,NA,completion,7833.512,304020.80000001,304015.224,304031.891,311865.403,311870.69999999,2023-09-25T15:46:53Z,311882.07,NULL,Vorwurf,mashtaka,d,NA,NA,NA,NA,sdf,NA,0,NA,NA,NA,NA,NA,NA,NA,NA,NA,NA,NA,NA,NA,NA,NA,NA,NA,NA,NA
53c89,shallow,flow.Sequence,3_0_0_0_7_1,NA,NA,skipped,NA,311870.80000001,NA,NA,311865.403,311870.89999998,2023-09-25T15:46:53Z,311882.07,NULL,Vorwurf,mashtaka,d,NA,NA,NA,NA,sdf,NA,0,NA,NA,NA,NA,NA,NA,NA,NA,NA,NA,NA,NA,NA,NA,NA,NA,NA,NA,NA
53c89,task,flow.Sequence,3_0_0_0_7,NA,NA,completion,7833.512,304020.69999999,304015.224,304031.891,311865.403,311871.09999996,2023-09-25T15:46:53Z,311882.07,NULL,Vorwurf,mashtaka,d,NA,NA,NA,NA,sdf,NA,0,NA,NA,NA,NA,NA,NA,NA,NA,NA,NA,NA,NA,NA,NA,NA,NA,NA,NA,NA
53c89,block,flow.Loop,3_0_0_0,NA,NA,completion,88068.902,223793.89999998,223779.834,223796.501,311865.403,311871.30000001,2023-09-25T15:46:53Z,311882.07,NULL,NA,NA,NA,NA,NA,NA,NA,sdf,NA,0,NA,NA,NA,NA,NA,NA,NA,NA,NA,NA,NA,NA,NA,NA,NA,NA,NA,NA,NA
53c89,weiter,canvas.Screen,3_0_0_1,sdf,keypress(Space),response,1474.7300000119,311871.5,311865.403,311882.07,313356.80000001,313363,2023-09-25T15:46:55Z,313398.767,NULL,NA,NA,NA,NA,NA,NA,NA,sdf,NA,0,NA,NA,NA,NA,NA,NA,NA,NA,NA,NA,NA,NA,NA,NA,NA,NA,NA,NA,NA
53c89,check continue,flow.Sequence,3_0_0,NA,NA,completion,89560.299000012,223793.89999998,223779.834,223796.501,313356.80000001,313363.30000001,2023-09-25T15:46:55Z,313398.767,NULL,NA,NA,NA,NA,NA,NA,NA,sdf,NA,0,NA,NA,NA,NA,NA,NA,NA,NA,NA,NA,NA,NA,NA,NA,NA,NA,NA,NA,NA
53c89,deep,flow.Sequence,3_0_1_0_0_0,NA,NA,skipped,NA,313389.59999996,NA,NA,313356.80000001,313389.69999999,2023-09-25T15:46:55Z,313398.767,NULL,Niveau,kiwango,s,usimamizi,mwamali,mshairi,NA,sdfdsf,NA,1,NA,NA,NA,NA,NA,NA,NA,NA,NA,NA,NA,NA,NA,NA,NA,NA,NA,NA,NA
53c89,Shallow Question,html.Page,3_0_1_0_0_1_0,NA,NA,form submission,5008.4329999881,313389.80000001,313382.1,313398.767,318407.19999999,318407.69999999,2023-09-25T15:47:00Z,318415.534,NULL,Niveau,kiwango,s,usimamizi,mwamali,mshairi,mwamali,NA,NA,1,NA,NA,NA,NA,NA,NA,NA,NA,NA,NA,NA,NA,NA,NA,NA,NA,NA,NA,NA
53c89,"""Richtig""-Screen",canvas.Screen,3_0_1_0_0_1_1,NA,NA,skipped,NA,318410.5,NA,NA,318407.19999999,318410.59999996,2023-09-25T15:47:00Z,318415.534,NULL,Niveau,kiwango,s,usimamizi,mwamali,mshairi,NA,sdfdsf,NA,1,NA,NA,NA,NA,NA,NA,NA,NA,NA,NA,NA,NA,NA,NA,NA,NA,NA,NA,NA
53c89,"""Falsch""-Screen",canvas.Screen,3_0_1_0_0_1_2,NA,NA,timeout,5000.146,318411.19999999,318398.867,318415.534,323399.013,323403.39999998,2023-09-25T15:47:05Z,323415.68,NULL,Niveau,kiwango,s,usimamizi,mwamali,mshairi,NA,sdfdsf,0,1,NA,NA,NA,NA,NA,NA,NA,NA,NA,NA,NA,NA,NA,NA,NA,NA,NA,NA,NA
53c89,shallow,flow.Sequence,3_0_1_0_0_1,NA,NA,completion,10000.246,313389.80000001,313382.1,313398.767,323399.013,323403.69999999,2023-09-25T15:47:05Z,323415.68,NULL,Niveau,kiwango,s,usimamizi,mwamali,mshairi,NA,sdfdsf,NA,1,NA,NA,NA,NA,NA,NA,NA,NA,NA,NA,NA,NA,NA,NA,NA,NA,NA,NA,NA
53c89,task,flow.Sequence,3_0_1_0_0,NA,NA,completion,10000.246,313389.59999996,313382.1,313398.767,323399.013,323404,2023-09-25T15:47:05Z,323415.68,NULL,Niveau,kiwango,s,usimamizi,mwamali,mshairi,NA,sdfdsf,NA,1,NA,NA,NA,NA,NA,NA,NA,NA,NA,NA,NA,NA,NA,NA,NA,NA,NA,NA,NA
53c89,Deep Question,html.Page,3_0_1_0_1_0_0,NA,NA,form submission,6186.6200000119,323404.19999999,323399.013,323415.68,329602.30000001,329602.80000001,2023-09-25T15:47:11Z,329615.804,NULL,Vorwurf,mashtaka,d,NA,NA,NA,d,NA,NA,1,NA,NA,NA,NA,NA,NA,NA,NA,NA,NA,NA,NA,NA,NA,NA,NA,NA,NA,NA
53c89,"""Richtig""-Screen",canvas.Screen,3_0_1_0_1_0_1,NA,NA,skipped,NA,329606.30000001,NA,NA,329602.30000001,329606.5,2023-09-25T15:47:11Z,329615.804,NULL,Vorwurf,mashtaka,d,NA,NA,NA,NA,sdfdsf,NA,1,NA,NA,NA,NA,NA,NA,NA,NA,NA,NA,NA,NA,NA,NA,NA,NA,NA,NA,NA
53c89,"""Falsch""-Screen",canvas.Screen,3_0_1_0_1_0_2,NA,NA,timeout,5000.155,329607.80000001,329599.137,329615.804,334599.292,334603.39999998,2023-09-25T15:47:16Z,334615.959,NULL,Vorwurf,mashtaka,d,NA,NA,NA,NA,sdfdsf,0,1,NA,NA,NA,NA,NA,NA,NA,NA,NA,NA,NA,NA,NA,NA,NA,NA,NA,NA,NA
53c89,deep,flow.Sequence,3_0_1_0_1_0,NA,NA,completion,11183.612,323404.19999999,323399.013,323415.68,334599.292,334603.80000001,2023-09-25T15:47:16Z,334615.959,NULL,Vorwurf,mashtaka,d,NA,NA,NA,NA,sdfdsf,NA,1,NA,NA,NA,NA,NA,NA,NA,NA,NA,NA,NA,NA,NA,NA,NA,NA,NA,NA,NA
53c89,shallow,flow.Sequence,3_0_1_0_1_1,NA,NA,skipped,NA,334603.80000001,NA,NA,334599.292,334604,2023-09-25T15:47:16Z,334615.959,NULL,Vorwurf,mashtaka,d,NA,NA,NA,NA,sdfdsf,NA,1,NA,NA,NA,NA,NA,NA,NA,NA,NA,NA,NA,NA,NA,NA,NA,NA,NA,NA,NA
53c89,task,flow.Sequence,3_0_1_0_1,NA,NA,completion,11183.612,323404.09999996,323399.013,323415.68,334599.292,334604.19999999,2023-09-25T15:47:16Z,334615.959,NULL,Vorwurf,mashtaka,d,NA,NA,NA,NA,sdfdsf,NA,1,NA,NA,NA,NA,NA,NA,NA,NA,NA,NA,NA,NA,NA,NA,NA,NA,NA,NA,NA
53c89,deep,flow.Sequence,3_0_1_0_2_0,NA,NA,skipped,NA,334604.30000001,NA,NA,334599.292,334604.39999998,2023-09-25T15:47:16Z,334615.959,NULL,Papier,karatasi,s,uchambuzi,usalama,kukataliwa,NA,sdfdsf,NA,1,NA,NA,NA,NA,NA,NA,NA,NA,NA,NA,NA,NA,NA,NA,NA,NA,NA,NA,NA
53c89,Shallow Question,html.Page,3_0_1_0_2_1_0,NA,NA,form submission,6628.7409999881,334604.59999996,334599.292,334615.959,341244.69999999,341245.19999999,2023-09-25T15:47:22Z,341249.425,NULL,Papier,karatasi,s,uchambuzi,usalama,kukataliwa,karatasi,NA,NA,1,NA,NA,NA,NA,NA,NA,NA,NA,NA,NA,NA,NA,NA,NA,NA,NA,NA,NA,NA
53c89,"""Richtig""-Screen",canvas.Screen,3_0_1_0_2_1_1,NA,NA,timeout,5000.172,341248.30000001,341232.758,341249.425,346232.93,346237.5,2023-09-25T15:47:27Z,346249.597,NULL,Papier,karatasi,s,uchambuzi,usalama,kukataliwa,NA,sdfdsf,1,1,NA,NA,NA,NA,NA,NA,NA,NA,NA,NA,NA,NA,NA,NA,NA,NA,NA,NA,NA
53c89,"""Falsch""-Screen",canvas.Screen,3_0_1_0_2_1_2,NA,NA,skipped,NA,346239.5,NA,NA,346232.93,346239.59999996,2023-09-25T15:47:27Z,346249.597,NULL,Papier,karatasi,s,uchambuzi,usalama,kukataliwa,NA,sdfdsf,NA,1,NA,NA,NA,NA,NA,NA,NA,NA,NA,NA,NA,NA,NA,NA,NA,NA,NA,NA,NA
53c89,shallow,flow.Sequence,3_0_1_0_2_1,NA,NA,completion,11616.971,334604.39999998,334599.292,334615.959,346232.93,346239.80000001,2023-09-25T15:47:27Z,346249.597,NULL,Papier,karatasi,s,uchambuzi,usalama,kukataliwa,NA,sdfdsf,NA,1,NA,NA,NA,NA,NA,NA,NA,NA,NA,NA,NA,NA,NA,NA,NA,NA,NA,NA,NA
53c89,task,flow.Sequence,3_0_1_0_2,NA,NA,completion,11616.971,334604.19999999,334599.292,334615.959,346232.93,346240.09999996,2023-09-25T15:47:27Z,346249.597,NULL,Papier,karatasi,s,uchambuzi,usalama,kukataliwa,NA,sdfdsf,NA,1,NA,NA,NA,NA,NA,NA,NA,NA,NA,NA,NA,NA,NA,NA,NA,NA,NA,NA,NA
53c89,Deep Question,html.Page,3_0_1_0_3_0_0,NA,NA,form submission,8782.8029999761,346240.30000001,346232.93,346249.597,355032.39999998,355033,2023-09-25T15:47:36Z,355033.106,NULL,Entwicklung,maendeleo,d,NA,NA,NA,maeanal,NA,NA,1,NA,NA,NA,NA,NA,NA,NA,NA,NA,NA,NA,NA,NA,NA,NA,NA,NA,NA,NA
53c89,"""Richtig""-Screen",canvas.Screen,3_0_1_0_3_0_1,NA,NA,skipped,NA,355035.59999996,NA,NA,355032.39999998,355035.69999999,2023-09-25T15:47:36Z,355033.106,NULL,Entwicklung,maendeleo,d,NA,NA,NA,NA,sdfdsf,NA,1,NA,NA,NA,NA,NA,NA,NA,NA,NA,NA,NA,NA,NA,NA,NA,NA,NA,NA,NA
53c89,"""Falsch""-Screen",canvas.Screen,3_0_1_0_3_0_2,NA,NA,timeout,5000.142,355036.39999998,355016.439,355033.106,360016.581,360020.5,2023-09-25T15:47:41Z,360033.248,NULL,Entwicklung,maendeleo,d,NA,NA,NA,NA,sdfdsf,0,1,NA,NA,NA,NA,NA,NA,NA,NA,NA,NA,NA,NA,NA,NA,NA,NA,NA,NA,NA
53c89,deep,flow.Sequence,3_0_1_0_3_0,NA,NA,completion,13766.984,346240.19999999,346232.93,346249.597,360016.581,360020.89999998,2023-09-25T15:47:41Z,360033.248,NULL,Entwicklung,maendeleo,d,NA,NA,NA,NA,sdfdsf,NA,1,NA,NA,NA,NA,NA,NA,NA,NA,NA,NA,NA,NA,NA,NA,NA,NA,NA,NA,NA
53c89,shallow,flow.Sequence,3_0_1_0_3_1,NA,NA,skipped,NA,360021.09999996,NA,NA,360016.581,360021.19999999,2023-09-25T15:47:41Z,360033.248,NULL,Entwicklung,maendeleo,d,NA,NA,NA,NA,sdfdsf,NA,1,NA,NA,NA,NA,NA,NA,NA,NA,NA,NA,NA,NA,NA,NA,NA,NA,NA,NA,NA
53c89,task,flow.Sequence,3_0_1_0_3,NA,NA,completion,13766.984,346240.09999996,346232.93,346249.597,360016.581,360021.30000001,2023-09-25T15:47:41Z,360033.248,NULL,Entwicklung,maendeleo,d,NA,NA,NA,NA,sdfdsf,NA,1,NA,NA,NA,NA,NA,NA,NA,NA,NA,NA,NA,NA,NA,NA,NA,NA,NA,NA,NA
53c89,Deep Question,html.Page,3_0_1_0_4_0_0,NA,NA,form submission,6954.252,360021.59999996,360016.581,360033.248,366987.5,366988,2023-09-25T15:47:48Z,367000.054,NULL,Spionage,upelelezi,d,NA,NA,NA,upaleo,NA,NA,1,NA,NA,NA,NA,NA,NA,NA,NA,NA,NA,NA,NA,NA,NA,NA,NA,NA,NA,NA
53c89,"""Richtig""-Screen",canvas.Screen,3_0_1_0_4_0_1,NA,NA,skipped,NA,366990.59999996,NA,NA,366987.5,366990.69999999,2023-09-25T15:47:48Z,367000.054,NULL,Spionage,upelelezi,d,NA,NA,NA,NA,sdfdsf,NA,1,NA,NA,NA,NA,NA,NA,NA,NA,NA,NA,NA,NA,NA,NA,NA,NA,NA,NA,NA
53c89,"""Falsch""-Screen",canvas.Screen,3_0_1_0_4_0_2,NA,NA,timeout,5000.151,366991.39999998,366983.387,367000.054,371983.538,371984.59999996,2023-09-25T15:47:53Z,372000.205,NULL,Spionage,upelelezi,d,NA,NA,NA,NA,sdfdsf,0,1,NA,NA,NA,NA,NA,NA,NA,NA,NA,NA,NA,NA,NA,NA,NA,NA,NA,NA,NA
53c89,deep,flow.Sequence,3_0_1_0_4_0,NA,NA,completion,11950.29,360021.5,360016.581,360033.248,371983.538,371985,2023-09-25T15:47:53Z,372000.205,NULL,Spionage,upelelezi,d,NA,NA,NA,NA,sdfdsf,NA,1,NA,NA,NA,NA,NA,NA,NA,NA,NA,NA,NA,NA,NA,NA,NA,NA,NA,NA,NA
53c89,shallow,flow.Sequence,3_0_1_0_4_1,NA,NA,skipped,NA,371985.09999996,NA,NA,371983.538,371985.30000001,2023-09-25T15:47:53Z,372000.205,NULL,Spionage,upelelezi,d,NA,NA,NA,NA,sdfdsf,NA,1,NA,NA,NA,NA,NA,NA,NA,NA,NA,NA,NA,NA,NA,NA,NA,NA,NA,NA,NA
53c89,task,flow.Sequence,3_0_1_0_4,NA,NA,completion,11950.29,360021.5,360016.581,360033.248,371983.538,371985.5,2023-09-25T15:47:53Z,372000.205,NULL,Spionage,upelelezi,d,NA,NA,NA,NA,sdfdsf,NA,1,NA,NA,NA,NA,NA,NA,NA,NA,NA,NA,NA,NA,NA,NA,NA,NA,NA,NA,NA
53c89,deep,flow.Sequence,3_0_1_0_5_0,NA,NA,skipped,NA,371985.69999999,NA,NA,371983.538,371985.69999999,2023-09-25T15:47:53Z,372000.205,NULL,Tester,wanaojaribu,s,sherti,sihiri,mlipuko,NA,sdfdsf,NA,1,NA,NA,NA,NA,NA,NA,NA,NA,NA,NA,NA,NA,NA,NA,NA,NA,NA,NA,NA
53c89,Shallow Question,html.Page,3_0_1_0_5_1_0,NA,NA,form submission,8107.5950000119,371986,371983.538,372000.205,380107.80000001,380108.30000001,2023-09-25T15:48:01Z,380117.034,NULL,Tester,wanaojaribu,s,sherti,sihiri,mlipuko,wanaojaribu,NA,NA,1,NA,NA,NA,NA,NA,NA,NA,NA,NA,NA,NA,NA,NA,NA,NA,NA,NA,NA,NA
53c89,"""Richtig""-Screen",canvas.Screen,3_0_1_0_5_1_1,NA,NA,timeout,5000.184,380111.19999999,380100.367,380117.034,385100.551,385104.59999996,2023-09-25T15:48:06Z,385117.218,NULL,Tester,wanaojaribu,s,sherti,sihiri,mlipuko,NA,sdfdsf,1,1,NA,NA,NA,NA,NA,NA,NA,NA,NA,NA,NA,NA,NA,NA,NA,NA,NA,NA,NA
53c89,"""Falsch""-Screen",canvas.Screen,3_0_1_0_5_1_2,NA,NA,skipped,NA,385105.30000001,NA,NA,385100.551,385105.39999998,2023-09-25T15:48:06Z,385117.218,NULL,Tester,wanaojaribu,s,sherti,sihiri,mlipuko,NA,sdfdsf,NA,1,NA,NA,NA,NA,NA,NA,NA,NA,NA,NA,NA,NA,NA,NA,NA,NA,NA,NA,NA
53c89,shallow,flow.Sequence,3_0_1_0_5_1,NA,NA,completion,13100.346,371985.89999998,371983.538,372000.205,385100.551,385105.5,2023-09-25T15:48:06Z,385117.218,NULL,Tester,wanaojaribu,s,sherti,sihiri,mlipuko,NA,sdfdsf,NA,1,NA,NA,NA,NA,NA,NA,NA,NA,NA,NA,NA,NA,NA,NA,NA,NA,NA,NA,NA
53c89,task,flow.Sequence,3_0_1_0_5,NA,NA,completion,13100.346,371985.59999996,371983.538,372000.205,385100.551,385105.59999996,2023-09-25T15:48:06Z,385117.218,NULL,Tester,wanaojaribu,s,sherti,sihiri,mlipuko,NA,sdfdsf,NA,1,NA,NA,NA,NA,NA,NA,NA,NA,NA,NA,NA,NA,NA,NA,NA,NA,NA,NA,NA
53c89,Deep Question,html.Page,3_0_1_0_6_0_0,NA,NA,form submission,4016.5820000119,385105.59999996,385100.551,385117.218,389133.80000001,389134.30000001,2023-09-25T15:48:10Z,389133.965,NULL,Fenster,dirisha,d,NA,NA,NA,d,NA,NA,1,NA,NA,NA,NA,NA,NA,NA,NA,NA,NA,NA,NA,NA,NA,NA,NA,NA,NA,NA
53c89,"""Richtig""-Screen",canvas.Screen,3_0_1_0_6_0_1,NA,NA,skipped,NA,389136,NA,NA,389133.80000001,389136.09999996,2023-09-25T15:48:10Z,389133.965,NULL,Fenster,dirisha,d,NA,NA,NA,NA,sdfdsf,NA,1,NA,NA,NA,NA,NA,NA,NA,NA,NA,NA,NA,NA,NA,NA,NA,NA,NA,NA,NA
53c89,"""Falsch""-Screen",canvas.Screen,3_0_1_0_6_0_2,NA,NA,timeout,5000.121,389136.89999998,389117.298,389133.965,394117.419,394121.59999996,2023-09-25T15:48:15Z,394134.086,NULL,Fenster,dirisha,d,NA,NA,NA,NA,sdfdsf,0,1,NA,NA,NA,NA,NA,NA,NA,NA,NA,NA,NA,NA,NA,NA,NA,NA,NA,NA,NA
53c89,deep,flow.Sequence,3_0_1_0_6_0,NA,NA,completion,9000.201,385105.59999996,385100.551,385117.218,394117.419,394121.89999998,2023-09-25T15:48:15Z,394134.086,NULL,Fenster,dirisha,d,NA,NA,NA,NA,sdfdsf,NA,1,NA,NA,NA,NA,NA,NA,NA,NA,NA,NA,NA,NA,NA,NA,NA,NA,NA,NA,NA
53c89,shallow,flow.Sequence,3_0_1_0_6_1,NA,NA,skipped,NA,394122,NA,NA,394117.419,394122.19999999,2023-09-25T15:48:15Z,394134.086,NULL,Fenster,dirisha,d,NA,NA,NA,NA,sdfdsf,NA,1,NA,NA,NA,NA,NA,NA,NA,NA,NA,NA,NA,NA,NA,NA,NA,NA,NA,NA,NA
53c89,task,flow.Sequence,3_0_1_0_6,NA,NA,completion,9000.201,385105.59999996,385100.551,385117.218,394117.419,394122.39999998,2023-09-25T15:48:15Z,394134.086,NULL,Fenster,dirisha,d,NA,NA,NA,NA,sdfdsf,NA,1,NA,NA,NA,NA,NA,NA,NA,NA,NA,NA,NA,NA,NA,NA,NA,NA,NA,NA,NA
53c89,deep,flow.Sequence,3_0_1_0_7_0,NA,NA,skipped,NA,394122.5,NA,NA,394117.419,394122.59999996,2023-09-25T15:48:15Z,394134.086,NULL,Schüler,mwanafunzi,s,mwekezaji,matumizi,uaminifu,NA,sdfdsf,NA,1,NA,NA,NA,NA,NA,NA,NA,NA,NA,NA,NA,NA,NA,NA,NA,NA,NA,NA,NA
53c89,Shallow Question,html.Page,3_0_1_0_7_1_0,NA,NA,form submission,8479.3139999761,394122.69999999,394117.419,394134.086,402613.39999998,402614,2023-09-25T15:48:24Z,402617.589,NULL,Schüler,mwanafunzi,s,mwekezaji,matumizi,uaminifu,mwanafunzi,NA,NA,1,NA,NA,NA,NA,NA,NA,NA,NA,NA,NA,NA,NA,NA,NA,NA,NA,NA,NA,NA
53c89,"""Richtig""-Screen",canvas.Screen,3_0_1_0_7_1_1,NA,NA,timeout,5000.171,402616.69999999,402600.922,402617.589,407601.093,407606.39999998,2023-09-25T15:48:29Z,407617.76,NULL,Schüler,mwanafunzi,s,mwekezaji,matumizi,uaminifu,NA,sdfdsf,1,1,NA,NA,NA,NA,NA,NA,NA,NA,NA,NA,NA,NA,NA,NA,NA,NA,NA,NA,NA
53c89,"""Falsch""-Screen",canvas.Screen,3_0_1_0_7_1_2,NA,NA,skipped,NA,407608.30000001,NA,NA,407601.093,407608.5,2023-09-25T15:48:29Z,407617.76,NULL,Schüler,mwanafunzi,s,mwekezaji,matumizi,uaminifu,NA,sdfdsf,NA,1,NA,NA,NA,NA,NA,NA,NA,NA,NA,NA,NA,NA,NA,NA,NA,NA,NA,NA,NA
53c89,shallow,flow.Sequence,3_0_1_0_7_1,NA,NA,completion,13467.007,394122.69999999,394117.419,394134.086,407601.093,407608.69999999,2023-09-25T15:48:29Z,407617.76,NULL,Schüler,mwanafunzi,s,mwekezaji,matumizi,uaminifu,NA,sdfdsf,NA,1,NA,NA,NA,NA,NA,NA,NA,NA,NA,NA,NA,NA,NA,NA,NA,NA,NA,NA,NA
53c89,task,flow.Sequence,3_0_1_0_7,NA,NA,completion,13467.007,394122.39999998,394117.419,394134.086,407601.093,407608.69999999,2023-09-25T15:48:29Z,407617.76,NULL,Schüler,mwanafunzi,s,mwekezaji,matumizi,uaminifu,NA,sdfdsf,NA,1,NA,NA,NA,NA,NA,NA,NA,NA,NA,NA,NA,NA,NA,NA,NA,NA,NA,NA,NA
53c89,block,flow.Loop,3_0_1_0,NA,NA,completion,94202.326,313389.59999996,313382.1,313398.767,407601.093,407608.89999998,2023-09-25T15:48:29Z,407617.76,NULL,NA,NA,NA,NA,NA,NA,NA,sdfdsf,NA,1,NA,NA,NA,NA,NA,NA,NA,NA,NA,NA,NA,NA,NA,NA,NA,NA,NA,NA,NA
53c89,weiter,canvas.Screen,3_0_1_1,sdf,keypress(Space),response,1987.0400000119,407609,407601.093,407617.76,409604.80000001,409610.69999999,2023-09-25T15:48:31Z,409651.134,NULL,NA,NA,NA,NA,NA,NA,NA,sdfdsf,NA,1,NA,NA,NA,NA,NA,NA,NA,NA,NA,NA,NA,NA,NA,NA,NA,NA,NA,NA,NA
53c89,check continue,flow.Sequence,3_0_1,NA,NA,completion,96206.033000012,313389.59999996,313382.1,313398.767,409604.80000001,409611,2023-09-25T15:48:31Z,409651.134,NULL,NA,NA,NA,NA,NA,NA,NA,sdfdsf,NA,1,NA,NA,NA,NA,NA,NA,NA,NA,NA,NA,NA,NA,NA,NA,NA,NA,NA,NA,NA
53c89,Deep Question,html.Page,3_0_2_0_0_0_0,NA,NA,form submission,5271.5659999881,409640.39999998,409634.467,409651.134,414922.69999999,414923.09999996,2023-09-25T15:48:36Z,414934.573,NULL,Vorwurf,mashtaka,d,NA,NA,NA,mash,NA,NA,2,NA,NA,NA,NA,NA,NA,NA,NA,NA,NA,NA,NA,NA,NA,NA,NA,NA,NA,NA
53c89,"""Richtig""-Screen",canvas.Screen,3_0_2_0_0_0_1,NA,NA,skipped,NA,414926,NA,NA,414922.69999999,414926.09999996,2023-09-25T15:48:36Z,414934.573,NULL,Vorwurf,mashtaka,d,NA,NA,NA,NA,sdf,NA,2,NA,NA,NA,NA,NA,NA,NA,NA,NA,NA,NA,NA,NA,NA,NA,NA,NA,NA,NA
53c89,"""Falsch""-Screen",canvas.Screen,3_0_2_0_0_0_2,NA,NA,timeout,5000.182,414926.69999999,414917.906,414934.573,419918.088,419922.69999999,2023-09-25T15:48:41Z,419934.755,NULL,Vorwurf,mashtaka,d,NA,NA,NA,NA,sdf,0,2,NA,NA,NA,NA,NA,NA,NA,NA,NA,NA,NA,NA,NA,NA,NA,NA,NA,NA,NA
53c89,deep,flow.Sequence,3_0_2_0_0_0,NA,NA,completion,10266.954,409640.39999998,409634.467,409651.134,419918.088,419923.09999996,2023-09-25T15:48:41Z,419934.755,NULL,Vorwurf,mashtaka,d,NA,NA,NA,NA,sdf,NA,2,NA,NA,NA,NA,NA,NA,NA,NA,NA,NA,NA,NA,NA,NA,NA,NA,NA,NA,NA
53c89,shallow,flow.Sequence,3_0_2_0_0_1,NA,NA,skipped,NA,419923.19999999,NA,NA,419918.088,419923.30000001,2023-09-25T15:48:41Z,419934.755,NULL,Vorwurf,mashtaka,d,NA,NA,NA,NA,sdf,NA,2,NA,NA,NA,NA,NA,NA,NA,NA,NA,NA,NA,NA,NA,NA,NA,NA,NA,NA,NA
53c89,task,flow.Sequence,3_0_2_0_0,NA,NA,completion,10266.954,409640.39999998,409634.467,409651.134,419918.088,419923.5,2023-09-25T15:48:41Z,419934.755,NULL,Vorwurf,mashtaka,d,NA,NA,NA,NA,sdf,NA,2,NA,NA,NA,NA,NA,NA,NA,NA,NA,NA,NA,NA,NA,NA,NA,NA,NA,NA,NA
53c89,Deep Question,html.Page,3_0_2_0_1_0_0,NA,NA,form submission,6432.745,419923.69999999,419918.088,419934.755,426367.5,426368,2023-09-25T15:48:48Z,426368.217,NULL,Fenster,dirisha,d,NA,NA,NA,dirisha,NA,NA,2,NA,NA,NA,NA,NA,NA,NA,NA,NA,NA,NA,NA,NA,NA,NA,NA,NA,NA,NA
53c89,"""Richtig""-Screen",canvas.Screen,3_0_2_0_1_0_1,NA,NA,timeout,5000.122,426370.69999999,426351.55,426368.217,431351.672,431356.80000001,2023-09-25T15:48:53Z,431368.339,NULL,Fenster,dirisha,d,NA,NA,NA,NA,sdf,1,2,NA,NA,NA,NA,NA,NA,NA,NA,NA,NA,NA,NA,NA,NA,NA,NA,NA,NA,NA
53c89,"""Falsch""-Screen",canvas.Screen,3_0_2_0_1_0_2,NA,NA,skipped,NA,431358.5,NA,NA,431351.672,431358.69999999,2023-09-25T15:48:53Z,431368.339,NULL,Fenster,dirisha,d,NA,NA,NA,NA,sdf,NA,2,NA,NA,NA,NA,NA,NA,NA,NA,NA,NA,NA,NA,NA,NA,NA,NA,NA,NA,NA
53c89,deep,flow.Sequence,3_0_2_0_1_0,NA,NA,completion,11416.917,419923.69999999,419918.088,419934.755,431351.672,431358.89999998,2023-09-25T15:48:53Z,431368.339,NULL,Fenster,dirisha,d,NA,NA,NA,NA,sdf,NA,2,NA,NA,NA,NA,NA,NA,NA,NA,NA,NA,NA,NA,NA,NA,NA,NA,NA,NA,NA
53c89,shallow,flow.Sequence,3_0_2_0_1_1,NA,NA,skipped,NA,431359,NA,NA,431351.672,431359.09999996,2023-09-25T15:48:53Z,431368.339,NULL,Fenster,dirisha,d,NA,NA,NA,NA,sdf,NA,2,NA,NA,NA,NA,NA,NA,NA,NA,NA,NA,NA,NA,NA,NA,NA,NA,NA,NA,NA
53c89,task,flow.Sequence,3_0_2_0_1,NA,NA,completion,11416.917,419923.5,419918.088,419934.755,431351.672,431359.30000001,2023-09-25T15:48:53Z,431368.339,NULL,Fenster,dirisha,d,NA,NA,NA,NA,sdf,NA,2,NA,NA,NA,NA,NA,NA,NA,NA,NA,NA,NA,NA,NA,NA,NA,NA,NA,NA,NA
53c89,Deep Question,html.Page,3_0_2_0_2_0_0,NA,NA,form submission,6210.3609999881,431359.5,431351.672,431368.339,437578.69999999,437579.19999999,2023-09-25T15:48:59Z,437585.13,NULL,Spionage,upelelezi,d,NA,NA,NA,upelezi,NA,NA,2,NA,NA,NA,NA,NA,NA,NA,NA,NA,NA,NA,NA,NA,NA,NA,NA,NA,NA,NA
53c89,"""Richtig""-Screen",canvas.Screen,3_0_2_0_2_0_1,NA,NA,skipped,NA,437582.09999996,NA,NA,437578.69999999,437582.19999999,2023-09-25T15:48:59Z,437585.13,NULL,Spionage,upelelezi,d,NA,NA,NA,NA,sdf,NA,2,NA,NA,NA,NA,NA,NA,NA,NA,NA,NA,NA,NA,NA,NA,NA,NA,NA,NA,NA
53c89,"""Falsch""-Screen",canvas.Screen,3_0_2_0_2_0_2,NA,NA,timeout,5000.139,437582.89999998,437568.463,437585.13,442568.602,442573.39999998,2023-09-25T15:49:04Z,442585.269,NULL,Spionage,upelelezi,d,NA,NA,NA,NA,sdf,0,2,NA,NA,NA,NA,NA,NA,NA,NA,NA,NA,NA,NA,NA,NA,NA,NA,NA,NA,NA
53c89,deep,flow.Sequence,3_0_2_0_2_0,NA,NA,completion,11200.263,431359.39999998,431351.672,431368.339,442568.602,442573.80000001,2023-09-25T15:49:04Z,442585.269,NULL,Spionage,upelelezi,d,NA,NA,NA,NA,sdf,NA,2,NA,NA,NA,NA,NA,NA,NA,NA,NA,NA,NA,NA,NA,NA,NA,NA,NA,NA,NA
53c89,shallow,flow.Sequence,3_0_2_0_2_1,NA,NA,skipped,NA,442574,NA,NA,442568.602,442574.09999996,2023-09-25T15:49:04Z,442585.269,NULL,Spionage,upelelezi,d,NA,NA,NA,NA,sdf,NA,2,NA,NA,NA,NA,NA,NA,NA,NA,NA,NA,NA,NA,NA,NA,NA,NA,NA,NA,NA
53c89,task,flow.Sequence,3_0_2_0_2,NA,NA,completion,11200.263,431359.39999998,431351.672,431368.339,442568.602,442574.19999999,2023-09-25T15:49:04Z,442585.269,NULL,Spionage,upelelezi,d,NA,NA,NA,NA,sdf,NA,2,NA,NA,NA,NA,NA,NA,NA,NA,NA,NA,NA,NA,NA,NA,NA,NA,NA,NA,NA
53c89,Deep Question,html.Page,3_0_2_0_3_0_0,NA,NA,form submission,6254.8309999643,442574.5,442568.602,442585.269,448840.09999996,448840.69999999,2023-09-25T15:49:10Z,448852.061,NULL,Entwicklung,maendeleo,d,NA,NA,NA,maendeleo,NA,NA,2,NA,NA,NA,NA,NA,NA,NA,NA,NA,NA,NA,NA,NA,NA,NA,NA,NA,NA,NA
53c89,"""Richtig""-Screen",canvas.Screen,3_0_2_0_3_0_1,NA,NA,timeout,5000.153,448843.89999998,448835.394,448852.061,453835.547,453840.30000001,2023-09-25T15:49:15Z,453852.214,NULL,Entwicklung,maendeleo,d,NA,NA,NA,NA,sdf,1,2,NA,NA,NA,NA,NA,NA,NA,NA,NA,NA,NA,NA,NA,NA,NA,NA,NA,NA,NA
53c89,"""Falsch""-Screen",canvas.Screen,3_0_2_0_3_0_2,NA,NA,skipped,NA,453841.89999998,NA,NA,453835.547,453842,2023-09-25T15:49:15Z,453852.214,NULL,Entwicklung,maendeleo,d,NA,NA,NA,NA,sdf,NA,2,NA,NA,NA,NA,NA,NA,NA,NA,NA,NA,NA,NA,NA,NA,NA,NA,NA,NA,NA
53c89,deep,flow.Sequence,3_0_2_0_3_0,NA,NA,completion,11250.278,442574.39999998,442568.602,442585.269,453835.547,453842.19999999,2023-09-25T15:49:15Z,453852.214,NULL,Entwicklung,maendeleo,d,NA,NA,NA,NA,sdf,NA,2,NA,NA,NA,NA,NA,NA,NA,NA,NA,NA,NA,NA,NA,NA,NA,NA,NA,NA,NA
53c89,shallow,flow.Sequence,3_0_2_0_3_1,NA,NA,skipped,NA,453842.39999998,NA,NA,453835.547,453842.5,2023-09-25T15:49:15Z,453852.214,NULL,Entwicklung,maendeleo,d,NA,NA,NA,NA,sdf,NA,2,NA,NA,NA,NA,NA,NA,NA,NA,NA,NA,NA,NA,NA,NA,NA,NA,NA,NA,NA
53c89,task,flow.Sequence,3_0_2_0_3,NA,NA,completion,11250.278,442574.30000001,442568.602,442585.269,453835.547,453842.59999996,2023-09-25T15:49:15Z,453852.214,NULL,Entwicklung,maendeleo,d,NA,NA,NA,NA,sdf,NA,2,NA,NA,NA,NA,NA,NA,NA,NA,NA,NA,NA,NA,NA,NA,NA,NA,NA,NA,NA
53c89,deep,flow.Sequence,3_0_2_0_4_0,NA,NA,skipped,NA,453842.80000001,NA,NA,453835.547,453842.80000001,2023-09-25T15:49:15Z,453852.214,NULL,Niveau,kiwango,s,usimamizi,mwamali,mshairi,NA,sdf,NA,2,NA,NA,NA,NA,NA,NA,NA,NA,NA,NA,NA,NA,NA,NA,NA,NA,NA,NA,NA
53c89,Shallow Question,html.Page,3_0_2_0_4_1_0,NA,NA,form submission,6660.9859999881,453842.89999998,453835.547,453852.214,460513.19999999,460513.89999998,2023-09-25T15:49:22Z,460519.014,NULL,Niveau,kiwango,s,usimamizi,mwamali,mshairi,mshairi,NA,NA,2,NA,NA,NA,NA,NA,NA,NA,NA,NA,NA,NA,NA,NA,NA,NA,NA,NA,NA,NA
53c89,"""Richtig""-Screen",canvas.Screen,3_0_2_0_4_1_1,NA,NA,skipped,NA,460516.59999996,NA,NA,460513.19999999,460516.69999999,2023-09-25T15:49:22Z,460519.014,NULL,Niveau,kiwango,s,usimamizi,mwamali,mshairi,NA,sdf,NA,2,NA,NA,NA,NA,NA,NA,NA,NA,NA,NA,NA,NA,NA,NA,NA,NA,NA,NA,NA
53c89,"""Falsch""-Screen",canvas.Screen,3_0_2_0_4_1_2,NA,NA,timeout,5000.175,460517.5,460502.347,460519.014,465502.522,465507.80000001,2023-09-25T15:49:27Z,465519.189,NULL,Niveau,kiwango,s,usimamizi,mwamali,mshairi,NA,sdf,0,2,NA,NA,NA,NA,NA,NA,NA,NA,NA,NA,NA,NA,NA,NA,NA,NA,NA,NA,NA
53c89,shallow,flow.Sequence,3_0_2_0_4_1,NA,NA,completion,11650.308,453842.89999998,453835.547,453852.214,465502.522,465508.19999999,2023-09-25T15:49:27Z,465519.189,NULL,Niveau,kiwango,s,usimamizi,mwamali,mshairi,NA,sdf,NA,2,NA,NA,NA,NA,NA,NA,NA,NA,NA,NA,NA,NA,NA,NA,NA,NA,NA,NA,NA
53c89,task,flow.Sequence,3_0_2_0_4,NA,NA,completion,11650.308,453842.69999999,453835.547,453852.214,465502.522,465508.39999998,2023-09-25T15:49:27Z,465519.189,NULL,Niveau,kiwango,s,usimamizi,mwamali,mshairi,NA,sdf,NA,2,NA,NA,NA,NA,NA,NA,NA,NA,NA,NA,NA,NA,NA,NA,NA,NA,NA,NA,NA
53c89,deep,flow.Sequence,3_0_2_0_5_0,NA,NA,skipped,NA,465508.69999999,NA,NA,465502.522,465508.80000001,2023-09-25T15:49:27Z,465519.189,NULL,Schüler,mwanafunzi,s,mwekezaji,matumizi,uaminifu,NA,sdf,NA,2,NA,NA,NA,NA,NA,NA,NA,NA,NA,NA,NA,NA,NA,NA,NA,NA,NA,NA,NA
53c89,Shallow Question,html.Page,3_0_2_0_5_1_0,NA,NA,form submission,7908.311,465508.89999998,465502.522,465519.189,473427.5,473428.09999996,2023-09-25T15:49:35Z,473436.014,NULL,Schüler,mwanafunzi,s,mwekezaji,matumizi,uaminifu,mwanafunzi,NA,NA,2,NA,NA,NA,NA,NA,NA,NA,NA,NA,NA,NA,NA,NA,NA,NA,NA,NA,NA,NA
53c89,"""Richtig""-Screen",canvas.Screen,3_0_2_0_5_1_1,NA,NA,timeout,5000.203,473430.89999998,473419.347,473436.014,478419.55,478422.09999996,2023-09-25T15:49:40Z,478436.217,NULL,Schüler,mwanafunzi,s,mwekezaji,matumizi,uaminifu,NA,sdf,1,2,NA,NA,NA,NA,NA,NA,NA,NA,NA,NA,NA,NA,NA,NA,NA,NA,NA,NA,NA
53c89,"""Falsch""-Screen",canvas.Screen,3_0_2_0_5_1_2,NA,NA,skipped,NA,478423.80000001,NA,NA,478419.55,478423.89999998,2023-09-25T15:49:40Z,478436.217,NULL,Schüler,mwanafunzi,s,mwekezaji,matumizi,uaminifu,NA,sdf,NA,2,NA,NA,NA,NA,NA,NA,NA,NA,NA,NA,NA,NA,NA,NA,NA,NA,NA,NA,NA
53c89,shallow,flow.Sequence,3_0_2_0_5_1,NA,NA,completion,12900.361,465508.80000001,465502.522,465519.189,478419.55,478424.09999996,2023-09-25T15:49:40Z,478436.217,NULL,Schüler,mwanafunzi,s,mwekezaji,matumizi,uaminifu,NA,sdf,NA,2,NA,NA,NA,NA,NA,NA,NA,NA,NA,NA,NA,NA,NA,NA,NA,NA,NA,NA,NA
53c89,task,flow.Sequence,3_0_2_0_5,NA,NA,completion,12900.361,465508.59999996,465502.522,465519.189,478419.55,478424.30000001,2023-09-25T15:49:40Z,478436.217,NULL,Schüler,mwanafunzi,s,mwekezaji,matumizi,uaminifu,NA,sdf,NA,2,NA,NA,NA,NA,NA,NA,NA,NA,NA,NA,NA,NA,NA,NA,NA,NA,NA,NA,NA
53c89,deep,flow.Sequence,3_0_2_0_6_0,NA,NA,skipped,NA,478424.39999998,NA,NA,478419.55,478424.5,2023-09-25T15:49:40Z,478436.217,NULL,Tester,wanaojaribu,s,sherti,sihiri,mlipuko,NA,sdf,NA,2,NA,NA,NA,NA,NA,NA,NA,NA,NA,NA,NA,NA,NA,NA,NA,NA,NA,NA,NA
53c89,Shallow Question,html.Page,3_0_2_0_6_1_0,NA,NA,form submission,8295.0830000119,478424.59999996,478419.55,478436.217,486731.30000001,486731.80000001,2023-09-25T15:49:48Z,486736.383,NULL,Tester,wanaojaribu,s,sherti,sihiri,mlipuko,sihiri,NA,NA,2,NA,NA,NA,NA,NA,NA,NA,NA,NA,NA,NA,NA,NA,NA,NA,NA,NA,NA,NA
53c89,"""Richtig""-Screen",canvas.Screen,3_0_2_0_6_1_1,NA,NA,skipped,NA,486734.69999999,NA,NA,486731.30000001,486734.80000001,2023-09-25T15:49:48Z,486736.383,NULL,Tester,wanaojaribu,s,sherti,sihiri,mlipuko,NA,sdf,NA,2,NA,NA,NA,NA,NA,NA,NA,NA,NA,NA,NA,NA,NA,NA,NA,NA,NA,NA,NA
53c89,"""Falsch""-Screen",canvas.Screen,3_0_2_0_6_1_2,NA,NA,timeout,5000.087,486735.30000001,486719.716,486736.383,491719.803,491724.89999998,2023-09-25T15:49:53Z,491736.47,NULL,Tester,wanaojaribu,s,sherti,sihiri,mlipuko,NA,sdf,0,2,NA,NA,NA,NA,NA,NA,NA,NA,NA,NA,NA,NA,NA,NA,NA,NA,NA,NA,NA
53c89,shallow,flow.Sequence,3_0_2_0_6_1,NA,NA,completion,13283.586,478424.59999996,478419.55,478436.217,491719.803,491725.30000001,2023-09-25T15:49:53Z,491736.47,NULL,Tester,wanaojaribu,s,sherti,sihiri,mlipuko,NA,sdf,NA,2,NA,NA,NA,NA,NA,NA,NA,NA,NA,NA,NA,NA,NA,NA,NA,NA,NA,NA,NA
53c89,task,flow.Sequence,3_0_2_0_6,NA,NA,completion,13283.586,478424.39999998,478419.55,478436.217,491719.803,491725.5,2023-09-25T15:49:53Z,491736.47,NULL,Tester,wanaojaribu,s,sherti,sihiri,mlipuko,NA,sdf,NA,2,NA,NA,NA,NA,NA,NA,NA,NA,NA,NA,NA,NA,NA,NA,NA,NA,NA,NA,NA
53c89,deep,flow.Sequence,3_0_2_0_7_0,NA,NA,skipped,NA,491725.59999996,NA,NA,491719.803,491725.80000001,2023-09-25T15:49:53Z,491736.47,NULL,Papier,karatasi,s,uchambuzi,usalama,kukataliwa,NA,sdf,NA,2,NA,NA,NA,NA,NA,NA,NA,NA,NA,NA,NA,NA,NA,NA,NA,NA,NA,NA,NA
53c89,Shallow Question,html.Page,3_0_2_0_7_1_0,NA,NA,form submission,5465.1299999643,491725.89999998,491719.803,491736.47,497201.59999996,497202,2023-09-25T15:49:58Z,497203.246,NULL,Papier,karatasi,s,uchambuzi,usalama,kukataliwa,karatasi,NA,NA,2,NA,NA,NA,NA,NA,NA,NA,NA,NA,NA,NA,NA,NA,NA,NA,NA,NA,NA,NA
53c89,"""Richtig""-Screen",canvas.Screen,3_0_2_0_7_1_1,NA,NA,timeout,5000.238,497204.69999999,497186.579,497203.246,502186.817,502191.19999999,2023-09-25T15:50:03Z,502203.484,NULL,Papier,karatasi,s,uchambuzi,usalama,kukataliwa,NA,sdf,1,2,NA,NA,NA,NA,NA,NA,NA,NA,NA,NA,NA,NA,NA,NA,NA,NA,NA,NA,NA
53c89,"""Falsch""-Screen",canvas.Screen,3_0_2_0_7_1_2,NA,NA,skipped,NA,502192.09999996,NA,NA,502186.817,502192.09999996,2023-09-25T15:50:03Z,502203.484,NULL,Papier,karatasi,s,uchambuzi,usalama,kukataliwa,NA,sdf,NA,2,NA,NA,NA,NA,NA,NA,NA,NA,NA,NA,NA,NA,NA,NA,NA,NA,NA,NA,NA
53c89,shallow,flow.Sequence,3_0_2_0_7_1,NA,NA,completion,10450.347,491725.89999998,491719.803,491736.47,502186.817,502192.19999999,2023-09-25T15:50:03Z,502203.484,NULL,Papier,karatasi,s,uchambuzi,usalama,kukataliwa,NA,sdf,NA,2,NA,NA,NA,NA,NA,NA,NA,NA,NA,NA,NA,NA,NA,NA,NA,NA,NA,NA,NA
53c89,task,flow.Sequence,3_0_2_0_7,NA,NA,completion,10450.347,491725.59999996,491719.803,491736.47,502186.817,502192.30000001,2023-09-25T15:50:03Z,502203.484,NULL,Papier,karatasi,s,uchambuzi,usalama,kukataliwa,NA,sdf,NA,2,NA,NA,NA,NA,NA,NA,NA,NA,NA,NA,NA,NA,NA,NA,NA,NA,NA,NA,NA
53c89,block,flow.Loop,3_0_2_0,NA,NA,completion,92535.683,409640.39999998,409634.467,409651.134,502186.817,502192.39999998,2023-09-25T15:50:03Z,502203.484,NULL,NA,NA,NA,NA,NA,NA,NA,sdf,NA,2,NA,NA,NA,NA,NA,NA,NA,NA,NA,NA,NA,NA,NA,NA,NA,NA,NA,NA,NA
53c89,weiter,canvas.Screen,3_0_2_1,sdf,keypress(Space),response,1035.7159999881,502192.39999998,502186.817,502203.484,503239.19999999,503245.30000001,2023-09-25T15:50:04Z,503286.839,NULL,NA,NA,NA,NA,NA,NA,NA,sdf,NA,2,NA,NA,NA,NA,NA,NA,NA,NA,NA,NA,NA,NA,NA,NA,NA,NA,NA,NA,NA
53c89,check continue,flow.Sequence,3_0_2,NA,NA,completion,93588.065999988,409640.39999998,409634.467,409651.134,503239.19999999,503245.59999996,2023-09-25T15:50:04Z,503286.839,NULL,NA,NA,NA,NA,NA,NA,NA,sdf,NA,2,NA,NA,NA,NA,NA,NA,NA,NA,NA,NA,NA,NA,NA,NA,NA,NA,NA,NA,NA
53c89,Deep Question,html.Page,3_0_3_0_0_0_0,NA,NA,form submission,6484.4610000119,503271.89999998,503270.172,503286.839,509771.30000001,509771.69999999,2023-09-25T15:50:11Z,509770.302,NULL,Fenster,dirisha,d,NA,NA,NA,dirisha,NA,NA,3,NA,NA,NA,NA,NA,NA,NA,NA,NA,NA,NA,NA,NA,NA,NA,NA,NA,NA,NA
53c89,"""Richtig""-Screen",canvas.Screen,3_0_3_0_0_0_1,NA,NA,timeout,5000.072,509775.30000001,509753.635,509770.302,514753.707,514758.59999996,2023-09-25T15:50:16Z,514770.374,NULL,Fenster,dirisha,d,NA,NA,NA,NA,qt,1,3,NA,NA,NA,NA,NA,NA,NA,NA,NA,NA,NA,NA,NA,NA,NA,NA,NA,NA,NA
53c89,"""Falsch""-Screen",canvas.Screen,3_0_3_0_0_0_2,NA,NA,skipped,NA,514760.59999996,NA,NA,514753.707,514760.69999999,2023-09-25T15:50:16Z,514770.374,NULL,Fenster,dirisha,d,NA,NA,NA,NA,qt,NA,3,NA,NA,NA,NA,NA,NA,NA,NA,NA,NA,NA,NA,NA,NA,NA,NA,NA,NA,NA
53c89,deep,flow.Sequence,3_0_3_0_0_0,NA,NA,completion,11466.868,503271.89999998,503270.172,503286.839,514753.707,514760.89999998,2023-09-25T15:50:16Z,514770.374,NULL,Fenster,dirisha,d,NA,NA,NA,NA,qt,NA,3,NA,NA,NA,NA,NA,NA,NA,NA,NA,NA,NA,NA,NA,NA,NA,NA,NA,NA,NA
53c89,shallow,flow.Sequence,3_0_3_0_0_1,NA,NA,skipped,NA,514761,NA,NA,514753.707,514761.09999996,2023-09-25T15:50:16Z,514770.374,NULL,Fenster,dirisha,d,NA,NA,NA,NA,qt,NA,3,NA,NA,NA,NA,NA,NA,NA,NA,NA,NA,NA,NA,NA,NA,NA,NA,NA,NA,NA
53c89,task,flow.Sequence,3_0_3_0_0,NA,NA,completion,11466.868,503271.89999998,503270.172,503286.839,514753.707,514761.19999999,2023-09-25T15:50:16Z,514770.374,NULL,Fenster,dirisha,d,NA,NA,NA,NA,qt,NA,3,NA,NA,NA,NA,NA,NA,NA,NA,NA,NA,NA,NA,NA,NA,NA,NA,NA,NA,NA
53c89,deep,flow.Sequence,3_0_3_0_1_0,NA,NA,skipped,NA,514761.39999998,NA,NA,514753.707,514761.5,2023-09-25T15:50:16Z,514770.374,NULL,Schüler,mwanafunzi,s,mwekezaji,matumizi,uaminifu,NA,qt,NA,3,NA,NA,NA,NA,NA,NA,NA,NA,NA,NA,NA,NA,NA,NA,NA,NA,NA,NA,NA
53c89,Shallow Question,html.Page,3_0_3_0_1_1_0,NA,NA,form submission,4912.3259999881,514761.59999996,514753.707,514770.374,519682.69999999,519683.19999999,2023-09-25T15:50:21Z,519687.139,NULL,Schüler,mwanafunzi,s,mwekezaji,matumizi,uaminifu,mwanafunzi,NA,NA,3,NA,NA,NA,NA,NA,NA,NA,NA,NA,NA,NA,NA,NA,NA,NA,NA,NA,NA,NA
53c89,"""Richtig""-Screen",canvas.Screen,3_0_3_0_1_1_1,NA,NA,timeout,5000.1639999999,519684.5,519670.472,519687.139,524670.572,524671.59999996,2023-09-25T15:50:26Z,524687.303,NULL,Schüler,mwanafunzi,s,mwekezaji,matumizi,uaminifu,NA,qt,1,3,NA,NA,NA,NA,NA,NA,NA,NA,NA,NA,NA,NA,NA,NA,NA,NA,NA,NA,NA
53c89,"""Falsch""-Screen",canvas.Screen,3_0_3_0_1_1_2,NA,NA,skipped,NA,524672.69999999006,NA,NA,524670.572,524672.89999998,2023-09-25T15:50:26Z,524687.303,NULL,Schüler,mwanafunzi,s,mwekezaji,matumizi,uaminifu,NA,qt,NA,3,NA,NA,NA,NA,NA,NA,NA,NA,NA,NA,NA,NA,NA,NA,NA,NA,NA,NA,NA
53c89,shallow,flow.Sequence,3_0_3_0_1_1,NA,NA,completion,9900.198,514761.5,514753.707,514770.374,524670.572,524673,2023-09-25T15:50:26Z,524687.303,NULL,Schüler,mwanafunzi,s,mwekezaji,matumizi,uaminifu,NA,qt,NA,3,NA,NA,NA,NA,NA,NA,NA,NA,NA,NA,NA,NA,NA,NA,NA,NA,NA,NA,NA
53c89,task,flow.Sequence,3_0_3_0_1,NA,NA,completion,9900.198,514761.30000001,514753.707,514770.374,524670.572,524673,2023-09-25T15:50:26Z,524687.303,NULL,Schüler,mwanafunzi,s,mwekezaji,matumizi,uaminifu,NA,qt,NA,3,NA,NA,NA,NA,NA,NA,NA,NA,NA,NA,NA,NA,NA,NA,NA,NA,NA,NA,NA
53c89,Deep Question,html.Page,3_0_3_0_2_0_0,NA,NA,form submission,5188.697,524673.19999999006,524670.572,524687.303,529876,529876.39999998,2023-09-25T15:50:31Z,529887.407,NULL,Spionage,upelelezi,d,NA,NA,NA,upelelezi,NA,NA,3,NA,NA,NA,NA,NA,NA,NA,NA,NA,NA,NA,NA,NA,NA,NA,NA,NA,NA,NA
53c89,"""Richtig""-Screen",canvas.Screen,3_0_3_0_2_0_1,NA,NA,timeout,5000.111,529877.39999998,529870.74,529887.407,534870.851,534875,2023-09-25T15:50:36Z,534887.518,NULL,Spionage,upelelezi,d,NA,NA,NA,NA,qt,1,3,NA,NA,NA,NA,NA,NA,NA,NA,NA,NA,NA,NA,NA,NA,NA,NA,NA,NA,NA
53c89,"""Falsch""-Screen",canvas.Screen,3_0_3_0_2_0_2,NA,NA,skipped,NA,534876.59999996,NA,NA,534870.851,534876.80000001,2023-09-25T15:50:36Z,534887.518,NULL,Spionage,upelelezi,d,NA,NA,NA,NA,qt,NA,3,NA,NA,NA,NA,NA,NA,NA,NA,NA,NA,NA,NA,NA,NA,NA,NA,NA,NA,NA
53c89,deep,flow.Sequence,3_0_3_0_2_0,NA,NA,completion,10183.548,524673.19999999006,524670.572,524687.303,534870.851,534876.89999998,2023-09-25T15:50:36Z,534887.518,NULL,Spionage,upelelezi,d,NA,NA,NA,NA,qt,NA,3,NA,NA,NA,NA,NA,NA,NA,NA,NA,NA,NA,NA,NA,NA,NA,NA,NA,NA,NA
53c89,shallow,flow.Sequence,3_0_3_0_2_1,NA,NA,skipped,NA,534877.09999996,NA,NA,534870.851,534877.09999996,2023-09-25T15:50:36Z,534887.518,NULL,Spionage,upelelezi,d,NA,NA,NA,NA,qt,NA,3,NA,NA,NA,NA,NA,NA,NA,NA,NA,NA,NA,NA,NA,NA,NA,NA,NA,NA,NA
53c89,task,flow.Sequence,3_0_3_0_2,NA,NA,completion,10183.548,524673.19999999006,524670.572,524687.303,534870.851,534877.30000001,2023-09-25T15:50:36Z,534887.518,NULL,Spionage,upelelezi,d,NA,NA,NA,NA,qt,NA,3,NA,NA,NA,NA,NA,NA,NA,NA,NA,NA,NA,NA,NA,NA,NA,NA,NA,NA,NA
53c89,deep,flow.Sequence,3_0_3_0_3_0,NA,NA,skipped,NA,534877.5,NA,NA,534870.851,534877.5,2023-09-25T15:50:36Z,534887.518,NULL,Niveau,kiwango,s,usimamizi,mwamali,mshairi,NA,qt,NA,3,NA,NA,NA,NA,NA,NA,NA,NA,NA,NA,NA,NA,NA,NA,NA,NA,NA,NA,NA
53c89,Shallow Question,html.Page,3_0_3_0_3_1_0,NA,NA,form submission,7390.181999988,534877.59999996,534870.851,534887.518,542277.69999999006,542278.30000001,2023-09-25T15:50:43Z,542287.666,NULL,Niveau,kiwango,s,usimamizi,mwamali,mshairi,kiwango,NA,NA,3,NA,NA,NA,NA,NA,NA,NA,NA,NA,NA,NA,NA,NA,NA,NA,NA,NA,NA,NA
53c89,"""Richtig""-Screen",canvas.Screen,3_0_3_0_3_1_1,NA,NA,timeout,5000.154,542280.69999999006,542270.999,542287.666,547271.153,547275.5,2023-09-25T15:50:48Z,547287.82,NULL,Niveau,kiwango,s,usimamizi,mwamali,mshairi,NA,qt,1,3,NA,NA,NA,NA,NA,NA,NA,NA,NA,NA,NA,NA,NA,NA,NA,NA,NA,NA,NA
53c89,"""Falsch""-Screen",canvas.Screen,3_0_3_0_3_1_2,NA,NA,skipped,NA,547277.5,NA,NA,547271.153,547277.69999999006,2023-09-25T15:50:48Z,547287.82,NULL,Niveau,kiwango,s,usimamizi,mwamali,mshairi,NA,qt,NA,3,NA,NA,NA,NA,NA,NA,NA,NA,NA,NA,NA,NA,NA,NA,NA,NA,NA,NA,NA
53c89,shallow,flow.Sequence,3_0_3_0_3_1,NA,NA,completion,12383.635,534877.59999996,534870.851,534887.518,547271.153,547277.89999998,2023-09-25T15:50:48Z,547287.82,NULL,Niveau,kiwango,s,usimamizi,mwamali,mshairi,NA,qt,NA,3,NA,NA,NA,NA,NA,NA,NA,NA,NA,NA,NA,NA,NA,NA,NA,NA,NA,NA,NA
53c89,task,flow.Sequence,3_0_3_0_3,NA,NA,completion,12383.635,534877.30000001,534870.851,534887.518,547271.153,547278.09999996,2023-09-25T15:50:48Z,547287.82,NULL,Niveau,kiwango,s,usimamizi,mwamali,mshairi,NA,qt,NA,3,NA,NA,NA,NA,NA,NA,NA,NA,NA,NA,NA,NA,NA,NA,NA,NA,NA,NA,NA
53c89,deep,flow.Sequence,3_0_3_0_4_0,NA,NA,skipped,NA,547278.19999999006,NA,NA,547271.153,547278.30000001,2023-09-25T15:50:48Z,547287.82,NULL,Tester,wanaojaribu,s,sherti,sihiri,mlipuko,NA,qt,NA,3,NA,NA,NA,NA,NA,NA,NA,NA,NA,NA,NA,NA,NA,NA,NA,NA,NA,NA,NA
53c89,Shallow Question,html.Page,3_0_3_0_4_1_0,NA,NA,form submission,9077.8799999881,547278.39999998,547271.153,547287.82,556365.69999999006,556366.09999996,2023-09-25T15:50:58Z,556371.335,NULL,Tester,wanaojaribu,s,sherti,sihiri,mlipuko,wanaojaribu,NA,NA,3,NA,NA,NA,NA,NA,NA,NA,NA,NA,NA,NA,NA,NA,NA,NA,NA,NA,NA,NA
53c89,"""Richtig""-Screen",canvas.Screen,3_0_3_0_4_1_1,NA,NA,timeout,5000.174,556369,556354.668,556371.335,561354.842,561359.80000001,2023-09-25T15:51:03Z,561371.509,NULL,Tester,wanaojaribu,s,sherti,sihiri,mlipuko,NA,qt,1,3,NA,NA,NA,NA,NA,NA,NA,NA,NA,NA,NA,NA,NA,NA,NA,NA,NA,NA,NA
53c89,"""Falsch""-Screen",canvas.Screen,3_0_3_0_4_1_2,NA,NA,skipped,NA,561361.69999999006,NA,NA,561354.842,561361.89999998,2023-09-25T15:51:03Z,561371.509,NULL,Tester,wanaojaribu,s,sherti,sihiri,mlipuko,NA,qt,NA,3,NA,NA,NA,NA,NA,NA,NA,NA,NA,NA,NA,NA,NA,NA,NA,NA,NA,NA,NA
53c89,shallow,flow.Sequence,3_0_3_0_4_1,NA,NA,completion,14067.022,547278.39999998,547271.153,547287.82,561354.842,561362.19999999006,2023-09-25T15:51:03Z,561371.509,NULL,Tester,wanaojaribu,s,sherti,sihiri,mlipuko,NA,qt,NA,3,NA,NA,NA,NA,NA,NA,NA,NA,NA,NA,NA,NA,NA,NA,NA,NA,NA,NA,NA
53c89,task,flow.Sequence,3_0_3_0_4,NA,NA,completion,14067.022,547278.19999999006,547271.153,547287.82,561354.842,561362.30000001,2023-09-25T15:51:03Z,561371.509,NULL,Tester,wanaojaribu,s,sherti,sihiri,mlipuko,NA,qt,NA,3,NA,NA,NA,NA,NA,NA,NA,NA,NA,NA,NA,NA,NA,NA,NA,NA,NA,NA,NA
53c89,Deep Question,html.Page,3_0_3_0_5_0_0,NA,NA,form submission,15685.890999976,561362.5,561354.842,561371.509,577057.39999998,577057.80000001,2023-09-25T15:51:18Z,577071.864,NULL,Entwicklung,maendeleo,d,NA,NA,NA,maendeleo,NA,NA,3,NA,NA,NA,NA,NA,NA,NA,NA,NA,NA,NA,NA,NA,NA,NA,NA,NA,NA,NA
53c89,"""Richtig""-Screen",canvas.Screen,3_0_3_0_5_0_1,NA,NA,timeout,5000.1560000001,577060.5,577055.197,577071.864,582055.353,582059.80000001,2023-09-25T15:51:23Z,582072.02,NULL,Entwicklung,maendeleo,d,NA,NA,NA,NA,qt,1,3,NA,NA,NA,NA,NA,NA,NA,NA,NA,NA,NA,NA,NA,NA,NA,NA,NA,NA,NA
53c89,"""Falsch""-Screen",canvas.Screen,3_0_3_0_5_0_2,NA,NA,skipped,NA,582061.5,NA,NA,582055.353,582061.69999999006,2023-09-25T15:51:23Z,582072.02,NULL,Entwicklung,maendeleo,d,NA,NA,NA,NA,qt,NA,3,NA,NA,NA,NA,NA,NA,NA,NA,NA,NA,NA,NA,NA,NA,NA,NA,NA,NA,NA
53c89,deep,flow.Sequence,3_0_3_0_5_0,NA,NA,completion,20683.844,561362.5,561354.842,561371.509,582055.353,582061.89999998,2023-09-25T15:51:23Z,582072.02,NULL,Entwicklung,maendeleo,d,NA,NA,NA,NA,qt,NA,3,NA,NA,NA,NA,NA,NA,NA,NA,NA,NA,NA,NA,NA,NA,NA,NA,NA,NA,NA
53c89,shallow,flow.Sequence,3_0_3_0_5_1,NA,NA,skipped,NA,582062,NA,NA,582055.353,582062.09999996,2023-09-25T15:51:23Z,582072.02,NULL,Entwicklung,maendeleo,d,NA,NA,NA,NA,qt,NA,3,NA,NA,NA,NA,NA,NA,NA,NA,NA,NA,NA,NA,NA,NA,NA,NA,NA,NA,NA
53c89,task,flow.Sequence,3_0_3_0_5,NA,NA,completion,20683.844,561362.5,561354.842,561371.509,582055.353,582062.19999999006,2023-09-25T15:51:23Z,582072.02,NULL,Entwicklung,maendeleo,d,NA,NA,NA,NA,qt,NA,3,NA,NA,NA,NA,NA,NA,NA,NA,NA,NA,NA,NA,NA,NA,NA,NA,NA,NA,NA
53c89,deep,flow.Sequence,3_0_3_0_6_0,NA,NA,skipped,NA,582062.39999998,NA,NA,582055.353,582062.59999996,2023-09-25T15:51:23Z,582072.02,NULL,Papier,karatasi,s,uchambuzi,usalama,kukataliwa,NA,qt,NA,3,NA,NA,NA,NA,NA,NA,NA,NA,NA,NA,NA,NA,NA,NA,NA,NA,NA,NA,NA
53c89,Shallow Question,html.Page,3_0_3_0_6_1_0,NA,NA,form submission,7575.2800000119,582062.69999999006,582055.353,582072.02,589647.30000001,589647.89999998,2023-09-25T15:51:31Z,589655.505,NULL,Papier,karatasi,s,uchambuzi,usalama,kukataliwa,karatasi,NA,NA,3,NA,NA,NA,NA,NA,NA,NA,NA,NA,NA,NA,NA,NA,NA,NA,NA,NA,NA,NA
53c89,"""Richtig""-Screen",canvas.Screen,3_0_3_0_6_1_1,NA,NA,timeout,5000.152,589650.30000001,589638.838,589655.505,594638.99,594641.80000001,2023-09-25T15:51:36Z,594655.657,NULL,Papier,karatasi,s,uchambuzi,usalama,kukataliwa,NA,qt,1,3,NA,NA,NA,NA,NA,NA,NA,NA,NA,NA,NA,NA,NA,NA,NA,NA,NA,NA,NA
53c89,"""Falsch""-Screen",canvas.Screen,3_0_3_0_6_1_2,NA,NA,skipped,NA,594643.09999996,NA,NA,594638.99,594643.19999999006,2023-09-25T15:51:36Z,594655.657,NULL,Papier,karatasi,s,uchambuzi,usalama,kukataliwa,NA,qt,NA,3,NA,NA,NA,NA,NA,NA,NA,NA,NA,NA,NA,NA,NA,NA,NA,NA,NA,NA,NA
53c89,shallow,flow.Sequence,3_0_3_0_6_1,NA,NA,completion,12566.97,582062.59999996,582055.353,582072.02,594638.99,594643.30000000994,2023-09-25T15:51:36Z,594655.657,NULL,Papier,karatasi,s,uchambuzi,usalama,kukataliwa,NA,qt,NA,3,NA,NA,NA,NA,NA,NA,NA,NA,NA,NA,NA,NA,NA,NA,NA,NA,NA,NA,NA
53c89,task,flow.Sequence,3_0_3_0_6,NA,NA,completion,12566.97,582062.39999998,582055.353,582072.02,594638.99,594643.5,2023-09-25T15:51:36Z,594655.657,NULL,Papier,karatasi,s,uchambuzi,usalama,kukataliwa,NA,qt,NA,3,NA,NA,NA,NA,NA,NA,NA,NA,NA,NA,NA,NA,NA,NA,NA,NA,NA,NA,NA
53c89,Deep Question,html.Page,3_0_3_0_7_0_0,NA,NA,form submission,9145.6430000119,594643.59999996,594638.99,594655.657,603801.30000001,603801.80000001,2023-09-25T15:51:45Z,603805.84,NULL,Vorwurf,mashtaka,d,NA,NA,NA,mashtango,NA,NA,3,NA,NA,NA,NA,NA,NA,NA,NA,NA,NA,NA,NA,NA,NA,NA,NA,NA,NA,NA
53c89,"""Richtig""-Screen",canvas.Screen,3_0_3_0_7_0_1,NA,NA,skipped,NA,603804.69999999006,NA,NA,603801.30000001,603804.89999998,2023-09-25T15:51:45Z,603805.84,NULL,Vorwurf,mashtaka,d,NA,NA,NA,NA,qt,NA,3,NA,NA,NA,NA,NA,NA,NA,NA,NA,NA,NA,NA,NA,NA,NA,NA,NA,NA,NA
53c89,"""Falsch""-Screen",canvas.Screen,3_0_3_0_7_0_2,NA,NA,timeout,5000.162,603805.39999998,603789.173,603805.84,608789.335,608794.39999998,2023-09-25T15:51:50Z,608806.002,NULL,Vorwurf,mashtaka,d,NA,NA,NA,NA,qt,0,3,NA,NA,NA,NA,NA,NA,NA,NA,NA,NA,NA,NA,NA,NA,NA,NA,NA,NA,NA
53c89,deep,flow.Sequence,3_0_3_0_7_0,NA,NA,completion,14133.678,594643.5,594638.99,594655.657,608789.335,608794.80000001,2023-09-25T15:51:50Z,608806.002,NULL,Vorwurf,mashtaka,d,NA,NA,NA,NA,qt,NA,3,NA,NA,NA,NA,NA,NA,NA,NA,NA,NA,NA,NA,NA,NA,NA,NA,NA,NA,NA
53c89,shallow,flow.Sequence,3_0_3_0_7_1,NA,NA,skipped,NA,608795.09999996,NA,NA,608789.335,608795.09999996,2023-09-25T15:51:50Z,608806.002,NULL,Vorwurf,mashtaka,d,NA,NA,NA,NA,qt,NA,3,NA,NA,NA,NA,NA,NA,NA,NA,NA,NA,NA,NA,NA,NA,NA,NA,NA,NA,NA
53c89,task,flow.Sequence,3_0_3_0_7,NA,NA,completion,14133.678,594643.5,594638.99,594655.657,608789.335,608795.30000000994,2023-09-25T15:51:50Z,608806.002,NULL,Vorwurf,mashtaka,d,NA,NA,NA,NA,qt,NA,3,NA,NA,NA,NA,NA,NA,NA,NA,NA,NA,NA,NA,NA,NA,NA,NA,NA,NA,NA
53c89,block,flow.Loop,3_0_3_0,NA,NA,completion,105502.496,503271.89999998,503270.172,503286.839,608789.335,608795.5,2023-09-25T15:51:50Z,608806.002,NULL,NA,NA,NA,NA,NA,NA,NA,qt,NA,3,NA,NA,NA,NA,NA,NA,NA,NA,NA,NA,NA,NA,NA,NA,NA,NA,NA,NA,NA
53c89,weiter,canvas.Screen,3_0_3_1,sdf,keypress(Space),response,1171.5979999643,608795.59999996,608789.335,608806.002,609977.59999996,609983,2023-09-25T15:51:51Z,610189.363,NULL,NA,NA,NA,NA,NA,NA,NA,qt,NA,3,NA,NA,NA,NA,NA,NA,NA,NA,NA,NA,NA,NA,NA,NA,NA,NA,NA,NA,NA
53c89,check continue,flow.Sequence,3_0_3,NA,NA,completion,106690.76099996,503271.80000001,503270.172,503286.839,609977.59999996,609983.39999998,2023-09-25T15:51:51Z,610189.363,NULL,NA,NA,NA,NA,NA,NA,NA,qt,NA,3,NA,NA,NA,NA,NA,NA,NA,NA,NA,NA,NA,NA,NA,NA,NA,NA,NA,NA,NA
53c89,check continue,flow.Sequence,3_0_4,NA,NA,skipped,NA,610010.89999998,NA,NA,609977.59999996,610011.09999996,2023-09-25T15:51:51Z,610189.363,NULL,NA,NA,NA,NA,NA,NA,NA,sd,NA,4,NA,NA,NA,NA,NA,NA,NA,NA,NA,NA,NA,NA,NA,NA,NA,NA,NA,NA,NA
53c89,check continue,flow.Sequence,3_0_5,NA,NA,skipped,NA,610025.39999998,NA,NA,609977.59999996,610025.5,2023-09-25T15:51:51Z,610189.363,NULL,NA,NA,NA,NA,NA,NA,NA,sdf,NA,5,NA,NA,NA,NA,NA,NA,NA,NA,NA,NA,NA,NA,NA,NA,NA,NA,NA,NA,NA
53c89,check continue,flow.Sequence,3_0_6,NA,NA,skipped,NA,610036.59999996,NA,NA,609977.59999996,610036.59999996,2023-09-25T15:51:51Z,610189.363,NULL,NA,NA,NA,NA,NA,NA,NA,dfs,NA,6,NA,NA,NA,NA,NA,NA,NA,NA,NA,NA,NA,NA,NA,NA,NA,NA,NA,NA,NA
53c89,check continue,flow.Sequence,3_0_7,NA,NA,skipped,NA,610045.80000000994,NA,NA,609977.59999996,610045.89999998,2023-09-25T15:51:51Z,610189.363,NULL,NA,NA,NA,NA,NA,NA,NA,df,NA,7,NA,NA,NA,NA,NA,NA,NA,NA,NA,NA,NA,NA,NA,NA,NA,NA,NA,NA,NA
53c89,check continue,flow.Sequence,3_0_8,NA,NA,skipped,NA,610054,NA,NA,609977.59999996,610054,2023-09-25T15:51:51Z,610189.363,NULL,NA,NA,NA,NA,NA,NA,NA,dfs,NA,8,NA,NA,NA,NA,NA,NA,NA,NA,NA,NA,NA,NA,NA,NA,NA,NA,NA,NA,NA
53c89,check continue,flow.Sequence,3_0_9,NA,NA,skipped,NA,610061.19999999006,NA,NA,609977.59999996,610061.19999999006,2023-09-25T15:51:51Z,610189.363,NULL,NA,NA,NA,NA,NA,NA,NA,dsf,NA,9,NA,NA,NA,NA,NA,NA,NA,NA,NA,NA,NA,NA,NA,NA,NA,NA,NA,NA,NA
53c89,check continue,flow.Sequence,3_0_10,NA,NA,skipped,NA,610068.19999999006,NA,NA,609977.59999996,610068.19999999006,2023-09-25T15:51:51Z,610189.363,NULL,NA,NA,NA,NA,NA,NA,NA,df,NA,10,NA,NA,NA,NA,NA,NA,NA,NA,NA,NA,NA,NA,NA,NA,NA,NA,NA,NA,NA
53c89,check continue,flow.Sequence,3_0_11,NA,NA,skipped,NA,610074.89999998,NA,NA,609977.59999996,610074.89999998,2023-09-25T15:51:51Z,610189.363,NULL,NA,NA,NA,NA,NA,NA,NA,dfs,NA,11,NA,NA,NA,NA,NA,NA,NA,NA,NA,NA,NA,NA,NA,NA,NA,NA,NA,NA,NA
53c89,check continue,flow.Sequence,3_0_12,NA,NA,skipped,NA,610082.19999999006,NA,NA,609977.59999996,610082.19999999006,2023-09-25T15:51:51Z,610189.363,NULL,NA,NA,NA,NA,NA,NA,NA,dsf,NA,12,NA,NA,NA,NA,NA,NA,NA,NA,NA,NA,NA,NA,NA,NA,NA,NA,NA,NA,NA
53c89,check continue,flow.Sequence,3_0_13,NA,NA,skipped,NA,610088.09999996,NA,NA,609977.59999996,610088.19999999006,2023-09-25T15:51:51Z,610189.363,NULL,NA,NA,NA,NA,NA,NA,NA,dsf,NA,13,NA,NA,NA,NA,NA,NA,NA,NA,NA,NA,NA,NA,NA,NA,NA,NA,NA,NA,NA
53c89,check continue,flow.Sequence,3_0_14,NA,NA,skipped,NA,610093.89999998,NA,NA,609977.59999996,610093.89999998,2023-09-25T15:51:51Z,610189.363,NULL,NA,NA,NA,NA,NA,NA,NA,NA,NA,14,NA,NA,NA,NA,NA,NA,NA,NA,NA,NA,NA,NA,NA,NA,NA,NA,NA,NA,NA
53c89,check continue,flow.Sequence,3_0_15,NA,NA,skipped,NA,610099.69999999006,NA,NA,609977.59999996,610099.69999999006,2023-09-25T15:51:51Z,610189.363,NULL,NA,NA,NA,NA,NA,NA,NA,NA,NA,15,NA,NA,NA,NA,NA,NA,NA,NA,NA,NA,NA,NA,NA,NA,NA,NA,NA,NA,NA
53c89,check continue,flow.Sequence,3_0_16,NA,NA,skipped,NA,610105.19999999006,NA,NA,609977.59999996,610105.30000001,2023-09-25T15:51:51Z,610189.363,NULL,NA,NA,NA,NA,NA,NA,NA,NA,NA,16,NA,NA,NA,NA,NA,NA,NA,NA,NA,NA,NA,NA,NA,NA,NA,NA,NA,NA,NA
53c89,check continue,flow.Sequence,3_0_17,NA,NA,skipped,NA,610111.19999999006,NA,NA,609977.59999996,610111.30000000994,2023-09-25T15:51:51Z,610189.363,NULL,NA,NA,NA,NA,NA,NA,NA,NA,NA,17,NA,NA,NA,NA,NA,NA,NA,NA,NA,NA,NA,NA,NA,NA,NA,NA,NA,NA,NA
53c89,check continue,flow.Sequence,3_0_18,NA,NA,skipped,NA,610116.39999998,NA,NA,609977.59999996,610116.39999998,2023-09-25T15:51:51Z,610189.363,NULL,NA,NA,NA,NA,NA,NA,NA,NA,NA,18,NA,NA,NA,NA,NA,NA,NA,NA,NA,NA,NA,NA,NA,NA,NA,NA,NA,NA,NA
53c89,check continue,flow.Sequence,3_0_19,NA,NA,skipped,NA,610122.19999999006,NA,NA,609977.59999996,610122.30000001,2023-09-25T15:51:51Z,610189.363,NULL,NA,NA,NA,NA,NA,NA,NA,NA,NA,19,NA,NA,NA,NA,NA,NA,NA,NA,NA,NA,NA,NA,NA,NA,NA,NA,NA,NA,NA
53c89,check continue,flow.Sequence,3_0_20,NA,NA,skipped,NA,610127.5,NA,NA,609977.59999996,610127.59999996,2023-09-25T15:51:51Z,610189.363,NULL,NA,NA,NA,NA,NA,NA,NA,NA,NA,20,NA,NA,NA,NA,NA,NA,NA,NA,NA,NA,NA,NA,NA,NA,NA,NA,NA,NA,NA
53c89,check continue,flow.Sequence,3_0_21,NA,NA,skipped,NA,610133,NA,NA,609977.59999996,610133,2023-09-25T15:51:51Z,610189.363,NULL,NA,NA,NA,NA,NA,NA,NA,NA,NA,21,NA,NA,NA,NA,NA,NA,NA,NA,NA,NA,NA,NA,NA,NA,NA,NA,NA,NA,NA
53c89,check continue,flow.Sequence,3_0_22,NA,NA,skipped,NA,610138.89999998,NA,NA,609977.59999996,610138.89999998,2023-09-25T15:51:51Z,610189.363,NULL,NA,NA,NA,NA,NA,NA,NA,NA,NA,22,NA,NA,NA,NA,NA,NA,NA,NA,NA,NA,NA,NA,NA,NA,NA,NA,NA,NA,NA
53c89,check continue,flow.Sequence,3_0_23,NA,NA,skipped,NA,610143.80000001,NA,NA,609977.59999996,610143.89999998,2023-09-25T15:51:51Z,610189.363,NULL,NA,NA,NA,NA,NA,NA,NA,NA,NA,23,NA,NA,NA,NA,NA,NA,NA,NA,NA,NA,NA,NA,NA,NA,NA,NA,NA,NA,NA
53c89,check continue,flow.Sequence,3_0_24,NA,NA,skipped,NA,610149.59999996,NA,NA,609977.59999996,610149.59999996,2023-09-25T15:51:51Z,610189.363,NULL,NA,NA,NA,NA,NA,NA,NA,NA,NA,24,NA,NA,NA,NA,NA,NA,NA,NA,NA,NA,NA,NA,NA,NA,NA,NA,NA,NA,NA
53c89,check continue,flow.Sequence,3_0_25,NA,NA,skipped,NA,610154.80000000994,NA,NA,609977.59999996,610154.80000000994,2023-09-25T15:51:51Z,610189.363,NULL,NA,NA,NA,NA,NA,NA,NA,NA,NA,25,NA,NA,NA,NA,NA,NA,NA,NA,NA,NA,NA,NA,NA,NA,NA,NA,NA,NA,NA
53c89,check continue,flow.Sequence,3_0_26,NA,NA,skipped,NA,610160.69999999006,NA,NA,609977.59999996,610160.80000001,2023-09-25T15:51:51Z,610189.363,NULL,NA,NA,NA,NA,NA,NA,NA,NA,NA,26,NA,NA,NA,NA,NA,NA,NA,NA,NA,NA,NA,NA,NA,NA,NA,NA,NA,NA,NA
53c89,check continue,flow.Sequence,3_0_27,NA,NA,skipped,NA,610165.69999999006,NA,NA,609977.59999996,610165.80000001,2023-09-25T15:51:51Z,610189.363,NULL,NA,NA,NA,NA,NA,NA,NA,NA,NA,27,NA,NA,NA,NA,NA,NA,NA,NA,NA,NA,NA,NA,NA,NA,NA,NA,NA,NA,NA
53c89,check continue,flow.Sequence,3_0_28,NA,NA,skipped,NA,610176,NA,NA,609977.59999996,610176.09999996,2023-09-25T15:51:51Z,610189.363,NULL,NA,NA,NA,NA,NA,NA,NA,NA,NA,28,NA,NA,NA,NA,NA,NA,NA,NA,NA,NA,NA,NA,NA,NA,NA,NA,NA,NA,NA
53c89,check continue,flow.Sequence,3_0_29,NA,NA,skipped,NA,610181.39999998,NA,NA,609977.59999996,610181.39999998,2023-09-25T15:51:51Z,610189.363,NULL,NA,NA,NA,NA,NA,NA,NA,NA,NA,29,NA,NA,NA,NA,NA,NA,NA,NA,NA,NA,NA,NA,NA,NA,NA,NA,NA,NA,NA
53c89,until continue,flow.Loop,3_0,NA,NA,completion,386181.09899996,223781.5,223779.834,223796.501,609977.59999996,610181.5,2023-09-25T15:51:51Z,610189.363,NULL,NA,NA,NA,NA,NA,NA,NA,NA,NA,NA,NA,NA,NA,NA,NA,NA,NA,NA,NA,NA,NA,NA,NA,NA,NA,NA,NA,NA,NA
53c89,block 1,flow.Sequence,3,NA,NA,completion,386181.09899996,223781.5,223779.834,223796.501,609977.59999996,610181.5,2023-09-25T15:51:51Z,610189.363,NULL,NA,NA,NA,NA,NA,NA,NA,NA,NA,NA,NA,NA,NA,NA,NA,NA,NA,NA,NA,NA,NA,NA,NA,NA,NA,NA,NA,NA,NA
53c89,1.Part Over,canvas.Screen,4,NA,keypress(Space),response,2024.4370000119,610181.5,610172.696,610189.363,612213.80000000994,612218,2023-09-25T15:51:53Z,612272.738,NULL,NA,NA,NA,NA,NA,NA,NA,NA,NA,NA,NA,NA,NA,NA,NA,NA,NA,NA,NA,NA,NA,NA,NA,NA,NA,NA,NA,NA,NA
53c89,Deep Question,html.Page,5_0_0_0_0_0_0,NA,NA,form submission,5260.1619999761,612263.30000001,612256.071,612272.738,617532.89999998,617533.39999998,2023-09-25T15:51:59Z,617539.51,NULL,Genehmigung,idhini,d,NA,NA,NA,df,NA,NA,0,NA,NA,NA,NA,NA,NA,NA,NA,NA,NA,NA,NA,NA,NA,NA,NA,NA,NA,NA
53c89,"""Richtig""-Screen",canvas.Screen,5_0_0_0_0_0_1,NA,NA,skipped,NA,617536.19999999006,NA,NA,617532.89999998,617536.30000000994,2023-09-25T15:51:59Z,617539.51,NULL,Genehmigung,idhini,d,NA,NA,NA,NA,sdf,NA,0,NA,NA,NA,NA,NA,NA,NA,NA,NA,NA,NA,NA,NA,NA,NA,NA,NA,NA,NA
53c89,"""Falsch""-Screen",canvas.Screen,5_0_0_0_0_0_2,NA,NA,timeout,5000.2289999999,617537,617522.843,617539.51,622523.072,622527.39999998,2023-09-25T15:52:04Z,622539.739,NULL,Genehmigung,idhini,d,NA,NA,NA,NA,sdf,0,0,NA,NA,NA,NA,NA,NA,NA,NA,NA,NA,NA,NA,NA,NA,NA,NA,NA,NA,NA
53c89,deep,flow.Sequence,5_0_0_0_0_0,NA,NA,completion,10250.334,612263.30000001,612256.071,612272.738,622523.072,622527.89999998,2023-09-25T15:52:04Z,622539.739,NULL,Genehmigung,idhini,d,NA,NA,NA,NA,sdf,NA,0,NA,NA,NA,NA,NA,NA,NA,NA,NA,NA,NA,NA,NA,NA,NA,NA,NA,NA,NA
53c89,shallow,flow.Sequence,5_0_0_0_0_1,NA,NA,skipped,NA,622528.09999996,NA,NA,622523.072,622528.19999999006,2023-09-25T15:52:04Z,622539.739,NULL,Genehmigung,idhini,d,NA,NA,NA,NA,sdf,NA,0,NA,NA,NA,NA,NA,NA,NA,NA,NA,NA,NA,NA,NA,NA,NA,NA,NA,NA,NA
53c89,task,flow.Sequence,5_0_0_0_0,NA,NA,completion,10250.334,612263.30000001,612256.071,612272.738,622523.072,622528.30000001,2023-09-25T15:52:04Z,622539.739,NULL,Genehmigung,idhini,d,NA,NA,NA,NA,sdf,NA,0,NA,NA,NA,NA,NA,NA,NA,NA,NA,NA,NA,NA,NA,NA,NA,NA,NA,NA,NA
53c89,deep,flow.Sequence,5_0_0_0_1_0,NA,NA,skipped,NA,622528.5,NA,NA,622523.072,622528.59999996,2023-09-25T15:52:04Z,622539.739,NULL,Fleisch,mshakiki,s,kizunguzungu,mshikamano,angusho,NA,sdf,NA,0,NA,NA,NA,NA,NA,NA,NA,NA,NA,NA,NA,NA,NA,NA,NA,NA,NA,NA,NA
53c89,Shallow Question,html.Page,5_0_0_0_1_1_0,NA,NA,form submission,5986.8609999643,622528.69999999006,622523.072,622539.739,628526.59999996,628527.09999996,2023-09-25T15:52:10Z,628539.859,NULL,Fleisch,mshakiki,s,kizunguzungu,mshikamano,angusho,angusho,NA,NA,0,NA,NA,NA,NA,NA,NA,NA,NA,NA,NA,NA,NA,NA,NA,NA,NA,NA,NA,NA
53c89,"""Richtig""-Screen",canvas.Screen,5_0_0_0_1_1_1,NA,NA,skipped,NA,628530.09999996,NA,NA,628526.59999996,628530.09999996,2023-09-25T15:52:10Z,628539.859,NULL,Fleisch,mshakiki,s,kizunguzungu,mshikamano,angusho,NA,sdf,NA,0,NA,NA,NA,NA,NA,NA,NA,NA,NA,NA,NA,NA,NA,NA,NA,NA,NA,NA,NA
53c89,"""Falsch""-Screen",canvas.Screen,5_0_0_0_1_1_2,NA,NA,timeout,5000.0819999999,628531,628523.192,628539.859,633523.274,633528.19999999006,2023-09-25T15:52:15Z,633539.941,NULL,Fleisch,mshakiki,s,kizunguzungu,mshikamano,angusho,NA,sdf,0,0,NA,NA,NA,NA,NA,NA,NA,NA,NA,NA,NA,NA,NA,NA,NA,NA,NA,NA,NA
53c89,shallow,flow.Sequence,5_0_0_0_1_1,NA,NA,completion,10983.535,622528.69999999006,622523.072,622539.739,633523.274,633528.69999999006,2023-09-25T15:52:15Z,633539.941,NULL,Fleisch,mshakiki,s,kizunguzungu,mshikamano,angusho,NA,sdf,NA,0,NA,NA,NA,NA,NA,NA,NA,NA,NA,NA,NA,NA,NA,NA,NA,NA,NA,NA,NA
53c89,task,flow.Sequence,5_0_0_0_1,NA,NA,completion,10983.535,622528.39999998,622523.072,622539.739,633523.274,633528.89999998,2023-09-25T15:52:15Z,633539.941,NULL,Fleisch,mshakiki,s,kizunguzungu,mshikamano,angusho,NA,sdf,NA,0,NA,NA,NA,NA,NA,NA,NA,NA,NA,NA,NA,NA,NA,NA,NA,NA,NA,NA,NA
53c89,Deep Question,html.Page,5_0_0_0_2_0_0,NA,NA,form submission,5694.1589999642,633529,633523.274,633539.941,639234.09999996,639234.5,2023-09-25T15:52:20Z,639240.055,NULL,Begegnung,kukutana,d,NA,NA,NA,d,NA,NA,0,NA,NA,NA,NA,NA,NA,NA,NA,NA,NA,NA,NA,NA,NA,NA,NA,NA,NA,NA
53c89,"""Richtig""-Screen",canvas.Screen,5_0_0_0_2_0_1,NA,NA,skipped,NA,639235.89999998,NA,NA,639234.09999996,639235.89999998,2023-09-25T15:52:20Z,639240.055,NULL,Begegnung,kukutana,d,NA,NA,NA,NA,sdf,NA,0,NA,NA,NA,NA,NA,NA,NA,NA,NA,NA,NA,NA,NA,NA,NA,NA,NA,NA,NA
53c89,"""Falsch""-Screen",canvas.Screen,5_0_0_0_2_0_2,NA,NA,timeout,5000.1549999999,639236.59999996,639223.388,639240.055,644223.543,644228.39999998,2023-09-25T15:52:25Z,644240.21,NULL,Begegnung,kukutana,d,NA,NA,NA,NA,sdf,0,0,NA,NA,NA,NA,NA,NA,NA,NA,NA,NA,NA,NA,NA,NA,NA,NA,NA,NA,NA
53c89,deep,flow.Sequence,5_0_0_0_2_0,NA,NA,completion,10683.602,633529,633523.274,633539.941,644223.543,644228.80000001,2023-09-25T15:52:25Z,644240.21,NULL,Begegnung,kukutana,d,NA,NA,NA,NA,sdf,NA,0,NA,NA,NA,NA,NA,NA,NA,NA,NA,NA,NA,NA,NA,NA,NA,NA,NA,NA,NA
53c89,shallow,flow.Sequence,5_0_0_0_2_1,NA,NA,skipped,NA,644228.89999998,NA,NA,644223.543,644229.09999996,2023-09-25T15:52:25Z,644240.21,NULL,Begegnung,kukutana,d,NA,NA,NA,NA,sdf,NA,0,NA,NA,NA,NA,NA,NA,NA,NA,NA,NA,NA,NA,NA,NA,NA,NA,NA,NA,NA
53c89,task,flow.Sequence,5_0_0_0_2,NA,NA,completion,10683.602,633529,633523.274,633539.941,644223.543,644229.19999999006,2023-09-25T15:52:25Z,644240.21,NULL,Begegnung,kukutana,d,NA,NA,NA,NA,sdf,NA,0,NA,NA,NA,NA,NA,NA,NA,NA,NA,NA,NA,NA,NA,NA,NA,NA,NA,NA,NA
53c89,deep,flow.Sequence,5_0_0_0_3_0,NA,NA,skipped,NA,644229.39999998,NA,NA,644223.543,644229.5,2023-09-25T15:52:25Z,644240.21,NULL,Integrität,uadilifu,s,muungano,mtiririko,upunguaji,NA,sdf,NA,0,NA,NA,NA,NA,NA,NA,NA,NA,NA,NA,NA,NA,NA,NA,NA,NA,NA,NA,NA
53c89,Shallow Question,html.Page,5_0_0_0_3_1_0,NA,NA,form submission,6538.3899999643,644229.59999996,644223.543,644240.21,650778.59999996,650779.19999999006,2023-09-25T15:52:32Z,650790.341,NULL,Integrität,uadilifu,s,muungano,mtiririko,upunguaji,upunguaji,NA,NA,0,NA,NA,NA,NA,NA,NA,NA,NA,NA,NA,NA,NA,NA,NA,NA,NA,NA,NA,NA
53c89,"""Richtig""-Screen",canvas.Screen,5_0_0_0_3_1_1,NA,NA,skipped,NA,650781.89999998,NA,NA,650778.59999996,650782,2023-09-25T15:52:32Z,650790.341,NULL,Integrität,uadilifu,s,muungano,mtiririko,upunguaji,NA,sdf,NA,0,NA,NA,NA,NA,NA,NA,NA,NA,NA,NA,NA,NA,NA,NA,NA,NA,NA,NA,NA
53c89,"""Falsch""-Screen",canvas.Screen,5_0_0_0_3_1_2,NA,NA,timeout,5000.149,650782.80000001,650773.674,650790.341,655773.823,655776.69999999006,2023-09-25T15:52:37Z,655790.49,NULL,Integrität,uadilifu,s,muungano,mtiririko,upunguaji,NA,sdf,0,0,NA,NA,NA,NA,NA,NA,NA,NA,NA,NA,NA,NA,NA,NA,NA,NA,NA,NA,NA
53c89,shallow,flow.Sequence,5_0_0_0_3_1,NA,NA,completion,11533.613,644229.59999996,644223.543,644240.21,655773.823,655777.39999998,2023-09-25T15:52:37Z,655790.49,NULL,Integrität,uadilifu,s,muungano,mtiririko,upunguaji,NA,sdf,NA,0,NA,NA,NA,NA,NA,NA,NA,NA,NA,NA,NA,NA,NA,NA,NA,NA,NA,NA,NA
53c89,task,flow.Sequence,5_0_0_0_3,NA,NA,completion,11533.613,644229.30000000994,644223.543,644240.21,655773.823,655777.5,2023-09-25T15:52:37Z,655790.49,NULL,Integrität,uadilifu,s,muungano,mtiririko,upunguaji,NA,sdf,NA,0,NA,NA,NA,NA,NA,NA,NA,NA,NA,NA,NA,NA,NA,NA,NA,NA,NA,NA,NA
53c89,Deep Question,html.Page,5_0_0_0_4_0_0,NA,NA,form submission,3476.9099999762,655777.80000001,655773.823,655790.49,659267.39999998,659267.80000000994,2023-09-25T15:52:40Z,659273.893,NULL,Toleranz,kuvumiliana,d,NA,NA,NA,adsf,NA,NA,0,NA,NA,NA,NA,NA,NA,NA,NA,NA,NA,NA,NA,NA,NA,NA,NA,NA,NA,NA
53c89,"""Richtig""-Screen",canvas.Screen,5_0_0_0_4_0_1,NA,NA,skipped,NA,659269.09999996,NA,NA,659267.39999998,659269.30000001,2023-09-25T15:52:40Z,659273.893,NULL,Toleranz,kuvumiliana,d,NA,NA,NA,NA,sdf,NA,0,NA,NA,NA,NA,NA,NA,NA,NA,NA,NA,NA,NA,NA,NA,NA,NA,NA,NA,NA
53c89,"""Falsch""-Screen",canvas.Screen,5_0_0_0_4_0_2,NA,NA,timeout,5000.1,659270,659257.226,659273.893,664257.326,664261.80000001,2023-09-25T15:52:45Z,664273.993,NULL,Toleranz,kuvumiliana,d,NA,NA,NA,NA,sdf,0,0,NA,NA,NA,NA,NA,NA,NA,NA,NA,NA,NA,NA,NA,NA,NA,NA,NA,NA,NA
53c89,deep,flow.Sequence,5_0_0_0_4_0,NA,NA,completion,8466.836,655777.80000001,655773.823,655790.49,664257.326,664262.19999999006,2023-09-25T15:52:45Z,664273.993,NULL,Toleranz,kuvumiliana,d,NA,NA,NA,NA,sdf,NA,0,NA,NA,NA,NA,NA,NA,NA,NA,NA,NA,NA,NA,NA,NA,NA,NA,NA,NA,NA
53c89,shallow,flow.Sequence,5_0_0_0_4_1,NA,NA,skipped,NA,664262.30000001,NA,NA,664257.326,664262.5,2023-09-25T15:52:45Z,664273.993,NULL,Toleranz,kuvumiliana,d,NA,NA,NA,NA,sdf,NA,0,NA,NA,NA,NA,NA,NA,NA,NA,NA,NA,NA,NA,NA,NA,NA,NA,NA,NA,NA
53c89,task,flow.Sequence,5_0_0_0_4,NA,NA,completion,8466.836,655777.69999999006,655773.823,655790.49,664257.326,664262.59999996,2023-09-25T15:52:45Z,664273.993,NULL,Toleranz,kuvumiliana,d,NA,NA,NA,NA,sdf,NA,0,NA,NA,NA,NA,NA,NA,NA,NA,NA,NA,NA,NA,NA,NA,NA,NA,NA,NA,NA
53c89,deep,flow.Sequence,5_0_0_0_5_0,NA,NA,skipped,NA,664262.80000001,NA,NA,664257.326,664262.89999998,2023-09-25T15:52:45Z,664273.993,NULL,Vermutung,udhanifu,s,haramia,tikisho,itifaki,NA,sdf,NA,0,NA,NA,NA,NA,NA,NA,NA,NA,NA,NA,NA,NA,NA,NA,NA,NA,NA,NA,NA
53c89,Shallow Question,html.Page,5_0_0_0_5_1_0,NA,NA,form submission,3881.3070000119,664263.09999996,664257.326,664273.993,668155.30000001,668155.80000000994,2023-09-25T15:52:49Z,668157.554,NULL,Vermutung,udhanifu,s,haramia,tikisho,itifaki,haramia,NA,NA,0,NA,NA,NA,NA,NA,NA,NA,NA,NA,NA,NA,NA,NA,NA,NA,NA,NA,NA,NA
53c89,"""Richtig""-Screen",canvas.Screen,5_0_0_0_5_1_1,NA,NA,skipped,NA,668157.39999998,NA,NA,668155.30000001,668157.5,2023-09-25T15:52:49Z,668157.554,NULL,Vermutung,udhanifu,s,haramia,tikisho,itifaki,NA,sdf,NA,0,NA,NA,NA,NA,NA,NA,NA,NA,NA,NA,NA,NA,NA,NA,NA,NA,NA,NA,NA
53c89,"""Falsch""-Screen",canvas.Screen,5_0_0_0_5_1_2,NA,NA,timeout,5000.1,668158.09999996,668140.887,668157.554,673140.987,673144.19999999006,2023-09-25T15:52:54Z,673157.654,NULL,Vermutung,udhanifu,s,haramia,tikisho,itifaki,NA,sdf,0,0,NA,NA,NA,NA,NA,NA,NA,NA,NA,NA,NA,NA,NA,NA,NA,NA,NA,NA,NA
53c89,shallow,flow.Sequence,5_0_0_0_5_1,NA,NA,completion,8866.9939999999,664263.09999996,664257.326,664273.993,673140.987,673144.59999996,2023-09-25T15:52:54Z,673157.654,NULL,Vermutung,udhanifu,s,haramia,tikisho,itifaki,NA,sdf,NA,0,NA,NA,NA,NA,NA,NA,NA,NA,NA,NA,NA,NA,NA,NA,NA,NA,NA,NA,NA
53c89,task,flow.Sequence,5_0_0_0_5,NA,NA,completion,8866.9939999999,664262.80000001,664257.326,664273.993,673140.987,673144.80000001,2023-09-25T15:52:54Z,673157.654,NULL,Vermutung,udhanifu,s,haramia,tikisho,itifaki,NA,sdf,NA,0,NA,NA,NA,NA,NA,NA,NA,NA,NA,NA,NA,NA,NA,NA,NA,NA,NA,NA,NA
53c89,deep,flow.Sequence,5_0_0_0_6_0,NA,NA,skipped,NA,673144.89999998,NA,NA,673140.987,673145,2023-09-25T15:52:54Z,673157.654,NULL,Inhalt,yaliyomo,s,kishawishi,hifadhi,kutembea,NA,sdf,NA,0,NA,NA,NA,NA,NA,NA,NA,NA,NA,NA,NA,NA,NA,NA,NA,NA,NA,NA,NA
53c89,Shallow Question,html.Page,5_0_0_0_6_1_0,NA,NA,form submission,6839.846,673145.19999999006,673140.987,673157.654,679997.5,679997.59999996,2023-09-25T15:53:01Z,680007.758,NULL,Inhalt,yaliyomo,s,kishawishi,hifadhi,kutembea,hifadhi,NA,NA,0,NA,NA,NA,NA,NA,NA,NA,NA,NA,NA,NA,NA,NA,NA,NA,NA,NA,NA,NA
53c89,"""Richtig""-Screen",canvas.Screen,5_0_0_0_6_1_1,NA,NA,skipped,NA,679999.69999999006,NA,NA,679997.5,679999.80000000994,2023-09-25T15:53:01Z,680007.758,NULL,Inhalt,yaliyomo,s,kishawishi,hifadhi,kutembea,NA,sdf,NA,0,NA,NA,NA,NA,NA,NA,NA,NA,NA,NA,NA,NA,NA,NA,NA,NA,NA,NA,NA
53c89,"""Falsch""-Screen",canvas.Screen,5_0_0_0_6_1_2,NA,NA,timeout,5000.1,680000.19999999006,679991.091,680007.758,684991.191,684995.39999998,2023-09-25T15:53:06Z,685007.858,NULL,Inhalt,yaliyomo,s,kishawishi,hifadhi,kutembea,NA,sdf,0,0,NA,NA,NA,NA,NA,NA,NA,NA,NA,NA,NA,NA,NA,NA,NA,NA,NA,NA,NA
53c89,shallow,flow.Sequence,5_0_0_0_6_1,NA,NA,completion,11833.537,673145.19999999006,673140.987,673157.654,684991.191,684995.80000001,2023-09-25T15:53:06Z,685007.858,NULL,Inhalt,yaliyomo,s,kishawishi,hifadhi,kutembea,NA,sdf,NA,0,NA,NA,NA,NA,NA,NA,NA,NA,NA,NA,NA,NA,NA,NA,NA,NA,NA,NA,NA
53c89,task,flow.Sequence,5_0_0_0_6,NA,NA,completion,11833.537,673144.89999998,673140.987,673157.654,684991.191,684996,2023-09-25T15:53:06Z,685007.858,NULL,Inhalt,yaliyomo,s,kishawishi,hifadhi,kutembea,NA,sdf,NA,0,NA,NA,NA,NA,NA,NA,NA,NA,NA,NA,NA,NA,NA,NA,NA,NA,NA,NA,NA
53c89,Deep Question,html.Page,5_0_0_0_7_0_0,NA,NA,form submission,4651.642,684996.19999999006,684991.191,685007.858,689659.5,689660,2023-09-25T15:53:11Z,689674.658,NULL,Schlange,foleni,d,NA,NA,NA,x,NA,NA,0,NA,NA,NA,NA,NA,NA,NA,NA,NA,NA,NA,NA,NA,NA,NA,NA,NA,NA,NA
53c89,"""Richtig""-Screen",canvas.Screen,5_0_0_0_7_0_1,NA,NA,skipped,NA,689661.30000001,NA,NA,689659.5,689661.5,2023-09-25T15:53:11Z,689674.658,NULL,Schlange,foleni,d,NA,NA,NA,NA,sdf,NA,0,NA,NA,NA,NA,NA,NA,NA,NA,NA,NA,NA,NA,NA,NA,NA,NA,NA,NA,NA
53c89,"""Falsch""-Screen",canvas.Screen,5_0_0_0_7_0_2,NA,NA,timeout,5000.1,689662.19999999006,689657.991,689674.658,694658.091,694662.5,2023-09-25T15:53:16Z,694674.758,NULL,Schlange,foleni,d,NA,NA,NA,NA,sdf,0,0,NA,NA,NA,NA,NA,NA,NA,NA,NA,NA,NA,NA,NA,NA,NA,NA,NA,NA,NA
53c89,deep,flow.Sequence,5_0_0_0_7_0,NA,NA,completion,9650.233,684996.19999999006,684991.191,685007.858,694658.091,694662.80000000994,2023-09-25T15:53:16Z,694674.758,NULL,Schlange,foleni,d,NA,NA,NA,NA,sdf,NA,0,NA,NA,NA,NA,NA,NA,NA,NA,NA,NA,NA,NA,NA,NA,NA,NA,NA,NA,NA
53c89,shallow,flow.Sequence,5_0_0_0_7_1,NA,NA,skipped,NA,694663,NA,NA,694658.091,694663.09999996,2023-09-25T15:53:16Z,694674.758,NULL,Schlange,foleni,d,NA,NA,NA,NA,sdf,NA,0,NA,NA,NA,NA,NA,NA,NA,NA,NA,NA,NA,NA,NA,NA,NA,NA,NA,NA,NA
53c89,task,flow.Sequence,5_0_0_0_7,NA,NA,completion,9650.233,684996.09999996,684991.191,685007.858,694658.091,694663.30000001,2023-09-25T15:53:16Z,694674.758,NULL,Schlange,foleni,d,NA,NA,NA,NA,sdf,NA,0,NA,NA,NA,NA,NA,NA,NA,NA,NA,NA,NA,NA,NA,NA,NA,NA,NA,NA,NA
53c89,block,flow.Loop,5_0_0_0,NA,NA,completion,82385.353,612263.30000001,612256.071,612272.738,694658.091,694663.5,2023-09-25T15:53:16Z,694674.758,NULL,NA,NA,NA,NA,NA,NA,NA,sdf,NA,0,NA,NA,NA,NA,NA,NA,NA,NA,NA,NA,NA,NA,NA,NA,NA,NA,NA,NA,NA
53c89,weiter,canvas.Screen,5_0_0_1,sdf,keypress(Space),response,1050.1419999761,694663.59999996,694658.091,694674.758,695724.89999998,695730.59999996,2023-09-25T15:53:17Z,695758.113,NULL,NA,NA,NA,NA,NA,NA,NA,sdf,NA,0,NA,NA,NA,NA,NA,NA,NA,NA,NA,NA,NA,NA,NA,NA,NA,NA,NA,NA,NA
53c89,check continue,flow.Sequence,5_0_0,NA,NA,completion,83452.161999976,612263.19999999006,612256.071,612272.738,695724.89999998,695730.89999998,2023-09-25T15:53:17Z,695758.113,NULL,NA,NA,NA,NA,NA,NA,NA,sdf,NA,0,NA,NA,NA,NA,NA,NA,NA,NA,NA,NA,NA,NA,NA,NA,NA,NA,NA,NA,NA
53c89,Deep Question,html.Page,5_0_1_0_0_0_0,NA,NA,form submission,4455.2869999761,695756.30000001,695741.446,695758.113,700213.39999998,700213.89999998,2023-09-25T15:53:21Z,700224.938,NULL,Toleranz,kuvumiliana,d,NA,NA,NA,asdf,NA,NA,1,NA,NA,NA,NA,NA,NA,NA,NA,NA,NA,NA,NA,NA,NA,NA,NA,NA,NA,NA
53c89,"""Richtig""-Screen",canvas.Screen,5_0_1_0_0_0_1,NA,NA,skipped,NA,700215,NA,NA,700213.39999998,700215.19999999006,2023-09-25T15:53:21Z,700224.938,NULL,Toleranz,kuvumiliana,d,NA,NA,NA,NA,sdfdsf,NA,1,NA,NA,NA,NA,NA,NA,NA,NA,NA,NA,NA,NA,NA,NA,NA,NA,NA,NA,NA
53c89,"""Falsch""-Screen",canvas.Screen,5_0_1_0_0_0_2,NA,NA,timeout,5000.1,700215.69999999006,700208.271,700224.938,705208.371,705212.5,2023-09-25T15:53:26Z,705225.038,NULL,Toleranz,kuvumiliana,d,NA,NA,NA,NA,sdfdsf,0,1,NA,NA,NA,NA,NA,NA,NA,NA,NA,NA,NA,NA,NA,NA,NA,NA,NA,NA,NA
53c89,deep,flow.Sequence,5_0_1_0_0_0,NA,NA,completion,9450.258,695756.30000001,695741.446,695758.113,705208.371,705212.89999998,2023-09-25T15:53:26Z,705225.038,NULL,Toleranz,kuvumiliana,d,NA,NA,NA,NA,sdfdsf,NA,1,NA,NA,NA,NA,NA,NA,NA,NA,NA,NA,NA,NA,NA,NA,NA,NA,NA,NA,NA
53c89,shallow,flow.Sequence,5_0_1_0_0_1,NA,NA,skipped,NA,705213,NA,NA,705208.371,705213.09999996,2023-09-25T15:53:26Z,705225.038,NULL,Toleranz,kuvumiliana,d,NA,NA,NA,NA,sdfdsf,NA,1,NA,NA,NA,NA,NA,NA,NA,NA,NA,NA,NA,NA,NA,NA,NA,NA,NA,NA,NA
53c89,task,flow.Sequence,5_0_1_0_0,NA,NA,completion,9450.258,695756.30000001,695741.446,695758.113,705208.371,705213.30000001,2023-09-25T15:53:26Z,705225.038,NULL,Toleranz,kuvumiliana,d,NA,NA,NA,NA,sdfdsf,NA,1,NA,NA,NA,NA,NA,NA,NA,NA,NA,NA,NA,NA,NA,NA,NA,NA,NA,NA,NA
53c89,deep,flow.Sequence,5_0_1_0_1_0,NA,NA,skipped,NA,705213.39999998,NA,NA,705208.371,705213.59999996,2023-09-25T15:53:26Z,705225.038,NULL,Integrität,uadilifu,s,muungano,mtiririko,upunguaji,NA,sdfdsf,NA,1,NA,NA,NA,NA,NA,NA,NA,NA,NA,NA,NA,NA,NA,NA,NA,NA,NA,NA,NA
53c89,Shallow Question,html.Page,5_0_1_0_1_1_0,NA,NA,form submission,8833.0619999643,705213.69999999006,705208.371,705225.038,714058.09999996,714058.59999996,2023-09-25T15:53:35Z,714058.599,NULL,Integrität,uadilifu,s,muungano,mtiririko,upunguaji,uadilifu,NA,NA,1,NA,NA,NA,NA,NA,NA,NA,NA,NA,NA,NA,NA,NA,NA,NA,NA,NA,NA,NA
53c89,"""Richtig""-Screen",canvas.Screen,5_0_1_0_1_1_1,NA,NA,timeout,5000.115,714061.39999998,714041.932,714058.599,719042.047,719046.59999996,2023-09-25T15:53:40Z,719058.714,NULL,Integrität,uadilifu,s,muungano,mtiririko,upunguaji,NA,sdfdsf,1,1,NA,NA,NA,NA,NA,NA,NA,NA,NA,NA,NA,NA,NA,NA,NA,NA,NA,NA,NA
53c89,"""Falsch""-Screen",canvas.Screen,5_0_1_0_1_1_2,NA,NA,skipped,NA,719048.59999996,NA,NA,719042.047,719048.80000001,2023-09-25T15:53:40Z,719058.714,NULL,Integrität,uadilifu,s,muungano,mtiririko,upunguaji,NA,sdfdsf,NA,1,NA,NA,NA,NA,NA,NA,NA,NA,NA,NA,NA,NA,NA,NA,NA,NA,NA,NA,NA
53c89,shallow,flow.Sequence,5_0_1_0_1_1,NA,NA,completion,13817.009,705213.59999996,705208.371,705225.038,719042.047,719048.89999998,2023-09-25T15:53:40Z,719058.714,NULL,Integrität,uadilifu,s,muungano,mtiririko,upunguaji,NA,sdfdsf,NA,1,NA,NA,NA,NA,NA,NA,NA,NA,NA,NA,NA,NA,NA,NA,NA,NA,NA,NA,NA
53c89,task,flow.Sequence,5_0_1_0_1,NA,NA,completion,13817.009,705213.30000001,705208.371,705225.038,719042.047,719049.09999996,2023-09-25T15:53:40Z,719058.714,NULL,Integrität,uadilifu,s,muungano,mtiririko,upunguaji,NA,sdfdsf,NA,1,NA,NA,NA,NA,NA,NA,NA,NA,NA,NA,NA,NA,NA,NA,NA,NA,NA,NA,NA
53c89,Deep Question,html.Page,5_0_1_0_2_0_0,NA,NA,form submission,5802.1859999761,719049.30000001,719042.047,719058.714,724860.89999998,724861.39999998,2023-09-25T15:53:46Z,724875.497,NULL,Schlange,foleni,d,NA,NA,NA,katansa,NA,NA,1,NA,NA,NA,NA,NA,NA,NA,NA,NA,NA,NA,NA,NA,NA,NA,NA,NA,NA,NA
53c89,"""Richtig""-Screen",canvas.Screen,5_0_1_0_2_0_1,NA,NA,skipped,NA,724864,NA,NA,724860.89999998,724864.19999999006,2023-09-25T15:53:46Z,724875.497,NULL,Schlange,foleni,d,NA,NA,NA,NA,sdfdsf,NA,1,NA,NA,NA,NA,NA,NA,NA,NA,NA,NA,NA,NA,NA,NA,NA,NA,NA,NA,NA
53c89,"""Falsch""-Screen",canvas.Screen,5_0_1_0_2_0_2,NA,NA,timeout,5000.192,724864.80000001,724858.83,724875.497,729859.022,729863.5,2023-09-25T15:53:51Z,729875.689,NULL,Schlange,foleni,d,NA,NA,NA,NA,sdfdsf,0,1,NA,NA,NA,NA,NA,NA,NA,NA,NA,NA,NA,NA,NA,NA,NA,NA,NA,NA,NA
53c89,deep,flow.Sequence,5_0_1_0_2_0,NA,NA,completion,10800.308,719049.30000001,719042.047,719058.714,729859.022,729863.80000000994,2023-09-25T15:53:51Z,729875.689,NULL,Schlange,foleni,d,NA,NA,NA,NA,sdfdsf,NA,1,NA,NA,NA,NA,NA,NA,NA,NA,NA,NA,NA,NA,NA,NA,NA,NA,NA,NA,NA
53c89,shallow,flow.Sequence,5_0_1_0_2_1,NA,NA,skipped,NA,729864,NA,NA,729859.022,729864.09999996,2023-09-25T15:53:51Z,729875.689,NULL,Schlange,foleni,d,NA,NA,NA,NA,sdfdsf,NA,1,NA,NA,NA,NA,NA,NA,NA,NA,NA,NA,NA,NA,NA,NA,NA,NA,NA,NA,NA
53c89,task,flow.Sequence,5_0_1_0_2,NA,NA,completion,10800.308,719049.19999999006,719042.047,719058.714,729859.022,729864.30000000994,2023-09-25T15:53:51Z,729875.689,NULL,Schlange,foleni,d,NA,NA,NA,NA,sdfdsf,NA,1,NA,NA,NA,NA,NA,NA,NA,NA,NA,NA,NA,NA,NA,NA,NA,NA,NA,NA,NA
53c89,deep,flow.Sequence,5_0_1_0_3_0,NA,NA,skipped,NA,729864.5,NA,NA,729859.022,729864.59999996,2023-09-25T15:53:51Z,729875.689,NULL,Fleisch,mshakiki,s,kizunguzungu,mshikamano,angusho,NA,sdfdsf,NA,1,NA,NA,NA,NA,NA,NA,NA,NA,NA,NA,NA,NA,NA,NA,NA,NA,NA,NA,NA
53c89,Shallow Question,html.Page,5_0_1_0_3_1_0,NA,NA,form submission,9128.0109999881,729864.69999999006,729859.022,729875.689,739003.69999999006,739004.19999999006,2023-09-25T15:54:00Z,739009.205,NULL,Fleisch,mshakiki,s,kizunguzungu,mshikamano,angusho,mshakiki,NA,NA,1,NA,NA,NA,NA,NA,NA,NA,NA,NA,NA,NA,NA,NA,NA,NA,NA,NA,NA,NA
53c89,"""Richtig""-Screen",canvas.Screen,5_0_1_0_3_1_1,NA,NA,timeout,5000.0900000001,739007,738992.538,739009.205,743992.628,743996.59999996,2023-09-25T15:54:05Z,744009.295,NULL,Fleisch,mshakiki,s,kizunguzungu,mshikamano,angusho,NA,sdfdsf,1,1,NA,NA,NA,NA,NA,NA,NA,NA,NA,NA,NA,NA,NA,NA,NA,NA,NA,NA,NA
53c89,"""Falsch""-Screen",canvas.Screen,5_0_1_0_3_1_2,NA,NA,skipped,NA,743998.39999998,NA,NA,743992.628,743998.59999996,2023-09-25T15:54:05Z,744009.295,NULL,Fleisch,mshakiki,s,kizunguzungu,mshikamano,angusho,NA,sdfdsf,NA,1,NA,NA,NA,NA,NA,NA,NA,NA,NA,NA,NA,NA,NA,NA,NA,NA,NA,NA,NA
53c89,shallow,flow.Sequence,5_0_1_0_3_1,NA,NA,completion,14116.939,729864.59999996,729859.022,729875.689,743992.628,743998.80000001,2023-09-25T15:54:05Z,744009.295,NULL,Fleisch,mshakiki,s,kizunguzungu,mshikamano,angusho,NA,sdfdsf,NA,1,NA,NA,NA,NA,NA,NA,NA,NA,NA,NA,NA,NA,NA,NA,NA,NA,NA,NA,NA
53c89,task,flow.Sequence,5_0_1_0_3,NA,NA,completion,14116.939,729864.39999998,729859.022,729875.689,743992.628,743999,2023-09-25T15:54:05Z,744009.295,NULL,Fleisch,mshakiki,s,kizunguzungu,mshikamano,angusho,NA,sdfdsf,NA,1,NA,NA,NA,NA,NA,NA,NA,NA,NA,NA,NA,NA,NA,NA,NA,NA,NA,NA,NA
53c89,Deep Question,html.Page,5_0_1_0_4_0_0,NA,NA,form submission,5421.6049999761,743999.19999999006,743992.628,744009.295,749430.89999998,749431.30000001,2023-09-25T15:54:11Z,749442.737,NULL,Begegnung,kukutana,d,NA,NA,NA,tana,NA,NA,1,NA,NA,NA,NA,NA,NA,NA,NA,NA,NA,NA,NA,NA,NA,NA,NA,NA,NA,NA
53c89,"""Richtig""-Screen",canvas.Screen,5_0_1_0_4_0_1,NA,NA,skipped,NA,749432.5,NA,NA,749430.89999998,749432.59999996,2023-09-25T15:54:11Z,749442.737,NULL,Begegnung,kukutana,d,NA,NA,NA,NA,sdfdsf,NA,1,NA,NA,NA,NA,NA,NA,NA,NA,NA,NA,NA,NA,NA,NA,NA,NA,NA,NA,NA
53c89,"""Falsch""-Screen",canvas.Screen,5_0_1_0_4_0_2,NA,NA,timeout,5000.167,749433.30000001,749426.07,749442.737,754426.237,754430.89999998,2023-09-25T15:54:16Z,754442.904,NULL,Begegnung,kukutana,d,NA,NA,NA,NA,sdfdsf,0,1,NA,NA,NA,NA,NA,NA,NA,NA,NA,NA,NA,NA,NA,NA,NA,NA,NA,NA,NA
53c89,deep,flow.Sequence,5_0_1_0_4_0,NA,NA,completion,10416.942,743999.19999999006,743992.628,744009.295,754426.237,754431.09999996,2023-09-25T15:54:16Z,754442.904,NULL,Begegnung,kukutana,d,NA,NA,NA,NA,sdfdsf,NA,1,NA,NA,NA,NA,NA,NA,NA,NA,NA,NA,NA,NA,NA,NA,NA,NA,NA,NA,NA
53c89,shallow,flow.Sequence,5_0_1_0_4_1,NA,NA,skipped,NA,754431.19999999006,NA,NA,754426.237,754431.30000001,2023-09-25T15:54:16Z,754442.904,NULL,Begegnung,kukutana,d,NA,NA,NA,NA,sdfdsf,NA,1,NA,NA,NA,NA,NA,NA,NA,NA,NA,NA,NA,NA,NA,NA,NA,NA,NA,NA,NA
53c89,task,flow.Sequence,5_0_1_0_4,NA,NA,completion,10416.942,743999.19999999006,743992.628,744009.295,754426.237,754431.30000001,2023-09-25T15:54:16Z,754442.904,NULL,Begegnung,kukutana,d,NA,NA,NA,NA,sdfdsf,NA,1,NA,NA,NA,NA,NA,NA,NA,NA,NA,NA,NA,NA,NA,NA,NA,NA,NA,NA,NA
53c89,Deep Question,html.Page,5_0_1_0_5_0_0,NA,NA,form submission,4300.2959999881,754431.39999998,754426.237,754442.904,758743.19999999006,758743.59999996,2023-09-25T15:54:20Z,758742.99,NULL,Genehmigung,idhini,d,NA,NA,NA,x,NA,NA,1,NA,NA,NA,NA,NA,NA,NA,NA,NA,NA,NA,NA,NA,NA,NA,NA,NA,NA,NA
53c89,"""Richtig""-Screen",canvas.Screen,5_0_1_0_5_0_1,NA,NA,skipped,NA,758744.89999998,NA,NA,758743.19999999006,758745,2023-09-25T15:54:20Z,758742.99,NULL,Genehmigung,idhini,d,NA,NA,NA,NA,sdfdsf,NA,1,NA,NA,NA,NA,NA,NA,NA,NA,NA,NA,NA,NA,NA,NA,NA,NA,NA,NA,NA
53c89,"""Falsch""-Screen",canvas.Screen,5_0_1_0_5_0_2,NA,NA,timeout,5000.1,758745.80000001,758726.323,758742.99,763726.423,763730.69999999006,2023-09-25T15:54:25Z,763743.09,NULL,Genehmigung,idhini,d,NA,NA,NA,NA,sdfdsf,0,1,NA,NA,NA,NA,NA,NA,NA,NA,NA,NA,NA,NA,NA,NA,NA,NA,NA,NA,NA
53c89,deep,flow.Sequence,5_0_1_0_5_0,NA,NA,completion,9283.519,754431.39999998,754426.237,754442.904,763726.423,763731.19999999006,2023-09-25T15:54:25Z,763743.09,NULL,Genehmigung,idhini,d,NA,NA,NA,NA,sdfdsf,NA,1,NA,NA,NA,NA,NA,NA,NA,NA,NA,NA,NA,NA,NA,NA,NA,NA,NA,NA,NA
53c89,shallow,flow.Sequence,5_0_1_0_5_1,NA,NA,skipped,NA,763731.30000001,NA,NA,763726.423,763731.39999998,2023-09-25T15:54:25Z,763743.09,NULL,Genehmigung,idhini,d,NA,NA,NA,NA,sdfdsf,NA,1,NA,NA,NA,NA,NA,NA,NA,NA,NA,NA,NA,NA,NA,NA,NA,NA,NA,NA,NA
53c89,task,flow.Sequence,5_0_1_0_5,NA,NA,completion,9283.519,754431.39999998,754426.237,754442.904,763726.423,763731.59999996,2023-09-25T15:54:25Z,763743.09,NULL,Genehmigung,idhini,d,NA,NA,NA,NA,sdfdsf,NA,1,NA,NA,NA,NA,NA,NA,NA,NA,NA,NA,NA,NA,NA,NA,NA,NA,NA,NA,NA
53c89,deep,flow.Sequence,5_0_1_0_6_0,NA,NA,skipped,NA,763731.69999999006,NA,NA,763726.423,763731.80000001,2023-09-25T15:54:25Z,763743.09,NULL,Vermutung,udhanifu,s,haramia,tikisho,itifaki,NA,sdfdsf,NA,1,NA,NA,NA,NA,NA,NA,NA,NA,NA,NA,NA,NA,NA,NA,NA,NA,NA,NA,NA
53c89,Shallow Question,html.Page,5_0_1_0_6_1_0,NA,NA,form submission,11146.41,763731.89999998,763726.423,763743.09,774889.5,774890,2023-09-25T15:54:36Z,774893.456,NULL,Vermutung,udhanifu,s,haramia,tikisho,itifaki,udhanifu,NA,NA,1,NA,NA,NA,NA,NA,NA,NA,NA,NA,NA,NA,NA,NA,NA,NA,NA,NA,NA,NA
