observation,sender,sender_type,sender_id,response,response_action,ended_on,duration,time_run,time_render,time_show,time_end,time_commit,timestamp,time_switch,distractors,german,swahili,enc,distractor1,distractor2,distractor3,response_2,x,correct,x_2,url_vp,url_sess,meta_labjs_version,meta_location,meta_user_agent,meta_platform,meta_language,meta_locale,meta_time_zone,meta_timezone_offset,meta_screen_width,meta_screen_height,meta_scroll_width,meta_scroll_height,meta_window_inner_width,meta_window_inner_height,meta_device_pixel_ratio,meta_labjs_build_flavor,meta_labjs_build_commit
24f9e,Introduction general,canvas.Screen,0,weiter,keypress(q),response,136724.1,384.69999998808,370.324,386.9,137111,137113.59999996,2024-04-29T09:10:49Z,137120.2,NULL,NA,NA,NA,NA,NA,NA,NA,NA,NA,NA,225,1,20.2.4,https://neurocog.fernuni.ch/studies/vweber/aberisha/encoding_immediate/index.html?vp=225&sess=1,"Mozilla/5.0 (Windows NT 10.0; Win64; x64) AppleWebKit/537.36 (KHTML, like Gecko) Chrome/124.0.0.0 Safari/537.36",Win32,de-DE,de,Europe/Zurich,-120,1536,864,1536,682,1536,730,1.25,production,f5b4a49f956347addd546a832a3327688c2c0fef
24f9e,Introduction practice,canvas.Screen,1_0,NA,keypress(Space),response,8901.3999999642,137114.39999998,137104,137120.2,146021.59999996,146022.69999999,2024-04-29T09:10:58Z,146032.406,NULL,NA,NA,NA,NA,NA,NA,NA,NA,NA,NA,NA,NA,NA,NA,NA,NA,NA,NA,NA,NA,NA,NA,NA,NA,NA,NA,NA,NA,NA
24f9e,deep,flow.Sequence,1_1_0_0,NA,NA,skipped,NA,146023.29999995,NA,NA,146021.59999996,146027.19999999,2024-04-29T09:10:58Z,146032.406,"c(""distractor1"", ""distractor2"", ""distractor3"")",Gegenwart,hadhara,s,katiba,jokofu,mikopo,NA,NA,NA,NA,NA,NA,NA,NA,NA,NA,NA,NA,NA,NA,NA,NA,NA,NA,NA,NA,NA,NA,NA
24f9e,Shallow Question,html.Page,1_1_0_1_0,NA,NA,form submission,11952.893999952,146027.5,146032.406,146032.406,157985.29999995,157985.59999996,2024-04-29T09:11:10Z,157990.8,"c(""distractor1"", ""distractor2"", ""distractor3"")",Gegenwart,hadhara,s,katiba,jokofu,mikopo,hadhara,NA,NA,NA,NA,NA,NA,NA,NA,NA,NA,NA,NA,NA,NA,NA,NA,NA,NA,NA,NA,NA,NA
24f9e,"""Richtig""-Screen",canvas.Screen,1_1_0_1_1,NA,NA,timeout,4997.5,157986.69999999,157974.762,157990.8,162971.1,162976.09999996,2024-04-29T09:11:15Z,162988.3,"c(""distractor1"", ""distractor2"", ""distractor3"")",Gegenwart,hadhara,s,katiba,jokofu,mikopo,NA,NA,1,NA,NA,NA,NA,NA,NA,NA,NA,NA,NA,NA,NA,NA,NA,NA,NA,NA,NA,NA,NA
24f9e,"""Falsch""-Screen",canvas.Screen,1_1_0_1_2,NA,NA,skipped,NA,162977.19999999,NA,NA,162971.1,162977.29999995,2024-04-29T09:11:15Z,162988.3,"c(""distractor1"", ""distractor2"", ""distractor3"")",Gegenwart,hadhara,s,katiba,jokofu,mikopo,NA,NA,NA,NA,NA,NA,NA,NA,NA,NA,NA,NA,NA,NA,NA,NA,NA,NA,NA,NA,NA,NA,NA
24f9e,shallow,flow.Sequence,1_1_0_1,NA,NA,completion,16938.694,146027.39999998,146032.406,146032.406,162971.1,162977.39999998,2024-04-29T09:11:15Z,162988.3,"c(""distractor1"", ""distractor2"", ""distractor3"")",Gegenwart,hadhara,s,katiba,jokofu,mikopo,NA,NA,NA,NA,NA,NA,NA,NA,NA,NA,NA,NA,NA,NA,NA,NA,NA,NA,NA,NA,NA,NA,NA
24f9e,task,flow.Sequence,1_1_0,NA,NA,completion,16938.694,146023.19999999,146032.406,146032.406,162971.1,162977.5,2024-04-29T09:11:15Z,162988.3,"c(""distractor1"", ""distractor2"", ""distractor3"")",Gegenwart,hadhara,s,katiba,jokofu,mikopo,NA,NA,NA,NA,NA,NA,NA,NA,NA,NA,NA,NA,NA,NA,NA,NA,NA,NA,NA,NA,NA,NA,NA
24f9e,Deep Question,html.Page,1_1_1_0_0,NA,NA,form submission,19231.399999988,162977.59999996,162971.1,162988.3,182219.69999999,182219.89999998,2024-04-29T09:11:34Z,182225.9,"c(""distractor1"", ""distractor2"", ""distractor3"")",Gesundheit,salama,d,NA,NA,NA,lomo,NA,NA,NA,NA,NA,NA,NA,NA,NA,NA,NA,NA,NA,NA,NA,NA,NA,NA,NA,NA,NA,NA
24f9e,"""Richtig""-Screen",canvas.Screen,1_1_1_0_1,NA,NA,skipped,NA,182222.59999996,NA,NA,182219.69999999,182222.79999995,2024-04-29T09:11:34Z,182225.9,"c(""distractor1"", ""distractor2"", ""distractor3"")",Gesundheit,salama,d,NA,NA,NA,NA,NA,NA,NA,NA,NA,NA,NA,NA,NA,NA,NA,NA,NA,NA,NA,NA,NA,NA,NA,NA,NA,NA
24f9e,"""Falsch""-Screen",canvas.Screen,1_1_1_0_2,NA,NA,timeout,4997.3,182223.79999995,182210.202,182225.9,187206.7,187208.09999996,2024-04-29T09:11:39Z,187223.2,"c(""distractor1"", ""distractor2"", ""distractor3"")",Gesundheit,salama,d,NA,NA,NA,NA,NA,0,NA,NA,NA,NA,NA,NA,NA,NA,NA,NA,NA,NA,NA,NA,NA,NA,NA,NA,NA,NA
24f9e,deep,flow.Sequence,1_1_1_0,NA,NA,completion,24218.4,162977.59999996,162971.1,162988.3,187206.7,187208.5,2024-04-29T09:11:39Z,187223.2,"c(""distractor1"", ""distractor2"", ""distractor3"")",Gesundheit,salama,d,NA,NA,NA,NA,NA,NA,NA,NA,NA,NA,NA,NA,NA,NA,NA,NA,NA,NA,NA,NA,NA,NA,NA,NA,NA,NA
24f9e,shallow,flow.Sequence,1_1_1_1,NA,NA,skipped,NA,187208.79999995,NA,NA,187206.7,187209,2024-04-29T09:11:39Z,187223.2,"c(""distractor1"", ""distractor2"", ""distractor3"")",Gesundheit,salama,d,NA,NA,NA,NA,NA,NA,NA,NA,NA,NA,NA,NA,NA,NA,NA,NA,NA,NA,NA,NA,NA,NA,NA,NA,NA,NA
24f9e,task,flow.Sequence,1_1_1,NA,NA,completion,24218.4,162977.59999996,162971.1,162988.3,187206.7,187209.19999999,2024-04-29T09:11:39Z,187223.2,"c(""distractor1"", ""distractor2"", ""distractor3"")",Gesundheit,salama,d,NA,NA,NA,NA,NA,NA,NA,NA,NA,NA,NA,NA,NA,NA,NA,NA,NA,NA,NA,NA,NA,NA,NA,NA,NA,NA
24f9e,deep,flow.Sequence,1_1_2_0,NA,NA,skipped,NA,187209.39999998,NA,NA,187206.7,187209.59999996,2024-04-29T09:11:39Z,187223.2,"c(""distractor1"", ""distractor2"", ""distractor3"")",Rückhalt,msaada,s,muhula,auwali,kiwimbe,NA,NA,NA,NA,NA,NA,NA,NA,NA,NA,NA,NA,NA,NA,NA,NA,NA,NA,NA,NA,NA,NA,NA
24f9e,Shallow Question,html.Page,1_1_2_1_0,NA,NA,form submission,8382.3,187209.79999995,187206.7,187223.2,195605.5,195605.79999995,2024-04-29T09:11:47Z,195618,"c(""distractor1"", ""distractor2"", ""distractor3"")",Rückhalt,msaada,s,muhula,auwali,kiwimbe,auwali,NA,NA,NA,NA,NA,NA,NA,NA,NA,NA,NA,NA,NA,NA,NA,NA,NA,NA,NA,NA,NA,NA
24f9e,"""Richtig""-Screen",canvas.Screen,1_1_2_1_1,NA,NA,skipped,NA,195608.79999995,NA,NA,195605.5,195609,2024-04-29T09:11:47Z,195618,"c(""distractor1"", ""distractor2"", ""distractor3"")",Rückhalt,msaada,s,muhula,auwali,kiwimbe,NA,NA,NA,NA,NA,NA,NA,NA,NA,NA,NA,NA,NA,NA,NA,NA,NA,NA,NA,NA,NA,NA,NA
24f9e,"""Falsch""-Screen",canvas.Screen,1_1_2_1_2,NA,NA,timeout,4997.3,195610,195601.756,195618,200598.5,200599.59999996,2024-04-29T09:11:52Z,200615.3,"c(""distractor1"", ""distractor2"", ""distractor3"")",Rückhalt,msaada,s,muhula,auwali,kiwimbe,NA,NA,0,NA,NA,NA,NA,NA,NA,NA,NA,NA,NA,NA,NA,NA,NA,NA,NA,NA,NA,NA,NA
24f9e,shallow,flow.Sequence,1_1_2_1,NA,NA,completion,13375.3,187209.69999999,187206.7,187223.2,200598.5,200600,2024-04-29T09:11:52Z,200615.3,"c(""distractor1"", ""distractor2"", ""distractor3"")",Rückhalt,msaada,s,muhula,auwali,kiwimbe,NA,NA,NA,NA,NA,NA,NA,NA,NA,NA,NA,NA,NA,NA,NA,NA,NA,NA,NA,NA,NA,NA,NA
24f9e,task,flow.Sequence,1_1_2,NA,NA,completion,13375.3,187209.29999995,187206.7,187223.2,200598.5,200600.29999995,2024-04-29T09:11:52Z,200615.3,"c(""distractor1"", ""distractor2"", ""distractor3"")",Rückhalt,msaada,s,muhula,auwali,kiwimbe,NA,NA,NA,NA,NA,NA,NA,NA,NA,NA,NA,NA,NA,NA,NA,NA,NA,NA,NA,NA,NA,NA,NA
24f9e,deep,flow.Sequence,1_1_3_0,NA,NA,skipped,NA,200600.5,NA,NA,200598.5,200600.59999996,2024-04-29T09:11:52Z,200615.3,"c(""distractor1"", ""distractor2"", ""distractor3"")",Kritik,lawama,s,dereva,nafasi,mawazo,NA,NA,NA,NA,NA,NA,NA,NA,NA,NA,NA,NA,NA,NA,NA,NA,NA,NA,NA,NA,NA,NA,NA
24f9e,Shallow Question,html.Page,1_1_3_1_0,NA,NA,form submission,10000.799999964,200600.79999995,200598.5,200615.3,210616.09999996,210616.39999998,2024-04-29T09:12:02Z,210625.5,"c(""distractor1"", ""distractor2"", ""distractor3"")",Kritik,lawama,s,dereva,nafasi,mawazo,mawazo,NA,NA,NA,NA,NA,NA,NA,NA,NA,NA,NA,NA,NA,NA,NA,NA,NA,NA,NA,NA,NA,NA
24f9e,"""Richtig""-Screen",canvas.Screen,1_1_3_1_1,NA,NA,skipped,NA,210619.39999998,NA,NA,210616.09999996,210619.59999996,2024-04-29T09:12:02Z,210625.5,"c(""distractor1"", ""distractor2"", ""distractor3"")",Kritik,lawama,s,dereva,nafasi,mawazo,NA,NA,NA,NA,NA,NA,NA,NA,NA,NA,NA,NA,NA,NA,NA,NA,NA,NA,NA,NA,NA,NA,NA
24f9e,"""Falsch""-Screen",canvas.Screen,1_1_3_1_2,NA,NA,timeout,4997,210620.19999999,210609.286,210625.5,215606.1,215607.09999996,2024-04-29T09:12:07Z,215622.5,"c(""distractor1"", ""distractor2"", ""distractor3"")",Kritik,lawama,s,dereva,nafasi,mawazo,NA,NA,0,NA,NA,NA,NA,NA,NA,NA,NA,NA,NA,NA,NA,NA,NA,NA,NA,NA,NA,NA,NA
24f9e,shallow,flow.Sequence,1_1_3_1,NA,NA,completion,14990.8,200600.79999995,200598.5,200615.3,215606.1,215607.29999995,2024-04-29T09:12:07Z,215622.5,"c(""distractor1"", ""distractor2"", ""distractor3"")",Kritik,lawama,s,dereva,nafasi,mawazo,NA,NA,NA,NA,NA,NA,NA,NA,NA,NA,NA,NA,NA,NA,NA,NA,NA,NA,NA,NA,NA,NA,NA
24f9e,task,flow.Sequence,1_1_3,NA,NA,completion,14990.8,200600.39999998,200598.5,200615.3,215606.1,215607.59999996,2024-04-29T09:12:07Z,215622.5,"c(""distractor1"", ""distractor2"", ""distractor3"")",Kritik,lawama,s,dereva,nafasi,mawazo,NA,NA,NA,NA,NA,NA,NA,NA,NA,NA,NA,NA,NA,NA,NA,NA,NA,NA,NA,NA,NA,NA,NA
24f9e,Deep Question,html.Page,1_1_4_0_0,NA,NA,form submission,11541.799999952,215607.79999995,215606.1,215622.5,227164.29999995,227164.59999996,2024-04-29T09:12:19Z,227182,"c(""distractor1"", ""distractor2"", ""distractor3"")",Schatten,kivuli,d,NA,NA,NA,mutumbu,NA,NA,NA,NA,NA,NA,NA,NA,NA,NA,NA,NA,NA,NA,NA,NA,NA,NA,NA,NA,NA,NA
24f9e,"""Richtig""-Screen",canvas.Screen,1_1_4_0_1,NA,NA,skipped,NA,227167.59999996,NA,NA,227164.29999995,227167.69999999,2024-04-29T09:12:19Z,227182,"c(""distractor1"", ""distractor2"", ""distractor3"")",Schatten,kivuli,d,NA,NA,NA,NA,NA,NA,NA,NA,NA,NA,NA,NA,NA,NA,NA,NA,NA,NA,NA,NA,NA,NA,NA,NA,NA,NA
24f9e,"""Falsch""-Screen",canvas.Screen,1_1_4_0_2,NA,NA,timeout,4997.4,227168.5,227165.928,227182,232162.4,232163.09999996,2024-04-29T09:12:24Z,232179.4,"c(""distractor1"", ""distractor2"", ""distractor3"")",Schatten,kivuli,d,NA,NA,NA,NA,NA,0,NA,NA,NA,NA,NA,NA,NA,NA,NA,NA,NA,NA,NA,NA,NA,NA,NA,NA,NA,NA
24f9e,deep,flow.Sequence,1_1_4_0,NA,NA,completion,16539.9,215607.79999995,215606.1,215622.5,232162.4,232163.39999998,2024-04-29T09:12:24Z,232179.4,"c(""distractor1"", ""distractor2"", ""distractor3"")",Schatten,kivuli,d,NA,NA,NA,NA,NA,NA,NA,NA,NA,NA,NA,NA,NA,NA,NA,NA,NA,NA,NA,NA,NA,NA,NA,NA,NA,NA
24f9e,shallow,flow.Sequence,1_1_4_1,NA,NA,skipped,NA,232163.39999998,NA,NA,232162.4,232163.5,2024-04-29T09:12:24Z,232179.4,"c(""distractor1"", ""distractor2"", ""distractor3"")",Schatten,kivuli,d,NA,NA,NA,NA,NA,NA,NA,NA,NA,NA,NA,NA,NA,NA,NA,NA,NA,NA,NA,NA,NA,NA,NA,NA,NA,NA
24f9e,task,flow.Sequence,1_1_4,NA,NA,completion,16539.9,215607.79999995,215606.1,215622.5,232162.4,232163.59999996,2024-04-29T09:12:24Z,232179.4,"c(""distractor1"", ""distractor2"", ""distractor3"")",Schatten,kivuli,d,NA,NA,NA,NA,NA,NA,NA,NA,NA,NA,NA,NA,NA,NA,NA,NA,NA,NA,NA,NA,NA,NA,NA,NA,NA,NA
24f9e,Deep Question,html.Page,1_1_5_0_0,NA,NA,form submission,18064.799999988,232163.79999995,232162.4,232179.4,250244.19999999,250244.5,2024-04-29T09:12:42Z,250251.2,"c(""distractor1"", ""distractor2"", ""distractor3"")",Qualität,mtindo,d,NA,NA,NA,fafa,NA,NA,NA,NA,NA,NA,NA,NA,NA,NA,NA,NA,NA,NA,NA,NA,NA,NA,NA,NA,NA,NA
24f9e,"""Richtig""-Screen",canvas.Screen,1_1_5_0_1,NA,NA,skipped,NA,250247.39999998,NA,NA,250244.19999999,250247.5,2024-04-29T09:12:42Z,250251.2,"c(""distractor1"", ""distractor2"", ""distractor3"")",Qualität,mtindo,d,NA,NA,NA,NA,NA,NA,NA,NA,NA,NA,NA,NA,NA,NA,NA,NA,NA,NA,NA,NA,NA,NA,NA,NA,NA,NA
24f9e,"""Falsch""-Screen",canvas.Screen,1_1_5_0_2,NA,NA,timeout,4997.4,250248.39999998,250235.06,250251.2,255231.5,255232.79999995,2024-04-29T09:12:47Z,255248.6,"c(""distractor1"", ""distractor2"", ""distractor3"")",Qualität,mtindo,d,NA,NA,NA,NA,NA,0,NA,NA,NA,NA,NA,NA,NA,NA,NA,NA,NA,NA,NA,NA,NA,NA,NA,NA,NA,NA
24f9e,deep,flow.Sequence,1_1_5_0,NA,NA,completion,23052.1,232163.69999999,232162.4,232179.4,255231.5,255233.09999996,2024-04-29T09:12:47Z,255248.6,"c(""distractor1"", ""distractor2"", ""distractor3"")",Qualität,mtindo,d,NA,NA,NA,NA,NA,NA,NA,NA,NA,NA,NA,NA,NA,NA,NA,NA,NA,NA,NA,NA,NA,NA,NA,NA,NA,NA
24f9e,shallow,flow.Sequence,1_1_5_1,NA,NA,skipped,NA,255233.29999995,NA,NA,255231.5,255233.39999998,2024-04-29T09:12:47Z,255248.6,"c(""distractor1"", ""distractor2"", ""distractor3"")",Qualität,mtindo,d,NA,NA,NA,NA,NA,NA,NA,NA,NA,NA,NA,NA,NA,NA,NA,NA,NA,NA,NA,NA,NA,NA,NA,NA,NA,NA
24f9e,task,flow.Sequence,1_1_5,NA,NA,completion,23052.1,232163.69999999,232162.4,232179.4,255231.5,255233.69999999,2024-04-29T09:12:47Z,255248.6,"c(""distractor1"", ""distractor2"", ""distractor3"")",Qualität,mtindo,d,NA,NA,NA,NA,NA,NA,NA,NA,NA,NA,NA,NA,NA,NA,NA,NA,NA,NA,NA,NA,NA,NA,NA,NA,NA,NA
24f9e,block,flow.Loop,1_1,NA,NA,completion,109199.094,146023.09999996,146032.406,146032.406,255231.5,255234.09999996,2024-04-29T09:12:47Z,255248.6,"c(""distractor1"", ""distractor2"", ""distractor3"")",NA,NA,NA,NA,NA,NA,NA,NA,NA,NA,NA,NA,NA,NA,NA,NA,NA,NA,NA,NA,NA,NA,NA,NA,NA,NA,NA,NA,NA
24f9e,Practice,flow.Sequence,1,NA,NA,completion,118111.3,137114.19999999,137104,137120.2,255231.5,255234.29999995,2024-04-29T09:12:47Z,255248.6,NULL,NA,NA,NA,NA,NA,NA,NA,NA,NA,NA,NA,NA,NA,NA,NA,NA,NA,NA,NA,NA,NA,NA,NA,NA,NA,NA,NA,NA,NA
24f9e,Experiment start,canvas.Screen,2,weiter,keypress(q),response,29927.9,255234.5,255231.5,255248.6,285176.5,285177.5,2024-04-29T09:13:17Z,285246.4,NULL,NA,NA,NA,NA,NA,NA,NA,NA,NA,NA,NA,NA,NA,NA,NA,NA,NA,NA,NA,NA,NA,NA,NA,NA,NA,NA,NA,NA,NA
24f9e,deep,flow.Sequence,3_0_0_0_0_0,NA,NA,skipped,NA,285251.39999998,NA,NA,285176.5,285251.5,2024-04-29T09:13:17Z,285246.4,NULL,Ausschluss,kutengwa,s,ununuzi,taratibu,madeni,NA,sdf,NA,0,NA,NA,NA,NA,NA,NA,NA,NA,NA,NA,NA,NA,NA,NA,NA,NA,NA,NA,NA
24f9e,Shallow Question,html.Page,3_0_0_0_0_1_0,NA,NA,form submission,6357.4999999761,285251.5,285238.248,285246.4,291603.89999998,291604.09999996,2024-04-29T09:13:23Z,291609.2,NULL,Ausschluss,kutengwa,s,ununuzi,taratibu,madeni,ununuzi,NA,NA,0,NA,NA,NA,NA,NA,NA,NA,NA,NA,NA,NA,NA,NA,NA,NA,NA,NA,NA,NA
24f9e,"""Richtig""-Screen",canvas.Screen,3_0_0_0_0_1_1,NA,NA,skipped,NA,291607,NA,NA,291603.89999998,291607.09999996,2024-04-29T09:13:23Z,291609.2,NULL,Ausschluss,kutengwa,s,ununuzi,taratibu,madeni,NA,sdf,NA,0,NA,NA,NA,NA,NA,NA,NA,NA,NA,NA,NA,NA,NA,NA,NA,NA,NA,NA,NA
24f9e,"""Falsch""-Screen",canvas.Screen,3_0_0_0_0_1_2,NA,NA,timeout,4997.4,291607.79999995,291593.218,291609.2,296589.9,296590.79999995,2024-04-29T09:13:28Z,296606.6,NULL,Ausschluss,kutengwa,s,ununuzi,taratibu,madeni,NA,sdf,0,0,NA,NA,NA,NA,NA,NA,NA,NA,NA,NA,NA,NA,NA,NA,NA,NA,NA,NA,NA
24f9e,shallow,flow.Sequence,3_0_0_0_0_1,NA,NA,completion,11343.5,285251.5,285238.248,285246.4,296589.9,296591.09999996,2024-04-29T09:13:28Z,296606.6,NULL,Ausschluss,kutengwa,s,ununuzi,taratibu,madeni,NA,sdf,NA,0,NA,NA,NA,NA,NA,NA,NA,NA,NA,NA,NA,NA,NA,NA,NA,NA,NA,NA,NA
24f9e,task,flow.Sequence,3_0_0_0_0,NA,NA,completion,11343.5,285251.39999998,285238.248,285246.4,296589.9,296591.29999995,2024-04-29T09:13:28Z,296606.6,NULL,Ausschluss,kutengwa,s,ununuzi,taratibu,madeni,NA,sdf,NA,0,NA,NA,NA,NA,NA,NA,NA,NA,NA,NA,NA,NA,NA,NA,NA,NA,NA,NA,NA
24f9e,Deep Question,html.Page,3_0_0_0_1_0_0,NA,NA,form submission,12765.699999952,296591.59999996,296589.9,296606.6,309372.29999995,309372.59999996,2024-04-29T09:13:41Z,309381.7,NULL,Gefährdung,kuhatarisha,d,NA,NA,NA,fatara,NA,NA,0,NA,NA,NA,NA,NA,NA,NA,NA,NA,NA,NA,NA,NA,NA,NA,NA,NA,NA,NA
24f9e,"""Richtig""-Screen",canvas.Screen,3_0_0_0_1_0_1,NA,NA,skipped,NA,309375.5,NA,NA,309372.29999995,309375.69999999,2024-04-29T09:13:41Z,309381.7,NULL,Gefährdung,kuhatarisha,d,NA,NA,NA,NA,sdf,NA,0,NA,NA,NA,NA,NA,NA,NA,NA,NA,NA,NA,NA,NA,NA,NA,NA,NA,NA,NA
24f9e,"""Falsch""-Screen",canvas.Screen,3_0_0_0_1_0_2,NA,NA,timeout,4997.3,309376.29999995,309365.262,309381.7,314362,314362.89999998,2024-04-29T09:13:46Z,314379,NULL,Gefährdung,kuhatarisha,d,NA,NA,NA,NA,sdf,0,0,NA,NA,NA,NA,NA,NA,NA,NA,NA,NA,NA,NA,NA,NA,NA,NA,NA,NA,NA
24f9e,deep,flow.Sequence,3_0_0_0_1_0,NA,NA,completion,17755.4,296591.59999996,296589.9,296606.6,314362,314363.19999999,2024-04-29T09:13:46Z,314379,NULL,Gefährdung,kuhatarisha,d,NA,NA,NA,NA,sdf,NA,0,NA,NA,NA,NA,NA,NA,NA,NA,NA,NA,NA,NA,NA,NA,NA,NA,NA,NA,NA
24f9e,shallow,flow.Sequence,3_0_0_0_1_1,NA,NA,skipped,NA,314363.29999995,NA,NA,314362,314363.5,2024-04-29T09:13:46Z,314379,NULL,Gefährdung,kuhatarisha,d,NA,NA,NA,NA,sdf,NA,0,NA,NA,NA,NA,NA,NA,NA,NA,NA,NA,NA,NA,NA,NA,NA,NA,NA,NA,NA
24f9e,task,flow.Sequence,3_0_0_0_1,NA,NA,completion,17755.4,296591.5,296589.9,296606.6,314362,314363.69999999,2024-04-29T09:13:46Z,314379,NULL,Gefährdung,kuhatarisha,d,NA,NA,NA,NA,sdf,NA,0,NA,NA,NA,NA,NA,NA,NA,NA,NA,NA,NA,NA,NA,NA,NA,NA,NA,NA,NA
24f9e,Deep Question,html.Page,3_0_0_0_2_0_0,NA,NA,form submission,6476.7999999523,314363.79999995,314362,314379,320855.79999995,320856,2024-04-29T09:13:53Z,320859.334,NULL,Widerstand,usulubu,d,NA,NA,NA,revalta,NA,NA,0,NA,NA,NA,NA,NA,NA,NA,NA,NA,NA,NA,NA,NA,NA,NA,NA,NA,NA,NA
24f9e,"""Richtig""-Screen",canvas.Screen,3_0_0_0_2_0_1,NA,NA,skipped,NA,320859,NA,NA,320855.79999995,320859.09999996,2024-04-29T09:13:53Z,320859.334,NULL,Widerstand,usulubu,d,NA,NA,NA,NA,sdf,NA,0,NA,NA,NA,NA,NA,NA,NA,NA,NA,NA,NA,NA,NA,NA,NA,NA,NA,NA,NA
24f9e,"""Falsch""-Screen",canvas.Screen,3_0_0_0_2_0_2,NA,NA,timeout,4996.066,320859.79999995,320859.334,320859.334,325838.7,325839.69999999,2024-04-29T09:13:58Z,325855.4,NULL,Widerstand,usulubu,d,NA,NA,NA,NA,sdf,0,0,NA,NA,NA,NA,NA,NA,NA,NA,NA,NA,NA,NA,NA,NA,NA,NA,NA,NA,NA
24f9e,deep,flow.Sequence,3_0_0_0_2_0,NA,NA,completion,11459.7,314363.79999995,314362,314379,325838.7,325840,2024-04-29T09:13:58Z,325855.4,NULL,Widerstand,usulubu,d,NA,NA,NA,NA,sdf,NA,0,NA,NA,NA,NA,NA,NA,NA,NA,NA,NA,NA,NA,NA,NA,NA,NA,NA,NA,NA
24f9e,shallow,flow.Sequence,3_0_0_0_2_1,NA,NA,skipped,NA,325840.19999999,NA,NA,325838.7,325840.29999995,2024-04-29T09:13:58Z,325855.4,NULL,Widerstand,usulubu,d,NA,NA,NA,NA,sdf,NA,0,NA,NA,NA,NA,NA,NA,NA,NA,NA,NA,NA,NA,NA,NA,NA,NA,NA,NA,NA
24f9e,task,flow.Sequence,3_0_0_0_2,NA,NA,completion,11459.7,314363.69999999,314362,314379,325838.7,325840.5,2024-04-29T09:13:58Z,325855.4,NULL,Widerstand,usulubu,d,NA,NA,NA,NA,sdf,NA,0,NA,NA,NA,NA,NA,NA,NA,NA,NA,NA,NA,NA,NA,NA,NA,NA,NA,NA,NA
24f9e,Deep Question,html.Page,3_0_0_0_3_0_0,NA,NA,form submission,12234.799999988,325840.69999999,325838.7,325855.4,338090.19999999,338090.39999998,2024-04-29T09:14:10Z,338098.192,NULL,Kontrolle,kudhibiti,d,NA,NA,NA,catralla,NA,NA,0,NA,NA,NA,NA,NA,NA,NA,NA,NA,NA,NA,NA,NA,NA,NA,NA,NA,NA,NA
24f9e,"""Richtig""-Screen",canvas.Screen,3_0_0_0_3_0_1,NA,NA,skipped,NA,338093.79999995,NA,NA,338090.19999999,338093.89999998,2024-04-29T09:14:10Z,338098.192,NULL,Kontrolle,kudhibiti,d,NA,NA,NA,NA,sdf,NA,0,NA,NA,NA,NA,NA,NA,NA,NA,NA,NA,NA,NA,NA,NA,NA,NA,NA,NA,NA
24f9e,"""Falsch""-Screen",canvas.Screen,3_0_0_0_3_0_2,NA,NA,timeout,4996.208,338094.59999996,338098.192,338098.192,343077.9,343079,2024-04-29T09:14:15Z,343094.4,NULL,Kontrolle,kudhibiti,d,NA,NA,NA,NA,sdf,0,0,NA,NA,NA,NA,NA,NA,NA,NA,NA,NA,NA,NA,NA,NA,NA,NA,NA,NA,NA
24f9e,deep,flow.Sequence,3_0_0_0_3_0,NA,NA,completion,17222.5,325840.69999999,325838.7,325855.4,343077.9,343079.39999998,2024-04-29T09:14:15Z,343094.4,NULL,Kontrolle,kudhibiti,d,NA,NA,NA,NA,sdf,NA,0,NA,NA,NA,NA,NA,NA,NA,NA,NA,NA,NA,NA,NA,NA,NA,NA,NA,NA,NA
24f9e,shallow,flow.Sequence,3_0_0_0_3_1,NA,NA,skipped,NA,343079.5,NA,NA,343077.9,343079.59999996,2024-04-29T09:14:15Z,343094.4,NULL,Kontrolle,kudhibiti,d,NA,NA,NA,NA,sdf,NA,0,NA,NA,NA,NA,NA,NA,NA,NA,NA,NA,NA,NA,NA,NA,NA,NA,NA,NA,NA
24f9e,task,flow.Sequence,3_0_0_0_3,NA,NA,completion,17222.5,325840.59999996,325838.7,325855.4,343077.9,343079.79999995,2024-04-29T09:14:15Z,343094.4,NULL,Kontrolle,kudhibiti,d,NA,NA,NA,NA,sdf,NA,0,NA,NA,NA,NA,NA,NA,NA,NA,NA,NA,NA,NA,NA,NA,NA,NA,NA,NA,NA
24f9e,deep,flow.Sequence,3_0_0_0_4_0,NA,NA,skipped,NA,343080,NA,NA,343077.9,343080.09999996,2024-04-29T09:14:15Z,343094.4,NULL,Gelegenheit,wakati,s,mchanganyiko,kipaumbele,kushuku,NA,sdf,NA,0,NA,NA,NA,NA,NA,NA,NA,NA,NA,NA,NA,NA,NA,NA,NA,NA,NA,NA,NA
24f9e,Shallow Question,html.Page,3_0_0_0_4_1_0,NA,NA,form submission,5031.2999999881,343080.19999999,343077.9,343094.4,348125.69999999,348126,2024-04-29T09:14:20Z,348142.1,NULL,Gelegenheit,wakati,s,mchanganyiko,kipaumbele,kushuku,kushuku,NA,NA,0,NA,NA,NA,NA,NA,NA,NA,NA,NA,NA,NA,NA,NA,NA,NA,NA,NA,NA,NA
24f9e,"""Richtig""-Screen",canvas.Screen,3_0_0_0_4_1_1,NA,NA,skipped,NA,348129,NA,NA,348125.69999999,348129.19999999,2024-04-29T09:14:20Z,348142.1,NULL,Gelegenheit,wakati,s,mchanganyiko,kipaumbele,kushuku,NA,sdf,NA,0,NA,NA,NA,NA,NA,NA,NA,NA,NA,NA,NA,NA,NA,NA,NA,NA,NA,NA,NA
24f9e,"""Falsch""-Screen",canvas.Screen,3_0_0_0_4_1_2,NA,NA,timeout,4996.3,348129.89999998,348125.52,348142.1,353121.8,353123.09999996,2024-04-29T09:14:25Z,353138.4,NULL,Gelegenheit,wakati,s,mchanganyiko,kipaumbele,kushuku,NA,sdf,0,0,NA,NA,NA,NA,NA,NA,NA,NA,NA,NA,NA,NA,NA,NA,NA,NA,NA,NA,NA
24f9e,shallow,flow.Sequence,3_0_0_0_4_1,NA,NA,completion,10027.4,343080.19999999,343077.9,343094.4,353121.8,353123.5,2024-04-29T09:14:25Z,353138.4,NULL,Gelegenheit,wakati,s,mchanganyiko,kipaumbele,kushuku,NA,sdf,NA,0,NA,NA,NA,NA,NA,NA,NA,NA,NA,NA,NA,NA,NA,NA,NA,NA,NA,NA,NA
24f9e,task,flow.Sequence,3_0_0_0_4,NA,NA,completion,10027.4,343080,343077.9,343094.4,353121.8,353123.69999999,2024-04-29T09:14:25Z,353138.4,NULL,Gelegenheit,wakati,s,mchanganyiko,kipaumbele,kushuku,NA,sdf,NA,0,NA,NA,NA,NA,NA,NA,NA,NA,NA,NA,NA,NA,NA,NA,NA,NA,NA,NA,NA
24f9e,deep,flow.Sequence,3_0_0_0_5_0,NA,NA,skipped,NA,353123.89999998,NA,NA,353121.8,353123.89999998,2024-04-29T09:14:25Z,353138.4,NULL,Kreativität,ubunifu,s,mratibu,mwendelezo,makubaliano,NA,sdf,NA,0,NA,NA,NA,NA,NA,NA,NA,NA,NA,NA,NA,NA,NA,NA,NA,NA,NA,NA,NA
24f9e,Shallow Question,html.Page,3_0_0_0_5_1_0,NA,NA,form submission,6593.3999999523,353124.19999999,353121.8,353138.4,359731.79999995,359732,2024-04-29T09:14:32Z,359734.962,NULL,Kreativität,ubunifu,s,mratibu,mwendelezo,makubaliano,mratibu,NA,NA,0,NA,NA,NA,NA,NA,NA,NA,NA,NA,NA,NA,NA,NA,NA,NA,NA,NA,NA,NA
24f9e,"""Richtig""-Screen",canvas.Screen,3_0_0_0_5_1_1,NA,NA,skipped,NA,359735.19999999,NA,NA,359731.79999995,359735.29999995,2024-04-29T09:14:32Z,359734.962,NULL,Kreativität,ubunifu,s,mratibu,mwendelezo,makubaliano,NA,sdf,NA,0,NA,NA,NA,NA,NA,NA,NA,NA,NA,NA,NA,NA,NA,NA,NA,NA,NA,NA,NA
24f9e,"""Falsch""-Screen",canvas.Screen,3_0_0_0_5_1_2,NA,NA,timeout,4996.838,359736.19999999,359734.962,359734.962,364714.9,364715.89999998,2024-04-29T09:14:37Z,364731.8,NULL,Kreativität,ubunifu,s,mratibu,mwendelezo,makubaliano,NA,sdf,0,0,NA,NA,NA,NA,NA,NA,NA,NA,NA,NA,NA,NA,NA,NA,NA,NA,NA,NA,NA
24f9e,shallow,flow.Sequence,3_0_0_0_5_1,NA,NA,completion,11576.5,353124.09999996,353121.8,353138.4,364714.9,364716.29999995,2024-04-29T09:14:37Z,364731.8,NULL,Kreativität,ubunifu,s,mratibu,mwendelezo,makubaliano,NA,sdf,NA,0,NA,NA,NA,NA,NA,NA,NA,NA,NA,NA,NA,NA,NA,NA,NA,NA,NA,NA,NA
24f9e,task,flow.Sequence,3_0_0_0_5,NA,NA,completion,11576.5,353123.79999995,353121.8,353138.4,364714.9,364716.5,2024-04-29T09:14:37Z,364731.8,NULL,Kreativität,ubunifu,s,mratibu,mwendelezo,makubaliano,NA,sdf,NA,0,NA,NA,NA,NA,NA,NA,NA,NA,NA,NA,NA,NA,NA,NA,NA,NA,NA,NA,NA
24f9e,deep,flow.Sequence,3_0_0_0_6_0,NA,NA,skipped,NA,364716.59999996,NA,NA,364714.9,364716.69999999,2024-04-29T09:14:37Z,364731.8,NULL,Können,unaweza,s,kiongozi,bustani,mienendo,NA,sdf,NA,0,NA,NA,NA,NA,NA,NA,NA,NA,NA,NA,NA,NA,NA,NA,NA,NA,NA,NA,NA
24f9e,Shallow Question,html.Page,3_0_0_0_6_1_0,NA,NA,form submission,4518.2999999642,364716.89999998,364714.9,364731.8,369250.09999996,369250.29999995,2024-04-29T09:14:41Z,369262,NULL,Können,unaweza,s,kiongozi,bustani,mienendo,kiongozi,NA,NA,0,NA,NA,NA,NA,NA,NA,NA,NA,NA,NA,NA,NA,NA,NA,NA,NA,NA,NA,NA
24f9e,"""Richtig""-Screen",canvas.Screen,3_0_0_0_6_1_1,NA,NA,skipped,NA,369253.39999998,NA,NA,369250.09999996,369253.5,2024-04-29T09:14:41Z,369262,NULL,Können,unaweza,s,kiongozi,bustani,mienendo,NA,sdf,NA,0,NA,NA,NA,NA,NA,NA,NA,NA,NA,NA,NA,NA,NA,NA,NA,NA,NA,NA,NA
24f9e,"""Falsch""-Screen",canvas.Screen,3_0_0_0_6_1_2,NA,NA,timeout,4997.1,369254.29999995,369245.758,369262,374242.2,374242.69999999,2024-04-29T09:14:46Z,374259.1,NULL,Können,unaweza,s,kiongozi,bustani,mienendo,NA,sdf,0,0,NA,NA,NA,NA,NA,NA,NA,NA,NA,NA,NA,NA,NA,NA,NA,NA,NA,NA,NA
24f9e,shallow,flow.Sequence,3_0_0_0_6_1,NA,NA,completion,9510.4,364716.79999995,364714.9,364731.8,374242.2,374242.79999995,2024-04-29T09:14:46Z,374259.1,NULL,Können,unaweza,s,kiongozi,bustani,mienendo,NA,sdf,NA,0,NA,NA,NA,NA,NA,NA,NA,NA,NA,NA,NA,NA,NA,NA,NA,NA,NA,NA,NA
24f9e,task,flow.Sequence,3_0_0_0_6,NA,NA,completion,9510.4,364716.5,364714.9,364731.8,374242.2,374242.79999995,2024-04-29T09:14:46Z,374259.1,NULL,Können,unaweza,s,kiongozi,bustani,mienendo,NA,sdf,NA,0,NA,NA,NA,NA,NA,NA,NA,NA,NA,NA,NA,NA,NA,NA,NA,NA,NA,NA,NA
24f9e,Deep Question,html.Page,3_0_0_0_7_0_0,NA,NA,form submission,7783.4,374242.89999998,374242.2,374259.1,382042.5,382042.69999999,2024-04-29T09:14:54Z,382054.2,NULL,Verstand,ufahamivu,d,NA,NA,NA,remomba,NA,NA,0,NA,NA,NA,NA,NA,NA,NA,NA,NA,NA,NA,NA,NA,NA,NA,NA,NA,NA,NA
24f9e,"""Richtig""-Screen",canvas.Screen,3_0_0_0_7_0_1,NA,NA,skipped,NA,382045.59999996,NA,NA,382042.5,382045.79999995,2024-04-29T09:14:54Z,382054.2,NULL,Verstand,ufahamivu,d,NA,NA,NA,NA,sdf,NA,0,NA,NA,NA,NA,NA,NA,NA,NA,NA,NA,NA,NA,NA,NA,NA,NA,NA,NA,NA
24f9e,"""Falsch""-Screen",canvas.Screen,3_0_0_0_7_0_2,NA,NA,timeout,4997.2,382046.39999998,382037.662,382054.2,387034.5,387035.69999999,2024-04-29T09:14:59Z,387051.4,NULL,Verstand,ufahamivu,d,NA,NA,NA,NA,sdf,0,0,NA,NA,NA,NA,NA,NA,NA,NA,NA,NA,NA,NA,NA,NA,NA,NA,NA,NA,NA
24f9e,deep,flow.Sequence,3_0_0_0_7_0,NA,NA,completion,12775.4,374242.89999998,374242.2,374259.1,387034.5,387036.09999996,2024-04-29T09:14:59Z,387051.4,NULL,Verstand,ufahamivu,d,NA,NA,NA,NA,sdf,NA,0,NA,NA,NA,NA,NA,NA,NA,NA,NA,NA,NA,NA,NA,NA,NA,NA,NA,NA,NA
24f9e,shallow,flow.Sequence,3_0_0_0_7_1,NA,NA,skipped,NA,387036.19999999,NA,NA,387034.5,387036.39999998,2024-04-29T09:14:59Z,387051.4,NULL,Verstand,ufahamivu,d,NA,NA,NA,NA,sdf,NA,0,NA,NA,NA,NA,NA,NA,NA,NA,NA,NA,NA,NA,NA,NA,NA,NA,NA,NA,NA
24f9e,task,flow.Sequence,3_0_0_0_7,NA,NA,completion,12775.4,374242.79999995,374242.2,374259.1,387034.5,387036.5,2024-04-29T09:14:59Z,387051.4,NULL,Verstand,ufahamivu,d,NA,NA,NA,NA,sdf,NA,0,NA,NA,NA,NA,NA,NA,NA,NA,NA,NA,NA,NA,NA,NA,NA,NA,NA,NA,NA
24f9e,block,flow.Loop,3_0_0_0,NA,NA,completion,101788.1,285251.39999998,285238.248,285246.4,387034.5,387036.79999995,2024-04-29T09:14:59Z,387051.4,NULL,NA,NA,NA,NA,NA,NA,NA,sdf,NA,0,NA,NA,NA,NA,NA,NA,NA,NA,NA,NA,NA,NA,NA,NA,NA,NA,NA,NA,NA
24f9e,weiter,canvas.Screen,3_0_0_1,sdf,keypress(Space),response,2297.7999999881,387037,387034.5,387051.4,389349.19999999,389350.09999996,2024-04-29T09:15:01Z,389366.89,NULL,NA,NA,NA,NA,NA,NA,NA,sdf,NA,0,NA,NA,NA,NA,NA,NA,NA,NA,NA,NA,NA,NA,NA,NA,NA,NA,NA,NA,NA
24f9e,check continue,flow.Sequence,3_0_0,NA,NA,completion,104102.79999999,285251.29999995,285238.248,285246.4,389349.19999999,389350.39999998,2024-04-29T09:15:01Z,389366.89,NULL,NA,NA,NA,NA,NA,NA,NA,sdf,NA,0,NA,NA,NA,NA,NA,NA,NA,NA,NA,NA,NA,NA,NA,NA,NA,NA,NA,NA,NA
24f9e,deep,flow.Sequence,3_0_1_0_0_0,NA,NA,skipped,NA,389370.59999996,NA,NA,389349.19999999,389370.69999999,2024-04-29T09:15:01Z,389366.89,NULL,Kreativität,ubunifu,s,mratibu,mwendelezo,makubaliano,NA,sdfdsf,NA,1,NA,NA,NA,NA,NA,NA,NA,NA,NA,NA,NA,NA,NA,NA,NA,NA,NA,NA,NA
24f9e,Shallow Question,html.Page,3_0_1_0_0_1_0,NA,NA,form submission,3515.3099999881,389370.69999999,389366.89,389366.89,392882.19999999,392882.39999998,2024-04-29T09:15:05Z,392897.9,NULL,Kreativität,ubunifu,s,mratibu,mwendelezo,makubaliano,ubunifu,NA,NA,1,NA,NA,NA,NA,NA,NA,NA,NA,NA,NA,NA,NA,NA,NA,NA,NA,NA,NA,NA
24f9e,"""Richtig""-Screen",canvas.Screen,3_0_1_0_0_1_1,NA,NA,timeout,4997,392885.29999995,392881.486,392897.9,397877.9,397878.89999998,2024-04-29T09:15:10Z,397894.9,NULL,Kreativität,ubunifu,s,mratibu,mwendelezo,makubaliano,NA,sdfdsf,1,1,NA,NA,NA,NA,NA,NA,NA,NA,NA,NA,NA,NA,NA,NA,NA,NA,NA,NA,NA
24f9e,"""Falsch""-Screen",canvas.Screen,3_0_1_0_0_1_2,NA,NA,skipped,NA,397883.59999996,NA,NA,397877.9,397883.89999998,2024-04-29T09:15:10Z,397894.9,NULL,Kreativität,ubunifu,s,mratibu,mwendelezo,makubaliano,NA,sdfdsf,NA,1,NA,NA,NA,NA,NA,NA,NA,NA,NA,NA,NA,NA,NA,NA,NA,NA,NA,NA,NA
24f9e,shallow,flow.Sequence,3_0_1_0_0_1,NA,NA,completion,8511.01,389370.69999999,389366.89,389366.89,397877.9,397884.19999999,2024-04-29T09:15:10Z,397894.9,NULL,Kreativität,ubunifu,s,mratibu,mwendelezo,makubaliano,NA,sdfdsf,NA,1,NA,NA,NA,NA,NA,NA,NA,NA,NA,NA,NA,NA,NA,NA,NA,NA,NA,NA,NA
24f9e,task,flow.Sequence,3_0_1_0_0,NA,NA,completion,8511.01,389370.59999996,389366.89,389366.89,397877.9,397884.29999995,2024-04-29T09:15:10Z,397894.9,NULL,Kreativität,ubunifu,s,mratibu,mwendelezo,makubaliano,NA,sdfdsf,NA,1,NA,NA,NA,NA,NA,NA,NA,NA,NA,NA,NA,NA,NA,NA,NA,NA,NA,NA,NA
24f9e,Deep Question,html.Page,3_0_1_0_1_0_0,NA,NA,form submission,6333.3999999523,397884.39999998,397877.9,397894.9,404228.29999995,404228.5,2024-04-29T09:15:16Z,404240.9,NULL,Verstand,ufahamivu,d,NA,NA,NA,mazawa,NA,NA,1,NA,NA,NA,NA,NA,NA,NA,NA,NA,NA,NA,NA,NA,NA,NA,NA,NA,NA,NA
24f9e,"""Richtig""-Screen",canvas.Screen,3_0_1_0_1_0_1,NA,NA,skipped,NA,404231.5,NA,NA,404228.29999995,404231.59999996,2024-04-29T09:15:16Z,404240.9,NULL,Verstand,ufahamivu,d,NA,NA,NA,NA,sdfdsf,NA,1,NA,NA,NA,NA,NA,NA,NA,NA,NA,NA,NA,NA,NA,NA,NA,NA,NA,NA,NA
24f9e,"""Falsch""-Screen",canvas.Screen,3_0_1_0_1_0_2,NA,NA,timeout,4997.1,404232.39999998,404224.456,404240.9,409220.9,409221.89999998,2024-04-29T09:15:21Z,409238,NULL,Verstand,ufahamivu,d,NA,NA,NA,NA,sdfdsf,0,1,NA,NA,NA,NA,NA,NA,NA,NA,NA,NA,NA,NA,NA,NA,NA,NA,NA,NA,NA
24f9e,deep,flow.Sequence,3_0_1_0_1_0,NA,NA,completion,11326,397884.39999998,397877.9,397894.9,409220.9,409222.29999995,2024-04-29T09:15:21Z,409238,NULL,Verstand,ufahamivu,d,NA,NA,NA,NA,sdfdsf,NA,1,NA,NA,NA,NA,NA,NA,NA,NA,NA,NA,NA,NA,NA,NA,NA,NA,NA,NA,NA
24f9e,shallow,flow.Sequence,3_0_1_0_1_1,NA,NA,skipped,NA,409222.39999998,NA,NA,409220.9,409222.5,2024-04-29T09:15:21Z,409238,NULL,Verstand,ufahamivu,d,NA,NA,NA,NA,sdfdsf,NA,1,NA,NA,NA,NA,NA,NA,NA,NA,NA,NA,NA,NA,NA,NA,NA,NA,NA,NA,NA
24f9e,task,flow.Sequence,3_0_1_0_1,NA,NA,completion,11326,397884.29999995,397877.9,397894.9,409220.9,409222.69999999,2024-04-29T09:15:21Z,409238,NULL,Verstand,ufahamivu,d,NA,NA,NA,NA,sdfdsf,NA,1,NA,NA,NA,NA,NA,NA,NA,NA,NA,NA,NA,NA,NA,NA,NA,NA,NA,NA,NA
24f9e,deep,flow.Sequence,3_0_1_0_2_0,NA,NA,skipped,NA,409222.79999995,NA,NA,409220.9,409222.89999998,2024-04-29T09:15:21Z,409238,NULL,Können,unaweza,s,kiongozi,bustani,mienendo,NA,sdfdsf,NA,1,NA,NA,NA,NA,NA,NA,NA,NA,NA,NA,NA,NA,NA,NA,NA,NA,NA,NA,NA
24f9e,Shallow Question,html.Page,3_0_1_0_2_1_0,NA,NA,form submission,7058.0999999642,409223.09999996,409220.9,409238,416296.09999996,416296.29999995,2024-04-29T09:15:28Z,416300.322,NULL,Können,unaweza,s,kiongozi,bustani,mienendo,unaweza,NA,NA,1,NA,NA,NA,NA,NA,NA,NA,NA,NA,NA,NA,NA,NA,NA,NA,NA,NA,NA,NA
24f9e,"""Richtig""-Screen",canvas.Screen,3_0_1_0_2_1_1,NA,NA,timeout,4996.978,416299.19999999,416300.322,416300.322,421280.6,421281.89999998,2024-04-29T09:15:33Z,421297.3,NULL,Können,unaweza,s,kiongozi,bustani,mienendo,NA,sdfdsf,1,1,NA,NA,NA,NA,NA,NA,NA,NA,NA,NA,NA,NA,NA,NA,NA,NA,NA,NA,NA
24f9e,"""Falsch""-Screen",canvas.Screen,3_0_1_0_2_1_2,NA,NA,skipped,NA,421287,NA,NA,421280.6,421287.09999996,2024-04-29T09:15:33Z,421297.3,NULL,Können,unaweza,s,kiongozi,bustani,mienendo,NA,sdfdsf,NA,1,NA,NA,NA,NA,NA,NA,NA,NA,NA,NA,NA,NA,NA,NA,NA,NA,NA,NA,NA
24f9e,shallow,flow.Sequence,3_0_1_0_2_1,NA,NA,completion,12042.6,409223.09999996,409220.9,409238,421280.6,421287.19999999,2024-04-29T09:15:33Z,421297.3,NULL,Können,unaweza,s,kiongozi,bustani,mienendo,NA,sdfdsf,NA,1,NA,NA,NA,NA,NA,NA,NA,NA,NA,NA,NA,NA,NA,NA,NA,NA,NA,NA,NA
24f9e,task,flow.Sequence,3_0_1_0_2,NA,NA,completion,12042.6,409222.79999995,409220.9,409238,421280.6,421287.19999999,2024-04-29T09:15:33Z,421297.3,NULL,Können,unaweza,s,kiongozi,bustani,mienendo,NA,sdfdsf,NA,1,NA,NA,NA,NA,NA,NA,NA,NA,NA,NA,NA,NA,NA,NA,NA,NA,NA,NA,NA
24f9e,deep,flow.Sequence,3_0_1_0_3_0,NA,NA,skipped,NA,421287.19999999,NA,NA,421280.6,421287.39999998,2024-04-29T09:15:33Z,421297.3,NULL,Ausschluss,kutengwa,s,ununuzi,taratibu,madeni,NA,sdfdsf,NA,1,NA,NA,NA,NA,NA,NA,NA,NA,NA,NA,NA,NA,NA,NA,NA,NA,NA,NA,NA
24f9e,Shallow Question,html.Page,3_0_1_0_3_1_0,NA,NA,form submission,7602.7999999642,421287.39999998,421280.6,421297.3,428900.09999996,428900.29999995,2024-04-29T09:15:41Z,428909,NULL,Ausschluss,kutengwa,s,ununuzi,taratibu,madeni,ununuzi,NA,NA,1,NA,NA,NA,NA,NA,NA,NA,NA,NA,NA,NA,NA,NA,NA,NA,NA,NA,NA,NA
24f9e,"""Richtig""-Screen",canvas.Screen,3_0_1_0_3_1_1,NA,NA,skipped,NA,428903.19999999,NA,NA,428900.09999996,428903.29999995,2024-04-29T09:15:41Z,428909,NULL,Ausschluss,kutengwa,s,ununuzi,taratibu,madeni,NA,sdfdsf,NA,1,NA,NA,NA,NA,NA,NA,NA,NA,NA,NA,NA,NA,NA,NA,NA,NA,NA,NA,NA
24f9e,"""Falsch""-Screen",canvas.Screen,3_0_1_0_3_1_2,NA,NA,timeout,4997.2,428904.09999996,428892.7,428909,433889.5,433890.39999998,2024-04-29T09:15:46Z,433906.2,NULL,Ausschluss,kutengwa,s,ununuzi,taratibu,madeni,NA,sdfdsf,0,1,NA,NA,NA,NA,NA,NA,NA,NA,NA,NA,NA,NA,NA,NA,NA,NA,NA,NA,NA
24f9e,shallow,flow.Sequence,3_0_1_0_3_1,NA,NA,completion,12592.2,421287.39999998,421280.6,421297.3,433889.5,433890.69999999,2024-04-29T09:15:46Z,433906.2,NULL,Ausschluss,kutengwa,s,ununuzi,taratibu,madeni,NA,sdfdsf,NA,1,NA,NA,NA,NA,NA,NA,NA,NA,NA,NA,NA,NA,NA,NA,NA,NA,NA,NA,NA
24f9e,task,flow.Sequence,3_0_1_0_3,NA,NA,completion,12592.2,421287.19999999,421280.6,421297.3,433889.5,433890.89999998,2024-04-29T09:15:46Z,433906.2,NULL,Ausschluss,kutengwa,s,ununuzi,taratibu,madeni,NA,sdfdsf,NA,1,NA,NA,NA,NA,NA,NA,NA,NA,NA,NA,NA,NA,NA,NA,NA,NA,NA,NA,NA
24f9e,Deep Question,html.Page,3_0_1_0_4_0_0,NA,NA,form submission,7320.6999999761,433891,433889.5,433906.2,441226.89999998,441227.09999996,2024-04-29T09:15:53Z,441251.6,NULL,Widerstand,usulubu,d,NA,NA,NA,abc,NA,NA,1,NA,NA,NA,NA,NA,NA,NA,NA,NA,NA,NA,NA,NA,NA,NA,NA,NA,NA,NA
24f9e,"""Richtig""-Screen",canvas.Screen,3_0_1_0_4_0_1,NA,NA,skipped,NA,441230,NA,NA,441226.89999998,441230.09999996,2024-04-29T09:15:53Z,441251.6,NULL,Widerstand,usulubu,d,NA,NA,NA,NA,sdfdsf,NA,1,NA,NA,NA,NA,NA,NA,NA,NA,NA,NA,NA,NA,NA,NA,NA,NA,NA,NA,NA
24f9e,"""Falsch""-Screen",canvas.Screen,3_0_1_0_4_0_2,NA,NA,timeout,4997.2,441231,441234.7,441251.6,446232.1,446233,2024-04-29T09:15:58Z,446248.8,NULL,Widerstand,usulubu,d,NA,NA,NA,NA,sdfdsf,0,1,NA,NA,NA,NA,NA,NA,NA,NA,NA,NA,NA,NA,NA,NA,NA,NA,NA,NA,NA
24f9e,deep,flow.Sequence,3_0_1_0_4_0,NA,NA,completion,12325.9,433891,433889.5,433906.2,446232.1,446233.5,2024-04-29T09:15:58Z,446248.8,NULL,Widerstand,usulubu,d,NA,NA,NA,NA,sdfdsf,NA,1,NA,NA,NA,NA,NA,NA,NA,NA,NA,NA,NA,NA,NA,NA,NA,NA,NA,NA,NA
24f9e,shallow,flow.Sequence,3_0_1_0_4_1,NA,NA,skipped,NA,446233.69999999,NA,NA,446232.1,446233.89999998,2024-04-29T09:15:58Z,446248.8,NULL,Widerstand,usulubu,d,NA,NA,NA,NA,sdfdsf,NA,1,NA,NA,NA,NA,NA,NA,NA,NA,NA,NA,NA,NA,NA,NA,NA,NA,NA,NA,NA
24f9e,task,flow.Sequence,3_0_1_0_4,NA,NA,completion,12325.9,433891,433889.5,433906.2,446232.1,446234,2024-04-29T09:15:58Z,446248.8,NULL,Widerstand,usulubu,d,NA,NA,NA,NA,sdfdsf,NA,1,NA,NA,NA,NA,NA,NA,NA,NA,NA,NA,NA,NA,NA,NA,NA,NA,NA,NA,NA
24f9e,Deep Question,html.Page,3_0_1_0_5_0_0,NA,NA,form submission,6565.5999999762,446234.19999999,446232.1,446248.8,452814.39999998,452814.69999999,2024-04-29T09:16:05Z,452827.9,NULL,Gefährdung,kuhatarisha,d,NA,NA,NA,dangara,NA,NA,1,NA,NA,NA,NA,NA,NA,NA,NA,NA,NA,NA,NA,NA,NA,NA,NA,NA,NA,NA
24f9e,"""Richtig""-Screen",canvas.Screen,3_0_1_0_5_0_1,NA,NA,skipped,NA,452817.79999995,NA,NA,452814.39999998,452817.89999998,2024-04-29T09:16:05Z,452827.9,NULL,Gefährdung,kuhatarisha,d,NA,NA,NA,NA,sdfdsf,NA,1,NA,NA,NA,NA,NA,NA,NA,NA,NA,NA,NA,NA,NA,NA,NA,NA,NA,NA,NA
24f9e,"""Falsch""-Screen",canvas.Screen,3_0_1_0_5_0_2,NA,NA,timeout,4997,452818.59999996,452811.59,452827.9,457808,457809.09999996,2024-04-29T09:16:10Z,457824.9,NULL,Gefährdung,kuhatarisha,d,NA,NA,NA,NA,sdfdsf,0,1,NA,NA,NA,NA,NA,NA,NA,NA,NA,NA,NA,NA,NA,NA,NA,NA,NA,NA,NA
24f9e,deep,flow.Sequence,3_0_1_0_5_0,NA,NA,completion,11559.2,446234.19999999,446232.1,446248.8,457808,457809.39999998,2024-04-29T09:16:10Z,457824.9,NULL,Gefährdung,kuhatarisha,d,NA,NA,NA,NA,sdfdsf,NA,1,NA,NA,NA,NA,NA,NA,NA,NA,NA,NA,NA,NA,NA,NA,NA,NA,NA,NA,NA
24f9e,shallow,flow.Sequence,3_0_1_0_5_1,NA,NA,skipped,NA,457809.5,NA,NA,457808,457809.69999999,2024-04-29T09:16:10Z,457824.9,NULL,Gefährdung,kuhatarisha,d,NA,NA,NA,NA,sdfdsf,NA,1,NA,NA,NA,NA,NA,NA,NA,NA,NA,NA,NA,NA,NA,NA,NA,NA,NA,NA,NA
24f9e,task,flow.Sequence,3_0_1_0_5,NA,NA,completion,11559.2,446234.19999999,446232.1,446248.8,457808,457809.89999998,2024-04-29T09:16:10Z,457824.9,NULL,Gefährdung,kuhatarisha,d,NA,NA,NA,NA,sdfdsf,NA,1,NA,NA,NA,NA,NA,NA,NA,NA,NA,NA,NA,NA,NA,NA,NA,NA,NA,NA,NA
24f9e,deep,flow.Sequence,3_0_1_0_6_0,NA,NA,skipped,NA,457810.09999996,NA,NA,457808,457810.29999995,2024-04-29T09:16:10Z,457824.9,NULL,Gelegenheit,wakati,s,mchanganyiko,kipaumbele,kushuku,NA,sdfdsf,NA,1,NA,NA,NA,NA,NA,NA,NA,NA,NA,NA,NA,NA,NA,NA,NA,NA,NA,NA,NA
24f9e,Shallow Question,html.Page,3_0_1_0_6_1_0,NA,NA,form submission,9876.4999999761,457810.29999995,457808,457824.9,467701.39999998,467701.59999996,2024-04-29T09:16:20Z,467702.326,NULL,Gelegenheit,wakati,s,mchanganyiko,kipaumbele,kushuku,kushuku,NA,NA,1,NA,NA,NA,NA,NA,NA,NA,NA,NA,NA,NA,NA,NA,NA,NA,NA,NA,NA,NA
24f9e,"""Richtig""-Screen",canvas.Screen,3_0_1_0_6_1_1,NA,NA,skipped,NA,467704.59999996,NA,NA,467701.39999998,467704.69999999,2024-04-29T09:16:20Z,467702.326,NULL,Gelegenheit,wakati,s,mchanganyiko,kipaumbele,kushuku,NA,sdfdsf,NA,1,NA,NA,NA,NA,NA,NA,NA,NA,NA,NA,NA,NA,NA,NA,NA,NA,NA,NA,NA
24f9e,"""Falsch""-Screen",canvas.Screen,3_0_1_0_6_1_2,NA,NA,timeout,4996.774,467705.59999996,467702.326,467702.326,472682.4,472682.79999995,2024-04-29T09:16:25Z,472699.1,NULL,Gelegenheit,wakati,s,mchanganyiko,kipaumbele,kushuku,NA,sdfdsf,0,1,NA,NA,NA,NA,NA,NA,NA,NA,NA,NA,NA,NA,NA,NA,NA,NA,NA,NA,NA
24f9e,shallow,flow.Sequence,3_0_1_0_6_1,NA,NA,completion,14857.5,457810.29999995,457808,457824.9,472682.4,472683.09999996,2024-04-29T09:16:25Z,472699.1,NULL,Gelegenheit,wakati,s,mchanganyiko,kipaumbele,kushuku,NA,sdfdsf,NA,1,NA,NA,NA,NA,NA,NA,NA,NA,NA,NA,NA,NA,NA,NA,NA,NA,NA,NA,NA
24f9e,task,flow.Sequence,3_0_1_0_6,NA,NA,completion,14857.5,457810,457808,457824.9,472682.4,472683.09999996,2024-04-29T09:16:25Z,472699.1,NULL,Gelegenheit,wakati,s,mchanganyiko,kipaumbele,kushuku,NA,sdfdsf,NA,1,NA,NA,NA,NA,NA,NA,NA,NA,NA,NA,NA,NA,NA,NA,NA,NA,NA,NA,NA
24f9e,Deep Question,html.Page,3_0_1_0_7_0_0,NA,NA,form submission,11128.999999964,472683.09999996,472682.4,472699.1,483828.09999996,483828.29999995,2024-04-29T09:16:36Z,483842.2,NULL,Kontrolle,kudhibiti,d,NA,NA,NA,ubuhifu,NA,NA,1,NA,NA,NA,NA,NA,NA,NA,NA,NA,NA,NA,NA,NA,NA,NA,NA,NA,NA,NA
24f9e,"""Richtig""-Screen",canvas.Screen,3_0_1_0_7_0_1,NA,NA,skipped,NA,483831.39999998,NA,NA,483828.09999996,483831.39999998,2024-04-29T09:16:36Z,483842.2,NULL,Kontrolle,kudhibiti,d,NA,NA,NA,NA,sdfdsf,NA,1,NA,NA,NA,NA,NA,NA,NA,NA,NA,NA,NA,NA,NA,NA,NA,NA,NA,NA,NA
24f9e,"""Falsch""-Screen",canvas.Screen,3_0_1_0_7_0_2,NA,NA,timeout,4997.3,483832.19999999,483825.948,483842.2,488822.3,488824,2024-04-29T09:16:41Z,488839.5,NULL,Kontrolle,kudhibiti,d,NA,NA,NA,NA,sdfdsf,0,1,NA,NA,NA,NA,NA,NA,NA,NA,NA,NA,NA,NA,NA,NA,NA,NA,NA,NA,NA
24f9e,deep,flow.Sequence,3_0_1_0_7_0,NA,NA,completion,16123.2,472683.09999996,472682.4,472699.1,488822.3,488824.29999995,2024-04-29T09:16:41Z,488839.5,NULL,Kontrolle,kudhibiti,d,NA,NA,NA,NA,sdfdsf,NA,1,NA,NA,NA,NA,NA,NA,NA,NA,NA,NA,NA,NA,NA,NA,NA,NA,NA,NA,NA
24f9e,shallow,flow.Sequence,3_0_1_0_7_1,NA,NA,skipped,NA,488824.39999998,NA,NA,488822.3,488824.5,2024-04-29T09:16:41Z,488839.5,NULL,Kontrolle,kudhibiti,d,NA,NA,NA,NA,sdfdsf,NA,1,NA,NA,NA,NA,NA,NA,NA,NA,NA,NA,NA,NA,NA,NA,NA,NA,NA,NA,NA
24f9e,task,flow.Sequence,3_0_1_0_7,NA,NA,completion,16123.2,472683.09999996,472682.4,472699.1,488822.3,488824.69999999,2024-04-29T09:16:41Z,488839.5,NULL,Kontrolle,kudhibiti,d,NA,NA,NA,NA,sdfdsf,NA,1,NA,NA,NA,NA,NA,NA,NA,NA,NA,NA,NA,NA,NA,NA,NA,NA,NA,NA,NA
24f9e,block,flow.Loop,3_0_1_0,NA,NA,completion,99455.41,389370.59999996,389366.89,389366.89,488822.3,488825,2024-04-29T09:16:41Z,488839.5,NULL,NA,NA,NA,NA,NA,NA,NA,sdfdsf,NA,1,NA,NA,NA,NA,NA,NA,NA,NA,NA,NA,NA,NA,NA,NA,NA,NA,NA,NA,NA
24f9e,weiter,canvas.Screen,3_0_1_1,sdf,keypress(Space),response,1161.3999999762,488825.19999999,488822.3,488839.5,490000.89999998,490001.79999995,2024-04-29T09:16:42Z,490021.5,NULL,NA,NA,NA,NA,NA,NA,NA,sdfdsf,NA,1,NA,NA,NA,NA,NA,NA,NA,NA,NA,NA,NA,NA,NA,NA,NA,NA,NA,NA,NA
24f9e,check continue,flow.Sequence,3_0_1,NA,NA,completion,100634.00999998,389370.59999996,389366.89,389366.89,490000.89999998,490002.09999996,2024-04-29T09:16:42Z,490021.5,NULL,NA,NA,NA,NA,NA,NA,NA,sdfdsf,NA,1,NA,NA,NA,NA,NA,NA,NA,NA,NA,NA,NA,NA,NA,NA,NA,NA,NA,NA,NA
24f9e,Deep Question,html.Page,3_0_2_0_0_0_0,NA,NA,form submission,5620.2999999523,490020.69999999,490005.652,490021.5,495641.79999995,495641.89999998,2024-04-29T09:16:47Z,495651.5,NULL,Widerstand,usulubu,d,NA,NA,NA,abc,NA,NA,2,NA,NA,NA,NA,NA,NA,NA,NA,NA,NA,NA,NA,NA,NA,NA,NA,NA,NA,NA
24f9e,"""Richtig""-Screen",canvas.Screen,3_0_2_0_0_0_1,NA,NA,skipped,NA,495644.79999995,NA,NA,495641.79999995,495645,2024-04-29T09:16:47Z,495651.5,NULL,Widerstand,usulubu,d,NA,NA,NA,NA,sdf,NA,2,NA,NA,NA,NA,NA,NA,NA,NA,NA,NA,NA,NA,NA,NA,NA,NA,NA,NA,NA
24f9e,"""Falsch""-Screen",canvas.Screen,3_0_2_0_0_0_2,NA,NA,timeout,4997.2,495645.69999999,495635.29,495651.5,500631.7,500632.69999999,2024-04-29T09:16:52Z,500648.7,NULL,Widerstand,usulubu,d,NA,NA,NA,NA,sdf,0,2,NA,NA,NA,NA,NA,NA,NA,NA,NA,NA,NA,NA,NA,NA,NA,NA,NA,NA,NA
24f9e,deep,flow.Sequence,3_0_2_0_0_0,NA,NA,completion,10610.2,490020.69999999,490005.652,490021.5,500631.7,500633.09999996,2024-04-29T09:16:52Z,500648.7,NULL,Widerstand,usulubu,d,NA,NA,NA,NA,sdf,NA,2,NA,NA,NA,NA,NA,NA,NA,NA,NA,NA,NA,NA,NA,NA,NA,NA,NA,NA,NA
24f9e,shallow,flow.Sequence,3_0_2_0_0_1,NA,NA,skipped,NA,500633.29999995,NA,NA,500631.7,500633.39999998,2024-04-29T09:16:52Z,500648.7,NULL,Widerstand,usulubu,d,NA,NA,NA,NA,sdf,NA,2,NA,NA,NA,NA,NA,NA,NA,NA,NA,NA,NA,NA,NA,NA,NA,NA,NA,NA,NA
24f9e,task,flow.Sequence,3_0_2_0_0,NA,NA,completion,10610.2,490020.69999999,490005.652,490021.5,500631.7,500633.5,2024-04-29T09:16:52Z,500648.7,NULL,Widerstand,usulubu,d,NA,NA,NA,NA,sdf,NA,2,NA,NA,NA,NA,NA,NA,NA,NA,NA,NA,NA,NA,NA,NA,NA,NA,NA,NA,NA
24f9e,deep,flow.Sequence,3_0_2_0_1_0,NA,NA,skipped,NA,500633.69999999,NA,NA,500631.7,500633.79999995,2024-04-29T09:16:52Z,500648.7,NULL,Ausschluss,kutengwa,s,ununuzi,taratibu,madeni,NA,sdf,NA,2,NA,NA,NA,NA,NA,NA,NA,NA,NA,NA,NA,NA,NA,NA,NA,NA,NA,NA,NA
24f9e,Shallow Question,html.Page,3_0_2_0_1_1_0,NA,NA,form submission,4977.3,500633.89999998,500631.7,500648.7,505626,505626.19999999,2024-04-29T09:16:57Z,505629.426,NULL,Ausschluss,kutengwa,s,ununuzi,taratibu,madeni,kutengwa,NA,NA,2,NA,NA,NA,NA,NA,NA,NA,NA,NA,NA,NA,NA,NA,NA,NA,NA,NA,NA,NA
24f9e,"""Richtig""-Screen",canvas.Screen,3_0_2_0_1_1_1,NA,NA,timeout,4996.674,505629.09999996,505629.426,505629.426,510609.5,510610.5,2024-04-29T09:17:02Z,510626.1,NULL,Ausschluss,kutengwa,s,ununuzi,taratibu,madeni,NA,sdf,1,2,NA,NA,NA,NA,NA,NA,NA,NA,NA,NA,NA,NA,NA,NA,NA,NA,NA,NA,NA
24f9e,"""Falsch""-Screen",canvas.Screen,3_0_2_0_1_1_2,NA,NA,skipped,NA,510615.79999995,NA,NA,510609.5,510615.79999995,2024-04-29T09:17:02Z,510626.1,NULL,Ausschluss,kutengwa,s,ununuzi,taratibu,madeni,NA,sdf,NA,2,NA,NA,NA,NA,NA,NA,NA,NA,NA,NA,NA,NA,NA,NA,NA,NA,NA,NA,NA
24f9e,shallow,flow.Sequence,3_0_2_0_1_1,NA,NA,completion,9960.8,500633.79999995,500631.7,500648.7,510609.5,510615.89999998,2024-04-29T09:17:02Z,510626.1,NULL,Ausschluss,kutengwa,s,ununuzi,taratibu,madeni,NA,sdf,NA,2,NA,NA,NA,NA,NA,NA,NA,NA,NA,NA,NA,NA,NA,NA,NA,NA,NA,NA,NA
24f9e,task,flow.Sequence,3_0_2_0_1,NA,NA,completion,9960.8,500633.59999996,500631.7,500648.7,510609.5,510616,2024-04-29T09:17:02Z,510626.1,NULL,Ausschluss,kutengwa,s,ununuzi,taratibu,madeni,NA,sdf,NA,2,NA,NA,NA,NA,NA,NA,NA,NA,NA,NA,NA,NA,NA,NA,NA,NA,NA,NA,NA
24f9e,deep,flow.Sequence,3_0_2_0_2_0,NA,NA,skipped,NA,510616,NA,NA,510609.5,510616.09999996,2024-04-29T09:17:02Z,510626.1,NULL,Kreativität,ubunifu,s,mratibu,mwendelezo,makubaliano,NA,sdf,NA,2,NA,NA,NA,NA,NA,NA,NA,NA,NA,NA,NA,NA,NA,NA,NA,NA,NA,NA,NA
24f9e,Shallow Question,html.Page,3_0_2_0_2_1_0,NA,NA,form submission,4161.7999999762,510616.09999996,510609.5,510626.1,514787.89999998,514788.19999999,2024-04-29T09:17:07Z,514806.3,NULL,Kreativität,ubunifu,s,mratibu,mwendelezo,makubaliano,ubunifu,NA,NA,2,NA,NA,NA,NA,NA,NA,NA,NA,NA,NA,NA,NA,NA,NA,NA,NA,NA,NA,NA
24f9e,"""Richtig""-Screen",canvas.Screen,3_0_2_0_2_1_1,NA,NA,timeout,4997.5,514791.19999999,514790.322,514806.3,519787,519788.39999998,2024-04-29T09:17:12Z,519803.8,NULL,Kreativität,ubunifu,s,mratibu,mwendelezo,makubaliano,NA,sdf,1,2,NA,NA,NA,NA,NA,NA,NA,NA,NA,NA,NA,NA,NA,NA,NA,NA,NA,NA,NA
24f9e,"""Falsch""-Screen",canvas.Screen,3_0_2_0_2_1_2,NA,NA,skipped,NA,519792.69999999,NA,NA,519787,519792.79999995,2024-04-29T09:17:12Z,519803.8,NULL,Kreativität,ubunifu,s,mratibu,mwendelezo,makubaliano,NA,sdf,NA,2,NA,NA,NA,NA,NA,NA,NA,NA,NA,NA,NA,NA,NA,NA,NA,NA,NA,NA,NA
24f9e,shallow,flow.Sequence,3_0_2_0_2_1,NA,NA,completion,9160.9,510616.09999996,510609.5,510626.1,519787,519792.89999998,2024-04-29T09:17:12Z,519803.8,NULL,Kreativität,ubunifu,s,mratibu,mwendelezo,makubaliano,NA,sdf,NA,2,NA,NA,NA,NA,NA,NA,NA,NA,NA,NA,NA,NA,NA,NA,NA,NA,NA,NA,NA
24f9e,task,flow.Sequence,3_0_2_0_2,NA,NA,completion,9160.9,510616,510609.5,510626.1,519787,519793,2024-04-29T09:17:12Z,519803.8,NULL,Kreativität,ubunifu,s,mratibu,mwendelezo,makubaliano,NA,sdf,NA,2,NA,NA,NA,NA,NA,NA,NA,NA,NA,NA,NA,NA,NA,NA,NA,NA,NA,NA,NA
24f9e,deep,flow.Sequence,3_0_2_0_3_0,NA,NA,skipped,NA,519793,NA,NA,519787,519793,2024-04-29T09:17:12Z,519803.8,NULL,Gelegenheit,wakati,s,mchanganyiko,kipaumbele,kushuku,NA,sdf,NA,2,NA,NA,NA,NA,NA,NA,NA,NA,NA,NA,NA,NA,NA,NA,NA,NA,NA,NA,NA
24f9e,Shallow Question,html.Page,3_0_2_0_3_1_0,NA,NA,form submission,5180.0999999762,519793.09999996,519787,519803.8,524983.89999998,524984.09999996,2024-04-29T09:17:17Z,525000.8,NULL,Gelegenheit,wakati,s,mchanganyiko,kipaumbele,kushuku,wakati,NA,NA,2,NA,NA,NA,NA,NA,NA,NA,NA,NA,NA,NA,NA,NA,NA,NA,NA,NA,NA,NA
24f9e,"""Richtig""-Screen",canvas.Screen,3_0_2_0_3_1_1,NA,NA,timeout,4996.7999999999,524986.89999998,524984.128,525000.8,529981,529981.39999998,2024-04-29T09:17:22Z,529997.6,NULL,Gelegenheit,wakati,s,mchanganyiko,kipaumbele,kushuku,NA,sdf,1,2,NA,NA,NA,NA,NA,NA,NA,NA,NA,NA,NA,NA,NA,NA,NA,NA,NA,NA,NA
24f9e,"""Falsch""-Screen",canvas.Screen,3_0_2_0_3_1_2,NA,NA,skipped,NA,529983.39999998,NA,NA,529981,529983.39999998,2024-04-29T09:17:22Z,529997.6,NULL,Gelegenheit,wakati,s,mchanganyiko,kipaumbele,kushuku,NA,sdf,NA,2,NA,NA,NA,NA,NA,NA,NA,NA,NA,NA,NA,NA,NA,NA,NA,NA,NA,NA,NA
24f9e,shallow,flow.Sequence,3_0_2_0_3_1,NA,NA,completion,10177.2,519793.09999996,519787,519803.8,529981,529983.5,2024-04-29T09:17:22Z,529997.6,NULL,Gelegenheit,wakati,s,mchanganyiko,kipaumbele,kushuku,NA,sdf,NA,2,NA,NA,NA,NA,NA,NA,NA,NA,NA,NA,NA,NA,NA,NA,NA,NA,NA,NA,NA
24f9e,task,flow.Sequence,3_0_2_0_3,NA,NA,completion,10177.2,519793,519787,519803.8,529981,529983.59999996,2024-04-29T09:17:22Z,529997.6,NULL,Gelegenheit,wakati,s,mchanganyiko,kipaumbele,kushuku,NA,sdf,NA,2,NA,NA,NA,NA,NA,NA,NA,NA,NA,NA,NA,NA,NA,NA,NA,NA,NA,NA,NA
24f9e,Deep Question,html.Page,3_0_2_0_4_0_0,NA,NA,form submission,6165.9999999643,529983.69999999006,529981,529997.6,536163.59999996,536163.79999995,2024-04-29T09:17:28Z,536177.2,NULL,Verstand,ufahamivu,d,NA,NA,NA,abc,NA,NA,2,NA,NA,NA,NA,NA,NA,NA,NA,NA,NA,NA,NA,NA,NA,NA,NA,NA,NA,NA
24f9e,"""Richtig""-Screen",canvas.Screen,3_0_2_0_4_0_1,NA,NA,skipped,NA,536165.09999996,NA,NA,536163.59999996,536165.19999999006,2024-04-29T09:17:28Z,536177.2,NULL,Verstand,ufahamivu,d,NA,NA,NA,NA,sdf,NA,2,NA,NA,NA,NA,NA,NA,NA,NA,NA,NA,NA,NA,NA,NA,NA,NA,NA,NA,NA
24f9e,"""Falsch""-Screen",canvas.Screen,3_0_2_0_4_0_2,NA,NA,timeout,4996.7000000001,536165.5,536160.594,536177.2,541157.4,541158.29999995,2024-04-29T09:17:33Z,541173.9,NULL,Verstand,ufahamivu,d,NA,NA,NA,NA,sdf,0,2,NA,NA,NA,NA,NA,NA,NA,NA,NA,NA,NA,NA,NA,NA,NA,NA,NA,NA,NA
24f9e,deep,flow.Sequence,3_0_2_0_4_0,NA,NA,completion,11159.8,529983.69999999006,529981,529997.6,541157.4,541158.69999999006,2024-04-29T09:17:33Z,541173.9,NULL,Verstand,ufahamivu,d,NA,NA,NA,NA,sdf,NA,2,NA,NA,NA,NA,NA,NA,NA,NA,NA,NA,NA,NA,NA,NA,NA,NA,NA,NA,NA
24f9e,shallow,flow.Sequence,3_0_2_0_4_1,NA,NA,skipped,NA,541158.79999995,NA,NA,541157.4,541158.89999998,2024-04-29T09:17:33Z,541173.9,NULL,Verstand,ufahamivu,d,NA,NA,NA,NA,sdf,NA,2,NA,NA,NA,NA,NA,NA,NA,NA,NA,NA,NA,NA,NA,NA,NA,NA,NA,NA,NA
24f9e,task,flow.Sequence,3_0_2_0_4,NA,NA,completion,11159.8,529983.69999999006,529981,529997.6,541157.4,541159.19999999006,2024-04-29T09:17:33Z,541173.9,NULL,Verstand,ufahamivu,d,NA,NA,NA,NA,sdf,NA,2,NA,NA,NA,NA,NA,NA,NA,NA,NA,NA,NA,NA,NA,NA,NA,NA,NA,NA,NA
24f9e,Deep Question,html.Page,3_0_2_0_5_0_0,NA,NA,form submission,10801.699999964,541159.29999995,541157.4,541173.9,551975.59999996,551975.89999998,2024-04-29T09:17:44Z,551984.132,NULL,Kontrolle,kudhibiti,d,NA,NA,NA,usulubu,NA,NA,2,NA,NA,NA,NA,NA,NA,NA,NA,NA,NA,NA,NA,NA,NA,NA,NA,NA,NA,NA
24f9e,"""Richtig""-Screen",canvas.Screen,3_0_2_0_5_0_1,NA,NA,skipped,NA,551979,NA,NA,551975.59999996,551979,2024-04-29T09:17:44Z,551984.132,NULL,Kontrolle,kudhibiti,d,NA,NA,NA,NA,sdf,NA,2,NA,NA,NA,NA,NA,NA,NA,NA,NA,NA,NA,NA,NA,NA,NA,NA,NA,NA,NA
24f9e,"""Falsch""-Screen",canvas.Screen,3_0_2_0_5_0_2,NA,NA,timeout,4997.068,551979.79999995,551984.132,551984.132,556964.4,556964.79999995,2024-04-29T09:17:49Z,556981.2,NULL,Kontrolle,kudhibiti,d,NA,NA,NA,NA,sdf,0,2,NA,NA,NA,NA,NA,NA,NA,NA,NA,NA,NA,NA,NA,NA,NA,NA,NA,NA,NA
24f9e,deep,flow.Sequence,3_0_2_0_5_0,NA,NA,completion,15790.5,541159.29999995,541157.4,541173.9,556964.4,556964.89999998,2024-04-29T09:17:49Z,556981.2,NULL,Kontrolle,kudhibiti,d,NA,NA,NA,NA,sdf,NA,2,NA,NA,NA,NA,NA,NA,NA,NA,NA,NA,NA,NA,NA,NA,NA,NA,NA,NA,NA
24f9e,shallow,flow.Sequence,3_0_2_0_5_1,NA,NA,skipped,NA,556965,NA,NA,556964.4,556965.09999996,2024-04-29T09:17:49Z,556981.2,NULL,Kontrolle,kudhibiti,d,NA,NA,NA,NA,sdf,NA,2,NA,NA,NA,NA,NA,NA,NA,NA,NA,NA,NA,NA,NA,NA,NA,NA,NA,NA,NA
24f9e,task,flow.Sequence,3_0_2_0_5,NA,NA,completion,15790.5,541159.29999995,541157.4,541173.9,556964.4,556965.09999996,2024-04-29T09:17:49Z,556981.2,NULL,Kontrolle,kudhibiti,d,NA,NA,NA,NA,sdf,NA,2,NA,NA,NA,NA,NA,NA,NA,NA,NA,NA,NA,NA,NA,NA,NA,NA,NA,NA,NA
24f9e,deep,flow.Sequence,3_0_2_0_6_0,NA,NA,skipped,NA,556965.09999996,NA,NA,556964.4,556965.09999996,2024-04-29T09:17:49Z,556981.2,NULL,Können,unaweza,s,kiongozi,bustani,mienendo,NA,sdf,NA,2,NA,NA,NA,NA,NA,NA,NA,NA,NA,NA,NA,NA,NA,NA,NA,NA,NA,NA,NA
24f9e,Shallow Question,html.Page,3_0_2_0_6_1_0,NA,NA,form submission,6830.8,556965.19999999006,556964.4,556981.2,563812,563812.09999996,2024-04-29T09:17:56Z,563826.9,NULL,Können,unaweza,s,kiongozi,bustani,mienendo,unaweza,NA,NA,2,NA,NA,NA,NA,NA,NA,NA,NA,NA,NA,NA,NA,NA,NA,NA,NA,NA,NA,NA
24f9e,"""Richtig""-Screen",canvas.Screen,3_0_2_0_6_1_1,NA,NA,timeout,4996.7,563815.09999996,563810.426,563826.9,568807,568807.89999998,2024-04-29T09:18:01Z,568823.6,NULL,Können,unaweza,s,kiongozi,bustani,mienendo,NA,sdf,1,2,NA,NA,NA,NA,NA,NA,NA,NA,NA,NA,NA,NA,NA,NA,NA,NA,NA,NA,NA
24f9e,"""Falsch""-Screen",canvas.Screen,3_0_2_0_6_1_2,NA,NA,skipped,NA,568812.69999999006,NA,NA,568807,568812.69999999006,2024-04-29T09:18:01Z,568823.6,NULL,Können,unaweza,s,kiongozi,bustani,mienendo,NA,sdf,NA,2,NA,NA,NA,NA,NA,NA,NA,NA,NA,NA,NA,NA,NA,NA,NA,NA,NA,NA,NA
24f9e,shallow,flow.Sequence,3_0_2_0_6_1,NA,NA,completion,11825.8,556965.09999996,556964.4,556981.2,568807,568812.79999995,2024-04-29T09:18:01Z,568823.6,NULL,Können,unaweza,s,kiongozi,bustani,mienendo,NA,sdf,NA,2,NA,NA,NA,NA,NA,NA,NA,NA,NA,NA,NA,NA,NA,NA,NA,NA,NA,NA,NA
24f9e,task,flow.Sequence,3_0_2_0_6,NA,NA,completion,11825.8,556965.09999996,556964.4,556981.2,568807,568812.79999995,2024-04-29T09:18:01Z,568823.6,NULL,Können,unaweza,s,kiongozi,bustani,mienendo,NA,sdf,NA,2,NA,NA,NA,NA,NA,NA,NA,NA,NA,NA,NA,NA,NA,NA,NA,NA,NA,NA,NA
24f9e,Deep Question,html.Page,3_0_2_0_7_0_0,NA,NA,form submission,7302.1999999523,568813,568807,568823.6,576125.79999995,576126,2024-04-29T09:18:08Z,576135.6,NULL,Gefährdung,kuhatarisha,d,NA,NA,NA,usulubu,NA,NA,2,NA,NA,NA,NA,NA,NA,NA,NA,NA,NA,NA,NA,NA,NA,NA,NA,NA,NA,NA
24f9e,"""Richtig""-Screen",canvas.Screen,3_0_2_0_7_0_1,NA,NA,skipped,NA,576128.89999998,NA,NA,576125.79999995,576129.09999996,2024-04-29T09:18:08Z,576135.6,NULL,Gefährdung,kuhatarisha,d,NA,NA,NA,NA,sdf,NA,2,NA,NA,NA,NA,NA,NA,NA,NA,NA,NA,NA,NA,NA,NA,NA,NA,NA,NA,NA
24f9e,"""Falsch""-Screen",canvas.Screen,3_0_2_0_7_0_2,NA,NA,timeout,4997.2000000001,576129.79999995,576119.876,576135.6,581116.3,581117.19999999006,2024-04-29T09:18:13Z,581132.8,NULL,Gefährdung,kuhatarisha,d,NA,NA,NA,NA,sdf,0,2,NA,NA,NA,NA,NA,NA,NA,NA,NA,NA,NA,NA,NA,NA,NA,NA,NA,NA,NA
24f9e,deep,flow.Sequence,3_0_2_0_7_0,NA,NA,completion,12292.7,568812.89999998,568807,568823.6,581116.3,581117.59999996,2024-04-29T09:18:13Z,581132.8,NULL,Gefährdung,kuhatarisha,d,NA,NA,NA,NA,sdf,NA,2,NA,NA,NA,NA,NA,NA,NA,NA,NA,NA,NA,NA,NA,NA,NA,NA,NA,NA,NA
24f9e,shallow,flow.Sequence,3_0_2_0_7_1,NA,NA,skipped,NA,581117.69999999006,NA,NA,581116.3,581117.89999998,2024-04-29T09:18:13Z,581132.8,NULL,Gefährdung,kuhatarisha,d,NA,NA,NA,NA,sdf,NA,2,NA,NA,NA,NA,NA,NA,NA,NA,NA,NA,NA,NA,NA,NA,NA,NA,NA,NA,NA
24f9e,task,flow.Sequence,3_0_2_0_7,NA,NA,completion,12292.7,568812.79999995,568807,568823.6,581116.3,581118.09999996,2024-04-29T09:18:13Z,581132.8,NULL,Gefährdung,kuhatarisha,d,NA,NA,NA,NA,sdf,NA,2,NA,NA,NA,NA,NA,NA,NA,NA,NA,NA,NA,NA,NA,NA,NA,NA,NA,NA,NA
24f9e,block,flow.Loop,3_0_2_0,NA,NA,completion,91094.8,490020.69999999,490005.652,490021.5,581116.3,581118.29999995,2024-04-29T09:18:13Z,581132.8,NULL,NA,NA,NA,NA,NA,NA,NA,sdf,NA,2,NA,NA,NA,NA,NA,NA,NA,NA,NA,NA,NA,NA,NA,NA,NA,NA,NA,NA,NA
24f9e,weiter,canvas.Screen,3_0_2_1,sdf,keypress(Space),response,1407.5999999761,581118.39999998,581116.3,581132.8,582540.39999998,582541.5,2024-04-29T09:18:14Z,582565,NULL,NA,NA,NA,NA,NA,NA,NA,sdf,NA,2,NA,NA,NA,NA,NA,NA,NA,NA,NA,NA,NA,NA,NA,NA,NA,NA,NA,NA,NA
24f9e,check continue,flow.Sequence,3_0_2,NA,NA,completion,92518.899999976,490020.59999996,490005.652,490021.5,582540.39999998,582541.69999999006,2024-04-29T09:18:14Z,582565,NULL,NA,NA,NA,NA,NA,NA,NA,sdf,NA,2,NA,NA,NA,NA,NA,NA,NA,NA,NA,NA,NA,NA,NA,NA,NA,NA,NA,NA,NA
24f9e,Deep Question,html.Page,3_0_3_0_0_0_0,NA,NA,form submission,7143.0999999642,582561,582549.208,582565,589708.09999996,589708.39999998,2024-04-29T09:18:22Z,589712.72,NULL,Gefährdung,kuhatarisha,d,NA,NA,NA,usulubu,NA,NA,3,NA,NA,NA,NA,NA,NA,NA,NA,NA,NA,NA,NA,NA,NA,NA,NA,NA,NA,NA
24f9e,"""Richtig""-Screen",canvas.Screen,3_0_3_0_0_0_1,NA,NA,skipped,NA,589711.29999995,NA,NA,589708.09999996,589711.39999998,2024-04-29T09:18:22Z,589712.72,NULL,Gefährdung,kuhatarisha,d,NA,NA,NA,NA,qt,NA,3,NA,NA,NA,NA,NA,NA,NA,NA,NA,NA,NA,NA,NA,NA,NA,NA,NA,NA,NA
24f9e,"""Falsch""-Screen",canvas.Screen,3_0_3_0_0_0_2,NA,NA,timeout,4995.28,589712.19999999006,589712.72,589712.72,594691.6,594692.89999998,2024-04-29T09:18:27Z,594708,NULL,Gefährdung,kuhatarisha,d,NA,NA,NA,NA,qt,0,3,NA,NA,NA,NA,NA,NA,NA,NA,NA,NA,NA,NA,NA,NA,NA,NA,NA,NA,NA
24f9e,deep,flow.Sequence,3_0_3_0_0_0,NA,NA,completion,12126.6,582561,582549.208,582565,594691.6,594693.29999995,2024-04-29T09:18:27Z,594708,NULL,Gefährdung,kuhatarisha,d,NA,NA,NA,NA,qt,NA,3,NA,NA,NA,NA,NA,NA,NA,NA,NA,NA,NA,NA,NA,NA,NA,NA,NA,NA,NA
24f9e,shallow,flow.Sequence,3_0_3_0_0_1,NA,NA,skipped,NA,594693.5,NA,NA,594691.6,594693.69999999006,2024-04-29T09:18:27Z,594708,NULL,Gefährdung,kuhatarisha,d,NA,NA,NA,NA,qt,NA,3,NA,NA,NA,NA,NA,NA,NA,NA,NA,NA,NA,NA,NA,NA,NA,NA,NA,NA,NA
24f9e,task,flow.Sequence,3_0_3_0_0,NA,NA,completion,12126.6,582561,582549.208,582565,594691.6,594693.89999998,2024-04-29T09:18:27Z,594708,NULL,Gefährdung,kuhatarisha,d,NA,NA,NA,NA,qt,NA,3,NA,NA,NA,NA,NA,NA,NA,NA,NA,NA,NA,NA,NA,NA,NA,NA,NA,NA,NA
24f9e,deep,flow.Sequence,3_0_3_0_1_0,NA,NA,skipped,NA,594694,NA,NA,594691.6,594694.09999996,2024-04-29T09:18:27Z,594708,NULL,Können,unaweza,s,kiongozi,bustani,mienendo,NA,qt,NA,3,NA,NA,NA,NA,NA,NA,NA,NA,NA,NA,NA,NA,NA,NA,NA,NA,NA,NA,NA
24f9e,Shallow Question,html.Page,3_0_3_0_1_1_0,NA,NA,form submission,3427.7999999523,594694.19999999006,594691.6,594708,598135.79999995,598136.09999996,2024-04-29T09:18:30Z,598139.516,NULL,Können,unaweza,s,kiongozi,bustani,mienendo,unaweza,NA,NA,3,NA,NA,NA,NA,NA,NA,NA,NA,NA,NA,NA,NA,NA,NA,NA,NA,NA,NA,NA
24f9e,"""Richtig""-Screen",canvas.Screen,3_0_3_0_1_1_1,NA,NA,timeout,4996.8840000001,598139.19999999006,598139.516,598139.516,603119.4,603120.19999999006,2024-04-29T09:18:35Z,603136.4,NULL,Können,unaweza,s,kiongozi,bustani,mienendo,NA,qt,1,3,NA,NA,NA,NA,NA,NA,NA,NA,NA,NA,NA,NA,NA,NA,NA,NA,NA,NA,NA
24f9e,"""Falsch""-Screen",canvas.Screen,3_0_3_0_1_1_2,NA,NA,skipped,NA,603124.89999998,NA,NA,603119.4,603125,2024-04-29T09:18:35Z,603136.4,NULL,Können,unaweza,s,kiongozi,bustani,mienendo,NA,qt,NA,3,NA,NA,NA,NA,NA,NA,NA,NA,NA,NA,NA,NA,NA,NA,NA,NA,NA,NA,NA
24f9e,shallow,flow.Sequence,3_0_3_0_1_1,NA,NA,completion,8411.4,594694.19999999006,594691.6,594708,603119.4,603125.29999995,2024-04-29T09:18:35Z,603136.4,NULL,Können,unaweza,s,kiongozi,bustani,mienendo,NA,qt,NA,3,NA,NA,NA,NA,NA,NA,NA,NA,NA,NA,NA,NA,NA,NA,NA,NA,NA,NA,NA
24f9e,task,flow.Sequence,3_0_3_0_1,NA,NA,completion,8411.4,594693.89999998,594691.6,594708,603119.4,603125.59999996,2024-04-29T09:18:35Z,603136.4,NULL,Können,unaweza,s,kiongozi,bustani,mienendo,NA,qt,NA,3,NA,NA,NA,NA,NA,NA,NA,NA,NA,NA,NA,NA,NA,NA,NA,NA,NA,NA,NA
24f9e,deep,flow.Sequence,3_0_3_0_2_0,NA,NA,skipped,NA,603125.59999996,NA,NA,603119.4,603125.69999999006,2024-04-29T09:18:35Z,603136.4,NULL,Kreativität,ubunifu,s,mratibu,mwendelezo,makubaliano,NA,qt,NA,3,NA,NA,NA,NA,NA,NA,NA,NA,NA,NA,NA,NA,NA,NA,NA,NA,NA,NA,NA
24f9e,Shallow Question,html.Page,3_0_3_0_2_1_0,NA,NA,form submission,4125.4999999761,603125.69999999006,603119.4,603136.4,607261.89999998,607262.19999999006,2024-04-29T09:18:39Z,607283.5,NULL,Kreativität,ubunifu,s,mratibu,mwendelezo,makubaliano,ubunifu,NA,NA,3,NA,NA,NA,NA,NA,NA,NA,NA,NA,NA,NA,NA,NA,NA,NA,NA,NA,NA,NA
24f9e,"""Richtig""-Screen",canvas.Screen,3_0_3_0_2_1_1,NA,NA,timeout,4997.4,607265,607267.094,607283.5,612263.9,612264.89999998,2024-04-29T09:18:44Z,612280.9,NULL,Kreativität,ubunifu,s,mratibu,mwendelezo,makubaliano,NA,qt,1,3,NA,NA,NA,NA,NA,NA,NA,NA,NA,NA,NA,NA,NA,NA,NA,NA,NA,NA,NA
24f9e,"""Falsch""-Screen",canvas.Screen,3_0_3_0_2_1_2,NA,NA,skipped,NA,612269.79999995,NA,NA,612263.9,612269.89999998,2024-04-29T09:18:44Z,612280.9,NULL,Kreativität,ubunifu,s,mratibu,mwendelezo,makubaliano,NA,qt,NA,3,NA,NA,NA,NA,NA,NA,NA,NA,NA,NA,NA,NA,NA,NA,NA,NA,NA,NA,NA
24f9e,shallow,flow.Sequence,3_0_3_0_2_1,NA,NA,completion,9127.5,603125.69999999006,603119.4,603136.4,612263.9,612270.09999996,2024-04-29T09:18:44Z,612280.9,NULL,Kreativität,ubunifu,s,mratibu,mwendelezo,makubaliano,NA,qt,NA,3,NA,NA,NA,NA,NA,NA,NA,NA,NA,NA,NA,NA,NA,NA,NA,NA,NA,NA,NA
24f9e,task,flow.Sequence,3_0_3_0_2,NA,NA,completion,9127.5,603125.59999996,603119.4,603136.4,612263.9,612270.09999996,2024-04-29T09:18:44Z,612280.9,NULL,Kreativität,ubunifu,s,mratibu,mwendelezo,makubaliano,NA,qt,NA,3,NA,NA,NA,NA,NA,NA,NA,NA,NA,NA,NA,NA,NA,NA,NA,NA,NA,NA,NA
24f9e,deep,flow.Sequence,3_0_3_0_3_0,NA,NA,skipped,NA,612270.19999999006,NA,NA,612263.9,612270.19999999006,2024-04-29T09:18:44Z,612280.9,NULL,Gelegenheit,wakati,s,mchanganyiko,kipaumbele,kushuku,NA,qt,NA,3,NA,NA,NA,NA,NA,NA,NA,NA,NA,NA,NA,NA,NA,NA,NA,NA,NA,NA,NA
24f9e,Shallow Question,html.Page,3_0_3_0_3_1_0,NA,NA,form submission,3956.4999999761,612270.19999999006,612263.9,612280.9,616237.39999998,616237.59999996,2024-04-29T09:18:48Z,616244.5,NULL,Gelegenheit,wakati,s,mchanganyiko,kipaumbele,kushuku,wakati,NA,NA,3,NA,NA,NA,NA,NA,NA,NA,NA,NA,NA,NA,NA,NA,NA,NA,NA,NA,NA,NA
24f9e,"""Richtig""-Screen",canvas.Screen,3_0_3_0_3_1_1,NA,NA,timeout,4997,616240.39999998,616228.518,616244.5,621225.1,621226.5,2024-04-29T09:18:53Z,621241.5,NULL,Gelegenheit,wakati,s,mchanganyiko,kipaumbele,kushuku,NA,qt,1,3,NA,NA,NA,NA,NA,NA,NA,NA,NA,NA,NA,NA,NA,NA,NA,NA,NA,NA,NA
24f9e,"""Falsch""-Screen",canvas.Screen,3_0_3_0_3_1_2,NA,NA,skipped,NA,621231.59999996,NA,NA,621225.1,621231.89999998,2024-04-29T09:18:53Z,621241.5,NULL,Gelegenheit,wakati,s,mchanganyiko,kipaumbele,kushuku,NA,qt,NA,3,NA,NA,NA,NA,NA,NA,NA,NA,NA,NA,NA,NA,NA,NA,NA,NA,NA,NA,NA
24f9e,shallow,flow.Sequence,3_0_3_0_3_1,NA,NA,completion,8944.2,612270.19999999006,612263.9,612280.9,621225.1,621232.19999999006,2024-04-29T09:18:53Z,621241.5,NULL,Gelegenheit,wakati,s,mchanganyiko,kipaumbele,kushuku,NA,qt,NA,3,NA,NA,NA,NA,NA,NA,NA,NA,NA,NA,NA,NA,NA,NA,NA,NA,NA,NA,NA
24f9e,task,flow.Sequence,3_0_3_0_3,NA,NA,completion,8944.2,612270.19999999006,612263.9,612280.9,621225.1,621232.29999995,2024-04-29T09:18:53Z,621241.5,NULL,Gelegenheit,wakati,s,mchanganyiko,kipaumbele,kushuku,NA,qt,NA,3,NA,NA,NA,NA,NA,NA,NA,NA,NA,NA,NA,NA,NA,NA,NA,NA,NA,NA,NA
24f9e,Deep Question,html.Page,3_0_3_0_4_0_0,NA,NA,form submission,9700.3999999762,621232.59999996,621225.1,621241.5,630941.89999998,630942.09999996,2024-04-29T09:19:03Z,630952.2,NULL,Kontrolle,kudhibiti,d,NA,NA,NA,kuhutaisha,NA,NA,3,NA,NA,NA,NA,NA,NA,NA,NA,NA,NA,NA,NA,NA,NA,NA,NA,NA,NA,NA
24f9e,"""Richtig""-Screen",canvas.Screen,3_0_3_0_4_0_1,NA,NA,skipped,NA,630945.09999996,NA,NA,630941.89999998,630945.29999995,2024-04-29T09:19:03Z,630952.2,NULL,Kontrolle,kudhibiti,d,NA,NA,NA,NA,qt,NA,3,NA,NA,NA,NA,NA,NA,NA,NA,NA,NA,NA,NA,NA,NA,NA,NA,NA,NA,NA
24f9e,"""Falsch""-Screen",canvas.Screen,3_0_3_0_4_0_2,NA,NA,timeout,4997.5,630946,630936.058,630952.2,635932.7,635933.5,2024-04-29T09:19:08Z,635949.7,NULL,Kontrolle,kudhibiti,d,NA,NA,NA,NA,qt,0,3,NA,NA,NA,NA,NA,NA,NA,NA,NA,NA,NA,NA,NA,NA,NA,NA,NA,NA,NA
24f9e,deep,flow.Sequence,3_0_3_0_4_0,NA,NA,completion,14691.2,621232.59999996,621225.1,621241.5,635932.7,635933.89999998,2024-04-29T09:19:08Z,635949.7,NULL,Kontrolle,kudhibiti,d,NA,NA,NA,NA,qt,NA,3,NA,NA,NA,NA,NA,NA,NA,NA,NA,NA,NA,NA,NA,NA,NA,NA,NA,NA,NA
24f9e,shallow,flow.Sequence,3_0_3_0_4_1,NA,NA,skipped,NA,635934.09999996,NA,NA,635932.7,635934.29999995,2024-04-29T09:19:08Z,635949.7,NULL,Kontrolle,kudhibiti,d,NA,NA,NA,NA,qt,NA,3,NA,NA,NA,NA,NA,NA,NA,NA,NA,NA,NA,NA,NA,NA,NA,NA,NA,NA,NA
24f9e,task,flow.Sequence,3_0_3_0_4,NA,NA,completion,14691.2,621232.5,621225.1,621241.5,635932.7,635934.5,2024-04-29T09:19:08Z,635949.7,NULL,Kontrolle,kudhibiti,d,NA,NA,NA,NA,qt,NA,3,NA,NA,NA,NA,NA,NA,NA,NA,NA,NA,NA,NA,NA,NA,NA,NA,NA,NA,NA
24f9e,Deep Question,html.Page,3_0_3_0_5_0_0,NA,NA,form submission,3649.5999999524,635934.59999996,635932.7,635949.7,639599.29999995,639599.39999998,2024-04-29T09:19:11Z,639613.9,NULL,Verstand,ufahamivu,d,NA,NA,NA,a,NA,NA,3,NA,NA,NA,NA,NA,NA,NA,NA,NA,NA,NA,NA,NA,NA,NA,NA,NA,NA,NA
24f9e,"""Richtig""-Screen",canvas.Screen,3_0_3_0_5_0_1,NA,NA,skipped,NA,639601.29999995,NA,NA,639599.29999995,639601.29999995,2024-04-29T09:19:11Z,639613.9,NULL,Verstand,ufahamivu,d,NA,NA,NA,NA,qt,NA,3,NA,NA,NA,NA,NA,NA,NA,NA,NA,NA,NA,NA,NA,NA,NA,NA,NA,NA,NA
24f9e,"""Falsch""-Screen",canvas.Screen,3_0_3_0_5_0_2,NA,NA,timeout,4997.1,639601.69999999006,639597.526,639613.9,644593.9,644594.79999995,2024-04-29T09:19:16Z,644611,NULL,Verstand,ufahamivu,d,NA,NA,NA,NA,qt,0,3,NA,NA,NA,NA,NA,NA,NA,NA,NA,NA,NA,NA,NA,NA,NA,NA,NA,NA,NA
24f9e,deep,flow.Sequence,3_0_3_0_5_0,NA,NA,completion,8644.2000000001,635934.59999996,635932.7,635949.7,644593.9,644595.19999999006,2024-04-29T09:19:16Z,644611,NULL,Verstand,ufahamivu,d,NA,NA,NA,NA,qt,NA,3,NA,NA,NA,NA,NA,NA,NA,NA,NA,NA,NA,NA,NA,NA,NA,NA,NA,NA,NA
24f9e,shallow,flow.Sequence,3_0_3_0_5_1,NA,NA,skipped,NA,644595.39999998,NA,NA,644593.9,644595.5,2024-04-29T09:19:16Z,644611,NULL,Verstand,ufahamivu,d,NA,NA,NA,NA,qt,NA,3,NA,NA,NA,NA,NA,NA,NA,NA,NA,NA,NA,NA,NA,NA,NA,NA,NA,NA,NA
24f9e,task,flow.Sequence,3_0_3_0_5,NA,NA,completion,8644.2000000001,635934.5,635932.7,635949.7,644593.9,644595.79999995,2024-04-29T09:19:16Z,644611,NULL,Verstand,ufahamivu,d,NA,NA,NA,NA,qt,NA,3,NA,NA,NA,NA,NA,NA,NA,NA,NA,NA,NA,NA,NA,NA,NA,NA,NA,NA,NA
24f9e,deep,flow.Sequence,3_0_3_0_6_0,NA,NA,skipped,NA,644595.89999998,NA,NA,644593.9,644595.89999998,2024-04-29T09:19:16Z,644611,NULL,Ausschluss,kutengwa,s,ununuzi,taratibu,madeni,NA,qt,NA,3,NA,NA,NA,NA,NA,NA,NA,NA,NA,NA,NA,NA,NA,NA,NA,NA,NA,NA,NA
24f9e,Shallow Question,html.Page,3_0_3_0_6_1_0,NA,NA,form submission,7270.6999999881,644596.09999996,644593.9,644611,651881.69999999006,651881.89999998,2024-04-29T09:19:24Z,651889.4,NULL,Ausschluss,kutengwa,s,ununuzi,taratibu,madeni,ununuzi,NA,NA,3,NA,NA,NA,NA,NA,NA,NA,NA,NA,NA,NA,NA,NA,NA,NA,NA,NA,NA,NA
24f9e,"""Richtig""-Screen",canvas.Screen,3_0_3_0_6_1_1,NA,NA,skipped,NA,651884.79999995,NA,NA,651881.69999999006,651885,2024-04-29T09:19:24Z,651889.4,NULL,Ausschluss,kutengwa,s,ununuzi,taratibu,madeni,NA,qt,NA,3,NA,NA,NA,NA,NA,NA,NA,NA,NA,NA,NA,NA,NA,NA,NA,NA,NA,NA,NA
24f9e,"""Falsch""-Screen",canvas.Screen,3_0_3_0_6_1_2,NA,NA,timeout,4997.5,651885.69999999006,651873.262,651889.4,656870.2,656871.29999995,2024-04-29T09:19:29Z,656886.9,NULL,Ausschluss,kutengwa,s,ununuzi,taratibu,madeni,NA,qt,0,3,NA,NA,NA,NA,NA,NA,NA,NA,NA,NA,NA,NA,NA,NA,NA,NA,NA,NA,NA
24f9e,shallow,flow.Sequence,3_0_3_0_6_1,NA,NA,completion,12259.2,644596.09999996,644593.9,644611,656870.2,656871.69999999006,2024-04-29T09:19:29Z,656886.9,NULL,Ausschluss,kutengwa,s,ununuzi,taratibu,madeni,NA,qt,NA,3,NA,NA,NA,NA,NA,NA,NA,NA,NA,NA,NA,NA,NA,NA,NA,NA,NA,NA,NA
24f9e,task,flow.Sequence,3_0_3_0_6,NA,NA,completion,12259.2,644595.89999998,644593.9,644611,656870.2,656871.89999998,2024-04-29T09:19:29Z,656886.9,NULL,Ausschluss,kutengwa,s,ununuzi,taratibu,madeni,NA,qt,NA,3,NA,NA,NA,NA,NA,NA,NA,NA,NA,NA,NA,NA,NA,NA,NA,NA,NA,NA,NA
24f9e,Deep Question,html.Page,3_0_3_0_7_0_0,NA,NA,form submission,5819.6,656872.09999996,656870.2,656886.9,662706.5,662706.69999999006,2024-04-29T09:19:35Z,662732.7,NULL,Widerstand,usulubu,d,NA,NA,NA,usulubu,NA,NA,3,NA,NA,NA,NA,NA,NA,NA,NA,NA,NA,NA,NA,NA,NA,NA,NA,NA,NA,NA
24f9e,"""Richtig""-Screen",canvas.Screen,3_0_3_0_7_0_1,NA,NA,timeout,4997.4,662709.59999996,662716.722,662732.7,667713.2,667714.09999996,2024-04-29T09:19:40Z,667730.1,NULL,Widerstand,usulubu,d,NA,NA,NA,NA,qt,1,3,NA,NA,NA,NA,NA,NA,NA,NA,NA,NA,NA,NA,NA,NA,NA,NA,NA,NA,NA
24f9e,"""Falsch""-Screen",canvas.Screen,3_0_3_0_7_0_2,NA,NA,skipped,NA,667718.39999998,NA,NA,667713.2,667718.59999996,2024-04-29T09:19:40Z,667730.1,NULL,Widerstand,usulubu,d,NA,NA,NA,NA,qt,NA,3,NA,NA,NA,NA,NA,NA,NA,NA,NA,NA,NA,NA,NA,NA,NA,NA,NA,NA,NA
24f9e,deep,flow.Sequence,3_0_3_0_7_0,NA,NA,completion,10826.3,656872.09999996,656870.2,656886.9,667713.2,667718.59999996,2024-04-29T09:19:40Z,667730.1,NULL,Widerstand,usulubu,d,NA,NA,NA,NA,qt,NA,3,NA,NA,NA,NA,NA,NA,NA,NA,NA,NA,NA,NA,NA,NA,NA,NA,NA,NA,NA
24f9e,shallow,flow.Sequence,3_0_3_0_7_1,NA,NA,skipped,NA,667718.69999999006,NA,NA,667713.2,667718.69999999006,2024-04-29T09:19:40Z,667730.1,NULL,Widerstand,usulubu,d,NA,NA,NA,NA,qt,NA,3,NA,NA,NA,NA,NA,NA,NA,NA,NA,NA,NA,NA,NA,NA,NA,NA,NA,NA,NA
24f9e,task,flow.Sequence,3_0_3_0_7,NA,NA,completion,10826.3,656872,656870.2,656886.9,667713.2,667718.79999995,2024-04-29T09:19:40Z,667730.1,NULL,Widerstand,usulubu,d,NA,NA,NA,NA,qt,NA,3,NA,NA,NA,NA,NA,NA,NA,NA,NA,NA,NA,NA,NA,NA,NA,NA,NA,NA,NA
24f9e,block,flow.Loop,3_0_3_0,NA,NA,completion,85148.2,582561,582549.208,582565,667713.2,667718.79999995,2024-04-29T09:19:40Z,667730.1,NULL,NA,NA,NA,NA,NA,NA,NA,qt,NA,3,NA,NA,NA,NA,NA,NA,NA,NA,NA,NA,NA,NA,NA,NA,NA,NA,NA,NA,NA
24f9e,weiter,canvas.Screen,3_0_3_1,sdf,keypress(Space),response,751.0999999881,667718.79999995,667713.2,667730.1,668481.19999999006,668482.29999995,2024-04-29T09:19:40Z,668513.032,NULL,NA,NA,NA,NA,NA,NA,NA,qt,NA,3,NA,NA,NA,NA,NA,NA,NA,NA,NA,NA,NA,NA,NA,NA,NA,NA,NA,NA,NA
24f9e,check continue,flow.Sequence,3_0_3,NA,NA,completion,85916.199999988,582560.89999998,582549.208,582565,668481.19999999006,668482.79999995,2024-04-29T09:19:40Z,668513.032,NULL,NA,NA,NA,NA,NA,NA,NA,qt,NA,3,NA,NA,NA,NA,NA,NA,NA,NA,NA,NA,NA,NA,NA,NA,NA,NA,NA,NA,NA
24f9e,deep,flow.Sequence,3_0_4_0_0_0,NA,NA,skipped,NA,668517.89999998,NA,NA,668481.19999999006,668518,2024-04-29T09:19:40Z,668513.032,NULL,Kreativität,ubunifu,s,mratibu,mwendelezo,makubaliano,NA,sd,NA,4,NA,NA,NA,NA,NA,NA,NA,NA,NA,NA,NA,NA,NA,NA,NA,NA,NA,NA,NA
24f9e,Shallow Question,html.Page,3_0_4_0_0_1_0,NA,NA,form submission,3005.7679999523,668518.09999996,668513.032,668513.032,671518.79999995,671519,2024-04-29T09:19:43Z,671527.6,NULL,Kreativität,ubunifu,s,mratibu,mwendelezo,makubaliano,ubunifu,NA,NA,4,NA,NA,NA,NA,NA,NA,NA,NA,NA,NA,NA,NA,NA,NA,NA,NA,NA,NA,NA
24f9e,"""Richtig""-Screen",canvas.Screen,3_0_4_0_0_1_1,NA,NA,timeout,4996.7000000001,671520.59999996,671511.488,671527.6,676508.1,676508.89999998,2024-04-29T09:19:48Z,676524.3,NULL,Kreativität,ubunifu,s,mratibu,mwendelezo,makubaliano,NA,sd,1,4,NA,NA,NA,NA,NA,NA,NA,NA,NA,NA,NA,NA,NA,NA,NA,NA,NA,NA,NA
24f9e,"""Falsch""-Screen",canvas.Screen,3_0_4_0_0_1_2,NA,NA,skipped,NA,676511.5,NA,NA,676508.1,676511.69999999006,2024-04-29T09:19:48Z,676524.3,NULL,Kreativität,ubunifu,s,mratibu,mwendelezo,makubaliano,NA,sd,NA,4,NA,NA,NA,NA,NA,NA,NA,NA,NA,NA,NA,NA,NA,NA,NA,NA,NA,NA,NA
24f9e,shallow,flow.Sequence,3_0_4_0_0_1,NA,NA,completion,7995.068,668518.09999996,668513.032,668513.032,676508.1,676511.79999995,2024-04-29T09:19:48Z,676524.3,NULL,Kreativität,ubunifu,s,mratibu,mwendelezo,makubaliano,NA,sd,NA,4,NA,NA,NA,NA,NA,NA,NA,NA,NA,NA,NA,NA,NA,NA,NA,NA,NA,NA,NA
24f9e,task,flow.Sequence,3_0_4_0_0,NA,NA,completion,7995.068,668517.89999998,668513.032,668513.032,676508.1,676511.89999998,2024-04-29T09:19:48Z,676524.3,NULL,Kreativität,ubunifu,s,mratibu,mwendelezo,makubaliano,NA,sd,NA,4,NA,NA,NA,NA,NA,NA,NA,NA,NA,NA,NA,NA,NA,NA,NA,NA,NA,NA,NA
24f9e,Deep Question,html.Page,3_0_4_0_1_0_0,NA,NA,form submission,7284.2,676512,676508.1,676524.3,683808.5,683808.69999999006,2024-04-29T09:19:56Z,683820.3,NULL,Gefährdung,kuhatarisha,d,NA,NA,NA,kudhatista,NA,NA,4,NA,NA,NA,NA,NA,NA,NA,NA,NA,NA,NA,NA,NA,NA,NA,NA,NA,NA,NA
24f9e,"""Richtig""-Screen",canvas.Screen,3_0_4_0_1_0_1,NA,NA,skipped,NA,683811.69999999006,NA,NA,683808.5,683811.79999995,2024-04-29T09:19:56Z,683820.3,NULL,Gefährdung,kuhatarisha,d,NA,NA,NA,NA,sd,NA,4,NA,NA,NA,NA,NA,NA,NA,NA,NA,NA,NA,NA,NA,NA,NA,NA,NA,NA,NA
24f9e,"""Falsch""-Screen",canvas.Screen,3_0_4_0_1_0_2,NA,NA,timeout,4996.8999999999,683812.5,683803.762,683820.3,688800.5,688801.5,2024-04-29T09:20:01Z,688817.2,NULL,Gefährdung,kuhatarisha,d,NA,NA,NA,NA,sd,0,4,NA,NA,NA,NA,NA,NA,NA,NA,NA,NA,NA,NA,NA,NA,NA,NA,NA,NA,NA
24f9e,deep,flow.Sequence,3_0_4_0_1_0,NA,NA,completion,12276.2,676511.89999998,676508.1,676524.3,688800.5,688801.79999995,2024-04-29T09:20:01Z,688817.2,NULL,Gefährdung,kuhatarisha,d,NA,NA,NA,NA,sd,NA,4,NA,NA,NA,NA,NA,NA,NA,NA,NA,NA,NA,NA,NA,NA,NA,NA,NA,NA,NA
24f9e,shallow,flow.Sequence,3_0_4_0_1_1,NA,NA,skipped,NA,688802,NA,NA,688800.5,688802.09999996,2024-04-29T09:20:01Z,688817.2,NULL,Gefährdung,kuhatarisha,d,NA,NA,NA,NA,sd,NA,4,NA,NA,NA,NA,NA,NA,NA,NA,NA,NA,NA,NA,NA,NA,NA,NA,NA,NA,NA
24f9e,task,flow.Sequence,3_0_4_0_1,NA,NA,completion,12276.2,676511.89999998,676508.1,676524.3,688800.5,688802.29999995,2024-04-29T09:20:01Z,688817.2,NULL,Gefährdung,kuhatarisha,d,NA,NA,NA,NA,sd,NA,4,NA,NA,NA,NA,NA,NA,NA,NA,NA,NA,NA,NA,NA,NA,NA,NA,NA,NA,NA
24f9e,Deep Question,html.Page,3_0_4_0_2_0_0,NA,NA,form submission,6891.1999999762,688802.39999998,688800.5,688817.2,695708.39999998,695708.59999996,2024-04-29T09:20:08Z,695712.7,NULL,Widerstand,usulubu,d,NA,NA,NA,a,NA,NA,4,NA,NA,NA,NA,NA,NA,NA,NA,NA,NA,NA,NA,NA,NA,NA,NA,NA,NA,NA
24f9e,"""Richtig""-Screen",canvas.Screen,3_0_4_0_2_0_1,NA,NA,skipped,NA,695711.5,NA,NA,695708.39999998,695711.59999996,2024-04-29T09:20:08Z,695712.7,NULL,Widerstand,usulubu,d,NA,NA,NA,NA,sd,NA,4,NA,NA,NA,NA,NA,NA,NA,NA,NA,NA,NA,NA,NA,NA,NA,NA,NA,NA,NA
24f9e,"""Falsch""-Screen",canvas.Screen,3_0_4_0_2_0_2,NA,NA,timeout,4997.5,695712.39999998,695696.908,695712.7,700693.2,700694.5,2024-04-29T09:20:13Z,700710.2,NULL,Widerstand,usulubu,d,NA,NA,NA,NA,sd,0,4,NA,NA,NA,NA,NA,NA,NA,NA,NA,NA,NA,NA,NA,NA,NA,NA,NA,NA,NA
24f9e,deep,flow.Sequence,3_0_4_0_2_0,NA,NA,completion,11876,688802.39999998,688800.5,688817.2,700693.2,700694.79999995,2024-04-29T09:20:13Z,700710.2,NULL,Widerstand,usulubu,d,NA,NA,NA,NA,sd,NA,4,NA,NA,NA,NA,NA,NA,NA,NA,NA,NA,NA,NA,NA,NA,NA,NA,NA,NA,NA
24f9e,shallow,flow.Sequence,3_0_4_0_2_1,NA,NA,skipped,NA,700694.89999998,NA,NA,700693.2,700695.09999996,2024-04-29T09:20:13Z,700710.2,NULL,Widerstand,usulubu,d,NA,NA,NA,NA,sd,NA,4,NA,NA,NA,NA,NA,NA,NA,NA,NA,NA,NA,NA,NA,NA,NA,NA,NA,NA,NA
24f9e,task,flow.Sequence,3_0_4_0_2,NA,NA,completion,11876,688802.39999998,688800.5,688817.2,700693.2,700695.29999995,2024-04-29T09:20:13Z,700710.2,NULL,Widerstand,usulubu,d,NA,NA,NA,NA,sd,NA,4,NA,NA,NA,NA,NA,NA,NA,NA,NA,NA,NA,NA,NA,NA,NA,NA,NA,NA,NA
24f9e,Deep Question,html.Page,3_0_4_0_3_0_0,NA,NA,form submission,5290.3999999643,700695.5,700693.2,700710.2,706000.59999996,706000.89999998,2024-04-29T09:20:18Z,706006.93,NULL,Kontrolle,kudhibiti,d,NA,NA,NA,a,NA,NA,4,NA,NA,NA,NA,NA,NA,NA,NA,NA,NA,NA,NA,NA,NA,NA,NA,NA,NA,NA
24f9e,"""Richtig""-Screen",canvas.Screen,3_0_4_0_3_0_1,NA,NA,skipped,NA,706002.5,NA,NA,706000.59999996,706002.5,2024-04-29T09:20:18Z,706006.93,NULL,Kontrolle,kudhibiti,d,NA,NA,NA,NA,sd,NA,4,NA,NA,NA,NA,NA,NA,NA,NA,NA,NA,NA,NA,NA,NA,NA,NA,NA,NA,NA
24f9e,"""Falsch""-Screen",canvas.Screen,3_0_4_0_3_0_2,NA,NA,timeout,4996.7699999999,706002.79999995,706006.93,706006.93,710987.2,710988.09999996,2024-04-29T09:20:23Z,711003.7,NULL,Kontrolle,kudhibiti,d,NA,NA,NA,NA,sd,0,4,NA,NA,NA,NA,NA,NA,NA,NA,NA,NA,NA,NA,NA,NA,NA,NA,NA,NA,NA
24f9e,deep,flow.Sequence,3_0_4_0_3_0,NA,NA,completion,10277,700695.5,700693.2,700710.2,710987.2,710988.59999996,2024-04-29T09:20:23Z,711003.7,NULL,Kontrolle,kudhibiti,d,NA,NA,NA,NA,sd,NA,4,NA,NA,NA,NA,NA,NA,NA,NA,NA,NA,NA,NA,NA,NA,NA,NA,NA,NA,NA
24f9e,shallow,flow.Sequence,3_0_4_0_3_1,NA,NA,skipped,NA,710988.69999999006,NA,NA,710987.2,710988.89999998,2024-04-29T09:20:23Z,711003.7,NULL,Kontrolle,kudhibiti,d,NA,NA,NA,NA,sd,NA,4,NA,NA,NA,NA,NA,NA,NA,NA,NA,NA,NA,NA,NA,NA,NA,NA,NA,NA,NA
24f9e,task,flow.Sequence,3_0_4_0_3,NA,NA,completion,10277,700695.39999998,700693.2,700710.2,710987.2,710989,2024-04-29T09:20:23Z,711003.7,NULL,Kontrolle,kudhibiti,d,NA,NA,NA,NA,sd,NA,4,NA,NA,NA,NA,NA,NA,NA,NA,NA,NA,NA,NA,NA,NA,NA,NA,NA,NA,NA
24f9e,deep,flow.Sequence,3_0_4_0_4_0,NA,NA,skipped,NA,710989.19999999006,NA,NA,710987.2,710989.29999995,2024-04-29T09:20:23Z,711003.7,NULL,Ausschluss,kutengwa,s,ununuzi,taratibu,madeni,NA,sd,NA,4,NA,NA,NA,NA,NA,NA,NA,NA,NA,NA,NA,NA,NA,NA,NA,NA,NA,NA,NA
24f9e,Shallow Question,html.Page,3_0_4_0_4_1_0,NA,NA,form submission,3872.4999999881,710989.39999998,710987.2,711003.7,714876.19999999006,714876.29999995,2024-04-29T09:20:27Z,714884.4,NULL,Ausschluss,kutengwa,s,ununuzi,taratibu,madeni,ununuzi,NA,NA,4,NA,NA,NA,NA,NA,NA,NA,NA,NA,NA,NA,NA,NA,NA,NA,NA,NA,NA,NA
24f9e,"""Richtig""-Screen",canvas.Screen,3_0_4_0_4_1_1,NA,NA,skipped,NA,714879.5,NA,NA,714876.19999999006,714879.59999996,2024-04-29T09:20:27Z,714884.4,NULL,Ausschluss,kutengwa,s,ununuzi,taratibu,madeni,NA,sd,NA,4,NA,NA,NA,NA,NA,NA,NA,NA,NA,NA,NA,NA,NA,NA,NA,NA,NA,NA,NA
24f9e,"""Falsch""-Screen",canvas.Screen,3_0_4_0_4_1_2,NA,NA,timeout,4997.2999999999,714880.29999995,714868.1,714884.4,719864.9,719865.89999998,2024-04-29T09:20:32Z,719881.7,NULL,Ausschluss,kutengwa,s,ununuzi,taratibu,madeni,NA,sd,0,4,NA,NA,NA,NA,NA,NA,NA,NA,NA,NA,NA,NA,NA,NA,NA,NA,NA,NA,NA
24f9e,shallow,flow.Sequence,3_0_4_0_4_1,NA,NA,completion,8861.2000000001,710989.39999998,710987.2,711003.7,719864.9,719866.19999999006,2024-04-29T09:20:32Z,719881.7,NULL,Ausschluss,kutengwa,s,ununuzi,taratibu,madeni,NA,sd,NA,4,NA,NA,NA,NA,NA,NA,NA,NA,NA,NA,NA,NA,NA,NA,NA,NA,NA,NA,NA
24f9e,task,flow.Sequence,3_0_4_0_4,NA,NA,completion,8861.2000000001,710989.19999999006,710987.2,711003.7,719864.9,719866.5,2024-04-29T09:20:32Z,719881.7,NULL,Ausschluss,kutengwa,s,ununuzi,taratibu,madeni,NA,sd,NA,4,NA,NA,NA,NA,NA,NA,NA,NA,NA,NA,NA,NA,NA,NA,NA,NA,NA,NA,NA
24f9e,Deep Question,html.Page,3_0_4_0_5_0_0,NA,NA,form submission,4966.8,719866.69999999006,719864.9,719881.7,724848.5,724848.69999999006,2024-04-29T09:20:37Z,724861.8,NULL,Verstand,ufahamivu,d,NA,NA,NA,a,NA,NA,4,NA,NA,NA,NA,NA,NA,NA,NA,NA,NA,NA,NA,NA,NA,NA,NA,NA,NA,NA
24f9e,"""Richtig""-Screen",canvas.Screen,3_0_4_0_5_0_1,NA,NA,skipped,NA,724851.69999999006,NA,NA,724848.5,724851.89999998,2024-04-29T09:20:37Z,724861.8,NULL,Verstand,ufahamivu,d,NA,NA,NA,NA,sd,NA,4,NA,NA,NA,NA,NA,NA,NA,NA,NA,NA,NA,NA,NA,NA,NA,NA,NA,NA,NA
24f9e,"""Falsch""-Screen",canvas.Screen,3_0_4_0_5_0_2,NA,NA,timeout,4997.1,724852.69999999006,724845.496,724861.8,729841.9,729842.89999998,2024-04-29T09:20:42Z,729858.9,NULL,Verstand,ufahamivu,d,NA,NA,NA,NA,sd,0,4,NA,NA,NA,NA,NA,NA,NA,NA,NA,NA,NA,NA,NA,NA,NA,NA,NA,NA,NA
24f9e,deep,flow.Sequence,3_0_4_0_5_0,NA,NA,completion,9960.2000000001,719866.69999999006,719864.9,719881.7,729841.9,729843.19999999006,2024-04-29T09:20:42Z,729858.9,NULL,Verstand,ufahamivu,d,NA,NA,NA,NA,sd,NA,4,NA,NA,NA,NA,NA,NA,NA,NA,NA,NA,NA,NA,NA,NA,NA,NA,NA,NA,NA
24f9e,shallow,flow.Sequence,3_0_4_0_5_1,NA,NA,skipped,NA,729843.29999995,NA,NA,729841.9,729843.5,2024-04-29T09:20:42Z,729858.9,NULL,Verstand,ufahamivu,d,NA,NA,NA,NA,sd,NA,4,NA,NA,NA,NA,NA,NA,NA,NA,NA,NA,NA,NA,NA,NA,NA,NA,NA,NA,NA
24f9e,task,flow.Sequence,3_0_4_0_5,NA,NA,completion,9960.2000000001,719866.59999996,719864.9,719881.7,729841.9,729843.59999996,2024-04-29T09:20:42Z,729858.9,NULL,Verstand,ufahamivu,d,NA,NA,NA,NA,sd,NA,4,NA,NA,NA,NA,NA,NA,NA,NA,NA,NA,NA,NA,NA,NA,NA,NA,NA,NA,NA
24f9e,deep,flow.Sequence,3_0_4_0_6_0,NA,NA,skipped,NA,729843.89999998,NA,NA,729841.9,729844,2024-04-29T09:20:42Z,729858.9,NULL,Gelegenheit,wakati,s,mchanganyiko,kipaumbele,kushuku,NA,sd,NA,4,NA,NA,NA,NA,NA,NA,NA,NA,NA,NA,NA,NA,NA,NA,NA,NA,NA,NA,NA
24f9e,Shallow Question,html.Page,3_0_4_0_6_1_0,NA,NA,form submission,3496.8999999523,729844.19999999006,729841.9,729858.9,733355.79999995,733356,2024-04-29T09:20:45Z,733356.99,NULL,Gelegenheit,wakati,s,mchanganyiko,kipaumbele,kushuku,wakati,NA,NA,4,NA,NA,NA,NA,NA,NA,NA,NA,NA,NA,NA,NA,NA,NA,NA,NA,NA,NA,NA
24f9e,"""Richtig""-Screen",canvas.Screen,3_0_4_0_6_1_1,NA,NA,timeout,4996.61,733359,733356.99,733356.99,738337.2,738337.59999996,2024-04-29T09:20:50Z,738353.6,NULL,Gelegenheit,wakati,s,mchanganyiko,kipaumbele,kushuku,NA,sd,1,4,NA,NA,NA,NA,NA,NA,NA,NA,NA,NA,NA,NA,NA,NA,NA,NA,NA,NA,NA
24f9e,"""Falsch""-Screen",canvas.Screen,3_0_4_0_6_1_2,NA,NA,skipped,NA,738338.89999998,NA,NA,738337.2,738339,2024-04-29T09:20:50Z,738353.6,NULL,Gelegenheit,wakati,s,mchanganyiko,kipaumbele,kushuku,NA,sd,NA,4,NA,NA,NA,NA,NA,NA,NA,NA,NA,NA,NA,NA,NA,NA,NA,NA,NA,NA,NA
24f9e,shallow,flow.Sequence,3_0_4_0_6_1,NA,NA,completion,8478.2999999999,729844.09999996,729841.9,729858.9,738337.2,738339.09999996,2024-04-29T09:20:50Z,738353.6,NULL,Gelegenheit,wakati,s,mchanganyiko,kipaumbele,kushuku,NA,sd,NA,4,NA,NA,NA,NA,NA,NA,NA,NA,NA,NA,NA,NA,NA,NA,NA,NA,NA,NA,NA
24f9e,task,flow.Sequence,3_0_4_0_6,NA,NA,completion,8478.2999999999,729843.79999995,729841.9,729858.9,738337.2,738339.09999996,2024-04-29T09:20:50Z,738353.6,NULL,Gelegenheit,wakati,s,mchanganyiko,kipaumbele,kushuku,NA,sd,NA,4,NA,NA,NA,NA,NA,NA,NA,NA,NA,NA,NA,NA,NA,NA,NA,NA,NA,NA,NA
24f9e,deep,flow.Sequence,3_0_4_0_7_0,NA,NA,skipped,NA,738339.19999999006,NA,NA,738337.2,738339.19999999006,2024-04-29T09:20:50Z,738353.6,NULL,Können,unaweza,s,kiongozi,bustani,mienendo,NA,sd,NA,4,NA,NA,NA,NA,NA,NA,NA,NA,NA,NA,NA,NA,NA,NA,NA,NA,NA,NA,NA
24f9e,Shallow Question,html.Page,3_0_4_0_7_1_0,NA,NA,form submission,3564.0999999881,738339.29999995,738337.2,738353.6,741917.69999999006,741917.79999995,2024-04-29T09:20:54Z,741934.8,NULL,Können,unaweza,s,kiongozi,bustani,mienendo,unaweza,NA,NA,4,NA,NA,NA,NA,NA,NA,NA,NA,NA,NA,NA,NA,NA,NA,NA,NA,NA,NA,NA
24f9e,"""Richtig""-Screen",canvas.Screen,3_0_4_0_7_1_1,NA,NA,timeout,4997.1,741919.29999995,741918.362,741934.8,746915,746916,2024-04-29T09:20:59Z,746931.9,NULL,Können,unaweza,s,kiongozi,bustani,mienendo,NA,sd,1,4,NA,NA,NA,NA,NA,NA,NA,NA,NA,NA,NA,NA,NA,NA,NA,NA,NA,NA,NA
24f9e,"""Falsch""-Screen",canvas.Screen,3_0_4_0_7_1_2,NA,NA,skipped,NA,746920.89999998,NA,NA,746915,746920.89999998,2024-04-29T09:20:59Z,746931.9,NULL,Können,unaweza,s,kiongozi,bustani,mienendo,NA,sd,NA,4,NA,NA,NA,NA,NA,NA,NA,NA,NA,NA,NA,NA,NA,NA,NA,NA,NA,NA,NA
24f9e,shallow,flow.Sequence,3_0_4_0_7_1,NA,NA,completion,8561.4,738339.19999999006,738337.2,738353.6,746915,746921.09999996,2024-04-29T09:20:59Z,746931.9,NULL,Können,unaweza,s,kiongozi,bustani,mienendo,NA,sd,NA,4,NA,NA,NA,NA,NA,NA,NA,NA,NA,NA,NA,NA,NA,NA,NA,NA,NA,NA,NA
24f9e,task,flow.Sequence,3_0_4_0_7,NA,NA,completion,8561.4,738339.19999999006,738337.2,738353.6,746915,746921.09999996,2024-04-29T09:20:59Z,746931.9,NULL,Können,unaweza,s,kiongozi,bustani,mienendo,NA,sd,NA,4,NA,NA,NA,NA,NA,NA,NA,NA,NA,NA,NA,NA,NA,NA,NA,NA,NA,NA,NA
24f9e,block,flow.Loop,3_0_4_0,NA,NA,completion,78401.968,668517.89999998,668513.032,668513.032,746915,746921.19999999006,2024-04-29T09:20:59Z,746931.9,NULL,NA,NA,NA,NA,NA,NA,NA,sd,NA,4,NA,NA,NA,NA,NA,NA,NA,NA,NA,NA,NA,NA,NA,NA,NA,NA,NA,NA,NA
24f9e,weiter,canvas.Screen,3_0_4_1,sdf,keypress(Space),response,778.69999996421,746921.19999999006,746915,746931.9,747710.59999996,747711.19999999006,2024-04-29T09:21:00Z,747730.9,NULL,NA,NA,NA,NA,NA,NA,NA,sd,NA,4,NA,NA,NA,NA,NA,NA,NA,NA,NA,NA,NA,NA,NA,NA,NA,NA,NA,NA,NA
24f9e,check continue,flow.Sequence,3_0_4,NA,NA,completion,79197.567999964,668517.89999998,668513.032,668513.032,747710.59999996,747711.29999995,2024-04-29T09:21:00Z,747730.9,NULL,NA,NA,NA,NA,NA,NA,NA,sd,NA,4,NA,NA,NA,NA,NA,NA,NA,NA,NA,NA,NA,NA,NA,NA,NA,NA,NA,NA,NA
24f9e,deep,flow.Sequence,3_0_5_0_0_0,NA,NA,skipped,NA,747729.69999999006,NA,NA,747710.59999996,747729.89999998,2024-04-29T09:21:00Z,747730.9,NULL,Kreativität,ubunifu,s,mratibu,mwendelezo,makubaliano,NA,sdf,NA,5,NA,NA,NA,NA,NA,NA,NA,NA,NA,NA,NA,NA,NA,NA,NA,NA,NA,NA,NA
24f9e,Shallow Question,html.Page,3_0_5_0_0_1_0,NA,NA,form submission,3473.1,747729.89999998,747715.202,747730.9,751204,751204.19999999006,2024-04-29T09:21:03Z,751212.1,NULL,Kreativität,ubunifu,s,mratibu,mwendelezo,makubaliano,ubunifu,NA,NA,5,NA,NA,NA,NA,NA,NA,NA,NA,NA,NA,NA,NA,NA,NA,NA,NA,NA,NA,NA
24f9e,"""Richtig""-Screen",canvas.Screen,3_0_5_0_0_1_1,NA,NA,timeout,4997.4,751205,751196.058,751212.1,756192.7,756193.59999996,2024-04-29T09:21:08Z,756209.5,NULL,Kreativität,ubunifu,s,mratibu,mwendelezo,makubaliano,NA,sdf,1,5,NA,NA,NA,NA,NA,NA,NA,NA,NA,NA,NA,NA,NA,NA,NA,NA,NA,NA,NA
24f9e,"""Falsch""-Screen",canvas.Screen,3_0_5_0_0_1_2,NA,NA,skipped,NA,756198.69999999006,NA,NA,756192.7,756198.79999995,2024-04-29T09:21:08Z,756209.5,NULL,Kreativität,ubunifu,s,mratibu,mwendelezo,makubaliano,NA,sdf,NA,5,NA,NA,NA,NA,NA,NA,NA,NA,NA,NA,NA,NA,NA,NA,NA,NA,NA,NA,NA
24f9e,shallow,flow.Sequence,3_0_5_0_0_1,NA,NA,completion,8461.7999999999,747729.89999998,747715.202,747730.9,756192.7,756198.89999998,2024-04-29T09:21:08Z,756209.5,NULL,Kreativität,ubunifu,s,mratibu,mwendelezo,makubaliano,NA,sdf,NA,5,NA,NA,NA,NA,NA,NA,NA,NA,NA,NA,NA,NA,NA,NA,NA,NA,NA,NA,NA
24f9e,task,flow.Sequence,3_0_5_0_0,NA,NA,completion,8461.7999999999,747729.69999999006,747715.202,747730.9,756192.7,756198.89999998,2024-04-29T09:21:08Z,756209.5,NULL,Kreativität,ubunifu,s,mratibu,mwendelezo,makubaliano,NA,sdf,NA,5,NA,NA,NA,NA,NA,NA,NA,NA,NA,NA,NA,NA,NA,NA,NA,NA,NA,NA,NA
24f9e,Deep Question,html.Page,3_0_5_0_1_0_0,NA,NA,form submission,12832.699999988,756199,756192.7,756209.5,769042.19999999006,769042.5,2024-04-29T09:21:21Z,769051.4,NULL,Verstand,ufahamivu,d,NA,NA,NA,kuduhatisha,NA,NA,5,NA,NA,NA,NA,NA,NA,NA,NA,NA,NA,NA,NA,NA,NA,NA,NA,NA,NA,NA
24f9e,"""Richtig""-Screen",canvas.Screen,3_0_5_0_1_0_1,NA,NA,skipped,NA,769045.39999998,NA,NA,769042.19999999006,769045.5,2024-04-29T09:21:21Z,769051.4,NULL,Verstand,ufahamivu,d,NA,NA,NA,NA,sdf,NA,5,NA,NA,NA,NA,NA,NA,NA,NA,NA,NA,NA,NA,NA,NA,NA,NA,NA,NA,NA
24f9e,"""Falsch""-Screen",canvas.Screen,3_0_5_0_1_0_2,NA,NA,timeout,4997.4,769046.19999999006,769036.452,769051.4,774031.5,774031.79999995,2024-04-29T09:21:26Z,774048.8,NULL,Verstand,ufahamivu,d,NA,NA,NA,NA,sdf,0,5,NA,NA,NA,NA,NA,NA,NA,NA,NA,NA,NA,NA,NA,NA,NA,NA,NA,NA,NA
24f9e,deep,flow.Sequence,3_0_5_0_1_0,NA,NA,completion,17822,756199,756192.7,756209.5,774031.5,774032,2024-04-29T09:21:26Z,774048.8,NULL,Verstand,ufahamivu,d,NA,NA,NA,NA,sdf,NA,5,NA,NA,NA,NA,NA,NA,NA,NA,NA,NA,NA,NA,NA,NA,NA,NA,NA,NA,NA
24f9e,shallow,flow.Sequence,3_0_5_0_1_1,NA,NA,skipped,NA,774032,NA,NA,774031.5,774032,2024-04-29T09:21:26Z,774048.8,NULL,Verstand,ufahamivu,d,NA,NA,NA,NA,sdf,NA,5,NA,NA,NA,NA,NA,NA,NA,NA,NA,NA,NA,NA,NA,NA,NA,NA,NA,NA,NA
24f9e,task,flow.Sequence,3_0_5_0_1,NA,NA,completion,17822,756199,756192.7,756209.5,774031.5,774032.09999996,2024-04-29T09:21:26Z,774048.8,NULL,Verstand,ufahamivu,d,NA,NA,NA,NA,sdf,NA,5,NA,NA,NA,NA,NA,NA,NA,NA,NA,NA,NA,NA,NA,NA,NA,NA,NA,NA,NA
24f9e,deep,flow.Sequence,3_0_5_0_2_0,NA,NA,skipped,NA,774032.09999996,NA,NA,774031.5,774032.19999999006,2024-04-29T09:21:26Z,774048.8,NULL,Ausschluss,kutengwa,s,ununuzi,taratibu,madeni,NA,sdf,NA,5,NA,NA,NA,NA,NA,NA,NA,NA,NA,NA,NA,NA,NA,NA,NA,NA,NA,NA,NA
24f9e,Shallow Question,html.Page,3_0_5_0_2_1_0,NA,NA,form submission,9644.9999999523,774032.19999999006,774031.5,774048.8,783693.79999995,783694,2024-04-29T09:21:36Z,783709.4,NULL,Ausschluss,kutengwa,s,ununuzi,taratibu,madeni,kutengwa,NA,NA,5,NA,NA,NA,NA,NA,NA,NA,NA,NA,NA,NA,NA,NA,NA,NA,NA,NA,NA,NA
24f9e,"""Richtig""-Screen",canvas.Screen,3_0_5_0_2_1_1,NA,NA,timeout,4997,783696.89999998,783692.92,783709.4,788689.6,788690.79999995,2024-04-29T09:21:41Z,788706.4,NULL,Ausschluss,kutengwa,s,ununuzi,taratibu,madeni,NA,sdf,1,5,NA,NA,NA,NA,NA,NA,NA,NA,NA,NA,NA,NA,NA,NA,NA,NA,NA,NA,NA
24f9e,"""Falsch""-Screen",canvas.Screen,3_0_5_0_2_1_2,NA,NA,skipped,NA,788695.5,NA,NA,788689.6,788695.69999999006,2024-04-29T09:21:41Z,788706.4,NULL,Ausschluss,kutengwa,s,ununuzi,taratibu,madeni,NA,sdf,NA,5,NA,NA,NA,NA,NA,NA,NA,NA,NA,NA,NA,NA,NA,NA,NA,NA,NA,NA,NA
24f9e,shallow,flow.Sequence,3_0_5_0_2_1,NA,NA,completion,14640.8,774032.19999999006,774031.5,774048.8,788689.6,788695.89999998,2024-04-29T09:21:41Z,788706.4,NULL,Ausschluss,kutengwa,s,ununuzi,taratibu,madeni,NA,sdf,NA,5,NA,NA,NA,NA,NA,NA,NA,NA,NA,NA,NA,NA,NA,NA,NA,NA,NA,NA,NA
24f9e,task,flow.Sequence,3_0_5_0_2,NA,NA,completion,14640.8,774032.09999996,774031.5,774048.8,788689.6,788695.89999998,2024-04-29T09:21:41Z,788706.4,NULL,Ausschluss,kutengwa,s,ununuzi,taratibu,madeni,NA,sdf,NA,5,NA,NA,NA,NA,NA,NA,NA,NA,NA,NA,NA,NA,NA,NA,NA,NA,NA,NA,NA
24f9e,Deep Question,html.Page,3_0_5_0_3_0_0,NA,NA,form submission,11590.799999988,788695.89999998,788689.6,788706.4,800297.19999999006,800297.5,2024-04-29T09:21:52Z,800299.032,NULL,Kontrolle,kudhibiti,d,NA,NA,NA,umahiva,NA,NA,5,NA,NA,NA,NA,NA,NA,NA,NA,NA,NA,NA,NA,NA,NA,NA,NA,NA,NA,NA
24f9e,"""Richtig""-Screen",canvas.Screen,3_0_5_0_3_0_1,NA,NA,skipped,NA,800300.29999995,NA,NA,800297.19999999006,800300.5,2024-04-29T09:21:52Z,800299.032,NULL,Kontrolle,kudhibiti,d,NA,NA,NA,NA,sdf,NA,5,NA,NA,NA,NA,NA,NA,NA,NA,NA,NA,NA,NA,NA,NA,NA,NA,NA,NA,NA
24f9e,"""Falsch""-Screen",canvas.Screen,3_0_5_0_3_0_2,NA,NA,timeout,4997.068,800301.29999995,800299.032,800299.032,805279.5,805280.5,2024-04-29T09:21:57Z,805296.1,NULL,Kontrolle,kudhibiti,d,NA,NA,NA,NA,sdf,0,5,NA,NA,NA,NA,NA,NA,NA,NA,NA,NA,NA,NA,NA,NA,NA,NA,NA,NA,NA
24f9e,deep,flow.Sequence,3_0_5_0_3_0,NA,NA,completion,16573.1,788695.89999998,788689.6,788706.4,805279.5,805280.89999998,2024-04-29T09:21:57Z,805296.1,NULL,Kontrolle,kudhibiti,d,NA,NA,NA,NA,sdf,NA,5,NA,NA,NA,NA,NA,NA,NA,NA,NA,NA,NA,NA,NA,NA,NA,NA,NA,NA,NA
24f9e,shallow,flow.Sequence,3_0_5_0_3_1,NA,NA,skipped,NA,805281,NA,NA,805279.5,805281.19999999006,2024-04-29T09:21:57Z,805296.1,NULL,Kontrolle,kudhibiti,d,NA,NA,NA,NA,sdf,NA,5,NA,NA,NA,NA,NA,NA,NA,NA,NA,NA,NA,NA,NA,NA,NA,NA,NA,NA,NA
24f9e,task,flow.Sequence,3_0_5_0_3,NA,NA,completion,16573.1,788695.89999998,788689.6,788706.4,805279.5,805281.39999998,2024-04-29T09:21:57Z,805296.1,NULL,Kontrolle,kudhibiti,d,NA,NA,NA,NA,sdf,NA,5,NA,NA,NA,NA,NA,NA,NA,NA,NA,NA,NA,NA,NA,NA,NA,NA,NA,NA,NA
24f9e,deep,flow.Sequence,3_0_5_0_4_0,NA,NA,skipped,NA,805281.5,NA,NA,805279.5,805281.69999999006,2024-04-29T09:21:57Z,805296.1,NULL,Gelegenheit,wakati,s,mchanganyiko,kipaumbele,kushuku,NA,sdf,NA,5,NA,NA,NA,NA,NA,NA,NA,NA,NA,NA,NA,NA,NA,NA,NA,NA,NA,NA,NA
24f9e,Shallow Question,html.Page,3_0_5_0_4_1_0,NA,NA,form submission,4295.9999999643,805281.69999999006,805279.5,805296.1,809592.09999996,809592.29999995,2024-04-29T09:22:01Z,809593.628,NULL,Gelegenheit,wakati,s,mchanganyiko,kipaumbele,kushuku,wakati,NA,NA,5,NA,NA,NA,NA,NA,NA,NA,NA,NA,NA,NA,NA,NA,NA,NA,NA,NA,NA,NA
24f9e,"""Richtig""-Screen",canvas.Screen,3_0_5_0_4_1_1,NA,NA,timeout,4996.772,809595.5,809593.628,809593.628,814573.6,814574.59999996,2024-04-29T09:22:06Z,814590.4,NULL,Gelegenheit,wakati,s,mchanganyiko,kipaumbele,kushuku,NA,sdf,1,5,NA,NA,NA,NA,NA,NA,NA,NA,NA,NA,NA,NA,NA,NA,NA,NA,NA,NA,NA
24f9e,"""Falsch""-Screen",canvas.Screen,3_0_5_0_4_1_2,NA,NA,skipped,NA,814579.59999996,NA,NA,814573.6,814579.59999996,2024-04-29T09:22:06Z,814590.4,NULL,Gelegenheit,wakati,s,mchanganyiko,kipaumbele,kushuku,NA,sdf,NA,5,NA,NA,NA,NA,NA,NA,NA,NA,NA,NA,NA,NA,NA,NA,NA,NA,NA,NA,NA
24f9e,shallow,flow.Sequence,3_0_5_0_4_1,NA,NA,completion,9277.5,805281.69999999006,805279.5,805296.1,814573.6,814579.69999999006,2024-04-29T09:22:06Z,814590.4,NULL,Gelegenheit,wakati,s,mchanganyiko,kipaumbele,kushuku,NA,sdf,NA,5,NA,NA,NA,NA,NA,NA,NA,NA,NA,NA,NA,NA,NA,NA,NA,NA,NA,NA,NA
24f9e,task,flow.Sequence,3_0_5_0_4,NA,NA,completion,9277.5,805281.5,805279.5,805296.1,814573.6,814579.89999998,2024-04-29T09:22:06Z,814590.4,NULL,Gelegenheit,wakati,s,mchanganyiko,kipaumbele,kushuku,NA,sdf,NA,5,NA,NA,NA,NA,NA,NA,NA,NA,NA,NA,NA,NA,NA,NA,NA,NA,NA,NA,NA
24f9e,deep,flow.Sequence,3_0_5_0_5_0,NA,NA,skipped,NA,814579.89999998,NA,NA,814573.6,814579.89999998,2024-04-29T09:22:06Z,814590.4,NULL,Können,unaweza,s,kiongozi,bustani,mienendo,NA,sdf,NA,5,NA,NA,NA,NA,NA,NA,NA,NA,NA,NA,NA,NA,NA,NA,NA,NA,NA,NA,NA
24f9e,Shallow Question,html.Page,3_0_5_0_5_1_0,NA,NA,form submission,4377.2999999881,814579.89999998,814573.6,814590.4,818967.69999999006,818967.79999995,2024-04-29T09:22:11Z,818970.8,NULL,Können,unaweza,s,kiongozi,bustani,mienendo,unaweza,NA,NA,5,NA,NA,NA,NA,NA,NA,NA,NA,NA,NA,NA,NA,NA,NA,NA,NA,NA,NA,NA
24f9e,"""Richtig""-Screen",canvas.Screen,3_0_5_0_5_1_1,NA,NA,timeout,4997.5,818969.09999996,818954.63,818970.8,823951.2,823952.19999999006,2024-04-29T09:22:16Z,823968.3,NULL,Können,unaweza,s,kiongozi,bustani,mienendo,NA,sdf,1,5,NA,NA,NA,NA,NA,NA,NA,NA,NA,NA,NA,NA,NA,NA,NA,NA,NA,NA,NA
24f9e,"""Falsch""-Screen",canvas.Screen,3_0_5_0_5_1_2,NA,NA,skipped,NA,823956.89999998,NA,NA,823951.2,823957,2024-04-29T09:22:16Z,823968.3,NULL,Können,unaweza,s,kiongozi,bustani,mienendo,NA,sdf,NA,5,NA,NA,NA,NA,NA,NA,NA,NA,NA,NA,NA,NA,NA,NA,NA,NA,NA,NA,NA
24f9e,shallow,flow.Sequence,3_0_5_0_5_1,NA,NA,completion,9360.7999999999,814579.89999998,814573.6,814590.4,823951.2,823957.09999996,2024-04-29T09:22:16Z,823968.3,NULL,Können,unaweza,s,kiongozi,bustani,mienendo,NA,sdf,NA,5,NA,NA,NA,NA,NA,NA,NA,NA,NA,NA,NA,NA,NA,NA,NA,NA,NA,NA,NA
24f9e,task,flow.Sequence,3_0_5_0_5,NA,NA,completion,9360.7999999999,814579.89999998,814573.6,814590.4,823951.2,823957.19999999006,2024-04-29T09:22:16Z,823968.3,NULL,Können,unaweza,s,kiongozi,bustani,mienendo,NA,sdf,NA,5,NA,NA,NA,NA,NA,NA,NA,NA,NA,NA,NA,NA,NA,NA,NA,NA,NA,NA,NA
24f9e,Deep Question,html.Page,3_0_5_0_6_0_0,NA,NA,form submission,5740.5999999761,823957.29999995,823951.2,823968.3,829708.89999998,829709.19999999006,2024-04-29T09:22:22Z,829714.2,NULL,Widerstand,usulubu,d,NA,NA,NA,usulubu,NA,NA,5,NA,NA,NA,NA,NA,NA,NA,NA,NA,NA,NA,NA,NA,NA,NA,NA,NA,NA,NA
24f9e,"""Richtig""-Screen",canvas.Screen,3_0_5_0_6_0_1,NA,NA,timeout,4997.3,829711.89999998,829698.442,829714.2,834694.9,834695.79999995,2024-04-29T09:22:27Z,834711.5,NULL,Widerstand,usulubu,d,NA,NA,NA,NA,sdf,1,5,NA,NA,NA,NA,NA,NA,NA,NA,NA,NA,NA,NA,NA,NA,NA,NA,NA,NA,NA
24f9e,"""Falsch""-Screen",canvas.Screen,3_0_5_0_6_0_2,NA,NA,skipped,NA,834700.79999995,NA,NA,834694.9,834701,2024-04-29T09:22:27Z,834711.5,NULL,Widerstand,usulubu,d,NA,NA,NA,NA,sdf,NA,5,NA,NA,NA,NA,NA,NA,NA,NA,NA,NA,NA,NA,NA,NA,NA,NA,NA,NA,NA
24f9e,deep,flow.Sequence,3_0_5_0_6_0,NA,NA,completion,10726.6,823957.29999995,823951.2,823968.3,834694.9,834701.09999996,2024-04-29T09:22:27Z,834711.5,NULL,Widerstand,usulubu,d,NA,NA,NA,NA,sdf,NA,5,NA,NA,NA,NA,NA,NA,NA,NA,NA,NA,NA,NA,NA,NA,NA,NA,NA,NA,NA
24f9e,shallow,flow.Sequence,3_0_5_0_6_1,NA,NA,skipped,NA,834701.09999996,NA,NA,834694.9,834701.09999996,2024-04-29T09:22:27Z,834711.5,NULL,Widerstand,usulubu,d,NA,NA,NA,NA,sdf,NA,5,NA,NA,NA,NA,NA,NA,NA,NA,NA,NA,NA,NA,NA,NA,NA,NA,NA,NA,NA
24f9e,task,flow.Sequence,3_0_5_0_6,NA,NA,completion,10726.6,823957.29999995,823951.2,823968.3,834694.9,834701.09999996,2024-04-29T09:22:27Z,834711.5,NULL,Widerstand,usulubu,d,NA,NA,NA,NA,sdf,NA,5,NA,NA,NA,NA,NA,NA,NA,NA,NA,NA,NA,NA,NA,NA,NA,NA,NA,NA,NA
24f9e,Deep Question,html.Page,3_0_5_0_7_0_0,NA,NA,form submission,6081,834701.09999996,834694.9,834711.5,840792.5,840792.69999999006,2024-04-29T09:22:33Z,840807.4,NULL,Gefährdung,kuhatarisha,d,NA,NA,NA,a,NA,NA,5,NA,NA,NA,NA,NA,NA,NA,NA,NA,NA,NA,NA,NA,NA,NA,NA,NA,NA,NA
24f9e,"""Richtig""-Screen",canvas.Screen,3_0_5_0_7_0_1,NA,NA,skipped,NA,840795.5,NA,NA,840792.5,840795.69999999006,2024-04-29T09:22:33Z,840807.4,NULL,Gefährdung,kuhatarisha,d,NA,NA,NA,NA,sdf,NA,5,NA,NA,NA,NA,NA,NA,NA,NA,NA,NA,NA,NA,NA,NA,NA,NA,NA,NA,NA
24f9e,"""Falsch""-Screen",canvas.Screen,3_0_5_0_7_0_2,NA,NA,timeout,4997,840796.39999998,840791.39,840807.4,845787.8,845788.19999999006,2024-04-29T09:22:38Z,845804.4,NULL,Gefährdung,kuhatarisha,d,NA,NA,NA,NA,sdf,0,5,NA,NA,NA,NA,NA,NA,NA,NA,NA,NA,NA,NA,NA,NA,NA,NA,NA,NA,NA
24f9e,deep,flow.Sequence,3_0_5_0_7_0,NA,NA,completion,11076.3,834701.09999996,834694.9,834711.5,845787.8,845788.29999995,2024-04-29T09:22:38Z,845804.4,NULL,Gefährdung,kuhatarisha,d,NA,NA,NA,NA,sdf,NA,5,NA,NA,NA,NA,NA,NA,NA,NA,NA,NA,NA,NA,NA,NA,NA,NA,NA,NA,NA
24f9e,shallow,flow.Sequence,3_0_5_0_7_1,NA,NA,skipped,NA,845788.29999995,NA,NA,845787.8,845788.39999998,2024-04-29T09:22:38Z,845804.4,NULL,Gefährdung,kuhatarisha,d,NA,NA,NA,NA,sdf,NA,5,NA,NA,NA,NA,NA,NA,NA,NA,NA,NA,NA,NA,NA,NA,NA,NA,NA,NA,NA
24f9e,task,flow.Sequence,3_0_5_0_7,NA,NA,completion,11076.3,834701.09999996,834694.9,834711.5,845787.8,845788.5,2024-04-29T09:22:38Z,845804.4,NULL,Gefährdung,kuhatarisha,d,NA,NA,NA,NA,sdf,NA,5,NA,NA,NA,NA,NA,NA,NA,NA,NA,NA,NA,NA,NA,NA,NA,NA,NA,NA,NA
24f9e,block,flow.Loop,3_0_5_0,NA,NA,completion,98056.9,747729.69999999006,747715.202,747730.9,845787.8,845788.5,2024-04-29T09:22:38Z,845804.4,NULL,NA,NA,NA,NA,NA,NA,NA,sdf,NA,5,NA,NA,NA,NA,NA,NA,NA,NA,NA,NA,NA,NA,NA,NA,NA,NA,NA,NA,NA
24f9e,weiter,canvas.Screen,3_0_5_1,sdf,keypress(Space),response,1685.4999999761,845788.5,845787.8,845804.4,847489.89999998,847491,2024-04-29T09:22:39Z,847503.558,NULL,NA,NA,NA,NA,NA,NA,NA,sdf,NA,5,NA,NA,NA,NA,NA,NA,NA,NA,NA,NA,NA,NA,NA,NA,NA,NA,NA,NA,NA
24f9e,check continue,flow.Sequence,3_0_5,NA,NA,completion,99758.999999976,747729.69999999006,747715.202,747730.9,847489.89999998,847491.59999996,2024-04-29T09:22:39Z,847503.558,NULL,NA,NA,NA,NA,NA,NA,NA,sdf,NA,5,NA,NA,NA,NA,NA,NA,NA,NA,NA,NA,NA,NA,NA,NA,NA,NA,NA,NA,NA
24f9e,deep,flow.Sequence,3_0_6_0_0_0,NA,NA,skipped,NA,847510,NA,NA,847489.89999998,847510,2024-04-29T09:22:39Z,847503.558,NULL,Kreativität,ubunifu,s,mratibu,mwendelezo,makubaliano,NA,dfs,NA,6,NA,NA,NA,NA,NA,NA,NA,NA,NA,NA,NA,NA,NA,NA,NA,NA,NA,NA,NA
24f9e,Shallow Question,html.Page,3_0_6_0_0_1_0,NA,NA,form submission,22069.141999988,847510.19999999006,847503.558,847503.558,869572.69999999006,869572.89999998,2024-04-29T09:23:01Z,869590.1,NULL,Kreativität,ubunifu,s,mratibu,mwendelezo,makubaliano,ubunifu,NA,NA,6,NA,NA,NA,NA,NA,NA,NA,NA,NA,NA,NA,NA,NA,NA,NA,NA,NA,NA,NA
24f9e,"""Richtig""-Screen",canvas.Screen,3_0_6_0_0_1_1,NA,NA,timeout,4996.8,869576.19999999006,869573.566,869590.1,874570.4,874571.39999998,2024-04-29T09:23:06Z,874586.9,NULL,Kreativität,ubunifu,s,mratibu,mwendelezo,makubaliano,NA,dfs,1,6,NA,NA,NA,NA,NA,NA,NA,NA,NA,NA,NA,NA,NA,NA,NA,NA,NA,NA,NA
24f9e,"""Falsch""-Screen",canvas.Screen,3_0_6_0_0_1_2,NA,NA,skipped,NA,874576.69999999006,NA,NA,874570.4,874577.09999996,2024-04-29T09:23:06Z,874586.9,NULL,Kreativität,ubunifu,s,mratibu,mwendelezo,makubaliano,NA,dfs,NA,6,NA,NA,NA,NA,NA,NA,NA,NA,NA,NA,NA,NA,NA,NA,NA,NA,NA,NA,NA
24f9e,shallow,flow.Sequence,3_0_6_0_0_1,NA,NA,completion,27066.842,847510.09999996,847503.558,847503.558,874570.4,874577.39999998,2024-04-29T09:23:06Z,874586.9,NULL,Kreativität,ubunifu,s,mratibu,mwendelezo,makubaliano,NA,dfs,NA,6,NA,NA,NA,NA,NA,NA,NA,NA,NA,NA,NA,NA,NA,NA,NA,NA,NA,NA,NA
24f9e,task,flow.Sequence,3_0_6_0_0,NA,NA,completion,27066.842,847510,847503.558,847503.558,874570.4,874577.5,2024-04-29T09:23:06Z,874586.9,NULL,Kreativität,ubunifu,s,mratibu,mwendelezo,makubaliano,NA,dfs,NA,6,NA,NA,NA,NA,NA,NA,NA,NA,NA,NA,NA,NA,NA,NA,NA,NA,NA,NA,NA
24f9e,Deep Question,html.Page,3_0_6_0_1_0_0,NA,NA,form submission,30395.199999964,874577.79999995,874570.4,874586.9,904982.09999996,904982.29999995,2024-04-29T09:23:37Z,904985.748,NULL,Verstand,ufahamivu,d,NA,NA,NA,l,NA,NA,6,NA,NA,NA,NA,NA,NA,NA,NA,NA,NA,NA,NA,NA,NA,NA,NA,NA,NA,NA
24f9e,"""Richtig""-Screen",canvas.Screen,3_0_6_0_1_0_1,NA,NA,skipped,NA,904985.69999999006,NA,NA,904982.09999996,904985.79999995,2024-04-29T09:23:37Z,904985.748,NULL,Verstand,ufahamivu,d,NA,NA,NA,NA,dfs,NA,6,NA,NA,NA,NA,NA,NA,NA,NA,NA,NA,NA,NA,NA,NA,NA,NA,NA,NA,NA
24f9e,"""Falsch""-Screen",canvas.Screen,3_0_6_0_1_0_2,NA,NA,timeout,4996.852,904986.59999996,904985.748,904985.748,909965.3,909965.59999996,2024-04-29T09:23:42Z,909982.6,NULL,Verstand,ufahamivu,d,NA,NA,NA,NA,dfs,0,6,NA,NA,NA,NA,NA,NA,NA,NA,NA,NA,NA,NA,NA,NA,NA,NA,NA,NA,NA
24f9e,deep,flow.Sequence,3_0_6_0_1_0,NA,NA,completion,35378.4,874577.69999999006,874570.4,874586.9,909965.3,909965.79999995,2024-04-29T09:23:42Z,909982.6,NULL,Verstand,ufahamivu,d,NA,NA,NA,NA,dfs,NA,6,NA,NA,NA,NA,NA,NA,NA,NA,NA,NA,NA,NA,NA,NA,NA,NA,NA,NA,NA
24f9e,shallow,flow.Sequence,3_0_6_0_1_1,NA,NA,skipped,NA,909965.79999995,NA,NA,909965.3,909965.79999995,2024-04-29T09:23:42Z,909982.6,NULL,Verstand,ufahamivu,d,NA,NA,NA,NA,dfs,NA,6,NA,NA,NA,NA,NA,NA,NA,NA,NA,NA,NA,NA,NA,NA,NA,NA,NA,NA,NA
24f9e,task,flow.Sequence,3_0_6_0_1,NA,NA,completion,35378.4,874577.69999999006,874570.4,874586.9,909965.3,909965.89999998,2024-04-29T09:23:42Z,909982.6,NULL,Verstand,ufahamivu,d,NA,NA,NA,NA,dfs,NA,6,NA,NA,NA,NA,NA,NA,NA,NA,NA,NA,NA,NA,NA,NA,NA,NA,NA,NA,NA
24f9e,Deep Question,html.Page,3_0_6_0_2_0_0,NA,NA,form submission,50836.099999988,909966,909965.3,909982.6,960818.69999999006,960818.89999998,2024-04-29T09:24:33Z,960834.4,NULL,Kontrolle,kudhibiti,d,NA,NA,NA,s,NA,NA,6,NA,NA,NA,NA,NA,NA,NA,NA,NA,NA,NA,NA,NA,NA,NA,NA,NA,NA,NA
24f9e,"""Richtig""-Screen",canvas.Screen,3_0_6_0_2_0_1,NA,NA,skipped,NA,960821.79999995,NA,NA,960818.69999999006,960822,2024-04-29T09:24:33Z,960834.4,NULL,Kontrolle,kudhibiti,d,NA,NA,NA,NA,dfs,NA,6,NA,NA,NA,NA,NA,NA,NA,NA,NA,NA,NA,NA,NA,NA,NA,NA,NA,NA,NA
24f9e,"""Falsch""-Screen",canvas.Screen,3_0_6_0_2_0_2,NA,NA,timeout,4997.2,960822.59999996,960818.088,960834.4,965815,965815.5,2024-04-29T09:24:38Z,965831.6,NULL,Kontrolle,kudhibiti,d,NA,NA,NA,NA,dfs,0,6,NA,NA,NA,NA,NA,NA,NA,NA,NA,NA,NA,NA,NA,NA,NA,NA,NA,NA,NA
24f9e,deep,flow.Sequence,3_0_6_0_2_0,NA,NA,completion,55832.4,909965.89999998,909965.3,909982.6,965815,965815.59999996,2024-04-29T09:24:38Z,965831.6,NULL,Kontrolle,kudhibiti,d,NA,NA,NA,NA,dfs,NA,6,NA,NA,NA,NA,NA,NA,NA,NA,NA,NA,NA,NA,NA,NA,NA,NA,NA,NA,NA
24f9e,shallow,flow.Sequence,3_0_6_0_2_1,NA,NA,skipped,NA,965815.69999999006,NA,NA,965815,965815.69999999006,2024-04-29T09:24:38Z,965831.6,NULL,Kontrolle,kudhibiti,d,NA,NA,NA,NA,dfs,NA,6,NA,NA,NA,NA,NA,NA,NA,NA,NA,NA,NA,NA,NA,NA,NA,NA,NA,NA,NA
24f9e,task,flow.Sequence,3_0_6_0_2,NA,NA,completion,55832.4,909965.89999998,909965.3,909982.6,965815,965815.79999995,2024-04-29T09:24:38Z,965831.6,NULL,Kontrolle,kudhibiti,d,NA,NA,NA,NA,dfs,NA,6,NA,NA,NA,NA,NA,NA,NA,NA,NA,NA,NA,NA,NA,NA,NA,NA,NA,NA,NA
24f9e,deep,flow.Sequence,3_0_6_0_3_0,NA,NA,skipped,NA,965815.79999995,NA,NA,965815,965815.89999998,2024-04-29T09:24:38Z,965831.6,NULL,Ausschluss,kutengwa,s,ununuzi,taratibu,madeni,NA,dfs,NA,6,NA,NA,NA,NA,NA,NA,NA,NA,NA,NA,NA,NA,NA,NA,NA,NA,NA,NA,NA
