observation,sender,sender_type,sender_id,response,response_action,ended_on,duration,time_run,time_render,time_show,time_end,time_commit,timestamp,time_switch,distractors,german,swahili,enc,distractor1,distractor2,distractor3,response_2,x,correct,x_2,url_vp,url_sess,meta_labjs_version,meta_location,meta_user_agent,meta_platform,meta_language,meta_locale,meta_time_zone,meta_timezone_offset,meta_screen_width,meta_screen_height,meta_scroll_width,meta_scroll_height,meta_window_inner_width,meta_window_inner_height,meta_device_pixel_ratio,meta_labjs_build_flavor,meta_labjs_build_commit
d5c4a,Introduction general,canvas.Screen,0,weiter,keypress(q),response,131070,1059,1065.7,1082.3,132152.3,132154.2,2024-03-25T14:39:14Z,132169.1,NULL,NA,NA,NA,NA,NA,NA,NA,NA,NA,NA,144,1,20.2.4,https://neurocog.fernuni.ch/studies/vweber/aberisha/encoding_immediate/index.html?vp=144&sess=1,"Mozilla/5.0 (Windows NT 10.0; Win64; x64) AppleWebKit/537.36 (KHTML, like Gecko) Chrome/123.0.0.0 Safari/537.36",Win32,de-DE,de,Europe/Zurich,-60,1739,979,1740,763,1740,811,1.1041666269302,production,f5b4a49f956347addd546a832a3327688c2c0fef
d5c4a,Introduction practice,canvas.Screen,1_0,NA,keypress(Space),response,8560.8000000004,132154.4,132153.238,132169.1,140729.9,140730.5,2024-03-25T14:39:23Z,140764,NULL,NA,NA,NA,NA,NA,NA,NA,NA,NA,NA,NA,NA,NA,NA,NA,NA,NA,NA,NA,NA,NA,NA,NA,NA,NA,NA,NA,NA,NA
d5c4a,Deep Question,html.Page,1_1_0_0_0,NA,NA,form submission,10161.6,140730.6,140718.758,140764,150925.6,150925.9,2024-03-25T14:39:33Z,150940.8,"c(""distractor1"", ""distractor2"", ""distractor3"")",Qualität,mtindo,d,NA,NA,NA,baba,NA,NA,NA,NA,NA,NA,NA,NA,NA,NA,NA,NA,NA,NA,NA,NA,NA,NA,NA,NA,NA,NA
d5c4a,"""Richtig""-Screen",canvas.Screen,1_1_0_0_1,NA,NA,skipped,NA,150927,NA,NA,150925.6,150927.2,2024-03-25T14:39:33Z,150940.8,"c(""distractor1"", ""distractor2"", ""distractor3"")",Qualität,mtindo,d,NA,NA,NA,NA,NA,NA,NA,NA,NA,NA,NA,NA,NA,NA,NA,NA,NA,NA,NA,NA,NA,NA,NA,NA,NA,NA
d5c4a,"""Falsch""-Screen",canvas.Screen,1_1_0_0_2,NA,NA,timeout,4997.5,150927.9,150926.202,150940.8,155921.6,155926.1,2024-03-25T14:39:38Z,155938.3,"c(""distractor1"", ""distractor2"", ""distractor3"")",Qualität,mtindo,d,NA,NA,NA,NA,NA,0,NA,NA,NA,NA,NA,NA,NA,NA,NA,NA,NA,NA,NA,NA,NA,NA,NA,NA,NA,NA
d5c4a,deep,flow.Sequence,1_1_0_0,NA,NA,completion,15157.6,140730.6,140718.758,140764,155921.6,155926.6,2024-03-25T14:39:38Z,155938.3,"c(""distractor1"", ""distractor2"", ""distractor3"")",Qualität,mtindo,d,NA,NA,NA,NA,NA,NA,NA,NA,NA,NA,NA,NA,NA,NA,NA,NA,NA,NA,NA,NA,NA,NA,NA,NA,NA,NA
d5c4a,shallow,flow.Sequence,1_1_0_1,NA,NA,skipped,NA,155926.9,NA,NA,155921.6,155927,2024-03-25T14:39:38Z,155938.3,"c(""distractor1"", ""distractor2"", ""distractor3"")",Qualität,mtindo,d,NA,NA,NA,NA,NA,NA,NA,NA,NA,NA,NA,NA,NA,NA,NA,NA,NA,NA,NA,NA,NA,NA,NA,NA,NA,NA
d5c4a,task,flow.Sequence,1_1_0,NA,NA,completion,15157.6,140730.6,140718.758,140764,155921.6,155927.3,2024-03-25T14:39:38Z,155938.3,"c(""distractor1"", ""distractor2"", ""distractor3"")",Qualität,mtindo,d,NA,NA,NA,NA,NA,NA,NA,NA,NA,NA,NA,NA,NA,NA,NA,NA,NA,NA,NA,NA,NA,NA,NA,NA,NA,NA
d5c4a,Deep Question,html.Page,1_1_1_0_0,NA,NA,form submission,8375.8000000001,155927.6,155921.6,155938.3,164314.1,164314.4,2024-03-25T14:39:46Z,164316.1,"c(""distractor1"", ""distractor2"", ""distractor3"")",Gesundheit,salama,d,NA,NA,NA,vola,NA,NA,NA,NA,NA,NA,NA,NA,NA,NA,NA,NA,NA,NA,NA,NA,NA,NA,NA,NA,NA,NA
d5c4a,"""Richtig""-Screen",canvas.Screen,1_1_1_0_1,NA,NA,skipped,NA,164317.6,NA,NA,164314.1,164317.9,2024-03-25T14:39:46Z,164316.1,"c(""distractor1"", ""distractor2"", ""distractor3"")",Gesundheit,salama,d,NA,NA,NA,NA,NA,NA,NA,NA,NA,NA,NA,NA,NA,NA,NA,NA,NA,NA,NA,NA,NA,NA,NA,NA,NA,NA
d5c4a,"""Falsch""-Screen",canvas.Screen,1_1_1_0_2,NA,NA,timeout,4997.2,164318.6,164303.362,164316.1,169296.5,169299.3,2024-03-25T14:39:51Z,169313.3,"c(""distractor1"", ""distractor2"", ""distractor3"")",Gesundheit,salama,d,NA,NA,NA,NA,NA,0,NA,NA,NA,NA,NA,NA,NA,NA,NA,NA,NA,NA,NA,NA,NA,NA,NA,NA,NA,NA
d5c4a,deep,flow.Sequence,1_1_1_0,NA,NA,completion,13358.2,155927.6,155921.6,155938.3,169296.5,169299.8,2024-03-25T14:39:51Z,169313.3,"c(""distractor1"", ""distractor2"", ""distractor3"")",Gesundheit,salama,d,NA,NA,NA,NA,NA,NA,NA,NA,NA,NA,NA,NA,NA,NA,NA,NA,NA,NA,NA,NA,NA,NA,NA,NA,NA,NA
d5c4a,shallow,flow.Sequence,1_1_1_1,NA,NA,skipped,NA,169300,NA,NA,169296.5,169300.2,2024-03-25T14:39:51Z,169313.3,"c(""distractor1"", ""distractor2"", ""distractor3"")",Gesundheit,salama,d,NA,NA,NA,NA,NA,NA,NA,NA,NA,NA,NA,NA,NA,NA,NA,NA,NA,NA,NA,NA,NA,NA,NA,NA,NA,NA
d5c4a,task,flow.Sequence,1_1_1,NA,NA,completion,13358.2,155927.5,155921.6,155938.3,169296.5,169300.4,2024-03-25T14:39:51Z,169313.3,"c(""distractor1"", ""distractor2"", ""distractor3"")",Gesundheit,salama,d,NA,NA,NA,NA,NA,NA,NA,NA,NA,NA,NA,NA,NA,NA,NA,NA,NA,NA,NA,NA,NA,NA,NA,NA,NA,NA
d5c4a,Deep Question,html.Page,1_1_2_0_0,NA,NA,form submission,7372.7,169300.7,169296.5,169313.3,176686,176686.2,2024-03-25T14:39:58Z,176691.9,"c(""distractor1"", ""distractor2"", ""distractor3"")",Schatten,kivuli,d,NA,NA,NA,fister,NA,NA,NA,NA,NA,NA,NA,NA,NA,NA,NA,NA,NA,NA,NA,NA,NA,NA,NA,NA,NA,NA
d5c4a,"""Richtig""-Screen",canvas.Screen,1_1_2_0_1,NA,NA,skipped,NA,176687.8,NA,NA,176686,176687.9,2024-03-25T14:39:58Z,176691.9,"c(""distractor1"", ""distractor2"", ""distractor3"")",Schatten,kivuli,d,NA,NA,NA,NA,NA,NA,NA,NA,NA,NA,NA,NA,NA,NA,NA,NA,NA,NA,NA,NA,NA,NA,NA,NA,NA,NA
d5c4a,"""Falsch""-Screen",canvas.Screen,1_1_2_0_2,NA,NA,timeout,4997.2,176688.5,176676.344,176691.9,181672.2,181673.4,2024-03-25T14:40:03Z,181689.1,"c(""distractor1"", ""distractor2"", ""distractor3"")",Schatten,kivuli,d,NA,NA,NA,NA,NA,0,NA,NA,NA,NA,NA,NA,NA,NA,NA,NA,NA,NA,NA,NA,NA,NA,NA,NA,NA,NA
d5c4a,deep,flow.Sequence,1_1_2_0,NA,NA,completion,12358.9,169300.6,169296.5,169313.3,181672.2,181673.8,2024-03-25T14:40:03Z,181689.1,"c(""distractor1"", ""distractor2"", ""distractor3"")",Schatten,kivuli,d,NA,NA,NA,NA,NA,NA,NA,NA,NA,NA,NA,NA,NA,NA,NA,NA,NA,NA,NA,NA,NA,NA,NA,NA,NA,NA
d5c4a,shallow,flow.Sequence,1_1_2_1,NA,NA,skipped,NA,181673.9,NA,NA,181672.2,181674,2024-03-25T14:40:03Z,181689.1,"c(""distractor1"", ""distractor2"", ""distractor3"")",Schatten,kivuli,d,NA,NA,NA,NA,NA,NA,NA,NA,NA,NA,NA,NA,NA,NA,NA,NA,NA,NA,NA,NA,NA,NA,NA,NA,NA,NA
d5c4a,task,flow.Sequence,1_1_2,NA,NA,completion,12358.9,169300.5,169296.5,169313.3,181672.2,181674.3,2024-03-25T14:40:03Z,181689.1,"c(""distractor1"", ""distractor2"", ""distractor3"")",Schatten,kivuli,d,NA,NA,NA,NA,NA,NA,NA,NA,NA,NA,NA,NA,NA,NA,NA,NA,NA,NA,NA,NA,NA,NA,NA,NA,NA,NA
d5c4a,deep,flow.Sequence,1_1_3_0,NA,NA,skipped,NA,181674.5,NA,NA,181672.2,181674.5,2024-03-25T14:40:03Z,181689.1,"c(""distractor1"", ""distractor2"", ""distractor3"")",Gegenwart,hadhara,s,katiba,jokofu,mikopo,NA,NA,NA,NA,NA,NA,NA,NA,NA,NA,NA,NA,NA,NA,NA,NA,NA,NA,NA,NA,NA,NA,NA
d5c4a,Shallow Question,html.Page,1_1_3_1_0,NA,NA,form submission,13195.2,181674.7,181672.2,181689.1,194884.3,194884.5,2024-03-25T14:40:17Z,194897.4,"c(""distractor1"", ""distractor2"", ""distractor3"")",Gegenwart,hadhara,s,katiba,jokofu,mikopo,katiba,NA,NA,NA,NA,NA,NA,NA,NA,NA,NA,NA,NA,NA,NA,NA,NA,NA,NA,NA,NA,NA,NA
d5c4a,"""Richtig""-Screen",canvas.Screen,1_1_3_1_1,NA,NA,skipped,NA,194887.5,NA,NA,194884.3,194887.6,2024-03-25T14:40:17Z,194897.4,"c(""distractor1"", ""distractor2"", ""distractor3"")",Gegenwart,hadhara,s,katiba,jokofu,mikopo,NA,NA,NA,NA,NA,NA,NA,NA,NA,NA,NA,NA,NA,NA,NA,NA,NA,NA,NA,NA,NA,NA,NA
d5c4a,"""Falsch""-Screen",canvas.Screen,1_1_3_1_2,NA,NA,timeout,4997.3,194888.4,194883,194897.4,199877.9,199878.9,2024-03-25T14:40:22Z,199894.7,"c(""distractor1"", ""distractor2"", ""distractor3"")",Gegenwart,hadhara,s,katiba,jokofu,mikopo,NA,NA,0,NA,NA,NA,NA,NA,NA,NA,NA,NA,NA,NA,NA,NA,NA,NA,NA,NA,NA,NA,NA
d5c4a,shallow,flow.Sequence,1_1_3_1,NA,NA,completion,18188.8,181674.7,181672.2,181689.1,199877.9,199879.3,2024-03-25T14:40:22Z,199894.7,"c(""distractor1"", ""distractor2"", ""distractor3"")",Gegenwart,hadhara,s,katiba,jokofu,mikopo,NA,NA,NA,NA,NA,NA,NA,NA,NA,NA,NA,NA,NA,NA,NA,NA,NA,NA,NA,NA,NA,NA,NA
d5c4a,task,flow.Sequence,1_1_3,NA,NA,completion,18188.8,181674.4,181672.2,181689.1,199877.9,199879.5,2024-03-25T14:40:22Z,199894.7,"c(""distractor1"", ""distractor2"", ""distractor3"")",Gegenwart,hadhara,s,katiba,jokofu,mikopo,NA,NA,NA,NA,NA,NA,NA,NA,NA,NA,NA,NA,NA,NA,NA,NA,NA,NA,NA,NA,NA,NA,NA
d5c4a,deep,flow.Sequence,1_1_4_0,NA,NA,skipped,NA,199879.7,NA,NA,199877.9,199879.8,2024-03-25T14:40:22Z,199894.7,"c(""distractor1"", ""distractor2"", ""distractor3"")",Kritik,lawama,s,dereva,nafasi,mawazo,NA,NA,NA,NA,NA,NA,NA,NA,NA,NA,NA,NA,NA,NA,NA,NA,NA,NA,NA,NA,NA,NA,NA
d5c4a,Shallow Question,html.Page,1_1_4_1_0,NA,NA,form submission,6606.4000000001,199880,199877.9,199894.7,206501.1,206501.4,2024-03-25T14:40:28Z,206506.9,"c(""distractor1"", ""distractor2"", ""distractor3"")",Kritik,lawama,s,dereva,nafasi,mawazo,dereva,NA,NA,NA,NA,NA,NA,NA,NA,NA,NA,NA,NA,NA,NA,NA,NA,NA,NA,NA,NA,NA,NA
d5c4a,"""Richtig""-Screen",canvas.Screen,1_1_4_1_1,NA,NA,skipped,NA,206504.2,NA,NA,206501.1,206504.3,2024-03-25T14:40:28Z,206506.9,"c(""distractor1"", ""distractor2"", ""distractor3"")",Kritik,lawama,s,dereva,nafasi,mawazo,NA,NA,NA,NA,NA,NA,NA,NA,NA,NA,NA,NA,NA,NA,NA,NA,NA,NA,NA,NA,NA,NA,NA
d5c4a,"""Falsch""-Screen",canvas.Screen,1_1_4_1_2,NA,NA,timeout,4997.4,206505.4,206492.4,206506.9,211487.3,211487.8,2024-03-25T14:40:33Z,211504.3,"c(""distractor1"", ""distractor2"", ""distractor3"")",Kritik,lawama,s,dereva,nafasi,mawazo,NA,NA,0,NA,NA,NA,NA,NA,NA,NA,NA,NA,NA,NA,NA,NA,NA,NA,NA,NA,NA,NA,NA
d5c4a,shallow,flow.Sequence,1_1_4_1,NA,NA,completion,11592.6,199879.9,199877.9,199894.7,211487.3,211487.9,2024-03-25T14:40:33Z,211504.3,"c(""distractor1"", ""distractor2"", ""distractor3"")",Kritik,lawama,s,dereva,nafasi,mawazo,NA,NA,NA,NA,NA,NA,NA,NA,NA,NA,NA,NA,NA,NA,NA,NA,NA,NA,NA,NA,NA,NA,NA
d5c4a,task,flow.Sequence,1_1_4,NA,NA,completion,11592.6,199879.7,199877.9,199894.7,211487.3,211488,2024-03-25T14:40:33Z,211504.3,"c(""distractor1"", ""distractor2"", ""distractor3"")",Kritik,lawama,s,dereva,nafasi,mawazo,NA,NA,NA,NA,NA,NA,NA,NA,NA,NA,NA,NA,NA,NA,NA,NA,NA,NA,NA,NA,NA,NA,NA
d5c4a,deep,flow.Sequence,1_1_5_0,NA,NA,skipped,NA,211488.1,NA,NA,211487.3,211488.1,2024-03-25T14:40:33Z,211504.3,"c(""distractor1"", ""distractor2"", ""distractor3"")",Rückhalt,msaada,s,muhula,auwali,kiwimbe,NA,NA,NA,NA,NA,NA,NA,NA,NA,NA,NA,NA,NA,NA,NA,NA,NA,NA,NA,NA,NA,NA,NA
d5c4a,Shallow Question,html.Page,1_1_5_1_0,NA,NA,form submission,7364.1000000004,211488.1,211487.3,211504.3,218868.4,218868.5,2024-03-25T14:40:41Z,218882.6,"c(""distractor1"", ""distractor2"", ""distractor3"")",Rückhalt,msaada,s,muhula,auwali,kiwimbe,muhula,NA,NA,NA,NA,NA,NA,NA,NA,NA,NA,NA,NA,NA,NA,NA,NA,NA,NA,NA,NA,NA,NA
d5c4a,"""Richtig""-Screen",canvas.Screen,1_1_5_1_1,NA,NA,skipped,NA,218870.1,NA,NA,218868.4,218870.2,2024-03-25T14:40:41Z,218882.6,"c(""distractor1"", ""distractor2"", ""distractor3"")",Rückhalt,msaada,s,muhula,auwali,kiwimbe,NA,NA,NA,NA,NA,NA,NA,NA,NA,NA,NA,NA,NA,NA,NA,NA,NA,NA,NA,NA,NA,NA,NA
d5c4a,"""Falsch""-Screen",canvas.Screen,1_1_5_1_2,NA,NA,timeout,4997,218870.8,218867.676,218882.6,223863.3,223863.9,2024-03-25T14:40:46Z,223879.6,"c(""distractor1"", ""distractor2"", ""distractor3"")",Rückhalt,msaada,s,muhula,auwali,kiwimbe,NA,NA,0,NA,NA,NA,NA,NA,NA,NA,NA,NA,NA,NA,NA,NA,NA,NA,NA,NA,NA,NA,NA
d5c4a,shallow,flow.Sequence,1_1_5_1,NA,NA,completion,12359,211488.1,211487.3,211504.3,223863.3,223864,2024-03-25T14:40:46Z,223879.6,"c(""distractor1"", ""distractor2"", ""distractor3"")",Rückhalt,msaada,s,muhula,auwali,kiwimbe,NA,NA,NA,NA,NA,NA,NA,NA,NA,NA,NA,NA,NA,NA,NA,NA,NA,NA,NA,NA,NA,NA,NA
d5c4a,task,flow.Sequence,1_1_5,NA,NA,completion,12359,211488,211487.3,211504.3,223863.3,223864,2024-03-25T14:40:46Z,223879.6,"c(""distractor1"", ""distractor2"", ""distractor3"")",Rückhalt,msaada,s,muhula,auwali,kiwimbe,NA,NA,NA,NA,NA,NA,NA,NA,NA,NA,NA,NA,NA,NA,NA,NA,NA,NA,NA,NA,NA,NA,NA
d5c4a,block,flow.Loop,1_1,NA,NA,completion,83099.3,140730.6,140718.758,140764,223863.3,223864.1,2024-03-25T14:40:46Z,223879.6,"c(""distractor1"", ""distractor2"", ""distractor3"")",NA,NA,NA,NA,NA,NA,NA,NA,NA,NA,NA,NA,NA,NA,NA,NA,NA,NA,NA,NA,NA,NA,NA,NA,NA,NA,NA,NA,NA
d5c4a,Practice,flow.Sequence,1,NA,NA,completion,91694.2,132154.4,132153.238,132169.1,223863.3,223864.2,2024-03-25T14:40:46Z,223879.6,NULL,NA,NA,NA,NA,NA,NA,NA,NA,NA,NA,NA,NA,NA,NA,NA,NA,NA,NA,NA,NA,NA,NA,NA,NA,NA,NA,NA,NA,NA
d5c4a,Experiment start,canvas.Screen,2,weiter,keypress(q),response,35387.3,223864.2,223863.3,223879.6,259266.9,259268,2024-03-25T14:41:21Z,259341.6,NULL,NA,NA,NA,NA,NA,NA,NA,NA,NA,NA,NA,NA,NA,NA,NA,NA,NA,NA,NA,NA,NA,NA,NA,NA,NA,NA,NA,NA,NA
d5c4a,Deep Question,html.Page,3_0_0_0_0_0_0,NA,NA,form submission,7153.2000000003,259328.6,259328.182,259341.6,266494.8,266495.1,2024-03-25T14:41:28Z,266503.6,NULL,Schock,mshtuko,d,NA,NA,NA,oho,NA,NA,0,NA,NA,NA,NA,NA,NA,NA,NA,NA,NA,NA,NA,NA,NA,NA,NA,NA,NA,NA
d5c4a,"""Richtig""-Screen",canvas.Screen,3_0_0_0_0_0_1,NA,NA,skipped,NA,266498,NA,NA,266494.8,266498.1,2024-03-25T14:41:28Z,266503.6,NULL,Schock,mshtuko,d,NA,NA,NA,NA,sdf,NA,0,NA,NA,NA,NA,NA,NA,NA,NA,NA,NA,NA,NA,NA,NA,NA,NA,NA,NA,NA
d5c4a,"""Falsch""-Screen",canvas.Screen,3_0_0_0_0_0_2,NA,NA,timeout,4997.6,266499.2,266488.748,266503.6,271484.1,271485,2024-03-25T14:41:33Z,271501.2,NULL,Schock,mshtuko,d,NA,NA,NA,NA,sdf,0,0,NA,NA,NA,NA,NA,NA,NA,NA,NA,NA,NA,NA,NA,NA,NA,NA,NA,NA,NA
d5c4a,deep,flow.Sequence,3_0_0_0_0_0,NA,NA,completion,12142.5,259328.6,259328.182,259341.6,271484.1,271485.4,2024-03-25T14:41:33Z,271501.2,NULL,Schock,mshtuko,d,NA,NA,NA,NA,sdf,NA,0,NA,NA,NA,NA,NA,NA,NA,NA,NA,NA,NA,NA,NA,NA,NA,NA,NA,NA,NA
d5c4a,shallow,flow.Sequence,3_0_0_0_0_1,NA,NA,skipped,NA,271485.6,NA,NA,271484.1,271485.8,2024-03-25T14:41:33Z,271501.2,NULL,Schock,mshtuko,d,NA,NA,NA,NA,sdf,NA,0,NA,NA,NA,NA,NA,NA,NA,NA,NA,NA,NA,NA,NA,NA,NA,NA,NA,NA,NA
d5c4a,task,flow.Sequence,3_0_0_0_0,NA,NA,completion,12142.5,259328.6,259328.182,259341.6,271484.1,271486,2024-03-25T14:41:33Z,271501.2,NULL,Schock,mshtuko,d,NA,NA,NA,NA,sdf,NA,0,NA,NA,NA,NA,NA,NA,NA,NA,NA,NA,NA,NA,NA,NA,NA,NA,NA,NA,NA
d5c4a,deep,flow.Sequence,3_0_0_0_1_0,NA,NA,skipped,NA,271486.2,NA,NA,271484.1,271486.2,2024-03-25T14:41:33Z,271501.2,NULL,Verpackung,ufungaji,s,uhusiano,upimaji,uchunguzi,NA,sdf,NA,0,NA,NA,NA,NA,NA,NA,NA,NA,NA,NA,NA,NA,NA,NA,NA,NA,NA,NA,NA
d5c4a,Shallow Question,html.Page,3_0_0_0_1_1_0,NA,NA,form submission,16758.7,271486.4,271484.1,271501.2,288259.9,288260.1,2024-03-25T14:41:50Z,288274.1,NULL,Verpackung,ufungaji,s,uhusiano,upimaji,uchunguzi,uhusiano,NA,NA,0,NA,NA,NA,NA,NA,NA,NA,NA,NA,NA,NA,NA,NA,NA,NA,NA,NA,NA,NA
d5c4a,"""Richtig""-Screen",canvas.Screen,3_0_0_0_1_1_1,NA,NA,skipped,NA,288263.1,NA,NA,288259.9,288263.2,2024-03-25T14:41:50Z,288274.1,NULL,Verpackung,ufungaji,s,uhusiano,upimaji,uchunguzi,NA,sdf,NA,0,NA,NA,NA,NA,NA,NA,NA,NA,NA,NA,NA,NA,NA,NA,NA,NA,NA,NA,NA
d5c4a,"""Falsch""-Screen",canvas.Screen,3_0_0_0_1_1_2,NA,NA,timeout,4996.9,288264.1,288259.248,288274.1,293254.1,293255.1,2024-03-25T14:41:55Z,293271,NULL,Verpackung,ufungaji,s,uhusiano,upimaji,uchunguzi,NA,sdf,0,0,NA,NA,NA,NA,NA,NA,NA,NA,NA,NA,NA,NA,NA,NA,NA,NA,NA,NA,NA
d5c4a,shallow,flow.Sequence,3_0_0_0_1_1,NA,NA,completion,21752.9,271486.3,271484.1,271501.2,293254.1,293255.5,2024-03-25T14:41:55Z,293271,NULL,Verpackung,ufungaji,s,uhusiano,upimaji,uchunguzi,NA,sdf,NA,0,NA,NA,NA,NA,NA,NA,NA,NA,NA,NA,NA,NA,NA,NA,NA,NA,NA,NA,NA
d5c4a,task,flow.Sequence,3_0_0_0_1,NA,NA,completion,21752.9,271486.1,271484.1,271501.2,293254.1,293255.7,2024-03-25T14:41:55Z,293271,NULL,Verpackung,ufungaji,s,uhusiano,upimaji,uchunguzi,NA,sdf,NA,0,NA,NA,NA,NA,NA,NA,NA,NA,NA,NA,NA,NA,NA,NA,NA,NA,NA,NA,NA
d5c4a,deep,flow.Sequence,3_0_0_0_2_0,NA,NA,skipped,NA,293255.9,NA,NA,293254.1,293256,2024-03-25T14:41:55Z,293271,NULL,Wettbewerb,ushindani,s,mapendezi,kichocheo,ubaguzi,NA,sdf,NA,0,NA,NA,NA,NA,NA,NA,NA,NA,NA,NA,NA,NA,NA,NA,NA,NA,NA,NA,NA
d5c4a,Shallow Question,html.Page,3_0_0_0_2_1_0,NA,NA,form submission,7843.1000000001,293256.2,293254.1,293271,301114.1,301114.3,2024-03-25T14:42:03Z,301117.49,NULL,Wettbewerb,ushindani,s,mapendezi,kichocheo,ubaguzi,kichocheo,NA,NA,0,NA,NA,NA,NA,NA,NA,NA,NA,NA,NA,NA,NA,NA,NA,NA,NA,NA,NA,NA
d5c4a,"""Richtig""-Screen",canvas.Screen,3_0_0_0_2_1_1,NA,NA,skipped,NA,301116.5,NA,NA,301114.1,301116.6,2024-03-25T14:42:03Z,301117.49,NULL,Wettbewerb,ushindani,s,mapendezi,kichocheo,ubaguzi,NA,sdf,NA,0,NA,NA,NA,NA,NA,NA,NA,NA,NA,NA,NA,NA,NA,NA,NA,NA,NA,NA,NA
d5c4a,"""Falsch""-Screen",canvas.Screen,3_0_0_0_2_1_2,NA,NA,timeout,4995.41,301117.1,301117.49,301117.49,306096.3,306097.3,2024-03-25T14:42:08Z,306112.9,NULL,Wettbewerb,ushindani,s,mapendezi,kichocheo,ubaguzi,NA,sdf,0,0,NA,NA,NA,NA,NA,NA,NA,NA,NA,NA,NA,NA,NA,NA,NA,NA,NA,NA,NA
d5c4a,shallow,flow.Sequence,3_0_0_0_2_1,NA,NA,completion,12825.3,293256.2,293254.1,293271,306096.3,306097.6,2024-03-25T14:42:08Z,306112.9,NULL,Wettbewerb,ushindani,s,mapendezi,kichocheo,ubaguzi,NA,sdf,NA,0,NA,NA,NA,NA,NA,NA,NA,NA,NA,NA,NA,NA,NA,NA,NA,NA,NA,NA,NA
d5c4a,task,flow.Sequence,3_0_0_0_2,NA,NA,completion,12825.3,293255.9,293254.1,293271,306096.3,306097.9,2024-03-25T14:42:08Z,306112.9,NULL,Wettbewerb,ushindani,s,mapendezi,kichocheo,ubaguzi,NA,sdf,NA,0,NA,NA,NA,NA,NA,NA,NA,NA,NA,NA,NA,NA,NA,NA,NA,NA,NA,NA,NA
d5c4a,deep,flow.Sequence,3_0_0_0_3_0,NA,NA,skipped,NA,306098,NA,NA,306096.3,306098.2,2024-03-25T14:42:08Z,306112.9,NULL,Hoffnung,matarajio,s,kutaalamika,uratibu,mvumbuzi,NA,sdf,NA,0,NA,NA,NA,NA,NA,NA,NA,NA,NA,NA,NA,NA,NA,NA,NA,NA,NA,NA,NA
d5c4a,Shallow Question,html.Page,3_0_0_0_3_1_0,NA,NA,form submission,12073.4,306098.3,306096.3,306112.9,318186.3,318186.5,2024-03-25T14:42:20Z,318190.186,NULL,Hoffnung,matarajio,s,kutaalamika,uratibu,mvumbuzi,mvumbuzi,NA,NA,0,NA,NA,NA,NA,NA,NA,NA,NA,NA,NA,NA,NA,NA,NA,NA,NA,NA,NA,NA
d5c4a,"""Richtig""-Screen",canvas.Screen,3_0_0_0_3_1_1,NA,NA,skipped,NA,318189.6,NA,NA,318186.3,318189.7,2024-03-25T14:42:20Z,318190.186,NULL,Hoffnung,matarajio,s,kutaalamika,uratibu,mvumbuzi,NA,sdf,NA,0,NA,NA,NA,NA,NA,NA,NA,NA,NA,NA,NA,NA,NA,NA,NA,NA,NA,NA,NA
d5c4a,"""Falsch""-Screen",canvas.Screen,3_0_0_0_3_1_2,NA,NA,timeout,4995.614,318190.3,318190.186,318190.186,323169.1,323170.2,2024-03-25T14:42:25Z,323185.8,NULL,Hoffnung,matarajio,s,kutaalamika,uratibu,mvumbuzi,NA,sdf,0,0,NA,NA,NA,NA,NA,NA,NA,NA,NA,NA,NA,NA,NA,NA,NA,NA,NA,NA,NA
d5c4a,shallow,flow.Sequence,3_0_0_0_3_1,NA,NA,completion,17056.2,306098.2,306096.3,306112.9,323169.1,323170.6,2024-03-25T14:42:25Z,323185.8,NULL,Hoffnung,matarajio,s,kutaalamika,uratibu,mvumbuzi,NA,sdf,NA,0,NA,NA,NA,NA,NA,NA,NA,NA,NA,NA,NA,NA,NA,NA,NA,NA,NA,NA,NA
d5c4a,task,flow.Sequence,3_0_0_0_3,NA,NA,completion,17056.2,306098,306096.3,306112.9,323169.1,323170.7,2024-03-25T14:42:25Z,323185.8,NULL,Hoffnung,matarajio,s,kutaalamika,uratibu,mvumbuzi,NA,sdf,NA,0,NA,NA,NA,NA,NA,NA,NA,NA,NA,NA,NA,NA,NA,NA,NA,NA,NA,NA,NA
d5c4a,Deep Question,html.Page,3_0_0_0_4_0_0,NA,NA,form submission,6810.0000000003,323171,323169.1,323185.8,329995.8,329996,2024-03-25T14:42:32Z,329999.174,NULL,Schönheit,kirembo,d,NA,NA,NA,bella,NA,NA,0,NA,NA,NA,NA,NA,NA,NA,NA,NA,NA,NA,NA,NA,NA,NA,NA,NA,NA,NA
d5c4a,"""Richtig""-Screen",canvas.Screen,3_0_0_0_4_0_1,NA,NA,skipped,NA,329999,NA,NA,329995.8,329999.1,2024-03-25T14:42:32Z,329999.174,NULL,Schönheit,kirembo,d,NA,NA,NA,NA,sdf,NA,0,NA,NA,NA,NA,NA,NA,NA,NA,NA,NA,NA,NA,NA,NA,NA,NA,NA,NA,NA
d5c4a,"""Falsch""-Screen",canvas.Screen,3_0_0_0_4_0_2,NA,NA,timeout,4996.026,330000,329999.174,329999.174,334979,334980,2024-03-25T14:42:37Z,334995.2,NULL,Schönheit,kirembo,d,NA,NA,NA,NA,sdf,0,0,NA,NA,NA,NA,NA,NA,NA,NA,NA,NA,NA,NA,NA,NA,NA,NA,NA,NA,NA
d5c4a,deep,flow.Sequence,3_0_0_0_4_0,NA,NA,completion,11793.2,323170.9,323169.1,323185.8,334979,334980.4,2024-03-25T14:42:37Z,334995.2,NULL,Schönheit,kirembo,d,NA,NA,NA,NA,sdf,NA,0,NA,NA,NA,NA,NA,NA,NA,NA,NA,NA,NA,NA,NA,NA,NA,NA,NA,NA,NA
d5c4a,shallow,flow.Sequence,3_0_0_0_4_1,NA,NA,skipped,NA,334980.6,NA,NA,334979,334980.7,2024-03-25T14:42:37Z,334995.2,NULL,Schönheit,kirembo,d,NA,NA,NA,NA,sdf,NA,0,NA,NA,NA,NA,NA,NA,NA,NA,NA,NA,NA,NA,NA,NA,NA,NA,NA,NA,NA
d5c4a,task,flow.Sequence,3_0_0_0_4,NA,NA,completion,11793.2,323170.9,323169.1,323185.8,334979,334980.9,2024-03-25T14:42:37Z,334995.2,NULL,Schönheit,kirembo,d,NA,NA,NA,NA,sdf,NA,0,NA,NA,NA,NA,NA,NA,NA,NA,NA,NA,NA,NA,NA,NA,NA,NA,NA,NA,NA
d5c4a,Deep Question,html.Page,3_0_0_0_5_0_0,NA,NA,form submission,21858.6,334981.1,334979,334995.2,356853.8,356854,2024-03-25T14:42:59Z,356865.2,NULL,Zufall,kikuti,d,NA,NA,NA,wow,NA,NA,0,NA,NA,NA,NA,NA,NA,NA,NA,NA,NA,NA,NA,NA,NA,NA,NA,NA,NA,NA
d5c4a,"""Richtig""-Screen",canvas.Screen,3_0_0_0_5_0_1,NA,NA,skipped,NA,356857.2,NA,NA,356853.8,356857.3,2024-03-25T14:42:59Z,356865.2,NULL,Zufall,kikuti,d,NA,NA,NA,NA,sdf,NA,0,NA,NA,NA,NA,NA,NA,NA,NA,NA,NA,NA,NA,NA,NA,NA,NA,NA,NA,NA
d5c4a,"""Falsch""-Screen",canvas.Screen,3_0_0_0_5_0_2,NA,NA,timeout,4997,356858.1,356850.934,356865.2,361845.7,361846.7,2024-03-25T14:43:04Z,361862.2,NULL,Zufall,kikuti,d,NA,NA,NA,NA,sdf,0,0,NA,NA,NA,NA,NA,NA,NA,NA,NA,NA,NA,NA,NA,NA,NA,NA,NA,NA,NA
d5c4a,deep,flow.Sequence,3_0_0_0_5_0,NA,NA,completion,26850.5,334981,334979,334995.2,361845.7,361847.1,2024-03-25T14:43:04Z,361862.2,NULL,Zufall,kikuti,d,NA,NA,NA,NA,sdf,NA,0,NA,NA,NA,NA,NA,NA,NA,NA,NA,NA,NA,NA,NA,NA,NA,NA,NA,NA,NA
d5c4a,shallow,flow.Sequence,3_0_0_0_5_1,NA,NA,skipped,NA,361847.2,NA,NA,361845.7,361847.3,2024-03-25T14:43:04Z,361862.2,NULL,Zufall,kikuti,d,NA,NA,NA,NA,sdf,NA,0,NA,NA,NA,NA,NA,NA,NA,NA,NA,NA,NA,NA,NA,NA,NA,NA,NA,NA,NA
d5c4a,task,flow.Sequence,3_0_0_0_5,NA,NA,completion,26850.5,334981,334979,334995.2,361845.7,361847.5,2024-03-25T14:43:04Z,361862.2,NULL,Zufall,kikuti,d,NA,NA,NA,NA,sdf,NA,0,NA,NA,NA,NA,NA,NA,NA,NA,NA,NA,NA,NA,NA,NA,NA,NA,NA,NA,NA
d5c4a,deep,flow.Sequence,3_0_0_0_6_0,NA,NA,skipped,NA,361847.7,NA,NA,361845.7,361847.8,2024-03-25T14:43:04Z,361862.2,NULL,Auftrag,uagizaji,s,ghanima,kuzingatia,msukani,NA,sdf,NA,0,NA,NA,NA,NA,NA,NA,NA,NA,NA,NA,NA,NA,NA,NA,NA,NA,NA,NA,NA
d5c4a,Shallow Question,html.Page,3_0_0_0_6_1_0,NA,NA,form submission,13323.8,361848,361845.7,361862.2,375186,375186.3,2024-03-25T14:43:17Z,375188.582,NULL,Auftrag,uagizaji,s,ghanima,kuzingatia,msukani,msukani,NA,NA,0,NA,NA,NA,NA,NA,NA,NA,NA,NA,NA,NA,NA,NA,NA,NA,NA,NA,NA,NA
d5c4a,"""Richtig""-Screen",canvas.Screen,3_0_0_0_6_1_1,NA,NA,skipped,NA,375189.2,NA,NA,375186,375189.3,2024-03-25T14:43:17Z,375188.582,NULL,Auftrag,uagizaji,s,ghanima,kuzingatia,msukani,NA,sdf,NA,0,NA,NA,NA,NA,NA,NA,NA,NA,NA,NA,NA,NA,NA,NA,NA,NA,NA,NA,NA
d5c4a,"""Falsch""-Screen",canvas.Screen,3_0_0_0_6_1_2,NA,NA,timeout,4996.118,375190,375188.582,375188.582,380167.8,380168.8,2024-03-25T14:43:22Z,380184.7,NULL,Auftrag,uagizaji,s,ghanima,kuzingatia,msukani,NA,sdf,0,0,NA,NA,NA,NA,NA,NA,NA,NA,NA,NA,NA,NA,NA,NA,NA,NA,NA,NA,NA
d5c4a,shallow,flow.Sequence,3_0_0_0_6_1,NA,NA,completion,18305.6,361848,361845.7,361862.2,380167.8,380169.2,2024-03-25T14:43:22Z,380184.7,NULL,Auftrag,uagizaji,s,ghanima,kuzingatia,msukani,NA,sdf,NA,0,NA,NA,NA,NA,NA,NA,NA,NA,NA,NA,NA,NA,NA,NA,NA,NA,NA,NA,NA
d5c4a,task,flow.Sequence,3_0_0_0_6,NA,NA,completion,18305.6,361847.7,361845.7,361862.2,380167.8,380169.3,2024-03-25T14:43:22Z,380184.7,NULL,Auftrag,uagizaji,s,ghanima,kuzingatia,msukani,NA,sdf,NA,0,NA,NA,NA,NA,NA,NA,NA,NA,NA,NA,NA,NA,NA,NA,NA,NA,NA,NA,NA
d5c4a,Deep Question,html.Page,3_0_0_0_7_0_0,NA,NA,form submission,13100,380169.6,380167.8,380184.7,393284.7,393284.9,2024-03-25T14:43:35Z,393292.9,NULL,Theorie,nadharia,d,NA,NA,NA,h,NA,NA,0,NA,NA,NA,NA,NA,NA,NA,NA,NA,NA,NA,NA,NA,NA,NA,NA,NA,NA,NA
d5c4a,"""Richtig""-Screen",canvas.Screen,3_0_0_0_7_0_1,NA,NA,skipped,NA,393287.8,NA,NA,393284.7,393287.9,2024-03-25T14:43:35Z,393292.9,NULL,Theorie,nadharia,d,NA,NA,NA,NA,sdf,NA,0,NA,NA,NA,NA,NA,NA,NA,NA,NA,NA,NA,NA,NA,NA,NA,NA,NA,NA,NA
d5c4a,"""Falsch""-Screen",canvas.Screen,3_0_0_0_7_0_2,NA,NA,timeout,4997.4,393288.8,393277.442,393292.9,398273.5,398274.5,2024-03-25T14:43:40Z,398290.3,NULL,Theorie,nadharia,d,NA,NA,NA,NA,sdf,0,0,NA,NA,NA,NA,NA,NA,NA,NA,NA,NA,NA,NA,NA,NA,NA,NA,NA,NA,NA
d5c4a,deep,flow.Sequence,3_0_0_0_7_0,NA,NA,completion,18088.8,380169.5,380167.8,380184.7,398273.5,398274.9,2024-03-25T14:43:40Z,398290.3,NULL,Theorie,nadharia,d,NA,NA,NA,NA,sdf,NA,0,NA,NA,NA,NA,NA,NA,NA,NA,NA,NA,NA,NA,NA,NA,NA,NA,NA,NA,NA
d5c4a,shallow,flow.Sequence,3_0_0_0_7_1,NA,NA,skipped,NA,398275,NA,NA,398273.5,398275.2,2024-03-25T14:43:40Z,398290.3,NULL,Theorie,nadharia,d,NA,NA,NA,NA,sdf,NA,0,NA,NA,NA,NA,NA,NA,NA,NA,NA,NA,NA,NA,NA,NA,NA,NA,NA,NA,NA
d5c4a,task,flow.Sequence,3_0_0_0_7,NA,NA,completion,18088.8,380169.5,380167.8,380184.7,398273.5,398275.3,2024-03-25T14:43:40Z,398290.3,NULL,Theorie,nadharia,d,NA,NA,NA,NA,sdf,NA,0,NA,NA,NA,NA,NA,NA,NA,NA,NA,NA,NA,NA,NA,NA,NA,NA,NA,NA,NA
d5c4a,block,flow.Loop,3_0_0_0,NA,NA,completion,138931.9,259328.6,259328.182,259341.6,398273.5,398275.6,2024-03-25T14:43:40Z,398290.3,NULL,NA,NA,NA,NA,NA,NA,NA,sdf,NA,0,NA,NA,NA,NA,NA,NA,NA,NA,NA,NA,NA,NA,NA,NA,NA,NA,NA,NA,NA
d5c4a,weiter,canvas.Screen,3_0_0_1,sdf,keypress(Space),response,2341.7,398275.7,398273.5,398290.3,400632,400632.9,2024-03-25T14:43:42Z,400655.1,NULL,NA,NA,NA,NA,NA,NA,NA,sdf,NA,0,NA,NA,NA,NA,NA,NA,NA,NA,NA,NA,NA,NA,NA,NA,NA,NA,NA,NA,NA
d5c4a,check continue,flow.Sequence,3_0_0,NA,NA,completion,141290.4,259328.6,259328.182,259341.6,400632,400633.2,2024-03-25T14:43:42Z,400655.1,NULL,NA,NA,NA,NA,NA,NA,NA,sdf,NA,0,NA,NA,NA,NA,NA,NA,NA,NA,NA,NA,NA,NA,NA,NA,NA,NA,NA,NA,NA
d5c4a,deep,flow.Sequence,3_0_1_0_0_0,NA,NA,skipped,NA,400653.1,NA,NA,400632,400653.2,2024-03-25T14:43:42Z,400655.1,NULL,Hoffnung,matarajio,s,kutaalamika,uratibu,mvumbuzi,NA,sdfdsf,NA,1,NA,NA,NA,NA,NA,NA,NA,NA,NA,NA,NA,NA,NA,NA,NA,NA,NA,NA,NA
d5c4a,Shallow Question,html.Page,3_0_1_0_0_1_0,NA,NA,form submission,13833.5,400653.2,400640.206,400655.1,414488.6,414488.8,2024-03-25T14:43:56Z,414496.6,NULL,Hoffnung,matarajio,s,kutaalamika,uratibu,mvumbuzi,mvumbuzi,NA,NA,1,NA,NA,NA,NA,NA,NA,NA,NA,NA,NA,NA,NA,NA,NA,NA,NA,NA,NA,NA
d5c4a,"""Richtig""-Screen",canvas.Screen,3_0_1_0_0_1_1,NA,NA,skipped,NA,414491.9,NA,NA,414488.6,414492,2024-03-25T14:43:56Z,414496.6,NULL,Hoffnung,matarajio,s,kutaalamika,uratibu,mvumbuzi,NA,sdfdsf,NA,1,NA,NA,NA,NA,NA,NA,NA,NA,NA,NA,NA,NA,NA,NA,NA,NA,NA,NA,NA
d5c4a,"""Falsch""-Screen",canvas.Screen,3_0_1_0_0_1_2,NA,NA,timeout,4997.4,414492.6,414480.61,414496.6,419477.1,419478.9,2024-03-25T14:44:01Z,419494,NULL,Hoffnung,matarajio,s,kutaalamika,uratibu,mvumbuzi,NA,sdfdsf,0,1,NA,NA,NA,NA,NA,NA,NA,NA,NA,NA,NA,NA,NA,NA,NA,NA,NA,NA,NA
d5c4a,shallow,flow.Sequence,3_0_1_0_0_1,NA,NA,completion,18822,400653.2,400640.206,400655.1,419477.1,419479.2,2024-03-25T14:44:01Z,419494,NULL,Hoffnung,matarajio,s,kutaalamika,uratibu,mvumbuzi,NA,sdfdsf,NA,1,NA,NA,NA,NA,NA,NA,NA,NA,NA,NA,NA,NA,NA,NA,NA,NA,NA,NA,NA
d5c4a,task,flow.Sequence,3_0_1_0_0,NA,NA,completion,18822,400653.1,400640.206,400655.1,419477.1,419479.5,2024-03-25T14:44:01Z,419494,NULL,Hoffnung,matarajio,s,kutaalamika,uratibu,mvumbuzi,NA,sdfdsf,NA,1,NA,NA,NA,NA,NA,NA,NA,NA,NA,NA,NA,NA,NA,NA,NA,NA,NA,NA,NA
d5c4a,Deep Question,html.Page,3_0_1_0_1_0_0,NA,NA,form submission,6564.1000000001,419479.6,419477.1,419494,426058.1,426058.4,2024-03-25T14:44:08Z,426073,NULL,Schock,mshtuko,d,NA,NA,NA,oho,NA,NA,1,NA,NA,NA,NA,NA,NA,NA,NA,NA,NA,NA,NA,NA,NA,NA,NA,NA,NA,NA
d5c4a,"""Richtig""-Screen",canvas.Screen,3_0_1_0_1_0_1,NA,NA,skipped,NA,426061.3,NA,NA,426058.1,426061.5,2024-03-25T14:44:08Z,426073,NULL,Schock,mshtuko,d,NA,NA,NA,NA,sdfdsf,NA,1,NA,NA,NA,NA,NA,NA,NA,NA,NA,NA,NA,NA,NA,NA,NA,NA,NA,NA,NA
d5c4a,"""Falsch""-Screen",canvas.Screen,3_0_1_0_1_0_2,NA,NA,timeout,4997.5,426062.3,426057.176,426073,431053.4,431054.4,2024-03-25T14:44:13Z,431070.5,NULL,Schock,mshtuko,d,NA,NA,NA,NA,sdfdsf,0,1,NA,NA,NA,NA,NA,NA,NA,NA,NA,NA,NA,NA,NA,NA,NA,NA,NA,NA,NA
d5c4a,deep,flow.Sequence,3_0_1_0_1_0,NA,NA,completion,11559.4,419479.6,419477.1,419494,431053.4,431054.8,2024-03-25T14:44:13Z,431070.5,NULL,Schock,mshtuko,d,NA,NA,NA,NA,sdfdsf,NA,1,NA,NA,NA,NA,NA,NA,NA,NA,NA,NA,NA,NA,NA,NA,NA,NA,NA,NA,NA
d5c4a,shallow,flow.Sequence,3_0_1_0_1_1,NA,NA,skipped,NA,431054.9,NA,NA,431053.4,431055.1,2024-03-25T14:44:13Z,431070.5,NULL,Schock,mshtuko,d,NA,NA,NA,NA,sdfdsf,NA,1,NA,NA,NA,NA,NA,NA,NA,NA,NA,NA,NA,NA,NA,NA,NA,NA,NA,NA,NA
d5c4a,task,flow.Sequence,3_0_1_0_1,NA,NA,completion,11559.4,419479.6,419477.1,419494,431053.4,431055.3,2024-03-25T14:44:13Z,431070.5,NULL,Schock,mshtuko,d,NA,NA,NA,NA,sdfdsf,NA,1,NA,NA,NA,NA,NA,NA,NA,NA,NA,NA,NA,NA,NA,NA,NA,NA,NA,NA,NA
d5c4a,Deep Question,html.Page,3_0_1_0_2_0_0,NA,NA,form submission,7559.1000000001,431055.4,431053.4,431070.5,438629.6,438629.8,2024-03-25T14:44:20Z,438633.468,NULL,Schönheit,kirembo,d,NA,NA,NA,kirembo,NA,NA,1,NA,NA,NA,NA,NA,NA,NA,NA,NA,NA,NA,NA,NA,NA,NA,NA,NA,NA,NA
d5c4a,"""Richtig""-Screen",canvas.Screen,3_0_1_0_2_0_1,NA,NA,timeout,4995.732,438632.8,438633.468,438633.468,443612.7,443613.2,2024-03-25T14:44:25Z,443629.2,NULL,Schönheit,kirembo,d,NA,NA,NA,NA,sdfdsf,1,1,NA,NA,NA,NA,NA,NA,NA,NA,NA,NA,NA,NA,NA,NA,NA,NA,NA,NA,NA
d5c4a,"""Falsch""-Screen",canvas.Screen,3_0_1_0_2_0_2,NA,NA,skipped,NA,443614.7,NA,NA,443612.7,443614.8,2024-03-25T14:44:25Z,443629.2,NULL,Schönheit,kirembo,d,NA,NA,NA,NA,sdfdsf,NA,1,NA,NA,NA,NA,NA,NA,NA,NA,NA,NA,NA,NA,NA,NA,NA,NA,NA,NA,NA
d5c4a,deep,flow.Sequence,3_0_1_0_2_0,NA,NA,completion,12542.2,431055.3,431053.4,431070.5,443612.7,443614.9,2024-03-25T14:44:25Z,443629.2,NULL,Schönheit,kirembo,d,NA,NA,NA,NA,sdfdsf,NA,1,NA,NA,NA,NA,NA,NA,NA,NA,NA,NA,NA,NA,NA,NA,NA,NA,NA,NA,NA
d5c4a,shallow,flow.Sequence,3_0_1_0_2_1,NA,NA,skipped,NA,443614.9,NA,NA,443612.7,443614.9,2024-03-25T14:44:25Z,443629.2,NULL,Schönheit,kirembo,d,NA,NA,NA,NA,sdfdsf,NA,1,NA,NA,NA,NA,NA,NA,NA,NA,NA,NA,NA,NA,NA,NA,NA,NA,NA,NA,NA
d5c4a,task,flow.Sequence,3_0_1_0_2,NA,NA,completion,12542.2,431055.3,431053.4,431070.5,443612.7,443615,2024-03-25T14:44:25Z,443629.2,NULL,Schönheit,kirembo,d,NA,NA,NA,NA,sdfdsf,NA,1,NA,NA,NA,NA,NA,NA,NA,NA,NA,NA,NA,NA,NA,NA,NA,NA,NA,NA,NA
d5c4a,Deep Question,html.Page,3_0_1_0_3_0_0,NA,NA,form submission,6490.5000000002,443615,443612.7,443629.2,450119.7,450120,2024-03-25T14:44:32Z,450141.5,NULL,Theorie,nadharia,d,NA,NA,NA,nadhira,NA,NA,1,NA,NA,NA,NA,NA,NA,NA,NA,NA,NA,NA,NA,NA,NA,NA,NA,NA,NA,NA
d5c4a,"""Richtig""-Screen",canvas.Screen,3_0_1_0_3_0_1,NA,NA,skipped,NA,450122.9,NA,NA,450119.7,450123,2024-03-25T14:44:32Z,450141.5,NULL,Theorie,nadharia,d,NA,NA,NA,NA,sdfdsf,NA,1,NA,NA,NA,NA,NA,NA,NA,NA,NA,NA,NA,NA,NA,NA,NA,NA,NA,NA,NA
d5c4a,"""Falsch""-Screen",canvas.Screen,3_0_1_0_3_0_2,NA,NA,timeout,4997,450123.4,450125.3,450141.5,455121.9,455124.2,2024-03-25T14:44:37Z,455138.5,NULL,Theorie,nadharia,d,NA,NA,NA,NA,sdfdsf,0,1,NA,NA,NA,NA,NA,NA,NA,NA,NA,NA,NA,NA,NA,NA,NA,NA,NA,NA,NA
d5c4a,deep,flow.Sequence,3_0_1_0_3_0,NA,NA,completion,11492.7,443615,443612.7,443629.2,455121.9,455124.6,2024-03-25T14:44:37Z,455138.5,NULL,Theorie,nadharia,d,NA,NA,NA,NA,sdfdsf,NA,1,NA,NA,NA,NA,NA,NA,NA,NA,NA,NA,NA,NA,NA,NA,NA,NA,NA,NA,NA
d5c4a,shallow,flow.Sequence,3_0_1_0_3_1,NA,NA,skipped,NA,455124.8,NA,NA,455121.9,455125,2024-03-25T14:44:37Z,455138.5,NULL,Theorie,nadharia,d,NA,NA,NA,NA,sdfdsf,NA,1,NA,NA,NA,NA,NA,NA,NA,NA,NA,NA,NA,NA,NA,NA,NA,NA,NA,NA,NA
d5c4a,task,flow.Sequence,3_0_1_0_3,NA,NA,completion,11492.7,443615,443612.7,443629.2,455121.9,455125.2,2024-03-25T14:44:37Z,455138.5,NULL,Theorie,nadharia,d,NA,NA,NA,NA,sdfdsf,NA,1,NA,NA,NA,NA,NA,NA,NA,NA,NA,NA,NA,NA,NA,NA,NA,NA,NA,NA,NA
d5c4a,deep,flow.Sequence,3_0_1_0_4_0,NA,NA,skipped,NA,455125.3,NA,NA,455121.9,455125.4,2024-03-25T14:44:37Z,455138.5,NULL,Auftrag,uagizaji,s,ghanima,kuzingatia,msukani,NA,sdfdsf,NA,1,NA,NA,NA,NA,NA,NA,NA,NA,NA,NA,NA,NA,NA,NA,NA,NA,NA,NA,NA
d5c4a,Shallow Question,html.Page,3_0_1_0_4_1_0,NA,NA,form submission,10125.1,455125.6,455121.9,455138.5,465263.6,465263.7,2024-03-25T14:44:47Z,465266.724,NULL,Auftrag,uagizaji,s,ghanima,kuzingatia,msukani,uagizaji,NA,NA,1,NA,NA,NA,NA,NA,NA,NA,NA,NA,NA,NA,NA,NA,NA,NA,NA,NA,NA,NA
d5c4a,"""Richtig""-Screen",canvas.Screen,3_0_1_0_4_1_1,NA,NA,timeout,4996.276,465266.8,465266.724,465266.724,470246.2,470247.3,2024-03-25T14:44:52Z,470263,NULL,Auftrag,uagizaji,s,ghanima,kuzingatia,msukani,NA,sdfdsf,1,1,NA,NA,NA,NA,NA,NA,NA,NA,NA,NA,NA,NA,NA,NA,NA,NA,NA,NA,NA
d5c4a,"""Falsch""-Screen",canvas.Screen,3_0_1_0_4_1_2,NA,NA,skipped,NA,470252.2,NA,NA,470246.2,470252.5,2024-03-25T14:44:52Z,470263,NULL,Auftrag,uagizaji,s,ghanima,kuzingatia,msukani,NA,sdfdsf,NA,1,NA,NA,NA,NA,NA,NA,NA,NA,NA,NA,NA,NA,NA,NA,NA,NA,NA,NA,NA
d5c4a,shallow,flow.Sequence,3_0_1_0_4_1,NA,NA,completion,15107.7,455125.6,455121.9,455138.5,470246.2,470252.6,2024-03-25T14:44:52Z,470263,NULL,Auftrag,uagizaji,s,ghanima,kuzingatia,msukani,NA,sdfdsf,NA,1,NA,NA,NA,NA,NA,NA,NA,NA,NA,NA,NA,NA,NA,NA,NA,NA,NA,NA,NA
d5c4a,task,flow.Sequence,3_0_1_0_4,NA,NA,completion,15107.7,455125.3,455121.9,455138.5,470246.2,470252.7,2024-03-25T14:44:52Z,470263,NULL,Auftrag,uagizaji,s,ghanima,kuzingatia,msukani,NA,sdfdsf,NA,1,NA,NA,NA,NA,NA,NA,NA,NA,NA,NA,NA,NA,NA,NA,NA,NA,NA,NA,NA
d5c4a,Deep Question,html.Page,3_0_1_0_5_0_0,NA,NA,form submission,14720.8,470252.7,470246.2,470263,484983.8,484984,2024-03-25T14:45:07Z,484988.84,NULL,Zufall,kikuti,d,NA,NA,NA,kined,NA,NA,1,NA,NA,NA,NA,NA,NA,NA,NA,NA,NA,NA,NA,NA,NA,NA,NA,NA,NA,NA
d5c4a,"""Richtig""-Screen",canvas.Screen,3_0_1_0_5_0_1,NA,NA,skipped,NA,484987.2,NA,NA,484983.8,484987.3,2024-03-25T14:45:07Z,484988.84,NULL,Zufall,kikuti,d,NA,NA,NA,NA,sdfdsf,NA,1,NA,NA,NA,NA,NA,NA,NA,NA,NA,NA,NA,NA,NA,NA,NA,NA,NA,NA,NA
d5c4a,"""Falsch""-Screen",canvas.Screen,3_0_1_0_5_0_2,NA,NA,timeout,4995.46,484988.1,484988.84,484988.84,489967.4,489969.3,2024-03-25T14:45:12Z,489984.3,NULL,Zufall,kikuti,d,NA,NA,NA,NA,sdfdsf,0,1,NA,NA,NA,NA,NA,NA,NA,NA,NA,NA,NA,NA,NA,NA,NA,NA,NA,NA,NA
d5c4a,deep,flow.Sequence,3_0_1_0_5_0,NA,NA,completion,19704.4,470252.7,470246.2,470263,489967.4,489969.5,2024-03-25T14:45:12Z,489984.3,NULL,Zufall,kikuti,d,NA,NA,NA,NA,sdfdsf,NA,1,NA,NA,NA,NA,NA,NA,NA,NA,NA,NA,NA,NA,NA,NA,NA,NA,NA,NA,NA
d5c4a,shallow,flow.Sequence,3_0_1_0_5_1,NA,NA,skipped,NA,489969.7,NA,NA,489967.4,489969.8,2024-03-25T14:45:12Z,489984.3,NULL,Zufall,kikuti,d,NA,NA,NA,NA,sdfdsf,NA,1,NA,NA,NA,NA,NA,NA,NA,NA,NA,NA,NA,NA,NA,NA,NA,NA,NA,NA,NA
d5c4a,task,flow.Sequence,3_0_1_0_5,NA,NA,completion,19704.4,470252.7,470246.2,470263,489967.4,489970,2024-03-25T14:45:12Z,489984.3,NULL,Zufall,kikuti,d,NA,NA,NA,NA,sdfdsf,NA,1,NA,NA,NA,NA,NA,NA,NA,NA,NA,NA,NA,NA,NA,NA,NA,NA,NA,NA,NA
d5c4a,deep,flow.Sequence,3_0_1_0_6_0,NA,NA,skipped,NA,489970.2,NA,NA,489967.4,489970.2,2024-03-25T14:45:12Z,489984.3,NULL,Wettbewerb,ushindani,s,mapendezi,kichocheo,ubaguzi,NA,sdfdsf,NA,1,NA,NA,NA,NA,NA,NA,NA,NA,NA,NA,NA,NA,NA,NA,NA,NA,NA,NA,NA
d5c4a,Shallow Question,html.Page,3_0_1_0_6_1_0,NA,NA,form submission,12770.8,489970.3,489967.4,489984.3,502755.1,502755.3,2024-03-25T14:45:25Z,502759.4,NULL,Wettbewerb,ushindani,s,mapendezi,kichocheo,ubaguzi,ushindani,NA,NA,1,NA,NA,NA,NA,NA,NA,NA,NA,NA,NA,NA,NA,NA,NA,NA,NA,NA,NA,NA
d5c4a,"""Richtig""-Screen",canvas.Screen,3_0_1_0_6_1_1,NA,NA,timeout,4997.3,502758.2,502744.81,502759.4,507740.1,507741.1,2024-03-25T14:45:30Z,507756.7,NULL,Wettbewerb,ushindani,s,mapendezi,kichocheo,ubaguzi,NA,sdfdsf,1,1,NA,NA,NA,NA,NA,NA,NA,NA,NA,NA,NA,NA,NA,NA,NA,NA,NA,NA,NA
d5c4a,"""Falsch""-Screen",canvas.Screen,3_0_1_0_6_1_2,NA,NA,skipped,NA,507746.4,NA,NA,507740.1,507746.5,2024-03-25T14:45:30Z,507756.7,NULL,Wettbewerb,ushindani,s,mapendezi,kichocheo,ubaguzi,NA,sdfdsf,NA,1,NA,NA,NA,NA,NA,NA,NA,NA,NA,NA,NA,NA,NA,NA,NA,NA,NA,NA,NA
d5c4a,shallow,flow.Sequence,3_0_1_0_6_1,NA,NA,completion,17755.8,489970.3,489967.4,489984.3,507740.1,507746.6,2024-03-25T14:45:30Z,507756.7,NULL,Wettbewerb,ushindani,s,mapendezi,kichocheo,ubaguzi,NA,sdfdsf,NA,1,NA,NA,NA,NA,NA,NA,NA,NA,NA,NA,NA,NA,NA,NA,NA,NA,NA,NA,NA
d5c4a,task,flow.Sequence,3_0_1_0_6,NA,NA,completion,17755.8,489970.1,489967.4,489984.3,507740.1,507746.7,2024-03-25T14:45:30Z,507756.7,NULL,Wettbewerb,ushindani,s,mapendezi,kichocheo,ubaguzi,NA,sdfdsf,NA,1,NA,NA,NA,NA,NA,NA,NA,NA,NA,NA,NA,NA,NA,NA,NA,NA,NA,NA,NA
d5c4a,deep,flow.Sequence,3_0_1_0_7_0,NA,NA,skipped,NA,507746.7,NA,NA,507740.1,507746.7,2024-03-25T14:45:30Z,507756.7,NULL,Verpackung,ufungaji,s,uhusiano,upimaji,uchunguzi,NA,sdfdsf,NA,1,NA,NA,NA,NA,NA,NA,NA,NA,NA,NA,NA,NA,NA,NA,NA,NA,NA,NA,NA
d5c4a,Shallow Question,html.Page,3_0_1_0_7_1_0,NA,NA,form submission,17538.6,507746.8,507740.1,507756.7,525295.3,525295.6,2024-03-25T14:45:47Z,525297.196,NULL,Verpackung,ufungaji,s,uhusiano,upimaji,uchunguzi,ufungaji,NA,NA,1,NA,NA,NA,NA,NA,NA,NA,NA,NA,NA,NA,NA,NA,NA,NA,NA,NA,NA,NA
d5c4a,"""Richtig""-Screen",canvas.Screen,3_0_1_0_7_1_1,NA,NA,timeout,4995.904,525298.1,525297.196,525297.196,530276.2,530277.2,2024-03-25T14:45:52Z,530293.1,NULL,Verpackung,ufungaji,s,uhusiano,upimaji,uchunguzi,NA,sdfdsf,1,1,NA,NA,NA,NA,NA,NA,NA,NA,NA,NA,NA,NA,NA,NA,NA,NA,NA,NA,NA
d5c4a,"""Falsch""-Screen",canvas.Screen,3_0_1_0_7_1_2,NA,NA,skipped,NA,530282.3,NA,NA,530276.2,530282.4,2024-03-25T14:45:52Z,530293.1,NULL,Verpackung,ufungaji,s,uhusiano,upimaji,uchunguzi,NA,sdfdsf,NA,1,NA,NA,NA,NA,NA,NA,NA,NA,NA,NA,NA,NA,NA,NA,NA,NA,NA,NA,NA
d5c4a,shallow,flow.Sequence,3_0_1_0_7_1,NA,NA,completion,22519.5,507746.8,507740.1,507756.7,530276.2,530282.6,2024-03-25T14:45:52Z,530293.1,NULL,Verpackung,ufungaji,s,uhusiano,upimaji,uchunguzi,NA,sdfdsf,NA,1,NA,NA,NA,NA,NA,NA,NA,NA,NA,NA,NA,NA,NA,NA,NA,NA,NA,NA,NA
d5c4a,task,flow.Sequence,3_0_1_0_7,NA,NA,completion,22519.5,507746.7,507740.1,507756.7,530276.2,530282.6,2024-03-25T14:45:52Z,530293.1,NULL,Verpackung,ufungaji,s,uhusiano,upimaji,uchunguzi,NA,sdfdsf,NA,1,NA,NA,NA,NA,NA,NA,NA,NA,NA,NA,NA,NA,NA,NA,NA,NA,NA,NA,NA
d5c4a,block,flow.Loop,3_0_1_0,NA,NA,completion,129621.1,400653.1,400640.206,400655.1,530276.2,530282.7,2024-03-25T14:45:52Z,530293.1,NULL,NA,NA,NA,NA,NA,NA,NA,sdfdsf,NA,1,NA,NA,NA,NA,NA,NA,NA,NA,NA,NA,NA,NA,NA,NA,NA,NA,NA,NA,NA
d5c4a,weiter,canvas.Screen,3_0_1_1,sdf,keypress(Space),response,1309.1000000002,530282.7,530276.2,530293.1,531602.2,531603.2,2024-03-25T14:45:53Z,531641.8,NULL,NA,NA,NA,NA,NA,NA,NA,sdfdsf,NA,1,NA,NA,NA,NA,NA,NA,NA,NA,NA,NA,NA,NA,NA,NA,NA,NA,NA,NA,NA
d5c4a,check continue,flow.Sequence,3_0_1,NA,NA,completion,130947.1,400653,400640.206,400655.1,531602.2,531603.4,2024-03-25T14:45:53Z,531641.8,NULL,NA,NA,NA,NA,NA,NA,NA,sdfdsf,NA,1,NA,NA,NA,NA,NA,NA,NA,NA,NA,NA,NA,NA,NA,NA,NA,NA,NA,NA,NA
d5c4a,Deep Question,html.Page,3_0_2_0_0_0_0,NA,NA,form submission,14142.5,531627,531626.38,531641.8,545784.3,545784.6,2024-03-25T14:46:08Z,545799.9,NULL,Zufall,kikuti,d,NA,NA,NA,nadharia,NA,NA,2,NA,NA,NA,NA,NA,NA,NA,NA,NA,NA,NA,NA,NA,NA,NA,NA,NA,NA,NA
d5c4a,"""Richtig""-Screen",canvas.Screen,3_0_2_0_0_0_1,NA,NA,skipped,NA,545787.7,NA,NA,545784.3,545787.8,2024-03-25T14:46:08Z,545799.9,NULL,Zufall,kikuti,d,NA,NA,NA,NA,sdf,NA,2,NA,NA,NA,NA,NA,NA,NA,NA,NA,NA,NA,NA,NA,NA,NA,NA,NA,NA,NA
d5c4a,"""Falsch""-Screen",canvas.Screen,3_0_2_0_0_0_2,NA,NA,timeout,4997.2999999999,545788.2,545784.65,545799.9,550780.6,550781.6,2024-03-25T14:46:13Z,550797.2,NULL,Zufall,kikuti,d,NA,NA,NA,NA,sdf,0,2,NA,NA,NA,NA,NA,NA,NA,NA,NA,NA,NA,NA,NA,NA,NA,NA,NA,NA,NA
d5c4a,deep,flow.Sequence,3_0_2_0_0_0,NA,NA,completion,19138.8,531626.9,531626.38,531641.8,550780.6,550782,2024-03-25T14:46:13Z,550797.2,NULL,Zufall,kikuti,d,NA,NA,NA,NA,sdf,NA,2,NA,NA,NA,NA,NA,NA,NA,NA,NA,NA,NA,NA,NA,NA,NA,NA,NA,NA,NA
d5c4a,shallow,flow.Sequence,3_0_2_0_0_1,NA,NA,skipped,NA,550782.1,NA,NA,550780.6,550782.2,2024-03-25T14:46:13Z,550797.2,NULL,Zufall,kikuti,d,NA,NA,NA,NA,sdf,NA,2,NA,NA,NA,NA,NA,NA,NA,NA,NA,NA,NA,NA,NA,NA,NA,NA,NA,NA,NA
d5c4a,task,flow.Sequence,3_0_2_0_0,NA,NA,completion,19138.8,531626.9,531626.38,531641.8,550780.6,550782.5,2024-03-25T14:46:13Z,550797.2,NULL,Zufall,kikuti,d,NA,NA,NA,NA,sdf,NA,2,NA,NA,NA,NA,NA,NA,NA,NA,NA,NA,NA,NA,NA,NA,NA,NA,NA,NA,NA
d5c4a,Deep Question,html.Page,3_0_2_0_1_0_0,NA,NA,form submission,7237.9000000001,550782.6,550780.6,550797.2,558035.1,558035.3,2024-03-25T14:46:20Z,558042.4,NULL,Theorie,nadharia,d,NA,NA,NA,nadharia,NA,NA,2,NA,NA,NA,NA,NA,NA,NA,NA,NA,NA,NA,NA,NA,NA,NA,NA,NA,NA,NA
d5c4a,"""Richtig""-Screen",canvas.Screen,3_0_2_0_1_0_1,NA,NA,timeout,4997.4,558038.3,558027.762,558042.4,563022.9,563023.9,2024-03-25T14:46:25Z,563039.8,NULL,Theorie,nadharia,d,NA,NA,NA,NA,sdf,1,2,NA,NA,NA,NA,NA,NA,NA,NA,NA,NA,NA,NA,NA,NA,NA,NA,NA,NA,NA
d5c4a,"""Falsch""-Screen",canvas.Screen,3_0_2_0_1_0_2,NA,NA,skipped,NA,563028.6,NA,NA,563022.9,563028.7,2024-03-25T14:46:25Z,563039.8,NULL,Theorie,nadharia,d,NA,NA,NA,NA,sdf,NA,2,NA,NA,NA,NA,NA,NA,NA,NA,NA,NA,NA,NA,NA,NA,NA,NA,NA,NA,NA
d5c4a,deep,flow.Sequence,3_0_2_0_1_0,NA,NA,completion,12225.7,550782.6,550780.6,550797.2,563022.9,563028.8,2024-03-25T14:46:25Z,563039.8,NULL,Theorie,nadharia,d,NA,NA,NA,NA,sdf,NA,2,NA,NA,NA,NA,NA,NA,NA,NA,NA,NA,NA,NA,NA,NA,NA,NA,NA,NA,NA
d5c4a,shallow,flow.Sequence,3_0_2_0_1_1,NA,NA,skipped,NA,563028.9,NA,NA,563022.9,563028.9,2024-03-25T14:46:25Z,563039.8,NULL,Theorie,nadharia,d,NA,NA,NA,NA,sdf,NA,2,NA,NA,NA,NA,NA,NA,NA,NA,NA,NA,NA,NA,NA,NA,NA,NA,NA,NA,NA
d5c4a,task,flow.Sequence,3_0_2_0_1,NA,NA,completion,12225.7,550782.6,550780.6,550797.2,563022.9,563029,2024-03-25T14:46:25Z,563039.8,NULL,Theorie,nadharia,d,NA,NA,NA,NA,sdf,NA,2,NA,NA,NA,NA,NA,NA,NA,NA,NA,NA,NA,NA,NA,NA,NA,NA,NA,NA,NA
d5c4a,deep,flow.Sequence,3_0_2_0_2_0,NA,NA,skipped,NA,563029,NA,NA,563022.9,563029,2024-03-25T14:46:25Z,563039.8,NULL,Verpackung,ufungaji,s,uhusiano,upimaji,uchunguzi,NA,sdf,NA,2,NA,NA,NA,NA,NA,NA,NA,NA,NA,NA,NA,NA,NA,NA,NA,NA,NA,NA,NA
d5c4a,Shallow Question,html.Page,3_0_2_0_2_1_0,NA,NA,form submission,11938.2,563029,563022.9,563039.8,574978,574978.2,2024-03-25T14:46:37Z,574982.2,NULL,Verpackung,ufungaji,s,uhusiano,upimaji,uchunguzi,ufungaji,NA,NA,2,NA,NA,NA,NA,NA,NA,NA,NA,NA,NA,NA,NA,NA,NA,NA,NA,NA,NA,NA
d5c4a,"""Richtig""-Screen",canvas.Screen,3_0_2_0_2_1_1,NA,NA,timeout,4997.2000000001,574981.1,574966.922,574982.2,579962.5,579963.5,2024-03-25T14:46:42Z,579979.4,NULL,Verpackung,ufungaji,s,uhusiano,upimaji,uchunguzi,NA,sdf,1,2,NA,NA,NA,NA,NA,NA,NA,NA,NA,NA,NA,NA,NA,NA,NA,NA,NA,NA,NA
d5c4a,"""Falsch""-Screen",canvas.Screen,3_0_2_0_2_1_2,NA,NA,skipped,NA,579968.1,NA,NA,579962.5,579968.1,2024-03-25T14:46:42Z,579979.4,NULL,Verpackung,ufungaji,s,uhusiano,upimaji,uchunguzi,NA,sdf,NA,2,NA,NA,NA,NA,NA,NA,NA,NA,NA,NA,NA,NA,NA,NA,NA,NA,NA,NA,NA
d5c4a,shallow,flow.Sequence,3_0_2_0_2_1,NA,NA,completion,16922.7,563029,563022.9,563039.8,579962.5,579968.2,2024-03-25T14:46:42Z,579979.4,NULL,Verpackung,ufungaji,s,uhusiano,upimaji,uchunguzi,NA,sdf,NA,2,NA,NA,NA,NA,NA,NA,NA,NA,NA,NA,NA,NA,NA,NA,NA,NA,NA,NA,NA
d5c4a,task,flow.Sequence,3_0_2_0_2,NA,NA,completion,16922.7,563029,563022.9,563039.8,579962.5,579968.2,2024-03-25T14:46:42Z,579979.4,NULL,Verpackung,ufungaji,s,uhusiano,upimaji,uchunguzi,NA,sdf,NA,2,NA,NA,NA,NA,NA,NA,NA,NA,NA,NA,NA,NA,NA,NA,NA,NA,NA,NA,NA
d5c4a,deep,flow.Sequence,3_0_2_0_3_0,NA,NA,skipped,NA,579968.3,NA,NA,579962.5,579968.4,2024-03-25T14:46:42Z,579979.4,NULL,Hoffnung,matarajio,s,kutaalamika,uratibu,mvumbuzi,NA,sdf,NA,2,NA,NA,NA,NA,NA,NA,NA,NA,NA,NA,NA,NA,NA,NA,NA,NA,NA,NA,NA
d5c4a,Shallow Question,html.Page,3_0_2_0_3_1_0,NA,NA,form submission,8615.6,579968.4,579962.5,579979.4,588595,588595.2,2024-03-25T14:46:50Z,588607,NULL,Hoffnung,matarajio,s,kutaalamika,uratibu,mvumbuzi,mvumbuzi,NA,NA,2,NA,NA,NA,NA,NA,NA,NA,NA,NA,NA,NA,NA,NA,NA,NA,NA,NA,NA,NA
d5c4a,"""Richtig""-Screen",canvas.Screen,3_0_2_0_3_1_1,NA,NA,skipped,NA,588598,NA,NA,588595,588598.2,2024-03-25T14:46:50Z,588607,NULL,Hoffnung,matarajio,s,kutaalamika,uratibu,mvumbuzi,NA,sdf,NA,2,NA,NA,NA,NA,NA,NA,NA,NA,NA,NA,NA,NA,NA,NA,NA,NA,NA,NA,NA
d5c4a,"""Falsch""-Screen",canvas.Screen,3_0_2_0_3_1_2,NA,NA,timeout,4997.4,588598.7,588592.49,588607,593587.6,593588.8,2024-03-25T14:46:55Z,593604.4,NULL,Hoffnung,matarajio,s,kutaalamika,uratibu,mvumbuzi,NA,sdf,0,2,NA,NA,NA,NA,NA,NA,NA,NA,NA,NA,NA,NA,NA,NA,NA,NA,NA,NA,NA
d5c4a,shallow,flow.Sequence,3_0_2_0_3_1,NA,NA,completion,13608.2,579968.4,579962.5,579979.4,593587.6,593589.3,2024-03-25T14:46:55Z,593604.4,NULL,Hoffnung,matarajio,s,kutaalamika,uratibu,mvumbuzi,NA,sdf,NA,2,NA,NA,NA,NA,NA,NA,NA,NA,NA,NA,NA,NA,NA,NA,NA,NA,NA,NA,NA
d5c4a,task,flow.Sequence,3_0_2_0_3,NA,NA,completion,13608.2,579968.3,579962.5,579979.4,593587.6,593589.4,2024-03-25T14:46:55Z,593604.4,NULL,Hoffnung,matarajio,s,kutaalamika,uratibu,mvumbuzi,NA,sdf,NA,2,NA,NA,NA,NA,NA,NA,NA,NA,NA,NA,NA,NA,NA,NA,NA,NA,NA,NA,NA
d5c4a,deep,flow.Sequence,3_0_2_0_4_0,NA,NA,skipped,NA,593589.6,NA,NA,593587.6,593589.8,2024-03-25T14:46:55Z,593604.4,NULL,Wettbewerb,ushindani,s,mapendezi,kichocheo,ubaguzi,NA,sdf,NA,2,NA,NA,NA,NA,NA,NA,NA,NA,NA,NA,NA,NA,NA,NA,NA,NA,NA,NA,NA
d5c4a,Shallow Question,html.Page,3_0_2_0_4_1_0,NA,NA,form submission,10004,593590,593587.6,593604.4,603608.4,603608.6,2024-03-25T14:47:05Z,603614.5,NULL,Wettbewerb,ushindani,s,mapendezi,kichocheo,ubaguzi,ushindani,NA,NA,2,NA,NA,NA,NA,NA,NA,NA,NA,NA,NA,NA,NA,NA,NA,NA,NA,NA,NA,NA
d5c4a,"""Richtig""-Screen",canvas.Screen,3_0_2_0_4_1_1,NA,NA,timeout,4997.6,603611.6,603598.7,603614.5,608594.9,608596,2024-03-25T14:47:10Z,608612.1,NULL,Wettbewerb,ushindani,s,mapendezi,kichocheo,ubaguzi,NA,sdf,1,2,NA,NA,NA,NA,NA,NA,NA,NA,NA,NA,NA,NA,NA,NA,NA,NA,NA,NA,NA
d5c4a,"""Falsch""-Screen",canvas.Screen,3_0_2_0_4_1_2,NA,NA,skipped,NA,608601.1,NA,NA,608594.9,608601.2,2024-03-25T14:47:10Z,608612.1,NULL,Wettbewerb,ushindani,s,mapendezi,kichocheo,ubaguzi,NA,sdf,NA,2,NA,NA,NA,NA,NA,NA,NA,NA,NA,NA,NA,NA,NA,NA,NA,NA,NA,NA,NA
d5c4a,shallow,flow.Sequence,3_0_2_0_4_1,NA,NA,completion,14990.5,593590,593587.6,593604.4,608594.9,608601.4,2024-03-25T14:47:10Z,608612.1,NULL,Wettbewerb,ushindani,s,mapendezi,kichocheo,ubaguzi,NA,sdf,NA,2,NA,NA,NA,NA,NA,NA,NA,NA,NA,NA,NA,NA,NA,NA,NA,NA,NA,NA,NA
d5c4a,task,flow.Sequence,3_0_2_0_4,NA,NA,completion,14990.5,593589.6,593587.6,593604.4,608594.9,608601.4,2024-03-25T14:47:10Z,608612.1,NULL,Wettbewerb,ushindani,s,mapendezi,kichocheo,ubaguzi,NA,sdf,NA,2,NA,NA,NA,NA,NA,NA,NA,NA,NA,NA,NA,NA,NA,NA,NA,NA,NA,NA,NA
d5c4a,deep,flow.Sequence,3_0_2_0_5_0,NA,NA,skipped,NA,608601.4,NA,NA,608594.9,608601.4,2024-03-25T14:47:10Z,608612.1,NULL,Auftrag,uagizaji,s,ghanima,kuzingatia,msukani,NA,sdf,NA,2,NA,NA,NA,NA,NA,NA,NA,NA,NA,NA,NA,NA,NA,NA,NA,NA,NA,NA,NA
d5c4a,Shallow Question,html.Page,3_0_2_0_5_1_0,NA,NA,form submission,10710.6,608601.4,608594.9,608612.1,619322.7,619323,2024-03-25T14:47:21Z,619338.6,NULL,Auftrag,uagizaji,s,ghanima,kuzingatia,msukani,uagizaji,NA,NA,2,NA,NA,NA,NA,NA,NA,NA,NA,NA,NA,NA,NA,NA,NA,NA,NA,NA,NA,NA
d5c4a,"""Richtig""-Screen",canvas.Screen,3_0_2_0_5_1_1,NA,NA,timeout,4996.9,619325.9,619323.626,619338.6,624319,624319.6,2024-03-25T14:47:26Z,624335.5,NULL,Auftrag,uagizaji,s,ghanima,kuzingatia,msukani,NA,sdf,1,2,NA,NA,NA,NA,NA,NA,NA,NA,NA,NA,NA,NA,NA,NA,NA,NA,NA,NA,NA
d5c4a,"""Falsch""-Screen",canvas.Screen,3_0_2_0_5_1_2,NA,NA,skipped,NA,624321.8,NA,NA,624319,624321.9,2024-03-25T14:47:26Z,624335.5,NULL,Auftrag,uagizaji,s,ghanima,kuzingatia,msukani,NA,sdf,NA,2,NA,NA,NA,NA,NA,NA,NA,NA,NA,NA,NA,NA,NA,NA,NA,NA,NA,NA,NA
d5c4a,shallow,flow.Sequence,3_0_2_0_5_1,NA,NA,completion,15706.9,608601.4,608594.9,608612.1,624319,624322.1,2024-03-25T14:47:26Z,624335.5,NULL,Auftrag,uagizaji,s,ghanima,kuzingatia,msukani,NA,sdf,NA,2,NA,NA,NA,NA,NA,NA,NA,NA,NA,NA,NA,NA,NA,NA,NA,NA,NA,NA,NA
d5c4a,task,flow.Sequence,3_0_2_0_5,NA,NA,completion,15706.9,608601.4,608594.9,608612.1,624319,624322.2,2024-03-25T14:47:26Z,624335.5,NULL,Auftrag,uagizaji,s,ghanima,kuzingatia,msukani,NA,sdf,NA,2,NA,NA,NA,NA,NA,NA,NA,NA,NA,NA,NA,NA,NA,NA,NA,NA,NA,NA,NA
d5c4a,Deep Question,html.Page,3_0_2_0_6_0_0,NA,NA,form submission,25359.1,624322.2,624319,624335.5,649694.6,649694.9,2024-03-25T14:47:51Z,649703.1,NULL,Schönheit,kirembo,d,NA,NA,NA,kirembo,NA,NA,2,NA,NA,NA,NA,NA,NA,NA,NA,NA,NA,NA,NA,NA,NA,NA,NA,NA,NA,NA
d5c4a,"""Richtig""-Screen",canvas.Screen,3_0_2_0_6_0_1,NA,NA,timeout,4997,649697.8,649687.504,649703.1,654683.6,654684.7,2024-03-25T14:47:56Z,654700.1,NULL,Schönheit,kirembo,d,NA,NA,NA,NA,sdf,1,2,NA,NA,NA,NA,NA,NA,NA,NA,NA,NA,NA,NA,NA,NA,NA,NA,NA,NA,NA
d5c4a,"""Falsch""-Screen",canvas.Screen,3_0_2_0_6_0_2,NA,NA,skipped,NA,654689.4,NA,NA,654683.6,654689.6,2024-03-25T14:47:56Z,654700.1,NULL,Schönheit,kirembo,d,NA,NA,NA,NA,sdf,NA,2,NA,NA,NA,NA,NA,NA,NA,NA,NA,NA,NA,NA,NA,NA,NA,NA,NA,NA,NA
d5c4a,deep,flow.Sequence,3_0_2_0_6_0,NA,NA,completion,30348.1,624322.2,624319,624335.5,654683.6,654689.8,2024-03-25T14:47:56Z,654700.1,NULL,Schönheit,kirembo,d,NA,NA,NA,NA,sdf,NA,2,NA,NA,NA,NA,NA,NA,NA,NA,NA,NA,NA,NA,NA,NA,NA,NA,NA,NA,NA
d5c4a,shallow,flow.Sequence,3_0_2_0_6_1,NA,NA,skipped,NA,654689.9,NA,NA,654683.6,654690,2024-03-25T14:47:56Z,654700.1,NULL,Schönheit,kirembo,d,NA,NA,NA,NA,sdf,NA,2,NA,NA,NA,NA,NA,NA,NA,NA,NA,NA,NA,NA,NA,NA,NA,NA,NA,NA,NA
d5c4a,task,flow.Sequence,3_0_2_0_6,NA,NA,completion,30348.1,624322.2,624319,624335.5,654683.6,654690,2024-03-25T14:47:56Z,654700.1,NULL,Schönheit,kirembo,d,NA,NA,NA,NA,sdf,NA,2,NA,NA,NA,NA,NA,NA,NA,NA,NA,NA,NA,NA,NA,NA,NA,NA,NA,NA,NA
d5c4a,Deep Question,html.Page,3_0_2_0_7_0_0,NA,NA,form submission,10897.9,654690,654683.6,654700.1,665598,665598.1,2024-03-25T14:48:07Z,665610,NULL,Schock,mshtuko,d,NA,NA,NA,shtuko,NA,NA,2,NA,NA,NA,NA,NA,NA,NA,NA,NA,NA,NA,NA,NA,NA,NA,NA,NA,NA,NA
d5c4a,"""Richtig""-Screen",canvas.Screen,3_0_2_0_7_0_1,NA,NA,skipped,NA,665601.3,NA,NA,665598,665601.4,2024-03-25T14:48:07Z,665610,NULL,Schock,mshtuko,d,NA,NA,NA,NA,sdf,NA,2,NA,NA,NA,NA,NA,NA,NA,NA,NA,NA,NA,NA,NA,NA,NA,NA,NA,NA,NA
d5c4a,"""Falsch""-Screen",canvas.Screen,3_0_2_0_7_0_2,NA,NA,timeout,4997.5,665602.2,665594.268,665610,670590.6,670591.6,2024-03-25T14:48:12Z,670607.5,NULL,Schock,mshtuko,d,NA,NA,NA,NA,sdf,0,2,NA,NA,NA,NA,NA,NA,NA,NA,NA,NA,NA,NA,NA,NA,NA,NA,NA,NA,NA
d5c4a,deep,flow.Sequence,3_0_2_0_7_0,NA,NA,completion,15890.5,654690,654683.6,654700.1,670590.6,670592.1,2024-03-25T14:48:12Z,670607.5,NULL,Schock,mshtuko,d,NA,NA,NA,NA,sdf,NA,2,NA,NA,NA,NA,NA,NA,NA,NA,NA,NA,NA,NA,NA,NA,NA,NA,NA,NA,NA
d5c4a,shallow,flow.Sequence,3_0_2_0_7_1,NA,NA,skipped,NA,670592.2,NA,NA,670590.6,670592.4,2024-03-25T14:48:12Z,670607.5,NULL,Schock,mshtuko,d,NA,NA,NA,NA,sdf,NA,2,NA,NA,NA,NA,NA,NA,NA,NA,NA,NA,NA,NA,NA,NA,NA,NA,NA,NA,NA
d5c4a,task,flow.Sequence,3_0_2_0_7,NA,NA,completion,15890.5,654690,654683.6,654700.1,670590.6,670592.6,2024-03-25T14:48:12Z,670607.5,NULL,Schock,mshtuko,d,NA,NA,NA,NA,sdf,NA,2,NA,NA,NA,NA,NA,NA,NA,NA,NA,NA,NA,NA,NA,NA,NA,NA,NA,NA,NA
d5c4a,block,flow.Loop,3_0_2_0,NA,NA,completion,138948.8,531626.9,531626.38,531641.8,670590.6,670592.8,2024-03-25T14:48:12Z,670607.5,NULL,NA,NA,NA,NA,NA,NA,NA,sdf,NA,2,NA,NA,NA,NA,NA,NA,NA,NA,NA,NA,NA,NA,NA,NA,NA,NA,NA,NA,NA
d5c4a,weiter,canvas.Screen,3_0_2_1,sdf,keypress(Space),response,1005,670592.9,670590.6,670607.5,671612.5,671613.4,2024-03-25T14:48:13Z,671972.8,NULL,NA,NA,NA,NA,NA,NA,NA,sdf,NA,2,NA,NA,NA,NA,NA,NA,NA,NA,NA,NA,NA,NA,NA,NA,NA,NA,NA,NA,NA
d5c4a,check continue,flow.Sequence,3_0_2,NA,NA,completion,139970.7,531626.9,531626.38,531641.8,671612.5,671613.7,2024-03-25T14:48:13Z,671972.8,NULL,NA,NA,NA,NA,NA,NA,NA,sdf,NA,2,NA,NA,NA,NA,NA,NA,NA,NA,NA,NA,NA,NA,NA,NA,NA,NA,NA,NA,NA
d5c4a,check continue,flow.Sequence,3_0_3,NA,NA,skipped,NA,671632.8,NA,NA,671612.5,671632.9,2024-03-25T14:48:13Z,671972.8,NULL,NA,NA,NA,NA,NA,NA,NA,qt,NA,3,NA,NA,NA,NA,NA,NA,NA,NA,NA,NA,NA,NA,NA,NA,NA,NA,NA,NA,NA
d5c4a,check continue,flow.Sequence,3_0_4,NA,NA,skipped,NA,671648,NA,NA,671612.5,671648.1,2024-03-25T14:48:13Z,671972.8,NULL,NA,NA,NA,NA,NA,NA,NA,sd,NA,4,NA,NA,NA,NA,NA,NA,NA,NA,NA,NA,NA,NA,NA,NA,NA,NA,NA,NA,NA
d5c4a,check continue,flow.Sequence,3_0_5,NA,NA,skipped,NA,671659.9,NA,NA,671612.5,671659.9,2024-03-25T14:48:13Z,671972.8,NULL,NA,NA,NA,NA,NA,NA,NA,sdf,NA,5,NA,NA,NA,NA,NA,NA,NA,NA,NA,NA,NA,NA,NA,NA,NA,NA,NA,NA,NA
d5c4a,check continue,flow.Sequence,3_0_6,NA,NA,skipped,NA,671673.7,NA,NA,671612.5,671673.8,2024-03-25T14:48:13Z,671972.8,NULL,NA,NA,NA,NA,NA,NA,NA,dfs,NA,6,NA,NA,NA,NA,NA,NA,NA,NA,NA,NA,NA,NA,NA,NA,NA,NA,NA,NA,NA
d5c4a,check continue,flow.Sequence,3_0_7,NA,NA,skipped,NA,671699,NA,NA,671612.5,671699.1,2024-03-25T14:48:13Z,671972.8,NULL,NA,NA,NA,NA,NA,NA,NA,df,NA,7,NA,NA,NA,NA,NA,NA,NA,NA,NA,NA,NA,NA,NA,NA,NA,NA,NA,NA,NA
d5c4a,check continue,flow.Sequence,3_0_8,NA,NA,skipped,NA,671720.1,NA,NA,671612.5,671720.2,2024-03-25T14:48:14Z,671972.8,NULL,NA,NA,NA,NA,NA,NA,NA,dfs,NA,8,NA,NA,NA,NA,NA,NA,NA,NA,NA,NA,NA,NA,NA,NA,NA,NA,NA,NA,NA
d5c4a,check continue,flow.Sequence,3_0_9,NA,NA,skipped,NA,671737.5,NA,NA,671612.5,671737.8,2024-03-25T14:48:14Z,671972.8,NULL,NA,NA,NA,NA,NA,NA,NA,dsf,NA,9,NA,NA,NA,NA,NA,NA,NA,NA,NA,NA,NA,NA,NA,NA,NA,NA,NA,NA,NA
d5c4a,check continue,flow.Sequence,3_0_10,NA,NA,skipped,NA,671749.7,NA,NA,671612.5,671749.7,2024-03-25T14:48:14Z,671972.8,NULL,NA,NA,NA,NA,NA,NA,NA,df,NA,10,NA,NA,NA,NA,NA,NA,NA,NA,NA,NA,NA,NA,NA,NA,NA,NA,NA,NA,NA
d5c4a,check continue,flow.Sequence,3_0_11,NA,NA,skipped,NA,671761.7,NA,NA,671612.5,671761.8,2024-03-25T14:48:14Z,671972.8,NULL,NA,NA,NA,NA,NA,NA,NA,dfs,NA,11,NA,NA,NA,NA,NA,NA,NA,NA,NA,NA,NA,NA,NA,NA,NA,NA,NA,NA,NA
d5c4a,check continue,flow.Sequence,3_0_12,NA,NA,skipped,NA,671773.7,NA,NA,671612.5,671773.8,2024-03-25T14:48:14Z,671972.8,NULL,NA,NA,NA,NA,NA,NA,NA,dsf,NA,12,NA,NA,NA,NA,NA,NA,NA,NA,NA,NA,NA,NA,NA,NA,NA,NA,NA,NA,NA
d5c4a,check continue,flow.Sequence,3_0_13,NA,NA,skipped,NA,671785.5,NA,NA,671612.5,671785.6,2024-03-25T14:48:14Z,671972.8,NULL,NA,NA,NA,NA,NA,NA,NA,dsf,NA,13,NA,NA,NA,NA,NA,NA,NA,NA,NA,NA,NA,NA,NA,NA,NA,NA,NA,NA,NA
d5c4a,check continue,flow.Sequence,3_0_14,NA,NA,skipped,NA,671797.9,NA,NA,671612.5,671798,2024-03-25T14:48:14Z,671972.8,NULL,NA,NA,NA,NA,NA,NA,NA,NA,NA,14,NA,NA,NA,NA,NA,NA,NA,NA,NA,NA,NA,NA,NA,NA,NA,NA,NA,NA,NA
d5c4a,check continue,flow.Sequence,3_0_15,NA,NA,skipped,NA,671809.3,NA,NA,671612.5,671809.4,2024-03-25T14:48:14Z,671972.8,NULL,NA,NA,NA,NA,NA,NA,NA,NA,NA,15,NA,NA,NA,NA,NA,NA,NA,NA,NA,NA,NA,NA,NA,NA,NA,NA,NA,NA,NA
d5c4a,check continue,flow.Sequence,3_0_16,NA,NA,skipped,NA,671820.4,NA,NA,671612.5,671820.5,2024-03-25T14:48:14Z,671972.8,NULL,NA,NA,NA,NA,NA,NA,NA,NA,NA,16,NA,NA,NA,NA,NA,NA,NA,NA,NA,NA,NA,NA,NA,NA,NA,NA,NA,NA,NA
d5c4a,check continue,flow.Sequence,3_0_17,NA,NA,skipped,NA,671833.1,NA,NA,671612.5,671833.2,2024-03-25T14:48:14Z,671972.8,NULL,NA,NA,NA,NA,NA,NA,NA,NA,NA,17,NA,NA,NA,NA,NA,NA,NA,NA,NA,NA,NA,NA,NA,NA,NA,NA,NA,NA,NA
d5c4a,check continue,flow.Sequence,3_0_18,NA,NA,skipped,NA,671844.4,NA,NA,671612.5,671844.5,2024-03-25T14:48:14Z,671972.8,NULL,NA,NA,NA,NA,NA,NA,NA,NA,NA,18,NA,NA,NA,NA,NA,NA,NA,NA,NA,NA,NA,NA,NA,NA,NA,NA,NA,NA,NA
d5c4a,check continue,flow.Sequence,3_0_19,NA,NA,skipped,NA,671857.1,NA,NA,671612.5,671857.1,2024-03-25T14:48:14Z,671972.8,NULL,NA,NA,NA,NA,NA,NA,NA,NA,NA,19,NA,NA,NA,NA,NA,NA,NA,NA,NA,NA,NA,NA,NA,NA,NA,NA,NA,NA,NA
d5c4a,check continue,flow.Sequence,3_0_20,NA,NA,skipped,NA,671867.2,NA,NA,671612.5,671867.3,2024-03-25T14:48:14Z,671972.8,NULL,NA,NA,NA,NA,NA,NA,NA,NA,NA,20,NA,NA,NA,NA,NA,NA,NA,NA,NA,NA,NA,NA,NA,NA,NA,NA,NA,NA,NA
d5c4a,check continue,flow.Sequence,3_0_21,NA,NA,skipped,NA,671878.4,NA,NA,671612.5,671878.4,2024-03-25T14:48:14Z,671972.8,NULL,NA,NA,NA,NA,NA,NA,NA,NA,NA,21,NA,NA,NA,NA,NA,NA,NA,NA,NA,NA,NA,NA,NA,NA,NA,NA,NA,NA,NA
d5c4a,check continue,flow.Sequence,3_0_22,NA,NA,skipped,NA,671888.7,NA,NA,671612.5,671888.8,2024-03-25T14:48:14Z,671972.8,NULL,NA,NA,NA,NA,NA,NA,NA,NA,NA,22,NA,NA,NA,NA,NA,NA,NA,NA,NA,NA,NA,NA,NA,NA,NA,NA,NA,NA,NA
d5c4a,check continue,flow.Sequence,3_0_23,NA,NA,skipped,NA,671901.1,NA,NA,671612.5,671901.1,2024-03-25T14:48:14Z,671972.8,NULL,NA,NA,NA,NA,NA,NA,NA,NA,NA,23,NA,NA,NA,NA,NA,NA,NA,NA,NA,NA,NA,NA,NA,NA,NA,NA,NA,NA,NA
d5c4a,check continue,flow.Sequence,3_0_24,NA,NA,skipped,NA,671912.6,NA,NA,671612.5,671912.6,2024-03-25T14:48:14Z,671972.8,NULL,NA,NA,NA,NA,NA,NA,NA,NA,NA,24,NA,NA,NA,NA,NA,NA,NA,NA,NA,NA,NA,NA,NA,NA,NA,NA,NA,NA,NA
d5c4a,check continue,flow.Sequence,3_0_25,NA,NA,skipped,NA,671924.4,NA,NA,671612.5,671924.5,2024-03-25T14:48:14Z,671972.8,NULL,NA,NA,NA,NA,NA,NA,NA,NA,NA,25,NA,NA,NA,NA,NA,NA,NA,NA,NA,NA,NA,NA,NA,NA,NA,NA,NA,NA,NA
d5c4a,check continue,flow.Sequence,3_0_26,NA,NA,skipped,NA,671935,NA,NA,671612.5,671935,2024-03-25T14:48:14Z,671972.8,NULL,NA,NA,NA,NA,NA,NA,NA,NA,NA,26,NA,NA,NA,NA,NA,NA,NA,NA,NA,NA,NA,NA,NA,NA,NA,NA,NA,NA,NA
d5c4a,check continue,flow.Sequence,3_0_27,NA,NA,skipped,NA,671945,NA,NA,671612.5,671945,2024-03-25T14:48:14Z,671972.8,NULL,NA,NA,NA,NA,NA,NA,NA,NA,NA,27,NA,NA,NA,NA,NA,NA,NA,NA,NA,NA,NA,NA,NA,NA,NA,NA,NA,NA,NA
d5c4a,check continue,flow.Sequence,3_0_28,NA,NA,skipped,NA,671956.8,NA,NA,671612.5,671956.9,2024-03-25T14:48:14Z,671972.8,NULL,NA,NA,NA,NA,NA,NA,NA,NA,NA,28,NA,NA,NA,NA,NA,NA,NA,NA,NA,NA,NA,NA,NA,NA,NA,NA,NA,NA,NA
d5c4a,check continue,flow.Sequence,3_0_29,NA,NA,skipped,NA,671968.1,NA,NA,671612.5,671968.2,2024-03-25T14:48:14Z,671972.8,NULL,NA,NA,NA,NA,NA,NA,NA,NA,NA,29,NA,NA,NA,NA,NA,NA,NA,NA,NA,NA,NA,NA,NA,NA,NA,NA,NA,NA,NA
d5c4a,until continue,flow.Loop,3_0,NA,NA,completion,412270.9,259312.3,259328.182,259341.6,671612.5,671968.3,2024-03-25T14:48:14Z,671972.8,NULL,NA,NA,NA,NA,NA,NA,NA,NA,NA,NA,NA,NA,NA,NA,NA,NA,NA,NA,NA,NA,NA,NA,NA,NA,NA,NA,NA,NA,NA
d5c4a,block 1,flow.Sequence,3,NA,NA,completion,412270.9,259312.2,259328.182,259341.6,671612.5,671968.4,2024-03-25T14:48:14Z,671972.8,NULL,NA,NA,NA,NA,NA,NA,NA,NA,NA,NA,NA,NA,NA,NA,NA,NA,NA,NA,NA,NA,NA,NA,NA,NA,NA,NA,NA,NA,NA
d5c4a,1.Part Over,canvas.Screen,4,NA,keypress(Space),response,2697.5000000002,671968.4,671957.446,671972.8,674670.3,674671.2,2024-03-25T14:48:16Z,674721.1,NULL,NA,NA,NA,NA,NA,NA,NA,NA,NA,NA,NA,NA,NA,NA,NA,NA,NA,NA,NA,NA,NA,NA,NA,NA,NA,NA,NA,NA,NA
d5c4a,deep,flow.Sequence,5_0_0_0_0_0,NA,NA,skipped,NA,674712.3,NA,NA,674670.3,674712.4,2024-03-25T14:48:17Z,674721.1,NULL,Vergnügen,kichekesho,s,dubwana,mpanuko,mtesaji,NA,sdf,NA,0,NA,NA,NA,NA,NA,NA,NA,NA,NA,NA,NA,NA,NA,NA,NA,NA,NA,NA,NA
d5c4a,Shallow Question,html.Page,5_0_0_0_0_1_0,NA,NA,form submission,11331.5,674712.5,674710.7,674721.1,686052.6,686052.7,2024-03-25T14:48:28Z,686064.1,NULL,Vergnügen,kichekesho,s,dubwana,mpanuko,mtesaji,kichekesho,NA,NA,0,NA,NA,NA,NA,NA,NA,NA,NA,NA,NA,NA,NA,NA,NA,NA,NA,NA,NA,NA
d5c4a,"""Richtig""-Screen",canvas.Screen,5_0_0_0_0_1_1,NA,NA,timeout,4997.7000000001,686054.5,686048.9,686064.1,691044.6,691045.7,2024-03-25T14:48:33Z,691061.8,NULL,Vergnügen,kichekesho,s,dubwana,mpanuko,mtesaji,NA,sdf,1,0,NA,NA,NA,NA,NA,NA,NA,NA,NA,NA,NA,NA,NA,NA,NA,NA,NA,NA,NA
d5c4a,"""Falsch""-Screen",canvas.Screen,5_0_0_0_0_1_2,NA,NA,skipped,NA,691051.2,NA,NA,691044.6,691051.2,2024-03-25T14:48:33Z,691061.8,NULL,Vergnügen,kichekesho,s,dubwana,mpanuko,mtesaji,NA,sdf,NA,0,NA,NA,NA,NA,NA,NA,NA,NA,NA,NA,NA,NA,NA,NA,NA,NA,NA,NA,NA
d5c4a,shallow,flow.Sequence,5_0_0_0_0_1,NA,NA,completion,16323.5,674712.5,674710.7,674721.1,691044.6,691051.3,2024-03-25T14:48:33Z,691061.8,NULL,Vergnügen,kichekesho,s,dubwana,mpanuko,mtesaji,NA,sdf,NA,0,NA,NA,NA,NA,NA,NA,NA,NA,NA,NA,NA,NA,NA,NA,NA,NA,NA,NA,NA
d5c4a,task,flow.Sequence,5_0_0_0_0,NA,NA,completion,16323.5,674712.3,674710.7,674721.1,691044.6,691051.4,2024-03-25T14:48:33Z,691061.8,NULL,Vergnügen,kichekesho,s,dubwana,mpanuko,mtesaji,NA,sdf,NA,0,NA,NA,NA,NA,NA,NA,NA,NA,NA,NA,NA,NA,NA,NA,NA,NA,NA,NA,NA
d5c4a,deep,flow.Sequence,5_0_0_0_1_0,NA,NA,skipped,NA,691051.5,NA,NA,691044.6,691051.5,2024-03-25T14:48:33Z,691061.8,NULL,Notfall,dharura,s,rairai,malalamiko,ahueni,NA,sdf,NA,0,NA,NA,NA,NA,NA,NA,NA,NA,NA,NA,NA,NA,NA,NA,NA,NA,NA,NA,NA
d5c4a,Shallow Question,html.Page,5_0_0_0_1_1_0,NA,NA,form submission,7137.2,691051.5,691044.6,691061.8,698199,698199.1,2024-03-25T14:48:40Z,698206.8,NULL,Notfall,dharura,s,rairai,malalamiko,ahueni,rairai,NA,NA,0,NA,NA,NA,NA,NA,NA,NA,NA,NA,NA,NA,NA,NA,NA,NA,NA,NA,NA,NA
d5c4a,"""Richtig""-Screen",canvas.Screen,5_0_0_0_1_1_1,NA,NA,skipped,NA,698202,NA,NA,698199,698202.1,2024-03-25T14:48:40Z,698206.8,NULL,Notfall,dharura,s,rairai,malalamiko,ahueni,NA,sdf,NA,0,NA,NA,NA,NA,NA,NA,NA,NA,NA,NA,NA,NA,NA,NA,NA,NA,NA,NA,NA
d5c4a,"""Falsch""-Screen",canvas.Screen,5_0_0_0_1_1_2,NA,NA,timeout,4997.2999999999,698203.3,698191.536,698206.8,703187.2,703188.4,2024-03-25T14:48:45Z,703204.1,NULL,Notfall,dharura,s,rairai,malalamiko,ahueni,NA,sdf,0,0,NA,NA,NA,NA,NA,NA,NA,NA,NA,NA,NA,NA,NA,NA,NA,NA,NA,NA,NA
d5c4a,shallow,flow.Sequence,5_0_0_0_1_1,NA,NA,completion,12125.4,691051.5,691044.6,691061.8,703187.2,703188.9,2024-03-25T14:48:45Z,703204.1,NULL,Notfall,dharura,s,rairai,malalamiko,ahueni,NA,sdf,NA,0,NA,NA,NA,NA,NA,NA,NA,NA,NA,NA,NA,NA,NA,NA,NA,NA,NA,NA,NA
d5c4a,task,flow.Sequence,5_0_0_0_1,NA,NA,completion,12125.4,691051.4,691044.6,691061.8,703187.2,703189.1,2024-03-25T14:48:45Z,703204.1,NULL,Notfall,dharura,s,rairai,malalamiko,ahueni,NA,sdf,NA,0,NA,NA,NA,NA,NA,NA,NA,NA,NA,NA,NA,NA,NA,NA,NA,NA,NA,NA,NA
d5c4a,Deep Question,html.Page,5_0_0_0_2_0_0,NA,NA,form submission,2962.3000000004,703189.3,703187.2,703204.1,706166.4,706166.6,2024-03-25T14:48:48Z,706170.648,NULL,Ergänzung,kijalizo,d,NA,NA,NA,l,NA,NA,0,NA,NA,NA,NA,NA,NA,NA,NA,NA,NA,NA,NA,NA,NA,NA,NA,NA,NA,NA
d5c4a,"""Richtig""-Screen",canvas.Screen,5_0_0_0_2_0_1,NA,NA,skipped,NA,706169.9,NA,NA,706166.4,706170,2024-03-25T14:48:48Z,706170.648,NULL,Ergänzung,kijalizo,d,NA,NA,NA,NA,sdf,NA,0,NA,NA,NA,NA,NA,NA,NA,NA,NA,NA,NA,NA,NA,NA,NA,NA,NA,NA,NA
d5c4a,"""Falsch""-Screen",canvas.Screen,5_0_0_0_2_0_2,NA,NA,timeout,4995.0519999999,706170.6,706170.648,706170.648,711149,711151.3,2024-03-25T14:48:53Z,711165.7,NULL,Ergänzung,kijalizo,d,NA,NA,NA,NA,sdf,0,0,NA,NA,NA,NA,NA,NA,NA,NA,NA,NA,NA,NA,NA,NA,NA,NA,NA,NA,NA
d5c4a,deep,flow.Sequence,5_0_0_0_2_0,NA,NA,completion,7944.9,703189.3,703187.2,703204.1,711149,711151.8,2024-03-25T14:48:53Z,711165.7,NULL,Ergänzung,kijalizo,d,NA,NA,NA,NA,sdf,NA,0,NA,NA,NA,NA,NA,NA,NA,NA,NA,NA,NA,NA,NA,NA,NA,NA,NA,NA,NA
d5c4a,shallow,flow.Sequence,5_0_0_0_2_1,NA,NA,skipped,NA,711152,NA,NA,711149,711152.1,2024-03-25T14:48:53Z,711165.7,NULL,Ergänzung,kijalizo,d,NA,NA,NA,NA,sdf,NA,0,NA,NA,NA,NA,NA,NA,NA,NA,NA,NA,NA,NA,NA,NA,NA,NA,NA,NA,NA
d5c4a,task,flow.Sequence,5_0_0_0_2,NA,NA,completion,7944.9,703189.3,703187.2,703204.1,711149,711152.4,2024-03-25T14:48:53Z,711165.7,NULL,Ergänzung,kijalizo,d,NA,NA,NA,NA,sdf,NA,0,NA,NA,NA,NA,NA,NA,NA,NA,NA,NA,NA,NA,NA,NA,NA,NA,NA,NA,NA
d5c4a,Deep Question,html.Page,5_0_0_0_3_0_0,NA,NA,form submission,11917.4,711152.6,711149,711165.7,723083.1,723083.5,2024-03-25T14:49:05Z,723091.6,NULL,Wohlstand,mafanikio,d,NA,NA,NA,l,NA,NA,0,NA,NA,NA,NA,NA,NA,NA,NA,NA,NA,NA,NA,NA,NA,NA,NA,NA,NA,NA
d5c4a,"""Richtig""-Screen",canvas.Screen,5_0_0_0_3_0_1,NA,NA,skipped,NA,723086.6,NA,NA,723083.1,723086.7,2024-03-25T14:49:05Z,723091.6,NULL,Wohlstand,mafanikio,d,NA,NA,NA,NA,sdf,NA,0,NA,NA,NA,NA,NA,NA,NA,NA,NA,NA,NA,NA,NA,NA,NA,NA,NA,NA,NA
d5c4a,"""Falsch""-Screen",canvas.Screen,5_0_0_0_3_0_2,NA,NA,timeout,4997.5,723087.5,723075.844,723091.6,728072.1,728073.1,2024-03-25T14:49:10Z,728089.1,NULL,Wohlstand,mafanikio,d,NA,NA,NA,NA,sdf,0,0,NA,NA,NA,NA,NA,NA,NA,NA,NA,NA,NA,NA,NA,NA,NA,NA,NA,NA,NA
d5c4a,deep,flow.Sequence,5_0_0_0_3_0,NA,NA,completion,16906.4,711152.5,711149,711165.7,728072.1,728073.6,2024-03-25T14:49:10Z,728089.1,NULL,Wohlstand,mafanikio,d,NA,NA,NA,NA,sdf,NA,0,NA,NA,NA,NA,NA,NA,NA,NA,NA,NA,NA,NA,NA,NA,NA,NA,NA,NA,NA
d5c4a,shallow,flow.Sequence,5_0_0_0_3_1,NA,NA,skipped,NA,728073.8,NA,NA,728072.1,728073.9,2024-03-25T14:49:10Z,728089.1,NULL,Wohlstand,mafanikio,d,NA,NA,NA,NA,sdf,NA,0,NA,NA,NA,NA,NA,NA,NA,NA,NA,NA,NA,NA,NA,NA,NA,NA,NA,NA,NA
d5c4a,task,flow.Sequence,5_0_0_0_3,NA,NA,completion,16906.4,711152.5,711149,711165.7,728072.1,728074.2,2024-03-25T14:49:10Z,728089.1,NULL,Wohlstand,mafanikio,d,NA,NA,NA,NA,sdf,NA,0,NA,NA,NA,NA,NA,NA,NA,NA,NA,NA,NA,NA,NA,NA,NA,NA,NA,NA,NA
d5c4a,Deep Question,html.Page,5_0_0_0_4_0_0,NA,NA,form submission,19459.7,728074.4,728072.1,728089.1,747548.8,747549,2024-03-25T14:49:29Z,747560,NULL,Verstand,ufahamivu,d,NA,NA,NA,l,NA,NA,0,NA,NA,NA,NA,NA,NA,NA,NA,NA,NA,NA,NA,NA,NA,NA,NA,NA,NA,NA
d5c4a,"""Richtig""-Screen",canvas.Screen,5_0_0_0_4_0_1,NA,NA,skipped,NA,747552.1,NA,NA,747548.8,747552.2,2024-03-25T14:49:29Z,747560,NULL,Verstand,ufahamivu,d,NA,NA,NA,NA,sdf,NA,0,NA,NA,NA,NA,NA,NA,NA,NA,NA,NA,NA,NA,NA,NA,NA,NA,NA,NA,NA
d5c4a,"""Falsch""-Screen",canvas.Screen,5_0_0_0_4_0_2,NA,NA,timeout,4997.3,747553.1,747546.68,747560,752540.7,752541.2,2024-03-25T14:49:34Z,752557.3,NULL,Verstand,ufahamivu,d,NA,NA,NA,NA,sdf,0,0,NA,NA,NA,NA,NA,NA,NA,NA,NA,NA,NA,NA,NA,NA,NA,NA,NA,NA,NA
d5c4a,deep,flow.Sequence,5_0_0_0_4_0,NA,NA,completion,24451.6,728074.4,728072.1,728089.1,752540.7,752541.4,2024-03-25T14:49:34Z,752557.3,NULL,Verstand,ufahamivu,d,NA,NA,NA,NA,sdf,NA,0,NA,NA,NA,NA,NA,NA,NA,NA,NA,NA,NA,NA,NA,NA,NA,NA,NA,NA,NA
d5c4a,shallow,flow.Sequence,5_0_0_0_4_1,NA,NA,skipped,NA,752541.4,NA,NA,752540.7,752541.5,2024-03-25T14:49:34Z,752557.3,NULL,Verstand,ufahamivu,d,NA,NA,NA,NA,sdf,NA,0,NA,NA,NA,NA,NA,NA,NA,NA,NA,NA,NA,NA,NA,NA,NA,NA,NA,NA,NA
d5c4a,task,flow.Sequence,5_0_0_0_4,NA,NA,completion,24451.6,728074.3,728072.1,728089.1,752540.7,752541.5,2024-03-25T14:49:34Z,752557.3,NULL,Verstand,ufahamivu,d,NA,NA,NA,NA,sdf,NA,0,NA,NA,NA,NA,NA,NA,NA,NA,NA,NA,NA,NA,NA,NA,NA,NA,NA,NA,NA
d5c4a,Deep Question,html.Page,5_0_0_0_5_0_0,NA,NA,form submission,3275.6000000003,752541.5,752540.7,752557.3,755832.9,755833,2024-03-25T14:49:38Z,755838.3,NULL,Widerstand,usulubu,d,NA,NA,NA,k,NA,NA,0,NA,NA,NA,NA,NA,NA,NA,NA,NA,NA,NA,NA,NA,NA,NA,NA,NA,NA,NA
d5c4a,"""Richtig""-Screen",canvas.Screen,5_0_0_0_5_0_1,NA,NA,skipped,NA,755836.1,NA,NA,755832.9,755836.3,2024-03-25T14:49:38Z,755838.3,NULL,Widerstand,usulubu,d,NA,NA,NA,NA,sdf,NA,0,NA,NA,NA,NA,NA,NA,NA,NA,NA,NA,NA,NA,NA,NA,NA,NA,NA,NA,NA
d5c4a,"""Falsch""-Screen",canvas.Screen,5_0_0_0_5_0_2,NA,NA,timeout,4997.2,755837,755827.632,755838.3,760819,760820,2024-03-25T14:49:43Z,760835.5,NULL,Widerstand,usulubu,d,NA,NA,NA,NA,sdf,0,0,NA,NA,NA,NA,NA,NA,NA,NA,NA,NA,NA,NA,NA,NA,NA,NA,NA,NA,NA
d5c4a,deep,flow.Sequence,5_0_0_0_5_0,NA,NA,completion,8261.7,752541.5,752540.7,752557.3,760819,760820.3,2024-03-25T14:49:43Z,760835.5,NULL,Widerstand,usulubu,d,NA,NA,NA,NA,sdf,NA,0,NA,NA,NA,NA,NA,NA,NA,NA,NA,NA,NA,NA,NA,NA,NA,NA,NA,NA,NA
d5c4a,shallow,flow.Sequence,5_0_0_0_5_1,NA,NA,skipped,NA,760820.6,NA,NA,760819,760820.6,2024-03-25T14:49:43Z,760835.5,NULL,Widerstand,usulubu,d,NA,NA,NA,NA,sdf,NA,0,NA,NA,NA,NA,NA,NA,NA,NA,NA,NA,NA,NA,NA,NA,NA,NA,NA,NA,NA
d5c4a,task,flow.Sequence,5_0_0_0_5,NA,NA,completion,8261.7,752541.5,752540.7,752557.3,760819,760820.8,2024-03-25T14:49:43Z,760835.5,NULL,Widerstand,usulubu,d,NA,NA,NA,NA,sdf,NA,0,NA,NA,NA,NA,NA,NA,NA,NA,NA,NA,NA,NA,NA,NA,NA,NA,NA,NA,NA
d5c4a,deep,flow.Sequence,5_0_0_0_6_0,NA,NA,skipped,NA,760820.9,NA,NA,760819,760821.1,2024-03-25T14:49:43Z,760835.5,NULL,Ausschluss,kutengwa,s,ununuzi,taratibu,madeni,NA,sdf,NA,0,NA,NA,NA,NA,NA,NA,NA,NA,NA,NA,NA,NA,NA,NA,NA,NA,NA,NA,NA
d5c4a,Shallow Question,html.Page,5_0_0_0_6_1_0,NA,NA,form submission,11876.4,760821.2,760819,760835.5,772711.9,772712.1,2024-03-25T14:49:55Z,772729.3,NULL,Ausschluss,kutengwa,s,ununuzi,taratibu,madeni,taratibu,NA,NA,0,NA,NA,NA,NA,NA,NA,NA,NA,NA,NA,NA,NA,NA,NA,NA,NA,NA,NA,NA
d5c4a,"""Richtig""-Screen",canvas.Screen,5_0_0_0_6_1_1,NA,NA,skipped,NA,772715.1,NA,NA,772711.9,772715.3,2024-03-25T14:49:55Z,772729.3,NULL,Ausschluss,kutengwa,s,ununuzi,taratibu,madeni,NA,sdf,NA,0,NA,NA,NA,NA,NA,NA,NA,NA,NA,NA,NA,NA,NA,NA,NA,NA,NA,NA,NA
d5c4a,"""Falsch""-Screen",canvas.Screen,5_0_0_0_6_1_2,NA,NA,timeout,4995.8999999999,772716.1,772711.84,772729.3,777708.7,777710.6,2024-03-25T14:50:00Z,777725.2,NULL,Ausschluss,kutengwa,s,ununuzi,taratibu,madeni,NA,sdf,0,0,NA,NA,NA,NA,NA,NA,NA,NA,NA,NA,NA,NA,NA,NA,NA,NA,NA,NA,NA
d5c4a,shallow,flow.Sequence,5_0_0_0_6_1,NA,NA,completion,16873.2,760821.2,760819,760835.5,777708.7,777711.3,2024-03-25T14:50:00Z,777725.2,NULL,Ausschluss,kutengwa,s,ununuzi,taratibu,madeni,NA,sdf,NA,0,NA,NA,NA,NA,NA,NA,NA,NA,NA,NA,NA,NA,NA,NA,NA,NA,NA,NA,NA
d5c4a,task,flow.Sequence,5_0_0_0_6,NA,NA,completion,16873.2,760820.9,760819,760835.5,777708.7,777711.7,2024-03-25T14:50:00Z,777725.2,NULL,Ausschluss,kutengwa,s,ununuzi,taratibu,madeni,NA,sdf,NA,0,NA,NA,NA,NA,NA,NA,NA,NA,NA,NA,NA,NA,NA,NA,NA,NA,NA,NA,NA
d5c4a,deep,flow.Sequence,5_0_0_0_7_0,NA,NA,skipped,NA,777712,NA,NA,777708.7,777712,2024-03-25T14:50:00Z,777725.2,NULL,Gelegenheit,wakati,s,mchanganyiko,kipaumbele,kushuku,NA,sdf,NA,0,NA,NA,NA,NA,NA,NA,NA,NA,NA,NA,NA,NA,NA,NA,NA,NA,NA,NA,NA
d5c4a,Shallow Question,html.Page,5_0_0_0_7_1_0,NA,NA,form submission,9995.8,777712.1,777708.7,777725.2,787721,787721.3,2024-03-25T14:50:10Z,787735.4,NULL,Gelegenheit,wakati,s,mchanganyiko,kipaumbele,kushuku,wakati,NA,NA,0,NA,NA,NA,NA,NA,NA,NA,NA,NA,NA,NA,NA,NA,NA,NA,NA,NA,NA,NA
d5c4a,"""Richtig""-Screen",canvas.Screen,5_0_0_0_7_1_1,NA,NA,timeout,4997.2,787724.2,787721.756,787735.4,792716.1,792717.1,2024-03-25T14:50:15Z,792732.6,NULL,Gelegenheit,wakati,s,mchanganyiko,kipaumbele,kushuku,NA,sdf,1,0,NA,NA,NA,NA,NA,NA,NA,NA,NA,NA,NA,NA,NA,NA,NA,NA,NA,NA,NA
d5c4a,"""Falsch""-Screen",canvas.Screen,5_0_0_0_7_1_2,NA,NA,skipped,NA,792721.8,NA,NA,792716.1,792722,2024-03-25T14:50:15Z,792732.6,NULL,Gelegenheit,wakati,s,mchanganyiko,kipaumbele,kushuku,NA,sdf,NA,0,NA,NA,NA,NA,NA,NA,NA,NA,NA,NA,NA,NA,NA,NA,NA,NA,NA,NA,NA
d5c4a,shallow,flow.Sequence,5_0_0_0_7_1,NA,NA,completion,14990.9,777712.1,777708.7,777725.2,792716.1,792722.3,2024-03-25T14:50:15Z,792732.6,NULL,Gelegenheit,wakati,s,mchanganyiko,kipaumbele,kushuku,NA,sdf,NA,0,NA,NA,NA,NA,NA,NA,NA,NA,NA,NA,NA,NA,NA,NA,NA,NA,NA,NA,NA
d5c4a,task,flow.Sequence,5_0_0_0_7,NA,NA,completion,14990.9,777711.8,777708.7,777725.2,792716.1,792722.5,2024-03-25T14:50:15Z,792732.6,NULL,Gelegenheit,wakati,s,mchanganyiko,kipaumbele,kushuku,NA,sdf,NA,0,NA,NA,NA,NA,NA,NA,NA,NA,NA,NA,NA,NA,NA,NA,NA,NA,NA,NA,NA
d5c4a,block,flow.Loop,5_0_0_0,NA,NA,completion,117995,674712.3,674710.7,674721.1,792716.1,792722.6,2024-03-25T14:50:15Z,792732.6,NULL,NA,NA,NA,NA,NA,NA,NA,sdf,NA,0,NA,NA,NA,NA,NA,NA,NA,NA,NA,NA,NA,NA,NA,NA,NA,NA,NA,NA,NA
d5c4a,weiter,canvas.Screen,5_0_0_1,sdf,keypress(Space),response,1259.9,792722.8,792716.1,792732.6,793992.5,793993.7,2024-03-25T14:50:16Z,794015,NULL,NA,NA,NA,NA,NA,NA,NA,sdf,NA,0,NA,NA,NA,NA,NA,NA,NA,NA,NA,NA,NA,NA,NA,NA,NA,NA,NA,NA,NA
d5c4a,check continue,flow.Sequence,5_0_0,NA,NA,completion,119271.4,674712.3,674710.7,674721.1,793992.5,793994,2024-03-25T14:50:16Z,794015,NULL,NA,NA,NA,NA,NA,NA,NA,sdf,NA,0,NA,NA,NA,NA,NA,NA,NA,NA,NA,NA,NA,NA,NA,NA,NA,NA,NA,NA,NA
d5c4a,Deep Question,html.Page,5_0_1_0_0_0_0,NA,NA,form submission,9120.1000000006,794012.9,793999.216,794015,803135.1,803135.3,2024-03-25T14:50:25Z,803142.7,NULL,Ergänzung,kijalizo,d,NA,NA,NA,muschika,NA,NA,1,NA,NA,NA,NA,NA,NA,NA,NA,NA,NA,NA,NA,NA,NA,NA,NA,NA,NA,NA
d5c4a,"""Richtig""-Screen",canvas.Screen,5_0_1_0_0_0_1,NA,NA,skipped,NA,803138.3,NA,NA,803135.1,803138.4,2024-03-25T14:50:25Z,803142.7,NULL,Ergänzung,kijalizo,d,NA,NA,NA,NA,sdfdsf,NA,1,NA,NA,NA,NA,NA,NA,NA,NA,NA,NA,NA,NA,NA,NA,NA,NA,NA,NA,NA
d5c4a,"""Falsch""-Screen",canvas.Screen,5_0_1_0_0_0_2,NA,NA,timeout,4997.6000000001,803139.2,803128.066,803142.7,808123.3,808124.3,2024-03-25T14:50:30Z,808140.3,NULL,Ergänzung,kijalizo,d,NA,NA,NA,NA,sdfdsf,0,1,NA,NA,NA,NA,NA,NA,NA,NA,NA,NA,NA,NA,NA,NA,NA,NA,NA,NA,NA
d5c4a,deep,flow.Sequence,5_0_1_0_0_0,NA,NA,completion,14108.3,794012.9,793999.216,794015,808123.3,808124.7,2024-03-25T14:50:30Z,808140.3,NULL,Ergänzung,kijalizo,d,NA,NA,NA,NA,sdfdsf,NA,1,NA,NA,NA,NA,NA,NA,NA,NA,NA,NA,NA,NA,NA,NA,NA,NA,NA,NA,NA
d5c4a,shallow,flow.Sequence,5_0_1_0_0_1,NA,NA,skipped,NA,808124.8,NA,NA,808123.3,808125,2024-03-25T14:50:30Z,808140.3,NULL,Ergänzung,kijalizo,d,NA,NA,NA,NA,sdfdsf,NA,1,NA,NA,NA,NA,NA,NA,NA,NA,NA,NA,NA,NA,NA,NA,NA,NA,NA,NA,NA
d5c4a,task,flow.Sequence,5_0_1_0_0,NA,NA,completion,14108.3,794012.9,793999.216,794015,808123.3,808125.2,2024-03-25T14:50:30Z,808140.3,NULL,Ergänzung,kijalizo,d,NA,NA,NA,NA,sdfdsf,NA,1,NA,NA,NA,NA,NA,NA,NA,NA,NA,NA,NA,NA,NA,NA,NA,NA,NA,NA,NA
d5c4a,deep,flow.Sequence,5_0_1_0_1_0,NA,NA,skipped,NA,808125.3,NA,NA,808123.3,808125.5,2024-03-25T14:50:30Z,808140.3,NULL,Vergnügen,kichekesho,s,dubwana,mpanuko,mtesaji,NA,sdfdsf,NA,1,NA,NA,NA,NA,NA,NA,NA,NA,NA,NA,NA,NA,NA,NA,NA,NA,NA,NA,NA
d5c4a,Shallow Question,html.Page,5_0_1_0_1_1_0,NA,NA,form submission,24365,808125.6,808123.3,808140.3,832505.3,832505.6,2024-03-25T14:50:54Z,832508.2,NULL,Vergnügen,kichekesho,s,dubwana,mpanuko,mtesaji,kichekesho,NA,NA,1,NA,NA,NA,NA,NA,NA,NA,NA,NA,NA,NA,NA,NA,NA,NA,NA,NA,NA,NA
d5c4a,"""Richtig""-Screen",canvas.Screen,5_0_1_0_1_1_1,NA,NA,timeout,4997.2000000001,832508.5,832496.126,832508.2,837488.5,837490.3,2024-03-25T14:50:59Z,837505.4,NULL,Vergnügen,kichekesho,s,dubwana,mpanuko,mtesaji,NA,sdfdsf,1,1,NA,NA,NA,NA,NA,NA,NA,NA,NA,NA,NA,NA,NA,NA,NA,NA,NA,NA,NA
d5c4a,"""Falsch""-Screen",canvas.Screen,5_0_1_0_1_1_2,NA,NA,skipped,NA,837495.1,NA,NA,837488.5,837495.2,2024-03-25T14:50:59Z,837505.4,NULL,Vergnügen,kichekesho,s,dubwana,mpanuko,mtesaji,NA,sdfdsf,NA,1,NA,NA,NA,NA,NA,NA,NA,NA,NA,NA,NA,NA,NA,NA,NA,NA,NA,NA,NA
d5c4a,shallow,flow.Sequence,5_0_1_0_1_1,NA,NA,completion,29348.2,808125.6,808123.3,808140.3,837488.5,837495.3,2024-03-25T14:50:59Z,837505.4,NULL,Vergnügen,kichekesho,s,dubwana,mpanuko,mtesaji,NA,sdfdsf,NA,1,NA,NA,NA,NA,NA,NA,NA,NA,NA,NA,NA,NA,NA,NA,NA,NA,NA,NA,NA
d5c4a,task,flow.Sequence,5_0_1_0_1,NA,NA,completion,29348.2,808125.3,808123.3,808140.3,837488.5,837495.4,2024-03-25T14:50:59Z,837505.4,NULL,Vergnügen,kichekesho,s,dubwana,mpanuko,mtesaji,NA,sdfdsf,NA,1,NA,NA,NA,NA,NA,NA,NA,NA,NA,NA,NA,NA,NA,NA,NA,NA,NA,NA,NA
d5c4a,Deep Question,html.Page,5_0_1_0_2_0_0,NA,NA,form submission,5139.8999999998,837495.4,837488.5,837505.4,842645.3,842645.6,2024-03-25T14:51:04Z,842652,NULL,Widerstand,usulubu,d,NA,NA,NA,l,NA,NA,1,NA,NA,NA,NA,NA,NA,NA,NA,NA,NA,NA,NA,NA,NA,NA,NA,NA,NA,NA
d5c4a,"""Richtig""-Screen",canvas.Screen,5_0_1_0_2_0_1,NA,NA,skipped,NA,842648.3,NA,NA,842645.3,842648.5,2024-03-25T14:51:04Z,842652,NULL,Widerstand,usulubu,d,NA,NA,NA,NA,sdfdsf,NA,1,NA,NA,NA,NA,NA,NA,NA,NA,NA,NA,NA,NA,NA,NA,NA,NA,NA,NA,NA
d5c4a,"""Falsch""-Screen",canvas.Screen,5_0_1_0_2_0_2,NA,NA,timeout,4997.4,842649.4,842644.842,842652,847632.3,847634,2024-03-25T14:51:09Z,847649.4,NULL,Widerstand,usulubu,d,NA,NA,NA,NA,sdfdsf,0,1,NA,NA,NA,NA,NA,NA,NA,NA,NA,NA,NA,NA,NA,NA,NA,NA,NA,NA,NA
d5c4a,deep,flow.Sequence,5_0_1_0_2_0,NA,NA,completion,10126.9,837495.4,837488.5,837505.4,847632.3,847634.2,2024-03-25T14:51:09Z,847649.4,NULL,Widerstand,usulubu,d,NA,NA,NA,NA,sdfdsf,NA,1,NA,NA,NA,NA,NA,NA,NA,NA,NA,NA,NA,NA,NA,NA,NA,NA,NA,NA,NA
d5c4a,shallow,flow.Sequence,5_0_1_0_2_1,NA,NA,skipped,NA,847634.3,NA,NA,847632.3,847634.4,2024-03-25T14:51:09Z,847649.4,NULL,Widerstand,usulubu,d,NA,NA,NA,NA,sdfdsf,NA,1,NA,NA,NA,NA,NA,NA,NA,NA,NA,NA,NA,NA,NA,NA,NA,NA,NA,NA,NA
d5c4a,task,flow.Sequence,5_0_1_0_2,NA,NA,completion,10126.9,837495.4,837488.5,837505.4,847632.3,847634.5,2024-03-25T14:51:09Z,847649.4,NULL,Widerstand,usulubu,d,NA,NA,NA,NA,sdfdsf,NA,1,NA,NA,NA,NA,NA,NA,NA,NA,NA,NA,NA,NA,NA,NA,NA,NA,NA,NA,NA
d5c4a,Deep Question,html.Page,5_0_1_0_3_0_0,NA,NA,form submission,30065.6,847634.6,847632.3,847649.4,877715,877715.2,2024-03-25T14:51:40Z,877731,NULL,Verstand,ufahamivu,d,NA,NA,NA,jkjk,NA,NA,1,NA,NA,NA,NA,NA,NA,NA,NA,NA,NA,NA,NA,NA,NA,NA,NA,NA,NA,NA
d5c4a,"""Richtig""-Screen",canvas.Screen,5_0_1_0_3_0_1,NA,NA,skipped,NA,877718.3,NA,NA,877715,877718.4,2024-03-25T14:51:40Z,877731,NULL,Verstand,ufahamivu,d,NA,NA,NA,NA,sdfdsf,NA,1,NA,NA,NA,NA,NA,NA,NA,NA,NA,NA,NA,NA,NA,NA,NA,NA,NA,NA,NA
d5c4a,"""Falsch""-Screen",canvas.Screen,5_0_1_0_3_0_2,NA,NA,timeout,4996.5,877719.2,877716.032,877731,882710.9,882712,2024-03-25T14:51:45Z,882727.5,NULL,Verstand,ufahamivu,d,NA,NA,NA,NA,sdfdsf,0,1,NA,NA,NA,NA,NA,NA,NA,NA,NA,NA,NA,NA,NA,NA,NA,NA,NA,NA,NA
d5c4a,deep,flow.Sequence,5_0_1_0_3_0,NA,NA,completion,35061.5,847634.6,847632.3,847649.4,882710.9,882712.4,2024-03-25T14:51:45Z,882727.5,NULL,Verstand,ufahamivu,d,NA,NA,NA,NA,sdfdsf,NA,1,NA,NA,NA,NA,NA,NA,NA,NA,NA,NA,NA,NA,NA,NA,NA,NA,NA,NA,NA
d5c4a,shallow,flow.Sequence,5_0_1_0_3_1,NA,NA,skipped,NA,882712.6,NA,NA,882710.9,882712.8,2024-03-25T14:51:45Z,882727.5,NULL,Verstand,ufahamivu,d,NA,NA,NA,NA,sdfdsf,NA,1,NA,NA,NA,NA,NA,NA,NA,NA,NA,NA,NA,NA,NA,NA,NA,NA,NA,NA,NA
d5c4a,task,flow.Sequence,5_0_1_0_3,NA,NA,completion,35061.5,847634.6,847632.3,847649.4,882710.9,882713,2024-03-25T14:51:45Z,882727.5,NULL,Verstand,ufahamivu,d,NA,NA,NA,NA,sdfdsf,NA,1,NA,NA,NA,NA,NA,NA,NA,NA,NA,NA,NA,NA,NA,NA,NA,NA,NA,NA,NA
d5c4a,deep,flow.Sequence,5_0_1_0_4_0,NA,NA,skipped,NA,882713,NA,NA,882710.9,882713.2,2024-03-25T14:51:45Z,882727.5,NULL,Notfall,dharura,s,rairai,malalamiko,ahueni,NA,sdfdsf,NA,1,NA,NA,NA,NA,NA,NA,NA,NA,NA,NA,NA,NA,NA,NA,NA,NA,NA,NA,NA
d5c4a,Shallow Question,html.Page,5_0_1_0_4_1_0,NA,NA,form submission,8788.2000000002,882713.4,882710.9,882727.5,891515.7,891516,2024-03-25T14:51:53Z,891522.1,NULL,Notfall,dharura,s,rairai,malalamiko,ahueni,dharura,NA,NA,1,NA,NA,NA,NA,NA,NA,NA,NA,NA,NA,NA,NA,NA,NA,NA,NA,NA,NA,NA
d5c4a,"""Richtig""-Screen",canvas.Screen,5_0_1_0_4_1_1,NA,NA,timeout,4997.6,891518.9,891511.5,891522.1,896502.5,896503.6,2024-03-25T14:51:58Z,896519.7,NULL,Notfall,dharura,s,rairai,malalamiko,ahueni,NA,sdfdsf,1,1,NA,NA,NA,NA,NA,NA,NA,NA,NA,NA,NA,NA,NA,NA,NA,NA,NA,NA,NA
d5c4a,"""Falsch""-Screen",canvas.Screen,5_0_1_0_4_1_2,NA,NA,skipped,NA,896508.8,NA,NA,896502.5,896508.9,2024-03-25T14:51:58Z,896519.7,NULL,Notfall,dharura,s,rairai,malalamiko,ahueni,NA,sdfdsf,NA,1,NA,NA,NA,NA,NA,NA,NA,NA,NA,NA,NA,NA,NA,NA,NA,NA,NA,NA,NA
d5c4a,shallow,flow.Sequence,5_0_1_0_4_1,NA,NA,completion,13775,882713.3,882710.9,882727.5,896502.5,896509,2024-03-25T14:51:58Z,896519.7,NULL,Notfall,dharura,s,rairai,malalamiko,ahueni,NA,sdfdsf,NA,1,NA,NA,NA,NA,NA,NA,NA,NA,NA,NA,NA,NA,NA,NA,NA,NA,NA,NA,NA
d5c4a,task,flow.Sequence,5_0_1_0_4,NA,NA,completion,13775,882713,882710.9,882727.5,896502.5,896509,2024-03-25T14:51:58Z,896519.7,NULL,Notfall,dharura,s,rairai,malalamiko,ahueni,NA,sdfdsf,NA,1,NA,NA,NA,NA,NA,NA,NA,NA,NA,NA,NA,NA,NA,NA,NA,NA,NA,NA,NA
d5c4a,Deep Question,html.Page,5_0_1_0_5_0_0,NA,NA,form submission,9342.8,896509.1,896502.5,896519.7,905862.5,905862.6,2024-03-25T14:52:08Z,905864.658,NULL,Wohlstand,mafanikio,d,NA,NA,NA,jhjh,NA,NA,1,NA,NA,NA,NA,NA,NA,NA,NA,NA,NA,NA,NA,NA,NA,NA,NA,NA,NA,NA
d5c4a,"""Richtig""-Screen",canvas.Screen,5_0_1_0_5_0_1,NA,NA,skipped,NA,905864,NA,NA,905862.5,905864.2,2024-03-25T14:52:08Z,905864.658,NULL,Wohlstand,mafanikio,d,NA,NA,NA,NA,sdfdsf,NA,1,NA,NA,NA,NA,NA,NA,NA,NA,NA,NA,NA,NA,NA,NA,NA,NA,NA,NA,NA
d5c4a,"""Falsch""-Screen",canvas.Screen,5_0_1_0_5_0_2,NA,NA,timeout,4996.142,905864.5,905864.658,905864.658,910843.9,910844.9,2024-03-25T14:52:13Z,910860.8,NULL,Wohlstand,mafanikio,d,NA,NA,NA,NA,sdfdsf,0,1,NA,NA,NA,NA,NA,NA,NA,NA,NA,NA,NA,NA,NA,NA,NA,NA,NA,NA,NA
d5c4a,deep,flow.Sequence,5_0_1_0_5_0,NA,NA,completion,14324.2,896509.1,896502.5,896519.7,910843.9,910845.3,2024-03-25T14:52:13Z,910860.8,NULL,Wohlstand,mafanikio,d,NA,NA,NA,NA,sdfdsf,NA,1,NA,NA,NA,NA,NA,NA,NA,NA,NA,NA,NA,NA,NA,NA,NA,NA,NA,NA,NA
d5c4a,shallow,flow.Sequence,5_0_1_0_5_1,NA,NA,skipped,NA,910845.4,NA,NA,910843.9,910845.6,2024-03-25T14:52:13Z,910860.8,NULL,Wohlstand,mafanikio,d,NA,NA,NA,NA,sdfdsf,NA,1,NA,NA,NA,NA,NA,NA,NA,NA,NA,NA,NA,NA,NA,NA,NA,NA,NA,NA,NA
d5c4a,task,flow.Sequence,5_0_1_0_5,NA,NA,completion,14324.2,896509,896502.5,896519.7,910843.9,910845.8,2024-03-25T14:52:13Z,910860.8,NULL,Wohlstand,mafanikio,d,NA,NA,NA,NA,sdfdsf,NA,1,NA,NA,NA,NA,NA,NA,NA,NA,NA,NA,NA,NA,NA,NA,NA,NA,NA,NA,NA
d5c4a,deep,flow.Sequence,5_0_1_0_6_0,NA,NA,skipped,NA,910845.9,NA,NA,910843.9,910846,2024-03-25T14:52:13Z,910860.8,NULL,Gelegenheit,wakati,s,mchanganyiko,kipaumbele,kushuku,NA,sdfdsf,NA,1,NA,NA,NA,NA,NA,NA,NA,NA,NA,NA,NA,NA,NA,NA,NA,NA,NA,NA,NA
d5c4a,Shallow Question,html.Page,5_0_1_0_6_1_0,NA,NA,form submission,11214.1,910846.1,910843.9,910860.8,922074.9,922075.2,2024-03-25T14:52:24Z,922087.2,NULL,Gelegenheit,wakati,s,mchanganyiko,kipaumbele,kushuku,wakati,NA,NA,1,NA,NA,NA,NA,NA,NA,NA,NA,NA,NA,NA,NA,NA,NA,NA,NA,NA,NA,NA
d5c4a,"""Richtig""-Screen",canvas.Screen,5_0_1_0_6_1_1,NA,NA,timeout,4996.9,922078.1,922071.092,922087.2,927067.4,927068.5,2024-03-25T14:52:29Z,927084.1,NULL,Gelegenheit,wakati,s,mchanganyiko,kipaumbele,kushuku,NA,sdfdsf,1,1,NA,NA,NA,NA,NA,NA,NA,NA,NA,NA,NA,NA,NA,NA,NA,NA,NA,NA,NA
d5c4a,"""Falsch""-Screen",canvas.Screen,5_0_1_0_6_1_2,NA,NA,skipped,NA,927073.8,NA,NA,927067.4,927073.8,2024-03-25T14:52:29Z,927084.1,NULL,Gelegenheit,wakati,s,mchanganyiko,kipaumbele,kushuku,NA,sdfdsf,NA,1,NA,NA,NA,NA,NA,NA,NA,NA,NA,NA,NA,NA,NA,NA,NA,NA,NA,NA,NA
d5c4a,shallow,flow.Sequence,5_0_1_0_6_1,NA,NA,completion,16206.6,910846.1,910843.9,910860.8,927067.4,927074,2024-03-25T14:52:29Z,927084.1,NULL,Gelegenheit,wakati,s,mchanganyiko,kipaumbele,kushuku,NA,sdfdsf,NA,1,NA,NA,NA,NA,NA,NA,NA,NA,NA,NA,NA,NA,NA,NA,NA,NA,NA,NA,NA
d5c4a,task,flow.Sequence,5_0_1_0_6,NA,NA,completion,16206.6,910845.8,910843.9,910860.8,927067.4,927074.1,2024-03-25T14:52:29Z,927084.1,NULL,Gelegenheit,wakati,s,mchanganyiko,kipaumbele,kushuku,NA,sdfdsf,NA,1,NA,NA,NA,NA,NA,NA,NA,NA,NA,NA,NA,NA,NA,NA,NA,NA,NA,NA,NA
d5c4a,deep,flow.Sequence,5_0_1_0_7_0,NA,NA,skipped,NA,927074.1,NA,NA,927067.4,927074.1,2024-03-25T14:52:29Z,927084.1,NULL,Ausschluss,kutengwa,s,ununuzi,taratibu,madeni,NA,sdfdsf,NA,1,NA,NA,NA,NA,NA,NA,NA,NA,NA,NA,NA,NA,NA,NA,NA,NA,NA,NA,NA
d5c4a,Shallow Question,html.Page,5_0_1_0_7_1_0,NA,NA,form submission,6491.3000000004,927074.1,927067.4,927084.1,933575.4,933575.7,2024-03-25T14:52:35Z,933579.8,NULL,Ausschluss,kutengwa,s,ununuzi,taratibu,madeni,kutengwa,NA,NA,1,NA,NA,NA,NA,NA,NA,NA,NA,NA,NA,NA,NA,NA,NA,NA,NA,NA,NA,NA
d5c4a,"""Richtig""-Screen",canvas.Screen,5_0_1_0_7_1_1,NA,NA,timeout,4996.8999999999,933578.5,933569.8,933579.8,938560.4,938561.2,2024-03-25T14:52:40Z,938576.7,NULL,Ausschluss,kutengwa,s,ununuzi,taratibu,madeni,NA,sdfdsf,1,1,NA,NA,NA,NA,NA,NA,NA,NA,NA,NA,NA,NA,NA,NA,NA,NA,NA,NA,NA
d5c4a,"""Falsch""-Screen",canvas.Screen,5_0_1_0_7_1_2,NA,NA,skipped,NA,938564.6,NA,NA,938560.4,938564.9,2024-03-25T14:52:40Z,938576.7,NULL,Ausschluss,kutengwa,s,ununuzi,taratibu,madeni,NA,sdfdsf,NA,1,NA,NA,NA,NA,NA,NA,NA,NA,NA,NA,NA,NA,NA,NA,NA,NA,NA,NA,NA
d5c4a,shallow,flow.Sequence,5_0_1_0_7_1,NA,NA,completion,11476.3,927074.1,927067.4,927084.1,938560.4,938565,2024-03-25T14:52:40Z,938576.7,NULL,Ausschluss,kutengwa,s,ununuzi,taratibu,madeni,NA,sdfdsf,NA,1,NA,NA,NA,NA,NA,NA,NA,NA,NA,NA,NA,NA,NA,NA,NA,NA,NA,NA,NA
d5c4a,task,flow.Sequence,5_0_1_0_7,NA,NA,completion,11476.3,927074.1,927067.4,927084.1,938560.4,938565.3,2024-03-25T14:52:40Z,938576.7,NULL,Ausschluss,kutengwa,s,ununuzi,taratibu,madeni,NA,sdfdsf,NA,1,NA,NA,NA,NA,NA,NA,NA,NA,NA,NA,NA,NA,NA,NA,NA,NA,NA,NA,NA
d5c4a,block,flow.Loop,5_0_1_0,NA,NA,completion,144545.4,794012.9,793999.216,794015,938560.4,938565.5,2024-03-25T14:52:40Z,938576.7,NULL,NA,NA,NA,NA,NA,NA,NA,sdfdsf,NA,1,NA,NA,NA,NA,NA,NA,NA,NA,NA,NA,NA,NA,NA,NA,NA,NA,NA,NA,NA
d5c4a,weiter,canvas.Screen,5_0_1_1,sdf,keypress(Space),response,1053.5000000002,938565.6,938560.4,938576.7,939630.2,939631.6,2024-03-25T14:52:41Z,939659.6,NULL,NA,NA,NA,NA,NA,NA,NA,sdfdsf,NA,1,NA,NA,NA,NA,NA,NA,NA,NA,NA,NA,NA,NA,NA,NA,NA,NA,NA,NA,NA
d5c4a,check continue,flow.Sequence,5_0_1,NA,NA,completion,145615.2,794012.9,793999.216,794015,939630.2,939632,2024-03-25T14:52:41Z,939659.6,NULL,NA,NA,NA,NA,NA,NA,NA,sdfdsf,NA,1,NA,NA,NA,NA,NA,NA,NA,NA,NA,NA,NA,NA,NA,NA,NA,NA,NA,NA,NA
d5c4a,Deep Question,html.Page,5_0_2_0_0_0_0,NA,NA,form submission,6263.3000000004,939650.2,939643.324,939659.6,945922.9,945923.2,2024-03-25T14:52:48Z,945938.9,NULL,Ergänzung,kijalizo,d,NA,NA,NA,kijalizo,NA,NA,2,NA,NA,NA,NA,NA,NA,NA,NA,NA,NA,NA,NA,NA,NA,NA,NA,NA,NA,NA
d5c4a,"""Richtig""-Screen",canvas.Screen,5_0_2_0_0_0_1,NA,NA,timeout,4997.2,945926,945923.364,945938.9,950919.6,950920.6,2024-03-25T14:52:53Z,950936.1,NULL,Ergänzung,kijalizo,d,NA,NA,NA,NA,sdf,1,2,NA,NA,NA,NA,NA,NA,NA,NA,NA,NA,NA,NA,NA,NA,NA,NA,NA,NA,NA
d5c4a,"""Falsch""-Screen",canvas.Screen,5_0_2_0_0_0_2,NA,NA,skipped,NA,950925.7,NA,NA,950919.6,950926,2024-03-25T14:52:53Z,950936.1,NULL,Ergänzung,kijalizo,d,NA,NA,NA,NA,sdf,NA,2,NA,NA,NA,NA,NA,NA,NA,NA,NA,NA,NA,NA,NA,NA,NA,NA,NA,NA,NA
d5c4a,deep,flow.Sequence,5_0_2_0_0_0,NA,NA,completion,11260,939650.2,939643.324,939659.6,950919.6,950926,2024-03-25T14:52:53Z,950936.1,NULL,Ergänzung,kijalizo,d,NA,NA,NA,NA,sdf,NA,2,NA,NA,NA,NA,NA,NA,NA,NA,NA,NA,NA,NA,NA,NA,NA,NA,NA,NA,NA
d5c4a,shallow,flow.Sequence,5_0_2_0_0_1,NA,NA,skipped,NA,950926.1,NA,NA,950919.6,950926.1,2024-03-25T14:52:53Z,950936.1,NULL,Ergänzung,kijalizo,d,NA,NA,NA,NA,sdf,NA,2,NA,NA,NA,NA,NA,NA,NA,NA,NA,NA,NA,NA,NA,NA,NA,NA,NA,NA,NA
d5c4a,task,flow.Sequence,5_0_2_0_0,NA,NA,completion,11260,939650.2,939643.324,939659.6,950919.6,950926.2,2024-03-25T14:52:53Z,950936.1,NULL,Ergänzung,kijalizo,d,NA,NA,NA,NA,sdf,NA,2,NA,NA,NA,NA,NA,NA,NA,NA,NA,NA,NA,NA,NA,NA,NA,NA,NA,NA,NA
d5c4a,deep,flow.Sequence,5_0_2_0_1_0,NA,NA,skipped,NA,950926.2,NA,NA,950919.6,950926.2,2024-03-25T14:52:53Z,950936.1,NULL,Vergnügen,kichekesho,s,dubwana,mpanuko,mtesaji,NA,sdf,NA,2,NA,NA,NA,NA,NA,NA,NA,NA,NA,NA,NA,NA,NA,NA,NA,NA,NA,NA,NA
d5c4a,Shallow Question,html.Page,5_0_2_0_1_1_0,NA,NA,form submission,3522.4,950926.3,950919.6,950936.1,954458.5,954458.8,2024-03-25T14:52:56Z,954467,NULL,Vergnügen,kichekesho,s,dubwana,mpanuko,mtesaji,kichekesho,NA,NA,2,NA,NA,NA,NA,NA,NA,NA,NA,NA,NA,NA,NA,NA,NA,NA,NA,NA,NA,NA
d5c4a,"""Richtig""-Screen",canvas.Screen,5_0_2_0_1_1_1,NA,NA,timeout,4997.4,954461.5,954453.9,954467,959447.6,959448.6,2024-03-25T14:53:01Z,959464.4,NULL,Vergnügen,kichekesho,s,dubwana,mpanuko,mtesaji,NA,sdf,1,2,NA,NA,NA,NA,NA,NA,NA,NA,NA,NA,NA,NA,NA,NA,NA,NA,NA,NA,NA
d5c4a,"""Falsch""-Screen",canvas.Screen,5_0_2_0_1_1_2,NA,NA,skipped,NA,959453.4,NA,NA,959447.6,959453.6,2024-03-25T14:53:01Z,959464.4,NULL,Vergnügen,kichekesho,s,dubwana,mpanuko,mtesaji,NA,sdf,NA,2,NA,NA,NA,NA,NA,NA,NA,NA,NA,NA,NA,NA,NA,NA,NA,NA,NA,NA,NA
d5c4a,shallow,flow.Sequence,5_0_2_0_1_1,NA,NA,completion,8511.5,950926.3,950919.6,950936.1,959447.6,959453.9,2024-03-25T14:53:01Z,959464.4,NULL,Vergnügen,kichekesho,s,dubwana,mpanuko,mtesaji,NA,sdf,NA,2,NA,NA,NA,NA,NA,NA,NA,NA,NA,NA,NA,NA,NA,NA,NA,NA,NA,NA,NA
d5c4a,task,flow.Sequence,5_0_2_0_1,NA,NA,completion,8511.5,950926.2,950919.6,950936.1,959447.6,959454.1,2024-03-25T14:53:01Z,959464.4,NULL,Vergnügen,kichekesho,s,dubwana,mpanuko,mtesaji,NA,sdf,NA,2,NA,NA,NA,NA,NA,NA,NA,NA,NA,NA,NA,NA,NA,NA,NA,NA,NA,NA,NA
d5c4a,deep,flow.Sequence,5_0_2_0_2_0,NA,NA,skipped,NA,959454.1,NA,NA,959447.6,959454.2,2024-03-25T14:53:01Z,959464.4,NULL,Notfall,dharura,s,rairai,malalamiko,ahueni,NA,sdf,NA,2,NA,NA,NA,NA,NA,NA,NA,NA,NA,NA,NA,NA,NA,NA,NA,NA,NA,NA,NA
d5c4a,Shallow Question,html.Page,5_0_2_0_2_1_0,NA,NA,form submission,3710.8999999998,959454.2,959447.6,959464.4,963175.3,963175.4,2024-03-25T14:53:05Z,963178.4,NULL,Notfall,dharura,s,rairai,malalamiko,ahueni,dharura,NA,NA,2,NA,NA,NA,NA,NA,NA,NA,NA,NA,NA,NA,NA,NA,NA,NA,NA,NA,NA,NA
d5c4a,"""Richtig""-Screen",canvas.Screen,5_0_2_0_2_1_1,NA,NA,timeout,4997.2,963176.7,963162.508,963178.4,968158.9,968160,2024-03-25T14:53:10Z,968175.6,NULL,Notfall,dharura,s,rairai,malalamiko,ahueni,NA,sdf,1,2,NA,NA,NA,NA,NA,NA,NA,NA,NA,NA,NA,NA,NA,NA,NA,NA,NA,NA,NA
d5c4a,"""Falsch""-Screen",canvas.Screen,5_0_2_0_2_1_2,NA,NA,skipped,NA,968164.8,NA,NA,968158.9,968164.9,2024-03-25T14:53:10Z,968175.6,NULL,Notfall,dharura,s,rairai,malalamiko,ahueni,NA,sdf,NA,2,NA,NA,NA,NA,NA,NA,NA,NA,NA,NA,NA,NA,NA,NA,NA,NA,NA,NA,NA
d5c4a,shallow,flow.Sequence,5_0_2_0_2_1,NA,NA,completion,8694.5,959454.2,959447.6,959464.4,968158.9,968165.2,2024-03-25T14:53:10Z,968175.6,NULL,Notfall,dharura,s,rairai,malalamiko,ahueni,NA,sdf,NA,2,NA,NA,NA,NA,NA,NA,NA,NA,NA,NA,NA,NA,NA,NA,NA,NA,NA,NA,NA
d5c4a,task,flow.Sequence,5_0_2_0_2,NA,NA,completion,8694.5,959454.1,959447.6,959464.4,968158.9,968165.3,2024-03-25T14:53:10Z,968175.6,NULL,Notfall,dharura,s,rairai,malalamiko,ahueni,NA,sdf,NA,2,NA,NA,NA,NA,NA,NA,NA,NA,NA,NA,NA,NA,NA,NA,NA,NA,NA,NA,NA
d5c4a,Deep Question,html.Page,5_0_2_0_3_0_0,NA,NA,form submission,9455.0000000006,968165.4,968158.9,968175.6,977630.6,977630.8,2024-03-25T14:53:19Z,977636.3,NULL,Verstand,ufahamivu,d,NA,NA,NA,mawumba,NA,NA,2,NA,NA,NA,NA,NA,NA,NA,NA,NA,NA,NA,NA,NA,NA,NA,NA,NA,NA,NA
d5c4a,"""Richtig""-Screen",canvas.Screen,5_0_2_0_3_0_1,NA,NA,skipped,NA,977633.8,NA,NA,977630.6,977634,2024-03-25T14:53:19Z,977636.3,NULL,Verstand,ufahamivu,d,NA,NA,NA,NA,sdf,NA,2,NA,NA,NA,NA,NA,NA,NA,NA,NA,NA,NA,NA,NA,NA,NA,NA,NA,NA,NA
d5c4a,"""Falsch""-Screen",canvas.Screen,5_0_2_0_3_0_2,NA,NA,timeout,4997.2999999999,977634.3,977621.516,977636.3,982616.6,982617.5,2024-03-25T14:53:24Z,982633.6,NULL,Verstand,ufahamivu,d,NA,NA,NA,NA,sdf,0,2,NA,NA,NA,NA,NA,NA,NA,NA,NA,NA,NA,NA,NA,NA,NA,NA,NA,NA,NA
d5c4a,deep,flow.Sequence,5_0_2_0_3_0,NA,NA,completion,14441,968165.4,968158.9,968175.6,982616.6,982617.8,2024-03-25T14:53:24Z,982633.6,NULL,Verstand,ufahamivu,d,NA,NA,NA,NA,sdf,NA,2,NA,NA,NA,NA,NA,NA,NA,NA,NA,NA,NA,NA,NA,NA,NA,NA,NA,NA,NA
d5c4a,shallow,flow.Sequence,5_0_2_0_3_1,NA,NA,skipped,NA,982618,NA,NA,982616.6,982618.1,2024-03-25T14:53:24Z,982633.6,NULL,Verstand,ufahamivu,d,NA,NA,NA,NA,sdf,NA,2,NA,NA,NA,NA,NA,NA,NA,NA,NA,NA,NA,NA,NA,NA,NA,NA,NA,NA,NA
d5c4a,task,flow.Sequence,5_0_2_0_3,NA,NA,completion,14441,968165.4,968158.9,968175.6,982616.6,982618.3,2024-03-25T14:53:24Z,982633.6,NULL,Verstand,ufahamivu,d,NA,NA,NA,NA,sdf,NA,2,NA,NA,NA,NA,NA,NA,NA,NA,NA,NA,NA,NA,NA,NA,NA,NA,NA,NA,NA
d5c4a,deep,flow.Sequence,5_0_2_0_4_0,NA,NA,skipped,NA,982618.4,NA,NA,982616.6,982618.6,2024-03-25T14:53:24Z,982633.6,NULL,Ausschluss,kutengwa,s,ununuzi,taratibu,madeni,NA,sdf,NA,2,NA,NA,NA,NA,NA,NA,NA,NA,NA,NA,NA,NA,NA,NA,NA,NA,NA,NA,NA
d5c4a,Shallow Question,html.Page,5_0_2_0_4_1_0,NA,NA,form submission,3950.1999999998,982618.7,982616.6,982633.6,986583.8,986584,2024-03-25T14:53:28Z,986597.4,NULL,Ausschluss,kutengwa,s,ununuzi,taratibu,madeni,kutengwa,NA,NA,2,NA,NA,NA,NA,NA,NA,NA,NA,NA,NA,NA,NA,NA,NA,NA,NA,NA,NA,NA
d5c4a,"""Richtig""-Screen",canvas.Screen,5_0_2_0_4_1_1,NA,NA,timeout,4997.5,986586.9,986581.98,986597.4,991577.9,991579,2024-03-25T14:53:33Z,991594.9,NULL,Ausschluss,kutengwa,s,ununuzi,taratibu,madeni,NA,sdf,1,2,NA,NA,NA,NA,NA,NA,NA,NA,NA,NA,NA,NA,NA,NA,NA,NA,NA,NA,NA
d5c4a,"""Falsch""-Screen",canvas.Screen,5_0_2_0_4_1_2,NA,NA,skipped,NA,991583.9,NA,NA,991577.9,991584,2024-03-25T14:53:33Z,991594.9,NULL,Ausschluss,kutengwa,s,ununuzi,taratibu,madeni,NA,sdf,NA,2,NA,NA,NA,NA,NA,NA,NA,NA,NA,NA,NA,NA,NA,NA,NA,NA,NA,NA,NA
d5c4a,shallow,flow.Sequence,5_0_2_0_4_1,NA,NA,completion,8944.3,982618.6,982616.6,982633.6,991577.9,991584.2,2024-03-25T14:53:33Z,991594.9,NULL,Ausschluss,kutengwa,s,ununuzi,taratibu,madeni,NA,sdf,NA,2,NA,NA,NA,NA,NA,NA,NA,NA,NA,NA,NA,NA,NA,NA,NA,NA,NA,NA,NA
d5c4a,task,flow.Sequence,5_0_2_0_4,NA,NA,completion,8944.3,982618.4,982616.6,982633.6,991577.9,991584.3,2024-03-25T14:53:33Z,991594.9,NULL,Ausschluss,kutengwa,s,ununuzi,taratibu,madeni,NA,sdf,NA,2,NA,NA,NA,NA,NA,NA,NA,NA,NA,NA,NA,NA,NA,NA,NA,NA,NA,NA,NA
d5c4a,deep,flow.Sequence,5_0_2_0_5_0,NA,NA,skipped,NA,991584.3,NA,NA,991577.9,991584.3,2024-03-25T14:53:33Z,991594.9,NULL,Gelegenheit,wakati,s,mchanganyiko,kipaumbele,kushuku,NA,sdf,NA,2,NA,NA,NA,NA,NA,NA,NA,NA,NA,NA,NA,NA,NA,NA,NA,NA,NA,NA,NA
d5c4a,Shallow Question,html.Page,5_0_2_0_5_1_0,NA,NA,form submission,3909.8000000002,991584.4,991577.9,991594.9,995504.7,995504.9,2024-03-25T14:53:37Z,995508.7,NULL,Gelegenheit,wakati,s,mchanganyiko,kipaumbele,kushuku,wakati,NA,NA,2,NA,NA,NA,NA,NA,NA,NA,NA,NA,NA,NA,NA,NA,NA,NA,NA,NA,NA,NA
d5c4a,"""Richtig""-Screen",canvas.Screen,5_0_2_0_5_1_1,NA,NA,timeout,4996.9,995508,995492.996,995508.7,1000489.4,1000490.5,2024-03-25T14:53:42Z,1000505.6,NULL,Gelegenheit,wakati,s,mchanganyiko,kipaumbele,kushuku,NA,sdf,1,2,NA,NA,NA,NA,NA,NA,NA,NA,NA,NA,NA,NA,NA,NA,NA,NA,NA,NA,NA
d5c4a,"""Falsch""-Screen",canvas.Screen,5_0_2_0_5_1_2,NA,NA,skipped,NA,1000496.1,NA,NA,1000489.4,1000496.3,2024-03-25T14:53:42Z,1000505.6,NULL,Gelegenheit,wakati,s,mchanganyiko,kipaumbele,kushuku,NA,sdf,NA,2,NA,NA,NA,NA,NA,NA,NA,NA,NA,NA,NA,NA,NA,NA,NA,NA,NA,NA,NA
d5c4a,shallow,flow.Sequence,5_0_2_0_5_1,NA,NA,completion,8894.5,991584.3,991577.9,991594.9,1000489.4,1000496.6,2024-03-25T14:53:42Z,1000505.6,NULL,Gelegenheit,wakati,s,mchanganyiko,kipaumbele,kushuku,NA,sdf,NA,2,NA,NA,NA,NA,NA,NA,NA,NA,NA,NA,NA,NA,NA,NA,NA,NA,NA,NA,NA
d5c4a,task,flow.Sequence,5_0_2_0_5,NA,NA,completion,8894.5,991584.3,991577.9,991594.9,1000489.4,1000496.7,2024-03-25T14:53:42Z,1000505.6,NULL,Gelegenheit,wakati,s,mchanganyiko,kipaumbele,kushuku,NA,sdf,NA,2,NA,NA,NA,NA,NA,NA,NA,NA,NA,NA,NA,NA,NA,NA,NA,NA,NA,NA,NA
d5c4a,Deep Question,html.Page,5_0_2_0_6_0_0,NA,NA,form submission,5745.8000000004,1000496.9,1000489.4,1000505.6,1006251.4,1006251.7,2024-03-25T14:53:48Z,1006270.4,NULL,Widerstand,usulubu,d,NA,NA,NA,usulubu,NA,NA,2,NA,NA,NA,NA,NA,NA,NA,NA,NA,NA,NA,NA,NA,NA,NA,NA,NA,NA,NA
d5c4a,"""Richtig""-Screen",canvas.Screen,5_0_2_0_6_0_1,NA,NA,timeout,4995.4,1006254.6,1006254.786,1006270.4,1011249.1,1011250.3,2024-03-25T14:53:53Z,1011265.8,NULL,Widerstand,usulubu,d,NA,NA,NA,NA,sdf,1,2,NA,NA,NA,NA,NA,NA,NA,NA,NA,NA,NA,NA,NA,NA,NA,NA,NA,NA,NA
d5c4a,"""Falsch""-Screen",canvas.Screen,5_0_2_0_6_0_2,NA,NA,skipped,NA,1011256,NA,NA,1011249.1,1011256.2,2024-03-25T14:53:53Z,1011265.8,NULL,Widerstand,usulubu,d,NA,NA,NA,NA,sdf,NA,2,NA,NA,NA,NA,NA,NA,NA,NA,NA,NA,NA,NA,NA,NA,NA,NA,NA,NA,NA
d5c4a,deep,flow.Sequence,5_0_2_0_6_0,NA,NA,completion,10743.5,1000496.9,1000489.4,1000505.6,1011249.1,1011256.4,2024-03-25T14:53:53Z,1011265.8,NULL,Widerstand,usulubu,d,NA,NA,NA,NA,sdf,NA,2,NA,NA,NA,NA,NA,NA,NA,NA,NA,NA,NA,NA,NA,NA,NA,NA,NA,NA,NA
d5c4a,shallow,flow.Sequence,5_0_2_0_6_1,NA,NA,skipped,NA,1011256.4,NA,NA,1011249.1,1011256.4,2024-03-25T14:53:53Z,1011265.8,NULL,Widerstand,usulubu,d,NA,NA,NA,NA,sdf,NA,2,NA,NA,NA,NA,NA,NA,NA,NA,NA,NA,NA,NA,NA,NA,NA,NA,NA,NA,NA
d5c4a,task,flow.Sequence,5_0_2_0_6,NA,NA,completion,10743.5,1000496.8,1000489.4,1000505.6,1011249.1,1011256.6,2024-03-25T14:53:53Z,1011265.8,NULL,Widerstand,usulubu,d,NA,NA,NA,NA,sdf,NA,2,NA,NA,NA,NA,NA,NA,NA,NA,NA,NA,NA,NA,NA,NA,NA,NA,NA,NA,NA
d5c4a,Deep Question,html.Page,5_0_2_0_7_0_0,NA,NA,form submission,5922.9999999998,1011256.6,1011249.1,1011265.8,1017188.8,1017189.1,2024-03-25T14:53:59Z,1017195.4,NULL,Wohlstand,mafanikio,d,NA,NA,NA,mafanikio,NA,NA,2,NA,NA,NA,NA,NA,NA,NA,NA,NA,NA,NA,NA,NA,NA,NA,NA,NA,NA,NA
d5c4a,"""Richtig""-Screen",canvas.Screen,5_0_2_0_7_0_1,NA,NA,timeout,4997,1017191.9,1017180.944,1017195.4,1022175.9,1022176.9,2024-03-25T14:54:04Z,1022192.4,NULL,Wohlstand,mafanikio,d,NA,NA,NA,NA,sdf,1,2,NA,NA,NA,NA,NA,NA,NA,NA,NA,NA,NA,NA,NA,NA,NA,NA,NA,NA,NA
d5c4a,"""Falsch""-Screen",canvas.Screen,5_0_2_0_7_0_2,NA,NA,skipped,NA,1022181.6,NA,NA,1022175.9,1022181.9,2024-03-25T14:54:04Z,1022192.4,NULL,Wohlstand,mafanikio,d,NA,NA,NA,NA,sdf,NA,2,NA,NA,NA,NA,NA,NA,NA,NA,NA,NA,NA,NA,NA,NA,NA,NA,NA,NA,NA
d5c4a,deep,flow.Sequence,5_0_2_0_7_0,NA,NA,completion,10910.1,1011256.6,1011249.1,1011265.8,1022175.9,1022182.1,2024-03-25T14:54:04Z,1022192.4,NULL,Wohlstand,mafanikio,d,NA,NA,NA,NA,sdf,NA,2,NA,NA,NA,NA,NA,NA,NA,NA,NA,NA,NA,NA,NA,NA,NA,NA,NA,NA,NA
d5c4a,shallow,flow.Sequence,5_0_2_0_7_1,NA,NA,skipped,NA,1022182.2,NA,NA,1022175.9,1022182.3,2024-03-25T14:54:04Z,1022192.4,NULL,Wohlstand,mafanikio,d,NA,NA,NA,NA,sdf,NA,2,NA,NA,NA,NA,NA,NA,NA,NA,NA,NA,NA,NA,NA,NA,NA,NA,NA,NA,NA
d5c4a,task,flow.Sequence,5_0_2_0_7,NA,NA,completion,10910.1,1011256.6,1011249.1,1011265.8,1022175.9,1022182.3,2024-03-25T14:54:04Z,1022192.4,NULL,Wohlstand,mafanikio,d,NA,NA,NA,NA,sdf,NA,2,NA,NA,NA,NA,NA,NA,NA,NA,NA,NA,NA,NA,NA,NA,NA,NA,NA,NA,NA
d5c4a,block,flow.Loop,5_0_2_0,NA,NA,completion,82516.3,939650.2,939643.324,939659.6,1022175.9,1022182.4,2024-03-25T14:54:04Z,1022192.4,NULL,NA,NA,NA,NA,NA,NA,NA,sdf,NA,2,NA,NA,NA,NA,NA,NA,NA,NA,NA,NA,NA,NA,NA,NA,NA,NA,NA,NA,NA
d5c4a,weiter,canvas.Screen,5_0_2_1,sdf,keypress(Space),response,1084.8999999998,1022182.4,1022175.9,1022192.4,1023277.3,1023278.8,2024-03-25T14:54:05Z,1023608.1,NULL,NA,NA,NA,NA,NA,NA,NA,sdf,NA,2,NA,NA,NA,NA,NA,NA,NA,NA,NA,NA,NA,NA,NA,NA,NA,NA,NA,NA,NA
d5c4a,check continue,flow.Sequence,5_0_2,NA,NA,completion,83617.7,939650.2,939643.324,939659.6,1023277.3,1023279.1,2024-03-25T14:54:05Z,1023608.1,NULL,NA,NA,NA,NA,NA,NA,NA,sdf,NA,2,NA,NA,NA,NA,NA,NA,NA,NA,NA,NA,NA,NA,NA,NA,NA,NA,NA,NA,NA
d5c4a,check continue,flow.Sequence,5_0_3,NA,NA,skipped,NA,1023297.4,NA,NA,1023277.3,1023297.5,2024-03-25T14:54:05Z,1023608.1,NULL,NA,NA,NA,NA,NA,NA,NA,qt,NA,3,NA,NA,NA,NA,NA,NA,NA,NA,NA,NA,NA,NA,NA,NA,NA,NA,NA,NA,NA
d5c4a,check continue,flow.Sequence,5_0_4,NA,NA,skipped,NA,1023310.5,NA,NA,1023277.3,1023310.5,2024-03-25T14:54:05Z,1023608.1,NULL,NA,NA,NA,NA,NA,NA,NA,sd,NA,4,NA,NA,NA,NA,NA,NA,NA,NA,NA,NA,NA,NA,NA,NA,NA,NA,NA,NA,NA
d5c4a,check continue,flow.Sequence,5_0_5,NA,NA,skipped,NA,1023323,NA,NA,1023277.3,1023323.1,2024-03-25T14:54:05Z,1023608.1,NULL,NA,NA,NA,NA,NA,NA,NA,sdf,NA,5,NA,NA,NA,NA,NA,NA,NA,NA,NA,NA,NA,NA,NA,NA,NA,NA,NA,NA,NA
d5c4a,check continue,flow.Sequence,5_0_6,NA,NA,skipped,NA,1023336.4,NA,NA,1023277.3,1023336.5,2024-03-25T14:54:05Z,1023608.1,NULL,NA,NA,NA,NA,NA,NA,NA,dfs,NA,6,NA,NA,NA,NA,NA,NA,NA,NA,NA,NA,NA,NA,NA,NA,NA,NA,NA,NA,NA
d5c4a,check continue,flow.Sequence,5_0_7,NA,NA,skipped,NA,1023349.8,NA,NA,1023277.3,1023350,2024-03-25T14:54:05Z,1023608.1,NULL,NA,NA,NA,NA,NA,NA,NA,df,NA,7,NA,NA,NA,NA,NA,NA,NA,NA,NA,NA,NA,NA,NA,NA,NA,NA,NA,NA,NA
d5c4a,check continue,flow.Sequence,5_0_8,NA,NA,skipped,NA,1023361.9,NA,NA,1023277.3,1023361.9,2024-03-25T14:54:05Z,1023608.1,NULL,NA,NA,NA,NA,NA,NA,NA,dfs,NA,8,NA,NA,NA,NA,NA,NA,NA,NA,NA,NA,NA,NA,NA,NA,NA,NA,NA,NA,NA
d5c4a,check continue,flow.Sequence,5_0_9,NA,NA,skipped,NA,1023373.6,NA,NA,1023277.3,1023373.6,2024-03-25T14:54:05Z,1023608.1,NULL,NA,NA,NA,NA,NA,NA,NA,dsf,NA,9,NA,NA,NA,NA,NA,NA,NA,NA,NA,NA,NA,NA,NA,NA,NA,NA,NA,NA,NA
d5c4a,check continue,flow.Sequence,5_0_10,NA,NA,skipped,NA,1023386.6,NA,NA,1023277.3,1023386.6,2024-03-25T14:54:05Z,1023608.1,NULL,NA,NA,NA,NA,NA,NA,NA,df,NA,10,NA,NA,NA,NA,NA,NA,NA,NA,NA,NA,NA,NA,NA,NA,NA,NA,NA,NA,NA
d5c4a,check continue,flow.Sequence,5_0_11,NA,NA,skipped,NA,1023398.6,NA,NA,1023277.3,1023398.6,2024-03-25T14:54:05Z,1023608.1,NULL,NA,NA,NA,NA,NA,NA,NA,dfs,NA,11,NA,NA,NA,NA,NA,NA,NA,NA,NA,NA,NA,NA,NA,NA,NA,NA,NA,NA,NA
d5c4a,check continue,flow.Sequence,5_0_12,NA,NA,skipped,NA,1023410.6,NA,NA,1023277.3,1023410.6,2024-03-25T14:54:05Z,1023608.1,NULL,NA,NA,NA,NA,NA,NA,NA,dsf,NA,12,NA,NA,NA,NA,NA,NA,NA,NA,NA,NA,NA,NA,NA,NA,NA,NA,NA,NA,NA
d5c4a,check continue,flow.Sequence,5_0_13,NA,NA,skipped,NA,1023421.9,NA,NA,1023277.3,1023421.9,2024-03-25T14:54:05Z,1023608.1,NULL,NA,NA,NA,NA,NA,NA,NA,dsf,NA,13,NA,NA,NA,NA,NA,NA,NA,NA,NA,NA,NA,NA,NA,NA,NA,NA,NA,NA,NA
d5c4a,check continue,flow.Sequence,5_0_14,NA,NA,skipped,NA,1023433.2,NA,NA,1023277.3,1023433.2,2024-03-25T14:54:05Z,1023608.1,NULL,NA,NA,NA,NA,NA,NA,NA,NA,NA,14,NA,NA,NA,NA,NA,NA,NA,NA,NA,NA,NA,NA,NA,NA,NA,NA,NA,NA,NA
d5c4a,check continue,flow.Sequence,5_0_15,NA,NA,skipped,NA,1023444.5,NA,NA,1023277.3,1023444.7,2024-03-25T14:54:05Z,1023608.1,NULL,NA,NA,NA,NA,NA,NA,NA,NA,NA,15,NA,NA,NA,NA,NA,NA,NA,NA,NA,NA,NA,NA,NA,NA,NA,NA,NA,NA,NA
d5c4a,check continue,flow.Sequence,5_0_16,NA,NA,skipped,NA,1023456.4,NA,NA,1023277.3,1023456.6,2024-03-25T14:54:05Z,1023608.1,NULL,NA,NA,NA,NA,NA,NA,NA,NA,NA,16,NA,NA,NA,NA,NA,NA,NA,NA,NA,NA,NA,NA,NA,NA,NA,NA,NA,NA,NA
d5c4a,check continue,flow.Sequence,5_0_17,NA,NA,skipped,NA,1023467.9,NA,NA,1023277.3,1023468,2024-03-25T14:54:05Z,1023608.1,NULL,NA,NA,NA,NA,NA,NA,NA,NA,NA,17,NA,NA,NA,NA,NA,NA,NA,NA,NA,NA,NA,NA,NA,NA,NA,NA,NA,NA,NA
d5c4a,check continue,flow.Sequence,5_0_18,NA,NA,skipped,NA,1023478.2,NA,NA,1023277.3,1023478.2,2024-03-25T14:54:05Z,1023608.1,NULL,NA,NA,NA,NA,NA,NA,NA,NA,NA,18,NA,NA,NA,NA,NA,NA,NA,NA,NA,NA,NA,NA,NA,NA,NA,NA,NA,NA,NA
d5c4a,check continue,flow.Sequence,5_0_19,NA,NA,skipped,NA,1023489.8,NA,NA,1023277.3,1023490,2024-03-25T14:54:05Z,1023608.1,NULL,NA,NA,NA,NA,NA,NA,NA,NA,NA,19,NA,NA,NA,NA,NA,NA,NA,NA,NA,NA,NA,NA,NA,NA,NA,NA,NA,NA,NA
d5c4a,check continue,flow.Sequence,5_0_20,NA,NA,skipped,NA,1023501.1,NA,NA,1023277.3,1023501.2,2024-03-25T14:54:05Z,1023608.1,NULL,NA,NA,NA,NA,NA,NA,NA,NA,NA,20,NA,NA,NA,NA,NA,NA,NA,NA,NA,NA,NA,NA,NA,NA,NA,NA,NA,NA,NA
d5c4a,check continue,flow.Sequence,5_0_21,NA,NA,skipped,NA,1023512.8,NA,NA,1023277.3,1023512.8,2024-03-25T14:54:05Z,1023608.1,NULL,NA,NA,NA,NA,NA,NA,NA,NA,NA,21,NA,NA,NA,NA,NA,NA,NA,NA,NA,NA,NA,NA,NA,NA,NA,NA,NA,NA,NA
