observation,sender,sender_type,sender_id,response,response_action,ended_on,duration,time_run,time_render,time_show,time_end,time_commit,timestamp,time_switch,german,swahili,enc,distractor1,distractor2,distractor3,response_2,x,correct,distractors,url_vp,url_sess,meta_labjs_version,meta_location,meta_user_agent,meta_platform,meta_language,meta_locale,meta_time_zone,meta_timezone_offset,meta_screen_width,meta_screen_height,meta_scroll_width,meta_scroll_height,meta_window_inner_width,meta_window_inner_height,meta_device_pixel_ratio,meta_labjs_build_flavor,meta_labjs_build_commit
065e4,Introduction delayed retrieval,canvas.Screen,0,weiter,keypress(Space),response,15034,207,209,239,15243,15058,2024-04-18T13:36:58Z,15102,NA,NA,NA,NA,NA,NA,NA,NA,NA,NULL,144,4,20.2.4,https://neurocog.fernuni.ch/studies/vweber/aberisha/delayed/index.html?vp=144&sess=4,"Mozilla/5.0 (Macintosh; Intel Mac OS X 10_15_7) AppleWebKit/605.1.15 (KHTML, like Gecko) Version/17.3.1 Safari/605.1.15",MacIntel,de-DE,de-DE,Europe/Zurich,-120,1440,900,1440,724,1440,772,2,production,f5b4a49f956347addd546a832a3327688c2c0fef
065e4,Deep Question,html.Page,1_0_0_0,NA,NA,form submission,29522,15058,15082,15102,44624,44624,2024-04-18T13:37:28Z,44636,Stimmung,kinyongo,d,kilekile,kisambo,madhehebu,kimyongo,NA,NA,NULL,NA,NA,NA,NA,NA,NA,NA,NA,NA,NA,NA,NA,NA,NA,NA,NA,NA,NA,NA
065e4,Save data screen,canvas.Screen,1_0_0_1,NA,NA,timeout,500,44625,44627,44636,45119,45121,2024-04-18T13:37:28Z,45136,Stimmung,kinyongo,d,kilekile,kisambo,madhehebu,NA,NA,0,NULL,NA,NA,NA,NA,NA,NA,NA,NA,NA,NA,NA,NA,NA,NA,NA,NA,NA,NA,NA
065e4,deep,flow.Sequence,1_0_0,NA,NA,completion,30017,15058,15082,15102,45119,45122,2024-04-18T13:37:28Z,45136,Stimmung,kinyongo,d,kilekile,kisambo,madhehebu,NA,NA,NA,NULL,NA,NA,NA,NA,NA,NA,NA,NA,NA,NA,NA,NA,NA,NA,NA,NA,NA,NA,NA
065e4,task,flow.Sequence,1_0,NA,NA,completion,30017,15058,15082,15102,45119,45122,2024-04-18T13:37:28Z,45136,Stimmung,kinyongo,d,kilekile,kisambo,madhehebu,NA,NA,NA,NULL,NA,NA,NA,NA,NA,NA,NA,NA,NA,NA,NA,NA,NA,NA,NA,NA,NA,NA,NA
065e4,Deep Question,html.Page,1_1_0_0,NA,NA,form submission,9723,45123,45119,45136,54859,54860,2024-04-18T13:37:38Z,54886,Orientierung,urekebisho,s,uelekeo,marekebisho,utunzaji,mathadidi,NA,NA,NULL,NA,NA,NA,NA,NA,NA,NA,NA,NA,NA,NA,NA,NA,NA,NA,NA,NA,NA,NA
065e4,Save data screen,canvas.Screen,1_1_0_1,NA,NA,timeout,500,54861,54863,54886,55370,55371,2024-04-18T13:37:38Z,55386,Orientierung,urekebisho,s,uelekeo,marekebisho,utunzaji,NA,NA,0,NULL,NA,NA,NA,NA,NA,NA,NA,NA,NA,NA,NA,NA,NA,NA,NA,NA,NA,NA,NA
065e4,deep,flow.Sequence,1_1_0,NA,NA,completion,10234,45122,45119,45136,55370,55371,2024-04-18T13:37:38Z,55386,Orientierung,urekebisho,s,uelekeo,marekebisho,utunzaji,NA,NA,NA,NULL,NA,NA,NA,NA,NA,NA,NA,NA,NA,NA,NA,NA,NA,NA,NA,NA,NA,NA,NA
065e4,task,flow.Sequence,1_1,NA,NA,completion,10234,45122,45119,45136,55370,55372,2024-04-18T13:37:38Z,55386,Orientierung,urekebisho,s,uelekeo,marekebisho,utunzaji,NA,NA,NA,NULL,NA,NA,NA,NA,NA,NA,NA,NA,NA,NA,NA,NA,NA,NA,NA,NA,NA,NA,NA
065e4,Deep Question,html.Page,1_2_0_0,NA,NA,form submission,4777,55372,55370,55386,60163,60163,2024-04-18T13:37:43Z,60186,Genehmigung,idhini,d,mwanamke,itikadi,fedheha,idhini,NA,NA,NULL,NA,NA,NA,NA,NA,NA,NA,NA,NA,NA,NA,NA,NA,NA,NA,NA,NA,NA,NA
065e4,Save data screen,canvas.Screen,1_2_0_1,NA,NA,timeout,500,60164,60170,60186,60670,60671,2024-04-18T13:37:44Z,60686,Genehmigung,idhini,d,mwanamke,itikadi,fedheha,NA,NA,1,NULL,NA,NA,NA,NA,NA,NA,NA,NA,NA,NA,NA,NA,NA,NA,NA,NA,NA,NA,NA
065e4,deep,flow.Sequence,1_2_0,NA,NA,completion,5284,55372,55370,55386,60670,60672,2024-04-18T13:37:44Z,60686,Genehmigung,idhini,d,mwanamke,itikadi,fedheha,NA,NA,NA,NULL,NA,NA,NA,NA,NA,NA,NA,NA,NA,NA,NA,NA,NA,NA,NA,NA,NA,NA,NA
065e4,task,flow.Sequence,1_2,NA,NA,completion,5284,55372,55370,55386,60670,60673,2024-04-18T13:37:44Z,60686,Genehmigung,idhini,d,mwanamke,itikadi,fedheha,NA,NA,NA,NULL,NA,NA,NA,NA,NA,NA,NA,NA,NA,NA,NA,NA,NA,NA,NA,NA,NA,NA,NA
065e4,Deep Question,html.Page,1_3_0_0,NA,NA,form submission,12666,60673,60670,60686,73352,73352,2024-04-18T13:37:56Z,73370,Wechsel,ugeuzaji,s,utambulisho,kujenga,wasiwasi,matadi,NA,NA,NULL,NA,NA,NA,NA,NA,NA,NA,NA,NA,NA,NA,NA,NA,NA,NA,NA,NA,NA,NA
065e4,Save data screen,canvas.Screen,1_3_0_1,NA,NA,timeout,500,73353,73355,73370,73853,73854,2024-04-18T13:37:57Z,73870,Wechsel,ugeuzaji,s,utambulisho,kujenga,wasiwasi,NA,NA,0,NULL,NA,NA,NA,NA,NA,NA,NA,NA,NA,NA,NA,NA,NA,NA,NA,NA,NA,NA,NA
065e4,deep,flow.Sequence,1_3_0,NA,NA,completion,13167,60673,60670,60686,73853,73855,2024-04-18T13:37:57Z,73870,Wechsel,ugeuzaji,s,utambulisho,kujenga,wasiwasi,NA,NA,NA,NULL,NA,NA,NA,NA,NA,NA,NA,NA,NA,NA,NA,NA,NA,NA,NA,NA,NA,NA,NA
065e4,task,flow.Sequence,1_3,NA,NA,completion,13167,60673,60670,60686,73853,73855,2024-04-18T13:37:57Z,73870,Wechsel,ugeuzaji,s,utambulisho,kujenga,wasiwasi,NA,NA,NA,NULL,NA,NA,NA,NA,NA,NA,NA,NA,NA,NA,NA,NA,NA,NA,NA,NA,NA,NA,NA
065e4,Deep Question,html.Page,1_4_0_0,NA,NA,form submission,25563,73856,73853,73870,99433,99434,2024-04-18T13:38:23Z,99454,Integrität,uadilifu,s,muungano,mtiririko,upunguaji,madali,NA,NA,NULL,NA,NA,NA,NA,NA,NA,NA,NA,NA,NA,NA,NA,NA,NA,NA,NA,NA,NA,NA
065e4,Save data screen,canvas.Screen,1_4_0_1,NA,NA,timeout,500,99434,99436,99454,99938,99938,2024-04-18T13:38:23Z,99954,Integrität,uadilifu,s,muungano,mtiririko,upunguaji,NA,NA,0,NULL,NA,NA,NA,NA,NA,NA,NA,NA,NA,NA,NA,NA,NA,NA,NA,NA,NA,NA,NA
065e4,deep,flow.Sequence,1_4_0,NA,NA,completion,26068,73855,73853,73870,99938,99939,2024-04-18T13:38:23Z,99954,Integrität,uadilifu,s,muungano,mtiririko,upunguaji,NA,NA,NA,NULL,NA,NA,NA,NA,NA,NA,NA,NA,NA,NA,NA,NA,NA,NA,NA,NA,NA,NA,NA
065e4,task,flow.Sequence,1_4,NA,NA,completion,26068,73855,73853,73870,99938,99940,2024-04-18T13:38:23Z,99954,Integrität,uadilifu,s,muungano,mtiririko,upunguaji,NA,NA,NA,NULL,NA,NA,NA,NA,NA,NA,NA,NA,NA,NA,NA,NA,NA,NA,NA,NA,NA,NA,NA
065e4,Deep Question,html.Page,1_5_0_0,NA,NA,form submission,4061,99940,99938,99954,104015,104015,2024-04-18T13:38:27Z,104037,Begegnung,kukutana,d,mmasihiya,mpiganaji,husiano,halo,NA,NA,NULL,NA,NA,NA,NA,NA,NA,NA,NA,NA,NA,NA,NA,NA,NA,NA,NA,NA,NA,NA
065e4,Save data screen,canvas.Screen,1_5_0_1,NA,NA,timeout,501,104016,104018,104037,104521,104521,2024-04-18T13:38:28Z,104538,Begegnung,kukutana,d,mmasihiya,mpiganaji,husiano,NA,NA,0,NULL,NA,NA,NA,NA,NA,NA,NA,NA,NA,NA,NA,NA,NA,NA,NA,NA,NA,NA,NA
065e4,deep,flow.Sequence,1_5_0,NA,NA,completion,4567,99940,99938,99954,104521,104522,2024-04-18T13:38:28Z,104538,Begegnung,kukutana,d,mmasihiya,mpiganaji,husiano,NA,NA,NA,NULL,NA,NA,NA,NA,NA,NA,NA,NA,NA,NA,NA,NA,NA,NA,NA,NA,NA,NA,NA
065e4,task,flow.Sequence,1_5,NA,NA,completion,4567,99940,99938,99954,104521,104522,2024-04-18T13:38:28Z,104538,Begegnung,kukutana,d,mmasihiya,mpiganaji,husiano,NA,NA,NA,NULL,NA,NA,NA,NA,NA,NA,NA,NA,NA,NA,NA,NA,NA,NA,NA,NA,NA,NA,NA
065e4,Deep Question,html.Page,1_6_0_0,NA,NA,form submission,9483,104522,104521,104538,114021,114022,2024-04-18T13:38:37Z,114038,Erneuerung,ukarabati,s,ushawishi,ukalifu,unyonyaji,bamwaza,NA,NA,NULL,NA,NA,NA,NA,NA,NA,NA,NA,NA,NA,NA,NA,NA,NA,NA,NA,NA,NA,NA
065e4,Save data screen,canvas.Screen,1_6_0_1,NA,NA,timeout,500,114023,114024,114038,114521,114522,2024-04-18T13:38:38Z,114538,Erneuerung,ukarabati,s,ushawishi,ukalifu,unyonyaji,NA,NA,0,NULL,NA,NA,NA,NA,NA,NA,NA,NA,NA,NA,NA,NA,NA,NA,NA,NA,NA,NA,NA
065e4,deep,flow.Sequence,1_6_0,NA,NA,completion,9983,104522,104521,104538,114521,114522,2024-04-18T13:38:38Z,114538,Erneuerung,ukarabati,s,ushawishi,ukalifu,unyonyaji,NA,NA,NA,NULL,NA,NA,NA,NA,NA,NA,NA,NA,NA,NA,NA,NA,NA,NA,NA,NA,NA,NA,NA
065e4,task,flow.Sequence,1_6,NA,NA,completion,9983,104522,104521,104538,114521,114523,2024-04-18T13:38:38Z,114538,Erneuerung,ukarabati,s,ushawishi,ukalifu,unyonyaji,NA,NA,NA,NULL,NA,NA,NA,NA,NA,NA,NA,NA,NA,NA,NA,NA,NA,NA,NA,NA,NA,NA,NA
065e4,Deep Question,html.Page,1_7_0_0,NA,NA,form submission,14414,114523,114521,114538,128952,128952,2024-04-18T13:38:52Z,128971,Vorwurf,mashtaka,d,msukumo,mtangulizi,uenyekiti,mashtaka,NA,NA,NULL,NA,NA,NA,NA,NA,NA,NA,NA,NA,NA,NA,NA,NA,NA,NA,NA,NA,NA,NA
065e4,Save data screen,canvas.Screen,1_7_0_1,NA,NA,timeout,500,128953,128955,128971,129455,129456,2024-04-18T13:38:53Z,129471,Vorwurf,mashtaka,d,msukumo,mtangulizi,uenyekiti,NA,NA,1,NULL,NA,NA,NA,NA,NA,NA,NA,NA,NA,NA,NA,NA,NA,NA,NA,NA,NA,NA,NA
065e4,deep,flow.Sequence,1_7_0,NA,NA,completion,14917,114523,114521,114538,129455,129457,2024-04-18T13:38:53Z,129471,Vorwurf,mashtaka,d,msukumo,mtangulizi,uenyekiti,NA,NA,NA,NULL,NA,NA,NA,NA,NA,NA,NA,NA,NA,NA,NA,NA,NA,NA,NA,NA,NA,NA,NA
065e4,task,flow.Sequence,1_7,NA,NA,completion,14917,114523,114521,114538,129455,129457,2024-04-18T13:38:53Z,129471,Vorwurf,mashtaka,d,msukumo,mtangulizi,uenyekiti,NA,NA,NA,NULL,NA,NA,NA,NA,NA,NA,NA,NA,NA,NA,NA,NA,NA,NA,NA,NA,NA,NA,NA
065e4,Deep Question,html.Page,1_8_0_0,NA,NA,form submission,34985,129458,129455,129471,164456,164456,2024-04-18T13:39:28Z,164472,Respekt,heshima,s,changamnao,upinzani,ufanisi,l,NA,NA,NULL,NA,NA,NA,NA,NA,NA,NA,NA,NA,NA,NA,NA,NA,NA,NA,NA,NA,NA,NA
065e4,Save data screen,canvas.Screen,1_8_0_1,NA,NA,timeout,500,164457,164460,164472,164956,164957,2024-04-18T13:39:28Z,164972,Respekt,heshima,s,changamnao,upinzani,ufanisi,NA,NA,0,NULL,NA,NA,NA,NA,NA,NA,NA,NA,NA,NA,NA,NA,NA,NA,NA,NA,NA,NA,NA
065e4,deep,flow.Sequence,1_8_0,NA,NA,completion,35485,129458,129455,129471,164956,164958,2024-04-18T13:39:28Z,164972,Respekt,heshima,s,changamnao,upinzani,ufanisi,NA,NA,NA,NULL,NA,NA,NA,NA,NA,NA,NA,NA,NA,NA,NA,NA,NA,NA,NA,NA,NA,NA,NA
065e4,task,flow.Sequence,1_8,NA,NA,completion,35485,129458,129455,129471,164956,164959,2024-04-18T13:39:28Z,164972,Respekt,heshima,s,changamnao,upinzani,ufanisi,NA,NA,NA,NULL,NA,NA,NA,NA,NA,NA,NA,NA,NA,NA,NA,NA,NA,NA,NA,NA,NA,NA,NA
065e4,Deep Question,html.Page,1_9_0_0,NA,NA,form submission,11521,164959,164956,164972,176493,176494,2024-04-18T13:39:40Z,176506,Atmosphäre,angahewa,d,kuteseka,usahihi,kutoamini,angalega,NA,NA,NULL,NA,NA,NA,NA,NA,NA,NA,NA,NA,NA,NA,NA,NA,NA,NA,NA,NA,NA,NA
065e4,Save data screen,canvas.Screen,1_9_0_1,NA,NA,timeout,500,176495,176496,176506,176989,176990,2024-04-18T13:39:40Z,177006,Atmosphäre,angahewa,d,kuteseka,usahihi,kutoamini,NA,NA,0,NULL,NA,NA,NA,NA,NA,NA,NA,NA,NA,NA,NA,NA,NA,NA,NA,NA,NA,NA,NA
065e4,deep,flow.Sequence,1_9_0,NA,NA,completion,12017,164959,164956,164972,176989,176991,2024-04-18T13:39:40Z,177006,Atmosphäre,angahewa,d,kuteseka,usahihi,kutoamini,NA,NA,NA,NULL,NA,NA,NA,NA,NA,NA,NA,NA,NA,NA,NA,NA,NA,NA,NA,NA,NA,NA,NA
065e4,task,flow.Sequence,1_9,NA,NA,completion,12017,164959,164956,164972,176989,176991,2024-04-18T13:39:40Z,177006,Atmosphäre,angahewa,d,kuteseka,usahihi,kutoamini,NA,NA,NA,NULL,NA,NA,NA,NA,NA,NA,NA,NA,NA,NA,NA,NA,NA,NA,NA,NA,NA,NA,NA
065e4,Deep Question,html.Page,1_10_0_0,NA,NA,form submission,7706,176992,176989,177006,184712,184712,2024-04-18T13:39:48Z,184723,Entwicklung,maendeleo,d,uangavu,mshindwa,badiliko,kuchelewa,NA,NA,NULL,NA,NA,NA,NA,NA,NA,NA,NA,NA,NA,NA,NA,NA,NA,NA,NA,NA,NA,NA
065e4,Save data screen,canvas.Screen,1_10_0_1,NA,NA,timeout,500,184713,184714,184723,185206,185207,2024-04-18T13:39:48Z,185223,Entwicklung,maendeleo,d,uangavu,mshindwa,badiliko,NA,NA,0,NULL,NA,NA,NA,NA,NA,NA,NA,NA,NA,NA,NA,NA,NA,NA,NA,NA,NA,NA,NA
065e4,deep,flow.Sequence,1_10_0,NA,NA,completion,8200,176992,176989,177006,185206,185208,2024-04-18T13:39:48Z,185223,Entwicklung,maendeleo,d,uangavu,mshindwa,badiliko,NA,NA,NA,NULL,NA,NA,NA,NA,NA,NA,NA,NA,NA,NA,NA,NA,NA,NA,NA,NA,NA,NA,NA
065e4,task,flow.Sequence,1_10,NA,NA,completion,8200,176992,176989,177006,185206,185208,2024-04-18T13:39:48Z,185223,Entwicklung,maendeleo,d,uangavu,mshindwa,badiliko,NA,NA,NA,NULL,NA,NA,NA,NA,NA,NA,NA,NA,NA,NA,NA,NA,NA,NA,NA,NA,NA,NA,NA
065e4,Deep Question,html.Page,1_11_0_0,NA,NA,form submission,15719,185209,185206,185223,200942,200943,2024-04-18T13:40:04Z,200957,Niveau,kiwango,s,usimamizi,mwamali,mshairi,ahbo,NA,NA,NULL,NA,NA,NA,NA,NA,NA,NA,NA,NA,NA,NA,NA,NA,NA,NA,NA,NA,NA,NA
065e4,Save data screen,canvas.Screen,1_11_0_1,NA,NA,timeout,499,200944,200945,200957,201440,201441,2024-04-18T13:40:05Z,201456,Niveau,kiwango,s,usimamizi,mwamali,mshairi,NA,NA,0,NULL,NA,NA,NA,NA,NA,NA,NA,NA,NA,NA,NA,NA,NA,NA,NA,NA,NA,NA,NA
065e4,deep,flow.Sequence,1_11_0,NA,NA,completion,16217,185209,185206,185223,201440,201442,2024-04-18T13:40:05Z,201456,Niveau,kiwango,s,usimamizi,mwamali,mshairi,NA,NA,NA,NULL,NA,NA,NA,NA,NA,NA,NA,NA,NA,NA,NA,NA,NA,NA,NA,NA,NA,NA,NA
065e4,task,flow.Sequence,1_11,NA,NA,completion,16217,185208,185206,185223,201440,201442,2024-04-18T13:40:05Z,201456,Niveau,kiwango,s,usimamizi,mwamali,mshairi,NA,NA,NA,NULL,NA,NA,NA,NA,NA,NA,NA,NA,NA,NA,NA,NA,NA,NA,NA,NA,NA,NA,NA
065e4,Deep Question,html.Page,1_12_0_0,NA,NA,form submission,22309,201442,201440,201456,223765,223765,2024-04-18T13:40:27Z,223774,Flexibilität,kubadilika,d,enjini,usikilivu,hesabu,lamoa,NA,NA,NULL,NA,NA,NA,NA,NA,NA,NA,NA,NA,NA,NA,NA,NA,NA,NA,NA,NA,NA,NA
065e4,Save data screen,canvas.Screen,1_12_0_1,NA,NA,timeout,500,223765,223767,223774,224257,224258,2024-04-18T13:40:27Z,224274,Flexibilität,kubadilika,d,enjini,usikilivu,hesabu,NA,NA,0,NULL,NA,NA,NA,NA,NA,NA,NA,NA,NA,NA,NA,NA,NA,NA,NA,NA,NA,NA,NA
065e4,deep,flow.Sequence,1_12_0,NA,NA,completion,22801,201442,201440,201456,224257,224258,2024-04-18T13:40:27Z,224274,Flexibilität,kubadilika,d,enjini,usikilivu,hesabu,NA,NA,NA,NULL,NA,NA,NA,NA,NA,NA,NA,NA,NA,NA,NA,NA,NA,NA,NA,NA,NA,NA,NA
065e4,task,flow.Sequence,1_12,NA,NA,completion,22801,201442,201440,201456,224257,224259,2024-04-18T13:40:27Z,224274,Flexibilität,kubadilika,d,enjini,usikilivu,hesabu,NA,NA,NA,NULL,NA,NA,NA,NA,NA,NA,NA,NA,NA,NA,NA,NA,NA,NA,NA,NA,NA,NA,NA
065e4,Deep Question,html.Page,1_13_0_0,NA,NA,form submission,7451,224259,224257,224274,231725,231726,2024-04-18T13:40:35Z,231741,Papier,karatasi,s,uchambuzi,usalama,kukataliwa,bwhezi,NA,NA,NULL,NA,NA,NA,NA,NA,NA,NA,NA,NA,NA,NA,NA,NA,NA,NA,NA,NA,NA,NA
065e4,Save data screen,canvas.Screen,1_13_0_1,NA,NA,timeout,500,231726,231728,231741,232224,232225,2024-04-18T13:40:35Z,232241,Papier,karatasi,s,uchambuzi,usalama,kukataliwa,NA,NA,0,NULL,NA,NA,NA,NA,NA,NA,NA,NA,NA,NA,NA,NA,NA,NA,NA,NA,NA,NA,NA
065e4,deep,flow.Sequence,1_13_0,NA,NA,completion,7950,224259,224257,224274,232224,232225,2024-04-18T13:40:35Z,232241,Papier,karatasi,s,uchambuzi,usalama,kukataliwa,NA,NA,NA,NULL,NA,NA,NA,NA,NA,NA,NA,NA,NA,NA,NA,NA,NA,NA,NA,NA,NA,NA,NA
065e4,task,flow.Sequence,1_13,NA,NA,completion,7950,224259,224257,224274,232224,232225,2024-04-18T13:40:35Z,232241,Papier,karatasi,s,uchambuzi,usalama,kukataliwa,NA,NA,NA,NULL,NA,NA,NA,NA,NA,NA,NA,NA,NA,NA,NA,NA,NA,NA,NA,NA,NA,NA,NA
065e4,Deep Question,html.Page,1_14_0_0,NA,NA,form submission,7083,232226,232224,232241,239324,239324,2024-04-18T13:40:42Z,239341,Betrüger,mdanganyifu,d,mwanamuziki,wastani,mahakama,mdangana,NA,NA,NULL,NA,NA,NA,NA,NA,NA,NA,NA,NA,NA,NA,NA,NA,NA,NA,NA,NA,NA,NA
065e4,Save data screen,canvas.Screen,1_14_0_1,NA,NA,timeout,500,239324,239325,239341,239824,239825,2024-04-18T13:40:43Z,239841,Betrüger,mdanganyifu,d,mwanamuziki,wastani,mahakama,NA,NA,0,NULL,NA,NA,NA,NA,NA,NA,NA,NA,NA,NA,NA,NA,NA,NA,NA,NA,NA,NA,NA
065e4,deep,flow.Sequence,1_14_0,NA,NA,completion,7583,232226,232224,232241,239824,239825,2024-04-18T13:40:43Z,239841,Betrüger,mdanganyifu,d,mwanamuziki,wastani,mahakama,NA,NA,NA,NULL,NA,NA,NA,NA,NA,NA,NA,NA,NA,NA,NA,NA,NA,NA,NA,NA,NA,NA,NA
065e4,task,flow.Sequence,1_14,NA,NA,completion,7583,232225,232224,232241,239824,239826,2024-04-18T13:40:43Z,239841,Betrüger,mdanganyifu,d,mwanamuziki,wastani,mahakama,NA,NA,NA,NULL,NA,NA,NA,NA,NA,NA,NA,NA,NA,NA,NA,NA,NA,NA,NA,NA,NA,NA,NA
065e4,Deep Question,html.Page,1_15_0_0,NA,NA,form submission,8038,239826,239824,239841,247879,247880,2024-04-18T13:40:51Z,247890,Fleisch,mshakiki,s,kizunguzungu,mshikamano,angusho,mbelezo,NA,NA,NULL,NA,NA,NA,NA,NA,NA,NA,NA,NA,NA,NA,NA,NA,NA,NA,NA,NA,NA,NA
065e4,Save data screen,canvas.Screen,1_15_0_1,NA,NA,timeout,506,247881,247883,247890,248375,248375,2024-04-18T13:40:51Z,248396,Fleisch,mshakiki,s,kizunguzungu,mshikamano,angusho,NA,NA,0,NULL,NA,NA,NA,NA,NA,NA,NA,NA,NA,NA,NA,NA,NA,NA,NA,NA,NA,NA,NA
065e4,deep,flow.Sequence,1_15_0,NA,NA,completion,8534,239826,239824,239841,248375,248376,2024-04-18T13:40:51Z,248396,Fleisch,mshakiki,s,kizunguzungu,mshikamano,angusho,NA,NA,NA,NULL,NA,NA,NA,NA,NA,NA,NA,NA,NA,NA,NA,NA,NA,NA,NA,NA,NA,NA,NA
065e4,task,flow.Sequence,1_15,NA,NA,completion,8534,239826,239824,239841,248375,248376,2024-04-18T13:40:51Z,248396,Fleisch,mshakiki,s,kizunguzungu,mshikamano,angusho,NA,NA,NA,NULL,NA,NA,NA,NA,NA,NA,NA,NA,NA,NA,NA,NA,NA,NA,NA,NA,NA,NA,NA
065e4,retrieval block 1 (cued recall),flow.Loop,1,NA,NA,completion,233273,15058,15082,15102,248375,248377,2024-04-18T13:40:51Z,248396,NA,NA,NA,NA,NA,NA,NA,NA,NA,NULL,NA,NA,NA,NA,NA,NA,NA,NA,NA,NA,NA,NA,NA,NA,NA,NA,NA,NA,NA
065e4,Shallow Question,html.Page,2_0_0_0,NA,NA,form submission,9386,248377,248375,248396,257782,257783,2024-04-18T13:41:01Z,257791,Genehmigung,idhini,d,mwanamke,itikadi,fedheha,idhini,NA,NA,"c(""distractor1"", ""distractor2"", ""distractor3"")",NA,NA,NA,NA,NA,NA,NA,NA,NA,NA,NA,NA,NA,NA,NA,NA,NA,NA,NA
065e4,Save data screen,canvas.Screen,2_0_0_1,NA,NA,timeout,500,257784,257787,257791,258275,258277,2024-04-18T13:41:01Z,258291,Genehmigung,idhini,d,mwanamke,itikadi,fedheha,NA,NA,1,"c(""distractor1"", ""distractor2"", ""distractor3"")",NA,NA,NA,NA,NA,NA,NA,NA,NA,NA,NA,NA,NA,NA,NA,NA,NA,NA,NA
065e4,shallow,flow.Sequence,2_0_0,NA,NA,completion,9879,248377,248375,248396,258275,258278,2024-04-18T13:41:01Z,258291,Genehmigung,idhini,d,mwanamke,itikadi,fedheha,NA,NA,NA,"c(""distractor1"", ""distractor2"", ""distractor3"")",NA,NA,NA,NA,NA,NA,NA,NA,NA,NA,NA,NA,NA,NA,NA,NA,NA,NA,NA
065e4,task,flow.Sequence,2_0,NA,NA,completion,9879,248377,248375,248396,258275,258279,2024-04-18T13:41:01Z,258291,Genehmigung,idhini,d,mwanamke,itikadi,fedheha,NA,NA,NA,"c(""distractor1"", ""distractor2"", ""distractor3"")",NA,NA,NA,NA,NA,NA,NA,NA,NA,NA,NA,NA,NA,NA,NA,NA,NA,NA,NA
065e4,Shallow Question,html.Page,2_1_0_0,NA,NA,form submission,8208,258279,258275,258291,266499,266499,2024-04-18T13:41:10Z,266508,Orientierung,urekebisho,s,uelekeo,marekebisho,utunzaji,urekebisho,NA,NA,"c(""distractor1"", ""distractor2"", ""distractor3"")",NA,NA,NA,NA,NA,NA,NA,NA,NA,NA,NA,NA,NA,NA,NA,NA,NA,NA,NA
065e4,Save data screen,canvas.Screen,2_1_0_1,NA,NA,timeout,500,266500,266500,266508,266992,266992,2024-04-18T13:41:10Z,267008,Orientierung,urekebisho,s,uelekeo,marekebisho,utunzaji,NA,NA,1,"c(""distractor1"", ""distractor2"", ""distractor3"")",NA,NA,NA,NA,NA,NA,NA,NA,NA,NA,NA,NA,NA,NA,NA,NA,NA,NA,NA
065e4,shallow,flow.Sequence,2_1_0,NA,NA,completion,8701,258279,258275,258291,266992,266993,2024-04-18T13:41:10Z,267008,Orientierung,urekebisho,s,uelekeo,marekebisho,utunzaji,NA,NA,NA,"c(""distractor1"", ""distractor2"", ""distractor3"")",NA,NA,NA,NA,NA,NA,NA,NA,NA,NA,NA,NA,NA,NA,NA,NA,NA,NA,NA
065e4,task,flow.Sequence,2_1,NA,NA,completion,8701,258279,258275,258291,266992,266993,2024-04-18T13:41:10Z,267008,Orientierung,urekebisho,s,uelekeo,marekebisho,utunzaji,NA,NA,NA,"c(""distractor1"", ""distractor2"", ""distractor3"")",NA,NA,NA,NA,NA,NA,NA,NA,NA,NA,NA,NA,NA,NA,NA,NA,NA,NA,NA
065e4,Shallow Question,html.Page,2_2_0_0,NA,NA,form submission,13892,266993,266992,267008,280900,280900,2024-04-18T13:41:24Z,280925,Flexibilität,kubadilika,d,enjini,usikilivu,hesabu,kubadilika,NA,NA,"c(""distractor1"", ""distractor2"", ""distractor3"")",NA,NA,NA,NA,NA,NA,NA,NA,NA,NA,NA,NA,NA,NA,NA,NA,NA,NA,NA
065e4,Save data screen,canvas.Screen,2_2_0_1,NA,NA,timeout,500,280902,280905,280925,281408,281410,2024-04-18T13:41:24Z,281425,Flexibilität,kubadilika,d,enjini,usikilivu,hesabu,NA,NA,1,"c(""distractor1"", ""distractor2"", ""distractor3"")",NA,NA,NA,NA,NA,NA,NA,NA,NA,NA,NA,NA,NA,NA,NA,NA,NA,NA,NA
065e4,shallow,flow.Sequence,2_2_0,NA,NA,completion,14400,266993,266992,267008,281408,281411,2024-04-18T13:41:24Z,281425,Flexibilität,kubadilika,d,enjini,usikilivu,hesabu,NA,NA,NA,"c(""distractor1"", ""distractor2"", ""distractor3"")",NA,NA,NA,NA,NA,NA,NA,NA,NA,NA,NA,NA,NA,NA,NA,NA,NA,NA,NA
065e4,task,flow.Sequence,2_2,NA,NA,completion,14400,266993,266992,267008,281408,281411,2024-04-18T13:41:24Z,281425,Flexibilität,kubadilika,d,enjini,usikilivu,hesabu,NA,NA,NA,"c(""distractor1"", ""distractor2"", ""distractor3"")",NA,NA,NA,NA,NA,NA,NA,NA,NA,NA,NA,NA,NA,NA,NA,NA,NA,NA,NA
065e4,Shallow Question,html.Page,2_3_0_0,NA,NA,form submission,7793,281411,281408,281425,289218,289218,2024-04-18T13:41:32Z,289225,Erneuerung,ukarabati,s,ushawishi,ukalifu,unyonyaji,ukarabati,NA,NA,"c(""distractor1"", ""distractor2"", ""distractor3"")",NA,NA,NA,NA,NA,NA,NA,NA,NA,NA,NA,NA,NA,NA,NA,NA,NA,NA,NA
065e4,Save data screen,canvas.Screen,2_3_0_1,NA,NA,timeout,500,289219,289220,289225,289709,289710,2024-04-18T13:41:33Z,289725,Erneuerung,ukarabati,s,ushawishi,ukalifu,unyonyaji,NA,NA,1,"c(""distractor1"", ""distractor2"", ""distractor3"")",NA,NA,NA,NA,NA,NA,NA,NA,NA,NA,NA,NA,NA,NA,NA,NA,NA,NA,NA
065e4,shallow,flow.Sequence,2_3_0,NA,NA,completion,8284,281411,281408,281425,289709,289711,2024-04-18T13:41:33Z,289725,Erneuerung,ukarabati,s,ushawishi,ukalifu,unyonyaji,NA,NA,NA,"c(""distractor1"", ""distractor2"", ""distractor3"")",NA,NA,NA,NA,NA,NA,NA,NA,NA,NA,NA,NA,NA,NA,NA,NA,NA,NA,NA
065e4,task,flow.Sequence,2_3,NA,NA,completion,8284,281411,281408,281425,289709,289711,2024-04-18T13:41:33Z,289725,Erneuerung,ukarabati,s,ushawishi,ukalifu,unyonyaji,NA,NA,NA,"c(""distractor1"", ""distractor2"", ""distractor3"")",NA,NA,NA,NA,NA,NA,NA,NA,NA,NA,NA,NA,NA,NA,NA,NA,NA,NA,NA
065e4,Shallow Question,html.Page,2_4_0_0,NA,NA,form submission,4708,289711,289709,289725,294433,294433,2024-04-18T13:41:37Z,294442,Atmosphäre,angahewa,d,kuteseka,usahihi,kutoamini,angahewa,NA,NA,"c(""distractor1"", ""distractor2"", ""distractor3"")",NA,NA,NA,NA,NA,NA,NA,NA,NA,NA,NA,NA,NA,NA,NA,NA,NA,NA,NA
065e4,Save data screen,canvas.Screen,2_4_0_1,NA,NA,timeout,500,294435,294437,294442,294926,294927,2024-04-18T13:41:38Z,294942,Atmosphäre,angahewa,d,kuteseka,usahihi,kutoamini,NA,NA,1,"c(""distractor1"", ""distractor2"", ""distractor3"")",NA,NA,NA,NA,NA,NA,NA,NA,NA,NA,NA,NA,NA,NA,NA,NA,NA,NA,NA
065e4,shallow,flow.Sequence,2_4_0,NA,NA,completion,5201,289711,289709,289725,294926,294928,2024-04-18T13:41:38Z,294942,Atmosphäre,angahewa,d,kuteseka,usahihi,kutoamini,NA,NA,NA,"c(""distractor1"", ""distractor2"", ""distractor3"")",NA,NA,NA,NA,NA,NA,NA,NA,NA,NA,NA,NA,NA,NA,NA,NA,NA,NA,NA
065e4,task,flow.Sequence,2_4,NA,NA,completion,5201,289711,289709,289725,294926,294928,2024-04-18T13:41:38Z,294942,Atmosphäre,angahewa,d,kuteseka,usahihi,kutoamini,NA,NA,NA,"c(""distractor1"", ""distractor2"", ""distractor3"")",NA,NA,NA,NA,NA,NA,NA,NA,NA,NA,NA,NA,NA,NA,NA,NA,NA,NA,NA
065e4,Shallow Question,html.Page,2_5_0_0,NA,NA,form submission,8623,294929,294926,294942,303565,303566,2024-04-18T13:41:47Z,303576,Respekt,heshima,s,changamnao,upinzani,ufanisi,heshima,NA,NA,"c(""distractor1"", ""distractor2"", ""distractor3"")",NA,NA,NA,NA,NA,NA,NA,NA,NA,NA,NA,NA,NA,NA,NA,NA,NA,NA,NA
065e4,Save data screen,canvas.Screen,2_5_0_1,NA,NA,timeout,500,303566,303567,303576,304059,304060,2024-04-18T13:41:47Z,304076,Respekt,heshima,s,changamnao,upinzani,ufanisi,NA,NA,1,"c(""distractor1"", ""distractor2"", ""distractor3"")",NA,NA,NA,NA,NA,NA,NA,NA,NA,NA,NA,NA,NA,NA,NA,NA,NA,NA,NA
065e4,shallow,flow.Sequence,2_5_0,NA,NA,completion,9117,294929,294926,294942,304059,304061,2024-04-18T13:41:47Z,304076,Respekt,heshima,s,changamnao,upinzani,ufanisi,NA,NA,NA,"c(""distractor1"", ""distractor2"", ""distractor3"")",NA,NA,NA,NA,NA,NA,NA,NA,NA,NA,NA,NA,NA,NA,NA,NA,NA,NA,NA
065e4,task,flow.Sequence,2_5,NA,NA,completion,9117,294928,294926,294942,304059,304061,2024-04-18T13:41:47Z,304076,Respekt,heshima,s,changamnao,upinzani,ufanisi,NA,NA,NA,"c(""distractor1"", ""distractor2"", ""distractor3"")",NA,NA,NA,NA,NA,NA,NA,NA,NA,NA,NA,NA,NA,NA,NA,NA,NA,NA,NA
065e4,Shallow Question,html.Page,2_6_0_0,NA,NA,form submission,12725,304062,304059,304076,316801,316801,2024-04-18T13:42:00Z,316810,Niveau,kiwango,s,usimamizi,mwamali,mshairi,kiwango,NA,NA,"c(""distractor1"", ""distractor2"", ""distractor3"")",NA,NA,NA,NA,NA,NA,NA,NA,NA,NA,NA,NA,NA,NA,NA,NA,NA,NA,NA
065e4,Save data screen,canvas.Screen,2_6_0_1,NA,NA,timeout,500,316802,316804,316810,317293,317294,2024-04-18T13:42:00Z,317310,Niveau,kiwango,s,usimamizi,mwamali,mshairi,NA,NA,1,"c(""distractor1"", ""distractor2"", ""distractor3"")",NA,NA,NA,NA,NA,NA,NA,NA,NA,NA,NA,NA,NA,NA,NA,NA,NA,NA,NA
065e4,shallow,flow.Sequence,2_6_0,NA,NA,completion,13217,304061,304059,304076,317293,317295,2024-04-18T13:42:00Z,317310,Niveau,kiwango,s,usimamizi,mwamali,mshairi,NA,NA,NA,"c(""distractor1"", ""distractor2"", ""distractor3"")",NA,NA,NA,NA,NA,NA,NA,NA,NA,NA,NA,NA,NA,NA,NA,NA,NA,NA,NA
065e4,task,flow.Sequence,2_6,NA,NA,completion,13217,304061,304059,304076,317293,317296,2024-04-18T13:42:00Z,317310,Niveau,kiwango,s,usimamizi,mwamali,mshairi,NA,NA,NA,"c(""distractor1"", ""distractor2"", ""distractor3"")",NA,NA,NA,NA,NA,NA,NA,NA,NA,NA,NA,NA,NA,NA,NA,NA,NA,NA,NA
065e4,Shallow Question,html.Page,2_7_0_0,NA,NA,form submission,7507,317296,317293,317310,324817,324817,2024-04-18T13:42:08Z,324826,Fleisch,mshakiki,s,kizunguzungu,mshikamano,angusho,mshakiki,NA,NA,"c(""distractor1"", ""distractor2"", ""distractor3"")",NA,NA,NA,NA,NA,NA,NA,NA,NA,NA,NA,NA,NA,NA,NA,NA,NA,NA,NA
065e4,Save data screen,canvas.Screen,2_7_0_1,NA,NA,timeout,501,324818,324819,324826,325310,325311,2024-04-18T13:42:08Z,325327,Fleisch,mshakiki,s,kizunguzungu,mshikamano,angusho,NA,NA,1,"c(""distractor1"", ""distractor2"", ""distractor3"")",NA,NA,NA,NA,NA,NA,NA,NA,NA,NA,NA,NA,NA,NA,NA,NA,NA,NA,NA
065e4,shallow,flow.Sequence,2_7_0,NA,NA,completion,8000,317296,317293,317310,325310,325311,2024-04-18T13:42:08Z,325327,Fleisch,mshakiki,s,kizunguzungu,mshikamano,angusho,NA,NA,NA,"c(""distractor1"", ""distractor2"", ""distractor3"")",NA,NA,NA,NA,NA,NA,NA,NA,NA,NA,NA,NA,NA,NA,NA,NA,NA,NA,NA
065e4,task,flow.Sequence,2_7,NA,NA,completion,8000,317296,317293,317310,325310,325312,2024-04-18T13:42:08Z,325327,Fleisch,mshakiki,s,kizunguzungu,mshikamano,angusho,NA,NA,NA,"c(""distractor1"", ""distractor2"", ""distractor3"")",NA,NA,NA,NA,NA,NA,NA,NA,NA,NA,NA,NA,NA,NA,NA,NA,NA,NA,NA
065e4,Shallow Question,html.Page,2_8_0_0,NA,NA,form submission,12757,325312,325310,325327,338084,338084,2024-04-18T13:42:21Z,338093,Vorwurf,mashtaka,d,msukumo,mtangulizi,uenyekiti,mashtaka,NA,NA,"c(""distractor1"", ""distractor2"", ""distractor3"")",NA,NA,NA,NA,NA,NA,NA,NA,NA,NA,NA,NA,NA,NA,NA,NA,NA,NA,NA
065e4,Save data screen,canvas.Screen,2_8_0_1,NA,NA,timeout,500,338085,338088,338093,338577,338578,2024-04-18T13:42:22Z,338593,Vorwurf,mashtaka,d,msukumo,mtangulizi,uenyekiti,NA,NA,1,"c(""distractor1"", ""distractor2"", ""distractor3"")",NA,NA,NA,NA,NA,NA,NA,NA,NA,NA,NA,NA,NA,NA,NA,NA,NA,NA,NA
065e4,shallow,flow.Sequence,2_8_0,NA,NA,completion,13250,325312,325310,325327,338577,338579,2024-04-18T13:42:22Z,338593,Vorwurf,mashtaka,d,msukumo,mtangulizi,uenyekiti,NA,NA,NA,"c(""distractor1"", ""distractor2"", ""distractor3"")",NA,NA,NA,NA,NA,NA,NA,NA,NA,NA,NA,NA,NA,NA,NA,NA,NA,NA,NA
065e4,task,flow.Sequence,2_8,NA,NA,completion,13250,325312,325310,325327,338577,338580,2024-04-18T13:42:22Z,338593,Vorwurf,mashtaka,d,msukumo,mtangulizi,uenyekiti,NA,NA,NA,"c(""distractor1"", ""distractor2"", ""distractor3"")",NA,NA,NA,NA,NA,NA,NA,NA,NA,NA,NA,NA,NA,NA,NA,NA,NA,NA,NA
065e4,Shallow Question,html.Page,2_9_0_0,NA,NA,form submission,11492,338580,338577,338593,350085,350086,2024-04-18T13:42:33Z,350094,Wechsel,ugeuzaji,s,utambulisho,kujenga,wasiwasi,ugeuzaji,NA,NA,"c(""distractor1"", ""distractor2"", ""distractor3"")",NA,NA,NA,NA,NA,NA,NA,NA,NA,NA,NA,NA,NA,NA,NA,NA,NA,NA,NA
065e4,Save data screen,canvas.Screen,2_9_0_1,NA,NA,timeout,500,350087,350087,350094,350577,350578,2024-04-18T13:42:34Z,350594,Wechsel,ugeuzaji,s,utambulisho,kujenga,wasiwasi,NA,NA,1,"c(""distractor1"", ""distractor2"", ""distractor3"")",NA,NA,NA,NA,NA,NA,NA,NA,NA,NA,NA,NA,NA,NA,NA,NA,NA,NA,NA
065e4,shallow,flow.Sequence,2_9_0,NA,NA,completion,11984,338580,338577,338593,350577,350579,2024-04-18T13:42:34Z,350594,Wechsel,ugeuzaji,s,utambulisho,kujenga,wasiwasi,NA,NA,NA,"c(""distractor1"", ""distractor2"", ""distractor3"")",NA,NA,NA,NA,NA,NA,NA,NA,NA,NA,NA,NA,NA,NA,NA,NA,NA,NA,NA
065e4,task,flow.Sequence,2_9,NA,NA,completion,11984,338580,338577,338593,350577,350580,2024-04-18T13:42:34Z,350594,Wechsel,ugeuzaji,s,utambulisho,kujenga,wasiwasi,NA,NA,NA,"c(""distractor1"", ""distractor2"", ""distractor3"")",NA,NA,NA,NA,NA,NA,NA,NA,NA,NA,NA,NA,NA,NA,NA,NA,NA,NA,NA
065e4,Shallow Question,html.Page,2_10_0_0,NA,NA,form submission,6824,350580,350577,350594,357418,357419,2024-04-18T13:42:40Z,357427,Begegnung,kukutana,d,mmasihiya,mpiganaji,husiano,kukutana,NA,NA,"c(""distractor1"", ""distractor2"", ""distractor3"")",NA,NA,NA,NA,NA,NA,NA,NA,NA,NA,NA,NA,NA,NA,NA,NA,NA,NA,NA
065e4,Save data screen,canvas.Screen,2_10_0_1,NA,NA,timeout,500,357420,357422,357427,357911,357912,2024-04-18T13:42:41Z,357927,Begegnung,kukutana,d,mmasihiya,mpiganaji,husiano,NA,NA,1,"c(""distractor1"", ""distractor2"", ""distractor3"")",NA,NA,NA,NA,NA,NA,NA,NA,NA,NA,NA,NA,NA,NA,NA,NA,NA,NA,NA
065e4,shallow,flow.Sequence,2_10_0,NA,NA,completion,7317,350580,350577,350594,357911,357912,2024-04-18T13:42:41Z,357927,Begegnung,kukutana,d,mmasihiya,mpiganaji,husiano,NA,NA,NA,"c(""distractor1"", ""distractor2"", ""distractor3"")",NA,NA,NA,NA,NA,NA,NA,NA,NA,NA,NA,NA,NA,NA,NA,NA,NA,NA,NA
065e4,task,flow.Sequence,2_10,NA,NA,completion,7317,350580,350577,350594,357911,357912,2024-04-18T13:42:41Z,357927,Begegnung,kukutana,d,mmasihiya,mpiganaji,husiano,NA,NA,NA,"c(""distractor1"", ""distractor2"", ""distractor3"")",NA,NA,NA,NA,NA,NA,NA,NA,NA,NA,NA,NA,NA,NA,NA,NA,NA,NA,NA
065e4,Shallow Question,html.Page,2_11_0_0,NA,NA,form submission,10391,357913,357911,357927,368318,368318,2024-04-18T13:42:51Z,368328,Integrität,uadilifu,s,muungano,mtiririko,upunguaji,mtiririko,NA,NA,"c(""distractor1"", ""distractor2"", ""distractor3"")",NA,NA,NA,NA,NA,NA,NA,NA,NA,NA,NA,NA,NA,NA,NA,NA,NA,NA,NA
065e4,Save data screen,canvas.Screen,2_11_0_1,NA,NA,timeout,500,368319,368320,368328,368811,368812,2024-04-18T13:42:52Z,368828,Integrität,uadilifu,s,muungano,mtiririko,upunguaji,NA,NA,0,"c(""distractor1"", ""distractor2"", ""distractor3"")",NA,NA,NA,NA,NA,NA,NA,NA,NA,NA,NA,NA,NA,NA,NA,NA,NA,NA,NA
065e4,shallow,flow.Sequence,2_11_0,NA,NA,completion,10884,357913,357911,357927,368811,368813,2024-04-18T13:42:52Z,368828,Integrität,uadilifu,s,muungano,mtiririko,upunguaji,NA,NA,NA,"c(""distractor1"", ""distractor2"", ""distractor3"")",NA,NA,NA,NA,NA,NA,NA,NA,NA,NA,NA,NA,NA,NA,NA,NA,NA,NA,NA
065e4,task,flow.Sequence,2_11,NA,NA,completion,10884,357912,357911,357927,368811,368813,2024-04-18T13:42:52Z,368828,Integrität,uadilifu,s,muungano,mtiririko,upunguaji,NA,NA,NA,"c(""distractor1"", ""distractor2"", ""distractor3"")",NA,NA,NA,NA,NA,NA,NA,NA,NA,NA,NA,NA,NA,NA,NA,NA,NA,NA,NA
065e4,Shallow Question,html.Page,2_12_0_0,NA,NA,form submission,3774.0000000001,368814,368811,368828,372602,372603,2024-04-18T13:42:56Z,372628,Stimmung,kinyongo,d,kilekile,kisambo,madhehebu,kinyongo,NA,NA,"c(""distractor1"", ""distractor2"", ""distractor3"")",NA,NA,NA,NA,NA,NA,NA,NA,NA,NA,NA,NA,NA,NA,NA,NA,NA,NA,NA
065e4,Save data screen,canvas.Screen,2_12_0_1,NA,NA,timeout,500,372604,372606,372628,373111,373112,2024-04-18T13:42:56Z,373128,Stimmung,kinyongo,d,kilekile,kisambo,madhehebu,NA,NA,1,"c(""distractor1"", ""distractor2"", ""distractor3"")",NA,NA,NA,NA,NA,NA,NA,NA,NA,NA,NA,NA,NA,NA,NA,NA,NA,NA,NA
065e4,shallow,flow.Sequence,2_12_0,NA,NA,completion,4283,368814,368811,368828,373111,373113,2024-04-18T13:42:56Z,373128,Stimmung,kinyongo,d,kilekile,kisambo,madhehebu,NA,NA,NA,"c(""distractor1"", ""distractor2"", ""distractor3"")",NA,NA,NA,NA,NA,NA,NA,NA,NA,NA,NA,NA,NA,NA,NA,NA,NA,NA,NA
065e4,task,flow.Sequence,2_12,NA,NA,completion,4283,368813,368811,368828,373111,373114,2024-04-18T13:42:56Z,373128,Stimmung,kinyongo,d,kilekile,kisambo,madhehebu,NA,NA,NA,"c(""distractor1"", ""distractor2"", ""distractor3"")",NA,NA,NA,NA,NA,NA,NA,NA,NA,NA,NA,NA,NA,NA,NA,NA,NA,NA,NA
065e4,Shallow Question,html.Page,2_13_0_0,NA,NA,form submission,9557,373115,373111,373128,382685,382685,2024-04-18T13:43:06Z,382695,Papier,karatasi,s,uchambuzi,usalama,kukataliwa,uchambuzi,NA,NA,"c(""distractor1"", ""distractor2"", ""distractor3"")",NA,NA,NA,NA,NA,NA,NA,NA,NA,NA,NA,NA,NA,NA,NA,NA,NA,NA,NA
065e4,Save data screen,canvas.Screen,2_13_0_1,NA,NA,timeout,500,382688,382689,382695,383178,383179,2024-04-18T13:43:06Z,383195,Papier,karatasi,s,uchambuzi,usalama,kukataliwa,NA,NA,0,"c(""distractor1"", ""distractor2"", ""distractor3"")",NA,NA,NA,NA,NA,NA,NA,NA,NA,NA,NA,NA,NA,NA,NA,NA,NA,NA,NA
065e4,shallow,flow.Sequence,2_13_0,NA,NA,completion,10050,373115,373111,373128,383178,383179,2024-04-18T13:43:06Z,383195,Papier,karatasi,s,uchambuzi,usalama,kukataliwa,NA,NA,NA,"c(""distractor1"", ""distractor2"", ""distractor3"")",NA,NA,NA,NA,NA,NA,NA,NA,NA,NA,NA,NA,NA,NA,NA,NA,NA,NA,NA
065e4,task,flow.Sequence,2_13,NA,NA,completion,10050,373115,373111,373128,383178,383180,2024-04-18T13:43:06Z,383195,Papier,karatasi,s,uchambuzi,usalama,kukataliwa,NA,NA,NA,"c(""distractor1"", ""distractor2"", ""distractor3"")",NA,NA,NA,NA,NA,NA,NA,NA,NA,NA,NA,NA,NA,NA,NA,NA,NA,NA,NA
065e4,Shallow Question,html.Page,2_14_0_0,NA,NA,form submission,5106,383180,383178,383195,388301,388302,2024-04-18T13:43:11Z,388311,Betrüger,mdanganyifu,d,mwanamuziki,wastani,mahakama,mdanganyifu,NA,NA,"c(""distractor1"", ""distractor2"", ""distractor3"")",NA,NA,NA,NA,NA,NA,NA,NA,NA,NA,NA,NA,NA,NA,NA,NA,NA,NA,NA
065e4,Save data screen,canvas.Screen,2_14_0_1,NA,NA,timeout,500,388303,388306,388311,388795,388796,2024-04-18T13:43:12Z,388811,Betrüger,mdanganyifu,d,mwanamuziki,wastani,mahakama,NA,NA,1,"c(""distractor1"", ""distractor2"", ""distractor3"")",NA,NA,NA,NA,NA,NA,NA,NA,NA,NA,NA,NA,NA,NA,NA,NA,NA,NA,NA
065e4,shallow,flow.Sequence,2_14_0,NA,NA,completion,5600,383180,383178,383195,388795,388797,2024-04-18T13:43:12Z,388811,Betrüger,mdanganyifu,d,mwanamuziki,wastani,mahakama,NA,NA,NA,"c(""distractor1"", ""distractor2"", ""distractor3"")",NA,NA,NA,NA,NA,NA,NA,NA,NA,NA,NA,NA,NA,NA,NA,NA,NA,NA,NA
065e4,task,flow.Sequence,2_14,NA,NA,completion,5600,383180,383178,383195,388795,388797,2024-04-18T13:43:12Z,388811,Betrüger,mdanganyifu,d,mwanamuziki,wastani,mahakama,NA,NA,NA,"c(""distractor1"", ""distractor2"", ""distractor3"")",NA,NA,NA,NA,NA,NA,NA,NA,NA,NA,NA,NA,NA,NA,NA,NA,NA,NA,NA
065e4,Shallow Question,html.Page,2_15_0_0,NA,NA,form submission,8407,388797,388795,388811,397218,397218,2024-04-18T13:43:20Z,397228,Entwicklung,maendeleo,d,uangavu,mshindwa,badiliko,maendeleo,NA,NA,"c(""distractor1"", ""distractor2"", ""distractor3"")",NA,NA,NA,NA,NA,NA,NA,NA,NA,NA,NA,NA,NA,NA,NA,NA,NA,NA,NA
065e4,Save data screen,canvas.Screen,2_15_0_1,NA,NA,timeout,500,397219,397220,397228,397712,397712,2024-04-18T13:43:21Z,397728,Entwicklung,maendeleo,d,uangavu,mshindwa,badiliko,NA,NA,1,"c(""distractor1"", ""distractor2"", ""distractor3"")",NA,NA,NA,NA,NA,NA,NA,NA,NA,NA,NA,NA,NA,NA,NA,NA,NA,NA,NA
065e4,shallow,flow.Sequence,2_15_0,NA,NA,completion,8901,388797,388795,388811,397712,397713,2024-04-18T13:43:21Z,397728,Entwicklung,maendeleo,d,uangavu,mshindwa,badiliko,NA,NA,NA,"c(""distractor1"", ""distractor2"", ""distractor3"")",NA,NA,NA,NA,NA,NA,NA,NA,NA,NA,NA,NA,NA,NA,NA,NA,NA,NA,NA
065e4,task,flow.Sequence,2_15,NA,NA,completion,8901,388797,388795,388811,397712,397713,2024-04-18T13:43:21Z,397728,Entwicklung,maendeleo,d,uangavu,mshindwa,badiliko,NA,NA,NA,"c(""distractor1"", ""distractor2"", ""distractor3"")",NA,NA,NA,NA,NA,NA,NA,NA,NA,NA,NA,NA,NA,NA,NA,NA,NA,NA,NA
065e4,retrieval block 2 (multiple choice),flow.Loop,2,NA,NA,completion,149316,248377,248375,248396,397712,397714,2024-04-18T13:43:21Z,397728,NA,NA,NA,NA,NA,NA,NA,NA,NA,"c(""distractor1"", ""distractor2"", ""distractor3"")",NA,NA,NA,NA,NA,NA,NA,NA,NA,NA,NA,NA,NA,NA,NA,NA,NA,NA,NA
065e4,End,canvas.Screen,3,NA,keypress(Space),response,1873.0000000001,397714,397712,397728,399585,399387,2024-04-18T13:43:22Z,399394,NA,NA,NA,NA,NA,NA,NA,NA,NA,NULL,NA,NA,NA,NA,NA,NA,NA,NA,NA,NA,NA,NA,NA,NA,NA,NA,NA,NA,NA
065e4,root,flow.Sequence,NA,NA,NA,completion,399346,207,209,239,399585,399389,2024-04-18T13:43:22Z,399394,NA,NA,NA,NA,NA,NA,NA,NA,NA,NULL,NA,NA,NA,NA,NA,NA,NA,NA,NA,NA,NA,NA,NA,NA,NA,NA,NA,NA,NA
