observation,sender,sender_type,sender_id,response,response_action,ended_on,duration,time_run,time_render,time_show,time_end,time_commit,timestamp,time_switch,distractors,german,swahili,enc,distractor1,distractor2,distractor3,response_2,x,correct,x_2,url_vp,url_sess,meta_labjs_version,meta_location,meta_user_agent,meta_platform,meta_language,meta_locale,meta_time_zone,meta_timezone_offset,meta_screen_width,meta_screen_height,meta_scroll_width,meta_scroll_height,meta_window_inner_width,meta_window_inner_height,meta_device_pixel_ratio,meta_labjs_build_flavor,meta_labjs_build_commit
b8c54,Introduction general,canvas.Screen,0,weiter,keypress(q),response,38008.96,87263,87258.36,87275.04,125284,125297,2023-11-11T12:52:50Z,125303.64,NULL,NA,NA,NA,NA,NA,NA,NA,NA,NA,NA,185,3,20.2.4,https://neurocog.fernuni.ch/studies/vweber/sliechti/encoding_immediate/index.html?vp=185&sess=3,Mozilla/5.0 (Windows NT 10.0; Win64; x64; rv:109.0) Gecko/20100101 Firefox/119.0,Win32,de,de-CH,Europe/Zurich,-60,1280,720,1280,587,1280,587,1.5,production,f5b4a49f956347addd546a832a3327688c2c0fef
b8c54,Introduction practice,canvas.Screen,1_0,NA,keypress(Space),response,3433.36,125298,125298.76,125303.64,128737,128752,2023-11-11T12:52:53Z,128754.94,NULL,NA,NA,NA,NA,NA,NA,NA,NA,NA,NA,NA,NA,NA,NA,NA,NA,NA,NA,NA,NA,NA,NA,NA,NA,NA,NA,NA,NA,NA
b8c54,Deep Question,html.Page,1_1_0_0_0,NA,NA,form submission,16561.06,128754,128754.44,128754.94,145316,145316,2023-11-11T12:53:10Z,145334.36,"c(""distractor1"", ""distractor2"", ""distractor3"")",Schatten,kivuli,d,NA,NA,NA,sflöksdjf,NA,NA,NA,NA,NA,NA,NA,NA,NA,NA,NA,NA,NA,NA,NA,NA,NA,NA,NA,NA,NA,NA
b8c54,"""Richtig""-Screen",canvas.Screen,1_1_0_0_1,NA,NA,skipped,NA,145323,NA,NA,145316,145323,2023-11-11T12:53:10Z,145334.36,"c(""distractor1"", ""distractor2"", ""distractor3"")",Schatten,kivuli,d,NA,NA,NA,NA,NA,NA,NA,NA,NA,NA,NA,NA,NA,NA,NA,NA,NA,NA,NA,NA,NA,NA,NA,NA,NA,NA
b8c54,"""Falsch""-Screen",canvas.Screen,1_1_0_0_2,NA,NA,timeout,4999.46,145327,145314.9,145334.36,150317.4,150318,2023-11-11T12:53:15Z,150333.82,"c(""distractor1"", ""distractor2"", ""distractor3"")",Schatten,kivuli,d,NA,NA,NA,NA,NA,0,NA,NA,NA,NA,NA,NA,NA,NA,NA,NA,NA,NA,NA,NA,NA,NA,NA,NA,NA,NA
b8c54,deep,flow.Sequence,1_1_0_0,NA,NA,completion,21562.46,128754,128754.44,128754.94,150317.4,150319,2023-11-11T12:53:15Z,150333.82,"c(""distractor1"", ""distractor2"", ""distractor3"")",Schatten,kivuli,d,NA,NA,NA,NA,NA,NA,NA,NA,NA,NA,NA,NA,NA,NA,NA,NA,NA,NA,NA,NA,NA,NA,NA,NA,NA,NA
b8c54,shallow,flow.Sequence,1_1_0_1,NA,NA,skipped,NA,150320,NA,NA,150317.4,150320,2023-11-11T12:53:15Z,150333.82,"c(""distractor1"", ""distractor2"", ""distractor3"")",Schatten,kivuli,d,NA,NA,NA,NA,NA,NA,NA,NA,NA,NA,NA,NA,NA,NA,NA,NA,NA,NA,NA,NA,NA,NA,NA,NA,NA,NA
b8c54,task,flow.Sequence,1_1_0,NA,NA,completion,21562.46,128754,128754.44,128754.94,150317.4,150321,2023-11-11T12:53:15Z,150333.82,"c(""distractor1"", ""distractor2"", ""distractor3"")",Schatten,kivuli,d,NA,NA,NA,NA,NA,NA,NA,NA,NA,NA,NA,NA,NA,NA,NA,NA,NA,NA,NA,NA,NA,NA,NA,NA,NA,NA
b8c54,deep,flow.Sequence,1_1_1_0,NA,NA,skipped,NA,150322,NA,NA,150317.4,150322,2023-11-11T12:53:15Z,150333.82,"c(""distractor1"", ""distractor2"", ""distractor3"")",Gegenwart,hadhara,s,katiba,jokofu,mikopo,NA,NA,NA,NA,NA,NA,NA,NA,NA,NA,NA,NA,NA,NA,NA,NA,NA,NA,NA,NA,NA,NA,NA
b8c54,Shallow Question,html.Page,1_1_1_1_0,NA,NA,form submission,5192.18,150323,150317.4,150333.82,155526,155528,2023-11-11T12:53:20Z,155533.12,"c(""distractor1"", ""distractor2"", ""distractor3"")",Gegenwart,hadhara,s,katiba,jokofu,mikopo,hadhara,NA,NA,NA,NA,NA,NA,NA,NA,NA,NA,NA,NA,NA,NA,NA,NA,NA,NA,NA,NA,NA,NA
b8c54,"""Richtig""-Screen",canvas.Screen,1_1_1_1_1,NA,NA,timeout,4999.42,155536,155524.06,155533.12,160515.78,160521,2023-11-11T12:53:25Z,160532.54,"c(""distractor1"", ""distractor2"", ""distractor3"")",Gegenwart,hadhara,s,katiba,jokofu,mikopo,NA,NA,1,NA,NA,NA,NA,NA,NA,NA,NA,NA,NA,NA,NA,NA,NA,NA,NA,NA,NA,NA,NA
b8c54,"""Falsch""-Screen",canvas.Screen,1_1_1_1_2,NA,NA,skipped,NA,160539,NA,NA,160515.78,160539,2023-11-11T12:53:25Z,160532.54,"c(""distractor1"", ""distractor2"", ""distractor3"")",Gegenwart,hadhara,s,katiba,jokofu,mikopo,NA,NA,NA,NA,NA,NA,NA,NA,NA,NA,NA,NA,NA,NA,NA,NA,NA,NA,NA,NA,NA,NA,NA
b8c54,shallow,flow.Sequence,1_1_1_1,NA,NA,completion,10181.96,150323,150317.4,150333.82,160515.78,160539,2023-11-11T12:53:25Z,160532.54,"c(""distractor1"", ""distractor2"", ""distractor3"")",Gegenwart,hadhara,s,katiba,jokofu,mikopo,NA,NA,NA,NA,NA,NA,NA,NA,NA,NA,NA,NA,NA,NA,NA,NA,NA,NA,NA,NA,NA,NA,NA
b8c54,task,flow.Sequence,1_1_1,NA,NA,completion,10181.96,150322,150317.4,150333.82,160515.78,160539,2023-11-11T12:53:25Z,160532.54,"c(""distractor1"", ""distractor2"", ""distractor3"")",Gegenwart,hadhara,s,katiba,jokofu,mikopo,NA,NA,NA,NA,NA,NA,NA,NA,NA,NA,NA,NA,NA,NA,NA,NA,NA,NA,NA,NA,NA,NA,NA
b8c54,deep,flow.Sequence,1_1_2_0,NA,NA,skipped,NA,160540,NA,NA,160515.78,160540,2023-11-11T12:53:25Z,160532.54,"c(""distractor1"", ""distractor2"", ""distractor3"")",Rückhalt,msaada,s,muhula,auwali,kiwimbe,NA,NA,NA,NA,NA,NA,NA,NA,NA,NA,NA,NA,NA,NA,NA,NA,NA,NA,NA,NA,NA,NA,NA
b8c54,Shallow Question,html.Page,1_1_2_1_0,NA,NA,form submission,6178.46,160540,160515.78,160532.54,166711,166712,2023-11-11T12:53:31Z,166731.74,"c(""distractor1"", ""distractor2"", ""distractor3"")",Rückhalt,msaada,s,muhula,auwali,kiwimbe,muhula,NA,NA,NA,NA,NA,NA,NA,NA,NA,NA,NA,NA,NA,NA,NA,NA,NA,NA,NA,NA,NA,NA
b8c54,"""Richtig""-Screen",canvas.Screen,1_1_2_1_1,NA,NA,skipped,NA,166716,NA,NA,166711,166717,2023-11-11T12:53:31Z,166731.74,"c(""distractor1"", ""distractor2"", ""distractor3"")",Rückhalt,msaada,s,muhula,auwali,kiwimbe,NA,NA,NA,NA,NA,NA,NA,NA,NA,NA,NA,NA,NA,NA,NA,NA,NA,NA,NA,NA,NA,NA,NA
b8c54,"""Falsch""-Screen",canvas.Screen,1_1_2_1_2,NA,NA,timeout,4999.26,166720,166714.96,166731.74,171714.36,171715,2023-11-11T12:53:36Z,171731,"c(""distractor1"", ""distractor2"", ""distractor3"")",Rückhalt,msaada,s,muhula,auwali,kiwimbe,NA,NA,0,NA,NA,NA,NA,NA,NA,NA,NA,NA,NA,NA,NA,NA,NA,NA,NA,NA,NA,NA,NA
b8c54,shallow,flow.Sequence,1_1_2_1,NA,NA,completion,11181.82,160540,160515.78,160532.54,171714.36,171716,2023-11-11T12:53:36Z,171731,"c(""distractor1"", ""distractor2"", ""distractor3"")",Rückhalt,msaada,s,muhula,auwali,kiwimbe,NA,NA,NA,NA,NA,NA,NA,NA,NA,NA,NA,NA,NA,NA,NA,NA,NA,NA,NA,NA,NA,NA,NA
b8c54,task,flow.Sequence,1_1_2,NA,NA,completion,11181.82,160540,160515.78,160532.54,171714.36,171718,2023-11-11T12:53:36Z,171731,"c(""distractor1"", ""distractor2"", ""distractor3"")",Rückhalt,msaada,s,muhula,auwali,kiwimbe,NA,NA,NA,NA,NA,NA,NA,NA,NA,NA,NA,NA,NA,NA,NA,NA,NA,NA,NA,NA,NA,NA,NA
b8c54,Deep Question,html.Page,1_1_3_0_0,NA,NA,form submission,10015,171718,171714.36,171731,181746,181746,2023-11-11T12:53:46Z,181746.26,"c(""distractor1"", ""distractor2"", ""distractor3"")",Gesundheit,salama,d,NA,NA,NA,MERCI,NA,NA,NA,NA,NA,NA,NA,NA,NA,NA,NA,NA,NA,NA,NA,NA,NA,NA,NA,NA,NA,NA
b8c54,"""Richtig""-Screen",canvas.Screen,1_1_3_0_1,NA,NA,skipped,NA,181748,NA,NA,181746,181748,2023-11-11T12:53:46Z,181746.26,"c(""distractor1"", ""distractor2"", ""distractor3"")",Gesundheit,salama,d,NA,NA,NA,NA,NA,NA,NA,NA,NA,NA,NA,NA,NA,NA,NA,NA,NA,NA,NA,NA,NA,NA,NA,NA,NA,NA
b8c54,"""Falsch""-Screen",canvas.Screen,1_1_3_0_2,NA,NA,timeout,4999.44,181749,181743.38,181746.26,186729.04,186730,2023-11-11T12:53:51Z,186745.7,"c(""distractor1"", ""distractor2"", ""distractor3"")",Gesundheit,salama,d,NA,NA,NA,NA,NA,0,NA,NA,NA,NA,NA,NA,NA,NA,NA,NA,NA,NA,NA,NA,NA,NA,NA,NA,NA,NA
b8c54,deep,flow.Sequence,1_1_3_0,NA,NA,completion,14998.04,171718,171714.36,171731,186729.04,186731,2023-11-11T12:53:51Z,186745.7,"c(""distractor1"", ""distractor2"", ""distractor3"")",Gesundheit,salama,d,NA,NA,NA,NA,NA,NA,NA,NA,NA,NA,NA,NA,NA,NA,NA,NA,NA,NA,NA,NA,NA,NA,NA,NA,NA,NA
b8c54,shallow,flow.Sequence,1_1_3_1,NA,NA,skipped,NA,186731,NA,NA,186729.04,186731,2023-11-11T12:53:51Z,186745.7,"c(""distractor1"", ""distractor2"", ""distractor3"")",Gesundheit,salama,d,NA,NA,NA,NA,NA,NA,NA,NA,NA,NA,NA,NA,NA,NA,NA,NA,NA,NA,NA,NA,NA,NA,NA,NA,NA,NA
b8c54,task,flow.Sequence,1_1_3,NA,NA,completion,14998.04,171718,171714.36,171731,186729.04,186731,2023-11-11T12:53:51Z,186745.7,"c(""distractor1"", ""distractor2"", ""distractor3"")",Gesundheit,salama,d,NA,NA,NA,NA,NA,NA,NA,NA,NA,NA,NA,NA,NA,NA,NA,NA,NA,NA,NA,NA,NA,NA,NA,NA,NA,NA
b8c54,deep,flow.Sequence,1_1_4_0,NA,NA,skipped,NA,186731,NA,NA,186729.04,186731,2023-11-11T12:53:51Z,186745.7,"c(""distractor1"", ""distractor2"", ""distractor3"")",Kritik,lawama,s,dereva,nafasi,mawazo,NA,NA,NA,NA,NA,NA,NA,NA,NA,NA,NA,NA,NA,NA,NA,NA,NA,NA,NA,NA,NA,NA,NA
b8c54,Shallow Question,html.Page,1_1_4_1_0,NA,NA,form submission,5539.3,186732,186729.04,186745.7,192285,192286,2023-11-11T12:53:57Z,192293.72,"c(""distractor1"", ""distractor2"", ""distractor3"")",Kritik,lawama,s,dereva,nafasi,mawazo,lawama,NA,NA,NA,NA,NA,NA,NA,NA,NA,NA,NA,NA,NA,NA,NA,NA,NA,NA,NA,NA,NA,NA
b8c54,"""Richtig""-Screen",canvas.Screen,1_1_4_1_1,NA,NA,timeout,5000.58,192288,192282.22,192293.72,197278.08,197280,2023-11-11T12:54:02Z,197294.3,"c(""distractor1"", ""distractor2"", ""distractor3"")",Kritik,lawama,s,dereva,nafasi,mawazo,NA,NA,1,NA,NA,NA,NA,NA,NA,NA,NA,NA,NA,NA,NA,NA,NA,NA,NA,NA,NA,NA,NA
b8c54,"""Falsch""-Screen",canvas.Screen,1_1_4_1_2,NA,NA,skipped,NA,197289,NA,NA,197278.08,197290,2023-11-11T12:54:02Z,197294.3,"c(""distractor1"", ""distractor2"", ""distractor3"")",Kritik,lawama,s,dereva,nafasi,mawazo,NA,NA,NA,NA,NA,NA,NA,NA,NA,NA,NA,NA,NA,NA,NA,NA,NA,NA,NA,NA,NA,NA,NA
b8c54,shallow,flow.Sequence,1_1_4_1,NA,NA,completion,10532.38,186732,186729.04,186745.7,197278.08,197290,2023-11-11T12:54:02Z,197294.3,"c(""distractor1"", ""distractor2"", ""distractor3"")",Kritik,lawama,s,dereva,nafasi,mawazo,NA,NA,NA,NA,NA,NA,NA,NA,NA,NA,NA,NA,NA,NA,NA,NA,NA,NA,NA,NA,NA,NA,NA
b8c54,task,flow.Sequence,1_1_4,NA,NA,completion,10532.38,186731,186729.04,186745.7,197278.08,197291,2023-11-11T12:54:02Z,197294.3,"c(""distractor1"", ""distractor2"", ""distractor3"")",Kritik,lawama,s,dereva,nafasi,mawazo,NA,NA,NA,NA,NA,NA,NA,NA,NA,NA,NA,NA,NA,NA,NA,NA,NA,NA,NA,NA,NA,NA,NA
b8c54,Deep Question,html.Page,1_1_5_0_0,NA,NA,form submission,4969.7,197291,197278.08,197294.3,202264,202264,2023-11-11T12:54:07Z,202276.96,"c(""distractor1"", ""distractor2"", ""distractor3"")",Qualität,mtindo,d,NA,NA,NA,asödoifjew,NA,NA,NA,NA,NA,NA,NA,NA,NA,NA,NA,NA,NA,NA,NA,NA,NA,NA,NA,NA,NA,NA
b8c54,"""Richtig""-Screen",canvas.Screen,1_1_5_0_1,NA,NA,skipped,NA,202265,NA,NA,202264,202265,2023-11-11T12:54:07Z,202276.96,"c(""distractor1"", ""distractor2"", ""distractor3"")",Qualität,mtindo,d,NA,NA,NA,NA,NA,NA,NA,NA,NA,NA,NA,NA,NA,NA,NA,NA,NA,NA,NA,NA,NA,NA,NA,NA,NA,NA
b8c54,"""Falsch""-Screen",canvas.Screen,1_1_5_0_2,NA,NA,timeout,4999.48,202267,202260.76,202276.96,207260.24,207262,2023-11-11T12:54:12Z,207276.44,"c(""distractor1"", ""distractor2"", ""distractor3"")",Qualität,mtindo,d,NA,NA,NA,NA,NA,0,NA,NA,NA,NA,NA,NA,NA,NA,NA,NA,NA,NA,NA,NA,NA,NA,NA,NA,NA,NA
b8c54,deep,flow.Sequence,1_1_5_0,NA,NA,completion,9965.94,197291,197278.08,197294.3,207260.24,207262,2023-11-11T12:54:12Z,207276.44,"c(""distractor1"", ""distractor2"", ""distractor3"")",Qualität,mtindo,d,NA,NA,NA,NA,NA,NA,NA,NA,NA,NA,NA,NA,NA,NA,NA,NA,NA,NA,NA,NA,NA,NA,NA,NA,NA,NA
b8c54,shallow,flow.Sequence,1_1_5_1,NA,NA,skipped,NA,207262,NA,NA,207260.24,207263,2023-11-11T12:54:12Z,207276.44,"c(""distractor1"", ""distractor2"", ""distractor3"")",Qualität,mtindo,d,NA,NA,NA,NA,NA,NA,NA,NA,NA,NA,NA,NA,NA,NA,NA,NA,NA,NA,NA,NA,NA,NA,NA,NA,NA,NA
b8c54,task,flow.Sequence,1_1_5,NA,NA,completion,9965.94,197291,197278.08,197294.3,207260.24,207263,2023-11-11T12:54:12Z,207276.44,"c(""distractor1"", ""distractor2"", ""distractor3"")",Qualität,mtindo,d,NA,NA,NA,NA,NA,NA,NA,NA,NA,NA,NA,NA,NA,NA,NA,NA,NA,NA,NA,NA,NA,NA,NA,NA,NA,NA
b8c54,block,flow.Loop,1_1,NA,NA,completion,78505.3,128754,128754.44,128754.94,207260.24,207264,2023-11-11T12:54:12Z,207276.44,"c(""distractor1"", ""distractor2"", ""distractor3"")",NA,NA,NA,NA,NA,NA,NA,NA,NA,NA,NA,NA,NA,NA,NA,NA,NA,NA,NA,NA,NA,NA,NA,NA,NA,NA,NA,NA,NA
b8c54,Practice,flow.Sequence,1,NA,NA,completion,81956.6,125298,125298.76,125303.64,207260.24,207264,2023-11-11T12:54:12Z,207276.44,NULL,NA,NA,NA,NA,NA,NA,NA,NA,NA,NA,NA,NA,NA,NA,NA,NA,NA,NA,NA,NA,NA,NA,NA,NA,NA,NA,NA,NA,NA
b8c54,Experiment start,canvas.Screen,2,weiter,keypress(q),response,20022.56,207265,207260.24,207276.44,227299,227307,2023-11-11T12:54:32Z,227401.8,NULL,NA,NA,NA,NA,NA,NA,NA,NA,NA,NA,NA,NA,NA,NA,NA,NA,NA,NA,NA,NA,NA,NA,NA,NA,NA,NA,NA,NA,NA
b8c54,deep,flow.Sequence,3_0_0_0_0_0,NA,NA,skipped,NA,227401,NA,NA,227299,227401,2023-11-11T12:54:32Z,227401.8,NULL,Kontrolle,kudhibiti,s,mbinguni,kufunga,utegemezi,NA,sdf,NA,0,NA,NA,NA,NA,NA,NA,NA,NA,NA,NA,NA,NA,NA,NA,NA,NA,NA,NA,NA
b8c54,Shallow Question,html.Page,3_0_0_0_0_1_0,NA,NA,form submission,17035.2,227402,227401.34,227401.8,244437,244438,2023-11-11T12:54:49Z,244438.22,NULL,Kontrolle,kudhibiti,s,mbinguni,kufunga,utegemezi,utegemezi,NA,NA,0,NA,NA,NA,NA,NA,NA,NA,NA,NA,NA,NA,NA,NA,NA,NA,NA,NA,NA,NA
b8c54,"""Richtig""-Screen",canvas.Screen,3_0_0_0_0_1_1,NA,NA,skipped,NA,244440,NA,NA,244437,244440,2023-11-11T12:54:49Z,244438.22,NULL,Kontrolle,kudhibiti,s,mbinguni,kufunga,utegemezi,NA,sdf,NA,0,NA,NA,NA,NA,NA,NA,NA,NA,NA,NA,NA,NA,NA,NA,NA,NA,NA,NA,NA
b8c54,"""Falsch""-Screen",canvas.Screen,3_0_0_0_0_1_2,NA,NA,timeout,4999.36,244442,244435.66,244438.22,249421.32,249423,2023-11-11T12:54:54Z,249437.58,NULL,Kontrolle,kudhibiti,s,mbinguni,kufunga,utegemezi,NA,sdf,0,0,NA,NA,NA,NA,NA,NA,NA,NA,NA,NA,NA,NA,NA,NA,NA,NA,NA,NA,NA
b8c54,shallow,flow.Sequence,3_0_0_0_0_1,NA,NA,completion,22019.52,227402,227401.34,227401.8,249421.32,249424,2023-11-11T12:54:54Z,249437.58,NULL,Kontrolle,kudhibiti,s,mbinguni,kufunga,utegemezi,NA,sdf,NA,0,NA,NA,NA,NA,NA,NA,NA,NA,NA,NA,NA,NA,NA,NA,NA,NA,NA,NA,NA
b8c54,task,flow.Sequence,3_0_0_0_0,NA,NA,completion,22019.52,227401,227401.34,227401.8,249421.32,249425,2023-11-11T12:54:54Z,249437.58,NULL,Kontrolle,kudhibiti,s,mbinguni,kufunga,utegemezi,NA,sdf,NA,0,NA,NA,NA,NA,NA,NA,NA,NA,NA,NA,NA,NA,NA,NA,NA,NA,NA,NA,NA
b8c54,deep,flow.Sequence,3_0_0_0_1_0,NA,NA,skipped,NA,249425,NA,NA,249421.32,249425,2023-11-11T12:54:54Z,249437.58,NULL,Verstand,ufahamivu,s,shakawa,hadhari,mhandisi,NA,sdf,NA,0,NA,NA,NA,NA,NA,NA,NA,NA,NA,NA,NA,NA,NA,NA,NA,NA,NA,NA,NA
b8c54,Shallow Question,html.Page,3_0_0_0_1_1_0,NA,NA,form submission,5967.42,249426,249421.32,249437.58,255405,255405,2023-11-11T12:55:00Z,255403.34,NULL,Verstand,ufahamivu,s,shakawa,hadhari,mhandisi,hadhari,NA,NA,0,NA,NA,NA,NA,NA,NA,NA,NA,NA,NA,NA,NA,NA,NA,NA,NA,NA,NA,NA
b8c54,"""Richtig""-Screen",canvas.Screen,3_0_0_0_1_1_1,NA,NA,skipped,NA,255407,NA,NA,255405,255407,2023-11-11T12:55:00Z,255403.34,NULL,Verstand,ufahamivu,s,shakawa,hadhari,mhandisi,NA,sdf,NA,0,NA,NA,NA,NA,NA,NA,NA,NA,NA,NA,NA,NA,NA,NA,NA,NA,NA,NA,NA
b8c54,"""Falsch""-Screen",canvas.Screen,3_0_0_0_1_1_2,NA,NA,timeout,4996.68,255410,255402.92,255403.34,260386.34,260387,2023-11-11T12:55:05Z,260400.02,NULL,Verstand,ufahamivu,s,shakawa,hadhari,mhandisi,NA,sdf,0,0,NA,NA,NA,NA,NA,NA,NA,NA,NA,NA,NA,NA,NA,NA,NA,NA,NA,NA,NA
b8c54,shallow,flow.Sequence,3_0_0_0_1_1,NA,NA,completion,10948.76,249426,249421.32,249437.58,260386.34,260387,2023-11-11T12:55:05Z,260400.02,NULL,Verstand,ufahamivu,s,shakawa,hadhari,mhandisi,NA,sdf,NA,0,NA,NA,NA,NA,NA,NA,NA,NA,NA,NA,NA,NA,NA,NA,NA,NA,NA,NA,NA
b8c54,task,flow.Sequence,3_0_0_0_1,NA,NA,completion,10948.76,249425,249421.32,249437.58,260386.34,260388,2023-11-11T12:55:05Z,260400.02,NULL,Verstand,ufahamivu,s,shakawa,hadhari,mhandisi,NA,sdf,NA,0,NA,NA,NA,NA,NA,NA,NA,NA,NA,NA,NA,NA,NA,NA,NA,NA,NA,NA,NA
b8c54,Deep Question,html.Page,3_0_0_0_2_0_0,NA,NA,form submission,10621.98,260388,260386.34,260400.02,271022,271023,2023-11-11T12:55:15Z,271034.86,NULL,Können,unaweza,d,NA,NA,NA,ojfiewelff,NA,NA,0,NA,NA,NA,NA,NA,NA,NA,NA,NA,NA,NA,NA,NA,NA,NA,NA,NA,NA,NA
b8c54,"""Richtig""-Screen",canvas.Screen,3_0_0_0_2_0_1,NA,NA,skipped,NA,271024,NA,NA,271022,271024,2023-11-11T12:55:15Z,271034.86,NULL,Können,unaweza,d,NA,NA,NA,NA,sdf,NA,0,NA,NA,NA,NA,NA,NA,NA,NA,NA,NA,NA,NA,NA,NA,NA,NA,NA,NA,NA
b8c54,"""Falsch""-Screen",canvas.Screen,3_0_0_0_2_0_2,NA,NA,timeout,4999.34,271026,271021.04,271034.86,276017.72,276019,2023-11-11T12:55:20Z,276034.2,NULL,Können,unaweza,d,NA,NA,NA,NA,sdf,0,0,NA,NA,NA,NA,NA,NA,NA,NA,NA,NA,NA,NA,NA,NA,NA,NA,NA,NA,NA
b8c54,deep,flow.Sequence,3_0_0_0_2_0,NA,NA,completion,15617.7,260388,260386.34,260400.02,276017.72,276020,2023-11-11T12:55:20Z,276034.2,NULL,Können,unaweza,d,NA,NA,NA,NA,sdf,NA,0,NA,NA,NA,NA,NA,NA,NA,NA,NA,NA,NA,NA,NA,NA,NA,NA,NA,NA,NA
b8c54,shallow,flow.Sequence,3_0_0_0_2_1,NA,NA,skipped,NA,276020,NA,NA,276017.72,276020,2023-11-11T12:55:20Z,276034.2,NULL,Können,unaweza,d,NA,NA,NA,NA,sdf,NA,0,NA,NA,NA,NA,NA,NA,NA,NA,NA,NA,NA,NA,NA,NA,NA,NA,NA,NA,NA
b8c54,task,flow.Sequence,3_0_0_0_2,NA,NA,completion,15617.7,260388,260386.34,260400.02,276017.72,276021,2023-11-11T12:55:20Z,276034.2,NULL,Können,unaweza,d,NA,NA,NA,NA,sdf,NA,0,NA,NA,NA,NA,NA,NA,NA,NA,NA,NA,NA,NA,NA,NA,NA,NA,NA,NA,NA
b8c54,deep,flow.Sequence,3_0_0_0_3_0,NA,NA,skipped,NA,276021,NA,NA,276017.72,276022,2023-11-11T12:55:20Z,276034.2,NULL,Widerstand,usulubu,s,kusababisha,mwalimu,mwenendo,NA,sdf,NA,0,NA,NA,NA,NA,NA,NA,NA,NA,NA,NA,NA,NA,NA,NA,NA,NA,NA,NA,NA
b8c54,Shallow Question,html.Page,3_0_0_0_3_1_0,NA,NA,form submission,6026.8,276022,276017.72,276034.2,282061,282061,2023-11-11T12:55:26Z,282066.34,NULL,Widerstand,usulubu,s,kusababisha,mwalimu,mwenendo,usulubu,NA,NA,0,NA,NA,NA,NA,NA,NA,NA,NA,NA,NA,NA,NA,NA,NA,NA,NA,NA,NA,NA
b8c54,"""Richtig""-Screen",canvas.Screen,3_0_0_0_3_1_1,NA,NA,timeout,4999.68,282065,282056.68,282066.34,287049.68,287051,2023-11-11T12:55:31Z,287066.02,NULL,Widerstand,usulubu,s,kusababisha,mwalimu,mwenendo,NA,sdf,1,0,NA,NA,NA,NA,NA,NA,NA,NA,NA,NA,NA,NA,NA,NA,NA,NA,NA,NA,NA
b8c54,"""Falsch""-Screen",canvas.Screen,3_0_0_0_3_1_2,NA,NA,skipped,NA,287058,NA,NA,287049.68,287058,2023-11-11T12:55:31Z,287066.02,NULL,Widerstand,usulubu,s,kusababisha,mwalimu,mwenendo,NA,sdf,NA,0,NA,NA,NA,NA,NA,NA,NA,NA,NA,NA,NA,NA,NA,NA,NA,NA,NA,NA,NA
b8c54,shallow,flow.Sequence,3_0_0_0_3_1,NA,NA,completion,11015.48,276022,276017.72,276034.2,287049.68,287059,2023-11-11T12:55:31Z,287066.02,NULL,Widerstand,usulubu,s,kusababisha,mwalimu,mwenendo,NA,sdf,NA,0,NA,NA,NA,NA,NA,NA,NA,NA,NA,NA,NA,NA,NA,NA,NA,NA,NA,NA,NA
b8c54,task,flow.Sequence,3_0_0_0_3,NA,NA,completion,11015.48,276021,276017.72,276034.2,287049.68,287059,2023-11-11T12:55:31Z,287066.02,NULL,Widerstand,usulubu,s,kusababisha,mwalimu,mwenendo,NA,sdf,NA,0,NA,NA,NA,NA,NA,NA,NA,NA,NA,NA,NA,NA,NA,NA,NA,NA,NA,NA,NA
b8c54,Deep Question,html.Page,3_0_0_0_4_0_0,NA,NA,form submission,6346.98,287060,287049.68,287066.02,293413,293413,2023-11-11T12:55:38Z,293415.14,NULL,Kreativität,ubunifu,d,NA,NA,NA,jofielwkfjef,NA,NA,0,NA,NA,NA,NA,NA,NA,NA,NA,NA,NA,NA,NA,NA,NA,NA,NA,NA,NA,NA
b8c54,"""Richtig""-Screen",canvas.Screen,3_0_0_0_4_0_1,NA,NA,skipped,NA,293414,NA,NA,293413,293414,2023-11-11T12:55:38Z,293415.14,NULL,Kreativität,ubunifu,d,NA,NA,NA,NA,sdf,NA,0,NA,NA,NA,NA,NA,NA,NA,NA,NA,NA,NA,NA,NA,NA,NA,NA,NA,NA,NA
b8c54,"""Falsch""-Screen",canvas.Screen,3_0_0_0_4_0_2,NA,NA,timeout,4999.48,293416,293409.78,293415.14,298398.32,298400,2023-11-11T12:55:43Z,298414.62,NULL,Kreativität,ubunifu,d,NA,NA,NA,NA,sdf,0,0,NA,NA,NA,NA,NA,NA,NA,NA,NA,NA,NA,NA,NA,NA,NA,NA,NA,NA,NA
b8c54,deep,flow.Sequence,3_0_0_0_4_0,NA,NA,completion,11332.3,287060,287049.68,287066.02,298398.32,298400,2023-11-11T12:55:43Z,298414.62,NULL,Kreativität,ubunifu,d,NA,NA,NA,NA,sdf,NA,0,NA,NA,NA,NA,NA,NA,NA,NA,NA,NA,NA,NA,NA,NA,NA,NA,NA,NA,NA
b8c54,shallow,flow.Sequence,3_0_0_0_4_1,NA,NA,skipped,NA,298401,NA,NA,298398.32,298401,2023-11-11T12:55:43Z,298414.62,NULL,Kreativität,ubunifu,d,NA,NA,NA,NA,sdf,NA,0,NA,NA,NA,NA,NA,NA,NA,NA,NA,NA,NA,NA,NA,NA,NA,NA,NA,NA,NA
b8c54,task,flow.Sequence,3_0_0_0_4,NA,NA,completion,11332.3,287059,287049.68,287066.02,298398.32,298401,2023-11-11T12:55:43Z,298414.62,NULL,Kreativität,ubunifu,d,NA,NA,NA,NA,sdf,NA,0,NA,NA,NA,NA,NA,NA,NA,NA,NA,NA,NA,NA,NA,NA,NA,NA,NA,NA,NA
b8c54,Deep Question,html.Page,3_0_0_0_5_0_0,NA,NA,form submission,6535.38,298402,298398.32,298414.62,304950,304950,2023-11-11T12:55:49Z,304947.08,NULL,Gelegenheit,wakati,d,NA,NA,NA,fojfeiwfjdkwl,NA,NA,0,NA,NA,NA,NA,NA,NA,NA,NA,NA,NA,NA,NA,NA,NA,NA,NA,NA,NA,NA
b8c54,"""Richtig""-Screen",canvas.Screen,3_0_0_0_5_0_1,NA,NA,skipped,NA,304954,NA,NA,304950,304954,2023-11-11T12:55:49Z,304947.08,NULL,Gelegenheit,wakati,d,NA,NA,NA,NA,sdf,NA,0,NA,NA,NA,NA,NA,NA,NA,NA,NA,NA,NA,NA,NA,NA,NA,NA,NA,NA,NA
b8c54,"""Falsch""-Screen",canvas.Screen,3_0_0_0_5_0_2,NA,NA,timeout,4996.36,304956,304944.14,304947.08,309930.1,309931,2023-11-11T12:55:54Z,309943.44,NULL,Gelegenheit,wakati,d,NA,NA,NA,NA,sdf,0,0,NA,NA,NA,NA,NA,NA,NA,NA,NA,NA,NA,NA,NA,NA,NA,NA,NA,NA,NA
b8c54,deep,flow.Sequence,3_0_0_0_5_0,NA,NA,completion,11515.48,298402,298398.32,298414.62,309930.1,309931,2023-11-11T12:55:54Z,309943.44,NULL,Gelegenheit,wakati,d,NA,NA,NA,NA,sdf,NA,0,NA,NA,NA,NA,NA,NA,NA,NA,NA,NA,NA,NA,NA,NA,NA,NA,NA,NA,NA
b8c54,shallow,flow.Sequence,3_0_0_0_5_1,NA,NA,skipped,NA,309931,NA,NA,309930.1,309932,2023-11-11T12:55:54Z,309943.44,NULL,Gelegenheit,wakati,d,NA,NA,NA,NA,sdf,NA,0,NA,NA,NA,NA,NA,NA,NA,NA,NA,NA,NA,NA,NA,NA,NA,NA,NA,NA,NA
b8c54,task,flow.Sequence,3_0_0_0_5,NA,NA,completion,11515.48,298402,298398.32,298414.62,309930.1,309932,2023-11-11T12:55:54Z,309943.44,NULL,Gelegenheit,wakati,d,NA,NA,NA,NA,sdf,NA,0,NA,NA,NA,NA,NA,NA,NA,NA,NA,NA,NA,NA,NA,NA,NA,NA,NA,NA,NA
b8c54,deep,flow.Sequence,3_0_0_0_6_0,NA,NA,skipped,NA,309932,NA,NA,309930.1,309932,2023-11-11T12:55:54Z,309943.44,NULL,Gefährdung,kuhatarisha,s,uchokozi,udhaifu,makorowezo,NA,sdf,NA,0,NA,NA,NA,NA,NA,NA,NA,NA,NA,NA,NA,NA,NA,NA,NA,NA,NA,NA,NA
b8c54,Shallow Question,html.Page,3_0_0_0_6_1_0,NA,NA,form submission,5546.56,309932,309930.1,309943.44,315490,315491,2023-11-11T12:56:00Z,315495.66,NULL,Gefährdung,kuhatarisha,s,uchokozi,udhaifu,makorowezo,udhaifu,NA,NA,0,NA,NA,NA,NA,NA,NA,NA,NA,NA,NA,NA,NA,NA,NA,NA,NA,NA,NA,NA
b8c54,"""Richtig""-Screen",canvas.Screen,3_0_0_0_6_1_1,NA,NA,skipped,NA,315496,NA,NA,315490,315496,2023-11-11T12:56:00Z,315495.66,NULL,Gefährdung,kuhatarisha,s,uchokozi,udhaifu,makorowezo,NA,sdf,NA,0,NA,NA,NA,NA,NA,NA,NA,NA,NA,NA,NA,NA,NA,NA,NA,NA,NA,NA,NA
b8c54,"""Falsch""-Screen",canvas.Screen,3_0_0_0_6_1_2,NA,NA,timeout,4999.32,315498,315486.9,315495.66,320478.44,320480,2023-11-11T12:56:05Z,320494.98,NULL,Gefährdung,kuhatarisha,s,uchokozi,udhaifu,makorowezo,NA,sdf,0,0,NA,NA,NA,NA,NA,NA,NA,NA,NA,NA,NA,NA,NA,NA,NA,NA,NA,NA,NA
b8c54,shallow,flow.Sequence,3_0_0_0_6_1,NA,NA,completion,10535,309932,309930.1,309943.44,320478.44,320481,2023-11-11T12:56:05Z,320494.98,NULL,Gefährdung,kuhatarisha,s,uchokozi,udhaifu,makorowezo,NA,sdf,NA,0,NA,NA,NA,NA,NA,NA,NA,NA,NA,NA,NA,NA,NA,NA,NA,NA,NA,NA,NA
b8c54,task,flow.Sequence,3_0_0_0_6,NA,NA,completion,10535,309932,309930.1,309943.44,320478.44,320482,2023-11-11T12:56:05Z,320494.98,NULL,Gefährdung,kuhatarisha,s,uchokozi,udhaifu,makorowezo,NA,sdf,NA,0,NA,NA,NA,NA,NA,NA,NA,NA,NA,NA,NA,NA,NA,NA,NA,NA,NA,NA,NA
b8c54,Deep Question,html.Page,3_0_0_0_7_0_0,NA,NA,form submission,5719.02,320483,320478.44,320494.98,326214,326214,2023-11-11T12:56:10Z,326227.86,NULL,Ausschluss,kutengwa,d,NA,NA,NA,ouwieorwe,NA,NA,0,NA,NA,NA,NA,NA,NA,NA,NA,NA,NA,NA,NA,NA,NA,NA,NA,NA,NA,NA
b8c54,"""Richtig""-Screen",canvas.Screen,3_0_0_0_7_0_1,NA,NA,skipped,NA,326216,NA,NA,326214,326216,2023-11-11T12:56:10Z,326227.86,NULL,Ausschluss,kutengwa,d,NA,NA,NA,NA,sdf,NA,0,NA,NA,NA,NA,NA,NA,NA,NA,NA,NA,NA,NA,NA,NA,NA,NA,NA,NA,NA
b8c54,"""Falsch""-Screen",canvas.Screen,3_0_0_0_7_0_2,NA,NA,timeout,4999.12,326218,326211.94,326227.86,331210.82,331212,2023-11-11T12:56:15Z,331226.98,NULL,Ausschluss,kutengwa,d,NA,NA,NA,NA,sdf,0,0,NA,NA,NA,NA,NA,NA,NA,NA,NA,NA,NA,NA,NA,NA,NA,NA,NA,NA,NA
b8c54,deep,flow.Sequence,3_0_0_0_7_0,NA,NA,completion,10715.84,320482,320478.44,320494.98,331210.82,331213,2023-11-11T12:56:15Z,331226.98,NULL,Ausschluss,kutengwa,d,NA,NA,NA,NA,sdf,NA,0,NA,NA,NA,NA,NA,NA,NA,NA,NA,NA,NA,NA,NA,NA,NA,NA,NA,NA,NA
b8c54,shallow,flow.Sequence,3_0_0_0_7_1,NA,NA,skipped,NA,331214,NA,NA,331210.82,331214,2023-11-11T12:56:15Z,331226.98,NULL,Ausschluss,kutengwa,d,NA,NA,NA,NA,sdf,NA,0,NA,NA,NA,NA,NA,NA,NA,NA,NA,NA,NA,NA,NA,NA,NA,NA,NA,NA,NA
b8c54,task,flow.Sequence,3_0_0_0_7,NA,NA,completion,10715.84,320482,320478.44,320494.98,331210.82,331215,2023-11-11T12:56:15Z,331226.98,NULL,Ausschluss,kutengwa,d,NA,NA,NA,NA,sdf,NA,0,NA,NA,NA,NA,NA,NA,NA,NA,NA,NA,NA,NA,NA,NA,NA,NA,NA,NA,NA
b8c54,block,flow.Loop,3_0_0_0,NA,NA,completion,103809.02,227401,227401.34,227401.8,331210.82,331216,2023-11-11T12:56:15Z,331226.98,NULL,NA,NA,NA,NA,NA,NA,NA,sdf,NA,0,NA,NA,NA,NA,NA,NA,NA,NA,NA,NA,NA,NA,NA,NA,NA,NA,NA,NA,NA
b8c54,weiter,canvas.Screen,3_0_0_1,sdf,keypress(Space),response,1338.02,331216,331210.82,331226.98,332565,332578,2023-11-11T12:56:17Z,332646.88,NULL,NA,NA,NA,NA,NA,NA,NA,sdf,NA,0,NA,NA,NA,NA,NA,NA,NA,NA,NA,NA,NA,NA,NA,NA,NA,NA,NA,NA,NA
b8c54,check continue,flow.Sequence,3_0_0,NA,NA,completion,105163.2,227401,227401.34,227401.8,332565,332579,2023-11-11T12:56:17Z,332646.88,NULL,NA,NA,NA,NA,NA,NA,NA,sdf,NA,0,NA,NA,NA,NA,NA,NA,NA,NA,NA,NA,NA,NA,NA,NA,NA,NA,NA,NA,NA
b8c54,Deep Question,html.Page,3_0_1_0_0_0_0,NA,NA,form submission,9312.12,332647,332646.58,332646.88,341959,341960,2023-11-11T12:56:26Z,341958.82,NULL,Kreativität,ubunifu,d,NA,NA,NA,fjwoeifjwle,NA,NA,1,NA,NA,NA,NA,NA,NA,NA,NA,NA,NA,NA,NA,NA,NA,NA,NA,NA,NA,NA
b8c54,"""Richtig""-Screen",canvas.Screen,3_0_1_0_0_0_1,NA,NA,skipped,NA,341962,NA,NA,341959,341962,2023-11-11T12:56:26Z,341958.82,NULL,Kreativität,ubunifu,d,NA,NA,NA,NA,sdfdsf,NA,1,NA,NA,NA,NA,NA,NA,NA,NA,NA,NA,NA,NA,NA,NA,NA,NA,NA,NA,NA
b8c54,"""Falsch""-Screen",canvas.Screen,3_0_1_0_0_0_2,NA,NA,timeout,4999.46,341965,341955.9,341958.82,346942.12,346944,2023-11-11T12:56:31Z,346958.28,NULL,Kreativität,ubunifu,d,NA,NA,NA,NA,sdfdsf,0,1,NA,NA,NA,NA,NA,NA,NA,NA,NA,NA,NA,NA,NA,NA,NA,NA,NA,NA,NA
b8c54,deep,flow.Sequence,3_0_1_0_0_0,NA,NA,completion,14295.24,332647,332646.58,332646.88,346942.12,346944,2023-11-11T12:56:31Z,346958.28,NULL,Kreativität,ubunifu,d,NA,NA,NA,NA,sdfdsf,NA,1,NA,NA,NA,NA,NA,NA,NA,NA,NA,NA,NA,NA,NA,NA,NA,NA,NA,NA,NA
b8c54,shallow,flow.Sequence,3_0_1_0_0_1,NA,NA,skipped,NA,346944,NA,NA,346942.12,346945,2023-11-11T12:56:31Z,346958.28,NULL,Kreativität,ubunifu,d,NA,NA,NA,NA,sdfdsf,NA,1,NA,NA,NA,NA,NA,NA,NA,NA,NA,NA,NA,NA,NA,NA,NA,NA,NA,NA,NA
b8c54,task,flow.Sequence,3_0_1_0_0,NA,NA,completion,14295.24,332647,332646.58,332646.88,346942.12,346945,2023-11-11T12:56:31Z,346958.28,NULL,Kreativität,ubunifu,d,NA,NA,NA,NA,sdfdsf,NA,1,NA,NA,NA,NA,NA,NA,NA,NA,NA,NA,NA,NA,NA,NA,NA,NA,NA,NA,NA
b8c54,Deep Question,html.Page,3_0_1_0_1_0_0,NA,NA,form submission,6943.72,346946,346942.12,346958.28,353902,353903,2023-11-11T12:56:38Z,353907.42,NULL,Gelegenheit,wakati,d,NA,NA,NA,jofiewjelfie,NA,NA,1,NA,NA,NA,NA,NA,NA,NA,NA,NA,NA,NA,NA,NA,NA,NA,NA,NA,NA,NA
b8c54,"""Richtig""-Screen",canvas.Screen,3_0_1_0_1_0_1,NA,NA,skipped,NA,353906,NA,NA,353902,353906,2023-11-11T12:56:38Z,353907.42,NULL,Gelegenheit,wakati,d,NA,NA,NA,NA,sdfdsf,NA,1,NA,NA,NA,NA,NA,NA,NA,NA,NA,NA,NA,NA,NA,NA,NA,NA,NA,NA,NA
b8c54,"""Falsch""-Screen",canvas.Screen,3_0_1_0_1_0_2,NA,NA,timeout,4999.24,353910,353898.72,353907.42,358890.12,358891,2023-11-11T12:56:43Z,358906.66,NULL,Gelegenheit,wakati,d,NA,NA,NA,NA,sdfdsf,0,1,NA,NA,NA,NA,NA,NA,NA,NA,NA,NA,NA,NA,NA,NA,NA,NA,NA,NA,NA
b8c54,deep,flow.Sequence,3_0_1_0_1_0,NA,NA,completion,11931.84,346946,346942.12,346958.28,358890.12,358892,2023-11-11T12:56:43Z,358906.66,NULL,Gelegenheit,wakati,d,NA,NA,NA,NA,sdfdsf,NA,1,NA,NA,NA,NA,NA,NA,NA,NA,NA,NA,NA,NA,NA,NA,NA,NA,NA,NA,NA
b8c54,shallow,flow.Sequence,3_0_1_0_1_1,NA,NA,skipped,NA,358893,NA,NA,358890.12,358893,2023-11-11T12:56:43Z,358906.66,NULL,Gelegenheit,wakati,d,NA,NA,NA,NA,sdfdsf,NA,1,NA,NA,NA,NA,NA,NA,NA,NA,NA,NA,NA,NA,NA,NA,NA,NA,NA,NA,NA
b8c54,task,flow.Sequence,3_0_1_0_1,NA,NA,completion,11931.84,346946,346942.12,346958.28,358890.12,358894,2023-11-11T12:56:43Z,358906.66,NULL,Gelegenheit,wakati,d,NA,NA,NA,NA,sdfdsf,NA,1,NA,NA,NA,NA,NA,NA,NA,NA,NA,NA,NA,NA,NA,NA,NA,NA,NA,NA,NA
b8c54,deep,flow.Sequence,3_0_1_0_2_0,NA,NA,skipped,NA,358894,NA,NA,358890.12,358895,2023-11-11T12:56:43Z,358906.66,NULL,Kontrolle,kudhibiti,s,mbinguni,kufunga,utegemezi,NA,sdfdsf,NA,1,NA,NA,NA,NA,NA,NA,NA,NA,NA,NA,NA,NA,NA,NA,NA,NA,NA,NA,NA
b8c54,Shallow Question,html.Page,3_0_1_0_2_1_0,NA,NA,form submission,8828.34,358895,358890.12,358906.66,367735,367735,2023-11-11T12:56:52Z,367738.8,NULL,Kontrolle,kudhibiti,s,mbinguni,kufunga,utegemezi,kufunga,NA,NA,1,NA,NA,NA,NA,NA,NA,NA,NA,NA,NA,NA,NA,NA,NA,NA,NA,NA,NA,NA
b8c54,"""Richtig""-Screen",canvas.Screen,3_0_1_0_2_1_1,NA,NA,skipped,NA,367740,NA,NA,367735,367741,2023-11-11T12:56:52Z,367738.8,NULL,Kontrolle,kudhibiti,s,mbinguni,kufunga,utegemezi,NA,sdfdsf,NA,1,NA,NA,NA,NA,NA,NA,NA,NA,NA,NA,NA,NA,NA,NA,NA,NA,NA,NA,NA
b8c54,"""Falsch""-Screen",canvas.Screen,3_0_1_0_2_1_2,NA,NA,timeout,4999.3,367747,367729.52,367738.8,372721.64,372723,2023-11-11T12:56:57Z,372738.1,NULL,Kontrolle,kudhibiti,s,mbinguni,kufunga,utegemezi,NA,sdfdsf,0,1,NA,NA,NA,NA,NA,NA,NA,NA,NA,NA,NA,NA,NA,NA,NA,NA,NA,NA,NA
b8c54,shallow,flow.Sequence,3_0_1_0_2_1,NA,NA,completion,13814.98,358895,358890.12,358906.66,372721.64,372723,2023-11-11T12:56:57Z,372738.1,NULL,Kontrolle,kudhibiti,s,mbinguni,kufunga,utegemezi,NA,sdfdsf,NA,1,NA,NA,NA,NA,NA,NA,NA,NA,NA,NA,NA,NA,NA,NA,NA,NA,NA,NA,NA
b8c54,task,flow.Sequence,3_0_1_0_2,NA,NA,completion,13814.98,358894,358890.12,358906.66,372721.64,372724,2023-11-11T12:56:57Z,372738.1,NULL,Kontrolle,kudhibiti,s,mbinguni,kufunga,utegemezi,NA,sdfdsf,NA,1,NA,NA,NA,NA,NA,NA,NA,NA,NA,NA,NA,NA,NA,NA,NA,NA,NA,NA,NA
b8c54,deep,flow.Sequence,3_0_1_0_3_0,NA,NA,skipped,NA,372724,NA,NA,372721.64,372724,2023-11-11T12:56:57Z,372738.1,NULL,Gefährdung,kuhatarisha,s,uchokozi,udhaifu,makorowezo,NA,sdfdsf,NA,1,NA,NA,NA,NA,NA,NA,NA,NA,NA,NA,NA,NA,NA,NA,NA,NA,NA,NA,NA
b8c54,Shallow Question,html.Page,3_0_1_0_3_1_0,NA,NA,form submission,5238.9,372724,372721.64,372738.1,377977,377978,2023-11-11T12:57:02Z,377987.52,NULL,Gefährdung,kuhatarisha,s,uchokozi,udhaifu,makorowezo,kuhatarisha,NA,NA,1,NA,NA,NA,NA,NA,NA,NA,NA,NA,NA,NA,NA,NA,NA,NA,NA,NA,NA,NA
b8c54,"""Richtig""-Screen",canvas.Screen,3_0_1_0_3_1_1,NA,NA,timeout,4999.5,377984,377973.32,377987.52,382970.64,382974,2023-11-11T12:57:07Z,382987.02,NULL,Gefährdung,kuhatarisha,s,uchokozi,udhaifu,makorowezo,NA,sdfdsf,1,1,NA,NA,NA,NA,NA,NA,NA,NA,NA,NA,NA,NA,NA,NA,NA,NA,NA,NA,NA
b8c54,"""Falsch""-Screen",canvas.Screen,3_0_1_0_3_1_2,NA,NA,skipped,NA,382989,NA,NA,382970.64,382990,2023-11-11T12:57:07Z,382987.02,NULL,Gefährdung,kuhatarisha,s,uchokozi,udhaifu,makorowezo,NA,sdfdsf,NA,1,NA,NA,NA,NA,NA,NA,NA,NA,NA,NA,NA,NA,NA,NA,NA,NA,NA,NA,NA
b8c54,shallow,flow.Sequence,3_0_1_0_3_1,NA,NA,completion,10232.54,372724,372721.64,372738.1,382970.64,382990,2023-11-11T12:57:07Z,382987.02,NULL,Gefährdung,kuhatarisha,s,uchokozi,udhaifu,makorowezo,NA,sdfdsf,NA,1,NA,NA,NA,NA,NA,NA,NA,NA,NA,NA,NA,NA,NA,NA,NA,NA,NA,NA,NA
b8c54,task,flow.Sequence,3_0_1_0_3,NA,NA,completion,10232.54,372724,372721.64,372738.1,382970.64,382991,2023-11-11T12:57:07Z,382987.02,NULL,Gefährdung,kuhatarisha,s,uchokozi,udhaifu,makorowezo,NA,sdfdsf,NA,1,NA,NA,NA,NA,NA,NA,NA,NA,NA,NA,NA,NA,NA,NA,NA,NA,NA,NA,NA
b8c54,deep,flow.Sequence,3_0_1_0_4_0,NA,NA,skipped,NA,382991,NA,NA,382970.64,382992,2023-11-11T12:57:07Z,382987.02,NULL,Widerstand,usulubu,s,kusababisha,mwalimu,mwenendo,NA,sdfdsf,NA,1,NA,NA,NA,NA,NA,NA,NA,NA,NA,NA,NA,NA,NA,NA,NA,NA,NA,NA,NA
b8c54,Shallow Question,html.Page,3_0_1_0_4_1_0,NA,NA,form submission,11282.98,382992,382970.64,382987.02,394270,394270,2023-11-11T12:57:19Z,394285.48,NULL,Widerstand,usulubu,s,kusababisha,mwalimu,mwenendo,kusababisha,NA,NA,1,NA,NA,NA,NA,NA,NA,NA,NA,NA,NA,NA,NA,NA,NA,NA,NA,NA,NA,NA
b8c54,"""Richtig""-Screen",canvas.Screen,3_0_1_0_4_1_1,NA,NA,skipped,NA,394272,NA,NA,394270,394272,2023-11-11T12:57:19Z,394285.48,NULL,Widerstand,usulubu,s,kusababisha,mwalimu,mwenendo,NA,sdfdsf,NA,1,NA,NA,NA,NA,NA,NA,NA,NA,NA,NA,NA,NA,NA,NA,NA,NA,NA,NA,NA
b8c54,"""Falsch""-Screen",canvas.Screen,3_0_1_0_4_1_2,NA,NA,timeout,4999.32,394273,394267.62,394285.48,399268.66,399270,2023-11-11T12:57:24Z,399284.8,NULL,Widerstand,usulubu,s,kusababisha,mwalimu,mwenendo,NA,sdfdsf,0,1,NA,NA,NA,NA,NA,NA,NA,NA,NA,NA,NA,NA,NA,NA,NA,NA,NA,NA,NA
b8c54,shallow,flow.Sequence,3_0_1_0_4_1,NA,NA,completion,16281.64,382992,382970.64,382987.02,399268.66,399271,2023-11-11T12:57:24Z,399284.8,NULL,Widerstand,usulubu,s,kusababisha,mwalimu,mwenendo,NA,sdfdsf,NA,1,NA,NA,NA,NA,NA,NA,NA,NA,NA,NA,NA,NA,NA,NA,NA,NA,NA,NA,NA
b8c54,task,flow.Sequence,3_0_1_0_4,NA,NA,completion,16281.64,382991,382970.64,382987.02,399268.66,399272,2023-11-11T12:57:24Z,399284.8,NULL,Widerstand,usulubu,s,kusababisha,mwalimu,mwenendo,NA,sdfdsf,NA,1,NA,NA,NA,NA,NA,NA,NA,NA,NA,NA,NA,NA,NA,NA,NA,NA,NA,NA,NA
b8c54,deep,flow.Sequence,3_0_1_0_5_0,NA,NA,skipped,NA,399273,NA,NA,399268.66,399273,2023-11-11T12:57:24Z,399284.8,NULL,Verstand,ufahamivu,s,shakawa,hadhari,mhandisi,NA,sdfdsf,NA,1,NA,NA,NA,NA,NA,NA,NA,NA,NA,NA,NA,NA,NA,NA,NA,NA,NA,NA,NA
b8c54,Shallow Question,html.Page,3_0_1_0_5_1_0,NA,NA,form submission,6548.2,399274,399268.66,399284.8,405833,405834,2023-11-11T12:57:30Z,405833.94,NULL,Verstand,ufahamivu,s,shakawa,hadhari,mhandisi,hadhari,NA,NA,1,NA,NA,NA,NA,NA,NA,NA,NA,NA,NA,NA,NA,NA,NA,NA,NA,NA,NA,NA
b8c54,"""Richtig""-Screen",canvas.Screen,3_0_1_0_5_1_1,NA,NA,skipped,NA,405834,NA,NA,405833,405835,2023-11-11T12:57:30Z,405833.94,NULL,Verstand,ufahamivu,s,shakawa,hadhari,mhandisi,NA,sdfdsf,NA,1,NA,NA,NA,NA,NA,NA,NA,NA,NA,NA,NA,NA,NA,NA,NA,NA,NA,NA,NA
b8c54,"""Falsch""-Screen",canvas.Screen,3_0_1_0_5_1_2,NA,NA,timeout,4999.42,405837,405830.78,405833.94,410816.7,410818,2023-11-11T12:57:35Z,410833.36,NULL,Verstand,ufahamivu,s,shakawa,hadhari,mhandisi,NA,sdfdsf,0,1,NA,NA,NA,NA,NA,NA,NA,NA,NA,NA,NA,NA,NA,NA,NA,NA,NA,NA,NA
b8c54,shallow,flow.Sequence,3_0_1_0_5_1,NA,NA,completion,11531.9,399274,399268.66,399284.8,410816.7,410818,2023-11-11T12:57:35Z,410833.36,NULL,Verstand,ufahamivu,s,shakawa,hadhari,mhandisi,NA,sdfdsf,NA,1,NA,NA,NA,NA,NA,NA,NA,NA,NA,NA,NA,NA,NA,NA,NA,NA,NA,NA,NA
b8c54,task,flow.Sequence,3_0_1_0_5,NA,NA,completion,11531.9,399273,399268.66,399284.8,410816.7,410819,2023-11-11T12:57:35Z,410833.36,NULL,Verstand,ufahamivu,s,shakawa,hadhari,mhandisi,NA,sdfdsf,NA,1,NA,NA,NA,NA,NA,NA,NA,NA,NA,NA,NA,NA,NA,NA,NA,NA,NA,NA,NA
b8c54,Deep Question,html.Page,3_0_1_0_6_0_0,NA,NA,form submission,6549.64,410820,410816.7,410833.36,417383,417383,2023-11-11T12:57:42Z,417382.46,NULL,Können,unaweza,d,NA,NA,NA,sdofiwejf,NA,NA,1,NA,NA,NA,NA,NA,NA,NA,NA,NA,NA,NA,NA,NA,NA,NA,NA,NA,NA,NA
b8c54,"""Richtig""-Screen",canvas.Screen,3_0_1_0_6_0_1,NA,NA,skipped,NA,417386,NA,NA,417383,417387,2023-11-11T12:57:42Z,417382.46,NULL,Können,unaweza,d,NA,NA,NA,NA,sdfdsf,NA,1,NA,NA,NA,NA,NA,NA,NA,NA,NA,NA,NA,NA,NA,NA,NA,NA,NA,NA,NA
b8c54,"""Falsch""-Screen",canvas.Screen,3_0_1_0_6_0_2,NA,NA,timeout,4999.46,417389,417381.62,417382.46,422365.2,422366,2023-11-11T12:57:47Z,422381.92,NULL,Können,unaweza,d,NA,NA,NA,NA,sdfdsf,0,1,NA,NA,NA,NA,NA,NA,NA,NA,NA,NA,NA,NA,NA,NA,NA,NA,NA,NA,NA
b8c54,deep,flow.Sequence,3_0_1_0_6_0,NA,NA,completion,11531.84,410820,410816.7,410833.36,422365.2,422369,2023-11-11T12:57:47Z,422381.92,NULL,Können,unaweza,d,NA,NA,NA,NA,sdfdsf,NA,1,NA,NA,NA,NA,NA,NA,NA,NA,NA,NA,NA,NA,NA,NA,NA,NA,NA,NA,NA
b8c54,shallow,flow.Sequence,3_0_1_0_6_1,NA,NA,skipped,NA,422369,NA,NA,422365.2,422369,2023-11-11T12:57:47Z,422381.92,NULL,Können,unaweza,d,NA,NA,NA,NA,sdfdsf,NA,1,NA,NA,NA,NA,NA,NA,NA,NA,NA,NA,NA,NA,NA,NA,NA,NA,NA,NA,NA
b8c54,task,flow.Sequence,3_0_1_0_6,NA,NA,completion,11531.84,410819,410816.7,410833.36,422365.2,422369,2023-11-11T12:57:47Z,422381.92,NULL,Können,unaweza,d,NA,NA,NA,NA,sdfdsf,NA,1,NA,NA,NA,NA,NA,NA,NA,NA,NA,NA,NA,NA,NA,NA,NA,NA,NA,NA,NA
b8c54,Deep Question,html.Page,3_0_1_0_7_0_0,NA,NA,form submission,6658.08,422370,422365.2,422381.92,429040,429041,2023-11-11T12:57:53Z,429047.6,NULL,Ausschluss,kutengwa,d,NA,NA,NA,usubili,NA,NA,1,NA,NA,NA,NA,NA,NA,NA,NA,NA,NA,NA,NA,NA,NA,NA,NA,NA,NA,NA
b8c54,"""Richtig""-Screen",canvas.Screen,3_0_1_0_7_0_1,NA,NA,skipped,NA,429043,NA,NA,429040,429043,2023-11-11T12:57:53Z,429047.6,NULL,Ausschluss,kutengwa,d,NA,NA,NA,NA,sdfdsf,NA,1,NA,NA,NA,NA,NA,NA,NA,NA,NA,NA,NA,NA,NA,NA,NA,NA,NA,NA,NA
b8c54,"""Falsch""-Screen",canvas.Screen,3_0_1_0_7_0_2,NA,NA,timeout,4999.4,429046,429038.78,429047.6,434030.6,434032,2023-11-11T12:57:58Z,434047,NULL,Ausschluss,kutengwa,d,NA,NA,NA,NA,sdfdsf,0,1,NA,NA,NA,NA,NA,NA,NA,NA,NA,NA,NA,NA,NA,NA,NA,NA,NA,NA,NA
b8c54,deep,flow.Sequence,3_0_1_0_7_0,NA,NA,completion,11648.68,422370,422365.2,422381.92,434030.6,434033,2023-11-11T12:57:58Z,434047,NULL,Ausschluss,kutengwa,d,NA,NA,NA,NA,sdfdsf,NA,1,NA,NA,NA,NA,NA,NA,NA,NA,NA,NA,NA,NA,NA,NA,NA,NA,NA,NA,NA
b8c54,shallow,flow.Sequence,3_0_1_0_7_1,NA,NA,skipped,NA,434033,NA,NA,434030.6,434033,2023-11-11T12:57:58Z,434047,NULL,Ausschluss,kutengwa,d,NA,NA,NA,NA,sdfdsf,NA,1,NA,NA,NA,NA,NA,NA,NA,NA,NA,NA,NA,NA,NA,NA,NA,NA,NA,NA,NA
b8c54,task,flow.Sequence,3_0_1_0_7,NA,NA,completion,11648.68,422370,422365.2,422381.92,434030.6,434034,2023-11-11T12:57:58Z,434047,NULL,Ausschluss,kutengwa,d,NA,NA,NA,NA,sdfdsf,NA,1,NA,NA,NA,NA,NA,NA,NA,NA,NA,NA,NA,NA,NA,NA,NA,NA,NA,NA,NA
b8c54,block,flow.Loop,3_0_1_0,NA,NA,completion,101383.72,332647,332646.58,332646.88,434030.6,434035,2023-11-11T12:57:58Z,434047,NULL,NA,NA,NA,NA,NA,NA,NA,sdfdsf,NA,1,NA,NA,NA,NA,NA,NA,NA,NA,NA,NA,NA,NA,NA,NA,NA,NA,NA,NA,NA
b8c54,weiter,canvas.Screen,3_0_1_1,sdf,keypress(Space),response,1173,434035,434030.6,434047,435220,435228,2023-11-11T12:57:59Z,435299.18,NULL,NA,NA,NA,NA,NA,NA,NA,sdfdsf,NA,1,NA,NA,NA,NA,NA,NA,NA,NA,NA,NA,NA,NA,NA,NA,NA,NA,NA,NA,NA
b8c54,check continue,flow.Sequence,3_0_1,NA,NA,completion,102573.12,332647,332646.58,332646.88,435220,435229,2023-11-11T12:57:59Z,435299.18,NULL,NA,NA,NA,NA,NA,NA,NA,sdfdsf,NA,1,NA,NA,NA,NA,NA,NA,NA,NA,NA,NA,NA,NA,NA,NA,NA,NA,NA,NA,NA
b8c54,Deep Question,html.Page,3_0_2_0_0_0_0,NA,NA,form submission,8777.82,435299,435298.82,435299.18,444077,444079,2023-11-11T12:58:08Z,444078.98,NULL,Gelegenheit,wakati,d,NA,NA,NA,wakahiti,NA,NA,2,NA,NA,NA,NA,NA,NA,NA,NA,NA,NA,NA,NA,NA,NA,NA,NA,NA,NA,NA
b8c54,"""Richtig""-Screen",canvas.Screen,3_0_2_0_0_0_1,NA,NA,skipped,NA,444086,NA,NA,444077,444086,2023-11-11T12:58:08Z,444078.98,NULL,Gelegenheit,wakati,d,NA,NA,NA,NA,sdf,NA,2,NA,NA,NA,NA,NA,NA,NA,NA,NA,NA,NA,NA,NA,NA,NA,NA,NA,NA,NA
b8c54,"""Falsch""-Screen",canvas.Screen,3_0_2_0_0_0_2,NA,NA,timeout,4999.34,444088,444075.54,444078.98,449062.14,449063,2023-11-11T12:58:13Z,449078.32,NULL,Gelegenheit,wakati,d,NA,NA,NA,NA,sdf,0,2,NA,NA,NA,NA,NA,NA,NA,NA,NA,NA,NA,NA,NA,NA,NA,NA,NA,NA,NA
b8c54,deep,flow.Sequence,3_0_2_0_0_0,NA,NA,completion,13762.96,435299,435298.82,435299.18,449062.14,449065,2023-11-11T12:58:13Z,449078.32,NULL,Gelegenheit,wakati,d,NA,NA,NA,NA,sdf,NA,2,NA,NA,NA,NA,NA,NA,NA,NA,NA,NA,NA,NA,NA,NA,NA,NA,NA,NA,NA
b8c54,shallow,flow.Sequence,3_0_2_0_0_1,NA,NA,skipped,NA,449066,NA,NA,449062.14,449066,2023-11-11T12:58:13Z,449078.32,NULL,Gelegenheit,wakati,d,NA,NA,NA,NA,sdf,NA,2,NA,NA,NA,NA,NA,NA,NA,NA,NA,NA,NA,NA,NA,NA,NA,NA,NA,NA,NA
b8c54,task,flow.Sequence,3_0_2_0_0,NA,NA,completion,13762.96,435299,435298.82,435299.18,449062.14,449067,2023-11-11T12:58:13Z,449078.32,NULL,Gelegenheit,wakati,d,NA,NA,NA,NA,sdf,NA,2,NA,NA,NA,NA,NA,NA,NA,NA,NA,NA,NA,NA,NA,NA,NA,NA,NA,NA,NA
b8c54,Deep Question,html.Page,3_0_2_0_1_0_0,NA,NA,form submission,3819.68,449068,449062.14,449078.32,452898,452898,2023-11-11T12:58:17Z,452911.16,NULL,Kreativität,ubunifu,d,NA,NA,NA,fiejwoefi,NA,NA,2,NA,NA,NA,NA,NA,NA,NA,NA,NA,NA,NA,NA,NA,NA,NA,NA,NA,NA,NA
b8c54,"""Richtig""-Screen",canvas.Screen,3_0_2_0_1_0_1,NA,NA,skipped,NA,452902,NA,NA,452898,452902,2023-11-11T12:58:17Z,452911.16,NULL,Kreativität,ubunifu,d,NA,NA,NA,NA,sdf,NA,2,NA,NA,NA,NA,NA,NA,NA,NA,NA,NA,NA,NA,NA,NA,NA,NA,NA,NA,NA
b8c54,"""Falsch""-Screen",canvas.Screen,3_0_2_0_1_0_2,NA,NA,timeout,4999.66,452904,452897.16,452911.16,457894.02,457895,2023-11-11T12:58:22Z,457910.82,NULL,Kreativität,ubunifu,d,NA,NA,NA,NA,sdf,0,2,NA,NA,NA,NA,NA,NA,NA,NA,NA,NA,NA,NA,NA,NA,NA,NA,NA,NA,NA
b8c54,deep,flow.Sequence,3_0_2_0_1_0,NA,NA,completion,8815.7,449068,449062.14,449078.32,457894.02,457897,2023-11-11T12:58:22Z,457910.82,NULL,Kreativität,ubunifu,d,NA,NA,NA,NA,sdf,NA,2,NA,NA,NA,NA,NA,NA,NA,NA,NA,NA,NA,NA,NA,NA,NA,NA,NA,NA,NA
b8c54,shallow,flow.Sequence,3_0_2_0_1_1,NA,NA,skipped,NA,457898,NA,NA,457894.02,457898,2023-11-11T12:58:22Z,457910.82,NULL,Kreativität,ubunifu,d,NA,NA,NA,NA,sdf,NA,2,NA,NA,NA,NA,NA,NA,NA,NA,NA,NA,NA,NA,NA,NA,NA,NA,NA,NA,NA
b8c54,task,flow.Sequence,3_0_2_0_1,NA,NA,completion,8815.7,449067,449062.14,449078.32,457894.02,457899,2023-11-11T12:58:22Z,457910.82,NULL,Kreativität,ubunifu,d,NA,NA,NA,NA,sdf,NA,2,NA,NA,NA,NA,NA,NA,NA,NA,NA,NA,NA,NA,NA,NA,NA,NA,NA,NA,NA
b8c54,Deep Question,html.Page,3_0_2_0_2_0_0,NA,NA,form submission,7410.18,457900,457894.02,457910.82,465321,465322,2023-11-11T12:58:30Z,465326.26,NULL,Ausschluss,kutengwa,d,NA,NA,NA,usubiliuw,NA,NA,2,NA,NA,NA,NA,NA,NA,NA,NA,NA,NA,NA,NA,NA,NA,NA,NA,NA,NA,NA
b8c54,"""Richtig""-Screen",canvas.Screen,3_0_2_0_2_0_1,NA,NA,skipped,NA,465324,NA,NA,465321,465324,2023-11-11T12:58:30Z,465326.26,NULL,Ausschluss,kutengwa,d,NA,NA,NA,NA,sdf,NA,2,NA,NA,NA,NA,NA,NA,NA,NA,NA,NA,NA,NA,NA,NA,NA,NA,NA,NA,NA
b8c54,"""Falsch""-Screen",canvas.Screen,3_0_2_0_2_0_2,NA,NA,timeout,4999.32,465327,465320.16,465326.26,470309,470310,2023-11-11T12:58:35Z,470325.58,NULL,Ausschluss,kutengwa,d,NA,NA,NA,NA,sdf,0,2,NA,NA,NA,NA,NA,NA,NA,NA,NA,NA,NA,NA,NA,NA,NA,NA,NA,NA,NA
b8c54,deep,flow.Sequence,3_0_2_0_2_0,NA,NA,completion,12398.18,457899,457894.02,457910.82,470309,470311,2023-11-11T12:58:35Z,470325.58,NULL,Ausschluss,kutengwa,d,NA,NA,NA,NA,sdf,NA,2,NA,NA,NA,NA,NA,NA,NA,NA,NA,NA,NA,NA,NA,NA,NA,NA,NA,NA,NA
b8c54,shallow,flow.Sequence,3_0_2_0_2_1,NA,NA,skipped,NA,470311,NA,NA,470309,470311,2023-11-11T12:58:35Z,470325.58,NULL,Ausschluss,kutengwa,d,NA,NA,NA,NA,sdf,NA,2,NA,NA,NA,NA,NA,NA,NA,NA,NA,NA,NA,NA,NA,NA,NA,NA,NA,NA,NA
b8c54,task,flow.Sequence,3_0_2_0_2,NA,NA,completion,12398.18,457899,457894.02,457910.82,470309,470311,2023-11-11T12:58:35Z,470325.58,NULL,Ausschluss,kutengwa,d,NA,NA,NA,NA,sdf,NA,2,NA,NA,NA,NA,NA,NA,NA,NA,NA,NA,NA,NA,NA,NA,NA,NA,NA,NA,NA
b8c54,deep,flow.Sequence,3_0_2_0_3_0,NA,NA,skipped,NA,470313,NA,NA,470309,470313,2023-11-11T12:58:35Z,470325.58,NULL,Verstand,ufahamivu,s,shakawa,hadhari,mhandisi,NA,sdf,NA,2,NA,NA,NA,NA,NA,NA,NA,NA,NA,NA,NA,NA,NA,NA,NA,NA,NA,NA,NA
b8c54,Shallow Question,html.Page,3_0_2_0_3_1_0,NA,NA,form submission,11701.42,470313,470309,470325.58,482027,482027,2023-11-11T12:58:46Z,482041.06,NULL,Verstand,ufahamivu,s,shakawa,hadhari,mhandisi,ufahamivu,NA,NA,2,NA,NA,NA,NA,NA,NA,NA,NA,NA,NA,NA,NA,NA,NA,NA,NA,NA,NA,NA
b8c54,"""Richtig""-Screen",canvas.Screen,3_0_2_0_3_1_1,NA,NA,timeout,4998.98,482030,482026,482041.06,487023.46,487025,2023-11-11T12:58:51Z,487040.04,NULL,Verstand,ufahamivu,s,shakawa,hadhari,mhandisi,NA,sdf,1,2,NA,NA,NA,NA,NA,NA,NA,NA,NA,NA,NA,NA,NA,NA,NA,NA,NA,NA,NA
b8c54,"""Falsch""-Screen",canvas.Screen,3_0_2_0_3_1_2,NA,NA,skipped,NA,487031,NA,NA,487023.46,487031,2023-11-11T12:58:51Z,487040.04,NULL,Verstand,ufahamivu,s,shakawa,hadhari,mhandisi,NA,sdf,NA,2,NA,NA,NA,NA,NA,NA,NA,NA,NA,NA,NA,NA,NA,NA,NA,NA,NA,NA,NA
b8c54,shallow,flow.Sequence,3_0_2_0_3_1,NA,NA,completion,16697.88,470313,470309,470325.58,487023.46,487033,2023-11-11T12:58:51Z,487040.04,NULL,Verstand,ufahamivu,s,shakawa,hadhari,mhandisi,NA,sdf,NA,2,NA,NA,NA,NA,NA,NA,NA,NA,NA,NA,NA,NA,NA,NA,NA,NA,NA,NA,NA
b8c54,task,flow.Sequence,3_0_2_0_3,NA,NA,completion,16697.88,470312,470309,470325.58,487023.46,487033,2023-11-11T12:58:51Z,487040.04,NULL,Verstand,ufahamivu,s,shakawa,hadhari,mhandisi,NA,sdf,NA,2,NA,NA,NA,NA,NA,NA,NA,NA,NA,NA,NA,NA,NA,NA,NA,NA,NA,NA,NA
b8c54,deep,flow.Sequence,3_0_2_0_4_0,NA,NA,skipped,NA,487033,NA,NA,487023.46,487033,2023-11-11T12:58:51Z,487040.04,NULL,Kontrolle,kudhibiti,s,mbinguni,kufunga,utegemezi,NA,sdf,NA,2,NA,NA,NA,NA,NA,NA,NA,NA,NA,NA,NA,NA,NA,NA,NA,NA,NA,NA,NA
b8c54,Shallow Question,html.Page,3_0_2_0_4_1_0,NA,NA,form submission,4988.96,487033,487023.46,487040.04,492029,492029,2023-11-11T12:58:56Z,492039.42,NULL,Kontrolle,kudhibiti,s,mbinguni,kufunga,utegemezi,kufunga,NA,NA,2,NA,NA,NA,NA,NA,NA,NA,NA,NA,NA,NA,NA,NA,NA,NA,NA,NA,NA,NA
b8c54,"""Richtig""-Screen",canvas.Screen,3_0_2_0_4_1_1,NA,NA,skipped,NA,492031,NA,NA,492029,492031,2023-11-11T12:58:56Z,492039.42,NULL,Kontrolle,kudhibiti,s,mbinguni,kufunga,utegemezi,NA,sdf,NA,2,NA,NA,NA,NA,NA,NA,NA,NA,NA,NA,NA,NA,NA,NA,NA,NA,NA,NA,NA
b8c54,"""Falsch""-Screen",canvas.Screen,3_0_2_0_4_1_2,NA,NA,timeout,4999.38,492034,492027.18,492039.42,497022.66,497024,2023-11-11T12:59:01Z,497038.8,NULL,Kontrolle,kudhibiti,s,mbinguni,kufunga,utegemezi,NA,sdf,0,2,NA,NA,NA,NA,NA,NA,NA,NA,NA,NA,NA,NA,NA,NA,NA,NA,NA,NA,NA
b8c54,shallow,flow.Sequence,3_0_2_0_4_1,NA,NA,completion,9982.62,487033,487023.46,487040.04,497022.66,497025,2023-11-11T12:59:01Z,497038.8,NULL,Kontrolle,kudhibiti,s,mbinguni,kufunga,utegemezi,NA,sdf,NA,2,NA,NA,NA,NA,NA,NA,NA,NA,NA,NA,NA,NA,NA,NA,NA,NA,NA,NA,NA
b8c54,task,flow.Sequence,3_0_2_0_4,NA,NA,completion,9982.62,487033,487023.46,487040.04,497022.66,497026,2023-11-11T12:59:01Z,497038.8,NULL,Kontrolle,kudhibiti,s,mbinguni,kufunga,utegemezi,NA,sdf,NA,2,NA,NA,NA,NA,NA,NA,NA,NA,NA,NA,NA,NA,NA,NA,NA,NA,NA,NA,NA
b8c54,deep,flow.Sequence,3_0_2_0_5_0,NA,NA,skipped,NA,497026,NA,NA,497022.66,497026,2023-11-11T12:59:01Z,497038.8,NULL,Widerstand,usulubu,s,kusababisha,mwalimu,mwenendo,NA,sdf,NA,2,NA,NA,NA,NA,NA,NA,NA,NA,NA,NA,NA,NA,NA,NA,NA,NA,NA,NA,NA
b8c54,Shallow Question,html.Page,3_0_2_0_5_1_0,NA,NA,form submission,4445.2,497027,497022.66,497038.8,501484,501484,2023-11-11T12:59:06Z,501488.22,NULL,Widerstand,usulubu,s,kusababisha,mwalimu,mwenendo,kusababisha,NA,NA,2,NA,NA,NA,NA,NA,NA,NA,NA,NA,NA,NA,NA,NA,NA,NA,NA,NA,NA,NA
b8c54,"""Richtig""-Screen",canvas.Screen,3_0_2_0_5_1_1,NA,NA,skipped,NA,501487,NA,NA,501484,501487,2023-11-11T12:59:06Z,501488.22,NULL,Widerstand,usulubu,s,kusababisha,mwalimu,mwenendo,NA,sdf,NA,2,NA,NA,NA,NA,NA,NA,NA,NA,NA,NA,NA,NA,NA,NA,NA,NA,NA,NA,NA
b8c54,"""Falsch""-Screen",canvas.Screen,3_0_2_0_5_1_2,NA,NA,timeout,4999.32,501491,501482.66,501488.22,506471.38,506473,2023-11-11T12:59:11Z,506487.54,NULL,Widerstand,usulubu,s,kusababisha,mwalimu,mwenendo,NA,sdf,0,2,NA,NA,NA,NA,NA,NA,NA,NA,NA,NA,NA,NA,NA,NA,NA,NA,NA,NA,NA
b8c54,shallow,flow.Sequence,3_0_2_0_5_1,NA,NA,completion,9432.58,497026,497022.66,497038.8,506471.38,506473,2023-11-11T12:59:11Z,506487.54,NULL,Widerstand,usulubu,s,kusababisha,mwalimu,mwenendo,NA,sdf,NA,2,NA,NA,NA,NA,NA,NA,NA,NA,NA,NA,NA,NA,NA,NA,NA,NA,NA,NA,NA
b8c54,task,flow.Sequence,3_0_2_0_5,NA,NA,completion,9432.58,497026,497022.66,497038.8,506471.38,506474,2023-11-11T12:59:11Z,506487.54,NULL,Widerstand,usulubu,s,kusababisha,mwalimu,mwenendo,NA,sdf,NA,2,NA,NA,NA,NA,NA,NA,NA,NA,NA,NA,NA,NA,NA,NA,NA,NA,NA,NA,NA
b8c54,deep,flow.Sequence,3_0_2_0_6_0,NA,NA,skipped,NA,506474,NA,NA,506471.38,506475,2023-11-11T12:59:11Z,506487.54,NULL,Gefährdung,kuhatarisha,s,uchokozi,udhaifu,makorowezo,NA,sdf,NA,2,NA,NA,NA,NA,NA,NA,NA,NA,NA,NA,NA,NA,NA,NA,NA,NA,NA,NA,NA
b8c54,Shallow Question,html.Page,3_0_2_0_6_1_0,NA,NA,form submission,6462.46,506475,506471.38,506487.54,512950,512950,2023-11-11T12:59:17Z,512953.36,NULL,Gefährdung,kuhatarisha,s,uchokozi,udhaifu,makorowezo,kuhatarisha,NA,NA,2,NA,NA,NA,NA,NA,NA,NA,NA,NA,NA,NA,NA,NA,NA,NA,NA,NA,NA,NA
b8c54,"""Richtig""-Screen",canvas.Screen,3_0_2_0_6_1_1,NA,NA,timeout,4999.38,512951,512948.38,512953.36,517936.16,517938,2023-11-11T12:59:22Z,517952.74,NULL,Gefährdung,kuhatarisha,s,uchokozi,udhaifu,makorowezo,NA,sdf,1,2,NA,NA,NA,NA,NA,NA,NA,NA,NA,NA,NA,NA,NA,NA,NA,NA,NA,NA,NA
b8c54,"""Falsch""-Screen",canvas.Screen,3_0_2_0_6_1_2,NA,NA,skipped,NA,517943,NA,NA,517936.16,517943,2023-11-11T12:59:22Z,517952.74,NULL,Gefährdung,kuhatarisha,s,uchokozi,udhaifu,makorowezo,NA,sdf,NA,2,NA,NA,NA,NA,NA,NA,NA,NA,NA,NA,NA,NA,NA,NA,NA,NA,NA,NA,NA
b8c54,shallow,flow.Sequence,3_0_2_0_6_1,NA,NA,completion,11448.62,506475,506471.38,506487.54,517936.16,517944,2023-11-11T12:59:22Z,517952.74,NULL,Gefährdung,kuhatarisha,s,uchokozi,udhaifu,makorowezo,NA,sdf,NA,2,NA,NA,NA,NA,NA,NA,NA,NA,NA,NA,NA,NA,NA,NA,NA,NA,NA,NA,NA
b8c54,task,flow.Sequence,3_0_2_0_6,NA,NA,completion,11448.62,506474,506471.38,506487.54,517936.16,517945,2023-11-11T12:59:22Z,517952.74,NULL,Gefährdung,kuhatarisha,s,uchokozi,udhaifu,makorowezo,NA,sdf,NA,2,NA,NA,NA,NA,NA,NA,NA,NA,NA,NA,NA,NA,NA,NA,NA,NA,NA,NA,NA
b8c54,Deep Question,html.Page,3_0_2_0_7_0_0,NA,NA,form submission,5906.26,517945,517936.16,517952.74,523859,523859,2023-11-11T12:59:28Z,523868.56,NULL,Können,unaweza,d,NA,NA,NA,fjwoeifjeoweif,NA,NA,2,NA,NA,NA,NA,NA,NA,NA,NA,NA,NA,NA,NA,NA,NA,NA,NA,NA,NA,NA
b8c54,"""Richtig""-Screen",canvas.Screen,3_0_2_0_7_0_1,NA,NA,skipped,NA,523860,NA,NA,523859,523860,2023-11-11T12:59:28Z,523868.56,NULL,Können,unaweza,d,NA,NA,NA,NA,sdf,NA,2,NA,NA,NA,NA,NA,NA,NA,NA,NA,NA,NA,NA,NA,NA,NA,NA,NA,NA,NA
b8c54,"""Falsch""-Screen",canvas.Screen,3_0_2_0_7_0_2,NA,NA,timeout,4999.54,523860,523855.88,523868.56,528851.86,528853,2023-11-11T12:59:33Z,528868.1,NULL,Können,unaweza,d,NA,NA,NA,NA,sdf,0,2,NA,NA,NA,NA,NA,NA,NA,NA,NA,NA,NA,NA,NA,NA,NA,NA,NA,NA,NA
b8c54,deep,flow.Sequence,3_0_2_0_7_0,NA,NA,completion,10899.12,517945,517936.16,517952.74,528851.86,528853,2023-11-11T12:59:33Z,528868.1,NULL,Können,unaweza,d,NA,NA,NA,NA,sdf,NA,2,NA,NA,NA,NA,NA,NA,NA,NA,NA,NA,NA,NA,NA,NA,NA,NA,NA,NA,NA
b8c54,shallow,flow.Sequence,3_0_2_0_7_1,NA,NA,skipped,NA,528854,NA,NA,528851.86,528854,2023-11-11T12:59:33Z,528868.1,NULL,Können,unaweza,d,NA,NA,NA,NA,sdf,NA,2,NA,NA,NA,NA,NA,NA,NA,NA,NA,NA,NA,NA,NA,NA,NA,NA,NA,NA,NA
b8c54,task,flow.Sequence,3_0_2_0_7,NA,NA,completion,10899.12,517945,517936.16,517952.74,528851.86,528854,2023-11-11T12:59:33Z,528868.1,NULL,Können,unaweza,d,NA,NA,NA,NA,sdf,NA,2,NA,NA,NA,NA,NA,NA,NA,NA,NA,NA,NA,NA,NA,NA,NA,NA,NA,NA,NA
b8c54,block,flow.Loop,3_0_2_0,NA,NA,completion,93552.68,435299,435298.82,435299.18,528851.86,528855,2023-11-11T12:59:33Z,528868.1,NULL,NA,NA,NA,NA,NA,NA,NA,sdf,NA,2,NA,NA,NA,NA,NA,NA,NA,NA,NA,NA,NA,NA,NA,NA,NA,NA,NA,NA,NA
b8c54,weiter,canvas.Screen,3_0_2_1,sdf,keypress(Space),response,1384.9,528855,528851.86,528868.1,530253,530264,2023-11-11T12:59:35Z,530327.46,NULL,NA,NA,NA,NA,NA,NA,NA,sdf,NA,2,NA,NA,NA,NA,NA,NA,NA,NA,NA,NA,NA,NA,NA,NA,NA,NA,NA,NA,NA
b8c54,check continue,flow.Sequence,3_0_2,NA,NA,completion,94953.82,435299,435298.82,435299.18,530253,530266,2023-11-11T12:59:35Z,530327.46,NULL,NA,NA,NA,NA,NA,NA,NA,sdf,NA,2,NA,NA,NA,NA,NA,NA,NA,NA,NA,NA,NA,NA,NA,NA,NA,NA,NA,NA,NA
b8c54,Deep Question,html.Page,3_0_3_0_0_0_0,NA,NA,form submission,7029.54,530327,530327.1,530327.46,537357,537359,2023-11-11T12:59:42Z,537366.9,NULL,Gelegenheit,wakati,d,NA,NA,NA,kutengwa,NA,NA,3,NA,NA,NA,NA,NA,NA,NA,NA,NA,NA,NA,NA,NA,NA,NA,NA,NA,NA,NA
b8c54,"""Richtig""-Screen",canvas.Screen,3_0_3_0_0_0_1,NA,NA,skipped,NA,537367,NA,NA,537357,537367,2023-11-11T12:59:42Z,537366.9,NULL,Gelegenheit,wakati,d,NA,NA,NA,NA,qt,NA,3,NA,NA,NA,NA,NA,NA,NA,NA,NA,NA,NA,NA,NA,NA,NA,NA,NA,NA,NA
b8c54,"""Falsch""-Screen",canvas.Screen,3_0_3_0_0_0_2,NA,NA,timeout,4999.36,537370,537355.58,537366.9,542349.94,542351,2023-11-11T12:59:47Z,542366.26,NULL,Gelegenheit,wakati,d,NA,NA,NA,NA,qt,0,3,NA,NA,NA,NA,NA,NA,NA,NA,NA,NA,NA,NA,NA,NA,NA,NA,NA,NA,NA
b8c54,deep,flow.Sequence,3_0_3_0_0_0,NA,NA,completion,12022.48,530327,530327.1,530327.46,542349.94,542353,2023-11-11T12:59:47Z,542366.26,NULL,Gelegenheit,wakati,d,NA,NA,NA,NA,qt,NA,3,NA,NA,NA,NA,NA,NA,NA,NA,NA,NA,NA,NA,NA,NA,NA,NA,NA,NA,NA
b8c54,shallow,flow.Sequence,3_0_3_0_0_1,NA,NA,skipped,NA,542353,NA,NA,542349.94,542353,2023-11-11T12:59:47Z,542366.26,NULL,Gelegenheit,wakati,d,NA,NA,NA,NA,qt,NA,3,NA,NA,NA,NA,NA,NA,NA,NA,NA,NA,NA,NA,NA,NA,NA,NA,NA,NA,NA
b8c54,task,flow.Sequence,3_0_3_0_0,NA,NA,completion,12022.48,530327,530327.1,530327.46,542349.94,542354,2023-11-11T12:59:47Z,542366.26,NULL,Gelegenheit,wakati,d,NA,NA,NA,NA,qt,NA,3,NA,NA,NA,NA,NA,NA,NA,NA,NA,NA,NA,NA,NA,NA,NA,NA,NA,NA,NA
b8c54,Deep Question,html.Page,3_0_3_0_1_0_0,NA,NA,form submission,6557.74,542355,542349.94,542366.26,548924,548925,2023-11-11T12:59:53Z,548932,NULL,Ausschluss,kutengwa,d,NA,NA,NA,kutengwa,NA,NA,3,NA,NA,NA,NA,NA,NA,NA,NA,NA,NA,NA,NA,NA,NA,NA,NA,NA,NA,NA
b8c54,"""Richtig""-Screen",canvas.Screen,3_0_3_0_1_0_1,NA,NA,timeout,4999.36,548928,548918.82,548932,553914.82,553916,2023-11-11T12:59:58Z,553931.36,NULL,Ausschluss,kutengwa,d,NA,NA,NA,NA,qt,1,3,NA,NA,NA,NA,NA,NA,NA,NA,NA,NA,NA,NA,NA,NA,NA,NA,NA,NA,NA
b8c54,"""Falsch""-Screen",canvas.Screen,3_0_3_0_1_0_2,NA,NA,skipped,NA,553923,NA,NA,553914.82,553924,2023-11-11T12:59:58Z,553931.36,NULL,Ausschluss,kutengwa,d,NA,NA,NA,NA,qt,NA,3,NA,NA,NA,NA,NA,NA,NA,NA,NA,NA,NA,NA,NA,NA,NA,NA,NA,NA,NA
b8c54,deep,flow.Sequence,3_0_3_0_1_0,NA,NA,completion,11548.56,542355,542349.94,542366.26,553914.82,553925,2023-11-11T12:59:58Z,553931.36,NULL,Ausschluss,kutengwa,d,NA,NA,NA,NA,qt,NA,3,NA,NA,NA,NA,NA,NA,NA,NA,NA,NA,NA,NA,NA,NA,NA,NA,NA,NA,NA
b8c54,shallow,flow.Sequence,3_0_3_0_1_1,NA,NA,skipped,NA,553925,NA,NA,553914.82,553926,2023-11-11T12:59:58Z,553931.36,NULL,Ausschluss,kutengwa,d,NA,NA,NA,NA,qt,NA,3,NA,NA,NA,NA,NA,NA,NA,NA,NA,NA,NA,NA,NA,NA,NA,NA,NA,NA,NA
b8c54,task,flow.Sequence,3_0_3_0_1,NA,NA,completion,11548.56,542354,542349.94,542366.26,553914.82,553927,2023-11-11T12:59:58Z,553931.36,NULL,Ausschluss,kutengwa,d,NA,NA,NA,NA,qt,NA,3,NA,NA,NA,NA,NA,NA,NA,NA,NA,NA,NA,NA,NA,NA,NA,NA,NA,NA,NA
b8c54,deep,flow.Sequence,3_0_3_0_2_0,NA,NA,skipped,NA,553927,NA,NA,553914.82,553927,2023-11-11T12:59:58Z,553931.36,NULL,Verstand,ufahamivu,s,shakawa,hadhari,mhandisi,NA,qt,NA,3,NA,NA,NA,NA,NA,NA,NA,NA,NA,NA,NA,NA,NA,NA,NA,NA,NA,NA,NA
b8c54,Shallow Question,html.Page,3_0_3_0_2_1_0,NA,NA,form submission,10043.64,553927,553914.82,553931.36,563975,563976,2023-11-11T13:00:08Z,563980.14,NULL,Verstand,ufahamivu,s,shakawa,hadhari,mhandisi,ufahamivu,NA,NA,3,NA,NA,NA,NA,NA,NA,NA,NA,NA,NA,NA,NA,NA,NA,NA,NA,NA,NA,NA
b8c54,"""Richtig""-Screen",canvas.Screen,3_0_3_0_2_1_1,NA,NA,timeout,4999.34,563979,563973.84,563980.14,568962.88,568965,2023-11-11T13:00:13Z,568979.48,NULL,Verstand,ufahamivu,s,shakawa,hadhari,mhandisi,NA,qt,1,3,NA,NA,NA,NA,NA,NA,NA,NA,NA,NA,NA,NA,NA,NA,NA,NA,NA,NA,NA
b8c54,"""Falsch""-Screen",canvas.Screen,3_0_3_0_2_1_2,NA,NA,skipped,NA,568971,NA,NA,568962.88,568972,2023-11-11T13:00:13Z,568979.48,NULL,Verstand,ufahamivu,s,shakawa,hadhari,mhandisi,NA,qt,NA,3,NA,NA,NA,NA,NA,NA,NA,NA,NA,NA,NA,NA,NA,NA,NA,NA,NA,NA,NA
b8c54,shallow,flow.Sequence,3_0_3_0_2_1,NA,NA,completion,15031.52,553927,553914.82,553931.36,568962.88,568972,2023-11-11T13:00:13Z,568979.48,NULL,Verstand,ufahamivu,s,shakawa,hadhari,mhandisi,NA,qt,NA,3,NA,NA,NA,NA,NA,NA,NA,NA,NA,NA,NA,NA,NA,NA,NA,NA,NA,NA,NA
b8c54,task,flow.Sequence,3_0_3_0_2,NA,NA,completion,15031.52,553927,553914.82,553931.36,568962.88,568973,2023-11-11T13:00:13Z,568979.48,NULL,Verstand,ufahamivu,s,shakawa,hadhari,mhandisi,NA,qt,NA,3,NA,NA,NA,NA,NA,NA,NA,NA,NA,NA,NA,NA,NA,NA,NA,NA,NA,NA,NA
b8c54,Deep Question,html.Page,3_0_3_0_3_0_0,NA,NA,form submission,6660.52,568973,568962.88,568979.48,575640,575640,2023-11-11T13:00:20Z,575645.3,NULL,Können,unaweza,d,NA,NA,NA,sjofijwef,NA,NA,3,NA,NA,NA,NA,NA,NA,NA,NA,NA,NA,NA,NA,NA,NA,NA,NA,NA,NA,NA
b8c54,"""Richtig""-Screen",canvas.Screen,3_0_3_0_3_0_1,NA,NA,skipped,NA,575643,NA,NA,575640,575643,2023-11-11T13:00:20Z,575645.3,NULL,Können,unaweza,d,NA,NA,NA,NA,qt,NA,3,NA,NA,NA,NA,NA,NA,NA,NA,NA,NA,NA,NA,NA,NA,NA,NA,NA,NA,NA
b8c54,"""Falsch""-Screen",canvas.Screen,3_0_3_0_3_0_2,NA,NA,timeout,4999.2999999999,575646,575638.78,575645.3,580628.38,580630,2023-11-11T13:00:25Z,580644.6,NULL,Können,unaweza,d,NA,NA,NA,NA,qt,0,3,NA,NA,NA,NA,NA,NA,NA,NA,NA,NA,NA,NA,NA,NA,NA,NA,NA,NA,NA
b8c54,deep,flow.Sequence,3_0_3_0_3_0,NA,NA,completion,11648.9,568973,568962.88,568979.48,580628.38,580631,2023-11-11T13:00:25Z,580644.6,NULL,Können,unaweza,d,NA,NA,NA,NA,qt,NA,3,NA,NA,NA,NA,NA,NA,NA,NA,NA,NA,NA,NA,NA,NA,NA,NA,NA,NA,NA
b8c54,shallow,flow.Sequence,3_0_3_0_3_1,NA,NA,skipped,NA,580631,NA,NA,580628.38,580631,2023-11-11T13:00:25Z,580644.6,NULL,Können,unaweza,d,NA,NA,NA,NA,qt,NA,3,NA,NA,NA,NA,NA,NA,NA,NA,NA,NA,NA,NA,NA,NA,NA,NA,NA,NA,NA
b8c54,task,flow.Sequence,3_0_3_0_3,NA,NA,completion,11648.9,568973,568962.88,568979.48,580628.38,580631,2023-11-11T13:00:25Z,580644.6,NULL,Können,unaweza,d,NA,NA,NA,NA,qt,NA,3,NA,NA,NA,NA,NA,NA,NA,NA,NA,NA,NA,NA,NA,NA,NA,NA,NA,NA,NA
b8c54,Deep Question,html.Page,3_0_3_0_4_0_0,NA,NA,form submission,5039.4,580631,580628.38,580644.6,585684,585684,2023-11-11T13:00:30Z,585693.9,NULL,Kreativität,ubunifu,d,NA,NA,NA,fjwoeifjeifw,NA,NA,3,NA,NA,NA,NA,NA,NA,NA,NA,NA,NA,NA,NA,NA,NA,NA,NA,NA,NA,NA
b8c54,"""Richtig""-Screen",canvas.Screen,3_0_3_0_4_0_1,NA,NA,skipped,NA,585687,NA,NA,585684,585687,2023-11-11T13:00:30Z,585693.9,NULL,Kreativität,ubunifu,d,NA,NA,NA,NA,qt,NA,3,NA,NA,NA,NA,NA,NA,NA,NA,NA,NA,NA,NA,NA,NA,NA,NA,NA,NA,NA
b8c54,"""Falsch""-Screen",canvas.Screen,3_0_3_0_4_0_2,NA,NA,timeout,4999.38,585690,585682.12,585693.9,590677.14,590682,2023-11-11T13:00:35Z,590693.28,NULL,Kreativität,ubunifu,d,NA,NA,NA,NA,qt,0,3,NA,NA,NA,NA,NA,NA,NA,NA,NA,NA,NA,NA,NA,NA,NA,NA,NA,NA,NA
b8c54,deep,flow.Sequence,3_0_3_0_4_0,NA,NA,completion,10032.54,580631,580628.38,580644.6,590677.14,590684,2023-11-11T13:00:35Z,590693.28,NULL,Kreativität,ubunifu,d,NA,NA,NA,NA,qt,NA,3,NA,NA,NA,NA,NA,NA,NA,NA,NA,NA,NA,NA,NA,NA,NA,NA,NA,NA,NA
b8c54,shallow,flow.Sequence,3_0_3_0_4_1,NA,NA,skipped,NA,590685,NA,NA,590677.14,590685,2023-11-11T13:00:35Z,590693.28,NULL,Kreativität,ubunifu,d,NA,NA,NA,NA,qt,NA,3,NA,NA,NA,NA,NA,NA,NA,NA,NA,NA,NA,NA,NA,NA,NA,NA,NA,NA,NA
b8c54,task,flow.Sequence,3_0_3_0_4,NA,NA,completion,10032.54,580631,580628.38,580644.6,590677.14,590687,2023-11-11T13:00:35Z,590693.28,NULL,Kreativität,ubunifu,d,NA,NA,NA,NA,qt,NA,3,NA,NA,NA,NA,NA,NA,NA,NA,NA,NA,NA,NA,NA,NA,NA,NA,NA,NA,NA
b8c54,deep,flow.Sequence,3_0_3_0_5_0,NA,NA,skipped,NA,590687,NA,NA,590677.14,590688,2023-11-11T13:00:35Z,590693.28,NULL,Widerstand,usulubu,s,kusababisha,mwalimu,mwenendo,NA,qt,NA,3,NA,NA,NA,NA,NA,NA,NA,NA,NA,NA,NA,NA,NA,NA,NA,NA,NA,NA,NA
b8c54,Shallow Question,html.Page,3_0_3_0_5_1_0,NA,NA,form submission,6758.72,590688,590677.14,590693.28,597452,597456,2023-11-11T13:00:42Z,597459.02,NULL,Widerstand,usulubu,s,kusababisha,mwalimu,mwenendo,usulubu,NA,NA,3,NA,NA,NA,NA,NA,NA,NA,NA,NA,NA,NA,NA,NA,NA,NA,NA,NA,NA,NA
b8c54,"""Richtig""-Screen",canvas.Screen,3_0_3_0_5_1_1,NA,NA,timeout,4999.54,597463,597446.28,597459.02,602442.28,602444,2023-11-11T13:00:47Z,602458.56,NULL,Widerstand,usulubu,s,kusababisha,mwalimu,mwenendo,NA,qt,1,3,NA,NA,NA,NA,NA,NA,NA,NA,NA,NA,NA,NA,NA,NA,NA,NA,NA,NA,NA
b8c54,"""Falsch""-Screen",canvas.Screen,3_0_3_0_5_1_2,NA,NA,skipped,NA,602452,NA,NA,602442.28,602452,2023-11-11T13:00:47Z,602458.56,NULL,Widerstand,usulubu,s,kusababisha,mwalimu,mwenendo,NA,qt,NA,3,NA,NA,NA,NA,NA,NA,NA,NA,NA,NA,NA,NA,NA,NA,NA,NA,NA,NA,NA
b8c54,shallow,flow.Sequence,3_0_3_0_5_1,NA,NA,completion,11749,590688,590677.14,590693.28,602442.28,602453,2023-11-11T13:00:47Z,602458.56,NULL,Widerstand,usulubu,s,kusababisha,mwalimu,mwenendo,NA,qt,NA,3,NA,NA,NA,NA,NA,NA,NA,NA,NA,NA,NA,NA,NA,NA,NA,NA,NA,NA,NA
b8c54,task,flow.Sequence,3_0_3_0_5,NA,NA,completion,11749,590687,590677.14,590693.28,602442.28,602454,2023-11-11T13:00:47Z,602458.56,NULL,Widerstand,usulubu,s,kusababisha,mwalimu,mwenendo,NA,qt,NA,3,NA,NA,NA,NA,NA,NA,NA,NA,NA,NA,NA,NA,NA,NA,NA,NA,NA,NA,NA
b8c54,deep,flow.Sequence,3_0_3_0_6_0,NA,NA,skipped,NA,602455,NA,NA,602442.28,602456,2023-11-11T13:00:47Z,602458.56,NULL,Gefährdung,kuhatarisha,s,uchokozi,udhaifu,makorowezo,NA,qt,NA,3,NA,NA,NA,NA,NA,NA,NA,NA,NA,NA,NA,NA,NA,NA,NA,NA,NA,NA,NA
b8c54,Shallow Question,html.Page,3_0_3_0_6_1_0,NA,NA,form submission,7241.4399999999,602456,602442.28,602458.56,609700,609700,2023-11-11T13:00:54Z,609708.74,NULL,Gefährdung,kuhatarisha,s,uchokozi,udhaifu,makorowezo,kuhatarisha,NA,NA,3,NA,NA,NA,NA,NA,NA,NA,NA,NA,NA,NA,NA,NA,NA,NA,NA,NA,NA,NA
b8c54,"""Richtig""-Screen",canvas.Screen,3_0_3_0_6_1_1,NA,NA,timeout,4998.22,609702,609690.66,609708.74,614690.66,614692,2023-11-11T13:00:59Z,614706.96,NULL,Gefährdung,kuhatarisha,s,uchokozi,udhaifu,makorowezo,NA,qt,1,3,NA,NA,NA,NA,NA,NA,NA,NA,NA,NA,NA,NA,NA,NA,NA,NA,NA,NA,NA
b8c54,"""Falsch""-Screen",canvas.Screen,3_0_3_0_6_1_2,NA,NA,skipped,NA,614700,NA,NA,614690.66,614700,2023-11-11T13:00:59Z,614706.96,NULL,Gefährdung,kuhatarisha,s,uchokozi,udhaifu,makorowezo,NA,qt,NA,3,NA,NA,NA,NA,NA,NA,NA,NA,NA,NA,NA,NA,NA,NA,NA,NA,NA,NA,NA
b8c54,shallow,flow.Sequence,3_0_3_0_6_1,NA,NA,completion,12232.1,602456,602442.28,602458.56,614690.66,614701,2023-11-11T13:00:59Z,614706.96,NULL,Gefährdung,kuhatarisha,s,uchokozi,udhaifu,makorowezo,NA,qt,NA,3,NA,NA,NA,NA,NA,NA,NA,NA,NA,NA,NA,NA,NA,NA,NA,NA,NA,NA,NA
b8c54,task,flow.Sequence,3_0_3_0_6,NA,NA,completion,12232.1,602454,602442.28,602458.56,614690.66,614701,2023-11-11T13:00:59Z,614706.96,NULL,Gefährdung,kuhatarisha,s,uchokozi,udhaifu,makorowezo,NA,qt,NA,3,NA,NA,NA,NA,NA,NA,NA,NA,NA,NA,NA,NA,NA,NA,NA,NA,NA,NA,NA
b8c54,deep,flow.Sequence,3_0_3_0_7_0,NA,NA,skipped,NA,614702,NA,NA,614690.66,614702,2023-11-11T13:00:59Z,614706.96,NULL,Kontrolle,kudhibiti,s,mbinguni,kufunga,utegemezi,NA,qt,NA,3,NA,NA,NA,NA,NA,NA,NA,NA,NA,NA,NA,NA,NA,NA,NA,NA,NA,NA,NA
b8c54,Shallow Question,html.Page,3_0_3_0_7_1_0,NA,NA,form submission,13166.04,614703,614690.66,614706.96,627873,627874,2023-11-11T13:01:12Z,627871.76,NULL,Kontrolle,kudhibiti,s,mbinguni,kufunga,utegemezi,kudhibiti,NA,NA,3,NA,NA,NA,NA,NA,NA,NA,NA,NA,NA,NA,NA,NA,NA,NA,NA,NA,NA,NA
b8c54,"""Richtig""-Screen",canvas.Screen,3_0_3_0_7_1_1,NA,NA,timeout,4999.48,627876,627861.44,627871.76,632854.58,632856,2023-11-11T13:01:17Z,632871.24,NULL,Kontrolle,kudhibiti,s,mbinguni,kufunga,utegemezi,NA,qt,1,3,NA,NA,NA,NA,NA,NA,NA,NA,NA,NA,NA,NA,NA,NA,NA,NA,NA,NA,NA
b8c54,"""Falsch""-Screen",canvas.Screen,3_0_3_0_7_1_2,NA,NA,skipped,NA,632863,NA,NA,632854.58,632864,2023-11-11T13:01:17Z,632871.24,NULL,Kontrolle,kudhibiti,s,mbinguni,kufunga,utegemezi,NA,qt,NA,3,NA,NA,NA,NA,NA,NA,NA,NA,NA,NA,NA,NA,NA,NA,NA,NA,NA,NA,NA
b8c54,shallow,flow.Sequence,3_0_3_0_7_1,NA,NA,completion,18147.62,614703,614690.66,614706.96,632854.58,632864,2023-11-11T13:01:17Z,632871.24,NULL,Kontrolle,kudhibiti,s,mbinguni,kufunga,utegemezi,NA,qt,NA,3,NA,NA,NA,NA,NA,NA,NA,NA,NA,NA,NA,NA,NA,NA,NA,NA,NA,NA,NA
b8c54,task,flow.Sequence,3_0_3_0_7,NA,NA,completion,18147.62,614701,614690.66,614706.96,632854.58,632865,2023-11-11T13:01:17Z,632871.24,NULL,Kontrolle,kudhibiti,s,mbinguni,kufunga,utegemezi,NA,qt,NA,3,NA,NA,NA,NA,NA,NA,NA,NA,NA,NA,NA,NA,NA,NA,NA,NA,NA,NA,NA
b8c54,block,flow.Loop,3_0_3_0,NA,NA,completion,102527.12,530327,530327.1,530327.46,632854.58,632865,2023-11-11T13:01:17Z,632871.24,NULL,NA,NA,NA,NA,NA,NA,NA,qt,NA,3,NA,NA,NA,NA,NA,NA,NA,NA,NA,NA,NA,NA,NA,NA,NA,NA,NA,NA,NA
b8c54,weiter,canvas.Screen,3_0_3_1,sdf,keypress(Space),response,1381.76,632865,632854.58,632871.24,634253,634263,2023-11-11T13:01:19Z,634334.2,NULL,NA,NA,NA,NA,NA,NA,NA,qt,NA,3,NA,NA,NA,NA,NA,NA,NA,NA,NA,NA,NA,NA,NA,NA,NA,NA,NA,NA,NA
b8c54,check continue,flow.Sequence,3_0_3,NA,NA,completion,103925.54,530327,530327.1,530327.46,634253,634264,2023-11-11T13:01:19Z,634334.2,NULL,NA,NA,NA,NA,NA,NA,NA,qt,NA,3,NA,NA,NA,NA,NA,NA,NA,NA,NA,NA,NA,NA,NA,NA,NA,NA,NA,NA,NA
b8c54,deep,flow.Sequence,3_0_4_0_0_0,NA,NA,skipped,NA,634334,NA,NA,634253,634334,2023-11-11T13:01:19Z,634334.2,NULL,Gefährdung,kuhatarisha,s,uchokozi,udhaifu,makorowezo,NA,sd,NA,4,NA,NA,NA,NA,NA,NA,NA,NA,NA,NA,NA,NA,NA,NA,NA,NA,NA,NA,NA
b8c54,Shallow Question,html.Page,3_0_4_0_0_1_0,NA,NA,form submission,4867.8,634334,634333.88,634334.2,639202,639203,2023-11-11T13:01:23Z,639203.68,NULL,Gefährdung,kuhatarisha,s,uchokozi,udhaifu,makorowezo,kuhatarisha,NA,NA,4,NA,NA,NA,NA,NA,NA,NA,NA,NA,NA,NA,NA,NA,NA,NA,NA,NA,NA,NA
b8c54,"""Richtig""-Screen",canvas.Screen,3_0_4_0_0_1_1,NA,NA,timeout,4999.5,639205,639201.52,639203.68,644186.44,644188,2023-11-11T13:01:28Z,644203.18,NULL,Gefährdung,kuhatarisha,s,uchokozi,udhaifu,makorowezo,NA,sd,1,4,NA,NA,NA,NA,NA,NA,NA,NA,NA,NA,NA,NA,NA,NA,NA,NA,NA,NA,NA
b8c54,"""Falsch""-Screen",canvas.Screen,3_0_4_0_0_1_2,NA,NA,skipped,NA,644193,NA,NA,644186.44,644194,2023-11-11T13:01:28Z,644203.18,NULL,Gefährdung,kuhatarisha,s,uchokozi,udhaifu,makorowezo,NA,sd,NA,4,NA,NA,NA,NA,NA,NA,NA,NA,NA,NA,NA,NA,NA,NA,NA,NA,NA,NA,NA
b8c54,shallow,flow.Sequence,3_0_4_0_0_1,NA,NA,completion,9852.24,634334,634333.88,634334.2,644186.44,644194,2023-11-11T13:01:28Z,644203.18,NULL,Gefährdung,kuhatarisha,s,uchokozi,udhaifu,makorowezo,NA,sd,NA,4,NA,NA,NA,NA,NA,NA,NA,NA,NA,NA,NA,NA,NA,NA,NA,NA,NA,NA,NA
b8c54,task,flow.Sequence,3_0_4_0_0,NA,NA,completion,9852.24,634334,634333.88,634334.2,644186.44,644195,2023-11-11T13:01:28Z,644203.18,NULL,Gefährdung,kuhatarisha,s,uchokozi,udhaifu,makorowezo,NA,sd,NA,4,NA,NA,NA,NA,NA,NA,NA,NA,NA,NA,NA,NA,NA,NA,NA,NA,NA,NA,NA
b8c54,Deep Question,html.Page,3_0_4_0_1_0_0,NA,NA,form submission,9706.8199999999,644195,644186.44,644203.18,653910,653911,2023-11-11T13:01:38Z,653918.48,NULL,Gelegenheit,wakati,d,NA,NA,NA,kufunga,NA,NA,4,NA,NA,NA,NA,NA,NA,NA,NA,NA,NA,NA,NA,NA,NA,NA,NA,NA,NA,NA
b8c54,"""Richtig""-Screen",canvas.Screen,3_0_4_0_1_0_1,NA,NA,skipped,NA,653913,NA,NA,653910,653913,2023-11-11T13:01:38Z,653918.48,NULL,Gelegenheit,wakati,d,NA,NA,NA,NA,sd,NA,4,NA,NA,NA,NA,NA,NA,NA,NA,NA,NA,NA,NA,NA,NA,NA,NA,NA,NA,NA
b8c54,"""Falsch""-Screen",canvas.Screen,3_0_4_0_1_0_2,NA,NA,timeout,4999.3200000001,653916,653909.42,653918.48,658901.64,658907,2023-11-11T13:01:43Z,658917.8,NULL,Gelegenheit,wakati,d,NA,NA,NA,NA,sd,0,4,NA,NA,NA,NA,NA,NA,NA,NA,NA,NA,NA,NA,NA,NA,NA,NA,NA,NA,NA
b8c54,deep,flow.Sequence,3_0_4_0_1_0,NA,NA,completion,14698.46,644195,644186.44,644203.18,658901.64,658909,2023-11-11T13:01:43Z,658917.8,NULL,Gelegenheit,wakati,d,NA,NA,NA,NA,sd,NA,4,NA,NA,NA,NA,NA,NA,NA,NA,NA,NA,NA,NA,NA,NA,NA,NA,NA,NA,NA
b8c54,shallow,flow.Sequence,3_0_4_0_1_1,NA,NA,skipped,NA,658910,NA,NA,658901.64,658911,2023-11-11T13:01:43Z,658917.8,NULL,Gelegenheit,wakati,d,NA,NA,NA,NA,sd,NA,4,NA,NA,NA,NA,NA,NA,NA,NA,NA,NA,NA,NA,NA,NA,NA,NA,NA,NA,NA
b8c54,task,flow.Sequence,3_0_4_0_1,NA,NA,completion,14698.46,644195,644186.44,644203.18,658901.64,658911,2023-11-11T13:01:43Z,658917.8,NULL,Gelegenheit,wakati,d,NA,NA,NA,NA,sd,NA,4,NA,NA,NA,NA,NA,NA,NA,NA,NA,NA,NA,NA,NA,NA,NA,NA,NA,NA,NA
b8c54,Deep Question,html.Page,3_0_4_0_2_0_0,NA,NA,form submission,9703.2,658912,658901.64,658917.8,668621,668621,2023-11-11T13:01:53Z,668633.16,NULL,Ausschluss,kutengwa,d,NA,NA,NA,kufungwa,NA,NA,4,NA,NA,NA,NA,NA,NA,NA,NA,NA,NA,NA,NA,NA,NA,NA,NA,NA,NA,NA
b8c54,"""Richtig""-Screen",canvas.Screen,3_0_4_0_2_0_1,NA,NA,skipped,NA,668629,NA,NA,668621,668629,2023-11-11T13:01:53Z,668633.16,NULL,Ausschluss,kutengwa,d,NA,NA,NA,NA,sd,NA,4,NA,NA,NA,NA,NA,NA,NA,NA,NA,NA,NA,NA,NA,NA,NA,NA,NA,NA,NA
b8c54,"""Falsch""-Screen",canvas.Screen,3_0_4_0_2_0_2,NA,NA,timeout,4999.38,668633,668619.38,668633.16,673616,673617,2023-11-11T13:01:58Z,673632.54,NULL,Ausschluss,kutengwa,d,NA,NA,NA,NA,sd,0,4,NA,NA,NA,NA,NA,NA,NA,NA,NA,NA,NA,NA,NA,NA,NA,NA,NA,NA,NA
b8c54,deep,flow.Sequence,3_0_4_0_2_0,NA,NA,completion,14698.2,658912,658901.64,658917.8,673616,673618,2023-11-11T13:01:58Z,673632.54,NULL,Ausschluss,kutengwa,d,NA,NA,NA,NA,sd,NA,4,NA,NA,NA,NA,NA,NA,NA,NA,NA,NA,NA,NA,NA,NA,NA,NA,NA,NA,NA
b8c54,shallow,flow.Sequence,3_0_4_0_2_1,NA,NA,skipped,NA,673619,NA,NA,673616,673619,2023-11-11T13:01:58Z,673632.54,NULL,Ausschluss,kutengwa,d,NA,NA,NA,NA,sd,NA,4,NA,NA,NA,NA,NA,NA,NA,NA,NA,NA,NA,NA,NA,NA,NA,NA,NA,NA,NA
b8c54,task,flow.Sequence,3_0_4_0_2,NA,NA,completion,14698.2,658912,658901.64,658917.8,673616,673620,2023-11-11T13:01:58Z,673632.54,NULL,Ausschluss,kutengwa,d,NA,NA,NA,NA,sd,NA,4,NA,NA,NA,NA,NA,NA,NA,NA,NA,NA,NA,NA,NA,NA,NA,NA,NA,NA,NA
b8c54,Deep Question,html.Page,3_0_4_0_3_0_0,NA,NA,form submission,5687.46,673620,673616,673632.54,679320,679321,2023-11-11T13:02:04Z,679331.82,NULL,Kreativität,ubunifu,d,NA,NA,NA,fjwoeijwewf,NA,NA,4,NA,NA,NA,NA,NA,NA,NA,NA,NA,NA,NA,NA,NA,NA,NA,NA,NA,NA,NA
b8c54,"""Richtig""-Screen",canvas.Screen,3_0_4_0_3_0_1,NA,NA,skipped,NA,679324,NA,NA,679320,679325,2023-11-11T13:02:04Z,679331.82,NULL,Kreativität,ubunifu,d,NA,NA,NA,NA,sd,NA,4,NA,NA,NA,NA,NA,NA,NA,NA,NA,NA,NA,NA,NA,NA,NA,NA,NA,NA,NA
b8c54,"""Falsch""-Screen",canvas.Screen,3_0_4_0_3_0_2,NA,NA,timeout,4999.3600000001,679328,679319.08,679331.82,684314.6,684316,2023-11-11T13:02:09Z,684331.18,NULL,Kreativität,ubunifu,d,NA,NA,NA,NA,sd,0,4,NA,NA,NA,NA,NA,NA,NA,NA,NA,NA,NA,NA,NA,NA,NA,NA,NA,NA,NA
b8c54,deep,flow.Sequence,3_0_4_0_3_0,NA,NA,completion,10682.06,673620,673616,673632.54,684314.6,684317,2023-11-11T13:02:09Z,684331.18,NULL,Kreativität,ubunifu,d,NA,NA,NA,NA,sd,NA,4,NA,NA,NA,NA,NA,NA,NA,NA,NA,NA,NA,NA,NA,NA,NA,NA,NA,NA,NA
b8c54,shallow,flow.Sequence,3_0_4_0_3_1,NA,NA,skipped,NA,684317,NA,NA,684314.6,684317,2023-11-11T13:02:09Z,684331.18,NULL,Kreativität,ubunifu,d,NA,NA,NA,NA,sd,NA,4,NA,NA,NA,NA,NA,NA,NA,NA,NA,NA,NA,NA,NA,NA,NA,NA,NA,NA,NA
b8c54,task,flow.Sequence,3_0_4_0_3,NA,NA,completion,10682.06,673620,673616,673632.54,684314.6,684317,2023-11-11T13:02:09Z,684331.18,NULL,Kreativität,ubunifu,d,NA,NA,NA,NA,sd,NA,4,NA,NA,NA,NA,NA,NA,NA,NA,NA,NA,NA,NA,NA,NA,NA,NA,NA,NA,NA
b8c54,Deep Question,html.Page,3_0_4_0_4_0_0,NA,NA,form submission,4411.8199999999,684318,684314.6,684331.18,688743,688743,2023-11-11T13:02:13Z,688747.22,NULL,Können,unaweza,d,NA,NA,NA,sjfoiefje,NA,NA,4,NA,NA,NA,NA,NA,NA,NA,NA,NA,NA,NA,NA,NA,NA,NA,NA,NA,NA,NA
b8c54,"""Richtig""-Screen",canvas.Screen,3_0_4_0_4_0_1,NA,NA,skipped,NA,688746,NA,NA,688743,688746,2023-11-11T13:02:13Z,688747.22,NULL,Können,unaweza,d,NA,NA,NA,NA,sd,NA,4,NA,NA,NA,NA,NA,NA,NA,NA,NA,NA,NA,NA,NA,NA,NA,NA,NA,NA,NA
b8c54,"""Falsch""-Screen",canvas.Screen,3_0_4_0_4_0_2,NA,NA,timeout,4999.38,688750,688741.6,688747.22,693730.34,693731,2023-11-11T13:02:18Z,693746.6,NULL,Können,unaweza,d,NA,NA,NA,NA,sd,0,4,NA,NA,NA,NA,NA,NA,NA,NA,NA,NA,NA,NA,NA,NA,NA,NA,NA,NA,NA
b8c54,deep,flow.Sequence,3_0_4_0_4_0,NA,NA,completion,9399.1599999999,684318,684314.6,684331.18,693730.34,693733,2023-11-11T13:02:18Z,693746.6,NULL,Können,unaweza,d,NA,NA,NA,NA,sd,NA,4,NA,NA,NA,NA,NA,NA,NA,NA,NA,NA,NA,NA,NA,NA,NA,NA,NA,NA,NA
b8c54,shallow,flow.Sequence,3_0_4_0_4_1,NA,NA,skipped,NA,693733,NA,NA,693730.34,693734,2023-11-11T13:02:18Z,693746.6,NULL,Können,unaweza,d,NA,NA,NA,NA,sd,NA,4,NA,NA,NA,NA,NA,NA,NA,NA,NA,NA,NA,NA,NA,NA,NA,NA,NA,NA,NA
b8c54,task,flow.Sequence,3_0_4_0_4,NA,NA,completion,9399.1599999999,684318,684314.6,684331.18,693730.34,693734,2023-11-11T13:02:18Z,693746.6,NULL,Können,unaweza,d,NA,NA,NA,NA,sd,NA,4,NA,NA,NA,NA,NA,NA,NA,NA,NA,NA,NA,NA,NA,NA,NA,NA,NA,NA,NA
b8c54,deep,flow.Sequence,3_0_4_0_5_0,NA,NA,skipped,NA,693735,NA,NA,693730.34,693735,2023-11-11T13:02:18Z,693746.6,NULL,Verstand,ufahamivu,s,shakawa,hadhari,mhandisi,NA,sd,NA,4,NA,NA,NA,NA,NA,NA,NA,NA,NA,NA,NA,NA,NA,NA,NA,NA,NA,NA,NA
b8c54,Shallow Question,html.Page,3_0_4_0_5_1_0,NA,NA,form submission,5619.4,693736,693730.34,693746.6,699366,699366,2023-11-11T13:02:24Z,699379.2,NULL,Verstand,ufahamivu,s,shakawa,hadhari,mhandisi,shakawa,NA,NA,4,NA,NA,NA,NA,NA,NA,NA,NA,NA,NA,NA,NA,NA,NA,NA,NA,NA,NA,NA
b8c54,"""Richtig""-Screen",canvas.Screen,3_0_4_0_5_1_1,NA,NA,skipped,NA,699368,NA,NA,699366,699368,2023-11-11T13:02:24Z,699379.2,NULL,Verstand,ufahamivu,s,shakawa,hadhari,mhandisi,NA,sd,NA,4,NA,NA,NA,NA,NA,NA,NA,NA,NA,NA,NA,NA,NA,NA,NA,NA,NA,NA,NA
b8c54,"""Falsch""-Screen",canvas.Screen,3_0_4_0_5_1_2,NA,NA,timeout,4999.4800000001,699369,699364.68,699379.2,704362,704363,2023-11-11T13:02:29Z,704378.68,NULL,Verstand,ufahamivu,s,shakawa,hadhari,mhandisi,NA,sd,0,4,NA,NA,NA,NA,NA,NA,NA,NA,NA,NA,NA,NA,NA,NA,NA,NA,NA,NA,NA
b8c54,shallow,flow.Sequence,3_0_4_0_5_1,NA,NA,completion,10615.4,693736,693730.34,693746.6,704362,704364,2023-11-11T13:02:29Z,704378.68,NULL,Verstand,ufahamivu,s,shakawa,hadhari,mhandisi,NA,sd,NA,4,NA,NA,NA,NA,NA,NA,NA,NA,NA,NA,NA,NA,NA,NA,NA,NA,NA,NA,NA
b8c54,task,flow.Sequence,3_0_4_0_5,NA,NA,completion,10615.4,693735,693730.34,693746.6,704362,704364,2023-11-11T13:02:29Z,704378.68,NULL,Verstand,ufahamivu,s,shakawa,hadhari,mhandisi,NA,sd,NA,4,NA,NA,NA,NA,NA,NA,NA,NA,NA,NA,NA,NA,NA,NA,NA,NA,NA,NA,NA
b8c54,deep,flow.Sequence,3_0_4_0_6_0,NA,NA,skipped,NA,704364,NA,NA,704362,704365,2023-11-11T13:02:29Z,704378.68,NULL,Widerstand,usulubu,s,kusababisha,mwalimu,mwenendo,NA,sd,NA,4,NA,NA,NA,NA,NA,NA,NA,NA,NA,NA,NA,NA,NA,NA,NA,NA,NA,NA,NA
b8c54,Shallow Question,html.Page,3_0_4_0_6_1_0,NA,NA,form submission,7108.3199999999,704366,704362,704378.68,711487,711488,2023-11-11T13:02:36Z,711494.28,NULL,Widerstand,usulubu,s,kusababisha,mwalimu,mwenendo,usulubu,NA,NA,4,NA,NA,NA,NA,NA,NA,NA,NA,NA,NA,NA,NA,NA,NA,NA,NA,NA,NA,NA
b8c54,"""Richtig""-Screen",canvas.Screen,3_0_4_0_6_1_1,NA,NA,timeout,4996,711491,711486.54,711494.28,716477.54,716478,2023-11-11T13:02:41Z,716490.28,NULL,Widerstand,usulubu,s,kusababisha,mwalimu,mwenendo,NA,sd,1,4,NA,NA,NA,NA,NA,NA,NA,NA,NA,NA,NA,NA,NA,NA,NA,NA,NA,NA,NA
b8c54,"""Falsch""-Screen",canvas.Screen,3_0_4_0_6_1_2,NA,NA,skipped,NA,716480,NA,NA,716477.54,716480,2023-11-11T13:02:41Z,716490.28,NULL,Widerstand,usulubu,s,kusababisha,mwalimu,mwenendo,NA,sd,NA,4,NA,NA,NA,NA,NA,NA,NA,NA,NA,NA,NA,NA,NA,NA,NA,NA,NA,NA,NA
b8c54,shallow,flow.Sequence,3_0_4_0_6_1,NA,NA,completion,12098.86,704365,704362,704378.68,716477.54,716480,2023-11-11T13:02:41Z,716490.28,NULL,Widerstand,usulubu,s,kusababisha,mwalimu,mwenendo,NA,sd,NA,4,NA,NA,NA,NA,NA,NA,NA,NA,NA,NA,NA,NA,NA,NA,NA,NA,NA,NA,NA
b8c54,task,flow.Sequence,3_0_4_0_6,NA,NA,completion,12098.86,704364,704362,704378.68,716477.54,716480,2023-11-11T13:02:41Z,716490.28,NULL,Widerstand,usulubu,s,kusababisha,mwalimu,mwenendo,NA,sd,NA,4,NA,NA,NA,NA,NA,NA,NA,NA,NA,NA,NA,NA,NA,NA,NA,NA,NA,NA,NA
b8c54,deep,flow.Sequence,3_0_4_0_7_0,NA,NA,skipped,NA,716480,NA,NA,716477.54,716480,2023-11-11T13:02:41Z,716490.28,NULL,Kontrolle,kudhibiti,s,mbinguni,kufunga,utegemezi,NA,sd,NA,4,NA,NA,NA,NA,NA,NA,NA,NA,NA,NA,NA,NA,NA,NA,NA,NA,NA,NA,NA
b8c54,Shallow Question,html.Page,3_0_4_0_7_1_0,NA,NA,form submission,13060.72,716480,716477.54,716490.28,729551,729552,2023-11-11T13:02:54Z,729558.6,NULL,Kontrolle,kudhibiti,s,mbinguni,kufunga,utegemezi,kudhibiti,NA,NA,4,NA,NA,NA,NA,NA,NA,NA,NA,NA,NA,NA,NA,NA,NA,NA,NA,NA,NA,NA
b8c54,"""Richtig""-Screen",canvas.Screen,3_0_4_0_7_1_1,NA,NA,timeout,4999.36,729558,729549.32,729558.6,734541.9,734544,2023-11-11T13:02:59Z,734557.96,NULL,Kontrolle,kudhibiti,s,mbinguni,kufunga,utegemezi,NA,sd,1,4,NA,NA,NA,NA,NA,NA,NA,NA,NA,NA,NA,NA,NA,NA,NA,NA,NA,NA,NA
b8c54,"""Falsch""-Screen",canvas.Screen,3_0_4_0_7_1_2,NA,NA,skipped,NA,734550,NA,NA,734541.9,734550,2023-11-11T13:02:59Z,734557.96,NULL,Kontrolle,kudhibiti,s,mbinguni,kufunga,utegemezi,NA,sd,NA,4,NA,NA,NA,NA,NA,NA,NA,NA,NA,NA,NA,NA,NA,NA,NA,NA,NA,NA,NA
b8c54,shallow,flow.Sequence,3_0_4_0_7_1,NA,NA,completion,18051.62,716480,716477.54,716490.28,734541.9,734551,2023-11-11T13:02:59Z,734557.96,NULL,Kontrolle,kudhibiti,s,mbinguni,kufunga,utegemezi,NA,sd,NA,4,NA,NA,NA,NA,NA,NA,NA,NA,NA,NA,NA,NA,NA,NA,NA,NA,NA,NA,NA
b8c54,task,flow.Sequence,3_0_4_0_7,NA,NA,completion,18051.62,716480,716477.54,716490.28,734541.9,734552,2023-11-11T13:02:59Z,734557.96,NULL,Kontrolle,kudhibiti,s,mbinguni,kufunga,utegemezi,NA,sd,NA,4,NA,NA,NA,NA,NA,NA,NA,NA,NA,NA,NA,NA,NA,NA,NA,NA,NA,NA,NA
b8c54,block,flow.Loop,3_0_4_0,NA,NA,completion,100207.7,634334,634333.88,634334.2,734541.9,734552,2023-11-11T13:02:59Z,734557.96,NULL,NA,NA,NA,NA,NA,NA,NA,sd,NA,4,NA,NA,NA,NA,NA,NA,NA,NA,NA,NA,NA,NA,NA,NA,NA,NA,NA,NA,NA
b8c54,weiter,canvas.Screen,3_0_4_1,sdf,keypress(Space),response,1507.04,734554,734541.9,734557.96,736065,736084,2023-11-11T13:03:00Z,736160.18,NULL,NA,NA,NA,NA,NA,NA,NA,sd,NA,4,NA,NA,NA,NA,NA,NA,NA,NA,NA,NA,NA,NA,NA,NA,NA,NA,NA,NA,NA
b8c54,check continue,flow.Sequence,3_0_4,NA,NA,completion,101730.8,634334,634333.88,634334.2,736065,736084,2023-11-11T13:03:00Z,736160.18,NULL,NA,NA,NA,NA,NA,NA,NA,sd,NA,4,NA,NA,NA,NA,NA,NA,NA,NA,NA,NA,NA,NA,NA,NA,NA,NA,NA,NA,NA
b8c54,Deep Question,html.Page,3_0_5_0_0_0_0,NA,NA,form submission,4479.8199999999,736159,736159.76,736160.18,740640,740640,2023-11-11T13:03:05Z,740640.52,NULL,Kreativität,ubunifu,d,NA,NA,NA,jofjeifwo,NA,NA,5,NA,NA,NA,NA,NA,NA,NA,NA,NA,NA,NA,NA,NA,NA,NA,NA,NA,NA,NA
b8c54,"""Richtig""-Screen",canvas.Screen,3_0_5_0_0_0_1,NA,NA,skipped,NA,740643,NA,NA,740640,740643,2023-11-11T13:03:05Z,740640.52,NULL,Kreativität,ubunifu,d,NA,NA,NA,NA,sdf,NA,5,NA,NA,NA,NA,NA,NA,NA,NA,NA,NA,NA,NA,NA,NA,NA,NA,NA,NA,NA
b8c54,"""Falsch""-Screen",canvas.Screen,3_0_5_0_0_0_2,NA,NA,timeout,4999.4,740646,740638.8,740640.52,745623.28,745626,2023-11-11T13:03:10Z,745639.92,NULL,Kreativität,ubunifu,d,NA,NA,NA,NA,sdf,0,5,NA,NA,NA,NA,NA,NA,NA,NA,NA,NA,NA,NA,NA,NA,NA,NA,NA,NA,NA
b8c54,deep,flow.Sequence,3_0_5_0_0_0,NA,NA,completion,9463.1,736159,736159.76,736160.18,745623.28,745626,2023-11-11T13:03:10Z,745639.92,NULL,Kreativität,ubunifu,d,NA,NA,NA,NA,sdf,NA,5,NA,NA,NA,NA,NA,NA,NA,NA,NA,NA,NA,NA,NA,NA,NA,NA,NA,NA,NA
b8c54,shallow,flow.Sequence,3_0_5_0_0_1,NA,NA,skipped,NA,745627,NA,NA,745623.28,745628,2023-11-11T13:03:10Z,745639.92,NULL,Kreativität,ubunifu,d,NA,NA,NA,NA,sdf,NA,5,NA,NA,NA,NA,NA,NA,NA,NA,NA,NA,NA,NA,NA,NA,NA,NA,NA,NA,NA
b8c54,task,flow.Sequence,3_0_5_0_0,NA,NA,completion,9463.1,736159,736159.76,736160.18,745623.28,745628,2023-11-11T13:03:10Z,745639.92,NULL,Kreativität,ubunifu,d,NA,NA,NA,NA,sdf,NA,5,NA,NA,NA,NA,NA,NA,NA,NA,NA,NA,NA,NA,NA,NA,NA,NA,NA,NA,NA
b8c54,deep,flow.Sequence,3_0_5_0_1_0,NA,NA,skipped,NA,745628,NA,NA,745623.28,745629,2023-11-11T13:03:10Z,745639.92,NULL,Gefährdung,kuhatarisha,s,uchokozi,udhaifu,makorowezo,NA,sdf,NA,5,NA,NA,NA,NA,NA,NA,NA,NA,NA,NA,NA,NA,NA,NA,NA,NA,NA,NA,NA
b8c54,Shallow Question,html.Page,3_0_5_0_1_1_0,NA,NA,form submission,6796.08,745630,745623.28,745639.92,752436,752437,2023-11-11T13:03:17Z,752439,NULL,Gefährdung,kuhatarisha,s,uchokozi,udhaifu,makorowezo,kuhatarisha,NA,NA,5,NA,NA,NA,NA,NA,NA,NA,NA,NA,NA,NA,NA,NA,NA,NA,NA,NA,NA,NA
b8c54,"""Richtig""-Screen",canvas.Screen,3_0_5_0_1_1_1,NA,NA,timeout,4999.34,752440,752435.5,752439,757422.18,757424,2023-11-11T13:03:22Z,757438.34,NULL,Gefährdung,kuhatarisha,s,uchokozi,udhaifu,makorowezo,NA,sdf,1,5,NA,NA,NA,NA,NA,NA,NA,NA,NA,NA,NA,NA,NA,NA,NA,NA,NA,NA,NA
b8c54,"""Falsch""-Screen",canvas.Screen,3_0_5_0_1_1_2,NA,NA,skipped,NA,757429,NA,NA,757422.18,757430,2023-11-11T13:03:22Z,757438.34,NULL,Gefährdung,kuhatarisha,s,uchokozi,udhaifu,makorowezo,NA,sdf,NA,5,NA,NA,NA,NA,NA,NA,NA,NA,NA,NA,NA,NA,NA,NA,NA,NA,NA,NA,NA
b8c54,shallow,flow.Sequence,3_0_5_0_1_1,NA,NA,completion,11782.26,745629,745623.28,745639.92,757422.18,757430,2023-11-11T13:03:22Z,757438.34,NULL,Gefährdung,kuhatarisha,s,uchokozi,udhaifu,makorowezo,NA,sdf,NA,5,NA,NA,NA,NA,NA,NA,NA,NA,NA,NA,NA,NA,NA,NA,NA,NA,NA,NA,NA
b8c54,task,flow.Sequence,3_0_5_0_1,NA,NA,completion,11782.26,745628,745623.28,745639.92,757422.18,757431,2023-11-11T13:03:22Z,757438.34,NULL,Gefährdung,kuhatarisha,s,uchokozi,udhaifu,makorowezo,NA,sdf,NA,5,NA,NA,NA,NA,NA,NA,NA,NA,NA,NA,NA,NA,NA,NA,NA,NA,NA,NA,NA
b8c54,deep,flow.Sequence,3_0_5_0_2_0,NA,NA,skipped,NA,757431,NA,NA,757422.18,757431,2023-11-11T13:03:22Z,757438.34,NULL,Widerstand,usulubu,s,kusababisha,mwalimu,mwenendo,NA,sdf,NA,5,NA,NA,NA,NA,NA,NA,NA,NA,NA,NA,NA,NA,NA,NA,NA,NA,NA,NA,NA
b8c54,Shallow Question,html.Page,3_0_5_0_2_1_0,NA,NA,form submission,5686.66,757432,757422.18,757438.34,763125,763125,2023-11-11T13:03:27Z,763124.72,NULL,Widerstand,usulubu,s,kusababisha,mwalimu,mwenendo,usulubu,NA,NA,5,NA,NA,NA,NA,NA,NA,NA,NA,NA,NA,NA,NA,NA,NA,NA,NA,NA,NA,NA
b8c54,"""Richtig""-Screen",canvas.Screen,3_0_5_0_2_1_1,NA,NA,timeout,4995.72,763127,763124.54,763124.72,768103.7,768105,2023-11-11T13:03:32Z,768120.44,NULL,Widerstand,usulubu,s,kusababisha,mwalimu,mwenendo,NA,sdf,1,5,NA,NA,NA,NA,NA,NA,NA,NA,NA,NA,NA,NA,NA,NA,NA,NA,NA,NA,NA
b8c54,"""Falsch""-Screen",canvas.Screen,3_0_5_0_2_1_2,NA,NA,skipped,NA,768110,NA,NA,768103.7,768112,2023-11-11T13:03:32Z,768120.44,NULL,Widerstand,usulubu,s,kusababisha,mwalimu,mwenendo,NA,sdf,NA,5,NA,NA,NA,NA,NA,NA,NA,NA,NA,NA,NA,NA,NA,NA,NA,NA,NA,NA,NA
b8c54,shallow,flow.Sequence,3_0_5_0_2_1,NA,NA,completion,10665.36,757431,757422.18,757438.34,768103.7,768112,2023-11-11T13:03:32Z,768120.44,NULL,Widerstand,usulubu,s,kusababisha,mwalimu,mwenendo,NA,sdf,NA,5,NA,NA,NA,NA,NA,NA,NA,NA,NA,NA,NA,NA,NA,NA,NA,NA,NA,NA,NA
b8c54,task,flow.Sequence,3_0_5_0_2,NA,NA,completion,10665.36,757431,757422.18,757438.34,768103.7,768112,2023-11-11T13:03:32Z,768120.44,NULL,Widerstand,usulubu,s,kusababisha,mwalimu,mwenendo,NA,sdf,NA,5,NA,NA,NA,NA,NA,NA,NA,NA,NA,NA,NA,NA,NA,NA,NA,NA,NA,NA,NA
b8c54,Deep Question,html.Page,3_0_5_0_3_0_0,NA,NA,form submission,6253.5600000001,768113,768103.7,768120.44,774374,774375,2023-11-11T13:03:39Z,774373.8,NULL,Gelegenheit,wakati,d,NA,NA,NA,kutengwa,NA,NA,5,NA,NA,NA,NA,NA,NA,NA,NA,NA,NA,NA,NA,NA,NA,NA,NA,NA,NA,NA
b8c54,"""Richtig""-Screen",canvas.Screen,3_0_5_0_3_0_1,NA,NA,skipped,NA,774377,NA,NA,774374,774377,2023-11-11T13:03:39Z,774373.8,NULL,Gelegenheit,wakati,d,NA,NA,NA,NA,sdf,NA,5,NA,NA,NA,NA,NA,NA,NA,NA,NA,NA,NA,NA,NA,NA,NA,NA,NA,NA,NA
b8c54,"""Falsch""-Screen",canvas.Screen,3_0_5_0_3_0_2,NA,NA,timeout,4995.2,774380,774373.5,774373.8,779352.6,779354,2023-11-11T13:03:44Z,779369,NULL,Gelegenheit,wakati,d,NA,NA,NA,NA,sdf,0,5,NA,NA,NA,NA,NA,NA,NA,NA,NA,NA,NA,NA,NA,NA,NA,NA,NA,NA,NA
b8c54,deep,flow.Sequence,3_0_5_0_3_0,NA,NA,completion,11232.16,768113,768103.7,768120.44,779352.6,779355,2023-11-11T13:03:44Z,779369,NULL,Gelegenheit,wakati,d,NA,NA,NA,NA,sdf,NA,5,NA,NA,NA,NA,NA,NA,NA,NA,NA,NA,NA,NA,NA,NA,NA,NA,NA,NA,NA
b8c54,shallow,flow.Sequence,3_0_5_0_3_1,NA,NA,skipped,NA,779355,NA,NA,779352.6,779355,2023-11-11T13:03:44Z,779369,NULL,Gelegenheit,wakati,d,NA,NA,NA,NA,sdf,NA,5,NA,NA,NA,NA,NA,NA,NA,NA,NA,NA,NA,NA,NA,NA,NA,NA,NA,NA,NA
b8c54,task,flow.Sequence,3_0_5_0_3,NA,NA,completion,11232.16,768113,768103.7,768120.44,779352.6,779355,2023-11-11T13:03:44Z,779369,NULL,Gelegenheit,wakati,d,NA,NA,NA,NA,sdf,NA,5,NA,NA,NA,NA,NA,NA,NA,NA,NA,NA,NA,NA,NA,NA,NA,NA,NA,NA,NA
b8c54,deep,flow.Sequence,3_0_5_0_4_0,NA,NA,skipped,NA,779356,NA,NA,779352.6,779356,2023-11-11T13:03:44Z,779369,NULL,Kontrolle,kudhibiti,s,mbinguni,kufunga,utegemezi,NA,sdf,NA,5,NA,NA,NA,NA,NA,NA,NA,NA,NA,NA,NA,NA,NA,NA,NA,NA,NA,NA,NA
b8c54,Shallow Question,html.Page,3_0_5_0_4_1_0,NA,NA,form submission,6777,779356,779352.6,779369,786146,786147,2023-11-11T13:03:50Z,786151.3,NULL,Kontrolle,kudhibiti,s,mbinguni,kufunga,utegemezi,kudhibiti,NA,NA,5,NA,NA,NA,NA,NA,NA,NA,NA,NA,NA,NA,NA,NA,NA,NA,NA,NA,NA,NA
b8c54,"""Richtig""-Screen",canvas.Screen,3_0_5_0_4_1_1,NA,NA,timeout,4999.6,786149,786145.78,786151.3,791134,791134,2023-11-11T13:03:55Z,791150.9,NULL,Kontrolle,kudhibiti,s,mbinguni,kufunga,utegemezi,NA,sdf,1,5,NA,NA,NA,NA,NA,NA,NA,NA,NA,NA,NA,NA,NA,NA,NA,NA,NA,NA,NA
b8c54,"""Falsch""-Screen",canvas.Screen,3_0_5_0_4_1_2,NA,NA,skipped,NA,791137,NA,NA,791134,791137,2023-11-11T13:03:55Z,791150.9,NULL,Kontrolle,kudhibiti,s,mbinguni,kufunga,utegemezi,NA,sdf,NA,5,NA,NA,NA,NA,NA,NA,NA,NA,NA,NA,NA,NA,NA,NA,NA,NA,NA,NA,NA
b8c54,shallow,flow.Sequence,3_0_5_0_4_1,NA,NA,completion,11765,779356,779352.6,779369,791134,791138,2023-11-11T13:03:55Z,791150.9,NULL,Kontrolle,kudhibiti,s,mbinguni,kufunga,utegemezi,NA,sdf,NA,5,NA,NA,NA,NA,NA,NA,NA,NA,NA,NA,NA,NA,NA,NA,NA,NA,NA,NA,NA
b8c54,task,flow.Sequence,3_0_5_0_4,NA,NA,completion,11765,779356,779352.6,779369,791134,791138,2023-11-11T13:03:55Z,791150.9,NULL,Kontrolle,kudhibiti,s,mbinguni,kufunga,utegemezi,NA,sdf,NA,5,NA,NA,NA,NA,NA,NA,NA,NA,NA,NA,NA,NA,NA,NA,NA,NA,NA,NA,NA
b8c54,Deep Question,html.Page,3_0_5_0_5_0_0,NA,NA,form submission,4307.1,791138,791134,791150.9,795458,795458,2023-11-11T13:04:00Z,795466.74,NULL,Ausschluss,kutengwa,d,NA,NA,NA,kutengwa,NA,NA,5,NA,NA,NA,NA,NA,NA,NA,NA,NA,NA,NA,NA,NA,NA,NA,NA,NA,NA,NA
b8c54,"""Richtig""-Screen",canvas.Screen,3_0_5_0_5_0_1,NA,NA,timeout,4999.36,795461,795450.44,795466.74,800449.84,800451,2023-11-11T13:04:05Z,800466.1,NULL,Ausschluss,kutengwa,d,NA,NA,NA,NA,sdf,1,5,NA,NA,NA,NA,NA,NA,NA,NA,NA,NA,NA,NA,NA,NA,NA,NA,NA,NA,NA
b8c54,"""Falsch""-Screen",canvas.Screen,3_0_5_0_5_0_2,NA,NA,skipped,NA,800457,NA,NA,800449.84,800457,2023-11-11T13:04:05Z,800466.1,NULL,Ausschluss,kutengwa,d,NA,NA,NA,NA,sdf,NA,5,NA,NA,NA,NA,NA,NA,NA,NA,NA,NA,NA,NA,NA,NA,NA,NA,NA,NA,NA
b8c54,deep,flow.Sequence,3_0_5_0_5_0,NA,NA,completion,9298.9399999999,791138,791134,791150.9,800449.84,800457,2023-11-11T13:04:05Z,800466.1,NULL,Ausschluss,kutengwa,d,NA,NA,NA,NA,sdf,NA,5,NA,NA,NA,NA,NA,NA,NA,NA,NA,NA,NA,NA,NA,NA,NA,NA,NA,NA,NA
b8c54,shallow,flow.Sequence,3_0_5_0_5_1,NA,NA,skipped,NA,800457,NA,NA,800449.84,800458,2023-11-11T13:04:05Z,800466.1,NULL,Ausschluss,kutengwa,d,NA,NA,NA,NA,sdf,NA,5,NA,NA,NA,NA,NA,NA,NA,NA,NA,NA,NA,NA,NA,NA,NA,NA,NA,NA,NA
b8c54,task,flow.Sequence,3_0_5_0_5,NA,NA,completion,9298.9399999999,791138,791134,791150.9,800449.84,800459,2023-11-11T13:04:05Z,800466.1,NULL,Ausschluss,kutengwa,d,NA,NA,NA,NA,sdf,NA,5,NA,NA,NA,NA,NA,NA,NA,NA,NA,NA,NA,NA,NA,NA,NA,NA,NA,NA,NA
b8c54,deep,flow.Sequence,3_0_5_0_6_0,NA,NA,skipped,NA,800459,NA,NA,800449.84,800459,2023-11-11T13:04:05Z,800466.1,NULL,Verstand,ufahamivu,s,shakawa,hadhari,mhandisi,NA,sdf,NA,5,NA,NA,NA,NA,NA,NA,NA,NA,NA,NA,NA,NA,NA,NA,NA,NA,NA,NA,NA
b8c54,Shallow Question,html.Page,3_0_5_0_6_1_0,NA,NA,form submission,12151.9,800459,800449.84,800466.1,812618,812619,2023-11-11T13:04:17Z,812617.9,NULL,Verstand,ufahamivu,s,shakawa,hadhari,mhandisi,ufahamivu,NA,NA,5,NA,NA,NA,NA,NA,NA,NA,NA,NA,NA,NA,NA,NA,NA,NA,NA,NA,NA,NA
b8c54,"""Richtig""-Screen",canvas.Screen,3_0_5_0_6_1_1,NA,NA,timeout,4995.9399999999,812621,812617.6,812617.9,817597.26,817599,2023-11-11T13:04:22Z,817613.84,NULL,Verstand,ufahamivu,s,shakawa,hadhari,mhandisi,NA,sdf,1,5,NA,NA,NA,NA,NA,NA,NA,NA,NA,NA,NA,NA,NA,NA,NA,NA,NA,NA,NA
b8c54,"""Falsch""-Screen",canvas.Screen,3_0_5_0_6_1_2,NA,NA,skipped,NA,817606,NA,NA,817597.26,817607,2023-11-11T13:04:22Z,817613.84,NULL,Verstand,ufahamivu,s,shakawa,hadhari,mhandisi,NA,sdf,NA,5,NA,NA,NA,NA,NA,NA,NA,NA,NA,NA,NA,NA,NA,NA,NA,NA,NA,NA,NA
b8c54,shallow,flow.Sequence,3_0_5_0_6_1,NA,NA,completion,17131.16,800459,800449.84,800466.1,817597.26,817608,2023-11-11T13:04:22Z,817613.84,NULL,Verstand,ufahamivu,s,shakawa,hadhari,mhandisi,NA,sdf,NA,5,NA,NA,NA,NA,NA,NA,NA,NA,NA,NA,NA,NA,NA,NA,NA,NA,NA,NA,NA
b8c54,task,flow.Sequence,3_0_5_0_6,NA,NA,completion,17131.16,800459,800449.84,800466.1,817597.26,817608,2023-11-11T13:04:22Z,817613.84,NULL,Verstand,ufahamivu,s,shakawa,hadhari,mhandisi,NA,sdf,NA,5,NA,NA,NA,NA,NA,NA,NA,NA,NA,NA,NA,NA,NA,NA,NA,NA,NA,NA,NA
b8c54,Deep Question,html.Page,3_0_5_0_7_0_0,NA,NA,form submission,9314.16,817608,817597.26,817613.84,826928,826928,2023-11-11T13:04:31Z,826929.32,NULL,Können,unaweza,d,NA,NA,NA,unaweza,NA,NA,5,NA,NA,NA,NA,NA,NA,NA,NA,NA,NA,NA,NA,NA,NA,NA,NA,NA,NA,NA
b8c54,"""Richtig""-Screen",canvas.Screen,3_0_5_0_7_0_1,NA,NA,timeout,4999.3600000001,826932,826926.7,826929.32,831912,831913,2023-11-11T13:04:36Z,831928.68,NULL,Können,unaweza,d,NA,NA,NA,NA,sdf,1,5,NA,NA,NA,NA,NA,NA,NA,NA,NA,NA,NA,NA,NA,NA,NA,NA,NA,NA,NA
b8c54,"""Falsch""-Screen",canvas.Screen,3_0_5_0_7_0_2,NA,NA,skipped,NA,831918,NA,NA,831912,831918,2023-11-11T13:04:36Z,831928.68,NULL,Können,unaweza,d,NA,NA,NA,NA,sdf,NA,5,NA,NA,NA,NA,NA,NA,NA,NA,NA,NA,NA,NA,NA,NA,NA,NA,NA,NA,NA
b8c54,deep,flow.Sequence,3_0_5_0_7_0,NA,NA,completion,14298.16,817608,817597.26,817613.84,831912,831919,2023-11-11T13:04:36Z,831928.68,NULL,Können,unaweza,d,NA,NA,NA,NA,sdf,NA,5,NA,NA,NA,NA,NA,NA,NA,NA,NA,NA,NA,NA,NA,NA,NA,NA,NA,NA,NA
b8c54,shallow,flow.Sequence,3_0_5_0_7_1,NA,NA,skipped,NA,831919,NA,NA,831912,831919,2023-11-11T13:04:36Z,831928.68,NULL,Können,unaweza,d,NA,NA,NA,NA,sdf,NA,5,NA,NA,NA,NA,NA,NA,NA,NA,NA,NA,NA,NA,NA,NA,NA,NA,NA,NA,NA
b8c54,task,flow.Sequence,3_0_5_0_7,NA,NA,completion,14298.16,817608,817597.26,817613.84,831912,831919,2023-11-11T13:04:36Z,831928.68,NULL,Können,unaweza,d,NA,NA,NA,NA,sdf,NA,5,NA,NA,NA,NA,NA,NA,NA,NA,NA,NA,NA,NA,NA,NA,NA,NA,NA,NA,NA
b8c54,block,flow.Loop,3_0_5_0,NA,NA,completion,95751.82,736159,736159.76,736160.18,831912,831920,2023-11-11T13:04:36Z,831928.68,NULL,NA,NA,NA,NA,NA,NA,NA,sdf,NA,5,NA,NA,NA,NA,NA,NA,NA,NA,NA,NA,NA,NA,NA,NA,NA,NA,NA,NA,NA
b8c54,weiter,canvas.Screen,3_0_5_1,sdf,keypress(Space),response,1291.3199999999,831921,831912,831928.68,833220,833229,2023-11-11T13:04:37Z,833895.46,NULL,NA,NA,NA,NA,NA,NA,NA,sdf,NA,5,NA,NA,NA,NA,NA,NA,NA,NA,NA,NA,NA,NA,NA,NA,NA,NA,NA,NA,NA
b8c54,check continue,flow.Sequence,3_0_5,NA,NA,completion,97059.82,736159,736159.76,736160.18,833220,833230,2023-11-11T13:04:37Z,833895.46,NULL,NA,NA,NA,NA,NA,NA,NA,sdf,NA,5,NA,NA,NA,NA,NA,NA,NA,NA,NA,NA,NA,NA,NA,NA,NA,NA,NA,NA,NA
b8c54,check continue,flow.Sequence,3_0_6,NA,NA,skipped,NA,833299,NA,NA,833220,833299,2023-11-11T13:04:38Z,833895.46,NULL,NA,NA,NA,NA,NA,NA,NA,dfs,NA,6,NA,NA,NA,NA,NA,NA,NA,NA,NA,NA,NA,NA,NA,NA,NA,NA,NA,NA,NA
b8c54,check continue,flow.Sequence,3_0_7,NA,NA,skipped,NA,833328,NA,NA,833220,833328,2023-11-11T13:04:38Z,833895.46,NULL,NA,NA,NA,NA,NA,NA,NA,df,NA,7,NA,NA,NA,NA,NA,NA,NA,NA,NA,NA,NA,NA,NA,NA,NA,NA,NA,NA,NA
b8c54,check continue,flow.Sequence,3_0_8,NA,NA,skipped,NA,833355,NA,NA,833220,833355,2023-11-11T13:04:38Z,833895.46,NULL,NA,NA,NA,NA,NA,NA,NA,dfs,NA,8,NA,NA,NA,NA,NA,NA,NA,NA,NA,NA,NA,NA,NA,NA,NA,NA,NA,NA,NA
b8c54,check continue,flow.Sequence,3_0_9,NA,NA,skipped,NA,833384,NA,NA,833220,833384,2023-11-11T13:04:38Z,833895.46,NULL,NA,NA,NA,NA,NA,NA,NA,dsf,NA,9,NA,NA,NA,NA,NA,NA,NA,NA,NA,NA,NA,NA,NA,NA,NA,NA,NA,NA,NA
b8c54,check continue,flow.Sequence,3_0_10,NA,NA,skipped,NA,833412,NA,NA,833220,833412,2023-11-11T13:04:38Z,833895.46,NULL,NA,NA,NA,NA,NA,NA,NA,df,NA,10,NA,NA,NA,NA,NA,NA,NA,NA,NA,NA,NA,NA,NA,NA,NA,NA,NA,NA,NA
b8c54,check continue,flow.Sequence,3_0_11,NA,NA,skipped,NA,833436,NA,NA,833220,833436,2023-11-11T13:04:38Z,833895.46,NULL,NA,NA,NA,NA,NA,NA,NA,dfs,NA,11,NA,NA,NA,NA,NA,NA,NA,NA,NA,NA,NA,NA,NA,NA,NA,NA,NA,NA,NA
b8c54,check continue,flow.Sequence,3_0_12,NA,NA,skipped,NA,833462,NA,NA,833220,833462,2023-11-11T13:04:38Z,833895.46,NULL,NA,NA,NA,NA,NA,NA,NA,dsf,NA,12,NA,NA,NA,NA,NA,NA,NA,NA,NA,NA,NA,NA,NA,NA,NA,NA,NA,NA,NA
b8c54,check continue,flow.Sequence,3_0_13,NA,NA,skipped,NA,833490,NA,NA,833220,833490,2023-11-11T13:04:38Z,833895.46,NULL,NA,NA,NA,NA,NA,NA,NA,dsf,NA,13,NA,NA,NA,NA,NA,NA,NA,NA,NA,NA,NA,NA,NA,NA,NA,NA,NA,NA,NA
b8c54,check continue,flow.Sequence,3_0_14,NA,NA,skipped,NA,833520,NA,NA,833220,833520,2023-11-11T13:04:38Z,833895.46,NULL,NA,NA,NA,NA,NA,NA,NA,NA,NA,14,NA,NA,NA,NA,NA,NA,NA,NA,NA,NA,NA,NA,NA,NA,NA,NA,NA,NA,NA
b8c54,check continue,flow.Sequence,3_0_15,NA,NA,skipped,NA,833544,NA,NA,833220,833544,2023-11-11T13:04:38Z,833895.46,NULL,NA,NA,NA,NA,NA,NA,NA,NA,NA,15,NA,NA,NA,NA,NA,NA,NA,NA,NA,NA,NA,NA,NA,NA,NA,NA,NA,NA,NA
b8c54,check continue,flow.Sequence,3_0_16,NA,NA,skipped,NA,833568,NA,NA,833220,833568,2023-11-11T13:04:38Z,833895.46,NULL,NA,NA,NA,NA,NA,NA,NA,NA,NA,16,NA,NA,NA,NA,NA,NA,NA,NA,NA,NA,NA,NA,NA,NA,NA,NA,NA,NA,NA
b8c54,check continue,flow.Sequence,3_0_17,NA,NA,skipped,NA,833596,NA,NA,833220,833596,2023-11-11T13:04:38Z,833895.46,NULL,NA,NA,NA,NA,NA,NA,NA,NA,NA,17,NA,NA,NA,NA,NA,NA,NA,NA,NA,NA,NA,NA,NA,NA,NA,NA,NA,NA,NA
b8c54,check continue,flow.Sequence,3_0_18,NA,NA,skipped,NA,833619,NA,NA,833220,833619,2023-11-11T13:04:38Z,833895.46,NULL,NA,NA,NA,NA,NA,NA,NA,NA,NA,18,NA,NA,NA,NA,NA,NA,NA,NA,NA,NA,NA,NA,NA,NA,NA,NA,NA,NA,NA
b8c54,check continue,flow.Sequence,3_0_19,NA,NA,skipped,NA,833643,NA,NA,833220,833643,2023-11-11T13:04:38Z,833895.46,NULL,NA,NA,NA,NA,NA,NA,NA,NA,NA,19,NA,NA,NA,NA,NA,NA,NA,NA,NA,NA,NA,NA,NA,NA,NA,NA,NA,NA,NA
b8c54,check continue,flow.Sequence,3_0_20,NA,NA,skipped,NA,833672,NA,NA,833220,833672,2023-11-11T13:04:38Z,833895.46,NULL,NA,NA,NA,NA,NA,NA,NA,NA,NA,20,NA,NA,NA,NA,NA,NA,NA,NA,NA,NA,NA,NA,NA,NA,NA,NA,NA,NA,NA
b8c54,check continue,flow.Sequence,3_0_21,NA,NA,skipped,NA,833696,NA,NA,833220,833696,2023-11-11T13:04:38Z,833895.46,NULL,NA,NA,NA,NA,NA,NA,NA,NA,NA,21,NA,NA,NA,NA,NA,NA,NA,NA,NA,NA,NA,NA,NA,NA,NA,NA,NA,NA,NA
b8c54,check continue,flow.Sequence,3_0_22,NA,NA,skipped,NA,833720,NA,NA,833220,833720,2023-11-11T13:04:38Z,833895.46,NULL,NA,NA,NA,NA,NA,NA,NA,NA,NA,22,NA,NA,NA,NA,NA,NA,NA,NA,NA,NA,NA,NA,NA,NA,NA,NA,NA,NA,NA
b8c54,check continue,flow.Sequence,3_0_23,NA,NA,skipped,NA,833746,NA,NA,833220,833746,2023-11-11T13:04:38Z,833895.46,NULL,NA,NA,NA,NA,NA,NA,NA,NA,NA,23,NA,NA,NA,NA,NA,NA,NA,NA,NA,NA,NA,NA,NA,NA,NA,NA,NA,NA,NA
b8c54,check continue,flow.Sequence,3_0_24,NA,NA,skipped,NA,833770,NA,NA,833220,833770,2023-11-11T13:04:38Z,833895.46,NULL,NA,NA,NA,NA,NA,NA,NA,NA,NA,24,NA,NA,NA,NA,NA,NA,NA,NA,NA,NA,NA,NA,NA,NA,NA,NA,NA,NA,NA
b8c54,check continue,flow.Sequence,3_0_25,NA,NA,skipped,NA,833796,NA,NA,833220,833796,2023-11-11T13:04:38Z,833895.46,NULL,NA,NA,NA,NA,NA,NA,NA,NA,NA,25,NA,NA,NA,NA,NA,NA,NA,NA,NA,NA,NA,NA,NA,NA,NA,NA,NA,NA,NA
b8c54,check continue,flow.Sequence,3_0_26,NA,NA,skipped,NA,833823,NA,NA,833220,833823,2023-11-11T13:04:38Z,833895.46,NULL,NA,NA,NA,NA,NA,NA,NA,NA,NA,26,NA,NA,NA,NA,NA,NA,NA,NA,NA,NA,NA,NA,NA,NA,NA,NA,NA,NA,NA
b8c54,check continue,flow.Sequence,3_0_27,NA,NA,skipped,NA,833847,NA,NA,833220,833847,2023-11-11T13:04:38Z,833895.46,NULL,NA,NA,NA,NA,NA,NA,NA,NA,NA,27,NA,NA,NA,NA,NA,NA,NA,NA,NA,NA,NA,NA,NA,NA,NA,NA,NA,NA,NA
b8c54,check continue,flow.Sequence,3_0_28,NA,NA,skipped,NA,833873,NA,NA,833220,833873,2023-11-11T13:04:38Z,833895.46,NULL,NA,NA,NA,NA,NA,NA,NA,NA,NA,28,NA,NA,NA,NA,NA,NA,NA,NA,NA,NA,NA,NA,NA,NA,NA,NA,NA,NA,NA
b8c54,check continue,flow.Sequence,3_0_29,NA,NA,skipped,NA,833895,NA,NA,833220,833895,2023-11-11T13:04:38Z,833895.46,NULL,NA,NA,NA,NA,NA,NA,NA,NA,NA,29,NA,NA,NA,NA,NA,NA,NA,NA,NA,NA,NA,NA,NA,NA,NA,NA,NA,NA,NA
b8c54,until continue,flow.Loop,3_0,NA,NA,completion,605818.2,227365,227401.34,227401.8,833220,833895,2023-11-11T13:04:38Z,833895.46,NULL,NA,NA,NA,NA,NA,NA,NA,NA,NA,NA,NA,NA,NA,NA,NA,NA,NA,NA,NA,NA,NA,NA,NA,NA,NA,NA,NA,NA,NA
b8c54,block 1,flow.Sequence,3,NA,NA,completion,605818.2,227365,227401.34,227401.8,833220,833895,2023-11-11T13:04:38Z,833895.46,NULL,NA,NA,NA,NA,NA,NA,NA,NA,NA,NA,NA,NA,NA,NA,NA,NA,NA,NA,NA,NA,NA,NA,NA,NA,NA,NA,NA,NA,NA
b8c54,1.Part Over,canvas.Screen,4,NA,keypress(Space),response,2606.54,833895,833895.12,833895.46,836502,836517,2023-11-11T13:04:41Z,836588.02,NULL,NA,NA,NA,NA,NA,NA,NA,NA,NA,NA,NA,NA,NA,NA,NA,NA,NA,NA,NA,NA,NA,NA,NA,NA,NA,NA,NA,NA,NA
b8c54,Deep Question,html.Page,5_0_0_0_0_0_0,NA,NA,form submission,4604.98,836587,836587.72,836588.02,841193,841193,2023-11-11T13:04:45Z,841210.8,NULL,Konkurrent,mshindani,d,NA,NA,NA,fjwoeifj,NA,NA,0,NA,NA,NA,NA,NA,NA,NA,NA,NA,NA,NA,NA,NA,NA,NA,NA,NA,NA,NA
b8c54,"""Richtig""-Screen",canvas.Screen,5_0_0_0_0_0_1,NA,NA,skipped,NA,841195,NA,NA,841193,841195,2023-11-11T13:04:45Z,841210.8,NULL,Konkurrent,mshindani,d,NA,NA,NA,NA,sdf,NA,0,NA,NA,NA,NA,NA,NA,NA,NA,NA,NA,NA,NA,NA,NA,NA,NA,NA,NA,NA
b8c54,"""Falsch""-Screen",canvas.Screen,5_0_0_0_0_0_2,NA,NA,timeout,4999.4199999999,841198,841194.18,841210.8,846193.58,846195,2023-11-11T13:04:50Z,846210.22,NULL,Konkurrent,mshindani,d,NA,NA,NA,NA,sdf,0,0,NA,NA,NA,NA,NA,NA,NA,NA,NA,NA,NA,NA,NA,NA,NA,NA,NA,NA,NA
b8c54,deep,flow.Sequence,5_0_0_0_0_0,NA,NA,completion,9605.5599999999,836587,836587.72,836588.02,846193.58,846195,2023-11-11T13:04:50Z,846210.22,NULL,Konkurrent,mshindani,d,NA,NA,NA,NA,sdf,NA,0,NA,NA,NA,NA,NA,NA,NA,NA,NA,NA,NA,NA,NA,NA,NA,NA,NA,NA,NA
b8c54,shallow,flow.Sequence,5_0_0_0_0_1,NA,NA,skipped,NA,846195,NA,NA,846193.58,846195,2023-11-11T13:04:50Z,846210.22,NULL,Konkurrent,mshindani,d,NA,NA,NA,NA,sdf,NA,0,NA,NA,NA,NA,NA,NA,NA,NA,NA,NA,NA,NA,NA,NA,NA,NA,NA,NA,NA
b8c54,task,flow.Sequence,5_0_0_0_0,NA,NA,completion,9605.5599999999,836587,836587.72,836588.02,846193.58,846196,2023-11-11T13:04:50Z,846210.22,NULL,Konkurrent,mshindani,d,NA,NA,NA,NA,sdf,NA,0,NA,NA,NA,NA,NA,NA,NA,NA,NA,NA,NA,NA,NA,NA,NA,NA,NA,NA,NA
b8c54,deep,flow.Sequence,5_0_0_0_1_0,NA,NA,skipped,NA,846196,NA,NA,846193.58,846196,2023-11-11T13:04:50Z,846210.22,NULL,Symbol,kielezo,s,kinyume,nderemo,utayari,NA,sdf,NA,0,NA,NA,NA,NA,NA,NA,NA,NA,NA,NA,NA,NA,NA,NA,NA,NA,NA,NA,NA
b8c54,Shallow Question,html.Page,5_0_0_0_1_1_0,NA,NA,form submission,4803.78,846196,846193.58,846210.22,851014,851014,2023-11-11T13:04:55Z,851012.9,NULL,Symbol,kielezo,s,kinyume,nderemo,utayari,kinyume,NA,NA,0,NA,NA,NA,NA,NA,NA,NA,NA,NA,NA,NA,NA,NA,NA,NA,NA,NA,NA,NA
b8c54,"""Richtig""-Screen",canvas.Screen,5_0_0_0_1_1_1,NA,NA,skipped,NA,851017,NA,NA,851014,851017,2023-11-11T13:04:55Z,851012.9,NULL,Symbol,kielezo,s,kinyume,nderemo,utayari,NA,sdf,NA,0,NA,NA,NA,NA,NA,NA,NA,NA,NA,NA,NA,NA,NA,NA,NA,NA,NA,NA,NA
b8c54,"""Falsch""-Screen",canvas.Screen,5_0_0_0_1_1_2,NA,NA,timeout,4996.0599999999,851018,851012.62,851012.9,855992.34,855994,2023-11-11T13:05:00Z,856008.96,NULL,Symbol,kielezo,s,kinyume,nderemo,utayari,NA,sdf,0,0,NA,NA,NA,NA,NA,NA,NA,NA,NA,NA,NA,NA,NA,NA,NA,NA,NA,NA,NA
b8c54,shallow,flow.Sequence,5_0_0_0_1_1,NA,NA,completion,9782.12,846196,846193.58,846210.22,855992.34,855995,2023-11-11T13:05:00Z,856008.96,NULL,Symbol,kielezo,s,kinyume,nderemo,utayari,NA,sdf,NA,0,NA,NA,NA,NA,NA,NA,NA,NA,NA,NA,NA,NA,NA,NA,NA,NA,NA,NA,NA
b8c54,task,flow.Sequence,5_0_0_0_1,NA,NA,completion,9782.12,846196,846193.58,846210.22,855992.34,855995,2023-11-11T13:05:00Z,856008.96,NULL,Symbol,kielezo,s,kinyume,nderemo,utayari,NA,sdf,NA,0,NA,NA,NA,NA,NA,NA,NA,NA,NA,NA,NA,NA,NA,NA,NA,NA,NA,NA,NA
b8c54,Deep Question,html.Page,5_0_0_0_2_0_0,NA,NA,form submission,4244.04,855996,855992.34,856008.96,860253,860254,2023-11-11T13:05:05Z,860258.38,NULL,System,maongozi,d,NA,NA,NA,woeife,NA,NA,0,NA,NA,NA,NA,NA,NA,NA,NA,NA,NA,NA,NA,NA,NA,NA,NA,NA,NA,NA
b8c54,"""Richtig""-Screen",canvas.Screen,5_0_0_0_2_0_1,NA,NA,skipped,NA,860256,NA,NA,860253,860256,2023-11-11T13:05:05Z,860258.38,NULL,System,maongozi,d,NA,NA,NA,NA,sdf,NA,0,NA,NA,NA,NA,NA,NA,NA,NA,NA,NA,NA,NA,NA,NA,NA,NA,NA,NA,NA
b8c54,"""Falsch""-Screen",canvas.Screen,5_0_0_0_2_0_2,NA,NA,timeout,4999.26,860258,860252.44,860258.38,865241.54,865243,2023-11-11T13:05:10Z,865257.64,NULL,System,maongozi,d,NA,NA,NA,NA,sdf,0,0,NA,NA,NA,NA,NA,NA,NA,NA,NA,NA,NA,NA,NA,NA,NA,NA,NA,NA,NA
b8c54,deep,flow.Sequence,5_0_0_0_2_0,NA,NA,completion,9232.5800000001,855996,855992.34,856008.96,865241.54,865244,2023-11-11T13:05:10Z,865257.64,NULL,System,maongozi,d,NA,NA,NA,NA,sdf,NA,0,NA,NA,NA,NA,NA,NA,NA,NA,NA,NA,NA,NA,NA,NA,NA,NA,NA,NA,NA
b8c54,shallow,flow.Sequence,5_0_0_0_2_1,NA,NA,skipped,NA,865244,NA,NA,865241.54,865244,2023-11-11T13:05:10Z,865257.64,NULL,System,maongozi,d,NA,NA,NA,NA,sdf,NA,0,NA,NA,NA,NA,NA,NA,NA,NA,NA,NA,NA,NA,NA,NA,NA,NA,NA,NA,NA
b8c54,task,flow.Sequence,5_0_0_0_2,NA,NA,completion,9232.5800000001,855996,855992.34,856008.96,865241.54,865245,2023-11-11T13:05:10Z,865257.64,NULL,System,maongozi,d,NA,NA,NA,NA,sdf,NA,0,NA,NA,NA,NA,NA,NA,NA,NA,NA,NA,NA,NA,NA,NA,NA,NA,NA,NA,NA
b8c54,deep,flow.Sequence,5_0_0_0_3_0,NA,NA,skipped,NA,865245,NA,NA,865241.54,865245,2023-11-11T13:05:10Z,865257.64,NULL,Zuwachs,nyongeza,s,matilaba,udhibiti,hudhurio,NA,sdf,NA,0,NA,NA,NA,NA,NA,NA,NA,NA,NA,NA,NA,NA,NA,NA,NA,NA,NA,NA,NA
b8c54,Shallow Question,html.Page,5_0_0_0_3_1_0,NA,NA,form submission,4864.36,865246,865241.54,865257.64,870122,870122,2023-11-11T13:05:14Z,870123.74,NULL,Zuwachs,nyongeza,s,matilaba,udhibiti,hudhurio,matilaba,NA,NA,0,NA,NA,NA,NA,NA,NA,NA,NA,NA,NA,NA,NA,NA,NA,NA,NA,NA,NA,NA
b8c54,"""Richtig""-Screen",canvas.Screen,5_0_0_0_3_1_1,NA,NA,skipped,NA,870124,NA,NA,870122,870125,2023-11-11T13:05:14Z,870123.74,NULL,Zuwachs,nyongeza,s,matilaba,udhibiti,hudhurio,NA,sdf,NA,0,NA,NA,NA,NA,NA,NA,NA,NA,NA,NA,NA,NA,NA,NA,NA,NA,NA,NA,NA
b8c54,"""Falsch""-Screen",canvas.Screen,5_0_0_0_3_1_2,NA,NA,timeout,4999.42,870126,870120.86,870123.74,875106.74,875113,2023-11-11T13:05:19Z,875123.16,NULL,Zuwachs,nyongeza,s,matilaba,udhibiti,hudhurio,NA,sdf,0,0,NA,NA,NA,NA,NA,NA,NA,NA,NA,NA,NA,NA,NA,NA,NA,NA,NA,NA,NA
