observation,sender,sender_type,sender_id,response,response_action,ended_on,duration,time_run,time_render,time_show,time_end,time_commit,timestamp,time_switch,distractors,german,swahili,enc,distractor1,distractor2,distractor3,response_2,x,correct,x_2,url_vp,url_sess,meta_labjs_version,meta_location,meta_user_agent,meta_platform,meta_language,meta_locale,meta_time_zone,meta_timezone_offset,meta_screen_width,meta_screen_height,meta_scroll_width,meta_scroll_height,meta_window_inner_width,meta_window_inner_height,meta_device_pixel_ratio,meta_labjs_build_flavor,meta_labjs_build_commit
4cbaa,Introduction general,canvas.Screen,0,weiter,keypress(q),response,82776.3,729,727.04,743.7,83520,83544,2023-10-02T07:08:33Z,83545.16,NULL,NA,NA,NA,NA,NA,NA,NA,NA,NA,NA,185,1,20.2.4,https://neurocog.fernuni.ch/studies/vweber/sliechti/encoding_immediate/index.html?vp=185&sess=1,Mozilla/5.0 (Windows NT 10.0; Win64; x64; rv:109.0) Gecko/20100101 Firefox/118.0,Win32,de,de-CH,Europe/Zurich,-120,1280,720,1280,587,1280,587,1.5,production,f5b4a49f956347addd546a832a3327688c2c0fef
4cbaa,Introduction practice,canvas.Screen,1_0,NA,keypress(Space),response,4599.84,83545,83544.94,83545.16,88145,88152,2023-10-02T07:08:37Z,88166.72,NULL,NA,NA,NA,NA,NA,NA,NA,NA,NA,NA,NA,NA,NA,NA,NA,NA,NA,NA,NA,NA,NA,NA,NA,NA,NA,NA,NA,NA,NA
4cbaa,deep,flow.Sequence,1_1_0_0,NA,NA,skipped,NA,88153,NA,NA,88145,88153,2023-10-02T07:08:37Z,88166.72,"c(""distractor1"", ""distractor2"", ""distractor3"")",Rückhalt,msaada,s,muhula,auwali,kiwimbe,NA,NA,NA,NA,NA,NA,NA,NA,NA,NA,NA,NA,NA,NA,NA,NA,NA,NA,NA,NA,NA,NA,NA
4cbaa,Shallow Question,html.Page,1_1_0_1_0,NA,NA,form submission,21247.28,88154,88154.16,88166.72,109414,109414,2023-10-02T07:08:58Z,109413.62,"c(""distractor1"", ""distractor2"", ""distractor3"")",Rückhalt,msaada,s,muhula,auwali,kiwimbe,msaada,NA,NA,NA,NA,NA,NA,NA,NA,NA,NA,NA,NA,NA,NA,NA,NA,NA,NA,NA,NA,NA,NA
4cbaa,"""Richtig""-Screen",canvas.Screen,1_1_0_1_1,NA,NA,timeout,4999.06,109417,109374.14,109413.62,114396.04,114398,2023-10-02T07:09:03Z,114412.68,"c(""distractor1"", ""distractor2"", ""distractor3"")",Rückhalt,msaada,s,muhula,auwali,kiwimbe,NA,NA,1,NA,NA,NA,NA,NA,NA,NA,NA,NA,NA,NA,NA,NA,NA,NA,NA,NA,NA,NA,NA
4cbaa,"""Falsch""-Screen",canvas.Screen,1_1_0_1_2,NA,NA,skipped,NA,114406,NA,NA,114396.04,114406,2023-10-02T07:09:03Z,114412.68,"c(""distractor1"", ""distractor2"", ""distractor3"")",Rückhalt,msaada,s,muhula,auwali,kiwimbe,NA,NA,NA,NA,NA,NA,NA,NA,NA,NA,NA,NA,NA,NA,NA,NA,NA,NA,NA,NA,NA,NA,NA
4cbaa,shallow,flow.Sequence,1_1_0_1,NA,NA,completion,26229.32,88154,88154.16,88166.72,114396.04,114406,2023-10-02T07:09:03Z,114412.68,"c(""distractor1"", ""distractor2"", ""distractor3"")",Rückhalt,msaada,s,muhula,auwali,kiwimbe,NA,NA,NA,NA,NA,NA,NA,NA,NA,NA,NA,NA,NA,NA,NA,NA,NA,NA,NA,NA,NA,NA,NA
4cbaa,task,flow.Sequence,1_1_0,NA,NA,completion,26229.32,88153,88154.16,88166.72,114396.04,114408,2023-10-02T07:09:03Z,114412.68,"c(""distractor1"", ""distractor2"", ""distractor3"")",Rückhalt,msaada,s,muhula,auwali,kiwimbe,NA,NA,NA,NA,NA,NA,NA,NA,NA,NA,NA,NA,NA,NA,NA,NA,NA,NA,NA,NA,NA,NA,NA
4cbaa,deep,flow.Sequence,1_1_1_0,NA,NA,skipped,NA,114408,NA,NA,114396.04,114409,2023-10-02T07:09:03Z,114412.68,"c(""distractor1"", ""distractor2"", ""distractor3"")",Gegenwart,hadhara,s,katiba,jokofu,mikopo,NA,NA,NA,NA,NA,NA,NA,NA,NA,NA,NA,NA,NA,NA,NA,NA,NA,NA,NA,NA,NA,NA,NA
4cbaa,Shallow Question,html.Page,1_1_1_1_0,NA,NA,form submission,15124.32,114409,114396.04,114412.68,129537,129538,2023-10-02T07:09:19Z,129544.82,"c(""distractor1"", ""distractor2"", ""distractor3"")",Gegenwart,hadhara,s,katiba,jokofu,mikopo,katiba,NA,NA,NA,NA,NA,NA,NA,NA,NA,NA,NA,NA,NA,NA,NA,NA,NA,NA,NA,NA,NA,NA
4cbaa,"""Richtig""-Screen",canvas.Screen,1_1_1_1_1,NA,NA,skipped,NA,129548,NA,NA,129537,129549,2023-10-02T07:09:19Z,129544.82,"c(""distractor1"", ""distractor2"", ""distractor3"")",Gegenwart,hadhara,s,katiba,jokofu,mikopo,NA,NA,NA,NA,NA,NA,NA,NA,NA,NA,NA,NA,NA,NA,NA,NA,NA,NA,NA,NA,NA,NA,NA
4cbaa,"""Falsch""-Screen",canvas.Screen,1_1_1_1_2,NA,NA,timeout,4998.94,129553,129532.08,129544.82,134527.1,134528,2023-10-02T07:09:24Z,134543.76,"c(""distractor1"", ""distractor2"", ""distractor3"")",Gegenwart,hadhara,s,katiba,jokofu,mikopo,NA,NA,0,NA,NA,NA,NA,NA,NA,NA,NA,NA,NA,NA,NA,NA,NA,NA,NA,NA,NA,NA,NA
4cbaa,shallow,flow.Sequence,1_1_1_1,NA,NA,completion,20114.42,114409,114396.04,114412.68,134527.1,134529,2023-10-02T07:09:24Z,134543.76,"c(""distractor1"", ""distractor2"", ""distractor3"")",Gegenwart,hadhara,s,katiba,jokofu,mikopo,NA,NA,NA,NA,NA,NA,NA,NA,NA,NA,NA,NA,NA,NA,NA,NA,NA,NA,NA,NA,NA,NA,NA
4cbaa,task,flow.Sequence,1_1_1,NA,NA,completion,20114.42,114408,114396.04,114412.68,134527.1,134529,2023-10-02T07:09:24Z,134543.76,"c(""distractor1"", ""distractor2"", ""distractor3"")",Gegenwart,hadhara,s,katiba,jokofu,mikopo,NA,NA,NA,NA,NA,NA,NA,NA,NA,NA,NA,NA,NA,NA,NA,NA,NA,NA,NA,NA,NA,NA,NA
4cbaa,Deep Question,html.Page,1_1_2_0_0,NA,NA,form submission,23328.24,134529,134527.1,134543.76,157872,157872,2023-10-02T07:09:47Z,157874.06,"c(""distractor1"", ""distractor2"", ""distractor3"")",Schatten,kivuli,d,NA,NA,NA,keinesonne,NA,NA,NA,NA,NA,NA,NA,NA,NA,NA,NA,NA,NA,NA,NA,NA,NA,NA,NA,NA,NA,NA
4cbaa,"""Richtig""-Screen",canvas.Screen,1_1_2_0_1,NA,NA,skipped,NA,157874,NA,NA,157872,157874,2023-10-02T07:09:47Z,157874.06,"c(""distractor1"", ""distractor2"", ""distractor3"")",Schatten,kivuli,d,NA,NA,NA,NA,NA,NA,NA,NA,NA,NA,NA,NA,NA,NA,NA,NA,NA,NA,NA,NA,NA,NA,NA,NA,NA,NA
4cbaa,"""Falsch""-Screen",canvas.Screen,1_1_2_0_2,NA,NA,timeout,4999.44,157876,157871.18,157874.06,162856.86,162858,2023-10-02T07:09:52Z,162873.5,"c(""distractor1"", ""distractor2"", ""distractor3"")",Schatten,kivuli,d,NA,NA,NA,NA,NA,0,NA,NA,NA,NA,NA,NA,NA,NA,NA,NA,NA,NA,NA,NA,NA,NA,NA,NA,NA,NA
4cbaa,deep,flow.Sequence,1_1_2_0,NA,NA,completion,28313.1,134529,134527.1,134543.76,162856.86,162859,2023-10-02T07:09:52Z,162873.5,"c(""distractor1"", ""distractor2"", ""distractor3"")",Schatten,kivuli,d,NA,NA,NA,NA,NA,NA,NA,NA,NA,NA,NA,NA,NA,NA,NA,NA,NA,NA,NA,NA,NA,NA,NA,NA,NA,NA
4cbaa,shallow,flow.Sequence,1_1_2_1,NA,NA,skipped,NA,162860,NA,NA,162856.86,162860,2023-10-02T07:09:52Z,162873.5,"c(""distractor1"", ""distractor2"", ""distractor3"")",Schatten,kivuli,d,NA,NA,NA,NA,NA,NA,NA,NA,NA,NA,NA,NA,NA,NA,NA,NA,NA,NA,NA,NA,NA,NA,NA,NA,NA,NA
4cbaa,task,flow.Sequence,1_1_2,NA,NA,completion,28313.1,134529,134527.1,134543.76,162856.86,162860,2023-10-02T07:09:52Z,162873.5,"c(""distractor1"", ""distractor2"", ""distractor3"")",Schatten,kivuli,d,NA,NA,NA,NA,NA,NA,NA,NA,NA,NA,NA,NA,NA,NA,NA,NA,NA,NA,NA,NA,NA,NA,NA,NA,NA,NA
4cbaa,deep,flow.Sequence,1_1_3_0,NA,NA,skipped,NA,162861,NA,NA,162856.86,162861,2023-10-02T07:09:52Z,162873.5,"c(""distractor1"", ""distractor2"", ""distractor3"")",Kritik,lawama,s,dereva,nafasi,mawazo,NA,NA,NA,NA,NA,NA,NA,NA,NA,NA,NA,NA,NA,NA,NA,NA,NA,NA,NA,NA,NA,NA,NA
4cbaa,Shallow Question,html.Page,1_1_3_1_0,NA,NA,form submission,14723.5,162862,162856.86,162873.5,177597,177597,2023-10-02T07:10:07Z,177604.9,"c(""distractor1"", ""distractor2"", ""distractor3"")",Kritik,lawama,s,dereva,nafasi,mawazo,lawama,NA,NA,NA,NA,NA,NA,NA,NA,NA,NA,NA,NA,NA,NA,NA,NA,NA,NA,NA,NA,NA,NA
4cbaa,"""Richtig""-Screen",canvas.Screen,1_1_3_1_1,NA,NA,timeout,4998.84,177602,177593.56,177604.9,182587.08,182588,2023-10-02T07:10:12Z,182603.74,"c(""distractor1"", ""distractor2"", ""distractor3"")",Kritik,lawama,s,dereva,nafasi,mawazo,NA,NA,1,NA,NA,NA,NA,NA,NA,NA,NA,NA,NA,NA,NA,NA,NA,NA,NA,NA,NA,NA,NA
4cbaa,"""Falsch""-Screen",canvas.Screen,1_1_3_1_2,NA,NA,skipped,NA,182592,NA,NA,182587.08,182593,2023-10-02T07:10:12Z,182603.74,"c(""distractor1"", ""distractor2"", ""distractor3"")",Kritik,lawama,s,dereva,nafasi,mawazo,NA,NA,NA,NA,NA,NA,NA,NA,NA,NA,NA,NA,NA,NA,NA,NA,NA,NA,NA,NA,NA,NA,NA
4cbaa,shallow,flow.Sequence,1_1_3_1,NA,NA,completion,19713.58,162862,162856.86,162873.5,182587.08,182594,2023-10-02T07:10:12Z,182603.74,"c(""distractor1"", ""distractor2"", ""distractor3"")",Kritik,lawama,s,dereva,nafasi,mawazo,NA,NA,NA,NA,NA,NA,NA,NA,NA,NA,NA,NA,NA,NA,NA,NA,NA,NA,NA,NA,NA,NA,NA
4cbaa,task,flow.Sequence,1_1_3,NA,NA,completion,19713.58,162861,162856.86,162873.5,182587.08,182594,2023-10-02T07:10:12Z,182603.74,"c(""distractor1"", ""distractor2"", ""distractor3"")",Kritik,lawama,s,dereva,nafasi,mawazo,NA,NA,NA,NA,NA,NA,NA,NA,NA,NA,NA,NA,NA,NA,NA,NA,NA,NA,NA,NA,NA,NA,NA
4cbaa,Deep Question,html.Page,1_1_4_0_0,NA,NA,form submission,7171.26,182594,182587.08,182603.74,189775,189775,2023-10-02T07:10:19Z,189786.58,"c(""distractor1"", ""distractor2"", ""distractor3"")",Gesundheit,salama,d,NA,NA,NA,merci,NA,NA,NA,NA,NA,NA,NA,NA,NA,NA,NA,NA,NA,NA,NA,NA,NA,NA,NA,NA,NA,NA
4cbaa,"""Richtig""-Screen",canvas.Screen,1_1_4_0_1,NA,NA,skipped,NA,189777,NA,NA,189775,189777,2023-10-02T07:10:19Z,189786.58,"c(""distractor1"", ""distractor2"", ""distractor3"")",Gesundheit,salama,d,NA,NA,NA,NA,NA,NA,NA,NA,NA,NA,NA,NA,NA,NA,NA,NA,NA,NA,NA,NA,NA,NA,NA,NA,NA,NA
4cbaa,"""Falsch""-Screen",canvas.Screen,1_1_4_0_2,NA,NA,timeout,4999.36,189778,189773.7,189786.58,194769.28,194771,2023-10-02T07:10:24Z,194785.94,"c(""distractor1"", ""distractor2"", ""distractor3"")",Gesundheit,salama,d,NA,NA,NA,NA,NA,0,NA,NA,NA,NA,NA,NA,NA,NA,NA,NA,NA,NA,NA,NA,NA,NA,NA,NA,NA,NA
4cbaa,deep,flow.Sequence,1_1_4_0,NA,NA,completion,12165.54,182594,182587.08,182603.74,194769.28,194771,2023-10-02T07:10:24Z,194785.94,"c(""distractor1"", ""distractor2"", ""distractor3"")",Gesundheit,salama,d,NA,NA,NA,NA,NA,NA,NA,NA,NA,NA,NA,NA,NA,NA,NA,NA,NA,NA,NA,NA,NA,NA,NA,NA,NA,NA
4cbaa,shallow,flow.Sequence,1_1_4_1,NA,NA,skipped,NA,194772,NA,NA,194769.28,194772,2023-10-02T07:10:24Z,194785.94,"c(""distractor1"", ""distractor2"", ""distractor3"")",Gesundheit,salama,d,NA,NA,NA,NA,NA,NA,NA,NA,NA,NA,NA,NA,NA,NA,NA,NA,NA,NA,NA,NA,NA,NA,NA,NA,NA,NA
4cbaa,task,flow.Sequence,1_1_4,NA,NA,completion,12165.54,182594,182587.08,182603.74,194769.28,194773,2023-10-02T07:10:24Z,194785.94,"c(""distractor1"", ""distractor2"", ""distractor3"")",Gesundheit,salama,d,NA,NA,NA,NA,NA,NA,NA,NA,NA,NA,NA,NA,NA,NA,NA,NA,NA,NA,NA,NA,NA,NA,NA,NA,NA,NA
4cbaa,Deep Question,html.Page,1_1_5_0_0,NA,NA,form submission,18460.06,194773,194769.28,194785.94,213246,213246,2023-10-02T07:10:42Z,213250.2,"c(""distractor1"", ""distractor2"", ""distractor3"")",Qualität,mtindo,d,NA,NA,NA,lässtzusünschenübrig,NA,NA,NA,NA,NA,NA,NA,NA,NA,NA,NA,NA,NA,NA,NA,NA,NA,NA,NA,NA,NA,NA
4cbaa,"""Richtig""-Screen",canvas.Screen,1_1_5_0_1,NA,NA,skipped,NA,213247,NA,NA,213246,213247,2023-10-02T07:10:42Z,213250.2,"c(""distractor1"", ""distractor2"", ""distractor3"")",Qualität,mtindo,d,NA,NA,NA,NA,NA,NA,NA,NA,NA,NA,NA,NA,NA,NA,NA,NA,NA,NA,NA,NA,NA,NA,NA,NA,NA,NA
4cbaa,"""Falsch""-Screen",canvas.Screen,1_1_5_0_2,NA,NA,timeout,4999.44,213249,213242.42,213250.2,218233,218234,2023-10-02T07:10:47Z,218249.64,"c(""distractor1"", ""distractor2"", ""distractor3"")",Qualität,mtindo,d,NA,NA,NA,NA,NA,0,NA,NA,NA,NA,NA,NA,NA,NA,NA,NA,NA,NA,NA,NA,NA,NA,NA,NA,NA,NA
4cbaa,deep,flow.Sequence,1_1_5_0,NA,NA,completion,23447.06,194773,194769.28,194785.94,218233,218235,2023-10-02T07:10:47Z,218249.64,"c(""distractor1"", ""distractor2"", ""distractor3"")",Qualität,mtindo,d,NA,NA,NA,NA,NA,NA,NA,NA,NA,NA,NA,NA,NA,NA,NA,NA,NA,NA,NA,NA,NA,NA,NA,NA,NA,NA
4cbaa,shallow,flow.Sequence,1_1_5_1,NA,NA,skipped,NA,218235,NA,NA,218233,218236,2023-10-02T07:10:47Z,218249.64,"c(""distractor1"", ""distractor2"", ""distractor3"")",Qualität,mtindo,d,NA,NA,NA,NA,NA,NA,NA,NA,NA,NA,NA,NA,NA,NA,NA,NA,NA,NA,NA,NA,NA,NA,NA,NA,NA,NA
4cbaa,task,flow.Sequence,1_1_5,NA,NA,completion,23447.06,194773,194769.28,194785.94,218233,218236,2023-10-02T07:10:47Z,218249.64,"c(""distractor1"", ""distractor2"", ""distractor3"")",Qualität,mtindo,d,NA,NA,NA,NA,NA,NA,NA,NA,NA,NA,NA,NA,NA,NA,NA,NA,NA,NA,NA,NA,NA,NA,NA,NA,NA,NA
4cbaa,block,flow.Loop,1_1,NA,NA,completion,130066.28,88152,88154.16,88166.72,218233,218238,2023-10-02T07:10:47Z,218249.64,"c(""distractor1"", ""distractor2"", ""distractor3"")",NA,NA,NA,NA,NA,NA,NA,NA,NA,NA,NA,NA,NA,NA,NA,NA,NA,NA,NA,NA,NA,NA,NA,NA,NA,NA,NA,NA,NA
4cbaa,Practice,flow.Sequence,1,NA,NA,completion,134687.84,83545,83544.94,83545.16,218233,218238,2023-10-02T07:10:47Z,218249.64,NULL,NA,NA,NA,NA,NA,NA,NA,NA,NA,NA,NA,NA,NA,NA,NA,NA,NA,NA,NA,NA,NA,NA,NA,NA,NA,NA,NA,NA,NA
4cbaa,Experiment start,canvas.Screen,2,weiter,keypress(q),response,9021.36,218238,218233,218249.64,227271,227281,2023-10-02T07:10:56Z,227360,NULL,NA,NA,NA,NA,NA,NA,NA,NA,NA,NA,NA,NA,NA,NA,NA,NA,NA,NA,NA,NA,NA,NA,NA,NA,NA,NA,NA,NA,NA
4cbaa,Deep Question,html.Page,3_0_0_0_0_0_0,NA,NA,form submission,12145,227360,227359.72,227360,239505,239505,2023-10-02T07:11:09Z,239513.62,NULL,Respekt,heshima,d,NA,NA,NA,mboae,NA,NA,0,NA,NA,NA,NA,NA,NA,NA,NA,NA,NA,NA,NA,NA,NA,NA,NA,NA,NA,NA
4cbaa,"""Richtig""-Screen",canvas.Screen,3_0_0_0_0_0_1,NA,NA,skipped,NA,239507,NA,NA,239505,239507,2023-10-02T07:11:09Z,239513.62,NULL,Respekt,heshima,d,NA,NA,NA,NA,sdf,NA,0,NA,NA,NA,NA,NA,NA,NA,NA,NA,NA,NA,NA,NA,NA,NA,NA,NA,NA,NA
4cbaa,"""Falsch""-Screen",canvas.Screen,3_0_0_0_0_0_2,NA,NA,timeout,4999.38,239509,239503.98,239513.62,244496.34,244498,2023-10-02T07:11:14Z,244513,NULL,Respekt,heshima,d,NA,NA,NA,NA,sdf,0,0,NA,NA,NA,NA,NA,NA,NA,NA,NA,NA,NA,NA,NA,NA,NA,NA,NA,NA,NA
4cbaa,deep,flow.Sequence,3_0_0_0_0_0,NA,NA,completion,17136.34,227360,227359.72,227360,244496.34,244499,2023-10-02T07:11:14Z,244513,NULL,Respekt,heshima,d,NA,NA,NA,NA,sdf,NA,0,NA,NA,NA,NA,NA,NA,NA,NA,NA,NA,NA,NA,NA,NA,NA,NA,NA,NA,NA
4cbaa,shallow,flow.Sequence,3_0_0_0_0_1,NA,NA,skipped,NA,244499,NA,NA,244496.34,244500,2023-10-02T07:11:14Z,244513,NULL,Respekt,heshima,d,NA,NA,NA,NA,sdf,NA,0,NA,NA,NA,NA,NA,NA,NA,NA,NA,NA,NA,NA,NA,NA,NA,NA,NA,NA,NA
4cbaa,task,flow.Sequence,3_0_0_0_0,NA,NA,completion,17136.34,227360,227359.72,227360,244496.34,244500,2023-10-02T07:11:14Z,244513,NULL,Respekt,heshima,d,NA,NA,NA,NA,sdf,NA,0,NA,NA,NA,NA,NA,NA,NA,NA,NA,NA,NA,NA,NA,NA,NA,NA,NA,NA,NA
4cbaa,deep,flow.Sequence,3_0_0_0_1_0,NA,NA,skipped,NA,244501,NA,NA,244496.34,244501,2023-10-02T07:11:14Z,244513,NULL,Stimmung,kinyongo,s,kilekile,kisambo,madhehebu,NA,sdf,NA,0,NA,NA,NA,NA,NA,NA,NA,NA,NA,NA,NA,NA,NA,NA,NA,NA,NA,NA,NA
4cbaa,Shallow Question,html.Page,3_0_0_0_1_1_0,NA,NA,form submission,13692,244501,244496.34,244513,258205,258205,2023-10-02T07:11:27Z,258211.26,NULL,Stimmung,kinyongo,s,kilekile,kisambo,madhehebu,kilekile,NA,NA,0,NA,NA,NA,NA,NA,NA,NA,NA,NA,NA,NA,NA,NA,NA,NA,NA,NA,NA,NA
4cbaa,"""Richtig""-Screen",canvas.Screen,3_0_0_0_1_1_1,NA,NA,skipped,NA,258208,NA,NA,258205,258208,2023-10-02T07:11:27Z,258211.26,NULL,Stimmung,kinyongo,s,kilekile,kisambo,madhehebu,NA,sdf,NA,0,NA,NA,NA,NA,NA,NA,NA,NA,NA,NA,NA,NA,NA,NA,NA,NA,NA,NA,NA
4cbaa,"""Falsch""-Screen",canvas.Screen,3_0_0_0_1_1_2,NA,NA,timeout,4999.28,258212,258201.84,258211.26,263193.88,263196,2023-10-02T07:11:32Z,263210.54,NULL,Stimmung,kinyongo,s,kilekile,kisambo,madhehebu,NA,sdf,0,0,NA,NA,NA,NA,NA,NA,NA,NA,NA,NA,NA,NA,NA,NA,NA,NA,NA,NA,NA
4cbaa,shallow,flow.Sequence,3_0_0_0_1_1,NA,NA,completion,18680.88,244501,244496.34,244513,263193.88,263197,2023-10-02T07:11:32Z,263210.54,NULL,Stimmung,kinyongo,s,kilekile,kisambo,madhehebu,NA,sdf,NA,0,NA,NA,NA,NA,NA,NA,NA,NA,NA,NA,NA,NA,NA,NA,NA,NA,NA,NA,NA
4cbaa,task,flow.Sequence,3_0_0_0_1,NA,NA,completion,18680.88,244500,244496.34,244513,263193.88,263198,2023-10-02T07:11:32Z,263210.54,NULL,Stimmung,kinyongo,s,kilekile,kisambo,madhehebu,NA,sdf,NA,0,NA,NA,NA,NA,NA,NA,NA,NA,NA,NA,NA,NA,NA,NA,NA,NA,NA,NA,NA
4cbaa,deep,flow.Sequence,3_0_0_0_2_0,NA,NA,skipped,NA,263198,NA,NA,263193.88,263198,2023-10-02T07:11:32Z,263210.54,NULL,Betrüger,mdanganyifu,s,mwanamuziki,wastani,mahakama,NA,sdf,NA,0,NA,NA,NA,NA,NA,NA,NA,NA,NA,NA,NA,NA,NA,NA,NA,NA,NA,NA,NA
4cbaa,Shallow Question,html.Page,3_0_0_0_2_1_0,NA,NA,form submission,13060.46,263199,263193.88,263210.54,276271,276271,2023-10-02T07:11:45Z,276275.52,NULL,Betrüger,mdanganyifu,s,mwanamuziki,wastani,mahakama,mwanamuziki,NA,NA,0,NA,NA,NA,NA,NA,NA,NA,NA,NA,NA,NA,NA,NA,NA,NA,NA,NA,NA,NA
4cbaa,"""Richtig""-Screen",canvas.Screen,3_0_0_0_2_1_1,NA,NA,skipped,NA,276273,NA,NA,276271,276273,2023-10-02T07:11:45Z,276275.52,NULL,Betrüger,mdanganyifu,s,mwanamuziki,wastani,mahakama,NA,sdf,NA,0,NA,NA,NA,NA,NA,NA,NA,NA,NA,NA,NA,NA,NA,NA,NA,NA,NA,NA,NA
4cbaa,"""Falsch""-Screen",canvas.Screen,3_0_0_0_2_1_2,NA,NA,timeout,4999.38,276275,276268.64,276275.52,281258.24,281262,2023-10-02T07:11:50Z,281274.9,NULL,Betrüger,mdanganyifu,s,mwanamuziki,wastani,mahakama,NA,sdf,0,0,NA,NA,NA,NA,NA,NA,NA,NA,NA,NA,NA,NA,NA,NA,NA,NA,NA,NA,NA
4cbaa,shallow,flow.Sequence,3_0_0_0_2_1,NA,NA,completion,18047.7,263199,263193.88,263210.54,281258.24,281264,2023-10-02T07:11:50Z,281274.9,NULL,Betrüger,mdanganyifu,s,mwanamuziki,wastani,mahakama,NA,sdf,NA,0,NA,NA,NA,NA,NA,NA,NA,NA,NA,NA,NA,NA,NA,NA,NA,NA,NA,NA,NA
4cbaa,task,flow.Sequence,3_0_0_0_2,NA,NA,completion,18047.7,263198,263193.88,263210.54,281258.24,281265,2023-10-02T07:11:50Z,281274.9,NULL,Betrüger,mdanganyifu,s,mwanamuziki,wastani,mahakama,NA,sdf,NA,0,NA,NA,NA,NA,NA,NA,NA,NA,NA,NA,NA,NA,NA,NA,NA,NA,NA,NA,NA
4cbaa,Deep Question,html.Page,3_0_0_0_3_0_0,NA,NA,form submission,7236.1,281265,281258.24,281274.9,288511,288512,2023-10-02T07:11:58Z,288524.02,NULL,Orientierung,urekebisho,d,NA,NA,NA,awieufdskfj,NA,NA,0,NA,NA,NA,NA,NA,NA,NA,NA,NA,NA,NA,NA,NA,NA,NA,NA,NA,NA,NA
4cbaa,"""Richtig""-Screen",canvas.Screen,3_0_0_0_3_0_1,NA,NA,skipped,NA,288516,NA,NA,288511,288517,2023-10-02T07:11:58Z,288524.02,NULL,Orientierung,urekebisho,d,NA,NA,NA,NA,sdf,NA,0,NA,NA,NA,NA,NA,NA,NA,NA,NA,NA,NA,NA,NA,NA,NA,NA,NA,NA,NA
4cbaa,"""Falsch""-Screen",canvas.Screen,3_0_0_0_3_0_2,NA,NA,timeout,4999.26,288519,288507.92,288524.02,293506.74,293509,2023-10-02T07:12:03Z,293523.28,NULL,Orientierung,urekebisho,d,NA,NA,NA,NA,sdf,0,0,NA,NA,NA,NA,NA,NA,NA,NA,NA,NA,NA,NA,NA,NA,NA,NA,NA,NA,NA
4cbaa,deep,flow.Sequence,3_0_0_0_3_0,NA,NA,completion,12231.84,281265,281258.24,281274.9,293506.74,293509,2023-10-02T07:12:03Z,293523.28,NULL,Orientierung,urekebisho,d,NA,NA,NA,NA,sdf,NA,0,NA,NA,NA,NA,NA,NA,NA,NA,NA,NA,NA,NA,NA,NA,NA,NA,NA,NA,NA
4cbaa,shallow,flow.Sequence,3_0_0_0_3_1,NA,NA,skipped,NA,293510,NA,NA,293506.74,293510,2023-10-02T07:12:03Z,293523.28,NULL,Orientierung,urekebisho,d,NA,NA,NA,NA,sdf,NA,0,NA,NA,NA,NA,NA,NA,NA,NA,NA,NA,NA,NA,NA,NA,NA,NA,NA,NA,NA
4cbaa,task,flow.Sequence,3_0_0_0_3,NA,NA,completion,12231.84,281265,281258.24,281274.9,293506.74,293511,2023-10-02T07:12:03Z,293523.28,NULL,Orientierung,urekebisho,d,NA,NA,NA,NA,sdf,NA,0,NA,NA,NA,NA,NA,NA,NA,NA,NA,NA,NA,NA,NA,NA,NA,NA,NA,NA,NA
4cbaa,deep,flow.Sequence,3_0_0_0_4_0,NA,NA,skipped,NA,293512,NA,NA,293506.74,293512,2023-10-02T07:12:03Z,293523.28,NULL,Ergänzung,kijalizo,s,ulaghai,mustarehe,matangazo,NA,sdf,NA,0,NA,NA,NA,NA,NA,NA,NA,NA,NA,NA,NA,NA,NA,NA,NA,NA,NA,NA,NA
4cbaa,Shallow Question,html.Page,3_0_0_0_4_1_0,NA,NA,form submission,10053.72,293513,293506.74,293523.28,303577,303578,2023-10-02T07:12:13Z,303588.7,NULL,Ergänzung,kijalizo,s,ulaghai,mustarehe,matangazo,mustarehe,NA,NA,0,NA,NA,NA,NA,NA,NA,NA,NA,NA,NA,NA,NA,NA,NA,NA,NA,NA,NA,NA
4cbaa,"""Richtig""-Screen",canvas.Screen,3_0_0_0_4_1_1,NA,NA,skipped,NA,303582,NA,NA,303577,303583,2023-10-02T07:12:13Z,303588.7,NULL,Ergänzung,kijalizo,s,ulaghai,mustarehe,matangazo,NA,sdf,NA,0,NA,NA,NA,NA,NA,NA,NA,NA,NA,NA,NA,NA,NA,NA,NA,NA,NA,NA,NA
4cbaa,"""Falsch""-Screen",canvas.Screen,3_0_0_0_4_1_2,NA,NA,timeout,4999.36,303588,303573.72,303588.7,308571.44,308572,2023-10-02T07:12:18Z,308588.06,NULL,Ergänzung,kijalizo,s,ulaghai,mustarehe,matangazo,NA,sdf,0,0,NA,NA,NA,NA,NA,NA,NA,NA,NA,NA,NA,NA,NA,NA,NA,NA,NA,NA,NA
4cbaa,shallow,flow.Sequence,3_0_0_0_4_1,NA,NA,completion,15048.16,293513,293506.74,293523.28,308571.44,308573,2023-10-02T07:12:18Z,308588.06,NULL,Ergänzung,kijalizo,s,ulaghai,mustarehe,matangazo,NA,sdf,NA,0,NA,NA,NA,NA,NA,NA,NA,NA,NA,NA,NA,NA,NA,NA,NA,NA,NA,NA,NA
4cbaa,task,flow.Sequence,3_0_0_0_4,NA,NA,completion,15048.16,293511,293506.74,293523.28,308571.44,308573,2023-10-02T07:12:18Z,308588.06,NULL,Ergänzung,kijalizo,s,ulaghai,mustarehe,matangazo,NA,sdf,NA,0,NA,NA,NA,NA,NA,NA,NA,NA,NA,NA,NA,NA,NA,NA,NA,NA,NA,NA,NA
4cbaa,Deep Question,html.Page,3_0_0_0_5_0_0,NA,NA,form submission,10573.94,308573,308571.44,308588.06,319162,319163,2023-10-02T07:12:28Z,319170.16,NULL,Vergnügen,kichekesho,d,NA,NA,NA,uerstoe,NA,NA,0,NA,NA,NA,NA,NA,NA,NA,NA,NA,NA,NA,NA,NA,NA,NA,NA,NA,NA,NA
4cbaa,"""Richtig""-Screen",canvas.Screen,3_0_0_0_5_0_1,NA,NA,skipped,NA,319169,NA,NA,319162,319169,2023-10-02T07:12:28Z,319170.16,NULL,Vergnügen,kichekesho,d,NA,NA,NA,NA,sdf,NA,0,NA,NA,NA,NA,NA,NA,NA,NA,NA,NA,NA,NA,NA,NA,NA,NA,NA,NA,NA
4cbaa,"""Falsch""-Screen",canvas.Screen,3_0_0_0_5_0_2,NA,NA,timeout,4999.28,319176,319156.98,319170.16,324152.78,324154,2023-10-02T07:12:33Z,324169.44,NULL,Vergnügen,kichekesho,d,NA,NA,NA,NA,sdf,0,0,NA,NA,NA,NA,NA,NA,NA,NA,NA,NA,NA,NA,NA,NA,NA,NA,NA,NA,NA
4cbaa,deep,flow.Sequence,3_0_0_0_5_0,NA,NA,completion,15564.72,308573,308571.44,308588.06,324152.78,324154,2023-10-02T07:12:33Z,324169.44,NULL,Vergnügen,kichekesho,d,NA,NA,NA,NA,sdf,NA,0,NA,NA,NA,NA,NA,NA,NA,NA,NA,NA,NA,NA,NA,NA,NA,NA,NA,NA,NA
4cbaa,shallow,flow.Sequence,3_0_0_0_5_1,NA,NA,skipped,NA,324155,NA,NA,324152.78,324155,2023-10-02T07:12:33Z,324169.44,NULL,Vergnügen,kichekesho,d,NA,NA,NA,NA,sdf,NA,0,NA,NA,NA,NA,NA,NA,NA,NA,NA,NA,NA,NA,NA,NA,NA,NA,NA,NA,NA
4cbaa,task,flow.Sequence,3_0_0_0_5,NA,NA,completion,15564.72,308573,308571.44,308588.06,324152.78,324156,2023-10-02T07:12:33Z,324169.44,NULL,Vergnügen,kichekesho,d,NA,NA,NA,NA,sdf,NA,0,NA,NA,NA,NA,NA,NA,NA,NA,NA,NA,NA,NA,NA,NA,NA,NA,NA,NA,NA
4cbaa,deep,flow.Sequence,3_0_0_0_6_0,NA,NA,skipped,NA,324156,NA,NA,324152.78,324156,2023-10-02T07:12:33Z,324169.44,NULL,Wohlstand,mafanikio,s,chimbuko,kumbuko,mapwaji,NA,sdf,NA,0,NA,NA,NA,NA,NA,NA,NA,NA,NA,NA,NA,NA,NA,NA,NA,NA,NA,NA,NA
4cbaa,Shallow Question,html.Page,3_0_0_0_6_1_0,NA,NA,form submission,11208.56,324156,324152.78,324169.44,335378,335378,2023-10-02T07:12:44Z,335384.6,NULL,Wohlstand,mafanikio,s,chimbuko,kumbuko,mapwaji,kumbuko,NA,NA,0,NA,NA,NA,NA,NA,NA,NA,NA,NA,NA,NA,NA,NA,NA,NA,NA,NA,NA,NA
4cbaa,"""Richtig""-Screen",canvas.Screen,3_0_0_0_6_1_1,NA,NA,skipped,NA,335380,NA,NA,335378,335380,2023-10-02T07:12:44Z,335384.6,NULL,Wohlstand,mafanikio,s,chimbuko,kumbuko,mapwaji,NA,sdf,NA,0,NA,NA,NA,NA,NA,NA,NA,NA,NA,NA,NA,NA,NA,NA,NA,NA,NA,NA,NA
4cbaa,"""Falsch""-Screen",canvas.Screen,3_0_0_0_6_1_2,NA,NA,timeout,4999.3,335382,335376.84,335384.6,340367.24,340369,2023-10-02T07:12:49Z,340383.9,NULL,Wohlstand,mafanikio,s,chimbuko,kumbuko,mapwaji,NA,sdf,0,0,NA,NA,NA,NA,NA,NA,NA,NA,NA,NA,NA,NA,NA,NA,NA,NA,NA,NA,NA
4cbaa,shallow,flow.Sequence,3_0_0_0_6_1,NA,NA,completion,16197.8,324156,324152.78,324169.44,340367.24,340370,2023-10-02T07:12:49Z,340383.9,NULL,Wohlstand,mafanikio,s,chimbuko,kumbuko,mapwaji,NA,sdf,NA,0,NA,NA,NA,NA,NA,NA,NA,NA,NA,NA,NA,NA,NA,NA,NA,NA,NA,NA,NA
4cbaa,task,flow.Sequence,3_0_0_0_6,NA,NA,completion,16197.8,324156,324152.78,324169.44,340367.24,340370,2023-10-02T07:12:49Z,340383.9,NULL,Wohlstand,mafanikio,s,chimbuko,kumbuko,mapwaji,NA,sdf,NA,0,NA,NA,NA,NA,NA,NA,NA,NA,NA,NA,NA,NA,NA,NA,NA,NA,NA,NA,NA
4cbaa,Deep Question,html.Page,3_0_0_0_7_0_0,NA,NA,form submission,6282.1,340371,340367.24,340383.9,346666,346666,2023-10-02T07:12:56Z,346666.36,NULL,Notfall,dharura,d,NA,NA,NA,sos,NA,NA,0,NA,NA,NA,NA,NA,NA,NA,NA,NA,NA,NA,NA,NA,NA,NA,NA,NA,NA,NA
4cbaa,"""Richtig""-Screen",canvas.Screen,3_0_0_0_7_0_1,NA,NA,skipped,NA,346670,NA,NA,346666,346670,2023-10-02T07:12:56Z,346666.36,NULL,Notfall,dharura,d,NA,NA,NA,NA,sdf,NA,0,NA,NA,NA,NA,NA,NA,NA,NA,NA,NA,NA,NA,NA,NA,NA,NA,NA,NA,NA
4cbaa,"""Falsch""-Screen",canvas.Screen,3_0_0_0_7_0_2,NA,NA,timeout,4999.5,346672,346662.5,346666.36,351649.2,351651,2023-10-02T07:13:01Z,351665.86,NULL,Notfall,dharura,d,NA,NA,NA,NA,sdf,0,0,NA,NA,NA,NA,NA,NA,NA,NA,NA,NA,NA,NA,NA,NA,NA,NA,NA,NA,NA
4cbaa,deep,flow.Sequence,3_0_0_0_7_0,NA,NA,completion,11265.3,340371,340367.24,340383.9,351649.2,351652,2023-10-02T07:13:01Z,351665.86,NULL,Notfall,dharura,d,NA,NA,NA,NA,sdf,NA,0,NA,NA,NA,NA,NA,NA,NA,NA,NA,NA,NA,NA,NA,NA,NA,NA,NA,NA,NA
4cbaa,shallow,flow.Sequence,3_0_0_0_7_1,NA,NA,skipped,NA,351652,NA,NA,351649.2,351653,2023-10-02T07:13:01Z,351665.86,NULL,Notfall,dharura,d,NA,NA,NA,NA,sdf,NA,0,NA,NA,NA,NA,NA,NA,NA,NA,NA,NA,NA,NA,NA,NA,NA,NA,NA,NA,NA
4cbaa,task,flow.Sequence,3_0_0_0_7,NA,NA,completion,11265.3,340371,340367.24,340383.9,351649.2,351653,2023-10-02T07:13:01Z,351665.86,NULL,Notfall,dharura,d,NA,NA,NA,NA,sdf,NA,0,NA,NA,NA,NA,NA,NA,NA,NA,NA,NA,NA,NA,NA,NA,NA,NA,NA,NA,NA
4cbaa,block,flow.Loop,3_0_0_0,NA,NA,completion,124289.2,227360,227359.72,227360,351649.2,351654,2023-10-02T07:13:01Z,351665.86,NULL,NA,NA,NA,NA,NA,NA,NA,sdf,NA,0,NA,NA,NA,NA,NA,NA,NA,NA,NA,NA,NA,NA,NA,NA,NA,NA,NA,NA,NA
4cbaa,weiter,canvas.Screen,3_0_0_1,sdf,keypress(Space),response,2059.14,351654,351649.2,351665.86,353725,353744,2023-10-02T07:13:03Z,353805.32,NULL,NA,NA,NA,NA,NA,NA,NA,sdf,NA,0,NA,NA,NA,NA,NA,NA,NA,NA,NA,NA,NA,NA,NA,NA,NA,NA,NA,NA,NA
4cbaa,check continue,flow.Sequence,3_0_0,NA,NA,completion,126365,227359,227359.72,227360,353725,353745,2023-10-02T07:13:03Z,353805.32,NULL,NA,NA,NA,NA,NA,NA,NA,sdf,NA,0,NA,NA,NA,NA,NA,NA,NA,NA,NA,NA,NA,NA,NA,NA,NA,NA,NA,NA,NA
4cbaa,deep,flow.Sequence,3_0_1_0_0_0,NA,NA,skipped,NA,353805,NA,NA,353725,353805,2023-10-02T07:13:03Z,353805.32,NULL,Wohlstand,mafanikio,s,chimbuko,kumbuko,mapwaji,NA,sdfdsf,NA,1,NA,NA,NA,NA,NA,NA,NA,NA,NA,NA,NA,NA,NA,NA,NA,NA,NA,NA,NA
4cbaa,Shallow Question,html.Page,3_0_1_0_0_1_0,NA,NA,form submission,8699.68,353805,353804.98,353805.32,362505,362506,2023-10-02T07:13:12Z,362514.44,NULL,Wohlstand,mafanikio,s,chimbuko,kumbuko,mapwaji,mafanikio,NA,NA,1,NA,NA,NA,NA,NA,NA,NA,NA,NA,NA,NA,NA,NA,NA,NA,NA,NA,NA,NA
4cbaa,"""Richtig""-Screen",canvas.Screen,3_0_1_0_0_1_1,NA,NA,timeout,4999.3,362508,362502.24,362514.44,367497.1,367498,2023-10-02T07:13:17Z,367513.74,NULL,Wohlstand,mafanikio,s,chimbuko,kumbuko,mapwaji,NA,sdfdsf,1,1,NA,NA,NA,NA,NA,NA,NA,NA,NA,NA,NA,NA,NA,NA,NA,NA,NA,NA,NA
4cbaa,"""Falsch""-Screen",canvas.Screen,3_0_1_0_0_1_2,NA,NA,skipped,NA,367505,NA,NA,367497.1,367506,2023-10-02T07:13:17Z,367513.74,NULL,Wohlstand,mafanikio,s,chimbuko,kumbuko,mapwaji,NA,sdfdsf,NA,1,NA,NA,NA,NA,NA,NA,NA,NA,NA,NA,NA,NA,NA,NA,NA,NA,NA,NA,NA
4cbaa,shallow,flow.Sequence,3_0_1_0_0_1,NA,NA,completion,13691.78,353805,353804.98,353805.32,367497.1,367506,2023-10-02T07:13:17Z,367513.74,NULL,Wohlstand,mafanikio,s,chimbuko,kumbuko,mapwaji,NA,sdfdsf,NA,1,NA,NA,NA,NA,NA,NA,NA,NA,NA,NA,NA,NA,NA,NA,NA,NA,NA,NA,NA
4cbaa,task,flow.Sequence,3_0_1_0_0,NA,NA,completion,13691.78,353805,353804.98,353805.32,367497.1,367507,2023-10-02T07:13:17Z,367513.74,NULL,Wohlstand,mafanikio,s,chimbuko,kumbuko,mapwaji,NA,sdfdsf,NA,1,NA,NA,NA,NA,NA,NA,NA,NA,NA,NA,NA,NA,NA,NA,NA,NA,NA,NA,NA
4cbaa,deep,flow.Sequence,3_0_1_0_1_0,NA,NA,skipped,NA,367507,NA,NA,367497.1,367507,2023-10-02T07:13:17Z,367513.74,NULL,Betrüger,mdanganyifu,s,mwanamuziki,wastani,mahakama,NA,sdfdsf,NA,1,NA,NA,NA,NA,NA,NA,NA,NA,NA,NA,NA,NA,NA,NA,NA,NA,NA,NA,NA
4cbaa,Shallow Question,html.Page,3_0_1_0_1_1_0,NA,NA,form submission,12278.26,367508,367497.1,367513.74,379792,379792,2023-10-02T07:13:29Z,379795.58,NULL,Betrüger,mdanganyifu,s,mwanamuziki,wastani,mahakama,mahakama,NA,NA,1,NA,NA,NA,NA,NA,NA,NA,NA,NA,NA,NA,NA,NA,NA,NA,NA,NA,NA,NA
4cbaa,"""Richtig""-Screen",canvas.Screen,3_0_1_0_1_1_1,NA,NA,skipped,NA,379798,NA,NA,379792,379798,2023-10-02T07:13:29Z,379795.58,NULL,Betrüger,mdanganyifu,s,mwanamuziki,wastani,mahakama,NA,sdfdsf,NA,1,NA,NA,NA,NA,NA,NA,NA,NA,NA,NA,NA,NA,NA,NA,NA,NA,NA,NA,NA
4cbaa,"""Falsch""-Screen",canvas.Screen,3_0_1_0_1_1_2,NA,NA,timeout,4999.26,379803,379786.52,379795.58,384778.18,384779,2023-10-02T07:13:34Z,384794.84,NULL,Betrüger,mdanganyifu,s,mwanamuziki,wastani,mahakama,NA,sdfdsf,0,1,NA,NA,NA,NA,NA,NA,NA,NA,NA,NA,NA,NA,NA,NA,NA,NA,NA,NA,NA
4cbaa,shallow,flow.Sequence,3_0_1_0_1_1,NA,NA,completion,17264.44,367508,367497.1,367513.74,384778.18,384779,2023-10-02T07:13:34Z,384794.84,NULL,Betrüger,mdanganyifu,s,mwanamuziki,wastani,mahakama,NA,sdfdsf,NA,1,NA,NA,NA,NA,NA,NA,NA,NA,NA,NA,NA,NA,NA,NA,NA,NA,NA,NA,NA
4cbaa,task,flow.Sequence,3_0_1_0_1,NA,NA,completion,17264.44,367507,367497.1,367513.74,384778.18,384780,2023-10-02T07:13:34Z,384794.84,NULL,Betrüger,mdanganyifu,s,mwanamuziki,wastani,mahakama,NA,sdfdsf,NA,1,NA,NA,NA,NA,NA,NA,NA,NA,NA,NA,NA,NA,NA,NA,NA,NA,NA,NA,NA
4cbaa,deep,flow.Sequence,3_0_1_0_2_0,NA,NA,skipped,NA,384780,NA,NA,384778.18,384780,2023-10-02T07:13:34Z,384794.84,NULL,Stimmung,kinyongo,s,kilekile,kisambo,madhehebu,NA,sdfdsf,NA,1,NA,NA,NA,NA,NA,NA,NA,NA,NA,NA,NA,NA,NA,NA,NA,NA,NA,NA,NA
4cbaa,Shallow Question,html.Page,3_0_1_0_2_1_0,NA,NA,form submission,5280.16,384780,384778.18,384794.84,390075,390076,2023-10-02T07:13:39Z,390077.3,NULL,Stimmung,kinyongo,s,kilekile,kisambo,madhehebu,kinyongo,NA,NA,1,NA,NA,NA,NA,NA,NA,NA,NA,NA,NA,NA,NA,NA,NA,NA,NA,NA,NA,NA
4cbaa,"""Richtig""-Screen",canvas.Screen,3_0_1_0_2_1_1,NA,NA,timeout,4999.62,390081,390069.66,390077.3,395060.26,395061,2023-10-02T07:13:44Z,395076.92,NULL,Stimmung,kinyongo,s,kilekile,kisambo,madhehebu,NA,sdfdsf,1,1,NA,NA,NA,NA,NA,NA,NA,NA,NA,NA,NA,NA,NA,NA,NA,NA,NA,NA,NA
4cbaa,"""Falsch""-Screen",canvas.Screen,3_0_1_0_2_1_2,NA,NA,skipped,NA,395069,NA,NA,395060.26,395069,2023-10-02T07:13:44Z,395076.92,NULL,Stimmung,kinyongo,s,kilekile,kisambo,madhehebu,NA,sdfdsf,NA,1,NA,NA,NA,NA,NA,NA,NA,NA,NA,NA,NA,NA,NA,NA,NA,NA,NA,NA,NA
4cbaa,shallow,flow.Sequence,3_0_1_0_2_1,NA,NA,completion,10265.42,384780,384778.18,384794.84,395060.26,395069,2023-10-02T07:13:44Z,395076.92,NULL,Stimmung,kinyongo,s,kilekile,kisambo,madhehebu,NA,sdfdsf,NA,1,NA,NA,NA,NA,NA,NA,NA,NA,NA,NA,NA,NA,NA,NA,NA,NA,NA,NA,NA
4cbaa,task,flow.Sequence,3_0_1_0_2,NA,NA,completion,10265.42,384780,384778.18,384794.84,395060.26,395070,2023-10-02T07:13:44Z,395076.92,NULL,Stimmung,kinyongo,s,kilekile,kisambo,madhehebu,NA,sdfdsf,NA,1,NA,NA,NA,NA,NA,NA,NA,NA,NA,NA,NA,NA,NA,NA,NA,NA,NA,NA,NA
4cbaa,Deep Question,html.Page,3_0_1_0_3_0_0,NA,NA,form submission,11338.08,395071,395060.26,395076.92,406415,406418,2023-10-02T07:13:55Z,406425.52,NULL,Orientierung,urekebisho,d,NA,NA,NA,bowerkfw,NA,NA,1,NA,NA,NA,NA,NA,NA,NA,NA,NA,NA,NA,NA,NA,NA,NA,NA,NA,NA,NA
4cbaa,"""Richtig""-Screen",canvas.Screen,3_0_1_0_3_0_1,NA,NA,skipped,NA,406425,NA,NA,406415,406425,2023-10-02T07:13:55Z,406425.52,NULL,Orientierung,urekebisho,d,NA,NA,NA,NA,sdfdsf,NA,1,NA,NA,NA,NA,NA,NA,NA,NA,NA,NA,NA,NA,NA,NA,NA,NA,NA,NA,NA
4cbaa,"""Falsch""-Screen",canvas.Screen,3_0_1_0_3_0_2,NA,NA,timeout,4999.3,406428,406407.92,406425.52,411408.18,411410,2023-10-02T07:14:00Z,411424.82,NULL,Orientierung,urekebisho,d,NA,NA,NA,NA,sdfdsf,0,1,NA,NA,NA,NA,NA,NA,NA,NA,NA,NA,NA,NA,NA,NA,NA,NA,NA,NA,NA
4cbaa,deep,flow.Sequence,3_0_1_0_3_0,NA,NA,completion,16331.26,395070,395060.26,395076.92,411408.18,411411,2023-10-02T07:14:00Z,411424.82,NULL,Orientierung,urekebisho,d,NA,NA,NA,NA,sdfdsf,NA,1,NA,NA,NA,NA,NA,NA,NA,NA,NA,NA,NA,NA,NA,NA,NA,NA,NA,NA,NA
4cbaa,shallow,flow.Sequence,3_0_1_0_3_1,NA,NA,skipped,NA,411411,NA,NA,411408.18,411412,2023-10-02T07:14:00Z,411424.82,NULL,Orientierung,urekebisho,d,NA,NA,NA,NA,sdfdsf,NA,1,NA,NA,NA,NA,NA,NA,NA,NA,NA,NA,NA,NA,NA,NA,NA,NA,NA,NA,NA
4cbaa,task,flow.Sequence,3_0_1_0_3,NA,NA,completion,16331.26,395070,395060.26,395076.92,411408.18,411413,2023-10-02T07:14:00Z,411424.82,NULL,Orientierung,urekebisho,d,NA,NA,NA,NA,sdfdsf,NA,1,NA,NA,NA,NA,NA,NA,NA,NA,NA,NA,NA,NA,NA,NA,NA,NA,NA,NA,NA
4cbaa,Deep Question,html.Page,3_0_1_0_4_0_0,NA,NA,form submission,26107.18,411413,411408.18,411424.82,437532,437532,2023-10-02T07:14:27Z,437538.16,NULL,Notfall,dharura,d,NA,NA,NA,sdofweifj,NA,NA,1,NA,NA,NA,NA,NA,NA,NA,NA,NA,NA,NA,NA,NA,NA,NA,NA,NA,NA,NA
4cbaa,"""Richtig""-Screen",canvas.Screen,3_0_1_0_4_0_1,NA,NA,skipped,NA,437534,NA,NA,437532,437534,2023-10-02T07:14:27Z,437538.16,NULL,Notfall,dharura,d,NA,NA,NA,NA,sdfdsf,NA,1,NA,NA,NA,NA,NA,NA,NA,NA,NA,NA,NA,NA,NA,NA,NA,NA,NA,NA,NA
4cbaa,"""Falsch""-Screen",canvas.Screen,3_0_1_0_4_0_2,NA,NA,timeout,4999.34,437536,437528.28,437538.16,442520.86,442522,2023-10-02T07:14:32Z,442537.5,NULL,Notfall,dharura,d,NA,NA,NA,NA,sdfdsf,0,1,NA,NA,NA,NA,NA,NA,NA,NA,NA,NA,NA,NA,NA,NA,NA,NA,NA,NA,NA
4cbaa,deep,flow.Sequence,3_0_1_0_4_0,NA,NA,completion,31096.04,411413,411408.18,411424.82,442520.86,442523,2023-10-02T07:14:32Z,442537.5,NULL,Notfall,dharura,d,NA,NA,NA,NA,sdfdsf,NA,1,NA,NA,NA,NA,NA,NA,NA,NA,NA,NA,NA,NA,NA,NA,NA,NA,NA,NA,NA
4cbaa,shallow,flow.Sequence,3_0_1_0_4_1,NA,NA,skipped,NA,442523,NA,NA,442520.86,442524,2023-10-02T07:14:32Z,442537.5,NULL,Notfall,dharura,d,NA,NA,NA,NA,sdfdsf,NA,1,NA,NA,NA,NA,NA,NA,NA,NA,NA,NA,NA,NA,NA,NA,NA,NA,NA,NA,NA
4cbaa,task,flow.Sequence,3_0_1_0_4,NA,NA,completion,31096.04,411413,411408.18,411424.82,442520.86,442525,2023-10-02T07:14:32Z,442537.5,NULL,Notfall,dharura,d,NA,NA,NA,NA,sdfdsf,NA,1,NA,NA,NA,NA,NA,NA,NA,NA,NA,NA,NA,NA,NA,NA,NA,NA,NA,NA,NA
4cbaa,deep,flow.Sequence,3_0_1_0_5_0,NA,NA,skipped,NA,442525,NA,NA,442520.86,442525,2023-10-02T07:14:32Z,442537.5,NULL,Ergänzung,kijalizo,s,ulaghai,mustarehe,matangazo,NA,sdfdsf,NA,1,NA,NA,NA,NA,NA,NA,NA,NA,NA,NA,NA,NA,NA,NA,NA,NA,NA,NA,NA
4cbaa,Shallow Question,html.Page,3_0_1_0_5_1_0,NA,NA,form submission,15044.5,442526,442520.86,442537.5,457582,457583,2023-10-02T07:14:47Z,457585.62,NULL,Ergänzung,kijalizo,s,ulaghai,mustarehe,matangazo,ulaghai,NA,NA,1,NA,NA,NA,NA,NA,NA,NA,NA,NA,NA,NA,NA,NA,NA,NA,NA,NA,NA,NA
4cbaa,"""Richtig""-Screen",canvas.Screen,3_0_1_0_5_1_1,NA,NA,skipped,NA,457585,NA,NA,457582,457586,2023-10-02T07:14:47Z,457585.62,NULL,Ergänzung,kijalizo,s,ulaghai,mustarehe,matangazo,NA,sdfdsf,NA,1,NA,NA,NA,NA,NA,NA,NA,NA,NA,NA,NA,NA,NA,NA,NA,NA,NA,NA,NA
4cbaa,"""Falsch""-Screen",canvas.Screen,3_0_1_0_5_1_2,NA,NA,timeout,4999.3,457589,457579.02,457585.62,462568.26,462569,2023-10-02T07:14:52Z,462584.92,NULL,Ergänzung,kijalizo,s,ulaghai,mustarehe,matangazo,NA,sdfdsf,0,1,NA,NA,NA,NA,NA,NA,NA,NA,NA,NA,NA,NA,NA,NA,NA,NA,NA,NA,NA
4cbaa,shallow,flow.Sequence,3_0_1_0_5_1,NA,NA,completion,20030.76,442526,442520.86,442537.5,462568.26,462571,2023-10-02T07:14:52Z,462584.92,NULL,Ergänzung,kijalizo,s,ulaghai,mustarehe,matangazo,NA,sdfdsf,NA,1,NA,NA,NA,NA,NA,NA,NA,NA,NA,NA,NA,NA,NA,NA,NA,NA,NA,NA,NA
4cbaa,task,flow.Sequence,3_0_1_0_5,NA,NA,completion,20030.76,442525,442520.86,442537.5,462568.26,462572,2023-10-02T07:14:52Z,462584.92,NULL,Ergänzung,kijalizo,s,ulaghai,mustarehe,matangazo,NA,sdfdsf,NA,1,NA,NA,NA,NA,NA,NA,NA,NA,NA,NA,NA,NA,NA,NA,NA,NA,NA,NA,NA
4cbaa,Deep Question,html.Page,3_0_1_0_6_0_0,NA,NA,form submission,5904.08,462573,462568.26,462584.92,468489,468489,2023-10-02T07:14:58Z,468500.52,NULL,Respekt,heshima,d,NA,NA,NA,aoivjafd,NA,NA,1,NA,NA,NA,NA,NA,NA,NA,NA,NA,NA,NA,NA,NA,NA,NA,NA,NA,NA,NA
4cbaa,"""Richtig""-Screen",canvas.Screen,3_0_1_0_6_0_1,NA,NA,skipped,NA,468495,NA,NA,468489,468495,2023-10-02T07:14:58Z,468500.52,NULL,Respekt,heshima,d,NA,NA,NA,NA,sdfdsf,NA,1,NA,NA,NA,NA,NA,NA,NA,NA,NA,NA,NA,NA,NA,NA,NA,NA,NA,NA,NA
4cbaa,"""Falsch""-Screen",canvas.Screen,3_0_1_0_6_0_2,NA,NA,timeout,4999.66,468500,468481.8,468500.52,473483.54,473485,2023-10-02T07:15:03Z,473500.18,NULL,Respekt,heshima,d,NA,NA,NA,NA,sdfdsf,0,1,NA,NA,NA,NA,NA,NA,NA,NA,NA,NA,NA,NA,NA,NA,NA,NA,NA,NA,NA
4cbaa,deep,flow.Sequence,3_0_1_0_6_0,NA,NA,completion,10898.62,462572,462568.26,462584.92,473483.54,473485,2023-10-02T07:15:03Z,473500.18,NULL,Respekt,heshima,d,NA,NA,NA,NA,sdfdsf,NA,1,NA,NA,NA,NA,NA,NA,NA,NA,NA,NA,NA,NA,NA,NA,NA,NA,NA,NA,NA
4cbaa,shallow,flow.Sequence,3_0_1_0_6_1,NA,NA,skipped,NA,473486,NA,NA,473483.54,473486,2023-10-02T07:15:03Z,473500.18,NULL,Respekt,heshima,d,NA,NA,NA,NA,sdfdsf,NA,1,NA,NA,NA,NA,NA,NA,NA,NA,NA,NA,NA,NA,NA,NA,NA,NA,NA,NA,NA
4cbaa,task,flow.Sequence,3_0_1_0_6,NA,NA,completion,10898.62,462572,462568.26,462584.92,473483.54,473486,2023-10-02T07:15:03Z,473500.18,NULL,Respekt,heshima,d,NA,NA,NA,NA,sdfdsf,NA,1,NA,NA,NA,NA,NA,NA,NA,NA,NA,NA,NA,NA,NA,NA,NA,NA,NA,NA,NA
4cbaa,Deep Question,html.Page,3_0_1_0_7_0_0,NA,NA,form submission,8723.82,473487,473483.54,473500.18,482224,482224,2023-10-02T07:15:11Z,482232.3,NULL,Vergnügen,kichekesho,d,NA,NA,NA,fwoefkwef,NA,NA,1,NA,NA,NA,NA,NA,NA,NA,NA,NA,NA,NA,NA,NA,NA,NA,NA,NA,NA,NA
4cbaa,"""Richtig""-Screen",canvas.Screen,3_0_1_0_7_0_1,NA,NA,skipped,NA,482226,NA,NA,482224,482226,2023-10-02T07:15:11Z,482232.3,NULL,Vergnügen,kichekesho,d,NA,NA,NA,NA,sdfdsf,NA,1,NA,NA,NA,NA,NA,NA,NA,NA,NA,NA,NA,NA,NA,NA,NA,NA,NA,NA,NA
4cbaa,"""Falsch""-Screen",canvas.Screen,3_0_1_0_7_0_2,NA,NA,timeout,4999.38,482228,482222.28,482232.3,487215.02,487217,2023-10-02T07:15:16Z,487231.68,NULL,Vergnügen,kichekesho,d,NA,NA,NA,NA,sdfdsf,0,1,NA,NA,NA,NA,NA,NA,NA,NA,NA,NA,NA,NA,NA,NA,NA,NA,NA,NA,NA
4cbaa,deep,flow.Sequence,3_0_1_0_7_0,NA,NA,completion,13714.84,473487,473483.54,473500.18,487215.02,487218,2023-10-02T07:15:16Z,487231.68,NULL,Vergnügen,kichekesho,d,NA,NA,NA,NA,sdfdsf,NA,1,NA,NA,NA,NA,NA,NA,NA,NA,NA,NA,NA,NA,NA,NA,NA,NA,NA,NA,NA
4cbaa,shallow,flow.Sequence,3_0_1_0_7_1,NA,NA,skipped,NA,487218,NA,NA,487215.02,487218,2023-10-02T07:15:16Z,487231.68,NULL,Vergnügen,kichekesho,d,NA,NA,NA,NA,sdfdsf,NA,1,NA,NA,NA,NA,NA,NA,NA,NA,NA,NA,NA,NA,NA,NA,NA,NA,NA,NA,NA
4cbaa,task,flow.Sequence,3_0_1_0_7,NA,NA,completion,13714.84,473487,473483.54,473500.18,487215.02,487219,2023-10-02T07:15:16Z,487231.68,NULL,Vergnügen,kichekesho,d,NA,NA,NA,NA,sdfdsf,NA,1,NA,NA,NA,NA,NA,NA,NA,NA,NA,NA,NA,NA,NA,NA,NA,NA,NA,NA,NA
4cbaa,block,flow.Loop,3_0_1_0,NA,NA,completion,133409.7,353805,353804.98,353805.32,487215.02,487220,2023-10-02T07:15:16Z,487231.68,NULL,NA,NA,NA,NA,NA,NA,NA,sdfdsf,NA,1,NA,NA,NA,NA,NA,NA,NA,NA,NA,NA,NA,NA,NA,NA,NA,NA,NA,NA,NA
4cbaa,weiter,canvas.Screen,3_0_1_1,sdf,keypress(Space),response,1524.32,487220,487215.02,487231.68,488756,488767,2023-10-02T07:15:18Z,488805.06,NULL,NA,NA,NA,NA,NA,NA,NA,sdfdsf,NA,1,NA,NA,NA,NA,NA,NA,NA,NA,NA,NA,NA,NA,NA,NA,NA,NA,NA,NA,NA
4cbaa,check continue,flow.Sequence,3_0_1,NA,NA,completion,134950.68,353805,353804.98,353805.32,488756,488767,2023-10-02T07:15:18Z,488805.06,NULL,NA,NA,NA,NA,NA,NA,NA,sdfdsf,NA,1,NA,NA,NA,NA,NA,NA,NA,NA,NA,NA,NA,NA,NA,NA,NA,NA,NA,NA,NA
4cbaa,deep,flow.Sequence,3_0_2_0_0_0,NA,NA,skipped,NA,488804,NA,NA,488756,488804,2023-10-02T07:15:18Z,488805.06,NULL,Wohlstand,mafanikio,s,chimbuko,kumbuko,mapwaji,NA,sdf,NA,2,NA,NA,NA,NA,NA,NA,NA,NA,NA,NA,NA,NA,NA,NA,NA,NA,NA,NA,NA
4cbaa,Shallow Question,html.Page,3_0_2_0_0_1_0,NA,NA,form submission,6931.94,488804,488804.76,488805.06,495737,495738,2023-10-02T07:15:25Z,495747.32,NULL,Wohlstand,mafanikio,s,chimbuko,kumbuko,mapwaji,mafanikio,NA,NA,2,NA,NA,NA,NA,NA,NA,NA,NA,NA,NA,NA,NA,NA,NA,NA,NA,NA,NA,NA
4cbaa,"""Richtig""-Screen",canvas.Screen,3_0_2_0_0_1_1,NA,NA,timeout,4999.4,495743,495731.92,495747.32,500730.06,500732,2023-10-02T07:15:30Z,500746.72,NULL,Wohlstand,mafanikio,s,chimbuko,kumbuko,mapwaji,NA,sdf,1,2,NA,NA,NA,NA,NA,NA,NA,NA,NA,NA,NA,NA,NA,NA,NA,NA,NA,NA,NA
4cbaa,"""Falsch""-Screen",canvas.Screen,3_0_2_0_0_1_2,NA,NA,skipped,NA,500739,NA,NA,500730.06,500739,2023-10-02T07:15:30Z,500746.72,NULL,Wohlstand,mafanikio,s,chimbuko,kumbuko,mapwaji,NA,sdf,NA,2,NA,NA,NA,NA,NA,NA,NA,NA,NA,NA,NA,NA,NA,NA,NA,NA,NA,NA,NA
4cbaa,shallow,flow.Sequence,3_0_2_0_0_1,NA,NA,completion,11925,488804,488804.76,488805.06,500730.06,500740,2023-10-02T07:15:30Z,500746.72,NULL,Wohlstand,mafanikio,s,chimbuko,kumbuko,mapwaji,NA,sdf,NA,2,NA,NA,NA,NA,NA,NA,NA,NA,NA,NA,NA,NA,NA,NA,NA,NA,NA,NA,NA
4cbaa,task,flow.Sequence,3_0_2_0_0,NA,NA,completion,11925,488804,488804.76,488805.06,500730.06,500740,2023-10-02T07:15:30Z,500746.72,NULL,Wohlstand,mafanikio,s,chimbuko,kumbuko,mapwaji,NA,sdf,NA,2,NA,NA,NA,NA,NA,NA,NA,NA,NA,NA,NA,NA,NA,NA,NA,NA,NA,NA,NA
4cbaa,Deep Question,html.Page,3_0_2_0_1_0_0,NA,NA,form submission,15681.28,500742,500730.06,500746.72,516428,516428,2023-10-02T07:15:45Z,516428,NULL,Vergnügen,kichekesho,d,NA,NA,NA,kicheschae,NA,NA,2,NA,NA,NA,NA,NA,NA,NA,NA,NA,NA,NA,NA,NA,NA,NA,NA,NA,NA,NA
4cbaa,"""Richtig""-Screen",canvas.Screen,3_0_2_0_1_0_1,NA,NA,skipped,NA,516431,NA,NA,516428,516431,2023-10-02T07:15:45Z,516428,NULL,Vergnügen,kichekesho,d,NA,NA,NA,NA,sdf,NA,2,NA,NA,NA,NA,NA,NA,NA,NA,NA,NA,NA,NA,NA,NA,NA,NA,NA,NA,NA
4cbaa,"""Falsch""-Screen",canvas.Screen,3_0_2_0_1_0_2,NA,NA,timeout,4999.36,516439,516421.68,516428,521410.7,521412,2023-10-02T07:15:50Z,521427.36,NULL,Vergnügen,kichekesho,d,NA,NA,NA,NA,sdf,0,2,NA,NA,NA,NA,NA,NA,NA,NA,NA,NA,NA,NA,NA,NA,NA,NA,NA,NA,NA
4cbaa,deep,flow.Sequence,3_0_2_0_1_0,NA,NA,completion,20663.98,500742,500730.06,500746.72,521410.7,521412,2023-10-02T07:15:50Z,521427.36,NULL,Vergnügen,kichekesho,d,NA,NA,NA,NA,sdf,NA,2,NA,NA,NA,NA,NA,NA,NA,NA,NA,NA,NA,NA,NA,NA,NA,NA,NA,NA,NA
4cbaa,shallow,flow.Sequence,3_0_2_0_1_1,NA,NA,skipped,NA,521412,NA,NA,521410.7,521413,2023-10-02T07:15:50Z,521427.36,NULL,Vergnügen,kichekesho,d,NA,NA,NA,NA,sdf,NA,2,NA,NA,NA,NA,NA,NA,NA,NA,NA,NA,NA,NA,NA,NA,NA,NA,NA,NA,NA
4cbaa,task,flow.Sequence,3_0_2_0_1,NA,NA,completion,20663.98,500741,500730.06,500746.72,521410.7,521413,2023-10-02T07:15:50Z,521427.36,NULL,Vergnügen,kichekesho,d,NA,NA,NA,NA,sdf,NA,2,NA,NA,NA,NA,NA,NA,NA,NA,NA,NA,NA,NA,NA,NA,NA,NA,NA,NA,NA
4cbaa,deep,flow.Sequence,3_0_2_0_2_0,NA,NA,skipped,NA,521413,NA,NA,521410.7,521413,2023-10-02T07:15:50Z,521427.36,NULL,Ergänzung,kijalizo,s,ulaghai,mustarehe,matangazo,NA,sdf,NA,2,NA,NA,NA,NA,NA,NA,NA,NA,NA,NA,NA,NA,NA,NA,NA,NA,NA,NA,NA
4cbaa,Shallow Question,html.Page,3_0_2_0_2_1_0,NA,NA,form submission,7736.64,521413,521410.7,521427.36,529164,529166,2023-10-02T07:15:58Z,529176.36,NULL,Ergänzung,kijalizo,s,ulaghai,mustarehe,matangazo,kijalizo,NA,NA,2,NA,NA,NA,NA,NA,NA,NA,NA,NA,NA,NA,NA,NA,NA,NA,NA,NA,NA,NA
4cbaa,"""Richtig""-Screen",canvas.Screen,3_0_2_0_2_1_1,NA,NA,timeout,4999.36,529172,529160.28,529176.36,534159.14,534163,2023-10-02T07:16:03Z,534175.72,NULL,Ergänzung,kijalizo,s,ulaghai,mustarehe,matangazo,NA,sdf,1,2,NA,NA,NA,NA,NA,NA,NA,NA,NA,NA,NA,NA,NA,NA,NA,NA,NA,NA,NA
4cbaa,"""Falsch""-Screen",canvas.Screen,3_0_2_0_2_1_2,NA,NA,skipped,NA,534172,NA,NA,534159.14,534172,2023-10-02T07:16:03Z,534175.72,NULL,Ergänzung,kijalizo,s,ulaghai,mustarehe,matangazo,NA,sdf,NA,2,NA,NA,NA,NA,NA,NA,NA,NA,NA,NA,NA,NA,NA,NA,NA,NA,NA,NA,NA
4cbaa,shallow,flow.Sequence,3_0_2_0_2_1,NA,NA,completion,12731.78,521413,521410.7,521427.36,534159.14,534172,2023-10-02T07:16:03Z,534175.72,NULL,Ergänzung,kijalizo,s,ulaghai,mustarehe,matangazo,NA,sdf,NA,2,NA,NA,NA,NA,NA,NA,NA,NA,NA,NA,NA,NA,NA,NA,NA,NA,NA,NA,NA
4cbaa,task,flow.Sequence,3_0_2_0_2,NA,NA,completion,12731.78,521413,521410.7,521427.36,534159.14,534172,2023-10-02T07:16:03Z,534175.72,NULL,Ergänzung,kijalizo,s,ulaghai,mustarehe,matangazo,NA,sdf,NA,2,NA,NA,NA,NA,NA,NA,NA,NA,NA,NA,NA,NA,NA,NA,NA,NA,NA,NA,NA
4cbaa,deep,flow.Sequence,3_0_2_0_3_0,NA,NA,skipped,NA,534173,NA,NA,534159.14,534173,2023-10-02T07:16:03Z,534175.72,NULL,Stimmung,kinyongo,s,kilekile,kisambo,madhehebu,NA,sdf,NA,2,NA,NA,NA,NA,NA,NA,NA,NA,NA,NA,NA,NA,NA,NA,NA,NA,NA,NA,NA
4cbaa,Shallow Question,html.Page,3_0_2_0_3_1_0,NA,NA,form submission,3955.28,534173,534159.14,534175.72,538131,538133,2023-10-02T07:16:07Z,538141.88,NULL,Stimmung,kinyongo,s,kilekile,kisambo,madhehebu,kinyongo,NA,NA,2,NA,NA,NA,NA,NA,NA,NA,NA,NA,NA,NA,NA,NA,NA,NA,NA,NA,NA,NA
4cbaa,"""Richtig""-Screen",canvas.Screen,3_0_2_0_3_1_1,NA,NA,timeout,4999.24,538138,538122.9,538141.88,543124.46,543125,2023-10-02T07:16:12Z,543141.12,NULL,Stimmung,kinyongo,s,kilekile,kisambo,madhehebu,NA,sdf,1,2,NA,NA,NA,NA,NA,NA,NA,NA,NA,NA,NA,NA,NA,NA,NA,NA,NA,NA,NA
4cbaa,"""Falsch""-Screen",canvas.Screen,3_0_2_0_3_1_2,NA,NA,skipped,NA,543129,NA,NA,543124.46,543129,2023-10-02T07:16:12Z,543141.12,NULL,Stimmung,kinyongo,s,kilekile,kisambo,madhehebu,NA,sdf,NA,2,NA,NA,NA,NA,NA,NA,NA,NA,NA,NA,NA,NA,NA,NA,NA,NA,NA,NA,NA
4cbaa,shallow,flow.Sequence,3_0_2_0_3_1,NA,NA,completion,8948.74,534173,534159.14,534175.72,543124.46,543130,2023-10-02T07:16:12Z,543141.12,NULL,Stimmung,kinyongo,s,kilekile,kisambo,madhehebu,NA,sdf,NA,2,NA,NA,NA,NA,NA,NA,NA,NA,NA,NA,NA,NA,NA,NA,NA,NA,NA,NA,NA
4cbaa,task,flow.Sequence,3_0_2_0_3,NA,NA,completion,8948.74,534172,534159.14,534175.72,543124.46,543130,2023-10-02T07:16:12Z,543141.12,NULL,Stimmung,kinyongo,s,kilekile,kisambo,madhehebu,NA,sdf,NA,2,NA,NA,NA,NA,NA,NA,NA,NA,NA,NA,NA,NA,NA,NA,NA,NA,NA,NA,NA
4cbaa,Deep Question,html.Page,3_0_2_0_4_0_0,NA,NA,form submission,5498.88,543130,543124.46,543141.12,548640,548641,2023-10-02T07:16:18Z,548640.6,NULL,Orientierung,urekebisho,d,NA,NA,NA,fjoaweifj,NA,NA,2,NA,NA,NA,NA,NA,NA,NA,NA,NA,NA,NA,NA,NA,NA,NA,NA,NA,NA,NA
4cbaa,"""Richtig""-Screen",canvas.Screen,3_0_2_0_4_0_1,NA,NA,skipped,NA,548647,NA,NA,548640,548647,2023-10-02T07:16:18Z,548640.6,NULL,Orientierung,urekebisho,d,NA,NA,NA,NA,sdf,NA,2,NA,NA,NA,NA,NA,NA,NA,NA,NA,NA,NA,NA,NA,NA,NA,NA,NA,NA,NA
4cbaa,"""Falsch""-Screen",canvas.Screen,3_0_2_0_4_0_2,NA,NA,timeout,4999.28,548651,548633.54,548640.6,553623.22,553625,2023-10-02T07:16:23Z,553639.88,NULL,Orientierung,urekebisho,d,NA,NA,NA,NA,sdf,0,2,NA,NA,NA,NA,NA,NA,NA,NA,NA,NA,NA,NA,NA,NA,NA,NA,NA,NA,NA
4cbaa,deep,flow.Sequence,3_0_2_0_4_0,NA,NA,completion,10482.1,543130,543124.46,543141.12,553623.22,553625,2023-10-02T07:16:23Z,553639.88,NULL,Orientierung,urekebisho,d,NA,NA,NA,NA,sdf,NA,2,NA,NA,NA,NA,NA,NA,NA,NA,NA,NA,NA,NA,NA,NA,NA,NA,NA,NA,NA
4cbaa,shallow,flow.Sequence,3_0_2_0_4_1,NA,NA,skipped,NA,553626,NA,NA,553623.22,553626,2023-10-02T07:16:23Z,553639.88,NULL,Orientierung,urekebisho,d,NA,NA,NA,NA,sdf,NA,2,NA,NA,NA,NA,NA,NA,NA,NA,NA,NA,NA,NA,NA,NA,NA,NA,NA,NA,NA
4cbaa,task,flow.Sequence,3_0_2_0_4,NA,NA,completion,10482.1,543130,543124.46,543141.12,553623.22,553626,2023-10-02T07:16:23Z,553639.88,NULL,Orientierung,urekebisho,d,NA,NA,NA,NA,sdf,NA,2,NA,NA,NA,NA,NA,NA,NA,NA,NA,NA,NA,NA,NA,NA,NA,NA,NA,NA,NA
4cbaa,Deep Question,html.Page,3_0_2_0_5_0_0,NA,NA,form submission,5904.12,553627,553623.22,553639.88,559544,559544,2023-10-02T07:16:29Z,559555.66,NULL,Respekt,heshima,d,NA,NA,NA,sdafaewf,NA,NA,2,NA,NA,NA,NA,NA,NA,NA,NA,NA,NA,NA,NA,NA,NA,NA,NA,NA,NA,NA
4cbaa,"""Richtig""-Screen",canvas.Screen,3_0_2_0_5_0_1,NA,NA,skipped,NA,559547,NA,NA,559544,559547,2023-10-02T07:16:29Z,559555.66,NULL,Respekt,heshima,d,NA,NA,NA,NA,sdf,NA,2,NA,NA,NA,NA,NA,NA,NA,NA,NA,NA,NA,NA,NA,NA,NA,NA,NA,NA,NA
4cbaa,"""Falsch""-Screen",canvas.Screen,3_0_2_0_5_0_2,NA,NA,timeout,4999.5,559549,559542.52,559555.66,564538.5,564540,2023-10-02T07:16:34Z,564555.16,NULL,Respekt,heshima,d,NA,NA,NA,NA,sdf,0,2,NA,NA,NA,NA,NA,NA,NA,NA,NA,NA,NA,NA,NA,NA,NA,NA,NA,NA,NA
4cbaa,deep,flow.Sequence,3_0_2_0_5_0,NA,NA,completion,10898.62,553626,553623.22,553639.88,564538.5,564541,2023-10-02T07:16:34Z,564555.16,NULL,Respekt,heshima,d,NA,NA,NA,NA,sdf,NA,2,NA,NA,NA,NA,NA,NA,NA,NA,NA,NA,NA,NA,NA,NA,NA,NA,NA,NA,NA
4cbaa,shallow,flow.Sequence,3_0_2_0_5_1,NA,NA,skipped,NA,564541,NA,NA,564538.5,564542,2023-10-02T07:16:34Z,564555.16,NULL,Respekt,heshima,d,NA,NA,NA,NA,sdf,NA,2,NA,NA,NA,NA,NA,NA,NA,NA,NA,NA,NA,NA,NA,NA,NA,NA,NA,NA,NA
4cbaa,task,flow.Sequence,3_0_2_0_5,NA,NA,completion,10898.62,553626,553623.22,553639.88,564538.5,564543,2023-10-02T07:16:34Z,564555.16,NULL,Respekt,heshima,d,NA,NA,NA,NA,sdf,NA,2,NA,NA,NA,NA,NA,NA,NA,NA,NA,NA,NA,NA,NA,NA,NA,NA,NA,NA,NA
4cbaa,Deep Question,html.Page,3_0_2_0_6_0_0,NA,NA,form submission,10432.84,564544,564538.5,564555.16,574988,574989,2023-10-02T07:16:44Z,574987.1,NULL,Notfall,dharura,d,NA,NA,NA,herekshaa,NA,NA,2,NA,NA,NA,NA,NA,NA,NA,NA,NA,NA,NA,NA,NA,NA,NA,NA,NA,NA,NA
4cbaa,"""Richtig""-Screen",canvas.Screen,3_0_2_0_6_0_1,NA,NA,skipped,NA,574990,NA,NA,574988,574990,2023-10-02T07:16:44Z,574987.1,NULL,Notfall,dharura,d,NA,NA,NA,NA,sdf,NA,2,NA,NA,NA,NA,NA,NA,NA,NA,NA,NA,NA,NA,NA,NA,NA,NA,NA,NA,NA
4cbaa,"""Falsch""-Screen",canvas.Screen,3_0_2_0_6_0_2,NA,NA,timeout,4999.36,574992,574986.46,574987.1,579969.8,579971,2023-10-02T07:16:49Z,579986.46,NULL,Notfall,dharura,d,NA,NA,NA,NA,sdf,0,2,NA,NA,NA,NA,NA,NA,NA,NA,NA,NA,NA,NA,NA,NA,NA,NA,NA,NA,NA
4cbaa,deep,flow.Sequence,3_0_2_0_6_0,NA,NA,completion,15414.64,564543,564538.5,564555.16,579969.8,579971,2023-10-02T07:16:49Z,579986.46,NULL,Notfall,dharura,d,NA,NA,NA,NA,sdf,NA,2,NA,NA,NA,NA,NA,NA,NA,NA,NA,NA,NA,NA,NA,NA,NA,NA,NA,NA,NA
4cbaa,shallow,flow.Sequence,3_0_2_0_6_1,NA,NA,skipped,NA,579972,NA,NA,579969.8,579972,2023-10-02T07:16:49Z,579986.46,NULL,Notfall,dharura,d,NA,NA,NA,NA,sdf,NA,2,NA,NA,NA,NA,NA,NA,NA,NA,NA,NA,NA,NA,NA,NA,NA,NA,NA,NA,NA
4cbaa,task,flow.Sequence,3_0_2_0_6,NA,NA,completion,15414.64,564543,564538.5,564555.16,579969.8,579972,2023-10-02T07:16:49Z,579986.46,NULL,Notfall,dharura,d,NA,NA,NA,NA,sdf,NA,2,NA,NA,NA,NA,NA,NA,NA,NA,NA,NA,NA,NA,NA,NA,NA,NA,NA,NA,NA
4cbaa,deep,flow.Sequence,3_0_2_0_7_0,NA,NA,skipped,NA,579973,NA,NA,579969.8,579973,2023-10-02T07:16:49Z,579986.46,NULL,Betrüger,mdanganyifu,s,mwanamuziki,wastani,mahakama,NA,sdf,NA,2,NA,NA,NA,NA,NA,NA,NA,NA,NA,NA,NA,NA,NA,NA,NA,NA,NA,NA,NA
4cbaa,Shallow Question,html.Page,3_0_2_0_7_1_0,NA,NA,form submission,7335.54,579973,579969.8,579986.46,587322,587323,2023-10-02T07:16:56Z,587318.92,NULL,Betrüger,mdanganyifu,s,mwanamuziki,wastani,mahakama,mdanganyifu,NA,NA,2,NA,NA,NA,NA,NA,NA,NA,NA,NA,NA,NA,NA,NA,NA,NA,NA,NA,NA,NA
4cbaa,"""Richtig""-Screen",canvas.Screen,3_0_2_0_7_1_1,NA,NA,timeout,4999.22,587328,587316.08,587318.92,592301.48,592306,2023-10-02T07:17:01Z,592318.14,NULL,Betrüger,mdanganyifu,s,mwanamuziki,wastani,mahakama,NA,sdf,1,2,NA,NA,NA,NA,NA,NA,NA,NA,NA,NA,NA,NA,NA,NA,NA,NA,NA,NA,NA
4cbaa,"""Falsch""-Screen",canvas.Screen,3_0_2_0_7_1_2,NA,NA,skipped,NA,592319,NA,NA,592301.48,592319,2023-10-02T07:17:01Z,592318.14,NULL,Betrüger,mdanganyifu,s,mwanamuziki,wastani,mahakama,NA,sdf,NA,2,NA,NA,NA,NA,NA,NA,NA,NA,NA,NA,NA,NA,NA,NA,NA,NA,NA,NA,NA
4cbaa,shallow,flow.Sequence,3_0_2_0_7_1,NA,NA,completion,12315.02,579973,579969.8,579986.46,592301.48,592319,2023-10-02T07:17:01Z,592318.14,NULL,Betrüger,mdanganyifu,s,mwanamuziki,wastani,mahakama,NA,sdf,NA,2,NA,NA,NA,NA,NA,NA,NA,NA,NA,NA,NA,NA,NA,NA,NA,NA,NA,NA,NA
4cbaa,task,flow.Sequence,3_0_2_0_7,NA,NA,completion,12315.02,579973,579969.8,579986.46,592301.48,592320,2023-10-02T07:17:01Z,592318.14,NULL,Betrüger,mdanganyifu,s,mwanamuziki,wastani,mahakama,NA,sdf,NA,2,NA,NA,NA,NA,NA,NA,NA,NA,NA,NA,NA,NA,NA,NA,NA,NA,NA,NA,NA
4cbaa,block,flow.Loop,3_0_2_0,NA,NA,completion,103496.42,488804,488804.76,488805.06,592301.48,592320,2023-10-02T07:17:01Z,592318.14,NULL,NA,NA,NA,NA,NA,NA,NA,sdf,NA,2,NA,NA,NA,NA,NA,NA,NA,NA,NA,NA,NA,NA,NA,NA,NA,NA,NA,NA,NA
4cbaa,weiter,canvas.Screen,3_0_2_1,sdf,keypress(Space),response,1170.86,592320,592301.48,592318.14,593489,593500,2023-10-02T07:17:03Z,593553.98,NULL,NA,NA,NA,NA,NA,NA,NA,sdf,NA,2,NA,NA,NA,NA,NA,NA,NA,NA,NA,NA,NA,NA,NA,NA,NA,NA,NA,NA,NA
4cbaa,check continue,flow.Sequence,3_0_2,NA,NA,completion,104683.94,488804,488804.76,488805.06,593489,593501,2023-10-02T07:17:03Z,593553.98,NULL,NA,NA,NA,NA,NA,NA,NA,sdf,NA,2,NA,NA,NA,NA,NA,NA,NA,NA,NA,NA,NA,NA,NA,NA,NA,NA,NA,NA,NA
4cbaa,deep,flow.Sequence,3_0_3_0_0_0,NA,NA,skipped,NA,593553,NA,NA,593489,593553,2023-10-02T07:17:03Z,593553.98,NULL,Wohlstand,mafanikio,s,chimbuko,kumbuko,mapwaji,NA,qt,NA,3,NA,NA,NA,NA,NA,NA,NA,NA,NA,NA,NA,NA,NA,NA,NA,NA,NA,NA,NA
4cbaa,Shallow Question,html.Page,3_0_3_0_0_1_0,NA,NA,form submission,7227.02,593553,593553.7,593553.98,600781,600781,2023-10-02T07:17:10Z,600783.84,NULL,Wohlstand,mafanikio,s,chimbuko,kumbuko,mapwaji,mafanikio,NA,NA,3,NA,NA,NA,NA,NA,NA,NA,NA,NA,NA,NA,NA,NA,NA,NA,NA,NA,NA,NA
4cbaa,"""Richtig""-Screen",canvas.Screen,3_0_3_0_0_1_1,NA,NA,timeout,4999.4,600785,600773.14,600783.84,605766.6,605767,2023-10-02T07:17:15Z,605783.24,NULL,Wohlstand,mafanikio,s,chimbuko,kumbuko,mapwaji,NA,qt,1,3,NA,NA,NA,NA,NA,NA,NA,NA,NA,NA,NA,NA,NA,NA,NA,NA,NA,NA,NA
4cbaa,"""Falsch""-Screen",canvas.Screen,3_0_3_0_0_1_2,NA,NA,skipped,NA,605773,NA,NA,605766.6,605773,2023-10-02T07:17:15Z,605783.24,NULL,Wohlstand,mafanikio,s,chimbuko,kumbuko,mapwaji,NA,qt,NA,3,NA,NA,NA,NA,NA,NA,NA,NA,NA,NA,NA,NA,NA,NA,NA,NA,NA,NA,NA
4cbaa,shallow,flow.Sequence,3_0_3_0_0_1,NA,NA,completion,12212.62,593553,593553.7,593553.98,605766.6,605773,2023-10-02T07:17:15Z,605783.24,NULL,Wohlstand,mafanikio,s,chimbuko,kumbuko,mapwaji,NA,qt,NA,3,NA,NA,NA,NA,NA,NA,NA,NA,NA,NA,NA,NA,NA,NA,NA,NA,NA,NA,NA
4cbaa,task,flow.Sequence,3_0_3_0_0,NA,NA,completion,12212.62,593553,593553.7,593553.98,605766.6,605774,2023-10-02T07:17:15Z,605783.24,NULL,Wohlstand,mafanikio,s,chimbuko,kumbuko,mapwaji,NA,qt,NA,3,NA,NA,NA,NA,NA,NA,NA,NA,NA,NA,NA,NA,NA,NA,NA,NA,NA,NA,NA
4cbaa,deep,flow.Sequence,3_0_3_0_1_0,NA,NA,skipped,NA,605774,NA,NA,605766.6,605775,2023-10-02T07:17:15Z,605783.24,NULL,Stimmung,kinyongo,s,kilekile,kisambo,madhehebu,NA,qt,NA,3,NA,NA,NA,NA,NA,NA,NA,NA,NA,NA,NA,NA,NA,NA,NA,NA,NA,NA,NA
4cbaa,Shallow Question,html.Page,3_0_3_0_1_1_0,NA,NA,form submission,4560.76,605775,605766.6,605783.24,610344,610345,2023-10-02T07:17:19Z,610349.34,NULL,Stimmung,kinyongo,s,kilekile,kisambo,madhehebu,kinyongo,NA,NA,3,NA,NA,NA,NA,NA,NA,NA,NA,NA,NA,NA,NA,NA,NA,NA,NA,NA,NA,NA
4cbaa,"""Richtig""-Screen",canvas.Screen,3_0_3_0_1_1_1,NA,NA,timeout,4999.1800000001,610350,610338.9,610349.34,615331.88,615333,2023-10-02T07:17:24Z,615348.52,NULL,Stimmung,kinyongo,s,kilekile,kisambo,madhehebu,NA,qt,1,3,NA,NA,NA,NA,NA,NA,NA,NA,NA,NA,NA,NA,NA,NA,NA,NA,NA,NA,NA
4cbaa,"""Falsch""-Screen",canvas.Screen,3_0_3_0_1_1_2,NA,NA,skipped,NA,615340,NA,NA,615331.88,615340,2023-10-02T07:17:24Z,615348.52,NULL,Stimmung,kinyongo,s,kilekile,kisambo,madhehebu,NA,qt,NA,3,NA,NA,NA,NA,NA,NA,NA,NA,NA,NA,NA,NA,NA,NA,NA,NA,NA,NA,NA
4cbaa,shallow,flow.Sequence,3_0_3_0_1_1,NA,NA,completion,9548.64,605775,605766.6,605783.24,615331.88,615341,2023-10-02T07:17:24Z,615348.52,NULL,Stimmung,kinyongo,s,kilekile,kisambo,madhehebu,NA,qt,NA,3,NA,NA,NA,NA,NA,NA,NA,NA,NA,NA,NA,NA,NA,NA,NA,NA,NA,NA,NA
4cbaa,task,flow.Sequence,3_0_3_0_1,NA,NA,completion,9548.64,605774,605766.6,605783.24,615331.88,615341,2023-10-02T07:17:24Z,615348.52,NULL,Stimmung,kinyongo,s,kilekile,kisambo,madhehebu,NA,qt,NA,3,NA,NA,NA,NA,NA,NA,NA,NA,NA,NA,NA,NA,NA,NA,NA,NA,NA,NA,NA
4cbaa,Deep Question,html.Page,3_0_3_0_2_0_0,NA,NA,form submission,12155.48,615342,615331.88,615348.52,627504,627505,2023-10-02T07:17:37Z,627513.74,NULL,Notfall,dharura,d,NA,NA,NA,harakisha,NA,NA,3,NA,NA,NA,NA,NA,NA,NA,NA,NA,NA,NA,NA,NA,NA,NA,NA,NA,NA,NA
4cbaa,"""Richtig""-Screen",canvas.Screen,3_0_3_0_2_0_1,NA,NA,skipped,NA,627508,NA,NA,627504,627508,2023-10-02T07:17:37Z,627513.74,NULL,Notfall,dharura,d,NA,NA,NA,NA,qt,NA,3,NA,NA,NA,NA,NA,NA,NA,NA,NA,NA,NA,NA,NA,NA,NA,NA,NA,NA,NA
4cbaa,"""Falsch""-Screen",canvas.Screen,3_0_3_0_2_0_2,NA,NA,timeout,4999.34,627512,627499.14,627513.74,632496.42,632498,2023-10-02T07:17:42Z,632513.08,NULL,Notfall,dharura,d,NA,NA,NA,NA,qt,0,3,NA,NA,NA,NA,NA,NA,NA,NA,NA,NA,NA,NA,NA,NA,NA,NA,NA,NA,NA
4cbaa,deep,flow.Sequence,3_0_3_0_2_0,NA,NA,completion,17147.9,615341,615331.88,615348.52,632496.42,632498,2023-10-02T07:17:42Z,632513.08,NULL,Notfall,dharura,d,NA,NA,NA,NA,qt,NA,3,NA,NA,NA,NA,NA,NA,NA,NA,NA,NA,NA,NA,NA,NA,NA,NA,NA,NA,NA
4cbaa,shallow,flow.Sequence,3_0_3_0_2_1,NA,NA,skipped,NA,632499,NA,NA,632496.42,632499,2023-10-02T07:17:42Z,632513.08,NULL,Notfall,dharura,d,NA,NA,NA,NA,qt,NA,3,NA,NA,NA,NA,NA,NA,NA,NA,NA,NA,NA,NA,NA,NA,NA,NA,NA,NA,NA
4cbaa,task,flow.Sequence,3_0_3_0_2,NA,NA,completion,17147.9,615341,615331.88,615348.52,632496.42,632499,2023-10-02T07:17:42Z,632513.08,NULL,Notfall,dharura,d,NA,NA,NA,NA,qt,NA,3,NA,NA,NA,NA,NA,NA,NA,NA,NA,NA,NA,NA,NA,NA,NA,NA,NA,NA,NA
4cbaa,Deep Question,html.Page,3_0_3_0_3_0_0,NA,NA,form submission,6845.92,632500,632496.42,632513.08,639359,639360,2023-10-02T07:17:48Z,639362.18,NULL,Orientierung,urekebisho,d,NA,NA,NA,askdfjoapiwefj,NA,NA,3,NA,NA,NA,NA,NA,NA,NA,NA,NA,NA,NA,NA,NA,NA,NA,NA,NA,NA,NA
4cbaa,"""Richtig""-Screen",canvas.Screen,3_0_3_0_3_0_1,NA,NA,skipped,NA,639363,NA,NA,639359,639363,2023-10-02T07:17:48Z,639362.18,NULL,Orientierung,urekebisho,d,NA,NA,NA,NA,qt,NA,3,NA,NA,NA,NA,NA,NA,NA,NA,NA,NA,NA,NA,NA,NA,NA,NA,NA,NA,NA
4cbaa,"""Falsch""-Screen",canvas.Screen,3_0_3_0_3_0_2,NA,NA,timeout,4999.36,639366,639355.02,639362.18,644344.9,644346,2023-10-02T07:17:53Z,644361.54,NULL,Orientierung,urekebisho,d,NA,NA,NA,NA,qt,0,3,NA,NA,NA,NA,NA,NA,NA,NA,NA,NA,NA,NA,NA,NA,NA,NA,NA,NA,NA
4cbaa,deep,flow.Sequence,3_0_3_0_3_0,NA,NA,completion,11831.82,632500,632496.42,632513.08,644344.9,644346,2023-10-02T07:17:53Z,644361.54,NULL,Orientierung,urekebisho,d,NA,NA,NA,NA,qt,NA,3,NA,NA,NA,NA,NA,NA,NA,NA,NA,NA,NA,NA,NA,NA,NA,NA,NA,NA,NA
4cbaa,shallow,flow.Sequence,3_0_3_0_3_1,NA,NA,skipped,NA,644347,NA,NA,644344.9,644347,2023-10-02T07:17:53Z,644361.54,NULL,Orientierung,urekebisho,d,NA,NA,NA,NA,qt,NA,3,NA,NA,NA,NA,NA,NA,NA,NA,NA,NA,NA,NA,NA,NA,NA,NA,NA,NA,NA
4cbaa,task,flow.Sequence,3_0_3_0_3,NA,NA,completion,11831.82,632500,632496.42,632513.08,644344.9,644348,2023-10-02T07:17:53Z,644361.54,NULL,Orientierung,urekebisho,d,NA,NA,NA,NA,qt,NA,3,NA,NA,NA,NA,NA,NA,NA,NA,NA,NA,NA,NA,NA,NA,NA,NA,NA,NA,NA
4cbaa,deep,flow.Sequence,3_0_3_0_4_0,NA,NA,skipped,NA,644348,NA,NA,644344.9,644348,2023-10-02T07:17:53Z,644361.54,NULL,Betrüger,mdanganyifu,s,mwanamuziki,wastani,mahakama,NA,qt,NA,3,NA,NA,NA,NA,NA,NA,NA,NA,NA,NA,NA,NA,NA,NA,NA,NA,NA,NA,NA
4cbaa,Shallow Question,html.Page,3_0_3_0_4_1_0,NA,NA,form submission,6751.46,644349,644344.9,644361.54,651113,651114,2023-10-02T07:18:00Z,651127.36,NULL,Betrüger,mdanganyifu,s,mwanamuziki,wastani,mahakama,mdanganyifu,NA,NA,3,NA,NA,NA,NA,NA,NA,NA,NA,NA,NA,NA,NA,NA,NA,NA,NA,NA,NA,NA
4cbaa,"""Richtig""-Screen",canvas.Screen,3_0_3_0_4_1_1,NA,NA,timeout,4999.34,651115,651111.3,651127.36,656110.06,656112,2023-10-02T07:18:05Z,656126.7,NULL,Betrüger,mdanganyifu,s,mwanamuziki,wastani,mahakama,NA,qt,1,3,NA,NA,NA,NA,NA,NA,NA,NA,NA,NA,NA,NA,NA,NA,NA,NA,NA,NA,NA
4cbaa,"""Falsch""-Screen",canvas.Screen,3_0_3_0_4_1_2,NA,NA,skipped,NA,656117,NA,NA,656110.06,656118,2023-10-02T07:18:05Z,656126.7,NULL,Betrüger,mdanganyifu,s,mwanamuziki,wastani,mahakama,NA,qt,NA,3,NA,NA,NA,NA,NA,NA,NA,NA,NA,NA,NA,NA,NA,NA,NA,NA,NA,NA,NA
4cbaa,shallow,flow.Sequence,3_0_3_0_4_1,NA,NA,completion,11748.52,644348,644344.9,644361.54,656110.06,656119,2023-10-02T07:18:05Z,656126.7,NULL,Betrüger,mdanganyifu,s,mwanamuziki,wastani,mahakama,NA,qt,NA,3,NA,NA,NA,NA,NA,NA,NA,NA,NA,NA,NA,NA,NA,NA,NA,NA,NA,NA,NA
4cbaa,task,flow.Sequence,3_0_3_0_4,NA,NA,completion,11748.52,644348,644344.9,644361.54,656110.06,656119,2023-10-02T07:18:05Z,656126.7,NULL,Betrüger,mdanganyifu,s,mwanamuziki,wastani,mahakama,NA,qt,NA,3,NA,NA,NA,NA,NA,NA,NA,NA,NA,NA,NA,NA,NA,NA,NA,NA,NA,NA,NA
4cbaa,deep,flow.Sequence,3_0_3_0_5_0,NA,NA,skipped,NA,656119,NA,NA,656110.06,656120,2023-10-02T07:18:05Z,656126.7,NULL,Ergänzung,kijalizo,s,ulaghai,mustarehe,matangazo,NA,qt,NA,3,NA,NA,NA,NA,NA,NA,NA,NA,NA,NA,NA,NA,NA,NA,NA,NA,NA,NA,NA
4cbaa,Shallow Question,html.Page,3_0_3_0_5_1_0,NA,NA,form submission,13631.3,656120,656110.06,656126.7,669758,669758,2023-10-02T07:18:19Z,669758.32,NULL,Ergänzung,kijalizo,s,ulaghai,mustarehe,matangazo,kijalizo,NA,NA,3,NA,NA,NA,NA,NA,NA,NA,NA,NA,NA,NA,NA,NA,NA,NA,NA,NA,NA,NA
4cbaa,"""Richtig""-Screen",canvas.Screen,3_0_3_0_5_1_1,NA,NA,timeout,4999.3,669763,669751.64,669758.32,674740.98,674742,2023-10-02T07:18:24Z,674757.62,NULL,Ergänzung,kijalizo,s,ulaghai,mustarehe,matangazo,NA,qt,1,3,NA,NA,NA,NA,NA,NA,NA,NA,NA,NA,NA,NA,NA,NA,NA,NA,NA,NA,NA
4cbaa,"""Falsch""-Screen",canvas.Screen,3_0_3_0_5_1_2,NA,NA,skipped,NA,674746,NA,NA,674740.98,674746,2023-10-02T07:18:24Z,674757.62,NULL,Ergänzung,kijalizo,s,ulaghai,mustarehe,matangazo,NA,qt,NA,3,NA,NA,NA,NA,NA,NA,NA,NA,NA,NA,NA,NA,NA,NA,NA,NA,NA,NA,NA
4cbaa,shallow,flow.Sequence,3_0_3_0_5_1,NA,NA,completion,18614.28,656120,656110.06,656126.7,674740.98,674747,2023-10-02T07:18:24Z,674757.62,NULL,Ergänzung,kijalizo,s,ulaghai,mustarehe,matangazo,NA,qt,NA,3,NA,NA,NA,NA,NA,NA,NA,NA,NA,NA,NA,NA,NA,NA,NA,NA,NA,NA,NA
4cbaa,task,flow.Sequence,3_0_3_0_5,NA,NA,completion,18614.28,656119,656110.06,656126.7,674740.98,674747,2023-10-02T07:18:24Z,674757.62,NULL,Ergänzung,kijalizo,s,ulaghai,mustarehe,matangazo,NA,qt,NA,3,NA,NA,NA,NA,NA,NA,NA,NA,NA,NA,NA,NA,NA,NA,NA,NA,NA,NA,NA
4cbaa,Deep Question,html.Page,3_0_3_0_6_0_0,NA,NA,form submission,16844.38,674747,674740.98,674757.62,691602,691603,2023-10-02T07:18:41Z,691605.58,NULL,Vergnügen,kichekesho,d,NA,NA,NA,kesoijfwqe,NA,NA,3,NA,NA,NA,NA,NA,NA,NA,NA,NA,NA,NA,NA,NA,NA,NA,NA,NA,NA,NA
4cbaa,"""Richtig""-Screen",canvas.Screen,3_0_3_0_6_0_1,NA,NA,skipped,NA,691609,NA,NA,691602,691609,2023-10-02T07:18:41Z,691605.58,NULL,Vergnügen,kichekesho,d,NA,NA,NA,NA,qt,NA,3,NA,NA,NA,NA,NA,NA,NA,NA,NA,NA,NA,NA,NA,NA,NA,NA,NA,NA,NA
4cbaa,"""Falsch""-Screen",canvas.Screen,3_0_3_0_6_0_2,NA,NA,timeout,4999.26,691613,691598.28,691605.58,696588.2,696594,2023-10-02T07:18:46Z,696604.84,NULL,Vergnügen,kichekesho,d,NA,NA,NA,NA,qt,0,3,NA,NA,NA,NA,NA,NA,NA,NA,NA,NA,NA,NA,NA,NA,NA,NA,NA,NA,NA
4cbaa,deep,flow.Sequence,3_0_3_0_6_0,NA,NA,completion,21830.58,674747,674740.98,674757.62,696588.2,696595,2023-10-02T07:18:46Z,696604.84,NULL,Vergnügen,kichekesho,d,NA,NA,NA,NA,qt,NA,3,NA,NA,NA,NA,NA,NA,NA,NA,NA,NA,NA,NA,NA,NA,NA,NA,NA,NA,NA
4cbaa,shallow,flow.Sequence,3_0_3_0_6_1,NA,NA,skipped,NA,696596,NA,NA,696588.2,696597,2023-10-02T07:18:46Z,696604.84,NULL,Vergnügen,kichekesho,d,NA,NA,NA,NA,qt,NA,3,NA,NA,NA,NA,NA,NA,NA,NA,NA,NA,NA,NA,NA,NA,NA,NA,NA,NA,NA
4cbaa,task,flow.Sequence,3_0_3_0_6,NA,NA,completion,21830.58,674747,674740.98,674757.62,696588.2,696597,2023-10-02T07:18:46Z,696604.84,NULL,Vergnügen,kichekesho,d,NA,NA,NA,NA,qt,NA,3,NA,NA,NA,NA,NA,NA,NA,NA,NA,NA,NA,NA,NA,NA,NA,NA,NA,NA,NA
4cbaa,Deep Question,html.Page,3_0_3_0_7_0_0,NA,NA,form submission,7337.16,696598,696588.2,696604.84,703942,703943,2023-10-02T07:18:53Z,703953.94,NULL,Respekt,heshima,d,NA,NA,NA,woeifj,NA,NA,3,NA,NA,NA,NA,NA,NA,NA,NA,NA,NA,NA,NA,NA,NA,NA,NA,NA,NA,NA
4cbaa,"""Richtig""-Screen",canvas.Screen,3_0_3_0_7_0_1,NA,NA,skipped,NA,703950,NA,NA,703942,703950,2023-10-02T07:18:53Z,703953.94,NULL,Respekt,heshima,d,NA,NA,NA,NA,qt,NA,3,NA,NA,NA,NA,NA,NA,NA,NA,NA,NA,NA,NA,NA,NA,NA,NA,NA,NA,NA
4cbaa,"""Falsch""-Screen",canvas.Screen,3_0_3_0_7_0_2,NA,NA,timeout,4999.2400000001,703953,703937.98,703953.94,708936.54,708938,2023-10-02T07:18:58Z,708953.18,NULL,Respekt,heshima,d,NA,NA,NA,NA,qt,0,3,NA,NA,NA,NA,NA,NA,NA,NA,NA,NA,NA,NA,NA,NA,NA,NA,NA,NA,NA
4cbaa,deep,flow.Sequence,3_0_3_0_7_0,NA,NA,completion,12331.7,696598,696588.2,696604.84,708936.54,708939,2023-10-02T07:18:58Z,708953.18,NULL,Respekt,heshima,d,NA,NA,NA,NA,qt,NA,3,NA,NA,NA,NA,NA,NA,NA,NA,NA,NA,NA,NA,NA,NA,NA,NA,NA,NA,NA
4cbaa,shallow,flow.Sequence,3_0_3_0_7_1,NA,NA,skipped,NA,708939,NA,NA,708936.54,708940,2023-10-02T07:18:58Z,708953.18,NULL,Respekt,heshima,d,NA,NA,NA,NA,qt,NA,3,NA,NA,NA,NA,NA,NA,NA,NA,NA,NA,NA,NA,NA,NA,NA,NA,NA,NA,NA
4cbaa,task,flow.Sequence,3_0_3_0_7,NA,NA,completion,12331.7,696597,696588.2,696604.84,708936.54,708940,2023-10-02T07:18:58Z,708953.18,NULL,Respekt,heshima,d,NA,NA,NA,NA,qt,NA,3,NA,NA,NA,NA,NA,NA,NA,NA,NA,NA,NA,NA,NA,NA,NA,NA,NA,NA,NA
4cbaa,block,flow.Loop,3_0_3_0,NA,NA,completion,115382.56,593553,593553.7,593553.98,708936.54,708942,2023-10-02T07:18:58Z,708953.18,NULL,NA,NA,NA,NA,NA,NA,NA,qt,NA,3,NA,NA,NA,NA,NA,NA,NA,NA,NA,NA,NA,NA,NA,NA,NA,NA,NA,NA,NA
4cbaa,weiter,canvas.Screen,3_0_3_1,sdf,keypress(Space),response,1255.8199999999,708943,708936.54,708953.18,710209,710220,2023-10-02T07:18:59Z,710280.34,NULL,NA,NA,NA,NA,NA,NA,NA,qt,NA,3,NA,NA,NA,NA,NA,NA,NA,NA,NA,NA,NA,NA,NA,NA,NA,NA,NA,NA,NA
4cbaa,check continue,flow.Sequence,3_0_3,NA,NA,completion,116655.02,593553,593553.7,593553.98,710209,710221,2023-10-02T07:18:59Z,710280.34,NULL,NA,NA,NA,NA,NA,NA,NA,qt,NA,3,NA,NA,NA,NA,NA,NA,NA,NA,NA,NA,NA,NA,NA,NA,NA,NA,NA,NA,NA
4cbaa,Deep Question,html.Page,3_0_4_0_0_0_0,NA,NA,form submission,9643.66,710280,710279.98,710280.34,719924,719925,2023-10-02T07:19:09Z,719935.2,NULL,Notfall,dharura,d,NA,NA,NA,duhara,NA,NA,4,NA,NA,NA,NA,NA,NA,NA,NA,NA,NA,NA,NA,NA,NA,NA,NA,NA,NA,NA
4cbaa,"""Richtig""-Screen",canvas.Screen,3_0_4_0_0_0_1,NA,NA,skipped,NA,719930,NA,NA,719924,719931,2023-10-02T07:19:09Z,719935.2,NULL,Notfall,dharura,d,NA,NA,NA,NA,sd,NA,4,NA,NA,NA,NA,NA,NA,NA,NA,NA,NA,NA,NA,NA,NA,NA,NA,NA,NA,NA
4cbaa,"""Falsch""-Screen",canvas.Screen,3_0_4_0_0_0_2,NA,NA,timeout,4999.26,719935,719918.74,719935.2,724917.9,724919,2023-10-02T07:19:14Z,724934.46,NULL,Notfall,dharura,d,NA,NA,NA,NA,sd,0,4,NA,NA,NA,NA,NA,NA,NA,NA,NA,NA,NA,NA,NA,NA,NA,NA,NA,NA,NA
4cbaa,deep,flow.Sequence,3_0_4_0_0_0,NA,NA,completion,14637.56,710280,710279.98,710280.34,724917.9,724919,2023-10-02T07:19:14Z,724934.46,NULL,Notfall,dharura,d,NA,NA,NA,NA,sd,NA,4,NA,NA,NA,NA,NA,NA,NA,NA,NA,NA,NA,NA,NA,NA,NA,NA,NA,NA,NA
4cbaa,shallow,flow.Sequence,3_0_4_0_0_1,NA,NA,skipped,NA,724919,NA,NA,724917.9,724920,2023-10-02T07:19:14Z,724934.46,NULL,Notfall,dharura,d,NA,NA,NA,NA,sd,NA,4,NA,NA,NA,NA,NA,NA,NA,NA,NA,NA,NA,NA,NA,NA,NA,NA,NA,NA,NA
4cbaa,task,flow.Sequence,3_0_4_0_0,NA,NA,completion,14637.56,710280,710279.98,710280.34,724917.9,724920,2023-10-02T07:19:14Z,724934.46,NULL,Notfall,dharura,d,NA,NA,NA,NA,sd,NA,4,NA,NA,NA,NA,NA,NA,NA,NA,NA,NA,NA,NA,NA,NA,NA,NA,NA,NA,NA
4cbaa,deep,flow.Sequence,3_0_4_0_1_0,NA,NA,skipped,NA,724920,NA,NA,724917.9,724920,2023-10-02T07:19:14Z,724934.46,NULL,Stimmung,kinyongo,s,kilekile,kisambo,madhehebu,NA,sd,NA,4,NA,NA,NA,NA,NA,NA,NA,NA,NA,NA,NA,NA,NA,NA,NA,NA,NA,NA,NA
4cbaa,Shallow Question,html.Page,3_0_4_0_1_1_0,NA,NA,form submission,4798.54,724921,724917.9,724934.46,729733,729734,2023-10-02T07:19:19Z,729733.9,NULL,Stimmung,kinyongo,s,kilekile,kisambo,madhehebu,kinyongo,NA,NA,4,NA,NA,NA,NA,NA,NA,NA,NA,NA,NA,NA,NA,NA,NA,NA,NA,NA,NA,NA
4cbaa,"""Richtig""-Screen",canvas.Screen,3_0_4_0_1_1_1,NA,NA,timeout,4999.34,729739,729728.26,729733.9,734716.58,734718,2023-10-02T07:19:24Z,734733.24,NULL,Stimmung,kinyongo,s,kilekile,kisambo,madhehebu,NA,sd,1,4,NA,NA,NA,NA,NA,NA,NA,NA,NA,NA,NA,NA,NA,NA,NA,NA,NA,NA,NA
4cbaa,"""Falsch""-Screen",canvas.Screen,3_0_4_0_1_1_2,NA,NA,skipped,NA,734724,NA,NA,734716.58,734724,2023-10-02T07:19:24Z,734733.24,NULL,Stimmung,kinyongo,s,kilekile,kisambo,madhehebu,NA,sd,NA,4,NA,NA,NA,NA,NA,NA,NA,NA,NA,NA,NA,NA,NA,NA,NA,NA,NA,NA,NA
4cbaa,shallow,flow.Sequence,3_0_4_0_1_1,NA,NA,completion,9782.12,724920,724917.9,724934.46,734716.58,734724,2023-10-02T07:19:24Z,734733.24,NULL,Stimmung,kinyongo,s,kilekile,kisambo,madhehebu,NA,sd,NA,4,NA,NA,NA,NA,NA,NA,NA,NA,NA,NA,NA,NA,NA,NA,NA,NA,NA,NA,NA
4cbaa,task,flow.Sequence,3_0_4_0_1,NA,NA,completion,9782.12,724920,724917.9,724934.46,734716.58,734725,2023-10-02T07:19:24Z,734733.24,NULL,Stimmung,kinyongo,s,kilekile,kisambo,madhehebu,NA,sd,NA,4,NA,NA,NA,NA,NA,NA,NA,NA,NA,NA,NA,NA,NA,NA,NA,NA,NA,NA,NA
4cbaa,Deep Question,html.Page,3_0_4_0_2_0_0,NA,NA,form submission,10956.76,734726,734716.58,734733.24,745690,745690,2023-10-02T07:19:35Z,745698.52,NULL,Respekt,heshima,d,NA,NA,NA,heshima,NA,NA,4,NA,NA,NA,NA,NA,NA,NA,NA,NA,NA,NA,NA,NA,NA,NA,NA,NA,NA,NA
4cbaa,"""Richtig""-Screen",canvas.Screen,3_0_4_0_2_0_1,NA,NA,timeout,4999.3199999999,745692,745684.64,745698.52,750681.18,750683,2023-10-02T07:19:40Z,750697.84,NULL,Respekt,heshima,d,NA,NA,NA,NA,sd,1,4,NA,NA,NA,NA,NA,NA,NA,NA,NA,NA,NA,NA,NA,NA,NA,NA,NA,NA,NA
4cbaa,"""Falsch""-Screen",canvas.Screen,3_0_4_0_2_0_2,NA,NA,skipped,NA,750688,NA,NA,750681.18,750689,2023-10-02T07:19:40Z,750697.84,NULL,Respekt,heshima,d,NA,NA,NA,NA,sd,NA,4,NA,NA,NA,NA,NA,NA,NA,NA,NA,NA,NA,NA,NA,NA,NA,NA,NA,NA,NA
4cbaa,deep,flow.Sequence,3_0_4_0_2_0,NA,NA,completion,15947.94,734726,734716.58,734733.24,750681.18,750689,2023-10-02T07:19:40Z,750697.84,NULL,Respekt,heshima,d,NA,NA,NA,NA,sd,NA,4,NA,NA,NA,NA,NA,NA,NA,NA,NA,NA,NA,NA,NA,NA,NA,NA,NA,NA,NA
4cbaa,shallow,flow.Sequence,3_0_4_0_2_1,NA,NA,skipped,NA,750689,NA,NA,750681.18,750689,2023-10-02T07:19:40Z,750697.84,NULL,Respekt,heshima,d,NA,NA,NA,NA,sd,NA,4,NA,NA,NA,NA,NA,NA,NA,NA,NA,NA,NA,NA,NA,NA,NA,NA,NA,NA,NA
4cbaa,task,flow.Sequence,3_0_4_0_2,NA,NA,completion,15947.94,734726,734716.58,734733.24,750681.18,750690,2023-10-02T07:19:40Z,750697.84,NULL,Respekt,heshima,d,NA,NA,NA,NA,sd,NA,4,NA,NA,NA,NA,NA,NA,NA,NA,NA,NA,NA,NA,NA,NA,NA,NA,NA,NA,NA
4cbaa,deep,flow.Sequence,3_0_4_0_3_0,NA,NA,skipped,NA,750690,NA,NA,750681.18,750690,2023-10-02T07:19:40Z,750697.84,NULL,Ergänzung,kijalizo,s,ulaghai,mustarehe,matangazo,NA,sd,NA,4,NA,NA,NA,NA,NA,NA,NA,NA,NA,NA,NA,NA,NA,NA,NA,NA,NA,NA,NA
4cbaa,Shallow Question,html.Page,3_0_4_0_3_1_0,NA,NA,form submission,6074.16,750690,750681.18,750697.84,756772,756773,2023-10-02T07:19:46Z,756780.4,NULL,Ergänzung,kijalizo,s,ulaghai,mustarehe,matangazo,kijalizo,NA,NA,4,NA,NA,NA,NA,NA,NA,NA,NA,NA,NA,NA,NA,NA,NA,NA,NA,NA,NA,NA
4cbaa,"""Richtig""-Screen",canvas.Screen,3_0_4_0_3_1_1,NA,NA,timeout,4999.4,756777,756769.46,756780.4,761763.16,761765,2023-10-02T07:19:51Z,761779.8,NULL,Ergänzung,kijalizo,s,ulaghai,mustarehe,matangazo,NA,sd,1,4,NA,NA,NA,NA,NA,NA,NA,NA,NA,NA,NA,NA,NA,NA,NA,NA,NA,NA,NA
4cbaa,"""Falsch""-Screen",canvas.Screen,3_0_4_0_3_1_2,NA,NA,skipped,NA,761774,NA,NA,761763.16,761774,2023-10-02T07:19:51Z,761779.8,NULL,Ergänzung,kijalizo,s,ulaghai,mustarehe,matangazo,NA,sd,NA,4,NA,NA,NA,NA,NA,NA,NA,NA,NA,NA,NA,NA,NA,NA,NA,NA,NA,NA,NA
4cbaa,shallow,flow.Sequence,3_0_4_0_3_1,NA,NA,completion,11065.32,750690,750681.18,750697.84,761763.16,761775,2023-10-02T07:19:51Z,761779.8,NULL,Ergänzung,kijalizo,s,ulaghai,mustarehe,matangazo,NA,sd,NA,4,NA,NA,NA,NA,NA,NA,NA,NA,NA,NA,NA,NA,NA,NA,NA,NA,NA,NA,NA
4cbaa,task,flow.Sequence,3_0_4_0_3,NA,NA,completion,11065.32,750690,750681.18,750697.84,761763.16,761775,2023-10-02T07:19:51Z,761779.8,NULL,Ergänzung,kijalizo,s,ulaghai,mustarehe,matangazo,NA,sd,NA,4,NA,NA,NA,NA,NA,NA,NA,NA,NA,NA,NA,NA,NA,NA,NA,NA,NA,NA,NA
4cbaa,deep,flow.Sequence,3_0_4_0_4_0,NA,NA,skipped,NA,761776,NA,NA,761763.16,761776,2023-10-02T07:19:51Z,761779.8,NULL,Betrüger,mdanganyifu,s,mwanamuziki,wastani,mahakama,NA,sd,NA,4,NA,NA,NA,NA,NA,NA,NA,NA,NA,NA,NA,NA,NA,NA,NA,NA,NA,NA,NA
4cbaa,Shallow Question,html.Page,3_0_4_0_4_1_0,NA,NA,form submission,10399.2,761777,761763.16,761779.8,772179,772179,2023-10-02T07:20:01Z,772178.4,NULL,Betrüger,mdanganyifu,s,mwanamuziki,wastani,mahakama,mdanganyifu,NA,NA,4,NA,NA,NA,NA,NA,NA,NA,NA,NA,NA,NA,NA,NA,NA,NA,NA,NA,NA,NA
4cbaa,"""Richtig""-Screen",canvas.Screen,3_0_4_0_4_1_1,NA,NA,timeout,4999.38,772180,772176.66,772178.4,777161.12,777162,2023-10-02T07:20:06Z,777177.78,NULL,Betrüger,mdanganyifu,s,mwanamuziki,wastani,mahakama,NA,sd,1,4,NA,NA,NA,NA,NA,NA,NA,NA,NA,NA,NA,NA,NA,NA,NA,NA,NA,NA,NA
4cbaa,"""Falsch""-Screen",canvas.Screen,3_0_4_0_4_1_2,NA,NA,skipped,NA,777171,NA,NA,777161.12,777171,2023-10-02T07:20:06Z,777177.78,NULL,Betrüger,mdanganyifu,s,mwanamuziki,wastani,mahakama,NA,sd,NA,4,NA,NA,NA,NA,NA,NA,NA,NA,NA,NA,NA,NA,NA,NA,NA,NA,NA,NA,NA
4cbaa,shallow,flow.Sequence,3_0_4_0_4_1,NA,NA,completion,15381.32,761776,761763.16,761779.8,777161.12,777172,2023-10-02T07:20:06Z,777177.78,NULL,Betrüger,mdanganyifu,s,mwanamuziki,wastani,mahakama,NA,sd,NA,4,NA,NA,NA,NA,NA,NA,NA,NA,NA,NA,NA,NA,NA,NA,NA,NA,NA,NA,NA
4cbaa,task,flow.Sequence,3_0_4_0_4,NA,NA,completion,15381.32,761775,761763.16,761779.8,777161.12,777173,2023-10-02T07:20:06Z,777177.78,NULL,Betrüger,mdanganyifu,s,mwanamuziki,wastani,mahakama,NA,sd,NA,4,NA,NA,NA,NA,NA,NA,NA,NA,NA,NA,NA,NA,NA,NA,NA,NA,NA,NA,NA
4cbaa,Deep Question,html.Page,3_0_4_0_5_0_0,NA,NA,form submission,12692.22,777174,777161.12,777177.78,789870,789870,2023-10-02T07:20:19Z,789876.16,NULL,Vergnügen,kichekesho,d,NA,NA,NA,ushkewer,NA,NA,4,NA,NA,NA,NA,NA,NA,NA,NA,NA,NA,NA,NA,NA,NA,NA,NA,NA,NA,NA
4cbaa,"""Richtig""-Screen",canvas.Screen,3_0_4_0_5_0_1,NA,NA,skipped,NA,789872,NA,NA,789870,789872,2023-10-02T07:20:19Z,789876.16,NULL,Vergnügen,kichekesho,d,NA,NA,NA,NA,sd,NA,4,NA,NA,NA,NA,NA,NA,NA,NA,NA,NA,NA,NA,NA,NA,NA,NA,NA,NA,NA
4cbaa,"""Falsch""-Screen",canvas.Screen,3_0_4_0_5_0_2,NA,NA,timeout,4999.34,789873,789867.02,789876.16,794858.84,794861,2023-10-02T07:20:24Z,794875.5,NULL,Vergnügen,kichekesho,d,NA,NA,NA,NA,sd,0,4,NA,NA,NA,NA,NA,NA,NA,NA,NA,NA,NA,NA,NA,NA,NA,NA,NA,NA,NA
4cbaa,deep,flow.Sequence,3_0_4_0_5_0,NA,NA,completion,17681.06,777174,777161.12,777177.78,794858.84,794862,2023-10-02T07:20:24Z,794875.5,NULL,Vergnügen,kichekesho,d,NA,NA,NA,NA,sd,NA,4,NA,NA,NA,NA,NA,NA,NA,NA,NA,NA,NA,NA,NA,NA,NA,NA,NA,NA,NA
4cbaa,shallow,flow.Sequence,3_0_4_0_5_1,NA,NA,skipped,NA,794862,NA,NA,794858.84,794863,2023-10-02T07:20:24Z,794875.5,NULL,Vergnügen,kichekesho,d,NA,NA,NA,NA,sd,NA,4,NA,NA,NA,NA,NA,NA,NA,NA,NA,NA,NA,NA,NA,NA,NA,NA,NA,NA,NA
4cbaa,task,flow.Sequence,3_0_4_0_5,NA,NA,completion,17681.06,777174,777161.12,777177.78,794858.84,794863,2023-10-02T07:20:24Z,794875.5,NULL,Vergnügen,kichekesho,d,NA,NA,NA,NA,sd,NA,4,NA,NA,NA,NA,NA,NA,NA,NA,NA,NA,NA,NA,NA,NA,NA,NA,NA,NA,NA
4cbaa,deep,flow.Sequence,3_0_4_0_6_0,NA,NA,skipped,NA,794864,NA,NA,794858.84,794864,2023-10-02T07:20:24Z,794875.5,NULL,Wohlstand,mafanikio,s,chimbuko,kumbuko,mapwaji,NA,sd,NA,4,NA,NA,NA,NA,NA,NA,NA,NA,NA,NA,NA,NA,NA,NA,NA,NA,NA,NA,NA
4cbaa,Shallow Question,html.Page,3_0_4_0_6_1_0,NA,NA,form submission,7214.5,794865,794858.84,794875.5,802090,802091,2023-10-02T07:20:31Z,802091.18,NULL,Wohlstand,mafanikio,s,chimbuko,kumbuko,mapwaji,mafanikio,NA,NA,4,NA,NA,NA,NA,NA,NA,NA,NA,NA,NA,NA,NA,NA,NA,NA,NA,NA,NA,NA
4cbaa,"""Richtig""-Screen",canvas.Screen,3_0_4_0_6_1_1,NA,NA,timeout,4999.5599999999,802095,802084.94,802091.18,807076.28,807078,2023-10-02T07:20:36Z,807090.74,NULL,Wohlstand,mafanikio,s,chimbuko,kumbuko,mapwaji,NA,sd,1,4,NA,NA,NA,NA,NA,NA,NA,NA,NA,NA,NA,NA,NA,NA,NA,NA,NA,NA,NA
4cbaa,"""Falsch""-Screen",canvas.Screen,3_0_4_0_6_1_2,NA,NA,skipped,NA,807084,NA,NA,807076.28,807084,2023-10-02T07:20:36Z,807090.74,NULL,Wohlstand,mafanikio,s,chimbuko,kumbuko,mapwaji,NA,sd,NA,4,NA,NA,NA,NA,NA,NA,NA,NA,NA,NA,NA,NA,NA,NA,NA,NA,NA,NA,NA
4cbaa,shallow,flow.Sequence,3_0_4_0_6_1,NA,NA,completion,12200.78,794864,794858.84,794875.5,807076.28,807085,2023-10-02T07:20:36Z,807090.74,NULL,Wohlstand,mafanikio,s,chimbuko,kumbuko,mapwaji,NA,sd,NA,4,NA,NA,NA,NA,NA,NA,NA,NA,NA,NA,NA,NA,NA,NA,NA,NA,NA,NA,NA
4cbaa,task,flow.Sequence,3_0_4_0_6,NA,NA,completion,12200.78,794864,794858.84,794875.5,807076.28,807085,2023-10-02T07:20:36Z,807090.74,NULL,Wohlstand,mafanikio,s,chimbuko,kumbuko,mapwaji,NA,sd,NA,4,NA,NA,NA,NA,NA,NA,NA,NA,NA,NA,NA,NA,NA,NA,NA,NA,NA,NA,NA
4cbaa,Deep Question,html.Page,3_0_4_0_7_0_0,NA,NA,form submission,5346.26,807086,807076.28,807090.74,812437,812437,2023-10-02T07:20:41Z,812439.94,NULL,Orientierung,urekebisho,d,NA,NA,NA,jzuztztruz,NA,NA,4,NA,NA,NA,NA,NA,NA,NA,NA,NA,NA,NA,NA,NA,NA,NA,NA,NA,NA,NA
4cbaa,"""Richtig""-Screen",canvas.Screen,3_0_4_0_7_0_1,NA,NA,skipped,NA,812440,NA,NA,812437,812440,2023-10-02T07:20:41Z,812439.94,NULL,Orientierung,urekebisho,d,NA,NA,NA,NA,sd,NA,4,NA,NA,NA,NA,NA,NA,NA,NA,NA,NA,NA,NA,NA,NA,NA,NA,NA,NA,NA
4cbaa,"""Falsch""-Screen",canvas.Screen,3_0_4_0_7_0_2,NA,NA,timeout,4999.38,812443,812431.8,812439.94,817422.68,817425,2023-10-02T07:20:46Z,817439.32,NULL,Orientierung,urekebisho,d,NA,NA,NA,NA,sd,0,4,NA,NA,NA,NA,NA,NA,NA,NA,NA,NA,NA,NA,NA,NA,NA,NA,NA,NA,NA
4cbaa,deep,flow.Sequence,3_0_4_0_7_0,NA,NA,completion,10331.94,807086,807076.28,807090.74,817422.68,817425,2023-10-02T07:20:46Z,817439.32,NULL,Orientierung,urekebisho,d,NA,NA,NA,NA,sd,NA,4,NA,NA,NA,NA,NA,NA,NA,NA,NA,NA,NA,NA,NA,NA,NA,NA,NA,NA,NA
4cbaa,shallow,flow.Sequence,3_0_4_0_7_1,NA,NA,skipped,NA,817426,NA,NA,817422.68,817426,2023-10-02T07:20:46Z,817439.32,NULL,Orientierung,urekebisho,d,NA,NA,NA,NA,sd,NA,4,NA,NA,NA,NA,NA,NA,NA,NA,NA,NA,NA,NA,NA,NA,NA,NA,NA,NA,NA
4cbaa,task,flow.Sequence,3_0_4_0_7,NA,NA,completion,10331.94,807085,807076.28,807090.74,817422.68,817426,2023-10-02T07:20:46Z,817439.32,NULL,Orientierung,urekebisho,d,NA,NA,NA,NA,sd,NA,4,NA,NA,NA,NA,NA,NA,NA,NA,NA,NA,NA,NA,NA,NA,NA,NA,NA,NA,NA
4cbaa,block,flow.Loop,3_0_4_0,NA,NA,completion,107142.34,710280,710279.98,710280.34,817422.68,817427,2023-10-02T07:20:46Z,817439.32,NULL,NA,NA,NA,NA,NA,NA,NA,sd,NA,4,NA,NA,NA,NA,NA,NA,NA,NA,NA,NA,NA,NA,NA,NA,NA,NA,NA,NA,NA
4cbaa,weiter,canvas.Screen,3_0_4_1,sdf,keypress(Space),response,1535.6800000001,817427,817422.68,817439.32,818975,818989,2023-10-02T07:20:48Z,819053.14,NULL,NA,NA,NA,NA,NA,NA,NA,sd,NA,4,NA,NA,NA,NA,NA,NA,NA,NA,NA,NA,NA,NA,NA,NA,NA,NA,NA,NA,NA
4cbaa,check continue,flow.Sequence,3_0_4,NA,NA,completion,108694.66,710279,710279.98,710280.34,818975,818989,2023-10-02T07:20:48Z,819053.14,NULL,NA,NA,NA,NA,NA,NA,NA,sd,NA,4,NA,NA,NA,NA,NA,NA,NA,NA,NA,NA,NA,NA,NA,NA,NA,NA,NA,NA,NA
4cbaa,Deep Question,html.Page,3_0_5_0_0_0_0,NA,NA,form submission,12765.86,819053,819052.82,819053.14,831819,831820,2023-10-02T07:21:01Z,831820.6,NULL,Notfall,dharura,d,NA,NA,NA,dhuara,NA,NA,5,NA,NA,NA,NA,NA,NA,NA,NA,NA,NA,NA,NA,NA,NA,NA,NA,NA,NA,NA
4cbaa,"""Richtig""-Screen",canvas.Screen,3_0_5_0_0_0_1,NA,NA,skipped,NA,831822,NA,NA,831819,831822,2023-10-02T07:21:01Z,831820.6,NULL,Notfall,dharura,d,NA,NA,NA,NA,sdf,NA,5,NA,NA,NA,NA,NA,NA,NA,NA,NA,NA,NA,NA,NA,NA,NA,NA,NA,NA,NA
4cbaa,"""Falsch""-Screen",canvas.Screen,3_0_5_0_0_0_2,NA,NA,timeout,4999.54,831825,831816.98,831820.6,836803.48,836805,2023-10-02T07:21:06Z,836820.14,NULL,Notfall,dharura,d,NA,NA,NA,NA,sdf,0,5,NA,NA,NA,NA,NA,NA,NA,NA,NA,NA,NA,NA,NA,NA,NA,NA,NA,NA,NA
4cbaa,deep,flow.Sequence,3_0_5_0_0_0,NA,NA,completion,17750.34,819053,819052.82,819053.14,836803.48,836806,2023-10-02T07:21:06Z,836820.14,NULL,Notfall,dharura,d,NA,NA,NA,NA,sdf,NA,5,NA,NA,NA,NA,NA,NA,NA,NA,NA,NA,NA,NA,NA,NA,NA,NA,NA,NA,NA
4cbaa,shallow,flow.Sequence,3_0_5_0_0_1,NA,NA,skipped,NA,836806,NA,NA,836803.48,836806,2023-10-02T07:21:06Z,836820.14,NULL,Notfall,dharura,d,NA,NA,NA,NA,sdf,NA,5,NA,NA,NA,NA,NA,NA,NA,NA,NA,NA,NA,NA,NA,NA,NA,NA,NA,NA,NA
4cbaa,task,flow.Sequence,3_0_5_0_0,NA,NA,completion,17750.34,819053,819052.82,819053.14,836803.48,836806,2023-10-02T07:21:06Z,836820.14,NULL,Notfall,dharura,d,NA,NA,NA,NA,sdf,NA,5,NA,NA,NA,NA,NA,NA,NA,NA,NA,NA,NA,NA,NA,NA,NA,NA,NA,NA,NA
4cbaa,deep,flow.Sequence,3_0_5_0_1_0,NA,NA,skipped,NA,836807,NA,NA,836803.48,836807,2023-10-02T07:21:06Z,836820.14,NULL,Stimmung,kinyongo,s,kilekile,kisambo,madhehebu,NA,sdf,NA,5,NA,NA,NA,NA,NA,NA,NA,NA,NA,NA,NA,NA,NA,NA,NA,NA,NA,NA,NA
4cbaa,Shallow Question,html.Page,3_0_5_0_1_1_0,NA,NA,form submission,6163.86,836807,836803.48,836820.14,842984,842985,2023-10-02T07:21:12Z,842986.14,NULL,Stimmung,kinyongo,s,kilekile,kisambo,madhehebu,kinyongo,NA,NA,5,NA,NA,NA,NA,NA,NA,NA,NA,NA,NA,NA,NA,NA,NA,NA,NA,NA,NA,NA
4cbaa,"""Richtig""-Screen",canvas.Screen,3_0_5_0_1_1_1,NA,NA,timeout,4999.26,842989,842979.2,842986.14,847968.76,847970,2023-10-02T07:21:17Z,847985.4,NULL,Stimmung,kinyongo,s,kilekile,kisambo,madhehebu,NA,sdf,1,5,NA,NA,NA,NA,NA,NA,NA,NA,NA,NA,NA,NA,NA,NA,NA,NA,NA,NA,NA
4cbaa,"""Falsch""-Screen",canvas.Screen,3_0_5_0_1_1_2,NA,NA,skipped,NA,847975,NA,NA,847968.76,847975,2023-10-02T07:21:17Z,847985.4,NULL,Stimmung,kinyongo,s,kilekile,kisambo,madhehebu,NA,sdf,NA,5,NA,NA,NA,NA,NA,NA,NA,NA,NA,NA,NA,NA,NA,NA,NA,NA,NA,NA,NA
4cbaa,shallow,flow.Sequence,3_0_5_0_1_1,NA,NA,completion,11148.62,836807,836803.48,836820.14,847968.76,847976,2023-10-02T07:21:17Z,847985.4,NULL,Stimmung,kinyongo,s,kilekile,kisambo,madhehebu,NA,sdf,NA,5,NA,NA,NA,NA,NA,NA,NA,NA,NA,NA,NA,NA,NA,NA,NA,NA,NA,NA,NA
4cbaa,task,flow.Sequence,3_0_5_0_1,NA,NA,completion,11148.62,836807,836803.48,836820.14,847968.76,847976,2023-10-02T07:21:17Z,847985.4,NULL,Stimmung,kinyongo,s,kilekile,kisambo,madhehebu,NA,sdf,NA,5,NA,NA,NA,NA,NA,NA,NA,NA,NA,NA,NA,NA,NA,NA,NA,NA,NA,NA,NA
4cbaa,deep,flow.Sequence,3_0_5_0_2_0,NA,NA,skipped,NA,847976,NA,NA,847968.76,847977,2023-10-02T07:21:17Z,847985.4,NULL,Ergänzung,kijalizo,s,ulaghai,mustarehe,matangazo,NA,sdf,NA,5,NA,NA,NA,NA,NA,NA,NA,NA,NA,NA,NA,NA,NA,NA,NA,NA,NA,NA,NA
4cbaa,Shallow Question,html.Page,3_0_5_0_2_1_0,NA,NA,form submission,8103.6,847977,847968.76,847985.4,856089,856090,2023-10-02T07:21:25Z,856101.12,NULL,Ergänzung,kijalizo,s,ulaghai,mustarehe,matangazo,kijalizo,NA,NA,5,NA,NA,NA,NA,NA,NA,NA,NA,NA,NA,NA,NA,NA,NA,NA,NA,NA,NA,NA
4cbaa,"""Richtig""-Screen",canvas.Screen,3_0_5_0_2_1_1,NA,NA,timeout,4999.2,856095,856084.8,856101.12,861083.66,861089,2023-10-02T07:21:30Z,861100.32,NULL,Ergänzung,kijalizo,s,ulaghai,mustarehe,matangazo,NA,sdf,1,5,NA,NA,NA,NA,NA,NA,NA,NA,NA,NA,NA,NA,NA,NA,NA,NA,NA,NA,NA
4cbaa,"""Falsch""-Screen",canvas.Screen,3_0_5_0_2_1_2,NA,NA,skipped,NA,861105,NA,NA,861083.66,861106,2023-10-02T07:21:30Z,861100.32,NULL,Ergänzung,kijalizo,s,ulaghai,mustarehe,matangazo,NA,sdf,NA,5,NA,NA,NA,NA,NA,NA,NA,NA,NA,NA,NA,NA,NA,NA,NA,NA,NA,NA,NA
4cbaa,shallow,flow.Sequence,3_0_5_0_2_1,NA,NA,completion,13098.26,847977,847968.76,847985.4,861083.66,861106,2023-10-02T07:21:30Z,861100.32,NULL,Ergänzung,kijalizo,s,ulaghai,mustarehe,matangazo,NA,sdf,NA,5,NA,NA,NA,NA,NA,NA,NA,NA,NA,NA,NA,NA,NA,NA,NA,NA,NA,NA,NA
4cbaa,task,flow.Sequence,3_0_5_0_2,NA,NA,completion,13098.26,847976,847968.76,847985.4,861083.66,861106,2023-10-02T07:21:30Z,861100.32,NULL,Ergänzung,kijalizo,s,ulaghai,mustarehe,matangazo,NA,sdf,NA,5,NA,NA,NA,NA,NA,NA,NA,NA,NA,NA,NA,NA,NA,NA,NA,NA,NA,NA,NA
4cbaa,deep,flow.Sequence,3_0_5_0_3_0,NA,NA,skipped,NA,861107,NA,NA,861083.66,861107,2023-10-02T07:21:30Z,861100.32,NULL,Wohlstand,mafanikio,s,chimbuko,kumbuko,mapwaji,NA,sdf,NA,5,NA,NA,NA,NA,NA,NA,NA,NA,NA,NA,NA,NA,NA,NA,NA,NA,NA,NA,NA
4cbaa,Shallow Question,html.Page,3_0_5_0_3_1_0,NA,NA,form submission,8546.6800000001,861107,861083.66,861100.32,869647,869648,2023-10-02T07:21:39Z,869649.34,NULL,Wohlstand,mafanikio,s,chimbuko,kumbuko,mapwaji,mafanikio,NA,NA,5,NA,NA,NA,NA,NA,NA,NA,NA,NA,NA,NA,NA,NA,NA,NA,NA,NA,NA,NA
4cbaa,"""Richtig""-Screen",canvas.Screen,3_0_5_0_3_1_1,NA,NA,timeout,4999.24,869652,869639.36,869649.34,874631.94,874633,2023-10-02T07:21:44Z,874648.58,NULL,Wohlstand,mafanikio,s,chimbuko,kumbuko,mapwaji,NA,sdf,1,5,NA,NA,NA,NA,NA,NA,NA,NA,NA,NA,NA,NA,NA,NA,NA,NA,NA,NA,NA
4cbaa,"""Falsch""-Screen",canvas.Screen,3_0_5_0_3_1_2,NA,NA,skipped,NA,874641,NA,NA,874631.94,874642,2023-10-02T07:21:44Z,874648.58,NULL,Wohlstand,mafanikio,s,chimbuko,kumbuko,mapwaji,NA,sdf,NA,5,NA,NA,NA,NA,NA,NA,NA,NA,NA,NA,NA,NA,NA,NA,NA,NA,NA,NA,NA
4cbaa,shallow,flow.Sequence,3_0_5_0_3_1,NA,NA,completion,13531.62,861107,861083.66,861100.32,874631.94,874643,2023-10-02T07:21:44Z,874648.58,NULL,Wohlstand,mafanikio,s,chimbuko,kumbuko,mapwaji,NA,sdf,NA,5,NA,NA,NA,NA,NA,NA,NA,NA,NA,NA,NA,NA,NA,NA,NA,NA,NA,NA,NA
4cbaa,task,flow.Sequence,3_0_5_0_3,NA,NA,completion,13531.62,861107,861083.66,861100.32,874631.94,874643,2023-10-02T07:21:44Z,874648.58,NULL,Wohlstand,mafanikio,s,chimbuko,kumbuko,mapwaji,NA,sdf,NA,5,NA,NA,NA,NA,NA,NA,NA,NA,NA,NA,NA,NA,NA,NA,NA,NA,NA,NA,NA
4cbaa,Deep Question,html.Page,3_0_5_0_4_0_0,NA,NA,form submission,9325.42,874644,874631.94,874648.58,883974,883975,2023-10-02T07:21:53Z,883980.66,NULL,Respekt,heshima,d,NA,NA,NA,heshima,NA,NA,5,NA,NA,NA,NA,NA,NA,NA,NA,NA,NA,NA,NA,NA,NA,NA,NA,NA,NA,NA
4cbaa,"""Richtig""-Screen",canvas.Screen,3_0_5_0_4_0_1,NA,NA,timeout,4999.36,883979,883965.1,883980.66,888963.36,888965,2023-10-02T07:21:58Z,888980.02,NULL,Respekt,heshima,d,NA,NA,NA,NA,sdf,1,5,NA,NA,NA,NA,NA,NA,NA,NA,NA,NA,NA,NA,NA,NA,NA,NA,NA,NA,NA
4cbaa,"""Falsch""-Screen",canvas.Screen,3_0_5_0_4_0_2,NA,NA,skipped,NA,888972,NA,NA,888963.36,888973,2023-10-02T07:21:58Z,888980.02,NULL,Respekt,heshima,d,NA,NA,NA,NA,sdf,NA,5,NA,NA,NA,NA,NA,NA,NA,NA,NA,NA,NA,NA,NA,NA,NA,NA,NA,NA,NA
4cbaa,deep,flow.Sequence,3_0_5_0_4_0,NA,NA,completion,14314.78,874644,874631.94,874648.58,888963.36,888973,2023-10-02T07:21:58Z,888980.02,NULL,Respekt,heshima,d,NA,NA,NA,NA,sdf,NA,5,NA,NA,NA,NA,NA,NA,NA,NA,NA,NA,NA,NA,NA,NA,NA,NA,NA,NA,NA
4cbaa,shallow,flow.Sequence,3_0_5_0_4_1,NA,NA,skipped,NA,888974,NA,NA,888963.36,888974,2023-10-02T07:21:58Z,888980.02,NULL,Respekt,heshima,d,NA,NA,NA,NA,sdf,NA,5,NA,NA,NA,NA,NA,NA,NA,NA,NA,NA,NA,NA,NA,NA,NA,NA,NA,NA,NA
4cbaa,task,flow.Sequence,3_0_5_0_4,NA,NA,completion,14314.78,874644,874631.94,874648.58,888963.36,888974,2023-10-02T07:21:58Z,888980.02,NULL,Respekt,heshima,d,NA,NA,NA,NA,sdf,NA,5,NA,NA,NA,NA,NA,NA,NA,NA,NA,NA,NA,NA,NA,NA,NA,NA,NA,NA,NA
4cbaa,deep,flow.Sequence,3_0_5_0_5_0,NA,NA,skipped,NA,888975,NA,NA,888963.36,888975,2023-10-02T07:21:58Z,888980.02,NULL,Betrüger,mdanganyifu,s,mwanamuziki,wastani,mahakama,NA,sdf,NA,5,NA,NA,NA,NA,NA,NA,NA,NA,NA,NA,NA,NA,NA,NA,NA,NA,NA,NA,NA
4cbaa,Shallow Question,html.Page,3_0_5_0_5_1_0,NA,NA,form submission,5674.98,888976,888963.36,888980.02,894655,894656,2023-10-02T07:22:04Z,894662.66,NULL,Betrüger,mdanganyifu,s,mwanamuziki,wastani,mahakama,mdanganyifu,NA,NA,5,NA,NA,NA,NA,NA,NA,NA,NA,NA,NA,NA,NA,NA,NA,NA,NA,NA,NA,NA
4cbaa,"""Richtig""-Screen",canvas.Screen,3_0_5_0_5_1_1,NA,NA,timeout,4999.38,894659,894652.4,894662.66,899645.4,899647,2023-10-02T07:22:09Z,899662.04,NULL,Betrüger,mdanganyifu,s,mwanamuziki,wastani,mahakama,NA,sdf,1,5,NA,NA,NA,NA,NA,NA,NA,NA,NA,NA,NA,NA,NA,NA,NA,NA,NA,NA,NA
4cbaa,"""Falsch""-Screen",canvas.Screen,3_0_5_0_5_1_2,NA,NA,skipped,NA,899655,NA,NA,899645.4,899656,2023-10-02T07:22:09Z,899662.04,NULL,Betrüger,mdanganyifu,s,mwanamuziki,wastani,mahakama,NA,sdf,NA,5,NA,NA,NA,NA,NA,NA,NA,NA,NA,NA,NA,NA,NA,NA,NA,NA,NA,NA,NA
4cbaa,shallow,flow.Sequence,3_0_5_0_5_1,NA,NA,completion,10665.38,888975,888963.36,888980.02,899645.4,899657,2023-10-02T07:22:09Z,899662.04,NULL,Betrüger,mdanganyifu,s,mwanamuziki,wastani,mahakama,NA,sdf,NA,5,NA,NA,NA,NA,NA,NA,NA,NA,NA,NA,NA,NA,NA,NA,NA,NA,NA,NA,NA
4cbaa,task,flow.Sequence,3_0_5_0_5,NA,NA,completion,10665.38,888975,888963.36,888980.02,899645.4,899657,2023-10-02T07:22:09Z,899662.04,NULL,Betrüger,mdanganyifu,s,mwanamuziki,wastani,mahakama,NA,sdf,NA,5,NA,NA,NA,NA,NA,NA,NA,NA,NA,NA,NA,NA,NA,NA,NA,NA,NA,NA,NA
4cbaa,Deep Question,html.Page,3_0_5_0_6_0_0,NA,NA,form submission,14255.96,899658,899645.4,899662.04,913918,913918,2023-10-02T07:22:23Z,913926.86,NULL,Orientierung,urekebisho,d,NA,NA,NA,ukarabisho,NA,NA,5,NA,NA,NA,NA,NA,NA,NA,NA,NA,NA,NA,NA,NA,NA,NA,NA,NA,NA,NA
4cbaa,"""Richtig""-Screen",canvas.Screen,3_0_5_0_6_0_1,NA,NA,skipped,NA,913921,NA,NA,913918,913922,2023-10-02T07:22:23Z,913926.86,NULL,Orientierung,urekebisho,d,NA,NA,NA,NA,sdf,NA,5,NA,NA,NA,NA,NA,NA,NA,NA,NA,NA,NA,NA,NA,NA,NA,NA,NA,NA,NA
4cbaa,"""Falsch""-Screen",canvas.Screen,3_0_5_0_6_0_2,NA,NA,timeout,4999.2000000001,913925,913914.22,913926.86,918909.42,918915,2023-10-02T07:22:28Z,918926.06,NULL,Orientierung,urekebisho,d,NA,NA,NA,NA,sdf,0,5,NA,NA,NA,NA,NA,NA,NA,NA,NA,NA,NA,NA,NA,NA,NA,NA,NA,NA,NA
4cbaa,deep,flow.Sequence,3_0_5_0_6_0,NA,NA,completion,19247.38,899657,899645.4,899662.04,918909.42,918918,2023-10-02T07:22:28Z,918926.06,NULL,Orientierung,urekebisho,d,NA,NA,NA,NA,sdf,NA,5,NA,NA,NA,NA,NA,NA,NA,NA,NA,NA,NA,NA,NA,NA,NA,NA,NA,NA,NA
4cbaa,shallow,flow.Sequence,3_0_5_0_6_1,NA,NA,skipped,NA,918920,NA,NA,918909.42,918920,2023-10-02T07:22:28Z,918926.06,NULL,Orientierung,urekebisho,d,NA,NA,NA,NA,sdf,NA,5,NA,NA,NA,NA,NA,NA,NA,NA,NA,NA,NA,NA,NA,NA,NA,NA,NA,NA,NA
4cbaa,task,flow.Sequence,3_0_5_0_6,NA,NA,completion,19247.38,899657,899645.4,899662.04,918909.42,918921,2023-10-02T07:22:28Z,918926.06,NULL,Orientierung,urekebisho,d,NA,NA,NA,NA,sdf,NA,5,NA,NA,NA,NA,NA,NA,NA,NA,NA,NA,NA,NA,NA,NA,NA,NA,NA,NA,NA
4cbaa,Deep Question,html.Page,3_0_5_0_7_0_0,NA,NA,form submission,5365.9399999999,918921,918909.42,918926.06,924292,924292,2023-10-02T07:22:33Z,924292.22,NULL,Vergnügen,kichekesho,d,NA,NA,NA,sdjfoiwefj,NA,NA,5,NA,NA,NA,NA,NA,NA,NA,NA,NA,NA,NA,NA,NA,NA,NA,NA,NA,NA,NA
4cbaa,"""Richtig""-Screen",canvas.Screen,3_0_5_0_7_0_1,NA,NA,skipped,NA,924296,NA,NA,924292,924296,2023-10-02T07:22:33Z,924292.22,NULL,Vergnügen,kichekesho,d,NA,NA,NA,NA,sdf,NA,5,NA,NA,NA,NA,NA,NA,NA,NA,NA,NA,NA,NA,NA,NA,NA,NA,NA,NA,NA
4cbaa,"""Falsch""-Screen",canvas.Screen,3_0_5_0_7_0_2,NA,NA,timeout,4999.36,924298,924289.26,924292.22,929274.94,929277,2023-10-02T07:22:38Z,929291.58,NULL,Vergnügen,kichekesho,d,NA,NA,NA,NA,sdf,0,5,NA,NA,NA,NA,NA,NA,NA,NA,NA,NA,NA,NA,NA,NA,NA,NA,NA,NA,NA
4cbaa,deep,flow.Sequence,3_0_5_0_7_0,NA,NA,completion,10348.88,918921,918909.42,918926.06,929274.94,929278,2023-10-02T07:22:38Z,929291.58,NULL,Vergnügen,kichekesho,d,NA,NA,NA,NA,sdf,NA,5,NA,NA,NA,NA,NA,NA,NA,NA,NA,NA,NA,NA,NA,NA,NA,NA,NA,NA,NA
4cbaa,shallow,flow.Sequence,3_0_5_0_7_1,NA,NA,skipped,NA,929278,NA,NA,929274.94,929279,2023-10-02T07:22:38Z,929291.58,NULL,Vergnügen,kichekesho,d,NA,NA,NA,NA,sdf,NA,5,NA,NA,NA,NA,NA,NA,NA,NA,NA,NA,NA,NA,NA,NA,NA,NA,NA,NA,NA
4cbaa,task,flow.Sequence,3_0_5_0_7,NA,NA,completion,10348.88,918921,918909.42,918926.06,929274.94,929279,2023-10-02T07:22:38Z,929291.58,NULL,Vergnügen,kichekesho,d,NA,NA,NA,NA,sdf,NA,5,NA,NA,NA,NA,NA,NA,NA,NA,NA,NA,NA,NA,NA,NA,NA,NA,NA,NA,NA
4cbaa,block,flow.Loop,3_0_5_0,NA,NA,completion,110221.8,819053,819052.82,819053.14,929274.94,929280,2023-10-02T07:22:38Z,929291.58,NULL,NA,NA,NA,NA,NA,NA,NA,sdf,NA,5,NA,NA,NA,NA,NA,NA,NA,NA,NA,NA,NA,NA,NA,NA,NA,NA,NA,NA,NA
4cbaa,weiter,canvas.Screen,3_0_5_1,sdf,keypress(Space),response,2589.42,929281,929274.94,929291.58,931881,931897,2023-10-02T07:22:41Z,931966.3,NULL,NA,NA,NA,NA,NA,NA,NA,sdf,NA,5,NA,NA,NA,NA,NA,NA,NA,NA,NA,NA,NA,NA,NA,NA,NA,NA,NA,NA,NA
4cbaa,check continue,flow.Sequence,3_0_5,NA,NA,completion,112827.86,819053,819052.82,819053.14,931881,931898,2023-10-02T07:22:41Z,931966.3,NULL,NA,NA,NA,NA,NA,NA,NA,sdf,NA,5,NA,NA,NA,NA,NA,NA,NA,NA,NA,NA,NA,NA,NA,NA,NA,NA,NA,NA,NA
4cbaa,Deep Question,html.Page,3_0_6_0_0_0_0,NA,NA,form submission,6931.7,931966,931966.06,931966.3,938898,938898,2023-10-02T07:22:48Z,938905.9,NULL,Respekt,heshima,d,NA,NA,NA,heshima,NA,NA,6,NA,NA,NA,NA,NA,NA,NA,NA,NA,NA,NA,NA,NA,NA,NA,NA,NA,NA,NA
4cbaa,"""Richtig""-Screen",canvas.Screen,3_0_6_0_0_0_1,NA,NA,timeout,5000.4399999999,938899,938895.92,938905.9,943889.7,943891,2023-10-02T07:22:53Z,943906.34,NULL,Respekt,heshima,d,NA,NA,NA,NA,dfs,1,6,NA,NA,NA,NA,NA,NA,NA,NA,NA,NA,NA,NA,NA,NA,NA,NA,NA,NA,NA
4cbaa,"""Falsch""-Screen",canvas.Screen,3_0_6_0_0_0_2,NA,NA,skipped,NA,943898,NA,NA,943889.7,943898,2023-10-02T07:22:53Z,943906.34,NULL,Respekt,heshima,d,NA,NA,NA,NA,dfs,NA,6,NA,NA,NA,NA,NA,NA,NA,NA,NA,NA,NA,NA,NA,NA,NA,NA,NA,NA,NA
4cbaa,deep,flow.Sequence,3_0_6_0_0_0,NA,NA,completion,11923.4,931966,931966.06,931966.3,943889.7,943899,2023-10-02T07:22:53Z,943906.34,NULL,Respekt,heshima,d,NA,NA,NA,NA,dfs,NA,6,NA,NA,NA,NA,NA,NA,NA,NA,NA,NA,NA,NA,NA,NA,NA,NA,NA,NA,NA
4cbaa,shallow,flow.Sequence,3_0_6_0_0_1,NA,NA,skipped,NA,943899,NA,NA,943889.7,943899,2023-10-02T07:22:53Z,943906.34,NULL,Respekt,heshima,d,NA,NA,NA,NA,dfs,NA,6,NA,NA,NA,NA,NA,NA,NA,NA,NA,NA,NA,NA,NA,NA,NA,NA,NA,NA,NA
4cbaa,task,flow.Sequence,3_0_6_0_0,NA,NA,completion,11923.4,931966,931966.06,931966.3,943889.7,943899,2023-10-02T07:22:53Z,943906.34,NULL,Respekt,heshima,d,NA,NA,NA,NA,dfs,NA,6,NA,NA,NA,NA,NA,NA,NA,NA,NA,NA,NA,NA,NA,NA,NA,NA,NA,NA,NA
4cbaa,Deep Question,html.Page,3_0_6_0_1_0_0,NA,NA,form submission,8531.66,943900,943889.7,943906.34,952438,952438,2023-10-02T07:23:01Z,952438.58,NULL,Vergnügen,kichekesho,d,NA,NA,NA,kichekesho,NA,NA,6,NA,NA,NA,NA,NA,NA,NA,NA,NA,NA,NA,NA,NA,NA,NA,NA,NA,NA,NA
4cbaa,"""Richtig""-Screen",canvas.Screen,3_0_6_0_1_0_1,NA,NA,timeout,4999.38,952439,952433.12,952438.58,957421.3,957423,2023-10-02T07:23:06Z,957437.96,NULL,Vergnügen,kichekesho,d,NA,NA,NA,NA,dfs,1,6,NA,NA,NA,NA,NA,NA,NA,NA,NA,NA,NA,NA,NA,NA,NA,NA,NA,NA,NA
4cbaa,"""Falsch""-Screen",canvas.Screen,3_0_6_0_1_0_2,NA,NA,skipped,NA,957429,NA,NA,957421.3,957429,2023-10-02T07:23:06Z,957437.96,NULL,Vergnügen,kichekesho,d,NA,NA,NA,NA,dfs,NA,6,NA,NA,NA,NA,NA,NA,NA,NA,NA,NA,NA,NA,NA,NA,NA,NA,NA,NA,NA
4cbaa,deep,flow.Sequence,3_0_6_0_1_0,NA,NA,completion,13514.96,943900,943889.7,943906.34,957421.3,957430,2023-10-02T07:23:06Z,957437.96,NULL,Vergnügen,kichekesho,d,NA,NA,NA,NA,dfs,NA,6,NA,NA,NA,NA,NA,NA,NA,NA,NA,NA,NA,NA,NA,NA,NA,NA,NA,NA,NA
4cbaa,shallow,flow.Sequence,3_0_6_0_1_1,NA,NA,skipped,NA,957430,NA,NA,957421.3,957430,2023-10-02T07:23:06Z,957437.96,NULL,Vergnügen,kichekesho,d,NA,NA,NA,NA,dfs,NA,6,NA,NA,NA,NA,NA,NA,NA,NA,NA,NA,NA,NA,NA,NA,NA,NA,NA,NA,NA
4cbaa,task,flow.Sequence,3_0_6_0_1,NA,NA,completion,13514.96,943899,943889.7,943906.34,957421.3,957430,2023-10-02T07:23:06Z,957437.96,NULL,Vergnügen,kichekesho,d,NA,NA,NA,NA,dfs,NA,6,NA,NA,NA,NA,NA,NA,NA,NA,NA,NA,NA,NA,NA,NA,NA,NA,NA,NA,NA
4cbaa,deep,flow.Sequence,3_0_6_0_2_0,NA,NA,skipped,NA,957431,NA,NA,957421.3,957431,2023-10-02T07:23:06Z,957437.96,NULL,Stimmung,kinyongo,s,kilekile,kisambo,madhehebu,NA,dfs,NA,6,NA,NA,NA,NA,NA,NA,NA,NA,NA,NA,NA,NA,NA,NA,NA,NA,NA,NA,NA
4cbaa,Shallow Question,html.Page,3_0_6_0_2_1_0,NA,NA,form submission,5334.04,957432,957421.3,957437.96,962772,962772,2023-10-02T07:23:12Z,962770.56,NULL,Stimmung,kinyongo,s,kilekile,kisambo,madhehebu,kinyongo,NA,NA,6,NA,NA,NA,NA,NA,NA,NA,NA,NA,NA,NA,NA,NA,NA,NA,NA,NA,NA,NA
4cbaa,"""Richtig""-Screen",canvas.Screen,3_0_6_0_2_1_1,NA,NA,timeout,4999.3999999999,962774,962769.62,962770.56,967753.3,967755,2023-10-02T07:23:17Z,967769.96,NULL,Stimmung,kinyongo,s,kilekile,kisambo,madhehebu,NA,dfs,1,6,NA,NA,NA,NA,NA,NA,NA,NA,NA,NA,NA,NA,NA,NA,NA,NA,NA,NA,NA
4cbaa,"""Falsch""-Screen",canvas.Screen,3_0_6_0_2_1_2,NA,NA,skipped,NA,967761,NA,NA,967753.3,967761,2023-10-02T07:23:17Z,967769.96,NULL,Stimmung,kinyongo,s,kilekile,kisambo,madhehebu,NA,dfs,NA,6,NA,NA,NA,NA,NA,NA,NA,NA,NA,NA,NA,NA,NA,NA,NA,NA,NA,NA,NA
4cbaa,shallow,flow.Sequence,3_0_6_0_2_1,NA,NA,completion,10315.34,957431,957421.3,957437.96,967753.3,967762,2023-10-02T07:23:17Z,967769.96,NULL,Stimmung,kinyongo,s,kilekile,kisambo,madhehebu,NA,dfs,NA,6,NA,NA,NA,NA,NA,NA,NA,NA,NA,NA,NA,NA,NA,NA,NA,NA,NA,NA,NA
4cbaa,task,flow.Sequence,3_0_6_0_2,NA,NA,completion,10315.34,957431,957421.3,957437.96,967753.3,967762,2023-10-02T07:23:17Z,967769.96,NULL,Stimmung,kinyongo,s,kilekile,kisambo,madhehebu,NA,dfs,NA,6,NA,NA,NA,NA,NA,NA,NA,NA,NA,NA,NA,NA,NA,NA,NA,NA,NA,NA,NA
4cbaa,deep,flow.Sequence,3_0_6_0_3_0,NA,NA,skipped,NA,967762,NA,NA,967753.3,967763,2023-10-02T07:23:17Z,967769.96,NULL,Wohlstand,mafanikio,s,chimbuko,kumbuko,mapwaji,NA,dfs,NA,6,NA,NA,NA,NA,NA,NA,NA,NA,NA,NA,NA,NA,NA,NA,NA,NA,NA,NA,NA
4cbaa,Shallow Question,html.Page,3_0_6_0_3_1_0,NA,NA,form submission,6281.04,967763,967753.3,967769.96,974051,974052,2023-10-02T07:23:23Z,974052.52,NULL,Wohlstand,mafanikio,s,chimbuko,kumbuko,mapwaji,mafanikio,NA,NA,6,NA,NA,NA,NA,NA,NA,NA,NA,NA,NA,NA,NA,NA,NA,NA,NA,NA,NA,NA
4cbaa,"""Richtig""-Screen",canvas.Screen,3_0_6_0_3_1_1,NA,NA,timeout,4999.3199999999,974055,974047.82,974052.52,979035.2,979036,2023-10-02T07:23:28Z,979051.84,NULL,Wohlstand,mafanikio,s,chimbuko,kumbuko,mapwaji,NA,dfs,1,6,NA,NA,NA,NA,NA,NA,NA,NA,NA,NA,NA,NA,NA,NA,NA,NA,NA,NA,NA
4cbaa,"""Falsch""-Screen",canvas.Screen,3_0_6_0_3_1_2,NA,NA,skipped,NA,979039,NA,NA,979035.2,979040,2023-10-02T07:23:28Z,979051.84,NULL,Wohlstand,mafanikio,s,chimbuko,kumbuko,mapwaji,NA,dfs,NA,6,NA,NA,NA,NA,NA,NA,NA,NA,NA,NA,NA,NA,NA,NA,NA,NA,NA,NA,NA
4cbaa,shallow,flow.Sequence,3_0_6_0_3_1,NA,NA,completion,11265.24,967763,967753.3,967769.96,979035.2,979040,2023-10-02T07:23:28Z,979051.84,NULL,Wohlstand,mafanikio,s,chimbuko,kumbuko,mapwaji,NA,dfs,NA,6,NA,NA,NA,NA,NA,NA,NA,NA,NA,NA,NA,NA,NA,NA,NA,NA,NA,NA,NA
4cbaa,task,flow.Sequence,3_0_6_0_3,NA,NA,completion,11265.24,967762,967753.3,967769.96,979035.2,979040,2023-10-02T07:23:28Z,979051.84,NULL,Wohlstand,mafanikio,s,chimbuko,kumbuko,mapwaji,NA,dfs,NA,6,NA,NA,NA,NA,NA,NA,NA,NA,NA,NA,NA,NA,NA,NA,NA,NA,NA,NA,NA
4cbaa,Deep Question,html.Page,3_0_6_0_4_0_0,NA,NA,form submission,17739.16,979040,979035.2,979051.84,996791,996792,2023-10-02T07:23:46Z,996799.5,NULL,Orientierung,urekebisho,d,NA,NA,NA,ukerebisho,NA,NA,6,NA,NA,NA,NA,NA,NA,NA,NA,NA,NA,NA,NA,NA,NA,NA,NA,NA,NA,NA
4cbaa,"""Richtig""-Screen",canvas.Screen,3_0_6_0_4_0_1,NA,NA,skipped,NA,996796,NA,NA,996791,996796,2023-10-02T07:23:46Z,996799.5,NULL,Orientierung,urekebisho,d,NA,NA,NA,NA,dfs,NA,6,NA,NA,NA,NA,NA,NA,NA,NA,NA,NA,NA,NA,NA,NA,NA,NA,NA,NA,NA
4cbaa,"""Falsch""-Screen",canvas.Screen,3_0_6_0_4_0_2,NA,NA,timeout,4999.36,996801,996787.28,996799.5,1001782.32,1001783,2023-10-02T07:23:51Z,1001798.86,NULL,Orientierung,urekebisho,d,NA,NA,NA,NA,dfs,0,6,NA,NA,NA,NA,NA,NA,NA,NA,NA,NA,NA,NA,NA,NA,NA,NA,NA,NA,NA
4cbaa,deep,flow.Sequence,3_0_6_0_4_0,NA,NA,completion,22730.48,979040,979035.2,979051.84,1001782.32,1001784,2023-10-02T07:23:51Z,1001798.86,NULL,Orientierung,urekebisho,d,NA,NA,NA,NA,dfs,NA,6,NA,NA,NA,NA,NA,NA,NA,NA,NA,NA,NA,NA,NA,NA,NA,NA,NA,NA,NA
4cbaa,shallow,flow.Sequence,3_0_6_0_4_1,NA,NA,skipped,NA,1001784,NA,NA,1001782.32,1001784,2023-10-02T07:23:51Z,1001798.86,NULL,Orientierung,urekebisho,d,NA,NA,NA,NA,dfs,NA,6,NA,NA,NA,NA,NA,NA,NA,NA,NA,NA,NA,NA,NA,NA,NA,NA,NA,NA,NA
4cbaa,task,flow.Sequence,3_0_6_0_4,NA,NA,completion,22730.48,979040,979035.2,979051.84,1001782.32,1001785,2023-10-02T07:23:51Z,1001798.86,NULL,Orientierung,urekebisho,d,NA,NA,NA,NA,dfs,NA,6,NA,NA,NA,NA,NA,NA,NA,NA,NA,NA,NA,NA,NA,NA,NA,NA,NA,NA,NA
4cbaa,deep,flow.Sequence,3_0_6_0_5_0,NA,NA,skipped,NA,1001785,NA,NA,1001782.32,1001785,2023-10-02T07:23:51Z,1001798.86,NULL,Betrüger,mdanganyifu,s,mwanamuziki,wastani,mahakama,NA,dfs,NA,6,NA,NA,NA,NA,NA,NA,NA,NA,NA,NA,NA,NA,NA,NA,NA,NA,NA,NA,NA
4cbaa,Shallow Question,html.Page,3_0_6_0_5_1_0,NA,NA,form submission,4883.14,1001786,1001782.32,1001798.86,1006682,1006683,2023-10-02T07:23:56Z,1006681.7,NULL,Betrüger,mdanganyifu,s,mwanamuziki,wastani,mahakama,mdanganyifu,NA,NA,6,NA,NA,NA,NA,NA,NA,NA,NA,NA,NA,NA,NA,NA,NA,NA,NA,NA,NA,NA
4cbaa,"""Richtig""-Screen",canvas.Screen,3_0_6_0_5_1_1,NA,NA,timeout,4999.28,1006688,1006676.76,1006681.7,1011664.32,1011670,2023-10-02T07:24:01Z,1011680.98,NULL,Betrüger,mdanganyifu,s,mwanamuziki,wastani,mahakama,NA,dfs,1,6,NA,NA,NA,NA,NA,NA,NA,NA,NA,NA,NA,NA,NA,NA,NA,NA,NA,NA,NA
4cbaa,"""Falsch""-Screen",canvas.Screen,3_0_6_0_5_1_2,NA,NA,skipped,NA,1011686,NA,NA,1011664.32,1011687,2023-10-02T07:24:01Z,1011680.98,NULL,Betrüger,mdanganyifu,s,mwanamuziki,wastani,mahakama,NA,dfs,NA,6,NA,NA,NA,NA,NA,NA,NA,NA,NA,NA,NA,NA,NA,NA,NA,NA,NA,NA,NA
4cbaa,shallow,flow.Sequence,3_0_6_0_5_1,NA,NA,completion,9865.46,1001786,1001782.32,1001798.86,1011664.32,1011687,2023-10-02T07:24:01Z,1011680.98,NULL,Betrüger,mdanganyifu,s,mwanamuziki,wastani,mahakama,NA,dfs,NA,6,NA,NA,NA,NA,NA,NA,NA,NA,NA,NA,NA,NA,NA,NA,NA,NA,NA,NA,NA
4cbaa,task,flow.Sequence,3_0_6_0_5,NA,NA,completion,9865.46,1001785,1001782.32,1001798.86,1011664.32,1011688,2023-10-02T07:24:01Z,1011680.98,NULL,Betrüger,mdanganyifu,s,mwanamuziki,wastani,mahakama,NA,dfs,NA,6,NA,NA,NA,NA,NA,NA,NA,NA,NA,NA,NA,NA,NA,NA,NA,NA,NA,NA,NA
4cbaa,deep,flow.Sequence,3_0_6_0_6_0,NA,NA,skipped,NA,1011688,NA,NA,1011664.32,1011689,2023-10-02T07:24:01Z,1011680.98,NULL,Ergänzung,kijalizo,s,ulaghai,mustarehe,matangazo,NA,dfs,NA,6,NA,NA,NA,NA,NA,NA,NA,NA,NA,NA,NA,NA,NA,NA,NA,NA,NA,NA,NA
4cbaa,Shallow Question,html.Page,3_0_6_0_6_1_0,NA,NA,form submission,5981.02,1011689,1011664.32,1011680.98,1017662,1017663,2023-10-02T07:24:07Z,1017663.5,NULL,Ergänzung,kijalizo,s,ulaghai,mustarehe,matangazo,kijalizo,NA,NA,6,NA,NA,NA,NA,NA,NA,NA,NA,NA,NA,NA,NA,NA,NA,NA,NA,NA,NA,NA
4cbaa,"""Richtig""-Screen",canvas.Screen,3_0_6_0_6_1_1,NA,NA,timeout,4999.38,1017671,1017654.52,1017663.5,1022646.22,1022648,2023-10-02T07:24:12Z,1022662.88,NULL,Ergänzung,kijalizo,s,ulaghai,mustarehe,matangazo,NA,dfs,1,6,NA,NA,NA,NA,NA,NA,NA,NA,NA,NA,NA,NA,NA,NA,NA,NA,NA,NA,NA
4cbaa,"""Falsch""-Screen",canvas.Screen,3_0_6_0_6_1_2,NA,NA,skipped,NA,1022656,NA,NA,1022646.22,1022657,2023-10-02T07:24:12Z,1022662.88,NULL,Ergänzung,kijalizo,s,ulaghai,mustarehe,matangazo,NA,dfs,NA,6,NA,NA,NA,NA,NA,NA,NA,NA,NA,NA,NA,NA,NA,NA,NA,NA,NA,NA,NA
4cbaa,shallow,flow.Sequence,3_0_6_0_6_1,NA,NA,completion,10965.24,1011689,1011664.32,1011680.98,1022646.22,1022657,2023-10-02T07:24:12Z,1022662.88,NULL,Ergänzung,kijalizo,s,ulaghai,mustarehe,matangazo,NA,dfs,NA,6,NA,NA,NA,NA,NA,NA,NA,NA,NA,NA,NA,NA,NA,NA,NA,NA,NA,NA,NA
4cbaa,task,flow.Sequence,3_0_6_0_6,NA,NA,completion,10965.24,1011688,1011664.32,1011680.98,1022646.22,1022657,2023-10-02T07:24:12Z,1022662.88,NULL,Ergänzung,kijalizo,s,ulaghai,mustarehe,matangazo,NA,dfs,NA,6,NA,NA,NA,NA,NA,NA,NA,NA,NA,NA,NA,NA,NA,NA,NA,NA,NA,NA,NA
4cbaa,Deep Question,html.Page,3_0_6_0_7_0_0,NA,NA,form submission,23005.12,1022658,1022646.22,1022662.88,1045668,1045669,2023-10-02T07:24:35Z,1045676.6,NULL,Notfall,dharura,d,NA,NA,NA,d huara,NA,NA,6,NA,NA,NA,NA,NA,NA,NA,NA,NA,NA,NA,NA,NA,NA,NA,NA,NA,NA,NA
