observation,sender,sender_type,sender_id,response,response_action,ended_on,duration,time_run,time_render,time_show,time_end,time_commit,timestamp,time_switch,distractors,german,swahili,enc,distractor1,distractor2,distractor3,response_2,x,correct,x_2,url_vp,url_sess,meta_labjs_version,meta_location,meta_user_agent,meta_platform,meta_language,meta_locale,meta_time_zone,meta_timezone_offset,meta_screen_width,meta_screen_height,meta_scroll_width,meta_scroll_height,meta_window_inner_width,meta_window_inner_height,meta_device_pixel_ratio,meta_labjs_build_flavor,meta_labjs_build_commit
34e31,Introduction general,canvas.Screen,0,weiter,keypress(q),response,1048050.794,781.19999998808,764.905,798.206,1048849,1048850.9,2023-11-24T14:56:57Z,1048865.412,NULL,NA,NA,NA,NA,NA,NA,NA,NA,NA,NA,189,3,20.2.4,https://neurocog.fernuni.ch/studies/vweber/sliechti/encoding_immediate/index.html?vp=189&sess=3,"Mozilla/5.0 (Windows NT 10.0; Win64; x64) AppleWebKit/537.36 (KHTML, like Gecko) Chrome/119.0.0.0 Safari/537.36 Edg/119.0.0.0",Win32,cs,en-GB,Europe/Bratislava,-60,1536,864,1488,668,1488,716,1.25,production,f5b4a49f956347addd546a832a3327688c2c0fef
34e31,Introduction practice,canvas.Screen,1_0,NA,keypress(Space),response,4655.8880000119,1048851.1,1048839.478,1048865.412,1053521.3,1053521.9,2023-11-24T14:57:01Z,1053528.259,NULL,NA,NA,NA,NA,NA,NA,NA,NA,NA,NA,NA,NA,NA,NA,NA,NA,NA,NA,NA,NA,NA,NA,NA,NA,NA,NA,NA,NA,NA
34e31,Deep Question,html.Page,1_1_0_0_0,NA,NA,form submission,3158.5410000118,1053522.1,1053513.811,1053528.259,1056686.8,1056687,2023-11-24T14:57:05Z,1056692.238,"c(""distractor1"", ""distractor2"", ""distractor3"")",Qualität,mtindo,d,NA,NA,NA,a,NA,NA,NA,NA,NA,NA,NA,NA,NA,NA,NA,NA,NA,NA,NA,NA,NA,NA,NA,NA,NA,NA
34e31,"""Richtig""-Screen",canvas.Screen,1_1_0_0_1,NA,NA,skipped,NA,1056687.8,NA,NA,1056686.8,1056687.8,2023-11-24T14:57:05Z,1056692.238,"c(""distractor1"", ""distractor2"", ""distractor3"")",Qualität,mtindo,d,NA,NA,NA,NA,NA,NA,NA,NA,NA,NA,NA,NA,NA,NA,NA,NA,NA,NA,NA,NA,NA,NA,NA,NA,NA,NA
34e31,"""Falsch""-Screen",canvas.Screen,1_1_0_0_2,NA,NA,timeout,4995.8860000002,1056688.3,1056675.758,1056692.238,1061671.52,1061673.7,2023-11-24T14:57:10Z,1061688.124,"c(""distractor1"", ""distractor2"", ""distractor3"")",Qualität,mtindo,d,NA,NA,NA,NA,NA,0,NA,NA,NA,NA,NA,NA,NA,NA,NA,NA,NA,NA,NA,NA,NA,NA,NA,NA,NA,NA
34e31,deep,flow.Sequence,1_1_0_0,NA,NA,completion,8143.2609999999,1053522.1,1053513.811,1053528.259,1061671.52,1061673.9,2023-11-24T14:57:10Z,1061688.124,"c(""distractor1"", ""distractor2"", ""distractor3"")",Qualität,mtindo,d,NA,NA,NA,NA,NA,NA,NA,NA,NA,NA,NA,NA,NA,NA,NA,NA,NA,NA,NA,NA,NA,NA,NA,NA,NA,NA
34e31,shallow,flow.Sequence,1_1_0_1,NA,NA,skipped,NA,1061674,NA,NA,1061671.52,1061674,2023-11-24T14:57:10Z,1061688.124,"c(""distractor1"", ""distractor2"", ""distractor3"")",Qualität,mtindo,d,NA,NA,NA,NA,NA,NA,NA,NA,NA,NA,NA,NA,NA,NA,NA,NA,NA,NA,NA,NA,NA,NA,NA,NA,NA,NA
34e31,task,flow.Sequence,1_1_0,NA,NA,completion,8143.2609999999,1053522.1,1053513.811,1053528.259,1061671.52,1061674.1,2023-11-24T14:57:10Z,1061688.124,"c(""distractor1"", ""distractor2"", ""distractor3"")",Qualität,mtindo,d,NA,NA,NA,NA,NA,NA,NA,NA,NA,NA,NA,NA,NA,NA,NA,NA,NA,NA,NA,NA,NA,NA,NA,NA,NA,NA
34e31,deep,flow.Sequence,1_1_1_0,NA,NA,skipped,NA,1061674.1,NA,NA,1061671.52,1061674.1,2023-11-24T14:57:10Z,1061688.124,"c(""distractor1"", ""distractor2"", ""distractor3"")",Kritik,lawama,s,dereva,nafasi,mawazo,NA,NA,NA,NA,NA,NA,NA,NA,NA,NA,NA,NA,NA,NA,NA,NA,NA,NA,NA,NA,NA,NA,NA
34e31,Shallow Question,html.Page,1_1_1_1_0,NA,NA,form submission,3943.7760000059,1061674.2,1061671.52,1061688.124,1065631.9,1065632.1,2023-11-24T14:57:14Z,1065634.855,"c(""distractor1"", ""distractor2"", ""distractor3"")",Kritik,lawama,s,dereva,nafasi,mawazo,dereva,NA,NA,NA,NA,NA,NA,NA,NA,NA,NA,NA,NA,NA,NA,NA,NA,NA,NA,NA,NA,NA,NA
34e31,"""Richtig""-Screen",canvas.Screen,1_1_1_1_1,NA,NA,skipped,NA,1065633.4,NA,NA,1065631.9,1065633.5,2023-11-24T14:57:14Z,1065634.855,"c(""distractor1"", ""distractor2"", ""distractor3"")",Kritik,lawama,s,dereva,nafasi,mawazo,NA,NA,NA,NA,NA,NA,NA,NA,NA,NA,NA,NA,NA,NA,NA,NA,NA,NA,NA,NA,NA,NA,NA
34e31,"""Falsch""-Screen",canvas.Screen,1_1_1_1_2,NA,NA,timeout,4996.1540000001,1065634,1065618.295,1065634.855,1070614.16,1070614.7,2023-11-24T14:57:19Z,1070631.009,"c(""distractor1"", ""distractor2"", ""distractor3"")",Kritik,lawama,s,dereva,nafasi,mawazo,NA,NA,0,NA,NA,NA,NA,NA,NA,NA,NA,NA,NA,NA,NA,NA,NA,NA,NA,NA,NA,NA,NA
34e31,shallow,flow.Sequence,1_1_1_1,NA,NA,completion,8926.0359999998,1061674.1,1061671.52,1061688.124,1070614.16,1070614.9,2023-11-24T14:57:19Z,1070631.009,"c(""distractor1"", ""distractor2"", ""distractor3"")",Kritik,lawama,s,dereva,nafasi,mawazo,NA,NA,NA,NA,NA,NA,NA,NA,NA,NA,NA,NA,NA,NA,NA,NA,NA,NA,NA,NA,NA,NA,NA
34e31,task,flow.Sequence,1_1_1,NA,NA,completion,8926.0359999998,1061674.1,1061671.52,1061688.124,1070614.16,1070614.9,2023-11-24T14:57:19Z,1070631.009,"c(""distractor1"", ""distractor2"", ""distractor3"")",Kritik,lawama,s,dereva,nafasi,mawazo,NA,NA,NA,NA,NA,NA,NA,NA,NA,NA,NA,NA,NA,NA,NA,NA,NA,NA,NA,NA,NA,NA,NA
34e31,deep,flow.Sequence,1_1_2_0,NA,NA,skipped,NA,1070614.9,NA,NA,1070614.16,1070615,2023-11-24T14:57:19Z,1070631.009,"c(""distractor1"", ""distractor2"", ""distractor3"")",Rückhalt,msaada,s,muhula,auwali,kiwimbe,NA,NA,NA,NA,NA,NA,NA,NA,NA,NA,NA,NA,NA,NA,NA,NA,NA,NA,NA,NA,NA,NA,NA
34e31,Shallow Question,html.Page,1_1_2_1_0,NA,NA,form submission,2238.9909999999,1070615.1,1070614.16,1070631.009,1072870,1072870.2,2023-11-24T14:57:21Z,1072878.85,"c(""distractor1"", ""distractor2"", ""distractor3"")",Rückhalt,msaada,s,muhula,auwali,kiwimbe,muhula,NA,NA,NA,NA,NA,NA,NA,NA,NA,NA,NA,NA,NA,NA,NA,NA,NA,NA,NA,NA,NA,NA
34e31,"""Richtig""-Screen",canvas.Screen,1_1_2_1_1,NA,NA,skipped,NA,1072871.4,NA,NA,1072870,1072871.6,2023-11-24T14:57:21Z,1072878.85,"c(""distractor1"", ""distractor2"", ""distractor3"")",Rückhalt,msaada,s,muhula,auwali,kiwimbe,NA,NA,NA,NA,NA,NA,NA,NA,NA,NA,NA,NA,NA,NA,NA,NA,NA,NA,NA,NA,NA,NA,NA
34e31,"""Falsch""-Screen",canvas.Screen,1_1_2_1_2,NA,NA,timeout,5649.5669999998,1072872,1072862.338,1072878.85,1078543.3,1078543.7,2023-11-24T14:57:26Z,1078528.417,"c(""distractor1"", ""distractor2"", ""distractor3"")",Rückhalt,msaada,s,muhula,auwali,kiwimbe,NA,NA,0,NA,NA,NA,NA,NA,NA,NA,NA,NA,NA,NA,NA,NA,NA,NA,NA,NA,NA,NA,NA
34e31,shallow,flow.Sequence,1_1_2_1,NA,NA,completion,7912.2910000118,1070615,1070614.16,1070631.009,1078543.3,1078543.9,2023-11-24T14:57:26Z,1078528.417,"c(""distractor1"", ""distractor2"", ""distractor3"")",Rückhalt,msaada,s,muhula,auwali,kiwimbe,NA,NA,NA,NA,NA,NA,NA,NA,NA,NA,NA,NA,NA,NA,NA,NA,NA,NA,NA,NA,NA,NA,NA
34e31,task,flow.Sequence,1_1_2,NA,NA,completion,7912.2910000118,1070614.9,1070614.16,1070631.009,1078543.3,1078544,2023-11-24T14:57:26Z,1078528.417,"c(""distractor1"", ""distractor2"", ""distractor3"")",Rückhalt,msaada,s,muhula,auwali,kiwimbe,NA,NA,NA,NA,NA,NA,NA,NA,NA,NA,NA,NA,NA,NA,NA,NA,NA,NA,NA,NA,NA,NA,NA
34e31,deep,flow.Sequence,1_1_3_0,NA,NA,skipped,NA,1078544.1,NA,NA,1078543.3,1078544.2,2023-11-24T14:57:26Z,1078528.417,"c(""distractor1"", ""distractor2"", ""distractor3"")",Gegenwart,hadhara,s,katiba,jokofu,mikopo,NA,NA,NA,NA,NA,NA,NA,NA,NA,NA,NA,NA,NA,NA,NA,NA,NA,NA,NA,NA,NA,NA,NA
34e31,Shallow Question,html.Page,1_1_3_1_0,NA,NA,form submission,2181.383000012,1078544.2,1078543.3,1078528.417,1080709.8,1080710,2023-11-24T14:57:29Z,1080722.409,"c(""distractor1"", ""distractor2"", ""distractor3"")",Gegenwart,hadhara,s,katiba,jokofu,mikopo,katiba,NA,NA,NA,NA,NA,NA,NA,NA,NA,NA,NA,NA,NA,NA,NA,NA,NA,NA,NA,NA,NA,NA
34e31,"""Richtig""-Screen",canvas.Screen,1_1_3_1_1,NA,NA,skipped,NA,1080711.5,NA,NA,1080709.8,1080711.6,2023-11-24T14:57:29Z,1080722.409,"c(""distractor1"", ""distractor2"", ""distractor3"")",Gegenwart,hadhara,s,katiba,jokofu,mikopo,NA,NA,NA,NA,NA,NA,NA,NA,NA,NA,NA,NA,NA,NA,NA,NA,NA,NA,NA,NA,NA,NA,NA
34e31,"""Falsch""-Screen",canvas.Screen,1_1_3_1_2,NA,NA,timeout,5812.6089999999,1080711.9,1080705.838,1080722.409,1086535.8,1086536.2,2023-11-24T14:57:34Z,1086535.018,"c(""distractor1"", ""distractor2"", ""distractor3"")",Gegenwart,hadhara,s,katiba,jokofu,mikopo,NA,NA,0,NA,NA,NA,NA,NA,NA,NA,NA,NA,NA,NA,NA,NA,NA,NA,NA,NA,NA,NA,NA
34e31,shallow,flow.Sequence,1_1_3_1,NA,NA,completion,8007.383000012,1078544.2,1078543.3,1078528.417,1086535.8,1086536.3,2023-11-24T14:57:34Z,1086535.018,"c(""distractor1"", ""distractor2"", ""distractor3"")",Gegenwart,hadhara,s,katiba,jokofu,mikopo,NA,NA,NA,NA,NA,NA,NA,NA,NA,NA,NA,NA,NA,NA,NA,NA,NA,NA,NA,NA,NA,NA,NA
34e31,task,flow.Sequence,1_1_3,NA,NA,completion,8007.383000012,1078544,1078543.3,1078528.417,1086535.8,1086536.5,2023-11-24T14:57:34Z,1086535.018,"c(""distractor1"", ""distractor2"", ""distractor3"")",Gegenwart,hadhara,s,katiba,jokofu,mikopo,NA,NA,NA,NA,NA,NA,NA,NA,NA,NA,NA,NA,NA,NA,NA,NA,NA,NA,NA,NA,NA,NA,NA
34e31,Deep Question,html.Page,1_1_4_0_0,NA,NA,form submission,2485.1819999882,1086536.6,1086535.8,1086535.018,1089020.2,1089020.4,2023-11-24T14:57:37Z,1089032.154,"c(""distractor1"", ""distractor2"", ""distractor3"")",Schatten,kivuli,d,NA,NA,NA,n,NA,NA,NA,NA,NA,NA,NA,NA,NA,NA,NA,NA,NA,NA,NA,NA,NA,NA,NA,NA,NA,NA
34e31,"""Richtig""-Screen",canvas.Screen,1_1_4_0_1,NA,NA,skipped,NA,1089021.6,NA,NA,1089020.2,1089021.7,2023-11-24T14:57:37Z,1089032.154,"c(""distractor1"", ""distractor2"", ""distractor3"")",Schatten,kivuli,d,NA,NA,NA,NA,NA,NA,NA,NA,NA,NA,NA,NA,NA,NA,NA,NA,NA,NA,NA,NA,NA,NA,NA,NA,NA,NA
34e31,"""Falsch""-Screen",canvas.Screen,1_1_4_0_2,NA,NA,timeout,5496.2789999999,1089022.1,1089016.172,1089032.154,1094535.7,1094536.1,2023-11-24T14:57:42Z,1094528.433,"c(""distractor1"", ""distractor2"", ""distractor3"")",Schatten,kivuli,d,NA,NA,NA,NA,NA,0,NA,NA,NA,NA,NA,NA,NA,NA,NA,NA,NA,NA,NA,NA,NA,NA,NA,NA,NA,NA
34e31,deep,flow.Sequence,1_1_4_0,NA,NA,completion,8000.6819999882,1086536.6,1086535.8,1086535.018,1094535.7,1094536.3,2023-11-24T14:57:42Z,1094528.433,"c(""distractor1"", ""distractor2"", ""distractor3"")",Schatten,kivuli,d,NA,NA,NA,NA,NA,NA,NA,NA,NA,NA,NA,NA,NA,NA,NA,NA,NA,NA,NA,NA,NA,NA,NA,NA,NA,NA
34e31,shallow,flow.Sequence,1_1_4_1,NA,NA,skipped,NA,1094536.4,NA,NA,1094535.7,1094536.5,2023-11-24T14:57:42Z,1094528.433,"c(""distractor1"", ""distractor2"", ""distractor3"")",Schatten,kivuli,d,NA,NA,NA,NA,NA,NA,NA,NA,NA,NA,NA,NA,NA,NA,NA,NA,NA,NA,NA,NA,NA,NA,NA,NA,NA,NA
34e31,task,flow.Sequence,1_1_4,NA,NA,completion,8000.6819999882,1086536.6,1086535.8,1086535.018,1094535.7,1094536.5,2023-11-24T14:57:42Z,1094528.433,"c(""distractor1"", ""distractor2"", ""distractor3"")",Schatten,kivuli,d,NA,NA,NA,NA,NA,NA,NA,NA,NA,NA,NA,NA,NA,NA,NA,NA,NA,NA,NA,NA,NA,NA,NA,NA,NA,NA
34e31,Deep Question,html.Page,1_1_5_0_0,NA,NA,form submission,2239.467000006,1094536.7,1094535.7,1094528.433,1096767.9,1096768.1,2023-11-24T14:57:45Z,1096775.747,"c(""distractor1"", ""distractor2"", ""distractor3"")",Gesundheit,salama,d,NA,NA,NA,k,NA,NA,NA,NA,NA,NA,NA,NA,NA,NA,NA,NA,NA,NA,NA,NA,NA,NA,NA,NA,NA,NA
34e31,"""Richtig""-Screen",canvas.Screen,1_1_5_0_1,NA,NA,skipped,NA,1096769.1,NA,NA,1096767.9,1096769.1,2023-11-24T14:57:45Z,1096775.747,"c(""distractor1"", ""distractor2"", ""distractor3"")",Gesundheit,salama,d,NA,NA,NA,NA,NA,NA,NA,NA,NA,NA,NA,NA,NA,NA,NA,NA,NA,NA,NA,NA,NA,NA,NA,NA,NA,NA
34e31,"""Falsch""-Screen",canvas.Screen,1_1_5_0_2,NA,NA,timeout,5746.3700000001,1096769.5,1096759.239,1096775.747,1102536.4,1102536.6,2023-11-24T14:57:50Z,1102522.117,"c(""distractor1"", ""distractor2"", ""distractor3"")",Gesundheit,salama,d,NA,NA,NA,NA,NA,0,NA,NA,NA,NA,NA,NA,NA,NA,NA,NA,NA,NA,NA,NA,NA,NA,NA,NA,NA,NA
34e31,deep,flow.Sequence,1_1_5_0,NA,NA,completion,8007.967000006,1094536.7,1094535.7,1094528.433,1102536.4,1102536.8,2023-11-24T14:57:50Z,1102522.117,"c(""distractor1"", ""distractor2"", ""distractor3"")",Gesundheit,salama,d,NA,NA,NA,NA,NA,NA,NA,NA,NA,NA,NA,NA,NA,NA,NA,NA,NA,NA,NA,NA,NA,NA,NA,NA,NA,NA
34e31,shallow,flow.Sequence,1_1_5_1,NA,NA,skipped,NA,1102536.8,NA,NA,1102536.4,1102536.9,2023-11-24T14:57:50Z,1102522.117,"c(""distractor1"", ""distractor2"", ""distractor3"")",Gesundheit,salama,d,NA,NA,NA,NA,NA,NA,NA,NA,NA,NA,NA,NA,NA,NA,NA,NA,NA,NA,NA,NA,NA,NA,NA,NA,NA,NA
34e31,task,flow.Sequence,1_1_5,NA,NA,completion,8007.967000006,1094536.6,1094535.7,1094528.433,1102536.4,1102537,2023-11-24T14:57:50Z,1102522.117,"c(""distractor1"", ""distractor2"", ""distractor3"")",Gesundheit,salama,d,NA,NA,NA,NA,NA,NA,NA,NA,NA,NA,NA,NA,NA,NA,NA,NA,NA,NA,NA,NA,NA,NA,NA,NA,NA,NA
34e31,block,flow.Loop,1_1,NA,NA,completion,49008.141000006,1053522.1,1053513.811,1053528.259,1102536.4,1102537,2023-11-24T14:57:50Z,1102522.117,"c(""distractor1"", ""distractor2"", ""distractor3"")",NA,NA,NA,NA,NA,NA,NA,NA,NA,NA,NA,NA,NA,NA,NA,NA,NA,NA,NA,NA,NA,NA,NA,NA,NA,NA,NA,NA,NA
34e31,Practice,flow.Sequence,1,NA,NA,completion,53670.988000006,1048851.1,1048839.478,1048865.412,1102536.4,1102537.2,2023-11-24T14:57:50Z,1102522.117,NULL,NA,NA,NA,NA,NA,NA,NA,NA,NA,NA,NA,NA,NA,NA,NA,NA,NA,NA,NA,NA,NA,NA,NA,NA,NA,NA,NA,NA,NA
34e31,Experiment start,canvas.Screen,2,weiter,keypress(q),response,58504.883,1102537.2,1102536.4,1102522.117,1161027,1161027.6,2023-11-24T14:58:49Z,1161089.369,NULL,NA,NA,NA,NA,NA,NA,NA,NA,NA,NA,NA,NA,NA,NA,NA,NA,NA,NA,NA,NA,NA,NA,NA,NA,NA,NA,NA,NA,NA
34e31,Deep Question,html.Page,3_0_0_0_0_0_0,NA,NA,form submission,5294.3309999881,1161072.2,1161064.526,1161089.369,1166383.7,1166384,2023-11-24T14:58:54Z,1166384.908,NULL,Kultur,utamaduni,d,NA,NA,NA,a,NA,NA,0,NA,NA,NA,NA,NA,NA,NA,NA,NA,NA,NA,NA,NA,NA,NA,NA,NA,NA,NA
34e31,"""Richtig""-Screen",canvas.Screen,3_0_0_0_0_0_1,NA,NA,skipped,NA,1166385.1,NA,NA,1166383.7,1166385.2,2023-11-24T14:58:54Z,1166384.908,NULL,Kultur,utamaduni,d,NA,NA,NA,NA,sdf,NA,0,NA,NA,NA,NA,NA,NA,NA,NA,NA,NA,NA,NA,NA,NA,NA,NA,NA,NA,NA
34e31,"""Falsch""-Screen",canvas.Screen,3_0_0_0_0_0_2,NA,NA,timeout,5149.737,1166385.6,1166368.529,1166384.908,1171535,1171535.4,2023-11-24T14:58:59Z,1171534.645,NULL,Kultur,utamaduni,d,NA,NA,NA,NA,sdf,0,0,NA,NA,NA,NA,NA,NA,NA,NA,NA,NA,NA,NA,NA,NA,NA,NA,NA,NA,NA
34e31,deep,flow.Sequence,3_0_0_0_0_0,NA,NA,completion,10445.631,1161072.2,1161064.526,1161089.369,1171535,1171535.6,2023-11-24T14:58:59Z,1171534.645,NULL,Kultur,utamaduni,d,NA,NA,NA,NA,sdf,NA,0,NA,NA,NA,NA,NA,NA,NA,NA,NA,NA,NA,NA,NA,NA,NA,NA,NA,NA,NA
34e31,shallow,flow.Sequence,3_0_0_0_0_1,NA,NA,skipped,NA,1171535.7,NA,NA,1171535,1171535.7,2023-11-24T14:58:59Z,1171534.645,NULL,Kultur,utamaduni,d,NA,NA,NA,NA,sdf,NA,0,NA,NA,NA,NA,NA,NA,NA,NA,NA,NA,NA,NA,NA,NA,NA,NA,NA,NA,NA
34e31,task,flow.Sequence,3_0_0_0_0,NA,NA,completion,10445.631,1161072.2,1161064.526,1161089.369,1171535,1171535.9,2023-11-24T14:58:59Z,1171534.645,NULL,Kultur,utamaduni,d,NA,NA,NA,NA,sdf,NA,0,NA,NA,NA,NA,NA,NA,NA,NA,NA,NA,NA,NA,NA,NA,NA,NA,NA,NA,NA
34e31,deep,flow.Sequence,3_0_0_0_1_0,NA,NA,skipped,NA,1171536,NA,NA,1171535,1171536,2023-11-24T14:58:59Z,1171534.645,NULL,Beweis,ushahidi,s,marudio,kizuizi,mtendaji,NA,sdf,NA,0,NA,NA,NA,NA,NA,NA,NA,NA,NA,NA,NA,NA,NA,NA,NA,NA,NA,NA,NA
34e31,Shallow Question,html.Page,3_0_0_0_1_1_0,NA,NA,form submission,5686.454999994,1171536.2,1171535,1171534.645,1177221.1,1177221.3,2023-11-24T14:59:05Z,1177225.969,NULL,Beweis,ushahidi,s,marudio,kizuizi,mtendaji,kizuizi,NA,NA,0,NA,NA,NA,NA,NA,NA,NA,NA,NA,NA,NA,NA,NA,NA,NA,NA,NA,NA,NA
34e31,"""Richtig""-Screen",canvas.Screen,3_0_0_0_1_1_1,NA,NA,skipped,NA,1177222.4,NA,NA,1177221.1,1177222.5,2023-11-24T14:59:05Z,1177225.969,NULL,Beweis,ushahidi,s,marudio,kizuizi,mtendaji,NA,sdf,NA,0,NA,NA,NA,NA,NA,NA,NA,NA,NA,NA,NA,NA,NA,NA,NA,NA,NA,NA,NA
34e31,"""Falsch""-Screen",canvas.Screen,3_0_0_0_1_1_2,NA,NA,timeout,5299.4819999998,1177222.8,1177209.389,1177225.969,1182535.9,1182536,2023-11-24T14:59:10Z,1182525.451,NULL,Beweis,ushahidi,s,marudio,kizuizi,mtendaji,NA,sdf,0,0,NA,NA,NA,NA,NA,NA,NA,NA,NA,NA,NA,NA,NA,NA,NA,NA,NA,NA,NA
34e31,shallow,flow.Sequence,3_0_0_0_1_1,NA,NA,completion,11001.255000006,1171536.1,1171535,1171534.645,1182535.9,1182536.1,2023-11-24T14:59:10Z,1182525.451,NULL,Beweis,ushahidi,s,marudio,kizuizi,mtendaji,NA,sdf,NA,0,NA,NA,NA,NA,NA,NA,NA,NA,NA,NA,NA,NA,NA,NA,NA,NA,NA,NA,NA
34e31,task,flow.Sequence,3_0_0_0_1,NA,NA,completion,11001.255000006,1171535.9,1171535,1171534.645,1182535.9,1182536.2,2023-11-24T14:59:10Z,1182525.451,NULL,Beweis,ushahidi,s,marudio,kizuizi,mtendaji,NA,sdf,NA,0,NA,NA,NA,NA,NA,NA,NA,NA,NA,NA,NA,NA,NA,NA,NA,NA,NA,NA,NA
34e31,deep,flow.Sequence,3_0_0_0_2_0,NA,NA,skipped,NA,1182536.2,NA,NA,1182535.9,1182536.2,2023-11-24T14:59:10Z,1182525.451,NULL,Aufstand,ugomaji,s,mazidio,msingi,kujieleza,NA,sdf,NA,0,NA,NA,NA,NA,NA,NA,NA,NA,NA,NA,NA,NA,NA,NA,NA,NA,NA,NA,NA
34e31,Shallow Question,html.Page,3_0_0_0_2_1_0,NA,NA,form submission,7694.5490000001,1182536.2,1182535.9,1182525.451,1190220,1190220.2,2023-11-24T14:59:18Z,1190231.837,NULL,Aufstand,ugomaji,s,mazidio,msingi,kujieleza,msingi,NA,NA,0,NA,NA,NA,NA,NA,NA,NA,NA,NA,NA,NA,NA,NA,NA,NA,NA,NA,NA,NA
34e31,"""Richtig""-Screen",canvas.Screen,3_0_0_0_2_1_1,NA,NA,skipped,NA,1190221.3,NA,NA,1190220,1190221.4,2023-11-24T14:59:18Z,1190231.837,NULL,Aufstand,ugomaji,s,mazidio,msingi,kujieleza,NA,sdf,NA,0,NA,NA,NA,NA,NA,NA,NA,NA,NA,NA,NA,NA,NA,NA,NA,NA,NA,NA,NA
34e31,"""Falsch""-Screen",canvas.Screen,3_0_0_0_2_1_2,NA,NA,timeout,5299.581,1190221.7,1190215.378,1190231.837,1195534.6,1195535,2023-11-24T14:59:23Z,1195531.418,NULL,Aufstand,ugomaji,s,mazidio,msingi,kujieleza,NA,sdf,0,0,NA,NA,NA,NA,NA,NA,NA,NA,NA,NA,NA,NA,NA,NA,NA,NA,NA,NA,NA
34e31,shallow,flow.Sequence,3_0_0_0_2_1,NA,NA,completion,13009.148999994,1182536.2,1182535.9,1182525.451,1195534.6,1195535.2,2023-11-24T14:59:23Z,1195531.418,NULL,Aufstand,ugomaji,s,mazidio,msingi,kujieleza,NA,sdf,NA,0,NA,NA,NA,NA,NA,NA,NA,NA,NA,NA,NA,NA,NA,NA,NA,NA,NA,NA,NA
34e31,task,flow.Sequence,3_0_0_0_2,NA,NA,completion,13009.148999994,1182536.2,1182535.9,1182525.451,1195534.6,1195535.4,2023-11-24T14:59:23Z,1195531.418,NULL,Aufstand,ugomaji,s,mazidio,msingi,kujieleza,NA,sdf,NA,0,NA,NA,NA,NA,NA,NA,NA,NA,NA,NA,NA,NA,NA,NA,NA,NA,NA,NA,NA
34e31,deep,flow.Sequence,3_0_0_0_3_0,NA,NA,skipped,NA,1195535.5,NA,NA,1195534.6,1195535.6,2023-11-24T14:59:23Z,1195531.418,NULL,Polizist,msongora,s,simanzi,mandhari,nidhamu,NA,sdf,NA,0,NA,NA,NA,NA,NA,NA,NA,NA,NA,NA,NA,NA,NA,NA,NA,NA,NA,NA,NA
34e31,Shallow Question,html.Page,3_0_0_0_3_1_0,NA,NA,form submission,5376.281999988,1195535.6,1195534.6,1195531.418,1200907.7,1200907.9,2023-11-24T14:59:29Z,1200923.05,NULL,Polizist,msongora,s,simanzi,mandhari,nidhamu,msongora,NA,NA,0,NA,NA,NA,NA,NA,NA,NA,NA,NA,NA,NA,NA,NA,NA,NA,NA,NA,NA,NA
34e31,"""Richtig""-Screen",canvas.Screen,3_0_0_0_3_1_1,NA,NA,timeout,5599.453,1200909.1,1200906.565,1200923.05,1206535.2,1206535.4,2023-11-24T14:59:34Z,1206522.503,NULL,Polizist,msongora,s,simanzi,mandhari,nidhamu,NA,sdf,1,0,NA,NA,NA,NA,NA,NA,NA,NA,NA,NA,NA,NA,NA,NA,NA,NA,NA,NA,NA
34e31,"""Falsch""-Screen",canvas.Screen,3_0_0_0_3_1_2,NA,NA,skipped,NA,1206537.2,NA,NA,1206535.2,1206537.3,2023-11-24T14:59:34Z,1206522.503,NULL,Polizist,msongora,s,simanzi,mandhari,nidhamu,NA,sdf,NA,0,NA,NA,NA,NA,NA,NA,NA,NA,NA,NA,NA,NA,NA,NA,NA,NA,NA,NA,NA
34e31,shallow,flow.Sequence,3_0_0_0_3_1,NA,NA,completion,11003.781999988,1195535.6,1195534.6,1195531.418,1206535.2,1206537.3,2023-11-24T14:59:34Z,1206522.503,NULL,Polizist,msongora,s,simanzi,mandhari,nidhamu,NA,sdf,NA,0,NA,NA,NA,NA,NA,NA,NA,NA,NA,NA,NA,NA,NA,NA,NA,NA,NA,NA,NA
34e31,task,flow.Sequence,3_0_0_0_3,NA,NA,completion,11003.781999988,1195535.5,1195534.6,1195531.418,1206535.2,1206537.3,2023-11-24T14:59:34Z,1206522.503,NULL,Polizist,msongora,s,simanzi,mandhari,nidhamu,NA,sdf,NA,0,NA,NA,NA,NA,NA,NA,NA,NA,NA,NA,NA,NA,NA,NA,NA,NA,NA,NA,NA
34e31,Deep Question,html.Page,3_0_0_0_4_0_0,NA,NA,form submission,2083.1969999881,1206537.4,1206535.2,1206522.503,1208605.7,1208605.9,2023-11-24T14:59:37Z,1208616.709,NULL,Verzögerung,kuchelewa,d,NA,NA,NA,",",NA,NA,0,NA,NA,NA,NA,NA,NA,NA,NA,NA,NA,NA,NA,NA,NA,NA,NA,NA,NA,NA
34e31,"""Richtig""-Screen",canvas.Screen,3_0_0_0_4_0_1,NA,NA,skipped,NA,1208606.4,NA,NA,1208605.7,1208606.4,2023-11-24T14:59:37Z,1208616.709,NULL,Verzögerung,kuchelewa,d,NA,NA,NA,NA,sdf,NA,0,NA,NA,NA,NA,NA,NA,NA,NA,NA,NA,NA,NA,NA,NA,NA,NA,NA,NA,NA
34e31,"""Falsch""-Screen",canvas.Screen,3_0_0_0_4_0_2,NA,NA,timeout,4995.9790000001,1208606.7,1208600.082,1208616.709,1213596.303,1213597.2,2023-11-24T14:59:42Z,1213612.688,NULL,Verzögerung,kuchelewa,d,NA,NA,NA,NA,sdf,0,0,NA,NA,NA,NA,NA,NA,NA,NA,NA,NA,NA,NA,NA,NA,NA,NA,NA,NA,NA
34e31,deep,flow.Sequence,3_0_0_0_4_0,NA,NA,completion,7073.8,1206537.4,1206535.2,1206522.503,1213596.303,1213597.3,2023-11-24T14:59:42Z,1213612.688,NULL,Verzögerung,kuchelewa,d,NA,NA,NA,NA,sdf,NA,0,NA,NA,NA,NA,NA,NA,NA,NA,NA,NA,NA,NA,NA,NA,NA,NA,NA,NA,NA
34e31,shallow,flow.Sequence,3_0_0_0_4_1,NA,NA,skipped,NA,1213597.4,NA,NA,1213596.303,1213597.4,2023-11-24T14:59:42Z,1213612.688,NULL,Verzögerung,kuchelewa,d,NA,NA,NA,NA,sdf,NA,0,NA,NA,NA,NA,NA,NA,NA,NA,NA,NA,NA,NA,NA,NA,NA,NA,NA,NA,NA
34e31,task,flow.Sequence,3_0_0_0_4,NA,NA,completion,7073.8,1206537.3,1206535.2,1206522.503,1213596.303,1213597.4,2023-11-24T14:59:42Z,1213612.688,NULL,Verzögerung,kuchelewa,d,NA,NA,NA,NA,sdf,NA,0,NA,NA,NA,NA,NA,NA,NA,NA,NA,NA,NA,NA,NA,NA,NA,NA,NA,NA,NA
34e31,deep,flow.Sequence,3_0_0_0_5_0,NA,NA,skipped,NA,1213597.5,NA,NA,1213596.303,1213597.5,2023-11-24T14:59:42Z,1213612.688,NULL,Prüfung,mtihani,s,mkulima,mtizamo,ufumbuzi,NA,sdf,NA,0,NA,NA,NA,NA,NA,NA,NA,NA,NA,NA,NA,NA,NA,NA,NA,NA,NA,NA,NA
34e31,Shallow Question,html.Page,3_0_0_0_5_1_0,NA,NA,form submission,5230.1120000118,1213597.5,1213596.303,1213612.688,1218842.8,1218843.1,2023-11-24T14:59:47Z,1218858.292,NULL,Prüfung,mtihani,s,mkulima,mtizamo,ufumbuzi,mkulima,NA,NA,0,NA,NA,NA,NA,NA,NA,NA,NA,NA,NA,NA,NA,NA,NA,NA,NA,NA,NA,NA
34e31,"""Richtig""-Screen",canvas.Screen,3_0_0_0_5_1_1,NA,NA,skipped,NA,1218844.2,NA,NA,1218842.8,1218844.3,2023-11-24T14:59:47Z,1218858.292,NULL,Prüfung,mtihani,s,mkulima,mtizamo,ufumbuzi,NA,sdf,NA,0,NA,NA,NA,NA,NA,NA,NA,NA,NA,NA,NA,NA,NA,NA,NA,NA,NA,NA,NA
34e31,"""Falsch""-Screen",canvas.Screen,3_0_0_0_5_1_2,NA,NA,timeout,5663.2560000001,1218844.6,1218841.735,1218858.292,1224535.1,1224535.4,2023-11-24T14:59:52Z,1224521.548,NULL,Prüfung,mtihani,s,mkulima,mtizamo,ufumbuzi,NA,sdf,0,0,NA,NA,NA,NA,NA,NA,NA,NA,NA,NA,NA,NA,NA,NA,NA,NA,NA,NA,NA
34e31,shallow,flow.Sequence,3_0_0_0_5_1,NA,NA,completion,10922.411999994,1213597.5,1213596.303,1213612.688,1224535.1,1224535.6,2023-11-24T14:59:52Z,1224521.548,NULL,Prüfung,mtihani,s,mkulima,mtizamo,ufumbuzi,NA,sdf,NA,0,NA,NA,NA,NA,NA,NA,NA,NA,NA,NA,NA,NA,NA,NA,NA,NA,NA,NA,NA
34e31,task,flow.Sequence,3_0_0_0_5,NA,NA,completion,10922.411999994,1213597.4,1213596.303,1213612.688,1224535.1,1224535.7,2023-11-24T14:59:52Z,1224521.548,NULL,Prüfung,mtihani,s,mkulima,mtizamo,ufumbuzi,NA,sdf,NA,0,NA,NA,NA,NA,NA,NA,NA,NA,NA,NA,NA,NA,NA,NA,NA,NA,NA,NA,NA
34e31,Deep Question,html.Page,3_0_0_0_6_0_0,NA,NA,form submission,2786.1519999881,1224535.9,1224535.1,1224521.548,1227307.7,1227307.8,2023-11-24T14:59:55Z,1227317.912,NULL,Annäherung,maegesho,d,NA,NA,NA,d,NA,NA,0,NA,NA,NA,NA,NA,NA,NA,NA,NA,NA,NA,NA,NA,NA,NA,NA,NA,NA,NA
34e31,"""Richtig""-Screen",canvas.Screen,3_0_0_0_6_0_1,NA,NA,skipped,NA,1227309,NA,NA,1227307.7,1227309.1,2023-11-24T14:59:55Z,1227317.912,NULL,Annäherung,maegesho,d,NA,NA,NA,NA,sdf,NA,0,NA,NA,NA,NA,NA,NA,NA,NA,NA,NA,NA,NA,NA,NA,NA,NA,NA,NA,NA
34e31,"""Falsch""-Screen",canvas.Screen,3_0_0_0_6_0_2,NA,NA,timeout,5216.4639999999,1227309.5,1227301.676,1227317.912,1232534.9,1232535.1,2023-11-24T15:00:00Z,1232534.376,NULL,Annäherung,maegesho,d,NA,NA,NA,NA,sdf,0,0,NA,NA,NA,NA,NA,NA,NA,NA,NA,NA,NA,NA,NA,NA,NA,NA,NA,NA,NA
34e31,deep,flow.Sequence,3_0_0_0_6_0,NA,NA,completion,8013.352000006,1224535.8,1224535.1,1224521.548,1232534.9,1232535.2,2023-11-24T15:00:00Z,1232534.376,NULL,Annäherung,maegesho,d,NA,NA,NA,NA,sdf,NA,0,NA,NA,NA,NA,NA,NA,NA,NA,NA,NA,NA,NA,NA,NA,NA,NA,NA,NA,NA
34e31,shallow,flow.Sequence,3_0_0_0_6_1,NA,NA,skipped,NA,1232535.2,NA,NA,1232534.9,1232535.2,2023-11-24T15:00:00Z,1232534.376,NULL,Annäherung,maegesho,d,NA,NA,NA,NA,sdf,NA,0,NA,NA,NA,NA,NA,NA,NA,NA,NA,NA,NA,NA,NA,NA,NA,NA,NA,NA,NA
34e31,task,flow.Sequence,3_0_0_0_6,NA,NA,completion,8013.352000006,1224535.8,1224535.1,1224521.548,1232534.9,1232535.3,2023-11-24T15:00:00Z,1232534.376,NULL,Annäherung,maegesho,d,NA,NA,NA,NA,sdf,NA,0,NA,NA,NA,NA,NA,NA,NA,NA,NA,NA,NA,NA,NA,NA,NA,NA,NA,NA,NA
34e31,Deep Question,html.Page,3_0_0_0_7_0_0,NA,NA,form submission,5565.8239999881,1232535.4,1232534.9,1232534.376,1238100.2,1238100.5,2023-11-24T15:00:06Z,1238108.946,NULL,Sympathie,mapendano,d,NA,NA,NA,w,NA,NA,0,NA,NA,NA,NA,NA,NA,NA,NA,NA,NA,NA,NA,NA,NA,NA,NA,NA,NA,NA
34e31,"""Richtig""-Screen",canvas.Screen,3_0_0_0_7_0_1,NA,NA,skipped,NA,1238101.7,NA,NA,1238100.2,1238101.8,2023-11-24T15:00:06Z,1238108.946,NULL,Sympathie,mapendano,d,NA,NA,NA,NA,sdf,NA,0,NA,NA,NA,NA,NA,NA,NA,NA,NA,NA,NA,NA,NA,NA,NA,NA,NA,NA,NA
34e31,"""Falsch""-Screen",canvas.Screen,3_0_0_0_7_0_2,NA,NA,timeout,5416.4990000001,1238102.1,1238092.477,1238108.946,1243535.7,1243536,2023-11-24T15:00:11Z,1243525.445,NULL,Sympathie,mapendano,d,NA,NA,NA,NA,sdf,0,0,NA,NA,NA,NA,NA,NA,NA,NA,NA,NA,NA,NA,NA,NA,NA,NA,NA,NA,NA
34e31,deep,flow.Sequence,3_0_0_0_7_0,NA,NA,completion,11001.323999988,1232535.3,1232534.9,1232534.376,1243535.7,1243536.2,2023-11-24T15:00:11Z,1243525.445,NULL,Sympathie,mapendano,d,NA,NA,NA,NA,sdf,NA,0,NA,NA,NA,NA,NA,NA,NA,NA,NA,NA,NA,NA,NA,NA,NA,NA,NA,NA,NA
34e31,shallow,flow.Sequence,3_0_0_0_7_1,NA,NA,skipped,NA,1243536.3,NA,NA,1243535.7,1243536.3,2023-11-24T15:00:11Z,1243525.445,NULL,Sympathie,mapendano,d,NA,NA,NA,NA,sdf,NA,0,NA,NA,NA,NA,NA,NA,NA,NA,NA,NA,NA,NA,NA,NA,NA,NA,NA,NA,NA
34e31,task,flow.Sequence,3_0_0_0_7,NA,NA,completion,11001.323999988,1232535.3,1232534.9,1232534.376,1243535.7,1243536.4,2023-11-24T15:00:11Z,1243525.445,NULL,Sympathie,mapendano,d,NA,NA,NA,NA,sdf,NA,0,NA,NA,NA,NA,NA,NA,NA,NA,NA,NA,NA,NA,NA,NA,NA,NA,NA,NA,NA
34e31,block,flow.Loop,3_0_0_0,NA,NA,completion,82446.330999988,1161072.2,1161064.526,1161089.369,1243535.7,1243536.4,2023-11-24T15:00:11Z,1243525.445,NULL,NA,NA,NA,NA,NA,NA,NA,sdf,NA,0,NA,NA,NA,NA,NA,NA,NA,NA,NA,NA,NA,NA,NA,NA,NA,NA,NA,NA,NA
34e31,weiter,canvas.Screen,3_0_0_1,sdf,keypress(Space),response,1138.8550000119,1243536.4,1243535.7,1243525.445,1244664.3,1244665.5,2023-11-24T15:00:13Z,1244686.893,NULL,NA,NA,NA,NA,NA,NA,NA,sdf,NA,0,NA,NA,NA,NA,NA,NA,NA,NA,NA,NA,NA,NA,NA,NA,NA,NA,NA,NA,NA
34e31,check continue,flow.Sequence,3_0_0,NA,NA,completion,83574.931000012,1161072.2,1161064.526,1161089.369,1244664.3,1244665.5,2023-11-24T15:00:13Z,1244686.893,NULL,NA,NA,NA,NA,NA,NA,NA,sdf,NA,0,NA,NA,NA,NA,NA,NA,NA,NA,NA,NA,NA,NA,NA,NA,NA,NA,NA,NA,NA
34e31,Deep Question,html.Page,3_0_1_0_0_0_0,NA,NA,form submission,2586.6070000001,1244684.8,1244670.365,1244686.893,1247273.5,1247273.7,2023-11-24T15:00:15Z,1247284.76,NULL,Annäherung,maegesho,d,NA,NA,NA,mapendano,NA,NA,1,NA,NA,NA,NA,NA,NA,NA,NA,NA,NA,NA,NA,NA,NA,NA,NA,NA,NA,NA
34e31,"""Richtig""-Screen",canvas.Screen,3_0_1_0_0_0_1,NA,NA,skipped,NA,1247274,NA,NA,1247273.5,1247274.1,2023-11-24T15:00:15Z,1247284.76,NULL,Annäherung,maegesho,d,NA,NA,NA,NA,sdfdsf,NA,1,NA,NA,NA,NA,NA,NA,NA,NA,NA,NA,NA,NA,NA,NA,NA,NA,NA,NA,NA
34e31,"""Falsch""-Screen",canvas.Screen,3_0_1_0_0_0_2,NA,NA,timeout,5249.8259999999,1247274.5,1247268.356,1247284.76,1252535.3,1252535.6,2023-11-24T15:00:20Z,1252534.586,NULL,Annäherung,maegesho,d,NA,NA,NA,NA,sdfdsf,0,1,NA,NA,NA,NA,NA,NA,NA,NA,NA,NA,NA,NA,NA,NA,NA,NA,NA,NA,NA
34e31,deep,flow.Sequence,3_0_1_0_0_0,NA,NA,completion,7848.407000012,1244684.8,1244670.365,1244686.893,1252535.3,1252535.7,2023-11-24T15:00:20Z,1252534.586,NULL,Annäherung,maegesho,d,NA,NA,NA,NA,sdfdsf,NA,1,NA,NA,NA,NA,NA,NA,NA,NA,NA,NA,NA,NA,NA,NA,NA,NA,NA,NA,NA
34e31,shallow,flow.Sequence,3_0_1_0_0_1,NA,NA,skipped,NA,1252535.8,NA,NA,1252535.3,1252536,2023-11-24T15:00:20Z,1252534.586,NULL,Annäherung,maegesho,d,NA,NA,NA,NA,sdfdsf,NA,1,NA,NA,NA,NA,NA,NA,NA,NA,NA,NA,NA,NA,NA,NA,NA,NA,NA,NA,NA
34e31,task,flow.Sequence,3_0_1_0_0,NA,NA,completion,7848.407000012,1244684.8,1244670.365,1244686.893,1252535.3,1252536.1,2023-11-24T15:00:20Z,1252534.586,NULL,Annäherung,maegesho,d,NA,NA,NA,NA,sdfdsf,NA,1,NA,NA,NA,NA,NA,NA,NA,NA,NA,NA,NA,NA,NA,NA,NA,NA,NA,NA,NA
34e31,deep,flow.Sequence,3_0_1_0_1_0,NA,NA,skipped,NA,1252536.2,NA,NA,1252535.3,1252536.2,2023-11-24T15:00:20Z,1252534.586,NULL,Beweis,ushahidi,s,marudio,kizuizi,mtendaji,NA,sdfdsf,NA,1,NA,NA,NA,NA,NA,NA,NA,NA,NA,NA,NA,NA,NA,NA,NA,NA,NA,NA,NA
34e31,Shallow Question,html.Page,3_0_1_0_1_1_0,NA,NA,form submission,4591.6139999882,1252536.3,1252535.3,1252534.586,1257126.2,1257126.4,2023-11-24T15:00:25Z,1257143.727,NULL,Beweis,ushahidi,s,marudio,kizuizi,mtendaji,ushahidi,NA,NA,1,NA,NA,NA,NA,NA,NA,NA,NA,NA,NA,NA,NA,NA,NA,NA,NA,NA,NA,NA
34e31,"""Richtig""-Screen",canvas.Screen,3_0_1_0_1_1_1,NA,NA,timeout,5382.4410000001,1257127.5,1257110.029,1257143.727,1262535.1,1262535.2,2023-11-24T15:00:30Z,1262526.168,NULL,Beweis,ushahidi,s,marudio,kizuizi,mtendaji,NA,sdfdsf,1,1,NA,NA,NA,NA,NA,NA,NA,NA,NA,NA,NA,NA,NA,NA,NA,NA,NA,NA,NA
34e31,"""Falsch""-Screen",canvas.Screen,3_0_1_0_1_1_2,NA,NA,skipped,NA,1262536.4,NA,NA,1262535.1,1262536.5,2023-11-24T15:00:30Z,1262526.168,NULL,Beweis,ushahidi,s,marudio,kizuizi,mtendaji,NA,sdfdsf,NA,1,NA,NA,NA,NA,NA,NA,NA,NA,NA,NA,NA,NA,NA,NA,NA,NA,NA,NA,NA
34e31,shallow,flow.Sequence,3_0_1_0_1_1,NA,NA,completion,10000.513999994,1252536.3,1252535.3,1252534.586,1262535.1,1262536.5,2023-11-24T15:00:30Z,1262526.168,NULL,Beweis,ushahidi,s,marudio,kizuizi,mtendaji,NA,sdfdsf,NA,1,NA,NA,NA,NA,NA,NA,NA,NA,NA,NA,NA,NA,NA,NA,NA,NA,NA,NA,NA
34e31,task,flow.Sequence,3_0_1_0_1,NA,NA,completion,10000.513999994,1252536.1,1252535.3,1252534.586,1262535.1,1262536.5,2023-11-24T15:00:30Z,1262526.168,NULL,Beweis,ushahidi,s,marudio,kizuizi,mtendaji,NA,sdfdsf,NA,1,NA,NA,NA,NA,NA,NA,NA,NA,NA,NA,NA,NA,NA,NA,NA,NA,NA,NA,NA
34e31,Deep Question,html.Page,3_0_1_0_2_0_0,NA,NA,form submission,1815.431999994,1262536.6,1262535.1,1262526.168,1264341.6,1264341.8,2023-11-24T15:00:32Z,1264353.973,NULL,Sympathie,mapendano,d,NA,NA,NA,m,NA,NA,1,NA,NA,NA,NA,NA,NA,NA,NA,NA,NA,NA,NA,NA,NA,NA,NA,NA,NA,NA
34e31,"""Richtig""-Screen",canvas.Screen,3_0_1_0_2_0_1,NA,NA,skipped,NA,1264342.2,NA,NA,1264341.6,1264342.3,2023-11-24T15:00:32Z,1264353.973,NULL,Sympathie,mapendano,d,NA,NA,NA,NA,sdfdsf,NA,1,NA,NA,NA,NA,NA,NA,NA,NA,NA,NA,NA,NA,NA,NA,NA,NA,NA,NA,NA
34e31,"""Falsch""-Screen",canvas.Screen,3_0_1_0_2_0_2,NA,NA,timeout,4995.8810000001,1264342.5,1264337.473,1264353.973,1269333.252,1269335,2023-11-24T15:00:37Z,1269349.854,NULL,Sympathie,mapendano,d,NA,NA,NA,NA,sdfdsf,0,1,NA,NA,NA,NA,NA,NA,NA,NA,NA,NA,NA,NA,NA,NA,NA,NA,NA,NA,NA
34e31,deep,flow.Sequence,3_0_1_0_2_0,NA,NA,completion,6807.084,1262536.6,1262535.1,1262526.168,1269333.252,1269335.2,2023-11-24T15:00:37Z,1269349.854,NULL,Sympathie,mapendano,d,NA,NA,NA,NA,sdfdsf,NA,1,NA,NA,NA,NA,NA,NA,NA,NA,NA,NA,NA,NA,NA,NA,NA,NA,NA,NA,NA
34e31,shallow,flow.Sequence,3_0_1_0_2_1,NA,NA,skipped,NA,1269335.3,NA,NA,1269333.252,1269335.3,2023-11-24T15:00:37Z,1269349.854,NULL,Sympathie,mapendano,d,NA,NA,NA,NA,sdfdsf,NA,1,NA,NA,NA,NA,NA,NA,NA,NA,NA,NA,NA,NA,NA,NA,NA,NA,NA,NA,NA
34e31,task,flow.Sequence,3_0_1_0_2,NA,NA,completion,6807.084,1262536.6,1262535.1,1262526.168,1269333.252,1269335.4,2023-11-24T15:00:37Z,1269349.854,NULL,Sympathie,mapendano,d,NA,NA,NA,NA,sdfdsf,NA,1,NA,NA,NA,NA,NA,NA,NA,NA,NA,NA,NA,NA,NA,NA,NA,NA,NA,NA,NA
34e31,deep,flow.Sequence,3_0_1_0_3_0,NA,NA,skipped,NA,1269335.6,NA,NA,1269333.252,1269335.6,2023-11-24T15:00:37Z,1269349.854,NULL,Polizist,msongora,s,simanzi,mandhari,nidhamu,NA,sdfdsf,NA,1,NA,NA,NA,NA,NA,NA,NA,NA,NA,NA,NA,NA,NA,NA,NA,NA,NA,NA,NA
34e31,Shallow Question,html.Page,3_0_1_0_3_1_0,NA,NA,form submission,5571.4460000119,1269335.6,1269333.252,1269349.854,1274921.3,1274921.4,2023-11-24T15:00:43Z,1274928.525,NULL,Polizist,msongora,s,simanzi,mandhari,nidhamu,msongora,NA,NA,1,NA,NA,NA,NA,NA,NA,NA,NA,NA,NA,NA,NA,NA,NA,NA,NA,NA,NA,NA
34e31,"""Richtig""-Screen",canvas.Screen,3_0_1_0_3_1_1,NA,NA,timeout,5599.5020000001,1274922.6,1274912.003,1274928.525,1280535.5,1280535.7,2023-11-24T15:00:48Z,1280528.027,NULL,Polizist,msongora,s,simanzi,mandhari,nidhamu,NA,sdfdsf,1,1,NA,NA,NA,NA,NA,NA,NA,NA,NA,NA,NA,NA,NA,NA,NA,NA,NA,NA,NA
34e31,"""Falsch""-Screen",canvas.Screen,3_0_1_0_3_1_2,NA,NA,skipped,NA,1280538.3,NA,NA,1280535.5,1280538.4,2023-11-24T15:00:48Z,1280528.027,NULL,Polizist,msongora,s,simanzi,mandhari,nidhamu,NA,sdfdsf,NA,1,NA,NA,NA,NA,NA,NA,NA,NA,NA,NA,NA,NA,NA,NA,NA,NA,NA,NA,NA
34e31,shallow,flow.Sequence,3_0_1_0_3_1,NA,NA,completion,11185.646,1269335.6,1269333.252,1269349.854,1280535.5,1280538.4,2023-11-24T15:00:48Z,1280528.027,NULL,Polizist,msongora,s,simanzi,mandhari,nidhamu,NA,sdfdsf,NA,1,NA,NA,NA,NA,NA,NA,NA,NA,NA,NA,NA,NA,NA,NA,NA,NA,NA,NA,NA
34e31,task,flow.Sequence,3_0_1_0_3,NA,NA,completion,11185.646,1269335.5,1269333.252,1269349.854,1280535.5,1280538.4,2023-11-24T15:00:48Z,1280528.027,NULL,Polizist,msongora,s,simanzi,mandhari,nidhamu,NA,sdfdsf,NA,1,NA,NA,NA,NA,NA,NA,NA,NA,NA,NA,NA,NA,NA,NA,NA,NA,NA,NA,NA
34e31,Deep Question,html.Page,3_0_1_0_4_0_0,NA,NA,form submission,15470.273000012,1280538.4,1280535.5,1280528.027,1295998.3,1295998.6,2023-11-24T15:01:04Z,1296011.129,NULL,Kultur,utamaduni,d,NA,NA,NA,m,NA,NA,1,NA,NA,NA,NA,NA,NA,NA,NA,NA,NA,NA,NA,NA,NA,NA,NA,NA,NA,NA
34e31,"""Richtig""-Screen",canvas.Screen,3_0_1_0_4_0_1,NA,NA,skipped,NA,1296000,NA,NA,1295998.3,1296000.1,2023-11-24T15:01:04Z,1296011.129,NULL,Kultur,utamaduni,d,NA,NA,NA,NA,sdfdsf,NA,1,NA,NA,NA,NA,NA,NA,NA,NA,NA,NA,NA,NA,NA,NA,NA,NA,NA,NA,NA
34e31,"""Falsch""-Screen",canvas.Screen,3_0_1_0_4_0_2,NA,NA,timeout,5516.807,1296000.5,1295994.761,1296011.129,1301534.7,1301535,2023-11-24T15:01:09Z,1301527.936,NULL,Kultur,utamaduni,d,NA,NA,NA,NA,sdfdsf,0,1,NA,NA,NA,NA,NA,NA,NA,NA,NA,NA,NA,NA,NA,NA,NA,NA,NA,NA,NA
34e31,deep,flow.Sequence,3_0_1_0_4_0,NA,NA,completion,21006.672999988,1280538.4,1280535.5,1280528.027,1301534.7,1301535.2,2023-11-24T15:01:09Z,1301527.936,NULL,Kultur,utamaduni,d,NA,NA,NA,NA,sdfdsf,NA,1,NA,NA,NA,NA,NA,NA,NA,NA,NA,NA,NA,NA,NA,NA,NA,NA,NA,NA,NA
34e31,shallow,flow.Sequence,3_0_1_0_4_1,NA,NA,skipped,NA,1301535.3,NA,NA,1301534.7,1301535.4,2023-11-24T15:01:09Z,1301527.936,NULL,Kultur,utamaduni,d,NA,NA,NA,NA,sdfdsf,NA,1,NA,NA,NA,NA,NA,NA,NA,NA,NA,NA,NA,NA,NA,NA,NA,NA,NA,NA,NA
34e31,task,flow.Sequence,3_0_1_0_4,NA,NA,completion,21006.672999988,1280538.4,1280535.5,1280528.027,1301534.7,1301535.6,2023-11-24T15:01:09Z,1301527.936,NULL,Kultur,utamaduni,d,NA,NA,NA,NA,sdfdsf,NA,1,NA,NA,NA,NA,NA,NA,NA,NA,NA,NA,NA,NA,NA,NA,NA,NA,NA,NA,NA
34e31,deep,flow.Sequence,3_0_1_0_5_0,NA,NA,skipped,NA,1301535.6,NA,NA,1301534.7,1301535.6,2023-11-24T15:01:09Z,1301527.936,NULL,Aufstand,ugomaji,s,mazidio,msingi,kujieleza,NA,sdfdsf,NA,1,NA,NA,NA,NA,NA,NA,NA,NA,NA,NA,NA,NA,NA,NA,NA,NA,NA,NA,NA
34e31,Shallow Question,html.Page,3_0_1_0_5_1_0,NA,NA,form submission,8231.964000006,1301535.7,1301534.7,1301527.936,1309759.9,1309760.1,2023-11-24T15:01:18Z,1309766.459,NULL,Aufstand,ugomaji,s,mazidio,msingi,kujieleza,ugomaji,NA,NA,1,NA,NA,NA,NA,NA,NA,NA,NA,NA,NA,NA,NA,NA,NA,NA,NA,NA,NA,NA
34e31,"""Richtig""-Screen",canvas.Screen,3_0_1_0_5_1_1,NA,NA,timeout,5766.1709999999,1309761.3,1309749.81,1309766.459,1315534.9,1315535.2,2023-11-24T15:01:23Z,1315532.63,NULL,Aufstand,ugomaji,s,mazidio,msingi,kujieleza,NA,sdfdsf,1,1,NA,NA,NA,NA,NA,NA,NA,NA,NA,NA,NA,NA,NA,NA,NA,NA,NA,NA,NA
34e31,"""Falsch""-Screen",canvas.Screen,3_0_1_0_5_1_2,NA,NA,skipped,NA,1315536.5,NA,NA,1315534.9,1315536.5,2023-11-24T15:01:23Z,1315532.63,NULL,Aufstand,ugomaji,s,mazidio,msingi,kujieleza,NA,sdfdsf,NA,1,NA,NA,NA,NA,NA,NA,NA,NA,NA,NA,NA,NA,NA,NA,NA,NA,NA,NA,NA
34e31,shallow,flow.Sequence,3_0_1_0_5_1,NA,NA,completion,14006.964000006,1301535.7,1301534.7,1301527.936,1315534.9,1315536.6,2023-11-24T15:01:23Z,1315532.63,NULL,Aufstand,ugomaji,s,mazidio,msingi,kujieleza,NA,sdfdsf,NA,1,NA,NA,NA,NA,NA,NA,NA,NA,NA,NA,NA,NA,NA,NA,NA,NA,NA,NA,NA
34e31,task,flow.Sequence,3_0_1_0_5,NA,NA,completion,14006.964000006,1301535.6,1301534.7,1301527.936,1315534.9,1315536.6,2023-11-24T15:01:23Z,1315532.63,NULL,Aufstand,ugomaji,s,mazidio,msingi,kujieleza,NA,sdfdsf,NA,1,NA,NA,NA,NA,NA,NA,NA,NA,NA,NA,NA,NA,NA,NA,NA,NA,NA,NA,NA
34e31,deep,flow.Sequence,3_0_1_0_6_0,NA,NA,skipped,NA,1315536.6,NA,NA,1315534.9,1315536.7,2023-11-24T15:01:23Z,1315532.63,NULL,Prüfung,mtihani,s,mkulima,mtizamo,ufumbuzi,NA,sdfdsf,NA,1,NA,NA,NA,NA,NA,NA,NA,NA,NA,NA,NA,NA,NA,NA,NA,NA,NA,NA,NA
34e31,Shallow Question,html.Page,3_0_1_0_6_1_0,NA,NA,form submission,7276.7700000061,1315536.7,1315534.9,1315532.63,1322809.4,1322809.6,2023-11-24T15:01:31Z,1322822.471,NULL,Prüfung,mtihani,s,mkulima,mtizamo,ufumbuzi,mtihani,NA,NA,1,NA,NA,NA,NA,NA,NA,NA,NA,NA,NA,NA,NA,NA,NA,NA,NA,NA,NA,NA
34e31,"""Richtig""-Screen",canvas.Screen,3_0_1_0_6_1_1,NA,NA,timeout,5699.24,1322810.7,1322805.815,1322822.471,1328535.1,1328535.4,2023-11-24T15:01:36Z,1328521.711,NULL,Prüfung,mtihani,s,mkulima,mtizamo,ufumbuzi,NA,sdfdsf,1,1,NA,NA,NA,NA,NA,NA,NA,NA,NA,NA,NA,NA,NA,NA,NA,NA,NA,NA,NA
34e31,"""Falsch""-Screen",canvas.Screen,3_0_1_0_6_1_2,NA,NA,skipped,NA,1328537.3,NA,NA,1328535.1,1328537.3,2023-11-24T15:01:36Z,1328521.711,NULL,Prüfung,mtihani,s,mkulima,mtizamo,ufumbuzi,NA,sdfdsf,NA,1,NA,NA,NA,NA,NA,NA,NA,NA,NA,NA,NA,NA,NA,NA,NA,NA,NA,NA,NA
34e31,shallow,flow.Sequence,3_0_1_0_6_1,NA,NA,completion,13002.469999994,1315536.7,1315534.9,1315532.63,1328535.1,1328537.3,2023-11-24T15:01:36Z,1328521.711,NULL,Prüfung,mtihani,s,mkulima,mtizamo,ufumbuzi,NA,sdfdsf,NA,1,NA,NA,NA,NA,NA,NA,NA,NA,NA,NA,NA,NA,NA,NA,NA,NA,NA,NA,NA
34e31,task,flow.Sequence,3_0_1_0_6,NA,NA,completion,13002.469999994,1315536.6,1315534.9,1315532.63,1328535.1,1328537.4,2023-11-24T15:01:36Z,1328521.711,NULL,Prüfung,mtihani,s,mkulima,mtizamo,ufumbuzi,NA,sdfdsf,NA,1,NA,NA,NA,NA,NA,NA,NA,NA,NA,NA,NA,NA,NA,NA,NA,NA,NA,NA,NA
34e31,Deep Question,html.Page,3_0_1_0_7_0_0,NA,NA,form submission,2382.1890000061,1328537.4,1328535.1,1328521.711,1330903.9,1330904.2,2023-11-24T15:01:39Z,1330915.611,NULL,Verzögerung,kuchelewa,d,NA,NA,NA,m,NA,NA,1,NA,NA,NA,NA,NA,NA,NA,NA,NA,NA,NA,NA,NA,NA,NA,NA,NA,NA,NA
34e31,"""Richtig""-Screen",canvas.Screen,3_0_1_0_7_0_1,NA,NA,skipped,NA,1330904.8,NA,NA,1330903.9,1330904.8,2023-11-24T15:01:39Z,1330915.611,NULL,Verzögerung,kuchelewa,d,NA,NA,NA,NA,sdfdsf,NA,1,NA,NA,NA,NA,NA,NA,NA,NA,NA,NA,NA,NA,NA,NA,NA,NA,NA,NA,NA
34e31,"""Falsch""-Screen",canvas.Screen,3_0_1_0_7_0_2,NA,NA,timeout,5616.5,1330905.2,1330899.235,1330915.611,1336535.6,1336535.9,2023-11-24T15:01:44Z,1336532.111,NULL,Verzögerung,kuchelewa,d,NA,NA,NA,NA,sdfdsf,0,1,NA,NA,NA,NA,NA,NA,NA,NA,NA,NA,NA,NA,NA,NA,NA,NA,NA,NA,NA
34e31,deep,flow.Sequence,3_0_1_0_7_0,NA,NA,completion,8013.8889999941,1328537.4,1328535.1,1328521.711,1336535.6,1336536,2023-11-24T15:01:44Z,1336532.111,NULL,Verzögerung,kuchelewa,d,NA,NA,NA,NA,sdfdsf,NA,1,NA,NA,NA,NA,NA,NA,NA,NA,NA,NA,NA,NA,NA,NA,NA,NA,NA,NA,NA
34e31,shallow,flow.Sequence,3_0_1_0_7_1,NA,NA,skipped,NA,1336536.1,NA,NA,1336535.6,1336536.2,2023-11-24T15:01:44Z,1336532.111,NULL,Verzögerung,kuchelewa,d,NA,NA,NA,NA,sdfdsf,NA,1,NA,NA,NA,NA,NA,NA,NA,NA,NA,NA,NA,NA,NA,NA,NA,NA,NA,NA,NA
34e31,task,flow.Sequence,3_0_1_0_7,NA,NA,completion,8013.8889999941,1328537.4,1328535.1,1328521.711,1336535.6,1336536.3,2023-11-24T15:01:44Z,1336532.111,NULL,Verzögerung,kuchelewa,d,NA,NA,NA,NA,sdfdsf,NA,1,NA,NA,NA,NA,NA,NA,NA,NA,NA,NA,NA,NA,NA,NA,NA,NA,NA,NA,NA
34e31,block,flow.Loop,3_0_1_0,NA,NA,completion,91848.706999994,1244684.8,1244670.365,1244686.893,1336535.6,1336536.4,2023-11-24T15:01:44Z,1336532.111,NULL,NA,NA,NA,NA,NA,NA,NA,sdfdsf,NA,1,NA,NA,NA,NA,NA,NA,NA,NA,NA,NA,NA,NA,NA,NA,NA,NA,NA,NA,NA
34e31,weiter,canvas.Screen,3_0_1_1,sdf,keypress(Space),response,888.78900000593,1336536.5,1336535.6,1336532.111,1337420.9,1337422.3,2023-11-24T15:01:45Z,1337460.238,NULL,NA,NA,NA,NA,NA,NA,NA,sdfdsf,NA,1,NA,NA,NA,NA,NA,NA,NA,NA,NA,NA,NA,NA,NA,NA,NA,NA,NA,NA,NA
34e31,check continue,flow.Sequence,3_0_1,NA,NA,completion,92734.007000006,1244684.8,1244670.365,1244686.893,1337420.9,1337422.3,2023-11-24T15:01:45Z,1337460.238,NULL,NA,NA,NA,NA,NA,NA,NA,sdfdsf,NA,1,NA,NA,NA,NA,NA,NA,NA,NA,NA,NA,NA,NA,NA,NA,NA,NA,NA,NA,NA
34e31,deep,flow.Sequence,3_0_2_0_0_0,NA,NA,skipped,NA,1337442.9,NA,NA,1337420.9,1337442.9,2023-11-24T15:01:45Z,1337460.238,NULL,Prüfung,mtihani,s,mkulima,mtizamo,ufumbuzi,NA,sdf,NA,2,NA,NA,NA,NA,NA,NA,NA,NA,NA,NA,NA,NA,NA,NA,NA,NA,NA,NA,NA
34e31,Shallow Question,html.Page,3_0_2_0_0_1_0,NA,NA,form submission,6596.4619999882,1337443,1337427.576,1337460.238,1344056.7,1344056.9,2023-11-24T15:01:52Z,1344071.858,NULL,Prüfung,mtihani,s,mkulima,mtizamo,ufumbuzi,mtihani,NA,NA,2,NA,NA,NA,NA,NA,NA,NA,NA,NA,NA,NA,NA,NA,NA,NA,NA,NA,NA,NA
34e31,"""Richtig""-Screen",canvas.Screen,3_0_2_0_0_1_1,NA,NA,timeout,4995.73,1344058.1,1344054.767,1344071.858,1349050.727,1349051.3,2023-11-24T15:01:57Z,1349067.588,NULL,Prüfung,mtihani,s,mkulima,mtizamo,ufumbuzi,NA,sdf,1,2,NA,NA,NA,NA,NA,NA,NA,NA,NA,NA,NA,NA,NA,NA,NA,NA,NA,NA,NA
34e31,"""Falsch""-Screen",canvas.Screen,3_0_2_0_0_1_2,NA,NA,skipped,NA,1349052.4,NA,NA,1349050.727,1349052.5,2023-11-24T15:01:57Z,1349067.588,NULL,Prüfung,mtihani,s,mkulima,mtizamo,ufumbuzi,NA,sdf,NA,2,NA,NA,NA,NA,NA,NA,NA,NA,NA,NA,NA,NA,NA,NA,NA,NA,NA,NA,NA
34e31,shallow,flow.Sequence,3_0_2_0_0_1,NA,NA,completion,11590.489,1337443,1337427.576,1337460.238,1349050.727,1349052.6,2023-11-24T15:01:57Z,1349067.588,NULL,Prüfung,mtihani,s,mkulima,mtizamo,ufumbuzi,NA,sdf,NA,2,NA,NA,NA,NA,NA,NA,NA,NA,NA,NA,NA,NA,NA,NA,NA,NA,NA,NA,NA
34e31,task,flow.Sequence,3_0_2_0_0,NA,NA,completion,11590.489,1337442.9,1337427.576,1337460.238,1349050.727,1349052.6,2023-11-24T15:01:57Z,1349067.588,NULL,Prüfung,mtihani,s,mkulima,mtizamo,ufumbuzi,NA,sdf,NA,2,NA,NA,NA,NA,NA,NA,NA,NA,NA,NA,NA,NA,NA,NA,NA,NA,NA,NA,NA
34e31,deep,flow.Sequence,3_0_2_0_1_0,NA,NA,skipped,NA,1349052.7,NA,NA,1349050.727,1349052.7,2023-11-24T15:01:57Z,1349067.588,NULL,Aufstand,ugomaji,s,mazidio,msingi,kujieleza,NA,sdf,NA,2,NA,NA,NA,NA,NA,NA,NA,NA,NA,NA,NA,NA,NA,NA,NA,NA,NA,NA,NA
34e31,Shallow Question,html.Page,3_0_2_0_1_1_0,NA,NA,form submission,3201.912,1349052.7,1349050.727,1349067.588,1352269.5,1352269.6,2023-11-24T15:02:00Z,1352281.36,NULL,Aufstand,ugomaji,s,mazidio,msingi,kujieleza,ugomaji,NA,NA,2,NA,NA,NA,NA,NA,NA,NA,NA,NA,NA,NA,NA,NA,NA,NA,NA,NA,NA,NA
34e31,"""Richtig""-Screen",canvas.Screen,3_0_2_0_1_1_1,NA,NA,timeout,5249.5129999998,1352270.5,1352264.693,1352281.36,1357535.3,1357535.6,2023-11-24T15:02:05Z,1357530.873,NULL,Aufstand,ugomaji,s,mazidio,msingi,kujieleza,NA,sdf,1,2,NA,NA,NA,NA,NA,NA,NA,NA,NA,NA,NA,NA,NA,NA,NA,NA,NA,NA,NA
34e31,"""Falsch""-Screen",canvas.Screen,3_0_2_0_1_1_2,NA,NA,skipped,NA,1357537,NA,NA,1357535.3,1357537,2023-11-24T15:02:05Z,1357530.873,NULL,Aufstand,ugomaji,s,mazidio,msingi,kujieleza,NA,sdf,NA,2,NA,NA,NA,NA,NA,NA,NA,NA,NA,NA,NA,NA,NA,NA,NA,NA,NA,NA,NA
34e31,shallow,flow.Sequence,3_0_2_0_1_1,NA,NA,completion,8467.7120000119,1349052.7,1349050.727,1349067.588,1357535.3,1357537.1,2023-11-24T15:02:05Z,1357530.873,NULL,Aufstand,ugomaji,s,mazidio,msingi,kujieleza,NA,sdf,NA,2,NA,NA,NA,NA,NA,NA,NA,NA,NA,NA,NA,NA,NA,NA,NA,NA,NA,NA,NA
34e31,task,flow.Sequence,3_0_2_0_1,NA,NA,completion,8467.7120000119,1349052.6,1349050.727,1349067.588,1357535.3,1357537.2,2023-11-24T15:02:05Z,1357530.873,NULL,Aufstand,ugomaji,s,mazidio,msingi,kujieleza,NA,sdf,NA,2,NA,NA,NA,NA,NA,NA,NA,NA,NA,NA,NA,NA,NA,NA,NA,NA,NA,NA,NA
34e31,Deep Question,html.Page,3_0_2_0_2_0_0,NA,NA,form submission,5151.1270000001,1357537.2,1357535.3,1357530.873,1362682,1362682.2,2023-11-24T15:02:11Z,1362689.331,NULL,Annäherung,maegesho,d,NA,NA,NA,mapatandi,NA,NA,2,NA,NA,NA,NA,NA,NA,NA,NA,NA,NA,NA,NA,NA,NA,NA,NA,NA,NA,NA
34e31,"""Richtig""-Screen",canvas.Screen,3_0_2_0_2_0_1,NA,NA,skipped,NA,1362683.2,NA,NA,1362682,1362683.3,2023-11-24T15:02:11Z,1362689.331,NULL,Annäherung,maegesho,d,NA,NA,NA,NA,sdf,NA,2,NA,NA,NA,NA,NA,NA,NA,NA,NA,NA,NA,NA,NA,NA,NA,NA,NA,NA,NA
34e31,"""Falsch""-Screen",canvas.Screen,3_0_2_0_2_0_2,NA,NA,timeout,4995.9399999999,1362683.6,1362673.025,1362689.331,1367668.716,1367669.8,2023-11-24T15:02:16Z,1367685.271,NULL,Annäherung,maegesho,d,NA,NA,NA,NA,sdf,0,2,NA,NA,NA,NA,NA,NA,NA,NA,NA,NA,NA,NA,NA,NA,NA,NA,NA,NA,NA
34e31,deep,flow.Sequence,3_0_2_0_2_0,NA,NA,completion,10137.843,1357537.2,1357535.3,1357530.873,1367668.716,1367670,2023-11-24T15:02:16Z,1367685.271,NULL,Annäherung,maegesho,d,NA,NA,NA,NA,sdf,NA,2,NA,NA,NA,NA,NA,NA,NA,NA,NA,NA,NA,NA,NA,NA,NA,NA,NA,NA,NA
34e31,shallow,flow.Sequence,3_0_2_0_2_1,NA,NA,skipped,NA,1367670.1,NA,NA,1367668.716,1367670.1,2023-11-24T15:02:16Z,1367685.271,NULL,Annäherung,maegesho,d,NA,NA,NA,NA,sdf,NA,2,NA,NA,NA,NA,NA,NA,NA,NA,NA,NA,NA,NA,NA,NA,NA,NA,NA,NA,NA
34e31,task,flow.Sequence,3_0_2_0_2,NA,NA,completion,10137.843,1357537.2,1357535.3,1357530.873,1367668.716,1367670.2,2023-11-24T15:02:16Z,1367685.271,NULL,Annäherung,maegesho,d,NA,NA,NA,NA,sdf,NA,2,NA,NA,NA,NA,NA,NA,NA,NA,NA,NA,NA,NA,NA,NA,NA,NA,NA,NA,NA
34e31,Deep Question,html.Page,3_0_2_0_3_0_0,NA,NA,form submission,8245.029000012,1367670.4,1367668.716,1367685.271,1375930.3,1375930.4,2023-11-24T15:02:24Z,1375945.131,NULL,Kultur,utamaduni,d,NA,NA,NA,matalawi,NA,NA,2,NA,NA,NA,NA,NA,NA,NA,NA,NA,NA,NA,NA,NA,NA,NA,NA,NA,NA,NA
34e31,"""Richtig""-Screen",canvas.Screen,3_0_2_0_3_0_1,NA,NA,skipped,NA,1375931.6,NA,NA,1375930.3,1375931.7,2023-11-24T15:02:24Z,1375945.131,NULL,Kultur,utamaduni,d,NA,NA,NA,NA,sdf,NA,2,NA,NA,NA,NA,NA,NA,NA,NA,NA,NA,NA,NA,NA,NA,NA,NA,NA,NA,NA
34e31,"""Falsch""-Screen",canvas.Screen,3_0_2_0_3_0_2,NA,NA,timeout,11107.448,1375931.9,1375928.551,1375945.131,1381536.1,1381538.9,2023-11-24T15:02:29Z,1387052.579,NULL,Kultur,utamaduni,d,NA,NA,NA,NA,sdf,0,2,NA,NA,NA,NA,NA,NA,NA,NA,NA,NA,NA,NA,NA,NA,NA,NA,NA,NA,NA
34e31,deep,flow.Sequence,3_0_2_0_3_0,NA,NA,completion,13850.828999994,1367670.4,1367668.716,1367685.271,1381536.1,1381538.9,2023-11-24T15:02:29Z,1387052.579,NULL,Kultur,utamaduni,d,NA,NA,NA,NA,sdf,NA,2,NA,NA,NA,NA,NA,NA,NA,NA,NA,NA,NA,NA,NA,NA,NA,NA,NA,NA,NA
34e31,shallow,flow.Sequence,3_0_2_0_3_1,NA,NA,skipped,NA,1381539,NA,NA,1381536.1,1381539,2023-11-24T15:02:29Z,1387052.579,NULL,Kultur,utamaduni,d,NA,NA,NA,NA,sdf,NA,2,NA,NA,NA,NA,NA,NA,NA,NA,NA,NA,NA,NA,NA,NA,NA,NA,NA,NA,NA
34e31,task,flow.Sequence,3_0_2_0_3,NA,NA,completion,13850.828999994,1367670.3,1367668.716,1367685.271,1381536.1,1381539.1,2023-11-24T15:02:29Z,1387052.579,NULL,Kultur,utamaduni,d,NA,NA,NA,NA,sdf,NA,2,NA,NA,NA,NA,NA,NA,NA,NA,NA,NA,NA,NA,NA,NA,NA,NA,NA,NA,NA
34e31,deep,flow.Sequence,3_0_2_0_4_0,NA,NA,skipped,NA,1381539.1,NA,NA,1381536.1,1381539.2,2023-11-24T15:02:29Z,1387052.579,NULL,Beweis,ushahidi,s,marudio,kizuizi,mtendaji,NA,sdf,NA,2,NA,NA,NA,NA,NA,NA,NA,NA,NA,NA,NA,NA,NA,NA,NA,NA,NA,NA,NA
34e31,Shallow Question,html.Page,3_0_2_0_4_1_0,NA,NA,form submission,11398.921,1381539.2,1381536.1,1387052.579,1398451.5,1398451.7,2023-11-24T15:02:46Z,1398459.797,NULL,Beweis,ushahidi,s,marudio,kizuizi,mtendaji,ushahidi,NA,NA,2,NA,NA,NA,NA,NA,NA,NA,NA,NA,NA,NA,NA,NA,NA,NA,NA,NA,NA,NA
34e31,"""Richtig""-Screen",canvas.Screen,3_0_2_0_4_1_1,NA,NA,timeout,4996.4129999999,1398452.9,1398443.537,1398459.797,1403464.7,1403464.9,2023-11-24T15:02:51Z,1403456.21,NULL,Beweis,ushahidi,s,marudio,kizuizi,mtendaji,NA,sdf,1,2,NA,NA,NA,NA,NA,NA,NA,NA,NA,NA,NA,NA,NA,NA,NA,NA,NA,NA,NA
34e31,"""Falsch""-Screen",canvas.Screen,3_0_2_0_4_1_2,NA,NA,skipped,NA,1403466.6,NA,NA,1403464.7,1403466.7,2023-11-24T15:02:51Z,1403456.21,NULL,Beweis,ushahidi,s,marudio,kizuizi,mtendaji,NA,sdf,NA,2,NA,NA,NA,NA,NA,NA,NA,NA,NA,NA,NA,NA,NA,NA,NA,NA,NA,NA,NA
34e31,shallow,flow.Sequence,3_0_2_0_4_1,NA,NA,completion,16412.120999988,1381539.2,1381536.1,1387052.579,1403464.7,1403466.7,2023-11-24T15:02:51Z,1403456.21,NULL,Beweis,ushahidi,s,marudio,kizuizi,mtendaji,NA,sdf,NA,2,NA,NA,NA,NA,NA,NA,NA,NA,NA,NA,NA,NA,NA,NA,NA,NA,NA,NA,NA
34e31,task,flow.Sequence,3_0_2_0_4,NA,NA,completion,16412.120999988,1381539.1,1381536.1,1387052.579,1403464.7,1403466.8,2023-11-24T15:02:51Z,1403456.21,NULL,Beweis,ushahidi,s,marudio,kizuizi,mtendaji,NA,sdf,NA,2,NA,NA,NA,NA,NA,NA,NA,NA,NA,NA,NA,NA,NA,NA,NA,NA,NA,NA,NA
34e31,deep,flow.Sequence,3_0_2_0_5_0,NA,NA,skipped,NA,1403466.9,NA,NA,1403464.7,1403466.9,2023-11-24T15:02:51Z,1403456.21,NULL,Polizist,msongora,s,simanzi,mandhari,nidhamu,NA,sdf,NA,2,NA,NA,NA,NA,NA,NA,NA,NA,NA,NA,NA,NA,NA,NA,NA,NA,NA,NA,NA
34e31,Shallow Question,html.Page,3_0_2_0_5_1_0,NA,NA,form submission,3015.190000006,1403466.9,1403464.7,1403456.21,1406471.4,1406471.5,2023-11-24T15:02:54Z,1406486.497,NULL,Polizist,msongora,s,simanzi,mandhari,nidhamu,msongora,NA,NA,2,NA,NA,NA,NA,NA,NA,NA,NA,NA,NA,NA,NA,NA,NA,NA,NA,NA,NA,NA
34e31,"""Richtig""-Screen",canvas.Screen,3_0_2_0_5_1_1,NA,NA,timeout,5049.588,1406472.5,1406469.963,1406486.497,1411534.8,1411535,2023-11-24T15:02:59Z,1411536.085,NULL,Polizist,msongora,s,simanzi,mandhari,nidhamu,NA,sdf,1,2,NA,NA,NA,NA,NA,NA,NA,NA,NA,NA,NA,NA,NA,NA,NA,NA,NA,NA,NA
34e31,"""Falsch""-Screen",canvas.Screen,3_0_2_0_5_1_2,NA,NA,skipped,NA,1411536,NA,NA,1411534.8,1411536.1,2023-11-24T15:02:59Z,1411536.085,NULL,Polizist,msongora,s,simanzi,mandhari,nidhamu,NA,sdf,NA,2,NA,NA,NA,NA,NA,NA,NA,NA,NA,NA,NA,NA,NA,NA,NA,NA,NA,NA,NA
34e31,shallow,flow.Sequence,3_0_2_0_5_1,NA,NA,completion,8078.590000012,1403466.9,1403464.7,1403456.21,1411534.8,1411536.2,2023-11-24T15:02:59Z,1411536.085,NULL,Polizist,msongora,s,simanzi,mandhari,nidhamu,NA,sdf,NA,2,NA,NA,NA,NA,NA,NA,NA,NA,NA,NA,NA,NA,NA,NA,NA,NA,NA,NA,NA
34e31,task,flow.Sequence,3_0_2_0_5,NA,NA,completion,8078.590000012,1403466.8,1403464.7,1403456.21,1411534.8,1411536.2,2023-11-24T15:02:59Z,1411536.085,NULL,Polizist,msongora,s,simanzi,mandhari,nidhamu,NA,sdf,NA,2,NA,NA,NA,NA,NA,NA,NA,NA,NA,NA,NA,NA,NA,NA,NA,NA,NA,NA,NA
34e31,Deep Question,html.Page,3_0_2_0_6_0_0,NA,NA,form submission,4702.715000012,1411536.2,1411534.8,1411536.085,1416238.8,1416239.1,2023-11-24T15:03:04Z,1416245.079,NULL,Sympathie,mapendano,d,NA,NA,NA,m,NA,NA,2,NA,NA,NA,NA,NA,NA,NA,NA,NA,NA,NA,NA,NA,NA,NA,NA,NA,NA,NA
34e31,"""Richtig""-Screen",canvas.Screen,3_0_2_0_6_0_1,NA,NA,skipped,NA,1416240.1,NA,NA,1416238.8,1416240.2,2023-11-24T15:03:04Z,1416245.079,NULL,Sympathie,mapendano,d,NA,NA,NA,NA,sdf,NA,2,NA,NA,NA,NA,NA,NA,NA,NA,NA,NA,NA,NA,NA,NA,NA,NA,NA,NA,NA
34e31,"""Falsch""-Screen",canvas.Screen,3_0_2_0_6_0_2,NA,NA,timeout,6977.675,1416240.5,1416228.71,1416245.079,1421535.1,1421537.7,2023-11-24T15:03:09Z,1423222.754,NULL,Sympathie,mapendano,d,NA,NA,NA,NA,sdf,0,2,NA,NA,NA,NA,NA,NA,NA,NA,NA,NA,NA,NA,NA,NA,NA,NA,NA,NA,NA
34e31,deep,flow.Sequence,3_0_2_0_6_0,NA,NA,completion,9999.0149999941,1411536.2,1411534.8,1411536.085,1421535.1,1421538,2023-11-24T15:03:09Z,1423222.754,NULL,Sympathie,mapendano,d,NA,NA,NA,NA,sdf,NA,2,NA,NA,NA,NA,NA,NA,NA,NA,NA,NA,NA,NA,NA,NA,NA,NA,NA,NA,NA
34e31,shallow,flow.Sequence,3_0_2_0_6_1,NA,NA,skipped,NA,1421538.1,NA,NA,1421535.1,1421538.2,2023-11-24T15:03:09Z,1423222.754,NULL,Sympathie,mapendano,d,NA,NA,NA,NA,sdf,NA,2,NA,NA,NA,NA,NA,NA,NA,NA,NA,NA,NA,NA,NA,NA,NA,NA,NA,NA,NA
34e31,task,flow.Sequence,3_0_2_0_6,NA,NA,completion,9999.0149999941,1411536.2,1411534.8,1411536.085,1421535.1,1421538.2,2023-11-24T15:03:09Z,1423222.754,NULL,Sympathie,mapendano,d,NA,NA,NA,NA,sdf,NA,2,NA,NA,NA,NA,NA,NA,NA,NA,NA,NA,NA,NA,NA,NA,NA,NA,NA,NA,NA
34e31,Deep Question,html.Page,3_0_2_0_7_0_0,NA,NA,form submission,2125.046000012,1421538.3,1421535.1,1423222.754,1425347.8,1425347.9,2023-11-24T15:03:13Z,1425354.278,NULL,Verzögerung,kuchelewa,d,NA,NA,NA,a,NA,NA,2,NA,NA,NA,NA,NA,NA,NA,NA,NA,NA,NA,NA,NA,NA,NA,NA,NA,NA,NA
34e31,"""Richtig""-Screen",canvas.Screen,3_0_2_0_7_0_1,NA,NA,skipped,NA,1425349.1,NA,NA,1425347.8,1425349.2,2023-11-24T15:03:13Z,1425354.278,NULL,Verzögerung,kuchelewa,d,NA,NA,NA,NA,sdf,NA,2,NA,NA,NA,NA,NA,NA,NA,NA,NA,NA,NA,NA,NA,NA,NA,NA,NA,NA,NA
34e31,"""Falsch""-Screen",canvas.Screen,3_0_2_0_7_0_2,NA,NA,timeout,8176.5350000001,1425349.5,1425337.716,1425354.278,1430536.2,1430538.8,2023-11-24T15:03:18Z,1433530.813,NULL,Verzögerung,kuchelewa,d,NA,NA,NA,NA,sdf,0,2,NA,NA,NA,NA,NA,NA,NA,NA,NA,NA,NA,NA,NA,NA,NA,NA,NA,NA,NA
34e31,deep,flow.Sequence,3_0_2_0_7_0,NA,NA,completion,7313.4459999881,1421538.3,1421535.1,1423222.754,1430536.2,1430538.9,2023-11-24T15:03:18Z,1433530.813,NULL,Verzögerung,kuchelewa,d,NA,NA,NA,NA,sdf,NA,2,NA,NA,NA,NA,NA,NA,NA,NA,NA,NA,NA,NA,NA,NA,NA,NA,NA,NA,NA
34e31,shallow,flow.Sequence,3_0_2_0_7_1,NA,NA,skipped,NA,1430539,NA,NA,1430536.2,1430539,2023-11-24T15:03:18Z,1433530.813,NULL,Verzögerung,kuchelewa,d,NA,NA,NA,NA,sdf,NA,2,NA,NA,NA,NA,NA,NA,NA,NA,NA,NA,NA,NA,NA,NA,NA,NA,NA,NA,NA
34e31,task,flow.Sequence,3_0_2_0_7,NA,NA,completion,7313.4459999881,1421538.3,1421535.1,1423222.754,1430536.2,1430539,2023-11-24T15:03:18Z,1433530.813,NULL,Verzögerung,kuchelewa,d,NA,NA,NA,NA,sdf,NA,2,NA,NA,NA,NA,NA,NA,NA,NA,NA,NA,NA,NA,NA,NA,NA,NA,NA,NA,NA
34e31,block,flow.Loop,3_0_2_0,NA,NA,completion,93075.961999988,1337442.8,1337427.576,1337460.238,1430536.2,1430539.1,2023-11-24T15:03:18Z,1433530.813,NULL,NA,NA,NA,NA,NA,NA,NA,sdf,NA,2,NA,NA,NA,NA,NA,NA,NA,NA,NA,NA,NA,NA,NA,NA,NA,NA,NA,NA,NA
34e31,weiter,canvas.Screen,3_0_2_1,sdf,keypress(Space),response,830.08700000588,1430539.1,1430536.2,1433530.813,1434360.9,1434362.7,2023-11-24T15:03:22Z,1434380.121,NULL,NA,NA,NA,NA,NA,NA,NA,sdf,NA,2,NA,NA,NA,NA,NA,NA,NA,NA,NA,NA,NA,NA,NA,NA,NA,NA,NA,NA,NA
34e31,check continue,flow.Sequence,3_0_2,NA,NA,completion,96900.662000006,1337442.7,1337427.576,1337460.238,1434360.9,1434362.8,2023-11-24T15:03:22Z,1434380.121,NULL,NA,NA,NA,NA,NA,NA,NA,sdf,NA,2,NA,NA,NA,NA,NA,NA,NA,NA,NA,NA,NA,NA,NA,NA,NA,NA,NA,NA,NA
34e31,deep,flow.Sequence,3_0_3_0_0_0,NA,NA,skipped,NA,1434377.9,NA,NA,1434360.9,1434378,2023-11-24T15:03:22Z,1434380.121,NULL,Prüfung,mtihani,s,mkulima,mtizamo,ufumbuzi,NA,qt,NA,3,NA,NA,NA,NA,NA,NA,NA,NA,NA,NA,NA,NA,NA,NA,NA,NA,NA,NA,NA
34e31,Shallow Question,html.Page,3_0_3_0_0_1_0,NA,NA,form submission,9251.578999988,1434378,1434363.762,1434380.121,1443631.7,1443631.9,2023-11-24T15:03:32Z,1443639.128,NULL,Prüfung,mtihani,s,mkulima,mtizamo,ufumbuzi,mtihani,NA,NA,3,NA,NA,NA,NA,NA,NA,NA,NA,NA,NA,NA,NA,NA,NA,NA,NA,NA,NA,NA
34e31,"""Richtig""-Screen",canvas.Screen,3_0_3_0_0_1_1,NA,NA,timeout,4995.942,1443633.1,1443622.605,1443639.128,1448618.406,1448618.9,2023-11-24T15:03:37Z,1448635.07,NULL,Prüfung,mtihani,s,mkulima,mtizamo,ufumbuzi,NA,qt,1,3,NA,NA,NA,NA,NA,NA,NA,NA,NA,NA,NA,NA,NA,NA,NA,NA,NA,NA,NA
34e31,"""Falsch""-Screen",canvas.Screen,3_0_3_0_0_1_2,NA,NA,skipped,NA,1448620.1,NA,NA,1448618.406,1448620.2,2023-11-24T15:03:37Z,1448635.07,NULL,Prüfung,mtihani,s,mkulima,mtizamo,ufumbuzi,NA,qt,NA,3,NA,NA,NA,NA,NA,NA,NA,NA,NA,NA,NA,NA,NA,NA,NA,NA,NA,NA,NA
34e31,shallow,flow.Sequence,3_0_3_0_0_1,NA,NA,completion,14238.285,1434378,1434363.762,1434380.121,1448618.406,1448620.3,2023-11-24T15:03:37Z,1448635.07,NULL,Prüfung,mtihani,s,mkulima,mtizamo,ufumbuzi,NA,qt,NA,3,NA,NA,NA,NA,NA,NA,NA,NA,NA,NA,NA,NA,NA,NA,NA,NA,NA,NA,NA
34e31,task,flow.Sequence,3_0_3_0_0,NA,NA,completion,14238.285,1434377.9,1434363.762,1434380.121,1448618.406,1448620.3,2023-11-24T15:03:37Z,1448635.07,NULL,Prüfung,mtihani,s,mkulima,mtizamo,ufumbuzi,NA,qt,NA,3,NA,NA,NA,NA,NA,NA,NA,NA,NA,NA,NA,NA,NA,NA,NA,NA,NA,NA,NA
34e31,Deep Question,html.Page,3_0_3_0_1_0_0,NA,NA,form submission,6183.2300000119,1448620.3,1448618.406,1448635.07,1454818.3,1454818.5,2023-11-24T15:03:43Z,1454829.875,NULL,Sympathie,mapendano,d,NA,NA,NA,mapendano,NA,NA,3,NA,NA,NA,NA,NA,NA,NA,NA,NA,NA,NA,NA,NA,NA,NA,NA,NA,NA,NA
34e31,"""Richtig""-Screen",canvas.Screen,3_0_3_0_1_0_1,NA,NA,timeout,5699.905,1454819.6,1454813.476,1454829.875,1460535,1460535.3,2023-11-24T15:03:48Z,1460529.78,NULL,Sympathie,mapendano,d,NA,NA,NA,NA,qt,1,3,NA,NA,NA,NA,NA,NA,NA,NA,NA,NA,NA,NA,NA,NA,NA,NA,NA,NA,NA
34e31,"""Falsch""-Screen",canvas.Screen,3_0_3_0_1_0_2,NA,NA,skipped,NA,1460536.7,NA,NA,1460535,1460536.7,2023-11-24T15:03:48Z,1460529.78,NULL,Sympathie,mapendano,d,NA,NA,NA,NA,qt,NA,3,NA,NA,NA,NA,NA,NA,NA,NA,NA,NA,NA,NA,NA,NA,NA,NA,NA,NA,NA
34e31,deep,flow.Sequence,3_0_3_0_1_0,NA,NA,completion,11899.93,1448620.3,1448618.406,1448635.07,1460535,1460536.8,2023-11-24T15:03:48Z,1460529.78,NULL,Sympathie,mapendano,d,NA,NA,NA,NA,qt,NA,3,NA,NA,NA,NA,NA,NA,NA,NA,NA,NA,NA,NA,NA,NA,NA,NA,NA,NA,NA
34e31,shallow,flow.Sequence,3_0_3_0_1_1,NA,NA,skipped,NA,1460536.8,NA,NA,1460535,1460536.8,2023-11-24T15:03:48Z,1460529.78,NULL,Sympathie,mapendano,d,NA,NA,NA,NA,qt,NA,3,NA,NA,NA,NA,NA,NA,NA,NA,NA,NA,NA,NA,NA,NA,NA,NA,NA,NA,NA
34e31,task,flow.Sequence,3_0_3_0_1,NA,NA,completion,11899.93,1448620.3,1448618.406,1448635.07,1460535,1460536.9,2023-11-24T15:03:48Z,1460529.78,NULL,Sympathie,mapendano,d,NA,NA,NA,NA,qt,NA,3,NA,NA,NA,NA,NA,NA,NA,NA,NA,NA,NA,NA,NA,NA,NA,NA,NA,NA,NA
34e31,Deep Question,html.Page,3_0_3_0_2_0_0,NA,NA,form submission,7052.5200000119,1460536.9,1460535,1460529.78,1467582.3,1467582.5,2023-11-24T15:03:56Z,1467586.003,NULL,Kultur,utamaduni,d,NA,NA,NA,utamaduni,NA,NA,3,NA,NA,NA,NA,NA,NA,NA,NA,NA,NA,NA,NA,NA,NA,NA,NA,NA,NA,NA
34e31,"""Richtig""-Screen",canvas.Screen,3_0_3_0_2_0_1,NA,NA,timeout,4995.8359999999,1467583.6,1467569.606,1467586.003,1472565.697,1472566.8,2023-11-24T15:04:00Z,1472581.839,NULL,Kultur,utamaduni,d,NA,NA,NA,NA,qt,1,3,NA,NA,NA,NA,NA,NA,NA,NA,NA,NA,NA,NA,NA,NA,NA,NA,NA,NA,NA
34e31,"""Falsch""-Screen",canvas.Screen,3_0_3_0_2_0_2,NA,NA,skipped,NA,1472568.7,NA,NA,1472565.697,1472568.8,2023-11-24T15:04:00Z,1472581.839,NULL,Kultur,utamaduni,d,NA,NA,NA,NA,qt,NA,3,NA,NA,NA,NA,NA,NA,NA,NA,NA,NA,NA,NA,NA,NA,NA,NA,NA,NA,NA
34e31,deep,flow.Sequence,3_0_3_0_2_0,NA,NA,completion,12035.917,1460536.9,1460535,1460529.78,1472565.697,1472568.8,2023-11-24T15:04:00Z,1472581.839,NULL,Kultur,utamaduni,d,NA,NA,NA,NA,qt,NA,3,NA,NA,NA,NA,NA,NA,NA,NA,NA,NA,NA,NA,NA,NA,NA,NA,NA,NA,NA
34e31,shallow,flow.Sequence,3_0_3_0_2_1,NA,NA,skipped,NA,1472569,NA,NA,1472565.697,1472569,2023-11-24T15:04:00Z,1472581.839,NULL,Kultur,utamaduni,d,NA,NA,NA,NA,qt,NA,3,NA,NA,NA,NA,NA,NA,NA,NA,NA,NA,NA,NA,NA,NA,NA,NA,NA,NA,NA
34e31,task,flow.Sequence,3_0_3_0_2,NA,NA,completion,12035.917,1460536.9,1460535,1460529.78,1472565.697,1472569.1,2023-11-24T15:04:00Z,1472581.839,NULL,Kultur,utamaduni,d,NA,NA,NA,NA,qt,NA,3,NA,NA,NA,NA,NA,NA,NA,NA,NA,NA,NA,NA,NA,NA,NA,NA,NA,NA,NA
34e31,Deep Question,html.Page,3_0_3_0_3_0_0,NA,NA,form submission,3338.7609999941,1472569.1,1472565.697,1472581.839,1475920.6,1475920.8,2023-11-24T15:04:04Z,1475929.082,NULL,Annäherung,maegesho,d,NA,NA,NA,a,NA,NA,3,NA,NA,NA,NA,NA,NA,NA,NA,NA,NA,NA,NA,NA,NA,NA,NA,NA,NA,NA
34e31,"""Richtig""-Screen",canvas.Screen,3_0_3_0_3_0_1,NA,NA,skipped,NA,1475921.9,NA,NA,1475920.6,1475921.9,2023-11-24T15:04:04Z,1475929.082,NULL,Annäherung,maegesho,d,NA,NA,NA,NA,qt,NA,3,NA,NA,NA,NA,NA,NA,NA,NA,NA,NA,NA,NA,NA,NA,NA,NA,NA,NA,NA
34e31,"""Falsch""-Screen",canvas.Screen,3_0_3_0_3_0_2,NA,NA,timeout,5599.8,1475922.2,1475912.53,1475929.082,1481536.1,1481536.3,2023-11-24T15:04:09Z,1481528.882,NULL,Annäherung,maegesho,d,NA,NA,NA,NA,qt,0,3,NA,NA,NA,NA,NA,NA,NA,NA,NA,NA,NA,NA,NA,NA,NA,NA,NA,NA,NA
34e31,deep,flow.Sequence,3_0_3_0_3_0,NA,NA,completion,8954.2609999941,1472569.1,1472565.697,1472581.839,1481536.1,1481536.5,2023-11-24T15:04:09Z,1481528.882,NULL,Annäherung,maegesho,d,NA,NA,NA,NA,qt,NA,3,NA,NA,NA,NA,NA,NA,NA,NA,NA,NA,NA,NA,NA,NA,NA,NA,NA,NA,NA
34e31,shallow,flow.Sequence,3_0_3_0_3_1,NA,NA,skipped,NA,1481536.6,NA,NA,1481536.1,1481536.6,2023-11-24T15:04:09Z,1481528.882,NULL,Annäherung,maegesho,d,NA,NA,NA,NA,qt,NA,3,NA,NA,NA,NA,NA,NA,NA,NA,NA,NA,NA,NA,NA,NA,NA,NA,NA,NA,NA
34e31,task,flow.Sequence,3_0_3_0_3,NA,NA,completion,8954.2609999941,1472569.1,1472565.697,1472581.839,1481536.1,1481536.7,2023-11-24T15:04:09Z,1481528.882,NULL,Annäherung,maegesho,d,NA,NA,NA,NA,qt,NA,3,NA,NA,NA,NA,NA,NA,NA,NA,NA,NA,NA,NA,NA,NA,NA,NA,NA,NA,NA
34e31,deep,flow.Sequence,3_0_3_0_4_0,NA,NA,skipped,NA,1481536.7,NA,NA,1481536.1,1481536.8,2023-11-24T15:04:09Z,1481528.882,NULL,Beweis,ushahidi,s,marudio,kizuizi,mtendaji,NA,qt,NA,3,NA,NA,NA,NA,NA,NA,NA,NA,NA,NA,NA,NA,NA,NA,NA,NA,NA,NA,NA
34e31,Shallow Question,html.Page,3_0_3_0_4_1_0,NA,NA,form submission,10213.717999994,1481536.8,1481536.1,1481528.882,1491742.6,1491742.9,2023-11-24T15:04:20Z,1491749.43,NULL,Beweis,ushahidi,s,marudio,kizuizi,mtendaji,ushahidi,NA,NA,3,NA,NA,NA,NA,NA,NA,NA,NA,NA,NA,NA,NA,NA,NA,NA,NA,NA,NA,NA
34e31,"""Richtig""-Screen",canvas.Screen,3_0_3_0_4_1_1,NA,NA,timeout,5782.6580000001,1491744.5,1491732.803,1491749.43,1497535.1,1497535.3,2023-11-24T15:04:25Z,1497532.088,NULL,Beweis,ushahidi,s,marudio,kizuizi,mtendaji,NA,qt,1,3,NA,NA,NA,NA,NA,NA,NA,NA,NA,NA,NA,NA,NA,NA,NA,NA,NA,NA,NA
34e31,"""Falsch""-Screen",canvas.Screen,3_0_3_0_4_1_2,NA,NA,skipped,NA,1497536.4,NA,NA,1497535.1,1497536.5,2023-11-24T15:04:25Z,1497532.088,NULL,Beweis,ushahidi,s,marudio,kizuizi,mtendaji,NA,qt,NA,3,NA,NA,NA,NA,NA,NA,NA,NA,NA,NA,NA,NA,NA,NA,NA,NA,NA,NA,NA
34e31,shallow,flow.Sequence,3_0_3_0_4_1,NA,NA,completion,16006.217999994,1481536.8,1481536.1,1481528.882,1497535.1,1497536.5,2023-11-24T15:04:25Z,1497532.088,NULL,Beweis,ushahidi,s,marudio,kizuizi,mtendaji,NA,qt,NA,3,NA,NA,NA,NA,NA,NA,NA,NA,NA,NA,NA,NA,NA,NA,NA,NA,NA,NA,NA
34e31,task,flow.Sequence,3_0_3_0_4,NA,NA,completion,16006.217999994,1481536.7,1481536.1,1481528.882,1497535.1,1497536.6,2023-11-24T15:04:25Z,1497532.088,NULL,Beweis,ushahidi,s,marudio,kizuizi,mtendaji,NA,qt,NA,3,NA,NA,NA,NA,NA,NA,NA,NA,NA,NA,NA,NA,NA,NA,NA,NA,NA,NA,NA
34e31,deep,flow.Sequence,3_0_3_0_5_0,NA,NA,skipped,NA,1497536.6,NA,NA,1497535.1,1497536.6,2023-11-24T15:04:25Z,1497532.088,NULL,Polizist,msongora,s,simanzi,mandhari,nidhamu,NA,qt,NA,3,NA,NA,NA,NA,NA,NA,NA,NA,NA,NA,NA,NA,NA,NA,NA,NA,NA,NA,NA
34e31,Shallow Question,html.Page,3_0_3_0_5_1_0,NA,NA,form submission,5433.5119999941,1497536.6,1497535.1,1497532.088,1502965.6,1502965.8,2023-11-24T15:04:31Z,1502973.417,NULL,Polizist,msongora,s,simanzi,mandhari,nidhamu,msongora,NA,NA,3,NA,NA,NA,NA,NA,NA,NA,NA,NA,NA,NA,NA,NA,NA,NA,NA,NA,NA,NA
34e31,"""Richtig""-Screen",canvas.Screen,3_0_3_0_5_1_1,NA,NA,timeout,5565.0050000001,1502966.7,1502956.865,1502973.417,1508548.8,1508549,2023-11-24T15:04:36Z,1508538.422,NULL,Polizist,msongora,s,simanzi,mandhari,nidhamu,NA,qt,1,3,NA,NA,NA,NA,NA,NA,NA,NA,NA,NA,NA,NA,NA,NA,NA,NA,NA,NA,NA
34e31,"""Falsch""-Screen",canvas.Screen,3_0_3_0_5_1_2,NA,NA,skipped,NA,1508550.7,NA,NA,1508548.8,1508550.7,2023-11-24T15:04:36Z,1508538.422,NULL,Polizist,msongora,s,simanzi,mandhari,nidhamu,NA,qt,NA,3,NA,NA,NA,NA,NA,NA,NA,NA,NA,NA,NA,NA,NA,NA,NA,NA,NA,NA,NA
34e31,shallow,flow.Sequence,3_0_3_0_5_1,NA,NA,completion,11016.712000012,1497536.6,1497535.1,1497532.088,1508548.8,1508550.8,2023-11-24T15:04:36Z,1508538.422,NULL,Polizist,msongora,s,simanzi,mandhari,nidhamu,NA,qt,NA,3,NA,NA,NA,NA,NA,NA,NA,NA,NA,NA,NA,NA,NA,NA,NA,NA,NA,NA,NA
34e31,task,flow.Sequence,3_0_3_0_5,NA,NA,completion,11016.712000012,1497536.6,1497535.1,1497532.088,1508548.8,1508550.8,2023-11-24T15:04:36Z,1508538.422,NULL,Polizist,msongora,s,simanzi,mandhari,nidhamu,NA,qt,NA,3,NA,NA,NA,NA,NA,NA,NA,NA,NA,NA,NA,NA,NA,NA,NA,NA,NA,NA,NA
34e31,deep,flow.Sequence,3_0_3_0_6_0,NA,NA,skipped,NA,1508550.9,NA,NA,1508548.8,1508550.9,2023-11-24T15:04:36Z,1508538.422,NULL,Aufstand,ugomaji,s,mazidio,msingi,kujieleza,NA,qt,NA,3,NA,NA,NA,NA,NA,NA,NA,NA,NA,NA,NA,NA,NA,NA,NA,NA,NA,NA,NA
34e31,Shallow Question,html.Page,3_0_3_0_6_1_0,NA,NA,form submission,2902.4780000059,1508550.9,1508548.8,1508538.422,1511440.9,1511441,2023-11-24T15:04:39Z,1511449.822,NULL,Aufstand,ugomaji,s,mazidio,msingi,kujieleza,ugomaji,NA,NA,3,NA,NA,NA,NA,NA,NA,NA,NA,NA,NA,NA,NA,NA,NA,NA,NA,NA,NA,NA
34e31,"""Richtig""-Screen",canvas.Screen,3_0_3_0_6_1_1,NA,NA,timeout,5080.6460000002,1511441.6,1511433.261,1511449.822,1516535.3,1516535.7,2023-11-24T15:04:44Z,1516530.468,NULL,Aufstand,ugomaji,s,mazidio,msingi,kujieleza,NA,qt,1,3,NA,NA,NA,NA,NA,NA,NA,NA,NA,NA,NA,NA,NA,NA,NA,NA,NA,NA,NA
34e31,"""Falsch""-Screen",canvas.Screen,3_0_3_0_6_1_2,NA,NA,skipped,NA,1516537.1,NA,NA,1516535.3,1516537.1,2023-11-24T15:04:44Z,1516530.468,NULL,Aufstand,ugomaji,s,mazidio,msingi,kujieleza,NA,qt,NA,3,NA,NA,NA,NA,NA,NA,NA,NA,NA,NA,NA,NA,NA,NA,NA,NA,NA,NA,NA
34e31,shallow,flow.Sequence,3_0_3_0_6_1,NA,NA,completion,7996.8780000119,1508550.9,1508548.8,1508538.422,1516535.3,1516537.1,2023-11-24T15:04:44Z,1516530.468,NULL,Aufstand,ugomaji,s,mazidio,msingi,kujieleza,NA,qt,NA,3,NA,NA,NA,NA,NA,NA,NA,NA,NA,NA,NA,NA,NA,NA,NA,NA,NA,NA,NA
34e31,task,flow.Sequence,3_0_3_0_6,NA,NA,completion,7996.8780000119,1508550.9,1508548.8,1508538.422,1516535.3,1516537.1,2023-11-24T15:04:44Z,1516530.468,NULL,Aufstand,ugomaji,s,mazidio,msingi,kujieleza,NA,qt,NA,3,NA,NA,NA,NA,NA,NA,NA,NA,NA,NA,NA,NA,NA,NA,NA,NA,NA,NA,NA
34e31,Deep Question,html.Page,3_0_3_0_7_0_0,NA,NA,form submission,3042.9320000059,1516537.2,1516535.3,1516530.468,1519573.4,1519573.7,2023-11-24T15:04:47Z,1519576.374,NULL,Verzögerung,kuchelewa,d,NA,NA,NA,kuchelewi,NA,NA,3,NA,NA,NA,NA,NA,NA,NA,NA,NA,NA,NA,NA,NA,NA,NA,NA,NA,NA,NA
34e31,"""Richtig""-Screen",canvas.Screen,3_0_3_0_7_0_1,NA,NA,skipped,NA,1519574.1,NA,NA,1519573.4,1519574.1,2023-11-24T15:04:47Z,1519576.374,NULL,Verzögerung,kuchelewa,d,NA,NA,NA,NA,qt,NA,3,NA,NA,NA,NA,NA,NA,NA,NA,NA,NA,NA,NA,NA,NA,NA,NA,NA,NA,NA
34e31,"""Falsch""-Screen",canvas.Screen,3_0_3_0_7_0_2,NA,NA,timeout,4995.9309999999,1519574.4,1519559.838,1519576.374,1524555.695,1524556.4,2023-11-24T15:04:52Z,1524572.305,NULL,Verzögerung,kuchelewa,d,NA,NA,NA,NA,qt,0,3,NA,NA,NA,NA,NA,NA,NA,NA,NA,NA,NA,NA,NA,NA,NA,NA,NA,NA,NA
34e31,deep,flow.Sequence,3_0_3_0_7_0,NA,NA,completion,8025.227,1516537.2,1516535.3,1516530.468,1524555.695,1524556.6,2023-11-24T15:04:52Z,1524572.305,NULL,Verzögerung,kuchelewa,d,NA,NA,NA,NA,qt,NA,3,NA,NA,NA,NA,NA,NA,NA,NA,NA,NA,NA,NA,NA,NA,NA,NA,NA,NA,NA
34e31,shallow,flow.Sequence,3_0_3_0_7_1,NA,NA,skipped,NA,1524556.7,NA,NA,1524555.695,1524556.7,2023-11-24T15:04:52Z,1524572.305,NULL,Verzögerung,kuchelewa,d,NA,NA,NA,NA,qt,NA,3,NA,NA,NA,NA,NA,NA,NA,NA,NA,NA,NA,NA,NA,NA,NA,NA,NA,NA,NA
34e31,task,flow.Sequence,3_0_3_0_7,NA,NA,completion,8025.227,1516537.2,1516535.3,1516530.468,1524555.695,1524556.9,2023-11-24T15:04:52Z,1524572.305,NULL,Verzögerung,kuchelewa,d,NA,NA,NA,NA,qt,NA,3,NA,NA,NA,NA,NA,NA,NA,NA,NA,NA,NA,NA,NA,NA,NA,NA,NA,NA,NA
34e31,block,flow.Loop,3_0_3_0,NA,NA,completion,90175.574,1434377.9,1434363.762,1434380.121,1524555.695,1524557,2023-11-24T15:04:52Z,1524572.305,NULL,NA,NA,NA,NA,NA,NA,NA,qt,NA,3,NA,NA,NA,NA,NA,NA,NA,NA,NA,NA,NA,NA,NA,NA,NA,NA,NA,NA,NA
34e31,weiter,canvas.Screen,3_0_3_1,sdf,keypress(Space),response,838.19500000007,1524557,1524555.695,1524572.305,1525410.5,1525411.7,2023-11-24T15:04:53Z,1525438.25,NULL,NA,NA,NA,NA,NA,NA,NA,qt,NA,3,NA,NA,NA,NA,NA,NA,NA,NA,NA,NA,NA,NA,NA,NA,NA,NA,NA,NA,NA
34e31,check continue,flow.Sequence,3_0_3,NA,NA,completion,91030.379,1434377.8,1434363.762,1434380.121,1525410.5,1525411.7,2023-11-24T15:04:53Z,1525438.25,NULL,NA,NA,NA,NA,NA,NA,NA,qt,NA,3,NA,NA,NA,NA,NA,NA,NA,NA,NA,NA,NA,NA,NA,NA,NA,NA,NA,NA,NA
34e31,Deep Question,html.Page,3_0_4_0_0_0_0,NA,NA,form submission,4664.0500000119,1525433.1,1525422.264,1525438.25,1530102.3,1530102.4,2023-11-24T15:04:58Z,1530117.729,NULL,Annäherung,maegesho,d,NA,NA,NA,k,NA,NA,4,NA,NA,NA,NA,NA,NA,NA,NA,NA,NA,NA,NA,NA,NA,NA,NA,NA,NA,NA
34e31,"""Richtig""-Screen",canvas.Screen,3_0_4_0_0_0_1,NA,NA,skipped,NA,1530103.5,NA,NA,1530102.3,1530103.6,2023-11-24T15:04:58Z,1530117.729,NULL,Annäherung,maegesho,d,NA,NA,NA,NA,sd,NA,4,NA,NA,NA,NA,NA,NA,NA,NA,NA,NA,NA,NA,NA,NA,NA,NA,NA,NA,NA
34e31,"""Falsch""-Screen",canvas.Screen,3_0_4_0_0_0_2,NA,NA,timeout,7826.814,1530103.8,1530101.699,1530117.729,1535535.7,1535538.1,2023-11-24T15:05:03Z,1537944.543,NULL,Annäherung,maegesho,d,NA,NA,NA,NA,sd,0,4,NA,NA,NA,NA,NA,NA,NA,NA,NA,NA,NA,NA,NA,NA,NA,NA,NA,NA,NA
34e31,deep,flow.Sequence,3_0_4_0_0_0,NA,NA,completion,10097.449999988,1525433.1,1525422.264,1525438.25,1535535.7,1535538.3,2023-11-24T15:05:03Z,1537944.543,NULL,Annäherung,maegesho,d,NA,NA,NA,NA,sd,NA,4,NA,NA,NA,NA,NA,NA,NA,NA,NA,NA,NA,NA,NA,NA,NA,NA,NA,NA,NA
34e31,shallow,flow.Sequence,3_0_4_0_0_1,NA,NA,skipped,NA,1535538.3,NA,NA,1535535.7,1535538.3,2023-11-24T15:05:03Z,1537944.543,NULL,Annäherung,maegesho,d,NA,NA,NA,NA,sd,NA,4,NA,NA,NA,NA,NA,NA,NA,NA,NA,NA,NA,NA,NA,NA,NA,NA,NA,NA,NA
34e31,task,flow.Sequence,3_0_4_0_0,NA,NA,completion,10097.449999988,1525433.1,1525422.264,1525438.25,1535535.7,1535538.3,2023-11-24T15:05:03Z,1537944.543,NULL,Annäherung,maegesho,d,NA,NA,NA,NA,sd,NA,4,NA,NA,NA,NA,NA,NA,NA,NA,NA,NA,NA,NA,NA,NA,NA,NA,NA,NA,NA
34e31,deep,flow.Sequence,3_0_4_0_1_0,NA,NA,skipped,NA,1535538.4,NA,NA,1535535.7,1535538.4,2023-11-24T15:05:03Z,1537944.543,NULL,Prüfung,mtihani,s,mkulima,mtizamo,ufumbuzi,NA,sd,NA,4,NA,NA,NA,NA,NA,NA,NA,NA,NA,NA,NA,NA,NA,NA,NA,NA,NA,NA,NA
34e31,Shallow Question,html.Page,3_0_4_0_1_1_0,NA,NA,form submission,4739.056999994,1535538.4,1535535.7,1537944.543,1542683.6,1542683.8,2023-11-24T15:05:11Z,1542690.574,NULL,Prüfung,mtihani,s,mkulima,mtizamo,ufumbuzi,mtihani,NA,NA,4,NA,NA,NA,NA,NA,NA,NA,NA,NA,NA,NA,NA,NA,NA,NA,NA,NA,NA,NA
34e31,"""Richtig""-Screen",canvas.Screen,3_0_4_0_1_1_1,NA,NA,timeout,4995.9369999999,1542685,1542673.976,1542690.574,1547669.844,1547670.4,2023-11-24T15:05:16Z,1547686.511,NULL,Prüfung,mtihani,s,mkulima,mtizamo,ufumbuzi,NA,sd,1,4,NA,NA,NA,NA,NA,NA,NA,NA,NA,NA,NA,NA,NA,NA,NA,NA,NA,NA,NA
34e31,"""Falsch""-Screen",canvas.Screen,3_0_4_0_1_1_2,NA,NA,skipped,NA,1547671.7,NA,NA,1547669.844,1547671.7,2023-11-24T15:05:16Z,1547686.511,NULL,Prüfung,mtihani,s,mkulima,mtizamo,ufumbuzi,NA,sd,NA,4,NA,NA,NA,NA,NA,NA,NA,NA,NA,NA,NA,NA,NA,NA,NA,NA,NA,NA,NA
34e31,shallow,flow.Sequence,3_0_4_0_1_1,NA,NA,completion,9725.301,1535538.4,1535535.7,1537944.543,1547669.844,1547671.8,2023-11-24T15:05:16Z,1547686.511,NULL,Prüfung,mtihani,s,mkulima,mtizamo,ufumbuzi,NA,sd,NA,4,NA,NA,NA,NA,NA,NA,NA,NA,NA,NA,NA,NA,NA,NA,NA,NA,NA,NA,NA
34e31,task,flow.Sequence,3_0_4_0_1,NA,NA,completion,9725.301,1535538.3,1535535.7,1537944.543,1547669.844,1547671.8,2023-11-24T15:05:16Z,1547686.511,NULL,Prüfung,mtihani,s,mkulima,mtizamo,ufumbuzi,NA,sd,NA,4,NA,NA,NA,NA,NA,NA,NA,NA,NA,NA,NA,NA,NA,NA,NA,NA,NA,NA,NA
34e31,Deep Question,html.Page,3_0_4_0_2_0_0,NA,NA,form submission,9098.6889999881,1547671.8,1547669.844,1547686.511,1556785.2,1556785.4,2023-11-24T15:05:25Z,1556795.605,NULL,Sympathie,mapendano,d,NA,NA,NA,mapendano,NA,NA,4,NA,NA,NA,NA,NA,NA,NA,NA,NA,NA,NA,NA,NA,NA,NA,NA,NA,NA,NA
34e31,"""Richtig""-Screen",canvas.Screen,3_0_4_0_2_0_1,NA,NA,timeout,5733.175,1556786.6,1556779.177,1556795.605,1562535.5,1562535.9,2023-11-24T15:05:30Z,1562528.78,NULL,Sympathie,mapendano,d,NA,NA,NA,NA,sd,1,4,NA,NA,NA,NA,NA,NA,NA,NA,NA,NA,NA,NA,NA,NA,NA,NA,NA,NA,NA
34e31,"""Falsch""-Screen",canvas.Screen,3_0_4_0_2_0_2,NA,NA,skipped,NA,1562537.5,NA,NA,1562535.5,1562537.5,2023-11-24T15:05:30Z,1562528.78,NULL,Sympathie,mapendano,d,NA,NA,NA,NA,sd,NA,4,NA,NA,NA,NA,NA,NA,NA,NA,NA,NA,NA,NA,NA,NA,NA,NA,NA,NA,NA
34e31,deep,flow.Sequence,3_0_4_0_2_0,NA,NA,completion,14848.989,1547671.8,1547669.844,1547686.511,1562535.5,1562537.7,2023-11-24T15:05:30Z,1562528.78,NULL,Sympathie,mapendano,d,NA,NA,NA,NA,sd,NA,4,NA,NA,NA,NA,NA,NA,NA,NA,NA,NA,NA,NA,NA,NA,NA,NA,NA,NA,NA
34e31,shallow,flow.Sequence,3_0_4_0_2_1,NA,NA,skipped,NA,1562537.7,NA,NA,1562535.5,1562537.7,2023-11-24T15:05:30Z,1562528.78,NULL,Sympathie,mapendano,d,NA,NA,NA,NA,sd,NA,4,NA,NA,NA,NA,NA,NA,NA,NA,NA,NA,NA,NA,NA,NA,NA,NA,NA,NA,NA
34e31,task,flow.Sequence,3_0_4_0_2,NA,NA,completion,14848.989,1547671.8,1547669.844,1547686.511,1562535.5,1562537.7,2023-11-24T15:05:30Z,1562528.78,NULL,Sympathie,mapendano,d,NA,NA,NA,NA,sd,NA,4,NA,NA,NA,NA,NA,NA,NA,NA,NA,NA,NA,NA,NA,NA,NA,NA,NA,NA,NA
34e31,Deep Question,html.Page,3_0_4_0_3_0_0,NA,NA,form submission,5969.0200000119,1562537.7,1562535.5,1562528.78,1568497.8,1568498.1,2023-11-24T15:05:36Z,1568502.589,NULL,Kultur,utamaduni,d,NA,NA,NA,utamaduni,NA,NA,4,NA,NA,NA,NA,NA,NA,NA,NA,NA,NA,NA,NA,NA,NA,NA,NA,NA,NA,NA
34e31,"""Richtig""-Screen",canvas.Screen,3_0_4_0_3_0_1,NA,NA,timeout,5033.192,1568499.2,1568486.46,1568502.589,1573535.6,1573535.9,2023-11-24T15:05:41Z,1573535.781,NULL,Kultur,utamaduni,d,NA,NA,NA,NA,sd,1,4,NA,NA,NA,NA,NA,NA,NA,NA,NA,NA,NA,NA,NA,NA,NA,NA,NA,NA,NA
34e31,"""Falsch""-Screen",canvas.Screen,3_0_4_0_3_0_2,NA,NA,skipped,NA,1573537.9,NA,NA,1573535.6,1573537.9,2023-11-24T15:05:41Z,1573535.781,NULL,Kultur,utamaduni,d,NA,NA,NA,NA,sd,NA,4,NA,NA,NA,NA,NA,NA,NA,NA,NA,NA,NA,NA,NA,NA,NA,NA,NA,NA,NA
34e31,deep,flow.Sequence,3_0_4_0_3_0,NA,NA,completion,11006.819999994,1562537.7,1562535.5,1562528.78,1573535.6,1573538,2023-11-24T15:05:41Z,1573535.781,NULL,Kultur,utamaduni,d,NA,NA,NA,NA,sd,NA,4,NA,NA,NA,NA,NA,NA,NA,NA,NA,NA,NA,NA,NA,NA,NA,NA,NA,NA,NA
34e31,shallow,flow.Sequence,3_0_4_0_3_1,NA,NA,skipped,NA,1573538,NA,NA,1573535.6,1573538.1,2023-11-24T15:05:41Z,1573535.781,NULL,Kultur,utamaduni,d,NA,NA,NA,NA,sd,NA,4,NA,NA,NA,NA,NA,NA,NA,NA,NA,NA,NA,NA,NA,NA,NA,NA,NA,NA,NA
34e31,task,flow.Sequence,3_0_4_0_3,NA,NA,completion,11006.819999994,1562537.7,1562535.5,1562528.78,1573535.6,1573538.1,2023-11-24T15:05:41Z,1573535.781,NULL,Kultur,utamaduni,d,NA,NA,NA,NA,sd,NA,4,NA,NA,NA,NA,NA,NA,NA,NA,NA,NA,NA,NA,NA,NA,NA,NA,NA,NA,NA
34e31,deep,flow.Sequence,3_0_4_0_4_0,NA,NA,skipped,NA,1573538.1,NA,NA,1573535.6,1573538.2,2023-11-24T15:05:41Z,1573535.781,NULL,Aufstand,ugomaji,s,mazidio,msingi,kujieleza,NA,sd,NA,4,NA,NA,NA,NA,NA,NA,NA,NA,NA,NA,NA,NA,NA,NA,NA,NA,NA,NA,NA
34e31,Shallow Question,html.Page,3_0_4_0_4_1_0,NA,NA,form submission,3302.9189999881,1573538.2,1573535.6,1573535.781,1576838.7,1576839,2023-11-24T15:05:45Z,1576845.701,NULL,Aufstand,ugomaji,s,mazidio,msingi,kujieleza,ugomaji,NA,NA,4,NA,NA,NA,NA,NA,NA,NA,NA,NA,NA,NA,NA,NA,NA,NA,NA,NA,NA,NA
34e31,"""Richtig""-Screen",canvas.Screen,3_0_4_0_4_1_1,NA,NA,timeout,7310.6270000001,1576839.8,1576829.492,1576845.701,1582535.3,1582538.2,2023-11-24T15:05:50Z,1584156.328,NULL,Aufstand,ugomaji,s,mazidio,msingi,kujieleza,NA,sd,1,4,NA,NA,NA,NA,NA,NA,NA,NA,NA,NA,NA,NA,NA,NA,NA,NA,NA,NA,NA
34e31,"""Falsch""-Screen",canvas.Screen,3_0_4_0_4_1_2,NA,NA,skipped,NA,1582540,NA,NA,1582535.3,1582540.1,2023-11-24T15:05:50Z,1584156.328,NULL,Aufstand,ugomaji,s,mazidio,msingi,kujieleza,NA,sd,NA,4,NA,NA,NA,NA,NA,NA,NA,NA,NA,NA,NA,NA,NA,NA,NA,NA,NA,NA,NA
34e31,shallow,flow.Sequence,3_0_4_0_4_1,NA,NA,completion,8999.519000012,1573538.2,1573535.6,1573535.781,1582535.3,1582540.3,2023-11-24T15:05:50Z,1584156.328,NULL,Aufstand,ugomaji,s,mazidio,msingi,kujieleza,NA,sd,NA,4,NA,NA,NA,NA,NA,NA,NA,NA,NA,NA,NA,NA,NA,NA,NA,NA,NA,NA,NA
34e31,task,flow.Sequence,3_0_4_0_4,NA,NA,completion,8999.519000012,1573538.1,1573535.6,1573535.781,1582535.3,1582540.3,2023-11-24T15:05:50Z,1584156.328,NULL,Aufstand,ugomaji,s,mazidio,msingi,kujieleza,NA,sd,NA,4,NA,NA,NA,NA,NA,NA,NA,NA,NA,NA,NA,NA,NA,NA,NA,NA,NA,NA,NA
34e31,Deep Question,html.Page,3_0_4_0_5_0_0,NA,NA,form submission,5528.072000006,1582540.3,1582535.3,1584156.328,1589684.4,1589684.6,2023-11-24T15:05:58Z,1589703.257,NULL,Verzögerung,kuchelewa,d,NA,NA,NA,kuchelewa,NA,NA,4,NA,NA,NA,NA,NA,NA,NA,NA,NA,NA,NA,NA,NA,NA,NA,NA,NA,NA,NA
34e31,"""Richtig""-Screen",canvas.Screen,3_0_4_0_5_0_1,NA,NA,timeout,5244.1510000001,1589685.7,1589668.736,1589703.257,1594931.363,1594940.6,2023-11-24T15:06:03Z,1594947.408,NULL,Verzögerung,kuchelewa,d,NA,NA,NA,NA,sd,1,4,NA,NA,NA,NA,NA,NA,NA,NA,NA,NA,NA,NA,NA,NA,NA,NA,NA,NA,NA
34e31,"""Falsch""-Screen",canvas.Screen,3_0_4_0_5_0_2,NA,NA,skipped,NA,1594941.7,NA,NA,1594931.363,1594941.8,2023-11-24T15:06:03Z,1594947.408,NULL,Verzögerung,kuchelewa,d,NA,NA,NA,NA,sd,NA,4,NA,NA,NA,NA,NA,NA,NA,NA,NA,NA,NA,NA,NA,NA,NA,NA,NA,NA,NA
34e31,deep,flow.Sequence,3_0_4_0_5_0,NA,NA,completion,10775.035,1582540.3,1582535.3,1584156.328,1594931.363,1594941.9,2023-11-24T15:06:03Z,1594947.408,NULL,Verzögerung,kuchelewa,d,NA,NA,NA,NA,sd,NA,4,NA,NA,NA,NA,NA,NA,NA,NA,NA,NA,NA,NA,NA,NA,NA,NA,NA,NA,NA
34e31,shallow,flow.Sequence,3_0_4_0_5_1,NA,NA,skipped,NA,1594941.9,NA,NA,1594931.363,1594941.9,2023-11-24T15:06:03Z,1594947.408,NULL,Verzögerung,kuchelewa,d,NA,NA,NA,NA,sd,NA,4,NA,NA,NA,NA,NA,NA,NA,NA,NA,NA,NA,NA,NA,NA,NA,NA,NA,NA,NA
34e31,task,flow.Sequence,3_0_4_0_5,NA,NA,completion,10775.035,1582540.3,1582535.3,1584156.328,1594931.363,1594941.9,2023-11-24T15:06:03Z,1594947.408,NULL,Verzögerung,kuchelewa,d,NA,NA,NA,NA,sd,NA,4,NA,NA,NA,NA,NA,NA,NA,NA,NA,NA,NA,NA,NA,NA,NA,NA,NA,NA,NA
34e31,deep,flow.Sequence,3_0_4_0_6_0,NA,NA,skipped,NA,1594942,NA,NA,1594931.363,1594942,2023-11-24T15:06:03Z,1594947.408,NULL,Polizist,msongora,s,simanzi,mandhari,nidhamu,NA,sd,NA,4,NA,NA,NA,NA,NA,NA,NA,NA,NA,NA,NA,NA,NA,NA,NA,NA,NA,NA,NA
34e31,Shallow Question,html.Page,3_0_4_0_6_1_0,NA,NA,form submission,3315.4920000059,1594942,1594931.363,1594947.408,1598262.9,1598263.1,2023-11-24T15:06:06Z,1598278.046,NULL,Polizist,msongora,s,simanzi,mandhari,nidhamu,msongora,NA,NA,4,NA,NA,NA,NA,NA,NA,NA,NA,NA,NA,NA,NA,NA,NA,NA,NA,NA,NA,NA
34e31,"""Richtig""-Screen",canvas.Screen,3_0_4_0_6_1_1,NA,NA,timeout,5249.5179999999,1598263.4,1598261.437,1598278.046,1603535.6,1603535.9,2023-11-24T15:06:11Z,1603527.564,NULL,Polizist,msongora,s,simanzi,mandhari,nidhamu,NA,sd,1,4,NA,NA,NA,NA,NA,NA,NA,NA,NA,NA,NA,NA,NA,NA,NA,NA,NA,NA,NA
34e31,"""Falsch""-Screen",canvas.Screen,3_0_4_0_6_1_2,NA,NA,skipped,NA,1603537.5,NA,NA,1603535.6,1603537.6,2023-11-24T15:06:11Z,1603527.564,NULL,Polizist,msongora,s,simanzi,mandhari,nidhamu,NA,sd,NA,4,NA,NA,NA,NA,NA,NA,NA,NA,NA,NA,NA,NA,NA,NA,NA,NA,NA,NA,NA
34e31,shallow,flow.Sequence,3_0_4_0_6_1,NA,NA,completion,8588.191999994,1594942,1594931.363,1594947.408,1603535.6,1603537.6,2023-11-24T15:06:11Z,1603527.564,NULL,Polizist,msongora,s,simanzi,mandhari,nidhamu,NA,sd,NA,4,NA,NA,NA,NA,NA,NA,NA,NA,NA,NA,NA,NA,NA,NA,NA,NA,NA,NA,NA
34e31,task,flow.Sequence,3_0_4_0_6,NA,NA,completion,8588.191999994,1594942,1594931.363,1594947.408,1603535.6,1603537.6,2023-11-24T15:06:11Z,1603527.564,NULL,Polizist,msongora,s,simanzi,mandhari,nidhamu,NA,sd,NA,4,NA,NA,NA,NA,NA,NA,NA,NA,NA,NA,NA,NA,NA,NA,NA,NA,NA,NA,NA
34e31,deep,flow.Sequence,3_0_4_0_7_0,NA,NA,skipped,NA,1603537.6,NA,NA,1603535.6,1603537.7,2023-11-24T15:06:11Z,1603527.564,NULL,Beweis,ushahidi,s,marudio,kizuizi,mtendaji,NA,sd,NA,4,NA,NA,NA,NA,NA,NA,NA,NA,NA,NA,NA,NA,NA,NA,NA,NA,NA,NA,NA
34e31,Shallow Question,html.Page,3_0_4_0_7_1_0,NA,NA,form submission,20674.436,1603537.7,1603535.6,1603527.564,1624202,1624202.3,2023-11-24T15:06:32Z,1624206.548,NULL,Beweis,ushahidi,s,marudio,kizuizi,mtendaji,ushahidi,NA,NA,4,NA,NA,NA,NA,NA,NA,NA,NA,NA,NA,NA,NA,NA,NA,NA,NA,NA,NA,NA
34e31,"""Richtig""-Screen",canvas.Screen,3_0_4_0_7_1_1,NA,NA,timeout,5316.216,1624203.4,1624190.439,1624206.548,1629535.1,1629535.4,2023-11-24T15:06:37Z,1629522.764,NULL,Beweis,ushahidi,s,marudio,kizuizi,mtendaji,NA,sd,1,4,NA,NA,NA,NA,NA,NA,NA,NA,NA,NA,NA,NA,NA,NA,NA,NA,NA,NA,NA
34e31,"""Falsch""-Screen",canvas.Screen,3_0_4_0_7_1_2,NA,NA,skipped,NA,1629536.5,NA,NA,1629535.1,1629536.5,2023-11-24T15:06:37Z,1629522.764,NULL,Beweis,ushahidi,s,marudio,kizuizi,mtendaji,NA,sd,NA,4,NA,NA,NA,NA,NA,NA,NA,NA,NA,NA,NA,NA,NA,NA,NA,NA,NA,NA,NA
34e31,shallow,flow.Sequence,3_0_4_0_7_1,NA,NA,completion,26007.535999994,1603537.7,1603535.6,1603527.564,1629535.1,1629536.6,2023-11-24T15:06:37Z,1629522.764,NULL,Beweis,ushahidi,s,marudio,kizuizi,mtendaji,NA,sd,NA,4,NA,NA,NA,NA,NA,NA,NA,NA,NA,NA,NA,NA,NA,NA,NA,NA,NA,NA,NA
34e31,task,flow.Sequence,3_0_4_0_7,NA,NA,completion,26007.535999994,1603537.6,1603535.6,1603527.564,1629535.1,1629536.7,2023-11-24T15:06:37Z,1629522.764,NULL,Beweis,ushahidi,s,marudio,kizuizi,mtendaji,NA,sd,NA,4,NA,NA,NA,NA,NA,NA,NA,NA,NA,NA,NA,NA,NA,NA,NA,NA,NA,NA,NA
34e31,block,flow.Loop,3_0_4_0,NA,NA,completion,104096.84999999,1525433.1,1525422.264,1525438.25,1629535.1,1629536.7,2023-11-24T15:06:37Z,1629522.764,NULL,NA,NA,NA,NA,NA,NA,NA,sd,NA,4,NA,NA,NA,NA,NA,NA,NA,NA,NA,NA,NA,NA,NA,NA,NA,NA,NA,NA,NA
34e31,weiter,canvas.Screen,3_0_4_1,sdf,keypress(Space),response,661.63600000599,1629536.7,1629535.1,1629522.764,1630184.4,1630185,2023-11-24T15:06:38Z,1630451.402,NULL,NA,NA,NA,NA,NA,NA,NA,sd,NA,4,NA,NA,NA,NA,NA,NA,NA,NA,NA,NA,NA,NA,NA,NA,NA,NA,NA,NA,NA
34e31,check continue,flow.Sequence,3_0_4,NA,NA,completion,104746.15000001,1525433.1,1525422.264,1525438.25,1630184.4,1630185.1,2023-11-24T15:06:38Z,1630451.402,NULL,NA,NA,NA,NA,NA,NA,NA,sd,NA,4,NA,NA,NA,NA,NA,NA,NA,NA,NA,NA,NA,NA,NA,NA,NA,NA,NA,NA,NA
34e31,check continue,flow.Sequence,3_0_5,NA,NA,skipped,NA,1630206.7,NA,NA,1630184.4,1630206.8,2023-11-24T15:06:38Z,1630451.402,NULL,NA,NA,NA,NA,NA,NA,NA,sdf,NA,5,NA,NA,NA,NA,NA,NA,NA,NA,NA,NA,NA,NA,NA,NA,NA,NA,NA,NA,NA
34e31,check continue,flow.Sequence,3_0_6,NA,NA,skipped,NA,1630226.1,NA,NA,1630184.4,1630226.2,2023-11-24T15:06:38Z,1630451.402,NULL,NA,NA,NA,NA,NA,NA,NA,dfs,NA,6,NA,NA,NA,NA,NA,NA,NA,NA,NA,NA,NA,NA,NA,NA,NA,NA,NA,NA,NA
34e31,check continue,flow.Sequence,3_0_7,NA,NA,skipped,NA,1630243.6,NA,NA,1630184.4,1630243.7,2023-11-24T15:06:38Z,1630451.402,NULL,NA,NA,NA,NA,NA,NA,NA,df,NA,7,NA,NA,NA,NA,NA,NA,NA,NA,NA,NA,NA,NA,NA,NA,NA,NA,NA,NA,NA
34e31,check continue,flow.Sequence,3_0_8,NA,NA,skipped,NA,1630254.8,NA,NA,1630184.4,1630254.8,2023-11-24T15:06:38Z,1630451.402,NULL,NA,NA,NA,NA,NA,NA,NA,dfs,NA,8,NA,NA,NA,NA,NA,NA,NA,NA,NA,NA,NA,NA,NA,NA,NA,NA,NA,NA,NA
34e31,check continue,flow.Sequence,3_0_9,NA,NA,skipped,NA,1630265.3,NA,NA,1630184.4,1630265.4,2023-11-24T15:06:38Z,1630451.402,NULL,NA,NA,NA,NA,NA,NA,NA,dsf,NA,9,NA,NA,NA,NA,NA,NA,NA,NA,NA,NA,NA,NA,NA,NA,NA,NA,NA,NA,NA
34e31,check continue,flow.Sequence,3_0_10,NA,NA,skipped,NA,1630275.4,NA,NA,1630184.4,1630275.5,2023-11-24T15:06:38Z,1630451.402,NULL,NA,NA,NA,NA,NA,NA,NA,df,NA,10,NA,NA,NA,NA,NA,NA,NA,NA,NA,NA,NA,NA,NA,NA,NA,NA,NA,NA,NA
34e31,check continue,flow.Sequence,3_0_11,NA,NA,skipped,NA,1630285.6,NA,NA,1630184.4,1630285.6,2023-11-24T15:06:38Z,1630451.402,NULL,NA,NA,NA,NA,NA,NA,NA,dfs,NA,11,NA,NA,NA,NA,NA,NA,NA,NA,NA,NA,NA,NA,NA,NA,NA,NA,NA,NA,NA
34e31,check continue,flow.Sequence,3_0_12,NA,NA,skipped,NA,1630295.8,NA,NA,1630184.4,1630295.9,2023-11-24T15:06:38Z,1630451.402,NULL,NA,NA,NA,NA,NA,NA,NA,dsf,NA,12,NA,NA,NA,NA,NA,NA,NA,NA,NA,NA,NA,NA,NA,NA,NA,NA,NA,NA,NA
34e31,check continue,flow.Sequence,3_0_13,NA,NA,skipped,NA,1630306.6,NA,NA,1630184.4,1630306.7,2023-11-24T15:06:38Z,1630451.402,NULL,NA,NA,NA,NA,NA,NA,NA,dsf,NA,13,NA,NA,NA,NA,NA,NA,NA,NA,NA,NA,NA,NA,NA,NA,NA,NA,NA,NA,NA
34e31,check continue,flow.Sequence,3_0_14,NA,NA,skipped,NA,1630316.6,NA,NA,1630184.4,1630316.7,2023-11-24T15:06:38Z,1630451.402,NULL,NA,NA,NA,NA,NA,NA,NA,NA,NA,14,NA,NA,NA,NA,NA,NA,NA,NA,NA,NA,NA,NA,NA,NA,NA,NA,NA,NA,NA
34e31,check continue,flow.Sequence,3_0_15,NA,NA,skipped,NA,1630326.8,NA,NA,1630184.4,1630327,2023-11-24T15:06:38Z,1630451.402,NULL,NA,NA,NA,NA,NA,NA,NA,NA,NA,15,NA,NA,NA,NA,NA,NA,NA,NA,NA,NA,NA,NA,NA,NA,NA,NA,NA,NA,NA
34e31,check continue,flow.Sequence,3_0_16,NA,NA,skipped,NA,1630336.8,NA,NA,1630184.4,1630336.9,2023-11-24T15:06:38Z,1630451.402,NULL,NA,NA,NA,NA,NA,NA,NA,NA,NA,16,NA,NA,NA,NA,NA,NA,NA,NA,NA,NA,NA,NA,NA,NA,NA,NA,NA,NA,NA
34e31,check continue,flow.Sequence,3_0_17,NA,NA,skipped,NA,1630346.5,NA,NA,1630184.4,1630346.5,2023-11-24T15:06:38Z,1630451.402,NULL,NA,NA,NA,NA,NA,NA,NA,NA,NA,17,NA,NA,NA,NA,NA,NA,NA,NA,NA,NA,NA,NA,NA,NA,NA,NA,NA,NA,NA
34e31,check continue,flow.Sequence,3_0_18,NA,NA,skipped,NA,1630356,NA,NA,1630184.4,1630356.1,2023-11-24T15:06:38Z,1630451.402,NULL,NA,NA,NA,NA,NA,NA,NA,NA,NA,18,NA,NA,NA,NA,NA,NA,NA,NA,NA,NA,NA,NA,NA,NA,NA,NA,NA,NA,NA
34e31,check continue,flow.Sequence,3_0_19,NA,NA,skipped,NA,1630364.7,NA,NA,1630184.4,1630364.7,2023-11-24T15:06:38Z,1630451.402,NULL,NA,NA,NA,NA,NA,NA,NA,NA,NA,19,NA,NA,NA,NA,NA,NA,NA,NA,NA,NA,NA,NA,NA,NA,NA,NA,NA,NA,NA
34e31,check continue,flow.Sequence,3_0_20,NA,NA,skipped,NA,1630374.5,NA,NA,1630184.4,1630374.5,2023-11-24T15:06:38Z,1630451.402,NULL,NA,NA,NA,NA,NA,NA,NA,NA,NA,20,NA,NA,NA,NA,NA,NA,NA,NA,NA,NA,NA,NA,NA,NA,NA,NA,NA,NA,NA
34e31,check continue,flow.Sequence,3_0_21,NA,NA,skipped,NA,1630384.3,NA,NA,1630184.4,1630384.4,2023-11-24T15:06:38Z,1630451.402,NULL,NA,NA,NA,NA,NA,NA,NA,NA,NA,21,NA,NA,NA,NA,NA,NA,NA,NA,NA,NA,NA,NA,NA,NA,NA,NA,NA,NA,NA
34e31,check continue,flow.Sequence,3_0_22,NA,NA,skipped,NA,1630393.7,NA,NA,1630184.4,1630393.8,2023-11-24T15:06:38Z,1630451.402,NULL,NA,NA,NA,NA,NA,NA,NA,NA,NA,22,NA,NA,NA,NA,NA,NA,NA,NA,NA,NA,NA,NA,NA,NA,NA,NA,NA,NA,NA
34e31,check continue,flow.Sequence,3_0_23,NA,NA,skipped,NA,1630403.6,NA,NA,1630184.4,1630403.7,2023-11-24T15:06:38Z,1630451.402,NULL,NA,NA,NA,NA,NA,NA,NA,NA,NA,23,NA,NA,NA,NA,NA,NA,NA,NA,NA,NA,NA,NA,NA,NA,NA,NA,NA,NA,NA
34e31,check continue,flow.Sequence,3_0_24,NA,NA,skipped,NA,1630412.5,NA,NA,1630184.4,1630412.6,2023-11-24T15:06:38Z,1630451.402,NULL,NA,NA,NA,NA,NA,NA,NA,NA,NA,24,NA,NA,NA,NA,NA,NA,NA,NA,NA,NA,NA,NA,NA,NA,NA,NA,NA,NA,NA
34e31,check continue,flow.Sequence,3_0_25,NA,NA,skipped,NA,1630422.5,NA,NA,1630184.4,1630422.6,2023-11-24T15:06:38Z,1630451.402,NULL,NA,NA,NA,NA,NA,NA,NA,NA,NA,25,NA,NA,NA,NA,NA,NA,NA,NA,NA,NA,NA,NA,NA,NA,NA,NA,NA,NA,NA
34e31,check continue,flow.Sequence,3_0_26,NA,NA,skipped,NA,1630431,NA,NA,1630184.4,1630431,2023-11-24T15:06:38Z,1630451.402,NULL,NA,NA,NA,NA,NA,NA,NA,NA,NA,26,NA,NA,NA,NA,NA,NA,NA,NA,NA,NA,NA,NA,NA,NA,NA,NA,NA,NA,NA
34e31,check continue,flow.Sequence,3_0_27,NA,NA,skipped,NA,1630440.9,NA,NA,1630184.4,1630441,2023-11-24T15:06:38Z,1630451.402,NULL,NA,NA,NA,NA,NA,NA,NA,NA,NA,27,NA,NA,NA,NA,NA,NA,NA,NA,NA,NA,NA,NA,NA,NA,NA,NA,NA,NA,NA
34e31,check continue,flow.Sequence,3_0_28,NA,NA,skipped,NA,1630449.5,NA,NA,1630184.4,1630449.6,2023-11-24T15:06:38Z,1630451.402,NULL,NA,NA,NA,NA,NA,NA,NA,NA,NA,28,NA,NA,NA,NA,NA,NA,NA,NA,NA,NA,NA,NA,NA,NA,NA,NA,NA,NA,NA
34e31,check continue,flow.Sequence,3_0_29,NA,NA,skipped,NA,1630459.4,NA,NA,1630184.4,1630459.5,2023-11-24T15:06:38Z,1630451.402,NULL,NA,NA,NA,NA,NA,NA,NA,NA,NA,29,NA,NA,NA,NA,NA,NA,NA,NA,NA,NA,NA,NA,NA,NA,NA,NA,NA,NA,NA
34e31,until continue,flow.Loop,3_0,NA,NA,completion,469095.03100001,1161058.8,1161064.526,1161089.369,1630184.4,1630459.6,2023-11-24T15:06:38Z,1630451.402,NULL,NA,NA,NA,NA,NA,NA,NA,NA,NA,NA,NA,NA,NA,NA,NA,NA,NA,NA,NA,NA,NA,NA,NA,NA,NA,NA,NA,NA,NA
34e31,block 1,flow.Sequence,3,NA,NA,completion,469095.03100001,1161058.8,1161064.526,1161089.369,1630184.4,1630459.6,2023-11-24T15:06:38Z,1630451.402,NULL,NA,NA,NA,NA,NA,NA,NA,NA,NA,NA,NA,NA,NA,NA,NA,NA,NA,NA,NA,NA,NA,NA,NA,NA,NA,NA,NA,NA,NA
34e31,1.Part Over,canvas.Screen,4,NA,keypress(Space),response,1614.998000006,1630459.6,1630168.81,1630451.402,1632066.4,1632066.7,2023-11-24T15:06:40Z,1632100.057,NULL,NA,NA,NA,NA,NA,NA,NA,NA,NA,NA,NA,NA,NA,NA,NA,NA,NA,NA,NA,NA,NA,NA,NA,NA,NA,NA,NA,NA,NA
34e31,deep,flow.Sequence,5_0_0_0_0_0,NA,NA,skipped,NA,1632097.2,NA,NA,1632066.4,1632097.3,2023-11-24T15:06:40Z,1632100.057,NULL,Auftrag,uagizaji,s,ghanima,kuzingatia,msukani,NA,sdf,NA,0,NA,NA,NA,NA,NA,NA,NA,NA,NA,NA,NA,NA,NA,NA,NA,NA,NA,NA,NA
34e31,Shallow Question,html.Page,5_0_0_0_0_1_0,NA,NA,form submission,4706.2430000119,1632097.3,1632084.633,1632100.057,1636806.3,1636806.5,2023-11-24T15:06:45Z,1636812.812,NULL,Auftrag,uagizaji,s,ghanima,kuzingatia,msukani,msukani,NA,NA,0,NA,NA,NA,NA,NA,NA,NA,NA,NA,NA,NA,NA,NA,NA,NA,NA,NA,NA,NA
34e31,"""Richtig""-Screen",canvas.Screen,5_0_0_0_0_1_1,NA,NA,skipped,NA,1636807.6,NA,NA,1636806.3,1636807.7,2023-11-24T15:06:45Z,1636812.812,NULL,Auftrag,uagizaji,s,ghanima,kuzingatia,msukani,NA,sdf,NA,0,NA,NA,NA,NA,NA,NA,NA,NA,NA,NA,NA,NA,NA,NA,NA,NA,NA,NA,NA
34e31,"""Falsch""-Screen",canvas.Screen,5_0_0_0_0_1_2,NA,NA,timeout,9692.0660000001,1636808,1636796.285,1636812.812,1642536.1,1642538.3,2023-11-24T15:06:50Z,1646504.878,NULL,Auftrag,uagizaji,s,ghanima,kuzingatia,msukani,NA,sdf,0,0,NA,NA,NA,NA,NA,NA,NA,NA,NA,NA,NA,NA,NA,NA,NA,NA,NA,NA,NA
34e31,shallow,flow.Sequence,5_0_0_0_0_1,NA,NA,completion,10436.042999994,1632097.3,1632084.633,1632100.057,1642536.1,1642538.4,2023-11-24T15:06:50Z,1646504.878,NULL,Auftrag,uagizaji,s,ghanima,kuzingatia,msukani,NA,sdf,NA,0,NA,NA,NA,NA,NA,NA,NA,NA,NA,NA,NA,NA,NA,NA,NA,NA,NA,NA,NA
34e31,task,flow.Sequence,5_0_0_0_0,NA,NA,completion,10436.042999994,1632097.2,1632084.633,1632100.057,1642536.1,1642538.5,2023-11-24T15:06:50Z,1646504.878,NULL,Auftrag,uagizaji,s,ghanima,kuzingatia,msukani,NA,sdf,NA,0,NA,NA,NA,NA,NA,NA,NA,NA,NA,NA,NA,NA,NA,NA,NA,NA,NA,NA,NA
34e31,deep,flow.Sequence,5_0_0_0_1_0,NA,NA,skipped,NA,1642538.5,NA,NA,1642536.1,1642538.5,2023-11-24T15:06:50Z,1646504.878,NULL,Sänger,mwimbaji,s,msichana,shughuli,mshirika,NA,sdf,NA,0,NA,NA,NA,NA,NA,NA,NA,NA,NA,NA,NA,NA,NA,NA,NA,NA,NA,NA,NA
34e31,Shallow Question,html.Page,5_0_0_0_1_1_0,NA,NA,form submission,5552.721999994,1642538.5,1642536.1,1646504.878,1652057.6,1652057.8,2023-11-24T15:07:00Z,1652066.851,NULL,Sänger,mwimbaji,s,msichana,shughuli,mshirika,msichana,NA,NA,0,NA,NA,NA,NA,NA,NA,NA,NA,NA,NA,NA,NA,NA,NA,NA,NA,NA,NA,NA
34e31,"""Richtig""-Screen",canvas.Screen,5_0_0_0_1_1_1,NA,NA,skipped,NA,1652059,NA,NA,1652057.6,1652059.1,2023-11-24T15:07:00Z,1652066.851,NULL,Sänger,mwimbaji,s,msichana,shughuli,mshirika,NA,sdf,NA,0,NA,NA,NA,NA,NA,NA,NA,NA,NA,NA,NA,NA,NA,NA,NA,NA,NA,NA,NA
34e31,"""Falsch""-Screen",canvas.Screen,5_0_0_0_1_1_2,NA,NA,timeout,7743.6839999999,1652059.4,1652050.334,1652066.851,1657535.2,1657537.4,2023-11-24T15:07:05Z,1659810.535,NULL,Sänger,mwimbaji,s,msichana,shughuli,mshirika,NA,sdf,0,0,NA,NA,NA,NA,NA,NA,NA,NA,NA,NA,NA,NA,NA,NA,NA,NA,NA,NA,NA
34e31,shallow,flow.Sequence,5_0_0_0_1_1,NA,NA,completion,11030.321999988,1642538.5,1642536.1,1646504.878,1657535.2,1657537.6,2023-11-24T15:07:05Z,1659810.535,NULL,Sänger,mwimbaji,s,msichana,shughuli,mshirika,NA,sdf,NA,0,NA,NA,NA,NA,NA,NA,NA,NA,NA,NA,NA,NA,NA,NA,NA,NA,NA,NA,NA
34e31,task,flow.Sequence,5_0_0_0_1,NA,NA,completion,11030.321999988,1642538.5,1642536.1,1646504.878,1657535.2,1657537.6,2023-11-24T15:07:05Z,1659810.535,NULL,Sänger,mwimbaji,s,msichana,shughuli,mshirika,NA,sdf,NA,0,NA,NA,NA,NA,NA,NA,NA,NA,NA,NA,NA,NA,NA,NA,NA,NA,NA,NA,NA
34e31,deep,flow.Sequence,5_0_0_0_2_0,NA,NA,skipped,NA,1657537.6,NA,NA,1657535.2,1657537.7,2023-11-24T15:07:05Z,1659810.535,NULL,Angreifer,mshambulizi,s,kitengo,tasinia,usafirishaji,NA,sdf,NA,0,NA,NA,NA,NA,NA,NA,NA,NA,NA,NA,NA,NA,NA,NA,NA,NA,NA,NA,NA
34e31,Shallow Question,html.Page,5_0_0_0_2_1_0,NA,NA,form submission,4932.365000006,1657537.8,1657535.2,1659810.535,1664742.9,1664743.1,2023-11-24T15:07:13Z,1664756.408,NULL,Angreifer,mshambulizi,s,kitengo,tasinia,usafirishaji,tasinia,NA,NA,0,NA,NA,NA,NA,NA,NA,NA,NA,NA,NA,NA,NA,NA,NA,NA,NA,NA,NA,NA
34e31,"""Richtig""-Screen",canvas.Screen,5_0_0_0_2_1_1,NA,NA,skipped,NA,1664744.3,NA,NA,1664742.9,1664744.4,2023-11-24T15:07:13Z,1664756.408,NULL,Angreifer,mshambulizi,s,kitengo,tasinia,usafirishaji,NA,sdf,NA,0,NA,NA,NA,NA,NA,NA,NA,NA,NA,NA,NA,NA,NA,NA,NA,NA,NA,NA,NA
34e31,"""Falsch""-Screen",canvas.Screen,5_0_0_0_2_1_2,NA,NA,timeout,9775.294,1664744.8,1664739.82,1664756.408,1670535.3,1670537.5,2023-11-24T15:07:18Z,1674531.702,NULL,Angreifer,mshambulizi,s,kitengo,tasinia,usafirishaji,NA,sdf,0,0,NA,NA,NA,NA,NA,NA,NA,NA,NA,NA,NA,NA,NA,NA,NA,NA,NA,NA,NA
34e31,shallow,flow.Sequence,5_0_0_0_2_1,NA,NA,completion,10724.765000012,1657537.7,1657535.2,1659810.535,1670535.3,1670537.6,2023-11-24T15:07:18Z,1674531.702,NULL,Angreifer,mshambulizi,s,kitengo,tasinia,usafirishaji,NA,sdf,NA,0,NA,NA,NA,NA,NA,NA,NA,NA,NA,NA,NA,NA,NA,NA,NA,NA,NA,NA,NA
34e31,task,flow.Sequence,5_0_0_0_2,NA,NA,completion,10724.765000012,1657537.6,1657535.2,1659810.535,1670535.3,1670537.7,2023-11-24T15:07:18Z,1674531.702,NULL,Angreifer,mshambulizi,s,kitengo,tasinia,usafirishaji,NA,sdf,NA,0,NA,NA,NA,NA,NA,NA,NA,NA,NA,NA,NA,NA,NA,NA,NA,NA,NA,NA,NA
34e31,Deep Question,html.Page,5_0_0_0_3_0_0,NA,NA,form submission,1533.1980000059,1670537.7,1670535.3,1674531.702,1676064.9,1676065.1,2023-11-24T15:07:24Z,1676080.384,NULL,Schönheit,kirembo,d,NA,NA,NA,a,NA,NA,0,NA,NA,NA,NA,NA,NA,NA,NA,NA,NA,NA,NA,NA,NA,NA,NA,NA,NA,NA
34e31,"""Richtig""-Screen",canvas.Screen,5_0_0_0_3_0_1,NA,NA,skipped,NA,1676066.2,NA,NA,1676064.9,1676066.2,2023-11-24T15:07:24Z,1676080.384,NULL,Schönheit,kirembo,d,NA,NA,NA,NA,sdf,NA,0,NA,NA,NA,NA,NA,NA,NA,NA,NA,NA,NA,NA,NA,NA,NA,NA,NA,NA,NA
34e31,"""Falsch""-Screen",canvas.Screen,5_0_0_0_3_0_2,NA,NA,timeout,7660.3659999999,1676066.7,1676063.842,1676080.384,1681535.1,1681538.3,2023-11-24T15:07:29Z,1683740.75,NULL,Schönheit,kirembo,d,NA,NA,NA,NA,sdf,0,0,NA,NA,NA,NA,NA,NA,NA,NA,NA,NA,NA,NA,NA,NA,NA,NA,NA,NA,NA
34e31,deep,flow.Sequence,5_0_0_0_3_0,NA,NA,completion,7003.397999994,1670537.7,1670535.3,1674531.702,1681535.1,1681538.5,2023-11-24T15:07:29Z,1683740.75,NULL,Schönheit,kirembo,d,NA,NA,NA,NA,sdf,NA,0,NA,NA,NA,NA,NA,NA,NA,NA,NA,NA,NA,NA,NA,NA,NA,NA,NA,NA,NA
34e31,shallow,flow.Sequence,5_0_0_0_3_1,NA,NA,skipped,NA,1681538.5,NA,NA,1681535.1,1681538.6,2023-11-24T15:07:29Z,1683740.75,NULL,Schönheit,kirembo,d,NA,NA,NA,NA,sdf,NA,0,NA,NA,NA,NA,NA,NA,NA,NA,NA,NA,NA,NA,NA,NA,NA,NA,NA,NA,NA
34e31,task,flow.Sequence,5_0_0_0_3,NA,NA,completion,7003.397999994,1670537.7,1670535.3,1674531.702,1681535.1,1681538.6,2023-11-24T15:07:29Z,1683740.75,NULL,Schönheit,kirembo,d,NA,NA,NA,NA,sdf,NA,0,NA,NA,NA,NA,NA,NA,NA,NA,NA,NA,NA,NA,NA,NA,NA,NA,NA,NA,NA
34e31,Deep Question,html.Page,5_0_0_0_4_0_0,NA,NA,form submission,2602.849999994,1681538.6,1681535.1,1683740.75,1686343.6,1686343.7,2023-11-24T15:07:34Z,1686355.252,NULL,Kanzler,diwani,d,NA,NA,NA,qe,NA,NA,0,NA,NA,NA,NA,NA,NA,NA,NA,NA,NA,NA,NA,NA,NA,NA,NA,NA,NA,NA
34e31,"""Richtig""-Screen",canvas.Screen,5_0_0_0_4_0_1,NA,NA,skipped,NA,1686344.8,NA,NA,1686343.6,1686344.9,2023-11-24T15:07:34Z,1686355.252,NULL,Kanzler,diwani,d,NA,NA,NA,NA,sdf,NA,0,NA,NA,NA,NA,NA,NA,NA,NA,NA,NA,NA,NA,NA,NA,NA,NA,NA,NA,NA
34e31,"""Falsch""-Screen",canvas.Screen,5_0_0_0_4_0_2,NA,NA,timeout,7144.1029999999,1686345.3,1686338.708,1686355.252,1691535.6,1691538.6,2023-11-24T15:07:39Z,1693499.355,NULL,Kanzler,diwani,d,NA,NA,NA,NA,sdf,0,0,NA,NA,NA,NA,NA,NA,NA,NA,NA,NA,NA,NA,NA,NA,NA,NA,NA,NA,NA
34e31,deep,flow.Sequence,5_0_0_0_4_0,NA,NA,completion,7794.849999994,1681538.6,1681535.1,1683740.75,1691535.6,1691538.8,2023-11-24T15:07:39Z,1693499.355,NULL,Kanzler,diwani,d,NA,NA,NA,NA,sdf,NA,0,NA,NA,NA,NA,NA,NA,NA,NA,NA,NA,NA,NA,NA,NA,NA,NA,NA,NA,NA
34e31,shallow,flow.Sequence,5_0_0_0_4_1,NA,NA,skipped,NA,1691538.8,NA,NA,1691535.6,1691538.8,2023-11-24T15:07:39Z,1693499.355,NULL,Kanzler,diwani,d,NA,NA,NA,NA,sdf,NA,0,NA,NA,NA,NA,NA,NA,NA,NA,NA,NA,NA,NA,NA,NA,NA,NA,NA,NA,NA
34e31,task,flow.Sequence,5_0_0_0_4,NA,NA,completion,7794.849999994,1681538.6,1681535.1,1683740.75,1691535.6,1691538.9,2023-11-24T15:07:39Z,1693499.355,NULL,Kanzler,diwani,d,NA,NA,NA,NA,sdf,NA,0,NA,NA,NA,NA,NA,NA,NA,NA,NA,NA,NA,NA,NA,NA,NA,NA,NA,NA,NA
34e31,deep,flow.Sequence,5_0_0_0_5_0,NA,NA,skipped,NA,1691538.9,NA,NA,1691535.6,1691538.9,2023-11-24T15:07:39Z,1693499.355,NULL,Wettbewerb,ushindani,s,mapendezi,kichocheo,ubaguzi,NA,sdf,NA,0,NA,NA,NA,NA,NA,NA,NA,NA,NA,NA,NA,NA,NA,NA,NA,NA,NA,NA,NA
34e31,Shallow Question,html.Page,5_0_0_0_5_1_0,NA,NA,form submission,4236.4450000119,1691538.9,1691535.6,1693499.355,1697735.8,1697736.1,2023-11-24T15:07:46Z,1697745.8,NULL,Wettbewerb,ushindani,s,mapendezi,kichocheo,ubaguzi,kichocheo,NA,NA,0,NA,NA,NA,NA,NA,NA,NA,NA,NA,NA,NA,NA,NA,NA,NA,NA,NA,NA,NA
34e31,"""Richtig""-Screen",canvas.Screen,5_0_0_0_5_1_1,NA,NA,skipped,NA,1697737.3,NA,NA,1697735.8,1697737.4,2023-11-24T15:07:46Z,1697745.8,NULL,Wettbewerb,ushindani,s,mapendezi,kichocheo,ubaguzi,NA,sdf,NA,0,NA,NA,NA,NA,NA,NA,NA,NA,NA,NA,NA,NA,NA,NA,NA,NA,NA,NA,NA
34e31,"""Falsch""-Screen",canvas.Screen,5_0_0_0_5_1_2,NA,NA,timeout,10341.51,1697737.8,1697729.207,1697745.8,1708070.658,1708083.7,2023-11-24T15:07:56Z,1708087.31,NULL,Wettbewerb,ushindani,s,mapendezi,kichocheo,ubaguzi,NA,sdf,0,0,NA,NA,NA,NA,NA,NA,NA,NA,NA,NA,NA,NA,NA,NA,NA,NA,NA,NA,NA
34e31,shallow,flow.Sequence,5_0_0_0_5_1,NA,NA,completion,14571.303,1691538.9,1691535.6,1693499.355,1708070.658,1708083.8,2023-11-24T15:07:56Z,1708087.31,NULL,Wettbewerb,ushindani,s,mapendezi,kichocheo,ubaguzi,NA,sdf,NA,0,NA,NA,NA,NA,NA,NA,NA,NA,NA,NA,NA,NA,NA,NA,NA,NA,NA,NA,NA
34e31,task,flow.Sequence,5_0_0_0_5,NA,NA,completion,14571.303,1691538.9,1691535.6,1693499.355,1708070.658,1708083.8,2023-11-24T15:07:56Z,1708087.31,NULL,Wettbewerb,ushindani,s,mapendezi,kichocheo,ubaguzi,NA,sdf,NA,0,NA,NA,NA,NA,NA,NA,NA,NA,NA,NA,NA,NA,NA,NA,NA,NA,NA,NA,NA
34e31,Deep Question,html.Page,5_0_0_0_6_0_0,NA,NA,form submission,1510.389999988,1708083.9,1708070.658,1708087.31,1709597.7,1709597.9,2023-11-24T15:07:58Z,1709602.712,NULL,Zufall,kikuti,d,NA,NA,NA,a,NA,NA,0,NA,NA,NA,NA,NA,NA,NA,NA,NA,NA,NA,NA,NA,NA,NA,NA,NA,NA,NA
34e31,"""Richtig""-Screen",canvas.Screen,5_0_0_0_6_0_1,NA,NA,skipped,NA,1709599.1,NA,NA,1709597.7,1709599.1,2023-11-24T15:07:58Z,1709602.712,NULL,Zufall,kikuti,d,NA,NA,NA,NA,sdf,NA,0,NA,NA,NA,NA,NA,NA,NA,NA,NA,NA,NA,NA,NA,NA,NA,NA,NA,NA,NA
34e31,"""Falsch""-Screen",canvas.Screen,5_0_0_0_6_0_2,NA,NA,timeout,6078.2379999999,1709599.4,1709586.095,1709602.712,1715664.338,1715673.8,2023-11-24T15:08:04Z,1715680.95,NULL,Zufall,kikuti,d,NA,NA,NA,NA,sdf,0,0,NA,NA,NA,NA,NA,NA,NA,NA,NA,NA,NA,NA,NA,NA,NA,NA,NA,NA,NA
34e31,deep,flow.Sequence,5_0_0_0_6_0,NA,NA,completion,7577.0279999999,1708083.9,1708070.658,1708087.31,1715664.338,1715673.9,2023-11-24T15:08:04Z,1715680.95,NULL,Zufall,kikuti,d,NA,NA,NA,NA,sdf,NA,0,NA,NA,NA,NA,NA,NA,NA,NA,NA,NA,NA,NA,NA,NA,NA,NA,NA,NA,NA
34e31,shallow,flow.Sequence,5_0_0_0_6_1,NA,NA,skipped,NA,1715674,NA,NA,1715664.338,1715674,2023-11-24T15:08:04Z,1715680.95,NULL,Zufall,kikuti,d,NA,NA,NA,NA,sdf,NA,0,NA,NA,NA,NA,NA,NA,NA,NA,NA,NA,NA,NA,NA,NA,NA,NA,NA,NA,NA
34e31,task,flow.Sequence,5_0_0_0_6,NA,NA,completion,7577.0279999999,1708083.9,1708070.658,1708087.31,1715664.338,1715674,2023-11-24T15:08:04Z,1715680.95,NULL,Zufall,kikuti,d,NA,NA,NA,NA,sdf,NA,0,NA,NA,NA,NA,NA,NA,NA,NA,NA,NA,NA,NA,NA,NA,NA,NA,NA,NA,NA
34e31,Deep Question,html.Page,5_0_0_0_7_0_0,NA,NA,form submission,1759.950000006,1715674.1,1715664.338,1715680.95,1717440.9,1717441,2023-11-24T15:08:05Z,1717446.172,NULL,Abrechnung,uhasibu,d,NA,NA,NA,t,NA,NA,0,NA,NA,NA,NA,NA,NA,NA,NA,NA,NA,NA,NA,NA,NA,NA,NA,NA,NA,NA
34e31,"""Richtig""-Screen",canvas.Screen,5_0_0_0_7_0_1,NA,NA,skipped,NA,1717442.1,NA,NA,1717440.9,1717442.2,2023-11-24T15:08:05Z,1717446.172,NULL,Abrechnung,uhasibu,d,NA,NA,NA,NA,sdf,NA,0,NA,NA,NA,NA,NA,NA,NA,NA,NA,NA,NA,NA,NA,NA,NA,NA,NA,NA,NA
34e31,"""Falsch""-Screen",canvas.Screen,5_0_0_0_7_0_2,NA,NA,timeout,10241.579,1717442.5,1717429.65,1717446.172,1722536.1,1722539.1,2023-11-24T15:08:10Z,1727687.751,NULL,Abrechnung,uhasibu,d,NA,NA,NA,NA,sdf,0,0,NA,NA,NA,NA,NA,NA,NA,NA,NA,NA,NA,NA,NA,NA,NA,NA,NA,NA,NA
34e31,deep,flow.Sequence,5_0_0_0_7_0,NA,NA,completion,6855.1499999941,1715674,1715664.338,1715680.95,1722536.1,1722539.2,2023-11-24T15:08:10Z,1727687.751,NULL,Abrechnung,uhasibu,d,NA,NA,NA,NA,sdf,NA,0,NA,NA,NA,NA,NA,NA,NA,NA,NA,NA,NA,NA,NA,NA,NA,NA,NA,NA,NA
34e31,shallow,flow.Sequence,5_0_0_0_7_1,NA,NA,skipped,NA,1722539.2,NA,NA,1722536.1,1722539.2,2023-11-24T15:08:10Z,1727687.751,NULL,Abrechnung,uhasibu,d,NA,NA,NA,NA,sdf,NA,0,NA,NA,NA,NA,NA,NA,NA,NA,NA,NA,NA,NA,NA,NA,NA,NA,NA,NA,NA
34e31,task,flow.Sequence,5_0_0_0_7,NA,NA,completion,6855.1499999941,1715674,1715664.338,1715680.95,1722536.1,1722539.2,2023-11-24T15:08:10Z,1727687.751,NULL,Abrechnung,uhasibu,d,NA,NA,NA,NA,sdf,NA,0,NA,NA,NA,NA,NA,NA,NA,NA,NA,NA,NA,NA,NA,NA,NA,NA,NA,NA,NA
34e31,block,flow.Loop,5_0_0_0,NA,NA,completion,90436.042999994,1632097.2,1632084.633,1632100.057,1722536.1,1722539.3,2023-11-24T15:08:10Z,1727687.751,NULL,NA,NA,NA,NA,NA,NA,NA,sdf,NA,0,NA,NA,NA,NA,NA,NA,NA,NA,NA,NA,NA,NA,NA,NA,NA,NA,NA,NA,NA
34e31,weiter,canvas.Screen,5_0_0_1,sdf,keypress(Space),response,675.64900000603,1722539.3,1722536.1,1727687.751,1728363.4,1728364.6,2023-11-24T15:08:16Z,1728387.129,NULL,NA,NA,NA,NA,NA,NA,NA,sdf,NA,0,NA,NA,NA,NA,NA,NA,NA,NA,NA,NA,NA,NA,NA,NA,NA,NA,NA,NA,NA
34e31,check continue,flow.Sequence,5_0_0,NA,NA,completion,96263.343000006,1632097.2,1632084.633,1632100.057,1728363.4,1728364.7,2023-11-24T15:08:16Z,1728387.129,NULL,NA,NA,NA,NA,NA,NA,NA,sdf,NA,0,NA,NA,NA,NA,NA,NA,NA,NA,NA,NA,NA,NA,NA,NA,NA,NA,NA,NA,NA
34e31,Deep Question,html.Page,5_0_1_0_0_0_0,NA,NA,form submission,7264.171000012,1728378.2,1728370.549,1728387.129,1735651.3,1735651.7,2023-11-24T15:08:24Z,1735664.522,NULL,Schönheit,kirembo,d,NA,NA,NA,kirembo,NA,NA,1,NA,NA,NA,NA,NA,NA,NA,NA,NA,NA,NA,NA,NA,NA,NA,NA,NA,NA,NA
