observation,sender,sender_type,sender_id,response,response_action,ended_on,duration,time_run,time_render,time_show,time_end,time_commit,timestamp,time_switch,distractors,german,swahili,enc,distractor1,distractor2,distractor3,response_2,x,correct,x_2,url_vp,url_sess,meta_labjs_version,meta_location,meta_user_agent,meta_platform,meta_language,meta_locale,meta_time_zone,meta_timezone_offset,meta_screen_width,meta_screen_height,meta_scroll_width,meta_scroll_height,meta_window_inner_width,meta_window_inner_height,meta_device_pixel_ratio,meta_labjs_build_flavor,meta_labjs_build_commit
57825,Introduction general,canvas.Screen,0,weiter,keypress(q),response,220268.8,788,783.946,800.7,221069.5,221074.80000019,2024-03-16T10:50:54Z,221083.8,NULL,NA,NA,NA,NA,NA,NA,NA,NA,NA,NA,153,"3",20.2.4,https://neurocog.fernuni.ch/studies/vweber/jbaenninger/encoding_immediate/index.html?vp=153&sess=3%0d,"Mozilla/5.0 (Windows NT 10.0; Win64; x64) AppleWebKit/537.36 (KHTML, like Gecko) Chrome/122.0.0.0 Safari/537.36 Edg/122.0.0.0",Win32,de,de-CH,Europe/Zurich,-60,1920,1080,1872,910,1872,958,1,production,f5b4a49f956347addd546a832a3327688c2c0fef
57825,Introduction practice,canvas.Screen,1_0,NA,keypress(Space),response,13815.399999809,221075.40000057,221067.358,221083.8,234899.19999981,234900,2024-03-16T10:51:08Z,234917.2,NULL,NA,NA,NA,NA,NA,NA,NA,NA,NA,NA,NA,NA,NA,NA,NA,NA,NA,NA,NA,NA,NA,NA,NA,NA,NA,NA,NA,NA,NA
57825,Deep Question,html.Page,1_1_0_0_0,NA,NA,form submission,6667.4000003815,234900.40000057,234900.76,234917.2,241584.60000038001,241584.80000019,2024-03-16T10:51:15Z,241600.5,"c(""distractor1"", ""distractor2"", ""distractor3"")",Gesundheit,salama,d,NA,NA,NA,Gesundheit,NA,NA,NA,NA,NA,NA,NA,NA,NA,NA,NA,NA,NA,NA,NA,NA,NA,NA,NA,NA,NA,NA
57825,"""Richtig""-Screen",canvas.Screen,1_1_0_0_1,NA,NA,skipped,NA,241585.90000057,NA,NA,241584.60000038001,241586,2024-03-16T10:51:15Z,241600.5,"c(""distractor1"", ""distractor2"", ""distractor3"")",Gesundheit,salama,d,NA,NA,NA,NA,NA,NA,NA,NA,NA,NA,NA,NA,NA,NA,NA,NA,NA,NA,NA,NA,NA,NA,NA,NA,NA,NA
57825,"""Falsch""-Screen",canvas.Screen,1_1_0_0_2,NA,NA,timeout,5000,241586.90000057,241584.132,241600.5,246583.9,246587.69999981,2024-03-16T10:51:20Z,246600.5,"c(""distractor1"", ""distractor2"", ""distractor3"")",Gesundheit,salama,d,NA,NA,NA,NA,NA,0,NA,NA,NA,NA,NA,NA,NA,NA,NA,NA,NA,NA,NA,NA,NA,NA,NA,NA,NA,NA
57825,deep,flow.Sequence,1_1_0_0,NA,NA,completion,11666.7,234900.40000057,234900.76,234917.2,246583.9,246588.10000038001,2024-03-16T10:51:20Z,246600.5,"c(""distractor1"", ""distractor2"", ""distractor3"")",Gesundheit,salama,d,NA,NA,NA,NA,NA,NA,NA,NA,NA,NA,NA,NA,NA,NA,NA,NA,NA,NA,NA,NA,NA,NA,NA,NA,NA,NA
57825,shallow,flow.Sequence,1_1_0_1,NA,NA,skipped,NA,246588.19999981,NA,NA,246583.9,246588.40000057,2024-03-16T10:51:20Z,246600.5,"c(""distractor1"", ""distractor2"", ""distractor3"")",Gesundheit,salama,d,NA,NA,NA,NA,NA,NA,NA,NA,NA,NA,NA,NA,NA,NA,NA,NA,NA,NA,NA,NA,NA,NA,NA,NA,NA,NA
57825,task,flow.Sequence,1_1_0,NA,NA,completion,11666.7,234900.30000019,234900.76,234917.2,246583.9,246588.60000038001,2024-03-16T10:51:20Z,246600.5,"c(""distractor1"", ""distractor2"", ""distractor3"")",Gesundheit,salama,d,NA,NA,NA,NA,NA,NA,NA,NA,NA,NA,NA,NA,NA,NA,NA,NA,NA,NA,NA,NA,NA,NA,NA,NA,NA,NA
57825,Deep Question,html.Page,1_1_1_0_0,NA,NA,form submission,4585.3000001907,246588.80000019,246583.9,246600.5,251185.80000019,251186.10000038001,2024-03-16T10:51:25Z,251200.6,"c(""distractor1"", ""distractor2"", ""distractor3"")",Qualität,mtindo,d,NA,NA,NA,Qualität,NA,NA,NA,NA,NA,NA,NA,NA,NA,NA,NA,NA,NA,NA,NA,NA,NA,NA,NA,NA,NA,NA
57825,"""Richtig""-Screen",canvas.Screen,1_1_1_0_1,NA,NA,skipped,NA,251187.90000057,NA,NA,251185.80000019,251188.10000038001,2024-03-16T10:51:25Z,251200.6,"c(""distractor1"", ""distractor2"", ""distractor3"")",Qualität,mtindo,d,NA,NA,NA,NA,NA,NA,NA,NA,NA,NA,NA,NA,NA,NA,NA,NA,NA,NA,NA,NA,NA,NA,NA,NA,NA,NA
57825,"""Falsch""-Screen",canvas.Screen,1_1_1_0_2,NA,NA,timeout,5000,251188.80000019,251184.028,251200.6,256183.9,256184.90000057,2024-03-16T10:51:30Z,256200.6,"c(""distractor1"", ""distractor2"", ""distractor3"")",Qualität,mtindo,d,NA,NA,NA,NA,NA,0,NA,NA,NA,NA,NA,NA,NA,NA,NA,NA,NA,NA,NA,NA,NA,NA,NA,NA,NA,NA
57825,deep,flow.Sequence,1_1_1_0,NA,NA,completion,9583.4,246588.69999981,246583.9,246600.5,256183.9,256185.30000019,2024-03-16T10:51:30Z,256200.6,"c(""distractor1"", ""distractor2"", ""distractor3"")",Qualität,mtindo,d,NA,NA,NA,NA,NA,NA,NA,NA,NA,NA,NA,NA,NA,NA,NA,NA,NA,NA,NA,NA,NA,NA,NA,NA,NA,NA
57825,shallow,flow.Sequence,1_1_1_1,NA,NA,skipped,NA,256185.40000057,NA,NA,256183.9,256185.60000038001,2024-03-16T10:51:30Z,256200.6,"c(""distractor1"", ""distractor2"", ""distractor3"")",Qualität,mtindo,d,NA,NA,NA,NA,NA,NA,NA,NA,NA,NA,NA,NA,NA,NA,NA,NA,NA,NA,NA,NA,NA,NA,NA,NA,NA,NA
57825,task,flow.Sequence,1_1_1,NA,NA,completion,9583.4,246588.69999981,246583.9,246600.5,256183.9,256185.60000038001,2024-03-16T10:51:30Z,256200.6,"c(""distractor1"", ""distractor2"", ""distractor3"")",Qualität,mtindo,d,NA,NA,NA,NA,NA,NA,NA,NA,NA,NA,NA,NA,NA,NA,NA,NA,NA,NA,NA,NA,NA,NA,NA,NA,NA,NA
57825,deep,flow.Sequence,1_1_2_0,NA,NA,skipped,NA,256185.80000019,NA,NA,256183.9,256185.90000057,2024-03-16T10:51:30Z,256200.6,"c(""distractor1"", ""distractor2"", ""distractor3"")",Kritik,lawama,s,dereva,nafasi,mawazo,NA,NA,NA,NA,NA,NA,NA,NA,NA,NA,NA,NA,NA,NA,NA,NA,NA,NA,NA,NA,NA,NA,NA
57825,Shallow Question,html.Page,1_1_2_1_0,NA,NA,form submission,5805.0000003815,256186,256183.9,256200.6,262005.60000038001,262005.80000019,2024-03-16T10:51:35Z,262017.1,"c(""distractor1"", ""distractor2"", ""distractor3"")",Kritik,lawama,s,dereva,nafasi,mawazo,lawama,NA,NA,NA,NA,NA,NA,NA,NA,NA,NA,NA,NA,NA,NA,NA,NA,NA,NA,NA,NA,NA,NA
57825,"""Richtig""-Screen",canvas.Screen,1_1_2_1_1,NA,NA,timeout,5000.2,262007.60000038001,262000.722,262017.1,267000.7,267001.40000057,2024-03-16T10:51:40Z,267017.3,"c(""distractor1"", ""distractor2"", ""distractor3"")",Kritik,lawama,s,dereva,nafasi,mawazo,NA,NA,1,NA,NA,NA,NA,NA,NA,NA,NA,NA,NA,NA,NA,NA,NA,NA,NA,NA,NA,NA,NA
57825,"""Falsch""-Screen",canvas.Screen,1_1_2_1_2,NA,NA,skipped,NA,267005.80000019,NA,NA,267000.7,267006.10000038,2024-03-16T10:51:40Z,267017.3,"c(""distractor1"", ""distractor2"", ""distractor3"")",Kritik,lawama,s,dereva,nafasi,mawazo,NA,NA,NA,NA,NA,NA,NA,NA,NA,NA,NA,NA,NA,NA,NA,NA,NA,NA,NA,NA,NA,NA,NA
57825,shallow,flow.Sequence,1_1_2_1,NA,NA,completion,10800.1,256185.90000057,256183.9,256200.6,267000.7,267006.30000019,2024-03-16T10:51:40Z,267017.3,"c(""distractor1"", ""distractor2"", ""distractor3"")",Kritik,lawama,s,dereva,nafasi,mawazo,NA,NA,NA,NA,NA,NA,NA,NA,NA,NA,NA,NA,NA,NA,NA,NA,NA,NA,NA,NA,NA,NA,NA
57825,task,flow.Sequence,1_1_2,NA,NA,completion,10800.1,256185.69999981,256183.9,256200.6,267000.7,267006.40000057,2024-03-16T10:51:40Z,267017.3,"c(""distractor1"", ""distractor2"", ""distractor3"")",Kritik,lawama,s,dereva,nafasi,mawazo,NA,NA,NA,NA,NA,NA,NA,NA,NA,NA,NA,NA,NA,NA,NA,NA,NA,NA,NA,NA,NA,NA,NA
57825,Deep Question,html.Page,1_1_3_0_0,NA,NA,form submission,6584.3999998093,267006.60000038,267000.7,267017.3,273601.69999981,273601.90000057,2024-03-16T10:51:47Z,273617.1,"c(""distractor1"", ""distractor2"", ""distractor3"")",Schatten,kivuli,d,NA,NA,NA,Schatten,NA,NA,NA,NA,NA,NA,NA,NA,NA,NA,NA,NA,NA,NA,NA,NA,NA,NA,NA,NA,NA,NA
57825,"""Richtig""-Screen",canvas.Screen,1_1_3_0_1,NA,NA,skipped,NA,273603.5,NA,NA,273601.69999981,273603.60000038,2024-03-16T10:51:47Z,273617.1,"c(""distractor1"", ""distractor2"", ""distractor3"")",Schatten,kivuli,d,NA,NA,NA,NA,NA,NA,NA,NA,NA,NA,NA,NA,NA,NA,NA,NA,NA,NA,NA,NA,NA,NA,NA,NA,NA,NA
57825,"""Falsch""-Screen",canvas.Screen,1_1_3_0_2,NA,NA,timeout,5000.2,273604.10000038,273600.856,273617.1,278600.6,278601.5,2024-03-16T10:51:52Z,278617.3,"c(""distractor1"", ""distractor2"", ""distractor3"")",Schatten,kivuli,d,NA,NA,NA,NA,NA,0,NA,NA,NA,NA,NA,NA,NA,NA,NA,NA,NA,NA,NA,NA,NA,NA,NA,NA,NA,NA
57825,deep,flow.Sequence,1_1_3_0,NA,NA,completion,11583.3,267006.5,267000.7,267017.3,278600.6,278601.90000057,2024-03-16T10:51:52Z,278617.3,"c(""distractor1"", ""distractor2"", ""distractor3"")",Schatten,kivuli,d,NA,NA,NA,NA,NA,NA,NA,NA,NA,NA,NA,NA,NA,NA,NA,NA,NA,NA,NA,NA,NA,NA,NA,NA,NA,NA
57825,shallow,flow.Sequence,1_1_3_1,NA,NA,skipped,NA,278602.10000038,NA,NA,278600.6,278602.19999981,2024-03-16T10:51:52Z,278617.3,"c(""distractor1"", ""distractor2"", ""distractor3"")",Schatten,kivuli,d,NA,NA,NA,NA,NA,NA,NA,NA,NA,NA,NA,NA,NA,NA,NA,NA,NA,NA,NA,NA,NA,NA,NA,NA,NA,NA
57825,task,flow.Sequence,1_1_3,NA,NA,completion,11583.3,267006.5,267000.7,267017.3,278600.6,278602.30000019,2024-03-16T10:51:52Z,278617.3,"c(""distractor1"", ""distractor2"", ""distractor3"")",Schatten,kivuli,d,NA,NA,NA,NA,NA,NA,NA,NA,NA,NA,NA,NA,NA,NA,NA,NA,NA,NA,NA,NA,NA,NA,NA,NA,NA,NA
57825,deep,flow.Sequence,1_1_4_0,NA,NA,skipped,NA,278602.5,NA,NA,278600.6,278602.5,2024-03-16T10:51:52Z,278617.3,"c(""distractor1"", ""distractor2"", ""distractor3"")",Gegenwart,hadhara,s,katiba,jokofu,mikopo,NA,NA,NA,NA,NA,NA,NA,NA,NA,NA,NA,NA,NA,NA,NA,NA,NA,NA,NA,NA,NA,NA,NA
57825,Shallow Question,html.Page,1_1_4_1_0,NA,NA,form submission,7697.1000005722,278602.60000038,278600.6,278617.3,286314.40000057,286314.5,2024-03-16T10:52:00Z,286317.324,"c(""distractor1"", ""distractor2"", ""distractor3"")",Gegenwart,hadhara,s,katiba,jokofu,mikopo,mikopo,NA,NA,NA,NA,NA,NA,NA,NA,NA,NA,NA,NA,NA,NA,NA,NA,NA,NA,NA,NA,NA,NA
57825,"""Richtig""-Screen",canvas.Screen,1_1_4_1_1,NA,NA,skipped,NA,286316.19999981,NA,NA,286314.40000057,286316.30000019,2024-03-16T10:52:00Z,286317.324,"c(""distractor1"", ""distractor2"", ""distractor3"")",Gegenwart,hadhara,s,katiba,jokofu,mikopo,NA,NA,NA,NA,NA,NA,NA,NA,NA,NA,NA,NA,NA,NA,NA,NA,NA,NA,NA,NA,NA,NA,NA
57825,"""Falsch""-Screen",canvas.Screen,1_1_4_1_2,NA,NA,timeout,4999.976,286316.90000057,286317.324,286317.324,291300.6,291301.30000019,2024-03-16T10:52:05Z,291317.3,"c(""distractor1"", ""distractor2"", ""distractor3"")",Gegenwart,hadhara,s,katiba,jokofu,mikopo,NA,NA,0,NA,NA,NA,NA,NA,NA,NA,NA,NA,NA,NA,NA,NA,NA,NA,NA,NA,NA,NA,NA
57825,shallow,flow.Sequence,1_1_4_1,NA,NA,completion,12683.3,278602.5,278600.6,278617.3,291300.6,291301.60000038,2024-03-16T10:52:05Z,291317.3,"c(""distractor1"", ""distractor2"", ""distractor3"")",Gegenwart,hadhara,s,katiba,jokofu,mikopo,NA,NA,NA,NA,NA,NA,NA,NA,NA,NA,NA,NA,NA,NA,NA,NA,NA,NA,NA,NA,NA,NA,NA
57825,task,flow.Sequence,1_1_4,NA,NA,completion,12683.3,278602.40000057,278600.6,278617.3,291300.6,291301.69999981,2024-03-16T10:52:05Z,291317.3,"c(""distractor1"", ""distractor2"", ""distractor3"")",Gegenwart,hadhara,s,katiba,jokofu,mikopo,NA,NA,NA,NA,NA,NA,NA,NA,NA,NA,NA,NA,NA,NA,NA,NA,NA,NA,NA,NA,NA,NA,NA
57825,deep,flow.Sequence,1_1_5_0,NA,NA,skipped,NA,291301.90000057,NA,NA,291300.6,291302,2024-03-16T10:52:05Z,291317.3,"c(""distractor1"", ""distractor2"", ""distractor3"")",Rückhalt,msaada,s,muhula,auwali,kiwimbe,NA,NA,NA,NA,NA,NA,NA,NA,NA,NA,NA,NA,NA,NA,NA,NA,NA,NA,NA,NA,NA,NA,NA
57825,Shallow Question,html.Page,1_1_5_1_0,NA,NA,form submission,5937.2,291302.10000038,291300.6,291317.3,297254.5,297254.69999981,2024-03-16T10:52:11Z,297267.3,"c(""distractor1"", ""distractor2"", ""distractor3"")",Rückhalt,msaada,s,muhula,auwali,kiwimbe,auwali,NA,NA,NA,NA,NA,NA,NA,NA,NA,NA,NA,NA,NA,NA,NA,NA,NA,NA,NA,NA,NA,NA
57825,"""Richtig""-Screen",canvas.Screen,1_1_5_1_1,NA,NA,skipped,NA,297256.40000057,NA,NA,297254.5,297256.5,2024-03-16T10:52:11Z,297267.3,"c(""distractor1"", ""distractor2"", ""distractor3"")",Rückhalt,msaada,s,muhula,auwali,kiwimbe,NA,NA,NA,NA,NA,NA,NA,NA,NA,NA,NA,NA,NA,NA,NA,NA,NA,NA,NA,NA,NA,NA,NA
57825,"""Falsch""-Screen",canvas.Screen,1_1_5_1_2,NA,NA,timeout,5000,297257,297250.722,297267.3,302250.5,302251.5,2024-03-16T10:52:16Z,302267.3,"c(""distractor1"", ""distractor2"", ""distractor3"")",Rückhalt,msaada,s,muhula,auwali,kiwimbe,NA,NA,0,NA,NA,NA,NA,NA,NA,NA,NA,NA,NA,NA,NA,NA,NA,NA,NA,NA,NA,NA,NA
57825,shallow,flow.Sequence,1_1_5_1,NA,NA,completion,10933.2,291302.10000038,291300.6,291317.3,302250.5,302251.69999981,2024-03-16T10:52:16Z,302267.3,"c(""distractor1"", ""distractor2"", ""distractor3"")",Rückhalt,msaada,s,muhula,auwali,kiwimbe,NA,NA,NA,NA,NA,NA,NA,NA,NA,NA,NA,NA,NA,NA,NA,NA,NA,NA,NA,NA,NA,NA,NA
57825,task,flow.Sequence,1_1_5,NA,NA,completion,10933.2,291301.80000019,291300.6,291317.3,302250.5,302251.80000019,2024-03-16T10:52:16Z,302267.3,"c(""distractor1"", ""distractor2"", ""distractor3"")",Rückhalt,msaada,s,muhula,auwali,kiwimbe,NA,NA,NA,NA,NA,NA,NA,NA,NA,NA,NA,NA,NA,NA,NA,NA,NA,NA,NA,NA,NA,NA,NA
57825,block,flow.Loop,1_1,NA,NA,completion,67333.3,234900.30000019,234900.76,234917.2,302250.5,302252.10000038,2024-03-16T10:52:16Z,302267.3,"c(""distractor1"", ""distractor2"", ""distractor3"")",NA,NA,NA,NA,NA,NA,NA,NA,NA,NA,NA,NA,NA,NA,NA,NA,NA,NA,NA,NA,NA,NA,NA,NA,NA,NA,NA,NA,NA
57825,Practice,flow.Sequence,1,NA,NA,completion,81166.7,221075.30000019,221067.358,221083.8,302250.5,302252.19999981,2024-03-16T10:52:16Z,302267.3,NULL,NA,NA,NA,NA,NA,NA,NA,NA,NA,NA,NA,NA,NA,NA,NA,NA,NA,NA,NA,NA,NA,NA,NA,NA,NA,NA,NA,NA,NA
57825,Experiment start,canvas.Screen,2,weiter,keypress(q),response,13462.300000381,302252.40000057,302250.5,302267.3,315729.60000038,315730.60000038,2024-03-16T10:52:29Z,315817.156,NULL,NA,NA,NA,NA,NA,NA,NA,NA,NA,NA,NA,NA,NA,NA,NA,NA,NA,NA,NA,NA,NA,NA,NA,NA,NA,NA,NA,NA,NA
57825,deep,flow.Sequence,3_0_0_0_0_0,NA,NA,skipped,NA,315826.19999981,NA,NA,315729.60000038,315826.30000019,2024-03-16T10:52:29Z,315817.156,NULL,Stimmung,kinyongo,s,kilekile,kisambo,madhehebu,NA,sdf,NA,0,NA,NA,NA,NA,NA,NA,NA,NA,NA,NA,NA,NA,NA,NA,NA,NA,NA,NA,NA
57825,Shallow Question,html.Page,3_0_0_0_0_1_0,NA,NA,form submission,7845.344,315826.30000019,315817.156,315817.156,323662.5,323662.80000019,2024-03-16T10:52:37Z,323667.1,NULL,Stimmung,kinyongo,s,kilekile,kisambo,madhehebu,kisambo,NA,NA,0,NA,NA,NA,NA,NA,NA,NA,NA,NA,NA,NA,NA,NA,NA,NA,NA,NA,NA,NA
57825,"""Richtig""-Screen",canvas.Screen,3_0_0_0_0_1_1,NA,NA,skipped,NA,323664.40000057,NA,NA,323662.5,323664.60000038,2024-03-16T10:52:37Z,323667.1,NULL,Stimmung,kinyongo,s,kilekile,kisambo,madhehebu,NA,sdf,NA,0,NA,NA,NA,NA,NA,NA,NA,NA,NA,NA,NA,NA,NA,NA,NA,NA,NA,NA,NA
57825,"""Falsch""-Screen",canvas.Screen,3_0_0_0_0_1_2,NA,NA,timeout,5000.2,323665.10000038,323651.2,323667.1,328650.5,328651.30000019,2024-03-16T10:52:42Z,328667.3,NULL,Stimmung,kinyongo,s,kilekile,kisambo,madhehebu,NA,sdf,0,0,NA,NA,NA,NA,NA,NA,NA,NA,NA,NA,NA,NA,NA,NA,NA,NA,NA,NA,NA
57825,shallow,flow.Sequence,3_0_0_0_0_1,NA,NA,completion,12833.344,315826.30000019,315817.156,315817.156,328650.5,328651.5,2024-03-16T10:52:42Z,328667.3,NULL,Stimmung,kinyongo,s,kilekile,kisambo,madhehebu,NA,sdf,NA,0,NA,NA,NA,NA,NA,NA,NA,NA,NA,NA,NA,NA,NA,NA,NA,NA,NA,NA,NA
57825,task,flow.Sequence,3_0_0_0_0,NA,NA,completion,12833.344,315826.19999981,315817.156,315817.156,328650.5,328651.69999981,2024-03-16T10:52:42Z,328667.3,NULL,Stimmung,kinyongo,s,kilekile,kisambo,madhehebu,NA,sdf,NA,0,NA,NA,NA,NA,NA,NA,NA,NA,NA,NA,NA,NA,NA,NA,NA,NA,NA,NA,NA
57825,deep,flow.Sequence,3_0_0_0_1_0,NA,NA,skipped,NA,328651.80000019,NA,NA,328650.5,328651.80000019,2024-03-16T10:52:42Z,328667.3,NULL,Ergänzung,kijalizo,s,ulaghai,mustarehe,matangazo,NA,sdf,NA,0,NA,NA,NA,NA,NA,NA,NA,NA,NA,NA,NA,NA,NA,NA,NA,NA,NA,NA,NA
57825,Shallow Question,html.Page,3_0_0_0_1_1_0,NA,NA,form submission,2866.3000003815,328652,328650.5,328667.3,331533.60000038,331533.80000019,2024-03-16T10:52:45Z,331550.9,NULL,Ergänzung,kijalizo,s,ulaghai,mustarehe,matangazo,kijalizo,NA,NA,0,NA,NA,NA,NA,NA,NA,NA,NA,NA,NA,NA,NA,NA,NA,NA,NA,NA,NA,NA
57825,"""Richtig""-Screen",canvas.Screen,3_0_0_0_1_1_1,NA,NA,timeout,4999.8,331535.5,331533.956,331550.9,336533.9,336534.69999981,2024-03-16T10:52:50Z,336550.7,NULL,Ergänzung,kijalizo,s,ulaghai,mustarehe,matangazo,NA,sdf,1,0,NA,NA,NA,NA,NA,NA,NA,NA,NA,NA,NA,NA,NA,NA,NA,NA,NA,NA,NA
57825,"""Falsch""-Screen",canvas.Screen,3_0_0_0_1_1_2,NA,NA,skipped,NA,336536.30000019,NA,NA,336533.9,336536.40000057,2024-03-16T10:52:50Z,336550.7,NULL,Ergänzung,kijalizo,s,ulaghai,mustarehe,matangazo,NA,sdf,NA,0,NA,NA,NA,NA,NA,NA,NA,NA,NA,NA,NA,NA,NA,NA,NA,NA,NA,NA,NA
57825,shallow,flow.Sequence,3_0_0_0_1_1,NA,NA,completion,7866.6,328652,328650.5,328667.3,336533.9,336536.5,2024-03-16T10:52:50Z,336550.7,NULL,Ergänzung,kijalizo,s,ulaghai,mustarehe,matangazo,NA,sdf,NA,0,NA,NA,NA,NA,NA,NA,NA,NA,NA,NA,NA,NA,NA,NA,NA,NA,NA,NA,NA
57825,task,flow.Sequence,3_0_0_0_1,NA,NA,completion,7866.6,328651.69999981,328650.5,328667.3,336533.9,336536.60000038,2024-03-16T10:52:50Z,336550.7,NULL,Ergänzung,kijalizo,s,ulaghai,mustarehe,matangazo,NA,sdf,NA,0,NA,NA,NA,NA,NA,NA,NA,NA,NA,NA,NA,NA,NA,NA,NA,NA,NA,NA,NA
57825,Deep Question,html.Page,3_0_0_0_2_0_0,NA,NA,form submission,5949.3,336536.60000038,336533.9,336550.7,342500,342500.19999981,2024-03-16T10:52:56Z,342517.4,NULL,Vergnügen,kichekesho,d,NA,NA,NA,Vergnügen,NA,NA,0,NA,NA,NA,NA,NA,NA,NA,NA,NA,NA,NA,NA,NA,NA,NA,NA,NA,NA,NA
57825,"""Richtig""-Screen",canvas.Screen,3_0_0_0_2_0_1,NA,NA,skipped,NA,342501.60000038,NA,NA,342500,342501.80000019,2024-03-16T10:52:56Z,342517.4,NULL,Vergnügen,kichekesho,d,NA,NA,NA,NA,sdf,NA,0,NA,NA,NA,NA,NA,NA,NA,NA,NA,NA,NA,NA,NA,NA,NA,NA,NA,NA,NA
57825,"""Falsch""-Screen",canvas.Screen,3_0_0_0_2_0_2,NA,NA,timeout,4999.9,342502.19999981,342500.486,342517.4,347500.6,347501.19999981,2024-03-16T10:53:01Z,347517.3,NULL,Vergnügen,kichekesho,d,NA,NA,NA,NA,sdf,0,0,NA,NA,NA,NA,NA,NA,NA,NA,NA,NA,NA,NA,NA,NA,NA,NA,NA,NA,NA
57825,deep,flow.Sequence,3_0_0_0_2_0,NA,NA,completion,10949.9,336536.60000038,336533.9,336550.7,347500.6,347501.5,2024-03-16T10:53:01Z,347517.3,NULL,Vergnügen,kichekesho,d,NA,NA,NA,NA,sdf,NA,0,NA,NA,NA,NA,NA,NA,NA,NA,NA,NA,NA,NA,NA,NA,NA,NA,NA,NA,NA
57825,shallow,flow.Sequence,3_0_0_0_2_1,NA,NA,skipped,NA,347501.60000038,NA,NA,347500.6,347501.80000019,2024-03-16T10:53:01Z,347517.3,NULL,Vergnügen,kichekesho,d,NA,NA,NA,NA,sdf,NA,0,NA,NA,NA,NA,NA,NA,NA,NA,NA,NA,NA,NA,NA,NA,NA,NA,NA,NA,NA
57825,task,flow.Sequence,3_0_0_0_2,NA,NA,completion,10949.9,336536.60000038,336533.9,336550.7,347500.6,347501.90000057,2024-03-16T10:53:01Z,347517.3,NULL,Vergnügen,kichekesho,d,NA,NA,NA,NA,sdf,NA,0,NA,NA,NA,NA,NA,NA,NA,NA,NA,NA,NA,NA,NA,NA,NA,NA,NA,NA,NA
57825,deep,flow.Sequence,3_0_0_0_3_0,NA,NA,skipped,NA,347501.90000057,NA,NA,347500.6,347502,2024-03-16T10:53:01Z,347517.3,NULL,Wohlstand,mafanikio,s,chimbuko,kumbuko,mapwaji,NA,sdf,NA,0,NA,NA,NA,NA,NA,NA,NA,NA,NA,NA,NA,NA,NA,NA,NA,NA,NA,NA,NA
57825,Shallow Question,html.Page,3_0_0_0_3_1_0,NA,NA,form submission,5703.8000003815,347502.10000038,347500.6,347517.3,353221.10000038,353221.30000019,2024-03-16T10:53:07Z,353233.7,NULL,Wohlstand,mafanikio,s,chimbuko,kumbuko,mapwaji,kumbuko,NA,NA,0,NA,NA,NA,NA,NA,NA,NA,NA,NA,NA,NA,NA,NA,NA,NA,NA,NA,NA,NA
57825,"""Richtig""-Screen",canvas.Screen,3_0_0_0_3_1_1,NA,NA,skipped,NA,353223.10000038,NA,NA,353221.10000038,353223.19999981,2024-03-16T10:53:07Z,353233.7,NULL,Wohlstand,mafanikio,s,chimbuko,kumbuko,mapwaji,NA,sdf,NA,0,NA,NA,NA,NA,NA,NA,NA,NA,NA,NA,NA,NA,NA,NA,NA,NA,NA,NA,NA
57825,"""Falsch""-Screen",canvas.Screen,3_0_0_0_3_1_2,NA,NA,timeout,5000.2,353223.69999981,353217.6,353233.7,358217.2,358218.10000038,2024-03-16T10:53:12Z,358233.9,NULL,Wohlstand,mafanikio,s,chimbuko,kumbuko,mapwaji,NA,sdf,0,0,NA,NA,NA,NA,NA,NA,NA,NA,NA,NA,NA,NA,NA,NA,NA,NA,NA,NA,NA
57825,shallow,flow.Sequence,3_0_0_0_3_1,NA,NA,completion,10699.9,347502.10000038,347500.6,347517.3,358217.2,358218.40000057,2024-03-16T10:53:12Z,358233.9,NULL,Wohlstand,mafanikio,s,chimbuko,kumbuko,mapwaji,NA,sdf,NA,0,NA,NA,NA,NA,NA,NA,NA,NA,NA,NA,NA,NA,NA,NA,NA,NA,NA,NA,NA
57825,task,flow.Sequence,3_0_0_0_3,NA,NA,completion,10699.9,347501.90000057,347500.6,347517.3,358217.2,358218.60000038,2024-03-16T10:53:12Z,358233.9,NULL,Wohlstand,mafanikio,s,chimbuko,kumbuko,mapwaji,NA,sdf,NA,0,NA,NA,NA,NA,NA,NA,NA,NA,NA,NA,NA,NA,NA,NA,NA,NA,NA,NA,NA
57825,Deep Question,html.Page,3_0_0_0_4_0_0,NA,NA,form submission,5284.6,358218.69999981,358217.2,358233.9,363518.5,363518.69999981,2024-03-16T10:53:17Z,363533.9,NULL,Orientierung,urekebisho,d,NA,NA,NA,Orientierung,NA,NA,0,NA,NA,NA,NA,NA,NA,NA,NA,NA,NA,NA,NA,NA,NA,NA,NA,NA,NA,NA
57825,"""Richtig""-Screen",canvas.Screen,3_0_0_0_4_0_1,NA,NA,skipped,NA,363520.5,NA,NA,363518.5,363520.60000038,2024-03-16T10:53:17Z,363533.9,NULL,Orientierung,urekebisho,d,NA,NA,NA,NA,sdf,NA,0,NA,NA,NA,NA,NA,NA,NA,NA,NA,NA,NA,NA,NA,NA,NA,NA,NA,NA,NA
57825,"""Falsch""-Screen",canvas.Screen,3_0_0_0_4_0_2,NA,NA,timeout,4999.9,363521.10000038,363517.432,363533.9,368517.1,368517.80000019,2024-03-16T10:53:22Z,368533.8,NULL,Orientierung,urekebisho,d,NA,NA,NA,NA,sdf,0,0,NA,NA,NA,NA,NA,NA,NA,NA,NA,NA,NA,NA,NA,NA,NA,NA,NA,NA,NA
57825,deep,flow.Sequence,3_0_0_0_4_0,NA,NA,completion,10283.2,358218.69999981,358217.2,358233.9,368517.1,368518,2024-03-16T10:53:22Z,368533.8,NULL,Orientierung,urekebisho,d,NA,NA,NA,NA,sdf,NA,0,NA,NA,NA,NA,NA,NA,NA,NA,NA,NA,NA,NA,NA,NA,NA,NA,NA,NA,NA
57825,shallow,flow.Sequence,3_0_0_0_4_1,NA,NA,skipped,NA,368518.10000038,NA,NA,368517.1,368518.19999981,2024-03-16T10:53:22Z,368533.8,NULL,Orientierung,urekebisho,d,NA,NA,NA,NA,sdf,NA,0,NA,NA,NA,NA,NA,NA,NA,NA,NA,NA,NA,NA,NA,NA,NA,NA,NA,NA,NA
57825,task,flow.Sequence,3_0_0_0_4,NA,NA,completion,10283.2,358218.69999981,358217.2,358233.9,368517.1,368518.30000019,2024-03-16T10:53:22Z,368533.8,NULL,Orientierung,urekebisho,d,NA,NA,NA,NA,sdf,NA,0,NA,NA,NA,NA,NA,NA,NA,NA,NA,NA,NA,NA,NA,NA,NA,NA,NA,NA,NA
57825,deep,flow.Sequence,3_0_0_0_5_0,NA,NA,skipped,NA,368518.40000057,NA,NA,368517.1,368518.40000057,2024-03-16T10:53:22Z,368533.8,NULL,Betrüger,mdanganyifu,s,mwanamuziki,wastani,mahakama,NA,sdf,NA,0,NA,NA,NA,NA,NA,NA,NA,NA,NA,NA,NA,NA,NA,NA,NA,NA,NA,NA,NA
57825,Shallow Question,html.Page,3_0_0_0_5_1_0,NA,NA,form submission,12405.899999809,368518.60000038,368517.1,368533.8,380939.69999981,380939.90000057,2024-03-16T10:53:34Z,380950.6,NULL,Betrüger,mdanganyifu,s,mwanamuziki,wastani,mahakama,mdanganyifu,NA,NA,0,NA,NA,NA,NA,NA,NA,NA,NA,NA,NA,NA,NA,NA,NA,NA,NA,NA,NA,NA
57825,"""Richtig""-Screen",canvas.Screen,3_0_0_0_5_1_1,NA,NA,timeout,4999.9,380941.60000038,380933.936,380950.6,385933.8,385934.60000038,2024-03-16T10:53:39Z,385950.5,NULL,Betrüger,mdanganyifu,s,mwanamuziki,wastani,mahakama,NA,sdf,1,0,NA,NA,NA,NA,NA,NA,NA,NA,NA,NA,NA,NA,NA,NA,NA,NA,NA,NA,NA
57825,"""Falsch""-Screen",canvas.Screen,3_0_0_0_5_1_2,NA,NA,skipped,NA,385938.5,NA,NA,385933.8,385938.69999981,2024-03-16T10:53:39Z,385950.5,NULL,Betrüger,mdanganyifu,s,mwanamuziki,wastani,mahakama,NA,sdf,NA,0,NA,NA,NA,NA,NA,NA,NA,NA,NA,NA,NA,NA,NA,NA,NA,NA,NA,NA,NA
57825,shallow,flow.Sequence,3_0_0_0_5_1,NA,NA,completion,17400,368518.60000038,368517.1,368533.8,385933.8,385939,2024-03-16T10:53:39Z,385950.5,NULL,Betrüger,mdanganyifu,s,mwanamuziki,wastani,mahakama,NA,sdf,NA,0,NA,NA,NA,NA,NA,NA,NA,NA,NA,NA,NA,NA,NA,NA,NA,NA,NA,NA,NA
57825,task,flow.Sequence,3_0_0_0_5,NA,NA,completion,17400,368518.40000057,368517.1,368533.8,385933.8,385939.10000038,2024-03-16T10:53:39Z,385950.5,NULL,Betrüger,mdanganyifu,s,mwanamuziki,wastani,mahakama,NA,sdf,NA,0,NA,NA,NA,NA,NA,NA,NA,NA,NA,NA,NA,NA,NA,NA,NA,NA,NA,NA,NA
57825,Deep Question,html.Page,3_0_0_0_6_0_0,NA,NA,form submission,4192.6999998093,385939.19999981,385933.8,385950.5,390143.19999981,390143.5,2024-03-16T10:53:44Z,390150.3,NULL,Notfall,dharura,d,NA,NA,NA,Notfall,NA,NA,0,NA,NA,NA,NA,NA,NA,NA,NA,NA,NA,NA,NA,NA,NA,NA,NA,NA,NA,NA
57825,"""Richtig""-Screen",canvas.Screen,3_0_0_0_6_0_1,NA,NA,skipped,NA,390145.10000038,NA,NA,390143.19999981,390145.19999981,2024-03-16T10:53:44Z,390150.3,NULL,Notfall,dharura,d,NA,NA,NA,NA,sdf,NA,0,NA,NA,NA,NA,NA,NA,NA,NA,NA,NA,NA,NA,NA,NA,NA,NA,NA,NA,NA
57825,"""Falsch""-Screen",canvas.Screen,3_0_0_0_6_0_2,NA,NA,timeout,5000.2,390146.30000019,390134.146,390150.3,395133.9,395134.69999981,2024-03-16T10:53:49Z,395150.5,NULL,Notfall,dharura,d,NA,NA,NA,NA,sdf,0,0,NA,NA,NA,NA,NA,NA,NA,NA,NA,NA,NA,NA,NA,NA,NA,NA,NA,NA,NA
57825,deep,flow.Sequence,3_0_0_0_6_0,NA,NA,completion,9183.4,385939.19999981,385933.8,385950.5,395133.9,395135,2024-03-16T10:53:49Z,395150.5,NULL,Notfall,dharura,d,NA,NA,NA,NA,sdf,NA,0,NA,NA,NA,NA,NA,NA,NA,NA,NA,NA,NA,NA,NA,NA,NA,NA,NA,NA,NA
57825,shallow,flow.Sequence,3_0_0_0_6_1,NA,NA,skipped,NA,395135.10000038,NA,NA,395133.9,395135.19999981,2024-03-16T10:53:49Z,395150.5,NULL,Notfall,dharura,d,NA,NA,NA,NA,sdf,NA,0,NA,NA,NA,NA,NA,NA,NA,NA,NA,NA,NA,NA,NA,NA,NA,NA,NA,NA,NA
57825,task,flow.Sequence,3_0_0_0_6,NA,NA,completion,9183.4,385939.10000038,385933.8,385950.5,395133.9,395135.30000019,2024-03-16T10:53:49Z,395150.5,NULL,Notfall,dharura,d,NA,NA,NA,NA,sdf,NA,0,NA,NA,NA,NA,NA,NA,NA,NA,NA,NA,NA,NA,NA,NA,NA,NA,NA,NA,NA
57825,Deep Question,html.Page,3_0_0_0_7_0_0,NA,NA,form submission,3219.6000003815,395135.40000057,395133.9,395150.5,398370.10000038,398370.40000057,2024-03-16T10:53:52Z,398383.7,NULL,Respekt,heshima,d,NA,NA,NA,Respekt,NA,NA,0,NA,NA,NA,NA,NA,NA,NA,NA,NA,NA,NA,NA,NA,NA,NA,NA,NA,NA,NA
57825,"""Richtig""-Screen",canvas.Screen,3_0_0_0_7_0_1,NA,NA,skipped,NA,398372,NA,NA,398370.10000038,398372.19999981,2024-03-16T10:53:52Z,398383.7,NULL,Respekt,heshima,d,NA,NA,NA,NA,sdf,NA,0,NA,NA,NA,NA,NA,NA,NA,NA,NA,NA,NA,NA,NA,NA,NA,NA,NA,NA,NA
57825,"""Falsch""-Screen",canvas.Screen,3_0_0_0_7_0_2,NA,NA,timeout,5000.1,398372.60000038,398367.244,398383.7,403367.1,403367.90000057,2024-03-16T10:53:57Z,403383.8,NULL,Respekt,heshima,d,NA,NA,NA,NA,sdf,0,0,NA,NA,NA,NA,NA,NA,NA,NA,NA,NA,NA,NA,NA,NA,NA,NA,NA,NA,NA
57825,deep,flow.Sequence,3_0_0_0_7_0,NA,NA,completion,8216.6,395135.40000057,395133.9,395150.5,403367.1,403368.19999981,2024-03-16T10:53:57Z,403383.8,NULL,Respekt,heshima,d,NA,NA,NA,NA,sdf,NA,0,NA,NA,NA,NA,NA,NA,NA,NA,NA,NA,NA,NA,NA,NA,NA,NA,NA,NA,NA
57825,shallow,flow.Sequence,3_0_0_0_7_1,NA,NA,skipped,NA,403368.40000057,NA,NA,403367.1,403368.40000057,2024-03-16T10:53:57Z,403383.8,NULL,Respekt,heshima,d,NA,NA,NA,NA,sdf,NA,0,NA,NA,NA,NA,NA,NA,NA,NA,NA,NA,NA,NA,NA,NA,NA,NA,NA,NA,NA
57825,task,flow.Sequence,3_0_0_0_7,NA,NA,completion,8216.6,395135.40000057,395133.9,395150.5,403367.1,403368.60000038,2024-03-16T10:53:57Z,403383.8,NULL,Respekt,heshima,d,NA,NA,NA,NA,sdf,NA,0,NA,NA,NA,NA,NA,NA,NA,NA,NA,NA,NA,NA,NA,NA,NA,NA,NA,NA,NA
57825,block,flow.Loop,3_0_0_0,NA,NA,completion,87549.944,315826.19999981,315817.156,315817.156,403367.1,403368.69999981,2024-03-16T10:53:57Z,403383.8,NULL,NA,NA,NA,NA,NA,NA,NA,sdf,NA,0,NA,NA,NA,NA,NA,NA,NA,NA,NA,NA,NA,NA,NA,NA,NA,NA,NA,NA,NA
57825,weiter,canvas.Screen,3_0_0_1,sdf,keypress(Space),response,1238.7,403368.80000019,403367.1,403383.8,404622.5,404623.30000019,2024-03-16T10:53:58Z,404683.9,NULL,NA,NA,NA,NA,NA,NA,NA,sdf,NA,0,NA,NA,NA,NA,NA,NA,NA,NA,NA,NA,NA,NA,NA,NA,NA,NA,NA,NA,NA
57825,check continue,flow.Sequence,3_0_0,NA,NA,completion,88805.344,315826.10000038,315817.156,315817.156,404622.5,404623.5,2024-03-16T10:53:58Z,404683.9,NULL,NA,NA,NA,NA,NA,NA,NA,sdf,NA,0,NA,NA,NA,NA,NA,NA,NA,NA,NA,NA,NA,NA,NA,NA,NA,NA,NA,NA,NA
57825,Deep Question,html.Page,3_0_1_0_0_0_0,NA,NA,form submission,10777.6,404667,404667.6,404683.9,415461.5,415461.69999981,2024-03-16T10:54:09Z,415483.9,NULL,Notfall,dharura,d,NA,NA,NA,Notfall,NA,NA,1,NA,NA,NA,NA,NA,NA,NA,NA,NA,NA,NA,NA,NA,NA,NA,NA,NA,NA,NA
57825,"""Richtig""-Screen",canvas.Screen,3_0_1_0_0_0_1,NA,NA,skipped,NA,415463.60000038,NA,NA,415461.5,415463.69999981,2024-03-16T10:54:09Z,415483.9,NULL,Notfall,dharura,d,NA,NA,NA,NA,sdfdsf,NA,1,NA,NA,NA,NA,NA,NA,NA,NA,NA,NA,NA,NA,NA,NA,NA,NA,NA,NA,NA
57825,"""Falsch""-Screen",canvas.Screen,3_0_1_0_0_0_2,NA,NA,timeout,5000,415464.30000019,415467.332,415483.9,420467.2,420467.90000057,2024-03-16T10:54:14Z,420483.9,NULL,Notfall,dharura,d,NA,NA,NA,NA,sdfdsf,0,1,NA,NA,NA,NA,NA,NA,NA,NA,NA,NA,NA,NA,NA,NA,NA,NA,NA,NA,NA
57825,deep,flow.Sequence,3_0_1_0_0_0,NA,NA,completion,15783.3,404667,404667.6,404683.9,420467.2,420468.10000038,2024-03-16T10:54:14Z,420483.9,NULL,Notfall,dharura,d,NA,NA,NA,NA,sdfdsf,NA,1,NA,NA,NA,NA,NA,NA,NA,NA,NA,NA,NA,NA,NA,NA,NA,NA,NA,NA,NA
57825,shallow,flow.Sequence,3_0_1_0_0_1,NA,NA,skipped,NA,420468.30000019,NA,NA,420467.2,420468.30000019,2024-03-16T10:54:14Z,420483.9,NULL,Notfall,dharura,d,NA,NA,NA,NA,sdfdsf,NA,1,NA,NA,NA,NA,NA,NA,NA,NA,NA,NA,NA,NA,NA,NA,NA,NA,NA,NA,NA
57825,task,flow.Sequence,3_0_1_0_0,NA,NA,completion,15783.3,404667,404667.6,404683.9,420467.2,420468.5,2024-03-16T10:54:14Z,420483.9,NULL,Notfall,dharura,d,NA,NA,NA,NA,sdfdsf,NA,1,NA,NA,NA,NA,NA,NA,NA,NA,NA,NA,NA,NA,NA,NA,NA,NA,NA,NA,NA
57825,Deep Question,html.Page,3_0_1_0_1_0_0,NA,NA,form submission,4006.2999998092,420468.60000038,420467.2,420483.9,424490.19999981,424490.5,2024-03-16T10:54:18Z,424500.4,NULL,Orientierung,urekebisho,d,NA,NA,NA,Orientierung,NA,NA,1,NA,NA,NA,NA,NA,NA,NA,NA,NA,NA,NA,NA,NA,NA,NA,NA,NA,NA,NA
57825,"""Richtig""-Screen",canvas.Screen,3_0_1_0_1_0_1,NA,NA,skipped,NA,424492.10000038,NA,NA,424490.19999981,424492.30000019,2024-03-16T10:54:18Z,424500.4,NULL,Orientierung,urekebisho,d,NA,NA,NA,NA,sdfdsf,NA,1,NA,NA,NA,NA,NA,NA,NA,NA,NA,NA,NA,NA,NA,NA,NA,NA,NA,NA,NA
57825,"""Falsch""-Screen",canvas.Screen,3_0_1_0_1_0_2,NA,NA,timeout,5000.2,424492.80000019,424483.89,424500.4,429483.9,429484.69999981,2024-03-16T10:54:23Z,429500.6,NULL,Orientierung,urekebisho,d,NA,NA,NA,NA,sdfdsf,0,1,NA,NA,NA,NA,NA,NA,NA,NA,NA,NA,NA,NA,NA,NA,NA,NA,NA,NA,NA
57825,deep,flow.Sequence,3_0_1_0_1_0,NA,NA,completion,9000,420468.5,420467.2,420483.9,429483.9,429485,2024-03-16T10:54:23Z,429500.6,NULL,Orientierung,urekebisho,d,NA,NA,NA,NA,sdfdsf,NA,1,NA,NA,NA,NA,NA,NA,NA,NA,NA,NA,NA,NA,NA,NA,NA,NA,NA,NA,NA
57825,shallow,flow.Sequence,3_0_1_0_1_1,NA,NA,skipped,NA,429485.10000038,NA,NA,429483.9,429485.19999981,2024-03-16T10:54:23Z,429500.6,NULL,Orientierung,urekebisho,d,NA,NA,NA,NA,sdfdsf,NA,1,NA,NA,NA,NA,NA,NA,NA,NA,NA,NA,NA,NA,NA,NA,NA,NA,NA,NA,NA
57825,task,flow.Sequence,3_0_1_0_1,NA,NA,completion,9000,420468.5,420467.2,420483.9,429483.9,429485.19999981,2024-03-16T10:54:23Z,429500.6,NULL,Orientierung,urekebisho,d,NA,NA,NA,NA,sdfdsf,NA,1,NA,NA,NA,NA,NA,NA,NA,NA,NA,NA,NA,NA,NA,NA,NA,NA,NA,NA,NA
57825,Deep Question,html.Page,3_0_1_0_2_0_0,NA,NA,form submission,3456.9,429485.40000057,429483.9,429500.6,432957.5,432957.69999981,2024-03-16T10:54:26Z,432967,NULL,Vergnügen,kichekesho,d,NA,NA,NA,Vergnügen,NA,NA,1,NA,NA,NA,NA,NA,NA,NA,NA,NA,NA,NA,NA,NA,NA,NA,NA,NA,NA,NA
57825,"""Richtig""-Screen",canvas.Screen,3_0_1_0_2_0_1,NA,NA,skipped,NA,432959.40000057,NA,NA,432957.5,432959.60000038,2024-03-16T10:54:26Z,432967,NULL,Vergnügen,kichekesho,d,NA,NA,NA,NA,sdfdsf,NA,1,NA,NA,NA,NA,NA,NA,NA,NA,NA,NA,NA,NA,NA,NA,NA,NA,NA,NA,NA
57825,"""Falsch""-Screen",canvas.Screen,3_0_1_0_2_0_2,NA,NA,timeout,5000,432960,432950.874,432967,437950.3,437951,2024-03-16T10:54:31Z,437967,NULL,Vergnügen,kichekesho,d,NA,NA,NA,NA,sdfdsf,0,1,NA,NA,NA,NA,NA,NA,NA,NA,NA,NA,NA,NA,NA,NA,NA,NA,NA,NA,NA
57825,deep,flow.Sequence,3_0_1_0_2_0,NA,NA,completion,8449.7,429485.40000057,429483.9,429500.6,437950.3,437951.30000019,2024-03-16T10:54:31Z,437967,NULL,Vergnügen,kichekesho,d,NA,NA,NA,NA,sdfdsf,NA,1,NA,NA,NA,NA,NA,NA,NA,NA,NA,NA,NA,NA,NA,NA,NA,NA,NA,NA,NA
57825,shallow,flow.Sequence,3_0_1_0_2_1,NA,NA,skipped,NA,437951.5,NA,NA,437950.3,437951.60000038,2024-03-16T10:54:31Z,437967,NULL,Vergnügen,kichekesho,d,NA,NA,NA,NA,sdfdsf,NA,1,NA,NA,NA,NA,NA,NA,NA,NA,NA,NA,NA,NA,NA,NA,NA,NA,NA,NA,NA
57825,task,flow.Sequence,3_0_1_0_2,NA,NA,completion,8449.7,429485.30000019,429483.9,429500.6,437950.3,437951.69999981,2024-03-16T10:54:31Z,437967,NULL,Vergnügen,kichekesho,d,NA,NA,NA,NA,sdfdsf,NA,1,NA,NA,NA,NA,NA,NA,NA,NA,NA,NA,NA,NA,NA,NA,NA,NA,NA,NA,NA
57825,deep,flow.Sequence,3_0_1_0_3_0,NA,NA,skipped,NA,437951.80000019,NA,NA,437950.3,437951.90000057,2024-03-16T10:54:31Z,437967,NULL,Betrüger,mdanganyifu,s,mwanamuziki,wastani,mahakama,NA,sdfdsf,NA,1,NA,NA,NA,NA,NA,NA,NA,NA,NA,NA,NA,NA,NA,NA,NA,NA,NA,NA,NA
57825,Shallow Question,html.Page,3_0_1_0_3_1_0,NA,NA,form submission,5245.5,437952.10000038,437950.3,437967,443212.5,443212.80000019,2024-03-16T10:54:37Z,443217,NULL,Betrüger,mdanganyifu,s,mwanamuziki,wastani,mahakama,mahakama,NA,NA,1,NA,NA,NA,NA,NA,NA,NA,NA,NA,NA,NA,NA,NA,NA,NA,NA,NA,NA,NA
57825,"""Richtig""-Screen",canvas.Screen,3_0_1_0_3_1_1,NA,NA,skipped,NA,443214.60000038,NA,NA,443212.5,443214.69999981,2024-03-16T10:54:37Z,443217,NULL,Betrüger,mdanganyifu,s,mwanamuziki,wastani,mahakama,NA,sdfdsf,NA,1,NA,NA,NA,NA,NA,NA,NA,NA,NA,NA,NA,NA,NA,NA,NA,NA,NA,NA,NA
57825,"""Falsch""-Screen",canvas.Screen,3_0_1_0_3_1_2,NA,NA,timeout,5000.2,443215.19999981,443200.578,443217,448200.5,448201.40000057,2024-03-16T10:54:42Z,448217.2,NULL,Betrüger,mdanganyifu,s,mwanamuziki,wastani,mahakama,NA,sdfdsf,0,1,NA,NA,NA,NA,NA,NA,NA,NA,NA,NA,NA,NA,NA,NA,NA,NA,NA,NA,NA
57825,shallow,flow.Sequence,3_0_1_0_3_1,NA,NA,completion,10233.5,437952,437950.3,437967,448200.5,448201.60000038,2024-03-16T10:54:42Z,448217.2,NULL,Betrüger,mdanganyifu,s,mwanamuziki,wastani,mahakama,NA,sdfdsf,NA,1,NA,NA,NA,NA,NA,NA,NA,NA,NA,NA,NA,NA,NA,NA,NA,NA,NA,NA,NA
57825,task,flow.Sequence,3_0_1_0_3,NA,NA,completion,10233.5,437951.80000019,437950.3,437967,448200.5,448201.69999981,2024-03-16T10:54:42Z,448217.2,NULL,Betrüger,mdanganyifu,s,mwanamuziki,wastani,mahakama,NA,sdfdsf,NA,1,NA,NA,NA,NA,NA,NA,NA,NA,NA,NA,NA,NA,NA,NA,NA,NA,NA,NA,NA
57825,Deep Question,html.Page,3_0_1_0_4_0_0,NA,NA,form submission,3756.9999998093,448202,448200.5,448217.2,451974.19999981,451974.5,2024-03-16T10:54:45Z,451983.7,NULL,Respekt,heshima,d,NA,NA,NA,Respekt,NA,NA,1,NA,NA,NA,NA,NA,NA,NA,NA,NA,NA,NA,NA,NA,NA,NA,NA,NA,NA,NA
57825,"""Richtig""-Screen",canvas.Screen,3_0_1_0_4_0_1,NA,NA,skipped,NA,451976.19999981,NA,NA,451974.19999981,451976.30000019,2024-03-16T10:54:45Z,451983.7,NULL,Respekt,heshima,d,NA,NA,NA,NA,sdfdsf,NA,1,NA,NA,NA,NA,NA,NA,NA,NA,NA,NA,NA,NA,NA,NA,NA,NA,NA,NA,NA
57825,"""Falsch""-Screen",canvas.Screen,3_0_1_0_4_0_2,NA,NA,timeout,5000.2,451976.90000057,451967.25,451983.7,456967.1,456968,2024-03-16T10:54:50Z,456983.9,NULL,Respekt,heshima,d,NA,NA,NA,NA,sdfdsf,0,1,NA,NA,NA,NA,NA,NA,NA,NA,NA,NA,NA,NA,NA,NA,NA,NA,NA,NA,NA
57825,deep,flow.Sequence,3_0_1_0_4_0,NA,NA,completion,8749.9,448201.90000057,448200.5,448217.2,456967.1,456968.30000019,2024-03-16T10:54:50Z,456983.9,NULL,Respekt,heshima,d,NA,NA,NA,NA,sdfdsf,NA,1,NA,NA,NA,NA,NA,NA,NA,NA,NA,NA,NA,NA,NA,NA,NA,NA,NA,NA,NA
57825,shallow,flow.Sequence,3_0_1_0_4_1,NA,NA,skipped,NA,456968.5,NA,NA,456967.1,456968.5,2024-03-16T10:54:50Z,456983.9,NULL,Respekt,heshima,d,NA,NA,NA,NA,sdfdsf,NA,1,NA,NA,NA,NA,NA,NA,NA,NA,NA,NA,NA,NA,NA,NA,NA,NA,NA,NA,NA
57825,task,flow.Sequence,3_0_1_0_4,NA,NA,completion,8749.9,448201.80000019,448200.5,448217.2,456967.1,456968.69999981,2024-03-16T10:54:50Z,456983.9,NULL,Respekt,heshima,d,NA,NA,NA,NA,sdfdsf,NA,1,NA,NA,NA,NA,NA,NA,NA,NA,NA,NA,NA,NA,NA,NA,NA,NA,NA,NA,NA
57825,deep,flow.Sequence,3_0_1_0_5_0,NA,NA,skipped,NA,456968.69999981,NA,NA,456967.1,456968.80000019,2024-03-16T10:54:50Z,456983.9,NULL,Stimmung,kinyongo,s,kilekile,kisambo,madhehebu,NA,sdfdsf,NA,1,NA,NA,NA,NA,NA,NA,NA,NA,NA,NA,NA,NA,NA,NA,NA,NA,NA,NA,NA
57825,Shallow Question,html.Page,3_0_1_0_5_1_0,NA,NA,form submission,5413.9000001907,456968.90000057,456967.1,456983.9,462397.80000019,462398,2024-03-16T10:54:56Z,462400.596,NULL,Stimmung,kinyongo,s,kilekile,kisambo,madhehebu,kisambo,NA,NA,1,NA,NA,NA,NA,NA,NA,NA,NA,NA,NA,NA,NA,NA,NA,NA,NA,NA,NA,NA
57825,"""Richtig""-Screen",canvas.Screen,3_0_1_0_5_1_1,NA,NA,skipped,NA,462399.60000038,NA,NA,462397.80000019,462399.80000019,2024-03-16T10:54:56Z,462400.596,NULL,Stimmung,kinyongo,s,kilekile,kisambo,madhehebu,NA,sdfdsf,NA,1,NA,NA,NA,NA,NA,NA,NA,NA,NA,NA,NA,NA,NA,NA,NA,NA,NA,NA,NA
57825,"""Falsch""-Screen",canvas.Screen,3_0_1_0_5_1_2,NA,NA,timeout,5000.004,462400.60000038,462400.596,462400.596,467383.8,467384.69999981,2024-03-16T10:55:01Z,467400.6,NULL,Stimmung,kinyongo,s,kilekile,kisambo,madhehebu,NA,sdfdsf,0,1,NA,NA,NA,NA,NA,NA,NA,NA,NA,NA,NA,NA,NA,NA,NA,NA,NA,NA,NA
57825,shallow,flow.Sequence,3_0_1_0_5_1,NA,NA,completion,10399.9,456968.90000057,456967.1,456983.9,467383.8,467384.90000057,2024-03-16T10:55:01Z,467400.6,NULL,Stimmung,kinyongo,s,kilekile,kisambo,madhehebu,NA,sdfdsf,NA,1,NA,NA,NA,NA,NA,NA,NA,NA,NA,NA,NA,NA,NA,NA,NA,NA,NA,NA,NA
57825,task,flow.Sequence,3_0_1_0_5,NA,NA,completion,10399.9,456968.69999981,456967.1,456983.9,467383.8,467385.10000038,2024-03-16T10:55:01Z,467400.6,NULL,Stimmung,kinyongo,s,kilekile,kisambo,madhehebu,NA,sdfdsf,NA,1,NA,NA,NA,NA,NA,NA,NA,NA,NA,NA,NA,NA,NA,NA,NA,NA,NA,NA,NA
57825,deep,flow.Sequence,3_0_1_0_6_0,NA,NA,skipped,NA,467385.10000038,NA,NA,467383.8,467385.19999981,2024-03-16T10:55:01Z,467400.6,NULL,Wohlstand,mafanikio,s,chimbuko,kumbuko,mapwaji,NA,sdfdsf,NA,1,NA,NA,NA,NA,NA,NA,NA,NA,NA,NA,NA,NA,NA,NA,NA,NA,NA,NA,NA
57825,Shallow Question,html.Page,3_0_1_0_6_1_0,NA,NA,form submission,5713.8000005722,467385.30000019,467383.8,467400.6,473114.40000057,473114.60000038,2024-03-16T10:55:07Z,473133.6,NULL,Wohlstand,mafanikio,s,chimbuko,kumbuko,mapwaji,mafanikio,NA,NA,1,NA,NA,NA,NA,NA,NA,NA,NA,NA,NA,NA,NA,NA,NA,NA,NA,NA,NA,NA
57825,"""Richtig""-Screen",canvas.Screen,3_0_1_0_6_1_1,NA,NA,timeout,5000.1,473116.19999981,473116.9,473133.6,478117.1,478117.90000057,2024-03-16T10:55:12Z,478133.7,NULL,Wohlstand,mafanikio,s,chimbuko,kumbuko,mapwaji,NA,sdfdsf,1,1,NA,NA,NA,NA,NA,NA,NA,NA,NA,NA,NA,NA,NA,NA,NA,NA,NA,NA,NA
57825,"""Falsch""-Screen",canvas.Screen,3_0_1_0_6_1_2,NA,NA,skipped,NA,478122,NA,NA,478117.1,478122.30000019,2024-03-16T10:55:12Z,478133.7,NULL,Wohlstand,mafanikio,s,chimbuko,kumbuko,mapwaji,NA,sdfdsf,NA,1,NA,NA,NA,NA,NA,NA,NA,NA,NA,NA,NA,NA,NA,NA,NA,NA,NA,NA,NA
57825,shallow,flow.Sequence,3_0_1_0_6_1,NA,NA,completion,10716.5,467385.30000019,467383.8,467400.6,478117.1,478122.40000057,2024-03-16T10:55:12Z,478133.7,NULL,Wohlstand,mafanikio,s,chimbuko,kumbuko,mapwaji,NA,sdfdsf,NA,1,NA,NA,NA,NA,NA,NA,NA,NA,NA,NA,NA,NA,NA,NA,NA,NA,NA,NA,NA
57825,task,flow.Sequence,3_0_1_0_6,NA,NA,completion,10716.5,467385.10000038,467383.8,467400.6,478117.1,478122.60000038,2024-03-16T10:55:12Z,478133.7,NULL,Wohlstand,mafanikio,s,chimbuko,kumbuko,mapwaji,NA,sdfdsf,NA,1,NA,NA,NA,NA,NA,NA,NA,NA,NA,NA,NA,NA,NA,NA,NA,NA,NA,NA,NA
57825,deep,flow.Sequence,3_0_1_0_7_0,NA,NA,skipped,NA,478122.69999981,NA,NA,478117.1,478122.80000019,2024-03-16T10:55:12Z,478133.7,NULL,Ergänzung,kijalizo,s,ulaghai,mustarehe,matangazo,NA,sdfdsf,NA,1,NA,NA,NA,NA,NA,NA,NA,NA,NA,NA,NA,NA,NA,NA,NA,NA,NA,NA,NA
57825,Shallow Question,html.Page,3_0_1_0_7_1_0,NA,NA,form submission,20276.900000381,478122.90000057,478117.1,478133.7,498410.60000038,498410.90000057,2024-03-16T10:55:32Z,498433.8,NULL,Ergänzung,kijalizo,s,ulaghai,mustarehe,matangazo,kijalizo,NA,NA,1,NA,NA,NA,NA,NA,NA,NA,NA,NA,NA,NA,NA,NA,NA,NA,NA,NA,NA,NA
57825,"""Richtig""-Screen",canvas.Screen,3_0_1_0_7_1_1,NA,NA,timeout,4999.9,498413,498417.228,498433.8,503417.1,503417.90000057,2024-03-16T10:55:37Z,503433.7,NULL,Ergänzung,kijalizo,s,ulaghai,mustarehe,matangazo,NA,sdfdsf,1,1,NA,NA,NA,NA,NA,NA,NA,NA,NA,NA,NA,NA,NA,NA,NA,NA,NA,NA,NA
57825,"""Falsch""-Screen",canvas.Screen,3_0_1_0_7_1_2,NA,NA,skipped,NA,503422.30000019,NA,NA,503417.1,503422.5,2024-03-16T10:55:37Z,503433.7,NULL,Ergänzung,kijalizo,s,ulaghai,mustarehe,matangazo,NA,sdfdsf,NA,1,NA,NA,NA,NA,NA,NA,NA,NA,NA,NA,NA,NA,NA,NA,NA,NA,NA,NA,NA
57825,shallow,flow.Sequence,3_0_1_0_7_1,NA,NA,completion,25283.4,478122.90000057,478117.1,478133.7,503417.1,503422.69999981,2024-03-16T10:55:37Z,503433.7,NULL,Ergänzung,kijalizo,s,ulaghai,mustarehe,matangazo,NA,sdfdsf,NA,1,NA,NA,NA,NA,NA,NA,NA,NA,NA,NA,NA,NA,NA,NA,NA,NA,NA,NA,NA
57825,task,flow.Sequence,3_0_1_0_7,NA,NA,completion,25283.4,478122.60000038,478117.1,478133.7,503417.1,503422.80000019,2024-03-16T10:55:37Z,503433.7,NULL,Ergänzung,kijalizo,s,ulaghai,mustarehe,matangazo,NA,sdfdsf,NA,1,NA,NA,NA,NA,NA,NA,NA,NA,NA,NA,NA,NA,NA,NA,NA,NA,NA,NA,NA
57825,block,flow.Loop,3_0_1_0,NA,NA,completion,98733.2,404667,404667.6,404683.9,503417.1,503423,2024-03-16T10:55:37Z,503433.7,NULL,NA,NA,NA,NA,NA,NA,NA,sdfdsf,NA,1,NA,NA,NA,NA,NA,NA,NA,NA,NA,NA,NA,NA,NA,NA,NA,NA,NA,NA,NA
57825,weiter,canvas.Screen,3_0_1_1,sdf,keypress(Space),response,1862.8,503423.10000038,503417.1,503433.7,505296.5,505297.30000019,2024-03-16T10:55:39Z,505350.4,NULL,NA,NA,NA,NA,NA,NA,NA,sdfdsf,NA,1,NA,NA,NA,NA,NA,NA,NA,NA,NA,NA,NA,NA,NA,NA,NA,NA,NA,NA,NA
57825,check continue,flow.Sequence,3_0_1,NA,NA,completion,100612.6,404667,404667.6,404683.9,505296.5,505297.60000038,2024-03-16T10:55:39Z,505350.4,NULL,NA,NA,NA,NA,NA,NA,NA,sdfdsf,NA,1,NA,NA,NA,NA,NA,NA,NA,NA,NA,NA,NA,NA,NA,NA,NA,NA,NA,NA,NA
57825,Deep Question,html.Page,3_0_2_0_0_0_0,NA,NA,form submission,6806.9000001907,505338.60000038,505333.7,505350.4,512157.30000019,512157.5,2024-03-16T10:55:46Z,512167,NULL,Respekt,heshima,d,NA,NA,NA,Respekt,NA,NA,2,NA,NA,NA,NA,NA,NA,NA,NA,NA,NA,NA,NA,NA,NA,NA,NA,NA,NA,NA
57825,"""Richtig""-Screen",canvas.Screen,3_0_2_0_0_0_1,NA,NA,skipped,NA,512159.10000038,NA,NA,512157.30000019,512159.30000019,2024-03-16T10:55:46Z,512167,NULL,Respekt,heshima,d,NA,NA,NA,NA,sdf,NA,2,NA,NA,NA,NA,NA,NA,NA,NA,NA,NA,NA,NA,NA,NA,NA,NA,NA,NA,NA
57825,"""Falsch""-Screen",canvas.Screen,3_0_2_0_0_0_2,NA,NA,timeout,5000.1,512159.80000019,512150.5,512167,517150.4,517151.19999981,2024-03-16T10:55:51Z,517167.1,NULL,Respekt,heshima,d,NA,NA,NA,NA,sdf,0,2,NA,NA,NA,NA,NA,NA,NA,NA,NA,NA,NA,NA,NA,NA,NA,NA,NA,NA,NA
57825,deep,flow.Sequence,3_0_2_0_0_0,NA,NA,completion,11800,505338.60000038,505333.7,505350.4,517150.4,517151.5,2024-03-16T10:55:51Z,517167.1,NULL,Respekt,heshima,d,NA,NA,NA,NA,sdf,NA,2,NA,NA,NA,NA,NA,NA,NA,NA,NA,NA,NA,NA,NA,NA,NA,NA,NA,NA,NA
57825,shallow,flow.Sequence,3_0_2_0_0_1,NA,NA,skipped,NA,517151.5,NA,NA,517150.4,517151.69999981,2024-03-16T10:55:51Z,517167.1,NULL,Respekt,heshima,d,NA,NA,NA,NA,sdf,NA,2,NA,NA,NA,NA,NA,NA,NA,NA,NA,NA,NA,NA,NA,NA,NA,NA,NA,NA,NA
57825,task,flow.Sequence,3_0_2_0_0,NA,NA,completion,11800,505338.60000038,505333.7,505350.4,517150.4,517151.80000019,2024-03-16T10:55:51Z,517167.1,NULL,Respekt,heshima,d,NA,NA,NA,NA,sdf,NA,2,NA,NA,NA,NA,NA,NA,NA,NA,NA,NA,NA,NA,NA,NA,NA,NA,NA,NA,NA
57825,Deep Question,html.Page,3_0_2_0_1_0_0,NA,NA,form submission,4428.2000001908,517151.90000057,517150.4,517167.1,521595.30000019,521595.5,2024-03-16T10:55:55Z,521603.2,NULL,Vergnügen,kichekesho,d,NA,NA,NA,Vergnügen,NA,NA,2,NA,NA,NA,NA,NA,NA,NA,NA,NA,NA,NA,NA,NA,NA,NA,NA,NA,NA,NA
57825,"""Richtig""-Screen",canvas.Screen,3_0_2_0_1_0_1,NA,NA,skipped,NA,521597.19999981,NA,NA,521595.30000019,521597.19999981,2024-03-16T10:55:55Z,521603.2,NULL,Vergnügen,kichekesho,d,NA,NA,NA,NA,sdf,NA,2,NA,NA,NA,NA,NA,NA,NA,NA,NA,NA,NA,NA,NA,NA,NA,NA,NA,NA,NA
57825,"""Falsch""-Screen",canvas.Screen,3_0_2_0_1_0_2,NA,NA,timeout,4997.2,521597.69999981,521583.876,521603.2,526583.7,526584.40000057,2024-03-16T10:56:00Z,526600.4,NULL,Vergnügen,kichekesho,d,NA,NA,NA,NA,sdf,0,2,NA,NA,NA,NA,NA,NA,NA,NA,NA,NA,NA,NA,NA,NA,NA,NA,NA,NA,NA
57825,deep,flow.Sequence,3_0_2_0_1_0,NA,NA,completion,9416.6,517151.90000057,517150.4,517167.1,526583.7,526584.80000019,2024-03-16T10:56:00Z,526600.4,NULL,Vergnügen,kichekesho,d,NA,NA,NA,NA,sdf,NA,2,NA,NA,NA,NA,NA,NA,NA,NA,NA,NA,NA,NA,NA,NA,NA,NA,NA,NA,NA
57825,shallow,flow.Sequence,3_0_2_0_1_1,NA,NA,skipped,NA,526584.90000057,NA,NA,526583.7,526585.10000038,2024-03-16T10:56:00Z,526600.4,NULL,Vergnügen,kichekesho,d,NA,NA,NA,NA,sdf,NA,2,NA,NA,NA,NA,NA,NA,NA,NA,NA,NA,NA,NA,NA,NA,NA,NA,NA,NA,NA
57825,task,flow.Sequence,3_0_2_0_1,NA,NA,completion,9416.6,517151.80000019,517150.4,517167.1,526583.7,526585.19999981,2024-03-16T10:56:00Z,526600.4,NULL,Vergnügen,kichekesho,d,NA,NA,NA,NA,sdf,NA,2,NA,NA,NA,NA,NA,NA,NA,NA,NA,NA,NA,NA,NA,NA,NA,NA,NA,NA,NA
57825,deep,flow.Sequence,3_0_2_0_2_0,NA,NA,skipped,NA,526585.30000019,NA,NA,526583.7,526585.40000057,2024-03-16T10:56:00Z,526600.4,NULL,Stimmung,kinyongo,s,kilekile,kisambo,madhehebu,NA,sdf,NA,2,NA,NA,NA,NA,NA,NA,NA,NA,NA,NA,NA,NA,NA,NA,NA,NA,NA,NA,NA
57825,Shallow Question,html.Page,3_0_2_0_2_1_0,NA,NA,form submission,10656.900000191,526585.5,526583.7,526600.4,537257.30000019,537257.60000038,2024-03-16T10:56:11Z,537266.8,NULL,Stimmung,kinyongo,s,kilekile,kisambo,madhehebu,kinyongo,NA,NA,2,NA,NA,NA,NA,NA,NA,NA,NA,NA,NA,NA,NA,NA,NA,NA,NA,NA,NA,NA
57825,"""Richtig""-Screen",canvas.Screen,3_0_2_0_2_1_1,NA,NA,timeout,5000.2999999999,537259.30000019,537250.51,537266.8,542250.4,542251.19999981,2024-03-16T10:56:16Z,542267.1,NULL,Stimmung,kinyongo,s,kilekile,kisambo,madhehebu,NA,sdf,1,2,NA,NA,NA,NA,NA,NA,NA,NA,NA,NA,NA,NA,NA,NA,NA,NA,NA,NA,NA
57825,"""Falsch""-Screen",canvas.Screen,3_0_2_0_2_1_2,NA,NA,skipped,NA,542255.19999981,NA,NA,542250.4,542255.30000019,2024-03-16T10:56:16Z,542267.1,NULL,Stimmung,kinyongo,s,kilekile,kisambo,madhehebu,NA,sdf,NA,2,NA,NA,NA,NA,NA,NA,NA,NA,NA,NA,NA,NA,NA,NA,NA,NA,NA,NA,NA
57825,shallow,flow.Sequence,3_0_2_0_2_1,NA,NA,completion,15650,526585.40000057,526583.7,526600.4,542250.4,542255.60000038,2024-03-16T10:56:16Z,542267.1,NULL,Stimmung,kinyongo,s,kilekile,kisambo,madhehebu,NA,sdf,NA,2,NA,NA,NA,NA,NA,NA,NA,NA,NA,NA,NA,NA,NA,NA,NA,NA,NA,NA,NA
57825,task,flow.Sequence,3_0_2_0_2,NA,NA,completion,15650,526585.30000019,526583.7,526600.4,542250.4,542255.69999981,2024-03-16T10:56:16Z,542267.1,NULL,Stimmung,kinyongo,s,kilekile,kisambo,madhehebu,NA,sdf,NA,2,NA,NA,NA,NA,NA,NA,NA,NA,NA,NA,NA,NA,NA,NA,NA,NA,NA,NA,NA
57825,deep,flow.Sequence,3_0_2_0_3_0,NA,NA,skipped,NA,542255.80000019,NA,NA,542250.4,542255.80000019,2024-03-16T10:56:16Z,542267.1,NULL,Betrüger,mdanganyifu,s,mwanamuziki,wastani,mahakama,NA,sdf,NA,2,NA,NA,NA,NA,NA,NA,NA,NA,NA,NA,NA,NA,NA,NA,NA,NA,NA,NA,NA
57825,Shallow Question,html.Page,3_0_2_0_3_1_0,NA,NA,form submission,5457.0999998093,542256,542250.4,542267.1,547724.19999981,547724.40000057,2024-03-16T10:56:21Z,547733.7,NULL,Betrüger,mdanganyifu,s,mwanamuziki,wastani,mahakama,mdanganyifu,NA,NA,2,NA,NA,NA,NA,NA,NA,NA,NA,NA,NA,NA,NA,NA,NA,NA,NA,NA,NA,NA
57825,"""Richtig""-Screen",canvas.Screen,3_0_2_0_3_1_1,NA,NA,timeout,5000,547726,547717.214,547733.7,552717.1,552718.10000038,2024-03-16T10:56:26Z,552733.7,NULL,Betrüger,mdanganyifu,s,mwanamuziki,wastani,mahakama,NA,sdf,1,2,NA,NA,NA,NA,NA,NA,NA,NA,NA,NA,NA,NA,NA,NA,NA,NA,NA,NA,NA
57825,"""Falsch""-Screen",canvas.Screen,3_0_2_0_3_1_2,NA,NA,skipped,NA,552722,NA,NA,552717.1,552722.30000019,2024-03-16T10:56:26Z,552733.7,NULL,Betrüger,mdanganyifu,s,mwanamuziki,wastani,mahakama,NA,sdf,NA,2,NA,NA,NA,NA,NA,NA,NA,NA,NA,NA,NA,NA,NA,NA,NA,NA,NA,NA,NA
57825,shallow,flow.Sequence,3_0_2_0_3_1,NA,NA,completion,10450,542255.90000057,542250.4,542267.1,552717.1,552722.5,2024-03-16T10:56:26Z,552733.7,NULL,Betrüger,mdanganyifu,s,mwanamuziki,wastani,mahakama,NA,sdf,NA,2,NA,NA,NA,NA,NA,NA,NA,NA,NA,NA,NA,NA,NA,NA,NA,NA,NA,NA,NA
57825,task,flow.Sequence,3_0_2_0_3,NA,NA,completion,10450,542255.80000019,542250.4,542267.1,552717.1,552722.60000038,2024-03-16T10:56:26Z,552733.7,NULL,Betrüger,mdanganyifu,s,mwanamuziki,wastani,mahakama,NA,sdf,NA,2,NA,NA,NA,NA,NA,NA,NA,NA,NA,NA,NA,NA,NA,NA,NA,NA,NA,NA,NA
57825,Deep Question,html.Page,3_0_2_0_4_0_0,NA,NA,form submission,7120.4999998093,552722.80000019,552717.1,552733.7,559854.19999981,559854.5,2024-03-16T10:56:33Z,559867.1,NULL,Notfall,dharura,d,NA,NA,NA,Notfall,NA,NA,2,NA,NA,NA,NA,NA,NA,NA,NA,NA,NA,NA,NA,NA,NA,NA,NA,NA,NA,NA
57825,"""Richtig""-Screen",canvas.Screen,3_0_2_0_4_0_1,NA,NA,skipped,NA,559856.10000038,NA,NA,559854.19999981,559856.19999981,2024-03-16T10:56:33Z,559867.1,NULL,Notfall,dharura,d,NA,NA,NA,NA,sdf,NA,2,NA,NA,NA,NA,NA,NA,NA,NA,NA,NA,NA,NA,NA,NA,NA,NA,NA,NA,NA
57825,"""Falsch""-Screen",canvas.Screen,3_0_2_0_4_0_2,NA,NA,timeout,5000,559856.80000019,559852.054,559867.1,564850.3,564851,2024-03-16T10:56:38Z,564867.1,NULL,Notfall,dharura,d,NA,NA,NA,NA,sdf,0,2,NA,NA,NA,NA,NA,NA,NA,NA,NA,NA,NA,NA,NA,NA,NA,NA,NA,NA,NA
57825,deep,flow.Sequence,3_0_2_0_4_0,NA,NA,completion,12116.6,552722.69999981,552717.1,552733.7,564850.3,564851.30000019,2024-03-16T10:56:38Z,564867.1,NULL,Notfall,dharura,d,NA,NA,NA,NA,sdf,NA,2,NA,NA,NA,NA,NA,NA,NA,NA,NA,NA,NA,NA,NA,NA,NA,NA,NA,NA,NA
57825,shallow,flow.Sequence,3_0_2_0_4_1,NA,NA,skipped,NA,564851.40000057,NA,NA,564850.3,564851.5,2024-03-16T10:56:38Z,564867.1,NULL,Notfall,dharura,d,NA,NA,NA,NA,sdf,NA,2,NA,NA,NA,NA,NA,NA,NA,NA,NA,NA,NA,NA,NA,NA,NA,NA,NA,NA,NA
57825,task,flow.Sequence,3_0_2_0_4,NA,NA,completion,12116.6,552722.69999981,552717.1,552733.7,564850.3,564851.60000038,2024-03-16T10:56:38Z,564867.1,NULL,Notfall,dharura,d,NA,NA,NA,NA,sdf,NA,2,NA,NA,NA,NA,NA,NA,NA,NA,NA,NA,NA,NA,NA,NA,NA,NA,NA,NA,NA
57825,Deep Question,html.Page,3_0_2_0_5_0_0,NA,NA,form submission,4929.2000001908,564851.69999981,564850.3,564867.1,569796.30000019,569796.60000038,2024-03-16T10:56:43Z,569800.412,NULL,Orientierung,urekebisho,d,NA,NA,NA,Orientierung,NA,NA,2,NA,NA,NA,NA,NA,NA,NA,NA,NA,NA,NA,NA,NA,NA,NA,NA,NA,NA,NA
57825,"""Richtig""-Screen",canvas.Screen,3_0_2_0_5_0_1,NA,NA,skipped,NA,569798.30000019,NA,NA,569796.30000019,569798.40000057,2024-03-16T10:56:43Z,569800.412,NULL,Orientierung,urekebisho,d,NA,NA,NA,NA,sdf,NA,2,NA,NA,NA,NA,NA,NA,NA,NA,NA,NA,NA,NA,NA,NA,NA,NA,NA,NA,NA
57825,"""Falsch""-Screen",canvas.Screen,3_0_2_0_5_0_2,NA,NA,timeout,4999.988,569798.90000057,569800.412,569800.412,574783.7,574784.5,2024-03-16T10:56:48Z,574800.4,NULL,Orientierung,urekebisho,d,NA,NA,NA,NA,sdf,0,2,NA,NA,NA,NA,NA,NA,NA,NA,NA,NA,NA,NA,NA,NA,NA,NA,NA,NA,NA
57825,deep,flow.Sequence,3_0_2_0_5_0,NA,NA,completion,9916.6,564851.69999981,564850.3,564867.1,574783.7,574784.90000057,2024-03-16T10:56:48Z,574800.4,NULL,Orientierung,urekebisho,d,NA,NA,NA,NA,sdf,NA,2,NA,NA,NA,NA,NA,NA,NA,NA,NA,NA,NA,NA,NA,NA,NA,NA,NA,NA,NA
57825,shallow,flow.Sequence,3_0_2_0_5_1,NA,NA,skipped,NA,574785,NA,NA,574783.7,574785.10000038,2024-03-16T10:56:48Z,574800.4,NULL,Orientierung,urekebisho,d,NA,NA,NA,NA,sdf,NA,2,NA,NA,NA,NA,NA,NA,NA,NA,NA,NA,NA,NA,NA,NA,NA,NA,NA,NA,NA
57825,task,flow.Sequence,3_0_2_0_5,NA,NA,completion,9916.6,564851.60000038,564850.3,564867.1,574783.7,574785.19999981,2024-03-16T10:56:48Z,574800.4,NULL,Orientierung,urekebisho,d,NA,NA,NA,NA,sdf,NA,2,NA,NA,NA,NA,NA,NA,NA,NA,NA,NA,NA,NA,NA,NA,NA,NA,NA,NA,NA
57825,deep,flow.Sequence,3_0_2_0_6_0,NA,NA,skipped,NA,574785.30000019,NA,NA,574783.7,574785.30000019,2024-03-16T10:56:48Z,574800.4,NULL,Wohlstand,mafanikio,s,chimbuko,kumbuko,mapwaji,NA,sdf,NA,2,NA,NA,NA,NA,NA,NA,NA,NA,NA,NA,NA,NA,NA,NA,NA,NA,NA,NA,NA
57825,Shallow Question,html.Page,3_0_2_0_6_1_0,NA,NA,form submission,29804.799999809,574785.5,574783.7,574800.4,604605.19999981,604605.30000019,2024-03-16T10:57:18Z,604616.8,NULL,Wohlstand,mafanikio,s,chimbuko,kumbuko,mapwaji,mafanikio,NA,NA,2,NA,NA,NA,NA,NA,NA,NA,NA,NA,NA,NA,NA,NA,NA,NA,NA,NA,NA,NA
57825,"""Richtig""-Screen",canvas.Screen,3_0_2_0_6_1_1,NA,NA,timeout,5000.2999999999,604607.10000038,604600.562,604616.8,609600.3,609601,2024-03-16T10:57:23Z,609617.1,NULL,Wohlstand,mafanikio,s,chimbuko,kumbuko,mapwaji,NA,sdf,1,2,NA,NA,NA,NA,NA,NA,NA,NA,NA,NA,NA,NA,NA,NA,NA,NA,NA,NA,NA
57825,"""Falsch""-Screen",canvas.Screen,3_0_2_0_6_1_2,NA,NA,skipped,NA,609605,NA,NA,609600.3,609605.19999981,2024-03-16T10:57:23Z,609617.1,NULL,Wohlstand,mafanikio,s,chimbuko,kumbuko,mapwaji,NA,sdf,NA,2,NA,NA,NA,NA,NA,NA,NA,NA,NA,NA,NA,NA,NA,NA,NA,NA,NA,NA,NA
57825,shallow,flow.Sequence,3_0_2_0_6_1,NA,NA,completion,34799.9,574785.40000057,574783.7,574800.4,609600.3,609605.40000057,2024-03-16T10:57:23Z,609617.1,NULL,Wohlstand,mafanikio,s,chimbuko,kumbuko,mapwaji,NA,sdf,NA,2,NA,NA,NA,NA,NA,NA,NA,NA,NA,NA,NA,NA,NA,NA,NA,NA,NA,NA,NA
57825,task,flow.Sequence,3_0_2_0_6,NA,NA,completion,34799.9,574785.30000019,574783.7,574800.4,609600.3,609605.5,2024-03-16T10:57:23Z,609617.1,NULL,Wohlstand,mafanikio,s,chimbuko,kumbuko,mapwaji,NA,sdf,NA,2,NA,NA,NA,NA,NA,NA,NA,NA,NA,NA,NA,NA,NA,NA,NA,NA,NA,NA,NA
57825,deep,flow.Sequence,3_0_2_0_7_0,NA,NA,skipped,NA,609605.60000038,NA,NA,609600.3,609605.69999981,2024-03-16T10:57:23Z,609617.1,NULL,Ergänzung,kijalizo,s,ulaghai,mustarehe,matangazo,NA,sdf,NA,2,NA,NA,NA,NA,NA,NA,NA,NA,NA,NA,NA,NA,NA,NA,NA,NA,NA,NA,NA
57825,Shallow Question,html.Page,3_0_2_0_7_1_0,NA,NA,form submission,4143.4,609605.69999981,609600.3,609617.1,613760.5,613760.69999981,2024-03-16T10:57:27Z,613766.8,NULL,Ergänzung,kijalizo,s,ulaghai,mustarehe,matangazo,kijalizo,NA,NA,2,NA,NA,NA,NA,NA,NA,NA,NA,NA,NA,NA,NA,NA,NA,NA,NA,NA,NA,NA
57825,"""Richtig""-Screen",canvas.Screen,3_0_2_0_7_1_1,NA,NA,timeout,5000.2,613762.30000019,613750.436,613766.8,618750.3,618751,2024-03-16T10:57:32Z,618767,NULL,Ergänzung,kijalizo,s,ulaghai,mustarehe,matangazo,NA,sdf,1,2,NA,NA,NA,NA,NA,NA,NA,NA,NA,NA,NA,NA,NA,NA,NA,NA,NA,NA,NA
57825,"""Falsch""-Screen",canvas.Screen,3_0_2_0_7_1_2,NA,NA,skipped,NA,618755,NA,NA,618750.3,618755.19999981,2024-03-16T10:57:32Z,618767,NULL,Ergänzung,kijalizo,s,ulaghai,mustarehe,matangazo,NA,sdf,NA,2,NA,NA,NA,NA,NA,NA,NA,NA,NA,NA,NA,NA,NA,NA,NA,NA,NA,NA,NA
57825,shallow,flow.Sequence,3_0_2_0_7_1,NA,NA,completion,9133.2000000001,609605.69999981,609600.3,609617.1,618750.3,618755.40000057,2024-03-16T10:57:32Z,618767,NULL,Ergänzung,kijalizo,s,ulaghai,mustarehe,matangazo,NA,sdf,NA,2,NA,NA,NA,NA,NA,NA,NA,NA,NA,NA,NA,NA,NA,NA,NA,NA,NA,NA,NA
57825,task,flow.Sequence,3_0_2_0_7,NA,NA,completion,9133.2000000001,609605.60000038,609600.3,609617.1,618750.3,618755.5,2024-03-16T10:57:32Z,618767,NULL,Ergänzung,kijalizo,s,ulaghai,mustarehe,matangazo,NA,sdf,NA,2,NA,NA,NA,NA,NA,NA,NA,NA,NA,NA,NA,NA,NA,NA,NA,NA,NA,NA,NA
57825,block,flow.Loop,3_0_2_0,NA,NA,completion,113399.9,505338.60000038,505333.7,505350.4,618750.3,618755.60000038,2024-03-16T10:57:32Z,618767,NULL,NA,NA,NA,NA,NA,NA,NA,sdf,NA,2,NA,NA,NA,NA,NA,NA,NA,NA,NA,NA,NA,NA,NA,NA,NA,NA,NA,NA,NA
57825,weiter,canvas.Screen,3_0_2_1,sdf,keypress(Space),response,1536.3000001907,618755.80000019,618750.3,618767,620303.30000019,620304.10000038,2024-03-16T10:57:34Z,620350.3,NULL,NA,NA,NA,NA,NA,NA,NA,sdf,NA,2,NA,NA,NA,NA,NA,NA,NA,NA,NA,NA,NA,NA,NA,NA,NA,NA,NA,NA,NA
57825,check continue,flow.Sequence,3_0_2,NA,NA,completion,114952.90000019,505338.5,505333.7,505350.4,620303.30000019,620304.40000057,2024-03-16T10:57:34Z,620350.3,NULL,NA,NA,NA,NA,NA,NA,NA,sdf,NA,2,NA,NA,NA,NA,NA,NA,NA,NA,NA,NA,NA,NA,NA,NA,NA,NA,NA,NA,NA
57825,Deep Question,html.Page,3_0_3_0_0_0_0,NA,NA,form submission,10057.100000572,620339.80000019,620333.7,620350.3,630407.40000057,630407.60000038,2024-03-16T10:57:44Z,630433.7,NULL,Vergnügen,kichekesho,d,NA,NA,NA,Vergnügen,NA,NA,3,NA,NA,NA,NA,NA,NA,NA,NA,NA,NA,NA,NA,NA,NA,NA,NA,NA,NA,NA
57825,"""Richtig""-Screen",canvas.Screen,3_0_3_0_0_0_1,NA,NA,skipped,NA,630409.40000057,NA,NA,630407.40000057,630409.60000038,2024-03-16T10:57:44Z,630433.7,NULL,Vergnügen,kichekesho,d,NA,NA,NA,NA,qt,NA,3,NA,NA,NA,NA,NA,NA,NA,NA,NA,NA,NA,NA,NA,NA,NA,NA,NA,NA,NA
57825,"""Falsch""-Screen",canvas.Screen,3_0_3_0_0_0_2,NA,NA,timeout,4999.9,630410,630416.9,630433.7,635417,635417.90000057,2024-03-16T10:57:49Z,635433.6,NULL,Vergnügen,kichekesho,d,NA,NA,NA,NA,qt,0,3,NA,NA,NA,NA,NA,NA,NA,NA,NA,NA,NA,NA,NA,NA,NA,NA,NA,NA,NA
57825,deep,flow.Sequence,3_0_3_0_0_0,NA,NA,completion,15066.7,620339.80000019,620333.7,620350.3,635417,635418.19999981,2024-03-16T10:57:49Z,635433.6,NULL,Vergnügen,kichekesho,d,NA,NA,NA,NA,qt,NA,3,NA,NA,NA,NA,NA,NA,NA,NA,NA,NA,NA,NA,NA,NA,NA,NA,NA,NA,NA
57825,shallow,flow.Sequence,3_0_3_0_0_1,NA,NA,skipped,NA,635418.40000057,NA,NA,635417,635418.40000057,2024-03-16T10:57:49Z,635433.6,NULL,Vergnügen,kichekesho,d,NA,NA,NA,NA,qt,NA,3,NA,NA,NA,NA,NA,NA,NA,NA,NA,NA,NA,NA,NA,NA,NA,NA,NA,NA,NA
57825,task,flow.Sequence,3_0_3_0_0,NA,NA,completion,15066.7,620339.80000019,620333.7,620350.3,635417,635418.60000038,2024-03-16T10:57:49Z,635433.6,NULL,Vergnügen,kichekesho,d,NA,NA,NA,NA,qt,NA,3,NA,NA,NA,NA,NA,NA,NA,NA,NA,NA,NA,NA,NA,NA,NA,NA,NA,NA,NA
57825,deep,flow.Sequence,3_0_3_0_1_0,NA,NA,skipped,NA,635418.69999981,NA,NA,635417,635418.80000019,2024-03-16T10:57:49Z,635433.6,NULL,Ergänzung,kijalizo,s,ulaghai,mustarehe,matangazo,NA,qt,NA,3,NA,NA,NA,NA,NA,NA,NA,NA,NA,NA,NA,NA,NA,NA,NA,NA,NA,NA,NA
57825,Shallow Question,html.Page,3_0_3_0_1_1_0,NA,NA,form submission,4548.5000003815,635418.90000057,635417,635433.6,639982.10000038,639982.40000057,2024-03-16T10:57:53Z,639983.744,NULL,Ergänzung,kijalizo,s,ulaghai,mustarehe,matangazo,kijalizo,NA,NA,3,NA,NA,NA,NA,NA,NA,NA,NA,NA,NA,NA,NA,NA,NA,NA,NA,NA,NA,NA
57825,"""Richtig""-Screen",canvas.Screen,3_0_3_0_1_1_1,NA,NA,timeout,4999.956,639984,639983.744,639983.744,644967,644967.80000019,2024-03-16T10:57:58Z,644983.7,NULL,Ergänzung,kijalizo,s,ulaghai,mustarehe,matangazo,NA,qt,1,3,NA,NA,NA,NA,NA,NA,NA,NA,NA,NA,NA,NA,NA,NA,NA,NA,NA,NA,NA
57825,"""Falsch""-Screen",canvas.Screen,3_0_3_0_1_1_2,NA,NA,skipped,NA,644971.69999981,NA,NA,644967,644971.90000057,2024-03-16T10:57:58Z,644983.7,NULL,Ergänzung,kijalizo,s,ulaghai,mustarehe,matangazo,NA,qt,NA,3,NA,NA,NA,NA,NA,NA,NA,NA,NA,NA,NA,NA,NA,NA,NA,NA,NA,NA,NA
57825,shallow,flow.Sequence,3_0_3_0_1_1,NA,NA,completion,9533.4,635418.80000019,635417,635433.6,644967,644972.10000038,2024-03-16T10:57:58Z,644983.7,NULL,Ergänzung,kijalizo,s,ulaghai,mustarehe,matangazo,NA,qt,NA,3,NA,NA,NA,NA,NA,NA,NA,NA,NA,NA,NA,NA,NA,NA,NA,NA,NA,NA,NA
57825,task,flow.Sequence,3_0_3_0_1,NA,NA,completion,9533.4,635418.60000038,635417,635433.6,644967,644972.30000019,2024-03-16T10:57:58Z,644983.7,NULL,Ergänzung,kijalizo,s,ulaghai,mustarehe,matangazo,NA,qt,NA,3,NA,NA,NA,NA,NA,NA,NA,NA,NA,NA,NA,NA,NA,NA,NA,NA,NA,NA,NA
57825,Deep Question,html.Page,3_0_3_0_2_0_0,NA,NA,form submission,3646.2000005723,644972.30000019,644967,644983.7,648629.90000057,648630.10000038,2024-03-16T10:58:02Z,648633.5,NULL,Orientierung,urekebisho,d,NA,NA,NA,Orientierung,NA,NA,3,NA,NA,NA,NA,NA,NA,NA,NA,NA,NA,NA,NA,NA,NA,NA,NA,NA,NA,NA
57825,"""Richtig""-Screen",canvas.Screen,3_0_3_0_2_0_1,NA,NA,skipped,NA,648631.69999981,NA,NA,648629.90000057,648631.90000057,2024-03-16T10:58:02Z,648633.5,NULL,Orientierung,urekebisho,d,NA,NA,NA,NA,qt,NA,3,NA,NA,NA,NA,NA,NA,NA,NA,NA,NA,NA,NA,NA,NA,NA,NA,NA,NA,NA
57825,"""Falsch""-Screen",canvas.Screen,3_0_3_0_2_0_2,NA,NA,timeout,5000.2,648632.30000019,648617,648633.5,653617,653617.60000038,2024-03-16T10:58:07Z,653633.7,NULL,Orientierung,urekebisho,d,NA,NA,NA,NA,qt,0,3,NA,NA,NA,NA,NA,NA,NA,NA,NA,NA,NA,NA,NA,NA,NA,NA,NA,NA,NA
57825,deep,flow.Sequence,3_0_3_0_2_0,NA,NA,completion,8633.3,644972.30000019,644967,644983.7,653617,653617.90000057,2024-03-16T10:58:07Z,653633.7,NULL,Orientierung,urekebisho,d,NA,NA,NA,NA,qt,NA,3,NA,NA,NA,NA,NA,NA,NA,NA,NA,NA,NA,NA,NA,NA,NA,NA,NA,NA,NA
57825,shallow,flow.Sequence,3_0_3_0_2_1,NA,NA,skipped,NA,653618.10000038,NA,NA,653617,653618.10000038,2024-03-16T10:58:07Z,653633.7,NULL,Orientierung,urekebisho,d,NA,NA,NA,NA,qt,NA,3,NA,NA,NA,NA,NA,NA,NA,NA,NA,NA,NA,NA,NA,NA,NA,NA,NA,NA,NA
57825,task,flow.Sequence,3_0_3_0_2,NA,NA,completion,8633.3,644972.30000019,644967,644983.7,653617,653618.30000019,2024-03-16T10:58:07Z,653633.7,NULL,Orientierung,urekebisho,d,NA,NA,NA,NA,qt,NA,3,NA,NA,NA,NA,NA,NA,NA,NA,NA,NA,NA,NA,NA,NA,NA,NA,NA,NA,NA
57825,Deep Question,html.Page,3_0_3_0_3_0_0,NA,NA,form submission,2692.4000003815,653618.40000057,653617,653633.7,656326.10000038,656326.30000019,2024-03-16T10:58:10Z,656333.6,NULL,Notfall,dharura,d,NA,NA,NA,Notfall,NA,NA,3,NA,NA,NA,NA,NA,NA,NA,NA,NA,NA,NA,NA,NA,NA,NA,NA,NA,NA,NA
57825,"""Richtig""-Screen",canvas.Screen,3_0_3_0_3_0_1,NA,NA,skipped,NA,656328,NA,NA,656326.10000038,656328.10000038,2024-03-16T10:58:10Z,656333.6,NULL,Notfall,dharura,d,NA,NA,NA,NA,qt,NA,3,NA,NA,NA,NA,NA,NA,NA,NA,NA,NA,NA,NA,NA,NA,NA,NA,NA,NA,NA
57825,"""Falsch""-Screen",canvas.Screen,3_0_3_0_3_0_2,NA,NA,timeout,5000.1,656328.60000038,656317.1,656333.6,661317,661317.80000019,2024-03-16T10:58:15Z,661333.7,NULL,Notfall,dharura,d,NA,NA,NA,NA,qt,0,3,NA,NA,NA,NA,NA,NA,NA,NA,NA,NA,NA,NA,NA,NA,NA,NA,NA,NA,NA
57825,deep,flow.Sequence,3_0_3_0_3_0,NA,NA,completion,7683.3,653618.40000057,653617,653633.7,661317,661318,2024-03-16T10:58:15Z,661333.7,NULL,Notfall,dharura,d,NA,NA,NA,NA,qt,NA,3,NA,NA,NA,NA,NA,NA,NA,NA,NA,NA,NA,NA,NA,NA,NA,NA,NA,NA,NA
57825,shallow,flow.Sequence,3_0_3_0_3_1,NA,NA,skipped,NA,661318.19999981,NA,NA,661317,661318.19999981,2024-03-16T10:58:15Z,661333.7,NULL,Notfall,dharura,d,NA,NA,NA,NA,qt,NA,3,NA,NA,NA,NA,NA,NA,NA,NA,NA,NA,NA,NA,NA,NA,NA,NA,NA,NA,NA
57825,task,flow.Sequence,3_0_3_0_3,NA,NA,completion,7683.3,653618.30000019,653617,653633.7,661317,661318.40000057,2024-03-16T10:58:15Z,661333.7,NULL,Notfall,dharura,d,NA,NA,NA,NA,qt,NA,3,NA,NA,NA,NA,NA,NA,NA,NA,NA,NA,NA,NA,NA,NA,NA,NA,NA,NA,NA
57825,deep,flow.Sequence,3_0_3_0_4_0,NA,NA,skipped,NA,661318.5,NA,NA,661317,661318.5,2024-03-16T10:58:15Z,661333.7,NULL,Wohlstand,mafanikio,s,chimbuko,kumbuko,mapwaji,NA,qt,NA,3,NA,NA,NA,NA,NA,NA,NA,NA,NA,NA,NA,NA,NA,NA,NA,NA,NA,NA,NA
57825,Shallow Question,html.Page,3_0_3_0_4_1_0,NA,NA,form submission,4834.4000003815,661318.60000038,661317,661333.7,666168.10000038,666168.30000019,2024-03-16T10:58:20Z,666183.5,NULL,Wohlstand,mafanikio,s,chimbuko,kumbuko,mapwaji,mafanikio,NA,NA,3,NA,NA,NA,NA,NA,NA,NA,NA,NA,NA,NA,NA,NA,NA,NA,NA,NA,NA,NA
57825,"""Richtig""-Screen",canvas.Screen,3_0_3_0_4_1_1,NA,NA,timeout,5000,666169.90000057,666167,666183.5,671166.9,671167.69999981,2024-03-16T10:58:25Z,671183.5,NULL,Wohlstand,mafanikio,s,chimbuko,kumbuko,mapwaji,NA,qt,1,3,NA,NA,NA,NA,NA,NA,NA,NA,NA,NA,NA,NA,NA,NA,NA,NA,NA,NA,NA
57825,"""Falsch""-Screen",canvas.Screen,3_0_3_0_4_1_2,NA,NA,skipped,NA,671171.80000019,NA,NA,671166.9,671172,2024-03-16T10:58:25Z,671183.5,NULL,Wohlstand,mafanikio,s,chimbuko,kumbuko,mapwaji,NA,qt,NA,3,NA,NA,NA,NA,NA,NA,NA,NA,NA,NA,NA,NA,NA,NA,NA,NA,NA,NA,NA
57825,shallow,flow.Sequence,3_0_3_0_4_1,NA,NA,completion,9833.2000000001,661318.60000038,661317,661333.7,671166.9,671172.19999981,2024-03-16T10:58:25Z,671183.5,NULL,Wohlstand,mafanikio,s,chimbuko,kumbuko,mapwaji,NA,qt,NA,3,NA,NA,NA,NA,NA,NA,NA,NA,NA,NA,NA,NA,NA,NA,NA,NA,NA,NA,NA
57825,task,flow.Sequence,3_0_3_0_4,NA,NA,completion,9833.2000000001,661318.40000057,661317,661333.7,671166.9,671172.40000057,2024-03-16T10:58:25Z,671183.5,NULL,Wohlstand,mafanikio,s,chimbuko,kumbuko,mapwaji,NA,qt,NA,3,NA,NA,NA,NA,NA,NA,NA,NA,NA,NA,NA,NA,NA,NA,NA,NA,NA,NA,NA
57825,deep,flow.Sequence,3_0_3_0_5_0,NA,NA,skipped,NA,671172.40000057,NA,NA,671166.9,671172.5,2024-03-16T10:58:25Z,671183.5,NULL,Betrüger,mdanganyifu,s,mwanamuziki,wastani,mahakama,NA,qt,NA,3,NA,NA,NA,NA,NA,NA,NA,NA,NA,NA,NA,NA,NA,NA,NA,NA,NA,NA,NA
57825,Shallow Question,html.Page,3_0_3_0_5_1_0,NA,NA,form submission,4285.9000005722,671172.69999981,671166.9,671183.5,675469.40000057,675469.5,2024-03-16T10:58:29Z,675500.2,NULL,Betrüger,mdanganyifu,s,mwanamuziki,wastani,mahakama,mdanganyifu,NA,NA,3,NA,NA,NA,NA,NA,NA,NA,NA,NA,NA,NA,NA,NA,NA,NA,NA,NA,NA,NA
57825,"""Richtig""-Screen",canvas.Screen,3_0_3_0_5_1_1,NA,NA,timeout,5000.1000000001,675471,675483.564,675500.2,680483.6,680484.40000057,2024-03-16T10:58:34Z,680500.3,NULL,Betrüger,mdanganyifu,s,mwanamuziki,wastani,mahakama,NA,qt,1,3,NA,NA,NA,NA,NA,NA,NA,NA,NA,NA,NA,NA,NA,NA,NA,NA,NA,NA,NA
57825,"""Falsch""-Screen",canvas.Screen,3_0_3_0_5_1_2,NA,NA,skipped,NA,680488.40000057,NA,NA,680483.6,680488.60000038,2024-03-16T10:58:34Z,680500.3,NULL,Betrüger,mdanganyifu,s,mwanamuziki,wastani,mahakama,NA,qt,NA,3,NA,NA,NA,NA,NA,NA,NA,NA,NA,NA,NA,NA,NA,NA,NA,NA,NA,NA,NA
57825,shallow,flow.Sequence,3_0_3_0_5_1,NA,NA,completion,9300.1,671172.60000038,671166.9,671183.5,680483.6,680488.90000057,2024-03-16T10:58:34Z,680500.3,NULL,Betrüger,mdanganyifu,s,mwanamuziki,wastani,mahakama,NA,qt,NA,3,NA,NA,NA,NA,NA,NA,NA,NA,NA,NA,NA,NA,NA,NA,NA,NA,NA,NA,NA
57825,task,flow.Sequence,3_0_3_0_5,NA,NA,completion,9300.1,671172.40000057,671166.9,671183.5,680483.6,680489,2024-03-16T10:58:34Z,680500.3,NULL,Betrüger,mdanganyifu,s,mwanamuziki,wastani,mahakama,NA,qt,NA,3,NA,NA,NA,NA,NA,NA,NA,NA,NA,NA,NA,NA,NA,NA,NA,NA,NA,NA,NA
57825,deep,flow.Sequence,3_0_3_0_6_0,NA,NA,skipped,NA,680489.10000038,NA,NA,680483.6,680489.10000038,2024-03-16T10:58:34Z,680500.3,NULL,Stimmung,kinyongo,s,kilekile,kisambo,madhehebu,NA,qt,NA,3,NA,NA,NA,NA,NA,NA,NA,NA,NA,NA,NA,NA,NA,NA,NA,NA,NA,NA,NA
57825,Shallow Question,html.Page,3_0_3_0_6_1_0,NA,NA,form submission,4072.6000005722,680489.30000019,680483.6,680500.3,684572.90000057,684573.10000038,2024-03-16T10:58:38Z,684600.3,NULL,Stimmung,kinyongo,s,kilekile,kisambo,madhehebu,kisambo,NA,NA,3,NA,NA,NA,NA,NA,NA,NA,NA,NA,NA,NA,NA,NA,NA,NA,NA,NA,NA,NA
57825,"""Richtig""-Screen",canvas.Screen,3_0_3_0_6_1_1,NA,NA,skipped,NA,684574.69999981,NA,NA,684572.90000057,684574.80000019,2024-03-16T10:58:38Z,684600.3,NULL,Stimmung,kinyongo,s,kilekile,kisambo,madhehebu,NA,qt,NA,3,NA,NA,NA,NA,NA,NA,NA,NA,NA,NA,NA,NA,NA,NA,NA,NA,NA,NA,NA
57825,"""Falsch""-Screen",canvas.Screen,3_0_3_0_6_1_2,NA,NA,timeout,5000.1,684575.30000019,684583.7,684600.3,689583.6,689584.30000019,2024-03-16T10:58:43Z,689600.4,NULL,Stimmung,kinyongo,s,kilekile,kisambo,madhehebu,NA,qt,0,3,NA,NA,NA,NA,NA,NA,NA,NA,NA,NA,NA,NA,NA,NA,NA,NA,NA,NA,NA
57825,shallow,flow.Sequence,3_0_3_0_6_1,NA,NA,completion,9083.2999999999,680489.19999981,680483.6,680500.3,689583.6,689584.60000038,2024-03-16T10:58:43Z,689600.4,NULL,Stimmung,kinyongo,s,kilekile,kisambo,madhehebu,NA,qt,NA,3,NA,NA,NA,NA,NA,NA,NA,NA,NA,NA,NA,NA,NA,NA,NA,NA,NA,NA,NA
57825,task,flow.Sequence,3_0_3_0_6,NA,NA,completion,9083.2999999999,680489.10000038,680483.6,680500.3,689583.6,689584.69999981,2024-03-16T10:58:43Z,689600.4,NULL,Stimmung,kinyongo,s,kilekile,kisambo,madhehebu,NA,qt,NA,3,NA,NA,NA,NA,NA,NA,NA,NA,NA,NA,NA,NA,NA,NA,NA,NA,NA,NA,NA
57825,Deep Question,html.Page,3_0_3_0_7_0_0,NA,NA,form submission,4746.7999998092,689584.90000057,689583.6,689600.4,694347.19999981,694347.40000057,2024-03-16T10:58:48Z,694350.1,NULL,Respekt,heshima,d,NA,NA,NA,Respekt,NA,NA,3,NA,NA,NA,NA,NA,NA,NA,NA,NA,NA,NA,NA,NA,NA,NA,NA,NA,NA,NA
57825,"""Richtig""-Screen",canvas.Screen,3_0_3_0_7_0_1,NA,NA,skipped,NA,694349,NA,NA,694347.19999981,694349.19999981,2024-03-16T10:58:48Z,694350.1,NULL,Respekt,heshima,d,NA,NA,NA,NA,qt,NA,3,NA,NA,NA,NA,NA,NA,NA,NA,NA,NA,NA,NA,NA,NA,NA,NA,NA,NA,NA
57825,"""Falsch""-Screen",canvas.Screen,3_0_3_0_7_0_2,NA,NA,timeout,5016.9,694349.69999981,694336.728,694350.1,699333.6,699334.40000057,2024-03-16T10:58:53Z,699367,NULL,Respekt,heshima,d,NA,NA,NA,NA,qt,0,3,NA,NA,NA,NA,NA,NA,NA,NA,NA,NA,NA,NA,NA,NA,NA,NA,NA,NA,NA
57825,deep,flow.Sequence,3_0_3_0_7_0,NA,NA,completion,9733.2,689584.80000019,689583.6,689600.4,699333.6,699334.69999981,2024-03-16T10:58:53Z,699367,NULL,Respekt,heshima,d,NA,NA,NA,NA,qt,NA,3,NA,NA,NA,NA,NA,NA,NA,NA,NA,NA,NA,NA,NA,NA,NA,NA,NA,NA,NA
57825,shallow,flow.Sequence,3_0_3_0_7_1,NA,NA,skipped,NA,699334.80000019,NA,NA,699333.6,699334.90000057,2024-03-16T10:58:53Z,699367,NULL,Respekt,heshima,d,NA,NA,NA,NA,qt,NA,3,NA,NA,NA,NA,NA,NA,NA,NA,NA,NA,NA,NA,NA,NA,NA,NA,NA,NA,NA
57825,task,flow.Sequence,3_0_3_0_7,NA,NA,completion,9733.2,689584.80000019,689583.6,689600.4,699333.6,699335,2024-03-16T10:58:53Z,699367,NULL,Respekt,heshima,d,NA,NA,NA,NA,qt,NA,3,NA,NA,NA,NA,NA,NA,NA,NA,NA,NA,NA,NA,NA,NA,NA,NA,NA,NA,NA
57825,block,flow.Loop,3_0_3_0,NA,NA,completion,78983.3,620339.80000019,620333.7,620350.3,699333.6,699335.10000038,2024-03-16T10:58:53Z,699367,NULL,NA,NA,NA,NA,NA,NA,NA,qt,NA,3,NA,NA,NA,NA,NA,NA,NA,NA,NA,NA,NA,NA,NA,NA,NA,NA,NA,NA,NA
57825,weiter,canvas.Screen,3_0_3_1,sdf,keypress(Space),response,2061.6000003815,699335.19999981,699333.6,699367,701428.60000038,701429.40000057,2024-03-16T10:58:55Z,701483.7,NULL,NA,NA,NA,NA,NA,NA,NA,qt,NA,3,NA,NA,NA,NA,NA,NA,NA,NA,NA,NA,NA,NA,NA,NA,NA,NA,NA,NA,NA
57825,check continue,flow.Sequence,3_0_3,NA,NA,completion,81078.300000381,620339.69999981,620333.7,620350.3,701428.60000038,701429.69999981,2024-03-16T10:58:55Z,701483.7,NULL,NA,NA,NA,NA,NA,NA,NA,qt,NA,3,NA,NA,NA,NA,NA,NA,NA,NA,NA,NA,NA,NA,NA,NA,NA,NA,NA,NA,NA
57825,deep,flow.Sequence,3_0_4_0_0_0,NA,NA,skipped,NA,701466.30000019,NA,NA,701428.60000038,701466.90000057,2024-03-16T10:58:55Z,701483.7,NULL,Stimmung,kinyongo,s,kilekile,kisambo,madhehebu,NA,sd,NA,4,NA,NA,NA,NA,NA,NA,NA,NA,NA,NA,NA,NA,NA,NA,NA,NA,NA,NA,NA
57825,Shallow Question,html.Page,3_0_4_0_0_1_0,NA,NA,form submission,3522.4000003815,701467,701467,701483.7,705006.10000038,705006.30000019,2024-03-16T10:58:58Z,705016.8,NULL,Stimmung,kinyongo,s,kilekile,kisambo,madhehebu,kinyongo,NA,NA,4,NA,NA,NA,NA,NA,NA,NA,NA,NA,NA,NA,NA,NA,NA,NA,NA,NA,NA,NA
57825,"""Richtig""-Screen",canvas.Screen,3_0_4_0_0_1_1,NA,NA,timeout,5000.2,705007.80000019,705000.4,705016.8,710000.3,710001,2024-03-16T10:59:03Z,710017,NULL,Stimmung,kinyongo,s,kilekile,kisambo,madhehebu,NA,sd,1,4,NA,NA,NA,NA,NA,NA,NA,NA,NA,NA,NA,NA,NA,NA,NA,NA,NA,NA,NA
57825,"""Falsch""-Screen",canvas.Screen,3_0_4_0_0_1_2,NA,NA,skipped,NA,710005,NA,NA,710000.3,710005.19999981,2024-03-16T10:59:03Z,710017,NULL,Stimmung,kinyongo,s,kilekile,kisambo,madhehebu,NA,sd,NA,4,NA,NA,NA,NA,NA,NA,NA,NA,NA,NA,NA,NA,NA,NA,NA,NA,NA,NA,NA
57825,shallow,flow.Sequence,3_0_4_0_0_1,NA,NA,completion,8516.6000000001,701467,701467,701483.7,710000.3,710005.40000057,2024-03-16T10:59:03Z,710017,NULL,Stimmung,kinyongo,s,kilekile,kisambo,madhehebu,NA,sd,NA,4,NA,NA,NA,NA,NA,NA,NA,NA,NA,NA,NA,NA,NA,NA,NA,NA,NA,NA,NA
57825,task,flow.Sequence,3_0_4_0_0,NA,NA,completion,8516.6000000001,701466.30000019,701467,701483.7,710000.3,710005.60000038,2024-03-16T10:59:03Z,710017,NULL,Stimmung,kinyongo,s,kilekile,kisambo,madhehebu,NA,sd,NA,4,NA,NA,NA,NA,NA,NA,NA,NA,NA,NA,NA,NA,NA,NA,NA,NA,NA,NA,NA
57825,Deep Question,html.Page,3_0_4_0_1_0_0,NA,NA,form submission,6360,710005.69999981,710000.3,710017,716377,716377.19999981,2024-03-16T10:59:10Z,716383.4,NULL,Vergnügen,kichekesho,d,NA,NA,NA,kichechebo,NA,NA,4,NA,NA,NA,NA,NA,NA,NA,NA,NA,NA,NA,NA,NA,NA,NA,NA,NA,NA,NA
57825,"""Richtig""-Screen",canvas.Screen,3_0_4_0_1_0_1,NA,NA,skipped,NA,716378.80000019,NA,NA,716377,716379,2024-03-16T10:59:10Z,716383.4,NULL,Vergnügen,kichekesho,d,NA,NA,NA,NA,sd,NA,4,NA,NA,NA,NA,NA,NA,NA,NA,NA,NA,NA,NA,NA,NA,NA,NA,NA,NA,NA
57825,"""Falsch""-Screen",canvas.Screen,3_0_4_0_1_0_2,NA,NA,timeout,5000.1,716379.5,716371.964,716383.4,721366.9,721367.80000019,2024-03-16T10:59:15Z,721383.5,NULL,Vergnügen,kichekesho,d,NA,NA,NA,NA,sd,0,4,NA,NA,NA,NA,NA,NA,NA,NA,NA,NA,NA,NA,NA,NA,NA,NA,NA,NA,NA
57825,deep,flow.Sequence,3_0_4_0_1_0,NA,NA,completion,11349.9,710005.69999981,710000.3,710017,721366.9,721368.10000038,2024-03-16T10:59:15Z,721383.5,NULL,Vergnügen,kichekesho,d,NA,NA,NA,NA,sd,NA,4,NA,NA,NA,NA,NA,NA,NA,NA,NA,NA,NA,NA,NA,NA,NA,NA,NA,NA,NA
57825,shallow,flow.Sequence,3_0_4_0_1_1,NA,NA,skipped,NA,721368.10000038,NA,NA,721366.9,721368.30000019,2024-03-16T10:59:15Z,721383.5,NULL,Vergnügen,kichekesho,d,NA,NA,NA,NA,sd,NA,4,NA,NA,NA,NA,NA,NA,NA,NA,NA,NA,NA,NA,NA,NA,NA,NA,NA,NA,NA
57825,task,flow.Sequence,3_0_4_0_1,NA,NA,completion,11349.9,710005.60000038,710000.3,710017,721366.9,721368.40000057,2024-03-16T10:59:15Z,721383.5,NULL,Vergnügen,kichekesho,d,NA,NA,NA,NA,sd,NA,4,NA,NA,NA,NA,NA,NA,NA,NA,NA,NA,NA,NA,NA,NA,NA,NA,NA,NA,NA
57825,deep,flow.Sequence,3_0_4_0_2_0,NA,NA,skipped,NA,721368.40000057,NA,NA,721366.9,721368.60000038,2024-03-16T10:59:15Z,721383.5,NULL,Wohlstand,mafanikio,s,chimbuko,kumbuko,mapwaji,NA,sd,NA,4,NA,NA,NA,NA,NA,NA,NA,NA,NA,NA,NA,NA,NA,NA,NA,NA,NA,NA,NA
57825,Shallow Question,html.Page,3_0_4_0_2_1_0,NA,NA,form submission,4032.8000001907,721368.60000038,721366.9,721383.5,725416.30000019,725416.5,2024-03-16T10:59:19Z,725417.052,NULL,Wohlstand,mafanikio,s,chimbuko,kumbuko,mapwaji,mafanikio,NA,NA,4,NA,NA,NA,NA,NA,NA,NA,NA,NA,NA,NA,NA,NA,NA,NA,NA,NA,NA,NA
57825,"""Richtig""-Screen",canvas.Screen,3_0_4_0_2_1_1,NA,NA,timeout,4999.848,725418.19999981,725417.052,725417.052,730400.2,730400.90000057,2024-03-16T10:59:24Z,730416.9,NULL,Wohlstand,mafanikio,s,chimbuko,kumbuko,mapwaji,NA,sd,1,4,NA,NA,NA,NA,NA,NA,NA,NA,NA,NA,NA,NA,NA,NA,NA,NA,NA,NA,NA
57825,"""Falsch""-Screen",canvas.Screen,3_0_4_0_2_1_2,NA,NA,skipped,NA,730403.10000038,NA,NA,730400.2,730403.19999981,2024-03-16T10:59:24Z,730416.9,NULL,Wohlstand,mafanikio,s,chimbuko,kumbuko,mapwaji,NA,sd,NA,4,NA,NA,NA,NA,NA,NA,NA,NA,NA,NA,NA,NA,NA,NA,NA,NA,NA,NA,NA
57825,shallow,flow.Sequence,3_0_4_0_2_1,NA,NA,completion,9016.7,721368.60000038,721366.9,721383.5,730400.2,730403.30000019,2024-03-16T10:59:24Z,730416.9,NULL,Wohlstand,mafanikio,s,chimbuko,kumbuko,mapwaji,NA,sd,NA,4,NA,NA,NA,NA,NA,NA,NA,NA,NA,NA,NA,NA,NA,NA,NA,NA,NA,NA,NA
57825,task,flow.Sequence,3_0_4_0_2,NA,NA,completion,9016.7,721368.40000057,721366.9,721383.5,730400.2,730403.40000057,2024-03-16T10:59:24Z,730416.9,NULL,Wohlstand,mafanikio,s,chimbuko,kumbuko,mapwaji,NA,sd,NA,4,NA,NA,NA,NA,NA,NA,NA,NA,NA,NA,NA,NA,NA,NA,NA,NA,NA,NA,NA
57825,deep,flow.Sequence,3_0_4_0_3_0,NA,NA,skipped,NA,730403.40000057,NA,NA,730400.2,730403.5,2024-03-16T10:59:24Z,730416.9,NULL,Betrüger,mdanganyifu,s,mwanamuziki,wastani,mahakama,NA,sd,NA,4,NA,NA,NA,NA,NA,NA,NA,NA,NA,NA,NA,NA,NA,NA,NA,NA,NA,NA,NA
57825,Shallow Question,html.Page,3_0_4_0_3_1_0,NA,NA,form submission,2167.2000003814,730403.60000038,730400.2,730416.9,732584.10000038,732584.30000019,2024-03-16T10:59:26Z,732600.3,NULL,Betrüger,mdanganyifu,s,mwanamuziki,wastani,mahakama,mdanganyifu,NA,NA,4,NA,NA,NA,NA,NA,NA,NA,NA,NA,NA,NA,NA,NA,NA,NA,NA,NA,NA,NA
57825,"""Richtig""-Screen",canvas.Screen,3_0_4_0_3_1_1,NA,NA,timeout,4999.8999999999,732584.90000057,732583.678,732600.3,737583.6,737584.60000038,2024-03-16T10:59:31Z,737600.2,NULL,Betrüger,mdanganyifu,s,mwanamuziki,wastani,mahakama,NA,sd,1,4,NA,NA,NA,NA,NA,NA,NA,NA,NA,NA,NA,NA,NA,NA,NA,NA,NA,NA,NA
57825,"""Falsch""-Screen",canvas.Screen,3_0_4_0_3_1_2,NA,NA,skipped,NA,737588.60000038,NA,NA,737583.6,737588.90000057,2024-03-16T10:59:31Z,737600.2,NULL,Betrüger,mdanganyifu,s,mwanamuziki,wastani,mahakama,NA,sd,NA,4,NA,NA,NA,NA,NA,NA,NA,NA,NA,NA,NA,NA,NA,NA,NA,NA,NA,NA,NA
57825,shallow,flow.Sequence,3_0_4_0_3_1,NA,NA,completion,7166.7,730403.5,730400.2,730416.9,737583.6,737589.10000038,2024-03-16T10:59:31Z,737600.2,NULL,Betrüger,mdanganyifu,s,mwanamuziki,wastani,mahakama,NA,sd,NA,4,NA,NA,NA,NA,NA,NA,NA,NA,NA,NA,NA,NA,NA,NA,NA,NA,NA,NA,NA
57825,task,flow.Sequence,3_0_4_0_3,NA,NA,completion,7166.7,730403.40000057,730400.2,730416.9,737583.6,737589.19999981,2024-03-16T10:59:31Z,737600.2,NULL,Betrüger,mdanganyifu,s,mwanamuziki,wastani,mahakama,NA,sd,NA,4,NA,NA,NA,NA,NA,NA,NA,NA,NA,NA,NA,NA,NA,NA,NA,NA,NA,NA,NA
57825,deep,flow.Sequence,3_0_4_0_4_0,NA,NA,skipped,NA,737589.30000019,NA,NA,737583.6,737589.40000057,2024-03-16T10:59:31Z,737600.2,NULL,Ergänzung,kijalizo,s,ulaghai,mustarehe,matangazo,NA,sd,NA,4,NA,NA,NA,NA,NA,NA,NA,NA,NA,NA,NA,NA,NA,NA,NA,NA,NA,NA,NA
57825,Shallow Question,html.Page,3_0_4_0_4_1_0,NA,NA,form submission,2463.9999998093,737589.5,737583.6,737600.2,740064.19999981,740064.30000019,2024-03-16T10:59:33Z,740066.8,NULL,Ergänzung,kijalizo,s,ulaghai,mustarehe,matangazo,kijalizo,NA,NA,4,NA,NA,NA,NA,NA,NA,NA,NA,NA,NA,NA,NA,NA,NA,NA,NA,NA,NA,NA
57825,"""Richtig""-Screen",canvas.Screen,3_0_4_0_4_1_1,NA,NA,timeout,5000,740065,740051.156,740066.8,745050.3,745051.10000038,2024-03-16T10:59:38Z,745066.8,NULL,Ergänzung,kijalizo,s,ulaghai,mustarehe,matangazo,NA,sd,1,4,NA,NA,NA,NA,NA,NA,NA,NA,NA,NA,NA,NA,NA,NA,NA,NA,NA,NA,NA
57825,"""Falsch""-Screen",canvas.Screen,3_0_4_0_4_1_2,NA,NA,skipped,NA,745055,NA,NA,745050.3,745055.30000019,2024-03-16T10:59:38Z,745066.8,NULL,Ergänzung,kijalizo,s,ulaghai,mustarehe,matangazo,NA,sd,NA,4,NA,NA,NA,NA,NA,NA,NA,NA,NA,NA,NA,NA,NA,NA,NA,NA,NA,NA,NA
57825,shallow,flow.Sequence,3_0_4_0_4_1,NA,NA,completion,7450.1000000001,737589.40000057,737583.6,737600.2,745050.3,745055.5,2024-03-16T10:59:38Z,745066.8,NULL,Ergänzung,kijalizo,s,ulaghai,mustarehe,matangazo,NA,sd,NA,4,NA,NA,NA,NA,NA,NA,NA,NA,NA,NA,NA,NA,NA,NA,NA,NA,NA,NA,NA
57825,task,flow.Sequence,3_0_4_0_4,NA,NA,completion,7450.1000000001,737589.30000019,737583.6,737600.2,745050.3,745055.60000038,2024-03-16T10:59:38Z,745066.8,NULL,Ergänzung,kijalizo,s,ulaghai,mustarehe,matangazo,NA,sd,NA,4,NA,NA,NA,NA,NA,NA,NA,NA,NA,NA,NA,NA,NA,NA,NA,NA,NA,NA,NA
57825,Deep Question,html.Page,3_0_4_0_5_0_0,NA,NA,form submission,5876.2,745055.69999981,745050.3,745066.8,750943,750943.19999981,2024-03-16T10:59:44Z,750950,NULL,Orientierung,urekebisho,d,NA,NA,NA,dahatra,NA,NA,4,NA,NA,NA,NA,NA,NA,NA,NA,NA,NA,NA,NA,NA,NA,NA,NA,NA,NA,NA
57825,"""Richtig""-Screen",canvas.Screen,3_0_4_0_5_0_1,NA,NA,skipped,NA,750944.80000019,NA,NA,750943,750945,2024-03-16T10:59:44Z,750950,NULL,Orientierung,urekebisho,d,NA,NA,NA,NA,sd,NA,4,NA,NA,NA,NA,NA,NA,NA,NA,NA,NA,NA,NA,NA,NA,NA,NA,NA,NA,NA
57825,"""Falsch""-Screen",canvas.Screen,3_0_4_0_5_0_2,NA,NA,timeout,5000.2,750945.5,750933.676,750950,755933.6,755934.30000019,2024-03-16T10:59:49Z,755950.2,NULL,Orientierung,urekebisho,d,NA,NA,NA,NA,sd,0,4,NA,NA,NA,NA,NA,NA,NA,NA,NA,NA,NA,NA,NA,NA,NA,NA,NA,NA,NA
57825,deep,flow.Sequence,3_0_4_0_5_0,NA,NA,completion,10866.8,745055.69999981,745050.3,745066.8,755933.6,755934.60000038,2024-03-16T10:59:49Z,755950.2,NULL,Orientierung,urekebisho,d,NA,NA,NA,NA,sd,NA,4,NA,NA,NA,NA,NA,NA,NA,NA,NA,NA,NA,NA,NA,NA,NA,NA,NA,NA,NA
57825,shallow,flow.Sequence,3_0_4_0_5_1,NA,NA,skipped,NA,755934.69999981,NA,NA,755933.6,755934.80000019,2024-03-16T10:59:49Z,755950.2,NULL,Orientierung,urekebisho,d,NA,NA,NA,NA,sd,NA,4,NA,NA,NA,NA,NA,NA,NA,NA,NA,NA,NA,NA,NA,NA,NA,NA,NA,NA,NA
57825,task,flow.Sequence,3_0_4_0_5,NA,NA,completion,10866.8,745055.69999981,745050.3,745066.8,755933.6,755935,2024-03-16T10:59:49Z,755950.2,NULL,Orientierung,urekebisho,d,NA,NA,NA,NA,sd,NA,4,NA,NA,NA,NA,NA,NA,NA,NA,NA,NA,NA,NA,NA,NA,NA,NA,NA,NA,NA
57825,Deep Question,html.Page,3_0_4_0_6_0_0,NA,NA,form submission,4528.7000005723,755935.10000038,755933.6,755950.2,760478.90000057,760479,2024-03-16T10:59:54Z,760483.4,NULL,Respekt,heshima,d,NA,NA,NA,REspekt,NA,NA,4,NA,NA,NA,NA,NA,NA,NA,NA,NA,NA,NA,NA,NA,NA,NA,NA,NA,NA,NA
57825,"""Richtig""-Screen",canvas.Screen,3_0_4_0_6_0_1,NA,NA,skipped,NA,760480.69999981,NA,NA,760478.90000057,760480.80000019,2024-03-16T10:59:54Z,760483.4,NULL,Respekt,heshima,d,NA,NA,NA,NA,sd,NA,4,NA,NA,NA,NA,NA,NA,NA,NA,NA,NA,NA,NA,NA,NA,NA,NA,NA,NA,NA
57825,"""Falsch""-Screen",canvas.Screen,3_0_4_0_6_0_2,NA,NA,timeout,5000.2,760481.40000057,760469.604,760483.4,765466.8,765467.40000057,2024-03-16T10:59:59Z,765483.6,NULL,Respekt,heshima,d,NA,NA,NA,NA,sd,0,4,NA,NA,NA,NA,NA,NA,NA,NA,NA,NA,NA,NA,NA,NA,NA,NA,NA,NA,NA
57825,deep,flow.Sequence,3_0_4_0_6_0,NA,NA,completion,9516.6000000001,755935.10000038,755933.6,755950.2,765466.8,765467.69999981,2024-03-16T10:59:59Z,765483.6,NULL,Respekt,heshima,d,NA,NA,NA,NA,sd,NA,4,NA,NA,NA,NA,NA,NA,NA,NA,NA,NA,NA,NA,NA,NA,NA,NA,NA,NA,NA
57825,shallow,flow.Sequence,3_0_4_0_6_1,NA,NA,skipped,NA,765467.80000019,NA,NA,765466.8,765467.90000057,2024-03-16T10:59:59Z,765483.6,NULL,Respekt,heshima,d,NA,NA,NA,NA,sd,NA,4,NA,NA,NA,NA,NA,NA,NA,NA,NA,NA,NA,NA,NA,NA,NA,NA,NA,NA,NA
57825,task,flow.Sequence,3_0_4_0_6,NA,NA,completion,9516.6000000001,755935,755933.6,755950.2,765466.8,765468,2024-03-16T10:59:59Z,765483.6,NULL,Respekt,heshima,d,NA,NA,NA,NA,sd,NA,4,NA,NA,NA,NA,NA,NA,NA,NA,NA,NA,NA,NA,NA,NA,NA,NA,NA,NA,NA
57825,Deep Question,html.Page,3_0_4_0_7_0_0,NA,NA,form submission,4346.4,765468.10000038,765466.8,765483.6,769830,769830.19999981,2024-03-16T11:00:03Z,769833.834,NULL,Notfall,dharura,d,NA,NA,NA,Notfall,NA,NA,4,NA,NA,NA,NA,NA,NA,NA,NA,NA,NA,NA,NA,NA,NA,NA,NA,NA,NA,NA
57825,"""Richtig""-Screen",canvas.Screen,3_0_4_0_7_0_1,NA,NA,skipped,NA,769831.90000057,NA,NA,769830,769832,2024-03-16T11:00:03Z,769833.834,NULL,Notfall,dharura,d,NA,NA,NA,NA,sd,NA,4,NA,NA,NA,NA,NA,NA,NA,NA,NA,NA,NA,NA,NA,NA,NA,NA,NA,NA,NA
57825,"""Falsch""-Screen",canvas.Screen,3_0_4_0_7_0_2,NA,NA,timeout,4999.8659999999,769832.5,769833.834,769833.834,774816.9,774817.69999981,2024-03-16T11:00:08Z,774833.7,NULL,Notfall,dharura,d,NA,NA,NA,NA,sd,0,4,NA,NA,NA,NA,NA,NA,NA,NA,NA,NA,NA,NA,NA,NA,NA,NA,NA,NA,NA
57825,deep,flow.Sequence,3_0_4_0_7_0,NA,NA,completion,9333.3,765468.10000038,765466.8,765483.6,774816.9,774818.10000038,2024-03-16T11:00:08Z,774833.7,NULL,Notfall,dharura,d,NA,NA,NA,NA,sd,NA,4,NA,NA,NA,NA,NA,NA,NA,NA,NA,NA,NA,NA,NA,NA,NA,NA,NA,NA,NA
57825,shallow,flow.Sequence,3_0_4_0_7_1,NA,NA,skipped,NA,774818.10000038,NA,NA,774816.9,774818.19999981,2024-03-16T11:00:08Z,774833.7,NULL,Notfall,dharura,d,NA,NA,NA,NA,sd,NA,4,NA,NA,NA,NA,NA,NA,NA,NA,NA,NA,NA,NA,NA,NA,NA,NA,NA,NA,NA
57825,task,flow.Sequence,3_0_4_0_7,NA,NA,completion,9333.3,765468,765466.8,765483.6,774816.9,774818.40000057,2024-03-16T11:00:08Z,774833.7,NULL,Notfall,dharura,d,NA,NA,NA,NA,sd,NA,4,NA,NA,NA,NA,NA,NA,NA,NA,NA,NA,NA,NA,NA,NA,NA,NA,NA,NA,NA
57825,block,flow.Loop,3_0_4_0,NA,NA,completion,73333.2,701466.30000019,701467,701483.7,774816.9,774818.5,2024-03-16T11:00:08Z,774833.7,NULL,NA,NA,NA,NA,NA,NA,NA,sd,NA,4,NA,NA,NA,NA,NA,NA,NA,NA,NA,NA,NA,NA,NA,NA,NA,NA,NA,NA,NA
57825,weiter,canvas.Screen,3_0_4_1,sdf,keypress(Space),response,2235.8,774818.5,774816.9,774833.7,777069.5,777070.30000019,2024-03-16T11:00:10Z,777116.8,NULL,NA,NA,NA,NA,NA,NA,NA,sd,NA,4,NA,NA,NA,NA,NA,NA,NA,NA,NA,NA,NA,NA,NA,NA,NA,NA,NA,NA,NA
57825,check continue,flow.Sequence,3_0_4,NA,NA,completion,75585.8,701466.30000019,701467,701483.7,777069.5,777070.5,2024-03-16T11:00:10Z,777116.8,NULL,NA,NA,NA,NA,NA,NA,NA,sd,NA,4,NA,NA,NA,NA,NA,NA,NA,NA,NA,NA,NA,NA,NA,NA,NA,NA,NA,NA,NA
57825,Deep Question,html.Page,3_0_5_0_0_0_0,NA,NA,form submission,5553.2,777111.80000019,777100.276,777116.8,782670,782670.19999981,2024-03-16T11:00:16Z,782683.4,NULL,Notfall,dharura,d,NA,NA,NA,dhaharu,NA,NA,5,NA,NA,NA,NA,NA,NA,NA,NA,NA,NA,NA,NA,NA,NA,NA,NA,NA,NA,NA
57825,"""Richtig""-Screen",canvas.Screen,3_0_5_0_0_0_1,NA,NA,skipped,NA,782671.80000019,NA,NA,782670,782672,2024-03-16T11:00:16Z,782683.4,NULL,Notfall,dharura,d,NA,NA,NA,NA,sdf,NA,5,NA,NA,NA,NA,NA,NA,NA,NA,NA,NA,NA,NA,NA,NA,NA,NA,NA,NA,NA
57825,"""Falsch""-Screen",canvas.Screen,3_0_5_0_0_0_2,NA,NA,timeout,5000.2,782672.5,782667.026,782683.4,787666.9,787667.60000038,2024-03-16T11:00:21Z,787683.6,NULL,Notfall,dharura,d,NA,NA,NA,NA,sdf,0,5,NA,NA,NA,NA,NA,NA,NA,NA,NA,NA,NA,NA,NA,NA,NA,NA,NA,NA,NA
57825,deep,flow.Sequence,3_0_5_0_0_0,NA,NA,completion,10550.1,777111.80000019,777100.276,777116.8,787666.9,787667.90000057,2024-03-16T11:00:21Z,787683.6,NULL,Notfall,dharura,d,NA,NA,NA,NA,sdf,NA,5,NA,NA,NA,NA,NA,NA,NA,NA,NA,NA,NA,NA,NA,NA,NA,NA,NA,NA,NA
57825,shallow,flow.Sequence,3_0_5_0_0_1,NA,NA,skipped,NA,787668,NA,NA,787666.9,787668.10000038,2024-03-16T11:00:21Z,787683.6,NULL,Notfall,dharura,d,NA,NA,NA,NA,sdf,NA,5,NA,NA,NA,NA,NA,NA,NA,NA,NA,NA,NA,NA,NA,NA,NA,NA,NA,NA,NA
57825,task,flow.Sequence,3_0_5_0_0,NA,NA,completion,10550.1,777111.80000019,777100.276,777116.8,787666.9,787668.19999981,2024-03-16T11:00:21Z,787683.6,NULL,Notfall,dharura,d,NA,NA,NA,NA,sdf,NA,5,NA,NA,NA,NA,NA,NA,NA,NA,NA,NA,NA,NA,NA,NA,NA,NA,NA,NA,NA
57825,deep,flow.Sequence,3_0_5_0_1_0,NA,NA,skipped,NA,787668.30000019,NA,NA,787666.9,787668.40000057,2024-03-16T11:00:21Z,787683.6,NULL,Stimmung,kinyongo,s,kilekile,kisambo,madhehebu,NA,sdf,NA,5,NA,NA,NA,NA,NA,NA,NA,NA,NA,NA,NA,NA,NA,NA,NA,NA,NA,NA,NA
57825,Shallow Question,html.Page,3_0_5_0_1_1_0,NA,NA,form submission,5660.5999998093,787668.5,787666.9,787683.6,793344.19999981,793344.40000057,2024-03-16T11:00:27Z,793350.1,NULL,Stimmung,kinyongo,s,kilekile,kisambo,madhehebu,kinyongo,NA,NA,5,NA,NA,NA,NA,NA,NA,NA,NA,NA,NA,NA,NA,NA,NA,NA,NA,NA,NA,NA
57825,"""Richtig""-Screen",canvas.Screen,3_0_5_0_1_1_1,NA,NA,timeout,5000,793346.10000038,793333.62,793350.1,798333.6,798334.40000057,2024-03-16T11:00:32Z,798350.1,NULL,Stimmung,kinyongo,s,kilekile,kisambo,madhehebu,NA,sdf,1,5,NA,NA,NA,NA,NA,NA,NA,NA,NA,NA,NA,NA,NA,NA,NA,NA,NA,NA,NA
57825,"""Falsch""-Screen",canvas.Screen,3_0_5_0_1_1_2,NA,NA,skipped,NA,798338.40000057,NA,NA,798333.6,798338.60000038,2024-03-16T11:00:32Z,798350.1,NULL,Stimmung,kinyongo,s,kilekile,kisambo,madhehebu,NA,sdf,NA,5,NA,NA,NA,NA,NA,NA,NA,NA,NA,NA,NA,NA,NA,NA,NA,NA,NA,NA,NA
57825,shallow,flow.Sequence,3_0_5_0_1_1,NA,NA,completion,10650,787668.40000057,787666.9,787683.6,798333.6,798338.80000019,2024-03-16T11:00:32Z,798350.1,NULL,Stimmung,kinyongo,s,kilekile,kisambo,madhehebu,NA,sdf,NA,5,NA,NA,NA,NA,NA,NA,NA,NA,NA,NA,NA,NA,NA,NA,NA,NA,NA,NA,NA
57825,task,flow.Sequence,3_0_5_0_1,NA,NA,completion,10650,787668.30000019,787666.9,787683.6,798333.6,798339,2024-03-16T11:00:32Z,798350.1,NULL,Stimmung,kinyongo,s,kilekile,kisambo,madhehebu,NA,sdf,NA,5,NA,NA,NA,NA,NA,NA,NA,NA,NA,NA,NA,NA,NA,NA,NA,NA,NA,NA,NA
57825,Deep Question,html.Page,3_0_5_0_2_0_0,NA,NA,form submission,4155.8000005722,798339.10000038,798333.6,798350.1,802505.90000057,802506.10000038,2024-03-16T11:00:36Z,802516.8,NULL,Orientierung,urekebisho,d,NA,NA,NA,Orientierung,NA,NA,5,NA,NA,NA,NA,NA,NA,NA,NA,NA,NA,NA,NA,NA,NA,NA,NA,NA,NA,NA
57825,"""Richtig""-Screen",canvas.Screen,3_0_5_0_2_0_1,NA,NA,skipped,NA,802507.69999981,NA,NA,802505.90000057,802507.80000019,2024-03-16T11:00:36Z,802516.8,NULL,Orientierung,urekebisho,d,NA,NA,NA,NA,sdf,NA,5,NA,NA,NA,NA,NA,NA,NA,NA,NA,NA,NA,NA,NA,NA,NA,NA,NA,NA,NA
57825,"""Falsch""-Screen",canvas.Screen,3_0_5_0_2_0_2,NA,NA,timeout,5000.1,802508.30000019,802501.746,802516.8,807500.2,807501.10000038,2024-03-16T11:00:41Z,807516.9,NULL,Orientierung,urekebisho,d,NA,NA,NA,NA,sdf,0,5,NA,NA,NA,NA,NA,NA,NA,NA,NA,NA,NA,NA,NA,NA,NA,NA,NA,NA,NA
57825,deep,flow.Sequence,3_0_5_0_2_0,NA,NA,completion,9150.1,798339,798333.6,798350.1,807500.2,807501.5,2024-03-16T11:00:41Z,807516.9,NULL,Orientierung,urekebisho,d,NA,NA,NA,NA,sdf,NA,5,NA,NA,NA,NA,NA,NA,NA,NA,NA,NA,NA,NA,NA,NA,NA,NA,NA,NA,NA
57825,shallow,flow.Sequence,3_0_5_0_2_1,NA,NA,skipped,NA,807501.60000038,NA,NA,807500.2,807501.69999981,2024-03-16T11:00:41Z,807516.9,NULL,Orientierung,urekebisho,d,NA,NA,NA,NA,sdf,NA,5,NA,NA,NA,NA,NA,NA,NA,NA,NA,NA,NA,NA,NA,NA,NA,NA,NA,NA,NA
57825,task,flow.Sequence,3_0_5_0_2,NA,NA,completion,9150.1,798339,798333.6,798350.1,807500.2,807501.90000057,2024-03-16T11:00:41Z,807516.9,NULL,Orientierung,urekebisho,d,NA,NA,NA,NA,sdf,NA,5,NA,NA,NA,NA,NA,NA,NA,NA,NA,NA,NA,NA,NA,NA,NA,NA,NA,NA,NA
57825,Deep Question,html.Page,3_0_5_0_3_0_0,NA,NA,form submission,4335.9000001907,807502,807500.2,807516.9,811852.80000019,811853,2024-03-16T11:00:45Z,811866.8,NULL,Vergnügen,kichekesho,d,NA,NA,NA,Vergnügen,NA,NA,5,NA,NA,NA,NA,NA,NA,NA,NA,NA,NA,NA,NA,NA,NA,NA,NA,NA,NA,NA
57825,"""Richtig""-Screen",canvas.Screen,3_0_5_0_3_0_1,NA,NA,skipped,NA,811855,NA,NA,811852.80000019,811855.10000038,2024-03-16T11:00:45Z,811866.8,NULL,Vergnügen,kichekesho,d,NA,NA,NA,NA,sdf,NA,5,NA,NA,NA,NA,NA,NA,NA,NA,NA,NA,NA,NA,NA,NA,NA,NA,NA,NA,NA
57825,"""Falsch""-Screen",canvas.Screen,3_0_5_0_3_0_2,NA,NA,timeout,5000,811855.69999981,811850.454,811866.8,816850.2,816850.90000057,2024-03-16T11:00:50Z,816866.8,NULL,Vergnügen,kichekesho,d,NA,NA,NA,NA,sdf,0,5,NA,NA,NA,NA,NA,NA,NA,NA,NA,NA,NA,NA,NA,NA,NA,NA,NA,NA,NA
57825,deep,flow.Sequence,3_0_5_0_3_0,NA,NA,completion,9333.2999999999,807501.90000057,807500.2,807516.9,816850.2,816851.19999981,2024-03-16T11:00:50Z,816866.8,NULL,Vergnügen,kichekesho,d,NA,NA,NA,NA,sdf,NA,5,NA,NA,NA,NA,NA,NA,NA,NA,NA,NA,NA,NA,NA,NA,NA,NA,NA,NA,NA
57825,shallow,flow.Sequence,3_0_5_0_3_1,NA,NA,skipped,NA,816851.19999981,NA,NA,816850.2,816851.40000057,2024-03-16T11:00:50Z,816866.8,NULL,Vergnügen,kichekesho,d,NA,NA,NA,NA,sdf,NA,5,NA,NA,NA,NA,NA,NA,NA,NA,NA,NA,NA,NA,NA,NA,NA,NA,NA,NA,NA
57825,task,flow.Sequence,3_0_5_0_3,NA,NA,completion,9333.2999999999,807501.90000057,807500.2,807516.9,816850.2,816851.5,2024-03-16T11:00:50Z,816866.8,NULL,Vergnügen,kichekesho,d,NA,NA,NA,NA,sdf,NA,5,NA,NA,NA,NA,NA,NA,NA,NA,NA,NA,NA,NA,NA,NA,NA,NA,NA,NA,NA
57825,deep,flow.Sequence,3_0_5_0_4_0,NA,NA,skipped,NA,816851.60000038,NA,NA,816850.2,816851.60000038,2024-03-16T11:00:50Z,816866.8,NULL,Betrüger,mdanganyifu,s,mwanamuziki,wastani,mahakama,NA,sdf,NA,5,NA,NA,NA,NA,NA,NA,NA,NA,NA,NA,NA,NA,NA,NA,NA,NA,NA,NA,NA
57825,Shallow Question,html.Page,3_0_5_0_4_1_0,NA,NA,form submission,2559.1000005722,816851.69999981,816850.2,816866.8,819425.90000057,819426.19999981,2024-03-16T11:00:53Z,819433.5,NULL,Betrüger,mdanganyifu,s,mwanamuziki,wastani,mahakama,mdanganyifu,NA,NA,5,NA,NA,NA,NA,NA,NA,NA,NA,NA,NA,NA,NA,NA,NA,NA,NA,NA,NA,NA
57825,"""Richtig""-Screen",canvas.Screen,3_0_5_0_4_1_1,NA,NA,timeout,5000,819427.69999981,819418.346,819433.5,824416.8,824417.60000038,2024-03-16T11:00:58Z,824433.5,NULL,Betrüger,mdanganyifu,s,mwanamuziki,wastani,mahakama,NA,sdf,1,5,NA,NA,NA,NA,NA,NA,NA,NA,NA,NA,NA,NA,NA,NA,NA,NA,NA,NA,NA
57825,"""Falsch""-Screen",canvas.Screen,3_0_5_0_4_1_2,NA,NA,skipped,NA,824421.5,NA,NA,824416.8,824421.80000019,2024-03-16T11:00:58Z,824433.5,NULL,Betrüger,mdanganyifu,s,mwanamuziki,wastani,mahakama,NA,sdf,NA,5,NA,NA,NA,NA,NA,NA,NA,NA,NA,NA,NA,NA,NA,NA,NA,NA,NA,NA,NA
57825,shallow,flow.Sequence,3_0_5_0_4_1,NA,NA,completion,7550,816851.69999981,816850.2,816866.8,824416.8,824422,2024-03-16T11:00:58Z,824433.5,NULL,Betrüger,mdanganyifu,s,mwanamuziki,wastani,mahakama,NA,sdf,NA,5,NA,NA,NA,NA,NA,NA,NA,NA,NA,NA,NA,NA,NA,NA,NA,NA,NA,NA,NA
57825,task,flow.Sequence,3_0_5_0_4,NA,NA,completion,7550,816851.60000038,816850.2,816866.8,824416.8,824422.10000038,2024-03-16T11:00:58Z,824433.5,NULL,Betrüger,mdanganyifu,s,mwanamuziki,wastani,mahakama,NA,sdf,NA,5,NA,NA,NA,NA,NA,NA,NA,NA,NA,NA,NA,NA,NA,NA,NA,NA,NA,NA,NA
57825,deep,flow.Sequence,3_0_5_0_5_0,NA,NA,skipped,NA,824422.19999981,NA,NA,824416.8,824422.30000019,2024-03-16T11:00:58Z,824433.5,NULL,Wohlstand,mafanikio,s,chimbuko,kumbuko,mapwaji,NA,sdf,NA,5,NA,NA,NA,NA,NA,NA,NA,NA,NA,NA,NA,NA,NA,NA,NA,NA,NA,NA,NA
57825,Shallow Question,html.Page,3_0_5_0_5_1_0,NA,NA,form submission,3957.1999998093,824422.40000057,824416.8,824433.5,828390.69999981,828390.90000057,2024-03-16T11:01:02Z,828416.8,NULL,Wohlstand,mafanikio,s,chimbuko,kumbuko,mapwaji,mafanikio,NA,NA,5,NA,NA,NA,NA,NA,NA,NA,NA,NA,NA,NA,NA,NA,NA,NA,NA,NA,NA,NA
57825,"""Richtig""-Screen",canvas.Screen,3_0_5_0_5_1_1,NA,NA,timeout,5000,828392.5,828400.266,828416.8,833400.2,833401,2024-03-16T11:01:07Z,833416.8,NULL,Wohlstand,mafanikio,s,chimbuko,kumbuko,mapwaji,NA,sdf,1,5,NA,NA,NA,NA,NA,NA,NA,NA,NA,NA,NA,NA,NA,NA,NA,NA,NA,NA,NA
57825,"""Falsch""-Screen",canvas.Screen,3_0_5_0_5_1_2,NA,NA,skipped,NA,833405,NA,NA,833400.2,833405.19999981,2024-03-16T11:01:07Z,833416.8,NULL,Wohlstand,mafanikio,s,chimbuko,kumbuko,mapwaji,NA,sdf,NA,5,NA,NA,NA,NA,NA,NA,NA,NA,NA,NA,NA,NA,NA,NA,NA,NA,NA,NA,NA
57825,shallow,flow.Sequence,3_0_5_0_5_1,NA,NA,completion,8966.7,824422.40000057,824416.8,824433.5,833400.2,833405.40000057,2024-03-16T11:01:07Z,833416.8,NULL,Wohlstand,mafanikio,s,chimbuko,kumbuko,mapwaji,NA,sdf,NA,5,NA,NA,NA,NA,NA,NA,NA,NA,NA,NA,NA,NA,NA,NA,NA,NA,NA,NA,NA
57825,task,flow.Sequence,3_0_5_0_5,NA,NA,completion,8966.7,824422.19999981,824416.8,824433.5,833400.2,833405.5,2024-03-16T11:01:07Z,833416.8,NULL,Wohlstand,mafanikio,s,chimbuko,kumbuko,mapwaji,NA,sdf,NA,5,NA,NA,NA,NA,NA,NA,NA,NA,NA,NA,NA,NA,NA,NA,NA,NA,NA,NA,NA
57825,deep,flow.Sequence,3_0_5_0_6_0,NA,NA,skipped,NA,833405.69999981,NA,NA,833400.2,833405.69999981,2024-03-16T11:01:07Z,833416.8,NULL,Ergänzung,kijalizo,s,ulaghai,mustarehe,matangazo,NA,sdf,NA,5,NA,NA,NA,NA,NA,NA,NA,NA,NA,NA,NA,NA,NA,NA,NA,NA,NA,NA,NA
57825,Shallow Question,html.Page,3_0_5_0_6_1_0,NA,NA,form submission,8255.1000005722,833405.80000019,833400.2,833416.8,841671.90000057,841672.10000038,2024-03-16T11:01:15Z,841683.3,NULL,Ergänzung,kijalizo,s,ulaghai,mustarehe,matangazo,kijalizo,NA,NA,5,NA,NA,NA,NA,NA,NA,NA,NA,NA,NA,NA,NA,NA,NA,NA,NA,NA,NA,NA
57825,"""Richtig""-Screen",canvas.Screen,3_0_5_0_6_1_1,NA,NA,timeout,5000.1,841673.80000019,841666.914,841683.3,846666.8,846667.80000019,2024-03-16T11:01:20Z,846683.4,NULL,Ergänzung,kijalizo,s,ulaghai,mustarehe,matangazo,NA,sdf,1,5,NA,NA,NA,NA,NA,NA,NA,NA,NA,NA,NA,NA,NA,NA,NA,NA,NA,NA,NA
57825,"""Falsch""-Screen",canvas.Screen,3_0_5_0_6_1_2,NA,NA,skipped,NA,846671.90000057,NA,NA,846666.8,846672.10000038,2024-03-16T11:01:20Z,846683.4,NULL,Ergänzung,kijalizo,s,ulaghai,mustarehe,matangazo,NA,sdf,NA,5,NA,NA,NA,NA,NA,NA,NA,NA,NA,NA,NA,NA,NA,NA,NA,NA,NA,NA,NA
57825,shallow,flow.Sequence,3_0_5_0_6_1,NA,NA,completion,13250,833405.80000019,833400.2,833416.8,846666.8,846672.30000019,2024-03-16T11:01:20Z,846683.4,NULL,Ergänzung,kijalizo,s,ulaghai,mustarehe,matangazo,NA,sdf,NA,5,NA,NA,NA,NA,NA,NA,NA,NA,NA,NA,NA,NA,NA,NA,NA,NA,NA,NA,NA
57825,task,flow.Sequence,3_0_5_0_6,NA,NA,completion,13250,833405.69999981,833400.2,833416.8,846666.8,846672.5,2024-03-16T11:01:20Z,846683.4,NULL,Ergänzung,kijalizo,s,ulaghai,mustarehe,matangazo,NA,sdf,NA,5,NA,NA,NA,NA,NA,NA,NA,NA,NA,NA,NA,NA,NA,NA,NA,NA,NA,NA,NA
57825,Deep Question,html.Page,3_0_5_0_7_0_0,NA,NA,form submission,8219.2999998092,846672.60000038,846666.8,846683.4,854902.69999981,854903,2024-03-16T11:01:28Z,854933.5,NULL,Respekt,heshima,d,NA,NA,NA,Respekt,NA,NA,5,NA,NA,NA,NA,NA,NA,NA,NA,NA,NA,NA,NA,NA,NA,NA,NA,NA,NA,NA
57825,"""Richtig""-Screen",canvas.Screen,3_0_5_0_7_0_1,NA,NA,skipped,NA,854904.69999981,NA,NA,854902.69999981,854904.80000019,2024-03-16T11:01:28Z,854933.5,NULL,Respekt,heshima,d,NA,NA,NA,NA,sdf,NA,5,NA,NA,NA,NA,NA,NA,NA,NA,NA,NA,NA,NA,NA,NA,NA,NA,NA,NA,NA
57825,"""Falsch""-Screen",canvas.Screen,3_0_5_0_7_0_2,NA,NA,timeout,5000.1,854905.19999981,854916.852,854933.5,859916.8,859917.60000038,2024-03-16T11:01:33Z,859933.6,NULL,Respekt,heshima,d,NA,NA,NA,NA,sdf,0,5,NA,NA,NA,NA,NA,NA,NA,NA,NA,NA,NA,NA,NA,NA,NA,NA,NA,NA,NA
57825,deep,flow.Sequence,3_0_5_0_7_0,NA,NA,completion,13233.4,846672.60000038,846666.8,846683.4,859916.8,859918,2024-03-16T11:01:33Z,859933.6,NULL,Respekt,heshima,d,NA,NA,NA,NA,sdf,NA,5,NA,NA,NA,NA,NA,NA,NA,NA,NA,NA,NA,NA,NA,NA,NA,NA,NA,NA,NA
57825,shallow,flow.Sequence,3_0_5_0_7_1,NA,NA,skipped,NA,859918.10000038,NA,NA,859916.8,859918.10000038,2024-03-16T11:01:33Z,859933.6,NULL,Respekt,heshima,d,NA,NA,NA,NA,sdf,NA,5,NA,NA,NA,NA,NA,NA,NA,NA,NA,NA,NA,NA,NA,NA,NA,NA,NA,NA,NA
57825,task,flow.Sequence,3_0_5_0_7,NA,NA,completion,13233.4,846672.60000038,846666.8,846683.4,859916.8,859918.30000019,2024-03-16T11:01:33Z,859933.6,NULL,Respekt,heshima,d,NA,NA,NA,NA,sdf,NA,5,NA,NA,NA,NA,NA,NA,NA,NA,NA,NA,NA,NA,NA,NA,NA,NA,NA,NA,NA
57825,block,flow.Loop,3_0_5_0,NA,NA,completion,82800,777111.69999981,777100.276,777116.8,859916.8,859918.40000057,2024-03-16T11:01:33Z,859933.6,NULL,NA,NA,NA,NA,NA,NA,NA,sdf,NA,5,NA,NA,NA,NA,NA,NA,NA,NA,NA,NA,NA,NA,NA,NA,NA,NA,NA,NA,NA
57825,weiter,canvas.Screen,3_0_5_1,sdf,keypress(Space),response,656.30000057223,859918.5,859916.8,859933.6,860589.90000057,860590.69999981,2024-03-16T11:01:34Z,860650.1,NULL,NA,NA,NA,NA,NA,NA,NA,sdf,NA,5,NA,NA,NA,NA,NA,NA,NA,NA,NA,NA,NA,NA,NA,NA,NA,NA,NA,NA,NA
57825,check continue,flow.Sequence,3_0_5,NA,NA,completion,83473.100000572,777111.69999981,777100.276,777116.8,860589.90000057,860590.90000057,2024-03-16T11:01:34Z,860650.1,NULL,NA,NA,NA,NA,NA,NA,NA,sdf,NA,5,NA,NA,NA,NA,NA,NA,NA,NA,NA,NA,NA,NA,NA,NA,NA,NA,NA,NA,NA
57825,Deep Question,html.Page,3_0_6_0_0_0_0,NA,NA,form submission,4082.8000005722,860634.30000019,860633.572,860650.1,864732.90000057,864733.10000038,2024-03-16T11:01:38Z,864750.4,NULL,Notfall,dharura,d,NA,NA,NA,Notfall,NA,NA,6,NA,NA,NA,NA,NA,NA,NA,NA,NA,NA,NA,NA,NA,NA,NA,NA,NA,NA,NA
57825,"""Richtig""-Screen",canvas.Screen,3_0_6_0_0_0_1,NA,NA,skipped,NA,864734.80000019,NA,NA,864732.90000057,864734.90000057,2024-03-16T11:01:38Z,864750.4,NULL,Notfall,dharura,d,NA,NA,NA,NA,dfs,NA,6,NA,NA,NA,NA,NA,NA,NA,NA,NA,NA,NA,NA,NA,NA,NA,NA,NA,NA,NA
57825,"""Falsch""-Screen",canvas.Screen,3_0_6_0_0_0_2,NA,NA,timeout,4999.7999999999,864735.40000057,864733.46,864750.4,869733.5,869734.19999981,2024-03-16T11:01:43Z,869750.2,NULL,Notfall,dharura,d,NA,NA,NA,NA,dfs,0,6,NA,NA,NA,NA,NA,NA,NA,NA,NA,NA,NA,NA,NA,NA,NA,NA,NA,NA,NA
57825,deep,flow.Sequence,3_0_6_0_0_0,NA,NA,completion,9083.4,860634.30000019,860633.572,860650.1,869733.5,869734.40000057,2024-03-16T11:01:43Z,869750.2,NULL,Notfall,dharura,d,NA,NA,NA,NA,dfs,NA,6,NA,NA,NA,NA,NA,NA,NA,NA,NA,NA,NA,NA,NA,NA,NA,NA,NA,NA,NA
57825,shallow,flow.Sequence,3_0_6_0_0_1,NA,NA,skipped,NA,869734.5,NA,NA,869733.5,869734.69999981,2024-03-16T11:01:43Z,869750.2,NULL,Notfall,dharura,d,NA,NA,NA,NA,dfs,NA,6,NA,NA,NA,NA,NA,NA,NA,NA,NA,NA,NA,NA,NA,NA,NA,NA,NA,NA,NA
57825,task,flow.Sequence,3_0_6_0_0,NA,NA,completion,9083.4,860634.30000019,860633.572,860650.1,869733.5,869734.69999981,2024-03-16T11:01:43Z,869750.2,NULL,Notfall,dharura,d,NA,NA,NA,NA,dfs,NA,6,NA,NA,NA,NA,NA,NA,NA,NA,NA,NA,NA,NA,NA,NA,NA,NA,NA,NA,NA
57825,deep,flow.Sequence,3_0_6_0_1_0,NA,NA,skipped,NA,869734.80000019,NA,NA,869733.5,869734.90000057,2024-03-16T11:01:43Z,869750.2,NULL,Ergänzung,kijalizo,s,ulaghai,mustarehe,matangazo,NA,dfs,NA,6,NA,NA,NA,NA,NA,NA,NA,NA,NA,NA,NA,NA,NA,NA,NA,NA,NA,NA,NA
57825,Shallow Question,html.Page,3_0_6_0_1_1_0,NA,NA,form submission,2129.1000001908,869735.10000038,869733.5,869750.2,871879.30000019,871879.5,2024-03-16T11:01:45Z,871883.3,NULL,Ergänzung,kijalizo,s,ulaghai,mustarehe,matangazo,kijalizo,NA,NA,6,NA,NA,NA,NA,NA,NA,NA,NA,NA,NA,NA,NA,NA,NA,NA,NA,NA,NA,NA
57825,"""Richtig""-Screen",canvas.Screen,3_0_6_0_1_1_1,NA,NA,timeout,5000.1,871881.30000019,871866.926,871883.3,876866.8,876867.5,2024-03-16T11:01:50Z,876883.4,NULL,Ergänzung,kijalizo,s,ulaghai,mustarehe,matangazo,NA,dfs,1,6,NA,NA,NA,NA,NA,NA,NA,NA,NA,NA,NA,NA,NA,NA,NA,NA,NA,NA,NA
57825,"""Falsch""-Screen",canvas.Screen,3_0_6_0_1_1_2,NA,NA,skipped,NA,876871.5,NA,NA,876866.8,876871.69999981,2024-03-16T11:01:50Z,876883.4,NULL,Ergänzung,kijalizo,s,ulaghai,mustarehe,matangazo,NA,dfs,NA,6,NA,NA,NA,NA,NA,NA,NA,NA,NA,NA,NA,NA,NA,NA,NA,NA,NA,NA,NA
57825,shallow,flow.Sequence,3_0_6_0_1_1,NA,NA,completion,7116.6000000001,869735,869733.5,869750.2,876866.8,876871.90000057,2024-03-16T11:01:50Z,876883.4,NULL,Ergänzung,kijalizo,s,ulaghai,mustarehe,matangazo,NA,dfs,NA,6,NA,NA,NA,NA,NA,NA,NA,NA,NA,NA,NA,NA,NA,NA,NA,NA,NA,NA,NA
57825,task,flow.Sequence,3_0_6_0_1,NA,NA,completion,7116.6000000001,869734.80000019,869733.5,869750.2,876866.8,876872,2024-03-16T11:01:50Z,876883.4,NULL,Ergänzung,kijalizo,s,ulaghai,mustarehe,matangazo,NA,dfs,NA,6,NA,NA,NA,NA,NA,NA,NA,NA,NA,NA,NA,NA,NA,NA,NA,NA,NA,NA,NA
57825,deep,flow.Sequence,3_0_6_0_2_0,NA,NA,skipped,NA,876872.19999981,NA,NA,876866.8,876872.19999981,2024-03-16T11:01:50Z,876883.4,NULL,Stimmung,kinyongo,s,kilekile,kisambo,madhehebu,NA,dfs,NA,6,NA,NA,NA,NA,NA,NA,NA,NA,NA,NA,NA,NA,NA,NA,NA,NA,NA,NA,NA
57825,Shallow Question,html.Page,3_0_6_0_2_1_0,NA,NA,form submission,3492.6,876872.30000019,876866.8,876883.4,880376,880376.19999981,2024-03-16T11:01:54Z,880383.3,NULL,Stimmung,kinyongo,s,kilekile,kisambo,madhehebu,kisambo,NA,NA,6,NA,NA,NA,NA,NA,NA,NA,NA,NA,NA,NA,NA,NA,NA,NA,NA,NA,NA,NA
57825,"""Richtig""-Screen",canvas.Screen,3_0_6_0_2_1_1,NA,NA,skipped,NA,880377.69999981,NA,NA,880376,880377.80000019,2024-03-16T11:01:54Z,880383.3,NULL,Stimmung,kinyongo,s,kilekile,kisambo,madhehebu,NA,dfs,NA,6,NA,NA,NA,NA,NA,NA,NA,NA,NA,NA,NA,NA,NA,NA,NA,NA,NA,NA,NA
57825,"""Falsch""-Screen",canvas.Screen,3_0_6_0_2_1_2,NA,NA,timeout,5000.2,880378.30000019,880366.884,880383.3,885366.8,885367.69999981,2024-03-16T11:01:59Z,885383.5,NULL,Stimmung,kinyongo,s,kilekile,kisambo,madhehebu,NA,dfs,0,6,NA,NA,NA,NA,NA,NA,NA,NA,NA,NA,NA,NA,NA,NA,NA,NA,NA,NA,NA
57825,shallow,flow.Sequence,3_0_6_0_2_1,NA,NA,completion,8483.4,876872.30000019,876866.8,876883.4,885366.8,885368.10000038,2024-03-16T11:01:59Z,885383.5,NULL,Stimmung,kinyongo,s,kilekile,kisambo,madhehebu,NA,dfs,NA,6,NA,NA,NA,NA,NA,NA,NA,NA,NA,NA,NA,NA,NA,NA,NA,NA,NA,NA,NA
57825,task,flow.Sequence,3_0_6_0_2,NA,NA,completion,8483.4,876872.19999981,876866.8,876883.4,885366.8,885368.10000038,2024-03-16T11:01:59Z,885383.5,NULL,Stimmung,kinyongo,s,kilekile,kisambo,madhehebu,NA,dfs,NA,6,NA,NA,NA,NA,NA,NA,NA,NA,NA,NA,NA,NA,NA,NA,NA,NA,NA,NA,NA
57825,Deep Question,html.Page,3_0_6_0_3_0_0,NA,NA,form submission,8664.3000001907,885368.40000057,885366.8,885383.5,894047.80000019,894048.10000038,2024-03-16T11:02:07Z,894050.15,NULL,Vergnügen,kichekesho,d,NA,NA,NA,kichechebo,NA,NA,6,NA,NA,NA,NA,NA,NA,NA,NA,NA,NA,NA,NA,NA,NA,NA,NA,NA,NA,NA
57825,"""Richtig""-Screen",canvas.Screen,3_0_6_0_3_0_1,NA,NA,skipped,NA,894049.80000019,NA,NA,894047.80000019,894049.90000057,2024-03-16T11:02:07Z,894050.15,NULL,Vergnügen,kichekesho,d,NA,NA,NA,NA,dfs,NA,6,NA,NA,NA,NA,NA,NA,NA,NA,NA,NA,NA,NA,NA,NA,NA,NA,NA,NA,NA
57825,"""Falsch""-Screen",canvas.Screen,3_0_6_0_3_0_2,NA,NA,timeout,4999.95,894050.40000057,894050.15,894050.15,899033.4,899034.40000057,2024-03-16T11:02:12Z,899050.1,NULL,Vergnügen,kichekesho,d,NA,NA,NA,NA,dfs,0,6,NA,NA,NA,NA,NA,NA,NA,NA,NA,NA,NA,NA,NA,NA,NA,NA,NA,NA,NA
