observation,sender,sender_type,sender_id,response,response_action,ended_on,duration,time_run,time_render,time_show,time_end,time_commit,timestamp,time_switch,distractors,german,swahili,enc,distractor1,distractor2,distractor3,response_2,x,correct,x_2,url_vp,url_sess,meta_labjs_version,meta_location,meta_user_agent,meta_platform,meta_language,meta_locale,meta_time_zone,meta_timezone_offset,meta_screen_width,meta_screen_height,meta_scroll_width,meta_scroll_height,meta_window_inner_width,meta_window_inner_height,meta_device_pixel_ratio,meta_labjs_build_flavor,meta_labjs_build_commit
c65be,Introduction general,canvas.Screen,0,weiter,keypress(q),response,52103.362999857,917.09999990463,919.409,936.037,53039.399999857,53043.299999952,2023-11-02T09:15:29Z,53054.231,NULL,NA,NA,NA,NA,NA,NA,NA,NA,NA,NA,137,1,20.2.4,https://neurocog.fernuni.ch/studies/vweber/aberisha/encoding_immediate/index.html?vp=137&sess=1,"Mozilla/5.0 (Windows NT 10.0; Win64; x64) AppleWebKit/537.36 (KHTML, like Gecko) Chrome/118.0.0.0 Safari/537.36",Win32,de-DE,de,Europe/Zurich,-60,1739,979,1740,781,1740,829,1.1041666269302,production,f5b4a49f956347addd546a832a3327688c2c0fef
c65be,Introduction practice,canvas.Screen,1_0,NA,keypress(Space),response,8991.269,53044.099999904996,53031.005,53054.231,62045.5,62046.399999857,2023-11-02T09:15:38Z,62065.768,NULL,NA,NA,NA,NA,NA,NA,NA,NA,NA,NA,NA,NA,NA,NA,NA,NA,NA,NA,NA,NA,NA,NA,NA,NA,NA,NA,NA,NA,NA
c65be,deep,flow.Sequence,1_1_0_0,NA,NA,skipped,NA,62046.699999809,NA,NA,62045.5,62047,2023-11-02T09:15:38Z,62065.768,"c(""distractor1"", ""distractor2"", ""distractor3"")",Rückhalt,msaada,s,muhula,auwali,kiwimbe,NA,NA,NA,NA,NA,NA,NA,NA,NA,NA,NA,NA,NA,NA,NA,NA,NA,NA,NA,NA,NA,NA,NA
c65be,Shallow Question,html.Page,1_1_0_1_0,NA,NA,form submission,15040.131999857,62047.299999952,62033.053,62065.768,77105.899999857,77106.199999809,2023-11-02T09:15:54Z,77106.256,"c(""distractor1"", ""distractor2"", ""distractor3"")",Rückhalt,msaada,s,muhula,auwali,kiwimbe,auwali,NA,NA,NA,NA,NA,NA,NA,NA,NA,NA,NA,NA,NA,NA,NA,NA,NA,NA,NA,NA,NA,NA
c65be,"""Richtig""-Screen",canvas.Screen,1_1_0_1_1,NA,NA,skipped,NA,77111.099999905,NA,NA,77105.899999857,77111.199999809,2023-11-02T09:15:54Z,77106.256,"c(""distractor1"", ""distractor2"", ""distractor3"")",Rückhalt,msaada,s,muhula,auwali,kiwimbe,NA,NA,NA,NA,NA,NA,NA,NA,NA,NA,NA,NA,NA,NA,NA,NA,NA,NA,NA,NA,NA,NA,NA
c65be,"""Falsch""-Screen",canvas.Screen,1_1_0_1_2,NA,NA,timeout,4997.312,77112.099999905,77090.11,77106.256,82086.663,82091.699999809,2023-11-02T09:15:59Z,82103.568,"c(""distractor1"", ""distractor2"", ""distractor3"")",Rückhalt,msaada,s,muhula,auwali,kiwimbe,NA,NA,0,NA,NA,NA,NA,NA,NA,NA,NA,NA,NA,NA,NA,NA,NA,NA,NA,NA,NA,NA,NA
c65be,shallow,flow.Sequence,1_1_0_1,NA,NA,completion,20020.895,62047.199999809,62033.053,62065.768,82086.663,82092.199999809,2023-11-02T09:15:59Z,82103.568,"c(""distractor1"", ""distractor2"", ""distractor3"")",Rückhalt,msaada,s,muhula,auwali,kiwimbe,NA,NA,NA,NA,NA,NA,NA,NA,NA,NA,NA,NA,NA,NA,NA,NA,NA,NA,NA,NA,NA,NA,NA
c65be,task,flow.Sequence,1_1_0,NA,NA,completion,20020.895,62046.599999904996,62033.053,62065.768,82086.663,82092.399999857,2023-11-02T09:15:59Z,82103.568,"c(""distractor1"", ""distractor2"", ""distractor3"")",Rückhalt,msaada,s,muhula,auwali,kiwimbe,NA,NA,NA,NA,NA,NA,NA,NA,NA,NA,NA,NA,NA,NA,NA,NA,NA,NA,NA,NA,NA,NA,NA
c65be,Deep Question,html.Page,1_1_1_0_0,NA,NA,form submission,14856.531999905,82092.599999905,82086.663,82103.568,96960.099999905,96960.299999952,2023-11-02T09:16:13Z,96960.801,"c(""distractor1"", ""distractor2"", ""distractor3"")",Gesundheit,salama,d,NA,NA,NA,kawaki,NA,NA,NA,NA,NA,NA,NA,NA,NA,NA,NA,NA,NA,NA,NA,NA,NA,NA,NA,NA,NA,NA
c65be,"""Richtig""-Screen",canvas.Screen,1_1_1_0_1,NA,NA,skipped,NA,96967.899999857,NA,NA,96960.099999905,96968.099999905,2023-11-02T09:16:13Z,96960.801,"c(""distractor1"", ""distractor2"", ""distractor3"")",Gesundheit,salama,d,NA,NA,NA,NA,NA,NA,NA,NA,NA,NA,NA,NA,NA,NA,NA,NA,NA,NA,NA,NA,NA,NA,NA,NA,NA,NA
c65be,"""Falsch""-Screen",canvas.Screen,1_1_1_0_2,NA,NA,timeout,4997.35,96968.599999905,96945.266,96960.801,101941.548,101942.79999995,2023-11-02T09:16:18Z,101958.151,"c(""distractor1"", ""distractor2"", ""distractor3"")",Gesundheit,salama,d,NA,NA,NA,NA,NA,0,NA,NA,NA,NA,NA,NA,NA,NA,NA,NA,NA,NA,NA,NA,NA,NA,NA,NA,NA,NA
c65be,deep,flow.Sequence,1_1_1_0,NA,NA,completion,19837.98,82092.599999905,82086.663,82103.568,101941.548,101943.19999981,2023-11-02T09:16:18Z,101958.151,"c(""distractor1"", ""distractor2"", ""distractor3"")",Gesundheit,salama,d,NA,NA,NA,NA,NA,NA,NA,NA,NA,NA,NA,NA,NA,NA,NA,NA,NA,NA,NA,NA,NA,NA,NA,NA,NA,NA
c65be,shallow,flow.Sequence,1_1_1_1,NA,NA,skipped,NA,101943.39999986,NA,NA,101941.548,101943.69999980999,2023-11-02T09:16:18Z,101958.151,"c(""distractor1"", ""distractor2"", ""distractor3"")",Gesundheit,salama,d,NA,NA,NA,NA,NA,NA,NA,NA,NA,NA,NA,NA,NA,NA,NA,NA,NA,NA,NA,NA,NA,NA,NA,NA,NA,NA
c65be,task,flow.Sequence,1_1_1,NA,NA,completion,19837.98,82092.599999905,82086.663,82103.568,101941.548,101944,2023-11-02T09:16:18Z,101958.151,"c(""distractor1"", ""distractor2"", ""distractor3"")",Gesundheit,salama,d,NA,NA,NA,NA,NA,NA,NA,NA,NA,NA,NA,NA,NA,NA,NA,NA,NA,NA,NA,NA,NA,NA,NA,NA,NA,NA
c65be,deep,flow.Sequence,1_1_2_0,NA,NA,skipped,NA,101944.19999981,NA,NA,101941.548,101944.39999986,2023-11-02T09:16:18Z,101958.151,"c(""distractor1"", ""distractor2"", ""distractor3"")",Kritik,lawama,s,dereva,nafasi,mawazo,NA,NA,NA,NA,NA,NA,NA,NA,NA,NA,NA,NA,NA,NA,NA,NA,NA,NA,NA,NA,NA,NA,NA
c65be,Shallow Question,html.Page,1_1_2_1_0,NA,NA,form submission,6287.9489999046,101944.5999999,101941.548,101958.151,108246.0999999,108246.39999986,2023-11-02T09:16:25Z,108253.891,"c(""distractor1"", ""distractor2"", ""distractor3"")",Kritik,lawama,s,dereva,nafasi,mawazo,mawazo,NA,NA,NA,NA,NA,NA,NA,NA,NA,NA,NA,NA,NA,NA,NA,NA,NA,NA,NA,NA,NA,NA
c65be,"""Richtig""-Screen",canvas.Screen,1_1_2_1_1,NA,NA,skipped,NA,108249.69999980999,NA,NA,108246.0999999,108249.89999986,2023-11-02T09:16:25Z,108253.891,"c(""distractor1"", ""distractor2"", ""distractor3"")",Kritik,lawama,s,dereva,nafasi,mawazo,NA,NA,NA,NA,NA,NA,NA,NA,NA,NA,NA,NA,NA,NA,NA,NA,NA,NA,NA,NA,NA,NA,NA
c65be,"""Falsch""-Screen",canvas.Screen,1_1_2_1_2,NA,NA,timeout,4997.39,108250.5,108237.387,108253.891,113234.4,113235.39999986,2023-11-02T09:16:30Z,113251.281,"c(""distractor1"", ""distractor2"", ""distractor3"")",Kritik,lawama,s,dereva,nafasi,mawazo,NA,NA,0,NA,NA,NA,NA,NA,NA,NA,NA,NA,NA,NA,NA,NA,NA,NA,NA,NA,NA,NA,NA
c65be,shallow,flow.Sequence,1_1_2_1,NA,NA,completion,11276.249,101944.5,101941.548,101958.151,113234.4,113235.79999995,2023-11-02T09:16:30Z,113251.281,"c(""distractor1"", ""distractor2"", ""distractor3"")",Kritik,lawama,s,dereva,nafasi,mawazo,NA,NA,NA,NA,NA,NA,NA,NA,NA,NA,NA,NA,NA,NA,NA,NA,NA,NA,NA,NA,NA,NA,NA
c65be,task,flow.Sequence,1_1_2,NA,NA,completion,11276.249,101944.0999999,101941.548,101958.151,113234.4,113236.0999999,2023-11-02T09:16:30Z,113251.281,"c(""distractor1"", ""distractor2"", ""distractor3"")",Kritik,lawama,s,dereva,nafasi,mawazo,NA,NA,NA,NA,NA,NA,NA,NA,NA,NA,NA,NA,NA,NA,NA,NA,NA,NA,NA,NA,NA,NA,NA
c65be,Deep Question,html.Page,1_1_3_0_0,NA,NA,form submission,7464.0189999523,113236.29999995,113234.4,113251.281,120715.29999995,120715.5,2023-11-02T09:16:37Z,120729.592,"c(""distractor1"", ""distractor2"", ""distractor3"")",Schatten,kivuli,d,NA,NA,NA,haus,NA,NA,NA,NA,NA,NA,NA,NA,NA,NA,NA,NA,NA,NA,NA,NA,NA,NA,NA,NA,NA,NA
c65be,"""Richtig""-Screen",canvas.Screen,1_1_3_0_1,NA,NA,skipped,NA,120718.69999981,NA,NA,120715.29999995,120718.89999986,2023-11-02T09:16:37Z,120729.592,"c(""distractor1"", ""distractor2"", ""distractor3"")",Schatten,kivuli,d,NA,NA,NA,NA,NA,NA,NA,NA,NA,NA,NA,NA,NA,NA,NA,NA,NA,NA,NA,NA,NA,NA,NA,NA,NA,NA
c65be,"""Falsch""-Screen",canvas.Screen,1_1_3_0_2,NA,NA,timeout,4997.315,120719.5,120698.775,120729.592,125710.305,125712.29999995,2023-11-02T09:16:42Z,125726.907,"c(""distractor1"", ""distractor2"", ""distractor3"")",Schatten,kivuli,d,NA,NA,NA,NA,NA,0,NA,NA,NA,NA,NA,NA,NA,NA,NA,NA,NA,NA,NA,NA,NA,NA,NA,NA,NA,NA
c65be,deep,flow.Sequence,1_1_3_0,NA,NA,completion,12459.024,113236.19999981,113234.4,113251.281,125710.305,125712.79999995,2023-11-02T09:16:42Z,125726.907,"c(""distractor1"", ""distractor2"", ""distractor3"")",Schatten,kivuli,d,NA,NA,NA,NA,NA,NA,NA,NA,NA,NA,NA,NA,NA,NA,NA,NA,NA,NA,NA,NA,NA,NA,NA,NA,NA,NA
c65be,shallow,flow.Sequence,1_1_3_1,NA,NA,skipped,NA,125712.89999986,NA,NA,125710.305,125713.0999999,2023-11-02T09:16:42Z,125726.907,"c(""distractor1"", ""distractor2"", ""distractor3"")",Schatten,kivuli,d,NA,NA,NA,NA,NA,NA,NA,NA,NA,NA,NA,NA,NA,NA,NA,NA,NA,NA,NA,NA,NA,NA,NA,NA,NA,NA
c65be,task,flow.Sequence,1_1_3,NA,NA,completion,12459.024,113236.19999981,113234.4,113251.281,125710.305,125713.29999995,2023-11-02T09:16:42Z,125726.907,"c(""distractor1"", ""distractor2"", ""distractor3"")",Schatten,kivuli,d,NA,NA,NA,NA,NA,NA,NA,NA,NA,NA,NA,NA,NA,NA,NA,NA,NA,NA,NA,NA,NA,NA,NA,NA,NA,NA
c65be,Deep Question,html.Page,1_1_4_0_0,NA,NA,form submission,6187.1929999046,125713.5999999,125710.305,125726.907,131914.0999999,131914.19999981,2023-11-02T09:16:48Z,131922.737,"c(""distractor1"", ""distractor2"", ""distractor3"")",Qualität,mtindo,d,NA,NA,NA,abc,NA,NA,NA,NA,NA,NA,NA,NA,NA,NA,NA,NA,NA,NA,NA,NA,NA,NA,NA,NA,NA,NA
c65be,"""Richtig""-Screen",canvas.Screen,1_1_4_0_1,NA,NA,skipped,NA,131915.89999986,NA,NA,131914.0999999,131916.0999999,2023-11-02T09:16:48Z,131922.737,"c(""distractor1"", ""distractor2"", ""distractor3"")",Qualität,mtindo,d,NA,NA,NA,NA,NA,NA,NA,NA,NA,NA,NA,NA,NA,NA,NA,NA,NA,NA,NA,NA,NA,NA,NA,NA,NA,NA
c65be,"""Falsch""-Screen",canvas.Screen,1_1_4_0_2,NA,NA,timeout,4997.17,131916.5999999,131906.116,131922.737,136903.264,136904.39999986,2023-11-02T09:16:53Z,136919.907,"c(""distractor1"", ""distractor2"", ""distractor3"")",Qualität,mtindo,d,NA,NA,NA,NA,NA,0,NA,NA,NA,NA,NA,NA,NA,NA,NA,NA,NA,NA,NA,NA,NA,NA,NA,NA,NA,NA
c65be,deep,flow.Sequence,1_1_4_0,NA,NA,completion,11176.357,125713.5999999,125710.305,125726.907,136903.264,136904.79999995,2023-11-02T09:16:53Z,136919.907,"c(""distractor1"", ""distractor2"", ""distractor3"")",Qualität,mtindo,d,NA,NA,NA,NA,NA,NA,NA,NA,NA,NA,NA,NA,NA,NA,NA,NA,NA,NA,NA,NA,NA,NA,NA,NA,NA,NA
c65be,shallow,flow.Sequence,1_1_4_1,NA,NA,skipped,NA,136904.89999986,NA,NA,136903.264,136905.19999981,2023-11-02T09:16:53Z,136919.907,"c(""distractor1"", ""distractor2"", ""distractor3"")",Qualität,mtindo,d,NA,NA,NA,NA,NA,NA,NA,NA,NA,NA,NA,NA,NA,NA,NA,NA,NA,NA,NA,NA,NA,NA,NA,NA,NA,NA
c65be,task,flow.Sequence,1_1_4,NA,NA,completion,11176.357,125713.5,125710.305,125726.907,136903.264,136905.39999986,2023-11-02T09:16:53Z,136919.907,"c(""distractor1"", ""distractor2"", ""distractor3"")",Qualität,mtindo,d,NA,NA,NA,NA,NA,NA,NA,NA,NA,NA,NA,NA,NA,NA,NA,NA,NA,NA,NA,NA,NA,NA,NA,NA,NA,NA
c65be,deep,flow.Sequence,1_1_5_0,NA,NA,skipped,NA,136905.69999981,NA,NA,136903.264,136905.79999995,2023-11-02T09:16:53Z,136919.907,"c(""distractor1"", ""distractor2"", ""distractor3"")",Gegenwart,hadhara,s,katiba,jokofu,mikopo,NA,NA,NA,NA,NA,NA,NA,NA,NA,NA,NA,NA,NA,NA,NA,NA,NA,NA,NA,NA,NA,NA,NA
c65be,Shallow Question,html.Page,1_1_5_1_0,NA,NA,form submission,5928.593,136906,136903.264,136919.907,142848.5,142848.69999981,2023-11-02T09:16:59Z,142849.443,"c(""distractor1"", ""distractor2"", ""distractor3"")",Gegenwart,hadhara,s,katiba,jokofu,mikopo,katiba,NA,NA,NA,NA,NA,NA,NA,NA,NA,NA,NA,NA,NA,NA,NA,NA,NA,NA,NA,NA,NA,NA
c65be,"""Richtig""-Screen",canvas.Screen,1_1_5_1_1,NA,NA,skipped,NA,142852,NA,NA,142848.5,142852.0999999,2023-11-02T09:16:59Z,142849.443,"c(""distractor1"", ""distractor2"", ""distractor3"")",Gegenwart,hadhara,s,katiba,jokofu,mikopo,NA,NA,NA,NA,NA,NA,NA,NA,NA,NA,NA,NA,NA,NA,NA,NA,NA,NA,NA,NA,NA,NA,NA
c65be,"""Falsch""-Screen",canvas.Screen,1_1_5_1_2,NA,NA,timeout,4997.285,142852.69999981,142833.047,142849.443,147829.934,147831.0999999,2023-11-02T09:17:04Z,147846.728,"c(""distractor1"", ""distractor2"", ""distractor3"")",Gegenwart,hadhara,s,katiba,jokofu,mikopo,NA,NA,0,NA,NA,NA,NA,NA,NA,NA,NA,NA,NA,NA,NA,NA,NA,NA,NA,NA,NA,NA,NA
c65be,shallow,flow.Sequence,1_1_5_1,NA,NA,completion,10910.027,136905.89999986,136903.264,136919.907,147829.934,147831.5,2023-11-02T09:17:04Z,147846.728,"c(""distractor1"", ""distractor2"", ""distractor3"")",Gegenwart,hadhara,s,katiba,jokofu,mikopo,NA,NA,NA,NA,NA,NA,NA,NA,NA,NA,NA,NA,NA,NA,NA,NA,NA,NA,NA,NA,NA,NA,NA
c65be,task,flow.Sequence,1_1_5,NA,NA,completion,10910.027,136905.5999999,136903.264,136919.907,147829.934,147831.69999981,2023-11-02T09:17:04Z,147846.728,"c(""distractor1"", ""distractor2"", ""distractor3"")",Gegenwart,hadhara,s,katiba,jokofu,mikopo,NA,NA,NA,NA,NA,NA,NA,NA,NA,NA,NA,NA,NA,NA,NA,NA,NA,NA,NA,NA,NA,NA,NA
c65be,block,flow.Loop,1_1,NA,NA,completion,85764.166,62046.599999904996,62033.053,62065.768,147829.934,147832,2023-11-02T09:17:04Z,147846.728,"c(""distractor1"", ""distractor2"", ""distractor3"")",NA,NA,NA,NA,NA,NA,NA,NA,NA,NA,NA,NA,NA,NA,NA,NA,NA,NA,NA,NA,NA,NA,NA,NA,NA,NA,NA,NA,NA
c65be,Practice,flow.Sequence,1,NA,NA,completion,94775.703,53044.099999904996,53031.005,53054.231,147829.934,147832.29999995,2023-11-02T09:17:04Z,147846.728,NULL,NA,NA,NA,NA,NA,NA,NA,NA,NA,NA,NA,NA,NA,NA,NA,NA,NA,NA,NA,NA,NA,NA,NA,NA,NA,NA,NA,NA,NA
c65be,Experiment start,canvas.Screen,2,weiter,keypress(q),response,82061.971999809,147832.5,147829.934,147846.728,229908.69999981,229910,2023-11-02T09:18:26Z,229979.526,NULL,NA,NA,NA,NA,NA,NA,NA,NA,NA,NA,NA,NA,NA,NA,NA,NA,NA,NA,NA,NA,NA,NA,NA,NA,NA,NA,NA,NA,NA
c65be,Deep Question,html.Page,3_0_0_0_0_0_0,NA,NA,form submission,8239.2739999523,229978.0999999,229900.309,229979.526,238218.79999995,238219.0999999,2023-11-02T09:18:35Z,238224.507,NULL,Ausschluss,kutengwa,d,NA,NA,NA,mhade,NA,NA,0,NA,NA,NA,NA,NA,NA,NA,NA,NA,NA,NA,NA,NA,NA,NA,NA,NA,NA,NA
c65be,"""Richtig""-Screen",canvas.Screen,3_0_0_0_0_0_1,NA,NA,skipped,NA,238222.19999981,NA,NA,238218.79999995,238222.39999986,2023-11-02T09:18:35Z,238224.507,NULL,Ausschluss,kutengwa,d,NA,NA,NA,NA,sdf,NA,0,NA,NA,NA,NA,NA,NA,NA,NA,NA,NA,NA,NA,NA,NA,NA,NA,NA,NA,NA
c65be,"""Falsch""-Screen",canvas.Screen,3_0_0_0_0_0_2,NA,NA,timeout,4997.529,238223.29999995,238208.252,238224.507,243204.859,243205.89999986,2023-11-02T09:18:40Z,243222.036,NULL,Ausschluss,kutengwa,d,NA,NA,NA,NA,sdf,0,0,NA,NA,NA,NA,NA,NA,NA,NA,NA,NA,NA,NA,NA,NA,NA,NA,NA,NA,NA
c65be,deep,flow.Sequence,3_0_0_0_0_0,NA,NA,completion,13225.333,229978.0999999,229900.309,229979.526,243204.859,243206.29999995,2023-11-02T09:18:40Z,243222.036,NULL,Ausschluss,kutengwa,d,NA,NA,NA,NA,sdf,NA,0,NA,NA,NA,NA,NA,NA,NA,NA,NA,NA,NA,NA,NA,NA,NA,NA,NA,NA,NA
c65be,shallow,flow.Sequence,3_0_0_0_0_1,NA,NA,skipped,NA,243206.5,NA,NA,243204.859,243206.69999981,2023-11-02T09:18:40Z,243222.036,NULL,Ausschluss,kutengwa,d,NA,NA,NA,NA,sdf,NA,0,NA,NA,NA,NA,NA,NA,NA,NA,NA,NA,NA,NA,NA,NA,NA,NA,NA,NA,NA
c65be,task,flow.Sequence,3_0_0_0_0,NA,NA,completion,13225.333,229978.0999999,229900.309,229979.526,243204.859,243206.89999986,2023-11-02T09:18:40Z,243222.036,NULL,Ausschluss,kutengwa,d,NA,NA,NA,NA,sdf,NA,0,NA,NA,NA,NA,NA,NA,NA,NA,NA,NA,NA,NA,NA,NA,NA,NA,NA,NA,NA
c65be,Deep Question,html.Page,3_0_0_0_1_0_0,NA,NA,form submission,7064.6639998093,243207.0999999,243204.859,243222.036,250286.69999981,250287,2023-11-02T09:18:47Z,250300.822,NULL,Gelegenheit,wakati,d,NA,NA,NA,mahde,NA,NA,0,NA,NA,NA,NA,NA,NA,NA,NA,NA,NA,NA,NA,NA,NA,NA,NA,NA,NA,NA
c65be,"""Richtig""-Screen",canvas.Screen,3_0_0_0_1_0_1,NA,NA,skipped,NA,250290,NA,NA,250286.69999981,250290.0999999,2023-11-02T09:18:47Z,250300.822,NULL,Gelegenheit,wakati,d,NA,NA,NA,NA,sdf,NA,0,NA,NA,NA,NA,NA,NA,NA,NA,NA,NA,NA,NA,NA,NA,NA,NA,NA,NA,NA
c65be,"""Falsch""-Screen",canvas.Screen,3_0_0_0_1_0_2,NA,NA,timeout,4997.051,250290.79999995,250284.232,250300.822,255281.233,255282.29999995,2023-11-02T09:18:52Z,255297.873,NULL,Gelegenheit,wakati,d,NA,NA,NA,NA,sdf,0,0,NA,NA,NA,NA,NA,NA,NA,NA,NA,NA,NA,NA,NA,NA,NA,NA,NA,NA,NA
c65be,deep,flow.Sequence,3_0_0_0_1_0,NA,NA,completion,12059.197,243207.0999999,243204.859,243222.036,255281.233,255282.5999999,2023-11-02T09:18:52Z,255297.873,NULL,Gelegenheit,wakati,d,NA,NA,NA,NA,sdf,NA,0,NA,NA,NA,NA,NA,NA,NA,NA,NA,NA,NA,NA,NA,NA,NA,NA,NA,NA,NA
c65be,shallow,flow.Sequence,3_0_0_0_1_1,NA,NA,skipped,NA,255282.79999995,NA,NA,255281.233,255282.89999986,2023-11-02T09:18:52Z,255297.873,NULL,Gelegenheit,wakati,d,NA,NA,NA,NA,sdf,NA,0,NA,NA,NA,NA,NA,NA,NA,NA,NA,NA,NA,NA,NA,NA,NA,NA,NA,NA,NA
c65be,task,flow.Sequence,3_0_0_0_1,NA,NA,completion,12059.197,243207,243204.859,243222.036,255281.233,255283.19999981,2023-11-02T09:18:52Z,255297.873,NULL,Gelegenheit,wakati,d,NA,NA,NA,NA,sdf,NA,0,NA,NA,NA,NA,NA,NA,NA,NA,NA,NA,NA,NA,NA,NA,NA,NA,NA,NA,NA
c65be,Deep Question,html.Page,3_0_0_0_2_0_0,NA,NA,form submission,8602.9269999523,255283.39999986,255281.233,255297.873,263900.79999995,263901,2023-11-02T09:19:00Z,263908.8,NULL,Notfall,dharura,d,NA,NA,NA,kotu,NA,NA,0,NA,NA,NA,NA,NA,NA,NA,NA,NA,NA,NA,NA,NA,NA,NA,NA,NA,NA,NA
c65be,"""Richtig""-Screen",canvas.Screen,3_0_0_0_2_0_1,NA,NA,skipped,NA,263903.69999981,NA,NA,263900.79999995,263903.79999995,2023-11-02T09:19:00Z,263908.8,NULL,Notfall,dharura,d,NA,NA,NA,NA,sdf,NA,0,NA,NA,NA,NA,NA,NA,NA,NA,NA,NA,NA,NA,NA,NA,NA,NA,NA,NA,NA
c65be,"""Falsch""-Screen",canvas.Screen,3_0_0_0_2_0_2,NA,NA,timeout,4997.207,263904.39999986,263892.665,263908.8,268889.481,268890.69999981,2023-11-02T09:19:05Z,268906.007,NULL,Notfall,dharura,d,NA,NA,NA,NA,sdf,0,0,NA,NA,NA,NA,NA,NA,NA,NA,NA,NA,NA,NA,NA,NA,NA,NA,NA,NA,NA
c65be,deep,flow.Sequence,3_0_0_0_2_0,NA,NA,completion,13591.608,255283.39999986,255281.233,255297.873,268889.481,268891.19999981,2023-11-02T09:19:05Z,268906.007,NULL,Notfall,dharura,d,NA,NA,NA,NA,sdf,NA,0,NA,NA,NA,NA,NA,NA,NA,NA,NA,NA,NA,NA,NA,NA,NA,NA,NA,NA,NA
c65be,shallow,flow.Sequence,3_0_0_0_2_1,NA,NA,skipped,NA,268891.29999995,NA,NA,268889.481,268891.5,2023-11-02T09:19:05Z,268906.007,NULL,Notfall,dharura,d,NA,NA,NA,NA,sdf,NA,0,NA,NA,NA,NA,NA,NA,NA,NA,NA,NA,NA,NA,NA,NA,NA,NA,NA,NA,NA
c65be,task,flow.Sequence,3_0_0_0_2,NA,NA,completion,13591.608,255283.29999995,255281.233,255297.873,268889.481,268891.79999995,2023-11-02T09:19:05Z,268906.007,NULL,Notfall,dharura,d,NA,NA,NA,NA,sdf,NA,0,NA,NA,NA,NA,NA,NA,NA,NA,NA,NA,NA,NA,NA,NA,NA,NA,NA,NA,NA
c65be,deep,flow.Sequence,3_0_0_0_3_0,NA,NA,skipped,NA,268892,NA,NA,268889.481,268892.0999999,2023-11-02T09:19:05Z,268906.007,NULL,Verstand,ufahamivu,s,shakawa,hadhari,mhandisi,NA,sdf,NA,0,NA,NA,NA,NA,NA,NA,NA,NA,NA,NA,NA,NA,NA,NA,NA,NA,NA,NA,NA
c65be,Shallow Question,html.Page,3_0_0_0_3_1_0,NA,NA,form submission,7176.7929999523,268892.29999995,268889.481,268906.007,276082.79999995,276083,2023-11-02T09:19:12Z,276084.759,NULL,Verstand,ufahamivu,s,shakawa,hadhari,mhandisi,hadhari,NA,NA,0,NA,NA,NA,NA,NA,NA,NA,NA,NA,NA,NA,NA,NA,NA,NA,NA,NA,NA,NA
c65be,"""Richtig""-Screen",canvas.Screen,3_0_0_0_3_1_1,NA,NA,skipped,NA,276086.39999986,NA,NA,276082.79999995,276086.5999999,2023-11-02T09:19:12Z,276084.759,NULL,Verstand,ufahamivu,s,shakawa,hadhari,mhandisi,NA,sdf,NA,0,NA,NA,NA,NA,NA,NA,NA,NA,NA,NA,NA,NA,NA,NA,NA,NA,NA,NA,NA
c65be,"""Falsch""-Screen",canvas.Screen,3_0_0_0_3_1_2,NA,NA,timeout,4997.518,276087.29999995,276068.357,276084.759,281065.295,281066.39999986,2023-11-02T09:19:17Z,281082.277,NULL,Verstand,ufahamivu,s,shakawa,hadhari,mhandisi,NA,sdf,0,0,NA,NA,NA,NA,NA,NA,NA,NA,NA,NA,NA,NA,NA,NA,NA,NA,NA,NA,NA
c65be,shallow,flow.Sequence,3_0_0_0_3_1,NA,NA,completion,12159.288,268892.19999981,268889.481,268906.007,281065.295,281066.79999995,2023-11-02T09:19:17Z,281082.277,NULL,Verstand,ufahamivu,s,shakawa,hadhari,mhandisi,NA,sdf,NA,0,NA,NA,NA,NA,NA,NA,NA,NA,NA,NA,NA,NA,NA,NA,NA,NA,NA,NA,NA
c65be,task,flow.Sequence,3_0_0_0_3,NA,NA,completion,12159.288,268891.89999986,268889.481,268906.007,281065.295,281067,2023-11-02T09:19:17Z,281082.277,NULL,Verstand,ufahamivu,s,shakawa,hadhari,mhandisi,NA,sdf,NA,0,NA,NA,NA,NA,NA,NA,NA,NA,NA,NA,NA,NA,NA,NA,NA,NA,NA,NA,NA
c65be,deep,flow.Sequence,3_0_0_0_4_0,NA,NA,skipped,NA,281067.29999995,NA,NA,281065.295,281067.39999986,2023-11-02T09:19:17Z,281082.277,NULL,Ergänzung,kijalizo,s,ulaghai,mustarehe,matangazo,NA,sdf,NA,0,NA,NA,NA,NA,NA,NA,NA,NA,NA,NA,NA,NA,NA,NA,NA,NA,NA,NA,NA
c65be,Shallow Question,html.Page,3_0_0_0_4_1_0,NA,NA,form submission,9602.4229998093,281067.69999981,281065.295,281082.277,290684.69999981,290685,2023-11-02T09:19:27Z,290692.483,NULL,Ergänzung,kijalizo,s,ulaghai,mustarehe,matangazo,ulaghai,NA,NA,0,NA,NA,NA,NA,NA,NA,NA,NA,NA,NA,NA,NA,NA,NA,NA,NA,NA,NA,NA
c65be,"""Richtig""-Screen",canvas.Screen,3_0_0_0_4_1_1,NA,NA,skipped,NA,290688.19999981,NA,NA,290684.69999981,290688.39999986,2023-11-02T09:19:27Z,290692.483,NULL,Ergänzung,kijalizo,s,ulaghai,mustarehe,matangazo,NA,sdf,NA,0,NA,NA,NA,NA,NA,NA,NA,NA,NA,NA,NA,NA,NA,NA,NA,NA,NA,NA,NA
c65be,"""Falsch""-Screen",canvas.Screen,3_0_0_0_4_1_2,NA,NA,timeout,4997.306,290689,290677.197,290692.483,295673.131,295673.69999981,2023-11-02T09:19:32Z,295689.789,NULL,Ergänzung,kijalizo,s,ulaghai,mustarehe,matangazo,NA,sdf,0,0,NA,NA,NA,NA,NA,NA,NA,NA,NA,NA,NA,NA,NA,NA,NA,NA,NA,NA,NA
c65be,shallow,flow.Sequence,3_0_0_0_4_1,NA,NA,completion,14590.854,281067.5999999,281065.295,281082.277,295673.131,295673.79999995,2023-11-02T09:19:32Z,295689.789,NULL,Ergänzung,kijalizo,s,ulaghai,mustarehe,matangazo,NA,sdf,NA,0,NA,NA,NA,NA,NA,NA,NA,NA,NA,NA,NA,NA,NA,NA,NA,NA,NA,NA,NA
c65be,task,flow.Sequence,3_0_0_0_4,NA,NA,completion,14590.854,281067.19999981,281065.295,281082.277,295673.131,295673.89999986,2023-11-02T09:19:32Z,295689.789,NULL,Ergänzung,kijalizo,s,ulaghai,mustarehe,matangazo,NA,sdf,NA,0,NA,NA,NA,NA,NA,NA,NA,NA,NA,NA,NA,NA,NA,NA,NA,NA,NA,NA,NA
c65be,deep,flow.Sequence,3_0_0_0_5_0,NA,NA,skipped,NA,295673.89999986,NA,NA,295673.131,295674,2023-11-02T09:19:32Z,295689.789,NULL,Widerstand,usulubu,s,kusababisha,mwalimu,mwenendo,NA,sdf,NA,0,NA,NA,NA,NA,NA,NA,NA,NA,NA,NA,NA,NA,NA,NA,NA,NA,NA,NA,NA
c65be,Shallow Question,html.Page,3_0_0_0_5_1_0,NA,NA,form submission,7259.610999857,295674.0999999,295673.131,295689.789,302949.39999986,302949.69999981,2023-11-02T09:19:39Z,302968.536,NULL,Widerstand,usulubu,s,kusababisha,mwalimu,mwenendo,mwenendo,NA,NA,0,NA,NA,NA,NA,NA,NA,NA,NA,NA,NA,NA,NA,NA,NA,NA,NA,NA,NA,NA
c65be,"""Richtig""-Screen",canvas.Screen,3_0_0_0_5_1_1,NA,NA,skipped,NA,302952.89999986,NA,NA,302949.39999986,302953,2023-11-02T09:19:39Z,302968.536,NULL,Widerstand,usulubu,s,kusababisha,mwalimu,mwenendo,NA,sdf,NA,0,NA,NA,NA,NA,NA,NA,NA,NA,NA,NA,NA,NA,NA,NA,NA,NA,NA,NA,NA
c65be,"""Falsch""-Screen",canvas.Screen,3_0_0_0_5_1_2,NA,NA,timeout,4997.202,302953.79999995,302951.689,302968.536,307948.743,307949.79999995,2023-11-02T09:19:44Z,307965.738,NULL,Widerstand,usulubu,s,kusababisha,mwalimu,mwenendo,NA,sdf,0,0,NA,NA,NA,NA,NA,NA,NA,NA,NA,NA,NA,NA,NA,NA,NA,NA,NA,NA,NA
c65be,shallow,flow.Sequence,3_0_0_0_5_1,NA,NA,completion,12258.954,295674.0999999,295673.131,295689.789,307948.743,307950.29999995,2023-11-02T09:19:44Z,307965.738,NULL,Widerstand,usulubu,s,kusababisha,mwalimu,mwenendo,NA,sdf,NA,0,NA,NA,NA,NA,NA,NA,NA,NA,NA,NA,NA,NA,NA,NA,NA,NA,NA,NA,NA
c65be,task,flow.Sequence,3_0_0_0_5,NA,NA,completion,12258.954,295673.89999986,295673.131,295689.789,307948.743,307950.5999999,2023-11-02T09:19:44Z,307965.738,NULL,Widerstand,usulubu,s,kusababisha,mwalimu,mwenendo,NA,sdf,NA,0,NA,NA,NA,NA,NA,NA,NA,NA,NA,NA,NA,NA,NA,NA,NA,NA,NA,NA,NA
c65be,deep,flow.Sequence,3_0_0_0_6_0,NA,NA,skipped,NA,307950.89999986,NA,NA,307948.743,307951,2023-11-02T09:19:44Z,307965.738,NULL,Wohlstand,mafanikio,s,chimbuko,kumbuko,mapwaji,NA,sdf,NA,0,NA,NA,NA,NA,NA,NA,NA,NA,NA,NA,NA,NA,NA,NA,NA,NA,NA,NA,NA
c65be,Shallow Question,html.Page,3_0_0_0_6_1_0,NA,NA,form submission,5068.8619999046,307951.19999981,307948.743,307965.738,313034.5999999,313034.89999986,2023-11-02T09:19:49Z,313045.49,NULL,Wohlstand,mafanikio,s,chimbuko,kumbuko,mapwaji,mafanikio,NA,NA,0,NA,NA,NA,NA,NA,NA,NA,NA,NA,NA,NA,NA,NA,NA,NA,NA,NA,NA,NA
c65be,"""Richtig""-Screen",canvas.Screen,3_0_0_0_6_1_1,NA,NA,timeout,4997.573,313038.19999981,313029.002,313045.49,318025.83,318027.5,2023-11-02T09:19:54Z,318043.063,NULL,Wohlstand,mafanikio,s,chimbuko,kumbuko,mapwaji,NA,sdf,1,0,NA,NA,NA,NA,NA,NA,NA,NA,NA,NA,NA,NA,NA,NA,NA,NA,NA,NA,NA
c65be,"""Falsch""-Screen",canvas.Screen,3_0_0_0_6_1_2,NA,NA,skipped,NA,318030.19999981,NA,NA,318025.83,318030.29999995,2023-11-02T09:19:54Z,318043.063,NULL,Wohlstand,mafanikio,s,chimbuko,kumbuko,mapwaji,NA,sdf,NA,0,NA,NA,NA,NA,NA,NA,NA,NA,NA,NA,NA,NA,NA,NA,NA,NA,NA,NA,NA
c65be,shallow,flow.Sequence,3_0_0_0_6_1,NA,NA,completion,10060.092,307951.19999981,307948.743,307965.738,318025.83,318030.5,2023-11-02T09:19:54Z,318043.063,NULL,Wohlstand,mafanikio,s,chimbuko,kumbuko,mapwaji,NA,sdf,NA,0,NA,NA,NA,NA,NA,NA,NA,NA,NA,NA,NA,NA,NA,NA,NA,NA,NA,NA,NA
c65be,task,flow.Sequence,3_0_0_0_6,NA,NA,completion,10060.092,307950.79999995,307948.743,307965.738,318025.83,318030.5999999,2023-11-02T09:19:54Z,318043.063,NULL,Wohlstand,mafanikio,s,chimbuko,kumbuko,mapwaji,NA,sdf,NA,0,NA,NA,NA,NA,NA,NA,NA,NA,NA,NA,NA,NA,NA,NA,NA,NA,NA,NA,NA
c65be,Deep Question,html.Page,3_0_0_0_7_0_0,NA,NA,form submission,5345.6369998092,318030.69999981,318025.83,318043.063,323388.69999981,323388.89999986,2023-11-02T09:20:00Z,323389.166,NULL,Vergnügen,kichekesho,d,NA,NA,NA,ubuf,NA,NA,0,NA,NA,NA,NA,NA,NA,NA,NA,NA,NA,NA,NA,NA,NA,NA,NA,NA,NA,NA
c65be,"""Richtig""-Screen",canvas.Screen,3_0_0_0_7_0_1,NA,NA,skipped,NA,323392.19999981,NA,NA,323388.69999981,323392.39999986,2023-11-02T09:20:00Z,323389.166,NULL,Vergnügen,kichekesho,d,NA,NA,NA,NA,sdf,NA,0,NA,NA,NA,NA,NA,NA,NA,NA,NA,NA,NA,NA,NA,NA,NA,NA,NA,NA,NA
c65be,"""Falsch""-Screen",canvas.Screen,3_0_0_0_7_0_2,NA,NA,timeout,4996.964,323393.29999995,323386.644,323389.166,328369.726,328370.79999995,2023-11-02T09:20:05Z,328386.13,NULL,Vergnügen,kichekesho,d,NA,NA,NA,NA,sdf,0,0,NA,NA,NA,NA,NA,NA,NA,NA,NA,NA,NA,NA,NA,NA,NA,NA,NA,NA,NA
c65be,deep,flow.Sequence,3_0_0_0_7_0,NA,NA,completion,10326.663,318030.69999981,318025.83,318043.063,328369.726,328371.29999995,2023-11-02T09:20:05Z,328386.13,NULL,Vergnügen,kichekesho,d,NA,NA,NA,NA,sdf,NA,0,NA,NA,NA,NA,NA,NA,NA,NA,NA,NA,NA,NA,NA,NA,NA,NA,NA,NA,NA
c65be,shallow,flow.Sequence,3_0_0_0_7_1,NA,NA,skipped,NA,328371.39999986,NA,NA,328369.726,328371.5,2023-11-02T09:20:05Z,328386.13,NULL,Vergnügen,kichekesho,d,NA,NA,NA,NA,sdf,NA,0,NA,NA,NA,NA,NA,NA,NA,NA,NA,NA,NA,NA,NA,NA,NA,NA,NA,NA,NA
c65be,task,flow.Sequence,3_0_0_0_7,NA,NA,completion,10326.663,318030.69999981,318025.83,318043.063,328369.726,328371.79999995,2023-11-02T09:20:05Z,328386.13,NULL,Vergnügen,kichekesho,d,NA,NA,NA,NA,sdf,NA,0,NA,NA,NA,NA,NA,NA,NA,NA,NA,NA,NA,NA,NA,NA,NA,NA,NA,NA,NA
c65be,block,flow.Loop,3_0_0_0,NA,NA,completion,98390.2,229978.0999999,229900.309,229979.526,328369.726,328372.0999999,2023-11-02T09:20:05Z,328386.13,NULL,NA,NA,NA,NA,NA,NA,NA,sdf,NA,0,NA,NA,NA,NA,NA,NA,NA,NA,NA,NA,NA,NA,NA,NA,NA,NA,NA,NA,NA
c65be,weiter,canvas.Screen,3_0_0_1,sdf,keypress(Space),response,1652.4699999046,328372.19999981,328369.726,328386.13,330038.5999999,330039.89999986,2023-11-02T09:20:06Z,330051.723,NULL,NA,NA,NA,NA,NA,NA,NA,sdf,NA,0,NA,NA,NA,NA,NA,NA,NA,NA,NA,NA,NA,NA,NA,NA,NA,NA,NA,NA,NA
c65be,check continue,flow.Sequence,3_0_0,NA,NA,completion,100059.0739999,229978.0999999,229900.309,229979.526,330038.5999999,330040.19999981,2023-11-02T09:20:06Z,330051.723,NULL,NA,NA,NA,NA,NA,NA,NA,sdf,NA,0,NA,NA,NA,NA,NA,NA,NA,NA,NA,NA,NA,NA,NA,NA,NA,NA,NA,NA,NA
c65be,deep,flow.Sequence,3_0_1_0_0_0,NA,NA,skipped,NA,330067.29999995,NA,NA,330038.5999999,330067.39999986,2023-11-02T09:20:06Z,330051.723,NULL,Ergänzung,kijalizo,s,ulaghai,mustarehe,matangazo,NA,sdfdsf,NA,1,NA,NA,NA,NA,NA,NA,NA,NA,NA,NA,NA,NA,NA,NA,NA,NA,NA,NA,NA
c65be,Shallow Question,html.Page,3_0_1_0_0_1_0,NA,NA,form submission,5562.8769999046,330067.5,330024.65,330051.723,335614.5999999,335614.89999986,2023-11-02T09:20:12Z,335615.077,NULL,Ergänzung,kijalizo,s,ulaghai,mustarehe,matangazo,kijalizo,NA,NA,1,NA,NA,NA,NA,NA,NA,NA,NA,NA,NA,NA,NA,NA,NA,NA,NA,NA,NA,NA
c65be,"""Richtig""-Screen",canvas.Screen,3_0_1_0_0_1_1,NA,NA,timeout,4997.006,335617.89999986,335599.007,335615.077,340595.717,340598.0999999,2023-11-02T09:20:17Z,340612.083,NULL,Ergänzung,kijalizo,s,ulaghai,mustarehe,matangazo,NA,sdfdsf,1,1,NA,NA,NA,NA,NA,NA,NA,NA,NA,NA,NA,NA,NA,NA,NA,NA,NA,NA,NA
c65be,"""Falsch""-Screen",canvas.Screen,3_0_1_0_0_1_2,NA,NA,skipped,NA,340603.89999986,NA,NA,340595.717,340604.19999981,2023-11-02T09:20:17Z,340612.083,NULL,Ergänzung,kijalizo,s,ulaghai,mustarehe,matangazo,NA,sdfdsf,NA,1,NA,NA,NA,NA,NA,NA,NA,NA,NA,NA,NA,NA,NA,NA,NA,NA,NA,NA,NA
c65be,shallow,flow.Sequence,3_0_1_0_0_1,NA,NA,completion,10543.994,330067.5,330024.65,330051.723,340595.717,340604.5,2023-11-02T09:20:17Z,340612.083,NULL,Ergänzung,kijalizo,s,ulaghai,mustarehe,matangazo,NA,sdfdsf,NA,1,NA,NA,NA,NA,NA,NA,NA,NA,NA,NA,NA,NA,NA,NA,NA,NA,NA,NA,NA
c65be,task,flow.Sequence,3_0_1_0_0,NA,NA,completion,10543.994,330067.29999995,330024.65,330051.723,340595.717,340604.89999986,2023-11-02T09:20:17Z,340612.083,NULL,Ergänzung,kijalizo,s,ulaghai,mustarehe,matangazo,NA,sdfdsf,NA,1,NA,NA,NA,NA,NA,NA,NA,NA,NA,NA,NA,NA,NA,NA,NA,NA,NA,NA,NA
c65be,Deep Question,html.Page,3_0_1_0_1_0_0,NA,NA,form submission,5266.417,340605,340595.717,340612.083,345878.5,345878.69999981,2023-11-02T09:20:22Z,345892.548,NULL,Vergnügen,kichekesho,d,NA,NA,NA,muhada,NA,NA,1,NA,NA,NA,NA,NA,NA,NA,NA,NA,NA,NA,NA,NA,NA,NA,NA,NA,NA,NA
c65be,"""Richtig""-Screen",canvas.Screen,3_0_1_0_1_0_1,NA,NA,skipped,NA,345882.5,NA,NA,345878.5,345882.69999981,2023-11-02T09:20:22Z,345892.548,NULL,Vergnügen,kichekesho,d,NA,NA,NA,NA,sdfdsf,NA,1,NA,NA,NA,NA,NA,NA,NA,NA,NA,NA,NA,NA,NA,NA,NA,NA,NA,NA,NA
c65be,"""Falsch""-Screen",canvas.Screen,3_0_1_0_1_0_2,NA,NA,timeout,4996.916,345883.0999999,345875.809,345892.548,350872.926,350874,2023-11-02T09:20:27Z,350889.464,NULL,Vergnügen,kichekesho,d,NA,NA,NA,NA,sdfdsf,0,1,NA,NA,NA,NA,NA,NA,NA,NA,NA,NA,NA,NA,NA,NA,NA,NA,NA,NA,NA
c65be,deep,flow.Sequence,3_0_1_0_1_0,NA,NA,completion,10260.843,340605,340595.717,340612.083,350872.926,350874.39999986,2023-11-02T09:20:27Z,350889.464,NULL,Vergnügen,kichekesho,d,NA,NA,NA,NA,sdfdsf,NA,1,NA,NA,NA,NA,NA,NA,NA,NA,NA,NA,NA,NA,NA,NA,NA,NA,NA,NA,NA
c65be,shallow,flow.Sequence,3_0_1_0_1_1,NA,NA,skipped,NA,350874.5,NA,NA,350872.926,350874.69999981,2023-11-02T09:20:27Z,350889.464,NULL,Vergnügen,kichekesho,d,NA,NA,NA,NA,sdfdsf,NA,1,NA,NA,NA,NA,NA,NA,NA,NA,NA,NA,NA,NA,NA,NA,NA,NA,NA,NA,NA
c65be,task,flow.Sequence,3_0_1_0_1,NA,NA,completion,10260.843,340604.89999986,340595.717,340612.083,350872.926,350874.89999986,2023-11-02T09:20:27Z,350889.464,NULL,Vergnügen,kichekesho,d,NA,NA,NA,NA,sdfdsf,NA,1,NA,NA,NA,NA,NA,NA,NA,NA,NA,NA,NA,NA,NA,NA,NA,NA,NA,NA,NA
c65be,Deep Question,html.Page,3_0_1_0_2_0_0,NA,NA,form submission,5067.6359999047,350875.19999981,350872.926,350889.464,355957.0999999,355957.29999995,2023-11-02T09:20:32Z,355969.681,NULL,Gelegenheit,wakati,d,NA,NA,NA,mihu,NA,NA,1,NA,NA,NA,NA,NA,NA,NA,NA,NA,NA,NA,NA,NA,NA,NA,NA,NA,NA,NA
c65be,"""Richtig""-Screen",canvas.Screen,3_0_1_0_2_0_1,NA,NA,skipped,NA,355960.5999999,NA,NA,355957.0999999,355960.69999981,2023-11-02T09:20:32Z,355969.681,NULL,Gelegenheit,wakati,d,NA,NA,NA,NA,sdfdsf,NA,1,NA,NA,NA,NA,NA,NA,NA,NA,NA,NA,NA,NA,NA,NA,NA,NA,NA,NA,NA
c65be,"""Falsch""-Screen",canvas.Screen,3_0_1_0_2_0_2,NA,NA,timeout,4996.56,355961.0999999,355951.977,355969.681,360949.94,360951.0999999,2023-11-02T09:20:37Z,360966.241,NULL,Gelegenheit,wakati,d,NA,NA,NA,NA,sdfdsf,0,1,NA,NA,NA,NA,NA,NA,NA,NA,NA,NA,NA,NA,NA,NA,NA,NA,NA,NA,NA
c65be,deep,flow.Sequence,3_0_1_0_2_0,NA,NA,completion,10060.476,350875.19999981,350872.926,350889.464,360949.94,360951.5999999,2023-11-02T09:20:37Z,360966.241,NULL,Gelegenheit,wakati,d,NA,NA,NA,NA,sdfdsf,NA,1,NA,NA,NA,NA,NA,NA,NA,NA,NA,NA,NA,NA,NA,NA,NA,NA,NA,NA,NA
c65be,shallow,flow.Sequence,3_0_1_0_2_1,NA,NA,skipped,NA,360951.69999981,NA,NA,360949.94,360951.79999995,2023-11-02T09:20:37Z,360966.241,NULL,Gelegenheit,wakati,d,NA,NA,NA,NA,sdfdsf,NA,1,NA,NA,NA,NA,NA,NA,NA,NA,NA,NA,NA,NA,NA,NA,NA,NA,NA,NA,NA
c65be,task,flow.Sequence,3_0_1_0_2,NA,NA,completion,10060.476,350875.0999999,350872.926,350889.464,360949.94,360952.0999999,2023-11-02T09:20:37Z,360966.241,NULL,Gelegenheit,wakati,d,NA,NA,NA,NA,sdfdsf,NA,1,NA,NA,NA,NA,NA,NA,NA,NA,NA,NA,NA,NA,NA,NA,NA,NA,NA,NA,NA
c65be,deep,flow.Sequence,3_0_1_0_3_0,NA,NA,skipped,NA,360952.29999995,NA,NA,360949.94,360952.5,2023-11-02T09:20:37Z,360966.241,NULL,Verstand,ufahamivu,s,shakawa,hadhari,mhandisi,NA,sdfdsf,NA,1,NA,NA,NA,NA,NA,NA,NA,NA,NA,NA,NA,NA,NA,NA,NA,NA,NA,NA,NA
c65be,Shallow Question,html.Page,3_0_1_0_3_1_0,NA,NA,form submission,6258.259,360952.69999981,360949.94,360966.241,367224.5,367224.79999995,2023-11-02T09:20:44Z,367229.074,NULL,Verstand,ufahamivu,s,shakawa,hadhari,mhandisi,shakawa,NA,NA,1,NA,NA,NA,NA,NA,NA,NA,NA,NA,NA,NA,NA,NA,NA,NA,NA,NA,NA,NA
c65be,"""Richtig""-Screen",canvas.Screen,3_0_1_0_3_1_1,NA,NA,skipped,NA,367228,NA,NA,367224.5,367228.19999981,2023-11-02T09:20:44Z,367229.074,NULL,Verstand,ufahamivu,s,shakawa,hadhari,mhandisi,NA,sdfdsf,NA,1,NA,NA,NA,NA,NA,NA,NA,NA,NA,NA,NA,NA,NA,NA,NA,NA,NA,NA,NA
c65be,"""Falsch""-Screen",canvas.Screen,3_0_1_0_3_1_2,NA,NA,timeout,4997.364,367228.5999999,367214.609,367229.074,372209.798,372210.89999986,2023-11-02T09:20:49Z,372226.438,NULL,Verstand,ufahamivu,s,shakawa,hadhari,mhandisi,NA,sdfdsf,0,1,NA,NA,NA,NA,NA,NA,NA,NA,NA,NA,NA,NA,NA,NA,NA,NA,NA,NA,NA
c65be,shallow,flow.Sequence,3_0_1_0_3_1,NA,NA,completion,11243.557,360952.5999999,360949.94,360966.241,372209.798,372211.29999995,2023-11-02T09:20:49Z,372226.438,NULL,Verstand,ufahamivu,s,shakawa,hadhari,mhandisi,NA,sdfdsf,NA,1,NA,NA,NA,NA,NA,NA,NA,NA,NA,NA,NA,NA,NA,NA,NA,NA,NA,NA,NA
c65be,task,flow.Sequence,3_0_1_0_3,NA,NA,completion,11243.557,360952.19999981,360949.94,360966.241,372209.798,372211.5,2023-11-02T09:20:49Z,372226.438,NULL,Verstand,ufahamivu,s,shakawa,hadhari,mhandisi,NA,sdfdsf,NA,1,NA,NA,NA,NA,NA,NA,NA,NA,NA,NA,NA,NA,NA,NA,NA,NA,NA,NA,NA
c65be,deep,flow.Sequence,3_0_1_0_4_0,NA,NA,skipped,NA,372211.79999995,NA,NA,372209.798,372211.89999986,2023-11-02T09:20:49Z,372226.438,NULL,Widerstand,usulubu,s,kusababisha,mwalimu,mwenendo,NA,sdfdsf,NA,1,NA,NA,NA,NA,NA,NA,NA,NA,NA,NA,NA,NA,NA,NA,NA,NA,NA,NA,NA
c65be,Shallow Question,html.Page,3_0_1_0_4_1_0,NA,NA,form submission,5510.062,372212.0999999,372209.798,372226.438,377736.5,377736.79999995,2023-11-02T09:20:54Z,377739.352,NULL,Widerstand,usulubu,s,kusababisha,mwalimu,mwenendo,usulubu,NA,NA,1,NA,NA,NA,NA,NA,NA,NA,NA,NA,NA,NA,NA,NA,NA,NA,NA,NA,NA,NA
c65be,"""Richtig""-Screen",canvas.Screen,3_0_1_0_4_1_1,NA,NA,timeout,4997.254,377740,377723.852,377739.352,382719.844,382720.89999986,2023-11-02T09:20:59Z,382736.606,NULL,Widerstand,usulubu,s,kusababisha,mwalimu,mwenendo,NA,sdfdsf,1,1,NA,NA,NA,NA,NA,NA,NA,NA,NA,NA,NA,NA,NA,NA,NA,NA,NA,NA,NA
c65be,"""Falsch""-Screen",canvas.Screen,3_0_1_0_4_1_2,NA,NA,skipped,NA,382726.19999981,NA,NA,382719.844,382726.29999995,2023-11-02T09:20:59Z,382736.606,NULL,Widerstand,usulubu,s,kusababisha,mwalimu,mwenendo,NA,sdfdsf,NA,1,NA,NA,NA,NA,NA,NA,NA,NA,NA,NA,NA,NA,NA,NA,NA,NA,NA,NA,NA
c65be,shallow,flow.Sequence,3_0_1_0_4_1,NA,NA,completion,10493.406,372212,372209.798,372226.438,382719.844,382726.5,2023-11-02T09:20:59Z,382736.606,NULL,Widerstand,usulubu,s,kusababisha,mwalimu,mwenendo,NA,sdfdsf,NA,1,NA,NA,NA,NA,NA,NA,NA,NA,NA,NA,NA,NA,NA,NA,NA,NA,NA,NA,NA
c65be,task,flow.Sequence,3_0_1_0_4,NA,NA,completion,10493.406,372211.69999981,372209.798,372226.438,382719.844,382726.5,2023-11-02T09:20:59Z,382736.606,NULL,Widerstand,usulubu,s,kusababisha,mwalimu,mwenendo,NA,sdfdsf,NA,1,NA,NA,NA,NA,NA,NA,NA,NA,NA,NA,NA,NA,NA,NA,NA,NA,NA,NA,NA
c65be,Deep Question,html.Page,3_0_1_0_5_0_0,NA,NA,form submission,3860.0939998092,382726.5,382719.844,382736.606,386596.69999981,386597,2023-11-02T09:21:03Z,386600.553,NULL,Notfall,dharura,d,NA,NA,NA,uhu,NA,NA,1,NA,NA,NA,NA,NA,NA,NA,NA,NA,NA,NA,NA,NA,NA,NA,NA,NA,NA,NA
c65be,"""Richtig""-Screen",canvas.Screen,3_0_1_0_5_0_1,NA,NA,skipped,NA,386598.79999995,NA,NA,386596.69999981,386598.79999995,2023-11-02T09:21:03Z,386600.553,NULL,Notfall,dharura,d,NA,NA,NA,NA,sdfdsf,NA,1,NA,NA,NA,NA,NA,NA,NA,NA,NA,NA,NA,NA,NA,NA,NA,NA,NA,NA,NA
c65be,"""Falsch""-Screen",canvas.Screen,3_0_1_0_5_0_2,NA,NA,timeout,4997.179,386599.29999995,386584.038,386600.553,391581,391582.0999999,2023-11-02T09:21:08Z,391597.732,NULL,Notfall,dharura,d,NA,NA,NA,NA,sdfdsf,0,1,NA,NA,NA,NA,NA,NA,NA,NA,NA,NA,NA,NA,NA,NA,NA,NA,NA,NA,NA
c65be,deep,flow.Sequence,3_0_1_0_5_0,NA,NA,completion,8844.394,382726.5,382719.844,382736.606,391581,391582.5,2023-11-02T09:21:08Z,391597.732,NULL,Notfall,dharura,d,NA,NA,NA,NA,sdfdsf,NA,1,NA,NA,NA,NA,NA,NA,NA,NA,NA,NA,NA,NA,NA,NA,NA,NA,NA,NA,NA
c65be,shallow,flow.Sequence,3_0_1_0_5_1,NA,NA,skipped,NA,391582.5999999,NA,NA,391581,391582.79999995,2023-11-02T09:21:08Z,391597.732,NULL,Notfall,dharura,d,NA,NA,NA,NA,sdfdsf,NA,1,NA,NA,NA,NA,NA,NA,NA,NA,NA,NA,NA,NA,NA,NA,NA,NA,NA,NA,NA
c65be,task,flow.Sequence,3_0_1_0_5,NA,NA,completion,8844.394,382726.5,382719.844,382736.606,391581,391583.0999999,2023-11-02T09:21:08Z,391597.732,NULL,Notfall,dharura,d,NA,NA,NA,NA,sdfdsf,NA,1,NA,NA,NA,NA,NA,NA,NA,NA,NA,NA,NA,NA,NA,NA,NA,NA,NA,NA,NA
c65be,deep,flow.Sequence,3_0_1_0_6_0,NA,NA,skipped,NA,391583.19999981,NA,NA,391581,391583.39999986,2023-11-02T09:21:08Z,391597.732,NULL,Wohlstand,mafanikio,s,chimbuko,kumbuko,mapwaji,NA,sdfdsf,NA,1,NA,NA,NA,NA,NA,NA,NA,NA,NA,NA,NA,NA,NA,NA,NA,NA,NA,NA,NA
c65be,Shallow Question,html.Page,3_0_1_0_6_1_0,NA,NA,form submission,10378.667999857,391583.5,391581,391597.732,401976.39999986,401976.5999999,2023-11-02T09:21:18Z,401991.239,NULL,Wohlstand,mafanikio,s,chimbuko,kumbuko,mapwaji,mafanikio,NA,NA,1,NA,NA,NA,NA,NA,NA,NA,NA,NA,NA,NA,NA,NA,NA,NA,NA,NA,NA,NA
c65be,"""Richtig""-Screen",canvas.Screen,3_0_1_0_6_1_1,NA,NA,timeout,4996.869,401980.0999999,401974.911,401991.239,406971.476,406971.89999986,2023-11-02T09:21:23Z,406988.108,NULL,Wohlstand,mafanikio,s,chimbuko,kumbuko,mapwaji,NA,sdfdsf,1,1,NA,NA,NA,NA,NA,NA,NA,NA,NA,NA,NA,NA,NA,NA,NA,NA,NA,NA,NA
c65be,"""Falsch""-Screen",canvas.Screen,3_0_1_0_6_1_2,NA,NA,skipped,NA,406973.39999986,NA,NA,406971.476,406973.5,2023-11-02T09:21:23Z,406988.108,NULL,Wohlstand,mafanikio,s,chimbuko,kumbuko,mapwaji,NA,sdfdsf,NA,1,NA,NA,NA,NA,NA,NA,NA,NA,NA,NA,NA,NA,NA,NA,NA,NA,NA,NA,NA
c65be,shallow,flow.Sequence,3_0_1_0_6_1,NA,NA,completion,15373.744,391583.5,391581,391597.732,406971.476,406973.5999999,2023-11-02T09:21:23Z,406988.108,NULL,Wohlstand,mafanikio,s,chimbuko,kumbuko,mapwaji,NA,sdfdsf,NA,1,NA,NA,NA,NA,NA,NA,NA,NA,NA,NA,NA,NA,NA,NA,NA,NA,NA,NA,NA
c65be,task,flow.Sequence,3_0_1_0_6,NA,NA,completion,15373.744,391583.19999981,391581,391597.732,406971.476,406973.69999981,2023-11-02T09:21:23Z,406988.108,NULL,Wohlstand,mafanikio,s,chimbuko,kumbuko,mapwaji,NA,sdfdsf,NA,1,NA,NA,NA,NA,NA,NA,NA,NA,NA,NA,NA,NA,NA,NA,NA,NA,NA,NA,NA
c65be,Deep Question,html.Page,3_0_1_0_7_0_0,NA,NA,form submission,3998.892,406973.69999981,406971.476,406988.108,410987,410987.0999999,2023-11-02T09:21:27Z,411002.869,NULL,Ausschluss,kutengwa,d,NA,NA,NA,ihi,NA,NA,1,NA,NA,NA,NA,NA,NA,NA,NA,NA,NA,NA,NA,NA,NA,NA,NA,NA,NA,NA
c65be,"""Richtig""-Screen",canvas.Screen,3_0_1_0_7_0_1,NA,NA,skipped,NA,410990.19999981,NA,NA,410987,410990.39999986,2023-11-02T09:21:27Z,411002.869,NULL,Ausschluss,kutengwa,d,NA,NA,NA,NA,sdfdsf,NA,1,NA,NA,NA,NA,NA,NA,NA,NA,NA,NA,NA,NA,NA,NA,NA,NA,NA,NA,NA
c65be,"""Falsch""-Screen",canvas.Screen,3_0_1_0_7_0_2,NA,NA,timeout,4996.479,410991.29999995,410985.264,411002.869,415982.924,415984,2023-11-02T09:21:32Z,415999.348,NULL,Ausschluss,kutengwa,d,NA,NA,NA,NA,sdfdsf,0,1,NA,NA,NA,NA,NA,NA,NA,NA,NA,NA,NA,NA,NA,NA,NA,NA,NA,NA,NA
c65be,deep,flow.Sequence,3_0_1_0_7_0,NA,NA,completion,8994.816,406973.69999981,406971.476,406988.108,415982.924,415984.39999986,2023-11-02T09:21:32Z,415999.348,NULL,Ausschluss,kutengwa,d,NA,NA,NA,NA,sdfdsf,NA,1,NA,NA,NA,NA,NA,NA,NA,NA,NA,NA,NA,NA,NA,NA,NA,NA,NA,NA,NA
c65be,shallow,flow.Sequence,3_0_1_0_7_1,NA,NA,skipped,NA,415984.5999999,NA,NA,415982.924,415984.69999981,2023-11-02T09:21:32Z,415999.348,NULL,Ausschluss,kutengwa,d,NA,NA,NA,NA,sdfdsf,NA,1,NA,NA,NA,NA,NA,NA,NA,NA,NA,NA,NA,NA,NA,NA,NA,NA,NA,NA,NA
c65be,task,flow.Sequence,3_0_1_0_7,NA,NA,completion,8994.816,406973.69999981,406971.476,406988.108,415982.924,415985,2023-11-02T09:21:32Z,415999.348,NULL,Ausschluss,kutengwa,d,NA,NA,NA,NA,sdfdsf,NA,1,NA,NA,NA,NA,NA,NA,NA,NA,NA,NA,NA,NA,NA,NA,NA,NA,NA,NA,NA
c65be,block,flow.Loop,3_0_1_0,NA,NA,completion,85931.201,330067.19999981,330024.65,330051.723,415982.924,415985.19999981,2023-11-02T09:21:32Z,415999.348,NULL,NA,NA,NA,NA,NA,NA,NA,sdfdsf,NA,1,NA,NA,NA,NA,NA,NA,NA,NA,NA,NA,NA,NA,NA,NA,NA,NA,NA,NA,NA
c65be,weiter,canvas.Screen,3_0_1_1,sdf,keypress(Space),response,1169.2519999046,415985.39999986,415982.924,415999.348,417168.5999999,417169.69999981,2023-11-02T09:21:34Z,417181.902,NULL,NA,NA,NA,NA,NA,NA,NA,sdfdsf,NA,1,NA,NA,NA,NA,NA,NA,NA,NA,NA,NA,NA,NA,NA,NA,NA,NA,NA,NA,NA
c65be,check continue,flow.Sequence,3_0_1,NA,NA,completion,87116.876999905,330067.19999981,330024.65,330051.723,417168.5999999,417170,2023-11-02T09:21:34Z,417181.902,NULL,NA,NA,NA,NA,NA,NA,NA,sdfdsf,NA,1,NA,NA,NA,NA,NA,NA,NA,NA,NA,NA,NA,NA,NA,NA,NA,NA,NA,NA,NA
c65be,Deep Question,html.Page,3_0_2_0_0_0_0,NA,NA,form submission,8426.8979999523,417191.69999981,417164.128,417181.902,425608.79999995,425609,2023-11-02T09:21:42Z,425610.068,NULL,Gelegenheit,wakati,d,NA,NA,NA,huh,NA,NA,2,NA,NA,NA,NA,NA,NA,NA,NA,NA,NA,NA,NA,NA,NA,NA,NA,NA,NA,NA
c65be,"""Richtig""-Screen",canvas.Screen,3_0_2_0_0_0_1,NA,NA,skipped,NA,425612.5999999,NA,NA,425608.79999995,425612.79999995,2023-11-02T09:21:42Z,425610.068,NULL,Gelegenheit,wakati,d,NA,NA,NA,NA,sdf,NA,2,NA,NA,NA,NA,NA,NA,NA,NA,NA,NA,NA,NA,NA,NA,NA,NA,NA,NA,NA
c65be,"""Falsch""-Screen",canvas.Screen,3_0_2_0_0_0_2,NA,NA,timeout,4997.3799999999,425613.79999995,425594.472,425610.068,430590.505,430591.5,2023-11-02T09:21:47Z,430607.448,NULL,Gelegenheit,wakati,d,NA,NA,NA,NA,sdf,0,2,NA,NA,NA,NA,NA,NA,NA,NA,NA,NA,NA,NA,NA,NA,NA,NA,NA,NA,NA
c65be,deep,flow.Sequence,3_0_2_0_0_0,NA,NA,completion,13408.603,417191.69999981,417164.128,417181.902,430590.505,430592,2023-11-02T09:21:47Z,430607.448,NULL,Gelegenheit,wakati,d,NA,NA,NA,NA,sdf,NA,2,NA,NA,NA,NA,NA,NA,NA,NA,NA,NA,NA,NA,NA,NA,NA,NA,NA,NA,NA
c65be,shallow,flow.Sequence,3_0_2_0_0_1,NA,NA,skipped,NA,430592.19999981,NA,NA,430590.505,430592.29999995,2023-11-02T09:21:47Z,430607.448,NULL,Gelegenheit,wakati,d,NA,NA,NA,NA,sdf,NA,2,NA,NA,NA,NA,NA,NA,NA,NA,NA,NA,NA,NA,NA,NA,NA,NA,NA,NA,NA
c65be,task,flow.Sequence,3_0_2_0_0,NA,NA,completion,13408.603,417191.69999981,417164.128,417181.902,430590.505,430592.5999999,2023-11-02T09:21:47Z,430607.448,NULL,Gelegenheit,wakati,d,NA,NA,NA,NA,sdf,NA,2,NA,NA,NA,NA,NA,NA,NA,NA,NA,NA,NA,NA,NA,NA,NA,NA,NA,NA,NA
c65be,deep,flow.Sequence,3_0_2_0_1_0,NA,NA,skipped,NA,430592.79999995,NA,NA,430590.505,430592.89999986,2023-11-02T09:21:47Z,430607.448,NULL,Verstand,ufahamivu,s,shakawa,hadhari,mhandisi,NA,sdf,NA,2,NA,NA,NA,NA,NA,NA,NA,NA,NA,NA,NA,NA,NA,NA,NA,NA,NA,NA,NA
c65be,Shallow Question,html.Page,3_0_2_0_1_1_0,NA,NA,form submission,8285.451999857,430593.0999999,430590.505,430607.448,438892.89999986,438893.0999999,2023-11-02T09:21:55Z,438902.243,NULL,Verstand,ufahamivu,s,shakawa,hadhari,mhandisi,ufahamivu,NA,NA,2,NA,NA,NA,NA,NA,NA,NA,NA,NA,NA,NA,NA,NA,NA,NA,NA,NA,NA,NA
c65be,"""Richtig""-Screen",canvas.Screen,3_0_2_0_1_1_1,NA,NA,timeout,4997.005,438896.29999995,438885.468,438902.243,443882.682,443883.19999981,2023-11-02T09:22:00Z,443899.248,NULL,Verstand,ufahamivu,s,shakawa,hadhari,mhandisi,NA,sdf,1,2,NA,NA,NA,NA,NA,NA,NA,NA,NA,NA,NA,NA,NA,NA,NA,NA,NA,NA,NA
c65be,"""Falsch""-Screen",canvas.Screen,3_0_2_0_1_1_2,NA,NA,skipped,NA,443884.79999995,NA,NA,443882.682,443884.89999986,2023-11-02T09:22:00Z,443899.248,NULL,Verstand,ufahamivu,s,shakawa,hadhari,mhandisi,NA,sdf,NA,2,NA,NA,NA,NA,NA,NA,NA,NA,NA,NA,NA,NA,NA,NA,NA,NA,NA,NA,NA
c65be,shallow,flow.Sequence,3_0_2_0_1_1,NA,NA,completion,13275.234,430593,430590.505,430607.448,443882.682,443885.0999999,2023-11-02T09:22:00Z,443899.248,NULL,Verstand,ufahamivu,s,shakawa,hadhari,mhandisi,NA,sdf,NA,2,NA,NA,NA,NA,NA,NA,NA,NA,NA,NA,NA,NA,NA,NA,NA,NA,NA,NA,NA
c65be,task,flow.Sequence,3_0_2_0_1,NA,NA,completion,13275.234,430592.69999981,430590.505,430607.448,443882.682,443885.0999999,2023-11-02T09:22:00Z,443899.248,NULL,Verstand,ufahamivu,s,shakawa,hadhari,mhandisi,NA,sdf,NA,2,NA,NA,NA,NA,NA,NA,NA,NA,NA,NA,NA,NA,NA,NA,NA,NA,NA,NA,NA
c65be,Deep Question,html.Page,3_0_2_0_2_0_0,NA,NA,form submission,8399.5519999523,443885.19999981,443882.682,443899.248,452298.79999995,452299,2023-11-02T09:22:09Z,452310.669,NULL,Vergnügen,kichekesho,d,NA,NA,NA,kichekoshe,NA,NA,2,NA,NA,NA,NA,NA,NA,NA,NA,NA,NA,NA,NA,NA,NA,NA,NA,NA,NA,NA
c65be,"""Richtig""-Screen",canvas.Screen,3_0_2_0_2_0_1,NA,NA,skipped,NA,452302.19999981,NA,NA,452298.79999995,452302.29999995,2023-11-02T09:22:09Z,452310.669,NULL,Vergnügen,kichekesho,d,NA,NA,NA,NA,sdf,NA,2,NA,NA,NA,NA,NA,NA,NA,NA,NA,NA,NA,NA,NA,NA,NA,NA,NA,NA,NA
c65be,"""Falsch""-Screen",canvas.Screen,3_0_2_0_2_0_2,NA,NA,timeout,4997.041,452303.79999995,452292.785,452310.669,457291.186,457292.29999995,2023-11-02T09:22:14Z,457307.71,NULL,Vergnügen,kichekesho,d,NA,NA,NA,NA,sdf,0,2,NA,NA,NA,NA,NA,NA,NA,NA,NA,NA,NA,NA,NA,NA,NA,NA,NA,NA,NA
c65be,deep,flow.Sequence,3_0_2_0_2_0,NA,NA,completion,13391.938,443885.0999999,443882.682,443899.248,457291.186,457292.79999995,2023-11-02T09:22:14Z,457307.71,NULL,Vergnügen,kichekesho,d,NA,NA,NA,NA,sdf,NA,2,NA,NA,NA,NA,NA,NA,NA,NA,NA,NA,NA,NA,NA,NA,NA,NA,NA,NA,NA
c65be,shallow,flow.Sequence,3_0_2_0_2_1,NA,NA,skipped,NA,457292.89999986,NA,NA,457291.186,457293,2023-11-02T09:22:14Z,457307.71,NULL,Vergnügen,kichekesho,d,NA,NA,NA,NA,sdf,NA,2,NA,NA,NA,NA,NA,NA,NA,NA,NA,NA,NA,NA,NA,NA,NA,NA,NA,NA,NA
c65be,task,flow.Sequence,3_0_2_0_2,NA,NA,completion,13391.938,443885.0999999,443882.682,443899.248,457291.186,457293.29999995,2023-11-02T09:22:14Z,457307.71,NULL,Vergnügen,kichekesho,d,NA,NA,NA,NA,sdf,NA,2,NA,NA,NA,NA,NA,NA,NA,NA,NA,NA,NA,NA,NA,NA,NA,NA,NA,NA,NA
c65be,deep,flow.Sequence,3_0_2_0_3_0,NA,NA,skipped,NA,457293.5,NA,NA,457291.186,457293.5999999,2023-11-02T09:22:14Z,457307.71,NULL,Wohlstand,mafanikio,s,chimbuko,kumbuko,mapwaji,NA,sdf,NA,2,NA,NA,NA,NA,NA,NA,NA,NA,NA,NA,NA,NA,NA,NA,NA,NA,NA,NA,NA
c65be,Shallow Question,html.Page,3_0_2_0_3_1_0,NA,NA,form submission,5816.79,457293.79999995,457291.186,457307.71,463124.5,463124.69999981,2023-11-02T09:22:20Z,463137.26,NULL,Wohlstand,mafanikio,s,chimbuko,kumbuko,mapwaji,mafanikio,NA,NA,2,NA,NA,NA,NA,NA,NA,NA,NA,NA,NA,NA,NA,NA,NA,NA,NA,NA,NA,NA
c65be,"""Richtig""-Screen",canvas.Screen,3_0_2_0_3_1_1,NA,NA,timeout,4997.236,463127.89999986,463121.013,463137.26,468117.736,468118.79999995,2023-11-02T09:22:25Z,468134.496,NULL,Wohlstand,mafanikio,s,chimbuko,kumbuko,mapwaji,NA,sdf,1,2,NA,NA,NA,NA,NA,NA,NA,NA,NA,NA,NA,NA,NA,NA,NA,NA,NA,NA,NA
c65be,"""Falsch""-Screen",canvas.Screen,3_0_2_0_3_1_2,NA,NA,skipped,NA,468123.79999995,NA,NA,468117.736,468123.89999986,2023-11-02T09:22:25Z,468134.496,NULL,Wohlstand,mafanikio,s,chimbuko,kumbuko,mapwaji,NA,sdf,NA,2,NA,NA,NA,NA,NA,NA,NA,NA,NA,NA,NA,NA,NA,NA,NA,NA,NA,NA,NA
c65be,shallow,flow.Sequence,3_0_2_0_3_1,NA,NA,completion,10810.026,457293.69999981,457291.186,457307.71,468117.736,468124,2023-11-02T09:22:25Z,468134.496,NULL,Wohlstand,mafanikio,s,chimbuko,kumbuko,mapwaji,NA,sdf,NA,2,NA,NA,NA,NA,NA,NA,NA,NA,NA,NA,NA,NA,NA,NA,NA,NA,NA,NA,NA
c65be,task,flow.Sequence,3_0_2_0_3,NA,NA,completion,10810.026,457293.39999986,457291.186,457307.71,468117.736,468124,2023-11-02T09:22:25Z,468134.496,NULL,Wohlstand,mafanikio,s,chimbuko,kumbuko,mapwaji,NA,sdf,NA,2,NA,NA,NA,NA,NA,NA,NA,NA,NA,NA,NA,NA,NA,NA,NA,NA,NA,NA,NA
c65be,Deep Question,html.Page,3_0_2_0_4_0_0,NA,NA,form submission,7402.1039999046,468124.0999999,468117.736,468134.496,475536.5999999,475536.89999986,2023-11-02T09:22:32Z,475546.377,NULL,Notfall,dharura,d,NA,NA,NA,dhkuhu,NA,NA,2,NA,NA,NA,NA,NA,NA,NA,NA,NA,NA,NA,NA,NA,NA,NA,NA,NA,NA,NA
c65be,"""Richtig""-Screen",canvas.Screen,3_0_2_0_4_0_1,NA,NA,skipped,NA,475540,NA,NA,475536.5999999,475540.19999981,2023-11-02T09:22:32Z,475546.377,NULL,Notfall,dharura,d,NA,NA,NA,NA,sdf,NA,2,NA,NA,NA,NA,NA,NA,NA,NA,NA,NA,NA,NA,NA,NA,NA,NA,NA,NA,NA
c65be,"""Falsch""-Screen",canvas.Screen,3_0_2_0_4_0_2,NA,NA,timeout,4996.856,475540.79999995,475528.894,475546.377,480526.854,480527.29999995,2023-11-02T09:22:37Z,480543.233,NULL,Notfall,dharura,d,NA,NA,NA,NA,sdf,0,2,NA,NA,NA,NA,NA,NA,NA,NA,NA,NA,NA,NA,NA,NA,NA,NA,NA,NA,NA
c65be,deep,flow.Sequence,3_0_2_0_4_0,NA,NA,completion,12392.358,468124.0999999,468117.736,468134.496,480526.854,480527.39999986,2023-11-02T09:22:37Z,480543.233,NULL,Notfall,dharura,d,NA,NA,NA,NA,sdf,NA,2,NA,NA,NA,NA,NA,NA,NA,NA,NA,NA,NA,NA,NA,NA,NA,NA,NA,NA,NA
c65be,shallow,flow.Sequence,3_0_2_0_4_1,NA,NA,skipped,NA,480527.5,NA,NA,480526.854,480527.5,2023-11-02T09:22:37Z,480543.233,NULL,Notfall,dharura,d,NA,NA,NA,NA,sdf,NA,2,NA,NA,NA,NA,NA,NA,NA,NA,NA,NA,NA,NA,NA,NA,NA,NA,NA,NA,NA
c65be,task,flow.Sequence,3_0_2_0_4,NA,NA,completion,12392.358,468124.0999999,468117.736,468134.496,480526.854,480527.5999999,2023-11-02T09:22:37Z,480543.233,NULL,Notfall,dharura,d,NA,NA,NA,NA,sdf,NA,2,NA,NA,NA,NA,NA,NA,NA,NA,NA,NA,NA,NA,NA,NA,NA,NA,NA,NA,NA
c65be,Deep Question,html.Page,3_0_2_0_5_0_0,NA,NA,form submission,4551.767,480527.69999981,480526.854,480543.233,485095,485095.19999981,2023-11-02T09:22:42Z,485107.077,NULL,Ausschluss,kutengwa,d,NA,NA,NA,kiji,NA,NA,2,NA,NA,NA,NA,NA,NA,NA,NA,NA,NA,NA,NA,NA,NA,NA,NA,NA,NA,NA
c65be,"""Richtig""-Screen",canvas.Screen,3_0_2_0_5_0_1,NA,NA,skipped,NA,485099,NA,NA,485095,485099.19999981,2023-11-02T09:22:42Z,485107.077,NULL,Ausschluss,kutengwa,d,NA,NA,NA,NA,sdf,NA,2,NA,NA,NA,NA,NA,NA,NA,NA,NA,NA,NA,NA,NA,NA,NA,NA,NA,NA,NA
c65be,"""Falsch""-Screen",canvas.Screen,3_0_2_0_5_0_2,NA,NA,timeout,4997.322,485099.5,485092.787,485107.077,490087.417,490088.5999999,2023-11-02T09:22:47Z,490104.399,NULL,Ausschluss,kutengwa,d,NA,NA,NA,NA,sdf,0,2,NA,NA,NA,NA,NA,NA,NA,NA,NA,NA,NA,NA,NA,NA,NA,NA,NA,NA,NA
c65be,deep,flow.Sequence,3_0_2_0_5_0,NA,NA,completion,9544.184,480527.69999981,480526.854,480543.233,490087.417,490089,2023-11-02T09:22:47Z,490104.399,NULL,Ausschluss,kutengwa,d,NA,NA,NA,NA,sdf,NA,2,NA,NA,NA,NA,NA,NA,NA,NA,NA,NA,NA,NA,NA,NA,NA,NA,NA,NA,NA
c65be,shallow,flow.Sequence,3_0_2_0_5_1,NA,NA,skipped,NA,490089.29999995,NA,NA,490087.417,490089.39999986,2023-11-02T09:22:47Z,490104.399,NULL,Ausschluss,kutengwa,d,NA,NA,NA,NA,sdf,NA,2,NA,NA,NA,NA,NA,NA,NA,NA,NA,NA,NA,NA,NA,NA,NA,NA,NA,NA,NA
c65be,task,flow.Sequence,3_0_2_0_5,NA,NA,completion,9544.184,480527.5999999,480526.854,480543.233,490087.417,490089.69999981,2023-11-02T09:22:47Z,490104.399,NULL,Ausschluss,kutengwa,d,NA,NA,NA,NA,sdf,NA,2,NA,NA,NA,NA,NA,NA,NA,NA,NA,NA,NA,NA,NA,NA,NA,NA,NA,NA,NA
c65be,deep,flow.Sequence,3_0_2_0_6_0,NA,NA,skipped,NA,490089.89999986,NA,NA,490087.417,490090,2023-11-02T09:22:47Z,490104.399,NULL,Ergänzung,kijalizo,s,ulaghai,mustarehe,matangazo,NA,sdf,NA,2,NA,NA,NA,NA,NA,NA,NA,NA,NA,NA,NA,NA,NA,NA,NA,NA,NA,NA,NA
c65be,Shallow Question,html.Page,3_0_2_0_6_1_0,NA,NA,form submission,8450.3009998093,490090.0999999,490087.417,490104.399,498554.69999981,498554.89999986,2023-11-02T09:22:55Z,498565.533,NULL,Ergänzung,kijalizo,s,ulaghai,mustarehe,matangazo,kijalizo,NA,NA,2,NA,NA,NA,NA,NA,NA,NA,NA,NA,NA,NA,NA,NA,NA,NA,NA,NA,NA,NA
c65be,"""Richtig""-Screen",canvas.Screen,3_0_2_0_6_1_1,NA,NA,timeout,4997.469,498558.0999999,498548.971,498565.533,503546.104,503547.19999981,2023-11-02T09:23:00Z,503563.002,NULL,Ergänzung,kijalizo,s,ulaghai,mustarehe,matangazo,NA,sdf,1,2,NA,NA,NA,NA,NA,NA,NA,NA,NA,NA,NA,NA,NA,NA,NA,NA,NA,NA,NA
c65be,"""Falsch""-Screen",canvas.Screen,3_0_2_0_6_1_2,NA,NA,skipped,NA,503552.19999981,NA,NA,503546.104,503552.29999995,2023-11-02T09:23:00Z,503563.002,NULL,Ergänzung,kijalizo,s,ulaghai,mustarehe,matangazo,NA,sdf,NA,2,NA,NA,NA,NA,NA,NA,NA,NA,NA,NA,NA,NA,NA,NA,NA,NA,NA,NA,NA
c65be,shallow,flow.Sequence,3_0_2_0_6_1,NA,NA,completion,13441.705,490090.0999999,490087.417,490104.399,503546.104,503552.5,2023-11-02T09:23:00Z,503563.002,NULL,Ergänzung,kijalizo,s,ulaghai,mustarehe,matangazo,NA,sdf,NA,2,NA,NA,NA,NA,NA,NA,NA,NA,NA,NA,NA,NA,NA,NA,NA,NA,NA,NA,NA
c65be,task,flow.Sequence,3_0_2_0_6,NA,NA,completion,13441.705,490089.79999995,490087.417,490104.399,503546.104,503552.5999999,2023-11-02T09:23:00Z,503563.002,NULL,Ergänzung,kijalizo,s,ulaghai,mustarehe,matangazo,NA,sdf,NA,2,NA,NA,NA,NA,NA,NA,NA,NA,NA,NA,NA,NA,NA,NA,NA,NA,NA,NA,NA
c65be,deep,flow.Sequence,3_0_2_0_7_0,NA,NA,skipped,NA,503552.5999999,NA,NA,503546.104,503552.5999999,2023-11-02T09:23:00Z,503563.002,NULL,Widerstand,usulubu,s,kusababisha,mwalimu,mwenendo,NA,sdf,NA,2,NA,NA,NA,NA,NA,NA,NA,NA,NA,NA,NA,NA,NA,NA,NA,NA,NA,NA,NA
c65be,Shallow Question,html.Page,3_0_2_0_7_1_0,NA,NA,form submission,4219.6979998093,503552.5999999,503546.104,503563.002,507782.69999981,507783,2023-11-02T09:23:04Z,507793.458,NULL,Widerstand,usulubu,s,kusababisha,mwalimu,mwenendo,usulubu,NA,NA,2,NA,NA,NA,NA,NA,NA,NA,NA,NA,NA,NA,NA,NA,NA,NA,NA,NA,NA,NA
c65be,"""Richtig""-Screen",canvas.Screen,3_0_2_0_7_1_1,NA,NA,timeout,4997.16,507785.89999986,507777.061,507793.458,512773.605,512776,2023-11-02T09:23:09Z,512790.618,NULL,Widerstand,usulubu,s,kusababisha,mwalimu,mwenendo,NA,sdf,1,2,NA,NA,NA,NA,NA,NA,NA,NA,NA,NA,NA,NA,NA,NA,NA,NA,NA,NA,NA
c65be,"""Falsch""-Screen",canvas.Screen,3_0_2_0_7_1_2,NA,NA,skipped,NA,512780.69999981,NA,NA,512773.605,512780.69999981,2023-11-02T09:23:09Z,512790.618,NULL,Widerstand,usulubu,s,kusababisha,mwalimu,mwenendo,NA,sdf,NA,2,NA,NA,NA,NA,NA,NA,NA,NA,NA,NA,NA,NA,NA,NA,NA,NA,NA,NA,NA
c65be,shallow,flow.Sequence,3_0_2_0_7_1,NA,NA,completion,9210.603,503552.5999999,503546.104,503563.002,512773.605,512780.79999995,2023-11-02T09:23:09Z,512790.618,NULL,Widerstand,usulubu,s,kusababisha,mwalimu,mwenendo,NA,sdf,NA,2,NA,NA,NA,NA,NA,NA,NA,NA,NA,NA,NA,NA,NA,NA,NA,NA,NA,NA,NA
c65be,task,flow.Sequence,3_0_2_0_7,NA,NA,completion,9210.603,503552.5999999,503546.104,503563.002,512773.605,512780.79999995,2023-11-02T09:23:09Z,512790.618,NULL,Widerstand,usulubu,s,kusababisha,mwalimu,mwenendo,NA,sdf,NA,2,NA,NA,NA,NA,NA,NA,NA,NA,NA,NA,NA,NA,NA,NA,NA,NA,NA,NA,NA
c65be,block,flow.Loop,3_0_2_0,NA,NA,completion,95591.703,417191.69999981,417164.128,417181.902,512773.605,512781,2023-11-02T09:23:09Z,512790.618,NULL,NA,NA,NA,NA,NA,NA,NA,sdf,NA,2,NA,NA,NA,NA,NA,NA,NA,NA,NA,NA,NA,NA,NA,NA,NA,NA,NA,NA,NA
c65be,weiter,canvas.Screen,3_0_2_1,sdf,keypress(Space),response,1107.0819998092,512781,512773.605,512790.618,513897.69999981,513898.79999995,2023-11-02T09:23:10Z,513922.856,NULL,NA,NA,NA,NA,NA,NA,NA,sdf,NA,2,NA,NA,NA,NA,NA,NA,NA,NA,NA,NA,NA,NA,NA,NA,NA,NA,NA,NA,NA
c65be,check continue,flow.Sequence,3_0_2,NA,NA,completion,96715.797999809,417191.69999981,417164.128,417181.902,513897.69999981,513899.0999999,2023-11-02T09:23:10Z,513922.856,NULL,NA,NA,NA,NA,NA,NA,NA,sdf,NA,2,NA,NA,NA,NA,NA,NA,NA,NA,NA,NA,NA,NA,NA,NA,NA,NA,NA,NA,NA
c65be,deep,flow.Sequence,3_0_3_0_0_0,NA,NA,skipped,NA,513925.69999981,NA,NA,513897.69999981,513925.89999986,2023-11-02T09:23:10Z,513922.856,NULL,Verstand,ufahamivu,s,shakawa,hadhari,mhandisi,NA,qt,NA,3,NA,NA,NA,NA,NA,NA,NA,NA,NA,NA,NA,NA,NA,NA,NA,NA,NA,NA,NA
c65be,Shallow Question,html.Page,3_0_3_0_0_1_0,NA,NA,form submission,13903.843999809,513925.89999986,513893.174,513922.856,527826.69999981,527826.89999986,2023-11-02T09:23:24Z,527831.051,NULL,Verstand,ufahamivu,s,shakawa,hadhari,mhandisi,ufahamivu,NA,NA,3,NA,NA,NA,NA,NA,NA,NA,NA,NA,NA,NA,NA,NA,NA,NA,NA,NA,NA,NA
c65be,"""Richtig""-Screen",canvas.Screen,3_0_3_0_0_1_1,NA,NA,timeout,4997.361,527830,527814.675,527831.051,532811.831,532812.79999995,2023-11-02T09:23:29Z,532828.412,NULL,Verstand,ufahamivu,s,shakawa,hadhari,mhandisi,NA,qt,1,3,NA,NA,NA,NA,NA,NA,NA,NA,NA,NA,NA,NA,NA,NA,NA,NA,NA,NA,NA
c65be,"""Falsch""-Screen",canvas.Screen,3_0_3_0_0_1_2,NA,NA,skipped,NA,532817.89999986,NA,NA,532811.831,532818.0999999,2023-11-02T09:23:29Z,532828.412,NULL,Verstand,ufahamivu,s,shakawa,hadhari,mhandisi,NA,qt,NA,3,NA,NA,NA,NA,NA,NA,NA,NA,NA,NA,NA,NA,NA,NA,NA,NA,NA,NA,NA
c65be,shallow,flow.Sequence,3_0_3_0_0_1,NA,NA,completion,18888.975,513925.89999986,513893.174,513922.856,532811.831,532818.19999981,2023-11-02T09:23:29Z,532828.412,NULL,Verstand,ufahamivu,s,shakawa,hadhari,mhandisi,NA,qt,NA,3,NA,NA,NA,NA,NA,NA,NA,NA,NA,NA,NA,NA,NA,NA,NA,NA,NA,NA,NA
c65be,task,flow.Sequence,3_0_3_0_0,NA,NA,completion,18888.975,513925.69999981,513893.174,513922.856,532811.831,532818.29999995,2023-11-02T09:23:29Z,532828.412,NULL,Verstand,ufahamivu,s,shakawa,hadhari,mhandisi,NA,qt,NA,3,NA,NA,NA,NA,NA,NA,NA,NA,NA,NA,NA,NA,NA,NA,NA,NA,NA,NA,NA
c65be,Deep Question,html.Page,3_0_3_0_1_0_0,NA,NA,form submission,20456.287999809,532818.29999995,532811.831,532828.412,553284.69999981,553284.89999986,2023-11-02T09:23:50Z,553299.234,NULL,Notfall,dharura,d,NA,NA,NA,dhaurarua,NA,NA,3,NA,NA,NA,NA,NA,NA,NA,NA,NA,NA,NA,NA,NA,NA,NA,NA,NA,NA,NA
c65be,"""Richtig""-Screen",canvas.Screen,3_0_3_0_1_0_1,NA,NA,skipped,NA,553288,NA,NA,553284.69999981,553288.19999981,2023-11-02T09:23:50Z,553299.234,NULL,Notfall,dharura,d,NA,NA,NA,NA,qt,NA,3,NA,NA,NA,NA,NA,NA,NA,NA,NA,NA,NA,NA,NA,NA,NA,NA,NA,NA,NA
c65be,"""Falsch""-Screen",canvas.Screen,3_0_3_0_1_0_2,NA,NA,timeout,4996.737,553288.5,553282.286,553299.234,558279.47,558280.5999999,2023-11-02T09:23:55Z,558295.971,NULL,Notfall,dharura,d,NA,NA,NA,NA,qt,0,3,NA,NA,NA,NA,NA,NA,NA,NA,NA,NA,NA,NA,NA,NA,NA,NA,NA,NA,NA
c65be,deep,flow.Sequence,3_0_3_0_1_0,NA,NA,completion,25451.058,532818.29999995,532811.831,532828.412,558279.47,558281,2023-11-02T09:23:55Z,558295.971,NULL,Notfall,dharura,d,NA,NA,NA,NA,qt,NA,3,NA,NA,NA,NA,NA,NA,NA,NA,NA,NA,NA,NA,NA,NA,NA,NA,NA,NA,NA
c65be,shallow,flow.Sequence,3_0_3_0_1_1,NA,NA,skipped,NA,558281.0999999,NA,NA,558279.47,558281.19999981,2023-11-02T09:23:55Z,558295.971,NULL,Notfall,dharura,d,NA,NA,NA,NA,qt,NA,3,NA,NA,NA,NA,NA,NA,NA,NA,NA,NA,NA,NA,NA,NA,NA,NA,NA,NA,NA
c65be,task,flow.Sequence,3_0_3_0_1,NA,NA,completion,25451.058,532818.29999995,532811.831,532828.412,558279.47,558281.5,2023-11-02T09:23:55Z,558295.971,NULL,Notfall,dharura,d,NA,NA,NA,NA,qt,NA,3,NA,NA,NA,NA,NA,NA,NA,NA,NA,NA,NA,NA,NA,NA,NA,NA,NA,NA,NA
c65be,deep,flow.Sequence,3_0_3_0_2_0,NA,NA,skipped,NA,558281.69999981,NA,NA,558279.47,558281.79999995,2023-11-02T09:23:55Z,558295.971,NULL,Widerstand,usulubu,s,kusababisha,mwalimu,mwenendo,NA,qt,NA,3,NA,NA,NA,NA,NA,NA,NA,NA,NA,NA,NA,NA,NA,NA,NA,NA,NA,NA,NA
c65be,Shallow Question,html.Page,3_0_3_0_2_1_0,NA,NA,form submission,5821.3289999523,558282,558279.47,558295.971,564117.29999995,564117.5999999,2023-11-02T09:24:01Z,564142.712,NULL,Widerstand,usulubu,s,kusababisha,mwalimu,mwenendo,usulubu,NA,NA,3,NA,NA,NA,NA,NA,NA,NA,NA,NA,NA,NA,NA,NA,NA,NA,NA,NA,NA,NA
c65be,"""Richtig""-Screen",canvas.Screen,3_0_3_0_2_1_1,NA,NA,timeout,4996.794,564120.69999981,564125.839,564142.712,569122.889,569124.19999981,2023-11-02T09:24:06Z,569139.506,NULL,Widerstand,usulubu,s,kusababisha,mwalimu,mwenendo,NA,qt,1,3,NA,NA,NA,NA,NA,NA,NA,NA,NA,NA,NA,NA,NA,NA,NA,NA,NA,NA,NA
c65be,"""Falsch""-Screen",canvas.Screen,3_0_3_0_2_1_2,NA,NA,skipped,NA,569129.0999999,NA,NA,569122.889,569129.29999995,2023-11-02T09:24:06Z,569139.506,NULL,Widerstand,usulubu,s,kusababisha,mwalimu,mwenendo,NA,qt,NA,3,NA,NA,NA,NA,NA,NA,NA,NA,NA,NA,NA,NA,NA,NA,NA,NA,NA,NA,NA
c65be,shallow,flow.Sequence,3_0_3_0_2_1,NA,NA,completion,10826.918,558282,558279.47,558295.971,569122.889,569129.39999986,2023-11-02T09:24:06Z,569139.506,NULL,Widerstand,usulubu,s,kusababisha,mwalimu,mwenendo,NA,qt,NA,3,NA,NA,NA,NA,NA,NA,NA,NA,NA,NA,NA,NA,NA,NA,NA,NA,NA,NA,NA
c65be,task,flow.Sequence,3_0_3_0_2,NA,NA,completion,10826.918,558281.69999981,558279.47,558295.971,569122.889,569129.5,2023-11-02T09:24:06Z,569139.506,NULL,Widerstand,usulubu,s,kusababisha,mwalimu,mwenendo,NA,qt,NA,3,NA,NA,NA,NA,NA,NA,NA,NA,NA,NA,NA,NA,NA,NA,NA,NA,NA,NA,NA
c65be,Deep Question,html.Page,3_0_3_0_3_0_0,NA,NA,form submission,14186.793999952,569129.5999999,569122.889,569139.506,583326.29999995,583326.5999999,2023-11-02T09:24:20Z,583330.514,NULL,Vergnügen,kichekesho,d,NA,NA,NA,kichekeche,NA,NA,3,NA,NA,NA,NA,NA,NA,NA,NA,NA,NA,NA,NA,NA,NA,NA,NA,NA,NA,NA
c65be,"""Richtig""-Screen",canvas.Screen,3_0_3_0_3_0_1,NA,NA,skipped,NA,583329.69999981,NA,NA,583326.29999995,583330,2023-11-02T09:24:20Z,583330.514,NULL,Vergnügen,kichekesho,d,NA,NA,NA,NA,qt,NA,3,NA,NA,NA,NA,NA,NA,NA,NA,NA,NA,NA,NA,NA,NA,NA,NA,NA,NA,NA
c65be,"""Falsch""-Screen",canvas.Screen,3_0_3_0_3_0_2,NA,NA,timeout,4997.326,583330.39999986,583314.012,583330.514,588311.222,588312.29999995,2023-11-02T09:24:25Z,588327.84,NULL,Vergnügen,kichekesho,d,NA,NA,NA,NA,qt,0,3,NA,NA,NA,NA,NA,NA,NA,NA,NA,NA,NA,NA,NA,NA,NA,NA,NA,NA,NA
c65be,deep,flow.Sequence,3_0_3_0_3_0,NA,NA,completion,19171.716,569129.5,569122.889,569139.506,588311.222,588312.69999981,2023-11-02T09:24:25Z,588327.84,NULL,Vergnügen,kichekesho,d,NA,NA,NA,NA,qt,NA,3,NA,NA,NA,NA,NA,NA,NA,NA,NA,NA,NA,NA,NA,NA,NA,NA,NA,NA,NA
c65be,shallow,flow.Sequence,3_0_3_0_3_1,NA,NA,skipped,NA,588312.89999986,NA,NA,588311.222,588313,2023-11-02T09:24:25Z,588327.84,NULL,Vergnügen,kichekesho,d,NA,NA,NA,NA,qt,NA,3,NA,NA,NA,NA,NA,NA,NA,NA,NA,NA,NA,NA,NA,NA,NA,NA,NA,NA,NA
c65be,task,flow.Sequence,3_0_3_0_3,NA,NA,completion,19171.716,569129.5,569122.889,569139.506,588311.222,588313.19999981,2023-11-02T09:24:25Z,588327.84,NULL,Vergnügen,kichekesho,d,NA,NA,NA,NA,qt,NA,3,NA,NA,NA,NA,NA,NA,NA,NA,NA,NA,NA,NA,NA,NA,NA,NA,NA,NA,NA
c65be,deep,flow.Sequence,3_0_3_0_4_0,NA,NA,skipped,NA,588313.39999986,NA,NA,588311.222,588313.5999999,2023-11-02T09:24:25Z,588327.84,NULL,Wohlstand,mafanikio,s,chimbuko,kumbuko,mapwaji,NA,qt,NA,3,NA,NA,NA,NA,NA,NA,NA,NA,NA,NA,NA,NA,NA,NA,NA,NA,NA,NA,NA
c65be,Shallow Question,html.Page,3_0_3_0_4_1_0,NA,NA,form submission,4545.2599999047,588313.79999995,588311.222,588327.84,592873.0999999,592873.29999995,2023-11-02T09:24:29Z,592891.687,NULL,Wohlstand,mafanikio,s,chimbuko,kumbuko,mapwaji,mafanikio,NA,NA,3,NA,NA,NA,NA,NA,NA,NA,NA,NA,NA,NA,NA,NA,NA,NA,NA,NA,NA,NA
c65be,"""Richtig""-Screen",canvas.Screen,3_0_3_0_4_1_1,NA,NA,timeout,4996.9909999999,592876.5,592874.65,592891.687,597872.067,597873.19999981,2023-11-02T09:24:34Z,597888.678,NULL,Wohlstand,mafanikio,s,chimbuko,kumbuko,mapwaji,NA,qt,1,3,NA,NA,NA,NA,NA,NA,NA,NA,NA,NA,NA,NA,NA,NA,NA,NA,NA,NA,NA
c65be,"""Falsch""-Screen",canvas.Screen,3_0_3_0_4_1_2,NA,NA,skipped,NA,597878.5,NA,NA,597872.067,597878.5999999,2023-11-02T09:24:34Z,597888.678,NULL,Wohlstand,mafanikio,s,chimbuko,kumbuko,mapwaji,NA,qt,NA,3,NA,NA,NA,NA,NA,NA,NA,NA,NA,NA,NA,NA,NA,NA,NA,NA,NA,NA,NA
c65be,shallow,flow.Sequence,3_0_3_0_4_1,NA,NA,completion,9544.2270000001,588313.69999981,588311.222,588327.84,597872.067,597878.69999981,2023-11-02T09:24:34Z,597888.678,NULL,Wohlstand,mafanikio,s,chimbuko,kumbuko,mapwaji,NA,qt,NA,3,NA,NA,NA,NA,NA,NA,NA,NA,NA,NA,NA,NA,NA,NA,NA,NA,NA,NA,NA
c65be,task,flow.Sequence,3_0_3_0_4,NA,NA,completion,9544.2270000001,588313.39999986,588311.222,588327.84,597872.067,597878.79999995,2023-11-02T09:24:34Z,597888.678,NULL,Wohlstand,mafanikio,s,chimbuko,kumbuko,mapwaji,NA,qt,NA,3,NA,NA,NA,NA,NA,NA,NA,NA,NA,NA,NA,NA,NA,NA,NA,NA,NA,NA,NA
c65be,deep,flow.Sequence,3_0_3_0_5_0,NA,NA,skipped,NA,597878.79999995,NA,NA,597872.067,597878.79999995,2023-11-02T09:24:34Z,597888.678,NULL,Ergänzung,kijalizo,s,ulaghai,mustarehe,matangazo,NA,qt,NA,3,NA,NA,NA,NA,NA,NA,NA,NA,NA,NA,NA,NA,NA,NA,NA,NA,NA,NA,NA
c65be,Shallow Question,html.Page,3_0_3_0_5_1_0,NA,NA,form submission,5349.5219998093,597878.89999986,597872.067,597888.678,603238.19999981,603238.5,2023-11-02T09:24:40Z,603252.141,NULL,Ergänzung,kijalizo,s,ulaghai,mustarehe,matangazo,kijalizo,NA,NA,3,NA,NA,NA,NA,NA,NA,NA,NA,NA,NA,NA,NA,NA,NA,NA,NA,NA,NA,NA
c65be,"""Richtig""-Screen",canvas.Screen,3_0_3_0_5_1_1,NA,NA,timeout,4996.4870000001,603241.39999986,603234.815,603252.141,608232.405,608233.39999986,2023-11-02T09:24:45Z,608248.628,NULL,Ergänzung,kijalizo,s,ulaghai,mustarehe,matangazo,NA,qt,1,3,NA,NA,NA,NA,NA,NA,NA,NA,NA,NA,NA,NA,NA,NA,NA,NA,NA,NA,NA
c65be,"""Falsch""-Screen",canvas.Screen,3_0_3_0_5_1_2,NA,NA,skipped,NA,608238.69999981,NA,NA,608232.405,608238.79999995,2023-11-02T09:24:45Z,608248.628,NULL,Ergänzung,kijalizo,s,ulaghai,mustarehe,matangazo,NA,qt,NA,3,NA,NA,NA,NA,NA,NA,NA,NA,NA,NA,NA,NA,NA,NA,NA,NA,NA,NA,NA
c65be,shallow,flow.Sequence,3_0_3_0_5_1,NA,NA,completion,10343.727,597878.89999986,597872.067,597888.678,608232.405,608238.89999986,2023-11-02T09:24:45Z,608248.628,NULL,Ergänzung,kijalizo,s,ulaghai,mustarehe,matangazo,NA,qt,NA,3,NA,NA,NA,NA,NA,NA,NA,NA,NA,NA,NA,NA,NA,NA,NA,NA,NA,NA,NA
c65be,task,flow.Sequence,3_0_3_0_5,NA,NA,completion,10343.727,597878.79999995,597872.067,597888.678,608232.405,608239,2023-11-02T09:24:45Z,608248.628,NULL,Ergänzung,kijalizo,s,ulaghai,mustarehe,matangazo,NA,qt,NA,3,NA,NA,NA,NA,NA,NA,NA,NA,NA,NA,NA,NA,NA,NA,NA,NA,NA,NA,NA
c65be,Deep Question,html.Page,3_0_3_0_6_0_0,NA,NA,form submission,6956.1719999523,608239.0999999,608232.405,608248.628,615204.79999995,615205.0999999,2023-11-02T09:24:52Z,615210.99,NULL,Gelegenheit,wakati,d,NA,NA,NA,makaupe,NA,NA,3,NA,NA,NA,NA,NA,NA,NA,NA,NA,NA,NA,NA,NA,NA,NA,NA,NA,NA,NA
c65be,"""Richtig""-Screen",canvas.Screen,3_0_3_0_6_0_1,NA,NA,skipped,NA,615207.0999999,NA,NA,615204.79999995,615207.0999999,2023-11-02T09:24:52Z,615210.99,NULL,Gelegenheit,wakati,d,NA,NA,NA,NA,qt,NA,3,NA,NA,NA,NA,NA,NA,NA,NA,NA,NA,NA,NA,NA,NA,NA,NA,NA,NA,NA
c65be,"""Falsch""-Screen",canvas.Screen,3_0_3_0_6_0_2,NA,NA,timeout,4997.048,615207.5999999,615194.652,615210.99,620191.667,620192.19999981,2023-11-02T09:24:57Z,620208.038,NULL,Gelegenheit,wakati,d,NA,NA,NA,NA,qt,0,3,NA,NA,NA,NA,NA,NA,NA,NA,NA,NA,NA,NA,NA,NA,NA,NA,NA,NA,NA
c65be,deep,flow.Sequence,3_0_3_0_6_0,NA,NA,completion,11943.039,608239.0999999,608232.405,608248.628,620191.667,620192.29999995,2023-11-02T09:24:57Z,620208.038,NULL,Gelegenheit,wakati,d,NA,NA,NA,NA,qt,NA,3,NA,NA,NA,NA,NA,NA,NA,NA,NA,NA,NA,NA,NA,NA,NA,NA,NA,NA,NA
c65be,shallow,flow.Sequence,3_0_3_0_6_1,NA,NA,skipped,NA,620192.29999995,NA,NA,620191.667,620192.39999986,2023-11-02T09:24:57Z,620208.038,NULL,Gelegenheit,wakati,d,NA,NA,NA,NA,qt,NA,3,NA,NA,NA,NA,NA,NA,NA,NA,NA,NA,NA,NA,NA,NA,NA,NA,NA,NA,NA
c65be,task,flow.Sequence,3_0_3_0_6,NA,NA,completion,11943.039,608239.0999999,608232.405,608248.628,620191.667,620192.39999986,2023-11-02T09:24:57Z,620208.038,NULL,Gelegenheit,wakati,d,NA,NA,NA,NA,qt,NA,3,NA,NA,NA,NA,NA,NA,NA,NA,NA,NA,NA,NA,NA,NA,NA,NA,NA,NA,NA
c65be,Deep Question,html.Page,3_0_3_0_7_0_0,NA,NA,form submission,7860.1619998093,620192.5999999,620191.667,620208.038,628068.19999981,628068.39999986,2023-11-02T09:25:04Z,628069.807,NULL,Ausschluss,kutengwa,d,NA,NA,NA,weakeke,NA,NA,3,NA,NA,NA,NA,NA,NA,NA,NA,NA,NA,NA,NA,NA,NA,NA,NA,NA,NA,NA
c65be,"""Richtig""-Screen",canvas.Screen,3_0_3_0_7_0_1,NA,NA,skipped,NA,628071.79999995,NA,NA,628068.19999981,628072,2023-11-02T09:25:04Z,628069.807,NULL,Ausschluss,kutengwa,d,NA,NA,NA,NA,qt,NA,3,NA,NA,NA,NA,NA,NA,NA,NA,NA,NA,NA,NA,NA,NA,NA,NA,NA,NA,NA
c65be,"""Falsch""-Screen",canvas.Screen,3_0_3_0_7_0_2,NA,NA,timeout,4997.276,628072.89999986,628053.458,628069.807,633050.467,633051.5999999,2023-11-02T09:25:09Z,633067.083,NULL,Ausschluss,kutengwa,d,NA,NA,NA,NA,qt,0,3,NA,NA,NA,NA,NA,NA,NA,NA,NA,NA,NA,NA,NA,NA,NA,NA,NA,NA,NA
c65be,deep,flow.Sequence,3_0_3_0_7_0,NA,NA,completion,12842.429,620192.5,620191.667,620208.038,633050.467,633052.0999999,2023-11-02T09:25:09Z,633067.083,NULL,Ausschluss,kutengwa,d,NA,NA,NA,NA,qt,NA,3,NA,NA,NA,NA,NA,NA,NA,NA,NA,NA,NA,NA,NA,NA,NA,NA,NA,NA,NA
c65be,shallow,flow.Sequence,3_0_3_0_7_1,NA,NA,skipped,NA,633052.29999995,NA,NA,633050.467,633052.5,2023-11-02T09:25:09Z,633067.083,NULL,Ausschluss,kutengwa,d,NA,NA,NA,NA,qt,NA,3,NA,NA,NA,NA,NA,NA,NA,NA,NA,NA,NA,NA,NA,NA,NA,NA,NA,NA,NA
c65be,task,flow.Sequence,3_0_3_0_7,NA,NA,completion,12842.429,620192.5,620191.667,620208.038,633050.467,633052.69999981,2023-11-02T09:25:09Z,633067.083,NULL,Ausschluss,kutengwa,d,NA,NA,NA,NA,qt,NA,3,NA,NA,NA,NA,NA,NA,NA,NA,NA,NA,NA,NA,NA,NA,NA,NA,NA,NA,NA
c65be,block,flow.Loop,3_0_3_0,NA,NA,completion,119127.611,513925.69999981,513893.174,513922.856,633050.467,633053,2023-11-02T09:25:09Z,633067.083,NULL,NA,NA,NA,NA,NA,NA,NA,qt,NA,3,NA,NA,NA,NA,NA,NA,NA,NA,NA,NA,NA,NA,NA,NA,NA,NA,NA,NA,NA
c65be,weiter,canvas.Screen,3_0_3_1,sdf,keypress(Space),response,1921.316999857,633053.0999999,633050.467,633067.083,634988.39999986,634989.39999986,2023-11-02T09:25:11Z,635015.541,NULL,NA,NA,NA,NA,NA,NA,NA,qt,NA,3,NA,NA,NA,NA,NA,NA,NA,NA,NA,NA,NA,NA,NA,NA,NA,NA,NA,NA,NA
c65be,check continue,flow.Sequence,3_0_3,NA,NA,completion,121065.54399986,513925.69999981,513893.174,513922.856,634988.39999986,634989.79999995,2023-11-02T09:25:11Z,635015.541,NULL,NA,NA,NA,NA,NA,NA,NA,qt,NA,3,NA,NA,NA,NA,NA,NA,NA,NA,NA,NA,NA,NA,NA,NA,NA,NA,NA,NA,NA
c65be,Deep Question,html.Page,3_0_4_0_0_0_0,NA,NA,form submission,22611.358999857,635016.19999981,634983.397,635015.541,657626.89999986,657627.0999999,2023-11-02T09:25:34Z,657635.273,NULL,Notfall,dharura,d,NA,NA,NA,dhaurua,NA,NA,4,NA,NA,NA,NA,NA,NA,NA,NA,NA,NA,NA,NA,NA,NA,NA,NA,NA,NA,NA
c65be,"""Richtig""-Screen",canvas.Screen,3_0_4_0_0_0_1,NA,NA,skipped,NA,657630.39999986,NA,NA,657626.89999986,657630.69999981,2023-11-02T09:25:34Z,657635.273,NULL,Notfall,dharura,d,NA,NA,NA,NA,sd,NA,4,NA,NA,NA,NA,NA,NA,NA,NA,NA,NA,NA,NA,NA,NA,NA,NA,NA,NA,NA
c65be,"""Falsch""-Screen",canvas.Screen,3_0_4_0_0_0_2,NA,NA,timeout,4997.397,657631.29999995,657618.558,657635.273,662615.782,662616.89999986,2023-11-02T09:25:39Z,662632.67,NULL,Notfall,dharura,d,NA,NA,NA,NA,sd,0,4,NA,NA,NA,NA,NA,NA,NA,NA,NA,NA,NA,NA,NA,NA,NA,NA,NA,NA,NA
c65be,deep,flow.Sequence,3_0_4_0_0_0,NA,NA,completion,27600.241,635016.19999981,634983.397,635015.541,662615.782,662617.29999995,2023-11-02T09:25:39Z,662632.67,NULL,Notfall,dharura,d,NA,NA,NA,NA,sd,NA,4,NA,NA,NA,NA,NA,NA,NA,NA,NA,NA,NA,NA,NA,NA,NA,NA,NA,NA,NA
c65be,shallow,flow.Sequence,3_0_4_0_0_1,NA,NA,skipped,NA,662617.39999986,NA,NA,662615.782,662617.5999999,2023-11-02T09:25:39Z,662632.67,NULL,Notfall,dharura,d,NA,NA,NA,NA,sd,NA,4,NA,NA,NA,NA,NA,NA,NA,NA,NA,NA,NA,NA,NA,NA,NA,NA,NA,NA,NA
c65be,task,flow.Sequence,3_0_4_0_0,NA,NA,completion,27600.241,635016.19999981,634983.397,635015.541,662615.782,662617.89999986,2023-11-02T09:25:39Z,662632.67,NULL,Notfall,dharura,d,NA,NA,NA,NA,sd,NA,4,NA,NA,NA,NA,NA,NA,NA,NA,NA,NA,NA,NA,NA,NA,NA,NA,NA,NA,NA
c65be,Deep Question,html.Page,3_0_4_0_1_0_0,NA,NA,form submission,11864.33,662618.0999999,662615.782,662632.67,674497,674497.29999995,2023-11-02T09:25:51Z,674508.373,NULL,Gelegenheit,wakati,d,NA,NA,NA,wakati,NA,NA,4,NA,NA,NA,NA,NA,NA,NA,NA,NA,NA,NA,NA,NA,NA,NA,NA,NA,NA,NA
c65be,"""Richtig""-Screen",canvas.Screen,3_0_4_0_1_0_1,NA,NA,timeout,4997.178,674500.5,674492.034,674508.373,679488.575,679489.5999999,2023-11-02T09:25:56Z,679505.551,NULL,Gelegenheit,wakati,d,NA,NA,NA,NA,sd,1,4,NA,NA,NA,NA,NA,NA,NA,NA,NA,NA,NA,NA,NA,NA,NA,NA,NA,NA,NA
c65be,"""Falsch""-Screen",canvas.Screen,3_0_4_0_1_0_2,NA,NA,skipped,NA,679494.79999995,NA,NA,679488.575,679494.89999986,2023-11-02T09:25:56Z,679505.551,NULL,Gelegenheit,wakati,d,NA,NA,NA,NA,sd,NA,4,NA,NA,NA,NA,NA,NA,NA,NA,NA,NA,NA,NA,NA,NA,NA,NA,NA,NA,NA
c65be,deep,flow.Sequence,3_0_4_0_1_0,NA,NA,completion,16855.905,662618,662615.782,662632.67,679488.575,679495,2023-11-02T09:25:56Z,679505.551,NULL,Gelegenheit,wakati,d,NA,NA,NA,NA,sd,NA,4,NA,NA,NA,NA,NA,NA,NA,NA,NA,NA,NA,NA,NA,NA,NA,NA,NA,NA,NA
c65be,shallow,flow.Sequence,3_0_4_0_1_1,NA,NA,skipped,NA,679495,NA,NA,679488.575,679495.0999999,2023-11-02T09:25:56Z,679505.551,NULL,Gelegenheit,wakati,d,NA,NA,NA,NA,sd,NA,4,NA,NA,NA,NA,NA,NA,NA,NA,NA,NA,NA,NA,NA,NA,NA,NA,NA,NA,NA
c65be,task,flow.Sequence,3_0_4_0_1,NA,NA,completion,16855.905,662618,662615.782,662632.67,679488.575,679495.0999999,2023-11-02T09:25:56Z,679505.551,NULL,Gelegenheit,wakati,d,NA,NA,NA,NA,sd,NA,4,NA,NA,NA,NA,NA,NA,NA,NA,NA,NA,NA,NA,NA,NA,NA,NA,NA,NA,NA
c65be,deep,flow.Sequence,3_0_4_0_2_0,NA,NA,skipped,NA,679495.0999999,NA,NA,679488.575,679495.19999981,2023-11-02T09:25:56Z,679505.551,NULL,Ergänzung,kijalizo,s,ulaghai,mustarehe,matangazo,NA,sd,NA,4,NA,NA,NA,NA,NA,NA,NA,NA,NA,NA,NA,NA,NA,NA,NA,NA,NA,NA,NA
c65be,Shallow Question,html.Page,3_0_4_0_2_1_0,NA,NA,form submission,4059.5489999047,679495.19999981,679488.575,679505.551,683565.0999999,683565.29999995,2023-11-02T09:26:00Z,683569.253,NULL,Ergänzung,kijalizo,s,ulaghai,mustarehe,matangazo,kijalizo,NA,NA,4,NA,NA,NA,NA,NA,NA,NA,NA,NA,NA,NA,NA,NA,NA,NA,NA,NA,NA,NA
c65be,"""Richtig""-Screen",canvas.Screen,3_0_4_0_2_1_1,NA,NA,timeout,4997.1159999999,683568.29999995,683552.903,683569.253,688549.959,688551.0999999,2023-11-02T09:26:05Z,688566.369,NULL,Ergänzung,kijalizo,s,ulaghai,mustarehe,matangazo,NA,sd,1,4,NA,NA,NA,NA,NA,NA,NA,NA,NA,NA,NA,NA,NA,NA,NA,NA,NA,NA,NA
c65be,"""Falsch""-Screen",canvas.Screen,3_0_4_0_2_1_2,NA,NA,skipped,NA,688556.29999995,NA,NA,688549.959,688556.39999986,2023-11-02T09:26:05Z,688566.369,NULL,Ergänzung,kijalizo,s,ulaghai,mustarehe,matangazo,NA,sd,NA,4,NA,NA,NA,NA,NA,NA,NA,NA,NA,NA,NA,NA,NA,NA,NA,NA,NA,NA,NA
c65be,shallow,flow.Sequence,3_0_4_0_2_1,NA,NA,completion,9044.4080000001,679495.19999981,679488.575,679505.551,688549.959,688556.5,2023-11-02T09:26:05Z,688566.369,NULL,Ergänzung,kijalizo,s,ulaghai,mustarehe,matangazo,NA,sd,NA,4,NA,NA,NA,NA,NA,NA,NA,NA,NA,NA,NA,NA,NA,NA,NA,NA,NA,NA,NA
c65be,task,flow.Sequence,3_0_4_0_2,NA,NA,completion,9044.4080000001,679495.0999999,679488.575,679505.551,688549.959,688556.5999999,2023-11-02T09:26:05Z,688566.369,NULL,Ergänzung,kijalizo,s,ulaghai,mustarehe,matangazo,NA,sd,NA,4,NA,NA,NA,NA,NA,NA,NA,NA,NA,NA,NA,NA,NA,NA,NA,NA,NA,NA,NA
c65be,deep,flow.Sequence,3_0_4_0_3_0,NA,NA,skipped,NA,688556.5999999,NA,NA,688549.959,688556.5999999,2023-11-02T09:26:05Z,688566.369,NULL,Verstand,ufahamivu,s,shakawa,hadhari,mhandisi,NA,sd,NA,4,NA,NA,NA,NA,NA,NA,NA,NA,NA,NA,NA,NA,NA,NA,NA,NA,NA,NA,NA
c65be,Shallow Question,html.Page,3_0_4_0_3_1_0,NA,NA,form submission,5434.2309999047,688556.69999981,688549.959,688566.369,694000.5999999,694000.79999995,2023-11-02T09:26:10Z,694013.275,NULL,Verstand,ufahamivu,s,shakawa,hadhari,mhandisi,ufahamivu,NA,NA,4,NA,NA,NA,NA,NA,NA,NA,NA,NA,NA,NA,NA,NA,NA,NA,NA,NA,NA,NA
c65be,"""Richtig""-Screen",canvas.Screen,3_0_4_0_3_1_1,NA,NA,timeout,4996.547,694004,693996.715,694013.275,698993.729,698994.69999981,2023-11-02T09:26:15Z,699009.822,NULL,Verstand,ufahamivu,s,shakawa,hadhari,mhandisi,NA,sd,1,4,NA,NA,NA,NA,NA,NA,NA,NA,NA,NA,NA,NA,NA,NA,NA,NA,NA,NA,NA
c65be,"""Falsch""-Screen",canvas.Screen,3_0_4_0_3_1_2,NA,NA,skipped,NA,699000,NA,NA,698993.729,699000.0999999,2023-11-02T09:26:15Z,699009.822,NULL,Verstand,ufahamivu,s,shakawa,hadhari,mhandisi,NA,sd,NA,4,NA,NA,NA,NA,NA,NA,NA,NA,NA,NA,NA,NA,NA,NA,NA,NA,NA,NA,NA
c65be,shallow,flow.Sequence,3_0_4_0_3_1,NA,NA,completion,10427.36,688556.5999999,688549.959,688566.369,698993.729,699000.19999981,2023-11-02T09:26:15Z,699009.822,NULL,Verstand,ufahamivu,s,shakawa,hadhari,mhandisi,NA,sd,NA,4,NA,NA,NA,NA,NA,NA,NA,NA,NA,NA,NA,NA,NA,NA,NA,NA,NA,NA,NA
c65be,task,flow.Sequence,3_0_4_0_3,NA,NA,completion,10427.36,688556.5999999,688549.959,688566.369,698993.729,699000.19999981,2023-11-02T09:26:15Z,699009.822,NULL,Verstand,ufahamivu,s,shakawa,hadhari,mhandisi,NA,sd,NA,4,NA,NA,NA,NA,NA,NA,NA,NA,NA,NA,NA,NA,NA,NA,NA,NA,NA,NA,NA
c65be,Deep Question,html.Page,3_0_4_0_4_0_0,NA,NA,form submission,4695.8779998092,699000.29999995,698993.729,699009.822,703705.69999981,703705.79999995,2023-11-02T09:26:20Z,703706.939,NULL,Ausschluss,kutengwa,d,NA,NA,NA,make,NA,NA,4,NA,NA,NA,NA,NA,NA,NA,NA,NA,NA,NA,NA,NA,NA,NA,NA,NA,NA,NA
c65be,"""Richtig""-Screen",canvas.Screen,3_0_4_0_4_0_1,NA,NA,skipped,NA,703707.5,NA,NA,703705.69999981,703707.5999999,2023-11-02T09:26:20Z,703706.939,NULL,Ausschluss,kutengwa,d,NA,NA,NA,NA,sd,NA,4,NA,NA,NA,NA,NA,NA,NA,NA,NA,NA,NA,NA,NA,NA,NA,NA,NA,NA,NA
c65be,"""Falsch""-Screen",canvas.Screen,3_0_4_0_4_0_2,NA,NA,timeout,4997.167,703708.0999999,703690.717,703706.939,708687.535,708688.5999999,2023-11-02T09:26:25Z,708704.106,NULL,Ausschluss,kutengwa,d,NA,NA,NA,NA,sd,0,4,NA,NA,NA,NA,NA,NA,NA,NA,NA,NA,NA,NA,NA,NA,NA,NA,NA,NA,NA
c65be,deep,flow.Sequence,3_0_4_0_4_0,NA,NA,completion,9677.713,699000.29999995,698993.729,699009.822,708687.535,708689,2023-11-02T09:26:25Z,708704.106,NULL,Ausschluss,kutengwa,d,NA,NA,NA,NA,sd,NA,4,NA,NA,NA,NA,NA,NA,NA,NA,NA,NA,NA,NA,NA,NA,NA,NA,NA,NA,NA
c65be,shallow,flow.Sequence,3_0_4_0_4_1,NA,NA,skipped,NA,708689.19999981,NA,NA,708687.535,708689.29999995,2023-11-02T09:26:25Z,708704.106,NULL,Ausschluss,kutengwa,d,NA,NA,NA,NA,sd,NA,4,NA,NA,NA,NA,NA,NA,NA,NA,NA,NA,NA,NA,NA,NA,NA,NA,NA,NA,NA
c65be,task,flow.Sequence,3_0_4_0_4,NA,NA,completion,9677.713,699000.19999981,698993.729,699009.822,708687.535,708689.5999999,2023-11-02T09:26:25Z,708704.106,NULL,Ausschluss,kutengwa,d,NA,NA,NA,NA,sd,NA,4,NA,NA,NA,NA,NA,NA,NA,NA,NA,NA,NA,NA,NA,NA,NA,NA,NA,NA,NA
c65be,Deep Question,html.Page,3_0_4_0_5_0_0,NA,NA,form submission,13871.093999809,708689.89999986,708687.535,708704.106,722575.19999981,722575.39999986,2023-11-02T09:26:39Z,722578.759,NULL,Vergnügen,kichekesho,d,NA,NA,NA,kichekesho,NA,NA,4,NA,NA,NA,NA,NA,NA,NA,NA,NA,NA,NA,NA,NA,NA,NA,NA,NA,NA,NA
c65be,"""Richtig""-Screen",canvas.Screen,3_0_4_0_5_0_1,NA,NA,timeout,4997.4870000001,722577.39999986,722562.888,722578.759,727559.479,727560.5999999,2023-11-02T09:26:44Z,727576.246,NULL,Vergnügen,kichekesho,d,NA,NA,NA,NA,sd,1,4,NA,NA,NA,NA,NA,NA,NA,NA,NA,NA,NA,NA,NA,NA,NA,NA,NA,NA,NA
c65be,"""Falsch""-Screen",canvas.Screen,3_0_4_0_5_0_2,NA,NA,skipped,NA,727565.39999986,NA,NA,727559.479,727565.5,2023-11-02T09:26:44Z,727576.246,NULL,Vergnügen,kichekesho,d,NA,NA,NA,NA,sd,NA,4,NA,NA,NA,NA,NA,NA,NA,NA,NA,NA,NA,NA,NA,NA,NA,NA,NA,NA,NA
c65be,deep,flow.Sequence,3_0_4_0_5_0,NA,NA,completion,18855.373,708689.79999995,708687.535,708704.106,727559.479,727565.5999999,2023-11-02T09:26:44Z,727576.246,NULL,Vergnügen,kichekesho,d,NA,NA,NA,NA,sd,NA,4,NA,NA,NA,NA,NA,NA,NA,NA,NA,NA,NA,NA,NA,NA,NA,NA,NA,NA,NA
c65be,shallow,flow.Sequence,3_0_4_0_5_1,NA,NA,skipped,NA,727565.5999999,NA,NA,727559.479,727565.69999981,2023-11-02T09:26:44Z,727576.246,NULL,Vergnügen,kichekesho,d,NA,NA,NA,NA,sd,NA,4,NA,NA,NA,NA,NA,NA,NA,NA,NA,NA,NA,NA,NA,NA,NA,NA,NA,NA,NA
c65be,task,flow.Sequence,3_0_4_0_5,NA,NA,completion,18855.373,708689.69999981,708687.535,708704.106,727559.479,727565.69999981,2023-11-02T09:26:44Z,727576.246,NULL,Vergnügen,kichekesho,d,NA,NA,NA,NA,sd,NA,4,NA,NA,NA,NA,NA,NA,NA,NA,NA,NA,NA,NA,NA,NA,NA,NA,NA,NA,NA
c65be,deep,flow.Sequence,3_0_4_0_6_0,NA,NA,skipped,NA,727565.79999995,NA,NA,727559.479,727565.79999995,2023-11-02T09:26:44Z,727576.246,NULL,Wohlstand,mafanikio,s,chimbuko,kumbuko,mapwaji,NA,sd,NA,4,NA,NA,NA,NA,NA,NA,NA,NA,NA,NA,NA,NA,NA,NA,NA,NA,NA,NA,NA
c65be,Shallow Question,html.Page,3_0_4_0_6_1_0,NA,NA,form submission,7396.4539998092,727565.79999995,727559.479,727576.246,734972.69999981,734972.89999986,2023-11-02T09:26:51Z,735004.635,NULL,Wohlstand,mafanikio,s,chimbuko,kumbuko,mapwaji,mafanikio,NA,NA,4,NA,NA,NA,NA,NA,NA,NA,NA,NA,NA,NA,NA,NA,NA,NA,NA,NA,NA,NA
c65be,"""Richtig""-Screen",canvas.Screen,3_0_4_0_6_1_1,NA,NA,timeout,4996.8959999999,734975.89999986,734988.295,735004.635,739985.089,739986.0999999,2023-11-02T09:26:56Z,740001.531,NULL,Wohlstand,mafanikio,s,chimbuko,kumbuko,mapwaji,NA,sd,1,4,NA,NA,NA,NA,NA,NA,NA,NA,NA,NA,NA,NA,NA,NA,NA,NA,NA,NA,NA
c65be,"""Falsch""-Screen",canvas.Screen,3_0_4_0_6_1_2,NA,NA,skipped,NA,739991.5,NA,NA,739985.089,739991.5,2023-11-02T09:26:56Z,740001.531,NULL,Wohlstand,mafanikio,s,chimbuko,kumbuko,mapwaji,NA,sd,NA,4,NA,NA,NA,NA,NA,NA,NA,NA,NA,NA,NA,NA,NA,NA,NA,NA,NA,NA,NA
c65be,shallow,flow.Sequence,3_0_4_0_6_1,NA,NA,completion,12408.843,727565.79999995,727559.479,727576.246,739985.089,739991.69999981,2023-11-02T09:26:56Z,740001.531,NULL,Wohlstand,mafanikio,s,chimbuko,kumbuko,mapwaji,NA,sd,NA,4,NA,NA,NA,NA,NA,NA,NA,NA,NA,NA,NA,NA,NA,NA,NA,NA,NA,NA,NA
c65be,task,flow.Sequence,3_0_4_0_6,NA,NA,completion,12408.843,727565.69999981,727559.479,727576.246,739985.089,739991.69999981,2023-11-02T09:26:56Z,740001.531,NULL,Wohlstand,mafanikio,s,chimbuko,kumbuko,mapwaji,NA,sd,NA,4,NA,NA,NA,NA,NA,NA,NA,NA,NA,NA,NA,NA,NA,NA,NA,NA,NA,NA,NA
c65be,deep,flow.Sequence,3_0_4_0_7_0,NA,NA,skipped,NA,739991.79999995,NA,NA,739985.089,739991.79999995,2023-11-02T09:26:56Z,740001.531,NULL,Widerstand,usulubu,s,kusababisha,mwalimu,mwenendo,NA,sd,NA,4,NA,NA,NA,NA,NA,NA,NA,NA,NA,NA,NA,NA,NA,NA,NA,NA,NA,NA,NA
c65be,Shallow Question,html.Page,3_0_4_0_7_1_0,NA,NA,form submission,4852.868999857,739991.89999986,739985.089,740001.531,744854.39999986,744854.5999999,2023-11-02T09:27:01Z,744865.177,NULL,Widerstand,usulubu,s,kusababisha,mwalimu,mwenendo,usulubu,NA,NA,4,NA,NA,NA,NA,NA,NA,NA,NA,NA,NA,NA,NA,NA,NA,NA,NA,NA,NA,NA
c65be,"""Richtig""-Screen",canvas.Screen,3_0_4_0_7_1_1,NA,NA,timeout,4997.3609999999,744857.5999999,744848.979,744865.177,749845.816,749846.89999986,2023-11-02T09:27:06Z,749862.538,NULL,Widerstand,usulubu,s,kusababisha,mwalimu,mwenendo,NA,sd,1,4,NA,NA,NA,NA,NA,NA,NA,NA,NA,NA,NA,NA,NA,NA,NA,NA,NA,NA,NA
c65be,"""Falsch""-Screen",canvas.Screen,3_0_4_0_7_1_2,NA,NA,skipped,NA,749852.19999981,NA,NA,749845.816,749852.29999995,2023-11-02T09:27:06Z,749862.538,NULL,Widerstand,usulubu,s,kusababisha,mwalimu,mwenendo,NA,sd,NA,4,NA,NA,NA,NA,NA,NA,NA,NA,NA,NA,NA,NA,NA,NA,NA,NA,NA,NA,NA
c65be,shallow,flow.Sequence,3_0_4_0_7_1,NA,NA,completion,9844.285,739991.79999995,739985.089,740001.531,749845.816,749852.39999986,2023-11-02T09:27:06Z,749862.538,NULL,Widerstand,usulubu,s,kusababisha,mwalimu,mwenendo,NA,sd,NA,4,NA,NA,NA,NA,NA,NA,NA,NA,NA,NA,NA,NA,NA,NA,NA,NA,NA,NA,NA
c65be,task,flow.Sequence,3_0_4_0_7,NA,NA,completion,9844.285,739991.69999981,739985.089,740001.531,749845.816,749852.39999986,2023-11-02T09:27:06Z,749862.538,NULL,Widerstand,usulubu,s,kusababisha,mwalimu,mwenendo,NA,sd,NA,4,NA,NA,NA,NA,NA,NA,NA,NA,NA,NA,NA,NA,NA,NA,NA,NA,NA,NA,NA
c65be,block,flow.Loop,3_0_4_0,NA,NA,completion,114830.275,635016.19999981,634983.397,635015.541,749845.816,749853.0999999,2023-11-02T09:27:06Z,749862.538,NULL,NA,NA,NA,NA,NA,NA,NA,sd,NA,4,NA,NA,NA,NA,NA,NA,NA,NA,NA,NA,NA,NA,NA,NA,NA,NA,NA,NA,NA
c65be,weiter,canvas.Screen,3_0_4_1,sdf,keypress(Space),response,1071.2619999524,749853.19999981,749845.816,749862.538,750933.79999995,750934.89999986,2023-11-02T09:27:07Z,750944.792,NULL,NA,NA,NA,NA,NA,NA,NA,sd,NA,4,NA,NA,NA,NA,NA,NA,NA,NA,NA,NA,NA,NA,NA,NA,NA,NA,NA,NA,NA
c65be,check continue,flow.Sequence,3_0_4,NA,NA,completion,115918.25899995,635016.19999981,634983.397,635015.541,750933.79999995,750935.39999986,2023-11-02T09:27:07Z,750944.792,NULL,NA,NA,NA,NA,NA,NA,NA,sd,NA,4,NA,NA,NA,NA,NA,NA,NA,NA,NA,NA,NA,NA,NA,NA,NA,NA,NA,NA,NA
c65be,deep,flow.Sequence,3_0_5_0_0_0,NA,NA,skipped,NA,750956,NA,NA,750933.79999995,750956.0999999,2023-11-02T09:27:07Z,750944.792,NULL,Widerstand,usulubu,s,kusababisha,mwalimu,mwenendo,NA,sdf,NA,5,NA,NA,NA,NA,NA,NA,NA,NA,NA,NA,NA,NA,NA,NA,NA,NA,NA,NA,NA
c65be,Shallow Question,html.Page,3_0_5_0_0_1_0,NA,NA,form submission,5651.3079999046,750956.0999999,750928.023,750944.792,756596.0999999,756596.39999986,2023-11-02T09:27:13Z,756608.401,NULL,Widerstand,usulubu,s,kusababisha,mwalimu,mwenendo,usulubu,NA,NA,5,NA,NA,NA,NA,NA,NA,NA,NA,NA,NA,NA,NA,NA,NA,NA,NA,NA,NA,NA
c65be,"""Richtig""-Screen",canvas.Screen,3_0_5_0_0_1_1,NA,NA,timeout,4996.973,756599.39999986,756591.756,756608.401,761588.649,761589.79999995,2023-11-02T09:27:18Z,761605.374,NULL,Widerstand,usulubu,s,kusababisha,mwalimu,mwenendo,NA,sdf,1,5,NA,NA,NA,NA,NA,NA,NA,NA,NA,NA,NA,NA,NA,NA,NA,NA,NA,NA,NA
c65be,"""Falsch""-Screen",canvas.Screen,3_0_5_0_0_1_2,NA,NA,skipped,NA,761594.5999999,NA,NA,761588.649,761594.69999981,2023-11-02T09:27:18Z,761605.374,NULL,Widerstand,usulubu,s,kusababisha,mwalimu,mwenendo,NA,sdf,NA,5,NA,NA,NA,NA,NA,NA,NA,NA,NA,NA,NA,NA,NA,NA,NA,NA,NA,NA,NA
c65be,shallow,flow.Sequence,3_0_5_0_0_1,NA,NA,completion,10643.857,750956.0999999,750928.023,750944.792,761588.649,761594.79999995,2023-11-02T09:27:18Z,761605.374,NULL,Widerstand,usulubu,s,kusababisha,mwalimu,mwenendo,NA,sdf,NA,5,NA,NA,NA,NA,NA,NA,NA,NA,NA,NA,NA,NA,NA,NA,NA,NA,NA,NA,NA
c65be,task,flow.Sequence,3_0_5_0_0,NA,NA,completion,10643.857,750956,750928.023,750944.792,761588.649,761594.79999995,2023-11-02T09:27:18Z,761605.374,NULL,Widerstand,usulubu,s,kusababisha,mwalimu,mwenendo,NA,sdf,NA,5,NA,NA,NA,NA,NA,NA,NA,NA,NA,NA,NA,NA,NA,NA,NA,NA,NA,NA,NA
c65be,Deep Question,html.Page,3_0_5_0_1_0_0,NA,NA,form submission,5519.7259999047,761594.89999986,761588.649,761605.374,767125.0999999,767125.29999995,2023-11-02T09:27:24Z,767135.259,NULL,Gelegenheit,wakati,d,NA,NA,NA,wakti,NA,NA,5,NA,NA,NA,NA,NA,NA,NA,NA,NA,NA,NA,NA,NA,NA,NA,NA,NA,NA,NA
c65be,"""Richtig""-Screen",canvas.Screen,3_0_5_0_1_0_1,NA,NA,skipped,NA,767128.29999995,NA,NA,767125.0999999,767128.5,2023-11-02T09:27:24Z,767135.259,NULL,Gelegenheit,wakati,d,NA,NA,NA,NA,sdf,NA,5,NA,NA,NA,NA,NA,NA,NA,NA,NA,NA,NA,NA,NA,NA,NA,NA,NA,NA,NA
c65be,"""Falsch""-Screen",canvas.Screen,3_0_5_0_1_0_2,NA,NA,timeout,4996.9670000001,767129.0999999,767118.689,767135.259,772115.257,772116.29999995,2023-11-02T09:27:29Z,772132.226,NULL,Gelegenheit,wakati,d,NA,NA,NA,NA,sdf,0,5,NA,NA,NA,NA,NA,NA,NA,NA,NA,NA,NA,NA,NA,NA,NA,NA,NA,NA,NA
c65be,deep,flow.Sequence,3_0_5_0_1_0,NA,NA,completion,10509.883,761594.89999986,761588.649,761605.374,772115.257,772116.5999999,2023-11-02T09:27:29Z,772132.226,NULL,Gelegenheit,wakati,d,NA,NA,NA,NA,sdf,NA,5,NA,NA,NA,NA,NA,NA,NA,NA,NA,NA,NA,NA,NA,NA,NA,NA,NA,NA,NA
c65be,shallow,flow.Sequence,3_0_5_0_1_1,NA,NA,skipped,NA,772116.79999995,NA,NA,772115.257,772116.79999995,2023-11-02T09:27:29Z,772132.226,NULL,Gelegenheit,wakati,d,NA,NA,NA,NA,sdf,NA,5,NA,NA,NA,NA,NA,NA,NA,NA,NA,NA,NA,NA,NA,NA,NA,NA,NA,NA,NA
c65be,task,flow.Sequence,3_0_5_0_1,NA,NA,completion,10509.883,761594.89999986,761588.649,761605.374,772115.257,772116.79999995,2023-11-02T09:27:29Z,772132.226,NULL,Gelegenheit,wakati,d,NA,NA,NA,NA,sdf,NA,5,NA,NA,NA,NA,NA,NA,NA,NA,NA,NA,NA,NA,NA,NA,NA,NA,NA,NA,NA
c65be,Deep Question,html.Page,3_0_5_0_2_0_0,NA,NA,form submission,13088.573999952,772117,772115.257,772132.226,785220.79999995,785221,2023-11-02T09:27:42Z,785223.886,NULL,Notfall,dharura,d,NA,NA,NA,dharura,NA,NA,5,NA,NA,NA,NA,NA,NA,NA,NA,NA,NA,NA,NA,NA,NA,NA,NA,NA,NA,NA
c65be,"""Richtig""-Screen",canvas.Screen,3_0_5_0_2_0_1,NA,NA,timeout,4997.401,785224.29999995,785207.679,785223.886,790204.392,790205.5999999,2023-11-02T09:27:47Z,790221.287,NULL,Notfall,dharura,d,NA,NA,NA,NA,sdf,1,5,NA,NA,NA,NA,NA,NA,NA,NA,NA,NA,NA,NA,NA,NA,NA,NA,NA,NA,NA
c65be,"""Falsch""-Screen",canvas.Screen,3_0_5_0_2_0_2,NA,NA,skipped,NA,790211,NA,NA,790204.392,790211.0999999,2023-11-02T09:27:47Z,790221.287,NULL,Notfall,dharura,d,NA,NA,NA,NA,sdf,NA,5,NA,NA,NA,NA,NA,NA,NA,NA,NA,NA,NA,NA,NA,NA,NA,NA,NA,NA,NA
c65be,deep,flow.Sequence,3_0_5_0_2_0,NA,NA,completion,18072.166,772116.89999986,772115.257,772132.226,790204.392,790211.19999981,2023-11-02T09:27:47Z,790221.287,NULL,Notfall,dharura,d,NA,NA,NA,NA,sdf,NA,5,NA,NA,NA,NA,NA,NA,NA,NA,NA,NA,NA,NA,NA,NA,NA,NA,NA,NA,NA
c65be,shallow,flow.Sequence,3_0_5_0_2_1,NA,NA,skipped,NA,790211.29999995,NA,NA,790204.392,790211.29999995,2023-11-02T09:27:47Z,790221.287,NULL,Notfall,dharura,d,NA,NA,NA,NA,sdf,NA,5,NA,NA,NA,NA,NA,NA,NA,NA,NA,NA,NA,NA,NA,NA,NA,NA,NA,NA,NA
c65be,task,flow.Sequence,3_0_5_0_2,NA,NA,completion,18072.166,772116.89999986,772115.257,772132.226,790204.392,790211.39999986,2023-11-02T09:27:47Z,790221.287,NULL,Notfall,dharura,d,NA,NA,NA,NA,sdf,NA,5,NA,NA,NA,NA,NA,NA,NA,NA,NA,NA,NA,NA,NA,NA,NA,NA,NA,NA,NA
c65be,deep,flow.Sequence,3_0_5_0_3_0,NA,NA,skipped,NA,790211.39999986,NA,NA,790204.392,790211.39999986,2023-11-02T09:27:47Z,790221.287,NULL,Ergänzung,kijalizo,s,ulaghai,mustarehe,matangazo,NA,sdf,NA,5,NA,NA,NA,NA,NA,NA,NA,NA,NA,NA,NA,NA,NA,NA,NA,NA,NA,NA,NA
c65be,Shallow Question,html.Page,3_0_5_0_3_1_0,NA,NA,form submission,4731.4129998093,790211.5,790204.392,790221.287,794952.69999981,794953,2023-11-02T09:27:51Z,794968.238,NULL,Ergänzung,kijalizo,s,ulaghai,mustarehe,matangazo,kijalizo,NA,NA,5,NA,NA,NA,NA,NA,NA,NA,NA,NA,NA,NA,NA,NA,NA,NA,NA,NA,NA,NA
c65be,"""Richtig""-Screen",canvas.Screen,3_0_5_0_3_1_1,NA,NA,timeout,4997.007,794955.89999986,794951.562,794968.238,799948.349,799949.5,2023-11-02T09:27:56Z,799965.245,NULL,Ergänzung,kijalizo,s,ulaghai,mustarehe,matangazo,NA,sdf,1,5,NA,NA,NA,NA,NA,NA,NA,NA,NA,NA,NA,NA,NA,NA,NA,NA,NA,NA,NA
c65be,"""Falsch""-Screen",canvas.Screen,3_0_5_0_3_1_2,NA,NA,skipped,NA,799954.5999999,NA,NA,799948.349,799954.69999981,2023-11-02T09:27:56Z,799965.245,NULL,Ergänzung,kijalizo,s,ulaghai,mustarehe,matangazo,NA,sdf,NA,5,NA,NA,NA,NA,NA,NA,NA,NA,NA,NA,NA,NA,NA,NA,NA,NA,NA,NA,NA
c65be,shallow,flow.Sequence,3_0_5_0_3_1,NA,NA,completion,9727.062,790211.5,790204.392,790221.287,799948.349,799954.69999981,2023-11-02T09:27:56Z,799965.245,NULL,Ergänzung,kijalizo,s,ulaghai,mustarehe,matangazo,NA,sdf,NA,5,NA,NA,NA,NA,NA,NA,NA,NA,NA,NA,NA,NA,NA,NA,NA,NA,NA,NA,NA
c65be,task,flow.Sequence,3_0_5_0_3,NA,NA,completion,9727.062,790211.39999986,790204.392,790221.287,799948.349,799954.89999986,2023-11-02T09:27:56Z,799965.245,NULL,Ergänzung,kijalizo,s,ulaghai,mustarehe,matangazo,NA,sdf,NA,5,NA,NA,NA,NA,NA,NA,NA,NA,NA,NA,NA,NA,NA,NA,NA,NA,NA,NA,NA
c65be,deep,flow.Sequence,3_0_5_0_4_0,NA,NA,skipped,NA,799955,NA,NA,799948.349,799955,2023-11-02T09:27:56Z,799965.245,NULL,Verstand,ufahamivu,s,shakawa,hadhari,mhandisi,NA,sdf,NA,5,NA,NA,NA,NA,NA,NA,NA,NA,NA,NA,NA,NA,NA,NA,NA,NA,NA,NA,NA
c65be,Shallow Question,html.Page,3_0_5_0_4_1_0,NA,NA,form submission,4135.755,799955.0999999,799948.349,799965.245,804101,804101.39999986,2023-11-02T09:28:01Z,804112.336,NULL,Verstand,ufahamivu,s,shakawa,hadhari,mhandisi,ufahamivu,NA,NA,5,NA,NA,NA,NA,NA,NA,NA,NA,NA,NA,NA,NA,NA,NA,NA,NA,NA,NA,NA
c65be,"""Richtig""-Screen",canvas.Screen,3_0_5_0_4_1_1,NA,NA,timeout,4997.401,804104.39999986,804096.072,804112.336,809093.154,809094.29999995,2023-11-02T09:28:06Z,809109.737,NULL,Verstand,ufahamivu,s,shakawa,hadhari,mhandisi,NA,sdf,1,5,NA,NA,NA,NA,NA,NA,NA,NA,NA,NA,NA,NA,NA,NA,NA,NA,NA,NA,NA
c65be,"""Falsch""-Screen",canvas.Screen,3_0_5_0_4_1_2,NA,NA,skipped,NA,809099.5999999,NA,NA,809093.154,809099.69999981,2023-11-02T09:28:06Z,809109.737,NULL,Verstand,ufahamivu,s,shakawa,hadhari,mhandisi,NA,sdf,NA,5,NA,NA,NA,NA,NA,NA,NA,NA,NA,NA,NA,NA,NA,NA,NA,NA,NA,NA,NA
c65be,shallow,flow.Sequence,3_0_5_0_4_1,NA,NA,completion,9127.909,799955.0999999,799948.349,799965.245,809093.154,809099.89999986,2023-11-02T09:28:06Z,809109.737,NULL,Verstand,ufahamivu,s,shakawa,hadhari,mhandisi,NA,sdf,NA,5,NA,NA,NA,NA,NA,NA,NA,NA,NA,NA,NA,NA,NA,NA,NA,NA,NA,NA,NA
c65be,task,flow.Sequence,3_0_5_0_4,NA,NA,completion,9127.909,799955,799948.349,799965.245,809093.154,809099.89999986,2023-11-02T09:28:06Z,809109.737,NULL,Verstand,ufahamivu,s,shakawa,hadhari,mhandisi,NA,sdf,NA,5,NA,NA,NA,NA,NA,NA,NA,NA,NA,NA,NA,NA,NA,NA,NA,NA,NA,NA,NA
c65be,Deep Question,html.Page,3_0_5_0_5_0_0,NA,NA,form submission,10865.162999857,809100,809093.154,809109.737,819974.89999986,819975.0999999,2023-11-02T09:28:16Z,819986.125,NULL,Vergnügen,kichekesho,d,NA,NA,NA,kichekesho,NA,NA,5,NA,NA,NA,NA,NA,NA,NA,NA,NA,NA,NA,NA,NA,NA,NA,NA,NA,NA,NA
c65be,"""Richtig""-Screen",canvas.Screen,3_0_5_0_5_0_1,NA,NA,timeout,4997.309,819978.29999995,819969.449,819986.125,824966.29,824967.39999986,2023-11-02T09:28:21Z,824983.434,NULL,Vergnügen,kichekesho,d,NA,NA,NA,NA,sdf,1,5,NA,NA,NA,NA,NA,NA,NA,NA,NA,NA,NA,NA,NA,NA,NA,NA,NA,NA,NA
c65be,"""Falsch""-Screen",canvas.Screen,3_0_5_0_5_0_2,NA,NA,skipped,NA,824973,NA,NA,824966.29,824973.0999999,2023-11-02T09:28:21Z,824983.434,NULL,Vergnügen,kichekesho,d,NA,NA,NA,NA,sdf,NA,5,NA,NA,NA,NA,NA,NA,NA,NA,NA,NA,NA,NA,NA,NA,NA,NA,NA,NA,NA
c65be,deep,flow.Sequence,3_0_5_0_5_0,NA,NA,completion,15856.553,809100,809093.154,809109.737,824966.29,824973.19999981,2023-11-02T09:28:21Z,824983.434,NULL,Vergnügen,kichekesho,d,NA,NA,NA,NA,sdf,NA,5,NA,NA,NA,NA,NA,NA,NA,NA,NA,NA,NA,NA,NA,NA,NA,NA,NA,NA,NA
c65be,shallow,flow.Sequence,3_0_5_0_5_1,NA,NA,skipped,NA,824973.19999981,NA,NA,824966.29,824973.19999981,2023-11-02T09:28:21Z,824983.434,NULL,Vergnügen,kichekesho,d,NA,NA,NA,NA,sdf,NA,5,NA,NA,NA,NA,NA,NA,NA,NA,NA,NA,NA,NA,NA,NA,NA,NA,NA,NA,NA
c65be,task,flow.Sequence,3_0_5_0_5,NA,NA,completion,15856.553,809100,809093.154,809109.737,824966.29,824973.29999995,2023-11-02T09:28:21Z,824983.434,NULL,Vergnügen,kichekesho,d,NA,NA,NA,NA,sdf,NA,5,NA,NA,NA,NA,NA,NA,NA,NA,NA,NA,NA,NA,NA,NA,NA,NA,NA,NA,NA
c65be,Deep Question,html.Page,3_0_5_0_6_0_0,NA,NA,form submission,9865.3659999523,824973.29999995,824966.29,824983.434,834848.79999995,834849,2023-11-02T09:28:31Z,834860.365,NULL,Ausschluss,kutengwa,d,NA,NA,NA,kampage,NA,NA,5,NA,NA,NA,NA,NA,NA,NA,NA,NA,NA,NA,NA,NA,NA,NA,NA,NA,NA,NA
c65be,"""Richtig""-Screen",canvas.Screen,3_0_5_0_6_0_1,NA,NA,skipped,NA,834852.29999995,NA,NA,834848.79999995,834852.39999986,2023-11-02T09:28:31Z,834860.365,NULL,Ausschluss,kutengwa,d,NA,NA,NA,NA,sdf,NA,5,NA,NA,NA,NA,NA,NA,NA,NA,NA,NA,NA,NA,NA,NA,NA,NA,NA,NA,NA
c65be,"""Falsch""-Screen",canvas.Screen,3_0_5_0_6_0_2,NA,NA,timeout,4996.996,834853.29999995,834843.666,834860.365,839840.791,839841.79999995,2023-11-02T09:28:36Z,839857.361,NULL,Ausschluss,kutengwa,d,NA,NA,NA,NA,sdf,0,5,NA,NA,NA,NA,NA,NA,NA,NA,NA,NA,NA,NA,NA,NA,NA,NA,NA,NA,NA
c65be,deep,flow.Sequence,3_0_5_0_6_0,NA,NA,completion,14857.357,824973.29999995,824966.29,824983.434,839840.791,839842.19999981,2023-11-02T09:28:36Z,839857.361,NULL,Ausschluss,kutengwa,d,NA,NA,NA,NA,sdf,NA,5,NA,NA,NA,NA,NA,NA,NA,NA,NA,NA,NA,NA,NA,NA,NA,NA,NA,NA,NA
c65be,shallow,flow.Sequence,3_0_5_0_6_1,NA,NA,skipped,NA,839842.29999995,NA,NA,839840.791,839842.5,2023-11-02T09:28:36Z,839857.361,NULL,Ausschluss,kutengwa,d,NA,NA,NA,NA,sdf,NA,5,NA,NA,NA,NA,NA,NA,NA,NA,NA,NA,NA,NA,NA,NA,NA,NA,NA,NA,NA
c65be,task,flow.Sequence,3_0_5_0_6,NA,NA,completion,14857.357,824973.29999995,824966.29,824983.434,839840.791,839842.79999995,2023-11-02T09:28:36Z,839857.361,NULL,Ausschluss,kutengwa,d,NA,NA,NA,NA,sdf,NA,5,NA,NA,NA,NA,NA,NA,NA,NA,NA,NA,NA,NA,NA,NA,NA,NA,NA,NA,NA
c65be,deep,flow.Sequence,3_0_5_0_7_0,NA,NA,skipped,NA,839842.89999986,NA,NA,839840.791,839843.19999981,2023-11-02T09:28:36Z,839857.361,NULL,Wohlstand,mafanikio,s,chimbuko,kumbuko,mapwaji,NA,sdf,NA,5,NA,NA,NA,NA,NA,NA,NA,NA,NA,NA,NA,NA,NA,NA,NA,NA,NA,NA,NA
c65be,Shallow Question,html.Page,3_0_5_0_7_1_0,NA,NA,form submission,17973.238999905,839843.29999995,839840.791,839857.361,857830.5999999,857830.89999986,2023-11-02T09:28:54Z,857846.198,NULL,Wohlstand,mafanikio,s,chimbuko,kumbuko,mapwaji,mafanikio,NA,NA,5,NA,NA,NA,NA,NA,NA,NA,NA,NA,NA,NA,NA,NA,NA,NA,NA,NA,NA,NA
c65be,"""Richtig""-Screen",canvas.Screen,3_0_5_0_7_1_1,NA,NA,timeout,4997.348,857834.0999999,857829.575,857846.198,862826.492,862827.5,2023-11-02T09:28:59Z,862843.546,NULL,Wohlstand,mafanikio,s,chimbuko,kumbuko,mapwaji,NA,sdf,1,5,NA,NA,NA,NA,NA,NA,NA,NA,NA,NA,NA,NA,NA,NA,NA,NA,NA,NA,NA
c65be,"""Falsch""-Screen",canvas.Screen,3_0_5_0_7_1_2,NA,NA,skipped,NA,862832.39999986,NA,NA,862826.492,862832.5,2023-11-02T09:28:59Z,862843.546,NULL,Wohlstand,mafanikio,s,chimbuko,kumbuko,mapwaji,NA,sdf,NA,5,NA,NA,NA,NA,NA,NA,NA,NA,NA,NA,NA,NA,NA,NA,NA,NA,NA,NA,NA
c65be,shallow,flow.Sequence,3_0_5_0_7_1,NA,NA,completion,22969.131,839843.19999981,839840.791,839857.361,862826.492,862832.69999981,2023-11-02T09:28:59Z,862843.546,NULL,Wohlstand,mafanikio,s,chimbuko,kumbuko,mapwaji,NA,sdf,NA,5,NA,NA,NA,NA,NA,NA,NA,NA,NA,NA,NA,NA,NA,NA,NA,NA,NA,NA,NA
c65be,task,flow.Sequence,3_0_5_0_7,NA,NA,completion,22969.131,839842.89999986,839840.791,839857.361,862826.492,862832.69999981,2023-11-02T09:28:59Z,862843.546,NULL,Wohlstand,mafanikio,s,chimbuko,kumbuko,mapwaji,NA,sdf,NA,5,NA,NA,NA,NA,NA,NA,NA,NA,NA,NA,NA,NA,NA,NA,NA,NA,NA,NA,NA
c65be,block,flow.Loop,3_0_5_0,NA,NA,completion,111881.7,750956,750928.023,750944.792,862826.492,862832.69999981,2023-11-02T09:28:59Z,862843.546,NULL,NA,NA,NA,NA,NA,NA,NA,sdf,NA,5,NA,NA,NA,NA,NA,NA,NA,NA,NA,NA,NA,NA,NA,NA,NA,NA,NA,NA,NA
c65be,weiter,canvas.Screen,3_0_5_1,sdf,keypress(Space),response,1014.1539998093,862832.69999981,862826.492,862843.546,863857.69999981,863859.5,2023-11-02T09:29:00Z,864208.919,NULL,NA,NA,NA,NA,NA,NA,NA,sdf,NA,5,NA,NA,NA,NA,NA,NA,NA,NA,NA,NA,NA,NA,NA,NA,NA,NA,NA,NA,NA
c65be,check continue,flow.Sequence,3_0_5,NA,NA,completion,112912.90799981,750956,750928.023,750944.792,863857.69999981,863859.69999981,2023-11-02T09:29:00Z,864208.919,NULL,NA,NA,NA,NA,NA,NA,NA,sdf,NA,5,NA,NA,NA,NA,NA,NA,NA,NA,NA,NA,NA,NA,NA,NA,NA,NA,NA,NA,NA
c65be,check continue,flow.Sequence,3_0_6,NA,NA,skipped,NA,863891,NA,NA,863857.69999981,863891.0999999,2023-11-02T09:29:00Z,864208.919,NULL,NA,NA,NA,NA,NA,NA,NA,dfs,NA,6,NA,NA,NA,NA,NA,NA,NA,NA,NA,NA,NA,NA,NA,NA,NA,NA,NA,NA,NA
c65be,check continue,flow.Sequence,3_0_7,NA,NA,skipped,NA,863915,NA,NA,863857.69999981,863915.0999999,2023-11-02T09:29:00Z,864208.919,NULL,NA,NA,NA,NA,NA,NA,NA,df,NA,7,NA,NA,NA,NA,NA,NA,NA,NA,NA,NA,NA,NA,NA,NA,NA,NA,NA,NA,NA
c65be,check continue,flow.Sequence,3_0_8,NA,NA,skipped,NA,863933.69999981,NA,NA,863857.69999981,863933.79999995,2023-11-02T09:29:00Z,864208.919,NULL,NA,NA,NA,NA,NA,NA,NA,dfs,NA,8,NA,NA,NA,NA,NA,NA,NA,NA,NA,NA,NA,NA,NA,NA,NA,NA,NA,NA,NA
c65be,check continue,flow.Sequence,3_0_9,NA,NA,skipped,NA,863949,NA,NA,863857.69999981,863949,2023-11-02T09:29:00Z,864208.919,NULL,NA,NA,NA,NA,NA,NA,NA,dsf,NA,9,NA,NA,NA,NA,NA,NA,NA,NA,NA,NA,NA,NA,NA,NA,NA,NA,NA,NA,NA
c65be,check continue,flow.Sequence,3_0_10,NA,NA,skipped,NA,863962.39999986,NA,NA,863857.69999981,863962.5,2023-11-02T09:29:00Z,864208.919,NULL,NA,NA,NA,NA,NA,NA,NA,df,NA,10,NA,NA,NA,NA,NA,NA,NA,NA,NA,NA,NA,NA,NA,NA,NA,NA,NA,NA,NA
c65be,check continue,flow.Sequence,3_0_11,NA,NA,skipped,NA,863976.0999999,NA,NA,863857.69999981,863976.19999981,2023-11-02T09:29:00Z,864208.919,NULL,NA,NA,NA,NA,NA,NA,NA,dfs,NA,11,NA,NA,NA,NA,NA,NA,NA,NA,NA,NA,NA,NA,NA,NA,NA,NA,NA,NA,NA
c65be,check continue,flow.Sequence,3_0_12,NA,NA,skipped,NA,863989.0999999,NA,NA,863857.69999981,863989.0999999,2023-11-02T09:29:00Z,864208.919,NULL,NA,NA,NA,NA,NA,NA,NA,dsf,NA,12,NA,NA,NA,NA,NA,NA,NA,NA,NA,NA,NA,NA,NA,NA,NA,NA,NA,NA,NA
c65be,check continue,flow.Sequence,3_0_13,NA,NA,skipped,NA,864002.69999981,NA,NA,863857.69999981,864002.79999995,2023-11-02T09:29:00Z,864208.919,NULL,NA,NA,NA,NA,NA,NA,NA,dsf,NA,13,NA,NA,NA,NA,NA,NA,NA,NA,NA,NA,NA,NA,NA,NA,NA,NA,NA,NA,NA
c65be,check continue,flow.Sequence,3_0_14,NA,NA,skipped,NA,864016.0999999,NA,NA,863857.69999981,864016.19999981,2023-11-02T09:29:00Z,864208.919,NULL,NA,NA,NA,NA,NA,NA,NA,NA,NA,14,NA,NA,NA,NA,NA,NA,NA,NA,NA,NA,NA,NA,NA,NA,NA,NA,NA,NA,NA
c65be,check continue,flow.Sequence,3_0_15,NA,NA,skipped,NA,864028.5999999,NA,NA,863857.69999981,864028.5999999,2023-11-02T09:29:00Z,864208.919,NULL,NA,NA,NA,NA,NA,NA,NA,NA,NA,15,NA,NA,NA,NA,NA,NA,NA,NA,NA,NA,NA,NA,NA,NA,NA,NA,NA,NA,NA
c65be,check continue,flow.Sequence,3_0_16,NA,NA,skipped,NA,864041.29999995,NA,NA,863857.69999981,864041.29999995,2023-11-02T09:29:00Z,864208.919,NULL,NA,NA,NA,NA,NA,NA,NA,NA,NA,16,NA,NA,NA,NA,NA,NA,NA,NA,NA,NA,NA,NA,NA,NA,NA,NA,NA,NA,NA
c65be,check continue,flow.Sequence,3_0_17,NA,NA,skipped,NA,864053.69999981,NA,NA,863857.69999981,864053.79999995,2023-11-02T09:29:00Z,864208.919,NULL,NA,NA,NA,NA,NA,NA,NA,NA,NA,17,NA,NA,NA,NA,NA,NA,NA,NA,NA,NA,NA,NA,NA,NA,NA,NA,NA,NA,NA
c65be,check continue,flow.Sequence,3_0_18,NA,NA,skipped,NA,864065.89999986,NA,NA,863857.69999981,864066,2023-11-02T09:29:00Z,864208.919,NULL,NA,NA,NA,NA,NA,NA,NA,NA,NA,18,NA,NA,NA,NA,NA,NA,NA,NA,NA,NA,NA,NA,NA,NA,NA,NA,NA,NA,NA
c65be,check continue,flow.Sequence,3_0_19,NA,NA,skipped,NA,864079,NA,NA,863857.69999981,864079,2023-11-02T09:29:00Z,864208.919,NULL,NA,NA,NA,NA,NA,NA,NA,NA,NA,19,NA,NA,NA,NA,NA,NA,NA,NA,NA,NA,NA,NA,NA,NA,NA,NA,NA,NA,NA
c65be,check continue,flow.Sequence,3_0_20,NA,NA,skipped,NA,864091.29999995,NA,NA,863857.69999981,864091.39999986,2023-11-02T09:29:01Z,864208.919,NULL,NA,NA,NA,NA,NA,NA,NA,NA,NA,20,NA,NA,NA,NA,NA,NA,NA,NA,NA,NA,NA,NA,NA,NA,NA,NA,NA,NA,NA
