observation,sender,sender_type,sender_id,response,response_action,ended_on,duration,time_run,time_render,time_show,time_end,time_commit,timestamp,time_switch,german,swahili,enc,distractor1,distractor2,distractor3,response_2,x,correct,distractors,url_vp,url_sess,meta_labjs_version,meta_location,meta_user_agent,meta_platform,meta_language,meta_locale,meta_time_zone,meta_timezone_offset,meta_screen_width,meta_screen_height,meta_scroll_width,meta_scroll_height,meta_window_inner_width,meta_window_inner_height,meta_device_pixel_ratio,meta_labjs_build_flavor,meta_labjs_build_commit
f2a63,Introduction delayed retrieval,canvas.Screen,0,weiter,keypress(Space),response,3920.1010000002,1958.5,1957.933,1974.599,5894.7000000002,5899.8,2023-11-04T10:26:54Z,5907.775,NA,NA,NA,NA,NA,NA,NA,NA,NA,NULL,137,2,20.2.4,https://neurocog.fernuni.ch/studies/vweber/aberisha/delayed/index.html?vp=137&sess=2,"Mozilla/5.0 (Macintosh; Intel Mac OS X 10_15_7) AppleWebKit/537.36 (KHTML, like Gecko) Chrome/118.0.0.0 Safari/537.36",MacIntel,de-DE,de,Europe/Zurich,-60,1680,1050,1380,737,1380,785,2,production,f5b4a49f956347addd546a832a3327688c2c0fef
f2a63,Deep Question,html.Page,1_0_0_0,NA,NA,form submission,16447.525,5900.3,5891.109,5907.775,22355.3,22355.6,2023-11-04T10:27:11Z,22357.632,Vorsorge,tahadhari,d,ufafanuzi,makini,mashambani,mikabe,NA,NA,NULL,NA,NA,NA,NA,NA,NA,NA,NA,NA,NA,NA,NA,NA,NA,NA,NA,NA,NA,NA
f2a63,Save data screen,canvas.Screen,1_0_0_1,NA,NA,timeout,499.98,22356.5,22340.966,22357.632,22840.946,22845.9,2023-11-04T10:27:11Z,22857.612,Vorsorge,tahadhari,d,ufafanuzi,makini,mashambani,NA,NA,0,NULL,NA,NA,NA,NA,NA,NA,NA,NA,NA,NA,NA,NA,NA,NA,NA,NA,NA,NA,NA
f2a63,deep,flow.Sequence,1_0_0,NA,NA,completion,16933.171,5900.2000000002,5891.109,5907.775,22840.946,22846.1,2023-11-04T10:27:11Z,22857.612,Vorsorge,tahadhari,d,ufafanuzi,makini,mashambani,NA,NA,NA,NULL,NA,NA,NA,NA,NA,NA,NA,NA,NA,NA,NA,NA,NA,NA,NA,NA,NA,NA,NA
f2a63,task,flow.Sequence,1_0,NA,NA,completion,16933.171,5900.2000000002,5891.109,5907.775,22840.946,22846.3,2023-11-04T10:27:11Z,22857.612,Vorsorge,tahadhari,d,ufafanuzi,makini,mashambani,NA,NA,NA,NULL,NA,NA,NA,NA,NA,NA,NA,NA,NA,NA,NA,NA,NA,NA,NA,NA,NA,NA,NA
f2a63,Deep Question,html.Page,1_1_0_0,NA,NA,form submission,9356.188,22846.4,22840.946,22857.612,32213.8,32214,2023-11-04T10:27:20Z,32224.159,Konkurrent,mshindani,d,msemaji,mvutaji,kipukusa,mshindani,NA,NA,NULL,NA,NA,NA,NA,NA,NA,NA,NA,NA,NA,NA,NA,NA,NA,NA,NA,NA,NA,NA
f2a63,Save data screen,canvas.Screen,1_1_0_1,NA,NA,timeout,499.98,32214.9,32207.493,32224.159,32707.473,32712.8,2023-11-04T10:27:21Z,32724.139,Konkurrent,mshindani,d,msemaji,mvutaji,kipukusa,NA,NA,1,NULL,NA,NA,NA,NA,NA,NA,NA,NA,NA,NA,NA,NA,NA,NA,NA,NA,NA,NA,NA
f2a63,deep,flow.Sequence,1_1_0,NA,NA,completion,9849.861,22846.4,22840.946,22857.612,32707.473,32713.1,2023-11-04T10:27:21Z,32724.139,Konkurrent,mshindani,d,msemaji,mvutaji,kipukusa,NA,NA,NA,NULL,NA,NA,NA,NA,NA,NA,NA,NA,NA,NA,NA,NA,NA,NA,NA,NA,NA,NA,NA
f2a63,task,flow.Sequence,1_1,NA,NA,completion,9849.861,22846.3,22840.946,22857.612,32707.473,32713.3,2023-11-04T10:27:21Z,32724.139,Konkurrent,mshindani,d,msemaji,mvutaji,kipukusa,NA,NA,NA,NULL,NA,NA,NA,NA,NA,NA,NA,NA,NA,NA,NA,NA,NA,NA,NA,NA,NA,NA,NA
f2a63,Deep Question,html.Page,1_2_0_0,NA,NA,form submission,9832.661,32713.6,32707.473,32724.139,42556.8,42557,2023-11-04T10:27:31Z,42557.337,Auftrag,uagizaji,d,ghanima,kuzingatia,msukani,mickakee,NA,NA,NULL,NA,NA,NA,NA,NA,NA,NA,NA,NA,NA,NA,NA,NA,NA,NA,NA,NA,NA,NA
f2a63,Save data screen,canvas.Screen,1_2_0_1,NA,NA,timeout,499.98,42557.7,42540.671,42557.337,43040.651,43042.8,2023-11-04T10:27:31Z,43057.317,Auftrag,uagizaji,d,ghanima,kuzingatia,msukani,NA,NA,0,NULL,NA,NA,NA,NA,NA,NA,NA,NA,NA,NA,NA,NA,NA,NA,NA,NA,NA,NA,NA
f2a63,deep,flow.Sequence,1_2_0,NA,NA,completion,10316.512,32713.6,32707.473,32724.139,43040.651,43043.1,2023-11-04T10:27:31Z,43057.317,Auftrag,uagizaji,d,ghanima,kuzingatia,msukani,NA,NA,NA,NULL,NA,NA,NA,NA,NA,NA,NA,NA,NA,NA,NA,NA,NA,NA,NA,NA,NA,NA,NA
f2a63,task,flow.Sequence,1_2,NA,NA,completion,10316.512,32713.5,32707.473,32724.139,43040.651,43043.2,2023-11-04T10:27:31Z,43057.317,Auftrag,uagizaji,d,ghanima,kuzingatia,msukani,NA,NA,NA,NULL,NA,NA,NA,NA,NA,NA,NA,NA,NA,NA,NA,NA,NA,NA,NA,NA,NA,NA,NA
f2a63,Deep Question,html.Page,1_3_0_0,NA,NA,form submission,24864.983,43043.4,43040.651,43057.317,67922.3,67922.5,2023-11-04T10:27:56Z,67923.507,Polizist,msongora,d,simanzi,mandhari,nidhamu,msosogne,NA,NA,NULL,NA,NA,NA,NA,NA,NA,NA,NA,NA,NA,NA,NA,NA,NA,NA,NA,NA,NA,NA
f2a63,Save data screen,canvas.Screen,1_3_0_1,NA,NA,timeout,499.98,67924.2,67906.841,67923.507,68406.821,68410.4,2023-11-04T10:27:57Z,68423.487,Polizist,msongora,d,simanzi,mandhari,nidhamu,NA,NA,0,NULL,NA,NA,NA,NA,NA,NA,NA,NA,NA,NA,NA,NA,NA,NA,NA,NA,NA,NA,NA
f2a63,deep,flow.Sequence,1_3_0,NA,NA,completion,25349.504,43043.4,43040.651,43057.317,68406.821,68410.6,2023-11-04T10:27:57Z,68423.487,Polizist,msongora,d,simanzi,mandhari,nidhamu,NA,NA,NA,NULL,NA,NA,NA,NA,NA,NA,NA,NA,NA,NA,NA,NA,NA,NA,NA,NA,NA,NA,NA
f2a63,task,flow.Sequence,1_3,NA,NA,completion,25349.504,43043.3,43040.651,43057.317,68406.821,68410.7,2023-11-04T10:27:57Z,68423.487,Polizist,msongora,d,simanzi,mandhari,nidhamu,NA,NA,NA,NULL,NA,NA,NA,NA,NA,NA,NA,NA,NA,NA,NA,NA,NA,NA,NA,NA,NA,NA,NA
f2a63,Deep Question,html.Page,1_4_0_0,NA,NA,form submission,15533.113,68410.8,68406.821,68423.487,83956.6,83956.8,2023-11-04T10:28:12Z,83956.712,Schönheit,kirembo,s,mahojiano,msisimko,jitihadi,kukile,NA,NA,NULL,NA,NA,NA,NA,NA,NA,NA,NA,NA,NA,NA,NA,NA,NA,NA,NA,NA,NA,NA
f2a63,Save data screen,canvas.Screen,1_4_0_1,NA,NA,timeout,499.98,83958.6,83940.046,83956.712,84440.026,84443.8,2023-11-04T10:28:13Z,84456.692,Schönheit,kirembo,s,mahojiano,msisimko,jitihadi,NA,NA,0,NULL,NA,NA,NA,NA,NA,NA,NA,NA,NA,NA,NA,NA,NA,NA,NA,NA,NA,NA,NA
f2a63,deep,flow.Sequence,1_4_0,NA,NA,completion,16016.539,68410.8,68406.821,68423.487,84440.026,84444.1,2023-11-04T10:28:13Z,84456.692,Schönheit,kirembo,s,mahojiano,msisimko,jitihadi,NA,NA,NA,NULL,NA,NA,NA,NA,NA,NA,NA,NA,NA,NA,NA,NA,NA,NA,NA,NA,NA,NA,NA
f2a63,task,flow.Sequence,1_4,NA,NA,completion,16016.539,68410.8,68406.821,68423.487,84440.026,84444.5,2023-11-04T10:28:13Z,84456.692,Schönheit,kirembo,s,mahojiano,msisimko,jitihadi,NA,NA,NA,NULL,NA,NA,NA,NA,NA,NA,NA,NA,NA,NA,NA,NA,NA,NA,NA,NA,NA,NA,NA
f2a63,Deep Question,html.Page,1_5_0_0,NA,NA,form submission,14765.908,84444.6,84440.026,84456.692,99222.6,99222.8,2023-11-04T10:28:27Z,99223.025,Annäherung,maegesho,s,madahili,kujiamini,mapendekezo,matatuji,NA,NA,NULL,NA,NA,NA,NA,NA,NA,NA,NA,NA,NA,NA,NA,NA,NA,NA,NA,NA,NA,NA
f2a63,Save data screen,canvas.Screen,1_5_0_1,NA,NA,timeout,499.98000000001,99224.9,99206.359,99223.025,99706.339,99710.8,2023-11-04T10:28:28Z,99723.005,Annäherung,maegesho,s,madahili,kujiamini,mapendekezo,NA,NA,0,NULL,NA,NA,NA,NA,NA,NA,NA,NA,NA,NA,NA,NA,NA,NA,NA,NA,NA,NA,NA
f2a63,deep,flow.Sequence,1_5_0,NA,NA,completion,15249.647,84444.6,84440.026,84456.692,99706.339,99711.1,2023-11-04T10:28:28Z,99723.005,Annäherung,maegesho,s,madahili,kujiamini,mapendekezo,NA,NA,NA,NULL,NA,NA,NA,NA,NA,NA,NA,NA,NA,NA,NA,NA,NA,NA,NA,NA,NA,NA,NA
f2a63,task,flow.Sequence,1_5,NA,NA,completion,15249.647,84444.5,84440.026,84456.692,99706.339,99711.2,2023-11-04T10:28:28Z,99723.005,Annäherung,maegesho,s,madahili,kujiamini,mapendekezo,NA,NA,NA,NULL,NA,NA,NA,NA,NA,NA,NA,NA,NA,NA,NA,NA,NA,NA,NA,NA,NA,NA,NA
f2a63,Deep Question,html.Page,1_6_0_0,NA,NA,form submission,14766.395,99711.4,99706.339,99723.005,114489.4,114489.6,2023-11-04T10:28:43Z,114489.606,Widerstand,usulubu,s,kusababisha,mwalimu,mwenendo,dshthni,NA,NA,NULL,NA,NA,NA,NA,NA,NA,NA,NA,NA,NA,NA,NA,NA,NA,NA,NA,NA,NA,NA
f2a63,Save data screen,canvas.Screen,1_6_0_1,NA,NA,timeout,499.98,114491.6,114472.94,114489.606,114972.92,114977,2023-11-04T10:28:43Z,114989.586,Widerstand,usulubu,s,kusababisha,mwalimu,mwenendo,NA,NA,0,NULL,NA,NA,NA,NA,NA,NA,NA,NA,NA,NA,NA,NA,NA,NA,NA,NA,NA,NA,NA
f2a63,deep,flow.Sequence,1_6_0,NA,NA,completion,15249.915,99711.4,99706.339,99723.005,114972.92,114977.2,2023-11-04T10:28:43Z,114989.586,Widerstand,usulubu,s,kusababisha,mwalimu,mwenendo,NA,NA,NA,NULL,NA,NA,NA,NA,NA,NA,NA,NA,NA,NA,NA,NA,NA,NA,NA,NA,NA,NA,NA
f2a63,task,flow.Sequence,1_6,NA,NA,completion,15249.915,99711.3,99706.339,99723.005,114972.92,114977.4,2023-11-04T10:28:43Z,114989.586,Widerstand,usulubu,s,kusababisha,mwalimu,mwenendo,NA,NA,NA,NULL,NA,NA,NA,NA,NA,NA,NA,NA,NA,NA,NA,NA,NA,NA,NA,NA,NA,NA,NA
f2a63,Deep Question,html.Page,1_7_0_0,NA,NA,form submission,11199.614,114977.6,114972.92,114989.586,126189.2,126189.4,2023-11-04T10:28:54Z,126189.393,Beweis,ushahidi,d,marudio,kizuizi,mtendaji,mikabe,NA,NA,NULL,NA,NA,NA,NA,NA,NA,NA,NA,NA,NA,NA,NA,NA,NA,NA,NA,NA,NA,NA
f2a63,Save data screen,canvas.Screen,1_7_0_1,NA,NA,timeout,499.98000000001,126191.5,126172.727,126189.393,126672.707,126678.2,2023-11-04T10:28:55Z,126689.373,Beweis,ushahidi,d,marudio,kizuizi,mtendaji,NA,NA,0,NULL,NA,NA,NA,NA,NA,NA,NA,NA,NA,NA,NA,NA,NA,NA,NA,NA,NA,NA,NA
f2a63,deep,flow.Sequence,1_7_0,NA,NA,completion,11683.121,114977.5,114972.92,114989.586,126672.707,126678.5,2023-11-04T10:28:55Z,126689.373,Beweis,ushahidi,d,marudio,kizuizi,mtendaji,NA,NA,NA,NULL,NA,NA,NA,NA,NA,NA,NA,NA,NA,NA,NA,NA,NA,NA,NA,NA,NA,NA,NA
f2a63,task,flow.Sequence,1_7,NA,NA,completion,11683.121,114977.5,114972.92,114989.586,126672.707,126678.6,2023-11-04T10:28:55Z,126689.373,Beweis,ushahidi,d,marudio,kizuizi,mtendaji,NA,NA,NA,NULL,NA,NA,NA,NA,NA,NA,NA,NA,NA,NA,NA,NA,NA,NA,NA,NA,NA,NA,NA
f2a63,Deep Question,html.Page,1_8_0_0,NA,NA,form submission,21033.127,126678.8,126672.707,126689.373,147722.5,147722.8,2023-11-04T10:29:16Z,147722.392,Ausschluss,kutengwa,d,ununuzi,taratibu,madeni,hunake,NA,NA,NULL,NA,NA,NA,NA,NA,NA,NA,NA,NA,NA,NA,NA,NA,NA,NA,NA,NA,NA,NA
f2a63,Save data screen,canvas.Screen,1_8_0_1,NA,NA,timeout,499.98000000001,147724.7,147705.726,147722.392,148205.706,148210.1,2023-11-04T10:29:16Z,148222.372,Ausschluss,kutengwa,d,ununuzi,taratibu,madeni,NA,NA,0,NULL,NA,NA,NA,NA,NA,NA,NA,NA,NA,NA,NA,NA,NA,NA,NA,NA,NA,NA,NA
f2a63,deep,flow.Sequence,1_8_0,NA,NA,completion,21516.333,126678.8,126672.707,126689.373,148205.706,148210.3,2023-11-04T10:29:16Z,148222.372,Ausschluss,kutengwa,d,ununuzi,taratibu,madeni,NA,NA,NA,NULL,NA,NA,NA,NA,NA,NA,NA,NA,NA,NA,NA,NA,NA,NA,NA,NA,NA,NA,NA
f2a63,task,flow.Sequence,1_8,NA,NA,completion,21516.333,126678.7,126672.707,126689.373,148205.706,148210.4,2023-11-04T10:29:16Z,148222.372,Ausschluss,kutengwa,d,ununuzi,taratibu,madeni,NA,NA,NA,NULL,NA,NA,NA,NA,NA,NA,NA,NA,NA,NA,NA,NA,NA,NA,NA,NA,NA,NA,NA
f2a63,Deep Question,html.Page,1_9_0_0,NA,NA,form submission,25299.928,148210.5,148205.706,148222.372,173522.3,173522.6,2023-11-04T10:29:42Z,173522.134,Wettbewerb,ushindani,d,mapendezi,kichocheo,ubaguzi,muathae,NA,NA,NULL,NA,NA,NA,NA,NA,NA,NA,NA,NA,NA,NA,NA,NA,NA,NA,NA,NA,NA,NA
f2a63,Save data screen,canvas.Screen,1_9_0_1,NA,NA,timeout,499.98000000001,173524.5,173505.468,173522.134,174005.448,174009,2023-11-04T10:29:42Z,174022.114,Wettbewerb,ushindani,d,mapendezi,kichocheo,ubaguzi,NA,NA,0,NULL,NA,NA,NA,NA,NA,NA,NA,NA,NA,NA,NA,NA,NA,NA,NA,NA,NA,NA,NA
f2a63,deep,flow.Sequence,1_9_0,NA,NA,completion,25783.076,148210.5,148205.706,148222.372,174005.448,174009.2,2023-11-04T10:29:42Z,174022.114,Wettbewerb,ushindani,d,mapendezi,kichocheo,ubaguzi,NA,NA,NA,NULL,NA,NA,NA,NA,NA,NA,NA,NA,NA,NA,NA,NA,NA,NA,NA,NA,NA,NA,NA
f2a63,task,flow.Sequence,1_9,NA,NA,completion,25783.076,148210.5,148205.706,148222.372,174005.448,174009.4,2023-11-04T10:29:42Z,174022.114,Wettbewerb,ushindani,d,mapendezi,kichocheo,ubaguzi,NA,NA,NA,NULL,NA,NA,NA,NA,NA,NA,NA,NA,NA,NA,NA,NA,NA,NA,NA,NA,NA,NA,NA
f2a63,Deep Question,html.Page,1_10_0_0,NA,NA,form submission,10283.086,174009.6,174005.448,174022.114,184305.2,184305.4,2023-11-04T10:29:53Z,184305.293,Sympathie,mapendano,s,dhamiria,fungamano,maazimio,muha,NA,NA,NULL,NA,NA,NA,NA,NA,NA,NA,NA,NA,NA,NA,NA,NA,NA,NA,NA,NA,NA,NA
f2a63,Save data screen,canvas.Screen,1_10_0_1,NA,NA,timeout,499.97999999998,184307.2,184288.627,184305.293,184788.607,184792.6,2023-11-04T10:29:53Z,184805.273,Sympathie,mapendano,s,dhamiria,fungamano,maazimio,NA,NA,0,NULL,NA,NA,NA,NA,NA,NA,NA,NA,NA,NA,NA,NA,NA,NA,NA,NA,NA,NA,NA
f2a63,deep,flow.Sequence,1_10_0,NA,NA,completion,10766.493,174009.6,174005.448,174022.114,184788.607,184793,2023-11-04T10:29:53Z,184805.273,Sympathie,mapendano,s,dhamiria,fungamano,maazimio,NA,NA,NA,NULL,NA,NA,NA,NA,NA,NA,NA,NA,NA,NA,NA,NA,NA,NA,NA,NA,NA,NA,NA
f2a63,task,flow.Sequence,1_10,NA,NA,completion,10766.493,174009.5,174005.448,174022.114,184788.607,184793.1,2023-11-04T10:29:53Z,184805.273,Sympathie,mapendano,s,dhamiria,fungamano,maazimio,NA,NA,NA,NULL,NA,NA,NA,NA,NA,NA,NA,NA,NA,NA,NA,NA,NA,NA,NA,NA,NA,NA,NA
f2a63,Deep Question,html.Page,1_11_0_0,NA,NA,form submission,9700.1270000002,184793.2,184788.607,184805.273,194505.4,194505.6,2023-11-04T10:30:03Z,194505.143,Zufall,kikuti,s,kukosekana,uchoraji,leseni,inhikabe,NA,NA,NULL,NA,NA,NA,NA,NA,NA,NA,NA,NA,NA,NA,NA,NA,NA,NA,NA,NA,NA,NA
f2a63,Save data screen,canvas.Screen,1_11_0_1,NA,NA,timeout,499.97999999998,194507.5,194488.477,194505.143,194988.457,194993.6,2023-11-04T10:30:03Z,195005.123,Zufall,kikuti,s,kukosekana,uchoraji,leseni,NA,NA,0,NULL,NA,NA,NA,NA,NA,NA,NA,NA,NA,NA,NA,NA,NA,NA,NA,NA,NA,NA,NA
f2a63,deep,flow.Sequence,1_11_0,NA,NA,completion,10183.184,184793.2,184788.607,184805.273,194988.457,194994,2023-11-04T10:30:03Z,195005.123,Zufall,kikuti,s,kukosekana,uchoraji,leseni,NA,NA,NA,NULL,NA,NA,NA,NA,NA,NA,NA,NA,NA,NA,NA,NA,NA,NA,NA,NA,NA,NA,NA
f2a63,task,flow.Sequence,1_11,NA,NA,completion,10183.184,184793.2,184788.607,184805.273,194988.457,194994.1,2023-11-04T10:30:03Z,195005.123,Zufall,kikuti,s,kukosekana,uchoraji,leseni,NA,NA,NA,NULL,NA,NA,NA,NA,NA,NA,NA,NA,NA,NA,NA,NA,NA,NA,NA,NA,NA,NA,NA
f2a63,Deep Question,html.Page,1_12_0_0,NA,NA,form submission,10733.177,194994.3,194988.457,195005.123,205738.3,205738.5,2023-11-04T10:30:14Z,205738.282,Verstand,ufahamivu,s,shakawa,hadhari,mhandisi,maheke,NA,NA,NULL,NA,NA,NA,NA,NA,NA,NA,NA,NA,NA,NA,NA,NA,NA,NA,NA,NA,NA,NA
f2a63,Save data screen,canvas.Screen,1_12_0_1,NA,NA,timeout,499.97999999998,205740.2,205721.616,205738.282,206221.596,206226.1,2023-11-04T10:30:14Z,206238.262,Verstand,ufahamivu,s,shakawa,hadhari,mhandisi,NA,NA,0,NULL,NA,NA,NA,NA,NA,NA,NA,NA,NA,NA,NA,NA,NA,NA,NA,NA,NA,NA,NA
f2a63,deep,flow.Sequence,1_12_0,NA,NA,completion,11216.473,194994.2,194988.457,195005.123,206221.596,206226.3,2023-11-04T10:30:14Z,206238.262,Verstand,ufahamivu,s,shakawa,hadhari,mhandisi,NA,NA,NA,NULL,NA,NA,NA,NA,NA,NA,NA,NA,NA,NA,NA,NA,NA,NA,NA,NA,NA,NA,NA
f2a63,task,flow.Sequence,1_12,NA,NA,completion,11216.473,194994.2,194988.457,195005.123,206221.596,206226.5,2023-11-04T10:30:14Z,206238.262,Verstand,ufahamivu,s,shakawa,hadhari,mhandisi,NA,NA,NA,NULL,NA,NA,NA,NA,NA,NA,NA,NA,NA,NA,NA,NA,NA,NA,NA,NA,NA,NA,NA
f2a63,Deep Question,html.Page,1_13_0_0,NA,NA,form submission,11349.838,206226.6,206221.596,206238.262,217588.1,217588.2,2023-11-04T10:30:26Z,217588.075,Zuwachs,nyongeza,s,matilaba,udhibiti,hudhurio,kimanke,NA,NA,NULL,NA,NA,NA,NA,NA,NA,NA,NA,NA,NA,NA,NA,NA,NA,NA,NA,NA,NA,NA
f2a63,Save data screen,canvas.Screen,1_13_0_1,NA,NA,timeout,499.97999999998,217590.2,217571.409,217588.075,218071.389,218075.4,2023-11-04T10:30:26Z,218088.055,Zuwachs,nyongeza,s,matilaba,udhibiti,hudhurio,NA,NA,0,NULL,NA,NA,NA,NA,NA,NA,NA,NA,NA,NA,NA,NA,NA,NA,NA,NA,NA,NA,NA
f2a63,deep,flow.Sequence,1_13_0,NA,NA,completion,11833.127,206226.6,206221.596,206238.262,218071.389,218075.7,2023-11-04T10:30:26Z,218088.055,Zuwachs,nyongeza,s,matilaba,udhibiti,hudhurio,NA,NA,NA,NULL,NA,NA,NA,NA,NA,NA,NA,NA,NA,NA,NA,NA,NA,NA,NA,NA,NA,NA,NA
f2a63,task,flow.Sequence,1_13,NA,NA,completion,11833.127,206226.5,206221.596,206238.262,218071.389,218075.8,2023-11-04T10:30:26Z,218088.055,Zuwachs,nyongeza,s,matilaba,udhibiti,hudhurio,NA,NA,NA,NULL,NA,NA,NA,NA,NA,NA,NA,NA,NA,NA,NA,NA,NA,NA,NA,NA,NA,NA,NA
f2a63,Deep Question,html.Page,1_14_0_0,NA,NA,form submission,8999.445,218076,218071.389,218088.055,227087.5,227087.7,2023-11-04T10:30:35Z,227087.95,Symbol,kielezo,s,kinyume,nderemo,utayari,kumbkee,NA,NA,NULL,NA,NA,NA,NA,NA,NA,NA,NA,NA,NA,NA,NA,NA,NA,NA,NA,NA,NA,NA
f2a63,Save data screen,canvas.Screen,1_14_0_1,NA,NA,timeout,499.97999999998,227089.6,227071.284,227087.95,227571.264,227576.1,2023-11-04T10:30:36Z,227587.93,Symbol,kielezo,s,kinyume,nderemo,utayari,NA,NA,0,NULL,NA,NA,NA,NA,NA,NA,NA,NA,NA,NA,NA,NA,NA,NA,NA,NA,NA,NA,NA
f2a63,deep,flow.Sequence,1_14_0,NA,NA,completion,9483.209,218076,218071.389,218088.055,227571.264,227576.4,2023-11-04T10:30:36Z,227587.93,Symbol,kielezo,s,kinyume,nderemo,utayari,NA,NA,NA,NULL,NA,NA,NA,NA,NA,NA,NA,NA,NA,NA,NA,NA,NA,NA,NA,NA,NA,NA,NA
f2a63,task,flow.Sequence,1_14,NA,NA,completion,9483.209,218075.9,218071.389,218088.055,227571.264,227576.6,2023-11-04T10:30:36Z,227587.93,Symbol,kielezo,s,kinyume,nderemo,utayari,NA,NA,NA,NULL,NA,NA,NA,NA,NA,NA,NA,NA,NA,NA,NA,NA,NA,NA,NA,NA,NA,NA,NA
f2a63,Deep Question,html.Page,1_15_0_0,NA,NA,form submission,5049.8700000001,227576.8,227571.264,227587.93,232637.8,232638,2023-11-04T10:30:41Z,232637.728,Gelegenheit,wakati,d,mchanganyiko,kipaumbele,kushuku,haileke,NA,NA,NULL,NA,NA,NA,NA,NA,NA,NA,NA,NA,NA,NA,NA,NA,NA,NA,NA,NA,NA,NA
f2a63,Save data screen,canvas.Screen,1_15_0_1,NA,NA,timeout,499.98000000001,232639.9,232621.062,232637.728,233121.042,233125.8,2023-11-04T10:30:41Z,233137.708,Gelegenheit,wakati,d,mchanganyiko,kipaumbele,kushuku,NA,NA,0,NULL,NA,NA,NA,NA,NA,NA,NA,NA,NA,NA,NA,NA,NA,NA,NA,NA,NA,NA,NA
f2a63,deep,flow.Sequence,1_15_0,NA,NA,completion,5533.112,227576.7,227571.264,227587.93,233121.042,233126.1,2023-11-04T10:30:41Z,233137.708,Gelegenheit,wakati,d,mchanganyiko,kipaumbele,kushuku,NA,NA,NA,NULL,NA,NA,NA,NA,NA,NA,NA,NA,NA,NA,NA,NA,NA,NA,NA,NA,NA,NA,NA
f2a63,task,flow.Sequence,1_15,NA,NA,completion,5533.112,227576.6,227571.264,227587.93,233121.042,233126.2,2023-11-04T10:30:41Z,233137.708,Gelegenheit,wakati,d,mchanganyiko,kipaumbele,kushuku,NA,NA,NA,NULL,NA,NA,NA,NA,NA,NA,NA,NA,NA,NA,NA,NA,NA,NA,NA,NA,NA,NA,NA
f2a63,retrieval block 1 (cued recall),flow.Loop,1,NA,NA,completion,227213.267,5900.1000000001,5891.109,5907.775,233121.042,233126.4,2023-11-04T10:30:41Z,233137.708,NA,NA,NA,NA,NA,NA,NA,NA,NA,NULL,NA,NA,NA,NA,NA,NA,NA,NA,NA,NA,NA,NA,NA,NA,NA,NA,NA,NA,NA
f2a63,Shallow Question,html.Page,2_0_0_0,NA,NA,form submission,8634.292,233126.6,233121.042,233137.708,241772,241772.2,2023-11-04T10:30:50Z,241787.617,Beweis,ushahidi,d,marudio,kizuizi,mtendaji,ushahidi,NA,NA,"c(""distractor1"", ""distractor2"", ""distractor3"")",NA,NA,NA,NA,NA,NA,NA,NA,NA,NA,NA,NA,NA,NA,NA,NA,NA,NA,NA
f2a63,Save data screen,canvas.Screen,2_0_0_1,NA,NA,timeout,499.98000000001,241774,241770.951,241787.617,242270.931,242275.1,2023-11-04T10:30:51Z,242287.597,Beweis,ushahidi,d,marudio,kizuizi,mtendaji,NA,NA,1,"c(""distractor1"", ""distractor2"", ""distractor3"")",NA,NA,NA,NA,NA,NA,NA,NA,NA,NA,NA,NA,NA,NA,NA,NA,NA,NA,NA
f2a63,shallow,flow.Sequence,2_0_0,NA,NA,completion,9133.223,233126.6,233121.042,233137.708,242270.931,242275.5,2023-11-04T10:30:51Z,242287.597,Beweis,ushahidi,d,marudio,kizuizi,mtendaji,NA,NA,NA,"c(""distractor1"", ""distractor2"", ""distractor3"")",NA,NA,NA,NA,NA,NA,NA,NA,NA,NA,NA,NA,NA,NA,NA,NA,NA,NA,NA
f2a63,task,flow.Sequence,2_0,NA,NA,completion,9133.223,233126.6,233121.042,233137.708,242270.931,242275.7,2023-11-04T10:30:51Z,242287.597,Beweis,ushahidi,d,marudio,kizuizi,mtendaji,NA,NA,NA,"c(""distractor1"", ""distractor2"", ""distractor3"")",NA,NA,NA,NA,NA,NA,NA,NA,NA,NA,NA,NA,NA,NA,NA,NA,NA,NA,NA
f2a63,Shallow Question,html.Page,2_1_0_0,NA,NA,form submission,11850.103,242275.8,242270.931,242287.597,254137.7,254137.9,2023-11-04T10:31:02Z,254154.044,Zufall,kikuti,s,kukosekana,uchoraji,leseni,leseni,NA,NA,"c(""distractor1"", ""distractor2"", ""distractor3"")",NA,NA,NA,NA,NA,NA,NA,NA,NA,NA,NA,NA,NA,NA,NA,NA,NA,NA,NA
f2a63,Save data screen,canvas.Screen,2_1_0_1,NA,NA,timeout,500.23500000002,254139.7,254137.378,254154.044,254637.613,254640.1,2023-11-04T10:31:03Z,254654.279,Zufall,kikuti,s,kukosekana,uchoraji,leseni,NA,NA,0,"c(""distractor1"", ""distractor2"", ""distractor3"")",NA,NA,NA,NA,NA,NA,NA,NA,NA,NA,NA,NA,NA,NA,NA,NA,NA,NA,NA
f2a63,shallow,flow.Sequence,2_1_0,NA,NA,completion,12350.016,242275.8,242270.931,242287.597,254637.613,254640.4,2023-11-04T10:31:03Z,254654.279,Zufall,kikuti,s,kukosekana,uchoraji,leseni,NA,NA,NA,"c(""distractor1"", ""distractor2"", ""distractor3"")",NA,NA,NA,NA,NA,NA,NA,NA,NA,NA,NA,NA,NA,NA,NA,NA,NA,NA,NA
f2a63,task,flow.Sequence,2_1,NA,NA,completion,12350.016,242275.8,242270.931,242287.597,254637.613,254640.5,2023-11-04T10:31:03Z,254654.279,Zufall,kikuti,s,kukosekana,uchoraji,leseni,NA,NA,NA,"c(""distractor1"", ""distractor2"", ""distractor3"")",NA,NA,NA,NA,NA,NA,NA,NA,NA,NA,NA,NA,NA,NA,NA,NA,NA,NA,NA
f2a63,Shallow Question,html.Page,2_2_0_0,NA,NA,form submission,10699.821,254640.6,254637.613,254654.279,265354.1,265354.2,2023-11-04T10:31:14Z,265354.106,Wettbewerb,ushindani,d,mapendezi,kichocheo,ubaguzi,ushindani,NA,NA,"c(""distractor1"", ""distractor2"", ""distractor3"")",NA,NA,NA,NA,NA,NA,NA,NA,NA,NA,NA,NA,NA,NA,NA,NA,NA,NA,NA
f2a63,Save data screen,canvas.Screen,2_2_0_1,NA,NA,timeout,499.97999999998,265355.9,265337.44,265354.106,265837.42,265838.5,2023-11-04T10:31:14Z,265854.086,Wettbewerb,ushindani,d,mapendezi,kichocheo,ubaguzi,NA,NA,1,"c(""distractor1"", ""distractor2"", ""distractor3"")",NA,NA,NA,NA,NA,NA,NA,NA,NA,NA,NA,NA,NA,NA,NA,NA,NA,NA,NA
f2a63,shallow,flow.Sequence,2_2_0,NA,NA,completion,11183.141,254640.6,254637.613,254654.279,265837.42,265838.7,2023-11-04T10:31:14Z,265854.086,Wettbewerb,ushindani,d,mapendezi,kichocheo,ubaguzi,NA,NA,NA,"c(""distractor1"", ""distractor2"", ""distractor3"")",NA,NA,NA,NA,NA,NA,NA,NA,NA,NA,NA,NA,NA,NA,NA,NA,NA,NA,NA
f2a63,task,flow.Sequence,2_2,NA,NA,completion,11183.141,254640.6,254637.613,254654.279,265837.42,265838.9,2023-11-04T10:31:14Z,265854.086,Wettbewerb,ushindani,d,mapendezi,kichocheo,ubaguzi,NA,NA,NA,"c(""distractor1"", ""distractor2"", ""distractor3"")",NA,NA,NA,NA,NA,NA,NA,NA,NA,NA,NA,NA,NA,NA,NA,NA,NA,NA,NA
f2a63,Shallow Question,html.Page,2_3_0_0,NA,NA,form submission,8150.3140000001,265838.9,265837.42,265854.086,274004.4,274004.5,2023-11-04T10:31:22Z,274020.426,Sympathie,mapendano,s,dhamiria,fungamano,maazimio,mapendano,NA,NA,"c(""distractor1"", ""distractor2"", ""distractor3"")",NA,NA,NA,NA,NA,NA,NA,NA,NA,NA,NA,NA,NA,NA,NA,NA,NA,NA,NA
f2a63,Save data screen,canvas.Screen,2_3_0_1,NA,NA,timeout,500.23500000004,274006.3,274003.76,274020.426,274503.995,274505.4,2023-11-04T10:31:23Z,274520.661,Sympathie,mapendano,s,dhamiria,fungamano,maazimio,NA,NA,1,"c(""distractor1"", ""distractor2"", ""distractor3"")",NA,NA,NA,NA,NA,NA,NA,NA,NA,NA,NA,NA,NA,NA,NA,NA,NA,NA,NA
f2a63,shallow,flow.Sequence,2_3_0,NA,NA,completion,8649.909,265838.9,265837.42,265854.086,274503.995,274505.6,2023-11-04T10:31:23Z,274520.661,Sympathie,mapendano,s,dhamiria,fungamano,maazimio,NA,NA,NA,"c(""distractor1"", ""distractor2"", ""distractor3"")",NA,NA,NA,NA,NA,NA,NA,NA,NA,NA,NA,NA,NA,NA,NA,NA,NA,NA,NA
f2a63,task,flow.Sequence,2_3,NA,NA,completion,8649.909,265838.9,265837.42,265854.086,274503.995,274505.7,2023-11-04T10:31:23Z,274520.661,Sympathie,mapendano,s,dhamiria,fungamano,maazimio,NA,NA,NA,"c(""distractor1"", ""distractor2"", ""distractor3"")",NA,NA,NA,NA,NA,NA,NA,NA,NA,NA,NA,NA,NA,NA,NA,NA,NA,NA,NA
f2a63,Shallow Question,html.Page,2_4_0_0,NA,NA,form submission,4550.4390000001,274505.9,274503.995,274520.661,279071.1,279071.4,2023-11-04T10:31:27Z,279087.145,Widerstand,usulubu,s,kusababisha,mwalimu,mwenendo,usulubu,NA,NA,"c(""distractor1"", ""distractor2"", ""distractor3"")",NA,NA,NA,NA,NA,NA,NA,NA,NA,NA,NA,NA,NA,NA,NA,NA,NA,NA,NA
f2a63,Save data screen,canvas.Screen,2_4_0_1,NA,NA,timeout,499.97999999998,279073.1,279070.479,279087.145,279570.459,279572.6,2023-11-04T10:31:28Z,279587.125,Widerstand,usulubu,s,kusababisha,mwalimu,mwenendo,NA,NA,1,"c(""distractor1"", ""distractor2"", ""distractor3"")",NA,NA,NA,NA,NA,NA,NA,NA,NA,NA,NA,NA,NA,NA,NA,NA,NA,NA,NA
f2a63,shallow,flow.Sequence,2_4_0,NA,NA,completion,5049.798,274505.9,274503.995,274520.661,279570.459,279572.9,2023-11-04T10:31:28Z,279587.125,Widerstand,usulubu,s,kusababisha,mwalimu,mwenendo,NA,NA,NA,"c(""distractor1"", ""distractor2"", ""distractor3"")",NA,NA,NA,NA,NA,NA,NA,NA,NA,NA,NA,NA,NA,NA,NA,NA,NA,NA,NA
f2a63,task,flow.Sequence,2_4,NA,NA,completion,5049.798,274505.9,274503.995,274520.661,279570.459,279573.1,2023-11-04T10:31:28Z,279587.125,Widerstand,usulubu,s,kusababisha,mwalimu,mwenendo,NA,NA,NA,"c(""distractor1"", ""distractor2"", ""distractor3"")",NA,NA,NA,NA,NA,NA,NA,NA,NA,NA,NA,NA,NA,NA,NA,NA,NA,NA,NA
f2a63,Shallow Question,html.Page,2_5_0_0,NA,NA,form submission,6716.375,279573.1,279570.459,279587.125,286303.5,286303.7,2023-11-04T10:31:35Z,286303.783,Symbol,kielezo,s,kinyume,nderemo,utayari,kielezo,NA,NA,"c(""distractor1"", ""distractor2"", ""distractor3"")",NA,NA,NA,NA,NA,NA,NA,NA,NA,NA,NA,NA,NA,NA,NA,NA,NA,NA,NA
f2a63,Save data screen,canvas.Screen,2_5_0_1,NA,NA,timeout,499.97999999998,286305.5,286287.117,286303.783,286787.097,286789,2023-11-04T10:31:35Z,286803.763,Symbol,kielezo,s,kinyume,nderemo,utayari,NA,NA,1,"c(""distractor1"", ""distractor2"", ""distractor3"")",NA,NA,NA,NA,NA,NA,NA,NA,NA,NA,NA,NA,NA,NA,NA,NA,NA,NA,NA
f2a63,shallow,flow.Sequence,2_5_0,NA,NA,completion,7199.972,279573.1,279570.459,279587.125,286787.097,286789.2,2023-11-04T10:31:35Z,286803.763,Symbol,kielezo,s,kinyume,nderemo,utayari,NA,NA,NA,"c(""distractor1"", ""distractor2"", ""distractor3"")",NA,NA,NA,NA,NA,NA,NA,NA,NA,NA,NA,NA,NA,NA,NA,NA,NA,NA,NA
f2a63,task,flow.Sequence,2_5,NA,NA,completion,7199.972,279573.1,279570.459,279587.125,286787.097,286789.4,2023-11-04T10:31:35Z,286803.763,Symbol,kielezo,s,kinyume,nderemo,utayari,NA,NA,NA,"c(""distractor1"", ""distractor2"", ""distractor3"")",NA,NA,NA,NA,NA,NA,NA,NA,NA,NA,NA,NA,NA,NA,NA,NA,NA,NA,NA
f2a63,Shallow Question,html.Page,2_6_0_0,NA,NA,form submission,11000.637,286789.4,286787.097,286803.763,297804.4,297804.7,2023-11-04T10:31:46Z,297820.245,Zuwachs,nyongeza,s,matilaba,udhibiti,hudhurio,nyongeza,NA,NA,"c(""distractor1"", ""distractor2"", ""distractor3"")",NA,NA,NA,NA,NA,NA,NA,NA,NA,NA,NA,NA,NA,NA,NA,NA,NA,NA,NA
f2a63,Save data screen,canvas.Screen,2_6_0_1,NA,NA,timeout,499.97999999998,297806.7,297803.579,297820.245,298303.559,298305.1,2023-11-04T10:31:47Z,298320.225,Zuwachs,nyongeza,s,matilaba,udhibiti,hudhurio,NA,NA,1,"c(""distractor1"", ""distractor2"", ""distractor3"")",NA,NA,NA,NA,NA,NA,NA,NA,NA,NA,NA,NA,NA,NA,NA,NA,NA,NA,NA
f2a63,shallow,flow.Sequence,2_6_0,NA,NA,completion,11499.796,286789.4,286787.097,286803.763,298303.559,298305.4,2023-11-04T10:31:47Z,298320.225,Zuwachs,nyongeza,s,matilaba,udhibiti,hudhurio,NA,NA,NA,"c(""distractor1"", ""distractor2"", ""distractor3"")",NA,NA,NA,NA,NA,NA,NA,NA,NA,NA,NA,NA,NA,NA,NA,NA,NA,NA,NA
f2a63,task,flow.Sequence,2_6,NA,NA,completion,11499.796,286789.4,286787.097,286803.763,298303.559,298305.5,2023-11-04T10:31:47Z,298320.225,Zuwachs,nyongeza,s,matilaba,udhibiti,hudhurio,NA,NA,NA,"c(""distractor1"", ""distractor2"", ""distractor3"")",NA,NA,NA,NA,NA,NA,NA,NA,NA,NA,NA,NA,NA,NA,NA,NA,NA,NA,NA
f2a63,Shallow Question,html.Page,2_7_0_0,NA,NA,form submission,15583.475,298305.7,298303.559,298320.225,313903.7,313904,2023-11-04T10:32:02Z,313919.942,Ausschluss,kutengwa,d,ununuzi,taratibu,madeni,kutengwa,NA,NA,"c(""distractor1"", ""distractor2"", ""distractor3"")",NA,NA,NA,NA,NA,NA,NA,NA,NA,NA,NA,NA,NA,NA,NA,NA,NA,NA,NA
f2a63,Save data screen,canvas.Screen,2_7_0_1,NA,NA,timeout,499.98000000004,313906,313903.276,313919.942,314403.256,314407.9,2023-11-04T10:32:03Z,314419.922,Ausschluss,kutengwa,d,ununuzi,taratibu,madeni,NA,NA,1,"c(""distractor1"", ""distractor2"", ""distractor3"")",NA,NA,NA,NA,NA,NA,NA,NA,NA,NA,NA,NA,NA,NA,NA,NA,NA,NA,NA
f2a63,shallow,flow.Sequence,2_7_0,NA,NA,completion,16083.031,298305.7,298303.559,298320.225,314403.256,314408.2,2023-11-04T10:32:03Z,314419.922,Ausschluss,kutengwa,d,ununuzi,taratibu,madeni,NA,NA,NA,"c(""distractor1"", ""distractor2"", ""distractor3"")",NA,NA,NA,NA,NA,NA,NA,NA,NA,NA,NA,NA,NA,NA,NA,NA,NA,NA,NA
f2a63,task,flow.Sequence,2_7,NA,NA,completion,16083.031,298305.6,298303.559,298320.225,314403.256,314408.4,2023-11-04T10:32:03Z,314419.922,Ausschluss,kutengwa,d,ununuzi,taratibu,madeni,NA,NA,NA,"c(""distractor1"", ""distractor2"", ""distractor3"")",NA,NA,NA,NA,NA,NA,NA,NA,NA,NA,NA,NA,NA,NA,NA,NA,NA,NA,NA
f2a63,Shallow Question,html.Page,2_8_0_0,NA,NA,form submission,8250.378,314408.5,314403.256,314419.922,322670.3,322670.6,2023-11-04T10:32:11Z,322686.513,Polizist,msongora,d,simanzi,mandhari,nidhamu,msongora,NA,NA,"c(""distractor1"", ""distractor2"", ""distractor3"")",NA,NA,NA,NA,NA,NA,NA,NA,NA,NA,NA,NA,NA,NA,NA,NA,NA,NA,NA
f2a63,Save data screen,canvas.Screen,2_8_0_1,NA,NA,timeout,499.98000000004,322672.2,322669.847,322686.513,323169.827,323173.7,2023-11-04T10:32:11Z,323186.493,Polizist,msongora,d,simanzi,mandhari,nidhamu,NA,NA,1,"c(""distractor1"", ""distractor2"", ""distractor3"")",NA,NA,NA,NA,NA,NA,NA,NA,NA,NA,NA,NA,NA,NA,NA,NA,NA,NA,NA
f2a63,shallow,flow.Sequence,2_8_0,NA,NA,completion,8749.905,314408.5,314403.256,314419.922,323169.827,323174,2023-11-04T10:32:11Z,323186.493,Polizist,msongora,d,simanzi,mandhari,nidhamu,NA,NA,NA,"c(""distractor1"", ""distractor2"", ""distractor3"")",NA,NA,NA,NA,NA,NA,NA,NA,NA,NA,NA,NA,NA,NA,NA,NA,NA,NA,NA
f2a63,task,flow.Sequence,2_8,NA,NA,completion,8749.905,314408.4,314403.256,314419.922,323169.827,323174.1,2023-11-04T10:32:11Z,323186.493,Polizist,msongora,d,simanzi,mandhari,nidhamu,NA,NA,NA,"c(""distractor1"", ""distractor2"", ""distractor3"")",NA,NA,NA,NA,NA,NA,NA,NA,NA,NA,NA,NA,NA,NA,NA,NA,NA,NA,NA
f2a63,Shallow Question,html.Page,2_9_0_0,NA,NA,form submission,15067.607,323174.2,323169.827,323186.493,338254.1,338254.2,2023-11-04T10:32:27Z,338269.477,Schönheit,kirembo,s,mahojiano,msisimko,jitihadi,kirembo,NA,NA,"c(""distractor1"", ""distractor2"", ""distractor3"")",NA,NA,NA,NA,NA,NA,NA,NA,NA,NA,NA,NA,NA,NA,NA,NA,NA,NA,NA
f2a63,Save data screen,canvas.Screen,2_9_0_1,NA,NA,timeout,500.23800000001,338256.1,338252.811,338269.477,338753.049,338754.7,2023-11-04T10:32:27Z,338769.715,Schönheit,kirembo,s,mahojiano,msisimko,jitihadi,NA,NA,1,"c(""distractor1"", ""distractor2"", ""distractor3"")",NA,NA,NA,NA,NA,NA,NA,NA,NA,NA,NA,NA,NA,NA,NA,NA,NA,NA,NA
f2a63,shallow,flow.Sequence,2_9_0,NA,NA,completion,15566.556,323174.2,323169.827,323186.493,338753.049,338755,2023-11-04T10:32:27Z,338769.715,Schönheit,kirembo,s,mahojiano,msisimko,jitihadi,NA,NA,NA,"c(""distractor1"", ""distractor2"", ""distractor3"")",NA,NA,NA,NA,NA,NA,NA,NA,NA,NA,NA,NA,NA,NA,NA,NA,NA,NA,NA
f2a63,task,flow.Sequence,2_9,NA,NA,completion,15566.556,323174.2,323169.827,323186.493,338753.049,338755.1,2023-11-04T10:32:27Z,338769.715,Schönheit,kirembo,s,mahojiano,msisimko,jitihadi,NA,NA,NA,"c(""distractor1"", ""distractor2"", ""distractor3"")",NA,NA,NA,NA,NA,NA,NA,NA,NA,NA,NA,NA,NA,NA,NA,NA,NA,NA,NA
f2a63,Shallow Question,html.Page,2_10_0_0,NA,NA,form submission,23283.485,338755.2,338753.049,338769.715,362053.2,362053.4,2023-11-04T10:32:50Z,362069.307,Annäherung,maegesho,s,madahili,kujiamini,mapendekezo,maegesho,NA,NA,"c(""distractor1"", ""distractor2"", ""distractor3"")",NA,NA,NA,NA,NA,NA,NA,NA,NA,NA,NA,NA,NA,NA,NA,NA,NA,NA,NA
f2a63,Save data screen,canvas.Screen,2_10_0_1,NA,NA,timeout,499.98000000004,362055.3,362052.641,362069.307,362552.621,362553.9,2023-11-04T10:32:51Z,362569.287,Annäherung,maegesho,s,madahili,kujiamini,mapendekezo,NA,NA,1,"c(""distractor1"", ""distractor2"", ""distractor3"")",NA,NA,NA,NA,NA,NA,NA,NA,NA,NA,NA,NA,NA,NA,NA,NA,NA,NA,NA
f2a63,shallow,flow.Sequence,2_10_0,NA,NA,completion,23782.906,338755.2,338753.049,338769.715,362552.621,362554.2,2023-11-04T10:32:51Z,362569.287,Annäherung,maegesho,s,madahili,kujiamini,mapendekezo,NA,NA,NA,"c(""distractor1"", ""distractor2"", ""distractor3"")",NA,NA,NA,NA,NA,NA,NA,NA,NA,NA,NA,NA,NA,NA,NA,NA,NA,NA,NA
f2a63,task,flow.Sequence,2_10,NA,NA,completion,23782.906,338755.1,338753.049,338769.715,362552.621,362554.4,2023-11-04T10:32:51Z,362569.287,Annäherung,maegesho,s,madahili,kujiamini,mapendekezo,NA,NA,NA,"c(""distractor1"", ""distractor2"", ""distractor3"")",NA,NA,NA,NA,NA,NA,NA,NA,NA,NA,NA,NA,NA,NA,NA,NA,NA,NA,NA
f2a63,Shallow Question,html.Page,2_11_0_0,NA,NA,form submission,10183.713,362554.4,362552.621,362569.287,372753,372753.2,2023-11-04T10:33:01Z,372769.142,Verstand,ufahamivu,s,shakawa,hadhari,mhandisi,ufahamivu,NA,NA,"c(""distractor1"", ""distractor2"", ""distractor3"")",NA,NA,NA,NA,NA,NA,NA,NA,NA,NA,NA,NA,NA,NA,NA,NA,NA,NA,NA
f2a63,Save data screen,canvas.Screen,2_11_0_1,NA,NA,timeout,499.97999999998,372755.1,372752.476,372769.142,373252.456,373255.8,2023-11-04T10:33:02Z,373269.122,Verstand,ufahamivu,s,shakawa,hadhari,mhandisi,NA,NA,1,"c(""distractor1"", ""distractor2"", ""distractor3"")",NA,NA,NA,NA,NA,NA,NA,NA,NA,NA,NA,NA,NA,NA,NA,NA,NA,NA,NA
f2a63,shallow,flow.Sequence,2_11_0,NA,NA,completion,10683.169,362554.4,362552.621,362569.287,373252.456,373256.1,2023-11-04T10:33:02Z,373269.122,Verstand,ufahamivu,s,shakawa,hadhari,mhandisi,NA,NA,NA,"c(""distractor1"", ""distractor2"", ""distractor3"")",NA,NA,NA,NA,NA,NA,NA,NA,NA,NA,NA,NA,NA,NA,NA,NA,NA,NA,NA
f2a63,task,flow.Sequence,2_11,NA,NA,completion,10683.169,362554.4,362552.621,362569.287,373252.456,373256.2,2023-11-04T10:33:02Z,373269.122,Verstand,ufahamivu,s,shakawa,hadhari,mhandisi,NA,NA,NA,"c(""distractor1"", ""distractor2"", ""distractor3"")",NA,NA,NA,NA,NA,NA,NA,NA,NA,NA,NA,NA,NA,NA,NA,NA,NA,NA,NA
f2a63,Shallow Question,html.Page,2_12_0_0,NA,NA,form submission,21484.078,373256.3,373252.456,373269.122,394753.2,394753.4,2023-11-04T10:33:23Z,394768.797,Gelegenheit,wakati,d,mchanganyiko,kipaumbele,kushuku,mchanganyiko,NA,NA,"c(""distractor1"", ""distractor2"", ""distractor3"")",NA,NA,NA,NA,NA,NA,NA,NA,NA,NA,NA,NA,NA,NA,NA,NA,NA,NA,NA
f2a63,Save data screen,canvas.Screen,2_12_0_1,NA,NA,timeout,499.97999999998,394755.2,394752.131,394768.797,395252.111,395254.9,2023-11-04T10:33:24Z,395268.777,Gelegenheit,wakati,d,mchanganyiko,kipaumbele,kushuku,NA,NA,0,"c(""distractor1"", ""distractor2"", ""distractor3"")",NA,NA,NA,NA,NA,NA,NA,NA,NA,NA,NA,NA,NA,NA,NA,NA,NA,NA,NA
f2a63,shallow,flow.Sequence,2_12_0,NA,NA,completion,21982.989,373256.3,373252.456,373269.122,395252.111,395255.2,2023-11-04T10:33:24Z,395268.777,Gelegenheit,wakati,d,mchanganyiko,kipaumbele,kushuku,NA,NA,NA,"c(""distractor1"", ""distractor2"", ""distractor3"")",NA,NA,NA,NA,NA,NA,NA,NA,NA,NA,NA,NA,NA,NA,NA,NA,NA,NA,NA
f2a63,task,flow.Sequence,2_12,NA,NA,completion,21982.989,373256.2,373252.456,373269.122,395252.111,395255.3,2023-11-04T10:33:24Z,395268.777,Gelegenheit,wakati,d,mchanganyiko,kipaumbele,kushuku,NA,NA,NA,"c(""distractor1"", ""distractor2"", ""distractor3"")",NA,NA,NA,NA,NA,NA,NA,NA,NA,NA,NA,NA,NA,NA,NA,NA,NA,NA,NA
f2a63,Shallow Question,html.Page,2_13_0_0,NA,NA,form submission,6850.723,395255.4,395252.111,395268.777,402119.5,402119.8,2023-11-04T10:33:30Z,402135.427,Auftrag,uagizaji,d,ghanima,kuzingatia,msukani,uagizaji,NA,NA,"c(""distractor1"", ""distractor2"", ""distractor3"")",NA,NA,NA,NA,NA,NA,NA,NA,NA,NA,NA,NA,NA,NA,NA,NA,NA,NA,NA
f2a63,Save data screen,canvas.Screen,2_13_0_1,NA,NA,timeout,499.97999999998,402121.7,402118.761,402135.427,402618.741,402620.9,2023-11-04T10:33:31Z,402635.407,Auftrag,uagizaji,d,ghanima,kuzingatia,msukani,NA,NA,1,"c(""distractor1"", ""distractor2"", ""distractor3"")",NA,NA,NA,NA,NA,NA,NA,NA,NA,NA,NA,NA,NA,NA,NA,NA,NA,NA,NA
f2a63,shallow,flow.Sequence,2_13_0,NA,NA,completion,7349.964,395255.4,395252.111,395268.777,402618.741,402621.2,2023-11-04T10:33:31Z,402635.407,Auftrag,uagizaji,d,ghanima,kuzingatia,msukani,NA,NA,NA,"c(""distractor1"", ""distractor2"", ""distractor3"")",NA,NA,NA,NA,NA,NA,NA,NA,NA,NA,NA,NA,NA,NA,NA,NA,NA,NA,NA
f2a63,task,flow.Sequence,2_13,NA,NA,completion,7349.964,395255.4,395252.111,395268.777,402618.741,402621.3,2023-11-04T10:33:31Z,402635.407,Auftrag,uagizaji,d,ghanima,kuzingatia,msukani,NA,NA,NA,"c(""distractor1"", ""distractor2"", ""distractor3"")",NA,NA,NA,NA,NA,NA,NA,NA,NA,NA,NA,NA,NA,NA,NA,NA,NA,NA,NA
f2a63,Shallow Question,html.Page,2_14_0_0,NA,NA,form submission,5367.6930000001,402621.4,402618.741,402635.407,408003.1,408003.4,2023-11-04T10:33:36Z,408018.525,Konkurrent,mshindani,d,msemaji,mvutaji,kipukusa,mshindani,NA,NA,"c(""distractor1"", ""distractor2"", ""distractor3"")",NA,NA,NA,NA,NA,NA,NA,NA,NA,NA,NA,NA,NA,NA,NA,NA,NA,NA,NA
f2a63,Save data screen,canvas.Screen,2_14_0_1,NA,NA,timeout,499.97999999998,408005.1,408001.859,408018.525,408501.839,408505,2023-11-04T10:33:37Z,408518.505,Konkurrent,mshindani,d,msemaji,mvutaji,kipukusa,NA,NA,1,"c(""distractor1"", ""distractor2"", ""distractor3"")",NA,NA,NA,NA,NA,NA,NA,NA,NA,NA,NA,NA,NA,NA,NA,NA,NA,NA,NA
f2a63,shallow,flow.Sequence,2_14_0,NA,NA,completion,5866.432,402621.4,402618.741,402635.407,408501.839,408505.2,2023-11-04T10:33:37Z,408518.505,Konkurrent,mshindani,d,msemaji,mvutaji,kipukusa,NA,NA,NA,"c(""distractor1"", ""distractor2"", ""distractor3"")",NA,NA,NA,NA,NA,NA,NA,NA,NA,NA,NA,NA,NA,NA,NA,NA,NA,NA,NA
f2a63,task,flow.Sequence,2_14,NA,NA,completion,5866.432,402621.4,402618.741,402635.407,408501.839,408505.4,2023-11-04T10:33:37Z,408518.505,Konkurrent,mshindani,d,msemaji,mvutaji,kipukusa,NA,NA,NA,"c(""distractor1"", ""distractor2"", ""distractor3"")",NA,NA,NA,NA,NA,NA,NA,NA,NA,NA,NA,NA,NA,NA,NA,NA,NA,NA,NA
f2a63,Shallow Question,html.Page,2_15_0_0,NA,NA,form submission,10934.095,408505.6,408501.839,408518.505,419452.6,419452.7,2023-11-04T10:33:48Z,419468.321,Vorsorge,tahadhari,d,ufafanuzi,makini,mashambani,tahadhari,NA,NA,"c(""distractor1"", ""distractor2"", ""distractor3"")",NA,NA,NA,NA,NA,NA,NA,NA,NA,NA,NA,NA,NA,NA,NA,NA,NA,NA,NA
f2a63,Save data screen,canvas.Screen,2_15_0_1,NA,NA,timeout,499.97999999998,419454.6,419451.655,419468.321,419951.635,419954.7,2023-11-04T10:33:48Z,419968.301,Vorsorge,tahadhari,d,ufafanuzi,makini,mashambani,NA,NA,1,"c(""distractor1"", ""distractor2"", ""distractor3"")",NA,NA,NA,NA,NA,NA,NA,NA,NA,NA,NA,NA,NA,NA,NA,NA,NA,NA,NA
f2a63,shallow,flow.Sequence,2_15_0,NA,NA,completion,11433.13,408505.6,408501.839,408518.505,419951.635,419955,2023-11-04T10:33:48Z,419968.301,Vorsorge,tahadhari,d,ufafanuzi,makini,mashambani,NA,NA,NA,"c(""distractor1"", ""distractor2"", ""distractor3"")",NA,NA,NA,NA,NA,NA,NA,NA,NA,NA,NA,NA,NA,NA,NA,NA,NA,NA,NA
f2a63,task,flow.Sequence,2_15,NA,NA,completion,11433.13,408505.5,408501.839,408518.505,419951.635,419955.2,2023-11-04T10:33:48Z,419968.301,Vorsorge,tahadhari,d,ufafanuzi,makini,mashambani,NA,NA,NA,"c(""distractor1"", ""distractor2"", ""distractor3"")",NA,NA,NA,NA,NA,NA,NA,NA,NA,NA,NA,NA,NA,NA,NA,NA,NA,NA,NA
f2a63,retrieval block 2 (multiple choice),flow.Loop,2,NA,NA,completion,186813.927,233126.6,233121.042,233137.708,419951.635,419955.3,2023-11-04T10:33:48Z,419968.301,NA,NA,NA,NA,NA,NA,NA,NA,NA,"c(""distractor1"", ""distractor2"", ""distractor3"")",NA,NA,NA,NA,NA,NA,NA,NA,NA,NA,NA,NA,NA,NA,NA,NA,NA,NA,NA
f2a63,End,canvas.Screen,3,NA,keypress(Space),response,2771.5990000002,419955.4,419951.635,419968.301,422739.9,422744.8,2023-11-04T10:33:51Z,422751.796,NA,NA,NA,NA,NA,NA,NA,NA,NA,NULL,NA,NA,NA,NA,NA,NA,NA,NA,NA,NA,NA,NA,NA,NA,NA,NA,NA,NA,NA
f2a63,root,flow.Sequence,NA,NA,NA,completion,420765.301,1958.3,1957.933,1974.599,422739.9,422745.3,2023-11-04T10:33:51Z,422751.796,NA,NA,NA,NA,NA,NA,NA,NA,NA,NULL,NA,NA,NA,NA,NA,NA,NA,NA,NA,NA,NA,NA,NA,NA,NA,NA,NA,NA,NA
