observation,sender,sender_type,sender_id,response,response_action,ended_on,duration,time_run,time_render,time_show,time_end,time_commit,timestamp,time_switch,german,swahili,enc,distractor1,distractor2,distractor3,response_2,x,correct,distractors,url_vp,url_sess,meta_labjs_version,meta_location,meta_user_agent,meta_platform,meta_language,meta_locale,meta_time_zone,meta_timezone_offset,meta_screen_width,meta_screen_height,meta_scroll_width,meta_scroll_height,meta_window_inner_width,meta_window_inner_height,meta_device_pixel_ratio,meta_labjs_build_flavor,meta_labjs_build_commit
86400000,Introduction delayed retrieval,canvas.Screen,0,weiter,keypress(Space),response,13459,569,571,595,14030,14011,2023-08-08T17:31:13Z,14048,NA,NA,NA,NA,NA,NA,NA,NA,NA,NULL,176,2,20.2.4,https://neurocog.fernuni.ch/studies/vweber/sliechti/delayed%203/index.html?vp=176&sess=2,"Mozilla/5.0 (Macintosh; Intel Mac OS X 10_15_7) AppleWebKit/605.1.15 (KHTML, like Gecko) Version/16.5.2 Safari/605.1.15",MacIntel,de-DE,de-DE,Europe/Zurich,-120,1440,900,1440,749,1440,797,2,production,f5b4a49f956347addd546a832a3327688c2c0fef
86400000,Deep Question,html.Page,1_0_0_0,NA,NA,form submission,12725,14012,14032,14048,26773,26773,2023-08-08T17:31:26Z,26798,Betrüger,mdanganyifu,d,mwanamuziki,wastani,mahakama,m,NA,NA,NULL,NA,NA,NA,NA,NA,NA,NA,NA,NA,NA,NA,NA,NA,NA,NA,NA,NA,NA,NA
86400000,Save data screen,canvas.Screen,1_0_0_1,NA,NA,timeout,500,26774,26782,26798,27282,27284,2023-08-08T17:31:26Z,27298,Betrüger,mdanganyifu,d,mwanamuziki,wastani,mahakama,NA,NA,0,NULL,NA,NA,NA,NA,NA,NA,NA,NA,NA,NA,NA,NA,NA,NA,NA,NA,NA,NA,NA
86400000,deep,flow.Sequence,1_0_0,NA,NA,completion,13234,14012,14032,14048,27282,27285,2023-08-08T17:31:26Z,27298,Betrüger,mdanganyifu,d,mwanamuziki,wastani,mahakama,NA,NA,NA,NULL,NA,NA,NA,NA,NA,NA,NA,NA,NA,NA,NA,NA,NA,NA,NA,NA,NA,NA,NA
86400000,task,flow.Sequence,1_0,NA,NA,completion,13234,14012,14032,14048,27282,27285,2023-08-08T17:31:26Z,27298,Betrüger,mdanganyifu,d,mwanamuziki,wastani,mahakama,NA,NA,NA,NULL,NA,NA,NA,NA,NA,NA,NA,NA,NA,NA,NA,NA,NA,NA,NA,NA,NA,NA,NA
86400000,Deep Question,html.Page,1_1_0_0,NA,NA,form submission,17554,27285,27282,27298,44852,44853,2023-08-08T17:31:44Z,44883,Begegnung,kukutana,d,mmasihiya,mpiganaji,husiano,kukutana,NA,NA,NULL,NA,NA,NA,NA,NA,NA,NA,NA,NA,NA,NA,NA,NA,NA,NA,NA,NA,NA,NA
86400000,Save data screen,canvas.Screen,1_1_0_1,NA,NA,timeout,500,44853,44866,44883,45366,45367,2023-08-08T17:31:44Z,45383,Begegnung,kukutana,d,mmasihiya,mpiganaji,husiano,NA,NA,1,NULL,NA,NA,NA,NA,NA,NA,NA,NA,NA,NA,NA,NA,NA,NA,NA,NA,NA,NA,NA
86400000,deep,flow.Sequence,1_1_0,NA,NA,completion,18068,27285,27282,27298,45366,45367,2023-08-08T17:31:44Z,45383,Begegnung,kukutana,d,mmasihiya,mpiganaji,husiano,NA,NA,NA,NULL,NA,NA,NA,NA,NA,NA,NA,NA,NA,NA,NA,NA,NA,NA,NA,NA,NA,NA,NA
86400000,task,flow.Sequence,1_1,NA,NA,completion,18068,27285,27282,27298,45366,45367,2023-08-08T17:31:44Z,45383,Begegnung,kukutana,d,mmasihiya,mpiganaji,husiano,NA,NA,NA,NULL,NA,NA,NA,NA,NA,NA,NA,NA,NA,NA,NA,NA,NA,NA,NA,NA,NA,NA,NA
86400000,Deep Question,html.Page,1_2_0_0,NA,NA,form submission,8488,45367,45366,45383,53871,53871,2023-08-08T17:31:53Z,53900,Fleisch,mshakiki,s,kizunguzungu,mshikamano,angusho,mbarskik,NA,NA,NULL,NA,NA,NA,NA,NA,NA,NA,NA,NA,NA,NA,NA,NA,NA,NA,NA,NA,NA,NA
86400000,Save data screen,canvas.Screen,1_2_0_1,NA,NA,timeout,500,53871,53883,53900,54383,54384,2023-08-08T17:31:53Z,54400,Fleisch,mshakiki,s,kizunguzungu,mshikamano,angusho,NA,NA,0,NULL,NA,NA,NA,NA,NA,NA,NA,NA,NA,NA,NA,NA,NA,NA,NA,NA,NA,NA,NA
86400000,deep,flow.Sequence,1_2_0,NA,NA,completion,9000,45367,45366,45383,54383,54385,2023-08-08T17:31:53Z,54400,Fleisch,mshakiki,s,kizunguzungu,mshikamano,angusho,NA,NA,NA,NULL,NA,NA,NA,NA,NA,NA,NA,NA,NA,NA,NA,NA,NA,NA,NA,NA,NA,NA,NA
86400000,task,flow.Sequence,1_2,NA,NA,completion,9000,45367,45366,45383,54383,54385,2023-08-08T17:31:53Z,54400,Fleisch,mshakiki,s,kizunguzungu,mshikamano,angusho,NA,NA,NA,NULL,NA,NA,NA,NA,NA,NA,NA,NA,NA,NA,NA,NA,NA,NA,NA,NA,NA,NA,NA
86400000,Deep Question,html.Page,1_3_0_0,NA,NA,form submission,12357,54385,54383,54400,66757,66758,2023-08-08T17:32:06Z,66784,Papier,karatasi,s,uchambuzi,usalama,kukataliwa,mbanji,NA,NA,NULL,NA,NA,NA,NA,NA,NA,NA,NA,NA,NA,NA,NA,NA,NA,NA,NA,NA,NA,NA
86400000,Save data screen,canvas.Screen,1_3_0_1,NA,NA,timeout,500,66760,66767,66784,67267,67268,2023-08-08T17:32:06Z,67284,Papier,karatasi,s,uchambuzi,usalama,kukataliwa,NA,NA,0,NULL,NA,NA,NA,NA,NA,NA,NA,NA,NA,NA,NA,NA,NA,NA,NA,NA,NA,NA,NA
86400000,deep,flow.Sequence,1_3_0,NA,NA,completion,12867,54385,54383,54400,67267,67269,2023-08-08T17:32:06Z,67284,Papier,karatasi,s,uchambuzi,usalama,kukataliwa,NA,NA,NA,NULL,NA,NA,NA,NA,NA,NA,NA,NA,NA,NA,NA,NA,NA,NA,NA,NA,NA,NA,NA
86400000,task,flow.Sequence,1_3,NA,NA,completion,12867,54385,54383,54400,67267,67269,2023-08-08T17:32:06Z,67284,Papier,karatasi,s,uchambuzi,usalama,kukataliwa,NA,NA,NA,NULL,NA,NA,NA,NA,NA,NA,NA,NA,NA,NA,NA,NA,NA,NA,NA,NA,NA,NA,NA
86400000,Deep Question,html.Page,1_4_0_0,NA,NA,form submission,3889,67270,67267,67284,71173,71173,2023-08-08T17:32:10Z,71200,Orientierung,urekebisho,s,uelekeo,marekebisho,utunzaji,mbanji,NA,NA,NULL,NA,NA,NA,NA,NA,NA,NA,NA,NA,NA,NA,NA,NA,NA,NA,NA,NA,NA,NA
86400000,Save data screen,canvas.Screen,1_4_0_1,NA,NA,timeout,500,71174,71184,71200,71684,71686,2023-08-08T17:32:11Z,71700,Orientierung,urekebisho,s,uelekeo,marekebisho,utunzaji,NA,NA,0,NULL,NA,NA,NA,NA,NA,NA,NA,NA,NA,NA,NA,NA,NA,NA,NA,NA,NA,NA,NA
86400000,deep,flow.Sequence,1_4_0,NA,NA,completion,4400,67269,67267,67284,71684,71686,2023-08-08T17:32:11Z,71700,Orientierung,urekebisho,s,uelekeo,marekebisho,utunzaji,NA,NA,NA,NULL,NA,NA,NA,NA,NA,NA,NA,NA,NA,NA,NA,NA,NA,NA,NA,NA,NA,NA,NA
86400000,task,flow.Sequence,1_4,NA,NA,completion,4400,67269,67267,67284,71684,71687,2023-08-08T17:32:11Z,71700,Orientierung,urekebisho,s,uelekeo,marekebisho,utunzaji,NA,NA,NA,NULL,NA,NA,NA,NA,NA,NA,NA,NA,NA,NA,NA,NA,NA,NA,NA,NA,NA,NA,NA
86400000,Deep Question,html.Page,1_5_0_0,NA,NA,form submission,12757,71687,71684,71700,84457,84457,2023-08-08T17:32:23Z,84484,Atmosphäre,angahewa,d,kuteseka,usahihi,kutoamini,angawela,NA,NA,NULL,NA,NA,NA,NA,NA,NA,NA,NA,NA,NA,NA,NA,NA,NA,NA,NA,NA,NA,NA
86400000,Save data screen,canvas.Screen,1_5_0_1,NA,NA,timeout,500,84459,84468,84484,84968,84969,2023-08-08T17:32:24Z,84984,Atmosphäre,angahewa,d,kuteseka,usahihi,kutoamini,NA,NA,0,NULL,NA,NA,NA,NA,NA,NA,NA,NA,NA,NA,NA,NA,NA,NA,NA,NA,NA,NA,NA
86400000,deep,flow.Sequence,1_5_0,NA,NA,completion,13268,71687,71684,71700,84968,84969,2023-08-08T17:32:24Z,84984,Atmosphäre,angahewa,d,kuteseka,usahihi,kutoamini,NA,NA,NA,NULL,NA,NA,NA,NA,NA,NA,NA,NA,NA,NA,NA,NA,NA,NA,NA,NA,NA,NA,NA
86400000,task,flow.Sequence,1_5,NA,NA,completion,13268,71687,71684,71700,84968,84969,2023-08-08T17:32:24Z,84984,Atmosphäre,angahewa,d,kuteseka,usahihi,kutoamini,NA,NA,NA,NULL,NA,NA,NA,NA,NA,NA,NA,NA,NA,NA,NA,NA,NA,NA,NA,NA,NA,NA,NA
86400000,Deep Question,html.Page,1_6_0_0,NA,NA,form submission,7857,84970,84968,84984,92841,92841,2023-08-08T17:32:32Z,92867,Erneuerung,ukarabati,s,ushawishi,ukalifu,unyonyaji,umbanji,NA,NA,NULL,NA,NA,NA,NA,NA,NA,NA,NA,NA,NA,NA,NA,NA,NA,NA,NA,NA,NA,NA
86400000,Save data screen,canvas.Screen,1_6_0_1,NA,NA,timeout,501,92842,92851,92867,93352,93353,2023-08-08T17:32:32Z,93368,Erneuerung,ukarabati,s,ushawishi,ukalifu,unyonyaji,NA,NA,0,NULL,NA,NA,NA,NA,NA,NA,NA,NA,NA,NA,NA,NA,NA,NA,NA,NA,NA,NA,NA
86400000,deep,flow.Sequence,1_6_0,NA,NA,completion,8368,84970,84968,84984,93352,93354,2023-08-08T17:32:32Z,93368,Erneuerung,ukarabati,s,ushawishi,ukalifu,unyonyaji,NA,NA,NA,NULL,NA,NA,NA,NA,NA,NA,NA,NA,NA,NA,NA,NA,NA,NA,NA,NA,NA,NA,NA
86400000,task,flow.Sequence,1_6,NA,NA,completion,8368,84970,84968,84984,93352,93354,2023-08-08T17:32:32Z,93368,Erneuerung,ukarabati,s,ushawishi,ukalifu,unyonyaji,NA,NA,NA,NULL,NA,NA,NA,NA,NA,NA,NA,NA,NA,NA,NA,NA,NA,NA,NA,NA,NA,NA,NA
86400000,Deep Question,html.Page,1_7_0_0,NA,NA,form submission,18171,93355,93352,93368,111539,111539,2023-08-08T17:32:50Z,111569,Integrität,uadilifu,s,muungano,mtiririko,upunguaji,umbaji,NA,NA,NULL,NA,NA,NA,NA,NA,NA,NA,NA,NA,NA,NA,NA,NA,NA,NA,NA,NA,NA,NA
86400000,Save data screen,canvas.Screen,1_7_0_1,NA,NA,timeout,500,111540,111552,111569,112052,112053,2023-08-08T17:32:51Z,112069,Integrität,uadilifu,s,muungano,mtiririko,upunguaji,NA,NA,0,NULL,NA,NA,NA,NA,NA,NA,NA,NA,NA,NA,NA,NA,NA,NA,NA,NA,NA,NA,NA
86400000,deep,flow.Sequence,1_7_0,NA,NA,completion,18684,93355,93352,93368,112052,112054,2023-08-08T17:32:51Z,112069,Integrität,uadilifu,s,muungano,mtiririko,upunguaji,NA,NA,NA,NULL,NA,NA,NA,NA,NA,NA,NA,NA,NA,NA,NA,NA,NA,NA,NA,NA,NA,NA,NA
86400000,task,flow.Sequence,1_7,NA,NA,completion,18684,93355,93352,93368,112052,112054,2023-08-08T17:32:51Z,112069,Integrität,uadilifu,s,muungano,mtiririko,upunguaji,NA,NA,NA,NULL,NA,NA,NA,NA,NA,NA,NA,NA,NA,NA,NA,NA,NA,NA,NA,NA,NA,NA,NA
86400000,Deep Question,html.Page,1_8_0_0,NA,NA,form submission,10571,112054,112052,112069,122640,122640,2023-08-08T17:33:01Z,122669,Vorwurf,mashtaka,d,msukumo,mtangulizi,uenyekiti,uranbuji,NA,NA,NULL,NA,NA,NA,NA,NA,NA,NA,NA,NA,NA,NA,NA,NA,NA,NA,NA,NA,NA,NA
86400000,Save data screen,canvas.Screen,1_8_0_1,NA,NA,timeout,500,122641,122653,122669,123153,123154,2023-08-08T17:33:02Z,123169,Vorwurf,mashtaka,d,msukumo,mtangulizi,uenyekiti,NA,NA,0,NULL,NA,NA,NA,NA,NA,NA,NA,NA,NA,NA,NA,NA,NA,NA,NA,NA,NA,NA,NA
86400000,deep,flow.Sequence,1_8_0,NA,NA,completion,11084,112054,112052,112069,123153,123155,2023-08-08T17:33:02Z,123169,Vorwurf,mashtaka,d,msukumo,mtangulizi,uenyekiti,NA,NA,NA,NULL,NA,NA,NA,NA,NA,NA,NA,NA,NA,NA,NA,NA,NA,NA,NA,NA,NA,NA,NA
86400000,task,flow.Sequence,1_8,NA,NA,completion,11084,112054,112052,112069,123153,123156,2023-08-08T17:33:02Z,123169,Vorwurf,mashtaka,d,msukumo,mtangulizi,uenyekiti,NA,NA,NA,NULL,NA,NA,NA,NA,NA,NA,NA,NA,NA,NA,NA,NA,NA,NA,NA,NA,NA,NA,NA
86400000,Deep Question,html.Page,1_9_0_0,NA,NA,form submission,7390,123156,123153,123169,130559,130559,2023-08-08T17:33:09Z,130586,Entwicklung,maendeleo,d,uangavu,mshindwa,badiliko,diwani,NA,NA,NULL,NA,NA,NA,NA,NA,NA,NA,NA,NA,NA,NA,NA,NA,NA,NA,NA,NA,NA,NA
86400000,Save data screen,canvas.Screen,1_9_0_1,NA,NA,timeout,500,130560,130569,130586,131070,131071,2023-08-08T17:33:10Z,131086,Entwicklung,maendeleo,d,uangavu,mshindwa,badiliko,NA,NA,0,NULL,NA,NA,NA,NA,NA,NA,NA,NA,NA,NA,NA,NA,NA,NA,NA,NA,NA,NA,NA
86400000,deep,flow.Sequence,1_9_0,NA,NA,completion,7901,123156,123153,123169,131070,131071,2023-08-08T17:33:10Z,131086,Entwicklung,maendeleo,d,uangavu,mshindwa,badiliko,NA,NA,NA,NULL,NA,NA,NA,NA,NA,NA,NA,NA,NA,NA,NA,NA,NA,NA,NA,NA,NA,NA,NA
86400000,task,flow.Sequence,1_9,NA,NA,completion,7901,123156,123153,123169,131070,131072,2023-08-08T17:33:10Z,131086,Entwicklung,maendeleo,d,uangavu,mshindwa,badiliko,NA,NA,NA,NULL,NA,NA,NA,NA,NA,NA,NA,NA,NA,NA,NA,NA,NA,NA,NA,NA,NA,NA,NA
86400000,Deep Question,html.Page,1_10_0_0,NA,NA,form submission,12607,131072,131070,131086,143693,143694,2023-08-08T17:33:23Z,143720,Respekt,heshima,s,changamnao,upinzani,ufanisi,mbanji,NA,NA,NULL,NA,NA,NA,NA,NA,NA,NA,NA,NA,NA,NA,NA,NA,NA,NA,NA,NA,NA,NA
86400000,Save data screen,canvas.Screen,1_10_0_1,NA,NA,timeout,500,143695,143703,143720,144203,144205,2023-08-08T17:33:23Z,144220,Respekt,heshima,s,changamnao,upinzani,ufanisi,NA,NA,0,NULL,NA,NA,NA,NA,NA,NA,NA,NA,NA,NA,NA,NA,NA,NA,NA,NA,NA,NA,NA
86400000,deep,flow.Sequence,1_10_0,NA,NA,completion,13117,131072,131070,131086,144203,144206,2023-08-08T17:33:23Z,144220,Respekt,heshima,s,changamnao,upinzani,ufanisi,NA,NA,NA,NULL,NA,NA,NA,NA,NA,NA,NA,NA,NA,NA,NA,NA,NA,NA,NA,NA,NA,NA,NA
86400000,task,flow.Sequence,1_10,NA,NA,completion,13117,131072,131070,131086,144203,144206,2023-08-08T17:33:23Z,144220,Respekt,heshima,s,changamnao,upinzani,ufanisi,NA,NA,NA,NULL,NA,NA,NA,NA,NA,NA,NA,NA,NA,NA,NA,NA,NA,NA,NA,NA,NA,NA,NA
86400000,Deep Question,html.Page,1_11_0_0,NA,NA,form submission,3506,144207,144203,144220,147726,147726,2023-08-08T17:33:27Z,147754,Niveau,kiwango,s,usimamizi,mwamali,mshairi,mbanji,NA,NA,NULL,NA,NA,NA,NA,NA,NA,NA,NA,NA,NA,NA,NA,NA,NA,NA,NA,NA,NA,NA
86400000,Save data screen,canvas.Screen,1_11_0_1,NA,NA,timeout,500,147726,147737,147754,148237,148238,2023-08-08T17:33:27Z,148254,Niveau,kiwango,s,usimamizi,mwamali,mshairi,NA,NA,0,NULL,NA,NA,NA,NA,NA,NA,NA,NA,NA,NA,NA,NA,NA,NA,NA,NA,NA,NA,NA
86400000,deep,flow.Sequence,1_11_0,NA,NA,completion,4017,144207,144203,144220,148237,148239,2023-08-08T17:33:27Z,148254,Niveau,kiwango,s,usimamizi,mwamali,mshairi,NA,NA,NA,NULL,NA,NA,NA,NA,NA,NA,NA,NA,NA,NA,NA,NA,NA,NA,NA,NA,NA,NA,NA
86400000,task,flow.Sequence,1_11,NA,NA,completion,4017,144207,144203,144220,148237,148239,2023-08-08T17:33:27Z,148254,Niveau,kiwango,s,usimamizi,mwamali,mshairi,NA,NA,NA,NULL,NA,NA,NA,NA,NA,NA,NA,NA,NA,NA,NA,NA,NA,NA,NA,NA,NA,NA,NA
86400000,Deep Question,html.Page,1_12_0_0,NA,NA,form submission,2484,148240,148237,148254,150738,150738,2023-08-08T17:33:30Z,150770,Stimmung,kinyongo,d,kilekile,kisambo,madhehebu,mbanji,NA,NA,NULL,NA,NA,NA,NA,NA,NA,NA,NA,NA,NA,NA,NA,NA,NA,NA,NA,NA,NA,NA
86400000,Save data screen,canvas.Screen,1_12_0_1,NA,NA,timeout,500,150738,150754,150770,151254,151255,2023-08-08T17:33:30Z,151270,Stimmung,kinyongo,d,kilekile,kisambo,madhehebu,NA,NA,0,NULL,NA,NA,NA,NA,NA,NA,NA,NA,NA,NA,NA,NA,NA,NA,NA,NA,NA,NA,NA
86400000,deep,flow.Sequence,1_12_0,NA,NA,completion,3000,148240,148237,148254,151254,151256,2023-08-08T17:33:30Z,151270,Stimmung,kinyongo,d,kilekile,kisambo,madhehebu,NA,NA,NA,NULL,NA,NA,NA,NA,NA,NA,NA,NA,NA,NA,NA,NA,NA,NA,NA,NA,NA,NA,NA
86400000,task,flow.Sequence,1_12,NA,NA,completion,3000,148240,148237,148254,151254,151257,2023-08-08T17:33:30Z,151270,Stimmung,kinyongo,d,kilekile,kisambo,madhehebu,NA,NA,NA,NULL,NA,NA,NA,NA,NA,NA,NA,NA,NA,NA,NA,NA,NA,NA,NA,NA,NA,NA,NA
86400000,Deep Question,html.Page,1_13_0_0,NA,NA,form submission,2290,151257,151254,151270,153560,153560,2023-08-08T17:33:32Z,153587,Flexibilität,kubadilika,d,enjini,usikilivu,hesabu,mbanji,NA,NA,NULL,NA,NA,NA,NA,NA,NA,NA,NA,NA,NA,NA,NA,NA,NA,NA,NA,NA,NA,NA
86400000,Save data screen,canvas.Screen,1_13_0_1,NA,NA,timeout,500,153561,153570,153587,154070,154071,2023-08-08T17:33:33Z,154087,Flexibilität,kubadilika,d,enjini,usikilivu,hesabu,NA,NA,0,NULL,NA,NA,NA,NA,NA,NA,NA,NA,NA,NA,NA,NA,NA,NA,NA,NA,NA,NA,NA
86400000,deep,flow.Sequence,1_13_0,NA,NA,completion,2800,151257,151254,151270,154070,154072,2023-08-08T17:33:33Z,154087,Flexibilität,kubadilika,d,enjini,usikilivu,hesabu,NA,NA,NA,NULL,NA,NA,NA,NA,NA,NA,NA,NA,NA,NA,NA,NA,NA,NA,NA,NA,NA,NA,NA
86400000,task,flow.Sequence,1_13,NA,NA,completion,2800,151257,151254,151270,154070,154072,2023-08-08T17:33:33Z,154087,Flexibilität,kubadilika,d,enjini,usikilivu,hesabu,NA,NA,NA,NULL,NA,NA,NA,NA,NA,NA,NA,NA,NA,NA,NA,NA,NA,NA,NA,NA,NA,NA,NA
86400000,Deep Question,html.Page,1_14_0_0,NA,NA,form submission,3177,154073,154070,154087,157264,157264,2023-08-08T17:33:36Z,157287,Wechsel,ugeuzaji,s,utambulisho,kujenga,wasiwasi,mbanji,NA,NA,NULL,NA,NA,NA,NA,NA,NA,NA,NA,NA,NA,NA,NA,NA,NA,NA,NA,NA,NA,NA
86400000,Save data screen,canvas.Screen,1_14_0_1,NA,NA,timeout,500,157265,157270,157287,157771,157772,2023-08-08T17:33:37Z,157787,Wechsel,ugeuzaji,s,utambulisho,kujenga,wasiwasi,NA,NA,0,NULL,NA,NA,NA,NA,NA,NA,NA,NA,NA,NA,NA,NA,NA,NA,NA,NA,NA,NA,NA
86400000,deep,flow.Sequence,1_14_0,NA,NA,completion,3684,154073,154070,154087,157771,157772,2023-08-08T17:33:37Z,157787,Wechsel,ugeuzaji,s,utambulisho,kujenga,wasiwasi,NA,NA,NA,NULL,NA,NA,NA,NA,NA,NA,NA,NA,NA,NA,NA,NA,NA,NA,NA,NA,NA,NA,NA
86400000,task,flow.Sequence,1_14,NA,NA,completion,3684,154072,154070,154087,157771,157773,2023-08-08T17:33:37Z,157787,Wechsel,ugeuzaji,s,utambulisho,kujenga,wasiwasi,NA,NA,NA,NULL,NA,NA,NA,NA,NA,NA,NA,NA,NA,NA,NA,NA,NA,NA,NA,NA,NA,NA,NA
86400000,Deep Question,html.Page,1_15_0_0,NA,NA,form submission,5707,157773,157771,157787,163494,163494,2023-08-08T17:33:42Z,163521,Genehmigung,idhini,d,mwanamke,itikadi,fedheha,mbanji,NA,NA,NULL,NA,NA,NA,NA,NA,NA,NA,NA,NA,NA,NA,NA,NA,NA,NA,NA,NA,NA,NA
86400000,Save data screen,canvas.Screen,1_15_0_1,NA,NA,timeout,521,163494,163504,163521,164004,164005,2023-08-08T17:33:43Z,164042,Genehmigung,idhini,d,mwanamke,itikadi,fedheha,NA,NA,0,NULL,NA,NA,NA,NA,NA,NA,NA,NA,NA,NA,NA,NA,NA,NA,NA,NA,NA,NA,NA
86400000,deep,flow.Sequence,1_15_0,NA,NA,completion,6217,157773,157771,157787,164004,164006,2023-08-08T17:33:43Z,164042,Genehmigung,idhini,d,mwanamke,itikadi,fedheha,NA,NA,NA,NULL,NA,NA,NA,NA,NA,NA,NA,NA,NA,NA,NA,NA,NA,NA,NA,NA,NA,NA,NA
86400000,task,flow.Sequence,1_15,NA,NA,completion,6217,157773,157771,157787,164004,164006,2023-08-08T17:33:43Z,164042,Genehmigung,idhini,d,mwanamke,itikadi,fedheha,NA,NA,NA,NULL,NA,NA,NA,NA,NA,NA,NA,NA,NA,NA,NA,NA,NA,NA,NA,NA,NA,NA,NA
86400000,retrieval block 1 (cued recall),flow.Loop,1,NA,NA,completion,149956,14012,14032,14048,164004,164006,2023-08-08T17:33:43Z,164042,NA,NA,NA,NA,NA,NA,NA,NA,NA,NULL,NA,NA,NA,NA,NA,NA,NA,NA,NA,NA,NA,NA,NA,NA,NA,NA,NA,NA,NA
86400000,Shallow Question,html.Page,2_0_0_0,NA,NA,form submission,8722,164007,164004,164042,172764,172765,2023-08-08T17:33:52Z,172788,Stimmung,kinyongo,d,kilekile,kisambo,madhehebu,kinyongo,NA,NA,"c(""distractor1"", ""distractor2"", ""distractor3"")",NA,NA,NA,NA,NA,NA,NA,NA,NA,NA,NA,NA,NA,NA,NA,NA,NA,NA,NA
86400000,Save data screen,canvas.Screen,2_0_0_1,NA,NA,timeout,499,172765,172771,172788,173271,173272,2023-08-08T17:33:52Z,173287,Stimmung,kinyongo,d,kilekile,kisambo,madhehebu,NA,NA,1,"c(""distractor1"", ""distractor2"", ""distractor3"")",NA,NA,NA,NA,NA,NA,NA,NA,NA,NA,NA,NA,NA,NA,NA,NA,NA,NA,NA
86400000,shallow,flow.Sequence,2_0_0,NA,NA,completion,9229,164007,164004,164042,173271,173273,2023-08-08T17:33:52Z,173287,Stimmung,kinyongo,d,kilekile,kisambo,madhehebu,NA,NA,NA,"c(""distractor1"", ""distractor2"", ""distractor3"")",NA,NA,NA,NA,NA,NA,NA,NA,NA,NA,NA,NA,NA,NA,NA,NA,NA,NA,NA
86400000,task,flow.Sequence,2_0,NA,NA,completion,9229,164007,164004,164042,173271,173273,2023-08-08T17:33:52Z,173287,Stimmung,kinyongo,d,kilekile,kisambo,madhehebu,NA,NA,NA,"c(""distractor1"", ""distractor2"", ""distractor3"")",NA,NA,NA,NA,NA,NA,NA,NA,NA,NA,NA,NA,NA,NA,NA,NA,NA,NA,NA
86400000,Shallow Question,html.Page,2_1_0_0,NA,NA,form submission,3908,173274,173271,173287,177195,177196,2023-08-08T17:33:56Z,177221,Integrität,uadilifu,s,muungano,mtiririko,upunguaji,uadilifu,NA,NA,"c(""distractor1"", ""distractor2"", ""distractor3"")",NA,NA,NA,NA,NA,NA,NA,NA,NA,NA,NA,NA,NA,NA,NA,NA,NA,NA,NA
86400000,Save data screen,canvas.Screen,2_1_0_1,NA,NA,timeout,500,177197,177205,177221,177705,177706,2023-08-08T17:33:57Z,177721,Integrität,uadilifu,s,muungano,mtiririko,upunguaji,NA,NA,1,"c(""distractor1"", ""distractor2"", ""distractor3"")",NA,NA,NA,NA,NA,NA,NA,NA,NA,NA,NA,NA,NA,NA,NA,NA,NA,NA,NA
86400000,shallow,flow.Sequence,2_1_0,NA,NA,completion,4418,173274,173271,173287,177705,177706,2023-08-08T17:33:57Z,177721,Integrität,uadilifu,s,muungano,mtiririko,upunguaji,NA,NA,NA,"c(""distractor1"", ""distractor2"", ""distractor3"")",NA,NA,NA,NA,NA,NA,NA,NA,NA,NA,NA,NA,NA,NA,NA,NA,NA,NA,NA
86400000,task,flow.Sequence,2_1,NA,NA,completion,4418,173274,173271,173287,177705,177707,2023-08-08T17:33:57Z,177721,Integrität,uadilifu,s,muungano,mtiririko,upunguaji,NA,NA,NA,"c(""distractor1"", ""distractor2"", ""distractor3"")",NA,NA,NA,NA,NA,NA,NA,NA,NA,NA,NA,NA,NA,NA,NA,NA,NA,NA,NA
86400000,Shallow Question,html.Page,2_2_0_0,NA,NA,form submission,10825,177707,177705,177721,188546,188547,2023-08-08T17:34:07Z,188572,Entwicklung,maendeleo,d,uangavu,mshindwa,badiliko,badiliko,NA,NA,"c(""distractor1"", ""distractor2"", ""distractor3"")",NA,NA,NA,NA,NA,NA,NA,NA,NA,NA,NA,NA,NA,NA,NA,NA,NA,NA,NA
86400000,Save data screen,canvas.Screen,2_2_0_1,NA,NA,timeout,500,188548,188555,188572,189055,189057,2023-08-08T17:34:08Z,189072,Entwicklung,maendeleo,d,uangavu,mshindwa,badiliko,NA,NA,0,"c(""distractor1"", ""distractor2"", ""distractor3"")",NA,NA,NA,NA,NA,NA,NA,NA,NA,NA,NA,NA,NA,NA,NA,NA,NA,NA,NA
86400000,shallow,flow.Sequence,2_2_0,NA,NA,completion,11334,177707,177705,177721,189055,189057,2023-08-08T17:34:08Z,189072,Entwicklung,maendeleo,d,uangavu,mshindwa,badiliko,NA,NA,NA,"c(""distractor1"", ""distractor2"", ""distractor3"")",NA,NA,NA,NA,NA,NA,NA,NA,NA,NA,NA,NA,NA,NA,NA,NA,NA,NA,NA
86400000,task,flow.Sequence,2_2,NA,NA,completion,11334,177707,177705,177721,189055,189058,2023-08-08T17:34:08Z,189072,Entwicklung,maendeleo,d,uangavu,mshindwa,badiliko,NA,NA,NA,"c(""distractor1"", ""distractor2"", ""distractor3"")",NA,NA,NA,NA,NA,NA,NA,NA,NA,NA,NA,NA,NA,NA,NA,NA,NA,NA,NA
86400000,Shallow Question,html.Page,2_3_0_0,NA,NA,form submission,7822,189059,189055,189072,196894,196895,2023-08-08T17:34:16Z,196922,Orientierung,urekebisho,s,uelekeo,marekebisho,utunzaji,utunzaji,NA,NA,"c(""distractor1"", ""distractor2"", ""distractor3"")",NA,NA,NA,NA,NA,NA,NA,NA,NA,NA,NA,NA,NA,NA,NA,NA,NA,NA,NA
86400000,Save data screen,canvas.Screen,2_3_0_1,NA,NA,timeout,500,196896,196905,196922,197405,197406,2023-08-08T17:34:16Z,197422,Orientierung,urekebisho,s,uelekeo,marekebisho,utunzaji,NA,NA,0,"c(""distractor1"", ""distractor2"", ""distractor3"")",NA,NA,NA,NA,NA,NA,NA,NA,NA,NA,NA,NA,NA,NA,NA,NA,NA,NA,NA
86400000,shallow,flow.Sequence,2_3_0,NA,NA,completion,8333,189059,189055,189072,197405,197407,2023-08-08T17:34:16Z,197422,Orientierung,urekebisho,s,uelekeo,marekebisho,utunzaji,NA,NA,NA,"c(""distractor1"", ""distractor2"", ""distractor3"")",NA,NA,NA,NA,NA,NA,NA,NA,NA,NA,NA,NA,NA,NA,NA,NA,NA,NA,NA
86400000,task,flow.Sequence,2_3,NA,NA,completion,8333,189058,189055,189072,197405,197407,2023-08-08T17:34:16Z,197422,Orientierung,urekebisho,s,uelekeo,marekebisho,utunzaji,NA,NA,NA,"c(""distractor1"", ""distractor2"", ""distractor3"")",NA,NA,NA,NA,NA,NA,NA,NA,NA,NA,NA,NA,NA,NA,NA,NA,NA,NA,NA
86400000,Shallow Question,html.Page,2_4_0_0,NA,NA,form submission,3987,197407,197405,197422,201409,201409,2023-08-08T17:34:20Z,201439,Begegnung,kukutana,d,mmasihiya,mpiganaji,husiano,kukutana,NA,NA,"c(""distractor1"", ""distractor2"", ""distractor3"")",NA,NA,NA,NA,NA,NA,NA,NA,NA,NA,NA,NA,NA,NA,NA,NA,NA,NA,NA
86400000,Save data screen,canvas.Screen,2_4_0_1,NA,NA,timeout,500,201410,201422,201439,201922,201923,2023-08-08T17:34:21Z,201939,Begegnung,kukutana,d,mmasihiya,mpiganaji,husiano,NA,NA,1,"c(""distractor1"", ""distractor2"", ""distractor3"")",NA,NA,NA,NA,NA,NA,NA,NA,NA,NA,NA,NA,NA,NA,NA,NA,NA,NA,NA
86400000,shallow,flow.Sequence,2_4_0,NA,NA,completion,4500,197407,197405,197422,201922,201923,2023-08-08T17:34:21Z,201939,Begegnung,kukutana,d,mmasihiya,mpiganaji,husiano,NA,NA,NA,"c(""distractor1"", ""distractor2"", ""distractor3"")",NA,NA,NA,NA,NA,NA,NA,NA,NA,NA,NA,NA,NA,NA,NA,NA,NA,NA,NA
86400000,task,flow.Sequence,2_4,NA,NA,completion,4500,197407,197405,197422,201922,201924,2023-08-08T17:34:21Z,201939,Begegnung,kukutana,d,mmasihiya,mpiganaji,husiano,NA,NA,NA,"c(""distractor1"", ""distractor2"", ""distractor3"")",NA,NA,NA,NA,NA,NA,NA,NA,NA,NA,NA,NA,NA,NA,NA,NA,NA,NA,NA
86400000,Shallow Question,html.Page,2_5_0_0,NA,NA,form submission,8823,201924,201922,201939,210762,210763,2023-08-08T17:34:30Z,210789,Betrüger,mdanganyifu,d,mwanamuziki,wastani,mahakama,mdanganyifu,NA,NA,"c(""distractor1"", ""distractor2"", ""distractor3"")",NA,NA,NA,NA,NA,NA,NA,NA,NA,NA,NA,NA,NA,NA,NA,NA,NA,NA,NA
86400000,Save data screen,canvas.Screen,2_5_0_1,NA,NA,timeout,500,210764,210773,210789,211273,211274,2023-08-08T17:34:30Z,211289,Betrüger,mdanganyifu,d,mwanamuziki,wastani,mahakama,NA,NA,1,"c(""distractor1"", ""distractor2"", ""distractor3"")",NA,NA,NA,NA,NA,NA,NA,NA,NA,NA,NA,NA,NA,NA,NA,NA,NA,NA,NA
86400000,shallow,flow.Sequence,2_5_0,NA,NA,completion,9334,201924,201922,201939,211273,211275,2023-08-08T17:34:30Z,211289,Betrüger,mdanganyifu,d,mwanamuziki,wastani,mahakama,NA,NA,NA,"c(""distractor1"", ""distractor2"", ""distractor3"")",NA,NA,NA,NA,NA,NA,NA,NA,NA,NA,NA,NA,NA,NA,NA,NA,NA,NA,NA
86400000,task,flow.Sequence,2_5,NA,NA,completion,9334,201924,201922,201939,211273,211276,2023-08-08T17:34:30Z,211289,Betrüger,mdanganyifu,d,mwanamuziki,wastani,mahakama,NA,NA,NA,"c(""distractor1"", ""distractor2"", ""distractor3"")",NA,NA,NA,NA,NA,NA,NA,NA,NA,NA,NA,NA,NA,NA,NA,NA,NA,NA,NA
86400000,Shallow Question,html.Page,2_6_0_0,NA,NA,form submission,4207,211277,211273,211289,215496,215496,2023-08-08T17:34:34Z,215523,Vorwurf,mashtaka,d,msukumo,mtangulizi,uenyekiti,mashtaka,NA,NA,"c(""distractor1"", ""distractor2"", ""distractor3"")",NA,NA,NA,NA,NA,NA,NA,NA,NA,NA,NA,NA,NA,NA,NA,NA,NA,NA,NA
86400000,Save data screen,canvas.Screen,2_6_0_1,NA,NA,timeout,499,215497,215506,215523,216006,216007,2023-08-08T17:34:35Z,216022,Vorwurf,mashtaka,d,msukumo,mtangulizi,uenyekiti,NA,NA,1,"c(""distractor1"", ""distractor2"", ""distractor3"")",NA,NA,NA,NA,NA,NA,NA,NA,NA,NA,NA,NA,NA,NA,NA,NA,NA,NA,NA
86400000,shallow,flow.Sequence,2_6_0,NA,NA,completion,4717,211277,211273,211289,216006,216008,2023-08-08T17:34:35Z,216022,Vorwurf,mashtaka,d,msukumo,mtangulizi,uenyekiti,NA,NA,NA,"c(""distractor1"", ""distractor2"", ""distractor3"")",NA,NA,NA,NA,NA,NA,NA,NA,NA,NA,NA,NA,NA,NA,NA,NA,NA,NA,NA
86400000,task,flow.Sequence,2_6,NA,NA,completion,4717,211276,211273,211289,216006,216008,2023-08-08T17:34:35Z,216022,Vorwurf,mashtaka,d,msukumo,mtangulizi,uenyekiti,NA,NA,NA,"c(""distractor1"", ""distractor2"", ""distractor3"")",NA,NA,NA,NA,NA,NA,NA,NA,NA,NA,NA,NA,NA,NA,NA,NA,NA,NA,NA
86400000,Shallow Question,html.Page,2_7_0_0,NA,NA,form submission,4491,216008,216006,216022,220513,220514,2023-08-08T17:34:39Z,220539,Wechsel,ugeuzaji,s,utambulisho,kujenga,wasiwasi,ugeuzaji,NA,NA,"c(""distractor1"", ""distractor2"", ""distractor3"")",NA,NA,NA,NA,NA,NA,NA,NA,NA,NA,NA,NA,NA,NA,NA,NA,NA,NA,NA
86400000,Save data screen,canvas.Screen,2_7_0_1,NA,NA,timeout,501,220515,220523,220539,221022,221023,2023-08-08T17:34:40Z,221040,Wechsel,ugeuzaji,s,utambulisho,kujenga,wasiwasi,NA,NA,1,"c(""distractor1"", ""distractor2"", ""distractor3"")",NA,NA,NA,NA,NA,NA,NA,NA,NA,NA,NA,NA,NA,NA,NA,NA,NA,NA,NA
86400000,shallow,flow.Sequence,2_7_0,NA,NA,completion,5000,216008,216006,216022,221022,221025,2023-08-08T17:34:40Z,221040,Wechsel,ugeuzaji,s,utambulisho,kujenga,wasiwasi,NA,NA,NA,"c(""distractor1"", ""distractor2"", ""distractor3"")",NA,NA,NA,NA,NA,NA,NA,NA,NA,NA,NA,NA,NA,NA,NA,NA,NA,NA,NA
86400000,task,flow.Sequence,2_7,NA,NA,completion,5000,216008,216006,216022,221022,221025,2023-08-08T17:34:40Z,221040,Wechsel,ugeuzaji,s,utambulisho,kujenga,wasiwasi,NA,NA,NA,"c(""distractor1"", ""distractor2"", ""distractor3"")",NA,NA,NA,NA,NA,NA,NA,NA,NA,NA,NA,NA,NA,NA,NA,NA,NA,NA,NA
86400000,Shallow Question,html.Page,2_8_0_0,NA,NA,form submission,10624,221026,221022,221040,231664,231664,2023-08-08T17:34:51Z,231690,Papier,karatasi,s,uchambuzi,usalama,kukataliwa,karatasi,NA,NA,"c(""distractor1"", ""distractor2"", ""distractor3"")",NA,NA,NA,NA,NA,NA,NA,NA,NA,NA,NA,NA,NA,NA,NA,NA,NA,NA,NA
86400000,Save data screen,canvas.Screen,2_8_0_1,NA,NA,timeout,500,231666,231673,231690,232173,232174,2023-08-08T17:34:51Z,232190,Papier,karatasi,s,uchambuzi,usalama,kukataliwa,NA,NA,1,"c(""distractor1"", ""distractor2"", ""distractor3"")",NA,NA,NA,NA,NA,NA,NA,NA,NA,NA,NA,NA,NA,NA,NA,NA,NA,NA,NA
86400000,shallow,flow.Sequence,2_8_0,NA,NA,completion,11133,221026,221022,221040,232173,232175,2023-08-08T17:34:51Z,232190,Papier,karatasi,s,uchambuzi,usalama,kukataliwa,NA,NA,NA,"c(""distractor1"", ""distractor2"", ""distractor3"")",NA,NA,NA,NA,NA,NA,NA,NA,NA,NA,NA,NA,NA,NA,NA,NA,NA,NA,NA
86400000,task,flow.Sequence,2_8,NA,NA,completion,11133,221025,221022,221040,232173,232175,2023-08-08T17:34:51Z,232190,Papier,karatasi,s,uchambuzi,usalama,kukataliwa,NA,NA,NA,"c(""distractor1"", ""distractor2"", ""distractor3"")",NA,NA,NA,NA,NA,NA,NA,NA,NA,NA,NA,NA,NA,NA,NA,NA,NA,NA,NA
86400000,Shallow Question,html.Page,2_9_0_0,NA,NA,form submission,4410,232176,232173,232190,236600,236600,2023-08-08T17:34:55Z,236623,Erneuerung,ukarabati,s,ushawishi,ukalifu,unyonyaji,ukarabati,NA,NA,"c(""distractor1"", ""distractor2"", ""distractor3"")",NA,NA,NA,NA,NA,NA,NA,NA,NA,NA,NA,NA,NA,NA,NA,NA,NA,NA,NA
86400000,Save data screen,canvas.Screen,2_9_0_1,NA,NA,timeout,501,236601,236607,236623,237107,237108,2023-08-08T17:34:56Z,237124,Erneuerung,ukarabati,s,ushawishi,ukalifu,unyonyaji,NA,NA,1,"c(""distractor1"", ""distractor2"", ""distractor3"")",NA,NA,NA,NA,NA,NA,NA,NA,NA,NA,NA,NA,NA,NA,NA,NA,NA,NA,NA
86400000,shallow,flow.Sequence,2_9_0,NA,NA,completion,4917,232176,232173,232190,237107,237109,2023-08-08T17:34:56Z,237124,Erneuerung,ukarabati,s,ushawishi,ukalifu,unyonyaji,NA,NA,NA,"c(""distractor1"", ""distractor2"", ""distractor3"")",NA,NA,NA,NA,NA,NA,NA,NA,NA,NA,NA,NA,NA,NA,NA,NA,NA,NA,NA
86400000,task,flow.Sequence,2_9,NA,NA,completion,4917,232175,232173,232190,237107,237109,2023-08-08T17:34:56Z,237124,Erneuerung,ukarabati,s,ushawishi,ukalifu,unyonyaji,NA,NA,NA,"c(""distractor1"", ""distractor2"", ""distractor3"")",NA,NA,NA,NA,NA,NA,NA,NA,NA,NA,NA,NA,NA,NA,NA,NA,NA,NA,NA
86400000,Shallow Question,html.Page,2_10_0_0,NA,NA,form submission,5041,237110,237107,237124,242165,242165,2023-08-08T17:35:01Z,242190,Genehmigung,idhini,d,mwanamke,itikadi,fedheha,idhini,NA,NA,"c(""distractor1"", ""distractor2"", ""distractor3"")",NA,NA,NA,NA,NA,NA,NA,NA,NA,NA,NA,NA,NA,NA,NA,NA,NA,NA,NA
86400000,Save data screen,canvas.Screen,2_10_0_1,NA,NA,timeout,500,242166,242174,242190,242674,242675,2023-08-08T17:35:02Z,242690,Genehmigung,idhini,d,mwanamke,itikadi,fedheha,NA,NA,1,"c(""distractor1"", ""distractor2"", ""distractor3"")",NA,NA,NA,NA,NA,NA,NA,NA,NA,NA,NA,NA,NA,NA,NA,NA,NA,NA,NA
86400000,shallow,flow.Sequence,2_10_0,NA,NA,completion,5550,237110,237107,237124,242674,242676,2023-08-08T17:35:02Z,242690,Genehmigung,idhini,d,mwanamke,itikadi,fedheha,NA,NA,NA,"c(""distractor1"", ""distractor2"", ""distractor3"")",NA,NA,NA,NA,NA,NA,NA,NA,NA,NA,NA,NA,NA,NA,NA,NA,NA,NA,NA
86400000,task,flow.Sequence,2_10,NA,NA,completion,5550,237109,237107,237124,242674,242676,2023-08-08T17:35:02Z,242690,Genehmigung,idhini,d,mwanamke,itikadi,fedheha,NA,NA,NA,"c(""distractor1"", ""distractor2"", ""distractor3"")",NA,NA,NA,NA,NA,NA,NA,NA,NA,NA,NA,NA,NA,NA,NA,NA,NA,NA,NA
86400000,Shallow Question,html.Page,2_11_0_0,NA,NA,form submission,6658,242677,242674,242690,249348,249348,2023-08-08T17:35:08Z,249374,Niveau,kiwango,s,usimamizi,mwamali,mshairi,kiwango,NA,NA,"c(""distractor1"", ""distractor2"", ""distractor3"")",NA,NA,NA,NA,NA,NA,NA,NA,NA,NA,NA,NA,NA,NA,NA,NA,NA,NA,NA
86400000,Save data screen,canvas.Screen,2_11_0_1,NA,NA,timeout,500,249350,249357,249374,249857,249859,2023-08-08T17:35:09Z,249874,Niveau,kiwango,s,usimamizi,mwamali,mshairi,NA,NA,1,"c(""distractor1"", ""distractor2"", ""distractor3"")",NA,NA,NA,NA,NA,NA,NA,NA,NA,NA,NA,NA,NA,NA,NA,NA,NA,NA,NA
86400000,shallow,flow.Sequence,2_11_0,NA,NA,completion,7167,242676,242674,242690,249857,249860,2023-08-08T17:35:09Z,249874,Niveau,kiwango,s,usimamizi,mwamali,mshairi,NA,NA,NA,"c(""distractor1"", ""distractor2"", ""distractor3"")",NA,NA,NA,NA,NA,NA,NA,NA,NA,NA,NA,NA,NA,NA,NA,NA,NA,NA,NA
86400000,task,flow.Sequence,2_11,NA,NA,completion,7167,242676,242674,242690,249857,249860,2023-08-08T17:35:09Z,249874,Niveau,kiwango,s,usimamizi,mwamali,mshairi,NA,NA,NA,"c(""distractor1"", ""distractor2"", ""distractor3"")",NA,NA,NA,NA,NA,NA,NA,NA,NA,NA,NA,NA,NA,NA,NA,NA,NA,NA,NA
86400000,Shallow Question,html.Page,2_12_0_0,NA,NA,form submission,3875,249861,249857,249874,253749,253750,2023-08-08T17:35:13Z,253774,Fleisch,mshakiki,s,kizunguzungu,mshikamano,angusho,mshakiki,NA,NA,"c(""distractor1"", ""distractor2"", ""distractor3"")",NA,NA,NA,NA,NA,NA,NA,NA,NA,NA,NA,NA,NA,NA,NA,NA,NA,NA,NA
86400000,Save data screen,canvas.Screen,2_12_0_1,NA,NA,timeout,500,253751,253757,253774,254258,254259,2023-08-08T17:35:13Z,254274,Fleisch,mshakiki,s,kizunguzungu,mshikamano,angusho,NA,NA,1,"c(""distractor1"", ""distractor2"", ""distractor3"")",NA,NA,NA,NA,NA,NA,NA,NA,NA,NA,NA,NA,NA,NA,NA,NA,NA,NA,NA
86400000,shallow,flow.Sequence,2_12_0,NA,NA,completion,4384,249861,249857,249874,254258,254260,2023-08-08T17:35:13Z,254274,Fleisch,mshakiki,s,kizunguzungu,mshikamano,angusho,NA,NA,NA,"c(""distractor1"", ""distractor2"", ""distractor3"")",NA,NA,NA,NA,NA,NA,NA,NA,NA,NA,NA,NA,NA,NA,NA,NA,NA,NA,NA
86400000,task,flow.Sequence,2_12,NA,NA,completion,4384,249861,249857,249874,254258,254260,2023-08-08T17:35:13Z,254274,Fleisch,mshakiki,s,kizunguzungu,mshikamano,angusho,NA,NA,NA,"c(""distractor1"", ""distractor2"", ""distractor3"")",NA,NA,NA,NA,NA,NA,NA,NA,NA,NA,NA,NA,NA,NA,NA,NA,NA,NA,NA
86400000,Shallow Question,html.Page,2_13_0_0,NA,NA,form submission,6741,254260,254258,254274,261015,261015,2023-08-08T17:35:20Z,261041,Atmosphäre,angahewa,d,kuteseka,usahihi,kutoamini,angahewa,NA,NA,"c(""distractor1"", ""distractor2"", ""distractor3"")",NA,NA,NA,NA,NA,NA,NA,NA,NA,NA,NA,NA,NA,NA,NA,NA,NA,NA,NA
86400000,Save data screen,canvas.Screen,2_13_0_1,NA,NA,timeout,500,261017,261024,261041,261524,261525,2023-08-08T17:35:20Z,261541,Atmosphäre,angahewa,d,kuteseka,usahihi,kutoamini,NA,NA,1,"c(""distractor1"", ""distractor2"", ""distractor3"")",NA,NA,NA,NA,NA,NA,NA,NA,NA,NA,NA,NA,NA,NA,NA,NA,NA,NA,NA
86400000,shallow,flow.Sequence,2_13_0,NA,NA,completion,7250,254260,254258,254274,261524,261526,2023-08-08T17:35:20Z,261541,Atmosphäre,angahewa,d,kuteseka,usahihi,kutoamini,NA,NA,NA,"c(""distractor1"", ""distractor2"", ""distractor3"")",NA,NA,NA,NA,NA,NA,NA,NA,NA,NA,NA,NA,NA,NA,NA,NA,NA,NA,NA
86400000,task,flow.Sequence,2_13,NA,NA,completion,7250,254260,254258,254274,261524,261526,2023-08-08T17:35:20Z,261541,Atmosphäre,angahewa,d,kuteseka,usahihi,kutoamini,NA,NA,NA,"c(""distractor1"", ""distractor2"", ""distractor3"")",NA,NA,NA,NA,NA,NA,NA,NA,NA,NA,NA,NA,NA,NA,NA,NA,NA,NA,NA
86400000,Shallow Question,html.Page,2_14_0_0,NA,NA,form submission,6842,261527,261524,261541,268383,268383,2023-08-08T17:35:27Z,268408,Respekt,heshima,s,changamnao,upinzani,ufanisi,heshima,NA,NA,"c(""distractor1"", ""distractor2"", ""distractor3"")",NA,NA,NA,NA,NA,NA,NA,NA,NA,NA,NA,NA,NA,NA,NA,NA,NA,NA,NA
86400000,Save data screen,canvas.Screen,2_14_0_1,NA,NA,timeout,500,268385,268391,268408,268891,268893,2023-08-08T17:35:28Z,268908,Respekt,heshima,s,changamnao,upinzani,ufanisi,NA,NA,1,"c(""distractor1"", ""distractor2"", ""distractor3"")",NA,NA,NA,NA,NA,NA,NA,NA,NA,NA,NA,NA,NA,NA,NA,NA,NA,NA,NA
86400000,shallow,flow.Sequence,2_14_0,NA,NA,completion,7350,261526,261524,261541,268891,268894,2023-08-08T17:35:28Z,268908,Respekt,heshima,s,changamnao,upinzani,ufanisi,NA,NA,NA,"c(""distractor1"", ""distractor2"", ""distractor3"")",NA,NA,NA,NA,NA,NA,NA,NA,NA,NA,NA,NA,NA,NA,NA,NA,NA,NA,NA
86400000,task,flow.Sequence,2_14,NA,NA,completion,7350,261526,261524,261541,268891,268894,2023-08-08T17:35:28Z,268908,Respekt,heshima,s,changamnao,upinzani,ufanisi,NA,NA,NA,"c(""distractor1"", ""distractor2"", ""distractor3"")",NA,NA,NA,NA,NA,NA,NA,NA,NA,NA,NA,NA,NA,NA,NA,NA,NA,NA,NA
86400000,Shallow Question,html.Page,2_15_0_0,NA,NA,form submission,7209,268895,268891,268908,276117,276117,2023-08-08T17:35:35Z,276142,Flexibilität,kubadilika,d,enjini,usikilivu,hesabu,kubadilika,NA,NA,"c(""distractor1"", ""distractor2"", ""distractor3"")",NA,NA,NA,NA,NA,NA,NA,NA,NA,NA,NA,NA,NA,NA,NA,NA,NA,NA,NA
86400000,Save data screen,canvas.Screen,2_15_0_1,NA,NA,timeout,500,276118,276125,276142,276625,276626,2023-08-08T17:35:35Z,276642,Flexibilität,kubadilika,d,enjini,usikilivu,hesabu,NA,NA,1,"c(""distractor1"", ""distractor2"", ""distractor3"")",NA,NA,NA,NA,NA,NA,NA,NA,NA,NA,NA,NA,NA,NA,NA,NA,NA,NA,NA
86400000,shallow,flow.Sequence,2_15_0,NA,NA,completion,7717,268895,268891,268908,276625,276627,2023-08-08T17:35:35Z,276642,Flexibilität,kubadilika,d,enjini,usikilivu,hesabu,NA,NA,NA,"c(""distractor1"", ""distractor2"", ""distractor3"")",NA,NA,NA,NA,NA,NA,NA,NA,NA,NA,NA,NA,NA,NA,NA,NA,NA,NA,NA
86400000,task,flow.Sequence,2_15,NA,NA,completion,7717,268895,268891,268908,276625,276627,2023-08-08T17:35:35Z,276642,Flexibilität,kubadilika,d,enjini,usikilivu,hesabu,NA,NA,NA,"c(""distractor1"", ""distractor2"", ""distractor3"")",NA,NA,NA,NA,NA,NA,NA,NA,NA,NA,NA,NA,NA,NA,NA,NA,NA,NA,NA
86400000,retrieval block 2 (multiple choice),flow.Loop,2,NA,NA,completion,112583,164006,164004,164042,276625,276628,2023-08-08T17:35:35Z,276642,NA,NA,NA,NA,NA,NA,NA,NA,NA,"c(""distractor1"", ""distractor2"", ""distractor3"")",NA,NA,NA,NA,NA,NA,NA,NA,NA,NA,NA,NA,NA,NA,NA,NA,NA,NA,NA
86400000,End,canvas.Screen,3,NA,keypress(Space),response,1141,276628,276625,276642,277766,277729,2023-08-08T17:35:37Z,277758,NA,NA,NA,NA,NA,NA,NA,NA,NA,NULL,NA,NA,NA,NA,NA,NA,NA,NA,NA,NA,NA,NA,NA,NA,NA,NA,NA,NA,NA
86400000,root,flow.Sequence,NA,NA,NA,completion,277171,569,571,595,277766,277729,2023-08-08T17:35:37Z,277758,NA,NA,NA,NA,NA,NA,NA,NA,NA,NULL,NA,NA,NA,NA,NA,NA,NA,NA,NA,NA,NA,NA,NA,NA,NA,NA,NA,NA,NA
