observation,sender,sender_type,sender_id,response,response_action,ended_on,duration,time_run,time_render,time_show,time_end,time_commit,timestamp,time_switch,distractors,german,swahili,enc,distractor1,distractor2,distractor3,response_2,x,correct,x_2,url_vp,url_sess,meta_labjs_version,meta_location,meta_user_agent,meta_platform,meta_language,meta_locale,meta_time_zone,meta_timezone_offset,meta_screen_width,meta_screen_height,meta_scroll_width,meta_scroll_height,meta_window_inner_width,meta_window_inner_height,meta_device_pixel_ratio,meta_labjs_build_flavor,meta_labjs_build_commit
88922,Introduction general,canvas.Screen,0,weiter,keypress(q),response,94899.88,368,376.34,397.12,95297,95303,2023-08-06T12:27:48Z,95305.12,NULL,NA,NA,NA,NA,NA,NA,NA,NA,NA,NA,176,1,20.2.4,https://neurocog.fernuni.ch/studies/vweber/sliechti/encoding_immediate/index.html?vp=176&sess=1,Mozilla/5.0 (Windows NT 10.0; Win64; x64; rv:109.0) Gecko/20100101 Firefox/116.0,Win32,de,de-CH,Europe/Zurich,-120,1280,720,1280,587,1280,587,1.5,production,f5b4a49f956347addd546a832a3327688c2c0fef
88922,Introduction practice,canvas.Screen,1_0,NA,keypress(Space),response,8444.88,95304,95304.7,95305.12,103750,103764,2023-08-06T12:27:57Z,103772.26,NULL,NA,NA,NA,NA,NA,NA,NA,NA,NA,NA,NA,NA,NA,NA,NA,NA,NA,NA,NA,NA,NA,NA,NA,NA,NA,NA,NA,NA,NA
88922,Deep Question,html.Page,1_1_0_0_0,NA,NA,form submission,10814.74,103765,103765.08,103772.26,114587,114587,2023-08-06T12:28:07Z,114605.58,"c(""distractor1"", ""distractor2"", ""distractor3"")",Qualität,mtindo,d,NA,NA,NA,xxx,NA,NA,NA,NA,NA,NA,NA,NA,NA,NA,NA,NA,NA,NA,NA,NA,NA,NA,NA,NA,NA,NA
88922,"""Richtig""-Screen",canvas.Screen,1_1_0_0_1,NA,NA,skipped,NA,114591,NA,NA,114587,114591,2023-08-06T12:28:07Z,114605.58,"c(""distractor1"", ""distractor2"", ""distractor3"")",Qualität,mtindo,d,NA,NA,NA,NA,NA,NA,NA,NA,NA,NA,NA,NA,NA,NA,NA,NA,NA,NA,NA,NA,NA,NA,NA,NA,NA,NA
88922,"""Falsch""-Screen",canvas.Screen,1_1_0_0_2,NA,NA,timeout,5000.16,114593,114585.2,114605.58,119585.16,119587,2023-08-06T12:28:12Z,119605.74,"c(""distractor1"", ""distractor2"", ""distractor3"")",Qualität,mtindo,d,NA,NA,NA,NA,NA,0,NA,NA,NA,NA,NA,NA,NA,NA,NA,NA,NA,NA,NA,NA,NA,NA,NA,NA,NA,NA
88922,deep,flow.Sequence,1_1_0_0,NA,NA,completion,15812.9,103765,103765.08,103772.26,119585.16,119588,2023-08-06T12:28:12Z,119605.74,"c(""distractor1"", ""distractor2"", ""distractor3"")",Qualität,mtindo,d,NA,NA,NA,NA,NA,NA,NA,NA,NA,NA,NA,NA,NA,NA,NA,NA,NA,NA,NA,NA,NA,NA,NA,NA,NA,NA
88922,shallow,flow.Sequence,1_1_0_1,NA,NA,skipped,NA,119589,NA,NA,119585.16,119589,2023-08-06T12:28:12Z,119605.74,"c(""distractor1"", ""distractor2"", ""distractor3"")",Qualität,mtindo,d,NA,NA,NA,NA,NA,NA,NA,NA,NA,NA,NA,NA,NA,NA,NA,NA,NA,NA,NA,NA,NA,NA,NA,NA,NA,NA
88922,task,flow.Sequence,1_1_0,NA,NA,completion,15812.9,103765,103765.08,103772.26,119585.16,119590,2023-08-06T12:28:12Z,119605.74,"c(""distractor1"", ""distractor2"", ""distractor3"")",Qualität,mtindo,d,NA,NA,NA,NA,NA,NA,NA,NA,NA,NA,NA,NA,NA,NA,NA,NA,NA,NA,NA,NA,NA,NA,NA,NA,NA,NA
88922,deep,flow.Sequence,1_1_1_0,NA,NA,skipped,NA,119591,NA,NA,119585.16,119591,2023-08-06T12:28:12Z,119605.74,"c(""distractor1"", ""distractor2"", ""distractor3"")",Rückhalt,msaada,s,muhula,auwali,kiwimbe,NA,NA,NA,NA,NA,NA,NA,NA,NA,NA,NA,NA,NA,NA,NA,NA,NA,NA,NA,NA,NA,NA,NA
88922,Shallow Question,html.Page,1_1_1_1_0,NA,NA,form submission,18965.26,119592,119585.16,119605.74,138571,138573,2023-08-06T12:28:31Z,138584.84,"c(""distractor1"", ""distractor2"", ""distractor3"")",Rückhalt,msaada,s,muhula,auwali,kiwimbe,kiwimbe,NA,NA,NA,NA,NA,NA,NA,NA,NA,NA,NA,NA,NA,NA,NA,NA,NA,NA,NA,NA,NA,NA
88922,"""Richtig""-Screen",canvas.Screen,1_1_1_1_1,NA,NA,skipped,NA,138576,NA,NA,138571,138576,2023-08-06T12:28:31Z,138584.84,"c(""distractor1"", ""distractor2"", ""distractor3"")",Rückhalt,msaada,s,muhula,auwali,kiwimbe,NA,NA,NA,NA,NA,NA,NA,NA,NA,NA,NA,NA,NA,NA,NA,NA,NA,NA,NA,NA,NA,NA,NA
88922,"""Falsch""-Screen",canvas.Screen,1_1_1_1_2,NA,NA,timeout,4999.94,138578,138568.48,138584.84,143564.32,143566,2023-08-06T12:28:36Z,143584.78,"c(""distractor1"", ""distractor2"", ""distractor3"")",Rückhalt,msaada,s,muhula,auwali,kiwimbe,NA,NA,0,NA,NA,NA,NA,NA,NA,NA,NA,NA,NA,NA,NA,NA,NA,NA,NA,NA,NA,NA,NA
88922,shallow,flow.Sequence,1_1_1_1,NA,NA,completion,23958.58,119591,119585.16,119605.74,143564.32,143567,2023-08-06T12:28:36Z,143584.78,"c(""distractor1"", ""distractor2"", ""distractor3"")",Rückhalt,msaada,s,muhula,auwali,kiwimbe,NA,NA,NA,NA,NA,NA,NA,NA,NA,NA,NA,NA,NA,NA,NA,NA,NA,NA,NA,NA,NA,NA,NA
88922,task,flow.Sequence,1_1_1,NA,NA,completion,23958.58,119590,119585.16,119605.74,143564.32,143568,2023-08-06T12:28:36Z,143584.78,"c(""distractor1"", ""distractor2"", ""distractor3"")",Rückhalt,msaada,s,muhula,auwali,kiwimbe,NA,NA,NA,NA,NA,NA,NA,NA,NA,NA,NA,NA,NA,NA,NA,NA,NA,NA,NA,NA,NA,NA,NA
88922,deep,flow.Sequence,1_1_2_0,NA,NA,skipped,NA,143569,NA,NA,143564.32,143569,2023-08-06T12:28:36Z,143584.78,"c(""distractor1"", ""distractor2"", ""distractor3"")",Gegenwart,hadhara,s,katiba,jokofu,mikopo,NA,NA,NA,NA,NA,NA,NA,NA,NA,NA,NA,NA,NA,NA,NA,NA,NA,NA,NA,NA,NA,NA,NA
88922,Shallow Question,html.Page,1_1_2_1_0,NA,NA,form submission,10293.22,143569,143564.32,143584.78,153878,153878,2023-08-06T12:28:47Z,153876.4,"c(""distractor1"", ""distractor2"", ""distractor3"")",Gegenwart,hadhara,s,katiba,jokofu,mikopo,jokofu,NA,NA,NA,NA,NA,NA,NA,NA,NA,NA,NA,NA,NA,NA,NA,NA,NA,NA,NA,NA,NA,NA
88922,"""Richtig""-Screen",canvas.Screen,1_1_2_1_1,NA,NA,skipped,NA,153880,NA,NA,153878,153880,2023-08-06T12:28:47Z,153876.4,"c(""distractor1"", ""distractor2"", ""distractor3"")",Gegenwart,hadhara,s,katiba,jokofu,mikopo,NA,NA,NA,NA,NA,NA,NA,NA,NA,NA,NA,NA,NA,NA,NA,NA,NA,NA,NA,NA,NA,NA,NA
88922,"""Falsch""-Screen",canvas.Screen,1_1_2_1_2,NA,NA,timeout,5000.3,153881,153876.26,153876.4,158855.82,158856,2023-08-06T12:28:52Z,158876.7,"c(""distractor1"", ""distractor2"", ""distractor3"")",Gegenwart,hadhara,s,katiba,jokofu,mikopo,NA,NA,0,NA,NA,NA,NA,NA,NA,NA,NA,NA,NA,NA,NA,NA,NA,NA,NA,NA,NA,NA,NA
88922,shallow,flow.Sequence,1_1_2_1,NA,NA,completion,15271.04,143569,143564.32,143584.78,158855.82,158857,2023-08-06T12:28:52Z,158876.7,"c(""distractor1"", ""distractor2"", ""distractor3"")",Gegenwart,hadhara,s,katiba,jokofu,mikopo,NA,NA,NA,NA,NA,NA,NA,NA,NA,NA,NA,NA,NA,NA,NA,NA,NA,NA,NA,NA,NA,NA,NA
88922,task,flow.Sequence,1_1_2,NA,NA,completion,15271.04,143568,143564.32,143584.78,158855.82,158857,2023-08-06T12:28:52Z,158876.7,"c(""distractor1"", ""distractor2"", ""distractor3"")",Gegenwart,hadhara,s,katiba,jokofu,mikopo,NA,NA,NA,NA,NA,NA,NA,NA,NA,NA,NA,NA,NA,NA,NA,NA,NA,NA,NA,NA,NA,NA,NA
88922,deep,flow.Sequence,1_1_3_0,NA,NA,skipped,NA,158858,NA,NA,158855.82,158858,2023-08-06T12:28:52Z,158876.7,"c(""distractor1"", ""distractor2"", ""distractor3"")",Kritik,lawama,s,dereva,nafasi,mawazo,NA,NA,NA,NA,NA,NA,NA,NA,NA,NA,NA,NA,NA,NA,NA,NA,NA,NA,NA,NA,NA,NA,NA
88922,Shallow Question,html.Page,1_1_3_1_0,NA,NA,form submission,8071.3,158858,158855.82,158876.7,166948,166949,2023-08-06T12:29:00Z,166959.82,"c(""distractor1"", ""distractor2"", ""distractor3"")",Kritik,lawama,s,dereva,nafasi,mawazo,nafasi,NA,NA,NA,NA,NA,NA,NA,NA,NA,NA,NA,NA,NA,NA,NA,NA,NA,NA,NA,NA,NA,NA
88922,"""Richtig""-Screen",canvas.Screen,1_1_3_1_1,NA,NA,skipped,NA,166950,NA,NA,166948,166950,2023-08-06T12:29:00Z,166959.82,"c(""distractor1"", ""distractor2"", ""distractor3"")",Kritik,lawama,s,dereva,nafasi,mawazo,NA,NA,NA,NA,NA,NA,NA,NA,NA,NA,NA,NA,NA,NA,NA,NA,NA,NA,NA,NA,NA,NA,NA
88922,"""Falsch""-Screen",canvas.Screen,1_1_3_1_2,NA,NA,timeout,5000,166951,166946.38,166959.82,171938.96,171940,2023-08-06T12:29:05Z,171959.82,"c(""distractor1"", ""distractor2"", ""distractor3"")",Kritik,lawama,s,dereva,nafasi,mawazo,NA,NA,0,NA,NA,NA,NA,NA,NA,NA,NA,NA,NA,NA,NA,NA,NA,NA,NA,NA,NA,NA,NA
88922,shallow,flow.Sequence,1_1_3_1,NA,NA,completion,13062.26,158858,158855.82,158876.7,171938.96,171941,2023-08-06T12:29:05Z,171959.82,"c(""distractor1"", ""distractor2"", ""distractor3"")",Kritik,lawama,s,dereva,nafasi,mawazo,NA,NA,NA,NA,NA,NA,NA,NA,NA,NA,NA,NA,NA,NA,NA,NA,NA,NA,NA,NA,NA,NA,NA
88922,task,flow.Sequence,1_1_3,NA,NA,completion,13062.26,158857,158855.82,158876.7,171938.96,171941,2023-08-06T12:29:05Z,171959.82,"c(""distractor1"", ""distractor2"", ""distractor3"")",Kritik,lawama,s,dereva,nafasi,mawazo,NA,NA,NA,NA,NA,NA,NA,NA,NA,NA,NA,NA,NA,NA,NA,NA,NA,NA,NA,NA,NA,NA,NA
88922,Deep Question,html.Page,1_1_4_0_0,NA,NA,form submission,4357.18,171941,171938.96,171959.82,176317,176318,2023-08-06T12:29:09Z,176334.76,"c(""distractor1"", ""distractor2"", ""distractor3"")",Gesundheit,salama,d,NA,NA,NA,x,NA,NA,NA,NA,NA,NA,NA,NA,NA,NA,NA,NA,NA,NA,NA,NA,NA,NA,NA,NA,NA,NA
88922,"""Richtig""-Screen",canvas.Screen,1_1_4_0_1,NA,NA,skipped,NA,176319,NA,NA,176317,176320,2023-08-06T12:29:09Z,176334.76,"c(""distractor1"", ""distractor2"", ""distractor3"")",Gesundheit,salama,d,NA,NA,NA,NA,NA,NA,NA,NA,NA,NA,NA,NA,NA,NA,NA,NA,NA,NA,NA,NA,NA,NA,NA,NA,NA,NA
88922,"""Falsch""-Screen",canvas.Screen,1_1_4_0_2,NA,NA,timeout,5000.08,176321,176316.3,176334.76,181314.04,181315,2023-08-06T12:29:14Z,181334.84,"c(""distractor1"", ""distractor2"", ""distractor3"")",Gesundheit,salama,d,NA,NA,NA,NA,NA,0,NA,NA,NA,NA,NA,NA,NA,NA,NA,NA,NA,NA,NA,NA,NA,NA,NA,NA,NA,NA
88922,deep,flow.Sequence,1_1_4_0,NA,NA,completion,9354.22,171941,171938.96,171959.82,181314.04,181316,2023-08-06T12:29:14Z,181334.84,"c(""distractor1"", ""distractor2"", ""distractor3"")",Gesundheit,salama,d,NA,NA,NA,NA,NA,NA,NA,NA,NA,NA,NA,NA,NA,NA,NA,NA,NA,NA,NA,NA,NA,NA,NA,NA,NA,NA
88922,shallow,flow.Sequence,1_1_4_1,NA,NA,skipped,NA,181316,NA,NA,181314.04,181317,2023-08-06T12:29:14Z,181334.84,"c(""distractor1"", ""distractor2"", ""distractor3"")",Gesundheit,salama,d,NA,NA,NA,NA,NA,NA,NA,NA,NA,NA,NA,NA,NA,NA,NA,NA,NA,NA,NA,NA,NA,NA,NA,NA,NA,NA
88922,task,flow.Sequence,1_1_4,NA,NA,completion,9354.22,171941,171938.96,171959.82,181314.04,181317,2023-08-06T12:29:14Z,181334.84,"c(""distractor1"", ""distractor2"", ""distractor3"")",Gesundheit,salama,d,NA,NA,NA,NA,NA,NA,NA,NA,NA,NA,NA,NA,NA,NA,NA,NA,NA,NA,NA,NA,NA,NA,NA,NA,NA,NA
88922,Deep Question,html.Page,1_1_5_0_0,NA,NA,form submission,3564.16,181318,181314.04,181334.84,184899,184899,2023-08-06T12:29:18Z,184897.4,"c(""distractor1"", ""distractor2"", ""distractor3"")",Schatten,kivuli,d,NA,NA,NA,x,NA,NA,NA,NA,NA,NA,NA,NA,NA,NA,NA,NA,NA,NA,NA,NA,NA,NA,NA,NA,NA,NA
88922,"""Richtig""-Screen",canvas.Screen,1_1_5_0_1,NA,NA,skipped,NA,184903,NA,NA,184899,184904,2023-08-06T12:29:18Z,184897.4,"c(""distractor1"", ""distractor2"", ""distractor3"")",Schatten,kivuli,d,NA,NA,NA,NA,NA,NA,NA,NA,NA,NA,NA,NA,NA,NA,NA,NA,NA,NA,NA,NA,NA,NA,NA,NA,NA,NA
88922,"""Falsch""-Screen",canvas.Screen,1_1_5_0_2,NA,NA,timeout,4999.86,184907,184894.1,184897.4,189876.88,189878,2023-08-06T12:29:23Z,189897.26,"c(""distractor1"", ""distractor2"", ""distractor3"")",Schatten,kivuli,d,NA,NA,NA,NA,NA,0,NA,NA,NA,NA,NA,NA,NA,NA,NA,NA,NA,NA,NA,NA,NA,NA,NA,NA,NA,NA
88922,deep,flow.Sequence,1_1_5_0,NA,NA,completion,8542.04,181318,181314.04,181334.84,189876.88,189879,2023-08-06T12:29:23Z,189897.26,"c(""distractor1"", ""distractor2"", ""distractor3"")",Schatten,kivuli,d,NA,NA,NA,NA,NA,NA,NA,NA,NA,NA,NA,NA,NA,NA,NA,NA,NA,NA,NA,NA,NA,NA,NA,NA,NA,NA
88922,shallow,flow.Sequence,1_1_5_1,NA,NA,skipped,NA,189880,NA,NA,189876.88,189880,2023-08-06T12:29:23Z,189897.26,"c(""distractor1"", ""distractor2"", ""distractor3"")",Schatten,kivuli,d,NA,NA,NA,NA,NA,NA,NA,NA,NA,NA,NA,NA,NA,NA,NA,NA,NA,NA,NA,NA,NA,NA,NA,NA,NA,NA
88922,task,flow.Sequence,1_1_5,NA,NA,completion,8542.04,181318,181314.04,181334.84,189876.88,189880,2023-08-06T12:29:23Z,189897.26,"c(""distractor1"", ""distractor2"", ""distractor3"")",Schatten,kivuli,d,NA,NA,NA,NA,NA,NA,NA,NA,NA,NA,NA,NA,NA,NA,NA,NA,NA,NA,NA,NA,NA,NA,NA,NA,NA,NA
88922,block,flow.Loop,1_1,NA,NA,completion,86104.62,103765,103765.08,103772.26,189876.88,189881,2023-08-06T12:29:23Z,189897.26,"c(""distractor1"", ""distractor2"", ""distractor3"")",NA,NA,NA,NA,NA,NA,NA,NA,NA,NA,NA,NA,NA,NA,NA,NA,NA,NA,NA,NA,NA,NA,NA,NA,NA,NA,NA,NA,NA
88922,Practice,flow.Sequence,1,NA,NA,completion,94571.76,95304,95304.7,95305.12,189876.88,189882,2023-08-06T12:29:23Z,189897.26,NULL,NA,NA,NA,NA,NA,NA,NA,NA,NA,NA,NA,NA,NA,NA,NA,NA,NA,NA,NA,NA,NA,NA,NA,NA,NA,NA,NA,NA,NA
88922,Experiment start,canvas.Screen,2,weiter,keypress(q),response,31960.74,189882,189876.88,189897.26,221858,221869,2023-08-06T12:29:55Z,221954.94,NULL,NA,NA,NA,NA,NA,NA,NA,NA,NA,NA,NA,NA,NA,NA,NA,NA,NA,NA,NA,NA,NA,NA,NA,NA,NA,NA,NA,NA,NA
88922,Deep Question,html.Page,3_0_0_0_0_0_0,NA,NA,form submission,5903.06,221954,221954.58,221954.94,227858,227859,2023-08-06T12:30:01Z,227876.46,NULL,Abrechnung,uhasibu,d,NA,NA,NA,x,NA,NA,0,NA,NA,NA,NA,NA,NA,NA,NA,NA,NA,NA,NA,NA,NA,NA,NA,NA,NA,NA
88922,"""Richtig""-Screen",canvas.Screen,3_0_0_0_0_0_1,NA,NA,skipped,NA,227860,NA,NA,227858,227860,2023-08-06T12:30:01Z,227876.46,NULL,Abrechnung,uhasibu,d,NA,NA,NA,NA,sdf,NA,0,NA,NA,NA,NA,NA,NA,NA,NA,NA,NA,NA,NA,NA,NA,NA,NA,NA,NA,NA
88922,"""Falsch""-Screen",canvas.Screen,3_0_0_0_0_0_2,NA,NA,timeout,5000.06,227861,227856.82,227876.46,232855.88,232857,2023-08-06T12:30:06Z,232876.52,NULL,Abrechnung,uhasibu,d,NA,NA,NA,NA,sdf,0,0,NA,NA,NA,NA,NA,NA,NA,NA,NA,NA,NA,NA,NA,NA,NA,NA,NA,NA,NA
88922,deep,flow.Sequence,3_0_0_0_0_0,NA,NA,completion,10900.94,221954,221954.58,221954.94,232855.88,232857,2023-08-06T12:30:06Z,232876.52,NULL,Abrechnung,uhasibu,d,NA,NA,NA,NA,sdf,NA,0,NA,NA,NA,NA,NA,NA,NA,NA,NA,NA,NA,NA,NA,NA,NA,NA,NA,NA,NA
88922,shallow,flow.Sequence,3_0_0_0_0_1,NA,NA,skipped,NA,232857,NA,NA,232855.88,232857,2023-08-06T12:30:06Z,232876.52,NULL,Abrechnung,uhasibu,d,NA,NA,NA,NA,sdf,NA,0,NA,NA,NA,NA,NA,NA,NA,NA,NA,NA,NA,NA,NA,NA,NA,NA,NA,NA,NA
88922,task,flow.Sequence,3_0_0_0_0,NA,NA,completion,10900.94,221954,221954.58,221954.94,232855.88,232857,2023-08-06T12:30:06Z,232876.52,NULL,Abrechnung,uhasibu,d,NA,NA,NA,NA,sdf,NA,0,NA,NA,NA,NA,NA,NA,NA,NA,NA,NA,NA,NA,NA,NA,NA,NA,NA,NA,NA
88922,deep,flow.Sequence,3_0_0_0_1_0,NA,NA,skipped,NA,232858,NA,NA,232855.88,232858,2023-08-06T12:30:06Z,232876.52,NULL,Angreifer,mshambulizi,s,kitengo,tasinia,usafirishaji,NA,sdf,NA,0,NA,NA,NA,NA,NA,NA,NA,NA,NA,NA,NA,NA,NA,NA,NA,NA,NA,NA,NA
88922,Shallow Question,html.Page,3_0_0_0_1_1_0,NA,NA,form submission,6574.48,232858,232855.88,232876.52,239451,239451,2023-08-06T12:30:12Z,239459.8,NULL,Angreifer,mshambulizi,s,kitengo,tasinia,usafirishaji,usafirishaji,NA,NA,0,NA,NA,NA,NA,NA,NA,NA,NA,NA,NA,NA,NA,NA,NA,NA,NA,NA,NA,NA
88922,"""Richtig""-Screen",canvas.Screen,3_0_0_0_1_1_1,NA,NA,skipped,NA,239454,NA,NA,239451,239455,2023-08-06T12:30:12Z,239459.8,NULL,Angreifer,mshambulizi,s,kitengo,tasinia,usafirishaji,NA,sdf,NA,0,NA,NA,NA,NA,NA,NA,NA,NA,NA,NA,NA,NA,NA,NA,NA,NA,NA,NA,NA
88922,"""Falsch""-Screen",canvas.Screen,3_0_0_0_1_1_2,NA,NA,timeout,5000.08,239458,239447.9,239459.8,244439.04,244440,2023-08-06T12:30:17Z,244459.88,NULL,Angreifer,mshambulizi,s,kitengo,tasinia,usafirishaji,NA,sdf,0,0,NA,NA,NA,NA,NA,NA,NA,NA,NA,NA,NA,NA,NA,NA,NA,NA,NA,NA,NA
88922,shallow,flow.Sequence,3_0_0_0_1_1,NA,NA,completion,11562.52,232858,232855.88,232876.52,244439.04,244440,2023-08-06T12:30:17Z,244459.88,NULL,Angreifer,mshambulizi,s,kitengo,tasinia,usafirishaji,NA,sdf,NA,0,NA,NA,NA,NA,NA,NA,NA,NA,NA,NA,NA,NA,NA,NA,NA,NA,NA,NA,NA
88922,task,flow.Sequence,3_0_0_0_1,NA,NA,completion,11562.52,232857,232855.88,232876.52,244439.04,244441,2023-08-06T12:30:17Z,244459.88,NULL,Angreifer,mshambulizi,s,kitengo,tasinia,usafirishaji,NA,sdf,NA,0,NA,NA,NA,NA,NA,NA,NA,NA,NA,NA,NA,NA,NA,NA,NA,NA,NA,NA,NA
88922,Deep Question,html.Page,3_0_0_0_2_0_0,NA,NA,form submission,3270.12,244441,244439.04,244459.88,247730,247730,2023-08-06T12:30:21Z,247730.6,NULL,Kanzler,diwani,d,NA,NA,NA,x,NA,NA,0,NA,NA,NA,NA,NA,NA,NA,NA,NA,NA,NA,NA,NA,NA,NA,NA,NA,NA,NA
88922,"""Richtig""-Screen",canvas.Screen,3_0_0_0_2_0_1,NA,NA,skipped,NA,247733,NA,NA,247730,247733,2023-08-06T12:30:21Z,247730.6,NULL,Kanzler,diwani,d,NA,NA,NA,NA,sdf,NA,0,NA,NA,NA,NA,NA,NA,NA,NA,NA,NA,NA,NA,NA,NA,NA,NA,NA,NA,NA
88922,"""Falsch""-Screen",canvas.Screen,3_0_0_0_2_0_2,NA,NA,timeout,5000.04,247735,247727.18,247730.6,252709.94,252714,2023-08-06T12:30:26Z,252730.64,NULL,Kanzler,diwani,d,NA,NA,NA,NA,sdf,0,0,NA,NA,NA,NA,NA,NA,NA,NA,NA,NA,NA,NA,NA,NA,NA,NA,NA,NA,NA
88922,deep,flow.Sequence,3_0_0_0_2_0,NA,NA,completion,8250.06,244441,244439.04,244459.88,252709.94,252716,2023-08-06T12:30:26Z,252730.64,NULL,Kanzler,diwani,d,NA,NA,NA,NA,sdf,NA,0,NA,NA,NA,NA,NA,NA,NA,NA,NA,NA,NA,NA,NA,NA,NA,NA,NA,NA,NA
88922,shallow,flow.Sequence,3_0_0_0_2_1,NA,NA,skipped,NA,252717,NA,NA,252709.94,252717,2023-08-06T12:30:26Z,252730.64,NULL,Kanzler,diwani,d,NA,NA,NA,NA,sdf,NA,0,NA,NA,NA,NA,NA,NA,NA,NA,NA,NA,NA,NA,NA,NA,NA,NA,NA,NA,NA
88922,task,flow.Sequence,3_0_0_0_2,NA,NA,completion,8250.06,244441,244439.04,244459.88,252709.94,252718,2023-08-06T12:30:26Z,252730.64,NULL,Kanzler,diwani,d,NA,NA,NA,NA,sdf,NA,0,NA,NA,NA,NA,NA,NA,NA,NA,NA,NA,NA,NA,NA,NA,NA,NA,NA,NA,NA
88922,Deep Question,html.Page,3_0_0_0_3_0_0,NA,NA,form submission,3328.36,252718,252709.94,252730.64,256059,256059,2023-08-06T12:30:29Z,256063.96,NULL,Flexibilität,kubadilika,d,NA,NA,NA,x,NA,NA,0,NA,NA,NA,NA,NA,NA,NA,NA,NA,NA,NA,NA,NA,NA,NA,NA,NA,NA,NA
88922,"""Richtig""-Screen",canvas.Screen,3_0_0_0_3_0_1,NA,NA,skipped,NA,256062,NA,NA,256059,256062,2023-08-06T12:30:29Z,256063.96,NULL,Flexibilität,kubadilika,d,NA,NA,NA,NA,sdf,NA,0,NA,NA,NA,NA,NA,NA,NA,NA,NA,NA,NA,NA,NA,NA,NA,NA,NA,NA,NA
88922,"""Falsch""-Screen",canvas.Screen,3_0_0_0_3_0_2,NA,NA,timeout,5000.38,256064,256056.5,256063.96,261043.16,261044,2023-08-06T12:30:34Z,261064.34,NULL,Flexibilität,kubadilika,d,NA,NA,NA,NA,sdf,0,0,NA,NA,NA,NA,NA,NA,NA,NA,NA,NA,NA,NA,NA,NA,NA,NA,NA,NA,NA
88922,deep,flow.Sequence,3_0_0_0_3_0,NA,NA,completion,8312.52,252718,252709.94,252730.64,261043.16,261045,2023-08-06T12:30:34Z,261064.34,NULL,Flexibilität,kubadilika,d,NA,NA,NA,NA,sdf,NA,0,NA,NA,NA,NA,NA,NA,NA,NA,NA,NA,NA,NA,NA,NA,NA,NA,NA,NA,NA
88922,shallow,flow.Sequence,3_0_0_0_3_1,NA,NA,skipped,NA,261045,NA,NA,261043.16,261045,2023-08-06T12:30:34Z,261064.34,NULL,Flexibilität,kubadilika,d,NA,NA,NA,NA,sdf,NA,0,NA,NA,NA,NA,NA,NA,NA,NA,NA,NA,NA,NA,NA,NA,NA,NA,NA,NA,NA
88922,task,flow.Sequence,3_0_0_0_3,NA,NA,completion,8312.52,252718,252709.94,252730.64,261043.16,261046,2023-08-06T12:30:34Z,261064.34,NULL,Flexibilität,kubadilika,d,NA,NA,NA,NA,sdf,NA,0,NA,NA,NA,NA,NA,NA,NA,NA,NA,NA,NA,NA,NA,NA,NA,NA,NA,NA,NA
88922,deep,flow.Sequence,3_0_0_0_4_0,NA,NA,skipped,NA,261046,NA,NA,261043.16,261047,2023-08-06T12:30:34Z,261064.34,NULL,Erneuerung,ukarabati,s,ushawishi,ukalifu,unyonyaji,NA,sdf,NA,0,NA,NA,NA,NA,NA,NA,NA,NA,NA,NA,NA,NA,NA,NA,NA,NA,NA,NA,NA
88922,Shallow Question,html.Page,3_0_0_0_4_1_0,NA,NA,form submission,6980.66,261047,261043.16,261064.34,268045,268045,2023-08-06T12:30:41Z,268043.14,NULL,Erneuerung,ukarabati,s,ushawishi,ukalifu,unyonyaji,unyonyaji,NA,NA,0,NA,NA,NA,NA,NA,NA,NA,NA,NA,NA,NA,NA,NA,NA,NA,NA,NA,NA,NA
88922,"""Richtig""-Screen",canvas.Screen,3_0_0_0_4_1_1,NA,NA,skipped,NA,268049,NA,NA,268045,268049,2023-08-06T12:30:41Z,268043.14,NULL,Erneuerung,ukarabati,s,ushawishi,ukalifu,unyonyaji,NA,sdf,NA,0,NA,NA,NA,NA,NA,NA,NA,NA,NA,NA,NA,NA,NA,NA,NA,NA,NA,NA,NA
88922,"""Falsch""-Screen",canvas.Screen,3_0_0_0_4_1_2,NA,NA,timeout,5000.02,268052,268042.64,268043.14,273022.38,273024,2023-08-06T12:30:46Z,273043.16,NULL,Erneuerung,ukarabati,s,ushawishi,ukalifu,unyonyaji,NA,sdf,0,0,NA,NA,NA,NA,NA,NA,NA,NA,NA,NA,NA,NA,NA,NA,NA,NA,NA,NA,NA
88922,shallow,flow.Sequence,3_0_0_0_4_1,NA,NA,completion,11958.04,261047,261043.16,261064.34,273022.38,273024,2023-08-06T12:30:46Z,273043.16,NULL,Erneuerung,ukarabati,s,ushawishi,ukalifu,unyonyaji,NA,sdf,NA,0,NA,NA,NA,NA,NA,NA,NA,NA,NA,NA,NA,NA,NA,NA,NA,NA,NA,NA,NA
88922,task,flow.Sequence,3_0_0_0_4,NA,NA,completion,11958.04,261046,261043.16,261064.34,273022.38,273025,2023-08-06T12:30:46Z,273043.16,NULL,Erneuerung,ukarabati,s,ushawishi,ukalifu,unyonyaji,NA,sdf,NA,0,NA,NA,NA,NA,NA,NA,NA,NA,NA,NA,NA,NA,NA,NA,NA,NA,NA,NA,NA
88922,Deep Question,html.Page,3_0_0_0_5_0_0,NA,NA,form submission,4150.84,273026,273022.38,273043.16,277194,277194,2023-08-06T12:30:50Z,277209.78,NULL,Atmosphäre,angahewa,d,NA,NA,NA,x,NA,NA,0,NA,NA,NA,NA,NA,NA,NA,NA,NA,NA,NA,NA,NA,NA,NA,NA,NA,NA,NA
88922,"""Richtig""-Screen",canvas.Screen,3_0_0_0_5_0_1,NA,NA,skipped,NA,277196,NA,NA,277194,277196,2023-08-06T12:30:50Z,277209.78,NULL,Atmosphäre,angahewa,d,NA,NA,NA,NA,sdf,NA,0,NA,NA,NA,NA,NA,NA,NA,NA,NA,NA,NA,NA,NA,NA,NA,NA,NA,NA,NA
88922,"""Falsch""-Screen",canvas.Screen,3_0_0_0_5_0_2,NA,NA,timeout,5000,277197,277192.04,277209.78,282189.1,282191,2023-08-06T12:30:55Z,282209.78,NULL,Atmosphäre,angahewa,d,NA,NA,NA,NA,sdf,0,0,NA,NA,NA,NA,NA,NA,NA,NA,NA,NA,NA,NA,NA,NA,NA,NA,NA,NA,NA
88922,deep,flow.Sequence,3_0_0_0_5_0,NA,NA,completion,9145.94,273026,273022.38,273043.16,282189.1,282192,2023-08-06T12:30:55Z,282209.78,NULL,Atmosphäre,angahewa,d,NA,NA,NA,NA,sdf,NA,0,NA,NA,NA,NA,NA,NA,NA,NA,NA,NA,NA,NA,NA,NA,NA,NA,NA,NA,NA
88922,shallow,flow.Sequence,3_0_0_0_5_1,NA,NA,skipped,NA,282192,NA,NA,282189.1,282192,2023-08-06T12:30:55Z,282209.78,NULL,Atmosphäre,angahewa,d,NA,NA,NA,NA,sdf,NA,0,NA,NA,NA,NA,NA,NA,NA,NA,NA,NA,NA,NA,NA,NA,NA,NA,NA,NA,NA
88922,task,flow.Sequence,3_0_0_0_5,NA,NA,completion,9145.94,273026,273022.38,273043.16,282189.1,282193,2023-08-06T12:30:55Z,282209.78,NULL,Atmosphäre,angahewa,d,NA,NA,NA,NA,sdf,NA,0,NA,NA,NA,NA,NA,NA,NA,NA,NA,NA,NA,NA,NA,NA,NA,NA,NA,NA,NA
88922,deep,flow.Sequence,3_0_0_0_6_0,NA,NA,skipped,NA,282193,NA,NA,282189.1,282193,2023-08-06T12:30:55Z,282209.78,NULL,Wechsel,ugeuzaji,s,utambulisho,kujenga,wasiwasi,NA,sdf,NA,0,NA,NA,NA,NA,NA,NA,NA,NA,NA,NA,NA,NA,NA,NA,NA,NA,NA,NA,NA
88922,Shallow Question,html.Page,3_0_0_0_6_1_0,NA,NA,form submission,10060.22,282193,282189.1,282209.78,292270,292271,2023-08-06T12:31:05Z,292272.4,NULL,Wechsel,ugeuzaji,s,utambulisho,kujenga,wasiwasi,wasiwasi,NA,NA,0,NA,NA,NA,NA,NA,NA,NA,NA,NA,NA,NA,NA,NA,NA,NA,NA,NA,NA,NA
88922,"""Richtig""-Screen",canvas.Screen,3_0_0_0_6_1_1,NA,NA,skipped,NA,292277,NA,NA,292270,292277,2023-08-06T12:31:05Z,292272.4,NULL,Wechsel,ugeuzaji,s,utambulisho,kujenga,wasiwasi,NA,sdf,NA,0,NA,NA,NA,NA,NA,NA,NA,NA,NA,NA,NA,NA,NA,NA,NA,NA,NA,NA,NA
88922,"""Falsch""-Screen",canvas.Screen,3_0_0_0_6_1_2,NA,NA,timeout,4999.96,292285,292265,292272.4,297251.5,297253,2023-08-06T12:31:10Z,297272.36,NULL,Wechsel,ugeuzaji,s,utambulisho,kujenga,wasiwasi,NA,sdf,0,0,NA,NA,NA,NA,NA,NA,NA,NA,NA,NA,NA,NA,NA,NA,NA,NA,NA,NA,NA
88922,shallow,flow.Sequence,3_0_0_0_6_1,NA,NA,completion,15041.72,282193,282189.1,282209.78,297251.5,297254,2023-08-06T12:31:10Z,297272.36,NULL,Wechsel,ugeuzaji,s,utambulisho,kujenga,wasiwasi,NA,sdf,NA,0,NA,NA,NA,NA,NA,NA,NA,NA,NA,NA,NA,NA,NA,NA,NA,NA,NA,NA,NA
88922,task,flow.Sequence,3_0_0_0_6,NA,NA,completion,15041.72,282193,282189.1,282209.78,297251.5,297255,2023-08-06T12:31:10Z,297272.36,NULL,Wechsel,ugeuzaji,s,utambulisho,kujenga,wasiwasi,NA,sdf,NA,0,NA,NA,NA,NA,NA,NA,NA,NA,NA,NA,NA,NA,NA,NA,NA,NA,NA,NA,NA
88922,deep,flow.Sequence,3_0_0_0_7_0,NA,NA,skipped,NA,297256,NA,NA,297251.5,297256,2023-08-06T12:31:10Z,297272.36,NULL,Sänger,mwimbaji,s,msichana,shughuli,mshirika,NA,sdf,NA,0,NA,NA,NA,NA,NA,NA,NA,NA,NA,NA,NA,NA,NA,NA,NA,NA,NA,NA,NA
88922,Shallow Question,html.Page,3_0_0_0_7_1_0,NA,NA,form submission,7978.64,297257,297251.5,297272.36,305251,305252,2023-08-06T12:31:18Z,305251.5,NULL,Sänger,mwimbaji,s,msichana,shughuli,mshirika,mshirika,NA,NA,0,NA,NA,NA,NA,NA,NA,NA,NA,NA,NA,NA,NA,NA,NA,NA,NA,NA,NA,NA
88922,"""Richtig""-Screen",canvas.Screen,3_0_0_0_7_1_1,NA,NA,skipped,NA,305257,NA,NA,305251,305257,2023-08-06T12:31:18Z,305251.5,NULL,Sänger,mwimbaji,s,msichana,shughuli,mshirika,NA,sdf,NA,0,NA,NA,NA,NA,NA,NA,NA,NA,NA,NA,NA,NA,NA,NA,NA,NA,NA,NA,NA
88922,"""Falsch""-Screen",canvas.Screen,3_0_0_0_7_1_2,NA,NA,timeout,5000.24,305262,305245.46,305251.5,310230.66,310234,2023-08-06T12:31:23Z,310251.74,NULL,Sänger,mwimbaji,s,msichana,shughuli,mshirika,NA,sdf,0,0,NA,NA,NA,NA,NA,NA,NA,NA,NA,NA,NA,NA,NA,NA,NA,NA,NA,NA,NA
88922,shallow,flow.Sequence,3_0_0_0_7_1,NA,NA,completion,12958.3,297257,297251.5,297272.36,310230.66,310236,2023-08-06T12:31:23Z,310251.74,NULL,Sänger,mwimbaji,s,msichana,shughuli,mshirika,NA,sdf,NA,0,NA,NA,NA,NA,NA,NA,NA,NA,NA,NA,NA,NA,NA,NA,NA,NA,NA,NA,NA
88922,task,flow.Sequence,3_0_0_0_7,NA,NA,completion,12958.3,297255,297251.5,297272.36,310230.66,310236,2023-08-06T12:31:23Z,310251.74,NULL,Sänger,mwimbaji,s,msichana,shughuli,mshirika,NA,sdf,NA,0,NA,NA,NA,NA,NA,NA,NA,NA,NA,NA,NA,NA,NA,NA,NA,NA,NA,NA,NA
88922,block,flow.Loop,3_0_0_0,NA,NA,completion,88275.72,221954,221954.58,221954.94,310230.66,310237,2023-08-06T12:31:23Z,310251.74,NULL,NA,NA,NA,NA,NA,NA,NA,sdf,NA,0,NA,NA,NA,NA,NA,NA,NA,NA,NA,NA,NA,NA,NA,NA,NA,NA,NA,NA,NA
88922,weiter,canvas.Screen,3_0_0_1,sdf,keypress(Space),response,1824.26,310237,310230.66,310251.74,312076,312085,2023-08-06T12:31:25Z,312155.54,NULL,NA,NA,NA,NA,NA,NA,NA,sdf,NA,0,NA,NA,NA,NA,NA,NA,NA,NA,NA,NA,NA,NA,NA,NA,NA,NA,NA,NA,NA
88922,check continue,flow.Sequence,3_0_0,NA,NA,completion,90121.06,221954,221954.58,221954.94,312076,312086,2023-08-06T12:31:25Z,312155.54,NULL,NA,NA,NA,NA,NA,NA,NA,sdf,NA,0,NA,NA,NA,NA,NA,NA,NA,NA,NA,NA,NA,NA,NA,NA,NA,NA,NA,NA,NA
88922,deep,flow.Sequence,3_0_1_0_0_0,NA,NA,skipped,NA,312155,NA,NA,312076,312155,2023-08-06T12:31:25Z,312155.54,NULL,Sänger,mwimbaji,s,msichana,shughuli,mshirika,NA,sdfdsf,NA,1,NA,NA,NA,NA,NA,NA,NA,NA,NA,NA,NA,NA,NA,NA,NA,NA,NA,NA,NA
88922,Shallow Question,html.Page,3_0_1_0_0_1_0,NA,NA,form submission,7053.46,312155,312155.18,312155.54,319209,319210,2023-08-06T12:31:32Z,319209.86,NULL,Sänger,mwimbaji,s,msichana,shughuli,mshirika,mwimbaji,NA,NA,1,NA,NA,NA,NA,NA,NA,NA,NA,NA,NA,NA,NA,NA,NA,NA,NA,NA,NA,NA
88922,"""Richtig""-Screen",canvas.Screen,3_0_1_0_0_1_1,NA,NA,timeout,4999.92,319216,319200.62,319209.86,324189.1,324190,2023-08-06T12:31:37Z,324209.78,NULL,Sänger,mwimbaji,s,msichana,shughuli,mshirika,NA,sdfdsf,1,1,NA,NA,NA,NA,NA,NA,NA,NA,NA,NA,NA,NA,NA,NA,NA,NA,NA,NA,NA
88922,"""Falsch""-Screen",canvas.Screen,3_0_1_0_0_1_2,NA,NA,skipped,NA,324196,NA,NA,324189.1,324196,2023-08-06T12:31:37Z,324209.78,NULL,Sänger,mwimbaji,s,msichana,shughuli,mshirika,NA,sdfdsf,NA,1,NA,NA,NA,NA,NA,NA,NA,NA,NA,NA,NA,NA,NA,NA,NA,NA,NA,NA,NA
88922,shallow,flow.Sequence,3_0_1_0_0_1,NA,NA,completion,12033.56,312155,312155.18,312155.54,324189.1,324197,2023-08-06T12:31:37Z,324209.78,NULL,Sänger,mwimbaji,s,msichana,shughuli,mshirika,NA,sdfdsf,NA,1,NA,NA,NA,NA,NA,NA,NA,NA,NA,NA,NA,NA,NA,NA,NA,NA,NA,NA,NA
88922,task,flow.Sequence,3_0_1_0_0,NA,NA,completion,12033.56,312155,312155.18,312155.54,324189.1,324197,2023-08-06T12:31:37Z,324209.78,NULL,Sänger,mwimbaji,s,msichana,shughuli,mshirika,NA,sdfdsf,NA,1,NA,NA,NA,NA,NA,NA,NA,NA,NA,NA,NA,NA,NA,NA,NA,NA,NA,NA,NA
88922,deep,flow.Sequence,3_0_1_0_1_0,NA,NA,skipped,NA,324198,NA,NA,324189.1,324198,2023-08-06T12:31:37Z,324209.78,NULL,Wechsel,ugeuzaji,s,utambulisho,kujenga,wasiwasi,NA,sdfdsf,NA,1,NA,NA,NA,NA,NA,NA,NA,NA,NA,NA,NA,NA,NA,NA,NA,NA,NA,NA,NA
88922,Shallow Question,html.Page,3_0_1_0_1_1_0,NA,NA,form submission,9619.22,324198,324189.1,324209.78,333829,333829,2023-08-06T12:31:47Z,333834.82,NULL,Wechsel,ugeuzaji,s,utambulisho,kujenga,wasiwasi,ugeuzaji,NA,NA,1,NA,NA,NA,NA,NA,NA,NA,NA,NA,NA,NA,NA,NA,NA,NA,NA,NA,NA,NA
88922,"""Richtig""-Screen",canvas.Screen,3_0_1_0_1_1_1,NA,NA,timeout,5000,333833,333825.2,333834.82,338814.4,338816,2023-08-06T12:31:52Z,338834.82,NULL,Wechsel,ugeuzaji,s,utambulisho,kujenga,wasiwasi,NA,sdfdsf,1,1,NA,NA,NA,NA,NA,NA,NA,NA,NA,NA,NA,NA,NA,NA,NA,NA,NA,NA,NA
88922,"""Falsch""-Screen",canvas.Screen,3_0_1_0_1_1_2,NA,NA,skipped,NA,338822,NA,NA,338814.4,338823,2023-08-06T12:31:52Z,338834.82,NULL,Wechsel,ugeuzaji,s,utambulisho,kujenga,wasiwasi,NA,sdfdsf,NA,1,NA,NA,NA,NA,NA,NA,NA,NA,NA,NA,NA,NA,NA,NA,NA,NA,NA,NA,NA
88922,shallow,flow.Sequence,3_0_1_0_1_1,NA,NA,completion,14604.62,324198,324189.1,324209.78,338814.4,338823,2023-08-06T12:31:52Z,338834.82,NULL,Wechsel,ugeuzaji,s,utambulisho,kujenga,wasiwasi,NA,sdfdsf,NA,1,NA,NA,NA,NA,NA,NA,NA,NA,NA,NA,NA,NA,NA,NA,NA,NA,NA,NA,NA
88922,task,flow.Sequence,3_0_1_0_1,NA,NA,completion,14604.62,324198,324189.1,324209.78,338814.4,338824,2023-08-06T12:31:52Z,338834.82,NULL,Wechsel,ugeuzaji,s,utambulisho,kujenga,wasiwasi,NA,sdfdsf,NA,1,NA,NA,NA,NA,NA,NA,NA,NA,NA,NA,NA,NA,NA,NA,NA,NA,NA,NA,NA
88922,Deep Question,html.Page,3_0_1_0_2_0_0,NA,NA,form submission,8646.18,338824,338814.4,338834.82,347481,347481,2023-08-06T12:32:00Z,347480.62,NULL,Kanzler,diwani,d,NA,NA,NA,mbanji,NA,NA,1,NA,NA,NA,NA,NA,NA,NA,NA,NA,NA,NA,NA,NA,NA,NA,NA,NA,NA,NA
88922,"""Richtig""-Screen",canvas.Screen,3_0_1_0_2_0_1,NA,NA,skipped,NA,347482,NA,NA,347481,347482,2023-08-06T12:32:00Z,347480.62,NULL,Kanzler,diwani,d,NA,NA,NA,NA,sdfdsf,NA,1,NA,NA,NA,NA,NA,NA,NA,NA,NA,NA,NA,NA,NA,NA,NA,NA,NA,NA,NA
88922,"""Falsch""-Screen",canvas.Screen,3_0_1_0_2_0_2,NA,NA,timeout,5000.14,347483,347478.94,347480.62,352459.88,352461,2023-08-06T12:32:05Z,352480.76,NULL,Kanzler,diwani,d,NA,NA,NA,NA,sdfdsf,0,1,NA,NA,NA,NA,NA,NA,NA,NA,NA,NA,NA,NA,NA,NA,NA,NA,NA,NA,NA
88922,deep,flow.Sequence,3_0_1_0_2_0,NA,NA,completion,13625.06,338824,338814.4,338834.82,352459.88,352461,2023-08-06T12:32:05Z,352480.76,NULL,Kanzler,diwani,d,NA,NA,NA,NA,sdfdsf,NA,1,NA,NA,NA,NA,NA,NA,NA,NA,NA,NA,NA,NA,NA,NA,NA,NA,NA,NA,NA
88922,shallow,flow.Sequence,3_0_1_0_2_1,NA,NA,skipped,NA,352461,NA,NA,352459.88,352462,2023-08-06T12:32:05Z,352480.76,NULL,Kanzler,diwani,d,NA,NA,NA,NA,sdfdsf,NA,1,NA,NA,NA,NA,NA,NA,NA,NA,NA,NA,NA,NA,NA,NA,NA,NA,NA,NA,NA
88922,task,flow.Sequence,3_0_1_0_2,NA,NA,completion,13625.06,338824,338814.4,338834.82,352459.88,352462,2023-08-06T12:32:05Z,352480.76,NULL,Kanzler,diwani,d,NA,NA,NA,NA,sdfdsf,NA,1,NA,NA,NA,NA,NA,NA,NA,NA,NA,NA,NA,NA,NA,NA,NA,NA,NA,NA,NA
88922,Deep Question,html.Page,3_0_1_0_3_0_0,NA,NA,form submission,8054.24,352462,352459.88,352480.76,360535,360535,2023-08-06T12:32:13Z,360543.16,NULL,Atmosphäre,angahewa,d,NA,NA,NA,u,NA,NA,1,NA,NA,NA,NA,NA,NA,NA,NA,NA,NA,NA,NA,NA,NA,NA,NA,NA,NA,NA
88922,"""Richtig""-Screen",canvas.Screen,3_0_1_0_3_0_1,NA,NA,skipped,NA,360538,NA,NA,360535,360538,2023-08-06T12:32:13Z,360543.16,NULL,Atmosphäre,angahewa,d,NA,NA,NA,NA,sdfdsf,NA,1,NA,NA,NA,NA,NA,NA,NA,NA,NA,NA,NA,NA,NA,NA,NA,NA,NA,NA,NA
88922,"""Falsch""-Screen",canvas.Screen,3_0_1_0_3_0_2,NA,NA,timeout,5000.1,360542,360529.76,360543.16,365522.84,365524,2023-08-06T12:32:18Z,365543.26,NULL,Atmosphäre,angahewa,d,NA,NA,NA,NA,sdfdsf,0,1,NA,NA,NA,NA,NA,NA,NA,NA,NA,NA,NA,NA,NA,NA,NA,NA,NA,NA,NA
88922,deep,flow.Sequence,3_0_1_0_3_0,NA,NA,completion,13042.08,352462,352459.88,352480.76,365522.84,365524,2023-08-06T12:32:18Z,365543.26,NULL,Atmosphäre,angahewa,d,NA,NA,NA,NA,sdfdsf,NA,1,NA,NA,NA,NA,NA,NA,NA,NA,NA,NA,NA,NA,NA,NA,NA,NA,NA,NA,NA
88922,shallow,flow.Sequence,3_0_1_0_3_1,NA,NA,skipped,NA,365525,NA,NA,365522.84,365525,2023-08-06T12:32:18Z,365543.26,NULL,Atmosphäre,angahewa,d,NA,NA,NA,NA,sdfdsf,NA,1,NA,NA,NA,NA,NA,NA,NA,NA,NA,NA,NA,NA,NA,NA,NA,NA,NA,NA,NA
88922,task,flow.Sequence,3_0_1_0_3,NA,NA,completion,13042.08,352462,352459.88,352480.76,365522.84,365525,2023-08-06T12:32:18Z,365543.26,NULL,Atmosphäre,angahewa,d,NA,NA,NA,NA,sdfdsf,NA,1,NA,NA,NA,NA,NA,NA,NA,NA,NA,NA,NA,NA,NA,NA,NA,NA,NA,NA,NA
88922,deep,flow.Sequence,3_0_1_0_4_0,NA,NA,skipped,NA,365525,NA,NA,365522.84,365526,2023-08-06T12:32:18Z,365543.26,NULL,Erneuerung,ukarabati,s,ushawishi,ukalifu,unyonyaji,NA,sdfdsf,NA,1,NA,NA,NA,NA,NA,NA,NA,NA,NA,NA,NA,NA,NA,NA,NA,NA,NA,NA,NA
88922,Shallow Question,html.Page,3_0_1_0_4_1_0,NA,NA,form submission,11911.74,365526,365522.84,365543.26,377455,377455,2023-08-06T12:32:30Z,377459.86,NULL,Erneuerung,ukarabati,s,ushawishi,ukalifu,unyonyaji,unyonyaji,NA,NA,1,NA,NA,NA,NA,NA,NA,NA,NA,NA,NA,NA,NA,NA,NA,NA,NA,NA,NA,NA
88922,"""Richtig""-Screen",canvas.Screen,3_0_1_0_4_1_1,NA,NA,skipped,NA,377457,NA,NA,377455,377457,2023-08-06T12:32:30Z,377459.86,NULL,Erneuerung,ukarabati,s,ushawishi,ukalifu,unyonyaji,NA,sdfdsf,NA,1,NA,NA,NA,NA,NA,NA,NA,NA,NA,NA,NA,NA,NA,NA,NA,NA,NA,NA,NA
88922,"""Falsch""-Screen",canvas.Screen,3_0_1_0_4_1_2,NA,NA,timeout,4999.98,377461,377452.88,377459.86,382439.44,382441,2023-08-06T12:32:35Z,382459.84,NULL,Erneuerung,ukarabati,s,ushawishi,ukalifu,unyonyaji,NA,sdfdsf,0,1,NA,NA,NA,NA,NA,NA,NA,NA,NA,NA,NA,NA,NA,NA,NA,NA,NA,NA,NA
88922,shallow,flow.Sequence,3_0_1_0_4_1,NA,NA,completion,16896.18,365526,365522.84,365543.26,382439.44,382441,2023-08-06T12:32:35Z,382459.84,NULL,Erneuerung,ukarabati,s,ushawishi,ukalifu,unyonyaji,NA,sdfdsf,NA,1,NA,NA,NA,NA,NA,NA,NA,NA,NA,NA,NA,NA,NA,NA,NA,NA,NA,NA,NA
88922,task,flow.Sequence,3_0_1_0_4,NA,NA,completion,16896.18,365525,365522.84,365543.26,382439.44,382442,2023-08-06T12:32:35Z,382459.84,NULL,Erneuerung,ukarabati,s,ushawishi,ukalifu,unyonyaji,NA,sdfdsf,NA,1,NA,NA,NA,NA,NA,NA,NA,NA,NA,NA,NA,NA,NA,NA,NA,NA,NA,NA,NA
88922,deep,flow.Sequence,3_0_1_0_5_0,NA,NA,skipped,NA,382442,NA,NA,382439.44,382442,2023-08-06T12:32:35Z,382459.84,NULL,Angreifer,mshambulizi,s,kitengo,tasinia,usafirishaji,NA,sdfdsf,NA,1,NA,NA,NA,NA,NA,NA,NA,NA,NA,NA,NA,NA,NA,NA,NA,NA,NA,NA,NA
88922,Shallow Question,html.Page,3_0_1_0_5_1_0,NA,NA,form submission,7629.16,382443,382439.44,382459.84,390089,390089,2023-08-06T12:32:43Z,390106.06,NULL,Angreifer,mshambulizi,s,kitengo,tasinia,usafirishaji,mshambulizi,NA,NA,1,NA,NA,NA,NA,NA,NA,NA,NA,NA,NA,NA,NA,NA,NA,NA,NA,NA,NA,NA
88922,"""Richtig""-Screen",canvas.Screen,3_0_1_0_5_1_1,NA,NA,timeout,4999.8,390092,390085.72,390106.06,395084.9,395086,2023-08-06T12:32:48Z,395105.86,NULL,Angreifer,mshambulizi,s,kitengo,tasinia,usafirishaji,NA,sdfdsf,1,1,NA,NA,NA,NA,NA,NA,NA,NA,NA,NA,NA,NA,NA,NA,NA,NA,NA,NA,NA
88922,"""Falsch""-Screen",canvas.Screen,3_0_1_0_5_1_2,NA,NA,skipped,NA,395089,NA,NA,395084.9,395089,2023-08-06T12:32:48Z,395105.86,NULL,Angreifer,mshambulizi,s,kitengo,tasinia,usafirishaji,NA,sdfdsf,NA,1,NA,NA,NA,NA,NA,NA,NA,NA,NA,NA,NA,NA,NA,NA,NA,NA,NA,NA,NA
88922,shallow,flow.Sequence,3_0_1_0_5_1,NA,NA,completion,12625.06,382442,382439.44,382459.84,395084.9,395090,2023-08-06T12:32:48Z,395105.86,NULL,Angreifer,mshambulizi,s,kitengo,tasinia,usafirishaji,NA,sdfdsf,NA,1,NA,NA,NA,NA,NA,NA,NA,NA,NA,NA,NA,NA,NA,NA,NA,NA,NA,NA,NA
88922,task,flow.Sequence,3_0_1_0_5,NA,NA,completion,12625.06,382442,382439.44,382459.84,395084.9,395090,2023-08-06T12:32:48Z,395105.86,NULL,Angreifer,mshambulizi,s,kitengo,tasinia,usafirishaji,NA,sdfdsf,NA,1,NA,NA,NA,NA,NA,NA,NA,NA,NA,NA,NA,NA,NA,NA,NA,NA,NA,NA,NA
88922,Deep Question,html.Page,3_0_1_0_6_0_0,NA,NA,form submission,4442.14,395090,395084.9,395105.86,399548,399549,2023-08-06T12:32:52Z,399564.1,NULL,Abrechnung,uhasibu,d,NA,NA,NA,m,NA,NA,1,NA,NA,NA,NA,NA,NA,NA,NA,NA,NA,NA,NA,NA,NA,NA,NA,NA,NA,NA
88922,"""Richtig""-Screen",canvas.Screen,3_0_1_0_6_0_1,NA,NA,skipped,NA,399549,NA,NA,399548,399550,2023-08-06T12:32:52Z,399564.1,NULL,Abrechnung,uhasibu,d,NA,NA,NA,NA,sdfdsf,NA,1,NA,NA,NA,NA,NA,NA,NA,NA,NA,NA,NA,NA,NA,NA,NA,NA,NA,NA,NA
88922,"""Falsch""-Screen",canvas.Screen,3_0_1_0_6_0_2,NA,NA,timeout,5000.2,399551,399546.6,399564.1,404543.2,404545,2023-08-06T12:32:57Z,404564.3,NULL,Abrechnung,uhasibu,d,NA,NA,NA,NA,sdfdsf,0,1,NA,NA,NA,NA,NA,NA,NA,NA,NA,NA,NA,NA,NA,NA,NA,NA,NA,NA,NA
88922,deep,flow.Sequence,3_0_1_0_6_0,NA,NA,completion,9437.34,395090,395084.9,395105.86,404543.2,404546,2023-08-06T12:32:57Z,404564.3,NULL,Abrechnung,uhasibu,d,NA,NA,NA,NA,sdfdsf,NA,1,NA,NA,NA,NA,NA,NA,NA,NA,NA,NA,NA,NA,NA,NA,NA,NA,NA,NA,NA
88922,shallow,flow.Sequence,3_0_1_0_6_1,NA,NA,skipped,NA,404546,NA,NA,404543.2,404547,2023-08-06T12:32:57Z,404564.3,NULL,Abrechnung,uhasibu,d,NA,NA,NA,NA,sdfdsf,NA,1,NA,NA,NA,NA,NA,NA,NA,NA,NA,NA,NA,NA,NA,NA,NA,NA,NA,NA,NA
88922,task,flow.Sequence,3_0_1_0_6,NA,NA,completion,9437.34,395090,395084.9,395105.86,404543.2,404547,2023-08-06T12:32:57Z,404564.3,NULL,Abrechnung,uhasibu,d,NA,NA,NA,NA,sdfdsf,NA,1,NA,NA,NA,NA,NA,NA,NA,NA,NA,NA,NA,NA,NA,NA,NA,NA,NA,NA,NA
88922,Deep Question,html.Page,3_0_1_0_7_0_0,NA,NA,form submission,8895.7,404548,404543.2,404564.3,413460,413461,2023-08-06T12:33:06Z,413459.88,NULL,Flexibilität,kubadilika,d,NA,NA,NA,u,NA,NA,1,NA,NA,NA,NA,NA,NA,NA,NA,NA,NA,NA,NA,NA,NA,NA,NA,NA,NA,NA
88922,"""Richtig""-Screen",canvas.Screen,3_0_1_0_7_0_1,NA,NA,skipped,NA,413469,NA,NA,413460,413469,2023-08-06T12:33:06Z,413459.88,NULL,Flexibilität,kubadilika,d,NA,NA,NA,NA,sdfdsf,NA,1,NA,NA,NA,NA,NA,NA,NA,NA,NA,NA,NA,NA,NA,NA,NA,NA,NA,NA,NA
88922,"""Falsch""-Screen",canvas.Screen,3_0_1_0_7_0_2,NA,NA,timeout,5000.02,413471,413452,413459.88,418439.46,418441,2023-08-06T12:33:11Z,418459.9,NULL,Flexibilität,kubadilika,d,NA,NA,NA,NA,sdfdsf,0,1,NA,NA,NA,NA,NA,NA,NA,NA,NA,NA,NA,NA,NA,NA,NA,NA,NA,NA,NA
88922,deep,flow.Sequence,3_0_1_0_7_0,NA,NA,completion,13875.16,404547,404543.2,404564.3,418439.46,418442,2023-08-06T12:33:11Z,418459.9,NULL,Flexibilität,kubadilika,d,NA,NA,NA,NA,sdfdsf,NA,1,NA,NA,NA,NA,NA,NA,NA,NA,NA,NA,NA,NA,NA,NA,NA,NA,NA,NA,NA
88922,shallow,flow.Sequence,3_0_1_0_7_1,NA,NA,skipped,NA,418443,NA,NA,418439.46,418443,2023-08-06T12:33:11Z,418459.9,NULL,Flexibilität,kubadilika,d,NA,NA,NA,NA,sdfdsf,NA,1,NA,NA,NA,NA,NA,NA,NA,NA,NA,NA,NA,NA,NA,NA,NA,NA,NA,NA,NA
88922,task,flow.Sequence,3_0_1_0_7,NA,NA,completion,13875.16,404547,404543.2,404564.3,418439.46,418444,2023-08-06T12:33:11Z,418459.9,NULL,Flexibilität,kubadilika,d,NA,NA,NA,NA,sdfdsf,NA,1,NA,NA,NA,NA,NA,NA,NA,NA,NA,NA,NA,NA,NA,NA,NA,NA,NA,NA,NA
88922,block,flow.Loop,3_0_1_0,NA,NA,completion,106283.92,312154,312155.18,312155.54,418439.46,418445,2023-08-06T12:33:11Z,418459.9,NULL,NA,NA,NA,NA,NA,NA,NA,sdfdsf,NA,1,NA,NA,NA,NA,NA,NA,NA,NA,NA,NA,NA,NA,NA,NA,NA,NA,NA,NA,NA
88922,weiter,canvas.Screen,3_0_1_1,sdf,keypress(Space),response,3522.1,418446,418439.46,418459.9,421982,421990,2023-08-06T12:33:15Z,422044.92,NULL,NA,NA,NA,NA,NA,NA,NA,sdfdsf,NA,1,NA,NA,NA,NA,NA,NA,NA,NA,NA,NA,NA,NA,NA,NA,NA,NA,NA,NA,NA
88922,check continue,flow.Sequence,3_0_1,NA,NA,completion,109826.46,312154,312155.18,312155.54,421982,421992,2023-08-06T12:33:15Z,422044.92,NULL,NA,NA,NA,NA,NA,NA,NA,sdfdsf,NA,1,NA,NA,NA,NA,NA,NA,NA,NA,NA,NA,NA,NA,NA,NA,NA,NA,NA,NA,NA
88922,Deep Question,html.Page,3_0_2_0_0_0_0,NA,NA,form submission,4938.08,422044,422044.58,422044.92,426983,426983,2023-08-06T12:33:20Z,427001.54,NULL,Flexibilität,kubadilika,d,NA,NA,NA,ulasibu,NA,NA,2,NA,NA,NA,NA,NA,NA,NA,NA,NA,NA,NA,NA,NA,NA,NA,NA,NA,NA,NA
88922,"""Richtig""-Screen",canvas.Screen,3_0_2_0_0_0_1,NA,NA,skipped,NA,426985,NA,NA,426983,426985,2023-08-06T12:33:20Z,427001.54,NULL,Flexibilität,kubadilika,d,NA,NA,NA,NA,sdf,NA,2,NA,NA,NA,NA,NA,NA,NA,NA,NA,NA,NA,NA,NA,NA,NA,NA,NA,NA,NA
88922,"""Falsch""-Screen",canvas.Screen,3_0_2_0_0_0_2,NA,NA,timeout,5000.02,426986,426980.84,427001.54,431980.74,431982,2023-08-06T12:33:25Z,432001.56,NULL,Flexibilität,kubadilika,d,NA,NA,NA,NA,sdf,0,2,NA,NA,NA,NA,NA,NA,NA,NA,NA,NA,NA,NA,NA,NA,NA,NA,NA,NA,NA
88922,deep,flow.Sequence,3_0_2_0_0_0,NA,NA,completion,9935.82,422044,422044.58,422044.92,431980.74,431982,2023-08-06T12:33:25Z,432001.56,NULL,Flexibilität,kubadilika,d,NA,NA,NA,NA,sdf,NA,2,NA,NA,NA,NA,NA,NA,NA,NA,NA,NA,NA,NA,NA,NA,NA,NA,NA,NA,NA
88922,shallow,flow.Sequence,3_0_2_0_0_1,NA,NA,skipped,NA,431983,NA,NA,431980.74,431983,2023-08-06T12:33:25Z,432001.56,NULL,Flexibilität,kubadilika,d,NA,NA,NA,NA,sdf,NA,2,NA,NA,NA,NA,NA,NA,NA,NA,NA,NA,NA,NA,NA,NA,NA,NA,NA,NA,NA
88922,task,flow.Sequence,3_0_2_0_0,NA,NA,completion,9935.82,422044,422044.58,422044.92,431980.74,431983,2023-08-06T12:33:25Z,432001.56,NULL,Flexibilität,kubadilika,d,NA,NA,NA,NA,sdf,NA,2,NA,NA,NA,NA,NA,NA,NA,NA,NA,NA,NA,NA,NA,NA,NA,NA,NA,NA,NA
88922,deep,flow.Sequence,3_0_2_0_1_0,NA,NA,skipped,NA,431984,NA,NA,431980.74,431984,2023-08-06T12:33:25Z,432001.56,NULL,Wechsel,ugeuzaji,s,utambulisho,kujenga,wasiwasi,NA,sdf,NA,2,NA,NA,NA,NA,NA,NA,NA,NA,NA,NA,NA,NA,NA,NA,NA,NA,NA,NA,NA
88922,Shallow Question,html.Page,3_0_2_0_1_1_0,NA,NA,form submission,9196.44,431984,431980.74,432001.56,441198,441199,2023-08-06T12:33:34Z,441210.02,NULL,Wechsel,ugeuzaji,s,utambulisho,kujenga,wasiwasi,ugeuzaji,NA,NA,2,NA,NA,NA,NA,NA,NA,NA,NA,NA,NA,NA,NA,NA,NA,NA,NA,NA,NA,NA
88922,"""Richtig""-Screen",canvas.Screen,3_0_2_0_1_1_1,NA,NA,timeout,4999.84,441204,441192.1,441210.02,446189.3,446190,2023-08-06T12:33:39Z,446209.86,NULL,Wechsel,ugeuzaji,s,utambulisho,kujenga,wasiwasi,NA,sdf,1,2,NA,NA,NA,NA,NA,NA,NA,NA,NA,NA,NA,NA,NA,NA,NA,NA,NA,NA,NA
88922,"""Falsch""-Screen",canvas.Screen,3_0_2_0_1_1_2,NA,NA,skipped,NA,446192,NA,NA,446189.3,446192,2023-08-06T12:33:39Z,446209.86,NULL,Wechsel,ugeuzaji,s,utambulisho,kujenga,wasiwasi,NA,sdf,NA,2,NA,NA,NA,NA,NA,NA,NA,NA,NA,NA,NA,NA,NA,NA,NA,NA,NA,NA,NA
88922,shallow,flow.Sequence,3_0_2_0_1_1,NA,NA,completion,14187.74,431984,431980.74,432001.56,446189.3,446193,2023-08-06T12:33:39Z,446209.86,NULL,Wechsel,ugeuzaji,s,utambulisho,kujenga,wasiwasi,NA,sdf,NA,2,NA,NA,NA,NA,NA,NA,NA,NA,NA,NA,NA,NA,NA,NA,NA,NA,NA,NA,NA
88922,task,flow.Sequence,3_0_2_0_1,NA,NA,completion,14187.74,431984,431980.74,432001.56,446189.3,446193,2023-08-06T12:33:39Z,446209.86,NULL,Wechsel,ugeuzaji,s,utambulisho,kujenga,wasiwasi,NA,sdf,NA,2,NA,NA,NA,NA,NA,NA,NA,NA,NA,NA,NA,NA,NA,NA,NA,NA,NA,NA,NA
88922,Deep Question,html.Page,3_0_2_0_2_0_0,NA,NA,form submission,10905.14,446193,446189.3,446209.86,457115,457116,2023-08-06T12:33:50Z,457126.6,NULL,Abrechnung,uhasibu,d,NA,NA,NA,ubulaji,NA,NA,2,NA,NA,NA,NA,NA,NA,NA,NA,NA,NA,NA,NA,NA,NA,NA,NA,NA,NA,NA
88922,"""Richtig""-Screen",canvas.Screen,3_0_2_0_2_0_1,NA,NA,skipped,NA,457121,NA,NA,457115,457121,2023-08-06T12:33:50Z,457126.6,NULL,Abrechnung,uhasibu,d,NA,NA,NA,NA,sdf,NA,2,NA,NA,NA,NA,NA,NA,NA,NA,NA,NA,NA,NA,NA,NA,NA,NA,NA,NA,NA
88922,"""Falsch""-Screen",canvas.Screen,3_0_2_0_2_0_2,NA,NA,timeout,5000.14,457126,457108.84,457126.6,462105.78,462109,2023-08-06T12:33:55Z,462126.74,NULL,Abrechnung,uhasibu,d,NA,NA,NA,NA,sdf,0,2,NA,NA,NA,NA,NA,NA,NA,NA,NA,NA,NA,NA,NA,NA,NA,NA,NA,NA,NA
88922,deep,flow.Sequence,3_0_2_0_2_0,NA,NA,completion,15895.92,446193,446189.3,446209.86,462105.78,462111,2023-08-06T12:33:55Z,462126.74,NULL,Abrechnung,uhasibu,d,NA,NA,NA,NA,sdf,NA,2,NA,NA,NA,NA,NA,NA,NA,NA,NA,NA,NA,NA,NA,NA,NA,NA,NA,NA,NA
88922,shallow,flow.Sequence,3_0_2_0_2_1,NA,NA,skipped,NA,462112,NA,NA,462105.78,462112,2023-08-06T12:33:55Z,462126.74,NULL,Abrechnung,uhasibu,d,NA,NA,NA,NA,sdf,NA,2,NA,NA,NA,NA,NA,NA,NA,NA,NA,NA,NA,NA,NA,NA,NA,NA,NA,NA,NA
88922,task,flow.Sequence,3_0_2_0_2,NA,NA,completion,15895.92,446193,446189.3,446209.86,462105.78,462112,2023-08-06T12:33:55Z,462126.74,NULL,Abrechnung,uhasibu,d,NA,NA,NA,NA,sdf,NA,2,NA,NA,NA,NA,NA,NA,NA,NA,NA,NA,NA,NA,NA,NA,NA,NA,NA,NA,NA
88922,deep,flow.Sequence,3_0_2_0_3_0,NA,NA,skipped,NA,462113,NA,NA,462105.78,462113,2023-08-06T12:33:55Z,462126.74,NULL,Erneuerung,ukarabati,s,ushawishi,ukalifu,unyonyaji,NA,sdf,NA,2,NA,NA,NA,NA,NA,NA,NA,NA,NA,NA,NA,NA,NA,NA,NA,NA,NA,NA,NA
88922,Shallow Question,html.Page,3_0_2_0_3_1_0,NA,NA,form submission,8239.26,462113,462105.78,462126.74,470366,470367,2023-08-06T12:34:03Z,470376.58,NULL,Erneuerung,ukarabati,s,ushawishi,ukalifu,unyonyaji,unyonyaji,NA,NA,2,NA,NA,NA,NA,NA,NA,NA,NA,NA,NA,NA,NA,NA,NA,NA,NA,NA,NA,NA
88922,"""Richtig""-Screen",canvas.Screen,3_0_2_0_3_1_1,NA,NA,skipped,NA,470373,NA,NA,470366,470373,2023-08-06T12:34:03Z,470376.58,NULL,Erneuerung,ukarabati,s,ushawishi,ukalifu,unyonyaji,NA,sdf,NA,2,NA,NA,NA,NA,NA,NA,NA,NA,NA,NA,NA,NA,NA,NA,NA,NA,NA,NA,NA
88922,"""Falsch""-Screen",canvas.Screen,3_0_2_0_3_1_2,NA,NA,timeout,4999.98,470377,470358.32,470376.58,475356.26,475358,2023-08-06T12:34:08Z,475376.56,NULL,Erneuerung,ukarabati,s,ushawishi,ukalifu,unyonyaji,NA,sdf,0,2,NA,NA,NA,NA,NA,NA,NA,NA,NA,NA,NA,NA,NA,NA,NA,NA,NA,NA,NA
88922,shallow,flow.Sequence,3_0_2_0_3_1,NA,NA,completion,13229.52,462113,462105.78,462126.74,475356.26,475359,2023-08-06T12:34:08Z,475376.56,NULL,Erneuerung,ukarabati,s,ushawishi,ukalifu,unyonyaji,NA,sdf,NA,2,NA,NA,NA,NA,NA,NA,NA,NA,NA,NA,NA,NA,NA,NA,NA,NA,NA,NA,NA
88922,task,flow.Sequence,3_0_2_0_3,NA,NA,completion,13229.52,462112,462105.78,462126.74,475356.26,475360,2023-08-06T12:34:08Z,475376.56,NULL,Erneuerung,ukarabati,s,ushawishi,ukalifu,unyonyaji,NA,sdf,NA,2,NA,NA,NA,NA,NA,NA,NA,NA,NA,NA,NA,NA,NA,NA,NA,NA,NA,NA,NA
88922,Deep Question,html.Page,3_0_2_0_4_0_0,NA,NA,form submission,7860.44,475361,475356.26,475376.56,483237,483237,2023-08-06T12:34:16Z,483251.52,NULL,Kanzler,diwani,d,NA,NA,NA,danibu,NA,NA,2,NA,NA,NA,NA,NA,NA,NA,NA,NA,NA,NA,NA,NA,NA,NA,NA,NA,NA,NA
88922,"""Richtig""-Screen",canvas.Screen,3_0_2_0_4_0_1,NA,NA,skipped,NA,483239,NA,NA,483237,483239,2023-08-06T12:34:16Z,483251.52,NULL,Kanzler,diwani,d,NA,NA,NA,NA,sdf,NA,2,NA,NA,NA,NA,NA,NA,NA,NA,NA,NA,NA,NA,NA,NA,NA,NA,NA,NA,NA
88922,"""Falsch""-Screen",canvas.Screen,3_0_2_0_4_0_2,NA,NA,timeout,5000.24,483240,483232.16,483251.52,488231.1,488232,2023-08-06T12:34:21Z,488251.76,NULL,Kanzler,diwani,d,NA,NA,NA,NA,sdf,0,2,NA,NA,NA,NA,NA,NA,NA,NA,NA,NA,NA,NA,NA,NA,NA,NA,NA,NA,NA
88922,deep,flow.Sequence,3_0_2_0_4_0,NA,NA,completion,12854.54,475361,475356.26,475376.56,488231.1,488232,2023-08-06T12:34:21Z,488251.76,NULL,Kanzler,diwani,d,NA,NA,NA,NA,sdf,NA,2,NA,NA,NA,NA,NA,NA,NA,NA,NA,NA,NA,NA,NA,NA,NA,NA,NA,NA,NA
88922,shallow,flow.Sequence,3_0_2_0_4_1,NA,NA,skipped,NA,488232,NA,NA,488231.1,488232,2023-08-06T12:34:21Z,488251.76,NULL,Kanzler,diwani,d,NA,NA,NA,NA,sdf,NA,2,NA,NA,NA,NA,NA,NA,NA,NA,NA,NA,NA,NA,NA,NA,NA,NA,NA,NA,NA
88922,task,flow.Sequence,3_0_2_0_4,NA,NA,completion,12854.54,475360,475356.26,475376.56,488231.1,488232,2023-08-06T12:34:21Z,488251.76,NULL,Kanzler,diwani,d,NA,NA,NA,NA,sdf,NA,2,NA,NA,NA,NA,NA,NA,NA,NA,NA,NA,NA,NA,NA,NA,NA,NA,NA,NA,NA
88922,Deep Question,html.Page,3_0_2_0_5_0_0,NA,NA,form submission,7133.24,488233,488231.1,488251.76,495385,495385,2023-08-06T12:34:28Z,495397.38,NULL,Atmosphäre,angahewa,d,NA,NA,NA,diwani,NA,NA,2,NA,NA,NA,NA,NA,NA,NA,NA,NA,NA,NA,NA,NA,NA,NA,NA,NA,NA,NA
88922,"""Richtig""-Screen",canvas.Screen,3_0_2_0_5_0_1,NA,NA,skipped,NA,495388,NA,NA,495385,495388,2023-08-06T12:34:28Z,495397.38,NULL,Atmosphäre,angahewa,d,NA,NA,NA,NA,sdf,NA,2,NA,NA,NA,NA,NA,NA,NA,NA,NA,NA,NA,NA,NA,NA,NA,NA,NA,NA,NA
88922,"""Falsch""-Screen",canvas.Screen,3_0_2_0_5_0_2,NA,NA,timeout,5000.04,495391,495383.44,495397.38,500377,500378,2023-08-06T12:34:33Z,500397.42,NULL,Atmosphäre,angahewa,d,NA,NA,NA,NA,sdf,0,2,NA,NA,NA,NA,NA,NA,NA,NA,NA,NA,NA,NA,NA,NA,NA,NA,NA,NA,NA
88922,deep,flow.Sequence,3_0_2_0_5_0,NA,NA,completion,12125.24,488233,488231.1,488251.76,500377,500379,2023-08-06T12:34:33Z,500397.42,NULL,Atmosphäre,angahewa,d,NA,NA,NA,NA,sdf,NA,2,NA,NA,NA,NA,NA,NA,NA,NA,NA,NA,NA,NA,NA,NA,NA,NA,NA,NA,NA
88922,shallow,flow.Sequence,3_0_2_0_5_1,NA,NA,skipped,NA,500380,NA,NA,500377,500380,2023-08-06T12:34:33Z,500397.42,NULL,Atmosphäre,angahewa,d,NA,NA,NA,NA,sdf,NA,2,NA,NA,NA,NA,NA,NA,NA,NA,NA,NA,NA,NA,NA,NA,NA,NA,NA,NA,NA
88922,task,flow.Sequence,3_0_2_0_5,NA,NA,completion,12125.24,488232,488231.1,488251.76,500377,500380,2023-08-06T12:34:33Z,500397.42,NULL,Atmosphäre,angahewa,d,NA,NA,NA,NA,sdf,NA,2,NA,NA,NA,NA,NA,NA,NA,NA,NA,NA,NA,NA,NA,NA,NA,NA,NA,NA,NA
88922,deep,flow.Sequence,3_0_2_0_6_0,NA,NA,skipped,NA,500380,NA,NA,500377,500381,2023-08-06T12:34:33Z,500397.42,NULL,Angreifer,mshambulizi,s,kitengo,tasinia,usafirishaji,NA,sdf,NA,2,NA,NA,NA,NA,NA,NA,NA,NA,NA,NA,NA,NA,NA,NA,NA,NA,NA,NA,NA
88922,Shallow Question,html.Page,3_0_2_0_6_1_0,NA,NA,form submission,4760.58,500381,500377,500397.42,505158,505158,2023-08-06T12:34:38Z,505168.24,NULL,Angreifer,mshambulizi,s,kitengo,tasinia,usafirishaji,mshambulizi,NA,NA,2,NA,NA,NA,NA,NA,NA,NA,NA,NA,NA,NA,NA,NA,NA,NA,NA,NA,NA,NA
88922,"""Richtig""-Screen",canvas.Screen,3_0_2_0_6_1_1,NA,NA,timeout,5000.06,505160,505156.66,505168.24,510147.82,510149,2023-08-06T12:34:43Z,510168.3,NULL,Angreifer,mshambulizi,s,kitengo,tasinia,usafirishaji,NA,sdf,1,2,NA,NA,NA,NA,NA,NA,NA,NA,NA,NA,NA,NA,NA,NA,NA,NA,NA,NA,NA
88922,"""Falsch""-Screen",canvas.Screen,3_0_2_0_6_1_2,NA,NA,skipped,NA,510158,NA,NA,510147.82,510158,2023-08-06T12:34:43Z,510168.3,NULL,Angreifer,mshambulizi,s,kitengo,tasinia,usafirishaji,NA,sdf,NA,2,NA,NA,NA,NA,NA,NA,NA,NA,NA,NA,NA,NA,NA,NA,NA,NA,NA,NA,NA
88922,shallow,flow.Sequence,3_0_2_0_6_1,NA,NA,completion,9750.4,500381,500377,500397.42,510147.82,510159,2023-08-06T12:34:43Z,510168.3,NULL,Angreifer,mshambulizi,s,kitengo,tasinia,usafirishaji,NA,sdf,NA,2,NA,NA,NA,NA,NA,NA,NA,NA,NA,NA,NA,NA,NA,NA,NA,NA,NA,NA,NA
88922,task,flow.Sequence,3_0_2_0_6,NA,NA,completion,9750.4,500380,500377,500397.42,510147.82,510159,2023-08-06T12:34:43Z,510168.3,NULL,Angreifer,mshambulizi,s,kitengo,tasinia,usafirishaji,NA,sdf,NA,2,NA,NA,NA,NA,NA,NA,NA,NA,NA,NA,NA,NA,NA,NA,NA,NA,NA,NA,NA
88922,deep,flow.Sequence,3_0_2_0_7_0,NA,NA,skipped,NA,510160,NA,NA,510147.82,510160,2023-08-06T12:34:43Z,510168.3,NULL,Sänger,mwimbaji,s,msichana,shughuli,mshirika,NA,sdf,NA,2,NA,NA,NA,NA,NA,NA,NA,NA,NA,NA,NA,NA,NA,NA,NA,NA,NA,NA,NA
88922,Shallow Question,html.Page,3_0_2_0_7_1_0,NA,NA,form submission,5283.7,510160,510147.82,510168.3,515452,515452,2023-08-06T12:34:48Z,515459.92,NULL,Sänger,mwimbaji,s,msichana,shughuli,mshirika,mwimbaji,NA,NA,2,NA,NA,NA,NA,NA,NA,NA,NA,NA,NA,NA,NA,NA,NA,NA,NA,NA,NA,NA
88922,"""Richtig""-Screen",canvas.Screen,3_0_2_0_7_1_1,NA,NA,timeout,4999.92,515456,515447.24,515459.92,520439.24,520441,2023-08-06T12:34:53Z,520459.84,NULL,Sänger,mwimbaji,s,msichana,shughuli,mshirika,NA,sdf,1,2,NA,NA,NA,NA,NA,NA,NA,NA,NA,NA,NA,NA,NA,NA,NA,NA,NA,NA,NA
88922,"""Falsch""-Screen",canvas.Screen,3_0_2_0_7_1_2,NA,NA,skipped,NA,520447,NA,NA,520439.24,520447,2023-08-06T12:34:53Z,520459.84,NULL,Sänger,mwimbaji,s,msichana,shughuli,mshirika,NA,sdf,NA,2,NA,NA,NA,NA,NA,NA,NA,NA,NA,NA,NA,NA,NA,NA,NA,NA,NA,NA,NA
88922,shallow,flow.Sequence,3_0_2_0_7_1,NA,NA,completion,10270.94,510160,510147.82,510168.3,520439.24,520448,2023-08-06T12:34:53Z,520459.84,NULL,Sänger,mwimbaji,s,msichana,shughuli,mshirika,NA,sdf,NA,2,NA,NA,NA,NA,NA,NA,NA,NA,NA,NA,NA,NA,NA,NA,NA,NA,NA,NA,NA
88922,task,flow.Sequence,3_0_2_0_7,NA,NA,completion,10270.94,510160,510147.82,510168.3,520439.24,520448,2023-08-06T12:34:53Z,520459.84,NULL,Sänger,mwimbaji,s,msichana,shughuli,mshirika,NA,sdf,NA,2,NA,NA,NA,NA,NA,NA,NA,NA,NA,NA,NA,NA,NA,NA,NA,NA,NA,NA,NA
88922,block,flow.Loop,3_0_2_0,NA,NA,completion,98394.32,422044,422044.58,422044.92,520439.24,520449,2023-08-06T12:34:53Z,520459.84,NULL,NA,NA,NA,NA,NA,NA,NA,sdf,NA,2,NA,NA,NA,NA,NA,NA,NA,NA,NA,NA,NA,NA,NA,NA,NA,NA,NA,NA,NA
88922,weiter,canvas.Screen,3_0_2_1,sdf,keypress(Space),response,1351.16,520449,520439.24,520459.84,521811,521825,2023-08-06T12:34:55Z,521870.18,NULL,NA,NA,NA,NA,NA,NA,NA,sdf,NA,2,NA,NA,NA,NA,NA,NA,NA,NA,NA,NA,NA,NA,NA,NA,NA,NA,NA,NA,NA
88922,check continue,flow.Sequence,3_0_2,NA,NA,completion,99766.08,422044,422044.58,422044.92,521811,521826,2023-08-06T12:34:55Z,521870.18,NULL,NA,NA,NA,NA,NA,NA,NA,sdf,NA,2,NA,NA,NA,NA,NA,NA,NA,NA,NA,NA,NA,NA,NA,NA,NA,NA,NA,NA,NA
88922,deep,flow.Sequence,3_0_3_0_0_0,NA,NA,skipped,NA,521869,NA,NA,521811,521869,2023-08-06T12:34:55Z,521870.18,NULL,Erneuerung,ukarabati,s,ushawishi,ukalifu,unyonyaji,NA,qt,NA,3,NA,NA,NA,NA,NA,NA,NA,NA,NA,NA,NA,NA,NA,NA,NA,NA,NA,NA,NA
88922,Shallow Question,html.Page,3_0_3_0_0_1_0,NA,NA,form submission,4103.82,521869,521869.88,521870.18,525974,525975,2023-08-06T12:34:59Z,525980.72,NULL,Erneuerung,ukarabati,s,ushawishi,ukalifu,unyonyaji,ukarabati,NA,NA,3,NA,NA,NA,NA,NA,NA,NA,NA,NA,NA,NA,NA,NA,NA,NA,NA,NA,NA,NA
88922,"""Richtig""-Screen",canvas.Screen,3_0_3_0_0_1_1,NA,NA,timeout,4999.98,525977,525968.84,525980.72,530959.98,530961,2023-08-06T12:35:04Z,530980.7,NULL,Erneuerung,ukarabati,s,ushawishi,ukalifu,unyonyaji,NA,qt,1,3,NA,NA,NA,NA,NA,NA,NA,NA,NA,NA,NA,NA,NA,NA,NA,NA,NA,NA,NA
88922,"""Falsch""-Screen",canvas.Screen,3_0_3_0_0_1_2,NA,NA,skipped,NA,530967,NA,NA,530959.98,530967,2023-08-06T12:35:04Z,530980.7,NULL,Erneuerung,ukarabati,s,ushawishi,ukalifu,unyonyaji,NA,qt,NA,3,NA,NA,NA,NA,NA,NA,NA,NA,NA,NA,NA,NA,NA,NA,NA,NA,NA,NA,NA
88922,shallow,flow.Sequence,3_0_3_0_0_1,NA,NA,completion,9089.8,521869,521869.88,521870.18,530959.98,530967,2023-08-06T12:35:04Z,530980.7,NULL,Erneuerung,ukarabati,s,ushawishi,ukalifu,unyonyaji,NA,qt,NA,3,NA,NA,NA,NA,NA,NA,NA,NA,NA,NA,NA,NA,NA,NA,NA,NA,NA,NA,NA
88922,task,flow.Sequence,3_0_3_0_0,NA,NA,completion,9089.8,521869,521869.88,521870.18,530959.98,530968,2023-08-06T12:35:04Z,530980.7,NULL,Erneuerung,ukarabati,s,ushawishi,ukalifu,unyonyaji,NA,qt,NA,3,NA,NA,NA,NA,NA,NA,NA,NA,NA,NA,NA,NA,NA,NA,NA,NA,NA,NA,NA
88922,Deep Question,html.Page,3_0_3_0_1_0_0,NA,NA,form submission,4565.3,530968,530959.98,530980.7,535546,535547,2023-08-06T12:35:08Z,535543.2,NULL,Flexibilität,kubadilika,d,NA,NA,NA,x,NA,NA,3,NA,NA,NA,NA,NA,NA,NA,NA,NA,NA,NA,NA,NA,NA,NA,NA,NA,NA,NA
88922,"""Richtig""-Screen",canvas.Screen,3_0_3_0_1_0_1,NA,NA,skipped,NA,535549,NA,NA,535546,535549,2023-08-06T12:35:08Z,535543.2,NULL,Flexibilität,kubadilika,d,NA,NA,NA,NA,qt,NA,3,NA,NA,NA,NA,NA,NA,NA,NA,NA,NA,NA,NA,NA,NA,NA,NA,NA,NA,NA
88922,"""Falsch""-Screen",canvas.Screen,3_0_3_0_1_0_2,NA,NA,timeout,5000.42,535552,535541.78,535543.2,540522.66,540526,2023-08-06T12:35:13Z,540543.62,NULL,Flexibilität,kubadilika,d,NA,NA,NA,NA,qt,0,3,NA,NA,NA,NA,NA,NA,NA,NA,NA,NA,NA,NA,NA,NA,NA,NA,NA,NA,NA
88922,deep,flow.Sequence,3_0_3_0_1_0,NA,NA,completion,9541.9600000001,530968,530959.98,530980.7,540522.66,540528,2023-08-06T12:35:13Z,540543.62,NULL,Flexibilität,kubadilika,d,NA,NA,NA,NA,qt,NA,3,NA,NA,NA,NA,NA,NA,NA,NA,NA,NA,NA,NA,NA,NA,NA,NA,NA,NA,NA
88922,shallow,flow.Sequence,3_0_3_0_1_1,NA,NA,skipped,NA,540528,NA,NA,540522.66,540529,2023-08-06T12:35:13Z,540543.62,NULL,Flexibilität,kubadilika,d,NA,NA,NA,NA,qt,NA,3,NA,NA,NA,NA,NA,NA,NA,NA,NA,NA,NA,NA,NA,NA,NA,NA,NA,NA,NA
88922,task,flow.Sequence,3_0_3_0_1,NA,NA,completion,9541.9600000001,530968,530959.98,530980.7,540522.66,540530,2023-08-06T12:35:13Z,540543.62,NULL,Flexibilität,kubadilika,d,NA,NA,NA,NA,qt,NA,3,NA,NA,NA,NA,NA,NA,NA,NA,NA,NA,NA,NA,NA,NA,NA,NA,NA,NA,NA
88922,Deep Question,html.Page,3_0_3_0_2_0_0,NA,NA,form submission,7473.38,540530,540522.66,540543.62,548017,548018,2023-08-06T12:35:21Z,548022.38,NULL,Abrechnung,uhasibu,d,NA,NA,NA,diwani,NA,NA,3,NA,NA,NA,NA,NA,NA,NA,NA,NA,NA,NA,NA,NA,NA,NA,NA,NA,NA,NA
88922,"""Richtig""-Screen",canvas.Screen,3_0_3_0_2_0_1,NA,NA,skipped,NA,548026,NA,NA,548017,548026,2023-08-06T12:35:21Z,548022.38,NULL,Abrechnung,uhasibu,d,NA,NA,NA,NA,qt,NA,3,NA,NA,NA,NA,NA,NA,NA,NA,NA,NA,NA,NA,NA,NA,NA,NA,NA,NA,NA
88922,"""Falsch""-Screen",canvas.Screen,3_0_3_0_2_0_2,NA,NA,timeout,5000.26,548029,548007.28,548022.38,553001.64,553003,2023-08-06T12:35:26Z,553022.64,NULL,Abrechnung,uhasibu,d,NA,NA,NA,NA,qt,0,3,NA,NA,NA,NA,NA,NA,NA,NA,NA,NA,NA,NA,NA,NA,NA,NA,NA,NA,NA
88922,deep,flow.Sequence,3_0_3_0_2_0,NA,NA,completion,12458.02,540530,540522.66,540543.62,553001.64,553004,2023-08-06T12:35:26Z,553022.64,NULL,Abrechnung,uhasibu,d,NA,NA,NA,NA,qt,NA,3,NA,NA,NA,NA,NA,NA,NA,NA,NA,NA,NA,NA,NA,NA,NA,NA,NA,NA,NA
88922,shallow,flow.Sequence,3_0_3_0_2_1,NA,NA,skipped,NA,553004,NA,NA,553001.64,553004,2023-08-06T12:35:26Z,553022.64,NULL,Abrechnung,uhasibu,d,NA,NA,NA,NA,qt,NA,3,NA,NA,NA,NA,NA,NA,NA,NA,NA,NA,NA,NA,NA,NA,NA,NA,NA,NA,NA
88922,task,flow.Sequence,3_0_3_0_2,NA,NA,completion,12458.02,540530,540522.66,540543.62,553001.64,553005,2023-08-06T12:35:26Z,553022.64,NULL,Abrechnung,uhasibu,d,NA,NA,NA,NA,qt,NA,3,NA,NA,NA,NA,NA,NA,NA,NA,NA,NA,NA,NA,NA,NA,NA,NA,NA,NA,NA
88922,deep,flow.Sequence,3_0_3_0_3_0,NA,NA,skipped,NA,553007,NA,NA,553001.64,553007,2023-08-06T12:35:26Z,553022.64,NULL,Angreifer,mshambulizi,s,kitengo,tasinia,usafirishaji,NA,qt,NA,3,NA,NA,NA,NA,NA,NA,NA,NA,NA,NA,NA,NA,NA,NA,NA,NA,NA,NA,NA
88922,Shallow Question,html.Page,3_0_3_0_3_1_0,NA,NA,form submission,4820.36,553008,553001.64,553022.64,557843,557844,2023-08-06T12:35:31Z,557855.74,NULL,Angreifer,mshambulizi,s,kitengo,tasinia,usafirishaji,mshambulizi,NA,NA,3,NA,NA,NA,NA,NA,NA,NA,NA,NA,NA,NA,NA,NA,NA,NA,NA,NA,NA,NA
88922,"""Richtig""-Screen",canvas.Screen,3_0_3_0_3_1_1,NA,NA,timeout,5000.14,557846,557840.6,557855.74,562835.04,562837,2023-08-06T12:35:36Z,562855.88,NULL,Angreifer,mshambulizi,s,kitengo,tasinia,usafirishaji,NA,qt,1,3,NA,NA,NA,NA,NA,NA,NA,NA,NA,NA,NA,NA,NA,NA,NA,NA,NA,NA,NA
88922,"""Falsch""-Screen",canvas.Screen,3_0_3_0_3_1_2,NA,NA,skipped,NA,562845,NA,NA,562835.04,562845,2023-08-06T12:35:36Z,562855.88,NULL,Angreifer,mshambulizi,s,kitengo,tasinia,usafirishaji,NA,qt,NA,3,NA,NA,NA,NA,NA,NA,NA,NA,NA,NA,NA,NA,NA,NA,NA,NA,NA,NA,NA
88922,shallow,flow.Sequence,3_0_3_0_3_1,NA,NA,completion,9812.4,553008,553001.64,553022.64,562835.04,562846,2023-08-06T12:35:36Z,562855.88,NULL,Angreifer,mshambulizi,s,kitengo,tasinia,usafirishaji,NA,qt,NA,3,NA,NA,NA,NA,NA,NA,NA,NA,NA,NA,NA,NA,NA,NA,NA,NA,NA,NA,NA
88922,task,flow.Sequence,3_0_3_0_3,NA,NA,completion,9812.4,553006,553001.64,553022.64,562835.04,562846,2023-08-06T12:35:36Z,562855.88,NULL,Angreifer,mshambulizi,s,kitengo,tasinia,usafirishaji,NA,qt,NA,3,NA,NA,NA,NA,NA,NA,NA,NA,NA,NA,NA,NA,NA,NA,NA,NA,NA,NA,NA
88922,Deep Question,html.Page,3_0_3_0_4_0_0,NA,NA,form submission,6426.12,562847,562835.04,562855.88,569282,569282,2023-08-06T12:35:42Z,569293.28,NULL,Atmosphäre,angahewa,d,NA,NA,NA,angalada,NA,NA,3,NA,NA,NA,NA,NA,NA,NA,NA,NA,NA,NA,NA,NA,NA,NA,NA,NA,NA,NA
88922,"""Richtig""-Screen",canvas.Screen,3_0_3_0_4_0_1,NA,NA,skipped,NA,569284,NA,NA,569282,569284,2023-08-06T12:35:42Z,569293.28,NULL,Atmosphäre,angahewa,d,NA,NA,NA,NA,qt,NA,3,NA,NA,NA,NA,NA,NA,NA,NA,NA,NA,NA,NA,NA,NA,NA,NA,NA,NA,NA
88922,"""Falsch""-Screen",canvas.Screen,3_0_3_0_4_0_2,NA,NA,timeout,5000.2999999999,569286,569280.9,569293.28,574272.46,574273,2023-08-06T12:35:47Z,574293.58,NULL,Atmosphäre,angahewa,d,NA,NA,NA,NA,qt,0,3,NA,NA,NA,NA,NA,NA,NA,NA,NA,NA,NA,NA,NA,NA,NA,NA,NA,NA,NA
88922,deep,flow.Sequence,3_0_3_0_4_0,NA,NA,completion,11416.58,562847,562835.04,562855.88,574272.46,574274,2023-08-06T12:35:47Z,574293.58,NULL,Atmosphäre,angahewa,d,NA,NA,NA,NA,qt,NA,3,NA,NA,NA,NA,NA,NA,NA,NA,NA,NA,NA,NA,NA,NA,NA,NA,NA,NA,NA
88922,shallow,flow.Sequence,3_0_3_0_4_1,NA,NA,skipped,NA,574274,NA,NA,574272.46,574275,2023-08-06T12:35:47Z,574293.58,NULL,Atmosphäre,angahewa,d,NA,NA,NA,NA,qt,NA,3,NA,NA,NA,NA,NA,NA,NA,NA,NA,NA,NA,NA,NA,NA,NA,NA,NA,NA,NA
88922,task,flow.Sequence,3_0_3_0_4,NA,NA,completion,11416.58,562847,562835.04,562855.88,574272.46,574275,2023-08-06T12:35:47Z,574293.58,NULL,Atmosphäre,angahewa,d,NA,NA,NA,NA,qt,NA,3,NA,NA,NA,NA,NA,NA,NA,NA,NA,NA,NA,NA,NA,NA,NA,NA,NA,NA,NA
88922,Deep Question,html.Page,3_0_3_0_5_0_0,NA,NA,form submission,3644.42,574277,574272.46,574293.58,577938,577938,2023-08-06T12:35:51Z,577939.02,NULL,Kanzler,diwani,d,NA,NA,NA,diwani,NA,NA,3,NA,NA,NA,NA,NA,NA,NA,NA,NA,NA,NA,NA,NA,NA,NA,NA,NA,NA,NA
88922,"""Richtig""-Screen",canvas.Screen,3_0_3_0_5_0_1,NA,NA,timeout,5000.04,577939,577935,577939.02,582918.4,582920,2023-08-06T12:35:56Z,582939.06,NULL,Kanzler,diwani,d,NA,NA,NA,NA,qt,1,3,NA,NA,NA,NA,NA,NA,NA,NA,NA,NA,NA,NA,NA,NA,NA,NA,NA,NA,NA
88922,"""Falsch""-Screen",canvas.Screen,3_0_3_0_5_0_2,NA,NA,skipped,NA,582929,NA,NA,582918.4,582930,2023-08-06T12:35:56Z,582939.06,NULL,Kanzler,diwani,d,NA,NA,NA,NA,qt,NA,3,NA,NA,NA,NA,NA,NA,NA,NA,NA,NA,NA,NA,NA,NA,NA,NA,NA,NA,NA
88922,deep,flow.Sequence,3_0_3_0_5_0,NA,NA,completion,8624.8200000001,574277,574272.46,574293.58,582918.4,582930,2023-08-06T12:35:56Z,582939.06,NULL,Kanzler,diwani,d,NA,NA,NA,NA,qt,NA,3,NA,NA,NA,NA,NA,NA,NA,NA,NA,NA,NA,NA,NA,NA,NA,NA,NA,NA,NA
88922,shallow,flow.Sequence,3_0_3_0_5_1,NA,NA,skipped,NA,582930,NA,NA,582918.4,582931,2023-08-06T12:35:56Z,582939.06,NULL,Kanzler,diwani,d,NA,NA,NA,NA,qt,NA,3,NA,NA,NA,NA,NA,NA,NA,NA,NA,NA,NA,NA,NA,NA,NA,NA,NA,NA,NA
88922,task,flow.Sequence,3_0_3_0_5,NA,NA,completion,8624.8200000001,574276,574272.46,574293.58,582918.4,582932,2023-08-06T12:35:56Z,582939.06,NULL,Kanzler,diwani,d,NA,NA,NA,NA,qt,NA,3,NA,NA,NA,NA,NA,NA,NA,NA,NA,NA,NA,NA,NA,NA,NA,NA,NA,NA,NA
88922,deep,flow.Sequence,3_0_3_0_6_0,NA,NA,skipped,NA,582932,NA,NA,582918.4,582932,2023-08-06T12:35:56Z,582939.06,NULL,Sänger,mwimbaji,s,msichana,shughuli,mshirika,NA,qt,NA,3,NA,NA,NA,NA,NA,NA,NA,NA,NA,NA,NA,NA,NA,NA,NA,NA,NA,NA,NA
88922,Shallow Question,html.Page,3_0_3_0_6_1_0,NA,NA,form submission,3735.9399999999,582933,582918.4,582939.06,586675,586675,2023-08-06T12:36:00Z,586689.26,NULL,Sänger,mwimbaji,s,msichana,shughuli,mshirika,mwimbaji,NA,NA,3,NA,NA,NA,NA,NA,NA,NA,NA,NA,NA,NA,NA,NA,NA,NA,NA,NA,NA,NA
88922,"""Richtig""-Screen",canvas.Screen,3_0_3_0_6_1_1,NA,NA,timeout,5000.02,586677,586673.98,586689.26,591668.4,591669,2023-08-06T12:36:04Z,591689.28,NULL,Sänger,mwimbaji,s,msichana,shughuli,mshirika,NA,qt,1,3,NA,NA,NA,NA,NA,NA,NA,NA,NA,NA,NA,NA,NA,NA,NA,NA,NA,NA,NA
88922,"""Falsch""-Screen",canvas.Screen,3_0_3_0_6_1_2,NA,NA,skipped,NA,591675,NA,NA,591668.4,591676,2023-08-06T12:36:05Z,591689.28,NULL,Sänger,mwimbaji,s,msichana,shughuli,mshirika,NA,qt,NA,3,NA,NA,NA,NA,NA,NA,NA,NA,NA,NA,NA,NA,NA,NA,NA,NA,NA,NA,NA
88922,shallow,flow.Sequence,3_0_3_0_6_1,NA,NA,completion,8729.34,582932,582918.4,582939.06,591668.4,591677,2023-08-06T12:36:05Z,591689.28,NULL,Sänger,mwimbaji,s,msichana,shughuli,mshirika,NA,qt,NA,3,NA,NA,NA,NA,NA,NA,NA,NA,NA,NA,NA,NA,NA,NA,NA,NA,NA,NA,NA
88922,task,flow.Sequence,3_0_3_0_6,NA,NA,completion,8729.34,582932,582918.4,582939.06,591668.4,591677,2023-08-06T12:36:05Z,591689.28,NULL,Sänger,mwimbaji,s,msichana,shughuli,mshirika,NA,qt,NA,3,NA,NA,NA,NA,NA,NA,NA,NA,NA,NA,NA,NA,NA,NA,NA,NA,NA,NA,NA
88922,deep,flow.Sequence,3_0_3_0_7_0,NA,NA,skipped,NA,591678,NA,NA,591668.4,591678,2023-08-06T12:36:05Z,591689.28,NULL,Wechsel,ugeuzaji,s,utambulisho,kujenga,wasiwasi,NA,qt,NA,3,NA,NA,NA,NA,NA,NA,NA,NA,NA,NA,NA,NA,NA,NA,NA,NA,NA,NA,NA
88922,Shallow Question,html.Page,3_0_3_0_7_1_0,NA,NA,form submission,4997.72,591678,591668.4,591689.28,596687,596689,2023-08-06T12:36:10Z,596689.06,NULL,Wechsel,ugeuzaji,s,utambulisho,kujenga,wasiwasi,ugeuzaji,NA,NA,3,NA,NA,NA,NA,NA,NA,NA,NA,NA,NA,NA,NA,NA,NA,NA,NA,NA,NA,NA
88922,"""Richtig""-Screen",canvas.Screen,3_0_3_0_7_1_1,NA,NA,timeout,5000.2999999999,596693,596682.66,596689.06,601668.78,601671,2023-08-06T12:36:14Z,601689.36,NULL,Wechsel,ugeuzaji,s,utambulisho,kujenga,wasiwasi,NA,qt,1,3,NA,NA,NA,NA,NA,NA,NA,NA,NA,NA,NA,NA,NA,NA,NA,NA,NA,NA,NA
88922,"""Falsch""-Screen",canvas.Screen,3_0_3_0_7_1_2,NA,NA,skipped,NA,601678,NA,NA,601668.78,601679,2023-08-06T12:36:15Z,601689.36,NULL,Wechsel,ugeuzaji,s,utambulisho,kujenga,wasiwasi,NA,qt,NA,3,NA,NA,NA,NA,NA,NA,NA,NA,NA,NA,NA,NA,NA,NA,NA,NA,NA,NA,NA
88922,shallow,flow.Sequence,3_0_3_0_7_1,NA,NA,completion,9979.5,591678,591668.4,591689.28,601668.78,601680,2023-08-06T12:36:15Z,601689.36,NULL,Wechsel,ugeuzaji,s,utambulisho,kujenga,wasiwasi,NA,qt,NA,3,NA,NA,NA,NA,NA,NA,NA,NA,NA,NA,NA,NA,NA,NA,NA,NA,NA,NA,NA
88922,task,flow.Sequence,3_0_3_0_7,NA,NA,completion,9979.5,591677,591668.4,591689.28,601668.78,601680,2023-08-06T12:36:15Z,601689.36,NULL,Wechsel,ugeuzaji,s,utambulisho,kujenga,wasiwasi,NA,qt,NA,3,NA,NA,NA,NA,NA,NA,NA,NA,NA,NA,NA,NA,NA,NA,NA,NA,NA,NA,NA
88922,block,flow.Loop,3_0_3_0,NA,NA,completion,79798.6,521869,521869.88,521870.18,601668.78,601681,2023-08-06T12:36:15Z,601689.36,NULL,NA,NA,NA,NA,NA,NA,NA,qt,NA,3,NA,NA,NA,NA,NA,NA,NA,NA,NA,NA,NA,NA,NA,NA,NA,NA,NA,NA,NA
88922,weiter,canvas.Screen,3_0_3_1,sdf,keypress(Space),response,6622.64,601681,601668.78,601689.36,608312,608321,2023-08-06T12:36:21Z,608392.42,NULL,NA,NA,NA,NA,NA,NA,NA,qt,NA,3,NA,NA,NA,NA,NA,NA,NA,NA,NA,NA,NA,NA,NA,NA,NA,NA,NA,NA,NA
88922,check continue,flow.Sequence,3_0_3,NA,NA,completion,86441.82,521869,521869.88,521870.18,608312,608323,2023-08-06T12:36:21Z,608392.42,NULL,NA,NA,NA,NA,NA,NA,NA,qt,NA,3,NA,NA,NA,NA,NA,NA,NA,NA,NA,NA,NA,NA,NA,NA,NA,NA,NA,NA,NA
88922,Deep Question,html.Page,3_0_4_0_0_0_0,NA,NA,form submission,4186.58,608392,608392.14,608392.42,612579,612579,2023-08-06T12:36:25Z,612584.98,NULL,Kanzler,diwani,d,NA,NA,NA,diwali,NA,NA,4,NA,NA,NA,NA,NA,NA,NA,NA,NA,NA,NA,NA,NA,NA,NA,NA,NA,NA,NA
88922,"""Richtig""-Screen",canvas.Screen,3_0_4_0_0_0_1,NA,NA,skipped,NA,612584,NA,NA,612579,612584,2023-08-06T12:36:25Z,612584.98,NULL,Kanzler,diwani,d,NA,NA,NA,NA,sd,NA,4,NA,NA,NA,NA,NA,NA,NA,NA,NA,NA,NA,NA,NA,NA,NA,NA,NA,NA,NA
88922,"""Falsch""-Screen",canvas.Screen,3_0_4_0_0_0_2,NA,NA,timeout,5000.16,612587,612572.84,612584.98,617564.34,617566,2023-08-06T12:36:30Z,617585.14,NULL,Kanzler,diwani,d,NA,NA,NA,NA,sd,0,4,NA,NA,NA,NA,NA,NA,NA,NA,NA,NA,NA,NA,NA,NA,NA,NA,NA,NA,NA
88922,deep,flow.Sequence,3_0_4_0_0_0,NA,NA,completion,9171.9199999999,608392,608392.14,608392.42,617564.34,617567,2023-08-06T12:36:30Z,617585.14,NULL,Kanzler,diwani,d,NA,NA,NA,NA,sd,NA,4,NA,NA,NA,NA,NA,NA,NA,NA,NA,NA,NA,NA,NA,NA,NA,NA,NA,NA,NA
88922,shallow,flow.Sequence,3_0_4_0_0_1,NA,NA,skipped,NA,617568,NA,NA,617564.34,617568,2023-08-06T12:36:30Z,617585.14,NULL,Kanzler,diwani,d,NA,NA,NA,NA,sd,NA,4,NA,NA,NA,NA,NA,NA,NA,NA,NA,NA,NA,NA,NA,NA,NA,NA,NA,NA,NA
88922,task,flow.Sequence,3_0_4_0_0,NA,NA,completion,9171.9199999999,608392,608392.14,608392.42,617564.34,617568,2023-08-06T12:36:30Z,617585.14,NULL,Kanzler,diwani,d,NA,NA,NA,NA,sd,NA,4,NA,NA,NA,NA,NA,NA,NA,NA,NA,NA,NA,NA,NA,NA,NA,NA,NA,NA,NA
88922,deep,flow.Sequence,3_0_4_0_1_0,NA,NA,skipped,NA,617569,NA,NA,617564.34,617569,2023-08-06T12:36:30Z,617585.14,NULL,Erneuerung,ukarabati,s,ushawishi,ukalifu,unyonyaji,NA,sd,NA,4,NA,NA,NA,NA,NA,NA,NA,NA,NA,NA,NA,NA,NA,NA,NA,NA,NA,NA,NA
88922,Shallow Question,html.Page,3_0_4_0_1_1_0,NA,NA,form submission,8263.86,617570,617564.34,617585.14,625849,625850,2023-08-06T12:36:39Z,625855.78,NULL,Erneuerung,ukarabati,s,ushawishi,ukalifu,unyonyaji,ukarabati,NA,NA,4,NA,NA,NA,NA,NA,NA,NA,NA,NA,NA,NA,NA,NA,NA,NA,NA,NA,NA,NA
88922,"""Richtig""-Screen",canvas.Screen,3_0_4_0_1_1_1,NA,NA,timeout,5000.0399999999,625855,625844.42,625855.78,630835.04,630837,2023-08-06T12:36:44Z,630855.82,NULL,Erneuerung,ukarabati,s,ushawishi,ukalifu,unyonyaji,NA,sd,1,4,NA,NA,NA,NA,NA,NA,NA,NA,NA,NA,NA,NA,NA,NA,NA,NA,NA,NA,NA
88922,"""Falsch""-Screen",canvas.Screen,3_0_4_0_1_1_2,NA,NA,skipped,NA,630843,NA,NA,630835.04,630844,2023-08-06T12:36:44Z,630855.82,NULL,Erneuerung,ukarabati,s,ushawishi,ukalifu,unyonyaji,NA,sd,NA,4,NA,NA,NA,NA,NA,NA,NA,NA,NA,NA,NA,NA,NA,NA,NA,NA,NA,NA,NA
88922,shallow,flow.Sequence,3_0_4_0_1_1,NA,NA,completion,13249.9,617569,617564.34,617585.14,630835.04,630844,2023-08-06T12:36:44Z,630855.82,NULL,Erneuerung,ukarabati,s,ushawishi,ukalifu,unyonyaji,NA,sd,NA,4,NA,NA,NA,NA,NA,NA,NA,NA,NA,NA,NA,NA,NA,NA,NA,NA,NA,NA,NA
88922,task,flow.Sequence,3_0_4_0_1,NA,NA,completion,13249.9,617569,617564.34,617585.14,630835.04,630844,2023-08-06T12:36:44Z,630855.82,NULL,Erneuerung,ukarabati,s,ushawishi,ukalifu,unyonyaji,NA,sd,NA,4,NA,NA,NA,NA,NA,NA,NA,NA,NA,NA,NA,NA,NA,NA,NA,NA,NA,NA,NA
88922,deep,flow.Sequence,3_0_4_0_2_0,NA,NA,skipped,NA,630844,NA,NA,630835.04,630844,2023-08-06T12:36:44Z,630855.82,NULL,Wechsel,ugeuzaji,s,utambulisho,kujenga,wasiwasi,NA,sd,NA,4,NA,NA,NA,NA,NA,NA,NA,NA,NA,NA,NA,NA,NA,NA,NA,NA,NA,NA,NA
88922,Shallow Question,html.Page,3_0_4_0_2_1_0,NA,NA,form submission,7637.1800000001,630845,630835.04,630855.82,638493,638494,2023-08-06T12:36:51Z,638501.56,NULL,Wechsel,ugeuzaji,s,utambulisho,kujenga,wasiwasi,ugeuzaji,NA,NA,4,NA,NA,NA,NA,NA,NA,NA,NA,NA,NA,NA,NA,NA,NA,NA,NA,NA,NA,NA
88922,"""Richtig""-Screen",canvas.Screen,3_0_4_0_2_1_1,NA,NA,timeout,5000.1,638496,638490.18,638501.56,643480.86,643482,2023-08-06T12:36:56Z,643501.66,NULL,Wechsel,ugeuzaji,s,utambulisho,kujenga,wasiwasi,NA,sd,1,4,NA,NA,NA,NA,NA,NA,NA,NA,NA,NA,NA,NA,NA,NA,NA,NA,NA,NA,NA
88922,"""Falsch""-Screen",canvas.Screen,3_0_4_0_2_1_2,NA,NA,skipped,NA,643488,NA,NA,643480.86,643488,2023-08-06T12:36:56Z,643501.66,NULL,Wechsel,ugeuzaji,s,utambulisho,kujenga,wasiwasi,NA,sd,NA,4,NA,NA,NA,NA,NA,NA,NA,NA,NA,NA,NA,NA,NA,NA,NA,NA,NA,NA,NA
88922,shallow,flow.Sequence,3_0_4_0_2_1,NA,NA,completion,12625.04,630845,630835.04,630855.82,643480.86,643488,2023-08-06T12:36:56Z,643501.66,NULL,Wechsel,ugeuzaji,s,utambulisho,kujenga,wasiwasi,NA,sd,NA,4,NA,NA,NA,NA,NA,NA,NA,NA,NA,NA,NA,NA,NA,NA,NA,NA,NA,NA,NA
88922,task,flow.Sequence,3_0_4_0_2,NA,NA,completion,12625.04,630844,630835.04,630855.82,643480.86,643489,2023-08-06T12:36:56Z,643501.66,NULL,Wechsel,ugeuzaji,s,utambulisho,kujenga,wasiwasi,NA,sd,NA,4,NA,NA,NA,NA,NA,NA,NA,NA,NA,NA,NA,NA,NA,NA,NA,NA,NA,NA,NA
88922,deep,flow.Sequence,3_0_4_0_3_0,NA,NA,skipped,NA,643489,NA,NA,643480.86,643489,2023-08-06T12:36:56Z,643501.66,NULL,Sänger,mwimbaji,s,msichana,shughuli,mshirika,NA,sd,NA,4,NA,NA,NA,NA,NA,NA,NA,NA,NA,NA,NA,NA,NA,NA,NA,NA,NA,NA,NA
88922,Shallow Question,html.Page,3_0_4_0_3_1_0,NA,NA,form submission,7800.34,643489,643480.86,643501.66,651302,651302,2023-08-06T12:37:04Z,651314.12,NULL,Sänger,mwimbaji,s,msichana,shughuli,mshirika,mwimbaji,NA,NA,4,NA,NA,NA,NA,NA,NA,NA,NA,NA,NA,NA,NA,NA,NA,NA,NA,NA,NA,NA
88922,"""Richtig""-Screen",canvas.Screen,3_0_4_0_3_1_1,NA,NA,timeout,5000.0600000001,651307,651297.02,651314.12,656293.72,656295,2023-08-06T12:37:09Z,656314.18,NULL,Sänger,mwimbaji,s,msichana,shughuli,mshirika,NA,sd,1,4,NA,NA,NA,NA,NA,NA,NA,NA,NA,NA,NA,NA,NA,NA,NA,NA,NA,NA,NA
88922,"""Falsch""-Screen",canvas.Screen,3_0_4_0_3_1_2,NA,NA,skipped,NA,656301,NA,NA,656293.72,656302,2023-08-06T12:37:09Z,656314.18,NULL,Sänger,mwimbaji,s,msichana,shughuli,mshirika,NA,sd,NA,4,NA,NA,NA,NA,NA,NA,NA,NA,NA,NA,NA,NA,NA,NA,NA,NA,NA,NA,NA
88922,shallow,flow.Sequence,3_0_4_0_3_1,NA,NA,completion,12792.06,643489,643480.86,643501.66,656293.72,656302,2023-08-06T12:37:09Z,656314.18,NULL,Sänger,mwimbaji,s,msichana,shughuli,mshirika,NA,sd,NA,4,NA,NA,NA,NA,NA,NA,NA,NA,NA,NA,NA,NA,NA,NA,NA,NA,NA,NA,NA
88922,task,flow.Sequence,3_0_4_0_3,NA,NA,completion,12792.06,643489,643480.86,643501.66,656293.72,656303,2023-08-06T12:37:09Z,656314.18,NULL,Sänger,mwimbaji,s,msichana,shughuli,mshirika,NA,sd,NA,4,NA,NA,NA,NA,NA,NA,NA,NA,NA,NA,NA,NA,NA,NA,NA,NA,NA,NA,NA
88922,deep,flow.Sequence,3_0_4_0_4_0,NA,NA,skipped,NA,656303,NA,NA,656293.72,656303,2023-08-06T12:37:09Z,656314.18,NULL,Angreifer,mshambulizi,s,kitengo,tasinia,usafirishaji,NA,sd,NA,4,NA,NA,NA,NA,NA,NA,NA,NA,NA,NA,NA,NA,NA,NA,NA,NA,NA,NA,NA
88922,Shallow Question,html.Page,3_0_4_0_4_1_0,NA,NA,form submission,4847.8199999999,656303,656293.72,656314.18,661162,661162,2023-08-06T12:37:14Z,661168.28,NULL,Angreifer,mshambulizi,s,kitengo,tasinia,usafirishaji,mshambulizi,NA,NA,4,NA,NA,NA,NA,NA,NA,NA,NA,NA,NA,NA,NA,NA,NA,NA,NA,NA,NA,NA
88922,"""Richtig""-Screen",canvas.Screen,3_0_4_0_4_1_1,NA,NA,timeout,5000,661163,661160.08,661168.28,666147.54,666149,2023-08-06T12:37:19Z,666168.28,NULL,Angreifer,mshambulizi,s,kitengo,tasinia,usafirishaji,NA,sd,1,4,NA,NA,NA,NA,NA,NA,NA,NA,NA,NA,NA,NA,NA,NA,NA,NA,NA,NA,NA
88922,"""Falsch""-Screen",canvas.Screen,3_0_4_0_4_1_2,NA,NA,skipped,NA,666154,NA,NA,666147.54,666154,2023-08-06T12:37:19Z,666168.28,NULL,Angreifer,mshambulizi,s,kitengo,tasinia,usafirishaji,NA,sd,NA,4,NA,NA,NA,NA,NA,NA,NA,NA,NA,NA,NA,NA,NA,NA,NA,NA,NA,NA,NA
88922,shallow,flow.Sequence,3_0_4_0_4_1,NA,NA,completion,9833.36,656303,656293.72,656314.18,666147.54,666155,2023-08-06T12:37:19Z,666168.28,NULL,Angreifer,mshambulizi,s,kitengo,tasinia,usafirishaji,NA,sd,NA,4,NA,NA,NA,NA,NA,NA,NA,NA,NA,NA,NA,NA,NA,NA,NA,NA,NA,NA,NA
88922,task,flow.Sequence,3_0_4_0_4,NA,NA,completion,9833.36,656303,656293.72,656314.18,666147.54,666155,2023-08-06T12:37:19Z,666168.28,NULL,Angreifer,mshambulizi,s,kitengo,tasinia,usafirishaji,NA,sd,NA,4,NA,NA,NA,NA,NA,NA,NA,NA,NA,NA,NA,NA,NA,NA,NA,NA,NA,NA,NA
88922,Deep Question,html.Page,3_0_4_0_5_0_0,NA,NA,form submission,14466.72,666156,666147.54,666168.28,680635,680635,2023-08-06T12:37:33Z,680647.7,NULL,Abrechnung,uhasibu,d,NA,NA,NA,uguhali,NA,NA,4,NA,NA,NA,NA,NA,NA,NA,NA,NA,NA,NA,NA,NA,NA,NA,NA,NA,NA,NA
88922,"""Richtig""-Screen",canvas.Screen,3_0_4_0_5_0_1,NA,NA,skipped,NA,680637,NA,NA,680635,680637,2023-08-06T12:37:33Z,680647.7,NULL,Abrechnung,uhasibu,d,NA,NA,NA,NA,sd,NA,4,NA,NA,NA,NA,NA,NA,NA,NA,NA,NA,NA,NA,NA,NA,NA,NA,NA,NA,NA
88922,"""Falsch""-Screen",canvas.Screen,3_0_4_0_5_0_2,NA,NA,timeout,4999.8400000001,680638,680633.46,680647.7,685627.16,685629,2023-08-06T12:37:38Z,685647.54,NULL,Abrechnung,uhasibu,d,NA,NA,NA,NA,sd,0,4,NA,NA,NA,NA,NA,NA,NA,NA,NA,NA,NA,NA,NA,NA,NA,NA,NA,NA,NA
88922,deep,flow.Sequence,3_0_4_0_5_0,NA,NA,completion,19458.88,666156,666147.54,666168.28,685627.16,685629,2023-08-06T12:37:38Z,685647.54,NULL,Abrechnung,uhasibu,d,NA,NA,NA,NA,sd,NA,4,NA,NA,NA,NA,NA,NA,NA,NA,NA,NA,NA,NA,NA,NA,NA,NA,NA,NA,NA
88922,shallow,flow.Sequence,3_0_4_0_5_1,NA,NA,skipped,NA,685630,NA,NA,685627.16,685630,2023-08-06T12:37:38Z,685647.54,NULL,Abrechnung,uhasibu,d,NA,NA,NA,NA,sd,NA,4,NA,NA,NA,NA,NA,NA,NA,NA,NA,NA,NA,NA,NA,NA,NA,NA,NA,NA,NA
88922,task,flow.Sequence,3_0_4_0_5,NA,NA,completion,19458.88,666156,666147.54,666168.28,685627.16,685630,2023-08-06T12:37:38Z,685647.54,NULL,Abrechnung,uhasibu,d,NA,NA,NA,NA,sd,NA,4,NA,NA,NA,NA,NA,NA,NA,NA,NA,NA,NA,NA,NA,NA,NA,NA,NA,NA,NA
88922,Deep Question,html.Page,3_0_4_0_6_0_0,NA,NA,form submission,5957.46,685630,685627.16,685647.54,691605,691605,2023-08-06T12:37:44Z,691605.76,NULL,Atmosphäre,angahewa,d,NA,NA,NA,angawali,NA,NA,4,NA,NA,NA,NA,NA,NA,NA,NA,NA,NA,NA,NA,NA,NA,NA,NA,NA,NA,NA
88922,"""Richtig""-Screen",canvas.Screen,3_0_4_0_6_0_1,NA,NA,skipped,NA,691606,NA,NA,691605,691606,2023-08-06T12:37:44Z,691605.76,NULL,Atmosphäre,angahewa,d,NA,NA,NA,NA,sd,NA,4,NA,NA,NA,NA,NA,NA,NA,NA,NA,NA,NA,NA,NA,NA,NA,NA,NA,NA,NA
88922,"""Falsch""-Screen",canvas.Screen,3_0_4_0_6_0_2,NA,NA,timeout,5000,691609,691603.9,691605.76,696584.96,696588,2023-08-06T12:37:49Z,696605.76,NULL,Atmosphäre,angahewa,d,NA,NA,NA,NA,sd,0,4,NA,NA,NA,NA,NA,NA,NA,NA,NA,NA,NA,NA,NA,NA,NA,NA,NA,NA,NA
88922,deep,flow.Sequence,3_0_4_0_6_0,NA,NA,completion,10937.42,685630,685627.16,685647.54,696584.96,696590,2023-08-06T12:37:49Z,696605.76,NULL,Atmosphäre,angahewa,d,NA,NA,NA,NA,sd,NA,4,NA,NA,NA,NA,NA,NA,NA,NA,NA,NA,NA,NA,NA,NA,NA,NA,NA,NA,NA
88922,shallow,flow.Sequence,3_0_4_0_6_1,NA,NA,skipped,NA,696592,NA,NA,696584.96,696592,2023-08-06T12:37:49Z,696605.76,NULL,Atmosphäre,angahewa,d,NA,NA,NA,NA,sd,NA,4,NA,NA,NA,NA,NA,NA,NA,NA,NA,NA,NA,NA,NA,NA,NA,NA,NA,NA,NA
88922,task,flow.Sequence,3_0_4_0_6,NA,NA,completion,10937.42,685630,685627.16,685647.54,696584.96,696592,2023-08-06T12:37:49Z,696605.76,NULL,Atmosphäre,angahewa,d,NA,NA,NA,NA,sd,NA,4,NA,NA,NA,NA,NA,NA,NA,NA,NA,NA,NA,NA,NA,NA,NA,NA,NA,NA,NA
88922,Deep Question,html.Page,3_0_4_0_7_0_0,NA,NA,form submission,3893.24,696592,696584.96,696605.76,700499,700500,2023-08-06T12:37:53Z,700501.58,NULL,Flexibilität,kubadilika,d,NA,NA,NA,x,NA,NA,4,NA,NA,NA,NA,NA,NA,NA,NA,NA,NA,NA,NA,NA,NA,NA,NA,NA,NA,NA
88922,"""Richtig""-Screen",canvas.Screen,3_0_4_0_7_0_1,NA,NA,skipped,NA,700503,NA,NA,700499,700503,2023-08-06T12:37:53Z,700501.58,NULL,Flexibilität,kubadilika,d,NA,NA,NA,NA,sd,NA,4,NA,NA,NA,NA,NA,NA,NA,NA,NA,NA,NA,NA,NA,NA,NA,NA,NA,NA,NA
88922,"""Falsch""-Screen",canvas.Screen,3_0_4_0_7_0_2,NA,NA,timeout,5000.0600000001,700505,700496.82,700501.58,705480.88,705482,2023-08-06T12:37:58Z,705501.64,NULL,Flexibilität,kubadilika,d,NA,NA,NA,NA,sd,0,4,NA,NA,NA,NA,NA,NA,NA,NA,NA,NA,NA,NA,NA,NA,NA,NA,NA,NA,NA
88922,deep,flow.Sequence,3_0_4_0_7_0,NA,NA,completion,8875.12,696592,696584.96,696605.76,705480.88,705483,2023-08-06T12:37:58Z,705501.64,NULL,Flexibilität,kubadilika,d,NA,NA,NA,NA,sd,NA,4,NA,NA,NA,NA,NA,NA,NA,NA,NA,NA,NA,NA,NA,NA,NA,NA,NA,NA,NA
88922,shallow,flow.Sequence,3_0_4_0_7_1,NA,NA,skipped,NA,705483,NA,NA,705480.88,705484,2023-08-06T12:37:58Z,705501.64,NULL,Flexibilität,kubadilika,d,NA,NA,NA,NA,sd,NA,4,NA,NA,NA,NA,NA,NA,NA,NA,NA,NA,NA,NA,NA,NA,NA,NA,NA,NA,NA
88922,task,flow.Sequence,3_0_4_0_7,NA,NA,completion,8875.12,696592,696584.96,696605.76,705480.88,705484,2023-08-06T12:37:58Z,705501.64,NULL,Flexibilität,kubadilika,d,NA,NA,NA,NA,sd,NA,4,NA,NA,NA,NA,NA,NA,NA,NA,NA,NA,NA,NA,NA,NA,NA,NA,NA,NA,NA
88922,block,flow.Loop,3_0_4_0,NA,NA,completion,97088.46,608392,608392.14,608392.42,705480.88,705486,2023-08-06T12:37:58Z,705501.64,NULL,NA,NA,NA,NA,NA,NA,NA,sd,NA,4,NA,NA,NA,NA,NA,NA,NA,NA,NA,NA,NA,NA,NA,NA,NA,NA,NA,NA,NA
88922,weiter,canvas.Screen,3_0_4_1,sdf,keypress(Space),response,1060.36,705486,705480.88,705501.64,706562,706578,2023-08-06T12:37:59Z,706631,NULL,NA,NA,NA,NA,NA,NA,NA,sd,NA,4,NA,NA,NA,NA,NA,NA,NA,NA,NA,NA,NA,NA,NA,NA,NA,NA,NA,NA,NA
88922,check continue,flow.Sequence,3_0_4,NA,NA,completion,98169.58,608392,608392.14,608392.42,706562,706578,2023-08-06T12:37:59Z,706631,NULL,NA,NA,NA,NA,NA,NA,NA,sd,NA,4,NA,NA,NA,NA,NA,NA,NA,NA,NA,NA,NA,NA,NA,NA,NA,NA,NA,NA,NA
88922,deep,flow.Sequence,3_0_5_0_0_0,NA,NA,skipped,NA,706631,NA,NA,706562,706631,2023-08-06T12:37:59Z,706631,NULL,Sänger,mwimbaji,s,msichana,shughuli,mshirika,NA,sdf,NA,5,NA,NA,NA,NA,NA,NA,NA,NA,NA,NA,NA,NA,NA,NA,NA,NA,NA,NA,NA
88922,Shallow Question,html.Page,3_0_5_0_0_1_0,NA,NA,form submission,5534,706631,706630.64,706631,712165,712165,2023-08-06T12:38:05Z,712168.28,NULL,Sänger,mwimbaji,s,msichana,shughuli,mshirika,mwimbaji,NA,NA,5,NA,NA,NA,NA,NA,NA,NA,NA,NA,NA,NA,NA,NA,NA,NA,NA,NA,NA,NA
88922,"""Richtig""-Screen",canvas.Screen,3_0_5_0_0_1_1,NA,NA,timeout,5000.2999999999,712168,712161.58,712168.28,717148.04,717149,2023-08-06T12:38:10Z,717168.58,NULL,Sänger,mwimbaji,s,msichana,shughuli,mshirika,NA,sdf,1,5,NA,NA,NA,NA,NA,NA,NA,NA,NA,NA,NA,NA,NA,NA,NA,NA,NA,NA,NA
88922,"""Falsch""-Screen",canvas.Screen,3_0_5_0_0_1_2,NA,NA,skipped,NA,717157,NA,NA,717148.04,717158,2023-08-06T12:38:10Z,717168.58,NULL,Sänger,mwimbaji,s,msichana,shughuli,mshirika,NA,sdf,NA,5,NA,NA,NA,NA,NA,NA,NA,NA,NA,NA,NA,NA,NA,NA,NA,NA,NA,NA,NA
88922,shallow,flow.Sequence,3_0_5_0_0_1,NA,NA,completion,10517.04,706631,706630.64,706631,717148.04,717158,2023-08-06T12:38:10Z,717168.58,NULL,Sänger,mwimbaji,s,msichana,shughuli,mshirika,NA,sdf,NA,5,NA,NA,NA,NA,NA,NA,NA,NA,NA,NA,NA,NA,NA,NA,NA,NA,NA,NA,NA
88922,task,flow.Sequence,3_0_5_0_0,NA,NA,completion,10517.04,706631,706630.64,706631,717148.04,717158,2023-08-06T12:38:10Z,717168.58,NULL,Sänger,mwimbaji,s,msichana,shughuli,mshirika,NA,sdf,NA,5,NA,NA,NA,NA,NA,NA,NA,NA,NA,NA,NA,NA,NA,NA,NA,NA,NA,NA,NA
88922,Deep Question,html.Page,3_0_5_0_1_0_0,NA,NA,form submission,13891.42,717160,717148.04,717168.58,731060,731061,2023-08-06T12:38:24Z,731064.08,NULL,Flexibilität,kubadilika,d,NA,NA,NA,kubilika,NA,NA,5,NA,NA,NA,NA,NA,NA,NA,NA,NA,NA,NA,NA,NA,NA,NA,NA,NA,NA,NA
88922,"""Richtig""-Screen",canvas.Screen,3_0_5_0_1_0_1,NA,NA,skipped,NA,731062,NA,NA,731060,731062,2023-08-06T12:38:24Z,731064.08,NULL,Flexibilität,kubadilika,d,NA,NA,NA,NA,sdf,NA,5,NA,NA,NA,NA,NA,NA,NA,NA,NA,NA,NA,NA,NA,NA,NA,NA,NA,NA,NA
88922,"""Falsch""-Screen",canvas.Screen,3_0_5_0_1_0_2,NA,NA,timeout,5000.0600000001,731064,731057.9,731064.08,736043.74,736045,2023-08-06T12:38:29Z,736064.14,NULL,Flexibilität,kubadilika,d,NA,NA,NA,NA,sdf,0,5,NA,NA,NA,NA,NA,NA,NA,NA,NA,NA,NA,NA,NA,NA,NA,NA,NA,NA,NA
88922,deep,flow.Sequence,3_0_5_0_1_0,NA,NA,completion,18875.16,717159,717148.04,717168.58,736043.74,736046,2023-08-06T12:38:29Z,736064.14,NULL,Flexibilität,kubadilika,d,NA,NA,NA,NA,sdf,NA,5,NA,NA,NA,NA,NA,NA,NA,NA,NA,NA,NA,NA,NA,NA,NA,NA,NA,NA,NA
88922,shallow,flow.Sequence,3_0_5_0_1_1,NA,NA,skipped,NA,736046,NA,NA,736043.74,736046,2023-08-06T12:38:29Z,736064.14,NULL,Flexibilität,kubadilika,d,NA,NA,NA,NA,sdf,NA,5,NA,NA,NA,NA,NA,NA,NA,NA,NA,NA,NA,NA,NA,NA,NA,NA,NA,NA,NA
88922,task,flow.Sequence,3_0_5_0_1,NA,NA,completion,18875.16,717158,717148.04,717168.58,736043.74,736047,2023-08-06T12:38:29Z,736064.14,NULL,Flexibilität,kubadilika,d,NA,NA,NA,NA,sdf,NA,5,NA,NA,NA,NA,NA,NA,NA,NA,NA,NA,NA,NA,NA,NA,NA,NA,NA,NA,NA
88922,Deep Question,html.Page,3_0_5_0_2_0_0,NA,NA,form submission,4651.86,736047,736043.74,736064.14,740716,740716,2023-08-06T12:38:34Z,740730.74,NULL,Atmosphäre,angahewa,d,NA,NA,NA,angahewa,NA,NA,5,NA,NA,NA,NA,NA,NA,NA,NA,NA,NA,NA,NA,NA,NA,NA,NA,NA,NA,NA
88922,"""Richtig""-Screen",canvas.Screen,3_0_5_0_2_0_1,NA,NA,timeout,5000.12,740718,740713.94,740730.74,745710.1,745712,2023-08-06T12:38:39Z,745730.86,NULL,Atmosphäre,angahewa,d,NA,NA,NA,NA,sdf,1,5,NA,NA,NA,NA,NA,NA,NA,NA,NA,NA,NA,NA,NA,NA,NA,NA,NA,NA,NA
88922,"""Falsch""-Screen",canvas.Screen,3_0_5_0_2_0_2,NA,NA,skipped,NA,745717,NA,NA,745710.1,745718,2023-08-06T12:38:39Z,745730.86,NULL,Atmosphäre,angahewa,d,NA,NA,NA,NA,sdf,NA,5,NA,NA,NA,NA,NA,NA,NA,NA,NA,NA,NA,NA,NA,NA,NA,NA,NA,NA,NA
88922,deep,flow.Sequence,3_0_5_0_2_0,NA,NA,completion,9645.96,736047,736043.74,736064.14,745710.1,745718,2023-08-06T12:38:39Z,745730.86,NULL,Atmosphäre,angahewa,d,NA,NA,NA,NA,sdf,NA,5,NA,NA,NA,NA,NA,NA,NA,NA,NA,NA,NA,NA,NA,NA,NA,NA,NA,NA,NA
88922,shallow,flow.Sequence,3_0_5_0_2_1,NA,NA,skipped,NA,745718,NA,NA,745710.1,745718,2023-08-06T12:38:39Z,745730.86,NULL,Atmosphäre,angahewa,d,NA,NA,NA,NA,sdf,NA,5,NA,NA,NA,NA,NA,NA,NA,NA,NA,NA,NA,NA,NA,NA,NA,NA,NA,NA,NA
88922,task,flow.Sequence,3_0_5_0_2,NA,NA,completion,9645.96,736047,736043.74,736064.14,745710.1,745719,2023-08-06T12:38:39Z,745730.86,NULL,Atmosphäre,angahewa,d,NA,NA,NA,NA,sdf,NA,5,NA,NA,NA,NA,NA,NA,NA,NA,NA,NA,NA,NA,NA,NA,NA,NA,NA,NA,NA
88922,deep,flow.Sequence,3_0_5_0_3_0,NA,NA,skipped,NA,745719,NA,NA,745710.1,745719,2023-08-06T12:38:39Z,745730.86,NULL,Angreifer,mshambulizi,s,kitengo,tasinia,usafirishaji,NA,sdf,NA,5,NA,NA,NA,NA,NA,NA,NA,NA,NA,NA,NA,NA,NA,NA,NA,NA,NA,NA,NA
88922,Shallow Question,html.Page,3_0_5_0_3_1_0,NA,NA,form submission,5652.14,745720,745710.1,745730.86,751383,751383,2023-08-06T12:38:44Z,751397.6,NULL,Angreifer,mshambulizi,s,kitengo,tasinia,usafirishaji,mshambulizi,NA,NA,5,NA,NA,NA,NA,NA,NA,NA,NA,NA,NA,NA,NA,NA,NA,NA,NA,NA,NA,NA
88922,"""Richtig""-Screen",canvas.Screen,3_0_5_0_3_1_1,NA,NA,timeout,4999.9,751386,751379.4,751397.6,756377.06,756380,2023-08-06T12:38:49Z,756397.5,NULL,Angreifer,mshambulizi,s,kitengo,tasinia,usafirishaji,NA,sdf,1,5,NA,NA,NA,NA,NA,NA,NA,NA,NA,NA,NA,NA,NA,NA,NA,NA,NA,NA,NA
88922,"""Falsch""-Screen",canvas.Screen,3_0_5_0_3_1_2,NA,NA,skipped,NA,756396,NA,NA,756377.06,756397,2023-08-06T12:38:49Z,756397.5,NULL,Angreifer,mshambulizi,s,kitengo,tasinia,usafirishaji,NA,sdf,NA,5,NA,NA,NA,NA,NA,NA,NA,NA,NA,NA,NA,NA,NA,NA,NA,NA,NA,NA,NA
88922,shallow,flow.Sequence,3_0_5_0_3_1,NA,NA,completion,10646.2,745719,745710.1,745730.86,756377.06,756397,2023-08-06T12:38:49Z,756397.5,NULL,Angreifer,mshambulizi,s,kitengo,tasinia,usafirishaji,NA,sdf,NA,5,NA,NA,NA,NA,NA,NA,NA,NA,NA,NA,NA,NA,NA,NA,NA,NA,NA,NA,NA
88922,task,flow.Sequence,3_0_5_0_3,NA,NA,completion,10646.2,745719,745710.1,745730.86,756377.06,756398,2023-08-06T12:38:49Z,756397.5,NULL,Angreifer,mshambulizi,s,kitengo,tasinia,usafirishaji,NA,sdf,NA,5,NA,NA,NA,NA,NA,NA,NA,NA,NA,NA,NA,NA,NA,NA,NA,NA,NA,NA,NA
88922,Deep Question,html.Page,3_0_5_0_4_0_0,NA,NA,form submission,5653.5,756399,756377.06,756397.5,762051,762052,2023-08-06T12:38:55Z,762064.28,NULL,Kanzler,diwani,d,NA,NA,NA,diwani,NA,NA,5,NA,NA,NA,NA,NA,NA,NA,NA,NA,NA,NA,NA,NA,NA,NA,NA,NA,NA,NA
88922,"""Richtig""-Screen",canvas.Screen,3_0_5_0_4_0_1,NA,NA,timeout,4999.9399999999,762054,762047.64,762064.28,767043.44,767045,2023-08-06T12:39:00Z,767064.22,NULL,Kanzler,diwani,d,NA,NA,NA,NA,sdf,1,5,NA,NA,NA,NA,NA,NA,NA,NA,NA,NA,NA,NA,NA,NA,NA,NA,NA,NA,NA
88922,"""Falsch""-Screen",canvas.Screen,3_0_5_0_4_0_2,NA,NA,skipped,NA,767053,NA,NA,767043.44,767053,2023-08-06T12:39:00Z,767064.22,NULL,Kanzler,diwani,d,NA,NA,NA,NA,sdf,NA,5,NA,NA,NA,NA,NA,NA,NA,NA,NA,NA,NA,NA,NA,NA,NA,NA,NA,NA,NA
88922,deep,flow.Sequence,3_0_5_0_4_0,NA,NA,completion,10645.94,756399,756377.06,756397.5,767043.44,767055,2023-08-06T12:39:00Z,767064.22,NULL,Kanzler,diwani,d,NA,NA,NA,NA,sdf,NA,5,NA,NA,NA,NA,NA,NA,NA,NA,NA,NA,NA,NA,NA,NA,NA,NA,NA,NA,NA
88922,shallow,flow.Sequence,3_0_5_0_4_1,NA,NA,skipped,NA,767055,NA,NA,767043.44,767056,2023-08-06T12:39:00Z,767064.22,NULL,Kanzler,diwani,d,NA,NA,NA,NA,sdf,NA,5,NA,NA,NA,NA,NA,NA,NA,NA,NA,NA,NA,NA,NA,NA,NA,NA,NA,NA,NA
88922,task,flow.Sequence,3_0_5_0_4,NA,NA,completion,10645.94,756399,756377.06,756397.5,767043.44,767056,2023-08-06T12:39:00Z,767064.22,NULL,Kanzler,diwani,d,NA,NA,NA,NA,sdf,NA,5,NA,NA,NA,NA,NA,NA,NA,NA,NA,NA,NA,NA,NA,NA,NA,NA,NA,NA,NA
88922,deep,flow.Sequence,3_0_5_0_5_0,NA,NA,skipped,NA,767057,NA,NA,767043.44,767057,2023-08-06T12:39:00Z,767064.22,NULL,Erneuerung,ukarabati,s,ushawishi,ukalifu,unyonyaji,NA,sdf,NA,5,NA,NA,NA,NA,NA,NA,NA,NA,NA,NA,NA,NA,NA,NA,NA,NA,NA,NA,NA
88922,Shallow Question,html.Page,3_0_5_0_5_1_0,NA,NA,form submission,8655.78,767057,767043.44,767064.22,775720,775720,2023-08-06T12:39:09Z,775730.84,NULL,Erneuerung,ukarabati,s,ushawishi,ukalifu,unyonyaji,ukarabati,NA,NA,5,NA,NA,NA,NA,NA,NA,NA,NA,NA,NA,NA,NA,NA,NA,NA,NA,NA,NA,NA
88922,"""Richtig""-Screen",canvas.Screen,3_0_5_0_5_1_1,NA,NA,timeout,5000.02,775722,775718.32,775730.84,780710.06,780711,2023-08-06T12:39:14Z,780730.86,NULL,Erneuerung,ukarabati,s,ushawishi,ukalifu,unyonyaji,NA,sdf,1,5,NA,NA,NA,NA,NA,NA,NA,NA,NA,NA,NA,NA,NA,NA,NA,NA,NA,NA,NA
88922,"""Falsch""-Screen",canvas.Screen,3_0_5_0_5_1_2,NA,NA,skipped,NA,780718,NA,NA,780710.06,780720,2023-08-06T12:39:14Z,780730.86,NULL,Erneuerung,ukarabati,s,ushawishi,ukalifu,unyonyaji,NA,sdf,NA,5,NA,NA,NA,NA,NA,NA,NA,NA,NA,NA,NA,NA,NA,NA,NA,NA,NA,NA,NA
88922,shallow,flow.Sequence,3_0_5_0_5_1,NA,NA,completion,13645.84,767057,767043.44,767064.22,780710.06,780720,2023-08-06T12:39:14Z,780730.86,NULL,Erneuerung,ukarabati,s,ushawishi,ukalifu,unyonyaji,NA,sdf,NA,5,NA,NA,NA,NA,NA,NA,NA,NA,NA,NA,NA,NA,NA,NA,NA,NA,NA,NA,NA
88922,task,flow.Sequence,3_0_5_0_5,NA,NA,completion,13645.84,767057,767043.44,767064.22,780710.06,780721,2023-08-06T12:39:14Z,780730.86,NULL,Erneuerung,ukarabati,s,ushawishi,ukalifu,unyonyaji,NA,sdf,NA,5,NA,NA,NA,NA,NA,NA,NA,NA,NA,NA,NA,NA,NA,NA,NA,NA,NA,NA,NA
88922,Deep Question,html.Page,3_0_5_0_6_0_0,NA,NA,form submission,22859.14,780721,780710.06,780730.86,803590,803590,2023-08-06T12:39:36Z,803605.82,NULL,Abrechnung,uhasibu,d,NA,NA,NA,ulukaji,NA,NA,5,NA,NA,NA,NA,NA,NA,NA,NA,NA,NA,NA,NA,NA,NA,NA,NA,NA,NA,NA
88922,"""Richtig""-Screen",canvas.Screen,3_0_5_0_6_0_1,NA,NA,skipped,NA,803592,NA,NA,803590,803592,2023-08-06T12:39:36Z,803605.82,NULL,Abrechnung,uhasibu,d,NA,NA,NA,NA,sdf,NA,5,NA,NA,NA,NA,NA,NA,NA,NA,NA,NA,NA,NA,NA,NA,NA,NA,NA,NA,NA
88922,"""Falsch""-Screen",canvas.Screen,3_0_5_0_6_0_2,NA,NA,timeout,5000.02,803593,803588.8,803605.82,808585.12,808587,2023-08-06T12:39:41Z,808605.84,NULL,Abrechnung,uhasibu,d,NA,NA,NA,NA,sdf,0,5,NA,NA,NA,NA,NA,NA,NA,NA,NA,NA,NA,NA,NA,NA,NA,NA,NA,NA,NA
88922,deep,flow.Sequence,3_0_5_0_6_0,NA,NA,completion,27854.26,780721,780710.06,780730.86,808585.12,808587,2023-08-06T12:39:41Z,808605.84,NULL,Abrechnung,uhasibu,d,NA,NA,NA,NA,sdf,NA,5,NA,NA,NA,NA,NA,NA,NA,NA,NA,NA,NA,NA,NA,NA,NA,NA,NA,NA,NA
88922,shallow,flow.Sequence,3_0_5_0_6_1,NA,NA,skipped,NA,808588,NA,NA,808585.12,808588,2023-08-06T12:39:41Z,808605.84,NULL,Abrechnung,uhasibu,d,NA,NA,NA,NA,sdf,NA,5,NA,NA,NA,NA,NA,NA,NA,NA,NA,NA,NA,NA,NA,NA,NA,NA,NA,NA,NA
88922,task,flow.Sequence,3_0_5_0_6,NA,NA,completion,27854.26,780721,780710.06,780730.86,808585.12,808589,2023-08-06T12:39:41Z,808605.84,NULL,Abrechnung,uhasibu,d,NA,NA,NA,NA,sdf,NA,5,NA,NA,NA,NA,NA,NA,NA,NA,NA,NA,NA,NA,NA,NA,NA,NA,NA,NA,NA
88922,deep,flow.Sequence,3_0_5_0_7_0,NA,NA,skipped,NA,808590,NA,NA,808585.12,808590,2023-08-06T12:39:41Z,808605.84,NULL,Wechsel,ugeuzaji,s,utambulisho,kujenga,wasiwasi,NA,sdf,NA,5,NA,NA,NA,NA,NA,NA,NA,NA,NA,NA,NA,NA,NA,NA,NA,NA,NA,NA,NA
88922,Shallow Question,html.Page,3_0_5_0_7_1_0,NA,NA,form submission,6201.16,808591,808585.12,808605.84,814807,814808,2023-08-06T12:39:48Z,814814.3,NULL,Wechsel,ugeuzaji,s,utambulisho,kujenga,wasiwasi,ugeuzaji,NA,NA,5,NA,NA,NA,NA,NA,NA,NA,NA,NA,NA,NA,NA,NA,NA,NA,NA,NA,NA,NA
88922,"""Richtig""-Screen",canvas.Screen,3_0_5_0_7_1_1,NA,NA,timeout,5000.1399999999,814814,814801.18,814814.3,819793.44,819795,2023-08-06T12:39:53Z,819814.44,NULL,Wechsel,ugeuzaji,s,utambulisho,kujenga,wasiwasi,NA,sdf,1,5,NA,NA,NA,NA,NA,NA,NA,NA,NA,NA,NA,NA,NA,NA,NA,NA,NA,NA,NA
88922,"""Falsch""-Screen",canvas.Screen,3_0_5_0_7_1_2,NA,NA,skipped,NA,819799,NA,NA,819793.44,819800,2023-08-06T12:39:53Z,819814.44,NULL,Wechsel,ugeuzaji,s,utambulisho,kujenga,wasiwasi,NA,sdf,NA,5,NA,NA,NA,NA,NA,NA,NA,NA,NA,NA,NA,NA,NA,NA,NA,NA,NA,NA,NA
88922,shallow,flow.Sequence,3_0_5_0_7_1,NA,NA,completion,11187.6,808591,808585.12,808605.84,819793.44,819801,2023-08-06T12:39:53Z,819814.44,NULL,Wechsel,ugeuzaji,s,utambulisho,kujenga,wasiwasi,NA,sdf,NA,5,NA,NA,NA,NA,NA,NA,NA,NA,NA,NA,NA,NA,NA,NA,NA,NA,NA,NA,NA
88922,task,flow.Sequence,3_0_5_0_7,NA,NA,completion,11187.6,808590,808585.12,808605.84,819793.44,819802,2023-08-06T12:39:53Z,819814.44,NULL,Wechsel,ugeuzaji,s,utambulisho,kujenga,wasiwasi,NA,sdf,NA,5,NA,NA,NA,NA,NA,NA,NA,NA,NA,NA,NA,NA,NA,NA,NA,NA,NA,NA,NA
88922,block,flow.Loop,3_0_5_0,NA,NA,completion,113162.44,706631,706630.64,706631,819793.44,819803,2023-08-06T12:39:53Z,819814.44,NULL,NA,NA,NA,NA,NA,NA,NA,sdf,NA,5,NA,NA,NA,NA,NA,NA,NA,NA,NA,NA,NA,NA,NA,NA,NA,NA,NA,NA,NA
88922,weiter,canvas.Screen,3_0_5_1,sdf,keypress(Space),response,996.56000000006,819803,819793.44,819814.44,820811,820823,2023-08-06T12:39:54Z,821503.46,NULL,NA,NA,NA,NA,NA,NA,NA,sdf,NA,5,NA,NA,NA,NA,NA,NA,NA,NA,NA,NA,NA,NA,NA,NA,NA,NA,NA,NA,NA
88922,check continue,flow.Sequence,3_0_5,NA,NA,completion,114180,706631,706630.64,706631,820811,820824,2023-08-06T12:39:54Z,821503.46,NULL,NA,NA,NA,NA,NA,NA,NA,sdf,NA,5,NA,NA,NA,NA,NA,NA,NA,NA,NA,NA,NA,NA,NA,NA,NA,NA,NA,NA,NA
88922,check continue,flow.Sequence,3_0_6,NA,NA,skipped,NA,820889,NA,NA,820811,820889,2023-08-06T12:39:54Z,821503.46,NULL,NA,NA,NA,NA,NA,NA,NA,dfs,NA,6,NA,NA,NA,NA,NA,NA,NA,NA,NA,NA,NA,NA,NA,NA,NA,NA,NA,NA,NA
88922,check continue,flow.Sequence,3_0_7,NA,NA,skipped,NA,820919,NA,NA,820811,820919,2023-08-06T12:39:54Z,821503.46,NULL,NA,NA,NA,NA,NA,NA,NA,df,NA,7,NA,NA,NA,NA,NA,NA,NA,NA,NA,NA,NA,NA,NA,NA,NA,NA,NA,NA,NA
88922,check continue,flow.Sequence,3_0_8,NA,NA,skipped,NA,820947,NA,NA,820811,820947,2023-08-06T12:39:54Z,821503.46,NULL,NA,NA,NA,NA,NA,NA,NA,dfs,NA,8,NA,NA,NA,NA,NA,NA,NA,NA,NA,NA,NA,NA,NA,NA,NA,NA,NA,NA,NA
88922,check continue,flow.Sequence,3_0_9,NA,NA,skipped,NA,820974,NA,NA,820811,820974,2023-08-06T12:39:54Z,821503.46,NULL,NA,NA,NA,NA,NA,NA,NA,dsf,NA,9,NA,NA,NA,NA,NA,NA,NA,NA,NA,NA,NA,NA,NA,NA,NA,NA,NA,NA,NA
88922,check continue,flow.Sequence,3_0_10,NA,NA,skipped,NA,821003,NA,NA,820811,821003,2023-08-06T12:39:54Z,821503.46,NULL,NA,NA,NA,NA,NA,NA,NA,df,NA,10,NA,NA,NA,NA,NA,NA,NA,NA,NA,NA,NA,NA,NA,NA,NA,NA,NA,NA,NA
88922,check continue,flow.Sequence,3_0_11,NA,NA,skipped,NA,821031,NA,NA,820811,821031,2023-08-06T12:39:54Z,821503.46,NULL,NA,NA,NA,NA,NA,NA,NA,dfs,NA,11,NA,NA,NA,NA,NA,NA,NA,NA,NA,NA,NA,NA,NA,NA,NA,NA,NA,NA,NA
88922,check continue,flow.Sequence,3_0_12,NA,NA,skipped,NA,821056,NA,NA,820811,821056,2023-08-06T12:39:54Z,821503.46,NULL,NA,NA,NA,NA,NA,NA,NA,dsf,NA,12,NA,NA,NA,NA,NA,NA,NA,NA,NA,NA,NA,NA,NA,NA,NA,NA,NA,NA,NA
88922,check continue,flow.Sequence,3_0_13,NA,NA,skipped,NA,821084,NA,NA,820811,821084,2023-08-06T12:39:54Z,821503.46,NULL,NA,NA,NA,NA,NA,NA,NA,dsf,NA,13,NA,NA,NA,NA,NA,NA,NA,NA,NA,NA,NA,NA,NA,NA,NA,NA,NA,NA,NA
88922,check continue,flow.Sequence,3_0_14,NA,NA,skipped,NA,821113,NA,NA,820811,821113,2023-08-06T12:39:54Z,821503.46,NULL,NA,NA,NA,NA,NA,NA,NA,NA,NA,14,NA,NA,NA,NA,NA,NA,NA,NA,NA,NA,NA,NA,NA,NA,NA,NA,NA,NA,NA
88922,check continue,flow.Sequence,3_0_15,NA,NA,skipped,NA,821139,NA,NA,820811,821139,2023-08-06T12:39:54Z,821503.46,NULL,NA,NA,NA,NA,NA,NA,NA,NA,NA,15,NA,NA,NA,NA,NA,NA,NA,NA,NA,NA,NA,NA,NA,NA,NA,NA,NA,NA,NA
88922,check continue,flow.Sequence,3_0_16,NA,NA,skipped,NA,821168,NA,NA,820811,821168,2023-08-06T12:39:54Z,821503.46,NULL,NA,NA,NA,NA,NA,NA,NA,NA,NA,16,NA,NA,NA,NA,NA,NA,NA,NA,NA,NA,NA,NA,NA,NA,NA,NA,NA,NA,NA
88922,check continue,flow.Sequence,3_0_17,NA,NA,skipped,NA,821195,NA,NA,820811,821195,2023-08-06T12:39:54Z,821503.46,NULL,NA,NA,NA,NA,NA,NA,NA,NA,NA,17,NA,NA,NA,NA,NA,NA,NA,NA,NA,NA,NA,NA,NA,NA,NA,NA,NA,NA,NA
88922,check continue,flow.Sequence,3_0_18,NA,NA,skipped,NA,821219,NA,NA,820811,821219,2023-08-06T12:39:54Z,821503.46,NULL,NA,NA,NA,NA,NA,NA,NA,NA,NA,18,NA,NA,NA,NA,NA,NA,NA,NA,NA,NA,NA,NA,NA,NA,NA,NA,NA,NA,NA
88922,check continue,flow.Sequence,3_0_19,NA,NA,skipped,NA,821245,NA,NA,820811,821245,2023-08-06T12:39:54Z,821503.46,NULL,NA,NA,NA,NA,NA,NA,NA,NA,NA,19,NA,NA,NA,NA,NA,NA,NA,NA,NA,NA,NA,NA,NA,NA,NA,NA,NA,NA,NA
88922,check continue,flow.Sequence,3_0_20,NA,NA,skipped,NA,821270,NA,NA,820811,821270,2023-08-06T12:39:54Z,821503.46,NULL,NA,NA,NA,NA,NA,NA,NA,NA,NA,20,NA,NA,NA,NA,NA,NA,NA,NA,NA,NA,NA,NA,NA,NA,NA,NA,NA,NA,NA
88922,check continue,flow.Sequence,3_0_21,NA,NA,skipped,NA,821296,NA,NA,820811,821297,2023-08-06T12:39:54Z,821503.46,NULL,NA,NA,NA,NA,NA,NA,NA,NA,NA,21,NA,NA,NA,NA,NA,NA,NA,NA,NA,NA,NA,NA,NA,NA,NA,NA,NA,NA,NA
88922,check continue,flow.Sequence,3_0_22,NA,NA,skipped,NA,821322,NA,NA,820811,821322,2023-08-06T12:39:54Z,821503.46,NULL,NA,NA,NA,NA,NA,NA,NA,NA,NA,22,NA,NA,NA,NA,NA,NA,NA,NA,NA,NA,NA,NA,NA,NA,NA,NA,NA,NA,NA
88922,check continue,flow.Sequence,3_0_23,NA,NA,skipped,NA,821349,NA,NA,820811,821349,2023-08-06T12:39:54Z,821503.46,NULL,NA,NA,NA,NA,NA,NA,NA,NA,NA,23,NA,NA,NA,NA,NA,NA,NA,NA,NA,NA,NA,NA,NA,NA,NA,NA,NA,NA,NA
88922,check continue,flow.Sequence,3_0_24,NA,NA,skipped,NA,821376,NA,NA,820811,821376,2023-08-06T12:39:54Z,821503.46,NULL,NA,NA,NA,NA,NA,NA,NA,NA,NA,24,NA,NA,NA,NA,NA,NA,NA,NA,NA,NA,NA,NA,NA,NA,NA,NA,NA,NA,NA
88922,check continue,flow.Sequence,3_0_25,NA,NA,skipped,NA,821401,NA,NA,820811,821401,2023-08-06T12:39:54Z,821503.46,NULL,NA,NA,NA,NA,NA,NA,NA,NA,NA,25,NA,NA,NA,NA,NA,NA,NA,NA,NA,NA,NA,NA,NA,NA,NA,NA,NA,NA,NA
88922,check continue,flow.Sequence,3_0_26,NA,NA,skipped,NA,821426,NA,NA,820811,821426,2023-08-06T12:39:54Z,821503.46,NULL,NA,NA,NA,NA,NA,NA,NA,NA,NA,26,NA,NA,NA,NA,NA,NA,NA,NA,NA,NA,NA,NA,NA,NA,NA,NA,NA,NA,NA
88922,check continue,flow.Sequence,3_0_27,NA,NA,skipped,NA,821450,NA,NA,820811,821450,2023-08-06T12:39:54Z,821503.46,NULL,NA,NA,NA,NA,NA,NA,NA,NA,NA,27,NA,NA,NA,NA,NA,NA,NA,NA,NA,NA,NA,NA,NA,NA,NA,NA,NA,NA,NA
88922,check continue,flow.Sequence,3_0_28,NA,NA,skipped,NA,821475,NA,NA,820811,821475,2023-08-06T12:39:54Z,821503.46,NULL,NA,NA,NA,NA,NA,NA,NA,NA,NA,28,NA,NA,NA,NA,NA,NA,NA,NA,NA,NA,NA,NA,NA,NA,NA,NA,NA,NA,NA
88922,check continue,flow.Sequence,3_0_29,NA,NA,skipped,NA,821503,NA,NA,820811,821503,2023-08-06T12:39:54Z,821503.46,NULL,NA,NA,NA,NA,NA,NA,NA,NA,NA,29,NA,NA,NA,NA,NA,NA,NA,NA,NA,NA,NA,NA,NA,NA,NA,NA,NA,NA,NA
88922,until continue,flow.Loop,3_0,NA,NA,completion,598856.06,221922,221954.58,221954.94,820811,821503,2023-08-06T12:39:54Z,821503.46,NULL,NA,NA,NA,NA,NA,NA,NA,NA,NA,NA,NA,NA,NA,NA,NA,NA,NA,NA,NA,NA,NA,NA,NA,NA,NA,NA,NA,NA,NA
88922,block 1,flow.Sequence,3,NA,NA,completion,598856.06,221922,221954.58,221954.94,820811,821503,2023-08-06T12:39:54Z,821503.46,NULL,NA,NA,NA,NA,NA,NA,NA,NA,NA,NA,NA,NA,NA,NA,NA,NA,NA,NA,NA,NA,NA,NA,NA,NA,NA,NA,NA,NA,NA
88922,1.Part Over,canvas.Screen,4,NA,keypress(Space),response,5276.54,821503,821503.14,821503.46,826780,826786,2023-08-06T12:40:00Z,826842.56,NULL,NA,NA,NA,NA,NA,NA,NA,NA,NA,NA,NA,NA,NA,NA,NA,NA,NA,NA,NA,NA,NA,NA,NA,NA,NA,NA,NA,NA,NA
88922,Deep Question,html.Page,5_0_0_0_0_0_0,NA,NA,form submission,4328.4399999999,826842,826842.14,826842.56,831171,831171,2023-08-06T12:40:04Z,831189.12,NULL,Stimmung,kinyongo,d,NA,NA,NA,x,NA,NA,0,NA,NA,NA,NA,NA,NA,NA,NA,NA,NA,NA,NA,NA,NA,NA,NA,NA,NA,NA
88922,"""Richtig""-Screen",canvas.Screen,5_0_0_0_0_0_1,NA,NA,skipped,NA,831173,NA,NA,831171,831173,2023-08-06T12:40:04Z,831189.12,NULL,Stimmung,kinyongo,d,NA,NA,NA,NA,sdf,NA,0,NA,NA,NA,NA,NA,NA,NA,NA,NA,NA,NA,NA,NA,NA,NA,NA,NA,NA,NA
88922,"""Falsch""-Screen",canvas.Screen,5_0_0_0_0_0_2,NA,NA,timeout,5000.08,831174,831169.72,831189.12,836168.7,836172,2023-08-06T12:40:09Z,836189.2,NULL,Stimmung,kinyongo,d,NA,NA,NA,NA,sdf,0,0,NA,NA,NA,NA,NA,NA,NA,NA,NA,NA,NA,NA,NA,NA,NA,NA,NA,NA,NA
88922,deep,flow.Sequence,5_0_0_0_0_0,NA,NA,completion,9326.1399999999,826842,826842.14,826842.56,836168.7,836175,2023-08-06T12:40:09Z,836189.2,NULL,Stimmung,kinyongo,d,NA,NA,NA,NA,sdf,NA,0,NA,NA,NA,NA,NA,NA,NA,NA,NA,NA,NA,NA,NA,NA,NA,NA,NA,NA,NA
88922,shallow,flow.Sequence,5_0_0_0_0_1,NA,NA,skipped,NA,836176,NA,NA,836168.7,836177,2023-08-06T12:40:09Z,836189.2,NULL,Stimmung,kinyongo,d,NA,NA,NA,NA,sdf,NA,0,NA,NA,NA,NA,NA,NA,NA,NA,NA,NA,NA,NA,NA,NA,NA,NA,NA,NA,NA
88922,task,flow.Sequence,5_0_0_0_0,NA,NA,completion,9326.1399999999,826842,826842.14,826842.56,836168.7,836177,2023-08-06T12:40:09Z,836189.2,NULL,Stimmung,kinyongo,d,NA,NA,NA,NA,sdf,NA,0,NA,NA,NA,NA,NA,NA,NA,NA,NA,NA,NA,NA,NA,NA,NA,NA,NA,NA,NA
88922,Deep Question,html.Page,5_0_0_0_1_0_0,NA,NA,form submission,2450.8,836178,836168.7,836189.2,838640,838640,2023-08-06T12:40:11Z,838647.68,NULL,Gefährdung,kuhatarisha,d,NA,NA,NA,x,NA,NA,0,NA,NA,NA,NA,NA,NA,NA,NA,NA,NA,NA,NA,NA,NA,NA,NA,NA,NA,NA
88922,"""Richtig""-Screen",canvas.Screen,5_0_0_0_1_0_1,NA,NA,skipped,NA,838650,NA,NA,838640,838651,2023-08-06T12:40:11Z,838647.68,NULL,Gefährdung,kuhatarisha,d,NA,NA,NA,NA,sdf,NA,0,NA,NA,NA,NA,NA,NA,NA,NA,NA,NA,NA,NA,NA,NA,NA,NA,NA,NA,NA
88922,"""Falsch""-Screen",canvas.Screen,5_0_0_0_1_0_2,NA,NA,timeout,4999.84,838655,838631.06,838647.68,843627.22,843629,2023-08-06T12:40:16Z,843647.52,NULL,Gefährdung,kuhatarisha,d,NA,NA,NA,NA,sdf,0,0,NA,NA,NA,NA,NA,NA,NA,NA,NA,NA,NA,NA,NA,NA,NA,NA,NA,NA,NA
88922,deep,flow.Sequence,5_0_0_0_1_0,NA,NA,completion,7438.02,836178,836168.7,836189.2,843627.22,843629,2023-08-06T12:40:16Z,843647.52,NULL,Gefährdung,kuhatarisha,d,NA,NA,NA,NA,sdf,NA,0,NA,NA,NA,NA,NA,NA,NA,NA,NA,NA,NA,NA,NA,NA,NA,NA,NA,NA,NA
88922,shallow,flow.Sequence,5_0_0_0_1_1,NA,NA,skipped,NA,843630,NA,NA,843627.22,843630,2023-08-06T12:40:16Z,843647.52,NULL,Gefährdung,kuhatarisha,d,NA,NA,NA,NA,sdf,NA,0,NA,NA,NA,NA,NA,NA,NA,NA,NA,NA,NA,NA,NA,NA,NA,NA,NA,NA,NA
88922,task,flow.Sequence,5_0_0_0_1,NA,NA,completion,7438.02,836178,836168.7,836189.2,843627.22,843631,2023-08-06T12:40:16Z,843647.52,NULL,Gefährdung,kuhatarisha,d,NA,NA,NA,NA,sdf,NA,0,NA,NA,NA,NA,NA,NA,NA,NA,NA,NA,NA,NA,NA,NA,NA,NA,NA,NA,NA
88922,Deep Question,html.Page,5_0_0_0_2_0_0,NA,NA,form submission,9724.48,843632,843627.22,843647.52,853372,853373,2023-08-06T12:40:26Z,853376.72,NULL,Betrüger,mdanganyifu,d,NA,NA,NA,kinjongo,NA,NA,0,NA,NA,NA,NA,NA,NA,NA,NA,NA,NA,NA,NA,NA,NA,NA,NA,NA,NA,NA
88922,"""Richtig""-Screen",canvas.Screen,5_0_0_0_2_0_1,NA,NA,skipped,NA,853380,NA,NA,853372,853381,2023-08-06T12:40:26Z,853376.72,NULL,Betrüger,mdanganyifu,d,NA,NA,NA,NA,sdf,NA,0,NA,NA,NA,NA,NA,NA,NA,NA,NA,NA,NA,NA,NA,NA,NA,NA,NA,NA,NA
88922,"""Falsch""-Screen",canvas.Screen,5_0_0_0_2_0_2,NA,NA,timeout,5000.0800000001,853387,853365.02,853376.72,858356.22,858357,2023-08-06T12:40:31Z,858376.8,NULL,Betrüger,mdanganyifu,d,NA,NA,NA,NA,sdf,0,0,NA,NA,NA,NA,NA,NA,NA,NA,NA,NA,NA,NA,NA,NA,NA,NA,NA,NA,NA
88922,deep,flow.Sequence,5_0_0_0_2_0,NA,NA,completion,14708.7,843632,843627.22,843647.52,858356.22,858358,2023-08-06T12:40:31Z,858376.8,NULL,Betrüger,mdanganyifu,d,NA,NA,NA,NA,sdf,NA,0,NA,NA,NA,NA,NA,NA,NA,NA,NA,NA,NA,NA,NA,NA,NA,NA,NA,NA,NA
88922,shallow,flow.Sequence,5_0_0_0_2_1,NA,NA,skipped,NA,858359,NA,NA,858356.22,858359,2023-08-06T12:40:31Z,858376.8,NULL,Betrüger,mdanganyifu,d,NA,NA,NA,NA,sdf,NA,0,NA,NA,NA,NA,NA,NA,NA,NA,NA,NA,NA,NA,NA,NA,NA,NA,NA,NA,NA
88922,task,flow.Sequence,5_0_0_0_2,NA,NA,completion,14708.7,843631,843627.22,843647.52,858356.22,858360,2023-08-06T12:40:31Z,858376.8,NULL,Betrüger,mdanganyifu,d,NA,NA,NA,NA,sdf,NA,0,NA,NA,NA,NA,NA,NA,NA,NA,NA,NA,NA,NA,NA,NA,NA,NA,NA,NA,NA
88922,Deep Question,html.Page,5_0_0_0_3_0_0,NA,NA,form submission,5990.2,858360,858356.22,858376.8,864367,864367,2023-08-06T12:40:37Z,864376.78,NULL,Kontrolle,kudhibiti,d,NA,NA,NA,x,NA,NA,0,NA,NA,NA,NA,NA,NA,NA,NA,NA,NA,NA,NA,NA,NA,NA,NA,NA,NA,NA
88922,"""Richtig""-Screen",canvas.Screen,5_0_0_0_3_0_1,NA,NA,skipped,NA,864371,NA,NA,864367,864371,2023-08-06T12:40:37Z,864376.78,NULL,Kontrolle,kudhibiti,d,NA,NA,NA,NA,sdf,NA,0,NA,NA,NA,NA,NA,NA,NA,NA,NA,NA,NA,NA,NA,NA,NA,NA,NA,NA,NA
88922,"""Falsch""-Screen",canvas.Screen,5_0_0_0_3_0_2,NA,NA,timeout,5000.22,864382,864361.44,864376.78,869356.26,869357,2023-08-06T12:40:42Z,869377,NULL,Kontrolle,kudhibiti,d,NA,NA,NA,NA,sdf,0,0,NA,NA,NA,NA,NA,NA,NA,NA,NA,NA,NA,NA,NA,NA,NA,NA,NA,NA,NA
88922,deep,flow.Sequence,5_0_0_0_3_0,NA,NA,completion,10979.46,858360,858356.22,858376.8,869356.26,869358,2023-08-06T12:40:42Z,869377,NULL,Kontrolle,kudhibiti,d,NA,NA,NA,NA,sdf,NA,0,NA,NA,NA,NA,NA,NA,NA,NA,NA,NA,NA,NA,NA,NA,NA,NA,NA,NA,NA
