observation,sender,sender_type,sender_id,response,response_action,ended_on,duration,time_run,time_render,time_show,time_end,time_commit,timestamp,time_switch,distractors,german,swahili,enc,distractor1,distractor2,distractor3,response_2,x,correct,x_2,url_vp,url_sess,meta_labjs_version,meta_location,meta_user_agent,meta_platform,meta_language,meta_locale,meta_time_zone,meta_timezone_offset,meta_screen_width,meta_screen_height,meta_scroll_width,meta_scroll_height,meta_window_inner_width,meta_window_inner_height,meta_device_pixel_ratio,meta_labjs_build_flavor,meta_labjs_build_commit
e874d,Introduction general,canvas.Screen,0,weiter,keypress(q),response,51191.76,295,300.6,317.24,51509,51531,2023-07-10T14:20:09Z,51534.3,NULL,NA,NA,NA,NA,NA,NA,NA,NA,NA,NA,173,1,20.2.4,https://neurocog.fernuni.ch/studies/vweber/sliechti/encoding_immediate/index.html?vp=173&sess=1,Mozilla/5.0 (Windows NT 10.0; Win64; x64; rv:109.0) Gecko/20100101 Firefox/115.0,Win32,de,de-CH,Europe/Zurich,-120,1280,720,1280,587,1280,587,1.5,production,f5b4a49f956347addd546a832a3327688c2c0fef
e874d,Introduction practice,canvas.Screen,1_0,NA,keypress(Space),response,9897.7,51533,51533.92,51534.3,61432,61447,2023-07-10T14:20:19Z,61459.48,NULL,NA,NA,NA,NA,NA,NA,NA,NA,NA,NA,NA,NA,NA,NA,NA,NA,NA,NA,NA,NA,NA,NA,NA,NA,NA,NA,NA,NA,NA
e874d,deep,flow.Sequence,1_1_0_0,NA,NA,skipped,NA,61448,NA,NA,61432,61448,2023-07-10T14:20:19Z,61459.48,"c(""distractor1"", ""distractor2"", ""distractor3"")",Gegenwart,hadhara,s,katiba,jokofu,mikopo,NA,NA,NA,NA,NA,NA,NA,NA,NA,NA,NA,NA,NA,NA,NA,NA,NA,NA,NA,NA,NA,NA,NA
e874d,Shallow Question,html.Page,1_1_0_1_0,NA,NA,form submission,8196.52,61449,61449.56,61459.48,69656,69656,2023-07-10T14:20:27Z,69658.38,"c(""distractor1"", ""distractor2"", ""distractor3"")",Gegenwart,hadhara,s,katiba,jokofu,mikopo,katiba,NA,NA,NA,NA,NA,NA,NA,NA,NA,NA,NA,NA,NA,NA,NA,NA,NA,NA,NA,NA,NA,NA
e874d,"""Richtig""-Screen",canvas.Screen,1_1_0_1_1,NA,NA,skipped,NA,69663,NA,NA,69656,69663,2023-07-10T14:20:27Z,69658.38,"c(""distractor1"", ""distractor2"", ""distractor3"")",Gegenwart,hadhara,s,katiba,jokofu,mikopo,NA,NA,NA,NA,NA,NA,NA,NA,NA,NA,NA,NA,NA,NA,NA,NA,NA,NA,NA,NA,NA,NA,NA
e874d,"""Falsch""-Screen",canvas.Screen,1_1_0_1_2,NA,NA,timeout,4999.4,69665,69654.7,69658.38,74641.42,74647,2023-07-10T14:20:32Z,74657.78,"c(""distractor1"", ""distractor2"", ""distractor3"")",Gegenwart,hadhara,s,katiba,jokofu,mikopo,NA,NA,0,NA,NA,NA,NA,NA,NA,NA,NA,NA,NA,NA,NA,NA,NA,NA,NA,NA,NA,NA,NA
e874d,shallow,flow.Sequence,1_1_0_1,NA,NA,completion,13181.94,61449,61449.56,61459.48,74641.42,74649,2023-07-10T14:20:32Z,74657.78,"c(""distractor1"", ""distractor2"", ""distractor3"")",Gegenwart,hadhara,s,katiba,jokofu,mikopo,NA,NA,NA,NA,NA,NA,NA,NA,NA,NA,NA,NA,NA,NA,NA,NA,NA,NA,NA,NA,NA,NA,NA
e874d,task,flow.Sequence,1_1_0,NA,NA,completion,13181.94,61448,61449.56,61459.48,74641.42,74649,2023-07-10T14:20:32Z,74657.78,"c(""distractor1"", ""distractor2"", ""distractor3"")",Gegenwart,hadhara,s,katiba,jokofu,mikopo,NA,NA,NA,NA,NA,NA,NA,NA,NA,NA,NA,NA,NA,NA,NA,NA,NA,NA,NA,NA,NA,NA,NA
e874d,deep,flow.Sequence,1_1_1_0,NA,NA,skipped,NA,74649,NA,NA,74641.42,74649,2023-07-10T14:20:32Z,74657.78,"c(""distractor1"", ""distractor2"", ""distractor3"")",Kritik,lawama,s,dereva,nafasi,mawazo,NA,NA,NA,NA,NA,NA,NA,NA,NA,NA,NA,NA,NA,NA,NA,NA,NA,NA,NA,NA,NA,NA,NA
e874d,Shallow Question,html.Page,1_1_1_1_0,NA,NA,form submission,6176.22,74650,74641.42,74657.78,80834,80834,2023-07-10T14:20:38Z,80840.22,"c(""distractor1"", ""distractor2"", ""distractor3"")",Kritik,lawama,s,dereva,nafasi,mawazo,nafasi,NA,NA,NA,NA,NA,NA,NA,NA,NA,NA,NA,NA,NA,NA,NA,NA,NA,NA,NA,NA,NA,NA
e874d,"""Richtig""-Screen",canvas.Screen,1_1_1_1_1,NA,NA,skipped,NA,80840,NA,NA,80834,80841,2023-07-10T14:20:38Z,80840.22,"c(""distractor1"", ""distractor2"", ""distractor3"")",Kritik,lawama,s,dereva,nafasi,mawazo,NA,NA,NA,NA,NA,NA,NA,NA,NA,NA,NA,NA,NA,NA,NA,NA,NA,NA,NA,NA,NA,NA,NA
e874d,"""Falsch""-Screen",canvas.Screen,1_1_1_1_2,NA,NA,timeout,4999.44,80843,80831.66,80840.22,85823.04,85824,2023-07-10T14:20:43Z,85839.66,"c(""distractor1"", ""distractor2"", ""distractor3"")",Kritik,lawama,s,dereva,nafasi,mawazo,NA,NA,0,NA,NA,NA,NA,NA,NA,NA,NA,NA,NA,NA,NA,NA,NA,NA,NA,NA,NA,NA,NA
e874d,shallow,flow.Sequence,1_1_1_1,NA,NA,completion,11165.26,74650,74641.42,74657.78,85823.04,85825,2023-07-10T14:20:43Z,85839.66,"c(""distractor1"", ""distractor2"", ""distractor3"")",Kritik,lawama,s,dereva,nafasi,mawazo,NA,NA,NA,NA,NA,NA,NA,NA,NA,NA,NA,NA,NA,NA,NA,NA,NA,NA,NA,NA,NA,NA,NA
e874d,task,flow.Sequence,1_1_1,NA,NA,completion,11165.26,74649,74641.42,74657.78,85823.04,85825,2023-07-10T14:20:43Z,85839.66,"c(""distractor1"", ""distractor2"", ""distractor3"")",Kritik,lawama,s,dereva,nafasi,mawazo,NA,NA,NA,NA,NA,NA,NA,NA,NA,NA,NA,NA,NA,NA,NA,NA,NA,NA,NA,NA,NA,NA,NA
e874d,deep,flow.Sequence,1_1_2_0,NA,NA,skipped,NA,85826,NA,NA,85823.04,85826,2023-07-10T14:20:43Z,85839.66,"c(""distractor1"", ""distractor2"", ""distractor3"")",Rückhalt,msaada,s,muhula,auwali,kiwimbe,NA,NA,NA,NA,NA,NA,NA,NA,NA,NA,NA,NA,NA,NA,NA,NA,NA,NA,NA,NA,NA,NA,NA
e874d,Shallow Question,html.Page,1_1_2_1_0,NA,NA,form submission,5654.34,85826,85823.04,85839.66,91494,91494,2023-07-10T14:20:49Z,91492.58,"c(""distractor1"", ""distractor2"", ""distractor3"")",Rückhalt,msaada,s,muhula,auwali,kiwimbe,muhula,NA,NA,NA,NA,NA,NA,NA,NA,NA,NA,NA,NA,NA,NA,NA,NA,NA,NA,NA,NA,NA,NA
e874d,"""Richtig""-Screen",canvas.Screen,1_1_2_1_1,NA,NA,skipped,NA,91497,NA,NA,91494,91497,2023-07-10T14:20:49Z,91492.58,"c(""distractor1"", ""distractor2"", ""distractor3"")",Rückhalt,msaada,s,muhula,auwali,kiwimbe,NA,NA,NA,NA,NA,NA,NA,NA,NA,NA,NA,NA,NA,NA,NA,NA,NA,NA,NA,NA,NA,NA,NA
e874d,"""Falsch""-Screen",canvas.Screen,1_1_2_1_2,NA,NA,timeout,4996.06,91500,91492.34,91492.58,96472,96472,2023-07-10T14:20:54Z,96488.64,"c(""distractor1"", ""distractor2"", ""distractor3"")",Rückhalt,msaada,s,muhula,auwali,kiwimbe,NA,NA,0,NA,NA,NA,NA,NA,NA,NA,NA,NA,NA,NA,NA,NA,NA,NA,NA,NA,NA,NA,NA
e874d,shallow,flow.Sequence,1_1_2_1,NA,NA,completion,10632.34,85826,85823.04,85839.66,96472,96473,2023-07-10T14:20:54Z,96488.64,"c(""distractor1"", ""distractor2"", ""distractor3"")",Rückhalt,msaada,s,muhula,auwali,kiwimbe,NA,NA,NA,NA,NA,NA,NA,NA,NA,NA,NA,NA,NA,NA,NA,NA,NA,NA,NA,NA,NA,NA,NA
e874d,task,flow.Sequence,1_1_2,NA,NA,completion,10632.34,85825,85823.04,85839.66,96472,96473,2023-07-10T14:20:54Z,96488.64,"c(""distractor1"", ""distractor2"", ""distractor3"")",Rückhalt,msaada,s,muhula,auwali,kiwimbe,NA,NA,NA,NA,NA,NA,NA,NA,NA,NA,NA,NA,NA,NA,NA,NA,NA,NA,NA,NA,NA,NA,NA
e874d,Deep Question,html.Page,1_1_3_0_0,NA,NA,form submission,8440.36,96473,96472,96488.64,104929,104929,2023-07-10T14:21:02Z,104937.16,"c(""distractor1"", ""distractor2"", ""distractor3"")",Gesundheit,salama,d,NA,NA,NA,jaka,NA,NA,NA,NA,NA,NA,NA,NA,NA,NA,NA,NA,NA,NA,NA,NA,NA,NA,NA,NA,NA,NA
e874d,"""Richtig""-Screen",canvas.Screen,1_1_3_0_1,NA,NA,skipped,NA,104932,NA,NA,104929,104933,2023-07-10T14:21:02Z,104937.16,"c(""distractor1"", ""distractor2"", ""distractor3"")",Gesundheit,salama,d,NA,NA,NA,NA,NA,NA,NA,NA,NA,NA,NA,NA,NA,NA,NA,NA,NA,NA,NA,NA,NA,NA,NA,NA,NA,NA
e874d,"""Falsch""-Screen",canvas.Screen,1_1_3_0_2,NA,NA,timeout,4999.36,104937,104927.58,104937.16,109919.96,109921,2023-07-10T14:21:07Z,109936.52,"c(""distractor1"", ""distractor2"", ""distractor3"")",Gesundheit,salama,d,NA,NA,NA,NA,NA,0,NA,NA,NA,NA,NA,NA,NA,NA,NA,NA,NA,NA,NA,NA,NA,NA,NA,NA,NA,NA
e874d,deep,flow.Sequence,1_1_3_0,NA,NA,completion,13431.32,96473,96472,96488.64,109919.96,109923,2023-07-10T14:21:07Z,109936.52,"c(""distractor1"", ""distractor2"", ""distractor3"")",Gesundheit,salama,d,NA,NA,NA,NA,NA,NA,NA,NA,NA,NA,NA,NA,NA,NA,NA,NA,NA,NA,NA,NA,NA,NA,NA,NA,NA,NA
e874d,shallow,flow.Sequence,1_1_3_1,NA,NA,skipped,NA,109923,NA,NA,109919.96,109924,2023-07-10T14:21:07Z,109936.52,"c(""distractor1"", ""distractor2"", ""distractor3"")",Gesundheit,salama,d,NA,NA,NA,NA,NA,NA,NA,NA,NA,NA,NA,NA,NA,NA,NA,NA,NA,NA,NA,NA,NA,NA,NA,NA,NA,NA
e874d,task,flow.Sequence,1_1_3,NA,NA,completion,13431.32,96473,96472,96488.64,109919.96,109924,2023-07-10T14:21:07Z,109936.52,"c(""distractor1"", ""distractor2"", ""distractor3"")",Gesundheit,salama,d,NA,NA,NA,NA,NA,NA,NA,NA,NA,NA,NA,NA,NA,NA,NA,NA,NA,NA,NA,NA,NA,NA,NA,NA,NA,NA
e874d,Deep Question,html.Page,1_1_4_0_0,NA,NA,form submission,7224.48,109925,109919.96,109936.52,117161,117161,2023-07-10T14:21:14Z,117160.34,"c(""distractor1"", ""distractor2"", ""distractor3"")",Schatten,kivuli,d,NA,NA,NA,ka,NA,NA,NA,NA,NA,NA,NA,NA,NA,NA,NA,NA,NA,NA,NA,NA,NA,NA,NA,NA,NA,NA
e874d,"""Richtig""-Screen",canvas.Screen,1_1_4_0_1,NA,NA,skipped,NA,117162,NA,NA,117161,117162,2023-07-10T14:21:14Z,117160.34,"c(""distractor1"", ""distractor2"", ""distractor3"")",Schatten,kivuli,d,NA,NA,NA,NA,NA,NA,NA,NA,NA,NA,NA,NA,NA,NA,NA,NA,NA,NA,NA,NA,NA,NA,NA,NA,NA,NA
e874d,"""Falsch""-Screen",canvas.Screen,1_1_4_0_2,NA,NA,timeout,5007.84,117164,117160.12,117160.34,122151.56,122152,2023-07-10T14:21:19Z,122168.18,"c(""distractor1"", ""distractor2"", ""distractor3"")",Schatten,kivuli,d,NA,NA,NA,NA,NA,0,NA,NA,NA,NA,NA,NA,NA,NA,NA,NA,NA,NA,NA,NA,NA,NA,NA,NA,NA,NA
e874d,deep,flow.Sequence,1_1_4_0,NA,NA,completion,12215.04,109925,109919.96,109936.52,122151.56,122153,2023-07-10T14:21:19Z,122168.18,"c(""distractor1"", ""distractor2"", ""distractor3"")",Schatten,kivuli,d,NA,NA,NA,NA,NA,NA,NA,NA,NA,NA,NA,NA,NA,NA,NA,NA,NA,NA,NA,NA,NA,NA,NA,NA,NA,NA
e874d,shallow,flow.Sequence,1_1_4_1,NA,NA,skipped,NA,122153,NA,NA,122151.56,122153,2023-07-10T14:21:19Z,122168.18,"c(""distractor1"", ""distractor2"", ""distractor3"")",Schatten,kivuli,d,NA,NA,NA,NA,NA,NA,NA,NA,NA,NA,NA,NA,NA,NA,NA,NA,NA,NA,NA,NA,NA,NA,NA,NA,NA,NA
e874d,task,flow.Sequence,1_1_4,NA,NA,completion,12215.04,109925,109919.96,109936.52,122151.56,122153,2023-07-10T14:21:19Z,122168.18,"c(""distractor1"", ""distractor2"", ""distractor3"")",Schatten,kivuli,d,NA,NA,NA,NA,NA,NA,NA,NA,NA,NA,NA,NA,NA,NA,NA,NA,NA,NA,NA,NA,NA,NA,NA,NA,NA,NA
e874d,Deep Question,html.Page,1_1_5_0_0,NA,NA,form submission,7650.82,122153,122151.56,122168.18,129819,129819,2023-07-10T14:21:27Z,129818.5,"c(""distractor1"", ""distractor2"", ""distractor3"")",Qualität,mtindo,d,NA,NA,NA,al,NA,NA,NA,NA,NA,NA,NA,NA,NA,NA,NA,NA,NA,NA,NA,NA,NA,NA,NA,NA,NA,NA
e874d,"""Richtig""-Screen",canvas.Screen,1_1_5_0_1,NA,NA,skipped,NA,129822,NA,NA,129819,129822,2023-07-10T14:21:27Z,129818.5,"c(""distractor1"", ""distractor2"", ""distractor3"")",Qualität,mtindo,d,NA,NA,NA,NA,NA,NA,NA,NA,NA,NA,NA,NA,NA,NA,NA,NA,NA,NA,NA,NA,NA,NA,NA,NA,NA,NA
e874d,"""Falsch""-Screen",canvas.Screen,1_1_5_0_2,NA,NA,timeout,4998.12,129825,129818.14,129818.5,134800.08,134801,2023-07-10T14:21:32Z,134816.62,"c(""distractor1"", ""distractor2"", ""distractor3"")",Qualität,mtindo,d,NA,NA,NA,NA,NA,0,NA,NA,NA,NA,NA,NA,NA,NA,NA,NA,NA,NA,NA,NA,NA,NA,NA,NA,NA,NA
e874d,deep,flow.Sequence,1_1_5_0,NA,NA,completion,12631.9,122153,122151.56,122168.18,134800.08,134802,2023-07-10T14:21:32Z,134816.62,"c(""distractor1"", ""distractor2"", ""distractor3"")",Qualität,mtindo,d,NA,NA,NA,NA,NA,NA,NA,NA,NA,NA,NA,NA,NA,NA,NA,NA,NA,NA,NA,NA,NA,NA,NA,NA,NA,NA
e874d,shallow,flow.Sequence,1_1_5_1,NA,NA,skipped,NA,134802,NA,NA,134800.08,134803,2023-07-10T14:21:32Z,134816.62,"c(""distractor1"", ""distractor2"", ""distractor3"")",Qualität,mtindo,d,NA,NA,NA,NA,NA,NA,NA,NA,NA,NA,NA,NA,NA,NA,NA,NA,NA,NA,NA,NA,NA,NA,NA,NA,NA,NA
e874d,task,flow.Sequence,1_1_5,NA,NA,completion,12631.9,122153,122151.56,122168.18,134800.08,134804,2023-07-10T14:21:32Z,134816.62,"c(""distractor1"", ""distractor2"", ""distractor3"")",Qualität,mtindo,d,NA,NA,NA,NA,NA,NA,NA,NA,NA,NA,NA,NA,NA,NA,NA,NA,NA,NA,NA,NA,NA,NA,NA,NA,NA,NA
e874d,block,flow.Loop,1_1,NA,NA,completion,73340.6,61447,61449.56,61459.48,134800.08,134805,2023-07-10T14:21:32Z,134816.62,"c(""distractor1"", ""distractor2"", ""distractor3"")",NA,NA,NA,NA,NA,NA,NA,NA,NA,NA,NA,NA,NA,NA,NA,NA,NA,NA,NA,NA,NA,NA,NA,NA,NA,NA,NA,NA,NA
e874d,Practice,flow.Sequence,1,NA,NA,completion,83265.78,51533,51533.92,51534.3,134800.08,134805,2023-07-10T14:21:32Z,134816.62,NULL,NA,NA,NA,NA,NA,NA,NA,NA,NA,NA,NA,NA,NA,NA,NA,NA,NA,NA,NA,NA,NA,NA,NA,NA,NA,NA,NA,NA,NA
e874d,Experiment start,canvas.Screen,2,weiter,keypress(q),response,19881.38,134805,134800.08,134816.62,154698,154711,2023-07-10T14:21:52Z,154806.4,NULL,NA,NA,NA,NA,NA,NA,NA,NA,NA,NA,NA,NA,NA,NA,NA,NA,NA,NA,NA,NA,NA,NA,NA,NA,NA,NA,NA,NA,NA
e874d,deep,flow.Sequence,3_0_0_0_0_0,NA,NA,skipped,NA,154806,NA,NA,154698,154806,2023-07-10T14:21:52Z,154806.4,NULL,Fleisch,mshakiki,s,kizunguzungu,mshikamano,angusho,NA,sdf,NA,0,NA,NA,NA,NA,NA,NA,NA,NA,NA,NA,NA,NA,NA,NA,NA,NA,NA,NA,NA
e874d,Shallow Question,html.Page,3_0_0_0_0_1_0,NA,NA,form submission,7461.6,154806,154806.06,154806.4,162268,162268,2023-07-10T14:21:59Z,162267.82,NULL,Fleisch,mshakiki,s,kizunguzungu,mshikamano,angusho,angusho,NA,NA,0,NA,NA,NA,NA,NA,NA,NA,NA,NA,NA,NA,NA,NA,NA,NA,NA,NA,NA,NA
e874d,"""Richtig""-Screen",canvas.Screen,3_0_0_0_0_1_1,NA,NA,skipped,NA,162271,NA,NA,162268,162271,2023-07-10T14:21:59Z,162267.82,NULL,Fleisch,mshakiki,s,kizunguzungu,mshikamano,angusho,NA,sdf,NA,0,NA,NA,NA,NA,NA,NA,NA,NA,NA,NA,NA,NA,NA,NA,NA,NA,NA,NA,NA
e874d,"""Falsch""-Screen",canvas.Screen,3_0_0_0_0_1_2,NA,NA,timeout,4994.68,162273,162267.5,162267.82,167246.08,167247,2023-07-10T14:22:04Z,167262.5,NULL,Fleisch,mshakiki,s,kizunguzungu,mshikamano,angusho,NA,sdf,0,0,NA,NA,NA,NA,NA,NA,NA,NA,NA,NA,NA,NA,NA,NA,NA,NA,NA,NA,NA
e874d,shallow,flow.Sequence,3_0_0_0_0_1,NA,NA,completion,12439.68,154806,154806.06,154806.4,167246.08,167248,2023-07-10T14:22:04Z,167262.5,NULL,Fleisch,mshakiki,s,kizunguzungu,mshikamano,angusho,NA,sdf,NA,0,NA,NA,NA,NA,NA,NA,NA,NA,NA,NA,NA,NA,NA,NA,NA,NA,NA,NA,NA
e874d,task,flow.Sequence,3_0_0_0_0,NA,NA,completion,12439.68,154806,154806.06,154806.4,167246.08,167248,2023-07-10T14:22:04Z,167262.5,NULL,Fleisch,mshakiki,s,kizunguzungu,mshikamano,angusho,NA,sdf,NA,0,NA,NA,NA,NA,NA,NA,NA,NA,NA,NA,NA,NA,NA,NA,NA,NA,NA,NA,NA
e874d,Deep Question,html.Page,3_0_0_0_1_0_0,NA,NA,form submission,2230.5,167249,167246.08,167262.5,169493,169493,2023-07-10T14:22:07Z,169495.52,NULL,Genehmigung,idhini,d,NA,NA,NA,da,NA,NA,0,NA,NA,NA,NA,NA,NA,NA,NA,NA,NA,NA,NA,NA,NA,NA,NA,NA,NA,NA
e874d,"""Richtig""-Screen",canvas.Screen,3_0_0_0_1_0_1,NA,NA,skipped,NA,169495,NA,NA,169493,169496,2023-07-10T14:22:07Z,169495.52,NULL,Genehmigung,idhini,d,NA,NA,NA,NA,sdf,NA,0,NA,NA,NA,NA,NA,NA,NA,NA,NA,NA,NA,NA,NA,NA,NA,NA,NA,NA,NA
e874d,"""Falsch""-Screen",canvas.Screen,3_0_0_0_1_0_2,NA,NA,timeout,4999.34,169498,169491.02,169495.52,174478.5,174482,2023-07-10T14:22:12Z,174494.86,NULL,Genehmigung,idhini,d,NA,NA,NA,NA,sdf,0,0,NA,NA,NA,NA,NA,NA,NA,NA,NA,NA,NA,NA,NA,NA,NA,NA,NA,NA,NA
e874d,deep,flow.Sequence,3_0_0_0_1_0,NA,NA,completion,7216,167249,167246.08,167262.5,174478.5,174484,2023-07-10T14:22:12Z,174494.86,NULL,Genehmigung,idhini,d,NA,NA,NA,NA,sdf,NA,0,NA,NA,NA,NA,NA,NA,NA,NA,NA,NA,NA,NA,NA,NA,NA,NA,NA,NA,NA
e874d,shallow,flow.Sequence,3_0_0_0_1_1,NA,NA,skipped,NA,174485,NA,NA,174478.5,174486,2023-07-10T14:22:12Z,174494.86,NULL,Genehmigung,idhini,d,NA,NA,NA,NA,sdf,NA,0,NA,NA,NA,NA,NA,NA,NA,NA,NA,NA,NA,NA,NA,NA,NA,NA,NA,NA,NA
e874d,task,flow.Sequence,3_0_0_0_1,NA,NA,completion,7216,167248,167246.08,167262.5,174478.5,174486,2023-07-10T14:22:12Z,174494.86,NULL,Genehmigung,idhini,d,NA,NA,NA,NA,sdf,NA,0,NA,NA,NA,NA,NA,NA,NA,NA,NA,NA,NA,NA,NA,NA,NA,NA,NA,NA,NA
e874d,deep,flow.Sequence,3_0_0_0_2_0,NA,NA,skipped,NA,174488,NA,NA,174478.5,174488,2023-07-10T14:22:12Z,174494.86,NULL,Integrität,uadilifu,s,muungano,mtiririko,upunguaji,NA,sdf,NA,0,NA,NA,NA,NA,NA,NA,NA,NA,NA,NA,NA,NA,NA,NA,NA,NA,NA,NA,NA
e874d,Shallow Question,html.Page,3_0_0_0_2_1_0,NA,NA,form submission,6625.14,174488,174478.5,174494.86,181120,181121,2023-07-10T14:22:18Z,181127.36,NULL,Integrität,uadilifu,s,muungano,mtiririko,upunguaji,uadilifu,NA,NA,0,NA,NA,NA,NA,NA,NA,NA,NA,NA,NA,NA,NA,NA,NA,NA,NA,NA,NA,NA
e874d,"""Richtig""-Screen",canvas.Screen,3_0_0_0_2_1_1,NA,NA,timeout,4999.34,181129,181118.28,181127.36,186110.32,186112,2023-07-10T14:22:23Z,186126.7,NULL,Integrität,uadilifu,s,muungano,mtiririko,upunguaji,NA,sdf,1,0,NA,NA,NA,NA,NA,NA,NA,NA,NA,NA,NA,NA,NA,NA,NA,NA,NA,NA,NA
e874d,"""Falsch""-Screen",canvas.Screen,3_0_0_0_2_1_2,NA,NA,skipped,NA,186120,NA,NA,186110.32,186120,2023-07-10T14:22:23Z,186126.7,NULL,Integrität,uadilifu,s,muungano,mtiririko,upunguaji,NA,sdf,NA,0,NA,NA,NA,NA,NA,NA,NA,NA,NA,NA,NA,NA,NA,NA,NA,NA,NA,NA,NA
e874d,shallow,flow.Sequence,3_0_0_0_2_1,NA,NA,completion,11615.46,174488,174478.5,174494.86,186110.32,186121,2023-07-10T14:22:23Z,186126.7,NULL,Integrität,uadilifu,s,muungano,mtiririko,upunguaji,NA,sdf,NA,0,NA,NA,NA,NA,NA,NA,NA,NA,NA,NA,NA,NA,NA,NA,NA,NA,NA,NA,NA
e874d,task,flow.Sequence,3_0_0_0_2,NA,NA,completion,11615.46,174486,174478.5,174494.86,186110.32,186121,2023-07-10T14:22:23Z,186126.7,NULL,Integrität,uadilifu,s,muungano,mtiririko,upunguaji,NA,sdf,NA,0,NA,NA,NA,NA,NA,NA,NA,NA,NA,NA,NA,NA,NA,NA,NA,NA,NA,NA,NA
e874d,deep,flow.Sequence,3_0_0_0_3_0,NA,NA,skipped,NA,186122,NA,NA,186110.32,186122,2023-07-10T14:22:23Z,186126.7,NULL,Aufstand,ugomaji,s,mazidio,msingi,kujieleza,NA,sdf,NA,0,NA,NA,NA,NA,NA,NA,NA,NA,NA,NA,NA,NA,NA,NA,NA,NA,NA,NA,NA
e874d,Shallow Question,html.Page,3_0_0_0_3_1_0,NA,NA,form submission,3038.3,186123,186110.32,186126.7,189165,189165,2023-07-10T14:22:26Z,189163.66,NULL,Aufstand,ugomaji,s,mazidio,msingi,kujieleza,msingi,NA,NA,0,NA,NA,NA,NA,NA,NA,NA,NA,NA,NA,NA,NA,NA,NA,NA,NA,NA,NA,NA
e874d,"""Richtig""-Screen",canvas.Screen,3_0_0_0_3_1_1,NA,NA,skipped,NA,189167,NA,NA,189165,189168,2023-07-10T14:22:26Z,189163.66,NULL,Aufstand,ugomaji,s,mazidio,msingi,kujieleza,NA,sdf,NA,0,NA,NA,NA,NA,NA,NA,NA,NA,NA,NA,NA,NA,NA,NA,NA,NA,NA,NA,NA
e874d,"""Falsch""-Screen",canvas.Screen,3_0_0_0_3_1_2,NA,NA,timeout,4995.68,189171,189163.4,189163.66,194142.36,194143,2023-07-10T14:22:31Z,194159.34,NULL,Aufstand,ugomaji,s,mazidio,msingi,kujieleza,NA,sdf,0,0,NA,NA,NA,NA,NA,NA,NA,NA,NA,NA,NA,NA,NA,NA,NA,NA,NA,NA,NA
e874d,shallow,flow.Sequence,3_0_0_0_3_1,NA,NA,completion,8015.66,186122,186110.32,186126.7,194142.36,194144,2023-07-10T14:22:31Z,194159.34,NULL,Aufstand,ugomaji,s,mazidio,msingi,kujieleza,NA,sdf,NA,0,NA,NA,NA,NA,NA,NA,NA,NA,NA,NA,NA,NA,NA,NA,NA,NA,NA,NA,NA
e874d,task,flow.Sequence,3_0_0_0_3,NA,NA,completion,8015.66,186122,186110.32,186126.7,194142.36,194144,2023-07-10T14:22:31Z,194159.34,NULL,Aufstand,ugomaji,s,mazidio,msingi,kujieleza,NA,sdf,NA,0,NA,NA,NA,NA,NA,NA,NA,NA,NA,NA,NA,NA,NA,NA,NA,NA,NA,NA,NA
e874d,deep,flow.Sequence,3_0_0_0_4_0,NA,NA,skipped,NA,194145,NA,NA,194142.36,194145,2023-07-10T14:22:31Z,194159.34,NULL,Prüfung,mtihani,s,mkulima,mtizamo,ufumbuzi,NA,sdf,NA,0,NA,NA,NA,NA,NA,NA,NA,NA,NA,NA,NA,NA,NA,NA,NA,NA,NA,NA,NA
e874d,Shallow Question,html.Page,3_0_0_0_4_1_0,NA,NA,form submission,4087.66,194145,194142.36,194159.34,198247,198247,2023-07-10T14:22:35Z,198245.52,NULL,Prüfung,mtihani,s,mkulima,mtizamo,ufumbuzi,mkulima,NA,NA,0,NA,NA,NA,NA,NA,NA,NA,NA,NA,NA,NA,NA,NA,NA,NA,NA,NA,NA,NA
e874d,"""Richtig""-Screen",canvas.Screen,3_0_0_0_4_1_1,NA,NA,skipped,NA,198249,NA,NA,198247,198249,2023-07-10T14:22:35Z,198245.52,NULL,Prüfung,mtihani,s,mkulima,mtizamo,ufumbuzi,NA,sdf,NA,0,NA,NA,NA,NA,NA,NA,NA,NA,NA,NA,NA,NA,NA,NA,NA,NA,NA,NA,NA
e874d,"""Falsch""-Screen",canvas.Screen,3_0_0_0_4_1_2,NA,NA,timeout,4995.68,198252,198245.26,198245.52,203224.6,203226,2023-07-10T14:22:40Z,203241.2,NULL,Prüfung,mtihani,s,mkulima,mtizamo,ufumbuzi,NA,sdf,0,0,NA,NA,NA,NA,NA,NA,NA,NA,NA,NA,NA,NA,NA,NA,NA,NA,NA,NA,NA
e874d,shallow,flow.Sequence,3_0_0_0_4_1,NA,NA,completion,9065.26,194145,194142.36,194159.34,203224.6,203228,2023-07-10T14:22:40Z,203241.2,NULL,Prüfung,mtihani,s,mkulima,mtizamo,ufumbuzi,NA,sdf,NA,0,NA,NA,NA,NA,NA,NA,NA,NA,NA,NA,NA,NA,NA,NA,NA,NA,NA,NA,NA
e874d,task,flow.Sequence,3_0_0_0_4,NA,NA,completion,9065.26,194145,194142.36,194159.34,203224.6,203229,2023-07-10T14:22:40Z,203241.2,NULL,Prüfung,mtihani,s,mkulima,mtizamo,ufumbuzi,NA,sdf,NA,0,NA,NA,NA,NA,NA,NA,NA,NA,NA,NA,NA,NA,NA,NA,NA,NA,NA,NA,NA
e874d,Deep Question,html.Page,3_0_0_0_5_0_0,NA,NA,form submission,2055.8,203230,203224.6,203241.2,205297,205297,2023-07-10T14:22:42Z,205307.52,NULL,Verzögerung,kuchelewa,d,NA,NA,NA,da,NA,NA,0,NA,NA,NA,NA,NA,NA,NA,NA,NA,NA,NA,NA,NA,NA,NA,NA,NA,NA,NA
e874d,"""Richtig""-Screen",canvas.Screen,3_0_0_0_5_0_1,NA,NA,skipped,NA,205300,NA,NA,205297,205301,2023-07-10T14:22:42Z,205307.52,NULL,Verzögerung,kuchelewa,d,NA,NA,NA,NA,sdf,NA,0,NA,NA,NA,NA,NA,NA,NA,NA,NA,NA,NA,NA,NA,NA,NA,NA,NA,NA,NA
e874d,"""Falsch""-Screen",canvas.Screen,3_0_0_0_5_0_2,NA,NA,timeout,4999.32,205303,205296,205307.52,210290.3,210292,2023-07-10T14:22:47Z,210306.84,NULL,Verzögerung,kuchelewa,d,NA,NA,NA,NA,sdf,0,0,NA,NA,NA,NA,NA,NA,NA,NA,NA,NA,NA,NA,NA,NA,NA,NA,NA,NA,NA
e874d,deep,flow.Sequence,3_0_0_0_5_0,NA,NA,completion,7049.1,203229,203224.6,203241.2,210290.3,210292,2023-07-10T14:22:47Z,210306.84,NULL,Verzögerung,kuchelewa,d,NA,NA,NA,NA,sdf,NA,0,NA,NA,NA,NA,NA,NA,NA,NA,NA,NA,NA,NA,NA,NA,NA,NA,NA,NA,NA
e874d,shallow,flow.Sequence,3_0_0_0_5_1,NA,NA,skipped,NA,210292,NA,NA,210290.3,210292,2023-07-10T14:22:47Z,210306.84,NULL,Verzögerung,kuchelewa,d,NA,NA,NA,NA,sdf,NA,0,NA,NA,NA,NA,NA,NA,NA,NA,NA,NA,NA,NA,NA,NA,NA,NA,NA,NA,NA
e874d,task,flow.Sequence,3_0_0_0_5,NA,NA,completion,7049.1,203229,203224.6,203241.2,210290.3,210293,2023-07-10T14:22:47Z,210306.84,NULL,Verzögerung,kuchelewa,d,NA,NA,NA,NA,sdf,NA,0,NA,NA,NA,NA,NA,NA,NA,NA,NA,NA,NA,NA,NA,NA,NA,NA,NA,NA,NA
e874d,Deep Question,html.Page,3_0_0_0_6_0_0,NA,NA,form submission,2993.16,210293,210290.3,210306.84,213300,213300,2023-07-10T14:22:50Z,213306.5,NULL,Begegnung,kukutana,d,NA,NA,NA,ak,NA,NA,0,NA,NA,NA,NA,NA,NA,NA,NA,NA,NA,NA,NA,NA,NA,NA,NA,NA,NA,NA
e874d,"""Richtig""-Screen",canvas.Screen,3_0_0_0_6_0_1,NA,NA,skipped,NA,213304,NA,NA,213300,213304,2023-07-10T14:22:50Z,213306.5,NULL,Begegnung,kukutana,d,NA,NA,NA,NA,sdf,NA,0,NA,NA,NA,NA,NA,NA,NA,NA,NA,NA,NA,NA,NA,NA,NA,NA,NA,NA,NA
e874d,"""Falsch""-Screen",canvas.Screen,3_0_0_0_6_0_2,NA,NA,timeout,4999.42,213306,213299.14,213306.5,218289.58,218291,2023-07-10T14:22:55Z,218305.92,NULL,Begegnung,kukutana,d,NA,NA,NA,NA,sdf,0,0,NA,NA,NA,NA,NA,NA,NA,NA,NA,NA,NA,NA,NA,NA,NA,NA,NA,NA,NA
e874d,deep,flow.Sequence,3_0_0_0_6_0,NA,NA,completion,7982.74,210293,210290.3,210306.84,218289.58,218292,2023-07-10T14:22:55Z,218305.92,NULL,Begegnung,kukutana,d,NA,NA,NA,NA,sdf,NA,0,NA,NA,NA,NA,NA,NA,NA,NA,NA,NA,NA,NA,NA,NA,NA,NA,NA,NA,NA
e874d,shallow,flow.Sequence,3_0_0_0_6_1,NA,NA,skipped,NA,218292,NA,NA,218289.58,218292,2023-07-10T14:22:55Z,218305.92,NULL,Begegnung,kukutana,d,NA,NA,NA,NA,sdf,NA,0,NA,NA,NA,NA,NA,NA,NA,NA,NA,NA,NA,NA,NA,NA,NA,NA,NA,NA,NA
e874d,task,flow.Sequence,3_0_0_0_6,NA,NA,completion,7982.74,210293,210290.3,210306.84,218289.58,218293,2023-07-10T14:22:55Z,218305.92,NULL,Begegnung,kukutana,d,NA,NA,NA,NA,sdf,NA,0,NA,NA,NA,NA,NA,NA,NA,NA,NA,NA,NA,NA,NA,NA,NA,NA,NA,NA,NA
e874d,Deep Question,html.Page,3_0_0_0_7_0_0,NA,NA,form submission,3604.08,218293,218289.58,218305.92,221910,221910,2023-07-10T14:22:59Z,221908.9,NULL,Kultur,utamaduni,d,NA,NA,NA,ds,NA,NA,0,NA,NA,NA,NA,NA,NA,NA,NA,NA,NA,NA,NA,NA,NA,NA,NA,NA,NA,NA
e874d,"""Richtig""-Screen",canvas.Screen,3_0_0_0_7_0_1,NA,NA,skipped,NA,221912,NA,NA,221910,221913,2023-07-10T14:22:59Z,221908.9,NULL,Kultur,utamaduni,d,NA,NA,NA,NA,sdf,NA,0,NA,NA,NA,NA,NA,NA,NA,NA,NA,NA,NA,NA,NA,NA,NA,NA,NA,NA,NA
e874d,"""Falsch""-Screen",canvas.Screen,3_0_0_0_7_0_2,NA,NA,timeout,4995.86,221916,221908.6,221908.9,226888.34,226889,2023-07-10T14:23:04Z,226904.76,NULL,Kultur,utamaduni,d,NA,NA,NA,NA,sdf,0,0,NA,NA,NA,NA,NA,NA,NA,NA,NA,NA,NA,NA,NA,NA,NA,NA,NA,NA,NA
e874d,deep,flow.Sequence,3_0_0_0_7_0,NA,NA,completion,8582.42,218293,218289.58,218305.92,226888.34,226890,2023-07-10T14:23:04Z,226904.76,NULL,Kultur,utamaduni,d,NA,NA,NA,NA,sdf,NA,0,NA,NA,NA,NA,NA,NA,NA,NA,NA,NA,NA,NA,NA,NA,NA,NA,NA,NA,NA
e874d,shallow,flow.Sequence,3_0_0_0_7_1,NA,NA,skipped,NA,226890,NA,NA,226888.34,226890,2023-07-10T14:23:04Z,226904.76,NULL,Kultur,utamaduni,d,NA,NA,NA,NA,sdf,NA,0,NA,NA,NA,NA,NA,NA,NA,NA,NA,NA,NA,NA,NA,NA,NA,NA,NA,NA,NA
e874d,task,flow.Sequence,3_0_0_0_7,NA,NA,completion,8582.42,218293,218289.58,218305.92,226888.34,226890,2023-07-10T14:23:04Z,226904.76,NULL,Kultur,utamaduni,d,NA,NA,NA,NA,sdf,NA,0,NA,NA,NA,NA,NA,NA,NA,NA,NA,NA,NA,NA,NA,NA,NA,NA,NA,NA,NA
e874d,block,flow.Loop,3_0_0_0,NA,NA,completion,72081.94,154805,154806.06,154806.4,226888.34,226891,2023-07-10T14:23:04Z,226904.76,NULL,NA,NA,NA,NA,NA,NA,NA,sdf,NA,0,NA,NA,NA,NA,NA,NA,NA,NA,NA,NA,NA,NA,NA,NA,NA,NA,NA,NA,NA
e874d,weiter,canvas.Screen,3_0_0_1,sdf,keypress(Space),response,1323.24,226891,226888.34,226904.76,228228,228245,2023-07-10T14:23:05Z,228290.5,NULL,NA,NA,NA,NA,NA,NA,NA,sdf,NA,0,NA,NA,NA,NA,NA,NA,NA,NA,NA,NA,NA,NA,NA,NA,NA,NA,NA,NA,NA
e874d,check continue,flow.Sequence,3_0_0,NA,NA,completion,73421.6,154805,154806.06,154806.4,228228,228245,2023-07-10T14:23:05Z,228290.5,NULL,NA,NA,NA,NA,NA,NA,NA,sdf,NA,0,NA,NA,NA,NA,NA,NA,NA,NA,NA,NA,NA,NA,NA,NA,NA,NA,NA,NA,NA
e874d,Deep Question,html.Page,3_0_1_0_0_0_0,NA,NA,form submission,4294.5,228290,228290.32,228290.5,232585,232586,2023-07-10T14:23:10Z,232587.34,NULL,Begegnung,kukutana,d,NA,NA,NA,kiki,NA,NA,1,NA,NA,NA,NA,NA,NA,NA,NA,NA,NA,NA,NA,NA,NA,NA,NA,NA,NA,NA
e874d,"""Richtig""-Screen",canvas.Screen,3_0_1_0_0_0_1,NA,NA,skipped,NA,232590,NA,NA,232585,232590,2023-07-10T14:23:10Z,232587.34,NULL,Begegnung,kukutana,d,NA,NA,NA,NA,sdfdsf,NA,1,NA,NA,NA,NA,NA,NA,NA,NA,NA,NA,NA,NA,NA,NA,NA,NA,NA,NA,NA
e874d,"""Falsch""-Screen",canvas.Screen,3_0_1_0_0_0_2,NA,NA,timeout,4999.38,232592,232584.06,232587.34,237570.4,237571,2023-07-10T14:23:15Z,237586.72,NULL,Begegnung,kukutana,d,NA,NA,NA,NA,sdfdsf,0,1,NA,NA,NA,NA,NA,NA,NA,NA,NA,NA,NA,NA,NA,NA,NA,NA,NA,NA,NA
e874d,deep,flow.Sequence,3_0_1_0_0_0,NA,NA,completion,9279.9,228290,228290.32,228290.5,237570.4,237572,2023-07-10T14:23:15Z,237586.72,NULL,Begegnung,kukutana,d,NA,NA,NA,NA,sdfdsf,NA,1,NA,NA,NA,NA,NA,NA,NA,NA,NA,NA,NA,NA,NA,NA,NA,NA,NA,NA,NA
e874d,shallow,flow.Sequence,3_0_1_0_0_1,NA,NA,skipped,NA,237572,NA,NA,237570.4,237572,2023-07-10T14:23:15Z,237586.72,NULL,Begegnung,kukutana,d,NA,NA,NA,NA,sdfdsf,NA,1,NA,NA,NA,NA,NA,NA,NA,NA,NA,NA,NA,NA,NA,NA,NA,NA,NA,NA,NA
e874d,task,flow.Sequence,3_0_1_0_0,NA,NA,completion,9279.9,228290,228290.32,228290.5,237570.4,237573,2023-07-10T14:23:15Z,237586.72,NULL,Begegnung,kukutana,d,NA,NA,NA,NA,sdfdsf,NA,1,NA,NA,NA,NA,NA,NA,NA,NA,NA,NA,NA,NA,NA,NA,NA,NA,NA,NA,NA
e874d,deep,flow.Sequence,3_0_1_0_1_0,NA,NA,skipped,NA,237573,NA,NA,237570.4,237574,2023-07-10T14:23:15Z,237586.72,NULL,Fleisch,mshakiki,s,kizunguzungu,mshikamano,angusho,NA,sdfdsf,NA,1,NA,NA,NA,NA,NA,NA,NA,NA,NA,NA,NA,NA,NA,NA,NA,NA,NA,NA,NA
e874d,Shallow Question,html.Page,3_0_1_0_1_1_0,NA,NA,form submission,2792.28,237575,237570.4,237586.72,240379,240379,2023-07-10T14:23:17Z,240378.26,NULL,Fleisch,mshakiki,s,kizunguzungu,mshikamano,angusho,mshakiki,NA,NA,1,NA,NA,NA,NA,NA,NA,NA,NA,NA,NA,NA,NA,NA,NA,NA,NA,NA,NA,NA
e874d,"""Richtig""-Screen",canvas.Screen,3_0_1_0_1_1_1,NA,NA,timeout,5007.38,240383,240377.88,240378.26,245369.12,245371,2023-07-10T14:23:22Z,245385.64,NULL,Fleisch,mshakiki,s,kizunguzungu,mshikamano,angusho,NA,sdfdsf,1,1,NA,NA,NA,NA,NA,NA,NA,NA,NA,NA,NA,NA,NA,NA,NA,NA,NA,NA,NA
e874d,"""Falsch""-Screen",canvas.Screen,3_0_1_0_1_1_2,NA,NA,skipped,NA,245378,NA,NA,245369.12,245379,2023-07-10T14:23:22Z,245385.64,NULL,Fleisch,mshakiki,s,kizunguzungu,mshikamano,angusho,NA,sdfdsf,NA,1,NA,NA,NA,NA,NA,NA,NA,NA,NA,NA,NA,NA,NA,NA,NA,NA,NA,NA,NA
e874d,shallow,flow.Sequence,3_0_1_0_1_1,NA,NA,completion,7782.4,237574,237570.4,237586.72,245369.12,245380,2023-07-10T14:23:22Z,245385.64,NULL,Fleisch,mshakiki,s,kizunguzungu,mshikamano,angusho,NA,sdfdsf,NA,1,NA,NA,NA,NA,NA,NA,NA,NA,NA,NA,NA,NA,NA,NA,NA,NA,NA,NA,NA
e874d,task,flow.Sequence,3_0_1_0_1,NA,NA,completion,7782.4,237573,237570.4,237586.72,245369.12,245380,2023-07-10T14:23:22Z,245385.64,NULL,Fleisch,mshakiki,s,kizunguzungu,mshikamano,angusho,NA,sdfdsf,NA,1,NA,NA,NA,NA,NA,NA,NA,NA,NA,NA,NA,NA,NA,NA,NA,NA,NA,NA,NA
e874d,Deep Question,html.Page,3_0_1_0_2_0_0,NA,NA,form submission,5082.36,245380,245369.12,245385.64,250468,250468,2023-07-10T14:23:28Z,250468.42,NULL,Genehmigung,idhini,d,NA,NA,NA,min,NA,NA,1,NA,NA,NA,NA,NA,NA,NA,NA,NA,NA,NA,NA,NA,NA,NA,NA,NA,NA,NA
e874d,"""Richtig""-Screen",canvas.Screen,3_0_1_0_2_0_1,NA,NA,skipped,NA,250471,NA,NA,250468,250471,2023-07-10T14:23:28Z,250468.42,NULL,Genehmigung,idhini,d,NA,NA,NA,NA,sdfdsf,NA,1,NA,NA,NA,NA,NA,NA,NA,NA,NA,NA,NA,NA,NA,NA,NA,NA,NA,NA,NA
e874d,"""Falsch""-Screen",canvas.Screen,3_0_1_0_2_0_2,NA,NA,timeout,4999.26,250476,250466.02,250468.42,255451.62,255453,2023-07-10T14:23:33Z,255467.68,NULL,Genehmigung,idhini,d,NA,NA,NA,NA,sdfdsf,0,1,NA,NA,NA,NA,NA,NA,NA,NA,NA,NA,NA,NA,NA,NA,NA,NA,NA,NA,NA
e874d,deep,flow.Sequence,3_0_1_0_2_0,NA,NA,completion,10065.98,245380,245369.12,245385.64,255451.62,255454,2023-07-10T14:23:33Z,255467.68,NULL,Genehmigung,idhini,d,NA,NA,NA,NA,sdfdsf,NA,1,NA,NA,NA,NA,NA,NA,NA,NA,NA,NA,NA,NA,NA,NA,NA,NA,NA,NA,NA
e874d,shallow,flow.Sequence,3_0_1_0_2_1,NA,NA,skipped,NA,255454,NA,NA,255451.62,255455,2023-07-10T14:23:33Z,255467.68,NULL,Genehmigung,idhini,d,NA,NA,NA,NA,sdfdsf,NA,1,NA,NA,NA,NA,NA,NA,NA,NA,NA,NA,NA,NA,NA,NA,NA,NA,NA,NA,NA
e874d,task,flow.Sequence,3_0_1_0_2,NA,NA,completion,10065.98,245380,245369.12,245385.64,255451.62,255455,2023-07-10T14:23:33Z,255467.68,NULL,Genehmigung,idhini,d,NA,NA,NA,NA,sdfdsf,NA,1,NA,NA,NA,NA,NA,NA,NA,NA,NA,NA,NA,NA,NA,NA,NA,NA,NA,NA,NA
e874d,Deep Question,html.Page,3_0_1_0_3_0_0,NA,NA,form submission,3026.32,255455,255451.62,255467.68,258494,258494,2023-07-10T14:23:36Z,258500.62,NULL,Kultur,utamaduni,d,NA,NA,NA,da,NA,NA,1,NA,NA,NA,NA,NA,NA,NA,NA,NA,NA,NA,NA,NA,NA,NA,NA,NA,NA,NA
e874d,"""Richtig""-Screen",canvas.Screen,3_0_1_0_3_0_1,NA,NA,skipped,NA,258497,NA,NA,258494,258497,2023-07-10T14:23:36Z,258500.62,NULL,Kultur,utamaduni,d,NA,NA,NA,NA,sdfdsf,NA,1,NA,NA,NA,NA,NA,NA,NA,NA,NA,NA,NA,NA,NA,NA,NA,NA,NA,NA,NA
e874d,"""Falsch""-Screen",canvas.Screen,3_0_1_0_3_0_2,NA,NA,timeout,4999.52,258499,258492.28,258500.62,263483.42,263485,2023-07-10T14:23:41Z,263500.14,NULL,Kultur,utamaduni,d,NA,NA,NA,NA,sdfdsf,0,1,NA,NA,NA,NA,NA,NA,NA,NA,NA,NA,NA,NA,NA,NA,NA,NA,NA,NA,NA
e874d,deep,flow.Sequence,3_0_1_0_3_0,NA,NA,completion,8015.74,255455,255451.62,255467.68,263483.42,263486,2023-07-10T14:23:41Z,263500.14,NULL,Kultur,utamaduni,d,NA,NA,NA,NA,sdfdsf,NA,1,NA,NA,NA,NA,NA,NA,NA,NA,NA,NA,NA,NA,NA,NA,NA,NA,NA,NA,NA
e874d,shallow,flow.Sequence,3_0_1_0_3_1,NA,NA,skipped,NA,263486,NA,NA,263483.42,263486,2023-07-10T14:23:41Z,263500.14,NULL,Kultur,utamaduni,d,NA,NA,NA,NA,sdfdsf,NA,1,NA,NA,NA,NA,NA,NA,NA,NA,NA,NA,NA,NA,NA,NA,NA,NA,NA,NA,NA
e874d,task,flow.Sequence,3_0_1_0_3,NA,NA,completion,8015.74,255455,255451.62,255467.68,263483.42,263486,2023-07-10T14:23:41Z,263500.14,NULL,Kultur,utamaduni,d,NA,NA,NA,NA,sdfdsf,NA,1,NA,NA,NA,NA,NA,NA,NA,NA,NA,NA,NA,NA,NA,NA,NA,NA,NA,NA,NA
e874d,deep,flow.Sequence,3_0_1_0_4_0,NA,NA,skipped,NA,263486,NA,NA,263483.42,263487,2023-07-10T14:23:41Z,263500.14,NULL,Aufstand,ugomaji,s,mazidio,msingi,kujieleza,NA,sdfdsf,NA,1,NA,NA,NA,NA,NA,NA,NA,NA,NA,NA,NA,NA,NA,NA,NA,NA,NA,NA,NA
e874d,Shallow Question,html.Page,3_0_1_0_4_1_0,NA,NA,form submission,3340.86,263487,263483.42,263500.14,266841,266841,2023-07-10T14:23:44Z,266839.98,NULL,Aufstand,ugomaji,s,mazidio,msingi,kujieleza,ugomaji,NA,NA,1,NA,NA,NA,NA,NA,NA,NA,NA,NA,NA,NA,NA,NA,NA,NA,NA,NA,NA,NA
e874d,"""Richtig""-Screen",canvas.Screen,3_0_1_0_4_1_1,NA,NA,timeout,4992.32,266844,266839.64,266839.98,271815.9,271817,2023-07-10T14:23:49Z,271832.3,NULL,Aufstand,ugomaji,s,mazidio,msingi,kujieleza,NA,sdfdsf,1,1,NA,NA,NA,NA,NA,NA,NA,NA,NA,NA,NA,NA,NA,NA,NA,NA,NA,NA,NA
e874d,"""Falsch""-Screen",canvas.Screen,3_0_1_0_4_1_2,NA,NA,skipped,NA,271823,NA,NA,271815.9,271823,2023-07-10T14:23:49Z,271832.3,NULL,Aufstand,ugomaji,s,mazidio,msingi,kujieleza,NA,sdfdsf,NA,1,NA,NA,NA,NA,NA,NA,NA,NA,NA,NA,NA,NA,NA,NA,NA,NA,NA,NA,NA
e874d,shallow,flow.Sequence,3_0_1_0_4_1,NA,NA,completion,8315.76,263487,263483.42,263500.14,271815.9,271823,2023-07-10T14:23:49Z,271832.3,NULL,Aufstand,ugomaji,s,mazidio,msingi,kujieleza,NA,sdfdsf,NA,1,NA,NA,NA,NA,NA,NA,NA,NA,NA,NA,NA,NA,NA,NA,NA,NA,NA,NA,NA
e874d,task,flow.Sequence,3_0_1_0_4,NA,NA,completion,8315.76,263486,263483.42,263500.14,271815.9,271824,2023-07-10T14:23:49Z,271832.3,NULL,Aufstand,ugomaji,s,mazidio,msingi,kujieleza,NA,sdfdsf,NA,1,NA,NA,NA,NA,NA,NA,NA,NA,NA,NA,NA,NA,NA,NA,NA,NA,NA,NA,NA
e874d,deep,flow.Sequence,3_0_1_0_5_0,NA,NA,skipped,NA,271824,NA,NA,271815.9,271824,2023-07-10T14:23:49Z,271832.3,NULL,Integrität,uadilifu,s,muungano,mtiririko,upunguaji,NA,sdfdsf,NA,1,NA,NA,NA,NA,NA,NA,NA,NA,NA,NA,NA,NA,NA,NA,NA,NA,NA,NA,NA
e874d,Shallow Question,html.Page,3_0_1_0_5_1_0,NA,NA,form submission,6025.7,271824,271815.9,271832.3,277858,277858,2023-07-10T14:23:55Z,277864.88,NULL,Integrität,uadilifu,s,muungano,mtiririko,upunguaji,mtiririko,NA,NA,1,NA,NA,NA,NA,NA,NA,NA,NA,NA,NA,NA,NA,NA,NA,NA,NA,NA,NA,NA
e874d,"""Richtig""-Screen",canvas.Screen,3_0_1_0_5_1_1,NA,NA,skipped,NA,277861,NA,NA,277858,277861,2023-07-10T14:23:55Z,277864.88,NULL,Integrität,uadilifu,s,muungano,mtiririko,upunguaji,NA,sdfdsf,NA,1,NA,NA,NA,NA,NA,NA,NA,NA,NA,NA,NA,NA,NA,NA,NA,NA,NA,NA,NA
e874d,"""Falsch""-Screen",canvas.Screen,3_0_1_0_5_1_2,NA,NA,timeout,4999.3,277864,277856.6,277864.88,282847.78,282849,2023-07-10T14:24:00Z,282864.18,NULL,Integrität,uadilifu,s,muungano,mtiririko,upunguaji,NA,sdfdsf,0,1,NA,NA,NA,NA,NA,NA,NA,NA,NA,NA,NA,NA,NA,NA,NA,NA,NA,NA,NA
e874d,shallow,flow.Sequence,3_0_1_0_5_1,NA,NA,completion,11015.48,271824,271815.9,271832.3,282847.78,282849,2023-07-10T14:24:00Z,282864.18,NULL,Integrität,uadilifu,s,muungano,mtiririko,upunguaji,NA,sdfdsf,NA,1,NA,NA,NA,NA,NA,NA,NA,NA,NA,NA,NA,NA,NA,NA,NA,NA,NA,NA,NA
e874d,task,flow.Sequence,3_0_1_0_5,NA,NA,completion,11015.48,271824,271815.9,271832.3,282847.78,282850,2023-07-10T14:24:00Z,282864.18,NULL,Integrität,uadilifu,s,muungano,mtiririko,upunguaji,NA,sdfdsf,NA,1,NA,NA,NA,NA,NA,NA,NA,NA,NA,NA,NA,NA,NA,NA,NA,NA,NA,NA,NA
e874d,deep,flow.Sequence,3_0_1_0_6_0,NA,NA,skipped,NA,282850,NA,NA,282847.78,282850,2023-07-10T14:24:00Z,282864.18,NULL,Prüfung,mtihani,s,mkulima,mtizamo,ufumbuzi,NA,sdfdsf,NA,1,NA,NA,NA,NA,NA,NA,NA,NA,NA,NA,NA,NA,NA,NA,NA,NA,NA,NA,NA
e874d,Shallow Question,html.Page,3_0_1_0_6_1_0,NA,NA,form submission,4824.82,282851,282847.78,282864.18,287689,287689,2023-07-10T14:24:05Z,287688.66,NULL,Prüfung,mtihani,s,mkulima,mtizamo,ufumbuzi,mtihani,NA,NA,1,NA,NA,NA,NA,NA,NA,NA,NA,NA,NA,NA,NA,NA,NA,NA,NA,NA,NA,NA
e874d,"""Richtig""-Screen",canvas.Screen,3_0_1_0_6_1_1,NA,NA,timeout,5007.96,287693,287688.34,287688.66,292679.9,292681,2023-07-10T14:24:10Z,292696.62,NULL,Prüfung,mtihani,s,mkulima,mtizamo,ufumbuzi,NA,sdfdsf,1,1,NA,NA,NA,NA,NA,NA,NA,NA,NA,NA,NA,NA,NA,NA,NA,NA,NA,NA,NA
e874d,"""Falsch""-Screen",canvas.Screen,3_0_1_0_6_1_2,NA,NA,skipped,NA,292684,NA,NA,292679.9,292684,2023-07-10T14:24:10Z,292696.62,NULL,Prüfung,mtihani,s,mkulima,mtizamo,ufumbuzi,NA,sdfdsf,NA,1,NA,NA,NA,NA,NA,NA,NA,NA,NA,NA,NA,NA,NA,NA,NA,NA,NA,NA,NA
e874d,shallow,flow.Sequence,3_0_1_0_6_1,NA,NA,completion,9815.72,282851,282847.78,282864.18,292679.9,292685,2023-07-10T14:24:10Z,292696.62,NULL,Prüfung,mtihani,s,mkulima,mtizamo,ufumbuzi,NA,sdfdsf,NA,1,NA,NA,NA,NA,NA,NA,NA,NA,NA,NA,NA,NA,NA,NA,NA,NA,NA,NA,NA
e874d,task,flow.Sequence,3_0_1_0_6,NA,NA,completion,9815.72,282850,282847.78,282864.18,292679.9,292685,2023-07-10T14:24:10Z,292696.62,NULL,Prüfung,mtihani,s,mkulima,mtizamo,ufumbuzi,NA,sdfdsf,NA,1,NA,NA,NA,NA,NA,NA,NA,NA,NA,NA,NA,NA,NA,NA,NA,NA,NA,NA,NA
e874d,Deep Question,html.Page,3_0_1_0_7_0_0,NA,NA,form submission,2661.38,292685,292679.9,292696.62,295358,295358,2023-07-10T14:24:12Z,295362.56,NULL,Verzögerung,kuchelewa,d,NA,NA,NA,da,NA,NA,1,NA,NA,NA,NA,NA,NA,NA,NA,NA,NA,NA,NA,NA,NA,NA,NA,NA,NA,NA
e874d,"""Richtig""-Screen",canvas.Screen,3_0_1_0_7_0_1,NA,NA,skipped,NA,295361,NA,NA,295358,295361,2023-07-10T14:24:12Z,295362.56,NULL,Verzögerung,kuchelewa,d,NA,NA,NA,NA,sdfdsf,NA,1,NA,NA,NA,NA,NA,NA,NA,NA,NA,NA,NA,NA,NA,NA,NA,NA,NA,NA,NA
e874d,"""Falsch""-Screen",canvas.Screen,3_0_1_0_7_0_2,NA,NA,timeout,4999.44,295364,295356.82,295362.56,300345.36,300347,2023-07-10T14:24:17Z,300362,NULL,Verzögerung,kuchelewa,d,NA,NA,NA,NA,sdfdsf,0,1,NA,NA,NA,NA,NA,NA,NA,NA,NA,NA,NA,NA,NA,NA,NA,NA,NA,NA,NA
e874d,deep,flow.Sequence,3_0_1_0_7_0,NA,NA,completion,7648.74,292685,292679.9,292696.62,300345.36,300347,2023-07-10T14:24:17Z,300362,NULL,Verzögerung,kuchelewa,d,NA,NA,NA,NA,sdfdsf,NA,1,NA,NA,NA,NA,NA,NA,NA,NA,NA,NA,NA,NA,NA,NA,NA,NA,NA,NA,NA
e874d,shallow,flow.Sequence,3_0_1_0_7_1,NA,NA,skipped,NA,300347,NA,NA,300345.36,300348,2023-07-10T14:24:17Z,300362,NULL,Verzögerung,kuchelewa,d,NA,NA,NA,NA,sdfdsf,NA,1,NA,NA,NA,NA,NA,NA,NA,NA,NA,NA,NA,NA,NA,NA,NA,NA,NA,NA,NA
e874d,task,flow.Sequence,3_0_1_0_7,NA,NA,completion,7648.74,292685,292679.9,292696.62,300345.36,300348,2023-07-10T14:24:17Z,300362,NULL,Verzögerung,kuchelewa,d,NA,NA,NA,NA,sdfdsf,NA,1,NA,NA,NA,NA,NA,NA,NA,NA,NA,NA,NA,NA,NA,NA,NA,NA,NA,NA,NA
e874d,block,flow.Loop,3_0_1_0,NA,NA,completion,72054.86,228290,228290.32,228290.5,300345.36,300349,2023-07-10T14:24:17Z,300362,NULL,NA,NA,NA,NA,NA,NA,NA,sdfdsf,NA,1,NA,NA,NA,NA,NA,NA,NA,NA,NA,NA,NA,NA,NA,NA,NA,NA,NA,NA,NA
e874d,weiter,canvas.Screen,3_0_1_1,sdf,keypress(Space),response,897,300349,300345.36,300362,301259,301280,2023-07-10T14:24:18Z,301352.54,NULL,NA,NA,NA,NA,NA,NA,NA,sdfdsf,NA,1,NA,NA,NA,NA,NA,NA,NA,NA,NA,NA,NA,NA,NA,NA,NA,NA,NA,NA,NA
e874d,check continue,flow.Sequence,3_0_1,NA,NA,completion,72968.5,228290,228290.32,228290.5,301259,301286,2023-07-10T14:24:18Z,301352.54,NULL,NA,NA,NA,NA,NA,NA,NA,sdfdsf,NA,1,NA,NA,NA,NA,NA,NA,NA,NA,NA,NA,NA,NA,NA,NA,NA,NA,NA,NA,NA
e874d,deep,flow.Sequence,3_0_2_0_0_0,NA,NA,skipped,NA,301352,NA,NA,301259,301352,2023-07-10T14:24:18Z,301352.54,NULL,Aufstand,ugomaji,s,mazidio,msingi,kujieleza,NA,sdf,NA,2,NA,NA,NA,NA,NA,NA,NA,NA,NA,NA,NA,NA,NA,NA,NA,NA,NA,NA,NA
e874d,Shallow Question,html.Page,3_0_2_0_0_1_0,NA,NA,form submission,10458.46,301352,301352.18,301352.54,311811,311812,2023-07-10T14:24:29Z,311810.34,NULL,Aufstand,ugomaji,s,mazidio,msingi,kujieleza,ugomaji,NA,NA,2,NA,NA,NA,NA,NA,NA,NA,NA,NA,NA,NA,NA,NA,NA,NA,NA,NA,NA,NA
e874d,"""Richtig""-Screen",canvas.Screen,3_0_2_0_0_1_1,NA,NA,timeout,4999.56,311814,311809.94,311810.34,316793.18,316795,2023-07-10T14:24:34Z,316809.9,NULL,Aufstand,ugomaji,s,mazidio,msingi,kujieleza,NA,sdf,1,2,NA,NA,NA,NA,NA,NA,NA,NA,NA,NA,NA,NA,NA,NA,NA,NA,NA,NA,NA
e874d,"""Falsch""-Screen",canvas.Screen,3_0_2_0_0_1_2,NA,NA,skipped,NA,316801,NA,NA,316793.18,316802,2023-07-10T14:24:34Z,316809.9,NULL,Aufstand,ugomaji,s,mazidio,msingi,kujieleza,NA,sdf,NA,2,NA,NA,NA,NA,NA,NA,NA,NA,NA,NA,NA,NA,NA,NA,NA,NA,NA,NA,NA
e874d,shallow,flow.Sequence,3_0_2_0_0_1,NA,NA,completion,15440.64,301352,301352.18,301352.54,316793.18,316802,2023-07-10T14:24:34Z,316809.9,NULL,Aufstand,ugomaji,s,mazidio,msingi,kujieleza,NA,sdf,NA,2,NA,NA,NA,NA,NA,NA,NA,NA,NA,NA,NA,NA,NA,NA,NA,NA,NA,NA,NA
e874d,task,flow.Sequence,3_0_2_0_0,NA,NA,completion,15440.64,301352,301352.18,301352.54,316793.18,316803,2023-07-10T14:24:34Z,316809.9,NULL,Aufstand,ugomaji,s,mazidio,msingi,kujieleza,NA,sdf,NA,2,NA,NA,NA,NA,NA,NA,NA,NA,NA,NA,NA,NA,NA,NA,NA,NA,NA,NA,NA
e874d,Deep Question,html.Page,3_0_2_0_1_0_0,NA,NA,form submission,8621.1,316804,316793.18,316809.9,325431,325431,2023-07-10T14:24:43Z,325430.78,NULL,Genehmigung,idhini,d,NA,NA,NA,idhini,NA,NA,2,NA,NA,NA,NA,NA,NA,NA,NA,NA,NA,NA,NA,NA,NA,NA,NA,NA,NA,NA
e874d,"""Richtig""-Screen",canvas.Screen,3_0_2_0_1_0_1,NA,NA,timeout,4994.04,325433,325430.46,325430.78,330411.58,330413,2023-07-10T14:24:47Z,330424.82,NULL,Genehmigung,idhini,d,NA,NA,NA,NA,sdf,1,2,NA,NA,NA,NA,NA,NA,NA,NA,NA,NA,NA,NA,NA,NA,NA,NA,NA,NA,NA
e874d,"""Falsch""-Screen",canvas.Screen,3_0_2_0_1_0_2,NA,NA,skipped,NA,330419,NA,NA,330411.58,330420,2023-07-10T14:24:47Z,330424.82,NULL,Genehmigung,idhini,d,NA,NA,NA,NA,sdf,NA,2,NA,NA,NA,NA,NA,NA,NA,NA,NA,NA,NA,NA,NA,NA,NA,NA,NA,NA,NA
e874d,deep,flow.Sequence,3_0_2_0_1_0,NA,NA,completion,13601.68,316803,316793.18,316809.9,330411.58,330421,2023-07-10T14:24:47Z,330424.82,NULL,Genehmigung,idhini,d,NA,NA,NA,NA,sdf,NA,2,NA,NA,NA,NA,NA,NA,NA,NA,NA,NA,NA,NA,NA,NA,NA,NA,NA,NA,NA
e874d,shallow,flow.Sequence,3_0_2_0_1_1,NA,NA,skipped,NA,330421,NA,NA,330411.58,330421,2023-07-10T14:24:47Z,330424.82,NULL,Genehmigung,idhini,d,NA,NA,NA,NA,sdf,NA,2,NA,NA,NA,NA,NA,NA,NA,NA,NA,NA,NA,NA,NA,NA,NA,NA,NA,NA,NA
e874d,task,flow.Sequence,3_0_2_0_1,NA,NA,completion,13601.68,316803,316793.18,316809.9,330411.58,330421,2023-07-10T14:24:47Z,330424.82,NULL,Genehmigung,idhini,d,NA,NA,NA,NA,sdf,NA,2,NA,NA,NA,NA,NA,NA,NA,NA,NA,NA,NA,NA,NA,NA,NA,NA,NA,NA,NA
e874d,Deep Question,html.Page,3_0_2_0_2_0_0,NA,NA,form submission,4544.18,330421,330411.58,330424.82,334969,334969,2023-07-10T14:24:52Z,334974.18,NULL,Verzögerung,kuchelewa,d,NA,NA,NA,kuhelewa,NA,NA,2,NA,NA,NA,NA,NA,NA,NA,NA,NA,NA,NA,NA,NA,NA,NA,NA,NA,NA,NA
e874d,"""Richtig""-Screen",canvas.Screen,3_0_2_0_2_0_1,NA,NA,skipped,NA,334971,NA,NA,334969,334971,2023-07-10T14:24:52Z,334974.18,NULL,Verzögerung,kuchelewa,d,NA,NA,NA,NA,sdf,NA,2,NA,NA,NA,NA,NA,NA,NA,NA,NA,NA,NA,NA,NA,NA,NA,NA,NA,NA,NA
e874d,"""Falsch""-Screen",canvas.Screen,3_0_2_0_2_0_2,NA,NA,timeout,4999.32,334974,334967.34,334974.18,339956.96,339959,2023-07-10T14:24:57Z,339973.5,NULL,Verzögerung,kuchelewa,d,NA,NA,NA,NA,sdf,0,2,NA,NA,NA,NA,NA,NA,NA,NA,NA,NA,NA,NA,NA,NA,NA,NA,NA,NA,NA
e874d,deep,flow.Sequence,3_0_2_0_2_0,NA,NA,completion,9532.14,330421,330411.58,330424.82,339956.96,339959,2023-07-10T14:24:57Z,339973.5,NULL,Verzögerung,kuchelewa,d,NA,NA,NA,NA,sdf,NA,2,NA,NA,NA,NA,NA,NA,NA,NA,NA,NA,NA,NA,NA,NA,NA,NA,NA,NA,NA
e874d,shallow,flow.Sequence,3_0_2_0_2_1,NA,NA,skipped,NA,339959,NA,NA,339956.96,339960,2023-07-10T14:24:57Z,339973.5,NULL,Verzögerung,kuchelewa,d,NA,NA,NA,NA,sdf,NA,2,NA,NA,NA,NA,NA,NA,NA,NA,NA,NA,NA,NA,NA,NA,NA,NA,NA,NA,NA
e874d,task,flow.Sequence,3_0_2_0_2,NA,NA,completion,9532.14,330421,330411.58,330424.82,339956.96,339960,2023-07-10T14:24:57Z,339973.5,NULL,Verzögerung,kuchelewa,d,NA,NA,NA,NA,sdf,NA,2,NA,NA,NA,NA,NA,NA,NA,NA,NA,NA,NA,NA,NA,NA,NA,NA,NA,NA,NA
e874d,Deep Question,html.Page,3_0_2_0_3_0_0,NA,NA,form submission,3749.5,339961,339956.96,339973.5,343723,343723,2023-07-10T14:25:01Z,343723,NULL,Kultur,utamaduni,d,NA,NA,NA,mon,NA,NA,2,NA,NA,NA,NA,NA,NA,NA,NA,NA,NA,NA,NA,NA,NA,NA,NA,NA,NA,NA
e874d,"""Richtig""-Screen",canvas.Screen,3_0_2_0_3_0_1,NA,NA,skipped,NA,343726,NA,NA,343723,343726,2023-07-10T14:25:01Z,343723,NULL,Kultur,utamaduni,d,NA,NA,NA,NA,sdf,NA,2,NA,NA,NA,NA,NA,NA,NA,NA,NA,NA,NA,NA,NA,NA,NA,NA,NA,NA,NA
e874d,"""Falsch""-Screen",canvas.Screen,3_0_2_0_3_0_2,NA,NA,timeout,4999.44,343729,343721.64,343723,348706.04,348707,2023-07-10T14:25:06Z,348722.44,NULL,Kultur,utamaduni,d,NA,NA,NA,NA,sdf,0,2,NA,NA,NA,NA,NA,NA,NA,NA,NA,NA,NA,NA,NA,NA,NA,NA,NA,NA,NA
e874d,deep,flow.Sequence,3_0_2_0_3_0,NA,NA,completion,8732.54,339961,339956.96,339973.5,348706.04,348708,2023-07-10T14:25:06Z,348722.44,NULL,Kultur,utamaduni,d,NA,NA,NA,NA,sdf,NA,2,NA,NA,NA,NA,NA,NA,NA,NA,NA,NA,NA,NA,NA,NA,NA,NA,NA,NA,NA
e874d,shallow,flow.Sequence,3_0_2_0_3_1,NA,NA,skipped,NA,348708,NA,NA,348706.04,348708,2023-07-10T14:25:06Z,348722.44,NULL,Kultur,utamaduni,d,NA,NA,NA,NA,sdf,NA,2,NA,NA,NA,NA,NA,NA,NA,NA,NA,NA,NA,NA,NA,NA,NA,NA,NA,NA,NA
e874d,task,flow.Sequence,3_0_2_0_3,NA,NA,completion,8732.54,339960,339956.96,339973.5,348706.04,348708,2023-07-10T14:25:06Z,348722.44,NULL,Kultur,utamaduni,d,NA,NA,NA,NA,sdf,NA,2,NA,NA,NA,NA,NA,NA,NA,NA,NA,NA,NA,NA,NA,NA,NA,NA,NA,NA,NA
e874d,Deep Question,html.Page,3_0_2_0_4_0_0,NA,NA,form submission,3365.56,348709,348706.04,348722.44,352088,352088,2023-07-10T14:25:09Z,352088.62,NULL,Begegnung,kukutana,d,NA,NA,NA,d,NA,NA,2,NA,NA,NA,NA,NA,NA,NA,NA,NA,NA,NA,NA,NA,NA,NA,NA,NA,NA,NA
e874d,"""Richtig""-Screen",canvas.Screen,3_0_2_0_4_0_1,NA,NA,skipped,NA,352091,NA,NA,352088,352091,2023-07-10T14:25:09Z,352088.62,NULL,Begegnung,kukutana,d,NA,NA,NA,NA,sdf,NA,2,NA,NA,NA,NA,NA,NA,NA,NA,NA,NA,NA,NA,NA,NA,NA,NA,NA,NA,NA
e874d,"""Falsch""-Screen",canvas.Screen,3_0_2_0_4_0_2,NA,NA,timeout,4999.34,352094,352086.96,352088.62,357071.4,357072,2023-07-10T14:25:14Z,357087.96,NULL,Begegnung,kukutana,d,NA,NA,NA,NA,sdf,0,2,NA,NA,NA,NA,NA,NA,NA,NA,NA,NA,NA,NA,NA,NA,NA,NA,NA,NA,NA
e874d,deep,flow.Sequence,3_0_2_0_4_0,NA,NA,completion,8348.96,348709,348706.04,348722.44,357071.4,357074,2023-07-10T14:25:14Z,357087.96,NULL,Begegnung,kukutana,d,NA,NA,NA,NA,sdf,NA,2,NA,NA,NA,NA,NA,NA,NA,NA,NA,NA,NA,NA,NA,NA,NA,NA,NA,NA,NA
e874d,shallow,flow.Sequence,3_0_2_0_4_1,NA,NA,skipped,NA,357074,NA,NA,357071.4,357074,2023-07-10T14:25:14Z,357087.96,NULL,Begegnung,kukutana,d,NA,NA,NA,NA,sdf,NA,2,NA,NA,NA,NA,NA,NA,NA,NA,NA,NA,NA,NA,NA,NA,NA,NA,NA,NA,NA
e874d,task,flow.Sequence,3_0_2_0_4,NA,NA,completion,8348.96,348708,348706.04,348722.44,357071.4,357075,2023-07-10T14:25:14Z,357087.96,NULL,Begegnung,kukutana,d,NA,NA,NA,NA,sdf,NA,2,NA,NA,NA,NA,NA,NA,NA,NA,NA,NA,NA,NA,NA,NA,NA,NA,NA,NA,NA
e874d,deep,flow.Sequence,3_0_2_0_5_0,NA,NA,skipped,NA,357075,NA,NA,357071.4,357075,2023-07-10T14:25:14Z,357087.96,NULL,Prüfung,mtihani,s,mkulima,mtizamo,ufumbuzi,NA,sdf,NA,2,NA,NA,NA,NA,NA,NA,NA,NA,NA,NA,NA,NA,NA,NA,NA,NA,NA,NA,NA
e874d,Shallow Question,html.Page,3_0_2_0_5_1_0,NA,NA,form submission,5430.04,357075,357071.4,357087.96,362518,362521,2023-07-10T14:25:20Z,362520.58,NULL,Prüfung,mtihani,s,mkulima,mtizamo,ufumbuzi,mtihani,NA,NA,2,NA,NA,NA,NA,NA,NA,NA,NA,NA,NA,NA,NA,NA,NA,NA,NA,NA,NA,NA
e874d,"""Richtig""-Screen",canvas.Screen,3_0_2_0_5_1_1,NA,NA,timeout,4999.34,362530,362515.36,362520.58,367503.38,367505,2023-07-10T14:25:25Z,367519.92,NULL,Prüfung,mtihani,s,mkulima,mtizamo,ufumbuzi,NA,sdf,1,2,NA,NA,NA,NA,NA,NA,NA,NA,NA,NA,NA,NA,NA,NA,NA,NA,NA,NA,NA
e874d,"""Falsch""-Screen",canvas.Screen,3_0_2_0_5_1_2,NA,NA,skipped,NA,367513,NA,NA,367503.38,367514,2023-07-10T14:25:25Z,367519.92,NULL,Prüfung,mtihani,s,mkulima,mtizamo,ufumbuzi,NA,sdf,NA,2,NA,NA,NA,NA,NA,NA,NA,NA,NA,NA,NA,NA,NA,NA,NA,NA,NA,NA,NA
e874d,shallow,flow.Sequence,3_0_2_0_5_1,NA,NA,completion,10415.42,357075,357071.4,357087.96,367503.38,367515,2023-07-10T14:25:25Z,367519.92,NULL,Prüfung,mtihani,s,mkulima,mtizamo,ufumbuzi,NA,sdf,NA,2,NA,NA,NA,NA,NA,NA,NA,NA,NA,NA,NA,NA,NA,NA,NA,NA,NA,NA,NA
e874d,task,flow.Sequence,3_0_2_0_5,NA,NA,completion,10415.42,357075,357071.4,357087.96,367503.38,367515,2023-07-10T14:25:25Z,367519.92,NULL,Prüfung,mtihani,s,mkulima,mtizamo,ufumbuzi,NA,sdf,NA,2,NA,NA,NA,NA,NA,NA,NA,NA,NA,NA,NA,NA,NA,NA,NA,NA,NA,NA,NA
e874d,deep,flow.Sequence,3_0_2_0_6_0,NA,NA,skipped,NA,367515,NA,NA,367503.38,367516,2023-07-10T14:25:25Z,367519.92,NULL,Integrität,uadilifu,s,muungano,mtiririko,upunguaji,NA,sdf,NA,2,NA,NA,NA,NA,NA,NA,NA,NA,NA,NA,NA,NA,NA,NA,NA,NA,NA,NA,NA
e874d,Shallow Question,html.Page,3_0_2_0_6_1_0,NA,NA,form submission,7319.08,367516,367503.38,367519.92,374839,374840,2023-07-10T14:25:32Z,374838.4,NULL,Integrität,uadilifu,s,muungano,mtiririko,upunguaji,mtiririko,NA,NA,2,NA,NA,NA,NA,NA,NA,NA,NA,NA,NA,NA,NA,NA,NA,NA,NA,NA,NA,NA
e874d,"""Richtig""-Screen",canvas.Screen,3_0_2_0_6_1_1,NA,NA,skipped,NA,374842,NA,NA,374839,374842,2023-07-10T14:25:32Z,374838.4,NULL,Integrität,uadilifu,s,muungano,mtiririko,upunguaji,NA,sdf,NA,2,NA,NA,NA,NA,NA,NA,NA,NA,NA,NA,NA,NA,NA,NA,NA,NA,NA,NA,NA
e874d,"""Falsch""-Screen",canvas.Screen,3_0_2_0_6_1_2,NA,NA,timeout,4996.6,374846,374838.04,374838.4,379818.6,379819,2023-07-10T14:25:37Z,379835,NULL,Integrität,uadilifu,s,muungano,mtiririko,upunguaji,NA,sdf,0,2,NA,NA,NA,NA,NA,NA,NA,NA,NA,NA,NA,NA,NA,NA,NA,NA,NA,NA,NA
e874d,shallow,flow.Sequence,3_0_2_0_6_1,NA,NA,completion,12298.68,367516,367503.38,367519.92,379818.6,379820,2023-07-10T14:25:37Z,379835,NULL,Integrität,uadilifu,s,muungano,mtiririko,upunguaji,NA,sdf,NA,2,NA,NA,NA,NA,NA,NA,NA,NA,NA,NA,NA,NA,NA,NA,NA,NA,NA,NA,NA
e874d,task,flow.Sequence,3_0_2_0_6,NA,NA,completion,12298.68,367515,367503.38,367519.92,379818.6,379821,2023-07-10T14:25:37Z,379835,NULL,Integrität,uadilifu,s,muungano,mtiririko,upunguaji,NA,sdf,NA,2,NA,NA,NA,NA,NA,NA,NA,NA,NA,NA,NA,NA,NA,NA,NA,NA,NA,NA,NA
e874d,deep,flow.Sequence,3_0_2_0_7_0,NA,NA,skipped,NA,379821,NA,NA,379818.6,379822,2023-07-10T14:25:37Z,379835,NULL,Fleisch,mshakiki,s,kizunguzungu,mshikamano,angusho,NA,sdf,NA,2,NA,NA,NA,NA,NA,NA,NA,NA,NA,NA,NA,NA,NA,NA,NA,NA,NA,NA,NA
e874d,Shallow Question,html.Page,3_0_2_0_7_1_0,NA,NA,form submission,5311,379822,379818.6,379835,385146,385146,2023-07-10T14:25:42Z,385151.02,NULL,Fleisch,mshakiki,s,kizunguzungu,mshikamano,angusho,mshakiki,NA,NA,2,NA,NA,NA,NA,NA,NA,NA,NA,NA,NA,NA,NA,NA,NA,NA,NA,NA,NA,NA
e874d,"""Richtig""-Screen",canvas.Screen,3_0_2_0_7_1_1,NA,NA,timeout,4999.34,385149,385144.92,385151.02,390133.74,390135,2023-07-10T14:25:47Z,390150.36,NULL,Fleisch,mshakiki,s,kizunguzungu,mshikamano,angusho,NA,sdf,1,2,NA,NA,NA,NA,NA,NA,NA,NA,NA,NA,NA,NA,NA,NA,NA,NA,NA,NA,NA
e874d,"""Falsch""-Screen",canvas.Screen,3_0_2_0_7_1_2,NA,NA,skipped,NA,390143,NA,NA,390133.74,390143,2023-07-10T14:25:47Z,390150.36,NULL,Fleisch,mshakiki,s,kizunguzungu,mshikamano,angusho,NA,sdf,NA,2,NA,NA,NA,NA,NA,NA,NA,NA,NA,NA,NA,NA,NA,NA,NA,NA,NA,NA,NA
e874d,shallow,flow.Sequence,3_0_2_0_7_1,NA,NA,completion,10298.74,379822,379818.6,379835,390133.74,390143,2023-07-10T14:25:47Z,390150.36,NULL,Fleisch,mshakiki,s,kizunguzungu,mshikamano,angusho,NA,sdf,NA,2,NA,NA,NA,NA,NA,NA,NA,NA,NA,NA,NA,NA,NA,NA,NA,NA,NA,NA,NA
e874d,task,flow.Sequence,3_0_2_0_7,NA,NA,completion,10298.74,379821,379818.6,379835,390133.74,390144,2023-07-10T14:25:47Z,390150.36,NULL,Fleisch,mshakiki,s,kizunguzungu,mshikamano,angusho,NA,sdf,NA,2,NA,NA,NA,NA,NA,NA,NA,NA,NA,NA,NA,NA,NA,NA,NA,NA,NA,NA,NA
e874d,block,flow.Loop,3_0_2_0,NA,NA,completion,88781.2,301352,301352.18,301352.54,390133.74,390144,2023-07-10T14:25:47Z,390150.36,NULL,NA,NA,NA,NA,NA,NA,NA,sdf,NA,2,NA,NA,NA,NA,NA,NA,NA,NA,NA,NA,NA,NA,NA,NA,NA,NA,NA,NA,NA
e874d,weiter,canvas.Screen,3_0_2_1,sdf,keypress(Space),response,1109.64,390144,390133.74,390150.36,391260,391266,2023-07-10T14:25:48Z,391340.5,NULL,NA,NA,NA,NA,NA,NA,NA,sdf,NA,2,NA,NA,NA,NA,NA,NA,NA,NA,NA,NA,NA,NA,NA,NA,NA,NA,NA,NA,NA
e874d,check continue,flow.Sequence,3_0_2,NA,NA,completion,89907.46,301352,301352.18,301352.54,391260,391267,2023-07-10T14:25:48Z,391340.5,NULL,NA,NA,NA,NA,NA,NA,NA,sdf,NA,2,NA,NA,NA,NA,NA,NA,NA,NA,NA,NA,NA,NA,NA,NA,NA,NA,NA,NA,NA
e874d,Deep Question,html.Page,3_0_3_0_0_0_0,NA,NA,form submission,9487.5,391341,391340.14,391340.5,400828,400828,2023-07-10T14:25:58Z,400832.28,NULL,Kultur,utamaduni,d,NA,NA,NA,untaga,NA,NA,3,NA,NA,NA,NA,NA,NA,NA,NA,NA,NA,NA,NA,NA,NA,NA,NA,NA,NA,NA
e874d,"""Richtig""-Screen",canvas.Screen,3_0_3_0_0_0_1,NA,NA,skipped,NA,400831,NA,NA,400828,400831,2023-07-10T14:25:58Z,400832.28,NULL,Kultur,utamaduni,d,NA,NA,NA,NA,qt,NA,3,NA,NA,NA,NA,NA,NA,NA,NA,NA,NA,NA,NA,NA,NA,NA,NA,NA,NA,NA
e874d,"""Falsch""-Screen",canvas.Screen,3_0_3_0_0_0_2,NA,NA,timeout,4999.42,400834,400826.28,400832.28,405815.08,405816,2023-07-10T14:26:03Z,405831.7,NULL,Kultur,utamaduni,d,NA,NA,NA,NA,qt,0,3,NA,NA,NA,NA,NA,NA,NA,NA,NA,NA,NA,NA,NA,NA,NA,NA,NA,NA,NA
e874d,deep,flow.Sequence,3_0_3_0_0_0,NA,NA,completion,14474.58,391341,391340.14,391340.5,405815.08,405817,2023-07-10T14:26:03Z,405831.7,NULL,Kultur,utamaduni,d,NA,NA,NA,NA,qt,NA,3,NA,NA,NA,NA,NA,NA,NA,NA,NA,NA,NA,NA,NA,NA,NA,NA,NA,NA,NA
e874d,shallow,flow.Sequence,3_0_3_0_0_1,NA,NA,skipped,NA,405817,NA,NA,405815.08,405817,2023-07-10T14:26:03Z,405831.7,NULL,Kultur,utamaduni,d,NA,NA,NA,NA,qt,NA,3,NA,NA,NA,NA,NA,NA,NA,NA,NA,NA,NA,NA,NA,NA,NA,NA,NA,NA,NA
e874d,task,flow.Sequence,3_0_3_0_0,NA,NA,completion,14474.58,391340,391340.14,391340.5,405815.08,405818,2023-07-10T14:26:03Z,405831.7,NULL,Kultur,utamaduni,d,NA,NA,NA,NA,qt,NA,3,NA,NA,NA,NA,NA,NA,NA,NA,NA,NA,NA,NA,NA,NA,NA,NA,NA,NA,NA
e874d,deep,flow.Sequence,3_0_3_0_1_0,NA,NA,skipped,NA,405818,NA,NA,405815.08,405818,2023-07-10T14:26:03Z,405831.7,NULL,Prüfung,mtihani,s,mkulima,mtizamo,ufumbuzi,NA,qt,NA,3,NA,NA,NA,NA,NA,NA,NA,NA,NA,NA,NA,NA,NA,NA,NA,NA,NA,NA,NA
e874d,Shallow Question,html.Page,3_0_3_0_1_1_0,NA,NA,form submission,5486.3,405819,405815.08,405831.7,411318,411318,2023-07-10T14:26:08Z,411316.6,NULL,Prüfung,mtihani,s,mkulima,mtizamo,ufumbuzi,mtihani,NA,NA,3,NA,NA,NA,NA,NA,NA,NA,NA,NA,NA,NA,NA,NA,NA,NA,NA,NA,NA,NA
e874d,"""Richtig""-Screen",canvas.Screen,3_0_3_0_1_1_1,NA,NA,timeout,4997.12,411320,411316.42,411316.6,416297.42,416299,2023-07-10T14:26:13Z,416313.72,NULL,Prüfung,mtihani,s,mkulima,mtizamo,ufumbuzi,NA,qt,1,3,NA,NA,NA,NA,NA,NA,NA,NA,NA,NA,NA,NA,NA,NA,NA,NA,NA,NA,NA
e874d,"""Falsch""-Screen",canvas.Screen,3_0_3_0_1_1_2,NA,NA,skipped,NA,416305,NA,NA,416297.42,416306,2023-07-10T14:26:13Z,416313.72,NULL,Prüfung,mtihani,s,mkulima,mtizamo,ufumbuzi,NA,qt,NA,3,NA,NA,NA,NA,NA,NA,NA,NA,NA,NA,NA,NA,NA,NA,NA,NA,NA,NA,NA
e874d,shallow,flow.Sequence,3_0_3_0_1_1,NA,NA,completion,10465.72,405819,405815.08,405831.7,416297.42,416306,2023-07-10T14:26:13Z,416313.72,NULL,Prüfung,mtihani,s,mkulima,mtizamo,ufumbuzi,NA,qt,NA,3,NA,NA,NA,NA,NA,NA,NA,NA,NA,NA,NA,NA,NA,NA,NA,NA,NA,NA,NA
e874d,task,flow.Sequence,3_0_3_0_1,NA,NA,completion,10465.72,405818,405815.08,405831.7,416297.42,416307,2023-07-10T14:26:13Z,416313.72,NULL,Prüfung,mtihani,s,mkulima,mtizamo,ufumbuzi,NA,qt,NA,3,NA,NA,NA,NA,NA,NA,NA,NA,NA,NA,NA,NA,NA,NA,NA,NA,NA,NA,NA
e874d,Deep Question,html.Page,3_0_3_0_2_0_0,NA,NA,form submission,4181.28,416307,416297.42,416313.72,420495,420495,2023-07-10T14:26:18Z,420496.46,NULL,Verzögerung,kuchelewa,d,NA,NA,NA,kuchelewa,NA,NA,3,NA,NA,NA,NA,NA,NA,NA,NA,NA,NA,NA,NA,NA,NA,NA,NA,NA,NA,NA
e874d,"""Richtig""-Screen",canvas.Screen,3_0_3_0_2_0_1,NA,NA,timeout,4999.38,420499,420494.26,420496.46,425479.18,425480,2023-07-10T14:26:23Z,425495.84,NULL,Verzögerung,kuchelewa,d,NA,NA,NA,NA,qt,1,3,NA,NA,NA,NA,NA,NA,NA,NA,NA,NA,NA,NA,NA,NA,NA,NA,NA,NA,NA
e874d,"""Falsch""-Screen",canvas.Screen,3_0_3_0_2_0_2,NA,NA,skipped,NA,425484,NA,NA,425479.18,425484,2023-07-10T14:26:23Z,425495.84,NULL,Verzögerung,kuchelewa,d,NA,NA,NA,NA,qt,NA,3,NA,NA,NA,NA,NA,NA,NA,NA,NA,NA,NA,NA,NA,NA,NA,NA,NA,NA,NA
e874d,deep,flow.Sequence,3_0_3_0_2_0,NA,NA,completion,9165.46,416307,416297.42,416313.72,425479.18,425484,2023-07-10T14:26:23Z,425495.84,NULL,Verzögerung,kuchelewa,d,NA,NA,NA,NA,qt,NA,3,NA,NA,NA,NA,NA,NA,NA,NA,NA,NA,NA,NA,NA,NA,NA,NA,NA,NA,NA
e874d,shallow,flow.Sequence,3_0_3_0_2_1,NA,NA,skipped,NA,425485,NA,NA,425479.18,425485,2023-07-10T14:26:23Z,425495.84,NULL,Verzögerung,kuchelewa,d,NA,NA,NA,NA,qt,NA,3,NA,NA,NA,NA,NA,NA,NA,NA,NA,NA,NA,NA,NA,NA,NA,NA,NA,NA,NA
e874d,task,flow.Sequence,3_0_3_0_2,NA,NA,completion,9165.46,416307,416297.42,416313.72,425479.18,425485,2023-07-10T14:26:23Z,425495.84,NULL,Verzögerung,kuchelewa,d,NA,NA,NA,NA,qt,NA,3,NA,NA,NA,NA,NA,NA,NA,NA,NA,NA,NA,NA,NA,NA,NA,NA,NA,NA,NA
e874d,deep,flow.Sequence,3_0_3_0_3_0,NA,NA,skipped,NA,425485,NA,NA,425479.18,425485,2023-07-10T14:26:23Z,425495.84,NULL,Integrität,uadilifu,s,muungano,mtiririko,upunguaji,NA,qt,NA,3,NA,NA,NA,NA,NA,NA,NA,NA,NA,NA,NA,NA,NA,NA,NA,NA,NA,NA,NA
e874d,Shallow Question,html.Page,3_0_3_0_3_1_0,NA,NA,form submission,6418.16,425486,425479.18,425495.84,431914,431915,2023-07-10T14:26:29Z,431911.7,NULL,Integrität,uadilifu,s,muungano,mtiririko,upunguaji,uadilifu,NA,NA,3,NA,NA,NA,NA,NA,NA,NA,NA,NA,NA,NA,NA,NA,NA,NA,NA,NA,NA,NA
e874d,"""Richtig""-Screen",canvas.Screen,3_0_3_0_3_1_1,NA,NA,timeout,4999.24,431920,431909.74,431911.7,436894.46,436895,2023-07-10T14:26:34Z,436910.94,NULL,Integrität,uadilifu,s,muungano,mtiririko,upunguaji,NA,qt,1,3,NA,NA,NA,NA,NA,NA,NA,NA,NA,NA,NA,NA,NA,NA,NA,NA,NA,NA,NA
e874d,"""Falsch""-Screen",canvas.Screen,3_0_3_0_3_1_2,NA,NA,skipped,NA,436899,NA,NA,436894.46,436900,2023-07-10T14:26:34Z,436910.94,NULL,Integrität,uadilifu,s,muungano,mtiririko,upunguaji,NA,qt,NA,3,NA,NA,NA,NA,NA,NA,NA,NA,NA,NA,NA,NA,NA,NA,NA,NA,NA,NA,NA
e874d,shallow,flow.Sequence,3_0_3_0_3_1,NA,NA,completion,11398.62,425486,425479.18,425495.84,436894.46,436900,2023-07-10T14:26:34Z,436910.94,NULL,Integrität,uadilifu,s,muungano,mtiririko,upunguaji,NA,qt,NA,3,NA,NA,NA,NA,NA,NA,NA,NA,NA,NA,NA,NA,NA,NA,NA,NA,NA,NA,NA
e874d,task,flow.Sequence,3_0_3_0_3,NA,NA,completion,11398.62,425485,425479.18,425495.84,436894.46,436900,2023-07-10T14:26:34Z,436910.94,NULL,Integrität,uadilifu,s,muungano,mtiririko,upunguaji,NA,qt,NA,3,NA,NA,NA,NA,NA,NA,NA,NA,NA,NA,NA,NA,NA,NA,NA,NA,NA,NA,NA
e874d,deep,flow.Sequence,3_0_3_0_4_0,NA,NA,skipped,NA,436901,NA,NA,436894.46,436901,2023-07-10T14:26:34Z,436910.94,NULL,Fleisch,mshakiki,s,kizunguzungu,mshikamano,angusho,NA,qt,NA,3,NA,NA,NA,NA,NA,NA,NA,NA,NA,NA,NA,NA,NA,NA,NA,NA,NA,NA,NA
e874d,Shallow Question,html.Page,3_0_3_0_4_1_0,NA,NA,form submission,5099.06,436901,436894.46,436910.94,442010,442010,2023-07-10T14:26:39Z,442010.28,NULL,Fleisch,mshakiki,s,kizunguzungu,mshikamano,angusho,mshakiki,NA,NA,3,NA,NA,NA,NA,NA,NA,NA,NA,NA,NA,NA,NA,NA,NA,NA,NA,NA,NA,NA
e874d,"""Richtig""-Screen",canvas.Screen,3_0_3_0_4_1_1,NA,NA,timeout,4999.48,442011,442008.46,442010.28,446993.08,446997,2023-07-10T14:26:44Z,447009.76,NULL,Fleisch,mshakiki,s,kizunguzungu,mshikamano,angusho,NA,qt,1,3,NA,NA,NA,NA,NA,NA,NA,NA,NA,NA,NA,NA,NA,NA,NA,NA,NA,NA,NA
e874d,"""Falsch""-Screen",canvas.Screen,3_0_3_0_4_1_2,NA,NA,skipped,NA,447014,NA,NA,446993.08,447014,2023-07-10T14:26:44Z,447009.76,NULL,Fleisch,mshakiki,s,kizunguzungu,mshikamano,angusho,NA,qt,NA,3,NA,NA,NA,NA,NA,NA,NA,NA,NA,NA,NA,NA,NA,NA,NA,NA,NA,NA,NA
e874d,shallow,flow.Sequence,3_0_3_0_4_1,NA,NA,completion,10082.14,436901,436894.46,436910.94,446993.08,447015,2023-07-10T14:26:44Z,447009.76,NULL,Fleisch,mshakiki,s,kizunguzungu,mshikamano,angusho,NA,qt,NA,3,NA,NA,NA,NA,NA,NA,NA,NA,NA,NA,NA,NA,NA,NA,NA,NA,NA,NA,NA
e874d,task,flow.Sequence,3_0_3_0_4,NA,NA,completion,10082.14,436901,436894.46,436910.94,446993.08,447015,2023-07-10T14:26:44Z,447009.76,NULL,Fleisch,mshakiki,s,kizunguzungu,mshikamano,angusho,NA,qt,NA,3,NA,NA,NA,NA,NA,NA,NA,NA,NA,NA,NA,NA,NA,NA,NA,NA,NA,NA,NA
e874d,Deep Question,html.Page,3_0_3_0_5_0_0,NA,NA,form submission,4925.24,447016,446993.08,447009.76,451935,451935,2023-07-10T14:26:49Z,451942.32,NULL,Genehmigung,idhini,d,NA,NA,NA,idhini,NA,NA,3,NA,NA,NA,NA,NA,NA,NA,NA,NA,NA,NA,NA,NA,NA,NA,NA,NA,NA,NA
e874d,"""Richtig""-Screen",canvas.Screen,3_0_3_0_5_0_1,NA,NA,timeout,4999.42,451938,451932.32,451942.32,456925.1,456926,2023-07-10T14:26:54Z,456941.74,NULL,Genehmigung,idhini,d,NA,NA,NA,NA,qt,1,3,NA,NA,NA,NA,NA,NA,NA,NA,NA,NA,NA,NA,NA,NA,NA,NA,NA,NA,NA
e874d,"""Falsch""-Screen",canvas.Screen,3_0_3_0_5_0_2,NA,NA,skipped,NA,456933,NA,NA,456925.1,456933,2023-07-10T14:26:54Z,456941.74,NULL,Genehmigung,idhini,d,NA,NA,NA,NA,qt,NA,3,NA,NA,NA,NA,NA,NA,NA,NA,NA,NA,NA,NA,NA,NA,NA,NA,NA,NA,NA
e874d,deep,flow.Sequence,3_0_3_0_5_0,NA,NA,completion,9915.34,447016,446993.08,447009.76,456925.1,456934,2023-07-10T14:26:54Z,456941.74,NULL,Genehmigung,idhini,d,NA,NA,NA,NA,qt,NA,3,NA,NA,NA,NA,NA,NA,NA,NA,NA,NA,NA,NA,NA,NA,NA,NA,NA,NA,NA
e874d,shallow,flow.Sequence,3_0_3_0_5_1,NA,NA,skipped,NA,456934,NA,NA,456925.1,456934,2023-07-10T14:26:54Z,456941.74,NULL,Genehmigung,idhini,d,NA,NA,NA,NA,qt,NA,3,NA,NA,NA,NA,NA,NA,NA,NA,NA,NA,NA,NA,NA,NA,NA,NA,NA,NA,NA
e874d,task,flow.Sequence,3_0_3_0_5,NA,NA,completion,9915.34,447016,446993.08,447009.76,456925.1,456936,2023-07-10T14:26:54Z,456941.74,NULL,Genehmigung,idhini,d,NA,NA,NA,NA,qt,NA,3,NA,NA,NA,NA,NA,NA,NA,NA,NA,NA,NA,NA,NA,NA,NA,NA,NA,NA,NA
e874d,Deep Question,html.Page,3_0_3_0_6_0_0,NA,NA,form submission,8432.26,456936,456925.1,456941.74,465374,465375,2023-07-10T14:27:02Z,465374,NULL,Begegnung,kukutana,d,NA,NA,NA,kukutana,NA,NA,3,NA,NA,NA,NA,NA,NA,NA,NA,NA,NA,NA,NA,NA,NA,NA,NA,NA,NA,NA
e874d,"""Richtig""-Screen",canvas.Screen,3_0_3_0_6_0_1,NA,NA,timeout,4999.36,465378,465372.1,465374,470356.76,470358,2023-07-10T14:27:07Z,470373.36,NULL,Begegnung,kukutana,d,NA,NA,NA,NA,qt,1,3,NA,NA,NA,NA,NA,NA,NA,NA,NA,NA,NA,NA,NA,NA,NA,NA,NA,NA,NA
e874d,"""Falsch""-Screen",canvas.Screen,3_0_3_0_6_0_2,NA,NA,skipped,NA,470365,NA,NA,470356.76,470365,2023-07-10T14:27:07Z,470373.36,NULL,Begegnung,kukutana,d,NA,NA,NA,NA,qt,NA,3,NA,NA,NA,NA,NA,NA,NA,NA,NA,NA,NA,NA,NA,NA,NA,NA,NA,NA,NA
e874d,deep,flow.Sequence,3_0_3_0_6_0,NA,NA,completion,13415.02,456936,456925.1,456941.74,470356.76,470366,2023-07-10T14:27:07Z,470373.36,NULL,Begegnung,kukutana,d,NA,NA,NA,NA,qt,NA,3,NA,NA,NA,NA,NA,NA,NA,NA,NA,NA,NA,NA,NA,NA,NA,NA,NA,NA,NA
e874d,shallow,flow.Sequence,3_0_3_0_6_1,NA,NA,skipped,NA,470366,NA,NA,470356.76,470366,2023-07-10T14:27:07Z,470373.36,NULL,Begegnung,kukutana,d,NA,NA,NA,NA,qt,NA,3,NA,NA,NA,NA,NA,NA,NA,NA,NA,NA,NA,NA,NA,NA,NA,NA,NA,NA,NA
e874d,task,flow.Sequence,3_0_3_0_6,NA,NA,completion,13415.02,456936,456925.1,456941.74,470356.76,470367,2023-07-10T14:27:07Z,470373.36,NULL,Begegnung,kukutana,d,NA,NA,NA,NA,qt,NA,3,NA,NA,NA,NA,NA,NA,NA,NA,NA,NA,NA,NA,NA,NA,NA,NA,NA,NA,NA
e874d,deep,flow.Sequence,3_0_3_0_7_0,NA,NA,skipped,NA,470367,NA,NA,470356.76,470368,2023-07-10T14:27:07Z,470373.36,NULL,Aufstand,ugomaji,s,mazidio,msingi,kujieleza,NA,qt,NA,3,NA,NA,NA,NA,NA,NA,NA,NA,NA,NA,NA,NA,NA,NA,NA,NA,NA,NA,NA
e874d,Shallow Question,html.Page,3_0_3_0_7_1_0,NA,NA,form submission,8942.64,470368,470356.76,470373.36,479316,479316,2023-07-10T14:27:16Z,479322.24,NULL,Aufstand,ugomaji,s,mazidio,msingi,kujieleza,ugomaji,NA,NA,3,NA,NA,NA,NA,NA,NA,NA,NA,NA,NA,NA,NA,NA,NA,NA,NA,NA,NA,NA
e874d,"""Richtig""-Screen",canvas.Screen,3_0_3_0_7_1_1,NA,NA,timeout,4999.32,479325,479309.2,479322.24,484304.98,484306,2023-07-10T14:27:21Z,484321.56,NULL,Aufstand,ugomaji,s,mazidio,msingi,kujieleza,NA,qt,1,3,NA,NA,NA,NA,NA,NA,NA,NA,NA,NA,NA,NA,NA,NA,NA,NA,NA,NA,NA
e874d,"""Falsch""-Screen",canvas.Screen,3_0_3_0_7_1_2,NA,NA,skipped,NA,484313,NA,NA,484304.98,484314,2023-07-10T14:27:21Z,484321.56,NULL,Aufstand,ugomaji,s,mazidio,msingi,kujieleza,NA,qt,NA,3,NA,NA,NA,NA,NA,NA,NA,NA,NA,NA,NA,NA,NA,NA,NA,NA,NA,NA,NA
e874d,shallow,flow.Sequence,3_0_3_0_7_1,NA,NA,completion,13931.62,470368,470356.76,470373.36,484304.98,484314,2023-07-10T14:27:21Z,484321.56,NULL,Aufstand,ugomaji,s,mazidio,msingi,kujieleza,NA,qt,NA,3,NA,NA,NA,NA,NA,NA,NA,NA,NA,NA,NA,NA,NA,NA,NA,NA,NA,NA,NA
e874d,task,flow.Sequence,3_0_3_0_7,NA,NA,completion,13931.62,470367,470356.76,470373.36,484304.98,484315,2023-07-10T14:27:21Z,484321.56,NULL,Aufstand,ugomaji,s,mazidio,msingi,kujieleza,NA,qt,NA,3,NA,NA,NA,NA,NA,NA,NA,NA,NA,NA,NA,NA,NA,NA,NA,NA,NA,NA,NA
e874d,block,flow.Loop,3_0_3_0,NA,NA,completion,92964.48,391340,391340.14,391340.5,484304.98,484315,2023-07-10T14:27:21Z,484321.56,NULL,NA,NA,NA,NA,NA,NA,NA,qt,NA,3,NA,NA,NA,NA,NA,NA,NA,NA,NA,NA,NA,NA,NA,NA,NA,NA,NA,NA,NA
e874d,weiter,canvas.Screen,3_0_3_1,sdf,keypress(Space),response,907.44,484315,484304.98,484321.56,485229,485242,2023-07-10T14:27:22Z,486030.58,NULL,NA,NA,NA,NA,NA,NA,NA,qt,NA,3,NA,NA,NA,NA,NA,NA,NA,NA,NA,NA,NA,NA,NA,NA,NA,NA,NA,NA,NA
e874d,check continue,flow.Sequence,3_0_3,NA,NA,completion,93888.5,391339,391340.14,391340.5,485229,485242,2023-07-10T14:27:22Z,486030.58,NULL,NA,NA,NA,NA,NA,NA,NA,qt,NA,3,NA,NA,NA,NA,NA,NA,NA,NA,NA,NA,NA,NA,NA,NA,NA,NA,NA,NA,NA
e874d,check continue,flow.Sequence,3_0_4,NA,NA,skipped,NA,485299,NA,NA,485229,485299,2023-07-10T14:27:22Z,486030.58,NULL,NA,NA,NA,NA,NA,NA,NA,sd,NA,4,NA,NA,NA,NA,NA,NA,NA,NA,NA,NA,NA,NA,NA,NA,NA,NA,NA,NA,NA
e874d,check continue,flow.Sequence,3_0_5,NA,NA,skipped,NA,485335,NA,NA,485229,485335,2023-07-10T14:27:22Z,486030.58,NULL,NA,NA,NA,NA,NA,NA,NA,sdf,NA,5,NA,NA,NA,NA,NA,NA,NA,NA,NA,NA,NA,NA,NA,NA,NA,NA,NA,NA,NA
e874d,check continue,flow.Sequence,3_0_6,NA,NA,skipped,NA,485367,NA,NA,485229,485367,2023-07-10T14:27:22Z,486030.58,NULL,NA,NA,NA,NA,NA,NA,NA,dfs,NA,6,NA,NA,NA,NA,NA,NA,NA,NA,NA,NA,NA,NA,NA,NA,NA,NA,NA,NA,NA
e874d,check continue,flow.Sequence,3_0_7,NA,NA,skipped,NA,485399,NA,NA,485229,485399,2023-07-10T14:27:22Z,486030.58,NULL,NA,NA,NA,NA,NA,NA,NA,df,NA,7,NA,NA,NA,NA,NA,NA,NA,NA,NA,NA,NA,NA,NA,NA,NA,NA,NA,NA,NA
e874d,check continue,flow.Sequence,3_0_8,NA,NA,skipped,NA,485429,NA,NA,485229,485429,2023-07-10T14:27:23Z,486030.58,NULL,NA,NA,NA,NA,NA,NA,NA,dfs,NA,8,NA,NA,NA,NA,NA,NA,NA,NA,NA,NA,NA,NA,NA,NA,NA,NA,NA,NA,NA
e874d,check continue,flow.Sequence,3_0_9,NA,NA,skipped,NA,485463,NA,NA,485229,485463,2023-07-10T14:27:23Z,486030.58,NULL,NA,NA,NA,NA,NA,NA,NA,dsf,NA,9,NA,NA,NA,NA,NA,NA,NA,NA,NA,NA,NA,NA,NA,NA,NA,NA,NA,NA,NA
e874d,check continue,flow.Sequence,3_0_10,NA,NA,skipped,NA,485496,NA,NA,485229,485496,2023-07-10T14:27:23Z,486030.58,NULL,NA,NA,NA,NA,NA,NA,NA,df,NA,10,NA,NA,NA,NA,NA,NA,NA,NA,NA,NA,NA,NA,NA,NA,NA,NA,NA,NA,NA
e874d,check continue,flow.Sequence,3_0_11,NA,NA,skipped,NA,485524,NA,NA,485229,485524,2023-07-10T14:27:23Z,486030.58,NULL,NA,NA,NA,NA,NA,NA,NA,dfs,NA,11,NA,NA,NA,NA,NA,NA,NA,NA,NA,NA,NA,NA,NA,NA,NA,NA,NA,NA,NA
e874d,check continue,flow.Sequence,3_0_12,NA,NA,skipped,NA,485552,NA,NA,485229,485552,2023-07-10T14:27:23Z,486030.58,NULL,NA,NA,NA,NA,NA,NA,NA,dsf,NA,12,NA,NA,NA,NA,NA,NA,NA,NA,NA,NA,NA,NA,NA,NA,NA,NA,NA,NA,NA
e874d,check continue,flow.Sequence,3_0_13,NA,NA,skipped,NA,485583,NA,NA,485229,485583,2023-07-10T14:27:23Z,486030.58,NULL,NA,NA,NA,NA,NA,NA,NA,dsf,NA,13,NA,NA,NA,NA,NA,NA,NA,NA,NA,NA,NA,NA,NA,NA,NA,NA,NA,NA,NA
e874d,check continue,flow.Sequence,3_0_14,NA,NA,skipped,NA,485609,NA,NA,485229,485609,2023-07-10T14:27:23Z,486030.58,NULL,NA,NA,NA,NA,NA,NA,NA,NA,NA,14,NA,NA,NA,NA,NA,NA,NA,NA,NA,NA,NA,NA,NA,NA,NA,NA,NA,NA,NA
e874d,check continue,flow.Sequence,3_0_15,NA,NA,skipped,NA,485639,NA,NA,485229,485639,2023-07-10T14:27:23Z,486030.58,NULL,NA,NA,NA,NA,NA,NA,NA,NA,NA,15,NA,NA,NA,NA,NA,NA,NA,NA,NA,NA,NA,NA,NA,NA,NA,NA,NA,NA,NA
e874d,check continue,flow.Sequence,3_0_16,NA,NA,skipped,NA,485668,NA,NA,485229,485668,2023-07-10T14:27:23Z,486030.58,NULL,NA,NA,NA,NA,NA,NA,NA,NA,NA,16,NA,NA,NA,NA,NA,NA,NA,NA,NA,NA,NA,NA,NA,NA,NA,NA,NA,NA,NA
e874d,check continue,flow.Sequence,3_0_17,NA,NA,skipped,NA,485694,NA,NA,485229,485694,2023-07-10T14:27:23Z,486030.58,NULL,NA,NA,NA,NA,NA,NA,NA,NA,NA,17,NA,NA,NA,NA,NA,NA,NA,NA,NA,NA,NA,NA,NA,NA,NA,NA,NA,NA,NA
e874d,check continue,flow.Sequence,3_0_18,NA,NA,skipped,NA,485724,NA,NA,485229,485724,2023-07-10T14:27:23Z,486030.58,NULL,NA,NA,NA,NA,NA,NA,NA,NA,NA,18,NA,NA,NA,NA,NA,NA,NA,NA,NA,NA,NA,NA,NA,NA,NA,NA,NA,NA,NA
e874d,check continue,flow.Sequence,3_0_19,NA,NA,skipped,NA,485750,NA,NA,485229,485750,2023-07-10T14:27:23Z,486030.58,NULL,NA,NA,NA,NA,NA,NA,NA,NA,NA,19,NA,NA,NA,NA,NA,NA,NA,NA,NA,NA,NA,NA,NA,NA,NA,NA,NA,NA,NA
e874d,check continue,flow.Sequence,3_0_20,NA,NA,skipped,NA,485780,NA,NA,485229,485780,2023-07-10T14:27:23Z,486030.58,NULL,NA,NA,NA,NA,NA,NA,NA,NA,NA,20,NA,NA,NA,NA,NA,NA,NA,NA,NA,NA,NA,NA,NA,NA,NA,NA,NA,NA,NA
e874d,check continue,flow.Sequence,3_0_21,NA,NA,skipped,NA,485806,NA,NA,485229,485806,2023-07-10T14:27:23Z,486030.58,NULL,NA,NA,NA,NA,NA,NA,NA,NA,NA,21,NA,NA,NA,NA,NA,NA,NA,NA,NA,NA,NA,NA,NA,NA,NA,NA,NA,NA,NA
e874d,check continue,flow.Sequence,3_0_22,NA,NA,skipped,NA,485833,NA,NA,485229,485833,2023-07-10T14:27:23Z,486030.58,NULL,NA,NA,NA,NA,NA,NA,NA,NA,NA,22,NA,NA,NA,NA,NA,NA,NA,NA,NA,NA,NA,NA,NA,NA,NA,NA,NA,NA,NA
e874d,check continue,flow.Sequence,3_0_23,NA,NA,skipped,NA,485864,NA,NA,485229,485864,2023-07-10T14:27:23Z,486030.58,NULL,NA,NA,NA,NA,NA,NA,NA,NA,NA,23,NA,NA,NA,NA,NA,NA,NA,NA,NA,NA,NA,NA,NA,NA,NA,NA,NA,NA,NA
e874d,check continue,flow.Sequence,3_0_24,NA,NA,skipped,NA,485891,NA,NA,485229,485891,2023-07-10T14:27:23Z,486030.58,NULL,NA,NA,NA,NA,NA,NA,NA,NA,NA,24,NA,NA,NA,NA,NA,NA,NA,NA,NA,NA,NA,NA,NA,NA,NA,NA,NA,NA,NA
e874d,check continue,flow.Sequence,3_0_25,NA,NA,skipped,NA,485917,NA,NA,485229,485917,2023-07-10T14:27:23Z,486030.58,NULL,NA,NA,NA,NA,NA,NA,NA,NA,NA,25,NA,NA,NA,NA,NA,NA,NA,NA,NA,NA,NA,NA,NA,NA,NA,NA,NA,NA,NA
e874d,check continue,flow.Sequence,3_0_26,NA,NA,skipped,NA,485944,NA,NA,485229,485944,2023-07-10T14:27:23Z,486030.58,NULL,NA,NA,NA,NA,NA,NA,NA,NA,NA,26,NA,NA,NA,NA,NA,NA,NA,NA,NA,NA,NA,NA,NA,NA,NA,NA,NA,NA,NA
e874d,check continue,flow.Sequence,3_0_27,NA,NA,skipped,NA,485970,NA,NA,485229,485970,2023-07-10T14:27:23Z,486030.58,NULL,NA,NA,NA,NA,NA,NA,NA,NA,NA,27,NA,NA,NA,NA,NA,NA,NA,NA,NA,NA,NA,NA,NA,NA,NA,NA,NA,NA,NA
e874d,check continue,flow.Sequence,3_0_28,NA,NA,skipped,NA,486002,NA,NA,485229,486002,2023-07-10T14:27:23Z,486030.58,NULL,NA,NA,NA,NA,NA,NA,NA,NA,NA,28,NA,NA,NA,NA,NA,NA,NA,NA,NA,NA,NA,NA,NA,NA,NA,NA,NA,NA,NA
e874d,check continue,flow.Sequence,3_0_29,NA,NA,skipped,NA,486030,NA,NA,485229,486030,2023-07-10T14:27:23Z,486030.58,NULL,NA,NA,NA,NA,NA,NA,NA,NA,NA,29,NA,NA,NA,NA,NA,NA,NA,NA,NA,NA,NA,NA,NA,NA,NA,NA,NA,NA,NA
e874d,until continue,flow.Loop,3_0,NA,NA,completion,330422.6,154770,154806.06,154806.4,485229,486031,2023-07-10T14:27:23Z,486030.58,NULL,NA,NA,NA,NA,NA,NA,NA,NA,NA,NA,NA,NA,NA,NA,NA,NA,NA,NA,NA,NA,NA,NA,NA,NA,NA,NA,NA,NA,NA
e874d,block 1,flow.Sequence,3,NA,NA,completion,330422.6,154770,154806.06,154806.4,485229,486031,2023-07-10T14:27:23Z,486030.58,NULL,NA,NA,NA,NA,NA,NA,NA,NA,NA,NA,NA,NA,NA,NA,NA,NA,NA,NA,NA,NA,NA,NA,NA,NA,NA,NA,NA,NA,NA
e874d,1.Part Over,canvas.Screen,4,NA,keypress(Space),response,25573.42,486031,486030.32,486030.58,511604,511615,2023-07-10T14:27:49Z,511708.94,NULL,NA,NA,NA,NA,NA,NA,NA,NA,NA,NA,NA,NA,NA,NA,NA,NA,NA,NA,NA,NA,NA,NA,NA,NA,NA,NA,NA,NA,NA
e874d,deep,flow.Sequence,5_0_0_0_0_0,NA,NA,skipped,NA,511708,NA,NA,511604,511708,2023-07-10T14:27:49Z,511708.94,NULL,Erneuerung,ukarabati,s,ushawishi,ukalifu,unyonyaji,NA,sdf,NA,0,NA,NA,NA,NA,NA,NA,NA,NA,NA,NA,NA,NA,NA,NA,NA,NA,NA,NA,NA
e874d,Shallow Question,html.Page,5_0_0_0_0_1_0,NA,NA,form submission,6166.06,511708,511708.58,511708.94,517875,517875,2023-07-10T14:27:55Z,517873.86,NULL,Erneuerung,ukarabati,s,ushawishi,ukalifu,unyonyaji,ushawishi,NA,NA,0,NA,NA,NA,NA,NA,NA,NA,NA,NA,NA,NA,NA,NA,NA,NA,NA,NA,NA,NA
e874d,"""Richtig""-Screen",canvas.Screen,5_0_0_0_0_1_1,NA,NA,skipped,NA,517877,NA,NA,517875,517877,2023-07-10T14:27:55Z,517873.86,NULL,Erneuerung,ukarabati,s,ushawishi,ukalifu,unyonyaji,NA,sdf,NA,0,NA,NA,NA,NA,NA,NA,NA,NA,NA,NA,NA,NA,NA,NA,NA,NA,NA,NA,NA
e874d,"""Falsch""-Screen",canvas.Screen,5_0_0_0_0_1_2,NA,NA,timeout,4992.78,517879,517873.6,517873.86,522850.44,522852,2023-07-10T14:28:00Z,522866.64,NULL,Erneuerung,ukarabati,s,ushawishi,ukalifu,unyonyaji,NA,sdf,0,0,NA,NA,NA,NA,NA,NA,NA,NA,NA,NA,NA,NA,NA,NA,NA,NA,NA,NA,NA
e874d,shallow,flow.Sequence,5_0_0_0_0_1,NA,NA,completion,11141.5,511708,511708.58,511708.94,522850.44,522853,2023-07-10T14:28:00Z,522866.64,NULL,Erneuerung,ukarabati,s,ushawishi,ukalifu,unyonyaji,NA,sdf,NA,0,NA,NA,NA,NA,NA,NA,NA,NA,NA,NA,NA,NA,NA,NA,NA,NA,NA,NA,NA
e874d,task,flow.Sequence,5_0_0_0_0,NA,NA,completion,11141.5,511708,511708.58,511708.94,522850.44,522854,2023-07-10T14:28:00Z,522866.64,NULL,Erneuerung,ukarabati,s,ushawishi,ukalifu,unyonyaji,NA,sdf,NA,0,NA,NA,NA,NA,NA,NA,NA,NA,NA,NA,NA,NA,NA,NA,NA,NA,NA,NA,NA
e874d,Deep Question,html.Page,5_0_0_0_1_0_0,NA,NA,form submission,1788.36,522854,522850.44,522866.64,524655,524656,2023-07-10T14:28:02Z,524654.68,NULL,Flexibilität,kubadilika,d,NA,NA,NA,k,NA,NA,0,NA,NA,NA,NA,NA,NA,NA,NA,NA,NA,NA,NA,NA,NA,NA,NA,NA,NA,NA
e874d,"""Richtig""-Screen",canvas.Screen,5_0_0_0_1_0_1,NA,NA,skipped,NA,524659,NA,NA,524655,524659,2023-07-10T14:28:02Z,524654.68,NULL,Flexibilität,kubadilika,d,NA,NA,NA,NA,sdf,NA,0,NA,NA,NA,NA,NA,NA,NA,NA,NA,NA,NA,NA,NA,NA,NA,NA,NA,NA,NA
e874d,"""Falsch""-Screen",canvas.Screen,5_0_0_0_1_0_2,NA,NA,timeout,4994.4199999999,524661,524654.4,524654.68,529632.46,529633,2023-07-10T14:28:07Z,529649.1,NULL,Flexibilität,kubadilika,d,NA,NA,NA,NA,sdf,0,0,NA,NA,NA,NA,NA,NA,NA,NA,NA,NA,NA,NA,NA,NA,NA,NA,NA,NA,NA
e874d,deep,flow.Sequence,5_0_0_0_1_0,NA,NA,completion,6765.8199999999,522854,522850.44,522866.64,529632.46,529634,2023-07-10T14:28:07Z,529649.1,NULL,Flexibilität,kubadilika,d,NA,NA,NA,NA,sdf,NA,0,NA,NA,NA,NA,NA,NA,NA,NA,NA,NA,NA,NA,NA,NA,NA,NA,NA,NA,NA
e874d,shallow,flow.Sequence,5_0_0_0_1_1,NA,NA,skipped,NA,529635,NA,NA,529632.46,529635,2023-07-10T14:28:07Z,529649.1,NULL,Flexibilität,kubadilika,d,NA,NA,NA,NA,sdf,NA,0,NA,NA,NA,NA,NA,NA,NA,NA,NA,NA,NA,NA,NA,NA,NA,NA,NA,NA,NA
e874d,task,flow.Sequence,5_0_0_0_1,NA,NA,completion,6765.8199999999,522854,522850.44,522866.64,529632.46,529636,2023-07-10T14:28:07Z,529649.1,NULL,Flexibilität,kubadilika,d,NA,NA,NA,NA,sdf,NA,0,NA,NA,NA,NA,NA,NA,NA,NA,NA,NA,NA,NA,NA,NA,NA,NA,NA,NA,NA
e874d,deep,flow.Sequence,5_0_0_0_2_0,NA,NA,skipped,NA,529636,NA,NA,529632.46,529636,2023-07-10T14:28:07Z,529649.1,NULL,Wechsel,ugeuzaji,s,utambulisho,kujenga,wasiwasi,NA,sdf,NA,0,NA,NA,NA,NA,NA,NA,NA,NA,NA,NA,NA,NA,NA,NA,NA,NA,NA,NA,NA
e874d,Shallow Question,html.Page,5_0_0_0_2_1_0,NA,NA,form submission,3811.9,529637,529632.46,529649.1,533461,533461,2023-07-10T14:28:11Z,533465.16,NULL,Wechsel,ugeuzaji,s,utambulisho,kujenga,wasiwasi,wasiwasi,NA,NA,0,NA,NA,NA,NA,NA,NA,NA,NA,NA,NA,NA,NA,NA,NA,NA,NA,NA,NA,NA
e874d,"""Richtig""-Screen",canvas.Screen,5_0_0_0_2_1_1,NA,NA,skipped,NA,533463,NA,NA,533461,533464,2023-07-10T14:28:11Z,533465.16,NULL,Wechsel,ugeuzaji,s,utambulisho,kujenga,wasiwasi,NA,sdf,NA,0,NA,NA,NA,NA,NA,NA,NA,NA,NA,NA,NA,NA,NA,NA,NA,NA,NA,NA,NA
e874d,"""Falsch""-Screen",canvas.Screen,5_0_0_0_2_1_2,NA,NA,timeout,4999.6,533467,533456.26,533465.16,538448.12,538449,2023-07-10T14:28:16Z,538464.76,NULL,Wechsel,ugeuzaji,s,utambulisho,kujenga,wasiwasi,NA,sdf,0,0,NA,NA,NA,NA,NA,NA,NA,NA,NA,NA,NA,NA,NA,NA,NA,NA,NA,NA,NA
e874d,shallow,flow.Sequence,5_0_0_0_2_1,NA,NA,completion,8799.02,529636,529632.46,529649.1,538448.12,538450,2023-07-10T14:28:16Z,538464.76,NULL,Wechsel,ugeuzaji,s,utambulisho,kujenga,wasiwasi,NA,sdf,NA,0,NA,NA,NA,NA,NA,NA,NA,NA,NA,NA,NA,NA,NA,NA,NA,NA,NA,NA,NA
e874d,task,flow.Sequence,5_0_0_0_2,NA,NA,completion,8799.02,529636,529632.46,529649.1,538448.12,538450,2023-07-10T14:28:16Z,538464.76,NULL,Wechsel,ugeuzaji,s,utambulisho,kujenga,wasiwasi,NA,sdf,NA,0,NA,NA,NA,NA,NA,NA,NA,NA,NA,NA,NA,NA,NA,NA,NA,NA,NA,NA,NA
e874d,Deep Question,html.Page,5_0_0_0_3_0_0,NA,NA,form submission,2088.24,538451,538448.12,538464.76,540553,540553,2023-07-10T14:28:18Z,540564.26,NULL,Abrechnung,uhasibu,d,NA,NA,NA,j,NA,NA,0,NA,NA,NA,NA,NA,NA,NA,NA,NA,NA,NA,NA,NA,NA,NA,NA,NA,NA,NA
e874d,"""Richtig""-Screen",canvas.Screen,5_0_0_0_3_0_1,NA,NA,skipped,NA,540556,NA,NA,540553,540556,2023-07-10T14:28:18Z,540564.26,NULL,Abrechnung,uhasibu,d,NA,NA,NA,NA,sdf,NA,0,NA,NA,NA,NA,NA,NA,NA,NA,NA,NA,NA,NA,NA,NA,NA,NA,NA,NA,NA
e874d,"""Falsch""-Screen",canvas.Screen,5_0_0_0_3_0_2,NA,NA,timeout,4999.38,540559,540551.48,540564.26,545546.96,545548,2023-07-10T14:28:23Z,545563.64,NULL,Abrechnung,uhasibu,d,NA,NA,NA,NA,sdf,0,0,NA,NA,NA,NA,NA,NA,NA,NA,NA,NA,NA,NA,NA,NA,NA,NA,NA,NA,NA
e874d,deep,flow.Sequence,5_0_0_0_3_0,NA,NA,completion,7082.2,538451,538448.12,538464.76,545546.96,545549,2023-07-10T14:28:23Z,545563.64,NULL,Abrechnung,uhasibu,d,NA,NA,NA,NA,sdf,NA,0,NA,NA,NA,NA,NA,NA,NA,NA,NA,NA,NA,NA,NA,NA,NA,NA,NA,NA,NA
e874d,shallow,flow.Sequence,5_0_0_0_3_1,NA,NA,skipped,NA,545549,NA,NA,545546.96,545549,2023-07-10T14:28:23Z,545563.64,NULL,Abrechnung,uhasibu,d,NA,NA,NA,NA,sdf,NA,0,NA,NA,NA,NA,NA,NA,NA,NA,NA,NA,NA,NA,NA,NA,NA,NA,NA,NA,NA
e874d,task,flow.Sequence,5_0_0_0_3,NA,NA,completion,7082.2,538451,538448.12,538464.76,545546.96,545549,2023-07-10T14:28:23Z,545563.64,NULL,Abrechnung,uhasibu,d,NA,NA,NA,NA,sdf,NA,0,NA,NA,NA,NA,NA,NA,NA,NA,NA,NA,NA,NA,NA,NA,NA,NA,NA,NA,NA
e874d,Deep Question,html.Page,5_0_0_0_4_0_0,NA,NA,form submission,1924.36,545550,545546.96,545563.64,547488,547488,2023-07-10T14:28:25Z,547496.74,NULL,Atmosphäre,angahewa,d,NA,NA,NA,jk,NA,NA,0,NA,NA,NA,NA,NA,NA,NA,NA,NA,NA,NA,NA,NA,NA,NA,NA,NA,NA,NA
e874d,"""Richtig""-Screen",canvas.Screen,5_0_0_0_4_0_1,NA,NA,skipped,NA,547490,NA,NA,547488,547490,2023-07-10T14:28:25Z,547496.74,NULL,Atmosphäre,angahewa,d,NA,NA,NA,NA,sdf,NA,0,NA,NA,NA,NA,NA,NA,NA,NA,NA,NA,NA,NA,NA,NA,NA,NA,NA,NA,NA
e874d,"""Falsch""-Screen",canvas.Screen,5_0_0_0_4_0_2,NA,NA,timeout,4999.3200000001,547493,547486.58,547496.74,552479.84,552482,2023-07-10T14:28:30Z,552496.06,NULL,Atmosphäre,angahewa,d,NA,NA,NA,NA,sdf,0,0,NA,NA,NA,NA,NA,NA,NA,NA,NA,NA,NA,NA,NA,NA,NA,NA,NA,NA,NA
e874d,deep,flow.Sequence,5_0_0_0_4_0,NA,NA,completion,6916.2,545550,545546.96,545563.64,552479.84,552482,2023-07-10T14:28:30Z,552496.06,NULL,Atmosphäre,angahewa,d,NA,NA,NA,NA,sdf,NA,0,NA,NA,NA,NA,NA,NA,NA,NA,NA,NA,NA,NA,NA,NA,NA,NA,NA,NA,NA
e874d,shallow,flow.Sequence,5_0_0_0_4_1,NA,NA,skipped,NA,552482,NA,NA,552479.84,552483,2023-07-10T14:28:30Z,552496.06,NULL,Atmosphäre,angahewa,d,NA,NA,NA,NA,sdf,NA,0,NA,NA,NA,NA,NA,NA,NA,NA,NA,NA,NA,NA,NA,NA,NA,NA,NA,NA,NA
e874d,task,flow.Sequence,5_0_0_0_4,NA,NA,completion,6916.2,545550,545546.96,545563.64,552479.84,552484,2023-07-10T14:28:30Z,552496.06,NULL,Atmosphäre,angahewa,d,NA,NA,NA,NA,sdf,NA,0,NA,NA,NA,NA,NA,NA,NA,NA,NA,NA,NA,NA,NA,NA,NA,NA,NA,NA,NA
e874d,deep,flow.Sequence,5_0_0_0_5_0,NA,NA,skipped,NA,552484,NA,NA,552479.84,552485,2023-07-10T14:28:30Z,552496.06,NULL,Sänger,mwimbaji,s,msichana,shughuli,mshirika,NA,sdf,NA,0,NA,NA,NA,NA,NA,NA,NA,NA,NA,NA,NA,NA,NA,NA,NA,NA,NA,NA,NA
e874d,Shallow Question,html.Page,5_0_0_0_5_1_0,NA,NA,form submission,4096.9399999999,552485,552479.84,552496.06,556593,556593,2023-07-10T14:28:34Z,556595.6,NULL,Sänger,mwimbaji,s,msichana,shughuli,mshirika,mshirika,NA,NA,0,NA,NA,NA,NA,NA,NA,NA,NA,NA,NA,NA,NA,NA,NA,NA,NA,NA,NA,NA
e874d,"""Richtig""-Screen",canvas.Screen,5_0_0_0_5_1_1,NA,NA,skipped,NA,556597,NA,NA,556593,556597,2023-07-10T14:28:34Z,556595.6,NULL,Sänger,mwimbaji,s,msichana,shughuli,mshirika,NA,sdf,NA,0,NA,NA,NA,NA,NA,NA,NA,NA,NA,NA,NA,NA,NA,NA,NA,NA,NA,NA,NA
e874d,"""Falsch""-Screen",canvas.Screen,5_0_0_0_5_1_2,NA,NA,timeout,4999.34,556600,556589.66,556595.6,561578.64,561580,2023-07-10T14:28:39Z,561594.94,NULL,Sänger,mwimbaji,s,msichana,shughuli,mshirika,NA,sdf,0,0,NA,NA,NA,NA,NA,NA,NA,NA,NA,NA,NA,NA,NA,NA,NA,NA,NA,NA,NA
e874d,shallow,flow.Sequence,5_0_0_0_5_1,NA,NA,completion,9082.58,552485,552479.84,552496.06,561578.64,561581,2023-07-10T14:28:39Z,561594.94,NULL,Sänger,mwimbaji,s,msichana,shughuli,mshirika,NA,sdf,NA,0,NA,NA,NA,NA,NA,NA,NA,NA,NA,NA,NA,NA,NA,NA,NA,NA,NA,NA,NA
e874d,task,flow.Sequence,5_0_0_0_5,NA,NA,completion,9082.58,552484,552479.84,552496.06,561578.64,561581,2023-07-10T14:28:39Z,561594.94,NULL,Sänger,mwimbaji,s,msichana,shughuli,mshirika,NA,sdf,NA,0,NA,NA,NA,NA,NA,NA,NA,NA,NA,NA,NA,NA,NA,NA,NA,NA,NA,NA,NA
e874d,deep,flow.Sequence,5_0_0_0_6_0,NA,NA,skipped,NA,561582,NA,NA,561578.64,561582,2023-07-10T14:28:39Z,561594.94,NULL,Angreifer,mshambulizi,s,kitengo,tasinia,usafirishaji,NA,sdf,NA,0,NA,NA,NA,NA,NA,NA,NA,NA,NA,NA,NA,NA,NA,NA,NA,NA,NA,NA,NA
e874d,Shallow Question,html.Page,5_0_0_0_6_1_0,NA,NA,form submission,8042.0600000001,561582,561578.64,561594.94,569637,569637,2023-07-10T14:28:47Z,569643.92,NULL,Angreifer,mshambulizi,s,kitengo,tasinia,usafirishaji,mshambulizi,NA,NA,0,NA,NA,NA,NA,NA,NA,NA,NA,NA,NA,NA,NA,NA,NA,NA,NA,NA,NA,NA
e874d,"""Richtig""-Screen",canvas.Screen,5_0_0_0_6_1_1,NA,NA,timeout,4999.34,569642,569630.7,569643.92,574626.64,574631,2023-07-10T14:28:52Z,574643.26,NULL,Angreifer,mshambulizi,s,kitengo,tasinia,usafirishaji,NA,sdf,1,0,NA,NA,NA,NA,NA,NA,NA,NA,NA,NA,NA,NA,NA,NA,NA,NA,NA,NA,NA
e874d,"""Falsch""-Screen",canvas.Screen,5_0_0_0_6_1_2,NA,NA,skipped,NA,574649,NA,NA,574626.64,574649,2023-07-10T14:28:52Z,574643.26,NULL,Angreifer,mshambulizi,s,kitengo,tasinia,usafirishaji,NA,sdf,NA,0,NA,NA,NA,NA,NA,NA,NA,NA,NA,NA,NA,NA,NA,NA,NA,NA,NA,NA,NA
e874d,shallow,flow.Sequence,5_0_0_0_6_1,NA,NA,completion,13031.7,561582,561578.64,561594.94,574626.64,574649,2023-07-10T14:28:52Z,574643.26,NULL,Angreifer,mshambulizi,s,kitengo,tasinia,usafirishaji,NA,sdf,NA,0,NA,NA,NA,NA,NA,NA,NA,NA,NA,NA,NA,NA,NA,NA,NA,NA,NA,NA,NA
e874d,task,flow.Sequence,5_0_0_0_6,NA,NA,completion,13031.7,561582,561578.64,561594.94,574626.64,574650,2023-07-10T14:28:52Z,574643.26,NULL,Angreifer,mshambulizi,s,kitengo,tasinia,usafirishaji,NA,sdf,NA,0,NA,NA,NA,NA,NA,NA,NA,NA,NA,NA,NA,NA,NA,NA,NA,NA,NA,NA,NA
e874d,Deep Question,html.Page,5_0_0_0_7_0_0,NA,NA,form submission,4320.74,574650,574626.64,574643.26,578964,578964,2023-07-10T14:28:56Z,578959.34,NULL,Kanzler,diwani,d,NA,NA,NA,k,NA,NA,0,NA,NA,NA,NA,NA,NA,NA,NA,NA,NA,NA,NA,NA,NA,NA,NA,NA,NA,NA
e874d,"""Richtig""-Screen",canvas.Screen,5_0_0_0_7_0_1,NA,NA,skipped,NA,578968,NA,NA,578964,578968,2023-07-10T14:28:56Z,578959.34,NULL,Kanzler,diwani,d,NA,NA,NA,NA,sdf,NA,0,NA,NA,NA,NA,NA,NA,NA,NA,NA,NA,NA,NA,NA,NA,NA,NA,NA,NA,NA
e874d,"""Falsch""-Screen",canvas.Screen,5_0_0_0_7_0_2,NA,NA,timeout,4999.6,578972,578957.82,578959.34,583942.32,583944,2023-07-10T14:29:01Z,583958.94,NULL,Kanzler,diwani,d,NA,NA,NA,NA,sdf,0,0,NA,NA,NA,NA,NA,NA,NA,NA,NA,NA,NA,NA,NA,NA,NA,NA,NA,NA,NA
e874d,deep,flow.Sequence,5_0_0_0_7_0,NA,NA,completion,9299.0599999999,574650,574626.64,574643.26,583942.32,583945,2023-07-10T14:29:01Z,583958.94,NULL,Kanzler,diwani,d,NA,NA,NA,NA,sdf,NA,0,NA,NA,NA,NA,NA,NA,NA,NA,NA,NA,NA,NA,NA,NA,NA,NA,NA,NA,NA
e874d,shallow,flow.Sequence,5_0_0_0_7_1,NA,NA,skipped,NA,583945,NA,NA,583942.32,583946,2023-07-10T14:29:01Z,583958.94,NULL,Kanzler,diwani,d,NA,NA,NA,NA,sdf,NA,0,NA,NA,NA,NA,NA,NA,NA,NA,NA,NA,NA,NA,NA,NA,NA,NA,NA,NA,NA
e874d,task,flow.Sequence,5_0_0_0_7,NA,NA,completion,9299.0599999999,574650,574626.64,574643.26,583942.32,583946,2023-07-10T14:29:01Z,583958.94,NULL,Kanzler,diwani,d,NA,NA,NA,NA,sdf,NA,0,NA,NA,NA,NA,NA,NA,NA,NA,NA,NA,NA,NA,NA,NA,NA,NA,NA,NA,NA
e874d,block,flow.Loop,5_0_0_0,NA,NA,completion,72233.38,511708,511708.58,511708.94,583942.32,583949,2023-07-10T14:29:01Z,583958.94,NULL,NA,NA,NA,NA,NA,NA,NA,sdf,NA,0,NA,NA,NA,NA,NA,NA,NA,NA,NA,NA,NA,NA,NA,NA,NA,NA,NA,NA,NA
e874d,weiter,canvas.Screen,5_0_0_1,sdf,keypress(Space),response,879.06000000006,583949,583942.32,583958.94,584838,584843,2023-07-10T14:29:02Z,584916.24,NULL,NA,NA,NA,NA,NA,NA,NA,sdf,NA,0,NA,NA,NA,NA,NA,NA,NA,NA,NA,NA,NA,NA,NA,NA,NA,NA,NA,NA,NA
e874d,check continue,flow.Sequence,5_0_0,NA,NA,completion,73129.06,511708,511708.58,511708.94,584838,584844,2023-07-10T14:29:02Z,584916.24,NULL,NA,NA,NA,NA,NA,NA,NA,sdf,NA,0,NA,NA,NA,NA,NA,NA,NA,NA,NA,NA,NA,NA,NA,NA,NA,NA,NA,NA,NA
e874d,Deep Question,html.Page,5_0_1_0_0_0_0,NA,NA,form submission,2996.76,584916,584915.94,584916.24,587913,587913,2023-07-10T14:29:05Z,587912.6,NULL,Atmosphäre,angahewa,d,NA,NA,NA,a,NA,NA,1,NA,NA,NA,NA,NA,NA,NA,NA,NA,NA,NA,NA,NA,NA,NA,NA,NA,NA,NA
e874d,"""Richtig""-Screen",canvas.Screen,5_0_1_0_0_0_1,NA,NA,skipped,NA,587917,NA,NA,587913,587917,2023-07-10T14:29:05Z,587912.6,NULL,Atmosphäre,angahewa,d,NA,NA,NA,NA,sdfdsf,NA,1,NA,NA,NA,NA,NA,NA,NA,NA,NA,NA,NA,NA,NA,NA,NA,NA,NA,NA,NA
e874d,"""Falsch""-Screen",canvas.Screen,5_0_1_0_0_0_2,NA,NA,timeout,4994.9600000001,587919,587912.36,587912.6,592891.38,592893,2023-07-10T14:29:10Z,592907.56,NULL,Atmosphäre,angahewa,d,NA,NA,NA,NA,sdfdsf,0,1,NA,NA,NA,NA,NA,NA,NA,NA,NA,NA,NA,NA,NA,NA,NA,NA,NA,NA,NA
e874d,deep,flow.Sequence,5_0_1_0_0_0,NA,NA,completion,7975.14,584916,584915.94,584916.24,592891.38,592893,2023-07-10T14:29:10Z,592907.56,NULL,Atmosphäre,angahewa,d,NA,NA,NA,NA,sdfdsf,NA,1,NA,NA,NA,NA,NA,NA,NA,NA,NA,NA,NA,NA,NA,NA,NA,NA,NA,NA,NA
e874d,shallow,flow.Sequence,5_0_1_0_0_1,NA,NA,skipped,NA,592894,NA,NA,592891.38,592894,2023-07-10T14:29:10Z,592907.56,NULL,Atmosphäre,angahewa,d,NA,NA,NA,NA,sdfdsf,NA,1,NA,NA,NA,NA,NA,NA,NA,NA,NA,NA,NA,NA,NA,NA,NA,NA,NA,NA,NA
e874d,task,flow.Sequence,5_0_1_0_0,NA,NA,completion,7975.14,584916,584915.94,584916.24,592891.38,592894,2023-07-10T14:29:10Z,592907.56,NULL,Atmosphäre,angahewa,d,NA,NA,NA,NA,sdfdsf,NA,1,NA,NA,NA,NA,NA,NA,NA,NA,NA,NA,NA,NA,NA,NA,NA,NA,NA,NA,NA
e874d,deep,flow.Sequence,5_0_1_0_1_0,NA,NA,skipped,NA,592894,NA,NA,592891.38,592895,2023-07-10T14:29:10Z,592907.56,NULL,Sänger,mwimbaji,s,msichana,shughuli,mshirika,NA,sdfdsf,NA,1,NA,NA,NA,NA,NA,NA,NA,NA,NA,NA,NA,NA,NA,NA,NA,NA,NA,NA,NA
e874d,Shallow Question,html.Page,5_0_1_0_1_1_0,NA,NA,form submission,6247.4399999999,592896,592891.38,592907.56,599155,599156,2023-07-10T14:29:16Z,599156.72,NULL,Sänger,mwimbaji,s,msichana,shughuli,mshirika,mwimbaji,NA,NA,1,NA,NA,NA,NA,NA,NA,NA,NA,NA,NA,NA,NA,NA,NA,NA,NA,NA,NA,NA
e874d,"""Richtig""-Screen",canvas.Screen,5_0_1_0_1_1_1,NA,NA,timeout,4999.4600000001,599157,599152.68,599156.72,604139.52,604140,2023-07-10T14:29:21Z,604156.18,NULL,Sänger,mwimbaji,s,msichana,shughuli,mshirika,NA,sdfdsf,1,1,NA,NA,NA,NA,NA,NA,NA,NA,NA,NA,NA,NA,NA,NA,NA,NA,NA,NA,NA
e874d,"""Falsch""-Screen",canvas.Screen,5_0_1_0_1_1_2,NA,NA,skipped,NA,604143,NA,NA,604139.52,604143,2023-07-10T14:29:21Z,604156.18,NULL,Sänger,mwimbaji,s,msichana,shughuli,mshirika,NA,sdfdsf,NA,1,NA,NA,NA,NA,NA,NA,NA,NA,NA,NA,NA,NA,NA,NA,NA,NA,NA,NA,NA
e874d,shallow,flow.Sequence,5_0_1_0_1_1,NA,NA,completion,11231.96,592896,592891.38,592907.56,604139.52,604143,2023-07-10T14:29:21Z,604156.18,NULL,Sänger,mwimbaji,s,msichana,shughuli,mshirika,NA,sdfdsf,NA,1,NA,NA,NA,NA,NA,NA,NA,NA,NA,NA,NA,NA,NA,NA,NA,NA,NA,NA,NA
e874d,task,flow.Sequence,5_0_1_0_1,NA,NA,completion,11231.96,592894,592891.38,592907.56,604139.52,604143,2023-07-10T14:29:21Z,604156.18,NULL,Sänger,mwimbaji,s,msichana,shughuli,mshirika,NA,sdfdsf,NA,1,NA,NA,NA,NA,NA,NA,NA,NA,NA,NA,NA,NA,NA,NA,NA,NA,NA,NA,NA
e874d,Deep Question,html.Page,5_0_1_0_2_0_0,NA,NA,form submission,4765.8199999999,604143,604139.52,604156.18,608922,608922,2023-07-10T14:29:26Z,608922.1,NULL,Abrechnung,uhasibu,d,NA,NA,NA,a,NA,NA,1,NA,NA,NA,NA,NA,NA,NA,NA,NA,NA,NA,NA,NA,NA,NA,NA,NA,NA,NA
e874d,"""Richtig""-Screen",canvas.Screen,5_0_1_0_2_0_1,NA,NA,skipped,NA,608924,NA,NA,608922,608924,2023-07-10T14:29:26Z,608922.1,NULL,Abrechnung,uhasibu,d,NA,NA,NA,NA,sdfdsf,NA,1,NA,NA,NA,NA,NA,NA,NA,NA,NA,NA,NA,NA,NA,NA,NA,NA,NA,NA,NA
e874d,"""Falsch""-Screen",canvas.Screen,5_0_1_0_2_0_2,NA,NA,timeout,4999.4400000001,608927,608922.1,608922.1,613904.94,613906,2023-07-10T14:29:31Z,613921.54,NULL,Abrechnung,uhasibu,d,NA,NA,NA,NA,sdfdsf,0,1,NA,NA,NA,NA,NA,NA,NA,NA,NA,NA,NA,NA,NA,NA,NA,NA,NA,NA,NA
e874d,deep,flow.Sequence,5_0_1_0_2_0,NA,NA,completion,9748.7599999999,604143,604139.52,604156.18,613904.94,613907,2023-07-10T14:29:31Z,613921.54,NULL,Abrechnung,uhasibu,d,NA,NA,NA,NA,sdfdsf,NA,1,NA,NA,NA,NA,NA,NA,NA,NA,NA,NA,NA,NA,NA,NA,NA,NA,NA,NA,NA
e874d,shallow,flow.Sequence,5_0_1_0_2_1,NA,NA,skipped,NA,613907,NA,NA,613904.94,613908,2023-07-10T14:29:31Z,613921.54,NULL,Abrechnung,uhasibu,d,NA,NA,NA,NA,sdfdsf,NA,1,NA,NA,NA,NA,NA,NA,NA,NA,NA,NA,NA,NA,NA,NA,NA,NA,NA,NA,NA
e874d,task,flow.Sequence,5_0_1_0_2,NA,NA,completion,9748.7599999999,604143,604139.52,604156.18,613904.94,613908,2023-07-10T14:29:31Z,613921.54,NULL,Abrechnung,uhasibu,d,NA,NA,NA,NA,sdfdsf,NA,1,NA,NA,NA,NA,NA,NA,NA,NA,NA,NA,NA,NA,NA,NA,NA,NA,NA,NA,NA
e874d,deep,flow.Sequence,5_0_1_0_3_0,NA,NA,skipped,NA,613908,NA,NA,613904.94,613909,2023-07-10T14:29:31Z,613921.54,NULL,Wechsel,ugeuzaji,s,utambulisho,kujenga,wasiwasi,NA,sdfdsf,NA,1,NA,NA,NA,NA,NA,NA,NA,NA,NA,NA,NA,NA,NA,NA,NA,NA,NA,NA,NA
e874d,Shallow Question,html.Page,5_0_1_0_3_1_0,NA,NA,form submission,11099.46,613909,613904.94,613921.54,625021,625021,2023-07-10T14:29:42Z,625020,NULL,Wechsel,ugeuzaji,s,utambulisho,kujenga,wasiwasi,ugeuzaji,NA,NA,1,NA,NA,NA,NA,NA,NA,NA,NA,NA,NA,NA,NA,NA,NA,NA,NA,NA,NA,NA
e874d,"""Richtig""-Screen",canvas.Screen,5_0_1_0_3_1_1,NA,NA,timeout,4999.38,625024,625018.68,625020,630002.9,630010,2023-07-10T14:29:47Z,630019.38,NULL,Wechsel,ugeuzaji,s,utambulisho,kujenga,wasiwasi,NA,sdfdsf,1,1,NA,NA,NA,NA,NA,NA,NA,NA,NA,NA,NA,NA,NA,NA,NA,NA,NA,NA,NA
e874d,"""Falsch""-Screen",canvas.Screen,5_0_1_0_3_1_2,NA,NA,skipped,NA,630033,NA,NA,630002.9,630033,2023-07-10T14:29:47Z,630019.38,NULL,Wechsel,ugeuzaji,s,utambulisho,kujenga,wasiwasi,NA,sdfdsf,NA,1,NA,NA,NA,NA,NA,NA,NA,NA,NA,NA,NA,NA,NA,NA,NA,NA,NA,NA,NA
e874d,shallow,flow.Sequence,5_0_1_0_3_1,NA,NA,completion,16081.36,613909,613904.94,613921.54,630002.9,630033,2023-07-10T14:29:47Z,630019.38,NULL,Wechsel,ugeuzaji,s,utambulisho,kujenga,wasiwasi,NA,sdfdsf,NA,1,NA,NA,NA,NA,NA,NA,NA,NA,NA,NA,NA,NA,NA,NA,NA,NA,NA,NA,NA
e874d,task,flow.Sequence,5_0_1_0_3,NA,NA,completion,16081.36,613908,613904.94,613921.54,630002.9,630033,2023-07-10T14:29:47Z,630019.38,NULL,Wechsel,ugeuzaji,s,utambulisho,kujenga,wasiwasi,NA,sdfdsf,NA,1,NA,NA,NA,NA,NA,NA,NA,NA,NA,NA,NA,NA,NA,NA,NA,NA,NA,NA,NA
e874d,deep,flow.Sequence,5_0_1_0_4_0,NA,NA,skipped,NA,630034,NA,NA,630002.9,630034,2023-07-10T14:29:47Z,630019.38,NULL,Erneuerung,ukarabati,s,ushawishi,ukalifu,unyonyaji,NA,sdfdsf,NA,1,NA,NA,NA,NA,NA,NA,NA,NA,NA,NA,NA,NA,NA,NA,NA,NA,NA,NA,NA
e874d,Shallow Question,html.Page,5_0_1_0_4_1_0,NA,NA,form submission,5425.62,630034,630002.9,630019.38,635445,635446,2023-07-10T14:29:53Z,635452.12,NULL,Erneuerung,ukarabati,s,ushawishi,ukalifu,unyonyaji,ukarabati,NA,NA,1,NA,NA,NA,NA,NA,NA,NA,NA,NA,NA,NA,NA,NA,NA,NA,NA,NA,NA,NA
e874d,"""Richtig""-Screen",canvas.Screen,5_0_1_0_4_1_1,NA,NA,timeout,4999.3,635453,635434.22,635452.12,640434.84,640436,2023-07-10T14:29:58Z,640451.42,NULL,Erneuerung,ukarabati,s,ushawishi,ukalifu,unyonyaji,NA,sdfdsf,1,1,NA,NA,NA,NA,NA,NA,NA,NA,NA,NA,NA,NA,NA,NA,NA,NA,NA,NA,NA
e874d,"""Falsch""-Screen",canvas.Screen,5_0_1_0_4_1_2,NA,NA,skipped,NA,640443,NA,NA,640434.84,640443,2023-07-10T14:29:58Z,640451.42,NULL,Erneuerung,ukarabati,s,ushawishi,ukalifu,unyonyaji,NA,sdfdsf,NA,1,NA,NA,NA,NA,NA,NA,NA,NA,NA,NA,NA,NA,NA,NA,NA,NA,NA,NA,NA
e874d,shallow,flow.Sequence,5_0_1_0_4_1,NA,NA,completion,10415.46,630034,630002.9,630019.38,640434.84,640444,2023-07-10T14:29:58Z,640451.42,NULL,Erneuerung,ukarabati,s,ushawishi,ukalifu,unyonyaji,NA,sdfdsf,NA,1,NA,NA,NA,NA,NA,NA,NA,NA,NA,NA,NA,NA,NA,NA,NA,NA,NA,NA,NA
e874d,task,flow.Sequence,5_0_1_0_4,NA,NA,completion,10415.46,630034,630002.9,630019.38,640434.84,640444,2023-07-10T14:29:58Z,640451.42,NULL,Erneuerung,ukarabati,s,ushawishi,ukalifu,unyonyaji,NA,sdfdsf,NA,1,NA,NA,NA,NA,NA,NA,NA,NA,NA,NA,NA,NA,NA,NA,NA,NA,NA,NA,NA
e874d,Deep Question,html.Page,5_0_1_0_5_0_0,NA,NA,form submission,9289.58,640445,640434.84,640451.42,649741,649741,2023-07-10T14:30:07Z,649750.22,NULL,Kanzler,diwani,d,NA,NA,NA,diwadi,NA,NA,1,NA,NA,NA,NA,NA,NA,NA,NA,NA,NA,NA,NA,NA,NA,NA,NA,NA,NA,NA
e874d,"""Richtig""-Screen",canvas.Screen,5_0_1_0_5_0_1,NA,NA,skipped,NA,649744,NA,NA,649741,649744,2023-07-10T14:30:07Z,649750.22,NULL,Kanzler,diwani,d,NA,NA,NA,NA,sdfdsf,NA,1,NA,NA,NA,NA,NA,NA,NA,NA,NA,NA,NA,NA,NA,NA,NA,NA,NA,NA,NA
e874d,"""Falsch""-Screen",canvas.Screen,5_0_1_0_5_0_2,NA,NA,timeout,4999.36,649747,649739.46,649750.22,654733,654734,2023-07-10T14:30:12Z,654749.58,NULL,Kanzler,diwani,d,NA,NA,NA,NA,sdfdsf,0,1,NA,NA,NA,NA,NA,NA,NA,NA,NA,NA,NA,NA,NA,NA,NA,NA,NA,NA,NA
e874d,deep,flow.Sequence,5_0_1_0_5_0,NA,NA,completion,14281.58,640445,640434.84,640451.42,654733,654735,2023-07-10T14:30:12Z,654749.58,NULL,Kanzler,diwani,d,NA,NA,NA,NA,sdfdsf,NA,1,NA,NA,NA,NA,NA,NA,NA,NA,NA,NA,NA,NA,NA,NA,NA,NA,NA,NA,NA
e874d,shallow,flow.Sequence,5_0_1_0_5_1,NA,NA,skipped,NA,654736,NA,NA,654733,654737,2023-07-10T14:30:12Z,654749.58,NULL,Kanzler,diwani,d,NA,NA,NA,NA,sdfdsf,NA,1,NA,NA,NA,NA,NA,NA,NA,NA,NA,NA,NA,NA,NA,NA,NA,NA,NA,NA,NA
e874d,task,flow.Sequence,5_0_1_0_5,NA,NA,completion,14281.58,640445,640434.84,640451.42,654733,654738,2023-07-10T14:30:12Z,654749.58,NULL,Kanzler,diwani,d,NA,NA,NA,NA,sdfdsf,NA,1,NA,NA,NA,NA,NA,NA,NA,NA,NA,NA,NA,NA,NA,NA,NA,NA,NA,NA,NA
e874d,Deep Question,html.Page,5_0_1_0_6_0_0,NA,NA,form submission,2455.42,654738,654733,654749.58,657205,657206,2023-07-10T14:30:14Z,657215.88,NULL,Flexibilität,kubadilika,d,NA,NA,NA,d,NA,NA,1,NA,NA,NA,NA,NA,NA,NA,NA,NA,NA,NA,NA,NA,NA,NA,NA,NA,NA,NA
e874d,"""Richtig""-Screen",canvas.Screen,5_0_1_0_6_0_1,NA,NA,skipped,NA,657208,NA,NA,657205,657208,2023-07-10T14:30:14Z,657215.88,NULL,Flexibilität,kubadilika,d,NA,NA,NA,NA,sdfdsf,NA,1,NA,NA,NA,NA,NA,NA,NA,NA,NA,NA,NA,NA,NA,NA,NA,NA,NA,NA,NA
e874d,"""Falsch""-Screen",canvas.Screen,5_0_1_0_6_0_2,NA,NA,timeout,4999.34,657211,657203.64,657215.88,662198.88,662200,2023-07-10T14:30:19Z,662215.22,NULL,Flexibilität,kubadilika,d,NA,NA,NA,NA,sdfdsf,0,1,NA,NA,NA,NA,NA,NA,NA,NA,NA,NA,NA,NA,NA,NA,NA,NA,NA,NA,NA
e874d,deep,flow.Sequence,5_0_1_0_6_0,NA,NA,completion,7449.3,654738,654733,654749.58,662198.88,662201,2023-07-10T14:30:19Z,662215.22,NULL,Flexibilität,kubadilika,d,NA,NA,NA,NA,sdfdsf,NA,1,NA,NA,NA,NA,NA,NA,NA,NA,NA,NA,NA,NA,NA,NA,NA,NA,NA,NA,NA
e874d,shallow,flow.Sequence,5_0_1_0_6_1,NA,NA,skipped,NA,662202,NA,NA,662198.88,662202,2023-07-10T14:30:19Z,662215.22,NULL,Flexibilität,kubadilika,d,NA,NA,NA,NA,sdfdsf,NA,1,NA,NA,NA,NA,NA,NA,NA,NA,NA,NA,NA,NA,NA,NA,NA,NA,NA,NA,NA
e874d,task,flow.Sequence,5_0_1_0_6,NA,NA,completion,7449.3,654738,654733,654749.58,662198.88,662202,2023-07-10T14:30:19Z,662215.22,NULL,Flexibilität,kubadilika,d,NA,NA,NA,NA,sdfdsf,NA,1,NA,NA,NA,NA,NA,NA,NA,NA,NA,NA,NA,NA,NA,NA,NA,NA,NA,NA,NA
e874d,deep,flow.Sequence,5_0_1_0_7_0,NA,NA,skipped,NA,662203,NA,NA,662198.88,662203,2023-07-10T14:30:19Z,662215.22,NULL,Angreifer,mshambulizi,s,kitengo,tasinia,usafirishaji,NA,sdfdsf,NA,1,NA,NA,NA,NA,NA,NA,NA,NA,NA,NA,NA,NA,NA,NA,NA,NA,NA,NA,NA
e874d,Shallow Question,html.Page,5_0_1_0_7_1_0,NA,NA,form submission,6365.78,662204,662198.88,662215.22,668581,668581,2023-07-10T14:30:26Z,668581.04,NULL,Angreifer,mshambulizi,s,kitengo,tasinia,usafirishaji,mshambulizi,NA,NA,1,NA,NA,NA,NA,NA,NA,NA,NA,NA,NA,NA,NA,NA,NA,NA,NA,NA,NA,NA
e874d,"""Richtig""-Screen",canvas.Screen,5_0_1_0_7_1_1,NA,NA,timeout,4999.4199999999,668583,668578.88,668581.04,673563.88,673565,2023-07-10T14:30:31Z,673580.46,NULL,Angreifer,mshambulizi,s,kitengo,tasinia,usafirishaji,NA,sdfdsf,1,1,NA,NA,NA,NA,NA,NA,NA,NA,NA,NA,NA,NA,NA,NA,NA,NA,NA,NA,NA
e874d,"""Falsch""-Screen",canvas.Screen,5_0_1_0_7_1_2,NA,NA,skipped,NA,673572,NA,NA,673563.88,673573,2023-07-10T14:30:31Z,673580.46,NULL,Angreifer,mshambulizi,s,kitengo,tasinia,usafirishaji,NA,sdfdsf,NA,1,NA,NA,NA,NA,NA,NA,NA,NA,NA,NA,NA,NA,NA,NA,NA,NA,NA,NA,NA
e874d,shallow,flow.Sequence,5_0_1_0_7_1,NA,NA,completion,11348.66,662203,662198.88,662215.22,673563.88,673573,2023-07-10T14:30:31Z,673580.46,NULL,Angreifer,mshambulizi,s,kitengo,tasinia,usafirishaji,NA,sdfdsf,NA,1,NA,NA,NA,NA,NA,NA,NA,NA,NA,NA,NA,NA,NA,NA,NA,NA,NA,NA,NA
e874d,task,flow.Sequence,5_0_1_0_7,NA,NA,completion,11348.66,662203,662198.88,662215.22,673563.88,673574,2023-07-10T14:30:31Z,673580.46,NULL,Angreifer,mshambulizi,s,kitengo,tasinia,usafirishaji,NA,sdfdsf,NA,1,NA,NA,NA,NA,NA,NA,NA,NA,NA,NA,NA,NA,NA,NA,NA,NA,NA,NA,NA
e874d,block,flow.Loop,5_0_1_0,NA,NA,completion,88647.64,584916,584915.94,584916.24,673563.88,673574,2023-07-10T14:30:31Z,673580.46,NULL,NA,NA,NA,NA,NA,NA,NA,sdfdsf,NA,1,NA,NA,NA,NA,NA,NA,NA,NA,NA,NA,NA,NA,NA,NA,NA,NA,NA,NA,NA
e874d,weiter,canvas.Screen,5_0_1_1,sdf,keypress(Space),response,835.54000000004,673574,673563.88,673580.46,674416,674420,2023-07-10T14:30:31Z,674487.98,NULL,NA,NA,NA,NA,NA,NA,NA,sdfdsf,NA,1,NA,NA,NA,NA,NA,NA,NA,NA,NA,NA,NA,NA,NA,NA,NA,NA,NA,NA,NA
e874d,check continue,flow.Sequence,5_0_1,NA,NA,completion,89499.76,584916,584915.94,584916.24,674416,674421,2023-07-10T14:30:31Z,674487.98,NULL,NA,NA,NA,NA,NA,NA,NA,sdfdsf,NA,1,NA,NA,NA,NA,NA,NA,NA,NA,NA,NA,NA,NA,NA,NA,NA,NA,NA,NA,NA
e874d,deep,flow.Sequence,5_0_2_0_0_0,NA,NA,skipped,NA,674487,NA,NA,674416,674487,2023-07-10T14:30:32Z,674487.98,NULL,Erneuerung,ukarabati,s,ushawishi,ukalifu,unyonyaji,NA,sdf,NA,2,NA,NA,NA,NA,NA,NA,NA,NA,NA,NA,NA,NA,NA,NA,NA,NA,NA,NA,NA
e874d,Shallow Question,html.Page,5_0_2_0_0_1_0,NA,NA,form submission,5590.02,674487,674487.68,674487.98,680078,680079,2023-07-10T14:30:37Z,680079.68,NULL,Erneuerung,ukarabati,s,ushawishi,ukalifu,unyonyaji,ushawishi,NA,NA,2,NA,NA,NA,NA,NA,NA,NA,NA,NA,NA,NA,NA,NA,NA,NA,NA,NA,NA,NA
e874d,"""Richtig""-Screen",canvas.Screen,5_0_2_0_0_1_1,NA,NA,skipped,NA,680085,NA,NA,680078,680086,2023-07-10T14:30:37Z,680079.68,NULL,Erneuerung,ukarabati,s,ushawishi,ukalifu,unyonyaji,NA,sdf,NA,2,NA,NA,NA,NA,NA,NA,NA,NA,NA,NA,NA,NA,NA,NA,NA,NA,NA,NA,NA
e874d,"""Falsch""-Screen",canvas.Screen,5_0_2_0_0_1_2,NA,NA,timeout,4999.2999999999,680090,680072.96,680079.68,685062.42,685064,2023-07-10T14:30:42Z,685078.98,NULL,Erneuerung,ukarabati,s,ushawishi,ukalifu,unyonyaji,NA,sdf,0,2,NA,NA,NA,NA,NA,NA,NA,NA,NA,NA,NA,NA,NA,NA,NA,NA,NA,NA,NA
e874d,shallow,flow.Sequence,5_0_2_0_0_1,NA,NA,completion,10574.44,674487,674487.68,674487.98,685062.42,685065,2023-07-10T14:30:42Z,685078.98,NULL,Erneuerung,ukarabati,s,ushawishi,ukalifu,unyonyaji,NA,sdf,NA,2,NA,NA,NA,NA,NA,NA,NA,NA,NA,NA,NA,NA,NA,NA,NA,NA,NA,NA,NA
e874d,task,flow.Sequence,5_0_2_0_0,NA,NA,completion,10574.44,674487,674487.68,674487.98,685062.42,685065,2023-07-10T14:30:42Z,685078.98,NULL,Erneuerung,ukarabati,s,ushawishi,ukalifu,unyonyaji,NA,sdf,NA,2,NA,NA,NA,NA,NA,NA,NA,NA,NA,NA,NA,NA,NA,NA,NA,NA,NA,NA,NA
e874d,Deep Question,html.Page,5_0_2_0_1_0_0,NA,NA,form submission,4554.02,685065,685062.42,685078.98,689633,689633,2023-07-10T14:30:47Z,689632.24,NULL,Kanzler,diwani,d,NA,NA,NA,diwani,NA,NA,2,NA,NA,NA,NA,NA,NA,NA,NA,NA,NA,NA,NA,NA,NA,NA,NA,NA,NA,NA
e874d,"""Richtig""-Screen",canvas.Screen,5_0_2_0_1_0_1,NA,NA,timeout,4995.52,689636,689631.94,689632.24,694611.22,694616,2023-07-10T14:30:52Z,694627.76,NULL,Kanzler,diwani,d,NA,NA,NA,NA,sdf,1,2,NA,NA,NA,NA,NA,NA,NA,NA,NA,NA,NA,NA,NA,NA,NA,NA,NA,NA,NA
e874d,"""Falsch""-Screen",canvas.Screen,5_0_2_0_1_0_2,NA,NA,skipped,NA,694632,NA,NA,694611.22,694632,2023-07-10T14:30:52Z,694627.76,NULL,Kanzler,diwani,d,NA,NA,NA,NA,sdf,NA,2,NA,NA,NA,NA,NA,NA,NA,NA,NA,NA,NA,NA,NA,NA,NA,NA,NA,NA,NA
e874d,deep,flow.Sequence,5_0_2_0_1_0,NA,NA,completion,9532.24,685065,685062.42,685078.98,694611.22,694634,2023-07-10T14:30:52Z,694627.76,NULL,Kanzler,diwani,d,NA,NA,NA,NA,sdf,NA,2,NA,NA,NA,NA,NA,NA,NA,NA,NA,NA,NA,NA,NA,NA,NA,NA,NA,NA,NA
e874d,shallow,flow.Sequence,5_0_2_0_1_1,NA,NA,skipped,NA,694634,NA,NA,694611.22,694634,2023-07-10T14:30:52Z,694627.76,NULL,Kanzler,diwani,d,NA,NA,NA,NA,sdf,NA,2,NA,NA,NA,NA,NA,NA,NA,NA,NA,NA,NA,NA,NA,NA,NA,NA,NA,NA,NA
e874d,task,flow.Sequence,5_0_2_0_1,NA,NA,completion,9532.24,685065,685062.42,685078.98,694611.22,694634,2023-07-10T14:30:52Z,694627.76,NULL,Kanzler,diwani,d,NA,NA,NA,NA,sdf,NA,2,NA,NA,NA,NA,NA,NA,NA,NA,NA,NA,NA,NA,NA,NA,NA,NA,NA,NA,NA
e874d,deep,flow.Sequence,5_0_2_0_2_0,NA,NA,skipped,NA,694635,NA,NA,694611.22,694635,2023-07-10T14:30:52Z,694627.76,NULL,Sänger,mwimbaji,s,msichana,shughuli,mshirika,NA,sdf,NA,2,NA,NA,NA,NA,NA,NA,NA,NA,NA,NA,NA,NA,NA,NA,NA,NA,NA,NA,NA
e874d,Shallow Question,html.Page,5_0_2_0_2_1_0,NA,NA,form submission,8192.24,694635,694611.22,694627.76,702820,702822,2023-07-10T14:31:00Z,702826.76,NULL,Sänger,mwimbaji,s,msichana,shughuli,mshirika,mwimbaji,NA,NA,2,NA,NA,NA,NA,NA,NA,NA,NA,NA,NA,NA,NA,NA,NA,NA,NA,NA,NA,NA
e874d,"""Richtig""-Screen",canvas.Screen,5_0_2_0_2_1_1,NA,NA,timeout,4999.34,702828,702811.34,702826.76,707809.42,707811,2023-07-10T14:31:05Z,707826.1,NULL,Sänger,mwimbaji,s,msichana,shughuli,mshirika,NA,sdf,1,2,NA,NA,NA,NA,NA,NA,NA,NA,NA,NA,NA,NA,NA,NA,NA,NA,NA,NA,NA
e874d,"""Falsch""-Screen",canvas.Screen,5_0_2_0_2_1_2,NA,NA,skipped,NA,707820,NA,NA,707809.42,707821,2023-07-10T14:31:05Z,707826.1,NULL,Sänger,mwimbaji,s,msichana,shughuli,mshirika,NA,sdf,NA,2,NA,NA,NA,NA,NA,NA,NA,NA,NA,NA,NA,NA,NA,NA,NA,NA,NA,NA,NA
e874d,shallow,flow.Sequence,5_0_2_0_2_1,NA,NA,completion,13181.66,694635,694611.22,694627.76,707809.42,707821,2023-07-10T14:31:05Z,707826.1,NULL,Sänger,mwimbaji,s,msichana,shughuli,mshirika,NA,sdf,NA,2,NA,NA,NA,NA,NA,NA,NA,NA,NA,NA,NA,NA,NA,NA,NA,NA,NA,NA,NA
e874d,task,flow.Sequence,5_0_2_0_2,NA,NA,completion,13181.66,694634,694611.22,694627.76,707809.42,707822,2023-07-10T14:31:05Z,707826.1,NULL,Sänger,mwimbaji,s,msichana,shughuli,mshirika,NA,sdf,NA,2,NA,NA,NA,NA,NA,NA,NA,NA,NA,NA,NA,NA,NA,NA,NA,NA,NA,NA,NA
e874d,Deep Question,html.Page,5_0_2_0_3_0_0,NA,NA,form submission,4727.9,707823,707809.42,707826.1,712554,712554,2023-07-10T14:31:10Z,712558.78,NULL,Atmosphäre,angahewa,d,NA,NA,NA,uhu,NA,NA,2,NA,NA,NA,NA,NA,NA,NA,NA,NA,NA,NA,NA,NA,NA,NA,NA,NA,NA,NA
e874d,"""Richtig""-Screen",canvas.Screen,5_0_2_0_3_0_1,NA,NA,skipped,NA,712556,NA,NA,712554,712557,2023-07-10T14:31:10Z,712558.78,NULL,Atmosphäre,angahewa,d,NA,NA,NA,NA,sdf,NA,2,NA,NA,NA,NA,NA,NA,NA,NA,NA,NA,NA,NA,NA,NA,NA,NA,NA,NA,NA
e874d,"""Falsch""-Screen",canvas.Screen,5_0_2_0_3_0_2,NA,NA,timeout,4999.38,712560,712552.32,712558.78,717541.94,717543,2023-07-10T14:31:15Z,717558.16,NULL,Atmosphäre,angahewa,d,NA,NA,NA,NA,sdf,0,2,NA,NA,NA,NA,NA,NA,NA,NA,NA,NA,NA,NA,NA,NA,NA,NA,NA,NA,NA
