observation,sender,sender_type,sender_id,response,response_action,ended_on,duration,time_run,time_render,time_show,time_end,time_commit,timestamp,time_switch,url_vp,url_sess,meta_labjs_version,meta_location,meta_user_agent,meta_platform,meta_language,meta_locale,meta_time_zone,meta_timezone_offset,meta_screen_width,meta_screen_height,meta_scroll_width,meta_scroll_height,meta_window_inner_width,meta_window_inner_height,meta_device_pixel_ratio,meta_labjs_build_flavor,meta_labjs_build_commit,german,swahili,enc,distractor1,distractor2,distractor3,x,correct,distractors
88c71,Introduction delayed retrieval,canvas.Screen,0,weiter,keypress(Space),response,4162.474999994,1165.5,1094.259,1177.625,5340.099999994,5343.299999997,2023-07-12T19:51:06Z,5344.333,173,2,20.2.4,https://neurocog.fernuni.ch/studies/vweber/sliechti/delayed/index.html?vp=173&sess=2,"Mozilla/5.0 (Windows NT 10.0; Win64; x64) AppleWebKit/537.36 (KHTML, like Gecko) Chrome/114.0.0.0 Safari/537.36",Win32,de-DE,de,Europe/Zurich,-120,1280,720,1280,577,1280,577,1.5,production,f5b4a49f956347addd546a832a3327688c2c0fef,NA,NA,NA,NA,NA,NA,NA,NA,NA
88c71,Deep Question,html.Page,1_0_0_0,davini,NA,form submission,11990.167,5343.700000003,5327.663,5344.333,17334.5,17334.899999991,2023-07-12T19:51:18Z,17344.478,NA,NA,NA,NA,NA,NA,NA,NA,NA,NA,NA,NA,NA,NA,NA,NA,NA,NA,NA,Integrität,uadilifu,s,muungano,mtiririko,upunguaji,NA,NA,NA
88c71,Save data screen,canvas.Screen,1_0_0_1,NA,NA,timeout,500.062,17336.700000003,17327.86,17344.478,17827.84,17829.200000003,2023-07-12T19:51:18Z,17844.54,NA,NA,NA,NA,NA,NA,NA,NA,NA,NA,NA,NA,NA,NA,NA,NA,NA,NA,NA,Integrität,uadilifu,s,muungano,mtiririko,upunguaji,NA,0,NA
88c71,deep,flow.Sequence,1_0_0,NA,NA,completion,12483.507,5343.700000003,5327.663,5344.333,17827.84,17829.599999994,2023-07-12T19:51:18Z,17844.54,NA,NA,NA,NA,NA,NA,NA,NA,NA,NA,NA,NA,NA,NA,NA,NA,NA,NA,NA,Integrität,uadilifu,s,muungano,mtiririko,upunguaji,NA,NA,NA
88c71,task,flow.Sequence,1_0,NA,NA,completion,12483.507,5343.599999994,5327.663,5344.333,17827.84,17829.799999997,2023-07-12T19:51:18Z,17844.54,NA,NA,NA,NA,NA,NA,NA,NA,NA,NA,NA,NA,NA,NA,NA,NA,NA,NA,NA,Integrität,uadilifu,s,muungano,mtiririko,upunguaji,NA,NA,NA
88c71,Deep Question,html.Page,1_1_0_0,manu,NA,form submission,3672.059999994,17830,17827.84,17844.54,21516.599999994,21517.200000003,2023-07-12T19:51:22Z,21527.886,NA,NA,NA,NA,NA,NA,NA,NA,NA,NA,NA,NA,NA,NA,NA,NA,NA,NA,NA,Stimmung,kinyongo,d,kilekile,kisambo,madhehebu,NA,NA,NA
88c71,Save data screen,canvas.Screen,1_1_0_1,NA,NA,timeout,500.05,21518.899999991,21511.619,21527.886,22011.319,22012.099999994,2023-07-12T19:51:22Z,22027.936,NA,NA,NA,NA,NA,NA,NA,NA,NA,NA,NA,NA,NA,NA,NA,NA,NA,NA,NA,Stimmung,kinyongo,d,kilekile,kisambo,madhehebu,NA,0,NA
88c71,deep,flow.Sequence,1_1_0,NA,NA,completion,4166.779,17830,17827.84,17844.54,22011.319,22012.299999997,2023-07-12T19:51:22Z,22027.936,NA,NA,NA,NA,NA,NA,NA,NA,NA,NA,NA,NA,NA,NA,NA,NA,NA,NA,NA,Stimmung,kinyongo,d,kilekile,kisambo,madhehebu,NA,NA,NA
88c71,task,flow.Sequence,1_1,NA,NA,completion,4166.779,17829.899999991,17827.84,17844.54,22011.319,22012.599999994,2023-07-12T19:51:22Z,22027.936,NA,NA,NA,NA,NA,NA,NA,NA,NA,NA,NA,NA,NA,NA,NA,NA,NA,NA,NA,Stimmung,kinyongo,d,kilekile,kisambo,madhehebu,NA,NA,NA
88c71,Deep Question,html.Page,1_2_0_0,d,NA,form submission,3735.064,22013,22011.319,22027.936,25763,25763.599999994,2023-07-12T19:51:26Z,25777.941,NA,NA,NA,NA,NA,NA,NA,NA,NA,NA,NA,NA,NA,NA,NA,NA,NA,NA,NA,Erneuerung,ukarabati,s,ushawishi,ukalifu,unyonyaji,NA,NA,NA
88c71,Save data screen,canvas.Screen,1_2_0_1,NA,NA,timeout,500.039,25765,25761.327,25777.941,26261.272,26262.099999994,2023-07-12T19:51:27Z,26277.98,NA,NA,NA,NA,NA,NA,NA,NA,NA,NA,NA,NA,NA,NA,NA,NA,NA,NA,NA,Erneuerung,ukarabati,s,ushawishi,ukalifu,unyonyaji,NA,0,NA
88c71,deep,flow.Sequence,1_2_0,NA,NA,completion,4233.336,22012.799999997,22011.319,22027.936,26261.272,26262.5,2023-07-12T19:51:27Z,26277.98,NA,NA,NA,NA,NA,NA,NA,NA,NA,NA,NA,NA,NA,NA,NA,NA,NA,NA,NA,Erneuerung,ukarabati,s,ushawishi,ukalifu,unyonyaji,NA,NA,NA
88c71,task,flow.Sequence,1_2,NA,NA,completion,4233.336,22012.799999997,22011.319,22027.936,26261.272,26262.899999991,2023-07-12T19:51:27Z,26277.98,NA,NA,NA,NA,NA,NA,NA,NA,NA,NA,NA,NA,NA,NA,NA,NA,NA,NA,NA,Erneuerung,ukarabati,s,ushawishi,ukalifu,unyonyaji,NA,NA,NA
88c71,Deep Question,html.Page,1_3_0_0,d,NA,form submission,2883.319999997,26263.099999994,26261.272,26277.98,29161.299999997,29161.799999997,2023-07-12T19:51:30Z,29179.549,NA,NA,NA,NA,NA,NA,NA,NA,NA,NA,NA,NA,NA,NA,NA,NA,NA,NA,NA,Wechsel,ugeuzaji,s,utambulisho,kujenga,wasiwasi,NA,NA,NA
88c71,Save data screen,canvas.Screen,1_3_0_1,NA,NA,timeout,498.435,29162.799999997,29145.021,29179.549,29661.302,29661.799999997,2023-07-12T19:51:30Z,29677.984,NA,NA,NA,NA,NA,NA,NA,NA,NA,NA,NA,NA,NA,NA,NA,NA,NA,NA,NA,Wechsel,ugeuzaji,s,utambulisho,kujenga,wasiwasi,NA,0,NA
88c71,deep,flow.Sequence,1_3_0,NA,NA,completion,3383.322,26263,26261.272,26277.98,29661.302,29661.899999991,2023-07-12T19:51:30Z,29677.984,NA,NA,NA,NA,NA,NA,NA,NA,NA,NA,NA,NA,NA,NA,NA,NA,NA,NA,NA,Wechsel,ugeuzaji,s,utambulisho,kujenga,wasiwasi,NA,NA,NA
88c71,task,flow.Sequence,1_3,NA,NA,completion,3383.322,26263,26261.272,26277.98,29661.302,29661.899999991,2023-07-12T19:51:30Z,29677.984,NA,NA,NA,NA,NA,NA,NA,NA,NA,NA,NA,NA,NA,NA,NA,NA,NA,NA,NA,Wechsel,ugeuzaji,s,utambulisho,kujenga,wasiwasi,NA,NA,NA
88c71,Deep Question,html.Page,1_4_0_0,katzit,NA,form submission,7362.615999994,29662.099999994,29661.302,29677.984,37040.599999994,37041,2023-07-12T19:51:38Z,37044.819,NA,NA,NA,NA,NA,NA,NA,NA,NA,NA,NA,NA,NA,NA,NA,NA,NA,NA,NA,Genehmigung,idhini,d,mwanamke,itikadi,fedheha,NA,NA,NA
88c71,Save data screen,canvas.Screen,1_4_0_1,NA,NA,timeout,500.031,37042.399999991,37028.478,37044.819,37528.12,37536.599999994,2023-07-12T19:51:38Z,37544.85,NA,NA,NA,NA,NA,NA,NA,NA,NA,NA,NA,NA,NA,NA,NA,NA,NA,NA,NA,Genehmigung,idhini,d,mwanamke,itikadi,fedheha,NA,0,NA
88c71,deep,flow.Sequence,1_4_0,NA,NA,completion,7850.136,29662,29661.302,29677.984,37528.12,37537.200000003,2023-07-12T19:51:38Z,37544.85,NA,NA,NA,NA,NA,NA,NA,NA,NA,NA,NA,NA,NA,NA,NA,NA,NA,NA,NA,Genehmigung,idhini,d,mwanamke,itikadi,fedheha,NA,NA,NA
88c71,task,flow.Sequence,1_4,NA,NA,completion,7850.136,29662,29661.302,29677.984,37528.12,37537.5,2023-07-12T19:51:38Z,37544.85,NA,NA,NA,NA,NA,NA,NA,NA,NA,NA,NA,NA,NA,NA,NA,NA,NA,NA,NA,Genehmigung,idhini,d,mwanamke,itikadi,fedheha,NA,NA,NA
88c71,Deep Question,html.Page,1_5_0_0,d,NA,form submission,1412.0499999911,37537.700000003,37528.12,37544.85,38956.899999991,38957.299999997,2023-07-12T19:51:39Z,38961.467,NA,NA,NA,NA,NA,NA,NA,NA,NA,NA,NA,NA,NA,NA,NA,NA,NA,NA,NA,Fleisch,mshakiki,s,kizunguzungu,mshikamano,angusho,NA,NA,NA
88c71,Save data screen,canvas.Screen,1_5_0_1,NA,NA,timeout,500.332,38958.899999991,38945.136,38961.467,39445.146,39446.299999997,2023-07-12T19:51:40Z,39461.799,NA,NA,NA,NA,NA,NA,NA,NA,NA,NA,NA,NA,NA,NA,NA,NA,NA,NA,NA,Fleisch,mshakiki,s,kizunguzungu,mshikamano,angusho,NA,0,NA
88c71,deep,flow.Sequence,1_5_0,NA,NA,completion,1900.296,37537.700000003,37528.12,37544.85,39445.146,39446.899999991,2023-07-12T19:51:40Z,39461.799,NA,NA,NA,NA,NA,NA,NA,NA,NA,NA,NA,NA,NA,NA,NA,NA,NA,NA,NA,Fleisch,mshakiki,s,kizunguzungu,mshikamano,angusho,NA,NA,NA
88c71,task,flow.Sequence,1_5,NA,NA,completion,1900.296,37537.599999994,37528.12,37544.85,39445.146,39447.099999994,2023-07-12T19:51:40Z,39461.799,NA,NA,NA,NA,NA,NA,NA,NA,NA,NA,NA,NA,NA,NA,NA,NA,NA,NA,NA,Fleisch,mshakiki,s,kizunguzungu,mshikamano,angusho,NA,NA,NA
88c71,Deep Question,html.Page,1_6_0_0,d,NA,form submission,970.10099999106,39447.5,39445.146,39461.799,40431.899999991,40432.299999997,2023-07-12T19:51:41Z,40444.903,NA,NA,NA,NA,NA,NA,NA,NA,NA,NA,NA,NA,NA,NA,NA,NA,NA,NA,NA,Papier,karatasi,s,uchambuzi,usalama,kukataliwa,NA,NA,NA
88c71,Save data screen,canvas.Screen,1_6_0_1,NA,NA,timeout,499.941,40433.299999997,40428.962,40444.903,40928.203,40929,2023-07-12T19:51:41Z,40944.844,NA,NA,NA,NA,NA,NA,NA,NA,NA,NA,NA,NA,NA,NA,NA,NA,NA,NA,NA,Papier,karatasi,s,uchambuzi,usalama,kukataliwa,NA,0,NA
88c71,deep,flow.Sequence,1_6_0,NA,NA,completion,1466.404,39447.399999991,39445.146,39461.799,40928.203,40929.299999997,2023-07-12T19:51:41Z,40944.844,NA,NA,NA,NA,NA,NA,NA,NA,NA,NA,NA,NA,NA,NA,NA,NA,NA,NA,NA,Papier,karatasi,s,uchambuzi,usalama,kukataliwa,NA,NA,NA
88c71,task,flow.Sequence,1_6,NA,NA,completion,1466.404,39447.399999991,39445.146,39461.799,40928.203,40929.299999997,2023-07-12T19:51:41Z,40944.844,NA,NA,NA,NA,NA,NA,NA,NA,NA,NA,NA,NA,NA,NA,NA,NA,NA,NA,NA,Papier,karatasi,s,uchambuzi,usalama,kukataliwa,NA,NA,NA
88c71,Deep Question,html.Page,1_7_0_0,d,NA,form submission,1144.856000003,40929.5,40928.203,40944.844,42089.700000003,42090.099999994,2023-07-12T19:51:43Z,42094.851,NA,NA,NA,NA,NA,NA,NA,NA,NA,NA,NA,NA,NA,NA,NA,NA,NA,NA,NA,Niveau,kiwango,s,usimamizi,mwamali,mshairi,NA,NA,NA
88c71,Save data screen,canvas.Screen,1_7_0_1,NA,NA,timeout,500.278,42091,42078.623,42094.851,42578.535,42579.399999991,2023-07-12T19:51:43Z,42595.129,NA,NA,NA,NA,NA,NA,NA,NA,NA,NA,NA,NA,NA,NA,NA,NA,NA,NA,NA,Niveau,kiwango,s,usimamizi,mwamali,mshairi,NA,0,NA
88c71,deep,flow.Sequence,1_7_0,NA,NA,completion,1633.691,40929.5,40928.203,40944.844,42578.535,42579.700000003,2023-07-12T19:51:43Z,42595.129,NA,NA,NA,NA,NA,NA,NA,NA,NA,NA,NA,NA,NA,NA,NA,NA,NA,NA,NA,Niveau,kiwango,s,usimamizi,mwamali,mshairi,NA,NA,NA
88c71,task,flow.Sequence,1_7,NA,NA,completion,1633.691,40929.5,40928.203,40944.844,42578.535,42579.899999991,2023-07-12T19:51:43Z,42595.129,NA,NA,NA,NA,NA,NA,NA,NA,NA,NA,NA,NA,NA,NA,NA,NA,NA,NA,NA,Niveau,kiwango,s,usimamizi,mwamali,mshairi,NA,NA,NA
88c71,Deep Question,html.Page,1_8_0_0,ka,NA,form submission,7698.7709999911,42580.099999994,42578.535,42595.129,50293.899999991,50294.5,2023-07-12T19:51:51Z,50294.997,NA,NA,NA,NA,NA,NA,NA,NA,NA,NA,NA,NA,NA,NA,NA,NA,NA,NA,NA,Flexibilität,kubadilika,d,enjini,usikilivu,hesabu,NA,NA,NA
88c71,Save data screen,canvas.Screen,1_8_0_1,NA,NA,timeout,500.356,50296.099999994,50278.438,50294.997,50778.507,50779.700000003,2023-07-12T19:51:51Z,50795.353,NA,NA,NA,NA,NA,NA,NA,NA,NA,NA,NA,NA,NA,NA,NA,NA,NA,NA,NA,Flexibilität,kubadilika,d,enjini,usikilivu,hesabu,NA,0,NA
88c71,deep,flow.Sequence,1_8_0,NA,NA,completion,8183.378,42580.099999994,42578.535,42595.129,50778.507,50780,2023-07-12T19:51:51Z,50795.353,NA,NA,NA,NA,NA,NA,NA,NA,NA,NA,NA,NA,NA,NA,NA,NA,NA,NA,NA,Flexibilität,kubadilika,d,enjini,usikilivu,hesabu,NA,NA,NA
88c71,task,flow.Sequence,1_8,NA,NA,completion,8183.378,42580,42578.535,42595.129,50778.507,50780.200000003,2023-07-12T19:51:51Z,50795.353,NA,NA,NA,NA,NA,NA,NA,NA,NA,NA,NA,NA,NA,NA,NA,NA,NA,NA,NA,Flexibilität,kubadilika,d,enjini,usikilivu,hesabu,NA,NA,NA
88c71,Deep Question,html.Page,1_9_0_0,davini,NA,form submission,4002.347000003,50780.299999997,50778.507,50795.353,54797.700000003,54798,2023-07-12T19:51:55Z,54811.684,NA,NA,NA,NA,NA,NA,NA,NA,NA,NA,NA,NA,NA,NA,NA,NA,NA,NA,NA,Respekt,heshima,s,changamnao,upinzani,ufanisi,NA,NA,NA
88c71,Save data screen,canvas.Screen,1_9_0_1,NA,NA,timeout,500.107,54798.899999991,54795.014,54811.684,55295.325,55296.299999997,2023-07-12T19:51:56Z,55311.791,NA,NA,NA,NA,NA,NA,NA,NA,NA,NA,NA,NA,NA,NA,NA,NA,NA,NA,NA,Respekt,heshima,s,changamnao,upinzani,ufanisi,NA,0,NA
88c71,deep,flow.Sequence,1_9_0,NA,NA,completion,4499.972,50780.299999997,50778.507,50795.353,55295.325,55296.5,2023-07-12T19:51:56Z,55311.791,NA,NA,NA,NA,NA,NA,NA,NA,NA,NA,NA,NA,NA,NA,NA,NA,NA,NA,NA,Respekt,heshima,s,changamnao,upinzani,ufanisi,NA,NA,NA
88c71,task,flow.Sequence,1_9,NA,NA,completion,4499.972,50780.200000003,50778.507,50795.353,55295.325,55296.599999994,2023-07-12T19:51:56Z,55311.791,NA,NA,NA,NA,NA,NA,NA,NA,NA,NA,NA,NA,NA,NA,NA,NA,NA,NA,NA,Respekt,heshima,s,changamnao,upinzani,ufanisi,NA,NA,NA
88c71,Deep Question,html.Page,1_10_0_0,d,NA,form submission,1307.409000003,55296.799999997,55295.325,55311.791,56619.200000003,56619.5,2023-07-12T19:51:57Z,56628.427,NA,NA,NA,NA,NA,NA,NA,NA,NA,NA,NA,NA,NA,NA,NA,NA,NA,NA,NA,Betrüger,mdanganyifu,d,mwanamuziki,wastani,mahakama,NA,NA,NA
88c71,Save data screen,canvas.Screen,1_10_0_1,NA,NA,timeout,500.214,56620.299999997,56612.131,56628.427,57111.967,57112.899999991,2023-07-12T19:51:58Z,57128.641,NA,NA,NA,NA,NA,NA,NA,NA,NA,NA,NA,NA,NA,NA,NA,NA,NA,NA,NA,Betrüger,mdanganyifu,d,mwanamuziki,wastani,mahakama,NA,0,NA
88c71,deep,flow.Sequence,1_10_0,NA,NA,completion,1800.176,55296.799999997,55295.325,55311.791,57111.967,57113.200000003,2023-07-12T19:51:58Z,57128.641,NA,NA,NA,NA,NA,NA,NA,NA,NA,NA,NA,NA,NA,NA,NA,NA,NA,NA,NA,Betrüger,mdanganyifu,d,mwanamuziki,wastani,mahakama,NA,NA,NA
88c71,task,flow.Sequence,1_10,NA,NA,completion,1800.176,55296.799999997,55295.325,55311.791,57111.967,57113.299999997,2023-07-12T19:51:58Z,57128.641,NA,NA,NA,NA,NA,NA,NA,NA,NA,NA,NA,NA,NA,NA,NA,NA,NA,NA,NA,Betrüger,mdanganyifu,d,mwanamuziki,wastani,mahakama,NA,NA,NA
88c71,Deep Question,html.Page,1_11_0_0,d,NA,form submission,4226.359,57113.599999994,57111.967,57128.641,61355,61355.5,2023-07-12T19:52:02Z,61361.81,NA,NA,NA,NA,NA,NA,NA,NA,NA,NA,NA,NA,NA,NA,NA,NA,NA,NA,NA,Begegnung,kukutana,d,mmasihiya,mpiganaji,husiano,NA,NA,NA
88c71,Save data screen,canvas.Screen,1_11_0_1,NA,NA,timeout,500.111,61356.5,61345.166,61361.81,61845.122,61854.5,2023-07-12T19:52:02Z,61861.921,NA,NA,NA,NA,NA,NA,NA,NA,NA,NA,NA,NA,NA,NA,NA,NA,NA,NA,NA,Begegnung,kukutana,d,mmasihiya,mpiganaji,husiano,NA,0,NA
88c71,deep,flow.Sequence,1_11_0,NA,NA,completion,4716.481,57113.599999994,57111.967,57128.641,61845.122,61854.899999991,2023-07-12T19:52:02Z,61861.921,NA,NA,NA,NA,NA,NA,NA,NA,NA,NA,NA,NA,NA,NA,NA,NA,NA,NA,NA,Begegnung,kukutana,d,mmasihiya,mpiganaji,husiano,NA,NA,NA
88c71,task,flow.Sequence,1_11,NA,NA,completion,4716.481,57113.5,57111.967,57128.641,61845.122,61855.200000003,2023-07-12T19:52:02Z,61861.921,NA,NA,NA,NA,NA,NA,NA,NA,NA,NA,NA,NA,NA,NA,NA,NA,NA,NA,NA,Begegnung,kukutana,d,mmasihiya,mpiganaji,husiano,NA,NA,NA
88c71,Deep Question,html.Page,1_12_0_0,d,NA,form submission,1083.678999994,61855.399999991,61845.122,61861.921,62945.599999994,62945.899999991,2023-07-12T19:52:03Z,62961.805,NA,NA,NA,NA,NA,NA,NA,NA,NA,NA,NA,NA,NA,NA,NA,NA,NA,NA,NA,Orientierung,urekebisho,s,uelekeo,marekebisho,utunzaji,NA,NA,NA
88c71,Save data screen,canvas.Screen,1_12_0_1,NA,NA,timeout,500.327,62946.899999991,62928.816,62961.805,63445.514,63446.299999997,2023-07-12T19:52:04Z,63462.132,NA,NA,NA,NA,NA,NA,NA,NA,NA,NA,NA,NA,NA,NA,NA,NA,NA,NA,NA,Orientierung,urekebisho,s,uelekeo,marekebisho,utunzaji,NA,0,NA
88c71,deep,flow.Sequence,1_12_0,NA,NA,completion,1583.593,61855.299999997,61845.122,61861.921,63445.514,63446.700000003,2023-07-12T19:52:04Z,63462.132,NA,NA,NA,NA,NA,NA,NA,NA,NA,NA,NA,NA,NA,NA,NA,NA,NA,NA,NA,Orientierung,urekebisho,s,uelekeo,marekebisho,utunzaji,NA,NA,NA
88c71,task,flow.Sequence,1_12,NA,NA,completion,1583.593,61855.299999997,61845.122,61861.921,63445.514,63446.799999997,2023-07-12T19:52:04Z,63462.132,NA,NA,NA,NA,NA,NA,NA,NA,NA,NA,NA,NA,NA,NA,NA,NA,NA,NA,NA,Orientierung,urekebisho,s,uelekeo,marekebisho,utunzaji,NA,NA,NA
88c71,Deep Question,html.Page,1_13_0_0,d,NA,form submission,6101.467999994,63447,63445.514,63462.132,69563.599999994,69563.899999991,2023-07-12T19:52:10Z,69578.618,NA,NA,NA,NA,NA,NA,NA,NA,NA,NA,NA,NA,NA,NA,NA,NA,NA,NA,NA,Vorwurf,mashtaka,d,msukumo,mtangulizi,uenyekiti,NA,NA,NA
88c71,Save data screen,canvas.Screen,1_13_0_1,NA,NA,timeout,500.03,69567.5,69561.923,69578.618,70061.932,70062.899999991,2023-07-12T19:52:11Z,70078.648,NA,NA,NA,NA,NA,NA,NA,NA,NA,NA,NA,NA,NA,NA,NA,NA,NA,NA,NA,Vorwurf,mashtaka,d,msukumo,mtangulizi,uenyekiti,NA,0,NA
88c71,deep,flow.Sequence,1_13_0,NA,NA,completion,6599.8,63447,63445.514,63462.132,70061.932,70063.299999997,2023-07-12T19:52:11Z,70078.648,NA,NA,NA,NA,NA,NA,NA,NA,NA,NA,NA,NA,NA,NA,NA,NA,NA,NA,NA,Vorwurf,mashtaka,d,msukumo,mtangulizi,uenyekiti,NA,NA,NA
88c71,task,flow.Sequence,1_13,NA,NA,completion,6599.8,63446.899999991,63445.514,63462.132,70061.932,70063.700000003,2023-07-12T19:52:11Z,70078.648,NA,NA,NA,NA,NA,NA,NA,NA,NA,NA,NA,NA,NA,NA,NA,NA,NA,NA,NA,Vorwurf,mashtaka,d,msukumo,mtangulizi,uenyekiti,NA,NA,NA
88c71,Deep Question,html.Page,1_14_0_0,d,NA,form submission,1347.7519999911,70063.899999991,70061.932,70078.648,71426.399999991,71426.899999991,2023-07-12T19:52:12Z,71428.669,NA,NA,NA,NA,NA,NA,NA,NA,NA,NA,NA,NA,NA,NA,NA,NA,NA,NA,NA,Atmosphäre,angahewa,d,kuteseka,usahihi,kutoamini,NA,NA,NA
88c71,Save data screen,canvas.Screen,1_14_0_1,NA,NA,timeout,499.97200000001,71428.5,71412.041,71428.669,71911.954,71914.899999991,2023-07-12T19:52:12Z,71928.641,NA,NA,NA,NA,NA,NA,NA,NA,NA,NA,NA,NA,NA,NA,NA,NA,NA,NA,NA,Atmosphäre,angahewa,d,kuteseka,usahihi,kutoamini,NA,0,NA
88c71,deep,flow.Sequence,1_14_0,NA,NA,completion,1833.306,70063.899999991,70061.932,70078.648,71911.954,71915.399999991,2023-07-12T19:52:12Z,71928.641,NA,NA,NA,NA,NA,NA,NA,NA,NA,NA,NA,NA,NA,NA,NA,NA,NA,NA,NA,Atmosphäre,angahewa,d,kuteseka,usahihi,kutoamini,NA,NA,NA
88c71,task,flow.Sequence,1_14,NA,NA,completion,1833.306,70063.799999997,70061.932,70078.648,71911.954,71915.799999997,2023-07-12T19:52:12Z,71928.641,NA,NA,NA,NA,NA,NA,NA,NA,NA,NA,NA,NA,NA,NA,NA,NA,NA,NA,NA,Atmosphäre,angahewa,d,kuteseka,usahihi,kutoamini,NA,NA,NA
88c71,Deep Question,html.Page,1_15_0_0,d,NA,form submission,2530.458999994,71916.299999997,71911.954,71928.641,74459.099999994,74459.599999994,2023-07-12T19:52:15Z,74478.647,NA,NA,NA,NA,NA,NA,NA,NA,NA,NA,NA,NA,NA,NA,NA,NA,NA,NA,NA,Entwicklung,maendeleo,d,uangavu,mshindwa,badiliko,NA,NA,NA
88c71,Save data screen,canvas.Screen,1_15_0_1,NA,NA,timeout,500.34600000001,74461.700000003,74462.097,74478.647,74962.439,74963.5,2023-07-12T19:52:15Z,74978.993,NA,NA,NA,NA,NA,NA,NA,NA,NA,NA,NA,NA,NA,NA,NA,NA,NA,NA,NA,Entwicklung,maendeleo,d,uangavu,mshindwa,badiliko,NA,0,NA
88c71,deep,flow.Sequence,1_15_0,NA,NA,completion,3033.798,71916.200000003,71911.954,71928.641,74962.439,74964,2023-07-12T19:52:15Z,74978.993,NA,NA,NA,NA,NA,NA,NA,NA,NA,NA,NA,NA,NA,NA,NA,NA,NA,NA,NA,Entwicklung,maendeleo,d,uangavu,mshindwa,badiliko,NA,NA,NA
88c71,task,flow.Sequence,1_15,NA,NA,completion,3033.798,71916.200000003,71911.954,71928.641,74962.439,74964.200000003,2023-07-12T19:52:15Z,74978.993,NA,NA,NA,NA,NA,NA,NA,NA,NA,NA,NA,NA,NA,NA,NA,NA,NA,NA,NA,Entwicklung,maendeleo,d,uangavu,mshindwa,badiliko,NA,NA,NA
88c71,retrieval block 1 (cued recall),flow.Loop,1,NA,NA,completion,69618.106,5343.599999994,5327.663,5344.333,74962.439,74964.399999991,2023-07-12T19:52:15Z,74978.993,NA,NA,NA,NA,NA,NA,NA,NA,NA,NA,NA,NA,NA,NA,NA,NA,NA,NA,NA,NA,NA,NA,NA,NA,NA,NA,NA,NA
88c71,Shallow Question,html.Page,2_0_0_0,hesabu,NA,form submission,8323.507,74964.799999997,74962.439,74978.993,83302.5,83302.799999997,2023-07-12T19:52:24Z,83312.096,NA,NA,NA,NA,NA,NA,NA,NA,NA,NA,NA,NA,NA,NA,NA,NA,NA,NA,NA,Flexibilität,kubadilika,d,enjini,usikilivu,hesabu,NA,NA,"c(""distractor1"", ""distractor2"", ""distractor3"")"
88c71,Save data screen,canvas.Screen,2_0_0_1,NA,NA,timeout,500.37999999999,83306.700000003,83295.775,83312.096,83795.536,83796.599999994,2023-07-12T19:52:24Z,83812.476,NA,NA,NA,NA,NA,NA,NA,NA,NA,NA,NA,NA,NA,NA,NA,NA,NA,NA,NA,Flexibilität,kubadilika,d,enjini,usikilivu,hesabu,NA,0,"c(""distractor1"", ""distractor2"", ""distractor3"")"
88c71,shallow,flow.Sequence,2_0_0,NA,NA,completion,8816.543,74964.799999997,74962.439,74978.993,83795.536,83796.899999991,2023-07-12T19:52:24Z,83812.476,NA,NA,NA,NA,NA,NA,NA,NA,NA,NA,NA,NA,NA,NA,NA,NA,NA,NA,NA,Flexibilität,kubadilika,d,enjini,usikilivu,hesabu,NA,NA,"c(""distractor1"", ""distractor2"", ""distractor3"")"
88c71,task,flow.Sequence,2_0,NA,NA,completion,8816.543,74964.700000003,74962.439,74978.993,83795.536,83797,2023-07-12T19:52:24Z,83812.476,NA,NA,NA,NA,NA,NA,NA,NA,NA,NA,NA,NA,NA,NA,NA,NA,NA,NA,NA,Flexibilität,kubadilika,d,enjini,usikilivu,hesabu,NA,NA,"c(""distractor1"", ""distractor2"", ""distractor3"")"
88c71,Shallow Question,html.Page,2_1_0_0,idhini,NA,form submission,8610.123999994,83797.099999994,83795.536,83812.476,92422.599999994,92423,2023-07-12T19:52:33Z,92428.947,NA,NA,NA,NA,NA,NA,NA,NA,NA,NA,NA,NA,NA,NA,NA,NA,NA,NA,NA,Genehmigung,idhini,d,mwanamke,itikadi,fedheha,NA,NA,"c(""distractor1"", ""distractor2"", ""distractor3"")"
88c71,Save data screen,canvas.Screen,2_1_0_1,NA,NA,timeout,499.963,92426.399999991,92412.856,92428.947,92912.939,92913.799999997,2023-07-12T19:52:33Z,92928.91,NA,NA,NA,NA,NA,NA,NA,NA,NA,NA,NA,NA,NA,NA,NA,NA,NA,NA,NA,Genehmigung,idhini,d,mwanamke,itikadi,fedheha,NA,1,"c(""distractor1"", ""distractor2"", ""distractor3"")"
88c71,shallow,flow.Sequence,2_1_0,NA,NA,completion,9100.463,83797.099999994,83795.536,83812.476,92912.939,92914.099999994,2023-07-12T19:52:33Z,92928.91,NA,NA,NA,NA,NA,NA,NA,NA,NA,NA,NA,NA,NA,NA,NA,NA,NA,NA,NA,Genehmigung,idhini,d,mwanamke,itikadi,fedheha,NA,NA,"c(""distractor1"", ""distractor2"", ""distractor3"")"
88c71,task,flow.Sequence,2_1,NA,NA,completion,9100.463,83797.099999994,83795.536,83812.476,92912.939,92914.299999997,2023-07-12T19:52:33Z,92928.91,NA,NA,NA,NA,NA,NA,NA,NA,NA,NA,NA,NA,NA,NA,NA,NA,NA,NA,NA,Genehmigung,idhini,d,mwanamke,itikadi,fedheha,NA,NA,"c(""distractor1"", ""distractor2"", ""distractor3"")"
88c71,Shallow Question,html.Page,2_2_0_0,kukutana,NA,form submission,9234.59,92914.399999991,92912.939,92928.91,102163.5,102163.8,2023-07-12T19:52:43Z,102195.727,NA,NA,NA,NA,NA,NA,NA,NA,NA,NA,NA,NA,NA,NA,NA,NA,NA,NA,NA,Begegnung,kukutana,d,mmasihiya,mpiganaji,husiano,NA,NA,"c(""distractor1"", ""distractor2"", ""distractor3"")"
88c71,Save data screen,canvas.Screen,2_2_0_1,NA,NA,timeout,499.992,102165.3,102179.091,102195.727,102679.591,102680.59999999,2023-07-12T19:52:43Z,102695.719,NA,NA,NA,NA,NA,NA,NA,NA,NA,NA,NA,NA,NA,NA,NA,NA,NA,NA,NA,Begegnung,kukutana,d,mmasihiya,mpiganaji,husiano,NA,1,"c(""distractor1"", ""distractor2"", ""distractor3"")"
88c71,shallow,flow.Sequence,2_2_0,NA,NA,completion,9750.681,92914.399999991,92912.939,92928.91,102679.591,102680.89999999,2023-07-12T19:52:43Z,102695.719,NA,NA,NA,NA,NA,NA,NA,NA,NA,NA,NA,NA,NA,NA,NA,NA,NA,NA,NA,Begegnung,kukutana,d,mmasihiya,mpiganaji,husiano,NA,NA,"c(""distractor1"", ""distractor2"", ""distractor3"")"
88c71,task,flow.Sequence,2_2,NA,NA,completion,9750.681,92914.399999991,92912.939,92928.91,102679.591,102681,2023-07-12T19:52:43Z,102695.719,NA,NA,NA,NA,NA,NA,NA,NA,NA,NA,NA,NA,NA,NA,NA,NA,NA,NA,NA,Begegnung,kukutana,d,mmasihiya,mpiganaji,husiano,NA,NA,"c(""distractor1"", ""distractor2"", ""distractor3"")"
88c71,Shallow Question,html.Page,2_3_0_0,mahakama,NA,form submission,9133.880999994,102681.3,102679.591,102695.719,111829.59999999,111829.89999999,2023-07-12T19:52:52Z,111853.027,NA,NA,NA,NA,NA,NA,NA,NA,NA,NA,NA,NA,NA,NA,NA,NA,NA,NA,NA,Betrüger,mdanganyifu,d,mwanamuziki,wastani,mahakama,NA,NA,"c(""distractor1"", ""distractor2"", ""distractor3"")"
88c71,Save data screen,canvas.Screen,2_3_0_1,NA,NA,timeout,493.20999999999,111833.2,111813.142,111853.027,112329.547,112330.39999999,2023-07-12T19:52:53Z,112346.237,NA,NA,NA,NA,NA,NA,NA,NA,NA,NA,NA,NA,NA,NA,NA,NA,NA,NA,NA,Betrüger,mdanganyifu,d,mwanamuziki,wastani,mahakama,NA,0,"c(""distractor1"", ""distractor2"", ""distractor3"")"
88c71,shallow,flow.Sequence,2_3_0,NA,NA,completion,9633.828,102681.2,102679.591,102695.719,112329.547,112330.7,2023-07-12T19:52:53Z,112346.237,NA,NA,NA,NA,NA,NA,NA,NA,NA,NA,NA,NA,NA,NA,NA,NA,NA,NA,NA,Betrüger,mdanganyifu,d,mwanamuziki,wastani,mahakama,NA,NA,"c(""distractor1"", ""distractor2"", ""distractor3"")"
88c71,task,flow.Sequence,2_3,NA,NA,completion,9633.828,102681.2,102679.591,102695.719,112329.547,112330.8,2023-07-12T19:52:53Z,112346.237,NA,NA,NA,NA,NA,NA,NA,NA,NA,NA,NA,NA,NA,NA,NA,NA,NA,NA,NA,Betrüger,mdanganyifu,d,mwanamuziki,wastani,mahakama,NA,NA,"c(""distractor1"", ""distractor2"", ""distractor3"")"
88c71,Shallow Question,html.Page,2_4_0_0,uadilifu,NA,form submission,5813.263,112331,112329.547,112346.237,118159.5,118159.8,2023-07-12T19:52:59Z,118162.603,NA,NA,NA,NA,NA,NA,NA,NA,NA,NA,NA,NA,NA,NA,NA,NA,NA,NA,NA,Integrität,uadilifu,s,muungano,mtiririko,upunguaji,NA,NA,"c(""distractor1"", ""distractor2"", ""distractor3"")"
88c71,Save data screen,canvas.Screen,2_4_0_1,NA,NA,timeout,500.069,118164,118146.225,118162.603,118646.015,118646.89999999,2023-07-12T19:52:59Z,118662.672,NA,NA,NA,NA,NA,NA,NA,NA,NA,NA,NA,NA,NA,NA,NA,NA,NA,NA,NA,Integrität,uadilifu,s,muungano,mtiririko,upunguaji,NA,1,"c(""distractor1"", ""distractor2"", ""distractor3"")"
88c71,shallow,flow.Sequence,2_4_0,NA,NA,completion,6299.778,112331,112329.547,112346.237,118646.015,118647.09999999,2023-07-12T19:52:59Z,118662.672,NA,NA,NA,NA,NA,NA,NA,NA,NA,NA,NA,NA,NA,NA,NA,NA,NA,NA,NA,Integrität,uadilifu,s,muungano,mtiririko,upunguaji,NA,NA,"c(""distractor1"", ""distractor2"", ""distractor3"")"
88c71,task,flow.Sequence,2_4,NA,NA,completion,6299.778,112331,112329.547,112346.237,118646.015,118647.3,2023-07-12T19:52:59Z,118662.672,NA,NA,NA,NA,NA,NA,NA,NA,NA,NA,NA,NA,NA,NA,NA,NA,NA,NA,NA,Integrität,uadilifu,s,muungano,mtiririko,upunguaji,NA,NA,"c(""distractor1"", ""distractor2"", ""distractor3"")"
88c71,Shallow Question,html.Page,2_5_0_0,mashtaka,NA,form submission,4612.028000003,118647.39999999,118646.015,118662.672,123274.7,123275.09999999,2023-07-12T19:53:04Z,123279.343,NA,NA,NA,NA,NA,NA,NA,NA,NA,NA,NA,NA,NA,NA,NA,NA,NA,NA,NA,Vorwurf,mashtaka,d,msukumo,mtangulizi,uenyekiti,NA,NA,"c(""distractor1"", ""distractor2"", ""distractor3"")"
88c71,Save data screen,canvas.Screen,2_5_0_1,NA,NA,timeout,500.30200000001,123278.5,123263.299,123279.343,123762.9,123763.8,2023-07-12T19:53:04Z,123779.645,NA,NA,NA,NA,NA,NA,NA,NA,NA,NA,NA,NA,NA,NA,NA,NA,NA,NA,NA,Vorwurf,mashtaka,d,msukumo,mtangulizi,uenyekiti,NA,1,"c(""distractor1"", ""distractor2"", ""distractor3"")"
88c71,shallow,flow.Sequence,2_5_0,NA,NA,completion,5100.228,118647.3,118646.015,118662.672,123762.9,123764.09999999,2023-07-12T19:53:04Z,123779.645,NA,NA,NA,NA,NA,NA,NA,NA,NA,NA,NA,NA,NA,NA,NA,NA,NA,NA,NA,Vorwurf,mashtaka,d,msukumo,mtangulizi,uenyekiti,NA,NA,"c(""distractor1"", ""distractor2"", ""distractor3"")"
88c71,task,flow.Sequence,2_5,NA,NA,completion,5100.228,118647.3,118646.015,118662.672,123762.9,123764.3,2023-07-12T19:53:04Z,123779.645,NA,NA,NA,NA,NA,NA,NA,NA,NA,NA,NA,NA,NA,NA,NA,NA,NA,NA,NA,Vorwurf,mashtaka,d,msukumo,mtangulizi,uenyekiti,NA,NA,"c(""distractor1"", ""distractor2"", ""distractor3"")"
88c71,Shallow Question,html.Page,2_6_0_0,mshindwa,NA,form submission,7359.454999994,123764.5,123762.9,123779.645,131139.09999999,131139.5,2023-07-12T19:53:12Z,131146.106,NA,NA,NA,NA,NA,NA,NA,NA,NA,NA,NA,NA,NA,NA,NA,NA,NA,NA,NA,Entwicklung,maendeleo,d,uangavu,mshindwa,badiliko,NA,NA,"c(""distractor1"", ""distractor2"", ""distractor3"")"
88c71,Save data screen,canvas.Screen,2_6_0_1,NA,NA,timeout,500.658,131143.09999999,131130.178,131146.106,131630.097,131631,2023-07-12T19:53:12Z,131646.764,NA,NA,NA,NA,NA,NA,NA,NA,NA,NA,NA,NA,NA,NA,NA,NA,NA,NA,NA,Entwicklung,maendeleo,d,uangavu,mshindwa,badiliko,NA,0,"c(""distractor1"", ""distractor2"", ""distractor3"")"
88c71,shallow,flow.Sequence,2_6_0,NA,NA,completion,7850.452,123764.39999999,123762.9,123779.645,131630.097,131631.59999999,2023-07-12T19:53:12Z,131646.764,NA,NA,NA,NA,NA,NA,NA,NA,NA,NA,NA,NA,NA,NA,NA,NA,NA,NA,NA,Entwicklung,maendeleo,d,uangavu,mshindwa,badiliko,NA,NA,"c(""distractor1"", ""distractor2"", ""distractor3"")"
88c71,task,flow.Sequence,2_6,NA,NA,completion,7850.452,123764.39999999,123762.9,123779.645,131630.097,131631.89999999,2023-07-12T19:53:12Z,131646.764,NA,NA,NA,NA,NA,NA,NA,NA,NA,NA,NA,NA,NA,NA,NA,NA,NA,NA,NA,Entwicklung,maendeleo,d,uangavu,mshindwa,badiliko,NA,NA,"c(""distractor1"", ""distractor2"", ""distractor3"")"
88c71,Shallow Question,html.Page,2_7_0_0,heshima,NA,form submission,2967.835999994,131632.09999999,131630.097,131646.764,134614.59999999,134615,2023-07-12T19:53:15Z,134630.141,NA,NA,NA,NA,NA,NA,NA,NA,NA,NA,NA,NA,NA,NA,NA,NA,NA,NA,NA,Respekt,heshima,s,changamnao,upinzani,ufanisi,NA,NA,"c(""distractor1"", ""distractor2"", ""distractor3"")"
88c71,Save data screen,canvas.Screen,2_7_0_1,NA,NA,timeout,500.022,134615.89999999,134612.849,134630.141,135113.516,135114.39999999,2023-07-12T19:53:16Z,135130.163,NA,NA,NA,NA,NA,NA,NA,NA,NA,NA,NA,NA,NA,NA,NA,NA,NA,NA,NA,Respekt,heshima,s,changamnao,upinzani,ufanisi,NA,1,"c(""distractor1"", ""distractor2"", ""distractor3"")"
88c71,shallow,flow.Sequence,2_7_0,NA,NA,completion,3466.752,131632,131630.097,131646.764,135113.516,135114.7,2023-07-12T19:53:16Z,135130.163,NA,NA,NA,NA,NA,NA,NA,NA,NA,NA,NA,NA,NA,NA,NA,NA,NA,NA,NA,Respekt,heshima,s,changamnao,upinzani,ufanisi,NA,NA,"c(""distractor1"", ""distractor2"", ""distractor3"")"
88c71,task,flow.Sequence,2_7,NA,NA,completion,3466.752,131632,131630.097,131646.764,135113.516,135114.8,2023-07-12T19:53:16Z,135130.163,NA,NA,NA,NA,NA,NA,NA,NA,NA,NA,NA,NA,NA,NA,NA,NA,NA,NA,NA,Respekt,heshima,s,changamnao,upinzani,ufanisi,NA,NA,"c(""distractor1"", ""distractor2"", ""distractor3"")"
88c71,Shallow Question,html.Page,2_8_0_0,uchambuzi,NA,form submission,4181.936999994,135115.09999999,135113.516,135130.163,139312.09999999,139312.59999999,2023-07-12T19:53:20Z,139312.927,NA,NA,NA,NA,NA,NA,NA,NA,NA,NA,NA,NA,NA,NA,NA,NA,NA,NA,NA,Papier,karatasi,s,uchambuzi,usalama,kukataliwa,NA,NA,"c(""distractor1"", ""distractor2"", ""distractor3"")"
88c71,Save data screen,canvas.Screen,2_8_0_1,NA,NA,timeout,500.639,139316.09999999,139296.55,139312.927,139796.883,139797.7,2023-07-12T19:53:20Z,139813.566,NA,NA,NA,NA,NA,NA,NA,NA,NA,NA,NA,NA,NA,NA,NA,NA,NA,NA,NA,Papier,karatasi,s,uchambuzi,usalama,kukataliwa,NA,0,"c(""distractor1"", ""distractor2"", ""distractor3"")"
88c71,shallow,flow.Sequence,2_8_0,NA,NA,completion,4666.72,135115,135113.516,135130.163,139796.883,139798,2023-07-12T19:53:20Z,139813.566,NA,NA,NA,NA,NA,NA,NA,NA,NA,NA,NA,NA,NA,NA,NA,NA,NA,NA,NA,Papier,karatasi,s,uchambuzi,usalama,kukataliwa,NA,NA,"c(""distractor1"", ""distractor2"", ""distractor3"")"
88c71,task,flow.Sequence,2_8,NA,NA,completion,4666.72,135115,135113.516,135130.163,139796.883,139798.09999999,2023-07-12T19:53:20Z,139813.566,NA,NA,NA,NA,NA,NA,NA,NA,NA,NA,NA,NA,NA,NA,NA,NA,NA,NA,NA,Papier,karatasi,s,uchambuzi,usalama,kukataliwa,NA,NA,"c(""distractor1"", ""distractor2"", ""distractor3"")"
88c71,Shallow Question,html.Page,2_9_0_0,ukarabati,NA,form submission,12459.934,139798.3,139796.883,139813.566,152273.5,152273.89999999,2023-07-12T19:53:33Z,152279.789,NA,NA,NA,NA,NA,NA,NA,NA,NA,NA,NA,NA,NA,NA,NA,NA,NA,NA,NA,Erneuerung,ukarabati,s,ushawishi,ukalifu,unyonyaji,NA,NA,"c(""distractor1"", ""distractor2"", ""distractor3"")"
88c71,Save data screen,canvas.Screen,2_9_0_1,NA,NA,timeout,500.61900000001,152277,152263.443,152279.789,152763.73,152764.59999999,2023-07-12T19:53:33Z,152780.408,NA,NA,NA,NA,NA,NA,NA,NA,NA,NA,NA,NA,NA,NA,NA,NA,NA,NA,NA,Erneuerung,ukarabati,s,ushawishi,ukalifu,unyonyaji,NA,1,"c(""distractor1"", ""distractor2"", ""distractor3"")"
88c71,shallow,flow.Sequence,2_9_0,NA,NA,completion,12950.164,139798.3,139796.883,139813.566,152763.73,152764.89999999,2023-07-12T19:53:33Z,152780.408,NA,NA,NA,NA,NA,NA,NA,NA,NA,NA,NA,NA,NA,NA,NA,NA,NA,NA,NA,Erneuerung,ukarabati,s,ushawishi,ukalifu,unyonyaji,NA,NA,"c(""distractor1"", ""distractor2"", ""distractor3"")"
88c71,task,flow.Sequence,2_9,NA,NA,completion,12950.164,139798.3,139796.883,139813.566,152763.73,152765,2023-07-12T19:53:33Z,152780.408,NA,NA,NA,NA,NA,NA,NA,NA,NA,NA,NA,NA,NA,NA,NA,NA,NA,NA,NA,Erneuerung,ukarabati,s,ushawishi,ukalifu,unyonyaji,NA,NA,"c(""distractor1"", ""distractor2"", ""distractor3"")"
88c71,Shallow Question,html.Page,2_10_0_0,kinyongo,NA,form submission,3320.391999997,152765.2,152763.73,152780.408,156100.8,156101.3,2023-07-12T19:53:37Z,156113.773,NA,NA,NA,NA,NA,NA,NA,NA,NA,NA,NA,NA,NA,NA,NA,NA,NA,NA,NA,Stimmung,kinyongo,d,kilekile,kisambo,madhehebu,NA,NA,"c(""distractor1"", ""distractor2"", ""distractor3"")"
88c71,Save data screen,canvas.Screen,2_10_0_1,NA,NA,timeout,500.04200000002,156102.09999999,156097.088,156113.773,156596.548,156597.39999999,2023-07-12T19:53:37Z,156613.815,NA,NA,NA,NA,NA,NA,NA,NA,NA,NA,NA,NA,NA,NA,NA,NA,NA,NA,NA,Stimmung,kinyongo,d,kilekile,kisambo,madhehebu,NA,1,"c(""distractor1"", ""distractor2"", ""distractor3"")"
88c71,shallow,flow.Sequence,2_10_0,NA,NA,completion,3816.14,152765.2,152763.73,152780.408,156596.548,156597.59999999,2023-07-12T19:53:37Z,156613.815,NA,NA,NA,NA,NA,NA,NA,NA,NA,NA,NA,NA,NA,NA,NA,NA,NA,NA,NA,Stimmung,kinyongo,d,kilekile,kisambo,madhehebu,NA,NA,"c(""distractor1"", ""distractor2"", ""distractor3"")"
88c71,task,flow.Sequence,2_10,NA,NA,completion,3816.14,152765.09999999,152763.73,152780.408,156596.548,156597.89999999,2023-07-12T19:53:37Z,156613.815,NA,NA,NA,NA,NA,NA,NA,NA,NA,NA,NA,NA,NA,NA,NA,NA,NA,NA,NA,Stimmung,kinyongo,d,kilekile,kisambo,madhehebu,NA,NA,"c(""distractor1"", ""distractor2"", ""distractor3"")"
88c71,Shallow Question,html.Page,2_11_0_0,ugeuzaji,NA,form submission,3829.5849999911,156598,156596.548,156613.815,160443.39999999,160443.89999999,2023-07-12T19:53:41Z,160446.577,NA,NA,NA,NA,NA,NA,NA,NA,NA,NA,NA,NA,NA,NA,NA,NA,NA,NA,NA,Wechsel,ugeuzaji,s,utambulisho,kujenga,wasiwasi,NA,NA,"c(""distractor1"", ""distractor2"", ""distractor3"")"
88c71,Save data screen,canvas.Screen,2_11_0_1,NA,NA,timeout,500.02500000002,160447.3,160430.476,160446.577,160930.155,160931.09999999,2023-07-12T19:53:41Z,160946.602,NA,NA,NA,NA,NA,NA,NA,NA,NA,NA,NA,NA,NA,NA,NA,NA,NA,NA,NA,Wechsel,ugeuzaji,s,utambulisho,kujenga,wasiwasi,NA,1,"c(""distractor1"", ""distractor2"", ""distractor3"")"
88c71,shallow,flow.Sequence,2_11_0,NA,NA,completion,4316.34,156598,156596.548,156613.815,160930.155,160931.39999999,2023-07-12T19:53:41Z,160946.602,NA,NA,NA,NA,NA,NA,NA,NA,NA,NA,NA,NA,NA,NA,NA,NA,NA,NA,NA,Wechsel,ugeuzaji,s,utambulisho,kujenga,wasiwasi,NA,NA,"c(""distractor1"", ""distractor2"", ""distractor3"")"
88c71,task,flow.Sequence,2_11,NA,NA,completion,4316.34,156597.89999999,156596.548,156613.815,160930.155,160931.59999999,2023-07-12T19:53:41Z,160946.602,NA,NA,NA,NA,NA,NA,NA,NA,NA,NA,NA,NA,NA,NA,NA,NA,NA,NA,NA,Wechsel,ugeuzaji,s,utambulisho,kujenga,wasiwasi,NA,NA,"c(""distractor1"", ""distractor2"", ""distractor3"")"
88c71,Shallow Question,html.Page,2_12_0_0,mshakiki,NA,form submission,3360.997999994,160931.8,160930.155,160946.602,164307.59999999,164308,2023-07-12T19:53:45Z,164313.223,NA,NA,NA,NA,NA,NA,NA,NA,NA,NA,NA,NA,NA,NA,NA,NA,NA,NA,NA,Fleisch,mshakiki,s,kizunguzungu,mshikamano,angusho,NA,NA,"c(""distractor1"", ""distractor2"", ""distractor3"")"
88c71,Save data screen,canvas.Screen,2_12_0_1,NA,NA,timeout,500.66500000001,164311.3,164297.183,164313.223,164796.594,164797.3,2023-07-12T19:53:45Z,164813.888,NA,NA,NA,NA,NA,NA,NA,NA,NA,NA,NA,NA,NA,NA,NA,NA,NA,NA,NA,Fleisch,mshakiki,s,kizunguzungu,mshikamano,angusho,NA,1,"c(""distractor1"", ""distractor2"", ""distractor3"")"
88c71,shallow,flow.Sequence,2_12_0,NA,NA,completion,3849.992,160931.8,160930.155,160946.602,164796.594,164797.5,2023-07-12T19:53:45Z,164813.888,NA,NA,NA,NA,NA,NA,NA,NA,NA,NA,NA,NA,NA,NA,NA,NA,NA,NA,NA,Fleisch,mshakiki,s,kizunguzungu,mshikamano,angusho,NA,NA,"c(""distractor1"", ""distractor2"", ""distractor3"")"
88c71,task,flow.Sequence,2_12,NA,NA,completion,3849.992,160931.7,160930.155,160946.602,164796.594,164797.7,2023-07-12T19:53:45Z,164813.888,NA,NA,NA,NA,NA,NA,NA,NA,NA,NA,NA,NA,NA,NA,NA,NA,NA,NA,NA,Fleisch,mshakiki,s,kizunguzungu,mshikamano,angusho,NA,NA,"c(""distractor1"", ""distractor2"", ""distractor3"")"
88c71,Shallow Question,html.Page,2_13_0_0,usahihi,NA,form submission,5274.411999997,164797.7,164796.594,164813.888,170088.3,170088.7,2023-07-12T19:53:51Z,170096.644,NA,NA,NA,NA,NA,NA,NA,NA,NA,NA,NA,NA,NA,NA,NA,NA,NA,NA,NA,Atmosphäre,angahewa,d,kuteseka,usahihi,kutoamini,NA,NA,"c(""distractor1"", ""distractor2"", ""distractor3"")"
88c71,Save data screen,canvas.Screen,2_13_0_1,NA,NA,timeout,500.625,170091.89999999,170080.578,170096.644,170580.299,170581.09999999,2023-07-12T19:53:51Z,170597.269,NA,NA,NA,NA,NA,NA,NA,NA,NA,NA,NA,NA,NA,NA,NA,NA,NA,NA,NA,Atmosphäre,angahewa,d,kuteseka,usahihi,kutoamini,NA,0,"c(""distractor1"", ""distractor2"", ""distractor3"")"
88c71,shallow,flow.Sequence,2_13_0,NA,NA,completion,5766.411,164797.7,164796.594,164813.888,170580.299,170581.39999999,2023-07-12T19:53:51Z,170597.269,NA,NA,NA,NA,NA,NA,NA,NA,NA,NA,NA,NA,NA,NA,NA,NA,NA,NA,NA,Atmosphäre,angahewa,d,kuteseka,usahihi,kutoamini,NA,NA,"c(""distractor1"", ""distractor2"", ""distractor3"")"
88c71,task,flow.Sequence,2_13,NA,NA,completion,5766.411,164797.7,164796.594,164813.888,170580.299,170581.5,2023-07-12T19:53:51Z,170597.269,NA,NA,NA,NA,NA,NA,NA,NA,NA,NA,NA,NA,NA,NA,NA,NA,NA,NA,NA,Atmosphäre,angahewa,d,kuteseka,usahihi,kutoamini,NA,NA,"c(""distractor1"", ""distractor2"", ""distractor3"")"
88c71,Shallow Question,html.Page,2_14_0_0,urekebisho,NA,form submission,4176.731,170581.7,170580.299,170597.269,174774,174774.39999999,2023-07-12T19:53:55Z,174780.104,NA,NA,NA,NA,NA,NA,NA,NA,NA,NA,NA,NA,NA,NA,NA,NA,NA,NA,NA,Orientierung,urekebisho,s,uelekeo,marekebisho,utunzaji,NA,NA,"c(""distractor1"", ""distractor2"", ""distractor3"")"
88c71,Save data screen,canvas.Screen,2_14_0_1,NA,NA,timeout,500.62700000001,174777.7,174763.803,174780.104,175264.049,175265,2023-07-12T19:53:56Z,175280.731,NA,NA,NA,NA,NA,NA,NA,NA,NA,NA,NA,NA,NA,NA,NA,NA,NA,NA,NA,Orientierung,urekebisho,s,uelekeo,marekebisho,utunzaji,NA,1,"c(""distractor1"", ""distractor2"", ""distractor3"")"
88c71,shallow,flow.Sequence,2_14_0,NA,NA,completion,4666.78,170581.7,170580.299,170597.269,175264.049,175265.3,2023-07-12T19:53:56Z,175280.731,NA,NA,NA,NA,NA,NA,NA,NA,NA,NA,NA,NA,NA,NA,NA,NA,NA,NA,NA,Orientierung,urekebisho,s,uelekeo,marekebisho,utunzaji,NA,NA,"c(""distractor1"", ""distractor2"", ""distractor3"")"
88c71,task,flow.Sequence,2_14,NA,NA,completion,4666.78,170581.59999999,170580.299,170597.269,175264.049,175265.5,2023-07-12T19:53:56Z,175280.731,NA,NA,NA,NA,NA,NA,NA,NA,NA,NA,NA,NA,NA,NA,NA,NA,NA,NA,NA,Orientierung,urekebisho,s,uelekeo,marekebisho,utunzaji,NA,NA,"c(""distractor1"", ""distractor2"", ""distractor3"")"
88c71,Shallow Question,html.Page,2_15_0_0,kiwango,NA,form submission,2529.6689999911,175265.7,175264.049,175280.731,177810.39999999,177810.8,2023-07-12T19:53:58Z,177813.438,NA,NA,NA,NA,NA,NA,NA,NA,NA,NA,NA,NA,NA,NA,NA,NA,NA,NA,NA,Niveau,kiwango,s,usimamizi,mwamali,mshairi,NA,NA,"c(""distractor1"", ""distractor2"", ""distractor3"")"
88c71,Save data screen,canvas.Screen,2_15_0_1,NA,NA,timeout,500.068,177811.59999999,177797.454,177813.438,178296.923,178306.2,2023-07-12T19:53:59Z,178313.506,NA,NA,NA,NA,NA,NA,NA,NA,NA,NA,NA,NA,NA,NA,NA,NA,NA,NA,NA,Niveau,kiwango,s,usimamizi,mwamali,mshairi,NA,1,"c(""distractor1"", ""distractor2"", ""distractor3"")"
88c71,shallow,flow.Sequence,2_15_0,NA,NA,completion,3016.192,175265.59999999,175264.049,175280.731,178296.923,178306.5,2023-07-12T19:53:59Z,178313.506,NA,NA,NA,NA,NA,NA,NA,NA,NA,NA,NA,NA,NA,NA,NA,NA,NA,NA,NA,Niveau,kiwango,s,usimamizi,mwamali,mshairi,NA,NA,"c(""distractor1"", ""distractor2"", ""distractor3"")"
88c71,task,flow.Sequence,2_15,NA,NA,completion,3016.192,175265.5,175264.049,175280.731,178296.923,178306.8,2023-07-12T19:53:59Z,178313.506,NA,NA,NA,NA,NA,NA,NA,NA,NA,NA,NA,NA,NA,NA,NA,NA,NA,NA,NA,Niveau,kiwango,s,usimamizi,mwamali,mshairi,NA,NA,"c(""distractor1"", ""distractor2"", ""distractor3"")"
88c71,retrieval block 2 (multiple choice),flow.Loop,2,NA,NA,completion,103317.93,74964.700000003,74962.439,74978.993,178296.923,178307.2,2023-07-12T19:53:59Z,178313.506,NA,NA,NA,NA,NA,NA,NA,NA,NA,NA,NA,NA,NA,NA,NA,NA,NA,NA,NA,NA,NA,NA,NA,NA,NA,NA,NA,"c(""distractor1"", ""distractor2"", ""distractor3"")"
