observation,sender,sender_type,sender_id,response,response_action,ended_on,duration,time_run,time_render,time_show,time_end,time_commit,timestamp,time_switch,distractors,german,swahili,enc,distractor1,distractor2,distractor3,response_2,x,correct,x_2,url_vp,url_sess,meta_labjs_version,meta_location,meta_user_agent,meta_platform,meta_language,meta_locale,meta_time_zone,meta_timezone_offset,meta_screen_width,meta_screen_height,meta_scroll_width,meta_scroll_height,meta_window_inner_width,meta_window_inner_height,meta_device_pixel_ratio,meta_labjs_build_flavor,meta_labjs_build_commit
70b75,Introduction general,canvas.Screen,0,weiter,keypress(q),response,1429643.294,608,606.737,623.406,1430266.7,1430274.1,2023-01-14T11:14:16Z,1430273.929,NULL,NA,NA,NA,NA,NA,NA,NA,NA,NA,NA,106,1,20.2.4,https://neurocog.fernuni.ch/studies/vweber/encoding_immediate/?vp=106&sess=1,"Mozilla/5.0 (Macintosh; Intel Mac OS X 10_15_7) AppleWebKit/537.36 (KHTML, like Gecko) Chrome/108.0.0.0 Safari/537.36",MacIntel,de-DE,de,Europe/Zurich,-60,1440,900,1440,684,1440,732,2,production,f5b4a49f956347addd546a832a3327688c2c0fef
70b75,Introduction practice,canvas.Screen,1_0,NA,keypress(Space),response,7592.670999994,1430274.5,1430257.26,1430273.929,1437866.6,1437868.5,2023-01-14T11:14:24Z,1437875.741,NULL,NA,NA,NA,NA,NA,NA,NA,NA,NA,NA,NA,NA,NA,NA,NA,NA,NA,NA,NA,NA,NA,NA,NA,NA,NA,NA,NA,NA,NA
70b75,deep,flow.Sequence,1_1_0_0,NA,NA,skipped,NA,1437868.8,NA,NA,1437866.6,1437869.7,2023-01-14T11:14:24Z,1437875.741,"c(""distractor1"", ""distractor2"", ""distractor3"")",Rückhalt,msaada,s,muhula,auwali,kiwimbe,NA,NA,NA,NA,NA,NA,NA,NA,NA,NA,NA,NA,NA,NA,NA,NA,NA,NA,NA,NA,NA,NA,NA
70b75,Shallow Question,html.Page,1_1_0_1_0,NA,NA,form submission,4627.2590000001,1437869.8,1437859.072,1437875.741,1442503,1442503.2,2023-01-14T11:14:29Z,1442509.955,"c(""distractor1"", ""distractor2"", ""distractor3"")",Rückhalt,msaada,s,muhula,auwali,kiwimbe,auwali,NA,NA,NA,NA,NA,NA,NA,NA,NA,NA,NA,NA,NA,NA,NA,NA,NA,NA,NA,NA,NA,NA
70b75,"""Richtig""-Screen",canvas.Screen,1_1_0_1_1,NA,NA,skipped,NA,1442504.8,NA,NA,1442503,1442504.9,2023-01-14T11:14:29Z,1442509.955,"c(""distractor1"", ""distractor2"", ""distractor3"")",Rückhalt,msaada,s,muhula,auwali,kiwimbe,NA,NA,NA,NA,NA,NA,NA,NA,NA,NA,NA,NA,NA,NA,NA,NA,NA,NA,NA,NA,NA,NA,NA
70b75,"""Falsch""-Screen",canvas.Screen,1_1_0_1_2,NA,NA,timeout,5000.7,1442506,1442493.286,1442509.955,1447493.986,1447497,2023-01-14T11:14:34Z,1447510.655,"c(""distractor1"", ""distractor2"", ""distractor3"")",Rückhalt,msaada,s,muhula,auwali,kiwimbe,NA,NA,0,NA,NA,NA,NA,NA,NA,NA,NA,NA,NA,NA,NA,NA,NA,NA,NA,NA,NA,NA,NA
70b75,shallow,flow.Sequence,1_1_0_1,NA,NA,completion,9618.2450000001,1437869.8,1437859.072,1437875.741,1447493.986,1447497.2,2023-01-14T11:14:34Z,1447510.655,"c(""distractor1"", ""distractor2"", ""distractor3"")",Rückhalt,msaada,s,muhula,auwali,kiwimbe,NA,NA,NA,NA,NA,NA,NA,NA,NA,NA,NA,NA,NA,NA,NA,NA,NA,NA,NA,NA,NA,NA,NA
70b75,task,flow.Sequence,1_1_0,NA,NA,completion,9618.2450000001,1437868.7,1437859.072,1437875.741,1447493.986,1447497.4,2023-01-14T11:14:34Z,1447510.655,"c(""distractor1"", ""distractor2"", ""distractor3"")",Rückhalt,msaada,s,muhula,auwali,kiwimbe,NA,NA,NA,NA,NA,NA,NA,NA,NA,NA,NA,NA,NA,NA,NA,NA,NA,NA,NA,NA,NA,NA,NA
70b75,deep,flow.Sequence,1_1_1_0,NA,NA,skipped,NA,1447497.4,NA,NA,1447493.986,1447497.6,2023-01-14T11:14:34Z,1447510.655,"c(""distractor1"", ""distractor2"", ""distractor3"")",Gegenwart,hadhara,s,katiba,jokofu,mikopo,NA,NA,NA,NA,NA,NA,NA,NA,NA,NA,NA,NA,NA,NA,NA,NA,NA,NA,NA,NA,NA,NA,NA
70b75,Shallow Question,html.Page,1_1_1_1_0,NA,NA,form submission,4093.7449999761,1447497.7,1447493.986,1447510.655,1451604.4,1451604.7,2023-01-14T11:14:38Z,1451611.458,"c(""distractor1"", ""distractor2"", ""distractor3"")",Gegenwart,hadhara,s,katiba,jokofu,mikopo,katiba,NA,NA,NA,NA,NA,NA,NA,NA,NA,NA,NA,NA,NA,NA,NA,NA,NA,NA,NA,NA,NA,NA
70b75,"""Richtig""-Screen",canvas.Screen,1_1_1_1_1,NA,NA,skipped,NA,1451606.5,NA,NA,1451604.4,1451606.6,2023-01-14T11:14:38Z,1451611.458,"c(""distractor1"", ""distractor2"", ""distractor3"")",Gegenwart,hadhara,s,katiba,jokofu,mikopo,NA,NA,NA,NA,NA,NA,NA,NA,NA,NA,NA,NA,NA,NA,NA,NA,NA,NA,NA,NA,NA,NA,NA
70b75,"""Falsch""-Screen",canvas.Screen,1_1_1_1_2,NA,NA,timeout,5000.7,1451607.7,1451594.789,1451611.458,1456595.489,1456596.9,2023-01-14T11:14:43Z,1456612.158,"c(""distractor1"", ""distractor2"", ""distractor3"")",Gegenwart,hadhara,s,katiba,jokofu,mikopo,NA,NA,0,NA,NA,NA,NA,NA,NA,NA,NA,NA,NA,NA,NA,NA,NA,NA,NA,NA,NA,NA,NA
70b75,shallow,flow.Sequence,1_1_1_1,NA,NA,completion,9084.834,1447497.7,1447493.986,1447510.655,1456595.489,1456597.2,2023-01-14T11:14:43Z,1456612.158,"c(""distractor1"", ""distractor2"", ""distractor3"")",Gegenwart,hadhara,s,katiba,jokofu,mikopo,NA,NA,NA,NA,NA,NA,NA,NA,NA,NA,NA,NA,NA,NA,NA,NA,NA,NA,NA,NA,NA,NA,NA
70b75,task,flow.Sequence,1_1_1,NA,NA,completion,9084.834,1447497.4,1447493.986,1447510.655,1456595.489,1456597.4,2023-01-14T11:14:43Z,1456612.158,"c(""distractor1"", ""distractor2"", ""distractor3"")",Gegenwart,hadhara,s,katiba,jokofu,mikopo,NA,NA,NA,NA,NA,NA,NA,NA,NA,NA,NA,NA,NA,NA,NA,NA,NA,NA,NA,NA,NA,NA,NA
70b75,deep,flow.Sequence,1_1_2_0,NA,NA,skipped,NA,1456597.5,NA,NA,1456595.489,1456597.6,2023-01-14T11:14:43Z,1456612.158,"c(""distractor1"", ""distractor2"", ""distractor3"")",Kritik,lawama,s,dereva,nafasi,mawazo,NA,NA,NA,NA,NA,NA,NA,NA,NA,NA,NA,NA,NA,NA,NA,NA,NA,NA,NA,NA,NA,NA,NA
70b75,Shallow Question,html.Page,1_1_2_1_0,NA,NA,form submission,5427.2419999761,1456597.7,1456595.489,1456612.158,1462039.4,1462039.7,2023-01-14T11:14:48Z,1462046.496,"c(""distractor1"", ""distractor2"", ""distractor3"")",Kritik,lawama,s,dereva,nafasi,mawazo,dereva,NA,NA,NA,NA,NA,NA,NA,NA,NA,NA,NA,NA,NA,NA,NA,NA,NA,NA,NA,NA,NA,NA
70b75,"""Richtig""-Screen",canvas.Screen,1_1_2_1_1,NA,NA,skipped,NA,1462041.5,NA,NA,1462039.4,1462041.7,2023-01-14T11:14:48Z,1462046.496,"c(""distractor1"", ""distractor2"", ""distractor3"")",Kritik,lawama,s,dereva,nafasi,mawazo,NA,NA,NA,NA,NA,NA,NA,NA,NA,NA,NA,NA,NA,NA,NA,NA,NA,NA,NA,NA,NA,NA,NA
70b75,"""Falsch""-Screen",canvas.Screen,1_1_2_1_2,NA,NA,timeout,5000.7,1462042.4,1462029.583,1462046.496,1467030.527,1467032.3,2023-01-14T11:14:53Z,1467047.196,"c(""distractor1"", ""distractor2"", ""distractor3"")",Kritik,lawama,s,dereva,nafasi,mawazo,NA,NA,0,NA,NA,NA,NA,NA,NA,NA,NA,NA,NA,NA,NA,NA,NA,NA,NA,NA,NA,NA,NA
70b75,shallow,flow.Sequence,1_1_2_1,NA,NA,completion,10418.369,1456597.6,1456595.489,1456612.158,1467030.527,1467032.5,2023-01-14T11:14:53Z,1467047.196,"c(""distractor1"", ""distractor2"", ""distractor3"")",Kritik,lawama,s,dereva,nafasi,mawazo,NA,NA,NA,NA,NA,NA,NA,NA,NA,NA,NA,NA,NA,NA,NA,NA,NA,NA,NA,NA,NA,NA,NA
70b75,task,flow.Sequence,1_1_2,NA,NA,completion,10418.369,1456597.5,1456595.489,1456612.158,1467030.527,1467032.5,2023-01-14T11:14:53Z,1467047.196,"c(""distractor1"", ""distractor2"", ""distractor3"")",Kritik,lawama,s,dereva,nafasi,mawazo,NA,NA,NA,NA,NA,NA,NA,NA,NA,NA,NA,NA,NA,NA,NA,NA,NA,NA,NA,NA,NA,NA,NA
70b75,Deep Question,html.Page,1_1_3_0_0,NA,NA,form submission,4894.6039999821,1467032.6,1467030.527,1467047.196,1471941.8,1471941.9,2023-01-14T11:14:58Z,1471947.882,"c(""distractor1"", ""distractor2"", ""distractor3"")",Qualität,mtindo,d,NA,NA,NA,hadhara,NA,NA,NA,NA,NA,NA,NA,NA,NA,NA,NA,NA,NA,NA,NA,NA,NA,NA,NA,NA,NA,NA
70b75,"""Richtig""-Screen",canvas.Screen,1_1_3_0_1,NA,NA,skipped,NA,1471943.5,NA,NA,1471941.8,1471943.5,2023-01-14T11:14:58Z,1471947.882,"c(""distractor1"", ""distractor2"", ""distractor3"")",Qualität,mtindo,d,NA,NA,NA,NA,NA,NA,NA,NA,NA,NA,NA,NA,NA,NA,NA,NA,NA,NA,NA,NA,NA,NA,NA,NA,NA,NA
70b75,"""Falsch""-Screen",canvas.Screen,1_1_3_0_2,NA,NA,timeout,5000.7,1471944.3,1471931.213,1471947.882,1476931.913,1476932.9,2023-01-14T11:15:03Z,1476948.582,"c(""distractor1"", ""distractor2"", ""distractor3"")",Qualität,mtindo,d,NA,NA,NA,NA,NA,0,NA,NA,NA,NA,NA,NA,NA,NA,NA,NA,NA,NA,NA,NA,NA,NA,NA,NA,NA,NA
70b75,deep,flow.Sequence,1_1_3_0,NA,NA,completion,9884.7169999999,1467032.6,1467030.527,1467047.196,1476931.913,1476933,2023-01-14T11:15:03Z,1476948.582,"c(""distractor1"", ""distractor2"", ""distractor3"")",Qualität,mtindo,d,NA,NA,NA,NA,NA,NA,NA,NA,NA,NA,NA,NA,NA,NA,NA,NA,NA,NA,NA,NA,NA,NA,NA,NA,NA,NA
70b75,shallow,flow.Sequence,1_1_3_1,NA,NA,skipped,NA,1476933,NA,NA,1476931.913,1476933.1,2023-01-14T11:15:03Z,1476948.582,"c(""distractor1"", ""distractor2"", ""distractor3"")",Qualität,mtindo,d,NA,NA,NA,NA,NA,NA,NA,NA,NA,NA,NA,NA,NA,NA,NA,NA,NA,NA,NA,NA,NA,NA,NA,NA,NA,NA
70b75,task,flow.Sequence,1_1_3,NA,NA,completion,9884.7169999999,1467032.6,1467030.527,1467047.196,1476931.913,1476933.3,2023-01-14T11:15:03Z,1476948.582,"c(""distractor1"", ""distractor2"", ""distractor3"")",Qualität,mtindo,d,NA,NA,NA,NA,NA,NA,NA,NA,NA,NA,NA,NA,NA,NA,NA,NA,NA,NA,NA,NA,NA,NA,NA,NA,NA,NA
70b75,Deep Question,html.Page,1_1_4_0_0,NA,NA,form submission,5400.8179999762,1476933.4,1476931.913,1476948.582,1482349.4,1482349.7,2023-01-14T11:15:09Z,1482349.669,"c(""distractor1"", ""distractor2"", ""distractor3"")",Gesundheit,salama,d,NA,NA,NA,hoi,NA,NA,NA,NA,NA,NA,NA,NA,NA,NA,NA,NA,NA,NA,NA,NA,NA,NA,NA,NA,NA,NA
70b75,"""Richtig""-Screen",canvas.Screen,1_1_4_0_1,NA,NA,skipped,NA,1482351.3,NA,NA,1482349.4,1482351.3,2023-01-14T11:15:09Z,1482349.669,"c(""distractor1"", ""distractor2"", ""distractor3"")",Gesundheit,salama,d,NA,NA,NA,NA,NA,NA,NA,NA,NA,NA,NA,NA,NA,NA,NA,NA,NA,NA,NA,NA,NA,NA,NA,NA,NA,NA
70b75,"""Falsch""-Screen",canvas.Screen,1_1_4_0_2,NA,NA,timeout,5000.7,1482352,1482333,1482349.669,1487333.7,1487334.5,2023-01-14T11:15:14Z,1487350.369,"c(""distractor1"", ""distractor2"", ""distractor3"")",Gesundheit,salama,d,NA,NA,NA,NA,NA,0,NA,NA,NA,NA,NA,NA,NA,NA,NA,NA,NA,NA,NA,NA,NA,NA,NA,NA,NA,NA
70b75,deep,flow.Sequence,1_1_4_0,NA,NA,completion,10385.118,1476933.4,1476931.913,1476948.582,1487333.7,1487334.6,2023-01-14T11:15:14Z,1487350.369,"c(""distractor1"", ""distractor2"", ""distractor3"")",Gesundheit,salama,d,NA,NA,NA,NA,NA,NA,NA,NA,NA,NA,NA,NA,NA,NA,NA,NA,NA,NA,NA,NA,NA,NA,NA,NA,NA,NA
70b75,shallow,flow.Sequence,1_1_4_1,NA,NA,skipped,NA,1487334.7,NA,NA,1487333.7,1487334.7,2023-01-14T11:15:14Z,1487350.369,"c(""distractor1"", ""distractor2"", ""distractor3"")",Gesundheit,salama,d,NA,NA,NA,NA,NA,NA,NA,NA,NA,NA,NA,NA,NA,NA,NA,NA,NA,NA,NA,NA,NA,NA,NA,NA,NA,NA
70b75,task,flow.Sequence,1_1_4,NA,NA,completion,10385.118,1476933.3,1476931.913,1476948.582,1487333.7,1487334.8,2023-01-14T11:15:14Z,1487350.369,"c(""distractor1"", ""distractor2"", ""distractor3"")",Gesundheit,salama,d,NA,NA,NA,NA,NA,NA,NA,NA,NA,NA,NA,NA,NA,NA,NA,NA,NA,NA,NA,NA,NA,NA,NA,NA,NA,NA
70b75,Deep Question,html.Page,1_1_5_0_0,NA,NA,form submission,5215.7309999941,1487334.9,1487333.7,1487350.369,1492566.1,1492566.4,2023-01-14T11:15:19Z,1492567.997,"c(""distractor1"", ""distractor2"", ""distractor3"")",Schatten,kivuli,d,NA,NA,NA,h,NA,NA,NA,NA,NA,NA,NA,NA,NA,NA,NA,NA,NA,NA,NA,NA,NA,NA,NA,NA,NA,NA
70b75,"""Richtig""-Screen",canvas.Screen,1_1_5_0_1,NA,NA,skipped,NA,1492568.4,NA,NA,1492566.1,1492568.5,2023-01-14T11:15:19Z,1492567.997,"c(""distractor1"", ""distractor2"", ""distractor3"")",Schatten,kivuli,d,NA,NA,NA,NA,NA,NA,NA,NA,NA,NA,NA,NA,NA,NA,NA,NA,NA,NA,NA,NA,NA,NA,NA,NA,NA,NA
70b75,"""Falsch""-Screen",canvas.Screen,1_1_5_0_2,NA,NA,timeout,5000.7,1492569.3,1492551.328,1492567.997,1497552.028,1497553.4,2023-01-14T11:15:24Z,1497568.697,"c(""distractor1"", ""distractor2"", ""distractor3"")",Schatten,kivuli,d,NA,NA,NA,NA,NA,0,NA,NA,NA,NA,NA,NA,NA,NA,NA,NA,NA,NA,NA,NA,NA,NA,NA,NA,NA,NA
70b75,deep,flow.Sequence,1_1_5_0,NA,NA,completion,10201.659,1487334.9,1487333.7,1487350.369,1497552.028,1497553.5,2023-01-14T11:15:24Z,1497568.697,"c(""distractor1"", ""distractor2"", ""distractor3"")",Schatten,kivuli,d,NA,NA,NA,NA,NA,NA,NA,NA,NA,NA,NA,NA,NA,NA,NA,NA,NA,NA,NA,NA,NA,NA,NA,NA,NA,NA
70b75,shallow,flow.Sequence,1_1_5_1,NA,NA,skipped,NA,1497553.6,NA,NA,1497552.028,1497553.7,2023-01-14T11:15:24Z,1497568.697,"c(""distractor1"", ""distractor2"", ""distractor3"")",Schatten,kivuli,d,NA,NA,NA,NA,NA,NA,NA,NA,NA,NA,NA,NA,NA,NA,NA,NA,NA,NA,NA,NA,NA,NA,NA,NA,NA,NA
70b75,task,flow.Sequence,1_1_5,NA,NA,completion,10201.659,1487334.9,1487333.7,1487350.369,1497552.028,1497553.8,2023-01-14T11:15:24Z,1497568.697,"c(""distractor1"", ""distractor2"", ""distractor3"")",Schatten,kivuli,d,NA,NA,NA,NA,NA,NA,NA,NA,NA,NA,NA,NA,NA,NA,NA,NA,NA,NA,NA,NA,NA,NA,NA,NA,NA,NA
70b75,block,flow.Loop,1_1,NA,NA,completion,59676.287,1437868.7,1437859.072,1437875.741,1497552.028,1497553.9,2023-01-14T11:15:24Z,1497568.697,"c(""distractor1"", ""distractor2"", ""distractor3"")",NA,NA,NA,NA,NA,NA,NA,NA,NA,NA,NA,NA,NA,NA,NA,NA,NA,NA,NA,NA,NA,NA,NA,NA,NA,NA,NA,NA,NA
70b75,Practice,flow.Sequence,1,NA,NA,completion,67278.099,1430274.5,1430257.26,1430273.929,1497552.028,1497554,2023-01-14T11:15:24Z,1497568.697,NULL,NA,NA,NA,NA,NA,NA,NA,NA,NA,NA,NA,NA,NA,NA,NA,NA,NA,NA,NA,NA,NA,NA,NA,NA,NA,NA,NA,NA,NA
70b75,Experiment start,canvas.Screen,2,weiter,keypress(q),response,15314.102999982,1497554,1497552.028,1497568.697,1512882.8,1512886.6,2023-01-14T11:15:39Z,1512954.41,NULL,NA,NA,NA,NA,NA,NA,NA,NA,NA,NA,NA,NA,NA,NA,NA,NA,NA,NA,NA,NA,NA,NA,NA,NA,NA,NA,NA,NA,NA
70b75,deep,flow.Sequence,3_0_0_0_0_0,NA,NA,skipped,NA,1512962.3,NA,NA,1512882.8,1512962.3,2023-01-14T11:15:39Z,1512954.41,NULL,Stimmung,kinyongo,s,kilekile,kisambo,madhehebu,NA,sdf,NA,0,NA,NA,NA,NA,NA,NA,NA,NA,NA,NA,NA,NA,NA,NA,NA,NA,NA,NA,NA
70b75,Shallow Question,html.Page,3_0_0_0_0_1_0,NA,NA,form submission,7184.2899999882,1512962.4,1512871.065,1512954.41,1520138.7,1520139,2023-01-14T11:15:46Z,1520139.091,NULL,Stimmung,kinyongo,s,kilekile,kisambo,madhehebu,kilekile,NA,NA,0,NA,NA,NA,NA,NA,NA,NA,NA,NA,NA,NA,NA,NA,NA,NA,NA,NA,NA,NA
70b75,"""Richtig""-Screen",canvas.Screen,3_0_0_0_0_1_1,NA,NA,skipped,NA,1520140.5,NA,NA,1520138.7,1520140.7,2023-01-14T11:15:46Z,1520139.091,NULL,Stimmung,kinyongo,s,kilekile,kisambo,madhehebu,NA,sdf,NA,0,NA,NA,NA,NA,NA,NA,NA,NA,NA,NA,NA,NA,NA,NA,NA,NA,NA,NA,NA
70b75,"""Falsch""-Screen",canvas.Screen,3_0_0_0_0_1_2,NA,NA,timeout,5000.7,1520141.3,1520122.422,1520139.091,1525123.122,1525124.9,2023-01-14T11:15:51Z,1525139.791,NULL,Stimmung,kinyongo,s,kilekile,kisambo,madhehebu,NA,sdf,0,0,NA,NA,NA,NA,NA,NA,NA,NA,NA,NA,NA,NA,NA,NA,NA,NA,NA,NA,NA
70b75,shallow,flow.Sequence,3_0_0_0_0_1,NA,NA,completion,12168.712,1512962.3,1512871.065,1512954.41,1525123.122,1525125,2023-01-14T11:15:51Z,1525139.791,NULL,Stimmung,kinyongo,s,kilekile,kisambo,madhehebu,NA,sdf,NA,0,NA,NA,NA,NA,NA,NA,NA,NA,NA,NA,NA,NA,NA,NA,NA,NA,NA,NA,NA
70b75,task,flow.Sequence,3_0_0_0_0,NA,NA,completion,12168.712,1512962.2,1512871.065,1512954.41,1525123.122,1525125.1,2023-01-14T11:15:51Z,1525139.791,NULL,Stimmung,kinyongo,s,kilekile,kisambo,madhehebu,NA,sdf,NA,0,NA,NA,NA,NA,NA,NA,NA,NA,NA,NA,NA,NA,NA,NA,NA,NA,NA,NA,NA
70b75,Deep Question,html.Page,3_0_0_0_1_0_0,NA,NA,form submission,3985.4089999881,1525125.2,1525123.122,1525139.791,1529125.2,1529125.3,2023-01-14T11:15:55Z,1529140.621,NULL,Kreativität,ubunifu,d,NA,NA,NA,mad,NA,NA,0,NA,NA,NA,NA,NA,NA,NA,NA,NA,NA,NA,NA,NA,NA,NA,NA,NA,NA,NA
70b75,"""Richtig""-Screen",canvas.Screen,3_0_0_0_1_0_1,NA,NA,skipped,NA,1529126.9,NA,NA,1529125.2,1529127,2023-01-14T11:15:55Z,1529140.621,NULL,Kreativität,ubunifu,d,NA,NA,NA,NA,sdf,NA,0,NA,NA,NA,NA,NA,NA,NA,NA,NA,NA,NA,NA,NA,NA,NA,NA,NA,NA,NA
70b75,"""Falsch""-Screen",canvas.Screen,3_0_0_0_1_0_2,NA,NA,timeout,5000.7,1529127.6,1529123.952,1529140.621,1534124.652,1534127.1,2023-01-14T11:16:00Z,1534141.321,NULL,Kreativität,ubunifu,d,NA,NA,NA,NA,sdf,0,0,NA,NA,NA,NA,NA,NA,NA,NA,NA,NA,NA,NA,NA,NA,NA,NA,NA,NA,NA
70b75,deep,flow.Sequence,3_0_0_0_1_0,NA,NA,completion,8984.861,1525125.2,1525123.122,1525139.791,1534124.652,1534127.3,2023-01-14T11:16:00Z,1534141.321,NULL,Kreativität,ubunifu,d,NA,NA,NA,NA,sdf,NA,0,NA,NA,NA,NA,NA,NA,NA,NA,NA,NA,NA,NA,NA,NA,NA,NA,NA,NA,NA
70b75,shallow,flow.Sequence,3_0_0_0_1_1,NA,NA,skipped,NA,1534127.4,NA,NA,1534124.652,1534127.4,2023-01-14T11:16:00Z,1534141.321,NULL,Kreativität,ubunifu,d,NA,NA,NA,NA,sdf,NA,0,NA,NA,NA,NA,NA,NA,NA,NA,NA,NA,NA,NA,NA,NA,NA,NA,NA,NA,NA
70b75,task,flow.Sequence,3_0_0_0_1,NA,NA,completion,8984.861,1525125.2,1525123.122,1525139.791,1534124.652,1534127.6,2023-01-14T11:16:00Z,1534141.321,NULL,Kreativität,ubunifu,d,NA,NA,NA,NA,sdf,NA,0,NA,NA,NA,NA,NA,NA,NA,NA,NA,NA,NA,NA,NA,NA,NA,NA,NA,NA,NA
70b75,deep,flow.Sequence,3_0_0_0_2_0,NA,NA,skipped,NA,1534127.6,NA,NA,1534124.652,1534127.7,2023-01-14T11:16:00Z,1534141.321,NULL,Gefährdung,kuhatarisha,s,uchokozi,udhaifu,makorowezo,NA,sdf,NA,0,NA,NA,NA,NA,NA,NA,NA,NA,NA,NA,NA,NA,NA,NA,NA,NA,NA,NA,NA
70b75,Shallow Question,html.Page,3_0_0_0_2_1_0,NA,NA,form submission,5920.4789999821,1534127.7,1534124.652,1534141.321,1540061.8,1540062,2023-01-14T11:16:06Z,1540075.485,NULL,Gefährdung,kuhatarisha,s,uchokozi,udhaifu,makorowezo,udhaifu,NA,NA,0,NA,NA,NA,NA,NA,NA,NA,NA,NA,NA,NA,NA,NA,NA,NA,NA,NA,NA,NA
70b75,"""Richtig""-Screen",canvas.Screen,3_0_0_0_2_1_1,NA,NA,skipped,NA,1540063.6,NA,NA,1540061.8,1540063.7,2023-01-14T11:16:06Z,1540075.485,NULL,Gefährdung,kuhatarisha,s,uchokozi,udhaifu,makorowezo,NA,sdf,NA,0,NA,NA,NA,NA,NA,NA,NA,NA,NA,NA,NA,NA,NA,NA,NA,NA,NA,NA,NA
70b75,"""Falsch""-Screen",canvas.Screen,3_0_0_0_2_1_2,NA,NA,timeout,5000.7,1540064.3,1540058.816,1540075.485,1545059.516,1545061.1,2023-01-14T11:16:11Z,1545076.185,NULL,Gefährdung,kuhatarisha,s,uchokozi,udhaifu,makorowezo,NA,sdf,0,0,NA,NA,NA,NA,NA,NA,NA,NA,NA,NA,NA,NA,NA,NA,NA,NA,NA,NA,NA
70b75,shallow,flow.Sequence,3_0_0_0_2_1,NA,NA,completion,10918.195,1534127.7,1534124.652,1534141.321,1545059.516,1545061.2,2023-01-14T11:16:11Z,1545076.185,NULL,Gefährdung,kuhatarisha,s,uchokozi,udhaifu,makorowezo,NA,sdf,NA,0,NA,NA,NA,NA,NA,NA,NA,NA,NA,NA,NA,NA,NA,NA,NA,NA,NA,NA,NA
70b75,task,flow.Sequence,3_0_0_0_2,NA,NA,completion,10918.195,1534127.6,1534124.652,1534141.321,1545059.516,1545061.3,2023-01-14T11:16:11Z,1545076.185,NULL,Gefährdung,kuhatarisha,s,uchokozi,udhaifu,makorowezo,NA,sdf,NA,0,NA,NA,NA,NA,NA,NA,NA,NA,NA,NA,NA,NA,NA,NA,NA,NA,NA,NA,NA
70b75,deep,flow.Sequence,3_0_0_0_3_0,NA,NA,skipped,NA,1545061.4,NA,NA,1545059.516,1545061.4,2023-01-14T11:16:11Z,1545076.185,NULL,Betrüger,mdanganyifu,s,mwanamuziki,wastani,mahakama,NA,sdf,NA,0,NA,NA,NA,NA,NA,NA,NA,NA,NA,NA,NA,NA,NA,NA,NA,NA,NA,NA,NA
70b75,Shallow Question,html.Page,3_0_0_0_3_1_0,NA,NA,form submission,4804.914999994,1545061.5,1545059.516,1545076.185,1549881.1,1549881.2,2023-01-14T11:16:16Z,1549893.997,NULL,Betrüger,mdanganyifu,s,mwanamuziki,wastani,mahakama,wastani,NA,NA,0,NA,NA,NA,NA,NA,NA,NA,NA,NA,NA,NA,NA,NA,NA,NA,NA,NA,NA,NA
70b75,"""Richtig""-Screen",canvas.Screen,3_0_0_0_3_1_1,NA,NA,skipped,NA,1549882.8,NA,NA,1549881.1,1549882.9,2023-01-14T11:16:16Z,1549893.997,NULL,Betrüger,mdanganyifu,s,mwanamuziki,wastani,mahakama,NA,sdf,NA,0,NA,NA,NA,NA,NA,NA,NA,NA,NA,NA,NA,NA,NA,NA,NA,NA,NA,NA,NA
70b75,"""Falsch""-Screen",canvas.Screen,3_0_0_0_3_1_2,NA,NA,timeout,5000.7,1549883.4,1549877.328,1549893.997,1554878.028,1554880.1,2023-01-14T11:16:21Z,1554894.697,NULL,Betrüger,mdanganyifu,s,mwanamuziki,wastani,mahakama,NA,sdf,0,0,NA,NA,NA,NA,NA,NA,NA,NA,NA,NA,NA,NA,NA,NA,NA,NA,NA,NA,NA
70b75,shallow,flow.Sequence,3_0_0_0_3_1,NA,NA,completion,9801.8429999999,1545061.5,1545059.516,1545076.185,1554878.028,1554880.3,2023-01-14T11:16:21Z,1554894.697,NULL,Betrüger,mdanganyifu,s,mwanamuziki,wastani,mahakama,NA,sdf,NA,0,NA,NA,NA,NA,NA,NA,NA,NA,NA,NA,NA,NA,NA,NA,NA,NA,NA,NA,NA
70b75,task,flow.Sequence,3_0_0_0_3,NA,NA,completion,9801.8429999999,1545061.4,1545059.516,1545076.185,1554878.028,1554880.4,2023-01-14T11:16:21Z,1554894.697,NULL,Betrüger,mdanganyifu,s,mwanamuziki,wastani,mahakama,NA,sdf,NA,0,NA,NA,NA,NA,NA,NA,NA,NA,NA,NA,NA,NA,NA,NA,NA,NA,NA,NA,NA
70b75,deep,flow.Sequence,3_0_0_0_4_0,NA,NA,skipped,NA,1554880.6,NA,NA,1554878.028,1554880.7,2023-01-14T11:16:21Z,1554894.697,NULL,Kontrolle,kudhibiti,s,mbinguni,kufunga,utegemezi,NA,sdf,NA,0,NA,NA,NA,NA,NA,NA,NA,NA,NA,NA,NA,NA,NA,NA,NA,NA,NA,NA,NA
70b75,Shallow Question,html.Page,3_0_0_0_4_1_0,NA,NA,form submission,5238.6029999822,1554880.7,1554878.028,1554894.697,1560133.3,1560133.4,2023-01-14T11:16:26Z,1560145.664,NULL,Kontrolle,kudhibiti,s,mbinguni,kufunga,utegemezi,kudhibiti,NA,NA,0,NA,NA,NA,NA,NA,NA,NA,NA,NA,NA,NA,NA,NA,NA,NA,NA,NA,NA,NA
70b75,"""Richtig""-Screen",canvas.Screen,3_0_0_0_4_1_1,NA,NA,timeout,5000.7,1560134.9,1560128.995,1560145.664,1565129.695,1565131.1,2023-01-14T11:16:31Z,1565146.364,NULL,Kontrolle,kudhibiti,s,mbinguni,kufunga,utegemezi,NA,sdf,1,0,NA,NA,NA,NA,NA,NA,NA,NA,NA,NA,NA,NA,NA,NA,NA,NA,NA,NA,NA
70b75,"""Falsch""-Screen",canvas.Screen,3_0_0_0_4_1_2,NA,NA,skipped,NA,1565132.8,NA,NA,1565129.695,1565132.9,2023-01-14T11:16:31Z,1565146.364,NULL,Kontrolle,kudhibiti,s,mbinguni,kufunga,utegemezi,NA,sdf,NA,0,NA,NA,NA,NA,NA,NA,NA,NA,NA,NA,NA,NA,NA,NA,NA,NA,NA,NA,NA
70b75,shallow,flow.Sequence,3_0_0_0_4_1,NA,NA,completion,10234.998,1554880.7,1554878.028,1554894.697,1565129.695,1565133,2023-01-14T11:16:31Z,1565146.364,NULL,Kontrolle,kudhibiti,s,mbinguni,kufunga,utegemezi,NA,sdf,NA,0,NA,NA,NA,NA,NA,NA,NA,NA,NA,NA,NA,NA,NA,NA,NA,NA,NA,NA,NA
70b75,task,flow.Sequence,3_0_0_0_4,NA,NA,completion,10234.998,1554880.6,1554878.028,1554894.697,1565129.695,1565133.1,2023-01-14T11:16:31Z,1565146.364,NULL,Kontrolle,kudhibiti,s,mbinguni,kufunga,utegemezi,NA,sdf,NA,0,NA,NA,NA,NA,NA,NA,NA,NA,NA,NA,NA,NA,NA,NA,NA,NA,NA,NA,NA
70b75,Deep Question,html.Page,3_0_0_0_5_0_0,NA,NA,form submission,2890.735999994,1565133.1,1565129.695,1565146.364,1568037.1,1568037.3,2023-01-14T11:16:34Z,1568046.997,NULL,Orientierung,urekebisho,d,NA,NA,NA,b,NA,NA,0,NA,NA,NA,NA,NA,NA,NA,NA,NA,NA,NA,NA,NA,NA,NA,NA,NA,NA,NA
70b75,"""Richtig""-Screen",canvas.Screen,3_0_0_0_5_0_1,NA,NA,skipped,NA,1568037.9,NA,NA,1568037.1,1568038,2023-01-14T11:16:34Z,1568046.997,NULL,Orientierung,urekebisho,d,NA,NA,NA,NA,sdf,NA,0,NA,NA,NA,NA,NA,NA,NA,NA,NA,NA,NA,NA,NA,NA,NA,NA,NA,NA,NA
70b75,"""Falsch""-Screen",canvas.Screen,3_0_0_0_5_0_2,NA,NA,timeout,5000.7,1568038.5,1568030.328,1568046.997,1573031.028,1573032.2,2023-01-14T11:16:39Z,1573047.697,NULL,Orientierung,urekebisho,d,NA,NA,NA,NA,sdf,0,0,NA,NA,NA,NA,NA,NA,NA,NA,NA,NA,NA,NA,NA,NA,NA,NA,NA,NA,NA
70b75,deep,flow.Sequence,3_0_0_0_5_0,NA,NA,completion,7884.6639999999,1565133.1,1565129.695,1565146.364,1573031.028,1573032.4,2023-01-14T11:16:39Z,1573047.697,NULL,Orientierung,urekebisho,d,NA,NA,NA,NA,sdf,NA,0,NA,NA,NA,NA,NA,NA,NA,NA,NA,NA,NA,NA,NA,NA,NA,NA,NA,NA,NA
70b75,shallow,flow.Sequence,3_0_0_0_5_1,NA,NA,skipped,NA,1573032.4,NA,NA,1573031.028,1573032.5,2023-01-14T11:16:39Z,1573047.697,NULL,Orientierung,urekebisho,d,NA,NA,NA,NA,sdf,NA,0,NA,NA,NA,NA,NA,NA,NA,NA,NA,NA,NA,NA,NA,NA,NA,NA,NA,NA,NA
70b75,task,flow.Sequence,3_0_0_0_5,NA,NA,completion,7884.6639999999,1565133.1,1565129.695,1565146.364,1573031.028,1573032.5,2023-01-14T11:16:39Z,1573047.697,NULL,Orientierung,urekebisho,d,NA,NA,NA,NA,sdf,NA,0,NA,NA,NA,NA,NA,NA,NA,NA,NA,NA,NA,NA,NA,NA,NA,NA,NA,NA,NA
70b75,Deep Question,html.Page,3_0_0_0_6_0_0,NA,NA,form submission,3685.3030000001,1573032.7,1573031.028,1573047.697,1576733,1576733.4,2023-01-14T11:16:43Z,1576748.215,NULL,Können,unaweza,d,NA,NA,NA,m,NA,NA,0,NA,NA,NA,NA,NA,NA,NA,NA,NA,NA,NA,NA,NA,NA,NA,NA,NA,NA,NA
70b75,"""Richtig""-Screen",canvas.Screen,3_0_0_0_6_0_1,NA,NA,skipped,NA,1576735,NA,NA,1576733,1576735.1,2023-01-14T11:16:43Z,1576748.215,NULL,Können,unaweza,d,NA,NA,NA,NA,sdf,NA,0,NA,NA,NA,NA,NA,NA,NA,NA,NA,NA,NA,NA,NA,NA,NA,NA,NA,NA,NA
70b75,"""Falsch""-Screen",canvas.Screen,3_0_0_0_6_0_2,NA,NA,timeout,5000.7,1576735.7,1576731.546,1576748.215,1581732.246,1581733.4,2023-01-14T11:16:48Z,1581748.915,NULL,Können,unaweza,d,NA,NA,NA,NA,sdf,0,0,NA,NA,NA,NA,NA,NA,NA,NA,NA,NA,NA,NA,NA,NA,NA,NA,NA,NA,NA
70b75,deep,flow.Sequence,3_0_0_0_6_0,NA,NA,completion,8684.5490000001,1573032.7,1573031.028,1573047.697,1581732.246,1581733.6,2023-01-14T11:16:48Z,1581748.915,NULL,Können,unaweza,d,NA,NA,NA,NA,sdf,NA,0,NA,NA,NA,NA,NA,NA,NA,NA,NA,NA,NA,NA,NA,NA,NA,NA,NA,NA,NA
70b75,shallow,flow.Sequence,3_0_0_0_6_1,NA,NA,skipped,NA,1581733.7,NA,NA,1581732.246,1581733.8,2023-01-14T11:16:48Z,1581748.915,NULL,Können,unaweza,d,NA,NA,NA,NA,sdf,NA,0,NA,NA,NA,NA,NA,NA,NA,NA,NA,NA,NA,NA,NA,NA,NA,NA,NA,NA,NA
70b75,task,flow.Sequence,3_0_0_0_6,NA,NA,completion,8684.5490000001,1573032.6,1573031.028,1573047.697,1581732.246,1581733.8,2023-01-14T11:16:48Z,1581748.915,NULL,Können,unaweza,d,NA,NA,NA,NA,sdf,NA,0,NA,NA,NA,NA,NA,NA,NA,NA,NA,NA,NA,NA,NA,NA,NA,NA,NA,NA,NA
70b75,Deep Question,html.Page,3_0_0_0_7_0_0,NA,NA,form submission,2304.184999994,1581733.9,1581732.246,1581748.915,1584053.1,1584053.3,2023-01-14T11:16:50Z,1584066.233,NULL,Respekt,heshima,d,NA,NA,NA,r,NA,NA,0,NA,NA,NA,NA,NA,NA,NA,NA,NA,NA,NA,NA,NA,NA,NA,NA,NA,NA,NA
70b75,"""Richtig""-Screen",canvas.Screen,3_0_0_0_7_0_1,NA,NA,skipped,NA,1584054.8,NA,NA,1584053.1,1584054.9,2023-01-14T11:16:50Z,1584066.233,NULL,Respekt,heshima,d,NA,NA,NA,NA,sdf,NA,0,NA,NA,NA,NA,NA,NA,NA,NA,NA,NA,NA,NA,NA,NA,NA,NA,NA,NA,NA
70b75,"""Falsch""-Screen",canvas.Screen,3_0_0_0_7_0_2,NA,NA,timeout,5000.7,1584055.5,1584049.564,1584066.233,1589050.264,1589051.5,2023-01-14T11:16:55Z,1589066.933,NULL,Respekt,heshima,d,NA,NA,NA,NA,sdf,0,0,NA,NA,NA,NA,NA,NA,NA,NA,NA,NA,NA,NA,NA,NA,NA,NA,NA,NA,NA
70b75,deep,flow.Sequence,3_0_0_0_7_0,NA,NA,completion,7301.3489999999,1581733.9,1581732.246,1581748.915,1589050.264,1589051.7,2023-01-14T11:16:55Z,1589066.933,NULL,Respekt,heshima,d,NA,NA,NA,NA,sdf,NA,0,NA,NA,NA,NA,NA,NA,NA,NA,NA,NA,NA,NA,NA,NA,NA,NA,NA,NA,NA
70b75,shallow,flow.Sequence,3_0_0_0_7_1,NA,NA,skipped,NA,1589051.7,NA,NA,1589050.264,1589051.8,2023-01-14T11:16:55Z,1589066.933,NULL,Respekt,heshima,d,NA,NA,NA,NA,sdf,NA,0,NA,NA,NA,NA,NA,NA,NA,NA,NA,NA,NA,NA,NA,NA,NA,NA,NA,NA,NA
70b75,task,flow.Sequence,3_0_0_0_7,NA,NA,completion,7301.3489999999,1581733.9,1581732.246,1581748.915,1589050.264,1589051.8,2023-01-14T11:16:55Z,1589066.933,NULL,Respekt,heshima,d,NA,NA,NA,NA,sdf,NA,0,NA,NA,NA,NA,NA,NA,NA,NA,NA,NA,NA,NA,NA,NA,NA,NA,NA,NA,NA
70b75,block,flow.Loop,3_0_0_0,NA,NA,completion,76095.854,1512962.2,1512871.065,1512954.41,1589050.264,1589052,2023-01-14T11:16:55Z,1589066.933,NULL,NA,NA,NA,NA,NA,NA,NA,sdf,NA,0,NA,NA,NA,NA,NA,NA,NA,NA,NA,NA,NA,NA,NA,NA,NA,NA,NA,NA,NA
70b75,weiter,canvas.Screen,3_0_0_1,sdf,keypress(Space),response,3423.8669999822,1589052.1,1589050.264,1589066.933,1592490.8,1592494,2023-01-14T11:16:59Z,1592534.085,NULL,NA,NA,NA,NA,NA,NA,NA,sdf,NA,0,NA,NA,NA,NA,NA,NA,NA,NA,NA,NA,NA,NA,NA,NA,NA,NA,NA,NA,NA
70b75,check continue,flow.Sequence,3_0_0,NA,NA,completion,79536.389999982,1512962.2,1512871.065,1512954.41,1592490.8,1592494.1,2023-01-14T11:16:59Z,1592534.085,NULL,NA,NA,NA,NA,NA,NA,NA,sdf,NA,0,NA,NA,NA,NA,NA,NA,NA,NA,NA,NA,NA,NA,NA,NA,NA,NA,NA,NA,NA
70b75,deep,flow.Sequence,3_0_1_0_0_0,NA,NA,skipped,NA,1592521.3,NA,NA,1592490.8,1592521.4,2023-01-14T11:16:59Z,1592534.085,NULL,Kontrolle,kudhibiti,s,mbinguni,kufunga,utegemezi,NA,sdfdsf,NA,1,NA,NA,NA,NA,NA,NA,NA,NA,NA,NA,NA,NA,NA,NA,NA,NA,NA,NA,NA
70b75,Shallow Question,html.Page,3_0_1_0_0_1_0,NA,NA,form submission,6360.2149999822,1592521.4,1592517.416,1592534.085,1598894.3,1598894.6,2023-01-14T11:17:05Z,1598901.882,NULL,Kontrolle,kudhibiti,s,mbinguni,kufunga,utegemezi,kudhibiti,NA,NA,1,NA,NA,NA,NA,NA,NA,NA,NA,NA,NA,NA,NA,NA,NA,NA,NA,NA,NA,NA
70b75,"""Richtig""-Screen",canvas.Screen,3_0_1_0_0_1_1,NA,NA,timeout,5000.7,1598896.5,1598885.213,1598901.882,1603885.913,1603888,2023-01-14T11:17:10Z,1603902.582,NULL,Kontrolle,kudhibiti,s,mbinguni,kufunga,utegemezi,NA,sdfdsf,1,1,NA,NA,NA,NA,NA,NA,NA,NA,NA,NA,NA,NA,NA,NA,NA,NA,NA,NA,NA
70b75,"""Falsch""-Screen",canvas.Screen,3_0_1_0_0_1_2,NA,NA,skipped,NA,1603889.5,NA,NA,1603885.913,1603889.6,2023-01-14T11:17:10Z,1603902.582,NULL,Kontrolle,kudhibiti,s,mbinguni,kufunga,utegemezi,NA,sdfdsf,NA,1,NA,NA,NA,NA,NA,NA,NA,NA,NA,NA,NA,NA,NA,NA,NA,NA,NA,NA,NA
70b75,shallow,flow.Sequence,3_0_1_0_0_1,NA,NA,completion,11351.828,1592521.4,1592517.416,1592534.085,1603885.913,1603889.7,2023-01-14T11:17:10Z,1603902.582,NULL,Kontrolle,kudhibiti,s,mbinguni,kufunga,utegemezi,NA,sdfdsf,NA,1,NA,NA,NA,NA,NA,NA,NA,NA,NA,NA,NA,NA,NA,NA,NA,NA,NA,NA,NA
70b75,task,flow.Sequence,3_0_1_0_0,NA,NA,completion,11351.828,1592521.3,1592517.416,1592534.085,1603885.913,1603889.8,2023-01-14T11:17:10Z,1603902.582,NULL,Kontrolle,kudhibiti,s,mbinguni,kufunga,utegemezi,NA,sdfdsf,NA,1,NA,NA,NA,NA,NA,NA,NA,NA,NA,NA,NA,NA,NA,NA,NA,NA,NA,NA,NA
70b75,deep,flow.Sequence,3_0_1_0_1_0,NA,NA,skipped,NA,1603889.9,NA,NA,1603885.913,1603890,2023-01-14T11:17:10Z,1603902.582,NULL,Gefährdung,kuhatarisha,s,uchokozi,udhaifu,makorowezo,NA,sdfdsf,NA,1,NA,NA,NA,NA,NA,NA,NA,NA,NA,NA,NA,NA,NA,NA,NA,NA,NA,NA,NA
70b75,Shallow Question,html.Page,3_0_1_0_1_1_0,NA,NA,form submission,5342.9180000001,1603890,1603885.913,1603902.582,1609245.5,1609245.8,2023-01-14T11:17:15Z,1609253.584,NULL,Gefährdung,kuhatarisha,s,uchokozi,udhaifu,makorowezo,udhaifu,NA,NA,1,NA,NA,NA,NA,NA,NA,NA,NA,NA,NA,NA,NA,NA,NA,NA,NA,NA,NA,NA
70b75,"""Richtig""-Screen",canvas.Screen,3_0_1_0_1_1_1,NA,NA,skipped,NA,1609247.1,NA,NA,1609245.5,1609247.2,2023-01-14T11:17:15Z,1609253.584,NULL,Gefährdung,kuhatarisha,s,uchokozi,udhaifu,makorowezo,NA,sdfdsf,NA,1,NA,NA,NA,NA,NA,NA,NA,NA,NA,NA,NA,NA,NA,NA,NA,NA,NA,NA,NA
70b75,"""Falsch""-Screen",canvas.Screen,3_0_1_0_1_1_2,NA,NA,timeout,5000.7,1609247.8,1609236.915,1609253.584,1614237.615,1614238.4,2023-01-14T11:17:20Z,1614254.284,NULL,Gefährdung,kuhatarisha,s,uchokozi,udhaifu,makorowezo,NA,sdfdsf,0,1,NA,NA,NA,NA,NA,NA,NA,NA,NA,NA,NA,NA,NA,NA,NA,NA,NA,NA,NA
70b75,shallow,flow.Sequence,3_0_1_0_1_1,NA,NA,completion,10335.033,1603890,1603885.913,1603902.582,1614237.615,1614238.6,2023-01-14T11:17:20Z,1614254.284,NULL,Gefährdung,kuhatarisha,s,uchokozi,udhaifu,makorowezo,NA,sdfdsf,NA,1,NA,NA,NA,NA,NA,NA,NA,NA,NA,NA,NA,NA,NA,NA,NA,NA,NA,NA,NA
70b75,task,flow.Sequence,3_0_1_0_1,NA,NA,completion,10335.033,1603889.8,1603885.913,1603902.582,1614237.615,1614238.7,2023-01-14T11:17:20Z,1614254.284,NULL,Gefährdung,kuhatarisha,s,uchokozi,udhaifu,makorowezo,NA,sdfdsf,NA,1,NA,NA,NA,NA,NA,NA,NA,NA,NA,NA,NA,NA,NA,NA,NA,NA,NA,NA,NA
70b75,Deep Question,html.Page,3_0_1_0_2_0_0,NA,NA,form submission,3161.216,1614238.8,1614237.615,1614254.284,1617415.5,1617415.8,2023-01-14T11:17:24Z,1617421.623,NULL,Orientierung,urekebisho,d,NA,NA,NA,dd,NA,NA,1,NA,NA,NA,NA,NA,NA,NA,NA,NA,NA,NA,NA,NA,NA,NA,NA,NA,NA,NA
70b75,"""Richtig""-Screen",canvas.Screen,3_0_1_0_2_0_1,NA,NA,skipped,NA,1617417.6,NA,NA,1617415.5,1617417.6,2023-01-14T11:17:24Z,1617421.623,NULL,Orientierung,urekebisho,d,NA,NA,NA,NA,sdfdsf,NA,1,NA,NA,NA,NA,NA,NA,NA,NA,NA,NA,NA,NA,NA,NA,NA,NA,NA,NA,NA
70b75,"""Falsch""-Screen",canvas.Screen,3_0_1_0_2_0_2,NA,NA,timeout,5000.7000000002,1617418.4,1617404.954,1617421.623,1622405.654,1622406.7,2023-01-14T11:17:29Z,1622422.323,NULL,Orientierung,urekebisho,d,NA,NA,NA,NA,sdfdsf,0,1,NA,NA,NA,NA,NA,NA,NA,NA,NA,NA,NA,NA,NA,NA,NA,NA,NA,NA,NA
70b75,deep,flow.Sequence,3_0_1_0_2_0,NA,NA,completion,8151.3700000001,1614238.8,1614237.615,1614254.284,1622405.654,1622406.8,2023-01-14T11:17:29Z,1622422.323,NULL,Orientierung,urekebisho,d,NA,NA,NA,NA,sdfdsf,NA,1,NA,NA,NA,NA,NA,NA,NA,NA,NA,NA,NA,NA,NA,NA,NA,NA,NA,NA,NA
70b75,shallow,flow.Sequence,3_0_1_0_2_1,NA,NA,skipped,NA,1622406.9,NA,NA,1622405.654,1622407,2023-01-14T11:17:29Z,1622422.323,NULL,Orientierung,urekebisho,d,NA,NA,NA,NA,sdfdsf,NA,1,NA,NA,NA,NA,NA,NA,NA,NA,NA,NA,NA,NA,NA,NA,NA,NA,NA,NA,NA
70b75,task,flow.Sequence,3_0_1_0_2,NA,NA,completion,8151.3700000001,1614238.8,1614237.615,1614254.284,1622405.654,1622407.2,2023-01-14T11:17:29Z,1622422.323,NULL,Orientierung,urekebisho,d,NA,NA,NA,NA,sdfdsf,NA,1,NA,NA,NA,NA,NA,NA,NA,NA,NA,NA,NA,NA,NA,NA,NA,NA,NA,NA,NA
70b75,deep,flow.Sequence,3_0_1_0_3_0,NA,NA,skipped,NA,1622407.2,NA,NA,1622405.654,1622407.3,2023-01-14T11:17:29Z,1622422.323,NULL,Stimmung,kinyongo,s,kilekile,kisambo,madhehebu,NA,sdfdsf,NA,1,NA,NA,NA,NA,NA,NA,NA,NA,NA,NA,NA,NA,NA,NA,NA,NA,NA,NA,NA
70b75,Shallow Question,html.Page,3_0_1_0_3_1_0,NA,NA,form submission,4445.876999988,1622407.3,1622405.654,1622422.323,1626868.2,1626868.4,2023-01-14T11:17:33Z,1626873.171,NULL,Stimmung,kinyongo,s,kilekile,kisambo,madhehebu,kinyongo,NA,NA,1,NA,NA,NA,NA,NA,NA,NA,NA,NA,NA,NA,NA,NA,NA,NA,NA,NA,NA,NA
70b75,"""Richtig""-Screen",canvas.Screen,3_0_1_0_3_1_1,NA,NA,timeout,5000.7,1626870.2,1626856.502,1626873.171,1631857.202,1631858.8,2023-01-14T11:17:38Z,1631873.871,NULL,Stimmung,kinyongo,s,kilekile,kisambo,madhehebu,NA,sdfdsf,1,1,NA,NA,NA,NA,NA,NA,NA,NA,NA,NA,NA,NA,NA,NA,NA,NA,NA,NA,NA
70b75,"""Falsch""-Screen",canvas.Screen,3_0_1_0_3_1_2,NA,NA,skipped,NA,1631860.5,NA,NA,1631857.202,1631860.7,2023-01-14T11:17:38Z,1631873.871,NULL,Stimmung,kinyongo,s,kilekile,kisambo,madhehebu,NA,sdfdsf,NA,1,NA,NA,NA,NA,NA,NA,NA,NA,NA,NA,NA,NA,NA,NA,NA,NA,NA,NA,NA
70b75,shallow,flow.Sequence,3_0_1_0_3_1,NA,NA,completion,9434.879,1622407.3,1622405.654,1622422.323,1631857.202,1631860.8,2023-01-14T11:17:38Z,1631873.871,NULL,Stimmung,kinyongo,s,kilekile,kisambo,madhehebu,NA,sdfdsf,NA,1,NA,NA,NA,NA,NA,NA,NA,NA,NA,NA,NA,NA,NA,NA,NA,NA,NA,NA,NA
70b75,task,flow.Sequence,3_0_1_0_3,NA,NA,completion,9434.879,1622407.2,1622405.654,1622422.323,1631857.202,1631860.9,2023-01-14T11:17:38Z,1631873.871,NULL,Stimmung,kinyongo,s,kilekile,kisambo,madhehebu,NA,sdfdsf,NA,1,NA,NA,NA,NA,NA,NA,NA,NA,NA,NA,NA,NA,NA,NA,NA,NA,NA,NA,NA
70b75,Deep Question,html.Page,3_0_1_0_4_0_0,NA,NA,form submission,4547.129,1631861,1631857.202,1631873.871,1636421,1636421.3,2023-01-14T11:17:43Z,1636424.738,NULL,Können,unaweza,d,NA,NA,NA,m,NA,NA,1,NA,NA,NA,NA,NA,NA,NA,NA,NA,NA,NA,NA,NA,NA,NA,NA,NA,NA,NA
70b75,"""Richtig""-Screen",canvas.Screen,3_0_1_0_4_0_1,NA,NA,skipped,NA,1636422.9,NA,NA,1636421,1636423,2023-01-14T11:17:43Z,1636424.738,NULL,Können,unaweza,d,NA,NA,NA,NA,sdfdsf,NA,1,NA,NA,NA,NA,NA,NA,NA,NA,NA,NA,NA,NA,NA,NA,NA,NA,NA,NA,NA
70b75,"""Falsch""-Screen",canvas.Screen,3_0_1_0_4_0_2,NA,NA,timeout,5000.7000000002,1636423.5,1636408.069,1636424.738,1641408.769,1641411,2023-01-14T11:17:48Z,1641425.438,NULL,Können,unaweza,d,NA,NA,NA,NA,sdfdsf,0,1,NA,NA,NA,NA,NA,NA,NA,NA,NA,NA,NA,NA,NA,NA,NA,NA,NA,NA,NA
70b75,deep,flow.Sequence,3_0_1_0_4_0,NA,NA,completion,9534.898,1631861,1631857.202,1631873.871,1641408.769,1641411.1,2023-01-14T11:17:48Z,1641425.438,NULL,Können,unaweza,d,NA,NA,NA,NA,sdfdsf,NA,1,NA,NA,NA,NA,NA,NA,NA,NA,NA,NA,NA,NA,NA,NA,NA,NA,NA,NA,NA
70b75,shallow,flow.Sequence,3_0_1_0_4_1,NA,NA,skipped,NA,1641411.2,NA,NA,1641408.769,1641411.2,2023-01-14T11:17:48Z,1641425.438,NULL,Können,unaweza,d,NA,NA,NA,NA,sdfdsf,NA,1,NA,NA,NA,NA,NA,NA,NA,NA,NA,NA,NA,NA,NA,NA,NA,NA,NA,NA,NA
70b75,task,flow.Sequence,3_0_1_0_4,NA,NA,completion,9534.898,1631861,1631857.202,1631873.871,1641408.769,1641411.3,2023-01-14T11:17:48Z,1641425.438,NULL,Können,unaweza,d,NA,NA,NA,NA,sdfdsf,NA,1,NA,NA,NA,NA,NA,NA,NA,NA,NA,NA,NA,NA,NA,NA,NA,NA,NA,NA,NA
70b75,deep,flow.Sequence,3_0_1_0_5_0,NA,NA,skipped,NA,1641411.4,NA,NA,1641408.769,1641411.4,2023-01-14T11:17:48Z,1641425.438,NULL,Betrüger,mdanganyifu,s,mwanamuziki,wastani,mahakama,NA,sdfdsf,NA,1,NA,NA,NA,NA,NA,NA,NA,NA,NA,NA,NA,NA,NA,NA,NA,NA,NA,NA,NA
70b75,Shallow Question,html.Page,3_0_1_0_5_1_0,NA,NA,form submission,5196.861999982,1641411.5,1641408.769,1641425.438,1646622.3,1646622.5,2023-01-14T11:17:53Z,1646626.392,NULL,Betrüger,mdanganyifu,s,mwanamuziki,wastani,mahakama,mdanganyifu,NA,NA,1,NA,NA,NA,NA,NA,NA,NA,NA,NA,NA,NA,NA,NA,NA,NA,NA,NA,NA,NA
70b75,"""Richtig""-Screen",canvas.Screen,3_0_1_0_5_1_1,NA,NA,timeout,5000.7,1646623.9,1646609.723,1646626.392,1651610.423,1651612.4,2023-01-14T11:17:58Z,1651627.092,NULL,Betrüger,mdanganyifu,s,mwanamuziki,wastani,mahakama,NA,sdfdsf,1,1,NA,NA,NA,NA,NA,NA,NA,NA,NA,NA,NA,NA,NA,NA,NA,NA,NA,NA,NA
70b75,"""Falsch""-Screen",canvas.Screen,3_0_1_0_5_1_2,NA,NA,skipped,NA,1651615.3,NA,NA,1651610.423,1651615.4,2023-01-14T11:17:58Z,1651627.092,NULL,Betrüger,mdanganyifu,s,mwanamuziki,wastani,mahakama,NA,sdfdsf,NA,1,NA,NA,NA,NA,NA,NA,NA,NA,NA,NA,NA,NA,NA,NA,NA,NA,NA,NA,NA
70b75,shallow,flow.Sequence,3_0_1_0_5_1,NA,NA,completion,10184.985,1641411.5,1641408.769,1641425.438,1651610.423,1651615.7,2023-01-14T11:17:58Z,1651627.092,NULL,Betrüger,mdanganyifu,s,mwanamuziki,wastani,mahakama,NA,sdfdsf,NA,1,NA,NA,NA,NA,NA,NA,NA,NA,NA,NA,NA,NA,NA,NA,NA,NA,NA,NA,NA
70b75,task,flow.Sequence,3_0_1_0_5,NA,NA,completion,10184.985,1641411.4,1641408.769,1641425.438,1651610.423,1651615.8,2023-01-14T11:17:58Z,1651627.092,NULL,Betrüger,mdanganyifu,s,mwanamuziki,wastani,mahakama,NA,sdfdsf,NA,1,NA,NA,NA,NA,NA,NA,NA,NA,NA,NA,NA,NA,NA,NA,NA,NA,NA,NA,NA
70b75,Deep Question,html.Page,3_0_1_0_6_0_0,NA,NA,form submission,4835.1079999881,1651615.9,1651610.423,1651627.092,1656462.2,1656462.5,2023-01-14T11:18:03Z,1656461.328,NULL,Kreativität,ubunifu,d,NA,NA,NA,m,NA,NA,1,NA,NA,NA,NA,NA,NA,NA,NA,NA,NA,NA,NA,NA,NA,NA,NA,NA,NA,NA
70b75,"""Richtig""-Screen",canvas.Screen,3_0_1_0_6_0_1,NA,NA,skipped,NA,1656464.2,NA,NA,1656462.2,1656464.4,2023-01-14T11:18:03Z,1656461.328,NULL,Kreativität,ubunifu,d,NA,NA,NA,NA,sdfdsf,NA,1,NA,NA,NA,NA,NA,NA,NA,NA,NA,NA,NA,NA,NA,NA,NA,NA,NA,NA,NA
70b75,"""Falsch""-Screen",canvas.Screen,3_0_1_0_6_0_2,NA,NA,timeout,5000.7,1656465,1656444.659,1656461.328,1661445.359,1661446,2023-01-14T11:18:08Z,1661462.028,NULL,Kreativität,ubunifu,d,NA,NA,NA,NA,sdfdsf,0,1,NA,NA,NA,NA,NA,NA,NA,NA,NA,NA,NA,NA,NA,NA,NA,NA,NA,NA,NA
70b75,deep,flow.Sequence,3_0_1_0_6_0,NA,NA,completion,9818.267,1651615.8,1651610.423,1651627.092,1661445.359,1661446.2,2023-01-14T11:18:08Z,1661462.028,NULL,Kreativität,ubunifu,d,NA,NA,NA,NA,sdfdsf,NA,1,NA,NA,NA,NA,NA,NA,NA,NA,NA,NA,NA,NA,NA,NA,NA,NA,NA,NA,NA
70b75,shallow,flow.Sequence,3_0_1_0_6_1,NA,NA,skipped,NA,1661446.3,NA,NA,1661445.359,1661446.3,2023-01-14T11:18:08Z,1661462.028,NULL,Kreativität,ubunifu,d,NA,NA,NA,NA,sdfdsf,NA,1,NA,NA,NA,NA,NA,NA,NA,NA,NA,NA,NA,NA,NA,NA,NA,NA,NA,NA,NA
70b75,task,flow.Sequence,3_0_1_0_6,NA,NA,completion,9818.267,1651615.8,1651610.423,1651627.092,1661445.359,1661446.4,2023-01-14T11:18:08Z,1661462.028,NULL,Kreativität,ubunifu,d,NA,NA,NA,NA,sdfdsf,NA,1,NA,NA,NA,NA,NA,NA,NA,NA,NA,NA,NA,NA,NA,NA,NA,NA,NA,NA,NA
70b75,Deep Question,html.Page,3_0_1_0_7_0_0,NA,NA,form submission,6630.8719999762,1661446.5,1661445.359,1661462.028,1668092.9,1668093,2023-01-14T11:18:14Z,1668096.519,NULL,Respekt,heshima,d,NA,NA,NA,udhari,NA,NA,1,NA,NA,NA,NA,NA,NA,NA,NA,NA,NA,NA,NA,NA,NA,NA,NA,NA,NA,NA
70b75,"""Richtig""-Screen",canvas.Screen,3_0_1_0_7_0_1,NA,NA,skipped,NA,1668094.5,NA,NA,1668092.9,1668094.6,2023-01-14T11:18:14Z,1668096.519,NULL,Respekt,heshima,d,NA,NA,NA,NA,sdfdsf,NA,1,NA,NA,NA,NA,NA,NA,NA,NA,NA,NA,NA,NA,NA,NA,NA,NA,NA,NA,NA
70b75,"""Falsch""-Screen",canvas.Screen,3_0_1_0_7_0_2,NA,NA,timeout,5000.7,1668095.1,1668079.85,1668096.519,1673080.55,1673081.5,2023-01-14T11:18:19Z,1673097.219,NULL,Respekt,heshima,d,NA,NA,NA,NA,sdfdsf,0,1,NA,NA,NA,NA,NA,NA,NA,NA,NA,NA,NA,NA,NA,NA,NA,NA,NA,NA,NA
70b75,deep,flow.Sequence,3_0_1_0_7_0,NA,NA,completion,11618.522,1661446.5,1661445.359,1661462.028,1673080.55,1673081.6,2023-01-14T11:18:19Z,1673097.219,NULL,Respekt,heshima,d,NA,NA,NA,NA,sdfdsf,NA,1,NA,NA,NA,NA,NA,NA,NA,NA,NA,NA,NA,NA,NA,NA,NA,NA,NA,NA,NA
70b75,shallow,flow.Sequence,3_0_1_0_7_1,NA,NA,skipped,NA,1673081.7,NA,NA,1673080.55,1673081.8,2023-01-14T11:18:19Z,1673097.219,NULL,Respekt,heshima,d,NA,NA,NA,NA,sdfdsf,NA,1,NA,NA,NA,NA,NA,NA,NA,NA,NA,NA,NA,NA,NA,NA,NA,NA,NA,NA,NA
70b75,task,flow.Sequence,3_0_1_0_7,NA,NA,completion,11618.522,1661446.5,1661445.359,1661462.028,1673080.55,1673081.9,2023-01-14T11:18:19Z,1673097.219,NULL,Respekt,heshima,d,NA,NA,NA,NA,sdfdsf,NA,1,NA,NA,NA,NA,NA,NA,NA,NA,NA,NA,NA,NA,NA,NA,NA,NA,NA,NA,NA
70b75,block,flow.Loop,3_0_1_0,NA,NA,completion,80546.465,1592521.2,1592517.416,1592534.085,1673080.55,1673082,2023-01-14T11:18:19Z,1673097.219,NULL,NA,NA,NA,NA,NA,NA,NA,sdfdsf,NA,1,NA,NA,NA,NA,NA,NA,NA,NA,NA,NA,NA,NA,NA,NA,NA,NA,NA,NA,NA
70b75,weiter,canvas.Screen,3_0_1_1,sdf,keypress(Space),response,809.58099998208,1673082.1,1673080.55,1673097.219,1673906.8,1673910.6,2023-01-14T11:18:20Z,1673947.338,NULL,NA,NA,NA,NA,NA,NA,NA,sdfdsf,NA,1,NA,NA,NA,NA,NA,NA,NA,NA,NA,NA,NA,NA,NA,NA,NA,NA,NA,NA,NA
70b75,check continue,flow.Sequence,3_0_1,NA,NA,completion,81372.714999982,1592521.2,1592517.416,1592534.085,1673906.8,1673910.8,2023-01-14T11:18:20Z,1673947.338,NULL,NA,NA,NA,NA,NA,NA,NA,sdfdsf,NA,1,NA,NA,NA,NA,NA,NA,NA,NA,NA,NA,NA,NA,NA,NA,NA,NA,NA,NA,NA
70b75,Deep Question,html.Page,3_0_2_0_0_0_0,NA,NA,form submission,5178.162,1673939.6,1673930.669,1673947.338,1679125.5,1679125.9,2023-01-14T11:18:25Z,1679131.621,NULL,Können,unaweza,d,NA,NA,NA,ubekwezi,NA,NA,2,NA,NA,NA,NA,NA,NA,NA,NA,NA,NA,NA,NA,NA,NA,NA,NA,NA,NA,NA
70b75,"""Richtig""-Screen",canvas.Screen,3_0_2_0_0_0_1,NA,NA,skipped,NA,1679127.4,NA,NA,1679125.5,1679127.5,2023-01-14T11:18:25Z,1679131.621,NULL,Können,unaweza,d,NA,NA,NA,NA,sdf,NA,2,NA,NA,NA,NA,NA,NA,NA,NA,NA,NA,NA,NA,NA,NA,NA,NA,NA,NA,NA
70b75,"""Falsch""-Screen",canvas.Screen,3_0_2_0_0_0_2,NA,NA,timeout,5000.7,1679128.2,1679114.952,1679131.621,1684115.652,1684116.5,2023-01-14T11:18:30Z,1684132.321,NULL,Können,unaweza,d,NA,NA,NA,NA,sdf,0,2,NA,NA,NA,NA,NA,NA,NA,NA,NA,NA,NA,NA,NA,NA,NA,NA,NA,NA,NA
70b75,deep,flow.Sequence,3_0_2_0_0_0,NA,NA,completion,10168.314,1673939.5,1673930.669,1673947.338,1684115.652,1684116.7,2023-01-14T11:18:30Z,1684132.321,NULL,Können,unaweza,d,NA,NA,NA,NA,sdf,NA,2,NA,NA,NA,NA,NA,NA,NA,NA,NA,NA,NA,NA,NA,NA,NA,NA,NA,NA,NA
70b75,shallow,flow.Sequence,3_0_2_0_0_1,NA,NA,skipped,NA,1684116.7,NA,NA,1684115.652,1684116.8,2023-01-14T11:18:30Z,1684132.321,NULL,Können,unaweza,d,NA,NA,NA,NA,sdf,NA,2,NA,NA,NA,NA,NA,NA,NA,NA,NA,NA,NA,NA,NA,NA,NA,NA,NA,NA,NA
70b75,task,flow.Sequence,3_0_2_0_0,NA,NA,completion,10168.314,1673939.5,1673930.669,1673947.338,1684115.652,1684116.9,2023-01-14T11:18:30Z,1684132.321,NULL,Können,unaweza,d,NA,NA,NA,NA,sdf,NA,2,NA,NA,NA,NA,NA,NA,NA,NA,NA,NA,NA,NA,NA,NA,NA,NA,NA,NA,NA
70b75,deep,flow.Sequence,3_0_2_0_1_0,NA,NA,skipped,NA,1684117,NA,NA,1684115.652,1684117,2023-01-14T11:18:30Z,1684132.321,NULL,Betrüger,mdanganyifu,s,mwanamuziki,wastani,mahakama,NA,sdf,NA,2,NA,NA,NA,NA,NA,NA,NA,NA,NA,NA,NA,NA,NA,NA,NA,NA,NA,NA,NA
70b75,Shallow Question,html.Page,3_0_2_0_1_1_0,NA,NA,form submission,4238.278999994,1684117.2,1684115.652,1684132.321,1688370.6,1688370.8,2023-01-14T11:18:35Z,1688383.14,NULL,Betrüger,mdanganyifu,s,mwanamuziki,wastani,mahakama,mdanganyifu,NA,NA,2,NA,NA,NA,NA,NA,NA,NA,NA,NA,NA,NA,NA,NA,NA,NA,NA,NA,NA,NA
70b75,"""Richtig""-Screen",canvas.Screen,3_0_2_0_1_1_1,NA,NA,timeout,5000.7000000002,1688372.4,1688366.471,1688383.14,1693367.171,1693369.7,2023-01-14T11:18:40Z,1693383.84,NULL,Betrüger,mdanganyifu,s,mwanamuziki,wastani,mahakama,NA,sdf,1,2,NA,NA,NA,NA,NA,NA,NA,NA,NA,NA,NA,NA,NA,NA,NA,NA,NA,NA,NA
70b75,"""Falsch""-Screen",canvas.Screen,3_0_2_0_1_1_2,NA,NA,skipped,NA,1693371.9,NA,NA,1693367.171,1693372,2023-01-14T11:18:40Z,1693383.84,NULL,Betrüger,mdanganyifu,s,mwanamuziki,wastani,mahakama,NA,sdf,NA,2,NA,NA,NA,NA,NA,NA,NA,NA,NA,NA,NA,NA,NA,NA,NA,NA,NA,NA,NA
70b75,shallow,flow.Sequence,3_0_2_0_1_1,NA,NA,completion,9234.8500000001,1684117.2,1684115.652,1684132.321,1693367.171,1693372.1,2023-01-14T11:18:40Z,1693383.84,NULL,Betrüger,mdanganyifu,s,mwanamuziki,wastani,mahakama,NA,sdf,NA,2,NA,NA,NA,NA,NA,NA,NA,NA,NA,NA,NA,NA,NA,NA,NA,NA,NA,NA,NA
70b75,task,flow.Sequence,3_0_2_0_1,NA,NA,completion,9234.8500000001,1684117,1684115.652,1684132.321,1693367.171,1693372.2,2023-01-14T11:18:40Z,1693383.84,NULL,Betrüger,mdanganyifu,s,mwanamuziki,wastani,mahakama,NA,sdf,NA,2,NA,NA,NA,NA,NA,NA,NA,NA,NA,NA,NA,NA,NA,NA,NA,NA,NA,NA,NA
70b75,Deep Question,html.Page,3_0_2_0_2_0_0,NA,NA,form submission,11213.359999988,1693372.3,1693367.171,1693383.84,1704597.2,1704597.3,2023-01-14T11:18:51Z,1704602.302,NULL,Respekt,heshima,d,NA,NA,NA,hadhari,NA,NA,2,NA,NA,NA,NA,NA,NA,NA,NA,NA,NA,NA,NA,NA,NA,NA,NA,NA,NA,NA
70b75,"""Richtig""-Screen",canvas.Screen,3_0_2_0_2_0_1,NA,NA,skipped,NA,1704598.9,NA,NA,1704597.2,1704598.9,2023-01-14T11:18:51Z,1704602.302,NULL,Respekt,heshima,d,NA,NA,NA,NA,sdf,NA,2,NA,NA,NA,NA,NA,NA,NA,NA,NA,NA,NA,NA,NA,NA,NA,NA,NA,NA,NA
70b75,"""Falsch""-Screen",canvas.Screen,3_0_2_0_2_0_2,NA,NA,timeout,5000.7000000002,1704599.5,1704585.633,1704602.302,1709586.333,1709587,2023-01-14T11:18:56Z,1709603.002,NULL,Respekt,heshima,d,NA,NA,NA,NA,sdf,0,2,NA,NA,NA,NA,NA,NA,NA,NA,NA,NA,NA,NA,NA,NA,NA,NA,NA,NA,NA
70b75,deep,flow.Sequence,3_0_2_0_2_0,NA,NA,completion,16202.493,1693372.3,1693367.171,1693383.84,1709586.333,1709587.2,2023-01-14T11:18:56Z,1709603.002,NULL,Respekt,heshima,d,NA,NA,NA,NA,sdf,NA,2,NA,NA,NA,NA,NA,NA,NA,NA,NA,NA,NA,NA,NA,NA,NA,NA,NA,NA,NA
70b75,shallow,flow.Sequence,3_0_2_0_2_1,NA,NA,skipped,NA,1709587.3,NA,NA,1709586.333,1709587.3,2023-01-14T11:18:56Z,1709603.002,NULL,Respekt,heshima,d,NA,NA,NA,NA,sdf,NA,2,NA,NA,NA,NA,NA,NA,NA,NA,NA,NA,NA,NA,NA,NA,NA,NA,NA,NA,NA
70b75,task,flow.Sequence,3_0_2_0_2,NA,NA,completion,16202.493,1693372.3,1693367.171,1693383.84,1709586.333,1709587.5,2023-01-14T11:18:56Z,1709603.002,NULL,Respekt,heshima,d,NA,NA,NA,NA,sdf,NA,2,NA,NA,NA,NA,NA,NA,NA,NA,NA,NA,NA,NA,NA,NA,NA,NA,NA,NA,NA
70b75,Deep Question,html.Page,3_0_2_0_3_0_0,NA,NA,form submission,6721.8979999761,1709587.5,1709586.333,1709603.002,1716324.9,1716325.1,2023-01-14T11:19:02Z,1716337.586,NULL,Orientierung,urekebisho,d,NA,NA,NA,unabekezi,NA,NA,2,NA,NA,NA,NA,NA,NA,NA,NA,NA,NA,NA,NA,NA,NA,NA,NA,NA,NA,NA
70b75,"""Richtig""-Screen",canvas.Screen,3_0_2_0_3_0_1,NA,NA,skipped,NA,1716326.8,NA,NA,1716324.9,1716327,2023-01-14T11:19:02Z,1716337.586,NULL,Orientierung,urekebisho,d,NA,NA,NA,NA,sdf,NA,2,NA,NA,NA,NA,NA,NA,NA,NA,NA,NA,NA,NA,NA,NA,NA,NA,NA,NA,NA
70b75,"""Falsch""-Screen",canvas.Screen,3_0_2_0_3_0_2,NA,NA,timeout,5000.7000000002,1716327.6,1716320.917,1716337.586,1721321.617,1721322.4,2023-01-14T11:19:07Z,1721338.286,NULL,Orientierung,urekebisho,d,NA,NA,NA,NA,sdf,0,2,NA,NA,NA,NA,NA,NA,NA,NA,NA,NA,NA,NA,NA,NA,NA,NA,NA,NA,NA
70b75,deep,flow.Sequence,3_0_2_0_3_0,NA,NA,completion,11718.615,1709587.5,1709586.333,1709603.002,1721321.617,1721322.6,2023-01-14T11:19:07Z,1721338.286,NULL,Orientierung,urekebisho,d,NA,NA,NA,NA,sdf,NA,2,NA,NA,NA,NA,NA,NA,NA,NA,NA,NA,NA,NA,NA,NA,NA,NA,NA,NA,NA
70b75,shallow,flow.Sequence,3_0_2_0_3_1,NA,NA,skipped,NA,1721322.7,NA,NA,1721321.617,1721322.7,2023-01-14T11:19:07Z,1721338.286,NULL,Orientierung,urekebisho,d,NA,NA,NA,NA,sdf,NA,2,NA,NA,NA,NA,NA,NA,NA,NA,NA,NA,NA,NA,NA,NA,NA,NA,NA,NA,NA
70b75,task,flow.Sequence,3_0_2_0_3,NA,NA,completion,11718.615,1709587.5,1709586.333,1709603.002,1721321.617,1721322.9,2023-01-14T11:19:07Z,1721338.286,NULL,Orientierung,urekebisho,d,NA,NA,NA,NA,sdf,NA,2,NA,NA,NA,NA,NA,NA,NA,NA,NA,NA,NA,NA,NA,NA,NA,NA,NA,NA,NA
70b75,deep,flow.Sequence,3_0_2_0_4_0,NA,NA,skipped,NA,1721323,NA,NA,1721321.617,1721323.1,2023-01-14T11:19:07Z,1721338.286,NULL,Stimmung,kinyongo,s,kilekile,kisambo,madhehebu,NA,sdf,NA,2,NA,NA,NA,NA,NA,NA,NA,NA,NA,NA,NA,NA,NA,NA,NA,NA,NA,NA,NA
70b75,Shallow Question,html.Page,3_0_2_0_4_1_0,NA,NA,form submission,2994.913999988,1721323.2,1721321.617,1721338.286,1724333.2,1724333.5,2023-01-14T11:19:10Z,1724338.966,NULL,Stimmung,kinyongo,s,kilekile,kisambo,madhehebu,kinyongo,NA,NA,2,NA,NA,NA,NA,NA,NA,NA,NA,NA,NA,NA,NA,NA,NA,NA,NA,NA,NA,NA
70b75,"""Richtig""-Screen",canvas.Screen,3_0_2_0_4_1_1,NA,NA,timeout,5000.7,1724334.9,1724322.297,1724338.966,1729322.997,1729324.3,2023-01-14T11:19:15Z,1729339.666,NULL,Stimmung,kinyongo,s,kilekile,kisambo,madhehebu,NA,sdf,1,2,NA,NA,NA,NA,NA,NA,NA,NA,NA,NA,NA,NA,NA,NA,NA,NA,NA,NA,NA
70b75,"""Falsch""-Screen",canvas.Screen,3_0_2_0_4_1_2,NA,NA,skipped,NA,1729326,NA,NA,1729322.997,1729326,2023-01-14T11:19:15Z,1729339.666,NULL,Stimmung,kinyongo,s,kilekile,kisambo,madhehebu,NA,sdf,NA,2,NA,NA,NA,NA,NA,NA,NA,NA,NA,NA,NA,NA,NA,NA,NA,NA,NA,NA,NA
70b75,shallow,flow.Sequence,3_0_2_0_4_1,NA,NA,completion,7984.7109999999,1721323.1,1721321.617,1721338.286,1729322.997,1729326.2,2023-01-14T11:19:15Z,1729339.666,NULL,Stimmung,kinyongo,s,kilekile,kisambo,madhehebu,NA,sdf,NA,2,NA,NA,NA,NA,NA,NA,NA,NA,NA,NA,NA,NA,NA,NA,NA,NA,NA,NA,NA
70b75,task,flow.Sequence,3_0_2_0_4,NA,NA,completion,7984.7109999999,1721323,1721321.617,1721338.286,1729322.997,1729326.2,2023-01-14T11:19:15Z,1729339.666,NULL,Stimmung,kinyongo,s,kilekile,kisambo,madhehebu,NA,sdf,NA,2,NA,NA,NA,NA,NA,NA,NA,NA,NA,NA,NA,NA,NA,NA,NA,NA,NA,NA,NA
70b75,Deep Question,html.Page,3_0_2_0_5_0_0,NA,NA,form submission,16986.033999988,1729326.3,1729322.997,1729339.666,1746325.7,1746325.8,2023-01-14T11:19:32Z,1746325.83,NULL,Kreativität,ubunifu,d,NA,NA,NA,unabekhezi,NA,NA,2,NA,NA,NA,NA,NA,NA,NA,NA,NA,NA,NA,NA,NA,NA,NA,NA,NA,NA,NA
70b75,"""Richtig""-Screen",canvas.Screen,3_0_2_0_5_0_1,NA,NA,skipped,NA,1746327.4,NA,NA,1746325.7,1746327.5,2023-01-14T11:19:32Z,1746325.83,NULL,Kreativität,ubunifu,d,NA,NA,NA,NA,sdf,NA,2,NA,NA,NA,NA,NA,NA,NA,NA,NA,NA,NA,NA,NA,NA,NA,NA,NA,NA,NA
70b75,"""Falsch""-Screen",canvas.Screen,3_0_2_0_5_0_2,NA,NA,timeout,5000.7,1746328.1,1746309.161,1746325.83,1751309.861,1751311.1,2023-01-14T11:19:37Z,1751326.53,NULL,Kreativität,ubunifu,d,NA,NA,NA,NA,sdf,0,2,NA,NA,NA,NA,NA,NA,NA,NA,NA,NA,NA,NA,NA,NA,NA,NA,NA,NA,NA
70b75,deep,flow.Sequence,3_0_2_0_5_0,NA,NA,completion,21970.195,1729326.3,1729322.997,1729339.666,1751309.861,1751311.3,2023-01-14T11:19:37Z,1751326.53,NULL,Kreativität,ubunifu,d,NA,NA,NA,NA,sdf,NA,2,NA,NA,NA,NA,NA,NA,NA,NA,NA,NA,NA,NA,NA,NA,NA,NA,NA,NA,NA
70b75,shallow,flow.Sequence,3_0_2_0_5_1,NA,NA,skipped,NA,1751311.4,NA,NA,1751309.861,1751311.5,2023-01-14T11:19:37Z,1751326.53,NULL,Kreativität,ubunifu,d,NA,NA,NA,NA,sdf,NA,2,NA,NA,NA,NA,NA,NA,NA,NA,NA,NA,NA,NA,NA,NA,NA,NA,NA,NA,NA
70b75,task,flow.Sequence,3_0_2_0_5,NA,NA,completion,21970.195,1729326.3,1729322.997,1729339.666,1751309.861,1751311.6,2023-01-14T11:19:37Z,1751326.53,NULL,Kreativität,ubunifu,d,NA,NA,NA,NA,sdf,NA,2,NA,NA,NA,NA,NA,NA,NA,NA,NA,NA,NA,NA,NA,NA,NA,NA,NA,NA,NA
70b75,deep,flow.Sequence,3_0_2_0_6_0,NA,NA,skipped,NA,1751311.7,NA,NA,1751309.861,1751311.7,2023-01-14T11:19:37Z,1751326.53,NULL,Gefährdung,kuhatarisha,s,uchokozi,udhaifu,makorowezo,NA,sdf,NA,2,NA,NA,NA,NA,NA,NA,NA,NA,NA,NA,NA,NA,NA,NA,NA,NA,NA,NA,NA
70b75,Shallow Question,html.Page,3_0_2_0_6_1_0,NA,NA,form submission,5405.8699999761,1751311.7,1751309.861,1751326.53,1756732.4,1756732.5,2023-01-14T11:19:43Z,1756744.215,NULL,Gefährdung,kuhatarisha,s,uchokozi,udhaifu,makorowezo,kuhatarisha,NA,NA,2,NA,NA,NA,NA,NA,NA,NA,NA,NA,NA,NA,NA,NA,NA,NA,NA,NA,NA,NA
70b75,"""Richtig""-Screen",canvas.Screen,3_0_2_0_6_1_1,NA,NA,timeout,5000.7,1756734.2,1756727.546,1756744.215,1761728.246,1761729.4,2023-01-14T11:19:48Z,1761744.915,NULL,Gefährdung,kuhatarisha,s,uchokozi,udhaifu,makorowezo,NA,sdf,1,2,NA,NA,NA,NA,NA,NA,NA,NA,NA,NA,NA,NA,NA,NA,NA,NA,NA,NA,NA
70b75,"""Falsch""-Screen",canvas.Screen,3_0_2_0_6_1_2,NA,NA,skipped,NA,1761731.1,NA,NA,1761728.246,1761731.2,2023-01-14T11:19:48Z,1761744.915,NULL,Gefährdung,kuhatarisha,s,uchokozi,udhaifu,makorowezo,NA,sdf,NA,2,NA,NA,NA,NA,NA,NA,NA,NA,NA,NA,NA,NA,NA,NA,NA,NA,NA,NA,NA
70b75,shallow,flow.Sequence,3_0_2_0_6_1,NA,NA,completion,10401.716,1751311.7,1751309.861,1751326.53,1761728.246,1761731.3,2023-01-14T11:19:48Z,1761744.915,NULL,Gefährdung,kuhatarisha,s,uchokozi,udhaifu,makorowezo,NA,sdf,NA,2,NA,NA,NA,NA,NA,NA,NA,NA,NA,NA,NA,NA,NA,NA,NA,NA,NA,NA,NA
70b75,task,flow.Sequence,3_0_2_0_6,NA,NA,completion,10401.716,1751311.7,1751309.861,1751326.53,1761728.246,1761731.4,2023-01-14T11:19:48Z,1761744.915,NULL,Gefährdung,kuhatarisha,s,uchokozi,udhaifu,makorowezo,NA,sdf,NA,2,NA,NA,NA,NA,NA,NA,NA,NA,NA,NA,NA,NA,NA,NA,NA,NA,NA,NA,NA
70b75,deep,flow.Sequence,3_0_2_0_7_0,NA,NA,skipped,NA,1761731.4,NA,NA,1761728.246,1761731.5,2023-01-14T11:19:48Z,1761744.915,NULL,Kontrolle,kudhibiti,s,mbinguni,kufunga,utegemezi,NA,sdf,NA,2,NA,NA,NA,NA,NA,NA,NA,NA,NA,NA,NA,NA,NA,NA,NA,NA,NA,NA,NA
70b75,Shallow Question,html.Page,3_0_2_0_7_1_0,NA,NA,form submission,3789.8849999821,1761731.5,1761728.246,1761744.915,1765534.8,1765535,2023-01-14T11:19:52Z,1765545.447,NULL,Kontrolle,kudhibiti,s,mbinguni,kufunga,utegemezi,kudhibiti,NA,NA,2,NA,NA,NA,NA,NA,NA,NA,NA,NA,NA,NA,NA,NA,NA,NA,NA,NA,NA,NA
70b75,"""Richtig""-Screen",canvas.Screen,3_0_2_0_7_1_1,NA,NA,timeout,5000.7000000002,1765536.5,1765528.778,1765545.447,1770529.478,1770530.7,2023-01-14T11:19:57Z,1770546.147,NULL,Kontrolle,kudhibiti,s,mbinguni,kufunga,utegemezi,NA,sdf,1,2,NA,NA,NA,NA,NA,NA,NA,NA,NA,NA,NA,NA,NA,NA,NA,NA,NA,NA,NA
70b75,"""Falsch""-Screen",canvas.Screen,3_0_2_0_7_1_2,NA,NA,skipped,NA,1770532.1,NA,NA,1770529.478,1770532.2,2023-01-14T11:19:57Z,1770546.147,NULL,Kontrolle,kudhibiti,s,mbinguni,kufunga,utegemezi,NA,sdf,NA,2,NA,NA,NA,NA,NA,NA,NA,NA,NA,NA,NA,NA,NA,NA,NA,NA,NA,NA,NA
70b75,shallow,flow.Sequence,3_0_2_0_7_1,NA,NA,completion,8784.5629999998,1761731.5,1761728.246,1761744.915,1770529.478,1770532.5,2023-01-14T11:19:57Z,1770546.147,NULL,Kontrolle,kudhibiti,s,mbinguni,kufunga,utegemezi,NA,sdf,NA,2,NA,NA,NA,NA,NA,NA,NA,NA,NA,NA,NA,NA,NA,NA,NA,NA,NA,NA,NA
70b75,task,flow.Sequence,3_0_2_0_7,NA,NA,completion,8784.5629999998,1761731.4,1761728.246,1761744.915,1770529.478,1770532.5,2023-01-14T11:19:57Z,1770546.147,NULL,Kontrolle,kudhibiti,s,mbinguni,kufunga,utegemezi,NA,sdf,NA,2,NA,NA,NA,NA,NA,NA,NA,NA,NA,NA,NA,NA,NA,NA,NA,NA,NA,NA,NA
70b75,block,flow.Loop,3_0_2_0,NA,NA,completion,96582.14,1673939.5,1673930.669,1673947.338,1770529.478,1770532.6,2023-01-14T11:19:57Z,1770546.147,NULL,NA,NA,NA,NA,NA,NA,NA,sdf,NA,2,NA,NA,NA,NA,NA,NA,NA,NA,NA,NA,NA,NA,NA,NA,NA,NA,NA,NA,NA
70b75,weiter,canvas.Screen,3_0_2_1,sdf,keypress(Space),response,456.652999982,1770532.7,1770529.478,1770546.147,1771002.8,1771005,2023-01-14T11:19:57Z,1771029.548,NULL,NA,NA,NA,NA,NA,NA,NA,sdf,NA,2,NA,NA,NA,NA,NA,NA,NA,NA,NA,NA,NA,NA,NA,NA,NA,NA,NA,NA,NA
70b75,check continue,flow.Sequence,3_0_2,NA,NA,completion,97055.461999982,1673939.5,1673930.669,1673947.338,1771002.8,1771005.2,2023-01-14T11:19:57Z,1771029.548,NULL,NA,NA,NA,NA,NA,NA,NA,sdf,NA,2,NA,NA,NA,NA,NA,NA,NA,NA,NA,NA,NA,NA,NA,NA,NA,NA,NA,NA,NA
70b75,Deep Question,html.Page,3_0_3_0_0_0_0,NA,NA,form submission,24935.751999982,1771034.4,1770996.21,1771029.548,1795965.3,1795965.5,2023-01-14T11:20:22Z,1795967.281,NULL,Orientierung,urekebisho,d,NA,NA,NA,unawesi,NA,NA,3,NA,NA,NA,NA,NA,NA,NA,NA,NA,NA,NA,NA,NA,NA,NA,NA,NA,NA,NA
70b75,"""Richtig""-Screen",canvas.Screen,3_0_3_0_0_0_1,NA,NA,skipped,NA,1795967.4,NA,NA,1795965.3,1795967.5,2023-01-14T11:20:22Z,1795967.281,NULL,Orientierung,urekebisho,d,NA,NA,NA,NA,qt,NA,3,NA,NA,NA,NA,NA,NA,NA,NA,NA,NA,NA,NA,NA,NA,NA,NA,NA,NA,NA
70b75,"""Falsch""-Screen",canvas.Screen,3_0_3_0_0_0_2,NA,NA,timeout,5000.7,1795968.1,1795950.612,1795967.281,1800951.312,1800953.3,2023-01-14T11:20:27Z,1800967.981,NULL,Orientierung,urekebisho,d,NA,NA,NA,NA,qt,0,3,NA,NA,NA,NA,NA,NA,NA,NA,NA,NA,NA,NA,NA,NA,NA,NA,NA,NA,NA
70b75,deep,flow.Sequence,3_0_3_0_0_0,NA,NA,completion,29921.764,1771034.4,1770996.21,1771029.548,1800951.312,1800953.5,2023-01-14T11:20:27Z,1800967.981,NULL,Orientierung,urekebisho,d,NA,NA,NA,NA,qt,NA,3,NA,NA,NA,NA,NA,NA,NA,NA,NA,NA,NA,NA,NA,NA,NA,NA,NA,NA,NA
70b75,shallow,flow.Sequence,3_0_3_0_0_1,NA,NA,skipped,NA,1800953.5,NA,NA,1800951.312,1800953.6,2023-01-14T11:20:27Z,1800967.981,NULL,Orientierung,urekebisho,d,NA,NA,NA,NA,qt,NA,3,NA,NA,NA,NA,NA,NA,NA,NA,NA,NA,NA,NA,NA,NA,NA,NA,NA,NA,NA
70b75,task,flow.Sequence,3_0_3_0_0,NA,NA,completion,29921.764,1771034.4,1770996.21,1771029.548,1800951.312,1800953.7,2023-01-14T11:20:27Z,1800967.981,NULL,Orientierung,urekebisho,d,NA,NA,NA,NA,qt,NA,3,NA,NA,NA,NA,NA,NA,NA,NA,NA,NA,NA,NA,NA,NA,NA,NA,NA,NA,NA
70b75,Deep Question,html.Page,3_0_3_0_1_0_0,NA,NA,form submission,4269.3189999822,1800953.8,1800951.312,1800967.981,1805237.3,1805237.5,2023-01-14T11:20:31Z,1805252.14,NULL,Kreativität,ubunifu,d,NA,NA,NA,ubunufi,NA,NA,3,NA,NA,NA,NA,NA,NA,NA,NA,NA,NA,NA,NA,NA,NA,NA,NA,NA,NA,NA
70b75,"""Richtig""-Screen",canvas.Screen,3_0_3_0_1_0_1,NA,NA,skipped,NA,1805239.2,NA,NA,1805237.3,1805239.3,2023-01-14T11:20:31Z,1805252.14,NULL,Kreativität,ubunifu,d,NA,NA,NA,NA,qt,NA,3,NA,NA,NA,NA,NA,NA,NA,NA,NA,NA,NA,NA,NA,NA,NA,NA,NA,NA,NA
70b75,"""Falsch""-Screen",canvas.Screen,3_0_3_0_1_0_2,NA,NA,timeout,5000.7000000002,1805239.8,1805235.471,1805252.14,1810236.171,1810237.1,2023-01-14T11:20:36Z,1810252.84,NULL,Kreativität,ubunifu,d,NA,NA,NA,NA,qt,0,3,NA,NA,NA,NA,NA,NA,NA,NA,NA,NA,NA,NA,NA,NA,NA,NA,NA,NA,NA
70b75,deep,flow.Sequence,3_0_3_0_1_0,NA,NA,completion,9268.1900000002,1800953.7,1800951.312,1800967.981,1810236.171,1810237.2,2023-01-14T11:20:36Z,1810252.84,NULL,Kreativität,ubunifu,d,NA,NA,NA,NA,qt,NA,3,NA,NA,NA,NA,NA,NA,NA,NA,NA,NA,NA,NA,NA,NA,NA,NA,NA,NA,NA
70b75,shallow,flow.Sequence,3_0_3_0_1_1,NA,NA,skipped,NA,1810237.3,NA,NA,1810236.171,1810237.3,2023-01-14T11:20:36Z,1810252.84,NULL,Kreativität,ubunifu,d,NA,NA,NA,NA,qt,NA,3,NA,NA,NA,NA,NA,NA,NA,NA,NA,NA,NA,NA,NA,NA,NA,NA,NA,NA,NA
70b75,task,flow.Sequence,3_0_3_0_1,NA,NA,completion,9268.1900000002,1800953.7,1800951.312,1800967.981,1810236.171,1810237.4,2023-01-14T11:20:36Z,1810252.84,NULL,Kreativität,ubunifu,d,NA,NA,NA,NA,qt,NA,3,NA,NA,NA,NA,NA,NA,NA,NA,NA,NA,NA,NA,NA,NA,NA,NA,NA,NA,NA
70b75,Deep Question,html.Page,3_0_3_0_2_0_0,NA,NA,form submission,5792.459999982,1810237.6,1810236.171,1810252.84,1816045.3,1816045.5,2023-01-14T11:20:42Z,1816053.876,NULL,Respekt,heshima,d,NA,NA,NA,hashami,NA,NA,3,NA,NA,NA,NA,NA,NA,NA,NA,NA,NA,NA,NA,NA,NA,NA,NA,NA,NA,NA
70b75,"""Richtig""-Screen",canvas.Screen,3_0_3_0_2_0_1,NA,NA,skipped,NA,1816047.1,NA,NA,1816045.3,1816047.2,2023-01-14T11:20:42Z,1816053.876,NULL,Respekt,heshima,d,NA,NA,NA,NA,qt,NA,3,NA,NA,NA,NA,NA,NA,NA,NA,NA,NA,NA,NA,NA,NA,NA,NA,NA,NA,NA
70b75,"""Falsch""-Screen",canvas.Screen,3_0_3_0_2_0_2,NA,NA,timeout,5000.7,1816047.8,1816037.207,1816053.876,1821037.907,1821039.8,2023-01-14T11:20:47Z,1821054.576,NULL,Respekt,heshima,d,NA,NA,NA,NA,qt,0,3,NA,NA,NA,NA,NA,NA,NA,NA,NA,NA,NA,NA,NA,NA,NA,NA,NA,NA,NA
70b75,deep,flow.Sequence,3_0_3_0_2_0,NA,NA,completion,10785.067,1810237.6,1810236.171,1810252.84,1821037.907,1821040,2023-01-14T11:20:47Z,1821054.576,NULL,Respekt,heshima,d,NA,NA,NA,NA,qt,NA,3,NA,NA,NA,NA,NA,NA,NA,NA,NA,NA,NA,NA,NA,NA,NA,NA,NA,NA,NA
70b75,shallow,flow.Sequence,3_0_3_0_2_1,NA,NA,skipped,NA,1821040.1,NA,NA,1821037.907,1821040.1,2023-01-14T11:20:47Z,1821054.576,NULL,Respekt,heshima,d,NA,NA,NA,NA,qt,NA,3,NA,NA,NA,NA,NA,NA,NA,NA,NA,NA,NA,NA,NA,NA,NA,NA,NA,NA,NA
70b75,task,flow.Sequence,3_0_3_0_2,NA,NA,completion,10785.067,1810237.5,1810236.171,1810252.84,1821037.907,1821040.2,2023-01-14T11:20:47Z,1821054.576,NULL,Respekt,heshima,d,NA,NA,NA,NA,qt,NA,3,NA,NA,NA,NA,NA,NA,NA,NA,NA,NA,NA,NA,NA,NA,NA,NA,NA,NA,NA
70b75,deep,flow.Sequence,3_0_3_0_3_0,NA,NA,skipped,NA,1821040.3,NA,NA,1821037.907,1821040.4,2023-01-14T11:20:47Z,1821054.576,NULL,Betrüger,mdanganyifu,s,mwanamuziki,wastani,mahakama,NA,qt,NA,3,NA,NA,NA,NA,NA,NA,NA,NA,NA,NA,NA,NA,NA,NA,NA,NA,NA,NA,NA
70b75,Shallow Question,html.Page,3_0_3_0_3_1_0,NA,NA,form submission,3539.6239999882,1821040.5,1821037.907,1821054.576,1824594.2,1824594.5,2023-01-14T11:20:51Z,1824605.073,NULL,Betrüger,mdanganyifu,s,mwanamuziki,wastani,mahakama,mdanganyifu,NA,NA,3,NA,NA,NA,NA,NA,NA,NA,NA,NA,NA,NA,NA,NA,NA,NA,NA,NA,NA,NA
70b75,"""Richtig""-Screen",canvas.Screen,3_0_3_0_3_1_1,NA,NA,timeout,5000.7,1824596.1,1824588.404,1824605.073,1829589.104,1829589.6,2023-01-14T11:20:56Z,1829605.773,NULL,Betrüger,mdanganyifu,s,mwanamuziki,wastani,mahakama,NA,qt,1,3,NA,NA,NA,NA,NA,NA,NA,NA,NA,NA,NA,NA,NA,NA,NA,NA,NA,NA,NA
70b75,"""Falsch""-Screen",canvas.Screen,3_0_3_0_3_1_2,NA,NA,skipped,NA,1829591.1,NA,NA,1829589.104,1829591.1,2023-01-14T11:20:56Z,1829605.773,NULL,Betrüger,mdanganyifu,s,mwanamuziki,wastani,mahakama,NA,qt,NA,3,NA,NA,NA,NA,NA,NA,NA,NA,NA,NA,NA,NA,NA,NA,NA,NA,NA,NA,NA
70b75,shallow,flow.Sequence,3_0_3_0_3_1,NA,NA,completion,8534.5280000002,1821040.4,1821037.907,1821054.576,1829589.104,1829591.3,2023-01-14T11:20:56Z,1829605.773,NULL,Betrüger,mdanganyifu,s,mwanamuziki,wastani,mahakama,NA,qt,NA,3,NA,NA,NA,NA,NA,NA,NA,NA,NA,NA,NA,NA,NA,NA,NA,NA,NA,NA,NA
70b75,task,flow.Sequence,3_0_3_0_3,NA,NA,completion,8534.5280000002,1821040.3,1821037.907,1821054.576,1829589.104,1829591.3,2023-01-14T11:20:56Z,1829605.773,NULL,Betrüger,mdanganyifu,s,mwanamuziki,wastani,mahakama,NA,qt,NA,3,NA,NA,NA,NA,NA,NA,NA,NA,NA,NA,NA,NA,NA,NA,NA,NA,NA,NA,NA
70b75,deep,flow.Sequence,3_0_3_0_4_0,NA,NA,skipped,NA,1829591.5,NA,NA,1829589.104,1829591.5,2023-01-14T11:20:56Z,1829605.773,NULL,Kontrolle,kudhibiti,s,mbinguni,kufunga,utegemezi,NA,qt,NA,3,NA,NA,NA,NA,NA,NA,NA,NA,NA,NA,NA,NA,NA,NA,NA,NA,NA,NA,NA
70b75,Shallow Question,html.Page,3_0_3_0_4_1_0,NA,NA,form submission,4574.926999988,1829591.5,1829589.104,1829605.773,1834180.7,1834180.9,2023-01-14T11:21:00Z,1834190.079,NULL,Kontrolle,kudhibiti,s,mbinguni,kufunga,utegemezi,kudhibiti,NA,NA,3,NA,NA,NA,NA,NA,NA,NA,NA,NA,NA,NA,NA,NA,NA,NA,NA,NA,NA,NA
70b75,"""Richtig""-Screen",canvas.Screen,3_0_3_0_4_1_1,NA,NA,timeout,5000.7000000002,1834182.5,1834173.41,1834190.079,1839174.11,1839176.6,2023-01-14T11:21:05Z,1839190.779,NULL,Kontrolle,kudhibiti,s,mbinguni,kufunga,utegemezi,NA,qt,1,3,NA,NA,NA,NA,NA,NA,NA,NA,NA,NA,NA,NA,NA,NA,NA,NA,NA,NA,NA
70b75,"""Falsch""-Screen",canvas.Screen,3_0_3_0_4_1_2,NA,NA,skipped,NA,1839178.5,NA,NA,1839174.11,1839178.7,2023-01-14T11:21:05Z,1839190.779,NULL,Kontrolle,kudhibiti,s,mbinguni,kufunga,utegemezi,NA,qt,NA,3,NA,NA,NA,NA,NA,NA,NA,NA,NA,NA,NA,NA,NA,NA,NA,NA,NA,NA,NA
70b75,shallow,flow.Sequence,3_0_3_0_4_1,NA,NA,completion,9568.3370000001,1829591.5,1829589.104,1829605.773,1839174.11,1839178.9,2023-01-14T11:21:05Z,1839190.779,NULL,Kontrolle,kudhibiti,s,mbinguni,kufunga,utegemezi,NA,qt,NA,3,NA,NA,NA,NA,NA,NA,NA,NA,NA,NA,NA,NA,NA,NA,NA,NA,NA,NA,NA
70b75,task,flow.Sequence,3_0_3_0_4,NA,NA,completion,9568.3370000001,1829591.4,1829589.104,1829605.773,1839174.11,1839179,2023-01-14T11:21:05Z,1839190.779,NULL,Kontrolle,kudhibiti,s,mbinguni,kufunga,utegemezi,NA,qt,NA,3,NA,NA,NA,NA,NA,NA,NA,NA,NA,NA,NA,NA,NA,NA,NA,NA,NA,NA,NA
70b75,Deep Question,html.Page,3_0_3_0_5_0_0,NA,NA,form submission,17462.620999976,1839179.1,1839174.11,1839190.779,1856653.4,1856653.6,2023-01-14T11:21:23Z,1856660.13,NULL,Können,unaweza,d,NA,NA,NA,m,NA,NA,3,NA,NA,NA,NA,NA,NA,NA,NA,NA,NA,NA,NA,NA,NA,NA,NA,NA,NA,NA
70b75,"""Richtig""-Screen",canvas.Screen,3_0_3_0_5_0_1,NA,NA,skipped,NA,1856655.4,NA,NA,1856653.4,1856655.4,2023-01-14T11:21:23Z,1856660.13,NULL,Können,unaweza,d,NA,NA,NA,NA,qt,NA,3,NA,NA,NA,NA,NA,NA,NA,NA,NA,NA,NA,NA,NA,NA,NA,NA,NA,NA,NA
70b75,"""Falsch""-Screen",canvas.Screen,3_0_3_0_5_0_2,NA,NA,timeout,5000.7000000002,1856656,1856643.461,1856660.13,1861644.161,1861645,2023-01-14T11:21:28Z,1861660.83,NULL,Können,unaweza,d,NA,NA,NA,NA,qt,0,3,NA,NA,NA,NA,NA,NA,NA,NA,NA,NA,NA,NA,NA,NA,NA,NA,NA,NA,NA
70b75,deep,flow.Sequence,3_0_3_0_5_0,NA,NA,completion,22453.382,1839179.1,1839174.11,1839190.779,1861644.161,1861645.1,2023-01-14T11:21:28Z,1861660.83,NULL,Können,unaweza,d,NA,NA,NA,NA,qt,NA,3,NA,NA,NA,NA,NA,NA,NA,NA,NA,NA,NA,NA,NA,NA,NA,NA,NA,NA,NA
70b75,shallow,flow.Sequence,3_0_3_0_5_1,NA,NA,skipped,NA,1861645.2,NA,NA,1861644.161,1861645.2,2023-01-14T11:21:28Z,1861660.83,NULL,Können,unaweza,d,NA,NA,NA,NA,qt,NA,3,NA,NA,NA,NA,NA,NA,NA,NA,NA,NA,NA,NA,NA,NA,NA,NA,NA,NA,NA
70b75,task,flow.Sequence,3_0_3_0_5,NA,NA,completion,22453.382,1839179.1,1839174.11,1839190.779,1861644.161,1861645.3,2023-01-14T11:21:28Z,1861660.83,NULL,Können,unaweza,d,NA,NA,NA,NA,qt,NA,3,NA,NA,NA,NA,NA,NA,NA,NA,NA,NA,NA,NA,NA,NA,NA,NA,NA,NA,NA
70b75,deep,flow.Sequence,3_0_3_0_6_0,NA,NA,skipped,NA,1861645.3,NA,NA,1861644.161,1861645.4,2023-01-14T11:21:28Z,1861660.83,NULL,Stimmung,kinyongo,s,kilekile,kisambo,madhehebu,NA,qt,NA,3,NA,NA,NA,NA,NA,NA,NA,NA,NA,NA,NA,NA,NA,NA,NA,NA,NA,NA,NA
70b75,Shallow Question,html.Page,3_0_3_0_6_1_0,NA,NA,form submission,2885.869999988,1861645.4,1861644.161,1861660.83,1864546.7,1864547,2023-01-14T11:21:31Z,1864561.709,NULL,Stimmung,kinyongo,s,kilekile,kisambo,madhehebu,kinyongo,NA,NA,3,NA,NA,NA,NA,NA,NA,NA,NA,NA,NA,NA,NA,NA,NA,NA,NA,NA,NA,NA
70b75,"""Richtig""-Screen",canvas.Screen,3_0_3_0_6_1_1,NA,NA,timeout,5000.7,1864548.5,1864545.04,1864561.709,1869545.74,1869547.4,2023-01-14T11:21:36Z,1869562.409,NULL,Stimmung,kinyongo,s,kilekile,kisambo,madhehebu,NA,qt,1,3,NA,NA,NA,NA,NA,NA,NA,NA,NA,NA,NA,NA,NA,NA,NA,NA,NA,NA,NA
70b75,"""Falsch""-Screen",canvas.Screen,3_0_3_0_6_1_2,NA,NA,skipped,NA,1869549,NA,NA,1869545.74,1869549.2,2023-01-14T11:21:36Z,1869562.409,NULL,Stimmung,kinyongo,s,kilekile,kisambo,madhehebu,NA,qt,NA,3,NA,NA,NA,NA,NA,NA,NA,NA,NA,NA,NA,NA,NA,NA,NA,NA,NA,NA,NA
70b75,shallow,flow.Sequence,3_0_3_0_6_1,NA,NA,completion,7884.9099999999,1861645.4,1861644.161,1861660.83,1869545.74,1869549.3,2023-01-14T11:21:36Z,1869562.409,NULL,Stimmung,kinyongo,s,kilekile,kisambo,madhehebu,NA,qt,NA,3,NA,NA,NA,NA,NA,NA,NA,NA,NA,NA,NA,NA,NA,NA,NA,NA,NA,NA,NA
70b75,task,flow.Sequence,3_0_3_0_6,NA,NA,completion,7884.9099999999,1861645.3,1861644.161,1861660.83,1869545.74,1869549.3,2023-01-14T11:21:36Z,1869562.409,NULL,Stimmung,kinyongo,s,kilekile,kisambo,madhehebu,NA,qt,NA,3,NA,NA,NA,NA,NA,NA,NA,NA,NA,NA,NA,NA,NA,NA,NA,NA,NA,NA,NA
70b75,deep,flow.Sequence,3_0_3_0_7_0,NA,NA,skipped,NA,1869549.4,NA,NA,1869545.74,1869549.5,2023-01-14T11:21:36Z,1869562.409,NULL,Gefährdung,kuhatarisha,s,uchokozi,udhaifu,makorowezo,NA,qt,NA,3,NA,NA,NA,NA,NA,NA,NA,NA,NA,NA,NA,NA,NA,NA,NA,NA,NA,NA,NA
70b75,Shallow Question,html.Page,3_0_3_0_7_1_0,NA,NA,form submission,2869.1909999941,1869549.6,1869545.74,1869562.409,1872431.6,1872431.8,2023-01-14T11:21:39Z,1872446.369,NULL,Gefährdung,kuhatarisha,s,uchokozi,udhaifu,makorowezo,kuhatarisha,NA,NA,3,NA,NA,NA,NA,NA,NA,NA,NA,NA,NA,NA,NA,NA,NA,NA,NA,NA,NA,NA
70b75,"""Richtig""-Screen",canvas.Screen,3_0_3_0_7_1_1,NA,NA,timeout,5000.7,1872432.4,1872429.7,1872446.369,1877430.4,1877431.7,2023-01-14T11:21:44Z,1877447.069,NULL,Gefährdung,kuhatarisha,s,uchokozi,udhaifu,makorowezo,NA,qt,1,3,NA,NA,NA,NA,NA,NA,NA,NA,NA,NA,NA,NA,NA,NA,NA,NA,NA,NA,NA
70b75,"""Falsch""-Screen",canvas.Screen,3_0_3_0_7_1_2,NA,NA,skipped,NA,1877433.6,NA,NA,1877430.4,1877433.7,2023-01-14T11:21:44Z,1877447.069,NULL,Gefährdung,kuhatarisha,s,uchokozi,udhaifu,makorowezo,NA,qt,NA,3,NA,NA,NA,NA,NA,NA,NA,NA,NA,NA,NA,NA,NA,NA,NA,NA,NA,NA,NA
70b75,shallow,flow.Sequence,3_0_3_0_7_1,NA,NA,completion,7867.9909999999,1869549.6,1869545.74,1869562.409,1877430.4,1877433.8,2023-01-14T11:21:44Z,1877447.069,NULL,Gefährdung,kuhatarisha,s,uchokozi,udhaifu,makorowezo,NA,qt,NA,3,NA,NA,NA,NA,NA,NA,NA,NA,NA,NA,NA,NA,NA,NA,NA,NA,NA,NA,NA
70b75,task,flow.Sequence,3_0_3_0_7,NA,NA,completion,7867.9909999999,1869549.4,1869545.74,1869562.409,1877430.4,1877433.9,2023-01-14T11:21:44Z,1877447.069,NULL,Gefährdung,kuhatarisha,s,uchokozi,udhaifu,makorowezo,NA,qt,NA,3,NA,NA,NA,NA,NA,NA,NA,NA,NA,NA,NA,NA,NA,NA,NA,NA,NA,NA,NA
70b75,block,flow.Loop,3_0_3_0,NA,NA,completion,106400.852,1771034.3,1770996.21,1771029.548,1877430.4,1877434.1,2023-01-14T11:21:44Z,1877447.069,NULL,NA,NA,NA,NA,NA,NA,NA,qt,NA,3,NA,NA,NA,NA,NA,NA,NA,NA,NA,NA,NA,NA,NA,NA,NA,NA,NA,NA,NA
70b75,weiter,canvas.Screen,3_0_3_1,sdf,keypress(Space),response,675.63099998818,1877434.1,1877430.4,1877447.069,1878122.7,1878125.1,2023-01-14T11:21:44Z,1878147.167,NULL,NA,NA,NA,NA,NA,NA,NA,qt,NA,3,NA,NA,NA,NA,NA,NA,NA,NA,NA,NA,NA,NA,NA,NA,NA,NA,NA,NA,NA
70b75,check continue,flow.Sequence,3_0_3,NA,NA,completion,107093.15199999,1771034.2,1770996.21,1771029.548,1878122.7,1878125.3,2023-01-14T11:21:44Z,1878147.167,NULL,NA,NA,NA,NA,NA,NA,NA,qt,NA,3,NA,NA,NA,NA,NA,NA,NA,NA,NA,NA,NA,NA,NA,NA,NA,NA,NA,NA,NA
70b75,Deep Question,html.Page,3_0_4_0_0_0_0,NA,NA,form submission,2681.9329999941,1878150.9,1878113.829,1878147.167,1880829.1,1880829.3,2023-01-14T11:21:47Z,1880830.876,NULL,Können,unaweza,d,NA,NA,NA,unaweza,NA,NA,4,NA,NA,NA,NA,NA,NA,NA,NA,NA,NA,NA,NA,NA,NA,NA,NA,NA,NA,NA
70b75,"""Richtig""-Screen",canvas.Screen,3_0_4_0_0_0_1,NA,NA,timeout,5000.7,1880830.8,1880814.207,1880830.876,1885814.907,1885816.4,2023-01-14T11:21:52Z,1885831.576,NULL,Können,unaweza,d,NA,NA,NA,NA,sd,1,4,NA,NA,NA,NA,NA,NA,NA,NA,NA,NA,NA,NA,NA,NA,NA,NA,NA,NA,NA
70b75,"""Falsch""-Screen",canvas.Screen,3_0_4_0_0_0_2,NA,NA,skipped,NA,1885818.3,NA,NA,1885814.907,1885818.4,2023-01-14T11:21:52Z,1885831.576,NULL,Können,unaweza,d,NA,NA,NA,NA,sd,NA,4,NA,NA,NA,NA,NA,NA,NA,NA,NA,NA,NA,NA,NA,NA,NA,NA,NA,NA,NA
70b75,deep,flow.Sequence,3_0_4_0_0_0,NA,NA,completion,7667.74,1878150.9,1878113.829,1878147.167,1885814.907,1885818.6,2023-01-14T11:21:52Z,1885831.576,NULL,Können,unaweza,d,NA,NA,NA,NA,sd,NA,4,NA,NA,NA,NA,NA,NA,NA,NA,NA,NA,NA,NA,NA,NA,NA,NA,NA,NA,NA
70b75,shallow,flow.Sequence,3_0_4_0_0_1,NA,NA,skipped,NA,1885818.6,NA,NA,1885814.907,1885818.7,2023-01-14T11:21:52Z,1885831.576,NULL,Können,unaweza,d,NA,NA,NA,NA,sd,NA,4,NA,NA,NA,NA,NA,NA,NA,NA,NA,NA,NA,NA,NA,NA,NA,NA,NA,NA,NA
70b75,task,flow.Sequence,3_0_4_0_0,NA,NA,completion,7667.74,1878150.9,1878113.829,1878147.167,1885814.907,1885818.8,2023-01-14T11:21:52Z,1885831.576,NULL,Können,unaweza,d,NA,NA,NA,NA,sd,NA,4,NA,NA,NA,NA,NA,NA,NA,NA,NA,NA,NA,NA,NA,NA,NA,NA,NA,NA,NA
70b75,Deep Question,html.Page,3_0_4_0_1_0_0,NA,NA,form submission,3557.5239999942,1885818.9,1885814.907,1885831.576,1889389.1,1889389.3,2023-01-14T11:21:56Z,1889399.056,NULL,Respekt,heshima,d,NA,NA,NA,heshima,NA,NA,4,NA,NA,NA,NA,NA,NA,NA,NA,NA,NA,NA,NA,NA,NA,NA,NA,NA,NA,NA
70b75,"""Richtig""-Screen",canvas.Screen,3_0_4_0_1_0_1,NA,NA,timeout,5000.7,1889390.8,1889382.387,1889399.056,1894383.087,1894384.2,2023-01-14T11:22:01Z,1894399.756,NULL,Respekt,heshima,d,NA,NA,NA,NA,sd,1,4,NA,NA,NA,NA,NA,NA,NA,NA,NA,NA,NA,NA,NA,NA,NA,NA,NA,NA,NA
70b75,"""Falsch""-Screen",canvas.Screen,3_0_4_0_1_0_2,NA,NA,skipped,NA,1894385.8,NA,NA,1894383.087,1894385.9,2023-01-14T11:22:01Z,1894399.756,NULL,Respekt,heshima,d,NA,NA,NA,NA,sd,NA,4,NA,NA,NA,NA,NA,NA,NA,NA,NA,NA,NA,NA,NA,NA,NA,NA,NA,NA,NA
70b75,deep,flow.Sequence,3_0_4_0_1_0,NA,NA,completion,8551.5110000002,1885818.9,1885814.907,1885831.576,1894383.087,1894386,2023-01-14T11:22:01Z,1894399.756,NULL,Respekt,heshima,d,NA,NA,NA,NA,sd,NA,4,NA,NA,NA,NA,NA,NA,NA,NA,NA,NA,NA,NA,NA,NA,NA,NA,NA,NA,NA
70b75,shallow,flow.Sequence,3_0_4_0_1_1,NA,NA,skipped,NA,1894386.2,NA,NA,1894383.087,1894386.2,2023-01-14T11:22:01Z,1894399.756,NULL,Respekt,heshima,d,NA,NA,NA,NA,sd,NA,4,NA,NA,NA,NA,NA,NA,NA,NA,NA,NA,NA,NA,NA,NA,NA,NA,NA,NA,NA
70b75,task,flow.Sequence,3_0_4_0_1,NA,NA,completion,8551.5110000002,1885818.8,1885814.907,1885831.576,1894383.087,1894386.3,2023-01-14T11:22:01Z,1894399.756,NULL,Respekt,heshima,d,NA,NA,NA,NA,sd,NA,4,NA,NA,NA,NA,NA,NA,NA,NA,NA,NA,NA,NA,NA,NA,NA,NA,NA,NA,NA
70b75,deep,flow.Sequence,3_0_4_0_2_0,NA,NA,skipped,NA,1894386.4,NA,NA,1894383.087,1894386.4,2023-01-14T11:22:01Z,1894399.756,NULL,Stimmung,kinyongo,s,kilekile,kisambo,madhehebu,NA,sd,NA,4,NA,NA,NA,NA,NA,NA,NA,NA,NA,NA,NA,NA,NA,NA,NA,NA,NA,NA,NA
70b75,Shallow Question,html.Page,3_0_4_0_2_1_0,NA,NA,form submission,2621.943999988,1894386.4,1894383.087,1894399.756,1897021.7,1897021.8,2023-01-14T11:22:03Z,1897033.682,NULL,Stimmung,kinyongo,s,kilekile,kisambo,madhehebu,kinyongo,NA,NA,4,NA,NA,NA,NA,NA,NA,NA,NA,NA,NA,NA,NA,NA,NA,NA,NA,NA,NA,NA
70b75,"""Richtig""-Screen",canvas.Screen,3_0_4_0_2_1_1,NA,NA,timeout,5000.7,1897023.3,1897017.013,1897033.682,1902017.713,1902019.4,2023-01-14T11:22:08Z,1902034.382,NULL,Stimmung,kinyongo,s,kilekile,kisambo,madhehebu,NA,sd,1,4,NA,NA,NA,NA,NA,NA,NA,NA,NA,NA,NA,NA,NA,NA,NA,NA,NA,NA,NA
70b75,"""Falsch""-Screen",canvas.Screen,3_0_4_0_2_1_2,NA,NA,skipped,NA,1902021.9,NA,NA,1902017.713,1902022,2023-01-14T11:22:08Z,1902034.382,NULL,Stimmung,kinyongo,s,kilekile,kisambo,madhehebu,NA,sd,NA,4,NA,NA,NA,NA,NA,NA,NA,NA,NA,NA,NA,NA,NA,NA,NA,NA,NA,NA,NA
70b75,shallow,flow.Sequence,3_0_4_0_2_1,NA,NA,completion,7617.9569999999,1894386.4,1894383.087,1894399.756,1902017.713,1902022.1,2023-01-14T11:22:08Z,1902034.382,NULL,Stimmung,kinyongo,s,kilekile,kisambo,madhehebu,NA,sd,NA,4,NA,NA,NA,NA,NA,NA,NA,NA,NA,NA,NA,NA,NA,NA,NA,NA,NA,NA,NA
70b75,task,flow.Sequence,3_0_4_0_2,NA,NA,completion,7617.9569999999,1894386.3,1894383.087,1894399.756,1902017.713,1902022.3,2023-01-14T11:22:08Z,1902034.382,NULL,Stimmung,kinyongo,s,kilekile,kisambo,madhehebu,NA,sd,NA,4,NA,NA,NA,NA,NA,NA,NA,NA,NA,NA,NA,NA,NA,NA,NA,NA,NA,NA,NA
70b75,Deep Question,html.Page,3_0_4_0_3_0_0,NA,NA,form submission,11770.517999976,1902022.5,1902017.713,1902034.382,1913804.9,1913805.1,2023-01-14T11:22:20Z,1913819.594,NULL,Orientierung,urekebisho,d,NA,NA,NA,ubunifu,NA,NA,4,NA,NA,NA,NA,NA,NA,NA,NA,NA,NA,NA,NA,NA,NA,NA,NA,NA,NA,NA
70b75,"""Richtig""-Screen",canvas.Screen,3_0_4_0_3_0_1,NA,NA,skipped,NA,1913806.7,NA,NA,1913804.9,1913806.8,2023-01-14T11:22:20Z,1913819.594,NULL,Orientierung,urekebisho,d,NA,NA,NA,NA,sd,NA,4,NA,NA,NA,NA,NA,NA,NA,NA,NA,NA,NA,NA,NA,NA,NA,NA,NA,NA,NA
70b75,"""Falsch""-Screen",canvas.Screen,3_0_4_0_3_0_2,NA,NA,timeout,5000.7,1913807.3,1913802.925,1913819.594,1918803.625,1918805.8,2023-01-14T11:22:25Z,1918820.294,NULL,Orientierung,urekebisho,d,NA,NA,NA,NA,sd,0,4,NA,NA,NA,NA,NA,NA,NA,NA,NA,NA,NA,NA,NA,NA,NA,NA,NA,NA,NA
70b75,deep,flow.Sequence,3_0_4_0_3_0,NA,NA,completion,16769.243,1902022.4,1902017.713,1902034.382,1918803.625,1918806,2023-01-14T11:22:25Z,1918820.294,NULL,Orientierung,urekebisho,d,NA,NA,NA,NA,sd,NA,4,NA,NA,NA,NA,NA,NA,NA,NA,NA,NA,NA,NA,NA,NA,NA,NA,NA,NA,NA
70b75,shallow,flow.Sequence,3_0_4_0_3_1,NA,NA,skipped,NA,1918806.1,NA,NA,1918803.625,1918806.2,2023-01-14T11:22:25Z,1918820.294,NULL,Orientierung,urekebisho,d,NA,NA,NA,NA,sd,NA,4,NA,NA,NA,NA,NA,NA,NA,NA,NA,NA,NA,NA,NA,NA,NA,NA,NA,NA,NA
70b75,task,flow.Sequence,3_0_4_0_3,NA,NA,completion,16769.243,1902022.4,1902017.713,1902034.382,1918803.625,1918806.2,2023-01-14T11:22:25Z,1918820.294,NULL,Orientierung,urekebisho,d,NA,NA,NA,NA,sd,NA,4,NA,NA,NA,NA,NA,NA,NA,NA,NA,NA,NA,NA,NA,NA,NA,NA,NA,NA,NA
70b75,deep,flow.Sequence,3_0_4_0_4_0,NA,NA,skipped,NA,1918806.3,NA,NA,1918803.625,1918806.4,2023-01-14T11:22:25Z,1918820.294,NULL,Gefährdung,kuhatarisha,s,uchokozi,udhaifu,makorowezo,NA,sd,NA,4,NA,NA,NA,NA,NA,NA,NA,NA,NA,NA,NA,NA,NA,NA,NA,NA,NA,NA,NA
70b75,Shallow Question,html.Page,3_0_4_0_4_1_0,NA,NA,form submission,3510.6059999762,1918806.4,1918803.625,1918820.294,1922330.9,1922331.1,2023-01-14T11:22:28Z,1922337.732,NULL,Gefährdung,kuhatarisha,s,uchokozi,udhaifu,makorowezo,kuhatarisha,NA,NA,4,NA,NA,NA,NA,NA,NA,NA,NA,NA,NA,NA,NA,NA,NA,NA,NA,NA,NA,NA
70b75,"""Richtig""-Screen",canvas.Screen,3_0_4_0_4_1_1,NA,NA,timeout,5000.7,1922332.8,1922321.063,1922337.732,1927321.763,1927323.5,2023-01-14T11:22:33Z,1927338.432,NULL,Gefährdung,kuhatarisha,s,uchokozi,udhaifu,makorowezo,NA,sd,1,4,NA,NA,NA,NA,NA,NA,NA,NA,NA,NA,NA,NA,NA,NA,NA,NA,NA,NA,NA
70b75,"""Falsch""-Screen",canvas.Screen,3_0_4_0_4_1_2,NA,NA,skipped,NA,1927325,NA,NA,1927321.763,1927325.2,2023-01-14T11:22:33Z,1927338.432,NULL,Gefährdung,kuhatarisha,s,uchokozi,udhaifu,makorowezo,NA,sd,NA,4,NA,NA,NA,NA,NA,NA,NA,NA,NA,NA,NA,NA,NA,NA,NA,NA,NA,NA,NA
70b75,shallow,flow.Sequence,3_0_4_0_4_1,NA,NA,completion,8501.469,1918806.4,1918803.625,1918820.294,1927321.763,1927325.3,2023-01-14T11:22:33Z,1927338.432,NULL,Gefährdung,kuhatarisha,s,uchokozi,udhaifu,makorowezo,NA,sd,NA,4,NA,NA,NA,NA,NA,NA,NA,NA,NA,NA,NA,NA,NA,NA,NA,NA,NA,NA,NA
70b75,task,flow.Sequence,3_0_4_0_4,NA,NA,completion,8501.469,1918806.3,1918803.625,1918820.294,1927321.763,1927325.4,2023-01-14T11:22:33Z,1927338.432,NULL,Gefährdung,kuhatarisha,s,uchokozi,udhaifu,makorowezo,NA,sd,NA,4,NA,NA,NA,NA,NA,NA,NA,NA,NA,NA,NA,NA,NA,NA,NA,NA,NA,NA,NA
70b75,deep,flow.Sequence,3_0_4_0_5_0,NA,NA,skipped,NA,1927325.4,NA,NA,1927321.763,1927325.5,2023-01-14T11:22:33Z,1927338.432,NULL,Betrüger,mdanganyifu,s,mwanamuziki,wastani,mahakama,NA,sd,NA,4,NA,NA,NA,NA,NA,NA,NA,NA,NA,NA,NA,NA,NA,NA,NA,NA,NA,NA,NA
70b75,Shallow Question,html.Page,3_0_4_0_5_1_0,NA,NA,form submission,3744.767999988,1927325.5,1927321.763,1927338.432,1931083.2,1931083.5,2023-01-14T11:22:37Z,1931089.181,NULL,Betrüger,mdanganyifu,s,mwanamuziki,wastani,mahakama,mdanganyifu,NA,NA,4,NA,NA,NA,NA,NA,NA,NA,NA,NA,NA,NA,NA,NA,NA,NA,NA,NA,NA,NA
70b75,"""Richtig""-Screen",canvas.Screen,3_0_4_0_5_1_1,NA,NA,timeout,5000.7,1931084.8,1931072.512,1931089.181,1936073.212,1936074.2,2023-01-14T11:22:42Z,1936089.881,NULL,Betrüger,mdanganyifu,s,mwanamuziki,wastani,mahakama,NA,sd,1,4,NA,NA,NA,NA,NA,NA,NA,NA,NA,NA,NA,NA,NA,NA,NA,NA,NA,NA,NA
70b75,"""Falsch""-Screen",canvas.Screen,3_0_4_0_5_1_2,NA,NA,skipped,NA,1936076,NA,NA,1936073.212,1936076.1,2023-01-14T11:22:42Z,1936089.881,NULL,Betrüger,mdanganyifu,s,mwanamuziki,wastani,mahakama,NA,sd,NA,4,NA,NA,NA,NA,NA,NA,NA,NA,NA,NA,NA,NA,NA,NA,NA,NA,NA,NA,NA
70b75,shallow,flow.Sequence,3_0_4_0_5_1,NA,NA,completion,8734.78,1927325.5,1927321.763,1927338.432,1936073.212,1936076.2,2023-01-14T11:22:42Z,1936089.881,NULL,Betrüger,mdanganyifu,s,mwanamuziki,wastani,mahakama,NA,sd,NA,4,NA,NA,NA,NA,NA,NA,NA,NA,NA,NA,NA,NA,NA,NA,NA,NA,NA,NA,NA
70b75,task,flow.Sequence,3_0_4_0_5,NA,NA,completion,8734.78,1927325.4,1927321.763,1927338.432,1936073.212,1936076.2,2023-01-14T11:22:42Z,1936089.881,NULL,Betrüger,mdanganyifu,s,mwanamuziki,wastani,mahakama,NA,sd,NA,4,NA,NA,NA,NA,NA,NA,NA,NA,NA,NA,NA,NA,NA,NA,NA,NA,NA,NA,NA
70b75,deep,flow.Sequence,3_0_4_0_6_0,NA,NA,skipped,NA,1936076.4,NA,NA,1936073.212,1936076.4,2023-01-14T11:22:42Z,1936089.881,NULL,Kontrolle,kudhibiti,s,mbinguni,kufunga,utegemezi,NA,sd,NA,4,NA,NA,NA,NA,NA,NA,NA,NA,NA,NA,NA,NA,NA,NA,NA,NA,NA,NA,NA
70b75,Shallow Question,html.Page,3_0_4_0_6_1_0,NA,NA,form submission,2845.4189999821,1936076.5,1936073.212,1936089.881,1938935.3,1938935.5,2023-01-14T11:22:45Z,1938940.28,NULL,Kontrolle,kudhibiti,s,mbinguni,kufunga,utegemezi,kudhibiti,NA,NA,4,NA,NA,NA,NA,NA,NA,NA,NA,NA,NA,NA,NA,NA,NA,NA,NA,NA,NA,NA
70b75,"""Richtig""-Screen",canvas.Screen,3_0_4_0_6_1_1,NA,NA,timeout,5000.923,1938936.4,1938923.611,1938940.28,1943924.534,1943925.8,2023-01-14T11:22:50Z,1943941.203,NULL,Kontrolle,kudhibiti,s,mbinguni,kufunga,utegemezi,NA,sd,1,4,NA,NA,NA,NA,NA,NA,NA,NA,NA,NA,NA,NA,NA,NA,NA,NA,NA,NA,NA
70b75,"""Falsch""-Screen",canvas.Screen,3_0_4_0_6_1_2,NA,NA,skipped,NA,1943927.5,NA,NA,1943924.534,1943927.6,2023-01-14T11:22:50Z,1943941.203,NULL,Kontrolle,kudhibiti,s,mbinguni,kufunga,utegemezi,NA,sd,NA,4,NA,NA,NA,NA,NA,NA,NA,NA,NA,NA,NA,NA,NA,NA,NA,NA,NA,NA,NA
70b75,shallow,flow.Sequence,3_0_4_0_6_1,NA,NA,completion,7834.6529999999,1936076.5,1936073.212,1936089.881,1943924.534,1943927.8,2023-01-14T11:22:50Z,1943941.203,NULL,Kontrolle,kudhibiti,s,mbinguni,kufunga,utegemezi,NA,sd,NA,4,NA,NA,NA,NA,NA,NA,NA,NA,NA,NA,NA,NA,NA,NA,NA,NA,NA,NA,NA
70b75,task,flow.Sequence,3_0_4_0_6,NA,NA,completion,7834.6529999999,1936076.4,1936073.212,1936089.881,1943924.534,1943927.8,2023-01-14T11:22:50Z,1943941.203,NULL,Kontrolle,kudhibiti,s,mbinguni,kufunga,utegemezi,NA,sd,NA,4,NA,NA,NA,NA,NA,NA,NA,NA,NA,NA,NA,NA,NA,NA,NA,NA,NA,NA,NA
70b75,Deep Question,html.Page,3_0_4_0_7_0_0,NA,NA,form submission,3367.797,1943927.9,1943924.534,1943941.203,1947309,1947309.2,2023-01-14T11:22:53Z,1947325.01,NULL,Kreativität,ubunifu,d,NA,NA,NA,ubunifu,NA,NA,4,NA,NA,NA,NA,NA,NA,NA,NA,NA,NA,NA,NA,NA,NA,NA,NA,NA,NA,NA
70b75,"""Richtig""-Screen",canvas.Screen,3_0_4_0_7_0_1,NA,NA,timeout,5000.7,1947309.9,1947308.341,1947325.01,1952309.041,1952310.8,2023-01-14T11:22:58Z,1952325.71,NULL,Kreativität,ubunifu,d,NA,NA,NA,NA,sd,1,4,NA,NA,NA,NA,NA,NA,NA,NA,NA,NA,NA,NA,NA,NA,NA,NA,NA,NA,NA
70b75,"""Falsch""-Screen",canvas.Screen,3_0_4_0_7_0_2,NA,NA,skipped,NA,1952312.8,NA,NA,1952309.041,1952312.9,2023-01-14T11:22:58Z,1952325.71,NULL,Kreativität,ubunifu,d,NA,NA,NA,NA,sd,NA,4,NA,NA,NA,NA,NA,NA,NA,NA,NA,NA,NA,NA,NA,NA,NA,NA,NA,NA,NA
70b75,deep,flow.Sequence,3_0_4_0_7_0,NA,NA,completion,8367.838,1943927.9,1943924.534,1943941.203,1952309.041,1952313,2023-01-14T11:22:58Z,1952325.71,NULL,Kreativität,ubunifu,d,NA,NA,NA,NA,sd,NA,4,NA,NA,NA,NA,NA,NA,NA,NA,NA,NA,NA,NA,NA,NA,NA,NA,NA,NA,NA
70b75,shallow,flow.Sequence,3_0_4_0_7_1,NA,NA,skipped,NA,1952313.1,NA,NA,1952309.041,1952313.2,2023-01-14T11:22:58Z,1952325.71,NULL,Kreativität,ubunifu,d,NA,NA,NA,NA,sd,NA,4,NA,NA,NA,NA,NA,NA,NA,NA,NA,NA,NA,NA,NA,NA,NA,NA,NA,NA,NA
70b75,task,flow.Sequence,3_0_4_0_7,NA,NA,completion,8367.838,1943927.8,1943924.534,1943941.203,1952309.041,1952313.3,2023-01-14T11:22:58Z,1952325.71,NULL,Kreativität,ubunifu,d,NA,NA,NA,NA,sd,NA,4,NA,NA,NA,NA,NA,NA,NA,NA,NA,NA,NA,NA,NA,NA,NA,NA,NA,NA,NA
70b75,block,flow.Loop,3_0_4_0,NA,NA,completion,74161.874,1878150.9,1878113.829,1878147.167,1952309.041,1952313.3,2023-01-14T11:22:58Z,1952325.71,NULL,NA,NA,NA,NA,NA,NA,NA,sd,NA,4,NA,NA,NA,NA,NA,NA,NA,NA,NA,NA,NA,NA,NA,NA,NA,NA,NA,NA,NA
70b75,weiter,canvas.Screen,3_0_4_1,sdf,keypress(Space),response,772.98999998812,1952313.4,1952309.041,1952325.71,1953098.7,1953100.9,2023-01-14T11:22:59Z,1953559.512,NULL,NA,NA,NA,NA,NA,NA,NA,sd,NA,4,NA,NA,NA,NA,NA,NA,NA,NA,NA,NA,NA,NA,NA,NA,NA,NA,NA,NA,NA
70b75,check continue,flow.Sequence,3_0_4,NA,NA,completion,74951.532999988,1878150.8,1878113.829,1878147.167,1953098.7,1953101.1,2023-01-14T11:22:59Z,1953559.512,NULL,NA,NA,NA,NA,NA,NA,NA,sd,NA,4,NA,NA,NA,NA,NA,NA,NA,NA,NA,NA,NA,NA,NA,NA,NA,NA,NA,NA,NA
70b75,check continue,flow.Sequence,3_0_5,NA,NA,skipped,NA,1953125.1,NA,NA,1953098.7,1953125.2,2023-01-14T11:22:59Z,1953559.512,NULL,NA,NA,NA,NA,NA,NA,NA,sdf,NA,5,NA,NA,NA,NA,NA,NA,NA,NA,NA,NA,NA,NA,NA,NA,NA,NA,NA,NA,NA
70b75,check continue,flow.Sequence,3_0_6,NA,NA,skipped,NA,1953145.2,NA,NA,1953098.7,1953145.3,2023-01-14T11:22:59Z,1953559.512,NULL,NA,NA,NA,NA,NA,NA,NA,dfs,NA,6,NA,NA,NA,NA,NA,NA,NA,NA,NA,NA,NA,NA,NA,NA,NA,NA,NA,NA,NA
70b75,check continue,flow.Sequence,3_0_7,NA,NA,skipped,NA,1953163.8,NA,NA,1953098.7,1953164,2023-01-14T11:22:59Z,1953559.512,NULL,NA,NA,NA,NA,NA,NA,NA,df,NA,7,NA,NA,NA,NA,NA,NA,NA,NA,NA,NA,NA,NA,NA,NA,NA,NA,NA,NA,NA
70b75,check continue,flow.Sequence,3_0_8,NA,NA,skipped,NA,1953182.5,NA,NA,1953098.7,1953182.6,2023-01-14T11:22:59Z,1953559.512,NULL,NA,NA,NA,NA,NA,NA,NA,dfs,NA,8,NA,NA,NA,NA,NA,NA,NA,NA,NA,NA,NA,NA,NA,NA,NA,NA,NA,NA,NA
70b75,check continue,flow.Sequence,3_0_9,NA,NA,skipped,NA,1953201.1,NA,NA,1953098.7,1953201.3,2023-01-14T11:22:59Z,1953559.512,NULL,NA,NA,NA,NA,NA,NA,NA,dsf,NA,9,NA,NA,NA,NA,NA,NA,NA,NA,NA,NA,NA,NA,NA,NA,NA,NA,NA,NA,NA
70b75,check continue,flow.Sequence,3_0_10,NA,NA,skipped,NA,1953218,NA,NA,1953098.7,1953218,2023-01-14T11:22:59Z,1953559.512,NULL,NA,NA,NA,NA,NA,NA,NA,df,NA,10,NA,NA,NA,NA,NA,NA,NA,NA,NA,NA,NA,NA,NA,NA,NA,NA,NA,NA,NA
70b75,check continue,flow.Sequence,3_0_11,NA,NA,skipped,NA,1953234.4,NA,NA,1953098.7,1953234.4,2023-01-14T11:22:59Z,1953559.512,NULL,NA,NA,NA,NA,NA,NA,NA,dfs,NA,11,NA,NA,NA,NA,NA,NA,NA,NA,NA,NA,NA,NA,NA,NA,NA,NA,NA,NA,NA
70b75,check continue,flow.Sequence,3_0_12,NA,NA,skipped,NA,1953252.6,NA,NA,1953098.7,1953252.7,2023-01-14T11:22:59Z,1953559.512,NULL,NA,NA,NA,NA,NA,NA,NA,dsf,NA,12,NA,NA,NA,NA,NA,NA,NA,NA,NA,NA,NA,NA,NA,NA,NA,NA,NA,NA,NA
70b75,check continue,flow.Sequence,3_0_13,NA,NA,skipped,NA,1953270.7,NA,NA,1953098.7,1953270.9,2023-01-14T11:22:59Z,1953559.512,NULL,NA,NA,NA,NA,NA,NA,NA,dsf,NA,13,NA,NA,NA,NA,NA,NA,NA,NA,NA,NA,NA,NA,NA,NA,NA,NA,NA,NA,NA
70b75,check continue,flow.Sequence,3_0_14,NA,NA,skipped,NA,1953287.9,NA,NA,1953098.7,1953288,2023-01-14T11:22:59Z,1953559.512,NULL,NA,NA,NA,NA,NA,NA,NA,NA,NA,14,NA,NA,NA,NA,NA,NA,NA,NA,NA,NA,NA,NA,NA,NA,NA,NA,NA,NA,NA
70b75,check continue,flow.Sequence,3_0_15,NA,NA,skipped,NA,1953304.5,NA,NA,1953098.7,1953304.6,2023-01-14T11:22:59Z,1953559.512,NULL,NA,NA,NA,NA,NA,NA,NA,NA,NA,15,NA,NA,NA,NA,NA,NA,NA,NA,NA,NA,NA,NA,NA,NA,NA,NA,NA,NA,NA
70b75,check continue,flow.Sequence,3_0_16,NA,NA,skipped,NA,1953321.1,NA,NA,1953098.7,1953321.1,2023-01-14T11:22:59Z,1953559.512,NULL,NA,NA,NA,NA,NA,NA,NA,NA,NA,16,NA,NA,NA,NA,NA,NA,NA,NA,NA,NA,NA,NA,NA,NA,NA,NA,NA,NA,NA
70b75,check continue,flow.Sequence,3_0_17,NA,NA,skipped,NA,1953337.1,NA,NA,1953098.7,1953337.2,2023-01-14T11:22:59Z,1953559.512,NULL,NA,NA,NA,NA,NA,NA,NA,NA,NA,17,NA,NA,NA,NA,NA,NA,NA,NA,NA,NA,NA,NA,NA,NA,NA,NA,NA,NA,NA
70b75,check continue,flow.Sequence,3_0_18,NA,NA,skipped,NA,1953353.9,NA,NA,1953098.7,1953354,2023-01-14T11:22:59Z,1953559.512,NULL,NA,NA,NA,NA,NA,NA,NA,NA,NA,18,NA,NA,NA,NA,NA,NA,NA,NA,NA,NA,NA,NA,NA,NA,NA,NA,NA,NA,NA
70b75,check continue,flow.Sequence,3_0_19,NA,NA,skipped,NA,1953371.9,NA,NA,1953098.7,1953372,2023-01-14T11:23:00Z,1953559.512,NULL,NA,NA,NA,NA,NA,NA,NA,NA,NA,19,NA,NA,NA,NA,NA,NA,NA,NA,NA,NA,NA,NA,NA,NA,NA,NA,NA,NA,NA
70b75,check continue,flow.Sequence,3_0_20,NA,NA,skipped,NA,1953390.6,NA,NA,1953098.7,1953390.7,2023-01-14T11:23:00Z,1953559.512,NULL,NA,NA,NA,NA,NA,NA,NA,NA,NA,20,NA,NA,NA,NA,NA,NA,NA,NA,NA,NA,NA,NA,NA,NA,NA,NA,NA,NA,NA
70b75,check continue,flow.Sequence,3_0_21,NA,NA,skipped,NA,1953406.9,NA,NA,1953098.7,1953407,2023-01-14T11:23:00Z,1953559.512,NULL,NA,NA,NA,NA,NA,NA,NA,NA,NA,21,NA,NA,NA,NA,NA,NA,NA,NA,NA,NA,NA,NA,NA,NA,NA,NA,NA,NA,NA
70b75,check continue,flow.Sequence,3_0_22,NA,NA,skipped,NA,1953425.3,NA,NA,1953098.7,1953425.4,2023-01-14T11:23:00Z,1953559.512,NULL,NA,NA,NA,NA,NA,NA,NA,NA,NA,22,NA,NA,NA,NA,NA,NA,NA,NA,NA,NA,NA,NA,NA,NA,NA,NA,NA,NA,NA
70b75,check continue,flow.Sequence,3_0_23,NA,NA,skipped,NA,1953440.5,NA,NA,1953098.7,1953440.6,2023-01-14T11:23:00Z,1953559.512,NULL,NA,NA,NA,NA,NA,NA,NA,NA,NA,23,NA,NA,NA,NA,NA,NA,NA,NA,NA,NA,NA,NA,NA,NA,NA,NA,NA,NA,NA
70b75,check continue,flow.Sequence,3_0_24,NA,NA,skipped,NA,1953457.4,NA,NA,1953098.7,1953457.6,2023-01-14T11:23:00Z,1953559.512,NULL,NA,NA,NA,NA,NA,NA,NA,NA,NA,24,NA,NA,NA,NA,NA,NA,NA,NA,NA,NA,NA,NA,NA,NA,NA,NA,NA,NA,NA
70b75,check continue,flow.Sequence,3_0_25,NA,NA,skipped,NA,1953473.2,NA,NA,1953098.7,1953473.3,2023-01-14T11:23:00Z,1953559.512,NULL,NA,NA,NA,NA,NA,NA,NA,NA,NA,25,NA,NA,NA,NA,NA,NA,NA,NA,NA,NA,NA,NA,NA,NA,NA,NA,NA,NA,NA
70b75,check continue,flow.Sequence,3_0_26,NA,NA,skipped,NA,1953490.2,NA,NA,1953098.7,1953490.2,2023-01-14T11:23:00Z,1953559.512,NULL,NA,NA,NA,NA,NA,NA,NA,NA,NA,26,NA,NA,NA,NA,NA,NA,NA,NA,NA,NA,NA,NA,NA,NA,NA,NA,NA,NA,NA
70b75,check continue,flow.Sequence,3_0_27,NA,NA,skipped,NA,1953506.8,NA,NA,1953098.7,1953507,2023-01-14T11:23:00Z,1953559.512,NULL,NA,NA,NA,NA,NA,NA,NA,NA,NA,27,NA,NA,NA,NA,NA,NA,NA,NA,NA,NA,NA,NA,NA,NA,NA,NA,NA,NA,NA
70b75,check continue,flow.Sequence,3_0_28,NA,NA,skipped,NA,1953525.7,NA,NA,1953098.7,1953525.8,2023-01-14T11:23:00Z,1953559.512,NULL,NA,NA,NA,NA,NA,NA,NA,NA,NA,28,NA,NA,NA,NA,NA,NA,NA,NA,NA,NA,NA,NA,NA,NA,NA,NA,NA,NA,NA
70b75,check continue,flow.Sequence,3_0_29,NA,NA,skipped,NA,1953549.8,NA,NA,1953098.7,1953550,2023-01-14T11:23:00Z,1953559.512,NULL,NA,NA,NA,NA,NA,NA,NA,NA,NA,29,NA,NA,NA,NA,NA,NA,NA,NA,NA,NA,NA,NA,NA,NA,NA,NA,NA,NA,NA
70b75,until continue,flow.Loop,3_0,NA,NA,completion,440144.28999999,1512936.8,1512871.065,1512954.41,1953098.7,1953550,2023-01-14T11:23:00Z,1953559.512,NULL,NA,NA,NA,NA,NA,NA,NA,NA,NA,NA,NA,NA,NA,NA,NA,NA,NA,NA,NA,NA,NA,NA,NA,NA,NA,NA,NA,NA,NA
70b75,block 1,flow.Sequence,3,NA,NA,completion,440144.28999999,1512936.7,1512871.065,1512954.41,1953098.7,1953550.2,2023-01-14T11:23:00Z,1953559.512,NULL,NA,NA,NA,NA,NA,NA,NA,NA,NA,NA,NA,NA,NA,NA,NA,NA,NA,NA,NA,NA,NA,NA,NA,NA,NA,NA,NA,NA,NA
70b75,1.Part Over,canvas.Screen,4,NA,keypress(Space),response,2283.187999988,1953550.2,1953542.843,1953559.512,1955842.7,1955845.1,2023-01-14T11:23:02Z,1955909.841,NULL,NA,NA,NA,NA,NA,NA,NA,NA,NA,NA,NA,NA,NA,NA,NA,NA,NA,NA,NA,NA,NA,NA,NA,NA,NA,NA,NA,NA,NA
70b75,Deep Question,html.Page,5_0_0_0_0_0_0,NA,NA,form submission,1983.5589999761,1955899.7,1955893.172,1955909.841,1957893.4,1957893.7,2023-01-14T11:23:04Z,1957893.452,NULL,Lawine,banguko,d,NA,NA,NA,d,NA,NA,0,NA,NA,NA,NA,NA,NA,NA,NA,NA,NA,NA,NA,NA,NA,NA,NA,NA,NA,NA
70b75,"""Richtig""-Screen",canvas.Screen,5_0_0_0_0_0_1,NA,NA,skipped,NA,1957894.2,NA,NA,1957893.4,1957894.2,2023-01-14T11:23:04Z,1957893.452,NULL,Lawine,banguko,d,NA,NA,NA,NA,sdf,NA,0,NA,NA,NA,NA,NA,NA,NA,NA,NA,NA,NA,NA,NA,NA,NA,NA,NA,NA,NA
70b75,"""Falsch""-Screen",canvas.Screen,5_0_0_0_0_0_2,NA,NA,timeout,5000.7,1957894.7,1957876.783,1957893.452,1962877.483,1962879.4,2023-01-14T11:23:09Z,1962894.152,NULL,Lawine,banguko,d,NA,NA,NA,NA,sdf,0,0,NA,NA,NA,NA,NA,NA,NA,NA,NA,NA,NA,NA,NA,NA,NA,NA,NA,NA,NA
70b75,deep,flow.Sequence,5_0_0_0_0_0,NA,NA,completion,6967.642,1955899.7,1955893.172,1955909.841,1962877.483,1962879.6,2023-01-14T11:23:09Z,1962894.152,NULL,Lawine,banguko,d,NA,NA,NA,NA,sdf,NA,0,NA,NA,NA,NA,NA,NA,NA,NA,NA,NA,NA,NA,NA,NA,NA,NA,NA,NA,NA
70b75,shallow,flow.Sequence,5_0_0_0_0_1,NA,NA,skipped,NA,1962879.6,NA,NA,1962877.483,1962879.7,2023-01-14T11:23:09Z,1962894.152,NULL,Lawine,banguko,d,NA,NA,NA,NA,sdf,NA,0,NA,NA,NA,NA,NA,NA,NA,NA,NA,NA,NA,NA,NA,NA,NA,NA,NA,NA,NA
70b75,task,flow.Sequence,5_0_0_0_0,NA,NA,completion,6967.642,1955899.6,1955893.172,1955909.841,1962877.483,1962879.8,2023-01-14T11:23:09Z,1962894.152,NULL,Lawine,banguko,d,NA,NA,NA,NA,sdf,NA,0,NA,NA,NA,NA,NA,NA,NA,NA,NA,NA,NA,NA,NA,NA,NA,NA,NA,NA,NA
70b75,Deep Question,html.Page,5_0_0_0_1_0_0,NA,NA,form submission,1671.2479999762,1962879.9,1962877.483,1962894.152,1964565.4,1964565.7,2023-01-14T11:23:11Z,1964577.956,NULL,System,maongozi,d,NA,NA,NA,a,NA,NA,0,NA,NA,NA,NA,NA,NA,NA,NA,NA,NA,NA,NA,NA,NA,NA,NA,NA,NA,NA
70b75,"""Richtig""-Screen",canvas.Screen,5_0_0_0_1_0_1,NA,NA,skipped,NA,1964567.4,NA,NA,1964565.4,1964567.4,2023-01-14T11:23:11Z,1964577.956,NULL,System,maongozi,d,NA,NA,NA,NA,sdf,NA,0,NA,NA,NA,NA,NA,NA,NA,NA,NA,NA,NA,NA,NA,NA,NA,NA,NA,NA,NA
70b75,"""Falsch""-Screen",canvas.Screen,5_0_0_0_1_0_2,NA,NA,timeout,5000.7,1964567.9,1964561.287,1964577.956,1969561.987,1969563.9,2023-01-14T11:23:16Z,1969578.656,NULL,System,maongozi,d,NA,NA,NA,NA,sdf,0,0,NA,NA,NA,NA,NA,NA,NA,NA,NA,NA,NA,NA,NA,NA,NA,NA,NA,NA,NA
70b75,deep,flow.Sequence,5_0_0_0_1_0,NA,NA,completion,6667.835,1962879.9,1962877.483,1962894.152,1969561.987,1969564.1,2023-01-14T11:23:16Z,1969578.656,NULL,System,maongozi,d,NA,NA,NA,NA,sdf,NA,0,NA,NA,NA,NA,NA,NA,NA,NA,NA,NA,NA,NA,NA,NA,NA,NA,NA,NA,NA
70b75,shallow,flow.Sequence,5_0_0_0_1_1,NA,NA,skipped,NA,1969564.2,NA,NA,1969561.987,1969564.2,2023-01-14T11:23:16Z,1969578.656,NULL,System,maongozi,d,NA,NA,NA,NA,sdf,NA,0,NA,NA,NA,NA,NA,NA,NA,NA,NA,NA,NA,NA,NA,NA,NA,NA,NA,NA,NA
70b75,task,flow.Sequence,5_0_0_0_1,NA,NA,completion,6667.835,1962879.8,1962877.483,1962894.152,1969561.987,1969564.3,2023-01-14T11:23:16Z,1969578.656,NULL,System,maongozi,d,NA,NA,NA,NA,sdf,NA,0,NA,NA,NA,NA,NA,NA,NA,NA,NA,NA,NA,NA,NA,NA,NA,NA,NA,NA,NA
70b75,deep,flow.Sequence,5_0_0_0_2_0,NA,NA,skipped,NA,1969564.4,NA,NA,1969561.987,1969564.5,2023-01-14T11:23:16Z,1969578.656,NULL,Entwicklung,maendeleo,s,uangavu,mshindwa,badiliko,NA,sdf,NA,0,NA,NA,NA,NA,NA,NA,NA,NA,NA,NA,NA,NA,NA,NA,NA,NA,NA,NA,NA
70b75,Shallow Question,html.Page,5_0_0_0_2_1_0,NA,NA,form submission,5367.9439999941,1969564.5,1969561.987,1969578.656,1974946.6,1974946.8,2023-01-14T11:23:21Z,1974946.074,NULL,Entwicklung,maendeleo,s,uangavu,mshindwa,badiliko,maendeleo,NA,NA,0,NA,NA,NA,NA,NA,NA,NA,NA,NA,NA,NA,NA,NA,NA,NA,NA,NA,NA,NA
70b75,"""Richtig""-Screen",canvas.Screen,5_0_0_0_2_1_1,NA,NA,timeout,5000.7,1974948.5,1974929.405,1974946.074,1979930.105,1979931.5,2023-01-14T11:23:26Z,1979946.774,NULL,Entwicklung,maendeleo,s,uangavu,mshindwa,badiliko,NA,sdf,1,0,NA,NA,NA,NA,NA,NA,NA,NA,NA,NA,NA,NA,NA,NA,NA,NA,NA,NA,NA
70b75,"""Falsch""-Screen",canvas.Screen,5_0_0_0_2_1_2,NA,NA,skipped,NA,1979933.6,NA,NA,1979930.105,1979933.7,2023-01-14T11:23:26Z,1979946.774,NULL,Entwicklung,maendeleo,s,uangavu,mshindwa,badiliko,NA,sdf,NA,0,NA,NA,NA,NA,NA,NA,NA,NA,NA,NA,NA,NA,NA,NA,NA,NA,NA,NA,NA
70b75,shallow,flow.Sequence,5_0_0_0_2_1,NA,NA,completion,10351.449,1969564.5,1969561.987,1969578.656,1979930.105,1979933.9,2023-01-14T11:23:26Z,1979946.774,NULL,Entwicklung,maendeleo,s,uangavu,mshindwa,badiliko,NA,sdf,NA,0,NA,NA,NA,NA,NA,NA,NA,NA,NA,NA,NA,NA,NA,NA,NA,NA,NA,NA,NA
70b75,task,flow.Sequence,5_0_0_0_2,NA,NA,completion,10351.449,1969564.3,1969561.987,1969578.656,1979930.105,1979934,2023-01-14T11:23:26Z,1979946.774,NULL,Entwicklung,maendeleo,s,uangavu,mshindwa,badiliko,NA,sdf,NA,0,NA,NA,NA,NA,NA,NA,NA,NA,NA,NA,NA,NA,NA,NA,NA,NA,NA,NA,NA
70b75,deep,flow.Sequence,5_0_0_0_3_0,NA,NA,skipped,NA,1979934.1,NA,NA,1979930.105,1979934.1,2023-01-14T11:23:26Z,1979946.774,NULL,Körper,kiwiliwili,s,mapambano,mpatanishi,kiolezo,NA,sdf,NA,0,NA,NA,NA,NA,NA,NA,NA,NA,NA,NA,NA,NA,NA,NA,NA,NA,NA,NA,NA
70b75,Shallow Question,html.Page,5_0_0_0_3_1_0,NA,NA,form submission,7714.6259999762,1979934.2,1979930.105,1979946.774,1987661.4,1987661.6,2023-01-14T11:23:34Z,1987664.974,NULL,Körper,kiwiliwili,s,mapambano,mpatanishi,kiolezo,kiolezo,NA,NA,0,NA,NA,NA,NA,NA,NA,NA,NA,NA,NA,NA,NA,NA,NA,NA,NA,NA,NA,NA
70b75,"""Richtig""-Screen",canvas.Screen,5_0_0_0_3_1_1,NA,NA,skipped,NA,1987663.1,NA,NA,1987661.4,1987663.2,2023-01-14T11:23:34Z,1987664.974,NULL,Körper,kiwiliwili,s,mapambano,mpatanishi,kiolezo,NA,sdf,NA,0,NA,NA,NA,NA,NA,NA,NA,NA,NA,NA,NA,NA,NA,NA,NA,NA,NA,NA,NA
70b75,"""Falsch""-Screen",canvas.Screen,5_0_0_0_3_1_2,NA,NA,timeout,5000.7000000002,1987663.9,1987648.305,1987664.974,1992649.005,1992651.1,2023-01-14T11:23:39Z,1992665.674,NULL,Körper,kiwiliwili,s,mapambano,mpatanishi,kiolezo,NA,sdf,0,0,NA,NA,NA,NA,NA,NA,NA,NA,NA,NA,NA,NA,NA,NA,NA,NA,NA,NA,NA
70b75,shallow,flow.Sequence,5_0_0_0_3_1,NA,NA,completion,12702.231,1979934.2,1979930.105,1979946.774,1992649.005,1992651.2,2023-01-14T11:23:39Z,1992665.674,NULL,Körper,kiwiliwili,s,mapambano,mpatanishi,kiolezo,NA,sdf,NA,0,NA,NA,NA,NA,NA,NA,NA,NA,NA,NA,NA,NA,NA,NA,NA,NA,NA,NA,NA
70b75,task,flow.Sequence,5_0_0_0_3,NA,NA,completion,12702.231,1979934.1,1979930.105,1979946.774,1992649.005,1992651.3,2023-01-14T11:23:39Z,1992665.674,NULL,Körper,kiwiliwili,s,mapambano,mpatanishi,kiolezo,NA,sdf,NA,0,NA,NA,NA,NA,NA,NA,NA,NA,NA,NA,NA,NA,NA,NA,NA,NA,NA,NA,NA
70b75,Deep Question,html.Page,5_0_0_0_4_0_0,NA,NA,form submission,1779.3259999999,1992651.5,1992649.005,1992665.674,1994445,1994445.2,2023-01-14T11:23:41Z,1994449.487,NULL,Papier,karatasi,d,NA,NA,NA,m,NA,NA,0,NA,NA,NA,NA,NA,NA,NA,NA,NA,NA,NA,NA,NA,NA,NA,NA,NA,NA,NA
70b75,"""Richtig""-Screen",canvas.Screen,5_0_0_0_4_0_1,NA,NA,skipped,NA,1994446.8,NA,NA,1994445,1994447,2023-01-14T11:23:41Z,1994449.487,NULL,Papier,karatasi,d,NA,NA,NA,NA,sdf,NA,0,NA,NA,NA,NA,NA,NA,NA,NA,NA,NA,NA,NA,NA,NA,NA,NA,NA,NA,NA
70b75,"""Falsch""-Screen",canvas.Screen,5_0_0_0_4_0_2,NA,NA,timeout,5000.7,1994448.9,1994432.818,1994449.487,1999433.518,1999435.8,2023-01-14T11:23:46Z,1999450.187,NULL,Papier,karatasi,d,NA,NA,NA,NA,sdf,0,0,NA,NA,NA,NA,NA,NA,NA,NA,NA,NA,NA,NA,NA,NA,NA,NA,NA,NA,NA
70b75,deep,flow.Sequence,5_0_0_0_4_0,NA,NA,completion,6767.8439999998,1992651.5,1992649.005,1992665.674,1999433.518,1999436,2023-01-14T11:23:46Z,1999450.187,NULL,Papier,karatasi,d,NA,NA,NA,NA,sdf,NA,0,NA,NA,NA,NA,NA,NA,NA,NA,NA,NA,NA,NA,NA,NA,NA,NA,NA,NA,NA
70b75,shallow,flow.Sequence,5_0_0_0_4_1,NA,NA,skipped,NA,1999436,NA,NA,1999433.518,1999436.1,2023-01-14T11:23:46Z,1999450.187,NULL,Papier,karatasi,d,NA,NA,NA,NA,sdf,NA,0,NA,NA,NA,NA,NA,NA,NA,NA,NA,NA,NA,NA,NA,NA,NA,NA,NA,NA,NA
70b75,task,flow.Sequence,5_0_0_0_4,NA,NA,completion,6767.8439999998,1992651.4,1992649.005,1992665.674,1999433.518,1999436.1,2023-01-14T11:23:46Z,1999450.187,NULL,Papier,karatasi,d,NA,NA,NA,NA,sdf,NA,0,NA,NA,NA,NA,NA,NA,NA,NA,NA,NA,NA,NA,NA,NA,NA,NA,NA,NA,NA
70b75,Deep Question,html.Page,5_0_0_0_5_0_0,NA,NA,form submission,1555.0129999882,1999436.2,1999433.518,1999450.187,2001005.2,2001005.5,2023-01-14T11:23:47Z,2001017.073,NULL,Niveau,kiwango,d,NA,NA,NA,m,NA,NA,0,NA,NA,NA,NA,NA,NA,NA,NA,NA,NA,NA,NA,NA,NA,NA,NA,NA,NA,NA
70b75,"""Richtig""-Screen",canvas.Screen,5_0_0_0_5_0_1,NA,NA,skipped,NA,2001007,NA,NA,2001005.2,2001007.2,2023-01-14T11:23:47Z,2001017.073,NULL,Niveau,kiwango,d,NA,NA,NA,NA,sdf,NA,0,NA,NA,NA,NA,NA,NA,NA,NA,NA,NA,NA,NA,NA,NA,NA,NA,NA,NA,NA
70b75,"""Falsch""-Screen",canvas.Screen,5_0_0_0_5_0_2,NA,NA,timeout,5000.7,2001007.7,2001000.404,2001017.073,2006001.104,2006002.4,2023-01-14T11:23:52Z,2006017.773,NULL,Niveau,kiwango,d,NA,NA,NA,NA,sdf,0,0,NA,NA,NA,NA,NA,NA,NA,NA,NA,NA,NA,NA,NA,NA,NA,NA,NA,NA,NA
70b75,deep,flow.Sequence,5_0_0_0_5_0,NA,NA,completion,6550.9170000001,1999436.2,1999433.518,1999450.187,2006001.104,2006002.5,2023-01-14T11:23:52Z,2006017.773,NULL,Niveau,kiwango,d,NA,NA,NA,NA,sdf,NA,0,NA,NA,NA,NA,NA,NA,NA,NA,NA,NA,NA,NA,NA,NA,NA,NA,NA,NA,NA
70b75,shallow,flow.Sequence,5_0_0_0_5_1,NA,NA,skipped,NA,2006002.6,NA,NA,2006001.104,2006002.7,2023-01-14T11:23:52Z,2006017.773,NULL,Niveau,kiwango,d,NA,NA,NA,NA,sdf,NA,0,NA,NA,NA,NA,NA,NA,NA,NA,NA,NA,NA,NA,NA,NA,NA,NA,NA,NA,NA
70b75,task,flow.Sequence,5_0_0_0_5,NA,NA,completion,6550.9170000001,1999436.2,1999433.518,1999450.187,2006001.104,2006002.7,2023-01-14T11:23:52Z,2006017.773,NULL,Niveau,kiwango,d,NA,NA,NA,NA,sdf,NA,0,NA,NA,NA,NA,NA,NA,NA,NA,NA,NA,NA,NA,NA,NA,NA,NA,NA,NA,NA
70b75,deep,flow.Sequence,5_0_0_0_6_0,NA,NA,skipped,NA,2006002.8,NA,NA,2006001.104,2006002.8,2023-01-14T11:23:52Z,2006017.773,NULL,Vorwurf,mashtaka,s,msukumo,mtangulizi,uenyekiti,NA,sdf,NA,0,NA,NA,NA,NA,NA,NA,NA,NA,NA,NA,NA,NA,NA,NA,NA,NA,NA,NA,NA
70b75,Shallow Question,html.Page,5_0_0_0_6_1_0,NA,NA,form submission,2427.727,2006002.9,2006001.104,2006017.773,2008445.5,2008445.7,2023-01-14T11:23:55Z,2008451.721,NULL,Vorwurf,mashtaka,s,msukumo,mtangulizi,uenyekiti,mashtaka,NA,NA,0,NA,NA,NA,NA,NA,NA,NA,NA,NA,NA,NA,NA,NA,NA,NA,NA,NA,NA,NA
70b75,"""Richtig""-Screen",canvas.Screen,5_0_0_0_6_1_1,NA,NA,timeout,5000.7000000002,2008447.5,2008435.052,2008451.721,2013435.752,2013436.9,2023-01-14T11:24:00Z,2013452.421,NULL,Vorwurf,mashtaka,s,msukumo,mtangulizi,uenyekiti,NA,sdf,1,0,NA,NA,NA,NA,NA,NA,NA,NA,NA,NA,NA,NA,NA,NA,NA,NA,NA,NA,NA
70b75,"""Falsch""-Screen",canvas.Screen,5_0_0_0_6_1_2,NA,NA,skipped,NA,2013438.5,NA,NA,2013435.752,2013438.6,2023-01-14T11:24:00Z,2013452.421,NULL,Vorwurf,mashtaka,s,msukumo,mtangulizi,uenyekiti,NA,sdf,NA,0,NA,NA,NA,NA,NA,NA,NA,NA,NA,NA,NA,NA,NA,NA,NA,NA,NA,NA,NA
70b75,shallow,flow.Sequence,5_0_0_0_6_1,NA,NA,completion,7417.9790000001,2006002.9,2006001.104,2006017.773,2013435.752,2013438.7,2023-01-14T11:24:00Z,2013452.421,NULL,Vorwurf,mashtaka,s,msukumo,mtangulizi,uenyekiti,NA,sdf,NA,0,NA,NA,NA,NA,NA,NA,NA,NA,NA,NA,NA,NA,NA,NA,NA,NA,NA,NA,NA
70b75,task,flow.Sequence,5_0_0_0_6,NA,NA,completion,7417.9790000001,2006002.8,2006001.104,2006017.773,2013435.752,2013438.8,2023-01-14T11:24:00Z,2013452.421,NULL,Vorwurf,mashtaka,s,msukumo,mtangulizi,uenyekiti,NA,sdf,NA,0,NA,NA,NA,NA,NA,NA,NA,NA,NA,NA,NA,NA,NA,NA,NA,NA,NA,NA,NA
70b75,deep,flow.Sequence,5_0_0_0_7_0,NA,NA,skipped,NA,2013438.9,NA,NA,2013435.752,2013438.9,2023-01-14T11:24:00Z,2013452.421,NULL,Übersicht,kilindo,s,mgusano,chipukizi,kulinganisha,NA,sdf,NA,0,NA,NA,NA,NA,NA,NA,NA,NA,NA,NA,NA,NA,NA,NA,NA,NA,NA,NA,NA
70b75,Shallow Question,html.Page,5_0_0_0_7_1_0,NA,NA,form submission,3232.778999988,2013439,2013435.752,2013452.421,2016685.2,2016685.4,2023-01-14T11:24:03Z,2016686.435,NULL,Übersicht,kilindo,s,mgusano,chipukizi,kulinganisha,mgusano,NA,NA,0,NA,NA,NA,NA,NA,NA,NA,NA,NA,NA,NA,NA,NA,NA,NA,NA,NA,NA,NA
70b75,"""Richtig""-Screen",canvas.Screen,5_0_0_0_7_1_1,NA,NA,skipped,NA,2016686.2,NA,NA,2016685.2,2016686.3,2023-01-14T11:24:03Z,2016686.435,NULL,Übersicht,kilindo,s,mgusano,chipukizi,kulinganisha,NA,sdf,NA,0,NA,NA,NA,NA,NA,NA,NA,NA,NA,NA,NA,NA,NA,NA,NA,NA,NA,NA,NA
70b75,"""Falsch""-Screen",canvas.Screen,5_0_0_0_7_1_2,NA,NA,timeout,5000.7,2016686.9,2016669.766,2016686.435,2021670.466,2021672.7,2023-01-14T11:24:08Z,2021687.135,NULL,Übersicht,kilindo,s,mgusano,chipukizi,kulinganisha,NA,sdf,0,0,NA,NA,NA,NA,NA,NA,NA,NA,NA,NA,NA,NA,NA,NA,NA,NA,NA,NA,NA
70b75,shallow,flow.Sequence,5_0_0_0_7_1,NA,NA,completion,8218.0449999999,2013439,2013435.752,2013452.421,2021670.466,2021673,2023-01-14T11:24:08Z,2021687.135,NULL,Übersicht,kilindo,s,mgusano,chipukizi,kulinganisha,NA,sdf,NA,0,NA,NA,NA,NA,NA,NA,NA,NA,NA,NA,NA,NA,NA,NA,NA,NA,NA,NA,NA
70b75,task,flow.Sequence,5_0_0_0_7,NA,NA,completion,8218.0449999999,2013438.9,2013435.752,2013452.421,2021670.466,2021673,2023-01-14T11:24:08Z,2021687.135,NULL,Übersicht,kilindo,s,mgusano,chipukizi,kulinganisha,NA,sdf,NA,0,NA,NA,NA,NA,NA,NA,NA,NA,NA,NA,NA,NA,NA,NA,NA,NA,NA,NA,NA
70b75,block,flow.Loop,5_0_0_0,NA,NA,completion,65760.625,1955899.6,1955893.172,1955909.841,2021670.466,2021673.1,2023-01-14T11:24:08Z,2021687.135,NULL,NA,NA,NA,NA,NA,NA,NA,sdf,NA,0,NA,NA,NA,NA,NA,NA,NA,NA,NA,NA,NA,NA,NA,NA,NA,NA,NA,NA,NA
