observation,sender,sender_type,sender_id,response,response_action,ended_on,duration,time_run,time_render,time_show,time_end,time_commit,timestamp,time_switch,german,swahili,enc,distractor1,distractor2,distractor3,response_2,x,correct,distractors,url_vp,url_sess,meta_labjs_version,meta_location,meta_user_agent,meta_platform,meta_language,meta_locale,meta_time_zone,meta_timezone_offset,meta_screen_width,meta_screen_height,meta_scroll_width,meta_scroll_height,meta_window_inner_width,meta_window_inner_height,meta_device_pixel_ratio,meta_labjs_build_flavor,meta_labjs_build_commit
4137c,Introduction delayed retrieval,canvas.Screen,0,weiter,keypress(Space),response,11858.395000012,1207.400000006,1202.85,1252.905,13111.300000012,13115.199999988,2023-03-09T17:09:10Z,13144.693,NA,NA,NA,NA,NA,NA,NA,NA,NA,NULL,200,2,20.2.4,https://neurocog.fernuni.ch/studies/vweber/sfink/delayed/index.html?vp=200&sess=2,"Mozilla/5.0 (Windows NT 10.0; Win64; x64) AppleWebKit/537.36 (KHTML, like Gecko) Chrome/110.0.0.0 Safari/537.36",Win32,de-DE,de,Europe/Zurich,-60,1368,912,1368,713,1368,761,2,production,f5b4a49f956347addd546a832a3327688c2c0fef
4137c,Deep Question,html.Page,1_0_0_0,NA,NA,form submission,4928.5069999881,13115.900000006,13099.806,13144.693,18073.199999988,18073.599999994,2023-03-09T17:09:15Z,18087.34,Konkurrent,mshindani,d,msemaji,mvutaji,kipukusa,a,NA,NA,NULL,NA,NA,NA,NA,NA,NA,NA,NA,NA,NA,NA,NA,NA,NA,NA,NA,NA,NA,NA
4137c,Save data screen,canvas.Screen,1_0_0_1,NA,NA,timeout,504.873,18074.900000006,18071.224,18087.34,18575.384,18576.599999994,2023-03-09T17:09:16Z,18592.213,Konkurrent,mshindani,d,msemaji,mvutaji,kipukusa,NA,NA,0,NULL,NA,NA,NA,NA,NA,NA,NA,NA,NA,NA,NA,NA,NA,NA,NA,NA,NA,NA,NA
4137c,deep,flow.Sequence,1_0_0,NA,NA,completion,5430.691,13115.800000012,13099.806,13144.693,18575.384,18577,2023-03-09T17:09:16Z,18592.213,Konkurrent,mshindani,d,msemaji,mvutaji,kipukusa,NA,NA,NA,NULL,NA,NA,NA,NA,NA,NA,NA,NA,NA,NA,NA,NA,NA,NA,NA,NA,NA,NA,NA
4137c,task,flow.Sequence,1_0,NA,NA,completion,5430.691,13115.800000012,13099.806,13144.693,18575.384,18577.300000012,2023-03-09T17:09:16Z,18592.213,Konkurrent,mshindani,d,msemaji,mvutaji,kipukusa,NA,NA,NA,NULL,NA,NA,NA,NA,NA,NA,NA,NA,NA,NA,NA,NA,NA,NA,NA,NA,NA,NA,NA
4137c,Deep Question,html.Page,1_1_0_0,NA,NA,form submission,1990.287,18577.599999994,18575.384,18592.213,20582.5,20583,2023-03-09T17:09:18Z,20607.005,Verstand,ufahamivu,s,shakawa,hadhari,mhandisi,a,NA,NA,NULL,NA,NA,NA,NA,NA,NA,NA,NA,NA,NA,NA,NA,NA,NA,NA,NA,NA,NA,NA
4137c,Save data screen,canvas.Screen,1_1_0_1,NA,NA,timeout,503.499,20583.900000006,20573.758,20607.005,21093.829,21094.5,2023-03-09T17:09:18Z,21110.504,Verstand,ufahamivu,s,shakawa,hadhari,mhandisi,NA,NA,0,NULL,NA,NA,NA,NA,NA,NA,NA,NA,NA,NA,NA,NA,NA,NA,NA,NA,NA,NA,NA
4137c,deep,flow.Sequence,1_1_0,NA,NA,completion,2501.616,18577.599999994,18575.384,18592.213,21093.829,21094.699999988,2023-03-09T17:09:18Z,21110.504,Verstand,ufahamivu,s,shakawa,hadhari,mhandisi,NA,NA,NA,NULL,NA,NA,NA,NA,NA,NA,NA,NA,NA,NA,NA,NA,NA,NA,NA,NA,NA,NA,NA
4137c,task,flow.Sequence,1_1,NA,NA,completion,2501.616,18577.599999994,18575.384,18592.213,21093.829,21094.900000006,2023-03-09T17:09:18Z,21110.504,Verstand,ufahamivu,s,shakawa,hadhari,mhandisi,NA,NA,NA,NULL,NA,NA,NA,NA,NA,NA,NA,NA,NA,NA,NA,NA,NA,NA,NA,NA,NA,NA,NA
4137c,Deep Question,html.Page,1_2_0_0,NA,NA,form submission,3192.396000006,21095.199999988,21093.829,21110.504,24302.900000006,24303.400000006,2023-03-09T17:09:21Z,24311.776,Symbol,kielezo,s,kinyume,nderemo,utayari,a,NA,NA,NULL,NA,NA,NA,NA,NA,NA,NA,NA,NA,NA,NA,NA,NA,NA,NA,NA,NA,NA,NA
4137c,Save data screen,canvas.Screen,1_2_0_1,NA,NA,timeout,496.413,24304.800000012,24295.078,24311.776,24791.529,24792.599999994,2023-03-09T17:09:22Z,24808.189,Symbol,kielezo,s,kinyume,nderemo,utayari,NA,NA,0,NULL,NA,NA,NA,NA,NA,NA,NA,NA,NA,NA,NA,NA,NA,NA,NA,NA,NA,NA,NA
4137c,deep,flow.Sequence,1_2_0,NA,NA,completion,3681.025,21095.099999994,21093.829,21110.504,24791.529,24793,2023-03-09T17:09:22Z,24808.189,Symbol,kielezo,s,kinyume,nderemo,utayari,NA,NA,NA,NULL,NA,NA,NA,NA,NA,NA,NA,NA,NA,NA,NA,NA,NA,NA,NA,NA,NA,NA,NA
4137c,task,flow.Sequence,1_2,NA,NA,completion,3681.025,21095.099999994,21093.829,21110.504,24791.529,24793.300000012,2023-03-09T17:09:22Z,24808.189,Symbol,kielezo,s,kinyume,nderemo,utayari,NA,NA,NA,NULL,NA,NA,NA,NA,NA,NA,NA,NA,NA,NA,NA,NA,NA,NA,NA,NA,NA,NA,NA
4137c,Deep Question,html.Page,1_3_0_0,NA,NA,form submission,1354.5109999881,24793.5,24791.529,24808.189,26162.699999988,26163.199999988,2023-03-09T17:09:23Z,26178.036,Annäherung,maegesho,s,madahili,kujiamini,mapendekezo,a,NA,NA,NULL,NA,NA,NA,NA,NA,NA,NA,NA,NA,NA,NA,NA,NA,NA,NA,NA,NA,NA,NA
4137c,Save data screen,canvas.Screen,1_3_0_1,NA,NA,timeout,500.204,26164.199999988,26161.873,26178.036,26661.907,26662.900000006,2023-03-09T17:09:24Z,26678.24,Annäherung,maegesho,s,madahili,kujiamini,mapendekezo,NA,NA,0,NULL,NA,NA,NA,NA,NA,NA,NA,NA,NA,NA,NA,NA,NA,NA,NA,NA,NA,NA,NA
4137c,deep,flow.Sequence,1_3_0,NA,NA,completion,1853.718,24793.400000006,24791.529,24808.189,26661.907,26663.300000012,2023-03-09T17:09:24Z,26678.24,Annäherung,maegesho,s,madahili,kujiamini,mapendekezo,NA,NA,NA,NULL,NA,NA,NA,NA,NA,NA,NA,NA,NA,NA,NA,NA,NA,NA,NA,NA,NA,NA,NA
4137c,task,flow.Sequence,1_3,NA,NA,completion,1853.718,24793.400000006,24791.529,24808.189,26661.907,26663.400000006,2023-03-09T17:09:24Z,26678.24,Annäherung,maegesho,s,madahili,kujiamini,mapendekezo,NA,NA,NA,NULL,NA,NA,NA,NA,NA,NA,NA,NA,NA,NA,NA,NA,NA,NA,NA,NA,NA,NA,NA
4137c,Deep Question,html.Page,1_4_0_0,NA,NA,form submission,2513.660000006,26663.599999994,26661.907,26678.24,29191.900000006,29192.199999988,2023-03-09T17:09:26Z,29209.919,Schönheit,kirembo,s,mahojiano,msisimko,jitihadi,a,NA,NA,NULL,NA,NA,NA,NA,NA,NA,NA,NA,NA,NA,NA,NA,NA,NA,NA,NA,NA,NA,NA
4137c,Save data screen,canvas.Screen,1_4_0_1,NA,NA,timeout,507.496,29193.300000012,29193.243,29209.919,29700.748,29701.400000006,2023-03-09T17:09:27Z,29717.415,Schönheit,kirembo,s,mahojiano,msisimko,jitihadi,NA,NA,0,NULL,NA,NA,NA,NA,NA,NA,NA,NA,NA,NA,NA,NA,NA,NA,NA,NA,NA,NA,NA
4137c,deep,flow.Sequence,1_4_0,NA,NA,completion,3022.508,26663.5,26661.907,26678.24,29700.748,29701.699999988,2023-03-09T17:09:27Z,29717.415,Schönheit,kirembo,s,mahojiano,msisimko,jitihadi,NA,NA,NA,NULL,NA,NA,NA,NA,NA,NA,NA,NA,NA,NA,NA,NA,NA,NA,NA,NA,NA,NA,NA
4137c,task,flow.Sequence,1_4,NA,NA,completion,3022.508,26663.5,26661.907,26678.24,29700.748,29701.800000012,2023-03-09T17:09:27Z,29717.415,Schönheit,kirembo,s,mahojiano,msisimko,jitihadi,NA,NA,NA,NULL,NA,NA,NA,NA,NA,NA,NA,NA,NA,NA,NA,NA,NA,NA,NA,NA,NA,NA,NA
4137c,Deep Question,html.Page,1_5_0_0,NA,NA,form submission,1444.684999994,29702,29700.748,29717.415,31162.099999994,31162.300000012,2023-03-09T17:09:28Z,31166.319,Wettbewerb,ushindani,d,mapendezi,kichocheo,ubaguzi,a,NA,NA,NULL,NA,NA,NA,NA,NA,NA,NA,NA,NA,NA,NA,NA,NA,NA,NA,NA,NA,NA,NA
4137c,Save data screen,canvas.Screen,1_5_0_1,NA,NA,timeout,499.772,31163,31149.833,31166.319,31649.416,31650.400000006,2023-03-09T17:09:29Z,31666.091,Wettbewerb,ushindani,d,mapendezi,kichocheo,ubaguzi,NA,NA,0,NULL,NA,NA,NA,NA,NA,NA,NA,NA,NA,NA,NA,NA,NA,NA,NA,NA,NA,NA,NA
4137c,deep,flow.Sequence,1_5_0,NA,NA,completion,1932.001,29701.900000006,29700.748,29717.415,31649.416,31650.900000006,2023-03-09T17:09:29Z,31666.091,Wettbewerb,ushindani,d,mapendezi,kichocheo,ubaguzi,NA,NA,NA,NULL,NA,NA,NA,NA,NA,NA,NA,NA,NA,NA,NA,NA,NA,NA,NA,NA,NA,NA,NA
4137c,task,flow.Sequence,1_5,NA,NA,completion,1932.001,29701.900000006,29700.748,29717.415,31649.416,31651.099999994,2023-03-09T17:09:29Z,31666.091,Wettbewerb,ushindani,d,mapendezi,kichocheo,ubaguzi,NA,NA,NA,NULL,NA,NA,NA,NA,NA,NA,NA,NA,NA,NA,NA,NA,NA,NA,NA,NA,NA,NA,NA
4137c,Deep Question,html.Page,1_6_0_0,NA,NA,form submission,1836.809000006,31651.400000006,31649.416,31666.091,33502.900000006,33503.300000012,2023-03-09T17:09:31Z,33526.06,Auftrag,uagizaji,d,ghanima,kuzingatia,msukani,a,NA,NA,NULL,NA,NA,NA,NA,NA,NA,NA,NA,NA,NA,NA,NA,NA,NA,NA,NA,NA,NA,NA
4137c,Save data screen,canvas.Screen,1_6_0_1,NA,NA,timeout,493.716,33504.300000012,33509.457,33526.06,34003.103,34004,2023-03-09T17:09:31Z,34019.776,Auftrag,uagizaji,d,ghanima,kuzingatia,msukani,NA,NA,0,NULL,NA,NA,NA,NA,NA,NA,NA,NA,NA,NA,NA,NA,NA,NA,NA,NA,NA,NA,NA
4137c,deep,flow.Sequence,1_6_0,NA,NA,completion,2337.012,31651.300000012,31649.416,31666.091,34003.103,34004.199999988,2023-03-09T17:09:31Z,34019.776,Auftrag,uagizaji,d,ghanima,kuzingatia,msukani,NA,NA,NA,NULL,NA,NA,NA,NA,NA,NA,NA,NA,NA,NA,NA,NA,NA,NA,NA,NA,NA,NA,NA
4137c,task,flow.Sequence,1_6,NA,NA,completion,2337.012,31651.300000012,31649.416,31666.091,34003.103,34004.400000006,2023-03-09T17:09:31Z,34019.776,Auftrag,uagizaji,d,ghanima,kuzingatia,msukani,NA,NA,NA,NULL,NA,NA,NA,NA,NA,NA,NA,NA,NA,NA,NA,NA,NA,NA,NA,NA,NA,NA,NA
4137c,Deep Question,html.Page,1_7_0_0,NA,NA,form submission,1233.224,34004.599999994,34003.103,34019.776,35253,35253.5,2023-03-09T17:09:32Z,35266.003,Sympathie,mapendano,s,dhamiria,fungamano,maazimio,a,NA,NA,NULL,NA,NA,NA,NA,NA,NA,NA,NA,NA,NA,NA,NA,NA,NA,NA,NA,NA,NA,NA
4137c,Save data screen,canvas.Screen,1_7_0_1,NA,NA,timeout,495.737,35255,35236.002,35266.003,35744.985,35745.900000006,2023-03-09T17:09:33Z,35761.74,Sympathie,mapendano,s,dhamiria,fungamano,maazimio,NA,NA,0,NULL,NA,NA,NA,NA,NA,NA,NA,NA,NA,NA,NA,NA,NA,NA,NA,NA,NA,NA,NA
4137c,deep,flow.Sequence,1_7_0,NA,NA,completion,1725.209,34004.599999994,34003.103,34019.776,35744.985,35746.300000012,2023-03-09T17:09:33Z,35761.74,Sympathie,mapendano,s,dhamiria,fungamano,maazimio,NA,NA,NA,NULL,NA,NA,NA,NA,NA,NA,NA,NA,NA,NA,NA,NA,NA,NA,NA,NA,NA,NA,NA
4137c,task,flow.Sequence,1_7,NA,NA,completion,1725.209,34004.5,34003.103,34019.776,35744.985,35747,2023-03-09T17:09:33Z,35761.74,Sympathie,mapendano,s,dhamiria,fungamano,maazimio,NA,NA,NA,NULL,NA,NA,NA,NA,NA,NA,NA,NA,NA,NA,NA,NA,NA,NA,NA,NA,NA,NA,NA
4137c,Deep Question,html.Page,1_8_0_0,NA,NA,form submission,2801.26,35747.300000012,35744.985,35761.74,38563,38563.400000006,2023-03-09T17:09:36Z,38593.054,Zuwachs,nyongeza,s,matilaba,udhibiti,hudhurio,a,NA,NA,NULL,NA,NA,NA,NA,NA,NA,NA,NA,NA,NA,NA,NA,NA,NA,NA,NA,NA,NA,NA
4137c,Save data screen,canvas.Screen,1_8_0_1,NA,NA,timeout,503.828,38564.900000006,38576.722,38593.054,39080.229,39081.400000006,2023-03-09T17:09:36Z,39096.882,Zuwachs,nyongeza,s,matilaba,udhibiti,hudhurio,NA,NA,0,NULL,NA,NA,NA,NA,NA,NA,NA,NA,NA,NA,NA,NA,NA,NA,NA,NA,NA,NA,NA
4137c,deep,flow.Sequence,1_8_0,NA,NA,completion,3318.489,35747.199999988,35744.985,35761.74,39080.229,39081.800000012,2023-03-09T17:09:36Z,39096.882,Zuwachs,nyongeza,s,matilaba,udhibiti,hudhurio,NA,NA,NA,NULL,NA,NA,NA,NA,NA,NA,NA,NA,NA,NA,NA,NA,NA,NA,NA,NA,NA,NA,NA
4137c,task,flow.Sequence,1_8,NA,NA,completion,3318.489,35747.099999994,35744.985,35761.74,39080.229,39082.099999994,2023-03-09T17:09:36Z,39096.882,Zuwachs,nyongeza,s,matilaba,udhibiti,hudhurio,NA,NA,NA,NULL,NA,NA,NA,NA,NA,NA,NA,NA,NA,NA,NA,NA,NA,NA,NA,NA,NA,NA,NA
4137c,Deep Question,html.Page,1_9_0_0,NA,NA,form submission,14096.418000012,39082.300000012,39080.229,39096.882,53193.300000012,53193.599999994,2023-03-09T17:09:50Z,53193.862,Polizist,msongora,d,simanzi,mandhari,nidhamu,gsongora,NA,NA,NULL,NA,NA,NA,NA,NA,NA,NA,NA,NA,NA,NA,NA,NA,NA,NA,NA,NA,NA,NA
4137c,Save data screen,canvas.Screen,1_9_0_1,NA,NA,timeout,506.196,53195.5,53191.719,53193.862,53683.902,53684.800000012,2023-03-09T17:09:51Z,53700.058,Polizist,msongora,d,simanzi,mandhari,nidhamu,NA,NA,0,NULL,NA,NA,NA,NA,NA,NA,NA,NA,NA,NA,NA,NA,NA,NA,NA,NA,NA,NA,NA
4137c,deep,flow.Sequence,1_9_0,NA,NA,completion,14587.02,39082.300000012,39080.229,39096.882,53683.902,53685.199999988,2023-03-09T17:09:51Z,53700.058,Polizist,msongora,d,simanzi,mandhari,nidhamu,NA,NA,NA,NULL,NA,NA,NA,NA,NA,NA,NA,NA,NA,NA,NA,NA,NA,NA,NA,NA,NA,NA,NA
4137c,task,flow.Sequence,1_9,NA,NA,completion,14587.02,39082.199999988,39080.229,39096.882,53683.902,53685.300000012,2023-03-09T17:09:51Z,53700.058,Polizist,msongora,d,simanzi,mandhari,nidhamu,NA,NA,NA,NULL,NA,NA,NA,NA,NA,NA,NA,NA,NA,NA,NA,NA,NA,NA,NA,NA,NA,NA,NA
4137c,Deep Question,html.Page,1_10_0_0,NA,NA,form submission,2323.541999994,53685.599999994,53683.902,53700.058,56023.599999994,56024.199999988,2023-03-09T17:09:53Z,56048.777,Ausschluss,kutengwa,d,ununuzi,taratibu,madeni,a,NA,NA,NULL,NA,NA,NA,NA,NA,NA,NA,NA,NA,NA,NA,NA,NA,NA,NA,NA,NA,NA,NA
4137c,Save data screen,canvas.Screen,1_10_0_1,NA,NA,timeout,505.06299999999,56025.800000012,56016.355,56048.777,56537.157,56537.699999988,2023-03-09T17:09:54Z,56553.84,Ausschluss,kutengwa,d,ununuzi,taratibu,madeni,NA,NA,0,NULL,NA,NA,NA,NA,NA,NA,NA,NA,NA,NA,NA,NA,NA,NA,NA,NA,NA,NA,NA
4137c,deep,flow.Sequence,1_10_0,NA,NA,completion,2837.099,53685.599999994,53683.902,53700.058,56537.157,56538,2023-03-09T17:09:54Z,56553.84,Ausschluss,kutengwa,d,ununuzi,taratibu,madeni,NA,NA,NA,NULL,NA,NA,NA,NA,NA,NA,NA,NA,NA,NA,NA,NA,NA,NA,NA,NA,NA,NA,NA
4137c,task,flow.Sequence,1_10,NA,NA,completion,2837.099,53685.5,53683.902,53700.058,56537.157,56538.300000012,2023-03-09T17:09:54Z,56553.84,Ausschluss,kutengwa,d,ununuzi,taratibu,madeni,NA,NA,NA,NULL,NA,NA,NA,NA,NA,NA,NA,NA,NA,NA,NA,NA,NA,NA,NA,NA,NA,NA,NA
4137c,Deep Question,html.Page,1_11_0_0,NA,NA,form submission,2919.060000006,56538.400000006,56537.157,56553.84,59472.900000006,59473.300000012,2023-03-09T17:09:57Z,59489.253,Zufall,kikuti,s,kukosekana,uchoraji,leseni,a,NA,NA,NULL,NA,NA,NA,NA,NA,NA,NA,NA,NA,NA,NA,NA,NA,NA,NA,NA,NA,NA,NA
4137c,Save data screen,canvas.Screen,1_11_0_1,NA,NA,timeout,507.681,59475,59455.971,59489.253,59980.225,59981.199999988,2023-03-09T17:09:57Z,59996.934,Zufall,kikuti,s,kukosekana,uchoraji,leseni,NA,NA,0,NULL,NA,NA,NA,NA,NA,NA,NA,NA,NA,NA,NA,NA,NA,NA,NA,NA,NA,NA,NA
4137c,deep,flow.Sequence,1_11_0,NA,NA,completion,3426.385,56538.400000006,56537.157,56553.84,59980.225,59981.599999994,2023-03-09T17:09:57Z,59996.934,Zufall,kikuti,s,kukosekana,uchoraji,leseni,NA,NA,NA,NULL,NA,NA,NA,NA,NA,NA,NA,NA,NA,NA,NA,NA,NA,NA,NA,NA,NA,NA,NA
4137c,task,flow.Sequence,1_11,NA,NA,completion,3426.385,56538.300000012,56537.157,56553.84,59980.225,59981.900000006,2023-03-09T17:09:57Z,59996.934,Zufall,kikuti,s,kukosekana,uchoraji,leseni,NA,NA,NA,NULL,NA,NA,NA,NA,NA,NA,NA,NA,NA,NA,NA,NA,NA,NA,NA,NA,NA,NA,NA
4137c,Deep Question,html.Page,1_12_0_0,NA,NA,form submission,1095.466000006,59982.099999994,59980.225,59996.934,61092.400000006,61092.599999994,2023-03-09T17:09:58Z,61105.805,Vorsorge,tahadhari,d,ufafanuzi,makini,mashambani,a,NA,NA,NULL,NA,NA,NA,NA,NA,NA,NA,NA,NA,NA,NA,NA,NA,NA,NA,NA,NA,NA,NA
4137c,Save data screen,canvas.Screen,1_12_0_1,NA,NA,timeout,507.524,61093.599999994,61089.266,61105.805,61596.522,61597.300000012,2023-03-09T17:09:59Z,61613.329,Vorsorge,tahadhari,d,ufafanuzi,makini,mashambani,NA,NA,0,NULL,NA,NA,NA,NA,NA,NA,NA,NA,NA,NA,NA,NA,NA,NA,NA,NA,NA,NA,NA
4137c,deep,flow.Sequence,1_12_0,NA,NA,completion,1599.588,59982.099999994,59980.225,59996.934,61596.522,61597.5,2023-03-09T17:09:59Z,61613.329,Vorsorge,tahadhari,d,ufafanuzi,makini,mashambani,NA,NA,NA,NULL,NA,NA,NA,NA,NA,NA,NA,NA,NA,NA,NA,NA,NA,NA,NA,NA,NA,NA,NA
4137c,task,flow.Sequence,1_12,NA,NA,completion,1599.588,59982,59980.225,59996.934,61596.522,61597.699999988,2023-03-09T17:09:59Z,61613.329,Vorsorge,tahadhari,d,ufafanuzi,makini,mashambani,NA,NA,NA,NULL,NA,NA,NA,NA,NA,NA,NA,NA,NA,NA,NA,NA,NA,NA,NA,NA,NA,NA,NA
4137c,Deep Question,html.Page,1_13_0_0,NA,NA,form submission,12079.671,61597.900000006,61596.522,61613.329,73693,73693.400000006,2023-03-09T17:10:11Z,73724.727,Beweis,ushahidi,d,marudio,kizuizi,mtendaji,dshahidi,NA,NA,NULL,NA,NA,NA,NA,NA,NA,NA,NA,NA,NA,NA,NA,NA,NA,NA,NA,NA,NA,NA
4137c,Save data screen,canvas.Screen,1_13_0_1,NA,NA,timeout,492.24099999999,73698.699999988,73681.647,73724.727,74199.768,74200.800000012,2023-03-09T17:10:11Z,74216.968,Beweis,ushahidi,d,marudio,kizuizi,mtendaji,NA,NA,0,NULL,NA,NA,NA,NA,NA,NA,NA,NA,NA,NA,NA,NA,NA,NA,NA,NA,NA,NA,NA
4137c,deep,flow.Sequence,1_13_0,NA,NA,completion,12586.439,61597.900000006,61596.522,61613.329,74199.768,74201.300000012,2023-03-09T17:10:11Z,74216.968,Beweis,ushahidi,d,marudio,kizuizi,mtendaji,NA,NA,NA,NULL,NA,NA,NA,NA,NA,NA,NA,NA,NA,NA,NA,NA,NA,NA,NA,NA,NA,NA,NA
4137c,task,flow.Sequence,1_13,NA,NA,completion,12586.439,61597.900000006,61596.522,61613.329,74199.768,74201.599999994,2023-03-09T17:10:11Z,74216.968,Beweis,ushahidi,d,marudio,kizuizi,mtendaji,NA,NA,NA,NULL,NA,NA,NA,NA,NA,NA,NA,NA,NA,NA,NA,NA,NA,NA,NA,NA,NA,NA,NA
4137c,Deep Question,html.Page,1_14_0_0,NA,NA,form submission,1116.532,74201.800000012,74199.768,74216.968,75333.5,75334,2023-03-09T17:10:12Z,75365.64,Gelegenheit,wakati,d,mchanganyiko,kipaumbele,kushuku,a,NA,NA,NULL,NA,NA,NA,NA,NA,NA,NA,NA,NA,NA,NA,NA,NA,NA,NA,NA,NA,NA,NA
4137c,Save data screen,canvas.Screen,1_14_0_1,NA,NA,timeout,504.804,75335.400000006,75327.094,75365.64,75853.699,75854.400000006,2023-03-09T17:10:13Z,75870.444,Gelegenheit,wakati,d,mchanganyiko,kipaumbele,kushuku,NA,NA,0,NULL,NA,NA,NA,NA,NA,NA,NA,NA,NA,NA,NA,NA,NA,NA,NA,NA,NA,NA,NA
4137c,deep,flow.Sequence,1_14_0,NA,NA,completion,1636.731,74201.800000012,74199.768,74216.968,75853.699,75854.800000012,2023-03-09T17:10:13Z,75870.444,Gelegenheit,wakati,d,mchanganyiko,kipaumbele,kushuku,NA,NA,NA,NULL,NA,NA,NA,NA,NA,NA,NA,NA,NA,NA,NA,NA,NA,NA,NA,NA,NA,NA,NA
4137c,task,flow.Sequence,1_14,NA,NA,completion,1636.731,74201.800000012,74199.768,74216.968,75853.699,75855.099999994,2023-03-09T17:10:13Z,75870.444,Gelegenheit,wakati,d,mchanganyiko,kipaumbele,kushuku,NA,NA,NA,NULL,NA,NA,NA,NA,NA,NA,NA,NA,NA,NA,NA,NA,NA,NA,NA,NA,NA,NA,NA
4137c,Deep Question,html.Page,1_15_0_0,NA,NA,form submission,842.25599998808,75855.300000012,75853.699,75870.444,76712.699999988,76712.900000006,2023-03-09T17:10:14Z,76731.261,Widerstand,usulubu,s,kusababisha,mwalimu,mwenendo,a,NA,NA,NULL,NA,NA,NA,NA,NA,NA,NA,NA,NA,NA,NA,NA,NA,NA,NA,NA,NA,NA,NA
4137c,Save data screen,canvas.Screen,1_15_0_1,NA,NA,timeout,505.787,76713.599999994,76707.616,76731.261,77220.729,77221.5,2023-03-09T17:10:14Z,77237.048,Widerstand,usulubu,s,kusababisha,mwalimu,mwenendo,NA,NA,0,NULL,NA,NA,NA,NA,NA,NA,NA,NA,NA,NA,NA,NA,NA,NA,NA,NA,NA,NA,NA
4137c,deep,flow.Sequence,1_15_0,NA,NA,completion,1350.285,75855.300000012,75853.699,75870.444,77220.729,77221.900000006,2023-03-09T17:10:14Z,77237.048,Widerstand,usulubu,s,kusababisha,mwalimu,mwenendo,NA,NA,NA,NULL,NA,NA,NA,NA,NA,NA,NA,NA,NA,NA,NA,NA,NA,NA,NA,NA,NA,NA,NA
4137c,task,flow.Sequence,1_15,NA,NA,completion,1350.285,75855.199999988,75853.699,75870.444,77220.729,77222.099999994,2023-03-09T17:10:14Z,77237.048,Widerstand,usulubu,s,kusababisha,mwalimu,mwenendo,NA,NA,NA,NULL,NA,NA,NA,NA,NA,NA,NA,NA,NA,NA,NA,NA,NA,NA,NA,NA,NA,NA,NA
4137c,retrieval block 1 (cued recall),flow.Loop,1,NA,NA,completion,64076.036,13115.800000012,13099.806,13144.693,77220.729,77222.300000012,2023-03-09T17:10:14Z,77237.048,NA,NA,NA,NA,NA,NA,NA,NA,NA,NULL,NA,NA,NA,NA,NA,NA,NA,NA,NA,NA,NA,NA,NA,NA,NA,NA,NA,NA,NA
4137c,Shallow Question,html.Page,2_0_0_0,NA,NA,form submission,9894.852000006,77222.5,77220.729,77237.048,87131.900000006,87132.199999988,2023-03-09T17:10:24Z,87140.723,Wettbewerb,ushindani,d,mapendezi,kichocheo,ubaguzi,ushindani,NA,NA,"c(""distractor1"", ""distractor2"", ""distractor3"")",NA,NA,NA,NA,NA,NA,NA,NA,NA,NA,NA,NA,NA,NA,NA,NA,NA,NA,NA
4137c,Save data screen,canvas.Screen,2_0_0_1,NA,NA,timeout,505.427,87135.099999994,87125.104,87140.723,87629.572,87630.300000012,2023-03-09T17:10:25Z,87646.15,Wettbewerb,ushindani,d,mapendezi,kichocheo,ubaguzi,NA,NA,1,"c(""distractor1"", ""distractor2"", ""distractor3"")",NA,NA,NA,NA,NA,NA,NA,NA,NA,NA,NA,NA,NA,NA,NA,NA,NA,NA,NA
4137c,shallow,flow.Sequence,2_0_0,NA,NA,completion,10392.524,77222.5,77220.729,77237.048,87629.572,87630.699999988,2023-03-09T17:10:25Z,87646.15,Wettbewerb,ushindani,d,mapendezi,kichocheo,ubaguzi,NA,NA,NA,"c(""distractor1"", ""distractor2"", ""distractor3"")",NA,NA,NA,NA,NA,NA,NA,NA,NA,NA,NA,NA,NA,NA,NA,NA,NA,NA,NA
4137c,task,flow.Sequence,2_0,NA,NA,completion,10392.524,77222.400000006,77220.729,77237.048,87629.572,87630.900000006,2023-03-09T17:10:25Z,87646.15,Wettbewerb,ushindani,d,mapendezi,kichocheo,ubaguzi,NA,NA,NA,"c(""distractor1"", ""distractor2"", ""distractor3"")",NA,NA,NA,NA,NA,NA,NA,NA,NA,NA,NA,NA,NA,NA,NA,NA,NA,NA,NA
4137c,Shallow Question,html.Page,2_1_0_0,NA,NA,form submission,4312.949999994,87630.900000006,87629.572,87646.15,91959.099999994,91959.400000006,2023-03-09T17:10:29Z,91973.547,Verstand,ufahamivu,s,shakawa,hadhari,mhandisi,hadhari,NA,NA,"c(""distractor1"", ""distractor2"", ""distractor3"")",NA,NA,NA,NA,NA,NA,NA,NA,NA,NA,NA,NA,NA,NA,NA,NA,NA,NA,NA
4137c,Save data screen,canvas.Screen,2_1_0_1,NA,NA,timeout,500.73599999999,91963.099999994,91956.991,91973.547,92457.564,92458.5,2023-03-09T17:10:30Z,92474.283,Verstand,ufahamivu,s,shakawa,hadhari,mhandisi,NA,NA,0,"c(""distractor1"", ""distractor2"", ""distractor3"")",NA,NA,NA,NA,NA,NA,NA,NA,NA,NA,NA,NA,NA,NA,NA,NA,NA,NA,NA
4137c,shallow,flow.Sequence,2_1_0,NA,NA,completion,4811.414,87630.900000006,87629.572,87646.15,92457.564,92458.900000006,2023-03-09T17:10:30Z,92474.283,Verstand,ufahamivu,s,shakawa,hadhari,mhandisi,NA,NA,NA,"c(""distractor1"", ""distractor2"", ""distractor3"")",NA,NA,NA,NA,NA,NA,NA,NA,NA,NA,NA,NA,NA,NA,NA,NA,NA,NA,NA
4137c,task,flow.Sequence,2_1,NA,NA,completion,4811.414,87630.900000006,87629.572,87646.15,92457.564,92459.300000012,2023-03-09T17:10:30Z,92474.283,Verstand,ufahamivu,s,shakawa,hadhari,mhandisi,NA,NA,NA,"c(""distractor1"", ""distractor2"", ""distractor3"")",NA,NA,NA,NA,NA,NA,NA,NA,NA,NA,NA,NA,NA,NA,NA,NA,NA,NA,NA
4137c,Shallow Question,html.Page,2_2_0_0,NA,NA,form submission,7405.5170000119,92459.400000006,92457.564,92474.283,99879.800000012,99880.099999994,2023-03-09T17:10:37Z,99890.036,Auftrag,uagizaji,d,ghanima,kuzingatia,msukani,uagizaji,NA,NA,"c(""distractor1"", ""distractor2"", ""distractor3"")",NA,NA,NA,NA,NA,NA,NA,NA,NA,NA,NA,NA,NA,NA,NA,NA,NA,NA,NA
4137c,Save data screen,canvas.Screen,2_2_0_1,NA,NA,timeout,505.55100000001,99882.900000006,99873.918,99890.036,100378.884,100381.30000001,2023-03-09T17:10:37Z,100395.587,Auftrag,uagizaji,d,ghanima,kuzingatia,msukani,NA,NA,1,"c(""distractor1"", ""distractor2"", ""distractor3"")",NA,NA,NA,NA,NA,NA,NA,NA,NA,NA,NA,NA,NA,NA,NA,NA,NA,NA,NA
4137c,shallow,flow.Sequence,2_2_0,NA,NA,completion,7904.601,92459.400000006,92457.564,92474.283,100378.884,100381.40000001,2023-03-09T17:10:37Z,100395.587,Auftrag,uagizaji,d,ghanima,kuzingatia,msukani,NA,NA,NA,"c(""distractor1"", ""distractor2"", ""distractor3"")",NA,NA,NA,NA,NA,NA,NA,NA,NA,NA,NA,NA,NA,NA,NA,NA,NA,NA,NA
4137c,task,flow.Sequence,2_2,NA,NA,completion,7904.601,92459.300000012,92457.564,92474.283,100378.884,100381.59999999,2023-03-09T17:10:37Z,100395.587,Auftrag,uagizaji,d,ghanima,kuzingatia,msukani,NA,NA,NA,"c(""distractor1"", ""distractor2"", ""distractor3"")",NA,NA,NA,NA,NA,NA,NA,NA,NA,NA,NA,NA,NA,NA,NA,NA,NA,NA,NA
4137c,Shallow Question,html.Page,2_3_0_0,NA,NA,form submission,7363.7130000119,100381.69999999,100378.884,100395.587,107759.30000001,107759.80000001,2023-03-09T17:10:45Z,107758.48,Polizist,msongora,d,simanzi,mandhari,nidhamu,msongora,NA,NA,"c(""distractor1"", ""distractor2"", ""distractor3"")",NA,NA,NA,NA,NA,NA,NA,NA,NA,NA,NA,NA,NA,NA,NA,NA,NA,NA,NA
4137c,Save data screen,canvas.Screen,2_3_0_1,NA,NA,timeout,507.595,107764.69999999,107748.677,107758.48,108249.11,108250,2023-03-09T17:10:45Z,108266.075,Polizist,msongora,d,simanzi,mandhari,nidhamu,NA,NA,1,"c(""distractor1"", ""distractor2"", ""distractor3"")",NA,NA,NA,NA,NA,NA,NA,NA,NA,NA,NA,NA,NA,NA,NA,NA,NA,NA,NA
4137c,shallow,flow.Sequence,2_3_0,NA,NA,completion,7853.523,100381.69999999,100378.884,100395.587,108249.11,108250.40000001,2023-03-09T17:10:45Z,108266.075,Polizist,msongora,d,simanzi,mandhari,nidhamu,NA,NA,NA,"c(""distractor1"", ""distractor2"", ""distractor3"")",NA,NA,NA,NA,NA,NA,NA,NA,NA,NA,NA,NA,NA,NA,NA,NA,NA,NA,NA
4137c,task,flow.Sequence,2_3,NA,NA,completion,7853.523,100381.69999999,100378.884,100395.587,108249.11,108250.59999999,2023-03-09T17:10:45Z,108266.075,Polizist,msongora,d,simanzi,mandhari,nidhamu,NA,NA,NA,"c(""distractor1"", ""distractor2"", ""distractor3"")",NA,NA,NA,NA,NA,NA,NA,NA,NA,NA,NA,NA,NA,NA,NA,NA,NA,NA,NA
4137c,Shallow Question,html.Page,2_4_0_0,NA,NA,form submission,6594.024999994,108250.80000001,108249.11,108266.075,114860.09999999,114860.5,2023-03-09T17:10:52Z,114862.462,Symbol,kielezo,s,kinyume,nderemo,utayari,kielezo,NA,NA,"c(""distractor1"", ""distractor2"", ""distractor3"")",NA,NA,NA,NA,NA,NA,NA,NA,NA,NA,NA,NA,NA,NA,NA,NA,NA,NA,NA
4137c,Save data screen,canvas.Screen,2_4_0_1,NA,NA,timeout,500.766,114864.40000001,114845.807,114862.462,115346.605,115347.5,2023-03-09T17:10:52Z,115363.228,Symbol,kielezo,s,kinyume,nderemo,utayari,NA,NA,1,"c(""distractor1"", ""distractor2"", ""distractor3"")",NA,NA,NA,NA,NA,NA,NA,NA,NA,NA,NA,NA,NA,NA,NA,NA,NA,NA,NA
4137c,shallow,flow.Sequence,2_4_0,NA,NA,completion,7080.53,108250.80000001,108249.11,108266.075,115346.605,115347.69999999,2023-03-09T17:10:52Z,115363.228,Symbol,kielezo,s,kinyume,nderemo,utayari,NA,NA,NA,"c(""distractor1"", ""distractor2"", ""distractor3"")",NA,NA,NA,NA,NA,NA,NA,NA,NA,NA,NA,NA,NA,NA,NA,NA,NA,NA,NA
4137c,task,flow.Sequence,2_4,NA,NA,completion,7080.53,108250.80000001,108249.11,108266.075,115346.605,115348,2023-03-09T17:10:52Z,115363.228,Symbol,kielezo,s,kinyume,nderemo,utayari,NA,NA,NA,"c(""distractor1"", ""distractor2"", ""distractor3"")",NA,NA,NA,NA,NA,NA,NA,NA,NA,NA,NA,NA,NA,NA,NA,NA,NA,NA,NA
4137c,Shallow Question,html.Page,2_5_0_0,NA,NA,form submission,8244.172000006,115348.19999999,115346.605,115363.228,123607.40000001,123607.69999999,2023-03-09T17:11:01Z,123627.778,Beweis,ushahidi,d,marudio,kizuizi,mtendaji,ushahidi,NA,NA,"c(""distractor1"", ""distractor2"", ""distractor3"")",NA,NA,NA,NA,NA,NA,NA,NA,NA,NA,NA,NA,NA,NA,NA,NA,NA,NA,NA
4137c,Save data screen,canvas.Screen,2_5_0_1,NA,NA,timeout,507.50599999999,123610.30000001,123612.651,123627.778,124118.514,124119.30000001,2023-03-09T17:11:01Z,124135.284,Beweis,ushahidi,d,marudio,kizuizi,mtendaji,NA,NA,1,"c(""distractor1"", ""distractor2"", ""distractor3"")",NA,NA,NA,NA,NA,NA,NA,NA,NA,NA,NA,NA,NA,NA,NA,NA,NA,NA,NA
4137c,shallow,flow.Sequence,2_5_0,NA,NA,completion,8755.286,115348.19999999,115346.605,115363.228,124118.514,124119.59999999,2023-03-09T17:11:01Z,124135.284,Beweis,ushahidi,d,marudio,kizuizi,mtendaji,NA,NA,NA,"c(""distractor1"", ""distractor2"", ""distractor3"")",NA,NA,NA,NA,NA,NA,NA,NA,NA,NA,NA,NA,NA,NA,NA,NA,NA,NA,NA
4137c,task,flow.Sequence,2_5,NA,NA,completion,8755.286,115348.09999999,115346.605,115363.228,124118.514,124119.69999999,2023-03-09T17:11:01Z,124135.284,Beweis,ushahidi,d,marudio,kizuizi,mtendaji,NA,NA,NA,"c(""distractor1"", ""distractor2"", ""distractor3"")",NA,NA,NA,NA,NA,NA,NA,NA,NA,NA,NA,NA,NA,NA,NA,NA,NA,NA,NA
4137c,Shallow Question,html.Page,2_6_0_0,NA,NA,form submission,7326.716,124120,124118.514,124135.284,131462,131462.40000001,2023-03-09T17:11:09Z,131482.647,Widerstand,usulubu,s,kusababisha,mwalimu,mwenendo,usulubu,NA,NA,"c(""distractor1"", ""distractor2"", ""distractor3"")",NA,NA,NA,NA,NA,NA,NA,NA,NA,NA,NA,NA,NA,NA,NA,NA,NA,NA,NA
4137c,Save data screen,canvas.Screen,2_6_0_1,NA,NA,timeout,500.94099999999,131467.09999999,131461.019,131482.647,131966.858,131967.90000001,2023-03-09T17:11:09Z,131983.588,Widerstand,usulubu,s,kusababisha,mwalimu,mwenendo,NA,NA,1,"c(""distractor1"", ""distractor2"", ""distractor3"")",NA,NA,NA,NA,NA,NA,NA,NA,NA,NA,NA,NA,NA,NA,NA,NA,NA,NA,NA
4137c,shallow,flow.Sequence,2_6_0,NA,NA,completion,7831.574,124120,124118.514,124135.284,131966.858,131968.40000001,2023-03-09T17:11:09Z,131983.588,Widerstand,usulubu,s,kusababisha,mwalimu,mwenendo,NA,NA,NA,"c(""distractor1"", ""distractor2"", ""distractor3"")",NA,NA,NA,NA,NA,NA,NA,NA,NA,NA,NA,NA,NA,NA,NA,NA,NA,NA,NA
4137c,task,flow.Sequence,2_6,NA,NA,completion,7831.574,124119.90000001,124118.514,124135.284,131966.858,131968.69999999,2023-03-09T17:11:09Z,131983.588,Widerstand,usulubu,s,kusababisha,mwalimu,mwenendo,NA,NA,NA,"c(""distractor1"", ""distractor2"", ""distractor3"")",NA,NA,NA,NA,NA,NA,NA,NA,NA,NA,NA,NA,NA,NA,NA,NA,NA,NA,NA
4137c,Shallow Question,html.Page,2_7_0_0,NA,NA,form submission,15347.412,131968.90000001,131966.858,131983.588,147331,147331.5,2023-03-09T17:11:24Z,147330.255,Zufall,kikuti,s,kukosekana,uchoraji,leseni,kikuti,NA,NA,"c(""distractor1"", ""distractor2"", ""distractor3"")",NA,NA,NA,NA,NA,NA,NA,NA,NA,NA,NA,NA,NA,NA,NA,NA,NA,NA,NA
4137c,Save data screen,canvas.Screen,2_7_0_1,NA,NA,timeout,506.158,147336.19999999,147313.509,147330.255,147819.763,147820.40000001,2023-03-09T17:11:25Z,147836.413,Zufall,kikuti,s,kukosekana,uchoraji,leseni,NA,NA,1,"c(""distractor1"", ""distractor2"", ""distractor3"")",NA,NA,NA,NA,NA,NA,NA,NA,NA,NA,NA,NA,NA,NA,NA,NA,NA,NA,NA
4137c,shallow,flow.Sequence,2_7_0,NA,NA,completion,15836.175,131968.90000001,131966.858,131983.588,147819.763,147820.80000001,2023-03-09T17:11:25Z,147836.413,Zufall,kikuti,s,kukosekana,uchoraji,leseni,NA,NA,NA,"c(""distractor1"", ""distractor2"", ""distractor3"")",NA,NA,NA,NA,NA,NA,NA,NA,NA,NA,NA,NA,NA,NA,NA,NA,NA,NA,NA
4137c,task,flow.Sequence,2_7,NA,NA,completion,15836.175,131968.90000001,131966.858,131983.588,147819.763,147821.19999999,2023-03-09T17:11:25Z,147836.413,Zufall,kikuti,s,kukosekana,uchoraji,leseni,NA,NA,NA,"c(""distractor1"", ""distractor2"", ""distractor3"")",NA,NA,NA,NA,NA,NA,NA,NA,NA,NA,NA,NA,NA,NA,NA,NA,NA,NA,NA
4137c,Shallow Question,html.Page,2_8_0_0,NA,NA,form submission,11059.087,147821.5,147819.763,147836.413,158895.5,158896,2023-03-09T17:11:36Z,158906.661,Annäherung,maegesho,s,madahili,kujiamini,mapendekezo,maegesho,NA,NA,"c(""distractor1"", ""distractor2"", ""distractor3"")",NA,NA,NA,NA,NA,NA,NA,NA,NA,NA,NA,NA,NA,NA,NA,NA,NA,NA,NA
4137c,Save data screen,canvas.Screen,2_8_0_1,NA,NA,timeout,506.56600000002,158900.59999999,158890.121,158906.661,159396.579,159397.59999999,2023-03-09T17:11:36Z,159413.227,Annäherung,maegesho,s,madahili,kujiamini,mapendekezo,NA,NA,1,"c(""distractor1"", ""distractor2"", ""distractor3"")",NA,NA,NA,NA,NA,NA,NA,NA,NA,NA,NA,NA,NA,NA,NA,NA,NA,NA,NA
4137c,shallow,flow.Sequence,2_8_0,NA,NA,completion,11560.166,147821.30000001,147819.763,147836.413,159396.579,159398.09999999,2023-03-09T17:11:36Z,159413.227,Annäherung,maegesho,s,madahili,kujiamini,mapendekezo,NA,NA,NA,"c(""distractor1"", ""distractor2"", ""distractor3"")",NA,NA,NA,NA,NA,NA,NA,NA,NA,NA,NA,NA,NA,NA,NA,NA,NA,NA,NA
4137c,task,flow.Sequence,2_8,NA,NA,completion,11560.166,147821.30000001,147819.763,147836.413,159396.579,159398.40000001,2023-03-09T17:11:36Z,159413.227,Annäherung,maegesho,s,madahili,kujiamini,mapendekezo,NA,NA,NA,"c(""distractor1"", ""distractor2"", ""distractor3"")",NA,NA,NA,NA,NA,NA,NA,NA,NA,NA,NA,NA,NA,NA,NA,NA,NA,NA,NA
4137c,Shallow Question,html.Page,2_9_0_0,NA,NA,form submission,6290.9729999881,159398.59999999,159396.579,159413.227,165704.19999999,165704.5,2023-03-09T17:11:43Z,165705.541,Zuwachs,nyongeza,s,matilaba,udhibiti,hudhurio,nyongeza,NA,NA,"c(""distractor1"", ""distractor2"", ""distractor3"")",NA,NA,NA,NA,NA,NA,NA,NA,NA,NA,NA,NA,NA,NA,NA,NA,NA,NA,NA
4137c,Save data screen,canvas.Screen,2_9_0_1,NA,NA,timeout,495.05600000001,165708.40000001,165688.886,165705.541,166183.908,166185.19999999,2023-03-09T17:11:43Z,166200.597,Zuwachs,nyongeza,s,matilaba,udhibiti,hudhurio,NA,NA,1,"c(""distractor1"", ""distractor2"", ""distractor3"")",NA,NA,NA,NA,NA,NA,NA,NA,NA,NA,NA,NA,NA,NA,NA,NA,NA,NA,NA
4137c,shallow,flow.Sequence,2_9_0,NA,NA,completion,6770.681,159398.5,159396.579,159413.227,166183.908,166185.90000001,2023-03-09T17:11:43Z,166200.597,Zuwachs,nyongeza,s,matilaba,udhibiti,hudhurio,NA,NA,NA,"c(""distractor1"", ""distractor2"", ""distractor3"")",NA,NA,NA,NA,NA,NA,NA,NA,NA,NA,NA,NA,NA,NA,NA,NA,NA,NA,NA
4137c,task,flow.Sequence,2_9,NA,NA,completion,6770.681,159398.5,159396.579,159413.227,166183.908,166186.19999999,2023-03-09T17:11:43Z,166200.597,Zuwachs,nyongeza,s,matilaba,udhibiti,hudhurio,NA,NA,NA,"c(""distractor1"", ""distractor2"", ""distractor3"")",NA,NA,NA,NA,NA,NA,NA,NA,NA,NA,NA,NA,NA,NA,NA,NA,NA,NA,NA
4137c,Shallow Question,html.Page,2_10_0_0,NA,NA,form submission,7145.002999994,166186.59999999,166183.908,166200.597,173345.59999999,173345.90000001,2023-03-09T17:11:50Z,173355.667,Konkurrent,mshindani,d,msemaji,mvutaji,kipukusa,mshindani,NA,NA,"c(""distractor1"", ""distractor2"", ""distractor3"")",NA,NA,NA,NA,NA,NA,NA,NA,NA,NA,NA,NA,NA,NA,NA,NA,NA,NA,NA
4137c,Save data screen,canvas.Screen,2_10_0_1,NA,NA,timeout,502.78200000001,173348.90000001,173339.094,173355.667,173841.703,173842.69999999,2023-03-09T17:11:51Z,173858.449,Konkurrent,mshindani,d,msemaji,mvutaji,kipukusa,NA,NA,1,"c(""distractor1"", ""distractor2"", ""distractor3"")",NA,NA,NA,NA,NA,NA,NA,NA,NA,NA,NA,NA,NA,NA,NA,NA,NA,NA,NA
4137c,shallow,flow.Sequence,2_10_0,NA,NA,completion,7641.106,166186.5,166183.908,166200.597,173841.703,173843,2023-03-09T17:11:51Z,173858.449,Konkurrent,mshindani,d,msemaji,mvutaji,kipukusa,NA,NA,NA,"c(""distractor1"", ""distractor2"", ""distractor3"")",NA,NA,NA,NA,NA,NA,NA,NA,NA,NA,NA,NA,NA,NA,NA,NA,NA,NA,NA
4137c,task,flow.Sequence,2_10,NA,NA,completion,7641.106,166186.5,166183.908,166200.597,173841.703,173843.19999999,2023-03-09T17:11:51Z,173858.449,Konkurrent,mshindani,d,msemaji,mvutaji,kipukusa,NA,NA,NA,"c(""distractor1"", ""distractor2"", ""distractor3"")",NA,NA,NA,NA,NA,NA,NA,NA,NA,NA,NA,NA,NA,NA,NA,NA,NA,NA,NA
4137c,Shallow Question,html.Page,2_11_0_0,NA,NA,form submission,6055.7509999881,173843.40000001,173841.703,173858.449,179914.19999999,179914.69999999,2023-03-09T17:11:57Z,179942.366,Ausschluss,kutengwa,d,ununuzi,taratibu,madeni,kutengwa,NA,NA,"c(""distractor1"", ""distractor2"", ""distractor3"")",NA,NA,NA,NA,NA,NA,NA,NA,NA,NA,NA,NA,NA,NA,NA,NA,NA,NA,NA
4137c,Save data screen,canvas.Screen,2_11_0_1,NA,NA,timeout,505.20499999999,179918.69999999,179925.738,179942.366,180430.959,180431.80000001,2023-03-09T17:11:58Z,180447.571,Ausschluss,kutengwa,d,ununuzi,taratibu,madeni,NA,NA,1,"c(""distractor1"", ""distractor2"", ""distractor3"")",NA,NA,NA,NA,NA,NA,NA,NA,NA,NA,NA,NA,NA,NA,NA,NA,NA,NA,NA
4137c,shallow,flow.Sequence,2_11_0,NA,NA,completion,6572.51,173843.40000001,173841.703,173858.449,180430.959,180432.09999999,2023-03-09T17:11:58Z,180447.571,Ausschluss,kutengwa,d,ununuzi,taratibu,madeni,NA,NA,NA,"c(""distractor1"", ""distractor2"", ""distractor3"")",NA,NA,NA,NA,NA,NA,NA,NA,NA,NA,NA,NA,NA,NA,NA,NA,NA,NA,NA
4137c,task,flow.Sequence,2_11,NA,NA,completion,6572.51,173843.30000001,173841.703,173858.449,180430.959,180432.30000001,2023-03-09T17:11:58Z,180447.571,Ausschluss,kutengwa,d,ununuzi,taratibu,madeni,NA,NA,NA,"c(""distractor1"", ""distractor2"", ""distractor3"")",NA,NA,NA,NA,NA,NA,NA,NA,NA,NA,NA,NA,NA,NA,NA,NA,NA,NA,NA
4137c,Shallow Question,html.Page,2_12_0_0,NA,NA,form submission,6130.2290000119,180432.40000001,180430.959,180447.571,186577.80000001,186578.09999999,2023-03-09T17:12:04Z,186591.965,Gelegenheit,wakati,d,mchanganyiko,kipaumbele,kushuku,wakati,NA,NA,"c(""distractor1"", ""distractor2"", ""distractor3"")",NA,NA,NA,NA,NA,NA,NA,NA,NA,NA,NA,NA,NA,NA,NA,NA,NA,NA,NA
4137c,Save data screen,canvas.Screen,2_12_0_1,NA,NA,timeout,501.94200000001,186580.69999999,186575.903,186591.965,187077.262,187078.09999999,2023-03-09T17:12:04Z,187093.907,Gelegenheit,wakati,d,mchanganyiko,kipaumbele,kushuku,NA,NA,1,"c(""distractor1"", ""distractor2"", ""distractor3"")",NA,NA,NA,NA,NA,NA,NA,NA,NA,NA,NA,NA,NA,NA,NA,NA,NA,NA,NA
4137c,shallow,flow.Sequence,2_12_0,NA,NA,completion,6629.691,180432.30000001,180430.959,180447.571,187077.262,187078.5,2023-03-09T17:12:04Z,187093.907,Gelegenheit,wakati,d,mchanganyiko,kipaumbele,kushuku,NA,NA,NA,"c(""distractor1"", ""distractor2"", ""distractor3"")",NA,NA,NA,NA,NA,NA,NA,NA,NA,NA,NA,NA,NA,NA,NA,NA,NA,NA,NA
4137c,task,flow.Sequence,2_12,NA,NA,completion,6629.691,180432.30000001,180430.959,180447.571,187077.262,187078.90000001,2023-03-09T17:12:04Z,187093.907,Gelegenheit,wakati,d,mchanganyiko,kipaumbele,kushuku,NA,NA,NA,"c(""distractor1"", ""distractor2"", ""distractor3"")",NA,NA,NA,NA,NA,NA,NA,NA,NA,NA,NA,NA,NA,NA,NA,NA,NA,NA,NA
4137c,Shallow Question,html.Page,2_13_0_0,NA,NA,form submission,7222.8930000119,187079,187077.262,187093.907,194316.80000001,194317,2023-03-09T17:12:11Z,194325.446,Schönheit,kirembo,s,mahojiano,msisimko,jitihadi,kirembo,NA,NA,"c(""distractor1"", ""distractor2"", ""distractor3"")",NA,NA,NA,NA,NA,NA,NA,NA,NA,NA,NA,NA,NA,NA,NA,NA,NA,NA,NA
4137c,Save data screen,canvas.Screen,2_13_0_1,NA,NA,timeout,500.80600000001,194321.09999999,194308.751,194325.446,194809.788,194811,2023-03-09T17:12:12Z,194826.252,Schönheit,kirembo,s,mahojiano,msisimko,jitihadi,NA,NA,1,"c(""distractor1"", ""distractor2"", ""distractor3"")",NA,NA,NA,NA,NA,NA,NA,NA,NA,NA,NA,NA,NA,NA,NA,NA,NA,NA,NA
4137c,shallow,flow.Sequence,2_13_0,NA,NA,completion,7715.881,187079,187077.262,187093.907,194809.788,194811.40000001,2023-03-09T17:12:12Z,194826.252,Schönheit,kirembo,s,mahojiano,msisimko,jitihadi,NA,NA,NA,"c(""distractor1"", ""distractor2"", ""distractor3"")",NA,NA,NA,NA,NA,NA,NA,NA,NA,NA,NA,NA,NA,NA,NA,NA,NA,NA,NA
4137c,task,flow.Sequence,2_13,NA,NA,completion,7715.881,187079,187077.262,187093.907,194809.788,194811.80000001,2023-03-09T17:12:12Z,194826.252,Schönheit,kirembo,s,mahojiano,msisimko,jitihadi,NA,NA,NA,"c(""distractor1"", ""distractor2"", ""distractor3"")",NA,NA,NA,NA,NA,NA,NA,NA,NA,NA,NA,NA,NA,NA,NA,NA,NA,NA,NA
4137c,Shallow Question,html.Page,2_14_0_0,NA,NA,form submission,7722.847999994,194812.09999999,194809.788,194826.252,202549.09999999,202549.59999999,2023-03-09T17:12:20Z,202557.835,Sympathie,mapendano,s,dhamiria,fungamano,maazimio,mapendano,NA,NA,"c(""distractor1"", ""distractor2"", ""distractor3"")",NA,NA,NA,NA,NA,NA,NA,NA,NA,NA,NA,NA,NA,NA,NA,NA,NA,NA,NA
4137c,Save data screen,canvas.Screen,2_14_0_1,NA,NA,timeout,494.48300000001,202553.19999999,202541.208,202557.835,203035.621,203036.30000001,2023-03-09T17:12:20Z,203052.318,Sympathie,mapendano,s,dhamiria,fungamano,maazimio,NA,NA,1,"c(""distractor1"", ""distractor2"", ""distractor3"")",NA,NA,NA,NA,NA,NA,NA,NA,NA,NA,NA,NA,NA,NA,NA,NA,NA,NA,NA
4137c,shallow,flow.Sequence,2_14_0,NA,NA,completion,8209.369,194812.09999999,194809.788,194826.252,203035.621,203036.90000001,2023-03-09T17:12:20Z,203052.318,Sympathie,mapendano,s,dhamiria,fungamano,maazimio,NA,NA,NA,"c(""distractor1"", ""distractor2"", ""distractor3"")",NA,NA,NA,NA,NA,NA,NA,NA,NA,NA,NA,NA,NA,NA,NA,NA,NA,NA,NA
4137c,task,flow.Sequence,2_14,NA,NA,completion,8209.369,194812,194809.788,194826.252,203035.621,203037.09999999,2023-03-09T17:12:20Z,203052.318,Sympathie,mapendano,s,dhamiria,fungamano,maazimio,NA,NA,NA,"c(""distractor1"", ""distractor2"", ""distractor3"")",NA,NA,NA,NA,NA,NA,NA,NA,NA,NA,NA,NA,NA,NA,NA,NA,NA,NA,NA
4137c,Shallow Question,html.Page,2_15_0_0,NA,NA,form submission,7938.582000006,203037.30000001,203035.621,203052.318,210990.90000001,210991.09999999,2023-03-09T17:12:28Z,211015.174,Vorsorge,tahadhari,d,ufafanuzi,makini,mashambani,tahadhari,NA,NA,"c(""distractor1"", ""distractor2"", ""distractor3"")",NA,NA,NA,NA,NA,NA,NA,NA,NA,NA,NA,NA,NA,NA,NA,NA,NA,NA,NA
4137c,Save data screen,canvas.Screen,2_15_0_1,NA,NA,timeout,505.38099999999,210995.19999999,210998.215,211015.174,211503.351,211504.09999999,2023-03-09T17:12:29Z,211520.555,Vorsorge,tahadhari,d,ufafanuzi,makini,mashambani,NA,NA,1,"c(""distractor1"", ""distractor2"", ""distractor3"")",NA,NA,NA,NA,NA,NA,NA,NA,NA,NA,NA,NA,NA,NA,NA,NA,NA,NA,NA
4137c,shallow,flow.Sequence,2_15_0,NA,NA,completion,8451.033,203037.30000001,203035.621,203052.318,211503.351,211504.5,2023-03-09T17:12:29Z,211520.555,Vorsorge,tahadhari,d,ufafanuzi,makini,mashambani,NA,NA,NA,"c(""distractor1"", ""distractor2"", ""distractor3"")",NA,NA,NA,NA,NA,NA,NA,NA,NA,NA,NA,NA,NA,NA,NA,NA,NA,NA,NA
4137c,task,flow.Sequence,2_15,NA,NA,completion,8451.033,203037.30000001,203035.621,203052.318,211503.351,211504.69999999,2023-03-09T17:12:29Z,211520.555,Vorsorge,tahadhari,d,ufafanuzi,makini,mashambani,NA,NA,NA,"c(""distractor1"", ""distractor2"", ""distractor3"")",NA,NA,NA,NA,NA,NA,NA,NA,NA,NA,NA,NA,NA,NA,NA,NA,NA,NA,NA
4137c,retrieval block 2 (multiple choice),flow.Loop,2,NA,NA,completion,134266.303,77222.400000006,77220.729,77237.048,211503.351,211504.90000001,2023-03-09T17:12:29Z,211520.555,NA,NA,NA,NA,NA,NA,NA,NA,NA,"c(""distractor1"", ""distractor2"", ""distractor3"")",NA,NA,NA,NA,NA,NA,NA,NA,NA,NA,NA,NA,NA,NA,NA,NA,NA,NA,NA
4137c,End,canvas.Screen,3,NA,keypress(Space),response,1211.1449999881,211505.09999999,211503.351,211520.555,212731.69999999,212734.59999999,2023-03-09T17:12:30Z,212733.847,NA,NA,NA,NA,NA,NA,NA,NA,NA,NULL,NA,NA,NA,NA,NA,NA,NA,NA,NA,NA,NA,NA,NA,NA,NA,NA,NA,NA,NA
4137c,root,flow.Sequence,NA,NA,NA,completion,211478.79499999,1206.900000006,1202.85,1252.905,212731.69999999,212735.19999999,2023-03-09T17:12:30Z,212733.847,NA,NA,NA,NA,NA,NA,NA,NA,NA,NULL,NA,NA,NA,NA,NA,NA,NA,NA,NA,NA,NA,NA,NA,NA,NA,NA,NA,NA,NA
4cefc,Introduction delayed retrieval,canvas.Screen,0,weiter,keypress(Space),response,30844.541,376.59999999404,165.301,381.959,31226.5,31243.900000006,2023-03-15T06:03:24Z,31247.391,NA,NA,NA,NA,NA,NA,NA,NA,NA,NULL,201,2,20.2.4,https://neurocog.fernuni.ch/studies/vweber/sfink/delayed/index.html?vp=201&sess=2,"Mozilla/5.0 (Macintosh; Intel Mac OS X 10_15_7) AppleWebKit/537.36 (KHTML, like Gecko) Chrome/111.0.0.0 Safari/537.36",MacIntel,de-DE,de,Europe/Zurich,-60,1792,1120,1712,915,1712,963,2,production,f5b4a49f956347addd546a832a3327688c2c0fef
4cefc,Deep Question,html.Page,1_0_0_0,NA,NA,form submission,70014.408999997,31244,31230.725,31247.391,101261.8,101262.40000001,2023-03-15T06:04:34Z,101264.464,Konkurrent,mshindani,d,msemaji,mvutaji,kipukusa,usumdani,NA,NA,NULL,NA,NA,NA,NA,NA,NA,NA,NA,NA,NA,NA,NA,NA,NA,NA,NA,NA,NA,NA
4cefc,Save data screen,canvas.Screen,1_0_0_1,NA,NA,timeout,499.98,101263.3,101247.798,101264.464,101747.778,101750.59999999,2023-03-15T06:04:34Z,101764.444,Konkurrent,mshindani,d,msemaji,mvutaji,kipukusa,NA,NA,0,NULL,NA,NA,NA,NA,NA,NA,NA,NA,NA,NA,NA,NA,NA,NA,NA,NA,NA,NA,NA
4cefc,deep,flow.Sequence,1_0_0,NA,NA,completion,70500.387,31244,31230.725,31247.391,101747.778,101750.7,2023-03-15T06:04:34Z,101764.444,Konkurrent,mshindani,d,msemaji,mvutaji,kipukusa,NA,NA,NA,NULL,NA,NA,NA,NA,NA,NA,NA,NA,NA,NA,NA,NA,NA,NA,NA,NA,NA,NA,NA
4cefc,task,flow.Sequence,1_0,NA,NA,completion,70500.387,31244,31230.725,31247.391,101747.778,101750.8,2023-03-15T06:04:34Z,101764.444,Konkurrent,mshindani,d,msemaji,mvutaji,kipukusa,NA,NA,NA,NULL,NA,NA,NA,NA,NA,NA,NA,NA,NA,NA,NA,NA,NA,NA,NA,NA,NA,NA,NA
4cefc,Deep Question,html.Page,1_1_0_0,NA,NA,form submission,16430.355999997,101750.90000001,101747.778,101764.444,118194.8,118195.2,2023-03-15T06:04:51Z,118197.462,Wettbewerb,ushindani,d,mapendezi,kichocheo,ubaguzi,w,NA,NA,NULL,NA,NA,NA,NA,NA,NA,NA,NA,NA,NA,NA,NA,NA,NA,NA,NA,NA,NA,NA
4cefc,Save data screen,canvas.Screen,1_1_0_1,NA,NA,timeout,499.98,118197.5,118180.796,118197.462,118680.776,118682.09999999,2023-03-15T06:04:51Z,118697.442,Wettbewerb,ushindani,d,mapendezi,kichocheo,ubaguzi,NA,NA,0,NULL,NA,NA,NA,NA,NA,NA,NA,NA,NA,NA,NA,NA,NA,NA,NA,NA,NA,NA,NA
4cefc,deep,flow.Sequence,1_1_0,NA,NA,completion,16916.332,101750.90000001,101747.778,101764.444,118680.776,118682.5,2023-03-15T06:04:51Z,118697.442,Wettbewerb,ushindani,d,mapendezi,kichocheo,ubaguzi,NA,NA,NA,NULL,NA,NA,NA,NA,NA,NA,NA,NA,NA,NA,NA,NA,NA,NA,NA,NA,NA,NA,NA
4cefc,task,flow.Sequence,1_1,NA,NA,completion,16916.332,101750.90000001,101747.778,101764.444,118680.776,118682.7,2023-03-15T06:04:51Z,118697.442,Wettbewerb,ushindani,d,mapendezi,kichocheo,ubaguzi,NA,NA,NA,NULL,NA,NA,NA,NA,NA,NA,NA,NA,NA,NA,NA,NA,NA,NA,NA,NA,NA,NA,NA
4cefc,Deep Question,html.Page,1_2_0_0,NA,NA,form submission,5856.357999997,118682.90000001,118680.776,118697.442,124553.8,124554,2023-03-15T06:04:57Z,124564.579,Symbol,kielezo,s,kinyume,nderemo,utayari,kaliso,NA,NA,NULL,NA,NA,NA,NA,NA,NA,NA,NA,NA,NA,NA,NA,NA,NA,NA,NA,NA,NA,NA
4cefc,Save data screen,canvas.Screen,1_2_0_1,NA,NA,timeout,499.98,124555.8,124547.913,124564.579,125047.893,125049.2,2023-03-15T06:04:57Z,125064.559,Symbol,kielezo,s,kinyume,nderemo,utayari,NA,NA,0,NULL,NA,NA,NA,NA,NA,NA,NA,NA,NA,NA,NA,NA,NA,NA,NA,NA,NA,NA,NA
4cefc,deep,flow.Sequence,1_2_0,NA,NA,completion,6350.451,118682.8,118680.776,118697.442,125047.893,125049.59999999,2023-03-15T06:04:57Z,125064.559,Symbol,kielezo,s,kinyume,nderemo,utayari,NA,NA,NA,NULL,NA,NA,NA,NA,NA,NA,NA,NA,NA,NA,NA,NA,NA,NA,NA,NA,NA,NA,NA
4cefc,task,flow.Sequence,1_2,NA,NA,completion,6350.451,118682.8,118680.776,118697.442,125047.893,125049.8,2023-03-15T06:04:57Z,125064.559,Symbol,kielezo,s,kinyume,nderemo,utayari,NA,NA,NA,NULL,NA,NA,NA,NA,NA,NA,NA,NA,NA,NA,NA,NA,NA,NA,NA,NA,NA,NA,NA
4cefc,Deep Question,html.Page,1_3_0_0,NA,NA,form submission,2842.841000006,125049.90000001,125047.893,125064.559,127907.40000001,127907.59999999,2023-03-15T06:05:00Z,127914.445,Vorsorge,tahadhari,d,ufafanuzi,makini,mashambani,v,NA,NA,NULL,NA,NA,NA,NA,NA,NA,NA,NA,NA,NA,NA,NA,NA,NA,NA,NA,NA,NA,NA
4cefc,Save data screen,canvas.Screen,1_3_0_1,NA,NA,timeout,499.98,127908.2,127897.779,127914.445,128397.759,128399.09999999,2023-03-15T06:05:01Z,128414.425,Vorsorge,tahadhari,d,ufafanuzi,makini,mashambani,NA,NA,0,NULL,NA,NA,NA,NA,NA,NA,NA,NA,NA,NA,NA,NA,NA,NA,NA,NA,NA,NA,NA
4cefc,deep,flow.Sequence,1_3_0,NA,NA,completion,3333.2,125049.90000001,125047.893,125064.559,128397.759,128399.3,2023-03-15T06:05:01Z,128414.425,Vorsorge,tahadhari,d,ufafanuzi,makini,mashambani,NA,NA,NA,NULL,NA,NA,NA,NA,NA,NA,NA,NA,NA,NA,NA,NA,NA,NA,NA,NA,NA,NA,NA
4cefc,task,flow.Sequence,1_3,NA,NA,completion,3333.2,125049.8,125047.893,125064.559,128397.759,128399.40000001,2023-03-15T06:05:01Z,128414.425,Vorsorge,tahadhari,d,ufafanuzi,makini,mashambani,NA,NA,NA,NULL,NA,NA,NA,NA,NA,NA,NA,NA,NA,NA,NA,NA,NA,NA,NA,NA,NA,NA,NA
4cefc,Deep Question,html.Page,1_4_0_0,NA,NA,form submission,14119.475000006,128399.5,128397.759,128414.425,142533.90000001,142534.09999999,2023-03-15T06:05:15Z,142547.487,Auftrag,uagizaji,d,ghanima,kuzingatia,msukani,wakiki,NA,NA,NULL,NA,NA,NA,NA,NA,NA,NA,NA,NA,NA,NA,NA,NA,NA,NA,NA,NA,NA,NA
4cefc,Save data screen,canvas.Screen,1_4_0_1,NA,NA,timeout,499.98000000001,142536.3,142530.821,142547.487,143030.801,143031.7,2023-03-15T06:05:15Z,143047.467,Auftrag,uagizaji,d,ghanima,kuzingatia,msukani,NA,NA,0,NULL,NA,NA,NA,NA,NA,NA,NA,NA,NA,NA,NA,NA,NA,NA,NA,NA,NA,NA,NA
4cefc,deep,flow.Sequence,1_4_0,NA,NA,completion,14616.376,128399.5,128397.759,128414.425,143030.801,143032,2023-03-15T06:05:15Z,143047.467,Auftrag,uagizaji,d,ghanima,kuzingatia,msukani,NA,NA,NA,NULL,NA,NA,NA,NA,NA,NA,NA,NA,NA,NA,NA,NA,NA,NA,NA,NA,NA,NA,NA
4cefc,task,flow.Sequence,1_4,NA,NA,completion,14616.376,128399.5,128397.759,128414.425,143030.801,143032.3,2023-03-15T06:05:15Z,143047.467,Auftrag,uagizaji,d,ghanima,kuzingatia,msukani,NA,NA,NA,NULL,NA,NA,NA,NA,NA,NA,NA,NA,NA,NA,NA,NA,NA,NA,NA,NA,NA,NA,NA
4cefc,Deep Question,html.Page,1_5_0_0,NA,NA,form submission,4201.132999994,143032.40000001,143030.801,143047.467,147248.59999999,147248.8,2023-03-15T06:05:20Z,147264.269,Ausschluss,kutengwa,d,ununuzi,taratibu,madeni,a,NA,NA,NULL,NA,NA,NA,NA,NA,NA,NA,NA,NA,NA,NA,NA,NA,NA,NA,NA,NA,NA,NA
4cefc,Save data screen,canvas.Screen,1_5_0_1,NA,NA,timeout,499.98000000001,147250.7,147247.603,147264.269,147747.583,147750.90000001,2023-03-15T06:05:20Z,147764.249,Ausschluss,kutengwa,d,ununuzi,taratibu,madeni,NA,NA,0,NULL,NA,NA,NA,NA,NA,NA,NA,NA,NA,NA,NA,NA,NA,NA,NA,NA,NA,NA,NA
4cefc,deep,flow.Sequence,1_5_0,NA,NA,completion,4700.116,143032.40000001,143030.801,143047.467,147747.583,147751.2,2023-03-15T06:05:20Z,147764.249,Ausschluss,kutengwa,d,ununuzi,taratibu,madeni,NA,NA,NA,NULL,NA,NA,NA,NA,NA,NA,NA,NA,NA,NA,NA,NA,NA,NA,NA,NA,NA,NA,NA
4cefc,task,flow.Sequence,1_5,NA,NA,completion,4700.116,143032.3,143030.801,143047.467,147747.583,147751.40000001,2023-03-15T06:05:20Z,147764.249,Ausschluss,kutengwa,d,ununuzi,taratibu,madeni,NA,NA,NA,NULL,NA,NA,NA,NA,NA,NA,NA,NA,NA,NA,NA,NA,NA,NA,NA,NA,NA,NA,NA
4cefc,Deep Question,html.Page,1_6_0_0,NA,NA,form submission,7554.050999997,147751.59999999,147747.583,147764.249,155318.3,155318.40000001,2023-03-15T06:05:28Z,155330.947,Annäherung,maegesho,s,madahili,kujiamini,mapendekezo,a,NA,NA,NULL,NA,NA,NA,NA,NA,NA,NA,NA,NA,NA,NA,NA,NA,NA,NA,NA,NA,NA,NA
4cefc,Save data screen,canvas.Screen,1_6_0_1,NA,NA,timeout,499.98000000001,155320.8,155314.281,155330.947,155814.261,155815.5,2023-03-15T06:05:28Z,155830.927,Annäherung,maegesho,s,madahili,kujiamini,mapendekezo,NA,NA,0,NULL,NA,NA,NA,NA,NA,NA,NA,NA,NA,NA,NA,NA,NA,NA,NA,NA,NA,NA,NA
4cefc,deep,flow.Sequence,1_6_0,NA,NA,completion,8050.012,147751.59999999,147747.583,147764.249,155814.261,155815.8,2023-03-15T06:05:28Z,155830.927,Annäherung,maegesho,s,madahili,kujiamini,mapendekezo,NA,NA,NA,NULL,NA,NA,NA,NA,NA,NA,NA,NA,NA,NA,NA,NA,NA,NA,NA,NA,NA,NA,NA
4cefc,task,flow.Sequence,1_6,NA,NA,completion,8050.012,147751.5,147747.583,147764.249,155814.261,155816,2023-03-15T06:05:28Z,155830.927,Annäherung,maegesho,s,madahili,kujiamini,mapendekezo,NA,NA,NA,NULL,NA,NA,NA,NA,NA,NA,NA,NA,NA,NA,NA,NA,NA,NA,NA,NA,NA,NA,NA
4cefc,Deep Question,html.Page,1_7_0_0,NA,NA,form submission,14015.872999997,155816.09999999,155814.261,155830.927,169846.8,169846.90000001,2023-03-15T06:05:42Z,169847.354,Beweis,ushahidi,d,marudio,kizuizi,mtendaji,nuwigu,NA,NA,NULL,NA,NA,NA,NA,NA,NA,NA,NA,NA,NA,NA,NA,NA,NA,NA,NA,NA,NA,NA
4cefc,Save data screen,canvas.Screen,1_7_0_1,NA,NA,timeout,499.98000000001,169848.90000001,169830.688,169847.354,170330.668,170335,2023-03-15T06:05:43Z,170347.334,Beweis,ushahidi,d,marudio,kizuizi,mtendaji,NA,NA,0,NULL,NA,NA,NA,NA,NA,NA,NA,NA,NA,NA,NA,NA,NA,NA,NA,NA,NA,NA,NA
4cefc,deep,flow.Sequence,1_7_0,NA,NA,completion,14499.741,155816.09999999,155814.261,155830.927,170330.668,170335.3,2023-03-15T06:05:43Z,170347.334,Beweis,ushahidi,d,marudio,kizuizi,mtendaji,NA,NA,NA,NULL,NA,NA,NA,NA,NA,NA,NA,NA,NA,NA,NA,NA,NA,NA,NA,NA,NA,NA,NA
4cefc,task,flow.Sequence,1_7,NA,NA,completion,14499.741,155816.09999999,155814.261,155830.927,170330.668,170335.59999999,2023-03-15T06:05:43Z,170347.334,Beweis,ushahidi,d,marudio,kizuizi,mtendaji,NA,NA,NA,NULL,NA,NA,NA,NA,NA,NA,NA,NA,NA,NA,NA,NA,NA,NA,NA,NA,NA,NA,NA
4cefc,Deep Question,html.Page,1_8_0_0,NA,NA,form submission,2380.965999997,170335.7,170330.668,170347.334,172728.3,172728.40000001,2023-03-15T06:05:45Z,172747.238,Verstand,ufahamivu,s,shakawa,hadhari,mhandisi,v,NA,NA,NULL,NA,NA,NA,NA,NA,NA,NA,NA,NA,NA,NA,NA,NA,NA,NA,NA,NA,NA,NA
4cefc,Save data screen,canvas.Screen,1_8_0_1,NA,NA,timeout,499.97999999998,172729,172730.572,172747.238,173230.552,173233.59999999,2023-03-15T06:05:46Z,173247.218,Verstand,ufahamivu,s,shakawa,hadhari,mhandisi,NA,NA,0,NULL,NA,NA,NA,NA,NA,NA,NA,NA,NA,NA,NA,NA,NA,NA,NA,NA,NA,NA,NA
4cefc,deep,flow.Sequence,1_8_0,NA,NA,completion,2883.218,170335.7,170330.668,170347.334,173230.552,173234,2023-03-15T06:05:46Z,173247.218,Verstand,ufahamivu,s,shakawa,hadhari,mhandisi,NA,NA,NA,NULL,NA,NA,NA,NA,NA,NA,NA,NA,NA,NA,NA,NA,NA,NA,NA,NA,NA,NA,NA
4cefc,task,flow.Sequence,1_8,NA,NA,completion,2883.218,170335.7,170330.668,170347.334,173230.552,173234.09999999,2023-03-15T06:05:46Z,173247.218,Verstand,ufahamivu,s,shakawa,hadhari,mhandisi,NA,NA,NA,NULL,NA,NA,NA,NA,NA,NA,NA,NA,NA,NA,NA,NA,NA,NA,NA,NA,NA,NA,NA
4cefc,Deep Question,html.Page,1_9_0_0,NA,NA,form submission,4224.282,173234.3,173230.552,173247.218,177471.5,177471.8,2023-03-15T06:05:50Z,177480.729,Zuwachs,nyongeza,s,matilaba,udhibiti,hudhurio,z,NA,NA,NULL,NA,NA,NA,NA,NA,NA,NA,NA,NA,NA,NA,NA,NA,NA,NA,NA,NA,NA,NA
4cefc,Save data screen,canvas.Screen,1_9_0_1,NA,NA,timeout,499.98000000001,177473.7,177464.063,177480.729,177964.043,177968.3,2023-03-15T06:05:50Z,177980.709,Zuwachs,nyongeza,s,matilaba,udhibiti,hudhurio,NA,NA,0,NULL,NA,NA,NA,NA,NA,NA,NA,NA,NA,NA,NA,NA,NA,NA,NA,NA,NA,NA,NA
4cefc,deep,flow.Sequence,1_9_0,NA,NA,completion,4716.825,173234.3,173230.552,173247.218,177964.043,177968.7,2023-03-15T06:05:50Z,177980.709,Zuwachs,nyongeza,s,matilaba,udhibiti,hudhurio,NA,NA,NA,NULL,NA,NA,NA,NA,NA,NA,NA,NA,NA,NA,NA,NA,NA,NA,NA,NA,NA,NA,NA
4cefc,task,flow.Sequence,1_9,NA,NA,completion,4716.825,173234.2,173230.552,173247.218,177964.043,177968.90000001,2023-03-15T06:05:50Z,177980.709,Zuwachs,nyongeza,s,matilaba,udhibiti,hudhurio,NA,NA,NA,NULL,NA,NA,NA,NA,NA,NA,NA,NA,NA,NA,NA,NA,NA,NA,NA,NA,NA,NA,NA
4cefc,Deep Question,html.Page,1_10_0_0,NA,NA,form submission,28801.090999997,177969.09999999,177964.043,177980.709,206781.8,206781.90000001,2023-03-15T06:06:19Z,206797.198,Polizist,msongora,d,simanzi,mandhari,nidhamu,garoya,NA,NA,NULL,NA,NA,NA,NA,NA,NA,NA,NA,NA,NA,NA,NA,NA,NA,NA,NA,NA,NA,NA
4cefc,Save data screen,canvas.Screen,1_10_0_1,NA,NA,timeout,499.98000000001,206783.7,206780.532,206797.198,207280.512,207281.5,2023-03-15T06:06:20Z,207297.178,Polizist,msongora,d,simanzi,mandhari,nidhamu,NA,NA,0,NULL,NA,NA,NA,NA,NA,NA,NA,NA,NA,NA,NA,NA,NA,NA,NA,NA,NA,NA,NA
4cefc,deep,flow.Sequence,1_10_0,NA,NA,completion,29299.803,177969.09999999,177964.043,177980.709,207280.512,207281.59999999,2023-03-15T06:06:20Z,207297.178,Polizist,msongora,d,simanzi,mandhari,nidhamu,NA,NA,NA,NULL,NA,NA,NA,NA,NA,NA,NA,NA,NA,NA,NA,NA,NA,NA,NA,NA,NA,NA,NA
4cefc,task,flow.Sequence,1_10,NA,NA,completion,29299.803,177969,177964.043,177980.709,207280.512,207281.7,2023-03-15T06:06:20Z,207297.178,Polizist,msongora,d,simanzi,mandhari,nidhamu,NA,NA,NA,NULL,NA,NA,NA,NA,NA,NA,NA,NA,NA,NA,NA,NA,NA,NA,NA,NA,NA,NA,NA
4cefc,Deep Question,html.Page,1_11_0_0,NA,NA,form submission,5432.621999997,207281.7,207280.512,207297.178,212729.8,212729.90000001,2023-03-15T06:06:25Z,212730.294,Widerstand,usulubu,s,kusababisha,mwalimu,mwenendo,w,NA,NA,NULL,NA,NA,NA,NA,NA,NA,NA,NA,NA,NA,NA,NA,NA,NA,NA,NA,NA,NA,NA
4cefc,Save data screen,canvas.Screen,1_11_0_1,NA,NA,timeout,499.98000000001,212731.2,212713.628,212730.294,213213.608,213217.2,2023-03-15T06:06:26Z,213230.274,Widerstand,usulubu,s,kusababisha,mwalimu,mwenendo,NA,NA,0,NULL,NA,NA,NA,NA,NA,NA,NA,NA,NA,NA,NA,NA,NA,NA,NA,NA,NA,NA,NA
4cefc,deep,flow.Sequence,1_11_0,NA,NA,completion,5916.43,207281.7,207280.512,207297.178,213213.608,213217.3,2023-03-15T06:06:26Z,213230.274,Widerstand,usulubu,s,kusababisha,mwalimu,mwenendo,NA,NA,NA,NULL,NA,NA,NA,NA,NA,NA,NA,NA,NA,NA,NA,NA,NA,NA,NA,NA,NA,NA,NA
4cefc,task,flow.Sequence,1_11,NA,NA,completion,5916.43,207281.7,207280.512,207297.178,213213.608,213217.40000001,2023-03-15T06:06:26Z,213230.274,Widerstand,usulubu,s,kusababisha,mwalimu,mwenendo,NA,NA,NA,NULL,NA,NA,NA,NA,NA,NA,NA,NA,NA,NA,NA,NA,NA,NA,NA,NA,NA,NA,NA
4cefc,Deep Question,html.Page,1_12_0_0,NA,NA,form submission,11616.126000006,213217.5,213213.608,213230.274,224846.40000001,224846.59999999,2023-03-15T06:06:37Z,224846.852,Schönheit,kirembo,s,mahojiano,msisimko,jitihadi,likiski,NA,NA,NULL,NA,NA,NA,NA,NA,NA,NA,NA,NA,NA,NA,NA,NA,NA,NA,NA,NA,NA,NA
4cefc,Save data screen,canvas.Screen,1_12_0_1,NA,NA,timeout,499.97999999998,224848.40000001,224830.186,224846.852,225330.166,225332.7,2023-03-15T06:06:38Z,225346.832,Schönheit,kirembo,s,mahojiano,msisimko,jitihadi,NA,NA,0,NULL,NA,NA,NA,NA,NA,NA,NA,NA,NA,NA,NA,NA,NA,NA,NA,NA,NA,NA,NA
4cefc,deep,flow.Sequence,1_12_0,NA,NA,completion,12099.892,213217.5,213213.608,213230.274,225330.166,225332.90000001,2023-03-15T06:06:38Z,225346.832,Schönheit,kirembo,s,mahojiano,msisimko,jitihadi,NA,NA,NA,NULL,NA,NA,NA,NA,NA,NA,NA,NA,NA,NA,NA,NA,NA,NA,NA,NA,NA,NA,NA
4cefc,task,flow.Sequence,1_12,NA,NA,completion,12099.892,213217.5,213213.608,213230.274,225330.166,225333.2,2023-03-15T06:06:38Z,225346.832,Schönheit,kirembo,s,mahojiano,msisimko,jitihadi,NA,NA,NA,NULL,NA,NA,NA,NA,NA,NA,NA,NA,NA,NA,NA,NA,NA,NA,NA,NA,NA,NA,NA
4cefc,Deep Question,html.Page,1_13_0_0,NA,NA,form submission,2839.168,225333.3,225330.166,225346.832,228186,228186.2,2023-03-15T06:06:41Z,228197.092,Zufall,kikuti,s,kukosekana,uchoraji,leseni,z,NA,NA,NULL,NA,NA,NA,NA,NA,NA,NA,NA,NA,NA,NA,NA,NA,NA,NA,NA,NA,NA,NA
4cefc,Save data screen,canvas.Screen,1_13_0_1,NA,NA,timeout,499.97999999998,228186.8,228180.426,228197.092,228680.406,228684.59999999,2023-03-15T06:06:41Z,228697.072,Zufall,kikuti,s,kukosekana,uchoraji,leseni,NA,NA,0,NULL,NA,NA,NA,NA,NA,NA,NA,NA,NA,NA,NA,NA,NA,NA,NA,NA,NA,NA,NA
4cefc,deep,flow.Sequence,1_13_0,NA,NA,completion,3333.574,225333.3,225330.166,225346.832,228680.406,228684.90000001,2023-03-15T06:06:41Z,228697.072,Zufall,kikuti,s,kukosekana,uchoraji,leseni,NA,NA,NA,NULL,NA,NA,NA,NA,NA,NA,NA,NA,NA,NA,NA,NA,NA,NA,NA,NA,NA,NA,NA
4cefc,task,flow.Sequence,1_13,NA,NA,completion,3333.574,225333.2,225330.166,225346.832,228680.406,228685.09999999,2023-03-15T06:06:41Z,228697.072,Zufall,kikuti,s,kukosekana,uchoraji,leseni,NA,NA,NA,NULL,NA,NA,NA,NA,NA,NA,NA,NA,NA,NA,NA,NA,NA,NA,NA,NA,NA,NA,NA
4cefc,Deep Question,html.Page,1_14_0_0,NA,NA,form submission,4202.727999997,228685.2,228680.406,228697.072,232899.8,232900,2023-03-15T06:06:45Z,232913.57,Gelegenheit,wakati,d,mchanganyiko,kipaumbele,kushuku,oitional,NA,NA,NULL,NA,NA,NA,NA,NA,NA,NA,NA,NA,NA,NA,NA,NA,NA,NA,NA,NA,NA,NA
4cefc,Save data screen,canvas.Screen,1_14_0_1,NA,NA,timeout,499.97999999998,232901.3,232896.904,232913.57,233396.884,233399.59999999,2023-03-15T06:06:46Z,233413.55,Gelegenheit,wakati,d,mchanganyiko,kipaumbele,kushuku,NA,NA,0,NULL,NA,NA,NA,NA,NA,NA,NA,NA,NA,NA,NA,NA,NA,NA,NA,NA,NA,NA,NA
4cefc,deep,flow.Sequence,1_14_0,NA,NA,completion,4699.812,228685.2,228680.406,228697.072,233396.884,233400,2023-03-15T06:06:46Z,233413.55,Gelegenheit,wakati,d,mchanganyiko,kipaumbele,kushuku,NA,NA,NA,NULL,NA,NA,NA,NA,NA,NA,NA,NA,NA,NA,NA,NA,NA,NA,NA,NA,NA,NA,NA
4cefc,task,flow.Sequence,1_14,NA,NA,completion,4699.812,228685.2,228680.406,228697.072,233396.884,233400.2,2023-03-15T06:06:46Z,233413.55,Gelegenheit,wakati,d,mchanganyiko,kipaumbele,kushuku,NA,NA,NA,NULL,NA,NA,NA,NA,NA,NA,NA,NA,NA,NA,NA,NA,NA,NA,NA,NA,NA,NA,NA
4cefc,Deep Question,html.Page,1_15_0_0,NA,NA,form submission,2633.350000006,233400.3,233396.884,233413.55,236046.90000001,236047.09999999,2023-03-15T06:06:48Z,236046.778,Sympathie,mapendano,s,dhamiria,fungamano,maazimio,s,NA,NA,NULL,NA,NA,NA,NA,NA,NA,NA,NA,NA,NA,NA,NA,NA,NA,NA,NA,NA,NA,NA
4cefc,Save data screen,canvas.Screen,1_15_0_1,NA,NA,timeout,499.98000000001,236047.59999999,236030.112,236046.778,236530.092,236534,2023-03-15T06:06:49Z,236546.758,Sympathie,mapendano,s,dhamiria,fungamano,maazimio,NA,NA,0,NULL,NA,NA,NA,NA,NA,NA,NA,NA,NA,NA,NA,NA,NA,NA,NA,NA,NA,NA,NA
4cefc,deep,flow.Sequence,1_15_0,NA,NA,completion,3116.542,233400.2,233396.884,233413.55,236530.092,236534.3,2023-03-15T06:06:49Z,236546.758,Sympathie,mapendano,s,dhamiria,fungamano,maazimio,NA,NA,NA,NULL,NA,NA,NA,NA,NA,NA,NA,NA,NA,NA,NA,NA,NA,NA,NA,NA,NA,NA,NA
4cefc,task,flow.Sequence,1_15,NA,NA,completion,3116.542,233400.2,233396.884,233413.55,236530.092,236534.40000001,2023-03-15T06:06:49Z,236546.758,Sympathie,mapendano,s,dhamiria,fungamano,maazimio,NA,NA,NA,NULL,NA,NA,NA,NA,NA,NA,NA,NA,NA,NA,NA,NA,NA,NA,NA,NA,NA,NA,NA
4cefc,retrieval block 1 (cued recall),flow.Loop,1,NA,NA,completion,205282.701,31244,31230.725,31247.391,236530.092,236534.59999999,2023-03-15T06:06:49Z,236546.758,NA,NA,NA,NA,NA,NA,NA,NA,NA,NULL,NA,NA,NA,NA,NA,NA,NA,NA,NA,NA,NA,NA,NA,NA,NA,NA,NA,NA,NA
4cefc,Shallow Question,html.Page,2_0_0_0,NA,NA,form submission,10340.442000003,236534.8,236530.092,236546.758,246887.2,246887.3,2023-03-15T06:06:59Z,246896.631,Zufall,kikuti,s,kukosekana,uchoraji,leseni,leseni,NA,NA,"c(""distractor1"", ""distractor2"", ""distractor3"")",NA,NA,NA,NA,NA,NA,NA,NA,NA,NA,NA,NA,NA,NA,NA,NA,NA,NA,NA
4cefc,Save data screen,canvas.Screen,2_0_0_1,NA,NA,timeout,499.98000000001,246889.2,246879.965,246896.631,247379.945,247380.7,2023-03-15T06:07:00Z,247396.611,Zufall,kikuti,s,kukosekana,uchoraji,leseni,NA,NA,0,"c(""distractor1"", ""distractor2"", ""distractor3"")",NA,NA,NA,NA,NA,NA,NA,NA,NA,NA,NA,NA,NA,NA,NA,NA,NA,NA,NA
4cefc,shallow,flow.Sequence,2_0_0,NA,NA,completion,10833.187,236534.8,236530.092,236546.758,247379.945,247380.90000001,2023-03-15T06:07:00Z,247396.611,Zufall,kikuti,s,kukosekana,uchoraji,leseni,NA,NA,NA,"c(""distractor1"", ""distractor2"", ""distractor3"")",NA,NA,NA,NA,NA,NA,NA,NA,NA,NA,NA,NA,NA,NA,NA,NA,NA,NA,NA
4cefc,task,flow.Sequence,2_0,NA,NA,completion,10833.187,236534.8,236530.092,236546.758,247379.945,247381.09999999,2023-03-15T06:07:00Z,247396.611,Zufall,kikuti,s,kukosekana,uchoraji,leseni,NA,NA,NA,"c(""distractor1"", ""distractor2"", ""distractor3"")",NA,NA,NA,NA,NA,NA,NA,NA,NA,NA,NA,NA,NA,NA,NA,NA,NA,NA,NA
4cefc,Shallow Question,html.Page,2_1_0_0,NA,NA,form submission,13667.789000006,247381.2,247379.945,247396.611,261064.40000001,261064.5,2023-03-15T06:07:13Z,261080.175,Beweis,ushahidi,d,marudio,kizuizi,mtendaji,kizuizi,NA,NA,"c(""distractor1"", ""distractor2"", ""distractor3"")",NA,NA,NA,NA,NA,NA,NA,NA,NA,NA,NA,NA,NA,NA,NA,NA,NA,NA,NA
4cefc,Save data screen,canvas.Screen,2_1_0_1,NA,NA,timeout,499.98000000001,261066.3,261063.509,261080.175,261563.489,261567.5,2023-03-15T06:07:14Z,261580.155,Beweis,ushahidi,d,marudio,kizuizi,mtendaji,NA,NA,0,"c(""distractor1"", ""distractor2"", ""distractor3"")",NA,NA,NA,NA,NA,NA,NA,NA,NA,NA,NA,NA,NA,NA,NA,NA,NA,NA,NA
4cefc,shallow,flow.Sequence,2_1_0,NA,NA,completion,14166.878,247381.2,247379.945,247396.611,261563.489,261567.90000001,2023-03-15T06:07:14Z,261580.155,Beweis,ushahidi,d,marudio,kizuizi,mtendaji,NA,NA,NA,"c(""distractor1"", ""distractor2"", ""distractor3"")",NA,NA,NA,NA,NA,NA,NA,NA,NA,NA,NA,NA,NA,NA,NA,NA,NA,NA,NA
4cefc,task,flow.Sequence,2_1,NA,NA,completion,14166.878,247381.2,247379.945,247396.611,261563.489,261568,2023-03-15T06:07:14Z,261580.155,Beweis,ushahidi,d,marudio,kizuizi,mtendaji,NA,NA,NA,"c(""distractor1"", ""distractor2"", ""distractor3"")",NA,NA,NA,NA,NA,NA,NA,NA,NA,NA,NA,NA,NA,NA,NA,NA,NA,NA,NA
4cefc,Shallow Question,html.Page,2_2_0_0,NA,NA,form submission,7750.245000006,261568.2,261563.489,261580.155,269330.40000001,269330.5,2023-03-15T06:07:22Z,269346.511,Konkurrent,mshindani,d,msemaji,mvutaji,kipukusa,mshindani,NA,NA,"c(""distractor1"", ""distractor2"", ""distractor3"")",NA,NA,NA,NA,NA,NA,NA,NA,NA,NA,NA,NA,NA,NA,NA,NA,NA,NA,NA
4cefc,Save data screen,canvas.Screen,2_2_0_1,NA,NA,timeout,499.97999999998,269331.8,269329.845,269346.511,269829.825,269830.40000001,2023-03-15T06:07:22Z,269846.491,Konkurrent,mshindani,d,msemaji,mvutaji,kipukusa,NA,NA,1,"c(""distractor1"", ""distractor2"", ""distractor3"")",NA,NA,NA,NA,NA,NA,NA,NA,NA,NA,NA,NA,NA,NA,NA,NA,NA,NA,NA
4cefc,shallow,flow.Sequence,2_2_0,NA,NA,completion,8249.67,261568.2,261563.489,261580.155,269829.825,269830.59999999,2023-03-15T06:07:22Z,269846.491,Konkurrent,mshindani,d,msemaji,mvutaji,kipukusa,NA,NA,NA,"c(""distractor1"", ""distractor2"", ""distractor3"")",NA,NA,NA,NA,NA,NA,NA,NA,NA,NA,NA,NA,NA,NA,NA,NA,NA,NA,NA
4cefc,task,flow.Sequence,2_2,NA,NA,completion,8249.67,261568.09999999,261563.489,261580.155,269829.825,269830.7,2023-03-15T06:07:22Z,269846.491,Konkurrent,mshindani,d,msemaji,mvutaji,kipukusa,NA,NA,NA,"c(""distractor1"", ""distractor2"", ""distractor3"")",NA,NA,NA,NA,NA,NA,NA,NA,NA,NA,NA,NA,NA,NA,NA,NA,NA,NA,NA
4cefc,Shallow Question,html.Page,2_3_0_0,NA,NA,form submission,7272.409000006,269830.8,269829.825,269846.491,277118.90000001,277119,2023-03-15T06:07:29Z,277130.007,Auftrag,uagizaji,d,ghanima,kuzingatia,msukani,uagizaji,NA,NA,"c(""distractor1"", ""distractor2"", ""distractor3"")",NA,NA,NA,NA,NA,NA,NA,NA,NA,NA,NA,NA,NA,NA,NA,NA,NA,NA,NA
4cefc,Save data screen,canvas.Screen,2_3_0_1,NA,NA,timeout,499.98000000004,277120.2,277113.341,277130.007,277613.321,277616.2,2023-03-15T06:07:30Z,277629.987,Auftrag,uagizaji,d,ghanima,kuzingatia,msukani,NA,NA,1,"c(""distractor1"", ""distractor2"", ""distractor3"")",NA,NA,NA,NA,NA,NA,NA,NA,NA,NA,NA,NA,NA,NA,NA,NA,NA,NA,NA
4cefc,shallow,flow.Sequence,2_3_0,NA,NA,completion,7766.83,269830.8,269829.825,269846.491,277613.321,277616.2,2023-03-15T06:07:30Z,277629.987,Auftrag,uagizaji,d,ghanima,kuzingatia,msukani,NA,NA,NA,"c(""distractor1"", ""distractor2"", ""distractor3"")",NA,NA,NA,NA,NA,NA,NA,NA,NA,NA,NA,NA,NA,NA,NA,NA,NA,NA,NA
4cefc,task,flow.Sequence,2_3,NA,NA,completion,7766.83,269830.8,269829.825,269846.491,277613.321,277616.3,2023-03-15T06:07:30Z,277629.987,Auftrag,uagizaji,d,ghanima,kuzingatia,msukani,NA,NA,NA,"c(""distractor1"", ""distractor2"", ""distractor3"")",NA,NA,NA,NA,NA,NA,NA,NA,NA,NA,NA,NA,NA,NA,NA,NA,NA,NA,NA
4cefc,Shallow Question,html.Page,2_4_0_0,NA,NA,form submission,35286.213000003,277616.3,277613.321,277629.987,312916.2,312916.3,2023-03-15T06:08:05Z,312929.311,Gelegenheit,wakati,d,mchanganyiko,kipaumbele,kushuku,kipaumbele,NA,NA,"c(""distractor1"", ""distractor2"", ""distractor3"")",NA,NA,NA,NA,NA,NA,NA,NA,NA,NA,NA,NA,NA,NA,NA,NA,NA,NA,NA
4cefc,Save data screen,canvas.Screen,2_4_0_1,NA,NA,timeout,500.45400000003,312918,312912.645,312929.311,313413.099,313414.7,2023-03-15T06:08:06Z,313429.765,Gelegenheit,wakati,d,mchanganyiko,kipaumbele,kushuku,NA,NA,0,"c(""distractor1"", ""distractor2"", ""distractor3"")",NA,NA,NA,NA,NA,NA,NA,NA,NA,NA,NA,NA,NA,NA,NA,NA,NA,NA,NA
4cefc,shallow,flow.Sequence,2_4_0,NA,NA,completion,35783.112,277616.3,277613.321,277629.987,313413.099,313415,2023-03-15T06:08:06Z,313429.765,Gelegenheit,wakati,d,mchanganyiko,kipaumbele,kushuku,NA,NA,NA,"c(""distractor1"", ""distractor2"", ""distractor3"")",NA,NA,NA,NA,NA,NA,NA,NA,NA,NA,NA,NA,NA,NA,NA,NA,NA,NA,NA
4cefc,task,flow.Sequence,2_4,NA,NA,completion,35783.112,277616.3,277613.321,277629.987,313413.099,313415.3,2023-03-15T06:08:06Z,313429.765,Gelegenheit,wakati,d,mchanganyiko,kipaumbele,kushuku,NA,NA,NA,"c(""distractor1"", ""distractor2"", ""distractor3"")",NA,NA,NA,NA,NA,NA,NA,NA,NA,NA,NA,NA,NA,NA,NA,NA,NA,NA,NA
4cefc,Shallow Question,html.Page,2_5_0_0,NA,NA,form submission,25813.334999994,313415.40000001,313413.099,313429.765,339243.09999999,339243.2,2023-03-15T06:08:32Z,339245.774,Annäherung,maegesho,s,madahili,kujiamini,mapendekezo,mapendekezo,NA,NA,"c(""distractor1"", ""distractor2"", ""distractor3"")",NA,NA,NA,NA,NA,NA,NA,NA,NA,NA,NA,NA,NA,NA,NA,NA,NA,NA,NA
4cefc,Save data screen,canvas.Screen,2_5_0_1,NA,NA,timeout,500.51900000003,339245.2,339229.108,339245.774,339729.627,339733.3,2023-03-15T06:08:32Z,339746.293,Annäherung,maegesho,s,madahili,kujiamini,mapendekezo,NA,NA,0,"c(""distractor1"", ""distractor2"", ""distractor3"")",NA,NA,NA,NA,NA,NA,NA,NA,NA,NA,NA,NA,NA,NA,NA,NA,NA,NA,NA
4cefc,shallow,flow.Sequence,2_5_0,NA,NA,completion,26299.862,313415.40000001,313413.099,313429.765,339729.627,339733.5,2023-03-15T06:08:32Z,339746.293,Annäherung,maegesho,s,madahili,kujiamini,mapendekezo,NA,NA,NA,"c(""distractor1"", ""distractor2"", ""distractor3"")",NA,NA,NA,NA,NA,NA,NA,NA,NA,NA,NA,NA,NA,NA,NA,NA,NA,NA,NA
4cefc,task,flow.Sequence,2_5,NA,NA,completion,26299.862,313415.3,313413.099,313429.765,339729.627,339733.59999999,2023-03-15T06:08:32Z,339746.293,Annäherung,maegesho,s,madahili,kujiamini,mapendekezo,NA,NA,NA,"c(""distractor1"", ""distractor2"", ""distractor3"")",NA,NA,NA,NA,NA,NA,NA,NA,NA,NA,NA,NA,NA,NA,NA,NA,NA,NA,NA
4cefc,Shallow Question,html.Page,2_6_0_0,NA,NA,form submission,6796.907000003,339733.90000001,339729.627,339746.293,346543.2,346543.40000001,2023-03-15T06:08:39Z,346546.021,Polizist,msongora,d,simanzi,mandhari,nidhamu,msongora,NA,NA,"c(""distractor1"", ""distractor2"", ""distractor3"")",NA,NA,NA,NA,NA,NA,NA,NA,NA,NA,NA,NA,NA,NA,NA,NA,NA,NA,NA
4cefc,Save data screen,canvas.Screen,2_6_0_1,NA,NA,timeout,499.97999999998,346545.09999999,346529.355,346546.021,347029.335,347032.8,2023-03-15T06:08:39Z,347046.001,Polizist,msongora,d,simanzi,mandhari,nidhamu,NA,NA,1,"c(""distractor1"", ""distractor2"", ""distractor3"")",NA,NA,NA,NA,NA,NA,NA,NA,NA,NA,NA,NA,NA,NA,NA,NA,NA,NA,NA
4cefc,shallow,flow.Sequence,2_6_0,NA,NA,completion,7283.042,339733.8,339729.627,339746.293,347029.335,347033.09999999,2023-03-15T06:08:39Z,347046.001,Polizist,msongora,d,simanzi,mandhari,nidhamu,NA,NA,NA,"c(""distractor1"", ""distractor2"", ""distractor3"")",NA,NA,NA,NA,NA,NA,NA,NA,NA,NA,NA,NA,NA,NA,NA,NA,NA,NA,NA
4cefc,task,flow.Sequence,2_6,NA,NA,completion,7283.042,339733.8,339729.627,339746.293,347029.335,347033.3,2023-03-15T06:08:39Z,347046.001,Polizist,msongora,d,simanzi,mandhari,nidhamu,NA,NA,NA,"c(""distractor1"", ""distractor2"", ""distractor3"")",NA,NA,NA,NA,NA,NA,NA,NA,NA,NA,NA,NA,NA,NA,NA,NA,NA,NA,NA
4cefc,Shallow Question,html.Page,2_7_0_0,NA,NA,form submission,8599.999,347033.40000001,347029.335,347046.001,355646,355646.2,2023-03-15T06:08:48Z,355645.97,Zuwachs,nyongeza,s,matilaba,udhibiti,hudhurio,nyongeza,NA,NA,"c(""distractor1"", ""distractor2"", ""distractor3"")",NA,NA,NA,NA,NA,NA,NA,NA,NA,NA,NA,NA,NA,NA,NA,NA,NA,NA,NA
4cefc,Save data screen,canvas.Screen,2_7_0_1,NA,NA,timeout,499.98000000004,355648.09999999,355629.304,355645.97,356129.284,356134.7,2023-03-15T06:08:48Z,356145.95,Zuwachs,nyongeza,s,matilaba,udhibiti,hudhurio,NA,NA,1,"c(""distractor1"", ""distractor2"", ""distractor3"")",NA,NA,NA,NA,NA,NA,NA,NA,NA,NA,NA,NA,NA,NA,NA,NA,NA,NA,NA
4cefc,shallow,flow.Sequence,2_7_0,NA,NA,completion,9083.283,347033.40000001,347029.335,347046.001,356129.284,356135,2023-03-15T06:08:48Z,356145.95,Zuwachs,nyongeza,s,matilaba,udhibiti,hudhurio,NA,NA,NA,"c(""distractor1"", ""distractor2"", ""distractor3"")",NA,NA,NA,NA,NA,NA,NA,NA,NA,NA,NA,NA,NA,NA,NA,NA,NA,NA,NA
4cefc,task,flow.Sequence,2_7,NA,NA,completion,9083.283,347033.40000001,347029.335,347046.001,356129.284,356135.3,2023-03-15T06:08:48Z,356145.95,Zuwachs,nyongeza,s,matilaba,udhibiti,hudhurio,NA,NA,NA,"c(""distractor1"", ""distractor2"", ""distractor3"")",NA,NA,NA,NA,NA,NA,NA,NA,NA,NA,NA,NA,NA,NA,NA,NA,NA,NA,NA
4cefc,Shallow Question,html.Page,2_8_0_0,NA,NA,form submission,11614.05,356135.40000001,356129.284,356145.95,367760,367760,2023-03-15T06:09:00Z,367762.66,Verstand,ufahamivu,s,shakawa,hadhari,mhandisi,mhandisi,NA,NA,"c(""distractor1"", ""distractor2"", ""distractor3"")",NA,NA,NA,NA,NA,NA,NA,NA,NA,NA,NA,NA,NA,NA,NA,NA,NA,NA,NA
4cefc,Save data screen,canvas.Screen,2_8_0_1,NA,NA,timeout,499.98000000004,367761.8,367745.994,367762.66,368245.974,368249.40000001,2023-03-15T06:09:01Z,368262.64,Verstand,ufahamivu,s,shakawa,hadhari,mhandisi,NA,NA,0,"c(""distractor1"", ""distractor2"", ""distractor3"")",NA,NA,NA,NA,NA,NA,NA,NA,NA,NA,NA,NA,NA,NA,NA,NA,NA,NA,NA
4cefc,shallow,flow.Sequence,2_8_0,NA,NA,completion,12100.024,356135.40000001,356129.284,356145.95,368245.974,368249.5,2023-03-15T06:09:01Z,368262.64,Verstand,ufahamivu,s,shakawa,hadhari,mhandisi,NA,NA,NA,"c(""distractor1"", ""distractor2"", ""distractor3"")",NA,NA,NA,NA,NA,NA,NA,NA,NA,NA,NA,NA,NA,NA,NA,NA,NA,NA,NA
4cefc,task,flow.Sequence,2_8,NA,NA,completion,12100.024,356135.40000001,356129.284,356145.95,368245.974,368249.7,2023-03-15T06:09:01Z,368262.64,Verstand,ufahamivu,s,shakawa,hadhari,mhandisi,NA,NA,NA,"c(""distractor1"", ""distractor2"", ""distractor3"")",NA,NA,NA,NA,NA,NA,NA,NA,NA,NA,NA,NA,NA,NA,NA,NA,NA,NA,NA
4cefc,Shallow Question,html.Page,2_9_0_0,NA,NA,form submission,3333.36,368249.8,368245.974,368262.64,371596,371596.2,2023-03-15T06:09:04Z,371595.84,Schönheit,kirembo,s,mahojiano,msisimko,jitihadi,kirembo,NA,NA,"c(""distractor1"", ""distractor2"", ""distractor3"")",NA,NA,NA,NA,NA,NA,NA,NA,NA,NA,NA,NA,NA,NA,NA,NA,NA,NA,NA
4cefc,Save data screen,canvas.Screen,2_9_0_1,NA,NA,timeout,499.97999999998,371596.8,371579.174,371595.84,372079.154,372081,2023-03-15T06:09:04Z,372095.82,Schönheit,kirembo,s,mahojiano,msisimko,jitihadi,NA,NA,1,"c(""distractor1"", ""distractor2"", ""distractor3"")",NA,NA,NA,NA,NA,NA,NA,NA,NA,NA,NA,NA,NA,NA,NA,NA,NA,NA,NA
4cefc,shallow,flow.Sequence,2_9_0,NA,NA,completion,3816.514,368249.8,368245.974,368262.64,372079.154,372081.09999999,2023-03-15T06:09:04Z,372095.82,Schönheit,kirembo,s,mahojiano,msisimko,jitihadi,NA,NA,NA,"c(""distractor1"", ""distractor2"", ""distractor3"")",NA,NA,NA,NA,NA,NA,NA,NA,NA,NA,NA,NA,NA,NA,NA,NA,NA,NA,NA
4cefc,task,flow.Sequence,2_9,NA,NA,completion,3816.514,368249.8,368245.974,368262.64,372079.154,372081.2,2023-03-15T06:09:04Z,372095.82,Schönheit,kirembo,s,mahojiano,msisimko,jitihadi,NA,NA,NA,"c(""distractor1"", ""distractor2"", ""distractor3"")",NA,NA,NA,NA,NA,NA,NA,NA,NA,NA,NA,NA,NA,NA,NA,NA,NA,NA,NA
4cefc,Shallow Question,html.Page,2_10_0_0,NA,NA,form submission,22391.479999997,372081.2,372079.154,372095.82,394487.3,394487.5,2023-03-15T06:09:27Z,394495.653,Wettbewerb,ushindani,d,mapendezi,kichocheo,ubaguzi,mapendezi,NA,NA,"c(""distractor1"", ""distractor2"", ""distractor3"")",NA,NA,NA,NA,NA,NA,NA,NA,NA,NA,NA,NA,NA,NA,NA,NA,NA,NA,NA
4cefc,Save data screen,canvas.Screen,2_10_0_1,NA,NA,timeout,499.97999999998,394489.5,394478.987,394495.653,394978.967,394980.2,2023-03-15T06:09:27Z,394995.633,Wettbewerb,ushindani,d,mapendezi,kichocheo,ubaguzi,NA,NA,0,"c(""distractor1"", ""distractor2"", ""distractor3"")",NA,NA,NA,NA,NA,NA,NA,NA,NA,NA,NA,NA,NA,NA,NA,NA,NA,NA,NA
4cefc,shallow,flow.Sequence,2_10_0,NA,NA,completion,22883.147,372081.2,372079.154,372095.82,394978.967,394980.59999999,2023-03-15T06:09:27Z,394995.633,Wettbewerb,ushindani,d,mapendezi,kichocheo,ubaguzi,NA,NA,NA,"c(""distractor1"", ""distractor2"", ""distractor3"")",NA,NA,NA,NA,NA,NA,NA,NA,NA,NA,NA,NA,NA,NA,NA,NA,NA,NA,NA
4cefc,task,flow.Sequence,2_10,NA,NA,completion,22883.147,372081.2,372079.154,372095.82,394978.967,394980.7,2023-03-15T06:09:27Z,394995.633,Wettbewerb,ushindani,d,mapendezi,kichocheo,ubaguzi,NA,NA,NA,"c(""distractor1"", ""distractor2"", ""distractor3"")",NA,NA,NA,NA,NA,NA,NA,NA,NA,NA,NA,NA,NA,NA,NA,NA,NA,NA,NA
4cefc,Shallow Question,html.Page,2_11_0_0,NA,NA,form submission,14464.067000003,394980.90000001,394978.967,394995.633,409459.7,409459.90000001,2023-03-15T06:09:42Z,409462.017,Vorsorge,tahadhari,d,ufafanuzi,makini,mashambani,mashambani,NA,NA,"c(""distractor1"", ""distractor2"", ""distractor3"")",NA,NA,NA,NA,NA,NA,NA,NA,NA,NA,NA,NA,NA,NA,NA,NA,NA,NA,NA
4cefc,Save data screen,canvas.Screen,2_11_0_1,NA,NA,timeout,499.97999999998,409461.09999999,409445.351,409462.017,409945.331,409947.7,2023-03-15T06:09:42Z,409961.997,Vorsorge,tahadhari,d,ufafanuzi,makini,mashambani,NA,NA,0,"c(""distractor1"", ""distractor2"", ""distractor3"")",NA,NA,NA,NA,NA,NA,NA,NA,NA,NA,NA,NA,NA,NA,NA,NA,NA,NA,NA
4cefc,shallow,flow.Sequence,2_11_0,NA,NA,completion,14949.698,394980.8,394978.967,394995.633,409945.331,409947.7,2023-03-15T06:09:42Z,409961.997,Vorsorge,tahadhari,d,ufafanuzi,makini,mashambani,NA,NA,NA,"c(""distractor1"", ""distractor2"", ""distractor3"")",NA,NA,NA,NA,NA,NA,NA,NA,NA,NA,NA,NA,NA,NA,NA,NA,NA,NA,NA
4cefc,task,flow.Sequence,2_11,NA,NA,completion,14949.698,394980.8,394978.967,394995.633,409945.331,409947.8,2023-03-15T06:09:42Z,409961.997,Vorsorge,tahadhari,d,ufafanuzi,makini,mashambani,NA,NA,NA,"c(""distractor1"", ""distractor2"", ""distractor3"")",NA,NA,NA,NA,NA,NA,NA,NA,NA,NA,NA,NA,NA,NA,NA,NA,NA,NA,NA
4cefc,Shallow Question,html.Page,2_12_0_0,NA,NA,form submission,12049.003,409947.90000001,409945.331,409961.997,422011,422011.2,2023-03-15T06:09:54Z,422011.915,Widerstand,usulubu,s,kusababisha,mwalimu,mwenendo,usulubu,NA,NA,"c(""distractor1"", ""distractor2"", ""distractor3"")",NA,NA,NA,NA,NA,NA,NA,NA,NA,NA,NA,NA,NA,NA,NA,NA,NA,NA,NA
4cefc,Save data screen,canvas.Screen,2_12_0_1,NA,NA,timeout,499.98000000004,422012.90000001,421995.249,422011.915,422495.229,422497.59999999,2023-03-15T06:09:55Z,422511.895,Widerstand,usulubu,s,kusababisha,mwalimu,mwenendo,NA,NA,1,"c(""distractor1"", ""distractor2"", ""distractor3"")",NA,NA,NA,NA,NA,NA,NA,NA,NA,NA,NA,NA,NA,NA,NA,NA,NA,NA,NA
4cefc,shallow,flow.Sequence,2_12_0,NA,NA,completion,12533.232,409947.8,409945.331,409961.997,422495.229,422497.90000001,2023-03-15T06:09:55Z,422511.895,Widerstand,usulubu,s,kusababisha,mwalimu,mwenendo,NA,NA,NA,"c(""distractor1"", ""distractor2"", ""distractor3"")",NA,NA,NA,NA,NA,NA,NA,NA,NA,NA,NA,NA,NA,NA,NA,NA,NA,NA,NA
4cefc,task,flow.Sequence,2_12,NA,NA,completion,12533.232,409947.8,409945.331,409961.997,422495.229,422498,2023-03-15T06:09:55Z,422511.895,Widerstand,usulubu,s,kusababisha,mwalimu,mwenendo,NA,NA,NA,"c(""distractor1"", ""distractor2"", ""distractor3"")",NA,NA,NA,NA,NA,NA,NA,NA,NA,NA,NA,NA,NA,NA,NA,NA,NA,NA,NA
4cefc,Shallow Question,html.Page,2_13_0_0,NA,NA,form submission,9491.805000003,422498.2,422495.229,422511.895,432003.7,432003.90000001,2023-03-15T06:10:04Z,432012.162,Sympathie,mapendano,s,dhamiria,fungamano,maazimio,mapendano,NA,NA,"c(""distractor1"", ""distractor2"", ""distractor3"")",NA,NA,NA,NA,NA,NA,NA,NA,NA,NA,NA,NA,NA,NA,NA,NA,NA,NA,NA
4cefc,Save data screen,canvas.Screen,2_13_0_1,NA,NA,timeout,499.97999999998,432005.8,431995.496,432012.162,432495.476,432497.40000001,2023-03-15T06:10:05Z,432512.142,Sympathie,mapendano,s,dhamiria,fungamano,maazimio,NA,NA,1,"c(""distractor1"", ""distractor2"", ""distractor3"")",NA,NA,NA,NA,NA,NA,NA,NA,NA,NA,NA,NA,NA,NA,NA,NA,NA,NA,NA
4cefc,shallow,flow.Sequence,2_13_0,NA,NA,completion,9983.581,422498.09999999,422495.229,422511.895,432495.476,432497.59999999,2023-03-15T06:10:05Z,432512.142,Sympathie,mapendano,s,dhamiria,fungamano,maazimio,NA,NA,NA,"c(""distractor1"", ""distractor2"", ""distractor3"")",NA,NA,NA,NA,NA,NA,NA,NA,NA,NA,NA,NA,NA,NA,NA,NA,NA,NA,NA
4cefc,task,flow.Sequence,2_13,NA,NA,completion,9983.581,422498.09999999,422495.229,422511.895,432495.476,432497.8,2023-03-15T06:10:05Z,432512.142,Sympathie,mapendano,s,dhamiria,fungamano,maazimio,NA,NA,NA,"c(""distractor1"", ""distractor2"", ""distractor3"")",NA,NA,NA,NA,NA,NA,NA,NA,NA,NA,NA,NA,NA,NA,NA,NA,NA,NA,NA
4cefc,Shallow Question,html.Page,2_14_0_0,NA,NA,form submission,7500.858,432497.90000001,432495.476,432512.142,440013,440013.09999999,2023-03-15T06:10:12Z,440028.508,Symbol,kielezo,s,kinyume,nderemo,utayari,kielezo,NA,NA,"c(""distractor1"", ""distractor2"", ""distractor3"")",NA,NA,NA,NA,NA,NA,NA,NA,NA,NA,NA,NA,NA,NA,NA,NA,NA,NA,NA
4cefc,Save data screen,canvas.Screen,2_14_0_1,NA,NA,timeout,499.98000000004,440014.8,440011.842,440028.508,440511.822,440516.40000001,2023-03-15T06:10:13Z,440528.488,Symbol,kielezo,s,kinyume,nderemo,utayari,NA,NA,1,"c(""distractor1"", ""distractor2"", ""distractor3"")",NA,NA,NA,NA,NA,NA,NA,NA,NA,NA,NA,NA,NA,NA,NA,NA,NA,NA,NA
4cefc,shallow,flow.Sequence,2_14_0,NA,NA,completion,7999.68,432497.90000001,432495.476,432512.142,440511.822,440516.7,2023-03-15T06:10:13Z,440528.488,Symbol,kielezo,s,kinyume,nderemo,utayari,NA,NA,NA,"c(""distractor1"", ""distractor2"", ""distractor3"")",NA,NA,NA,NA,NA,NA,NA,NA,NA,NA,NA,NA,NA,NA,NA,NA,NA,NA,NA
4cefc,task,flow.Sequence,2_14,NA,NA,completion,7999.68,432497.90000001,432495.476,432512.142,440511.822,440516.90000001,2023-03-15T06:10:13Z,440528.488,Symbol,kielezo,s,kinyume,nderemo,utayari,NA,NA,NA,"c(""distractor1"", ""distractor2"", ""distractor3"")",NA,NA,NA,NA,NA,NA,NA,NA,NA,NA,NA,NA,NA,NA,NA,NA,NA,NA,NA
4cefc,Shallow Question,html.Page,2_15_0_0,NA,NA,form submission,13397.512,440517,440511.822,440528.488,453926,453926.2,2023-03-15T06:10:26Z,453927.952,Ausschluss,kutengwa,d,ununuzi,taratibu,madeni,kutengwa,NA,NA,"c(""distractor1"", ""distractor2"", ""distractor3"")",NA,NA,NA,NA,NA,NA,NA,NA,NA,NA,NA,NA,NA,NA,NA,NA,NA,NA,NA
4cefc,Save data screen,canvas.Screen,2_15_0_1,NA,NA,timeout,500.70900000003,453928.09999999,453911.286,453927.952,454411.995,454414.2,2023-03-15T06:10:27Z,454428.661,Ausschluss,kutengwa,d,ununuzi,taratibu,madeni,NA,NA,1,"c(""distractor1"", ""distractor2"", ""distractor3"")",NA,NA,NA,NA,NA,NA,NA,NA,NA,NA,NA,NA,NA,NA,NA,NA,NA,NA,NA
4cefc,shallow,flow.Sequence,2_15_0,NA,NA,completion,13883.507,440517,440511.822,440528.488,454411.995,454414.5,2023-03-15T06:10:27Z,454428.661,Ausschluss,kutengwa,d,ununuzi,taratibu,madeni,NA,NA,NA,"c(""distractor1"", ""distractor2"", ""distractor3"")",NA,NA,NA,NA,NA,NA,NA,NA,NA,NA,NA,NA,NA,NA,NA,NA,NA,NA,NA
4cefc,task,flow.Sequence,2_15,NA,NA,completion,13883.507,440517,440511.822,440528.488,454411.995,454414.8,2023-03-15T06:10:27Z,454428.661,Ausschluss,kutengwa,d,ununuzi,taratibu,madeni,NA,NA,NA,"c(""distractor1"", ""distractor2"", ""distractor3"")",NA,NA,NA,NA,NA,NA,NA,NA,NA,NA,NA,NA,NA,NA,NA,NA,NA,NA,NA
4cefc,retrieval block 2 (multiple choice),flow.Loop,2,NA,NA,completion,217865.237,236534.7,236530.092,236546.758,454411.995,454414.90000001,2023-03-15T06:10:27Z,454428.661,NA,NA,NA,NA,NA,NA,NA,NA,NA,"c(""distractor1"", ""distractor2"", ""distractor3"")",NA,NA,NA,NA,NA,NA,NA,NA,NA,NA,NA,NA,NA,NA,NA,NA,NA,NA,NA
4cefc,End,canvas.Screen,3,NA,keypress(Space),response,1742.438999994,454415,454411.995,454428.661,456171.09999999,456175.90000001,2023-03-15T06:10:29Z,456178.591,NA,NA,NA,NA,NA,NA,NA,NA,NA,NULL,NA,NA,NA,NA,NA,NA,NA,NA,NA,NA,NA,NA,NA,NA,NA,NA,NA,NA,NA
4cefc,root,flow.Sequence,NA,NA,NA,completion,455789.14099999,376.5,165.301,381.959,456171.09999999,456176.2,2023-03-15T06:10:29Z,456178.591,NA,NA,NA,NA,NA,NA,NA,NA,NA,NULL,NA,NA,NA,NA,NA,NA,NA,NA,NA,NA,NA,NA,NA,NA,NA,NA,NA,NA,NA
