observation,sender,sender_type,sender_id,response,response_action,ended_on,duration,time_run,time_render,time_show,time_end,time_commit,timestamp,time_switch,distractors,german,swahili,enc,distractor1,distractor2,distractor3,response_2,x,correct,x_2,url_vp,url_sess,meta_labjs_version,meta_location,meta_user_agent,meta_platform,meta_language,meta_locale,meta_time_zone,meta_timezone_offset,meta_screen_width,meta_screen_height,meta_scroll_width,meta_scroll_height,meta_window_inner_width,meta_window_inner_height,meta_device_pixel_ratio,meta_labjs_build_flavor,meta_labjs_build_commit
fc08c,Introduction general,canvas.Screen,0,weiter,keypress(q),response,319160.79799998,4157.3999999762,3420.045,4186.102,323346.89999998,323355.29999995,2023-04-12T16:18:27Z,323353.991,NULL,NA,NA,NA,NA,NA,NA,NA,NA,NA,NA,201,3,20.2.4,https://neurocog.fernuni.ch/studies/vweber/sfink/encoding_immediate/index.html?vp=201&sess=3,"Mozilla/5.0 (Windows NT 10.0; Win64; x64) AppleWebKit/537.36 (KHTML, like Gecko) Chrome/111.0.0.0 Safari/537.36",Win32,de-CH,de,Europe/Zurich,-120,1536,864,1536,706,1536,754,1.25,production,f5b4a49f956347addd546a832a3327688c2c0fef
fc08c,Introduction practice,canvas.Screen,1_0,NA,keypress(Space),response,7182.6089999047,323356,323334.241,323353.991,330536.5999999,330538.0999999,2023-04-12T16:18:34Z,330553.721,NULL,NA,NA,NA,NA,NA,NA,NA,NA,NA,NA,NA,NA,NA,NA,NA,NA,NA,NA,NA,NA,NA,NA,NA,NA,NA,NA,NA,NA,NA
fc08c,deep,flow.Sequence,1_1_0_0,NA,NA,skipped,NA,330538.5999999,NA,NA,330536.5999999,330543.19999993,2023-04-12T16:18:34Z,330553.721,"c(""distractor1"", ""distractor2"", ""distractor3"")",Kritik,lawama,s,dereva,nafasi,mawazo,NA,NA,NA,NA,NA,NA,NA,NA,NA,NA,NA,NA,NA,NA,NA,NA,NA,NA,NA,NA,NA,NA,NA
fc08c,Shallow Question,html.Page,1_1_0_1_0,NA,NA,form submission,5294.6789999761,330543.5999999,330531.786,330553.721,335848.39999998,335848.5999999,2023-04-12T16:18:40Z,335847.162,"c(""distractor1"", ""distractor2"", ""distractor3"")",Kritik,lawama,s,dereva,nafasi,mawazo,nafasi,NA,NA,NA,NA,NA,NA,NA,NA,NA,NA,NA,NA,NA,NA,NA,NA,NA,NA,NA,NA,NA,NA
fc08c,"""Richtig""-Screen",canvas.Screen,1_1_0_1_1,NA,NA,skipped,NA,335849.69999993,NA,NA,335848.39999998,335849.89999998,2023-04-12T16:18:40Z,335847.162,"c(""distractor1"", ""distractor2"", ""distractor3"")",Kritik,lawama,s,dereva,nafasi,mawazo,NA,NA,NA,NA,NA,NA,NA,NA,NA,NA,NA,NA,NA,NA,NA,NA,NA,NA,NA,NA,NA,NA,NA
fc08c,"""Falsch""-Screen",canvas.Screen,1_1_0_1_2,NA,NA,timeout,5003.925,335850.79999995,335842.842,335847.162,340834.808,340839.79999995,2023-04-12T16:18:45Z,340851.087,"c(""distractor1"", ""distractor2"", ""distractor3"")",Kritik,lawama,s,dereva,nafasi,mawazo,NA,NA,0,NA,NA,NA,NA,NA,NA,NA,NA,NA,NA,NA,NA,NA,NA,NA,NA,NA,NA,NA,NA
fc08c,shallow,flow.Sequence,1_1_0_1,NA,NA,completion,10281.087,330543.5,330531.786,330553.721,340834.808,340840.29999995,2023-04-12T16:18:45Z,340851.087,"c(""distractor1"", ""distractor2"", ""distractor3"")",Kritik,lawama,s,dereva,nafasi,mawazo,NA,NA,NA,NA,NA,NA,NA,NA,NA,NA,NA,NA,NA,NA,NA,NA,NA,NA,NA,NA,NA,NA,NA
fc08c,task,flow.Sequence,1_1_0,NA,NA,completion,10281.087,330538.5,330531.786,330553.721,340834.808,340840.5999999,2023-04-12T16:18:45Z,340851.087,"c(""distractor1"", ""distractor2"", ""distractor3"")",Kritik,lawama,s,dereva,nafasi,mawazo,NA,NA,NA,NA,NA,NA,NA,NA,NA,NA,NA,NA,NA,NA,NA,NA,NA,NA,NA,NA,NA,NA,NA
fc08c,deep,flow.Sequence,1_1_1_0,NA,NA,skipped,NA,340841,NA,NA,340834.808,340841.19999993,2023-04-12T16:18:45Z,340851.087,"c(""distractor1"", ""distractor2"", ""distractor3"")",Gegenwart,hadhara,s,katiba,jokofu,mikopo,NA,NA,NA,NA,NA,NA,NA,NA,NA,NA,NA,NA,NA,NA,NA,NA,NA,NA,NA,NA,NA,NA,NA
fc08c,Shallow Question,html.Page,1_1_1_1_0,NA,NA,form submission,3592.3129999762,340841.5,340834.808,340851.087,344443.39999998,344443.5999999,2023-04-12T16:18:48Z,344461.726,"c(""distractor1"", ""distractor2"", ""distractor3"")",Gegenwart,hadhara,s,katiba,jokofu,mikopo,jokofu,NA,NA,NA,NA,NA,NA,NA,NA,NA,NA,NA,NA,NA,NA,NA,NA,NA,NA,NA,NA,NA,NA
fc08c,"""Richtig""-Screen",canvas.Screen,1_1_1_1_1,NA,NA,skipped,NA,344445.5999999,NA,NA,344443.39999998,344445.79999995,2023-04-12T16:18:48Z,344461.726,"c(""distractor1"", ""distractor2"", ""distractor3"")",Gegenwart,hadhara,s,katiba,jokofu,mikopo,NA,NA,NA,NA,NA,NA,NA,NA,NA,NA,NA,NA,NA,NA,NA,NA,NA,NA,NA,NA,NA,NA,NA
fc08c,"""Falsch""-Screen",canvas.Screen,1_1_1_1_2,NA,NA,timeout,5003.319,344446.5999999,344428.005,344461.726,349448.876,349450.0999999,2023-04-12T16:18:53Z,349465.045,"c(""distractor1"", ""distractor2"", ""distractor3"")",Gegenwart,hadhara,s,katiba,jokofu,mikopo,NA,NA,0,NA,NA,NA,NA,NA,NA,NA,NA,NA,NA,NA,NA,NA,NA,NA,NA,NA,NA,NA,NA
fc08c,shallow,flow.Sequence,1_1_1_1,NA,NA,completion,8597.789,340841.39999998,340834.808,340851.087,349448.876,349450.79999995,2023-04-12T16:18:53Z,349465.045,"c(""distractor1"", ""distractor2"", ""distractor3"")",Gegenwart,hadhara,s,katiba,jokofu,mikopo,NA,NA,NA,NA,NA,NA,NA,NA,NA,NA,NA,NA,NA,NA,NA,NA,NA,NA,NA,NA,NA,NA,NA
fc08c,task,flow.Sequence,1_1_1,NA,NA,completion,8597.789,340840.79999995,340834.808,340851.087,349448.876,349451.29999995,2023-04-12T16:18:53Z,349465.045,"c(""distractor1"", ""distractor2"", ""distractor3"")",Gegenwart,hadhara,s,katiba,jokofu,mikopo,NA,NA,NA,NA,NA,NA,NA,NA,NA,NA,NA,NA,NA,NA,NA,NA,NA,NA,NA,NA,NA,NA,NA
fc08c,Deep Question,html.Page,1_1_2_0_0,NA,NA,form submission,1941.3549999762,349452,349448.876,349465.045,351406.39999998,351406.5999999,2023-04-12T16:18:55Z,351414.141,"c(""distractor1"", ""distractor2"", ""distractor3"")",Qualität,mtindo,d,NA,NA,NA,z,NA,NA,NA,NA,NA,NA,NA,NA,NA,NA,NA,NA,NA,NA,NA,NA,NA,NA,NA,NA,NA,NA
fc08c,"""Richtig""-Screen",canvas.Screen,1_1_2_0_1,NA,NA,skipped,NA,351408.69999993,NA,NA,351406.39999998,351408.79999995,2023-04-12T16:18:55Z,351414.141,"c(""distractor1"", ""distractor2"", ""distractor3"")",Qualität,mtindo,d,NA,NA,NA,NA,NA,NA,NA,NA,NA,NA,NA,NA,NA,NA,NA,NA,NA,NA,NA,NA,NA,NA,NA,NA,NA,NA
fc08c,"""Falsch""-Screen",canvas.Screen,1_1_2_0_2,NA,NA,timeout,4995.674,351409.39999998,351393.604,351414.141,356393.166,356394.29999995,2023-04-12T16:19:00Z,356409.815,"c(""distractor1"", ""distractor2"", ""distractor3"")",Qualität,mtindo,d,NA,NA,NA,NA,NA,0,NA,NA,NA,NA,NA,NA,NA,NA,NA,NA,NA,NA,NA,NA,NA,NA,NA,NA,NA,NA
fc08c,deep,flow.Sequence,1_1_2_0,NA,NA,completion,6928.121,349451.89999998,349448.876,349465.045,356393.166,356394.5999999,2023-04-12T16:19:00Z,356409.815,"c(""distractor1"", ""distractor2"", ""distractor3"")",Qualität,mtindo,d,NA,NA,NA,NA,NA,NA,NA,NA,NA,NA,NA,NA,NA,NA,NA,NA,NA,NA,NA,NA,NA,NA,NA,NA,NA,NA
fc08c,shallow,flow.Sequence,1_1_2_1,NA,NA,skipped,NA,356394.89999998,NA,NA,356393.166,356395.0999999,2023-04-12T16:19:00Z,356409.815,"c(""distractor1"", ""distractor2"", ""distractor3"")",Qualität,mtindo,d,NA,NA,NA,NA,NA,NA,NA,NA,NA,NA,NA,NA,NA,NA,NA,NA,NA,NA,NA,NA,NA,NA,NA,NA,NA,NA
fc08c,task,flow.Sequence,1_1_2,NA,NA,completion,6928.121,349451.69999993,349448.876,349465.045,356393.166,356395.39999998,2023-04-12T16:19:00Z,356409.815,"c(""distractor1"", ""distractor2"", ""distractor3"")",Qualität,mtindo,d,NA,NA,NA,NA,NA,NA,NA,NA,NA,NA,NA,NA,NA,NA,NA,NA,NA,NA,NA,NA,NA,NA,NA,NA,NA,NA
fc08c,Deep Question,html.Page,1_1_3_0_0,NA,NA,form submission,2966.0849999762,356395.69999993,356393.166,356409.815,359375.89999998,359376.0999999,2023-04-12T16:19:03Z,359399.72,"c(""distractor1"", ""distractor2"", ""distractor3"")",Schatten,kivuli,d,NA,NA,NA,u,NA,NA,NA,NA,NA,NA,NA,NA,NA,NA,NA,NA,NA,NA,NA,NA,NA,NA,NA,NA,NA,NA
fc08c,"""Richtig""-Screen",canvas.Screen,1_1_3_0_1,NA,NA,skipped,NA,359378.79999995,NA,NA,359375.89999998,359378.89999998,2023-04-12T16:19:03Z,359399.72,"c(""distractor1"", ""distractor2"", ""distractor3"")",Schatten,kivuli,d,NA,NA,NA,NA,NA,NA,NA,NA,NA,NA,NA,NA,NA,NA,NA,NA,NA,NA,NA,NA,NA,NA,NA,NA,NA,NA
fc08c,"""Falsch""-Screen",canvas.Screen,1_1_3_0_2,NA,NA,timeout,4999.4570000001,359380,359383.099,359399.72,364382.972,364384.0999999,2023-04-12T16:19:08Z,364399.177,"c(""distractor1"", ""distractor2"", ""distractor3"")",Schatten,kivuli,d,NA,NA,NA,NA,NA,0,NA,NA,NA,NA,NA,NA,NA,NA,NA,NA,NA,NA,NA,NA,NA,NA,NA,NA,NA,NA
fc08c,deep,flow.Sequence,1_1_3_0,NA,NA,completion,7973.157,356395.5999999,356393.166,356409.815,364382.972,364384.5,2023-04-12T16:19:08Z,364399.177,"c(""distractor1"", ""distractor2"", ""distractor3"")",Schatten,kivuli,d,NA,NA,NA,NA,NA,NA,NA,NA,NA,NA,NA,NA,NA,NA,NA,NA,NA,NA,NA,NA,NA,NA,NA,NA,NA,NA
fc08c,shallow,flow.Sequence,1_1_3_1,NA,NA,skipped,NA,364384.69999993,NA,NA,364382.972,364384.79999995,2023-04-12T16:19:08Z,364399.177,"c(""distractor1"", ""distractor2"", ""distractor3"")",Schatten,kivuli,d,NA,NA,NA,NA,NA,NA,NA,NA,NA,NA,NA,NA,NA,NA,NA,NA,NA,NA,NA,NA,NA,NA,NA,NA,NA,NA
fc08c,task,flow.Sequence,1_1_3,NA,NA,completion,7973.157,356395.5,356393.166,356409.815,364382.972,364385.0999999,2023-04-12T16:19:08Z,364399.177,"c(""distractor1"", ""distractor2"", ""distractor3"")",Schatten,kivuli,d,NA,NA,NA,NA,NA,NA,NA,NA,NA,NA,NA,NA,NA,NA,NA,NA,NA,NA,NA,NA,NA,NA,NA,NA,NA,NA
fc08c,deep,flow.Sequence,1_1_4_0,NA,NA,skipped,NA,364385.39999998,NA,NA,364382.972,364385.5,2023-04-12T16:19:08Z,364399.177,"c(""distractor1"", ""distractor2"", ""distractor3"")",Rückhalt,msaada,s,muhula,auwali,kiwimbe,NA,NA,NA,NA,NA,NA,NA,NA,NA,NA,NA,NA,NA,NA,NA,NA,NA,NA,NA,NA,NA,NA,NA
fc08c,Shallow Question,html.Page,1_1_4_1_0,NA,NA,form submission,3147.823,364385.69999993,364382.972,364399.177,367547,367547.19999993,2023-04-12T16:19:11Z,367547.392,"c(""distractor1"", ""distractor2"", ""distractor3"")",Rückhalt,msaada,s,muhula,auwali,kiwimbe,auwali,NA,NA,NA,NA,NA,NA,NA,NA,NA,NA,NA,NA,NA,NA,NA,NA,NA,NA,NA,NA,NA,NA
fc08c,"""Richtig""-Screen",canvas.Screen,1_1_4_1_1,NA,NA,skipped,NA,367549.19999993,NA,NA,367547,367549.39999998,2023-04-12T16:19:11Z,367547.392,"c(""distractor1"", ""distractor2"", ""distractor3"")",Rückhalt,msaada,s,muhula,auwali,kiwimbe,NA,NA,NA,NA,NA,NA,NA,NA,NA,NA,NA,NA,NA,NA,NA,NA,NA,NA,NA,NA,NA,NA,NA
fc08c,"""Falsch""-Screen",canvas.Screen,1_1_4_1_2,NA,NA,timeout,5000.029,367550,367543.471,367547.392,372530.77,372531.89999998,2023-04-12T16:19:16Z,372547.421,"c(""distractor1"", ""distractor2"", ""distractor3"")",Rückhalt,msaada,s,muhula,auwali,kiwimbe,NA,NA,0,NA,NA,NA,NA,NA,NA,NA,NA,NA,NA,NA,NA,NA,NA,NA,NA,NA,NA,NA,NA
fc08c,shallow,flow.Sequence,1_1_4_1,NA,NA,completion,8131.593,364385.5999999,364382.972,364399.177,372530.77,372532.29999995,2023-04-12T16:19:16Z,372547.421,"c(""distractor1"", ""distractor2"", ""distractor3"")",Rückhalt,msaada,s,muhula,auwali,kiwimbe,NA,NA,NA,NA,NA,NA,NA,NA,NA,NA,NA,NA,NA,NA,NA,NA,NA,NA,NA,NA,NA,NA,NA
fc08c,task,flow.Sequence,1_1_4,NA,NA,completion,8131.593,364385.29999995,364382.972,364399.177,372530.77,372532.5999999,2023-04-12T16:19:16Z,372547.421,"c(""distractor1"", ""distractor2"", ""distractor3"")",Rückhalt,msaada,s,muhula,auwali,kiwimbe,NA,NA,NA,NA,NA,NA,NA,NA,NA,NA,NA,NA,NA,NA,NA,NA,NA,NA,NA,NA,NA,NA,NA
fc08c,Deep Question,html.Page,1_1_5_0_0,NA,NA,form submission,7245.3789999523,372532.89999998,372530.77,372547.421,379792.79999995,379793,2023-04-12T16:19:23Z,379795.574,"c(""distractor1"", ""distractor2"", ""distractor3"")",Gesundheit,salama,d,NA,NA,NA,u,NA,NA,NA,NA,NA,NA,NA,NA,NA,NA,NA,NA,NA,NA,NA,NA,NA,NA,NA,NA,NA,NA
fc08c,"""Richtig""-Screen",canvas.Screen,1_1_5_0_1,NA,NA,skipped,NA,379795.19999993,NA,NA,379792.79999995,379795.39999998,2023-04-12T16:19:23Z,379795.574,"c(""distractor1"", ""distractor2"", ""distractor3"")",Gesundheit,salama,d,NA,NA,NA,NA,NA,NA,NA,NA,NA,NA,NA,NA,NA,NA,NA,NA,NA,NA,NA,NA,NA,NA,NA,NA,NA,NA
fc08c,"""Falsch""-Screen",canvas.Screen,1_1_5_0_2,NA,NA,timeout,5007.255,379796.29999995,379782.802,379795.574,384786.804,384787.89999998,2023-04-12T16:19:28Z,384802.829,"c(""distractor1"", ""distractor2"", ""distractor3"")",Gesundheit,salama,d,NA,NA,NA,NA,NA,0,NA,NA,NA,NA,NA,NA,NA,NA,NA,NA,NA,NA,NA,NA,NA,NA,NA,NA,NA,NA
fc08c,deep,flow.Sequence,1_1_5_0,NA,NA,completion,12239.383,372532.79999995,372530.77,372547.421,384786.804,384788.29999995,2023-04-12T16:19:28Z,384802.829,"c(""distractor1"", ""distractor2"", ""distractor3"")",Gesundheit,salama,d,NA,NA,NA,NA,NA,NA,NA,NA,NA,NA,NA,NA,NA,NA,NA,NA,NA,NA,NA,NA,NA,NA,NA,NA,NA,NA
fc08c,shallow,flow.Sequence,1_1_5_1,NA,NA,skipped,NA,384788.5,NA,NA,384786.804,384788.79999995,2023-04-12T16:19:28Z,384802.829,"c(""distractor1"", ""distractor2"", ""distractor3"")",Gesundheit,salama,d,NA,NA,NA,NA,NA,NA,NA,NA,NA,NA,NA,NA,NA,NA,NA,NA,NA,NA,NA,NA,NA,NA,NA,NA,NA,NA
fc08c,task,flow.Sequence,1_1_5,NA,NA,completion,12239.383,372532.79999995,372530.77,372547.421,384786.804,384789,2023-04-12T16:19:28Z,384802.829,"c(""distractor1"", ""distractor2"", ""distractor3"")",Gesundheit,salama,d,NA,NA,NA,NA,NA,NA,NA,NA,NA,NA,NA,NA,NA,NA,NA,NA,NA,NA,NA,NA,NA,NA,NA,NA,NA,NA
fc08c,block,flow.Loop,1_1,NA,NA,completion,54233.083,330538.39999998,330531.786,330553.721,384786.804,384789.5,2023-04-12T16:19:28Z,384802.829,"c(""distractor1"", ""distractor2"", ""distractor3"")",NA,NA,NA,NA,NA,NA,NA,NA,NA,NA,NA,NA,NA,NA,NA,NA,NA,NA,NA,NA,NA,NA,NA,NA,NA,NA,NA,NA,NA
fc08c,Practice,flow.Sequence,1,NA,NA,completion,61432.813,323355.89999998,323334.241,323353.991,384786.804,384789.79999995,2023-04-12T16:19:28Z,384802.829,NULL,NA,NA,NA,NA,NA,NA,NA,NA,NA,NA,NA,NA,NA,NA,NA,NA,NA,NA,NA,NA,NA,NA,NA,NA,NA,NA,NA,NA,NA
fc08c,Experiment start,canvas.Screen,2,weiter,keypress(q),response,105884.87099993,384790,384786.804,384802.829,490687.69999993,490689.29999995,2023-04-12T16:21:14Z,490853.112,NULL,NA,NA,NA,NA,NA,NA,NA,NA,NA,NA,NA,NA,NA,NA,NA,NA,NA,NA,NA,NA,NA,NA,NA,NA,NA,NA,NA,NA,NA
fc08c,Deep Question,html.Page,3_0_0_0_0_0_0,NA,NA,form submission,4045.888,490849.69999993,490836.723,490853.112,494899,494899.19999993,2023-04-12T16:21:19Z,494905.78,NULL,Respekt,heshima,d,NA,NA,NA,r,NA,NA,0,NA,NA,NA,NA,NA,NA,NA,NA,NA,NA,NA,NA,NA,NA,NA,NA,NA,NA,NA
fc08c,"""Richtig""-Screen",canvas.Screen,3_0_0_0_0_0_1,NA,NA,skipped,NA,494901.69999993,NA,NA,494899,494901.79999995,2023-04-12T16:21:19Z,494905.78,NULL,Respekt,heshima,d,NA,NA,NA,NA,sdf,NA,0,NA,NA,NA,NA,NA,NA,NA,NA,NA,NA,NA,NA,NA,NA,NA,NA,NA,NA,NA
fc08c,"""Falsch""-Screen",canvas.Screen,3_0_0_0_0_0_2,NA,NA,timeout,4995.712,494902.89999998,494897.783,494905.78,499885.112,499886.19999993,2023-04-12T16:21:24Z,499901.492,NULL,Respekt,heshima,d,NA,NA,NA,NA,sdf,0,0,NA,NA,NA,NA,NA,NA,NA,NA,NA,NA,NA,NA,NA,NA,NA,NA,NA,NA,NA
fc08c,deep,flow.Sequence,3_0_0_0_0_0,NA,NA,completion,9032,490849.69999993,490836.723,490853.112,499885.112,499886.5999999,2023-04-12T16:21:24Z,499901.492,NULL,Respekt,heshima,d,NA,NA,NA,NA,sdf,NA,0,NA,NA,NA,NA,NA,NA,NA,NA,NA,NA,NA,NA,NA,NA,NA,NA,NA,NA,NA
fc08c,shallow,flow.Sequence,3_0_0_0_0_1,NA,NA,skipped,NA,499886.69999993,NA,NA,499885.112,499886.89999998,2023-04-12T16:21:24Z,499901.492,NULL,Respekt,heshima,d,NA,NA,NA,NA,sdf,NA,0,NA,NA,NA,NA,NA,NA,NA,NA,NA,NA,NA,NA,NA,NA,NA,NA,NA,NA,NA
fc08c,task,flow.Sequence,3_0_0_0_0,NA,NA,completion,9032,490849.69999993,490836.723,490853.112,499885.112,499887.19999993,2023-04-12T16:21:24Z,499901.492,NULL,Respekt,heshima,d,NA,NA,NA,NA,sdf,NA,0,NA,NA,NA,NA,NA,NA,NA,NA,NA,NA,NA,NA,NA,NA,NA,NA,NA,NA,NA
fc08c,deep,flow.Sequence,3_0_0_0_1_0,NA,NA,skipped,NA,499887.39999998,NA,NA,499885.112,499887.5,2023-04-12T16:21:24Z,499901.492,NULL,Stimmung,kinyongo,s,kilekile,kisambo,madhehebu,NA,sdf,NA,0,NA,NA,NA,NA,NA,NA,NA,NA,NA,NA,NA,NA,NA,NA,NA,NA,NA,NA,NA
fc08c,Shallow Question,html.Page,3_0_0_0_1_1_0,NA,NA,form submission,5033.2079999284,499887.5999999,499885.112,499901.492,504934.69999993,504935.0999999,2023-04-12T16:21:29Z,504936.894,NULL,Stimmung,kinyongo,s,kilekile,kisambo,madhehebu,kilekile,NA,NA,0,NA,NA,NA,NA,NA,NA,NA,NA,NA,NA,NA,NA,NA,NA,NA,NA,NA,NA,NA
fc08c,"""Richtig""-Screen",canvas.Screen,3_0_0_0_1_1_1,NA,NA,skipped,NA,504941.0999999,NA,NA,504934.69999993,504941.5,2023-04-12T16:21:29Z,504936.894,NULL,Stimmung,kinyongo,s,kilekile,kisambo,madhehebu,NA,sdf,NA,0,NA,NA,NA,NA,NA,NA,NA,NA,NA,NA,NA,NA,NA,NA,NA,NA,NA,NA,NA
fc08c,"""Falsch""-Screen",canvas.Screen,3_0_0_0_1_1_2,NA,NA,timeout,5004.304,504943.39999998,504933.101,504936.894,509924.538,509925.5999999,2023-04-12T16:21:34Z,509941.198,NULL,Stimmung,kinyongo,s,kilekile,kisambo,madhehebu,NA,sdf,0,0,NA,NA,NA,NA,NA,NA,NA,NA,NA,NA,NA,NA,NA,NA,NA,NA,NA,NA,NA
fc08c,shallow,flow.Sequence,3_0_0_0_1_1,NA,NA,completion,10023.046,499887.5999999,499885.112,499901.492,509924.538,509926.0999999,2023-04-12T16:21:34Z,509941.198,NULL,Stimmung,kinyongo,s,kilekile,kisambo,madhehebu,NA,sdf,NA,0,NA,NA,NA,NA,NA,NA,NA,NA,NA,NA,NA,NA,NA,NA,NA,NA,NA,NA,NA
fc08c,task,flow.Sequence,3_0_0_0_1,NA,NA,completion,10023.046,499887.29999995,499885.112,499901.492,509924.538,509926.5,2023-04-12T16:21:34Z,509941.198,NULL,Stimmung,kinyongo,s,kilekile,kisambo,madhehebu,NA,sdf,NA,0,NA,NA,NA,NA,NA,NA,NA,NA,NA,NA,NA,NA,NA,NA,NA,NA,NA,NA,NA
fc08c,Deep Question,html.Page,3_0_0_0_2_0_0,NA,NA,form submission,2946.802,509926.5999999,509924.538,509941.198,512888,512888.19999993,2023-04-12T16:21:37Z,512893.246,NULL,Kreativität,ubunifu,d,NA,NA,NA,z,NA,NA,0,NA,NA,NA,NA,NA,NA,NA,NA,NA,NA,NA,NA,NA,NA,NA,NA,NA,NA,NA
fc08c,"""Richtig""-Screen",canvas.Screen,3_0_0_0_2_0_1,NA,NA,skipped,NA,512890.29999995,NA,NA,512888,512890.39999998,2023-04-12T16:21:37Z,512893.246,NULL,Kreativität,ubunifu,d,NA,NA,NA,NA,sdf,NA,0,NA,NA,NA,NA,NA,NA,NA,NA,NA,NA,NA,NA,NA,NA,NA,NA,NA,NA,NA
fc08c,"""Falsch""-Screen",canvas.Screen,3_0_0_0_2_0_2,NA,NA,timeout,5003.919,512891.0999999,512885.498,512893.246,517880.782,517882.5,2023-04-12T16:21:42Z,517897.165,NULL,Kreativität,ubunifu,d,NA,NA,NA,NA,sdf,0,0,NA,NA,NA,NA,NA,NA,NA,NA,NA,NA,NA,NA,NA,NA,NA,NA,NA,NA,NA
fc08c,deep,flow.Sequence,3_0_0_0_2_0,NA,NA,completion,7939.584,509926.5999999,509924.538,509941.198,517880.782,517882.89999998,2023-04-12T16:21:42Z,517897.165,NULL,Kreativität,ubunifu,d,NA,NA,NA,NA,sdf,NA,0,NA,NA,NA,NA,NA,NA,NA,NA,NA,NA,NA,NA,NA,NA,NA,NA,NA,NA,NA
fc08c,shallow,flow.Sequence,3_0_0_0_2_1,NA,NA,skipped,NA,517883.0999999,NA,NA,517880.782,517883.39999998,2023-04-12T16:21:42Z,517897.165,NULL,Kreativität,ubunifu,d,NA,NA,NA,NA,sdf,NA,0,NA,NA,NA,NA,NA,NA,NA,NA,NA,NA,NA,NA,NA,NA,NA,NA,NA,NA,NA
fc08c,task,flow.Sequence,3_0_0_0_2,NA,NA,completion,7939.584,509926.5999999,509924.538,509941.198,517880.782,517883.5,2023-04-12T16:21:42Z,517897.165,NULL,Kreativität,ubunifu,d,NA,NA,NA,NA,sdf,NA,0,NA,NA,NA,NA,NA,NA,NA,NA,NA,NA,NA,NA,NA,NA,NA,NA,NA,NA,NA
fc08c,deep,flow.Sequence,3_0_0_0_3_0,NA,NA,skipped,NA,517883.79999995,NA,NA,517880.782,517884,2023-04-12T16:21:42Z,517897.165,NULL,Betrüger,mdanganyifu,s,mwanamuziki,wastani,mahakama,NA,sdf,NA,0,NA,NA,NA,NA,NA,NA,NA,NA,NA,NA,NA,NA,NA,NA,NA,NA,NA,NA,NA
fc08c,Shallow Question,html.Page,3_0_0_0_3_1_0,NA,NA,form submission,4777.0349999285,517884.0999999,517880.782,517897.165,522674.19999993,522674.5,2023-04-12T16:21:46Z,522690.475,NULL,Betrüger,mdanganyifu,s,mwanamuziki,wastani,mahakama,wastani,NA,NA,0,NA,NA,NA,NA,NA,NA,NA,NA,NA,NA,NA,NA,NA,NA,NA,NA,NA,NA,NA
fc08c,"""Richtig""-Screen",canvas.Screen,3_0_0_0_3_1_1,NA,NA,skipped,NA,522679.89999998,NA,NA,522674.19999993,522680.39999998,2023-04-12T16:21:46Z,522690.475,NULL,Betrüger,mdanganyifu,s,mwanamuziki,wastani,mahakama,NA,sdf,NA,0,NA,NA,NA,NA,NA,NA,NA,NA,NA,NA,NA,NA,NA,NA,NA,NA,NA,NA,NA
fc08c,"""Falsch""-Screen",canvas.Screen,3_0_0_0_3_1_2,NA,NA,timeout,4995.8250000001,522682,522665.398,522690.475,527669.635,527670.69999993,2023-04-12T16:21:51Z,527686.3,NULL,Betrüger,mdanganyifu,s,mwanamuziki,wastani,mahakama,NA,sdf,0,0,NA,NA,NA,NA,NA,NA,NA,NA,NA,NA,NA,NA,NA,NA,NA,NA,NA,NA,NA
fc08c,shallow,flow.Sequence,3_0_0_0_3_1,NA,NA,completion,9772.47,517884.0999999,517880.782,517897.165,527669.635,527671.19999993,2023-04-12T16:21:51Z,527686.3,NULL,Betrüger,mdanganyifu,s,mwanamuziki,wastani,mahakama,NA,sdf,NA,0,NA,NA,NA,NA,NA,NA,NA,NA,NA,NA,NA,NA,NA,NA,NA,NA,NA,NA,NA
fc08c,task,flow.Sequence,3_0_0_0_3,NA,NA,completion,9772.47,517883.79999995,517880.782,517897.165,527669.635,527671.5,2023-04-12T16:21:51Z,527686.3,NULL,Betrüger,mdanganyifu,s,mwanamuziki,wastani,mahakama,NA,sdf,NA,0,NA,NA,NA,NA,NA,NA,NA,NA,NA,NA,NA,NA,NA,NA,NA,NA,NA,NA,NA
fc08c,Deep Question,html.Page,3_0_0_0_4_0_0,NA,NA,form submission,1999.0999999761,527671.79999995,527669.635,527686.3,529685.39999998,529685.5999999,2023-04-12T16:21:53Z,529693.128,NULL,Orientierung,urekebisho,d,NA,NA,NA,o,NA,NA,0,NA,NA,NA,NA,NA,NA,NA,NA,NA,NA,NA,NA,NA,NA,NA,NA,NA,NA,NA
fc08c,"""Richtig""-Screen",canvas.Screen,3_0_0_0_4_0_1,NA,NA,skipped,NA,529687.39999998,NA,NA,529685.39999998,529687.5999999,2023-04-12T16:21:53Z,529693.128,NULL,Orientierung,urekebisho,d,NA,NA,NA,NA,sdf,NA,0,NA,NA,NA,NA,NA,NA,NA,NA,NA,NA,NA,NA,NA,NA,NA,NA,NA,NA,NA
fc08c,"""Falsch""-Screen",canvas.Screen,3_0_0_0_4_0_2,NA,NA,timeout,4999.7459999999,529688.19999993,529668.565,529693.128,534676.717,534677.89999998,2023-04-12T16:21:58Z,534692.874,NULL,Orientierung,urekebisho,d,NA,NA,NA,NA,sdf,0,0,NA,NA,NA,NA,NA,NA,NA,NA,NA,NA,NA,NA,NA,NA,NA,NA,NA,NA,NA
fc08c,deep,flow.Sequence,3_0_0_0_4_0,NA,NA,completion,6990.4169999999,527671.69999993,527669.635,527686.3,534676.717,534678.29999995,2023-04-12T16:21:58Z,534692.874,NULL,Orientierung,urekebisho,d,NA,NA,NA,NA,sdf,NA,0,NA,NA,NA,NA,NA,NA,NA,NA,NA,NA,NA,NA,NA,NA,NA,NA,NA,NA,NA
fc08c,shallow,flow.Sequence,3_0_0_0_4_1,NA,NA,skipped,NA,534678.39999998,NA,NA,534676.717,534678.5999999,2023-04-12T16:21:58Z,534692.874,NULL,Orientierung,urekebisho,d,NA,NA,NA,NA,sdf,NA,0,NA,NA,NA,NA,NA,NA,NA,NA,NA,NA,NA,NA,NA,NA,NA,NA,NA,NA,NA
fc08c,task,flow.Sequence,3_0_0_0_4,NA,NA,completion,6990.4169999999,527671.5999999,527669.635,527686.3,534676.717,534678.89999998,2023-04-12T16:21:58Z,534692.874,NULL,Orientierung,urekebisho,d,NA,NA,NA,NA,sdf,NA,0,NA,NA,NA,NA,NA,NA,NA,NA,NA,NA,NA,NA,NA,NA,NA,NA,NA,NA,NA
fc08c,Deep Question,html.Page,3_0_0_0_5_0_0,NA,NA,form submission,1982.5259999762,534679.0999999,534676.717,534692.874,536675.39999998,536675.69999993,2023-04-12T16:22:00Z,536679.703,NULL,Können,unaweza,d,NA,NA,NA,k,NA,NA,0,NA,NA,NA,NA,NA,NA,NA,NA,NA,NA,NA,NA,NA,NA,NA,NA,NA,NA,NA
fc08c,"""Richtig""-Screen",canvas.Screen,3_0_0_0_5_0_1,NA,NA,skipped,NA,536677.69999993,NA,NA,536675.39999998,536677.79999995,2023-04-12T16:22:00Z,536679.703,NULL,Können,unaweza,d,NA,NA,NA,NA,sdf,NA,0,NA,NA,NA,NA,NA,NA,NA,NA,NA,NA,NA,NA,NA,NA,NA,NA,NA,NA,NA
fc08c,"""Falsch""-Screen",canvas.Screen,3_0_0_0_5_0_2,NA,NA,timeout,4991.3860000001,536678.39999998,536659.24,536679.703,541655.06,541656.19999993,2023-04-12T16:22:05Z,541671.089,NULL,Können,unaweza,d,NA,NA,NA,NA,sdf,0,0,NA,NA,NA,NA,NA,NA,NA,NA,NA,NA,NA,NA,NA,NA,NA,NA,NA,NA,NA
fc08c,deep,flow.Sequence,3_0_0_0_5_0,NA,NA,completion,6962.1860000001,534679,534676.717,534692.874,541655.06,541656.5999999,2023-04-12T16:22:05Z,541671.089,NULL,Können,unaweza,d,NA,NA,NA,NA,sdf,NA,0,NA,NA,NA,NA,NA,NA,NA,NA,NA,NA,NA,NA,NA,NA,NA,NA,NA,NA,NA
fc08c,shallow,flow.Sequence,3_0_0_0_5_1,NA,NA,skipped,NA,541656.79999995,NA,NA,541655.06,541657,2023-04-12T16:22:05Z,541671.089,NULL,Können,unaweza,d,NA,NA,NA,NA,sdf,NA,0,NA,NA,NA,NA,NA,NA,NA,NA,NA,NA,NA,NA,NA,NA,NA,NA,NA,NA,NA
fc08c,task,flow.Sequence,3_0_0_0_5,NA,NA,completion,6962.1860000001,534679,534676.717,534692.874,541655.06,541657.29999995,2023-04-12T16:22:05Z,541671.089,NULL,Können,unaweza,d,NA,NA,NA,NA,sdf,NA,0,NA,NA,NA,NA,NA,NA,NA,NA,NA,NA,NA,NA,NA,NA,NA,NA,NA,NA,NA
fc08c,deep,flow.Sequence,3_0_0_0_6_0,NA,NA,skipped,NA,541657.39999998,NA,NA,541655.06,541657.5,2023-04-12T16:22:05Z,541671.089,NULL,Gefährdung,kuhatarisha,s,uchokozi,udhaifu,makorowezo,NA,sdf,NA,0,NA,NA,NA,NA,NA,NA,NA,NA,NA,NA,NA,NA,NA,NA,NA,NA,NA,NA,NA
fc08c,Shallow Question,html.Page,3_0_0_0_6_1_0,NA,NA,form submission,7164.3109999761,541657.79999995,541655.06,541671.089,548835.39999998,548835.79999995,2023-04-12T16:22:13Z,548843.257,NULL,Gefährdung,kuhatarisha,s,uchokozi,udhaifu,makorowezo,udhaifu,NA,NA,0,NA,NA,NA,NA,NA,NA,NA,NA,NA,NA,NA,NA,NA,NA,NA,NA,NA,NA,NA
fc08c,"""Richtig""-Screen",canvas.Screen,3_0_0_0_6_1_1,NA,NA,skipped,NA,548841.19999993,NA,NA,548835.39999998,548841.5999999,2023-04-12T16:22:13Z,548843.257,NULL,Gefährdung,kuhatarisha,s,uchokozi,udhaifu,makorowezo,NA,sdf,NA,0,NA,NA,NA,NA,NA,NA,NA,NA,NA,NA,NA,NA,NA,NA,NA,NA,NA,NA,NA
fc08c,"""Falsch""-Screen",canvas.Screen,3_0_0_0_6_1_2,NA,NA,timeout,4995.415,548843.5,548818.173,548843.257,553822.147,553823.29999995,2023-04-12T16:22:18Z,553838.672,NULL,Gefährdung,kuhatarisha,s,uchokozi,udhaifu,makorowezo,NA,sdf,0,0,NA,NA,NA,NA,NA,NA,NA,NA,NA,NA,NA,NA,NA,NA,NA,NA,NA,NA,NA
fc08c,shallow,flow.Sequence,3_0_0_0_6_1,NA,NA,completion,12151.058,541657.69999993,541655.06,541671.089,553822.147,553823.69999993,2023-04-12T16:22:18Z,553838.672,NULL,Gefährdung,kuhatarisha,s,uchokozi,udhaifu,makorowezo,NA,sdf,NA,0,NA,NA,NA,NA,NA,NA,NA,NA,NA,NA,NA,NA,NA,NA,NA,NA,NA,NA,NA
fc08c,task,flow.Sequence,3_0_0_0_6,NA,NA,completion,12151.058,541657.39999998,541655.06,541671.089,553822.147,553824,2023-04-12T16:22:18Z,553838.672,NULL,Gefährdung,kuhatarisha,s,uchokozi,udhaifu,makorowezo,NA,sdf,NA,0,NA,NA,NA,NA,NA,NA,NA,NA,NA,NA,NA,NA,NA,NA,NA,NA,NA,NA,NA
fc08c,deep,flow.Sequence,3_0_0_0_7_0,NA,NA,skipped,NA,553824.19999993,NA,NA,553822.147,553824.39999998,2023-04-12T16:22:18Z,553838.672,NULL,Kontrolle,kudhibiti,s,mbinguni,kufunga,utegemezi,NA,sdf,NA,0,NA,NA,NA,NA,NA,NA,NA,NA,NA,NA,NA,NA,NA,NA,NA,NA,NA,NA,NA
fc08c,Shallow Question,html.Page,3_0_0_0_7_1_0,NA,NA,form submission,5545.4279999046,553824.5999999,553822.147,553838.672,559384.0999999,559384.5999999,2023-04-12T16:22:23Z,559398.576,NULL,Kontrolle,kudhibiti,s,mbinguni,kufunga,utegemezi,kufunga,NA,NA,0,NA,NA,NA,NA,NA,NA,NA,NA,NA,NA,NA,NA,NA,NA,NA,NA,NA,NA,NA
fc08c,"""Richtig""-Screen",canvas.Screen,3_0_0_0_7_1_1,NA,NA,skipped,NA,559390,NA,NA,559384.0999999,559390.39999998,2023-04-12T16:22:23Z,559398.576,NULL,Kontrolle,kudhibiti,s,mbinguni,kufunga,utegemezi,NA,sdf,NA,0,NA,NA,NA,NA,NA,NA,NA,NA,NA,NA,NA,NA,NA,NA,NA,NA,NA,NA,NA
fc08c,"""Falsch""-Screen",canvas.Screen,3_0_0_0_7_1_2,NA,NA,timeout,4999.602,559392,559373.959,559398.576,564381.869,564382.89999998,2023-04-12T16:22:28Z,564398.178,NULL,Kontrolle,kudhibiti,s,mbinguni,kufunga,utegemezi,NA,sdf,0,0,NA,NA,NA,NA,NA,NA,NA,NA,NA,NA,NA,NA,NA,NA,NA,NA,NA,NA,NA
fc08c,shallow,flow.Sequence,3_0_0_0_7_1,NA,NA,completion,10543.197,553824.5,553822.147,553838.672,564381.869,564383.5,2023-04-12T16:22:28Z,564398.178,NULL,Kontrolle,kudhibiti,s,mbinguni,kufunga,utegemezi,NA,sdf,NA,0,NA,NA,NA,NA,NA,NA,NA,NA,NA,NA,NA,NA,NA,NA,NA,NA,NA,NA,NA
fc08c,task,flow.Sequence,3_0_0_0_7,NA,NA,completion,10543.197,553824.19999993,553822.147,553838.672,564381.869,564383.79999995,2023-04-12T16:22:28Z,564398.178,NULL,Kontrolle,kudhibiti,s,mbinguni,kufunga,utegemezi,NA,sdf,NA,0,NA,NA,NA,NA,NA,NA,NA,NA,NA,NA,NA,NA,NA,NA,NA,NA,NA,NA,NA
fc08c,block,flow.Loop,3_0_0_0,NA,NA,completion,73528.757,490849.5999999,490836.723,490853.112,564381.869,564384.0999999,2023-04-12T16:22:28Z,564398.178,NULL,NA,NA,NA,NA,NA,NA,NA,sdf,NA,0,NA,NA,NA,NA,NA,NA,NA,NA,NA,NA,NA,NA,NA,NA,NA,NA,NA,NA,NA
fc08c,weiter,canvas.Screen,3_0_0_1,sdf,keypress(Space),response,1237.822,564384.29999995,564381.869,564398.178,565636,565637.5999999,2023-04-12T16:22:29Z,565722.827,NULL,NA,NA,NA,NA,NA,NA,NA,sdf,NA,0,NA,NA,NA,NA,NA,NA,NA,NA,NA,NA,NA,NA,NA,NA,NA,NA,NA,NA,NA
fc08c,check continue,flow.Sequence,3_0_0,NA,NA,completion,74782.888,490849.5999999,490836.723,490853.112,565636,565637.89999998,2023-04-12T16:22:29Z,565722.827,NULL,NA,NA,NA,NA,NA,NA,NA,sdf,NA,0,NA,NA,NA,NA,NA,NA,NA,NA,NA,NA,NA,NA,NA,NA,NA,NA,NA,NA,NA
fc08c,deep,flow.Sequence,3_0_1_0_0_0,NA,NA,skipped,NA,565721.5999999,NA,NA,565636,565721.89999998,2023-04-12T16:22:29Z,565722.827,NULL,Kontrolle,kudhibiti,s,mbinguni,kufunga,utegemezi,NA,sdfdsf,NA,1,NA,NA,NA,NA,NA,NA,NA,NA,NA,NA,NA,NA,NA,NA,NA,NA,NA,NA,NA
fc08c,Shallow Question,html.Page,3_0_1_0_0_1_0,NA,NA,form submission,7264.9729999523,565722.0999999,565630.265,565722.827,572987.79999995,572988.39999998,2023-04-12T16:22:37Z,573006.323,NULL,Kontrolle,kudhibiti,s,mbinguni,kufunga,utegemezi,kudhibiti,NA,NA,1,NA,NA,NA,NA,NA,NA,NA,NA,NA,NA,NA,NA,NA,NA,NA,NA,NA,NA,NA
fc08c,"""Richtig""-Screen",canvas.Screen,3_0_1_0_0_1_1,NA,NA,timeout,5003.647,572993.5,572981.795,573006.323,577993.785,577995,2023-04-12T16:22:42Z,578009.97,NULL,Kontrolle,kudhibiti,s,mbinguni,kufunga,utegemezi,NA,sdfdsf,1,1,NA,NA,NA,NA,NA,NA,NA,NA,NA,NA,NA,NA,NA,NA,NA,NA,NA,NA,NA
fc08c,"""Falsch""-Screen",canvas.Screen,3_0_1_0_0_1_2,NA,NA,skipped,NA,578000.19999993,NA,NA,577993.785,578000.5999999,2023-04-12T16:22:42Z,578009.97,NULL,Kontrolle,kudhibiti,s,mbinguni,kufunga,utegemezi,NA,sdfdsf,NA,1,NA,NA,NA,NA,NA,NA,NA,NA,NA,NA,NA,NA,NA,NA,NA,NA,NA,NA,NA
fc08c,shallow,flow.Sequence,3_0_1_0_0_1,NA,NA,completion,12270.958,565722,565630.265,565722.827,577993.785,578001,2023-04-12T16:22:42Z,578009.97,NULL,Kontrolle,kudhibiti,s,mbinguni,kufunga,utegemezi,NA,sdfdsf,NA,1,NA,NA,NA,NA,NA,NA,NA,NA,NA,NA,NA,NA,NA,NA,NA,NA,NA,NA,NA
fc08c,task,flow.Sequence,3_0_1_0_0,NA,NA,completion,12270.958,565721.5,565630.265,565722.827,577993.785,578001.29999995,2023-04-12T16:22:42Z,578009.97,NULL,Kontrolle,kudhibiti,s,mbinguni,kufunga,utegemezi,NA,sdfdsf,NA,1,NA,NA,NA,NA,NA,NA,NA,NA,NA,NA,NA,NA,NA,NA,NA,NA,NA,NA,NA
fc08c,deep,flow.Sequence,3_0_1_0_1_0,NA,NA,skipped,NA,578001.5,NA,NA,577993.785,578001.5999999,2023-04-12T16:22:42Z,578009.97,NULL,Betrüger,mdanganyifu,s,mwanamuziki,wastani,mahakama,NA,sdfdsf,NA,1,NA,NA,NA,NA,NA,NA,NA,NA,NA,NA,NA,NA,NA,NA,NA,NA,NA,NA,NA
fc08c,Shallow Question,html.Page,3_0_1_0_1_1_0,NA,NA,form submission,13463.629999905,578001.79999995,577993.785,578009.97,591473.5999999,591474.0999999,2023-04-12T16:22:55Z,591491.33,NULL,Betrüger,mdanganyifu,s,mwanamuziki,wastani,mahakama,mahakama,NA,NA,1,NA,NA,NA,NA,NA,NA,NA,NA,NA,NA,NA,NA,NA,NA,NA,NA,NA,NA,NA
fc08c,"""Richtig""-Screen",canvas.Screen,3_0_1_0_1_1_1,NA,NA,skipped,NA,591479.5,NA,NA,591473.5999999,591479.89999998,2023-04-12T16:22:55Z,591491.33,NULL,Betrüger,mdanganyifu,s,mwanamuziki,wastani,mahakama,NA,sdfdsf,NA,1,NA,NA,NA,NA,NA,NA,NA,NA,NA,NA,NA,NA,NA,NA,NA,NA,NA,NA,NA
fc08c,"""Falsch""-Screen",canvas.Screen,3_0_1_0_1_1_2,NA,NA,timeout,5007.664,591481.5,591466.721,591491.33,596482.776,596483.79999995,2023-04-12T16:23:00Z,596498.994,NULL,Betrüger,mdanganyifu,s,mwanamuziki,wastani,mahakama,NA,sdfdsf,0,1,NA,NA,NA,NA,NA,NA,NA,NA,NA,NA,NA,NA,NA,NA,NA,NA,NA,NA,NA
fc08c,shallow,flow.Sequence,3_0_1_0_1_1,NA,NA,completion,18472.806,578001.79999995,577993.785,578009.97,596482.776,596484.29999995,2023-04-12T16:23:00Z,596498.994,NULL,Betrüger,mdanganyifu,s,mwanamuziki,wastani,mahakama,NA,sdfdsf,NA,1,NA,NA,NA,NA,NA,NA,NA,NA,NA,NA,NA,NA,NA,NA,NA,NA,NA,NA,NA
fc08c,task,flow.Sequence,3_0_1_0_1,NA,NA,completion,18472.806,578001.5,577993.785,578009.97,596482.776,596484.5999999,2023-04-12T16:23:00Z,596498.994,NULL,Betrüger,mdanganyifu,s,mwanamuziki,wastani,mahakama,NA,sdfdsf,NA,1,NA,NA,NA,NA,NA,NA,NA,NA,NA,NA,NA,NA,NA,NA,NA,NA,NA,NA,NA
fc08c,deep,flow.Sequence,3_0_1_0_2_0,NA,NA,skipped,NA,596484.89999998,NA,NA,596482.776,596485.0999999,2023-04-12T16:23:00Z,596498.994,NULL,Gefährdung,kuhatarisha,s,uchokozi,udhaifu,makorowezo,NA,sdfdsf,NA,1,NA,NA,NA,NA,NA,NA,NA,NA,NA,NA,NA,NA,NA,NA,NA,NA,NA,NA,NA
fc08c,Shallow Question,html.Page,3_0_1_0_2_1_0,NA,NA,form submission,5979.5060000001,596485.29999995,596482.776,596498.994,602478.5,602479,2023-04-12T16:23:06Z,602491.726,NULL,Gefährdung,kuhatarisha,s,uchokozi,udhaifu,makorowezo,kuhatarisha,NA,NA,1,NA,NA,NA,NA,NA,NA,NA,NA,NA,NA,NA,NA,NA,NA,NA,NA,NA,NA,NA
fc08c,"""Richtig""-Screen",canvas.Screen,3_0_1_0_2_1_1,NA,NA,timeout,4995.2899999999,602484.5999999,602471.288,602491.726,607470.396,607476.79999995,2023-04-12T16:23:11Z,607487.016,NULL,Gefährdung,kuhatarisha,s,uchokozi,udhaifu,makorowezo,NA,sdfdsf,1,1,NA,NA,NA,NA,NA,NA,NA,NA,NA,NA,NA,NA,NA,NA,NA,NA,NA,NA,NA
fc08c,"""Falsch""-Screen",canvas.Screen,3_0_1_0_2_1_2,NA,NA,skipped,NA,607484.69999993,NA,NA,607470.396,607485.0999999,2023-04-12T16:23:11Z,607487.016,NULL,Gefährdung,kuhatarisha,s,uchokozi,udhaifu,makorowezo,NA,sdfdsf,NA,1,NA,NA,NA,NA,NA,NA,NA,NA,NA,NA,NA,NA,NA,NA,NA,NA,NA,NA,NA
fc08c,shallow,flow.Sequence,3_0_1_0_2_1,NA,NA,completion,10971.402,596485.19999993,596482.776,596498.994,607470.396,607485.5999999,2023-04-12T16:23:11Z,607487.016,NULL,Gefährdung,kuhatarisha,s,uchokozi,udhaifu,makorowezo,NA,sdfdsf,NA,1,NA,NA,NA,NA,NA,NA,NA,NA,NA,NA,NA,NA,NA,NA,NA,NA,NA,NA,NA
fc08c,task,flow.Sequence,3_0_1_0_2,NA,NA,completion,10971.402,596484.69999993,596482.776,596498.994,607470.396,607485.89999998,2023-04-12T16:23:11Z,607487.016,NULL,Gefährdung,kuhatarisha,s,uchokozi,udhaifu,makorowezo,NA,sdfdsf,NA,1,NA,NA,NA,NA,NA,NA,NA,NA,NA,NA,NA,NA,NA,NA,NA,NA,NA,NA,NA
fc08c,Deep Question,html.Page,3_0_1_0_3_0_0,NA,NA,form submission,12343.083999905,607486.19999993,607470.396,607487.016,619830.0999999,619830.39999998,2023-04-12T16:23:24Z,619846.289,NULL,Können,unaweza,d,NA,NA,NA,kuhatiti,NA,NA,1,NA,NA,NA,NA,NA,NA,NA,NA,NA,NA,NA,NA,NA,NA,NA,NA,NA,NA,NA
fc08c,"""Richtig""-Screen",canvas.Screen,3_0_1_0_3_0_1,NA,NA,skipped,NA,619832.29999995,NA,NA,619830.0999999,619832.5999999,2023-04-12T16:23:24Z,619846.289,NULL,Können,unaweza,d,NA,NA,NA,NA,sdfdsf,NA,1,NA,NA,NA,NA,NA,NA,NA,NA,NA,NA,NA,NA,NA,NA,NA,NA,NA,NA,NA
fc08c,"""Falsch""-Screen",canvas.Screen,3_0_1_0_3_0_2,NA,NA,timeout,5007.148,619833.0999999,619825.423,619846.289,624837.25,624838.5999999,2023-04-12T16:23:29Z,624853.437,NULL,Können,unaweza,d,NA,NA,NA,NA,sdfdsf,0,1,NA,NA,NA,NA,NA,NA,NA,NA,NA,NA,NA,NA,NA,NA,NA,NA,NA,NA,NA
fc08c,deep,flow.Sequence,3_0_1_0_3_0,NA,NA,completion,17350.234,607486.19999993,607470.396,607487.016,624837.25,624838.89999998,2023-04-12T16:23:29Z,624853.437,NULL,Können,unaweza,d,NA,NA,NA,NA,sdfdsf,NA,1,NA,NA,NA,NA,NA,NA,NA,NA,NA,NA,NA,NA,NA,NA,NA,NA,NA,NA,NA
fc08c,shallow,flow.Sequence,3_0_1_0_3_1,NA,NA,skipped,NA,624839.19999993,NA,NA,624837.25,624839.39999998,2023-04-12T16:23:29Z,624853.437,NULL,Können,unaweza,d,NA,NA,NA,NA,sdfdsf,NA,1,NA,NA,NA,NA,NA,NA,NA,NA,NA,NA,NA,NA,NA,NA,NA,NA,NA,NA,NA
fc08c,task,flow.Sequence,3_0_1_0_3,NA,NA,completion,17350.234,607486.0999999,607470.396,607487.016,624837.25,624839.5999999,2023-04-12T16:23:29Z,624853.437,NULL,Können,unaweza,d,NA,NA,NA,NA,sdfdsf,NA,1,NA,NA,NA,NA,NA,NA,NA,NA,NA,NA,NA,NA,NA,NA,NA,NA,NA,NA,NA
fc08c,Deep Question,html.Page,3_0_1_0_4_0_0,NA,NA,form submission,3800.4629999761,624839.79999995,624837.25,624853.437,628653.89999998,628654,2023-04-12T16:23:32Z,628655.956,NULL,Orientierung,urekebisho,d,NA,NA,NA,u,NA,NA,1,NA,NA,NA,NA,NA,NA,NA,NA,NA,NA,NA,NA,NA,NA,NA,NA,NA,NA,NA
fc08c,"""Richtig""-Screen",canvas.Screen,3_0_1_0_4_0_1,NA,NA,skipped,NA,628656.69999993,NA,NA,628653.89999998,628656.69999993,2023-04-12T16:23:32Z,628655.956,NULL,Orientierung,urekebisho,d,NA,NA,NA,NA,sdfdsf,NA,1,NA,NA,NA,NA,NA,NA,NA,NA,NA,NA,NA,NA,NA,NA,NA,NA,NA,NA,NA
fc08c,"""Falsch""-Screen",canvas.Screen,3_0_1_0_4_0_2,NA,NA,timeout,4991.423,628657.39999998,628652.218,628655.956,633631.204,633632.29999995,2023-04-12T16:23:37Z,633647.379,NULL,Orientierung,urekebisho,d,NA,NA,NA,NA,sdfdsf,0,1,NA,NA,NA,NA,NA,NA,NA,NA,NA,NA,NA,NA,NA,NA,NA,NA,NA,NA,NA
fc08c,deep,flow.Sequence,3_0_1_0_4_0,NA,NA,completion,8777.767,624839.79999995,624837.25,624853.437,633631.204,633632.69999993,2023-04-12T16:23:37Z,633647.379,NULL,Orientierung,urekebisho,d,NA,NA,NA,NA,sdfdsf,NA,1,NA,NA,NA,NA,NA,NA,NA,NA,NA,NA,NA,NA,NA,NA,NA,NA,NA,NA,NA
fc08c,shallow,flow.Sequence,3_0_1_0_4_1,NA,NA,skipped,NA,633632.89999998,NA,NA,633631.204,633633.0999999,2023-04-12T16:23:37Z,633647.379,NULL,Orientierung,urekebisho,d,NA,NA,NA,NA,sdfdsf,NA,1,NA,NA,NA,NA,NA,NA,NA,NA,NA,NA,NA,NA,NA,NA,NA,NA,NA,NA,NA
fc08c,task,flow.Sequence,3_0_1_0_4,NA,NA,completion,8777.767,624839.69999993,624837.25,624853.437,633631.204,633633.29999995,2023-04-12T16:23:37Z,633647.379,NULL,Orientierung,urekebisho,d,NA,NA,NA,NA,sdfdsf,NA,1,NA,NA,NA,NA,NA,NA,NA,NA,NA,NA,NA,NA,NA,NA,NA,NA,NA,NA,NA
fc08c,Deep Question,html.Page,3_0_1_0_5_0_0,NA,NA,form submission,5054.4209999524,633633.5,633631.204,633647.379,638701.79999995,638702,2023-04-12T16:23:42Z,638704.769,NULL,Kreativität,ubunifu,d,NA,NA,NA,k,NA,NA,1,NA,NA,NA,NA,NA,NA,NA,NA,NA,NA,NA,NA,NA,NA,NA,NA,NA,NA,NA
fc08c,"""Richtig""-Screen",canvas.Screen,3_0_1_0_5_0_1,NA,NA,skipped,NA,638704.5999999,NA,NA,638701.79999995,638704.89999998,2023-04-12T16:23:42Z,638704.769,NULL,Kreativität,ubunifu,d,NA,NA,NA,NA,sdfdsf,NA,1,NA,NA,NA,NA,NA,NA,NA,NA,NA,NA,NA,NA,NA,NA,NA,NA,NA,NA,NA
fc08c,"""Falsch""-Screen",canvas.Screen,3_0_1_0_5_0_2,NA,NA,timeout,4995.7050000001,638706.0999999,638697.011,638704.769,643683.822,643688.39999998,2023-04-12T16:23:47Z,643700.474,NULL,Kreativität,ubunifu,d,NA,NA,NA,NA,sdfdsf,0,1,NA,NA,NA,NA,NA,NA,NA,NA,NA,NA,NA,NA,NA,NA,NA,NA,NA,NA,NA
fc08c,deep,flow.Sequence,3_0_1_0_5_0,NA,NA,completion,10036.443,633633.5,633631.204,633647.379,643683.822,643688.89999998,2023-04-12T16:23:47Z,643700.474,NULL,Kreativität,ubunifu,d,NA,NA,NA,NA,sdfdsf,NA,1,NA,NA,NA,NA,NA,NA,NA,NA,NA,NA,NA,NA,NA,NA,NA,NA,NA,NA,NA
fc08c,shallow,flow.Sequence,3_0_1_0_5_1,NA,NA,skipped,NA,643689,NA,NA,643683.822,643689.19999993,2023-04-12T16:23:47Z,643700.474,NULL,Kreativität,ubunifu,d,NA,NA,NA,NA,sdfdsf,NA,1,NA,NA,NA,NA,NA,NA,NA,NA,NA,NA,NA,NA,NA,NA,NA,NA,NA,NA,NA
fc08c,task,flow.Sequence,3_0_1_0_5,NA,NA,completion,10036.443,633633.5,633631.204,633647.379,643683.822,643689.5,2023-04-12T16:23:47Z,643700.474,NULL,Kreativität,ubunifu,d,NA,NA,NA,NA,sdfdsf,NA,1,NA,NA,NA,NA,NA,NA,NA,NA,NA,NA,NA,NA,NA,NA,NA,NA,NA,NA,NA
fc08c,Deep Question,html.Page,3_0_1_0_6_0_0,NA,NA,form submission,2435.8259999523,643689.69999993,643683.822,643700.474,646136.29999995,646136.39999998,2023-04-12T16:23:50Z,646149.959,NULL,Respekt,heshima,d,NA,NA,NA,u,NA,NA,1,NA,NA,NA,NA,NA,NA,NA,NA,NA,NA,NA,NA,NA,NA,NA,NA,NA,NA,NA
fc08c,"""Richtig""-Screen",canvas.Screen,3_0_1_0_6_0_1,NA,NA,skipped,NA,646138.5,NA,NA,646136.29999995,646138.5999999,2023-04-12T16:23:50Z,646149.959,NULL,Respekt,heshima,d,NA,NA,NA,NA,sdfdsf,NA,1,NA,NA,NA,NA,NA,NA,NA,NA,NA,NA,NA,NA,NA,NA,NA,NA,NA,NA,NA
fc08c,"""Falsch""-Screen",canvas.Screen,3_0_1_0_6_0_2,NA,NA,timeout,4995.676,646139.19999993,646121.148,646149.959,651129.511,651130.5999999,2023-04-12T16:23:55Z,651145.635,NULL,Respekt,heshima,d,NA,NA,NA,NA,sdfdsf,0,1,NA,NA,NA,NA,NA,NA,NA,NA,NA,NA,NA,NA,NA,NA,NA,NA,NA,NA,NA
fc08c,deep,flow.Sequence,3_0_1_0_6_0,NA,NA,completion,7429.037,643689.5999999,643683.822,643700.474,651129.511,651131.0999999,2023-04-12T16:23:55Z,651145.635,NULL,Respekt,heshima,d,NA,NA,NA,NA,sdfdsf,NA,1,NA,NA,NA,NA,NA,NA,NA,NA,NA,NA,NA,NA,NA,NA,NA,NA,NA,NA,NA
fc08c,shallow,flow.Sequence,3_0_1_0_6_1,NA,NA,skipped,NA,651131.19999993,NA,NA,651129.511,651131.39999998,2023-04-12T16:23:55Z,651145.635,NULL,Respekt,heshima,d,NA,NA,NA,NA,sdfdsf,NA,1,NA,NA,NA,NA,NA,NA,NA,NA,NA,NA,NA,NA,NA,NA,NA,NA,NA,NA,NA
fc08c,task,flow.Sequence,3_0_1_0_6,NA,NA,completion,7429.037,643689.5999999,643683.822,643700.474,651129.511,651131.69999993,2023-04-12T16:23:55Z,651145.635,NULL,Respekt,heshima,d,NA,NA,NA,NA,sdfdsf,NA,1,NA,NA,NA,NA,NA,NA,NA,NA,NA,NA,NA,NA,NA,NA,NA,NA,NA,NA,NA
fc08c,deep,flow.Sequence,3_0_1_0_7_0,NA,NA,skipped,NA,651131.89999998,NA,NA,651129.511,651132.0999999,2023-04-12T16:23:55Z,651145.635,NULL,Stimmung,kinyongo,s,kilekile,kisambo,madhehebu,NA,sdfdsf,NA,1,NA,NA,NA,NA,NA,NA,NA,NA,NA,NA,NA,NA,NA,NA,NA,NA,NA,NA,NA
fc08c,Shallow Question,html.Page,3_0_1_0_7_1_0,NA,NA,form submission,7188.865,651132.19999993,651129.511,651145.635,658334.5,658334.89999998,2023-04-12T16:24:02Z,658337.703,NULL,Stimmung,kinyongo,s,kilekile,kisambo,madhehebu,madhehebu,NA,NA,1,NA,NA,NA,NA,NA,NA,NA,NA,NA,NA,NA,NA,NA,NA,NA,NA,NA,NA,NA
fc08c,"""Richtig""-Screen",canvas.Screen,3_0_1_0_7_1_1,NA,NA,skipped,NA,658340.79999995,NA,NA,658334.5,658341.19999993,2023-04-12T16:24:02Z,658337.703,NULL,Stimmung,kinyongo,s,kilekile,kisambo,madhehebu,NA,sdfdsf,NA,1,NA,NA,NA,NA,NA,NA,NA,NA,NA,NA,NA,NA,NA,NA,NA,NA,NA,NA,NA
fc08c,"""Falsch""-Screen",canvas.Screen,3_0_1_0_7_1_2,NA,NA,timeout,4999.51,658342.79999995,658317.431,658337.703,663321.098,663322.29999995,2023-04-12T16:24:07Z,663337.213,NULL,Stimmung,kinyongo,s,kilekile,kisambo,madhehebu,NA,sdfdsf,0,1,NA,NA,NA,NA,NA,NA,NA,NA,NA,NA,NA,NA,NA,NA,NA,NA,NA,NA,NA
fc08c,shallow,flow.Sequence,3_0_1_0_7_1,NA,NA,completion,12175.463,651132.19999993,651129.511,651145.635,663321.098,663322.69999993,2023-04-12T16:24:07Z,663337.213,NULL,Stimmung,kinyongo,s,kilekile,kisambo,madhehebu,NA,sdfdsf,NA,1,NA,NA,NA,NA,NA,NA,NA,NA,NA,NA,NA,NA,NA,NA,NA,NA,NA,NA,NA
fc08c,task,flow.Sequence,3_0_1_0_7,NA,NA,completion,12175.463,651131.79999995,651129.511,651145.635,663321.098,663322.89999998,2023-04-12T16:24:07Z,663337.213,NULL,Stimmung,kinyongo,s,kilekile,kisambo,madhehebu,NA,sdfdsf,NA,1,NA,NA,NA,NA,NA,NA,NA,NA,NA,NA,NA,NA,NA,NA,NA,NA,NA,NA,NA
fc08c,block,flow.Loop,3_0_1_0,NA,NA,completion,97598.271,565721.5,565630.265,565722.827,663321.098,663323.19999993,2023-04-12T16:24:07Z,663337.213,NULL,NA,NA,NA,NA,NA,NA,NA,sdfdsf,NA,1,NA,NA,NA,NA,NA,NA,NA,NA,NA,NA,NA,NA,NA,NA,NA,NA,NA,NA,NA
fc08c,weiter,canvas.Screen,3_0_1_1,sdf,keypress(Space),response,788.28700000001,663323.39999998,663321.098,663337.213,664125.5,664127.0999999,2023-04-12T16:24:08Z,664224.567,NULL,NA,NA,NA,NA,NA,NA,NA,sdfdsf,NA,1,NA,NA,NA,NA,NA,NA,NA,NA,NA,NA,NA,NA,NA,NA,NA,NA,NA,NA,NA
fc08c,check continue,flow.Sequence,3_0_1,NA,NA,completion,98402.673,565721.39999998,565630.265,565722.827,664125.5,664127.5,2023-04-12T16:24:08Z,664224.567,NULL,NA,NA,NA,NA,NA,NA,NA,sdfdsf,NA,1,NA,NA,NA,NA,NA,NA,NA,NA,NA,NA,NA,NA,NA,NA,NA,NA,NA,NA,NA
fc08c,Deep Question,html.Page,3_0_2_0_0_0_0,NA,NA,form submission,5180.3329999761,664223.19999993,664120.392,664224.567,669404.89999998,669405,2023-04-12T16:24:13Z,669410.087,NULL,Kreativität,ubunifu,d,NA,NA,NA,uhubishu,NA,NA,2,NA,NA,NA,NA,NA,NA,NA,NA,NA,NA,NA,NA,NA,NA,NA,NA,NA,NA,NA
fc08c,"""Richtig""-Screen",canvas.Screen,3_0_2_0_0_0_1,NA,NA,skipped,NA,669406.79999995,NA,NA,669404.89999998,669406.89999998,2023-04-12T16:24:13Z,669410.087,NULL,Kreativität,ubunifu,d,NA,NA,NA,NA,sdf,NA,2,NA,NA,NA,NA,NA,NA,NA,NA,NA,NA,NA,NA,NA,NA,NA,NA,NA,NA,NA
fc08c,"""Falsch""-Screen",canvas.Screen,3_0_2_0_0_0_2,NA,NA,timeout,5008.0739999999,669407.5,669402.171,669410.087,674401.517,674402.69999993,2023-04-12T16:24:18Z,674418.161,NULL,Kreativität,ubunifu,d,NA,NA,NA,NA,sdf,0,2,NA,NA,NA,NA,NA,NA,NA,NA,NA,NA,NA,NA,NA,NA,NA,NA,NA,NA,NA
fc08c,deep,flow.Sequence,3_0_2_0_0_0,NA,NA,completion,10176.95,664223.19999993,664120.392,664224.567,674401.517,674403.19999993,2023-04-12T16:24:18Z,674418.161,NULL,Kreativität,ubunifu,d,NA,NA,NA,NA,sdf,NA,2,NA,NA,NA,NA,NA,NA,NA,NA,NA,NA,NA,NA,NA,NA,NA,NA,NA,NA,NA
fc08c,shallow,flow.Sequence,3_0_2_0_0_1,NA,NA,skipped,NA,674403.29999995,NA,NA,674401.517,674403.39999998,2023-04-12T16:24:18Z,674418.161,NULL,Kreativität,ubunifu,d,NA,NA,NA,NA,sdf,NA,2,NA,NA,NA,NA,NA,NA,NA,NA,NA,NA,NA,NA,NA,NA,NA,NA,NA,NA,NA
fc08c,task,flow.Sequence,3_0_2_0_0,NA,NA,completion,10176.95,664223.19999993,664120.392,664224.567,674401.517,674403.69999993,2023-04-12T16:24:18Z,674418.161,NULL,Kreativität,ubunifu,d,NA,NA,NA,NA,sdf,NA,2,NA,NA,NA,NA,NA,NA,NA,NA,NA,NA,NA,NA,NA,NA,NA,NA,NA,NA,NA
fc08c,Deep Question,html.Page,3_0_2_0_1_0_0,NA,NA,form submission,3501.339,674404.0999999,674401.517,674418.161,677919.5,677919.5999999,2023-04-12T16:24:22Z,677933.194,NULL,Respekt,heshima,d,NA,NA,NA,k,NA,NA,2,NA,NA,NA,NA,NA,NA,NA,NA,NA,NA,NA,NA,NA,NA,NA,NA,NA,NA,NA
fc08c,"""Richtig""-Screen",canvas.Screen,3_0_2_0_1_0_1,NA,NA,skipped,NA,677921.5999999,NA,NA,677919.5,677921.69999993,2023-04-12T16:24:22Z,677933.194,NULL,Respekt,heshima,d,NA,NA,NA,NA,sdf,NA,2,NA,NA,NA,NA,NA,NA,NA,NA,NA,NA,NA,NA,NA,NA,NA,NA,NA,NA,NA
fc08c,"""Falsch""-Screen",canvas.Screen,3_0_2_0_1_0_2,NA,NA,timeout,4995.7879999999,677922.19999993,677904.318,677933.194,682912.558,682913.5999999,2023-04-12T16:24:27Z,682928.982,NULL,Respekt,heshima,d,NA,NA,NA,NA,sdf,0,2,NA,NA,NA,NA,NA,NA,NA,NA,NA,NA,NA,NA,NA,NA,NA,NA,NA,NA,NA
fc08c,deep,flow.Sequence,3_0_2_0_1_0,NA,NA,completion,8494.397,674404,674401.517,674418.161,682912.558,682914,2023-04-12T16:24:27Z,682928.982,NULL,Respekt,heshima,d,NA,NA,NA,NA,sdf,NA,2,NA,NA,NA,NA,NA,NA,NA,NA,NA,NA,NA,NA,NA,NA,NA,NA,NA,NA,NA
fc08c,shallow,flow.Sequence,3_0_2_0_1_1,NA,NA,skipped,NA,682914.19999993,NA,NA,682912.558,682914.39999998,2023-04-12T16:24:27Z,682928.982,NULL,Respekt,heshima,d,NA,NA,NA,NA,sdf,NA,2,NA,NA,NA,NA,NA,NA,NA,NA,NA,NA,NA,NA,NA,NA,NA,NA,NA,NA,NA
fc08c,task,flow.Sequence,3_0_2_0_1,NA,NA,completion,8494.397,674403.89999998,674401.517,674418.161,682912.558,682914.5,2023-04-12T16:24:27Z,682928.982,NULL,Respekt,heshima,d,NA,NA,NA,NA,sdf,NA,2,NA,NA,NA,NA,NA,NA,NA,NA,NA,NA,NA,NA,NA,NA,NA,NA,NA,NA,NA
fc08c,deep,flow.Sequence,3_0_2_0_2_0,NA,NA,skipped,NA,682914.79999995,NA,NA,682912.558,682914.89999998,2023-04-12T16:24:27Z,682928.982,NULL,Stimmung,kinyongo,s,kilekile,kisambo,madhehebu,NA,sdf,NA,2,NA,NA,NA,NA,NA,NA,NA,NA,NA,NA,NA,NA,NA,NA,NA,NA,NA,NA,NA
fc08c,Shallow Question,html.Page,3_0_2_0_2_1_0,NA,NA,form submission,6249.8179999524,682915,682912.558,682928.982,689178.79999995,689179.29999995,2023-04-12T16:24:33Z,689180.461,NULL,Stimmung,kinyongo,s,kilekile,kisambo,madhehebu,kinyongo,NA,NA,2,NA,NA,NA,NA,NA,NA,NA,NA,NA,NA,NA,NA,NA,NA,NA,NA,NA,NA,NA
fc08c,"""Richtig""-Screen",canvas.Screen,3_0_2_0_2_1_1,NA,NA,timeout,4999.243,689185.29999995,689176.712,689180.461,694163.715,694165,2023-04-12T16:24:38Z,694179.704,NULL,Stimmung,kinyongo,s,kilekile,kisambo,madhehebu,NA,sdf,1,2,NA,NA,NA,NA,NA,NA,NA,NA,NA,NA,NA,NA,NA,NA,NA,NA,NA,NA,NA
fc08c,"""Falsch""-Screen",canvas.Screen,3_0_2_0_2_1_2,NA,NA,skipped,NA,694170.79999995,NA,NA,694163.715,694171,2023-04-12T16:24:38Z,694179.704,NULL,Stimmung,kinyongo,s,kilekile,kisambo,madhehebu,NA,sdf,NA,2,NA,NA,NA,NA,NA,NA,NA,NA,NA,NA,NA,NA,NA,NA,NA,NA,NA,NA,NA
fc08c,shallow,flow.Sequence,3_0_2_0_2_1,NA,NA,completion,11234.733,682915,682912.558,682928.982,694163.715,694171.39999998,2023-04-12T16:24:38Z,694179.704,NULL,Stimmung,kinyongo,s,kilekile,kisambo,madhehebu,NA,sdf,NA,2,NA,NA,NA,NA,NA,NA,NA,NA,NA,NA,NA,NA,NA,NA,NA,NA,NA,NA,NA
fc08c,task,flow.Sequence,3_0_2_0_2,NA,NA,completion,11234.733,682914.69999993,682912.558,682928.982,694163.715,694171.69999993,2023-04-12T16:24:38Z,694179.704,NULL,Stimmung,kinyongo,s,kilekile,kisambo,madhehebu,NA,sdf,NA,2,NA,NA,NA,NA,NA,NA,NA,NA,NA,NA,NA,NA,NA,NA,NA,NA,NA,NA,NA
fc08c,deep,flow.Sequence,3_0_2_0_3_0,NA,NA,skipped,NA,694171.89999998,NA,NA,694163.715,694172.0999999,2023-04-12T16:24:38Z,694179.704,NULL,Gefährdung,kuhatarisha,s,uchokozi,udhaifu,makorowezo,NA,sdf,NA,2,NA,NA,NA,NA,NA,NA,NA,NA,NA,NA,NA,NA,NA,NA,NA,NA,NA,NA,NA
fc08c,Shallow Question,html.Page,3_0_2_0_3_1_0,NA,NA,form submission,4352.5959999523,694172.19999993,694163.715,694179.704,698532.29999995,698532.79999995,2023-04-12T16:24:42Z,698543.854,NULL,Gefährdung,kuhatarisha,s,uchokozi,udhaifu,makorowezo,kuhatarisha,NA,NA,2,NA,NA,NA,NA,NA,NA,NA,NA,NA,NA,NA,NA,NA,NA,NA,NA,NA,NA,NA
fc08c,"""Richtig""-Screen",canvas.Screen,3_0_2_0_3_1_1,NA,NA,timeout,5002.7339999999,698537.89999998,698519.308,698543.854,703530.607,703531.69999993,2023-04-12T16:24:47Z,703546.588,NULL,Gefährdung,kuhatarisha,s,uchokozi,udhaifu,makorowezo,NA,sdf,1,2,NA,NA,NA,NA,NA,NA,NA,NA,NA,NA,NA,NA,NA,NA,NA,NA,NA,NA,NA
fc08c,"""Falsch""-Screen",canvas.Screen,3_0_2_0_3_1_2,NA,NA,skipped,NA,703537.19999993,NA,NA,703530.607,703537.5,2023-04-12T16:24:47Z,703546.588,NULL,Gefährdung,kuhatarisha,s,uchokozi,udhaifu,makorowezo,NA,sdf,NA,2,NA,NA,NA,NA,NA,NA,NA,NA,NA,NA,NA,NA,NA,NA,NA,NA,NA,NA,NA
fc08c,shallow,flow.Sequence,3_0_2_0_3_1,NA,NA,completion,9350.9029999999,694172.0999999,694163.715,694179.704,703530.607,703538,2023-04-12T16:24:47Z,703546.588,NULL,Gefährdung,kuhatarisha,s,uchokozi,udhaifu,makorowezo,NA,sdf,NA,2,NA,NA,NA,NA,NA,NA,NA,NA,NA,NA,NA,NA,NA,NA,NA,NA,NA,NA,NA
fc08c,task,flow.Sequence,3_0_2_0_3,NA,NA,completion,9350.9029999999,694171.79999995,694163.715,694179.704,703530.607,703538.19999993,2023-04-12T16:24:47Z,703546.588,NULL,Gefährdung,kuhatarisha,s,uchokozi,udhaifu,makorowezo,NA,sdf,NA,2,NA,NA,NA,NA,NA,NA,NA,NA,NA,NA,NA,NA,NA,NA,NA,NA,NA,NA,NA
fc08c,deep,flow.Sequence,3_0_2_0_4_0,NA,NA,skipped,NA,703538.39999998,NA,NA,703530.607,703538.5,2023-04-12T16:24:47Z,703546.588,NULL,Betrüger,mdanganyifu,s,mwanamuziki,wastani,mahakama,NA,sdf,NA,2,NA,NA,NA,NA,NA,NA,NA,NA,NA,NA,NA,NA,NA,NA,NA,NA,NA,NA,NA
fc08c,Shallow Question,html.Page,3_0_2_0_4_1_0,NA,NA,form submission,10677.611999928,703538.79999995,703530.607,703546.588,714224.19999993,714224.79999995,2023-04-12T16:24:58Z,714229.239,NULL,Betrüger,mdanganyifu,s,mwanamuziki,wastani,mahakama,mdanganyifu,NA,NA,2,NA,NA,NA,NA,NA,NA,NA,NA,NA,NA,NA,NA,NA,NA,NA,NA,NA,NA,NA
fc08c,"""Richtig""-Screen",canvas.Screen,3_0_2_0_4_1_1,NA,NA,timeout,4998.1360000001,714232.5,714208.85,714229.239,719211.254,719212.39999998,2023-04-12T16:25:03Z,719227.375,NULL,Betrüger,mdanganyifu,s,mwanamuziki,wastani,mahakama,NA,sdf,1,2,NA,NA,NA,NA,NA,NA,NA,NA,NA,NA,NA,NA,NA,NA,NA,NA,NA,NA,NA
fc08c,"""Falsch""-Screen",canvas.Screen,3_0_2_0_4_1_2,NA,NA,skipped,NA,719218.0999999,NA,NA,719211.254,719218.39999998,2023-04-12T16:25:03Z,719227.375,NULL,Betrüger,mdanganyifu,s,mwanamuziki,wastani,mahakama,NA,sdf,NA,2,NA,NA,NA,NA,NA,NA,NA,NA,NA,NA,NA,NA,NA,NA,NA,NA,NA,NA,NA
fc08c,shallow,flow.Sequence,3_0_2_0_4_1,NA,NA,completion,15664.666,703538.69999993,703530.607,703546.588,719211.254,719219,2023-04-12T16:25:03Z,719227.375,NULL,Betrüger,mdanganyifu,s,mwanamuziki,wastani,mahakama,NA,sdf,NA,2,NA,NA,NA,NA,NA,NA,NA,NA,NA,NA,NA,NA,NA,NA,NA,NA,NA,NA,NA
fc08c,task,flow.Sequence,3_0_2_0_4,NA,NA,completion,15664.666,703538.29999995,703530.607,703546.588,719211.254,719219.19999993,2023-04-12T16:25:03Z,719227.375,NULL,Betrüger,mdanganyifu,s,mwanamuziki,wastani,mahakama,NA,sdf,NA,2,NA,NA,NA,NA,NA,NA,NA,NA,NA,NA,NA,NA,NA,NA,NA,NA,NA,NA,NA
fc08c,Deep Question,html.Page,3_0_2_0_5_0_0,NA,NA,form submission,10893.724999905,719219.5,719211.254,719227.375,730121.0999999,730121.5999999,2023-04-12T16:25:14Z,730123.188,NULL,Können,unaweza,d,NA,NA,NA,kuhu,NA,NA,2,NA,NA,NA,NA,NA,NA,NA,NA,NA,NA,NA,NA,NA,NA,NA,NA,NA,NA,NA
fc08c,"""Richtig""-Screen",canvas.Screen,3_0_2_0_5_0_1,NA,NA,skipped,NA,730128.29999995,NA,NA,730121.0999999,730128.79999995,2023-04-12T16:25:14Z,730123.188,NULL,Können,unaweza,d,NA,NA,NA,NA,sdf,NA,2,NA,NA,NA,NA,NA,NA,NA,NA,NA,NA,NA,NA,NA,NA,NA,NA,NA,NA,NA
fc08c,"""Falsch""-Screen",canvas.Screen,3_0_2_0_5_0_2,NA,NA,timeout,5003.817,730130.69999993,730119.444,730123.188,735110.99,735112.19999993,2023-04-12T16:25:19Z,735127.005,NULL,Können,unaweza,d,NA,NA,NA,NA,sdf,0,2,NA,NA,NA,NA,NA,NA,NA,NA,NA,NA,NA,NA,NA,NA,NA,NA,NA,NA,NA
fc08c,deep,flow.Sequence,3_0_2_0_5_0,NA,NA,completion,15883.615,719219.5,719211.254,719227.375,735110.99,735112.5999999,2023-04-12T16:25:19Z,735127.005,NULL,Können,unaweza,d,NA,NA,NA,NA,sdf,NA,2,NA,NA,NA,NA,NA,NA,NA,NA,NA,NA,NA,NA,NA,NA,NA,NA,NA,NA,NA
fc08c,shallow,flow.Sequence,3_0_2_0_5_1,NA,NA,skipped,NA,735112.79999995,NA,NA,735110.99,735112.89999998,2023-04-12T16:25:19Z,735127.005,NULL,Können,unaweza,d,NA,NA,NA,NA,sdf,NA,2,NA,NA,NA,NA,NA,NA,NA,NA,NA,NA,NA,NA,NA,NA,NA,NA,NA,NA,NA
fc08c,task,flow.Sequence,3_0_2_0_5,NA,NA,completion,15883.615,719219.39999998,719211.254,719227.375,735110.99,735113.19999993,2023-04-12T16:25:19Z,735127.005,NULL,Können,unaweza,d,NA,NA,NA,NA,sdf,NA,2,NA,NA,NA,NA,NA,NA,NA,NA,NA,NA,NA,NA,NA,NA,NA,NA,NA,NA,NA
fc08c,deep,flow.Sequence,3_0_2_0_6_0,NA,NA,skipped,NA,735113.29999995,NA,NA,735110.99,735113.39999998,2023-04-12T16:25:19Z,735127.005,NULL,Kontrolle,kudhibiti,s,mbinguni,kufunga,utegemezi,NA,sdf,NA,2,NA,NA,NA,NA,NA,NA,NA,NA,NA,NA,NA,NA,NA,NA,NA,NA,NA,NA,NA
fc08c,Shallow Question,html.Page,3_0_2_0_6_1_0,NA,NA,form submission,6881.3949999762,735113.5999999,735110.99,735127.005,742008.39999998,742008.79999995,2023-04-12T16:25:26Z,742020.071,NULL,Kontrolle,kudhibiti,s,mbinguni,kufunga,utegemezi,kufunga,NA,NA,2,NA,NA,NA,NA,NA,NA,NA,NA,NA,NA,NA,NA,NA,NA,NA,NA,NA,NA,NA
fc08c,"""Richtig""-Screen",canvas.Screen,3_0_2_0_6_1_1,NA,NA,skipped,NA,742014.89999998,NA,NA,742008.39999998,742015.29999995,2023-04-12T16:25:26Z,742020.071,NULL,Kontrolle,kudhibiti,s,mbinguni,kufunga,utegemezi,NA,sdf,NA,2,NA,NA,NA,NA,NA,NA,NA,NA,NA,NA,NA,NA,NA,NA,NA,NA,NA,NA,NA
fc08c,"""Falsch""-Screen",canvas.Screen,3_0_2_0_6_1_2,NA,NA,timeout,4995.226,742017.19999993,741995.317,742020.071,746998.702,747004.89999998,2023-04-12T16:25:31Z,747015.297,NULL,Kontrolle,kudhibiti,s,mbinguni,kufunga,utegemezi,NA,sdf,0,2,NA,NA,NA,NA,NA,NA,NA,NA,NA,NA,NA,NA,NA,NA,NA,NA,NA,NA,NA
fc08c,shallow,flow.Sequence,3_0_2_0_6_1,NA,NA,completion,11871.697,735113.5999999,735110.99,735127.005,746998.702,747005.5,2023-04-12T16:25:31Z,747015.297,NULL,Kontrolle,kudhibiti,s,mbinguni,kufunga,utegemezi,NA,sdf,NA,2,NA,NA,NA,NA,NA,NA,NA,NA,NA,NA,NA,NA,NA,NA,NA,NA,NA,NA,NA
fc08c,task,flow.Sequence,3_0_2_0_6,NA,NA,completion,11871.697,735113.29999995,735110.99,735127.005,746998.702,747006.0999999,2023-04-12T16:25:31Z,747015.297,NULL,Kontrolle,kudhibiti,s,mbinguni,kufunga,utegemezi,NA,sdf,NA,2,NA,NA,NA,NA,NA,NA,NA,NA,NA,NA,NA,NA,NA,NA,NA,NA,NA,NA,NA
fc08c,Deep Question,html.Page,3_0_2_0_7_0_0,NA,NA,form submission,4555.703,747006.5999999,746998.702,747015.297,751571,751571.39999998,2023-04-12T16:25:35Z,751588.254,NULL,Orientierung,urekebisho,d,NA,NA,NA,u,NA,NA,2,NA,NA,NA,NA,NA,NA,NA,NA,NA,NA,NA,NA,NA,NA,NA,NA,NA,NA,NA
fc08c,"""Richtig""-Screen",canvas.Screen,3_0_2_0_7_0_1,NA,NA,skipped,NA,751578.89999998,NA,NA,751571,751579.39999998,2023-04-12T16:25:35Z,751588.254,NULL,Orientierung,urekebisho,d,NA,NA,NA,NA,sdf,NA,2,NA,NA,NA,NA,NA,NA,NA,NA,NA,NA,NA,NA,NA,NA,NA,NA,NA,NA,NA
fc08c,"""Falsch""-Screen",canvas.Screen,3_0_2_0_7_0_2,NA,NA,timeout,5008.039,751582.19999993,751563.717,751588.254,756580.282,756581.5,2023-04-12T16:25:40Z,756596.293,NULL,Orientierung,urekebisho,d,NA,NA,NA,NA,sdf,0,2,NA,NA,NA,NA,NA,NA,NA,NA,NA,NA,NA,NA,NA,NA,NA,NA,NA,NA,NA
fc08c,deep,flow.Sequence,3_0_2_0_7_0,NA,NA,completion,9564.985,747006.5,746998.702,747015.297,756580.282,756581.89999998,2023-04-12T16:25:40Z,756596.293,NULL,Orientierung,urekebisho,d,NA,NA,NA,NA,sdf,NA,2,NA,NA,NA,NA,NA,NA,NA,NA,NA,NA,NA,NA,NA,NA,NA,NA,NA,NA,NA
fc08c,shallow,flow.Sequence,3_0_2_0_7_1,NA,NA,skipped,NA,756582,NA,NA,756580.282,756582.19999993,2023-04-12T16:25:40Z,756596.293,NULL,Orientierung,urekebisho,d,NA,NA,NA,NA,sdf,NA,2,NA,NA,NA,NA,NA,NA,NA,NA,NA,NA,NA,NA,NA,NA,NA,NA,NA,NA,NA
fc08c,task,flow.Sequence,3_0_2_0_7,NA,NA,completion,9564.985,747006.29999995,746998.702,747015.297,756580.282,756582.39999998,2023-04-12T16:25:40Z,756596.293,NULL,Orientierung,urekebisho,d,NA,NA,NA,NA,sdf,NA,2,NA,NA,NA,NA,NA,NA,NA,NA,NA,NA,NA,NA,NA,NA,NA,NA,NA,NA,NA
fc08c,block,flow.Loop,3_0_2_0,NA,NA,completion,92355.715,664223,664120.392,664224.567,756580.282,756582.69999993,2023-04-12T16:25:40Z,756596.293,NULL,NA,NA,NA,NA,NA,NA,NA,sdf,NA,2,NA,NA,NA,NA,NA,NA,NA,NA,NA,NA,NA,NA,NA,NA,NA,NA,NA,NA,NA
fc08c,weiter,canvas.Screen,3_0_2_1,sdf,keypress(Space),response,2351.5069999524,756582.79999995,756580.282,756596.293,758947.79999995,758949.69999993,2023-04-12T16:25:43Z,759046.145,NULL,NA,NA,NA,NA,NA,NA,NA,sdf,NA,2,NA,NA,NA,NA,NA,NA,NA,NA,NA,NA,NA,NA,NA,NA,NA,NA,NA,NA,NA
fc08c,check continue,flow.Sequence,3_0_2,NA,NA,completion,94723.232999952,664222.89999998,664120.392,664224.567,758947.79999995,758950.29999995,2023-04-12T16:25:43Z,759046.145,NULL,NA,NA,NA,NA,NA,NA,NA,sdf,NA,2,NA,NA,NA,NA,NA,NA,NA,NA,NA,NA,NA,NA,NA,NA,NA,NA,NA,NA,NA
fc08c,Deep Question,html.Page,3_0_3_0_0_0_0,NA,NA,form submission,12583.754999976,759053.5999999,758944.252,759046.145,771629.89999998,771630.5,2023-04-12T16:25:55Z,771638.136,NULL,Respekt,heshima,d,NA,NA,NA,kuhu,NA,NA,3,NA,NA,NA,NA,NA,NA,NA,NA,NA,NA,NA,NA,NA,NA,NA,NA,NA,NA,NA
fc08c,"""Richtig""-Screen",canvas.Screen,3_0_3_0_0_0_1,NA,NA,skipped,NA,771640.0999999,NA,NA,771629.89999998,771640.5999999,2023-04-12T16:25:55Z,771638.136,NULL,Respekt,heshima,d,NA,NA,NA,NA,qt,NA,3,NA,NA,NA,NA,NA,NA,NA,NA,NA,NA,NA,NA,NA,NA,NA,NA,NA,NA,NA
fc08c,"""Falsch""-Screen",canvas.Screen,3_0_3_0_0_0_2,NA,NA,timeout,4999.671,771643.29999995,771617.771,771638.136,776621.596,776622.79999995,2023-04-12T16:26:00Z,776637.807,NULL,Respekt,heshima,d,NA,NA,NA,NA,qt,0,3,NA,NA,NA,NA,NA,NA,NA,NA,NA,NA,NA,NA,NA,NA,NA,NA,NA,NA,NA
fc08c,deep,flow.Sequence,3_0_3_0_0_0,NA,NA,completion,17575.451,759053.5,758944.252,759046.145,776621.596,776623.29999995,2023-04-12T16:26:00Z,776637.807,NULL,Respekt,heshima,d,NA,NA,NA,NA,qt,NA,3,NA,NA,NA,NA,NA,NA,NA,NA,NA,NA,NA,NA,NA,NA,NA,NA,NA,NA,NA
fc08c,shallow,flow.Sequence,3_0_3_0_0_1,NA,NA,skipped,NA,776623.39999998,NA,NA,776621.596,776623.5999999,2023-04-12T16:26:00Z,776637.807,NULL,Respekt,heshima,d,NA,NA,NA,NA,qt,NA,3,NA,NA,NA,NA,NA,NA,NA,NA,NA,NA,NA,NA,NA,NA,NA,NA,NA,NA,NA
fc08c,task,flow.Sequence,3_0_3_0_0,NA,NA,completion,17575.451,759053.5,758944.252,759046.145,776621.596,776623.79999995,2023-04-12T16:26:00Z,776637.807,NULL,Respekt,heshima,d,NA,NA,NA,NA,qt,NA,3,NA,NA,NA,NA,NA,NA,NA,NA,NA,NA,NA,NA,NA,NA,NA,NA,NA,NA,NA
fc08c,deep,flow.Sequence,3_0_3_0_1_0,NA,NA,skipped,NA,776624,NA,NA,776621.596,776624.0999999,2023-04-12T16:26:00Z,776637.807,NULL,Kontrolle,kudhibiti,s,mbinguni,kufunga,utegemezi,NA,qt,NA,3,NA,NA,NA,NA,NA,NA,NA,NA,NA,NA,NA,NA,NA,NA,NA,NA,NA,NA,NA
fc08c,Shallow Question,html.Page,3_0_3_0_1_1_0,NA,NA,form submission,10625.992999952,776624.29999995,776621.596,776637.807,787263.79999995,787264.19999993,2023-04-12T16:26:11Z,787265.403,NULL,Kontrolle,kudhibiti,s,mbinguni,kufunga,utegemezi,kudhibiti,NA,NA,3,NA,NA,NA,NA,NA,NA,NA,NA,NA,NA,NA,NA,NA,NA,NA,NA,NA,NA,NA
fc08c,"""Richtig""-Screen",canvas.Screen,3_0_3_0_1_1_1,NA,NA,timeout,5003.852,787270.39999998,787261.652,787265.403,792252.592,792263.29999995,2023-04-12T16:26:16Z,792269.255,NULL,Kontrolle,kudhibiti,s,mbinguni,kufunga,utegemezi,NA,qt,1,3,NA,NA,NA,NA,NA,NA,NA,NA,NA,NA,NA,NA,NA,NA,NA,NA,NA,NA,NA
fc08c,"""Falsch""-Screen",canvas.Screen,3_0_3_0_1_1_2,NA,NA,skipped,NA,792269.89999998,NA,NA,792252.592,792270.19999993,2023-04-12T16:26:16Z,792269.255,NULL,Kontrolle,kudhibiti,s,mbinguni,kufunga,utegemezi,NA,qt,NA,3,NA,NA,NA,NA,NA,NA,NA,NA,NA,NA,NA,NA,NA,NA,NA,NA,NA,NA,NA
fc08c,shallow,flow.Sequence,3_0_3_0_1_1,NA,NA,completion,15614.785,776624.29999995,776621.596,776637.807,792252.592,792270.5,2023-04-12T16:26:16Z,792269.255,NULL,Kontrolle,kudhibiti,s,mbinguni,kufunga,utegemezi,NA,qt,NA,3,NA,NA,NA,NA,NA,NA,NA,NA,NA,NA,NA,NA,NA,NA,NA,NA,NA,NA,NA
fc08c,task,flow.Sequence,3_0_3_0_1,NA,NA,completion,15614.785,776623.89999998,776621.596,776637.807,792252.592,792270.79999995,2023-04-12T16:26:16Z,792269.255,NULL,Kontrolle,kudhibiti,s,mbinguni,kufunga,utegemezi,NA,qt,NA,3,NA,NA,NA,NA,NA,NA,NA,NA,NA,NA,NA,NA,NA,NA,NA,NA,NA,NA,NA
fc08c,Deep Question,html.Page,3_0_3_0_2_0_0,NA,NA,form submission,6191.745,792271.19999993,792252.592,792269.255,798461,798461.5999999,2023-04-12T16:26:22Z,798466.111,NULL,Kreativität,ubunifu,d,NA,NA,NA,unaweza,NA,NA,3,NA,NA,NA,NA,NA,NA,NA,NA,NA,NA,NA,NA,NA,NA,NA,NA,NA,NA,NA
fc08c,"""Richtig""-Screen",canvas.Screen,3_0_3_0_2_0_1,NA,NA,skipped,NA,798468.0999999,NA,NA,798461,798468.69999993,2023-04-12T16:26:22Z,798466.111,NULL,Kreativität,ubunifu,d,NA,NA,NA,NA,qt,NA,3,NA,NA,NA,NA,NA,NA,NA,NA,NA,NA,NA,NA,NA,NA,NA,NA,NA,NA,NA
fc08c,"""Falsch""-Screen",canvas.Screen,3_0_3_0_2_0_2,NA,NA,timeout,4999.6409999999,798471.29999995,798445.706,798466.111,803449.045,803461.29999995,2023-04-12T16:26:27Z,803465.752,NULL,Kreativität,ubunifu,d,NA,NA,NA,NA,qt,0,3,NA,NA,NA,NA,NA,NA,NA,NA,NA,NA,NA,NA,NA,NA,NA,NA,NA,NA,NA
fc08c,deep,flow.Sequence,3_0_3_0_2_0,NA,NA,completion,11179.79,792271.0999999,792252.592,792269.255,803449.045,803461.79999995,2023-04-12T16:26:27Z,803465.752,NULL,Kreativität,ubunifu,d,NA,NA,NA,NA,qt,NA,3,NA,NA,NA,NA,NA,NA,NA,NA,NA,NA,NA,NA,NA,NA,NA,NA,NA,NA,NA
fc08c,shallow,flow.Sequence,3_0_3_0_2_1,NA,NA,skipped,NA,803462.19999993,NA,NA,803449.045,803462.39999998,2023-04-12T16:26:27Z,803465.752,NULL,Kreativität,ubunifu,d,NA,NA,NA,NA,qt,NA,3,NA,NA,NA,NA,NA,NA,NA,NA,NA,NA,NA,NA,NA,NA,NA,NA,NA,NA,NA
fc08c,task,flow.Sequence,3_0_3_0_2,NA,NA,completion,11179.79,792271,792252.592,792269.255,803449.045,803462.79999995,2023-04-12T16:26:27Z,803465.752,NULL,Kreativität,ubunifu,d,NA,NA,NA,NA,qt,NA,3,NA,NA,NA,NA,NA,NA,NA,NA,NA,NA,NA,NA,NA,NA,NA,NA,NA,NA,NA
fc08c,Deep Question,html.Page,3_0_3_0_3_0_0,NA,NA,form submission,8778.248,803463.19999993,803449.045,803465.752,812244,812244.39999998,2023-04-12T16:26:36Z,812262.579,NULL,Können,unaweza,d,NA,NA,NA,unaweza,NA,NA,3,NA,NA,NA,NA,NA,NA,NA,NA,NA,NA,NA,NA,NA,NA,NA,NA,NA,NA,NA
fc08c,"""Richtig""-Screen",canvas.Screen,3_0_3_0_3_0_1,NA,NA,timeout,4994.9959999999,812252,812237.996,812262.579,817241.448,817242.5999999,2023-04-12T16:26:41Z,817257.575,NULL,Können,unaweza,d,NA,NA,NA,NA,qt,1,3,NA,NA,NA,NA,NA,NA,NA,NA,NA,NA,NA,NA,NA,NA,NA,NA,NA,NA,NA
fc08c,"""Falsch""-Screen",canvas.Screen,3_0_3_0_3_0_2,NA,NA,skipped,NA,817248.0999999,NA,NA,817241.448,817248.5,2023-04-12T16:26:41Z,817257.575,NULL,Können,unaweza,d,NA,NA,NA,NA,qt,NA,3,NA,NA,NA,NA,NA,NA,NA,NA,NA,NA,NA,NA,NA,NA,NA,NA,NA,NA,NA
fc08c,deep,flow.Sequence,3_0_3_0_3_0,NA,NA,completion,13775.696,803463.19999993,803449.045,803465.752,817241.448,817249,2023-04-12T16:26:41Z,817257.575,NULL,Können,unaweza,d,NA,NA,NA,NA,qt,NA,3,NA,NA,NA,NA,NA,NA,NA,NA,NA,NA,NA,NA,NA,NA,NA,NA,NA,NA,NA
fc08c,shallow,flow.Sequence,3_0_3_0_3_1,NA,NA,skipped,NA,817249.19999993,NA,NA,817241.448,817249.29999995,2023-04-12T16:26:41Z,817257.575,NULL,Können,unaweza,d,NA,NA,NA,NA,qt,NA,3,NA,NA,NA,NA,NA,NA,NA,NA,NA,NA,NA,NA,NA,NA,NA,NA,NA,NA,NA
fc08c,task,flow.Sequence,3_0_3_0_3,NA,NA,completion,13775.696,803463.0999999,803449.045,803465.752,817241.448,817249.5999999,2023-04-12T16:26:41Z,817257.575,NULL,Können,unaweza,d,NA,NA,NA,NA,qt,NA,3,NA,NA,NA,NA,NA,NA,NA,NA,NA,NA,NA,NA,NA,NA,NA,NA,NA,NA,NA
fc08c,deep,flow.Sequence,3_0_3_0_4_0,NA,NA,skipped,NA,817249.79999995,NA,NA,817241.448,817249.89999998,2023-04-12T16:26:41Z,817257.575,NULL,Betrüger,mdanganyifu,s,mwanamuziki,wastani,mahakama,NA,qt,NA,3,NA,NA,NA,NA,NA,NA,NA,NA,NA,NA,NA,NA,NA,NA,NA,NA,NA,NA,NA
fc08c,Shallow Question,html.Page,3_0_3_0_4_1_0,NA,NA,form submission,8954.1249999285,817250.0999999,817241.448,817257.575,826211.69999993,826212.0999999,2023-04-12T16:26:50Z,826215.951,NULL,Betrüger,mdanganyifu,s,mwanamuziki,wastani,mahakama,mdanganyifu,NA,NA,3,NA,NA,NA,NA,NA,NA,NA,NA,NA,NA,NA,NA,NA,NA,NA,NA,NA,NA,NA
fc08c,"""Richtig""-Screen",canvas.Screen,3_0_3_0_4_1_1,NA,NA,timeout,5007.245,826218.0999999,826195.514,826215.951,831206.943,831208.89999998,2023-04-12T16:26:55Z,831223.196,NULL,Betrüger,mdanganyifu,s,mwanamuziki,wastani,mahakama,NA,qt,1,3,NA,NA,NA,NA,NA,NA,NA,NA,NA,NA,NA,NA,NA,NA,NA,NA,NA,NA,NA
fc08c,"""Falsch""-Screen",canvas.Screen,3_0_3_0_4_1_2,NA,NA,skipped,NA,831214.89999998,NA,NA,831206.943,831215.19999993,2023-04-12T16:26:55Z,831223.196,NULL,Betrüger,mdanganyifu,s,mwanamuziki,wastani,mahakama,NA,qt,NA,3,NA,NA,NA,NA,NA,NA,NA,NA,NA,NA,NA,NA,NA,NA,NA,NA,NA,NA,NA
fc08c,shallow,flow.Sequence,3_0_3_0_4_1,NA,NA,completion,13949.368,817250.0999999,817241.448,817257.575,831206.943,831215.5999999,2023-04-12T16:26:55Z,831223.196,NULL,Betrüger,mdanganyifu,s,mwanamuziki,wastani,mahakama,NA,qt,NA,3,NA,NA,NA,NA,NA,NA,NA,NA,NA,NA,NA,NA,NA,NA,NA,NA,NA,NA,NA
fc08c,task,flow.Sequence,3_0_3_0_4,NA,NA,completion,13949.368,817249.5999999,817241.448,817257.575,831206.943,831215.79999995,2023-04-12T16:26:55Z,831223.196,NULL,Betrüger,mdanganyifu,s,mwanamuziki,wastani,mahakama,NA,qt,NA,3,NA,NA,NA,NA,NA,NA,NA,NA,NA,NA,NA,NA,NA,NA,NA,NA,NA,NA,NA
fc08c,deep,flow.Sequence,3_0_3_0_5_0,NA,NA,skipped,NA,831216,NA,NA,831206.943,831216.19999993,2023-04-12T16:26:55Z,831223.196,NULL,Gefährdung,kuhatarisha,s,uchokozi,udhaifu,makorowezo,NA,qt,NA,3,NA,NA,NA,NA,NA,NA,NA,NA,NA,NA,NA,NA,NA,NA,NA,NA,NA,NA,NA
fc08c,Shallow Question,html.Page,3_0_3_0_5_1_0,NA,NA,form submission,10463.703999976,831216.39999998,831206.943,831223.196,841686.89999998,841687.39999998,2023-04-12T16:27:05Z,841688.621,NULL,Gefährdung,kuhatarisha,s,uchokozi,udhaifu,makorowezo,kuhatarisha,NA,NA,3,NA,NA,NA,NA,NA,NA,NA,NA,NA,NA,NA,NA,NA,NA,NA,NA,NA,NA,NA
fc08c,"""Richtig""-Screen",canvas.Screen,3_0_3_0_5_1_1,NA,NA,timeout,4999.4149999999,841693.39999998,841684.881,841688.621,846671.858,846672.89999998,2023-04-12T16:27:10Z,846688.036,NULL,Gefährdung,kuhatarisha,s,uchokozi,udhaifu,makorowezo,NA,qt,1,3,NA,NA,NA,NA,NA,NA,NA,NA,NA,NA,NA,NA,NA,NA,NA,NA,NA,NA,NA
fc08c,"""Falsch""-Screen",canvas.Screen,3_0_3_0_5_1_2,NA,NA,skipped,NA,846678.69999993,NA,NA,846671.858,846679.0999999,2023-04-12T16:27:10Z,846688.036,NULL,Gefährdung,kuhatarisha,s,uchokozi,udhaifu,makorowezo,NA,qt,NA,3,NA,NA,NA,NA,NA,NA,NA,NA,NA,NA,NA,NA,NA,NA,NA,NA,NA,NA,NA
fc08c,shallow,flow.Sequence,3_0_3_0_5_1,NA,NA,completion,15448.662,831216.29999995,831206.943,831223.196,846671.858,846679.5,2023-04-12T16:27:10Z,846688.036,NULL,Gefährdung,kuhatarisha,s,uchokozi,udhaifu,makorowezo,NA,qt,NA,3,NA,NA,NA,NA,NA,NA,NA,NA,NA,NA,NA,NA,NA,NA,NA,NA,NA,NA,NA
fc08c,task,flow.Sequence,3_0_3_0_5,NA,NA,completion,15448.662,831216,831206.943,831223.196,846671.858,846679.79999995,2023-04-12T16:27:10Z,846688.036,NULL,Gefährdung,kuhatarisha,s,uchokozi,udhaifu,makorowezo,NA,qt,NA,3,NA,NA,NA,NA,NA,NA,NA,NA,NA,NA,NA,NA,NA,NA,NA,NA,NA,NA,NA
fc08c,Deep Question,html.Page,3_0_3_0_6_0_0,NA,NA,form submission,9738.964,846680,846671.858,846688.036,856427,856427.39999998,2023-04-12T16:27:20Z,856430.283,NULL,Orientierung,urekebisho,d,NA,NA,NA,ha,NA,NA,3,NA,NA,NA,NA,NA,NA,NA,NA,NA,NA,NA,NA,NA,NA,NA,NA,NA,NA,NA
fc08c,"""Richtig""-Screen",canvas.Screen,3_0_3_0_6_0_1,NA,NA,skipped,NA,856434.0999999,NA,NA,856427,856434.5,2023-04-12T16:27:20Z,856430.283,NULL,Orientierung,urekebisho,d,NA,NA,NA,NA,qt,NA,3,NA,NA,NA,NA,NA,NA,NA,NA,NA,NA,NA,NA,NA,NA,NA,NA,NA,NA,NA
fc08c,"""Falsch""-Screen",canvas.Screen,3_0_3_0_6_0_2,NA,NA,timeout,4991.102,856437.19999993,856414.125,856430.283,861405.316,861406.5,2023-04-12T16:27:25Z,861421.385,NULL,Orientierung,urekebisho,d,NA,NA,NA,NA,qt,0,3,NA,NA,NA,NA,NA,NA,NA,NA,NA,NA,NA,NA,NA,NA,NA,NA,NA,NA,NA
fc08c,deep,flow.Sequence,3_0_3_0_6_0,NA,NA,completion,14717.28,846680,846671.858,846688.036,861405.316,861407,2023-04-12T16:27:25Z,861421.385,NULL,Orientierung,urekebisho,d,NA,NA,NA,NA,qt,NA,3,NA,NA,NA,NA,NA,NA,NA,NA,NA,NA,NA,NA,NA,NA,NA,NA,NA,NA,NA
fc08c,shallow,flow.Sequence,3_0_3_0_6_1,NA,NA,skipped,NA,861407.19999993,NA,NA,861405.316,861407.29999995,2023-04-12T16:27:25Z,861421.385,NULL,Orientierung,urekebisho,d,NA,NA,NA,NA,qt,NA,3,NA,NA,NA,NA,NA,NA,NA,NA,NA,NA,NA,NA,NA,NA,NA,NA,NA,NA,NA
fc08c,task,flow.Sequence,3_0_3_0_6,NA,NA,completion,14717.28,846679.79999995,846671.858,846688.036,861405.316,861407.5,2023-04-12T16:27:25Z,861421.385,NULL,Orientierung,urekebisho,d,NA,NA,NA,NA,qt,NA,3,NA,NA,NA,NA,NA,NA,NA,NA,NA,NA,NA,NA,NA,NA,NA,NA,NA,NA,NA
fc08c,deep,flow.Sequence,3_0_3_0_7_0,NA,NA,skipped,NA,861407.79999995,NA,NA,861405.316,861407.89999998,2023-04-12T16:27:25Z,861421.385,NULL,Stimmung,kinyongo,s,kilekile,kisambo,madhehebu,NA,qt,NA,3,NA,NA,NA,NA,NA,NA,NA,NA,NA,NA,NA,NA,NA,NA,NA,NA,NA,NA,NA
fc08c,Shallow Question,html.Page,3_0_3_0_7_1_0,NA,NA,form submission,7104.7149999046,861408,861405.316,861421.385,868526.0999999,868526.79999995,2023-04-12T16:27:32Z,868543.926,NULL,Stimmung,kinyongo,s,kilekile,kisambo,madhehebu,kinyongo,NA,NA,3,NA,NA,NA,NA,NA,NA,NA,NA,NA,NA,NA,NA,NA,NA,NA,NA,NA,NA,NA
fc08c,"""Richtig""-Screen",canvas.Screen,3_0_3_0_7_1_1,NA,NA,timeout,4991.0600000001,868532.39999998,868519.222,868543.926,873518.961,873520.0999999,2023-04-12T16:27:37Z,873534.986,NULL,Stimmung,kinyongo,s,kilekile,kisambo,madhehebu,NA,qt,1,3,NA,NA,NA,NA,NA,NA,NA,NA,NA,NA,NA,NA,NA,NA,NA,NA,NA,NA,NA
fc08c,"""Falsch""-Screen",canvas.Screen,3_0_3_0_7_1_2,NA,NA,skipped,NA,873525.5,NA,NA,873518.961,873525.79999995,2023-04-12T16:27:37Z,873534.986,NULL,Stimmung,kinyongo,s,kilekile,kisambo,madhehebu,NA,qt,NA,3,NA,NA,NA,NA,NA,NA,NA,NA,NA,NA,NA,NA,NA,NA,NA,NA,NA,NA,NA
fc08c,shallow,flow.Sequence,3_0_3_0_7_1,NA,NA,completion,12097.576,861408,861405.316,861421.385,873518.961,873526.29999995,2023-04-12T16:27:37Z,873534.986,NULL,Stimmung,kinyongo,s,kilekile,kisambo,madhehebu,NA,qt,NA,3,NA,NA,NA,NA,NA,NA,NA,NA,NA,NA,NA,NA,NA,NA,NA,NA,NA,NA,NA
fc08c,task,flow.Sequence,3_0_3_0_7,NA,NA,completion,12097.576,861407.5999999,861405.316,861421.385,873518.961,873526.5999999,2023-04-12T16:27:37Z,873534.986,NULL,Stimmung,kinyongo,s,kilekile,kisambo,madhehebu,NA,qt,NA,3,NA,NA,NA,NA,NA,NA,NA,NA,NA,NA,NA,NA,NA,NA,NA,NA,NA,NA,NA
fc08c,block,flow.Loop,3_0_3_0,NA,NA,completion,114472.816,759053.5,758944.252,759046.145,873518.961,873526.89999998,2023-04-12T16:27:37Z,873534.986,NULL,NA,NA,NA,NA,NA,NA,NA,qt,NA,3,NA,NA,NA,NA,NA,NA,NA,NA,NA,NA,NA,NA,NA,NA,NA,NA,NA,NA,NA
fc08c,weiter,canvas.Screen,3_0_3_1,sdf,keypress(Space),response,1321.3139999523,873527,873518.961,873534.986,874856.29999995,874857.89999998,2023-04-12T16:27:39Z,874943.168,NULL,NA,NA,NA,NA,NA,NA,NA,qt,NA,3,NA,NA,NA,NA,NA,NA,NA,NA,NA,NA,NA,NA,NA,NA,NA,NA,NA,NA,NA
fc08c,check continue,flow.Sequence,3_0_3,NA,NA,completion,115810.15499995,759053.29999995,758944.252,759046.145,874856.29999995,874858.19999993,2023-04-12T16:27:39Z,874943.168,NULL,NA,NA,NA,NA,NA,NA,NA,qt,NA,3,NA,NA,NA,NA,NA,NA,NA,NA,NA,NA,NA,NA,NA,NA,NA,NA,NA,NA,NA
fc08c,Deep Question,html.Page,3_0_4_0_0_0_0,NA,NA,form submission,6720.1319999524,874947.29999995,874850.747,874943.168,881663.29999995,881663.89999998,2023-04-12T16:27:45Z,881665.122,NULL,Können,unaweza,d,NA,NA,NA,umeweza,NA,NA,4,NA,NA,NA,NA,NA,NA,NA,NA,NA,NA,NA,NA,NA,NA,NA,NA,NA,NA,NA
fc08c,"""Richtig""-Screen",canvas.Screen,3_0_4_0_0_0_1,NA,NA,skipped,NA,881670.5,NA,NA,881663.29999995,881671,2023-04-12T16:27:45Z,881665.122,NULL,Können,unaweza,d,NA,NA,NA,NA,sd,NA,4,NA,NA,NA,NA,NA,NA,NA,NA,NA,NA,NA,NA,NA,NA,NA,NA,NA,NA,NA
fc08c,"""Falsch""-Screen",canvas.Screen,3_0_4_0_0_0_2,NA,NA,timeout,5003.9990000001,881672.79999995,881660.906,881665.122,886652.783,886654,2023-04-12T16:27:50Z,886669.121,NULL,Können,unaweza,d,NA,NA,NA,NA,sd,0,4,NA,NA,NA,NA,NA,NA,NA,NA,NA,NA,NA,NA,NA,NA,NA,NA,NA,NA,NA
fc08c,deep,flow.Sequence,3_0_4_0_0_0,NA,NA,completion,11709.615,874947.19999993,874850.747,874943.168,886652.783,886654.39999998,2023-04-12T16:27:50Z,886669.121,NULL,Können,unaweza,d,NA,NA,NA,NA,sd,NA,4,NA,NA,NA,NA,NA,NA,NA,NA,NA,NA,NA,NA,NA,NA,NA,NA,NA,NA,NA
fc08c,shallow,flow.Sequence,3_0_4_0_0_1,NA,NA,skipped,NA,886654.5,NA,NA,886652.783,886654.69999993,2023-04-12T16:27:50Z,886669.121,NULL,Können,unaweza,d,NA,NA,NA,NA,sd,NA,4,NA,NA,NA,NA,NA,NA,NA,NA,NA,NA,NA,NA,NA,NA,NA,NA,NA,NA,NA
fc08c,task,flow.Sequence,3_0_4_0_0,NA,NA,completion,11709.615,874947.0999999,874850.747,874943.168,886652.783,886655,2023-04-12T16:27:50Z,886669.121,NULL,Können,unaweza,d,NA,NA,NA,NA,sd,NA,4,NA,NA,NA,NA,NA,NA,NA,NA,NA,NA,NA,NA,NA,NA,NA,NA,NA,NA,NA
fc08c,deep,flow.Sequence,3_0_4_0_1_0,NA,NA,skipped,NA,886655.0999999,NA,NA,886652.783,886655.19999993,2023-04-12T16:27:50Z,886669.121,NULL,Stimmung,kinyongo,s,kilekile,kisambo,madhehebu,NA,sd,NA,4,NA,NA,NA,NA,NA,NA,NA,NA,NA,NA,NA,NA,NA,NA,NA,NA,NA,NA,NA
fc08c,Shallow Question,html.Page,3_0_4_0_1_1_0,NA,NA,form submission,5278.0789999284,886655.39999998,886652.783,886669.121,891947.19999993,891947.69999993,2023-04-12T16:27:56Z,891949.301,NULL,Stimmung,kinyongo,s,kilekile,kisambo,madhehebu,kinyongo,NA,NA,4,NA,NA,NA,NA,NA,NA,NA,NA,NA,NA,NA,NA,NA,NA,NA,NA,NA,NA,NA
fc08c,"""Richtig""-Screen",canvas.Screen,3_0_4_0_1_1_1,NA,NA,timeout,4999.7120000001,891953.89999998,891945.568,891949.301,896932.869,896934.0999999,2023-04-12T16:28:01Z,896949.013,NULL,Stimmung,kinyongo,s,kilekile,kisambo,madhehebu,NA,sd,1,4,NA,NA,NA,NA,NA,NA,NA,NA,NA,NA,NA,NA,NA,NA,NA,NA,NA,NA,NA
fc08c,"""Falsch""-Screen",canvas.Screen,3_0_4_0_1_1_2,NA,NA,skipped,NA,896939.19999993,NA,NA,896932.869,896939.5999999,2023-04-12T16:28:01Z,896949.013,NULL,Stimmung,kinyongo,s,kilekile,kisambo,madhehebu,NA,sd,NA,4,NA,NA,NA,NA,NA,NA,NA,NA,NA,NA,NA,NA,NA,NA,NA,NA,NA,NA,NA
fc08c,shallow,flow.Sequence,3_0_4_0_1_1,NA,NA,completion,10263.748,886655.39999998,886652.783,886669.121,896932.869,896939.89999998,2023-04-12T16:28:01Z,896949.013,NULL,Stimmung,kinyongo,s,kilekile,kisambo,madhehebu,NA,sd,NA,4,NA,NA,NA,NA,NA,NA,NA,NA,NA,NA,NA,NA,NA,NA,NA,NA,NA,NA,NA
fc08c,task,flow.Sequence,3_0_4_0_1,NA,NA,completion,10263.748,886655,886652.783,886669.121,896932.869,896940.19999993,2023-04-12T16:28:01Z,896949.013,NULL,Stimmung,kinyongo,s,kilekile,kisambo,madhehebu,NA,sd,NA,4,NA,NA,NA,NA,NA,NA,NA,NA,NA,NA,NA,NA,NA,NA,NA,NA,NA,NA,NA
fc08c,Deep Question,html.Page,3_0_4_0_2_0_0,NA,NA,form submission,10174.786999952,896940.39999998,896932.869,896949.013,907123.79999995,907124.29999995,2023-04-12T16:28:11Z,907129.135,NULL,Kreativität,ubunifu,d,NA,NA,NA,h,NA,NA,4,NA,NA,NA,NA,NA,NA,NA,NA,NA,NA,NA,NA,NA,NA,NA,NA,NA,NA,NA
fc08c,"""Richtig""-Screen",canvas.Screen,3_0_4_0_2_0_1,NA,NA,skipped,NA,907130.5,NA,NA,907123.79999995,907131,2023-04-12T16:28:11Z,907129.135,NULL,Kreativität,ubunifu,d,NA,NA,NA,NA,sd,NA,4,NA,NA,NA,NA,NA,NA,NA,NA,NA,NA,NA,NA,NA,NA,NA,NA,NA,NA,NA
fc08c,"""Falsch""-Screen",canvas.Screen,3_0_4_0_2_0_2,NA,NA,timeout,4991.593,907132.89999998,907108.784,907129.135,912104.395,912105.5,2023-04-12T16:28:16Z,912120.728,NULL,Kreativität,ubunifu,d,NA,NA,NA,NA,sd,0,4,NA,NA,NA,NA,NA,NA,NA,NA,NA,NA,NA,NA,NA,NA,NA,NA,NA,NA,NA
fc08c,deep,flow.Sequence,3_0_4_0_2_0,NA,NA,completion,15155.382,896940.39999998,896932.869,896949.013,912104.395,912106,2023-04-12T16:28:16Z,912120.728,NULL,Kreativität,ubunifu,d,NA,NA,NA,NA,sd,NA,4,NA,NA,NA,NA,NA,NA,NA,NA,NA,NA,NA,NA,NA,NA,NA,NA,NA,NA,NA
fc08c,shallow,flow.Sequence,3_0_4_0_2_1,NA,NA,skipped,NA,912106.0999999,NA,NA,912104.395,912106.19999993,2023-04-12T16:28:16Z,912120.728,NULL,Kreativität,ubunifu,d,NA,NA,NA,NA,sd,NA,4,NA,NA,NA,NA,NA,NA,NA,NA,NA,NA,NA,NA,NA,NA,NA,NA,NA,NA,NA
fc08c,task,flow.Sequence,3_0_4_0_2,NA,NA,completion,15155.382,896940.29999995,896932.869,896949.013,912104.395,912106.5,2023-04-12T16:28:16Z,912120.728,NULL,Kreativität,ubunifu,d,NA,NA,NA,NA,sd,NA,4,NA,NA,NA,NA,NA,NA,NA,NA,NA,NA,NA,NA,NA,NA,NA,NA,NA,NA,NA
fc08c,deep,flow.Sequence,3_0_4_0_3_0,NA,NA,skipped,NA,912106.69999993,NA,NA,912104.395,912106.89999998,2023-04-12T16:28:16Z,912120.728,NULL,Kontrolle,kudhibiti,s,mbinguni,kufunga,utegemezi,NA,sd,NA,4,NA,NA,NA,NA,NA,NA,NA,NA,NA,NA,NA,NA,NA,NA,NA,NA,NA,NA,NA
fc08c,Shallow Question,html.Page,3_0_4_0_3_1_0,NA,NA,form submission,16524.871999905,912107,912104.395,912120.728,928645.5999999,928646.0999999,2023-04-12T16:28:32Z,928645.011,NULL,Kontrolle,kudhibiti,s,mbinguni,kufunga,utegemezi,kufunga,NA,NA,4,NA,NA,NA,NA,NA,NA,NA,NA,NA,NA,NA,NA,NA,NA,NA,NA,NA,NA,NA
fc08c,"""Richtig""-Screen",canvas.Screen,3_0_4_0_3_1_1,NA,NA,skipped,NA,928651.5999999,NA,NA,928645.5999999,928651.89999998,2023-04-12T16:28:32Z,928645.011,NULL,Kontrolle,kudhibiti,s,mbinguni,kufunga,utegemezi,NA,sd,NA,4,NA,NA,NA,NA,NA,NA,NA,NA,NA,NA,NA,NA,NA,NA,NA,NA,NA,NA,NA
fc08c,"""Falsch""-Screen",canvas.Screen,3_0_4_0_3_1_2,NA,NA,timeout,5008.1889999999,928653.5999999,928641.343,928645.011,933636.642,933637.79999995,2023-04-12T16:28:37Z,933653.2,NULL,Kontrolle,kudhibiti,s,mbinguni,kufunga,utegemezi,NA,sd,0,4,NA,NA,NA,NA,NA,NA,NA,NA,NA,NA,NA,NA,NA,NA,NA,NA,NA,NA,NA
fc08c,shallow,flow.Sequence,3_0_4_0_3_1,NA,NA,completion,21515.914,912107,912104.395,912120.728,933636.642,933638.29999995,2023-04-12T16:28:37Z,933653.2,NULL,Kontrolle,kudhibiti,s,mbinguni,kufunga,utegemezi,NA,sd,NA,4,NA,NA,NA,NA,NA,NA,NA,NA,NA,NA,NA,NA,NA,NA,NA,NA,NA,NA,NA
fc08c,task,flow.Sequence,3_0_4_0_3,NA,NA,completion,21515.914,912106.5999999,912104.395,912120.728,933636.642,933638.5999999,2023-04-12T16:28:37Z,933653.2,NULL,Kontrolle,kudhibiti,s,mbinguni,kufunga,utegemezi,NA,sd,NA,4,NA,NA,NA,NA,NA,NA,NA,NA,NA,NA,NA,NA,NA,NA,NA,NA,NA,NA,NA
fc08c,deep,flow.Sequence,3_0_4_0_4_0,NA,NA,skipped,NA,933638.69999993,NA,NA,933636.642,933639,2023-04-12T16:28:37Z,933653.2,NULL,Gefährdung,kuhatarisha,s,uchokozi,udhaifu,makorowezo,NA,sd,NA,4,NA,NA,NA,NA,NA,NA,NA,NA,NA,NA,NA,NA,NA,NA,NA,NA,NA,NA,NA
fc08c,Shallow Question,html.Page,3_0_4_0_4_1_0,NA,NA,form submission,5381.8,933639.19999993,933636.642,933653.2,939035,939035.5,2023-04-12T16:28:43Z,939054.313,NULL,Gefährdung,kuhatarisha,s,uchokozi,udhaifu,makorowezo,kuhatarisha,NA,NA,4,NA,NA,NA,NA,NA,NA,NA,NA,NA,NA,NA,NA,NA,NA,NA,NA,NA,NA,NA
fc08c,"""Richtig""-Screen",canvas.Screen,3_0_4_0_4_1_1,NA,NA,timeout,4991.292,939041.29999995,939037.614,939054.313,944029.518,944030.5999999,2023-04-12T16:28:48Z,944045.605,NULL,Gefährdung,kuhatarisha,s,uchokozi,udhaifu,makorowezo,NA,sd,1,4,NA,NA,NA,NA,NA,NA,NA,NA,NA,NA,NA,NA,NA,NA,NA,NA,NA,NA,NA
fc08c,"""Falsch""-Screen",canvas.Screen,3_0_4_0_4_1_2,NA,NA,skipped,NA,944036.0999999,NA,NA,944029.518,944036.69999993,2023-04-12T16:28:48Z,944045.605,NULL,Gefährdung,kuhatarisha,s,uchokozi,udhaifu,makorowezo,NA,sd,NA,4,NA,NA,NA,NA,NA,NA,NA,NA,NA,NA,NA,NA,NA,NA,NA,NA,NA,NA,NA
fc08c,shallow,flow.Sequence,3_0_4_0_4_1,NA,NA,completion,10376.318,933639,933636.642,933653.2,944029.518,944037.29999995,2023-04-12T16:28:48Z,944045.605,NULL,Gefährdung,kuhatarisha,s,uchokozi,udhaifu,makorowezo,NA,sd,NA,4,NA,NA,NA,NA,NA,NA,NA,NA,NA,NA,NA,NA,NA,NA,NA,NA,NA,NA,NA
fc08c,task,flow.Sequence,3_0_4_0_4,NA,NA,completion,10376.318,933638.69999993,933636.642,933653.2,944029.518,944037.5999999,2023-04-12T16:28:48Z,944045.605,NULL,Gefährdung,kuhatarisha,s,uchokozi,udhaifu,makorowezo,NA,sd,NA,4,NA,NA,NA,NA,NA,NA,NA,NA,NA,NA,NA,NA,NA,NA,NA,NA,NA,NA,NA
fc08c,Deep Question,html.Page,3_0_4_0_5_0_0,NA,NA,form submission,10435.794999976,944037.89999998,944029.518,944045.605,954481.39999998,954481.79999995,2023-04-12T16:28:58Z,954483.025,NULL,Respekt,heshima,d,NA,NA,NA,unawaza,NA,NA,4,NA,NA,NA,NA,NA,NA,NA,NA,NA,NA,NA,NA,NA,NA,NA,NA,NA,NA,NA
fc08c,"""Richtig""-Screen",canvas.Screen,3_0_4_0_5_0_1,NA,NA,skipped,NA,954490,NA,NA,954481.39999998,954490.39999998,2023-04-12T16:28:58Z,954483.025,NULL,Respekt,heshima,d,NA,NA,NA,NA,sd,NA,4,NA,NA,NA,NA,NA,NA,NA,NA,NA,NA,NA,NA,NA,NA,NA,NA,NA,NA,NA
fc08c,"""Falsch""-Screen",canvas.Screen,3_0_4_0_5_0_2,NA,NA,timeout,4996.0109999999,954493.19999993,954478.781,954483.025,959462.29,959463.29999995,2023-04-12T16:29:03Z,959479.036,NULL,Respekt,heshima,d,NA,NA,NA,NA,sd,0,4,NA,NA,NA,NA,NA,NA,NA,NA,NA,NA,NA,NA,NA,NA,NA,NA,NA,NA,NA
fc08c,deep,flow.Sequence,3_0_4_0_5_0,NA,NA,completion,15416.685,944037.89999998,944029.518,944045.605,959462.29,959463.79999995,2023-04-12T16:29:03Z,959479.036,NULL,Respekt,heshima,d,NA,NA,NA,NA,sd,NA,4,NA,NA,NA,NA,NA,NA,NA,NA,NA,NA,NA,NA,NA,NA,NA,NA,NA,NA,NA
fc08c,shallow,flow.Sequence,3_0_4_0_5_1,NA,NA,skipped,NA,959464,NA,NA,959462.29,959464.0999999,2023-04-12T16:29:03Z,959479.036,NULL,Respekt,heshima,d,NA,NA,NA,NA,sd,NA,4,NA,NA,NA,NA,NA,NA,NA,NA,NA,NA,NA,NA,NA,NA,NA,NA,NA,NA,NA
fc08c,task,flow.Sequence,3_0_4_0_5,NA,NA,completion,15416.685,944037.79999995,944029.518,944045.605,959462.29,959464.29999995,2023-04-12T16:29:03Z,959479.036,NULL,Respekt,heshima,d,NA,NA,NA,NA,sd,NA,4,NA,NA,NA,NA,NA,NA,NA,NA,NA,NA,NA,NA,NA,NA,NA,NA,NA,NA,NA
fc08c,Deep Question,html.Page,3_0_4_0_6_0_0,NA,NA,form submission,27389.163999929,959464.5999999,959462.29,959479.036,986868.19999993,986868.5999999,2023-04-12T16:29:31Z,986887.722,NULL,Orientierung,urekebisho,d,NA,NA,NA,uhrugenda,NA,NA,4,NA,NA,NA,NA,NA,NA,NA,NA,NA,NA,NA,NA,NA,NA,NA,NA,NA,NA,NA
fc08c,"""Richtig""-Screen",canvas.Screen,3_0_4_0_6_0_1,NA,NA,skipped,NA,986876.19999993,NA,NA,986868.19999993,986876.5999999,2023-04-12T16:29:31Z,986887.722,NULL,Orientierung,urekebisho,d,NA,NA,NA,NA,sd,NA,4,NA,NA,NA,NA,NA,NA,NA,NA,NA,NA,NA,NA,NA,NA,NA,NA,NA,NA,NA
fc08c,"""Falsch""-Screen",canvas.Screen,3_0_4_0_6_0_2,NA,NA,timeout,4999.905,986878.29999995,986863.44,986887.722,991871.015,991876.89999998,2023-04-12T16:29:36Z,991887.627,NULL,Orientierung,urekebisho,d,NA,NA,NA,NA,sd,0,4,NA,NA,NA,NA,NA,NA,NA,NA,NA,NA,NA,NA,NA,NA,NA,NA,NA,NA,NA
fc08c,deep,flow.Sequence,3_0_4_0_6_0,NA,NA,completion,32391.979,959464.5999999,959462.29,959479.036,991871.015,991877.29999995,2023-04-12T16:29:36Z,991887.627,NULL,Orientierung,urekebisho,d,NA,NA,NA,NA,sd,NA,4,NA,NA,NA,NA,NA,NA,NA,NA,NA,NA,NA,NA,NA,NA,NA,NA,NA,NA,NA
fc08c,shallow,flow.Sequence,3_0_4_0_6_1,NA,NA,skipped,NA,991877.39999998,NA,NA,991871.015,991877.69999993,2023-04-12T16:29:36Z,991887.627,NULL,Orientierung,urekebisho,d,NA,NA,NA,NA,sd,NA,4,NA,NA,NA,NA,NA,NA,NA,NA,NA,NA,NA,NA,NA,NA,NA,NA,NA,NA,NA
fc08c,task,flow.Sequence,3_0_4_0_6,NA,NA,completion,32391.979,959464.5,959462.29,959479.036,991871.015,991877.89999998,2023-04-12T16:29:36Z,991887.627,NULL,Orientierung,urekebisho,d,NA,NA,NA,NA,sd,NA,4,NA,NA,NA,NA,NA,NA,NA,NA,NA,NA,NA,NA,NA,NA,NA,NA,NA,NA,NA
fc08c,deep,flow.Sequence,3_0_4_0_7_0,NA,NA,skipped,NA,991878.0999999,NA,NA,991871.015,991878.19999993,2023-04-12T16:29:36Z,991887.627,NULL,Betrüger,mdanganyifu,s,mwanamuziki,wastani,mahakama,NA,sd,NA,4,NA,NA,NA,NA,NA,NA,NA,NA,NA,NA,NA,NA,NA,NA,NA,NA,NA,NA,NA
fc08c,Shallow Question,html.Page,3_0_4_0_7_1_0,NA,NA,form submission,5927.873,991878.5,991871.015,991887.627,997815.5,997816,2023-04-12T16:29:42Z,997822.534,NULL,Betrüger,mdanganyifu,s,mwanamuziki,wastani,mahakama,mdanganyifu,NA,NA,4,NA,NA,NA,NA,NA,NA,NA,NA,NA,NA,NA,NA,NA,NA,NA,NA,NA,NA,NA
fc08c,"""Richtig""-Screen",canvas.Screen,3_0_4_0_7_1_1,NA,NA,timeout,4995.503,997821.69999993,997802.119,997822.534,1002801.772,1002802.9,2023-04-12T16:29:47Z,1002818.037,NULL,Betrüger,mdanganyifu,s,mwanamuziki,wastani,mahakama,NA,sd,1,4,NA,NA,NA,NA,NA,NA,NA,NA,NA,NA,NA,NA,NA,NA,NA,NA,NA,NA,NA
fc08c,"""Falsch""-Screen",canvas.Screen,3_0_4_0_7_1_2,NA,NA,skipped,NA,1002808.3,NA,NA,1002801.772,1002808.5999999,2023-04-12T16:29:47Z,1002818.037,NULL,Betrüger,mdanganyifu,s,mwanamuziki,wastani,mahakama,NA,sd,NA,4,NA,NA,NA,NA,NA,NA,NA,NA,NA,NA,NA,NA,NA,NA,NA,NA,NA,NA,NA
fc08c,shallow,flow.Sequence,3_0_4_0_7_1,NA,NA,completion,10914.145,991878.39999998,991871.015,991887.627,1002801.772,1002809,2023-04-12T16:29:47Z,1002818.037,NULL,Betrüger,mdanganyifu,s,mwanamuziki,wastani,mahakama,NA,sd,NA,4,NA,NA,NA,NA,NA,NA,NA,NA,NA,NA,NA,NA,NA,NA,NA,NA,NA,NA,NA
fc08c,task,flow.Sequence,3_0_4_0_7,NA,NA,completion,10914.145,991878,991871.015,991887.627,1002801.772,1002809.3,2023-04-12T16:29:47Z,1002818.037,NULL,Betrüger,mdanganyifu,s,mwanamuziki,wastani,mahakama,NA,sd,NA,4,NA,NA,NA,NA,NA,NA,NA,NA,NA,NA,NA,NA,NA,NA,NA,NA,NA,NA,NA
fc08c,block,flow.Loop,3_0_4_0,NA,NA,completion,127858.604,874947,874850.747,874943.168,1002801.772,1002809.5,2023-04-12T16:29:47Z,1002818.037,NULL,NA,NA,NA,NA,NA,NA,NA,sd,NA,4,NA,NA,NA,NA,NA,NA,NA,NA,NA,NA,NA,NA,NA,NA,NA,NA,NA,NA,NA
fc08c,weiter,canvas.Screen,3_0_4_1,sdf,keypress(Space),response,1137.5629999046,1002809.8,1002801.772,1002818.037,1003955.5999999,1003957.1999999,2023-04-12T16:29:48Z,1004059.553,NULL,NA,NA,NA,NA,NA,NA,NA,sd,NA,4,NA,NA,NA,NA,NA,NA,NA,NA,NA,NA,NA,NA,NA,NA,NA,NA,NA,NA,NA
fc08c,check continue,flow.Sequence,3_0_4,NA,NA,completion,129012.4319999,874947,874850.747,874943.168,1003955.5999999,1003957.5999999,2023-04-12T16:29:48Z,1004059.553,NULL,NA,NA,NA,NA,NA,NA,NA,sd,NA,4,NA,NA,NA,NA,NA,NA,NA,NA,NA,NA,NA,NA,NA,NA,NA,NA,NA,NA,NA
fc08c,deep,flow.Sequence,3_0_5_0_0_0,NA,NA,skipped,NA,1004059.5,NA,NA,1003955.5999999,1004060,2023-04-12T16:29:48Z,1004059.553,NULL,Stimmung,kinyongo,s,kilekile,kisambo,madhehebu,NA,sdf,NA,5,NA,NA,NA,NA,NA,NA,NA,NA,NA,NA,NA,NA,NA,NA,NA,NA,NA,NA,NA
fc08c,Shallow Question,html.Page,3_0_5_0_0_1_0,NA,NA,form submission,3892.447,1004060.1999999,1003950.877,1004059.553,1007952,1007952.5999999,2023-04-12T16:29:52Z,1007953.39,NULL,Stimmung,kinyongo,s,kilekile,kisambo,madhehebu,kinyongo,NA,NA,5,NA,NA,NA,NA,NA,NA,NA,NA,NA,NA,NA,NA,NA,NA,NA,NA,NA,NA,NA
fc08c,"""Richtig""-Screen",canvas.Screen,3_0_5_0_0_1_1,NA,NA,timeout,4991.303,1007958.3,1007949.625,1007953.39,1012928.699,1012929.9,2023-04-12T16:29:57Z,1012944.693,NULL,Stimmung,kinyongo,s,kilekile,kisambo,madhehebu,NA,sdf,1,5,NA,NA,NA,NA,NA,NA,NA,NA,NA,NA,NA,NA,NA,NA,NA,NA,NA,NA,NA
fc08c,"""Falsch""-Screen",canvas.Screen,3_0_5_0_0_1_2,NA,NA,skipped,NA,1012935.1999999,NA,NA,1012928.699,1012935.5,2023-04-12T16:29:57Z,1012944.693,NULL,Stimmung,kinyongo,s,kilekile,kisambo,madhehebu,NA,sdf,NA,5,NA,NA,NA,NA,NA,NA,NA,NA,NA,NA,NA,NA,NA,NA,NA,NA,NA,NA,NA
fc08c,shallow,flow.Sequence,3_0_5_0_0_1,NA,NA,completion,8869.1460000001,1004060.1999999,1003950.877,1004059.553,1012928.699,1012936,2023-04-12T16:29:57Z,1012944.693,NULL,Stimmung,kinyongo,s,kilekile,kisambo,madhehebu,NA,sdf,NA,5,NA,NA,NA,NA,NA,NA,NA,NA,NA,NA,NA,NA,NA,NA,NA,NA,NA,NA,NA
fc08c,task,flow.Sequence,3_0_5_0_0,NA,NA,completion,8869.1460000001,1004059.4,1003950.877,1004059.553,1012928.699,1012936.1999999,2023-04-12T16:29:57Z,1012944.693,NULL,Stimmung,kinyongo,s,kilekile,kisambo,madhehebu,NA,sdf,NA,5,NA,NA,NA,NA,NA,NA,NA,NA,NA,NA,NA,NA,NA,NA,NA,NA,NA,NA,NA
fc08c,Deep Question,html.Page,3_0_5_0_1_0_0,NA,NA,form submission,19071.706999976,1012936.5,1012928.699,1012944.693,1032016.4,1032017,2023-04-12T16:30:16Z,1032018.047,NULL,Orientierung,urekebisho,d,NA,NA,NA,urhungenda,NA,NA,5,NA,NA,NA,NA,NA,NA,NA,NA,NA,NA,NA,NA,NA,NA,NA,NA,NA,NA,NA
fc08c,"""Richtig""-Screen",canvas.Screen,3_0_5_0_1_0_1,NA,NA,skipped,NA,1032023.9,NA,NA,1032016.4,1032024.5,2023-04-12T16:30:16Z,1032018.047,NULL,Orientierung,urekebisho,d,NA,NA,NA,NA,sdf,NA,5,NA,NA,NA,NA,NA,NA,NA,NA,NA,NA,NA,NA,NA,NA,NA,NA,NA,NA,NA
fc08c,"""Falsch""-Screen",canvas.Screen,3_0_5_0_1_0_2,NA,NA,timeout,5004.368,1032026.3,1032014.303,1032018.047,1037005.761,1037006.8,2023-04-12T16:30:21Z,1037022.415,NULL,Orientierung,urekebisho,d,NA,NA,NA,NA,sdf,0,5,NA,NA,NA,NA,NA,NA,NA,NA,NA,NA,NA,NA,NA,NA,NA,NA,NA,NA,NA
fc08c,deep,flow.Sequence,3_0_5_0_1_0,NA,NA,completion,24061.068,1012936.4,1012928.699,1012944.693,1037005.761,1037007.3,2023-04-12T16:30:21Z,1037022.415,NULL,Orientierung,urekebisho,d,NA,NA,NA,NA,sdf,NA,5,NA,NA,NA,NA,NA,NA,NA,NA,NA,NA,NA,NA,NA,NA,NA,NA,NA,NA,NA
fc08c,shallow,flow.Sequence,3_0_5_0_1_1,NA,NA,skipped,NA,1037007.5,NA,NA,1037005.761,1037007.5999999,2023-04-12T16:30:21Z,1037022.415,NULL,Orientierung,urekebisho,d,NA,NA,NA,NA,sdf,NA,5,NA,NA,NA,NA,NA,NA,NA,NA,NA,NA,NA,NA,NA,NA,NA,NA,NA,NA,NA
fc08c,task,flow.Sequence,3_0_5_0_1,NA,NA,completion,24061.068,1012936.4,1012928.699,1012944.693,1037005.761,1037007.9,2023-04-12T16:30:21Z,1037022.415,NULL,Orientierung,urekebisho,d,NA,NA,NA,NA,sdf,NA,5,NA,NA,NA,NA,NA,NA,NA,NA,NA,NA,NA,NA,NA,NA,NA,NA,NA,NA,NA
fc08c,Deep Question,html.Page,3_0_5_0_2_0_0,NA,NA,form submission,11017.484999976,1037008,1037005.761,1037022.415,1048039.9,1048040.5,2023-04-12T16:30:32Z,1048076.307,NULL,Respekt,heshima,d,NA,NA,NA,kehebisho,NA,NA,5,NA,NA,NA,NA,NA,NA,NA,NA,NA,NA,NA,NA,NA,NA,NA,NA,NA,NA,NA
fc08c,"""Richtig""-Screen",canvas.Screen,3_0_5_0_2_0_1,NA,NA,skipped,NA,1048047.6999999,NA,NA,1048039.9,1048048.1999999,2023-04-12T16:30:32Z,1048076.307,NULL,Respekt,heshima,d,NA,NA,NA,NA,sdf,NA,5,NA,NA,NA,NA,NA,NA,NA,NA,NA,NA,NA,NA,NA,NA,NA,NA,NA,NA,NA
fc08c,"""Falsch""-Screen",canvas.Screen,3_0_5_0_2_0_2,NA,NA,timeout,5004.01,1048049.9,1048022.628,1048076.307,1053064.008,1053065,2023-04-12T16:30:37Z,1053080.317,NULL,Respekt,heshima,d,NA,NA,NA,NA,sdf,0,5,NA,NA,NA,NA,NA,NA,NA,NA,NA,NA,NA,NA,NA,NA,NA,NA,NA,NA,NA
fc08c,deep,flow.Sequence,3_0_5_0_2_0,NA,NA,completion,16041.593,1037008,1037005.761,1037022.415,1053064.008,1053065.4,2023-04-12T16:30:37Z,1053080.317,NULL,Respekt,heshima,d,NA,NA,NA,NA,sdf,NA,5,NA,NA,NA,NA,NA,NA,NA,NA,NA,NA,NA,NA,NA,NA,NA,NA,NA,NA,NA
fc08c,shallow,flow.Sequence,3_0_5_0_2_1,NA,NA,skipped,NA,1053065.5,NA,NA,1053064.008,1053065.6999999,2023-04-12T16:30:37Z,1053080.317,NULL,Respekt,heshima,d,NA,NA,NA,NA,sdf,NA,5,NA,NA,NA,NA,NA,NA,NA,NA,NA,NA,NA,NA,NA,NA,NA,NA,NA,NA,NA
fc08c,task,flow.Sequence,3_0_5_0_2,NA,NA,completion,16041.593,1037007.9,1037005.761,1037022.415,1053064.008,1053065.9,2023-04-12T16:30:37Z,1053080.317,NULL,Respekt,heshima,d,NA,NA,NA,NA,sdf,NA,5,NA,NA,NA,NA,NA,NA,NA,NA,NA,NA,NA,NA,NA,NA,NA,NA,NA,NA,NA
fc08c,deep,flow.Sequence,3_0_5_0_3_0,NA,NA,skipped,NA,1053066,NA,NA,1053064.008,1053066.1999999,2023-04-12T16:30:37Z,1053080.317,NULL,Kontrolle,kudhibiti,s,mbinguni,kufunga,utegemezi,NA,sdf,NA,5,NA,NA,NA,NA,NA,NA,NA,NA,NA,NA,NA,NA,NA,NA,NA,NA,NA,NA,NA
fc08c,Shallow Question,html.Page,3_0_5_0_3_1_0,NA,NA,form submission,6101.183,1053066.1999999,1053064.008,1053080.317,1059181.5,1059182,2023-04-12T16:30:43Z,1059192.879,NULL,Kontrolle,kudhibiti,s,mbinguni,kufunga,utegemezi,kudhibiti,NA,NA,5,NA,NA,NA,NA,NA,NA,NA,NA,NA,NA,NA,NA,NA,NA,NA,NA,NA,NA,NA
fc08c,"""Richtig""-Screen",canvas.Screen,3_0_5_0_3_1_1,NA,NA,timeout,4999.4450000001,1059187.5,1059167.804,1059192.879,1064176.287,1064177.4,2023-04-12T16:30:48Z,1064192.324,NULL,Kontrolle,kudhibiti,s,mbinguni,kufunga,utegemezi,NA,sdf,1,5,NA,NA,NA,NA,NA,NA,NA,NA,NA,NA,NA,NA,NA,NA,NA,NA,NA,NA,NA
fc08c,"""Falsch""-Screen",canvas.Screen,3_0_5_0_3_1_2,NA,NA,skipped,NA,1064182.8,NA,NA,1064176.287,1064183.1999999,2023-04-12T16:30:48Z,1064192.324,NULL,Kontrolle,kudhibiti,s,mbinguni,kufunga,utegemezi,NA,sdf,NA,5,NA,NA,NA,NA,NA,NA,NA,NA,NA,NA,NA,NA,NA,NA,NA,NA,NA,NA,NA
fc08c,shallow,flow.Sequence,3_0_5_0_3_1,NA,NA,completion,11095.97,1053066.1999999,1053064.008,1053080.317,1064176.287,1064183.5999999,2023-04-12T16:30:48Z,1064192.324,NULL,Kontrolle,kudhibiti,s,mbinguni,kufunga,utegemezi,NA,sdf,NA,5,NA,NA,NA,NA,NA,NA,NA,NA,NA,NA,NA,NA,NA,NA,NA,NA,NA,NA,NA
fc08c,task,flow.Sequence,3_0_5_0_3,NA,NA,completion,11095.97,1053065.9,1053064.008,1053080.317,1064176.287,1064183.8,2023-04-12T16:30:48Z,1064192.324,NULL,Kontrolle,kudhibiti,s,mbinguni,kufunga,utegemezi,NA,sdf,NA,5,NA,NA,NA,NA,NA,NA,NA,NA,NA,NA,NA,NA,NA,NA,NA,NA,NA,NA,NA
fc08c,Deep Question,html.Page,3_0_5_0_4_0_0,NA,NA,form submission,7322.5759999761,1064184.0999999,1064176.287,1064192.324,1071514.9,1071515.3,2023-04-12T16:30:55Z,1071526.549,NULL,Kreativität,ubunifu,d,NA,NA,NA,urusbeki,NA,NA,5,NA,NA,NA,NA,NA,NA,NA,NA,NA,NA,NA,NA,NA,NA,NA,NA,NA,NA,NA
fc08c,"""Richtig""-Screen",canvas.Screen,3_0_5_0_4_0_1,NA,NA,skipped,NA,1071520.6999999,NA,NA,1071514.9,1071521.1999999,2023-04-12T16:30:55Z,1071526.549,NULL,Kreativität,ubunifu,d,NA,NA,NA,NA,sdf,NA,5,NA,NA,NA,NA,NA,NA,NA,NA,NA,NA,NA,NA,NA,NA,NA,NA,NA,NA,NA
fc08c,"""Falsch""-Screen",canvas.Screen,3_0_5_0_4_0_2,NA,NA,timeout,4995.8849999998,1071523.9,1071505.619,1071526.549,1076505.785,1076506.9,2023-04-12T16:31:00Z,1076522.434,NULL,Kreativität,ubunifu,d,NA,NA,NA,NA,sdf,0,5,NA,NA,NA,NA,NA,NA,NA,NA,NA,NA,NA,NA,NA,NA,NA,NA,NA,NA,NA
fc08c,deep,flow.Sequence,3_0_5_0_4_0,NA,NA,completion,12313.461,1064184.0999999,1064176.287,1064192.324,1076505.785,1076507.3,2023-04-12T16:31:00Z,1076522.434,NULL,Kreativität,ubunifu,d,NA,NA,NA,NA,sdf,NA,5,NA,NA,NA,NA,NA,NA,NA,NA,NA,NA,NA,NA,NA,NA,NA,NA,NA,NA,NA
fc08c,shallow,flow.Sequence,3_0_5_0_4_1,NA,NA,skipped,NA,1076507.4,NA,NA,1076505.785,1076507.6999999,2023-04-12T16:31:00Z,1076522.434,NULL,Kreativität,ubunifu,d,NA,NA,NA,NA,sdf,NA,5,NA,NA,NA,NA,NA,NA,NA,NA,NA,NA,NA,NA,NA,NA,NA,NA,NA,NA,NA
fc08c,task,flow.Sequence,3_0_5_0_4,NA,NA,completion,12313.461,1064184,1064176.287,1064192.324,1076505.785,1076507.9,2023-04-12T16:31:00Z,1076522.434,NULL,Kreativität,ubunifu,d,NA,NA,NA,NA,sdf,NA,5,NA,NA,NA,NA,NA,NA,NA,NA,NA,NA,NA,NA,NA,NA,NA,NA,NA,NA,NA
fc08c,Deep Question,html.Page,3_0_5_0_5_0_0,NA,NA,form submission,6831.1659999047,1076508.1999999,1076505.785,1076522.434,1083353.5999999,1083354,2023-04-12T16:31:07Z,1083385.744,NULL,Können,unaweza,d,NA,NA,NA,i,NA,NA,5,NA,NA,NA,NA,NA,NA,NA,NA,NA,NA,NA,NA,NA,NA,NA,NA,NA,NA,NA
fc08c,"""Richtig""-Screen",canvas.Screen,3_0_5_0_5_0_1,NA,NA,skipped,NA,1083361.5999999,NA,NA,1083353.5999999,1083362,2023-04-12T16:31:07Z,1083385.744,NULL,Können,unaweza,d,NA,NA,NA,NA,sdf,NA,5,NA,NA,NA,NA,NA,NA,NA,NA,NA,NA,NA,NA,NA,NA,NA,NA,NA,NA,NA
fc08c,"""Falsch""-Screen",canvas.Screen,3_0_5_0_5_0_2,NA,NA,timeout,4999.598,1083364.5999999,1083348.469,1083385.744,1088369.032,1088370.0999999,2023-04-12T16:31:12Z,1088385.342,NULL,Können,unaweza,d,NA,NA,NA,NA,sdf,0,5,NA,NA,NA,NA,NA,NA,NA,NA,NA,NA,NA,NA,NA,NA,NA,NA,NA,NA,NA
fc08c,deep,flow.Sequence,3_0_5_0_5_0,NA,NA,completion,11846.598,1076508.0999999,1076505.785,1076522.434,1088369.032,1088370.6999999,2023-04-12T16:31:12Z,1088385.342,NULL,Können,unaweza,d,NA,NA,NA,NA,sdf,NA,5,NA,NA,NA,NA,NA,NA,NA,NA,NA,NA,NA,NA,NA,NA,NA,NA,NA,NA,NA
fc08c,shallow,flow.Sequence,3_0_5_0_5_1,NA,NA,skipped,NA,1088370.9,NA,NA,1088369.032,1088371.0999999,2023-04-12T16:31:12Z,1088385.342,NULL,Können,unaweza,d,NA,NA,NA,NA,sdf,NA,5,NA,NA,NA,NA,NA,NA,NA,NA,NA,NA,NA,NA,NA,NA,NA,NA,NA,NA,NA
fc08c,task,flow.Sequence,3_0_5_0_5,NA,NA,completion,11846.598,1076508,1076505.785,1076522.434,1088369.032,1088371.3,2023-04-12T16:31:12Z,1088385.342,NULL,Können,unaweza,d,NA,NA,NA,NA,sdf,NA,5,NA,NA,NA,NA,NA,NA,NA,NA,NA,NA,NA,NA,NA,NA,NA,NA,NA,NA,NA
fc08c,deep,flow.Sequence,3_0_5_0_6_0,NA,NA,skipped,NA,1088371.5,NA,NA,1088369.032,1088371.5999999,2023-04-12T16:31:12Z,1088385.342,NULL,Gefährdung,kuhatarisha,s,uchokozi,udhaifu,makorowezo,NA,sdf,NA,5,NA,NA,NA,NA,NA,NA,NA,NA,NA,NA,NA,NA,NA,NA,NA,NA,NA,NA,NA
fc08c,Shallow Question,html.Page,3_0_5_0_6_1_0,NA,NA,form submission,5432.7579999047,1088371.8,1088369.032,1088385.342,1093818.0999999,1093818.6999999,2023-04-12T16:31:18Z,1093832.498,NULL,Gefährdung,kuhatarisha,s,uchokozi,udhaifu,makorowezo,kuhatarisha,NA,NA,5,NA,NA,NA,NA,NA,NA,NA,NA,NA,NA,NA,NA,NA,NA,NA,NA,NA,NA,NA
fc08c,"""Richtig""-Screen",canvas.Screen,3_0_5_0_6_1_1,NA,NA,timeout,5007.79,1093824.1999999,1093811.714,1093832.498,1098824.163,1098825.1999999,2023-04-12T16:31:23Z,1098840.288,NULL,Gefährdung,kuhatarisha,s,uchokozi,udhaifu,makorowezo,NA,sdf,1,5,NA,NA,NA,NA,NA,NA,NA,NA,NA,NA,NA,NA,NA,NA,NA,NA,NA,NA,NA
fc08c,"""Falsch""-Screen",canvas.Screen,3_0_5_0_6_1_2,NA,NA,skipped,NA,1098830.6999999,NA,NA,1098824.163,1098831.0999999,2023-04-12T16:31:23Z,1098840.288,NULL,Gefährdung,kuhatarisha,s,uchokozi,udhaifu,makorowezo,NA,sdf,NA,5,NA,NA,NA,NA,NA,NA,NA,NA,NA,NA,NA,NA,NA,NA,NA,NA,NA,NA,NA
fc08c,shallow,flow.Sequence,3_0_5_0_6_1,NA,NA,completion,10438.821,1088371.6999999,1088369.032,1088385.342,1098824.163,1098831.4,2023-04-12T16:31:23Z,1098840.288,NULL,Gefährdung,kuhatarisha,s,uchokozi,udhaifu,makorowezo,NA,sdf,NA,5,NA,NA,NA,NA,NA,NA,NA,NA,NA,NA,NA,NA,NA,NA,NA,NA,NA,NA,NA
fc08c,task,flow.Sequence,3_0_5_0_6,NA,NA,completion,10438.821,1088371.4,1088369.032,1088385.342,1098824.163,1098831.6999999,2023-04-12T16:31:23Z,1098840.288,NULL,Gefährdung,kuhatarisha,s,uchokozi,udhaifu,makorowezo,NA,sdf,NA,5,NA,NA,NA,NA,NA,NA,NA,NA,NA,NA,NA,NA,NA,NA,NA,NA,NA,NA,NA
fc08c,deep,flow.Sequence,3_0_5_0_7_0,NA,NA,skipped,NA,1098831.9,NA,NA,1098824.163,1098832,2023-04-12T16:31:23Z,1098840.288,NULL,Betrüger,mdanganyifu,s,mwanamuziki,wastani,mahakama,NA,sdf,NA,5,NA,NA,NA,NA,NA,NA,NA,NA,NA,NA,NA,NA,NA,NA,NA,NA,NA,NA,NA
fc08c,Shallow Question,html.Page,3_0_5_0_7_1_0,NA,NA,form submission,6289.3119999047,1098832.1999999,1098824.163,1098840.288,1105129.5999999,1105130.4,2023-04-12T16:31:29Z,1105136.751,NULL,Betrüger,mdanganyifu,s,mwanamuziki,wastani,mahakama,mdanganyifu,NA,NA,5,NA,NA,NA,NA,NA,NA,NA,NA,NA,NA,NA,NA,NA,NA,NA,NA,NA,NA,NA
fc08c,"""Richtig""-Screen",canvas.Screen,3_0_5_0_7_1_1,NA,NA,timeout,4995.4910000002,1105138.8,1105115.868,1105136.751,1110116.13,1110117.1999999,2023-04-12T16:31:34Z,1110132.242,NULL,Betrüger,mdanganyifu,s,mwanamuziki,wastani,mahakama,NA,sdf,1,5,NA,NA,NA,NA,NA,NA,NA,NA,NA,NA,NA,NA,NA,NA,NA,NA,NA,NA,NA
fc08c,"""Falsch""-Screen",canvas.Screen,3_0_5_0_7_1_2,NA,NA,skipped,NA,1110122.4,NA,NA,1110116.13,1110122.8,2023-04-12T16:31:34Z,1110132.242,NULL,Betrüger,mdanganyifu,s,mwanamuziki,wastani,mahakama,NA,sdf,NA,5,NA,NA,NA,NA,NA,NA,NA,NA,NA,NA,NA,NA,NA,NA,NA,NA,NA,NA,NA
fc08c,shallow,flow.Sequence,3_0_5_0_7_1,NA,NA,completion,11275.842,1098832.1999999,1098824.163,1098840.288,1110116.13,1110123.3,2023-04-12T16:31:34Z,1110132.242,NULL,Betrüger,mdanganyifu,s,mwanamuziki,wastani,mahakama,NA,sdf,NA,5,NA,NA,NA,NA,NA,NA,NA,NA,NA,NA,NA,NA,NA,NA,NA,NA,NA,NA,NA
fc08c,task,flow.Sequence,3_0_5_0_7,NA,NA,completion,11275.842,1098831.9,1098824.163,1098840.288,1110116.13,1110123.5,2023-04-12T16:31:34Z,1110132.242,NULL,Betrüger,mdanganyifu,s,mwanamuziki,wastani,mahakama,NA,sdf,NA,5,NA,NA,NA,NA,NA,NA,NA,NA,NA,NA,NA,NA,NA,NA,NA,NA,NA,NA,NA
fc08c,block,flow.Loop,3_0_5_0,NA,NA,completion,106056.577,1004059.4,1003950.877,1004059.553,1110116.13,1110123.8,2023-04-12T16:31:34Z,1110132.242,NULL,NA,NA,NA,NA,NA,NA,NA,sdf,NA,5,NA,NA,NA,NA,NA,NA,NA,NA,NA,NA,NA,NA,NA,NA,NA,NA,NA,NA,NA
fc08c,weiter,canvas.Screen,3_0_5_1,sdf,keypress(Space),response,965.25799999991,1110124,1110116.13,1110132.242,1111097.5,1111099.3,2023-04-12T16:31:35Z,1111186.27,NULL,NA,NA,NA,NA,NA,NA,NA,sdf,NA,5,NA,NA,NA,NA,NA,NA,NA,NA,NA,NA,NA,NA,NA,NA,NA,NA,NA,NA,NA
fc08c,check continue,flow.Sequence,3_0_5,NA,NA,completion,107037.947,1004059.3,1003950.877,1004059.553,1111097.5,1111099.5,2023-04-12T16:31:35Z,1111186.27,NULL,NA,NA,NA,NA,NA,NA,NA,sdf,NA,5,NA,NA,NA,NA,NA,NA,NA,NA,NA,NA,NA,NA,NA,NA,NA,NA,NA,NA,NA
fc08c,deep,flow.Sequence,3_0_6_0_0_0,NA,NA,skipped,NA,1111185.1999999,NA,NA,1111097.5,1111185.4,2023-04-12T16:31:35Z,1111186.27,NULL,Betrüger,mdanganyifu,s,mwanamuziki,wastani,mahakama,NA,dfs,NA,6,NA,NA,NA,NA,NA,NA,NA,NA,NA,NA,NA,NA,NA,NA,NA,NA,NA,NA,NA
fc08c,Shallow Question,html.Page,3_0_6_0_0_1_0,NA,NA,form submission,4409.0299999523,1111185.5999999,1111081.967,1111186.27,1115595.3,1115595.9,2023-04-12T16:31:39Z,1115612.948,NULL,Betrüger,mdanganyifu,s,mwanamuziki,wastani,mahakama,mdanganyifu,NA,NA,6,NA,NA,NA,NA,NA,NA,NA,NA,NA,NA,NA,NA,NA,NA,NA,NA,NA,NA,NA
fc08c,"""Richtig""-Screen",canvas.Screen,3_0_6_0_0_1_1,NA,NA,timeout,4991.2879999999,1115601.4,1115588.318,1115612.948,1120588.121,1120589.1999999,2023-04-12T16:31:44Z,1120604.236,NULL,Betrüger,mdanganyifu,s,mwanamuziki,wastani,mahakama,NA,dfs,1,6,NA,NA,NA,NA,NA,NA,NA,NA,NA,NA,NA,NA,NA,NA,NA,NA,NA,NA,NA
fc08c,"""Falsch""-Screen",canvas.Screen,3_0_6_0_0_1_2,NA,NA,skipped,NA,1120594.8,NA,NA,1120588.121,1120595.0999999,2023-04-12T16:31:44Z,1120604.236,NULL,Betrüger,mdanganyifu,s,mwanamuziki,wastani,mahakama,NA,dfs,NA,6,NA,NA,NA,NA,NA,NA,NA,NA,NA,NA,NA,NA,NA,NA,NA,NA,NA,NA,NA
fc08c,shallow,flow.Sequence,3_0_6_0_0_1,NA,NA,completion,9401.851,1111185.5999999,1111081.967,1111186.27,1120588.121,1120595.5999999,2023-04-12T16:31:44Z,1120604.236,NULL,Betrüger,mdanganyifu,s,mwanamuziki,wastani,mahakama,NA,dfs,NA,6,NA,NA,NA,NA,NA,NA,NA,NA,NA,NA,NA,NA,NA,NA,NA,NA,NA,NA,NA
fc08c,task,flow.Sequence,3_0_6_0_0,NA,NA,completion,9401.851,1111185.1999999,1111081.967,1111186.27,1120588.121,1120595.9,2023-04-12T16:31:44Z,1120604.236,NULL,Betrüger,mdanganyifu,s,mwanamuziki,wastani,mahakama,NA,dfs,NA,6,NA,NA,NA,NA,NA,NA,NA,NA,NA,NA,NA,NA,NA,NA,NA,NA,NA,NA,NA
fc08c,deep,flow.Sequence,3_0_6_0_1_0,NA,NA,skipped,NA,1120596.0999999,NA,NA,1120588.121,1120596.1999999,2023-04-12T16:31:44Z,1120604.236,NULL,Stimmung,kinyongo,s,kilekile,kisambo,madhehebu,NA,dfs,NA,6,NA,NA,NA,NA,NA,NA,NA,NA,NA,NA,NA,NA,NA,NA,NA,NA,NA,NA,NA
fc08c,Shallow Question,html.Page,3_0_6_0_1_1_0,NA,NA,form submission,3614.1639999761,1120596.4,1120588.121,1120604.236,1124218.4,1124218.8,2023-04-12T16:31:48Z,1124222.987,NULL,Stimmung,kinyongo,s,kilekile,kisambo,madhehebu,kinyongo,NA,NA,6,NA,NA,NA,NA,NA,NA,NA,NA,NA,NA,NA,NA,NA,NA,NA,NA,NA,NA,NA
fc08c,"""Richtig""-Screen",canvas.Screen,3_0_6_0_1_1_1,NA,NA,timeout,5003.5970000001,1124225,1124202.584,1124222.987,1129209.964,1129215.8,2023-04-12T16:31:53Z,1129226.584,NULL,Stimmung,kinyongo,s,kilekile,kisambo,madhehebu,NA,dfs,1,6,NA,NA,NA,NA,NA,NA,NA,NA,NA,NA,NA,NA,NA,NA,NA,NA,NA,NA,NA
fc08c,"""Falsch""-Screen",canvas.Screen,3_0_6_0_1_1_2,NA,NA,skipped,NA,1129223.5,NA,NA,1129209.964,1129224.0999999,2023-04-12T16:31:53Z,1129226.584,NULL,Stimmung,kinyongo,s,kilekile,kisambo,madhehebu,NA,dfs,NA,6,NA,NA,NA,NA,NA,NA,NA,NA,NA,NA,NA,NA,NA,NA,NA,NA,NA,NA,NA
fc08c,shallow,flow.Sequence,3_0_6_0_1_1,NA,NA,completion,8605.7279999999,1120596.4,1120588.121,1120604.236,1129209.964,1129224.6999999,2023-04-12T16:31:53Z,1129226.584,NULL,Stimmung,kinyongo,s,kilekile,kisambo,madhehebu,NA,dfs,NA,6,NA,NA,NA,NA,NA,NA,NA,NA,NA,NA,NA,NA,NA,NA,NA,NA,NA,NA,NA
fc08c,task,flow.Sequence,3_0_6_0_1,NA,NA,completion,8605.7279999999,1120596,1120588.121,1120604.236,1129209.964,1129225.1999999,2023-04-12T16:31:53Z,1129226.584,NULL,Stimmung,kinyongo,s,kilekile,kisambo,madhehebu,NA,dfs,NA,6,NA,NA,NA,NA,NA,NA,NA,NA,NA,NA,NA,NA,NA,NA,NA,NA,NA,NA,NA
