observation,sender,sender_type,sender_id,response,response_action,ended_on,duration,time_run,time_render,time_show,time_end,time_commit,timestamp,time_switch,german,swahili,enc,distractor1,distractor2,distractor3,response_2,x,correct,distractors,url_vp,url_sess,meta_labjs_version,meta_location,meta_user_agent,meta_platform,meta_language,meta_locale,meta_time_zone,meta_timezone_offset,meta_screen_width,meta_screen_height,meta_scroll_width,meta_scroll_height,meta_window_inner_width,meta_window_inner_height,meta_device_pixel_ratio,meta_labjs_build_flavor,meta_labjs_build_commit
c4b01,Introduction delayed retrieval,canvas.Screen,0,weiter,keypress(Space),response,1084.54,1040,1074.82,1108.46,2193,2196,2023-03-29T12:14:06Z,2197.18,NA,NA,NA,NA,NA,NA,NA,NA,NA,NULL,115,4,20.2.4,https://neurocog.fernuni.ch/studies/vweber/delayed/index.html?vp=115&sess=4,Mozilla/5.0 (Macintosh; Intel Mac OS X 10.15; rv:109.0) Gecko/20100101 Firefox/111.0,MacIntel,de,de-CH,Europe/Zurich,-120,1440,900,1238,714,1238,762,1,production,f5b4a49f956347addd546a832a3327688c2c0fef
c4b01,Deep Question,html.Page,1_0_0_0,NA,NA,form submission,8797.82,2197,2196.9,2197.18,10995,10996,2023-03-29T12:14:15Z,10992.64,Auftrag,uagizaji,s,ghanima,kuzingatia,msukani,u,NA,NA,NULL,NA,NA,NA,NA,NA,NA,NA,NA,NA,NA,NA,NA,NA,NA,NA,NA,NA,NA,NA
c4b01,Save data screen,canvas.Screen,1_0_0_1,NA,NA,timeout,493.2,11001,10992.26,10992.64,11470.18,11471,2023-03-29T12:14:15Z,11485.84,Auftrag,uagizaji,s,ghanima,kuzingatia,msukani,NA,NA,0,NULL,NA,NA,NA,NA,NA,NA,NA,NA,NA,NA,NA,NA,NA,NA,NA,NA,NA,NA,NA
c4b01,deep,flow.Sequence,1_0_0,NA,NA,completion,9273,2197,2196.9,2197.18,11470.18,11473,2023-03-29T12:14:15Z,11485.84,Auftrag,uagizaji,s,ghanima,kuzingatia,msukani,NA,NA,NA,NULL,NA,NA,NA,NA,NA,NA,NA,NA,NA,NA,NA,NA,NA,NA,NA,NA,NA,NA,NA
c4b01,task,flow.Sequence,1_0,NA,NA,completion,9273,2197,2196.9,2197.18,11470.18,11474,2023-03-29T12:14:15Z,11485.84,Auftrag,uagizaji,s,ghanima,kuzingatia,msukani,NA,NA,NA,NULL,NA,NA,NA,NA,NA,NA,NA,NA,NA,NA,NA,NA,NA,NA,NA,NA,NA,NA,NA
c4b01,Deep Question,html.Page,1_1_0_0,NA,NA,form submission,4965.16,11475,11470.18,11485.84,16451,16451,2023-03-29T12:14:20Z,16448.24,Ausschluss,kutengwa,s,ununuzi,taratibu,madeni,u,NA,NA,NULL,NA,NA,NA,NA,NA,NA,NA,NA,NA,NA,NA,NA,NA,NA,NA,NA,NA,NA,NA
c4b01,Save data screen,canvas.Screen,1_1_0_1,NA,NA,timeout,502.16,16456,16447.68,16448.24,16934.4,16935,2023-03-29T12:14:21Z,16950.4,Ausschluss,kutengwa,s,ununuzi,taratibu,madeni,NA,NA,0,NULL,NA,NA,NA,NA,NA,NA,NA,NA,NA,NA,NA,NA,NA,NA,NA,NA,NA,NA,NA
c4b01,deep,flow.Sequence,1_1_0,NA,NA,completion,5448.56,11474,11470.18,11485.84,16934.4,16936,2023-03-29T12:14:21Z,16950.4,Ausschluss,kutengwa,s,ununuzi,taratibu,madeni,NA,NA,NA,NULL,NA,NA,NA,NA,NA,NA,NA,NA,NA,NA,NA,NA,NA,NA,NA,NA,NA,NA,NA
c4b01,task,flow.Sequence,1_1,NA,NA,completion,5448.56,11474,11470.18,11485.84,16934.4,16937,2023-03-29T12:14:21Z,16950.4,Ausschluss,kutengwa,s,ununuzi,taratibu,madeni,NA,NA,NA,NULL,NA,NA,NA,NA,NA,NA,NA,NA,NA,NA,NA,NA,NA,NA,NA,NA,NA,NA,NA
c4b01,Deep Question,html.Page,1_2_0_0,NA,NA,form submission,5452.6,16938,16934.4,16950.4,22403,22403,2023-03-29T12:14:26Z,22403.04,Beweis,ushahidi,s,marudio,kizuizi,mtendaji,u,NA,NA,NULL,NA,NA,NA,NA,NA,NA,NA,NA,NA,NA,NA,NA,NA,NA,NA,NA,NA,NA,NA
c4b01,Save data screen,canvas.Screen,1_2_0_1,NA,NA,timeout,496.74,22406,22401.92,22403.04,22883.12,22883,2023-03-29T12:14:27Z,22899.78,Beweis,ushahidi,s,marudio,kizuizi,mtendaji,NA,NA,0,NULL,NA,NA,NA,NA,NA,NA,NA,NA,NA,NA,NA,NA,NA,NA,NA,NA,NA,NA,NA
c4b01,deep,flow.Sequence,1_2_0,NA,NA,completion,5932.72,16938,16934.4,16950.4,22883.12,22884,2023-03-29T12:14:27Z,22899.78,Beweis,ushahidi,s,marudio,kizuizi,mtendaji,NA,NA,NA,NULL,NA,NA,NA,NA,NA,NA,NA,NA,NA,NA,NA,NA,NA,NA,NA,NA,NA,NA,NA
c4b01,task,flow.Sequence,1_2,NA,NA,completion,5932.72,16938,16934.4,16950.4,22883.12,22884,2023-03-29T12:14:27Z,22899.78,Beweis,ushahidi,s,marudio,kizuizi,mtendaji,NA,NA,NA,NULL,NA,NA,NA,NA,NA,NA,NA,NA,NA,NA,NA,NA,NA,NA,NA,NA,NA,NA,NA
c4b01,Deep Question,html.Page,1_3_0_0,NA,NA,form submission,15049.22,22884,22883.12,22899.78,37949,37949,2023-03-29T12:14:42Z,37973.48,Wettbewerb,ushindani,s,mapendezi,kichocheo,ubaguzi,m,NA,NA,NULL,NA,NA,NA,NA,NA,NA,NA,NA,NA,NA,NA,NA,NA,NA,NA,NA,NA,NA,NA
c4b01,Save data screen,canvas.Screen,1_3_0_1,NA,NA,timeout,501.57999999999,37962,37936.72,37973.48,38457.78,38459,2023-03-29T12:14:42Z,38475.06,Wettbewerb,ushindani,s,mapendezi,kichocheo,ubaguzi,NA,NA,0,NULL,NA,NA,NA,NA,NA,NA,NA,NA,NA,NA,NA,NA,NA,NA,NA,NA,NA,NA,NA
c4b01,deep,flow.Sequence,1_3_0,NA,NA,completion,15558,22884,22883.12,22899.78,38457.78,38459,2023-03-29T12:14:42Z,38475.06,Wettbewerb,ushindani,s,mapendezi,kichocheo,ubaguzi,NA,NA,NA,NULL,NA,NA,NA,NA,NA,NA,NA,NA,NA,NA,NA,NA,NA,NA,NA,NA,NA,NA,NA
c4b01,task,flow.Sequence,1_3,NA,NA,completion,15558,22884,22883.12,22899.78,38457.78,38459,2023-03-29T12:14:42Z,38475.06,Wettbewerb,ushindani,s,mapendezi,kichocheo,ubaguzi,NA,NA,NA,NULL,NA,NA,NA,NA,NA,NA,NA,NA,NA,NA,NA,NA,NA,NA,NA,NA,NA,NA,NA
c4b01,Deep Question,html.Page,1_4_0_0,NA,NA,form submission,5439.94,38459,38457.78,38475.06,43915,43915,2023-03-29T12:14:48Z,43910.18,Polizist,msongora,s,simanzi,mandhari,nidhamu,m,NA,NA,NULL,NA,NA,NA,NA,NA,NA,NA,NA,NA,NA,NA,NA,NA,NA,NA,NA,NA,NA,NA
c4b01,Save data screen,canvas.Screen,1_4_0_1,NA,NA,timeout,496.82,43917,43909.98,43910.18,44390.28,44403,2023-03-29T12:14:48Z,44407,Polizist,msongora,s,simanzi,mandhari,nidhamu,NA,NA,0,NULL,NA,NA,NA,NA,NA,NA,NA,NA,NA,NA,NA,NA,NA,NA,NA,NA,NA,NA,NA
c4b01,deep,flow.Sequence,1_4_0,NA,NA,completion,5915.22,38459,38457.78,38475.06,44390.28,44404,2023-03-29T12:14:48Z,44407,Polizist,msongora,s,simanzi,mandhari,nidhamu,NA,NA,NA,NULL,NA,NA,NA,NA,NA,NA,NA,NA,NA,NA,NA,NA,NA,NA,NA,NA,NA,NA,NA
c4b01,task,flow.Sequence,1_4,NA,NA,completion,5915.22,38459,38457.78,38475.06,44390.28,44404,2023-03-29T12:14:48Z,44407,Polizist,msongora,s,simanzi,mandhari,nidhamu,NA,NA,NA,NULL,NA,NA,NA,NA,NA,NA,NA,NA,NA,NA,NA,NA,NA,NA,NA,NA,NA,NA,NA
c4b01,Deep Question,html.Page,1_5_0_0,NA,NA,form submission,106750,44404,44390.28,44407,151157,151158,2023-03-29T12:16:35Z,151175.72,Schönheit,kirembo,d,mahojiano,msisimko,jitihadi,usulubu,NA,NA,NULL,NA,NA,NA,NA,NA,NA,NA,NA,NA,NA,NA,NA,NA,NA,NA,NA,NA,NA,NA
c4b01,Save data screen,canvas.Screen,1_5_0_1,NA,NA,timeout,501.20000000001,151163,151148.48,151175.72,151661.2,151663,2023-03-29T12:16:35Z,151676.92,Schönheit,kirembo,d,mahojiano,msisimko,jitihadi,NA,NA,0,NULL,NA,NA,NA,NA,NA,NA,NA,NA,NA,NA,NA,NA,NA,NA,NA,NA,NA,NA,NA
c4b01,deep,flow.Sequence,1_5_0,NA,NA,completion,107254.2,44404,44390.28,44407,151661.2,151664,2023-03-29T12:16:35Z,151676.92,Schönheit,kirembo,d,mahojiano,msisimko,jitihadi,NA,NA,NA,NULL,NA,NA,NA,NA,NA,NA,NA,NA,NA,NA,NA,NA,NA,NA,NA,NA,NA,NA,NA
c4b01,task,flow.Sequence,1_5,NA,NA,completion,107254.2,44404,44390.28,44407,151661.2,151665,2023-03-29T12:16:35Z,151676.92,Schönheit,kirembo,d,mahojiano,msisimko,jitihadi,NA,NA,NA,NULL,NA,NA,NA,NA,NA,NA,NA,NA,NA,NA,NA,NA,NA,NA,NA,NA,NA,NA,NA
c4b01,Deep Question,html.Page,1_6_0_0,NA,NA,form submission,5326.08,151665,151661.2,151676.92,157003,157004,2023-03-29T12:16:41Z,157025.6,Annäherung,maegesho,d,madahili,kujiamini,mapendekezo,m,NA,NA,NULL,NA,NA,NA,NA,NA,NA,NA,NA,NA,NA,NA,NA,NA,NA,NA,NA,NA,NA,NA
c4b01,Save data screen,canvas.Screen,1_6_0_1,NA,NA,timeout,500.54000000001,157009,156996.28,157025.6,157509.28,157510,2023-03-29T12:16:41Z,157526.14,Annäherung,maegesho,d,madahili,kujiamini,mapendekezo,NA,NA,0,NULL,NA,NA,NA,NA,NA,NA,NA,NA,NA,NA,NA,NA,NA,NA,NA,NA,NA,NA,NA
c4b01,deep,flow.Sequence,1_6_0,NA,NA,completion,5832.36,151665,151661.2,151676.92,157509.28,157511,2023-03-29T12:16:41Z,157526.14,Annäherung,maegesho,d,madahili,kujiamini,mapendekezo,NA,NA,NA,NULL,NA,NA,NA,NA,NA,NA,NA,NA,NA,NA,NA,NA,NA,NA,NA,NA,NA,NA,NA
c4b01,task,flow.Sequence,1_6,NA,NA,completion,5832.36,151665,151661.2,151676.92,157509.28,157512,2023-03-29T12:16:41Z,157526.14,Annäherung,maegesho,d,madahili,kujiamini,mapendekezo,NA,NA,NA,NULL,NA,NA,NA,NA,NA,NA,NA,NA,NA,NA,NA,NA,NA,NA,NA,NA,NA,NA,NA
c4b01,Deep Question,html.Page,1_7_0_0,NA,NA,form submission,3787.86,157513,157509.28,157526.14,161314,161315,2023-03-29T12:16:45Z,161319.24,Konkurrent,mshindani,s,msemaji,mvutaji,kipukusa,m,NA,NA,NULL,NA,NA,NA,NA,NA,NA,NA,NA,NA,NA,NA,NA,NA,NA,NA,NA,NA,NA,NA
c4b01,Save data screen,canvas.Screen,1_7_0_1,NA,NA,timeout,502.14000000001,161318,161307.7,161319.24,161804.44,161805,2023-03-29T12:16:46Z,161821.38,Konkurrent,mshindani,s,msemaji,mvutaji,kipukusa,NA,NA,0,NULL,NA,NA,NA,NA,NA,NA,NA,NA,NA,NA,NA,NA,NA,NA,NA,NA,NA,NA,NA
c4b01,deep,flow.Sequence,1_7_0,NA,NA,completion,4278.3,157513,157509.28,157526.14,161804.44,161806,2023-03-29T12:16:46Z,161821.38,Konkurrent,mshindani,s,msemaji,mvutaji,kipukusa,NA,NA,NA,NULL,NA,NA,NA,NA,NA,NA,NA,NA,NA,NA,NA,NA,NA,NA,NA,NA,NA,NA,NA
c4b01,task,flow.Sequence,1_7,NA,NA,completion,4278.3,157512,157509.28,157526.14,161804.44,161807,2023-03-29T12:16:46Z,161821.38,Konkurrent,mshindani,s,msemaji,mvutaji,kipukusa,NA,NA,NA,NULL,NA,NA,NA,NA,NA,NA,NA,NA,NA,NA,NA,NA,NA,NA,NA,NA,NA,NA,NA
c4b01,Deep Question,html.Page,1_8_0_0,NA,NA,form submission,2997.62,161807,161804.44,161821.38,164819,164820,2023-03-29T12:16:49Z,164828.74,Vorsorge,tahadhari,s,ufafanuzi,makini,mashambani,u,NA,NA,NULL,NA,NA,NA,NA,NA,NA,NA,NA,NA,NA,NA,NA,NA,NA,NA,NA,NA,NA,NA
c4b01,Save data screen,canvas.Screen,1_8_0_1,NA,NA,timeout,501.64000000001,164821,164816.02,164828.74,165314.16,165316,2023-03-29T12:16:49Z,165330.38,Vorsorge,tahadhari,s,ufafanuzi,makini,mashambani,NA,NA,0,NULL,NA,NA,NA,NA,NA,NA,NA,NA,NA,NA,NA,NA,NA,NA,NA,NA,NA,NA,NA
c4b01,deep,flow.Sequence,1_8_0,NA,NA,completion,3492.78,161807,161804.44,161821.38,165314.16,165316,2023-03-29T12:16:49Z,165330.38,Vorsorge,tahadhari,s,ufafanuzi,makini,mashambani,NA,NA,NA,NULL,NA,NA,NA,NA,NA,NA,NA,NA,NA,NA,NA,NA,NA,NA,NA,NA,NA,NA,NA
c4b01,task,flow.Sequence,1_8,NA,NA,completion,3492.78,161807,161804.44,161821.38,165314.16,165316,2023-03-29T12:16:49Z,165330.38,Vorsorge,tahadhari,s,ufafanuzi,makini,mashambani,NA,NA,NA,NULL,NA,NA,NA,NA,NA,NA,NA,NA,NA,NA,NA,NA,NA,NA,NA,NA,NA,NA,NA
c4b01,Deep Question,html.Page,1_9_0_0,NA,NA,form submission,17090.62,165317,165314.16,165330.38,182421,182421,2023-03-29T12:17:06Z,182420.08,Gelegenheit,wakati,s,mchanganyiko,kipaumbele,kushuku,u,NA,NA,NULL,NA,NA,NA,NA,NA,NA,NA,NA,NA,NA,NA,NA,NA,NA,NA,NA,NA,NA,NA
c4b01,Save data screen,canvas.Screen,1_9_0_1,NA,NA,timeout,506.96000000002,182424,182419.6,182420.08,182910.56,182911,2023-03-29T12:17:07Z,182927.04,Gelegenheit,wakati,s,mchanganyiko,kipaumbele,kushuku,NA,NA,0,NULL,NA,NA,NA,NA,NA,NA,NA,NA,NA,NA,NA,NA,NA,NA,NA,NA,NA,NA,NA
c4b01,deep,flow.Sequence,1_9_0,NA,NA,completion,17580.18,165317,165314.16,165330.38,182910.56,182912,2023-03-29T12:17:07Z,182927.04,Gelegenheit,wakati,s,mchanganyiko,kipaumbele,kushuku,NA,NA,NA,NULL,NA,NA,NA,NA,NA,NA,NA,NA,NA,NA,NA,NA,NA,NA,NA,NA,NA,NA,NA
c4b01,task,flow.Sequence,1_9,NA,NA,completion,17580.18,165317,165314.16,165330.38,182910.56,182912,2023-03-29T12:17:07Z,182927.04,Gelegenheit,wakati,s,mchanganyiko,kipaumbele,kushuku,NA,NA,NA,NULL,NA,NA,NA,NA,NA,NA,NA,NA,NA,NA,NA,NA,NA,NA,NA,NA,NA,NA,NA
c4b01,Deep Question,html.Page,1_10_0_0,NA,NA,form submission,44521.96,182913,182910.56,182927.04,227449,227451,2023-03-29T12:17:51Z,227447.38,Verstand,ufahamivu,d,shakawa,hadhari,mhandisi,m,NA,NA,NULL,NA,NA,NA,NA,NA,NA,NA,NA,NA,NA,NA,NA,NA,NA,NA,NA,NA,NA,NA
c4b01,Save data screen,canvas.Screen,1_10_0_1,NA,NA,timeout,499.89999999999,227456,227446.68,227447.38,227931.6,227933,2023-03-29T12:17:52Z,227947.28,Verstand,ufahamivu,d,shakawa,hadhari,mhandisi,NA,NA,0,NULL,NA,NA,NA,NA,NA,NA,NA,NA,NA,NA,NA,NA,NA,NA,NA,NA,NA,NA,NA
c4b01,deep,flow.Sequence,1_10_0,NA,NA,completion,45004.56,182912,182910.56,182927.04,227931.6,227934,2023-03-29T12:17:52Z,227947.28,Verstand,ufahamivu,d,shakawa,hadhari,mhandisi,NA,NA,NA,NULL,NA,NA,NA,NA,NA,NA,NA,NA,NA,NA,NA,NA,NA,NA,NA,NA,NA,NA,NA
c4b01,task,flow.Sequence,1_10,NA,NA,completion,45004.56,182912,182910.56,182927.04,227931.6,227935,2023-03-29T12:17:52Z,227947.28,Verstand,ufahamivu,d,shakawa,hadhari,mhandisi,NA,NA,NA,NULL,NA,NA,NA,NA,NA,NA,NA,NA,NA,NA,NA,NA,NA,NA,NA,NA,NA,NA,NA
c4b01,Deep Question,html.Page,1_11_0_0,NA,NA,form submission,4837.72,227937,227931.6,227947.28,232785,232786,2023-03-29T12:17:57Z,232784.02,Zufall,kikuti,d,kukosekana,uchoraji,leseni,u,NA,NA,NULL,NA,NA,NA,NA,NA,NA,NA,NA,NA,NA,NA,NA,NA,NA,NA,NA,NA,NA,NA
c4b01,Save data screen,canvas.Screen,1_11_0_1,NA,NA,timeout,494.14000000001,232789,232783.48,232784.02,233262.16,233263,2023-03-29T12:17:57Z,233278.16,Zufall,kikuti,d,kukosekana,uchoraji,leseni,NA,NA,0,NULL,NA,NA,NA,NA,NA,NA,NA,NA,NA,NA,NA,NA,NA,NA,NA,NA,NA,NA,NA
c4b01,deep,flow.Sequence,1_11_0,NA,NA,completion,5314.88,227936,227931.6,227947.28,233262.16,233264,2023-03-29T12:17:57Z,233278.16,Zufall,kikuti,d,kukosekana,uchoraji,leseni,NA,NA,NA,NULL,NA,NA,NA,NA,NA,NA,NA,NA,NA,NA,NA,NA,NA,NA,NA,NA,NA,NA,NA
c4b01,task,flow.Sequence,1_11,NA,NA,completion,5314.88,227936,227931.6,227947.28,233262.16,233265,2023-03-29T12:17:57Z,233278.16,Zufall,kikuti,d,kukosekana,uchoraji,leseni,NA,NA,NA,NULL,NA,NA,NA,NA,NA,NA,NA,NA,NA,NA,NA,NA,NA,NA,NA,NA,NA,NA,NA
c4b01,Deep Question,html.Page,1_12_0_0,NA,NA,form submission,5894.84,233265,233262.16,233278.16,239173,239173,2023-03-29T12:18:03Z,239174.56,Zuwachs,nyongeza,d,matilaba,udhibiti,hudhurio,m,NA,NA,NULL,NA,NA,NA,NA,NA,NA,NA,NA,NA,NA,NA,NA,NA,NA,NA,NA,NA,NA,NA
c4b01,Save data screen,canvas.Screen,1_12_0_1,NA,NA,timeout,503.98000000001,239177,239171.56,239174.56,239662.86,239664,2023-03-29T12:18:03Z,239678.54,Zuwachs,nyongeza,d,matilaba,udhibiti,hudhurio,NA,NA,0,NULL,NA,NA,NA,NA,NA,NA,NA,NA,NA,NA,NA,NA,NA,NA,NA,NA,NA,NA,NA
c4b01,deep,flow.Sequence,1_12_0,NA,NA,completion,6384.7,233265,233262.16,233278.16,239662.86,239665,2023-03-29T12:18:03Z,239678.54,Zuwachs,nyongeza,d,matilaba,udhibiti,hudhurio,NA,NA,NA,NULL,NA,NA,NA,NA,NA,NA,NA,NA,NA,NA,NA,NA,NA,NA,NA,NA,NA,NA,NA
c4b01,task,flow.Sequence,1_12,NA,NA,completion,6384.7,233265,233262.16,233278.16,239662.86,239665,2023-03-29T12:18:03Z,239678.54,Zuwachs,nyongeza,d,matilaba,udhibiti,hudhurio,NA,NA,NA,NULL,NA,NA,NA,NA,NA,NA,NA,NA,NA,NA,NA,NA,NA,NA,NA,NA,NA,NA,NA
c4b01,Deep Question,html.Page,1_13_0_0,NA,NA,form submission,4671.46,239666,239662.86,239678.54,244350,244351,2023-03-29T12:18:08Z,244349.54,Sympathie,mapendano,d,dhamiria,fungamano,maazimio,n,NA,NA,NULL,NA,NA,NA,NA,NA,NA,NA,NA,NA,NA,NA,NA,NA,NA,NA,NA,NA,NA,NA
c4b01,Save data screen,canvas.Screen,1_13_0_1,NA,NA,timeout,492.94,244353,244349.16,244349.54,244826.56,244828,2023-03-29T12:18:09Z,244842.48,Sympathie,mapendano,d,dhamiria,fungamano,maazimio,NA,NA,0,NULL,NA,NA,NA,NA,NA,NA,NA,NA,NA,NA,NA,NA,NA,NA,NA,NA,NA,NA,NA
c4b01,deep,flow.Sequence,1_13_0,NA,NA,completion,5148.02,239666,239662.86,239678.54,244826.56,244828,2023-03-29T12:18:09Z,244842.48,Sympathie,mapendano,d,dhamiria,fungamano,maazimio,NA,NA,NA,NULL,NA,NA,NA,NA,NA,NA,NA,NA,NA,NA,NA,NA,NA,NA,NA,NA,NA,NA,NA
c4b01,task,flow.Sequence,1_13,NA,NA,completion,5148.02,239666,239662.86,239678.54,244826.56,244828,2023-03-29T12:18:09Z,244842.48,Sympathie,mapendano,d,dhamiria,fungamano,maazimio,NA,NA,NA,NULL,NA,NA,NA,NA,NA,NA,NA,NA,NA,NA,NA,NA,NA,NA,NA,NA,NA,NA,NA
c4b01,Deep Question,html.Page,1_14_0_0,NA,NA,form submission,16068.52,244829,244826.56,244842.48,260911,260912,2023-03-29T12:18:25Z,260913.14,Symbol,kielezo,d,kinyume,nderemo,utayari,ishara,NA,NA,NULL,NA,NA,NA,NA,NA,NA,NA,NA,NA,NA,NA,NA,NA,NA,NA,NA,NA,NA,NA
c4b01,Save data screen,canvas.Screen,1_14_0_1,NA,NA,timeout,507.31999999998,260917,260909.48,260913.14,261404.22,261405,2023-03-29T12:18:25Z,261420.46,Symbol,kielezo,d,kinyume,nderemo,utayari,NA,NA,0,NULL,NA,NA,NA,NA,NA,NA,NA,NA,NA,NA,NA,NA,NA,NA,NA,NA,NA,NA,NA
c4b01,deep,flow.Sequence,1_14_0,NA,NA,completion,16561.74,244829,244826.56,244842.48,261404.22,261405,2023-03-29T12:18:25Z,261420.46,Symbol,kielezo,d,kinyume,nderemo,utayari,NA,NA,NA,NULL,NA,NA,NA,NA,NA,NA,NA,NA,NA,NA,NA,NA,NA,NA,NA,NA,NA,NA,NA
c4b01,task,flow.Sequence,1_14,NA,NA,completion,16561.74,244829,244826.56,244842.48,261404.22,261406,2023-03-29T12:18:25Z,261420.46,Symbol,kielezo,d,kinyume,nderemo,utayari,NA,NA,NA,NULL,NA,NA,NA,NA,NA,NA,NA,NA,NA,NA,NA,NA,NA,NA,NA,NA,NA,NA,NA
c4b01,Deep Question,html.Page,1_15_0_0,NA,NA,form submission,26066.54,261407,261404.22,261420.46,287487,287488,2023-03-29T12:18:51Z,287485.96,Widerstand,usulubu,d,kusababisha,mwalimu,mwenendo,k,NA,NA,NULL,NA,NA,NA,NA,NA,NA,NA,NA,NA,NA,NA,NA,NA,NA,NA,NA,NA,NA,NA
c4b01,Save data screen,canvas.Screen,1_15_0_1,NA,NA,timeout,505.71999999997,287493,287485.46,287485.96,287975.42,287977,2023-03-29T12:18:52Z,287991.68,Widerstand,usulubu,d,kusababisha,mwalimu,mwenendo,NA,NA,0,NULL,NA,NA,NA,NA,NA,NA,NA,NA,NA,NA,NA,NA,NA,NA,NA,NA,NA,NA,NA
c4b01,deep,flow.Sequence,1_15_0,NA,NA,completion,26554.96,261407,261404.22,261420.46,287975.42,287977,2023-03-29T12:18:52Z,287991.68,Widerstand,usulubu,d,kusababisha,mwalimu,mwenendo,NA,NA,NA,NULL,NA,NA,NA,NA,NA,NA,NA,NA,NA,NA,NA,NA,NA,NA,NA,NA,NA,NA,NA
c4b01,task,flow.Sequence,1_15,NA,NA,completion,26554.96,261406,261404.22,261420.46,287975.42,287978,2023-03-29T12:18:52Z,287991.68,Widerstand,usulubu,d,kusababisha,mwalimu,mwenendo,NA,NA,NA,NULL,NA,NA,NA,NA,NA,NA,NA,NA,NA,NA,NA,NA,NA,NA,NA,NA,NA,NA,NA
c4b01,retrieval block 1 (cued recall),flow.Loop,1,NA,NA,completion,285778.24,2197,2196.9,2197.18,287975.42,287978,2023-03-29T12:18:52Z,287991.68,NA,NA,NA,NA,NA,NA,NA,NA,NA,NULL,NA,NA,NA,NA,NA,NA,NA,NA,NA,NA,NA,NA,NA,NA,NA,NA,NA,NA,NA
c4b01,Shallow Question,html.Page,2_0_0_0,NA,NA,form submission,10368.32,287979,287975.42,287991.68,298360,298360,2023-03-29T12:19:02Z,298368.74,Zuwachs,nyongeza,d,matilaba,udhibiti,hudhurio,udhibiti,NA,NA,"c(""distractor1"", ""distractor2"", ""distractor3"")",NA,NA,NA,NA,NA,NA,NA,NA,NA,NA,NA,NA,NA,NA,NA,NA,NA,NA,NA
c4b01,Save data screen,canvas.Screen,2_0_0_1,NA,NA,timeout,502.26000000001,298364,298356.7,298368.74,298854.42,298855,2023-03-29T12:19:03Z,298871,Zuwachs,nyongeza,d,matilaba,udhibiti,hudhurio,NA,NA,0,"c(""distractor1"", ""distractor2"", ""distractor3"")",NA,NA,NA,NA,NA,NA,NA,NA,NA,NA,NA,NA,NA,NA,NA,NA,NA,NA,NA
c4b01,shallow,flow.Sequence,2_0_0,NA,NA,completion,10862.74,287979,287975.42,287991.68,298854.42,298856,2023-03-29T12:19:03Z,298871,Zuwachs,nyongeza,d,matilaba,udhibiti,hudhurio,NA,NA,NA,"c(""distractor1"", ""distractor2"", ""distractor3"")",NA,NA,NA,NA,NA,NA,NA,NA,NA,NA,NA,NA,NA,NA,NA,NA,NA,NA,NA
c4b01,task,flow.Sequence,2_0,NA,NA,completion,10862.74,287979,287975.42,287991.68,298854.42,298857,2023-03-29T12:19:03Z,298871,Zuwachs,nyongeza,d,matilaba,udhibiti,hudhurio,NA,NA,NA,"c(""distractor1"", ""distractor2"", ""distractor3"")",NA,NA,NA,NA,NA,NA,NA,NA,NA,NA,NA,NA,NA,NA,NA,NA,NA,NA,NA
c4b01,Shallow Question,html.Page,2_1_0_0,NA,NA,form submission,6242,298858,298854.42,298871,305113,305114,2023-03-29T12:19:09Z,305108.9,Annäherung,maegesho,d,madahili,kujiamini,mapendekezo,maegesho,NA,NA,"c(""distractor1"", ""distractor2"", ""distractor3"")",NA,NA,NA,NA,NA,NA,NA,NA,NA,NA,NA,NA,NA,NA,NA,NA,NA,NA,NA
c4b01,Save data screen,canvas.Screen,2_1_0_1,NA,NA,timeout,496.06,305116,305108.6,305108.9,305588.22,305589,2023-03-29T12:19:09Z,305604.96,Annäherung,maegesho,d,madahili,kujiamini,mapendekezo,NA,NA,1,"c(""distractor1"", ""distractor2"", ""distractor3"")",NA,NA,NA,NA,NA,NA,NA,NA,NA,NA,NA,NA,NA,NA,NA,NA,NA,NA,NA
c4b01,shallow,flow.Sequence,2_1_0,NA,NA,completion,6717.22,298858,298854.42,298871,305588.22,305589,2023-03-29T12:19:09Z,305604.96,Annäherung,maegesho,d,madahili,kujiamini,mapendekezo,NA,NA,NA,"c(""distractor1"", ""distractor2"", ""distractor3"")",NA,NA,NA,NA,NA,NA,NA,NA,NA,NA,NA,NA,NA,NA,NA,NA,NA,NA,NA
c4b01,task,flow.Sequence,2_1,NA,NA,completion,6717.22,298858,298854.42,298871,305588.22,305590,2023-03-29T12:19:09Z,305604.96,Annäherung,maegesho,d,madahili,kujiamini,mapendekezo,NA,NA,NA,"c(""distractor1"", ""distractor2"", ""distractor3"")",NA,NA,NA,NA,NA,NA,NA,NA,NA,NA,NA,NA,NA,NA,NA,NA,NA,NA,NA
c4b01,Shallow Question,html.Page,2_2_0_0,NA,NA,form submission,4606.04,305591,305588.22,305604.96,310211,310211,2023-03-29T12:19:14Z,310234.66,Wettbewerb,ushindani,s,mapendezi,kichocheo,ubaguzi,kichocheo,NA,NA,"c(""distractor1"", ""distractor2"", ""distractor3"")",NA,NA,NA,NA,NA,NA,NA,NA,NA,NA,NA,NA,NA,NA,NA,NA,NA,NA,NA
c4b01,Save data screen,canvas.Screen,2_2_0_1,NA,NA,timeout,500.38,310212,310206.44,310234.66,310719.38,310720,2023-03-29T12:19:14Z,310735.04,Wettbewerb,ushindani,s,mapendezi,kichocheo,ubaguzi,NA,NA,0,"c(""distractor1"", ""distractor2"", ""distractor3"")",NA,NA,NA,NA,NA,NA,NA,NA,NA,NA,NA,NA,NA,NA,NA,NA,NA,NA,NA
c4b01,shallow,flow.Sequence,2_2_0,NA,NA,completion,5114.42,305590,305588.22,305604.96,310719.38,310721,2023-03-29T12:19:14Z,310735.04,Wettbewerb,ushindani,s,mapendezi,kichocheo,ubaguzi,NA,NA,NA,"c(""distractor1"", ""distractor2"", ""distractor3"")",NA,NA,NA,NA,NA,NA,NA,NA,NA,NA,NA,NA,NA,NA,NA,NA,NA,NA,NA
c4b01,task,flow.Sequence,2_2,NA,NA,completion,5114.42,305590,305588.22,305604.96,310719.38,310721,2023-03-29T12:19:14Z,310735.04,Wettbewerb,ushindani,s,mapendezi,kichocheo,ubaguzi,NA,NA,NA,"c(""distractor1"", ""distractor2"", ""distractor3"")",NA,NA,NA,NA,NA,NA,NA,NA,NA,NA,NA,NA,NA,NA,NA,NA,NA,NA,NA
c4b01,Shallow Question,html.Page,2_3_0_0,NA,NA,form submission,8015.96,310722,310719.38,310735.04,318751,318752,2023-03-29T12:19:23Z,318745.02,Sympathie,mapendano,d,dhamiria,fungamano,maazimio,mapendano,NA,NA,"c(""distractor1"", ""distractor2"", ""distractor3"")",NA,NA,NA,NA,NA,NA,NA,NA,NA,NA,NA,NA,NA,NA,NA,NA,NA,NA,NA
c4b01,Save data screen,canvas.Screen,2_3_0_1,NA,NA,timeout,496.13999999996,318754,318744.9,318745.02,319225.12,319225,2023-03-29T12:19:23Z,319241.16,Sympathie,mapendano,d,dhamiria,fungamano,maazimio,NA,NA,1,"c(""distractor1"", ""distractor2"", ""distractor3"")",NA,NA,NA,NA,NA,NA,NA,NA,NA,NA,NA,NA,NA,NA,NA,NA,NA,NA,NA
c4b01,shallow,flow.Sequence,2_3_0,NA,NA,completion,8490.08,310722,310719.38,310735.04,319225.12,319226,2023-03-29T12:19:23Z,319241.16,Sympathie,mapendano,d,dhamiria,fungamano,maazimio,NA,NA,NA,"c(""distractor1"", ""distractor2"", ""distractor3"")",NA,NA,NA,NA,NA,NA,NA,NA,NA,NA,NA,NA,NA,NA,NA,NA,NA,NA,NA
c4b01,task,flow.Sequence,2_3,NA,NA,completion,8490.08,310721,310719.38,310735.04,319225.12,319226,2023-03-29T12:19:23Z,319241.16,Sympathie,mapendano,d,dhamiria,fungamano,maazimio,NA,NA,NA,"c(""distractor1"", ""distractor2"", ""distractor3"")",NA,NA,NA,NA,NA,NA,NA,NA,NA,NA,NA,NA,NA,NA,NA,NA,NA,NA,NA
c4b01,Shallow Question,html.Page,2_4_0_0,NA,NA,form submission,3968.84,319227,319225.12,319241.16,323210,323210,2023-03-29T12:19:27Z,323218.42,Polizist,msongora,s,simanzi,mandhari,nidhamu,mandhari,NA,NA,"c(""distractor1"", ""distractor2"", ""distractor3"")",NA,NA,NA,NA,NA,NA,NA,NA,NA,NA,NA,NA,NA,NA,NA,NA,NA,NA,NA
c4b01,Save data screen,canvas.Screen,2_4_0_1,NA,NA,timeout,501.96000000002,323213,323207.38,323218.42,323704.12,323705,2023-03-29T12:19:27Z,323720.38,Polizist,msongora,s,simanzi,mandhari,nidhamu,NA,NA,0,"c(""distractor1"", ""distractor2"", ""distractor3"")",NA,NA,NA,NA,NA,NA,NA,NA,NA,NA,NA,NA,NA,NA,NA,NA,NA,NA,NA
c4b01,shallow,flow.Sequence,2_4_0,NA,NA,completion,4462.96,319227,319225.12,319241.16,323704.12,323705,2023-03-29T12:19:27Z,323720.38,Polizist,msongora,s,simanzi,mandhari,nidhamu,NA,NA,NA,"c(""distractor1"", ""distractor2"", ""distractor3"")",NA,NA,NA,NA,NA,NA,NA,NA,NA,NA,NA,NA,NA,NA,NA,NA,NA,NA,NA
c4b01,task,flow.Sequence,2_4,NA,NA,completion,4462.96,319227,319225.12,319241.16,323704.12,323706,2023-03-29T12:19:27Z,323720.38,Polizist,msongora,s,simanzi,mandhari,nidhamu,NA,NA,NA,"c(""distractor1"", ""distractor2"", ""distractor3"")",NA,NA,NA,NA,NA,NA,NA,NA,NA,NA,NA,NA,NA,NA,NA,NA,NA,NA,NA
c4b01,Shallow Question,html.Page,2_5_0_0,NA,NA,form submission,6778.62,323706,323704.12,323720.38,330499,330499,2023-03-29T12:19:34Z,330493.02,Beweis,ushahidi,s,marudio,kizuizi,mtendaji,ushahidi,NA,NA,"c(""distractor1"", ""distractor2"", ""distractor3"")",NA,NA,NA,NA,NA,NA,NA,NA,NA,NA,NA,NA,NA,NA,NA,NA,NA,NA,NA
c4b01,Save data screen,canvas.Screen,2_5_0_1,NA,NA,timeout,497.01999999996,330502,330492.86,330493.02,330972.68,330974,2023-03-29T12:19:35Z,330990.04,Beweis,ushahidi,s,marudio,kizuizi,mtendaji,NA,NA,1,"c(""distractor1"", ""distractor2"", ""distractor3"")",NA,NA,NA,NA,NA,NA,NA,NA,NA,NA,NA,NA,NA,NA,NA,NA,NA,NA,NA
c4b01,shallow,flow.Sequence,2_5_0,NA,NA,completion,7252.3,323706,323704.12,323720.38,330972.68,330975,2023-03-29T12:19:35Z,330990.04,Beweis,ushahidi,s,marudio,kizuizi,mtendaji,NA,NA,NA,"c(""distractor1"", ""distractor2"", ""distractor3"")",NA,NA,NA,NA,NA,NA,NA,NA,NA,NA,NA,NA,NA,NA,NA,NA,NA,NA,NA
c4b01,task,flow.Sequence,2_5,NA,NA,completion,7252.3,323706,323704.12,323720.38,330972.68,330975,2023-03-29T12:19:35Z,330990.04,Beweis,ushahidi,s,marudio,kizuizi,mtendaji,NA,NA,NA,"c(""distractor1"", ""distractor2"", ""distractor3"")",NA,NA,NA,NA,NA,NA,NA,NA,NA,NA,NA,NA,NA,NA,NA,NA,NA,NA,NA
c4b01,Shallow Question,html.Page,2_6_0_0,NA,NA,form submission,5992.96,330976,330972.68,330990.04,336983,336983,2023-03-29T12:19:41Z,336977.92,Auftrag,uagizaji,s,ghanima,kuzingatia,msukani,uagizaji,NA,NA,"c(""distractor1"", ""distractor2"", ""distractor3"")",NA,NA,NA,NA,NA,NA,NA,NA,NA,NA,NA,NA,NA,NA,NA,NA,NA,NA,NA
c4b01,Save data screen,canvas.Screen,2_6_0_1,NA,NA,timeout,495.26000000001,336985,336977.84,336977.92,337457.48,337459,2023-03-29T12:19:41Z,337473.18,Auftrag,uagizaji,s,ghanima,kuzingatia,msukani,NA,NA,1,"c(""distractor1"", ""distractor2"", ""distractor3"")",NA,NA,NA,NA,NA,NA,NA,NA,NA,NA,NA,NA,NA,NA,NA,NA,NA,NA,NA
c4b01,shallow,flow.Sequence,2_6_0,NA,NA,completion,6467.44,330975,330972.68,330990.04,337457.48,337459,2023-03-29T12:19:41Z,337473.18,Auftrag,uagizaji,s,ghanima,kuzingatia,msukani,NA,NA,NA,"c(""distractor1"", ""distractor2"", ""distractor3"")",NA,NA,NA,NA,NA,NA,NA,NA,NA,NA,NA,NA,NA,NA,NA,NA,NA,NA,NA
c4b01,task,flow.Sequence,2_6,NA,NA,completion,6467.44,330975,330972.68,330990.04,337457.48,337460,2023-03-29T12:19:41Z,337473.18,Auftrag,uagizaji,s,ghanima,kuzingatia,msukani,NA,NA,NA,"c(""distractor1"", ""distractor2"", ""distractor3"")",NA,NA,NA,NA,NA,NA,NA,NA,NA,NA,NA,NA,NA,NA,NA,NA,NA,NA,NA
c4b01,Shallow Question,html.Page,2_7_0_0,NA,NA,form submission,6022.82,337460,337457.48,337473.18,343496,343496,2023-03-29T12:19:47Z,343506,Schönheit,kirembo,d,mahojiano,msisimko,jitihadi,kirembo,NA,NA,"c(""distractor1"", ""distractor2"", ""distractor3"")",NA,NA,NA,NA,NA,NA,NA,NA,NA,NA,NA,NA,NA,NA,NA,NA,NA,NA,NA
c4b01,Save data screen,canvas.Screen,2_7_0_1,NA,NA,timeout,501.29999999999,343499,343493.54,343506,343991.08,343992,2023-03-29T12:19:48Z,344007.3,Schönheit,kirembo,d,mahojiano,msisimko,jitihadi,NA,NA,1,"c(""distractor1"", ""distractor2"", ""distractor3"")",NA,NA,NA,NA,NA,NA,NA,NA,NA,NA,NA,NA,NA,NA,NA,NA,NA,NA,NA
c4b01,shallow,flow.Sequence,2_7_0,NA,NA,completion,6517.9,337460,337457.48,337473.18,343991.08,343992,2023-03-29T12:19:48Z,344007.3,Schönheit,kirembo,d,mahojiano,msisimko,jitihadi,NA,NA,NA,"c(""distractor1"", ""distractor2"", ""distractor3"")",NA,NA,NA,NA,NA,NA,NA,NA,NA,NA,NA,NA,NA,NA,NA,NA,NA,NA,NA
c4b01,task,flow.Sequence,2_7,NA,NA,completion,6517.9,337460,337457.48,337473.18,343991.08,343993,2023-03-29T12:19:48Z,344007.3,Schönheit,kirembo,d,mahojiano,msisimko,jitihadi,NA,NA,NA,"c(""distractor1"", ""distractor2"", ""distractor3"")",NA,NA,NA,NA,NA,NA,NA,NA,NA,NA,NA,NA,NA,NA,NA,NA,NA,NA,NA
c4b01,Shallow Question,html.Page,2_8_0_0,NA,NA,form submission,6624.7,343993,343991.08,344007.3,350632,350633,2023-03-29T12:19:54Z,350642.38,Verstand,ufahamivu,d,shakawa,hadhari,mhandisi,hadhari,NA,NA,"c(""distractor1"", ""distractor2"", ""distractor3"")",NA,NA,NA,NA,NA,NA,NA,NA,NA,NA,NA,NA,NA,NA,NA,NA,NA,NA,NA
c4b01,Save data screen,canvas.Screen,2_8_0_1,NA,NA,timeout,500.53999999998,350635,350629.68,350642.38,351126.56,351127,2023-03-29T12:19:55Z,351142.92,Verstand,ufahamivu,d,shakawa,hadhari,mhandisi,NA,NA,0,"c(""distractor1"", ""distractor2"", ""distractor3"")",NA,NA,NA,NA,NA,NA,NA,NA,NA,NA,NA,NA,NA,NA,NA,NA,NA,NA,NA
c4b01,shallow,flow.Sequence,2_8_0,NA,NA,completion,7119.26,343993,343991.08,344007.3,351126.56,351128,2023-03-29T12:19:55Z,351142.92,Verstand,ufahamivu,d,shakawa,hadhari,mhandisi,NA,NA,NA,"c(""distractor1"", ""distractor2"", ""distractor3"")",NA,NA,NA,NA,NA,NA,NA,NA,NA,NA,NA,NA,NA,NA,NA,NA,NA,NA,NA
c4b01,task,flow.Sequence,2_8,NA,NA,completion,7119.26,343993,343991.08,344007.3,351126.56,351128,2023-03-29T12:19:55Z,351142.92,Verstand,ufahamivu,d,shakawa,hadhari,mhandisi,NA,NA,NA,"c(""distractor1"", ""distractor2"", ""distractor3"")",NA,NA,NA,NA,NA,NA,NA,NA,NA,NA,NA,NA,NA,NA,NA,NA,NA,NA,NA
c4b01,Shallow Question,html.Page,2_9_0_0,NA,NA,form submission,10477.08,351129,351126.56,351142.92,361620,361622,2023-03-29T12:20:05Z,361637.7,Vorsorge,tahadhari,s,ufafanuzi,makini,mashambani,tahadhari,NA,NA,"c(""distractor1"", ""distractor2"", ""distractor3"")",NA,NA,NA,NA,NA,NA,NA,NA,NA,NA,NA,NA,NA,NA,NA,NA,NA,NA,NA
c4b01,Save data screen,canvas.Screen,2_9_0_1,NA,NA,timeout,501.64000000001,361626,361610.2,361637.7,362122.36,362123,2023-03-29T12:20:06Z,362139.34,Vorsorge,tahadhari,s,ufafanuzi,makini,mashambani,NA,NA,1,"c(""distractor1"", ""distractor2"", ""distractor3"")",NA,NA,NA,NA,NA,NA,NA,NA,NA,NA,NA,NA,NA,NA,NA,NA,NA,NA,NA
c4b01,shallow,flow.Sequence,2_9_0,NA,NA,completion,10979.44,351129,351126.56,351142.92,362122.36,362124,2023-03-29T12:20:06Z,362139.34,Vorsorge,tahadhari,s,ufafanuzi,makini,mashambani,NA,NA,NA,"c(""distractor1"", ""distractor2"", ""distractor3"")",NA,NA,NA,NA,NA,NA,NA,NA,NA,NA,NA,NA,NA,NA,NA,NA,NA,NA,NA
c4b01,task,flow.Sequence,2_9,NA,NA,completion,10979.44,351129,351126.56,351142.92,362122.36,362125,2023-03-29T12:20:06Z,362139.34,Vorsorge,tahadhari,s,ufafanuzi,makini,mashambani,NA,NA,NA,"c(""distractor1"", ""distractor2"", ""distractor3"")",NA,NA,NA,NA,NA,NA,NA,NA,NA,NA,NA,NA,NA,NA,NA,NA,NA,NA,NA
c4b01,Shallow Question,html.Page,2_10_0_0,NA,NA,form submission,4802.66,362127,362122.36,362139.34,366942,366943,2023-03-29T12:20:11Z,366951.9,Symbol,kielezo,d,kinyume,nderemo,utayari,kielezo,NA,NA,"c(""distractor1"", ""distractor2"", ""distractor3"")",NA,NA,NA,NA,NA,NA,NA,NA,NA,NA,NA,NA,NA,NA,NA,NA,NA,NA,NA
c4b01,Save data screen,canvas.Screen,2_10_0_1,NA,NA,timeout,501.51999999996,366946,366939.44,366951.9,367437.52,367438,2023-03-29T12:20:11Z,367453.42,Symbol,kielezo,d,kinyume,nderemo,utayari,NA,NA,1,"c(""distractor1"", ""distractor2"", ""distractor3"")",NA,NA,NA,NA,NA,NA,NA,NA,NA,NA,NA,NA,NA,NA,NA,NA,NA,NA,NA
c4b01,shallow,flow.Sequence,2_10_0,NA,NA,completion,5298.18,362126,362122.36,362139.34,367437.52,367439,2023-03-29T12:20:11Z,367453.42,Symbol,kielezo,d,kinyume,nderemo,utayari,NA,NA,NA,"c(""distractor1"", ""distractor2"", ""distractor3"")",NA,NA,NA,NA,NA,NA,NA,NA,NA,NA,NA,NA,NA,NA,NA,NA,NA,NA,NA
c4b01,task,flow.Sequence,2_10,NA,NA,completion,5298.18,362126,362122.36,362139.34,367437.52,367440,2023-03-29T12:20:11Z,367453.42,Symbol,kielezo,d,kinyume,nderemo,utayari,NA,NA,NA,"c(""distractor1"", ""distractor2"", ""distractor3"")",NA,NA,NA,NA,NA,NA,NA,NA,NA,NA,NA,NA,NA,NA,NA,NA,NA,NA,NA
c4b01,Shallow Question,html.Page,2_11_0_0,NA,NA,form submission,4786.58,367441,367437.52,367453.42,372240,372241,2023-03-29T12:20:16Z,372250.08,Widerstand,usulubu,d,kusababisha,mwalimu,mwenendo,usulubu,NA,NA,"c(""distractor1"", ""distractor2"", ""distractor3"")",NA,NA,NA,NA,NA,NA,NA,NA,NA,NA,NA,NA,NA,NA,NA,NA,NA,NA,NA
c4b01,Save data screen,canvas.Screen,2_11_0_1,NA,NA,timeout,500.71999999997,372243,372236.98,372250.08,372734.72,372735,2023-03-29T12:20:16Z,372750.8,Widerstand,usulubu,d,kusababisha,mwalimu,mwenendo,NA,NA,1,"c(""distractor1"", ""distractor2"", ""distractor3"")",NA,NA,NA,NA,NA,NA,NA,NA,NA,NA,NA,NA,NA,NA,NA,NA,NA,NA,NA
c4b01,shallow,flow.Sequence,2_11_0,NA,NA,completion,5281.3,367441,367437.52,367453.42,372734.72,372737,2023-03-29T12:20:16Z,372750.8,Widerstand,usulubu,d,kusababisha,mwalimu,mwenendo,NA,NA,NA,"c(""distractor1"", ""distractor2"", ""distractor3"")",NA,NA,NA,NA,NA,NA,NA,NA,NA,NA,NA,NA,NA,NA,NA,NA,NA,NA,NA
c4b01,task,flow.Sequence,2_11,NA,NA,completion,5281.3,367441,367437.52,367453.42,372734.72,372737,2023-03-29T12:20:16Z,372750.8,Widerstand,usulubu,d,kusababisha,mwalimu,mwenendo,NA,NA,NA,"c(""distractor1"", ""distractor2"", ""distractor3"")",NA,NA,NA,NA,NA,NA,NA,NA,NA,NA,NA,NA,NA,NA,NA,NA,NA,NA,NA
c4b01,Shallow Question,html.Page,2_12_0_0,NA,NA,form submission,6943.2,372738,372734.72,372750.8,379694,379694,2023-03-29T12:20:23Z,379691.32,Konkurrent,mshindani,s,msemaji,mvutaji,kipukusa,mshindani,NA,NA,"c(""distractor1"", ""distractor2"", ""distractor3"")",NA,NA,NA,NA,NA,NA,NA,NA,NA,NA,NA,NA,NA,NA,NA,NA,NA,NA,NA
c4b01,Save data screen,canvas.Screen,2_12_0_1,NA,NA,timeout,496.09999999998,379696,379691.24,379691.32,380170.64,380172,2023-03-29T12:20:24Z,380187.42,Konkurrent,mshindani,s,msemaji,mvutaji,kipukusa,NA,NA,1,"c(""distractor1"", ""distractor2"", ""distractor3"")",NA,NA,NA,NA,NA,NA,NA,NA,NA,NA,NA,NA,NA,NA,NA,NA,NA,NA,NA
c4b01,shallow,flow.Sequence,2_12_0,NA,NA,completion,7419.84,372738,372734.72,372750.8,380170.64,380172,2023-03-29T12:20:24Z,380187.42,Konkurrent,mshindani,s,msemaji,mvutaji,kipukusa,NA,NA,NA,"c(""distractor1"", ""distractor2"", ""distractor3"")",NA,NA,NA,NA,NA,NA,NA,NA,NA,NA,NA,NA,NA,NA,NA,NA,NA,NA,NA
c4b01,task,flow.Sequence,2_12,NA,NA,completion,7419.84,372738,372734.72,372750.8,380170.64,380172,2023-03-29T12:20:24Z,380187.42,Konkurrent,mshindani,s,msemaji,mvutaji,kipukusa,NA,NA,NA,"c(""distractor1"", ""distractor2"", ""distractor3"")",NA,NA,NA,NA,NA,NA,NA,NA,NA,NA,NA,NA,NA,NA,NA,NA,NA,NA,NA
c4b01,Shallow Question,html.Page,2_13_0_0,NA,NA,form submission,6246.58,380173,380170.64,380187.42,386434,386434,2023-03-29T12:20:30Z,386426.02,Zufall,kikuti,d,kukosekana,uchoraji,leseni,kikuti,NA,NA,"c(""distractor1"", ""distractor2"", ""distractor3"")",NA,NA,NA,NA,NA,NA,NA,NA,NA,NA,NA,NA,NA,NA,NA,NA,NA,NA,NA
c4b01,Save data screen,canvas.Screen,2_13_0_1,NA,NA,timeout,496.03999999998,386436,386425.84,386426.02,386905.76,386906,2023-03-29T12:20:31Z,386922.06,Zufall,kikuti,d,kukosekana,uchoraji,leseni,NA,NA,1,"c(""distractor1"", ""distractor2"", ""distractor3"")",NA,NA,NA,NA,NA,NA,NA,NA,NA,NA,NA,NA,NA,NA,NA,NA,NA,NA,NA
c4b01,shallow,flow.Sequence,2_13_0,NA,NA,completion,6718.34,380173,380170.64,380187.42,386905.76,386907,2023-03-29T12:20:31Z,386922.06,Zufall,kikuti,d,kukosekana,uchoraji,leseni,NA,NA,NA,"c(""distractor1"", ""distractor2"", ""distractor3"")",NA,NA,NA,NA,NA,NA,NA,NA,NA,NA,NA,NA,NA,NA,NA,NA,NA,NA,NA
c4b01,task,flow.Sequence,2_13,NA,NA,completion,6718.34,380173,380170.64,380187.42,386905.76,386907,2023-03-29T12:20:31Z,386922.06,Zufall,kikuti,d,kukosekana,uchoraji,leseni,NA,NA,NA,"c(""distractor1"", ""distractor2"", ""distractor3"")",NA,NA,NA,NA,NA,NA,NA,NA,NA,NA,NA,NA,NA,NA,NA,NA,NA,NA,NA
c4b01,Shallow Question,html.Page,2_14_0_0,NA,NA,form submission,8695.94,386908,386905.76,386922.06,395618,395618,2023-03-29T12:20:39Z,395628.54,Ausschluss,kutengwa,s,ununuzi,taratibu,madeni,madeni,NA,NA,"c(""distractor1"", ""distractor2"", ""distractor3"")",NA,NA,NA,NA,NA,NA,NA,NA,NA,NA,NA,NA,NA,NA,NA,NA,NA,NA,NA
c4b01,Save data screen,canvas.Screen,2_14_0_1,NA,NA,timeout,501.58000000002,395620,395615.5,395628.54,396114.04,396115,2023-03-29T12:20:40Z,396130.12,Ausschluss,kutengwa,s,ununuzi,taratibu,madeni,NA,NA,0,"c(""distractor1"", ""distractor2"", ""distractor3"")",NA,NA,NA,NA,NA,NA,NA,NA,NA,NA,NA,NA,NA,NA,NA,NA,NA,NA,NA
c4b01,shallow,flow.Sequence,2_14_0,NA,NA,completion,9191.98,386908,386905.76,386922.06,396114.04,396115,2023-03-29T12:20:40Z,396130.12,Ausschluss,kutengwa,s,ununuzi,taratibu,madeni,NA,NA,NA,"c(""distractor1"", ""distractor2"", ""distractor3"")",NA,NA,NA,NA,NA,NA,NA,NA,NA,NA,NA,NA,NA,NA,NA,NA,NA,NA,NA
c4b01,task,flow.Sequence,2_14,NA,NA,completion,9191.98,386908,386905.76,386922.06,396114.04,396116,2023-03-29T12:20:40Z,396130.12,Ausschluss,kutengwa,s,ununuzi,taratibu,madeni,NA,NA,NA,"c(""distractor1"", ""distractor2"", ""distractor3"")",NA,NA,NA,NA,NA,NA,NA,NA,NA,NA,NA,NA,NA,NA,NA,NA,NA,NA,NA
c4b01,Shallow Question,html.Page,2_15_0_0,NA,NA,form submission,11253.88,396117,396114.04,396130.12,407384,407384,2023-03-29T12:20:51Z,407380.26,Gelegenheit,wakati,s,mchanganyiko,kipaumbele,kushuku,wakati,NA,NA,"c(""distractor1"", ""distractor2"", ""distractor3"")",NA,NA,NA,NA,NA,NA,NA,NA,NA,NA,NA,NA,NA,NA,NA,NA,NA,NA,NA
c4b01,Save data screen,canvas.Screen,2_15_0_1,NA,NA,timeout,498.52000000002,407386,407380.12,407380.26,407862.08,407862,2023-03-29T12:20:52Z,407878.78,Gelegenheit,wakati,s,mchanganyiko,kipaumbele,kushuku,NA,NA,1,"c(""distractor1"", ""distractor2"", ""distractor3"")",NA,NA,NA,NA,NA,NA,NA,NA,NA,NA,NA,NA,NA,NA,NA,NA,NA,NA,NA
c4b01,shallow,flow.Sequence,2_15_0,NA,NA,completion,11731.96,396117,396114.04,396130.12,407862.08,407862,2023-03-29T12:20:52Z,407878.78,Gelegenheit,wakati,s,mchanganyiko,kipaumbele,kushuku,NA,NA,NA,"c(""distractor1"", ""distractor2"", ""distractor3"")",NA,NA,NA,NA,NA,NA,NA,NA,NA,NA,NA,NA,NA,NA,NA,NA,NA,NA,NA
c4b01,task,flow.Sequence,2_15,NA,NA,completion,11731.96,396117,396114.04,396130.12,407862.08,407862,2023-03-29T12:20:52Z,407878.78,Gelegenheit,wakati,s,mchanganyiko,kipaumbele,kushuku,NA,NA,NA,"c(""distractor1"", ""distractor2"", ""distractor3"")",NA,NA,NA,NA,NA,NA,NA,NA,NA,NA,NA,NA,NA,NA,NA,NA,NA,NA,NA
c4b01,retrieval block 2 (multiple choice),flow.Loop,2,NA,NA,completion,119870.4,287979,287975.42,287991.68,407862.08,407863,2023-03-29T12:20:52Z,407878.78,NA,NA,NA,NA,NA,NA,NA,NA,NA,"c(""distractor1"", ""distractor2"", ""distractor3"")",NA,NA,NA,NA,NA,NA,NA,NA,NA,NA,NA,NA,NA,NA,NA,NA,NA,NA,NA
c4b01,End,canvas.Screen,3,NA,keypress(Space),response,1287.22,407863,407862.08,407878.78,409166,409168,2023-03-29T12:20:53Z,409169.42,NA,NA,NA,NA,NA,NA,NA,NA,NA,NULL,NA,NA,NA,NA,NA,NA,NA,NA,NA,NA,NA,NA,NA,NA,NA,NA,NA,NA,NA
c4b01,root,flow.Sequence,NA,NA,NA,completion,408057.54,1040,1074.82,1108.46,409166,409169,2023-03-29T12:20:53Z,409169.42,NA,NA,NA,NA,NA,NA,NA,NA,NA,NULL,NA,NA,NA,NA,NA,NA,NA,NA,NA,NA,NA,NA,NA,NA,NA,NA,NA,NA,NA
