observation,sender,sender_type,sender_id,response,response_action,ended_on,duration,time_run,time_render,time_show,time_end,time_commit,timestamp,time_switch,distractors,german,swahili,enc,distractor1,distractor2,distractor3,response_2,x,correct,x_2,url_vp,url_sess,meta_labjs_version,meta_location,meta_user_agent,meta_platform,meta_language,meta_locale,meta_time_zone,meta_timezone_offset,meta_screen_width,meta_screen_height,meta_scroll_width,meta_scroll_height,meta_window_inner_width,meta_window_inner_height,meta_device_pixel_ratio,meta_labjs_build_flavor,meta_labjs_build_commit
27053,Introduction general,canvas.Screen,0,weiter,keypress(q),response,2471931.14,178289,178649.1,180652.86,2652584,2652591,2023-03-27T09:20:06Z,2652594.44,NULL,NA,NA,NA,NA,NA,NA,NA,NA,NA,NA,115,3,20.2.4,https://neurocog.fernuni.ch/studies/vweber/encoding_immediate/index.html?vp=115&sess=3,Mozilla/5.0 (Macintosh; Intel Mac OS X 10.15; rv:109.0) Gecko/20100101 Firefox/111.0,MacIntel,de,de-CH,Europe/Zurich,-120,1440,900,1238,714,1238,762,1,production,f5b4a49f956347addd546a832a3327688c2c0fef
27053,Introduction practice,canvas.Screen,1_0,NA,keypress(Space),response,6866.5600000001,2652594,2652593.96,2652594.44,2659461,2659466,2023-03-27T09:20:13Z,2659467.82,NULL,NA,NA,NA,NA,NA,NA,NA,NA,NA,NA,NA,NA,NA,NA,NA,NA,NA,NA,NA,NA,NA,NA,NA,NA,NA,NA,NA,NA,NA
27053,Deep Question,html.Page,1_1_0_0_0,NA,NA,form submission,7509.1800000002,2659467,2659467.34,2659467.82,2666977,2666978,2023-03-27T09:20:20Z,2666976.48,"c(""distractor1"", ""distractor2"", ""distractor3"")",Gesundheit,salama,d,NA,NA,NA,d,NA,NA,NA,NA,NA,NA,NA,NA,NA,NA,NA,NA,NA,NA,NA,NA,NA,NA,NA,NA,NA,NA
27053,"""Richtig""-Screen",canvas.Screen,1_1_0_0_1,NA,NA,skipped,NA,2666984,NA,NA,2666977,2666984,2023-03-27T09:20:20Z,2666976.48,"c(""distractor1"", ""distractor2"", ""distractor3"")",Gesundheit,salama,d,NA,NA,NA,NA,NA,NA,NA,NA,NA,NA,NA,NA,NA,NA,NA,NA,NA,NA,NA,NA,NA,NA,NA,NA,NA,NA
27053,"""Falsch""-Screen",canvas.Screen,1_1_0_0_2,NA,NA,timeout,4998.96,2666987,2666976.1,2666976.48,2671959.38,2671960,2023-03-27T09:20:25Z,2671975.44,"c(""distractor1"", ""distractor2"", ""distractor3"")",Gesundheit,salama,d,NA,NA,NA,NA,NA,0,NA,NA,NA,NA,NA,NA,NA,NA,NA,NA,NA,NA,NA,NA,NA,NA,NA,NA,NA,NA
27053,deep,flow.Sequence,1_1_0_0,NA,NA,completion,12491.56,2659467,2659467.34,2659467.82,2671959.38,2671961,2023-03-27T09:20:25Z,2671975.44,"c(""distractor1"", ""distractor2"", ""distractor3"")",Gesundheit,salama,d,NA,NA,NA,NA,NA,NA,NA,NA,NA,NA,NA,NA,NA,NA,NA,NA,NA,NA,NA,NA,NA,NA,NA,NA,NA,NA
27053,shallow,flow.Sequence,1_1_0_1,NA,NA,skipped,NA,2671962,NA,NA,2671959.38,2671962,2023-03-27T09:20:25Z,2671975.44,"c(""distractor1"", ""distractor2"", ""distractor3"")",Gesundheit,salama,d,NA,NA,NA,NA,NA,NA,NA,NA,NA,NA,NA,NA,NA,NA,NA,NA,NA,NA,NA,NA,NA,NA,NA,NA,NA,NA
27053,task,flow.Sequence,1_1_0,NA,NA,completion,12491.56,2659467,2659467.34,2659467.82,2671959.38,2671964,2023-03-27T09:20:25Z,2671975.44,"c(""distractor1"", ""distractor2"", ""distractor3"")",Gesundheit,salama,d,NA,NA,NA,NA,NA,NA,NA,NA,NA,NA,NA,NA,NA,NA,NA,NA,NA,NA,NA,NA,NA,NA,NA,NA,NA,NA
27053,deep,flow.Sequence,1_1_1_0,NA,NA,skipped,NA,2671964,NA,NA,2671959.38,2671965,2023-03-27T09:20:25Z,2671975.44,"c(""distractor1"", ""distractor2"", ""distractor3"")",Kritik,lawama,s,dereva,nafasi,mawazo,NA,NA,NA,NA,NA,NA,NA,NA,NA,NA,NA,NA,NA,NA,NA,NA,NA,NA,NA,NA,NA,NA,NA
27053,Shallow Question,html.Page,1_1_1_1_0,NA,NA,form submission,7239.5600000001,2671965,2671959.38,2671975.44,2679215,2679215,2023-03-27T09:20:32Z,2679214.14,"c(""distractor1"", ""distractor2"", ""distractor3"")",Kritik,lawama,s,dereva,nafasi,mawazo,dereva,NA,NA,NA,NA,NA,NA,NA,NA,NA,NA,NA,NA,NA,NA,NA,NA,NA,NA,NA,NA,NA,NA
27053,"""Richtig""-Screen",canvas.Screen,1_1_1_1_1,NA,NA,skipped,NA,2679219,NA,NA,2679215,2679220,2023-03-27T09:20:32Z,2679214.14,"c(""distractor1"", ""distractor2"", ""distractor3"")",Kritik,lawama,s,dereva,nafasi,mawazo,NA,NA,NA,NA,NA,NA,NA,NA,NA,NA,NA,NA,NA,NA,NA,NA,NA,NA,NA,NA,NA,NA,NA
27053,"""Falsch""-Screen",canvas.Screen,1_1_1_1_2,NA,NA,timeout,4994.6199999996,2679223,2679213.68,2679214.14,2684191.04,2684192,2023-03-27T09:20:37Z,2684208.76,"c(""distractor1"", ""distractor2"", ""distractor3"")",Kritik,lawama,s,dereva,nafasi,mawazo,NA,NA,0,NA,NA,NA,NA,NA,NA,NA,NA,NA,NA,NA,NA,NA,NA,NA,NA,NA,NA,NA,NA
27053,shallow,flow.Sequence,1_1_1_1,NA,NA,completion,12215.6,2671965,2671959.38,2671975.44,2684191.04,2684192,2023-03-27T09:20:37Z,2684208.76,"c(""distractor1"", ""distractor2"", ""distractor3"")",Kritik,lawama,s,dereva,nafasi,mawazo,NA,NA,NA,NA,NA,NA,NA,NA,NA,NA,NA,NA,NA,NA,NA,NA,NA,NA,NA,NA,NA,NA,NA
27053,task,flow.Sequence,1_1_1,NA,NA,completion,12215.6,2671964,2671959.38,2671975.44,2684191.04,2684193,2023-03-27T09:20:37Z,2684208.76,"c(""distractor1"", ""distractor2"", ""distractor3"")",Kritik,lawama,s,dereva,nafasi,mawazo,NA,NA,NA,NA,NA,NA,NA,NA,NA,NA,NA,NA,NA,NA,NA,NA,NA,NA,NA,NA,NA,NA,NA
27053,Deep Question,html.Page,1_1_2_0_0,NA,NA,form submission,2150.2400000002,2684193,2684191.04,2684208.76,2686359,2686359,2023-03-27T09:20:39Z,2686358.42,"c(""distractor1"", ""distractor2"", ""distractor3"")",Qualität,mtindo,d,NA,NA,NA,f,NA,NA,NA,NA,NA,NA,NA,NA,NA,NA,NA,NA,NA,NA,NA,NA,NA,NA,NA,NA,NA,NA
27053,"""Richtig""-Screen",canvas.Screen,1_1_2_0_1,NA,NA,skipped,NA,2686363,NA,NA,2686359,2686363,2023-03-27T09:20:39Z,2686358.42,"c(""distractor1"", ""distractor2"", ""distractor3"")",Qualität,mtindo,d,NA,NA,NA,NA,NA,NA,NA,NA,NA,NA,NA,NA,NA,NA,NA,NA,NA,NA,NA,NA,NA,NA,NA,NA,NA,NA
27053,"""Falsch""-Screen",canvas.Screen,1_1_2_0_2,NA,NA,timeout,5002.6600000001,2686366,2686357.4,2686358.42,2691343.42,2691345,2023-03-27T09:20:44Z,2691361.08,"c(""distractor1"", ""distractor2"", ""distractor3"")",Qualität,mtindo,d,NA,NA,NA,NA,NA,0,NA,NA,NA,NA,NA,NA,NA,NA,NA,NA,NA,NA,NA,NA,NA,NA,NA,NA,NA,NA
27053,deep,flow.Sequence,1_1_2_0,NA,NA,completion,7134.6600000001,2684193,2684191.04,2684208.76,2691343.42,2691345,2023-03-27T09:20:44Z,2691361.08,"c(""distractor1"", ""distractor2"", ""distractor3"")",Qualität,mtindo,d,NA,NA,NA,NA,NA,NA,NA,NA,NA,NA,NA,NA,NA,NA,NA,NA,NA,NA,NA,NA,NA,NA,NA,NA,NA,NA
27053,shallow,flow.Sequence,1_1_2_1,NA,NA,skipped,NA,2691345,NA,NA,2691343.42,2691346,2023-03-27T09:20:44Z,2691361.08,"c(""distractor1"", ""distractor2"", ""distractor3"")",Qualität,mtindo,d,NA,NA,NA,NA,NA,NA,NA,NA,NA,NA,NA,NA,NA,NA,NA,NA,NA,NA,NA,NA,NA,NA,NA,NA,NA,NA
27053,task,flow.Sequence,1_1_2,NA,NA,completion,7134.6600000001,2684193,2684191.04,2684208.76,2691343.42,2691347,2023-03-27T09:20:44Z,2691361.08,"c(""distractor1"", ""distractor2"", ""distractor3"")",Qualität,mtindo,d,NA,NA,NA,NA,NA,NA,NA,NA,NA,NA,NA,NA,NA,NA,NA,NA,NA,NA,NA,NA,NA,NA,NA,NA,NA,NA
27053,deep,flow.Sequence,1_1_3_0,NA,NA,skipped,NA,2691348,NA,NA,2691343.42,2691348,2023-03-27T09:20:44Z,2691361.08,"c(""distractor1"", ""distractor2"", ""distractor3"")",Rückhalt,msaada,s,muhula,auwali,kiwimbe,NA,NA,NA,NA,NA,NA,NA,NA,NA,NA,NA,NA,NA,NA,NA,NA,NA,NA,NA,NA,NA,NA,NA
27053,Shallow Question,html.Page,1_1_3_1_0,NA,NA,form submission,3475.9199999999,2691348,2691343.42,2691361.08,2694837,2694837,2023-03-27T09:20:48Z,2694836.34,"c(""distractor1"", ""distractor2"", ""distractor3"")",Rückhalt,msaada,s,muhula,auwali,kiwimbe,auwali,NA,NA,NA,NA,NA,NA,NA,NA,NA,NA,NA,NA,NA,NA,NA,NA,NA,NA,NA,NA,NA,NA
27053,"""Richtig""-Screen",canvas.Screen,1_1_3_1_1,NA,NA,skipped,NA,2694841,NA,NA,2694837,2694841,2023-03-27T09:20:48Z,2694836.34,"c(""distractor1"", ""distractor2"", ""distractor3"")",Rückhalt,msaada,s,muhula,auwali,kiwimbe,NA,NA,NA,NA,NA,NA,NA,NA,NA,NA,NA,NA,NA,NA,NA,NA,NA,NA,NA,NA,NA,NA,NA
27053,"""Falsch""-Screen",canvas.Screen,1_1_3_1_2,NA,NA,timeout,4996.7000000002,2694845,2694835.72,2694836.34,2699816.34,2699817,2023-03-27T09:20:53Z,2699833.04,"c(""distractor1"", ""distractor2"", ""distractor3"")",Rückhalt,msaada,s,muhula,auwali,kiwimbe,NA,NA,0,NA,NA,NA,NA,NA,NA,NA,NA,NA,NA,NA,NA,NA,NA,NA,NA,NA,NA,NA,NA
27053,shallow,flow.Sequence,1_1_3_1,NA,NA,completion,8455.2599999998,2691348,2691343.42,2691361.08,2699816.34,2699817,2023-03-27T09:20:53Z,2699833.04,"c(""distractor1"", ""distractor2"", ""distractor3"")",Rückhalt,msaada,s,muhula,auwali,kiwimbe,NA,NA,NA,NA,NA,NA,NA,NA,NA,NA,NA,NA,NA,NA,NA,NA,NA,NA,NA,NA,NA,NA,NA
27053,task,flow.Sequence,1_1_3,NA,NA,completion,8455.2599999998,2691347,2691343.42,2691361.08,2699816.34,2699817,2023-03-27T09:20:53Z,2699833.04,"c(""distractor1"", ""distractor2"", ""distractor3"")",Rückhalt,msaada,s,muhula,auwali,kiwimbe,NA,NA,NA,NA,NA,NA,NA,NA,NA,NA,NA,NA,NA,NA,NA,NA,NA,NA,NA,NA,NA,NA,NA
27053,Deep Question,html.Page,1_1_4_0_0,NA,NA,form submission,3238.96,2699818,2699816.34,2699833.04,2703072,2703072,2023-03-27T09:20:56Z,2703071.62,"c(""distractor1"", ""distractor2"", ""distractor3"")",Schatten,kivuli,d,NA,NA,NA,h,NA,NA,NA,NA,NA,NA,NA,NA,NA,NA,NA,NA,NA,NA,NA,NA,NA,NA,NA,NA,NA,NA
27053,"""Richtig""-Screen",canvas.Screen,1_1_4_0_1,NA,NA,skipped,NA,2703075,NA,NA,2703072,2703075,2023-03-27T09:20:56Z,2703071.62,"c(""distractor1"", ""distractor2"", ""distractor3"")",Schatten,kivuli,d,NA,NA,NA,NA,NA,NA,NA,NA,NA,NA,NA,NA,NA,NA,NA,NA,NA,NA,NA,NA,NA,NA,NA,NA,NA,NA
27053,"""Falsch""-Screen",canvas.Screen,1_1_4_0_2,NA,NA,timeout,5000.7399999998,2703079,2703071.16,2703071.62,2708054.82,2708055,2023-03-27T09:21:01Z,2708072.36,"c(""distractor1"", ""distractor2"", ""distractor3"")",Schatten,kivuli,d,NA,NA,NA,NA,NA,0,NA,NA,NA,NA,NA,NA,NA,NA,NA,NA,NA,NA,NA,NA,NA,NA,NA,NA,NA,NA
27053,deep,flow.Sequence,1_1_4_0,NA,NA,completion,8221.7799999998,2699818,2699816.34,2699833.04,2708054.82,2708055,2023-03-27T09:21:01Z,2708072.36,"c(""distractor1"", ""distractor2"", ""distractor3"")",Schatten,kivuli,d,NA,NA,NA,NA,NA,NA,NA,NA,NA,NA,NA,NA,NA,NA,NA,NA,NA,NA,NA,NA,NA,NA,NA,NA,NA,NA
27053,shallow,flow.Sequence,1_1_4_1,NA,NA,skipped,NA,2708056,NA,NA,2708054.82,2708056,2023-03-27T09:21:01Z,2708072.36,"c(""distractor1"", ""distractor2"", ""distractor3"")",Schatten,kivuli,d,NA,NA,NA,NA,NA,NA,NA,NA,NA,NA,NA,NA,NA,NA,NA,NA,NA,NA,NA,NA,NA,NA,NA,NA,NA,NA
27053,task,flow.Sequence,1_1_4,NA,NA,completion,8221.7799999998,2699818,2699816.34,2699833.04,2708054.82,2708056,2023-03-27T09:21:01Z,2708072.36,"c(""distractor1"", ""distractor2"", ""distractor3"")",Schatten,kivuli,d,NA,NA,NA,NA,NA,NA,NA,NA,NA,NA,NA,NA,NA,NA,NA,NA,NA,NA,NA,NA,NA,NA,NA,NA,NA,NA
27053,deep,flow.Sequence,1_1_5_0,NA,NA,skipped,NA,2708057,NA,NA,2708054.82,2708057,2023-03-27T09:21:01Z,2708072.36,"c(""distractor1"", ""distractor2"", ""distractor3"")",Gegenwart,hadhara,s,katiba,jokofu,mikopo,NA,NA,NA,NA,NA,NA,NA,NA,NA,NA,NA,NA,NA,NA,NA,NA,NA,NA,NA,NA,NA,NA,NA
27053,Shallow Question,html.Page,1_1_5_1_0,NA,NA,form submission,3015.6400000001,2708057,2708054.82,2708072.36,2711088,2711089,2023-03-27T09:21:04Z,2711086.82,"c(""distractor1"", ""distractor2"", ""distractor3"")",Gegenwart,hadhara,s,katiba,jokofu,mikopo,jokofu,NA,NA,NA,NA,NA,NA,NA,NA,NA,NA,NA,NA,NA,NA,NA,NA,NA,NA,NA,NA,NA,NA
27053,"""Richtig""-Screen",canvas.Screen,1_1_5_1_1,NA,NA,skipped,NA,2711092,NA,NA,2711088,2711093,2023-03-27T09:21:04Z,2711086.82,"c(""distractor1"", ""distractor2"", ""distractor3"")",Gegenwart,hadhara,s,katiba,jokofu,mikopo,NA,NA,NA,NA,NA,NA,NA,NA,NA,NA,NA,NA,NA,NA,NA,NA,NA,NA,NA,NA,NA,NA,NA
27053,"""Falsch""-Screen",canvas.Screen,1_1_5_1_2,NA,NA,timeout,5006.5,2711096,2711086.3,2711086.82,2716077.08,2716078,2023-03-27T09:21:09Z,2716093.32,"c(""distractor1"", ""distractor2"", ""distractor3"")",Gegenwart,hadhara,s,katiba,jokofu,mikopo,NA,NA,0,NA,NA,NA,NA,NA,NA,NA,NA,NA,NA,NA,NA,NA,NA,NA,NA,NA,NA,NA,NA
27053,shallow,flow.Sequence,1_1_5_1,NA,NA,completion,8004.7200000002,2708057,2708054.82,2708072.36,2716077.08,2716078,2023-03-27T09:21:09Z,2716093.32,"c(""distractor1"", ""distractor2"", ""distractor3"")",Gegenwart,hadhara,s,katiba,jokofu,mikopo,NA,NA,NA,NA,NA,NA,NA,NA,NA,NA,NA,NA,NA,NA,NA,NA,NA,NA,NA,NA,NA,NA,NA
27053,task,flow.Sequence,1_1_5,NA,NA,completion,8004.7200000002,2708057,2708054.82,2708072.36,2716077.08,2716078,2023-03-27T09:21:09Z,2716093.32,"c(""distractor1"", ""distractor2"", ""distractor3"")",Gegenwart,hadhara,s,katiba,jokofu,mikopo,NA,NA,NA,NA,NA,NA,NA,NA,NA,NA,NA,NA,NA,NA,NA,NA,NA,NA,NA,NA,NA,NA,NA
27053,block,flow.Loop,1_1,NA,NA,completion,56609.26,2659466,2659467.34,2659467.82,2716077.08,2716078,2023-03-27T09:21:09Z,2716093.32,"c(""distractor1"", ""distractor2"", ""distractor3"")",NA,NA,NA,NA,NA,NA,NA,NA,NA,NA,NA,NA,NA,NA,NA,NA,NA,NA,NA,NA,NA,NA,NA,NA,NA,NA,NA,NA,NA
27053,Practice,flow.Sequence,1,NA,NA,completion,63482.64,2652594,2652593.96,2652594.44,2716077.08,2716078,2023-03-27T09:21:09Z,2716093.32,NULL,NA,NA,NA,NA,NA,NA,NA,NA,NA,NA,NA,NA,NA,NA,NA,NA,NA,NA,NA,NA,NA,NA,NA,NA,NA,NA,NA,NA,NA
27053,Experiment start,canvas.Screen,2,weiter,keypress(q),response,27155.68,2716078,2716077.08,2716093.32,2743249,2743255,2023-03-27T09:21:36Z,2743366.92,NULL,NA,NA,NA,NA,NA,NA,NA,NA,NA,NA,NA,NA,NA,NA,NA,NA,NA,NA,NA,NA,NA,NA,NA,NA,NA,NA,NA,NA,NA
27053,deep,flow.Sequence,3_0_0_0_0_0,NA,NA,skipped,NA,2743366,NA,NA,2743249,2743366,2023-03-27T09:21:36Z,2743366.92,NULL,Tester,wanaojaribu,s,sherti,sihiri,mlipuko,NA,sdf,NA,0,NA,NA,NA,NA,NA,NA,NA,NA,NA,NA,NA,NA,NA,NA,NA,NA,NA,NA,NA
27053,Shallow Question,html.Page,3_0_0_0_0_1_0,NA,NA,form submission,15019.08,2743367,2743366.58,2743366.92,2758386,2758387,2023-03-27T09:21:51Z,2758385.68,NULL,Tester,wanaojaribu,s,sherti,sihiri,mlipuko,mlipuko,NA,NA,0,NA,NA,NA,NA,NA,NA,NA,NA,NA,NA,NA,NA,NA,NA,NA,NA,NA,NA,NA
27053,"""Richtig""-Screen",canvas.Screen,3_0_0_0_0_1_1,NA,NA,skipped,NA,2758390,NA,NA,2758386,2758390,2023-03-27T09:21:51Z,2758385.68,NULL,Tester,wanaojaribu,s,sherti,sihiri,mlipuko,NA,sdf,NA,0,NA,NA,NA,NA,NA,NA,NA,NA,NA,NA,NA,NA,NA,NA,NA,NA,NA,NA,NA
27053,"""Falsch""-Screen",canvas.Screen,3_0_0_0_0_1_2,NA,NA,timeout,5000.3599999999,2758392,2758385.2,2758385.68,2763369.28,2763370,2023-03-27T09:21:56Z,2763386.04,NULL,Tester,wanaojaribu,s,sherti,sihiri,mlipuko,NA,sdf,0,0,NA,NA,NA,NA,NA,NA,NA,NA,NA,NA,NA,NA,NA,NA,NA,NA,NA,NA,NA
27053,shallow,flow.Sequence,3_0_0_0_0_1,NA,NA,completion,20002.36,2743367,2743366.58,2743366.92,2763369.28,2763370,2023-03-27T09:21:56Z,2763386.04,NULL,Tester,wanaojaribu,s,sherti,sihiri,mlipuko,NA,sdf,NA,0,NA,NA,NA,NA,NA,NA,NA,NA,NA,NA,NA,NA,NA,NA,NA,NA,NA,NA,NA
27053,task,flow.Sequence,3_0_0_0_0,NA,NA,completion,20002.36,2743366,2743366.58,2743366.92,2763369.28,2763370,2023-03-27T09:21:56Z,2763386.04,NULL,Tester,wanaojaribu,s,sherti,sihiri,mlipuko,NA,sdf,NA,0,NA,NA,NA,NA,NA,NA,NA,NA,NA,NA,NA,NA,NA,NA,NA,NA,NA,NA,NA
27053,deep,flow.Sequence,3_0_0_0_1_0,NA,NA,skipped,NA,2763370,NA,NA,2763369.28,2763370,2023-03-27T09:21:56Z,2763386.04,NULL,Schüler,mwanafunzi,s,mwekezaji,matumizi,uaminifu,NA,sdf,NA,0,NA,NA,NA,NA,NA,NA,NA,NA,NA,NA,NA,NA,NA,NA,NA,NA,NA,NA,NA
27053,Shallow Question,html.Page,3_0_0_0_1_1_0,NA,NA,form submission,8535.96,2763371,2763369.28,2763386.04,2771922,2771923,2023-03-27T09:22:05Z,2771922.04,NULL,Schüler,mwanafunzi,s,mwekezaji,matumizi,uaminifu,matumizi,NA,NA,0,NA,NA,NA,NA,NA,NA,NA,NA,NA,NA,NA,NA,NA,NA,NA,NA,NA,NA,NA
27053,"""Richtig""-Screen",canvas.Screen,3_0_0_0_1_1_1,NA,NA,skipped,NA,2771927,NA,NA,2771922,2771927,2023-03-27T09:22:05Z,2771922.04,NULL,Schüler,mwanafunzi,s,mwekezaji,matumizi,uaminifu,NA,sdf,NA,0,NA,NA,NA,NA,NA,NA,NA,NA,NA,NA,NA,NA,NA,NA,NA,NA,NA,NA,NA
27053,"""Falsch""-Screen",canvas.Screen,3_0_0_0_1_1_2,NA,NA,timeout,5000.98,2771930,2771921.56,2771922.04,2776906.32,2776907,2023-03-27T09:22:10Z,2776923.02,NULL,Schüler,mwanafunzi,s,mwekezaji,matumizi,uaminifu,NA,sdf,0,0,NA,NA,NA,NA,NA,NA,NA,NA,NA,NA,NA,NA,NA,NA,NA,NA,NA,NA,NA
27053,shallow,flow.Sequence,3_0_0_0_1_1,NA,NA,completion,13520.28,2763371,2763369.28,2763386.04,2776906.32,2776907,2023-03-27T09:22:10Z,2776923.02,NULL,Schüler,mwanafunzi,s,mwekezaji,matumizi,uaminifu,NA,sdf,NA,0,NA,NA,NA,NA,NA,NA,NA,NA,NA,NA,NA,NA,NA,NA,NA,NA,NA,NA,NA
27053,task,flow.Sequence,3_0_0_0_1,NA,NA,completion,13520.28,2763370,2763369.28,2763386.04,2776906.32,2776907,2023-03-27T09:22:10Z,2776923.02,NULL,Schüler,mwanafunzi,s,mwekezaji,matumizi,uaminifu,NA,sdf,NA,0,NA,NA,NA,NA,NA,NA,NA,NA,NA,NA,NA,NA,NA,NA,NA,NA,NA,NA,NA
27053,Deep Question,html.Page,3_0_0_0_2_0_0,NA,NA,form submission,3896.98,2776907,2776906.32,2776923.02,2780820,2780820,2023-03-27T09:22:14Z,2780832.4,NULL,Spionage,upelelezi,d,NA,NA,NA,m,NA,NA,0,NA,NA,NA,NA,NA,NA,NA,NA,NA,NA,NA,NA,NA,NA,NA,NA,NA,NA,NA
27053,"""Richtig""-Screen",canvas.Screen,3_0_0_0_2_0_1,NA,NA,skipped,NA,2780824,NA,NA,2780820,2780824,2023-03-27T09:22:14Z,2780832.4,NULL,Spionage,upelelezi,d,NA,NA,NA,NA,sdf,NA,0,NA,NA,NA,NA,NA,NA,NA,NA,NA,NA,NA,NA,NA,NA,NA,NA,NA,NA,NA
27053,"""Falsch""-Screen",canvas.Screen,3_0_0_0_2_0_2,NA,NA,timeout,4997.2200000002,2780827,2780819.22,2780832.4,2785813.44,2785814,2023-03-27T09:22:19Z,2785829.62,NULL,Spionage,upelelezi,d,NA,NA,NA,NA,sdf,0,0,NA,NA,NA,NA,NA,NA,NA,NA,NA,NA,NA,NA,NA,NA,NA,NA,NA,NA,NA
27053,deep,flow.Sequence,3_0_0_0_2_0,NA,NA,completion,8890.4199999999,2776907,2776906.32,2776923.02,2785813.44,2785814,2023-03-27T09:22:19Z,2785829.62,NULL,Spionage,upelelezi,d,NA,NA,NA,NA,sdf,NA,0,NA,NA,NA,NA,NA,NA,NA,NA,NA,NA,NA,NA,NA,NA,NA,NA,NA,NA,NA
27053,shallow,flow.Sequence,3_0_0_0_2_1,NA,NA,skipped,NA,2785815,NA,NA,2785813.44,2785815,2023-03-27T09:22:19Z,2785829.62,NULL,Spionage,upelelezi,d,NA,NA,NA,NA,sdf,NA,0,NA,NA,NA,NA,NA,NA,NA,NA,NA,NA,NA,NA,NA,NA,NA,NA,NA,NA,NA
27053,task,flow.Sequence,3_0_0_0_2,NA,NA,completion,8890.4199999999,2776907,2776906.32,2776923.02,2785813.44,2785815,2023-03-27T09:22:19Z,2785829.62,NULL,Spionage,upelelezi,d,NA,NA,NA,NA,sdf,NA,0,NA,NA,NA,NA,NA,NA,NA,NA,NA,NA,NA,NA,NA,NA,NA,NA,NA,NA,NA
27053,Deep Question,html.Page,3_0_0_0_3_0_0,NA,NA,form submission,6828.3799999999,2785815,2785813.44,2785829.62,2792658,2792658,2023-03-27T09:22:26Z,2792664.88,NULL,Zuwachs,nyongeza,d,NA,NA,NA,m,NA,NA,0,NA,NA,NA,NA,NA,NA,NA,NA,NA,NA,NA,NA,NA,NA,NA,NA,NA,NA,NA
27053,"""Richtig""-Screen",canvas.Screen,3_0_0_0_3_0_1,NA,NA,skipped,NA,2792662,NA,NA,2792658,2792662,2023-03-27T09:22:26Z,2792664.88,NULL,Zuwachs,nyongeza,d,NA,NA,NA,NA,sdf,NA,0,NA,NA,NA,NA,NA,NA,NA,NA,NA,NA,NA,NA,NA,NA,NA,NA,NA,NA,NA
27053,"""Falsch""-Screen",canvas.Screen,3_0_0_0_3_0_2,NA,NA,timeout,4996.8600000003,2792666,2792657.3,2792664.88,2797645.04,2797645,2023-03-27T09:22:31Z,2797661.74,NULL,Zuwachs,nyongeza,d,NA,NA,NA,NA,sdf,0,0,NA,NA,NA,NA,NA,NA,NA,NA,NA,NA,NA,NA,NA,NA,NA,NA,NA,NA,NA
27053,deep,flow.Sequence,3_0_0_0_3_0,NA,NA,completion,11815.42,2785815,2785813.44,2785829.62,2797645.04,2797646,2023-03-27T09:22:31Z,2797661.74,NULL,Zuwachs,nyongeza,d,NA,NA,NA,NA,sdf,NA,0,NA,NA,NA,NA,NA,NA,NA,NA,NA,NA,NA,NA,NA,NA,NA,NA,NA,NA,NA
27053,shallow,flow.Sequence,3_0_0_0_3_1,NA,NA,skipped,NA,2797646,NA,NA,2797645.04,2797646,2023-03-27T09:22:31Z,2797661.74,NULL,Zuwachs,nyongeza,d,NA,NA,NA,NA,sdf,NA,0,NA,NA,NA,NA,NA,NA,NA,NA,NA,NA,NA,NA,NA,NA,NA,NA,NA,NA,NA
27053,task,flow.Sequence,3_0_0_0_3,NA,NA,completion,11815.42,2785815,2785813.44,2785829.62,2797645.04,2797646,2023-03-27T09:22:31Z,2797661.74,NULL,Zuwachs,nyongeza,d,NA,NA,NA,NA,sdf,NA,0,NA,NA,NA,NA,NA,NA,NA,NA,NA,NA,NA,NA,NA,NA,NA,NA,NA,NA,NA
27053,deep,flow.Sequence,3_0_0_0_4_0,NA,NA,skipped,NA,2797647,NA,NA,2797645.04,2797647,2023-03-27T09:22:31Z,2797661.74,NULL,Konkurrent,mshindani,s,msemaji,mvutaji,kipukusa,NA,sdf,NA,0,NA,NA,NA,NA,NA,NA,NA,NA,NA,NA,NA,NA,NA,NA,NA,NA,NA,NA,NA
27053,Shallow Question,html.Page,3_0_0_0_4_1_0,NA,NA,form submission,11048.26,2797647,2797645.04,2797661.74,2808710,2808710,2023-03-27T09:22:42Z,2808708.86,NULL,Konkurrent,mshindani,s,msemaji,mvutaji,kipukusa,mshindani,NA,NA,0,NA,NA,NA,NA,NA,NA,NA,NA,NA,NA,NA,NA,NA,NA,NA,NA,NA,NA,NA
27053,"""Richtig""-Screen",canvas.Screen,3_0_0_0_4_1_1,NA,NA,timeout,4994.7800000003,2808712,2808708.42,2808708.86,2813686.96,2813688,2023-03-27T09:22:47Z,2813703.64,NULL,Konkurrent,mshindani,s,msemaji,mvutaji,kipukusa,NA,sdf,1,0,NA,NA,NA,NA,NA,NA,NA,NA,NA,NA,NA,NA,NA,NA,NA,NA,NA,NA,NA
27053,"""Falsch""-Screen",canvas.Screen,3_0_0_0_4_1_2,NA,NA,skipped,NA,2813692,NA,NA,2813686.96,2813692,2023-03-27T09:22:47Z,2813703.64,NULL,Konkurrent,mshindani,s,msemaji,mvutaji,kipukusa,NA,sdf,NA,0,NA,NA,NA,NA,NA,NA,NA,NA,NA,NA,NA,NA,NA,NA,NA,NA,NA,NA,NA
27053,shallow,flow.Sequence,3_0_0_0_4_1,NA,NA,completion,16025.22,2797647,2797645.04,2797661.74,2813686.96,2813692,2023-03-27T09:22:47Z,2813703.64,NULL,Konkurrent,mshindani,s,msemaji,mvutaji,kipukusa,NA,sdf,NA,0,NA,NA,NA,NA,NA,NA,NA,NA,NA,NA,NA,NA,NA,NA,NA,NA,NA,NA,NA
27053,task,flow.Sequence,3_0_0_0_4,NA,NA,completion,16025.22,2797647,2797645.04,2797661.74,2813686.96,2813693,2023-03-27T09:22:47Z,2813703.64,NULL,Konkurrent,mshindani,s,msemaji,mvutaji,kipukusa,NA,sdf,NA,0,NA,NA,NA,NA,NA,NA,NA,NA,NA,NA,NA,NA,NA,NA,NA,NA,NA,NA,NA
27053,Deep Question,html.Page,3_0_0_0_5_0_0,NA,NA,form submission,6454.3599999999,2813693,2813686.96,2813703.64,2820158,2820158,2023-03-27T09:22:53Z,2820171.86,NULL,Fenster,dirisha,d,NA,NA,NA,m,NA,NA,0,NA,NA,NA,NA,NA,NA,NA,NA,NA,NA,NA,NA,NA,NA,NA,NA,NA,NA,NA
27053,"""Richtig""-Screen",canvas.Screen,3_0_0_0_5_0_1,NA,NA,skipped,NA,2820161,NA,NA,2820158,2820161,2023-03-27T09:22:53Z,2820171.86,NULL,Fenster,dirisha,d,NA,NA,NA,NA,sdf,NA,0,NA,NA,NA,NA,NA,NA,NA,NA,NA,NA,NA,NA,NA,NA,NA,NA,NA,NA,NA
27053,"""Falsch""-Screen",canvas.Screen,3_0_0_0_5_0_2,NA,NA,timeout,4995.5800000001,2820164,2820157.14,2820171.86,2825151.82,2825153,2023-03-27T09:22:58Z,2825167.44,NULL,Fenster,dirisha,d,NA,NA,NA,NA,sdf,0,0,NA,NA,NA,NA,NA,NA,NA,NA,NA,NA,NA,NA,NA,NA,NA,NA,NA,NA,NA
27053,deep,flow.Sequence,3_0_0_0_5_0,NA,NA,completion,11448.18,2813693,2813686.96,2813703.64,2825151.82,2825155,2023-03-27T09:22:58Z,2825167.44,NULL,Fenster,dirisha,d,NA,NA,NA,NA,sdf,NA,0,NA,NA,NA,NA,NA,NA,NA,NA,NA,NA,NA,NA,NA,NA,NA,NA,NA,NA,NA
27053,shallow,flow.Sequence,3_0_0_0_5_1,NA,NA,skipped,NA,2825156,NA,NA,2825151.82,2825157,2023-03-27T09:22:58Z,2825167.44,NULL,Fenster,dirisha,d,NA,NA,NA,NA,sdf,NA,0,NA,NA,NA,NA,NA,NA,NA,NA,NA,NA,NA,NA,NA,NA,NA,NA,NA,NA,NA
27053,task,flow.Sequence,3_0_0_0_5,NA,NA,completion,11448.18,2813693,2813686.96,2813703.64,2825151.82,2825158,2023-03-27T09:22:58Z,2825167.44,NULL,Fenster,dirisha,d,NA,NA,NA,NA,sdf,NA,0,NA,NA,NA,NA,NA,NA,NA,NA,NA,NA,NA,NA,NA,NA,NA,NA,NA,NA,NA
27053,Deep Question,html.Page,3_0_0_0_6_0_0,NA,NA,form submission,3956.5600000001,2825158,2825151.82,2825167.44,2829124,2829124,2023-03-27T09:23:02Z,2829145.82,NULL,Symbol,kielezo,d,NA,NA,NA,m,NA,NA,0,NA,NA,NA,NA,NA,NA,NA,NA,NA,NA,NA,NA,NA,NA,NA,NA,NA,NA,NA
27053,"""Richtig""-Screen",canvas.Screen,3_0_0_0_6_0_1,NA,NA,skipped,NA,2829130,NA,NA,2829124,2829130,2023-03-27T09:23:02Z,2829145.82,NULL,Symbol,kielezo,d,NA,NA,NA,NA,sdf,NA,0,NA,NA,NA,NA,NA,NA,NA,NA,NA,NA,NA,NA,NA,NA,NA,NA,NA,NA,NA
27053,"""Falsch""-Screen",canvas.Screen,3_0_0_0_6_0_2,NA,NA,timeout,4996.7000000002,2829133,2829115,2829145.82,2834125.82,2834126,2023-03-27T09:23:07Z,2834142.52,NULL,Symbol,kielezo,d,NA,NA,NA,NA,sdf,0,0,NA,NA,NA,NA,NA,NA,NA,NA,NA,NA,NA,NA,NA,NA,NA,NA,NA,NA,NA
27053,deep,flow.Sequence,3_0_0_0_6_0,NA,NA,completion,8958.3799999999,2825158,2825151.82,2825167.44,2834125.82,2834127,2023-03-27T09:23:07Z,2834142.52,NULL,Symbol,kielezo,d,NA,NA,NA,NA,sdf,NA,0,NA,NA,NA,NA,NA,NA,NA,NA,NA,NA,NA,NA,NA,NA,NA,NA,NA,NA,NA
27053,shallow,flow.Sequence,3_0_0_0_6_1,NA,NA,skipped,NA,2834127,NA,NA,2834125.82,2834128,2023-03-27T09:23:07Z,2834142.52,NULL,Symbol,kielezo,d,NA,NA,NA,NA,sdf,NA,0,NA,NA,NA,NA,NA,NA,NA,NA,NA,NA,NA,NA,NA,NA,NA,NA,NA,NA,NA
27053,task,flow.Sequence,3_0_0_0_6,NA,NA,completion,8958.3799999999,2825158,2825151.82,2825167.44,2834125.82,2834128,2023-03-27T09:23:07Z,2834142.52,NULL,Symbol,kielezo,d,NA,NA,NA,NA,sdf,NA,0,NA,NA,NA,NA,NA,NA,NA,NA,NA,NA,NA,NA,NA,NA,NA,NA,NA,NA,NA
27053,deep,flow.Sequence,3_0_0_0_7_0,NA,NA,skipped,NA,2834129,NA,NA,2834125.82,2834130,2023-03-27T09:23:07Z,2834142.52,NULL,Vorsorge,tahadhari,s,ufafanuzi,makini,mashambani,NA,sdf,NA,0,NA,NA,NA,NA,NA,NA,NA,NA,NA,NA,NA,NA,NA,NA,NA,NA,NA,NA,NA
27053,Shallow Question,html.Page,3_0_0_0_7_1_0,NA,NA,form submission,7436.48,2834131,2834125.82,2834142.52,2841579,2841579,2023-03-27T09:23:15Z,2841578.32,NULL,Vorsorge,tahadhari,s,ufafanuzi,makini,mashambani,mashambani,NA,NA,0,NA,NA,NA,NA,NA,NA,NA,NA,NA,NA,NA,NA,NA,NA,NA,NA,NA,NA,NA
27053,"""Richtig""-Screen",canvas.Screen,3_0_0_0_7_1_1,NA,NA,skipped,NA,2841583,NA,NA,2841579,2841583,2023-03-27T09:23:15Z,2841578.32,NULL,Vorsorge,tahadhari,s,ufafanuzi,makini,mashambani,NA,sdf,NA,0,NA,NA,NA,NA,NA,NA,NA,NA,NA,NA,NA,NA,NA,NA,NA,NA,NA,NA,NA
27053,"""Falsch""-Screen",canvas.Screen,3_0_0_0_7_1_2,NA,NA,timeout,4997.0600000001,2841587,2841577.88,2841578.32,2846558.98,2846560,2023-03-27T09:23:20Z,2846575.38,NULL,Vorsorge,tahadhari,s,ufafanuzi,makini,mashambani,NA,sdf,0,0,NA,NA,NA,NA,NA,NA,NA,NA,NA,NA,NA,NA,NA,NA,NA,NA,NA,NA,NA
27053,shallow,flow.Sequence,3_0_0_0_7_1,NA,NA,completion,12416.46,2834131,2834125.82,2834142.52,2846558.98,2846560,2023-03-27T09:23:20Z,2846575.38,NULL,Vorsorge,tahadhari,s,ufafanuzi,makini,mashambani,NA,sdf,NA,0,NA,NA,NA,NA,NA,NA,NA,NA,NA,NA,NA,NA,NA,NA,NA,NA,NA,NA,NA
27053,task,flow.Sequence,3_0_0_0_7,NA,NA,completion,12416.46,2834129,2834125.82,2834142.52,2846558.98,2846560,2023-03-27T09:23:20Z,2846575.38,NULL,Vorsorge,tahadhari,s,ufafanuzi,makini,mashambani,NA,sdf,NA,0,NA,NA,NA,NA,NA,NA,NA,NA,NA,NA,NA,NA,NA,NA,NA,NA,NA,NA,NA
27053,block,flow.Loop,3_0_0_0,NA,NA,completion,103192.06,2743366,2743366.58,2743366.92,2846558.98,2846561,2023-03-27T09:23:20Z,2846575.38,NULL,NA,NA,NA,NA,NA,NA,NA,sdf,NA,0,NA,NA,NA,NA,NA,NA,NA,NA,NA,NA,NA,NA,NA,NA,NA,NA,NA,NA,NA
27053,weiter,canvas.Screen,3_0_0_1,sdf,keypress(Space),response,1029.6200000001,2846561,2846558.98,2846575.38,2847605,2847611,2023-03-27T09:23:21Z,2847676.44,NULL,NA,NA,NA,NA,NA,NA,NA,sdf,NA,0,NA,NA,NA,NA,NA,NA,NA,NA,NA,NA,NA,NA,NA,NA,NA,NA,NA,NA,NA
27053,check continue,flow.Sequence,3_0_0,NA,NA,completion,104238.08,2743366,2743366.58,2743366.92,2847605,2847611,2023-03-27T09:23:21Z,2847676.44,NULL,NA,NA,NA,NA,NA,NA,NA,sdf,NA,0,NA,NA,NA,NA,NA,NA,NA,NA,NA,NA,NA,NA,NA,NA,NA,NA,NA,NA,NA
27053,Deep Question,html.Page,3_0_1_0_0_0_0,NA,NA,form submission,6227.5600000001,2847677,2847676.06,2847676.44,2853904,2853904,2023-03-27T09:23:27Z,2853910.94,NULL,Fenster,dirisha,d,NA,NA,NA,dirisha,NA,NA,1,NA,NA,NA,NA,NA,NA,NA,NA,NA,NA,NA,NA,NA,NA,NA,NA,NA,NA,NA
27053,"""Richtig""-Screen",canvas.Screen,3_0_1_0_0_0_1,NA,NA,timeout,4996.8599999999,2853908,2853903.52,2853910.94,2858890.94,2858891,2023-03-27T09:23:32Z,2858907.8,NULL,Fenster,dirisha,d,NA,NA,NA,NA,sdfdsf,1,1,NA,NA,NA,NA,NA,NA,NA,NA,NA,NA,NA,NA,NA,NA,NA,NA,NA,NA,NA
27053,"""Falsch""-Screen",canvas.Screen,3_0_1_0_0_0_2,NA,NA,skipped,NA,2858896,NA,NA,2858890.94,2858896,2023-03-27T09:23:32Z,2858907.8,NULL,Fenster,dirisha,d,NA,NA,NA,NA,sdfdsf,NA,1,NA,NA,NA,NA,NA,NA,NA,NA,NA,NA,NA,NA,NA,NA,NA,NA,NA,NA,NA
27053,deep,flow.Sequence,3_0_1_0_0_0,NA,NA,completion,11214.5,2847676,2847676.06,2847676.44,2858890.94,2858897,2023-03-27T09:23:32Z,2858907.8,NULL,Fenster,dirisha,d,NA,NA,NA,NA,sdfdsf,NA,1,NA,NA,NA,NA,NA,NA,NA,NA,NA,NA,NA,NA,NA,NA,NA,NA,NA,NA,NA
27053,shallow,flow.Sequence,3_0_1_0_0_1,NA,NA,skipped,NA,2858897,NA,NA,2858890.94,2858897,2023-03-27T09:23:32Z,2858907.8,NULL,Fenster,dirisha,d,NA,NA,NA,NA,sdfdsf,NA,1,NA,NA,NA,NA,NA,NA,NA,NA,NA,NA,NA,NA,NA,NA,NA,NA,NA,NA,NA
27053,task,flow.Sequence,3_0_1_0_0,NA,NA,completion,11214.5,2847675,2847676.06,2847676.44,2858890.94,2858897,2023-03-27T09:23:32Z,2858907.8,NULL,Fenster,dirisha,d,NA,NA,NA,NA,sdfdsf,NA,1,NA,NA,NA,NA,NA,NA,NA,NA,NA,NA,NA,NA,NA,NA,NA,NA,NA,NA,NA
27053,deep,flow.Sequence,3_0_1_0_1_0,NA,NA,skipped,NA,2858897,NA,NA,2858890.94,2858897,2023-03-27T09:23:32Z,2858907.8,NULL,Konkurrent,mshindani,s,msemaji,mvutaji,kipukusa,NA,sdfdsf,NA,1,NA,NA,NA,NA,NA,NA,NA,NA,NA,NA,NA,NA,NA,NA,NA,NA,NA,NA,NA
27053,Shallow Question,html.Page,3_0_1_0_1_1_0,NA,NA,form submission,11890.2,2858897,2858890.94,2858907.8,2870798,2870799,2023-03-27T09:23:44Z,2870797.4,NULL,Konkurrent,mshindani,s,msemaji,mvutaji,kipukusa,mshindani,NA,NA,1,NA,NA,NA,NA,NA,NA,NA,NA,NA,NA,NA,NA,NA,NA,NA,NA,NA,NA,NA
27053,"""Richtig""-Screen",canvas.Screen,3_0_1_0_1_1_1,NA,NA,timeout,5006.3999999999,2870802,2870796.94,2870797.4,2875786.02,2875787,2023-03-27T09:23:49Z,2875803.8,NULL,Konkurrent,mshindani,s,msemaji,mvutaji,kipukusa,NA,sdfdsf,1,1,NA,NA,NA,NA,NA,NA,NA,NA,NA,NA,NA,NA,NA,NA,NA,NA,NA,NA,NA
27053,"""Falsch""-Screen",canvas.Screen,3_0_1_0_1_1_2,NA,NA,skipped,NA,2875791,NA,NA,2875786.02,2875791,2023-03-27T09:23:49Z,2875803.8,NULL,Konkurrent,mshindani,s,msemaji,mvutaji,kipukusa,NA,sdfdsf,NA,1,NA,NA,NA,NA,NA,NA,NA,NA,NA,NA,NA,NA,NA,NA,NA,NA,NA,NA,NA
27053,shallow,flow.Sequence,3_0_1_0_1_1,NA,NA,completion,16878.22,2858897,2858890.94,2858907.8,2875786.02,2875792,2023-03-27T09:23:49Z,2875803.8,NULL,Konkurrent,mshindani,s,msemaji,mvutaji,kipukusa,NA,sdfdsf,NA,1,NA,NA,NA,NA,NA,NA,NA,NA,NA,NA,NA,NA,NA,NA,NA,NA,NA,NA,NA
27053,task,flow.Sequence,3_0_1_0_1,NA,NA,completion,16878.22,2858897,2858890.94,2858907.8,2875786.02,2875792,2023-03-27T09:23:49Z,2875803.8,NULL,Konkurrent,mshindani,s,msemaji,mvutaji,kipukusa,NA,sdfdsf,NA,1,NA,NA,NA,NA,NA,NA,NA,NA,NA,NA,NA,NA,NA,NA,NA,NA,NA,NA,NA
27053,deep,flow.Sequence,3_0_1_0_2_0,NA,NA,skipped,NA,2875792,NA,NA,2875786.02,2875792,2023-03-27T09:23:49Z,2875803.8,NULL,Schüler,mwanafunzi,s,mwekezaji,matumizi,uaminifu,NA,sdfdsf,NA,1,NA,NA,NA,NA,NA,NA,NA,NA,NA,NA,NA,NA,NA,NA,NA,NA,NA,NA,NA
27053,Shallow Question,html.Page,3_0_1_0_2_1_0,NA,NA,form submission,6821.2000000002,2875793,2875786.02,2875803.8,2882625,2882626,2023-03-27T09:23:56Z,2882621.76,NULL,Schüler,mwanafunzi,s,mwekezaji,matumizi,uaminifu,mwanafunzi,NA,NA,1,NA,NA,NA,NA,NA,NA,NA,NA,NA,NA,NA,NA,NA,NA,NA,NA,NA,NA,NA
27053,"""Richtig""-Screen",canvas.Screen,3_0_1_0_2_1_1,NA,NA,timeout,4996.7400000002,2882633,2882621.28,2882621.76,2887601.94,2887604,2023-03-27T09:24:01Z,2887618.5,NULL,Schüler,mwanafunzi,s,mwekezaji,matumizi,uaminifu,NA,sdfdsf,1,1,NA,NA,NA,NA,NA,NA,NA,NA,NA,NA,NA,NA,NA,NA,NA,NA,NA,NA,NA
27053,"""Falsch""-Screen",canvas.Screen,3_0_1_0_2_1_2,NA,NA,skipped,NA,2887615,NA,NA,2887601.94,2887615,2023-03-27T09:24:01Z,2887618.5,NULL,Schüler,mwanafunzi,s,mwekezaji,matumizi,uaminifu,NA,sdfdsf,NA,1,NA,NA,NA,NA,NA,NA,NA,NA,NA,NA,NA,NA,NA,NA,NA,NA,NA,NA,NA
27053,shallow,flow.Sequence,3_0_1_0_2_1,NA,NA,completion,11798.14,2875793,2875786.02,2875803.8,2887601.94,2887616,2023-03-27T09:24:01Z,2887618.5,NULL,Schüler,mwanafunzi,s,mwekezaji,matumizi,uaminifu,NA,sdfdsf,NA,1,NA,NA,NA,NA,NA,NA,NA,NA,NA,NA,NA,NA,NA,NA,NA,NA,NA,NA,NA
27053,task,flow.Sequence,3_0_1_0_2,NA,NA,completion,11798.14,2875792,2875786.02,2875803.8,2887601.94,2887616,2023-03-27T09:24:01Z,2887618.5,NULL,Schüler,mwanafunzi,s,mwekezaji,matumizi,uaminifu,NA,sdfdsf,NA,1,NA,NA,NA,NA,NA,NA,NA,NA,NA,NA,NA,NA,NA,NA,NA,NA,NA,NA,NA
27053,Deep Question,html.Page,3_0_1_0_3_0_0,NA,NA,form submission,5424.5,2887617,2887601.94,2887618.5,2893043,2893044,2023-03-27T09:24:06Z,2893041.9,NULL,Zuwachs,nyongeza,d,NA,NA,NA,u,NA,NA,1,NA,NA,NA,NA,NA,NA,NA,NA,NA,NA,NA,NA,NA,NA,NA,NA,NA,NA,NA
27053,"""Richtig""-Screen",canvas.Screen,3_0_1_0_3_0_1,NA,NA,skipped,NA,2893048,NA,NA,2893043,2893048,2023-03-27T09:24:06Z,2893041.9,NULL,Zuwachs,nyongeza,d,NA,NA,NA,NA,sdfdsf,NA,1,NA,NA,NA,NA,NA,NA,NA,NA,NA,NA,NA,NA,NA,NA,NA,NA,NA,NA,NA
27053,"""Falsch""-Screen",canvas.Screen,3_0_1_0_3_0_2,NA,NA,timeout,5004.6000000001,2893051,2893041.3,2893041.9,2898029.78,2898030,2023-03-27T09:24:11Z,2898046.5,NULL,Zuwachs,nyongeza,d,NA,NA,NA,NA,sdfdsf,0,1,NA,NA,NA,NA,NA,NA,NA,NA,NA,NA,NA,NA,NA,NA,NA,NA,NA,NA,NA
27053,deep,flow.Sequence,3_0_1_0_3_0,NA,NA,completion,10411.28,2887617,2887601.94,2887618.5,2898029.78,2898031,2023-03-27T09:24:11Z,2898046.5,NULL,Zuwachs,nyongeza,d,NA,NA,NA,NA,sdfdsf,NA,1,NA,NA,NA,NA,NA,NA,NA,NA,NA,NA,NA,NA,NA,NA,NA,NA,NA,NA,NA
27053,shallow,flow.Sequence,3_0_1_0_3_1,NA,NA,skipped,NA,2898032,NA,NA,2898029.78,2898032,2023-03-27T09:24:11Z,2898046.5,NULL,Zuwachs,nyongeza,d,NA,NA,NA,NA,sdfdsf,NA,1,NA,NA,NA,NA,NA,NA,NA,NA,NA,NA,NA,NA,NA,NA,NA,NA,NA,NA,NA
27053,task,flow.Sequence,3_0_1_0_3,NA,NA,completion,10411.28,2887617,2887601.94,2887618.5,2898029.78,2898033,2023-03-27T09:24:11Z,2898046.5,NULL,Zuwachs,nyongeza,d,NA,NA,NA,NA,sdfdsf,NA,1,NA,NA,NA,NA,NA,NA,NA,NA,NA,NA,NA,NA,NA,NA,NA,NA,NA,NA,NA
27053,deep,flow.Sequence,3_0_1_0_4_0,NA,NA,skipped,NA,2898033,NA,NA,2898029.78,2898033,2023-03-27T09:24:11Z,2898046.5,NULL,Vorsorge,tahadhari,s,ufafanuzi,makini,mashambani,NA,sdfdsf,NA,1,NA,NA,NA,NA,NA,NA,NA,NA,NA,NA,NA,NA,NA,NA,NA,NA,NA,NA,NA
27053,Shallow Question,html.Page,3_0_1_0_4_1_0,NA,NA,form submission,15221.5,2898034,2898029.78,2898046.5,2913268,2913268,2023-03-27T09:24:26Z,2913266.26,NULL,Vorsorge,tahadhari,s,ufafanuzi,makini,mashambani,ufafanuzi,NA,NA,1,NA,NA,NA,NA,NA,NA,NA,NA,NA,NA,NA,NA,NA,NA,NA,NA,NA,NA,NA
27053,"""Richtig""-Screen",canvas.Screen,3_0_1_0_4_1_1,NA,NA,skipped,NA,2913270,NA,NA,2913268,2913271,2023-03-27T09:24:26Z,2913266.26,NULL,Vorsorge,tahadhari,s,ufafanuzi,makini,mashambani,NA,sdfdsf,NA,1,NA,NA,NA,NA,NA,NA,NA,NA,NA,NA,NA,NA,NA,NA,NA,NA,NA,NA,NA
27053,"""Falsch""-Screen",canvas.Screen,3_0_1_0_4_1_2,NA,NA,timeout,5000.7200000002,2913273,2913265.32,2913266.26,2918250.44,2918251,2023-03-27T09:24:31Z,2918266.98,NULL,Vorsorge,tahadhari,s,ufafanuzi,makini,mashambani,NA,sdfdsf,0,1,NA,NA,NA,NA,NA,NA,NA,NA,NA,NA,NA,NA,NA,NA,NA,NA,NA,NA,NA
27053,shallow,flow.Sequence,3_0_1_0_4_1,NA,NA,completion,20203.94,2898034,2898029.78,2898046.5,2918250.44,2918252,2023-03-27T09:24:31Z,2918266.98,NULL,Vorsorge,tahadhari,s,ufafanuzi,makini,mashambani,NA,sdfdsf,NA,1,NA,NA,NA,NA,NA,NA,NA,NA,NA,NA,NA,NA,NA,NA,NA,NA,NA,NA,NA
27053,task,flow.Sequence,3_0_1_0_4,NA,NA,completion,20203.94,2898033,2898029.78,2898046.5,2918250.44,2918252,2023-03-27T09:24:31Z,2918266.98,NULL,Vorsorge,tahadhari,s,ufafanuzi,makini,mashambani,NA,sdfdsf,NA,1,NA,NA,NA,NA,NA,NA,NA,NA,NA,NA,NA,NA,NA,NA,NA,NA,NA,NA,NA
27053,Deep Question,html.Page,3_0_1_0_5_0_0,NA,NA,form submission,4656.02,2918253,2918250.44,2918266.98,2922923,2922923,2023-03-27T09:24:36Z,2922928.64,NULL,Spionage,upelelezi,d,NA,NA,NA,m,NA,NA,1,NA,NA,NA,NA,NA,NA,NA,NA,NA,NA,NA,NA,NA,NA,NA,NA,NA,NA,NA
27053,"""Richtig""-Screen",canvas.Screen,3_0_1_0_5_0_1,NA,NA,skipped,NA,2922927,NA,NA,2922923,2922928,2023-03-27T09:24:36Z,2922928.64,NULL,Spionage,upelelezi,d,NA,NA,NA,NA,sdfdsf,NA,1,NA,NA,NA,NA,NA,NA,NA,NA,NA,NA,NA,NA,NA,NA,NA,NA,NA,NA,NA
27053,"""Falsch""-Screen",canvas.Screen,3_0_1_0_5_0_2,NA,NA,timeout,4997.6399999997,2922931,2922921.8,2922928.64,2927909.58,2927910,2023-03-27T09:24:41Z,2927926.28,NULL,Spionage,upelelezi,d,NA,NA,NA,NA,sdfdsf,0,1,NA,NA,NA,NA,NA,NA,NA,NA,NA,NA,NA,NA,NA,NA,NA,NA,NA,NA,NA
27053,deep,flow.Sequence,3_0_1_0_5_0,NA,NA,completion,9642.6000000001,2918253,2918250.44,2918266.98,2927909.58,2927911,2023-03-27T09:24:41Z,2927926.28,NULL,Spionage,upelelezi,d,NA,NA,NA,NA,sdfdsf,NA,1,NA,NA,NA,NA,NA,NA,NA,NA,NA,NA,NA,NA,NA,NA,NA,NA,NA,NA,NA
27053,shallow,flow.Sequence,3_0_1_0_5_1,NA,NA,skipped,NA,2927911,NA,NA,2927909.58,2927911,2023-03-27T09:24:41Z,2927926.28,NULL,Spionage,upelelezi,d,NA,NA,NA,NA,sdfdsf,NA,1,NA,NA,NA,NA,NA,NA,NA,NA,NA,NA,NA,NA,NA,NA,NA,NA,NA,NA,NA
27053,task,flow.Sequence,3_0_1_0_5,NA,NA,completion,9642.6000000001,2918252,2918250.44,2918266.98,2927909.58,2927911,2023-03-27T09:24:41Z,2927926.28,NULL,Spionage,upelelezi,d,NA,NA,NA,NA,sdfdsf,NA,1,NA,NA,NA,NA,NA,NA,NA,NA,NA,NA,NA,NA,NA,NA,NA,NA,NA,NA,NA
27053,deep,flow.Sequence,3_0_1_0_6_0,NA,NA,skipped,NA,2927911,NA,NA,2927909.58,2927911,2023-03-27T09:24:41Z,2927926.28,NULL,Tester,wanaojaribu,s,sherti,sihiri,mlipuko,NA,sdfdsf,NA,1,NA,NA,NA,NA,NA,NA,NA,NA,NA,NA,NA,NA,NA,NA,NA,NA,NA,NA,NA
27053,Shallow Question,html.Page,3_0_1_0_6_1_0,NA,NA,form submission,8128.7200000002,2927912,2927909.58,2927926.28,2936055,2936055,2023-03-27T09:24:49Z,2936054.62,NULL,Tester,wanaojaribu,s,sherti,sihiri,mlipuko,wanaojaribu,NA,NA,1,NA,NA,NA,NA,NA,NA,NA,NA,NA,NA,NA,NA,NA,NA,NA,NA,NA,NA,NA
27053,"""Richtig""-Screen",canvas.Screen,3_0_1_0_6_1_1,NA,NA,timeout,5006.6599999997,2936059,2936054.12,2936054.62,2941044.68,2941046,2023-03-27T09:24:54Z,2941061.28,NULL,Tester,wanaojaribu,s,sherti,sihiri,mlipuko,NA,sdfdsf,1,1,NA,NA,NA,NA,NA,NA,NA,NA,NA,NA,NA,NA,NA,NA,NA,NA,NA,NA,NA
27053,"""Falsch""-Screen",canvas.Screen,3_0_1_0_6_1_2,NA,NA,skipped,NA,2941050,NA,NA,2941044.68,2941050,2023-03-27T09:24:54Z,2941061.28,NULL,Tester,wanaojaribu,s,sherti,sihiri,mlipuko,NA,sdfdsf,NA,1,NA,NA,NA,NA,NA,NA,NA,NA,NA,NA,NA,NA,NA,NA,NA,NA,NA,NA,NA
27053,shallow,flow.Sequence,3_0_1_0_6_1,NA,NA,completion,13118.4,2927912,2927909.58,2927926.28,2941044.68,2941051,2023-03-27T09:24:54Z,2941061.28,NULL,Tester,wanaojaribu,s,sherti,sihiri,mlipuko,NA,sdfdsf,NA,1,NA,NA,NA,NA,NA,NA,NA,NA,NA,NA,NA,NA,NA,NA,NA,NA,NA,NA,NA
27053,task,flow.Sequence,3_0_1_0_6,NA,NA,completion,13118.4,2927911,2927909.58,2927926.28,2941044.68,2941051,2023-03-27T09:24:54Z,2941061.28,NULL,Tester,wanaojaribu,s,sherti,sihiri,mlipuko,NA,sdfdsf,NA,1,NA,NA,NA,NA,NA,NA,NA,NA,NA,NA,NA,NA,NA,NA,NA,NA,NA,NA,NA
27053,Deep Question,html.Page,3_0_1_0_7_0_0,NA,NA,form submission,7248.7200000002,2941052,2941044.68,2941061.28,2948310,2948312,2023-03-27T09:25:01Z,2948308.74,NULL,Symbol,kielezo,d,NA,NA,NA,m,NA,NA,1,NA,NA,NA,NA,NA,NA,NA,NA,NA,NA,NA,NA,NA,NA,NA,NA,NA,NA,NA
27053,"""Richtig""-Screen",canvas.Screen,3_0_1_0_7_0_1,NA,NA,skipped,NA,2948318,NA,NA,2948310,2948319,2023-03-27T09:25:01Z,2948308.74,NULL,Symbol,kielezo,d,NA,NA,NA,NA,sdfdsf,NA,1,NA,NA,NA,NA,NA,NA,NA,NA,NA,NA,NA,NA,NA,NA,NA,NA,NA,NA,NA
27053,"""Falsch""-Screen",canvas.Screen,3_0_1_0_7_0_2,NA,NA,timeout,5002,2948322,2948308.34,2948308.74,2953293.96,2953295,2023-03-27T09:25:06Z,2953310.74,NULL,Symbol,kielezo,d,NA,NA,NA,NA,sdfdsf,0,1,NA,NA,NA,NA,NA,NA,NA,NA,NA,NA,NA,NA,NA,NA,NA,NA,NA,NA,NA
27053,deep,flow.Sequence,3_0_1_0_7_0,NA,NA,completion,12232.68,2941052,2941044.68,2941061.28,2953293.96,2953296,2023-03-27T09:25:06Z,2953310.74,NULL,Symbol,kielezo,d,NA,NA,NA,NA,sdfdsf,NA,1,NA,NA,NA,NA,NA,NA,NA,NA,NA,NA,NA,NA,NA,NA,NA,NA,NA,NA,NA
27053,shallow,flow.Sequence,3_0_1_0_7_1,NA,NA,skipped,NA,2953297,NA,NA,2953293.96,2953297,2023-03-27T09:25:06Z,2953310.74,NULL,Symbol,kielezo,d,NA,NA,NA,NA,sdfdsf,NA,1,NA,NA,NA,NA,NA,NA,NA,NA,NA,NA,NA,NA,NA,NA,NA,NA,NA,NA,NA
27053,task,flow.Sequence,3_0_1_0_7,NA,NA,completion,12232.68,2941052,2941044.68,2941061.28,2953293.96,2953298,2023-03-27T09:25:06Z,2953310.74,NULL,Symbol,kielezo,d,NA,NA,NA,NA,sdfdsf,NA,1,NA,NA,NA,NA,NA,NA,NA,NA,NA,NA,NA,NA,NA,NA,NA,NA,NA,NA,NA
27053,block,flow.Loop,3_0_1_0,NA,NA,completion,105617.52,2847675,2847676.06,2847676.44,2953293.96,2953299,2023-03-27T09:25:06Z,2953310.74,NULL,NA,NA,NA,NA,NA,NA,NA,sdfdsf,NA,1,NA,NA,NA,NA,NA,NA,NA,NA,NA,NA,NA,NA,NA,NA,NA,NA,NA,NA,NA
27053,weiter,canvas.Screen,3_0_1_1,sdf,keypress(Space),response,948.25999999978,2953300,2953293.96,2953310.74,2954259,2954264,2023-03-27T09:25:07Z,2954331.5,NULL,NA,NA,NA,NA,NA,NA,NA,sdfdsf,NA,1,NA,NA,NA,NA,NA,NA,NA,NA,NA,NA,NA,NA,NA,NA,NA,NA,NA,NA,NA
27053,check continue,flow.Sequence,3_0_1,NA,NA,completion,106582.56,2847675,2847676.06,2847676.44,2954259,2954265,2023-03-27T09:25:07Z,2954331.5,NULL,NA,NA,NA,NA,NA,NA,NA,sdfdsf,NA,1,NA,NA,NA,NA,NA,NA,NA,NA,NA,NA,NA,NA,NA,NA,NA,NA,NA,NA,NA
27053,Deep Question,html.Page,3_0_2_0_0_0_0,NA,NA,form submission,4285.5,2954331,2954331,2954331.5,2958617,2958617,2023-03-27T09:25:12Z,2958616.54,NULL,Fenster,dirisha,d,NA,NA,NA,disisha,NA,NA,2,NA,NA,NA,NA,NA,NA,NA,NA,NA,NA,NA,NA,NA,NA,NA,NA,NA,NA,NA
27053,"""Richtig""-Screen",canvas.Screen,3_0_2_0_0_0_1,NA,NA,skipped,NA,2958620,NA,NA,2958617,2958620,2023-03-27T09:25:12Z,2958616.54,NULL,Fenster,dirisha,d,NA,NA,NA,NA,sdf,NA,2,NA,NA,NA,NA,NA,NA,NA,NA,NA,NA,NA,NA,NA,NA,NA,NA,NA,NA,NA
27053,"""Falsch""-Screen",canvas.Screen,3_0_2_0_0_0_2,NA,NA,timeout,5004.7799999998,2958623,2958616.08,2958616.54,2963604,2963605,2023-03-27T09:25:17Z,2963621.32,NULL,Fenster,dirisha,d,NA,NA,NA,NA,sdf,0,2,NA,NA,NA,NA,NA,NA,NA,NA,NA,NA,NA,NA,NA,NA,NA,NA,NA,NA,NA
27053,deep,flow.Sequence,3_0_2_0_0_0,NA,NA,completion,9272.5,2954331,2954331,2954331.5,2963604,2963605,2023-03-27T09:25:17Z,2963621.32,NULL,Fenster,dirisha,d,NA,NA,NA,NA,sdf,NA,2,NA,NA,NA,NA,NA,NA,NA,NA,NA,NA,NA,NA,NA,NA,NA,NA,NA,NA,NA
27053,shallow,flow.Sequence,3_0_2_0_0_1,NA,NA,skipped,NA,2963605,NA,NA,2963604,2963606,2023-03-27T09:25:17Z,2963621.32,NULL,Fenster,dirisha,d,NA,NA,NA,NA,sdf,NA,2,NA,NA,NA,NA,NA,NA,NA,NA,NA,NA,NA,NA,NA,NA,NA,NA,NA,NA,NA
27053,task,flow.Sequence,3_0_2_0_0,NA,NA,completion,9272.5,2954331,2954331,2954331.5,2963604,2963606,2023-03-27T09:25:17Z,2963621.32,NULL,Fenster,dirisha,d,NA,NA,NA,NA,sdf,NA,2,NA,NA,NA,NA,NA,NA,NA,NA,NA,NA,NA,NA,NA,NA,NA,NA,NA,NA,NA
27053,deep,flow.Sequence,3_0_2_0_1_0,NA,NA,skipped,NA,2963606,NA,NA,2963604,2963607,2023-03-27T09:25:17Z,2963621.32,NULL,Vorsorge,tahadhari,s,ufafanuzi,makini,mashambani,NA,sdf,NA,2,NA,NA,NA,NA,NA,NA,NA,NA,NA,NA,NA,NA,NA,NA,NA,NA,NA,NA,NA
27053,Shallow Question,html.Page,3_0_2_0_1_1_0,NA,NA,form submission,9333.6800000002,2963607,2963604,2963621.32,2972955,2972956,2023-03-27T09:25:26Z,2972954.8,NULL,Vorsorge,tahadhari,s,ufafanuzi,makini,mashambani,tahadhari,NA,NA,2,NA,NA,NA,NA,NA,NA,NA,NA,NA,NA,NA,NA,NA,NA,NA,NA,NA,NA,NA
27053,"""Richtig""-Screen",canvas.Screen,3_0_2_0_1_1_1,NA,NA,timeout,5005.02,2972960,2972954.32,2972954.8,2977942.18,2977943,2023-03-27T09:25:31Z,2977959.82,NULL,Vorsorge,tahadhari,s,ufafanuzi,makini,mashambani,NA,sdf,1,2,NA,NA,NA,NA,NA,NA,NA,NA,NA,NA,NA,NA,NA,NA,NA,NA,NA,NA,NA
27053,"""Falsch""-Screen",canvas.Screen,3_0_2_0_1_1_2,NA,NA,skipped,NA,2977946,NA,NA,2977942.18,2977947,2023-03-27T09:25:31Z,2977959.82,NULL,Vorsorge,tahadhari,s,ufafanuzi,makini,mashambani,NA,sdf,NA,2,NA,NA,NA,NA,NA,NA,NA,NA,NA,NA,NA,NA,NA,NA,NA,NA,NA,NA,NA
27053,shallow,flow.Sequence,3_0_2_0_1_1,NA,NA,completion,14320.86,2963607,2963604,2963621.32,2977942.18,2977948,2023-03-27T09:25:31Z,2977959.82,NULL,Vorsorge,tahadhari,s,ufafanuzi,makini,mashambani,NA,sdf,NA,2,NA,NA,NA,NA,NA,NA,NA,NA,NA,NA,NA,NA,NA,NA,NA,NA,NA,NA,NA
27053,task,flow.Sequence,3_0_2_0_1,NA,NA,completion,14320.86,2963606,2963604,2963621.32,2977942.18,2977948,2023-03-27T09:25:31Z,2977959.82,NULL,Vorsorge,tahadhari,s,ufafanuzi,makini,mashambani,NA,sdf,NA,2,NA,NA,NA,NA,NA,NA,NA,NA,NA,NA,NA,NA,NA,NA,NA,NA,NA,NA,NA
27053,deep,flow.Sequence,3_0_2_0_2_0,NA,NA,skipped,NA,2977948,NA,NA,2977942.18,2977948,2023-03-27T09:25:31Z,2977959.82,NULL,Schüler,mwanafunzi,s,mwekezaji,matumizi,uaminifu,NA,sdf,NA,2,NA,NA,NA,NA,NA,NA,NA,NA,NA,NA,NA,NA,NA,NA,NA,NA,NA,NA,NA
27053,Shallow Question,html.Page,3_0_2_0_2_1_0,NA,NA,form submission,4108.1800000002,2977948,2977942.18,2977959.82,2982068,2982068,2023-03-27T09:25:35Z,2982066.6,NULL,Schüler,mwanafunzi,s,mwekezaji,matumizi,uaminifu,mwanafunzi,NA,NA,2,NA,NA,NA,NA,NA,NA,NA,NA,NA,NA,NA,NA,NA,NA,NA,NA,NA,NA,NA
27053,"""Richtig""-Screen",canvas.Screen,3_0_2_0_2_1_1,NA,NA,timeout,5000.6200000001,2982071,2982066.04,2982066.6,2987050.84,2987051,2023-03-27T09:25:40Z,2987067.22,NULL,Schüler,mwanafunzi,s,mwekezaji,matumizi,uaminifu,NA,sdf,1,2,NA,NA,NA,NA,NA,NA,NA,NA,NA,NA,NA,NA,NA,NA,NA,NA,NA,NA,NA
27053,"""Falsch""-Screen",canvas.Screen,3_0_2_0_2_1_2,NA,NA,skipped,NA,2987055,NA,NA,2987050.84,2987056,2023-03-27T09:25:40Z,2987067.22,NULL,Schüler,mwanafunzi,s,mwekezaji,matumizi,uaminifu,NA,sdf,NA,2,NA,NA,NA,NA,NA,NA,NA,NA,NA,NA,NA,NA,NA,NA,NA,NA,NA,NA,NA
27053,shallow,flow.Sequence,3_0_2_0_2_1,NA,NA,completion,9091.02,2977948,2977942.18,2977959.82,2987050.84,2987056,2023-03-27T09:25:40Z,2987067.22,NULL,Schüler,mwanafunzi,s,mwekezaji,matumizi,uaminifu,NA,sdf,NA,2,NA,NA,NA,NA,NA,NA,NA,NA,NA,NA,NA,NA,NA,NA,NA,NA,NA,NA,NA
27053,task,flow.Sequence,3_0_2_0_2,NA,NA,completion,9091.02,2977948,2977942.18,2977959.82,2987050.84,2987056,2023-03-27T09:25:40Z,2987067.22,NULL,Schüler,mwanafunzi,s,mwekezaji,matumizi,uaminifu,NA,sdf,NA,2,NA,NA,NA,NA,NA,NA,NA,NA,NA,NA,NA,NA,NA,NA,NA,NA,NA,NA,NA
27053,deep,flow.Sequence,3_0_2_0_3_0,NA,NA,skipped,NA,2987057,NA,NA,2987050.84,2987057,2023-03-27T09:25:40Z,2987067.22,NULL,Tester,wanaojaribu,s,sherti,sihiri,mlipuko,NA,sdf,NA,2,NA,NA,NA,NA,NA,NA,NA,NA,NA,NA,NA,NA,NA,NA,NA,NA,NA,NA,NA
27053,Shallow Question,html.Page,3_0_2_0_3_1_0,NA,NA,form submission,4034.7799999998,2987057,2987050.84,2987067.22,2991102,2991102,2023-03-27T09:25:44Z,2991100.98,NULL,Tester,wanaojaribu,s,sherti,sihiri,mlipuko,wanaojaribu,NA,NA,2,NA,NA,NA,NA,NA,NA,NA,NA,NA,NA,NA,NA,NA,NA,NA,NA,NA,NA,NA
27053,"""Richtig""-Screen",canvas.Screen,3_0_2_0_3_1_1,NA,NA,timeout,5007.1000000001,2991105,2991100.52,2991100.98,2996091.38,2996092,2023-03-27T09:25:49Z,2996108.08,NULL,Tester,wanaojaribu,s,sherti,sihiri,mlipuko,NA,sdf,1,2,NA,NA,NA,NA,NA,NA,NA,NA,NA,NA,NA,NA,NA,NA,NA,NA,NA,NA,NA
27053,"""Falsch""-Screen",canvas.Screen,3_0_2_0_3_1_2,NA,NA,skipped,NA,2996096,NA,NA,2996091.38,2996096,2023-03-27T09:25:49Z,2996108.08,NULL,Tester,wanaojaribu,s,sherti,sihiri,mlipuko,NA,sdf,NA,2,NA,NA,NA,NA,NA,NA,NA,NA,NA,NA,NA,NA,NA,NA,NA,NA,NA,NA,NA
27053,shallow,flow.Sequence,3_0_2_0_3_1,NA,NA,completion,9024.1599999997,2987057,2987050.84,2987067.22,2996091.38,2996096,2023-03-27T09:25:49Z,2996108.08,NULL,Tester,wanaojaribu,s,sherti,sihiri,mlipuko,NA,sdf,NA,2,NA,NA,NA,NA,NA,NA,NA,NA,NA,NA,NA,NA,NA,NA,NA,NA,NA,NA,NA
27053,task,flow.Sequence,3_0_2_0_3,NA,NA,completion,9024.1599999997,2987057,2987050.84,2987067.22,2996091.38,2996096,2023-03-27T09:25:49Z,2996108.08,NULL,Tester,wanaojaribu,s,sherti,sihiri,mlipuko,NA,sdf,NA,2,NA,NA,NA,NA,NA,NA,NA,NA,NA,NA,NA,NA,NA,NA,NA,NA,NA,NA,NA
27053,deep,flow.Sequence,3_0_2_0_4_0,NA,NA,skipped,NA,2996097,NA,NA,2996091.38,2996097,2023-03-27T09:25:49Z,2996108.08,NULL,Konkurrent,mshindani,s,msemaji,mvutaji,kipukusa,NA,sdf,NA,2,NA,NA,NA,NA,NA,NA,NA,NA,NA,NA,NA,NA,NA,NA,NA,NA,NA,NA,NA
27053,Shallow Question,html.Page,3_0_2_0_4_1_0,NA,NA,form submission,14429.92,2996097,2996091.38,2996108.08,3010538,3010540,2023-03-27T09:26:04Z,3010580.36,NULL,Konkurrent,mshindani,s,msemaji,mvutaji,kipukusa,mshindani,NA,NA,2,NA,NA,NA,NA,NA,NA,NA,NA,NA,NA,NA,NA,NA,NA,NA,NA,NA,NA,NA
27053,"""Richtig""-Screen",canvas.Screen,3_0_2_0_4_1_1,NA,NA,timeout,4995.6600000001,3010546,3010563.64,3010580.36,3015560.32,3015562,2023-03-27T09:26:09Z,3015576.02,NULL,Konkurrent,mshindani,s,msemaji,mvutaji,kipukusa,NA,sdf,1,2,NA,NA,NA,NA,NA,NA,NA,NA,NA,NA,NA,NA,NA,NA,NA,NA,NA,NA,NA
27053,"""Falsch""-Screen",canvas.Screen,3_0_2_0_4_1_2,NA,NA,skipped,NA,3015569,NA,NA,3015560.32,3015569,2023-03-27T09:26:09Z,3015576.02,NULL,Konkurrent,mshindani,s,msemaji,mvutaji,kipukusa,NA,sdf,NA,2,NA,NA,NA,NA,NA,NA,NA,NA,NA,NA,NA,NA,NA,NA,NA,NA,NA,NA,NA
27053,shallow,flow.Sequence,3_0_2_0_4_1,NA,NA,completion,19452.24,2996097,2996091.38,2996108.08,3015560.32,3015569,2023-03-27T09:26:09Z,3015576.02,NULL,Konkurrent,mshindani,s,msemaji,mvutaji,kipukusa,NA,sdf,NA,2,NA,NA,NA,NA,NA,NA,NA,NA,NA,NA,NA,NA,NA,NA,NA,NA,NA,NA,NA
27053,task,flow.Sequence,3_0_2_0_4,NA,NA,completion,19452.24,2996097,2996091.38,2996108.08,3015560.32,3015570,2023-03-27T09:26:09Z,3015576.02,NULL,Konkurrent,mshindani,s,msemaji,mvutaji,kipukusa,NA,sdf,NA,2,NA,NA,NA,NA,NA,NA,NA,NA,NA,NA,NA,NA,NA,NA,NA,NA,NA,NA,NA
27053,Deep Question,html.Page,3_0_2_0_5_0_0,NA,NA,form submission,6655.98,3015571,3015560.32,3015576.02,3022232,3022233,2023-03-27T09:26:15Z,3022231.42,NULL,Zuwachs,nyongeza,d,NA,NA,NA,nyongeza,NA,NA,2,NA,NA,NA,NA,NA,NA,NA,NA,NA,NA,NA,NA,NA,NA,NA,NA,NA,NA,NA
27053,"""Richtig""-Screen",canvas.Screen,3_0_2_0_5_0_1,NA,NA,timeout,4992.98,3022237,3022230.92,3022231.42,3027207.84,3027209,2023-03-27T09:26:20Z,3027224.4,NULL,Zuwachs,nyongeza,d,NA,NA,NA,NA,sdf,1,2,NA,NA,NA,NA,NA,NA,NA,NA,NA,NA,NA,NA,NA,NA,NA,NA,NA,NA,NA
27053,"""Falsch""-Screen",canvas.Screen,3_0_2_0_5_0_2,NA,NA,skipped,NA,3027213,NA,NA,3027207.84,3027214,2023-03-27T09:26:20Z,3027224.4,NULL,Zuwachs,nyongeza,d,NA,NA,NA,NA,sdf,NA,2,NA,NA,NA,NA,NA,NA,NA,NA,NA,NA,NA,NA,NA,NA,NA,NA,NA,NA,NA
27053,deep,flow.Sequence,3_0_2_0_5_0,NA,NA,completion,11631.82,3015571,3015560.32,3015576.02,3027207.84,3027214,2023-03-27T09:26:20Z,3027224.4,NULL,Zuwachs,nyongeza,d,NA,NA,NA,NA,sdf,NA,2,NA,NA,NA,NA,NA,NA,NA,NA,NA,NA,NA,NA,NA,NA,NA,NA,NA,NA,NA
27053,shallow,flow.Sequence,3_0_2_0_5_1,NA,NA,skipped,NA,3027215,NA,NA,3027207.84,3027215,2023-03-27T09:26:20Z,3027224.4,NULL,Zuwachs,nyongeza,d,NA,NA,NA,NA,sdf,NA,2,NA,NA,NA,NA,NA,NA,NA,NA,NA,NA,NA,NA,NA,NA,NA,NA,NA,NA,NA
27053,task,flow.Sequence,3_0_2_0_5,NA,NA,completion,11631.82,3015571,3015560.32,3015576.02,3027207.84,3027215,2023-03-27T09:26:20Z,3027224.4,NULL,Zuwachs,nyongeza,d,NA,NA,NA,NA,sdf,NA,2,NA,NA,NA,NA,NA,NA,NA,NA,NA,NA,NA,NA,NA,NA,NA,NA,NA,NA,NA
27053,Deep Question,html.Page,3_0_2_0_6_0_0,NA,NA,form submission,10666.6,3027216,3027207.84,3027224.4,3037891,3037891,2023-03-27T09:26:31Z,3037889.36,NULL,Spionage,upelelezi,d,NA,NA,NA,upeleleki,NA,NA,2,NA,NA,NA,NA,NA,NA,NA,NA,NA,NA,NA,NA,NA,NA,NA,NA,NA,NA,NA
27053,"""Richtig""-Screen",canvas.Screen,3_0_2_0_6_0_1,NA,NA,skipped,NA,3037894,NA,NA,3037891,3037894,2023-03-27T09:26:31Z,3037889.36,NULL,Spionage,upelelezi,d,NA,NA,NA,NA,sdf,NA,2,NA,NA,NA,NA,NA,NA,NA,NA,NA,NA,NA,NA,NA,NA,NA,NA,NA,NA,NA
27053,"""Falsch""-Screen",canvas.Screen,3_0_2_0_6_0_2,NA,NA,timeout,4993.9199999999,3037898,3037888.88,3037889.36,3042866.58,3042867,2023-03-27T09:26:36Z,3042883.28,NULL,Spionage,upelelezi,d,NA,NA,NA,NA,sdf,0,2,NA,NA,NA,NA,NA,NA,NA,NA,NA,NA,NA,NA,NA,NA,NA,NA,NA,NA,NA
27053,deep,flow.Sequence,3_0_2_0_6_0,NA,NA,completion,15642.18,3027216,3027207.84,3027224.4,3042866.58,3042868,2023-03-27T09:26:36Z,3042883.28,NULL,Spionage,upelelezi,d,NA,NA,NA,NA,sdf,NA,2,NA,NA,NA,NA,NA,NA,NA,NA,NA,NA,NA,NA,NA,NA,NA,NA,NA,NA,NA
27053,shallow,flow.Sequence,3_0_2_0_6_1,NA,NA,skipped,NA,3042868,NA,NA,3042866.58,3042868,2023-03-27T09:26:36Z,3042883.28,NULL,Spionage,upelelezi,d,NA,NA,NA,NA,sdf,NA,2,NA,NA,NA,NA,NA,NA,NA,NA,NA,NA,NA,NA,NA,NA,NA,NA,NA,NA,NA
27053,task,flow.Sequence,3_0_2_0_6,NA,NA,completion,15642.18,3027216,3027207.84,3027224.4,3042866.58,3042869,2023-03-27T09:26:36Z,3042883.28,NULL,Spionage,upelelezi,d,NA,NA,NA,NA,sdf,NA,2,NA,NA,NA,NA,NA,NA,NA,NA,NA,NA,NA,NA,NA,NA,NA,NA,NA,NA,NA
27053,Deep Question,html.Page,3_0_2_0_7_0_0,NA,NA,form submission,11228.72,3042869,3042866.58,3042883.28,3054112,3054112,2023-03-27T09:26:47Z,3054111.58,NULL,Symbol,kielezo,d,NA,NA,NA,kielezo,NA,NA,2,NA,NA,NA,NA,NA,NA,NA,NA,NA,NA,NA,NA,NA,NA,NA,NA,NA,NA,NA
27053,"""Richtig""-Screen",canvas.Screen,3_0_2_0_7_0_1,NA,NA,timeout,4997.9199999999,3054118,3054111.12,3054111.58,3059092.38,3059093,2023-03-27T09:26:52Z,3059109.5,NULL,Symbol,kielezo,d,NA,NA,NA,NA,sdf,1,2,NA,NA,NA,NA,NA,NA,NA,NA,NA,NA,NA,NA,NA,NA,NA,NA,NA,NA,NA
27053,"""Falsch""-Screen",canvas.Screen,3_0_2_0_7_0_2,NA,NA,skipped,NA,3059100,NA,NA,3059092.38,3059100,2023-03-27T09:26:52Z,3059109.5,NULL,Symbol,kielezo,d,NA,NA,NA,NA,sdf,NA,2,NA,NA,NA,NA,NA,NA,NA,NA,NA,NA,NA,NA,NA,NA,NA,NA,NA,NA,NA
27053,deep,flow.Sequence,3_0_2_0_7_0,NA,NA,completion,16209.1,3042869,3042866.58,3042883.28,3059092.38,3059101,2023-03-27T09:26:52Z,3059109.5,NULL,Symbol,kielezo,d,NA,NA,NA,NA,sdf,NA,2,NA,NA,NA,NA,NA,NA,NA,NA,NA,NA,NA,NA,NA,NA,NA,NA,NA,NA,NA
27053,shallow,flow.Sequence,3_0_2_0_7_1,NA,NA,skipped,NA,3059101,NA,NA,3059092.38,3059101,2023-03-27T09:26:52Z,3059109.5,NULL,Symbol,kielezo,d,NA,NA,NA,NA,sdf,NA,2,NA,NA,NA,NA,NA,NA,NA,NA,NA,NA,NA,NA,NA,NA,NA,NA,NA,NA,NA
27053,task,flow.Sequence,3_0_2_0_7,NA,NA,completion,16209.1,3042869,3042866.58,3042883.28,3059092.38,3059101,2023-03-27T09:26:52Z,3059109.5,NULL,Symbol,kielezo,d,NA,NA,NA,NA,sdf,NA,2,NA,NA,NA,NA,NA,NA,NA,NA,NA,NA,NA,NA,NA,NA,NA,NA,NA,NA,NA
27053,block,flow.Loop,3_0_2_0,NA,NA,completion,104760.88,2954331,2954331,2954331.5,3059092.38,3059102,2023-03-27T09:26:52Z,3059109.5,NULL,NA,NA,NA,NA,NA,NA,NA,sdf,NA,2,NA,NA,NA,NA,NA,NA,NA,NA,NA,NA,NA,NA,NA,NA,NA,NA,NA,NA,NA
27053,weiter,canvas.Screen,3_0_2_1,sdf,keypress(Space),response,1105.5,3059102,3059092.38,3059109.5,3060215,3060221,2023-03-27T09:26:53Z,3061251.74,NULL,NA,NA,NA,NA,NA,NA,NA,sdf,NA,2,NA,NA,NA,NA,NA,NA,NA,NA,NA,NA,NA,NA,NA,NA,NA,NA,NA,NA,NA
27053,check continue,flow.Sequence,3_0_2,NA,NA,completion,105883.5,2954331,2954331,2954331.5,3060215,3060221,2023-03-27T09:26:53Z,3061251.74,NULL,NA,NA,NA,NA,NA,NA,NA,sdf,NA,2,NA,NA,NA,NA,NA,NA,NA,NA,NA,NA,NA,NA,NA,NA,NA,NA,NA,NA,NA
27053,check continue,flow.Sequence,3_0_3,NA,NA,skipped,NA,3060291,NA,NA,3060215,3060291,2023-03-27T09:26:53Z,3061251.74,NULL,NA,NA,NA,NA,NA,NA,NA,qt,NA,3,NA,NA,NA,NA,NA,NA,NA,NA,NA,NA,NA,NA,NA,NA,NA,NA,NA,NA,NA
27053,check continue,flow.Sequence,3_0_4,NA,NA,skipped,NA,3060343,NA,NA,3060215,3060343,2023-03-27T09:26:53Z,3061251.74,NULL,NA,NA,NA,NA,NA,NA,NA,sd,NA,4,NA,NA,NA,NA,NA,NA,NA,NA,NA,NA,NA,NA,NA,NA,NA,NA,NA,NA,NA
27053,check continue,flow.Sequence,3_0_5,NA,NA,skipped,NA,3060386,NA,NA,3060215,3060386,2023-03-27T09:26:53Z,3061251.74,NULL,NA,NA,NA,NA,NA,NA,NA,sdf,NA,5,NA,NA,NA,NA,NA,NA,NA,NA,NA,NA,NA,NA,NA,NA,NA,NA,NA,NA,NA
27053,check continue,flow.Sequence,3_0_6,NA,NA,skipped,NA,3060427,NA,NA,3060215,3060428,2023-03-27T09:26:54Z,3061251.74,NULL,NA,NA,NA,NA,NA,NA,NA,dfs,NA,6,NA,NA,NA,NA,NA,NA,NA,NA,NA,NA,NA,NA,NA,NA,NA,NA,NA,NA,NA
27053,check continue,flow.Sequence,3_0_7,NA,NA,skipped,NA,3060467,NA,NA,3060215,3060468,2023-03-27T09:26:54Z,3061251.74,NULL,NA,NA,NA,NA,NA,NA,NA,df,NA,7,NA,NA,NA,NA,NA,NA,NA,NA,NA,NA,NA,NA,NA,NA,NA,NA,NA,NA,NA
27053,check continue,flow.Sequence,3_0_8,NA,NA,skipped,NA,3060505,NA,NA,3060215,3060505,2023-03-27T09:26:54Z,3061251.74,NULL,NA,NA,NA,NA,NA,NA,NA,dfs,NA,8,NA,NA,NA,NA,NA,NA,NA,NA,NA,NA,NA,NA,NA,NA,NA,NA,NA,NA,NA
27053,check continue,flow.Sequence,3_0_9,NA,NA,skipped,NA,3060543,NA,NA,3060215,3060543,2023-03-27T09:26:54Z,3061251.74,NULL,NA,NA,NA,NA,NA,NA,NA,dsf,NA,9,NA,NA,NA,NA,NA,NA,NA,NA,NA,NA,NA,NA,NA,NA,NA,NA,NA,NA,NA
27053,check continue,flow.Sequence,3_0_10,NA,NA,skipped,NA,3060586,NA,NA,3060215,3060586,2023-03-27T09:26:54Z,3061251.74,NULL,NA,NA,NA,NA,NA,NA,NA,df,NA,10,NA,NA,NA,NA,NA,NA,NA,NA,NA,NA,NA,NA,NA,NA,NA,NA,NA,NA,NA
27053,check continue,flow.Sequence,3_0_11,NA,NA,skipped,NA,3060621,NA,NA,3060215,3060621,2023-03-27T09:26:54Z,3061251.74,NULL,NA,NA,NA,NA,NA,NA,NA,dfs,NA,11,NA,NA,NA,NA,NA,NA,NA,NA,NA,NA,NA,NA,NA,NA,NA,NA,NA,NA,NA
27053,check continue,flow.Sequence,3_0_12,NA,NA,skipped,NA,3060654,NA,NA,3060215,3060654,2023-03-27T09:26:54Z,3061251.74,NULL,NA,NA,NA,NA,NA,NA,NA,dsf,NA,12,NA,NA,NA,NA,NA,NA,NA,NA,NA,NA,NA,NA,NA,NA,NA,NA,NA,NA,NA
27053,check continue,flow.Sequence,3_0_13,NA,NA,skipped,NA,3060690,NA,NA,3060215,3060691,2023-03-27T09:26:54Z,3061251.74,NULL,NA,NA,NA,NA,NA,NA,NA,dsf,NA,13,NA,NA,NA,NA,NA,NA,NA,NA,NA,NA,NA,NA,NA,NA,NA,NA,NA,NA,NA
27053,check continue,flow.Sequence,3_0_14,NA,NA,skipped,NA,3060727,NA,NA,3060215,3060727,2023-03-27T09:26:54Z,3061251.74,NULL,NA,NA,NA,NA,NA,NA,NA,NA,NA,14,NA,NA,NA,NA,NA,NA,NA,NA,NA,NA,NA,NA,NA,NA,NA,NA,NA,NA,NA
27053,check continue,flow.Sequence,3_0_15,NA,NA,skipped,NA,3060764,NA,NA,3060215,3060764,2023-03-27T09:26:54Z,3061251.74,NULL,NA,NA,NA,NA,NA,NA,NA,NA,NA,15,NA,NA,NA,NA,NA,NA,NA,NA,NA,NA,NA,NA,NA,NA,NA,NA,NA,NA,NA
27053,check continue,flow.Sequence,3_0_16,NA,NA,skipped,NA,3060798,NA,NA,3060215,3060798,2023-03-27T09:26:54Z,3061251.74,NULL,NA,NA,NA,NA,NA,NA,NA,NA,NA,16,NA,NA,NA,NA,NA,NA,NA,NA,NA,NA,NA,NA,NA,NA,NA,NA,NA,NA,NA
27053,check continue,flow.Sequence,3_0_17,NA,NA,skipped,NA,3060832,NA,NA,3060215,3060832,2023-03-27T09:26:54Z,3061251.74,NULL,NA,NA,NA,NA,NA,NA,NA,NA,NA,17,NA,NA,NA,NA,NA,NA,NA,NA,NA,NA,NA,NA,NA,NA,NA,NA,NA,NA,NA
27053,check continue,flow.Sequence,3_0_18,NA,NA,skipped,NA,3060871,NA,NA,3060215,3060871,2023-03-27T09:26:54Z,3061251.74,NULL,NA,NA,NA,NA,NA,NA,NA,NA,NA,18,NA,NA,NA,NA,NA,NA,NA,NA,NA,NA,NA,NA,NA,NA,NA,NA,NA,NA,NA
27053,check continue,flow.Sequence,3_0_19,NA,NA,skipped,NA,3060905,NA,NA,3060215,3060905,2023-03-27T09:26:54Z,3061251.74,NULL,NA,NA,NA,NA,NA,NA,NA,NA,NA,19,NA,NA,NA,NA,NA,NA,NA,NA,NA,NA,NA,NA,NA,NA,NA,NA,NA,NA,NA
27053,check continue,flow.Sequence,3_0_20,NA,NA,skipped,NA,3060942,NA,NA,3060215,3060942,2023-03-27T09:26:54Z,3061251.74,NULL,NA,NA,NA,NA,NA,NA,NA,NA,NA,20,NA,NA,NA,NA,NA,NA,NA,NA,NA,NA,NA,NA,NA,NA,NA,NA,NA,NA,NA
27053,check continue,flow.Sequence,3_0_21,NA,NA,skipped,NA,3060976,NA,NA,3060215,3060976,2023-03-27T09:26:54Z,3061251.74,NULL,NA,NA,NA,NA,NA,NA,NA,NA,NA,21,NA,NA,NA,NA,NA,NA,NA,NA,NA,NA,NA,NA,NA,NA,NA,NA,NA,NA,NA
27053,check continue,flow.Sequence,3_0_22,NA,NA,skipped,NA,3061009,NA,NA,3060215,3061009,2023-03-27T09:26:54Z,3061251.74,NULL,NA,NA,NA,NA,NA,NA,NA,NA,NA,22,NA,NA,NA,NA,NA,NA,NA,NA,NA,NA,NA,NA,NA,NA,NA,NA,NA,NA,NA
27053,check continue,flow.Sequence,3_0_23,NA,NA,skipped,NA,3061049,NA,NA,3060215,3061049,2023-03-27T09:26:54Z,3061251.74,NULL,NA,NA,NA,NA,NA,NA,NA,NA,NA,23,NA,NA,NA,NA,NA,NA,NA,NA,NA,NA,NA,NA,NA,NA,NA,NA,NA,NA,NA
27053,check continue,flow.Sequence,3_0_24,NA,NA,skipped,NA,3061082,NA,NA,3060215,3061082,2023-03-27T09:26:54Z,3061251.74,NULL,NA,NA,NA,NA,NA,NA,NA,NA,NA,24,NA,NA,NA,NA,NA,NA,NA,NA,NA,NA,NA,NA,NA,NA,NA,NA,NA,NA,NA
27053,check continue,flow.Sequence,3_0_25,NA,NA,skipped,NA,3061118,NA,NA,3060215,3061118,2023-03-27T09:26:54Z,3061251.74,NULL,NA,NA,NA,NA,NA,NA,NA,NA,NA,25,NA,NA,NA,NA,NA,NA,NA,NA,NA,NA,NA,NA,NA,NA,NA,NA,NA,NA,NA
27053,check continue,flow.Sequence,3_0_26,NA,NA,skipped,NA,3061150,NA,NA,3060215,3061150,2023-03-27T09:26:54Z,3061251.74,NULL,NA,NA,NA,NA,NA,NA,NA,NA,NA,26,NA,NA,NA,NA,NA,NA,NA,NA,NA,NA,NA,NA,NA,NA,NA,NA,NA,NA,NA
27053,check continue,flow.Sequence,3_0_27,NA,NA,skipped,NA,3061182,NA,NA,3060215,3061182,2023-03-27T09:26:54Z,3061251.74,NULL,NA,NA,NA,NA,NA,NA,NA,NA,NA,27,NA,NA,NA,NA,NA,NA,NA,NA,NA,NA,NA,NA,NA,NA,NA,NA,NA,NA,NA
27053,check continue,flow.Sequence,3_0_28,NA,NA,skipped,NA,3061218,NA,NA,3060215,3061218,2023-03-27T09:26:54Z,3061251.74,NULL,NA,NA,NA,NA,NA,NA,NA,NA,NA,28,NA,NA,NA,NA,NA,NA,NA,NA,NA,NA,NA,NA,NA,NA,NA,NA,NA,NA,NA
27053,check continue,flow.Sequence,3_0_29,NA,NA,skipped,NA,3061251,NA,NA,3060215,3061251,2023-03-27T09:26:54Z,3061251.74,NULL,NA,NA,NA,NA,NA,NA,NA,NA,NA,29,NA,NA,NA,NA,NA,NA,NA,NA,NA,NA,NA,NA,NA,NA,NA,NA,NA,NA,NA
27053,until continue,flow.Loop,3_0,NA,NA,completion,316848.08,2743315,2743366.58,2743366.92,3060215,3061251,2023-03-27T09:26:54Z,3061251.74,NULL,NA,NA,NA,NA,NA,NA,NA,NA,NA,NA,NA,NA,NA,NA,NA,NA,NA,NA,NA,NA,NA,NA,NA,NA,NA,NA,NA,NA,NA
27053,block 1,flow.Sequence,3,NA,NA,completion,316848.08,2743315,2743366.58,2743366.92,3060215,3061251,2023-03-27T09:26:54Z,3061251.74,NULL,NA,NA,NA,NA,NA,NA,NA,NA,NA,NA,NA,NA,NA,NA,NA,NA,NA,NA,NA,NA,NA,NA,NA,NA,NA,NA,NA,NA,NA
27053,1.Part Over,canvas.Screen,4,NA,keypress(Space),response,2853.2599999998,3061251,3061251.32,3061251.74,3064105,3064110,2023-03-27T09:26:57Z,3064183.24,NULL,NA,NA,NA,NA,NA,NA,NA,NA,NA,NA,NA,NA,NA,NA,NA,NA,NA,NA,NA,NA,NA,NA,NA,NA,NA,NA,NA,NA,NA
27053,Deep Question,html.Page,5_0_0_0_0_0_0,NA,NA,form submission,2907.7599999998,3064183,3064182.86,3064183.24,3067091,3067091,2023-03-27T09:27:00Z,3067097.74,NULL,Annäherung,maegesho,d,NA,NA,NA,m,NA,NA,0,NA,NA,NA,NA,NA,NA,NA,NA,NA,NA,NA,NA,NA,NA,NA,NA,NA,NA,NA
27053,"""Richtig""-Screen",canvas.Screen,5_0_0_0_0_0_1,NA,NA,skipped,NA,3067094,NA,NA,3067091,3067094,2023-03-27T09:27:00Z,3067097.74,NULL,Annäherung,maegesho,d,NA,NA,NA,NA,sdf,NA,0,NA,NA,NA,NA,NA,NA,NA,NA,NA,NA,NA,NA,NA,NA,NA,NA,NA,NA,NA
27053,"""Falsch""-Screen",canvas.Screen,5_0_0_0_0_0_2,NA,NA,timeout,4996.6399999997,3067096,3067089.56,3067097.74,3072077.92,3072080,2023-03-27T09:27:05Z,3072094.38,NULL,Annäherung,maegesho,d,NA,NA,NA,NA,sdf,0,0,NA,NA,NA,NA,NA,NA,NA,NA,NA,NA,NA,NA,NA,NA,NA,NA,NA,NA,NA
27053,deep,flow.Sequence,5_0_0_0_0_0,NA,NA,completion,7894.6799999997,3064183,3064182.86,3064183.24,3072077.92,3072082,2023-03-27T09:27:05Z,3072094.38,NULL,Annäherung,maegesho,d,NA,NA,NA,NA,sdf,NA,0,NA,NA,NA,NA,NA,NA,NA,NA,NA,NA,NA,NA,NA,NA,NA,NA,NA,NA,NA
27053,shallow,flow.Sequence,5_0_0_0_0_1,NA,NA,skipped,NA,3072083,NA,NA,3072077.92,3072083,2023-03-27T09:27:05Z,3072094.38,NULL,Annäherung,maegesho,d,NA,NA,NA,NA,sdf,NA,0,NA,NA,NA,NA,NA,NA,NA,NA,NA,NA,NA,NA,NA,NA,NA,NA,NA,NA,NA
27053,task,flow.Sequence,5_0_0_0_0,NA,NA,completion,7894.6799999997,3064183,3064182.86,3064183.24,3072077.92,3072084,2023-03-27T09:27:05Z,3072094.38,NULL,Annäherung,maegesho,d,NA,NA,NA,NA,sdf,NA,0,NA,NA,NA,NA,NA,NA,NA,NA,NA,NA,NA,NA,NA,NA,NA,NA,NA,NA,NA
27053,Deep Question,html.Page,5_0_0_0_1_0_0,NA,NA,form submission,5308.6200000001,3072085,3072077.92,3072094.38,3077403,3077403,2023-03-27T09:27:11Z,3077408.7,NULL,Toleranz,kuvumiliana,d,NA,NA,NA,m,NA,NA,0,NA,NA,NA,NA,NA,NA,NA,NA,NA,NA,NA,NA,NA,NA,NA,NA,NA,NA,NA
27053,"""Richtig""-Screen",canvas.Screen,5_0_0_0_1_0_1,NA,NA,skipped,NA,3077409,NA,NA,3077403,3077409,2023-03-27T09:27:11Z,3077408.7,NULL,Toleranz,kuvumiliana,d,NA,NA,NA,NA,sdf,NA,0,NA,NA,NA,NA,NA,NA,NA,NA,NA,NA,NA,NA,NA,NA,NA,NA,NA,NA,NA
27053,"""Falsch""-Screen",canvas.Screen,5_0_0_0_1_0_2,NA,NA,timeout,4995.7199999997,3077411,3077400.78,3077408.7,3082388.24,3082389,2023-03-27T09:27:15Z,3082404.42,NULL,Toleranz,kuvumiliana,d,NA,NA,NA,NA,sdf,0,0,NA,NA,NA,NA,NA,NA,NA,NA,NA,NA,NA,NA,NA,NA,NA,NA,NA,NA,NA
27053,deep,flow.Sequence,5_0_0_0_1_0,NA,NA,completion,10293.86,3072085,3072077.92,3072094.38,3082388.24,3082389,2023-03-27T09:27:15Z,3082404.42,NULL,Toleranz,kuvumiliana,d,NA,NA,NA,NA,sdf,NA,0,NA,NA,NA,NA,NA,NA,NA,NA,NA,NA,NA,NA,NA,NA,NA,NA,NA,NA,NA
27053,shallow,flow.Sequence,5_0_0_0_1_1,NA,NA,skipped,NA,3082390,NA,NA,3082388.24,3082390,2023-03-27T09:27:15Z,3082404.42,NULL,Toleranz,kuvumiliana,d,NA,NA,NA,NA,sdf,NA,0,NA,NA,NA,NA,NA,NA,NA,NA,NA,NA,NA,NA,NA,NA,NA,NA,NA,NA,NA
27053,task,flow.Sequence,5_0_0_0_1,NA,NA,completion,10293.86,3072085,3072077.92,3072094.38,3082388.24,3082391,2023-03-27T09:27:15Z,3082404.42,NULL,Toleranz,kuvumiliana,d,NA,NA,NA,NA,sdf,NA,0,NA,NA,NA,NA,NA,NA,NA,NA,NA,NA,NA,NA,NA,NA,NA,NA,NA,NA,NA
27053,deep,flow.Sequence,5_0_0_0_2_0,NA,NA,skipped,NA,3082391,NA,NA,3082388.24,3082392,2023-03-27T09:27:15Z,3082404.42,NULL,Polizist,msongora,s,simanzi,mandhari,nidhamu,NA,sdf,NA,0,NA,NA,NA,NA,NA,NA,NA,NA,NA,NA,NA,NA,NA,NA,NA,NA,NA,NA,NA
27053,Shallow Question,html.Page,5_0_0_0_2_1_0,NA,NA,form submission,8253.5800000001,3082392,3082388.24,3082404.42,3090658,3090659,2023-03-27T09:27:24Z,3090657.22,NULL,Polizist,msongora,s,simanzi,mandhari,nidhamu,mandhari,NA,NA,0,NA,NA,NA,NA,NA,NA,NA,NA,NA,NA,NA,NA,NA,NA,NA,NA,NA,NA,NA
27053,"""Richtig""-Screen",canvas.Screen,5_0_0_0_2_1_1,NA,NA,skipped,NA,3090663,NA,NA,3090658,3090663,2023-03-27T09:27:24Z,3090657.22,NULL,Polizist,msongora,s,simanzi,mandhari,nidhamu,NA,sdf,NA,0,NA,NA,NA,NA,NA,NA,NA,NA,NA,NA,NA,NA,NA,NA,NA,NA,NA,NA,NA
27053,"""Falsch""-Screen",canvas.Screen,5_0_0_0_2_1_2,NA,NA,timeout,5000.3399999999,3090666,3090656.72,3090657.22,3095640.84,3095642,2023-03-27T09:27:29Z,3095657.56,NULL,Polizist,msongora,s,simanzi,mandhari,nidhamu,NA,sdf,0,0,NA,NA,NA,NA,NA,NA,NA,NA,NA,NA,NA,NA,NA,NA,NA,NA,NA,NA,NA
27053,shallow,flow.Sequence,5_0_0_0_2_1,NA,NA,completion,13236.42,3082392,3082388.24,3082404.42,3095640.84,3095642,2023-03-27T09:27:29Z,3095657.56,NULL,Polizist,msongora,s,simanzi,mandhari,nidhamu,NA,sdf,NA,0,NA,NA,NA,NA,NA,NA,NA,NA,NA,NA,NA,NA,NA,NA,NA,NA,NA,NA,NA
27053,task,flow.Sequence,5_0_0_0_2,NA,NA,completion,13236.42,3082391,3082388.24,3082404.42,3095640.84,3095643,2023-03-27T09:27:29Z,3095657.56,NULL,Polizist,msongora,s,simanzi,mandhari,nidhamu,NA,sdf,NA,0,NA,NA,NA,NA,NA,NA,NA,NA,NA,NA,NA,NA,NA,NA,NA,NA,NA,NA,NA
27053,deep,flow.Sequence,5_0_0_0_3_0,NA,NA,skipped,NA,3095643,NA,NA,3095640.84,3095643,2023-03-27T09:27:29Z,3095657.56,NULL,Vermutung,udhanifu,s,haramia,tikisho,itifaki,NA,sdf,NA,0,NA,NA,NA,NA,NA,NA,NA,NA,NA,NA,NA,NA,NA,NA,NA,NA,NA,NA,NA
27053,Shallow Question,html.Page,5_0_0_0_3_1_0,NA,NA,form submission,4848.4399999999,3095644,3095640.84,3095657.56,3100506,3100507,2023-03-27T09:27:34Z,3100506.06,NULL,Vermutung,udhanifu,s,haramia,tikisho,itifaki,udhanifu,NA,NA,0,NA,NA,NA,NA,NA,NA,NA,NA,NA,NA,NA,NA,NA,NA,NA,NA,NA,NA,NA
27053,"""Richtig""-Screen",canvas.Screen,5_0_0_0_3_1_1,NA,NA,timeout,4994.3799999999,3100511,3100505.6,3100506.06,3105483.8,3105484,2023-03-27T09:27:39Z,3105500.44,NULL,Vermutung,udhanifu,s,haramia,tikisho,itifaki,NA,sdf,1,0,NA,NA,NA,NA,NA,NA,NA,NA,NA,NA,NA,NA,NA,NA,NA,NA,NA,NA,NA
27053,"""Falsch""-Screen",canvas.Screen,5_0_0_0_3_1_2,NA,NA,skipped,NA,3105491,NA,NA,3105483.8,3105491,2023-03-27T09:27:39Z,3105500.44,NULL,Vermutung,udhanifu,s,haramia,tikisho,itifaki,NA,sdf,NA,0,NA,NA,NA,NA,NA,NA,NA,NA,NA,NA,NA,NA,NA,NA,NA,NA,NA,NA,NA
27053,shallow,flow.Sequence,5_0_0_0_3_1,NA,NA,completion,9826.2399999998,3095644,3095640.84,3095657.56,3105483.8,3105491,2023-03-27T09:27:39Z,3105500.44,NULL,Vermutung,udhanifu,s,haramia,tikisho,itifaki,NA,sdf,NA,0,NA,NA,NA,NA,NA,NA,NA,NA,NA,NA,NA,NA,NA,NA,NA,NA,NA,NA,NA
27053,task,flow.Sequence,5_0_0_0_3,NA,NA,completion,9826.2399999998,3095643,3095640.84,3095657.56,3105483.8,3105492,2023-03-27T09:27:39Z,3105500.44,NULL,Vermutung,udhanifu,s,haramia,tikisho,itifaki,NA,sdf,NA,0,NA,NA,NA,NA,NA,NA,NA,NA,NA,NA,NA,NA,NA,NA,NA,NA,NA,NA,NA
27053,Deep Question,html.Page,5_0_0_0_4_0_0,NA,NA,form submission,3745.5600000001,3105492,3105483.8,3105500.44,3109246,3109246,2023-03-27T09:27:42Z,3109245.74,NULL,Sympathie,mapendano,d,NA,NA,NA,m,NA,NA,0,NA,NA,NA,NA,NA,NA,NA,NA,NA,NA,NA,NA,NA,NA,NA,NA,NA,NA,NA
27053,"""Richtig""-Screen",canvas.Screen,5_0_0_0_4_0_1,NA,NA,skipped,NA,3109250,NA,NA,3109246,3109250,2023-03-27T09:27:42Z,3109245.74,NULL,Sympathie,mapendano,d,NA,NA,NA,NA,sdf,NA,0,NA,NA,NA,NA,NA,NA,NA,NA,NA,NA,NA,NA,NA,NA,NA,NA,NA,NA,NA
27053,"""Falsch""-Screen",canvas.Screen,5_0_0_0_4_0_2,NA,NA,timeout,4994.7799999998,3109253,3109245.26,3109245.74,3114222.94,3114223,2023-03-27T09:27:47Z,3114240.52,NULL,Sympathie,mapendano,d,NA,NA,NA,NA,sdf,0,0,NA,NA,NA,NA,NA,NA,NA,NA,NA,NA,NA,NA,NA,NA,NA,NA,NA,NA,NA
27053,deep,flow.Sequence,5_0_0_0_4_0,NA,NA,completion,8722.5,3105492,3105483.8,3105500.44,3114222.94,3114224,2023-03-27T09:27:47Z,3114240.52,NULL,Sympathie,mapendano,d,NA,NA,NA,NA,sdf,NA,0,NA,NA,NA,NA,NA,NA,NA,NA,NA,NA,NA,NA,NA,NA,NA,NA,NA,NA,NA
27053,shallow,flow.Sequence,5_0_0_0_4_1,NA,NA,skipped,NA,3114224,NA,NA,3114222.94,3114224,2023-03-27T09:27:47Z,3114240.52,NULL,Sympathie,mapendano,d,NA,NA,NA,NA,sdf,NA,0,NA,NA,NA,NA,NA,NA,NA,NA,NA,NA,NA,NA,NA,NA,NA,NA,NA,NA,NA
27053,task,flow.Sequence,5_0_0_0_4,NA,NA,completion,8722.5,3105492,3105483.8,3105500.44,3114222.94,3114225,2023-03-27T09:27:47Z,3114240.52,NULL,Sympathie,mapendano,d,NA,NA,NA,NA,sdf,NA,0,NA,NA,NA,NA,NA,NA,NA,NA,NA,NA,NA,NA,NA,NA,NA,NA,NA,NA,NA
27053,Deep Question,html.Page,5_0_0_0_5_0_0,NA,NA,form submission,6584.48,3114225,3114222.94,3114240.52,3120825,3120825,2023-03-27T09:27:54Z,3120823.9,NULL,Schlange,foleni,d,NA,NA,NA,m,NA,NA,0,NA,NA,NA,NA,NA,NA,NA,NA,NA,NA,NA,NA,NA,NA,NA,NA,NA,NA,NA
27053,"""Richtig""-Screen",canvas.Screen,5_0_0_0_5_0_1,NA,NA,skipped,NA,3120829,NA,NA,3120825,3120829,2023-03-27T09:27:54Z,3120823.9,NULL,Schlange,foleni,d,NA,NA,NA,NA,sdf,NA,0,NA,NA,NA,NA,NA,NA,NA,NA,NA,NA,NA,NA,NA,NA,NA,NA,NA,NA,NA
27053,"""Falsch""-Screen",canvas.Screen,5_0_0_0_5_0_2,NA,NA,timeout,4997.2800000003,3120832,3120823.42,3120823.9,3125804.74,3125805,2023-03-27T09:27:59Z,3125821.18,NULL,Schlange,foleni,d,NA,NA,NA,NA,sdf,0,0,NA,NA,NA,NA,NA,NA,NA,NA,NA,NA,NA,NA,NA,NA,NA,NA,NA,NA,NA
27053,deep,flow.Sequence,5_0_0_0_5_0,NA,NA,completion,11564.22,3114225,3114222.94,3114240.52,3125804.74,3125805,2023-03-27T09:27:59Z,3125821.18,NULL,Schlange,foleni,d,NA,NA,NA,NA,sdf,NA,0,NA,NA,NA,NA,NA,NA,NA,NA,NA,NA,NA,NA,NA,NA,NA,NA,NA,NA,NA
27053,shallow,flow.Sequence,5_0_0_0_5_1,NA,NA,skipped,NA,3125806,NA,NA,3125804.74,3125806,2023-03-27T09:27:59Z,3125821.18,NULL,Schlange,foleni,d,NA,NA,NA,NA,sdf,NA,0,NA,NA,NA,NA,NA,NA,NA,NA,NA,NA,NA,NA,NA,NA,NA,NA,NA,NA,NA
27053,task,flow.Sequence,5_0_0_0_5,NA,NA,completion,11564.22,3114225,3114222.94,3114240.52,3125804.74,3125807,2023-03-27T09:27:59Z,3125821.18,NULL,Schlange,foleni,d,NA,NA,NA,NA,sdf,NA,0,NA,NA,NA,NA,NA,NA,NA,NA,NA,NA,NA,NA,NA,NA,NA,NA,NA,NA,NA
27053,deep,flow.Sequence,5_0_0_0_6_0,NA,NA,skipped,NA,3125807,NA,NA,3125804.74,3125807,2023-03-27T09:27:59Z,3125821.18,NULL,Inhalt,yaliyomo,s,kishawishi,hifadhi,kutembea,NA,sdf,NA,0,NA,NA,NA,NA,NA,NA,NA,NA,NA,NA,NA,NA,NA,NA,NA,NA,NA,NA,NA
27053,Shallow Question,html.Page,5_0_0_0_6_1_0,NA,NA,form submission,4512.8199999998,3125808,3125804.74,3125821.18,3130334,3130335,2023-03-27T09:28:03Z,3130333.92,NULL,Inhalt,yaliyomo,s,kishawishi,hifadhi,kutembea,kutembea,NA,NA,0,NA,NA,NA,NA,NA,NA,NA,NA,NA,NA,NA,NA,NA,NA,NA,NA,NA,NA,NA
27053,"""Richtig""-Screen",canvas.Screen,5_0_0_0_6_1_1,NA,NA,skipped,NA,3130338,NA,NA,3130334,3130338,2023-03-27T09:28:03Z,3130333.92,NULL,Inhalt,yaliyomo,s,kishawishi,hifadhi,kutembea,NA,sdf,NA,0,NA,NA,NA,NA,NA,NA,NA,NA,NA,NA,NA,NA,NA,NA,NA,NA,NA,NA,NA
27053,"""Falsch""-Screen",canvas.Screen,5_0_0_0_6_1_2,NA,NA,timeout,4995.8200000003,3130341,3130333.48,3130333.92,3135313.46,3135314,2023-03-27T09:28:08Z,3135329.74,NULL,Inhalt,yaliyomo,s,kishawishi,hifadhi,kutembea,NA,sdf,0,0,NA,NA,NA,NA,NA,NA,NA,NA,NA,NA,NA,NA,NA,NA,NA,NA,NA,NA,NA
27053,shallow,flow.Sequence,5_0_0_0_6_1,NA,NA,completion,9492.2799999998,3125807,3125804.74,3125821.18,3135313.46,3135314,2023-03-27T09:28:08Z,3135329.74,NULL,Inhalt,yaliyomo,s,kishawishi,hifadhi,kutembea,NA,sdf,NA,0,NA,NA,NA,NA,NA,NA,NA,NA,NA,NA,NA,NA,NA,NA,NA,NA,NA,NA,NA
27053,task,flow.Sequence,5_0_0_0_6,NA,NA,completion,9492.2799999998,3125807,3125804.74,3125821.18,3135313.46,3135315,2023-03-27T09:28:08Z,3135329.74,NULL,Inhalt,yaliyomo,s,kishawishi,hifadhi,kutembea,NA,sdf,NA,0,NA,NA,NA,NA,NA,NA,NA,NA,NA,NA,NA,NA,NA,NA,NA,NA,NA,NA,NA
27053,deep,flow.Sequence,5_0_0_0_7_0,NA,NA,skipped,NA,3135315,NA,NA,3135313.46,3135315,2023-03-27T09:28:08Z,3135329.74,NULL,Beweis,ushahidi,s,marudio,kizuizi,mtendaji,NA,sdf,NA,0,NA,NA,NA,NA,NA,NA,NA,NA,NA,NA,NA,NA,NA,NA,NA,NA,NA,NA,NA
27053,Shallow Question,html.Page,5_0_0_0_7_1_0,NA,NA,form submission,4348.2599999998,3135315,3135313.46,3135329.74,3139678,3139678,2023-03-27T09:28:13Z,3139677.88,NULL,Beweis,ushahidi,s,marudio,kizuizi,mtendaji,ushahidi,NA,NA,0,NA,NA,NA,NA,NA,NA,NA,NA,NA,NA,NA,NA,NA,NA,NA,NA,NA,NA,NA
27053,"""Richtig""-Screen",canvas.Screen,5_0_0_0_7_1_1,NA,NA,timeout,4993.9399999999,3139682,3139677.42,3139677.88,3144655.08,3144656,2023-03-27T09:28:18Z,3144671.82,NULL,Beweis,ushahidi,s,marudio,kizuizi,mtendaji,NA,sdf,1,0,NA,NA,NA,NA,NA,NA,NA,NA,NA,NA,NA,NA,NA,NA,NA,NA,NA,NA,NA
27053,"""Falsch""-Screen",canvas.Screen,5_0_0_0_7_1_2,NA,NA,skipped,NA,3144659,NA,NA,3144655.08,3144660,2023-03-27T09:28:18Z,3144671.82,NULL,Beweis,ushahidi,s,marudio,kizuizi,mtendaji,NA,sdf,NA,0,NA,NA,NA,NA,NA,NA,NA,NA,NA,NA,NA,NA,NA,NA,NA,NA,NA,NA,NA
27053,shallow,flow.Sequence,5_0_0_0_7_1,NA,NA,completion,9325.3399999999,3135315,3135313.46,3135329.74,3144655.08,3144660,2023-03-27T09:28:18Z,3144671.82,NULL,Beweis,ushahidi,s,marudio,kizuizi,mtendaji,NA,sdf,NA,0,NA,NA,NA,NA,NA,NA,NA,NA,NA,NA,NA,NA,NA,NA,NA,NA,NA,NA,NA
27053,task,flow.Sequence,5_0_0_0_7,NA,NA,completion,9325.3399999999,3135315,3135313.46,3135329.74,3144655.08,3144660,2023-03-27T09:28:18Z,3144671.82,NULL,Beweis,ushahidi,s,marudio,kizuizi,mtendaji,NA,sdf,NA,0,NA,NA,NA,NA,NA,NA,NA,NA,NA,NA,NA,NA,NA,NA,NA,NA,NA,NA,NA
27053,block,flow.Loop,5_0_0_0,NA,NA,completion,80471.84,3064183,3064182.86,3064183.24,3144655.08,3144661,2023-03-27T09:28:18Z,3144671.82,NULL,NA,NA,NA,NA,NA,NA,NA,sdf,NA,0,NA,NA,NA,NA,NA,NA,NA,NA,NA,NA,NA,NA,NA,NA,NA,NA,NA,NA,NA
27053,weiter,canvas.Screen,5_0_0_1,sdf,keypress(Space),response,894.18000000017,3144661,3144655.08,3144671.82,3145566,3145572,2023-03-27T09:28:19Z,3145632.78,NULL,NA,NA,NA,NA,NA,NA,NA,sdf,NA,0,NA,NA,NA,NA,NA,NA,NA,NA,NA,NA,NA,NA,NA,NA,NA,NA,NA,NA,NA
27053,check continue,flow.Sequence,5_0_0,NA,NA,completion,81382.76,3064183,3064182.86,3064183.24,3145566,3145572,2023-03-27T09:28:19Z,3145632.78,NULL,NA,NA,NA,NA,NA,NA,NA,sdf,NA,0,NA,NA,NA,NA,NA,NA,NA,NA,NA,NA,NA,NA,NA,NA,NA,NA,NA,NA,NA
27053,Deep Question,html.Page,5_0_1_0_0_0_0,NA,NA,form submission,10575.22,3145633,3145632.42,3145632.78,3156208,3156208,2023-03-27T09:28:29Z,3156207.44,NULL,Annäherung,maegesho,d,NA,NA,NA,m,NA,NA,1,NA,NA,NA,NA,NA,NA,NA,NA,NA,NA,NA,NA,NA,NA,NA,NA,NA,NA,NA
27053,"""Richtig""-Screen",canvas.Screen,5_0_1_0_0_0_1,NA,NA,skipped,NA,3156211,NA,NA,3156208,3156212,2023-03-27T09:28:29Z,3156207.44,NULL,Annäherung,maegesho,d,NA,NA,NA,NA,sdfdsf,NA,1,NA,NA,NA,NA,NA,NA,NA,NA,NA,NA,NA,NA,NA,NA,NA,NA,NA,NA,NA
27053,"""Falsch""-Screen",canvas.Screen,5_0_1_0_0_0_2,NA,NA,timeout,4991.3799999999,3156215,3156206.96,3156207.44,3161182.54,3161184,2023-03-27T09:28:34Z,3161198.82,NULL,Annäherung,maegesho,d,NA,NA,NA,NA,sdfdsf,0,1,NA,NA,NA,NA,NA,NA,NA,NA,NA,NA,NA,NA,NA,NA,NA,NA,NA,NA,NA
27053,deep,flow.Sequence,5_0_1_0_0_0,NA,NA,completion,15549.76,3145633,3145632.42,3145632.78,3161182.54,3161184,2023-03-27T09:28:34Z,3161198.82,NULL,Annäherung,maegesho,d,NA,NA,NA,NA,sdfdsf,NA,1,NA,NA,NA,NA,NA,NA,NA,NA,NA,NA,NA,NA,NA,NA,NA,NA,NA,NA,NA
27053,shallow,flow.Sequence,5_0_1_0_0_1,NA,NA,skipped,NA,3161184,NA,NA,3161182.54,3161184,2023-03-27T09:28:34Z,3161198.82,NULL,Annäherung,maegesho,d,NA,NA,NA,NA,sdfdsf,NA,1,NA,NA,NA,NA,NA,NA,NA,NA,NA,NA,NA,NA,NA,NA,NA,NA,NA,NA,NA
27053,task,flow.Sequence,5_0_1_0_0,NA,NA,completion,15549.76,3145633,3145632.42,3145632.78,3161182.54,3161185,2023-03-27T09:28:34Z,3161198.82,NULL,Annäherung,maegesho,d,NA,NA,NA,NA,sdfdsf,NA,1,NA,NA,NA,NA,NA,NA,NA,NA,NA,NA,NA,NA,NA,NA,NA,NA,NA,NA,NA
27053,Deep Question,html.Page,5_0_1_0_1_0_0,NA,NA,form submission,5739.1800000002,3161185,3161182.54,3161198.82,3166938,3166938,2023-03-27T09:28:40Z,3166937.84,NULL,Schlange,foleni,d,NA,NA,NA,foleni,NA,NA,1,NA,NA,NA,NA,NA,NA,NA,NA,NA,NA,NA,NA,NA,NA,NA,NA,NA,NA,NA
27053,"""Richtig""-Screen",canvas.Screen,5_0_1_0_1_0_1,NA,NA,timeout,5006.7800000003,3166942,3166937.36,3166937.84,3171927.92,3171929,2023-03-27T09:28:45Z,3171944.62,NULL,Schlange,foleni,d,NA,NA,NA,NA,sdfdsf,1,1,NA,NA,NA,NA,NA,NA,NA,NA,NA,NA,NA,NA,NA,NA,NA,NA,NA,NA,NA
27053,"""Falsch""-Screen",canvas.Screen,5_0_1_0_1_0_2,NA,NA,skipped,NA,3171932,NA,NA,3171927.92,3171932,2023-03-27T09:28:45Z,3171944.62,NULL,Schlange,foleni,d,NA,NA,NA,NA,sdfdsf,NA,1,NA,NA,NA,NA,NA,NA,NA,NA,NA,NA,NA,NA,NA,NA,NA,NA,NA,NA,NA
27053,deep,flow.Sequence,5_0_1_0_1_0,NA,NA,completion,10729.1,3161185,3161182.54,3161198.82,3171927.92,3171933,2023-03-27T09:28:45Z,3171944.62,NULL,Schlange,foleni,d,NA,NA,NA,NA,sdfdsf,NA,1,NA,NA,NA,NA,NA,NA,NA,NA,NA,NA,NA,NA,NA,NA,NA,NA,NA,NA,NA
27053,shallow,flow.Sequence,5_0_1_0_1_1,NA,NA,skipped,NA,3171933,NA,NA,3171927.92,3171933,2023-03-27T09:28:45Z,3171944.62,NULL,Schlange,foleni,d,NA,NA,NA,NA,sdfdsf,NA,1,NA,NA,NA,NA,NA,NA,NA,NA,NA,NA,NA,NA,NA,NA,NA,NA,NA,NA,NA
27053,task,flow.Sequence,5_0_1_0_1,NA,NA,completion,10729.1,3161185,3161182.54,3161198.82,3171927.92,3171933,2023-03-27T09:28:45Z,3171944.62,NULL,Schlange,foleni,d,NA,NA,NA,NA,sdfdsf,NA,1,NA,NA,NA,NA,NA,NA,NA,NA,NA,NA,NA,NA,NA,NA,NA,NA,NA,NA,NA
27053,Deep Question,html.Page,5_0_1_0_2_0_0,NA,NA,form submission,11867.38,3171934,3171927.92,3171944.62,3183812,3183812,2023-03-27T09:28:57Z,3183809.5,NULL,Sympathie,mapendano,d,NA,NA,NA,m,NA,NA,1,NA,NA,NA,NA,NA,NA,NA,NA,NA,NA,NA,NA,NA,NA,NA,NA,NA,NA,NA
27053,"""Richtig""-Screen",canvas.Screen,5_0_1_0_2_0_1,NA,NA,skipped,NA,3183815,NA,NA,3183812,3183815,2023-03-27T09:28:57Z,3183809.5,NULL,Sympathie,mapendano,d,NA,NA,NA,NA,sdfdsf,NA,1,NA,NA,NA,NA,NA,NA,NA,NA,NA,NA,NA,NA,NA,NA,NA,NA,NA,NA,NA
27053,"""Falsch""-Screen",canvas.Screen,5_0_1_0_2_0_2,NA,NA,timeout,4995.8599999999,3183818,3183808.72,3183809.5,3188789.62,3188790,2023-03-27T09:29:02Z,3188805.36,NULL,Sympathie,mapendano,d,NA,NA,NA,NA,sdfdsf,0,1,NA,NA,NA,NA,NA,NA,NA,NA,NA,NA,NA,NA,NA,NA,NA,NA,NA,NA,NA
27053,deep,flow.Sequence,5_0_1_0_2_0,NA,NA,completion,16845,3171934,3171927.92,3171944.62,3188789.62,3188790,2023-03-27T09:29:02Z,3188805.36,NULL,Sympathie,mapendano,d,NA,NA,NA,NA,sdfdsf,NA,1,NA,NA,NA,NA,NA,NA,NA,NA,NA,NA,NA,NA,NA,NA,NA,NA,NA,NA,NA
27053,shallow,flow.Sequence,5_0_1_0_2_1,NA,NA,skipped,NA,3188792,NA,NA,3188789.62,3188792,2023-03-27T09:29:02Z,3188805.36,NULL,Sympathie,mapendano,d,NA,NA,NA,NA,sdfdsf,NA,1,NA,NA,NA,NA,NA,NA,NA,NA,NA,NA,NA,NA,NA,NA,NA,NA,NA,NA,NA
27053,task,flow.Sequence,5_0_1_0_2,NA,NA,completion,16845,3171934,3171927.92,3171944.62,3188789.62,3188792,2023-03-27T09:29:02Z,3188805.36,NULL,Sympathie,mapendano,d,NA,NA,NA,NA,sdfdsf,NA,1,NA,NA,NA,NA,NA,NA,NA,NA,NA,NA,NA,NA,NA,NA,NA,NA,NA,NA,NA
27053,deep,flow.Sequence,5_0_1_0_3_0,NA,NA,skipped,NA,3188792,NA,NA,3188789.62,3188793,2023-03-27T09:29:02Z,3188805.36,NULL,Inhalt,yaliyomo,s,kishawishi,hifadhi,kutembea,NA,sdfdsf,NA,1,NA,NA,NA,NA,NA,NA,NA,NA,NA,NA,NA,NA,NA,NA,NA,NA,NA,NA,NA
27053,Shallow Question,html.Page,5_0_1_0_3_1_0,NA,NA,form submission,9409.6400000001,3188793,3188789.62,3188805.36,3198215,3198216,2023-03-27T09:29:11Z,3198248.2,NULL,Inhalt,yaliyomo,s,kishawishi,hifadhi,kutembea,yaliyomo,NA,NA,1,NA,NA,NA,NA,NA,NA,NA,NA,NA,NA,NA,NA,NA,NA,NA,NA,NA,NA,NA
27053,"""Richtig""-Screen",canvas.Screen,5_0_1_0_3_1_1,NA,NA,timeout,4996.6799999997,3198217,3198231.48,3198248.2,3203228.16,3203229,2023-03-27T09:29:16Z,3203244.88,NULL,Inhalt,yaliyomo,s,kishawishi,hifadhi,kutembea,NA,sdfdsf,1,1,NA,NA,NA,NA,NA,NA,NA,NA,NA,NA,NA,NA,NA,NA,NA,NA,NA,NA,NA
27053,"""Falsch""-Screen",canvas.Screen,5_0_1_0_3_1_2,NA,NA,skipped,NA,3203233,NA,NA,3203228.16,3203233,2023-03-27T09:29:16Z,3203244.88,NULL,Inhalt,yaliyomo,s,kishawishi,hifadhi,kutembea,NA,sdfdsf,NA,1,NA,NA,NA,NA,NA,NA,NA,NA,NA,NA,NA,NA,NA,NA,NA,NA,NA,NA,NA
27053,shallow,flow.Sequence,5_0_1_0_3_1,NA,NA,completion,14422.8,3188793,3188789.62,3188805.36,3203228.16,3203234,2023-03-27T09:29:16Z,3203244.88,NULL,Inhalt,yaliyomo,s,kishawishi,hifadhi,kutembea,NA,sdfdsf,NA,1,NA,NA,NA,NA,NA,NA,NA,NA,NA,NA,NA,NA,NA,NA,NA,NA,NA,NA,NA
27053,task,flow.Sequence,5_0_1_0_3,NA,NA,completion,14422.8,3188792,3188789.62,3188805.36,3203228.16,3203234,2023-03-27T09:29:16Z,3203244.88,NULL,Inhalt,yaliyomo,s,kishawishi,hifadhi,kutembea,NA,sdfdsf,NA,1,NA,NA,NA,NA,NA,NA,NA,NA,NA,NA,NA,NA,NA,NA,NA,NA,NA,NA,NA
27053,Deep Question,html.Page,5_0_1_0_4_0_0,NA,NA,form submission,2513.1200000001,3203234,3203228.16,3203244.88,3205758,3205758,2023-03-27T09:29:19Z,3205758.52,NULL,Toleranz,kuvumiliana,d,NA,NA,NA,m,NA,NA,1,NA,NA,NA,NA,NA,NA,NA,NA,NA,NA,NA,NA,NA,NA,NA,NA,NA,NA,NA
27053,"""Richtig""-Screen",canvas.Screen,5_0_1_0_4_0_1,NA,NA,skipped,NA,3205760,NA,NA,3205758,3205760,2023-03-27T09:29:19Z,3205758.52,NULL,Toleranz,kuvumiliana,d,NA,NA,NA,NA,sdfdsf,NA,1,NA,NA,NA,NA,NA,NA,NA,NA,NA,NA,NA,NA,NA,NA,NA,NA,NA,NA,NA
27053,"""Falsch""-Screen",canvas.Screen,5_0_1_0_4_0_2,NA,NA,timeout,5005.3999999999,3205762,3205758.28,3205758.52,3210748.16,3210751,2023-03-27T09:29:24Z,3210763.92,NULL,Toleranz,kuvumiliana,d,NA,NA,NA,NA,sdfdsf,0,1,NA,NA,NA,NA,NA,NA,NA,NA,NA,NA,NA,NA,NA,NA,NA,NA,NA,NA,NA
27053,deep,flow.Sequence,5_0_1_0_4_0,NA,NA,completion,7503.2800000003,3203234,3203228.16,3203244.88,3210748.16,3210754,2023-03-27T09:29:24Z,3210763.92,NULL,Toleranz,kuvumiliana,d,NA,NA,NA,NA,sdfdsf,NA,1,NA,NA,NA,NA,NA,NA,NA,NA,NA,NA,NA,NA,NA,NA,NA,NA,NA,NA,NA
27053,shallow,flow.Sequence,5_0_1_0_4_1,NA,NA,skipped,NA,3210754,NA,NA,3210748.16,3210755,2023-03-27T09:29:24Z,3210763.92,NULL,Toleranz,kuvumiliana,d,NA,NA,NA,NA,sdfdsf,NA,1,NA,NA,NA,NA,NA,NA,NA,NA,NA,NA,NA,NA,NA,NA,NA,NA,NA,NA,NA
27053,task,flow.Sequence,5_0_1_0_4,NA,NA,completion,7503.2800000003,3203234,3203228.16,3203244.88,3210748.16,3210757,2023-03-27T09:29:24Z,3210763.92,NULL,Toleranz,kuvumiliana,d,NA,NA,NA,NA,sdfdsf,NA,1,NA,NA,NA,NA,NA,NA,NA,NA,NA,NA,NA,NA,NA,NA,NA,NA,NA,NA,NA
27053,deep,flow.Sequence,5_0_1_0_5_0,NA,NA,skipped,NA,3210757,NA,NA,3210748.16,3210757,2023-03-27T09:29:24Z,3210763.92,NULL,Polizist,msongora,s,simanzi,mandhari,nidhamu,NA,sdfdsf,NA,1,NA,NA,NA,NA,NA,NA,NA,NA,NA,NA,NA,NA,NA,NA,NA,NA,NA,NA,NA
27053,Shallow Question,html.Page,5_0_1_0_5_1_0,NA,NA,form submission,8332.0800000001,3210758,3210748.16,3210763.92,3219096,3219097,2023-03-27T09:29:32Z,3219120.6,NULL,Polizist,msongora,s,simanzi,mandhari,nidhamu,msongora,NA,NA,1,NA,NA,NA,NA,NA,NA,NA,NA,NA,NA,NA,NA,NA,NA,NA,NA,NA,NA,NA
27053,"""Richtig""-Screen",canvas.Screen,5_0_1_0_5_1_1,NA,NA,timeout,4995.5800000001,3219101,3219087.6,3219120.6,3224099.6,3224101,2023-03-27T09:29:37Z,3224116.18,NULL,Polizist,msongora,s,simanzi,mandhari,nidhamu,NA,sdfdsf,1,1,NA,NA,NA,NA,NA,NA,NA,NA,NA,NA,NA,NA,NA,NA,NA,NA,NA,NA,NA
27053,"""Falsch""-Screen",canvas.Screen,5_0_1_0_5_1_2,NA,NA,skipped,NA,3224107,NA,NA,3224099.6,3224107,2023-03-27T09:29:37Z,3224116.18,NULL,Polizist,msongora,s,simanzi,mandhari,nidhamu,NA,sdfdsf,NA,1,NA,NA,NA,NA,NA,NA,NA,NA,NA,NA,NA,NA,NA,NA,NA,NA,NA,NA,NA
27053,shallow,flow.Sequence,5_0_1_0_5_1,NA,NA,completion,13335.68,3210758,3210748.16,3210763.92,3224099.6,3224108,2023-03-27T09:29:37Z,3224116.18,NULL,Polizist,msongora,s,simanzi,mandhari,nidhamu,NA,sdfdsf,NA,1,NA,NA,NA,NA,NA,NA,NA,NA,NA,NA,NA,NA,NA,NA,NA,NA,NA,NA,NA
27053,task,flow.Sequence,5_0_1_0_5,NA,NA,completion,13335.68,3210757,3210748.16,3210763.92,3224099.6,3224108,2023-03-27T09:29:37Z,3224116.18,NULL,Polizist,msongora,s,simanzi,mandhari,nidhamu,NA,sdfdsf,NA,1,NA,NA,NA,NA,NA,NA,NA,NA,NA,NA,NA,NA,NA,NA,NA,NA,NA,NA,NA
27053,deep,flow.Sequence,5_0_1_0_6_0,NA,NA,skipped,NA,3224109,NA,NA,3224099.6,3224109,2023-03-27T09:29:37Z,3224116.18,NULL,Vermutung,udhanifu,s,haramia,tikisho,itifaki,NA,sdfdsf,NA,1,NA,NA,NA,NA,NA,NA,NA,NA,NA,NA,NA,NA,NA,NA,NA,NA,NA,NA,NA
27053,Shallow Question,html.Page,5_0_1_0_6_1_0,NA,NA,form submission,4521.8199999998,3224110,3224099.6,3224116.18,3228638,3228638,2023-03-27T09:29:42Z,3228662.26,NULL,Vermutung,udhanifu,s,haramia,tikisho,itifaki,udhanifu,NA,NA,1,NA,NA,NA,NA,NA,NA,NA,NA,NA,NA,NA,NA,NA,NA,NA,NA,NA,NA,NA
27053,"""Richtig""-Screen",canvas.Screen,5_0_1_0_6_1_1,NA,NA,timeout,4997.1800000002,3228642,3228630.32,3228662.26,3233642.72,3233643,2023-03-27T09:29:47Z,3233659.44,NULL,Vermutung,udhanifu,s,haramia,tikisho,itifaki,NA,sdfdsf,1,1,NA,NA,NA,NA,NA,NA,NA,NA,NA,NA,NA,NA,NA,NA,NA,NA,NA,NA,NA
27053,"""Falsch""-Screen",canvas.Screen,5_0_1_0_6_1_2,NA,NA,skipped,NA,3233648,NA,NA,3233642.72,3233648,2023-03-27T09:29:47Z,3233659.44,NULL,Vermutung,udhanifu,s,haramia,tikisho,itifaki,NA,sdfdsf,NA,1,NA,NA,NA,NA,NA,NA,NA,NA,NA,NA,NA,NA,NA,NA,NA,NA,NA,NA,NA
27053,shallow,flow.Sequence,5_0_1_0_6_1,NA,NA,completion,9526.54,3224109,3224099.6,3224116.18,3233642.72,3233649,2023-03-27T09:29:47Z,3233659.44,NULL,Vermutung,udhanifu,s,haramia,tikisho,itifaki,NA,sdfdsf,NA,1,NA,NA,NA,NA,NA,NA,NA,NA,NA,NA,NA,NA,NA,NA,NA,NA,NA,NA,NA
27053,task,flow.Sequence,5_0_1_0_6,NA,NA,completion,9526.54,3224108,3224099.6,3224116.18,3233642.72,3233649,2023-03-27T09:29:47Z,3233659.44,NULL,Vermutung,udhanifu,s,haramia,tikisho,itifaki,NA,sdfdsf,NA,1,NA,NA,NA,NA,NA,NA,NA,NA,NA,NA,NA,NA,NA,NA,NA,NA,NA,NA,NA
27053,deep,flow.Sequence,5_0_1_0_7_0,NA,NA,skipped,NA,3233649,NA,NA,3233642.72,3233649,2023-03-27T09:29:47Z,3233659.44,NULL,Beweis,ushahidi,s,marudio,kizuizi,mtendaji,NA,sdfdsf,NA,1,NA,NA,NA,NA,NA,NA,NA,NA,NA,NA,NA,NA,NA,NA,NA,NA,NA,NA,NA
27053,Shallow Question,html.Page,5_0_1_0_7_1_0,NA,NA,form submission,6487.5600000001,3233650,3233642.72,3233659.44,3240147,3240147,2023-03-27T09:29:53Z,3240159.12,NULL,Beweis,ushahidi,s,marudio,kizuizi,mtendaji,ushahidi,NA,NA,1,NA,NA,NA,NA,NA,NA,NA,NA,NA,NA,NA,NA,NA,NA,NA,NA,NA,NA,NA
27053,"""Richtig""-Screen",canvas.Screen,5_0_1_0_7_1_1,NA,NA,timeout,4997,3240151,3240143.04,3240159.12,3245140.1,3245141,2023-03-27T09:29:58Z,3245156.12,NULL,Beweis,ushahidi,s,marudio,kizuizi,mtendaji,NA,sdfdsf,1,1,NA,NA,NA,NA,NA,NA,NA,NA,NA,NA,NA,NA,NA,NA,NA,NA,NA,NA,NA
27053,"""Falsch""-Screen",canvas.Screen,5_0_1_0_7_1_2,NA,NA,skipped,NA,3245147,NA,NA,3245140.1,3245148,2023-03-27T09:29:58Z,3245156.12,NULL,Beweis,ushahidi,s,marudio,kizuizi,mtendaji,NA,sdfdsf,NA,1,NA,NA,NA,NA,NA,NA,NA,NA,NA,NA,NA,NA,NA,NA,NA,NA,NA,NA,NA
27053,shallow,flow.Sequence,5_0_1_0_7_1,NA,NA,completion,11480.66,3233650,3233642.72,3233659.44,3245140.1,3245148,2023-03-27T09:29:58Z,3245156.12,NULL,Beweis,ushahidi,s,marudio,kizuizi,mtendaji,NA,sdfdsf,NA,1,NA,NA,NA,NA,NA,NA,NA,NA,NA,NA,NA,NA,NA,NA,NA,NA,NA,NA,NA
27053,task,flow.Sequence,5_0_1_0_7,NA,NA,completion,11480.66,3233649,3233642.72,3233659.44,3245140.1,3245148,2023-03-27T09:29:58Z,3245156.12,NULL,Beweis,ushahidi,s,marudio,kizuizi,mtendaji,NA,sdfdsf,NA,1,NA,NA,NA,NA,NA,NA,NA,NA,NA,NA,NA,NA,NA,NA,NA,NA,NA,NA,NA
27053,block,flow.Loop,5_0_1_0,NA,NA,completion,99507.32,3145633,3145632.42,3145632.78,3245140.1,3245149,2023-03-27T09:29:58Z,3245156.12,NULL,NA,NA,NA,NA,NA,NA,NA,sdfdsf,NA,1,NA,NA,NA,NA,NA,NA,NA,NA,NA,NA,NA,NA,NA,NA,NA,NA,NA,NA,NA
27053,weiter,canvas.Screen,5_0_1_1,sdf,keypress(Space),response,940.87999999989,3245149,3245140.1,3245156.12,3246097,3246100,2023-03-27T09:29:59Z,3246162.08,NULL,NA,NA,NA,NA,NA,NA,NA,sdfdsf,NA,1,NA,NA,NA,NA,NA,NA,NA,NA,NA,NA,NA,NA,NA,NA,NA,NA,NA,NA,NA
27053,check continue,flow.Sequence,5_0_1,NA,NA,completion,100464.22,3145633,3145632.42,3145632.78,3246097,3246100,2023-03-27T09:29:59Z,3246162.08,NULL,NA,NA,NA,NA,NA,NA,NA,sdfdsf,NA,1,NA,NA,NA,NA,NA,NA,NA,NA,NA,NA,NA,NA,NA,NA,NA,NA,NA,NA,NA
27053,Deep Question,html.Page,5_0_2_0_0_0_0,NA,NA,form submission,2897.9199999999,3246162,3246161.76,3246162.08,3249060,3249060,2023-03-27T09:30:02Z,3249059.42,NULL,Schlange,foleni,d,NA,NA,NA,foleni,NA,NA,2,NA,NA,NA,NA,NA,NA,NA,NA,NA,NA,NA,NA,NA,NA,NA,NA,NA,NA,NA
27053,"""Richtig""-Screen",canvas.Screen,5_0_2_0_0_0_1,NA,NA,timeout,5004.4199999999,3249065,3249058.86,3249059.42,3254047.22,3254048,2023-03-27T09:30:07Z,3254063.84,NULL,Schlange,foleni,d,NA,NA,NA,NA,sdf,1,2,NA,NA,NA,NA,NA,NA,NA,NA,NA,NA,NA,NA,NA,NA,NA,NA,NA,NA,NA
27053,"""Falsch""-Screen",canvas.Screen,5_0_2_0_0_0_2,NA,NA,skipped,NA,3254052,NA,NA,3254047.22,3254052,2023-03-27T09:30:07Z,3254063.84,NULL,Schlange,foleni,d,NA,NA,NA,NA,sdf,NA,2,NA,NA,NA,NA,NA,NA,NA,NA,NA,NA,NA,NA,NA,NA,NA,NA,NA,NA,NA
27053,deep,flow.Sequence,5_0_2_0_0_0,NA,NA,completion,7885.1400000001,3246162,3246161.76,3246162.08,3254047.22,3254053,2023-03-27T09:30:07Z,3254063.84,NULL,Schlange,foleni,d,NA,NA,NA,NA,sdf,NA,2,NA,NA,NA,NA,NA,NA,NA,NA,NA,NA,NA,NA,NA,NA,NA,NA,NA,NA,NA
27053,shallow,flow.Sequence,5_0_2_0_0_1,NA,NA,skipped,NA,3254053,NA,NA,3254047.22,3254053,2023-03-27T09:30:07Z,3254063.84,NULL,Schlange,foleni,d,NA,NA,NA,NA,sdf,NA,2,NA,NA,NA,NA,NA,NA,NA,NA,NA,NA,NA,NA,NA,NA,NA,NA,NA,NA,NA
27053,task,flow.Sequence,5_0_2_0_0,NA,NA,completion,7885.1400000001,3246162,3246161.76,3246162.08,3254047.22,3254053,2023-03-27T09:30:07Z,3254063.84,NULL,Schlange,foleni,d,NA,NA,NA,NA,sdf,NA,2,NA,NA,NA,NA,NA,NA,NA,NA,NA,NA,NA,NA,NA,NA,NA,NA,NA,NA,NA
27053,Deep Question,html.Page,5_0_2_0_1_0_0,NA,NA,form submission,20602.16,3254054,3254047.22,3254063.84,3274666,3274667,2023-03-27T09:30:28Z,3274663.1,NULL,Toleranz,kuvumiliana,d,NA,NA,NA,mapendano,NA,NA,2,NA,NA,NA,NA,NA,NA,NA,NA,NA,NA,NA,NA,NA,NA,NA,NA,NA,NA,NA
27053,"""Richtig""-Screen",canvas.Screen,5_0_2_0_1_0_1,NA,NA,skipped,NA,3274673,NA,NA,3274666,3274673,2023-03-27T09:30:28Z,3274663.1,NULL,Toleranz,kuvumiliana,d,NA,NA,NA,NA,sdf,NA,2,NA,NA,NA,NA,NA,NA,NA,NA,NA,NA,NA,NA,NA,NA,NA,NA,NA,NA,NA
27053,"""Falsch""-Screen",canvas.Screen,5_0_2_0_1_0_2,NA,NA,timeout,5001.8799999999,3274676,3274662.6,3274663.1,3279648.92,3279650,2023-03-27T09:30:33Z,3279664.98,NULL,Toleranz,kuvumiliana,d,NA,NA,NA,NA,sdf,0,2,NA,NA,NA,NA,NA,NA,NA,NA,NA,NA,NA,NA,NA,NA,NA,NA,NA,NA,NA
27053,deep,flow.Sequence,5_0_2_0_1_0,NA,NA,completion,25585.08,3254054,3254047.22,3254063.84,3279648.92,3279651,2023-03-27T09:30:33Z,3279664.98,NULL,Toleranz,kuvumiliana,d,NA,NA,NA,NA,sdf,NA,2,NA,NA,NA,NA,NA,NA,NA,NA,NA,NA,NA,NA,NA,NA,NA,NA,NA,NA,NA
27053,shallow,flow.Sequence,5_0_2_0_1_1,NA,NA,skipped,NA,3279651,NA,NA,3279648.92,3279652,2023-03-27T09:30:33Z,3279664.98,NULL,Toleranz,kuvumiliana,d,NA,NA,NA,NA,sdf,NA,2,NA,NA,NA,NA,NA,NA,NA,NA,NA,NA,NA,NA,NA,NA,NA,NA,NA,NA,NA
27053,task,flow.Sequence,5_0_2_0_1,NA,NA,completion,25585.08,3254053,3254047.22,3254063.84,3279648.92,3279653,2023-03-27T09:30:33Z,3279664.98,NULL,Toleranz,kuvumiliana,d,NA,NA,NA,NA,sdf,NA,2,NA,NA,NA,NA,NA,NA,NA,NA,NA,NA,NA,NA,NA,NA,NA,NA,NA,NA,NA
27053,deep,flow.Sequence,5_0_2_0_2_0,NA,NA,skipped,NA,3279653,NA,NA,3279648.92,3279654,2023-03-27T09:30:33Z,3279664.98,NULL,Inhalt,yaliyomo,s,kishawishi,hifadhi,kutembea,NA,sdf,NA,2,NA,NA,NA,NA,NA,NA,NA,NA,NA,NA,NA,NA,NA,NA,NA,NA,NA,NA,NA
27053,Shallow Question,html.Page,5_0_2_0_2_1_0,NA,NA,form submission,3546.02,3279654,3279648.92,3279664.98,3283211,3283212,2023-03-27T09:30:36Z,3283240.78,NULL,Inhalt,yaliyomo,s,kishawishi,hifadhi,kutembea,yaliyomo,NA,NA,2,NA,NA,NA,NA,NA,NA,NA,NA,NA,NA,NA,NA,NA,NA,NA,NA,NA,NA,NA
27053,"""Richtig""-Screen",canvas.Screen,5_0_2_0_2_1_1,NA,NA,timeout,4997.6600000001,3283214,3283225.12,3283240.78,3288221.64,3288222,2023-03-27T09:30:41Z,3288238.44,NULL,Inhalt,yaliyomo,s,kishawishi,hifadhi,kutembea,NA,sdf,1,2,NA,NA,NA,NA,NA,NA,NA,NA,NA,NA,NA,NA,NA,NA,NA,NA,NA,NA,NA
27053,"""Falsch""-Screen",canvas.Screen,5_0_2_0_2_1_2,NA,NA,skipped,NA,3288228,NA,NA,3288221.64,3288228,2023-03-27T09:30:41Z,3288238.44,NULL,Inhalt,yaliyomo,s,kishawishi,hifadhi,kutembea,NA,sdf,NA,2,NA,NA,NA,NA,NA,NA,NA,NA,NA,NA,NA,NA,NA,NA,NA,NA,NA,NA,NA
27053,shallow,flow.Sequence,5_0_2_0_2_1,NA,NA,completion,8556.6600000001,3279654,3279648.92,3279664.98,3288221.64,3288228,2023-03-27T09:30:41Z,3288238.44,NULL,Inhalt,yaliyomo,s,kishawishi,hifadhi,kutembea,NA,sdf,NA,2,NA,NA,NA,NA,NA,NA,NA,NA,NA,NA,NA,NA,NA,NA,NA,NA,NA,NA,NA
27053,task,flow.Sequence,5_0_2_0_2,NA,NA,completion,8556.6600000001,3279653,3279648.92,3279664.98,3288221.64,3288229,2023-03-27T09:30:41Z,3288238.44,NULL,Inhalt,yaliyomo,s,kishawishi,hifadhi,kutembea,NA,sdf,NA,2,NA,NA,NA,NA,NA,NA,NA,NA,NA,NA,NA,NA,NA,NA,NA,NA,NA,NA,NA
27053,Deep Question,html.Page,5_0_2_0_3_0_0,NA,NA,form submission,8065.5600000001,3288230,3288221.64,3288238.44,3296304,3296304,2023-03-27T09:30:49Z,3296302.26,NULL,Sympathie,mapendano,d,NA,NA,NA,mapendano,NA,NA,2,NA,NA,NA,NA,NA,NA,NA,NA,NA,NA,NA,NA,NA,NA,NA,NA,NA,NA,NA
27053,"""Richtig""-Screen",canvas.Screen,5_0_2_0_3_0_1,NA,NA,timeout,5003.4600000004,3296307,3296301.66,3296302.26,3301290.04,3301291,2023-03-27T09:30:54Z,3301305.72,NULL,Sympathie,mapendano,d,NA,NA,NA,NA,sdf,1,2,NA,NA,NA,NA,NA,NA,NA,NA,NA,NA,NA,NA,NA,NA,NA,NA,NA,NA,NA
27053,"""Falsch""-Screen",canvas.Screen,5_0_2_0_3_0_2,NA,NA,skipped,NA,3301297,NA,NA,3301290.04,3301297,2023-03-27T09:30:54Z,3301305.72,NULL,Sympathie,mapendano,d,NA,NA,NA,NA,sdf,NA,2,NA,NA,NA,NA,NA,NA,NA,NA,NA,NA,NA,NA,NA,NA,NA,NA,NA,NA,NA
27053,deep,flow.Sequence,5_0_2_0_3_0,NA,NA,completion,13051.6,3288229,3288221.64,3288238.44,3301290.04,3301297,2023-03-27T09:30:54Z,3301305.72,NULL,Sympathie,mapendano,d,NA,NA,NA,NA,sdf,NA,2,NA,NA,NA,NA,NA,NA,NA,NA,NA,NA,NA,NA,NA,NA,NA,NA,NA,NA,NA
27053,shallow,flow.Sequence,5_0_2_0_3_1,NA,NA,skipped,NA,3301298,NA,NA,3301290.04,3301298,2023-03-27T09:30:54Z,3301305.72,NULL,Sympathie,mapendano,d,NA,NA,NA,NA,sdf,NA,2,NA,NA,NA,NA,NA,NA,NA,NA,NA,NA,NA,NA,NA,NA,NA,NA,NA,NA,NA
27053,task,flow.Sequence,5_0_2_0_3,NA,NA,completion,13051.6,3288229,3288221.64,3288238.44,3301290.04,3301298,2023-03-27T09:30:54Z,3301305.72,NULL,Sympathie,mapendano,d,NA,NA,NA,NA,sdf,NA,2,NA,NA,NA,NA,NA,NA,NA,NA,NA,NA,NA,NA,NA,NA,NA,NA,NA,NA,NA
27053,deep,flow.Sequence,5_0_2_0_4_0,NA,NA,skipped,NA,3301298,NA,NA,3301290.04,3301299,2023-03-27T09:30:54Z,3301305.72,NULL,Polizist,msongora,s,simanzi,mandhari,nidhamu,NA,sdf,NA,2,NA,NA,NA,NA,NA,NA,NA,NA,NA,NA,NA,NA,NA,NA,NA,NA,NA,NA,NA
27053,Shallow Question,html.Page,5_0_2_0_4_1_0,NA,NA,form submission,5752.2799999998,3301299,3301290.04,3301305.72,3307058,3307058,2023-03-27T09:31:00Z,3307087.8,NULL,Polizist,msongora,s,simanzi,mandhari,nidhamu,msongora,NA,NA,2,NA,NA,NA,NA,NA,NA,NA,NA,NA,NA,NA,NA,NA,NA,NA,NA,NA,NA,NA
27053,"""Richtig""-Screen",canvas.Screen,5_0_2_0_4_1_1,NA,NA,timeout,4997.3000000003,3307061,3307072.14,3307087.8,3312068.54,3312069,2023-03-27T09:31:05Z,3312085.1,NULL,Polizist,msongora,s,simanzi,mandhari,nidhamu,NA,sdf,1,2,NA,NA,NA,NA,NA,NA,NA,NA,NA,NA,NA,NA,NA,NA,NA,NA,NA,NA,NA
27053,"""Falsch""-Screen",canvas.Screen,5_0_2_0_4_1_2,NA,NA,skipped,NA,3312073,NA,NA,3312068.54,3312073,2023-03-27T09:31:05Z,3312085.1,NULL,Polizist,msongora,s,simanzi,mandhari,nidhamu,NA,sdf,NA,2,NA,NA,NA,NA,NA,NA,NA,NA,NA,NA,NA,NA,NA,NA,NA,NA,NA,NA,NA
27053,shallow,flow.Sequence,5_0_2_0_4_1,NA,NA,completion,10762.82,3301299,3301290.04,3301305.72,3312068.54,3312074,2023-03-27T09:31:05Z,3312085.1,NULL,Polizist,msongora,s,simanzi,mandhari,nidhamu,NA,sdf,NA,2,NA,NA,NA,NA,NA,NA,NA,NA,NA,NA,NA,NA,NA,NA,NA,NA,NA,NA,NA
27053,task,flow.Sequence,5_0_2_0_4,NA,NA,completion,10762.82,3301298,3301290.04,3301305.72,3312068.54,3312074,2023-03-27T09:31:05Z,3312085.1,NULL,Polizist,msongora,s,simanzi,mandhari,nidhamu,NA,sdf,NA,2,NA,NA,NA,NA,NA,NA,NA,NA,NA,NA,NA,NA,NA,NA,NA,NA,NA,NA,NA
27053,deep,flow.Sequence,5_0_2_0_5_0,NA,NA,skipped,NA,3312074,NA,NA,3312068.54,3312074,2023-03-27T09:31:05Z,3312085.1,NULL,Beweis,ushahidi,s,marudio,kizuizi,mtendaji,NA,sdf,NA,2,NA,NA,NA,NA,NA,NA,NA,NA,NA,NA,NA,NA,NA,NA,NA,NA,NA,NA,NA
27053,Shallow Question,html.Page,5_0_2_0_5_1_0,NA,NA,form submission,3777.8999999999,3312076,3312068.54,3312085.1,3315863,3315863,2023-03-27T09:31:09Z,3315895.72,NULL,Beweis,ushahidi,s,marudio,kizuizi,mtendaji,ushahidi,NA,NA,2,NA,NA,NA,NA,NA,NA,NA,NA,NA,NA,NA,NA,NA,NA,NA,NA,NA,NA,NA
27053,"""Richtig""-Screen",canvas.Screen,5_0_2_0_5_1_1,NA,NA,timeout,4996.2999999998,3315865,3315879,3315895.72,3320875.68,3320876,2023-03-27T09:31:14Z,3320892.02,NULL,Beweis,ushahidi,s,marudio,kizuizi,mtendaji,NA,sdf,1,2,NA,NA,NA,NA,NA,NA,NA,NA,NA,NA,NA,NA,NA,NA,NA,NA,NA,NA,NA
27053,"""Falsch""-Screen",canvas.Screen,5_0_2_0_5_1_2,NA,NA,skipped,NA,3320880,NA,NA,3320875.68,3320880,2023-03-27T09:31:14Z,3320892.02,NULL,Beweis,ushahidi,s,marudio,kizuizi,mtendaji,NA,sdf,NA,2,NA,NA,NA,NA,NA,NA,NA,NA,NA,NA,NA,NA,NA,NA,NA,NA,NA,NA,NA
27053,shallow,flow.Sequence,5_0_2_0_5_1,NA,NA,completion,8790.5800000001,3312075,3312068.54,3312085.1,3320875.68,3320881,2023-03-27T09:31:14Z,3320892.02,NULL,Beweis,ushahidi,s,marudio,kizuizi,mtendaji,NA,sdf,NA,2,NA,NA,NA,NA,NA,NA,NA,NA,NA,NA,NA,NA,NA,NA,NA,NA,NA,NA,NA
27053,task,flow.Sequence,5_0_2_0_5,NA,NA,completion,8790.5800000001,3312074,3312068.54,3312085.1,3320875.68,3320882,2023-03-27T09:31:14Z,3320892.02,NULL,Beweis,ushahidi,s,marudio,kizuizi,mtendaji,NA,sdf,NA,2,NA,NA,NA,NA,NA,NA,NA,NA,NA,NA,NA,NA,NA,NA,NA,NA,NA,NA,NA
27053,deep,flow.Sequence,5_0_2_0_6_0,NA,NA,skipped,NA,3320882,NA,NA,3320875.68,3320882,2023-03-27T09:31:14Z,3320892.02,NULL,Vermutung,udhanifu,s,haramia,tikisho,itifaki,NA,sdf,NA,2,NA,NA,NA,NA,NA,NA,NA,NA,NA,NA,NA,NA,NA,NA,NA,NA,NA,NA,NA
27053,Shallow Question,html.Page,5_0_2_0_6_1_0,NA,NA,form submission,6891.98,3320882,3320875.68,3320892.02,3327784,3327785,2023-03-27T09:31:21Z,3327777.9,NULL,Vermutung,udhanifu,s,haramia,tikisho,itifaki,udhanifu,NA,NA,2,NA,NA,NA,NA,NA,NA,NA,NA,NA,NA,NA,NA,NA,NA,NA,NA,NA,NA,NA
27053,"""Richtig""-Screen",canvas.Screen,5_0_2_0_6_1_1,NA,NA,timeout,4995.5800000001,3327787,3327777.68,3327777.9,3332757.3,3332758,2023-03-27T09:31:26Z,3332773.48,NULL,Vermutung,udhanifu,s,haramia,tikisho,itifaki,NA,sdf,1,2,NA,NA,NA,NA,NA,NA,NA,NA,NA,NA,NA,NA,NA,NA,NA,NA,NA,NA,NA
27053,"""Falsch""-Screen",canvas.Screen,5_0_2_0_6_1_2,NA,NA,skipped,NA,3332762,NA,NA,3332757.3,3332762,2023-03-27T09:31:26Z,3332773.48,NULL,Vermutung,udhanifu,s,haramia,tikisho,itifaki,NA,sdf,NA,2,NA,NA,NA,NA,NA,NA,NA,NA,NA,NA,NA,NA,NA,NA,NA,NA,NA,NA,NA
27053,shallow,flow.Sequence,5_0_2_0_6_1,NA,NA,completion,11865.28,3320882,3320875.68,3320892.02,3332757.3,3332763,2023-03-27T09:31:26Z,3332773.48,NULL,Vermutung,udhanifu,s,haramia,tikisho,itifaki,NA,sdf,NA,2,NA,NA,NA,NA,NA,NA,NA,NA,NA,NA,NA,NA,NA,NA,NA,NA,NA,NA,NA
27053,task,flow.Sequence,5_0_2_0_6,NA,NA,completion,11865.28,3320882,3320875.68,3320892.02,3332757.3,3332764,2023-03-27T09:31:26Z,3332773.48,NULL,Vermutung,udhanifu,s,haramia,tikisho,itifaki,NA,sdf,NA,2,NA,NA,NA,NA,NA,NA,NA,NA,NA,NA,NA,NA,NA,NA,NA,NA,NA,NA,NA
27053,Deep Question,html.Page,5_0_2_0_7_0_0,NA,NA,form submission,12085.52,3332764,3332757.3,3332773.48,3344859,3344859,2023-03-27T09:31:38Z,3344858.14,NULL,Annäherung,maegesho,d,NA,NA,NA,mil,NA,NA,2,NA,NA,NA,NA,NA,NA,NA,NA,NA,NA,NA,NA,NA,NA,NA,NA,NA,NA,NA
27053,"""Richtig""-Screen",canvas.Screen,5_0_2_0_7_0_1,NA,NA,skipped,NA,3344863,NA,NA,3344859,3344863,2023-03-27T09:31:38Z,3344858.14,NULL,Annäherung,maegesho,d,NA,NA,NA,NA,sdf,NA,2,NA,NA,NA,NA,NA,NA,NA,NA,NA,NA,NA,NA,NA,NA,NA,NA,NA,NA,NA
27053,"""Falsch""-Screen",canvas.Screen,5_0_2_0_7_0_2,NA,NA,timeout,4994.9199999999,3344865,3344857.66,3344858.14,3349835.6,3349836,2023-03-27T09:31:43Z,3349853.06,NULL,Annäherung,maegesho,d,NA,NA,NA,NA,sdf,0,2,NA,NA,NA,NA,NA,NA,NA,NA,NA,NA,NA,NA,NA,NA,NA,NA,NA,NA,NA
27053,deep,flow.Sequence,5_0_2_0_7_0,NA,NA,completion,17062.12,3332764,3332757.3,3332773.48,3349835.6,3349836,2023-03-27T09:31:43Z,3349853.06,NULL,Annäherung,maegesho,d,NA,NA,NA,NA,sdf,NA,2,NA,NA,NA,NA,NA,NA,NA,NA,NA,NA,NA,NA,NA,NA,NA,NA,NA,NA,NA
27053,shallow,flow.Sequence,5_0_2_0_7_1,NA,NA,skipped,NA,3349837,NA,NA,3349835.6,3349837,2023-03-27T09:31:43Z,3349853.06,NULL,Annäherung,maegesho,d,NA,NA,NA,NA,sdf,NA,2,NA,NA,NA,NA,NA,NA,NA,NA,NA,NA,NA,NA,NA,NA,NA,NA,NA,NA,NA
27053,task,flow.Sequence,5_0_2_0_7,NA,NA,completion,17062.12,3332764,3332757.3,3332773.48,3349835.6,3349837,2023-03-27T09:31:43Z,3349853.06,NULL,Annäherung,maegesho,d,NA,NA,NA,NA,sdf,NA,2,NA,NA,NA,NA,NA,NA,NA,NA,NA,NA,NA,NA,NA,NA,NA,NA,NA,NA,NA
27053,block,flow.Loop,5_0_2_0,NA,NA,completion,103673.52,3246162,3246161.76,3246162.08,3349835.6,3349838,2023-03-27T09:31:43Z,3349853.06,NULL,NA,NA,NA,NA,NA,NA,NA,sdf,NA,2,NA,NA,NA,NA,NA,NA,NA,NA,NA,NA,NA,NA,NA,NA,NA,NA,NA,NA,NA
27053,weiter,canvas.Screen,5_0_2_1,sdf,keypress(Space),response,837.93999999994,3349838,3349835.6,3349853.06,3350691,3350697,2023-03-27T09:31:44Z,3351703.42,NULL,NA,NA,NA,NA,NA,NA,NA,sdf,NA,2,NA,NA,NA,NA,NA,NA,NA,NA,NA,NA,NA,NA,NA,NA,NA,NA,NA,NA,NA
27053,check continue,flow.Sequence,5_0_2,NA,NA,completion,104528.92,3246162,3246161.76,3246162.08,3350691,3350698,2023-03-27T09:31:44Z,3351703.42,NULL,NA,NA,NA,NA,NA,NA,NA,sdf,NA,2,NA,NA,NA,NA,NA,NA,NA,NA,NA,NA,NA,NA,NA,NA,NA,NA,NA,NA,NA
27053,check continue,flow.Sequence,5_0_3,NA,NA,skipped,NA,3350758,NA,NA,3350691,3350758,2023-03-27T09:31:44Z,3351703.42,NULL,NA,NA,NA,NA,NA,NA,NA,qt,NA,3,NA,NA,NA,NA,NA,NA,NA,NA,NA,NA,NA,NA,NA,NA,NA,NA,NA,NA,NA
27053,check continue,flow.Sequence,5_0_4,NA,NA,skipped,NA,3350805,NA,NA,3350691,3350805,2023-03-27T09:31:44Z,3351703.42,NULL,NA,NA,NA,NA,NA,NA,NA,sd,NA,4,NA,NA,NA,NA,NA,NA,NA,NA,NA,NA,NA,NA,NA,NA,NA,NA,NA,NA,NA
27053,check continue,flow.Sequence,5_0_5,NA,NA,skipped,NA,3350846,NA,NA,3350691,3350846,2023-03-27T09:31:44Z,3351703.42,NULL,NA,NA,NA,NA,NA,NA,NA,sdf,NA,5,NA,NA,NA,NA,NA,NA,NA,NA,NA,NA,NA,NA,NA,NA,NA,NA,NA,NA,NA
27053,check continue,flow.Sequence,5_0_6,NA,NA,skipped,NA,3350888,NA,NA,3350691,3350888,2023-03-27T09:31:44Z,3351703.42,NULL,NA,NA,NA,NA,NA,NA,NA,dfs,NA,6,NA,NA,NA,NA,NA,NA,NA,NA,NA,NA,NA,NA,NA,NA,NA,NA,NA,NA,NA
27053,check continue,flow.Sequence,5_0_7,NA,NA,skipped,NA,3350926,NA,NA,3350691,3350926,2023-03-27T09:31:44Z,3351703.42,NULL,NA,NA,NA,NA,NA,NA,NA,df,NA,7,NA,NA,NA,NA,NA,NA,NA,NA,NA,NA,NA,NA,NA,NA,NA,NA,NA,NA,NA
27053,check continue,flow.Sequence,5_0_8,NA,NA,skipped,NA,3350963,NA,NA,3350691,3350963,2023-03-27T09:31:44Z,3351703.42,NULL,NA,NA,NA,NA,NA,NA,NA,dfs,NA,8,NA,NA,NA,NA,NA,NA,NA,NA,NA,NA,NA,NA,NA,NA,NA,NA,NA,NA,NA
27053,check continue,flow.Sequence,5_0_9,NA,NA,skipped,NA,3350998,NA,NA,3350691,3350998,2023-03-27T09:31:44Z,3351703.42,NULL,NA,NA,NA,NA,NA,NA,NA,dsf,NA,9,NA,NA,NA,NA,NA,NA,NA,NA,NA,NA,NA,NA,NA,NA,NA,NA,NA,NA,NA
27053,check continue,flow.Sequence,5_0_10,NA,NA,skipped,NA,3351039,NA,NA,3350691,3351039,2023-03-27T09:31:44Z,3351703.42,NULL,NA,NA,NA,NA,NA,NA,NA,df,NA,10,NA,NA,NA,NA,NA,NA,NA,NA,NA,NA,NA,NA,NA,NA,NA,NA,NA,NA,NA
27053,check continue,flow.Sequence,5_0_11,NA,NA,skipped,NA,3351076,NA,NA,3350691,3351077,2023-03-27T09:31:44Z,3351703.42,NULL,NA,NA,NA,NA,NA,NA,NA,dfs,NA,11,NA,NA,NA,NA,NA,NA,NA,NA,NA,NA,NA,NA,NA,NA,NA,NA,NA,NA,NA
27053,check continue,flow.Sequence,5_0_12,NA,NA,skipped,NA,3351111,NA,NA,3350691,3351111,2023-03-27T09:31:44Z,3351703.42,NULL,NA,NA,NA,NA,NA,NA,NA,dsf,NA,12,NA,NA,NA,NA,NA,NA,NA,NA,NA,NA,NA,NA,NA,NA,NA,NA,NA,NA,NA
27053,check continue,flow.Sequence,5_0_13,NA,NA,skipped,NA,3351149,NA,NA,3350691,3351149,2023-03-27T09:31:44Z,3351703.42,NULL,NA,NA,NA,NA,NA,NA,NA,dsf,NA,13,NA,NA,NA,NA,NA,NA,NA,NA,NA,NA,NA,NA,NA,NA,NA,NA,NA,NA,NA
