observation,sender,sender_type,sender_id,response,response_action,ended_on,duration,time_run,time_render,time_show,time_end,time_commit,timestamp,time_switch,distractors,german,swahili,enc,distractor1,distractor2,distractor3,response_2,x,correct,x_2,url_vp,url_sess,meta_labjs_version,meta_location,meta_user_agent,meta_platform,meta_language,meta_locale,meta_time_zone,meta_timezone_offset,meta_screen_width,meta_screen_height,meta_scroll_width,meta_scroll_height,meta_window_inner_width,meta_window_inner_height,meta_device_pixel_ratio,meta_labjs_build_flavor,meta_labjs_build_commit
46b36,Introduction general,canvas.Screen,0,weiter,keypress(q),response,1513168.8240001,1491.9000000954,725.212,1524.576,1514693.4000001,1514702.1,2023-04-16T16:26:53Z,1514709.956,NULL,NA,NA,NA,NA,NA,NA,NA,NA,NA,NA,205,3,20.2.4,https://neurocog.fernuni.ch/studies/vweber/sfink/encoding_immediate/index.html?vp=205&sess=3,"Mozilla/5.0 (Windows NT 10.0; Win64; x64) AppleWebKit/537.36 (KHTML, like Gecko) Chrome/111.0.0.0 Safari/537.36",Win32,de-CH,de,Europe/Zurich,-120,1536,864,1536,706,1536,754,1.25,production,f5b4a49f956347addd546a832a3327688c2c0fef
46b36,Introduction practice,canvas.Screen,1_0,NA,keypress(Space),response,2187.2440000477,1514702.7,1514683.296,1514709.956,1516897.2,1516898,2023-04-16T16:26:55Z,1516901.373,NULL,NA,NA,NA,NA,NA,NA,NA,NA,NA,NA,NA,NA,NA,NA,NA,NA,NA,NA,NA,NA,NA,NA,NA,NA,NA,NA,NA,NA,NA
46b36,Deep Question,html.Page,1_1_0_0_0,NA,NA,form submission,9406.0270000955,1516898.5,1516887.876,1516901.373,1526307.4000001,1526307.7,2023-04-16T16:27:04Z,1526315.195,"c(""distractor1"", ""distractor2"", ""distractor3"")",Qualität,mtindo,d,NA,NA,NA,aaa,NA,NA,NA,NA,NA,NA,NA,NA,NA,NA,NA,NA,NA,NA,NA,NA,NA,NA,NA,NA,NA,NA
46b36,"""Richtig""-Screen",canvas.Screen,1_1_0_0_1,NA,NA,skipped,NA,1526309.3000001,NA,NA,1526307.4000001,1526309.5,2023-04-16T16:27:04Z,1526315.195,"c(""distractor1"", ""distractor2"", ""distractor3"")",Qualität,mtindo,d,NA,NA,NA,NA,NA,NA,NA,NA,NA,NA,NA,NA,NA,NA,NA,NA,NA,NA,NA,NA,NA,NA,NA,NA,NA,NA
46b36,"""Falsch""-Screen",canvas.Screen,1_1_0_0_2,NA,NA,timeout,4999.0089999998,1526310.9000001,1526290.587,1526315.195,1531297.855,1531302.8000001,2023-04-16T16:27:09Z,1531314.204,"c(""distractor1"", ""distractor2"", ""distractor3"")",Qualität,mtindo,d,NA,NA,NA,NA,NA,0,NA,NA,NA,NA,NA,NA,NA,NA,NA,NA,NA,NA,NA,NA,NA,NA,NA,NA,NA,NA
46b36,deep,flow.Sequence,1_1_0_0,NA,NA,completion,14396.482,1516898.4000001,1516887.876,1516901.373,1531297.855,1531303.4000001,2023-04-16T16:27:09Z,1531314.204,"c(""distractor1"", ""distractor2"", ""distractor3"")",Qualität,mtindo,d,NA,NA,NA,NA,NA,NA,NA,NA,NA,NA,NA,NA,NA,NA,NA,NA,NA,NA,NA,NA,NA,NA,NA,NA,NA,NA
46b36,shallow,flow.Sequence,1_1_0_1,NA,NA,skipped,NA,1531303.5,NA,NA,1531297.855,1531303.7,2023-04-16T16:27:09Z,1531314.204,"c(""distractor1"", ""distractor2"", ""distractor3"")",Qualität,mtindo,d,NA,NA,NA,NA,NA,NA,NA,NA,NA,NA,NA,NA,NA,NA,NA,NA,NA,NA,NA,NA,NA,NA,NA,NA,NA,NA
46b36,task,flow.Sequence,1_1_0,NA,NA,completion,14396.482,1516898.3000001,1516887.876,1516901.373,1531297.855,1531304.1,2023-04-16T16:27:09Z,1531314.204,"c(""distractor1"", ""distractor2"", ""distractor3"")",Qualität,mtindo,d,NA,NA,NA,NA,NA,NA,NA,NA,NA,NA,NA,NA,NA,NA,NA,NA,NA,NA,NA,NA,NA,NA,NA,NA,NA,NA
46b36,Deep Question,html.Page,1_1_1_0_0,NA,NA,form submission,4693.2960000001,1531304.5,1531297.855,1531314.204,1536007.5,1536007.7,2023-04-16T16:27:14Z,1536033.843,"c(""distractor1"", ""distractor2"", ""distractor3"")",Schatten,kivuli,d,NA,NA,NA,fuori,NA,NA,NA,NA,NA,NA,NA,NA,NA,NA,NA,NA,NA,NA,NA,NA,NA,NA,NA,NA,NA,NA
46b36,"""Richtig""-Screen",canvas.Screen,1_1_1_0_1,NA,NA,skipped,NA,1536010,NA,NA,1536007.5,1536010.2,2023-04-16T16:27:14Z,1536033.843,"c(""distractor1"", ""distractor2"", ""distractor3"")",Schatten,kivuli,d,NA,NA,NA,NA,NA,NA,NA,NA,NA,NA,NA,NA,NA,NA,NA,NA,NA,NA,NA,NA,NA,NA,NA,NA,NA,NA
46b36,"""Falsch""-Screen",canvas.Screen,1_1_1_0_2,NA,NA,timeout,4998.3219999999,1536011,1536016.63,1536033.843,1541015.978,1541030.9000001,2023-04-16T16:27:19Z,1541032.165,"c(""distractor1"", ""distractor2"", ""distractor3"")",Schatten,kivuli,d,NA,NA,NA,NA,NA,0,NA,NA,NA,NA,NA,NA,NA,NA,NA,NA,NA,NA,NA,NA,NA,NA,NA,NA,NA,NA
46b36,deep,flow.Sequence,1_1_1_0,NA,NA,completion,9701.774,1531304.3000001,1531297.855,1531314.204,1541015.978,1541032.2,2023-04-16T16:27:19Z,1541032.165,"c(""distractor1"", ""distractor2"", ""distractor3"")",Schatten,kivuli,d,NA,NA,NA,NA,NA,NA,NA,NA,NA,NA,NA,NA,NA,NA,NA,NA,NA,NA,NA,NA,NA,NA,NA,NA,NA,NA
46b36,shallow,flow.Sequence,1_1_1_1,NA,NA,skipped,NA,1541032.7,NA,NA,1541015.978,1541033.1,2023-04-16T16:27:19Z,1541032.165,"c(""distractor1"", ""distractor2"", ""distractor3"")",Schatten,kivuli,d,NA,NA,NA,NA,NA,NA,NA,NA,NA,NA,NA,NA,NA,NA,NA,NA,NA,NA,NA,NA,NA,NA,NA,NA,NA,NA
46b36,task,flow.Sequence,1_1_1,NA,NA,completion,9701.774,1531304.2,1531297.855,1531314.204,1541015.978,1541033.5,2023-04-16T16:27:19Z,1541032.165,"c(""distractor1"", ""distractor2"", ""distractor3"")",Schatten,kivuli,d,NA,NA,NA,NA,NA,NA,NA,NA,NA,NA,NA,NA,NA,NA,NA,NA,NA,NA,NA,NA,NA,NA,NA,NA,NA,NA
46b36,deep,flow.Sequence,1_1_2_0,NA,NA,skipped,NA,1541033.9000001,NA,NA,1541015.978,1541034,2023-04-16T16:27:19Z,1541032.165,"c(""distractor1"", ""distractor2"", ""distractor3"")",Gegenwart,hadhara,s,katiba,jokofu,mikopo,NA,NA,NA,NA,NA,NA,NA,NA,NA,NA,NA,NA,NA,NA,NA,NA,NA,NA,NA,NA,NA,NA,NA
46b36,Shallow Question,html.Page,1_1_2_1_0,NA,NA,form submission,5836.335,1541034.3000001,1541015.978,1541032.165,1546868.5,1546868.8000001,2023-04-16T16:27:25Z,1546874.763,"c(""distractor1"", ""distractor2"", ""distractor3"")",Gegenwart,hadhara,s,katiba,jokofu,mikopo,hadhara,NA,NA,NA,NA,NA,NA,NA,NA,NA,NA,NA,NA,NA,NA,NA,NA,NA,NA,NA,NA,NA,NA
46b36,"""Richtig""-Screen",canvas.Screen,1_1_2_1_1,NA,NA,timeout,4991.452,1546870.8000001,1546858.512,1546874.763,1551850.182,1551851.4000001,2023-04-16T16:27:30Z,1551866.215,"c(""distractor1"", ""distractor2"", ""distractor3"")",Gegenwart,hadhara,s,katiba,jokofu,mikopo,NA,NA,1,NA,NA,NA,NA,NA,NA,NA,NA,NA,NA,NA,NA,NA,NA,NA,NA,NA,NA,NA,NA
46b36,"""Falsch""-Screen",canvas.Screen,1_1_2_1_2,NA,NA,skipped,NA,1551857,NA,NA,1551850.182,1551857.4000001,2023-04-16T16:27:30Z,1551866.215,"c(""distractor1"", ""distractor2"", ""distractor3"")",Gegenwart,hadhara,s,katiba,jokofu,mikopo,NA,NA,NA,NA,NA,NA,NA,NA,NA,NA,NA,NA,NA,NA,NA,NA,NA,NA,NA,NA,NA,NA,NA
46b36,shallow,flow.Sequence,1_1_2_1,NA,NA,completion,10818.017,1541034.2,1541015.978,1541032.165,1551850.182,1551857.9000001,2023-04-16T16:27:30Z,1551866.215,"c(""distractor1"", ""distractor2"", ""distractor3"")",Gegenwart,hadhara,s,katiba,jokofu,mikopo,NA,NA,NA,NA,NA,NA,NA,NA,NA,NA,NA,NA,NA,NA,NA,NA,NA,NA,NA,NA,NA,NA,NA
46b36,task,flow.Sequence,1_1_2,NA,NA,completion,10818.017,1541033.8000001,1541015.978,1541032.165,1551850.182,1551858.1,2023-04-16T16:27:30Z,1551866.215,"c(""distractor1"", ""distractor2"", ""distractor3"")",Gegenwart,hadhara,s,katiba,jokofu,mikopo,NA,NA,NA,NA,NA,NA,NA,NA,NA,NA,NA,NA,NA,NA,NA,NA,NA,NA,NA,NA,NA,NA,NA
46b36,deep,flow.Sequence,1_1_3_0,NA,NA,skipped,NA,1551858.4000001,NA,NA,1551850.182,1551858.5,2023-04-16T16:27:30Z,1551866.215,"c(""distractor1"", ""distractor2"", ""distractor3"")",Rückhalt,msaada,s,muhula,auwali,kiwimbe,NA,NA,NA,NA,NA,NA,NA,NA,NA,NA,NA,NA,NA,NA,NA,NA,NA,NA,NA,NA,NA,NA,NA
46b36,Shallow Question,html.Page,1_1_3_1_0,NA,NA,form submission,3637.7849999999,1551858.7,1551850.182,1551866.215,1555504,1555504.2,2023-04-16T16:27:34Z,1555523.021,"c(""distractor1"", ""distractor2"", ""distractor3"")",Rückhalt,msaada,s,muhula,auwali,kiwimbe,msaada,NA,NA,NA,NA,NA,NA,NA,NA,NA,NA,NA,NA,NA,NA,NA,NA,NA,NA,NA,NA,NA,NA
46b36,"""Richtig""-Screen",canvas.Screen,1_1_3_1_1,NA,NA,timeout,5007.9240000001,1555506,1555498.188,1555523.021,1560514.774,1560515.9000001,2023-04-16T16:27:39Z,1560530.945,"c(""distractor1"", ""distractor2"", ""distractor3"")",Rückhalt,msaada,s,muhula,auwali,kiwimbe,NA,NA,1,NA,NA,NA,NA,NA,NA,NA,NA,NA,NA,NA,NA,NA,NA,NA,NA,NA,NA,NA,NA
46b36,"""Falsch""-Screen",canvas.Screen,1_1_3_1_2,NA,NA,skipped,NA,1560521.9000001,NA,NA,1560514.774,1560522.2,2023-04-16T16:27:39Z,1560530.945,"c(""distractor1"", ""distractor2"", ""distractor3"")",Rückhalt,msaada,s,muhula,auwali,kiwimbe,NA,NA,NA,NA,NA,NA,NA,NA,NA,NA,NA,NA,NA,NA,NA,NA,NA,NA,NA,NA,NA,NA,NA
46b36,shallow,flow.Sequence,1_1_3_1,NA,NA,completion,8648.5589999999,1551858.6,1551850.182,1551866.215,1560514.774,1560522.7,2023-04-16T16:27:39Z,1560530.945,"c(""distractor1"", ""distractor2"", ""distractor3"")",Rückhalt,msaada,s,muhula,auwali,kiwimbe,NA,NA,NA,NA,NA,NA,NA,NA,NA,NA,NA,NA,NA,NA,NA,NA,NA,NA,NA,NA,NA,NA,NA
46b36,task,flow.Sequence,1_1_3,NA,NA,completion,8648.5589999999,1551858.4000001,1551850.182,1551866.215,1560514.774,1560523,2023-04-16T16:27:39Z,1560530.945,"c(""distractor1"", ""distractor2"", ""distractor3"")",Rückhalt,msaada,s,muhula,auwali,kiwimbe,NA,NA,NA,NA,NA,NA,NA,NA,NA,NA,NA,NA,NA,NA,NA,NA,NA,NA,NA,NA,NA,NA,NA
46b36,Deep Question,html.Page,1_1_4_0_0,NA,NA,form submission,4135.4550000953,1560523.3000001,1560514.774,1560530.945,1564666.4000001,1564666.5,2023-04-16T16:27:43Z,1564690.639,"c(""distractor1"", ""distractor2"", ""distractor3"")",Gesundheit,salama,d,NA,NA,NA,bbb,NA,NA,NA,NA,NA,NA,NA,NA,NA,NA,NA,NA,NA,NA,NA,NA,NA,NA,NA,NA,NA,NA
46b36,"""Richtig""-Screen",canvas.Screen,1_1_4_0_1,NA,NA,skipped,NA,1564668.5,NA,NA,1564666.4000001,1564668.6,2023-04-16T16:27:43Z,1564690.639,"c(""distractor1"", ""distractor2"", ""distractor3"")",Gesundheit,salama,d,NA,NA,NA,NA,NA,NA,NA,NA,NA,NA,NA,NA,NA,NA,NA,NA,NA,NA,NA,NA,NA,NA,NA,NA,NA,NA
46b36,"""Falsch""-Screen",canvas.Screen,1_1_4_0_2,NA,NA,timeout,5000.7040000001,1564669.2,1564650.646,1564690.639,1569675.245,1569676.4000001,2023-04-16T16:27:48Z,1569691.343,"c(""distractor1"", ""distractor2"", ""distractor3"")",Gesundheit,salama,d,NA,NA,NA,NA,NA,0,NA,NA,NA,NA,NA,NA,NA,NA,NA,NA,NA,NA,NA,NA,NA,NA,NA,NA,NA,NA
46b36,deep,flow.Sequence,1_1_4_0,NA,NA,completion,9144.3,1560523.2,1560514.774,1560530.945,1569675.245,1569676.9000001,2023-04-16T16:27:48Z,1569691.343,"c(""distractor1"", ""distractor2"", ""distractor3"")",Gesundheit,salama,d,NA,NA,NA,NA,NA,NA,NA,NA,NA,NA,NA,NA,NA,NA,NA,NA,NA,NA,NA,NA,NA,NA,NA,NA,NA,NA
46b36,shallow,flow.Sequence,1_1_4_1,NA,NA,skipped,NA,1569677.2,NA,NA,1569675.245,1569677.3000001,2023-04-16T16:27:48Z,1569691.343,"c(""distractor1"", ""distractor2"", ""distractor3"")",Gesundheit,salama,d,NA,NA,NA,NA,NA,NA,NA,NA,NA,NA,NA,NA,NA,NA,NA,NA,NA,NA,NA,NA,NA,NA,NA,NA,NA,NA
46b36,task,flow.Sequence,1_1_4,NA,NA,completion,9144.3,1560523.2,1560514.774,1560530.945,1569675.245,1569677.6,2023-04-16T16:27:48Z,1569691.343,"c(""distractor1"", ""distractor2"", ""distractor3"")",Gesundheit,salama,d,NA,NA,NA,NA,NA,NA,NA,NA,NA,NA,NA,NA,NA,NA,NA,NA,NA,NA,NA,NA,NA,NA,NA,NA,NA,NA
46b36,deep,flow.Sequence,1_1_5_0,NA,NA,skipped,NA,1569677.9000001,NA,NA,1569675.245,1569678,2023-04-16T16:27:48Z,1569691.343,"c(""distractor1"", ""distractor2"", ""distractor3"")",Kritik,lawama,s,dereva,nafasi,mawazo,NA,NA,NA,NA,NA,NA,NA,NA,NA,NA,NA,NA,NA,NA,NA,NA,NA,NA,NA,NA,NA,NA,NA
46b36,Shallow Question,html.Page,1_1_5_1_0,NA,NA,form submission,4100.5570000953,1569678.2,1569675.245,1569691.343,1573791.9000001,1573792.2,2023-04-16T16:27:52Z,1573806.634,"c(""distractor1"", ""distractor2"", ""distractor3"")",Kritik,lawama,s,dereva,nafasi,mawazo,nafasi,NA,NA,NA,NA,NA,NA,NA,NA,NA,NA,NA,NA,NA,NA,NA,NA,NA,NA,NA,NA,NA,NA
46b36,"""Richtig""-Screen",canvas.Screen,1_1_5_1_1,NA,NA,skipped,NA,1573794.1,NA,NA,1573791.9000001,1573794.3000001,2023-04-16T16:27:52Z,1573806.634,"c(""distractor1"", ""distractor2"", ""distractor3"")",Kritik,lawama,s,dereva,nafasi,mawazo,NA,NA,NA,NA,NA,NA,NA,NA,NA,NA,NA,NA,NA,NA,NA,NA,NA,NA,NA,NA,NA,NA,NA
46b36,"""Falsch""-Screen",canvas.Screen,1_1_5_1_2,NA,NA,timeout,4995.514,1573794.8000001,1573777.102,1573806.634,1578786.02,1578787.1,2023-04-16T16:27:57Z,1578802.148,"c(""distractor1"", ""distractor2"", ""distractor3"")",Kritik,lawama,s,dereva,nafasi,mawazo,NA,NA,0,NA,NA,NA,NA,NA,NA,NA,NA,NA,NA,NA,NA,NA,NA,NA,NA,NA,NA,NA,NA
46b36,shallow,flow.Sequence,1_1_5_1,NA,NA,completion,9094.6769999999,1569678.2,1569675.245,1569691.343,1578786.02,1578787.5,2023-04-16T16:27:57Z,1578802.148,"c(""distractor1"", ""distractor2"", ""distractor3"")",Kritik,lawama,s,dereva,nafasi,mawazo,NA,NA,NA,NA,NA,NA,NA,NA,NA,NA,NA,NA,NA,NA,NA,NA,NA,NA,NA,NA,NA,NA,NA
46b36,task,flow.Sequence,1_1_5,NA,NA,completion,9094.6769999999,1569677.7,1569675.245,1569691.343,1578786.02,1578787.9000001,2023-04-16T16:27:57Z,1578802.148,"c(""distractor1"", ""distractor2"", ""distractor3"")",Kritik,lawama,s,dereva,nafasi,mawazo,NA,NA,NA,NA,NA,NA,NA,NA,NA,NA,NA,NA,NA,NA,NA,NA,NA,NA,NA,NA,NA,NA,NA
46b36,block,flow.Loop,1_1,NA,NA,completion,61884.647,1516898.3000001,1516887.876,1516901.373,1578786.02,1578788.3000001,2023-04-16T16:27:57Z,1578802.148,"c(""distractor1"", ""distractor2"", ""distractor3"")",NA,NA,NA,NA,NA,NA,NA,NA,NA,NA,NA,NA,NA,NA,NA,NA,NA,NA,NA,NA,NA,NA,NA,NA,NA,NA,NA,NA,NA
46b36,Practice,flow.Sequence,1,NA,NA,completion,64076.064,1514702.6,1514683.296,1514709.956,1578786.02,1578788.5,2023-04-16T16:27:57Z,1578802.148,NULL,NA,NA,NA,NA,NA,NA,NA,NA,NA,NA,NA,NA,NA,NA,NA,NA,NA,NA,NA,NA,NA,NA,NA,NA,NA,NA,NA,NA,NA
46b36,Experiment start,canvas.Screen,2,weiter,keypress(q),response,4525.9520000238,1578788.7,1578786.02,1578802.148,1583328.1,1583329.4000001,2023-04-16T16:28:01Z,1583555.994,NULL,NA,NA,NA,NA,NA,NA,NA,NA,NA,NA,NA,NA,NA,NA,NA,NA,NA,NA,NA,NA,NA,NA,NA,NA,NA,NA,NA,NA,NA
46b36,Deep Question,html.Page,3_0_0_0_0_0_0,NA,NA,form submission,4944.0060000001,1583554.3000001,1583548.464,1583555.994,1588500,1588500.2,2023-04-16T16:28:07Z,1588512.694,NULL,Genehmigung,idhini,d,NA,NA,NA,mentendo,NA,NA,0,NA,NA,NA,NA,NA,NA,NA,NA,NA,NA,NA,NA,NA,NA,NA,NA,NA,NA,NA
46b36,"""Richtig""-Screen",canvas.Screen,3_0_0_0_0_0_1,NA,NA,skipped,NA,1588502.3000001,NA,NA,1588500,1588502.4000001,2023-04-16T16:28:07Z,1588512.694,NULL,Genehmigung,idhini,d,NA,NA,NA,NA,sdf,NA,0,NA,NA,NA,NA,NA,NA,NA,NA,NA,NA,NA,NA,NA,NA,NA,NA,NA,NA,NA
46b36,"""Falsch""-Screen",canvas.Screen,3_0_0_0_0_0_2,NA,NA,timeout,5000.054,1588503,1588491.818,1588512.694,1593496.034,1593497,2023-04-16T16:28:12Z,1593512.748,NULL,Genehmigung,idhini,d,NA,NA,NA,NA,sdf,0,0,NA,NA,NA,NA,NA,NA,NA,NA,NA,NA,NA,NA,NA,NA,NA,NA,NA,NA,NA
46b36,deep,flow.Sequence,3_0_0_0_0_0,NA,NA,completion,9940.04,1583554.2,1583548.464,1583555.994,1593496.034,1593497.5,2023-04-16T16:28:12Z,1593512.748,NULL,Genehmigung,idhini,d,NA,NA,NA,NA,sdf,NA,0,NA,NA,NA,NA,NA,NA,NA,NA,NA,NA,NA,NA,NA,NA,NA,NA,NA,NA,NA
46b36,shallow,flow.Sequence,3_0_0_0_0_1,NA,NA,skipped,NA,1593497.7,NA,NA,1593496.034,1593497.9000001,2023-04-16T16:28:12Z,1593512.748,NULL,Genehmigung,idhini,d,NA,NA,NA,NA,sdf,NA,0,NA,NA,NA,NA,NA,NA,NA,NA,NA,NA,NA,NA,NA,NA,NA,NA,NA,NA,NA
46b36,task,flow.Sequence,3_0_0_0_0,NA,NA,completion,9940.04,1583554.2,1583548.464,1583555.994,1593496.034,1593498,2023-04-16T16:28:12Z,1593512.748,NULL,Genehmigung,idhini,d,NA,NA,NA,NA,sdf,NA,0,NA,NA,NA,NA,NA,NA,NA,NA,NA,NA,NA,NA,NA,NA,NA,NA,NA,NA,NA
46b36,Deep Question,html.Page,3_0_0_0_1_0_0,NA,NA,form submission,4397.2520000001,1593498.3000001,1593496.034,1593512.748,1597910,1597910.1,2023-04-16T16:28:16Z,1597911.141,NULL,Kultur,utamaduni,d,NA,NA,NA,cultr,NA,NA,0,NA,NA,NA,NA,NA,NA,NA,NA,NA,NA,NA,NA,NA,NA,NA,NA,NA,NA,NA
46b36,"""Richtig""-Screen",canvas.Screen,3_0_0_0_1_0_1,NA,NA,skipped,NA,1597912.3000001,NA,NA,1597910,1597912.3000001,2023-04-16T16:28:16Z,1597911.141,NULL,Kultur,utamaduni,d,NA,NA,NA,NA,sdf,NA,0,NA,NA,NA,NA,NA,NA,NA,NA,NA,NA,NA,NA,NA,NA,NA,NA,NA,NA,NA
46b36,"""Falsch""-Screen",canvas.Screen,3_0_0_0_1_0_2,NA,NA,timeout,4999.959,1597913,1597894.802,1597911.141,1602894.751,1602895.9000001,2023-04-16T16:28:21Z,1602911.1,NULL,Kultur,utamaduni,d,NA,NA,NA,NA,sdf,0,0,NA,NA,NA,NA,NA,NA,NA,NA,NA,NA,NA,NA,NA,NA,NA,NA,NA,NA,NA
46b36,deep,flow.Sequence,3_0_0_0_1_0,NA,NA,completion,9382.003,1593498.2,1593496.034,1593512.748,1602894.751,1602896.3000001,2023-04-16T16:28:21Z,1602911.1,NULL,Kultur,utamaduni,d,NA,NA,NA,NA,sdf,NA,0,NA,NA,NA,NA,NA,NA,NA,NA,NA,NA,NA,NA,NA,NA,NA,NA,NA,NA,NA
46b36,shallow,flow.Sequence,3_0_0_0_1_1,NA,NA,skipped,NA,1602896.5,NA,NA,1602894.751,1602896.7,2023-04-16T16:28:21Z,1602911.1,NULL,Kultur,utamaduni,d,NA,NA,NA,NA,sdf,NA,0,NA,NA,NA,NA,NA,NA,NA,NA,NA,NA,NA,NA,NA,NA,NA,NA,NA,NA,NA
46b36,task,flow.Sequence,3_0_0_0_1,NA,NA,completion,9382.003,1593498.2,1593496.034,1593512.748,1602894.751,1602896.9000001,2023-04-16T16:28:21Z,1602911.1,NULL,Kultur,utamaduni,d,NA,NA,NA,NA,sdf,NA,0,NA,NA,NA,NA,NA,NA,NA,NA,NA,NA,NA,NA,NA,NA,NA,NA,NA,NA,NA
46b36,Deep Question,html.Page,3_0_0_0_2_0_0,NA,NA,form submission,6127.5000000237,1602897.2,1602894.751,1602911.1,1609038.6,1609038.8000001,2023-04-16T16:28:27Z,1609051.313,NULL,Verzögerung,kuchelewa,d,NA,NA,NA,habadi,NA,NA,0,NA,NA,NA,NA,NA,NA,NA,NA,NA,NA,NA,NA,NA,NA,NA,NA,NA,NA,NA
46b36,"""Richtig""-Screen",canvas.Screen,3_0_0_0_2_0_1,NA,NA,skipped,NA,1609041.5,NA,NA,1609038.6,1609041.6,2023-04-16T16:28:27Z,1609051.313,NULL,Verzögerung,kuchelewa,d,NA,NA,NA,NA,sdf,NA,0,NA,NA,NA,NA,NA,NA,NA,NA,NA,NA,NA,NA,NA,NA,NA,NA,NA,NA,NA
46b36,"""Falsch""-Screen",canvas.Screen,3_0_0_0_2_0_2,NA,NA,timeout,4991.4789999998,1609042.5,1609026.551,1609051.313,1614026.454,1614027.5,2023-04-16T16:28:32Z,1614042.792,NULL,Verzögerung,kuchelewa,d,NA,NA,NA,NA,sdf,0,0,NA,NA,NA,NA,NA,NA,NA,NA,NA,NA,NA,NA,NA,NA,NA,NA,NA,NA,NA
46b36,deep,flow.Sequence,3_0_0_0_2_0,NA,NA,completion,11115.354,1602897.1,1602894.751,1602911.1,1614026.454,1614027.9000001,2023-04-16T16:28:32Z,1614042.792,NULL,Verzögerung,kuchelewa,d,NA,NA,NA,NA,sdf,NA,0,NA,NA,NA,NA,NA,NA,NA,NA,NA,NA,NA,NA,NA,NA,NA,NA,NA,NA,NA
46b36,shallow,flow.Sequence,3_0_0_0_2_1,NA,NA,skipped,NA,1614028,NA,NA,1614026.454,1614028.3000001,2023-04-16T16:28:32Z,1614042.792,NULL,Verzögerung,kuchelewa,d,NA,NA,NA,NA,sdf,NA,0,NA,NA,NA,NA,NA,NA,NA,NA,NA,NA,NA,NA,NA,NA,NA,NA,NA,NA,NA
46b36,task,flow.Sequence,3_0_0_0_2,NA,NA,completion,11115.354,1602897,1602894.751,1602911.1,1614026.454,1614028.5,2023-04-16T16:28:32Z,1614042.792,NULL,Verzögerung,kuchelewa,d,NA,NA,NA,NA,sdf,NA,0,NA,NA,NA,NA,NA,NA,NA,NA,NA,NA,NA,NA,NA,NA,NA,NA,NA,NA,NA
46b36,deep,flow.Sequence,3_0_0_0_3_0,NA,NA,skipped,NA,1614028.7,NA,NA,1614026.454,1614028.8000001,2023-04-16T16:28:32Z,1614042.792,NULL,Prüfung,mtihani,s,mkulima,mtizamo,ufumbuzi,NA,sdf,NA,0,NA,NA,NA,NA,NA,NA,NA,NA,NA,NA,NA,NA,NA,NA,NA,NA,NA,NA,NA
46b36,Shallow Question,html.Page,3_0_0_0_3_1_0,NA,NA,form submission,3888.6080000955,1614029,1614026.454,1614042.792,1617931.4000001,1617931.5,2023-04-16T16:28:36Z,1617936.9,NULL,Prüfung,mtihani,s,mkulima,mtizamo,ufumbuzi,mtizamo,NA,NA,0,NA,NA,NA,NA,NA,NA,NA,NA,NA,NA,NA,NA,NA,NA,NA,NA,NA,NA,NA
46b36,"""Richtig""-Screen",canvas.Screen,3_0_0_0_3_1_1,NA,NA,skipped,NA,1617933.3000001,NA,NA,1617931.4000001,1617933.4000001,2023-04-16T16:28:36Z,1617936.9,NULL,Prüfung,mtihani,s,mkulima,mtizamo,ufumbuzi,NA,sdf,NA,0,NA,NA,NA,NA,NA,NA,NA,NA,NA,NA,NA,NA,NA,NA,NA,NA,NA,NA,NA
46b36,"""Falsch""-Screen",canvas.Screen,3_0_0_0_3_1_2,NA,NA,timeout,4991.4300000002,1617934,1617924.656,1617936.9,1622912.221,1622913.3000001,2023-04-16T16:28:41Z,1622928.33,NULL,Prüfung,mtihani,s,mkulima,mtizamo,ufumbuzi,NA,sdf,0,0,NA,NA,NA,NA,NA,NA,NA,NA,NA,NA,NA,NA,NA,NA,NA,NA,NA,NA,NA
46b36,shallow,flow.Sequence,3_0_0_0_3_1,NA,NA,completion,8869.429,1614028.9000001,1614026.454,1614042.792,1622912.221,1622913.8000001,2023-04-16T16:28:41Z,1622928.33,NULL,Prüfung,mtihani,s,mkulima,mtizamo,ufumbuzi,NA,sdf,NA,0,NA,NA,NA,NA,NA,NA,NA,NA,NA,NA,NA,NA,NA,NA,NA,NA,NA,NA,NA
46b36,task,flow.Sequence,3_0_0_0_3,NA,NA,completion,8869.429,1614028.6,1614026.454,1614042.792,1622912.221,1622914,2023-04-16T16:28:41Z,1622928.33,NULL,Prüfung,mtihani,s,mkulima,mtizamo,ufumbuzi,NA,sdf,NA,0,NA,NA,NA,NA,NA,NA,NA,NA,NA,NA,NA,NA,NA,NA,NA,NA,NA,NA,NA
46b36,Deep Question,html.Page,3_0_0_0_4_0_0,NA,NA,form submission,5201.0700000953,1622914.3000001,1622912.221,1622928.33,1628129.4000001,1628129.6,2023-04-16T16:28:46Z,1628130.792,NULL,Begegnung,kukutana,d,NA,NA,NA,daba,NA,NA,0,NA,NA,NA,NA,NA,NA,NA,NA,NA,NA,NA,NA,NA,NA,NA,NA,NA,NA,NA
46b36,"""Richtig""-Screen",canvas.Screen,3_0_0_0_4_0_1,NA,NA,skipped,NA,1628132,NA,NA,1628129.4000001,1628132.2,2023-04-16T16:28:46Z,1628130.792,NULL,Begegnung,kukutana,d,NA,NA,NA,NA,sdf,NA,0,NA,NA,NA,NA,NA,NA,NA,NA,NA,NA,NA,NA,NA,NA,NA,NA,NA,NA,NA
46b36,"""Falsch""-Screen",canvas.Screen,3_0_0_0_4_0_2,NA,NA,timeout,4991.638,1628133.2,1628114.746,1628130.792,1633106.119,1633107.4000001,2023-04-16T16:28:51Z,1633122.43,NULL,Begegnung,kukutana,d,NA,NA,NA,NA,sdf,0,0,NA,NA,NA,NA,NA,NA,NA,NA,NA,NA,NA,NA,NA,NA,NA,NA,NA,NA,NA
46b36,deep,flow.Sequence,3_0_0_0_4_0,NA,NA,completion,10177.789,1622914.3000001,1622912.221,1622928.33,1633106.119,1633107.8000001,2023-04-16T16:28:51Z,1633122.43,NULL,Begegnung,kukutana,d,NA,NA,NA,NA,sdf,NA,0,NA,NA,NA,NA,NA,NA,NA,NA,NA,NA,NA,NA,NA,NA,NA,NA,NA,NA,NA
46b36,shallow,flow.Sequence,3_0_0_0_4_1,NA,NA,skipped,NA,1633108,NA,NA,1633106.119,1633108.2,2023-04-16T16:28:51Z,1633122.43,NULL,Begegnung,kukutana,d,NA,NA,NA,NA,sdf,NA,0,NA,NA,NA,NA,NA,NA,NA,NA,NA,NA,NA,NA,NA,NA,NA,NA,NA,NA,NA
46b36,task,flow.Sequence,3_0_0_0_4,NA,NA,completion,10177.789,1622914.1,1622912.221,1622928.33,1633106.119,1633108.4000001,2023-04-16T16:28:51Z,1633122.43,NULL,Begegnung,kukutana,d,NA,NA,NA,NA,sdf,NA,0,NA,NA,NA,NA,NA,NA,NA,NA,NA,NA,NA,NA,NA,NA,NA,NA,NA,NA,NA
46b36,deep,flow.Sequence,3_0_0_0_5_0,NA,NA,skipped,NA,1633108.6,NA,NA,1633106.119,1633108.7,2023-04-16T16:28:51Z,1633122.43,NULL,Aufstand,ugomaji,s,mazidio,msingi,kujieleza,NA,sdf,NA,0,NA,NA,NA,NA,NA,NA,NA,NA,NA,NA,NA,NA,NA,NA,NA,NA,NA,NA,NA
46b36,Shallow Question,html.Page,3_0_0_0_5_1_0,NA,NA,form submission,3495.0700000001,1633109,1633106.119,1633122.43,1636617.5,1636617.8000001,2023-04-16T16:28:55Z,1636621.081,NULL,Aufstand,ugomaji,s,mazidio,msingi,kujieleza,ugomaji,NA,NA,0,NA,NA,NA,NA,NA,NA,NA,NA,NA,NA,NA,NA,NA,NA,NA,NA,NA,NA,NA
46b36,"""Richtig""-Screen",canvas.Screen,3_0_0_0_5_1_1,NA,NA,timeout,5008.101,1636619.7,1636600.369,1636621.081,1641612.578,1641613.3000001,2023-04-16T16:29:00Z,1641629.182,NULL,Aufstand,ugomaji,s,mazidio,msingi,kujieleza,NA,sdf,1,0,NA,NA,NA,NA,NA,NA,NA,NA,NA,NA,NA,NA,NA,NA,NA,NA,NA,NA,NA
46b36,"""Falsch""-Screen",canvas.Screen,3_0_0_0_5_1_2,NA,NA,skipped,NA,1641618.1,NA,NA,1641612.578,1641618.4000001,2023-04-16T16:29:00Z,1641629.182,NULL,Aufstand,ugomaji,s,mazidio,msingi,kujieleza,NA,sdf,NA,0,NA,NA,NA,NA,NA,NA,NA,NA,NA,NA,NA,NA,NA,NA,NA,NA,NA,NA,NA
46b36,shallow,flow.Sequence,3_0_0_0_5_1,NA,NA,completion,8490.148,1633108.8000001,1633106.119,1633122.43,1641612.578,1641618.8000001,2023-04-16T16:29:00Z,1641629.182,NULL,Aufstand,ugomaji,s,mazidio,msingi,kujieleza,NA,sdf,NA,0,NA,NA,NA,NA,NA,NA,NA,NA,NA,NA,NA,NA,NA,NA,NA,NA,NA,NA,NA
46b36,task,flow.Sequence,3_0_0_0_5,NA,NA,completion,8490.148,1633108.5,1633106.119,1633122.43,1641612.578,1641619,2023-04-16T16:29:00Z,1641629.182,NULL,Aufstand,ugomaji,s,mazidio,msingi,kujieleza,NA,sdf,NA,0,NA,NA,NA,NA,NA,NA,NA,NA,NA,NA,NA,NA,NA,NA,NA,NA,NA,NA,NA
46b36,deep,flow.Sequence,3_0_0_0_6_0,NA,NA,skipped,NA,1641619.3000001,NA,NA,1641612.578,1641619.3000001,2023-04-16T16:29:00Z,1641629.182,NULL,Integrität,uadilifu,s,muungano,mtiririko,upunguaji,NA,sdf,NA,0,NA,NA,NA,NA,NA,NA,NA,NA,NA,NA,NA,NA,NA,NA,NA,NA,NA,NA,NA
46b36,Shallow Question,html.Page,3_0_0_0_6_1_0,NA,NA,form submission,3786.4180000238,1641619.5,1641612.578,1641629.182,1645415.6,1645415.8000001,2023-04-16T16:29:03Z,1645419.289,NULL,Integrität,uadilifu,s,muungano,mtiririko,upunguaji,mtiririko,NA,NA,0,NA,NA,NA,NA,NA,NA,NA,NA,NA,NA,NA,NA,NA,NA,NA,NA,NA,NA,NA
46b36,"""Richtig""-Screen",canvas.Screen,3_0_0_0_6_1_1,NA,NA,skipped,NA,1645417.5,NA,NA,1645415.6,1645417.8000001,2023-04-16T16:29:03Z,1645419.289,NULL,Integrität,uadilifu,s,muungano,mtiririko,upunguaji,NA,sdf,NA,0,NA,NA,NA,NA,NA,NA,NA,NA,NA,NA,NA,NA,NA,NA,NA,NA,NA,NA,NA
46b36,"""Falsch""-Screen",canvas.Screen,3_0_0_0_6_1_2,NA,NA,timeout,4991.686,1645418.3000001,1645398.851,1645419.289,1650394.594,1650395.7,2023-04-16T16:29:08Z,1650410.975,NULL,Integrität,uadilifu,s,muungano,mtiririko,upunguaji,NA,sdf,0,0,NA,NA,NA,NA,NA,NA,NA,NA,NA,NA,NA,NA,NA,NA,NA,NA,NA,NA,NA
46b36,shallow,flow.Sequence,3_0_0_0_6_1,NA,NA,completion,8765.412,1641619.4000001,1641612.578,1641629.182,1650394.594,1650396.2,2023-04-16T16:29:08Z,1650410.975,NULL,Integrität,uadilifu,s,muungano,mtiririko,upunguaji,NA,sdf,NA,0,NA,NA,NA,NA,NA,NA,NA,NA,NA,NA,NA,NA,NA,NA,NA,NA,NA,NA,NA
46b36,task,flow.Sequence,3_0_0_0_6,NA,NA,completion,8765.412,1641619.1,1641612.578,1641629.182,1650394.594,1650396.5,2023-04-16T16:29:08Z,1650410.975,NULL,Integrität,uadilifu,s,muungano,mtiririko,upunguaji,NA,sdf,NA,0,NA,NA,NA,NA,NA,NA,NA,NA,NA,NA,NA,NA,NA,NA,NA,NA,NA,NA,NA
46b36,deep,flow.Sequence,3_0_0_0_7_0,NA,NA,skipped,NA,1650396.7,NA,NA,1650394.594,1650396.8000001,2023-04-16T16:29:08Z,1650410.975,NULL,Fleisch,mshakiki,s,kizunguzungu,mshikamano,angusho,NA,sdf,NA,0,NA,NA,NA,NA,NA,NA,NA,NA,NA,NA,NA,NA,NA,NA,NA,NA,NA,NA,NA
46b36,Shallow Question,html.Page,3_0_0_0_7_1_0,NA,NA,form submission,4015.5249999999,1650397.1,1650394.594,1650410.975,1654426.5,1654426.7,2023-04-16T16:29:12Z,1654433.784,NULL,Fleisch,mshakiki,s,kizunguzungu,mshikamano,angusho,angusho,NA,NA,0,NA,NA,NA,NA,NA,NA,NA,NA,NA,NA,NA,NA,NA,NA,NA,NA,NA,NA,NA
46b36,"""Richtig""-Screen",canvas.Screen,3_0_0_0_7_1_1,NA,NA,skipped,NA,1654428.7,NA,NA,1654426.5,1654428.8000001,2023-04-16T16:29:12Z,1654433.784,NULL,Fleisch,mshakiki,s,kizunguzungu,mshikamano,angusho,NA,sdf,NA,0,NA,NA,NA,NA,NA,NA,NA,NA,NA,NA,NA,NA,NA,NA,NA,NA,NA,NA,NA
46b36,"""Falsch""-Screen",canvas.Screen,3_0_0_0_7_1_2,NA,NA,timeout,4999.5560000001,1654429.4000001,1654412.731,1654433.784,1659417.156,1659418.2,2023-04-16T16:29:17Z,1659433.34,NULL,Fleisch,mshakiki,s,kizunguzungu,mshikamano,angusho,NA,sdf,0,0,NA,NA,NA,NA,NA,NA,NA,NA,NA,NA,NA,NA,NA,NA,NA,NA,NA,NA,NA
46b36,shallow,flow.Sequence,3_0_0_0_7_1,NA,NA,completion,9006.1809999999,1650397,1650394.594,1650410.975,1659417.156,1659418.6,2023-04-16T16:29:17Z,1659433.34,NULL,Fleisch,mshakiki,s,kizunguzungu,mshikamano,angusho,NA,sdf,NA,0,NA,NA,NA,NA,NA,NA,NA,NA,NA,NA,NA,NA,NA,NA,NA,NA,NA,NA,NA
46b36,task,flow.Sequence,3_0_0_0_7,NA,NA,completion,9006.1809999999,1650396.6,1650394.594,1650410.975,1659417.156,1659418.8000001,2023-04-16T16:29:17Z,1659433.34,NULL,Fleisch,mshakiki,s,kizunguzungu,mshikamano,angusho,NA,sdf,NA,0,NA,NA,NA,NA,NA,NA,NA,NA,NA,NA,NA,NA,NA,NA,NA,NA,NA,NA,NA
46b36,block,flow.Loop,3_0_0_0,NA,NA,completion,75861.162,1583554.1,1583548.464,1583555.994,1659417.156,1659419.2,2023-04-16T16:29:17Z,1659433.34,NULL,NA,NA,NA,NA,NA,NA,NA,sdf,NA,0,NA,NA,NA,NA,NA,NA,NA,NA,NA,NA,NA,NA,NA,NA,NA,NA,NA,NA,NA
46b36,weiter,canvas.Screen,3_0_0_1,sdf,keypress(Space),response,1180.1599999999,1659419.4000001,1659417.156,1659433.34,1660613.5,1660614.7,2023-04-16T16:29:19Z,1660716.67,NULL,NA,NA,NA,NA,NA,NA,NA,sdf,NA,0,NA,NA,NA,NA,NA,NA,NA,NA,NA,NA,NA,NA,NA,NA,NA,NA,NA,NA,NA
46b36,check continue,flow.Sequence,3_0_0,NA,NA,completion,77057.506,1583554,1583548.464,1583555.994,1660613.5,1660615.1,2023-04-16T16:29:19Z,1660716.67,NULL,NA,NA,NA,NA,NA,NA,NA,sdf,NA,0,NA,NA,NA,NA,NA,NA,NA,NA,NA,NA,NA,NA,NA,NA,NA,NA,NA,NA,NA
46b36,deep,flow.Sequence,3_0_1_0_0_0,NA,NA,skipped,NA,1660699.1,NA,NA,1660613.5,1660699.3000001,2023-04-16T16:29:19Z,1660716.67,NULL,Integrität,uadilifu,s,muungano,mtiririko,upunguaji,NA,sdfdsf,NA,1,NA,NA,NA,NA,NA,NA,NA,NA,NA,NA,NA,NA,NA,NA,NA,NA,NA,NA,NA
46b36,Shallow Question,html.Page,3_0_1_0_0_1_0,NA,NA,form submission,4486.5300000478,1660699.4000001,1660699.269,1660716.67,1665203.2,1665203.4000001,2023-04-16T16:29:23Z,1665220.52,NULL,Integrität,uadilifu,s,muungano,mtiririko,upunguaji,mtiririko,NA,NA,1,NA,NA,NA,NA,NA,NA,NA,NA,NA,NA,NA,NA,NA,NA,NA,NA,NA,NA,NA
46b36,"""Richtig""-Screen",canvas.Screen,3_0_1_0_0_1_1,NA,NA,skipped,NA,1665205.1,NA,NA,1665203.2,1665205.3000001,2023-04-16T16:29:23Z,1665220.52,NULL,Integrität,uadilifu,s,muungano,mtiririko,upunguaji,NA,sdfdsf,NA,1,NA,NA,NA,NA,NA,NA,NA,NA,NA,NA,NA,NA,NA,NA,NA,NA,NA,NA,NA
46b36,"""Falsch""-Screen",canvas.Screen,3_0_1_0_0_1_2,NA,NA,timeout,5004.1880000001,1665205.9000001,1665194.77,1665220.52,1670208.041,1670209.1,2023-04-16T16:29:28Z,1670224.708,NULL,Integrität,uadilifu,s,muungano,mtiririko,upunguaji,NA,sdfdsf,0,1,NA,NA,NA,NA,NA,NA,NA,NA,NA,NA,NA,NA,NA,NA,NA,NA,NA,NA,NA
46b36,shallow,flow.Sequence,3_0_1_0_0_1,NA,NA,completion,9491.371,1660699.4000001,1660699.269,1660716.67,1670208.041,1670209.6,2023-04-16T16:29:28Z,1670224.708,NULL,Integrität,uadilifu,s,muungano,mtiririko,upunguaji,NA,sdfdsf,NA,1,NA,NA,NA,NA,NA,NA,NA,NA,NA,NA,NA,NA,NA,NA,NA,NA,NA,NA,NA
46b36,task,flow.Sequence,3_0_1_0_0,NA,NA,completion,9491.371,1660699,1660699.269,1660716.67,1670208.041,1670209.9000001,2023-04-16T16:29:28Z,1670224.708,NULL,Integrität,uadilifu,s,muungano,mtiririko,upunguaji,NA,sdfdsf,NA,1,NA,NA,NA,NA,NA,NA,NA,NA,NA,NA,NA,NA,NA,NA,NA,NA,NA,NA,NA
46b36,Deep Question,html.Page,3_0_1_0_1_0_0,NA,NA,form submission,6180.7919999999,1670210.1,1670208.041,1670224.708,1676405.5,1676405.8000001,2023-04-16T16:29:34Z,1676427.002,NULL,Genehmigung,idhini,d,NA,NA,NA,indihi,NA,NA,1,NA,NA,NA,NA,NA,NA,NA,NA,NA,NA,NA,NA,NA,NA,NA,NA,NA,NA,NA
46b36,"""Richtig""-Screen",canvas.Screen,3_0_1_0_1_0_1,NA,NA,skipped,NA,1676408.4000001,NA,NA,1676405.5,1676408.6,2023-04-16T16:29:34Z,1676427.002,NULL,Genehmigung,idhini,d,NA,NA,NA,NA,sdfdsf,NA,1,NA,NA,NA,NA,NA,NA,NA,NA,NA,NA,NA,NA,NA,NA,NA,NA,NA,NA,NA
46b36,"""Falsch""-Screen",canvas.Screen,3_0_1_0_1_0_2,NA,NA,timeout,4999.3149999999,1676409.5,1676409.764,1676427.002,1681410.162,1681411.2,2023-04-16T16:29:39Z,1681426.317,NULL,Genehmigung,idhini,d,NA,NA,NA,NA,sdfdsf,0,1,NA,NA,NA,NA,NA,NA,NA,NA,NA,NA,NA,NA,NA,NA,NA,NA,NA,NA,NA
46b36,deep,flow.Sequence,3_0_1_0_1_0,NA,NA,completion,11185.454,1670210.1,1670208.041,1670224.708,1681410.162,1681411.6,2023-04-16T16:29:39Z,1681426.317,NULL,Genehmigung,idhini,d,NA,NA,NA,NA,sdfdsf,NA,1,NA,NA,NA,NA,NA,NA,NA,NA,NA,NA,NA,NA,NA,NA,NA,NA,NA,NA,NA
46b36,shallow,flow.Sequence,3_0_1_0_1_1,NA,NA,skipped,NA,1681411.8000001,NA,NA,1681410.162,1681412,2023-04-16T16:29:39Z,1681426.317,NULL,Genehmigung,idhini,d,NA,NA,NA,NA,sdfdsf,NA,1,NA,NA,NA,NA,NA,NA,NA,NA,NA,NA,NA,NA,NA,NA,NA,NA,NA,NA,NA
46b36,task,flow.Sequence,3_0_1_0_1,NA,NA,completion,11185.454,1670210,1670208.041,1670224.708,1681410.162,1681412.3000001,2023-04-16T16:29:39Z,1681426.317,NULL,Genehmigung,idhini,d,NA,NA,NA,NA,sdfdsf,NA,1,NA,NA,NA,NA,NA,NA,NA,NA,NA,NA,NA,NA,NA,NA,NA,NA,NA,NA,NA
46b36,deep,flow.Sequence,3_0_1_0_2_0,NA,NA,skipped,NA,1681412.4000001,NA,NA,1681410.162,1681412.5,2023-04-16T16:29:39Z,1681426.317,NULL,Fleisch,mshakiki,s,kizunguzungu,mshikamano,angusho,NA,sdfdsf,NA,1,NA,NA,NA,NA,NA,NA,NA,NA,NA,NA,NA,NA,NA,NA,NA,NA,NA,NA,NA
46b36,Shallow Question,html.Page,3_0_1_0_2_1_0,NA,NA,form submission,4827.9830000715,1681413.1,1681410.162,1681426.317,1686254.3000001,1686254.5,2023-04-16T16:29:44Z,1686258.021,NULL,Fleisch,mshakiki,s,kizunguzungu,mshikamano,angusho,mshakiki,NA,NA,1,NA,NA,NA,NA,NA,NA,NA,NA,NA,NA,NA,NA,NA,NA,NA,NA,NA,NA,NA
46b36,"""Richtig""-Screen",canvas.Screen,3_0_1_0_2_1_1,NA,NA,timeout,4999.767,1686256.4000001,1686241.602,1686258.021,1691241.609,1691242.6,2023-04-16T16:29:49Z,1691257.788,NULL,Fleisch,mshakiki,s,kizunguzungu,mshikamano,angusho,NA,sdfdsf,1,1,NA,NA,NA,NA,NA,NA,NA,NA,NA,NA,NA,NA,NA,NA,NA,NA,NA,NA,NA
46b36,"""Falsch""-Screen",canvas.Screen,3_0_1_0_2_1_2,NA,NA,skipped,NA,1691248,NA,NA,1691241.609,1691248.3000001,2023-04-16T16:29:49Z,1691257.788,NULL,Fleisch,mshakiki,s,kizunguzungu,mshikamano,angusho,NA,sdfdsf,NA,1,NA,NA,NA,NA,NA,NA,NA,NA,NA,NA,NA,NA,NA,NA,NA,NA,NA,NA,NA
46b36,shallow,flow.Sequence,3_0_1_0_2_1,NA,NA,completion,9815.2919999999,1681413,1681410.162,1681426.317,1691241.609,1691248.7,2023-04-16T16:29:49Z,1691257.788,NULL,Fleisch,mshakiki,s,kizunguzungu,mshikamano,angusho,NA,sdfdsf,NA,1,NA,NA,NA,NA,NA,NA,NA,NA,NA,NA,NA,NA,NA,NA,NA,NA,NA,NA,NA
46b36,task,flow.Sequence,3_0_1_0_2,NA,NA,completion,9815.2919999999,1681412.4000001,1681410.162,1681426.317,1691241.609,1691249,2023-04-16T16:29:49Z,1691257.788,NULL,Fleisch,mshakiki,s,kizunguzungu,mshikamano,angusho,NA,sdfdsf,NA,1,NA,NA,NA,NA,NA,NA,NA,NA,NA,NA,NA,NA,NA,NA,NA,NA,NA,NA,NA
46b36,Deep Question,html.Page,3_0_1_0_3_0_0,NA,NA,form submission,7136.8120000239,1691249.2,1691241.609,1691257.788,1698394.6,1698394.8000001,2023-04-16T16:29:56Z,1698413.995,NULL,Kultur,utamaduni,d,NA,NA,NA,kuwaldena,NA,NA,1,NA,NA,NA,NA,NA,NA,NA,NA,NA,NA,NA,NA,NA,NA,NA,NA,NA,NA,NA
46b36,"""Richtig""-Screen",canvas.Screen,3_0_1_0_3_0_1,NA,NA,skipped,NA,1698397.4000001,NA,NA,1698394.6,1698397.5,2023-04-16T16:29:56Z,1698413.995,NULL,Kultur,utamaduni,d,NA,NA,NA,NA,sdfdsf,NA,1,NA,NA,NA,NA,NA,NA,NA,NA,NA,NA,NA,NA,NA,NA,NA,NA,NA,NA,NA
46b36,"""Falsch""-Screen",canvas.Screen,3_0_1_0_3_0_2,NA,NA,timeout,5003.7779999999,1698398.4000001,1698389.245,1698413.995,1703401.756,1703403,2023-04-16T16:30:01Z,1703417.773,NULL,Kultur,utamaduni,d,NA,NA,NA,NA,sdfdsf,0,1,NA,NA,NA,NA,NA,NA,NA,NA,NA,NA,NA,NA,NA,NA,NA,NA,NA,NA,NA
46b36,deep,flow.Sequence,3_0_1_0_3_0,NA,NA,completion,12143.968,1691249.2,1691241.609,1691257.788,1703401.756,1703403.5,2023-04-16T16:30:01Z,1703417.773,NULL,Kultur,utamaduni,d,NA,NA,NA,NA,sdfdsf,NA,1,NA,NA,NA,NA,NA,NA,NA,NA,NA,NA,NA,NA,NA,NA,NA,NA,NA,NA,NA
46b36,shallow,flow.Sequence,3_0_1_0_3_1,NA,NA,skipped,NA,1703403.7,NA,NA,1703401.756,1703404,2023-04-16T16:30:01Z,1703417.773,NULL,Kultur,utamaduni,d,NA,NA,NA,NA,sdfdsf,NA,1,NA,NA,NA,NA,NA,NA,NA,NA,NA,NA,NA,NA,NA,NA,NA,NA,NA,NA,NA
46b36,task,flow.Sequence,3_0_1_0_3,NA,NA,completion,12143.968,1691249.2,1691241.609,1691257.788,1703401.756,1703404.4000001,2023-04-16T16:30:01Z,1703417.773,NULL,Kultur,utamaduni,d,NA,NA,NA,NA,sdfdsf,NA,1,NA,NA,NA,NA,NA,NA,NA,NA,NA,NA,NA,NA,NA,NA,NA,NA,NA,NA,NA
46b36,Deep Question,html.Page,3_0_1_0_4_0_0,NA,NA,form submission,4755.9270000476,1703404.8000001,1703401.756,1703417.773,1708173.7,1708174,2023-04-16T16:30:06Z,1708183.139,NULL,Verzögerung,kuchelewa,d,NA,NA,NA,kuwaldena,NA,NA,1,NA,NA,NA,NA,NA,NA,NA,NA,NA,NA,NA,NA,NA,NA,NA,NA,NA,NA,NA
46b36,"""Richtig""-Screen",canvas.Screen,3_0_1_0_4_0_1,NA,NA,skipped,NA,1708176.1,NA,NA,1708173.7,1708176.2,2023-04-16T16:30:06Z,1708183.139,NULL,Verzögerung,kuchelewa,d,NA,NA,NA,NA,sdfdsf,NA,1,NA,NA,NA,NA,NA,NA,NA,NA,NA,NA,NA,NA,NA,NA,NA,NA,NA,NA,NA
46b36,"""Falsch""-Screen",canvas.Screen,3_0_1_0_4_0_2,NA,NA,timeout,4999.6880000001,1708176.8000001,1708162.239,1708183.139,1713166.693,1713167.7,2023-04-16T16:30:11Z,1713182.827,NULL,Verzögerung,kuchelewa,d,NA,NA,NA,NA,sdfdsf,0,1,NA,NA,NA,NA,NA,NA,NA,NA,NA,NA,NA,NA,NA,NA,NA,NA,NA,NA,NA
46b36,deep,flow.Sequence,3_0_1_0_4_0,NA,NA,completion,9748.9199999999,1703404.6,1703401.756,1703417.773,1713166.693,1713168.3000001,2023-04-16T16:30:11Z,1713182.827,NULL,Verzögerung,kuchelewa,d,NA,NA,NA,NA,sdfdsf,NA,1,NA,NA,NA,NA,NA,NA,NA,NA,NA,NA,NA,NA,NA,NA,NA,NA,NA,NA,NA
46b36,shallow,flow.Sequence,3_0_1_0_4_1,NA,NA,skipped,NA,1713168.4000001,NA,NA,1713166.693,1713168.7,2023-04-16T16:30:11Z,1713182.827,NULL,Verzögerung,kuchelewa,d,NA,NA,NA,NA,sdfdsf,NA,1,NA,NA,NA,NA,NA,NA,NA,NA,NA,NA,NA,NA,NA,NA,NA,NA,NA,NA,NA
46b36,task,flow.Sequence,3_0_1_0_4,NA,NA,completion,9748.9199999999,1703404.6,1703401.756,1703417.773,1713166.693,1713169,2023-04-16T16:30:11Z,1713182.827,NULL,Verzögerung,kuchelewa,d,NA,NA,NA,NA,sdfdsf,NA,1,NA,NA,NA,NA,NA,NA,NA,NA,NA,NA,NA,NA,NA,NA,NA,NA,NA,NA,NA
46b36,deep,flow.Sequence,3_0_1_0_5_0,NA,NA,skipped,NA,1713169.3000001,NA,NA,1713166.693,1713169.5,2023-04-16T16:30:11Z,1713182.827,NULL,Prüfung,mtihani,s,mkulima,mtizamo,ufumbuzi,NA,sdfdsf,NA,1,NA,NA,NA,NA,NA,NA,NA,NA,NA,NA,NA,NA,NA,NA,NA,NA,NA,NA,NA
46b36,Shallow Question,html.Page,3_0_1_0_5_1_0,NA,NA,form submission,4994.673,1713169.7,1713166.693,1713182.827,1718177.5,1718177.6,2023-04-16T16:30:16Z,1718180.5,NULL,Prüfung,mtihani,s,mkulima,mtizamo,ufumbuzi,mtihani,NA,NA,1,NA,NA,NA,NA,NA,NA,NA,NA,NA,NA,NA,NA,NA,NA,NA,NA,NA,NA,NA
46b36,"""Richtig""-Screen",canvas.Screen,3_0_1_0_5_1_1,NA,NA,timeout,4999.6499999999,1718179.5,1718172.604,1718180.5,1723163.928,1723164.9000001,2023-04-16T16:30:21Z,1723180.15,NULL,Prüfung,mtihani,s,mkulima,mtizamo,ufumbuzi,NA,sdfdsf,1,1,NA,NA,NA,NA,NA,NA,NA,NA,NA,NA,NA,NA,NA,NA,NA,NA,NA,NA,NA
46b36,"""Falsch""-Screen",canvas.Screen,3_0_1_0_5_1_2,NA,NA,skipped,NA,1723170.3000001,NA,NA,1723163.928,1723170.6,2023-04-16T16:30:21Z,1723180.15,NULL,Prüfung,mtihani,s,mkulima,mtizamo,ufumbuzi,NA,sdfdsf,NA,1,NA,NA,NA,NA,NA,NA,NA,NA,NA,NA,NA,NA,NA,NA,NA,NA,NA,NA,NA
46b36,shallow,flow.Sequence,3_0_1_0_5_1,NA,NA,completion,9981.101,1713169.5,1713166.693,1713182.827,1723163.928,1723171.1,2023-04-16T16:30:21Z,1723180.15,NULL,Prüfung,mtihani,s,mkulima,mtizamo,ufumbuzi,NA,sdfdsf,NA,1,NA,NA,NA,NA,NA,NA,NA,NA,NA,NA,NA,NA,NA,NA,NA,NA,NA,NA,NA
46b36,task,flow.Sequence,3_0_1_0_5,NA,NA,completion,9981.101,1713169.2,1713166.693,1713182.827,1723163.928,1723171.4000001,2023-04-16T16:30:21Z,1723180.15,NULL,Prüfung,mtihani,s,mkulima,mtizamo,ufumbuzi,NA,sdfdsf,NA,1,NA,NA,NA,NA,NA,NA,NA,NA,NA,NA,NA,NA,NA,NA,NA,NA,NA,NA,NA
46b36,deep,flow.Sequence,3_0_1_0_6_0,NA,NA,skipped,NA,1723171.5,NA,NA,1723163.928,1723171.6,2023-04-16T16:30:21Z,1723180.15,NULL,Aufstand,ugomaji,s,mazidio,msingi,kujieleza,NA,sdfdsf,NA,1,NA,NA,NA,NA,NA,NA,NA,NA,NA,NA,NA,NA,NA,NA,NA,NA,NA,NA,NA
46b36,Shallow Question,html.Page,3_0_1_0_6_1_0,NA,NA,form submission,4209.6500000716,1723171.9000001,1723163.928,1723180.15,1727389.8000001,1727390,2023-04-16T16:30:25Z,1727404.061,NULL,Aufstand,ugomaji,s,mazidio,msingi,kujieleza,ugomaji,NA,NA,1,NA,NA,NA,NA,NA,NA,NA,NA,NA,NA,NA,NA,NA,NA,NA,NA,NA,NA,NA
46b36,"""Richtig""-Screen",canvas.Screen,3_0_1_0_6_1_1,NA,NA,timeout,4991.3119999999,1727391.7,1727378.683,1727404.061,1732379.251,1732380.3000001,2023-04-16T16:30:30Z,1732395.373,NULL,Aufstand,ugomaji,s,mazidio,msingi,kujieleza,NA,sdfdsf,1,1,NA,NA,NA,NA,NA,NA,NA,NA,NA,NA,NA,NA,NA,NA,NA,NA,NA,NA,NA
46b36,"""Falsch""-Screen",canvas.Screen,3_0_1_0_6_1_2,NA,NA,skipped,NA,1732385.6,NA,NA,1732379.251,1732386,2023-04-16T16:30:30Z,1732395.373,NULL,Aufstand,ugomaji,s,mazidio,msingi,kujieleza,NA,sdfdsf,NA,1,NA,NA,NA,NA,NA,NA,NA,NA,NA,NA,NA,NA,NA,NA,NA,NA,NA,NA,NA
46b36,shallow,flow.Sequence,3_0_1_0_6_1,NA,NA,completion,9199.101,1723171.8000001,1723163.928,1723180.15,1732379.251,1732386.3000001,2023-04-16T16:30:30Z,1732395.373,NULL,Aufstand,ugomaji,s,mazidio,msingi,kujieleza,NA,sdfdsf,NA,1,NA,NA,NA,NA,NA,NA,NA,NA,NA,NA,NA,NA,NA,NA,NA,NA,NA,NA,NA
46b36,task,flow.Sequence,3_0_1_0_6,NA,NA,completion,9199.101,1723171.4000001,1723163.928,1723180.15,1732379.251,1732386.7,2023-04-16T16:30:30Z,1732395.373,NULL,Aufstand,ugomaji,s,mazidio,msingi,kujieleza,NA,sdfdsf,NA,1,NA,NA,NA,NA,NA,NA,NA,NA,NA,NA,NA,NA,NA,NA,NA,NA,NA,NA,NA
46b36,Deep Question,html.Page,3_0_1_0_7_0_0,NA,NA,form submission,4110.5270000955,1732386.9000001,1732379.251,1732395.373,1736505.9000001,1736506.1,2023-04-16T16:30:35Z,1736519.174,NULL,Begegnung,kukutana,d,NA,NA,NA,kukuewa,NA,NA,1,NA,NA,NA,NA,NA,NA,NA,NA,NA,NA,NA,NA,NA,NA,NA,NA,NA,NA,NA
46b36,"""Richtig""-Screen",canvas.Screen,3_0_1_0_7_0_1,NA,NA,skipped,NA,1736507.9000001,NA,NA,1736505.9000001,1736508.1,2023-04-16T16:30:35Z,1736519.174,NULL,Begegnung,kukutana,d,NA,NA,NA,NA,sdfdsf,NA,1,NA,NA,NA,NA,NA,NA,NA,NA,NA,NA,NA,NA,NA,NA,NA,NA,NA,NA,NA
46b36,"""Falsch""-Screen",canvas.Screen,3_0_1_0_7_0_2,NA,NA,timeout,4995.6179999998,1736508.6,1736502.349,1736519.174,1741498.69,1741499.8000001,2023-04-16T16:30:40Z,1741514.792,NULL,Begegnung,kukutana,d,NA,NA,NA,NA,sdfdsf,0,1,NA,NA,NA,NA,NA,NA,NA,NA,NA,NA,NA,NA,NA,NA,NA,NA,NA,NA,NA
46b36,deep,flow.Sequence,3_0_1_0_7_0,NA,NA,completion,9103.317,1732386.9000001,1732379.251,1732395.373,1741498.69,1741500.2,2023-04-16T16:30:40Z,1741514.792,NULL,Begegnung,kukutana,d,NA,NA,NA,NA,sdfdsf,NA,1,NA,NA,NA,NA,NA,NA,NA,NA,NA,NA,NA,NA,NA,NA,NA,NA,NA,NA,NA
46b36,shallow,flow.Sequence,3_0_1_0_7_1,NA,NA,skipped,NA,1741500.4000001,NA,NA,1741498.69,1741500.6,2023-04-16T16:30:40Z,1741514.792,NULL,Begegnung,kukutana,d,NA,NA,NA,NA,sdfdsf,NA,1,NA,NA,NA,NA,NA,NA,NA,NA,NA,NA,NA,NA,NA,NA,NA,NA,NA,NA,NA
46b36,task,flow.Sequence,3_0_1_0_7,NA,NA,completion,9103.317,1732386.8000001,1732379.251,1732395.373,1741498.69,1741500.9000001,2023-04-16T16:30:40Z,1741514.792,NULL,Begegnung,kukutana,d,NA,NA,NA,NA,sdfdsf,NA,1,NA,NA,NA,NA,NA,NA,NA,NA,NA,NA,NA,NA,NA,NA,NA,NA,NA,NA,NA
46b36,block,flow.Loop,3_0_1_0,NA,NA,completion,80782.02,1660699,1660699.269,1660716.67,1741498.69,1741501.1,2023-04-16T16:30:40Z,1741514.792,NULL,NA,NA,NA,NA,NA,NA,NA,sdfdsf,NA,1,NA,NA,NA,NA,NA,NA,NA,NA,NA,NA,NA,NA,NA,NA,NA,NA,NA,NA,NA
46b36,weiter,canvas.Screen,3_0_1_1,sdf,keypress(Space),response,791.30800002394,1741501.3000001,1741498.69,1741514.792,1742306.1,1742307.3000001,2023-04-16T16:30:40Z,1742419.918,NULL,NA,NA,NA,NA,NA,NA,NA,sdfdsf,NA,1,NA,NA,NA,NA,NA,NA,NA,NA,NA,NA,NA,NA,NA,NA,NA,NA,NA,NA,NA
46b36,check continue,flow.Sequence,3_0_1,NA,NA,completion,81589.430000024,1660698.8000001,1660699.269,1660716.67,1742306.1,1742307.8000001,2023-04-16T16:30:40Z,1742419.918,NULL,NA,NA,NA,NA,NA,NA,NA,sdfdsf,NA,1,NA,NA,NA,NA,NA,NA,NA,NA,NA,NA,NA,NA,NA,NA,NA,NA,NA,NA,NA
46b36,deep,flow.Sequence,3_0_2_0_0_0,NA,NA,skipped,NA,1742399.8000001,NA,NA,1742306.1,1742400.2,2023-04-16T16:30:40Z,1742419.918,NULL,Prüfung,mtihani,s,mkulima,mtizamo,ufumbuzi,NA,sdf,NA,2,NA,NA,NA,NA,NA,NA,NA,NA,NA,NA,NA,NA,NA,NA,NA,NA,NA,NA,NA
46b36,Shallow Question,html.Page,3_0_2_0_0_1_0,NA,NA,form submission,4416.5819999999,1742400.4000001,1742397.7,1742419.918,1746836.5,1746836.8000001,2023-04-16T16:30:45Z,1746850.038,NULL,Prüfung,mtihani,s,mkulima,mtizamo,ufumbuzi,mtihani,NA,NA,2,NA,NA,NA,NA,NA,NA,NA,NA,NA,NA,NA,NA,NA,NA,NA,NA,NA,NA,NA
46b36,"""Richtig""-Screen",canvas.Screen,3_0_2_0_0_1_1,NA,NA,timeout,4995.4750000001,1746838.4000001,1746825.363,1746850.038,1751829.512,1751830.6,2023-04-16T16:30:50Z,1751845.513,NULL,Prüfung,mtihani,s,mkulima,mtizamo,ufumbuzi,NA,sdf,1,2,NA,NA,NA,NA,NA,NA,NA,NA,NA,NA,NA,NA,NA,NA,NA,NA,NA,NA,NA
46b36,"""Falsch""-Screen",canvas.Screen,3_0_2_0_0_1_2,NA,NA,skipped,NA,1751835.8000001,NA,NA,1751829.512,1751836.1,2023-04-16T16:30:50Z,1751845.513,NULL,Prüfung,mtihani,s,mkulima,mtizamo,ufumbuzi,NA,sdf,NA,2,NA,NA,NA,NA,NA,NA,NA,NA,NA,NA,NA,NA,NA,NA,NA,NA,NA,NA,NA
46b36,shallow,flow.Sequence,3_0_2_0_0_1,NA,NA,completion,9409.594,1742400.3000001,1742397.7,1742419.918,1751829.512,1751836.5,2023-04-16T16:30:50Z,1751845.513,NULL,Prüfung,mtihani,s,mkulima,mtizamo,ufumbuzi,NA,sdf,NA,2,NA,NA,NA,NA,NA,NA,NA,NA,NA,NA,NA,NA,NA,NA,NA,NA,NA,NA,NA
46b36,task,flow.Sequence,3_0_2_0_0,NA,NA,completion,9409.594,1742399.7,1742397.7,1742419.918,1751829.512,1751836.8000001,2023-04-16T16:30:50Z,1751845.513,NULL,Prüfung,mtihani,s,mkulima,mtizamo,ufumbuzi,NA,sdf,NA,2,NA,NA,NA,NA,NA,NA,NA,NA,NA,NA,NA,NA,NA,NA,NA,NA,NA,NA,NA
46b36,Deep Question,html.Page,3_0_2_0_1_0_0,NA,NA,form submission,9181.2870000715,1751836.9000001,1751829.512,1751845.513,1761026.8000001,1761027.1,2023-04-16T16:30:59Z,1761043.062,NULL,Begegnung,kukutana,d,NA,NA,NA,kukutewa,NA,NA,2,NA,NA,NA,NA,NA,NA,NA,NA,NA,NA,NA,NA,NA,NA,NA,NA,NA,NA,NA
46b36,"""Richtig""-Screen",canvas.Screen,3_0_2_0_1_0_1,NA,NA,skipped,NA,1761030.1,NA,NA,1761026.8000001,1761030.3000001,2023-04-16T16:30:59Z,1761043.062,NULL,Begegnung,kukutana,d,NA,NA,NA,NA,sdf,NA,2,NA,NA,NA,NA,NA,NA,NA,NA,NA,NA,NA,NA,NA,NA,NA,NA,NA,NA,NA
46b36,"""Falsch""-Screen",canvas.Screen,3_0_2_0_1_0_2,NA,NA,timeout,5008.2280000001,1761031,1761017.716,1761043.062,1766034.892,1766036.1,2023-04-16T16:31:04Z,1766051.29,NULL,Begegnung,kukutana,d,NA,NA,NA,NA,sdf,0,2,NA,NA,NA,NA,NA,NA,NA,NA,NA,NA,NA,NA,NA,NA,NA,NA,NA,NA,NA
46b36,deep,flow.Sequence,3_0_2_0_1_0,NA,NA,completion,14189.379,1751836.9000001,1751829.512,1751845.513,1766034.892,1766036.6,2023-04-16T16:31:04Z,1766051.29,NULL,Begegnung,kukutana,d,NA,NA,NA,NA,sdf,NA,2,NA,NA,NA,NA,NA,NA,NA,NA,NA,NA,NA,NA,NA,NA,NA,NA,NA,NA,NA
46b36,shallow,flow.Sequence,3_0_2_0_1_1,NA,NA,skipped,NA,1766036.7,NA,NA,1766034.892,1766036.9000001,2023-04-16T16:31:04Z,1766051.29,NULL,Begegnung,kukutana,d,NA,NA,NA,NA,sdf,NA,2,NA,NA,NA,NA,NA,NA,NA,NA,NA,NA,NA,NA,NA,NA,NA,NA,NA,NA,NA
46b36,task,flow.Sequence,3_0_2_0_1,NA,NA,completion,14189.379,1751836.9000001,1751829.512,1751845.513,1766034.892,1766037.2,2023-04-16T16:31:04Z,1766051.29,NULL,Begegnung,kukutana,d,NA,NA,NA,NA,sdf,NA,2,NA,NA,NA,NA,NA,NA,NA,NA,NA,NA,NA,NA,NA,NA,NA,NA,NA,NA,NA
46b36,Deep Question,html.Page,3_0_2_0_2_0_0,NA,NA,form submission,4781.0100000715,1766037.4000001,1766034.892,1766051.29,1770832.3000001,1770832.6,2023-04-16T16:31:09Z,1770845.731,NULL,Genehmigung,idhini,d,NA,NA,NA,idhini,NA,NA,2,NA,NA,NA,NA,NA,NA,NA,NA,NA,NA,NA,NA,NA,NA,NA,NA,NA,NA,NA
46b36,"""Richtig""-Screen",canvas.Screen,3_0_2_0_2_0_1,NA,NA,timeout,4999.5860000001,1770835.6,1770829.175,1770845.731,1775829.137,1775830.2,2023-04-16T16:31:14Z,1775845.317,NULL,Genehmigung,idhini,d,NA,NA,NA,NA,sdf,1,2,NA,NA,NA,NA,NA,NA,NA,NA,NA,NA,NA,NA,NA,NA,NA,NA,NA,NA,NA
46b36,"""Falsch""-Screen",canvas.Screen,3_0_2_0_2_0_2,NA,NA,skipped,NA,1775835.5,NA,NA,1775829.137,1775835.8000001,2023-04-16T16:31:14Z,1775845.317,NULL,Genehmigung,idhini,d,NA,NA,NA,NA,sdf,NA,2,NA,NA,NA,NA,NA,NA,NA,NA,NA,NA,NA,NA,NA,NA,NA,NA,NA,NA,NA
46b36,deep,flow.Sequence,3_0_2_0_2_0,NA,NA,completion,9777.8470000001,1766037.3000001,1766034.892,1766051.29,1775829.137,1775836.2,2023-04-16T16:31:14Z,1775845.317,NULL,Genehmigung,idhini,d,NA,NA,NA,NA,sdf,NA,2,NA,NA,NA,NA,NA,NA,NA,NA,NA,NA,NA,NA,NA,NA,NA,NA,NA,NA,NA
46b36,shallow,flow.Sequence,3_0_2_0_2_1,NA,NA,skipped,NA,1775836.4000001,NA,NA,1775829.137,1775836.4000001,2023-04-16T16:31:14Z,1775845.317,NULL,Genehmigung,idhini,d,NA,NA,NA,NA,sdf,NA,2,NA,NA,NA,NA,NA,NA,NA,NA,NA,NA,NA,NA,NA,NA,NA,NA,NA,NA,NA
46b36,task,flow.Sequence,3_0_2_0_2,NA,NA,completion,9777.8470000001,1766037.3000001,1766034.892,1766051.29,1775829.137,1775836.7,2023-04-16T16:31:14Z,1775845.317,NULL,Genehmigung,idhini,d,NA,NA,NA,NA,sdf,NA,2,NA,NA,NA,NA,NA,NA,NA,NA,NA,NA,NA,NA,NA,NA,NA,NA,NA,NA,NA
46b36,Deep Question,html.Page,3_0_2_0_3_0_0,NA,NA,form submission,9330.0830000953,1775836.9000001,1775829.137,1775845.317,1785175.4000001,1785175.6,2023-04-16T16:31:23Z,1785188.818,NULL,Verzögerung,kuchelewa,d,NA,NA,NA,kuchlewana,NA,NA,2,NA,NA,NA,NA,NA,NA,NA,NA,NA,NA,NA,NA,NA,NA,NA,NA,NA,NA,NA
46b36,"""Richtig""-Screen",canvas.Screen,3_0_2_0_3_0_1,NA,NA,skipped,NA,1785177.6,NA,NA,1785175.4000001,1785177.8000001,2023-04-16T16:31:23Z,1785188.818,NULL,Verzögerung,kuchelewa,d,NA,NA,NA,NA,sdf,NA,2,NA,NA,NA,NA,NA,NA,NA,NA,NA,NA,NA,NA,NA,NA,NA,NA,NA,NA,NA
46b36,"""Falsch""-Screen",canvas.Screen,3_0_2_0_3_0_2,NA,NA,timeout,5000.121,1785178.3000001,1785164.064,1785188.818,1790172.403,1790173.6,2023-04-16T16:31:28Z,1790188.939,NULL,Verzögerung,kuchelewa,d,NA,NA,NA,NA,sdf,0,2,NA,NA,NA,NA,NA,NA,NA,NA,NA,NA,NA,NA,NA,NA,NA,NA,NA,NA,NA
46b36,deep,flow.Sequence,3_0_2_0_3_0,NA,NA,completion,14327.086,1775836.9000001,1775829.137,1775845.317,1790172.403,1790174,2023-04-16T16:31:28Z,1790188.939,NULL,Verzögerung,kuchelewa,d,NA,NA,NA,NA,sdf,NA,2,NA,NA,NA,NA,NA,NA,NA,NA,NA,NA,NA,NA,NA,NA,NA,NA,NA,NA,NA
46b36,shallow,flow.Sequence,3_0_2_0_3_1,NA,NA,skipped,NA,1790174.1,NA,NA,1790172.403,1790174.3000001,2023-04-16T16:31:28Z,1790188.939,NULL,Verzögerung,kuchelewa,d,NA,NA,NA,NA,sdf,NA,2,NA,NA,NA,NA,NA,NA,NA,NA,NA,NA,NA,NA,NA,NA,NA,NA,NA,NA,NA
46b36,task,flow.Sequence,3_0_2_0_3,NA,NA,completion,14327.086,1775836.8000001,1775829.137,1775845.317,1790172.403,1790174.5,2023-04-16T16:31:28Z,1790188.939,NULL,Verzögerung,kuchelewa,d,NA,NA,NA,NA,sdf,NA,2,NA,NA,NA,NA,NA,NA,NA,NA,NA,NA,NA,NA,NA,NA,NA,NA,NA,NA,NA
46b36,Deep Question,html.Page,3_0_2_0_4_0_0,NA,NA,form submission,14142.461000095,1790174.8000001,1790172.403,1790188.939,1804331.4000001,1804331.7,2023-04-16T16:31:42Z,1804347.748,NULL,Kultur,utamaduni,d,NA,NA,NA,ugutambi,NA,NA,2,NA,NA,NA,NA,NA,NA,NA,NA,NA,NA,NA,NA,NA,NA,NA,NA,NA,NA,NA
46b36,"""Richtig""-Screen",canvas.Screen,3_0_2_0_4_0_1,NA,NA,skipped,NA,1804333.9000001,NA,NA,1804331.4000001,1804334.1,2023-04-16T16:31:42Z,1804347.748,NULL,Kultur,utamaduni,d,NA,NA,NA,NA,sdf,NA,2,NA,NA,NA,NA,NA,NA,NA,NA,NA,NA,NA,NA,NA,NA,NA,NA,NA,NA,NA
46b36,"""Falsch""-Screen",canvas.Screen,3_0_2_0_4_0_2,NA,NA,timeout,4996.1330000001,1804334.7,1804314.96,1804347.748,1809327.11,1809328.3000001,2023-04-16T16:31:47Z,1809343.881,NULL,Kultur,utamaduni,d,NA,NA,NA,NA,sdf,0,2,NA,NA,NA,NA,NA,NA,NA,NA,NA,NA,NA,NA,NA,NA,NA,NA,NA,NA,NA
46b36,deep,flow.Sequence,3_0_2_0_4_0,NA,NA,completion,19138.171,1790174.8000001,1790172.403,1790188.939,1809327.11,1809328.7,2023-04-16T16:31:47Z,1809343.881,NULL,Kultur,utamaduni,d,NA,NA,NA,NA,sdf,NA,2,NA,NA,NA,NA,NA,NA,NA,NA,NA,NA,NA,NA,NA,NA,NA,NA,NA,NA,NA
46b36,shallow,flow.Sequence,3_0_2_0_4_1,NA,NA,skipped,NA,1809328.9000001,NA,NA,1809327.11,1809329.1,2023-04-16T16:31:47Z,1809343.881,NULL,Kultur,utamaduni,d,NA,NA,NA,NA,sdf,NA,2,NA,NA,NA,NA,NA,NA,NA,NA,NA,NA,NA,NA,NA,NA,NA,NA,NA,NA,NA
46b36,task,flow.Sequence,3_0_2_0_4,NA,NA,completion,19138.171,1790174.6,1790172.403,1790188.939,1809327.11,1809329.3000001,2023-04-16T16:31:47Z,1809343.881,NULL,Kultur,utamaduni,d,NA,NA,NA,NA,sdf,NA,2,NA,NA,NA,NA,NA,NA,NA,NA,NA,NA,NA,NA,NA,NA,NA,NA,NA,NA,NA
46b36,deep,flow.Sequence,3_0_2_0_5_0,NA,NA,skipped,NA,1809329.5,NA,NA,1809327.11,1809329.6,2023-04-16T16:31:47Z,1809343.881,NULL,Integrität,uadilifu,s,muungano,mtiririko,upunguaji,NA,sdf,NA,2,NA,NA,NA,NA,NA,NA,NA,NA,NA,NA,NA,NA,NA,NA,NA,NA,NA,NA,NA
46b36,Shallow Question,html.Page,3_0_2_0_5_1_0,NA,NA,form submission,4306.9190000715,1809329.8000001,1809327.11,1809343.881,1813650.8000001,1813650.9000001,2023-04-16T16:31:52Z,1813677.505,NULL,Integrität,uadilifu,s,muungano,mtiririko,upunguaji,mtiririko,NA,NA,2,NA,NA,NA,NA,NA,NA,NA,NA,NA,NA,NA,NA,NA,NA,NA,NA,NA,NA,NA
46b36,"""Richtig""-Screen",canvas.Screen,3_0_2_0_5_1_1,NA,NA,skipped,NA,1813652.8000001,NA,NA,1813650.8000001,1813652.9000001,2023-04-16T16:31:52Z,1813677.505,NULL,Integrität,uadilifu,s,muungano,mtiririko,upunguaji,NA,sdf,NA,2,NA,NA,NA,NA,NA,NA,NA,NA,NA,NA,NA,NA,NA,NA,NA,NA,NA,NA,NA
46b36,"""Falsch""-Screen",canvas.Screen,3_0_2_0_5_1_2,NA,NA,timeout,4997.665,1813653.5,1813637.702,1813677.505,1818658.819,1818660,2023-04-16T16:31:57Z,1818675.17,NULL,Integrität,uadilifu,s,muungano,mtiririko,upunguaji,NA,sdf,0,2,NA,NA,NA,NA,NA,NA,NA,NA,NA,NA,NA,NA,NA,NA,NA,NA,NA,NA,NA
46b36,shallow,flow.Sequence,3_0_2_0_5_1,NA,NA,completion,9314.9379999998,1809329.8000001,1809327.11,1809343.881,1818658.819,1818660.5,2023-04-16T16:31:57Z,1818675.17,NULL,Integrität,uadilifu,s,muungano,mtiririko,upunguaji,NA,sdf,NA,2,NA,NA,NA,NA,NA,NA,NA,NA,NA,NA,NA,NA,NA,NA,NA,NA,NA,NA,NA
46b36,task,flow.Sequence,3_0_2_0_5,NA,NA,completion,9314.9379999998,1809329.4000001,1809327.11,1809343.881,1818658.819,1818660.8000001,2023-04-16T16:31:57Z,1818675.17,NULL,Integrität,uadilifu,s,muungano,mtiririko,upunguaji,NA,sdf,NA,2,NA,NA,NA,NA,NA,NA,NA,NA,NA,NA,NA,NA,NA,NA,NA,NA,NA,NA,NA
46b36,deep,flow.Sequence,3_0_2_0_6_0,NA,NA,skipped,NA,1818661,NA,NA,1818658.819,1818661.2,2023-04-16T16:31:57Z,1818675.17,NULL,Fleisch,mshakiki,s,kizunguzungu,mshikamano,angusho,NA,sdf,NA,2,NA,NA,NA,NA,NA,NA,NA,NA,NA,NA,NA,NA,NA,NA,NA,NA,NA,NA,NA
46b36,Shallow Question,html.Page,3_0_2_0_6_1_0,NA,NA,form submission,4235.8300000001,1818661.3000001,1818658.819,1818675.17,1822911,1822911.3000001,2023-04-16T16:32:01Z,1822914.626,NULL,Fleisch,mshakiki,s,kizunguzungu,mshikamano,angusho,mshakiki,NA,NA,2,NA,NA,NA,NA,NA,NA,NA,NA,NA,NA,NA,NA,NA,NA,NA,NA,NA,NA,NA
46b36,"""Richtig""-Screen",canvas.Screen,3_0_2_0_6_1_1,NA,NA,timeout,4991.4440000001,1822913.1,1822898.174,1822914.626,1827889.903,1827891,2023-04-16T16:32:06Z,1827906.07,NULL,Fleisch,mshakiki,s,kizunguzungu,mshikamano,angusho,NA,sdf,1,2,NA,NA,NA,NA,NA,NA,NA,NA,NA,NA,NA,NA,NA,NA,NA,NA,NA,NA,NA
46b36,"""Falsch""-Screen",canvas.Screen,3_0_2_0_6_1_2,NA,NA,skipped,NA,1827896.6,NA,NA,1827889.903,1827896.9000001,2023-04-16T16:32:06Z,1827906.07,NULL,Fleisch,mshakiki,s,kizunguzungu,mshikamano,angusho,NA,sdf,NA,2,NA,NA,NA,NA,NA,NA,NA,NA,NA,NA,NA,NA,NA,NA,NA,NA,NA,NA,NA
46b36,shallow,flow.Sequence,3_0_2_0_6_1,NA,NA,completion,9214.733,1818661.3000001,1818658.819,1818675.17,1827889.903,1827897.4000001,2023-04-16T16:32:06Z,1827906.07,NULL,Fleisch,mshakiki,s,kizunguzungu,mshikamano,angusho,NA,sdf,NA,2,NA,NA,NA,NA,NA,NA,NA,NA,NA,NA,NA,NA,NA,NA,NA,NA,NA,NA,NA
46b36,task,flow.Sequence,3_0_2_0_6,NA,NA,completion,9214.733,1818660.9000001,1818658.819,1818675.17,1827889.903,1827897.7,2023-04-16T16:32:06Z,1827906.07,NULL,Fleisch,mshakiki,s,kizunguzungu,mshikamano,angusho,NA,sdf,NA,2,NA,NA,NA,NA,NA,NA,NA,NA,NA,NA,NA,NA,NA,NA,NA,NA,NA,NA,NA
46b36,deep,flow.Sequence,3_0_2_0_7_0,NA,NA,skipped,NA,1827897.9000001,NA,NA,1827889.903,1827898,2023-04-16T16:32:06Z,1827906.07,NULL,Aufstand,ugomaji,s,mazidio,msingi,kujieleza,NA,sdf,NA,2,NA,NA,NA,NA,NA,NA,NA,NA,NA,NA,NA,NA,NA,NA,NA,NA,NA,NA,NA
46b36,Shallow Question,html.Page,3_0_2_0_7_1_0,NA,NA,form submission,3372.1300000476,1827898.2,1827889.903,1827906.07,1831278.2,1831278.4000001,2023-04-16T16:32:09Z,1831284.234,NULL,Aufstand,ugomaji,s,mazidio,msingi,kujieleza,ugomaji,NA,NA,2,NA,NA,NA,NA,NA,NA,NA,NA,NA,NA,NA,NA,NA,NA,NA,NA,NA,NA,NA
46b36,"""Richtig""-Screen",canvas.Screen,3_0_2_0_7_1_1,NA,NA,timeout,4991.166,1831280.2,1831263.402,1831284.234,1836259.355,1836260.4000001,2023-04-16T16:32:14Z,1836275.4,NULL,Aufstand,ugomaji,s,mazidio,msingi,kujieleza,NA,sdf,1,2,NA,NA,NA,NA,NA,NA,NA,NA,NA,NA,NA,NA,NA,NA,NA,NA,NA,NA,NA
46b36,"""Falsch""-Screen",canvas.Screen,3_0_2_0_7_1_2,NA,NA,skipped,NA,1836265.8000001,NA,NA,1836259.355,1836266.2,2023-04-16T16:32:14Z,1836275.4,NULL,Aufstand,ugomaji,s,mazidio,msingi,kujieleza,NA,sdf,NA,2,NA,NA,NA,NA,NA,NA,NA,NA,NA,NA,NA,NA,NA,NA,NA,NA,NA,NA,NA
46b36,shallow,flow.Sequence,3_0_2_0_7_1,NA,NA,completion,8353.2849999999,1827898.2,1827889.903,1827906.07,1836259.355,1836266.6,2023-04-16T16:32:14Z,1836275.4,NULL,Aufstand,ugomaji,s,mazidio,msingi,kujieleza,NA,sdf,NA,2,NA,NA,NA,NA,NA,NA,NA,NA,NA,NA,NA,NA,NA,NA,NA,NA,NA,NA,NA
46b36,task,flow.Sequence,3_0_2_0_7,NA,NA,completion,8353.2849999999,1827897.8000001,1827889.903,1827906.07,1836259.355,1836266.8000001,2023-04-16T16:32:14Z,1836275.4,NULL,Aufstand,ugomaji,s,mazidio,msingi,kujieleza,NA,sdf,NA,2,NA,NA,NA,NA,NA,NA,NA,NA,NA,NA,NA,NA,NA,NA,NA,NA,NA,NA,NA
46b36,block,flow.Loop,3_0_2_0,NA,NA,completion,93839.437,1742399.7,1742397.7,1742419.918,1836259.355,1836267.1,2023-04-16T16:32:14Z,1836275.4,NULL,NA,NA,NA,NA,NA,NA,NA,sdf,NA,2,NA,NA,NA,NA,NA,NA,NA,NA,NA,NA,NA,NA,NA,NA,NA,NA,NA,NA,NA
46b36,weiter,canvas.Screen,3_0_2_1,sdf,keypress(Space),response,986.80000004778,1836267.2,1836259.355,1836275.4,1837262.2,1837263.3000001,2023-04-16T16:32:15Z,1837392.003,NULL,NA,NA,NA,NA,NA,NA,NA,sdf,NA,2,NA,NA,NA,NA,NA,NA,NA,NA,NA,NA,NA,NA,NA,NA,NA,NA,NA,NA,NA
46b36,check continue,flow.Sequence,3_0_2,NA,NA,completion,94842.282000048,1742399.6,1742397.7,1742419.918,1837262.2,1837263.7,2023-04-16T16:32:15Z,1837392.003,NULL,NA,NA,NA,NA,NA,NA,NA,sdf,NA,2,NA,NA,NA,NA,NA,NA,NA,NA,NA,NA,NA,NA,NA,NA,NA,NA,NA,NA,NA
46b36,Deep Question,html.Page,3_0_3_0_0_0_0,NA,NA,form submission,10508.997,1837374.1,1837374.438,1837392.003,1847901,1847901.3000001,2023-04-16T16:32:26Z,1847928.948,NULL,Verzögerung,kuchelewa,d,NA,NA,NA,kuchulewa,NA,NA,3,NA,NA,NA,NA,NA,NA,NA,NA,NA,NA,NA,NA,NA,NA,NA,NA,NA,NA,NA
46b36,"""Richtig""-Screen",canvas.Screen,3_0_3_0_0_0_1,NA,NA,skipped,NA,1847904.1,NA,NA,1847901,1847904.4000001,2023-04-16T16:32:26Z,1847928.948,NULL,Verzögerung,kuchelewa,d,NA,NA,NA,NA,qt,NA,3,NA,NA,NA,NA,NA,NA,NA,NA,NA,NA,NA,NA,NA,NA,NA,NA,NA,NA,NA
46b36,"""Falsch""-Screen",canvas.Screen,3_0_3_0_0_0_2,NA,NA,timeout,5002.004,1847905.3000001,1847893.899,1847928.948,1852914.47,1852915.5,2023-04-16T16:32:31Z,1852930.952,NULL,Verzögerung,kuchelewa,d,NA,NA,NA,NA,qt,0,3,NA,NA,NA,NA,NA,NA,NA,NA,NA,NA,NA,NA,NA,NA,NA,NA,NA,NA,NA
46b36,deep,flow.Sequence,3_0_3_0_0_0,NA,NA,completion,15522.467,1837374.1,1837374.438,1837392.003,1852914.47,1852915.9000001,2023-04-16T16:32:31Z,1852930.952,NULL,Verzögerung,kuchelewa,d,NA,NA,NA,NA,qt,NA,3,NA,NA,NA,NA,NA,NA,NA,NA,NA,NA,NA,NA,NA,NA,NA,NA,NA,NA,NA
46b36,shallow,flow.Sequence,3_0_3_0_0_1,NA,NA,skipped,NA,1852916,NA,NA,1852914.47,1852916.2,2023-04-16T16:32:31Z,1852930.952,NULL,Verzögerung,kuchelewa,d,NA,NA,NA,NA,qt,NA,3,NA,NA,NA,NA,NA,NA,NA,NA,NA,NA,NA,NA,NA,NA,NA,NA,NA,NA,NA
46b36,task,flow.Sequence,3_0_3_0_0,NA,NA,completion,15522.467,1837374,1837374.438,1837392.003,1852914.47,1852916.4000001,2023-04-16T16:32:31Z,1852930.952,NULL,Verzögerung,kuchelewa,d,NA,NA,NA,NA,qt,NA,3,NA,NA,NA,NA,NA,NA,NA,NA,NA,NA,NA,NA,NA,NA,NA,NA,NA,NA,NA
46b36,Deep Question,html.Page,3_0_3_0_1_0_0,NA,NA,form submission,9656.2480000476,1852916.6,1852914.47,1852930.952,1862587.2,1862587.4000001,2023-04-16T16:32:41Z,1862595.453,NULL,Genehmigung,idhini,d,NA,NA,NA,idhini,NA,NA,3,NA,NA,NA,NA,NA,NA,NA,NA,NA,NA,NA,NA,NA,NA,NA,NA,NA,NA,NA
46b36,"""Richtig""-Screen",canvas.Screen,3_0_3_0_1_0_1,NA,NA,timeout,5006.5420000001,1862590,1862579.062,1862595.453,1867585.739,1867586.8000001,2023-04-16T16:32:46Z,1867601.995,NULL,Genehmigung,idhini,d,NA,NA,NA,NA,qt,1,3,NA,NA,NA,NA,NA,NA,NA,NA,NA,NA,NA,NA,NA,NA,NA,NA,NA,NA,NA
46b36,"""Falsch""-Screen",canvas.Screen,3_0_3_0_1_0_2,NA,NA,skipped,NA,1867592.2,NA,NA,1867585.739,1867592.5,2023-04-16T16:32:46Z,1867601.995,NULL,Genehmigung,idhini,d,NA,NA,NA,NA,qt,NA,3,NA,NA,NA,NA,NA,NA,NA,NA,NA,NA,NA,NA,NA,NA,NA,NA,NA,NA,NA
46b36,deep,flow.Sequence,3_0_3_0_1_0,NA,NA,completion,14654.787,1852916.5,1852914.47,1852930.952,1867585.739,1867593,2023-04-16T16:32:46Z,1867601.995,NULL,Genehmigung,idhini,d,NA,NA,NA,NA,qt,NA,3,NA,NA,NA,NA,NA,NA,NA,NA,NA,NA,NA,NA,NA,NA,NA,NA,NA,NA,NA
46b36,shallow,flow.Sequence,3_0_3_0_1_1,NA,NA,skipped,NA,1867593.1,NA,NA,1867585.739,1867593.2,2023-04-16T16:32:46Z,1867601.995,NULL,Genehmigung,idhini,d,NA,NA,NA,NA,qt,NA,3,NA,NA,NA,NA,NA,NA,NA,NA,NA,NA,NA,NA,NA,NA,NA,NA,NA,NA,NA
46b36,task,flow.Sequence,3_0_3_0_1,NA,NA,completion,14654.787,1852916.5,1852914.47,1852930.952,1867585.739,1867593.5,2023-04-16T16:32:46Z,1867601.995,NULL,Genehmigung,idhini,d,NA,NA,NA,NA,qt,NA,3,NA,NA,NA,NA,NA,NA,NA,NA,NA,NA,NA,NA,NA,NA,NA,NA,NA,NA,NA
46b36,deep,flow.Sequence,3_0_3_0_2_0,NA,NA,skipped,NA,1867593.6,NA,NA,1867585.739,1867593.8000001,2023-04-16T16:32:46Z,1867601.995,NULL,Prüfung,mtihani,s,mkulima,mtizamo,ufumbuzi,NA,qt,NA,3,NA,NA,NA,NA,NA,NA,NA,NA,NA,NA,NA,NA,NA,NA,NA,NA,NA,NA,NA
46b36,Shallow Question,html.Page,3_0_3_0_2_1_0,NA,NA,form submission,4177.7050000476,1867593.9000001,1867585.739,1867601.995,1871779.7,1871779.8000001,2023-04-16T16:32:50Z,1871791.984,NULL,Prüfung,mtihani,s,mkulima,mtizamo,ufumbuzi,mtihani,NA,NA,3,NA,NA,NA,NA,NA,NA,NA,NA,NA,NA,NA,NA,NA,NA,NA,NA,NA,NA,NA
46b36,"""Richtig""-Screen",canvas.Screen,3_0_3_0_2_1_1,NA,NA,timeout,4991.4010000001,1871781.6,1871770.949,1871791.984,1876767.193,1876768.3000001,2023-04-16T16:32:55Z,1876783.385,NULL,Prüfung,mtihani,s,mkulima,mtizamo,ufumbuzi,NA,qt,1,3,NA,NA,NA,NA,NA,NA,NA,NA,NA,NA,NA,NA,NA,NA,NA,NA,NA,NA,NA
46b36,"""Falsch""-Screen",canvas.Screen,3_0_3_0_2_1_2,NA,NA,skipped,NA,1876773.9000001,NA,NA,1876767.193,1876774.2,2023-04-16T16:32:55Z,1876783.385,NULL,Prüfung,mtihani,s,mkulima,mtizamo,ufumbuzi,NA,qt,NA,3,NA,NA,NA,NA,NA,NA,NA,NA,NA,NA,NA,NA,NA,NA,NA,NA,NA,NA,NA
46b36,shallow,flow.Sequence,3_0_3_0_2_1,NA,NA,completion,9165.1979999999,1867593.9000001,1867585.739,1867601.995,1876767.193,1876774.7,2023-04-16T16:32:55Z,1876783.385,NULL,Prüfung,mtihani,s,mkulima,mtizamo,ufumbuzi,NA,qt,NA,3,NA,NA,NA,NA,NA,NA,NA,NA,NA,NA,NA,NA,NA,NA,NA,NA,NA,NA,NA
46b36,task,flow.Sequence,3_0_3_0_2,NA,NA,completion,9165.1979999999,1867593.6,1867585.739,1867601.995,1876767.193,1876775,2023-04-16T16:32:55Z,1876783.385,NULL,Prüfung,mtihani,s,mkulima,mtizamo,ufumbuzi,NA,qt,NA,3,NA,NA,NA,NA,NA,NA,NA,NA,NA,NA,NA,NA,NA,NA,NA,NA,NA,NA,NA
46b36,deep,flow.Sequence,3_0_3_0_3_0,NA,NA,skipped,NA,1876775.1,NA,NA,1876767.193,1876775.3000001,2023-04-16T16:32:55Z,1876783.385,NULL,Integrität,uadilifu,s,muungano,mtiririko,upunguaji,NA,qt,NA,3,NA,NA,NA,NA,NA,NA,NA,NA,NA,NA,NA,NA,NA,NA,NA,NA,NA,NA,NA
46b36,Shallow Question,html.Page,3_0_3_0_3_1_0,NA,NA,form submission,4256.8150000477,1876775.5,1876767.193,1876783.385,1881040.2,1881040.5,2023-04-16T16:32:59Z,1881045.475,NULL,Integrität,uadilifu,s,muungano,mtiririko,upunguaji,upunguaji,NA,NA,3,NA,NA,NA,NA,NA,NA,NA,NA,NA,NA,NA,NA,NA,NA,NA,NA,NA,NA,NA
46b36,"""Richtig""-Screen",canvas.Screen,3_0_3_0_3_1_1,NA,NA,skipped,NA,1881042.3000001,NA,NA,1881040.2,1881042.3000001,2023-04-16T16:32:59Z,1881045.475,NULL,Integrität,uadilifu,s,muungano,mtiririko,upunguaji,NA,qt,NA,3,NA,NA,NA,NA,NA,NA,NA,NA,NA,NA,NA,NA,NA,NA,NA,NA,NA,NA,NA
46b36,"""Falsch""-Screen",canvas.Screen,3_0_3_0_3_1_2,NA,NA,timeout,4999.943,1881042.9000001,1881031.872,1881045.475,1886029.077,1886030.2,2023-04-16T16:33:04Z,1886045.418,NULL,Integrität,uadilifu,s,muungano,mtiririko,upunguaji,NA,qt,0,3,NA,NA,NA,NA,NA,NA,NA,NA,NA,NA,NA,NA,NA,NA,NA,NA,NA,NA,NA
46b36,shallow,flow.Sequence,3_0_3_0_3_1,NA,NA,completion,9245.692,1876775.5,1876767.193,1876783.385,1886029.077,1886030.7,2023-04-16T16:33:04Z,1886045.418,NULL,Integrität,uadilifu,s,muungano,mtiririko,upunguaji,NA,qt,NA,3,NA,NA,NA,NA,NA,NA,NA,NA,NA,NA,NA,NA,NA,NA,NA,NA,NA,NA,NA
46b36,task,flow.Sequence,3_0_3_0_3,NA,NA,completion,9245.692,1876775.1,1876767.193,1876783.385,1886029.077,1886031.2,2023-04-16T16:33:04Z,1886045.418,NULL,Integrität,uadilifu,s,muungano,mtiririko,upunguaji,NA,qt,NA,3,NA,NA,NA,NA,NA,NA,NA,NA,NA,NA,NA,NA,NA,NA,NA,NA,NA,NA,NA
46b36,deep,flow.Sequence,3_0_3_0_4_0,NA,NA,skipped,NA,1886031.4000001,NA,NA,1886029.077,1886031.7,2023-04-16T16:33:04Z,1886045.418,NULL,Aufstand,ugomaji,s,mazidio,msingi,kujieleza,NA,qt,NA,3,NA,NA,NA,NA,NA,NA,NA,NA,NA,NA,NA,NA,NA,NA,NA,NA,NA,NA,NA
46b36,Shallow Question,html.Page,3_0_3_0_4_1_0,NA,NA,form submission,4520.5819999999,1886032,1886029.077,1886045.418,1890566,1890566.2,2023-04-16T16:33:09Z,1890572.488,NULL,Aufstand,ugomaji,s,mazidio,msingi,kujieleza,ugomaji,NA,NA,3,NA,NA,NA,NA,NA,NA,NA,NA,NA,NA,NA,NA,NA,NA,NA,NA,NA,NA,NA
46b36,"""Richtig""-Screen",canvas.Screen,3_0_3_0_4_1_1,NA,NA,timeout,4995.496,1890568.2,1890556.051,1890572.488,1895551.812,1895552.9000001,2023-04-16T16:33:14Z,1895567.984,NULL,Aufstand,ugomaji,s,mazidio,msingi,kujieleza,NA,qt,1,3,NA,NA,NA,NA,NA,NA,NA,NA,NA,NA,NA,NA,NA,NA,NA,NA,NA,NA,NA
46b36,"""Falsch""-Screen",canvas.Screen,3_0_3_0_4_1_2,NA,NA,skipped,NA,1895558.2,NA,NA,1895551.812,1895558.5,2023-04-16T16:33:14Z,1895567.984,NULL,Aufstand,ugomaji,s,mazidio,msingi,kujieleza,NA,qt,NA,3,NA,NA,NA,NA,NA,NA,NA,NA,NA,NA,NA,NA,NA,NA,NA,NA,NA,NA,NA
46b36,shallow,flow.Sequence,3_0_3_0_4_1,NA,NA,completion,9506.3939999999,1886031.9000001,1886029.077,1886045.418,1895551.812,1895559,2023-04-16T16:33:14Z,1895567.984,NULL,Aufstand,ugomaji,s,mazidio,msingi,kujieleza,NA,qt,NA,3,NA,NA,NA,NA,NA,NA,NA,NA,NA,NA,NA,NA,NA,NA,NA,NA,NA,NA,NA
46b36,task,flow.Sequence,3_0_3_0_4,NA,NA,completion,9506.3939999999,1886031.4000001,1886029.077,1886045.418,1895551.812,1895559.3000001,2023-04-16T16:33:14Z,1895567.984,NULL,Aufstand,ugomaji,s,mazidio,msingi,kujieleza,NA,qt,NA,3,NA,NA,NA,NA,NA,NA,NA,NA,NA,NA,NA,NA,NA,NA,NA,NA,NA,NA,NA
46b36,Deep Question,html.Page,3_0_3_0_5_0_0,NA,NA,form submission,18686.516,1895559.5,1895551.812,1895567.984,1914254.5,1914254.7,2023-04-16T16:33:32Z,1914280.706,NULL,Begegnung,kukutana,d,NA,NA,NA,kutulana,NA,NA,3,NA,NA,NA,NA,NA,NA,NA,NA,NA,NA,NA,NA,NA,NA,NA,NA,NA,NA,NA
46b36,"""Richtig""-Screen",canvas.Screen,3_0_3_0_5_0_1,NA,NA,skipped,NA,1914256.7,NA,NA,1914254.5,1914256.7,2023-04-16T16:33:32Z,1914280.706,NULL,Begegnung,kukutana,d,NA,NA,NA,NA,qt,NA,3,NA,NA,NA,NA,NA,NA,NA,NA,NA,NA,NA,NA,NA,NA,NA,NA,NA,NA,NA
46b36,"""Falsch""-Screen",canvas.Screen,3_0_3_0_5_0_2,NA,NA,timeout,5003.01,1914257.5,1914242.367,1914280.706,1919267.334,1919268.4000001,2023-04-16T16:33:37Z,1919283.716,NULL,Begegnung,kukutana,d,NA,NA,NA,NA,qt,0,3,NA,NA,NA,NA,NA,NA,NA,NA,NA,NA,NA,NA,NA,NA,NA,NA,NA,NA,NA
46b36,deep,flow.Sequence,3_0_3_0_5_0,NA,NA,completion,23699.35,1895559.5,1895551.812,1895567.984,1919267.334,1919268.9000001,2023-04-16T16:33:37Z,1919283.716,NULL,Begegnung,kukutana,d,NA,NA,NA,NA,qt,NA,3,NA,NA,NA,NA,NA,NA,NA,NA,NA,NA,NA,NA,NA,NA,NA,NA,NA,NA,NA
46b36,shallow,flow.Sequence,3_0_3_0_5_1,NA,NA,skipped,NA,1919269.1,NA,NA,1919267.334,1919269.3000001,2023-04-16T16:33:37Z,1919283.716,NULL,Begegnung,kukutana,d,NA,NA,NA,NA,qt,NA,3,NA,NA,NA,NA,NA,NA,NA,NA,NA,NA,NA,NA,NA,NA,NA,NA,NA,NA,NA
46b36,task,flow.Sequence,3_0_3_0_5,NA,NA,completion,23699.35,1895559.3000001,1895551.812,1895567.984,1919267.334,1919269.6,2023-04-16T16:33:37Z,1919283.716,NULL,Begegnung,kukutana,d,NA,NA,NA,NA,qt,NA,3,NA,NA,NA,NA,NA,NA,NA,NA,NA,NA,NA,NA,NA,NA,NA,NA,NA,NA,NA
46b36,Deep Question,html.Page,3_0_3_0_6_0_0,NA,NA,form submission,9624.5840000715,1919269.8000001,1919267.334,1919283.716,1928908.3000001,1928908.6,2023-04-16T16:33:47Z,1928914.145,NULL,Kultur,utamaduni,d,NA,NA,NA,ungunjozi,NA,NA,3,NA,NA,NA,NA,NA,NA,NA,NA,NA,NA,NA,NA,NA,NA,NA,NA,NA,NA,NA
46b36,"""Richtig""-Screen",canvas.Screen,3_0_3_0_6_0_1,NA,NA,skipped,NA,1928910.5,NA,NA,1928908.3000001,1928910.6,2023-04-16T16:33:47Z,1928914.145,NULL,Kultur,utamaduni,d,NA,NA,NA,NA,qt,NA,3,NA,NA,NA,NA,NA,NA,NA,NA,NA,NA,NA,NA,NA,NA,NA,NA,NA,NA,NA
46b36,"""Falsch""-Screen",canvas.Screen,3_0_3_0_6_0_2,NA,NA,timeout,5003.7719999999,1928911.2,1928905.455,1928914.145,1933901.542,1933902.6,2023-04-16T16:33:52Z,1933917.917,NULL,Kultur,utamaduni,d,NA,NA,NA,NA,qt,0,3,NA,NA,NA,NA,NA,NA,NA,NA,NA,NA,NA,NA,NA,NA,NA,NA,NA,NA,NA
46b36,deep,flow.Sequence,3_0_3_0_6_0,NA,NA,completion,14617.826,1919269.7,1919267.334,1919283.716,1933901.542,1933903,2023-04-16T16:33:52Z,1933917.917,NULL,Kultur,utamaduni,d,NA,NA,NA,NA,qt,NA,3,NA,NA,NA,NA,NA,NA,NA,NA,NA,NA,NA,NA,NA,NA,NA,NA,NA,NA,NA
46b36,shallow,flow.Sequence,3_0_3_0_6_1,NA,NA,skipped,NA,1933903.1,NA,NA,1933901.542,1933903.4000001,2023-04-16T16:33:52Z,1933917.917,NULL,Kultur,utamaduni,d,NA,NA,NA,NA,qt,NA,3,NA,NA,NA,NA,NA,NA,NA,NA,NA,NA,NA,NA,NA,NA,NA,NA,NA,NA,NA
46b36,task,flow.Sequence,3_0_3_0_6,NA,NA,completion,14617.826,1919269.6,1919267.334,1919283.716,1933901.542,1933903.6,2023-04-16T16:33:52Z,1933917.917,NULL,Kultur,utamaduni,d,NA,NA,NA,NA,qt,NA,3,NA,NA,NA,NA,NA,NA,NA,NA,NA,NA,NA,NA,NA,NA,NA,NA,NA,NA,NA
46b36,deep,flow.Sequence,3_0_3_0_7_0,NA,NA,skipped,NA,1933903.7,NA,NA,1933901.542,1933903.9000001,2023-04-16T16:33:52Z,1933917.917,NULL,Fleisch,mshakiki,s,kizunguzungu,mshikamano,angusho,NA,qt,NA,3,NA,NA,NA,NA,NA,NA,NA,NA,NA,NA,NA,NA,NA,NA,NA,NA,NA,NA,NA
46b36,Shallow Question,html.Page,3_0_3_0_7_1_0,NA,NA,form submission,3748.5830000001,1933904,1933901.542,1933917.917,1937666.5,1937666.7,2023-04-16T16:33:56Z,1937674.314,NULL,Fleisch,mshakiki,s,kizunguzungu,mshikamano,angusho,mshakiki,NA,NA,3,NA,NA,NA,NA,NA,NA,NA,NA,NA,NA,NA,NA,NA,NA,NA,NA,NA,NA,NA
46b36,"""Richtig""-Screen",canvas.Screen,3_0_3_0_7_1_1,NA,NA,timeout,4991.3030000001,1937668.5,1937653.829,1937674.314,1942649.51,1942650.6,2023-04-16T16:34:01Z,1942665.617,NULL,Fleisch,mshakiki,s,kizunguzungu,mshikamano,angusho,NA,qt,1,3,NA,NA,NA,NA,NA,NA,NA,NA,NA,NA,NA,NA,NA,NA,NA,NA,NA,NA,NA
46b36,"""Falsch""-Screen",canvas.Screen,3_0_3_0_7_1_2,NA,NA,skipped,NA,1942655.9000001,NA,NA,1942649.51,1942656.2,2023-04-16T16:34:01Z,1942665.617,NULL,Fleisch,mshakiki,s,kizunguzungu,mshikamano,angusho,NA,qt,NA,3,NA,NA,NA,NA,NA,NA,NA,NA,NA,NA,NA,NA,NA,NA,NA,NA,NA,NA,NA
46b36,shallow,flow.Sequence,3_0_3_0_7_1,NA,NA,completion,8731.5930000001,1933904,1933901.542,1933917.917,1942649.51,1942656.6,2023-04-16T16:34:01Z,1942665.617,NULL,Fleisch,mshakiki,s,kizunguzungu,mshikamano,angusho,NA,qt,NA,3,NA,NA,NA,NA,NA,NA,NA,NA,NA,NA,NA,NA,NA,NA,NA,NA,NA,NA,NA
46b36,task,flow.Sequence,3_0_3_0_7,NA,NA,completion,8731.5930000001,1933903.7,1933901.542,1933917.917,1942649.51,1942656.7,2023-04-16T16:34:01Z,1942665.617,NULL,Fleisch,mshakiki,s,kizunguzungu,mshikamano,angusho,NA,qt,NA,3,NA,NA,NA,NA,NA,NA,NA,NA,NA,NA,NA,NA,NA,NA,NA,NA,NA,NA,NA
46b36,block,flow.Loop,3_0_3_0,NA,NA,completion,105257.507,1837373.9000001,1837374.438,1837392.003,1942649.51,1942657.1,2023-04-16T16:34:01Z,1942665.617,NULL,NA,NA,NA,NA,NA,NA,NA,qt,NA,3,NA,NA,NA,NA,NA,NA,NA,NA,NA,NA,NA,NA,NA,NA,NA,NA,NA,NA,NA
46b36,weiter,canvas.Screen,3_0_3_1,sdf,keypress(Space),response,709.28300009528,1942657.1,1942649.51,1942665.617,1943374.9000001,1943376.1,2023-04-16T16:34:01Z,1943469.654,NULL,NA,NA,NA,NA,NA,NA,NA,qt,NA,3,NA,NA,NA,NA,NA,NA,NA,NA,NA,NA,NA,NA,NA,NA,NA,NA,NA,NA,NA
46b36,check continue,flow.Sequence,3_0_3,NA,NA,completion,105982.8970001,1837373.8000001,1837374.438,1837392.003,1943374.9000001,1943376.4000001,2023-04-16T16:34:01Z,1943469.654,NULL,NA,NA,NA,NA,NA,NA,NA,qt,NA,3,NA,NA,NA,NA,NA,NA,NA,NA,NA,NA,NA,NA,NA,NA,NA,NA,NA,NA,NA
46b36,deep,flow.Sequence,3_0_4_0_0_0,NA,NA,skipped,NA,1943459.7,NA,NA,1943374.9000001,1943459.9000001,2023-04-16T16:34:02Z,1943469.654,NULL,Prüfung,mtihani,s,mkulima,mtizamo,ufumbuzi,NA,sd,NA,4,NA,NA,NA,NA,NA,NA,NA,NA,NA,NA,NA,NA,NA,NA,NA,NA,NA,NA,NA
46b36,Shallow Question,html.Page,3_0_4_0_0_1_0,NA,NA,form submission,4558.8459999999,1943460.2,1943448.681,1943469.654,1948028.5,1948028.6,2023-04-16T16:34:06Z,1948039.332,NULL,Prüfung,mtihani,s,mkulima,mtizamo,ufumbuzi,ufumbuzi,NA,NA,4,NA,NA,NA,NA,NA,NA,NA,NA,NA,NA,NA,NA,NA,NA,NA,NA,NA,NA,NA
46b36,"""Richtig""-Screen",canvas.Screen,3_0_4_0_0_1_1,NA,NA,skipped,NA,1948030.5,NA,NA,1948028.5,1948030.7,2023-04-16T16:34:06Z,1948039.332,NULL,Prüfung,mtihani,s,mkulima,mtizamo,ufumbuzi,NA,sd,NA,4,NA,NA,NA,NA,NA,NA,NA,NA,NA,NA,NA,NA,NA,NA,NA,NA,NA,NA,NA
46b36,"""Falsch""-Screen",canvas.Screen,3_0_4_0_0_1_2,NA,NA,timeout,5007.8590000002,1948031.1,1948022.071,1948039.332,1953030.541,1953031.5,2023-04-16T16:34:11Z,1953047.191,NULL,Prüfung,mtihani,s,mkulima,mtizamo,ufumbuzi,NA,sd,0,4,NA,NA,NA,NA,NA,NA,NA,NA,NA,NA,NA,NA,NA,NA,NA,NA,NA,NA,NA
46b36,shallow,flow.Sequence,3_0_4_0_0_1,NA,NA,completion,9560.8869999999,1943460.1,1943448.681,1943469.654,1953030.541,1953032.3000001,2023-04-16T16:34:11Z,1953047.191,NULL,Prüfung,mtihani,s,mkulima,mtizamo,ufumbuzi,NA,sd,NA,4,NA,NA,NA,NA,NA,NA,NA,NA,NA,NA,NA,NA,NA,NA,NA,NA,NA,NA,NA
46b36,task,flow.Sequence,3_0_4_0_0,NA,NA,completion,9560.8869999999,1943459.6,1943448.681,1943469.654,1953030.541,1953032.7,2023-04-16T16:34:11Z,1953047.191,NULL,Prüfung,mtihani,s,mkulima,mtizamo,ufumbuzi,NA,sd,NA,4,NA,NA,NA,NA,NA,NA,NA,NA,NA,NA,NA,NA,NA,NA,NA,NA,NA,NA,NA
46b36,deep,flow.Sequence,3_0_4_0_1_0,NA,NA,skipped,NA,1953032.9000001,NA,NA,1953030.541,1953033.1,2023-04-16T16:34:11Z,1953047.191,NULL,Integrität,uadilifu,s,muungano,mtiririko,upunguaji,NA,sd,NA,4,NA,NA,NA,NA,NA,NA,NA,NA,NA,NA,NA,NA,NA,NA,NA,NA,NA,NA,NA
46b36,Shallow Question,html.Page,3_0_4_0_1_1_0,NA,NA,form submission,6406.0090000476,1953033.3000001,1953030.541,1953047.191,1959453.2,1959453.4000001,2023-04-16T16:34:18Z,1959464.741,NULL,Integrität,uadilifu,s,muungano,mtiririko,upunguaji,uadilifu,NA,NA,4,NA,NA,NA,NA,NA,NA,NA,NA,NA,NA,NA,NA,NA,NA,NA,NA,NA,NA,NA
46b36,"""Richtig""-Screen",canvas.Screen,3_0_4_0_1_1_1,NA,NA,timeout,4991.2210000001,1959455.3000001,1959447.548,1959464.741,1964439.864,1964440.9000001,2023-04-16T16:34:22Z,1964455.962,NULL,Integrität,uadilifu,s,muungano,mtiririko,upunguaji,NA,sd,1,4,NA,NA,NA,NA,NA,NA,NA,NA,NA,NA,NA,NA,NA,NA,NA,NA,NA,NA,NA
46b36,"""Falsch""-Screen",canvas.Screen,3_0_4_0_1_1_2,NA,NA,skipped,NA,1964446.2,NA,NA,1964439.864,1964446.5,2023-04-16T16:34:22Z,1964455.962,NULL,Integrität,uadilifu,s,muungano,mtiririko,upunguaji,NA,sd,NA,4,NA,NA,NA,NA,NA,NA,NA,NA,NA,NA,NA,NA,NA,NA,NA,NA,NA,NA,NA
46b36,shallow,flow.Sequence,3_0_4_0_1_1,NA,NA,completion,11392.673,1953033.2,1953030.541,1953047.191,1964439.864,1964446.9000001,2023-04-16T16:34:22Z,1964455.962,NULL,Integrität,uadilifu,s,muungano,mtiririko,upunguaji,NA,sd,NA,4,NA,NA,NA,NA,NA,NA,NA,NA,NA,NA,NA,NA,NA,NA,NA,NA,NA,NA,NA
46b36,task,flow.Sequence,3_0_4_0_1,NA,NA,completion,11392.673,1953032.8000001,1953030.541,1953047.191,1964439.864,1964447.2,2023-04-16T16:34:22Z,1964455.962,NULL,Integrität,uadilifu,s,muungano,mtiririko,upunguaji,NA,sd,NA,4,NA,NA,NA,NA,NA,NA,NA,NA,NA,NA,NA,NA,NA,NA,NA,NA,NA,NA,NA
46b36,deep,flow.Sequence,3_0_4_0_2_0,NA,NA,skipped,NA,1964447.5,NA,NA,1964439.864,1964447.5,2023-04-16T16:34:22Z,1964455.962,NULL,Fleisch,mshakiki,s,kizunguzungu,mshikamano,angusho,NA,sd,NA,4,NA,NA,NA,NA,NA,NA,NA,NA,NA,NA,NA,NA,NA,NA,NA,NA,NA,NA,NA
46b36,Shallow Question,html.Page,3_0_4_0_2_1_0,NA,NA,form submission,3551.8380000715,1964447.8000001,1964439.864,1964455.962,1968007.8000001,1968007.9000001,2023-04-16T16:34:26Z,1968013.158,NULL,Fleisch,mshakiki,s,kizunguzungu,mshikamano,angusho,mshakiki,NA,NA,4,NA,NA,NA,NA,NA,NA,NA,NA,NA,NA,NA,NA,NA,NA,NA,NA,NA,NA,NA
46b36,"""Richtig""-Screen",canvas.Screen,3_0_4_0_2_1_1,NA,NA,timeout,4999.719,1968009.7,1967996.893,1968013.158,1972996.593,1972997.6,2023-04-16T16:34:31Z,1973012.877,NULL,Fleisch,mshakiki,s,kizunguzungu,mshikamano,angusho,NA,sd,1,4,NA,NA,NA,NA,NA,NA,NA,NA,NA,NA,NA,NA,NA,NA,NA,NA,NA,NA,NA
46b36,"""Falsch""-Screen",canvas.Screen,3_0_4_0_2_1_2,NA,NA,skipped,NA,1973002.8000001,NA,NA,1972996.593,1973003.1,2023-04-16T16:34:31Z,1973012.877,NULL,Fleisch,mshakiki,s,kizunguzungu,mshikamano,angusho,NA,sd,NA,4,NA,NA,NA,NA,NA,NA,NA,NA,NA,NA,NA,NA,NA,NA,NA,NA,NA,NA,NA
46b36,shallow,flow.Sequence,3_0_4_0_2_1,NA,NA,completion,8540.6310000001,1964447.7,1964439.864,1964455.962,1972996.593,1973003.5,2023-04-16T16:34:31Z,1973012.877,NULL,Fleisch,mshakiki,s,kizunguzungu,mshikamano,angusho,NA,sd,NA,4,NA,NA,NA,NA,NA,NA,NA,NA,NA,NA,NA,NA,NA,NA,NA,NA,NA,NA,NA
46b36,task,flow.Sequence,3_0_4_0_2,NA,NA,completion,8540.6310000001,1964447.4000001,1964439.864,1964455.962,1972996.593,1973003.7,2023-04-16T16:34:31Z,1973012.877,NULL,Fleisch,mshakiki,s,kizunguzungu,mshikamano,angusho,NA,sd,NA,4,NA,NA,NA,NA,NA,NA,NA,NA,NA,NA,NA,NA,NA,NA,NA,NA,NA,NA,NA
46b36,Deep Question,html.Page,3_0_4_0_3_0_0,NA,NA,form submission,11802.623,1973004,1972996.593,1973012.877,1984815.5,1984815.7,2023-04-16T16:34:43Z,1984826.545,NULL,Kultur,utamaduni,d,NA,NA,NA,utumgazi,NA,NA,4,NA,NA,NA,NA,NA,NA,NA,NA,NA,NA,NA,NA,NA,NA,NA,NA,NA,NA,NA
46b36,"""Richtig""-Screen",canvas.Screen,3_0_4_0_3_0_1,NA,NA,skipped,NA,1984817.9000001,NA,NA,1984815.5,1984818,2023-04-16T16:34:43Z,1984826.545,NULL,Kultur,utamaduni,d,NA,NA,NA,NA,sd,NA,4,NA,NA,NA,NA,NA,NA,NA,NA,NA,NA,NA,NA,NA,NA,NA,NA,NA,NA,NA
46b36,"""Falsch""-Screen",canvas.Screen,3_0_4_0_3_0_2,NA,NA,timeout,5000.0820000002,1984818.6,1984810.046,1984826.545,1989810.005,1989811,2023-04-16T16:34:48Z,1989826.627,NULL,Kultur,utamaduni,d,NA,NA,NA,NA,sd,0,4,NA,NA,NA,NA,NA,NA,NA,NA,NA,NA,NA,NA,NA,NA,NA,NA,NA,NA,NA
46b36,deep,flow.Sequence,3_0_4_0_3_0,NA,NA,completion,16797.128,1973004,1972996.593,1973012.877,1989810.005,1989811.5,2023-04-16T16:34:48Z,1989826.627,NULL,Kultur,utamaduni,d,NA,NA,NA,NA,sd,NA,4,NA,NA,NA,NA,NA,NA,NA,NA,NA,NA,NA,NA,NA,NA,NA,NA,NA,NA,NA
46b36,shallow,flow.Sequence,3_0_4_0_3_1,NA,NA,skipped,NA,1989811.7,NA,NA,1989810.005,1989811.8000001,2023-04-16T16:34:48Z,1989826.627,NULL,Kultur,utamaduni,d,NA,NA,NA,NA,sd,NA,4,NA,NA,NA,NA,NA,NA,NA,NA,NA,NA,NA,NA,NA,NA,NA,NA,NA,NA,NA
46b36,task,flow.Sequence,3_0_4_0_3,NA,NA,completion,16797.128,1973003.9000001,1972996.593,1973012.877,1989810.005,1989812,2023-04-16T16:34:48Z,1989826.627,NULL,Kultur,utamaduni,d,NA,NA,NA,NA,sd,NA,4,NA,NA,NA,NA,NA,NA,NA,NA,NA,NA,NA,NA,NA,NA,NA,NA,NA,NA,NA
46b36,Deep Question,html.Page,3_0_4_0_4_0_0,NA,NA,form submission,3521.3729999999,1989812.2,1989810.005,1989826.627,1993348,1993348.2,2023-04-16T16:34:51Z,1993363.027,NULL,Genehmigung,idhini,d,NA,NA,NA,idhini,NA,NA,4,NA,NA,NA,NA,NA,NA,NA,NA,NA,NA,NA,NA,NA,NA,NA,NA,NA,NA,NA
46b36,"""Richtig""-Screen",canvas.Screen,3_0_4_0_4_0_1,NA,NA,timeout,4995.328,1993350.1,1993346.483,1993363.027,1998342.032,1998343.1,2023-04-16T16:34:56Z,1998358.355,NULL,Genehmigung,idhini,d,NA,NA,NA,NA,sd,1,4,NA,NA,NA,NA,NA,NA,NA,NA,NA,NA,NA,NA,NA,NA,NA,NA,NA,NA,NA
46b36,"""Falsch""-Screen",canvas.Screen,3_0_4_0_4_0_2,NA,NA,skipped,NA,1998348.4000001,NA,NA,1998342.032,1998348.7,2023-04-16T16:34:56Z,1998358.355,NULL,Genehmigung,idhini,d,NA,NA,NA,NA,sd,NA,4,NA,NA,NA,NA,NA,NA,NA,NA,NA,NA,NA,NA,NA,NA,NA,NA,NA,NA,NA
46b36,deep,flow.Sequence,3_0_4_0_4_0,NA,NA,completion,8515.4049999998,1989812.2,1989810.005,1989826.627,1998342.032,1998349.1,2023-04-16T16:34:56Z,1998358.355,NULL,Genehmigung,idhini,d,NA,NA,NA,NA,sd,NA,4,NA,NA,NA,NA,NA,NA,NA,NA,NA,NA,NA,NA,NA,NA,NA,NA,NA,NA,NA
46b36,shallow,flow.Sequence,3_0_4_0_4_1,NA,NA,skipped,NA,1998349.3000001,NA,NA,1998342.032,1998349.4000001,2023-04-16T16:34:56Z,1998358.355,NULL,Genehmigung,idhini,d,NA,NA,NA,NA,sd,NA,4,NA,NA,NA,NA,NA,NA,NA,NA,NA,NA,NA,NA,NA,NA,NA,NA,NA,NA,NA
46b36,task,flow.Sequence,3_0_4_0_4,NA,NA,completion,8515.4049999998,1989812.2,1989810.005,1989826.627,1998342.032,1998349.6,2023-04-16T16:34:56Z,1998358.355,NULL,Genehmigung,idhini,d,NA,NA,NA,NA,sd,NA,4,NA,NA,NA,NA,NA,NA,NA,NA,NA,NA,NA,NA,NA,NA,NA,NA,NA,NA,NA
46b36,Deep Question,html.Page,3_0_4_0_5_0_0,NA,NA,form submission,15880.345000048,1998349.9000001,1998342.032,1998358.355,2014238.7,2014238.8000001,2023-04-16T16:35:12Z,2014242.357,NULL,Verzögerung,kuchelewa,d,NA,NA,NA,kuchlana,NA,NA,4,NA,NA,NA,NA,NA,NA,NA,NA,NA,NA,NA,NA,NA,NA,NA,NA,NA,NA,NA
46b36,"""Richtig""-Screen",canvas.Screen,3_0_4_0_5_0_1,NA,NA,skipped,NA,2014241.5,NA,NA,2014238.7,2014241.6,2023-04-16T16:35:12Z,2014242.357,NULL,Verzögerung,kuchelewa,d,NA,NA,NA,NA,sd,NA,4,NA,NA,NA,NA,NA,NA,NA,NA,NA,NA,NA,NA,NA,NA,NA,NA,NA,NA,NA
46b36,"""Falsch""-Screen",canvas.Screen,3_0_4_0_5_0_2,NA,NA,timeout,4996.0259999998,2014242.6,2014226.326,2014242.357,2019221.805,2019222.9000001,2023-04-16T16:35:17Z,2019238.383,NULL,Verzögerung,kuchelewa,d,NA,NA,NA,NA,sd,0,4,NA,NA,NA,NA,NA,NA,NA,NA,NA,NA,NA,NA,NA,NA,NA,NA,NA,NA,NA
46b36,deep,flow.Sequence,3_0_4_0_5_0,NA,NA,completion,20863.45,1998349.8000001,1998342.032,1998358.355,2019221.805,2019223.4000001,2023-04-16T16:35:17Z,2019238.383,NULL,Verzögerung,kuchelewa,d,NA,NA,NA,NA,sd,NA,4,NA,NA,NA,NA,NA,NA,NA,NA,NA,NA,NA,NA,NA,NA,NA,NA,NA,NA,NA
46b36,shallow,flow.Sequence,3_0_4_0_5_1,NA,NA,skipped,NA,2019223.6,NA,NA,2019221.805,2019223.7,2023-04-16T16:35:17Z,2019238.383,NULL,Verzögerung,kuchelewa,d,NA,NA,NA,NA,sd,NA,4,NA,NA,NA,NA,NA,NA,NA,NA,NA,NA,NA,NA,NA,NA,NA,NA,NA,NA,NA
46b36,task,flow.Sequence,3_0_4_0_5,NA,NA,completion,20863.45,1998349.8000001,1998342.032,1998358.355,2019221.805,2019224,2023-04-16T16:35:17Z,2019238.383,NULL,Verzögerung,kuchelewa,d,NA,NA,NA,NA,sd,NA,4,NA,NA,NA,NA,NA,NA,NA,NA,NA,NA,NA,NA,NA,NA,NA,NA,NA,NA,NA
46b36,deep,flow.Sequence,3_0_4_0_6_0,NA,NA,skipped,NA,2019224.1,NA,NA,2019221.805,2019224.3000001,2023-04-16T16:35:17Z,2019238.383,NULL,Aufstand,ugomaji,s,mazidio,msingi,kujieleza,NA,sd,NA,4,NA,NA,NA,NA,NA,NA,NA,NA,NA,NA,NA,NA,NA,NA,NA,NA,NA,NA,NA
46b36,Shallow Question,html.Page,3_0_4_0_6_1_0,NA,NA,form submission,4000.0170000955,2019224.5,2019221.805,2019238.383,2023238.4000001,2023238.5,2023-04-16T16:35:21Z,2023253.078,NULL,Aufstand,ugomaji,s,mazidio,msingi,kujieleza,ugomaji,NA,NA,4,NA,NA,NA,NA,NA,NA,NA,NA,NA,NA,NA,NA,NA,NA,NA,NA,NA,NA,NA
46b36,"""Richtig""-Screen",canvas.Screen,3_0_4_0_6_1_1,NA,NA,timeout,4991.3219999999,2023240.5,2023232.499,2023253.078,2028228.384,2028229.5,2023-04-16T16:35:26Z,2028244.4,NULL,Aufstand,ugomaji,s,mazidio,msingi,kujieleza,NA,sd,1,4,NA,NA,NA,NA,NA,NA,NA,NA,NA,NA,NA,NA,NA,NA,NA,NA,NA,NA,NA
46b36,"""Falsch""-Screen",canvas.Screen,3_0_4_0_6_1_2,NA,NA,skipped,NA,2028234.8000001,NA,NA,2028228.384,2028235.1,2023-04-16T16:35:26Z,2028244.4,NULL,Aufstand,ugomaji,s,mazidio,msingi,kujieleza,NA,sd,NA,4,NA,NA,NA,NA,NA,NA,NA,NA,NA,NA,NA,NA,NA,NA,NA,NA,NA,NA,NA
46b36,shallow,flow.Sequence,3_0_4_0_6_1,NA,NA,completion,8990.0010000002,2019224.4000001,2019221.805,2019238.383,2028228.384,2028235.5,2023-04-16T16:35:26Z,2028244.4,NULL,Aufstand,ugomaji,s,mazidio,msingi,kujieleza,NA,sd,NA,4,NA,NA,NA,NA,NA,NA,NA,NA,NA,NA,NA,NA,NA,NA,NA,NA,NA,NA,NA
46b36,task,flow.Sequence,3_0_4_0_6,NA,NA,completion,8990.0010000002,2019224.1,2019221.805,2019238.383,2028228.384,2028235.8000001,2023-04-16T16:35:26Z,2028244.4,NULL,Aufstand,ugomaji,s,mazidio,msingi,kujieleza,NA,sd,NA,4,NA,NA,NA,NA,NA,NA,NA,NA,NA,NA,NA,NA,NA,NA,NA,NA,NA,NA,NA
46b36,Deep Question,html.Page,3_0_4_0_7_0_0,NA,NA,form submission,10115.1,2028236,2028228.384,2028244.4,2038359.5,2038359.8000001,2023-04-16T16:35:36Z,2038370.801,NULL,Begegnung,kukutana,d,NA,NA,NA,kututana,NA,NA,4,NA,NA,NA,NA,NA,NA,NA,NA,NA,NA,NA,NA,NA,NA,NA,NA,NA,NA,NA
46b36,"""Richtig""-Screen",canvas.Screen,3_0_4_0_7_0_1,NA,NA,skipped,NA,2038362.8000001,NA,NA,2038359.5,2038363,2023-04-16T16:35:36Z,2038370.801,NULL,Begegnung,kukutana,d,NA,NA,NA,NA,sd,NA,4,NA,NA,NA,NA,NA,NA,NA,NA,NA,NA,NA,NA,NA,NA,NA,NA,NA,NA,NA
46b36,"""Falsch""-Screen",canvas.Screen,3_0_4_0_7_0_2,NA,NA,timeout,4996.203,2038363.6,2038354.442,2038370.801,2043350.029,2043351.1,2023-04-16T16:35:41Z,2043367.004,NULL,Begegnung,kukutana,d,NA,NA,NA,NA,sd,0,4,NA,NA,NA,NA,NA,NA,NA,NA,NA,NA,NA,NA,NA,NA,NA,NA,NA,NA,NA
46b36,deep,flow.Sequence,3_0_4_0_7_0,NA,NA,completion,15105.629,2028236,2028228.384,2028244.4,2043350.029,2043351.5,2023-04-16T16:35:41Z,2043367.004,NULL,Begegnung,kukutana,d,NA,NA,NA,NA,sd,NA,4,NA,NA,NA,NA,NA,NA,NA,NA,NA,NA,NA,NA,NA,NA,NA,NA,NA,NA,NA
46b36,shallow,flow.Sequence,3_0_4_0_7_1,NA,NA,skipped,NA,2043351.7,NA,NA,2043350.029,2043351.9000001,2023-04-16T16:35:41Z,2043367.004,NULL,Begegnung,kukutana,d,NA,NA,NA,NA,sd,NA,4,NA,NA,NA,NA,NA,NA,NA,NA,NA,NA,NA,NA,NA,NA,NA,NA,NA,NA,NA
46b36,task,flow.Sequence,3_0_4_0_7,NA,NA,completion,15105.629,2028236,2028228.384,2028244.4,2043350.029,2043352.1,2023-04-16T16:35:41Z,2043367.004,NULL,Begegnung,kukutana,d,NA,NA,NA,NA,sd,NA,4,NA,NA,NA,NA,NA,NA,NA,NA,NA,NA,NA,NA,NA,NA,NA,NA,NA,NA,NA
46b36,block,flow.Loop,3_0_4_0,NA,NA,completion,99880.375,1943459.5,1943448.681,1943469.654,2043350.029,2043352.4000001,2023-04-16T16:35:41Z,2043367.004,NULL,NA,NA,NA,NA,NA,NA,NA,sd,NA,4,NA,NA,NA,NA,NA,NA,NA,NA,NA,NA,NA,NA,NA,NA,NA,NA,NA,NA,NA
46b36,weiter,canvas.Screen,3_0_4_1,sdf,keypress(Space),response,983.89600009541,2043352.5,2043350.029,2043367.004,2044350.9000001,2044352.2,2023-04-16T16:35:42Z,2045041.121,NULL,NA,NA,NA,NA,NA,NA,NA,sd,NA,4,NA,NA,NA,NA,NA,NA,NA,NA,NA,NA,NA,NA,NA,NA,NA,NA,NA,NA,NA
46b36,check continue,flow.Sequence,3_0_4,NA,NA,completion,100881.2460001,1943459.4000001,1943448.681,1943469.654,2044350.9000001,2044352.5,2023-04-16T16:35:42Z,2045041.121,NULL,NA,NA,NA,NA,NA,NA,NA,sd,NA,4,NA,NA,NA,NA,NA,NA,NA,NA,NA,NA,NA,NA,NA,NA,NA,NA,NA,NA,NA
46b36,check continue,flow.Sequence,3_0_5,NA,NA,skipped,NA,2044434.4000001,NA,NA,2044350.9000001,2044434.8000001,2023-04-16T16:35:42Z,2045041.121,NULL,NA,NA,NA,NA,NA,NA,NA,sdf,NA,5,NA,NA,NA,NA,NA,NA,NA,NA,NA,NA,NA,NA,NA,NA,NA,NA,NA,NA,NA
46b36,check continue,flow.Sequence,3_0_6,NA,NA,skipped,NA,2044493.1,NA,NA,2044350.9000001,2044493.3000001,2023-04-16T16:35:43Z,2045041.121,NULL,NA,NA,NA,NA,NA,NA,NA,dfs,NA,6,NA,NA,NA,NA,NA,NA,NA,NA,NA,NA,NA,NA,NA,NA,NA,NA,NA,NA,NA
46b36,check continue,flow.Sequence,3_0_7,NA,NA,skipped,NA,2044546.8000001,NA,NA,2044350.9000001,2044547.1,2023-04-16T16:35:43Z,2045041.121,NULL,NA,NA,NA,NA,NA,NA,NA,df,NA,7,NA,NA,NA,NA,NA,NA,NA,NA,NA,NA,NA,NA,NA,NA,NA,NA,NA,NA,NA
46b36,check continue,flow.Sequence,3_0_8,NA,NA,skipped,NA,2044582.9000001,NA,NA,2044350.9000001,2044583.1,2023-04-16T16:35:43Z,2045041.121,NULL,NA,NA,NA,NA,NA,NA,NA,dfs,NA,8,NA,NA,NA,NA,NA,NA,NA,NA,NA,NA,NA,NA,NA,NA,NA,NA,NA,NA,NA
46b36,check continue,flow.Sequence,3_0_9,NA,NA,skipped,NA,2044604.8000001,NA,NA,2044350.9000001,2044604.8000001,2023-04-16T16:35:43Z,2045041.121,NULL,NA,NA,NA,NA,NA,NA,NA,dsf,NA,9,NA,NA,NA,NA,NA,NA,NA,NA,NA,NA,NA,NA,NA,NA,NA,NA,NA,NA,NA
46b36,check continue,flow.Sequence,3_0_10,NA,NA,skipped,NA,2044622.5,NA,NA,2044350.9000001,2044622.6,2023-04-16T16:35:43Z,2045041.121,NULL,NA,NA,NA,NA,NA,NA,NA,df,NA,10,NA,NA,NA,NA,NA,NA,NA,NA,NA,NA,NA,NA,NA,NA,NA,NA,NA,NA,NA
46b36,check continue,flow.Sequence,3_0_11,NA,NA,skipped,NA,2044639.4000001,NA,NA,2044350.9000001,2044639.6,2023-04-16T16:35:43Z,2045041.121,NULL,NA,NA,NA,NA,NA,NA,NA,dfs,NA,11,NA,NA,NA,NA,NA,NA,NA,NA,NA,NA,NA,NA,NA,NA,NA,NA,NA,NA,NA
46b36,check continue,flow.Sequence,3_0_12,NA,NA,skipped,NA,2044663.6,NA,NA,2044350.9000001,2044663.7,2023-04-16T16:35:43Z,2045041.121,NULL,NA,NA,NA,NA,NA,NA,NA,dsf,NA,12,NA,NA,NA,NA,NA,NA,NA,NA,NA,NA,NA,NA,NA,NA,NA,NA,NA,NA,NA
46b36,check continue,flow.Sequence,3_0_13,NA,NA,skipped,NA,2044681.9000001,NA,NA,2044350.9000001,2044682,2023-04-16T16:35:43Z,2045041.121,NULL,NA,NA,NA,NA,NA,NA,NA,dsf,NA,13,NA,NA,NA,NA,NA,NA,NA,NA,NA,NA,NA,NA,NA,NA,NA,NA,NA,NA,NA
46b36,check continue,flow.Sequence,3_0_14,NA,NA,skipped,NA,2044701.9000001,NA,NA,2044350.9000001,2044702,2023-04-16T16:35:43Z,2045041.121,NULL,NA,NA,NA,NA,NA,NA,NA,NA,NA,14,NA,NA,NA,NA,NA,NA,NA,NA,NA,NA,NA,NA,NA,NA,NA,NA,NA,NA,NA
46b36,check continue,flow.Sequence,3_0_15,NA,NA,skipped,NA,2044723.7,NA,NA,2044350.9000001,2044723.9000001,2023-04-16T16:35:43Z,2045041.121,NULL,NA,NA,NA,NA,NA,NA,NA,NA,NA,15,NA,NA,NA,NA,NA,NA,NA,NA,NA,NA,NA,NA,NA,NA,NA,NA,NA,NA,NA
46b36,check continue,flow.Sequence,3_0_16,NA,NA,skipped,NA,2044744.2,NA,NA,2044350.9000001,2044744.3000001,2023-04-16T16:35:43Z,2045041.121,NULL,NA,NA,NA,NA,NA,NA,NA,NA,NA,16,NA,NA,NA,NA,NA,NA,NA,NA,NA,NA,NA,NA,NA,NA,NA,NA,NA,NA,NA
46b36,check continue,flow.Sequence,3_0_17,NA,NA,skipped,NA,2044760.2,NA,NA,2044350.9000001,2044760.3000001,2023-04-16T16:35:43Z,2045041.121,NULL,NA,NA,NA,NA,NA,NA,NA,NA,NA,17,NA,NA,NA,NA,NA,NA,NA,NA,NA,NA,NA,NA,NA,NA,NA,NA,NA,NA,NA
46b36,check continue,flow.Sequence,3_0_18,NA,NA,skipped,NA,2044776.5,NA,NA,2044350.9000001,2044776.6,2023-04-16T16:35:43Z,2045041.121,NULL,NA,NA,NA,NA,NA,NA,NA,NA,NA,18,NA,NA,NA,NA,NA,NA,NA,NA,NA,NA,NA,NA,NA,NA,NA,NA,NA,NA,NA
46b36,check continue,flow.Sequence,3_0_19,NA,NA,skipped,NA,2044796.6,NA,NA,2044350.9000001,2044796.7,2023-04-16T16:35:43Z,2045041.121,NULL,NA,NA,NA,NA,NA,NA,NA,NA,NA,19,NA,NA,NA,NA,NA,NA,NA,NA,NA,NA,NA,NA,NA,NA,NA,NA,NA,NA,NA
46b36,check continue,flow.Sequence,3_0_20,NA,NA,skipped,NA,2044814.8000001,NA,NA,2044350.9000001,2044815,2023-04-16T16:35:43Z,2045041.121,NULL,NA,NA,NA,NA,NA,NA,NA,NA,NA,20,NA,NA,NA,NA,NA,NA,NA,NA,NA,NA,NA,NA,NA,NA,NA,NA,NA,NA,NA
46b36,check continue,flow.Sequence,3_0_21,NA,NA,skipped,NA,2044830.7,NA,NA,2044350.9000001,2044830.8000001,2023-04-16T16:35:43Z,2045041.121,NULL,NA,NA,NA,NA,NA,NA,NA,NA,NA,21,NA,NA,NA,NA,NA,NA,NA,NA,NA,NA,NA,NA,NA,NA,NA,NA,NA,NA,NA
46b36,check continue,flow.Sequence,3_0_22,NA,NA,skipped,NA,2044848.8000001,NA,NA,2044350.9000001,2044849,2023-04-16T16:35:43Z,2045041.121,NULL,NA,NA,NA,NA,NA,NA,NA,NA,NA,22,NA,NA,NA,NA,NA,NA,NA,NA,NA,NA,NA,NA,NA,NA,NA,NA,NA,NA,NA
46b36,check continue,flow.Sequence,3_0_23,NA,NA,skipped,NA,2044864.1,NA,NA,2044350.9000001,2044864.2,2023-04-16T16:35:43Z,2045041.121,NULL,NA,NA,NA,NA,NA,NA,NA,NA,NA,23,NA,NA,NA,NA,NA,NA,NA,NA,NA,NA,NA,NA,NA,NA,NA,NA,NA,NA,NA
46b36,check continue,flow.Sequence,3_0_24,NA,NA,skipped,NA,2044882,NA,NA,2044350.9000001,2044882.1,2023-04-16T16:35:43Z,2045041.121,NULL,NA,NA,NA,NA,NA,NA,NA,NA,NA,24,NA,NA,NA,NA,NA,NA,NA,NA,NA,NA,NA,NA,NA,NA,NA,NA,NA,NA,NA
46b36,check continue,flow.Sequence,3_0_25,NA,NA,skipped,NA,2044897.8000001,NA,NA,2044350.9000001,2044897.9000001,2023-04-16T16:35:43Z,2045041.121,NULL,NA,NA,NA,NA,NA,NA,NA,NA,NA,25,NA,NA,NA,NA,NA,NA,NA,NA,NA,NA,NA,NA,NA,NA,NA,NA,NA,NA,NA
46b36,check continue,flow.Sequence,3_0_26,NA,NA,skipped,NA,2044919,NA,NA,2044350.9000001,2044919.1,2023-04-16T16:35:43Z,2045041.121,NULL,NA,NA,NA,NA,NA,NA,NA,NA,NA,26,NA,NA,NA,NA,NA,NA,NA,NA,NA,NA,NA,NA,NA,NA,NA,NA,NA,NA,NA
46b36,check continue,flow.Sequence,3_0_27,NA,NA,skipped,NA,2044936.9000001,NA,NA,2044350.9000001,2044937,2023-04-16T16:35:43Z,2045041.121,NULL,NA,NA,NA,NA,NA,NA,NA,NA,NA,27,NA,NA,NA,NA,NA,NA,NA,NA,NA,NA,NA,NA,NA,NA,NA,NA,NA,NA,NA
46b36,check continue,flow.Sequence,3_0_28,NA,NA,skipped,NA,2044951.9000001,NA,NA,2044350.9000001,2044952.1,2023-04-16T16:35:43Z,2045041.121,NULL,NA,NA,NA,NA,NA,NA,NA,NA,NA,28,NA,NA,NA,NA,NA,NA,NA,NA,NA,NA,NA,NA,NA,NA,NA,NA,NA,NA,NA
46b36,check continue,flow.Sequence,3_0_29,NA,NA,skipped,NA,2044970.6,NA,NA,2044350.9000001,2044970.7,2023-04-16T16:35:43Z,2045041.121,NULL,NA,NA,NA,NA,NA,NA,NA,NA,NA,29,NA,NA,NA,NA,NA,NA,NA,NA,NA,NA,NA,NA,NA,NA,NA,NA,NA,NA,NA
46b36,until continue,flow.Loop,3_0,NA,NA,completion,460794.9060001,1583487,1583548.464,1583555.994,2044350.9000001,2044971,2023-04-16T16:35:43Z,2045041.121,NULL,NA,NA,NA,NA,NA,NA,NA,NA,NA,NA,NA,NA,NA,NA,NA,NA,NA,NA,NA,NA,NA,NA,NA,NA,NA,NA,NA,NA,NA
46b36,block 1,flow.Sequence,3,NA,NA,completion,460794.9060001,1583486.8000001,1583548.464,1583555.994,2044350.9000001,2044971,2023-04-16T16:35:43Z,2045041.121,NULL,NA,NA,NA,NA,NA,NA,NA,NA,NA,NA,NA,NA,NA,NA,NA,NA,NA,NA,NA,NA,NA,NA,NA,NA,NA,NA,NA,NA,NA
46b36,1.Part Over,canvas.Screen,4,NA,keypress(Space),response,NA,2044971.1,NA,NA,2044689.1,2044972.5,2023-04-16T16:35:43Z,2045041.121,NULL,NA,NA,NA,NA,NA,NA,NA,NA,NA,NA,NA,NA,NA,NA,NA,NA,NA,NA,NA,NA,NA,NA,NA,NA,NA,NA,NA,NA,NA
46b36,Deep Question,html.Page,5_0_0_0_0_0_0,NA,NA,form submission,10754.579000048,2045048.7,2044965.598,2045041.121,2055795.7,2055795.9000001,2023-04-16T16:35:54Z,2055801.14,NULL,Kanzler,diwani,d,NA,NA,NA,kandela,NA,NA,0,NA,NA,NA,NA,NA,NA,NA,NA,NA,NA,NA,NA,NA,NA,NA,NA,NA,NA,NA
46b36,"""Richtig""-Screen",canvas.Screen,5_0_0_0_0_0_1,NA,NA,skipped,NA,2055798.2,NA,NA,2055795.7,2055798.4000001,2023-04-16T16:35:54Z,2055801.14,NULL,Kanzler,diwani,d,NA,NA,NA,NA,sdf,NA,0,NA,NA,NA,NA,NA,NA,NA,NA,NA,NA,NA,NA,NA,NA,NA,NA,NA,NA,NA
46b36,"""Falsch""-Screen",canvas.Screen,5_0_0_0_0_0_2,NA,NA,timeout,4996.226,2055799,2055789.128,2055801.14,2060780.812,2060782,2023-04-16T16:35:59Z,2060797.366,NULL,Kanzler,diwani,d,NA,NA,NA,NA,sdf,0,0,NA,NA,NA,NA,NA,NA,NA,NA,NA,NA,NA,NA,NA,NA,NA,NA,NA,NA,NA
46b36,deep,flow.Sequence,5_0_0_0_0_0,NA,NA,completion,15739.691,2045048.7,2044965.598,2045041.121,2060780.812,2060782.5,2023-04-16T16:35:59Z,2060797.366,NULL,Kanzler,diwani,d,NA,NA,NA,NA,sdf,NA,0,NA,NA,NA,NA,NA,NA,NA,NA,NA,NA,NA,NA,NA,NA,NA,NA,NA,NA,NA
46b36,shallow,flow.Sequence,5_0_0_0_0_1,NA,NA,skipped,NA,2060782.6,NA,NA,2060780.812,2060782.8000001,2023-04-16T16:35:59Z,2060797.366,NULL,Kanzler,diwani,d,NA,NA,NA,NA,sdf,NA,0,NA,NA,NA,NA,NA,NA,NA,NA,NA,NA,NA,NA,NA,NA,NA,NA,NA,NA,NA
46b36,task,flow.Sequence,5_0_0_0_0,NA,NA,completion,15739.691,2045048.6,2044965.598,2045041.121,2060780.812,2060783,2023-04-16T16:35:59Z,2060797.366,NULL,Kanzler,diwani,d,NA,NA,NA,NA,sdf,NA,0,NA,NA,NA,NA,NA,NA,NA,NA,NA,NA,NA,NA,NA,NA,NA,NA,NA,NA,NA
46b36,Deep Question,html.Page,5_0_0_0_1_0_0,NA,NA,form submission,4566.2340000239,2060783.2,2060780.812,2060797.366,2065363.6,2065363.7,2023-04-16T16:36:03Z,2065378.937,NULL,Abrechnung,uhasibu,d,NA,NA,NA,rapena,NA,NA,0,NA,NA,NA,NA,NA,NA,NA,NA,NA,NA,NA,NA,NA,NA,NA,NA,NA,NA,NA
46b36,"""Richtig""-Screen",canvas.Screen,5_0_0_0_1_0_1,NA,NA,skipped,NA,2065365.9000001,NA,NA,2065363.6,2065366,2023-04-16T16:36:03Z,2065378.937,NULL,Abrechnung,uhasibu,d,NA,NA,NA,NA,sdf,NA,0,NA,NA,NA,NA,NA,NA,NA,NA,NA,NA,NA,NA,NA,NA,NA,NA,NA,NA,NA
46b36,"""Falsch""-Screen",canvas.Screen,5_0_0_0_1_0_2,NA,NA,timeout,4991.4890000001,2065366.6,2065362.617,2065378.937,2070354.236,2070355.4000001,2023-04-16T16:36:08Z,2070370.426,NULL,Abrechnung,uhasibu,d,NA,NA,NA,NA,sdf,0,0,NA,NA,NA,NA,NA,NA,NA,NA,NA,NA,NA,NA,NA,NA,NA,NA,NA,NA,NA
46b36,deep,flow.Sequence,5_0_0_0_1_0,NA,NA,completion,9556.8700000001,2060783.2,2060780.812,2060797.366,2070354.236,2070356,2023-04-16T16:36:08Z,2070370.426,NULL,Abrechnung,uhasibu,d,NA,NA,NA,NA,sdf,NA,0,NA,NA,NA,NA,NA,NA,NA,NA,NA,NA,NA,NA,NA,NA,NA,NA,NA,NA,NA
46b36,shallow,flow.Sequence,5_0_0_0_1_1,NA,NA,skipped,NA,2070356.1,NA,NA,2070354.236,2070356.3000001,2023-04-16T16:36:08Z,2070370.426,NULL,Abrechnung,uhasibu,d,NA,NA,NA,NA,sdf,NA,0,NA,NA,NA,NA,NA,NA,NA,NA,NA,NA,NA,NA,NA,NA,NA,NA,NA,NA,NA
46b36,task,flow.Sequence,5_0_0_0_1,NA,NA,completion,9556.8700000001,2060783.2,2060780.812,2060797.366,2070354.236,2070356.5,2023-04-16T16:36:08Z,2070370.426,NULL,Abrechnung,uhasibu,d,NA,NA,NA,NA,sdf,NA,0,NA,NA,NA,NA,NA,NA,NA,NA,NA,NA,NA,NA,NA,NA,NA,NA,NA,NA,NA
46b36,deep,flow.Sequence,5_0_0_0_2_0,NA,NA,skipped,NA,2070356.7,NA,NA,2070354.236,2070356.9000001,2023-04-16T16:36:08Z,2070370.426,NULL,Angreifer,mshambulizi,s,kitengo,tasinia,usafirishaji,NA,sdf,NA,0,NA,NA,NA,NA,NA,NA,NA,NA,NA,NA,NA,NA,NA,NA,NA,NA,NA,NA,NA
46b36,Shallow Question,html.Page,5_0_0_0_2_1_0,NA,NA,form submission,4087.8740000715,2070357,2070354.236,2070370.426,2074458.3000001,2074458.5,2023-04-16T16:36:13Z,2074460.206,NULL,Angreifer,mshambulizi,s,kitengo,tasinia,usafirishaji,tasinia,NA,NA,0,NA,NA,NA,NA,NA,NA,NA,NA,NA,NA,NA,NA,NA,NA,NA,NA,NA,NA,NA
46b36,"""Richtig""-Screen",canvas.Screen,5_0_0_0_2_1_1,NA,NA,skipped,NA,2074460.5,NA,NA,2074458.3000001,2074460.6,2023-04-16T16:36:13Z,2074460.206,NULL,Angreifer,mshambulizi,s,kitengo,tasinia,usafirishaji,NA,sdf,NA,0,NA,NA,NA,NA,NA,NA,NA,NA,NA,NA,NA,NA,NA,NA,NA,NA,NA,NA,NA
46b36,"""Falsch""-Screen",canvas.Screen,5_0_0_0_2_1_2,NA,NA,timeout,4991.5619999999,2074461.3000001,2074448.09,2074460.206,2079435.615,2079436.7,2023-04-16T16:36:17Z,2079451.768,NULL,Angreifer,mshambulizi,s,kitengo,tasinia,usafirishaji,NA,sdf,0,0,NA,NA,NA,NA,NA,NA,NA,NA,NA,NA,NA,NA,NA,NA,NA,NA,NA,NA,NA
46b36,shallow,flow.Sequence,5_0_0_0_2_1,NA,NA,completion,9065.189,2070357,2070354.236,2070370.426,2079435.615,2079437.2,2023-04-16T16:36:17Z,2079451.768,NULL,Angreifer,mshambulizi,s,kitengo,tasinia,usafirishaji,NA,sdf,NA,0,NA,NA,NA,NA,NA,NA,NA,NA,NA,NA,NA,NA,NA,NA,NA,NA,NA,NA,NA
46b36,task,flow.Sequence,5_0_0_0_2,NA,NA,completion,9065.189,2070356.6,2070354.236,2070370.426,2079435.615,2079437.5,2023-04-16T16:36:17Z,2079451.768,NULL,Angreifer,mshambulizi,s,kitengo,tasinia,usafirishaji,NA,sdf,NA,0,NA,NA,NA,NA,NA,NA,NA,NA,NA,NA,NA,NA,NA,NA,NA,NA,NA,NA,NA
46b36,deep,flow.Sequence,5_0_0_0_3_0,NA,NA,skipped,NA,2079437.6,NA,NA,2079435.615,2079437.8000001,2023-04-16T16:36:17Z,2079451.768,NULL,Wechsel,ugeuzaji,s,utambulisho,kujenga,wasiwasi,NA,sdf,NA,0,NA,NA,NA,NA,NA,NA,NA,NA,NA,NA,NA,NA,NA,NA,NA,NA,NA,NA,NA
46b36,Shallow Question,html.Page,5_0_0_0_3_1_0,NA,NA,form submission,3535.0320000716,2079438,2079435.615,2079451.768,2082986.8000001,2082987,2023-04-16T16:36:21Z,2083000.69,NULL,Wechsel,ugeuzaji,s,utambulisho,kujenga,wasiwasi,wasiwasi,NA,NA,0,NA,NA,NA,NA,NA,NA,NA,NA,NA,NA,NA,NA,NA,NA,NA,NA,NA,NA,NA
46b36,"""Richtig""-Screen",canvas.Screen,5_0_0_0_3_1_1,NA,NA,skipped,NA,2082988.9000001,NA,NA,2082986.8000001,2082989,2023-04-16T16:36:21Z,2083000.69,NULL,Wechsel,ugeuzaji,s,utambulisho,kujenga,wasiwasi,NA,sdf,NA,0,NA,NA,NA,NA,NA,NA,NA,NA,NA,NA,NA,NA,NA,NA,NA,NA,NA,NA,NA
46b36,"""Falsch""-Screen",canvas.Screen,5_0_0_0_3_1_2,NA,NA,timeout,4995.473,2082989.7,2082976.001,2083000.69,2087980.076,2087981.1,2023-04-16T16:36:26Z,2087996.163,NULL,Wechsel,ugeuzaji,s,utambulisho,kujenga,wasiwasi,NA,sdf,0,0,NA,NA,NA,NA,NA,NA,NA,NA,NA,NA,NA,NA,NA,NA,NA,NA,NA,NA,NA
46b36,shallow,flow.Sequence,5_0_0_0_3_1,NA,NA,completion,8528.308,2079437.9000001,2079435.615,2079451.768,2087980.076,2087981.6,2023-04-16T16:36:26Z,2087996.163,NULL,Wechsel,ugeuzaji,s,utambulisho,kujenga,wasiwasi,NA,sdf,NA,0,NA,NA,NA,NA,NA,NA,NA,NA,NA,NA,NA,NA,NA,NA,NA,NA,NA,NA,NA
46b36,task,flow.Sequence,5_0_0_0_3,NA,NA,completion,8528.308,2079437.6,2079435.615,2079451.768,2087980.076,2087981.8000001,2023-04-16T16:36:26Z,2087996.163,NULL,Wechsel,ugeuzaji,s,utambulisho,kujenga,wasiwasi,NA,sdf,NA,0,NA,NA,NA,NA,NA,NA,NA,NA,NA,NA,NA,NA,NA,NA,NA,NA,NA,NA,NA
46b36,Deep Question,html.Page,5_0_0_0_4_0_0,NA,NA,form submission,4861.8370000001,2087982,2087980.076,2087996.163,2092858,2092858.2,2023-04-16T16:36:31Z,2092865.329,NULL,Flexibilität,kubadilika,d,NA,NA,NA,wasiwusi,NA,NA,0,NA,NA,NA,NA,NA,NA,NA,NA,NA,NA,NA,NA,NA,NA,NA,NA,NA,NA,NA
46b36,"""Richtig""-Screen",canvas.Screen,5_0_0_0_4_0_1,NA,NA,skipped,NA,2092860.2,NA,NA,2092858,2092860.3000001,2023-04-16T16:36:31Z,2092865.329,NULL,Flexibilität,kubadilika,d,NA,NA,NA,NA,sdf,NA,0,NA,NA,NA,NA,NA,NA,NA,NA,NA,NA,NA,NA,NA,NA,NA,NA,NA,NA,NA
46b36,"""Falsch""-Screen",canvas.Screen,5_0_0_0_4_0_2,NA,NA,timeout,4996.1880000001,2092860.9000001,2092853.303,2092865.329,2097844.885,2097845.9000001,2023-04-16T16:36:36Z,2097861.517,NULL,Flexibilität,kubadilika,d,NA,NA,NA,NA,sdf,0,0,NA,NA,NA,NA,NA,NA,NA,NA,NA,NA,NA,NA,NA,NA,NA,NA,NA,NA,NA
46b36,deep,flow.Sequence,5_0_0_0_4_0,NA,NA,completion,9848.7219999998,2087982,2087980.076,2087996.163,2097844.885,2097846.3000001,2023-04-16T16:36:36Z,2097861.517,NULL,Flexibilität,kubadilika,d,NA,NA,NA,NA,sdf,NA,0,NA,NA,NA,NA,NA,NA,NA,NA,NA,NA,NA,NA,NA,NA,NA,NA,NA,NA,NA
46b36,shallow,flow.Sequence,5_0_0_0_4_1,NA,NA,skipped,NA,2097846.5,NA,NA,2097844.885,2097846.6,2023-04-16T16:36:36Z,2097861.517,NULL,Flexibilität,kubadilika,d,NA,NA,NA,NA,sdf,NA,0,NA,NA,NA,NA,NA,NA,NA,NA,NA,NA,NA,NA,NA,NA,NA,NA,NA,NA,NA
46b36,task,flow.Sequence,5_0_0_0_4,NA,NA,completion,9848.7219999998,2087981.9000001,2087980.076,2087996.163,2097844.885,2097846.9000001,2023-04-16T16:36:36Z,2097861.517,NULL,Flexibilität,kubadilika,d,NA,NA,NA,NA,sdf,NA,0,NA,NA,NA,NA,NA,NA,NA,NA,NA,NA,NA,NA,NA,NA,NA,NA,NA,NA,NA
46b36,Deep Question,html.Page,5_0_0_0_5_0_0,NA,NA,form submission,7980.5830000238,2097847.1,2097844.885,2097861.517,2105842.1,2105842.3000001,2023-04-16T16:36:44Z,2105859.107,NULL,Atmosphäre,angahewa,d,NA,NA,NA,tambuto,NA,NA,0,NA,NA,NA,NA,NA,NA,NA,NA,NA,NA,NA,NA,NA,NA,NA,NA,NA,NA,NA
46b36,"""Richtig""-Screen",canvas.Screen,5_0_0_0_5_0_1,NA,NA,skipped,NA,2105844.3000001,NA,NA,2105842.1,2105844.5,2023-04-16T16:36:44Z,2105859.107,NULL,Atmosphäre,angahewa,d,NA,NA,NA,NA,sdf,NA,0,NA,NA,NA,NA,NA,NA,NA,NA,NA,NA,NA,NA,NA,NA,NA,NA,NA,NA,NA
46b36,"""Falsch""-Screen",canvas.Screen,5_0_0_0_5_0_2,NA,NA,timeout,4995.9730000002,2105845,2105830.448,2105859.107,2110838.567,2110839.6,2023-04-16T16:36:49Z,2110855.08,NULL,Atmosphäre,angahewa,d,NA,NA,NA,NA,sdf,0,0,NA,NA,NA,NA,NA,NA,NA,NA,NA,NA,NA,NA,NA,NA,NA,NA,NA,NA,NA
46b36,deep,flow.Sequence,5_0_0_0_5_0,NA,NA,completion,12977.05,2097847.1,2097844.885,2097861.517,2110838.567,2110840.1,2023-04-16T16:36:49Z,2110855.08,NULL,Atmosphäre,angahewa,d,NA,NA,NA,NA,sdf,NA,0,NA,NA,NA,NA,NA,NA,NA,NA,NA,NA,NA,NA,NA,NA,NA,NA,NA,NA,NA
46b36,shallow,flow.Sequence,5_0_0_0_5_1,NA,NA,skipped,NA,2110840.4000001,NA,NA,2110838.567,2110840.5,2023-04-16T16:36:49Z,2110855.08,NULL,Atmosphäre,angahewa,d,NA,NA,NA,NA,sdf,NA,0,NA,NA,NA,NA,NA,NA,NA,NA,NA,NA,NA,NA,NA,NA,NA,NA,NA,NA,NA
46b36,task,flow.Sequence,5_0_0_0_5,NA,NA,completion,12977.05,2097847,2097844.885,2097861.517,2110838.567,2110840.8000001,2023-04-16T16:36:49Z,2110855.08,NULL,Atmosphäre,angahewa,d,NA,NA,NA,NA,sdf,NA,0,NA,NA,NA,NA,NA,NA,NA,NA,NA,NA,NA,NA,NA,NA,NA,NA,NA,NA,NA
46b36,deep,flow.Sequence,5_0_0_0_6_0,NA,NA,skipped,NA,2110841,NA,NA,2110838.567,2110841.1,2023-04-16T16:36:49Z,2110855.08,NULL,Sänger,mwimbaji,s,msichana,shughuli,mshirika,NA,sdf,NA,0,NA,NA,NA,NA,NA,NA,NA,NA,NA,NA,NA,NA,NA,NA,NA,NA,NA,NA,NA
46b36,Shallow Question,html.Page,5_0_0_0_6_1_0,NA,NA,form submission,4682.7200000715,2110841.3000001,2110838.567,2110855.08,2115537.8000001,2115538,2023-04-16T16:36:54Z,2115545.168,NULL,Sänger,mwimbaji,s,msichana,shughuli,mshirika,shughuli,NA,NA,0,NA,NA,NA,NA,NA,NA,NA,NA,NA,NA,NA,NA,NA,NA,NA,NA,NA,NA,NA
46b36,"""Richtig""-Screen",canvas.Screen,5_0_0_0_6_1_1,NA,NA,skipped,NA,2115540,NA,NA,2115537.8000001,2115540.2,2023-04-16T16:36:54Z,2115545.168,NULL,Sänger,mwimbaji,s,msichana,shughuli,mshirika,NA,sdf,NA,0,NA,NA,NA,NA,NA,NA,NA,NA,NA,NA,NA,NA,NA,NA,NA,NA,NA,NA,NA
46b36,"""Falsch""-Screen",canvas.Screen,5_0_0_0_6_1_2,NA,NA,timeout,4991.3050000002,2115540.6,2115537.083,2115545.168,2120520.302,2120521.5,2023-04-16T16:36:59Z,2120536.473,NULL,Sänger,mwimbaji,s,msichana,shughuli,mshirika,NA,sdf,0,0,NA,NA,NA,NA,NA,NA,NA,NA,NA,NA,NA,NA,NA,NA,NA,NA,NA,NA,NA
46b36,shallow,flow.Sequence,5_0_0_0_6_1,NA,NA,completion,9665.2220000001,2110841.3000001,2110838.567,2110855.08,2120520.302,2120522.1,2023-04-16T16:36:59Z,2120536.473,NULL,Sänger,mwimbaji,s,msichana,shughuli,mshirika,NA,sdf,NA,0,NA,NA,NA,NA,NA,NA,NA,NA,NA,NA,NA,NA,NA,NA,NA,NA,NA,NA,NA
46b36,task,flow.Sequence,5_0_0_0_6,NA,NA,completion,9665.2220000001,2110840.9000001,2110838.567,2110855.08,2120520.302,2120522.4000001,2023-04-16T16:36:59Z,2120536.473,NULL,Sänger,mwimbaji,s,msichana,shughuli,mshirika,NA,sdf,NA,0,NA,NA,NA,NA,NA,NA,NA,NA,NA,NA,NA,NA,NA,NA,NA,NA,NA,NA,NA
