observation,sender,sender_type,sender_id,response,response_action,ended_on,duration,time_run,time_render,time_show,time_end,time_commit,timestamp,time_switch,german,swahili,enc,distractor1,distractor2,distractor3,response_2,x,correct,distractors,url_vp,url_sess,meta_labjs_version,meta_location,meta_user_agent,meta_platform,meta_language,meta_locale,meta_time_zone,meta_timezone_offset,meta_screen_width,meta_screen_height,meta_scroll_width,meta_scroll_height,meta_window_inner_width,meta_window_inner_height,meta_device_pixel_ratio,meta_labjs_build_flavor,meta_labjs_build_commit
744d4,Introduction delayed retrieval,canvas.Screen,0,weiter,keypress(Space),response,21299.171999988,1943.099999994,1946.885,1963.528,23262.699999988,23264.799999982,2023-04-29T14:17:00Z,23294.969,NA,NA,NA,NA,NA,NA,NA,NA,NA,NULL,212,2,20.2.4,https://neurocog.fernuni.ch/studies/vweber/sfink/delayed/index.html?vp=212&sess=2,"Mozilla/5.0 (Windows NT 10.0; Win64; x64) AppleWebKit/537.36 (KHTML, like Gecko) Chrome/112.0.0.0 Safari/537.36",Win32,de-DE,de,Europe/Zurich,-120,1440,960,1440,793,1440,841,1.5,production,f5b4a49f956347addd546a832a3327688c2c0fef
744d4,Deep Question,html.Page,1_0_0_0,NA,NA,form submission,9844.630999994,23265.400000006,23255.326,23294.969,33139.599999994,33140,2023-04-29T14:17:10Z,33157.12,Widerstand,usulubu,d,kusababisha,mwalimu,mwenendo,usululu,NA,NA,NULL,NA,NA,NA,NA,NA,NA,NA,NA,NA,NA,NA,NA,NA,NA,NA,NA,NA,NA,NA
744d4,Save data screen,canvas.Screen,1_0_0_1,NA,NA,timeout,506.95299999999,33141.199999988,33140.402,33157.12,33647.444,33655,2023-04-29T14:17:11Z,33664.073,Widerstand,usulubu,d,kusababisha,mwalimu,mwenendo,NA,NA,0,NULL,NA,NA,NA,NA,NA,NA,NA,NA,NA,NA,NA,NA,NA,NA,NA,NA,NA,NA,NA
744d4,deep,flow.Sequence,1_0_0,NA,NA,completion,10352.475,23265.400000006,23255.326,23294.969,33647.444,33655.5,2023-04-29T14:17:11Z,33664.073,Widerstand,usulubu,d,kusababisha,mwalimu,mwenendo,NA,NA,NA,NULL,NA,NA,NA,NA,NA,NA,NA,NA,NA,NA,NA,NA,NA,NA,NA,NA,NA,NA,NA
744d4,task,flow.Sequence,1_0,NA,NA,completion,10352.475,23265.299999982,23255.326,23294.969,33647.444,33655.699999988,2023-04-29T14:17:11Z,33664.073,Widerstand,usulubu,d,kusababisha,mwalimu,mwenendo,NA,NA,NA,NULL,NA,NA,NA,NA,NA,NA,NA,NA,NA,NA,NA,NA,NA,NA,NA,NA,NA,NA,NA
744d4,Deep Question,html.Page,1_1_0_0,NA,NA,form submission,4227.2269999821,33655.900000006,33647.444,33664.073,37891.299999982,37891.599999994,2023-04-29T14:17:15Z,37909.702,Annäherung,maegesho,d,madahili,kujiamini,mapendekezo,k,NA,NA,NULL,NA,NA,NA,NA,NA,NA,NA,NA,NA,NA,NA,NA,NA,NA,NA,NA,NA,NA,NA
744d4,Save data screen,canvas.Screen,1_1_0_1,NA,NA,timeout,498.013,37892.599999994,37875.078,37909.702,38391.029,38391.799999982,2023-04-29T14:17:15Z,38407.715,Annäherung,maegesho,d,madahili,kujiamini,mapendekezo,NA,NA,0,NULL,NA,NA,NA,NA,NA,NA,NA,NA,NA,NA,NA,NA,NA,NA,NA,NA,NA,NA,NA
744d4,deep,flow.Sequence,1_1_0,NA,NA,completion,4726.956,33655.799999982,33647.444,33664.073,38391.029,38392.099999994,2023-04-29T14:17:15Z,38407.715,Annäherung,maegesho,d,madahili,kujiamini,mapendekezo,NA,NA,NA,NULL,NA,NA,NA,NA,NA,NA,NA,NA,NA,NA,NA,NA,NA,NA,NA,NA,NA,NA,NA
744d4,task,flow.Sequence,1_1,NA,NA,completion,4726.956,33655.799999982,33647.444,33664.073,38391.029,38392.199999988,2023-04-29T14:17:15Z,38407.715,Annäherung,maegesho,d,madahili,kujiamini,mapendekezo,NA,NA,NA,NULL,NA,NA,NA,NA,NA,NA,NA,NA,NA,NA,NA,NA,NA,NA,NA,NA,NA,NA,NA
744d4,Deep Question,html.Page,1_2_0_0,NA,NA,form submission,7956.9849999881,38392.5,38391.029,38407.715,46364.699999988,46365,2023-04-29T14:17:23Z,46393.94,Wettbewerb,ushindani,s,mapendezi,kichocheo,ubaguzi,perskindani,NA,NA,NULL,NA,NA,NA,NA,NA,NA,NA,NA,NA,NA,NA,NA,NA,NA,NA,NA,NA,NA,NA
744d4,Save data screen,canvas.Screen,1_2_0_1,NA,NA,timeout,504.229,46365.900000006,46357.904,46393.94,46881.459,46882.199999988,2023-04-29T14:17:24Z,46898.169,Wettbewerb,ushindani,s,mapendezi,kichocheo,ubaguzi,NA,NA,0,NULL,NA,NA,NA,NA,NA,NA,NA,NA,NA,NA,NA,NA,NA,NA,NA,NA,NA,NA,NA
744d4,deep,flow.Sequence,1_2_0,NA,NA,completion,8473.744,38392.5,38391.029,38407.715,46881.459,46882.5,2023-04-29T14:17:24Z,46898.169,Wettbewerb,ushindani,s,mapendezi,kichocheo,ubaguzi,NA,NA,NA,NULL,NA,NA,NA,NA,NA,NA,NA,NA,NA,NA,NA,NA,NA,NA,NA,NA,NA,NA,NA
744d4,task,flow.Sequence,1_2,NA,NA,completion,8473.744,38392.400000006,38391.029,38407.715,46881.459,46882.799999982,2023-04-29T14:17:24Z,46898.169,Wettbewerb,ushindani,s,mapendezi,kichocheo,ubaguzi,NA,NA,NA,NULL,NA,NA,NA,NA,NA,NA,NA,NA,NA,NA,NA,NA,NA,NA,NA,NA,NA,NA,NA
744d4,Deep Question,html.Page,1_3_0_0,NA,NA,form submission,4130.231000006,46882.900000006,46881.459,46898.169,51028.400000006,51028.699999988,2023-04-29T14:17:28Z,51048.697,Sympathie,mapendano,d,dhamiria,fungamano,maazimio,b,NA,NA,NULL,NA,NA,NA,NA,NA,NA,NA,NA,NA,NA,NA,NA,NA,NA,NA,NA,NA,NA,NA
744d4,Save data screen,canvas.Screen,1_3_0_1,NA,NA,timeout,501.451,51029.400000006,51026.968,51048.697,51533.44,51534.099999994,2023-04-29T14:17:29Z,51550.148,Sympathie,mapendano,d,dhamiria,fungamano,maazimio,NA,NA,0,NULL,NA,NA,NA,NA,NA,NA,NA,NA,NA,NA,NA,NA,NA,NA,NA,NA,NA,NA,NA
744d4,deep,flow.Sequence,1_3_0,NA,NA,completion,4635.271,46882.799999982,46881.459,46898.169,51533.44,51534.400000006,2023-04-29T14:17:29Z,51550.148,Sympathie,mapendano,d,dhamiria,fungamano,maazimio,NA,NA,NA,NULL,NA,NA,NA,NA,NA,NA,NA,NA,NA,NA,NA,NA,NA,NA,NA,NA,NA,NA,NA
744d4,task,flow.Sequence,1_3,NA,NA,completion,4635.271,46882.799999982,46881.459,46898.169,51533.44,51534.400000006,2023-04-29T14:17:29Z,51550.148,Sympathie,mapendano,d,dhamiria,fungamano,maazimio,NA,NA,NA,NULL,NA,NA,NA,NA,NA,NA,NA,NA,NA,NA,NA,NA,NA,NA,NA,NA,NA,NA,NA
744d4,Deep Question,html.Page,1_4_0_0,NA,NA,form submission,4900.752000006,51534.699999988,51533.44,51550.148,56450.900000006,56451.099999994,2023-04-29T14:17:33Z,56478.48,Polizist,msongora,s,simanzi,mandhari,nidhamu,upamagu,NA,NA,NULL,NA,NA,NA,NA,NA,NA,NA,NA,NA,NA,NA,NA,NA,NA,NA,NA,NA,NA,NA
744d4,Save data screen,canvas.Screen,1_4_0_1,NA,NA,timeout,495.392,56451.900000006,56448.866,56478.48,56957.227,56959.699999988,2023-04-29T14:17:34Z,56973.872,Polizist,msongora,s,simanzi,mandhari,nidhamu,NA,NA,0,NULL,NA,NA,NA,NA,NA,NA,NA,NA,NA,NA,NA,NA,NA,NA,NA,NA,NA,NA,NA
744d4,deep,flow.Sequence,1_4_0,NA,NA,completion,5407.079,51534.599999994,51533.44,51550.148,56957.227,56960,2023-04-29T14:17:34Z,56973.872,Polizist,msongora,s,simanzi,mandhari,nidhamu,NA,NA,NA,NULL,NA,NA,NA,NA,NA,NA,NA,NA,NA,NA,NA,NA,NA,NA,NA,NA,NA,NA,NA
744d4,task,flow.Sequence,1_4,NA,NA,completion,5407.079,51534.5,51533.44,51550.148,56957.227,56960.099999994,2023-04-29T14:17:34Z,56973.872,Polizist,msongora,s,simanzi,mandhari,nidhamu,NA,NA,NA,NULL,NA,NA,NA,NA,NA,NA,NA,NA,NA,NA,NA,NA,NA,NA,NA,NA,NA,NA,NA
744d4,Deep Question,html.Page,1_5_0_0,NA,NA,form submission,9863.9279999821,56960.299999982,56957.227,56973.872,66837.799999982,66838.099999994,2023-04-29T14:17:44Z,66838.889,Konkurrent,mshindani,s,msemaji,mvutaji,kipukusa,upimdani,NA,NA,NULL,NA,NA,NA,NA,NA,NA,NA,NA,NA,NA,NA,NA,NA,NA,NA,NA,NA,NA,NA
744d4,Save data screen,canvas.Screen,1_5_0_1,NA,NA,timeout,503.31300000001,66841.699999988,66822.381,66838.889,67325.587,67326.299999982,2023-04-29T14:17:44Z,67342.202,Konkurrent,mshindani,s,msemaji,mvutaji,kipukusa,NA,NA,0,NULL,NA,NA,NA,NA,NA,NA,NA,NA,NA,NA,NA,NA,NA,NA,NA,NA,NA,NA,NA
744d4,deep,flow.Sequence,1_5_0,NA,NA,completion,10351.715,56960.299999982,56957.227,56973.872,67325.587,67326.5,2023-04-29T14:17:44Z,67342.202,Konkurrent,mshindani,s,msemaji,mvutaji,kipukusa,NA,NA,NA,NULL,NA,NA,NA,NA,NA,NA,NA,NA,NA,NA,NA,NA,NA,NA,NA,NA,NA,NA,NA
744d4,task,flow.Sequence,1_5,NA,NA,completion,10351.715,56960.199999988,56957.227,56973.872,67325.587,67326.699999988,2023-04-29T14:17:44Z,67342.202,Konkurrent,mshindani,s,msemaji,mvutaji,kipukusa,NA,NA,NA,NULL,NA,NA,NA,NA,NA,NA,NA,NA,NA,NA,NA,NA,NA,NA,NA,NA,NA,NA,NA
744d4,Deep Question,html.Page,1_6_0_0,NA,NA,form submission,4014.698000006,67326.900000006,67325.587,67342.202,71356.900000006,71357.099999994,2023-04-29T14:17:48Z,71389.538,Auftrag,uagizaji,s,ghanima,kuzingatia,msukani,b,NA,NA,NULL,NA,NA,NA,NA,NA,NA,NA,NA,NA,NA,NA,NA,NA,NA,NA,NA,NA,NA,NA
744d4,Save data screen,canvas.Screen,1_6_0_1,NA,NA,timeout,502.584,71359.900000006,71340.176,71389.538,71875.448,71876.099999994,2023-04-29T14:17:49Z,71892.122,Auftrag,uagizaji,s,ghanima,kuzingatia,msukani,NA,NA,0,NULL,NA,NA,NA,NA,NA,NA,NA,NA,NA,NA,NA,NA,NA,NA,NA,NA,NA,NA,NA
744d4,deep,flow.Sequence,1_6_0,NA,NA,completion,4533.246,67326.799999982,67325.587,67342.202,71875.448,71876.199999988,2023-04-29T14:17:49Z,71892.122,Auftrag,uagizaji,s,ghanima,kuzingatia,msukani,NA,NA,NA,NULL,NA,NA,NA,NA,NA,NA,NA,NA,NA,NA,NA,NA,NA,NA,NA,NA,NA,NA,NA
744d4,task,flow.Sequence,1_6,NA,NA,completion,4533.246,67326.699999988,67325.587,67342.202,71875.448,71876.400000006,2023-04-29T14:17:49Z,71892.122,Auftrag,uagizaji,s,ghanima,kuzingatia,msukani,NA,NA,NA,NULL,NA,NA,NA,NA,NA,NA,NA,NA,NA,NA,NA,NA,NA,NA,NA,NA,NA,NA,NA
744d4,Deep Question,html.Page,1_7_0_0,NA,NA,form submission,2274.1779999821,71876.599999994,71875.448,71892.122,74166.299999982,74166.699999988,2023-04-29T14:17:51Z,74188.829,Symbol,kielezo,d,kinyume,nderemo,utayari,b,NA,NA,NULL,NA,NA,NA,NA,NA,NA,NA,NA,NA,NA,NA,NA,NA,NA,NA,NA,NA,NA,NA
744d4,Save data screen,canvas.Screen,1_7_0_1,NA,NA,timeout,501.848,74167.5,74160.534,74188.829,74673.999,74674.699999988,2023-04-29T14:17:52Z,74690.677,Symbol,kielezo,d,kinyume,nderemo,utayari,NA,NA,0,NULL,NA,NA,NA,NA,NA,NA,NA,NA,NA,NA,NA,NA,NA,NA,NA,NA,NA,NA,NA
744d4,deep,flow.Sequence,1_7_0,NA,NA,completion,2781.877,71876.5,71875.448,71892.122,74673.999,74674.900000006,2023-04-29T14:17:52Z,74690.677,Symbol,kielezo,d,kinyume,nderemo,utayari,NA,NA,NA,NULL,NA,NA,NA,NA,NA,NA,NA,NA,NA,NA,NA,NA,NA,NA,NA,NA,NA,NA,NA
744d4,task,flow.Sequence,1_7,NA,NA,completion,2781.877,71876.5,71875.448,71892.122,74673.999,74675.099999994,2023-04-29T14:17:52Z,74690.677,Symbol,kielezo,d,kinyume,nderemo,utayari,NA,NA,NA,NULL,NA,NA,NA,NA,NA,NA,NA,NA,NA,NA,NA,NA,NA,NA,NA,NA,NA,NA,NA
744d4,Deep Question,html.Page,1_8_0_0,NA,NA,form submission,4967.922999994,74675.199999988,74673.999,74690.677,79658.599999994,79658.900000006,2023-04-29T14:17:57Z,79681.026,Gelegenheit,wakati,s,mchanganyiko,kipaumbele,kushuku,b,NA,NA,NULL,NA,NA,NA,NA,NA,NA,NA,NA,NA,NA,NA,NA,NA,NA,NA,NA,NA,NA,NA
744d4,Save data screen,canvas.Screen,1_8_0_1,NA,NA,timeout,502.039,79661.199999988,79644.073,79681.026,80166.354,80167.199999988,2023-04-29T14:17:57Z,80183.065,Gelegenheit,wakati,s,mchanganyiko,kipaumbele,kushuku,NA,NA,0,NULL,NA,NA,NA,NA,NA,NA,NA,NA,NA,NA,NA,NA,NA,NA,NA,NA,NA,NA,NA
744d4,deep,flow.Sequence,1_8_0,NA,NA,completion,5475.677,74675.199999988,74673.999,74690.677,80166.354,80167.299999982,2023-04-29T14:17:57Z,80183.065,Gelegenheit,wakati,s,mchanganyiko,kipaumbele,kushuku,NA,NA,NA,NULL,NA,NA,NA,NA,NA,NA,NA,NA,NA,NA,NA,NA,NA,NA,NA,NA,NA,NA,NA
744d4,task,flow.Sequence,1_8,NA,NA,completion,5475.677,74675.199999988,74673.999,74690.677,80166.354,80167.599999994,2023-04-29T14:17:57Z,80183.065,Gelegenheit,wakati,s,mchanganyiko,kipaumbele,kushuku,NA,NA,NA,NULL,NA,NA,NA,NA,NA,NA,NA,NA,NA,NA,NA,NA,NA,NA,NA,NA,NA,NA,NA
744d4,Deep Question,html.Page,1_9_0_0,NA,NA,form submission,7603.534999994,80167.699999988,80166.354,80183.065,87786.599999994,87786.900000006,2023-04-29T14:18:05Z,87811.801,Zufall,kikuti,d,kukosekana,uchoraji,leseni,usululu,NA,NA,NULL,NA,NA,NA,NA,NA,NA,NA,NA,NA,NA,NA,NA,NA,NA,NA,NA,NA,NA,NA
744d4,Save data screen,canvas.Screen,1_9_0_1,NA,NA,timeout,502.75899999999,87791,87771.963,87811.801,88297.672,88298.400000006,2023-04-29T14:18:05Z,88314.56,Zufall,kikuti,d,kukosekana,uchoraji,leseni,NA,NA,0,NULL,NA,NA,NA,NA,NA,NA,NA,NA,NA,NA,NA,NA,NA,NA,NA,NA,NA,NA,NA
744d4,deep,flow.Sequence,1_9_0,NA,NA,completion,8114.607,80167.599999994,80166.354,80183.065,88297.672,88298.599999994,2023-04-29T14:18:05Z,88314.56,Zufall,kikuti,d,kukosekana,uchoraji,leseni,NA,NA,NA,NULL,NA,NA,NA,NA,NA,NA,NA,NA,NA,NA,NA,NA,NA,NA,NA,NA,NA,NA,NA
744d4,task,flow.Sequence,1_9,NA,NA,completion,8114.607,80167.599999994,80166.354,80183.065,88297.672,88298.799999982,2023-04-29T14:18:05Z,88314.56,Zufall,kikuti,d,kukosekana,uchoraji,leseni,NA,NA,NA,NULL,NA,NA,NA,NA,NA,NA,NA,NA,NA,NA,NA,NA,NA,NA,NA,NA,NA,NA,NA
744d4,Deep Question,html.Page,1_10_0_0,NA,NA,form submission,19123.739999982,88299.099999994,88297.672,88314.56,107438.29999998,107438.59999999,2023-04-29T14:18:24Z,107439.697,Vorsorge,tahadhari,s,ufafanuzi,makini,mashambani,b,NA,NA,NULL,NA,NA,NA,NA,NA,NA,NA,NA,NA,NA,NA,NA,NA,NA,NA,NA,NA,NA,NA
744d4,Save data screen,canvas.Screen,1_10_0_1,NA,NA,timeout,503.046,107442.29999998,107423.424,107439.697,107926.076,107928.69999999,2023-04-29T14:18:25Z,107942.743,Vorsorge,tahadhari,s,ufafanuzi,makini,mashambani,NA,NA,0,NULL,NA,NA,NA,NA,NA,NA,NA,NA,NA,NA,NA,NA,NA,NA,NA,NA,NA,NA,NA
744d4,deep,flow.Sequence,1_10_0,NA,NA,completion,19611.516,88299,88297.672,88314.56,107926.076,107928.90000001,2023-04-29T14:18:25Z,107942.743,Vorsorge,tahadhari,s,ufafanuzi,makini,mashambani,NA,NA,NA,NULL,NA,NA,NA,NA,NA,NA,NA,NA,NA,NA,NA,NA,NA,NA,NA,NA,NA,NA,NA
744d4,task,flow.Sequence,1_10,NA,NA,completion,19611.516,88298.900000006,88297.672,88314.56,107926.076,107929,2023-04-29T14:18:25Z,107942.743,Vorsorge,tahadhari,s,ufafanuzi,makini,mashambani,NA,NA,NA,NULL,NA,NA,NA,NA,NA,NA,NA,NA,NA,NA,NA,NA,NA,NA,NA,NA,NA,NA,NA
744d4,Deep Question,html.Page,1_11_0_0,NA,NA,form submission,3184.0569999821,107929.19999999,107926.076,107942.743,111126.79999998,111127.19999999,2023-04-29T14:18:28Z,111135.591,Zuwachs,nyongeza,d,matilaba,udhibiti,hudhurio,b,NA,NA,NULL,NA,NA,NA,NA,NA,NA,NA,NA,NA,NA,NA,NA,NA,NA,NA,NA,NA,NA,NA
744d4,Save data screen,canvas.Screen,1_11_0_1,NA,NA,timeout,502.76300000001,111128.40000001,111120.682,111135.591,111621.689,111622.40000001,2023-04-29T14:18:29Z,111638.354,Zuwachs,nyongeza,d,matilaba,udhibiti,hudhurio,NA,NA,0,NULL,NA,NA,NA,NA,NA,NA,NA,NA,NA,NA,NA,NA,NA,NA,NA,NA,NA,NA,NA
744d4,deep,flow.Sequence,1_11_0,NA,NA,completion,3678.946,107929.19999999,107926.076,107942.743,111621.689,111622.69999999,2023-04-29T14:18:29Z,111638.354,Zuwachs,nyongeza,d,matilaba,udhibiti,hudhurio,NA,NA,NA,NULL,NA,NA,NA,NA,NA,NA,NA,NA,NA,NA,NA,NA,NA,NA,NA,NA,NA,NA,NA
744d4,task,flow.Sequence,1_11,NA,NA,completion,3678.946,107929.09999999,107926.076,107942.743,111621.689,111622.90000001,2023-04-29T14:18:29Z,111638.354,Zuwachs,nyongeza,d,matilaba,udhibiti,hudhurio,NA,NA,NA,NULL,NA,NA,NA,NA,NA,NA,NA,NA,NA,NA,NA,NA,NA,NA,NA,NA,NA,NA,NA
744d4,Deep Question,html.Page,1_12_0_0,NA,NA,form submission,3166.546000006,111623.09999999,111621.689,111638.354,114804.90000001,114805.09999999,2023-04-29T14:18:32Z,114837.582,Beweis,ushahidi,s,marudio,kizuizi,mtendaji,b,NA,NA,NULL,NA,NA,NA,NA,NA,NA,NA,NA,NA,NA,NA,NA,NA,NA,NA,NA,NA,NA,NA
744d4,Save data screen,canvas.Screen,1_12_0_1,NA,NA,timeout,502.171,114808.19999999,114792.654,114837.582,115323.111,115324.69999999,2023-04-29T14:18:32Z,115339.753,Beweis,ushahidi,s,marudio,kizuizi,mtendaji,NA,NA,0,NULL,NA,NA,NA,NA,NA,NA,NA,NA,NA,NA,NA,NA,NA,NA,NA,NA,NA,NA,NA
744d4,deep,flow.Sequence,1_12_0,NA,NA,completion,3684.757,111623.09999999,111621.689,111638.354,115323.111,115325,2023-04-29T14:18:32Z,115339.753,Beweis,ushahidi,s,marudio,kizuizi,mtendaji,NA,NA,NA,NULL,NA,NA,NA,NA,NA,NA,NA,NA,NA,NA,NA,NA,NA,NA,NA,NA,NA,NA,NA
744d4,task,flow.Sequence,1_12,NA,NA,completion,3684.757,111623,111621.689,111638.354,115323.111,115325.09999999,2023-04-29T14:18:32Z,115339.753,Beweis,ushahidi,s,marudio,kizuizi,mtendaji,NA,NA,NA,NULL,NA,NA,NA,NA,NA,NA,NA,NA,NA,NA,NA,NA,NA,NA,NA,NA,NA,NA,NA
744d4,Deep Question,html.Page,1_13_0_0,NA,NA,form submission,1747.147000006,115325.19999999,115323.111,115339.753,117086.90000001,117087.09999999,2023-04-29T14:18:34Z,117114.96,Verstand,ufahamivu,d,shakawa,hadhari,mhandisi,b,NA,NA,NULL,NA,NA,NA,NA,NA,NA,NA,NA,NA,NA,NA,NA,NA,NA,NA,NA,NA,NA,NA
744d4,Save data screen,canvas.Screen,1_13_0_1,NA,NA,timeout,502.16799999999,117087.79999998,117080.263,117114.96,117600.429,117602.09999999,2023-04-29T14:18:35Z,117617.128,Verstand,ufahamivu,d,shakawa,hadhari,mhandisi,NA,NA,0,NULL,NA,NA,NA,NA,NA,NA,NA,NA,NA,NA,NA,NA,NA,NA,NA,NA,NA,NA,NA
744d4,deep,flow.Sequence,1_13_0,NA,NA,completion,2260.676,115325.19999999,115323.111,115339.753,117600.429,117602.29999998,2023-04-29T14:18:35Z,117617.128,Verstand,ufahamivu,d,shakawa,hadhari,mhandisi,NA,NA,NA,NULL,NA,NA,NA,NA,NA,NA,NA,NA,NA,NA,NA,NA,NA,NA,NA,NA,NA,NA,NA
744d4,task,flow.Sequence,1_13,NA,NA,completion,2260.676,115325.19999999,115323.111,115339.753,117600.429,117602.40000001,2023-04-29T14:18:35Z,117617.128,Verstand,ufahamivu,d,shakawa,hadhari,mhandisi,NA,NA,NA,NULL,NA,NA,NA,NA,NA,NA,NA,NA,NA,NA,NA,NA,NA,NA,NA,NA,NA,NA,NA
744d4,Deep Question,html.Page,1_14_0_0,NA,NA,form submission,2661.372,117602.59999999,117600.429,117617.128,120278.5,120278.90000001,2023-04-29T14:18:37Z,120308.935,Schönheit,kirembo,d,mahojiano,msisimko,jitihadi,b,NA,NA,NULL,NA,NA,NA,NA,NA,NA,NA,NA,NA,NA,NA,NA,NA,NA,NA,NA,NA,NA,NA
744d4,Save data screen,canvas.Screen,1_14_0_1,NA,NA,timeout,502.06,120281.09999999,120265.191,120308.935,120794.31,120794.90000001,2023-04-29T14:18:38Z,120810.995,Schönheit,kirembo,d,mahojiano,msisimko,jitihadi,NA,NA,0,NULL,NA,NA,NA,NA,NA,NA,NA,NA,NA,NA,NA,NA,NA,NA,NA,NA,NA,NA,NA
744d4,deep,flow.Sequence,1_14_0,NA,NA,completion,3177.182,117602.5,117600.429,117617.128,120794.31,120795.09999999,2023-04-29T14:18:38Z,120810.995,Schönheit,kirembo,d,mahojiano,msisimko,jitihadi,NA,NA,NA,NULL,NA,NA,NA,NA,NA,NA,NA,NA,NA,NA,NA,NA,NA,NA,NA,NA,NA,NA,NA
744d4,task,flow.Sequence,1_14,NA,NA,completion,3177.182,117602.5,117600.429,117617.128,120794.31,120795.29999998,2023-04-29T14:18:38Z,120810.995,Schönheit,kirembo,d,mahojiano,msisimko,jitihadi,NA,NA,NA,NULL,NA,NA,NA,NA,NA,NA,NA,NA,NA,NA,NA,NA,NA,NA,NA,NA,NA,NA,NA
744d4,Deep Question,html.Page,1_15_0_0,NA,NA,form submission,4934.7049999881,120795.5,120794.31,120810.995,125745.69999999,125746.19999999,2023-04-29T14:18:43Z,125777.783,Ausschluss,kutengwa,s,ununuzi,taratibu,madeni,b,NA,NA,NULL,NA,NA,NA,NA,NA,NA,NA,NA,NA,NA,NA,NA,NA,NA,NA,NA,NA,NA,NA
744d4,Save data screen,canvas.Screen,1_15_0_1,NA,NA,timeout,502.02900000001,125748.59999999,125744.174,125777.783,126263.181,126265.19999999,2023-04-29T14:18:43Z,126279.812,Ausschluss,kutengwa,s,ununuzi,taratibu,madeni,NA,NA,0,NULL,NA,NA,NA,NA,NA,NA,NA,NA,NA,NA,NA,NA,NA,NA,NA,NA,NA,NA,NA
744d4,deep,flow.Sequence,1_15_0,NA,NA,completion,5452.186,120795.40000001,120794.31,120810.995,126263.181,126265.40000001,2023-04-29T14:18:43Z,126279.812,Ausschluss,kutengwa,s,ununuzi,taratibu,madeni,NA,NA,NA,NULL,NA,NA,NA,NA,NA,NA,NA,NA,NA,NA,NA,NA,NA,NA,NA,NA,NA,NA,NA
744d4,task,flow.Sequence,1_15,NA,NA,completion,5452.186,120795.40000001,120794.31,120810.995,126263.181,126265.5,2023-04-29T14:18:43Z,126279.812,Ausschluss,kutengwa,s,ununuzi,taratibu,madeni,NA,NA,NA,NULL,NA,NA,NA,NA,NA,NA,NA,NA,NA,NA,NA,NA,NA,NA,NA,NA,NA,NA,NA
744d4,retrieval block 1 (cued recall),flow.Loop,1,NA,NA,completion,102968.212,23265.199999988,23255.326,23294.969,126263.181,126265.59999999,2023-04-29T14:18:43Z,126279.812,NA,NA,NA,NA,NA,NA,NA,NA,NA,NULL,NA,NA,NA,NA,NA,NA,NA,NA,NA,NA,NA,NA,NA,NA,NA,NA,NA,NA,NA
744d4,Shallow Question,html.Page,2_0_0_0,NA,NA,form submission,7213.088000006,126265.79999998,126263.181,126279.812,133492.90000001,133493.29999998,2023-04-29T14:18:50Z,133520.571,Auftrag,uagizaji,s,ghanima,kuzingatia,msukani,uagizaji,NA,NA,"c(""distractor1"", ""distractor2"", ""distractor3"")",NA,NA,NA,NA,NA,NA,NA,NA,NA,NA,NA,NA,NA,NA,NA,NA,NA,NA,NA
744d4,Save data screen,canvas.Screen,2_0_0_1,NA,NA,timeout,502.35800000001,133496.29999998,133489.665,133520.571,134006.243,134008.5,2023-04-29T14:18:51Z,134022.929,Auftrag,uagizaji,s,ghanima,kuzingatia,msukani,NA,NA,1,"c(""distractor1"", ""distractor2"", ""distractor3"")",NA,NA,NA,NA,NA,NA,NA,NA,NA,NA,NA,NA,NA,NA,NA,NA,NA,NA,NA
744d4,shallow,flow.Sequence,2_0_0,NA,NA,completion,7726.431,126265.79999998,126263.181,126279.812,134006.243,134008.59999999,2023-04-29T14:18:51Z,134022.929,Auftrag,uagizaji,s,ghanima,kuzingatia,msukani,NA,NA,NA,"c(""distractor1"", ""distractor2"", ""distractor3"")",NA,NA,NA,NA,NA,NA,NA,NA,NA,NA,NA,NA,NA,NA,NA,NA,NA,NA,NA
744d4,task,flow.Sequence,2_0,NA,NA,completion,7726.431,126265.69999999,126263.181,126279.812,134006.243,134008.79999998,2023-04-29T14:18:51Z,134022.929,Auftrag,uagizaji,s,ghanima,kuzingatia,msukani,NA,NA,NA,"c(""distractor1"", ""distractor2"", ""distractor3"")",NA,NA,NA,NA,NA,NA,NA,NA,NA,NA,NA,NA,NA,NA,NA,NA,NA,NA,NA
744d4,Shallow Question,html.Page,2_1_0_0,NA,NA,form submission,20045.770999988,134008.90000001,134006.243,134022.929,154068.69999999,154068.90000001,2023-04-29T14:19:11Z,154098.318,Zuwachs,nyongeza,d,matilaba,udhibiti,hudhurio,nyongeza,NA,NA,"c(""distractor1"", ""distractor2"", ""distractor3"")",NA,NA,NA,NA,NA,NA,NA,NA,NA,NA,NA,NA,NA,NA,NA,NA,NA,NA,NA
744d4,Save data screen,canvas.Screen,2_1_0_1,NA,NA,timeout,501.79699999999,154071.59999999,154054.749,154098.318,154583.459,154584.29999998,2023-04-29T14:19:12Z,154600.115,Zuwachs,nyongeza,d,matilaba,udhibiti,hudhurio,NA,NA,1,"c(""distractor1"", ""distractor2"", ""distractor3"")",NA,NA,NA,NA,NA,NA,NA,NA,NA,NA,NA,NA,NA,NA,NA,NA,NA,NA,NA
744d4,shallow,flow.Sequence,2_1_0,NA,NA,completion,20560.53,134008.90000001,134006.243,134022.929,154583.459,154584.69999999,2023-04-29T14:19:12Z,154600.115,Zuwachs,nyongeza,d,matilaba,udhibiti,hudhurio,NA,NA,NA,"c(""distractor1"", ""distractor2"", ""distractor3"")",NA,NA,NA,NA,NA,NA,NA,NA,NA,NA,NA,NA,NA,NA,NA,NA,NA,NA,NA
744d4,task,flow.Sequence,2_1,NA,NA,completion,20560.53,134008.90000001,134006.243,134022.929,154583.459,154585,2023-04-29T14:19:12Z,154600.115,Zuwachs,nyongeza,d,matilaba,udhibiti,hudhurio,NA,NA,NA,"c(""distractor1"", ""distractor2"", ""distractor3"")",NA,NA,NA,NA,NA,NA,NA,NA,NA,NA,NA,NA,NA,NA,NA,NA,NA,NA,NA
744d4,Shallow Question,html.Page,2_2_0_0,NA,NA,form submission,4318.285000006,154585.09999999,154583.459,154600.115,158918.40000001,158918.69999999,2023-04-29T14:19:16Z,158938.683,Symbol,kielezo,d,kinyume,nderemo,utayari,kielezo,NA,NA,"c(""distractor1"", ""distractor2"", ""distractor3"")",NA,NA,NA,NA,NA,NA,NA,NA,NA,NA,NA,NA,NA,NA,NA,NA,NA,NA,NA
744d4,Save data screen,canvas.Screen,2_2_0_1,NA,NA,timeout,502.39800000002,158921.40000001,158913.169,158938.683,159424.462,159426.5,2023-04-29T14:19:16Z,159441.081,Symbol,kielezo,d,kinyume,nderemo,utayari,NA,NA,1,"c(""distractor1"", ""distractor2"", ""distractor3"")",NA,NA,NA,NA,NA,NA,NA,NA,NA,NA,NA,NA,NA,NA,NA,NA,NA,NA,NA
744d4,shallow,flow.Sequence,2_2_0,NA,NA,completion,4824.347,154585.09999999,154583.459,154600.115,159424.462,159426.90000001,2023-04-29T14:19:16Z,159441.081,Symbol,kielezo,d,kinyume,nderemo,utayari,NA,NA,NA,"c(""distractor1"", ""distractor2"", ""distractor3"")",NA,NA,NA,NA,NA,NA,NA,NA,NA,NA,NA,NA,NA,NA,NA,NA,NA,NA,NA
744d4,task,flow.Sequence,2_2,NA,NA,completion,4824.347,154585.09999999,154583.459,154600.115,159424.462,159427.19999999,2023-04-29T14:19:16Z,159441.081,Symbol,kielezo,d,kinyume,nderemo,utayari,NA,NA,NA,"c(""distractor1"", ""distractor2"", ""distractor3"")",NA,NA,NA,NA,NA,NA,NA,NA,NA,NA,NA,NA,NA,NA,NA,NA,NA,NA,NA
744d4,Shallow Question,html.Page,2_3_0_0,NA,NA,form submission,5577.419,159427.5,159424.462,159441.081,165018.5,165018.79999998,2023-04-29T14:19:22Z,165043.208,Polizist,msongora,s,simanzi,mandhari,nidhamu,msongora,NA,NA,"c(""distractor1"", ""distractor2"", ""distractor3"")",NA,NA,NA,NA,NA,NA,NA,NA,NA,NA,NA,NA,NA,NA,NA,NA,NA,NA,NA
744d4,Save data screen,canvas.Screen,2_3_0_1,NA,NA,timeout,501.98899999997,165021.69999999,165017.321,165043.208,165528.602,165529.40000001,2023-04-29T14:19:22Z,165545.197,Polizist,msongora,s,simanzi,mandhari,nidhamu,NA,NA,1,"c(""distractor1"", ""distractor2"", ""distractor3"")",NA,NA,NA,NA,NA,NA,NA,NA,NA,NA,NA,NA,NA,NA,NA,NA,NA,NA,NA
744d4,shallow,flow.Sequence,2_3_0,NA,NA,completion,6087.521,159427.40000001,159424.462,159441.081,165528.602,165529.5,2023-04-29T14:19:22Z,165545.197,Polizist,msongora,s,simanzi,mandhari,nidhamu,NA,NA,NA,"c(""distractor1"", ""distractor2"", ""distractor3"")",NA,NA,NA,NA,NA,NA,NA,NA,NA,NA,NA,NA,NA,NA,NA,NA,NA,NA,NA
744d4,task,flow.Sequence,2_3,NA,NA,completion,6087.521,159427.40000001,159424.462,159441.081,165528.602,165529.69999999,2023-04-29T14:19:22Z,165545.197,Polizist,msongora,s,simanzi,mandhari,nidhamu,NA,NA,NA,"c(""distractor1"", ""distractor2"", ""distractor3"")",NA,NA,NA,NA,NA,NA,NA,NA,NA,NA,NA,NA,NA,NA,NA,NA,NA,NA,NA
744d4,Shallow Question,html.Page,2_4_0_0,NA,NA,form submission,6394.1029999821,165529.79999998,165528.602,165545.197,171939.29999998,171939.69999999,2023-04-29T14:19:29Z,171960.343,Annäherung,maegesho,d,madahili,kujiamini,mapendekezo,madahili,NA,NA,"c(""distractor1"", ""distractor2"", ""distractor3"")",NA,NA,NA,NA,NA,NA,NA,NA,NA,NA,NA,NA,NA,NA,NA,NA,NA,NA,NA
744d4,Save data screen,canvas.Screen,2_4_0_1,NA,NA,timeout,502.91400000002,171942.19999999,171923.405,171960.343,172446.569,172447.19999999,2023-04-29T14:19:29Z,172463.257,Annäherung,maegesho,d,madahili,kujiamini,mapendekezo,NA,NA,0,"c(""distractor1"", ""distractor2"", ""distractor3"")",NA,NA,NA,NA,NA,NA,NA,NA,NA,NA,NA,NA,NA,NA,NA,NA,NA,NA,NA
744d4,shallow,flow.Sequence,2_4_0,NA,NA,completion,6901.372,165529.69999999,165528.602,165545.197,172446.569,172447.40000001,2023-04-29T14:19:29Z,172463.257,Annäherung,maegesho,d,madahili,kujiamini,mapendekezo,NA,NA,NA,"c(""distractor1"", ""distractor2"", ""distractor3"")",NA,NA,NA,NA,NA,NA,NA,NA,NA,NA,NA,NA,NA,NA,NA,NA,NA,NA,NA
744d4,task,flow.Sequence,2_4,NA,NA,completion,6901.372,165529.69999999,165528.602,165545.197,172446.569,172447.5,2023-04-29T14:19:29Z,172463.257,Annäherung,maegesho,d,madahili,kujiamini,mapendekezo,NA,NA,NA,"c(""distractor1"", ""distractor2"", ""distractor3"")",NA,NA,NA,NA,NA,NA,NA,NA,NA,NA,NA,NA,NA,NA,NA,NA,NA,NA,NA
744d4,Shallow Question,html.Page,2_5_0_0,NA,NA,form submission,4853.243,172447.79999998,172446.569,172463.257,177316.5,177316.90000001,2023-04-29T14:19:34Z,177335.668,Sympathie,mapendano,d,dhamiria,fungamano,maazimio,mapendano,NA,NA,"c(""distractor1"", ""distractor2"", ""distractor3"")",NA,NA,NA,NA,NA,NA,NA,NA,NA,NA,NA,NA,NA,NA,NA,NA,NA,NA,NA
744d4,Save data screen,canvas.Screen,2_5_0_1,NA,NA,timeout,501.796,177319.59999999,177309.732,177335.668,177820.783,177822.40000001,2023-04-29T14:19:35Z,177837.464,Sympathie,mapendano,d,dhamiria,fungamano,maazimio,NA,NA,1,"c(""distractor1"", ""distractor2"", ""distractor3"")",NA,NA,NA,NA,NA,NA,NA,NA,NA,NA,NA,NA,NA,NA,NA,NA,NA,NA,NA
744d4,shallow,flow.Sequence,2_5_0,NA,NA,completion,5357.526,172447.69999999,172446.569,172463.257,177820.783,177822.59999999,2023-04-29T14:19:35Z,177837.464,Sympathie,mapendano,d,dhamiria,fungamano,maazimio,NA,NA,NA,"c(""distractor1"", ""distractor2"", ""distractor3"")",NA,NA,NA,NA,NA,NA,NA,NA,NA,NA,NA,NA,NA,NA,NA,NA,NA,NA,NA
744d4,task,flow.Sequence,2_5,NA,NA,completion,5357.526,172447.69999999,172446.569,172463.257,177820.783,177822.69999999,2023-04-29T14:19:35Z,177837.464,Sympathie,mapendano,d,dhamiria,fungamano,maazimio,NA,NA,NA,"c(""distractor1"", ""distractor2"", ""distractor3"")",NA,NA,NA,NA,NA,NA,NA,NA,NA,NA,NA,NA,NA,NA,NA,NA,NA,NA,NA
744d4,Shallow Question,html.Page,2_6_0_0,NA,NA,form submission,3189.536,177822.90000001,177820.783,177837.464,181027,181027.29999998,2023-04-29T14:19:38Z,181058.611,Konkurrent,mshindani,s,msemaji,mvutaji,kipukusa,mshindani,NA,NA,"c(""distractor1"", ""distractor2"", ""distractor3"")",NA,NA,NA,NA,NA,NA,NA,NA,NA,NA,NA,NA,NA,NA,NA,NA,NA,NA,NA
744d4,Save data screen,canvas.Screen,2_6_0_1,NA,NA,timeout,502.497,181030,181024.248,181058.611,181544.429,181545.19999999,2023-04-29T14:19:39Z,181561.108,Konkurrent,mshindani,s,msemaji,mvutaji,kipukusa,NA,NA,1,"c(""distractor1"", ""distractor2"", ""distractor3"")",NA,NA,NA,NA,NA,NA,NA,NA,NA,NA,NA,NA,NA,NA,NA,NA,NA,NA,NA
744d4,shallow,flow.Sequence,2_6_0,NA,NA,completion,3706.965,177822.90000001,177820.783,177837.464,181544.429,181545.69999999,2023-04-29T14:19:39Z,181561.108,Konkurrent,mshindani,s,msemaji,mvutaji,kipukusa,NA,NA,NA,"c(""distractor1"", ""distractor2"", ""distractor3"")",NA,NA,NA,NA,NA,NA,NA,NA,NA,NA,NA,NA,NA,NA,NA,NA,NA,NA,NA
744d4,task,flow.Sequence,2_6,NA,NA,completion,3706.965,177822.79999998,177820.783,177837.464,181544.429,181545.90000001,2023-04-29T14:19:39Z,181561.108,Konkurrent,mshindani,s,msemaji,mvutaji,kipukusa,NA,NA,NA,"c(""distractor1"", ""distractor2"", ""distractor3"")",NA,NA,NA,NA,NA,NA,NA,NA,NA,NA,NA,NA,NA,NA,NA,NA,NA,NA,NA
744d4,Shallow Question,html.Page,2_7_0_0,NA,NA,form submission,3962.892,181546,181544.429,181561.108,185524,185524.5,2023-04-29T14:19:42Z,185541.652,Verstand,ufahamivu,d,shakawa,hadhari,mhandisi,hadhari,NA,NA,"c(""distractor1"", ""distractor2"", ""distractor3"")",NA,NA,NA,NA,NA,NA,NA,NA,NA,NA,NA,NA,NA,NA,NA,NA,NA,NA,NA
744d4,Save data screen,canvas.Screen,2_7_0_1,NA,NA,timeout,502.342,185527.19999999,185518.77,185541.652,186027.338,186028.5,2023-04-29T14:19:43Z,186043.994,Verstand,ufahamivu,d,shakawa,hadhari,mhandisi,NA,NA,0,"c(""distractor1"", ""distractor2"", ""distractor3"")",NA,NA,NA,NA,NA,NA,NA,NA,NA,NA,NA,NA,NA,NA,NA,NA,NA,NA,NA
744d4,shallow,flow.Sequence,2_7_0,NA,NA,completion,4466.23,181546,181544.429,181561.108,186027.338,186028.90000001,2023-04-29T14:19:43Z,186043.994,Verstand,ufahamivu,d,shakawa,hadhari,mhandisi,NA,NA,NA,"c(""distractor1"", ""distractor2"", ""distractor3"")",NA,NA,NA,NA,NA,NA,NA,NA,NA,NA,NA,NA,NA,NA,NA,NA,NA,NA,NA
744d4,task,flow.Sequence,2_7,NA,NA,completion,4466.23,181546,181544.429,181561.108,186027.338,186029.09999999,2023-04-29T14:19:43Z,186043.994,Verstand,ufahamivu,d,shakawa,hadhari,mhandisi,NA,NA,NA,"c(""distractor1"", ""distractor2"", ""distractor3"")",NA,NA,NA,NA,NA,NA,NA,NA,NA,NA,NA,NA,NA,NA,NA,NA,NA,NA,NA
744d4,Shallow Question,html.Page,2_8_0_0,NA,NA,form submission,6773.605999994,186029.29999998,186027.338,186043.994,192817.59999999,192817.90000001,2023-04-29T14:19:50Z,192837.829,Widerstand,usulubu,d,kusababisha,mwalimu,mwenendo,usulubu,NA,NA,"c(""distractor1"", ""distractor2"", ""distractor3"")",NA,NA,NA,NA,NA,NA,NA,NA,NA,NA,NA,NA,NA,NA,NA,NA,NA,NA,NA
744d4,Save data screen,canvas.Screen,2_8_0_1,NA,NA,timeout,501.514,192820.69999999,192815.434,192837.829,193322.661,193324.09999999,2023-04-29T14:19:50Z,193339.343,Widerstand,usulubu,d,kusababisha,mwalimu,mwenendo,NA,NA,1,"c(""distractor1"", ""distractor2"", ""distractor3"")",NA,NA,NA,NA,NA,NA,NA,NA,NA,NA,NA,NA,NA,NA,NA,NA,NA,NA,NA
744d4,shallow,flow.Sequence,2_8_0,NA,NA,completion,7278.667,186029.19999999,186027.338,186043.994,193322.661,193324.29999998,2023-04-29T14:19:50Z,193339.343,Widerstand,usulubu,d,kusababisha,mwalimu,mwenendo,NA,NA,NA,"c(""distractor1"", ""distractor2"", ""distractor3"")",NA,NA,NA,NA,NA,NA,NA,NA,NA,NA,NA,NA,NA,NA,NA,NA,NA,NA,NA
744d4,task,flow.Sequence,2_8,NA,NA,completion,7278.667,186029.19999999,186027.338,186043.994,193322.661,193324.5,2023-04-29T14:19:50Z,193339.343,Widerstand,usulubu,d,kusababisha,mwalimu,mwenendo,NA,NA,NA,"c(""distractor1"", ""distractor2"", ""distractor3"")",NA,NA,NA,NA,NA,NA,NA,NA,NA,NA,NA,NA,NA,NA,NA,NA,NA,NA,NA
744d4,Shallow Question,html.Page,2_9_0_0,NA,NA,form submission,4892.057000006,193324.59999999,193322.661,193339.343,198231.40000001,198231.79999998,2023-04-29T14:19:55Z,198259.434,Wettbewerb,ushindani,s,mapendezi,kichocheo,ubaguzi,ushindani,NA,NA,"c(""distractor1"", ""distractor2"", ""distractor3"")",NA,NA,NA,NA,NA,NA,NA,NA,NA,NA,NA,NA,NA,NA,NA,NA,NA,NA,NA
744d4,Save data screen,canvas.Screen,2_9_0_1,NA,NA,timeout,502.59,198234.29999998,198214.488,198259.434,198745.303,198747,2023-04-29T14:19:56Z,198762.024,Wettbewerb,ushindani,s,mapendezi,kichocheo,ubaguzi,NA,NA,1,"c(""distractor1"", ""distractor2"", ""distractor3"")",NA,NA,NA,NA,NA,NA,NA,NA,NA,NA,NA,NA,NA,NA,NA,NA,NA,NA,NA
744d4,shallow,flow.Sequence,2_9_0,NA,NA,completion,5405.96,193324.59999999,193322.661,193339.343,198745.303,198747.19999999,2023-04-29T14:19:56Z,198762.024,Wettbewerb,ushindani,s,mapendezi,kichocheo,ubaguzi,NA,NA,NA,"c(""distractor1"", ""distractor2"", ""distractor3"")",NA,NA,NA,NA,NA,NA,NA,NA,NA,NA,NA,NA,NA,NA,NA,NA,NA,NA,NA
744d4,task,flow.Sequence,2_9,NA,NA,completion,5405.96,193324.5,193322.661,193339.343,198745.303,198747.40000001,2023-04-29T14:19:56Z,198762.024,Wettbewerb,ushindani,s,mapendezi,kichocheo,ubaguzi,NA,NA,NA,"c(""distractor1"", ""distractor2"", ""distractor3"")",NA,NA,NA,NA,NA,NA,NA,NA,NA,NA,NA,NA,NA,NA,NA,NA,NA,NA,NA
744d4,Shallow Question,html.Page,2_10_0_0,NA,NA,form submission,3035.575999994,198747.5,198745.303,198762.024,201797.59999999,201797.90000001,2023-04-29T14:19:59Z,201815.071,Vorsorge,tahadhari,s,ufafanuzi,makini,mashambani,tahadhari,NA,NA,"c(""distractor1"", ""distractor2"", ""distractor3"")",NA,NA,NA,NA,NA,NA,NA,NA,NA,NA,NA,NA,NA,NA,NA,NA,NA,NA,NA
744d4,Save data screen,canvas.Screen,2_10_0_1,NA,NA,timeout,501.935,201798.79999998,201789.358,201815.071,202300.351,202300.90000001,2023-04-29T14:19:59Z,202317.006,Vorsorge,tahadhari,s,ufafanuzi,makini,mashambani,NA,NA,1,"c(""distractor1"", ""distractor2"", ""distractor3"")",NA,NA,NA,NA,NA,NA,NA,NA,NA,NA,NA,NA,NA,NA,NA,NA,NA,NA,NA
744d4,shallow,flow.Sequence,2_10_0,NA,NA,completion,3538.327,198747.5,198745.303,198762.024,202300.351,202301.09999999,2023-04-29T14:19:59Z,202317.006,Vorsorge,tahadhari,s,ufafanuzi,makini,mashambani,NA,NA,NA,"c(""distractor1"", ""distractor2"", ""distractor3"")",NA,NA,NA,NA,NA,NA,NA,NA,NA,NA,NA,NA,NA,NA,NA,NA,NA,NA,NA
744d4,task,flow.Sequence,2_10,NA,NA,completion,3538.327,198747.5,198745.303,198762.024,202300.351,202301.19999999,2023-04-29T14:19:59Z,202317.006,Vorsorge,tahadhari,s,ufafanuzi,makini,mashambani,NA,NA,NA,"c(""distractor1"", ""distractor2"", ""distractor3"")",NA,NA,NA,NA,NA,NA,NA,NA,NA,NA,NA,NA,NA,NA,NA,NA,NA,NA,NA
744d4,Shallow Question,html.Page,2_11_0_0,NA,NA,form submission,3284.994,202301.40000001,202300.351,202317.006,205602,205602.29999998,2023-04-29T14:20:03Z,205620.154,Zufall,kikuti,d,kukosekana,uchoraji,leseni,kikuti,NA,NA,"c(""distractor1"", ""distractor2"", ""distractor3"")",NA,NA,NA,NA,NA,NA,NA,NA,NA,NA,NA,NA,NA,NA,NA,NA,NA,NA,NA
744d4,Save data screen,canvas.Screen,2_11_0_1,NA,NA,timeout,503.09,205604.69999999,205588.681,205620.154,206106.557,206108.59999999,2023-04-29T14:20:03Z,206123.244,Zufall,kikuti,d,kukosekana,uchoraji,leseni,NA,NA,1,"c(""distractor1"", ""distractor2"", ""distractor3"")",NA,NA,NA,NA,NA,NA,NA,NA,NA,NA,NA,NA,NA,NA,NA,NA,NA,NA,NA
744d4,shallow,flow.Sequence,2_11_0,NA,NA,completion,3789.551,202301.40000001,202300.351,202317.006,206106.557,206108.90000001,2023-04-29T14:20:03Z,206123.244,Zufall,kikuti,d,kukosekana,uchoraji,leseni,NA,NA,NA,"c(""distractor1"", ""distractor2"", ""distractor3"")",NA,NA,NA,NA,NA,NA,NA,NA,NA,NA,NA,NA,NA,NA,NA,NA,NA,NA,NA
744d4,task,flow.Sequence,2_11,NA,NA,completion,3789.551,202301.40000001,202300.351,202317.006,206106.557,206109.19999999,2023-04-29T14:20:03Z,206123.244,Zufall,kikuti,d,kukosekana,uchoraji,leseni,NA,NA,NA,"c(""distractor1"", ""distractor2"", ""distractor3"")",NA,NA,NA,NA,NA,NA,NA,NA,NA,NA,NA,NA,NA,NA,NA,NA,NA,NA,NA
744d4,Shallow Question,html.Page,2_12_0_0,NA,NA,form submission,6741.256,206109.40000001,206106.557,206123.244,212864.5,212864.79999998,2023-04-29T14:20:10Z,212891.863,Ausschluss,kutengwa,s,ununuzi,taratibu,madeni,taratibu,NA,NA,"c(""distractor1"", ""distractor2"", ""distractor3"")",NA,NA,NA,NA,NA,NA,NA,NA,NA,NA,NA,NA,NA,NA,NA,NA,NA,NA,NA
744d4,Save data screen,canvas.Screen,2_12_0_1,NA,NA,timeout,502.70999999999,212867.5,212854.968,212891.863,213377.873,213378.5,2023-04-29T14:20:10Z,213394.573,Ausschluss,kutengwa,s,ununuzi,taratibu,madeni,NA,NA,0,"c(""distractor1"", ""distractor2"", ""distractor3"")",NA,NA,NA,NA,NA,NA,NA,NA,NA,NA,NA,NA,NA,NA,NA,NA,NA,NA,NA
744d4,shallow,flow.Sequence,2_12_0,NA,NA,completion,7254.629,206109.29999998,206106.557,206123.244,213377.873,213378.59999999,2023-04-29T14:20:10Z,213394.573,Ausschluss,kutengwa,s,ununuzi,taratibu,madeni,NA,NA,NA,"c(""distractor1"", ""distractor2"", ""distractor3"")",NA,NA,NA,NA,NA,NA,NA,NA,NA,NA,NA,NA,NA,NA,NA,NA,NA,NA,NA
744d4,task,flow.Sequence,2_12,NA,NA,completion,7254.629,206109.29999998,206106.557,206123.244,213377.873,213378.79999998,2023-04-29T14:20:10Z,213394.573,Ausschluss,kutengwa,s,ununuzi,taratibu,madeni,NA,NA,NA,"c(""distractor1"", ""distractor2"", ""distractor3"")",NA,NA,NA,NA,NA,NA,NA,NA,NA,NA,NA,NA,NA,NA,NA,NA,NA,NA,NA
744d4,Shallow Question,html.Page,2_13_0_0,NA,NA,form submission,5257.026999994,213378.90000001,213377.873,213394.573,218651.59999999,218651.90000001,2023-04-29T14:20:16Z,218681.342,Schönheit,kirembo,d,mahojiano,msisimko,jitihadi,kirembo,NA,NA,"c(""distractor1"", ""distractor2"", ""distractor3"")",NA,NA,NA,NA,NA,NA,NA,NA,NA,NA,NA,NA,NA,NA,NA,NA,NA,NA,NA
744d4,Save data screen,canvas.Screen,2_13_0_1,NA,NA,timeout,494.889,218654.19999999,218645.653,218681.342,219159.602,219160.40000001,2023-04-29T14:20:16Z,219176.231,Schönheit,kirembo,d,mahojiano,msisimko,jitihadi,NA,NA,1,"c(""distractor1"", ""distractor2"", ""distractor3"")",NA,NA,NA,NA,NA,NA,NA,NA,NA,NA,NA,NA,NA,NA,NA,NA,NA,NA,NA
744d4,shallow,flow.Sequence,2_13_0,NA,NA,completion,5765.029,213378.90000001,213377.873,213394.573,219159.602,219160.69999999,2023-04-29T14:20:16Z,219176.231,Schönheit,kirembo,d,mahojiano,msisimko,jitihadi,NA,NA,NA,"c(""distractor1"", ""distractor2"", ""distractor3"")",NA,NA,NA,NA,NA,NA,NA,NA,NA,NA,NA,NA,NA,NA,NA,NA,NA,NA,NA
744d4,task,flow.Sequence,2_13,NA,NA,completion,5765.029,213378.79999998,213377.873,213394.573,219159.602,219161,2023-04-29T14:20:16Z,219176.231,Schönheit,kirembo,d,mahojiano,msisimko,jitihadi,NA,NA,NA,"c(""distractor1"", ""distractor2"", ""distractor3"")",NA,NA,NA,NA,NA,NA,NA,NA,NA,NA,NA,NA,NA,NA,NA,NA,NA,NA,NA
744d4,Shallow Question,html.Page,2_14_0_0,NA,NA,form submission,4578.5689999821,219161.19999999,219159.602,219176.231,223754.79999998,223755,2023-04-29T14:20:21Z,223754.691,Gelegenheit,wakati,s,mchanganyiko,kipaumbele,kushuku,wakati,NA,NA,"c(""distractor1"", ""distractor2"", ""distractor3"")",NA,NA,NA,NA,NA,NA,NA,NA,NA,NA,NA,NA,NA,NA,NA,NA,NA,NA,NA
744d4,Save data screen,canvas.Screen,2_14_0_1,NA,NA,timeout,504.495,223757.29999998,223749.371,223754.691,224242.482,224243.09999999,2023-04-29T14:20:21Z,224259.186,Gelegenheit,wakati,s,mchanganyiko,kipaumbele,kushuku,NA,NA,1,"c(""distractor1"", ""distractor2"", ""distractor3"")",NA,NA,NA,NA,NA,NA,NA,NA,NA,NA,NA,NA,NA,NA,NA,NA,NA,NA,NA
744d4,shallow,flow.Sequence,2_14_0,NA,NA,completion,5066.251,219161.09999999,219159.602,219176.231,224242.482,224243.29999998,2023-04-29T14:20:21Z,224259.186,Gelegenheit,wakati,s,mchanganyiko,kipaumbele,kushuku,NA,NA,NA,"c(""distractor1"", ""distractor2"", ""distractor3"")",NA,NA,NA,NA,NA,NA,NA,NA,NA,NA,NA,NA,NA,NA,NA,NA,NA,NA,NA
744d4,task,flow.Sequence,2_14,NA,NA,completion,5066.251,219161,219159.602,219176.231,224242.482,224243.5,2023-04-29T14:20:21Z,224259.186,Gelegenheit,wakati,s,mchanganyiko,kipaumbele,kushuku,NA,NA,NA,"c(""distractor1"", ""distractor2"", ""distractor3"")",NA,NA,NA,NA,NA,NA,NA,NA,NA,NA,NA,NA,NA,NA,NA,NA,NA,NA,NA
744d4,Shallow Question,html.Page,2_15_0_0,NA,NA,form submission,6175.0139999881,224243.59999999,224242.482,224259.186,230434.19999999,230434.59999999,2023-04-29T14:20:27Z,230466.6,Beweis,ushahidi,s,marudio,kizuizi,mtendaji,kizuizi,NA,NA,"c(""distractor1"", ""distractor2"", ""distractor3"")",NA,NA,NA,NA,NA,NA,NA,NA,NA,NA,NA,NA,NA,NA,NA,NA,NA,NA,NA
744d4,Save data screen,canvas.Screen,2_15_0_1,NA,NA,timeout,502.02799999999,230437.40000001,230423.666,230466.6,230951.944,230952.59999999,2023-04-29T14:20:28Z,230968.628,Beweis,ushahidi,s,marudio,kizuizi,mtendaji,NA,NA,0,"c(""distractor1"", ""distractor2"", ""distractor3"")",NA,NA,NA,NA,NA,NA,NA,NA,NA,NA,NA,NA,NA,NA,NA,NA,NA,NA,NA
744d4,shallow,flow.Sequence,2_15_0,NA,NA,completion,6692.758,224243.59999999,224242.482,224259.186,230951.944,230952.79999998,2023-04-29T14:20:28Z,230968.628,Beweis,ushahidi,s,marudio,kizuizi,mtendaji,NA,NA,NA,"c(""distractor1"", ""distractor2"", ""distractor3"")",NA,NA,NA,NA,NA,NA,NA,NA,NA,NA,NA,NA,NA,NA,NA,NA,NA,NA,NA
744d4,task,flow.Sequence,2_15,NA,NA,completion,6692.758,224243.59999999,224242.482,224259.186,230951.944,230953,2023-04-29T14:20:28Z,230968.628,Beweis,ushahidi,s,marudio,kizuizi,mtendaji,NA,NA,NA,"c(""distractor1"", ""distractor2"", ""distractor3"")",NA,NA,NA,NA,NA,NA,NA,NA,NA,NA,NA,NA,NA,NA,NA,NA,NA,NA,NA
744d4,retrieval block 2 (multiple choice),flow.Loop,2,NA,NA,completion,104672.132,126265.69999999,126263.181,126279.812,230951.944,230953.19999999,2023-04-29T14:20:28Z,230968.628,NA,NA,NA,NA,NA,NA,NA,NA,NA,"c(""distractor1"", ""distractor2"", ""distractor3"")",NA,NA,NA,NA,NA,NA,NA,NA,NA,NA,NA,NA,NA,NA,NA,NA,NA,NA,NA
744d4,End,canvas.Screen,3,NA,keypress(Space),response,1590.772000006,230953.19999999,230951.944,230968.628,232559.40000001,232560.40000001,2023-04-29T14:20:30Z,232585.155,NA,NA,NA,NA,NA,NA,NA,NA,NA,NULL,NA,NA,NA,NA,NA,NA,NA,NA,NA,NA,NA,NA,NA,NA,NA,NA,NA,NA,NA
744d4,root,flow.Sequence,NA,NA,NA,completion,230595.87200001,1942.7999999821,1946.885,1963.528,232559.40000001,232560.69999999,2023-04-29T14:20:30Z,232585.155,NA,NA,NA,NA,NA,NA,NA,NA,NA,NULL,NA,NA,NA,NA,NA,NA,NA,NA,NA,NA,NA,NA,NA,NA,NA,NA,NA,NA,NA
