observation,sender,sender_type,sender_id,response,response_action,ended_on,duration,time_run,time_render,time_show,time_end,time_commit,timestamp,time_switch,distractors,german,swahili,enc,distractor1,distractor2,distractor3,response_2,x,correct,x_2,url_vp,url_sess,meta_labjs_version,meta_location,meta_user_agent,meta_platform,meta_language,meta_locale,meta_time_zone,meta_timezone_offset,meta_screen_width,meta_screen_height,meta_scroll_width,meta_scroll_height,meta_window_inner_width,meta_window_inner_height,meta_device_pixel_ratio,meta_labjs_build_flavor,meta_labjs_build_commit
258a8,Introduction general,canvas.Screen,0,weiter,keypress(q),response,2565425.728,1749.6999999881,671.256,1786.972,2567212.7,2567216.4,2023-05-16T16:06:53Z,2567221.874,NULL,NA,NA,NA,NA,NA,NA,NA,NA,NA,NA,212,3,20.2.4,https://neurocog.fernuni.ch/studies/vweber/sfink/encoding_immediate/index.html?vp=212&sess=3,"Mozilla/5.0 (Windows NT 10.0; Win64; x64) AppleWebKit/537.36 (KHTML, like Gecko) Chrome/113.0.0.0 Safari/537.36",Win32,de-CH,de,Europe/Zurich,-120,1536,864,1536,706,1536,754,1.25,production,f5b4a49f956347addd546a832a3327688c2c0fef
258a8,Introduction practice,canvas.Screen,1_0,NA,keypress(Space),response,10874.025999976,2567217.3,2567206.049,2567221.874,2578095.9,2578097.3,2023-05-16T16:07:04Z,2578113.005,NULL,NA,NA,NA,NA,NA,NA,NA,NA,NA,NA,NA,NA,NA,NA,NA,NA,NA,NA,NA,NA,NA,NA,NA,NA,NA,NA,NA,NA,NA
258a8,Deep Question,html.Page,1_1_0_0_0,NA,NA,form submission,4350.3949999763,2578097.8,2578095.751,2578113.005,2582463.4,2582463.6,2023-05-16T16:07:08Z,2582476.015,"c(""distractor1"", ""distractor2"", ""distractor3"")",Schatten,kivuli,d,NA,NA,NA,b,NA,NA,NA,NA,NA,NA,NA,NA,NA,NA,NA,NA,NA,NA,NA,NA,NA,NA,NA,NA,NA,NA
258a8,"""Richtig""-Screen",canvas.Screen,1_1_0_0_1,NA,NA,skipped,NA,2582465.7,NA,NA,2582463.4,2582465.9,2023-05-16T16:07:08Z,2582476.015,"c(""distractor1"", ""distractor2"", ""distractor3"")",Schatten,kivuli,d,NA,NA,NA,NA,NA,NA,NA,NA,NA,NA,NA,NA,NA,NA,NA,NA,NA,NA,NA,NA,NA,NA,NA,NA,NA,NA
258a8,"""Falsch""-Screen",canvas.Screen,1_1_0_0_2,NA,NA,timeout,4995.9219999998,2582467.4,2582459.96,2582476.015,2587455.327,2587468.4,2023-05-16T16:07:13Z,2587471.937,"c(""distractor1"", ""distractor2"", ""distractor3"")",Schatten,kivuli,d,NA,NA,NA,NA,NA,0,NA,NA,NA,NA,NA,NA,NA,NA,NA,NA,NA,NA,NA,NA,NA,NA,NA,NA,NA,NA
258a8,deep,flow.Sequence,1_1_0_0,NA,NA,completion,9342.3220000002,2578097.8,2578095.751,2578113.005,2587455.327,2587469,2023-05-16T16:07:13Z,2587471.937,"c(""distractor1"", ""distractor2"", ""distractor3"")",Schatten,kivuli,d,NA,NA,NA,NA,NA,NA,NA,NA,NA,NA,NA,NA,NA,NA,NA,NA,NA,NA,NA,NA,NA,NA,NA,NA,NA,NA
258a8,shallow,flow.Sequence,1_1_0_1,NA,NA,skipped,NA,2587469.1,NA,NA,2587455.327,2587469.4,2023-05-16T16:07:13Z,2587471.937,"c(""distractor1"", ""distractor2"", ""distractor3"")",Schatten,kivuli,d,NA,NA,NA,NA,NA,NA,NA,NA,NA,NA,NA,NA,NA,NA,NA,NA,NA,NA,NA,NA,NA,NA,NA,NA,NA,NA
258a8,task,flow.Sequence,1_1_0,NA,NA,completion,9342.3220000002,2578097.7,2578095.751,2578113.005,2587455.327,2587469.6,2023-05-16T16:07:13Z,2587471.937,"c(""distractor1"", ""distractor2"", ""distractor3"")",Schatten,kivuli,d,NA,NA,NA,NA,NA,NA,NA,NA,NA,NA,NA,NA,NA,NA,NA,NA,NA,NA,NA,NA,NA,NA,NA,NA,NA,NA
258a8,deep,flow.Sequence,1_1_1_0,NA,NA,skipped,NA,2587469.9,NA,NA,2587455.327,2587470.1,2023-05-16T16:07:13Z,2587471.937,"c(""distractor1"", ""distractor2"", ""distractor3"")",Rückhalt,msaada,s,muhula,auwali,kiwimbe,NA,NA,NA,NA,NA,NA,NA,NA,NA,NA,NA,NA,NA,NA,NA,NA,NA,NA,NA,NA,NA,NA,NA
258a8,Shallow Question,html.Page,1_1_1_1_0,NA,NA,form submission,3935.2629999882,2587470.5,2587455.327,2587471.937,2591407.2,2591407.4,2023-05-16T16:07:17Z,2591418.823,"c(""distractor1"", ""distractor2"", ""distractor3"")",Rückhalt,msaada,s,muhula,auwali,kiwimbe,kiwimbe,NA,NA,NA,NA,NA,NA,NA,NA,NA,NA,NA,NA,NA,NA,NA,NA,NA,NA,NA,NA,NA,NA
258a8,"""Richtig""-Screen",canvas.Screen,1_1_1_1_1,NA,NA,skipped,NA,2591409.4,NA,NA,2591407.2,2591409.5,2023-05-16T16:07:17Z,2591418.823,"c(""distractor1"", ""distractor2"", ""distractor3"")",Rückhalt,msaada,s,muhula,auwali,kiwimbe,NA,NA,NA,NA,NA,NA,NA,NA,NA,NA,NA,NA,NA,NA,NA,NA,NA,NA,NA,NA,NA,NA,NA
258a8,"""Falsch""-Screen",canvas.Screen,1_1_1_1_2,NA,NA,timeout,4995.7460000003,2591410.3,2591402.55,2591418.823,2596398.24,2596399.5,2023-05-16T16:07:22Z,2596414.569,"c(""distractor1"", ""distractor2"", ""distractor3"")",Rückhalt,msaada,s,muhula,auwali,kiwimbe,NA,NA,0,NA,NA,NA,NA,NA,NA,NA,NA,NA,NA,NA,NA,NA,NA,NA,NA,NA,NA,NA,NA
258a8,shallow,flow.Sequence,1_1_1_1,NA,NA,completion,8926.3030000003,2587470.3,2587455.327,2587471.937,2596398.24,2596400,2023-05-16T16:07:22Z,2596414.569,"c(""distractor1"", ""distractor2"", ""distractor3"")",Rückhalt,msaada,s,muhula,auwali,kiwimbe,NA,NA,NA,NA,NA,NA,NA,NA,NA,NA,NA,NA,NA,NA,NA,NA,NA,NA,NA,NA,NA,NA,NA
258a8,task,flow.Sequence,1_1_1,NA,NA,completion,8926.3030000003,2587469.9,2587455.327,2587471.937,2596398.24,2596400.3,2023-05-16T16:07:22Z,2596414.569,"c(""distractor1"", ""distractor2"", ""distractor3"")",Rückhalt,msaada,s,muhula,auwali,kiwimbe,NA,NA,NA,NA,NA,NA,NA,NA,NA,NA,NA,NA,NA,NA,NA,NA,NA,NA,NA,NA,NA,NA,NA
258a8,Deep Question,html.Page,1_1_2_0_0,NA,NA,form submission,3965.830999976,2596400.8,2596398.24,2596414.569,2600380.4,2600380.6,2023-05-16T16:07:26Z,2600394.901,"c(""distractor1"", ""distractor2"", ""distractor3"")",Gesundheit,salama,d,NA,NA,NA,m,NA,NA,NA,NA,NA,NA,NA,NA,NA,NA,NA,NA,NA,NA,NA,NA,NA,NA,NA,NA,NA,NA
258a8,"""Richtig""-Screen",canvas.Screen,1_1_2_0_1,NA,NA,skipped,NA,2600383.1,NA,NA,2600380.4,2600383.3,2023-05-16T16:07:26Z,2600394.901,"c(""distractor1"", ""distractor2"", ""distractor3"")",Gesundheit,salama,d,NA,NA,NA,NA,NA,NA,NA,NA,NA,NA,NA,NA,NA,NA,NA,NA,NA,NA,NA,NA,NA,NA,NA,NA,NA,NA
258a8,"""Falsch""-Screen",canvas.Screen,1_1_2_0_2,NA,NA,timeout,4995.642,2600384.3,2600378.527,2600394.901,2605373.878,2605374.9,2023-05-16T16:07:31Z,2605390.543,"c(""distractor1"", ""distractor2"", ""distractor3"")",Gesundheit,salama,d,NA,NA,NA,NA,NA,0,NA,NA,NA,NA,NA,NA,NA,NA,NA,NA,NA,NA,NA,NA,NA,NA,NA,NA,NA,NA
258a8,deep,flow.Sequence,1_1_2_0,NA,NA,completion,8959.3089999999,2596400.7,2596398.24,2596414.569,2605373.878,2605375.2,2023-05-16T16:07:31Z,2605390.543,"c(""distractor1"", ""distractor2"", ""distractor3"")",Gesundheit,salama,d,NA,NA,NA,NA,NA,NA,NA,NA,NA,NA,NA,NA,NA,NA,NA,NA,NA,NA,NA,NA,NA,NA,NA,NA,NA,NA
258a8,shallow,flow.Sequence,1_1_2_1,NA,NA,skipped,NA,2605375.5,NA,NA,2605373.878,2605375.7,2023-05-16T16:07:31Z,2605390.543,"c(""distractor1"", ""distractor2"", ""distractor3"")",Gesundheit,salama,d,NA,NA,NA,NA,NA,NA,NA,NA,NA,NA,NA,NA,NA,NA,NA,NA,NA,NA,NA,NA,NA,NA,NA,NA,NA,NA
258a8,task,flow.Sequence,1_1_2,NA,NA,completion,8959.3089999999,2596400.6,2596398.24,2596414.569,2605373.878,2605376,2023-05-16T16:07:31Z,2605390.543,"c(""distractor1"", ""distractor2"", ""distractor3"")",Gesundheit,salama,d,NA,NA,NA,NA,NA,NA,NA,NA,NA,NA,NA,NA,NA,NA,NA,NA,NA,NA,NA,NA,NA,NA,NA,NA,NA,NA
258a8,deep,flow.Sequence,1_1_3_0,NA,NA,skipped,NA,2605376.2,NA,NA,2605373.878,2605376.4,2023-05-16T16:07:31Z,2605390.543,"c(""distractor1"", ""distractor2"", ""distractor3"")",Kritik,lawama,s,dereva,nafasi,mawazo,NA,NA,NA,NA,NA,NA,NA,NA,NA,NA,NA,NA,NA,NA,NA,NA,NA,NA,NA,NA,NA,NA,NA
258a8,Shallow Question,html.Page,1_1_3_1_0,NA,NA,form submission,3813.8569999761,2605376.5,2605373.878,2605390.543,2609204.4,2609204.5,2023-05-16T16:07:35Z,2609230.326,"c(""distractor1"", ""distractor2"", ""distractor3"")",Kritik,lawama,s,dereva,nafasi,mawazo,dereva,NA,NA,NA,NA,NA,NA,NA,NA,NA,NA,NA,NA,NA,NA,NA,NA,NA,NA,NA,NA,NA,NA
258a8,"""Richtig""-Screen",canvas.Screen,1_1_3_1_1,NA,NA,skipped,NA,2609206.4,NA,NA,2609204.4,2609206.6,2023-05-16T16:07:35Z,2609230.326,"c(""distractor1"", ""distractor2"", ""distractor3"")",Kritik,lawama,s,dereva,nafasi,mawazo,NA,NA,NA,NA,NA,NA,NA,NA,NA,NA,NA,NA,NA,NA,NA,NA,NA,NA,NA,NA,NA,NA,NA
258a8,"""Falsch""-Screen",canvas.Screen,1_1_3_1_2,NA,NA,timeout,5002.9029999999,2609207.1,2609187.905,2609230.326,2614216.6,2614228,2023-05-16T16:07:40Z,2614233.229,"c(""distractor1"", ""distractor2"", ""distractor3"")",Kritik,lawama,s,dereva,nafasi,mawazo,NA,NA,0,NA,NA,NA,NA,NA,NA,NA,NA,NA,NA,NA,NA,NA,NA,NA,NA,NA,NA,NA,NA
258a8,shallow,flow.Sequence,1_1_3_1,NA,NA,completion,8826.057,2605376.5,2605373.878,2605390.543,2614216.6,2614228.4,2023-05-16T16:07:40Z,2614233.229,"c(""distractor1"", ""distractor2"", ""distractor3"")",Kritik,lawama,s,dereva,nafasi,mawazo,NA,NA,NA,NA,NA,NA,NA,NA,NA,NA,NA,NA,NA,NA,NA,NA,NA,NA,NA,NA,NA,NA,NA
258a8,task,flow.Sequence,1_1_3,NA,NA,completion,8826.057,2605376.1,2605373.878,2605390.543,2614216.6,2614228.7,2023-05-16T16:07:40Z,2614233.229,"c(""distractor1"", ""distractor2"", ""distractor3"")",Kritik,lawama,s,dereva,nafasi,mawazo,NA,NA,NA,NA,NA,NA,NA,NA,NA,NA,NA,NA,NA,NA,NA,NA,NA,NA,NA,NA,NA,NA,NA
258a8,Deep Question,html.Page,1_1_4_0_0,NA,NA,form submission,2910.5710000121,2614229,2614216.6,2614233.229,2617143.8,2617143.9,2023-05-16T16:07:43Z,2617147.473,"c(""distractor1"", ""distractor2"", ""distractor3"")",Qualität,mtindo,d,NA,NA,NA,m,NA,NA,NA,NA,NA,NA,NA,NA,NA,NA,NA,NA,NA,NA,NA,NA,NA,NA,NA,NA,NA,NA
258a8,"""Richtig""-Screen",canvas.Screen,1_1_4_0_1,NA,NA,skipped,NA,2617146.6,NA,NA,2617143.8,2617146.7,2023-05-16T16:07:43Z,2617147.473,"c(""distractor1"", ""distractor2"", ""distractor3"")",Qualität,mtindo,d,NA,NA,NA,NA,NA,NA,NA,NA,NA,NA,NA,NA,NA,NA,NA,NA,NA,NA,NA,NA,NA,NA,NA,NA,NA,NA
258a8,"""Falsch""-Screen",canvas.Screen,1_1_4_0_2,NA,NA,timeout,4996.1379999998,2617147.9,2617131.418,2617147.473,2622126.732,2622127.6,2023-05-16T16:07:48Z,2622143.611,"c(""distractor1"", ""distractor2"", ""distractor3"")",Qualität,mtindo,d,NA,NA,NA,NA,NA,0,NA,NA,NA,NA,NA,NA,NA,NA,NA,NA,NA,NA,NA,NA,NA,NA,NA,NA,NA,NA
258a8,deep,flow.Sequence,1_1_4_0,NA,NA,completion,7893.503,2614228.9,2614216.6,2614233.229,2622126.732,2622128,2023-05-16T16:07:48Z,2622143.611,"c(""distractor1"", ""distractor2"", ""distractor3"")",Qualität,mtindo,d,NA,NA,NA,NA,NA,NA,NA,NA,NA,NA,NA,NA,NA,NA,NA,NA,NA,NA,NA,NA,NA,NA,NA,NA,NA,NA
258a8,shallow,flow.Sequence,1_1_4_1,NA,NA,skipped,NA,2622128.2,NA,NA,2622126.732,2622128.3,2023-05-16T16:07:48Z,2622143.611,"c(""distractor1"", ""distractor2"", ""distractor3"")",Qualität,mtindo,d,NA,NA,NA,NA,NA,NA,NA,NA,NA,NA,NA,NA,NA,NA,NA,NA,NA,NA,NA,NA,NA,NA,NA,NA,NA,NA
258a8,task,flow.Sequence,1_1_4,NA,NA,completion,7893.503,2614228.8,2614216.6,2614233.229,2622126.732,2622128.6,2023-05-16T16:07:48Z,2622143.611,"c(""distractor1"", ""distractor2"", ""distractor3"")",Qualität,mtindo,d,NA,NA,NA,NA,NA,NA,NA,NA,NA,NA,NA,NA,NA,NA,NA,NA,NA,NA,NA,NA,NA,NA,NA,NA,NA,NA
258a8,deep,flow.Sequence,1_1_5_0,NA,NA,skipped,NA,2622128.9,NA,NA,2622126.732,2622128.9,2023-05-16T16:07:48Z,2622143.611,"c(""distractor1"", ""distractor2"", ""distractor3"")",Gegenwart,hadhara,s,katiba,jokofu,mikopo,NA,NA,NA,NA,NA,NA,NA,NA,NA,NA,NA,NA,NA,NA,NA,NA,NA,NA,NA,NA,NA,NA,NA
258a8,Shallow Question,html.Page,1_1_5_1_0,NA,NA,form submission,3892.1890000119,2622129.1,2622126.732,2622143.611,2626035.8,2626036,2023-05-16T16:07:52Z,2626040.116,"c(""distractor1"", ""distractor2"", ""distractor3"")",Gegenwart,hadhara,s,katiba,jokofu,mikopo,hadhara,NA,NA,NA,NA,NA,NA,NA,NA,NA,NA,NA,NA,NA,NA,NA,NA,NA,NA,NA,NA,NA,NA
258a8,"""Richtig""-Screen",canvas.Screen,1_1_5_1_1,NA,NA,timeout,4995.9550000001,2626037.8,2626024.065,2626040.116,2631019.967,2631021.1,2023-05-16T16:07:57Z,2631036.071,"c(""distractor1"", ""distractor2"", ""distractor3"")",Gegenwart,hadhara,s,katiba,jokofu,mikopo,NA,NA,1,NA,NA,NA,NA,NA,NA,NA,NA,NA,NA,NA,NA,NA,NA,NA,NA,NA,NA,NA,NA
258a8,"""Falsch""-Screen",canvas.Screen,1_1_5_1_2,NA,NA,skipped,NA,2631026.2,NA,NA,2631019.967,2631026.5,2023-05-16T16:07:57Z,2631036.071,"c(""distractor1"", ""distractor2"", ""distractor3"")",Gegenwart,hadhara,s,katiba,jokofu,mikopo,NA,NA,NA,NA,NA,NA,NA,NA,NA,NA,NA,NA,NA,NA,NA,NA,NA,NA,NA,NA,NA,NA,NA
258a8,shallow,flow.Sequence,1_1_5_1,NA,NA,completion,8876.3560000001,2622129.1,2622126.732,2622143.611,2631019.967,2631027,2023-05-16T16:07:57Z,2631036.071,"c(""distractor1"", ""distractor2"", ""distractor3"")",Gegenwart,hadhara,s,katiba,jokofu,mikopo,NA,NA,NA,NA,NA,NA,NA,NA,NA,NA,NA,NA,NA,NA,NA,NA,NA,NA,NA,NA,NA,NA,NA
258a8,task,flow.Sequence,1_1_5,NA,NA,completion,8876.3560000001,2622128.8,2622126.732,2622143.611,2631019.967,2631027.3,2023-05-16T16:07:57Z,2631036.071,"c(""distractor1"", ""distractor2"", ""distractor3"")",Gegenwart,hadhara,s,katiba,jokofu,mikopo,NA,NA,NA,NA,NA,NA,NA,NA,NA,NA,NA,NA,NA,NA,NA,NA,NA,NA,NA,NA,NA,NA,NA
258a8,block,flow.Loop,1_1,NA,NA,completion,52906.962,2578097.6,2578095.751,2578113.005,2631019.967,2631027.8,2023-05-16T16:07:57Z,2631036.071,"c(""distractor1"", ""distractor2"", ""distractor3"")",NA,NA,NA,NA,NA,NA,NA,NA,NA,NA,NA,NA,NA,NA,NA,NA,NA,NA,NA,NA,NA,NA,NA,NA,NA,NA,NA,NA,NA
258a8,Practice,flow.Sequence,1,NA,NA,completion,63798.093,2567217.2,2567206.049,2567221.874,2631019.967,2631028.1,2023-05-16T16:07:57Z,2631036.071,NULL,NA,NA,NA,NA,NA,NA,NA,NA,NA,NA,NA,NA,NA,NA,NA,NA,NA,NA,NA,NA,NA,NA,NA,NA,NA,NA,NA,NA,NA
258a8,Experiment start,canvas.Screen,2,weiter,keypress(q),response,7242.929,2631028.3,2631019.967,2631036.071,2638279,2638280.5,2023-05-16T16:08:04Z,2638480.247,NULL,NA,NA,NA,NA,NA,NA,NA,NA,NA,NA,NA,NA,NA,NA,NA,NA,NA,NA,NA,NA,NA,NA,NA,NA,NA,NA,NA,NA,NA
258a8,deep,flow.Sequence,3_0_0_0_0_0,NA,NA,skipped,NA,2638469.1,NA,NA,2638279,2638469.2,2023-05-16T16:08:04Z,2638480.247,NULL,Papier,karatasi,s,uchambuzi,usalama,kukataliwa,NA,sdf,NA,0,NA,NA,NA,NA,NA,NA,NA,NA,NA,NA,NA,NA,NA,NA,NA,NA,NA,NA,NA
258a8,Shallow Question,html.Page,3_0_0_0_0_1_0,NA,NA,form submission,5974.5530000119,2638469.3,2638463.394,2638480.247,2644454.8,2644455,2023-05-16T16:08:10Z,2644458.318,NULL,Papier,karatasi,s,uchambuzi,usalama,kukataliwa,uchambuzi,NA,NA,0,NA,NA,NA,NA,NA,NA,NA,NA,NA,NA,NA,NA,NA,NA,NA,NA,NA,NA,NA
258a8,"""Richtig""-Screen",canvas.Screen,3_0_0_0_0_1_1,NA,NA,skipped,NA,2644456.9,NA,NA,2644454.8,2644457,2023-05-16T16:08:10Z,2644458.318,NULL,Papier,karatasi,s,uchambuzi,usalama,kukataliwa,NA,sdf,NA,0,NA,NA,NA,NA,NA,NA,NA,NA,NA,NA,NA,NA,NA,NA,NA,NA,NA,NA,NA
258a8,"""Falsch""-Screen",canvas.Screen,3_0_0_0_0_1_2,NA,NA,timeout,4995.946,2644457.5,2644442.207,2644458.318,2649438.131,2649439.3,2023-05-16T16:08:15Z,2649454.264,NULL,Papier,karatasi,s,uchambuzi,usalama,kukataliwa,NA,sdf,0,0,NA,NA,NA,NA,NA,NA,NA,NA,NA,NA,NA,NA,NA,NA,NA,NA,NA,NA,NA
258a8,shallow,flow.Sequence,3_0_0_0_0_1,NA,NA,completion,10957.884,2638469.3,2638463.394,2638480.247,2649438.131,2649439.7,2023-05-16T16:08:15Z,2649454.264,NULL,Papier,karatasi,s,uchambuzi,usalama,kukataliwa,NA,sdf,NA,0,NA,NA,NA,NA,NA,NA,NA,NA,NA,NA,NA,NA,NA,NA,NA,NA,NA,NA,NA
258a8,task,flow.Sequence,3_0_0_0_0,NA,NA,completion,10957.884,2638469.1,2638463.394,2638480.247,2649438.131,2649439.9,2023-05-16T16:08:15Z,2649454.264,NULL,Papier,karatasi,s,uchambuzi,usalama,kukataliwa,NA,sdf,NA,0,NA,NA,NA,NA,NA,NA,NA,NA,NA,NA,NA,NA,NA,NA,NA,NA,NA,NA,NA
258a8,Deep Question,html.Page,3_0_0_0_1_0_0,NA,NA,form submission,2128.736,2649440.2,2649438.131,2649454.264,2651583,2651583.2,2023-05-16T16:08:17Z,2651585.746,NULL,Körper,kiwiliwili,d,NA,NA,NA,m,NA,NA,0,NA,NA,NA,NA,NA,NA,NA,NA,NA,NA,NA,NA,NA,NA,NA,NA,NA,NA,NA
258a8,"""Richtig""-Screen",canvas.Screen,3_0_0_0_1_0_1,NA,NA,skipped,NA,2651585.6,NA,NA,2651583,2651586,2023-05-16T16:08:17Z,2651585.746,NULL,Körper,kiwiliwili,d,NA,NA,NA,NA,sdf,NA,0,NA,NA,NA,NA,NA,NA,NA,NA,NA,NA,NA,NA,NA,NA,NA,NA,NA,NA,NA
258a8,"""Falsch""-Screen",canvas.Screen,3_0_0_0_1_0_2,NA,NA,timeout,4996.057,2651586.5,2651569.633,2651585.746,2656565.521,2656566.5,2023-05-16T16:08:22Z,2656581.803,NULL,Körper,kiwiliwili,d,NA,NA,NA,NA,sdf,0,0,NA,NA,NA,NA,NA,NA,NA,NA,NA,NA,NA,NA,NA,NA,NA,NA,NA,NA,NA
258a8,deep,flow.Sequence,3_0_0_0_1_0,NA,NA,completion,7111.2570000002,2649440.1,2649438.131,2649454.264,2656565.521,2656566.8,2023-05-16T16:08:22Z,2656581.803,NULL,Körper,kiwiliwili,d,NA,NA,NA,NA,sdf,NA,0,NA,NA,NA,NA,NA,NA,NA,NA,NA,NA,NA,NA,NA,NA,NA,NA,NA,NA,NA
258a8,shallow,flow.Sequence,3_0_0_0_1_1,NA,NA,skipped,NA,2656567,NA,NA,2656565.521,2656567.2,2023-05-16T16:08:22Z,2656581.803,NULL,Körper,kiwiliwili,d,NA,NA,NA,NA,sdf,NA,0,NA,NA,NA,NA,NA,NA,NA,NA,NA,NA,NA,NA,NA,NA,NA,NA,NA,NA,NA
258a8,task,flow.Sequence,3_0_0_0_1,NA,NA,completion,7111.2570000002,2649440.1,2649438.131,2649454.264,2656565.521,2656567.3,2023-05-16T16:08:22Z,2656581.803,NULL,Körper,kiwiliwili,d,NA,NA,NA,NA,sdf,NA,0,NA,NA,NA,NA,NA,NA,NA,NA,NA,NA,NA,NA,NA,NA,NA,NA,NA,NA,NA
258a8,deep,flow.Sequence,3_0_0_0_2_0,NA,NA,skipped,NA,2656567.5,NA,NA,2656565.521,2656567.7,2023-05-16T16:08:22Z,2656581.803,NULL,Lawine,banguko,s,maambukizi,usuluhishi,chekechea,NA,sdf,NA,0,NA,NA,NA,NA,NA,NA,NA,NA,NA,NA,NA,NA,NA,NA,NA,NA,NA,NA,NA
258a8,Shallow Question,html.Page,3_0_0_0_2_1_0,NA,NA,form submission,3451.5969999763,2656567.8,2656565.521,2656581.803,2660033.4,2660033.6,2023-05-16T16:08:26Z,2660045.771,NULL,Lawine,banguko,s,maambukizi,usuluhishi,chekechea,usuluhishi,NA,NA,0,NA,NA,NA,NA,NA,NA,NA,NA,NA,NA,NA,NA,NA,NA,NA,NA,NA,NA,NA
258a8,"""Richtig""-Screen",canvas.Screen,3_0_0_0_2_1_1,NA,NA,skipped,NA,2660035.3,NA,NA,2660033.4,2660035.4,2023-05-16T16:08:26Z,2660045.771,NULL,Lawine,banguko,s,maambukizi,usuluhishi,chekechea,NA,sdf,NA,0,NA,NA,NA,NA,NA,NA,NA,NA,NA,NA,NA,NA,NA,NA,NA,NA,NA,NA,NA
258a8,"""Falsch""-Screen",canvas.Screen,3_0_0_0_2_1_2,NA,NA,timeout,4996.1699999999,2660036,2660029.414,2660045.771,2665025.285,2665026.4,2023-05-16T16:08:31Z,2665041.941,NULL,Lawine,banguko,s,maambukizi,usuluhishi,chekechea,NA,sdf,0,0,NA,NA,NA,NA,NA,NA,NA,NA,NA,NA,NA,NA,NA,NA,NA,NA,NA,NA,NA
258a8,shallow,flow.Sequence,3_0_0_0_2_1,NA,NA,completion,8443.4820000003,2656567.7,2656565.521,2656581.803,2665025.285,2665026.9,2023-05-16T16:08:31Z,2665041.941,NULL,Lawine,banguko,s,maambukizi,usuluhishi,chekechea,NA,sdf,NA,0,NA,NA,NA,NA,NA,NA,NA,NA,NA,NA,NA,NA,NA,NA,NA,NA,NA,NA,NA
258a8,task,flow.Sequence,3_0_0_0_2,NA,NA,completion,8443.4820000003,2656567.4,2656565.521,2656581.803,2665025.285,2665027.2,2023-05-16T16:08:31Z,2665041.941,NULL,Lawine,banguko,s,maambukizi,usuluhishi,chekechea,NA,sdf,NA,0,NA,NA,NA,NA,NA,NA,NA,NA,NA,NA,NA,NA,NA,NA,NA,NA,NA,NA,NA
258a8,Deep Question,html.Page,3_0_0_0_3_0_0,NA,NA,form submission,3661.6590000237,2665027.3,2665025.285,2665041.941,2668703.6,2668703.7,2023-05-16T16:08:34Z,2668705.022,NULL,Übersicht,kilindo,d,NA,NA,NA,m,NA,NA,0,NA,NA,NA,NA,NA,NA,NA,NA,NA,NA,NA,NA,NA,NA,NA,NA,NA,NA,NA
258a8,"""Richtig""-Screen",canvas.Screen,3_0_0_0_3_0_1,NA,NA,skipped,NA,2668706.5,NA,NA,2668703.6,2668706.6,2023-05-16T16:08:34Z,2668705.022,NULL,Übersicht,kilindo,d,NA,NA,NA,NA,sdf,NA,0,NA,NA,NA,NA,NA,NA,NA,NA,NA,NA,NA,NA,NA,NA,NA,NA,NA,NA,NA
258a8,"""Falsch""-Screen",canvas.Screen,3_0_0_0_3_0_2,NA,NA,timeout,4996.068,2668707.7,2668688.957,2668705.022,2673684.728,2673685.7,2023-05-16T16:08:39Z,2673701.09,NULL,Übersicht,kilindo,d,NA,NA,NA,NA,sdf,0,0,NA,NA,NA,NA,NA,NA,NA,NA,NA,NA,NA,NA,NA,NA,NA,NA,NA,NA,NA
258a8,deep,flow.Sequence,3_0_0_0_3_0,NA,NA,completion,8642.787,2665027.3,2665025.285,2665041.941,2673684.728,2673686.2,2023-05-16T16:08:39Z,2673701.09,NULL,Übersicht,kilindo,d,NA,NA,NA,NA,sdf,NA,0,NA,NA,NA,NA,NA,NA,NA,NA,NA,NA,NA,NA,NA,NA,NA,NA,NA,NA,NA
258a8,shallow,flow.Sequence,3_0_0_0_3_1,NA,NA,skipped,NA,2673686.3,NA,NA,2673684.728,2673686.5,2023-05-16T16:08:39Z,2673701.09,NULL,Übersicht,kilindo,d,NA,NA,NA,NA,sdf,NA,0,NA,NA,NA,NA,NA,NA,NA,NA,NA,NA,NA,NA,NA,NA,NA,NA,NA,NA,NA
258a8,task,flow.Sequence,3_0_0_0_3,NA,NA,completion,8642.787,2665027.3,2665025.285,2665041.941,2673684.728,2673686.7,2023-05-16T16:08:39Z,2673701.09,NULL,Übersicht,kilindo,d,NA,NA,NA,NA,sdf,NA,0,NA,NA,NA,NA,NA,NA,NA,NA,NA,NA,NA,NA,NA,NA,NA,NA,NA,NA,NA
258a8,deep,flow.Sequence,3_0_0_0_4_0,NA,NA,skipped,NA,2673686.9,NA,NA,2673684.728,2673687,2023-05-16T16:08:39Z,2673701.09,NULL,System,maongozi,s,chokochoko,nuksani,mitaani,NA,sdf,NA,0,NA,NA,NA,NA,NA,NA,NA,NA,NA,NA,NA,NA,NA,NA,NA,NA,NA,NA,NA
258a8,Shallow Question,html.Page,3_0_0_0_4_1_0,NA,NA,form submission,3514.510000024,2673687.2,2673684.728,2673701.09,2677215.6,2677215.7,2023-05-16T16:08:43Z,2677231.893,NULL,System,maongozi,s,chokochoko,nuksani,mitaani,chokochoko,NA,NA,0,NA,NA,NA,NA,NA,NA,NA,NA,NA,NA,NA,NA,NA,NA,NA,NA,NA,NA,NA
258a8,"""Richtig""-Screen",canvas.Screen,3_0_0_0_4_1_1,NA,NA,skipped,NA,2677217.6,NA,NA,2677215.6,2677217.7,2023-05-16T16:08:43Z,2677231.893,NULL,System,maongozi,s,chokochoko,nuksani,mitaani,NA,sdf,NA,0,NA,NA,NA,NA,NA,NA,NA,NA,NA,NA,NA,NA,NA,NA,NA,NA,NA,NA,NA
258a8,"""Falsch""-Screen",canvas.Screen,3_0_0_0_4_1_2,NA,NA,timeout,4995.915,2677218.2,2677214.824,2677231.893,2682211.014,2682212.1,2023-05-16T16:08:48Z,2682227.808,NULL,System,maongozi,s,chokochoko,nuksani,mitaani,NA,sdf,0,0,NA,NA,NA,NA,NA,NA,NA,NA,NA,NA,NA,NA,NA,NA,NA,NA,NA,NA,NA
258a8,shallow,flow.Sequence,3_0_0_0_4_1,NA,NA,completion,8509.9240000001,2673687.1,2673684.728,2673701.09,2682211.014,2682212.4,2023-05-16T16:08:48Z,2682227.808,NULL,System,maongozi,s,chokochoko,nuksani,mitaani,NA,sdf,NA,0,NA,NA,NA,NA,NA,NA,NA,NA,NA,NA,NA,NA,NA,NA,NA,NA,NA,NA,NA
258a8,task,flow.Sequence,3_0_0_0_4,NA,NA,completion,8509.9240000001,2673686.8,2673684.728,2673701.09,2682211.014,2682212.7,2023-05-16T16:08:48Z,2682227.808,NULL,System,maongozi,s,chokochoko,nuksani,mitaani,NA,sdf,NA,0,NA,NA,NA,NA,NA,NA,NA,NA,NA,NA,NA,NA,NA,NA,NA,NA,NA,NA,NA
258a8,Deep Question,html.Page,3_0_0_0_5_0_0,NA,NA,form submission,2148.091999976,2682212.9,2682211.014,2682227.808,2684375.9,2684376.1,2023-05-16T16:08:50Z,2684392.663,NULL,Entwicklung,maendeleo,d,NA,NA,NA,m,NA,NA,0,NA,NA,NA,NA,NA,NA,NA,NA,NA,NA,NA,NA,NA,NA,NA,NA,NA,NA,NA
258a8,"""Richtig""-Screen",canvas.Screen,3_0_0_0_5_0_1,NA,NA,skipped,NA,2684377.9,NA,NA,2684375.9,2684378.1,2023-05-16T16:08:50Z,2684392.663,NULL,Entwicklung,maendeleo,d,NA,NA,NA,NA,sdf,NA,0,NA,NA,NA,NA,NA,NA,NA,NA,NA,NA,NA,NA,NA,NA,NA,NA,NA,NA,NA
258a8,"""Falsch""-Screen",canvas.Screen,3_0_0_0_5_0_2,NA,NA,timeout,4995.9139999999,2684378.7,2684359.38,2684392.663,2689371.919,2689373,2023-05-16T16:08:55Z,2689388.577,NULL,Entwicklung,maendeleo,d,NA,NA,NA,NA,sdf,0,0,NA,NA,NA,NA,NA,NA,NA,NA,NA,NA,NA,NA,NA,NA,NA,NA,NA,NA,NA
258a8,deep,flow.Sequence,3_0_0_0_5_0,NA,NA,completion,7144.111,2682212.8,2682211.014,2682227.808,2689371.919,2689373.3,2023-05-16T16:08:55Z,2689388.577,NULL,Entwicklung,maendeleo,d,NA,NA,NA,NA,sdf,NA,0,NA,NA,NA,NA,NA,NA,NA,NA,NA,NA,NA,NA,NA,NA,NA,NA,NA,NA,NA
258a8,shallow,flow.Sequence,3_0_0_0_5_1,NA,NA,skipped,NA,2689373.4,NA,NA,2689371.919,2689373.6,2023-05-16T16:08:55Z,2689388.577,NULL,Entwicklung,maendeleo,d,NA,NA,NA,NA,sdf,NA,0,NA,NA,NA,NA,NA,NA,NA,NA,NA,NA,NA,NA,NA,NA,NA,NA,NA,NA,NA
258a8,task,flow.Sequence,3_0_0_0_5,NA,NA,completion,7144.111,2682212.8,2682211.014,2682227.808,2689371.919,2689373.9,2023-05-16T16:08:55Z,2689388.577,NULL,Entwicklung,maendeleo,d,NA,NA,NA,NA,sdf,NA,0,NA,NA,NA,NA,NA,NA,NA,NA,NA,NA,NA,NA,NA,NA,NA,NA,NA,NA,NA
258a8,Deep Question,html.Page,3_0_0_0_6_0_0,NA,NA,form submission,3960.7230000119,2689374.1,2689371.919,2689388.577,2693349.3,2693349.6,2023-05-16T16:08:59Z,2693351.365,NULL,Vorwurf,mashtaka,d,NA,NA,NA,m,NA,NA,0,NA,NA,NA,NA,NA,NA,NA,NA,NA,NA,NA,NA,NA,NA,NA,NA,NA,NA,NA
258a8,"""Richtig""-Screen",canvas.Screen,3_0_0_0_6_0_1,NA,NA,skipped,NA,2693351.8,NA,NA,2693349.3,2693352,2023-05-16T16:08:59Z,2693351.365,NULL,Vorwurf,mashtaka,d,NA,NA,NA,NA,sdf,NA,0,NA,NA,NA,NA,NA,NA,NA,NA,NA,NA,NA,NA,NA,NA,NA,NA,NA,NA,NA
258a8,"""Falsch""-Screen",canvas.Screen,3_0_0_0_6_0_2,NA,NA,timeout,4996.3409999995,2693353,2693335.34,2693351.365,2698331.185,2698332.2,2023-05-16T16:09:04Z,2698347.706,NULL,Vorwurf,mashtaka,d,NA,NA,NA,NA,sdf,0,0,NA,NA,NA,NA,NA,NA,NA,NA,NA,NA,NA,NA,NA,NA,NA,NA,NA,NA,NA
258a8,deep,flow.Sequence,3_0_0_0_6_0,NA,NA,completion,8942.608,2689374.1,2689371.919,2689388.577,2698331.185,2698332.7,2023-05-16T16:09:04Z,2698347.706,NULL,Vorwurf,mashtaka,d,NA,NA,NA,NA,sdf,NA,0,NA,NA,NA,NA,NA,NA,NA,NA,NA,NA,NA,NA,NA,NA,NA,NA,NA,NA,NA
258a8,shallow,flow.Sequence,3_0_0_0_6_1,NA,NA,skipped,NA,2698332.8,NA,NA,2698331.185,2698332.9,2023-05-16T16:09:04Z,2698347.706,NULL,Vorwurf,mashtaka,d,NA,NA,NA,NA,sdf,NA,0,NA,NA,NA,NA,NA,NA,NA,NA,NA,NA,NA,NA,NA,NA,NA,NA,NA,NA,NA
258a8,task,flow.Sequence,3_0_0_0_6,NA,NA,completion,8942.608,2689373.9,2689371.919,2689388.577,2698331.185,2698333,2023-05-16T16:09:04Z,2698347.706,NULL,Vorwurf,mashtaka,d,NA,NA,NA,NA,sdf,NA,0,NA,NA,NA,NA,NA,NA,NA,NA,NA,NA,NA,NA,NA,NA,NA,NA,NA,NA,NA
258a8,deep,flow.Sequence,3_0_0_0_7_0,NA,NA,skipped,NA,2698333.2,NA,NA,2698331.185,2698333.3,2023-05-16T16:09:04Z,2698347.706,NULL,Niveau,kiwango,s,usimamizi,mwamali,mshairi,NA,sdf,NA,0,NA,NA,NA,NA,NA,NA,NA,NA,NA,NA,NA,NA,NA,NA,NA,NA,NA,NA,NA
258a8,Shallow Question,html.Page,3_0_0_0_7_1_0,NA,NA,form submission,3503.6939999764,2698333.3,2698331.185,2698347.706,2701851.4,2701851.6,2023-05-16T16:09:08Z,2701861.22,NULL,Niveau,kiwango,s,usimamizi,mwamali,mshairi,kiwango,NA,NA,0,NA,NA,NA,NA,NA,NA,NA,NA,NA,NA,NA,NA,NA,NA,NA,NA,NA,NA,NA
258a8,"""Richtig""-Screen",canvas.Screen,3_0_0_0_7_1_1,NA,NA,timeout,4995.7339999997,2701853.5,2701844.868,2701861.22,2706840.87,2706841.9,2023-05-16T16:09:13Z,2706856.954,NULL,Niveau,kiwango,s,usimamizi,mwamali,mshairi,NA,sdf,1,0,NA,NA,NA,NA,NA,NA,NA,NA,NA,NA,NA,NA,NA,NA,NA,NA,NA,NA,NA
258a8,"""Falsch""-Screen",canvas.Screen,3_0_0_0_7_1_2,NA,NA,skipped,NA,2706846.9,NA,NA,2706840.87,2706847.3,2023-05-16T16:09:13Z,2706856.954,NULL,Niveau,kiwango,s,usimamizi,mwamali,mshairi,NA,sdf,NA,0,NA,NA,NA,NA,NA,NA,NA,NA,NA,NA,NA,NA,NA,NA,NA,NA,NA,NA,NA
258a8,shallow,flow.Sequence,3_0_0_0_7_1,NA,NA,completion,8493.1640000003,2698333.3,2698331.185,2698347.706,2706840.87,2706847.7,2023-05-16T16:09:13Z,2706856.954,NULL,Niveau,kiwango,s,usimamizi,mwamali,mshairi,NA,sdf,NA,0,NA,NA,NA,NA,NA,NA,NA,NA,NA,NA,NA,NA,NA,NA,NA,NA,NA,NA,NA
258a8,task,flow.Sequence,3_0_0_0_7,NA,NA,completion,8493.1640000003,2698333.1,2698331.185,2698347.706,2706840.87,2706847.8,2023-05-16T16:09:13Z,2706856.954,NULL,Niveau,kiwango,s,usimamizi,mwamali,mshairi,NA,sdf,NA,0,NA,NA,NA,NA,NA,NA,NA,NA,NA,NA,NA,NA,NA,NA,NA,NA,NA,NA,NA
258a8,block,flow.Loop,3_0_0_0,NA,NA,completion,68360.623,2638469.1,2638463.394,2638480.247,2706840.87,2706848.1,2023-05-16T16:09:13Z,2706856.954,NULL,NA,NA,NA,NA,NA,NA,NA,sdf,NA,0,NA,NA,NA,NA,NA,NA,NA,NA,NA,NA,NA,NA,NA,NA,NA,NA,NA,NA,NA
258a8,weiter,canvas.Screen,3_0_0_1,sdf,keypress(Space),response,1155.5460000001,2706848.2,2706840.87,2706856.954,2708012.5,2708013.8,2023-05-16T16:09:14Z,2708122.572,NULL,NA,NA,NA,NA,NA,NA,NA,sdf,NA,0,NA,NA,NA,NA,NA,NA,NA,NA,NA,NA,NA,NA,NA,NA,NA,NA,NA,NA,NA
258a8,check continue,flow.Sequence,3_0_0,NA,NA,completion,69532.253,2638469,2638463.394,2638480.247,2708012.5,2708014.3,2023-05-16T16:09:14Z,2708122.572,NULL,NA,NA,NA,NA,NA,NA,NA,sdf,NA,0,NA,NA,NA,NA,NA,NA,NA,NA,NA,NA,NA,NA,NA,NA,NA,NA,NA,NA,NA
258a8,Deep Question,html.Page,3_0_1_0_0_0_0,NA,NA,form submission,2827.9279999998,2708115.4,2708106.458,2708122.572,2710950.5,2710950.7,2023-05-16T16:09:17Z,2710953.54,NULL,Vorwurf,mashtaka,d,NA,NA,NA,m,NA,NA,1,NA,NA,NA,NA,NA,NA,NA,NA,NA,NA,NA,NA,NA,NA,NA,NA,NA,NA,NA
258a8,"""Richtig""-Screen",canvas.Screen,3_0_1_0_0_0_1,NA,NA,skipped,NA,2710951.4,NA,NA,2710950.5,2710951.5,2023-05-16T16:09:17Z,2710953.54,NULL,Vorwurf,mashtaka,d,NA,NA,NA,NA,sdfdsf,NA,1,NA,NA,NA,NA,NA,NA,NA,NA,NA,NA,NA,NA,NA,NA,NA,NA,NA,NA,NA
258a8,"""Falsch""-Screen",canvas.Screen,3_0_1_0_0_0_2,NA,NA,timeout,4995.9640000002,2710952.3,2710937.492,2710953.54,2715933.39,2715934.6,2023-05-16T16:09:22Z,2715949.504,NULL,Vorwurf,mashtaka,d,NA,NA,NA,NA,sdfdsf,0,1,NA,NA,NA,NA,NA,NA,NA,NA,NA,NA,NA,NA,NA,NA,NA,NA,NA,NA,NA
258a8,deep,flow.Sequence,3_0_1_0_0_0,NA,NA,completion,7810.818,2708115.4,2708106.458,2708122.572,2715933.39,2715935.1,2023-05-16T16:09:22Z,2715949.504,NULL,Vorwurf,mashtaka,d,NA,NA,NA,NA,sdfdsf,NA,1,NA,NA,NA,NA,NA,NA,NA,NA,NA,NA,NA,NA,NA,NA,NA,NA,NA,NA,NA
258a8,shallow,flow.Sequence,3_0_1_0_0_1,NA,NA,skipped,NA,2715935.3,NA,NA,2715933.39,2715935.5,2023-05-16T16:09:22Z,2715949.504,NULL,Vorwurf,mashtaka,d,NA,NA,NA,NA,sdfdsf,NA,1,NA,NA,NA,NA,NA,NA,NA,NA,NA,NA,NA,NA,NA,NA,NA,NA,NA,NA,NA
258a8,task,flow.Sequence,3_0_1_0_0,NA,NA,completion,7810.818,2708115.4,2708106.458,2708122.572,2715933.39,2715935.7,2023-05-16T16:09:22Z,2715949.504,NULL,Vorwurf,mashtaka,d,NA,NA,NA,NA,sdfdsf,NA,1,NA,NA,NA,NA,NA,NA,NA,NA,NA,NA,NA,NA,NA,NA,NA,NA,NA,NA,NA
258a8,deep,flow.Sequence,3_0_1_0_1_0,NA,NA,skipped,NA,2715935.9,NA,NA,2715933.39,2715936,2023-05-16T16:09:22Z,2715949.504,NULL,Papier,karatasi,s,uchambuzi,usalama,kukataliwa,NA,sdfdsf,NA,1,NA,NA,NA,NA,NA,NA,NA,NA,NA,NA,NA,NA,NA,NA,NA,NA,NA,NA,NA
258a8,Shallow Question,html.Page,3_0_1_0_1_1_0,NA,NA,form submission,5214.2960000117,2715936.2,2715933.39,2715949.504,2721163.8,2721164,2023-05-16T16:09:27Z,2721178.791,NULL,Papier,karatasi,s,uchambuzi,usalama,kukataliwa,kukataliwa,NA,NA,1,NA,NA,NA,NA,NA,NA,NA,NA,NA,NA,NA,NA,NA,NA,NA,NA,NA,NA,NA
258a8,"""Richtig""-Screen",canvas.Screen,3_0_1_0_1_1_1,NA,NA,skipped,NA,2721165.9,NA,NA,2721163.8,2721166,2023-05-16T16:09:27Z,2721178.791,NULL,Papier,karatasi,s,uchambuzi,usalama,kukataliwa,NA,sdfdsf,NA,1,NA,NA,NA,NA,NA,NA,NA,NA,NA,NA,NA,NA,NA,NA,NA,NA,NA,NA,NA
258a8,"""Falsch""-Screen",canvas.Screen,3_0_1_0_1_1_2,NA,NA,timeout,4995.6259999997,2721166.6,2721162.216,2721178.791,2726158.302,2726159.4,2023-05-16T16:09:32Z,2726174.417,NULL,Papier,karatasi,s,uchambuzi,usalama,kukataliwa,NA,sdfdsf,0,1,NA,NA,NA,NA,NA,NA,NA,NA,NA,NA,NA,NA,NA,NA,NA,NA,NA,NA,NA
258a8,shallow,flow.Sequence,3_0_1_0_1_1,NA,NA,completion,10208.798,2715936.2,2715933.39,2715949.504,2726158.302,2726159.7,2023-05-16T16:09:32Z,2726174.417,NULL,Papier,karatasi,s,uchambuzi,usalama,kukataliwa,NA,sdfdsf,NA,1,NA,NA,NA,NA,NA,NA,NA,NA,NA,NA,NA,NA,NA,NA,NA,NA,NA,NA,NA
258a8,task,flow.Sequence,3_0_1_0_1,NA,NA,completion,10208.798,2715935.8,2715933.39,2715949.504,2726158.302,2726160,2023-05-16T16:09:32Z,2726174.417,NULL,Papier,karatasi,s,uchambuzi,usalama,kukataliwa,NA,sdfdsf,NA,1,NA,NA,NA,NA,NA,NA,NA,NA,NA,NA,NA,NA,NA,NA,NA,NA,NA,NA,NA
258a8,deep,flow.Sequence,3_0_1_0_2_0,NA,NA,skipped,NA,2726160.4,NA,NA,2726158.302,2726160.6,2023-05-16T16:09:32Z,2726174.417,NULL,Niveau,kiwango,s,usimamizi,mwamali,mshairi,NA,sdfdsf,NA,1,NA,NA,NA,NA,NA,NA,NA,NA,NA,NA,NA,NA,NA,NA,NA,NA,NA,NA,NA
258a8,Shallow Question,html.Page,3_0_1_0_2_1_0,NA,NA,form submission,4705.6830000239,2726160.7,2726158.302,2726174.417,2730880.1,2730880.3,2023-05-16T16:09:37Z,2730887.296,NULL,Niveau,kiwango,s,usimamizi,mwamali,mshairi,kiwango,NA,NA,1,NA,NA,NA,NA,NA,NA,NA,NA,NA,NA,NA,NA,NA,NA,NA,NA,NA,NA,NA
258a8,"""Richtig""-Screen",canvas.Screen,3_0_1_0_2_1_1,NA,NA,timeout,4995.8339999998,2730882,2730871.068,2730887.296,2735866.966,2735868.1,2023-05-16T16:09:42Z,2735883.13,NULL,Niveau,kiwango,s,usimamizi,mwamali,mshairi,NA,sdfdsf,1,1,NA,NA,NA,NA,NA,NA,NA,NA,NA,NA,NA,NA,NA,NA,NA,NA,NA,NA,NA
258a8,"""Falsch""-Screen",canvas.Screen,3_0_1_0_2_1_2,NA,NA,skipped,NA,2735873.2,NA,NA,2735866.966,2735873.5,2023-05-16T16:09:42Z,2735883.13,NULL,Niveau,kiwango,s,usimamizi,mwamali,mshairi,NA,sdfdsf,NA,1,NA,NA,NA,NA,NA,NA,NA,NA,NA,NA,NA,NA,NA,NA,NA,NA,NA,NA,NA
258a8,shallow,flow.Sequence,3_0_1_0_2_1,NA,NA,completion,9692.5490000001,2726160.7,2726158.302,2726174.417,2735866.966,2735874,2023-05-16T16:09:42Z,2735883.13,NULL,Niveau,kiwango,s,usimamizi,mwamali,mshairi,NA,sdfdsf,NA,1,NA,NA,NA,NA,NA,NA,NA,NA,NA,NA,NA,NA,NA,NA,NA,NA,NA,NA,NA
258a8,task,flow.Sequence,3_0_1_0_2,NA,NA,completion,9692.5490000001,2726160.4,2726158.302,2726174.417,2735866.966,2735874.2,2023-05-16T16:09:42Z,2735883.13,NULL,Niveau,kiwango,s,usimamizi,mwamali,mshairi,NA,sdfdsf,NA,1,NA,NA,NA,NA,NA,NA,NA,NA,NA,NA,NA,NA,NA,NA,NA,NA,NA,NA,NA
258a8,deep,flow.Sequence,3_0_1_0_3_0,NA,NA,skipped,NA,2735874.4,NA,NA,2735866.966,2735874.5,2023-05-16T16:09:42Z,2735883.13,NULL,Lawine,banguko,s,maambukizi,usuluhishi,chekechea,NA,sdfdsf,NA,1,NA,NA,NA,NA,NA,NA,NA,NA,NA,NA,NA,NA,NA,NA,NA,NA,NA,NA,NA
258a8,Shallow Question,html.Page,3_0_1_0_3_1_0,NA,NA,form submission,2616.970000024,2735874.7,2735866.966,2735883.13,2738500.1,2738500.2,2023-05-16T16:09:44Z,2738514.771,NULL,Lawine,banguko,s,maambukizi,usuluhishi,chekechea,banguko,NA,NA,1,NA,NA,NA,NA,NA,NA,NA,NA,NA,NA,NA,NA,NA,NA,NA,NA,NA,NA,NA
258a8,"""Richtig""-Screen",canvas.Screen,3_0_1_0_3_1_1,NA,NA,timeout,5011.9939999999,2738500.8,2738497.866,2738514.771,2743494.04,2743495.1,2023-05-16T16:09:49Z,2743526.765,NULL,Lawine,banguko,s,maambukizi,usuluhishi,chekechea,NA,sdfdsf,1,1,NA,NA,NA,NA,NA,NA,NA,NA,NA,NA,NA,NA,NA,NA,NA,NA,NA,NA,NA
258a8,"""Falsch""-Screen",canvas.Screen,3_0_1_0_3_1_2,NA,NA,skipped,NA,2743501.6,NA,NA,2743494.04,2743501.8,2023-05-16T16:09:49Z,2743526.765,NULL,Lawine,banguko,s,maambukizi,usuluhishi,chekechea,NA,sdfdsf,NA,1,NA,NA,NA,NA,NA,NA,NA,NA,NA,NA,NA,NA,NA,NA,NA,NA,NA,NA,NA
258a8,shallow,flow.Sequence,3_0_1_0_3_1,NA,NA,completion,7610.9100000001,2735874.6,2735866.966,2735883.13,2743494.04,2743502.2,2023-05-16T16:09:49Z,2743526.765,NULL,Lawine,banguko,s,maambukizi,usuluhishi,chekechea,NA,sdfdsf,NA,1,NA,NA,NA,NA,NA,NA,NA,NA,NA,NA,NA,NA,NA,NA,NA,NA,NA,NA,NA
258a8,task,flow.Sequence,3_0_1_0_3,NA,NA,completion,7610.9100000001,2735874.3,2735866.966,2735883.13,2743494.04,2743502.4,2023-05-16T16:09:49Z,2743526.765,NULL,Lawine,banguko,s,maambukizi,usuluhishi,chekechea,NA,sdfdsf,NA,1,NA,NA,NA,NA,NA,NA,NA,NA,NA,NA,NA,NA,NA,NA,NA,NA,NA,NA,NA
258a8,deep,flow.Sequence,3_0_1_0_4_0,NA,NA,skipped,NA,2743502.6,NA,NA,2743494.04,2743502.8,2023-05-16T16:09:49Z,2743526.765,NULL,System,maongozi,s,chokochoko,nuksani,mitaani,NA,sdfdsf,NA,1,NA,NA,NA,NA,NA,NA,NA,NA,NA,NA,NA,NA,NA,NA,NA,NA,NA,NA,NA
258a8,Shallow Question,html.Page,3_0_1_0_4_1_0,NA,NA,form submission,3412.8350000237,2743503,2743494.04,2743526.765,2746939.6,2746939.8,2023-05-16T16:09:53Z,2746940.607,NULL,System,maongozi,s,chokochoko,nuksani,mitaani,maongozi,NA,NA,1,NA,NA,NA,NA,NA,NA,NA,NA,NA,NA,NA,NA,NA,NA,NA,NA,NA,NA,NA
258a8,"""Richtig""-Screen",canvas.Screen,3_0_1_0_4_1_1,NA,NA,timeout,4995.9080000003,2746940.5,2746924.342,2746940.607,2751920.425,2751921.5,2023-05-16T16:09:58Z,2751936.515,NULL,System,maongozi,s,chokochoko,nuksani,mitaani,NA,sdfdsf,1,1,NA,NA,NA,NA,NA,NA,NA,NA,NA,NA,NA,NA,NA,NA,NA,NA,NA,NA,NA
258a8,"""Falsch""-Screen",canvas.Screen,3_0_1_0_4_1_2,NA,NA,skipped,NA,2751926.6,NA,NA,2751920.425,2751927,2023-05-16T16:09:58Z,2751936.515,NULL,System,maongozi,s,chokochoko,nuksani,mitaani,NA,sdfdsf,NA,1,NA,NA,NA,NA,NA,NA,NA,NA,NA,NA,NA,NA,NA,NA,NA,NA,NA,NA,NA
258a8,shallow,flow.Sequence,3_0_1_0_4_1,NA,NA,completion,8393.6599999997,2743502.8,2743494.04,2743526.765,2751920.425,2751927.5,2023-05-16T16:09:58Z,2751936.515,NULL,System,maongozi,s,chokochoko,nuksani,mitaani,NA,sdfdsf,NA,1,NA,NA,NA,NA,NA,NA,NA,NA,NA,NA,NA,NA,NA,NA,NA,NA,NA,NA,NA
258a8,task,flow.Sequence,3_0_1_0_4,NA,NA,completion,8393.6599999997,2743502.6,2743494.04,2743526.765,2751920.425,2751927.7,2023-05-16T16:09:58Z,2751936.515,NULL,System,maongozi,s,chokochoko,nuksani,mitaani,NA,sdfdsf,NA,1,NA,NA,NA,NA,NA,NA,NA,NA,NA,NA,NA,NA,NA,NA,NA,NA,NA,NA,NA
258a8,Deep Question,html.Page,3_0_1_0_5_0_0,NA,NA,form submission,2647.5850000237,2751927.9,2751920.425,2751936.515,2754584.1,2754584.4,2023-05-16T16:10:00Z,2754610.02,NULL,Entwicklung,maendeleo,d,NA,NA,NA,m,NA,NA,1,NA,NA,NA,NA,NA,NA,NA,NA,NA,NA,NA,NA,NA,NA,NA,NA,NA,NA,NA
258a8,"""Richtig""-Screen",canvas.Screen,3_0_1_0_5_0_1,NA,NA,skipped,NA,2754585.2,NA,NA,2754584.1,2754585.4,2023-05-16T16:10:00Z,2754610.02,NULL,Entwicklung,maendeleo,d,NA,NA,NA,NA,sdfdsf,NA,1,NA,NA,NA,NA,NA,NA,NA,NA,NA,NA,NA,NA,NA,NA,NA,NA,NA,NA,NA
258a8,"""Falsch""-Screen",canvas.Screen,3_0_1_0_5_0_2,NA,NA,timeout,5003.5120000001,2754586.2,2754568.243,2754610.02,2759597.42,2759598.4,2023-05-16T16:10:05Z,2759613.532,NULL,Entwicklung,maendeleo,d,NA,NA,NA,NA,sdfdsf,0,1,NA,NA,NA,NA,NA,NA,NA,NA,NA,NA,NA,NA,NA,NA,NA,NA,NA,NA,NA
258a8,deep,flow.Sequence,3_0_1_0_5_0,NA,NA,completion,7660.9049999998,2751927.8,2751920.425,2751936.515,2759597.42,2759598.8,2023-05-16T16:10:05Z,2759613.532,NULL,Entwicklung,maendeleo,d,NA,NA,NA,NA,sdfdsf,NA,1,NA,NA,NA,NA,NA,NA,NA,NA,NA,NA,NA,NA,NA,NA,NA,NA,NA,NA,NA
258a8,shallow,flow.Sequence,3_0_1_0_5_1,NA,NA,skipped,NA,2759599,NA,NA,2759597.42,2759599.1,2023-05-16T16:10:05Z,2759613.532,NULL,Entwicklung,maendeleo,d,NA,NA,NA,NA,sdfdsf,NA,1,NA,NA,NA,NA,NA,NA,NA,NA,NA,NA,NA,NA,NA,NA,NA,NA,NA,NA,NA
258a8,task,flow.Sequence,3_0_1_0_5,NA,NA,completion,7660.9049999998,2751927.8,2751920.425,2751936.515,2759597.42,2759599.4,2023-05-16T16:10:05Z,2759613.532,NULL,Entwicklung,maendeleo,d,NA,NA,NA,NA,sdfdsf,NA,1,NA,NA,NA,NA,NA,NA,NA,NA,NA,NA,NA,NA,NA,NA,NA,NA,NA,NA,NA
258a8,Deep Question,html.Page,3_0_1_0_6_0_0,NA,NA,form submission,2251.0680000237,2759599.7,2759597.42,2759613.532,2761864.6,2761864.8,2023-05-16T16:10:08Z,2761878.418,NULL,Körper,kiwiliwili,d,NA,NA,NA,m,NA,NA,1,NA,NA,NA,NA,NA,NA,NA,NA,NA,NA,NA,NA,NA,NA,NA,NA,NA,NA,NA
258a8,"""Richtig""-Screen",canvas.Screen,3_0_1_0_6_0_1,NA,NA,skipped,NA,2761866.5,NA,NA,2761864.6,2761866.6,2023-05-16T16:10:08Z,2761878.418,NULL,Körper,kiwiliwili,d,NA,NA,NA,NA,sdfdsf,NA,1,NA,NA,NA,NA,NA,NA,NA,NA,NA,NA,NA,NA,NA,NA,NA,NA,NA,NA,NA
258a8,"""Falsch""-Screen",canvas.Screen,3_0_1_0_6_0_2,NA,NA,timeout,4996.3799999999,2761867.3,2761861.739,2761878.418,2766857.575,2766858.6,2023-05-16T16:10:13Z,2766874.798,NULL,Körper,kiwiliwili,d,NA,NA,NA,NA,sdfdsf,0,1,NA,NA,NA,NA,NA,NA,NA,NA,NA,NA,NA,NA,NA,NA,NA,NA,NA,NA,NA
258a8,deep,flow.Sequence,3_0_1_0_6_0,NA,NA,completion,7244.0430000001,2759599.5,2759597.42,2759613.532,2766857.575,2766859.1,2023-05-16T16:10:13Z,2766874.798,NULL,Körper,kiwiliwili,d,NA,NA,NA,NA,sdfdsf,NA,1,NA,NA,NA,NA,NA,NA,NA,NA,NA,NA,NA,NA,NA,NA,NA,NA,NA,NA,NA
258a8,shallow,flow.Sequence,3_0_1_0_6_1,NA,NA,skipped,NA,2766859.4,NA,NA,2766857.575,2766859.8,2023-05-16T16:10:13Z,2766874.798,NULL,Körper,kiwiliwili,d,NA,NA,NA,NA,sdfdsf,NA,1,NA,NA,NA,NA,NA,NA,NA,NA,NA,NA,NA,NA,NA,NA,NA,NA,NA,NA,NA
258a8,task,flow.Sequence,3_0_1_0_6,NA,NA,completion,7244.0430000001,2759599.5,2759597.42,2759613.532,2766857.575,2766860,2023-05-16T16:10:13Z,2766874.798,NULL,Körper,kiwiliwili,d,NA,NA,NA,NA,sdfdsf,NA,1,NA,NA,NA,NA,NA,NA,NA,NA,NA,NA,NA,NA,NA,NA,NA,NA,NA,NA,NA
258a8,Deep Question,html.Page,3_0_1_0_7_0_0,NA,NA,form submission,2630.4019999881,2766860.3,2766857.575,2766874.798,2769505.2,2769505.5,2023-05-16T16:10:15Z,2769525.444,NULL,Übersicht,kilindo,d,NA,NA,NA,m,NA,NA,1,NA,NA,NA,NA,NA,NA,NA,NA,NA,NA,NA,NA,NA,NA,NA,NA,NA,NA,NA
258a8,"""Richtig""-Screen",canvas.Screen,3_0_1_0_7_0_1,NA,NA,skipped,NA,2769507.3,NA,NA,2769505.2,2769507.5,2023-05-16T16:10:15Z,2769525.444,NULL,Übersicht,kilindo,d,NA,NA,NA,NA,sdfdsf,NA,1,NA,NA,NA,NA,NA,NA,NA,NA,NA,NA,NA,NA,NA,NA,NA,NA,NA,NA,NA
258a8,"""Falsch""-Screen",canvas.Screen,3_0_1_0_7_0_2,NA,NA,timeout,4992.5299999998,2769508.1,2769489.318,2769525.444,2774501.735,2774502.9,2023-05-16T16:10:20Z,2774517.974,NULL,Übersicht,kilindo,d,NA,NA,NA,NA,sdfdsf,0,1,NA,NA,NA,NA,NA,NA,NA,NA,NA,NA,NA,NA,NA,NA,NA,NA,NA,NA,NA
258a8,deep,flow.Sequence,3_0_1_0_7_0,NA,NA,completion,7626.9369999999,2766860.3,2766857.575,2766874.798,2774501.735,2774503.3,2023-05-16T16:10:20Z,2774517.974,NULL,Übersicht,kilindo,d,NA,NA,NA,NA,sdfdsf,NA,1,NA,NA,NA,NA,NA,NA,NA,NA,NA,NA,NA,NA,NA,NA,NA,NA,NA,NA,NA
258a8,shallow,flow.Sequence,3_0_1_0_7_1,NA,NA,skipped,NA,2774503.4,NA,NA,2774501.735,2774503.7,2023-05-16T16:10:20Z,2774517.974,NULL,Übersicht,kilindo,d,NA,NA,NA,NA,sdfdsf,NA,1,NA,NA,NA,NA,NA,NA,NA,NA,NA,NA,NA,NA,NA,NA,NA,NA,NA,NA,NA
258a8,task,flow.Sequence,3_0_1_0_7,NA,NA,completion,7626.9369999999,2766860.1,2766857.575,2766874.798,2774501.735,2774504,2023-05-16T16:10:20Z,2774517.974,NULL,Übersicht,kilindo,d,NA,NA,NA,NA,sdfdsf,NA,1,NA,NA,NA,NA,NA,NA,NA,NA,NA,NA,NA,NA,NA,NA,NA,NA,NA,NA,NA
258a8,block,flow.Loop,3_0_1_0,NA,NA,completion,66379.163,2708115.3,2708106.458,2708122.572,2774501.735,2774504.2,2023-05-16T16:10:20Z,2774517.974,NULL,NA,NA,NA,NA,NA,NA,NA,sdfdsf,NA,1,NA,NA,NA,NA,NA,NA,NA,NA,NA,NA,NA,NA,NA,NA,NA,NA,NA,NA,NA
258a8,weiter,canvas.Screen,3_0_1_1,sdf,keypress(Space),response,766.72599998815,2774504.3,2774501.735,2774517.974,2775284.7,2775285.8,2023-05-16T16:10:21Z,2775383.921,NULL,NA,NA,NA,NA,NA,NA,NA,sdfdsf,NA,1,NA,NA,NA,NA,NA,NA,NA,NA,NA,NA,NA,NA,NA,NA,NA,NA,NA,NA,NA
258a8,check continue,flow.Sequence,3_0_1,NA,NA,completion,67162.127999988,2708115.2,2708106.458,2708122.572,2775284.7,2775286.1,2023-05-16T16:10:21Z,2775383.921,NULL,NA,NA,NA,NA,NA,NA,NA,sdfdsf,NA,1,NA,NA,NA,NA,NA,NA,NA,NA,NA,NA,NA,NA,NA,NA,NA,NA,NA,NA,NA
258a8,Deep Question,html.Page,3_0_2_0_0_0_0,NA,NA,form submission,2196.3790000118,2775380.1,2775367.454,2775383.921,2777580.3,2777580.5,2023-05-16T16:10:23Z,2777582.022,NULL,Vorwurf,mashtaka,d,NA,NA,NA,m,NA,NA,2,NA,NA,NA,NA,NA,NA,NA,NA,NA,NA,NA,NA,NA,NA,NA,NA,NA,NA,NA
258a8,"""Richtig""-Screen",canvas.Screen,3_0_2_0_0_0_1,NA,NA,skipped,NA,2777581.1,NA,NA,2777580.3,2777581.3,2023-05-16T16:10:23Z,2777582.022,NULL,Vorwurf,mashtaka,d,NA,NA,NA,NA,sdf,NA,2,NA,NA,NA,NA,NA,NA,NA,NA,NA,NA,NA,NA,NA,NA,NA,NA,NA,NA,NA
258a8,"""Falsch""-Screen",canvas.Screen,3_0_2_0_0_0_2,NA,NA,timeout,4996.1720000003,2777581.8,2777565.966,2777582.022,2782561.365,2782562.2,2023-05-16T16:10:28Z,2782578.194,NULL,Vorwurf,mashtaka,d,NA,NA,NA,NA,sdf,0,2,NA,NA,NA,NA,NA,NA,NA,NA,NA,NA,NA,NA,NA,NA,NA,NA,NA,NA,NA
258a8,deep,flow.Sequence,3_0_2_0_0_0,NA,NA,completion,7177.4440000001,2775380.1,2775367.454,2775383.921,2782561.365,2782562.8,2023-05-16T16:10:28Z,2782578.194,NULL,Vorwurf,mashtaka,d,NA,NA,NA,NA,sdf,NA,2,NA,NA,NA,NA,NA,NA,NA,NA,NA,NA,NA,NA,NA,NA,NA,NA,NA,NA,NA
258a8,shallow,flow.Sequence,3_0_2_0_0_1,NA,NA,skipped,NA,2782563,NA,NA,2782561.365,2782563.4,2023-05-16T16:10:28Z,2782578.194,NULL,Vorwurf,mashtaka,d,NA,NA,NA,NA,sdf,NA,2,NA,NA,NA,NA,NA,NA,NA,NA,NA,NA,NA,NA,NA,NA,NA,NA,NA,NA,NA
258a8,task,flow.Sequence,3_0_2_0_0,NA,NA,completion,7177.4440000001,2775380.1,2775367.454,2775383.921,2782561.365,2782563.6,2023-05-16T16:10:28Z,2782578.194,NULL,Vorwurf,mashtaka,d,NA,NA,NA,NA,sdf,NA,2,NA,NA,NA,NA,NA,NA,NA,NA,NA,NA,NA,NA,NA,NA,NA,NA,NA,NA,NA
258a8,deep,flow.Sequence,3_0_2_0_1_0,NA,NA,skipped,NA,2782563.8,NA,NA,2782561.365,2782564,2023-05-16T16:10:28Z,2782578.194,NULL,Niveau,kiwango,s,usimamizi,mwamali,mshairi,NA,sdf,NA,2,NA,NA,NA,NA,NA,NA,NA,NA,NA,NA,NA,NA,NA,NA,NA,NA,NA,NA,NA
258a8,Shallow Question,html.Page,3_0_2_0_1_1_0,NA,NA,form submission,4190.5059999879,2782564.3,2782561.365,2782578.194,2786768.7,2786769,2023-05-16T16:10:32Z,2786774.505,NULL,Niveau,kiwango,s,usimamizi,mwamali,mshairi,kiwango,NA,NA,2,NA,NA,NA,NA,NA,NA,NA,NA,NA,NA,NA,NA,NA,NA,NA,NA,NA,NA,NA
258a8,"""Richtig""-Screen",canvas.Screen,3_0_2_0_1_1_1,NA,NA,timeout,5012.557,2786770.7,2786758.364,2786774.505,2791754.196,2791755.2,2023-05-16T16:10:37Z,2791787.062,NULL,Niveau,kiwango,s,usimamizi,mwamali,mshairi,NA,sdf,1,2,NA,NA,NA,NA,NA,NA,NA,NA,NA,NA,NA,NA,NA,NA,NA,NA,NA,NA,NA
258a8,"""Falsch""-Screen",canvas.Screen,3_0_2_0_1_1_2,NA,NA,skipped,NA,2791760.3,NA,NA,2791754.196,2791760.6,2023-05-16T16:10:37Z,2791787.062,NULL,Niveau,kiwango,s,usimamizi,mwamali,mshairi,NA,sdf,NA,2,NA,NA,NA,NA,NA,NA,NA,NA,NA,NA,NA,NA,NA,NA,NA,NA,NA,NA,NA
258a8,shallow,flow.Sequence,3_0_2_0_1_1,NA,NA,completion,9176.0019999999,2782564.2,2782561.365,2782578.194,2791754.196,2791761.1,2023-05-16T16:10:37Z,2791787.062,NULL,Niveau,kiwango,s,usimamizi,mwamali,mshairi,NA,sdf,NA,2,NA,NA,NA,NA,NA,NA,NA,NA,NA,NA,NA,NA,NA,NA,NA,NA,NA,NA,NA
258a8,task,flow.Sequence,3_0_2_0_1,NA,NA,completion,9176.0019999999,2782563.8,2782561.365,2782578.194,2791754.196,2791761.3,2023-05-16T16:10:37Z,2791787.062,NULL,Niveau,kiwango,s,usimamizi,mwamali,mshairi,NA,sdf,NA,2,NA,NA,NA,NA,NA,NA,NA,NA,NA,NA,NA,NA,NA,NA,NA,NA,NA,NA,NA
258a8,Deep Question,html.Page,3_0_2_0_2_0_0,NA,NA,form submission,8711.5380000239,2791761.5,2791754.196,2791787.062,2800498.6,2800498.9,2023-05-16T16:10:46Z,2800513.761,NULL,Körper,kiwiliwili,d,NA,NA,NA,kiwliliwili,NA,NA,2,NA,NA,NA,NA,NA,NA,NA,NA,NA,NA,NA,NA,NA,NA,NA,NA,NA,NA,NA
258a8,"""Richtig""-Screen",canvas.Screen,3_0_2_0_2_0_1,NA,NA,skipped,NA,2800500.9,NA,NA,2800498.6,2800501,2023-05-16T16:10:46Z,2800513.761,NULL,Körper,kiwiliwili,d,NA,NA,NA,NA,sdf,NA,2,NA,NA,NA,NA,NA,NA,NA,NA,NA,NA,NA,NA,NA,NA,NA,NA,NA,NA,NA
258a8,"""Falsch""-Screen",canvas.Screen,3_0_2_0_2_0_2,NA,NA,timeout,4995.5090000001,2800501.9,2800497.099,2800513.761,2805492.956,2805494.1,2023-05-16T16:10:51Z,2805509.27,NULL,Körper,kiwiliwili,d,NA,NA,NA,NA,sdf,0,2,NA,NA,NA,NA,NA,NA,NA,NA,NA,NA,NA,NA,NA,NA,NA,NA,NA,NA,NA
258a8,deep,flow.Sequence,3_0_2_0_2_0,NA,NA,completion,13705.894,2791761.5,2791754.196,2791787.062,2805492.956,2805494.4,2023-05-16T16:10:51Z,2805509.27,NULL,Körper,kiwiliwili,d,NA,NA,NA,NA,sdf,NA,2,NA,NA,NA,NA,NA,NA,NA,NA,NA,NA,NA,NA,NA,NA,NA,NA,NA,NA,NA
258a8,shallow,flow.Sequence,3_0_2_0_2_1,NA,NA,skipped,NA,2805494.6,NA,NA,2805492.956,2805494.8,2023-05-16T16:10:51Z,2805509.27,NULL,Körper,kiwiliwili,d,NA,NA,NA,NA,sdf,NA,2,NA,NA,NA,NA,NA,NA,NA,NA,NA,NA,NA,NA,NA,NA,NA,NA,NA,NA,NA
258a8,task,flow.Sequence,3_0_2_0_2,NA,NA,completion,13705.894,2791761.4,2791754.196,2791787.062,2805492.956,2805495,2023-05-16T16:10:51Z,2805509.27,NULL,Körper,kiwiliwili,d,NA,NA,NA,NA,sdf,NA,2,NA,NA,NA,NA,NA,NA,NA,NA,NA,NA,NA,NA,NA,NA,NA,NA,NA,NA,NA
258a8,deep,flow.Sequence,3_0_2_0_3_0,NA,NA,skipped,NA,2805495.2,NA,NA,2805492.956,2805495.4,2023-05-16T16:10:51Z,2805509.27,NULL,System,maongozi,s,chokochoko,nuksani,mitaani,NA,sdf,NA,2,NA,NA,NA,NA,NA,NA,NA,NA,NA,NA,NA,NA,NA,NA,NA,NA,NA,NA,NA
258a8,Shallow Question,html.Page,3_0_2_0_3_1_0,NA,NA,form submission,3249.3300000238,2805495.7,2805492.956,2805509.27,2808758.6,2808758.8,2023-05-16T16:10:54Z,2808773.592,NULL,System,maongozi,s,chokochoko,nuksani,mitaani,maongozi,NA,NA,2,NA,NA,NA,NA,NA,NA,NA,NA,NA,NA,NA,NA,NA,NA,NA,NA,NA,NA,NA
258a8,"""Richtig""-Screen",canvas.Screen,3_0_2_0_3_1_1,NA,NA,timeout,4995.3489999999,2808760.4,2808756.481,2808773.592,2813752.787,2813753.9,2023-05-16T16:10:59Z,2813768.941,NULL,System,maongozi,s,chokochoko,nuksani,mitaani,NA,sdf,1,2,NA,NA,NA,NA,NA,NA,NA,NA,NA,NA,NA,NA,NA,NA,NA,NA,NA,NA,NA
258a8,"""Falsch""-Screen",canvas.Screen,3_0_2_0_3_1_2,NA,NA,skipped,NA,2813759,NA,NA,2813752.787,2813759.3,2023-05-16T16:10:59Z,2813768.941,NULL,System,maongozi,s,chokochoko,nuksani,mitaani,NA,sdf,NA,2,NA,NA,NA,NA,NA,NA,NA,NA,NA,NA,NA,NA,NA,NA,NA,NA,NA,NA,NA
258a8,shallow,flow.Sequence,3_0_2_0_3_1,NA,NA,completion,8243.517,2805495.6,2805492.956,2805509.27,2813752.787,2813759.7,2023-05-16T16:10:59Z,2813768.941,NULL,System,maongozi,s,chokochoko,nuksani,mitaani,NA,sdf,NA,2,NA,NA,NA,NA,NA,NA,NA,NA,NA,NA,NA,NA,NA,NA,NA,NA,NA,NA,NA
258a8,task,flow.Sequence,3_0_2_0_3,NA,NA,completion,8243.517,2805495.1,2805492.956,2805509.27,2813752.787,2813760,2023-05-16T16:10:59Z,2813768.941,NULL,System,maongozi,s,chokochoko,nuksani,mitaani,NA,sdf,NA,2,NA,NA,NA,NA,NA,NA,NA,NA,NA,NA,NA,NA,NA,NA,NA,NA,NA,NA,NA
258a8,deep,flow.Sequence,3_0_2_0_4_0,NA,NA,skipped,NA,2813760.2,NA,NA,2813752.787,2813760.4,2023-05-16T16:10:59Z,2813768.941,NULL,Papier,karatasi,s,uchambuzi,usalama,kukataliwa,NA,sdf,NA,2,NA,NA,NA,NA,NA,NA,NA,NA,NA,NA,NA,NA,NA,NA,NA,NA,NA,NA,NA
258a8,Shallow Question,html.Page,3_0_2_0_4_1_0,NA,NA,form submission,3008.4589999761,2813760.5,2813752.787,2813768.941,2816777.4,2816777.6,2023-05-16T16:11:02Z,2816783.207,NULL,Papier,karatasi,s,uchambuzi,usalama,kukataliwa,karatasi,NA,NA,2,NA,NA,NA,NA,NA,NA,NA,NA,NA,NA,NA,NA,NA,NA,NA,NA,NA,NA,NA
258a8,"""Richtig""-Screen",canvas.Screen,3_0_2_0_4_1_1,NA,NA,timeout,4996.1230000001,2816778.1,2816767.007,2816783.207,2821762.746,2821764.5,2023-05-16T16:11:07Z,2821779.33,NULL,Papier,karatasi,s,uchambuzi,usalama,kukataliwa,NA,sdf,1,2,NA,NA,NA,NA,NA,NA,NA,NA,NA,NA,NA,NA,NA,NA,NA,NA,NA,NA,NA
258a8,"""Falsch""-Screen",canvas.Screen,3_0_2_0_4_1_2,NA,NA,skipped,NA,2821770.8,NA,NA,2821762.746,2821771.3,2023-05-16T16:11:07Z,2821779.33,NULL,Papier,karatasi,s,uchambuzi,usalama,kukataliwa,NA,sdf,NA,2,NA,NA,NA,NA,NA,NA,NA,NA,NA,NA,NA,NA,NA,NA,NA,NA,NA,NA,NA
258a8,shallow,flow.Sequence,3_0_2_0_4_1,NA,NA,completion,7993.8049999997,2813760.4,2813752.787,2813768.941,2821762.746,2821771.6,2023-05-16T16:11:07Z,2821779.33,NULL,Papier,karatasi,s,uchambuzi,usalama,kukataliwa,NA,sdf,NA,2,NA,NA,NA,NA,NA,NA,NA,NA,NA,NA,NA,NA,NA,NA,NA,NA,NA,NA,NA
258a8,task,flow.Sequence,3_0_2_0_4,NA,NA,completion,7993.8049999997,2813760.1,2813752.787,2813768.941,2821762.746,2821772,2023-05-16T16:11:07Z,2821779.33,NULL,Papier,karatasi,s,uchambuzi,usalama,kukataliwa,NA,sdf,NA,2,NA,NA,NA,NA,NA,NA,NA,NA,NA,NA,NA,NA,NA,NA,NA,NA,NA,NA,NA
258a8,Deep Question,html.Page,3_0_2_0_5_0_0,NA,NA,form submission,9145.2700000238,2821772.1,2821762.746,2821779.33,2830924.6,2830924.7,2023-05-16T16:11:17Z,2830938.588,NULL,Entwicklung,maendeleo,d,NA,NA,NA,maenalo,NA,NA,2,NA,NA,NA,NA,NA,NA,NA,NA,NA,NA,NA,NA,NA,NA,NA,NA,NA,NA,NA
258a8,"""Richtig""-Screen",canvas.Screen,3_0_2_0_5_0_1,NA,NA,skipped,NA,2830926.6,NA,NA,2830924.6,2830926.8,2023-05-16T16:11:17Z,2830938.588,NULL,Entwicklung,maendeleo,d,NA,NA,NA,NA,sdf,NA,2,NA,NA,NA,NA,NA,NA,NA,NA,NA,NA,NA,NA,NA,NA,NA,NA,NA,NA,NA
258a8,"""Falsch""-Screen",canvas.Screen,3_0_2_0_5_0_2,NA,NA,timeout,4995.5610000002,2830927.7,2830922.07,2830938.588,2835917.444,2835919.3,2023-05-16T16:11:22Z,2835934.149,NULL,Entwicklung,maendeleo,d,NA,NA,NA,NA,sdf,0,2,NA,NA,NA,NA,NA,NA,NA,NA,NA,NA,NA,NA,NA,NA,NA,NA,NA,NA,NA
258a8,deep,flow.Sequence,3_0_2_0_5_0,NA,NA,completion,14138.114,2821772.1,2821762.746,2821779.33,2835917.444,2835919.7,2023-05-16T16:11:22Z,2835934.149,NULL,Entwicklung,maendeleo,d,NA,NA,NA,NA,sdf,NA,2,NA,NA,NA,NA,NA,NA,NA,NA,NA,NA,NA,NA,NA,NA,NA,NA,NA,NA,NA
258a8,shallow,flow.Sequence,3_0_2_0_5_1,NA,NA,skipped,NA,2835920,NA,NA,2835917.444,2835920.1,2023-05-16T16:11:22Z,2835934.149,NULL,Entwicklung,maendeleo,d,NA,NA,NA,NA,sdf,NA,2,NA,NA,NA,NA,NA,NA,NA,NA,NA,NA,NA,NA,NA,NA,NA,NA,NA,NA,NA
258a8,task,flow.Sequence,3_0_2_0_5,NA,NA,completion,14138.114,2821772.1,2821762.746,2821779.33,2835917.444,2835920.4,2023-05-16T16:11:22Z,2835934.149,NULL,Entwicklung,maendeleo,d,NA,NA,NA,NA,sdf,NA,2,NA,NA,NA,NA,NA,NA,NA,NA,NA,NA,NA,NA,NA,NA,NA,NA,NA,NA,NA
258a8,Deep Question,html.Page,3_0_2_0_6_0_0,NA,NA,form submission,5187.8509999998,2835920.7,2835917.444,2835934.149,2841122,2841122.1,2023-05-16T16:11:27Z,2841129.696,NULL,Übersicht,kilindo,d,NA,NA,NA,kiliando,NA,NA,2,NA,NA,NA,NA,NA,NA,NA,NA,NA,NA,NA,NA,NA,NA,NA,NA,NA,NA,NA
258a8,"""Richtig""-Screen",canvas.Screen,3_0_2_0_6_0_1,NA,NA,skipped,NA,2841124.6,NA,NA,2841122,2841124.7,2023-05-16T16:11:27Z,2841129.696,NULL,Übersicht,kilindo,d,NA,NA,NA,NA,sdf,NA,2,NA,NA,NA,NA,NA,NA,NA,NA,NA,NA,NA,NA,NA,NA,NA,NA,NA,NA,NA
258a8,"""Falsch""-Screen",canvas.Screen,3_0_2_0_6_0_2,NA,NA,timeout,4996.4700000002,2841125.5,2841113.64,2841129.696,2846109.554,2846110.6,2023-05-16T16:11:32Z,2846126.166,NULL,Übersicht,kilindo,d,NA,NA,NA,NA,sdf,0,2,NA,NA,NA,NA,NA,NA,NA,NA,NA,NA,NA,NA,NA,NA,NA,NA,NA,NA,NA
258a8,deep,flow.Sequence,3_0_2_0_6_0,NA,NA,completion,10175.405,2835920.7,2835917.444,2835934.149,2846109.554,2846111,2023-05-16T16:11:32Z,2846126.166,NULL,Übersicht,kilindo,d,NA,NA,NA,NA,sdf,NA,2,NA,NA,NA,NA,NA,NA,NA,NA,NA,NA,NA,NA,NA,NA,NA,NA,NA,NA,NA
258a8,shallow,flow.Sequence,3_0_2_0_6_1,NA,NA,skipped,NA,2846111.1,NA,NA,2846109.554,2846111.3,2023-05-16T16:11:32Z,2846126.166,NULL,Übersicht,kilindo,d,NA,NA,NA,NA,sdf,NA,2,NA,NA,NA,NA,NA,NA,NA,NA,NA,NA,NA,NA,NA,NA,NA,NA,NA,NA,NA
258a8,task,flow.Sequence,3_0_2_0_6,NA,NA,completion,10175.405,2835920.6,2835917.444,2835934.149,2846109.554,2846111.5,2023-05-16T16:11:32Z,2846126.166,NULL,Übersicht,kilindo,d,NA,NA,NA,NA,sdf,NA,2,NA,NA,NA,NA,NA,NA,NA,NA,NA,NA,NA,NA,NA,NA,NA,NA,NA,NA,NA
258a8,deep,flow.Sequence,3_0_2_0_7_0,NA,NA,skipped,NA,2846111.7,NA,NA,2846109.554,2846111.8,2023-05-16T16:11:32Z,2846126.166,NULL,Lawine,banguko,s,maambukizi,usuluhishi,chekechea,NA,sdf,NA,2,NA,NA,NA,NA,NA,NA,NA,NA,NA,NA,NA,NA,NA,NA,NA,NA,NA,NA,NA
258a8,Shallow Question,html.Page,3_0_2_0_7_1_0,NA,NA,form submission,2725.4340000236,2846112,2846109.554,2846126.166,2848851.6,2848851.8,2023-05-16T16:11:35Z,2848856.666,NULL,Lawine,banguko,s,maambukizi,usuluhishi,chekechea,banguko,NA,NA,2,NA,NA,NA,NA,NA,NA,NA,NA,NA,NA,NA,NA,NA,NA,NA,NA,NA,NA,NA
258a8,"""Richtig""-Screen",canvas.Screen,3_0_2_0_7_1_1,NA,NA,timeout,5012.6139999996,2848853.5,2848840.638,2848856.666,2853836.001,2853843.9,2023-05-16T16:11:40Z,2853869.28,NULL,Lawine,banguko,s,maambukizi,usuluhishi,chekechea,NA,sdf,1,2,NA,NA,NA,NA,NA,NA,NA,NA,NA,NA,NA,NA,NA,NA,NA,NA,NA,NA,NA
258a8,"""Falsch""-Screen",canvas.Screen,3_0_2_0_7_1_2,NA,NA,skipped,NA,2853849.2,NA,NA,2853836.001,2853849.6,2023-05-16T16:11:40Z,2853869.28,NULL,Lawine,banguko,s,maambukizi,usuluhishi,chekechea,NA,sdf,NA,2,NA,NA,NA,NA,NA,NA,NA,NA,NA,NA,NA,NA,NA,NA,NA,NA,NA,NA,NA
258a8,shallow,flow.Sequence,3_0_2_0_7_1,NA,NA,completion,7709.835,2846111.9,2846109.554,2846126.166,2853836.001,2853849.9,2023-05-16T16:11:40Z,2853869.28,NULL,Lawine,banguko,s,maambukizi,usuluhishi,chekechea,NA,sdf,NA,2,NA,NA,NA,NA,NA,NA,NA,NA,NA,NA,NA,NA,NA,NA,NA,NA,NA,NA,NA
258a8,task,flow.Sequence,3_0_2_0_7,NA,NA,completion,7709.835,2846111.7,2846109.554,2846126.166,2853836.001,2853850.2,2023-05-16T16:11:40Z,2853869.28,NULL,Lawine,banguko,s,maambukizi,usuluhishi,chekechea,NA,sdf,NA,2,NA,NA,NA,NA,NA,NA,NA,NA,NA,NA,NA,NA,NA,NA,NA,NA,NA,NA,NA
258a8,block,flow.Loop,3_0_2_0,NA,NA,completion,78452.08,2775380.1,2775367.454,2775383.921,2853836.001,2853850.4,2023-05-16T16:11:40Z,2853869.28,NULL,NA,NA,NA,NA,NA,NA,NA,sdf,NA,2,NA,NA,NA,NA,NA,NA,NA,NA,NA,NA,NA,NA,NA,NA,NA,NA,NA,NA,NA
258a8,weiter,canvas.Screen,3_0_2_1,sdf,keypress(Space),response,886.2200000002,2853850.6,2853836.001,2853869.28,2854755.5,2854756.7,2023-05-16T16:11:40Z,2854851.785,NULL,NA,NA,NA,NA,NA,NA,NA,sdf,NA,2,NA,NA,NA,NA,NA,NA,NA,NA,NA,NA,NA,NA,NA,NA,NA,NA,NA,NA,NA
258a8,check continue,flow.Sequence,3_0_2,NA,NA,completion,79371.579,2775379.9,2775367.454,2775383.921,2854755.5,2854757,2023-05-16T16:11:40Z,2854851.785,NULL,NA,NA,NA,NA,NA,NA,NA,sdf,NA,2,NA,NA,NA,NA,NA,NA,NA,NA,NA,NA,NA,NA,NA,NA,NA,NA,NA,NA,NA
258a8,deep,flow.Sequence,3_0_3_0_0_0,NA,NA,skipped,NA,2854847.3,NA,NA,2854755.5,2854847.8,2023-05-16T16:11:41Z,2854851.785,NULL,Papier,karatasi,s,uchambuzi,usalama,kukataliwa,NA,qt,NA,3,NA,NA,NA,NA,NA,NA,NA,NA,NA,NA,NA,NA,NA,NA,NA,NA,NA,NA,NA
258a8,Shallow Question,html.Page,3_0_3_0_0_1_0,NA,NA,form submission,2599.5150000118,2854847.9,2854835.627,2854851.785,2857451.3,2857451.6,2023-05-16T16:11:43Z,2857466.852,NULL,Papier,karatasi,s,uchambuzi,usalama,kukataliwa,karatasi,NA,NA,3,NA,NA,NA,NA,NA,NA,NA,NA,NA,NA,NA,NA,NA,NA,NA,NA,NA,NA,NA
258a8,"""Richtig""-Screen",canvas.Screen,3_0_3_0_0_1_1,NA,NA,timeout,4995.3960000002,2857453.4,2857450.205,2857466.852,2862446.087,2862447.1,2023-05-16T16:11:48Z,2862462.248,NULL,Papier,karatasi,s,uchambuzi,usalama,kukataliwa,NA,qt,1,3,NA,NA,NA,NA,NA,NA,NA,NA,NA,NA,NA,NA,NA,NA,NA,NA,NA,NA,NA
258a8,"""Falsch""-Screen",canvas.Screen,3_0_3_0_0_1_2,NA,NA,skipped,NA,2862452.7,NA,NA,2862446.087,2862453,2023-05-16T16:11:48Z,2862462.248,NULL,Papier,karatasi,s,uchambuzi,usalama,kukataliwa,NA,qt,NA,3,NA,NA,NA,NA,NA,NA,NA,NA,NA,NA,NA,NA,NA,NA,NA,NA,NA,NA,NA
258a8,shallow,flow.Sequence,3_0_3_0_0_1,NA,NA,completion,7594.3019999997,2854847.9,2854835.627,2854851.785,2862446.087,2862453.2,2023-05-16T16:11:48Z,2862462.248,NULL,Papier,karatasi,s,uchambuzi,usalama,kukataliwa,NA,qt,NA,3,NA,NA,NA,NA,NA,NA,NA,NA,NA,NA,NA,NA,NA,NA,NA,NA,NA,NA,NA
258a8,task,flow.Sequence,3_0_3_0_0,NA,NA,completion,7594.3019999997,2854847.3,2854835.627,2854851.785,2862446.087,2862453.5,2023-05-16T16:11:48Z,2862462.248,NULL,Papier,karatasi,s,uchambuzi,usalama,kukataliwa,NA,qt,NA,3,NA,NA,NA,NA,NA,NA,NA,NA,NA,NA,NA,NA,NA,NA,NA,NA,NA,NA,NA
258a8,deep,flow.Sequence,3_0_3_0_1_0,NA,NA,skipped,NA,2862453.7,NA,NA,2862446.087,2862453.8,2023-05-16T16:11:48Z,2862462.248,NULL,Lawine,banguko,s,maambukizi,usuluhishi,chekechea,NA,qt,NA,3,NA,NA,NA,NA,NA,NA,NA,NA,NA,NA,NA,NA,NA,NA,NA,NA,NA,NA,NA
258a8,Shallow Question,html.Page,3_0_3_0_1_1_0,NA,NA,form submission,2684.2519999999,2862453.9,2862446.087,2862462.248,2865146.5,2865146.8,2023-05-16T16:11:51Z,2865160.514,NULL,Lawine,banguko,s,maambukizi,usuluhishi,chekechea,banguko,NA,NA,3,NA,NA,NA,NA,NA,NA,NA,NA,NA,NA,NA,NA,NA,NA,NA,NA,NA,NA,NA
258a8,"""Richtig""-Screen",canvas.Screen,3_0_3_0_1_1_1,NA,NA,timeout,4995.4369999999,2865147.3,2865143.368,2865160.514,2870139.778,2870140.8,2023-05-16T16:11:56Z,2870155.951,NULL,Lawine,banguko,s,maambukizi,usuluhishi,chekechea,NA,qt,1,3,NA,NA,NA,NA,NA,NA,NA,NA,NA,NA,NA,NA,NA,NA,NA,NA,NA,NA,NA
258a8,"""Falsch""-Screen",canvas.Screen,3_0_3_0_1_1_2,NA,NA,skipped,NA,2870146,NA,NA,2870139.778,2870146.3,2023-05-16T16:11:56Z,2870155.951,NULL,Lawine,banguko,s,maambukizi,usuluhishi,chekechea,NA,qt,NA,3,NA,NA,NA,NA,NA,NA,NA,NA,NA,NA,NA,NA,NA,NA,NA,NA,NA,NA,NA
258a8,shallow,flow.Sequence,3_0_3_0_1_1,NA,NA,completion,7677.5299999998,2862453.9,2862446.087,2862462.248,2870139.778,2870146.6,2023-05-16T16:11:56Z,2870155.951,NULL,Lawine,banguko,s,maambukizi,usuluhishi,chekechea,NA,qt,NA,3,NA,NA,NA,NA,NA,NA,NA,NA,NA,NA,NA,NA,NA,NA,NA,NA,NA,NA,NA
258a8,task,flow.Sequence,3_0_3_0_1,NA,NA,completion,7677.5299999998,2862453.6,2862446.087,2862462.248,2870139.778,2870146.9,2023-05-16T16:11:56Z,2870155.951,NULL,Lawine,banguko,s,maambukizi,usuluhishi,chekechea,NA,qt,NA,3,NA,NA,NA,NA,NA,NA,NA,NA,NA,NA,NA,NA,NA,NA,NA,NA,NA,NA,NA
258a8,Deep Question,html.Page,3_0_3_0_2_0_0,NA,NA,form submission,7188.2489999882,2870147.1,2870139.778,2870155.951,2877344.2,2877344.4,2023-05-16T16:12:03Z,2877349.918,NULL,Übersicht,kilindo,d,NA,NA,NA,kilindo,NA,NA,3,NA,NA,NA,NA,NA,NA,NA,NA,NA,NA,NA,NA,NA,NA,NA,NA,NA,NA,NA
258a8,"""Richtig""-Screen",canvas.Screen,3_0_3_0_2_0_1,NA,NA,timeout,4995.909,2877346.7,2877333.843,2877349.918,2882329.732,2882330.9,2023-05-16T16:12:08Z,2882345.827,NULL,Übersicht,kilindo,d,NA,NA,NA,NA,qt,1,3,NA,NA,NA,NA,NA,NA,NA,NA,NA,NA,NA,NA,NA,NA,NA,NA,NA,NA,NA
258a8,"""Falsch""-Screen",canvas.Screen,3_0_3_0_2_0_2,NA,NA,skipped,NA,2882336.3,NA,NA,2882329.732,2882336.5,2023-05-16T16:12:08Z,2882345.827,NULL,Übersicht,kilindo,d,NA,NA,NA,NA,qt,NA,3,NA,NA,NA,NA,NA,NA,NA,NA,NA,NA,NA,NA,NA,NA,NA,NA,NA,NA,NA
258a8,deep,flow.Sequence,3_0_3_0_2_0,NA,NA,completion,12173.781,2870147.1,2870139.778,2870155.951,2882329.732,2882336.8,2023-05-16T16:12:08Z,2882345.827,NULL,Übersicht,kilindo,d,NA,NA,NA,NA,qt,NA,3,NA,NA,NA,NA,NA,NA,NA,NA,NA,NA,NA,NA,NA,NA,NA,NA,NA,NA,NA
258a8,shallow,flow.Sequence,3_0_3_0_2_1,NA,NA,skipped,NA,2882337,NA,NA,2882329.732,2882337.1,2023-05-16T16:12:08Z,2882345.827,NULL,Übersicht,kilindo,d,NA,NA,NA,NA,qt,NA,3,NA,NA,NA,NA,NA,NA,NA,NA,NA,NA,NA,NA,NA,NA,NA,NA,NA,NA,NA
258a8,task,flow.Sequence,3_0_3_0_2,NA,NA,completion,12173.781,2870147,2870139.778,2870155.951,2882329.732,2882337.3,2023-05-16T16:12:08Z,2882345.827,NULL,Übersicht,kilindo,d,NA,NA,NA,NA,qt,NA,3,NA,NA,NA,NA,NA,NA,NA,NA,NA,NA,NA,NA,NA,NA,NA,NA,NA,NA,NA
258a8,deep,flow.Sequence,3_0_3_0_3_0,NA,NA,skipped,NA,2882337.5,NA,NA,2882329.732,2882337.7,2023-05-16T16:12:08Z,2882345.827,NULL,Niveau,kiwango,s,usimamizi,mwamali,mshairi,NA,qt,NA,3,NA,NA,NA,NA,NA,NA,NA,NA,NA,NA,NA,NA,NA,NA,NA,NA,NA,NA,NA
258a8,Shallow Question,html.Page,3_0_3_0_3_1_0,NA,NA,form submission,2658.4730000119,2882337.8,2882329.732,2882345.827,2885004.3,2885004.5,2023-05-16T16:12:11Z,2885010.374,NULL,Niveau,kiwango,s,usimamizi,mwamali,mshairi,kiwango,NA,NA,3,NA,NA,NA,NA,NA,NA,NA,NA,NA,NA,NA,NA,NA,NA,NA,NA,NA,NA,NA
258a8,"""Richtig""-Screen",canvas.Screen,3_0_3_0_3_1_1,NA,NA,timeout,4995.838,2885005,2884994.259,2885010.374,2889989.588,2889996,2023-05-16T16:12:16Z,2890006.212,NULL,Niveau,kiwango,s,usimamizi,mwamali,mshairi,NA,qt,1,3,NA,NA,NA,NA,NA,NA,NA,NA,NA,NA,NA,NA,NA,NA,NA,NA,NA,NA,NA
258a8,"""Falsch""-Screen",canvas.Screen,3_0_3_0_3_1_2,NA,NA,skipped,NA,2890002,NA,NA,2889989.588,2890002.4,2023-05-16T16:12:16Z,2890006.212,NULL,Niveau,kiwango,s,usimamizi,mwamali,mshairi,NA,qt,NA,3,NA,NA,NA,NA,NA,NA,NA,NA,NA,NA,NA,NA,NA,NA,NA,NA,NA,NA,NA
258a8,shallow,flow.Sequence,3_0_3_0_3_1,NA,NA,completion,7643.7609999999,2882337.8,2882329.732,2882345.827,2889989.588,2890002.7,2023-05-16T16:12:16Z,2890006.212,NULL,Niveau,kiwango,s,usimamizi,mwamali,mshairi,NA,qt,NA,3,NA,NA,NA,NA,NA,NA,NA,NA,NA,NA,NA,NA,NA,NA,NA,NA,NA,NA,NA
258a8,task,flow.Sequence,3_0_3_0_3,NA,NA,completion,7643.7609999999,2882337.5,2882329.732,2882345.827,2889989.588,2890003,2023-05-16T16:12:16Z,2890006.212,NULL,Niveau,kiwango,s,usimamizi,mwamali,mshairi,NA,qt,NA,3,NA,NA,NA,NA,NA,NA,NA,NA,NA,NA,NA,NA,NA,NA,NA,NA,NA,NA,NA
258a8,deep,flow.Sequence,3_0_3_0_4_0,NA,NA,skipped,NA,2890003.1,NA,NA,2889989.588,2890003.3,2023-05-16T16:12:16Z,2890006.212,NULL,System,maongozi,s,chokochoko,nuksani,mitaani,NA,qt,NA,3,NA,NA,NA,NA,NA,NA,NA,NA,NA,NA,NA,NA,NA,NA,NA,NA,NA,NA,NA
258a8,Shallow Question,html.Page,3_0_3_0_4_1_0,NA,NA,form submission,2483.4879999883,2890003.5,2889989.588,2890006.212,2892489.7,2892489.8,2023-05-16T16:12:18Z,2892504.657,NULL,System,maongozi,s,chokochoko,nuksani,mitaani,maongozi,NA,NA,3,NA,NA,NA,NA,NA,NA,NA,NA,NA,NA,NA,NA,NA,NA,NA,NA,NA,NA,NA
258a8,"""Richtig""-Screen",canvas.Screen,3_0_3_0_4_1_1,NA,NA,timeout,4995.409,2892490.6,2892488.024,2892504.657,2897483.932,2897485,2023-05-16T16:12:23Z,2897500.066,NULL,System,maongozi,s,chokochoko,nuksani,mitaani,NA,qt,1,3,NA,NA,NA,NA,NA,NA,NA,NA,NA,NA,NA,NA,NA,NA,NA,NA,NA,NA,NA
258a8,"""Falsch""-Screen",canvas.Screen,3_0_3_0_4_1_2,NA,NA,skipped,NA,2897490,NA,NA,2897483.932,2897490.3,2023-05-16T16:12:23Z,2897500.066,NULL,System,maongozi,s,chokochoko,nuksani,mitaani,NA,qt,NA,3,NA,NA,NA,NA,NA,NA,NA,NA,NA,NA,NA,NA,NA,NA,NA,NA,NA,NA,NA
258a8,shallow,flow.Sequence,3_0_3_0_4_1,NA,NA,completion,7477.7200000002,2890003.4,2889989.588,2890006.212,2897483.932,2897490.8,2023-05-16T16:12:23Z,2897500.066,NULL,System,maongozi,s,chokochoko,nuksani,mitaani,NA,qt,NA,3,NA,NA,NA,NA,NA,NA,NA,NA,NA,NA,NA,NA,NA,NA,NA,NA,NA,NA,NA
258a8,task,flow.Sequence,3_0_3_0_4,NA,NA,completion,7477.7200000002,2890003.1,2889989.588,2890006.212,2897483.932,2897491.1,2023-05-16T16:12:23Z,2897500.066,NULL,System,maongozi,s,chokochoko,nuksani,mitaani,NA,qt,NA,3,NA,NA,NA,NA,NA,NA,NA,NA,NA,NA,NA,NA,NA,NA,NA,NA,NA,NA,NA
258a8,Deep Question,html.Page,3_0_3_0_5_0_0,NA,NA,form submission,12247.133999988,2897491.3,2897483.932,2897500.066,2909747.2,2909747.3,2023-05-16T16:12:35Z,2909756.555,NULL,Entwicklung,maendeleo,d,NA,NA,NA,maendelo,NA,NA,3,NA,NA,NA,NA,NA,NA,NA,NA,NA,NA,NA,NA,NA,NA,NA,NA,NA,NA,NA
258a8,"""Richtig""-Screen",canvas.Screen,3_0_3_0_5_0_1,NA,NA,skipped,NA,2909749.8,NA,NA,2909747.2,2909750,2023-05-16T16:12:35Z,2909756.555,NULL,Entwicklung,maendeleo,d,NA,NA,NA,NA,qt,NA,3,NA,NA,NA,NA,NA,NA,NA,NA,NA,NA,NA,NA,NA,NA,NA,NA,NA,NA,NA
258a8,"""Falsch""-Screen",canvas.Screen,3_0_3_0_5_0_2,NA,NA,timeout,4995.946,2909751.6,2909739.99,2909756.555,2914735.871,2914739.9,2023-05-16T16:12:40Z,2914752.501,NULL,Entwicklung,maendeleo,d,NA,NA,NA,NA,qt,0,3,NA,NA,NA,NA,NA,NA,NA,NA,NA,NA,NA,NA,NA,NA,NA,NA,NA,NA,NA
258a8,deep,flow.Sequence,3_0_3_0_5_0,NA,NA,completion,17235.805,2897491.3,2897483.932,2897500.066,2914735.871,2914740.3,2023-05-16T16:12:40Z,2914752.501,NULL,Entwicklung,maendeleo,d,NA,NA,NA,NA,qt,NA,3,NA,NA,NA,NA,NA,NA,NA,NA,NA,NA,NA,NA,NA,NA,NA,NA,NA,NA,NA
258a8,shallow,flow.Sequence,3_0_3_0_5_1,NA,NA,skipped,NA,2914740.5,NA,NA,2914735.871,2914740.9,2023-05-16T16:12:40Z,2914752.501,NULL,Entwicklung,maendeleo,d,NA,NA,NA,NA,qt,NA,3,NA,NA,NA,NA,NA,NA,NA,NA,NA,NA,NA,NA,NA,NA,NA,NA,NA,NA,NA
258a8,task,flow.Sequence,3_0_3_0_5,NA,NA,completion,17235.805,2897491.2,2897483.932,2897500.066,2914735.871,2914741.4,2023-05-16T16:12:40Z,2914752.501,NULL,Entwicklung,maendeleo,d,NA,NA,NA,NA,qt,NA,3,NA,NA,NA,NA,NA,NA,NA,NA,NA,NA,NA,NA,NA,NA,NA,NA,NA,NA,NA
258a8,Deep Question,html.Page,3_0_3_0_6_0_0,NA,NA,form submission,7111.9989999998,2914741.6,2914735.871,2914752.501,2921864.5,2921864.6,2023-05-16T16:12:48Z,2921880.48,NULL,Körper,kiwiliwili,d,NA,NA,NA,kiwiliwili,NA,NA,3,NA,NA,NA,NA,NA,NA,NA,NA,NA,NA,NA,NA,NA,NA,NA,NA,NA,NA,NA
258a8,"""Richtig""-Screen",canvas.Screen,3_0_3_0_6_0_1,NA,NA,timeout,4995.3829999999,2921867.4,2921863.835,2921880.48,2926859.719,2926860.7,2023-05-16T16:12:53Z,2926875.863,NULL,Körper,kiwiliwili,d,NA,NA,NA,NA,qt,1,3,NA,NA,NA,NA,NA,NA,NA,NA,NA,NA,NA,NA,NA,NA,NA,NA,NA,NA,NA
258a8,"""Falsch""-Screen",canvas.Screen,3_0_3_0_6_0_2,NA,NA,skipped,NA,2926865.4,NA,NA,2926859.719,2926865.7,2023-05-16T16:12:53Z,2926875.863,NULL,Körper,kiwiliwili,d,NA,NA,NA,NA,qt,NA,3,NA,NA,NA,NA,NA,NA,NA,NA,NA,NA,NA,NA,NA,NA,NA,NA,NA,NA,NA
258a8,deep,flow.Sequence,3_0_3_0_6_0,NA,NA,completion,12107.218,2914741.6,2914735.871,2914752.501,2926859.719,2926866.1,2023-05-16T16:12:53Z,2926875.863,NULL,Körper,kiwiliwili,d,NA,NA,NA,NA,qt,NA,3,NA,NA,NA,NA,NA,NA,NA,NA,NA,NA,NA,NA,NA,NA,NA,NA,NA,NA,NA
258a8,shallow,flow.Sequence,3_0_3_0_6_1,NA,NA,skipped,NA,2926866.2,NA,NA,2926859.719,2926866.3,2023-05-16T16:12:53Z,2926875.863,NULL,Körper,kiwiliwili,d,NA,NA,NA,NA,qt,NA,3,NA,NA,NA,NA,NA,NA,NA,NA,NA,NA,NA,NA,NA,NA,NA,NA,NA,NA,NA
258a8,task,flow.Sequence,3_0_3_0_6,NA,NA,completion,12107.218,2914741.5,2914735.871,2914752.501,2926859.719,2926866.5,2023-05-16T16:12:53Z,2926875.863,NULL,Körper,kiwiliwili,d,NA,NA,NA,NA,qt,NA,3,NA,NA,NA,NA,NA,NA,NA,NA,NA,NA,NA,NA,NA,NA,NA,NA,NA,NA,NA
258a8,Deep Question,html.Page,3_0_3_0_7_0_0,NA,NA,form submission,4795.1370000001,2926866.7,2926859.719,2926875.863,2931671,2931671.2,2023-05-16T16:12:57Z,2931671.831,NULL,Vorwurf,mashtaka,d,NA,NA,NA,m,NA,NA,3,NA,NA,NA,NA,NA,NA,NA,NA,NA,NA,NA,NA,NA,NA,NA,NA,NA,NA,NA
258a8,"""Richtig""-Screen",canvas.Screen,3_0_3_0_7_0_1,NA,NA,skipped,NA,2931673.1,NA,NA,2931671,2931673.3,2023-05-16T16:12:57Z,2931671.831,NULL,Vorwurf,mashtaka,d,NA,NA,NA,NA,qt,NA,3,NA,NA,NA,NA,NA,NA,NA,NA,NA,NA,NA,NA,NA,NA,NA,NA,NA,NA,NA
258a8,"""Falsch""-Screen",canvas.Screen,3_0_3_0_7_0_2,NA,NA,timeout,4995.9950000001,2931673.8,2931655.795,2931671.831,2936651.676,2936652.8,2023-05-16T16:13:02Z,2936667.826,NULL,Vorwurf,mashtaka,d,NA,NA,NA,NA,qt,0,3,NA,NA,NA,NA,NA,NA,NA,NA,NA,NA,NA,NA,NA,NA,NA,NA,NA,NA,NA
258a8,deep,flow.Sequence,3_0_3_0_7_0,NA,NA,completion,9775.8130000001,2926866.7,2926859.719,2926875.863,2936651.676,2936653.1,2023-05-16T16:13:02Z,2936667.826,NULL,Vorwurf,mashtaka,d,NA,NA,NA,NA,qt,NA,3,NA,NA,NA,NA,NA,NA,NA,NA,NA,NA,NA,NA,NA,NA,NA,NA,NA,NA,NA
258a8,shallow,flow.Sequence,3_0_3_0_7_1,NA,NA,skipped,NA,2936653.3,NA,NA,2936651.676,2936653.5,2023-05-16T16:13:02Z,2936667.826,NULL,Vorwurf,mashtaka,d,NA,NA,NA,NA,qt,NA,3,NA,NA,NA,NA,NA,NA,NA,NA,NA,NA,NA,NA,NA,NA,NA,NA,NA,NA,NA
258a8,task,flow.Sequence,3_0_3_0_7,NA,NA,completion,9775.8130000001,2926866.6,2926859.719,2926875.863,2936651.676,2936653.7,2023-05-16T16:13:02Z,2936667.826,NULL,Vorwurf,mashtaka,d,NA,NA,NA,NA,qt,NA,3,NA,NA,NA,NA,NA,NA,NA,NA,NA,NA,NA,NA,NA,NA,NA,NA,NA,NA,NA
258a8,block,flow.Loop,3_0_3_0,NA,NA,completion,81799.891,2854845.8,2854835.627,2854851.785,2936651.676,2936654,2023-05-16T16:13:02Z,2936667.826,NULL,NA,NA,NA,NA,NA,NA,NA,qt,NA,3,NA,NA,NA,NA,NA,NA,NA,NA,NA,NA,NA,NA,NA,NA,NA,NA,NA,NA,NA
258a8,weiter,canvas.Screen,3_0_3_1,sdf,keypress(Space),response,879.87399998819,2936654.1,2936651.676,2936667.826,2937547.7,2937548.6,2023-05-16T16:13:03Z,2937666.956,NULL,NA,NA,NA,NA,NA,NA,NA,qt,NA,3,NA,NA,NA,NA,NA,NA,NA,NA,NA,NA,NA,NA,NA,NA,NA,NA,NA,NA,NA
258a8,check continue,flow.Sequence,3_0_3,NA,NA,completion,82695.914999988,2854845.7,2854835.627,2854851.785,2937547.7,2937548.9,2023-05-16T16:13:03Z,2937666.956,NULL,NA,NA,NA,NA,NA,NA,NA,qt,NA,3,NA,NA,NA,NA,NA,NA,NA,NA,NA,NA,NA,NA,NA,NA,NA,NA,NA,NA,NA
258a8,deep,flow.Sequence,3_0_4_0_0_0,NA,NA,skipped,NA,2937662.3,NA,NA,2937547.7,2937662.6,2023-05-16T16:13:03Z,2937666.956,NULL,Lawine,banguko,s,maambukizi,usuluhishi,chekechea,NA,sd,NA,4,NA,NA,NA,NA,NA,NA,NA,NA,NA,NA,NA,NA,NA,NA,NA,NA,NA,NA,NA
258a8,Shallow Question,html.Page,3_0_4_0_0_1_0,NA,NA,form submission,2544.5440000002,2937662.9,2937650.824,2937666.956,2940211.5,2940211.8,2023-05-16T16:13:06Z,2940214.842,NULL,Lawine,banguko,s,maambukizi,usuluhishi,chekechea,banguko,NA,NA,4,NA,NA,NA,NA,NA,NA,NA,NA,NA,NA,NA,NA,NA,NA,NA,NA,NA,NA,NA
258a8,"""Richtig""-Screen",canvas.Screen,3_0_4_0_0_1_1,NA,NA,timeout,4995.9339999999,2940213.5,2940198.748,2940214.842,2945194.125,2945201.8,2023-05-16T16:13:11Z,2945210.776,NULL,Lawine,banguko,s,maambukizi,usuluhishi,chekechea,NA,sd,1,4,NA,NA,NA,NA,NA,NA,NA,NA,NA,NA,NA,NA,NA,NA,NA,NA,NA,NA,NA
258a8,"""Falsch""-Screen",canvas.Screen,3_0_4_0_0_1_2,NA,NA,skipped,NA,2945208.4,NA,NA,2945194.125,2945209,2023-05-16T16:13:11Z,2945210.776,NULL,Lawine,banguko,s,maambukizi,usuluhishi,chekechea,NA,sd,NA,4,NA,NA,NA,NA,NA,NA,NA,NA,NA,NA,NA,NA,NA,NA,NA,NA,NA,NA,NA
258a8,shallow,flow.Sequence,3_0_4_0_0_1,NA,NA,completion,7527.1690000002,2937662.9,2937650.824,2937666.956,2945194.125,2945209.5,2023-05-16T16:13:11Z,2945210.776,NULL,Lawine,banguko,s,maambukizi,usuluhishi,chekechea,NA,sd,NA,4,NA,NA,NA,NA,NA,NA,NA,NA,NA,NA,NA,NA,NA,NA,NA,NA,NA,NA,NA
258a8,task,flow.Sequence,3_0_4_0_0,NA,NA,completion,7527.1690000002,2937662.3,2937650.824,2937666.956,2945194.125,2945210,2023-05-16T16:13:11Z,2945210.776,NULL,Lawine,banguko,s,maambukizi,usuluhishi,chekechea,NA,sd,NA,4,NA,NA,NA,NA,NA,NA,NA,NA,NA,NA,NA,NA,NA,NA,NA,NA,NA,NA,NA
258a8,Deep Question,html.Page,3_0_4_0_1_0_0,NA,NA,form submission,5177.8240000238,2945210.4,2945194.125,2945210.776,2950388.6,2950388.7,2023-05-16T16:13:16Z,2950389.755,NULL,Übersicht,kilindo,d,NA,NA,NA,kilindo,NA,NA,4,NA,NA,NA,NA,NA,NA,NA,NA,NA,NA,NA,NA,NA,NA,NA,NA,NA,NA,NA
258a8,"""Richtig""-Screen",canvas.Screen,3_0_4_0_1_0_1,NA,NA,timeout,4995.9680000003,2950390.9,2950373.237,2950389.755,2955369.593,2955370.7,2023-05-16T16:13:21Z,2955385.723,NULL,Übersicht,kilindo,d,NA,NA,NA,NA,sd,1,4,NA,NA,NA,NA,NA,NA,NA,NA,NA,NA,NA,NA,NA,NA,NA,NA,NA,NA,NA
258a8,"""Falsch""-Screen",canvas.Screen,3_0_4_0_1_0_2,NA,NA,skipped,NA,2955375.8,NA,NA,2955369.593,2955376.1,2023-05-16T16:13:21Z,2955385.723,NULL,Übersicht,kilindo,d,NA,NA,NA,NA,sd,NA,4,NA,NA,NA,NA,NA,NA,NA,NA,NA,NA,NA,NA,NA,NA,NA,NA,NA,NA,NA
258a8,deep,flow.Sequence,3_0_4_0_1_0,NA,NA,completion,10158.817,2945210.3,2945194.125,2945210.776,2955369.593,2955376.5,2023-05-16T16:13:21Z,2955385.723,NULL,Übersicht,kilindo,d,NA,NA,NA,NA,sd,NA,4,NA,NA,NA,NA,NA,NA,NA,NA,NA,NA,NA,NA,NA,NA,NA,NA,NA,NA,NA
258a8,shallow,flow.Sequence,3_0_4_0_1_1,NA,NA,skipped,NA,2955376.7,NA,NA,2955369.593,2955376.8,2023-05-16T16:13:21Z,2955385.723,NULL,Übersicht,kilindo,d,NA,NA,NA,NA,sd,NA,4,NA,NA,NA,NA,NA,NA,NA,NA,NA,NA,NA,NA,NA,NA,NA,NA,NA,NA,NA
258a8,task,flow.Sequence,3_0_4_0_1,NA,NA,completion,10158.817,2945210.2,2945194.125,2945210.776,2955369.593,2955377,2023-05-16T16:13:21Z,2955385.723,NULL,Übersicht,kilindo,d,NA,NA,NA,NA,sd,NA,4,NA,NA,NA,NA,NA,NA,NA,NA,NA,NA,NA,NA,NA,NA,NA,NA,NA,NA,NA
258a8,Deep Question,html.Page,3_0_4_0_2_0_0,NA,NA,form submission,6152.0770000117,2955377.3,2955369.593,2955385.723,2961537.8,2961538.1,2023-05-16T16:13:27Z,2961547.247,NULL,Entwicklung,maendeleo,d,NA,NA,NA,maendeleo,NA,NA,4,NA,NA,NA,NA,NA,NA,NA,NA,NA,NA,NA,NA,NA,NA,NA,NA,NA,NA,NA
258a8,"""Richtig""-Screen",canvas.Screen,3_0_4_0_2_0_1,NA,NA,timeout,4996.0070000002,2961540.6,2961531.201,2961547.247,2966527.09,2966528.1,2023-05-16T16:13:32Z,2966543.254,NULL,Entwicklung,maendeleo,d,NA,NA,NA,NA,sd,1,4,NA,NA,NA,NA,NA,NA,NA,NA,NA,NA,NA,NA,NA,NA,NA,NA,NA,NA,NA
258a8,"""Falsch""-Screen",canvas.Screen,3_0_4_0_2_0_2,NA,NA,skipped,NA,2966533.2,NA,NA,2966527.09,2966533.5,2023-05-16T16:13:32Z,2966543.254,NULL,Entwicklung,maendeleo,d,NA,NA,NA,NA,sd,NA,4,NA,NA,NA,NA,NA,NA,NA,NA,NA,NA,NA,NA,NA,NA,NA,NA,NA,NA,NA
258a8,deep,flow.Sequence,3_0_4_0_2_0,NA,NA,completion,11141.367,2955377.2,2955369.593,2955385.723,2966527.09,2966533.9,2023-05-16T16:13:32Z,2966543.254,NULL,Entwicklung,maendeleo,d,NA,NA,NA,NA,sd,NA,4,NA,NA,NA,NA,NA,NA,NA,NA,NA,NA,NA,NA,NA,NA,NA,NA,NA,NA,NA
258a8,shallow,flow.Sequence,3_0_4_0_2_1,NA,NA,skipped,NA,2966534.1,NA,NA,2966527.09,2966534.3,2023-05-16T16:13:32Z,2966543.254,NULL,Entwicklung,maendeleo,d,NA,NA,NA,NA,sd,NA,4,NA,NA,NA,NA,NA,NA,NA,NA,NA,NA,NA,NA,NA,NA,NA,NA,NA,NA,NA
258a8,task,flow.Sequence,3_0_4_0_2,NA,NA,completion,11141.367,2955377.1,2955369.593,2955385.723,2966527.09,2966534.6,2023-05-16T16:13:32Z,2966543.254,NULL,Entwicklung,maendeleo,d,NA,NA,NA,NA,sd,NA,4,NA,NA,NA,NA,NA,NA,NA,NA,NA,NA,NA,NA,NA,NA,NA,NA,NA,NA,NA
258a8,Deep Question,html.Page,3_0_4_0_3_0_0,NA,NA,form submission,7228.7459999998,2966534.7,2966527.09,2966543.254,2973772,2973772.2,2023-05-16T16:13:39Z,2973787.749,NULL,Vorwurf,mashtaka,d,NA,NA,NA,mashtaka,NA,NA,4,NA,NA,NA,NA,NA,NA,NA,NA,NA,NA,NA,NA,NA,NA,NA,NA,NA,NA,NA
258a8,"""Richtig""-Screen",canvas.Screen,3_0_4_0_3_0_1,NA,NA,timeout,4995.372,2973774.9,2973771.127,2973787.749,2978766.486,2978774.3,2023-05-16T16:13:44Z,2978783.121,NULL,Vorwurf,mashtaka,d,NA,NA,NA,NA,sd,1,4,NA,NA,NA,NA,NA,NA,NA,NA,NA,NA,NA,NA,NA,NA,NA,NA,NA,NA,NA
258a8,"""Falsch""-Screen",canvas.Screen,3_0_4_0_3_0_2,NA,NA,skipped,NA,2978782.2,NA,NA,2978766.486,2978782.7,2023-05-16T16:13:44Z,2978783.121,NULL,Vorwurf,mashtaka,d,NA,NA,NA,NA,sd,NA,4,NA,NA,NA,NA,NA,NA,NA,NA,NA,NA,NA,NA,NA,NA,NA,NA,NA,NA,NA
258a8,deep,flow.Sequence,3_0_4_0_3_0,NA,NA,completion,12223.232,2966534.7,2966527.09,2966543.254,2978766.486,2978783,2023-05-16T16:13:44Z,2978783.121,NULL,Vorwurf,mashtaka,d,NA,NA,NA,NA,sd,NA,4,NA,NA,NA,NA,NA,NA,NA,NA,NA,NA,NA,NA,NA,NA,NA,NA,NA,NA,NA
258a8,shallow,flow.Sequence,3_0_4_0_3_1,NA,NA,skipped,NA,2978783.5,NA,NA,2978766.486,2978784,2023-05-16T16:13:44Z,2978783.121,NULL,Vorwurf,mashtaka,d,NA,NA,NA,NA,sd,NA,4,NA,NA,NA,NA,NA,NA,NA,NA,NA,NA,NA,NA,NA,NA,NA,NA,NA,NA,NA
258a8,task,flow.Sequence,3_0_4_0_3,NA,NA,completion,12223.232,2966534.7,2966527.09,2966543.254,2978766.486,2978784.6,2023-05-16T16:13:44Z,2978783.121,NULL,Vorwurf,mashtaka,d,NA,NA,NA,NA,sd,NA,4,NA,NA,NA,NA,NA,NA,NA,NA,NA,NA,NA,NA,NA,NA,NA,NA,NA,NA,NA
258a8,deep,flow.Sequence,3_0_4_0_4_0,NA,NA,skipped,NA,2978784.8,NA,NA,2978766.486,2978785.2,2023-05-16T16:13:44Z,2978783.121,NULL,Niveau,kiwango,s,usimamizi,mwamali,mshairi,NA,sd,NA,4,NA,NA,NA,NA,NA,NA,NA,NA,NA,NA,NA,NA,NA,NA,NA,NA,NA,NA,NA
258a8,Shallow Question,html.Page,3_0_4_0_4_1_0,NA,NA,form submission,2450.979000024,2978785.4,2978766.486,2978783.121,2981234.1,2981234.2,2023-05-16T16:13:47Z,2981248.284,NULL,Niveau,kiwango,s,usimamizi,mwamali,mshairi,kiwango,NA,NA,4,NA,NA,NA,NA,NA,NA,NA,NA,NA,NA,NA,NA,NA,NA,NA,NA,NA,NA,NA
258a8,"""Richtig""-Screen",canvas.Screen,3_0_4_0_4_1_1,NA,NA,timeout,4995.3489999999,2981234.8,2981231.665,2981248.284,2986227.531,2986228.5,2023-05-16T16:13:52Z,2986243.633,NULL,Niveau,kiwango,s,usimamizi,mwamali,mshairi,NA,sd,1,4,NA,NA,NA,NA,NA,NA,NA,NA,NA,NA,NA,NA,NA,NA,NA,NA,NA,NA,NA
258a8,"""Falsch""-Screen",canvas.Screen,3_0_4_0_4_1_2,NA,NA,skipped,NA,2986233.5,NA,NA,2986227.531,2986233.9,2023-05-16T16:13:52Z,2986243.633,NULL,Niveau,kiwango,s,usimamizi,mwamali,mshairi,NA,sd,NA,4,NA,NA,NA,NA,NA,NA,NA,NA,NA,NA,NA,NA,NA,NA,NA,NA,NA,NA,NA
258a8,shallow,flow.Sequence,3_0_4_0_4_1,NA,NA,completion,7444.4100000001,2978785.4,2978766.486,2978783.121,2986227.531,2986234.3,2023-05-16T16:13:52Z,2986243.633,NULL,Niveau,kiwango,s,usimamizi,mwamali,mshairi,NA,sd,NA,4,NA,NA,NA,NA,NA,NA,NA,NA,NA,NA,NA,NA,NA,NA,NA,NA,NA,NA,NA
258a8,task,flow.Sequence,3_0_4_0_4,NA,NA,completion,7444.4100000001,2978784.8,2978766.486,2978783.121,2986227.531,2986234.5,2023-05-16T16:13:52Z,2986243.633,NULL,Niveau,kiwango,s,usimamizi,mwamali,mshairi,NA,sd,NA,4,NA,NA,NA,NA,NA,NA,NA,NA,NA,NA,NA,NA,NA,NA,NA,NA,NA,NA,NA
258a8,deep,flow.Sequence,3_0_4_0_5_0,NA,NA,skipped,NA,2986234.7,NA,NA,2986227.531,2986234.9,2023-05-16T16:13:52Z,2986243.633,NULL,System,maongozi,s,chokochoko,nuksani,mitaani,NA,sd,NA,4,NA,NA,NA,NA,NA,NA,NA,NA,NA,NA,NA,NA,NA,NA,NA,NA,NA,NA,NA
258a8,Shallow Question,html.Page,3_0_4_0_5_1_0,NA,NA,form submission,2867.3670000001,2986235,2986227.531,2986243.633,2989111,2989111.2,2023-05-16T16:13:55Z,2989124.572,NULL,System,maongozi,s,chokochoko,nuksani,mitaani,maongozi,NA,NA,4,NA,NA,NA,NA,NA,NA,NA,NA,NA,NA,NA,NA,NA,NA,NA,NA,NA,NA,NA
258a8,"""Richtig""-Screen",canvas.Screen,3_0_4_0_5_1_1,NA,NA,timeout,4995.8869999996,2989112.2,2989107.882,2989124.572,2994104.359,2994105.5,2023-05-16T16:14:00Z,2994120.459,NULL,System,maongozi,s,chokochoko,nuksani,mitaani,NA,sd,1,4,NA,NA,NA,NA,NA,NA,NA,NA,NA,NA,NA,NA,NA,NA,NA,NA,NA,NA,NA
258a8,"""Falsch""-Screen",canvas.Screen,3_0_4_0_5_1_2,NA,NA,skipped,NA,2994110.8,NA,NA,2994104.359,2994111.1,2023-05-16T16:14:00Z,2994120.459,NULL,System,maongozi,s,chokochoko,nuksani,mitaani,NA,sd,NA,4,NA,NA,NA,NA,NA,NA,NA,NA,NA,NA,NA,NA,NA,NA,NA,NA,NA,NA,NA
258a8,shallow,flow.Sequence,3_0_4_0_5_1,NA,NA,completion,7860.7260000003,2986234.9,2986227.531,2986243.633,2994104.359,2994111.6,2023-05-16T16:14:00Z,2994120.459,NULL,System,maongozi,s,chokochoko,nuksani,mitaani,NA,sd,NA,4,NA,NA,NA,NA,NA,NA,NA,NA,NA,NA,NA,NA,NA,NA,NA,NA,NA,NA,NA
258a8,task,flow.Sequence,3_0_4_0_5,NA,NA,completion,7860.7260000003,2986234.6,2986227.531,2986243.633,2994104.359,2994111.9,2023-05-16T16:14:00Z,2994120.459,NULL,System,maongozi,s,chokochoko,nuksani,mitaani,NA,sd,NA,4,NA,NA,NA,NA,NA,NA,NA,NA,NA,NA,NA,NA,NA,NA,NA,NA,NA,NA,NA
258a8,deep,flow.Sequence,3_0_4_0_6_0,NA,NA,skipped,NA,2994112.1,NA,NA,2994104.359,2994112.3,2023-05-16T16:14:00Z,2994120.459,NULL,Papier,karatasi,s,uchambuzi,usalama,kukataliwa,NA,sd,NA,4,NA,NA,NA,NA,NA,NA,NA,NA,NA,NA,NA,NA,NA,NA,NA,NA,NA,NA,NA
258a8,Shallow Question,html.Page,3_0_4_0_6_1_0,NA,NA,form submission,2327.7409999883,2994112.4,2994104.359,2994120.459,2996448.2,2996448.4,2023-05-16T16:14:02Z,2996451.82,NULL,Papier,karatasi,s,uchambuzi,usalama,kukataliwa,karatasi,NA,NA,4,NA,NA,NA,NA,NA,NA,NA,NA,NA,NA,NA,NA,NA,NA,NA,NA,NA,NA,NA
258a8,"""Richtig""-Screen",canvas.Screen,3_0_4_0_6_1_1,NA,NA,timeout,4995.9640000002,2996449,2996435.72,2996451.82,3001431.163,3001437.8,2023-05-16T16:14:07Z,3001447.784,NULL,Papier,karatasi,s,uchambuzi,usalama,kukataliwa,NA,sd,1,4,NA,NA,NA,NA,NA,NA,NA,NA,NA,NA,NA,NA,NA,NA,NA,NA,NA,NA,NA
258a8,"""Falsch""-Screen",canvas.Screen,3_0_4_0_6_1_2,NA,NA,skipped,NA,3001444.2,NA,NA,3001431.163,3001444.6,2023-05-16T16:14:07Z,3001447.784,NULL,Papier,karatasi,s,uchambuzi,usalama,kukataliwa,NA,sd,NA,4,NA,NA,NA,NA,NA,NA,NA,NA,NA,NA,NA,NA,NA,NA,NA,NA,NA,NA,NA
258a8,shallow,flow.Sequence,3_0_4_0_6_1,NA,NA,completion,7310.7040000004,2994112.3,2994104.359,2994120.459,3001431.163,3001445,2023-05-16T16:14:07Z,3001447.784,NULL,Papier,karatasi,s,uchambuzi,usalama,kukataliwa,NA,sd,NA,4,NA,NA,NA,NA,NA,NA,NA,NA,NA,NA,NA,NA,NA,NA,NA,NA,NA,NA,NA
258a8,task,flow.Sequence,3_0_4_0_6,NA,NA,completion,7310.7040000004,2994112,2994104.359,2994120.459,3001431.163,3001445.2,2023-05-16T16:14:07Z,3001447.784,NULL,Papier,karatasi,s,uchambuzi,usalama,kukataliwa,NA,sd,NA,4,NA,NA,NA,NA,NA,NA,NA,NA,NA,NA,NA,NA,NA,NA,NA,NA,NA,NA,NA
258a8,Deep Question,html.Page,3_0_4_0_7_0_0,NA,NA,form submission,6178.6159999762,3001445.5,3001431.163,3001447.784,3007626.4,3007626.5,2023-05-16T16:14:13Z,3007643.098,NULL,Körper,kiwiliwili,d,NA,NA,NA,kiwiliwili,NA,NA,4,NA,NA,NA,NA,NA,NA,NA,NA,NA,NA,NA,NA,NA,NA,NA,NA,NA,NA,NA
258a8,"""Richtig""-Screen",canvas.Screen,3_0_4_0_7_0_1,NA,NA,timeout,4995.4779999997,3007628.2,3007609.621,3007643.098,3012622.451,3012623.6,2023-05-16T16:14:18Z,3012638.576,NULL,Körper,kiwiliwili,d,NA,NA,NA,NA,sd,1,4,NA,NA,NA,NA,NA,NA,NA,NA,NA,NA,NA,NA,NA,NA,NA,NA,NA,NA,NA
258a8,"""Falsch""-Screen",canvas.Screen,3_0_4_0_7_0_2,NA,NA,skipped,NA,3012628.6,NA,NA,3012622.451,3012629,2023-05-16T16:14:18Z,3012638.576,NULL,Körper,kiwiliwili,d,NA,NA,NA,NA,sd,NA,4,NA,NA,NA,NA,NA,NA,NA,NA,NA,NA,NA,NA,NA,NA,NA,NA,NA,NA,NA
258a8,deep,flow.Sequence,3_0_4_0_7_0,NA,NA,completion,11174.667,3001445.5,3001431.163,3001447.784,3012622.451,3012629.4,2023-05-16T16:14:18Z,3012638.576,NULL,Körper,kiwiliwili,d,NA,NA,NA,NA,sd,NA,4,NA,NA,NA,NA,NA,NA,NA,NA,NA,NA,NA,NA,NA,NA,NA,NA,NA,NA,NA
258a8,shallow,flow.Sequence,3_0_4_0_7_1,NA,NA,skipped,NA,3012629.6,NA,NA,3012622.451,3012629.6,2023-05-16T16:14:18Z,3012638.576,NULL,Körper,kiwiliwili,d,NA,NA,NA,NA,sd,NA,4,NA,NA,NA,NA,NA,NA,NA,NA,NA,NA,NA,NA,NA,NA,NA,NA,NA,NA,NA
258a8,task,flow.Sequence,3_0_4_0_7,NA,NA,completion,11174.667,3001445.4,3001431.163,3001447.784,3012622.451,3012629.9,2023-05-16T16:14:18Z,3012638.576,NULL,Körper,kiwiliwili,d,NA,NA,NA,NA,sd,NA,4,NA,NA,NA,NA,NA,NA,NA,NA,NA,NA,NA,NA,NA,NA,NA,NA,NA,NA,NA
258a8,block,flow.Loop,3_0_4_0,NA,NA,completion,74955.495,2937662.1,2937650.824,2937666.956,3012622.451,3012630.1,2023-05-16T16:14:18Z,3012638.576,NULL,NA,NA,NA,NA,NA,NA,NA,sd,NA,4,NA,NA,NA,NA,NA,NA,NA,NA,NA,NA,NA,NA,NA,NA,NA,NA,NA,NA,NA
258a8,weiter,canvas.Screen,3_0_4_1,sdf,keypress(Space),response,1090.8239999763,3012630.3,3012622.451,3012638.576,3013729.4,3013730.5,2023-05-16T16:14:19Z,3014387.075,NULL,NA,NA,NA,NA,NA,NA,NA,sd,NA,4,NA,NA,NA,NA,NA,NA,NA,NA,NA,NA,NA,NA,NA,NA,NA,NA,NA,NA,NA
258a8,check continue,flow.Sequence,3_0_4,NA,NA,completion,76062.443999976,2937662,2937650.824,2937666.956,3013729.4,3013730.8,2023-05-16T16:14:19Z,3014387.075,NULL,NA,NA,NA,NA,NA,NA,NA,sd,NA,4,NA,NA,NA,NA,NA,NA,NA,NA,NA,NA,NA,NA,NA,NA,NA,NA,NA,NA,NA
258a8,check continue,flow.Sequence,3_0_5,NA,NA,skipped,NA,3013835.9,NA,NA,3013729.4,3013851.1,2023-05-16T16:14:20Z,3014387.075,NULL,NA,NA,NA,NA,NA,NA,NA,sdf,NA,5,NA,NA,NA,NA,NA,NA,NA,NA,NA,NA,NA,NA,NA,NA,NA,NA,NA,NA,NA
258a8,check continue,flow.Sequence,3_0_6,NA,NA,skipped,NA,3013901.7,NA,NA,3013729.4,3013901.8,2023-05-16T16:14:20Z,3014387.075,NULL,NA,NA,NA,NA,NA,NA,NA,dfs,NA,6,NA,NA,NA,NA,NA,NA,NA,NA,NA,NA,NA,NA,NA,NA,NA,NA,NA,NA,NA
258a8,check continue,flow.Sequence,3_0_7,NA,NA,skipped,NA,3013932.2,NA,NA,3013729.4,3013932.4,2023-05-16T16:14:20Z,3014387.075,NULL,NA,NA,NA,NA,NA,NA,NA,df,NA,7,NA,NA,NA,NA,NA,NA,NA,NA,NA,NA,NA,NA,NA,NA,NA,NA,NA,NA,NA
258a8,check continue,flow.Sequence,3_0_8,NA,NA,skipped,NA,3013957,NA,NA,3013729.4,3013957.2,2023-05-16T16:14:20Z,3014387.075,NULL,NA,NA,NA,NA,NA,NA,NA,dfs,NA,8,NA,NA,NA,NA,NA,NA,NA,NA,NA,NA,NA,NA,NA,NA,NA,NA,NA,NA,NA
258a8,check continue,flow.Sequence,3_0_9,NA,NA,skipped,NA,3013985.8,NA,NA,3013729.4,3013985.9,2023-05-16T16:14:20Z,3014387.075,NULL,NA,NA,NA,NA,NA,NA,NA,dsf,NA,9,NA,NA,NA,NA,NA,NA,NA,NA,NA,NA,NA,NA,NA,NA,NA,NA,NA,NA,NA
258a8,check continue,flow.Sequence,3_0_10,NA,NA,skipped,NA,3014010.8,NA,NA,3013729.4,3014010.9,2023-05-16T16:14:20Z,3014387.075,NULL,NA,NA,NA,NA,NA,NA,NA,df,NA,10,NA,NA,NA,NA,NA,NA,NA,NA,NA,NA,NA,NA,NA,NA,NA,NA,NA,NA,NA
258a8,check continue,flow.Sequence,3_0_11,NA,NA,skipped,NA,3014032.4,NA,NA,3013729.4,3014032.5,2023-05-16T16:14:20Z,3014387.075,NULL,NA,NA,NA,NA,NA,NA,NA,dfs,NA,11,NA,NA,NA,NA,NA,NA,NA,NA,NA,NA,NA,NA,NA,NA,NA,NA,NA,NA,NA
258a8,check continue,flow.Sequence,3_0_12,NA,NA,skipped,NA,3014048.5,NA,NA,3013729.4,3014048.6,2023-05-16T16:14:20Z,3014387.075,NULL,NA,NA,NA,NA,NA,NA,NA,dsf,NA,12,NA,NA,NA,NA,NA,NA,NA,NA,NA,NA,NA,NA,NA,NA,NA,NA,NA,NA,NA
258a8,check continue,flow.Sequence,3_0_13,NA,NA,skipped,NA,3014067.4,NA,NA,3013729.4,3014067.4,2023-05-16T16:14:20Z,3014387.075,NULL,NA,NA,NA,NA,NA,NA,NA,dsf,NA,13,NA,NA,NA,NA,NA,NA,NA,NA,NA,NA,NA,NA,NA,NA,NA,NA,NA,NA,NA
258a8,check continue,flow.Sequence,3_0_14,NA,NA,skipped,NA,3014089.5,NA,NA,3013729.4,3014089.7,2023-05-16T16:14:20Z,3014387.075,NULL,NA,NA,NA,NA,NA,NA,NA,NA,NA,14,NA,NA,NA,NA,NA,NA,NA,NA,NA,NA,NA,NA,NA,NA,NA,NA,NA,NA,NA
258a8,check continue,flow.Sequence,3_0_15,NA,NA,skipped,NA,3014106.2,NA,NA,3013729.4,3014106.4,2023-05-16T16:14:20Z,3014387.075,NULL,NA,NA,NA,NA,NA,NA,NA,NA,NA,15,NA,NA,NA,NA,NA,NA,NA,NA,NA,NA,NA,NA,NA,NA,NA,NA,NA,NA,NA
258a8,check continue,flow.Sequence,3_0_16,NA,NA,skipped,NA,3014125.9,NA,NA,3013729.4,3014125.9,2023-05-16T16:14:20Z,3014387.075,NULL,NA,NA,NA,NA,NA,NA,NA,NA,NA,16,NA,NA,NA,NA,NA,NA,NA,NA,NA,NA,NA,NA,NA,NA,NA,NA,NA,NA,NA
258a8,check continue,flow.Sequence,3_0_17,NA,NA,skipped,NA,3014140.6,NA,NA,3013729.4,3014140.7,2023-05-16T16:14:20Z,3014387.075,NULL,NA,NA,NA,NA,NA,NA,NA,NA,NA,17,NA,NA,NA,NA,NA,NA,NA,NA,NA,NA,NA,NA,NA,NA,NA,NA,NA,NA,NA
258a8,check continue,flow.Sequence,3_0_18,NA,NA,skipped,NA,3014155.6,NA,NA,3013729.4,3014155.6,2023-05-16T16:14:20Z,3014387.075,NULL,NA,NA,NA,NA,NA,NA,NA,NA,NA,18,NA,NA,NA,NA,NA,NA,NA,NA,NA,NA,NA,NA,NA,NA,NA,NA,NA,NA,NA
258a8,check continue,flow.Sequence,3_0_19,NA,NA,skipped,NA,3014172.2,NA,NA,3013729.4,3014172.3,2023-05-16T16:14:20Z,3014387.075,NULL,NA,NA,NA,NA,NA,NA,NA,NA,NA,19,NA,NA,NA,NA,NA,NA,NA,NA,NA,NA,NA,NA,NA,NA,NA,NA,NA,NA,NA
258a8,check continue,flow.Sequence,3_0_20,NA,NA,skipped,NA,3014191,NA,NA,3013729.4,3014191.2,2023-05-16T16:14:20Z,3014387.075,NULL,NA,NA,NA,NA,NA,NA,NA,NA,NA,20,NA,NA,NA,NA,NA,NA,NA,NA,NA,NA,NA,NA,NA,NA,NA,NA,NA,NA,NA
258a8,check continue,flow.Sequence,3_0_21,NA,NA,skipped,NA,3014211.8,NA,NA,3013729.4,3014212,2023-05-16T16:14:20Z,3014387.075,NULL,NA,NA,NA,NA,NA,NA,NA,NA,NA,21,NA,NA,NA,NA,NA,NA,NA,NA,NA,NA,NA,NA,NA,NA,NA,NA,NA,NA,NA
258a8,check continue,flow.Sequence,3_0_22,NA,NA,skipped,NA,3014228.8,NA,NA,3013729.4,3014229,2023-05-16T16:14:20Z,3014387.075,NULL,NA,NA,NA,NA,NA,NA,NA,NA,NA,22,NA,NA,NA,NA,NA,NA,NA,NA,NA,NA,NA,NA,NA,NA,NA,NA,NA,NA,NA
258a8,check continue,flow.Sequence,3_0_23,NA,NA,skipped,NA,3014248.9,NA,NA,3013729.4,3014249,2023-05-16T16:14:20Z,3014387.075,NULL,NA,NA,NA,NA,NA,NA,NA,NA,NA,23,NA,NA,NA,NA,NA,NA,NA,NA,NA,NA,NA,NA,NA,NA,NA,NA,NA,NA,NA
258a8,check continue,flow.Sequence,3_0_24,NA,NA,skipped,NA,3014267.4,NA,NA,3013729.4,3014267.5,2023-05-16T16:14:20Z,3014387.075,NULL,NA,NA,NA,NA,NA,NA,NA,NA,NA,24,NA,NA,NA,NA,NA,NA,NA,NA,NA,NA,NA,NA,NA,NA,NA,NA,NA,NA,NA
258a8,check continue,flow.Sequence,3_0_25,NA,NA,skipped,NA,3014285.8,NA,NA,3013729.4,3014285.9,2023-05-16T16:14:20Z,3014387.075,NULL,NA,NA,NA,NA,NA,NA,NA,NA,NA,25,NA,NA,NA,NA,NA,NA,NA,NA,NA,NA,NA,NA,NA,NA,NA,NA,NA,NA,NA
258a8,check continue,flow.Sequence,3_0_26,NA,NA,skipped,NA,3014314.5,NA,NA,3013729.4,3014314.6,2023-05-16T16:14:20Z,3014387.075,NULL,NA,NA,NA,NA,NA,NA,NA,NA,NA,26,NA,NA,NA,NA,NA,NA,NA,NA,NA,NA,NA,NA,NA,NA,NA,NA,NA,NA,NA
258a8,check continue,flow.Sequence,3_0_27,NA,NA,skipped,NA,3014339.1,NA,NA,3013729.4,3014339.2,2023-05-16T16:14:20Z,3014387.075,NULL,NA,NA,NA,NA,NA,NA,NA,NA,NA,27,NA,NA,NA,NA,NA,NA,NA,NA,NA,NA,NA,NA,NA,NA,NA,NA,NA,NA,NA
258a8,check continue,flow.Sequence,3_0_28,NA,NA,skipped,NA,3014356.2,NA,NA,3013729.4,3014356.3,2023-05-16T16:14:20Z,3014387.075,NULL,NA,NA,NA,NA,NA,NA,NA,NA,NA,28,NA,NA,NA,NA,NA,NA,NA,NA,NA,NA,NA,NA,NA,NA,NA,NA,NA,NA,NA
258a8,check continue,flow.Sequence,3_0_29,NA,NA,skipped,NA,3014372.1,NA,NA,3013729.4,3014372.3,2023-05-16T16:14:20Z,3014387.075,NULL,NA,NA,NA,NA,NA,NA,NA,NA,NA,29,NA,NA,NA,NA,NA,NA,NA,NA,NA,NA,NA,NA,NA,NA,NA,NA,NA,NA,NA
258a8,until continue,flow.Loop,3_0,NA,NA,completion,375249.15299998,2638439.6,2638463.394,2638480.247,3013729.4,3014372.4,2023-05-16T16:14:20Z,3014387.075,NULL,NA,NA,NA,NA,NA,NA,NA,NA,NA,NA,NA,NA,NA,NA,NA,NA,NA,NA,NA,NA,NA,NA,NA,NA,NA,NA,NA,NA,NA
258a8,block 1,flow.Sequence,3,NA,NA,completion,375249.15299998,2638439.5,2638463.394,2638480.247,3013729.4,3014372.4,2023-05-16T16:14:20Z,3014387.075,NULL,NA,NA,NA,NA,NA,NA,NA,NA,NA,NA,NA,NA,NA,NA,NA,NA,NA,NA,NA,NA,NA,NA,NA,NA,NA,NA,NA,NA,NA
258a8,1.Part Over,canvas.Screen,4,NA,keypress(Space),response,2031.824999976,3014372.5,3014370.859,3014387.075,3016418.9,3016420.1,2023-05-16T16:14:22Z,3016585.854,NULL,NA,NA,NA,NA,NA,NA,NA,NA,NA,NA,NA,NA,NA,NA,NA,NA,NA,NA,NA,NA,NA,NA,NA,NA,NA,NA,NA,NA,NA
258a8,Deep Question,html.Page,5_0_0_0_0_0_0,NA,NA,form submission,2605.0459999763,3016568.4,3016568.621,3016585.854,3019190.9,3019191.1,2023-05-16T16:14:25Z,3019199.808,NULL,Verzögerung,kuchelewa,d,NA,NA,NA,m,NA,NA,0,NA,NA,NA,NA,NA,NA,NA,NA,NA,NA,NA,NA,NA,NA,NA,NA,NA,NA,NA
258a8,"""Richtig""-Screen",canvas.Screen,5_0_0_0_0_0_1,NA,NA,skipped,NA,3019191.9,NA,NA,3019190.9,3019192,2023-05-16T16:14:25Z,3019199.808,NULL,Verzögerung,kuchelewa,d,NA,NA,NA,NA,sdf,NA,0,NA,NA,NA,NA,NA,NA,NA,NA,NA,NA,NA,NA,NA,NA,NA,NA,NA,NA,NA
258a8,"""Falsch""-Screen",canvas.Screen,5_0_0_0_0_0_2,NA,NA,timeout,4995.9519999996,3019192.5,3019183.726,3019199.808,3024179.605,3024180.6,2023-05-16T16:14:30Z,3024195.76,NULL,Verzögerung,kuchelewa,d,NA,NA,NA,NA,sdf,0,0,NA,NA,NA,NA,NA,NA,NA,NA,NA,NA,NA,NA,NA,NA,NA,NA,NA,NA,NA
258a8,deep,flow.Sequence,5_0_0_0_0_0,NA,NA,completion,7593.7510000002,3016568.4,3016568.621,3016585.854,3024179.605,3024180.9,2023-05-16T16:14:30Z,3024195.76,NULL,Verzögerung,kuchelewa,d,NA,NA,NA,NA,sdf,NA,0,NA,NA,NA,NA,NA,NA,NA,NA,NA,NA,NA,NA,NA,NA,NA,NA,NA,NA,NA
258a8,shallow,flow.Sequence,5_0_0_0_0_1,NA,NA,skipped,NA,3024181.1,NA,NA,3024179.605,3024181.3,2023-05-16T16:14:30Z,3024195.76,NULL,Verzögerung,kuchelewa,d,NA,NA,NA,NA,sdf,NA,0,NA,NA,NA,NA,NA,NA,NA,NA,NA,NA,NA,NA,NA,NA,NA,NA,NA,NA,NA
258a8,task,flow.Sequence,5_0_0_0_0,NA,NA,completion,7593.7510000002,3016568.4,3016568.621,3016585.854,3024179.605,3024181.5,2023-05-16T16:14:30Z,3024195.76,NULL,Verzögerung,kuchelewa,d,NA,NA,NA,NA,sdf,NA,0,NA,NA,NA,NA,NA,NA,NA,NA,NA,NA,NA,NA,NA,NA,NA,NA,NA,NA,NA
258a8,Deep Question,html.Page,5_0_0_0_1_0_0,NA,NA,form submission,2579.2400000002,3024181.6,3024179.605,3024195.76,3026775,3026775.2,2023-05-16T16:14:32Z,3026776.87,NULL,Kultur,utamaduni,d,NA,NA,NA,m,NA,NA,0,NA,NA,NA,NA,NA,NA,NA,NA,NA,NA,NA,NA,NA,NA,NA,NA,NA,NA,NA
258a8,"""Richtig""-Screen",canvas.Screen,5_0_0_0_1_0_1,NA,NA,skipped,NA,3026778.2,NA,NA,3026775,3026778.4,2023-05-16T16:14:32Z,3026776.87,NULL,Kultur,utamaduni,d,NA,NA,NA,NA,sdf,NA,0,NA,NA,NA,NA,NA,NA,NA,NA,NA,NA,NA,NA,NA,NA,NA,NA,NA,NA,NA
258a8,"""Falsch""-Screen",canvas.Screen,5_0_0_0_1_0_2,NA,NA,timeout,4996.2339999997,3026779.7,3026760.355,3026776.87,3031756.605,3031757.6,2023-05-16T16:14:37Z,3031773.104,NULL,Kultur,utamaduni,d,NA,NA,NA,NA,sdf,0,0,NA,NA,NA,NA,NA,NA,NA,NA,NA,NA,NA,NA,NA,NA,NA,NA,NA,NA,NA
258a8,deep,flow.Sequence,5_0_0_0_1_0,NA,NA,completion,7560.8450000002,3024181.6,3024179.605,3024195.76,3031756.605,3031758,2023-05-16T16:14:37Z,3031773.104,NULL,Kultur,utamaduni,d,NA,NA,NA,NA,sdf,NA,0,NA,NA,NA,NA,NA,NA,NA,NA,NA,NA,NA,NA,NA,NA,NA,NA,NA,NA,NA
258a8,shallow,flow.Sequence,5_0_0_0_1_1,NA,NA,skipped,NA,3031758.2,NA,NA,3031756.605,3031758.4,2023-05-16T16:14:37Z,3031773.104,NULL,Kultur,utamaduni,d,NA,NA,NA,NA,sdf,NA,0,NA,NA,NA,NA,NA,NA,NA,NA,NA,NA,NA,NA,NA,NA,NA,NA,NA,NA,NA
258a8,task,flow.Sequence,5_0_0_0_1,NA,NA,completion,7560.8450000002,3024181.6,3024179.605,3024195.76,3031756.605,3031758.5,2023-05-16T16:14:37Z,3031773.104,NULL,Kultur,utamaduni,d,NA,NA,NA,NA,sdf,NA,0,NA,NA,NA,NA,NA,NA,NA,NA,NA,NA,NA,NA,NA,NA,NA,NA,NA,NA,NA
258a8,deep,flow.Sequence,5_0_0_0_2_0,NA,NA,skipped,NA,3031758.7,NA,NA,3031756.605,3031758.8,2023-05-16T16:14:37Z,3031773.104,NULL,Integrität,uadilifu,s,muungano,mtiririko,upunguaji,NA,sdf,NA,0,NA,NA,NA,NA,NA,NA,NA,NA,NA,NA,NA,NA,NA,NA,NA,NA,NA,NA,NA
258a8,Shallow Question,html.Page,5_0_0_0_2_1_0,NA,NA,form submission,2686.1960000121,3031758.9,3031756.605,3031773.104,3034459.3,3034459.5,2023-05-16T16:14:40Z,3034470.545,NULL,Integrität,uadilifu,s,muungano,mtiririko,upunguaji,muungano,NA,NA,0,NA,NA,NA,NA,NA,NA,NA,NA,NA,NA,NA,NA,NA,NA,NA,NA,NA,NA,NA
258a8,"""Richtig""-Screen",canvas.Screen,5_0_0_0_2_1_1,NA,NA,skipped,NA,3034461.2,NA,NA,3034459.3,3034461.3,2023-05-16T16:14:40Z,3034470.545,NULL,Integrität,uadilifu,s,muungano,mtiririko,upunguaji,NA,sdf,NA,0,NA,NA,NA,NA,NA,NA,NA,NA,NA,NA,NA,NA,NA,NA,NA,NA,NA,NA,NA
258a8,"""Falsch""-Screen",canvas.Screen,5_0_0_0_2_1_2,NA,NA,timeout,4996.4339999999,3034461.9,3034453.947,3034470.545,3039450.391,3039451.5,2023-05-16T16:14:45Z,3039466.979,NULL,Integrität,uadilifu,s,muungano,mtiririko,upunguaji,NA,sdf,0,0,NA,NA,NA,NA,NA,NA,NA,NA,NA,NA,NA,NA,NA,NA,NA,NA,NA,NA,NA
258a8,shallow,flow.Sequence,5_0_0_0_2_1,NA,NA,completion,7677.287,3031758.9,3031756.605,3031773.104,3039450.391,3039451.9,2023-05-16T16:14:45Z,3039466.979,NULL,Integrität,uadilifu,s,muungano,mtiririko,upunguaji,NA,sdf,NA,0,NA,NA,NA,NA,NA,NA,NA,NA,NA,NA,NA,NA,NA,NA,NA,NA,NA,NA,NA
258a8,task,flow.Sequence,5_0_0_0_2,NA,NA,completion,7677.287,3031758.6,3031756.605,3031773.104,3039450.391,3039452.2,2023-05-16T16:14:45Z,3039466.979,NULL,Integrität,uadilifu,s,muungano,mtiririko,upunguaji,NA,sdf,NA,0,NA,NA,NA,NA,NA,NA,NA,NA,NA,NA,NA,NA,NA,NA,NA,NA,NA,NA,NA
258a8,deep,flow.Sequence,5_0_0_0_3_0,NA,NA,skipped,NA,3039452.4,NA,NA,3039450.391,3039452.6,2023-05-16T16:14:45Z,3039466.979,NULL,Prüfung,mtihani,s,mkulima,mtizamo,ufumbuzi,NA,sdf,NA,0,NA,NA,NA,NA,NA,NA,NA,NA,NA,NA,NA,NA,NA,NA,NA,NA,NA,NA,NA
258a8,Shallow Question,html.Page,5_0_0_0_3_1_0,NA,NA,form submission,2944.0210000002,3039452.7,3039450.391,3039466.979,3042411,3042411.1,2023-05-16T16:14:48Z,3042414.036,NULL,Prüfung,mtihani,s,mkulima,mtizamo,ufumbuzi,ufumbuzi,NA,NA,0,NA,NA,NA,NA,NA,NA,NA,NA,NA,NA,NA,NA,NA,NA,NA,NA,NA,NA,NA
258a8,"""Richtig""-Screen",canvas.Screen,5_0_0_0_3_1_1,NA,NA,skipped,NA,3042413,NA,NA,3042411,3042413.1,2023-05-16T16:14:48Z,3042414.036,NULL,Prüfung,mtihani,s,mkulima,mtizamo,ufumbuzi,NA,sdf,NA,0,NA,NA,NA,NA,NA,NA,NA,NA,NA,NA,NA,NA,NA,NA,NA,NA,NA,NA,NA
258a8,"""Falsch""-Screen",canvas.Screen,5_0_0_0_3_1_2,NA,NA,timeout,4996.4500000002,3042413.7,3042397.902,3042414.036,3047393.409,3047394.3,2023-05-16T16:14:53Z,3047410.486,NULL,Prüfung,mtihani,s,mkulima,mtizamo,ufumbuzi,NA,sdf,0,0,NA,NA,NA,NA,NA,NA,NA,NA,NA,NA,NA,NA,NA,NA,NA,NA,NA,NA,NA
258a8,shallow,flow.Sequence,5_0_0_0_3_1,NA,NA,completion,7926.4300000002,3039452.6,3039450.391,3039466.979,3047393.409,3047394.7,2023-05-16T16:14:53Z,3047410.486,NULL,Prüfung,mtihani,s,mkulima,mtizamo,ufumbuzi,NA,sdf,NA,0,NA,NA,NA,NA,NA,NA,NA,NA,NA,NA,NA,NA,NA,NA,NA,NA,NA,NA,NA
258a8,task,flow.Sequence,5_0_0_0_3,NA,NA,completion,7926.4300000002,3039452.3,3039450.391,3039466.979,3047393.409,3047394.9,2023-05-16T16:14:53Z,3047410.486,NULL,Prüfung,mtihani,s,mkulima,mtizamo,ufumbuzi,NA,sdf,NA,0,NA,NA,NA,NA,NA,NA,NA,NA,NA,NA,NA,NA,NA,NA,NA,NA,NA,NA,NA
258a8,Deep Question,html.Page,5_0_0_0_4_0_0,NA,NA,form submission,2521.1140000238,3047395.1,3047393.409,3047410.486,3049931.6,3049931.8,2023-05-16T16:14:56Z,3049941.183,NULL,Genehmigung,idhini,d,NA,NA,NA,m,NA,NA,0,NA,NA,NA,NA,NA,NA,NA,NA,NA,NA,NA,NA,NA,NA,NA,NA,NA,NA,NA
258a8,"""Richtig""-Screen",canvas.Screen,5_0_0_0_4_0_1,NA,NA,skipped,NA,3049933.8,NA,NA,3049931.6,3049934,2023-05-16T16:14:56Z,3049941.183,NULL,Genehmigung,idhini,d,NA,NA,NA,NA,sdf,NA,0,NA,NA,NA,NA,NA,NA,NA,NA,NA,NA,NA,NA,NA,NA,NA,NA,NA,NA,NA
258a8,"""Falsch""-Screen",canvas.Screen,5_0_0_0_4_0_2,NA,NA,timeout,4996.0499999998,3049934.5,3049924.586,3049941.183,3054920.971,3054922,2023-05-16T16:15:01Z,3054937.233,NULL,Genehmigung,idhini,d,NA,NA,NA,NA,sdf,0,0,NA,NA,NA,NA,NA,NA,NA,NA,NA,NA,NA,NA,NA,NA,NA,NA,NA,NA,NA
258a8,deep,flow.Sequence,5_0_0_0_4_0,NA,NA,completion,7510.4849999999,3047395,3047393.409,3047410.486,3054920.971,3054922.5,2023-05-16T16:15:01Z,3054937.233,NULL,Genehmigung,idhini,d,NA,NA,NA,NA,sdf,NA,0,NA,NA,NA,NA,NA,NA,NA,NA,NA,NA,NA,NA,NA,NA,NA,NA,NA,NA,NA
258a8,shallow,flow.Sequence,5_0_0_0_4_1,NA,NA,skipped,NA,3054922.7,NA,NA,3054920.971,3054923,2023-05-16T16:15:01Z,3054937.233,NULL,Genehmigung,idhini,d,NA,NA,NA,NA,sdf,NA,0,NA,NA,NA,NA,NA,NA,NA,NA,NA,NA,NA,NA,NA,NA,NA,NA,NA,NA,NA
258a8,task,flow.Sequence,5_0_0_0_4,NA,NA,completion,7510.4849999999,3047395,3047393.409,3047410.486,3054920.971,3054923.1,2023-05-16T16:15:01Z,3054937.233,NULL,Genehmigung,idhini,d,NA,NA,NA,NA,sdf,NA,0,NA,NA,NA,NA,NA,NA,NA,NA,NA,NA,NA,NA,NA,NA,NA,NA,NA,NA,NA
258a8,deep,flow.Sequence,5_0_0_0_5_0,NA,NA,skipped,NA,3054923.3,NA,NA,3054920.971,3054923.5,2023-05-16T16:15:01Z,3054937.233,NULL,Fleisch,mshakiki,s,kizunguzungu,mshikamano,angusho,NA,sdf,NA,0,NA,NA,NA,NA,NA,NA,NA,NA,NA,NA,NA,NA,NA,NA,NA,NA,NA,NA,NA
258a8,Shallow Question,html.Page,5_0_0_0_5_1_0,NA,NA,form submission,2643.6669999762,3054923.6,3054920.971,3054937.233,3057580.9,3057581.1,2023-05-16T16:15:03Z,3057584.869,NULL,Fleisch,mshakiki,s,kizunguzungu,mshikamano,angusho,mshikamano,NA,NA,0,NA,NA,NA,NA,NA,NA,NA,NA,NA,NA,NA,NA,NA,NA,NA,NA,NA,NA,NA
258a8,"""Richtig""-Screen",canvas.Screen,5_0_0_0_5_1_1,NA,NA,skipped,NA,3057583,NA,NA,3057580.9,3057583.2,2023-05-16T16:15:03Z,3057584.869,NULL,Fleisch,mshakiki,s,kizunguzungu,mshikamano,angusho,NA,sdf,NA,0,NA,NA,NA,NA,NA,NA,NA,NA,NA,NA,NA,NA,NA,NA,NA,NA,NA,NA,NA
258a8,"""Falsch""-Screen",canvas.Screen,5_0_0_0_5_1_2,NA,NA,timeout,4995.9050000003,3057583.8,3057568.428,3057584.869,3062564.627,3062565.6,2023-05-16T16:15:08Z,3062580.774,NULL,Fleisch,mshakiki,s,kizunguzungu,mshikamano,angusho,NA,sdf,0,0,NA,NA,NA,NA,NA,NA,NA,NA,NA,NA,NA,NA,NA,NA,NA,NA,NA,NA,NA
258a8,shallow,flow.Sequence,5_0_0_0_5_1,NA,NA,completion,7627.3939999999,3054923.6,3054920.971,3054937.233,3062564.627,3062566,2023-05-16T16:15:08Z,3062580.774,NULL,Fleisch,mshakiki,s,kizunguzungu,mshikamano,angusho,NA,sdf,NA,0,NA,NA,NA,NA,NA,NA,NA,NA,NA,NA,NA,NA,NA,NA,NA,NA,NA,NA,NA
258a8,task,flow.Sequence,5_0_0_0_5,NA,NA,completion,7627.3939999999,3054923.2,3054920.971,3054937.233,3062564.627,3062566.2,2023-05-16T16:15:08Z,3062580.774,NULL,Fleisch,mshakiki,s,kizunguzungu,mshikamano,angusho,NA,sdf,NA,0,NA,NA,NA,NA,NA,NA,NA,NA,NA,NA,NA,NA,NA,NA,NA,NA,NA,NA,NA
258a8,Deep Question,html.Page,5_0_0_0_6_0_0,NA,NA,form submission,2446.6259999759,3062566.6,3062564.627,3062580.774,3065027.4,3065027.6,2023-05-16T16:15:11Z,3065028.734,NULL,Begegnung,kukutana,d,NA,NA,NA,m,NA,NA,0,NA,NA,NA,NA,NA,NA,NA,NA,NA,NA,NA,NA,NA,NA,NA,NA,NA,NA,NA
258a8,"""Richtig""-Screen",canvas.Screen,5_0_0_0_6_0_1,NA,NA,skipped,NA,3065030,NA,NA,3065027.4,3065030.2,2023-05-16T16:15:11Z,3065028.734,NULL,Begegnung,kukutana,d,NA,NA,NA,NA,sdf,NA,0,NA,NA,NA,NA,NA,NA,NA,NA,NA,NA,NA,NA,NA,NA,NA,NA,NA,NA,NA
258a8,"""Falsch""-Screen",canvas.Screen,5_0_0_0_6_0_2,NA,NA,timeout,4996.1359999999,3065030.7,3065012.658,3065028.734,3070008.544,3070009.7,2023-05-16T16:15:16Z,3070024.87,NULL,Begegnung,kukutana,d,NA,NA,NA,NA,sdf,0,0,NA,NA,NA,NA,NA,NA,NA,NA,NA,NA,NA,NA,NA,NA,NA,NA,NA,NA,NA
258a8,deep,flow.Sequence,5_0_0_0_6_0,NA,NA,completion,7427.77,3062566.5,3062564.627,3062580.774,3070008.544,3070010,2023-05-16T16:15:16Z,3070024.87,NULL,Begegnung,kukutana,d,NA,NA,NA,NA,sdf,NA,0,NA,NA,NA,NA,NA,NA,NA,NA,NA,NA,NA,NA,NA,NA,NA,NA,NA,NA,NA
258a8,shallow,flow.Sequence,5_0_0_0_6_1,NA,NA,skipped,NA,3070010.2,NA,NA,3070008.544,3070010.3,2023-05-16T16:15:16Z,3070024.87,NULL,Begegnung,kukutana,d,NA,NA,NA,NA,sdf,NA,0,NA,NA,NA,NA,NA,NA,NA,NA,NA,NA,NA,NA,NA,NA,NA,NA,NA,NA,NA
258a8,task,flow.Sequence,5_0_0_0_6,NA,NA,completion,7427.77,3062566.5,3062564.627,3062580.774,3070008.544,3070010.6,2023-05-16T16:15:16Z,3070024.87,NULL,Begegnung,kukutana,d,NA,NA,NA,NA,sdf,NA,0,NA,NA,NA,NA,NA,NA,NA,NA,NA,NA,NA,NA,NA,NA,NA,NA,NA,NA,NA
258a8,deep,flow.Sequence,5_0_0_0_7_0,NA,NA,skipped,NA,3070010.8,NA,NA,3070008.544,3070011,2023-05-16T16:15:16Z,3070024.87,NULL,Aufstand,ugomaji,s,mazidio,msingi,kujieleza,NA,sdf,NA,0,NA,NA,NA,NA,NA,NA,NA,NA,NA,NA,NA,NA,NA,NA,NA,NA,NA,NA,NA
258a8,Shallow Question,html.Page,5_0_0_0_7_1_0,NA,NA,form submission,3397.2300000237,3070011.1,3070008.544,3070024.87,3073422.1,3073422.3,2023-05-16T16:15:19Z,3073444.587,NULL,Aufstand,ugomaji,s,mazidio,msingi,kujieleza,msingi,NA,NA,0,NA,NA,NA,NA,NA,NA,NA,NA,NA,NA,NA,NA,NA,NA,NA,NA,NA,NA,NA
258a8,"""Richtig""-Screen",canvas.Screen,5_0_0_0_7_1_1,NA,NA,skipped,NA,3073424.2,NA,NA,3073422.1,3073424.3,2023-05-16T16:15:19Z,3073444.587,NULL,Aufstand,ugomaji,s,mazidio,msingi,kujieleza,NA,sdf,NA,0,NA,NA,NA,NA,NA,NA,NA,NA,NA,NA,NA,NA,NA,NA,NA,NA,NA,NA,NA
258a8,"""Falsch""-Screen",canvas.Screen,5_0_0_0_7_1_2,NA,NA,timeout,5006.9180000001,3073424.8,3073405.794,3073444.587,3078434.956,3078436.2,2023-05-16T16:15:24Z,3078451.505,NULL,Aufstand,ugomaji,s,mazidio,msingi,kujieleza,NA,sdf,0,0,NA,NA,NA,NA,NA,NA,NA,NA,NA,NA,NA,NA,NA,NA,NA,NA,NA,NA,NA
258a8,shallow,flow.Sequence,5_0_0_0_7_1,NA,NA,completion,8410.0859999997,3070011,3070008.544,3070024.87,3078434.956,3078436.8,2023-05-16T16:15:24Z,3078451.505,NULL,Aufstand,ugomaji,s,mazidio,msingi,kujieleza,NA,sdf,NA,0,NA,NA,NA,NA,NA,NA,NA,NA,NA,NA,NA,NA,NA,NA,NA,NA,NA,NA,NA
258a8,task,flow.Sequence,5_0_0_0_7,NA,NA,completion,8410.0859999997,3070010.8,3070008.544,3070024.87,3078434.956,3078437.1,2023-05-16T16:15:24Z,3078451.505,NULL,Aufstand,ugomaji,s,mazidio,msingi,kujieleza,NA,sdf,NA,0,NA,NA,NA,NA,NA,NA,NA,NA,NA,NA,NA,NA,NA,NA,NA,NA,NA,NA,NA
258a8,block,flow.Loop,5_0_0_0,NA,NA,completion,61849.102,3016568.4,3016568.621,3016585.854,3078434.956,3078437.3,2023-05-16T16:15:24Z,3078451.505,NULL,NA,NA,NA,NA,NA,NA,NA,sdf,NA,0,NA,NA,NA,NA,NA,NA,NA,NA,NA,NA,NA,NA,NA,NA,NA,NA,NA,NA,NA
