observation,sender,sender_type,sender_id,response,response_action,ended_on,duration,time_run,time_render,time_show,time_end,time_commit,timestamp,time_switch,distractors,german,swahili,enc,distractor1,distractor2,distractor3,response_2,x,correct,x_2,url_vp,url_sess,meta_labjs_version,meta_location,meta_user_agent,meta_platform,meta_language,meta_locale,meta_time_zone,meta_timezone_offset,meta_screen_width,meta_screen_height,meta_scroll_width,meta_scroll_height,meta_window_inner_width,meta_window_inner_height,meta_device_pixel_ratio,meta_labjs_build_flavor,meta_labjs_build_commit
6bfdb,Introduction general,canvas.Screen,0,weiter,keypress(q),response,130160.54800002,936.80000001192,939.863,957.052,131117.60000002,131124.40000004,2023-05-17T15:53:45Z,131133.115,NULL,NA,NA,NA,NA,NA,NA,NA,NA,NA,NA,213,3,20.2.4,https://neurocog.fernuni.ch/studies/vweber/sfink/encoding_immediate/index.html?vp=213&sess=3,"Mozilla/5.0 (Windows NT 10.0; Win64; x64) AppleWebKit/537.36 (KHTML, like Gecko) Chrome/113.0.0.0 Safari/537.36",Win32,de-CH,de,Europe/Zurich,-120,1536,864,1536,706,1536,754,1.25,production,f5b4a49f956347addd546a832a3327688c2c0fef
6bfdb,Introduction practice,canvas.Screen,1_0,NA,keypress(Space),response,16649.985000024,131124.80000001,131109.33,131133.115,147783.10000002,147784.40000004,2023-05-17T15:54:01Z,147803.046,NULL,NA,NA,NA,NA,NA,NA,NA,NA,NA,NA,NA,NA,NA,NA,NA,NA,NA,NA,NA,NA,NA,NA,NA,NA,NA,NA,NA,NA,NA
6bfdb,Deep Question,html.Page,1_1_0_0_0,NA,NA,form submission,8292.8540000358,147784.80000001,147784.687,147803.046,156095.90000004,156096.10000002,2023-05-17T15:54:10Z,156112.716,"c(""distractor1"", ""distractor2"", ""distractor3"")",Gesundheit,salama,d,NA,NA,NA,jj,NA,NA,NA,NA,NA,NA,NA,NA,NA,NA,NA,NA,NA,NA,NA,NA,NA,NA,NA,NA,NA,NA
6bfdb,"""Richtig""-Screen",canvas.Screen,1_1_0_0_1,NA,NA,skipped,NA,156097.60000002,NA,NA,156095.90000004,156097.69999999,2023-05-17T15:54:10Z,156112.716,"c(""distractor1"", ""distractor2"", ""distractor3"")",Gesundheit,salama,d,NA,NA,NA,NA,NA,NA,NA,NA,NA,NA,NA,NA,NA,NA,NA,NA,NA,NA,NA,NA,NA,NA,NA,NA,NA,NA
6bfdb,"""Falsch""-Screen",canvas.Screen,1_1_0_0_2,NA,NA,timeout,4995.753,156098.69999999,156079.229,156112.716,161091.406,161093,2023-05-17T15:54:15Z,161108.469,"c(""distractor1"", ""distractor2"", ""distractor3"")",Gesundheit,salama,d,NA,NA,NA,NA,NA,0,NA,NA,NA,NA,NA,NA,NA,NA,NA,NA,NA,NA,NA,NA,NA,NA,NA,NA,NA,NA
6bfdb,deep,flow.Sequence,1_1_0_0,NA,NA,completion,13288.36,147784.80000001,147784.687,147803.046,161091.406,161093.19999999,2023-05-17T15:54:15Z,161108.469,"c(""distractor1"", ""distractor2"", ""distractor3"")",Gesundheit,salama,d,NA,NA,NA,NA,NA,NA,NA,NA,NA,NA,NA,NA,NA,NA,NA,NA,NA,NA,NA,NA,NA,NA,NA,NA,NA,NA
6bfdb,shallow,flow.Sequence,1_1_0_1,NA,NA,skipped,NA,161093.30000001,NA,NA,161091.406,161093.30000001,2023-05-17T15:54:15Z,161108.469,"c(""distractor1"", ""distractor2"", ""distractor3"")",Gesundheit,salama,d,NA,NA,NA,NA,NA,NA,NA,NA,NA,NA,NA,NA,NA,NA,NA,NA,NA,NA,NA,NA,NA,NA,NA,NA,NA,NA
6bfdb,task,flow.Sequence,1_1_0,NA,NA,completion,13288.36,147784.80000001,147784.687,147803.046,161091.406,161093.40000004,2023-05-17T15:54:15Z,161108.469,"c(""distractor1"", ""distractor2"", ""distractor3"")",Gesundheit,salama,d,NA,NA,NA,NA,NA,NA,NA,NA,NA,NA,NA,NA,NA,NA,NA,NA,NA,NA,NA,NA,NA,NA,NA,NA,NA,NA
6bfdb,deep,flow.Sequence,1_1_1_0,NA,NA,skipped,NA,161093.40000004,NA,NA,161091.406,161093.5,2023-05-17T15:54:15Z,161108.469,"c(""distractor1"", ""distractor2"", ""distractor3"")",Rückhalt,msaada,s,muhula,auwali,kiwimbe,NA,NA,NA,NA,NA,NA,NA,NA,NA,NA,NA,NA,NA,NA,NA,NA,NA,NA,NA,NA,NA,NA,NA
6bfdb,Shallow Question,html.Page,1_1_1_1_0,NA,NA,form submission,16957.631000024,161093.69999999,161091.406,161108.469,178066.10000002,178066.30000001,2023-05-17T15:54:32Z,178077.611,"c(""distractor1"", ""distractor2"", ""distractor3"")",Rückhalt,msaada,s,muhula,auwali,kiwimbe,kiwimbe,NA,NA,NA,NA,NA,NA,NA,NA,NA,NA,NA,NA,NA,NA,NA,NA,NA,NA,NA,NA,NA,NA
6bfdb,"""Richtig""-Screen",canvas.Screen,1_1_1_1_1,NA,NA,skipped,NA,178068.30000001,NA,NA,178066.10000002,178068.60000002,2023-05-17T15:54:32Z,178077.611,"c(""distractor1"", ""distractor2"", ""distractor3"")",Rückhalt,msaada,s,muhula,auwali,kiwimbe,NA,NA,NA,NA,NA,NA,NA,NA,NA,NA,NA,NA,NA,NA,NA,NA,NA,NA,NA,NA,NA,NA,NA
6bfdb,"""Falsch""-Screen",canvas.Screen,1_1_1_1_2,NA,NA,timeout,4996.241,178069.30000001,178061.29,178077.611,183057.178,183058.30000001,2023-05-17T15:54:36Z,183073.852,"c(""distractor1"", ""distractor2"", ""distractor3"")",Rückhalt,msaada,s,muhula,auwali,kiwimbe,NA,NA,0,NA,NA,NA,NA,NA,NA,NA,NA,NA,NA,NA,NA,NA,NA,NA,NA,NA,NA,NA,NA
6bfdb,shallow,flow.Sequence,1_1_1_1,NA,NA,completion,21948.709,161093.60000002,161091.406,161108.469,183057.178,183058.80000001,2023-05-17T15:54:36Z,183073.852,"c(""distractor1"", ""distractor2"", ""distractor3"")",Rückhalt,msaada,s,muhula,auwali,kiwimbe,NA,NA,NA,NA,NA,NA,NA,NA,NA,NA,NA,NA,NA,NA,NA,NA,NA,NA,NA,NA,NA,NA,NA
6bfdb,task,flow.Sequence,1_1_1,NA,NA,completion,21948.709,161093.40000004,161091.406,161108.469,183057.178,183059.30000001,2023-05-17T15:54:36Z,183073.852,"c(""distractor1"", ""distractor2"", ""distractor3"")",Rückhalt,msaada,s,muhula,auwali,kiwimbe,NA,NA,NA,NA,NA,NA,NA,NA,NA,NA,NA,NA,NA,NA,NA,NA,NA,NA,NA,NA,NA,NA,NA
6bfdb,Deep Question,html.Page,1_1_2_0_0,NA,NA,form submission,3429.3479999881,183059.80000001,183057.178,183073.852,186503.19999999,186503.5,2023-05-17T15:54:40Z,186520.762,"c(""distractor1"", ""distractor2"", ""distractor3"")",Qualität,mtindo,d,NA,NA,NA,jj,NA,NA,NA,NA,NA,NA,NA,NA,NA,NA,NA,NA,NA,NA,NA,NA,NA,NA,NA,NA,NA,NA
6bfdb,"""Richtig""-Screen",canvas.Screen,1_1_2_0_1,NA,NA,skipped,NA,186505.60000002,NA,NA,186503.19999999,186505.80000001,2023-05-17T15:54:40Z,186520.762,"c(""distractor1"", ""distractor2"", ""distractor3"")",Qualität,mtindo,d,NA,NA,NA,NA,NA,NA,NA,NA,NA,NA,NA,NA,NA,NA,NA,NA,NA,NA,NA,NA,NA,NA,NA,NA,NA,NA
6bfdb,"""Falsch""-Screen",canvas.Screen,1_1_2_0_2,NA,NA,timeout,4996.009,186506.5,186487.54,186520.762,191499.73,191501.19999999,2023-05-17T15:54:45Z,191516.771,"c(""distractor1"", ""distractor2"", ""distractor3"")",Qualität,mtindo,d,NA,NA,NA,NA,NA,0,NA,NA,NA,NA,NA,NA,NA,NA,NA,NA,NA,NA,NA,NA,NA,NA,NA,NA,NA,NA
6bfdb,deep,flow.Sequence,1_1_2_0,NA,NA,completion,8425.878,183059.60000002,183057.178,183073.852,191499.73,191501.60000002,2023-05-17T15:54:45Z,191516.771,"c(""distractor1"", ""distractor2"", ""distractor3"")",Qualität,mtindo,d,NA,NA,NA,NA,NA,NA,NA,NA,NA,NA,NA,NA,NA,NA,NA,NA,NA,NA,NA,NA,NA,NA,NA,NA,NA,NA
6bfdb,shallow,flow.Sequence,1_1_2_1,NA,NA,skipped,NA,191501.80000001,NA,NA,191499.73,191501.90000004,2023-05-17T15:54:45Z,191516.771,"c(""distractor1"", ""distractor2"", ""distractor3"")",Qualität,mtindo,d,NA,NA,NA,NA,NA,NA,NA,NA,NA,NA,NA,NA,NA,NA,NA,NA,NA,NA,NA,NA,NA,NA,NA,NA,NA,NA
6bfdb,task,flow.Sequence,1_1_2,NA,NA,completion,8425.878,183059.60000002,183057.178,183073.852,191499.73,191502.30000001,2023-05-17T15:54:45Z,191516.771,"c(""distractor1"", ""distractor2"", ""distractor3"")",Qualität,mtindo,d,NA,NA,NA,NA,NA,NA,NA,NA,NA,NA,NA,NA,NA,NA,NA,NA,NA,NA,NA,NA,NA,NA,NA,NA,NA,NA
6bfdb,deep,flow.Sequence,1_1_3_0,NA,NA,skipped,NA,191502.40000004,NA,NA,191499.73,191502.60000002,2023-05-17T15:54:45Z,191516.771,"c(""distractor1"", ""distractor2"", ""distractor3"")",Kritik,lawama,s,dereva,nafasi,mawazo,NA,NA,NA,NA,NA,NA,NA,NA,NA,NA,NA,NA,NA,NA,NA,NA,NA,NA,NA,NA,NA,NA,NA
6bfdb,Shallow Question,html.Page,1_1_3_1_0,NA,NA,form submission,5452.6290000358,191502.69999999,191499.73,191516.771,196969.40000004,196969.60000002,2023-05-17T15:54:50Z,196978.764,"c(""distractor1"", ""distractor2"", ""distractor3"")",Kritik,lawama,s,dereva,nafasi,mawazo,lawama,NA,NA,NA,NA,NA,NA,NA,NA,NA,NA,NA,NA,NA,NA,NA,NA,NA,NA,NA,NA,NA,NA
6bfdb,"""Richtig""-Screen",canvas.Screen,1_1_3_1_1,NA,NA,timeout,4995.652,196971.30000001,196962.395,196978.764,201958.102,201959.19999999,2023-05-17T15:54:55Z,201974.416,"c(""distractor1"", ""distractor2"", ""distractor3"")",Kritik,lawama,s,dereva,nafasi,mawazo,NA,NA,1,NA,NA,NA,NA,NA,NA,NA,NA,NA,NA,NA,NA,NA,NA,NA,NA,NA,NA,NA,NA
6bfdb,"""Falsch""-Screen",canvas.Screen,1_1_3_1_2,NA,NA,skipped,NA,201963.10000002,NA,NA,201958.102,201963.19999999,2023-05-17T15:54:55Z,201974.416,"c(""distractor1"", ""distractor2"", ""distractor3"")",Kritik,lawama,s,dereva,nafasi,mawazo,NA,NA,NA,NA,NA,NA,NA,NA,NA,NA,NA,NA,NA,NA,NA,NA,NA,NA,NA,NA,NA,NA,NA
6bfdb,shallow,flow.Sequence,1_1_3_1,NA,NA,completion,10441.331,191502.69999999,191499.73,191516.771,201958.102,201963.30000001,2023-05-17T15:54:55Z,201974.416,"c(""distractor1"", ""distractor2"", ""distractor3"")",Kritik,lawama,s,dereva,nafasi,mawazo,NA,NA,NA,NA,NA,NA,NA,NA,NA,NA,NA,NA,NA,NA,NA,NA,NA,NA,NA,NA,NA,NA,NA
6bfdb,task,flow.Sequence,1_1_3,NA,NA,completion,10441.331,191502.40000004,191499.73,191516.771,201958.102,201963.40000004,2023-05-17T15:54:55Z,201974.416,"c(""distractor1"", ""distractor2"", ""distractor3"")",Kritik,lawama,s,dereva,nafasi,mawazo,NA,NA,NA,NA,NA,NA,NA,NA,NA,NA,NA,NA,NA,NA,NA,NA,NA,NA,NA,NA,NA,NA,NA
6bfdb,Deep Question,html.Page,1_1_4_0_0,NA,NA,form submission,2023.3840000119,201963.40000004,201958.102,201974.416,203997.80000001,203997.90000004,2023-05-17T15:54:57Z,204006.041,"c(""distractor1"", ""distractor2"", ""distractor3"")",Schatten,kivuli,d,NA,NA,NA,jj,NA,NA,NA,NA,NA,NA,NA,NA,NA,NA,NA,NA,NA,NA,NA,NA,NA,NA,NA,NA,NA,NA
6bfdb,"""Richtig""-Screen",canvas.Screen,1_1_4_0_1,NA,NA,skipped,NA,203998.60000002,NA,NA,203997.80000001,203998.80000001,2023-05-17T15:54:57Z,204006.041,"c(""distractor1"", ""distractor2"", ""distractor3"")",Schatten,kivuli,d,NA,NA,NA,NA,NA,NA,NA,NA,NA,NA,NA,NA,NA,NA,NA,NA,NA,NA,NA,NA,NA,NA,NA,NA,NA,NA
6bfdb,"""Falsch""-Screen",canvas.Screen,1_1_4_0_2,NA,NA,timeout,4996.397,203999.40000004,203989.638,204006.041,208985.351,208987.90000004,2023-05-17T15:55:02Z,209002.438,"c(""distractor1"", ""distractor2"", ""distractor3"")",Schatten,kivuli,d,NA,NA,NA,NA,NA,0,NA,NA,NA,NA,NA,NA,NA,NA,NA,NA,NA,NA,NA,NA,NA,NA,NA,NA,NA,NA
6bfdb,deep,flow.Sequence,1_1_4_0,NA,NA,completion,7010.935,201963.40000004,201958.102,201974.416,208985.351,208988.30000001,2023-05-17T15:55:02Z,209002.438,"c(""distractor1"", ""distractor2"", ""distractor3"")",Schatten,kivuli,d,NA,NA,NA,NA,NA,NA,NA,NA,NA,NA,NA,NA,NA,NA,NA,NA,NA,NA,NA,NA,NA,NA,NA,NA,NA,NA
6bfdb,shallow,flow.Sequence,1_1_4_1,NA,NA,skipped,NA,208988.40000004,NA,NA,208985.351,208988.60000002,2023-05-17T15:55:02Z,209002.438,"c(""distractor1"", ""distractor2"", ""distractor3"")",Schatten,kivuli,d,NA,NA,NA,NA,NA,NA,NA,NA,NA,NA,NA,NA,NA,NA,NA,NA,NA,NA,NA,NA,NA,NA,NA,NA,NA,NA
6bfdb,task,flow.Sequence,1_1_4,NA,NA,completion,7010.935,201963.40000004,201958.102,201974.416,208985.351,208988.90000004,2023-05-17T15:55:02Z,209002.438,"c(""distractor1"", ""distractor2"", ""distractor3"")",Schatten,kivuli,d,NA,NA,NA,NA,NA,NA,NA,NA,NA,NA,NA,NA,NA,NA,NA,NA,NA,NA,NA,NA,NA,NA,NA,NA,NA,NA
6bfdb,deep,flow.Sequence,1_1_5_0,NA,NA,skipped,NA,208989.10000002,NA,NA,208985.351,208989.19999999,2023-05-17T15:55:02Z,209002.438,"c(""distractor1"", ""distractor2"", ""distractor3"")",Gegenwart,hadhara,s,katiba,jokofu,mikopo,NA,NA,NA,NA,NA,NA,NA,NA,NA,NA,NA,NA,NA,NA,NA,NA,NA,NA,NA,NA,NA,NA,NA
6bfdb,Shallow Question,html.Page,1_1_5_1_0,NA,NA,form submission,3353.1620000238,208989.5,208985.351,209002.438,212355.60000002,212355.80000001,2023-05-17T15:55:06Z,212366.01,"c(""distractor1"", ""distractor2"", ""distractor3"")",Gegenwart,hadhara,s,katiba,jokofu,mikopo,katiba,NA,NA,NA,NA,NA,NA,NA,NA,NA,NA,NA,NA,NA,NA,NA,NA,NA,NA,NA,NA,NA,NA
6bfdb,"""Richtig""-Screen",canvas.Screen,1_1_5_1_1,NA,NA,skipped,NA,212357.60000002,NA,NA,212355.60000002,212357.69999999,2023-05-17T15:55:06Z,212366.01,"c(""distractor1"", ""distractor2"", ""distractor3"")",Gegenwart,hadhara,s,katiba,jokofu,mikopo,NA,NA,NA,NA,NA,NA,NA,NA,NA,NA,NA,NA,NA,NA,NA,NA,NA,NA,NA,NA,NA,NA,NA
6bfdb,"""Falsch""-Screen",canvas.Screen,1_1_5_1_2,NA,NA,timeout,4996.171,212358.30000001,212349.391,212366.01,217345.65,217346.69999999,2023-05-17T15:55:11Z,217362.181,"c(""distractor1"", ""distractor2"", ""distractor3"")",Gegenwart,hadhara,s,katiba,jokofu,mikopo,NA,NA,0,NA,NA,NA,NA,NA,NA,NA,NA,NA,NA,NA,NA,NA,NA,NA,NA,NA,NA,NA,NA
6bfdb,shallow,flow.Sequence,1_1_5_1,NA,NA,completion,8343.212,208989.40000004,208985.351,209002.438,217345.65,217347.10000002,2023-05-17T15:55:11Z,217362.181,"c(""distractor1"", ""distractor2"", ""distractor3"")",Gegenwart,hadhara,s,katiba,jokofu,mikopo,NA,NA,NA,NA,NA,NA,NA,NA,NA,NA,NA,NA,NA,NA,NA,NA,NA,NA,NA,NA,NA,NA,NA
6bfdb,task,flow.Sequence,1_1_5,NA,NA,completion,8343.212,208989,208985.351,209002.438,217345.65,217347.5,2023-05-17T15:55:11Z,217362.181,"c(""distractor1"", ""distractor2"", ""distractor3"")",Gegenwart,hadhara,s,katiba,jokofu,mikopo,NA,NA,NA,NA,NA,NA,NA,NA,NA,NA,NA,NA,NA,NA,NA,NA,NA,NA,NA,NA,NA,NA,NA
6bfdb,block,flow.Loop,1_1,NA,NA,completion,69542.604,147784.69999999,147784.687,147803.046,217345.65,217347.90000004,2023-05-17T15:55:11Z,217362.181,"c(""distractor1"", ""distractor2"", ""distractor3"")",NA,NA,NA,NA,NA,NA,NA,NA,NA,NA,NA,NA,NA,NA,NA,NA,NA,NA,NA,NA,NA,NA,NA,NA,NA,NA,NA,NA,NA
6bfdb,Practice,flow.Sequence,1,NA,NA,completion,86212.535,131124.80000001,131109.33,131133.115,217345.65,217348.30000001,2023-05-17T15:55:11Z,217362.181,NULL,NA,NA,NA,NA,NA,NA,NA,NA,NA,NA,NA,NA,NA,NA,NA,NA,NA,NA,NA,NA,NA,NA,NA,NA,NA,NA,NA,NA,NA
6bfdb,Experiment start,canvas.Screen,2,weiter,keypress(q),response,96386.419000024,217348.5,217345.65,217362.181,313748.60000002,313750.10000002,2023-05-17T15:56:47Z,313832.24,NULL,NA,NA,NA,NA,NA,NA,NA,NA,NA,NA,NA,NA,NA,NA,NA,NA,NA,NA,NA,NA,NA,NA,NA,NA,NA,NA,NA,NA,NA
6bfdb,deep,flow.Sequence,3_0_0_0_0_0,NA,NA,skipped,NA,313826.90000004,NA,NA,313748.60000002,313827.10000002,2023-05-17T15:56:47Z,313832.24,NULL,Toleranz,kuvumiliana,s,maombolezo,ujasusi,mchekeshaji,NA,sdf,NA,0,NA,NA,NA,NA,NA,NA,NA,NA,NA,NA,NA,NA,NA,NA,NA,NA,NA,NA,NA
6bfdb,Shallow Question,html.Page,3_0_0_0_0_1_0,NA,NA,form submission,16642.76,313827.10000002,313827.377,313832.24,330475,330475.10000002,2023-05-17T15:57:04Z,330485.43,NULL,Toleranz,kuvumiliana,s,maombolezo,ujasusi,mchekeshaji,kuvumiliana,NA,NA,0,NA,NA,NA,NA,NA,NA,NA,NA,NA,NA,NA,NA,NA,NA,NA,NA,NA,NA,NA
6bfdb,"""Richtig""-Screen",canvas.Screen,3_0_0_0_0_1_1,NA,NA,timeout,4995.733,330477,330469.002,330485.43,335465.066,335466,2023-05-17T15:57:09Z,335481.163,NULL,Toleranz,kuvumiliana,s,maombolezo,ujasusi,mchekeshaji,NA,sdf,1,0,NA,NA,NA,NA,NA,NA,NA,NA,NA,NA,NA,NA,NA,NA,NA,NA,NA,NA,NA
6bfdb,"""Falsch""-Screen",canvas.Screen,3_0_0_0_0_1_2,NA,NA,skipped,NA,335471.30000001,NA,NA,335465.066,335471.60000002,2023-05-17T15:57:09Z,335481.163,NULL,Toleranz,kuvumiliana,s,maombolezo,ujasusi,mchekeshaji,NA,sdf,NA,0,NA,NA,NA,NA,NA,NA,NA,NA,NA,NA,NA,NA,NA,NA,NA,NA,NA,NA,NA
6bfdb,shallow,flow.Sequence,3_0_0_0_0_1,NA,NA,completion,21632.826,313827.10000002,313827.377,313832.24,335465.066,335471.90000004,2023-05-17T15:57:09Z,335481.163,NULL,Toleranz,kuvumiliana,s,maombolezo,ujasusi,mchekeshaji,NA,sdf,NA,0,NA,NA,NA,NA,NA,NA,NA,NA,NA,NA,NA,NA,NA,NA,NA,NA,NA,NA,NA
6bfdb,task,flow.Sequence,3_0_0_0_0,NA,NA,completion,21632.826,313826.90000004,313827.377,313832.24,335465.066,335472.19999999,2023-05-17T15:57:09Z,335481.163,NULL,Toleranz,kuvumiliana,s,maombolezo,ujasusi,mchekeshaji,NA,sdf,NA,0,NA,NA,NA,NA,NA,NA,NA,NA,NA,NA,NA,NA,NA,NA,NA,NA,NA,NA,NA
6bfdb,deep,flow.Sequence,3_0_0_0_1_0,NA,NA,skipped,NA,335472.30000001,NA,NA,335465.066,335472.40000004,2023-05-17T15:57:09Z,335481.163,NULL,Begegnung,kukutana,s,mmasihiya,mpiganaji,husiano,NA,sdf,NA,0,NA,NA,NA,NA,NA,NA,NA,NA,NA,NA,NA,NA,NA,NA,NA,NA,NA,NA,NA
6bfdb,Shallow Question,html.Page,3_0_0_0_1_1_0,NA,NA,form submission,18618.337,335472.60000002,335465.066,335481.163,354099.5,354099.60000002,2023-05-17T15:57:28Z,354116.367,NULL,Begegnung,kukutana,s,mmasihiya,mpiganaji,husiano,mpiganaji,NA,NA,0,NA,NA,NA,NA,NA,NA,NA,NA,NA,NA,NA,NA,NA,NA,NA,NA,NA,NA,NA
6bfdb,"""Richtig""-Screen",canvas.Screen,3_0_0_0_1_1_1,NA,NA,skipped,NA,354102,NA,NA,354099.5,354102.19999999,2023-05-17T15:57:28Z,354116.367,NULL,Begegnung,kukutana,s,mmasihiya,mpiganaji,husiano,NA,sdf,NA,0,NA,NA,NA,NA,NA,NA,NA,NA,NA,NA,NA,NA,NA,NA,NA,NA,NA,NA,NA
6bfdb,"""Falsch""-Screen",canvas.Screen,3_0_0_0_1_1_2,NA,NA,timeout,4995.872,354102.80000001,354082.341,354116.367,359095.585,359096.60000002,2023-05-17T15:57:33Z,359112.239,NULL,Begegnung,kukutana,s,mmasihiya,mpiganaji,husiano,NA,sdf,0,0,NA,NA,NA,NA,NA,NA,NA,NA,NA,NA,NA,NA,NA,NA,NA,NA,NA,NA,NA
6bfdb,shallow,flow.Sequence,3_0_0_0_1_1,NA,NA,completion,23614.422,335472.60000002,335465.066,335481.163,359095.585,359097.10000002,2023-05-17T15:57:33Z,359112.239,NULL,Begegnung,kukutana,s,mmasihiya,mpiganaji,husiano,NA,sdf,NA,0,NA,NA,NA,NA,NA,NA,NA,NA,NA,NA,NA,NA,NA,NA,NA,NA,NA,NA,NA
6bfdb,task,flow.Sequence,3_0_0_0_1,NA,NA,completion,23614.422,335472.19999999,335465.066,335481.163,359095.585,359097.19999999,2023-05-17T15:57:33Z,359112.239,NULL,Begegnung,kukutana,s,mmasihiya,mpiganaji,husiano,NA,sdf,NA,0,NA,NA,NA,NA,NA,NA,NA,NA,NA,NA,NA,NA,NA,NA,NA,NA,NA,NA,NA
6bfdb,Deep Question,html.Page,3_0_0_0_2_0_0,NA,NA,form submission,4931.4609999881,359097.5,359095.585,359112.239,364043.69999999,364043.90000004,2023-05-17T15:57:37Z,364057.567,NULL,Inhalt,yaliyomo,d,NA,NA,NA,j,NA,NA,0,NA,NA,NA,NA,NA,NA,NA,NA,NA,NA,NA,NA,NA,NA,NA,NA,NA,NA,NA
6bfdb,"""Richtig""-Screen",canvas.Screen,3_0_0_0_2_0_1,NA,NA,skipped,NA,364046.30000001,NA,NA,364043.69999999,364046.5,2023-05-17T15:57:37Z,364057.567,NULL,Inhalt,yaliyomo,d,NA,NA,NA,NA,sdf,NA,0,NA,NA,NA,NA,NA,NA,NA,NA,NA,NA,NA,NA,NA,NA,NA,NA,NA,NA,NA
6bfdb,"""Falsch""-Screen",canvas.Screen,3_0_0_0_2_0_2,NA,NA,timeout,4996.644,364047.30000001,364041.431,364057.567,369037.075,369037.60000002,2023-05-17T15:57:42Z,369054.211,NULL,Inhalt,yaliyomo,d,NA,NA,NA,NA,sdf,0,0,NA,NA,NA,NA,NA,NA,NA,NA,NA,NA,NA,NA,NA,NA,NA,NA,NA,NA,NA
6bfdb,deep,flow.Sequence,3_0_0_0_2_0,NA,NA,completion,9924.836,359097.5,359095.585,359112.239,369037.075,369037.80000001,2023-05-17T15:57:42Z,369054.211,NULL,Inhalt,yaliyomo,d,NA,NA,NA,NA,sdf,NA,0,NA,NA,NA,NA,NA,NA,NA,NA,NA,NA,NA,NA,NA,NA,NA,NA,NA,NA,NA
6bfdb,shallow,flow.Sequence,3_0_0_0_2_1,NA,NA,skipped,NA,369037.80000001,NA,NA,369037.075,369037.90000004,2023-05-17T15:57:42Z,369054.211,NULL,Inhalt,yaliyomo,d,NA,NA,NA,NA,sdf,NA,0,NA,NA,NA,NA,NA,NA,NA,NA,NA,NA,NA,NA,NA,NA,NA,NA,NA,NA,NA
6bfdb,task,flow.Sequence,3_0_0_0_2,NA,NA,completion,9924.836,359097.40000004,359095.585,359112.239,369037.075,369038,2023-05-17T15:57:42Z,369054.211,NULL,Inhalt,yaliyomo,d,NA,NA,NA,NA,sdf,NA,0,NA,NA,NA,NA,NA,NA,NA,NA,NA,NA,NA,NA,NA,NA,NA,NA,NA,NA,NA
6bfdb,deep,flow.Sequence,3_0_0_0_3_0,NA,NA,skipped,NA,369038.10000002,NA,NA,369037.075,369038.10000002,2023-05-17T15:57:42Z,369054.211,NULL,Schlange,foleni,s,uvumilivu,uteuzi,muuzaji,NA,sdf,NA,0,NA,NA,NA,NA,NA,NA,NA,NA,NA,NA,NA,NA,NA,NA,NA,NA,NA,NA,NA
6bfdb,Shallow Question,html.Page,3_0_0_0_3_1_0,NA,NA,form submission,8680.289,369038.10000002,369037.075,369054.211,377734.5,377734.69999999,2023-05-17T15:57:51Z,377746.732,NULL,Schlange,foleni,s,uvumilivu,uteuzi,muuzaji,foleni,NA,NA,0,NA,NA,NA,NA,NA,NA,NA,NA,NA,NA,NA,NA,NA,NA,NA,NA,NA,NA,NA
6bfdb,"""Richtig""-Screen",canvas.Screen,3_0_0_0_3_1_1,NA,NA,timeout,4996.037,377736.60000002,377729.748,377746.732,382726.166,382726.90000004,2023-05-17T15:57:56Z,382742.769,NULL,Schlange,foleni,s,uvumilivu,uteuzi,muuzaji,NA,sdf,1,0,NA,NA,NA,NA,NA,NA,NA,NA,NA,NA,NA,NA,NA,NA,NA,NA,NA,NA,NA
6bfdb,"""Falsch""-Screen",canvas.Screen,3_0_0_0_3_1_2,NA,NA,skipped,NA,382729.80000001,NA,NA,382726.166,382730,2023-05-17T15:57:56Z,382742.769,NULL,Schlange,foleni,s,uvumilivu,uteuzi,muuzaji,NA,sdf,NA,0,NA,NA,NA,NA,NA,NA,NA,NA,NA,NA,NA,NA,NA,NA,NA,NA,NA,NA,NA
6bfdb,shallow,flow.Sequence,3_0_0_0_3_1,NA,NA,completion,13671.955,369038.10000002,369037.075,369054.211,382726.166,382730.10000002,2023-05-17T15:57:56Z,382742.769,NULL,Schlange,foleni,s,uvumilivu,uteuzi,muuzaji,NA,sdf,NA,0,NA,NA,NA,NA,NA,NA,NA,NA,NA,NA,NA,NA,NA,NA,NA,NA,NA,NA,NA
6bfdb,task,flow.Sequence,3_0_0_0_3,NA,NA,completion,13671.955,369038.10000002,369037.075,369054.211,382726.166,382730.19999999,2023-05-17T15:57:56Z,382742.769,NULL,Schlange,foleni,s,uvumilivu,uteuzi,muuzaji,NA,sdf,NA,0,NA,NA,NA,NA,NA,NA,NA,NA,NA,NA,NA,NA,NA,NA,NA,NA,NA,NA,NA
6bfdb,Deep Question,html.Page,3_0_0_0_4_0_0,NA,NA,form submission,5294.731,382730.40000004,382726.166,382742.769,388037.5,388037.69999999,2023-05-17T15:58:01Z,388054.987,NULL,Integrität,uadilifu,d,NA,NA,NA,i,NA,NA,0,NA,NA,NA,NA,NA,NA,NA,NA,NA,NA,NA,NA,NA,NA,NA,NA,NA,NA,NA
6bfdb,"""Richtig""-Screen",canvas.Screen,3_0_0_0_4_0_1,NA,NA,skipped,NA,388039.5,NA,NA,388037.5,388039.69999999,2023-05-17T15:58:01Z,388054.987,NULL,Integrität,uadilifu,d,NA,NA,NA,NA,sdf,NA,0,NA,NA,NA,NA,NA,NA,NA,NA,NA,NA,NA,NA,NA,NA,NA,NA,NA,NA,NA
6bfdb,"""Falsch""-Screen",canvas.Screen,3_0_0_0_4_0_2,NA,NA,timeout,4995.409,388040.5,388021.796,388054.987,393034.321,393035.30000001,2023-05-17T15:58:06Z,393050.396,NULL,Integrität,uadilifu,d,NA,NA,NA,NA,sdf,0,0,NA,NA,NA,NA,NA,NA,NA,NA,NA,NA,NA,NA,NA,NA,NA,NA,NA,NA,NA
6bfdb,deep,flow.Sequence,3_0_0_0_4_0,NA,NA,completion,10291.552,382730.30000001,382726.166,382742.769,393034.321,393035.90000004,2023-05-17T15:58:06Z,393050.396,NULL,Integrität,uadilifu,d,NA,NA,NA,NA,sdf,NA,0,NA,NA,NA,NA,NA,NA,NA,NA,NA,NA,NA,NA,NA,NA,NA,NA,NA,NA,NA
6bfdb,shallow,flow.Sequence,3_0_0_0_4_1,NA,NA,skipped,NA,393036.10000002,NA,NA,393034.321,393036.19999999,2023-05-17T15:58:06Z,393050.396,NULL,Integrität,uadilifu,d,NA,NA,NA,NA,sdf,NA,0,NA,NA,NA,NA,NA,NA,NA,NA,NA,NA,NA,NA,NA,NA,NA,NA,NA,NA,NA
6bfdb,task,flow.Sequence,3_0_0_0_4,NA,NA,completion,10291.552,382730.30000001,382726.166,382742.769,393034.321,393036.5,2023-05-17T15:58:06Z,393050.396,NULL,Integrität,uadilifu,d,NA,NA,NA,NA,sdf,NA,0,NA,NA,NA,NA,NA,NA,NA,NA,NA,NA,NA,NA,NA,NA,NA,NA,NA,NA,NA
6bfdb,Deep Question,html.Page,3_0_0_0_5_0_0,NA,NA,form submission,3881.0040000358,393036.69999999,393034.321,393050.396,396931.40000004,396931.60000002,2023-05-17T15:58:10Z,396947.862,NULL,Vermutung,udhanifu,d,NA,NA,NA,i,NA,NA,0,NA,NA,NA,NA,NA,NA,NA,NA,NA,NA,NA,NA,NA,NA,NA,NA,NA,NA,NA
6bfdb,"""Richtig""-Screen",canvas.Screen,3_0_0_0_5_0_1,NA,NA,skipped,NA,396933.69999999,NA,NA,396931.40000004,396933.90000004,2023-05-17T15:58:10Z,396947.862,NULL,Vermutung,udhanifu,d,NA,NA,NA,NA,sdf,NA,0,NA,NA,NA,NA,NA,NA,NA,NA,NA,NA,NA,NA,NA,NA,NA,NA,NA,NA,NA
6bfdb,"""Falsch""-Screen",canvas.Screen,3_0_0_0_5_0_2,NA,NA,timeout,4995.866,396935.30000001,396930.518,396947.862,401926.808,401927.90000004,2023-05-17T15:58:15Z,401943.728,NULL,Vermutung,udhanifu,d,NA,NA,NA,NA,sdf,0,0,NA,NA,NA,NA,NA,NA,NA,NA,NA,NA,NA,NA,NA,NA,NA,NA,NA,NA,NA
6bfdb,deep,flow.Sequence,3_0_0_0_5_0,NA,NA,completion,8876.412,393036.69999999,393034.321,393050.396,401926.808,401928.40000004,2023-05-17T15:58:15Z,401943.728,NULL,Vermutung,udhanifu,d,NA,NA,NA,NA,sdf,NA,0,NA,NA,NA,NA,NA,NA,NA,NA,NA,NA,NA,NA,NA,NA,NA,NA,NA,NA,NA
6bfdb,shallow,flow.Sequence,3_0_0_0_5_1,NA,NA,skipped,NA,401928.60000002,NA,NA,401926.808,401928.80000001,2023-05-17T15:58:15Z,401943.728,NULL,Vermutung,udhanifu,d,NA,NA,NA,NA,sdf,NA,0,NA,NA,NA,NA,NA,NA,NA,NA,NA,NA,NA,NA,NA,NA,NA,NA,NA,NA,NA
6bfdb,task,flow.Sequence,3_0_0_0_5,NA,NA,completion,8876.412,393036.60000002,393034.321,393050.396,401926.808,401929,2023-05-17T15:58:15Z,401943.728,NULL,Vermutung,udhanifu,d,NA,NA,NA,NA,sdf,NA,0,NA,NA,NA,NA,NA,NA,NA,NA,NA,NA,NA,NA,NA,NA,NA,NA,NA,NA,NA
6bfdb,deep,flow.Sequence,3_0_0_0_6_0,NA,NA,skipped,NA,401929.19999999,NA,NA,401926.808,401929.40000004,2023-05-17T15:58:15Z,401943.728,NULL,Genehmigung,idhini,s,mwanamke,itikadi,fedheha,NA,sdf,NA,0,NA,NA,NA,NA,NA,NA,NA,NA,NA,NA,NA,NA,NA,NA,NA,NA,NA,NA,NA
6bfdb,Shallow Question,html.Page,3_0_0_0_6_1_0,NA,NA,form submission,10153.772,401929.60000002,401926.808,401943.728,412097.5,412097.60000002,2023-05-17T15:58:26Z,412101.447,NULL,Genehmigung,idhini,s,mwanamke,itikadi,fedheha,itikadi,NA,NA,0,NA,NA,NA,NA,NA,NA,NA,NA,NA,NA,NA,NA,NA,NA,NA,NA,NA,NA,NA
6bfdb,"""Richtig""-Screen",canvas.Screen,3_0_0_0_6_1_1,NA,NA,skipped,NA,412099.5,NA,NA,412097.5,412099.60000002,2023-05-17T15:58:26Z,412101.447,NULL,Genehmigung,idhini,s,mwanamke,itikadi,fedheha,NA,sdf,NA,0,NA,NA,NA,NA,NA,NA,NA,NA,NA,NA,NA,NA,NA,NA,NA,NA,NA,NA,NA
6bfdb,"""Falsch""-Screen",canvas.Screen,3_0_0_0_6_1_2,NA,NA,timeout,4996.391,412100.19999999,412085.075,412101.447,417080.932,417081.90000004,2023-05-17T15:58:31Z,417097.838,NULL,Genehmigung,idhini,s,mwanamke,itikadi,fedheha,NA,sdf,0,0,NA,NA,NA,NA,NA,NA,NA,NA,NA,NA,NA,NA,NA,NA,NA,NA,NA,NA,NA
6bfdb,shallow,flow.Sequence,3_0_0_0_6_1,NA,NA,completion,15137.204,401929.5,401926.808,401943.728,417080.932,417082.30000001,2023-05-17T15:58:31Z,417097.838,NULL,Genehmigung,idhini,s,mwanamke,itikadi,fedheha,NA,sdf,NA,0,NA,NA,NA,NA,NA,NA,NA,NA,NA,NA,NA,NA,NA,NA,NA,NA,NA,NA,NA
6bfdb,task,flow.Sequence,3_0_0_0_6,NA,NA,completion,15137.204,401929.19999999,401926.808,401943.728,417080.932,417082.60000002,2023-05-17T15:58:31Z,417097.838,NULL,Genehmigung,idhini,s,mwanamke,itikadi,fedheha,NA,sdf,NA,0,NA,NA,NA,NA,NA,NA,NA,NA,NA,NA,NA,NA,NA,NA,NA,NA,NA,NA,NA
6bfdb,Deep Question,html.Page,3_0_0_0_7_0_0,NA,NA,form submission,4521.7620000239,417082.69999999,417080.932,417097.838,421619.60000002,421619.80000001,2023-05-17T15:58:35Z,421626.853,NULL,Fleisch,mshakiki,d,NA,NA,NA,i,NA,NA,0,NA,NA,NA,NA,NA,NA,NA,NA,NA,NA,NA,NA,NA,NA,NA,NA,NA,NA,NA
6bfdb,"""Richtig""-Screen",canvas.Screen,3_0_0_0_7_0_1,NA,NA,skipped,NA,421621.60000002,NA,NA,421619.60000002,421621.69999999,2023-05-17T15:58:35Z,421626.853,NULL,Fleisch,mshakiki,d,NA,NA,NA,NA,sdf,NA,0,NA,NA,NA,NA,NA,NA,NA,NA,NA,NA,NA,NA,NA,NA,NA,NA,NA,NA,NA
6bfdb,"""Falsch""-Screen",canvas.Screen,3_0_0_0_7_0_2,NA,NA,timeout,4996.037,421622.40000004,421610.708,421626.853,426606.239,426607.30000001,2023-05-17T15:58:40Z,426622.89,NULL,Fleisch,mshakiki,d,NA,NA,NA,NA,sdf,0,0,NA,NA,NA,NA,NA,NA,NA,NA,NA,NA,NA,NA,NA,NA,NA,NA,NA,NA,NA
6bfdb,deep,flow.Sequence,3_0_0_0_7_0,NA,NA,completion,9508.401,417082.69999999,417080.932,417097.838,426606.239,426607.69999999,2023-05-17T15:58:40Z,426622.89,NULL,Fleisch,mshakiki,d,NA,NA,NA,NA,sdf,NA,0,NA,NA,NA,NA,NA,NA,NA,NA,NA,NA,NA,NA,NA,NA,NA,NA,NA,NA,NA
6bfdb,shallow,flow.Sequence,3_0_0_0_7_1,NA,NA,skipped,NA,426607.90000004,NA,NA,426606.239,426608,2023-05-17T15:58:40Z,426622.89,NULL,Fleisch,mshakiki,d,NA,NA,NA,NA,sdf,NA,0,NA,NA,NA,NA,NA,NA,NA,NA,NA,NA,NA,NA,NA,NA,NA,NA,NA,NA,NA
6bfdb,task,flow.Sequence,3_0_0_0_7,NA,NA,completion,9508.401,417082.69999999,417080.932,417097.838,426606.239,426608.30000001,2023-05-17T15:58:40Z,426622.89,NULL,Fleisch,mshakiki,d,NA,NA,NA,NA,sdf,NA,0,NA,NA,NA,NA,NA,NA,NA,NA,NA,NA,NA,NA,NA,NA,NA,NA,NA,NA,NA
6bfdb,block,flow.Loop,3_0_0_0,NA,NA,completion,112773.999,313826.90000004,313827.377,313832.24,426606.239,426608.5,2023-05-17T15:58:40Z,426622.89,NULL,NA,NA,NA,NA,NA,NA,NA,sdf,NA,0,NA,NA,NA,NA,NA,NA,NA,NA,NA,NA,NA,NA,NA,NA,NA,NA,NA,NA,NA
6bfdb,weiter,canvas.Screen,3_0_0_1,sdf,keypress(Space),response,2413.3099999881,426608.69999999,426606.239,426622.89,429036.19999999,429037.10000002,2023-05-17T15:58:42Z,429087.364,NULL,NA,NA,NA,NA,NA,NA,NA,sdf,NA,0,NA,NA,NA,NA,NA,NA,NA,NA,NA,NA,NA,NA,NA,NA,NA,NA,NA,NA,NA
6bfdb,check continue,flow.Sequence,3_0_0,NA,NA,completion,115203.95999999,313826.80000001,313827.377,313832.24,429036.19999999,429037.30000001,2023-05-17T15:58:42Z,429087.364,NULL,NA,NA,NA,NA,NA,NA,NA,sdf,NA,0,NA,NA,NA,NA,NA,NA,NA,NA,NA,NA,NA,NA,NA,NA,NA,NA,NA,NA,NA
6bfdb,deep,flow.Sequence,3_0_1_0_0_0,NA,NA,skipped,NA,429080.40000004,NA,NA,429036.19999999,429080.5,2023-05-17T15:58:43Z,429087.364,NULL,Genehmigung,idhini,s,mwanamke,itikadi,fedheha,NA,sdfdsf,NA,1,NA,NA,NA,NA,NA,NA,NA,NA,NA,NA,NA,NA,NA,NA,NA,NA,NA,NA,NA
6bfdb,Shallow Question,html.Page,3_0_1_0_0_1_0,NA,NA,form submission,9096.8359999881,429080.60000002,429070.668,429087.364,438184.19999999,438184.40000004,2023-05-17T15:58:52Z,438197.179,NULL,Genehmigung,idhini,s,mwanamke,itikadi,fedheha,idhini,NA,NA,1,NA,NA,NA,NA,NA,NA,NA,NA,NA,NA,NA,NA,NA,NA,NA,NA,NA,NA,NA
6bfdb,"""Richtig""-Screen",canvas.Screen,3_0_1_0_0_1_1,NA,NA,timeout,4995.298,438186.30000001,438180.496,438197.179,443176.408,443177.40000004,2023-05-17T15:58:57Z,443192.477,NULL,Genehmigung,idhini,s,mwanamke,itikadi,fedheha,NA,sdfdsf,1,1,NA,NA,NA,NA,NA,NA,NA,NA,NA,NA,NA,NA,NA,NA,NA,NA,NA,NA,NA
6bfdb,"""Falsch""-Screen",canvas.Screen,3_0_1_0_0_1_2,NA,NA,skipped,NA,443182.69999999,NA,NA,443176.408,443183.10000002,2023-05-17T15:58:57Z,443192.477,NULL,Genehmigung,idhini,s,mwanamke,itikadi,fedheha,NA,sdfdsf,NA,1,NA,NA,NA,NA,NA,NA,NA,NA,NA,NA,NA,NA,NA,NA,NA,NA,NA,NA,NA
6bfdb,shallow,flow.Sequence,3_0_1_0_0_1,NA,NA,completion,14089.044,429080.5,429070.668,429087.364,443176.408,443183.30000001,2023-05-17T15:58:57Z,443192.477,NULL,Genehmigung,idhini,s,mwanamke,itikadi,fedheha,NA,sdfdsf,NA,1,NA,NA,NA,NA,NA,NA,NA,NA,NA,NA,NA,NA,NA,NA,NA,NA,NA,NA,NA
6bfdb,task,flow.Sequence,3_0_1_0_0,NA,NA,completion,14089.044,429080.40000004,429070.668,429087.364,443176.408,443183.69999999,2023-05-17T15:58:57Z,443192.477,NULL,Genehmigung,idhini,s,mwanamke,itikadi,fedheha,NA,sdfdsf,NA,1,NA,NA,NA,NA,NA,NA,NA,NA,NA,NA,NA,NA,NA,NA,NA,NA,NA,NA,NA
6bfdb,deep,flow.Sequence,3_0_1_0_1_0,NA,NA,skipped,NA,443183.80000001,NA,NA,443176.408,443184,2023-05-17T15:58:57Z,443192.477,NULL,Begegnung,kukutana,s,mmasihiya,mpiganaji,husiano,NA,sdfdsf,NA,1,NA,NA,NA,NA,NA,NA,NA,NA,NA,NA,NA,NA,NA,NA,NA,NA,NA,NA,NA
6bfdb,Shallow Question,html.Page,3_0_1_0_1_1_0,NA,NA,form submission,9307.1230000238,443184.10000002,443176.408,443192.477,452499.60000002,452499.90000004,2023-05-17T15:59:06Z,452501.448,NULL,Begegnung,kukutana,s,mmasihiya,mpiganaji,husiano,kukutana,NA,NA,1,NA,NA,NA,NA,NA,NA,NA,NA,NA,NA,NA,NA,NA,NA,NA,NA,NA,NA,NA
6bfdb,"""Richtig""-Screen",canvas.Screen,3_0_1_0_1_1_1,NA,NA,timeout,4996.622,452501.80000001,452484.904,452501.448,457481.174,457482.19999999,2023-05-17T15:59:11Z,457498.07,NULL,Begegnung,kukutana,s,mmasihiya,mpiganaji,husiano,NA,sdfdsf,1,1,NA,NA,NA,NA,NA,NA,NA,NA,NA,NA,NA,NA,NA,NA,NA,NA,NA,NA,NA
6bfdb,"""Falsch""-Screen",canvas.Screen,3_0_1_0_1_1_2,NA,NA,skipped,NA,457486.60000002,NA,NA,457481.174,457486.69999999,2023-05-17T15:59:11Z,457498.07,NULL,Begegnung,kukutana,s,mmasihiya,mpiganaji,husiano,NA,sdfdsf,NA,1,NA,NA,NA,NA,NA,NA,NA,NA,NA,NA,NA,NA,NA,NA,NA,NA,NA,NA,NA
6bfdb,shallow,flow.Sequence,3_0_1_0_1_1,NA,NA,completion,14288.697,443184.10000002,443176.408,443192.477,457481.174,457486.80000001,2023-05-17T15:59:11Z,457498.07,NULL,Begegnung,kukutana,s,mmasihiya,mpiganaji,husiano,NA,sdfdsf,NA,1,NA,NA,NA,NA,NA,NA,NA,NA,NA,NA,NA,NA,NA,NA,NA,NA,NA,NA,NA
6bfdb,task,flow.Sequence,3_0_1_0_1,NA,NA,completion,14288.697,443183.80000001,443176.408,443192.477,457481.174,457486.90000004,2023-05-17T15:59:11Z,457498.07,NULL,Begegnung,kukutana,s,mmasihiya,mpiganaji,husiano,NA,sdfdsf,NA,1,NA,NA,NA,NA,NA,NA,NA,NA,NA,NA,NA,NA,NA,NA,NA,NA,NA,NA,NA
6bfdb,Deep Question,html.Page,3_0_1_0_2_0_0,NA,NA,form submission,16610.93,457487,457481.174,457498.07,474109,474109,2023-05-17T15:59:28Z,474116.976,NULL,Fleisch,mshakiki,d,NA,NA,NA,mshakiki,NA,NA,1,NA,NA,NA,NA,NA,NA,NA,NA,NA,NA,NA,NA,NA,NA,NA,NA,NA,NA,NA
6bfdb,"""Richtig""-Screen",canvas.Screen,3_0_1_0_2_0_1,NA,NA,timeout,4996.641,474111,474100.925,474116.976,479096.827,479097.80000001,2023-05-17T15:59:33Z,479113.617,NULL,Fleisch,mshakiki,d,NA,NA,NA,NA,sdfdsf,1,1,NA,NA,NA,NA,NA,NA,NA,NA,NA,NA,NA,NA,NA,NA,NA,NA,NA,NA,NA
6bfdb,"""Falsch""-Screen",canvas.Screen,3_0_1_0_2_0_2,NA,NA,skipped,NA,479102.40000004,NA,NA,479096.827,479102.5,2023-05-17T15:59:33Z,479113.617,NULL,Fleisch,mshakiki,d,NA,NA,NA,NA,sdfdsf,NA,1,NA,NA,NA,NA,NA,NA,NA,NA,NA,NA,NA,NA,NA,NA,NA,NA,NA,NA,NA
6bfdb,deep,flow.Sequence,3_0_1_0_2_0,NA,NA,completion,21598.757,457486.90000004,457481.174,457498.07,479096.827,479102.60000002,2023-05-17T15:59:33Z,479113.617,NULL,Fleisch,mshakiki,d,NA,NA,NA,NA,sdfdsf,NA,1,NA,NA,NA,NA,NA,NA,NA,NA,NA,NA,NA,NA,NA,NA,NA,NA,NA,NA,NA
6bfdb,shallow,flow.Sequence,3_0_1_0_2_1,NA,NA,skipped,NA,479102.60000002,NA,NA,479096.827,479102.60000002,2023-05-17T15:59:33Z,479113.617,NULL,Fleisch,mshakiki,d,NA,NA,NA,NA,sdfdsf,NA,1,NA,NA,NA,NA,NA,NA,NA,NA,NA,NA,NA,NA,NA,NA,NA,NA,NA,NA,NA
6bfdb,task,flow.Sequence,3_0_1_0_2,NA,NA,completion,21598.757,457486.90000004,457481.174,457498.07,479096.827,479102.69999999,2023-05-17T15:59:33Z,479113.617,NULL,Fleisch,mshakiki,d,NA,NA,NA,NA,sdfdsf,NA,1,NA,NA,NA,NA,NA,NA,NA,NA,NA,NA,NA,NA,NA,NA,NA,NA,NA,NA,NA
6bfdb,Deep Question,html.Page,3_0_1_0_3_0_0,NA,NA,form submission,20047.783000036,479102.80000001,479096.827,479113.617,499161.40000004,499161.5,2023-05-17T15:59:53Z,499163.033,NULL,Inhalt,yaliyomo,d,NA,NA,NA,uogohmahi,NA,NA,1,NA,NA,NA,NA,NA,NA,NA,NA,NA,NA,NA,NA,NA,NA,NA,NA,NA,NA,NA
6bfdb,"""Richtig""-Screen",canvas.Screen,3_0_1_0_3_0_1,NA,NA,skipped,NA,499164.10000002,NA,NA,499161.40000004,499164.30000001,2023-05-17T15:59:53Z,499163.033,NULL,Inhalt,yaliyomo,d,NA,NA,NA,NA,sdfdsf,NA,1,NA,NA,NA,NA,NA,NA,NA,NA,NA,NA,NA,NA,NA,NA,NA,NA,NA,NA,NA
6bfdb,"""Falsch""-Screen",canvas.Screen,3_0_1_0_3_0_2,NA,NA,timeout,4995.936,499165.30000001,499146.96,499163.033,504142.913,504143.80000001,2023-05-17T15:59:58Z,504158.969,NULL,Inhalt,yaliyomo,d,NA,NA,NA,NA,sdfdsf,0,1,NA,NA,NA,NA,NA,NA,NA,NA,NA,NA,NA,NA,NA,NA,NA,NA,NA,NA,NA
6bfdb,deep,flow.Sequence,3_0_1_0_3_0,NA,NA,completion,25029.296,479102.80000001,479096.827,479113.617,504142.913,504144.19999999,2023-05-17T15:59:58Z,504158.969,NULL,Inhalt,yaliyomo,d,NA,NA,NA,NA,sdfdsf,NA,1,NA,NA,NA,NA,NA,NA,NA,NA,NA,NA,NA,NA,NA,NA,NA,NA,NA,NA,NA
6bfdb,shallow,flow.Sequence,3_0_1_0_3_1,NA,NA,skipped,NA,504144.40000004,NA,NA,504142.913,504144.60000002,2023-05-17T15:59:58Z,504158.969,NULL,Inhalt,yaliyomo,d,NA,NA,NA,NA,sdfdsf,NA,1,NA,NA,NA,NA,NA,NA,NA,NA,NA,NA,NA,NA,NA,NA,NA,NA,NA,NA,NA
6bfdb,task,flow.Sequence,3_0_1_0_3,NA,NA,completion,25029.296,479102.80000001,479096.827,479113.617,504142.913,504144.80000001,2023-05-17T15:59:58Z,504158.969,NULL,Inhalt,yaliyomo,d,NA,NA,NA,NA,sdfdsf,NA,1,NA,NA,NA,NA,NA,NA,NA,NA,NA,NA,NA,NA,NA,NA,NA,NA,NA,NA,NA
6bfdb,deep,flow.Sequence,3_0_1_0_4_0,NA,NA,skipped,NA,504145,NA,NA,504142.913,504145.10000002,2023-05-17T15:59:58Z,504158.969,NULL,Toleranz,kuvumiliana,s,maombolezo,ujasusi,mchekeshaji,NA,sdfdsf,NA,1,NA,NA,NA,NA,NA,NA,NA,NA,NA,NA,NA,NA,NA,NA,NA,NA,NA,NA,NA
6bfdb,Shallow Question,html.Page,3_0_1_0_4_1_0,NA,NA,form submission,22348.431000036,504145.30000001,504142.913,504158.969,526507.40000004,526507.60000002,2023-05-17T16:00:20Z,526524.442,NULL,Toleranz,kuvumiliana,s,maombolezo,ujasusi,mchekeshaji,kuvumiliana,NA,NA,1,NA,NA,NA,NA,NA,NA,NA,NA,NA,NA,NA,NA,NA,NA,NA,NA,NA,NA,NA
6bfdb,"""Richtig""-Screen",canvas.Screen,3_0_1_0_4_1_1,NA,NA,timeout,4995.722,526509.5,526490.984,526524.442,531503.556,531504.5,2023-05-17T16:00:25Z,531520.164,NULL,Toleranz,kuvumiliana,s,maombolezo,ujasusi,mchekeshaji,NA,sdfdsf,1,1,NA,NA,NA,NA,NA,NA,NA,NA,NA,NA,NA,NA,NA,NA,NA,NA,NA,NA,NA
6bfdb,"""Falsch""-Screen",canvas.Screen,3_0_1_0_4_1_2,NA,NA,skipped,NA,531509,NA,NA,531503.556,531509.19999999006,2023-05-17T16:00:25Z,531520.164,NULL,Toleranz,kuvumiliana,s,maombolezo,ujasusi,mchekeshaji,NA,sdfdsf,NA,1,NA,NA,NA,NA,NA,NA,NA,NA,NA,NA,NA,NA,NA,NA,NA,NA,NA,NA,NA
6bfdb,shallow,flow.Sequence,3_0_1_0_4_1,NA,NA,completion,27344.587,504145.19999999,504142.913,504158.969,531503.556,531509.30000001,2023-05-17T16:00:25Z,531520.164,NULL,Toleranz,kuvumiliana,s,maombolezo,ujasusi,mchekeshaji,NA,sdfdsf,NA,1,NA,NA,NA,NA,NA,NA,NA,NA,NA,NA,NA,NA,NA,NA,NA,NA,NA,NA,NA
6bfdb,task,flow.Sequence,3_0_1_0_4,NA,NA,completion,27344.587,504144.90000004,504142.913,504158.969,531503.556,531509.30000001,2023-05-17T16:00:25Z,531520.164,NULL,Toleranz,kuvumiliana,s,maombolezo,ujasusi,mchekeshaji,NA,sdfdsf,NA,1,NA,NA,NA,NA,NA,NA,NA,NA,NA,NA,NA,NA,NA,NA,NA,NA,NA,NA,NA
6bfdb,Deep Question,html.Page,3_0_1_0_5_0_0,NA,NA,form submission,12275.035999988,531509.5,531503.556,531520.164,543795.19999999006,543795.40000004,2023-05-17T16:00:37Z,543809.945,NULL,Vermutung,udhanifu,d,NA,NA,NA,uog,NA,NA,1,NA,NA,NA,NA,NA,NA,NA,NA,NA,NA,NA,NA,NA,NA,NA,NA,NA,NA,NA
6bfdb,"""Richtig""-Screen",canvas.Screen,3_0_1_0_5_0_1,NA,NA,skipped,NA,543798.40000004,NA,NA,543795.19999999006,543798.60000002,2023-05-17T16:00:37Z,543809.945,NULL,Vermutung,udhanifu,d,NA,NA,NA,NA,sdfdsf,NA,1,NA,NA,NA,NA,NA,NA,NA,NA,NA,NA,NA,NA,NA,NA,NA,NA,NA,NA,NA
6bfdb,"""Falsch""-Screen",canvas.Screen,3_0_1_0_5_0_2,NA,NA,timeout,4996.302,543799.10000002,543793.553,543809.945,548789.326,548790.40000004,2023-05-17T16:00:42Z,548806.247,NULL,Vermutung,udhanifu,d,NA,NA,NA,NA,sdfdsf,0,1,NA,NA,NA,NA,NA,NA,NA,NA,NA,NA,NA,NA,NA,NA,NA,NA,NA,NA,NA
6bfdb,deep,flow.Sequence,3_0_1_0_5_0,NA,NA,completion,17269.162,531509.40000004,531503.556,531520.164,548789.326,548790.80000000994,2023-05-17T16:00:42Z,548806.247,NULL,Vermutung,udhanifu,d,NA,NA,NA,NA,sdfdsf,NA,1,NA,NA,NA,NA,NA,NA,NA,NA,NA,NA,NA,NA,NA,NA,NA,NA,NA,NA,NA
6bfdb,shallow,flow.Sequence,3_0_1_0_5_1,NA,NA,skipped,NA,548791,NA,NA,548789.326,548791.19999999006,2023-05-17T16:00:42Z,548806.247,NULL,Vermutung,udhanifu,d,NA,NA,NA,NA,sdfdsf,NA,1,NA,NA,NA,NA,NA,NA,NA,NA,NA,NA,NA,NA,NA,NA,NA,NA,NA,NA,NA
6bfdb,task,flow.Sequence,3_0_1_0_5,NA,NA,completion,17269.162,531509.40000004,531503.556,531520.164,548789.326,548791.40000004,2023-05-17T16:00:42Z,548806.247,NULL,Vermutung,udhanifu,d,NA,NA,NA,NA,sdfdsf,NA,1,NA,NA,NA,NA,NA,NA,NA,NA,NA,NA,NA,NA,NA,NA,NA,NA,NA,NA,NA
6bfdb,Deep Question,html.Page,3_0_1_0_6_0_0,NA,NA,form submission,11891.952999988,548791.60000002,548789.326,548806.247,560698.19999999006,560698.40000004,2023-05-17T16:00:54Z,560713.024,NULL,Integrität,uadilifu,d,NA,NA,NA,uog,NA,NA,1,NA,NA,NA,NA,NA,NA,NA,NA,NA,NA,NA,NA,NA,NA,NA,NA,NA,NA,NA
6bfdb,"""Richtig""-Screen",canvas.Screen,3_0_1_0_6_0_1,NA,NA,skipped,NA,560700.10000002,NA,NA,560698.19999999006,560700.19999999006,2023-05-17T16:00:54Z,560713.024,NULL,Integrität,uadilifu,d,NA,NA,NA,NA,sdfdsf,NA,1,NA,NA,NA,NA,NA,NA,NA,NA,NA,NA,NA,NA,NA,NA,NA,NA,NA,NA,NA
6bfdb,"""Falsch""-Screen",canvas.Screen,3_0_1_0_6_0_2,NA,NA,timeout,4995.4870000001,560700.80000001,560695.832,560713.024,565691.982,565692.90000004,2023-05-17T16:00:59Z,565708.511,NULL,Integrität,uadilifu,d,NA,NA,NA,NA,sdfdsf,0,1,NA,NA,NA,NA,NA,NA,NA,NA,NA,NA,NA,NA,NA,NA,NA,NA,NA,NA,NA
6bfdb,deep,flow.Sequence,3_0_1_0_6_0,NA,NA,completion,16885.735,548791.60000002,548789.326,548806.247,565691.982,565693.40000004,2023-05-17T16:00:59Z,565708.511,NULL,Integrität,uadilifu,d,NA,NA,NA,NA,sdfdsf,NA,1,NA,NA,NA,NA,NA,NA,NA,NA,NA,NA,NA,NA,NA,NA,NA,NA,NA,NA,NA
6bfdb,shallow,flow.Sequence,3_0_1_0_6_1,NA,NA,skipped,NA,565693.5,NA,NA,565691.982,565693.69999999006,2023-05-17T16:00:59Z,565708.511,NULL,Integrität,uadilifu,d,NA,NA,NA,NA,sdfdsf,NA,1,NA,NA,NA,NA,NA,NA,NA,NA,NA,NA,NA,NA,NA,NA,NA,NA,NA,NA,NA
6bfdb,task,flow.Sequence,3_0_1_0_6,NA,NA,completion,16885.735,548791.5,548789.326,548806.247,565691.982,565693.90000004,2023-05-17T16:00:59Z,565708.511,NULL,Integrität,uadilifu,d,NA,NA,NA,NA,sdfdsf,NA,1,NA,NA,NA,NA,NA,NA,NA,NA,NA,NA,NA,NA,NA,NA,NA,NA,NA,NA,NA
6bfdb,deep,flow.Sequence,3_0_1_0_7_0,NA,NA,skipped,NA,565694.10000002,NA,NA,565691.982,565694.19999999006,2023-05-17T16:00:59Z,565708.511,NULL,Schlange,foleni,s,uvumilivu,uteuzi,muuzaji,NA,sdfdsf,NA,1,NA,NA,NA,NA,NA,NA,NA,NA,NA,NA,NA,NA,NA,NA,NA,NA,NA,NA,NA
6bfdb,Shallow Question,html.Page,3_0_1_0_7_1_0,NA,NA,form submission,15379.089000024,565694.40000004,565691.982,565708.511,581087.60000002,581087.69999999006,2023-05-17T16:01:15Z,581095.76,NULL,Schlange,foleni,s,uvumilivu,uteuzi,muuzaji,foleni,NA,NA,1,NA,NA,NA,NA,NA,NA,NA,NA,NA,NA,NA,NA,NA,NA,NA,NA,NA,NA,NA
6bfdb,"""Richtig""-Screen",canvas.Screen,3_0_1_0_7_1_1,NA,NA,timeout,4995.7119999999,581089.60000002,581079.078,581095.76,586075.492,586076,2023-05-17T16:01:20Z,586091.472,NULL,Schlange,foleni,s,uvumilivu,uteuzi,muuzaji,NA,sdfdsf,1,1,NA,NA,NA,NA,NA,NA,NA,NA,NA,NA,NA,NA,NA,NA,NA,NA,NA,NA,NA
6bfdb,"""Falsch""-Screen",canvas.Screen,3_0_1_0_7_1_2,NA,NA,skipped,NA,586077.90000004,NA,NA,586075.492,586078.19999999006,2023-05-17T16:01:20Z,586091.472,NULL,Schlange,foleni,s,uvumilivu,uteuzi,muuzaji,NA,sdfdsf,NA,1,NA,NA,NA,NA,NA,NA,NA,NA,NA,NA,NA,NA,NA,NA,NA,NA,NA,NA,NA
6bfdb,shallow,flow.Sequence,3_0_1_0_7_1,NA,NA,completion,20366.981,565694.30000001,565691.982,565708.511,586075.492,586078.19999999006,2023-05-17T16:01:20Z,586091.472,NULL,Schlange,foleni,s,uvumilivu,uteuzi,muuzaji,NA,sdfdsf,NA,1,NA,NA,NA,NA,NA,NA,NA,NA,NA,NA,NA,NA,NA,NA,NA,NA,NA,NA,NA
6bfdb,task,flow.Sequence,3_0_1_0_7,NA,NA,completion,20366.981,565694.10000002,565691.982,565708.511,586075.492,586078.30000001,2023-05-17T16:01:20Z,586091.472,NULL,Schlange,foleni,s,uvumilivu,uteuzi,muuzaji,NA,sdfdsf,NA,1,NA,NA,NA,NA,NA,NA,NA,NA,NA,NA,NA,NA,NA,NA,NA,NA,NA,NA,NA
6bfdb,block,flow.Loop,3_0_1_0,NA,NA,completion,156988.128,429080.40000004,429070.668,429087.364,586075.492,586078.40000004,2023-05-17T16:01:20Z,586091.472,NULL,NA,NA,NA,NA,NA,NA,NA,sdfdsf,NA,1,NA,NA,NA,NA,NA,NA,NA,NA,NA,NA,NA,NA,NA,NA,NA,NA,NA,NA,NA
6bfdb,weiter,canvas.Screen,3_0_1_1,sdf,keypress(Space),response,1028.7279999881,586078.5,586075.492,586091.472,587120.19999999006,587121.19999999006,2023-05-17T16:01:21Z,587191.045,NULL,NA,NA,NA,NA,NA,NA,NA,sdfdsf,NA,1,NA,NA,NA,NA,NA,NA,NA,NA,NA,NA,NA,NA,NA,NA,NA,NA,NA,NA,NA
6bfdb,check continue,flow.Sequence,3_0_1,NA,NA,completion,158032.83599999,429080.30000001,429070.668,429087.364,587120.19999999006,587121.5,2023-05-17T16:01:21Z,587191.045,NULL,NA,NA,NA,NA,NA,NA,NA,sdfdsf,NA,1,NA,NA,NA,NA,NA,NA,NA,NA,NA,NA,NA,NA,NA,NA,NA,NA,NA,NA,NA
6bfdb,deep,flow.Sequence,3_0_2_0_0_0,NA,NA,skipped,NA,587178.69999999006,NA,NA,587120.19999999006,587178.80000001,2023-05-17T16:01:21Z,587191.045,NULL,Begegnung,kukutana,s,mmasihiya,mpiganaji,husiano,NA,sdf,NA,2,NA,NA,NA,NA,NA,NA,NA,NA,NA,NA,NA,NA,NA,NA,NA,NA,NA,NA,NA
6bfdb,Shallow Question,html.Page,3_0_2_0_0_1_0,NA,NA,form submission,12200.355000036,587178.80000001,587174.494,587191.045,599391.40000004,599391.60000002,2023-05-17T16:01:33Z,599397.165,NULL,Begegnung,kukutana,s,mmasihiya,mpiganaji,husiano,kukutana,NA,NA,2,NA,NA,NA,NA,NA,NA,NA,NA,NA,NA,NA,NA,NA,NA,NA,NA,NA,NA,NA
6bfdb,"""Richtig""-Screen",canvas.Screen,3_0_2_0_0_1_1,NA,NA,timeout,4995.924,599393.5,599380.133,599397.165,604376.506,604377.69999999006,2023-05-17T16:01:38Z,604393.089,NULL,Begegnung,kukutana,s,mmasihiya,mpiganaji,husiano,NA,sdf,1,2,NA,NA,NA,NA,NA,NA,NA,NA,NA,NA,NA,NA,NA,NA,NA,NA,NA,NA,NA
6bfdb,"""Falsch""-Screen",canvas.Screen,3_0_2_0_0_1_2,NA,NA,skipped,NA,604383.19999999006,NA,NA,604376.506,604383.69999999006,2023-05-17T16:01:38Z,604393.089,NULL,Begegnung,kukutana,s,mmasihiya,mpiganaji,husiano,NA,sdf,NA,2,NA,NA,NA,NA,NA,NA,NA,NA,NA,NA,NA,NA,NA,NA,NA,NA,NA,NA,NA
6bfdb,shallow,flow.Sequence,3_0_2_0_0_1,NA,NA,completion,17185.461,587178.80000001,587174.494,587191.045,604376.506,604384.10000002,2023-05-17T16:01:38Z,604393.089,NULL,Begegnung,kukutana,s,mmasihiya,mpiganaji,husiano,NA,sdf,NA,2,NA,NA,NA,NA,NA,NA,NA,NA,NA,NA,NA,NA,NA,NA,NA,NA,NA,NA,NA
6bfdb,task,flow.Sequence,3_0_2_0_0,NA,NA,completion,17185.461,587178.60000002,587174.494,587191.045,604376.506,604384.5,2023-05-17T16:01:38Z,604393.089,NULL,Begegnung,kukutana,s,mmasihiya,mpiganaji,husiano,NA,sdf,NA,2,NA,NA,NA,NA,NA,NA,NA,NA,NA,NA,NA,NA,NA,NA,NA,NA,NA,NA,NA
6bfdb,deep,flow.Sequence,3_0_2_0_1_0,NA,NA,skipped,NA,604384.80000001,NA,NA,604376.506,604384.90000004,2023-05-17T16:01:38Z,604393.089,NULL,Genehmigung,idhini,s,mwanamke,itikadi,fedheha,NA,sdf,NA,2,NA,NA,NA,NA,NA,NA,NA,NA,NA,NA,NA,NA,NA,NA,NA,NA,NA,NA,NA
6bfdb,Shallow Question,html.Page,3_0_2_0_1_1_0,NA,NA,form submission,29931.211000012,604385.10000002,604376.506,604393.089,634324.30000001,634324.5,2023-05-17T16:02:08Z,634335.265,NULL,Genehmigung,idhini,s,mwanamke,itikadi,fedheha,idhini,NA,NA,2,NA,NA,NA,NA,NA,NA,NA,NA,NA,NA,NA,NA,NA,NA,NA,NA,NA,NA,NA
6bfdb,"""Richtig""-Screen",canvas.Screen,3_0_2_0_1_1_1,NA,NA,timeout,4995.8369999999,634326.30000000994,634318.364,634335.265,639314.63,639316,2023-05-17T16:02:13Z,639331.102,NULL,Genehmigung,idhini,s,mwanamke,itikadi,fedheha,NA,sdf,1,2,NA,NA,NA,NA,NA,NA,NA,NA,NA,NA,NA,NA,NA,NA,NA,NA,NA,NA,NA
6bfdb,"""Falsch""-Screen",canvas.Screen,3_0_2_0_1_1_2,NA,NA,skipped,NA,639320.90000004,NA,NA,639314.63,639321.30000000994,2023-05-17T16:02:13Z,639331.102,NULL,Genehmigung,idhini,s,mwanamke,itikadi,fedheha,NA,sdf,NA,2,NA,NA,NA,NA,NA,NA,NA,NA,NA,NA,NA,NA,NA,NA,NA,NA,NA,NA,NA
6bfdb,shallow,flow.Sequence,3_0_2_0_1_1,NA,NA,completion,34921.541,604385.10000002,604376.506,604393.089,639314.63,639321.60000002,2023-05-17T16:02:13Z,639331.102,NULL,Genehmigung,idhini,s,mwanamke,itikadi,fedheha,NA,sdf,NA,2,NA,NA,NA,NA,NA,NA,NA,NA,NA,NA,NA,NA,NA,NA,NA,NA,NA,NA,NA
6bfdb,task,flow.Sequence,3_0_2_0_1,NA,NA,completion,34921.541,604384.69999999006,604376.506,604393.089,639314.63,639321.80000001,2023-05-17T16:02:13Z,639331.102,NULL,Genehmigung,idhini,s,mwanamke,itikadi,fedheha,NA,sdf,NA,2,NA,NA,NA,NA,NA,NA,NA,NA,NA,NA,NA,NA,NA,NA,NA,NA,NA,NA,NA
6bfdb,Deep Question,html.Page,3_0_2_0_2_0_0,NA,NA,form submission,16474.298000036,639322,639314.63,639331.102,655805.40000004,655805.5,2023-05-17T16:02:29Z,655817.993,NULL,Inhalt,yaliyomo,d,NA,NA,NA,yaliyomo,NA,NA,2,NA,NA,NA,NA,NA,NA,NA,NA,NA,NA,NA,NA,NA,NA,NA,NA,NA,NA,NA
6bfdb,"""Richtig""-Screen",canvas.Screen,3_0_2_0_2_0_1,NA,NA,timeout,4995.37,655807.40000004,655801.356,655817.993,660797.094,660798.10000002,2023-05-17T16:02:34Z,660813.363,NULL,Inhalt,yaliyomo,d,NA,NA,NA,NA,sdf,1,2,NA,NA,NA,NA,NA,NA,NA,NA,NA,NA,NA,NA,NA,NA,NA,NA,NA,NA,NA
6bfdb,"""Falsch""-Screen",canvas.Screen,3_0_2_0_2_0_2,NA,NA,skipped,NA,660804.19999999006,NA,NA,660797.094,660804.60000002,2023-05-17T16:02:34Z,660813.363,NULL,Inhalt,yaliyomo,d,NA,NA,NA,NA,sdf,NA,2,NA,NA,NA,NA,NA,NA,NA,NA,NA,NA,NA,NA,NA,NA,NA,NA,NA,NA,NA
6bfdb,deep,flow.Sequence,3_0_2_0_2_0,NA,NA,completion,21465.992,639322,639314.63,639331.102,660797.094,660805,2023-05-17T16:02:34Z,660813.363,NULL,Inhalt,yaliyomo,d,NA,NA,NA,NA,sdf,NA,2,NA,NA,NA,NA,NA,NA,NA,NA,NA,NA,NA,NA,NA,NA,NA,NA,NA,NA,NA
6bfdb,shallow,flow.Sequence,3_0_2_0_2_1,NA,NA,skipped,NA,660805.10000002,NA,NA,660797.094,660805.19999999006,2023-05-17T16:02:34Z,660813.363,NULL,Inhalt,yaliyomo,d,NA,NA,NA,NA,sdf,NA,2,NA,NA,NA,NA,NA,NA,NA,NA,NA,NA,NA,NA,NA,NA,NA,NA,NA,NA,NA
6bfdb,task,flow.Sequence,3_0_2_0_2,NA,NA,completion,21465.992,639321.90000004,639314.63,639331.102,660797.094,660805.5,2023-05-17T16:02:34Z,660813.363,NULL,Inhalt,yaliyomo,d,NA,NA,NA,NA,sdf,NA,2,NA,NA,NA,NA,NA,NA,NA,NA,NA,NA,NA,NA,NA,NA,NA,NA,NA,NA,NA
6bfdb,Deep Question,html.Page,3_0_2_0_3_0_0,NA,NA,form submission,21900.937000012,660805.69999999006,660797.094,660813.363,682714.30000001,682714.5,2023-05-17T16:02:56Z,682728.79,NULL,Integrität,uadilifu,d,NA,NA,NA,uoghisili,NA,NA,2,NA,NA,NA,NA,NA,NA,NA,NA,NA,NA,NA,NA,NA,NA,NA,NA,NA,NA,NA
6bfdb,"""Richtig""-Screen",canvas.Screen,3_0_2_0_3_0_1,NA,NA,skipped,NA,682716.30000001,NA,NA,682714.30000001,682716.5,2023-05-17T16:02:56Z,682728.79,NULL,Integrität,uadilifu,d,NA,NA,NA,NA,sdf,NA,2,NA,NA,NA,NA,NA,NA,NA,NA,NA,NA,NA,NA,NA,NA,NA,NA,NA,NA,NA
6bfdb,"""Falsch""-Screen",canvas.Screen,3_0_2_0_3_0_2,NA,NA,timeout,4996.368,682717,682712.113,682728.79,687708.036,687709.10000002,2023-05-17T16:03:01Z,687725.158,NULL,Integrität,uadilifu,d,NA,NA,NA,NA,sdf,0,2,NA,NA,NA,NA,NA,NA,NA,NA,NA,NA,NA,NA,NA,NA,NA,NA,NA,NA,NA
6bfdb,deep,flow.Sequence,3_0_2_0_3_0,NA,NA,completion,26894.673,660805.60000002,660797.094,660813.363,687708.036,687709.40000004,2023-05-17T16:03:01Z,687725.158,NULL,Integrität,uadilifu,d,NA,NA,NA,NA,sdf,NA,2,NA,NA,NA,NA,NA,NA,NA,NA,NA,NA,NA,NA,NA,NA,NA,NA,NA,NA,NA
6bfdb,shallow,flow.Sequence,3_0_2_0_3_1,NA,NA,skipped,NA,687709.60000002,NA,NA,687708.036,687709.69999999006,2023-05-17T16:03:01Z,687725.158,NULL,Integrität,uadilifu,d,NA,NA,NA,NA,sdf,NA,2,NA,NA,NA,NA,NA,NA,NA,NA,NA,NA,NA,NA,NA,NA,NA,NA,NA,NA,NA
6bfdb,task,flow.Sequence,3_0_2_0_3,NA,NA,completion,26894.673,660805.5,660797.094,660813.363,687708.036,687710,2023-05-17T16:03:01Z,687725.158,NULL,Integrität,uadilifu,d,NA,NA,NA,NA,sdf,NA,2,NA,NA,NA,NA,NA,NA,NA,NA,NA,NA,NA,NA,NA,NA,NA,NA,NA,NA,NA
6bfdb,Deep Question,html.Page,3_0_2_0_4_0_0,NA,NA,form submission,27072.742000036,687710.30000000994,687708.036,687725.158,714797.90000004,714798.10000002,2023-05-17T16:03:28Z,714802.141,NULL,Fleisch,mshakiki,d,NA,NA,NA,mshokiki,NA,NA,2,NA,NA,NA,NA,NA,NA,NA,NA,NA,NA,NA,NA,NA,NA,NA,NA,NA,NA,NA
6bfdb,"""Richtig""-Screen",canvas.Screen,3_0_2_0_4_0_1,NA,NA,skipped,NA,714799.90000004,NA,NA,714797.90000004,714800,2023-05-17T16:03:28Z,714802.141,NULL,Fleisch,mshakiki,d,NA,NA,NA,NA,sdf,NA,2,NA,NA,NA,NA,NA,NA,NA,NA,NA,NA,NA,NA,NA,NA,NA,NA,NA,NA,NA
6bfdb,"""Falsch""-Screen",canvas.Screen,3_0_2_0_4_0_2,NA,NA,timeout,4996.488,714800.60000002,714785.698,714802.141,719781.841,719782.80000001,2023-05-17T16:03:33Z,719798.629,NULL,Fleisch,mshakiki,d,NA,NA,NA,NA,sdf,0,2,NA,NA,NA,NA,NA,NA,NA,NA,NA,NA,NA,NA,NA,NA,NA,NA,NA,NA,NA
6bfdb,deep,flow.Sequence,3_0_2_0_4_0,NA,NA,completion,32056.683,687710.30000000994,687708.036,687725.158,719781.841,719783.19999999006,2023-05-17T16:03:33Z,719798.629,NULL,Fleisch,mshakiki,d,NA,NA,NA,NA,sdf,NA,2,NA,NA,NA,NA,NA,NA,NA,NA,NA,NA,NA,NA,NA,NA,NA,NA,NA,NA,NA
6bfdb,shallow,flow.Sequence,3_0_2_0_4_1,NA,NA,skipped,NA,719783.40000004,NA,NA,719781.841,719783.5,2023-05-17T16:03:33Z,719798.629,NULL,Fleisch,mshakiki,d,NA,NA,NA,NA,sdf,NA,2,NA,NA,NA,NA,NA,NA,NA,NA,NA,NA,NA,NA,NA,NA,NA,NA,NA,NA,NA
6bfdb,task,flow.Sequence,3_0_2_0_4,NA,NA,completion,32056.683,687710.19999999006,687708.036,687725.158,719781.841,719783.69999999006,2023-05-17T16:03:33Z,719798.629,NULL,Fleisch,mshakiki,d,NA,NA,NA,NA,sdf,NA,2,NA,NA,NA,NA,NA,NA,NA,NA,NA,NA,NA,NA,NA,NA,NA,NA,NA,NA,NA
6bfdb,deep,flow.Sequence,3_0_2_0_5_0,NA,NA,skipped,NA,719783.90000004,NA,NA,719781.841,719784,2023-05-17T16:03:33Z,719798.629,NULL,Schlange,foleni,s,uvumilivu,uteuzi,muuzaji,NA,sdf,NA,2,NA,NA,NA,NA,NA,NA,NA,NA,NA,NA,NA,NA,NA,NA,NA,NA,NA,NA,NA
6bfdb,Shallow Question,html.Page,3_0_2_0_5_1_0,NA,NA,form submission,5139.7710000358,719784.19999999006,719781.841,719798.629,724938.40000004,724938.60000002,2023-05-17T16:03:38Z,724943.789,NULL,Schlange,foleni,s,uvumilivu,uteuzi,muuzaji,foleni,NA,NA,2,NA,NA,NA,NA,NA,NA,NA,NA,NA,NA,NA,NA,NA,NA,NA,NA,NA,NA,NA
6bfdb,"""Richtig""-Screen",canvas.Screen,3_0_2_0_5_1_1,NA,NA,timeout,4995.993,724940.40000004,724927.616,724943.789,729923.123,729924.10000002,2023-05-17T16:03:43Z,729939.782,NULL,Schlange,foleni,s,uvumilivu,uteuzi,muuzaji,NA,sdf,1,2,NA,NA,NA,NA,NA,NA,NA,NA,NA,NA,NA,NA,NA,NA,NA,NA,NA,NA,NA
6bfdb,"""Falsch""-Screen",canvas.Screen,3_0_2_0_5_1_2,NA,NA,skipped,NA,729926.69999999006,NA,NA,729923.123,729926.90000004,2023-05-17T16:03:43Z,729939.782,NULL,Schlange,foleni,s,uvumilivu,uteuzi,muuzaji,NA,sdf,NA,2,NA,NA,NA,NA,NA,NA,NA,NA,NA,NA,NA,NA,NA,NA,NA,NA,NA,NA,NA
6bfdb,shallow,flow.Sequence,3_0_2_0_5_1,NA,NA,completion,10124.494,719784.19999999006,719781.841,719798.629,729923.123,729927,2023-05-17T16:03:43Z,729939.782,NULL,Schlange,foleni,s,uvumilivu,uteuzi,muuzaji,NA,sdf,NA,2,NA,NA,NA,NA,NA,NA,NA,NA,NA,NA,NA,NA,NA,NA,NA,NA,NA,NA,NA
6bfdb,task,flow.Sequence,3_0_2_0_5,NA,NA,completion,10124.494,719783.80000000994,719781.841,719798.629,729923.123,729927,2023-05-17T16:03:43Z,729939.782,NULL,Schlange,foleni,s,uvumilivu,uteuzi,muuzaji,NA,sdf,NA,2,NA,NA,NA,NA,NA,NA,NA,NA,NA,NA,NA,NA,NA,NA,NA,NA,NA,NA,NA
6bfdb,Deep Question,html.Page,3_0_2_0_6_0_0,NA,NA,form submission,16605.917999988,729927.10000002,729923.123,729939.782,746545.69999999006,746545.90000004,2023-05-17T16:04:00Z,746559.446,NULL,Vermutung,udhanifu,d,NA,NA,NA,udhanifu,NA,NA,2,NA,NA,NA,NA,NA,NA,NA,NA,NA,NA,NA,NA,NA,NA,NA,NA,NA,NA,NA
6bfdb,"""Richtig""-Screen",canvas.Screen,3_0_2_0_6_0_1,NA,NA,timeout,4995.813,746548.40000004,746542.773,746559.446,751538.747,751540.60000002,2023-05-17T16:04:05Z,751555.259,NULL,Vermutung,udhanifu,d,NA,NA,NA,NA,sdf,1,2,NA,NA,NA,NA,NA,NA,NA,NA,NA,NA,NA,NA,NA,NA,NA,NA,NA,NA,NA
6bfdb,"""Falsch""-Screen",canvas.Screen,3_0_2_0_6_0_2,NA,NA,skipped,NA,751546.30000001,NA,NA,751538.747,751546.80000001,2023-05-17T16:04:05Z,751555.259,NULL,Vermutung,udhanifu,d,NA,NA,NA,NA,sdf,NA,2,NA,NA,NA,NA,NA,NA,NA,NA,NA,NA,NA,NA,NA,NA,NA,NA,NA,NA,NA
6bfdb,deep,flow.Sequence,3_0_2_0_6_0,NA,NA,completion,21598.965,729927.10000002,729923.123,729939.782,751538.747,751547.19999999006,2023-05-17T16:04:05Z,751555.259,NULL,Vermutung,udhanifu,d,NA,NA,NA,NA,sdf,NA,2,NA,NA,NA,NA,NA,NA,NA,NA,NA,NA,NA,NA,NA,NA,NA,NA,NA,NA,NA
6bfdb,shallow,flow.Sequence,3_0_2_0_6_1,NA,NA,skipped,NA,751547.5,NA,NA,751538.747,751547.60000002,2023-05-17T16:04:05Z,751555.259,NULL,Vermutung,udhanifu,d,NA,NA,NA,NA,sdf,NA,2,NA,NA,NA,NA,NA,NA,NA,NA,NA,NA,NA,NA,NA,NA,NA,NA,NA,NA,NA
6bfdb,task,flow.Sequence,3_0_2_0_6,NA,NA,completion,21598.965,729927.10000002,729923.123,729939.782,751538.747,751548.10000002,2023-05-17T16:04:05Z,751555.259,NULL,Vermutung,udhanifu,d,NA,NA,NA,NA,sdf,NA,2,NA,NA,NA,NA,NA,NA,NA,NA,NA,NA,NA,NA,NA,NA,NA,NA,NA,NA,NA
6bfdb,deep,flow.Sequence,3_0_2_0_7_0,NA,NA,skipped,NA,751548.60000002,NA,NA,751538.747,751548.80000001,2023-05-17T16:04:05Z,751555.259,NULL,Toleranz,kuvumiliana,s,maombolezo,ujasusi,mchekeshaji,NA,sdf,NA,2,NA,NA,NA,NA,NA,NA,NA,NA,NA,NA,NA,NA,NA,NA,NA,NA,NA,NA,NA
6bfdb,Shallow Question,html.Page,3_0_2_0_7_1_0,NA,NA,form submission,16935.241,751549.19999999006,751538.747,751555.259,768490.5,768490.60000002,2023-05-17T16:04:22Z,768491.309,NULL,Toleranz,kuvumiliana,s,maombolezo,ujasusi,mchekeshaji,kuvumiliana,NA,NA,2,NA,NA,NA,NA,NA,NA,NA,NA,NA,NA,NA,NA,NA,NA,NA,NA,NA,NA,NA
6bfdb,"""Richtig""-Screen",canvas.Screen,3_0_2_0_7_1_1,NA,NA,timeout,4996.4449999999,768492.60000002,768474.128,768491.309,773470.82,773471.90000004,2023-05-17T16:04:27Z,773487.754,NULL,Toleranz,kuvumiliana,s,maombolezo,ujasusi,mchekeshaji,NA,sdf,1,2,NA,NA,NA,NA,NA,NA,NA,NA,NA,NA,NA,NA,NA,NA,NA,NA,NA,NA,NA
6bfdb,"""Falsch""-Screen",canvas.Screen,3_0_2_0_7_1_2,NA,NA,skipped,NA,773476.40000004,NA,NA,773470.82,773476.5,2023-05-17T16:04:27Z,773487.754,NULL,Toleranz,kuvumiliana,s,maombolezo,ujasusi,mchekeshaji,NA,sdf,NA,2,NA,NA,NA,NA,NA,NA,NA,NA,NA,NA,NA,NA,NA,NA,NA,NA,NA,NA,NA
6bfdb,shallow,flow.Sequence,3_0_2_0_7_1,NA,NA,completion,21915.561,751549.10000002,751538.747,751555.259,773470.82,773476.60000002,2023-05-17T16:04:27Z,773487.754,NULL,Toleranz,kuvumiliana,s,maombolezo,ujasusi,mchekeshaji,NA,sdf,NA,2,NA,NA,NA,NA,NA,NA,NA,NA,NA,NA,NA,NA,NA,NA,NA,NA,NA,NA,NA
6bfdb,task,flow.Sequence,3_0_2_0_7,NA,NA,completion,21915.561,751548.40000004,751538.747,751555.259,773470.82,773476.69999999006,2023-05-17T16:04:27Z,773487.754,NULL,Toleranz,kuvumiliana,s,maombolezo,ujasusi,mchekeshaji,NA,sdf,NA,2,NA,NA,NA,NA,NA,NA,NA,NA,NA,NA,NA,NA,NA,NA,NA,NA,NA,NA,NA
6bfdb,block,flow.Loop,3_0_2_0,NA,NA,completion,186279.775,587178.60000002,587174.494,587191.045,773470.82,773476.69999999006,2023-05-17T16:04:27Z,773487.754,NULL,NA,NA,NA,NA,NA,NA,NA,sdf,NA,2,NA,NA,NA,NA,NA,NA,NA,NA,NA,NA,NA,NA,NA,NA,NA,NA,NA,NA,NA
6bfdb,weiter,canvas.Screen,3_0_2_1,sdf,keypress(Space),response,1256.746,773476.80000001,773470.82,773487.754,774744.5,774745.40000004,2023-05-17T16:04:28Z,775269.014,NULL,NA,NA,NA,NA,NA,NA,NA,sdf,NA,2,NA,NA,NA,NA,NA,NA,NA,NA,NA,NA,NA,NA,NA,NA,NA,NA,NA,NA,NA
6bfdb,check continue,flow.Sequence,3_0_2,NA,NA,completion,187553.455,587178.60000002,587174.494,587191.045,774744.5,774745.80000001,2023-05-17T16:04:28Z,775269.014,NULL,NA,NA,NA,NA,NA,NA,NA,sdf,NA,2,NA,NA,NA,NA,NA,NA,NA,NA,NA,NA,NA,NA,NA,NA,NA,NA,NA,NA,NA
6bfdb,check continue,flow.Sequence,3_0_3,NA,NA,skipped,NA,774776.90000004,NA,NA,774744.5,774777,2023-05-17T16:04:28Z,775269.014,NULL,NA,NA,NA,NA,NA,NA,NA,qt,NA,3,NA,NA,NA,NA,NA,NA,NA,NA,NA,NA,NA,NA,NA,NA,NA,NA,NA,NA,NA
6bfdb,check continue,flow.Sequence,3_0_4,NA,NA,skipped,NA,774799.60000002,NA,NA,774744.5,774799.69999999006,2023-05-17T16:04:28Z,775269.014,NULL,NA,NA,NA,NA,NA,NA,NA,sd,NA,4,NA,NA,NA,NA,NA,NA,NA,NA,NA,NA,NA,NA,NA,NA,NA,NA,NA,NA,NA
6bfdb,check continue,flow.Sequence,3_0_5,NA,NA,skipped,NA,774817.60000002,NA,NA,774744.5,774817.69999999006,2023-05-17T16:04:28Z,775269.014,NULL,NA,NA,NA,NA,NA,NA,NA,sdf,NA,5,NA,NA,NA,NA,NA,NA,NA,NA,NA,NA,NA,NA,NA,NA,NA,NA,NA,NA,NA
6bfdb,check continue,flow.Sequence,3_0_6,NA,NA,skipped,NA,774834.19999999006,NA,NA,774744.5,774834.30000001,2023-05-17T16:04:28Z,775269.014,NULL,NA,NA,NA,NA,NA,NA,NA,dfs,NA,6,NA,NA,NA,NA,NA,NA,NA,NA,NA,NA,NA,NA,NA,NA,NA,NA,NA,NA,NA
6bfdb,check continue,flow.Sequence,3_0_7,NA,NA,skipped,NA,774850.90000004,NA,NA,774744.5,774850.90000004,2023-05-17T16:04:28Z,775269.014,NULL,NA,NA,NA,NA,NA,NA,NA,df,NA,7,NA,NA,NA,NA,NA,NA,NA,NA,NA,NA,NA,NA,NA,NA,NA,NA,NA,NA,NA
6bfdb,check continue,flow.Sequence,3_0_8,NA,NA,skipped,NA,774866.60000002,NA,NA,774744.5,774866.69999999006,2023-05-17T16:04:28Z,775269.014,NULL,NA,NA,NA,NA,NA,NA,NA,dfs,NA,8,NA,NA,NA,NA,NA,NA,NA,NA,NA,NA,NA,NA,NA,NA,NA,NA,NA,NA,NA
6bfdb,check continue,flow.Sequence,3_0_9,NA,NA,skipped,NA,774882.80000001,NA,NA,774744.5,774883,2023-05-17T16:04:28Z,775269.014,NULL,NA,NA,NA,NA,NA,NA,NA,dsf,NA,9,NA,NA,NA,NA,NA,NA,NA,NA,NA,NA,NA,NA,NA,NA,NA,NA,NA,NA,NA
6bfdb,check continue,flow.Sequence,3_0_10,NA,NA,skipped,NA,774901.90000004,NA,NA,774744.5,774902.10000002,2023-05-17T16:04:28Z,775269.014,NULL,NA,NA,NA,NA,NA,NA,NA,df,NA,10,NA,NA,NA,NA,NA,NA,NA,NA,NA,NA,NA,NA,NA,NA,NA,NA,NA,NA,NA
6bfdb,check continue,flow.Sequence,3_0_11,NA,NA,skipped,NA,774918.10000002,NA,NA,774744.5,774918.19999999006,2023-05-17T16:04:28Z,775269.014,NULL,NA,NA,NA,NA,NA,NA,NA,dfs,NA,11,NA,NA,NA,NA,NA,NA,NA,NA,NA,NA,NA,NA,NA,NA,NA,NA,NA,NA,NA
6bfdb,check continue,flow.Sequence,3_0_12,NA,NA,skipped,NA,774936.60000002,NA,NA,774744.5,774936.69999999006,2023-05-17T16:04:28Z,775269.014,NULL,NA,NA,NA,NA,NA,NA,NA,dsf,NA,12,NA,NA,NA,NA,NA,NA,NA,NA,NA,NA,NA,NA,NA,NA,NA,NA,NA,NA,NA
6bfdb,check continue,flow.Sequence,3_0_13,NA,NA,skipped,NA,774954.60000002,NA,NA,774744.5,774954.69999999006,2023-05-17T16:04:28Z,775269.014,NULL,NA,NA,NA,NA,NA,NA,NA,dsf,NA,13,NA,NA,NA,NA,NA,NA,NA,NA,NA,NA,NA,NA,NA,NA,NA,NA,NA,NA,NA
6bfdb,check continue,flow.Sequence,3_0_14,NA,NA,skipped,NA,774973.69999999006,NA,NA,774744.5,774973.80000001,2023-05-17T16:04:28Z,775269.014,NULL,NA,NA,NA,NA,NA,NA,NA,NA,NA,14,NA,NA,NA,NA,NA,NA,NA,NA,NA,NA,NA,NA,NA,NA,NA,NA,NA,NA,NA
6bfdb,check continue,flow.Sequence,3_0_15,NA,NA,skipped,NA,774996.10000002,NA,NA,774744.5,774996.40000004,2023-05-17T16:04:28Z,775269.014,NULL,NA,NA,NA,NA,NA,NA,NA,NA,NA,15,NA,NA,NA,NA,NA,NA,NA,NA,NA,NA,NA,NA,NA,NA,NA,NA,NA,NA,NA
6bfdb,check continue,flow.Sequence,3_0_16,NA,NA,skipped,NA,775015.30000001,NA,NA,774744.5,775015.40000004,2023-05-17T16:04:28Z,775269.014,NULL,NA,NA,NA,NA,NA,NA,NA,NA,NA,16,NA,NA,NA,NA,NA,NA,NA,NA,NA,NA,NA,NA,NA,NA,NA,NA,NA,NA,NA
6bfdb,check continue,flow.Sequence,3_0_17,NA,NA,skipped,NA,775033,NA,NA,774744.5,775033.10000002,2023-05-17T16:04:28Z,775269.014,NULL,NA,NA,NA,NA,NA,NA,NA,NA,NA,17,NA,NA,NA,NA,NA,NA,NA,NA,NA,NA,NA,NA,NA,NA,NA,NA,NA,NA,NA
6bfdb,check continue,flow.Sequence,3_0_18,NA,NA,skipped,NA,775050.10000002,NA,NA,774744.5,775050.19999999006,2023-05-17T16:04:28Z,775269.014,NULL,NA,NA,NA,NA,NA,NA,NA,NA,NA,18,NA,NA,NA,NA,NA,NA,NA,NA,NA,NA,NA,NA,NA,NA,NA,NA,NA,NA,NA
6bfdb,check continue,flow.Sequence,3_0_19,NA,NA,skipped,NA,775066.30000001,NA,NA,774744.5,775066.5,2023-05-17T16:04:29Z,775269.014,NULL,NA,NA,NA,NA,NA,NA,NA,NA,NA,19,NA,NA,NA,NA,NA,NA,NA,NA,NA,NA,NA,NA,NA,NA,NA,NA,NA,NA,NA
6bfdb,check continue,flow.Sequence,3_0_20,NA,NA,skipped,NA,775084.10000002,NA,NA,774744.5,775084.19999999006,2023-05-17T16:04:29Z,775269.014,NULL,NA,NA,NA,NA,NA,NA,NA,NA,NA,20,NA,NA,NA,NA,NA,NA,NA,NA,NA,NA,NA,NA,NA,NA,NA,NA,NA,NA,NA
6bfdb,check continue,flow.Sequence,3_0_21,NA,NA,skipped,NA,775099.19999999006,NA,NA,774744.5,775099.30000001,2023-05-17T16:04:29Z,775269.014,NULL,NA,NA,NA,NA,NA,NA,NA,NA,NA,21,NA,NA,NA,NA,NA,NA,NA,NA,NA,NA,NA,NA,NA,NA,NA,NA,NA,NA,NA
6bfdb,check continue,flow.Sequence,3_0_22,NA,NA,skipped,NA,775115.60000002,NA,NA,774744.5,775115.80000000994,2023-05-17T16:04:29Z,775269.014,NULL,NA,NA,NA,NA,NA,NA,NA,NA,NA,22,NA,NA,NA,NA,NA,NA,NA,NA,NA,NA,NA,NA,NA,NA,NA,NA,NA,NA,NA
6bfdb,check continue,flow.Sequence,3_0_23,NA,NA,skipped,NA,775130,NA,NA,774744.5,775130.10000002,2023-05-17T16:04:29Z,775269.014,NULL,NA,NA,NA,NA,NA,NA,NA,NA,NA,23,NA,NA,NA,NA,NA,NA,NA,NA,NA,NA,NA,NA,NA,NA,NA,NA,NA,NA,NA
6bfdb,check continue,flow.Sequence,3_0_24,NA,NA,skipped,NA,775151.80000001,NA,NA,774744.5,775152.19999999006,2023-05-17T16:04:29Z,775269.014,NULL,NA,NA,NA,NA,NA,NA,NA,NA,NA,24,NA,NA,NA,NA,NA,NA,NA,NA,NA,NA,NA,NA,NA,NA,NA,NA,NA,NA,NA
6bfdb,check continue,flow.Sequence,3_0_25,NA,NA,skipped,NA,775177.5,NA,NA,774744.5,775177.60000002,2023-05-17T16:04:29Z,775269.014,NULL,NA,NA,NA,NA,NA,NA,NA,NA,NA,25,NA,NA,NA,NA,NA,NA,NA,NA,NA,NA,NA,NA,NA,NA,NA,NA,NA,NA,NA
6bfdb,check continue,flow.Sequence,3_0_26,NA,NA,skipped,NA,775194.69999999006,NA,NA,774744.5,775194.90000004,2023-05-17T16:04:29Z,775269.014,NULL,NA,NA,NA,NA,NA,NA,NA,NA,NA,26,NA,NA,NA,NA,NA,NA,NA,NA,NA,NA,NA,NA,NA,NA,NA,NA,NA,NA,NA
6bfdb,check continue,flow.Sequence,3_0_27,NA,NA,skipped,NA,775219.69999999006,NA,NA,774744.5,775219.90000004,2023-05-17T16:04:29Z,775269.014,NULL,NA,NA,NA,NA,NA,NA,NA,NA,NA,27,NA,NA,NA,NA,NA,NA,NA,NA,NA,NA,NA,NA,NA,NA,NA,NA,NA,NA,NA
6bfdb,check continue,flow.Sequence,3_0_28,NA,NA,skipped,NA,775240.5,NA,NA,774744.5,775240.60000002,2023-05-17T16:04:29Z,775269.014,NULL,NA,NA,NA,NA,NA,NA,NA,NA,NA,28,NA,NA,NA,NA,NA,NA,NA,NA,NA,NA,NA,NA,NA,NA,NA,NA,NA,NA,NA
6bfdb,check continue,flow.Sequence,3_0_29,NA,NA,skipped,NA,775261.19999999006,NA,NA,774744.5,775261.30000000994,2023-05-17T16:04:29Z,775269.014,NULL,NA,NA,NA,NA,NA,NA,NA,NA,NA,29,NA,NA,NA,NA,NA,NA,NA,NA,NA,NA,NA,NA,NA,NA,NA,NA,NA,NA,NA
6bfdb,until continue,flow.Loop,3_0,NA,NA,completion,460912.26,313802.90000004,313827.377,313832.24,774744.5,775261.30000000994,2023-05-17T16:04:29Z,775269.014,NULL,NA,NA,NA,NA,NA,NA,NA,NA,NA,NA,NA,NA,NA,NA,NA,NA,NA,NA,NA,NA,NA,NA,NA,NA,NA,NA,NA,NA,NA
6bfdb,block 1,flow.Sequence,3,NA,NA,completion,460912.26,313802.90000004,313827.377,313832.24,774744.5,775261.5,2023-05-17T16:04:29Z,775269.014,NULL,NA,NA,NA,NA,NA,NA,NA,NA,NA,NA,NA,NA,NA,NA,NA,NA,NA,NA,NA,NA,NA,NA,NA,NA,NA,NA,NA,NA,NA
6bfdb,1.Part Over,canvas.Screen,4,NA,keypress(Space),response,3718.6859999881,775261.5,775252.656,775269.014,778987.69999999006,778988.69999999006,2023-05-17T16:04:32Z,779067.091,NULL,NA,NA,NA,NA,NA,NA,NA,NA,NA,NA,NA,NA,NA,NA,NA,NA,NA,NA,NA,NA,NA,NA,NA,NA,NA,NA,NA,NA,NA
6bfdb,Deep Question,html.Page,5_0_0_0_0_0_0,NA,NA,form submission,7896.7090000119,779048.30000001,779032.426,779067.091,786963.80000001,786963.90000004,2023-05-17T16:04:40Z,786976.27,NULL,Erneuerung,ukarabati,d,NA,NA,NA,ee,NA,NA,0,NA,NA,NA,NA,NA,NA,NA,NA,NA,NA,NA,NA,NA,NA,NA,NA,NA,NA,NA
6bfdb,"""Richtig""-Screen",canvas.Screen,5_0_0_0_0_0_1,NA,NA,skipped,NA,786965.69999999006,NA,NA,786963.80000001,786965.90000004,2023-05-17T16:04:40Z,786976.27,NULL,Erneuerung,ukarabati,d,NA,NA,NA,NA,sdf,NA,0,NA,NA,NA,NA,NA,NA,NA,NA,NA,NA,NA,NA,NA,NA,NA,NA,NA,NA,NA
6bfdb,"""Falsch""-Screen",canvas.Screen,5_0_0_0_0_0_2,NA,NA,timeout,4996.0279999999,786966.30000001,786960.135,786976.27,791955.959,791956.5,2023-05-17T16:04:45Z,791972.298,NULL,Erneuerung,ukarabati,d,NA,NA,NA,NA,sdf,0,0,NA,NA,NA,NA,NA,NA,NA,NA,NA,NA,NA,NA,NA,NA,NA,NA,NA,NA,NA
6bfdb,deep,flow.Sequence,5_0_0_0_0_0,NA,NA,completion,12888.868,779048.30000001,779032.426,779067.091,791955.959,791956.69999999006,2023-05-17T16:04:45Z,791972.298,NULL,Erneuerung,ukarabati,d,NA,NA,NA,NA,sdf,NA,0,NA,NA,NA,NA,NA,NA,NA,NA,NA,NA,NA,NA,NA,NA,NA,NA,NA,NA,NA
6bfdb,shallow,flow.Sequence,5_0_0_0_0_1,NA,NA,skipped,NA,791956.80000000994,NA,NA,791955.959,791956.80000000994,2023-05-17T16:04:45Z,791972.298,NULL,Erneuerung,ukarabati,d,NA,NA,NA,NA,sdf,NA,0,NA,NA,NA,NA,NA,NA,NA,NA,NA,NA,NA,NA,NA,NA,NA,NA,NA,NA,NA
6bfdb,task,flow.Sequence,5_0_0_0_0,NA,NA,completion,12888.868,779048.30000001,779032.426,779067.091,791955.959,791956.90000004,2023-05-17T16:04:45Z,791972.298,NULL,Erneuerung,ukarabati,d,NA,NA,NA,NA,sdf,NA,0,NA,NA,NA,NA,NA,NA,NA,NA,NA,NA,NA,NA,NA,NA,NA,NA,NA,NA,NA
6bfdb,deep,flow.Sequence,5_0_0_0_1_0,NA,NA,skipped,NA,791956.90000004,NA,NA,791955.959,791957,2023-05-17T16:04:45Z,791972.298,NULL,Schock,mshtuko,s,biashara,kukataza,vichekesho,NA,sdf,NA,0,NA,NA,NA,NA,NA,NA,NA,NA,NA,NA,NA,NA,NA,NA,NA,NA,NA,NA,NA
6bfdb,Shallow Question,html.Page,5_0_0_0_1_1_0,NA,NA,form submission,37434.702,791957,791955.959,791972.298,829407,829407.19999999006,2023-05-17T16:05:23Z,829407.822,NULL,Schock,mshtuko,s,biashara,kukataza,vichekesho,kukataza,NA,NA,0,NA,NA,NA,NA,NA,NA,NA,NA,NA,NA,NA,NA,NA,NA,NA,NA,NA,NA,NA
6bfdb,"""Richtig""-Screen",canvas.Screen,5_0_0_0_1_1_1,NA,NA,skipped,NA,829409.30000001,NA,NA,829407,829409.40000004,2023-05-17T16:05:23Z,829407.822,NULL,Schock,mshtuko,s,biashara,kukataza,vichekesho,NA,sdf,NA,0,NA,NA,NA,NA,NA,NA,NA,NA,NA,NA,NA,NA,NA,NA,NA,NA,NA,NA,NA
6bfdb,"""Falsch""-Screen",canvas.Screen,5_0_0_0_1_1_2,NA,NA,timeout,4996.1579999999,829410.40000004,829391.401,829407.822,834387.559,834388.69999999006,2023-05-17T16:05:28Z,834403.98,NULL,Schock,mshtuko,s,biashara,kukataza,vichekesho,NA,sdf,0,0,NA,NA,NA,NA,NA,NA,NA,NA,NA,NA,NA,NA,NA,NA,NA,NA,NA,NA,NA
6bfdb,shallow,flow.Sequence,5_0_0_0_1_1,NA,NA,completion,42415.261,791957,791955.959,791972.298,834387.559,834389.19999999006,2023-05-17T16:05:28Z,834403.98,NULL,Schock,mshtuko,s,biashara,kukataza,vichekesho,NA,sdf,NA,0,NA,NA,NA,NA,NA,NA,NA,NA,NA,NA,NA,NA,NA,NA,NA,NA,NA,NA,NA
6bfdb,task,flow.Sequence,5_0_0_0_1,NA,NA,completion,42415.261,791956.90000004,791955.959,791972.298,834387.559,834389.5,2023-05-17T16:05:28Z,834403.98,NULL,Schock,mshtuko,s,biashara,kukataza,vichekesho,NA,sdf,NA,0,NA,NA,NA,NA,NA,NA,NA,NA,NA,NA,NA,NA,NA,NA,NA,NA,NA,NA,NA
6bfdb,Deep Question,html.Page,5_0_0_0_2_0_0,NA,NA,form submission,3504.7199999881,834389.90000004,834387.559,834403.98,837908.69999999006,837908.90000004,2023-05-17T16:05:31Z,837917.664,NULL,Verpackung,ufungaji,d,NA,NA,NA,hh,NA,NA,0,NA,NA,NA,NA,NA,NA,NA,NA,NA,NA,NA,NA,NA,NA,NA,NA,NA,NA,NA
6bfdb,"""Richtig""-Screen",canvas.Screen,5_0_0_0_2_0_1,NA,NA,skipped,NA,837911,NA,NA,837908.69999999006,837911.10000002,2023-05-17T16:05:31Z,837917.664,NULL,Verpackung,ufungaji,d,NA,NA,NA,NA,sdf,NA,0,NA,NA,NA,NA,NA,NA,NA,NA,NA,NA,NA,NA,NA,NA,NA,NA,NA,NA,NA
6bfdb,"""Falsch""-Screen",canvas.Screen,5_0_0_0_2_0_2,NA,NA,timeout,4995.674,837911.69999999006,837900.898,837917.664,842897.288,842899.10000002,2023-05-17T16:05:36Z,842913.338,NULL,Verpackung,ufungaji,d,NA,NA,NA,NA,sdf,0,0,NA,NA,NA,NA,NA,NA,NA,NA,NA,NA,NA,NA,NA,NA,NA,NA,NA,NA,NA
6bfdb,deep,flow.Sequence,5_0_0_0_2_0,NA,NA,completion,8493.308,834389.80000001,834387.559,834403.98,842897.288,842899.69999999006,2023-05-17T16:05:36Z,842913.338,NULL,Verpackung,ufungaji,d,NA,NA,NA,NA,sdf,NA,0,NA,NA,NA,NA,NA,NA,NA,NA,NA,NA,NA,NA,NA,NA,NA,NA,NA,NA,NA
6bfdb,shallow,flow.Sequence,5_0_0_0_2_1,NA,NA,skipped,NA,842900,NA,NA,842897.288,842900.30000001,2023-05-17T16:05:36Z,842913.338,NULL,Verpackung,ufungaji,d,NA,NA,NA,NA,sdf,NA,0,NA,NA,NA,NA,NA,NA,NA,NA,NA,NA,NA,NA,NA,NA,NA,NA,NA,NA,NA
6bfdb,task,flow.Sequence,5_0_0_0_2,NA,NA,completion,8493.308,834389.69999999006,834387.559,834403.98,842897.288,842900.69999999006,2023-05-17T16:05:36Z,842913.338,NULL,Verpackung,ufungaji,d,NA,NA,NA,NA,sdf,NA,0,NA,NA,NA,NA,NA,NA,NA,NA,NA,NA,NA,NA,NA,NA,NA,NA,NA,NA,NA
6bfdb,deep,flow.Sequence,5_0_0_0_3_0,NA,NA,skipped,NA,842901.10000002,NA,NA,842897.288,842901.30000001,2023-05-17T16:05:36Z,842913.338,NULL,Atmosphäre,angahewa,s,kuteseka,usahihi,kutoamini,NA,sdf,NA,0,NA,NA,NA,NA,NA,NA,NA,NA,NA,NA,NA,NA,NA,NA,NA,NA,NA,NA,NA
6bfdb,Shallow Question,html.Page,5_0_0_0_3_1_0,NA,NA,form submission,9517.162,842902.5,842897.288,842913.338,852430.5,852430.80000001,2023-05-17T16:05:46Z,852438.906,NULL,Atmosphäre,angahewa,s,kuteseka,usahihi,kutoamini,usahihi,NA,NA,0,NA,NA,NA,NA,NA,NA,NA,NA,NA,NA,NA,NA,NA,NA,NA,NA,NA,NA,NA
6bfdb,"""Richtig""-Screen",canvas.Screen,5_0_0_0_3_1_1,NA,NA,skipped,NA,852432.69999999006,NA,NA,852430.5,852432.69999999006,2023-05-17T16:05:46Z,852438.906,NULL,Atmosphäre,angahewa,s,kuteseka,usahihi,kutoamini,NA,sdf,NA,0,NA,NA,NA,NA,NA,NA,NA,NA,NA,NA,NA,NA,NA,NA,NA,NA,NA,NA,NA
6bfdb,"""Falsch""-Screen",canvas.Screen,5_0_0_0_3_1_2,NA,NA,timeout,4996.1710000001,852433.40000004,852422.298,852438.906,857418.225,857419.30000001,2023-05-17T16:05:51Z,857435.077,NULL,Atmosphäre,angahewa,s,kuteseka,usahihi,kutoamini,NA,sdf,0,0,NA,NA,NA,NA,NA,NA,NA,NA,NA,NA,NA,NA,NA,NA,NA,NA,NA,NA,NA
6bfdb,shallow,flow.Sequence,5_0_0_0_3_1,NA,NA,completion,14504.887,842902.40000004,842897.288,842913.338,857418.225,857419.80000000994,2023-05-17T16:05:51Z,857435.077,NULL,Atmosphäre,angahewa,s,kuteseka,usahihi,kutoamini,NA,sdf,NA,0,NA,NA,NA,NA,NA,NA,NA,NA,NA,NA,NA,NA,NA,NA,NA,NA,NA,NA,NA
6bfdb,task,flow.Sequence,5_0_0_0_3,NA,NA,completion,14504.887,842901,842897.288,842913.338,857418.225,857420.19999999006,2023-05-17T16:05:51Z,857435.077,NULL,Atmosphäre,angahewa,s,kuteseka,usahihi,kutoamini,NA,sdf,NA,0,NA,NA,NA,NA,NA,NA,NA,NA,NA,NA,NA,NA,NA,NA,NA,NA,NA,NA,NA
6bfdb,Deep Question,html.Page,5_0_0_0_4_0_0,NA,NA,form submission,4743.0230000238,857420.60000002,857418.225,857435.077,862178.10000002,862178.30000001,2023-05-17T16:05:56Z,862180.838,NULL,Wechsel,ugeuzaji,d,NA,NA,NA,j,NA,NA,0,NA,NA,NA,NA,NA,NA,NA,NA,NA,NA,NA,NA,NA,NA,NA,NA,NA,NA,NA
6bfdb,"""Richtig""-Screen",canvas.Screen,5_0_0_0_4_0_1,NA,NA,skipped,NA,862181.10000002,NA,NA,862178.10000002,862181.19999999006,2023-05-17T16:05:56Z,862180.838,NULL,Wechsel,ugeuzaji,d,NA,NA,NA,NA,sdf,NA,0,NA,NA,NA,NA,NA,NA,NA,NA,NA,NA,NA,NA,NA,NA,NA,NA,NA,NA,NA
6bfdb,"""Falsch""-Screen",canvas.Screen,5_0_0_0_4_0_2,NA,NA,timeout,4995.975,862181.90000004,862164.725,862180.838,867160.218,867162.60000002,2023-05-17T16:06:01Z,867176.813,NULL,Wechsel,ugeuzaji,d,NA,NA,NA,NA,sdf,0,0,NA,NA,NA,NA,NA,NA,NA,NA,NA,NA,NA,NA,NA,NA,NA,NA,NA,NA,NA
6bfdb,deep,flow.Sequence,5_0_0_0_4_0,NA,NA,completion,9725.1409999999,857420.5,857418.225,857435.077,867160.218,867163.10000002,2023-05-17T16:06:01Z,867176.813,NULL,Wechsel,ugeuzaji,d,NA,NA,NA,NA,sdf,NA,0,NA,NA,NA,NA,NA,NA,NA,NA,NA,NA,NA,NA,NA,NA,NA,NA,NA,NA,NA
6bfdb,shallow,flow.Sequence,5_0_0_0_4_1,NA,NA,skipped,NA,867163.30000001,NA,NA,867160.218,867163.5,2023-05-17T16:06:01Z,867176.813,NULL,Wechsel,ugeuzaji,d,NA,NA,NA,NA,sdf,NA,0,NA,NA,NA,NA,NA,NA,NA,NA,NA,NA,NA,NA,NA,NA,NA,NA,NA,NA,NA
6bfdb,task,flow.Sequence,5_0_0_0_4,NA,NA,completion,9725.1409999999,857420.40000004,857418.225,857435.077,867160.218,867163.80000001,2023-05-17T16:06:01Z,867176.813,NULL,Wechsel,ugeuzaji,d,NA,NA,NA,NA,sdf,NA,0,NA,NA,NA,NA,NA,NA,NA,NA,NA,NA,NA,NA,NA,NA,NA,NA,NA,NA,NA
6bfdb,deep,flow.Sequence,5_0_0_0_5_0,NA,NA,skipped,NA,867164,NA,NA,867160.218,867164.10000002,2023-05-17T16:06:01Z,867176.813,NULL,Theorie,nadharia,s,ushungi,mkutano,uwakilishi,NA,sdf,NA,0,NA,NA,NA,NA,NA,NA,NA,NA,NA,NA,NA,NA,NA,NA,NA,NA,NA,NA,NA
6bfdb,Shallow Question,html.Page,5_0_0_0_5_1_0,NA,NA,form submission,20207.087000036,867164.19999999006,867160.218,867176.813,887383.90000004,887384.10000002,2023-05-17T16:06:21Z,887393.376,NULL,Theorie,nadharia,s,ushungi,mkutano,uwakilishi,nadharia,NA,NA,0,NA,NA,NA,NA,NA,NA,NA,NA,NA,NA,NA,NA,NA,NA,NA,NA,NA,NA,NA
6bfdb,"""Richtig""-Screen",canvas.Screen,5_0_0_0_5_1_1,NA,NA,timeout,4995.941,887386.40000004,887376.878,887393.376,892372.759,892374,2023-05-17T16:06:26Z,892389.317,NULL,Theorie,nadharia,s,ushungi,mkutano,uwakilishi,NA,sdf,1,0,NA,NA,NA,NA,NA,NA,NA,NA,NA,NA,NA,NA,NA,NA,NA,NA,NA,NA,NA
6bfdb,"""Falsch""-Screen",canvas.Screen,5_0_0_0_5_1_2,NA,NA,skipped,NA,892380.30000001,NA,NA,892372.759,892380.60000002,2023-05-17T16:06:26Z,892389.317,NULL,Theorie,nadharia,s,ushungi,mkutano,uwakilishi,NA,sdf,NA,0,NA,NA,NA,NA,NA,NA,NA,NA,NA,NA,NA,NA,NA,NA,NA,NA,NA,NA,NA
6bfdb,shallow,flow.Sequence,5_0_0_0_5_1,NA,NA,completion,25195.946,867164.19999999006,867160.218,867176.813,892372.759,892381,2023-05-17T16:06:26Z,892389.317,NULL,Theorie,nadharia,s,ushungi,mkutano,uwakilishi,NA,sdf,NA,0,NA,NA,NA,NA,NA,NA,NA,NA,NA,NA,NA,NA,NA,NA,NA,NA,NA,NA,NA
6bfdb,task,flow.Sequence,5_0_0_0_5,NA,NA,completion,25195.946,867163.90000004,867160.218,867176.813,892372.759,892381.19999999006,2023-05-17T16:06:26Z,892389.317,NULL,Theorie,nadharia,s,ushungi,mkutano,uwakilishi,NA,sdf,NA,0,NA,NA,NA,NA,NA,NA,NA,NA,NA,NA,NA,NA,NA,NA,NA,NA,NA,NA,NA
6bfdb,Deep Question,html.Page,5_0_0_0_6_0_0,NA,NA,form submission,3137.882999988,892381.40000004,892372.759,892389.317,895527.19999999006,895527.40000004,2023-05-17T16:06:29Z,895536.729,NULL,Hoffnung,matarajio,d,NA,NA,NA,j,NA,NA,0,NA,NA,NA,NA,NA,NA,NA,NA,NA,NA,NA,NA,NA,NA,NA,NA,NA,NA,NA
6bfdb,"""Richtig""-Screen",canvas.Screen,5_0_0_0_6_0_1,NA,NA,skipped,NA,895529.90000004,NA,NA,895527.19999999006,895530.10000002,2023-05-17T16:06:29Z,895536.729,NULL,Hoffnung,matarajio,d,NA,NA,NA,NA,sdf,NA,0,NA,NA,NA,NA,NA,NA,NA,NA,NA,NA,NA,NA,NA,NA,NA,NA,NA,NA,NA
6bfdb,"""Falsch""-Screen",canvas.Screen,5_0_0_0_6_0_2,NA,NA,timeout,4996.6259999999,895531.30000001,895520.058,895536.729,900516.595,900517.69999999006,2023-05-17T16:06:34Z,900533.355,NULL,Hoffnung,matarajio,d,NA,NA,NA,NA,sdf,0,0,NA,NA,NA,NA,NA,NA,NA,NA,NA,NA,NA,NA,NA,NA,NA,NA,NA,NA,NA
6bfdb,deep,flow.Sequence,5_0_0_0_6_0,NA,NA,completion,8127.2779999999,892381.40000004,892372.759,892389.317,900516.595,900518.10000002,2023-05-17T16:06:34Z,900533.355,NULL,Hoffnung,matarajio,d,NA,NA,NA,NA,sdf,NA,0,NA,NA,NA,NA,NA,NA,NA,NA,NA,NA,NA,NA,NA,NA,NA,NA,NA,NA,NA
6bfdb,shallow,flow.Sequence,5_0_0_0_6_1,NA,NA,skipped,NA,900518.30000000994,NA,NA,900516.595,900518.5,2023-05-17T16:06:34Z,900533.355,NULL,Hoffnung,matarajio,d,NA,NA,NA,NA,sdf,NA,0,NA,NA,NA,NA,NA,NA,NA,NA,NA,NA,NA,NA,NA,NA,NA,NA,NA,NA,NA
6bfdb,task,flow.Sequence,5_0_0_0_6,NA,NA,completion,8127.2779999999,892381.40000004,892372.759,892389.317,900516.595,900518.69999999006,2023-05-17T16:06:34Z,900533.355,NULL,Hoffnung,matarajio,d,NA,NA,NA,NA,sdf,NA,0,NA,NA,NA,NA,NA,NA,NA,NA,NA,NA,NA,NA,NA,NA,NA,NA,NA,NA,NA
6bfdb,deep,flow.Sequence,5_0_0_0_7_0,NA,NA,skipped,NA,900518.90000004,NA,NA,900516.595,900519.10000002,2023-05-17T16:06:34Z,900533.355,NULL,Flexibilität,kubadilika,s,enjini,usikilivu,hesabu,NA,sdf,NA,0,NA,NA,NA,NA,NA,NA,NA,NA,NA,NA,NA,NA,NA,NA,NA,NA,NA,NA,NA
6bfdb,Shallow Question,html.Page,5_0_0_0_7_1_0,NA,NA,form submission,16698.645,900519.30000001,900516.595,900533.355,917232,917232.19999999006,2023-05-17T16:06:51Z,917235.485,NULL,Flexibilität,kubadilika,s,enjini,usikilivu,hesabu,usikilivu,NA,NA,0,NA,NA,NA,NA,NA,NA,NA,NA,NA,NA,NA,NA,NA,NA,NA,NA,NA,NA,NA
6bfdb,"""Richtig""-Screen",canvas.Screen,5_0_0_0_7_1_1,NA,NA,skipped,NA,917234.19999999006,NA,NA,917232,917234.30000001,2023-05-17T16:06:51Z,917235.485,NULL,Flexibilität,kubadilika,s,enjini,usikilivu,hesabu,NA,sdf,NA,0,NA,NA,NA,NA,NA,NA,NA,NA,NA,NA,NA,NA,NA,NA,NA,NA,NA,NA,NA
6bfdb,"""Falsch""-Screen",canvas.Screen,5_0_0_0_7_1_2,NA,NA,timeout,4995.8960000001,917234.90000004,917219.091,917235.485,922214.807,922216.10000002,2023-05-17T16:06:56Z,922231.381,NULL,Flexibilität,kubadilika,s,enjini,usikilivu,hesabu,NA,sdf,0,0,NA,NA,NA,NA,NA,NA,NA,NA,NA,NA,NA,NA,NA,NA,NA,NA,NA,NA,NA
6bfdb,shallow,flow.Sequence,5_0_0_0_7_1,NA,NA,completion,21681.452,900519.30000001,900516.595,900533.355,922214.807,922216.19999999006,2023-05-17T16:06:56Z,922231.381,NULL,Flexibilität,kubadilika,s,enjini,usikilivu,hesabu,NA,sdf,NA,0,NA,NA,NA,NA,NA,NA,NA,NA,NA,NA,NA,NA,NA,NA,NA,NA,NA,NA,NA
6bfdb,task,flow.Sequence,5_0_0_0_7,NA,NA,completion,21681.452,900518.80000001,900516.595,900533.355,922214.807,922216.30000000994,2023-05-17T16:06:56Z,922231.381,NULL,Flexibilität,kubadilika,s,enjini,usikilivu,hesabu,NA,sdf,NA,0,NA,NA,NA,NA,NA,NA,NA,NA,NA,NA,NA,NA,NA,NA,NA,NA,NA,NA,NA
6bfdb,block,flow.Loop,5_0_0_0,NA,NA,completion,143147.716,779048.30000001,779032.426,779067.091,922214.807,922216.40000004,2023-05-17T16:06:56Z,922231.381,NULL,NA,NA,NA,NA,NA,NA,NA,sdf,NA,0,NA,NA,NA,NA,NA,NA,NA,NA,NA,NA,NA,NA,NA,NA,NA,NA,NA,NA,NA
6bfdb,weiter,canvas.Screen,5_0_0_1,sdf,keypress(Space),response,913.71900002379,922216.40000004,922214.807,922231.381,923145.10000002,923150.40000004,2023-05-17T16:06:57Z,923180.577,NULL,NA,NA,NA,NA,NA,NA,NA,sdf,NA,0,NA,NA,NA,NA,NA,NA,NA,NA,NA,NA,NA,NA,NA,NA,NA,NA,NA,NA,NA
6bfdb,check continue,flow.Sequence,5_0_0,NA,NA,completion,144078.00900002,779048.19999999006,779032.426,779067.091,923145.10000002,923150.60000002,2023-05-17T16:06:57Z,923180.577,NULL,NA,NA,NA,NA,NA,NA,NA,sdf,NA,0,NA,NA,NA,NA,NA,NA,NA,NA,NA,NA,NA,NA,NA,NA,NA,NA,NA,NA,NA
6bfdb,Deep Question,html.Page,5_0_1_0_0_0_0,NA,NA,form submission,15307.122999988,923176.80000001,923164.711,923180.577,938487.69999999006,938487.90000004,2023-05-17T16:07:12Z,938501.339,NULL,Wechsel,ugeuzaji,d,NA,NA,NA,n,NA,NA,1,NA,NA,NA,NA,NA,NA,NA,NA,NA,NA,NA,NA,NA,NA,NA,NA,NA,NA,NA
6bfdb,"""Richtig""-Screen",canvas.Screen,5_0_1_0_0_0_1,NA,NA,skipped,NA,938490.10000002,NA,NA,938487.69999999006,938490.19999999006,2023-05-17T16:07:12Z,938501.339,NULL,Wechsel,ugeuzaji,d,NA,NA,NA,NA,sdfdsf,NA,1,NA,NA,NA,NA,NA,NA,NA,NA,NA,NA,NA,NA,NA,NA,NA,NA,NA,NA,NA
6bfdb,"""Falsch""-Screen",canvas.Screen,5_0_1_0_0_0_2,NA,NA,timeout,4995.941,938491.10000002,938484.699,938501.339,943480.597,943481.10000002,2023-05-17T16:07:17Z,943497.28,NULL,Wechsel,ugeuzaji,d,NA,NA,NA,NA,sdfdsf,0,1,NA,NA,NA,NA,NA,NA,NA,NA,NA,NA,NA,NA,NA,NA,NA,NA,NA,NA,NA
6bfdb,deep,flow.Sequence,5_0_1_0_0_0,NA,NA,completion,20300.02,923176.80000001,923164.711,923180.577,943480.597,943481.30000001,2023-05-17T16:07:17Z,943497.28,NULL,Wechsel,ugeuzaji,d,NA,NA,NA,NA,sdfdsf,NA,1,NA,NA,NA,NA,NA,NA,NA,NA,NA,NA,NA,NA,NA,NA,NA,NA,NA,NA,NA
6bfdb,shallow,flow.Sequence,5_0_1_0_0_1,NA,NA,skipped,NA,943481.40000004,NA,NA,943480.597,943481.5,2023-05-17T16:07:17Z,943497.28,NULL,Wechsel,ugeuzaji,d,NA,NA,NA,NA,sdfdsf,NA,1,NA,NA,NA,NA,NA,NA,NA,NA,NA,NA,NA,NA,NA,NA,NA,NA,NA,NA,NA
6bfdb,task,flow.Sequence,5_0_1_0_0,NA,NA,completion,20300.02,923176.69999999006,923164.711,923180.577,943480.597,943481.60000002,2023-05-17T16:07:17Z,943497.28,NULL,Wechsel,ugeuzaji,d,NA,NA,NA,NA,sdfdsf,NA,1,NA,NA,NA,NA,NA,NA,NA,NA,NA,NA,NA,NA,NA,NA,NA,NA,NA,NA,NA
6bfdb,Deep Question,html.Page,5_0_1_0_1_0_0,NA,NA,form submission,34557.520000012,943481.69999999006,943480.597,943497.28,978054.80000001,978055,2023-05-17T16:07:51Z,978086.06,NULL,Hoffnung,matarajio,d,NA,NA,NA,matara,NA,NA,1,NA,NA,NA,NA,NA,NA,NA,NA,NA,NA,NA,NA,NA,NA,NA,NA,NA,NA,NA
6bfdb,"""Richtig""-Screen",canvas.Screen,5_0_1_0_1_0_1,NA,NA,skipped,NA,978057.40000004,NA,NA,978054.80000001,978057.5,2023-05-17T16:07:51Z,978086.06,NULL,Hoffnung,matarajio,d,NA,NA,NA,NA,sdfdsf,NA,1,NA,NA,NA,NA,NA,NA,NA,NA,NA,NA,NA,NA,NA,NA,NA,NA,NA,NA,NA
6bfdb,"""Falsch""-Screen",canvas.Screen,5_0_1_0_1_0_2,NA,NA,timeout,4995.218,978058.10000002,978069.023,978086.06,983065.205,983066.10000002,2023-05-17T16:07:57Z,983081.278,NULL,Hoffnung,matarajio,d,NA,NA,NA,NA,sdfdsf,0,1,NA,NA,NA,NA,NA,NA,NA,NA,NA,NA,NA,NA,NA,NA,NA,NA,NA,NA,NA
6bfdb,deep,flow.Sequence,5_0_1_0_1_0,NA,NA,completion,39567.925,943481.60000002,943480.597,943497.28,983065.205,983066.30000000994,2023-05-17T16:07:57Z,983081.278,NULL,Hoffnung,matarajio,d,NA,NA,NA,NA,sdfdsf,NA,1,NA,NA,NA,NA,NA,NA,NA,NA,NA,NA,NA,NA,NA,NA,NA,NA,NA,NA,NA
6bfdb,shallow,flow.Sequence,5_0_1_0_1_1,NA,NA,skipped,NA,983066.40000004,NA,NA,983065.205,983066.5,2023-05-17T16:07:57Z,983081.278,NULL,Hoffnung,matarajio,d,NA,NA,NA,NA,sdfdsf,NA,1,NA,NA,NA,NA,NA,NA,NA,NA,NA,NA,NA,NA,NA,NA,NA,NA,NA,NA,NA
6bfdb,task,flow.Sequence,5_0_1_0_1,NA,NA,completion,39567.925,943481.60000002,943480.597,943497.28,983065.205,983066.69999999006,2023-05-17T16:07:57Z,983081.278,NULL,Hoffnung,matarajio,d,NA,NA,NA,NA,sdfdsf,NA,1,NA,NA,NA,NA,NA,NA,NA,NA,NA,NA,NA,NA,NA,NA,NA,NA,NA,NA,NA
6bfdb,deep,flow.Sequence,5_0_1_0_2_0,NA,NA,skipped,NA,983066.80000000994,NA,NA,983065.205,983066.90000004,2023-05-17T16:07:57Z,983081.278,NULL,Schock,mshtuko,s,biashara,kukataza,vichekesho,NA,sdfdsf,NA,1,NA,NA,NA,NA,NA,NA,NA,NA,NA,NA,NA,NA,NA,NA,NA,NA,NA,NA,NA
6bfdb,Shallow Question,html.Page,5_0_1_0_2_1_0,NA,NA,form submission,8148.6220000357,983067,983065.205,983081.278,991229.90000004,991230,2023-05-17T16:08:05Z,991241.235,NULL,Schock,mshtuko,s,biashara,kukataza,vichekesho,mshtuko,NA,NA,1,NA,NA,NA,NA,NA,NA,NA,NA,NA,NA,NA,NA,NA,NA,NA,NA,NA,NA,NA
6bfdb,"""Richtig""-Screen",canvas.Screen,5_0_1_0_2_1_1,NA,NA,timeout,4995.904,991232,991224.651,991241.235,996220.957,996222,2023-05-17T16:08:10Z,996237.139,NULL,Schock,mshtuko,s,biashara,kukataza,vichekesho,NA,sdfdsf,1,1,NA,NA,NA,NA,NA,NA,NA,NA,NA,NA,NA,NA,NA,NA,NA,NA,NA,NA,NA
6bfdb,"""Falsch""-Screen",canvas.Screen,5_0_1_0_2_1_2,NA,NA,skipped,NA,996227.69999999006,NA,NA,996220.957,996228.10000002,2023-05-17T16:08:10Z,996237.139,NULL,Schock,mshtuko,s,biashara,kukataza,vichekesho,NA,sdfdsf,NA,1,NA,NA,NA,NA,NA,NA,NA,NA,NA,NA,NA,NA,NA,NA,NA,NA,NA,NA,NA
6bfdb,shallow,flow.Sequence,5_0_1_0_2_1,NA,NA,completion,13139.679,983067,983065.205,983081.278,996220.957,996228.40000004,2023-05-17T16:08:10Z,996237.139,NULL,Schock,mshtuko,s,biashara,kukataza,vichekesho,NA,sdfdsf,NA,1,NA,NA,NA,NA,NA,NA,NA,NA,NA,NA,NA,NA,NA,NA,NA,NA,NA,NA,NA
6bfdb,task,flow.Sequence,5_0_1_0_2,NA,NA,completion,13139.679,983066.80000000994,983065.205,983081.278,996220.957,996228.69999999006,2023-05-17T16:08:10Z,996237.139,NULL,Schock,mshtuko,s,biashara,kukataza,vichekesho,NA,sdfdsf,NA,1,NA,NA,NA,NA,NA,NA,NA,NA,NA,NA,NA,NA,NA,NA,NA,NA,NA,NA,NA
6bfdb,deep,flow.Sequence,5_0_1_0_3_0,NA,NA,skipped,NA,996228.90000004,NA,NA,996220.957,996229,2023-05-17T16:08:10Z,996237.139,NULL,Flexibilität,kubadilika,s,enjini,usikilivu,hesabu,NA,sdfdsf,NA,1,NA,NA,NA,NA,NA,NA,NA,NA,NA,NA,NA,NA,NA,NA,NA,NA,NA,NA,NA
6bfdb,Shallow Question,html.Page,5_0_1_0_3_1_0,NA,NA,form submission,14522.560999988,996229.19999999006,996220.957,996237.139,1010759.7,1010759.8,2023-05-17T16:08:24Z,1010775.649,NULL,Flexibilität,kubadilika,s,enjini,usikilivu,hesabu,kubadilika,NA,NA,1,NA,NA,NA,NA,NA,NA,NA,NA,NA,NA,NA,NA,NA,NA,NA,NA,NA,NA,NA
6bfdb,"""Richtig""-Screen",canvas.Screen,5_0_1_0_3_1_1,NA,NA,timeout,4995.5630000001,1010761.7,1010758.648,1010775.649,1015754.969,1015756,2023-05-17T16:08:29Z,1015771.212,NULL,Flexibilität,kubadilika,s,enjini,usikilivu,hesabu,NA,sdfdsf,1,1,NA,NA,NA,NA,NA,NA,NA,NA,NA,NA,NA,NA,NA,NA,NA,NA,NA,NA,NA
6bfdb,"""Falsch""-Screen",canvas.Screen,5_0_1_0_3_1_2,NA,NA,skipped,NA,1015761.9,NA,NA,1015754.969,1015762.2,2023-05-17T16:08:29Z,1015771.212,NULL,Flexibilität,kubadilika,s,enjini,usikilivu,hesabu,NA,sdfdsf,NA,1,NA,NA,NA,NA,NA,NA,NA,NA,NA,NA,NA,NA,NA,NA,NA,NA,NA,NA,NA
6bfdb,shallow,flow.Sequence,5_0_1_0_3_1,NA,NA,completion,19517.83,996229.19999999006,996220.957,996237.139,1015754.969,1015762.5,2023-05-17T16:08:29Z,1015771.212,NULL,Flexibilität,kubadilika,s,enjini,usikilivu,hesabu,NA,sdfdsf,NA,1,NA,NA,NA,NA,NA,NA,NA,NA,NA,NA,NA,NA,NA,NA,NA,NA,NA,NA,NA
6bfdb,task,flow.Sequence,5_0_1_0_3,NA,NA,completion,19517.83,996228.80000001,996220.957,996237.139,1015754.969,1015762.8,2023-05-17T16:08:29Z,1015771.212,NULL,Flexibilität,kubadilika,s,enjini,usikilivu,hesabu,NA,sdfdsf,NA,1,NA,NA,NA,NA,NA,NA,NA,NA,NA,NA,NA,NA,NA,NA,NA,NA,NA,NA,NA
6bfdb,Deep Question,html.Page,5_0_1_0_4_0_0,NA,NA,form submission,19309.088000012,1015763,1015754.969,1015771.212,1035080.3,1035080.5,2023-05-17T16:08:49Z,1035088.488,NULL,Erneuerung,ukarabati,d,NA,NA,NA,uokatabati,NA,NA,1,NA,NA,NA,NA,NA,NA,NA,NA,NA,NA,NA,NA,NA,NA,NA,NA,NA,NA,NA
6bfdb,"""Richtig""-Screen",canvas.Screen,5_0_1_0_4_0_1,NA,NA,skipped,NA,1035082.5,NA,NA,1035080.3,1035082.6,2023-05-17T16:08:49Z,1035088.488,NULL,Erneuerung,ukarabati,d,NA,NA,NA,NA,sdfdsf,NA,1,NA,NA,NA,NA,NA,NA,NA,NA,NA,NA,NA,NA,NA,NA,NA,NA,NA,NA,NA
6bfdb,"""Falsch""-Screen",canvas.Screen,5_0_1_0_4_0_2,NA,NA,timeout,4995.865,1035083.2,1035072.114,1035088.488,1040068.287,1040069,2023-05-17T16:08:54Z,1040084.353,NULL,Erneuerung,ukarabati,d,NA,NA,NA,NA,sdfdsf,0,1,NA,NA,NA,NA,NA,NA,NA,NA,NA,NA,NA,NA,NA,NA,NA,NA,NA,NA,NA
6bfdb,deep,flow.Sequence,5_0_1_0_4_0,NA,NA,completion,24297.075,1015762.9,1015754.969,1015771.212,1040068.287,1040069.3,2023-05-17T16:08:54Z,1040084.353,NULL,Erneuerung,ukarabati,d,NA,NA,NA,NA,sdfdsf,NA,1,NA,NA,NA,NA,NA,NA,NA,NA,NA,NA,NA,NA,NA,NA,NA,NA,NA,NA,NA
6bfdb,shallow,flow.Sequence,5_0_1_0_4_1,NA,NA,skipped,NA,1040069.5,NA,NA,1040068.287,1040069.6,2023-05-17T16:08:54Z,1040084.353,NULL,Erneuerung,ukarabati,d,NA,NA,NA,NA,sdfdsf,NA,1,NA,NA,NA,NA,NA,NA,NA,NA,NA,NA,NA,NA,NA,NA,NA,NA,NA,NA,NA
6bfdb,task,flow.Sequence,5_0_1_0_4,NA,NA,completion,24297.075,1015762.9,1015754.969,1015771.212,1040068.287,1040069.8,2023-05-17T16:08:54Z,1040084.353,NULL,Erneuerung,ukarabati,d,NA,NA,NA,NA,sdfdsf,NA,1,NA,NA,NA,NA,NA,NA,NA,NA,NA,NA,NA,NA,NA,NA,NA,NA,NA,NA,NA
6bfdb,deep,flow.Sequence,5_0_1_0_5_0,NA,NA,skipped,NA,1040069.9,NA,NA,1040068.287,1040070.1,2023-05-17T16:08:54Z,1040084.353,NULL,Theorie,nadharia,s,ushungi,mkutano,uwakilishi,NA,sdfdsf,NA,1,NA,NA,NA,NA,NA,NA,NA,NA,NA,NA,NA,NA,NA,NA,NA,NA,NA,NA,NA
6bfdb,Shallow Question,html.Page,5_0_1_0_5_1_0,NA,NA,form submission,10898.147,1040070.1,1040068.287,1040084.353,1050982.5,1050982.7,2023-05-17T16:09:04Z,1050992.054,NULL,Theorie,nadharia,s,ushungi,mkutano,uwakilishi,nadharia,NA,NA,1,NA,NA,NA,NA,NA,NA,NA,NA,NA,NA,NA,NA,NA,NA,NA,NA,NA,NA,NA
6bfdb,"""Richtig""-Screen",canvas.Screen,5_0_1_0_5_1_1,NA,NA,timeout,4995.9269999999,1050984.8,1050975.709,1050992.054,1055971.566,1055972.6,2023-05-17T16:09:09Z,1055987.981,NULL,Theorie,nadharia,s,ushungi,mkutano,uwakilishi,NA,sdfdsf,1,1,NA,NA,NA,NA,NA,NA,NA,NA,NA,NA,NA,NA,NA,NA,NA,NA,NA,NA,NA
6bfdb,"""Falsch""-Screen",canvas.Screen,5_0_1_0_5_1_2,NA,NA,skipped,NA,1055978.3,NA,NA,1055971.566,1055978.7,2023-05-17T16:09:09Z,1055987.981,NULL,Theorie,nadharia,s,ushungi,mkutano,uwakilishi,NA,sdfdsf,NA,1,NA,NA,NA,NA,NA,NA,NA,NA,NA,NA,NA,NA,NA,NA,NA,NA,NA,NA,NA
6bfdb,shallow,flow.Sequence,5_0_1_0_5_1,NA,NA,completion,15887.213,1040070.1,1040068.287,1040084.353,1055971.566,1055979.1,2023-05-17T16:09:09Z,1055987.981,NULL,Theorie,nadharia,s,ushungi,mkutano,uwakilishi,NA,sdfdsf,NA,1,NA,NA,NA,NA,NA,NA,NA,NA,NA,NA,NA,NA,NA,NA,NA,NA,NA,NA,NA
6bfdb,task,flow.Sequence,5_0_1_0_5,NA,NA,completion,15887.213,1040069.8,1040068.287,1040084.353,1055971.566,1055979.3,2023-05-17T16:09:09Z,1055987.981,NULL,Theorie,nadharia,s,ushungi,mkutano,uwakilishi,NA,sdfdsf,NA,1,NA,NA,NA,NA,NA,NA,NA,NA,NA,NA,NA,NA,NA,NA,NA,NA,NA,NA,NA
6bfdb,deep,flow.Sequence,5_0_1_0_6_0,NA,NA,skipped,NA,1055979.4,NA,NA,1055971.566,1055979.7,2023-05-17T16:09:09Z,1055987.981,NULL,Atmosphäre,angahewa,s,kuteseka,usahihi,kutoamini,NA,sdfdsf,NA,1,NA,NA,NA,NA,NA,NA,NA,NA,NA,NA,NA,NA,NA,NA,NA,NA,NA,NA,NA
6bfdb,Shallow Question,html.Page,5_0_1_0_6_1_0,NA,NA,form submission,7083.2189999882,1055979.9,1055971.566,1055987.981,1063071.2,1063071.4,2023-05-17T16:09:17Z,1063082.535,NULL,Atmosphäre,angahewa,s,kuteseka,usahihi,kutoamini,angahewa,NA,NA,1,NA,NA,NA,NA,NA,NA,NA,NA,NA,NA,NA,NA,NA,NA,NA,NA,NA,NA,NA
6bfdb,"""Richtig""-Screen",canvas.Screen,5_0_1_0_6_1_1,NA,NA,timeout,4995.5580000002,1063073.2,1063065.47,1063082.535,1068061.792,1068062.8,2023-05-17T16:09:21Z,1068078.093,NULL,Atmosphäre,angahewa,s,kuteseka,usahihi,kutoamini,NA,sdfdsf,1,1,NA,NA,NA,NA,NA,NA,NA,NA,NA,NA,NA,NA,NA,NA,NA,NA,NA,NA,NA
6bfdb,"""Falsch""-Screen",canvas.Screen,5_0_1_0_6_1_2,NA,NA,skipped,NA,1068068.6,NA,NA,1068061.792,1068069,2023-05-17T16:09:22Z,1068078.093,NULL,Atmosphäre,angahewa,s,kuteseka,usahihi,kutoamini,NA,sdfdsf,NA,1,NA,NA,NA,NA,NA,NA,NA,NA,NA,NA,NA,NA,NA,NA,NA,NA,NA,NA,NA
6bfdb,shallow,flow.Sequence,5_0_1_0_6_1,NA,NA,completion,12073.811,1055979.9,1055971.566,1055987.981,1068061.792,1068069.3,2023-05-17T16:09:22Z,1068078.093,NULL,Atmosphäre,angahewa,s,kuteseka,usahihi,kutoamini,NA,sdfdsf,NA,1,NA,NA,NA,NA,NA,NA,NA,NA,NA,NA,NA,NA,NA,NA,NA,NA,NA,NA,NA
6bfdb,task,flow.Sequence,5_0_1_0_6,NA,NA,completion,12073.811,1055979.4,1055971.566,1055987.981,1068061.792,1068069.6,2023-05-17T16:09:22Z,1068078.093,NULL,Atmosphäre,angahewa,s,kuteseka,usahihi,kutoamini,NA,sdfdsf,NA,1,NA,NA,NA,NA,NA,NA,NA,NA,NA,NA,NA,NA,NA,NA,NA,NA,NA,NA,NA
6bfdb,Deep Question,html.Page,5_0_1_0_7_0_0,NA,NA,form submission,11884.507000024,1068069.9,1068061.792,1068078.093,1079962.6,1079962.7,2023-05-17T16:09:33Z,1079968.173,NULL,Verpackung,ufungaji,d,NA,NA,NA,ufhungi,NA,NA,1,NA,NA,NA,NA,NA,NA,NA,NA,NA,NA,NA,NA,NA,NA,NA,NA,NA,NA,NA
6bfdb,"""Richtig""-Screen",canvas.Screen,5_0_1_0_7_0_1,NA,NA,skipped,NA,1079965.1,NA,NA,1079962.6,1079965.2,2023-05-17T16:09:33Z,1079968.173,NULL,Verpackung,ufungaji,d,NA,NA,NA,NA,sdfdsf,NA,1,NA,NA,NA,NA,NA,NA,NA,NA,NA,NA,NA,NA,NA,NA,NA,NA,NA,NA,NA
6bfdb,"""Falsch""-Screen",canvas.Screen,5_0_1_0_7_0_2,NA,NA,timeout,4995.898,1079965.8,1079952.159,1079968.173,1084948.038,1084949,2023-05-17T16:09:38Z,1084964.071,NULL,Verpackung,ufungaji,d,NA,NA,NA,NA,sdfdsf,0,1,NA,NA,NA,NA,NA,NA,NA,NA,NA,NA,NA,NA,NA,NA,NA,NA,NA,NA,NA
6bfdb,deep,flow.Sequence,5_0_1_0_7_0,NA,NA,completion,16869.945,1068069.8,1068061.792,1068078.093,1084948.038,1084949.3,2023-05-17T16:09:38Z,1084964.071,NULL,Verpackung,ufungaji,d,NA,NA,NA,NA,sdfdsf,NA,1,NA,NA,NA,NA,NA,NA,NA,NA,NA,NA,NA,NA,NA,NA,NA,NA,NA,NA,NA
6bfdb,shallow,flow.Sequence,5_0_1_0_7_1,NA,NA,skipped,NA,1084949.6,NA,NA,1084948.038,1084949.7,2023-05-17T16:09:38Z,1084964.071,NULL,Verpackung,ufungaji,d,NA,NA,NA,NA,sdfdsf,NA,1,NA,NA,NA,NA,NA,NA,NA,NA,NA,NA,NA,NA,NA,NA,NA,NA,NA,NA,NA
6bfdb,task,flow.Sequence,5_0_1_0_7,NA,NA,completion,16869.945,1068069.8,1068061.792,1068078.093,1084948.038,1084949.9,2023-05-17T16:09:38Z,1084964.071,NULL,Verpackung,ufungaji,d,NA,NA,NA,NA,sdfdsf,NA,1,NA,NA,NA,NA,NA,NA,NA,NA,NA,NA,NA,NA,NA,NA,NA,NA,NA,NA,NA
6bfdb,block,flow.Loop,5_0_1_0,NA,NA,completion,161767.461,923176.69999999006,923164.711,923180.577,1084948.038,1084950.2,2023-05-17T16:09:38Z,1084964.071,NULL,NA,NA,NA,NA,NA,NA,NA,sdfdsf,NA,1,NA,NA,NA,NA,NA,NA,NA,NA,NA,NA,NA,NA,NA,NA,NA,NA,NA,NA,NA
6bfdb,weiter,canvas.Screen,5_0_1_1,sdf,keypress(Space),response,1170.429,1084950.4,1084948.038,1084964.071,1086134.5,1086139.2,2023-05-17T16:09:40Z,1086179.831,NULL,NA,NA,NA,NA,NA,NA,NA,sdfdsf,NA,1,NA,NA,NA,NA,NA,NA,NA,NA,NA,NA,NA,NA,NA,NA,NA,NA,NA,NA,NA
6bfdb,check continue,flow.Sequence,5_0_1,NA,NA,completion,162953.923,923176.69999999006,923164.711,923180.577,1086134.5,1086139.6,2023-05-17T16:09:40Z,1086179.831,NULL,NA,NA,NA,NA,NA,NA,NA,sdfdsf,NA,1,NA,NA,NA,NA,NA,NA,NA,NA,NA,NA,NA,NA,NA,NA,NA,NA,NA,NA,NA
6bfdb,deep,flow.Sequence,5_0_2_0_0_0,NA,NA,skipped,NA,1086166.4,NA,NA,1086134.5,1086166.4,2023-05-17T16:09:40Z,1086179.831,NULL,Schock,mshtuko,s,biashara,kukataza,vichekesho,NA,sdf,NA,2,NA,NA,NA,NA,NA,NA,NA,NA,NA,NA,NA,NA,NA,NA,NA,NA,NA,NA,NA
6bfdb,Shallow Question,html.Page,5_0_2_0_0_1_0,NA,NA,form submission,4765.4690000119,1086166.6,1086163.781,1086179.831,1090945.3,1090945.4,2023-05-17T16:09:44Z,1090959.272,NULL,Schock,mshtuko,s,biashara,kukataza,vichekesho,mshtuko,NA,NA,2,NA,NA,NA,NA,NA,NA,NA,NA,NA,NA,NA,NA,NA,NA,NA,NA,NA,NA,NA
6bfdb,"""Richtig""-Screen",canvas.Screen,5_0_2_0_0_1_1,NA,NA,timeout,4995.8419999999,1090947.2,1090942.781,1090959.272,1095939.028,1095939.6,2023-05-17T16:09:49Z,1095955.114,NULL,Schock,mshtuko,s,biashara,kukataza,vichekesho,NA,sdf,1,2,NA,NA,NA,NA,NA,NA,NA,NA,NA,NA,NA,NA,NA,NA,NA,NA,NA,NA,NA
6bfdb,"""Falsch""-Screen",canvas.Screen,5_0_2_0_0_1_2,NA,NA,skipped,NA,1095942,NA,NA,1095939.028,1095942.2,2023-05-17T16:09:49Z,1095955.114,NULL,Schock,mshtuko,s,biashara,kukataza,vichekesho,NA,sdf,NA,2,NA,NA,NA,NA,NA,NA,NA,NA,NA,NA,NA,NA,NA,NA,NA,NA,NA,NA,NA
6bfdb,shallow,flow.Sequence,5_0_2_0_0_1,NA,NA,completion,9759.1969999999,1086166.6,1086163.781,1086179.831,1095939.028,1095942.2,2023-05-17T16:09:49Z,1095955.114,NULL,Schock,mshtuko,s,biashara,kukataza,vichekesho,NA,sdf,NA,2,NA,NA,NA,NA,NA,NA,NA,NA,NA,NA,NA,NA,NA,NA,NA,NA,NA,NA,NA
6bfdb,task,flow.Sequence,5_0_2_0_0,NA,NA,completion,9759.1969999999,1086166.4,1086163.781,1086179.831,1095939.028,1095942.4,2023-05-17T16:09:49Z,1095955.114,NULL,Schock,mshtuko,s,biashara,kukataza,vichekesho,NA,sdf,NA,2,NA,NA,NA,NA,NA,NA,NA,NA,NA,NA,NA,NA,NA,NA,NA,NA,NA,NA,NA
6bfdb,Deep Question,html.Page,5_0_2_0_1_0_0,NA,NA,form submission,17680.686000012,1095942.5,1095939.028,1095955.114,1113635.8,1113635.9,2023-05-17T16:10:07Z,1113640.459,NULL,Wechsel,ugeuzaji,d,NA,NA,NA,ugeuzaji,NA,NA,2,NA,NA,NA,NA,NA,NA,NA,NA,NA,NA,NA,NA,NA,NA,NA,NA,NA,NA,NA
6bfdb,"""Richtig""-Screen",canvas.Screen,5_0_2_0_1_0_1,NA,NA,timeout,4995.9479999999,1113637.7,1113624.075,1113640.459,1118619.869,1118621.1,2023-05-17T16:10:12Z,1118636.407,NULL,Wechsel,ugeuzaji,d,NA,NA,NA,NA,sdf,1,2,NA,NA,NA,NA,NA,NA,NA,NA,NA,NA,NA,NA,NA,NA,NA,NA,NA,NA,NA
6bfdb,"""Falsch""-Screen",canvas.Screen,5_0_2_0_1_0_2,NA,NA,skipped,NA,1118626.5,NA,NA,1118619.869,1118626.9,2023-05-17T16:10:12Z,1118636.407,NULL,Wechsel,ugeuzaji,d,NA,NA,NA,NA,sdf,NA,2,NA,NA,NA,NA,NA,NA,NA,NA,NA,NA,NA,NA,NA,NA,NA,NA,NA,NA,NA
6bfdb,deep,flow.Sequence,5_0_2_0_1_0,NA,NA,completion,22664.755,1095942.5,1095939.028,1095955.114,1118619.869,1118627.3,2023-05-17T16:10:12Z,1118636.407,NULL,Wechsel,ugeuzaji,d,NA,NA,NA,NA,sdf,NA,2,NA,NA,NA,NA,NA,NA,NA,NA,NA,NA,NA,NA,NA,NA,NA,NA,NA,NA,NA
6bfdb,shallow,flow.Sequence,5_0_2_0_1_1,NA,NA,skipped,NA,1118627.4,NA,NA,1118619.869,1118627.5,2023-05-17T16:10:12Z,1118636.407,NULL,Wechsel,ugeuzaji,d,NA,NA,NA,NA,sdf,NA,2,NA,NA,NA,NA,NA,NA,NA,NA,NA,NA,NA,NA,NA,NA,NA,NA,NA,NA,NA
6bfdb,task,flow.Sequence,5_0_2_0_1,NA,NA,completion,22664.755,1095942.4,1095939.028,1095955.114,1118619.869,1118627.7,2023-05-17T16:10:12Z,1118636.407,NULL,Wechsel,ugeuzaji,d,NA,NA,NA,NA,sdf,NA,2,NA,NA,NA,NA,NA,NA,NA,NA,NA,NA,NA,NA,NA,NA,NA,NA,NA,NA,NA
6bfdb,deep,flow.Sequence,5_0_2_0_2_0,NA,NA,skipped,NA,1118627.9,NA,NA,1118619.869,1118628,2023-05-17T16:10:12Z,1118636.407,NULL,Theorie,nadharia,s,ushungi,mkutano,uwakilishi,NA,sdf,NA,2,NA,NA,NA,NA,NA,NA,NA,NA,NA,NA,NA,NA,NA,NA,NA,NA,NA,NA,NA
6bfdb,Shallow Question,html.Page,5_0_2_0_2_1_0,NA,NA,form submission,4725.893000012,1118628.2,1118619.869,1118636.407,1123362.3,1123362.4,2023-05-17T16:10:17Z,1123365.784,NULL,Theorie,nadharia,s,ushungi,mkutano,uwakilishi,nadharia,NA,NA,2,NA,NA,NA,NA,NA,NA,NA,NA,NA,NA,NA,NA,NA,NA,NA,NA,NA,NA,NA
6bfdb,"""Richtig""-Screen",canvas.Screen,5_0_2_0_2_1_1,NA,NA,timeout,4995.8800000001,1123364.3,1123349.556,1123365.784,1128345.156,1128347,2023-05-17T16:10:22Z,1128361.664,NULL,Theorie,nadharia,s,ushungi,mkutano,uwakilishi,NA,sdf,1,2,NA,NA,NA,NA,NA,NA,NA,NA,NA,NA,NA,NA,NA,NA,NA,NA,NA,NA,NA
6bfdb,"""Falsch""-Screen",canvas.Screen,5_0_2_0_2_1_2,NA,NA,skipped,NA,1128352.3,NA,NA,1128345.156,1128352.7,2023-05-17T16:10:22Z,1128361.664,NULL,Theorie,nadharia,s,ushungi,mkutano,uwakilishi,NA,sdf,NA,2,NA,NA,NA,NA,NA,NA,NA,NA,NA,NA,NA,NA,NA,NA,NA,NA,NA,NA,NA
6bfdb,shallow,flow.Sequence,5_0_2_0_2_1,NA,NA,completion,9708.7490000001,1118628.1,1118619.869,1118636.407,1128345.156,1128353,2023-05-17T16:10:22Z,1128361.664,NULL,Theorie,nadharia,s,ushungi,mkutano,uwakilishi,NA,sdf,NA,2,NA,NA,NA,NA,NA,NA,NA,NA,NA,NA,NA,NA,NA,NA,NA,NA,NA,NA,NA
6bfdb,task,flow.Sequence,5_0_2_0_2,NA,NA,completion,9708.7490000001,1118627.9,1118619.869,1118636.407,1128345.156,1128353.2,2023-05-17T16:10:22Z,1128361.664,NULL,Theorie,nadharia,s,ushungi,mkutano,uwakilishi,NA,sdf,NA,2,NA,NA,NA,NA,NA,NA,NA,NA,NA,NA,NA,NA,NA,NA,NA,NA,NA,NA,NA
6bfdb,Deep Question,html.Page,5_0_2_0_3_0_0,NA,NA,form submission,42392.035999988,1128353.5,1128345.156,1128361.664,1170753.7,1170753.9,2023-05-17T16:11:04Z,1170760.091,NULL,Verpackung,ufungaji,d,NA,NA,NA,ufungazij,NA,NA,2,NA,NA,NA,NA,NA,NA,NA,NA,NA,NA,NA,NA,NA,NA,NA,NA,NA,NA,NA
6bfdb,"""Richtig""-Screen",canvas.Screen,5_0_2_0_3_0_1,NA,NA,skipped,NA,1170755.9,NA,NA,1170753.7,1170756.1,2023-05-17T16:11:04Z,1170760.091,NULL,Verpackung,ufungaji,d,NA,NA,NA,NA,sdf,NA,2,NA,NA,NA,NA,NA,NA,NA,NA,NA,NA,NA,NA,NA,NA,NA,NA,NA,NA,NA
6bfdb,"""Falsch""-Screen",canvas.Screen,5_0_2_0_3_0_2,NA,NA,timeout,4996.531,1170756.6,1170743.562,1170760.091,1175739.486,1175741.2,2023-05-17T16:11:09Z,1175756.622,NULL,Verpackung,ufungaji,d,NA,NA,NA,NA,sdf,0,2,NA,NA,NA,NA,NA,NA,NA,NA,NA,NA,NA,NA,NA,NA,NA,NA,NA,NA,NA
6bfdb,deep,flow.Sequence,5_0_2_0_3_0,NA,NA,completion,47377.822,1128353.5,1128345.156,1128361.664,1175739.486,1175741.4,2023-05-17T16:11:09Z,1175756.622,NULL,Verpackung,ufungaji,d,NA,NA,NA,NA,sdf,NA,2,NA,NA,NA,NA,NA,NA,NA,NA,NA,NA,NA,NA,NA,NA,NA,NA,NA,NA,NA
6bfdb,shallow,flow.Sequence,5_0_2_0_3_1,NA,NA,skipped,NA,1175741.5,NA,NA,1175739.486,1175741.7,2023-05-17T16:11:09Z,1175756.622,NULL,Verpackung,ufungaji,d,NA,NA,NA,NA,sdf,NA,2,NA,NA,NA,NA,NA,NA,NA,NA,NA,NA,NA,NA,NA,NA,NA,NA,NA,NA,NA
6bfdb,task,flow.Sequence,5_0_2_0_3,NA,NA,completion,47377.822,1128353.3,1128345.156,1128361.664,1175739.486,1175741.7,2023-05-17T16:11:09Z,1175756.622,NULL,Verpackung,ufungaji,d,NA,NA,NA,NA,sdf,NA,2,NA,NA,NA,NA,NA,NA,NA,NA,NA,NA,NA,NA,NA,NA,NA,NA,NA,NA,NA
6bfdb,Deep Question,html.Page,5_0_2_0_4_0_0,NA,NA,form submission,15437.378,1175741.8,1175739.486,1175756.622,1191194,1191194.3,2023-05-17T16:11:25Z,1191210.401,NULL,Erneuerung,ukarabati,d,NA,NA,NA,ukarabati,NA,NA,2,NA,NA,NA,NA,NA,NA,NA,NA,NA,NA,NA,NA,NA,NA,NA,NA,NA,NA,NA
6bfdb,"""Richtig""-Screen",canvas.Screen,5_0_2_0_4_0_1,NA,NA,timeout,4996.094,1191196.5,1191193.522,1191210.401,1196189.215,1196190.1,2023-05-17T16:11:30Z,1196206.495,NULL,Erneuerung,ukarabati,d,NA,NA,NA,NA,sdf,1,2,NA,NA,NA,NA,NA,NA,NA,NA,NA,NA,NA,NA,NA,NA,NA,NA,NA,NA,NA
6bfdb,"""Falsch""-Screen",canvas.Screen,5_0_2_0_4_0_2,NA,NA,skipped,NA,1196194.2,NA,NA,1196189.215,1196194.4,2023-05-17T16:11:30Z,1196206.495,NULL,Erneuerung,ukarabati,d,NA,NA,NA,NA,sdf,NA,2,NA,NA,NA,NA,NA,NA,NA,NA,NA,NA,NA,NA,NA,NA,NA,NA,NA,NA,NA
6bfdb,deep,flow.Sequence,5_0_2_0_4_0,NA,NA,completion,20432.593,1175741.8,1175739.486,1175756.622,1196189.215,1196194.6,2023-05-17T16:11:30Z,1196206.495,NULL,Erneuerung,ukarabati,d,NA,NA,NA,NA,sdf,NA,2,NA,NA,NA,NA,NA,NA,NA,NA,NA,NA,NA,NA,NA,NA,NA,NA,NA,NA,NA
6bfdb,shallow,flow.Sequence,5_0_2_0_4_1,NA,NA,skipped,NA,1196194.7,NA,NA,1196189.215,1196194.7,2023-05-17T16:11:30Z,1196206.495,NULL,Erneuerung,ukarabati,d,NA,NA,NA,NA,sdf,NA,2,NA,NA,NA,NA,NA,NA,NA,NA,NA,NA,NA,NA,NA,NA,NA,NA,NA,NA,NA
6bfdb,task,flow.Sequence,5_0_2_0_4,NA,NA,completion,20432.593,1175741.8,1175739.486,1175756.622,1196189.215,1196195,2023-05-17T16:11:30Z,1196206.495,NULL,Erneuerung,ukarabati,d,NA,NA,NA,NA,sdf,NA,2,NA,NA,NA,NA,NA,NA,NA,NA,NA,NA,NA,NA,NA,NA,NA,NA,NA,NA,NA
6bfdb,deep,flow.Sequence,5_0_2_0_5_0,NA,NA,skipped,NA,1196195.2,NA,NA,1196189.215,1196195.3,2023-05-17T16:11:30Z,1196206.495,NULL,Flexibilität,kubadilika,s,enjini,usikilivu,hesabu,NA,sdf,NA,2,NA,NA,NA,NA,NA,NA,NA,NA,NA,NA,NA,NA,NA,NA,NA,NA,NA,NA,NA
6bfdb,Shallow Question,html.Page,5_0_2_0_5_1_0,NA,NA,form submission,7025.9050000357,1196195.4,1196189.215,1196206.495,1203232.4,1203232.6,2023-05-17T16:11:37Z,1203233.401,NULL,Flexibilität,kubadilika,s,enjini,usikilivu,hesabu,kubadilika,NA,NA,2,NA,NA,NA,NA,NA,NA,NA,NA,NA,NA,NA,NA,NA,NA,NA,NA,NA,NA,NA
6bfdb,"""Richtig""-Screen",canvas.Screen,5_0_2_0_5_1_1,NA,NA,timeout,4996.1029999999,1203234.6,1203216.788,1203233.401,1208213.226,1208214.5,2023-05-17T16:11:42Z,1208229.504,NULL,Flexibilität,kubadilika,s,enjini,usikilivu,hesabu,NA,sdf,1,2,NA,NA,NA,NA,NA,NA,NA,NA,NA,NA,NA,NA,NA,NA,NA,NA,NA,NA,NA
6bfdb,"""Falsch""-Screen",canvas.Screen,5_0_2_0_5_1_2,NA,NA,skipped,NA,1208217.2,NA,NA,1208213.226,1208217.3,2023-05-17T16:11:42Z,1208229.504,NULL,Flexibilität,kubadilika,s,enjini,usikilivu,hesabu,NA,sdf,NA,2,NA,NA,NA,NA,NA,NA,NA,NA,NA,NA,NA,NA,NA,NA,NA,NA,NA,NA,NA
6bfdb,shallow,flow.Sequence,5_0_2_0_5_1,NA,NA,completion,12006.731,1196195.4,1196189.215,1196206.495,1208213.226,1208217.3,2023-05-17T16:11:42Z,1208229.504,NULL,Flexibilität,kubadilika,s,enjini,usikilivu,hesabu,NA,sdf,NA,2,NA,NA,NA,NA,NA,NA,NA,NA,NA,NA,NA,NA,NA,NA,NA,NA,NA,NA,NA
6bfdb,task,flow.Sequence,5_0_2_0_5,NA,NA,completion,12006.731,1196195.1,1196189.215,1196206.495,1208213.226,1208217.4,2023-05-17T16:11:42Z,1208229.504,NULL,Flexibilität,kubadilika,s,enjini,usikilivu,hesabu,NA,sdf,NA,2,NA,NA,NA,NA,NA,NA,NA,NA,NA,NA,NA,NA,NA,NA,NA,NA,NA,NA,NA
6bfdb,Deep Question,html.Page,5_0_2_0_6_0_0,NA,NA,form submission,36441.695999988,1208217.5,1208213.226,1208229.504,1244671.2,1244671.4,2023-05-17T16:12:18Z,1244682.604,NULL,Hoffnung,matarajio,d,NA,NA,NA,udhanifu,NA,NA,2,NA,NA,NA,NA,NA,NA,NA,NA,NA,NA,NA,NA,NA,NA,NA,NA,NA,NA,NA
6bfdb,"""Richtig""-Screen",canvas.Screen,5_0_2_0_6_0_1,NA,NA,skipped,NA,1244673.7,NA,NA,1244671.2,1244673.8,2023-05-17T16:12:18Z,1244682.604,NULL,Hoffnung,matarajio,d,NA,NA,NA,NA,sdf,NA,2,NA,NA,NA,NA,NA,NA,NA,NA,NA,NA,NA,NA,NA,NA,NA,NA,NA,NA,NA
