observation,sender,sender_type,sender_id,response,response_action,ended_on,duration,time_run,time_render,time_show,time_end,time_commit,timestamp,time_switch,german,swahili,enc,distractor1,distractor2,distractor3,response_2,x,correct,distractors,url_vp,url_sess,meta_labjs_version,meta_location,meta_user_agent,meta_platform,meta_language,meta_locale,meta_time_zone,meta_timezone_offset,meta_screen_width,meta_screen_height,meta_scroll_width,meta_scroll_height,meta_window_inner_width,meta_window_inner_height,meta_device_pixel_ratio,meta_labjs_build_flavor,meta_labjs_build_commit
86341,Introduction delayed retrieval,canvas.Screen,0,weiter,keypress(Space),response,19368,284,285,296,19653,19661,2023-03-22T12:32:40Z,19692,NA,NA,NA,NA,NA,NA,NA,NA,NA,NULL,107,4,20.2.4,https://neurocog.fernuni.ch/studies/vweber/sliechti/delayed/index.html?vp=107&sess=4,"Mozilla/5.0 (Macintosh; Intel Mac OS X 10_15_7) AppleWebKit/605.1.15 (KHTML, like Gecko) Version/15.1 Safari/605.1.15",MacIntel,de-DE,de-DE,Europe/Zurich,-60,1440,900,1217,655,1217,703,2,production,f5b4a49f956347addd546a832a3327688c2c0fef
86341,Deep Question,html.Page,1_0_0_0,NA,NA,form submission,1791,19662,19682,19692,21483,21483,2023-03-22T12:32:42Z,21509,Auftrag,uagizaji,d,ghanima,kuzingatia,msukani,sfs,NA,NA,NULL,NA,NA,NA,NA,NA,NA,NA,NA,NA,NA,NA,NA,NA,NA,NA,NA,NA,NA,NA
86341,Save data screen,canvas.Screen,1_0_0_1,NA,NA,timeout,500,21485,21492,21509,21993,21994,2023-03-22T12:32:42Z,22009,Auftrag,uagizaji,d,ghanima,kuzingatia,msukani,NA,NA,0,NULL,NA,NA,NA,NA,NA,NA,NA,NA,NA,NA,NA,NA,NA,NA,NA,NA,NA,NA,NA
86341,deep,flow.Sequence,1_0_0,NA,NA,completion,2301,19662,19682,19692,21993,21995,2023-03-22T12:32:42Z,22009,Auftrag,uagizaji,d,ghanima,kuzingatia,msukani,NA,NA,NA,NULL,NA,NA,NA,NA,NA,NA,NA,NA,NA,NA,NA,NA,NA,NA,NA,NA,NA,NA,NA
86341,task,flow.Sequence,1_0,NA,NA,completion,2301,19662,19682,19692,21993,21995,2023-03-22T12:32:42Z,22009,Auftrag,uagizaji,d,ghanima,kuzingatia,msukani,NA,NA,NA,NULL,NA,NA,NA,NA,NA,NA,NA,NA,NA,NA,NA,NA,NA,NA,NA,NA,NA,NA,NA
86341,Deep Question,html.Page,1_1_0_0,NA,NA,form submission,2407,21995,21993,22009,24416,24416,2023-03-22T12:32:45Z,24443,Symbol,kielezo,s,kinyume,nderemo,utayari,sdf,NA,NA,NULL,NA,NA,NA,NA,NA,NA,NA,NA,NA,NA,NA,NA,NA,NA,NA,NA,NA,NA,NA
86341,Save data screen,canvas.Screen,1_1_0_1,NA,NA,timeout,500,24418,24426,24443,24925,24926,2023-03-22T12:32:45Z,24943,Symbol,kielezo,s,kinyume,nderemo,utayari,NA,NA,0,NULL,NA,NA,NA,NA,NA,NA,NA,NA,NA,NA,NA,NA,NA,NA,NA,NA,NA,NA,NA
86341,deep,flow.Sequence,1_1_0,NA,NA,completion,2916,21995,21993,22009,24925,24927,2023-03-22T12:32:45Z,24943,Symbol,kielezo,s,kinyume,nderemo,utayari,NA,NA,NA,NULL,NA,NA,NA,NA,NA,NA,NA,NA,NA,NA,NA,NA,NA,NA,NA,NA,NA,NA,NA
86341,task,flow.Sequence,1_1,NA,NA,completion,2916,21995,21993,22009,24925,24927,2023-03-22T12:32:45Z,24943,Symbol,kielezo,s,kinyume,nderemo,utayari,NA,NA,NA,NULL,NA,NA,NA,NA,NA,NA,NA,NA,NA,NA,NA,NA,NA,NA,NA,NA,NA,NA,NA
86341,Deep Question,html.Page,1_2_0_0,NA,NA,form submission,710,24927,24925,24943,25653,25654,2023-03-22T12:32:46Z,25676,Annäherung,maegesho,s,madahili,kujiamini,mapendekezo,sdf,NA,NA,NULL,NA,NA,NA,NA,NA,NA,NA,NA,NA,NA,NA,NA,NA,NA,NA,NA,NA,NA,NA
86341,Save data screen,canvas.Screen,1_2_0_1,NA,NA,timeout,500,25655,25659,25676,26159,26161,2023-03-22T12:32:46Z,26176,Annäherung,maegesho,s,madahili,kujiamini,mapendekezo,NA,NA,0,NULL,NA,NA,NA,NA,NA,NA,NA,NA,NA,NA,NA,NA,NA,NA,NA,NA,NA,NA,NA
86341,deep,flow.Sequence,1_2_0,NA,NA,completion,1216,24927,24925,24943,26159,26161,2023-03-22T12:32:46Z,26176,Annäherung,maegesho,s,madahili,kujiamini,mapendekezo,NA,NA,NA,NULL,NA,NA,NA,NA,NA,NA,NA,NA,NA,NA,NA,NA,NA,NA,NA,NA,NA,NA,NA
86341,task,flow.Sequence,1_2,NA,NA,completion,1216,24927,24925,24943,26159,26162,2023-03-22T12:32:46Z,26176,Annäherung,maegesho,s,madahili,kujiamini,mapendekezo,NA,NA,NA,NULL,NA,NA,NA,NA,NA,NA,NA,NA,NA,NA,NA,NA,NA,NA,NA,NA,NA,NA,NA
86341,Deep Question,html.Page,1_3_0_0,NA,NA,form submission,1258,26162,26159,26176,27434,27434,2023-03-22T12:32:48Z,27459,Zufall,kikuti,s,kukosekana,uchoraji,leseni,sds,NA,NA,NULL,NA,NA,NA,NA,NA,NA,NA,NA,NA,NA,NA,NA,NA,NA,NA,NA,NA,NA,NA
86341,Save data screen,canvas.Screen,1_3_0_1,NA,NA,timeout,501,27435,27443,27459,27943,27944,2023-03-22T12:32:48Z,27960,Zufall,kikuti,s,kukosekana,uchoraji,leseni,NA,NA,0,NULL,NA,NA,NA,NA,NA,NA,NA,NA,NA,NA,NA,NA,NA,NA,NA,NA,NA,NA,NA
86341,deep,flow.Sequence,1_3_0,NA,NA,completion,1767,26162,26159,26176,27943,27944,2023-03-22T12:32:48Z,27960,Zufall,kikuti,s,kukosekana,uchoraji,leseni,NA,NA,NA,NULL,NA,NA,NA,NA,NA,NA,NA,NA,NA,NA,NA,NA,NA,NA,NA,NA,NA,NA,NA
86341,task,flow.Sequence,1_3,NA,NA,completion,1767,26162,26159,26176,27943,27944,2023-03-22T12:32:48Z,27960,Zufall,kikuti,s,kukosekana,uchoraji,leseni,NA,NA,NA,NULL,NA,NA,NA,NA,NA,NA,NA,NA,NA,NA,NA,NA,NA,NA,NA,NA,NA,NA,NA
86341,Deep Question,html.Page,1_4_0_0,NA,NA,form submission,903,27945,27943,27960,28863,28864,2023-03-22T12:32:49Z,28892,Vorsorge,tahadhari,d,ufafanuzi,makini,mashambani,sdf,NA,NA,NULL,NA,NA,NA,NA,NA,NA,NA,NA,NA,NA,NA,NA,NA,NA,NA,NA,NA,NA,NA
86341,Save data screen,canvas.Screen,1_4_0_1,NA,NA,timeout,501,28865,28876,28892,29376,29376,2023-03-22T12:32:50Z,29393,Vorsorge,tahadhari,d,ufafanuzi,makini,mashambani,NA,NA,0,NULL,NA,NA,NA,NA,NA,NA,NA,NA,NA,NA,NA,NA,NA,NA,NA,NA,NA,NA,NA
86341,deep,flow.Sequence,1_4_0,NA,NA,completion,1416,27945,27943,27960,29376,29377,2023-03-22T12:32:50Z,29393,Vorsorge,tahadhari,d,ufafanuzi,makini,mashambani,NA,NA,NA,NULL,NA,NA,NA,NA,NA,NA,NA,NA,NA,NA,NA,NA,NA,NA,NA,NA,NA,NA,NA
86341,task,flow.Sequence,1_4,NA,NA,completion,1416,27945,27943,27960,29376,29377,2023-03-22T12:32:50Z,29393,Vorsorge,tahadhari,d,ufafanuzi,makini,mashambani,NA,NA,NA,NULL,NA,NA,NA,NA,NA,NA,NA,NA,NA,NA,NA,NA,NA,NA,NA,NA,NA,NA,NA
86341,Deep Question,html.Page,1_5_0_0,NA,NA,form submission,545,29377,29376,29393,29938,29938,2023-03-22T12:32:50Z,29959,Schönheit,kirembo,s,mahojiano,msisimko,jitihadi,sdg,NA,NA,NULL,NA,NA,NA,NA,NA,NA,NA,NA,NA,NA,NA,NA,NA,NA,NA,NA,NA,NA,NA
86341,Save data screen,canvas.Screen,1_5_0_1,NA,NA,timeout,501,29940,29943,29959,30442,30443,2023-03-22T12:32:51Z,30460,Schönheit,kirembo,s,mahojiano,msisimko,jitihadi,NA,NA,0,NULL,NA,NA,NA,NA,NA,NA,NA,NA,NA,NA,NA,NA,NA,NA,NA,NA,NA,NA,NA
86341,deep,flow.Sequence,1_5_0,NA,NA,completion,1049,29377,29376,29393,30442,30445,2023-03-22T12:32:51Z,30460,Schönheit,kirembo,s,mahojiano,msisimko,jitihadi,NA,NA,NA,NULL,NA,NA,NA,NA,NA,NA,NA,NA,NA,NA,NA,NA,NA,NA,NA,NA,NA,NA,NA
86341,task,flow.Sequence,1_5,NA,NA,completion,1049,29377,29376,29393,30442,30445,2023-03-22T12:32:51Z,30460,Schönheit,kirembo,s,mahojiano,msisimko,jitihadi,NA,NA,NA,NULL,NA,NA,NA,NA,NA,NA,NA,NA,NA,NA,NA,NA,NA,NA,NA,NA,NA,NA,NA
86341,Deep Question,html.Page,1_6_0_0,NA,NA,form submission,652,30446,30442,30460,31112,31112,2023-03-22T12:32:51Z,31143,Konkurrent,mshindani,d,msemaji,mvutaji,kipukusa,sdg,NA,NA,NULL,NA,NA,NA,NA,NA,NA,NA,NA,NA,NA,NA,NA,NA,NA,NA,NA,NA,NA,NA
86341,Save data screen,canvas.Screen,1_6_0_1,NA,NA,timeout,500,31113,31125,31143,31626,31627,2023-03-22T12:32:52Z,31643,Konkurrent,mshindani,d,msemaji,mvutaji,kipukusa,NA,NA,0,NULL,NA,NA,NA,NA,NA,NA,NA,NA,NA,NA,NA,NA,NA,NA,NA,NA,NA,NA,NA
86341,deep,flow.Sequence,1_6_0,NA,NA,completion,1166,30446,30442,30460,31626,31627,2023-03-22T12:32:52Z,31643,Konkurrent,mshindani,d,msemaji,mvutaji,kipukusa,NA,NA,NA,NULL,NA,NA,NA,NA,NA,NA,NA,NA,NA,NA,NA,NA,NA,NA,NA,NA,NA,NA,NA
86341,task,flow.Sequence,1_6,NA,NA,completion,1166,30446,30442,30460,31626,31627,2023-03-22T12:32:52Z,31643,Konkurrent,mshindani,d,msemaji,mvutaji,kipukusa,NA,NA,NA,NULL,NA,NA,NA,NA,NA,NA,NA,NA,NA,NA,NA,NA,NA,NA,NA,NA,NA,NA,NA
86341,Deep Question,html.Page,1_7_0_0,NA,NA,form submission,699,31628,31626,31643,32342,32342,2023-03-22T12:32:53Z,32376,Wettbewerb,ushindani,d,mapendezi,kichocheo,ubaguzi,sdf,NA,NA,NULL,NA,NA,NA,NA,NA,NA,NA,NA,NA,NA,NA,NA,NA,NA,NA,NA,NA,NA,NA
86341,Save data screen,canvas.Screen,1_7_0_1,NA,NA,timeout,500,32344,32359,32376,32860,32861,2023-03-22T12:32:53Z,32876,Wettbewerb,ushindani,d,mapendezi,kichocheo,ubaguzi,NA,NA,0,NULL,NA,NA,NA,NA,NA,NA,NA,NA,NA,NA,NA,NA,NA,NA,NA,NA,NA,NA,NA
86341,deep,flow.Sequence,1_7_0,NA,NA,completion,1217,31628,31626,31643,32860,32862,2023-03-22T12:32:53Z,32876,Wettbewerb,ushindani,d,mapendezi,kichocheo,ubaguzi,NA,NA,NA,NULL,NA,NA,NA,NA,NA,NA,NA,NA,NA,NA,NA,NA,NA,NA,NA,NA,NA,NA,NA
86341,task,flow.Sequence,1_7,NA,NA,completion,1217,31627,31626,31643,32860,32862,2023-03-22T12:32:53Z,32876,Wettbewerb,ushindani,d,mapendezi,kichocheo,ubaguzi,NA,NA,NA,NULL,NA,NA,NA,NA,NA,NA,NA,NA,NA,NA,NA,NA,NA,NA,NA,NA,NA,NA,NA
86341,Deep Question,html.Page,1_8_0_0,NA,NA,form submission,707,32862,32860,32876,33583,33583,2023-03-22T12:32:54Z,33625,Ausschluss,kutengwa,d,ununuzi,taratibu,madeni,sdg,NA,NA,NULL,NA,NA,NA,NA,NA,NA,NA,NA,NA,NA,NA,NA,NA,NA,NA,NA,NA,NA,NA
86341,Save data screen,canvas.Screen,1_8_0_1,NA,NA,timeout,501,33584,33610,33625,34110,34111,2023-03-22T12:32:54Z,34126,Ausschluss,kutengwa,d,ununuzi,taratibu,madeni,NA,NA,0,NULL,NA,NA,NA,NA,NA,NA,NA,NA,NA,NA,NA,NA,NA,NA,NA,NA,NA,NA,NA
86341,deep,flow.Sequence,1_8_0,NA,NA,completion,1234,32862,32860,32876,34110,34111,2023-03-22T12:32:54Z,34126,Ausschluss,kutengwa,d,ununuzi,taratibu,madeni,NA,NA,NA,NULL,NA,NA,NA,NA,NA,NA,NA,NA,NA,NA,NA,NA,NA,NA,NA,NA,NA,NA,NA
86341,task,flow.Sequence,1_8,NA,NA,completion,1234,32862,32860,32876,34110,34112,2023-03-22T12:32:54Z,34126,Ausschluss,kutengwa,d,ununuzi,taratibu,madeni,NA,NA,NA,NULL,NA,NA,NA,NA,NA,NA,NA,NA,NA,NA,NA,NA,NA,NA,NA,NA,NA,NA,NA
86341,Deep Question,html.Page,1_9_0_0,NA,NA,form submission,589,34112,34110,34126,34715,34715,2023-03-22T12:32:55Z,34743,Polizist,msongora,d,simanzi,mandhari,nidhamu,sdg,NA,NA,NULL,NA,NA,NA,NA,NA,NA,NA,NA,NA,NA,NA,NA,NA,NA,NA,NA,NA,NA,NA
86341,Save data screen,canvas.Screen,1_9_0_1,NA,NA,timeout,500,34716,34726,34743,35226,35227,2023-03-22T12:32:55Z,35243,Polizist,msongora,d,simanzi,mandhari,nidhamu,NA,NA,0,NULL,NA,NA,NA,NA,NA,NA,NA,NA,NA,NA,NA,NA,NA,NA,NA,NA,NA,NA,NA
86341,deep,flow.Sequence,1_9_0,NA,NA,completion,1100,34112,34110,34126,35226,35227,2023-03-22T12:32:55Z,35243,Polizist,msongora,d,simanzi,mandhari,nidhamu,NA,NA,NA,NULL,NA,NA,NA,NA,NA,NA,NA,NA,NA,NA,NA,NA,NA,NA,NA,NA,NA,NA,NA
86341,task,flow.Sequence,1_9,NA,NA,completion,1100,34112,34110,34126,35226,35228,2023-03-22T12:32:55Z,35243,Polizist,msongora,d,simanzi,mandhari,nidhamu,NA,NA,NA,NULL,NA,NA,NA,NA,NA,NA,NA,NA,NA,NA,NA,NA,NA,NA,NA,NA,NA,NA,NA
86341,Deep Question,html.Page,1_10_0_0,NA,NA,form submission,617,35228,35226,35243,35860,35861,2023-03-22T12:32:56Z,35893,Sympathie,mapendano,s,dhamiria,fungamano,maazimio,sdf,NA,NA,NULL,NA,NA,NA,NA,NA,NA,NA,NA,NA,NA,NA,NA,NA,NA,NA,NA,NA,NA,NA
86341,Save data screen,canvas.Screen,1_10_0_1,NA,NA,timeout,500,35863,35875,35893,36375,36376,2023-03-22T12:32:57Z,36393,Sympathie,mapendano,s,dhamiria,fungamano,maazimio,NA,NA,0,NULL,NA,NA,NA,NA,NA,NA,NA,NA,NA,NA,NA,NA,NA,NA,NA,NA,NA,NA,NA
86341,deep,flow.Sequence,1_10_0,NA,NA,completion,1132,35228,35226,35243,36375,36379,2023-03-22T12:32:57Z,36393,Sympathie,mapendano,s,dhamiria,fungamano,maazimio,NA,NA,NA,NULL,NA,NA,NA,NA,NA,NA,NA,NA,NA,NA,NA,NA,NA,NA,NA,NA,NA,NA,NA
86341,task,flow.Sequence,1_10,NA,NA,completion,1132,35228,35226,35243,36375,36379,2023-03-22T12:32:57Z,36393,Sympathie,mapendano,s,dhamiria,fungamano,maazimio,NA,NA,NA,NULL,NA,NA,NA,NA,NA,NA,NA,NA,NA,NA,NA,NA,NA,NA,NA,NA,NA,NA,NA
86341,Deep Question,html.Page,1_11_0_0,NA,NA,form submission,552,36379,36375,36393,36945,36945,2023-03-22T12:32:57Z,36976,Zuwachs,nyongeza,s,matilaba,udhibiti,hudhurio,gds,NA,NA,NULL,NA,NA,NA,NA,NA,NA,NA,NA,NA,NA,NA,NA,NA,NA,NA,NA,NA,NA,NA
86341,Save data screen,canvas.Screen,1_11_0_1,NA,NA,timeout,500,36946,36960,36976,37460,37461,2023-03-22T12:32:58Z,37476,Zuwachs,nyongeza,s,matilaba,udhibiti,hudhurio,NA,NA,0,NULL,NA,NA,NA,NA,NA,NA,NA,NA,NA,NA,NA,NA,NA,NA,NA,NA,NA,NA,NA
86341,deep,flow.Sequence,1_11_0,NA,NA,completion,1067,36379,36375,36393,37460,37461,2023-03-22T12:32:58Z,37476,Zuwachs,nyongeza,s,matilaba,udhibiti,hudhurio,NA,NA,NA,NULL,NA,NA,NA,NA,NA,NA,NA,NA,NA,NA,NA,NA,NA,NA,NA,NA,NA,NA,NA
86341,task,flow.Sequence,1_11,NA,NA,completion,1067,36379,36375,36393,37460,37461,2023-03-22T12:32:58Z,37476,Zuwachs,nyongeza,s,matilaba,udhibiti,hudhurio,NA,NA,NA,NULL,NA,NA,NA,NA,NA,NA,NA,NA,NA,NA,NA,NA,NA,NA,NA,NA,NA,NA,NA
86341,Deep Question,html.Page,1_12_0_0,NA,NA,form submission,489,37462,37460,37476,37965,37965,2023-03-22T12:32:58Z,37992,Beweis,ushahidi,d,marudio,kizuizi,mtendaji,dsf,NA,NA,NULL,NA,NA,NA,NA,NA,NA,NA,NA,NA,NA,NA,NA,NA,NA,NA,NA,NA,NA,NA
86341,Save data screen,canvas.Screen,1_12_0_1,NA,NA,timeout,501,37966,37976,37992,38476,38478,2023-03-22T12:32:59Z,38493,Beweis,ushahidi,d,marudio,kizuizi,mtendaji,NA,NA,0,NULL,NA,NA,NA,NA,NA,NA,NA,NA,NA,NA,NA,NA,NA,NA,NA,NA,NA,NA,NA
86341,deep,flow.Sequence,1_12_0,NA,NA,completion,1000,37462,37460,37476,38476,38478,2023-03-22T12:32:59Z,38493,Beweis,ushahidi,d,marudio,kizuizi,mtendaji,NA,NA,NA,NULL,NA,NA,NA,NA,NA,NA,NA,NA,NA,NA,NA,NA,NA,NA,NA,NA,NA,NA,NA
86341,task,flow.Sequence,1_12,NA,NA,completion,1000,37462,37460,37476,38476,38478,2023-03-22T12:32:59Z,38493,Beweis,ushahidi,d,marudio,kizuizi,mtendaji,NA,NA,NA,NULL,NA,NA,NA,NA,NA,NA,NA,NA,NA,NA,NA,NA,NA,NA,NA,NA,NA,NA,NA
86341,Deep Question,html.Page,1_13_0_0,NA,NA,form submission,436,38479,38476,38493,38929,38930,2023-03-22T12:32:59Z,38960,Verstand,ufahamivu,s,shakawa,hadhari,mhandisi,dg,NA,NA,NULL,NA,NA,NA,NA,NA,NA,NA,NA,NA,NA,NA,NA,NA,NA,NA,NA,NA,NA,NA
86341,Save data screen,canvas.Screen,1_13_0_1,NA,NA,timeout,499,38931,38943,38960,39443,39443,2023-03-22T12:33:00Z,39459,Verstand,ufahamivu,s,shakawa,hadhari,mhandisi,NA,NA,0,NULL,NA,NA,NA,NA,NA,NA,NA,NA,NA,NA,NA,NA,NA,NA,NA,NA,NA,NA,NA
86341,deep,flow.Sequence,1_13_0,NA,NA,completion,950,38479,38476,38493,39443,39444,2023-03-22T12:33:00Z,39459,Verstand,ufahamivu,s,shakawa,hadhari,mhandisi,NA,NA,NA,NULL,NA,NA,NA,NA,NA,NA,NA,NA,NA,NA,NA,NA,NA,NA,NA,NA,NA,NA,NA
86341,task,flow.Sequence,1_13,NA,NA,completion,950,38479,38476,38493,39443,39444,2023-03-22T12:33:00Z,39459,Verstand,ufahamivu,s,shakawa,hadhari,mhandisi,NA,NA,NA,NULL,NA,NA,NA,NA,NA,NA,NA,NA,NA,NA,NA,NA,NA,NA,NA,NA,NA,NA,NA
86341,Deep Question,html.Page,1_14_0_0,NA,NA,form submission,476,39445,39443,39459,39935,39935,2023-03-22T12:33:00Z,39959,Widerstand,usulubu,s,kusababisha,mwalimu,mwenendo,dfs,NA,NA,NULL,NA,NA,NA,NA,NA,NA,NA,NA,NA,NA,NA,NA,NA,NA,NA,NA,NA,NA,NA
86341,Save data screen,canvas.Screen,1_14_0_1,NA,NA,timeout,501,39936,39942,39959,40443,40444,2023-03-22T12:33:01Z,40460,Widerstand,usulubu,s,kusababisha,mwalimu,mwenendo,NA,NA,0,NULL,NA,NA,NA,NA,NA,NA,NA,NA,NA,NA,NA,NA,NA,NA,NA,NA,NA,NA,NA
86341,deep,flow.Sequence,1_14_0,NA,NA,completion,984,39444,39443,39459,40443,40444,2023-03-22T12:33:01Z,40460,Widerstand,usulubu,s,kusababisha,mwalimu,mwenendo,NA,NA,NA,NULL,NA,NA,NA,NA,NA,NA,NA,NA,NA,NA,NA,NA,NA,NA,NA,NA,NA,NA,NA
86341,task,flow.Sequence,1_14,NA,NA,completion,984,39444,39443,39459,40443,40444,2023-03-22T12:33:01Z,40460,Widerstand,usulubu,s,kusababisha,mwalimu,mwenendo,NA,NA,NA,NULL,NA,NA,NA,NA,NA,NA,NA,NA,NA,NA,NA,NA,NA,NA,NA,NA,NA,NA,NA
86341,Deep Question,html.Page,1_15_0_0,NA,NA,form submission,443,40445,40443,40460,40903,40903,2023-03-22T12:33:01Z,40926,Gelegenheit,wakati,d,mchanganyiko,kipaumbele,kushuku,dsg,NA,NA,NULL,NA,NA,NA,NA,NA,NA,NA,NA,NA,NA,NA,NA,NA,NA,NA,NA,NA,NA,NA
86341,Save data screen,canvas.Screen,1_15_0_1,NA,NA,timeout,501,40905,40909,40926,41410,41410,2023-03-22T12:33:02Z,41427,Gelegenheit,wakati,d,mchanganyiko,kipaumbele,kushuku,NA,NA,0,NULL,NA,NA,NA,NA,NA,NA,NA,NA,NA,NA,NA,NA,NA,NA,NA,NA,NA,NA,NA
86341,deep,flow.Sequence,1_15_0,NA,NA,completion,950,40445,40443,40460,41410,41411,2023-03-22T12:33:02Z,41427,Gelegenheit,wakati,d,mchanganyiko,kipaumbele,kushuku,NA,NA,NA,NULL,NA,NA,NA,NA,NA,NA,NA,NA,NA,NA,NA,NA,NA,NA,NA,NA,NA,NA,NA
86341,task,flow.Sequence,1_15,NA,NA,completion,950,40445,40443,40460,41410,41411,2023-03-22T12:33:02Z,41427,Gelegenheit,wakati,d,mchanganyiko,kipaumbele,kushuku,NA,NA,NA,NULL,NA,NA,NA,NA,NA,NA,NA,NA,NA,NA,NA,NA,NA,NA,NA,NA,NA,NA,NA
86341,retrieval block 1 (cued recall),flow.Loop,1,NA,NA,completion,21718,19662,19682,19692,41410,41412,2023-03-22T12:33:02Z,41427,NA,NA,NA,NA,NA,NA,NA,NA,NA,NULL,NA,NA,NA,NA,NA,NA,NA,NA,NA,NA,NA,NA,NA,NA,NA,NA,NA,NA,NA
86341,Shallow Question,html.Page,2_0_0_0,NA,NA,form submission,7864,41412,41410,41427,49291,49291,2023-03-22T12:33:09Z,49326,Widerstand,usulubu,s,kusababisha,mwalimu,mwenendo,mwalimu,NA,NA,"c(""distractor1"", ""distractor2"", ""distractor3"")",NA,NA,NA,NA,NA,NA,NA,NA,NA,NA,NA,NA,NA,NA,NA,NA,NA,NA,NA
86341,Save data screen,canvas.Screen,2_0_0_1,NA,NA,timeout,500,49292,49309,49326,49810,49810,2023-03-22T12:33:10Z,49826,Widerstand,usulubu,s,kusababisha,mwalimu,mwenendo,NA,NA,0,"c(""distractor1"", ""distractor2"", ""distractor3"")",NA,NA,NA,NA,NA,NA,NA,NA,NA,NA,NA,NA,NA,NA,NA,NA,NA,NA,NA
86341,shallow,flow.Sequence,2_0_0,NA,NA,completion,8383,41412,41410,41427,49810,49811,2023-03-22T12:33:10Z,49826,Widerstand,usulubu,s,kusababisha,mwalimu,mwenendo,NA,NA,NA,"c(""distractor1"", ""distractor2"", ""distractor3"")",NA,NA,NA,NA,NA,NA,NA,NA,NA,NA,NA,NA,NA,NA,NA,NA,NA,NA,NA
86341,task,flow.Sequence,2_0,NA,NA,completion,8383,41412,41410,41427,49810,49811,2023-03-22T12:33:10Z,49826,Widerstand,usulubu,s,kusababisha,mwalimu,mwenendo,NA,NA,NA,"c(""distractor1"", ""distractor2"", ""distractor3"")",NA,NA,NA,NA,NA,NA,NA,NA,NA,NA,NA,NA,NA,NA,NA,NA,NA,NA,NA
86341,Shallow Question,html.Page,2_1_0_0,NA,NA,form submission,2646,49812,49810,49826,52472,52472,2023-03-22T12:33:13Z,52493,Sympathie,mapendano,s,dhamiria,fungamano,maazimio,mapendano,NA,NA,"c(""distractor1"", ""distractor2"", ""distractor3"")",NA,NA,NA,NA,NA,NA,NA,NA,NA,NA,NA,NA,NA,NA,NA,NA,NA,NA,NA
86341,Save data screen,canvas.Screen,2_1_0_1,NA,NA,timeout,500,52474,52476,52493,52976,52977,2023-03-22T12:33:13Z,52993,Sympathie,mapendano,s,dhamiria,fungamano,maazimio,NA,NA,1,"c(""distractor1"", ""distractor2"", ""distractor3"")",NA,NA,NA,NA,NA,NA,NA,NA,NA,NA,NA,NA,NA,NA,NA,NA,NA,NA,NA
86341,shallow,flow.Sequence,2_1_0,NA,NA,completion,3150,49811,49810,49826,52976,52977,2023-03-22T12:33:13Z,52993,Sympathie,mapendano,s,dhamiria,fungamano,maazimio,NA,NA,NA,"c(""distractor1"", ""distractor2"", ""distractor3"")",NA,NA,NA,NA,NA,NA,NA,NA,NA,NA,NA,NA,NA,NA,NA,NA,NA,NA,NA
86341,task,flow.Sequence,2_1,NA,NA,completion,3150,49811,49810,49826,52976,52978,2023-03-22T12:33:13Z,52993,Sympathie,mapendano,s,dhamiria,fungamano,maazimio,NA,NA,NA,"c(""distractor1"", ""distractor2"", ""distractor3"")",NA,NA,NA,NA,NA,NA,NA,NA,NA,NA,NA,NA,NA,NA,NA,NA,NA,NA,NA
86341,Shallow Question,html.Page,2_2_0_0,NA,NA,form submission,2029,52978,52976,52993,55022,55022,2023-03-22T12:33:15Z,55043,Gelegenheit,wakati,d,mchanganyiko,kipaumbele,kushuku,kushuku,NA,NA,"c(""distractor1"", ""distractor2"", ""distractor3"")",NA,NA,NA,NA,NA,NA,NA,NA,NA,NA,NA,NA,NA,NA,NA,NA,NA,NA,NA
86341,Save data screen,canvas.Screen,2_2_0_1,NA,NA,timeout,499,55023,55026,55043,55526,55527,2023-03-22T12:33:16Z,55542,Gelegenheit,wakati,d,mchanganyiko,kipaumbele,kushuku,NA,NA,0,"c(""distractor1"", ""distractor2"", ""distractor3"")",NA,NA,NA,NA,NA,NA,NA,NA,NA,NA,NA,NA,NA,NA,NA,NA,NA,NA,NA
86341,shallow,flow.Sequence,2_2_0,NA,NA,completion,2533,52978,52976,52993,55526,55528,2023-03-22T12:33:16Z,55542,Gelegenheit,wakati,d,mchanganyiko,kipaumbele,kushuku,NA,NA,NA,"c(""distractor1"", ""distractor2"", ""distractor3"")",NA,NA,NA,NA,NA,NA,NA,NA,NA,NA,NA,NA,NA,NA,NA,NA,NA,NA,NA
86341,task,flow.Sequence,2_2,NA,NA,completion,2533,52978,52976,52993,55526,55528,2023-03-22T12:33:16Z,55542,Gelegenheit,wakati,d,mchanganyiko,kipaumbele,kushuku,NA,NA,NA,"c(""distractor1"", ""distractor2"", ""distractor3"")",NA,NA,NA,NA,NA,NA,NA,NA,NA,NA,NA,NA,NA,NA,NA,NA,NA,NA,NA
86341,Shallow Question,html.Page,2_3_0_0,NA,NA,form submission,2063,55529,55526,55542,57605,57606,2023-03-22T12:33:18Z,57643,Annäherung,maegesho,s,madahili,kujiamini,mapendekezo,madahili,NA,NA,"c(""distractor1"", ""distractor2"", ""distractor3"")",NA,NA,NA,NA,NA,NA,NA,NA,NA,NA,NA,NA,NA,NA,NA,NA,NA,NA,NA
86341,Save data screen,canvas.Screen,2_3_0_1,NA,NA,timeout,500,57608,57626,57643,58125,58126,2023-03-22T12:33:18Z,58143,Annäherung,maegesho,s,madahili,kujiamini,mapendekezo,NA,NA,0,"c(""distractor1"", ""distractor2"", ""distractor3"")",NA,NA,NA,NA,NA,NA,NA,NA,NA,NA,NA,NA,NA,NA,NA,NA,NA,NA,NA
86341,shallow,flow.Sequence,2_3_0,NA,NA,completion,2583,55528,55526,55542,58125,58126,2023-03-22T12:33:18Z,58143,Annäherung,maegesho,s,madahili,kujiamini,mapendekezo,NA,NA,NA,"c(""distractor1"", ""distractor2"", ""distractor3"")",NA,NA,NA,NA,NA,NA,NA,NA,NA,NA,NA,NA,NA,NA,NA,NA,NA,NA,NA
86341,task,flow.Sequence,2_3,NA,NA,completion,2583,55528,55526,55542,58125,58127,2023-03-22T12:33:18Z,58143,Annäherung,maegesho,s,madahili,kujiamini,mapendekezo,NA,NA,NA,"c(""distractor1"", ""distractor2"", ""distractor3"")",NA,NA,NA,NA,NA,NA,NA,NA,NA,NA,NA,NA,NA,NA,NA,NA,NA,NA,NA
86341,Shallow Question,html.Page,2_4_0_0,NA,NA,form submission,3196,58127,58125,58143,61339,61340,2023-03-22T12:33:22Z,61360,Symbol,kielezo,s,kinyume,nderemo,utayari,kielezo,NA,NA,"c(""distractor1"", ""distractor2"", ""distractor3"")",NA,NA,NA,NA,NA,NA,NA,NA,NA,NA,NA,NA,NA,NA,NA,NA,NA,NA,NA
86341,Save data screen,canvas.Screen,2_4_0_1,NA,NA,timeout,500,61341,61343,61360,61843,61844,2023-03-22T12:33:22Z,61860,Symbol,kielezo,s,kinyume,nderemo,utayari,NA,NA,1,"c(""distractor1"", ""distractor2"", ""distractor3"")",NA,NA,NA,NA,NA,NA,NA,NA,NA,NA,NA,NA,NA,NA,NA,NA,NA,NA,NA
86341,shallow,flow.Sequence,2_4_0,NA,NA,completion,3700,58127,58125,58143,61843,61844,2023-03-22T12:33:22Z,61860,Symbol,kielezo,s,kinyume,nderemo,utayari,NA,NA,NA,"c(""distractor1"", ""distractor2"", ""distractor3"")",NA,NA,NA,NA,NA,NA,NA,NA,NA,NA,NA,NA,NA,NA,NA,NA,NA,NA,NA
86341,task,flow.Sequence,2_4,NA,NA,completion,3700,58127,58125,58143,61843,61845,2023-03-22T12:33:22Z,61860,Symbol,kielezo,s,kinyume,nderemo,utayari,NA,NA,NA,"c(""distractor1"", ""distractor2"", ""distractor3"")",NA,NA,NA,NA,NA,NA,NA,NA,NA,NA,NA,NA,NA,NA,NA,NA,NA,NA,NA
86341,Shallow Question,html.Page,2_5_0_0,NA,NA,form submission,2164,61845,61843,61860,64024,64024,2023-03-22T12:33:24Z,64059,Vorsorge,tahadhari,d,ufafanuzi,makini,mashambani,makini,NA,NA,"c(""distractor1"", ""distractor2"", ""distractor3"")",NA,NA,NA,NA,NA,NA,NA,NA,NA,NA,NA,NA,NA,NA,NA,NA,NA,NA,NA
86341,Save data screen,canvas.Screen,2_5_0_1,NA,NA,timeout,500,64027,64043,64059,64543,64543,2023-03-22T12:33:25Z,64559,Vorsorge,tahadhari,d,ufafanuzi,makini,mashambani,NA,NA,0,"c(""distractor1"", ""distractor2"", ""distractor3"")",NA,NA,NA,NA,NA,NA,NA,NA,NA,NA,NA,NA,NA,NA,NA,NA,NA,NA,NA
86341,shallow,flow.Sequence,2_5_0,NA,NA,completion,2683,61845,61843,61860,64543,64544,2023-03-22T12:33:25Z,64559,Vorsorge,tahadhari,d,ufafanuzi,makini,mashambani,NA,NA,NA,"c(""distractor1"", ""distractor2"", ""distractor3"")",NA,NA,NA,NA,NA,NA,NA,NA,NA,NA,NA,NA,NA,NA,NA,NA,NA,NA,NA
86341,task,flow.Sequence,2_5,NA,NA,completion,2683,61845,61843,61860,64543,64544,2023-03-22T12:33:25Z,64559,Vorsorge,tahadhari,d,ufafanuzi,makini,mashambani,NA,NA,NA,"c(""distractor1"", ""distractor2"", ""distractor3"")",NA,NA,NA,NA,NA,NA,NA,NA,NA,NA,NA,NA,NA,NA,NA,NA,NA,NA,NA
86341,Shallow Question,html.Page,2_6_0_0,NA,NA,form submission,2561,64545,64543,64559,67120,67120,2023-03-22T12:33:27Z,67143,Wettbewerb,ushindani,d,mapendezi,kichocheo,ubaguzi,kichocheo,NA,NA,"c(""distractor1"", ""distractor2"", ""distractor3"")",NA,NA,NA,NA,NA,NA,NA,NA,NA,NA,NA,NA,NA,NA,NA,NA,NA,NA,NA
86341,Save data screen,canvas.Screen,2_6_0_1,NA,NA,timeout,500,67121,67126,67143,67626,67627,2023-03-22T12:33:28Z,67643,Wettbewerb,ushindani,d,mapendezi,kichocheo,ubaguzi,NA,NA,0,"c(""distractor1"", ""distractor2"", ""distractor3"")",NA,NA,NA,NA,NA,NA,NA,NA,NA,NA,NA,NA,NA,NA,NA,NA,NA,NA,NA
86341,shallow,flow.Sequence,2_6_0,NA,NA,completion,3067,64545,64543,64559,67626,67627,2023-03-22T12:33:28Z,67643,Wettbewerb,ushindani,d,mapendezi,kichocheo,ubaguzi,NA,NA,NA,"c(""distractor1"", ""distractor2"", ""distractor3"")",NA,NA,NA,NA,NA,NA,NA,NA,NA,NA,NA,NA,NA,NA,NA,NA,NA,NA,NA
86341,task,flow.Sequence,2_6,NA,NA,completion,3067,64545,64543,64559,67626,67628,2023-03-22T12:33:28Z,67643,Wettbewerb,ushindani,d,mapendezi,kichocheo,ubaguzi,NA,NA,NA,"c(""distractor1"", ""distractor2"", ""distractor3"")",NA,NA,NA,NA,NA,NA,NA,NA,NA,NA,NA,NA,NA,NA,NA,NA,NA,NA,NA
86341,Shallow Question,html.Page,2_7_0_0,NA,NA,form submission,4596,67628,67626,67643,72239,72240,2023-03-22T12:33:32Z,72259,Konkurrent,mshindani,d,msemaji,mvutaji,kipukusa,msemaji,NA,NA,"c(""distractor1"", ""distractor2"", ""distractor3"")",NA,NA,NA,NA,NA,NA,NA,NA,NA,NA,NA,NA,NA,NA,NA,NA,NA,NA,NA
86341,Save data screen,canvas.Screen,2_7_0_1,NA,NA,timeout,501,72240,72243,72259,72744,72744,2023-03-22T12:33:33Z,72760,Konkurrent,mshindani,d,msemaji,mvutaji,kipukusa,NA,NA,0,"c(""distractor1"", ""distractor2"", ""distractor3"")",NA,NA,NA,NA,NA,NA,NA,NA,NA,NA,NA,NA,NA,NA,NA,NA,NA,NA,NA
86341,shallow,flow.Sequence,2_7_0,NA,NA,completion,5101,67628,67626,67643,72744,72745,2023-03-22T12:33:33Z,72760,Konkurrent,mshindani,d,msemaji,mvutaji,kipukusa,NA,NA,NA,"c(""distractor1"", ""distractor2"", ""distractor3"")",NA,NA,NA,NA,NA,NA,NA,NA,NA,NA,NA,NA,NA,NA,NA,NA,NA,NA,NA
86341,task,flow.Sequence,2_7,NA,NA,completion,5101,67628,67626,67643,72744,72745,2023-03-22T12:33:33Z,72760,Konkurrent,mshindani,d,msemaji,mvutaji,kipukusa,NA,NA,NA,"c(""distractor1"", ""distractor2"", ""distractor3"")",NA,NA,NA,NA,NA,NA,NA,NA,NA,NA,NA,NA,NA,NA,NA,NA,NA,NA,NA
86341,Shallow Question,html.Page,2_8_0_0,NA,NA,form submission,2281,72745,72744,72760,75041,75041,2023-03-22T12:33:35Z,75076,Polizist,msongora,d,simanzi,mandhari,nidhamu,simanzi,NA,NA,"c(""distractor1"", ""distractor2"", ""distractor3"")",NA,NA,NA,NA,NA,NA,NA,NA,NA,NA,NA,NA,NA,NA,NA,NA,NA,NA,NA
86341,Save data screen,canvas.Screen,2_8_0_1,NA,NA,timeout,501,75044,75059,75076,75560,75561,2023-03-22T12:33:36Z,75577,Polizist,msongora,d,simanzi,mandhari,nidhamu,NA,NA,0,"c(""distractor1"", ""distractor2"", ""distractor3"")",NA,NA,NA,NA,NA,NA,NA,NA,NA,NA,NA,NA,NA,NA,NA,NA,NA,NA,NA
86341,shallow,flow.Sequence,2_8_0,NA,NA,completion,2800,72745,72744,72760,75560,75562,2023-03-22T12:33:36Z,75577,Polizist,msongora,d,simanzi,mandhari,nidhamu,NA,NA,NA,"c(""distractor1"", ""distractor2"", ""distractor3"")",NA,NA,NA,NA,NA,NA,NA,NA,NA,NA,NA,NA,NA,NA,NA,NA,NA,NA,NA
86341,task,flow.Sequence,2_8,NA,NA,completion,2800,72745,72744,72760,75560,75562,2023-03-22T12:33:36Z,75577,Polizist,msongora,d,simanzi,mandhari,nidhamu,NA,NA,NA,"c(""distractor1"", ""distractor2"", ""distractor3"")",NA,NA,NA,NA,NA,NA,NA,NA,NA,NA,NA,NA,NA,NA,NA,NA,NA,NA,NA
86341,Shallow Question,html.Page,2_9_0_0,NA,NA,form submission,2388,75562,75560,75577,77965,77965,2023-03-22T12:33:38Z,77993,Auftrag,uagizaji,d,ghanima,kuzingatia,msukani,kuzingatia,NA,NA,"c(""distractor1"", ""distractor2"", ""distractor3"")",NA,NA,NA,NA,NA,NA,NA,NA,NA,NA,NA,NA,NA,NA,NA,NA,NA,NA,NA
86341,Save data screen,canvas.Screen,2_9_0_1,NA,NA,timeout,500,77966,77976,77993,78476,78477,2023-03-22T12:33:39Z,78493,Auftrag,uagizaji,d,ghanima,kuzingatia,msukani,NA,NA,0,"c(""distractor1"", ""distractor2"", ""distractor3"")",NA,NA,NA,NA,NA,NA,NA,NA,NA,NA,NA,NA,NA,NA,NA,NA,NA,NA,NA
86341,shallow,flow.Sequence,2_9_0,NA,NA,completion,2899,75562,75560,75577,78476,78477,2023-03-22T12:33:39Z,78493,Auftrag,uagizaji,d,ghanima,kuzingatia,msukani,NA,NA,NA,"c(""distractor1"", ""distractor2"", ""distractor3"")",NA,NA,NA,NA,NA,NA,NA,NA,NA,NA,NA,NA,NA,NA,NA,NA,NA,NA,NA
86341,task,flow.Sequence,2_9,NA,NA,completion,2899,75562,75560,75577,78476,78477,2023-03-22T12:33:39Z,78493,Auftrag,uagizaji,d,ghanima,kuzingatia,msukani,NA,NA,NA,"c(""distractor1"", ""distractor2"", ""distractor3"")",NA,NA,NA,NA,NA,NA,NA,NA,NA,NA,NA,NA,NA,NA,NA,NA,NA,NA,NA
86341,Shallow Question,html.Page,2_10_0_0,NA,NA,form submission,4264,78478,78476,78493,82757,82757,2023-03-22T12:33:43Z,82777,Verstand,ufahamivu,s,shakawa,hadhari,mhandisi,ufahamivu,NA,NA,"c(""distractor1"", ""distractor2"", ""distractor3"")",NA,NA,NA,NA,NA,NA,NA,NA,NA,NA,NA,NA,NA,NA,NA,NA,NA,NA,NA
86341,Save data screen,canvas.Screen,2_10_0_1,NA,NA,timeout,499,82758,82759,82777,83259,83260,2023-03-22T12:33:43Z,83276,Verstand,ufahamivu,s,shakawa,hadhari,mhandisi,NA,NA,1,"c(""distractor1"", ""distractor2"", ""distractor3"")",NA,NA,NA,NA,NA,NA,NA,NA,NA,NA,NA,NA,NA,NA,NA,NA,NA,NA,NA
86341,shallow,flow.Sequence,2_10_0,NA,NA,completion,4766,78478,78476,78493,83259,83260,2023-03-22T12:33:43Z,83276,Verstand,ufahamivu,s,shakawa,hadhari,mhandisi,NA,NA,NA,"c(""distractor1"", ""distractor2"", ""distractor3"")",NA,NA,NA,NA,NA,NA,NA,NA,NA,NA,NA,NA,NA,NA,NA,NA,NA,NA,NA
86341,task,flow.Sequence,2_10,NA,NA,completion,4766,78478,78476,78493,83259,83261,2023-03-22T12:33:43Z,83276,Verstand,ufahamivu,s,shakawa,hadhari,mhandisi,NA,NA,NA,"c(""distractor1"", ""distractor2"", ""distractor3"")",NA,NA,NA,NA,NA,NA,NA,NA,NA,NA,NA,NA,NA,NA,NA,NA,NA,NA,NA
86341,Shallow Question,html.Page,2_11_0_0,NA,NA,form submission,2148,83261,83259,83276,85424,85429,2023-03-22T12:33:46Z,85459,Zufall,kikuti,s,kukosekana,uchoraji,leseni,leseni,NA,NA,"c(""distractor1"", ""distractor2"", ""distractor3"")",NA,NA,NA,NA,NA,NA,NA,NA,NA,NA,NA,NA,NA,NA,NA,NA,NA,NA,NA
86341,Save data screen,canvas.Screen,2_11_0_1,NA,NA,timeout,501,85430,85443,85459,85943,85944,2023-03-22T12:33:46Z,85960,Zufall,kikuti,s,kukosekana,uchoraji,leseni,NA,NA,0,"c(""distractor1"", ""distractor2"", ""distractor3"")",NA,NA,NA,NA,NA,NA,NA,NA,NA,NA,NA,NA,NA,NA,NA,NA,NA,NA,NA
86341,shallow,flow.Sequence,2_11_0,NA,NA,completion,2667,83261,83259,83276,85943,85944,2023-03-22T12:33:46Z,85960,Zufall,kikuti,s,kukosekana,uchoraji,leseni,NA,NA,NA,"c(""distractor1"", ""distractor2"", ""distractor3"")",NA,NA,NA,NA,NA,NA,NA,NA,NA,NA,NA,NA,NA,NA,NA,NA,NA,NA,NA
86341,task,flow.Sequence,2_11,NA,NA,completion,2667,83261,83259,83276,85943,85945,2023-03-22T12:33:46Z,85960,Zufall,kikuti,s,kukosekana,uchoraji,leseni,NA,NA,NA,"c(""distractor1"", ""distractor2"", ""distractor3"")",NA,NA,NA,NA,NA,NA,NA,NA,NA,NA,NA,NA,NA,NA,NA,NA,NA,NA,NA
86341,Shallow Question,html.Page,2_12_0_0,NA,NA,form submission,2165,85945,85943,85960,88125,88125,2023-03-22T12:33:48Z,88160,Beweis,ushahidi,d,marudio,kizuizi,mtendaji,kizuizi,NA,NA,"c(""distractor1"", ""distractor2"", ""distractor3"")",NA,NA,NA,NA,NA,NA,NA,NA,NA,NA,NA,NA,NA,NA,NA,NA,NA,NA,NA
86341,Save data screen,canvas.Screen,2_12_0_1,NA,NA,timeout,500,88127,88143,88160,88643,88644,2023-03-22T12:33:49Z,88660,Beweis,ushahidi,d,marudio,kizuizi,mtendaji,NA,NA,0,"c(""distractor1"", ""distractor2"", ""distractor3"")",NA,NA,NA,NA,NA,NA,NA,NA,NA,NA,NA,NA,NA,NA,NA,NA,NA,NA,NA
86341,shallow,flow.Sequence,2_12_0,NA,NA,completion,2683,85945,85943,85960,88643,88645,2023-03-22T12:33:49Z,88660,Beweis,ushahidi,d,marudio,kizuizi,mtendaji,NA,NA,NA,"c(""distractor1"", ""distractor2"", ""distractor3"")",NA,NA,NA,NA,NA,NA,NA,NA,NA,NA,NA,NA,NA,NA,NA,NA,NA,NA,NA
86341,task,flow.Sequence,2_12,NA,NA,completion,2683,85945,85943,85960,88643,88645,2023-03-22T12:33:49Z,88660,Beweis,ushahidi,d,marudio,kizuizi,mtendaji,NA,NA,NA,"c(""distractor1"", ""distractor2"", ""distractor3"")",NA,NA,NA,NA,NA,NA,NA,NA,NA,NA,NA,NA,NA,NA,NA,NA,NA,NA,NA
86341,Shallow Question,html.Page,2_13_0_0,NA,NA,form submission,1929,88645,88643,88660,90589,90589,2023-03-22T12:33:51Z,90610,Zuwachs,nyongeza,s,matilaba,udhibiti,hudhurio,udhibiti,NA,NA,"c(""distractor1"", ""distractor2"", ""distractor3"")",NA,NA,NA,NA,NA,NA,NA,NA,NA,NA,NA,NA,NA,NA,NA,NA,NA,NA,NA
86341,Save data screen,canvas.Screen,2_13_0_1,NA,NA,timeout,499,90590,90593,90610,91093,91094,2023-03-22T12:33:51Z,91109,Zuwachs,nyongeza,s,matilaba,udhibiti,hudhurio,NA,NA,0,"c(""distractor1"", ""distractor2"", ""distractor3"")",NA,NA,NA,NA,NA,NA,NA,NA,NA,NA,NA,NA,NA,NA,NA,NA,NA,NA,NA
86341,shallow,flow.Sequence,2_13_0,NA,NA,completion,2433,88645,88643,88660,91093,91094,2023-03-22T12:33:51Z,91109,Zuwachs,nyongeza,s,matilaba,udhibiti,hudhurio,NA,NA,NA,"c(""distractor1"", ""distractor2"", ""distractor3"")",NA,NA,NA,NA,NA,NA,NA,NA,NA,NA,NA,NA,NA,NA,NA,NA,NA,NA,NA
86341,task,flow.Sequence,2_13,NA,NA,completion,2433,88645,88643,88660,91093,91095,2023-03-22T12:33:51Z,91109,Zuwachs,nyongeza,s,matilaba,udhibiti,hudhurio,NA,NA,NA,"c(""distractor1"", ""distractor2"", ""distractor3"")",NA,NA,NA,NA,NA,NA,NA,NA,NA,NA,NA,NA,NA,NA,NA,NA,NA,NA,NA
86341,Shallow Question,html.Page,2_14_0_0,NA,NA,form submission,1972,91095,91093,91109,93081,93083,2023-03-22T12:33:53Z,93110,Schönheit,kirembo,s,mahojiano,msisimko,jitihadi,kirembo,NA,NA,"c(""distractor1"", ""distractor2"", ""distractor3"")",NA,NA,NA,NA,NA,NA,NA,NA,NA,NA,NA,NA,NA,NA,NA,NA,NA,NA,NA
86341,Save data screen,canvas.Screen,2_14_0_1,NA,NA,timeout,500,93084,93092,93110,93593,93594,2023-03-22T12:33:54Z,93610,Schönheit,kirembo,s,mahojiano,msisimko,jitihadi,NA,NA,1,"c(""distractor1"", ""distractor2"", ""distractor3"")",NA,NA,NA,NA,NA,NA,NA,NA,NA,NA,NA,NA,NA,NA,NA,NA,NA,NA,NA
86341,shallow,flow.Sequence,2_14_0,NA,NA,completion,2484,91095,91093,91109,93593,93595,2023-03-22T12:33:54Z,93610,Schönheit,kirembo,s,mahojiano,msisimko,jitihadi,NA,NA,NA,"c(""distractor1"", ""distractor2"", ""distractor3"")",NA,NA,NA,NA,NA,NA,NA,NA,NA,NA,NA,NA,NA,NA,NA,NA,NA,NA,NA
86341,task,flow.Sequence,2_14,NA,NA,completion,2484,91095,91093,91109,93593,93595,2023-03-22T12:33:54Z,93610,Schönheit,kirembo,s,mahojiano,msisimko,jitihadi,NA,NA,NA,"c(""distractor1"", ""distractor2"", ""distractor3"")",NA,NA,NA,NA,NA,NA,NA,NA,NA,NA,NA,NA,NA,NA,NA,NA,NA,NA,NA
86341,Shallow Question,html.Page,2_15_0_0,NA,NA,form submission,2024,93595,93593,93610,95634,95634,2023-03-22T12:33:56Z,95659,Ausschluss,kutengwa,d,ununuzi,taratibu,madeni,madeni,NA,NA,"c(""distractor1"", ""distractor2"", ""distractor3"")",NA,NA,NA,NA,NA,NA,NA,NA,NA,NA,NA,NA,NA,NA,NA,NA,NA,NA,NA
86341,Save data screen,canvas.Screen,2_15_0_1,NA,NA,timeout,501,95634,95643,95659,96143,96144,2023-03-22T12:33:56Z,96160,Ausschluss,kutengwa,d,ununuzi,taratibu,madeni,NA,NA,0,"c(""distractor1"", ""distractor2"", ""distractor3"")",NA,NA,NA,NA,NA,NA,NA,NA,NA,NA,NA,NA,NA,NA,NA,NA,NA,NA,NA
86341,shallow,flow.Sequence,2_15_0,NA,NA,completion,2533,93595,93593,93610,96143,96145,2023-03-22T12:33:56Z,96160,Ausschluss,kutengwa,d,ununuzi,taratibu,madeni,NA,NA,NA,"c(""distractor1"", ""distractor2"", ""distractor3"")",NA,NA,NA,NA,NA,NA,NA,NA,NA,NA,NA,NA,NA,NA,NA,NA,NA,NA,NA
86341,task,flow.Sequence,2_15,NA,NA,completion,2533,93595,93593,93610,96143,96145,2023-03-22T12:33:56Z,96160,Ausschluss,kutengwa,d,ununuzi,taratibu,madeni,NA,NA,NA,"c(""distractor1"", ""distractor2"", ""distractor3"")",NA,NA,NA,NA,NA,NA,NA,NA,NA,NA,NA,NA,NA,NA,NA,NA,NA,NA,NA
86341,retrieval block 2 (multiple choice),flow.Loop,2,NA,NA,completion,54716,41412,41410,41427,96143,96145,2023-03-22T12:33:56Z,96160,NA,NA,NA,NA,NA,NA,NA,NA,NA,"c(""distractor1"", ""distractor2"", ""distractor3"")",NA,NA,NA,NA,NA,NA,NA,NA,NA,NA,NA,NA,NA,NA,NA,NA,NA,NA,NA
86341,End,canvas.Screen,3,NA,keypress(Space),response,2717,96145,96143,96160,98860,98858,2023-03-22T12:33:59Z,98894,NA,NA,NA,NA,NA,NA,NA,NA,NA,NULL,NA,NA,NA,NA,NA,NA,NA,NA,NA,NA,NA,NA,NA,NA,NA,NA,NA,NA,NA
86341,root,flow.Sequence,NA,NA,NA,completion,98564,283,285,296,98860,98859,2023-03-22T12:33:59Z,98894,NA,NA,NA,NA,NA,NA,NA,NA,NA,NULL,NA,NA,NA,NA,NA,NA,NA,NA,NA,NA,NA,NA,NA,NA,NA,NA,NA,NA,NA
