observation,sender,sender_type,sender_id,response,response_action,ended_on,duration,time_run,time_render,time_show,time_end,time_commit,timestamp,time_switch,distractors,german,swahili,enc,distractor1,distractor2,distractor3,response_2,x,correct,x_2,url_vp,url_sess,meta_labjs_version,meta_location,meta_user_agent,meta_platform,meta_language,meta_locale,meta_time_zone,meta_timezone_offset,meta_screen_width,meta_screen_height,meta_scroll_width,meta_scroll_height,meta_window_inner_width,meta_window_inner_height,meta_device_pixel_ratio,meta_labjs_build_flavor,meta_labjs_build_commit
070e7,Introduction general,canvas.Screen,0,weiter,keypress(q),response,52436.54,488,487.64,508.46,52945,52969,2023-09-18T15:28:45Z,52978.42,NULL,NA,NA,NA,NA,NA,NA,NA,NA,NA,NA,181,1,20.2.4,https://neurocog.fernuni.ch/studies/vweber/sliechti/encoding_immediate/index.html?vp=181&sess=1,Mozilla/5.0 (Windows NT 10.0; Win64; x64; rv:109.0) Gecko/20100101 Firefox/117.0,Win32,de,de-CH,Europe/Zurich,-120,1280,720,1280,587,1280,587,1.5,production,f5b4a49f956347addd546a832a3327688c2c0fef
070e7,Introduction practice,canvas.Screen,1_0,NA,keypress(Space),response,15139.58,52971,52971.62,52978.42,68118,68128,2023-09-18T15:29:00Z,68134.04,NULL,NA,NA,NA,NA,NA,NA,NA,NA,NA,NA,NA,NA,NA,NA,NA,NA,NA,NA,NA,NA,NA,NA,NA,NA,NA,NA,NA,NA,NA
070e7,deep,flow.Sequence,1_1_0_0,NA,NA,skipped,NA,68129,NA,NA,68118,68129,2023-09-18T15:29:00Z,68134.04,"c(""distractor1"", ""distractor2"", ""distractor3"")",Kritik,lawama,s,dereva,nafasi,mawazo,NA,NA,NA,NA,NA,NA,NA,NA,NA,NA,NA,NA,NA,NA,NA,NA,NA,NA,NA,NA,NA,NA,NA
070e7,Shallow Question,html.Page,1_1_0_1_0,NA,NA,form submission,13577.96,68130,68129.52,68134.04,81712,81713,2023-09-18T15:29:13Z,81717.1,"c(""distractor1"", ""distractor2"", ""distractor3"")",Kritik,lawama,s,dereva,nafasi,mawazo,nafasi,NA,NA,NA,NA,NA,NA,NA,NA,NA,NA,NA,NA,NA,NA,NA,NA,NA,NA,NA,NA,NA,NA
070e7,"""Richtig""-Screen",canvas.Screen,1_1_0_1_1,NA,NA,skipped,NA,81719,NA,NA,81712,81719,2023-09-18T15:29:13Z,81717.1,"c(""distractor1"", ""distractor2"", ""distractor3"")",Kritik,lawama,s,dereva,nafasi,mawazo,NA,NA,NA,NA,NA,NA,NA,NA,NA,NA,NA,NA,NA,NA,NA,NA,NA,NA,NA,NA,NA,NA,NA
070e7,"""Falsch""-Screen",canvas.Screen,1_1_0_1_2,NA,NA,timeout,5000,81721,81686.04,81717.1,86696.26,86698,2023-09-18T15:29:18Z,86717.1,"c(""distractor1"", ""distractor2"", ""distractor3"")",Kritik,lawama,s,dereva,nafasi,mawazo,NA,NA,0,NA,NA,NA,NA,NA,NA,NA,NA,NA,NA,NA,NA,NA,NA,NA,NA,NA,NA,NA,NA
070e7,shallow,flow.Sequence,1_1_0_1,NA,NA,completion,18562.22,68130,68129.52,68134.04,86696.26,86699,2023-09-18T15:29:18Z,86717.1,"c(""distractor1"", ""distractor2"", ""distractor3"")",Kritik,lawama,s,dereva,nafasi,mawazo,NA,NA,NA,NA,NA,NA,NA,NA,NA,NA,NA,NA,NA,NA,NA,NA,NA,NA,NA,NA,NA,NA,NA
070e7,task,flow.Sequence,1_1_0,NA,NA,completion,18562.22,68128,68129.52,68134.04,86696.26,86699,2023-09-18T15:29:18Z,86717.1,"c(""distractor1"", ""distractor2"", ""distractor3"")",Kritik,lawama,s,dereva,nafasi,mawazo,NA,NA,NA,NA,NA,NA,NA,NA,NA,NA,NA,NA,NA,NA,NA,NA,NA,NA,NA,NA,NA,NA,NA
070e7,Deep Question,html.Page,1_1_1_0_0,NA,NA,form submission,12731.9,86700,86696.26,86717.1,99449,99449,2023-09-18T15:29:31Z,99446.3,"c(""distractor1"", ""distractor2"", ""distractor3"")",Gesundheit,salama,d,NA,NA,NA,dwbs,NA,NA,NA,NA,NA,NA,NA,NA,NA,NA,NA,NA,NA,NA,NA,NA,NA,NA,NA,NA,NA,NA
070e7,"""Richtig""-Screen",canvas.Screen,1_1_1_0_1,NA,NA,skipped,NA,99456,NA,NA,99449,99457,2023-09-18T15:29:31Z,99446.3,"c(""distractor1"", ""distractor2"", ""distractor3"")",Gesundheit,salama,d,NA,NA,NA,NA,NA,NA,NA,NA,NA,NA,NA,NA,NA,NA,NA,NA,NA,NA,NA,NA,NA,NA,NA,NA,NA,NA
070e7,"""Falsch""-Screen",canvas.Screen,1_1_1_0_2,NA,NA,timeout,5000.06,99461,99443.62,99446.3,104426,104427,2023-09-18T15:29:36Z,104446.36,"c(""distractor1"", ""distractor2"", ""distractor3"")",Gesundheit,salama,d,NA,NA,NA,NA,NA,0,NA,NA,NA,NA,NA,NA,NA,NA,NA,NA,NA,NA,NA,NA,NA,NA,NA,NA,NA,NA
070e7,deep,flow.Sequence,1_1_1_0,NA,NA,completion,17708.9,86700,86696.26,86717.1,104426,104428,2023-09-18T15:29:36Z,104446.36,"c(""distractor1"", ""distractor2"", ""distractor3"")",Gesundheit,salama,d,NA,NA,NA,NA,NA,NA,NA,NA,NA,NA,NA,NA,NA,NA,NA,NA,NA,NA,NA,NA,NA,NA,NA,NA,NA,NA
070e7,shallow,flow.Sequence,1_1_1_1,NA,NA,skipped,NA,104429,NA,NA,104426,104429,2023-09-18T15:29:36Z,104446.36,"c(""distractor1"", ""distractor2"", ""distractor3"")",Gesundheit,salama,d,NA,NA,NA,NA,NA,NA,NA,NA,NA,NA,NA,NA,NA,NA,NA,NA,NA,NA,NA,NA,NA,NA,NA,NA,NA,NA
070e7,task,flow.Sequence,1_1_1,NA,NA,completion,17708.9,86700,86696.26,86717.1,104426,104429,2023-09-18T15:29:36Z,104446.36,"c(""distractor1"", ""distractor2"", ""distractor3"")",Gesundheit,salama,d,NA,NA,NA,NA,NA,NA,NA,NA,NA,NA,NA,NA,NA,NA,NA,NA,NA,NA,NA,NA,NA,NA,NA,NA,NA,NA
070e7,deep,flow.Sequence,1_1_2_0,NA,NA,skipped,NA,104430,NA,NA,104426,104430,2023-09-18T15:29:36Z,104446.36,"c(""distractor1"", ""distractor2"", ""distractor3"")",Gegenwart,hadhara,s,katiba,jokofu,mikopo,NA,NA,NA,NA,NA,NA,NA,NA,NA,NA,NA,NA,NA,NA,NA,NA,NA,NA,NA,NA,NA,NA,NA
070e7,Shallow Question,html.Page,1_1_2_1_0,NA,NA,form submission,12533.64,104431,104426,104446.36,116980,116981,2023-09-18T15:29:49Z,116988.08,"c(""distractor1"", ""distractor2"", ""distractor3"")",Gegenwart,hadhara,s,katiba,jokofu,mikopo,jokofu,NA,NA,NA,NA,NA,NA,NA,NA,NA,NA,NA,NA,NA,NA,NA,NA,NA,NA,NA,NA,NA,NA
070e7,"""Richtig""-Screen",canvas.Screen,1_1_2_1_1,NA,NA,skipped,NA,116987,NA,NA,116980,116987,2023-09-18T15:29:49Z,116988.08,"c(""distractor1"", ""distractor2"", ""distractor3"")",Gegenwart,hadhara,s,katiba,jokofu,mikopo,NA,NA,NA,NA,NA,NA,NA,NA,NA,NA,NA,NA,NA,NA,NA,NA,NA,NA,NA,NA,NA,NA,NA
070e7,"""Falsch""-Screen",canvas.Screen,1_1_2_1_2,NA,NA,timeout,5000.18,116994,116975.2,116988.08,121967.3,121968,2023-09-18T15:29:54Z,121988.26,"c(""distractor1"", ""distractor2"", ""distractor3"")",Gegenwart,hadhara,s,katiba,jokofu,mikopo,NA,NA,0,NA,NA,NA,NA,NA,NA,NA,NA,NA,NA,NA,NA,NA,NA,NA,NA,NA,NA,NA,NA
070e7,shallow,flow.Sequence,1_1_2_1,NA,NA,completion,17520.94,104431,104426,104446.36,121967.3,121969,2023-09-18T15:29:54Z,121988.26,"c(""distractor1"", ""distractor2"", ""distractor3"")",Gegenwart,hadhara,s,katiba,jokofu,mikopo,NA,NA,NA,NA,NA,NA,NA,NA,NA,NA,NA,NA,NA,NA,NA,NA,NA,NA,NA,NA,NA,NA,NA
070e7,task,flow.Sequence,1_1_2,NA,NA,completion,17520.94,104430,104426,104446.36,121967.3,121970,2023-09-18T15:29:54Z,121988.26,"c(""distractor1"", ""distractor2"", ""distractor3"")",Gegenwart,hadhara,s,katiba,jokofu,mikopo,NA,NA,NA,NA,NA,NA,NA,NA,NA,NA,NA,NA,NA,NA,NA,NA,NA,NA,NA,NA,NA,NA,NA
070e7,deep,flow.Sequence,1_1_3_0,NA,NA,skipped,NA,121970,NA,NA,121967.3,121970,2023-09-18T15:29:54Z,121988.26,"c(""distractor1"", ""distractor2"", ""distractor3"")",Rückhalt,msaada,s,muhula,auwali,kiwimbe,NA,NA,NA,NA,NA,NA,NA,NA,NA,NA,NA,NA,NA,NA,NA,NA,NA,NA,NA,NA,NA,NA,NA
070e7,Shallow Question,html.Page,1_1_3_1_0,NA,NA,form submission,8823.74,121971,121967.3,121988.26,130812,130812,2023-09-18T15:30:03Z,130821.38,"c(""distractor1"", ""distractor2"", ""distractor3"")",Rückhalt,msaada,s,muhula,auwali,kiwimbe,msaada,NA,NA,NA,NA,NA,NA,NA,NA,NA,NA,NA,NA,NA,NA,NA,NA,NA,NA,NA,NA,NA,NA
070e7,"""Richtig""-Screen",canvas.Screen,1_1_3_1_1,NA,NA,timeout,4999.98,130814,130808.32,130821.38,135800.68,135802,2023-09-18T15:30:08Z,135821.36,"c(""distractor1"", ""distractor2"", ""distractor3"")",Rückhalt,msaada,s,muhula,auwali,kiwimbe,NA,NA,1,NA,NA,NA,NA,NA,NA,NA,NA,NA,NA,NA,NA,NA,NA,NA,NA,NA,NA,NA,NA
070e7,"""Falsch""-Screen",canvas.Screen,1_1_3_1_2,NA,NA,skipped,NA,135809,NA,NA,135800.68,135809,2023-09-18T15:30:08Z,135821.36,"c(""distractor1"", ""distractor2"", ""distractor3"")",Rückhalt,msaada,s,muhula,auwali,kiwimbe,NA,NA,NA,NA,NA,NA,NA,NA,NA,NA,NA,NA,NA,NA,NA,NA,NA,NA,NA,NA,NA,NA,NA
070e7,shallow,flow.Sequence,1_1_3_1,NA,NA,completion,13812.42,121971,121967.3,121988.26,135800.68,135809,2023-09-18T15:30:08Z,135821.36,"c(""distractor1"", ""distractor2"", ""distractor3"")",Rückhalt,msaada,s,muhula,auwali,kiwimbe,NA,NA,NA,NA,NA,NA,NA,NA,NA,NA,NA,NA,NA,NA,NA,NA,NA,NA,NA,NA,NA,NA,NA
070e7,task,flow.Sequence,1_1_3,NA,NA,completion,13812.42,121970,121967.3,121988.26,135800.68,135810,2023-09-18T15:30:08Z,135821.36,"c(""distractor1"", ""distractor2"", ""distractor3"")",Rückhalt,msaada,s,muhula,auwali,kiwimbe,NA,NA,NA,NA,NA,NA,NA,NA,NA,NA,NA,NA,NA,NA,NA,NA,NA,NA,NA,NA,NA,NA,NA
070e7,Deep Question,html.Page,1_1_4_0_0,NA,NA,form submission,8124.64,135811,135800.68,135821.36,143946,143947,2023-09-18T15:30:16Z,143946.5,"c(""distractor1"", ""distractor2"", ""distractor3"")",Schatten,kivuli,d,NA,NA,NA,gebi,NA,NA,NA,NA,NA,NA,NA,NA,NA,NA,NA,NA,NA,NA,NA,NA,NA,NA,NA,NA,NA,NA
070e7,"""Richtig""-Screen",canvas.Screen,1_1_4_0_1,NA,NA,skipped,NA,143952,NA,NA,143946,143952,2023-09-18T15:30:16Z,143946.5,"c(""distractor1"", ""distractor2"", ""distractor3"")",Schatten,kivuli,d,NA,NA,NA,NA,NA,NA,NA,NA,NA,NA,NA,NA,NA,NA,NA,NA,NA,NA,NA,NA,NA,NA,NA,NA,NA,NA
070e7,"""Falsch""-Screen",canvas.Screen,1_1_4_0_2,NA,NA,timeout,5000.1,143955,143941.16,143946.5,148925.68,148927,2023-09-18T15:30:21Z,148946.6,"c(""distractor1"", ""distractor2"", ""distractor3"")",Schatten,kivuli,d,NA,NA,NA,NA,NA,0,NA,NA,NA,NA,NA,NA,NA,NA,NA,NA,NA,NA,NA,NA,NA,NA,NA,NA,NA,NA
070e7,deep,flow.Sequence,1_1_4_0,NA,NA,completion,13104.32,135811,135800.68,135821.36,148925.68,148928,2023-09-18T15:30:21Z,148946.6,"c(""distractor1"", ""distractor2"", ""distractor3"")",Schatten,kivuli,d,NA,NA,NA,NA,NA,NA,NA,NA,NA,NA,NA,NA,NA,NA,NA,NA,NA,NA,NA,NA,NA,NA,NA,NA,NA,NA
070e7,shallow,flow.Sequence,1_1_4_1,NA,NA,skipped,NA,148928,NA,NA,148925.68,148929,2023-09-18T15:30:21Z,148946.6,"c(""distractor1"", ""distractor2"", ""distractor3"")",Schatten,kivuli,d,NA,NA,NA,NA,NA,NA,NA,NA,NA,NA,NA,NA,NA,NA,NA,NA,NA,NA,NA,NA,NA,NA,NA,NA,NA,NA
070e7,task,flow.Sequence,1_1_4,NA,NA,completion,13104.32,135810,135800.68,135821.36,148925.68,148929,2023-09-18T15:30:21Z,148946.6,"c(""distractor1"", ""distractor2"", ""distractor3"")",Schatten,kivuli,d,NA,NA,NA,NA,NA,NA,NA,NA,NA,NA,NA,NA,NA,NA,NA,NA,NA,NA,NA,NA,NA,NA,NA,NA,NA,NA
070e7,Deep Question,html.Page,1_1_5_0_0,NA,NA,form submission,7041.4,148929,148925.68,148946.6,155988,155989,2023-09-18T15:30:28Z,155988.14,"c(""distractor1"", ""distractor2"", ""distractor3"")",Qualität,mtindo,d,NA,NA,NA,qunti,NA,NA,NA,NA,NA,NA,NA,NA,NA,NA,NA,NA,NA,NA,NA,NA,NA,NA,NA,NA,NA,NA
070e7,"""Richtig""-Screen",canvas.Screen,1_1_5_0_1,NA,NA,skipped,NA,155995,NA,NA,155988,155995,2023-09-18T15:30:28Z,155988.14,"c(""distractor1"", ""distractor2"", ""distractor3"")",Qualität,mtindo,d,NA,NA,NA,NA,NA,NA,NA,NA,NA,NA,NA,NA,NA,NA,NA,NA,NA,NA,NA,NA,NA,NA,NA,NA,NA,NA
070e7,"""Falsch""-Screen",canvas.Screen,1_1_5_0_2,NA,NA,timeout,4999.98,156000,155982.96,155988.14,160967.76,160969,2023-09-18T15:30:33Z,160988.12,"c(""distractor1"", ""distractor2"", ""distractor3"")",Qualität,mtindo,d,NA,NA,NA,NA,NA,0,NA,NA,NA,NA,NA,NA,NA,NA,NA,NA,NA,NA,NA,NA,NA,NA,NA,NA,NA,NA
070e7,deep,flow.Sequence,1_1_5_0,NA,NA,completion,12021.16,148929,148925.68,148946.6,160967.76,160970,2023-09-18T15:30:33Z,160988.12,"c(""distractor1"", ""distractor2"", ""distractor3"")",Qualität,mtindo,d,NA,NA,NA,NA,NA,NA,NA,NA,NA,NA,NA,NA,NA,NA,NA,NA,NA,NA,NA,NA,NA,NA,NA,NA,NA,NA
070e7,shallow,flow.Sequence,1_1_5_1,NA,NA,skipped,NA,160970,NA,NA,160967.76,160970,2023-09-18T15:30:33Z,160988.12,"c(""distractor1"", ""distractor2"", ""distractor3"")",Qualität,mtindo,d,NA,NA,NA,NA,NA,NA,NA,NA,NA,NA,NA,NA,NA,NA,NA,NA,NA,NA,NA,NA,NA,NA,NA,NA,NA,NA
070e7,task,flow.Sequence,1_1_5,NA,NA,completion,12021.16,148929,148925.68,148946.6,160967.76,160971,2023-09-18T15:30:33Z,160988.12,"c(""distractor1"", ""distractor2"", ""distractor3"")",Qualität,mtindo,d,NA,NA,NA,NA,NA,NA,NA,NA,NA,NA,NA,NA,NA,NA,NA,NA,NA,NA,NA,NA,NA,NA,NA,NA,NA,NA
070e7,block,flow.Loop,1_1,NA,NA,completion,92833.72,68128,68129.52,68134.04,160967.76,160971,2023-09-18T15:30:33Z,160988.12,"c(""distractor1"", ""distractor2"", ""distractor3"")",NA,NA,NA,NA,NA,NA,NA,NA,NA,NA,NA,NA,NA,NA,NA,NA,NA,NA,NA,NA,NA,NA,NA,NA,NA,NA,NA,NA,NA
070e7,Practice,flow.Sequence,1,NA,NA,completion,107989.34,52971,52971.62,52978.42,160967.76,160972,2023-09-18T15:30:33Z,160988.12,NULL,NA,NA,NA,NA,NA,NA,NA,NA,NA,NA,NA,NA,NA,NA,NA,NA,NA,NA,NA,NA,NA,NA,NA,NA,NA,NA,NA,NA,NA
070e7,Experiment start,canvas.Screen,2,weiter,keypress(q),response,36081.88,160972,160967.76,160988.12,197070,197085,2023-09-18T15:31:09Z,197174.74,NULL,NA,NA,NA,NA,NA,NA,NA,NA,NA,NA,NA,NA,NA,NA,NA,NA,NA,NA,NA,NA,NA,NA,NA,NA,NA,NA,NA,NA,NA
070e7,deep,flow.Sequence,3_0_0_0_0_0,NA,NA,skipped,NA,197174,NA,NA,197070,197174,2023-09-18T15:31:09Z,197174.74,NULL,Genehmigung,idhini,s,mwanamke,itikadi,fedheha,NA,sdf,NA,0,NA,NA,NA,NA,NA,NA,NA,NA,NA,NA,NA,NA,NA,NA,NA,NA,NA,NA,NA
070e7,Shallow Question,html.Page,3_0_0_0_0_1_0,NA,NA,form submission,14602.26,197174,197174.38,197174.74,211777,211778,2023-09-18T15:31:24Z,211779.92,NULL,Genehmigung,idhini,s,mwanamke,itikadi,fedheha,fedheha,NA,NA,0,NA,NA,NA,NA,NA,NA,NA,NA,NA,NA,NA,NA,NA,NA,NA,NA,NA,NA,NA
070e7,"""Richtig""-Screen",canvas.Screen,3_0_0_0_0_1_1,NA,NA,skipped,NA,211781,NA,NA,211777,211781,2023-09-18T15:31:24Z,211779.92,NULL,Genehmigung,idhini,s,mwanamke,itikadi,fedheha,NA,sdf,NA,0,NA,NA,NA,NA,NA,NA,NA,NA,NA,NA,NA,NA,NA,NA,NA,NA,NA,NA,NA
070e7,"""Falsch""-Screen",canvas.Screen,3_0_0_0_0_1_2,NA,NA,timeout,5000.02,211784,211772.7,211779.92,216759.52,216760,2023-09-18T15:31:29Z,216779.94,NULL,Genehmigung,idhini,s,mwanamke,itikadi,fedheha,NA,sdf,0,0,NA,NA,NA,NA,NA,NA,NA,NA,NA,NA,NA,NA,NA,NA,NA,NA,NA,NA,NA
070e7,shallow,flow.Sequence,3_0_0_0_0_1,NA,NA,completion,19584.78,197174,197174.38,197174.74,216759.52,216762,2023-09-18T15:31:29Z,216779.94,NULL,Genehmigung,idhini,s,mwanamke,itikadi,fedheha,NA,sdf,NA,0,NA,NA,NA,NA,NA,NA,NA,NA,NA,NA,NA,NA,NA,NA,NA,NA,NA,NA,NA
070e7,task,flow.Sequence,3_0_0_0_0,NA,NA,completion,19584.78,197174,197174.38,197174.74,216759.52,216762,2023-09-18T15:31:29Z,216779.94,NULL,Genehmigung,idhini,s,mwanamke,itikadi,fedheha,NA,sdf,NA,0,NA,NA,NA,NA,NA,NA,NA,NA,NA,NA,NA,NA,NA,NA,NA,NA,NA,NA,NA
070e7,deep,flow.Sequence,3_0_0_0_1_0,NA,NA,skipped,NA,216762,NA,NA,216759.52,216763,2023-09-18T15:31:29Z,216779.94,NULL,Schlange,foleni,s,uvumilivu,uteuzi,muuzaji,NA,sdf,NA,0,NA,NA,NA,NA,NA,NA,NA,NA,NA,NA,NA,NA,NA,NA,NA,NA,NA,NA,NA
070e7,Shallow Question,html.Page,3_0_0_0_1_1_0,NA,NA,form submission,8885.06,216763,216759.52,216779.94,225665,225665,2023-09-18T15:31:37Z,225675.76,NULL,Schlange,foleni,s,uvumilivu,uteuzi,muuzaji,uvumilivu,NA,NA,0,NA,NA,NA,NA,NA,NA,NA,NA,NA,NA,NA,NA,NA,NA,NA,NA,NA,NA,NA
070e7,"""Richtig""-Screen",canvas.Screen,3_0_0_0_1_1_1,NA,NA,skipped,NA,225670,NA,NA,225665,225670,2023-09-18T15:31:37Z,225675.76,NULL,Schlange,foleni,s,uvumilivu,uteuzi,muuzaji,NA,sdf,NA,0,NA,NA,NA,NA,NA,NA,NA,NA,NA,NA,NA,NA,NA,NA,NA,NA,NA,NA,NA
070e7,"""Falsch""-Screen",canvas.Screen,3_0_0_0_1_1_2,NA,NA,timeout,5000.08,225676,225660,225675.76,230655.08,230662,2023-09-18T15:31:42Z,230675.84,NULL,Schlange,foleni,s,uvumilivu,uteuzi,muuzaji,NA,sdf,0,0,NA,NA,NA,NA,NA,NA,NA,NA,NA,NA,NA,NA,NA,NA,NA,NA,NA,NA,NA
070e7,shallow,flow.Sequence,3_0_0_0_1_1,NA,NA,completion,13875.14,216763,216759.52,216779.94,230655.08,230664,2023-09-18T15:31:42Z,230675.84,NULL,Schlange,foleni,s,uvumilivu,uteuzi,muuzaji,NA,sdf,NA,0,NA,NA,NA,NA,NA,NA,NA,NA,NA,NA,NA,NA,NA,NA,NA,NA,NA,NA,NA
070e7,task,flow.Sequence,3_0_0_0_1,NA,NA,completion,13875.14,216762,216759.52,216779.94,230655.08,230665,2023-09-18T15:31:42Z,230675.84,NULL,Schlange,foleni,s,uvumilivu,uteuzi,muuzaji,NA,sdf,NA,0,NA,NA,NA,NA,NA,NA,NA,NA,NA,NA,NA,NA,NA,NA,NA,NA,NA,NA,NA
070e7,Deep Question,html.Page,3_0_0_0_2_0_0,NA,NA,form submission,6718.16,230666,230655.08,230675.84,237394,237395,2023-09-18T15:31:49Z,237405.08,NULL,Inhalt,yaliyomo,d,NA,NA,NA,inholt,NA,NA,0,NA,NA,NA,NA,NA,NA,NA,NA,NA,NA,NA,NA,NA,NA,NA,NA,NA,NA,NA
070e7,"""Richtig""-Screen",canvas.Screen,3_0_0_0_2_0_1,NA,NA,skipped,NA,237404,NA,NA,237394,237405,2023-09-18T15:31:49Z,237405.08,NULL,Inhalt,yaliyomo,d,NA,NA,NA,NA,sdf,NA,0,NA,NA,NA,NA,NA,NA,NA,NA,NA,NA,NA,NA,NA,NA,NA,NA,NA,NA,NA
070e7,"""Falsch""-Screen",canvas.Screen,3_0_0_0_2_0_2,NA,NA,timeout,4999.98,237410,237388,237405.08,242384.3,242386,2023-09-18T15:31:54Z,242405.06,NULL,Inhalt,yaliyomo,d,NA,NA,NA,NA,sdf,0,0,NA,NA,NA,NA,NA,NA,NA,NA,NA,NA,NA,NA,NA,NA,NA,NA,NA,NA,NA
070e7,deep,flow.Sequence,3_0_0_0_2_0,NA,NA,completion,11708.46,230666,230655.08,230675.84,242384.3,242387,2023-09-18T15:31:54Z,242405.06,NULL,Inhalt,yaliyomo,d,NA,NA,NA,NA,sdf,NA,0,NA,NA,NA,NA,NA,NA,NA,NA,NA,NA,NA,NA,NA,NA,NA,NA,NA,NA,NA
070e7,shallow,flow.Sequence,3_0_0_0_2_1,NA,NA,skipped,NA,242387,NA,NA,242384.3,242388,2023-09-18T15:31:54Z,242405.06,NULL,Inhalt,yaliyomo,d,NA,NA,NA,NA,sdf,NA,0,NA,NA,NA,NA,NA,NA,NA,NA,NA,NA,NA,NA,NA,NA,NA,NA,NA,NA,NA
070e7,task,flow.Sequence,3_0_0_0_2,NA,NA,completion,11708.46,230666,230655.08,230675.84,242384.3,242388,2023-09-18T15:31:54Z,242405.06,NULL,Inhalt,yaliyomo,d,NA,NA,NA,NA,sdf,NA,0,NA,NA,NA,NA,NA,NA,NA,NA,NA,NA,NA,NA,NA,NA,NA,NA,NA,NA,NA
070e7,Deep Question,html.Page,3_0_0_0_3_0_0,NA,NA,form submission,8237.94,242389,242384.3,242405.06,250643,250643,2023-09-18T15:32:02Z,250655.02,NULL,Fleisch,mshakiki,d,NA,NA,NA,hep,NA,NA,0,NA,NA,NA,NA,NA,NA,NA,NA,NA,NA,NA,NA,NA,NA,NA,NA,NA,NA,NA
070e7,"""Richtig""-Screen",canvas.Screen,3_0_0_0_3_0_1,NA,NA,skipped,NA,250647,NA,NA,250643,250648,2023-09-18T15:32:02Z,250655.02,NULL,Fleisch,mshakiki,d,NA,NA,NA,NA,sdf,NA,0,NA,NA,NA,NA,NA,NA,NA,NA,NA,NA,NA,NA,NA,NA,NA,NA,NA,NA,NA
070e7,"""Falsch""-Screen",canvas.Screen,3_0_0_0_3_0_2,NA,NA,timeout,5000.38,250653,250637.6,250655.02,255634.74,255636,2023-09-18T15:32:07Z,255655.4,NULL,Fleisch,mshakiki,d,NA,NA,NA,NA,sdf,0,0,NA,NA,NA,NA,NA,NA,NA,NA,NA,NA,NA,NA,NA,NA,NA,NA,NA,NA,NA
070e7,deep,flow.Sequence,3_0_0_0_3_0,NA,NA,completion,13229.68,242389,242384.3,242405.06,255634.74,255637,2023-09-18T15:32:07Z,255655.4,NULL,Fleisch,mshakiki,d,NA,NA,NA,NA,sdf,NA,0,NA,NA,NA,NA,NA,NA,NA,NA,NA,NA,NA,NA,NA,NA,NA,NA,NA,NA,NA
070e7,shallow,flow.Sequence,3_0_0_0_3_1,NA,NA,skipped,NA,255637,NA,NA,255634.74,255637,2023-09-18T15:32:07Z,255655.4,NULL,Fleisch,mshakiki,d,NA,NA,NA,NA,sdf,NA,0,NA,NA,NA,NA,NA,NA,NA,NA,NA,NA,NA,NA,NA,NA,NA,NA,NA,NA,NA
070e7,task,flow.Sequence,3_0_0_0_3,NA,NA,completion,13229.68,242389,242384.3,242405.06,255634.74,255638,2023-09-18T15:32:07Z,255655.4,NULL,Fleisch,mshakiki,d,NA,NA,NA,NA,sdf,NA,0,NA,NA,NA,NA,NA,NA,NA,NA,NA,NA,NA,NA,NA,NA,NA,NA,NA,NA,NA
070e7,Deep Question,html.Page,3_0_0_0_4_0_0,NA,NA,form submission,8761.6,255639,255634.74,255655.4,264417,264417,2023-09-18T15:32:16Z,264425.92,NULL,Integrität,uadilifu,d,NA,NA,NA,inta,NA,NA,0,NA,NA,NA,NA,NA,NA,NA,NA,NA,NA,NA,NA,NA,NA,NA,NA,NA,NA,NA
070e7,"""Richtig""-Screen",canvas.Screen,3_0_0_0_4_0_1,NA,NA,skipped,NA,264421,NA,NA,264417,264422,2023-09-18T15:32:16Z,264425.92,NULL,Integrität,uadilifu,d,NA,NA,NA,NA,sdf,NA,0,NA,NA,NA,NA,NA,NA,NA,NA,NA,NA,NA,NA,NA,NA,NA,NA,NA,NA,NA
070e7,"""Falsch""-Screen",canvas.Screen,3_0_0_0_4_0_2,NA,NA,timeout,5000.04,264426,264404.4,264425.92,269405.62,269407,2023-09-18T15:32:21Z,269425.96,NULL,Integrität,uadilifu,d,NA,NA,NA,NA,sdf,0,0,NA,NA,NA,NA,NA,NA,NA,NA,NA,NA,NA,NA,NA,NA,NA,NA,NA,NA,NA
070e7,deep,flow.Sequence,3_0_0_0_4_0,NA,NA,completion,13750.22,255638,255634.74,255655.4,269405.62,269407,2023-09-18T15:32:21Z,269425.96,NULL,Integrität,uadilifu,d,NA,NA,NA,NA,sdf,NA,0,NA,NA,NA,NA,NA,NA,NA,NA,NA,NA,NA,NA,NA,NA,NA,NA,NA,NA,NA
070e7,shallow,flow.Sequence,3_0_0_0_4_1,NA,NA,skipped,NA,269407,NA,NA,269405.62,269408,2023-09-18T15:32:21Z,269425.96,NULL,Integrität,uadilifu,d,NA,NA,NA,NA,sdf,NA,0,NA,NA,NA,NA,NA,NA,NA,NA,NA,NA,NA,NA,NA,NA,NA,NA,NA,NA,NA
070e7,task,flow.Sequence,3_0_0_0_4,NA,NA,completion,13750.22,255638,255634.74,255655.4,269405.62,269408,2023-09-18T15:32:21Z,269425.96,NULL,Integrität,uadilifu,d,NA,NA,NA,NA,sdf,NA,0,NA,NA,NA,NA,NA,NA,NA,NA,NA,NA,NA,NA,NA,NA,NA,NA,NA,NA,NA
070e7,Deep Question,html.Page,3_0_0_0_5_0_0,NA,NA,form submission,9237.04,269410,269405.62,269425.96,278663,278664,2023-09-18T15:32:30Z,278675.96,NULL,Vermutung,udhanifu,d,NA,NA,NA,mutata,NA,NA,0,NA,NA,NA,NA,NA,NA,NA,NA,NA,NA,NA,NA,NA,NA,NA,NA,NA,NA,NA
070e7,"""Richtig""-Screen",canvas.Screen,3_0_0_0_5_0_1,NA,NA,skipped,NA,278667,NA,NA,278663,278668,2023-09-18T15:32:30Z,278675.96,NULL,Vermutung,udhanifu,d,NA,NA,NA,NA,sdf,NA,0,NA,NA,NA,NA,NA,NA,NA,NA,NA,NA,NA,NA,NA,NA,NA,NA,NA,NA,NA
070e7,"""Falsch""-Screen",canvas.Screen,3_0_0_0_5_0_2,NA,NA,timeout,5000.02,278671,278656.82,278675.96,283655.3,283657,2023-09-18T15:32:35Z,283675.98,NULL,Vermutung,udhanifu,d,NA,NA,NA,NA,sdf,0,0,NA,NA,NA,NA,NA,NA,NA,NA,NA,NA,NA,NA,NA,NA,NA,NA,NA,NA,NA
070e7,deep,flow.Sequence,3_0_0_0_5_0,NA,NA,completion,14229.34,269410,269405.62,269425.96,283655.3,283657,2023-09-18T15:32:35Z,283675.98,NULL,Vermutung,udhanifu,d,NA,NA,NA,NA,sdf,NA,0,NA,NA,NA,NA,NA,NA,NA,NA,NA,NA,NA,NA,NA,NA,NA,NA,NA,NA,NA
070e7,shallow,flow.Sequence,3_0_0_0_5_1,NA,NA,skipped,NA,283657,NA,NA,283655.3,283659,2023-09-18T15:32:35Z,283675.98,NULL,Vermutung,udhanifu,d,NA,NA,NA,NA,sdf,NA,0,NA,NA,NA,NA,NA,NA,NA,NA,NA,NA,NA,NA,NA,NA,NA,NA,NA,NA,NA
070e7,task,flow.Sequence,3_0_0_0_5,NA,NA,completion,14229.34,269410,269405.62,269425.96,283655.3,283659,2023-09-18T15:32:35Z,283675.98,NULL,Vermutung,udhanifu,d,NA,NA,NA,NA,sdf,NA,0,NA,NA,NA,NA,NA,NA,NA,NA,NA,NA,NA,NA,NA,NA,NA,NA,NA,NA,NA
070e7,deep,flow.Sequence,3_0_0_0_6_0,NA,NA,skipped,NA,283659,NA,NA,283655.3,283660,2023-09-18T15:32:35Z,283675.98,NULL,Toleranz,kuvumiliana,s,maombolezo,ujasusi,mchekeshaji,NA,sdf,NA,0,NA,NA,NA,NA,NA,NA,NA,NA,NA,NA,NA,NA,NA,NA,NA,NA,NA,NA,NA
070e7,Shallow Question,html.Page,3_0_0_0_6_1_0,NA,NA,form submission,10144.02,283660,283655.3,283675.98,293820,293823,2023-09-18T15:32:46Z,293821.9,NULL,Toleranz,kuvumiliana,s,maombolezo,ujasusi,mchekeshaji,ujasusi,NA,NA,0,NA,NA,NA,NA,NA,NA,NA,NA,NA,NA,NA,NA,NA,NA,NA,NA,NA,NA,NA
070e7,"""Richtig""-Screen",canvas.Screen,3_0_0_0_6_1_1,NA,NA,skipped,NA,293836,NA,NA,293820,293836,2023-09-18T15:32:46Z,293821.9,NULL,Toleranz,kuvumiliana,s,maombolezo,ujasusi,mchekeshaji,NA,sdf,NA,0,NA,NA,NA,NA,NA,NA,NA,NA,NA,NA,NA,NA,NA,NA,NA,NA,NA,NA,NA
070e7,"""Falsch""-Screen",canvas.Screen,3_0_0_0_6_1_2,NA,NA,timeout,4999.98,293840,293811.34,293821.9,298801.14,298802,2023-09-18T15:32:51Z,298821.88,NULL,Toleranz,kuvumiliana,s,maombolezo,ujasusi,mchekeshaji,NA,sdf,0,0,NA,NA,NA,NA,NA,NA,NA,NA,NA,NA,NA,NA,NA,NA,NA,NA,NA,NA,NA
070e7,shallow,flow.Sequence,3_0_0_0_6_1,NA,NA,completion,15125.16,283660,283655.3,283675.98,298801.14,298803,2023-09-18T15:32:51Z,298821.88,NULL,Toleranz,kuvumiliana,s,maombolezo,ujasusi,mchekeshaji,NA,sdf,NA,0,NA,NA,NA,NA,NA,NA,NA,NA,NA,NA,NA,NA,NA,NA,NA,NA,NA,NA,NA
070e7,task,flow.Sequence,3_0_0_0_6,NA,NA,completion,15125.16,283659,283655.3,283675.98,298801.14,298804,2023-09-18T15:32:51Z,298821.88,NULL,Toleranz,kuvumiliana,s,maombolezo,ujasusi,mchekeshaji,NA,sdf,NA,0,NA,NA,NA,NA,NA,NA,NA,NA,NA,NA,NA,NA,NA,NA,NA,NA,NA,NA,NA
070e7,deep,flow.Sequence,3_0_0_0_7_0,NA,NA,skipped,NA,298805,NA,NA,298801.14,298805,2023-09-18T15:32:51Z,298821.88,NULL,Begegnung,kukutana,s,mmasihiya,mpiganaji,husiano,NA,sdf,NA,0,NA,NA,NA,NA,NA,NA,NA,NA,NA,NA,NA,NA,NA,NA,NA,NA,NA,NA,NA
070e7,Shallow Question,html.Page,3_0_0_0_7_1_0,NA,NA,form submission,8380.12,298806,298801.14,298821.88,307202,307203,2023-09-18T15:32:59Z,307196.9,NULL,Begegnung,kukutana,s,mmasihiya,mpiganaji,husiano,mpiganaji,NA,NA,0,NA,NA,NA,NA,NA,NA,NA,NA,NA,NA,NA,NA,NA,NA,NA,NA,NA,NA,NA
070e7,"""Richtig""-Screen",canvas.Screen,3_0_0_0_7_1_1,NA,NA,skipped,NA,307208,NA,NA,307202,307209,2023-09-18T15:32:59Z,307196.9,NULL,Begegnung,kukutana,s,mmasihiya,mpiganaji,husiano,NA,sdf,NA,0,NA,NA,NA,NA,NA,NA,NA,NA,NA,NA,NA,NA,NA,NA,NA,NA,NA,NA,NA
070e7,"""Falsch""-Screen",canvas.Screen,3_0_0_0_7_1_2,NA,NA,timeout,5000.2,307214,307195.84,307196.9,312176.16,312178,2023-09-18T15:33:04Z,312197.1,NULL,Begegnung,kukutana,s,mmasihiya,mpiganaji,husiano,NA,sdf,0,0,NA,NA,NA,NA,NA,NA,NA,NA,NA,NA,NA,NA,NA,NA,NA,NA,NA,NA,NA
070e7,shallow,flow.Sequence,3_0_0_0_7_1,NA,NA,completion,13354.28,298806,298801.14,298821.88,312176.16,312179,2023-09-18T15:33:04Z,312197.1,NULL,Begegnung,kukutana,s,mmasihiya,mpiganaji,husiano,NA,sdf,NA,0,NA,NA,NA,NA,NA,NA,NA,NA,NA,NA,NA,NA,NA,NA,NA,NA,NA,NA,NA
070e7,task,flow.Sequence,3_0_0_0_7,NA,NA,completion,13354.28,298805,298801.14,298821.88,312176.16,312180,2023-09-18T15:33:04Z,312197.1,NULL,Begegnung,kukutana,s,mmasihiya,mpiganaji,husiano,NA,sdf,NA,0,NA,NA,NA,NA,NA,NA,NA,NA,NA,NA,NA,NA,NA,NA,NA,NA,NA,NA,NA
070e7,block,flow.Loop,3_0_0_0,NA,NA,completion,115001.42,197174,197174.38,197174.74,312176.16,312181,2023-09-18T15:33:04Z,312197.1,NULL,NA,NA,NA,NA,NA,NA,NA,sdf,NA,0,NA,NA,NA,NA,NA,NA,NA,NA,NA,NA,NA,NA,NA,NA,NA,NA,NA,NA,NA
070e7,weiter,canvas.Screen,3_0_0_1,sdf,keypress(Space),response,4529.9,312181,312176.16,312197.1,316727,316737,2023-09-18T15:33:09Z,316801.86,NULL,NA,NA,NA,NA,NA,NA,NA,sdf,NA,0,NA,NA,NA,NA,NA,NA,NA,NA,NA,NA,NA,NA,NA,NA,NA,NA,NA,NA,NA
070e7,check continue,flow.Sequence,3_0_0,NA,NA,completion,119552.26,197174,197174.38,197174.74,316727,316737,2023-09-18T15:33:09Z,316801.86,NULL,NA,NA,NA,NA,NA,NA,NA,sdf,NA,0,NA,NA,NA,NA,NA,NA,NA,NA,NA,NA,NA,NA,NA,NA,NA,NA,NA,NA,NA
070e7,deep,flow.Sequence,3_0_1_0_0_0,NA,NA,skipped,NA,316801,NA,NA,316727,316801,2023-09-18T15:33:09Z,316801.86,NULL,Begegnung,kukutana,s,mmasihiya,mpiganaji,husiano,NA,sdfdsf,NA,1,NA,NA,NA,NA,NA,NA,NA,NA,NA,NA,NA,NA,NA,NA,NA,NA,NA,NA,NA
070e7,Shallow Question,html.Page,3_0_1_0_0_1_0,NA,NA,form submission,11827.14,316801,316801.56,316801.86,328629,328631,2023-09-18T15:33:20Z,328634.56,NULL,Begegnung,kukutana,s,mmasihiya,mpiganaji,husiano,kukutana,NA,NA,1,NA,NA,NA,NA,NA,NA,NA,NA,NA,NA,NA,NA,NA,NA,NA,NA,NA,NA,NA
070e7,"""Richtig""-Screen",canvas.Screen,3_0_1_0_0_1_1,NA,NA,timeout,4999.88,328635,328624.82,328634.56,333614.02,333615,2023-09-18T15:33:25Z,333634.44,NULL,Begegnung,kukutana,s,mmasihiya,mpiganaji,husiano,NA,sdfdsf,1,1,NA,NA,NA,NA,NA,NA,NA,NA,NA,NA,NA,NA,NA,NA,NA,NA,NA,NA,NA
070e7,"""Falsch""-Screen",canvas.Screen,3_0_1_0_0_1_2,NA,NA,skipped,NA,333621,NA,NA,333614.02,333622,2023-09-18T15:33:25Z,333634.44,NULL,Begegnung,kukutana,s,mmasihiya,mpiganaji,husiano,NA,sdfdsf,NA,1,NA,NA,NA,NA,NA,NA,NA,NA,NA,NA,NA,NA,NA,NA,NA,NA,NA,NA,NA
070e7,shallow,flow.Sequence,3_0_1_0_0_1,NA,NA,completion,16812.16,316801,316801.56,316801.86,333614.02,333622,2023-09-18T15:33:25Z,333634.44,NULL,Begegnung,kukutana,s,mmasihiya,mpiganaji,husiano,NA,sdfdsf,NA,1,NA,NA,NA,NA,NA,NA,NA,NA,NA,NA,NA,NA,NA,NA,NA,NA,NA,NA,NA
070e7,task,flow.Sequence,3_0_1_0_0,NA,NA,completion,16812.16,316801,316801.56,316801.86,333614.02,333623,2023-09-18T15:33:25Z,333634.44,NULL,Begegnung,kukutana,s,mmasihiya,mpiganaji,husiano,NA,sdfdsf,NA,1,NA,NA,NA,NA,NA,NA,NA,NA,NA,NA,NA,NA,NA,NA,NA,NA,NA,NA,NA
070e7,Deep Question,html.Page,3_0_1_0_1_0_0,NA,NA,form submission,12624.56,333623,333614.02,333634.44,346259,346260,2023-09-18T15:33:38Z,346259.58,NULL,Vermutung,udhanifu,d,NA,NA,NA,yalomomo,NA,NA,1,NA,NA,NA,NA,NA,NA,NA,NA,NA,NA,NA,NA,NA,NA,NA,NA,NA,NA,NA
070e7,"""Richtig""-Screen",canvas.Screen,3_0_1_0_1_0_1,NA,NA,skipped,NA,346264,NA,NA,346259,346265,2023-09-18T15:33:38Z,346259.58,NULL,Vermutung,udhanifu,d,NA,NA,NA,NA,sdfdsf,NA,1,NA,NA,NA,NA,NA,NA,NA,NA,NA,NA,NA,NA,NA,NA,NA,NA,NA,NA,NA
070e7,"""Falsch""-Screen",canvas.Screen,3_0_1_0_1_0_2,NA,NA,timeout,5000.04,346269,346254.74,346259.58,351238.64,351239,2023-09-18T15:33:43Z,351259.62,NULL,Vermutung,udhanifu,d,NA,NA,NA,NA,sdfdsf,0,1,NA,NA,NA,NA,NA,NA,NA,NA,NA,NA,NA,NA,NA,NA,NA,NA,NA,NA,NA
070e7,deep,flow.Sequence,3_0_1_0_1_0,NA,NA,completion,17604.2,333623,333614.02,333634.44,351238.64,351239,2023-09-18T15:33:43Z,351259.62,NULL,Vermutung,udhanifu,d,NA,NA,NA,NA,sdfdsf,NA,1,NA,NA,NA,NA,NA,NA,NA,NA,NA,NA,NA,NA,NA,NA,NA,NA,NA,NA,NA
070e7,shallow,flow.Sequence,3_0_1_0_1_1,NA,NA,skipped,NA,351239,NA,NA,351238.64,351239,2023-09-18T15:33:43Z,351259.62,NULL,Vermutung,udhanifu,d,NA,NA,NA,NA,sdfdsf,NA,1,NA,NA,NA,NA,NA,NA,NA,NA,NA,NA,NA,NA,NA,NA,NA,NA,NA,NA,NA
070e7,task,flow.Sequence,3_0_1_0_1,NA,NA,completion,17604.2,333623,333614.02,333634.44,351238.64,351239,2023-09-18T15:33:43Z,351259.62,NULL,Vermutung,udhanifu,d,NA,NA,NA,NA,sdfdsf,NA,1,NA,NA,NA,NA,NA,NA,NA,NA,NA,NA,NA,NA,NA,NA,NA,NA,NA,NA,NA
070e7,deep,flow.Sequence,3_0_1_0_2_0,NA,NA,skipped,NA,351240,NA,NA,351238.64,351240,2023-09-18T15:33:43Z,351259.62,NULL,Schlange,foleni,s,uvumilivu,uteuzi,muuzaji,NA,sdfdsf,NA,1,NA,NA,NA,NA,NA,NA,NA,NA,NA,NA,NA,NA,NA,NA,NA,NA,NA,NA,NA
070e7,Shallow Question,html.Page,3_0_1_0_2_1_0,NA,NA,form submission,4719.38,351240,351238.64,351259.62,355979,355979,2023-09-18T15:33:48Z,355988.72,NULL,Schlange,foleni,s,uvumilivu,uteuzi,muuzaji,foleni,NA,NA,1,NA,NA,NA,NA,NA,NA,NA,NA,NA,NA,NA,NA,NA,NA,NA,NA,NA,NA,NA
070e7,"""Richtig""-Screen",canvas.Screen,3_0_1_0_2_1_1,NA,NA,timeout,5000.02,355985,355973.84,355988.72,360968.28,360969,2023-09-18T15:33:53Z,360988.74,NULL,Schlange,foleni,s,uvumilivu,uteuzi,muuzaji,NA,sdfdsf,1,1,NA,NA,NA,NA,NA,NA,NA,NA,NA,NA,NA,NA,NA,NA,NA,NA,NA,NA,NA
070e7,"""Falsch""-Screen",canvas.Screen,3_0_1_0_2_1_2,NA,NA,skipped,NA,360976,NA,NA,360968.28,360976,2023-09-18T15:33:53Z,360988.74,NULL,Schlange,foleni,s,uvumilivu,uteuzi,muuzaji,NA,sdfdsf,NA,1,NA,NA,NA,NA,NA,NA,NA,NA,NA,NA,NA,NA,NA,NA,NA,NA,NA,NA,NA
070e7,shallow,flow.Sequence,3_0_1_0_2_1,NA,NA,completion,9708.66,351240,351238.64,351259.62,360968.28,360976,2023-09-18T15:33:53Z,360988.74,NULL,Schlange,foleni,s,uvumilivu,uteuzi,muuzaji,NA,sdfdsf,NA,1,NA,NA,NA,NA,NA,NA,NA,NA,NA,NA,NA,NA,NA,NA,NA,NA,NA,NA,NA
070e7,task,flow.Sequence,3_0_1_0_2,NA,NA,completion,9708.66,351240,351238.64,351259.62,360968.28,360977,2023-09-18T15:33:53Z,360988.74,NULL,Schlange,foleni,s,uvumilivu,uteuzi,muuzaji,NA,sdfdsf,NA,1,NA,NA,NA,NA,NA,NA,NA,NA,NA,NA,NA,NA,NA,NA,NA,NA,NA,NA,NA
070e7,Deep Question,html.Page,3_0_1_0_3_0_0,NA,NA,form submission,7379.26,360978,360968.28,360988.74,368368,368369,2023-09-18T15:34:00Z,368363.84,NULL,Fleisch,mshakiki,d,NA,NA,NA,makati,NA,NA,1,NA,NA,NA,NA,NA,NA,NA,NA,NA,NA,NA,NA,NA,NA,NA,NA,NA,NA,NA
070e7,"""Richtig""-Screen",canvas.Screen,3_0_1_0_3_0_1,NA,NA,skipped,NA,368373,NA,NA,368368,368373,2023-09-18T15:34:00Z,368363.84,NULL,Fleisch,mshakiki,d,NA,NA,NA,NA,sdfdsf,NA,1,NA,NA,NA,NA,NA,NA,NA,NA,NA,NA,NA,NA,NA,NA,NA,NA,NA,NA,NA
070e7,"""Falsch""-Screen",canvas.Screen,3_0_1_0_3_0_2,NA,NA,timeout,4999.94,368379,368358.04,368363.84,373343,373344,2023-09-18T15:34:05Z,373363.78,NULL,Fleisch,mshakiki,d,NA,NA,NA,NA,sdfdsf,0,1,NA,NA,NA,NA,NA,NA,NA,NA,NA,NA,NA,NA,NA,NA,NA,NA,NA,NA,NA
070e7,deep,flow.Sequence,3_0_1_0_3_0,NA,NA,completion,12354.26,360978,360968.28,360988.74,373343,373344,2023-09-18T15:34:05Z,373363.78,NULL,Fleisch,mshakiki,d,NA,NA,NA,NA,sdfdsf,NA,1,NA,NA,NA,NA,NA,NA,NA,NA,NA,NA,NA,NA,NA,NA,NA,NA,NA,NA,NA
070e7,shallow,flow.Sequence,3_0_1_0_3_1,NA,NA,skipped,NA,373346,NA,NA,373343,373346,2023-09-18T15:34:05Z,373363.78,NULL,Fleisch,mshakiki,d,NA,NA,NA,NA,sdfdsf,NA,1,NA,NA,NA,NA,NA,NA,NA,NA,NA,NA,NA,NA,NA,NA,NA,NA,NA,NA,NA
070e7,task,flow.Sequence,3_0_1_0_3,NA,NA,completion,12354.26,360977,360968.28,360988.74,373343,373346,2023-09-18T15:34:05Z,373363.78,NULL,Fleisch,mshakiki,d,NA,NA,NA,NA,sdfdsf,NA,1,NA,NA,NA,NA,NA,NA,NA,NA,NA,NA,NA,NA,NA,NA,NA,NA,NA,NA,NA
070e7,deep,flow.Sequence,3_0_1_0_4_0,NA,NA,skipped,NA,373347,NA,NA,373343,373347,2023-09-18T15:34:05Z,373363.78,NULL,Genehmigung,idhini,s,mwanamke,itikadi,fedheha,NA,sdfdsf,NA,1,NA,NA,NA,NA,NA,NA,NA,NA,NA,NA,NA,NA,NA,NA,NA,NA,NA,NA,NA
070e7,Shallow Question,html.Page,3_0_1_0_4_1_0,NA,NA,form submission,8804.22,373347,373343,373363.78,382168,382169,2023-09-18T15:34:14Z,382176.3,NULL,Genehmigung,idhini,s,mwanamke,itikadi,fedheha,idhini,NA,NA,1,NA,NA,NA,NA,NA,NA,NA,NA,NA,NA,NA,NA,NA,NA,NA,NA,NA,NA,NA
070e7,"""Richtig""-Screen",canvas.Screen,3_0_1_0_4_1_1,NA,NA,timeout,4999.98,382174,382162.44,382176.3,387155.58,387157,2023-09-18T15:34:19Z,387176.28,NULL,Genehmigung,idhini,s,mwanamke,itikadi,fedheha,NA,sdfdsf,1,1,NA,NA,NA,NA,NA,NA,NA,NA,NA,NA,NA,NA,NA,NA,NA,NA,NA,NA,NA
070e7,"""Falsch""-Screen",canvas.Screen,3_0_1_0_4_1_2,NA,NA,skipped,NA,387163,NA,NA,387155.58,387164,2023-09-18T15:34:19Z,387176.28,NULL,Genehmigung,idhini,s,mwanamke,itikadi,fedheha,NA,sdfdsf,NA,1,NA,NA,NA,NA,NA,NA,NA,NA,NA,NA,NA,NA,NA,NA,NA,NA,NA,NA,NA
070e7,shallow,flow.Sequence,3_0_1_0_4_1,NA,NA,completion,13791.8,373347,373343,373363.78,387155.58,387164,2023-09-18T15:34:19Z,387176.28,NULL,Genehmigung,idhini,s,mwanamke,itikadi,fedheha,NA,sdfdsf,NA,1,NA,NA,NA,NA,NA,NA,NA,NA,NA,NA,NA,NA,NA,NA,NA,NA,NA,NA,NA
070e7,task,flow.Sequence,3_0_1_0_4,NA,NA,completion,13791.8,373347,373343,373363.78,387155.58,387164,2023-09-18T15:34:19Z,387176.28,NULL,Genehmigung,idhini,s,mwanamke,itikadi,fedheha,NA,sdfdsf,NA,1,NA,NA,NA,NA,NA,NA,NA,NA,NA,NA,NA,NA,NA,NA,NA,NA,NA,NA,NA
070e7,Deep Question,html.Page,3_0_1_0_5_0_0,NA,NA,form submission,7346.72,387165,387155.58,387176.28,394523,394523,2023-09-18T15:34:26Z,394530.44,NULL,Inhalt,yaliyomo,d,NA,NA,NA,ino,NA,NA,1,NA,NA,NA,NA,NA,NA,NA,NA,NA,NA,NA,NA,NA,NA,NA,NA,NA,NA,NA
070e7,"""Richtig""-Screen",canvas.Screen,3_0_1_0_5_0_1,NA,NA,skipped,NA,394526,NA,NA,394523,394526,2023-09-18T15:34:26Z,394530.44,NULL,Inhalt,yaliyomo,d,NA,NA,NA,NA,sdfdsf,NA,1,NA,NA,NA,NA,NA,NA,NA,NA,NA,NA,NA,NA,NA,NA,NA,NA,NA,NA,NA
070e7,"""Falsch""-Screen",canvas.Screen,3_0_1_0_5_0_2,NA,NA,timeout,4999.98,394530,394518,394530.44,399509.78,399515,2023-09-18T15:34:31Z,399530.42,NULL,Inhalt,yaliyomo,d,NA,NA,NA,NA,sdfdsf,0,1,NA,NA,NA,NA,NA,NA,NA,NA,NA,NA,NA,NA,NA,NA,NA,NA,NA,NA,NA
070e7,deep,flow.Sequence,3_0_1_0_5_0,NA,NA,completion,12333.5,387165,387155.58,387176.28,399509.78,399518,2023-09-18T15:34:31Z,399530.42,NULL,Inhalt,yaliyomo,d,NA,NA,NA,NA,sdfdsf,NA,1,NA,NA,NA,NA,NA,NA,NA,NA,NA,NA,NA,NA,NA,NA,NA,NA,NA,NA,NA
070e7,shallow,flow.Sequence,3_0_1_0_5_1,NA,NA,skipped,NA,399519,NA,NA,399509.78,399520,2023-09-18T15:34:31Z,399530.42,NULL,Inhalt,yaliyomo,d,NA,NA,NA,NA,sdfdsf,NA,1,NA,NA,NA,NA,NA,NA,NA,NA,NA,NA,NA,NA,NA,NA,NA,NA,NA,NA,NA
070e7,task,flow.Sequence,3_0_1_0_5,NA,NA,completion,12333.5,387165,387155.58,387176.28,399509.78,399520,2023-09-18T15:34:31Z,399530.42,NULL,Inhalt,yaliyomo,d,NA,NA,NA,NA,sdfdsf,NA,1,NA,NA,NA,NA,NA,NA,NA,NA,NA,NA,NA,NA,NA,NA,NA,NA,NA,NA,NA
070e7,Deep Question,html.Page,3_0_1_0_6_0_0,NA,NA,form submission,8420.58,399521,399509.78,399530.42,407951,407951,2023-09-18T15:34:40Z,407968.32,NULL,Integrität,uadilifu,d,NA,NA,NA,menm,NA,NA,1,NA,NA,NA,NA,NA,NA,NA,NA,NA,NA,NA,NA,NA,NA,NA,NA,NA,NA,NA
070e7,"""Richtig""-Screen",canvas.Screen,3_0_1_0_6_0_1,NA,NA,skipped,NA,407955,NA,NA,407951,407955,2023-09-18T15:34:40Z,407968.32,NULL,Integrität,uadilifu,d,NA,NA,NA,NA,sdfdsf,NA,1,NA,NA,NA,NA,NA,NA,NA,NA,NA,NA,NA,NA,NA,NA,NA,NA,NA,NA,NA
070e7,"""Falsch""-Screen",canvas.Screen,3_0_1_0_6_0_2,NA,NA,timeout,4999.76,407956,407948.76,407968.32,412947.28,412949,2023-09-18T15:34:45Z,412968.08,NULL,Integrität,uadilifu,d,NA,NA,NA,NA,sdfdsf,0,1,NA,NA,NA,NA,NA,NA,NA,NA,NA,NA,NA,NA,NA,NA,NA,NA,NA,NA,NA
070e7,deep,flow.Sequence,3_0_1_0_6_0,NA,NA,completion,13416.86,399521,399509.78,399530.42,412947.28,412949,2023-09-18T15:34:45Z,412968.08,NULL,Integrität,uadilifu,d,NA,NA,NA,NA,sdfdsf,NA,1,NA,NA,NA,NA,NA,NA,NA,NA,NA,NA,NA,NA,NA,NA,NA,NA,NA,NA,NA
070e7,shallow,flow.Sequence,3_0_1_0_6_1,NA,NA,skipped,NA,412951,NA,NA,412947.28,412951,2023-09-18T15:34:45Z,412968.08,NULL,Integrität,uadilifu,d,NA,NA,NA,NA,sdfdsf,NA,1,NA,NA,NA,NA,NA,NA,NA,NA,NA,NA,NA,NA,NA,NA,NA,NA,NA,NA,NA
070e7,task,flow.Sequence,3_0_1_0_6,NA,NA,completion,13416.86,399521,399509.78,399530.42,412947.28,412952,2023-09-18T15:34:45Z,412968.08,NULL,Integrität,uadilifu,d,NA,NA,NA,NA,sdfdsf,NA,1,NA,NA,NA,NA,NA,NA,NA,NA,NA,NA,NA,NA,NA,NA,NA,NA,NA,NA,NA
070e7,deep,flow.Sequence,3_0_1_0_7_0,NA,NA,skipped,NA,412952,NA,NA,412947.28,412953,2023-09-18T15:34:45Z,412968.08,NULL,Toleranz,kuvumiliana,s,maombolezo,ujasusi,mchekeshaji,NA,sdfdsf,NA,1,NA,NA,NA,NA,NA,NA,NA,NA,NA,NA,NA,NA,NA,NA,NA,NA,NA,NA,NA
070e7,Shallow Question,html.Page,3_0_1_0_7_1_0,NA,NA,form submission,13634.92,412953,412947.28,412968.08,426603,426604,2023-09-18T15:34:58Z,426613.84,NULL,Toleranz,kuvumiliana,s,maombolezo,ujasusi,mchekeshaji,kuvumiliana,NA,NA,1,NA,NA,NA,NA,NA,NA,NA,NA,NA,NA,NA,NA,NA,NA,NA,NA,NA,NA,NA
070e7,"""Richtig""-Screen",canvas.Screen,3_0_1_0_7_1_1,NA,NA,timeout,5000.16,426610,426597.74,426613.84,431593.46,431595,2023-09-18T15:35:03Z,431614,NULL,Toleranz,kuvumiliana,s,maombolezo,ujasusi,mchekeshaji,NA,sdfdsf,1,1,NA,NA,NA,NA,NA,NA,NA,NA,NA,NA,NA,NA,NA,NA,NA,NA,NA,NA,NA
070e7,"""Falsch""-Screen",canvas.Screen,3_0_1_0_7_1_2,NA,NA,skipped,NA,431602,NA,NA,431593.46,431602,2023-09-18T15:35:03Z,431614,NULL,Toleranz,kuvumiliana,s,maombolezo,ujasusi,mchekeshaji,NA,sdfdsf,NA,1,NA,NA,NA,NA,NA,NA,NA,NA,NA,NA,NA,NA,NA,NA,NA,NA,NA,NA,NA
070e7,shallow,flow.Sequence,3_0_1_0_7_1,NA,NA,completion,18625.38,412953,412947.28,412968.08,431593.46,431602,2023-09-18T15:35:03Z,431614,NULL,Toleranz,kuvumiliana,s,maombolezo,ujasusi,mchekeshaji,NA,sdfdsf,NA,1,NA,NA,NA,NA,NA,NA,NA,NA,NA,NA,NA,NA,NA,NA,NA,NA,NA,NA,NA
070e7,task,flow.Sequence,3_0_1_0_7,NA,NA,completion,18625.38,412952,412947.28,412968.08,431593.46,431603,2023-09-18T15:35:03Z,431614,NULL,Toleranz,kuvumiliana,s,maombolezo,ujasusi,mchekeshaji,NA,sdfdsf,NA,1,NA,NA,NA,NA,NA,NA,NA,NA,NA,NA,NA,NA,NA,NA,NA,NA,NA,NA,NA
070e7,block,flow.Loop,3_0_1_0,NA,NA,completion,114791.6,316801,316801.56,316801.86,431593.46,431604,2023-09-18T15:35:03Z,431614,NULL,NA,NA,NA,NA,NA,NA,NA,sdfdsf,NA,1,NA,NA,NA,NA,NA,NA,NA,NA,NA,NA,NA,NA,NA,NA,NA,NA,NA,NA,NA
070e7,weiter,canvas.Screen,3_0_1_1,sdf,keypress(Space),response,1364,431604,431593.46,431614,432978,432994,2023-09-18T15:35:05Z,433052.8,NULL,NA,NA,NA,NA,NA,NA,NA,sdfdsf,NA,1,NA,NA,NA,NA,NA,NA,NA,NA,NA,NA,NA,NA,NA,NA,NA,NA,NA,NA,NA
070e7,check continue,flow.Sequence,3_0_1,NA,NA,completion,116176.14,316801,316801.56,316801.86,432978,432995,2023-09-18T15:35:05Z,433052.8,NULL,NA,NA,NA,NA,NA,NA,NA,sdfdsf,NA,1,NA,NA,NA,NA,NA,NA,NA,NA,NA,NA,NA,NA,NA,NA,NA,NA,NA,NA,NA
070e7,Deep Question,html.Page,3_0_2_0_0_0_0,NA,NA,form submission,7940.2,433052,433052.46,433052.8,440993,440993,2023-09-18T15:35:13Z,441009.66,NULL,Integrität,uadilifu,d,NA,NA,NA,yalomomo,NA,NA,2,NA,NA,NA,NA,NA,NA,NA,NA,NA,NA,NA,NA,NA,NA,NA,NA,NA,NA,NA
070e7,"""Richtig""-Screen",canvas.Screen,3_0_2_0_0_0_1,NA,NA,skipped,NA,440995,NA,NA,440993,440995,2023-09-18T15:35:13Z,441009.66,NULL,Integrität,uadilifu,d,NA,NA,NA,NA,sdf,NA,2,NA,NA,NA,NA,NA,NA,NA,NA,NA,NA,NA,NA,NA,NA,NA,NA,NA,NA,NA
070e7,"""Falsch""-Screen",canvas.Screen,3_0_2_0_0_0_2,NA,NA,timeout,5000.1,440997,440991.3,441009.66,445989.34,445990,2023-09-18T15:35:18Z,446009.76,NULL,Integrität,uadilifu,d,NA,NA,NA,NA,sdf,0,2,NA,NA,NA,NA,NA,NA,NA,NA,NA,NA,NA,NA,NA,NA,NA,NA,NA,NA,NA
070e7,deep,flow.Sequence,3_0_2_0_0_0,NA,NA,completion,12936.54,433052,433052.46,433052.8,445989.34,445991,2023-09-18T15:35:18Z,446009.76,NULL,Integrität,uadilifu,d,NA,NA,NA,NA,sdf,NA,2,NA,NA,NA,NA,NA,NA,NA,NA,NA,NA,NA,NA,NA,NA,NA,NA,NA,NA,NA
070e7,shallow,flow.Sequence,3_0_2_0_0_1,NA,NA,skipped,NA,445991,NA,NA,445989.34,445992,2023-09-18T15:35:18Z,446009.76,NULL,Integrität,uadilifu,d,NA,NA,NA,NA,sdf,NA,2,NA,NA,NA,NA,NA,NA,NA,NA,NA,NA,NA,NA,NA,NA,NA,NA,NA,NA,NA
070e7,task,flow.Sequence,3_0_2_0_0,NA,NA,completion,12936.54,433052,433052.46,433052.8,445989.34,445992,2023-09-18T15:35:18Z,446009.76,NULL,Integrität,uadilifu,d,NA,NA,NA,NA,sdf,NA,2,NA,NA,NA,NA,NA,NA,NA,NA,NA,NA,NA,NA,NA,NA,NA,NA,NA,NA,NA
070e7,Deep Question,html.Page,3_0_2_0_1_0_0,NA,NA,form submission,7082.24,445993,445989.34,446009.76,453092,453092,2023-09-18T15:35:25Z,453093.12,NULL,Inhalt,yaliyomo,d,NA,NA,NA,udalifu,NA,NA,2,NA,NA,NA,NA,NA,NA,NA,NA,NA,NA,NA,NA,NA,NA,NA,NA,NA,NA,NA
070e7,"""Richtig""-Screen",canvas.Screen,3_0_2_0_1_0_1,NA,NA,skipped,NA,453096,NA,NA,453092,453096,2023-09-18T15:35:25Z,453093.12,NULL,Inhalt,yaliyomo,d,NA,NA,NA,NA,sdf,NA,2,NA,NA,NA,NA,NA,NA,NA,NA,NA,NA,NA,NA,NA,NA,NA,NA,NA,NA,NA
070e7,"""Falsch""-Screen",canvas.Screen,3_0_2_0_1_0_2,NA,NA,timeout,4999.4,453099,453087.9,453093.12,458072.38,458075,2023-09-18T15:35:30Z,458092.52,NULL,Inhalt,yaliyomo,d,NA,NA,NA,NA,sdf,0,2,NA,NA,NA,NA,NA,NA,NA,NA,NA,NA,NA,NA,NA,NA,NA,NA,NA,NA,NA
070e7,deep,flow.Sequence,3_0_2_0_1_0,NA,NA,completion,12062.62,445993,445989.34,446009.76,458072.38,458078,2023-09-18T15:35:30Z,458092.52,NULL,Inhalt,yaliyomo,d,NA,NA,NA,NA,sdf,NA,2,NA,NA,NA,NA,NA,NA,NA,NA,NA,NA,NA,NA,NA,NA,NA,NA,NA,NA,NA
070e7,shallow,flow.Sequence,3_0_2_0_1_1,NA,NA,skipped,NA,458078,NA,NA,458072.38,458079,2023-09-18T15:35:30Z,458092.52,NULL,Inhalt,yaliyomo,d,NA,NA,NA,NA,sdf,NA,2,NA,NA,NA,NA,NA,NA,NA,NA,NA,NA,NA,NA,NA,NA,NA,NA,NA,NA,NA
070e7,task,flow.Sequence,3_0_2_0_1,NA,NA,completion,12062.62,445993,445989.34,446009.76,458072.38,458080,2023-09-18T15:35:30Z,458092.52,NULL,Inhalt,yaliyomo,d,NA,NA,NA,NA,sdf,NA,2,NA,NA,NA,NA,NA,NA,NA,NA,NA,NA,NA,NA,NA,NA,NA,NA,NA,NA,NA
070e7,Deep Question,html.Page,3_0_2_0_2_0_0,NA,NA,form submission,9765.48,458081,458072.38,458092.52,467858,467859,2023-09-18T15:35:40Z,467864.06,NULL,Fleisch,mshakiki,d,NA,NA,NA,mashkiki,NA,NA,2,NA,NA,NA,NA,NA,NA,NA,NA,NA,NA,NA,NA,NA,NA,NA,NA,NA,NA,NA
070e7,"""Richtig""-Screen",canvas.Screen,3_0_2_0_2_0_1,NA,NA,skipped,NA,467869,NA,NA,467858,467869,2023-09-18T15:35:40Z,467864.06,NULL,Fleisch,mshakiki,d,NA,NA,NA,NA,sdf,NA,2,NA,NA,NA,NA,NA,NA,NA,NA,NA,NA,NA,NA,NA,NA,NA,NA,NA,NA,NA
070e7,"""Falsch""-Screen",canvas.Screen,3_0_2_0_2_0_2,NA,NA,timeout,4999.92,467872,467850.06,467864.06,472843.26,472845,2023-09-18T15:35:45Z,472863.98,NULL,Fleisch,mshakiki,d,NA,NA,NA,NA,sdf,0,2,NA,NA,NA,NA,NA,NA,NA,NA,NA,NA,NA,NA,NA,NA,NA,NA,NA,NA,NA
070e7,deep,flow.Sequence,3_0_2_0_2_0,NA,NA,completion,14750.74,458081,458072.38,458092.52,472843.26,472846,2023-09-18T15:35:45Z,472863.98,NULL,Fleisch,mshakiki,d,NA,NA,NA,NA,sdf,NA,2,NA,NA,NA,NA,NA,NA,NA,NA,NA,NA,NA,NA,NA,NA,NA,NA,NA,NA,NA
070e7,shallow,flow.Sequence,3_0_2_0_2_1,NA,NA,skipped,NA,472847,NA,NA,472843.26,472847,2023-09-18T15:35:45Z,472863.98,NULL,Fleisch,mshakiki,d,NA,NA,NA,NA,sdf,NA,2,NA,NA,NA,NA,NA,NA,NA,NA,NA,NA,NA,NA,NA,NA,NA,NA,NA,NA,NA
070e7,task,flow.Sequence,3_0_2_0_2,NA,NA,completion,14750.74,458080,458072.38,458092.52,472843.26,472848,2023-09-18T15:35:45Z,472863.98,NULL,Fleisch,mshakiki,d,NA,NA,NA,NA,sdf,NA,2,NA,NA,NA,NA,NA,NA,NA,NA,NA,NA,NA,NA,NA,NA,NA,NA,NA,NA,NA
070e7,deep,flow.Sequence,3_0_2_0_3_0,NA,NA,skipped,NA,472848,NA,NA,472843.26,472849,2023-09-18T15:35:45Z,472863.98,NULL,Begegnung,kukutana,s,mmasihiya,mpiganaji,husiano,NA,sdf,NA,2,NA,NA,NA,NA,NA,NA,NA,NA,NA,NA,NA,NA,NA,NA,NA,NA,NA,NA,NA
070e7,Shallow Question,html.Page,3_0_2_0_3_1_0,NA,NA,form submission,8167.02,472850,472843.26,472863.98,481031,481032,2023-09-18T15:35:53Z,481030.82,NULL,Begegnung,kukutana,s,mmasihiya,mpiganaji,husiano,mpiganaji,NA,NA,2,NA,NA,NA,NA,NA,NA,NA,NA,NA,NA,NA,NA,NA,NA,NA,NA,NA,NA,NA
070e7,"""Richtig""-Screen",canvas.Screen,3_0_2_0_3_1_1,NA,NA,skipped,NA,481038,NA,NA,481031,481038,2023-09-18T15:35:53Z,481030.82,NULL,Begegnung,kukutana,s,mmasihiya,mpiganaji,husiano,NA,sdf,NA,2,NA,NA,NA,NA,NA,NA,NA,NA,NA,NA,NA,NA,NA,NA,NA,NA,NA,NA,NA
070e7,"""Falsch""-Screen",canvas.Screen,3_0_2_0_3_1_2,NA,NA,timeout,5000,481041,481024.44,481030.82,486010.3,486012,2023-09-18T15:35:58Z,486030.82,NULL,Begegnung,kukutana,s,mmasihiya,mpiganaji,husiano,NA,sdf,0,2,NA,NA,NA,NA,NA,NA,NA,NA,NA,NA,NA,NA,NA,NA,NA,NA,NA,NA,NA
070e7,shallow,flow.Sequence,3_0_2_0_3_1,NA,NA,completion,13146.32,472849,472843.26,472863.98,486010.3,486013,2023-09-18T15:35:58Z,486030.82,NULL,Begegnung,kukutana,s,mmasihiya,mpiganaji,husiano,NA,sdf,NA,2,NA,NA,NA,NA,NA,NA,NA,NA,NA,NA,NA,NA,NA,NA,NA,NA,NA,NA,NA
070e7,task,flow.Sequence,3_0_2_0_3,NA,NA,completion,13146.32,472848,472843.26,472863.98,486010.3,486013,2023-09-18T15:35:58Z,486030.82,NULL,Begegnung,kukutana,s,mmasihiya,mpiganaji,husiano,NA,sdf,NA,2,NA,NA,NA,NA,NA,NA,NA,NA,NA,NA,NA,NA,NA,NA,NA,NA,NA,NA,NA
070e7,deep,flow.Sequence,3_0_2_0_4_0,NA,NA,skipped,NA,486014,NA,NA,486010.3,486014,2023-09-18T15:35:58Z,486030.82,NULL,Genehmigung,idhini,s,mwanamke,itikadi,fedheha,NA,sdf,NA,2,NA,NA,NA,NA,NA,NA,NA,NA,NA,NA,NA,NA,NA,NA,NA,NA,NA,NA,NA
070e7,Shallow Question,html.Page,3_0_2_0_4_1_0,NA,NA,form submission,6411.18,486014,486010.3,486030.82,492442,492442,2023-09-18T15:36:04Z,492447.46,NULL,Genehmigung,idhini,s,mwanamke,itikadi,fedheha,idhini,NA,NA,2,NA,NA,NA,NA,NA,NA,NA,NA,NA,NA,NA,NA,NA,NA,NA,NA,NA,NA,NA
070e7,"""Richtig""-Screen",canvas.Screen,3_0_2_0_4_1_1,NA,NA,timeout,4999.98,492449,492436.42,492447.46,497427.08,497428,2023-09-18T15:36:09Z,497447.44,NULL,Genehmigung,idhini,s,mwanamke,itikadi,fedheha,NA,sdf,1,2,NA,NA,NA,NA,NA,NA,NA,NA,NA,NA,NA,NA,NA,NA,NA,NA,NA,NA,NA
070e7,"""Falsch""-Screen",canvas.Screen,3_0_2_0_4_1_2,NA,NA,skipped,NA,497437,NA,NA,497427.08,497437,2023-09-18T15:36:09Z,497447.44,NULL,Genehmigung,idhini,s,mwanamke,itikadi,fedheha,NA,sdf,NA,2,NA,NA,NA,NA,NA,NA,NA,NA,NA,NA,NA,NA,NA,NA,NA,NA,NA,NA,NA
070e7,shallow,flow.Sequence,3_0_2_0_4_1,NA,NA,completion,11396.26,486014,486010.3,486030.82,497427.08,497437,2023-09-18T15:36:09Z,497447.44,NULL,Genehmigung,idhini,s,mwanamke,itikadi,fedheha,NA,sdf,NA,2,NA,NA,NA,NA,NA,NA,NA,NA,NA,NA,NA,NA,NA,NA,NA,NA,NA,NA,NA
070e7,task,flow.Sequence,3_0_2_0_4,NA,NA,completion,11396.26,486014,486010.3,486030.82,497427.08,497437,2023-09-18T15:36:09Z,497447.44,NULL,Genehmigung,idhini,s,mwanamke,itikadi,fedheha,NA,sdf,NA,2,NA,NA,NA,NA,NA,NA,NA,NA,NA,NA,NA,NA,NA,NA,NA,NA,NA,NA,NA
070e7,deep,flow.Sequence,3_0_2_0_5_0,NA,NA,skipped,NA,497438,NA,NA,497427.08,497439,2023-09-18T15:36:09Z,497447.44,NULL,Schlange,foleni,s,uvumilivu,uteuzi,muuzaji,NA,sdf,NA,2,NA,NA,NA,NA,NA,NA,NA,NA,NA,NA,NA,NA,NA,NA,NA,NA,NA,NA,NA
070e7,Shallow Question,html.Page,3_0_2_0_5_1_0,NA,NA,form submission,5147.56,497439,497427.08,497447.44,502595,502596,2023-09-18T15:36:14Z,502593.44,NULL,Schlange,foleni,s,uvumilivu,uteuzi,muuzaji,foleni,NA,NA,2,NA,NA,NA,NA,NA,NA,NA,NA,NA,NA,NA,NA,NA,NA,NA,NA,NA,NA,NA
070e7,"""Richtig""-Screen",canvas.Screen,3_0_2_0_5_1_1,NA,NA,timeout,4999.82,502600,502590.26,502593.44,507572.5,507573,2023-09-18T15:36:19Z,507593.26,NULL,Schlange,foleni,s,uvumilivu,uteuzi,muuzaji,NA,sdf,1,2,NA,NA,NA,NA,NA,NA,NA,NA,NA,NA,NA,NA,NA,NA,NA,NA,NA,NA,NA
070e7,"""Falsch""-Screen",canvas.Screen,3_0_2_0_5_1_2,NA,NA,skipped,NA,507579,NA,NA,507572.5,507580,2023-09-18T15:36:19Z,507593.26,NULL,Schlange,foleni,s,uvumilivu,uteuzi,muuzaji,NA,sdf,NA,2,NA,NA,NA,NA,NA,NA,NA,NA,NA,NA,NA,NA,NA,NA,NA,NA,NA,NA,NA
070e7,shallow,flow.Sequence,3_0_2_0_5_1,NA,NA,completion,10125.06,497439,497427.08,497447.44,507572.5,507580,2023-09-18T15:36:19Z,507593.26,NULL,Schlange,foleni,s,uvumilivu,uteuzi,muuzaji,NA,sdf,NA,2,NA,NA,NA,NA,NA,NA,NA,NA,NA,NA,NA,NA,NA,NA,NA,NA,NA,NA,NA
070e7,task,flow.Sequence,3_0_2_0_5,NA,NA,completion,10125.06,497438,497427.08,497447.44,507572.5,507581,2023-09-18T15:36:19Z,507593.26,NULL,Schlange,foleni,s,uvumilivu,uteuzi,muuzaji,NA,sdf,NA,2,NA,NA,NA,NA,NA,NA,NA,NA,NA,NA,NA,NA,NA,NA,NA,NA,NA,NA,NA
070e7,Deep Question,html.Page,3_0_2_0_6_0_0,NA,NA,form submission,7944.74,507581,507572.5,507593.26,515538,515538,2023-09-18T15:36:27Z,515551.64,NULL,Vermutung,udhanifu,d,NA,NA,NA,yalomomo,NA,NA,2,NA,NA,NA,NA,NA,NA,NA,NA,NA,NA,NA,NA,NA,NA,NA,NA,NA,NA,NA
070e7,"""Richtig""-Screen",canvas.Screen,3_0_2_0_6_0_1,NA,NA,skipped,NA,515544,NA,NA,515538,515545,2023-09-18T15:36:27Z,515551.64,NULL,Vermutung,udhanifu,d,NA,NA,NA,NA,sdf,NA,2,NA,NA,NA,NA,NA,NA,NA,NA,NA,NA,NA,NA,NA,NA,NA,NA,NA,NA,NA
070e7,"""Falsch""-Screen",canvas.Screen,3_0_2_0_6_0_2,NA,NA,timeout,5000.06,515551,515533.02,515551.64,520531,520532,2023-09-18T15:36:32Z,520551.7,NULL,Vermutung,udhanifu,d,NA,NA,NA,NA,sdf,0,2,NA,NA,NA,NA,NA,NA,NA,NA,NA,NA,NA,NA,NA,NA,NA,NA,NA,NA,NA
070e7,deep,flow.Sequence,3_0_2_0_6_0,NA,NA,completion,12937.74,507581,507572.5,507593.26,520531,520532,2023-09-18T15:36:32Z,520551.7,NULL,Vermutung,udhanifu,d,NA,NA,NA,NA,sdf,NA,2,NA,NA,NA,NA,NA,NA,NA,NA,NA,NA,NA,NA,NA,NA,NA,NA,NA,NA,NA
070e7,shallow,flow.Sequence,3_0_2_0_6_1,NA,NA,skipped,NA,520533,NA,NA,520531,520533,2023-09-18T15:36:32Z,520551.7,NULL,Vermutung,udhanifu,d,NA,NA,NA,NA,sdf,NA,2,NA,NA,NA,NA,NA,NA,NA,NA,NA,NA,NA,NA,NA,NA,NA,NA,NA,NA,NA
070e7,task,flow.Sequence,3_0_2_0_6,NA,NA,completion,12937.74,507581,507572.5,507593.26,520531,520533,2023-09-18T15:36:32Z,520551.7,NULL,Vermutung,udhanifu,d,NA,NA,NA,NA,sdf,NA,2,NA,NA,NA,NA,NA,NA,NA,NA,NA,NA,NA,NA,NA,NA,NA,NA,NA,NA,NA
070e7,deep,flow.Sequence,3_0_2_0_7_0,NA,NA,skipped,NA,520534,NA,NA,520531,520535,2023-09-18T15:36:32Z,520551.7,NULL,Toleranz,kuvumiliana,s,maombolezo,ujasusi,mchekeshaji,NA,sdf,NA,2,NA,NA,NA,NA,NA,NA,NA,NA,NA,NA,NA,NA,NA,NA,NA,NA,NA,NA,NA
070e7,Shallow Question,html.Page,3_0_2_0_7_1_0,NA,NA,form submission,10800.3,520535,520531,520551.7,531352,531353,2023-09-18T15:36:43Z,531364.28,NULL,Toleranz,kuvumiliana,s,maombolezo,ujasusi,mchekeshaji,ujasusi,NA,NA,2,NA,NA,NA,NA,NA,NA,NA,NA,NA,NA,NA,NA,NA,NA,NA,NA,NA,NA,NA
070e7,"""Richtig""-Screen",canvas.Screen,3_0_2_0_7_1_1,NA,NA,skipped,NA,531358,NA,NA,531352,531359,2023-09-18T15:36:43Z,531364.28,NULL,Toleranz,kuvumiliana,s,maombolezo,ujasusi,mchekeshaji,NA,sdf,NA,2,NA,NA,NA,NA,NA,NA,NA,NA,NA,NA,NA,NA,NA,NA,NA,NA,NA,NA,NA
070e7,"""Falsch""-Screen",canvas.Screen,3_0_2_0_7_1_2,NA,NA,timeout,5000.1799999999,531364,531347.04,531364.28,536343.52,536345,2023-09-18T15:36:48Z,536364.46,NULL,Toleranz,kuvumiliana,s,maombolezo,ujasusi,mchekeshaji,NA,sdf,0,2,NA,NA,NA,NA,NA,NA,NA,NA,NA,NA,NA,NA,NA,NA,NA,NA,NA,NA,NA
070e7,shallow,flow.Sequence,3_0_2_0_7_1,NA,NA,completion,15791.82,520535,520531,520551.7,536343.52,536346,2023-09-18T15:36:48Z,536364.46,NULL,Toleranz,kuvumiliana,s,maombolezo,ujasusi,mchekeshaji,NA,sdf,NA,2,NA,NA,NA,NA,NA,NA,NA,NA,NA,NA,NA,NA,NA,NA,NA,NA,NA,NA,NA
070e7,task,flow.Sequence,3_0_2_0_7,NA,NA,completion,15791.82,520534,520531,520551.7,536343.52,536346,2023-09-18T15:36:48Z,536364.46,NULL,Toleranz,kuvumiliana,s,maombolezo,ujasusi,mchekeshaji,NA,sdf,NA,2,NA,NA,NA,NA,NA,NA,NA,NA,NA,NA,NA,NA,NA,NA,NA,NA,NA,NA,NA
070e7,block,flow.Loop,3_0_2_0,NA,NA,completion,103290.72,433052,433052.46,433052.8,536343.52,536347,2023-09-18T15:36:48Z,536364.46,NULL,NA,NA,NA,NA,NA,NA,NA,sdf,NA,2,NA,NA,NA,NA,NA,NA,NA,NA,NA,NA,NA,NA,NA,NA,NA,NA,NA,NA,NA
070e7,weiter,canvas.Screen,3_0_2_1,sdf,keypress(Space),response,1394.54,536347,536343.52,536364.46,537759,537764,2023-09-18T15:36:50Z,537822.52,NULL,NA,NA,NA,NA,NA,NA,NA,sdf,NA,2,NA,NA,NA,NA,NA,NA,NA,NA,NA,NA,NA,NA,NA,NA,NA,NA,NA,NA,NA
070e7,check continue,flow.Sequence,3_0_2,NA,NA,completion,104706.2,433052,433052.46,433052.8,537759,537764,2023-09-18T15:36:50Z,537822.52,NULL,NA,NA,NA,NA,NA,NA,NA,sdf,NA,2,NA,NA,NA,NA,NA,NA,NA,NA,NA,NA,NA,NA,NA,NA,NA,NA,NA,NA,NA
070e7,Deep Question,html.Page,3_0_3_0_0_0_0,NA,NA,form submission,10296.48,537821,537821.18,537822.52,548119,548119,2023-09-18T15:37:00Z,548113.8,NULL,Vermutung,udhanifu,d,NA,NA,NA,udanini,NA,NA,3,NA,NA,NA,NA,NA,NA,NA,NA,NA,NA,NA,NA,NA,NA,NA,NA,NA,NA,NA
070e7,"""Richtig""-Screen",canvas.Screen,3_0_3_0_0_0_1,NA,NA,skipped,NA,548122,NA,NA,548119,548122,2023-09-18T15:37:00Z,548113.8,NULL,Vermutung,udhanifu,d,NA,NA,NA,NA,qt,NA,3,NA,NA,NA,NA,NA,NA,NA,NA,NA,NA,NA,NA,NA,NA,NA,NA,NA,NA,NA
070e7,"""Falsch""-Screen",canvas.Screen,3_0_3_0_0_0_2,NA,NA,timeout,5000.5199999999,548124,548111.22,548113.8,553093.5,553099,2023-09-18T15:37:05Z,553114.32,NULL,Vermutung,udhanifu,d,NA,NA,NA,NA,qt,0,3,NA,NA,NA,NA,NA,NA,NA,NA,NA,NA,NA,NA,NA,NA,NA,NA,NA,NA,NA
070e7,deep,flow.Sequence,3_0_3_0_0_0,NA,NA,completion,15270.98,537821,537821.18,537822.52,553093.5,553100,2023-09-18T15:37:05Z,553114.32,NULL,Vermutung,udhanifu,d,NA,NA,NA,NA,qt,NA,3,NA,NA,NA,NA,NA,NA,NA,NA,NA,NA,NA,NA,NA,NA,NA,NA,NA,NA,NA
070e7,shallow,flow.Sequence,3_0_3_0_0_1,NA,NA,skipped,NA,553100,NA,NA,553093.5,553101,2023-09-18T15:37:05Z,553114.32,NULL,Vermutung,udhanifu,d,NA,NA,NA,NA,qt,NA,3,NA,NA,NA,NA,NA,NA,NA,NA,NA,NA,NA,NA,NA,NA,NA,NA,NA,NA,NA
070e7,task,flow.Sequence,3_0_3_0_0,NA,NA,completion,15270.98,537821,537821.18,537822.52,553093.5,553101,2023-09-18T15:37:05Z,553114.32,NULL,Vermutung,udhanifu,d,NA,NA,NA,NA,qt,NA,3,NA,NA,NA,NA,NA,NA,NA,NA,NA,NA,NA,NA,NA,NA,NA,NA,NA,NA,NA
070e7,deep,flow.Sequence,3_0_3_0_1_0,NA,NA,skipped,NA,553102,NA,NA,553093.5,553102,2023-09-18T15:37:05Z,553114.32,NULL,Toleranz,kuvumiliana,s,maombolezo,ujasusi,mchekeshaji,NA,qt,NA,3,NA,NA,NA,NA,NA,NA,NA,NA,NA,NA,NA,NA,NA,NA,NA,NA,NA,NA,NA
070e7,Shallow Question,html.Page,3_0_3_0_1_1_0,NA,NA,form submission,4705.6800000001,553102,553093.5,553114.32,557820,557821,2023-09-18T15:37:10Z,557822.66,NULL,Toleranz,kuvumiliana,s,maombolezo,ujasusi,mchekeshaji,kuvumiliana,NA,NA,3,NA,NA,NA,NA,NA,NA,NA,NA,NA,NA,NA,NA,NA,NA,NA,NA,NA,NA,NA
070e7,"""Richtig""-Screen",canvas.Screen,3_0_3_0_1_1_1,NA,NA,timeout,5000.1599999999,557835,557811.88,557822.66,562801.8,562803,2023-09-18T15:37:15Z,562822.82,NULL,Toleranz,kuvumiliana,s,maombolezo,ujasusi,mchekeshaji,NA,qt,1,3,NA,NA,NA,NA,NA,NA,NA,NA,NA,NA,NA,NA,NA,NA,NA,NA,NA,NA,NA
070e7,"""Falsch""-Screen",canvas.Screen,3_0_3_0_1_1_2,NA,NA,skipped,NA,562809,NA,NA,562801.8,562809,2023-09-18T15:37:15Z,562822.82,NULL,Toleranz,kuvumiliana,s,maombolezo,ujasusi,mchekeshaji,NA,qt,NA,3,NA,NA,NA,NA,NA,NA,NA,NA,NA,NA,NA,NA,NA,NA,NA,NA,NA,NA,NA
070e7,shallow,flow.Sequence,3_0_3_0_1_1,NA,NA,completion,9687.4800000001,553102,553093.5,553114.32,562801.8,562809,2023-09-18T15:37:15Z,562822.82,NULL,Toleranz,kuvumiliana,s,maombolezo,ujasusi,mchekeshaji,NA,qt,NA,3,NA,NA,NA,NA,NA,NA,NA,NA,NA,NA,NA,NA,NA,NA,NA,NA,NA,NA,NA
070e7,task,flow.Sequence,3_0_3_0_1,NA,NA,completion,9687.4800000001,553101,553093.5,553114.32,562801.8,562809,2023-09-18T15:37:15Z,562822.82,NULL,Toleranz,kuvumiliana,s,maombolezo,ujasusi,mchekeshaji,NA,qt,NA,3,NA,NA,NA,NA,NA,NA,NA,NA,NA,NA,NA,NA,NA,NA,NA,NA,NA,NA,NA
070e7,Deep Question,html.Page,3_0_3_0_2_0_0,NA,NA,form submission,16055.18,562811,562801.8,562822.82,578878,578879,2023-09-18T15:37:31Z,578884.98,NULL,Fleisch,mshakiki,d,NA,NA,NA,mshakiki,NA,NA,3,NA,NA,NA,NA,NA,NA,NA,NA,NA,NA,NA,NA,NA,NA,NA,NA,NA,NA,NA
070e7,"""Richtig""-Screen",canvas.Screen,3_0_3_0_2_0_1,NA,NA,timeout,5000.16,578885,578871.36,578884.98,583864.64,583866,2023-09-18T15:37:36Z,583885.14,NULL,Fleisch,mshakiki,d,NA,NA,NA,NA,qt,1,3,NA,NA,NA,NA,NA,NA,NA,NA,NA,NA,NA,NA,NA,NA,NA,NA,NA,NA,NA
070e7,"""Falsch""-Screen",canvas.Screen,3_0_3_0_2_0_2,NA,NA,skipped,NA,583873,NA,NA,583864.64,583873,2023-09-18T15:37:36Z,583885.14,NULL,Fleisch,mshakiki,d,NA,NA,NA,NA,qt,NA,3,NA,NA,NA,NA,NA,NA,NA,NA,NA,NA,NA,NA,NA,NA,NA,NA,NA,NA,NA
070e7,deep,flow.Sequence,3_0_3_0_2_0,NA,NA,completion,21041.82,562809,562801.8,562822.82,583864.64,583874,2023-09-18T15:37:36Z,583885.14,NULL,Fleisch,mshakiki,d,NA,NA,NA,NA,qt,NA,3,NA,NA,NA,NA,NA,NA,NA,NA,NA,NA,NA,NA,NA,NA,NA,NA,NA,NA,NA
070e7,shallow,flow.Sequence,3_0_3_0_2_1,NA,NA,skipped,NA,583874,NA,NA,583864.64,583874,2023-09-18T15:37:36Z,583885.14,NULL,Fleisch,mshakiki,d,NA,NA,NA,NA,qt,NA,3,NA,NA,NA,NA,NA,NA,NA,NA,NA,NA,NA,NA,NA,NA,NA,NA,NA,NA,NA
070e7,task,flow.Sequence,3_0_3_0_2,NA,NA,completion,21041.82,562809,562801.8,562822.82,583864.64,583875,2023-09-18T15:37:36Z,583885.14,NULL,Fleisch,mshakiki,d,NA,NA,NA,NA,qt,NA,3,NA,NA,NA,NA,NA,NA,NA,NA,NA,NA,NA,NA,NA,NA,NA,NA,NA,NA,NA
070e7,Deep Question,html.Page,3_0_3_0_3_0_0,NA,NA,form submission,7564.86,583876,583864.64,583885.14,591450,591451,2023-09-18T15:37:43Z,591447.76,NULL,Integrität,uadilifu,d,NA,NA,NA,udgonmo,NA,NA,3,NA,NA,NA,NA,NA,NA,NA,NA,NA,NA,NA,NA,NA,NA,NA,NA,NA,NA,NA
070e7,"""Richtig""-Screen",canvas.Screen,3_0_3_0_3_0_1,NA,NA,skipped,NA,591456,NA,NA,591450,591456,2023-09-18T15:37:43Z,591447.76,NULL,Integrität,uadilifu,d,NA,NA,NA,NA,qt,NA,3,NA,NA,NA,NA,NA,NA,NA,NA,NA,NA,NA,NA,NA,NA,NA,NA,NA,NA,NA
070e7,"""Falsch""-Screen",canvas.Screen,3_0_3_0_3_0_2,NA,NA,timeout,5000.3,591461,591444.56,591447.76,596426.94,596427,2023-09-18T15:37:48Z,596448.06,NULL,Integrität,uadilifu,d,NA,NA,NA,NA,qt,0,3,NA,NA,NA,NA,NA,NA,NA,NA,NA,NA,NA,NA,NA,NA,NA,NA,NA,NA,NA
070e7,deep,flow.Sequence,3_0_3_0_3_0,NA,NA,completion,12541.8,583875,583864.64,583885.14,596426.94,596428,2023-09-18T15:37:48Z,596448.06,NULL,Integrität,uadilifu,d,NA,NA,NA,NA,qt,NA,3,NA,NA,NA,NA,NA,NA,NA,NA,NA,NA,NA,NA,NA,NA,NA,NA,NA,NA,NA
070e7,shallow,flow.Sequence,3_0_3_0_3_1,NA,NA,skipped,NA,596428,NA,NA,596426.94,596428,2023-09-18T15:37:48Z,596448.06,NULL,Integrität,uadilifu,d,NA,NA,NA,NA,qt,NA,3,NA,NA,NA,NA,NA,NA,NA,NA,NA,NA,NA,NA,NA,NA,NA,NA,NA,NA,NA
070e7,task,flow.Sequence,3_0_3_0_3,NA,NA,completion,12541.8,583875,583864.64,583885.14,596426.94,596429,2023-09-18T15:37:48Z,596448.06,NULL,Integrität,uadilifu,d,NA,NA,NA,NA,qt,NA,3,NA,NA,NA,NA,NA,NA,NA,NA,NA,NA,NA,NA,NA,NA,NA,NA,NA,NA,NA
070e7,deep,flow.Sequence,3_0_3_0_4_0,NA,NA,skipped,NA,596429,NA,NA,596426.94,596429,2023-09-18T15:37:48Z,596448.06,NULL,Genehmigung,idhini,s,mwanamke,itikadi,fedheha,NA,qt,NA,3,NA,NA,NA,NA,NA,NA,NA,NA,NA,NA,NA,NA,NA,NA,NA,NA,NA,NA,NA
070e7,Shallow Question,html.Page,3_0_3_0_4_1_0,NA,NA,form submission,4544.9399999999,596430,596426.94,596448.06,600993,600993,2023-09-18T15:37:53Z,600988.76,NULL,Genehmigung,idhini,s,mwanamke,itikadi,fedheha,idhini,NA,NA,3,NA,NA,NA,NA,NA,NA,NA,NA,NA,NA,NA,NA,NA,NA,NA,NA,NA,NA,NA
070e7,"""Richtig""-Screen",canvas.Screen,3_0_3_0_4_1_1,NA,NA,timeout,5000.88,600996,600988.28,600988.76,605968.98,605971,2023-09-18T15:37:58Z,605989.64,NULL,Genehmigung,idhini,s,mwanamke,itikadi,fedheha,NA,qt,1,3,NA,NA,NA,NA,NA,NA,NA,NA,NA,NA,NA,NA,NA,NA,NA,NA,NA,NA,NA
070e7,"""Falsch""-Screen",canvas.Screen,3_0_3_0_4_1_2,NA,NA,skipped,NA,605977,NA,NA,605968.98,605977,2023-09-18T15:37:58Z,605989.64,NULL,Genehmigung,idhini,s,mwanamke,itikadi,fedheha,NA,qt,NA,3,NA,NA,NA,NA,NA,NA,NA,NA,NA,NA,NA,NA,NA,NA,NA,NA,NA,NA,NA
070e7,shallow,flow.Sequence,3_0_3_0_4_1,NA,NA,completion,9520.9199999999,596429,596426.94,596448.06,605968.98,605977,2023-09-18T15:37:58Z,605989.64,NULL,Genehmigung,idhini,s,mwanamke,itikadi,fedheha,NA,qt,NA,3,NA,NA,NA,NA,NA,NA,NA,NA,NA,NA,NA,NA,NA,NA,NA,NA,NA,NA,NA
070e7,task,flow.Sequence,3_0_3_0_4,NA,NA,completion,9520.9199999999,596429,596426.94,596448.06,605968.98,605978,2023-09-18T15:37:58Z,605989.64,NULL,Genehmigung,idhini,s,mwanamke,itikadi,fedheha,NA,qt,NA,3,NA,NA,NA,NA,NA,NA,NA,NA,NA,NA,NA,NA,NA,NA,NA,NA,NA,NA,NA
070e7,deep,flow.Sequence,3_0_3_0_5_0,NA,NA,skipped,NA,605978,NA,NA,605968.98,605978,2023-09-18T15:37:58Z,605989.64,NULL,Schlange,foleni,s,uvumilivu,uteuzi,muuzaji,NA,qt,NA,3,NA,NA,NA,NA,NA,NA,NA,NA,NA,NA,NA,NA,NA,NA,NA,NA,NA,NA,NA
070e7,Shallow Question,html.Page,3_0_3_0_5_1_0,NA,NA,form submission,4756.36,605979,605968.98,605989.64,610746,610748,2023-09-18T15:38:03Z,610760.24,NULL,Schlange,foleni,s,uvumilivu,uteuzi,muuzaji,foleni,NA,NA,3,NA,NA,NA,NA,NA,NA,NA,NA,NA,NA,NA,NA,NA,NA,NA,NA,NA,NA,NA
070e7,"""Richtig""-Screen",canvas.Screen,3_0_3_0_5_1_1,NA,NA,timeout,5000.04,610760,610737.24,610760.24,615739.62,615741,2023-09-18T15:38:08Z,615760.28,NULL,Schlange,foleni,s,uvumilivu,uteuzi,muuzaji,NA,qt,1,3,NA,NA,NA,NA,NA,NA,NA,NA,NA,NA,NA,NA,NA,NA,NA,NA,NA,NA,NA
070e7,"""Falsch""-Screen",canvas.Screen,3_0_3_0_5_1_2,NA,NA,skipped,NA,615748,NA,NA,615739.62,615749,2023-09-18T15:38:08Z,615760.28,NULL,Schlange,foleni,s,uvumilivu,uteuzi,muuzaji,NA,qt,NA,3,NA,NA,NA,NA,NA,NA,NA,NA,NA,NA,NA,NA,NA,NA,NA,NA,NA,NA,NA
070e7,shallow,flow.Sequence,3_0_3_0_5_1,NA,NA,completion,9749.98,605979,605968.98,605989.64,615739.62,615750,2023-09-18T15:38:08Z,615760.28,NULL,Schlange,foleni,s,uvumilivu,uteuzi,muuzaji,NA,qt,NA,3,NA,NA,NA,NA,NA,NA,NA,NA,NA,NA,NA,NA,NA,NA,NA,NA,NA,NA,NA
070e7,task,flow.Sequence,3_0_3_0_5,NA,NA,completion,9749.98,605978,605968.98,605989.64,615739.62,615751,2023-09-18T15:38:08Z,615760.28,NULL,Schlange,foleni,s,uvumilivu,uteuzi,muuzaji,NA,qt,NA,3,NA,NA,NA,NA,NA,NA,NA,NA,NA,NA,NA,NA,NA,NA,NA,NA,NA,NA,NA
070e7,deep,flow.Sequence,3_0_3_0_6_0,NA,NA,skipped,NA,615751,NA,NA,615739.62,615752,2023-09-18T15:38:08Z,615760.28,NULL,Begegnung,kukutana,s,mmasihiya,mpiganaji,husiano,NA,qt,NA,3,NA,NA,NA,NA,NA,NA,NA,NA,NA,NA,NA,NA,NA,NA,NA,NA,NA,NA,NA
070e7,Shallow Question,html.Page,3_0_3_0_6_1_0,NA,NA,form submission,12312.72,615753,615739.62,615760.28,628073,628074,2023-09-18T15:38:20Z,628072.62,NULL,Begegnung,kukutana,s,mmasihiya,mpiganaji,husiano,kukutana,NA,NA,3,NA,NA,NA,NA,NA,NA,NA,NA,NA,NA,NA,NA,NA,NA,NA,NA,NA,NA,NA
070e7,"""Richtig""-Screen",canvas.Screen,3_0_3_0_6_1_1,NA,NA,timeout,5000.1800000001,628079,628066.96,628072.62,633052.06,633053,2023-09-18T15:38:25Z,633072.8,NULL,Begegnung,kukutana,s,mmasihiya,mpiganaji,husiano,NA,qt,1,3,NA,NA,NA,NA,NA,NA,NA,NA,NA,NA,NA,NA,NA,NA,NA,NA,NA,NA,NA
070e7,"""Falsch""-Screen",canvas.Screen,3_0_3_0_6_1_2,NA,NA,skipped,NA,633061,NA,NA,633052.06,633061,2023-09-18T15:38:25Z,633072.8,NULL,Begegnung,kukutana,s,mmasihiya,mpiganaji,husiano,NA,qt,NA,3,NA,NA,NA,NA,NA,NA,NA,NA,NA,NA,NA,NA,NA,NA,NA,NA,NA,NA,NA
070e7,shallow,flow.Sequence,3_0_3_0_6_1,NA,NA,completion,17291.78,615752,615739.62,615760.28,633052.06,633062,2023-09-18T15:38:25Z,633072.8,NULL,Begegnung,kukutana,s,mmasihiya,mpiganaji,husiano,NA,qt,NA,3,NA,NA,NA,NA,NA,NA,NA,NA,NA,NA,NA,NA,NA,NA,NA,NA,NA,NA,NA
070e7,task,flow.Sequence,3_0_3_0_6,NA,NA,completion,17291.78,615751,615739.62,615760.28,633052.06,633063,2023-09-18T15:38:25Z,633072.8,NULL,Begegnung,kukutana,s,mmasihiya,mpiganaji,husiano,NA,qt,NA,3,NA,NA,NA,NA,NA,NA,NA,NA,NA,NA,NA,NA,NA,NA,NA,NA,NA,NA,NA
070e7,Deep Question,html.Page,3_0_3_0_7_0_0,NA,NA,form submission,9146.2,633064,633052.06,633072.8,642219,642220,2023-09-18T15:38:34Z,642218.4,NULL,Inhalt,yaliyomo,d,NA,NA,NA,udagono,NA,NA,3,NA,NA,NA,NA,NA,NA,NA,NA,NA,NA,NA,NA,NA,NA,NA,NA,NA,NA,NA
070e7,"""Richtig""-Screen",canvas.Screen,3_0_3_0_7_0_1,NA,NA,skipped,NA,642226,NA,NA,642219,642227,2023-09-18T15:38:34Z,642218.4,NULL,Inhalt,yaliyomo,d,NA,NA,NA,NA,qt,NA,3,NA,NA,NA,NA,NA,NA,NA,NA,NA,NA,NA,NA,NA,NA,NA,NA,NA,NA,NA
070e7,"""Falsch""-Screen",canvas.Screen,3_0_3_0_7_0_2,NA,NA,timeout,5000.5,642231,642209.42,642218.4,647197.88,647198,2023-09-18T15:38:39Z,647218.9,NULL,Inhalt,yaliyomo,d,NA,NA,NA,NA,qt,0,3,NA,NA,NA,NA,NA,NA,NA,NA,NA,NA,NA,NA,NA,NA,NA,NA,NA,NA,NA
070e7,deep,flow.Sequence,3_0_3_0_7_0,NA,NA,completion,14125.08,633064,633052.06,633072.8,647197.88,647199,2023-09-18T15:38:39Z,647218.9,NULL,Inhalt,yaliyomo,d,NA,NA,NA,NA,qt,NA,3,NA,NA,NA,NA,NA,NA,NA,NA,NA,NA,NA,NA,NA,NA,NA,NA,NA,NA,NA
070e7,shallow,flow.Sequence,3_0_3_0_7_1,NA,NA,skipped,NA,647199,NA,NA,647197.88,647199,2023-09-18T15:38:39Z,647218.9,NULL,Inhalt,yaliyomo,d,NA,NA,NA,NA,qt,NA,3,NA,NA,NA,NA,NA,NA,NA,NA,NA,NA,NA,NA,NA,NA,NA,NA,NA,NA,NA
070e7,task,flow.Sequence,3_0_3_0_7,NA,NA,completion,14125.08,633064,633052.06,633072.8,647197.88,647200,2023-09-18T15:38:39Z,647218.9,NULL,Inhalt,yaliyomo,d,NA,NA,NA,NA,qt,NA,3,NA,NA,NA,NA,NA,NA,NA,NA,NA,NA,NA,NA,NA,NA,NA,NA,NA,NA,NA
070e7,block,flow.Loop,3_0_3_0,NA,NA,completion,109375.36,537821,537821.18,537822.52,647197.88,647200,2023-09-18T15:38:39Z,647218.9,NULL,NA,NA,NA,NA,NA,NA,NA,qt,NA,3,NA,NA,NA,NA,NA,NA,NA,NA,NA,NA,NA,NA,NA,NA,NA,NA,NA,NA,NA
070e7,weiter,canvas.Screen,3_0_3_1,sdf,keypress(Space),response,945.09999999998,647200,647197.88,647218.9,648164,648183,2023-09-18T15:38:40Z,648242.94,NULL,NA,NA,NA,NA,NA,NA,NA,qt,NA,3,NA,NA,NA,NA,NA,NA,NA,NA,NA,NA,NA,NA,NA,NA,NA,NA,NA,NA,NA
070e7,check continue,flow.Sequence,3_0_3,NA,NA,completion,110341.48,537821,537821.18,537822.52,648164,648184,2023-09-18T15:38:40Z,648242.94,NULL,NA,NA,NA,NA,NA,NA,NA,qt,NA,3,NA,NA,NA,NA,NA,NA,NA,NA,NA,NA,NA,NA,NA,NA,NA,NA,NA,NA,NA
070e7,Deep Question,html.Page,3_0_4_0_0_0_0,NA,NA,form submission,7385.0600000001,648242,648242.6,648242.94,655628,655629,2023-09-18T15:38:47Z,655635.34,NULL,Vermutung,udhanifu,d,NA,NA,NA,udalimo,NA,NA,4,NA,NA,NA,NA,NA,NA,NA,NA,NA,NA,NA,NA,NA,NA,NA,NA,NA,NA,NA
070e7,"""Richtig""-Screen",canvas.Screen,3_0_4_0_0_0_1,NA,NA,skipped,NA,655631,NA,NA,655628,655631,2023-09-18T15:38:47Z,655635.34,NULL,Vermutung,udhanifu,d,NA,NA,NA,NA,sd,NA,4,NA,NA,NA,NA,NA,NA,NA,NA,NA,NA,NA,NA,NA,NA,NA,NA,NA,NA,NA
070e7,"""Falsch""-Screen",canvas.Screen,3_0_4_0_0_0_2,NA,NA,timeout,5000.38,655634,655627.32,655635.34,660614.64,660615,2023-09-18T15:38:52Z,660635.72,NULL,Vermutung,udhanifu,d,NA,NA,NA,NA,sd,0,4,NA,NA,NA,NA,NA,NA,NA,NA,NA,NA,NA,NA,NA,NA,NA,NA,NA,NA,NA
070e7,deep,flow.Sequence,3_0_4_0_0_0,NA,NA,completion,12371.7,648242,648242.6,648242.94,660614.64,660616,2023-09-18T15:38:52Z,660635.72,NULL,Vermutung,udhanifu,d,NA,NA,NA,NA,sd,NA,4,NA,NA,NA,NA,NA,NA,NA,NA,NA,NA,NA,NA,NA,NA,NA,NA,NA,NA,NA
070e7,shallow,flow.Sequence,3_0_4_0_0_1,NA,NA,skipped,NA,660616,NA,NA,660614.64,660616,2023-09-18T15:38:52Z,660635.72,NULL,Vermutung,udhanifu,d,NA,NA,NA,NA,sd,NA,4,NA,NA,NA,NA,NA,NA,NA,NA,NA,NA,NA,NA,NA,NA,NA,NA,NA,NA,NA
070e7,task,flow.Sequence,3_0_4_0_0,NA,NA,completion,12371.7,648242,648242.6,648242.94,660614.64,660616,2023-09-18T15:38:52Z,660635.72,NULL,Vermutung,udhanifu,d,NA,NA,NA,NA,sd,NA,4,NA,NA,NA,NA,NA,NA,NA,NA,NA,NA,NA,NA,NA,NA,NA,NA,NA,NA,NA
070e7,Deep Question,html.Page,3_0_4_0_1_0_0,NA,NA,form submission,11404.28,660616,660614.64,660635.72,672040,672040,2023-09-18T15:39:04Z,672052.14,NULL,Integrität,uadilifu,d,NA,NA,NA,udi,NA,NA,4,NA,NA,NA,NA,NA,NA,NA,NA,NA,NA,NA,NA,NA,NA,NA,NA,NA,NA,NA
070e7,"""Richtig""-Screen",canvas.Screen,3_0_4_0_1_0_1,NA,NA,skipped,NA,672045,NA,NA,672040,672046,2023-09-18T15:39:04Z,672052.14,NULL,Integrität,uadilifu,d,NA,NA,NA,NA,sd,NA,4,NA,NA,NA,NA,NA,NA,NA,NA,NA,NA,NA,NA,NA,NA,NA,NA,NA,NA,NA
070e7,"""Falsch""-Screen",canvas.Screen,3_0_4_0_1_0_2,NA,NA,timeout,5000,672050,672035.36,672052.14,677031.4,677033,2023-09-18T15:39:09Z,677052.14,NULL,Integrität,uadilifu,d,NA,NA,NA,NA,sd,0,4,NA,NA,NA,NA,NA,NA,NA,NA,NA,NA,NA,NA,NA,NA,NA,NA,NA,NA,NA
070e7,deep,flow.Sequence,3_0_4_0_1_0,NA,NA,completion,16395.68,660616,660614.64,660635.72,677031.4,677033,2023-09-18T15:39:09Z,677052.14,NULL,Integrität,uadilifu,d,NA,NA,NA,NA,sd,NA,4,NA,NA,NA,NA,NA,NA,NA,NA,NA,NA,NA,NA,NA,NA,NA,NA,NA,NA,NA
070e7,shallow,flow.Sequence,3_0_4_0_1_1,NA,NA,skipped,NA,677034,NA,NA,677031.4,677034,2023-09-18T15:39:09Z,677052.14,NULL,Integrität,uadilifu,d,NA,NA,NA,NA,sd,NA,4,NA,NA,NA,NA,NA,NA,NA,NA,NA,NA,NA,NA,NA,NA,NA,NA,NA,NA,NA
070e7,task,flow.Sequence,3_0_4_0_1,NA,NA,completion,16395.68,660616,660614.64,660635.72,677031.4,677034,2023-09-18T15:39:09Z,677052.14,NULL,Integrität,uadilifu,d,NA,NA,NA,NA,sd,NA,4,NA,NA,NA,NA,NA,NA,NA,NA,NA,NA,NA,NA,NA,NA,NA,NA,NA,NA,NA
070e7,Deep Question,html.Page,3_0_4_0_2_0_0,NA,NA,form submission,9185.86,677034,677031.4,677052.14,686238,686238,2023-09-18T15:39:18Z,686239.86,NULL,Fleisch,mshakiki,d,NA,NA,NA,mshakiki,NA,NA,4,NA,NA,NA,NA,NA,NA,NA,NA,NA,NA,NA,NA,NA,NA,NA,NA,NA,NA,NA
070e7,"""Richtig""-Screen",canvas.Screen,3_0_4_0_2_0_1,NA,NA,timeout,4999.78,686243,686233.66,686239.86,691218.82,691219,2023-09-18T15:39:23Z,691239.64,NULL,Fleisch,mshakiki,d,NA,NA,NA,NA,sd,1,4,NA,NA,NA,NA,NA,NA,NA,NA,NA,NA,NA,NA,NA,NA,NA,NA,NA,NA,NA
070e7,"""Falsch""-Screen",canvas.Screen,3_0_4_0_2_0_2,NA,NA,skipped,NA,691221,NA,NA,691218.82,691221,2023-09-18T15:39:23Z,691239.64,NULL,Fleisch,mshakiki,d,NA,NA,NA,NA,sd,NA,4,NA,NA,NA,NA,NA,NA,NA,NA,NA,NA,NA,NA,NA,NA,NA,NA,NA,NA,NA
070e7,deep,flow.Sequence,3_0_4_0_2_0,NA,NA,completion,14166.68,677034,677031.4,677052.14,691218.82,691221,2023-09-18T15:39:23Z,691239.64,NULL,Fleisch,mshakiki,d,NA,NA,NA,NA,sd,NA,4,NA,NA,NA,NA,NA,NA,NA,NA,NA,NA,NA,NA,NA,NA,NA,NA,NA,NA,NA
070e7,shallow,flow.Sequence,3_0_4_0_2_1,NA,NA,skipped,NA,691221,NA,NA,691218.82,691222,2023-09-18T15:39:23Z,691239.64,NULL,Fleisch,mshakiki,d,NA,NA,NA,NA,sd,NA,4,NA,NA,NA,NA,NA,NA,NA,NA,NA,NA,NA,NA,NA,NA,NA,NA,NA,NA,NA
070e7,task,flow.Sequence,3_0_4_0_2,NA,NA,completion,14166.68,677034,677031.4,677052.14,691218.82,691222,2023-09-18T15:39:23Z,691239.64,NULL,Fleisch,mshakiki,d,NA,NA,NA,NA,sd,NA,4,NA,NA,NA,NA,NA,NA,NA,NA,NA,NA,NA,NA,NA,NA,NA,NA,NA,NA,NA
070e7,deep,flow.Sequence,3_0_4_0_3_0,NA,NA,skipped,NA,691222,NA,NA,691218.82,691222,2023-09-18T15:39:23Z,691239.64,NULL,Schlange,foleni,s,uvumilivu,uteuzi,muuzaji,NA,sd,NA,4,NA,NA,NA,NA,NA,NA,NA,NA,NA,NA,NA,NA,NA,NA,NA,NA,NA,NA,NA
070e7,Shallow Question,html.Page,3_0_4_0_3_1_0,NA,NA,form submission,10189.36,691222,691218.82,691239.64,701429,701429,2023-09-18T15:39:33Z,701427.24,NULL,Schlange,foleni,s,uvumilivu,uteuzi,muuzaji,foleni,NA,NA,4,NA,NA,NA,NA,NA,NA,NA,NA,NA,NA,NA,NA,NA,NA,NA,NA,NA,NA,NA
070e7,"""Richtig""-Screen",canvas.Screen,3_0_4_0_3_1_1,NA,NA,timeout,4999.98,701434,701424.34,701427.24,706406.44,706408,2023-09-18T15:39:38Z,706427.22,NULL,Schlange,foleni,s,uvumilivu,uteuzi,muuzaji,NA,sd,1,4,NA,NA,NA,NA,NA,NA,NA,NA,NA,NA,NA,NA,NA,NA,NA,NA,NA,NA,NA
070e7,"""Falsch""-Screen",canvas.Screen,3_0_4_0_3_1_2,NA,NA,skipped,NA,706414,NA,NA,706406.44,706414,2023-09-18T15:39:38Z,706427.22,NULL,Schlange,foleni,s,uvumilivu,uteuzi,muuzaji,NA,sd,NA,4,NA,NA,NA,NA,NA,NA,NA,NA,NA,NA,NA,NA,NA,NA,NA,NA,NA,NA,NA
070e7,shallow,flow.Sequence,3_0_4_0_3_1,NA,NA,completion,15166.8,691222,691218.82,691239.64,706406.44,706415,2023-09-18T15:39:38Z,706427.22,NULL,Schlange,foleni,s,uvumilivu,uteuzi,muuzaji,NA,sd,NA,4,NA,NA,NA,NA,NA,NA,NA,NA,NA,NA,NA,NA,NA,NA,NA,NA,NA,NA,NA
070e7,task,flow.Sequence,3_0_4_0_3,NA,NA,completion,15166.8,691222,691218.82,691239.64,706406.44,706416,2023-09-18T15:39:38Z,706427.22,NULL,Schlange,foleni,s,uvumilivu,uteuzi,muuzaji,NA,sd,NA,4,NA,NA,NA,NA,NA,NA,NA,NA,NA,NA,NA,NA,NA,NA,NA,NA,NA,NA,NA
070e7,deep,flow.Sequence,3_0_4_0_4_0,NA,NA,skipped,NA,706416,NA,NA,706406.44,706416,2023-09-18T15:39:38Z,706427.22,NULL,Toleranz,kuvumiliana,s,maombolezo,ujasusi,mchekeshaji,NA,sd,NA,4,NA,NA,NA,NA,NA,NA,NA,NA,NA,NA,NA,NA,NA,NA,NA,NA,NA,NA,NA
070e7,Shallow Question,html.Page,3_0_4_0_4_1_0,NA,NA,form submission,14344.78,706417,706406.44,706427.22,720772,720772,2023-09-18T15:39:53Z,720781.4,NULL,Toleranz,kuvumiliana,s,maombolezo,ujasusi,mchekeshaji,kuvumiliana,NA,NA,4,NA,NA,NA,NA,NA,NA,NA,NA,NA,NA,NA,NA,NA,NA,NA,NA,NA,NA,NA
070e7,"""Richtig""-Screen",canvas.Screen,3_0_4_0_4_1_1,NA,NA,timeout,5000.02,720777,720766.22,720781.4,725760.64,725767,2023-09-18T15:39:58Z,725781.42,NULL,Toleranz,kuvumiliana,s,maombolezo,ujasusi,mchekeshaji,NA,sd,1,4,NA,NA,NA,NA,NA,NA,NA,NA,NA,NA,NA,NA,NA,NA,NA,NA,NA,NA,NA
070e7,"""Falsch""-Screen",canvas.Screen,3_0_4_0_4_1_2,NA,NA,skipped,NA,725779,NA,NA,725760.64,725779,2023-09-18T15:39:58Z,725781.42,NULL,Toleranz,kuvumiliana,s,maombolezo,ujasusi,mchekeshaji,NA,sd,NA,4,NA,NA,NA,NA,NA,NA,NA,NA,NA,NA,NA,NA,NA,NA,NA,NA,NA,NA,NA
070e7,shallow,flow.Sequence,3_0_4_0_4_1,NA,NA,completion,19333.42,706416,706406.44,706427.22,725760.64,725779,2023-09-18T15:39:58Z,725781.42,NULL,Toleranz,kuvumiliana,s,maombolezo,ujasusi,mchekeshaji,NA,sd,NA,4,NA,NA,NA,NA,NA,NA,NA,NA,NA,NA,NA,NA,NA,NA,NA,NA,NA,NA,NA
070e7,task,flow.Sequence,3_0_4_0_4,NA,NA,completion,19333.42,706416,706406.44,706427.22,725760.64,725780,2023-09-18T15:39:58Z,725781.42,NULL,Toleranz,kuvumiliana,s,maombolezo,ujasusi,mchekeshaji,NA,sd,NA,4,NA,NA,NA,NA,NA,NA,NA,NA,NA,NA,NA,NA,NA,NA,NA,NA,NA,NA,NA
070e7,Deep Question,html.Page,3_0_4_0_5_0_0,NA,NA,form submission,39594.58,725780,725760.64,725781.42,765376,765377,2023-09-18T15:40:37Z,765385.8,NULL,Inhalt,yaliyomo,d,NA,NA,NA,idno,NA,NA,4,NA,NA,NA,NA,NA,NA,NA,NA,NA,NA,NA,NA,NA,NA,NA,NA,NA,NA,NA
070e7,"""Richtig""-Screen",canvas.Screen,3_0_4_0_5_0_1,NA,NA,skipped,NA,765383,NA,NA,765376,765384,2023-09-18T15:40:37Z,765385.8,NULL,Inhalt,yaliyomo,d,NA,NA,NA,NA,sd,NA,4,NA,NA,NA,NA,NA,NA,NA,NA,NA,NA,NA,NA,NA,NA,NA,NA,NA,NA,NA
070e7,"""Falsch""-Screen",canvas.Screen,3_0_4_0_5_0_2,NA,NA,timeout,5000,765390,765363.16,765385.8,770364.98,770366,2023-09-18T15:40:42Z,770385.8,NULL,Inhalt,yaliyomo,d,NA,NA,NA,NA,sd,0,4,NA,NA,NA,NA,NA,NA,NA,NA,NA,NA,NA,NA,NA,NA,NA,NA,NA,NA,NA
070e7,deep,flow.Sequence,3_0_4_0_5_0,NA,NA,completion,44583.56,725780,725760.64,725781.42,770364.98,770367,2023-09-18T15:40:42Z,770385.8,NULL,Inhalt,yaliyomo,d,NA,NA,NA,NA,sd,NA,4,NA,NA,NA,NA,NA,NA,NA,NA,NA,NA,NA,NA,NA,NA,NA,NA,NA,NA,NA
070e7,shallow,flow.Sequence,3_0_4_0_5_1,NA,NA,skipped,NA,770367,NA,NA,770364.98,770368,2023-09-18T15:40:42Z,770385.8,NULL,Inhalt,yaliyomo,d,NA,NA,NA,NA,sd,NA,4,NA,NA,NA,NA,NA,NA,NA,NA,NA,NA,NA,NA,NA,NA,NA,NA,NA,NA,NA
070e7,task,flow.Sequence,3_0_4_0_5,NA,NA,completion,44583.56,725780,725760.64,725781.42,770364.98,770368,2023-09-18T15:40:42Z,770385.8,NULL,Inhalt,yaliyomo,d,NA,NA,NA,NA,sd,NA,4,NA,NA,NA,NA,NA,NA,NA,NA,NA,NA,NA,NA,NA,NA,NA,NA,NA,NA,NA
070e7,deep,flow.Sequence,3_0_4_0_6_0,NA,NA,skipped,NA,770370,NA,NA,770364.98,770370,2023-09-18T15:40:42Z,770385.8,NULL,Begegnung,kukutana,s,mmasihiya,mpiganaji,husiano,NA,sd,NA,4,NA,NA,NA,NA,NA,NA,NA,NA,NA,NA,NA,NA,NA,NA,NA,NA,NA,NA,NA
070e7,Shallow Question,html.Page,3_0_4_0_6_1_0,NA,NA,form submission,12108.2,770372,770364.98,770385.8,782494,782497,2023-09-18T15:40:54Z,782489.88,NULL,Begegnung,kukutana,s,mmasihiya,mpiganaji,husiano,kukutana,NA,NA,4,NA,NA,NA,NA,NA,NA,NA,NA,NA,NA,NA,NA,NA,NA,NA,NA,NA,NA,NA
070e7,"""Richtig""-Screen",canvas.Screen,3_0_4_0_6_1_1,NA,NA,timeout,5000.08,782507,782485.62,782489.88,787469.56,787471,2023-09-18T15:40:59Z,787489.96,NULL,Begegnung,kukutana,s,mmasihiya,mpiganaji,husiano,NA,sd,1,4,NA,NA,NA,NA,NA,NA,NA,NA,NA,NA,NA,NA,NA,NA,NA,NA,NA,NA,NA
070e7,"""Falsch""-Screen",canvas.Screen,3_0_4_0_6_1_2,NA,NA,skipped,NA,787480,NA,NA,787469.56,787481,2023-09-18T15:40:59Z,787489.96,NULL,Begegnung,kukutana,s,mmasihiya,mpiganaji,husiano,NA,sd,NA,4,NA,NA,NA,NA,NA,NA,NA,NA,NA,NA,NA,NA,NA,NA,NA,NA,NA,NA,NA
070e7,shallow,flow.Sequence,3_0_4_0_6_1,NA,NA,completion,17083.76,770370,770364.98,770385.8,787469.56,787481,2023-09-18T15:40:59Z,787489.96,NULL,Begegnung,kukutana,s,mmasihiya,mpiganaji,husiano,NA,sd,NA,4,NA,NA,NA,NA,NA,NA,NA,NA,NA,NA,NA,NA,NA,NA,NA,NA,NA,NA,NA
070e7,task,flow.Sequence,3_0_4_0_6,NA,NA,completion,17083.76,770370,770364.98,770385.8,787469.56,787482,2023-09-18T15:40:59Z,787489.96,NULL,Begegnung,kukutana,s,mmasihiya,mpiganaji,husiano,NA,sd,NA,4,NA,NA,NA,NA,NA,NA,NA,NA,NA,NA,NA,NA,NA,NA,NA,NA,NA,NA,NA
070e7,deep,flow.Sequence,3_0_4_0_7_0,NA,NA,skipped,NA,787482,NA,NA,787469.56,787483,2023-09-18T15:40:59Z,787489.96,NULL,Genehmigung,idhini,s,mwanamke,itikadi,fedheha,NA,sd,NA,4,NA,NA,NA,NA,NA,NA,NA,NA,NA,NA,NA,NA,NA,NA,NA,NA,NA,NA,NA
070e7,Shallow Question,html.Page,3_0_4_0_7_1_0,NA,NA,form submission,27167.04,787484,787469.56,787489.96,814657,814658,2023-09-18T15:41:26Z,814656.72,NULL,Genehmigung,idhini,s,mwanamke,itikadi,fedheha,idhini,NA,NA,4,NA,NA,NA,NA,NA,NA,NA,NA,NA,NA,NA,NA,NA,NA,NA,NA,NA,NA,NA
070e7,"""Richtig""-Screen",canvas.Screen,3_0_4_0_7_1_1,NA,NA,timeout,4999.9600000001,814664,814651.54,814656.72,819635.96,819637,2023-09-18T15:41:31Z,819656.68,NULL,Genehmigung,idhini,s,mwanamke,itikadi,fedheha,NA,sd,1,4,NA,NA,NA,NA,NA,NA,NA,NA,NA,NA,NA,NA,NA,NA,NA,NA,NA,NA,NA
070e7,"""Falsch""-Screen",canvas.Screen,3_0_4_0_7_1_2,NA,NA,skipped,NA,819645,NA,NA,819635.96,819646,2023-09-18T15:41:31Z,819656.68,NULL,Genehmigung,idhini,s,mwanamke,itikadi,fedheha,NA,sd,NA,4,NA,NA,NA,NA,NA,NA,NA,NA,NA,NA,NA,NA,NA,NA,NA,NA,NA,NA,NA
070e7,shallow,flow.Sequence,3_0_4_0_7_1,NA,NA,completion,32146,787484,787469.56,787489.96,819635.96,819646,2023-09-18T15:41:31Z,819656.68,NULL,Genehmigung,idhini,s,mwanamke,itikadi,fedheha,NA,sd,NA,4,NA,NA,NA,NA,NA,NA,NA,NA,NA,NA,NA,NA,NA,NA,NA,NA,NA,NA,NA
070e7,task,flow.Sequence,3_0_4_0_7,NA,NA,completion,32146,787482,787469.56,787489.96,819635.96,819647,2023-09-18T15:41:31Z,819656.68,NULL,Genehmigung,idhini,s,mwanamke,itikadi,fedheha,NA,sd,NA,4,NA,NA,NA,NA,NA,NA,NA,NA,NA,NA,NA,NA,NA,NA,NA,NA,NA,NA,NA
070e7,block,flow.Loop,3_0_4_0,NA,NA,completion,171393.02,648242,648242.6,648242.94,819635.96,819648,2023-09-18T15:41:31Z,819656.68,NULL,NA,NA,NA,NA,NA,NA,NA,sd,NA,4,NA,NA,NA,NA,NA,NA,NA,NA,NA,NA,NA,NA,NA,NA,NA,NA,NA,NA,NA
070e7,weiter,canvas.Screen,3_0_4_1,sdf,keypress(Space),response,1117.3199999999,819649,819635.96,819656.68,820774,820786,2023-09-18T15:41:33Z,820862,NULL,NA,NA,NA,NA,NA,NA,NA,sd,NA,4,NA,NA,NA,NA,NA,NA,NA,NA,NA,NA,NA,NA,NA,NA,NA,NA,NA,NA,NA
070e7,check continue,flow.Sequence,3_0_4,NA,NA,completion,172531.06,648242,648242.6,648242.94,820774,820787,2023-09-18T15:41:33Z,820862,NULL,NA,NA,NA,NA,NA,NA,NA,sd,NA,4,NA,NA,NA,NA,NA,NA,NA,NA,NA,NA,NA,NA,NA,NA,NA,NA,NA,NA,NA
070e7,deep,flow.Sequence,3_0_5_0_0_0,NA,NA,skipped,NA,820862,NA,NA,820774,820862,2023-09-18T15:41:33Z,820862,NULL,Genehmigung,idhini,s,mwanamke,itikadi,fedheha,NA,sdf,NA,5,NA,NA,NA,NA,NA,NA,NA,NA,NA,NA,NA,NA,NA,NA,NA,NA,NA,NA,NA
070e7,Shallow Question,html.Page,3_0_5_0_0_1_0,NA,NA,form submission,4449,820862,820861.66,820862,825311,825312,2023-09-18T15:41:37Z,825323.6,NULL,Genehmigung,idhini,s,mwanamke,itikadi,fedheha,idhini,NA,NA,5,NA,NA,NA,NA,NA,NA,NA,NA,NA,NA,NA,NA,NA,NA,NA,NA,NA,NA,NA
070e7,"""Richtig""-Screen",canvas.Screen,3_0_5_0_0_1_1,NA,NA,timeout,4999.74,825316,825306.24,825323.6,830302.62,830304,2023-09-18T15:41:42Z,830323.34,NULL,Genehmigung,idhini,s,mwanamke,itikadi,fedheha,NA,sdf,1,5,NA,NA,NA,NA,NA,NA,NA,NA,NA,NA,NA,NA,NA,NA,NA,NA,NA,NA,NA
070e7,"""Falsch""-Screen",canvas.Screen,3_0_5_0_0_1_2,NA,NA,skipped,NA,830309,NA,NA,830302.62,830310,2023-09-18T15:41:42Z,830323.34,NULL,Genehmigung,idhini,s,mwanamke,itikadi,fedheha,NA,sdf,NA,5,NA,NA,NA,NA,NA,NA,NA,NA,NA,NA,NA,NA,NA,NA,NA,NA,NA,NA,NA
070e7,shallow,flow.Sequence,3_0_5_0_0_1,NA,NA,completion,9440.62,820862,820861.66,820862,830302.62,830310,2023-09-18T15:41:42Z,830323.34,NULL,Genehmigung,idhini,s,mwanamke,itikadi,fedheha,NA,sdf,NA,5,NA,NA,NA,NA,NA,NA,NA,NA,NA,NA,NA,NA,NA,NA,NA,NA,NA,NA,NA
070e7,task,flow.Sequence,3_0_5_0_0,NA,NA,completion,9440.62,820862,820861.66,820862,830302.62,830311,2023-09-18T15:41:42Z,830323.34,NULL,Genehmigung,idhini,s,mwanamke,itikadi,fedheha,NA,sdf,NA,5,NA,NA,NA,NA,NA,NA,NA,NA,NA,NA,NA,NA,NA,NA,NA,NA,NA,NA,NA
070e7,Deep Question,html.Page,3_0_5_0_1_0_0,NA,NA,form submission,9267.66,830311,830302.62,830323.34,839591,839592,2023-09-18T15:41:51Z,839594.32,NULL,Fleisch,mshakiki,d,NA,NA,NA,mshakiki,NA,NA,5,NA,NA,NA,NA,NA,NA,NA,NA,NA,NA,NA,NA,NA,NA,NA,NA,NA,NA,NA
070e7,"""Richtig""-Screen",canvas.Screen,3_0_5_0_1_0_1,NA,NA,timeout,4999.9,839598,839584.62,839594.32,844573.5,844577,2023-09-18T15:41:56Z,844594.22,NULL,Fleisch,mshakiki,d,NA,NA,NA,NA,sdf,1,5,NA,NA,NA,NA,NA,NA,NA,NA,NA,NA,NA,NA,NA,NA,NA,NA,NA,NA,NA
070e7,"""Falsch""-Screen",canvas.Screen,3_0_5_0_1_0_2,NA,NA,skipped,NA,844588,NA,NA,844573.5,844588,2023-09-18T15:41:56Z,844594.22,NULL,Fleisch,mshakiki,d,NA,NA,NA,NA,sdf,NA,5,NA,NA,NA,NA,NA,NA,NA,NA,NA,NA,NA,NA,NA,NA,NA,NA,NA,NA,NA
070e7,deep,flow.Sequence,3_0_5_0_1_0,NA,NA,completion,14250.16,830311,830302.62,830323.34,844573.5,844589,2023-09-18T15:41:56Z,844594.22,NULL,Fleisch,mshakiki,d,NA,NA,NA,NA,sdf,NA,5,NA,NA,NA,NA,NA,NA,NA,NA,NA,NA,NA,NA,NA,NA,NA,NA,NA,NA,NA
070e7,shallow,flow.Sequence,3_0_5_0_1_1,NA,NA,skipped,NA,844589,NA,NA,844573.5,844589,2023-09-18T15:41:56Z,844594.22,NULL,Fleisch,mshakiki,d,NA,NA,NA,NA,sdf,NA,5,NA,NA,NA,NA,NA,NA,NA,NA,NA,NA,NA,NA,NA,NA,NA,NA,NA,NA,NA
070e7,task,flow.Sequence,3_0_5_0_1,NA,NA,completion,14250.16,830311,830302.62,830323.34,844573.5,844589,2023-09-18T15:41:56Z,844594.22,NULL,Fleisch,mshakiki,d,NA,NA,NA,NA,sdf,NA,5,NA,NA,NA,NA,NA,NA,NA,NA,NA,NA,NA,NA,NA,NA,NA,NA,NA,NA,NA
070e7,Deep Question,html.Page,3_0_5_0_2_0_0,NA,NA,form submission,27575.78,844590,844573.5,844594.22,872170,872171,2023-09-18T15:42:24Z,872177.72,NULL,Integrität,uadilifu,d,NA,NA,NA,mdg,NA,NA,5,NA,NA,NA,NA,NA,NA,NA,NA,NA,NA,NA,NA,NA,NA,NA,NA,NA,NA,NA
070e7,"""Richtig""-Screen",canvas.Screen,3_0_5_0_2_0_1,NA,NA,skipped,NA,872181,NA,NA,872170,872181,2023-09-18T15:42:24Z,872177.72,NULL,Integrität,uadilifu,d,NA,NA,NA,NA,sdf,NA,5,NA,NA,NA,NA,NA,NA,NA,NA,NA,NA,NA,NA,NA,NA,NA,NA,NA,NA,NA
070e7,"""Falsch""-Screen",canvas.Screen,3_0_5_0_2_0_2,NA,NA,timeout,5000.04,872186,872158.88,872177.72,877157.52,877159,2023-09-18T15:42:29Z,877177.76,NULL,Integrität,uadilifu,d,NA,NA,NA,NA,sdf,0,5,NA,NA,NA,NA,NA,NA,NA,NA,NA,NA,NA,NA,NA,NA,NA,NA,NA,NA,NA
070e7,deep,flow.Sequence,3_0_5_0_2_0,NA,NA,completion,32563.3,844590,844573.5,844594.22,877157.52,877160,2023-09-18T15:42:29Z,877177.76,NULL,Integrität,uadilifu,d,NA,NA,NA,NA,sdf,NA,5,NA,NA,NA,NA,NA,NA,NA,NA,NA,NA,NA,NA,NA,NA,NA,NA,NA,NA,NA
070e7,shallow,flow.Sequence,3_0_5_0_2_1,NA,NA,skipped,NA,877161,NA,NA,877157.52,877161,2023-09-18T15:42:29Z,877177.76,NULL,Integrität,uadilifu,d,NA,NA,NA,NA,sdf,NA,5,NA,NA,NA,NA,NA,NA,NA,NA,NA,NA,NA,NA,NA,NA,NA,NA,NA,NA,NA
070e7,task,flow.Sequence,3_0_5_0_2,NA,NA,completion,32563.3,844589,844573.5,844594.22,877157.52,877163,2023-09-18T15:42:29Z,877177.76,NULL,Integrität,uadilifu,d,NA,NA,NA,NA,sdf,NA,5,NA,NA,NA,NA,NA,NA,NA,NA,NA,NA,NA,NA,NA,NA,NA,NA,NA,NA,NA
070e7,Deep Question,html.Page,3_0_5_0_3_0_0,NA,NA,form submission,5845.24,877163,877157.52,877177.76,883023,883023,2023-09-18T15:42:35Z,883031.84,NULL,Vermutung,udhanifu,d,NA,NA,NA,yalimomo,NA,NA,5,NA,NA,NA,NA,NA,NA,NA,NA,NA,NA,NA,NA,NA,NA,NA,NA,NA,NA,NA
070e7,"""Richtig""-Screen",canvas.Screen,3_0_5_0_3_0_1,NA,NA,skipped,NA,883026,NA,NA,883023,883027,2023-09-18T15:42:35Z,883031.84,NULL,Vermutung,udhanifu,d,NA,NA,NA,NA,sdf,NA,5,NA,NA,NA,NA,NA,NA,NA,NA,NA,NA,NA,NA,NA,NA,NA,NA,NA,NA,NA
070e7,"""Falsch""-Screen",canvas.Screen,3_0_5_0_3_0_2,NA,NA,timeout,5000.0800000001,883029,883022.16,883031.84,888011.38,888013,2023-09-18T15:42:40Z,888031.92,NULL,Vermutung,udhanifu,d,NA,NA,NA,NA,sdf,0,5,NA,NA,NA,NA,NA,NA,NA,NA,NA,NA,NA,NA,NA,NA,NA,NA,NA,NA,NA
070e7,deep,flow.Sequence,3_0_5_0_3_0,NA,NA,completion,10833.62,877163,877157.52,877177.76,888011.38,888013,2023-09-18T15:42:40Z,888031.92,NULL,Vermutung,udhanifu,d,NA,NA,NA,NA,sdf,NA,5,NA,NA,NA,NA,NA,NA,NA,NA,NA,NA,NA,NA,NA,NA,NA,NA,NA,NA,NA
070e7,shallow,flow.Sequence,3_0_5_0_3_1,NA,NA,skipped,NA,888014,NA,NA,888011.38,888014,2023-09-18T15:42:40Z,888031.92,NULL,Vermutung,udhanifu,d,NA,NA,NA,NA,sdf,NA,5,NA,NA,NA,NA,NA,NA,NA,NA,NA,NA,NA,NA,NA,NA,NA,NA,NA,NA,NA
070e7,task,flow.Sequence,3_0_5_0_3,NA,NA,completion,10833.62,877163,877157.52,877177.76,888011.38,888015,2023-09-18T15:42:40Z,888031.92,NULL,Vermutung,udhanifu,d,NA,NA,NA,NA,sdf,NA,5,NA,NA,NA,NA,NA,NA,NA,NA,NA,NA,NA,NA,NA,NA,NA,NA,NA,NA,NA
070e7,deep,flow.Sequence,3_0_5_0_4_0,NA,NA,skipped,NA,888015,NA,NA,888011.38,888015,2023-09-18T15:42:40Z,888031.92,NULL,Schlange,foleni,s,uvumilivu,uteuzi,muuzaji,NA,sdf,NA,5,NA,NA,NA,NA,NA,NA,NA,NA,NA,NA,NA,NA,NA,NA,NA,NA,NA,NA,NA
070e7,Shallow Question,html.Page,3_0_5_0_4_1_0,NA,NA,form submission,6213.08,888016,888011.38,888031.92,894245,894245,2023-09-18T15:42:46Z,894240.08,NULL,Schlange,foleni,s,uvumilivu,uteuzi,muuzaji,foleni,NA,NA,5,NA,NA,NA,NA,NA,NA,NA,NA,NA,NA,NA,NA,NA,NA,NA,NA,NA,NA,NA
070e7,"""Richtig""-Screen",canvas.Screen,3_0_5_0_4_1_1,NA,NA,timeout,5000.38,894248,894239,894240.08,899219.4,899220,2023-09-18T15:42:51Z,899240.46,NULL,Schlange,foleni,s,uvumilivu,uteuzi,muuzaji,NA,sdf,1,5,NA,NA,NA,NA,NA,NA,NA,NA,NA,NA,NA,NA,NA,NA,NA,NA,NA,NA,NA
070e7,"""Falsch""-Screen",canvas.Screen,3_0_5_0_4_1_2,NA,NA,skipped,NA,899223,NA,NA,899219.4,899223,2023-09-18T15:42:51Z,899240.46,NULL,Schlange,foleni,s,uvumilivu,uteuzi,muuzaji,NA,sdf,NA,5,NA,NA,NA,NA,NA,NA,NA,NA,NA,NA,NA,NA,NA,NA,NA,NA,NA,NA,NA
070e7,shallow,flow.Sequence,3_0_5_0_4_1,NA,NA,completion,11187.48,888016,888011.38,888031.92,899219.4,899223,2023-09-18T15:42:51Z,899240.46,NULL,Schlange,foleni,s,uvumilivu,uteuzi,muuzaji,NA,sdf,NA,5,NA,NA,NA,NA,NA,NA,NA,NA,NA,NA,NA,NA,NA,NA,NA,NA,NA,NA,NA
070e7,task,flow.Sequence,3_0_5_0_4,NA,NA,completion,11187.48,888015,888011.38,888031.92,899219.4,899223,2023-09-18T15:42:51Z,899240.46,NULL,Schlange,foleni,s,uvumilivu,uteuzi,muuzaji,NA,sdf,NA,5,NA,NA,NA,NA,NA,NA,NA,NA,NA,NA,NA,NA,NA,NA,NA,NA,NA,NA,NA
070e7,deep,flow.Sequence,3_0_5_0_5_0,NA,NA,skipped,NA,899223,NA,NA,899219.4,899223,2023-09-18T15:42:51Z,899240.46,NULL,Begegnung,kukutana,s,mmasihiya,mpiganaji,husiano,NA,sdf,NA,5,NA,NA,NA,NA,NA,NA,NA,NA,NA,NA,NA,NA,NA,NA,NA,NA,NA,NA,NA
070e7,Shallow Question,html.Page,3_0_5_0_5_1_0,NA,NA,form submission,4972.54,899223,899219.4,899240.46,904213,904213,2023-09-18T15:42:56Z,904219.48,NULL,Begegnung,kukutana,s,mmasihiya,mpiganaji,husiano,kukutana,NA,NA,5,NA,NA,NA,NA,NA,NA,NA,NA,NA,NA,NA,NA,NA,NA,NA,NA,NA,NA,NA
070e7,"""Richtig""-Screen",canvas.Screen,3_0_5_0_5_1_1,NA,NA,timeout,5000.0600000001,904218,904207.82,904219.48,909198.72,909200,2023-09-18T15:43:01Z,909219.54,NULL,Begegnung,kukutana,s,mmasihiya,mpiganaji,husiano,NA,sdf,1,5,NA,NA,NA,NA,NA,NA,NA,NA,NA,NA,NA,NA,NA,NA,NA,NA,NA,NA,NA
070e7,"""Falsch""-Screen",canvas.Screen,3_0_5_0_5_1_2,NA,NA,skipped,NA,909207,NA,NA,909198.72,909207,2023-09-18T15:43:01Z,909219.54,NULL,Begegnung,kukutana,s,mmasihiya,mpiganaji,husiano,NA,sdf,NA,5,NA,NA,NA,NA,NA,NA,NA,NA,NA,NA,NA,NA,NA,NA,NA,NA,NA,NA,NA
070e7,shallow,flow.Sequence,3_0_5_0_5_1,NA,NA,completion,9958.26,899223,899219.4,899240.46,909198.72,909208,2023-09-18T15:43:01Z,909219.54,NULL,Begegnung,kukutana,s,mmasihiya,mpiganaji,husiano,NA,sdf,NA,5,NA,NA,NA,NA,NA,NA,NA,NA,NA,NA,NA,NA,NA,NA,NA,NA,NA,NA,NA
070e7,task,flow.Sequence,3_0_5_0_5,NA,NA,completion,9958.26,899223,899219.4,899240.46,909198.72,909208,2023-09-18T15:43:01Z,909219.54,NULL,Begegnung,kukutana,s,mmasihiya,mpiganaji,husiano,NA,sdf,NA,5,NA,NA,NA,NA,NA,NA,NA,NA,NA,NA,NA,NA,NA,NA,NA,NA,NA,NA,NA
070e7,Deep Question,html.Page,3_0_5_0_6_0_0,NA,NA,form submission,6985.46,909209,909198.72,909219.54,916205,916206,2023-09-18T15:43:08Z,916219.52,NULL,Inhalt,yaliyomo,d,NA,NA,NA,udnod,NA,NA,5,NA,NA,NA,NA,NA,NA,NA,NA,NA,NA,NA,NA,NA,NA,NA,NA,NA,NA,NA
070e7,"""Richtig""-Screen",canvas.Screen,3_0_5_0_6_0_1,NA,NA,skipped,NA,916211,NA,NA,916205,916211,2023-09-18T15:43:08Z,916219.52,NULL,Inhalt,yaliyomo,d,NA,NA,NA,NA,sdf,NA,5,NA,NA,NA,NA,NA,NA,NA,NA,NA,NA,NA,NA,NA,NA,NA,NA,NA,NA,NA
070e7,"""Falsch""-Screen",canvas.Screen,3_0_5_0_6_0_2,NA,NA,timeout,5000.16,916215,916199.92,916219.52,921198.74,921200,2023-09-18T15:43:13Z,921219.68,NULL,Inhalt,yaliyomo,d,NA,NA,NA,NA,sdf,0,5,NA,NA,NA,NA,NA,NA,NA,NA,NA,NA,NA,NA,NA,NA,NA,NA,NA,NA,NA
070e7,deep,flow.Sequence,3_0_5_0_6_0,NA,NA,completion,11979.2,909209,909198.72,909219.54,921198.74,921200,2023-09-18T15:43:13Z,921219.68,NULL,Inhalt,yaliyomo,d,NA,NA,NA,NA,sdf,NA,5,NA,NA,NA,NA,NA,NA,NA,NA,NA,NA,NA,NA,NA,NA,NA,NA,NA,NA,NA
070e7,shallow,flow.Sequence,3_0_5_0_6_1,NA,NA,skipped,NA,921200,NA,NA,921198.74,921201,2023-09-18T15:43:13Z,921219.68,NULL,Inhalt,yaliyomo,d,NA,NA,NA,NA,sdf,NA,5,NA,NA,NA,NA,NA,NA,NA,NA,NA,NA,NA,NA,NA,NA,NA,NA,NA,NA,NA
070e7,task,flow.Sequence,3_0_5_0_6,NA,NA,completion,11979.2,909209,909198.72,909219.54,921198.74,921202,2023-09-18T15:43:13Z,921219.68,NULL,Inhalt,yaliyomo,d,NA,NA,NA,NA,sdf,NA,5,NA,NA,NA,NA,NA,NA,NA,NA,NA,NA,NA,NA,NA,NA,NA,NA,NA,NA,NA
070e7,deep,flow.Sequence,3_0_5_0_7_0,NA,NA,skipped,NA,921202,NA,NA,921198.74,921203,2023-09-18T15:43:13Z,921219.68,NULL,Toleranz,kuvumiliana,s,maombolezo,ujasusi,mchekeshaji,NA,sdf,NA,5,NA,NA,NA,NA,NA,NA,NA,NA,NA,NA,NA,NA,NA,NA,NA,NA,NA,NA,NA
070e7,Shallow Question,html.Page,3_0_5_0_7_1_0,NA,NA,form submission,7758.3199999999,921203,921198.74,921219.68,928978,928978,2023-09-18T15:43:21Z,928990.38,NULL,Toleranz,kuvumiliana,s,maombolezo,ujasusi,mchekeshaji,kuvumiliana,NA,NA,5,NA,NA,NA,NA,NA,NA,NA,NA,NA,NA,NA,NA,NA,NA,NA,NA,NA,NA,NA
070e7,"""Richtig""-Screen",canvas.Screen,3_0_5_0_7_1_1,NA,NA,timeout,4999.98,928983,928972.94,928990.38,933969.62,933971,2023-09-18T15:43:26Z,933990.36,NULL,Toleranz,kuvumiliana,s,maombolezo,ujasusi,mchekeshaji,NA,sdf,1,5,NA,NA,NA,NA,NA,NA,NA,NA,NA,NA,NA,NA,NA,NA,NA,NA,NA,NA,NA
070e7,"""Falsch""-Screen",canvas.Screen,3_0_5_0_7_1_2,NA,NA,skipped,NA,933977,NA,NA,933969.62,933977,2023-09-18T15:43:26Z,933990.36,NULL,Toleranz,kuvumiliana,s,maombolezo,ujasusi,mchekeshaji,NA,sdf,NA,5,NA,NA,NA,NA,NA,NA,NA,NA,NA,NA,NA,NA,NA,NA,NA,NA,NA,NA,NA
070e7,shallow,flow.Sequence,3_0_5_0_7_1,NA,NA,completion,12749.94,921203,921198.74,921219.68,933969.62,933978,2023-09-18T15:43:26Z,933990.36,NULL,Toleranz,kuvumiliana,s,maombolezo,ujasusi,mchekeshaji,NA,sdf,NA,5,NA,NA,NA,NA,NA,NA,NA,NA,NA,NA,NA,NA,NA,NA,NA,NA,NA,NA,NA
070e7,task,flow.Sequence,3_0_5_0_7,NA,NA,completion,12749.94,921202,921198.74,921219.68,933969.62,933978,2023-09-18T15:43:26Z,933990.36,NULL,Toleranz,kuvumiliana,s,maombolezo,ujasusi,mchekeshaji,NA,sdf,NA,5,NA,NA,NA,NA,NA,NA,NA,NA,NA,NA,NA,NA,NA,NA,NA,NA,NA,NA,NA
070e7,block,flow.Loop,3_0_5_0,NA,NA,completion,113107.62,820862,820861.66,820862,933969.62,933979,2023-09-18T15:43:26Z,933990.36,NULL,NA,NA,NA,NA,NA,NA,NA,sdf,NA,5,NA,NA,NA,NA,NA,NA,NA,NA,NA,NA,NA,NA,NA,NA,NA,NA,NA,NA,NA
070e7,weiter,canvas.Screen,3_0_5_1,sdf,keypress(Space),response,1579.64,933979,933969.62,933990.36,935570,935575,2023-09-18T15:43:27Z,936253.14,NULL,NA,NA,NA,NA,NA,NA,NA,sdf,NA,5,NA,NA,NA,NA,NA,NA,NA,NA,NA,NA,NA,NA,NA,NA,NA,NA,NA,NA,NA
070e7,check continue,flow.Sequence,3_0_5,NA,NA,completion,114708,820861,820861.66,820862,935570,935577,2023-09-18T15:43:27Z,936253.14,NULL,NA,NA,NA,NA,NA,NA,NA,sdf,NA,5,NA,NA,NA,NA,NA,NA,NA,NA,NA,NA,NA,NA,NA,NA,NA,NA,NA,NA,NA
070e7,check continue,flow.Sequence,3_0_6,NA,NA,skipped,NA,935638,NA,NA,935570,935638,2023-09-18T15:43:27Z,936253.14,NULL,NA,NA,NA,NA,NA,NA,NA,dfs,NA,6,NA,NA,NA,NA,NA,NA,NA,NA,NA,NA,NA,NA,NA,NA,NA,NA,NA,NA,NA
070e7,check continue,flow.Sequence,3_0_7,NA,NA,skipped,NA,935667,NA,NA,935570,935667,2023-09-18T15:43:27Z,936253.14,NULL,NA,NA,NA,NA,NA,NA,NA,df,NA,7,NA,NA,NA,NA,NA,NA,NA,NA,NA,NA,NA,NA,NA,NA,NA,NA,NA,NA,NA
070e7,check continue,flow.Sequence,3_0_8,NA,NA,skipped,NA,935696,NA,NA,935570,935696,2023-09-18T15:43:27Z,936253.14,NULL,NA,NA,NA,NA,NA,NA,NA,dfs,NA,8,NA,NA,NA,NA,NA,NA,NA,NA,NA,NA,NA,NA,NA,NA,NA,NA,NA,NA,NA
070e7,check continue,flow.Sequence,3_0_9,NA,NA,skipped,NA,935724,NA,NA,935570,935724,2023-09-18T15:43:27Z,936253.14,NULL,NA,NA,NA,NA,NA,NA,NA,dsf,NA,9,NA,NA,NA,NA,NA,NA,NA,NA,NA,NA,NA,NA,NA,NA,NA,NA,NA,NA,NA
070e7,check continue,flow.Sequence,3_0_10,NA,NA,skipped,NA,935753,NA,NA,935570,935753,2023-09-18T15:43:28Z,936253.14,NULL,NA,NA,NA,NA,NA,NA,NA,df,NA,10,NA,NA,NA,NA,NA,NA,NA,NA,NA,NA,NA,NA,NA,NA,NA,NA,NA,NA,NA
070e7,check continue,flow.Sequence,3_0_11,NA,NA,skipped,NA,935779,NA,NA,935570,935779,2023-09-18T15:43:28Z,936253.14,NULL,NA,NA,NA,NA,NA,NA,NA,dfs,NA,11,NA,NA,NA,NA,NA,NA,NA,NA,NA,NA,NA,NA,NA,NA,NA,NA,NA,NA,NA
070e7,check continue,flow.Sequence,3_0_12,NA,NA,skipped,NA,935805,NA,NA,935570,935805,2023-09-18T15:43:28Z,936253.14,NULL,NA,NA,NA,NA,NA,NA,NA,dsf,NA,12,NA,NA,NA,NA,NA,NA,NA,NA,NA,NA,NA,NA,NA,NA,NA,NA,NA,NA,NA
070e7,check continue,flow.Sequence,3_0_13,NA,NA,skipped,NA,935833,NA,NA,935570,935833,2023-09-18T15:43:28Z,936253.14,NULL,NA,NA,NA,NA,NA,NA,NA,dsf,NA,13,NA,NA,NA,NA,NA,NA,NA,NA,NA,NA,NA,NA,NA,NA,NA,NA,NA,NA,NA
070e7,check continue,flow.Sequence,3_0_14,NA,NA,skipped,NA,935867,NA,NA,935570,935867,2023-09-18T15:43:28Z,936253.14,NULL,NA,NA,NA,NA,NA,NA,NA,NA,NA,14,NA,NA,NA,NA,NA,NA,NA,NA,NA,NA,NA,NA,NA,NA,NA,NA,NA,NA,NA
070e7,check continue,flow.Sequence,3_0_15,NA,NA,skipped,NA,935892,NA,NA,935570,935892,2023-09-18T15:43:28Z,936253.14,NULL,NA,NA,NA,NA,NA,NA,NA,NA,NA,15,NA,NA,NA,NA,NA,NA,NA,NA,NA,NA,NA,NA,NA,NA,NA,NA,NA,NA,NA
070e7,check continue,flow.Sequence,3_0_16,NA,NA,skipped,NA,935920,NA,NA,935570,935920,2023-09-18T15:43:28Z,936253.14,NULL,NA,NA,NA,NA,NA,NA,NA,NA,NA,16,NA,NA,NA,NA,NA,NA,NA,NA,NA,NA,NA,NA,NA,NA,NA,NA,NA,NA,NA
070e7,check continue,flow.Sequence,3_0_17,NA,NA,skipped,NA,935947,NA,NA,935570,935947,2023-09-18T15:43:28Z,936253.14,NULL,NA,NA,NA,NA,NA,NA,NA,NA,NA,17,NA,NA,NA,NA,NA,NA,NA,NA,NA,NA,NA,NA,NA,NA,NA,NA,NA,NA,NA
070e7,check continue,flow.Sequence,3_0_18,NA,NA,skipped,NA,935971,NA,NA,935570,935972,2023-09-18T15:43:28Z,936253.14,NULL,NA,NA,NA,NA,NA,NA,NA,NA,NA,18,NA,NA,NA,NA,NA,NA,NA,NA,NA,NA,NA,NA,NA,NA,NA,NA,NA,NA,NA
070e7,check continue,flow.Sequence,3_0_19,NA,NA,skipped,NA,935999,NA,NA,935570,935999,2023-09-18T15:43:28Z,936253.14,NULL,NA,NA,NA,NA,NA,NA,NA,NA,NA,19,NA,NA,NA,NA,NA,NA,NA,NA,NA,NA,NA,NA,NA,NA,NA,NA,NA,NA,NA
070e7,check continue,flow.Sequence,3_0_20,NA,NA,skipped,NA,936022,NA,NA,935570,936022,2023-09-18T15:43:28Z,936253.14,NULL,NA,NA,NA,NA,NA,NA,NA,NA,NA,20,NA,NA,NA,NA,NA,NA,NA,NA,NA,NA,NA,NA,NA,NA,NA,NA,NA,NA,NA
070e7,check continue,flow.Sequence,3_0_21,NA,NA,skipped,NA,936051,NA,NA,935570,936051,2023-09-18T15:43:28Z,936253.14,NULL,NA,NA,NA,NA,NA,NA,NA,NA,NA,21,NA,NA,NA,NA,NA,NA,NA,NA,NA,NA,NA,NA,NA,NA,NA,NA,NA,NA,NA
070e7,check continue,flow.Sequence,3_0_22,NA,NA,skipped,NA,936076,NA,NA,935570,936076,2023-09-18T15:43:28Z,936253.14,NULL,NA,NA,NA,NA,NA,NA,NA,NA,NA,22,NA,NA,NA,NA,NA,NA,NA,NA,NA,NA,NA,NA,NA,NA,NA,NA,NA,NA,NA
070e7,check continue,flow.Sequence,3_0_23,NA,NA,skipped,NA,936101,NA,NA,935570,936101,2023-09-18T15:43:28Z,936253.14,NULL,NA,NA,NA,NA,NA,NA,NA,NA,NA,23,NA,NA,NA,NA,NA,NA,NA,NA,NA,NA,NA,NA,NA,NA,NA,NA,NA,NA,NA
070e7,check continue,flow.Sequence,3_0_24,NA,NA,skipped,NA,936127,NA,NA,935570,936127,2023-09-18T15:43:28Z,936253.14,NULL,NA,NA,NA,NA,NA,NA,NA,NA,NA,24,NA,NA,NA,NA,NA,NA,NA,NA,NA,NA,NA,NA,NA,NA,NA,NA,NA,NA,NA
070e7,check continue,flow.Sequence,3_0_25,NA,NA,skipped,NA,936151,NA,NA,935570,936151,2023-09-18T15:43:28Z,936253.14,NULL,NA,NA,NA,NA,NA,NA,NA,NA,NA,25,NA,NA,NA,NA,NA,NA,NA,NA,NA,NA,NA,NA,NA,NA,NA,NA,NA,NA,NA
070e7,check continue,flow.Sequence,3_0_26,NA,NA,skipped,NA,936179,NA,NA,935570,936179,2023-09-18T15:43:28Z,936253.14,NULL,NA,NA,NA,NA,NA,NA,NA,NA,NA,26,NA,NA,NA,NA,NA,NA,NA,NA,NA,NA,NA,NA,NA,NA,NA,NA,NA,NA,NA
070e7,check continue,flow.Sequence,3_0_27,NA,NA,skipped,NA,936202,NA,NA,935570,936202,2023-09-18T15:43:28Z,936253.14,NULL,NA,NA,NA,NA,NA,NA,NA,NA,NA,27,NA,NA,NA,NA,NA,NA,NA,NA,NA,NA,NA,NA,NA,NA,NA,NA,NA,NA,NA
070e7,check continue,flow.Sequence,3_0_28,NA,NA,skipped,NA,936225,NA,NA,935570,936225,2023-09-18T15:43:28Z,936253.14,NULL,NA,NA,NA,NA,NA,NA,NA,NA,NA,28,NA,NA,NA,NA,NA,NA,NA,NA,NA,NA,NA,NA,NA,NA,NA,NA,NA,NA,NA
070e7,check continue,flow.Sequence,3_0_29,NA,NA,skipped,NA,936252,NA,NA,935570,936252,2023-09-18T15:43:28Z,936253.14,NULL,NA,NA,NA,NA,NA,NA,NA,NA,NA,29,NA,NA,NA,NA,NA,NA,NA,NA,NA,NA,NA,NA,NA,NA,NA,NA,NA,NA,NA
070e7,until continue,flow.Loop,3_0,NA,NA,completion,738395.26,197141,197174.38,197174.74,935570,936252,2023-09-18T15:43:28Z,936253.14,NULL,NA,NA,NA,NA,NA,NA,NA,NA,NA,NA,NA,NA,NA,NA,NA,NA,NA,NA,NA,NA,NA,NA,NA,NA,NA,NA,NA,NA,NA
070e7,block 1,flow.Sequence,3,NA,NA,completion,738395.26,197141,197174.38,197174.74,935570,936253,2023-09-18T15:43:28Z,936253.14,NULL,NA,NA,NA,NA,NA,NA,NA,NA,NA,NA,NA,NA,NA,NA,NA,NA,NA,NA,NA,NA,NA,NA,NA,NA,NA,NA,NA,NA,NA
070e7,1.Part Over,canvas.Screen,4,NA,keypress(Space),response,2848.86,936253,936252.84,936253.14,939102,939120,2023-09-18T15:43:31Z,939200.28,NULL,NA,NA,NA,NA,NA,NA,NA,NA,NA,NA,NA,NA,NA,NA,NA,NA,NA,NA,NA,NA,NA,NA,NA,NA,NA,NA,NA,NA,NA
070e7,Deep Question,html.Page,5_0_0_0_0_0_0,NA,NA,form submission,9238.72,939200,939199.96,939200.28,948439,948440,2023-09-18T15:43:40Z,948448.78,NULL,Hoffnung,matarajio,d,NA,NA,NA,hip,NA,NA,0,NA,NA,NA,NA,NA,NA,NA,NA,NA,NA,NA,NA,NA,NA,NA,NA,NA,NA,NA
070e7,"""Richtig""-Screen",canvas.Screen,5_0_0_0_0_0_1,NA,NA,skipped,NA,948444,NA,NA,948439,948444,2023-09-18T15:43:40Z,948448.78,NULL,Hoffnung,matarajio,d,NA,NA,NA,NA,sdf,NA,0,NA,NA,NA,NA,NA,NA,NA,NA,NA,NA,NA,NA,NA,NA,NA,NA,NA,NA,NA
070e7,"""Falsch""-Screen",canvas.Screen,5_0_0_0_0_0_2,NA,NA,timeout,4999.9,948448,948434.5,948448.78,953428.68,953430,2023-09-18T15:43:45Z,953448.68,NULL,Hoffnung,matarajio,d,NA,NA,NA,NA,sdf,0,0,NA,NA,NA,NA,NA,NA,NA,NA,NA,NA,NA,NA,NA,NA,NA,NA,NA,NA,NA
070e7,deep,flow.Sequence,5_0_0_0_0_0,NA,NA,completion,14228.4,939200,939199.96,939200.28,953428.68,953431,2023-09-18T15:43:45Z,953448.68,NULL,Hoffnung,matarajio,d,NA,NA,NA,NA,sdf,NA,0,NA,NA,NA,NA,NA,NA,NA,NA,NA,NA,NA,NA,NA,NA,NA,NA,NA,NA,NA
070e7,shallow,flow.Sequence,5_0_0_0_0_1,NA,NA,skipped,NA,953431,NA,NA,953428.68,953431,2023-09-18T15:43:45Z,953448.68,NULL,Hoffnung,matarajio,d,NA,NA,NA,NA,sdf,NA,0,NA,NA,NA,NA,NA,NA,NA,NA,NA,NA,NA,NA,NA,NA,NA,NA,NA,NA,NA
070e7,task,flow.Sequence,5_0_0_0_0,NA,NA,completion,14228.4,939200,939199.96,939200.28,953428.68,953432,2023-09-18T15:43:45Z,953448.68,NULL,Hoffnung,matarajio,d,NA,NA,NA,NA,sdf,NA,0,NA,NA,NA,NA,NA,NA,NA,NA,NA,NA,NA,NA,NA,NA,NA,NA,NA,NA,NA
070e7,deep,flow.Sequence,5_0_0_0_1_0,NA,NA,skipped,NA,953432,NA,NA,953428.68,953432,2023-09-18T15:43:45Z,953448.68,NULL,Atmosphäre,angahewa,s,kuteseka,usahihi,kutoamini,NA,sdf,NA,0,NA,NA,NA,NA,NA,NA,NA,NA,NA,NA,NA,NA,NA,NA,NA,NA,NA,NA,NA
070e7,Shallow Question,html.Page,5_0_0_0_1_1_0,NA,NA,form submission,12129.32,953433,953428.68,953448.68,965578,965579,2023-09-18T15:43:57Z,965573.82,NULL,Atmosphäre,angahewa,s,kuteseka,usahihi,kutoamini,kutoamini,NA,NA,0,NA,NA,NA,NA,NA,NA,NA,NA,NA,NA,NA,NA,NA,NA,NA,NA,NA,NA,NA
070e7,"""Richtig""-Screen",canvas.Screen,5_0_0_0_1_1_1,NA,NA,skipped,NA,965583,NA,NA,965578,965584,2023-09-18T15:43:57Z,965573.82,NULL,Atmosphäre,angahewa,s,kuteseka,usahihi,kutoamini,NA,sdf,NA,0,NA,NA,NA,NA,NA,NA,NA,NA,NA,NA,NA,NA,NA,NA,NA,NA,NA,NA,NA
070e7,"""Falsch""-Screen",canvas.Screen,5_0_0_0_1_1_2,NA,NA,timeout,4999.9400000001,965588,965573.08,965573.82,970553,970557,2023-09-18T15:44:02Z,970573.76,NULL,Atmosphäre,angahewa,s,kuteseka,usahihi,kutoamini,NA,sdf,0,0,NA,NA,NA,NA,NA,NA,NA,NA,NA,NA,NA,NA,NA,NA,NA,NA,NA,NA,NA
070e7,shallow,flow.Sequence,5_0_0_0_1_1,NA,NA,completion,17104.32,953432,953428.68,953448.68,970553,970559,2023-09-18T15:44:02Z,970573.76,NULL,Atmosphäre,angahewa,s,kuteseka,usahihi,kutoamini,NA,sdf,NA,0,NA,NA,NA,NA,NA,NA,NA,NA,NA,NA,NA,NA,NA,NA,NA,NA,NA,NA,NA
070e7,task,flow.Sequence,5_0_0_0_1,NA,NA,completion,17104.32,953432,953428.68,953448.68,970553,970559,2023-09-18T15:44:02Z,970573.76,NULL,Atmosphäre,angahewa,s,kuteseka,usahihi,kutoamini,NA,sdf,NA,0,NA,NA,NA,NA,NA,NA,NA,NA,NA,NA,NA,NA,NA,NA,NA,NA,NA,NA,NA
070e7,deep,flow.Sequence,5_0_0_0_2_0,NA,NA,skipped,NA,970560,NA,NA,970553,970561,2023-09-18T15:44:02Z,970573.76,NULL,Theorie,nadharia,s,ushungi,mkutano,uwakilishi,NA,sdf,NA,0,NA,NA,NA,NA,NA,NA,NA,NA,NA,NA,NA,NA,NA,NA,NA,NA,NA,NA,NA
070e7,Shallow Question,html.Page,5_0_0_0_2_1_0,NA,NA,form submission,8813.24,970562,970553,970573.76,979387,979390,2023-09-18T15:44:11Z,979407.2,NULL,Theorie,nadharia,s,ushungi,mkutano,uwakilishi,mkutano,NA,NA,0,NA,NA,NA,NA,NA,NA,NA,NA,NA,NA,NA,NA,NA,NA,NA,NA,NA,NA,NA
070e7,"""Richtig""-Screen",canvas.Screen,5_0_0_0_2_1_1,NA,NA,skipped,NA,979405,NA,NA,979387,979405,2023-09-18T15:44:11Z,979407.2,NULL,Theorie,nadharia,s,ushungi,mkutano,uwakilishi,NA,sdf,NA,0,NA,NA,NA,NA,NA,NA,NA,NA,NA,NA,NA,NA,NA,NA,NA,NA,NA,NA,NA
070e7,"""Falsch""-Screen",canvas.Screen,5_0_0_0_2_1_2,NA,NA,timeout,5000.2200000001,979410,979378.28,979407.2,984386.32,984387,2023-09-18T15:44:16Z,984407.42,NULL,Theorie,nadharia,s,ushungi,mkutano,uwakilishi,NA,sdf,0,0,NA,NA,NA,NA,NA,NA,NA,NA,NA,NA,NA,NA,NA,NA,NA,NA,NA,NA,NA
070e7,shallow,flow.Sequence,5_0_0_0_2_1,NA,NA,completion,13812.56,970561,970553,970573.76,984386.32,984387,2023-09-18T15:44:16Z,984407.42,NULL,Theorie,nadharia,s,ushungi,mkutano,uwakilishi,NA,sdf,NA,0,NA,NA,NA,NA,NA,NA,NA,NA,NA,NA,NA,NA,NA,NA,NA,NA,NA,NA,NA
070e7,task,flow.Sequence,5_0_0_0_2,NA,NA,completion,13812.56,970560,970553,970573.76,984386.32,984388,2023-09-18T15:44:16Z,984407.42,NULL,Theorie,nadharia,s,ushungi,mkutano,uwakilishi,NA,sdf,NA,0,NA,NA,NA,NA,NA,NA,NA,NA,NA,NA,NA,NA,NA,NA,NA,NA,NA,NA,NA
070e7,Deep Question,html.Page,5_0_0_0_3_0_0,NA,NA,form submission,8778.58,984389,984386.32,984407.42,993186,993187,2023-09-18T15:44:25Z,993198.88,NULL,Verpackung,ufungaji,d,NA,NA,NA,pioko,NA,NA,0,NA,NA,NA,NA,NA,NA,NA,NA,NA,NA,NA,NA,NA,NA,NA,NA,NA,NA,NA
070e7,"""Richtig""-Screen",canvas.Screen,5_0_0_0_3_0_1,NA,NA,skipped,NA,993193,NA,NA,993186,993194,2023-09-18T15:44:25Z,993198.88,NULL,Verpackung,ufungaji,d,NA,NA,NA,NA,sdf,NA,0,NA,NA,NA,NA,NA,NA,NA,NA,NA,NA,NA,NA,NA,NA,NA,NA,NA,NA,NA
070e7,"""Falsch""-Screen",canvas.Screen,5_0_0_0_3_0_2,NA,NA,timeout,4999.98,993200,993180.64,993198.88,998178.16,998179,2023-09-18T15:44:30Z,998198.86,NULL,Verpackung,ufungaji,d,NA,NA,NA,NA,sdf,0,0,NA,NA,NA,NA,NA,NA,NA,NA,NA,NA,NA,NA,NA,NA,NA,NA,NA,NA,NA
070e7,deep,flow.Sequence,5_0_0_0_3_0,NA,NA,completion,13770.74,984389,984386.32,984407.42,998178.16,998180,2023-09-18T15:44:30Z,998198.86,NULL,Verpackung,ufungaji,d,NA,NA,NA,NA,sdf,NA,0,NA,NA,NA,NA,NA,NA,NA,NA,NA,NA,NA,NA,NA,NA,NA,NA,NA,NA,NA
070e7,shallow,flow.Sequence,5_0_0_0_3_1,NA,NA,skipped,NA,998180,NA,NA,998178.16,998181,2023-09-18T15:44:30Z,998198.86,NULL,Verpackung,ufungaji,d,NA,NA,NA,NA,sdf,NA,0,NA,NA,NA,NA,NA,NA,NA,NA,NA,NA,NA,NA,NA,NA,NA,NA,NA,NA,NA
