observation,sender,sender_type,sender_id,response,response_action,ended_on,duration,time_run,time_render,time_show,time_end,time_commit,timestamp,time_switch,german,swahili,enc,distractor1,distractor2,distractor3,response_2,x,correct,distractors,url_vp,url_sess,meta_labjs_version,meta_location,meta_user_agent,meta_platform,meta_language,meta_locale,meta_time_zone,meta_timezone_offset,meta_screen_width,meta_screen_height,meta_scroll_width,meta_scroll_height,meta_window_inner_width,meta_window_inner_height,meta_device_pixel_ratio,meta_labjs_build_flavor,meta_labjs_build_commit
dd76d,Introduction delayed retrieval,canvas.Screen,0,weiter,keypress(Space),response,28888.644999994,1168.2000000179,1178.332,1194.955,30083.599999994,30085.800000012,2023-10-22T09:13:35Z,30105.329,NA,NA,NA,NA,NA,NA,NA,NA,NA,NULL,184,4,20.2.4,https://neurocog.fernuni.ch/studies/vweber/sliechti/delayed/index.html?vp=184&sess=4,"Mozilla/5.0 (Windows NT 10.0; Win64; x64) AppleWebKit/537.36 (KHTML, like Gecko) Chrome/118.0.0.0 Safari/537.36",Win32,de-DE,de,Europe/Zurich,-120,1920,1080,1920,929,1920,977,1,production,f5b4a49f956347addd546a832a3327688c2c0fef
dd76d,Deep Question,html.Page,1_0_0_0,NA,NA,form submission,9932.071000006,30086.599999994,30083.758,30105.329,40037.400000006,40037.700000018,2023-10-22T09:13:45Z,40058.344,Abrechnung,uhasibu,s,kusahihisha,mpambano,mashambulizi,uhasibu,NA,NA,NULL,NA,NA,NA,NA,NA,NA,NA,NA,NA,NA,NA,NA,NA,NA,NA,NA,NA,NA,NA
dd76d,Save data screen,canvas.Screen,1_0_0_1,NA,NA,timeout,506.21,40039.200000018,40025.278,40058.344,40547.784,40549.300000012,2023-10-22T09:13:46Z,40564.554,Abrechnung,uhasibu,s,kusahihisha,mpambano,mashambulizi,NA,NA,1,NULL,NA,NA,NA,NA,NA,NA,NA,NA,NA,NA,NA,NA,NA,NA,NA,NA,NA,NA,NA
dd76d,deep,flow.Sequence,1_0_0,NA,NA,completion,10442.455,30086.5,30083.758,30105.329,40547.784,40550,2023-10-22T09:13:46Z,40564.554,Abrechnung,uhasibu,s,kusahihisha,mpambano,mashambulizi,NA,NA,NA,NULL,NA,NA,NA,NA,NA,NA,NA,NA,NA,NA,NA,NA,NA,NA,NA,NA,NA,NA,NA
dd76d,task,flow.Sequence,1_0,NA,NA,completion,10442.455,30086.400000006,30083.758,30105.329,40547.784,40550.400000006,2023-10-22T09:13:46Z,40564.554,Abrechnung,uhasibu,s,kusahihisha,mpambano,mashambulizi,NA,NA,NA,NULL,NA,NA,NA,NA,NA,NA,NA,NA,NA,NA,NA,NA,NA,NA,NA,NA,NA,NA,NA
dd76d,Deep Question,html.Page,1_1_0_0,NA,NA,form submission,9960.1460000179,40550.800000012,40547.784,40564.554,50524.700000018,50525,2023-10-22T09:13:56Z,50562.647,Übersicht,kilindo,s,mgusano,chipukizi,kulinganisha,kilindo,NA,NA,NULL,NA,NA,NA,NA,NA,NA,NA,NA,NA,NA,NA,NA,NA,NA,NA,NA,NA,NA,NA
dd76d,Save data screen,canvas.Screen,1_1_0_1,NA,NA,timeout,497.899,50526.400000006,50545.98,50562.647,51043.739,51044.800000012,2023-10-22T09:13:56Z,51060.546,Übersicht,kilindo,s,mgusano,chipukizi,kulinganisha,NA,NA,1,NULL,NA,NA,NA,NA,NA,NA,NA,NA,NA,NA,NA,NA,NA,NA,NA,NA,NA,NA,NA
dd76d,deep,flow.Sequence,1_1_0,NA,NA,completion,10479.185,40550.700000018,40547.784,40564.554,51043.739,51045.300000012,2023-10-22T09:13:56Z,51060.546,Übersicht,kilindo,s,mgusano,chipukizi,kulinganisha,NA,NA,NA,NULL,NA,NA,NA,NA,NA,NA,NA,NA,NA,NA,NA,NA,NA,NA,NA,NA,NA,NA,NA
dd76d,task,flow.Sequence,1_1,NA,NA,completion,10479.185,40550.599999994,40547.784,40564.554,51043.739,51045.599999994,2023-10-22T09:13:56Z,51060.546,Übersicht,kilindo,s,mgusano,chipukizi,kulinganisha,NA,NA,NA,NULL,NA,NA,NA,NA,NA,NA,NA,NA,NA,NA,NA,NA,NA,NA,NA,NA,NA,NA,NA
dd76d,Deep Question,html.Page,1_2_0_0,NA,NA,form submission,22895.854000006,51046,51043.739,51060.546,73956.400000006,73956.800000012,2023-10-22T09:14:19Z,73977.921,Können,unaweza,d,kiongozi,bustani,mienendo,unaweza,NA,NA,NULL,NA,NA,NA,NA,NA,NA,NA,NA,NA,NA,NA,NA,NA,NA,NA,NA,NA,NA,NA
dd76d,Save data screen,canvas.Screen,1_2_0_1,NA,NA,timeout,506.41499999999,73959.700000018,73953.357,73977.921,74467.783,74469,2023-10-22T09:14:20Z,74484.336,Können,unaweza,d,kiongozi,bustani,mienendo,NA,NA,1,NULL,NA,NA,NA,NA,NA,NA,NA,NA,NA,NA,NA,NA,NA,NA,NA,NA,NA,NA,NA
dd76d,deep,flow.Sequence,1_2_0,NA,NA,completion,23407.237,51046,51043.739,51060.546,74467.783,74469.5,2023-10-22T09:14:20Z,74484.336,Können,unaweza,d,kiongozi,bustani,mienendo,NA,NA,NA,NULL,NA,NA,NA,NA,NA,NA,NA,NA,NA,NA,NA,NA,NA,NA,NA,NA,NA,NA,NA
dd76d,task,flow.Sequence,1_2,NA,NA,completion,23407.237,51045.900000006,51043.739,51060.546,74467.783,74469.800000012,2023-10-22T09:14:20Z,74484.336,Können,unaweza,d,kiongozi,bustani,mienendo,NA,NA,NA,NULL,NA,NA,NA,NA,NA,NA,NA,NA,NA,NA,NA,NA,NA,NA,NA,NA,NA,NA,NA
dd76d,Deep Question,html.Page,1_3_0_0,NA,NA,form submission,25512.664,74470,74467.783,74484.336,99997,99997.200000018,2023-10-22T09:14:45Z,100014.265,Prüfung,mtihani,d,mkulima,mtizamo,ufumbuzi,nope,NA,NA,NULL,NA,NA,NA,NA,NA,NA,NA,NA,NA,NA,NA,NA,NA,NA,NA,NA,NA,NA,NA
dd76d,Save data screen,canvas.Screen,1_3_0_1,NA,NA,timeout,506.223,100000.20000002,99993.59,100014.265,100503.883,100505,2023-10-22T09:14:46Z,100520.488,Prüfung,mtihani,d,mkulima,mtizamo,ufumbuzi,NA,NA,0,NULL,NA,NA,NA,NA,NA,NA,NA,NA,NA,NA,NA,NA,NA,NA,NA,NA,NA,NA,NA
dd76d,deep,flow.Sequence,1_3_0,NA,NA,completion,26019.547,74470,74467.783,74484.336,100503.883,100505.30000001,2023-10-22T09:14:46Z,100520.488,Prüfung,mtihani,d,mkulima,mtizamo,ufumbuzi,NA,NA,NA,NULL,NA,NA,NA,NA,NA,NA,NA,NA,NA,NA,NA,NA,NA,NA,NA,NA,NA,NA,NA
dd76d,task,flow.Sequence,1_3,NA,NA,completion,26019.547,74469.900000006,74467.783,74484.336,100503.883,100505.59999999,2023-10-22T09:14:46Z,100520.488,Prüfung,mtihani,d,mkulima,mtizamo,ufumbuzi,NA,NA,NA,NULL,NA,NA,NA,NA,NA,NA,NA,NA,NA,NA,NA,NA,NA,NA,NA,NA,NA,NA,NA
dd76d,Deep Question,html.Page,1_4_0_0,NA,NA,form submission,9579.7120000179,100505.80000001,100503.883,100520.488,110100.20000002,110100.5,2023-10-22T09:14:55Z,110117.255,Sänger,mwimbaji,d,msichana,shughuli,mshirika,mwimbaji,NA,NA,NULL,NA,NA,NA,NA,NA,NA,NA,NA,NA,NA,NA,NA,NA,NA,NA,NA,NA,NA,NA
dd76d,Save data screen,canvas.Screen,1_4_0_1,NA,NA,timeout,506.32299999999,110103.5,110092.26,110117.255,110606.781,110607.80000001,2023-10-22T09:14:56Z,110623.578,Sänger,mwimbaji,d,msichana,shughuli,mshirika,NA,NA,1,NULL,NA,NA,NA,NA,NA,NA,NA,NA,NA,NA,NA,NA,NA,NA,NA,NA,NA,NA,NA
dd76d,deep,flow.Sequence,1_4_0,NA,NA,completion,10086.293,100505.80000001,100503.883,100520.488,110606.781,110608.30000001,2023-10-22T09:14:56Z,110623.578,Sänger,mwimbaji,d,msichana,shughuli,mshirika,NA,NA,NA,NULL,NA,NA,NA,NA,NA,NA,NA,NA,NA,NA,NA,NA,NA,NA,NA,NA,NA,NA,NA
dd76d,task,flow.Sequence,1_4,NA,NA,completion,10086.293,100505.70000002,100503.883,100520.488,110606.781,110608.5,2023-10-22T09:14:56Z,110623.578,Sänger,mwimbaji,d,msichana,shughuli,mshirika,NA,NA,NA,NULL,NA,NA,NA,NA,NA,NA,NA,NA,NA,NA,NA,NA,NA,NA,NA,NA,NA,NA,NA
dd76d,Deep Question,html.Page,1_5_0_0,NA,NA,form submission,22948.722000012,110608.80000001,110606.781,110623.578,133572.30000001,133572.59999999,2023-10-22T09:15:19Z,133593.87,Aufstand,ugomaji,d,mazidio,msingi,kujieleza,usulubu,NA,NA,NULL,NA,NA,NA,NA,NA,NA,NA,NA,NA,NA,NA,NA,NA,NA,NA,NA,NA,NA,NA
dd76d,Save data screen,canvas.Screen,1_5_0_1,NA,NA,timeout,506.641,133575.5,133559.44,133593.87,134083.672,134084.80000001,2023-10-22T09:15:19Z,134100.511,Aufstand,ugomaji,d,mazidio,msingi,kujieleza,NA,NA,0,NULL,NA,NA,NA,NA,NA,NA,NA,NA,NA,NA,NA,NA,NA,NA,NA,NA,NA,NA,NA
dd76d,deep,flow.Sequence,1_5_0,NA,NA,completion,23460.094,110608.80000001,110606.781,110623.578,134083.672,134085.09999999,2023-10-22T09:15:19Z,134100.511,Aufstand,ugomaji,d,mazidio,msingi,kujieleza,NA,NA,NA,NULL,NA,NA,NA,NA,NA,NA,NA,NA,NA,NA,NA,NA,NA,NA,NA,NA,NA,NA,NA
dd76d,task,flow.Sequence,1_5,NA,NA,completion,23460.094,110608.80000001,110606.781,110623.578,134083.672,134085.40000001,2023-10-22T09:15:19Z,134100.511,Aufstand,ugomaji,d,mazidio,msingi,kujieleza,NA,NA,NA,NULL,NA,NA,NA,NA,NA,NA,NA,NA,NA,NA,NA,NA,NA,NA,NA,NA,NA,NA,NA
dd76d,Deep Question,html.Page,1_6_0_0,NA,NA,form submission,10991.789000012,134085.59999999,134083.672,134100.511,145092.30000001,145092.5,2023-10-22T09:15:30Z,145113.943,Verzögerung,kuchelewa,s,mwakilishi,mwanauchumi,jaribio,nope,NA,NA,NULL,NA,NA,NA,NA,NA,NA,NA,NA,NA,NA,NA,NA,NA,NA,NA,NA,NA,NA,NA
dd76d,Save data screen,canvas.Screen,1_6_0_1,NA,NA,timeout,506.24400000001,145095.40000001,145075.659,145113.943,145603.643,145604.80000001,2023-10-22T09:15:31Z,145620.187,Verzögerung,kuchelewa,s,mwakilishi,mwanauchumi,jaribio,NA,NA,0,NULL,NA,NA,NA,NA,NA,NA,NA,NA,NA,NA,NA,NA,NA,NA,NA,NA,NA,NA,NA
dd76d,deep,flow.Sequence,1_6_0,NA,NA,completion,11503.132,134085.59999999,134083.672,134100.511,145603.643,145605.20000002,2023-10-22T09:15:31Z,145620.187,Verzögerung,kuchelewa,s,mwakilishi,mwanauchumi,jaribio,NA,NA,NA,NULL,NA,NA,NA,NA,NA,NA,NA,NA,NA,NA,NA,NA,NA,NA,NA,NA,NA,NA,NA
dd76d,task,flow.Sequence,1_6,NA,NA,completion,11503.132,134085.5,134083.672,134100.511,145603.643,145605.40000001,2023-10-22T09:15:31Z,145620.187,Verzögerung,kuchelewa,s,mwakilishi,mwanauchumi,jaribio,NA,NA,NA,NULL,NA,NA,NA,NA,NA,NA,NA,NA,NA,NA,NA,NA,NA,NA,NA,NA,NA,NA,NA
dd76d,Deep Question,html.Page,1_7_0_0,NA,NA,form submission,10799.313,145605.59999999,145603.643,145620.187,156419.5,156419.70000002,2023-10-22T09:15:42Z,156450.896,System,maongozi,d,chokochoko,nuksani,mitaani,maongozi,NA,NA,NULL,NA,NA,NA,NA,NA,NA,NA,NA,NA,NA,NA,NA,NA,NA,NA,NA,NA,NA,NA
dd76d,Save data screen,canvas.Screen,1_7_0_1,NA,NA,timeout,506.32499999998,156421,156434.474,156450.896,156940.747,156941.80000001,2023-10-22T09:15:42Z,156957.221,System,maongozi,d,chokochoko,nuksani,mitaani,NA,NA,1,NULL,NA,NA,NA,NA,NA,NA,NA,NA,NA,NA,NA,NA,NA,NA,NA,NA,NA,NA,NA
dd76d,deep,flow.Sequence,1_7_0,NA,NA,completion,11320.56,145605.59999999,145603.643,145620.187,156940.747,156942.20000002,2023-10-22T09:15:42Z,156957.221,System,maongozi,d,chokochoko,nuksani,mitaani,NA,NA,NA,NULL,NA,NA,NA,NA,NA,NA,NA,NA,NA,NA,NA,NA,NA,NA,NA,NA,NA,NA,NA
dd76d,task,flow.Sequence,1_7,NA,NA,completion,11320.56,145605.59999999,145603.643,145620.187,156940.747,156942.5,2023-10-22T09:15:42Z,156957.221,System,maongozi,d,chokochoko,nuksani,mitaani,NA,NA,NA,NULL,NA,NA,NA,NA,NA,NA,NA,NA,NA,NA,NA,NA,NA,NA,NA,NA,NA,NA,NA
dd76d,Deep Question,html.Page,1_8_0_0,NA,NA,form submission,9374.0790000119,156942.70000002,156940.747,156957.221,166331.30000001,166331.40000001,2023-10-22T09:15:52Z,166353.077,Lawine,banguko,d,maambukizi,usuluhishi,chekechea,banguko,NA,NA,NULL,NA,NA,NA,NA,NA,NA,NA,NA,NA,NA,NA,NA,NA,NA,NA,NA,NA,NA,NA
dd76d,Save data screen,canvas.Screen,1_8_0_1,NA,NA,timeout,506.611,166332.59999999,166330.481,166353.077,166842.91,166844.09999999,2023-10-22T09:15:52Z,166859.688,Lawine,banguko,d,maambukizi,usuluhishi,chekechea,NA,NA,1,NULL,NA,NA,NA,NA,NA,NA,NA,NA,NA,NA,NA,NA,NA,NA,NA,NA,NA,NA,NA
dd76d,deep,flow.Sequence,1_8_0,NA,NA,completion,9885.689,156942.70000002,156940.747,156957.221,166842.91,166844.5,2023-10-22T09:15:52Z,166859.688,Lawine,banguko,d,maambukizi,usuluhishi,chekechea,NA,NA,NA,NULL,NA,NA,NA,NA,NA,NA,NA,NA,NA,NA,NA,NA,NA,NA,NA,NA,NA,NA,NA
dd76d,task,flow.Sequence,1_8,NA,NA,completion,9885.689,156942.70000002,156940.747,156957.221,166842.91,166844.70000002,2023-10-22T09:15:52Z,166859.688,Lawine,banguko,d,maambukizi,usuluhishi,chekechea,NA,NA,NA,NULL,NA,NA,NA,NA,NA,NA,NA,NA,NA,NA,NA,NA,NA,NA,NA,NA,NA,NA,NA
dd76d,Deep Question,html.Page,1_9_0_0,NA,NA,form submission,12072.812,166845,166842.91,166859.688,178932.5,178932.80000001,2023-10-22T09:16:04Z,178949.655,Angreifer,mshambulizi,d,kitengo,tasinia,usafirishaji,mshambulizi,NA,NA,NULL,NA,NA,NA,NA,NA,NA,NA,NA,NA,NA,NA,NA,NA,NA,NA,NA,NA,NA,NA
dd76d,Save data screen,canvas.Screen,1_9_0_1,NA,NA,timeout,506.698,178935.59999999,178929.94,178949.655,179439.737,179440.80000001,2023-10-22T09:16:05Z,179456.353,Angreifer,mshambulizi,d,kitengo,tasinia,usafirishaji,NA,NA,1,NULL,NA,NA,NA,NA,NA,NA,NA,NA,NA,NA,NA,NA,NA,NA,NA,NA,NA,NA,NA
dd76d,deep,flow.Sequence,1_9_0,NA,NA,completion,12580.049,166845,166842.91,166859.688,179439.737,179441.20000002,2023-10-22T09:16:05Z,179456.353,Angreifer,mshambulizi,d,kitengo,tasinia,usafirishaji,NA,NA,NA,NULL,NA,NA,NA,NA,NA,NA,NA,NA,NA,NA,NA,NA,NA,NA,NA,NA,NA,NA,NA
dd76d,task,flow.Sequence,1_9,NA,NA,completion,12580.049,166844.80000001,166842.91,166859.688,179439.737,179441.5,2023-10-22T09:16:05Z,179456.353,Angreifer,mshambulizi,d,kitengo,tasinia,usafirishaji,NA,NA,NA,NULL,NA,NA,NA,NA,NA,NA,NA,NA,NA,NA,NA,NA,NA,NA,NA,NA,NA,NA,NA
dd76d,Deep Question,html.Page,1_10_0_0,NA,NA,form submission,9891.8470000179,179441.80000001,179439.737,179456.353,189348.20000002,189348.5,2023-10-22T09:16:15Z,189353.077,Körper,kiwiliwili,s,mapambano,mpatanishi,kiolezo,kiwiliwili,NA,NA,NULL,NA,NA,NA,NA,NA,NA,NA,NA,NA,NA,NA,NA,NA,NA,NA,NA,NA,NA,NA
dd76d,Save data screen,canvas.Screen,1_10_0_1,NA,NA,timeout,506.68800000002,189351.5,189336.674,189353.077,189843.093,189844.09999999,2023-10-22T09:16:15Z,189859.765,Körper,kiwiliwili,s,mapambano,mpatanishi,kiolezo,NA,NA,1,NULL,NA,NA,NA,NA,NA,NA,NA,NA,NA,NA,NA,NA,NA,NA,NA,NA,NA,NA,NA
dd76d,deep,flow.Sequence,1_10_0,NA,NA,completion,10386.74,179441.80000001,179439.737,179456.353,189843.093,189844.5,2023-10-22T09:16:15Z,189859.765,Körper,kiwiliwili,s,mapambano,mpatanishi,kiolezo,NA,NA,NA,NULL,NA,NA,NA,NA,NA,NA,NA,NA,NA,NA,NA,NA,NA,NA,NA,NA,NA,NA,NA
dd76d,task,flow.Sequence,1_10,NA,NA,completion,10386.74,179441.5,179439.737,179456.353,189843.093,189844.80000001,2023-10-22T09:16:15Z,189859.765,Körper,kiwiliwili,s,mapambano,mpatanishi,kiolezo,NA,NA,NA,NULL,NA,NA,NA,NA,NA,NA,NA,NA,NA,NA,NA,NA,NA,NA,NA,NA,NA,NA,NA
dd76d,Deep Question,html.Page,1_11_0_0,NA,NA,form submission,14744.635000006,189845,189843.093,189859.765,204604.40000001,204604.70000002,2023-10-22T09:16:30Z,204625.905,Kontrolle,kudhibiti,s,mbinguni,kufunga,utegemezi,kudhibiti,NA,NA,NULL,NA,NA,NA,NA,NA,NA,NA,NA,NA,NA,NA,NA,NA,NA,NA,NA,NA,NA,NA
dd76d,Save data screen,canvas.Screen,1_11_0_1,NA,NA,timeout,506.24100000001,204607.5,204599.164,204625.905,205115.454,205116.5,2023-10-22T09:16:30Z,205132.146,Kontrolle,kudhibiti,s,mbinguni,kufunga,utegemezi,NA,NA,1,NULL,NA,NA,NA,NA,NA,NA,NA,NA,NA,NA,NA,NA,NA,NA,NA,NA,NA,NA,NA
dd76d,deep,flow.Sequence,1_11_0,NA,NA,completion,15255.689,189844.90000001,189843.093,189859.765,205115.454,205116.80000001,2023-10-22T09:16:30Z,205132.146,Kontrolle,kudhibiti,s,mbinguni,kufunga,utegemezi,NA,NA,NA,NULL,NA,NA,NA,NA,NA,NA,NA,NA,NA,NA,NA,NA,NA,NA,NA,NA,NA,NA,NA
dd76d,task,flow.Sequence,1_11,NA,NA,completion,15255.689,189844.90000001,189843.093,189859.765,205115.454,205117,2023-10-22T09:16:30Z,205132.146,Kontrolle,kudhibiti,s,mbinguni,kufunga,utegemezi,NA,NA,NA,NULL,NA,NA,NA,NA,NA,NA,NA,NA,NA,NA,NA,NA,NA,NA,NA,NA,NA,NA,NA
dd76d,Deep Question,html.Page,1_12_0_0,NA,NA,form submission,5753.0540000179,205117.40000001,205115.454,205132.146,210885.20000002,210885.30000001,2023-10-22T09:16:36Z,210906.614,Kanzler,diwani,s,rasilmali,mahitaji,maabudu,diwani,NA,NA,NULL,NA,NA,NA,NA,NA,NA,NA,NA,NA,NA,NA,NA,NA,NA,NA,NA,NA,NA,NA
dd76d,Save data screen,canvas.Screen,1_12_0_1,NA,NA,timeout,507.43100000001,210888,210877.433,210906.614,211397.311,211398.30000001,2023-10-22T09:16:37Z,211414.045,Kanzler,diwani,s,rasilmali,mahitaji,maabudu,NA,NA,1,NULL,NA,NA,NA,NA,NA,NA,NA,NA,NA,NA,NA,NA,NA,NA,NA,NA,NA,NA,NA
dd76d,deep,flow.Sequence,1_12_0,NA,NA,completion,6265.165,205117.30000001,205115.454,205132.146,211397.311,211398.70000002,2023-10-22T09:16:37Z,211414.045,Kanzler,diwani,s,rasilmali,mahitaji,maabudu,NA,NA,NA,NULL,NA,NA,NA,NA,NA,NA,NA,NA,NA,NA,NA,NA,NA,NA,NA,NA,NA,NA,NA
dd76d,task,flow.Sequence,1_12,NA,NA,completion,6265.165,205117.30000001,205115.454,205132.146,211397.311,211399,2023-10-22T09:16:37Z,211414.045,Kanzler,diwani,s,rasilmali,mahitaji,maabudu,NA,NA,NA,NULL,NA,NA,NA,NA,NA,NA,NA,NA,NA,NA,NA,NA,NA,NA,NA,NA,NA,NA,NA
dd76d,Deep Question,html.Page,1_13_0_0,NA,NA,form submission,18550.355000006,211399.30000001,211397.311,211414.045,229964.40000001,229964.70000002,2023-10-22T09:16:55Z,229985.903,Kultur,utamaduni,s,shetani,gerezani,mazingira,nope,NA,NA,NULL,NA,NA,NA,NA,NA,NA,NA,NA,NA,NA,NA,NA,NA,NA,NA,NA,NA,NA,NA
dd76d,Save data screen,canvas.Screen,1_13_0_1,NA,NA,timeout,507.71100000001,229967.70000002,229951.386,229985.903,230476.989,230477.5,2023-10-22T09:16:56Z,230493.614,Kultur,utamaduni,s,shetani,gerezani,mazingira,NA,NA,0,NULL,NA,NA,NA,NA,NA,NA,NA,NA,NA,NA,NA,NA,NA,NA,NA,NA,NA,NA,NA
dd76d,deep,flow.Sequence,1_13_0,NA,NA,completion,19062.944,211399.30000001,211397.311,211414.045,230476.989,230477.59999999,2023-10-22T09:16:56Z,230493.614,Kultur,utamaduni,s,shetani,gerezani,mazingira,NA,NA,NA,NULL,NA,NA,NA,NA,NA,NA,NA,NA,NA,NA,NA,NA,NA,NA,NA,NA,NA,NA,NA
dd76d,task,flow.Sequence,1_13,NA,NA,completion,19062.944,211399.09999999,211397.311,211414.045,230476.989,230477.59999999,2023-10-22T09:16:56Z,230493.614,Kultur,utamaduni,s,shetani,gerezani,mazingira,NA,NA,NA,NULL,NA,NA,NA,NA,NA,NA,NA,NA,NA,NA,NA,NA,NA,NA,NA,NA,NA,NA,NA
dd76d,Deep Question,html.Page,1_14_0_0,NA,NA,form submission,6286.5860000179,230477.70000002,230476.989,230493.614,236780.20000002,236780.5,2023-10-22T09:17:02Z,236801.766,Kreativität,ubunifu,d,mratibu,mwendelezo,makubaliano,ubunifu,NA,NA,NULL,NA,NA,NA,NA,NA,NA,NA,NA,NA,NA,NA,NA,NA,NA,NA,NA,NA,NA,NA
dd76d,Save data screen,canvas.Screen,1_14_0_1,NA,NA,timeout,506.916,236783.20000002,236763.508,236801.766,237291.906,237292.80000001,2023-10-22T09:17:02Z,237308.682,Kreativität,ubunifu,d,mratibu,mwendelezo,makubaliano,NA,NA,1,NULL,NA,NA,NA,NA,NA,NA,NA,NA,NA,NA,NA,NA,NA,NA,NA,NA,NA,NA,NA
dd76d,deep,flow.Sequence,1_14_0,NA,NA,completion,6798.292,230477.70000002,230476.989,230493.614,237291.906,237293.20000002,2023-10-22T09:17:02Z,237308.682,Kreativität,ubunifu,d,mratibu,mwendelezo,makubaliano,NA,NA,NA,NULL,NA,NA,NA,NA,NA,NA,NA,NA,NA,NA,NA,NA,NA,NA,NA,NA,NA,NA,NA
dd76d,task,flow.Sequence,1_14,NA,NA,completion,6798.292,230477.70000002,230476.989,230493.614,237291.906,237293.5,2023-10-22T09:17:02Z,237308.682,Kreativität,ubunifu,d,mratibu,mwendelezo,makubaliano,NA,NA,NA,NULL,NA,NA,NA,NA,NA,NA,NA,NA,NA,NA,NA,NA,NA,NA,NA,NA,NA,NA,NA
dd76d,Deep Question,html.Page,1_15_0_0,NA,NA,form submission,7471.5180000179,237293.70000002,237291.906,237308.682,244780.20000002,244780.5,2023-10-22T09:17:10Z,244797.049,Gefährdung,kuhatarisha,s,uchokozi,udhaifu,makorowezo,kuhatarisha,NA,NA,NULL,NA,NA,NA,NA,NA,NA,NA,NA,NA,NA,NA,NA,NA,NA,NA,NA,NA,NA,NA
dd76d,Save data screen,canvas.Screen,1_15_0_1,NA,NA,timeout,506.09700000001,244783.30000001,244767.616,244797.049,245286.476,245287.20000002,2023-10-22T09:17:10Z,245303.146,Gefährdung,kuhatarisha,s,uchokozi,udhaifu,makorowezo,NA,NA,1,NULL,NA,NA,NA,NA,NA,NA,NA,NA,NA,NA,NA,NA,NA,NA,NA,NA,NA,NA,NA
dd76d,deep,flow.Sequence,1_15_0,NA,NA,completion,7977.794,237293.59999999,237291.906,237308.682,245286.476,245287.5,2023-10-22T09:17:10Z,245303.146,Gefährdung,kuhatarisha,s,uchokozi,udhaifu,makorowezo,NA,NA,NA,NULL,NA,NA,NA,NA,NA,NA,NA,NA,NA,NA,NA,NA,NA,NA,NA,NA,NA,NA,NA
dd76d,task,flow.Sequence,1_15,NA,NA,completion,7977.794,237293.5,237291.906,237308.682,245286.476,245287.70000002,2023-10-22T09:17:10Z,245303.146,Gefährdung,kuhatarisha,s,uchokozi,udhaifu,makorowezo,NA,NA,NA,NULL,NA,NA,NA,NA,NA,NA,NA,NA,NA,NA,NA,NA,NA,NA,NA,NA,NA,NA,NA
dd76d,retrieval block 1 (cued recall),flow.Loop,1,NA,NA,completion,215181.147,30086.400000006,30083.758,30105.329,245286.476,245288,2023-10-22T09:17:10Z,245303.146,NA,NA,NA,NA,NA,NA,NA,NA,NA,NULL,NA,NA,NA,NA,NA,NA,NA,NA,NA,NA,NA,NA,NA,NA,NA,NA,NA,NA,NA
dd76d,Shallow Question,html.Page,2_0_0_0,NA,NA,form submission,15877.854,245288.30000001,245286.476,245303.146,261181,261181.40000001,2023-10-22T09:17:26Z,261202.249,Prüfung,mtihani,d,mkulima,mtizamo,ufumbuzi,ufumbuzi,NA,NA,"c(""distractor1"", ""distractor2"", ""distractor3"")",NA,NA,NA,NA,NA,NA,NA,NA,NA,NA,NA,NA,NA,NA,NA,NA,NA,NA,NA
dd76d,Save data screen,canvas.Screen,2_0_0_1,NA,NA,timeout,506.37,261184.40000001,261173.48,261202.249,261691.836,261692.90000001,2023-10-22T09:17:27Z,261708.619,Prüfung,mtihani,d,mkulima,mtizamo,ufumbuzi,NA,NA,0,"c(""distractor1"", ""distractor2"", ""distractor3"")",NA,NA,NA,NA,NA,NA,NA,NA,NA,NA,NA,NA,NA,NA,NA,NA,NA,NA,NA
dd76d,shallow,flow.Sequence,2_0_0,NA,NA,completion,16388.69,245288.30000001,245286.476,245303.146,261691.836,261693.30000001,2023-10-22T09:17:27Z,261708.619,Prüfung,mtihani,d,mkulima,mtizamo,ufumbuzi,NA,NA,NA,"c(""distractor1"", ""distractor2"", ""distractor3"")",NA,NA,NA,NA,NA,NA,NA,NA,NA,NA,NA,NA,NA,NA,NA,NA,NA,NA,NA
dd76d,task,flow.Sequence,2_0,NA,NA,completion,16388.69,245288.20000002,245286.476,245303.146,261691.836,261693.59999999,2023-10-22T09:17:27Z,261708.619,Prüfung,mtihani,d,mkulima,mtizamo,ufumbuzi,NA,NA,NA,"c(""distractor1"", ""distractor2"", ""distractor3"")",NA,NA,NA,NA,NA,NA,NA,NA,NA,NA,NA,NA,NA,NA,NA,NA,NA,NA,NA
dd76d,Shallow Question,html.Page,2_1_0_0,NA,NA,form submission,4296.0810000179,261693.90000001,261691.836,261708.619,266004.70000002,266004.90000001,2023-10-22T09:17:31Z,266020.929,Gefährdung,kuhatarisha,s,uchokozi,udhaifu,makorowezo,kuhatarisha,NA,NA,"c(""distractor1"", ""distractor2"", ""distractor3"")",NA,NA,NA,NA,NA,NA,NA,NA,NA,NA,NA,NA,NA,NA,NA,NA,NA,NA,NA
dd76d,Save data screen,canvas.Screen,2_1_0_1,NA,NA,timeout,504.74099999998,266007.5,265999.221,266020.929,266509.039,266510,2023-10-22T09:17:32Z,266525.67,Gefährdung,kuhatarisha,s,uchokozi,udhaifu,makorowezo,NA,NA,1,"c(""distractor1"", ""distractor2"", ""distractor3"")",NA,NA,NA,NA,NA,NA,NA,NA,NA,NA,NA,NA,NA,NA,NA,NA,NA,NA,NA
dd76d,shallow,flow.Sequence,2_1_0,NA,NA,completion,4800.42,261693.80000001,261691.836,261708.619,266509.039,266510.40000001,2023-10-22T09:17:32Z,266525.67,Gefährdung,kuhatarisha,s,uchokozi,udhaifu,makorowezo,NA,NA,NA,"c(""distractor1"", ""distractor2"", ""distractor3"")",NA,NA,NA,NA,NA,NA,NA,NA,NA,NA,NA,NA,NA,NA,NA,NA,NA,NA,NA
dd76d,task,flow.Sequence,2_1,NA,NA,completion,4800.42,261693.80000001,261691.836,261708.619,266509.039,266510.70000002,2023-10-22T09:17:32Z,266525.67,Gefährdung,kuhatarisha,s,uchokozi,udhaifu,makorowezo,NA,NA,NA,"c(""distractor1"", ""distractor2"", ""distractor3"")",NA,NA,NA,NA,NA,NA,NA,NA,NA,NA,NA,NA,NA,NA,NA,NA,NA,NA,NA
dd76d,Shallow Question,html.Page,2_2_0_0,NA,NA,form submission,4494.83,266510.90000001,266509.039,266525.67,271020.5,271020.80000001,2023-10-22T09:17:36Z,271041.653,Körper,kiwiliwili,s,mapambano,mpatanishi,kiolezo,kiwiliwili,NA,NA,"c(""distractor1"", ""distractor2"", ""distractor3"")",NA,NA,NA,NA,NA,NA,NA,NA,NA,NA,NA,NA,NA,NA,NA,NA,NA,NA,NA
dd76d,Save data screen,canvas.Screen,2_2_0_1,NA,NA,timeout,506.34399999998,271023.40000001,271016.47,271041.653,271531.484,271532.40000001,2023-10-22T09:17:37Z,271547.997,Körper,kiwiliwili,s,mapambano,mpatanishi,kiolezo,NA,NA,1,"c(""distractor1"", ""distractor2"", ""distractor3"")",NA,NA,NA,NA,NA,NA,NA,NA,NA,NA,NA,NA,NA,NA,NA,NA,NA,NA,NA
dd76d,shallow,flow.Sequence,2_2_0,NA,NA,completion,5005.814,266510.90000001,266509.039,266525.67,271531.484,271532.80000001,2023-10-22T09:17:37Z,271547.997,Körper,kiwiliwili,s,mapambano,mpatanishi,kiolezo,NA,NA,NA,"c(""distractor1"", ""distractor2"", ""distractor3"")",NA,NA,NA,NA,NA,NA,NA,NA,NA,NA,NA,NA,NA,NA,NA,NA,NA,NA,NA
dd76d,task,flow.Sequence,2_2,NA,NA,completion,5005.814,266510.80000001,266509.039,266525.67,271531.484,271533,2023-10-22T09:17:37Z,271547.997,Körper,kiwiliwili,s,mapambano,mpatanishi,kiolezo,NA,NA,NA,"c(""distractor1"", ""distractor2"", ""distractor3"")",NA,NA,NA,NA,NA,NA,NA,NA,NA,NA,NA,NA,NA,NA,NA,NA,NA,NA,NA
dd76d,Shallow Question,html.Page,2_3_0_0,NA,NA,form submission,12680.602999994,271533.30000001,271531.484,271547.997,284228.59999999,284228.90000001,2023-10-22T09:17:49Z,284244.762,Aufstand,ugomaji,d,mazidio,msingi,kujieleza,ugomaji,NA,NA,"c(""distractor1"", ""distractor2"", ""distractor3"")",NA,NA,NA,NA,NA,NA,NA,NA,NA,NA,NA,NA,NA,NA,NA,NA,NA,NA,NA
dd76d,Save data screen,canvas.Screen,2_3_0_1,NA,NA,timeout,507.08299999998,284231.80000001,284222.125,284244.762,284735.037,284736.09999999,2023-10-22T09:17:50Z,284751.845,Aufstand,ugomaji,d,mazidio,msingi,kujieleza,NA,NA,1,"c(""distractor1"", ""distractor2"", ""distractor3"")",NA,NA,NA,NA,NA,NA,NA,NA,NA,NA,NA,NA,NA,NA,NA,NA,NA,NA,NA
dd76d,shallow,flow.Sequence,2_3_0,NA,NA,completion,13187.04,271533.30000001,271531.484,271547.997,284735.037,284736.5,2023-10-22T09:17:50Z,284751.845,Aufstand,ugomaji,d,mazidio,msingi,kujieleza,NA,NA,NA,"c(""distractor1"", ""distractor2"", ""distractor3"")",NA,NA,NA,NA,NA,NA,NA,NA,NA,NA,NA,NA,NA,NA,NA,NA,NA,NA,NA
dd76d,task,flow.Sequence,2_3,NA,NA,completion,13187.04,271533.30000001,271531.484,271547.997,284735.037,284736.80000001,2023-10-22T09:17:50Z,284751.845,Aufstand,ugomaji,d,mazidio,msingi,kujieleza,NA,NA,NA,"c(""distractor1"", ""distractor2"", ""distractor3"")",NA,NA,NA,NA,NA,NA,NA,NA,NA,NA,NA,NA,NA,NA,NA,NA,NA,NA,NA
dd76d,Shallow Question,html.Page,2_4_0_0,NA,NA,form submission,13964.254999994,284737,284735.037,284751.845,298716.09999999,298716.30000001,2023-10-22T09:18:04Z,298737.525,Übersicht,kilindo,s,mgusano,chipukizi,kulinganisha,kilindo,NA,NA,"c(""distractor1"", ""distractor2"", ""distractor3"")",NA,NA,NA,NA,NA,NA,NA,NA,NA,NA,NA,NA,NA,NA,NA,NA,NA,NA,NA
dd76d,Save data screen,canvas.Screen,2_4_0_1,NA,NA,timeout,507.44399999996,298718.40000001,298714.138,298737.525,299228.303,299229.30000001,2023-10-22T09:18:04Z,299244.969,Übersicht,kilindo,s,mgusano,chipukizi,kulinganisha,NA,NA,1,"c(""distractor1"", ""distractor2"", ""distractor3"")",NA,NA,NA,NA,NA,NA,NA,NA,NA,NA,NA,NA,NA,NA,NA,NA,NA,NA,NA
dd76d,shallow,flow.Sequence,2_4_0,NA,NA,completion,14476.458,284737,284735.037,284751.845,299228.303,299229.70000002,2023-10-22T09:18:04Z,299244.969,Übersicht,kilindo,s,mgusano,chipukizi,kulinganisha,NA,NA,NA,"c(""distractor1"", ""distractor2"", ""distractor3"")",NA,NA,NA,NA,NA,NA,NA,NA,NA,NA,NA,NA,NA,NA,NA,NA,NA,NA,NA
dd76d,task,flow.Sequence,2_4,NA,NA,completion,14476.458,284737,284735.037,284751.845,299228.303,299230,2023-10-22T09:18:04Z,299244.969,Übersicht,kilindo,s,mgusano,chipukizi,kulinganisha,NA,NA,NA,"c(""distractor1"", ""distractor2"", ""distractor3"")",NA,NA,NA,NA,NA,NA,NA,NA,NA,NA,NA,NA,NA,NA,NA,NA,NA,NA,NA
dd76d,Shallow Question,html.Page,2_5_0_0,NA,NA,form submission,6719.7310000179,299230.20000002,299228.303,299244.969,305964.70000002,305965,2023-10-22T09:18:11Z,305985.59,Kreativität,ubunifu,d,mratibu,mwendelezo,makubaliano,ubunifu,NA,NA,"c(""distractor1"", ""distractor2"", ""distractor3"")",NA,NA,NA,NA,NA,NA,NA,NA,NA,NA,NA,NA,NA,NA,NA,NA,NA,NA,NA
dd76d,Save data screen,canvas.Screen,2_5_0_1,NA,NA,timeout,506.92699999997,305967.70000002,305947.168,305985.59,306475.635,306476.80000001,2023-10-22T09:18:12Z,306492.517,Kreativität,ubunifu,d,mratibu,mwendelezo,makubaliano,NA,NA,1,"c(""distractor1"", ""distractor2"", ""distractor3"")",NA,NA,NA,NA,NA,NA,NA,NA,NA,NA,NA,NA,NA,NA,NA,NA,NA,NA,NA
dd76d,shallow,flow.Sequence,2_5_0,NA,NA,completion,7230.666,299230.20000002,299228.303,299244.969,306475.635,306477.20000002,2023-10-22T09:18:12Z,306492.517,Kreativität,ubunifu,d,mratibu,mwendelezo,makubaliano,NA,NA,NA,"c(""distractor1"", ""distractor2"", ""distractor3"")",NA,NA,NA,NA,NA,NA,NA,NA,NA,NA,NA,NA,NA,NA,NA,NA,NA,NA,NA
dd76d,task,flow.Sequence,2_5,NA,NA,completion,7230.666,299230.09999999,299228.303,299244.969,306475.635,306477.40000001,2023-10-22T09:18:12Z,306492.517,Kreativität,ubunifu,d,mratibu,mwendelezo,makubaliano,NA,NA,NA,"c(""distractor1"", ""distractor2"", ""distractor3"")",NA,NA,NA,NA,NA,NA,NA,NA,NA,NA,NA,NA,NA,NA,NA,NA,NA,NA,NA
dd76d,Shallow Question,html.Page,2_6_0_0,NA,NA,form submission,5127.983,306477.70000002,306475.635,306492.517,311620.5,311620.80000001,2023-10-22T09:18:17Z,311636.781,Abrechnung,uhasibu,s,kusahihisha,mpambano,mashambulizi,uhasibu,NA,NA,"c(""distractor1"", ""distractor2"", ""distractor3"")",NA,NA,NA,NA,NA,NA,NA,NA,NA,NA,NA,NA,NA,NA,NA,NA,NA,NA,NA
dd76d,Save data screen,canvas.Screen,2_6_0_1,NA,NA,timeout,506.83799999999,311623.80000001,311609.425,311636.781,312126.85,312128.09999999,2023-10-22T09:18:17Z,312143.619,Abrechnung,uhasibu,s,kusahihisha,mpambano,mashambulizi,NA,NA,1,"c(""distractor1"", ""distractor2"", ""distractor3"")",NA,NA,NA,NA,NA,NA,NA,NA,NA,NA,NA,NA,NA,NA,NA,NA,NA,NA,NA
dd76d,shallow,flow.Sequence,2_6_0,NA,NA,completion,5634.333,306477.5,306475.635,306492.517,312126.85,312128.40000001,2023-10-22T09:18:17Z,312143.619,Abrechnung,uhasibu,s,kusahihisha,mpambano,mashambulizi,NA,NA,NA,"c(""distractor1"", ""distractor2"", ""distractor3"")",NA,NA,NA,NA,NA,NA,NA,NA,NA,NA,NA,NA,NA,NA,NA,NA,NA,NA,NA
dd76d,task,flow.Sequence,2_6,NA,NA,completion,5634.333,306477.5,306475.635,306492.517,312126.85,312128.80000001,2023-10-22T09:18:17Z,312143.619,Abrechnung,uhasibu,s,kusahihisha,mpambano,mashambulizi,NA,NA,NA,"c(""distractor1"", ""distractor2"", ""distractor3"")",NA,NA,NA,NA,NA,NA,NA,NA,NA,NA,NA,NA,NA,NA,NA,NA,NA,NA,NA
dd76d,Shallow Question,html.Page,2_7_0_0,NA,NA,form submission,5412.881,312129,312126.85,312143.619,317556.5,317556.80000001,2023-10-22T09:18:23Z,317577.754,Sänger,mwimbaji,d,msichana,shughuli,mshirika,mwimbaji,NA,NA,"c(""distractor1"", ""distractor2"", ""distractor3"")",NA,NA,NA,NA,NA,NA,NA,NA,NA,NA,NA,NA,NA,NA,NA,NA,NA,NA,NA
dd76d,Save data screen,canvas.Screen,2_7_0_1,NA,NA,timeout,506.23499999999,317559.5,317539.793,317577.754,318067.169,318068.20000002,2023-10-22T09:18:23Z,318083.989,Sänger,mwimbaji,d,msichana,shughuli,mshirika,NA,NA,1,"c(""distractor1"", ""distractor2"", ""distractor3"")",NA,NA,NA,NA,NA,NA,NA,NA,NA,NA,NA,NA,NA,NA,NA,NA,NA,NA,NA
dd76d,shallow,flow.Sequence,2_7_0,NA,NA,completion,5923.55,312129,312126.85,312143.619,318067.169,318068.59999999,2023-10-22T09:18:23Z,318083.989,Sänger,mwimbaji,d,msichana,shughuli,mshirika,NA,NA,NA,"c(""distractor1"", ""distractor2"", ""distractor3"")",NA,NA,NA,NA,NA,NA,NA,NA,NA,NA,NA,NA,NA,NA,NA,NA,NA,NA,NA
dd76d,task,flow.Sequence,2_7,NA,NA,completion,5923.55,312128.90000001,312126.85,312143.619,318067.169,318068.80000001,2023-10-22T09:18:23Z,318083.989,Sänger,mwimbaji,d,msichana,shughuli,mshirika,NA,NA,NA,"c(""distractor1"", ""distractor2"", ""distractor3"")",NA,NA,NA,NA,NA,NA,NA,NA,NA,NA,NA,NA,NA,NA,NA,NA,NA,NA,NA
dd76d,Shallow Question,html.Page,2_8_0_0,NA,NA,form submission,6424.911000006,318069.09999999,318067.169,318083.989,324508.90000001,324509.09999999,2023-10-22T09:18:30Z,324530.13,Lawine,banguko,d,maambukizi,usuluhishi,chekechea,banguko,NA,NA,"c(""distractor1"", ""distractor2"", ""distractor3"")",NA,NA,NA,NA,NA,NA,NA,NA,NA,NA,NA,NA,NA,NA,NA,NA,NA,NA,NA
dd76d,Save data screen,canvas.Screen,2_8_0_1,NA,NA,timeout,506.86300000001,324511.70000002,324494.533,324530.13,325020.181,325021.30000001,2023-10-22T09:18:30Z,325036.993,Lawine,banguko,d,maambukizi,usuluhishi,chekechea,NA,NA,1,"c(""distractor1"", ""distractor2"", ""distractor3"")",NA,NA,NA,NA,NA,NA,NA,NA,NA,NA,NA,NA,NA,NA,NA,NA,NA,NA,NA
dd76d,shallow,flow.Sequence,2_8_0,NA,NA,completion,6936.192,318069,318067.169,318083.989,325020.181,325021.70000002,2023-10-22T09:18:30Z,325036.993,Lawine,banguko,d,maambukizi,usuluhishi,chekechea,NA,NA,NA,"c(""distractor1"", ""distractor2"", ""distractor3"")",NA,NA,NA,NA,NA,NA,NA,NA,NA,NA,NA,NA,NA,NA,NA,NA,NA,NA,NA
dd76d,task,flow.Sequence,2_8,NA,NA,completion,6936.192,318069,318067.169,318083.989,325020.181,325022,2023-10-22T09:18:30Z,325036.993,Lawine,banguko,d,maambukizi,usuluhishi,chekechea,NA,NA,NA,"c(""distractor1"", ""distractor2"", ""distractor3"")",NA,NA,NA,NA,NA,NA,NA,NA,NA,NA,NA,NA,NA,NA,NA,NA,NA,NA,NA
dd76d,Shallow Question,html.Page,2_9_0_0,NA,NA,form submission,3399.507,325022.30000001,325020.181,325036.993,328436.5,328436.80000001,2023-10-22T09:18:34Z,328457.412,Angreifer,mshambulizi,d,kitengo,tasinia,usafirishaji,mshambulizi,NA,NA,"c(""distractor1"", ""distractor2"", ""distractor3"")",NA,NA,NA,NA,NA,NA,NA,NA,NA,NA,NA,NA,NA,NA,NA,NA,NA,NA,NA
dd76d,Save data screen,canvas.Screen,2_9_0_1,NA,NA,timeout,506.56199999998,328439.40000001,328434.153,328457.412,328947.458,328948.5,2023-10-22T09:18:34Z,328963.974,Angreifer,mshambulizi,d,kitengo,tasinia,usafirishaji,NA,NA,1,"c(""distractor1"", ""distractor2"", ""distractor3"")",NA,NA,NA,NA,NA,NA,NA,NA,NA,NA,NA,NA,NA,NA,NA,NA,NA,NA,NA
dd76d,shallow,flow.Sequence,2_9_0,NA,NA,completion,3910.465,325022.30000001,325020.181,325036.993,328947.458,328948.80000001,2023-10-22T09:18:34Z,328963.974,Angreifer,mshambulizi,d,kitengo,tasinia,usafirishaji,NA,NA,NA,"c(""distractor1"", ""distractor2"", ""distractor3"")",NA,NA,NA,NA,NA,NA,NA,NA,NA,NA,NA,NA,NA,NA,NA,NA,NA,NA,NA
dd76d,task,flow.Sequence,2_9,NA,NA,completion,3910.465,325022.09999999,325020.181,325036.993,328947.458,328949.09999999,2023-10-22T09:18:34Z,328963.974,Angreifer,mshambulizi,d,kitengo,tasinia,usafirishaji,NA,NA,NA,"c(""distractor1"", ""distractor2"", ""distractor3"")",NA,NA,NA,NA,NA,NA,NA,NA,NA,NA,NA,NA,NA,NA,NA,NA,NA,NA,NA
dd76d,Shallow Question,html.Page,2_10_0_0,NA,NA,form submission,5160.6259999941,328949.40000001,328947.458,328963.974,334124.59999999,334124.90000001,2023-10-22T09:18:39Z,334145.577,Kontrolle,kudhibiti,s,mbinguni,kufunga,utegemezi,kudhibiti,NA,NA,"c(""distractor1"", ""distractor2"", ""distractor3"")",NA,NA,NA,NA,NA,NA,NA,NA,NA,NA,NA,NA,NA,NA,NA,NA,NA,NA,NA
dd76d,Save data screen,canvas.Screen,2_10_0_1,NA,NA,timeout,495.06800000003,334127.5,334106.757,334145.577,334624.024,334625.09999999,2023-10-22T09:18:40Z,334640.645,Kontrolle,kudhibiti,s,mbinguni,kufunga,utegemezi,NA,NA,1,"c(""distractor1"", ""distractor2"", ""distractor3"")",NA,NA,NA,NA,NA,NA,NA,NA,NA,NA,NA,NA,NA,NA,NA,NA,NA,NA,NA
dd76d,shallow,flow.Sequence,2_10_0,NA,NA,completion,5660.05,328949.30000001,328947.458,328963.974,334624.024,334625.5,2023-10-22T09:18:40Z,334640.645,Kontrolle,kudhibiti,s,mbinguni,kufunga,utegemezi,NA,NA,NA,"c(""distractor1"", ""distractor2"", ""distractor3"")",NA,NA,NA,NA,NA,NA,NA,NA,NA,NA,NA,NA,NA,NA,NA,NA,NA,NA,NA
dd76d,task,flow.Sequence,2_10,NA,NA,completion,5660.05,328949.30000001,328947.458,328963.974,334624.024,334625.80000001,2023-10-22T09:18:40Z,334640.645,Kontrolle,kudhibiti,s,mbinguni,kufunga,utegemezi,NA,NA,NA,"c(""distractor1"", ""distractor2"", ""distractor3"")",NA,NA,NA,NA,NA,NA,NA,NA,NA,NA,NA,NA,NA,NA,NA,NA,NA,NA,NA
dd76d,Shallow Question,html.Page,2_11_0_0,NA,NA,form submission,2331.954999994,334626,334624.024,334640.645,336972.59999999,336972.80000001,2023-10-22T09:18:42Z,336988.805,Kanzler,diwani,s,rasilmali,mahitaji,maabudu,diwani,NA,NA,"c(""distractor1"", ""distractor2"", ""distractor3"")",NA,NA,NA,NA,NA,NA,NA,NA,NA,NA,NA,NA,NA,NA,NA,NA,NA,NA,NA
dd76d,Save data screen,canvas.Screen,2_11_0_1,NA,NA,timeout,506.07500000001,336975.5,336971.033,336988.805,337478.218,337478.5,2023-10-22T09:18:43Z,337494.88,Kanzler,diwani,s,rasilmali,mahitaji,maabudu,NA,NA,1,"c(""distractor1"", ""distractor2"", ""distractor3"")",NA,NA,NA,NA,NA,NA,NA,NA,NA,NA,NA,NA,NA,NA,NA,NA,NA,NA,NA
dd76d,shallow,flow.Sequence,2_11_0,NA,NA,completion,2837.573,334625.90000001,334624.024,334640.645,337478.218,337478.70000002,2023-10-22T09:18:43Z,337494.88,Kanzler,diwani,s,rasilmali,mahitaji,maabudu,NA,NA,NA,"c(""distractor1"", ""distractor2"", ""distractor3"")",NA,NA,NA,NA,NA,NA,NA,NA,NA,NA,NA,NA,NA,NA,NA,NA,NA,NA,NA
dd76d,task,flow.Sequence,2_11,NA,NA,completion,2837.573,334625.90000001,334624.024,334640.645,337478.218,337478.70000002,2023-10-22T09:18:43Z,337494.88,Kanzler,diwani,s,rasilmali,mahitaji,maabudu,NA,NA,NA,"c(""distractor1"", ""distractor2"", ""distractor3"")",NA,NA,NA,NA,NA,NA,NA,NA,NA,NA,NA,NA,NA,NA,NA,NA,NA,NA,NA
dd76d,Shallow Question,html.Page,2_12_0_0,NA,NA,form submission,8141.520000006,337478.80000001,337478.218,337494.88,345636.40000001,345636.59999999,2023-10-22T09:18:51Z,345657.311,System,maongozi,d,chokochoko,nuksani,mitaani,maongozi,NA,NA,"c(""distractor1"", ""distractor2"", ""distractor3"")",NA,NA,NA,NA,NA,NA,NA,NA,NA,NA,NA,NA,NA,NA,NA,NA,NA,NA,NA
dd76d,Save data screen,canvas.Screen,2_12_0_1,NA,NA,timeout,506.42700000003,345639.5,345633.021,345657.311,346147.193,346148.20000002,2023-10-22T09:18:51Z,346163.738,System,maongozi,d,chokochoko,nuksani,mitaani,NA,NA,1,"c(""distractor1"", ""distractor2"", ""distractor3"")",NA,NA,NA,NA,NA,NA,NA,NA,NA,NA,NA,NA,NA,NA,NA,NA,NA,NA,NA
dd76d,shallow,flow.Sequence,2_12_0,NA,NA,completion,8652.313,337478.80000001,337478.218,337494.88,346147.193,346148.59999999,2023-10-22T09:18:51Z,346163.738,System,maongozi,d,chokochoko,nuksani,mitaani,NA,NA,NA,"c(""distractor1"", ""distractor2"", ""distractor3"")",NA,NA,NA,NA,NA,NA,NA,NA,NA,NA,NA,NA,NA,NA,NA,NA,NA,NA,NA
dd76d,task,flow.Sequence,2_12,NA,NA,completion,8652.313,337478.80000001,337478.218,337494.88,346147.193,346148.80000001,2023-10-22T09:18:51Z,346163.738,System,maongozi,d,chokochoko,nuksani,mitaani,NA,NA,NA,"c(""distractor1"", ""distractor2"", ""distractor3"")",NA,NA,NA,NA,NA,NA,NA,NA,NA,NA,NA,NA,NA,NA,NA,NA,NA,NA,NA
dd76d,Shallow Question,html.Page,2_13_0_0,NA,NA,form submission,5521.9620000179,346149.09999999,346147.193,346163.738,351685.70000002,351685.90000001,2023-10-22T09:18:57Z,351712.105,Können,unaweza,d,kiongozi,bustani,mienendo,unaweza,NA,NA,"c(""distractor1"", ""distractor2"", ""distractor3"")",NA,NA,NA,NA,NA,NA,NA,NA,NA,NA,NA,NA,NA,NA,NA,NA,NA,NA,NA
dd76d,Save data screen,canvas.Screen,2_13_0_1,NA,NA,timeout,506.39000000001,351688.59999999,351695.377,351712.105,352201.66,352202.70000002,2023-10-22T09:18:57Z,352218.495,Können,unaweza,d,kiongozi,bustani,mienendo,NA,NA,1,"c(""distractor1"", ""distractor2"", ""distractor3"")",NA,NA,NA,NA,NA,NA,NA,NA,NA,NA,NA,NA,NA,NA,NA,NA,NA,NA,NA
dd76d,shallow,flow.Sequence,2_13_0,NA,NA,completion,6037.922,346149,346147.193,346163.738,352201.66,352203.09999999,2023-10-22T09:18:57Z,352218.495,Können,unaweza,d,kiongozi,bustani,mienendo,NA,NA,NA,"c(""distractor1"", ""distractor2"", ""distractor3"")",NA,NA,NA,NA,NA,NA,NA,NA,NA,NA,NA,NA,NA,NA,NA,NA,NA,NA,NA
dd76d,task,flow.Sequence,2_13,NA,NA,completion,6037.922,346149,346147.193,346163.738,352201.66,352203.40000001,2023-10-22T09:18:57Z,352218.495,Können,unaweza,d,kiongozi,bustani,mienendo,NA,NA,NA,"c(""distractor1"", ""distractor2"", ""distractor3"")",NA,NA,NA,NA,NA,NA,NA,NA,NA,NA,NA,NA,NA,NA,NA,NA,NA,NA,NA
dd76d,Shallow Question,html.Page,2_14_0_0,NA,NA,form submission,7434.604999994,352203.5,352201.66,352218.495,359653.09999999,359653.30000001,2023-10-22T09:19:05Z,359669.363,Verzögerung,kuchelewa,s,mwakilishi,mwanauchumi,jaribio,kuchelewa,NA,NA,"c(""distractor1"", ""distractor2"", ""distractor3"")",NA,NA,NA,NA,NA,NA,NA,NA,NA,NA,NA,NA,NA,NA,NA,NA,NA,NA,NA
dd76d,Save data screen,canvas.Screen,2_14_0_1,NA,NA,timeout,506.60699999996,359656,359646.957,359669.363,360159.388,360160.5,2023-10-22T09:19:05Z,360175.97,Verzögerung,kuchelewa,s,mwakilishi,mwanauchumi,jaribio,NA,NA,1,"c(""distractor1"", ""distractor2"", ""distractor3"")",NA,NA,NA,NA,NA,NA,NA,NA,NA,NA,NA,NA,NA,NA,NA,NA,NA,NA,NA
dd76d,shallow,flow.Sequence,2_14_0,NA,NA,completion,7940.893,352203.5,352201.66,352218.495,360159.388,360160.90000001,2023-10-22T09:19:05Z,360175.97,Verzögerung,kuchelewa,s,mwakilishi,mwanauchumi,jaribio,NA,NA,NA,"c(""distractor1"", ""distractor2"", ""distractor3"")",NA,NA,NA,NA,NA,NA,NA,NA,NA,NA,NA,NA,NA,NA,NA,NA,NA,NA,NA
dd76d,task,flow.Sequence,2_14,NA,NA,completion,7940.893,352203.5,352201.66,352218.495,360159.388,360161.09999999,2023-10-22T09:19:05Z,360175.97,Verzögerung,kuchelewa,s,mwakilishi,mwanauchumi,jaribio,NA,NA,NA,"c(""distractor1"", ""distractor2"", ""distractor3"")",NA,NA,NA,NA,NA,NA,NA,NA,NA,NA,NA,NA,NA,NA,NA,NA,NA,NA,NA
dd76d,Shallow Question,html.Page,2_15_0_0,NA,NA,form submission,7508.6299999941,360161.30000001,360159.388,360175.97,367684.59999999,367685,2023-10-22T09:19:13Z,367705.77,Kultur,utamaduni,s,shetani,gerezani,mazingira,utamaduni,NA,NA,"c(""distractor1"", ""distractor2"", ""distractor3"")",NA,NA,NA,NA,NA,NA,NA,NA,NA,NA,NA,NA,NA,NA,NA,NA,NA,NA,NA
dd76d,Save data screen,canvas.Screen,2_15_0_1,NA,NA,timeout,506.72599999997,367687.80000001,367682.29,367705.77,368195.831,368196.90000001,2023-10-22T09:19:13Z,368212.496,Kultur,utamaduni,s,shetani,gerezani,mazingira,NA,NA,1,"c(""distractor1"", ""distractor2"", ""distractor3"")",NA,NA,NA,NA,NA,NA,NA,NA,NA,NA,NA,NA,NA,NA,NA,NA,NA,NA,NA
dd76d,shallow,flow.Sequence,2_15_0,NA,NA,completion,8019.861,360161.20000002,360159.388,360175.97,368195.831,368197.30000001,2023-10-22T09:19:13Z,368212.496,Kultur,utamaduni,s,shetani,gerezani,mazingira,NA,NA,NA,"c(""distractor1"", ""distractor2"", ""distractor3"")",NA,NA,NA,NA,NA,NA,NA,NA,NA,NA,NA,NA,NA,NA,NA,NA,NA,NA,NA
dd76d,task,flow.Sequence,2_15,NA,NA,completion,8019.861,360161.20000002,360159.388,360175.97,368195.831,368197.59999999,2023-10-22T09:19:13Z,368212.496,Kultur,utamaduni,s,shetani,gerezani,mazingira,NA,NA,NA,"c(""distractor1"", ""distractor2"", ""distractor3"")",NA,NA,NA,NA,NA,NA,NA,NA,NA,NA,NA,NA,NA,NA,NA,NA,NA,NA,NA
dd76d,retrieval block 2 (multiple choice),flow.Loop,2,NA,NA,completion,122892.685,245288.20000002,245286.476,245303.146,368195.831,368197.80000001,2023-10-22T09:19:13Z,368212.496,NA,NA,NA,NA,NA,NA,NA,NA,NA,"c(""distractor1"", ""distractor2"", ""distractor3"")",NA,NA,NA,NA,NA,NA,NA,NA,NA,NA,NA,NA,NA,NA,NA,NA,NA,NA,NA
dd76d,End,canvas.Screen,3,NA,keypress(Space),response,2248.2040000179,368198,368195.831,368212.496,370460.70000002,370462.30000001,2023-10-22T09:19:16Z,370481.441,NA,NA,NA,NA,NA,NA,NA,NA,NA,NULL,NA,NA,NA,NA,NA,NA,NA,NA,NA,NA,NA,NA,NA,NA,NA,NA,NA,NA,NA
dd76d,root,flow.Sequence,NA,NA,NA,completion,369265.74500002,1168.099999994,1178.332,1194.955,370460.70000002,370463.20000002,2023-10-22T09:19:16Z,370481.441,NA,NA,NA,NA,NA,NA,NA,NA,NA,NULL,NA,NA,NA,NA,NA,NA,NA,NA,NA,NA,NA,NA,NA,NA,NA,NA,NA,NA,NA
