observation,sender,sender_type,sender_id,response,response_action,ended_on,duration,time_run,time_render,time_show,time_end,time_commit,timestamp,time_switch,german,swahili,enc,distractor1,distractor2,distractor3,response_2,x,correct,distractors,url_vp,url_sess,meta_labjs_version,meta_location,meta_user_agent,meta_platform,meta_language,meta_locale,meta_time_zone,meta_timezone_offset,meta_screen_width,meta_screen_height,meta_scroll_width,meta_scroll_height,meta_window_inner_width,meta_window_inner_height,meta_device_pixel_ratio,meta_labjs_build_flavor,meta_labjs_build_commit
3a770,Introduction delayed retrieval,canvas.Screen,0,weiter,keypress(Space),response,6489.977,2347.1000003815,2351.417,2368.023,8858,8859.5,2023-12-04T21:47:36Z,8862.39,NA,NA,NA,NA,NA,NA,NA,NA,NA,NULL,150,4,20.2.4,https://neurocog.fernuni.ch/studies/vweber/jbaenninger/delayed/index.html?vp=150&sess=4,"Mozilla/5.0 (Windows NT 10.0; Win64; x64) AppleWebKit/537.36 (KHTML, like Gecko) Chrome/119.0.0.0 Safari/537.36 Edg/119.0.0.0",Win32,de,de-DE,Europe/Berlin,-60,1536,864,1488,694,1488,742,1.25,production,f5b4a49f956347addd546a832a3327688c2c0fef
3a770,Deep Question,html.Page,1_0_0_0,NA,NA,form submission,19937.410000191,8859.7000007629,8846.202,8862.39,28799.800000191,28800,2023-12-04T21:47:56Z,28811.549,Wohlstand,mafanikio,s,chimbuko,kumbuko,mapwaji,mchani,NA,NA,NULL,NA,NA,NA,NA,NA,NA,NA,NA,NA,NA,NA,NA,NA,NA,NA,NA,NA,NA,NA
3a770,Save data screen,canvas.Screen,1_0_0_1,NA,NA,timeout,499.59,28801.300000191,28797.874,28811.549,29294.47,29295.100000381,2023-12-04T21:47:56Z,29311.139,Wohlstand,mafanikio,s,chimbuko,kumbuko,mapwaji,NA,NA,0,NULL,NA,NA,NA,NA,NA,NA,NA,NA,NA,NA,NA,NA,NA,NA,NA,NA,NA,NA,NA
3a770,deep,flow.Sequence,1_0_0,NA,NA,completion,20432.08,8859.7000007629,8846.202,8862.39,29294.47,29295.200000763,2023-12-04T21:47:56Z,29311.139,Wohlstand,mafanikio,s,chimbuko,kumbuko,mapwaji,NA,NA,NA,NULL,NA,NA,NA,NA,NA,NA,NA,NA,NA,NA,NA,NA,NA,NA,NA,NA,NA,NA,NA
3a770,task,flow.Sequence,1_0,NA,NA,completion,20432.08,8859.7000007629,8846.202,8862.39,29294.47,29295.300000191,2023-12-04T21:47:56Z,29311.139,Wohlstand,mafanikio,s,chimbuko,kumbuko,mapwaji,NA,NA,NA,NULL,NA,NA,NA,NA,NA,NA,NA,NA,NA,NA,NA,NA,NA,NA,NA,NA,NA,NA,NA
3a770,Deep Question,html.Page,1_1_0_0,NA,NA,form submission,5247.1610001907,29295.300000191,29294.47,29311.139,34558.300000191,34558.600000381,2023-12-04T21:48:02Z,34573.138,Spionage,upelelezi,s,maslahi,utokazo,magangao,subani,NA,NA,NULL,NA,NA,NA,NA,NA,NA,NA,NA,NA,NA,NA,NA,NA,NA,NA,NA,NA,NA,NA
3a770,Save data screen,canvas.Screen,1_1_0_1,NA,NA,timeout,499.606,34560,34553.147,34573.138,35056.103,35056.600000381,2023-12-04T21:48:02Z,35072.744,Spionage,upelelezi,s,maslahi,utokazo,magangao,NA,NA,0,NULL,NA,NA,NA,NA,NA,NA,NA,NA,NA,NA,NA,NA,NA,NA,NA,NA,NA,NA,NA
3a770,deep,flow.Sequence,1_1_0,NA,NA,completion,5744.964,29295.300000191,29294.47,29311.139,35056.103,35056.800000191,2023-12-04T21:48:02Z,35072.744,Spionage,upelelezi,s,maslahi,utokazo,magangao,NA,NA,NA,NULL,NA,NA,NA,NA,NA,NA,NA,NA,NA,NA,NA,NA,NA,NA,NA,NA,NA,NA,NA
3a770,task,flow.Sequence,1_1,NA,NA,completion,5744.964,29295.300000191,29294.47,29311.139,35056.103,35056.900000572,2023-12-04T21:48:02Z,35072.744,Spionage,upelelezi,s,maslahi,utokazo,magangao,NA,NA,NA,NULL,NA,NA,NA,NA,NA,NA,NA,NA,NA,NA,NA,NA,NA,NA,NA,NA,NA,NA,NA
3a770,Deep Question,html.Page,1_2_0_0,NA,NA,form submission,6989.5560001907,35057,35056.103,35072.744,42062.300000191,42062.700000763,2023-12-04T21:48:09Z,42066.643,Ergänzung,kijalizo,s,ulaghai,mustarehe,matangazo,heshima,NA,NA,NULL,NA,NA,NA,NA,NA,NA,NA,NA,NA,NA,NA,NA,NA,NA,NA,NA,NA,NA,NA
3a770,Save data screen,canvas.Screen,1_2_0_1,NA,NA,timeout,499.567,42063.400000572,42051.972,42066.643,42549.553,42550.100000381,2023-12-04T21:48:10Z,42566.21,Ergänzung,kijalizo,s,ulaghai,mustarehe,matangazo,NA,NA,0,NULL,NA,NA,NA,NA,NA,NA,NA,NA,NA,NA,NA,NA,NA,NA,NA,NA,NA,NA,NA
3a770,deep,flow.Sequence,1_2_0,NA,NA,completion,7476.809,35057,35056.103,35072.744,42549.553,42550.300000191,2023-12-04T21:48:10Z,42566.21,Ergänzung,kijalizo,s,ulaghai,mustarehe,matangazo,NA,NA,NA,NULL,NA,NA,NA,NA,NA,NA,NA,NA,NA,NA,NA,NA,NA,NA,NA,NA,NA,NA,NA
3a770,task,flow.Sequence,1_2,NA,NA,completion,7476.809,35057,35056.103,35072.744,42549.553,42550.5,2023-12-04T21:48:10Z,42566.21,Ergänzung,kijalizo,s,ulaghai,mustarehe,matangazo,NA,NA,NA,NULL,NA,NA,NA,NA,NA,NA,NA,NA,NA,NA,NA,NA,NA,NA,NA,NA,NA,NA,NA
3a770,Deep Question,html.Page,1_3_0_0,NA,NA,form submission,8746.5900001907,42550.5,42549.553,42566.21,51312.800000191,51313.100000381,2023-12-04T21:48:18Z,51325.165,Notfall,dharura,d,rairai,malalamiko,ahueni,heshima,NA,NA,NULL,NA,NA,NA,NA,NA,NA,NA,NA,NA,NA,NA,NA,NA,NA,NA,NA,NA,NA,NA
3a770,Save data screen,canvas.Screen,1_3_0_1,NA,NA,timeout,499.618,51313.900000572,51310.56,51325.165,51808.141,51808.700000763,2023-12-04T21:48:19Z,51824.783,Notfall,dharura,d,rairai,malalamiko,ahueni,NA,NA,0,NULL,NA,NA,NA,NA,NA,NA,NA,NA,NA,NA,NA,NA,NA,NA,NA,NA,NA,NA,NA
3a770,deep,flow.Sequence,1_3_0,NA,NA,completion,9241.931,42550.5,42549.553,42566.21,51808.141,51808.900000572,2023-12-04T21:48:19Z,51824.783,Notfall,dharura,d,rairai,malalamiko,ahueni,NA,NA,NA,NULL,NA,NA,NA,NA,NA,NA,NA,NA,NA,NA,NA,NA,NA,NA,NA,NA,NA,NA,NA
3a770,task,flow.Sequence,1_3,NA,NA,completion,9241.931,42550.5,42549.553,42566.21,51808.141,51809,2023-12-04T21:48:19Z,51824.783,Notfall,dharura,d,rairai,malalamiko,ahueni,NA,NA,NA,NULL,NA,NA,NA,NA,NA,NA,NA,NA,NA,NA,NA,NA,NA,NA,NA,NA,NA,NA,NA
3a770,Deep Question,html.Page,1_4_0_0,NA,NA,form submission,12732.217,51809.100000381,51808.141,51824.783,64557,64557.300000191,2023-12-04T21:48:32Z,64564.204,Hoffnung,matarajio,d,kutaalamika,uratibu,mvumbuzi,mshakiki,NA,NA,NULL,NA,NA,NA,NA,NA,NA,NA,NA,NA,NA,NA,NA,NA,NA,NA,NA,NA,NA,NA
3a770,Save data screen,canvas.Screen,1_4_0_1,NA,NA,timeout,499.325,64559.5,64547.015,64564.204,65046.515,65050.700000763,2023-12-04T21:48:32Z,65063.529,Hoffnung,matarajio,d,kutaalamika,uratibu,mvumbuzi,NA,NA,0,NULL,NA,NA,NA,NA,NA,NA,NA,NA,NA,NA,NA,NA,NA,NA,NA,NA,NA,NA,NA
3a770,deep,flow.Sequence,1_4_0,NA,NA,completion,13221.732,51809.100000381,51808.141,51824.783,65046.515,65050.900000572,2023-12-04T21:48:32Z,65063.529,Hoffnung,matarajio,d,kutaalamika,uratibu,mvumbuzi,NA,NA,NA,NULL,NA,NA,NA,NA,NA,NA,NA,NA,NA,NA,NA,NA,NA,NA,NA,NA,NA,NA,NA
3a770,task,flow.Sequence,1_4,NA,NA,completion,13221.732,51809,51808.141,51824.783,65046.515,65050.900000572,2023-12-04T21:48:32Z,65063.529,Hoffnung,matarajio,d,kutaalamika,uratibu,mvumbuzi,NA,NA,NA,NULL,NA,NA,NA,NA,NA,NA,NA,NA,NA,NA,NA,NA,NA,NA,NA,NA,NA,NA,NA
3a770,Deep Question,html.Page,1_5_0_0,NA,NA,form submission,5409.7710001907,65051,65046.515,65063.529,70473.300000191,70473.5,2023-12-04T21:48:38Z,70475.138,Tester,wanaojaribu,d,sherti,sihiri,mlipuko,mhkuku,NA,NA,NULL,NA,NA,NA,NA,NA,NA,NA,NA,NA,NA,NA,NA,NA,NA,NA,NA,NA,NA,NA
3a770,Save data screen,canvas.Screen,1_5_0_1,NA,NA,timeout,499.77799999999,70475.300000191,70459.588,70475.138,70958.245,70958.800000191,2023-12-04T21:48:38Z,70974.916,Tester,wanaojaribu,d,sherti,sihiri,mlipuko,NA,NA,0,NULL,NA,NA,NA,NA,NA,NA,NA,NA,NA,NA,NA,NA,NA,NA,NA,NA,NA,NA,NA
3a770,deep,flow.Sequence,1_5_0,NA,NA,completion,5894.716,65051,65046.515,65063.529,70958.245,70958.900000572,2023-12-04T21:48:38Z,70974.916,Tester,wanaojaribu,d,sherti,sihiri,mlipuko,NA,NA,NA,NULL,NA,NA,NA,NA,NA,NA,NA,NA,NA,NA,NA,NA,NA,NA,NA,NA,NA,NA,NA
3a770,task,flow.Sequence,1_5,NA,NA,completion,5894.716,65051,65046.515,65063.529,70958.245,70959.100000381,2023-12-04T21:48:38Z,70974.916,Tester,wanaojaribu,d,sherti,sihiri,mlipuko,NA,NA,NA,NULL,NA,NA,NA,NA,NA,NA,NA,NA,NA,NA,NA,NA,NA,NA,NA,NA,NA,NA,NA
3a770,Deep Question,html.Page,1_6_0_0,NA,NA,form submission,5073.4840005722,70959.200000763,70958.245,70974.916,76048.400000572,76048.700000763,2023-12-04T21:48:43Z,76053.596,Verpackung,ufungaji,d,uhusiano,upimaji,uchunguzi,unkiri,NA,NA,NULL,NA,NA,NA,NA,NA,NA,NA,NA,NA,NA,NA,NA,NA,NA,NA,NA,NA,NA,NA
3a770,Save data screen,canvas.Screen,1_6_0_1,NA,NA,timeout,499.52499999999,76050.5,76036.902,76053.596,76536.449,76536.900000572,2023-12-04T21:48:44Z,76553.121,Verpackung,ufungaji,d,uhusiano,upimaji,uchunguzi,NA,NA,0,NULL,NA,NA,NA,NA,NA,NA,NA,NA,NA,NA,NA,NA,NA,NA,NA,NA,NA,NA,NA
3a770,deep,flow.Sequence,1_6_0,NA,NA,completion,5561.533,70959.100000381,70958.245,70974.916,76536.449,76537.100000381,2023-12-04T21:48:44Z,76553.121,Verpackung,ufungaji,d,uhusiano,upimaji,uchunguzi,NA,NA,NA,NULL,NA,NA,NA,NA,NA,NA,NA,NA,NA,NA,NA,NA,NA,NA,NA,NA,NA,NA,NA
3a770,task,flow.Sequence,1_6,NA,NA,completion,5561.533,70959.100000381,70958.245,70974.916,76536.449,76537.200000763,2023-12-04T21:48:44Z,76553.121,Verpackung,ufungaji,d,uhusiano,upimaji,uchunguzi,NA,NA,NA,NULL,NA,NA,NA,NA,NA,NA,NA,NA,NA,NA,NA,NA,NA,NA,NA,NA,NA,NA,NA
3a770,Deep Question,html.Page,1_7_0_0,NA,NA,form submission,5005.4790003815,76537.200000763,76536.449,76553.121,81558.600000381,81558.900000572,2023-12-04T21:48:49Z,81565.397,Theorie,nadharia,s,ushungi,mkutano,uwakilishi,mkunku,NA,NA,NULL,NA,NA,NA,NA,NA,NA,NA,NA,NA,NA,NA,NA,NA,NA,NA,NA,NA,NA,NA
3a770,Save data screen,canvas.Screen,1_7_0_1,NA,NA,timeout,499.55500000001,81560.5,81549.641,81565.397,82048.316,82048.800000191,2023-12-04T21:48:49Z,82064.952,Theorie,nadharia,s,ushungi,mkutano,uwakilishi,NA,NA,0,NULL,NA,NA,NA,NA,NA,NA,NA,NA,NA,NA,NA,NA,NA,NA,NA,NA,NA,NA,NA
3a770,deep,flow.Sequence,1_7_0,NA,NA,completion,5495.195,76537.200000763,76536.449,76553.121,82048.316,82048.900000572,2023-12-04T21:48:49Z,82064.952,Theorie,nadharia,s,ushungi,mkutano,uwakilishi,NA,NA,NA,NULL,NA,NA,NA,NA,NA,NA,NA,NA,NA,NA,NA,NA,NA,NA,NA,NA,NA,NA,NA
3a770,task,flow.Sequence,1_7,NA,NA,completion,5495.195,76537.200000763,76536.449,76553.121,82048.316,82049,2023-12-04T21:48:49Z,82064.952,Theorie,nadharia,s,ushungi,mkutano,uwakilishi,NA,NA,NA,NULL,NA,NA,NA,NA,NA,NA,NA,NA,NA,NA,NA,NA,NA,NA,NA,NA,NA,NA,NA
3a770,Deep Question,html.Page,1_8_0_0,NA,NA,form submission,17756.448000572,82049.100000381,82048.316,82064.952,99821.400000572,99821.5,2023-12-04T21:49:07Z,99832.749,Fenster,dirisha,s,walakini,tasawari,maarifa,katatu,NA,NA,NULL,NA,NA,NA,NA,NA,NA,NA,NA,NA,NA,NA,NA,NA,NA,NA,NA,NA,NA,NA
3a770,Save data screen,canvas.Screen,1_8_0_1,NA,NA,timeout,499.522,99823.5,99816.11,99832.749,100315.641,100324.40000057001,2023-12-04T21:49:07Z,100332.271,Fenster,dirisha,s,walakini,tasawari,maarifa,NA,NA,0,NULL,NA,NA,NA,NA,NA,NA,NA,NA,NA,NA,NA,NA,NA,NA,NA,NA,NA,NA,NA
3a770,deep,flow.Sequence,1_8_0,NA,NA,completion,18250.689,82049.100000381,82048.316,82064.952,100315.641,100324.60000038,2023-12-04T21:49:07Z,100332.271,Fenster,dirisha,s,walakini,tasawari,maarifa,NA,NA,NA,NULL,NA,NA,NA,NA,NA,NA,NA,NA,NA,NA,NA,NA,NA,NA,NA,NA,NA,NA,NA
3a770,task,flow.Sequence,1_8,NA,NA,completion,18250.689,82049.100000381,82048.316,82064.952,100315.641,100324.70000076,2023-12-04T21:49:07Z,100332.271,Fenster,dirisha,s,walakini,tasawari,maarifa,NA,NA,NA,NULL,NA,NA,NA,NA,NA,NA,NA,NA,NA,NA,NA,NA,NA,NA,NA,NA,NA,NA,NA
3a770,Deep Question,html.Page,1_9_0_0,NA,NA,form submission,3602.1290005722,100324.80000019001,100315.641,100332.271,103934.40000057,103934.60000038,2023-12-04T21:49:11Z,103945.781,Schock,mshtuko,s,biashara,kukataza,vichekesho,ketuni,NA,NA,NULL,NA,NA,NA,NA,NA,NA,NA,NA,NA,NA,NA,NA,NA,NA,NA,NA,NA,NA,NA
3a770,Save data screen,canvas.Screen,1_9_0_1,NA,NA,timeout,500.08499999999,103936.20000076,103929.721,103945.781,104428.93,104429.60000038,2023-12-04T21:49:12Z,104445.866,Schock,mshtuko,s,biashara,kukataza,vichekesho,NA,NA,0,NULL,NA,NA,NA,NA,NA,NA,NA,NA,NA,NA,NA,NA,NA,NA,NA,NA,NA,NA,NA
3a770,deep,flow.Sequence,1_9_0,NA,NA,completion,4096.659,100324.80000019001,100315.641,100332.271,104428.93,104429.80000019001,2023-12-04T21:49:12Z,104445.866,Schock,mshtuko,s,biashara,kukataza,vichekesho,NA,NA,NA,NULL,NA,NA,NA,NA,NA,NA,NA,NA,NA,NA,NA,NA,NA,NA,NA,NA,NA,NA,NA
3a770,task,flow.Sequence,1_9,NA,NA,completion,4096.659,100324.80000019001,100315.641,100332.271,104428.93,104429.80000019001,2023-12-04T21:49:12Z,104445.866,Schock,mshtuko,s,biashara,kukataza,vichekesho,NA,NA,NA,NULL,NA,NA,NA,NA,NA,NA,NA,NA,NA,NA,NA,NA,NA,NA,NA,NA,NA,NA,NA
3a770,Deep Question,html.Page,1_10_0_0,NA,NA,form submission,5097.9340001907,104430.10000038,104428.93,104445.866,109543.80000019001,109544.10000038,2023-12-04T21:49:17Z,109557.555,Schüler,mwanafunzi,d,mwekezaji,matumizi,uaminifu,mshenkuni,NA,NA,NULL,NA,NA,NA,NA,NA,NA,NA,NA,NA,NA,NA,NA,NA,NA,NA,NA,NA,NA,NA
3a770,Save data screen,canvas.Screen,1_10_0_1,NA,NA,timeout,499.55500000001,109546,109540.92,109557.555,110040.444,110040.90000057001,2023-12-04T21:49:17Z,110057.11,Schüler,mwanafunzi,d,mwekezaji,matumizi,uaminifu,NA,NA,0,NULL,NA,NA,NA,NA,NA,NA,NA,NA,NA,NA,NA,NA,NA,NA,NA,NA,NA,NA,NA
3a770,deep,flow.Sequence,1_10_0,NA,NA,completion,5594.578,104430.10000038,104428.93,104445.866,110040.444,110041,2023-12-04T21:49:17Z,110057.11,Schüler,mwanafunzi,d,mwekezaji,matumizi,uaminifu,NA,NA,NA,NULL,NA,NA,NA,NA,NA,NA,NA,NA,NA,NA,NA,NA,NA,NA,NA,NA,NA,NA,NA
3a770,task,flow.Sequence,1_10,NA,NA,completion,5594.578,104429.90000057001,104428.93,104445.866,110040.444,110041.10000038,2023-12-04T21:49:17Z,110057.11,Schüler,mwanafunzi,d,mwekezaji,matumizi,uaminifu,NA,NA,NA,NULL,NA,NA,NA,NA,NA,NA,NA,NA,NA,NA,NA,NA,NA,NA,NA,NA,NA,NA,NA
3a770,Deep Question,html.Page,1_11_0_0,NA,NA,form submission,4379.0900007629,110041.20000076,110040.444,110057.11,114436.20000076,114436.40000057,2023-12-04T21:49:22Z,114454.182,Toleranz,kuvumiliana,s,maombolezo,ujasusi,mchekeshaji,mshekani,NA,NA,NULL,NA,NA,NA,NA,NA,NA,NA,NA,NA,NA,NA,NA,NA,NA,NA,NA,NA,NA,NA
3a770,Save data screen,canvas.Screen,1_11_0_1,NA,NA,timeout,498.656,114438.40000057001,114420.603,114454.182,114936.175,114936.70000076,2023-12-04T21:49:22Z,114952.838,Toleranz,kuvumiliana,s,maombolezo,ujasusi,mchekeshaji,NA,NA,0,NULL,NA,NA,NA,NA,NA,NA,NA,NA,NA,NA,NA,NA,NA,NA,NA,NA,NA,NA,NA
3a770,deep,flow.Sequence,1_11_0,NA,NA,completion,4879.065,110041.20000076,110040.444,110057.11,114936.175,114936.70000076,2023-12-04T21:49:22Z,114952.838,Toleranz,kuvumiliana,s,maombolezo,ujasusi,mchekeshaji,NA,NA,NA,NULL,NA,NA,NA,NA,NA,NA,NA,NA,NA,NA,NA,NA,NA,NA,NA,NA,NA,NA,NA
3a770,task,flow.Sequence,1_11,NA,NA,completion,4879.065,110041.20000076,110040.444,110057.11,114936.175,114936.80000019001,2023-12-04T21:49:22Z,114952.838,Toleranz,kuvumiliana,s,maombolezo,ujasusi,mchekeshaji,NA,NA,NA,NULL,NA,NA,NA,NA,NA,NA,NA,NA,NA,NA,NA,NA,NA,NA,NA,NA,NA,NA,NA
3a770,Deep Question,html.Page,1_12_0_0,NA,NA,form submission,5345.0620005722,114936.90000057001,114936.175,114952.838,120297.90000057,120298.20000076,2023-12-04T21:49:27Z,120314.861,Vermutung,udhanifu,d,haramia,tikisho,itifaki,urukaji,NA,NA,NULL,NA,NA,NA,NA,NA,NA,NA,NA,NA,NA,NA,NA,NA,NA,NA,NA,NA,NA,NA
3a770,Save data screen,canvas.Screen,1_12_0_1,NA,NA,timeout,499.568,120300,120281.937,120314.861,120797.788,120798.60000038,2023-12-04T21:49:28Z,120814.429,Vermutung,udhanifu,d,haramia,tikisho,itifaki,NA,NA,0,NULL,NA,NA,NA,NA,NA,NA,NA,NA,NA,NA,NA,NA,NA,NA,NA,NA,NA,NA,NA
3a770,deep,flow.Sequence,1_12_0,NA,NA,completion,5844.95,114936.90000057001,114936.175,114952.838,120797.788,120798.90000057001,2023-12-04T21:49:28Z,120814.429,Vermutung,udhanifu,d,haramia,tikisho,itifaki,NA,NA,NA,NULL,NA,NA,NA,NA,NA,NA,NA,NA,NA,NA,NA,NA,NA,NA,NA,NA,NA,NA,NA
3a770,task,flow.Sequence,1_12,NA,NA,completion,5844.95,114936.90000057001,114936.175,114952.838,120797.788,120799,2023-12-04T21:49:28Z,120814.429,Vermutung,udhanifu,d,haramia,tikisho,itifaki,NA,NA,NA,NULL,NA,NA,NA,NA,NA,NA,NA,NA,NA,NA,NA,NA,NA,NA,NA,NA,NA,NA,NA
3a770,Deep Question,html.Page,1_13_0_0,NA,NA,form submission,9653.4710005722,120799.40000057,120797.788,120814.429,130467.90000057001,130468.20000076,2023-12-04T21:49:38Z,130472.835,Schlange,foleni,s,uvumilivu,uteuzi,muuzaji,toji,NA,NA,NULL,NA,NA,NA,NA,NA,NA,NA,NA,NA,NA,NA,NA,NA,NA,NA,NA,NA,NA,NA
3a770,Save data screen,canvas.Screen,1_13_0_1,NA,NA,timeout,499.288,130470.30000019001,130455.892,130472.835,130955.454,130956.10000038,2023-12-04T21:49:38Z,130972.123,Schlange,foleni,s,uvumilivu,uteuzi,muuzaji,NA,NA,0,NULL,NA,NA,NA,NA,NA,NA,NA,NA,NA,NA,NA,NA,NA,NA,NA,NA,NA,NA,NA
3a770,deep,flow.Sequence,1_13_0,NA,NA,completion,10141.025,120799.30000019001,120797.788,120814.429,130955.454,130956.20000076,2023-12-04T21:49:38Z,130972.123,Schlange,foleni,s,uvumilivu,uteuzi,muuzaji,NA,NA,NA,NULL,NA,NA,NA,NA,NA,NA,NA,NA,NA,NA,NA,NA,NA,NA,NA,NA,NA,NA,NA
3a770,task,flow.Sequence,1_13,NA,NA,completion,10141.025,120799.20000076,120797.788,120814.429,130955.454,130956.30000019001,2023-12-04T21:49:38Z,130972.123,Schlange,foleni,s,uvumilivu,uteuzi,muuzaji,NA,NA,NA,NULL,NA,NA,NA,NA,NA,NA,NA,NA,NA,NA,NA,NA,NA,NA,NA,NA,NA,NA,NA
3a770,Deep Question,html.Page,1_14_0_0,NA,NA,form submission,3874.6770001907,130956.40000057001,130955.454,130972.123,134846.80000019,134847.10000038001,2023-12-04T21:49:42Z,134852.099,Inhalt,yaliyomo,d,kishawishi,hifadhi,kutembea,mkunku,NA,NA,NULL,NA,NA,NA,NA,NA,NA,NA,NA,NA,NA,NA,NA,NA,NA,NA,NA,NA,NA,NA
3a770,Save data screen,canvas.Screen,1_14_0_1,NA,NA,timeout,499.584,134849,134836.566,134852.099,135334.958,135335.5,2023-12-04T21:49:42Z,135351.683,Inhalt,yaliyomo,d,kishawishi,hifadhi,kutembea,NA,NA,0,NULL,NA,NA,NA,NA,NA,NA,NA,NA,NA,NA,NA,NA,NA,NA,NA,NA,NA,NA,NA
3a770,deep,flow.Sequence,1_14_0,NA,NA,completion,4362.835,130956.40000057001,130955.454,130972.123,135334.958,135335.70000076,2023-12-04T21:49:42Z,135351.683,Inhalt,yaliyomo,d,kishawishi,hifadhi,kutembea,NA,NA,NA,NULL,NA,NA,NA,NA,NA,NA,NA,NA,NA,NA,NA,NA,NA,NA,NA,NA,NA,NA,NA
3a770,task,flow.Sequence,1_14,NA,NA,completion,4362.835,130956.40000057001,130955.454,130972.123,135334.958,135335.70000076,2023-12-04T21:49:42Z,135351.683,Inhalt,yaliyomo,d,kishawishi,hifadhi,kutembea,NA,NA,NA,NULL,NA,NA,NA,NA,NA,NA,NA,NA,NA,NA,NA,NA,NA,NA,NA,NA,NA,NA,NA
3a770,Deep Question,html.Page,1_15_0_0,NA,NA,form submission,6086.7170005722,135335.80000019,135334.958,135351.683,141438.40000057,141438.70000076,2023-12-04T21:49:49Z,141446.293,Vergnügen,kichekesho,d,dubwana,mpanuko,mtesaji,watabi,NA,NA,NULL,NA,NA,NA,NA,NA,NA,NA,NA,NA,NA,NA,NA,NA,NA,NA,NA,NA,NA,NA
3a770,Save data screen,canvas.Screen,1_15_0_1,NA,NA,timeout,499.891,141440.70000076,141430.387,141446.293,141929.212,141929.70000076,2023-12-04T21:49:49Z,141946.184,Vergnügen,kichekesho,d,dubwana,mpanuko,mtesaji,NA,NA,0,NULL,NA,NA,NA,NA,NA,NA,NA,NA,NA,NA,NA,NA,NA,NA,NA,NA,NA,NA,NA
3a770,deep,flow.Sequence,1_15_0,NA,NA,completion,6577.529,135335.80000019,135334.958,135351.683,141929.212,141929.90000057,2023-12-04T21:49:49Z,141946.184,Vergnügen,kichekesho,d,dubwana,mpanuko,mtesaji,NA,NA,NA,NULL,NA,NA,NA,NA,NA,NA,NA,NA,NA,NA,NA,NA,NA,NA,NA,NA,NA,NA,NA
3a770,task,flow.Sequence,1_15,NA,NA,completion,6577.529,135335.80000019,135334.958,135351.683,141929.212,141930,2023-12-04T21:49:49Z,141946.184,Vergnügen,kichekesho,d,dubwana,mpanuko,mtesaji,NA,NA,NA,NULL,NA,NA,NA,NA,NA,NA,NA,NA,NA,NA,NA,NA,NA,NA,NA,NA,NA,NA,NA
3a770,retrieval block 1 (cued recall),flow.Loop,1,NA,NA,completion,133066.822,8859.7000007629,8846.202,8862.39,141929.212,141930.10000038001,2023-12-04T21:49:49Z,141946.184,NA,NA,NA,NA,NA,NA,NA,NA,NA,NULL,NA,NA,NA,NA,NA,NA,NA,NA,NA,NA,NA,NA,NA,NA,NA,NA,NA,NA,NA
3a770,Shallow Question,html.Page,2_0_0_0,NA,NA,form submission,14580.616000191,141930.10000038001,141929.212,141946.184,156526.80000019,156527.10000038001,2023-12-04T21:50:04Z,156533.084,Spionage,upelelezi,s,maslahi,utokazo,magangao,upelelezi,NA,NA,"c(""distractor1"", ""distractor2"", ""distractor3"")",NA,NA,NA,NA,NA,NA,NA,NA,NA,NA,NA,NA,NA,NA,NA,NA,NA,NA,NA
3a770,Save data screen,canvas.Screen,2_0_0_1,NA,NA,timeout,499.56599999999,156529.10000038001,156516.442,156533.084,157016.01,157016.60000038001,2023-12-04T21:50:04Z,157032.65,Spionage,upelelezi,s,maslahi,utokazo,magangao,NA,NA,1,"c(""distractor1"", ""distractor2"", ""distractor3"")",NA,NA,NA,NA,NA,NA,NA,NA,NA,NA,NA,NA,NA,NA,NA,NA,NA,NA,NA
3a770,shallow,flow.Sequence,2_0_0,NA,NA,completion,15069.826,141930.10000038001,141929.212,141946.184,157016.01,157016.90000057,2023-12-04T21:50:04Z,157032.65,Spionage,upelelezi,s,maslahi,utokazo,magangao,NA,NA,NA,"c(""distractor1"", ""distractor2"", ""distractor3"")",NA,NA,NA,NA,NA,NA,NA,NA,NA,NA,NA,NA,NA,NA,NA,NA,NA,NA,NA
3a770,task,flow.Sequence,2_0,NA,NA,completion,15069.826,141930.10000038001,141929.212,141946.184,157016.01,157016.90000057,2023-12-04T21:50:04Z,157032.65,Spionage,upelelezi,s,maslahi,utokazo,magangao,NA,NA,NA,"c(""distractor1"", ""distractor2"", ""distractor3"")",NA,NA,NA,NA,NA,NA,NA,NA,NA,NA,NA,NA,NA,NA,NA,NA,NA,NA,NA
3a770,Shallow Question,html.Page,2_1_0_0,NA,NA,form submission,3912.0500007629,157017,157016.01,157032.65,160944.70000076,160944.90000057,2023-12-04T21:50:08Z,160945.886,Fenster,dirisha,s,walakini,tasawari,maarifa,dirisha,NA,NA,"c(""distractor1"", ""distractor2"", ""distractor3"")",NA,NA,NA,NA,NA,NA,NA,NA,NA,NA,NA,NA,NA,NA,NA,NA,NA,NA,NA
3a770,Save data screen,canvas.Screen,2_1_0_1,NA,NA,timeout,499.55900000001,160946.60000038001,160929.269,160945.886,161428.844,161429.30000019,2023-12-04T21:50:09Z,161445.445,Fenster,dirisha,s,walakini,tasawari,maarifa,NA,NA,1,"c(""distractor1"", ""distractor2"", ""distractor3"")",NA,NA,NA,NA,NA,NA,NA,NA,NA,NA,NA,NA,NA,NA,NA,NA,NA,NA,NA
3a770,shallow,flow.Sequence,2_1_0,NA,NA,completion,4396.194,157017,157016.01,157032.65,161428.844,161429.60000038001,2023-12-04T21:50:09Z,161445.445,Fenster,dirisha,s,walakini,tasawari,maarifa,NA,NA,NA,"c(""distractor1"", ""distractor2"", ""distractor3"")",NA,NA,NA,NA,NA,NA,NA,NA,NA,NA,NA,NA,NA,NA,NA,NA,NA,NA,NA
3a770,task,flow.Sequence,2_1,NA,NA,completion,4396.194,157017,157016.01,157032.65,161428.844,161429.80000019,2023-12-04T21:50:09Z,161445.445,Fenster,dirisha,s,walakini,tasawari,maarifa,NA,NA,NA,"c(""distractor1"", ""distractor2"", ""distractor3"")",NA,NA,NA,NA,NA,NA,NA,NA,NA,NA,NA,NA,NA,NA,NA,NA,NA,NA,NA
3a770,Shallow Question,html.Page,2_2_0_0,NA,NA,form submission,9986.1550003815,161430,161428.844,161445.445,171431.60000038001,171431.70000076,2023-12-04T21:50:19Z,171436.652,Schock,mshtuko,s,biashara,kukataza,vichekesho,kukataza,NA,NA,"c(""distractor1"", ""distractor2"", ""distractor3"")",NA,NA,NA,NA,NA,NA,NA,NA,NA,NA,NA,NA,NA,NA,NA,NA,NA,NA,NA
3a770,Save data screen,canvas.Screen,2_2_0_1,NA,NA,timeout,499.55499999999,171433.40000057,171420.049,171436.652,171919.585,171920.10000038001,2023-12-04T21:50:19Z,171936.207,Schock,mshtuko,s,biashara,kukataza,vichekesho,NA,NA,0,"c(""distractor1"", ""distractor2"", ""distractor3"")",NA,NA,NA,NA,NA,NA,NA,NA,NA,NA,NA,NA,NA,NA,NA,NA,NA,NA,NA
3a770,shallow,flow.Sequence,2_2_0,NA,NA,completion,10474.14,161429.90000057,161428.844,161445.445,171919.585,171920.30000019,2023-12-04T21:50:19Z,171936.207,Schock,mshtuko,s,biashara,kukataza,vichekesho,NA,NA,NA,"c(""distractor1"", ""distractor2"", ""distractor3"")",NA,NA,NA,NA,NA,NA,NA,NA,NA,NA,NA,NA,NA,NA,NA,NA,NA,NA,NA
3a770,task,flow.Sequence,2_2,NA,NA,completion,10474.14,161429.90000057,161428.844,161445.445,171919.585,171920.40000057,2023-12-04T21:50:19Z,171936.207,Schock,mshtuko,s,biashara,kukataza,vichekesho,NA,NA,NA,"c(""distractor1"", ""distractor2"", ""distractor3"")",NA,NA,NA,NA,NA,NA,NA,NA,NA,NA,NA,NA,NA,NA,NA,NA,NA,NA,NA
3a770,Shallow Question,html.Page,2_3_0_0,NA,NA,form submission,16776.293,171920.60000038001,171919.585,171936.207,188712.5,188712.70000076,2023-12-04T21:50:36Z,188721.502,Theorie,nadharia,s,ushungi,mkutano,uwakilishi,uwakilishi,NA,NA,"c(""distractor1"", ""distractor2"", ""distractor3"")",NA,NA,NA,NA,NA,NA,NA,NA,NA,NA,NA,NA,NA,NA,NA,NA,NA,NA,NA
3a770,Save data screen,canvas.Screen,2_3_0_1,NA,NA,timeout,499.576,188714.20000076,188704.172,188721.502,189212.461,189212.90000057,2023-12-04T21:50:36Z,189221.078,Theorie,nadharia,s,ushungi,mkutano,uwakilishi,NA,NA,0,"c(""distractor1"", ""distractor2"", ""distractor3"")",NA,NA,NA,NA,NA,NA,NA,NA,NA,NA,NA,NA,NA,NA,NA,NA,NA,NA,NA
3a770,shallow,flow.Sequence,2_3_0,NA,NA,completion,17276.254,171920.5,171919.585,171936.207,189212.461,189213.10000038001,2023-12-04T21:50:36Z,189221.078,Theorie,nadharia,s,ushungi,mkutano,uwakilishi,NA,NA,NA,"c(""distractor1"", ""distractor2"", ""distractor3"")",NA,NA,NA,NA,NA,NA,NA,NA,NA,NA,NA,NA,NA,NA,NA,NA,NA,NA,NA
3a770,task,flow.Sequence,2_3,NA,NA,completion,17276.254,171920.5,171919.585,171936.207,189212.461,189213.20000076,2023-12-04T21:50:36Z,189221.078,Theorie,nadharia,s,ushungi,mkutano,uwakilishi,NA,NA,NA,"c(""distractor1"", ""distractor2"", ""distractor3"")",NA,NA,NA,NA,NA,NA,NA,NA,NA,NA,NA,NA,NA,NA,NA,NA,NA,NA,NA
3a770,Shallow Question,html.Page,2_4_0_0,NA,NA,form submission,10740.522000381001,189213.20000076,189212.461,189221.078,199961.60000038001,199961.90000057,2023-12-04T21:50:47Z,199985.222,Vermutung,udhanifu,d,haramia,tikisho,itifaki,udhanifu,NA,NA,"c(""distractor1"", ""distractor2"", ""distractor3"")",NA,NA,NA,NA,NA,NA,NA,NA,NA,NA,NA,NA,NA,NA,NA,NA,NA,NA,NA
3a770,Save data screen,canvas.Screen,2_4_0_1,NA,NA,timeout,492.69,199963.70000076,199945.1,199985.222,200461.279,200461.80000019,2023-12-04T21:50:48Z,200477.912,Vermutung,udhanifu,d,haramia,tikisho,itifaki,NA,NA,1,"c(""distractor1"", ""distractor2"", ""distractor3"")",NA,NA,NA,NA,NA,NA,NA,NA,NA,NA,NA,NA,NA,NA,NA,NA,NA,NA,NA
3a770,shallow,flow.Sequence,2_4_0,NA,NA,completion,11240.201,189213.20000076,189212.461,189221.078,200461.279,200462,2023-12-04T21:50:48Z,200477.912,Vermutung,udhanifu,d,haramia,tikisho,itifaki,NA,NA,NA,"c(""distractor1"", ""distractor2"", ""distractor3"")",NA,NA,NA,NA,NA,NA,NA,NA,NA,NA,NA,NA,NA,NA,NA,NA,NA,NA,NA
3a770,task,flow.Sequence,2_4,NA,NA,completion,11240.201,189213.20000076,189212.461,189221.078,200461.279,200462.10000038001,2023-12-04T21:50:48Z,200477.912,Vermutung,udhanifu,d,haramia,tikisho,itifaki,NA,NA,NA,"c(""distractor1"", ""distractor2"", ""distractor3"")",NA,NA,NA,NA,NA,NA,NA,NA,NA,NA,NA,NA,NA,NA,NA,NA,NA,NA,NA
3a770,Shallow Question,html.Page,2_5_0_0,NA,NA,form submission,7560.088,200462.20000076,200461.279,200477.912,208038,208038.30000019,2023-12-04T21:50:55Z,208061.116,Inhalt,yaliyomo,d,kishawishi,hifadhi,kutembea,yaliyomo,NA,NA,"c(""distractor1"", ""distractor2"", ""distractor3"")",NA,NA,NA,NA,NA,NA,NA,NA,NA,NA,NA,NA,NA,NA,NA,NA,NA,NA,NA
3a770,Save data screen,canvas.Screen,2_5_0_1,NA,NA,timeout,493.08199999999,208040,208021.276,208061.116,208537.54,208538.20000076,2023-12-04T21:50:56Z,208554.198,Inhalt,yaliyomo,d,kishawishi,hifadhi,kutembea,NA,NA,1,"c(""distractor1"", ""distractor2"", ""distractor3"")",NA,NA,NA,NA,NA,NA,NA,NA,NA,NA,NA,NA,NA,NA,NA,NA,NA,NA,NA
3a770,shallow,flow.Sequence,2_5_0,NA,NA,completion,8059.628,200462.20000076,200461.279,200477.912,208537.54,208538.30000019,2023-12-04T21:50:56Z,208554.198,Inhalt,yaliyomo,d,kishawishi,hifadhi,kutembea,NA,NA,NA,"c(""distractor1"", ""distractor2"", ""distractor3"")",NA,NA,NA,NA,NA,NA,NA,NA,NA,NA,NA,NA,NA,NA,NA,NA,NA,NA,NA
3a770,task,flow.Sequence,2_5,NA,NA,completion,8059.628,200462.10000038001,200461.279,200477.912,208537.54,208538.40000057,2023-12-04T21:50:56Z,208554.198,Inhalt,yaliyomo,d,kishawishi,hifadhi,kutembea,NA,NA,NA,"c(""distractor1"", ""distractor2"", ""distractor3"")",NA,NA,NA,NA,NA,NA,NA,NA,NA,NA,NA,NA,NA,NA,NA,NA,NA,NA,NA
3a770,Shallow Question,html.Page,2_6_0_0,NA,NA,form submission,9913.0020007629,208538.5,208537.54,208554.198,218467.20000076,218467.40000057,2023-12-04T21:51:06Z,218478.794,Wohlstand,mafanikio,s,chimbuko,kumbuko,mapwaji,kumbuko,NA,NA,"c(""distractor1"", ""distractor2"", ""distractor3"")",NA,NA,NA,NA,NA,NA,NA,NA,NA,NA,NA,NA,NA,NA,NA,NA,NA,NA,NA
3a770,Save data screen,canvas.Screen,2_6_0_1,NA,NA,timeout,499.611,218469.20000076,218462.217,218478.794,218961.75,218962.30000019,2023-12-04T21:51:06Z,218978.405,Wohlstand,mafanikio,s,chimbuko,kumbuko,mapwaji,NA,NA,0,"c(""distractor1"", ""distractor2"", ""distractor3"")",NA,NA,NA,NA,NA,NA,NA,NA,NA,NA,NA,NA,NA,NA,NA,NA,NA,NA,NA
3a770,shallow,flow.Sequence,2_6_0,NA,NA,completion,10407.552,208538.5,208537.54,208554.198,218961.75,218962.60000038001,2023-12-04T21:51:06Z,218978.405,Wohlstand,mafanikio,s,chimbuko,kumbuko,mapwaji,NA,NA,NA,"c(""distractor1"", ""distractor2"", ""distractor3"")",NA,NA,NA,NA,NA,NA,NA,NA,NA,NA,NA,NA,NA,NA,NA,NA,NA,NA,NA
3a770,task,flow.Sequence,2_6,NA,NA,completion,10407.552,208538.5,208537.54,208554.198,218961.75,218962.60000038001,2023-12-04T21:51:06Z,218978.405,Wohlstand,mafanikio,s,chimbuko,kumbuko,mapwaji,NA,NA,NA,"c(""distractor1"", ""distractor2"", ""distractor3"")",NA,NA,NA,NA,NA,NA,NA,NA,NA,NA,NA,NA,NA,NA,NA,NA,NA,NA,NA
3a770,Shallow Question,html.Page,2_7_0_0,NA,NA,form submission,6559.7950007629,218962.80000019,218961.75,218978.405,225538.20000076,225538.30000019,2023-12-04T21:51:13Z,225539.325,Hoffnung,matarajio,d,kutaalamika,uratibu,mvumbuzi,matarajio,NA,NA,"c(""distractor1"", ""distractor2"", ""distractor3"")",NA,NA,NA,NA,NA,NA,NA,NA,NA,NA,NA,NA,NA,NA,NA,NA,NA,NA,NA
3a770,Save data screen,canvas.Screen,2_7_0_1,NA,NA,timeout,499.53399999999,225540.30000019,225522.81,225539.325,226022.225,226022.70000076,2023-12-04T21:51:13Z,226038.859,Hoffnung,matarajio,d,kutaalamika,uratibu,mvumbuzi,NA,NA,1,"c(""distractor1"", ""distractor2"", ""distractor3"")",NA,NA,NA,NA,NA,NA,NA,NA,NA,NA,NA,NA,NA,NA,NA,NA,NA,NA,NA
3a770,shallow,flow.Sequence,2_7_0,NA,NA,completion,7043.82,218962.80000019,218961.75,218978.405,226022.225,226022.90000057,2023-12-04T21:51:13Z,226038.859,Hoffnung,matarajio,d,kutaalamika,uratibu,mvumbuzi,NA,NA,NA,"c(""distractor1"", ""distractor2"", ""distractor3"")",NA,NA,NA,NA,NA,NA,NA,NA,NA,NA,NA,NA,NA,NA,NA,NA,NA,NA,NA
3a770,task,flow.Sequence,2_7,NA,NA,completion,7043.82,218962.80000019,218961.75,218978.405,226022.225,226023,2023-12-04T21:51:13Z,226038.859,Hoffnung,matarajio,d,kutaalamika,uratibu,mvumbuzi,NA,NA,NA,"c(""distractor1"", ""distractor2"", ""distractor3"")",NA,NA,NA,NA,NA,NA,NA,NA,NA,NA,NA,NA,NA,NA,NA,NA,NA,NA,NA
3a770,Shallow Question,html.Page,2_8_0_0,NA,NA,form submission,11975.941000191,226023.10000038001,226022.225,226038.859,238014.80000019,238015,2023-12-04T21:51:25Z,238028.36,Verpackung,ufungaji,d,uhusiano,upimaji,uchunguzi,ufungaji,NA,NA,"c(""distractor1"", ""distractor2"", ""distractor3"")",NA,NA,NA,NA,NA,NA,NA,NA,NA,NA,NA,NA,NA,NA,NA,NA,NA,NA,NA
3a770,Save data screen,canvas.Screen,2_8_0_1,NA,NA,timeout,499.58800000002,238016.70000076,238010.506,238028.36,238511.288,238511.80000019,2023-12-04T21:51:26Z,238527.948,Verpackung,ufungaji,d,uhusiano,upimaji,uchunguzi,NA,NA,1,"c(""distractor1"", ""distractor2"", ""distractor3"")",NA,NA,NA,NA,NA,NA,NA,NA,NA,NA,NA,NA,NA,NA,NA,NA,NA,NA,NA
3a770,shallow,flow.Sequence,2_8_0,NA,NA,completion,12472.429,226023.10000038001,226022.225,226038.859,238511.288,238512,2023-12-04T21:51:26Z,238527.948,Verpackung,ufungaji,d,uhusiano,upimaji,uchunguzi,NA,NA,NA,"c(""distractor1"", ""distractor2"", ""distractor3"")",NA,NA,NA,NA,NA,NA,NA,NA,NA,NA,NA,NA,NA,NA,NA,NA,NA,NA,NA
3a770,task,flow.Sequence,2_8,NA,NA,completion,12472.429,226023.10000038001,226022.225,226038.859,238511.288,238512,2023-12-04T21:51:26Z,238527.948,Verpackung,ufungaji,d,uhusiano,upimaji,uchunguzi,NA,NA,NA,"c(""distractor1"", ""distractor2"", ""distractor3"")",NA,NA,NA,NA,NA,NA,NA,NA,NA,NA,NA,NA,NA,NA,NA,NA,NA,NA,NA
3a770,Shallow Question,html.Page,2_9_0_0,NA,NA,form submission,11657.552,238512.10000038001,238511.288,238527.948,250185.5,250185.70000076,2023-12-04T21:51:37Z,250201.049,Tester,wanaojaribu,d,sherti,sihiri,mlipuko,wanaojaribu,NA,NA,"c(""distractor1"", ""distractor2"", ""distractor3"")",NA,NA,NA,NA,NA,NA,NA,NA,NA,NA,NA,NA,NA,NA,NA,NA,NA,NA,NA
3a770,Save data screen,canvas.Screen,2_9_0_1,NA,NA,timeout,499.54199999999,250187.5,250168.525,250201.049,250683.961,250684.60000038001,2023-12-04T21:51:38Z,250700.591,Tester,wanaojaribu,d,sherti,sihiri,mlipuko,NA,NA,1,"c(""distractor1"", ""distractor2"", ""distractor3"")",NA,NA,NA,NA,NA,NA,NA,NA,NA,NA,NA,NA,NA,NA,NA,NA,NA,NA,NA
3a770,shallow,flow.Sequence,2_9_0,NA,NA,completion,12156.013,238512.10000038001,238511.288,238527.948,250683.961,250684.70000076,2023-12-04T21:51:38Z,250700.591,Tester,wanaojaribu,d,sherti,sihiri,mlipuko,NA,NA,NA,"c(""distractor1"", ""distractor2"", ""distractor3"")",NA,NA,NA,NA,NA,NA,NA,NA,NA,NA,NA,NA,NA,NA,NA,NA,NA,NA,NA
3a770,task,flow.Sequence,2_9,NA,NA,completion,12156.013,238512.10000038001,238511.288,238527.948,250683.961,250684.80000019,2023-12-04T21:51:38Z,250700.591,Tester,wanaojaribu,d,sherti,sihiri,mlipuko,NA,NA,NA,"c(""distractor1"", ""distractor2"", ""distractor3"")",NA,NA,NA,NA,NA,NA,NA,NA,NA,NA,NA,NA,NA,NA,NA,NA,NA,NA,NA
3a770,Shallow Question,html.Page,2_10_0_0,NA,NA,form submission,3688.409,250684.90000057,250683.961,250700.591,254389,254389.20000076,2023-12-04T21:51:42Z,254397.33,Notfall,dharura,d,rairai,malalamiko,ahueni,dharura,NA,NA,"c(""distractor1"", ""distractor2"", ""distractor3"")",NA,NA,NA,NA,NA,NA,NA,NA,NA,NA,NA,NA,NA,NA,NA,NA,NA,NA,NA
3a770,Save data screen,canvas.Screen,2_10_0_1,NA,NA,timeout,499.614,254390.80000019,254383.015,254397.33,254880.274,254880.80000019,2023-12-04T21:51:42Z,254896.944,Notfall,dharura,d,rairai,malalamiko,ahueni,NA,NA,1,"c(""distractor1"", ""distractor2"", ""distractor3"")",NA,NA,NA,NA,NA,NA,NA,NA,NA,NA,NA,NA,NA,NA,NA,NA,NA,NA,NA
3a770,shallow,flow.Sequence,2_10_0,NA,NA,completion,4179.683,250684.90000057,250683.961,250700.591,254880.274,254881,2023-12-04T21:51:42Z,254896.944,Notfall,dharura,d,rairai,malalamiko,ahueni,NA,NA,NA,"c(""distractor1"", ""distractor2"", ""distractor3"")",NA,NA,NA,NA,NA,NA,NA,NA,NA,NA,NA,NA,NA,NA,NA,NA,NA,NA,NA
3a770,task,flow.Sequence,2_10,NA,NA,completion,4179.683,250684.80000019,250683.961,250700.591,254880.274,254881,2023-12-04T21:51:42Z,254896.944,Notfall,dharura,d,rairai,malalamiko,ahueni,NA,NA,NA,"c(""distractor1"", ""distractor2"", ""distractor3"")",NA,NA,NA,NA,NA,NA,NA,NA,NA,NA,NA,NA,NA,NA,NA,NA,NA,NA,NA
3a770,Shallow Question,html.Page,2_11_0_0,NA,NA,form submission,6668.556,254881.10000038001,254880.274,254896.944,261565.5,261565.80000019,2023-12-04T21:51:49Z,261574.415,Vergnügen,kichekesho,d,dubwana,mpanuko,mtesaji,kichekesho,NA,NA,"c(""distractor1"", ""distractor2"", ""distractor3"")",NA,NA,NA,NA,NA,NA,NA,NA,NA,NA,NA,NA,NA,NA,NA,NA,NA,NA,NA
3a770,Save data screen,canvas.Screen,2_11_0_1,NA,NA,timeout,500.03399999999,261567.80000019,261557.768,261574.415,262057.357,262058,2023-12-04T21:51:49Z,262074.449,Vergnügen,kichekesho,d,dubwana,mpanuko,mtesaji,NA,NA,1,"c(""distractor1"", ""distractor2"", ""distractor3"")",NA,NA,NA,NA,NA,NA,NA,NA,NA,NA,NA,NA,NA,NA,NA,NA,NA,NA,NA
3a770,shallow,flow.Sequence,2_11_0,NA,NA,completion,7160.413,254881.10000038001,254880.274,254896.944,262057.357,262058.20000076,2023-12-04T21:51:49Z,262074.449,Vergnügen,kichekesho,d,dubwana,mpanuko,mtesaji,NA,NA,NA,"c(""distractor1"", ""distractor2"", ""distractor3"")",NA,NA,NA,NA,NA,NA,NA,NA,NA,NA,NA,NA,NA,NA,NA,NA,NA,NA,NA
3a770,task,flow.Sequence,2_11,NA,NA,completion,7160.413,254881,254880.274,254896.944,262057.357,262058.30000019,2023-12-04T21:51:49Z,262074.449,Vergnügen,kichekesho,d,dubwana,mpanuko,mtesaji,NA,NA,NA,"c(""distractor1"", ""distractor2"", ""distractor3"")",NA,NA,NA,NA,NA,NA,NA,NA,NA,NA,NA,NA,NA,NA,NA,NA,NA,NA,NA
3a770,Shallow Question,html.Page,2_12_0_0,NA,NA,form submission,4059.3510001907,262058.30000019,262057.357,262074.449,266133.80000019,266134,2023-12-04T21:51:53Z,266137.099,Ergänzung,kijalizo,s,ulaghai,mustarehe,matangazo,matangazo,NA,NA,"c(""distractor1"", ""distractor2"", ""distractor3"")",NA,NA,NA,NA,NA,NA,NA,NA,NA,NA,NA,NA,NA,NA,NA,NA,NA,NA,NA
3a770,Save data screen,canvas.Screen,2_12_0_1,NA,NA,timeout,499.554,266135.60000038,266120.546,266137.099,266619.973,266620.60000038,2023-12-04T21:51:54Z,266636.653,Ergänzung,kijalizo,s,ulaghai,mustarehe,matangazo,NA,NA,0,"c(""distractor1"", ""distractor2"", ""distractor3"")",NA,NA,NA,NA,NA,NA,NA,NA,NA,NA,NA,NA,NA,NA,NA,NA,NA,NA,NA
3a770,shallow,flow.Sequence,2_12_0,NA,NA,completion,4545.524,262058.30000019,262057.357,262074.449,266619.973,266620.80000019,2023-12-04T21:51:54Z,266636.653,Ergänzung,kijalizo,s,ulaghai,mustarehe,matangazo,NA,NA,NA,"c(""distractor1"", ""distractor2"", ""distractor3"")",NA,NA,NA,NA,NA,NA,NA,NA,NA,NA,NA,NA,NA,NA,NA,NA,NA,NA,NA
3a770,task,flow.Sequence,2_12,NA,NA,completion,4545.524,262058.30000019,262057.357,262074.449,266619.973,266620.80000019,2023-12-04T21:51:54Z,266636.653,Ergänzung,kijalizo,s,ulaghai,mustarehe,matangazo,NA,NA,NA,"c(""distractor1"", ""distractor2"", ""distractor3"")",NA,NA,NA,NA,NA,NA,NA,NA,NA,NA,NA,NA,NA,NA,NA,NA,NA,NA,NA
3a770,Shallow Question,html.Page,2_13_0_0,NA,NA,form submission,4889.5470007629,266620.90000057,266619.973,266636.653,271526.20000076003,271526.5,2023-12-04T21:51:59Z,271532.553,Schüler,mwanafunzi,d,mwekezaji,matumizi,uaminifu,mwanafunzi,NA,NA,"c(""distractor1"", ""distractor2"", ""distractor3"")",NA,NA,NA,NA,NA,NA,NA,NA,NA,NA,NA,NA,NA,NA,NA,NA,NA,NA,NA
3a770,Save data screen,canvas.Screen,2_13_0_1,NA,NA,timeout,499.34700000001,271528.20000076003,271515.759,271532.553,272015.251,272015.60000038,2023-12-04T21:51:59Z,272031.9,Schüler,mwanafunzi,d,mwekezaji,matumizi,uaminifu,NA,NA,1,"c(""distractor1"", ""distractor2"", ""distractor3"")",NA,NA,NA,NA,NA,NA,NA,NA,NA,NA,NA,NA,NA,NA,NA,NA,NA,NA,NA
3a770,shallow,flow.Sequence,2_13_0,NA,NA,completion,5378.598,266620.90000057,266619.973,266636.653,272015.251,272015.70000076003,2023-12-04T21:51:59Z,272031.9,Schüler,mwanafunzi,d,mwekezaji,matumizi,uaminifu,NA,NA,NA,"c(""distractor1"", ""distractor2"", ""distractor3"")",NA,NA,NA,NA,NA,NA,NA,NA,NA,NA,NA,NA,NA,NA,NA,NA,NA,NA,NA
3a770,task,flow.Sequence,2_13,NA,NA,completion,5378.598,266620.80000019,266619.973,266636.653,272015.251,272015.80000019,2023-12-04T21:51:59Z,272031.9,Schüler,mwanafunzi,d,mwekezaji,matumizi,uaminifu,NA,NA,NA,"c(""distractor1"", ""distractor2"", ""distractor3"")",NA,NA,NA,NA,NA,NA,NA,NA,NA,NA,NA,NA,NA,NA,NA,NA,NA,NA,NA
3a770,Shallow Question,html.Page,2_14_0_0,NA,NA,form submission,3008.5000005722,272015.80000019,272015.251,272031.9,275040.40000057,275040.5,2023-12-04T21:52:02Z,275045.931,Schlange,foleni,s,uvumilivu,uteuzi,muuzaji,foleni,NA,NA,"c(""distractor1"", ""distractor2"", ""distractor3"")",NA,NA,NA,NA,NA,NA,NA,NA,NA,NA,NA,NA,NA,NA,NA,NA,NA,NA,NA
3a770,Save data screen,canvas.Screen,2_14_0_1,NA,NA,timeout,499.56300000002,275041.70000076003,275029.371,275045.931,275528.829,275529.30000019,2023-12-04T21:52:03Z,275545.494,Schlange,foleni,s,uvumilivu,uteuzi,muuzaji,NA,NA,1,"c(""distractor1"", ""distractor2"", ""distractor3"")",NA,NA,NA,NA,NA,NA,NA,NA,NA,NA,NA,NA,NA,NA,NA,NA,NA,NA,NA
3a770,shallow,flow.Sequence,2_14_0,NA,NA,completion,3496.929,272015.80000019,272015.251,272031.9,275528.829,275529.40000057,2023-12-04T21:52:03Z,275545.494,Schlange,foleni,s,uvumilivu,uteuzi,muuzaji,NA,NA,NA,"c(""distractor1"", ""distractor2"", ""distractor3"")",NA,NA,NA,NA,NA,NA,NA,NA,NA,NA,NA,NA,NA,NA,NA,NA,NA,NA,NA
3a770,task,flow.Sequence,2_14,NA,NA,completion,3496.929,272015.80000019,272015.251,272031.9,275528.829,275529.40000057,2023-12-04T21:52:03Z,275545.494,Schlange,foleni,s,uvumilivu,uteuzi,muuzaji,NA,NA,NA,"c(""distractor1"", ""distractor2"", ""distractor3"")",NA,NA,NA,NA,NA,NA,NA,NA,NA,NA,NA,NA,NA,NA,NA,NA,NA,NA,NA
3a770,Shallow Question,html.Page,2_15_0_0,NA,NA,form submission,5388.1060003815,275529.5,275528.829,275545.494,280933.60000038,280933.90000057,2023-12-04T21:52:08Z,280940.767,Toleranz,kuvumiliana,s,maombolezo,ujasusi,mchekeshaji,maombolezo,NA,NA,"c(""distractor1"", ""distractor2"", ""distractor3"")",NA,NA,NA,NA,NA,NA,NA,NA,NA,NA,NA,NA,NA,NA,NA,NA,NA,NA,NA
3a770,Save data screen,canvas.Screen,2_15_0_1,NA,NA,timeout,499.59100000001,280935.40000057,280925.111,280940.767,281423.694,281424.10000038,2023-12-04T21:52:09Z,281440.358,Toleranz,kuvumiliana,s,maombolezo,ujasusi,mchekeshaji,NA,NA,0,"c(""distractor1"", ""distractor2"", ""distractor3"")",NA,NA,NA,NA,NA,NA,NA,NA,NA,NA,NA,NA,NA,NA,NA,NA,NA,NA,NA
3a770,shallow,flow.Sequence,2_15_0,NA,NA,completion,5878.2,275529.5,275528.829,275545.494,281423.694,281424.20000076003,2023-12-04T21:52:09Z,281440.358,Toleranz,kuvumiliana,s,maombolezo,ujasusi,mchekeshaji,NA,NA,NA,"c(""distractor1"", ""distractor2"", ""distractor3"")",NA,NA,NA,NA,NA,NA,NA,NA,NA,NA,NA,NA,NA,NA,NA,NA,NA,NA,NA
3a770,task,flow.Sequence,2_15,NA,NA,completion,5878.2,275529.5,275528.829,275545.494,281423.694,281424.40000057,2023-12-04T21:52:09Z,281440.358,Toleranz,kuvumiliana,s,maombolezo,ujasusi,mchekeshaji,NA,NA,NA,"c(""distractor1"", ""distractor2"", ""distractor3"")",NA,NA,NA,NA,NA,NA,NA,NA,NA,NA,NA,NA,NA,NA,NA,NA,NA,NA,NA
3a770,retrieval block 2 (multiple choice),flow.Loop,2,NA,NA,completion,139477.51,141930.10000038001,141929.212,141946.184,281423.694,281424.5,2023-12-04T21:52:09Z,281440.358,NA,NA,NA,NA,NA,NA,NA,NA,NA,"c(""distractor1"", ""distractor2"", ""distractor3"")",NA,NA,NA,NA,NA,NA,NA,NA,NA,NA,NA,NA,NA,NA,NA,NA,NA,NA,NA
3a770,End,canvas.Screen,3,NA,keypress(Space),response,1559.3420007629,281424.5,281423.694,281440.358,282999.70000076003,283000.30000019,2023-12-04T21:52:10Z,283005.97,NA,NA,NA,NA,NA,NA,NA,NA,NA,NULL,NA,NA,NA,NA,NA,NA,NA,NA,NA,NA,NA,NA,NA,NA,NA,NA,NA,NA,NA
3a770,root,flow.Sequence,NA,NA,NA,completion,280631.67700076,2346.8000001907,2351.417,2368.023,282999.70000076003,283000.60000038,2023-12-04T21:52:10Z,283005.97,NA,NA,NA,NA,NA,NA,NA,NA,NA,NULL,NA,NA,NA,NA,NA,NA,NA,NA,NA,NA,NA,NA,NA,NA,NA,NA,NA,NA,NA
